,accelerometer_x,accelerometer_y,accelerometer_z,fall
0,26.0,-246.0,-10.0,0
1,29.0,-247.0,-8.0,0
2,30.0,-243.0,-2.0,0
3,27.0,-249.0,-5.0,0
4,26.0,-248.0,0.0,0
5,31.0,-251.0,0.0,0
6,28.0,-250.0,1.0,0
7,28.0,-242.0,-1.0,0
8,30.0,-249.0,0.0,0
9,29.0,-250.0,-5.0,0
10,26.0,-243.0,-4.0,0
11,29.0,-249.0,-8.0,0
12,29.0,-246.0,-2.0,0
13,24.0,-246.0,-6.0,0
14,31.0,-247.0,-5.0,0
15,24.0,-246.0,-6.0,0
16,25.0,-242.0,-15.0,0
17,27.0,-247.0,-7.0,0
18,24.0,-249.0,-6.0,0
19,25.0,-249.0,-5.0,0
20,27.0,-250.0,-2.0,0
21,29.0,-251.0,-8.0,0
22,29.0,-245.0,-4.0,0
23,28.0,-250.0,-6.0,0
24,30.0,-249.0,-4.0,0
25,26.0,-247.0,-2.0,0
26,25.0,-246.0,-7.0,0
27,29.0,-246.0,-7.0,0
28,28.0,-243.0,-4.0,0
29,28.0,-245.0,-4.0,0
30,28.0,-246.0,-2.0,0
31,31.0,-248.0,-2.0,0
32,28.0,-246.0,-1.0,0
33,29.0,-246.0,-6.0,0
34,30.0,-245.0,-7.0,0
35,28.0,-244.0,-3.0,0
36,30.0,-245.0,-4.0,0
37,27.0,-242.0,-10.0,0
38,31.0,-245.0,-1.0,0
39,28.0,-245.0,-4.0,0
40,34.0,-248.0,-4.0,0
41,31.0,-246.0,-3.0,0
42,29.0,-246.0,-7.0,0
43,31.0,-248.0,-6.0,0
44,32.0,-246.0,-1.0,0
45,29.0,-247.0,0.0,0
46,29.0,-246.0,-2.0,0
47,29.0,-248.0,0.0,0
48,31.0,-244.0,0.0,0
49,29.0,-247.0,-2.0,0
50,29.0,-245.0,-4.0,0
51,32.0,-245.0,-1.0,0
52,30.0,-244.0,0.0,0
53,30.0,-247.0,-6.0,0
54,26.0,-245.0,-2.0,0
55,29.0,-246.0,-2.0,0
56,31.0,-247.0,-2.0,0
57,29.0,-247.0,-6.0,0
58,26.0,-252.0,-3.0,0
59,30.0,-246.0,-7.0,0
60,29.0,-246.0,-3.0,0
61,29.0,-248.0,-9.0,0
62,29.0,-250.0,-9.0,0
63,29.0,-247.0,-3.0,0
64,27.0,-244.0,-7.0,0
65,27.0,-245.0,0.0,0
66,31.0,-249.0,-4.0,0
67,30.0,-248.0,-4.0,0
68,29.0,-246.0,-6.0,0
69,32.0,-250.0,1.0,0
70,33.0,-250.0,-3.0,0
71,30.0,-247.0,-2.0,0
72,30.0,-248.0,-1.0,0
73,29.0,-248.0,0.0,0
74,27.0,-244.0,-3.0,0
75,28.0,-246.0,-3.0,0
76,28.0,-245.0,-6.0,0
77,25.0,-244.0,-2.0,0
78,27.0,-242.0,-1.0,0
79,35.0,-243.0,-11.0,0
80,30.0,-244.0,-6.0,0
81,33.0,-247.0,0.0,0
82,33.0,-246.0,-5.0,0
83,36.0,-248.0,-4.0,0
84,30.0,-246.0,-2.0,0
85,32.0,-245.0,-2.0,0
86,33.0,-242.0,-4.0,0
87,33.0,-245.0,-1.0,0
88,32.0,-244.0,-2.0,0
89,31.0,-252.0,-7.0,0
90,33.0,-245.0,4.0,0
91,32.0,-247.0,-1.0,0
92,30.0,-252.0,-3.0,0
93,31.0,-249.0,-4.0,0
94,30.0,-247.0,-3.0,0
95,29.0,-246.0,-5.0,0
96,29.0,-249.0,0.0,0
97,29.0,-247.0,-4.0,0
98,28.0,-247.0,0.0,0
99,28.0,-250.0,-3.0,0
100,31.0,-247.0,0.0,0
101,26.0,-247.0,-4.0,0
102,27.0,-247.0,-2.0,0
103,27.0,-248.0,0.0,0
104,28.0,-249.0,-3.0,0
105,32.0,-248.0,-2.0,0
106,31.0,-246.0,-2.0,0
107,31.0,-241.0,-3.0,0
108,29.0,-244.0,-3.0,0
109,30.0,-243.0,-5.0,0
110,29.0,-246.0,-2.0,0
111,32.0,-247.0,-4.0,0
112,33.0,-245.0,0.0,0
113,28.0,-246.0,-3.0,0
114,32.0,-246.0,-1.0,0
115,30.0,-245.0,-4.0,0
116,29.0,-243.0,-7.0,0
117,29.0,-244.0,-3.0,0
118,29.0,-245.0,-5.0,0
119,31.0,-247.0,-2.0,0
120,30.0,-246.0,-4.0,0
121,31.0,-247.0,-4.0,0
122,25.0,-249.0,-8.0,0
123,34.0,-249.0,-4.0,0
124,34.0,-251.0,-8.0,0
125,31.0,-249.0,-1.0,0
126,31.0,-250.0,-1.0,0
127,31.0,-248.0,-3.0,0
128,34.0,-250.0,-5.0,0
129,32.0,-251.0,-7.0,0
130,32.0,-247.0,-9.0,0
131,34.0,-245.0,1.0,0
132,31.0,-250.0,-3.0,0
133,29.0,-243.0,-6.0,0
134,35.0,-248.0,-6.0,0
135,32.0,-252.0,0.0,0
136,35.0,-251.0,-4.0,0
137,32.0,-252.0,-3.0,0
138,33.0,-251.0,-5.0,0
139,31.0,-254.0,-5.0,0
140,29.0,-255.0,-4.0,0
141,36.0,-254.0,2.0,0
142,36.0,-255.0,0.0,0
143,23.0,-254.0,4.0,0
144,29.0,-252.0,1.0,0
145,30.0,-245.0,3.0,0
146,30.0,-252.0,4.0,0
147,28.0,-251.0,5.0,0
148,27.0,-250.0,4.0,0
149,28.0,-252.0,2.0,0
150,23.0,-251.0,8.0,0
151,22.0,-253.0,4.0,0
152,21.0,-252.0,7.0,0
153,27.0,-256.0,6.0,0
154,22.0,-255.0,6.0,0
155,25.0,-254.0,5.0,0
156,25.0,-252.0,9.0,0
157,27.0,-253.0,7.0,0
158,31.0,-248.0,2.0,0
159,30.0,-247.0,2.0,0
160,30.0,-240.0,1.0,0
161,30.0,-239.0,4.0,0
162,36.0,-241.0,2.0,0
163,37.0,-242.0,4.0,0
164,38.0,-241.0,9.0,0
165,35.0,-246.0,11.0,0
166,42.0,-243.0,4.0,0
167,40.0,-242.0,7.0,0
168,42.0,-239.0,7.0,0
169,41.0,-237.0,8.0,0
170,38.0,-242.0,3.0,0
171,42.0,-243.0,3.0,0
172,39.0,-238.0,3.0,0
173,36.0,-242.0,3.0,0
174,34.0,-239.0,2.0,0
175,36.0,-241.0,7.0,0
176,35.0,-244.0,1.0,0
177,25.0,-249.0,0.0,0
178,36.0,-247.0,1.0,0
179,20.0,-253.0,1.0,0
180,23.0,-256.0,2.0,0
181,20.0,-257.0,2.0,0
182,19.0,-256.0,3.0,0
183,14.0,-255.0,5.0,0
184,8.0,-252.0,4.0,0
185,10.0,-252.0,5.0,0
186,3.0,-249.0,3.0,0
187,-2.0,-245.0,8.0,0
188,-8.0,-239.0,12.0,0
189,-18.0,-238.0,10.0,0
190,-18.0,-240.0,11.0,0
191,-25.0,-240.0,10.0,0
192,-27.0,-235.0,11.0,0
193,-27.0,-242.0,7.0,0
194,-19.0,-238.0,10.0,0
195,-16.0,-245.0,9.0,0
196,-34.0,-243.0,10.0,0
197,-19.0,-240.0,11.0,0
198,-11.0,-245.0,12.0,0
199,-8.0,-249.0,14.0,0
200,-3.0,-249.0,11.0,0
201,3.0,-252.0,16.0,0
202,5.0,-252.0,16.0,0
203,11.0,-253.0,20.0,0
204,15.0,-253.0,28.0,0
205,16.0,-254.0,23.0,0
206,21.0,-256.0,27.0,0
207,21.0,-256.0,29.0,0
208,13.0,-256.0,30.0,0
209,16.0,-256.0,34.0,0
210,16.0,-255.0,35.0,0
211,17.0,-256.0,32.0,0
212,16.0,-257.0,32.0,0
213,17.0,-253.0,33.0,0
214,15.0,-256.0,35.0,0
215,12.0,-252.0,26.0,0
216,13.0,-252.0,25.0,0
217,15.0,-252.0,27.0,0
218,11.0,-250.0,23.0,0
219,6.0,-247.0,28.0,0
220,2.0,-244.0,24.0,0
221,2.0,-242.0,24.0,0
222,1.0,-243.0,25.0,0
223,-2.0,-237.0,23.0,0
224,-1.0,-239.0,22.0,0
225,-4.0,-237.0,23.0,0
226,-4.0,-236.0,24.0,0
227,-4.0,-232.0,26.0,0
228,-8.0,-229.0,23.0,0
229,-4.0,-235.0,28.0,0
230,-7.0,-230.0,27.0,0
231,-7.0,-233.0,24.0,0
232,-7.0,-230.0,32.0,0
233,-5.0,-230.0,26.0,0
234,-6.0,-231.0,29.0,0
235,-9.0,-234.0,35.0,0
236,-6.0,-230.0,38.0,0
237,-7.0,-234.0,38.0,0
238,-8.0,-231.0,34.0,0
239,-9.0,-232.0,37.0,0
240,-12.0,-232.0,30.0,0
241,-8.0,-230.0,28.0,0
242,-6.0,-231.0,30.0,0
243,-6.0,-232.0,29.0,0
244,-3.0,-232.0,29.0,0
245,-2.0,-229.0,28.0,0
246,-2.0,-229.0,27.0,0
247,-2.0,-227.0,31.0,0
248,-2.0,-229.0,26.0,0
249,-9.0,-222.0,29.0,0
250,-5.0,-223.0,25.0,0
251,10.0,-222.0,26.0,0
252,-2.0,-224.0,34.0,0
253,-3.0,-225.0,34.0,0
254,-3.0,-225.0,31.0,0
255,-7.0,-225.0,34.0,0
256,-10.0,-227.0,33.0,0
257,-9.0,-228.0,31.0,0
258,-9.0,-228.0,34.0,0
259,-8.0,-233.0,34.0,0
260,-5.0,-233.0,33.0,0
261,-2.0,-232.0,33.0,0
262,-3.0,-234.0,28.0,0
263,2.0,-234.0,35.0,0
264,1.0,-233.0,36.0,0
265,6.0,-238.0,31.0,0
266,6.0,-238.0,34.0,0
267,5.0,-237.0,35.0,0
268,3.0,-240.0,41.0,0
269,3.0,-240.0,36.0,0
270,6.0,-243.0,38.0,0
271,6.0,-246.0,39.0,0
272,4.0,-248.0,41.0,0
273,3.0,-250.0,32.0,0
274,1.0,-249.0,34.0,0
275,-1.0,-251.0,35.0,0
276,-1.0,-254.0,36.0,0
277,-2.0,-258.0,26.0,0
278,0.0,-257.0,30.0,0
279,-3.0,-255.0,33.0,0
280,-9.0,-255.0,31.0,0
281,-10.0,-255.0,28.0,0
282,-13.0,-255.0,30.0,0
283,-19.0,-257.0,31.0,0
284,-15.0,-256.0,28.0,0
285,-17.0,-257.0,31.0,0
286,-21.0,-255.0,33.0,0
287,-22.0,-257.0,39.0,0
288,-25.0,-258.0,32.0,0
289,-26.0,-258.0,33.0,0
290,-38.0,-258.0,36.0,0
291,-36.0,-262.0,32.0,0
292,-42.0,-263.0,37.0,0
293,-47.0,-259.0,39.0,0
294,-54.0,-263.0,35.0,0
295,-50.0,-263.0,41.0,0
296,-51.0,-267.0,46.0,0
297,-54.0,-270.0,45.0,0
298,-55.0,-279.0,49.0,0
299,-53.0,-284.0,53.0,0
300,-50.0,-295.0,53.0,0
301,-48.0,-303.0,52.0,0
302,-50.0,-309.0,54.0,0
303,-43.0,-313.0,46.0,0
304,-41.0,-322.0,49.0,0
305,-36.0,-326.0,45.0,0
306,-36.0,-323.0,40.0,0
307,-30.0,-325.0,42.0,0
308,-37.0,-320.0,40.0,0
309,-37.0,-316.0,40.0,0
310,-41.0,-314.0,38.0,0
311,-39.0,-313.0,31.0,0
312,-33.0,-311.0,23.0,0
313,-33.0,-315.0,19.0,0
314,-42.0,-315.0,6.0,0
315,-35.0,-319.0,6.0,0
316,-41.0,-319.0,-1.0,0
317,-41.0,-317.0,-6.0,0
318,-41.0,-315.0,-17.0,0
319,-43.0,-307.0,-23.0,0
320,-43.0,-303.0,-23.0,0
321,-43.0,-292.0,-33.0,0
322,-43.0,-277.0,-33.0,0
323,-37.0,-266.0,-31.0,0
324,-37.0,-256.0,-37.0,0
325,-33.0,-248.0,-35.0,0
326,-26.0,-237.0,-44.0,0
327,-15.0,-218.0,-48.0,0
328,-3.0,-205.0,-51.0,0
329,1.0,-194.0,-57.0,0
330,15.0,-188.0,-61.0,0
331,25.0,-175.0,-61.0,0
332,36.0,-168.0,-63.0,0
333,50.0,-161.0,-64.0,0
334,59.0,-167.0,-58.0,0
335,67.0,-161.0,-52.0,0
336,70.0,-166.0,-46.0,0
337,75.0,-176.0,-45.0,0
338,78.0,-186.0,-37.0,0
339,76.0,-194.0,-38.0,0
340,70.0,-204.0,-32.0,0
341,64.0,-216.0,-27.0,0
342,54.0,-229.0,-26.0,0
343,44.0,-246.0,-27.0,0
344,40.0,-250.0,-25.0,0
345,29.0,-256.0,-27.0,0
346,21.0,-263.0,-27.0,0
347,12.0,-266.0,-27.0,0
348,7.0,-270.0,-31.0,0
349,3.0,-270.0,-33.0,0
350,-5.0,-272.0,-32.0,0
351,-3.0,-272.0,-30.0,0
352,-8.0,-271.0,-34.0,0
353,-6.0,-266.0,-33.0,0
354,-2.0,-264.0,-28.0,0
355,-7.0,-259.0,-25.0,0
356,0.0,-254.0,-22.0,0
357,3.0,-247.0,-22.0,0
358,9.0,-242.0,-26.0,0
359,12.0,-243.0,-10.0,0
360,21.0,-241.0,-23.0,0
361,24.0,-236.0,-19.0,0
362,28.0,-237.0,-14.0,0
363,34.0,-239.0,-19.0,0
364,34.0,-239.0,-12.0,0
365,37.0,-235.0,-20.0,0
366,32.0,-226.0,-22.0,0
367,31.0,-229.0,-34.0,0
368,33.0,-225.0,-34.0,0
369,32.0,-227.0,-36.0,0
370,30.0,-223.0,-27.0,0
371,28.0,-222.0,-27.0,0
372,32.0,-224.0,-24.0,0
373,32.0,-221.0,-20.0,0
374,30.0,-219.0,-15.0,0
375,31.0,-221.0,-13.0,0
376,33.0,-224.0,-4.0,0
377,30.0,-225.0,0.0,0
378,33.0,-221.0,-5.0,0
379,36.0,-225.0,-4.0,0
380,38.0,-223.0,-1.0,0
381,42.0,-227.0,4.0,0
382,42.0,-226.0,2.0,0
383,41.0,-231.0,7.0,0
384,47.0,-231.0,9.0,0
385,44.0,-235.0,9.0,0
386,40.0,-232.0,15.0,0
387,43.0,-240.0,13.0,0
388,42.0,-237.0,18.0,0
389,40.0,-232.0,21.0,0
390,40.0,-231.0,22.0,0
391,45.0,-231.0,22.0,0
392,42.0,-228.0,21.0,0
393,44.0,-224.0,20.0,0
394,47.0,-222.0,23.0,0
395,49.0,-219.0,18.0,0
396,50.0,-218.0,17.0,0
397,51.0,-212.0,22.0,0
398,47.0,-215.0,18.0,0
399,47.0,-210.0,22.0,0
400,45.0,-213.0,18.0,0
401,45.0,-210.0,16.0,0
402,38.0,-214.0,19.0,0
403,41.0,-219.0,18.0,0
404,38.0,-219.0,19.0,0
405,34.0,-223.0,13.0,0
406,33.0,-222.0,20.0,0
407,27.0,-224.0,21.0,0
408,23.0,-225.0,24.0,0
409,23.0,-228.0,24.0,0
410,18.0,-231.0,27.0,0
411,19.0,-233.0,29.0,0
412,17.0,-233.0,30.0,0
413,16.0,-242.0,32.0,0
414,17.0,-238.0,31.0,0
415,19.0,-239.0,35.0,0
416,18.0,-243.0,35.0,0
417,20.0,-246.0,37.0,0
418,23.0,-249.0,37.0,0
419,22.0,-249.0,40.0,0
420,21.0,-251.0,29.0,0
421,32.0,-246.0,33.0,0
422,32.0,-251.0,29.0,0
423,35.0,-247.0,33.0,0
424,36.0,-249.0,19.0,0
425,39.0,-250.0,28.0,0
426,41.0,-252.0,25.0,0
427,42.0,-255.0,21.0,0
428,45.0,-255.0,20.0,0
429,48.0,-259.0,14.0,0
430,49.0,-263.0,12.0,0
431,50.0,-273.0,9.0,0
432,59.0,-287.0,8.0,0
433,63.0,-297.0,19.0,0
434,62.0,-298.0,18.0,0
435,71.0,-310.0,35.0,0
436,64.0,-320.0,40.0,0
437,61.0,-322.0,56.0,0
438,51.0,-321.0,62.0,0
439,38.0,-323.0,75.0,0
440,28.0,-320.0,85.0,0
441,21.0,-314.0,90.0,0
442,16.0,-315.0,95.0,0
443,9.0,-309.0,85.0,0
444,12.0,-306.0,69.0,0
445,6.0,-303.0,52.0,0
446,4.0,-301.0,14.0,0
447,13.0,-308.0,-11.0,0
448,23.0,-318.0,-29.0,0
449,34.0,-335.0,-36.0,0
450,43.0,-350.0,-37.0,0
451,54.0,-357.0,-41.0,0
452,62.0,-354.0,-47.0,0
453,68.0,-340.0,-50.0,0
454,85.0,-322.0,-54.0,0
455,102.0,-302.0,-54.0,0
456,109.0,-286.0,-66.0,0
457,120.0,-274.0,-72.0,0
458,123.0,-261.0,-86.0,0
459,122.0,-247.0,-98.0,0
460,121.0,-233.0,-105.0,0
461,117.0,-220.0,-117.0,0
462,109.0,-205.0,-122.0,0
463,89.0,-193.0,-118.0,0
464,62.0,-188.0,-105.0,0
465,32.0,-184.0,-93.0,0
466,3.0,-186.0,-76.0,0
467,-13.0,-192.0,-64.0,0
468,-33.0,-196.0,-50.0,0
469,-48.0,-206.0,-42.0,0
470,-54.0,-217.0,-35.0,0
471,-60.0,-233.0,-29.0,0
472,-60.0,-242.0,-34.0,0
473,-58.0,-252.0,-43.0,0
474,-49.0,-263.0,-54.0,0
475,-34.0,-273.0,-53.0,0
476,-29.0,-275.0,-62.0,0
477,-21.0,-276.0,-51.0,0
478,1.0,-273.0,-59.0,0
479,13.0,-260.0,-54.0,0
480,31.0,-258.0,-42.0,0
481,39.0,-255.0,-40.0,0
482,50.0,-248.0,-31.0,0
483,60.0,-241.0,-27.0,0
484,69.0,-239.0,-18.0,0
485,74.0,-234.0,-20.0,0
486,78.0,-233.0,-18.0,0
487,82.0,-231.0,-11.0,0
488,80.0,-229.0,-24.0,0
489,78.0,-217.0,-22.0,0
490,72.0,-216.0,-26.0,0
491,65.0,-211.0,-26.0,0
492,61.0,-205.0,-27.0,0
493,55.0,-203.0,-25.0,0
494,48.0,-202.0,-22.0,0
495,43.0,-194.0,-24.0,0
496,38.0,-196.0,-16.0,0
497,31.0,-196.0,-19.0,0
498,25.0,-195.0,-11.0,0
499,17.0,-195.0,-14.0,0
500,26.0,-202.0,-12.0,0
501,18.0,-202.0,-11.0,0
502,21.0,-208.0,-6.0,0
503,18.0,-215.0,-5.0,0
504,17.0,-217.0,-10.0,0
505,15.0,-219.0,-1.0,0
506,18.0,-222.0,-6.0,0
507,13.0,-219.0,-4.0,0
508,12.0,-220.0,0.0,0
509,9.0,-218.0,-1.0,0
510,8.0,-225.0,6.0,0
511,7.0,-227.0,1.0,0
512,11.0,-232.0,-1.0,0
513,7.0,-228.0,4.0,0
514,6.0,-228.0,3.0,0
515,2.0,-229.0,0.0,0
516,2.0,-230.0,7.0,0
517,2.0,-227.0,3.0,0
518,0.0,-225.0,7.0,0
519,-2.0,-218.0,7.0,0
520,-1.0,-215.0,12.0,0
521,-3.0,-210.0,13.0,0
522,-4.0,-207.0,13.0,0
523,-5.0,-206.0,13.0,0
524,-8.0,-199.0,11.0,0
525,-8.0,-196.0,9.0,0
526,-15.0,-191.0,10.0,0
527,-16.0,-193.0,7.0,0
528,-19.0,-194.0,13.0,0
529,-19.0,-196.0,11.0,0
530,-19.0,-196.0,13.0,0
531,-21.0,-200.0,15.0,0
532,-17.0,-204.0,22.0,0
533,-14.0,-208.0,27.0,0
534,-8.0,-217.0,27.0,0
535,-1.0,-224.0,31.0,0
536,1.0,-228.0,35.0,0
537,0.0,-230.0,35.0,0
538,5.0,-235.0,34.0,0
539,7.0,-240.0,36.0,0
540,10.0,-238.0,40.0,0
541,16.0,-244.0,37.0,0
542,24.0,-249.0,46.0,0
543,21.0,-243.0,37.0,0
544,25.0,-247.0,39.0,0
545,27.0,-247.0,43.0,0
546,30.0,-247.0,41.0,0
547,28.0,-246.0,43.0,0
548,26.0,-243.0,42.0,0
549,20.0,-243.0,36.0,0
550,13.0,-239.0,28.0,0
551,1.0,-233.0,14.0,0
552,4.0,-236.0,17.0,0
553,-3.0,-237.0,5.0,0
554,-4.0,-247.0,2.0,0
555,-8.0,-256.0,0.0,0
556,-8.0,-267.0,3.0,0
557,-13.0,-288.0,12.0,0
558,-18.0,-309.0,35.0,0
559,-17.0,-327.0,58.0,0
560,-8.0,-341.0,78.0,0
561,-4.0,-350.0,88.0,0
562,8.0,-353.0,110.0,0
563,19.0,-355.0,117.0,0
564,36.0,-361.0,117.0,0
565,50.0,-347.0,123.0,0
566,59.0,-337.0,114.0,0
567,63.0,-320.0,106.0,0
568,60.0,-301.0,98.0,0
569,48.0,-278.0,90.0,0
570,43.0,-261.0,72.0,0
571,36.0,-255.0,60.0,0
572,35.0,-259.0,43.0,0
573,26.0,-274.0,24.0,0
574,14.0,-298.0,14.0,0
575,3.0,-319.0,5.0,0
576,0.0,-338.0,3.0,0
577,-12.0,-353.0,0.0,0
578,-22.0,-362.0,-1.0,0
579,-41.0,-359.0,-11.0,0
580,-60.0,-350.0,-27.0,0
581,-89.0,-336.0,-36.0,0
582,-106.0,-316.0,-61.0,0
583,-96.0,-306.0,-77.0,0
584,-80.0,-291.0,-106.0,0
585,-84.0,-273.0,-115.0,0
586,-69.0,-272.0,-112.0,0
587,-57.0,-257.0,-115.0,0
588,-39.0,-248.0,-114.0,0
589,-16.0,-226.0,-112.0,0
590,6.0,-211.0,-108.0,0
591,32.0,-193.0,-98.0,0
592,55.0,-187.0,-91.0,0
593,70.0,-184.0,-73.0,0
594,82.0,-190.0,-59.0,0
595,87.0,-193.0,-51.0,0
596,88.0,-199.0,-40.0,0
597,95.0,-216.0,-32.0,0
598,95.0,-227.0,-31.0,0
599,93.0,-233.0,-27.0,0
600,85.0,-242.0,-27.0,0
601,77.0,-250.0,-31.0,0
602,62.0,-251.0,-37.0,0
603,40.0,-248.0,-34.0,0
604,33.0,-250.0,-34.0,0
605,18.0,-250.0,-34.0,0
606,2.0,-249.0,-30.0,0
607,-14.0,-242.0,-26.0,0
608,-22.0,-246.0,-20.0,0
609,-32.0,-243.0,-19.0,0
610,-36.0,-249.0,-17.0,0
611,-46.0,-248.0,-13.0,0
612,-49.0,-247.0,-14.0,0
613,-47.0,-245.0,-12.0,0
614,-40.0,-239.0,-12.0,0
615,-32.0,-238.0,-15.0,0
616,-18.0,-233.0,-14.0,0
617,-10.0,-232.0,-16.0,0
618,1.0,-228.0,-13.0,0
619,5.0,-219.0,-11.0,0
620,18.0,-221.0,-6.0,0
621,25.0,-217.0,-7.0,0
622,31.0,-216.0,-12.0,0
623,33.0,-209.0,-12.0,0
624,35.0,-210.0,-18.0,0
625,41.0,-212.0,-15.0,0
626,37.0,-214.0,-18.0,0
627,39.0,-220.0,-15.0,0
628,35.0,-206.0,-14.0,0
629,36.0,-219.0,-8.0,0
630,34.0,-221.0,-7.0,0
631,31.0,-223.0,-6.0,0
632,32.0,-224.0,-2.0,0
633,27.0,-224.0,-1.0,0
634,24.0,-220.0,1.0,0
635,22.0,-216.0,5.0,0
636,19.0,-218.0,8.0,0
637,22.0,-216.0,8.0,0
638,18.0,-213.0,8.0,0
639,23.0,-212.0,8.0,0
640,20.0,-209.0,9.0,0
641,24.0,-212.0,8.0,0
642,25.0,-213.0,7.0,0
643,26.0,-215.0,9.0,0
644,28.0,-215.0,8.0,0
645,29.0,-212.0,13.0,0
646,33.0,-211.0,10.0,0
647,27.0,-208.0,10.0,0
648,25.0,-207.0,13.0,0
649,29.0,-208.0,8.0,0
650,27.0,-214.0,15.0,0
651,28.0,-208.0,17.0,0
652,33.0,-213.0,17.0,0
653,29.0,-210.0,23.0,0
654,30.0,-211.0,31.0,0
655,31.0,-210.0,32.0,0
656,31.0,-212.0,31.0,0
657,33.0,-213.0,34.0,0
658,34.0,-216.0,40.0,0
659,26.0,-216.0,38.0,0
660,28.0,-220.0,43.0,0
661,21.0,-231.0,40.0,0
662,26.0,-230.0,36.0,0
663,23.0,-235.0,37.0,0
664,23.0,-242.0,38.0,0
665,22.0,-248.0,39.0,0
666,24.0,-254.0,42.0,0
667,25.0,-259.0,38.0,0
668,26.0,-262.0,46.0,0
669,30.0,-261.0,46.0,0
670,27.0,-264.0,44.0,0
671,17.0,-260.0,38.0,0
672,16.0,-260.0,38.0,0
673,22.0,-258.0,37.0,0
674,17.0,-260.0,34.0,0
675,20.0,-258.0,28.0,0
676,28.0,-260.0,24.0,0
677,32.0,-262.0,14.0,0
678,49.0,-273.0,5.0,0
679,69.0,-281.0,3.0,0
680,87.0,-288.0,9.0,0
681,105.0,-306.0,30.0,0
682,120.0,-325.0,54.0,0
683,128.0,-328.0,67.0,0
684,125.0,-330.0,82.0,0
685,111.0,-329.0,97.0,0
686,97.0,-330.0,113.0,0
687,77.0,-330.0,123.0,0
688,61.0,-329.0,123.0,0
689,41.0,-324.0,118.0,0
690,32.0,-323.0,103.0,0
691,19.0,-320.0,73.0,0
692,13.0,-315.0,41.0,0
693,8.0,-311.0,12.0,0
694,12.0,-314.0,-1.0,0
695,21.0,-320.0,-8.0,0
696,32.0,-327.0,-10.0,0
697,43.0,-334.0,-12.0,0
698,48.0,-328.0,-17.0,0
699,57.0,-318.0,-25.0,0
700,72.0,-297.0,-27.0,0
701,96.0,-278.0,-36.0,0
702,112.0,-256.0,-55.0,0
703,128.0,-248.0,-65.0,0
704,124.0,-243.0,-93.0,0
705,117.0,-231.0,-118.0,0
706,109.0,-223.0,-135.0,0
707,105.0,-218.0,-140.0,0
708,97.0,-212.0,-140.0,0
709,76.0,-208.0,-132.0,0
710,53.0,-209.0,-126.0,0
711,18.0,-209.0,-111.0,0
712,-8.0,-214.0,-98.0,0
713,-29.0,-219.0,-89.0,0
714,-36.0,-236.0,-80.0,0
715,-46.0,-243.0,-59.0,0
716,-52.0,-256.0,-45.0,0
717,-52.0,-264.0,-34.0,0
718,-56.0,-268.0,-26.0,0
719,-51.0,-278.0,-21.0,0
720,-41.0,-281.0,-26.0,0
721,-31.0,-281.0,-29.0,0
722,-23.0,-278.0,-33.0,0
723,-7.0,-272.0,-36.0,0
724,7.0,-266.0,-38.0,0
725,24.0,-255.0,-37.0,0
726,43.0,-243.0,-43.0,0
727,57.0,-233.0,-39.0,0
728,73.0,-224.0,-37.0,0
729,80.0,-222.0,-33.0,0
730,98.0,-222.0,-27.0,0
731,102.0,-215.0,-24.0,0
732,105.0,-215.0,-26.0,0
733,110.0,-215.0,-27.0,0
734,103.0,-208.0,-28.0,0
735,96.0,-210.0,-29.0,0
736,76.0,-205.0,-32.0,0
737,71.0,-210.0,-27.0,0
738,57.0,-209.0,-22.0,0
739,49.0,-212.0,-22.0,0
740,39.0,-209.0,-19.0,0
741,27.0,-207.0,-19.0,0
742,17.0,-212.0,-13.0,0
743,8.0,-210.0,-11.0,0
744,2.0,-211.0,-8.0,0
745,0.0,-215.0,-2.0,0
746,-5.0,-223.0,-3.0,0
747,-13.0,-228.0,3.0,0
748,-16.0,-230.0,10.0,0
749,-17.0,-234.0,9.0,0
750,-20.0,-236.0,12.0,0
751,-21.0,-234.0,16.0,0
752,-20.0,-236.0,16.0,0
753,-19.0,-239.0,16.0,0
754,-18.0,-236.0,15.0,0
755,-20.0,-239.0,24.0,0
756,-18.0,-237.0,19.0,0
757,-18.0,-237.0,23.0,0
758,-17.0,-233.0,20.0,0
759,-16.0,-229.0,14.0,0
760,-15.0,-227.0,9.0,0
761,-14.0,-221.0,9.0,0
762,-5.0,-218.0,7.0,0
763,0.0,-216.0,10.0,0
764,1.0,-216.0,8.0,0
765,4.0,-215.0,13.0,0
766,0.0,-208.0,17.0,0
767,3.0,-210.0,14.0,0
768,4.0,-210.0,19.0,0
769,1.0,-211.0,28.0,0
770,-1.0,-207.0,19.0,0
771,0.0,-207.0,25.0,0
772,-5.0,-203.0,21.0,0
773,0.0,-203.0,20.0,0
774,0.0,-199.0,26.0,0
775,0.0,-202.0,26.0,0
776,-1.0,-202.0,29.0,0
777,1.0,-202.0,35.0,0
778,4.0,-203.0,39.0,0
779,0.0,-201.0,39.0,0
780,0.0,-206.0,40.0,0
781,0.0,-207.0,45.0,0
782,2.0,-211.0,49.0,0
783,3.0,-213.0,51.0,0
784,3.0,-219.0,49.0,0
785,1.0,-222.0,51.0,0
786,0.0,-222.0,44.0,0
787,0.0,-226.0,47.0,0
788,-2.0,-224.0,45.0,0
789,-2.0,-225.0,45.0,0
790,0.0,-232.0,48.0,0
791,-1.0,-243.0,47.0,0
792,0.0,-238.0,51.0,0
793,2.0,-244.0,55.0,0
794,2.0,-247.0,53.0,0
795,5.0,-247.0,53.0,0
796,3.0,-252.0,42.0,0
797,5.0,-255.0,35.0,0
798,3.0,-258.0,19.0,0
799,8.0,-263.0,19.0,0
800,18.0,-266.0,14.0,0
801,23.0,-275.0,9.0,0
802,27.0,-279.0,13.0,0
803,35.0,-286.0,14.0,0
804,35.0,-293.0,24.0,0
805,33.0,-305.0,34.0,0
806,26.0,-316.0,52.0,0
807,15.0,-320.0,60.0,0
808,8.0,-328.0,75.0,0
809,2.0,-333.0,94.0,0
810,7.0,-331.0,104.0,0
811,8.0,-325.0,117.0,0
812,18.0,-320.0,122.0,0
813,18.0,-304.0,120.0,0
814,29.0,-297.0,107.0,0
815,36.0,-292.0,89.0,0
816,48.0,-289.0,64.0,0
817,53.0,-294.0,38.0,0
818,55.0,-305.0,12.0,0
819,58.0,-322.0,-10.0,0
820,49.0,-343.0,-18.0,0
821,36.0,-359.0,-14.0,0
822,14.0,-365.0,-11.0,0
823,-17.0,-356.0,-21.0,0
824,-51.0,-334.0,-30.0,0
825,-87.0,-306.0,-39.0,0
826,-103.0,-293.0,-45.0,0
827,-129.0,-280.0,-67.0,0
828,-125.0,-267.0,-89.0,0
829,-112.0,-257.0,-111.0,0
830,-93.0,-244.0,-125.0,0
831,-77.0,-235.0,-128.0,0
832,-60.0,-228.0,-124.0,0
833,-27.0,-214.0,-119.0,0
834,0.0,-206.0,-99.0,0
835,26.0,-196.0,-73.0,0
836,43.0,-191.0,-60.0,0
837,64.0,-196.0,-45.0,0
838,80.0,-208.0,-26.0,0
839,89.0,-224.0,-21.0,0
840,94.0,-239.0,-9.0,0
841,95.0,-259.0,-7.0,0
842,87.0,-276.0,-2.0,0
843,78.0,-288.0,-6.0,0
844,71.0,-289.0,-17.0,0
845,63.0,-285.0,-19.0,0
846,54.0,-284.0,-27.0,0
847,35.0,-273.0,-26.0,0
848,21.0,-266.0,-38.0,0
849,5.0,-262.0,-35.0,0
850,-4.0,-253.0,-38.0,0
851,-18.0,-249.0,-34.0,0
852,-30.0,-246.0,-34.0,0
853,-40.0,-235.0,-26.0,0
854,-43.0,-237.0,-22.0,0
855,-54.0,-233.0,-16.0,0
856,-49.0,-233.0,-12.0,0
857,-47.0,-230.0,-14.0,0
858,-39.0,-228.0,-8.0,0
859,-32.0,-225.0,-12.0,0
860,-18.0,-221.0,-8.0,0
861,-3.0,-220.0,-7.0,0
862,5.0,-216.0,-7.0,0
863,17.0,-209.0,-4.0,0
864,24.0,-205.0,0.0,0
865,28.0,-197.0,-11.0,0
866,41.0,-193.0,-9.0,0
867,41.0,-189.0,-8.0,0
868,42.0,-193.0,-11.0,0
869,36.0,-192.0,-7.0,0
870,35.0,-197.0,-10.0,0
871,34.0,-205.0,-13.0,0
872,28.0,-209.0,-10.0,0
873,24.0,-216.0,-10.0,0
874,20.0,-219.0,-4.0,0
875,23.0,-223.0,-2.0,0
876,19.0,-225.0,-4.0,0
877,21.0,-224.0,2.0,0
878,23.0,-220.0,0.0,0
879,22.0,-221.0,1.0,0
880,24.0,-220.0,2.0,0
881,27.0,-222.0,3.0,0
882,26.0,-224.0,2.0,0
883,30.0,-220.0,4.0,0
884,27.0,-217.0,4.0,0
885,30.0,-217.0,4.0,0
886,28.0,-218.0,7.0,0
887,31.0,-219.0,6.0,0
888,32.0,-215.0,13.0,0
889,35.0,-213.0,6.0,0
890,35.0,-208.0,6.0,0
891,42.0,-211.0,7.0,0
892,38.0,-208.0,8.0,0
893,39.0,-204.0,9.0,0
894,41.0,-210.0,8.0,0
895,42.0,-207.0,10.0,0
896,41.0,-206.0,20.0,0
897,44.0,-205.0,15.0,0
898,41.0,-198.0,19.0,0
899,42.0,-206.0,23.0,0
900,41.0,-203.0,25.0,0
901,39.0,-206.0,30.0,0
902,36.0,-207.0,35.0,0
903,29.0,-208.0,28.0,0
904,33.0,-218.0,25.0,0
905,34.0,-227.0,26.0,0
906,34.0,-234.0,25.0,0
907,31.0,-246.0,21.0,0
908,30.0,-248.0,21.0,0
909,36.0,-252.0,17.0,0
910,32.0,-257.0,24.0,0
911,33.0,-260.0,20.0,0
912,33.0,-260.0,20.0,0
913,28.0,-259.0,26.0,0
914,30.0,-266.0,34.0,0
915,24.0,-264.0,33.0,0
916,27.0,-270.0,32.0,0
917,23.0,-268.0,32.0,0
918,29.0,-267.0,23.0,0
919,29.0,-270.0,17.0,0
920,35.0,-284.0,4.0,0
921,47.0,-288.0,6.0,0
922,53.0,-298.0,0.0,0
923,63.0,-307.0,2.0,0
924,65.0,-311.0,6.0,0
925,72.0,-319.0,25.0,0
926,74.0,-324.0,37.0,0
927,64.0,-328.0,62.0,0
928,53.0,-334.0,75.0,0
929,37.0,-335.0,96.0,0
930,22.0,-334.0,104.0,0
931,14.0,-331.0,117.0,0
932,-4.0,-324.0,120.0,0
933,-9.0,-320.0,111.0,0
934,-9.0,-315.0,99.0,0
935,-9.0,-311.0,82.0,0
936,-5.0,-309.0,58.0,0
937,-1.0,-312.0,29.0,0
938,7.0,-314.0,-5.0,0
939,12.0,-320.0,-32.0,0
940,27.0,-332.0,-34.0,0
941,32.0,-343.0,-46.0,0
942,47.0,-347.0,-40.0,0
943,57.0,-334.0,-44.0,0
944,69.0,-317.0,-44.0,0
945,92.0,-286.0,-55.0,0
946,113.0,-255.0,-62.0,0
947,128.0,-235.0,-78.0,0
948,132.0,-220.0,-99.0,0
949,128.0,-214.0,-114.0,0
950,127.0,-206.0,-130.0,0
951,121.0,-199.0,-130.0,0
952,111.0,-202.0,-129.0,0
953,91.0,-194.0,-116.0,0
954,72.0,-198.0,-100.0,0
955,50.0,-200.0,-88.0,0
956,18.0,-209.0,-75.0,0
957,-3.0,-224.0,-65.0,0
958,-20.0,-241.0,-52.0,0
959,-30.0,-247.0,-47.0,0
960,-42.0,-257.0,-40.0,0
961,-51.0,-265.0,-32.0,0
962,-44.0,-273.0,-18.0,0
963,-46.0,-281.0,-25.0,0
964,-40.0,-288.0,-22.0,0
965,-31.0,-291.0,-27.0,0
966,-17.0,-295.0,-23.0,0
967,-6.0,-292.0,-24.0,0
968,4.0,-283.0,-24.0,0
969,14.0,-272.0,-22.0,0
970,29.0,-258.0,-27.0,0
971,43.0,-248.0,-26.0,0
972,54.0,-239.0,-20.0,0
973,62.0,-229.0,-18.0,0
974,70.0,-216.0,-14.0,0
975,78.0,-218.0,-15.0,0
976,80.0,-211.0,-13.0,0
977,79.0,-209.0,-11.0,0
978,76.0,-204.0,-11.0,0
979,70.0,-201.0,-9.0,0
980,61.0,-200.0,-16.0,0
981,59.0,-201.0,-12.0,0
982,51.0,-197.0,-10.0,0
983,43.0,-192.0,-13.0,0
984,38.0,-190.0,-12.0,0
985,27.0,-191.0,-14.0,0
986,23.0,-192.0,-17.0,0
987,19.0,-193.0,-19.0,0
988,17.0,-193.0,-17.0,0
989,18.0,-194.0,-10.0,0
990,7.0,-200.0,-10.0,0
991,8.0,-203.0,-11.0,0
992,5.0,-207.0,-1.0,0
993,9.0,-213.0,-2.0,0
994,6.0,-216.0,-4.0,0
995,2.0,-222.0,7.0,0
996,3.0,-227.0,8.0,0
997,1.0,-224.0,9.0,0
998,3.0,-230.0,10.0,0
999,1.0,-231.0,12.0,0
1000,2.0,-231.0,13.0,0
1001,0.0,-228.0,15.0,0
1002,3.0,-228.0,11.0,0
1003,2.0,-227.0,16.0,0
1004,5.0,-225.0,17.0,0
1005,5.0,-217.0,16.0,0
1006,6.0,-211.0,13.0,0
1007,8.0,-208.0,17.0,0
1008,2.0,-204.0,17.0,0
1009,1.0,-205.0,18.0,0
1010,0.0,-197.0,21.0,0
1011,-3.0,-195.0,21.0,0
1012,-13.0,-193.0,19.0,0
1013,-14.0,-193.0,15.0,0
1014,-21.0,-193.0,16.0,0
1015,-26.0,-195.0,22.0,0
1016,-31.0,-194.0,18.0,0
1017,-32.0,-203.0,26.0,0
1018,-33.0,-203.0,27.0,0
1019,-31.0,-207.0,30.0,0
1020,-33.0,-206.0,30.0,0
1021,-29.0,-211.0,33.0,0
1022,-27.0,-215.0,34.0,0
1023,-22.0,-217.0,37.0,0
1024,-16.0,-222.0,32.0,0
1025,-13.0,-227.0,35.0,0
1026,-8.0,-236.0,34.0,0
1027,-6.0,-239.0,34.0,0
1028,2.0,-244.0,33.0,0
1029,5.0,-252.0,35.0,0
1030,14.0,-256.0,34.0,0
1031,20.0,-260.0,35.0,0
1032,26.0,-265.0,36.0,0
1033,33.0,-266.0,37.0,0
1034,36.0,-261.0,34.0,0
1035,39.0,-262.0,37.0,0
1036,37.0,-257.0,36.0,0
1037,35.0,-252.0,31.0,0
1038,33.0,-248.0,24.0,0
1039,30.0,-249.0,14.0,0
1040,29.0,-242.0,11.0,0
1041,31.0,-248.0,9.0,0
1042,26.0,-254.0,10.0,0
1043,21.0,-261.0,16.0,0
1044,10.0,-272.0,26.0,0
1045,0.0,-286.0,34.0,0
1046,-14.0,-301.0,55.0,0
1047,-26.0,-318.0,67.0,0
1048,-33.0,-319.0,82.0,0
1049,-33.0,-334.0,104.0,0
1050,-21.0,-335.0,108.0,0
1051,-6.0,-329.0,116.0,0
1052,4.0,-321.0,114.0,0
1053,14.0,-314.0,110.0,0
1054,26.0,-305.0,102.0,0
1055,44.0,-293.0,89.0,0
1056,54.0,-282.0,72.0,0
1057,58.0,-279.0,53.0,0
1058,60.0,-285.0,45.0,0
1059,57.0,-297.0,31.0,0
1060,47.0,-311.0,24.0,0
1061,33.0,-333.0,17.0,0
1062,23.0,-343.0,15.0,0
1063,5.0,-355.0,5.0,0
1064,-18.0,-353.0,0.0,0
1065,-50.0,-340.0,-10.0,0
1066,-82.0,-323.0,-25.0,0
1067,-106.0,-304.0,-44.0,0
1068,-122.0,-292.0,-66.0,0
1069,-120.0,-281.0,-91.0,0
1070,-100.0,-267.0,-113.0,0
1071,-86.0,-248.0,-124.0,0
1072,-72.0,-240.0,-124.0,0
1073,-56.0,-224.0,-126.0,0
1074,-32.0,-208.0,-119.0,0
1075,-1.0,-199.0,-112.0,0
1076,23.0,-192.0,-100.0,0
1077,55.0,-192.0,-84.0,0
1078,76.0,-192.0,-69.0,0
1079,88.0,-200.0,-58.0,0
1080,96.0,-214.0,-51.0,0
1081,97.0,-226.0,-40.0,0
1082,98.0,-243.0,-28.0,0
1083,96.0,-263.0,-21.0,0
1084,87.0,-275.0,-22.0,0
1085,78.0,-283.0,-20.0,0
1086,65.0,-287.0,-24.0,0
1087,50.0,-284.0,-26.0,0
1088,40.0,-282.0,-30.0,0
1089,22.0,-269.0,-30.0,0
1090,4.0,-264.0,-31.0,0
1091,-6.0,-255.0,-30.0,0
1092,-26.0,-254.0,-20.0,0
1093,-36.0,-254.0,-19.0,0
1094,-51.0,-255.0,-15.0,0
1095,-55.0,-256.0,-13.0,0
1096,-64.0,-257.0,-9.0,0
1097,-66.0,-256.0,-7.0,0
1098,-64.0,-254.0,-7.0,0
1099,-55.0,-253.0,-6.0,0
1100,-52.0,-241.0,-7.0,0
1101,-37.0,-241.0,-7.0,0
1102,-27.0,-232.0,-5.0,0
1103,-13.0,-222.0,-4.0,0
1104,0.0,-218.0,-5.0,0
1105,8.0,-211.0,-3.0,0
1106,15.0,-205.0,-4.0,0
1107,23.0,-194.0,-4.0,0
1108,33.0,-193.0,-1.0,0
1109,35.0,-192.0,-3.0,0
1110,37.0,-193.0,-4.0,0
1111,38.0,-195.0,-2.0,0
1112,44.0,-205.0,-2.0,0
1113,42.0,-200.0,6.0,0
1114,38.0,-204.0,4.0,0
1115,38.0,-211.0,8.0,0
1116,39.0,-209.0,12.0,0
1117,36.0,-208.0,15.0,0
1118,36.0,-209.0,16.0,0
1119,37.0,-209.0,22.0,0
1120,39.0,-209.0,19.0,0
1121,36.0,-207.0,19.0,0
1122,36.0,-209.0,21.0,0
1123,38.0,-208.0,28.0,0
1124,34.0,-207.0,30.0,0
1125,29.0,-207.0,29.0,0
1126,23.0,-204.0,25.0,0
1127,24.0,-205.0,23.0,0
1128,24.0,-206.0,24.0,0
1129,24.0,-206.0,21.0,0
1130,22.0,-205.0,24.0,0
1131,26.0,-207.0,23.0,0
1132,30.0,-210.0,21.0,0
1133,31.0,-209.0,28.0,0
1134,37.0,-212.0,32.0,0
1135,36.0,-208.0,31.0,0
1136,36.0,-205.0,35.0,0
1137,37.0,-210.0,34.0,0
1138,38.0,-205.0,37.0,0
1139,37.0,-202.0,39.0,0
1140,41.0,-206.0,39.0,0
1141,44.0,-204.0,37.0,0
1142,43.0,-205.0,40.0,0
1143,42.0,-209.0,34.0,0
1144,45.0,-213.0,39.0,0
1145,41.0,-220.0,32.0,0
1146,41.0,-224.0,35.0,0
1147,34.0,-231.0,26.0,0
1148,41.0,-238.0,28.0,0
1149,40.0,-248.0,30.0,0
1150,40.0,-255.0,26.0,0
1151,41.0,-260.0,32.0,0
1152,39.0,-259.0,30.0,0
1153,39.0,-260.0,26.0,0
1154,38.0,-261.0,21.0,0
1155,40.0,-266.0,18.0,0
1156,36.0,-273.0,22.0,0
1157,38.0,-279.0,15.0,0
1158,46.0,-279.0,8.0,0
1159,54.0,-279.0,4.0,0
1160,66.0,-285.0,0.0,0
1161,75.0,-288.0,-2.0,0
1162,88.0,-300.0,-3.0,0
1163,94.0,-312.0,7.0,0
1164,98.0,-324.0,21.0,0
1165,97.0,-334.0,44.0,0
1166,94.0,-338.0,63.0,0
1167,78.0,-347.0,74.0,0
1168,59.0,-347.0,100.0,0
1169,30.0,-344.0,109.0,0
1170,8.0,-342.0,116.0,0
1171,-6.0,-342.0,116.0,0
1172,-17.0,-331.0,108.0,0
1173,-26.0,-323.0,85.0,0
1174,-31.0,-318.0,58.0,0
1175,-24.0,-309.0,28.0,0
1176,-24.0,-306.0,-3.0,0
1177,-12.0,-310.0,-31.0,0
1178,-2.0,-315.0,-62.0,0
1179,14.0,-318.0,-66.0,0
1180,31.0,-324.0,-75.0,0
1181,62.0,-321.0,-76.0,0
1182,48.0,-309.0,-79.0,0
1183,74.0,-292.0,-87.0,0
1184,102.0,-265.0,-98.0,0
1185,110.0,-250.0,-104.0,0
1186,112.0,-231.0,-125.0,0
1187,111.0,-219.0,-143.0,0
1188,101.0,-213.0,-165.0,0
1189,82.0,-210.0,-161.0,0
1190,69.0,-202.0,-154.0,0
1191,51.0,-198.0,-137.0,0
1192,25.0,-203.0,-121.0,0
1193,-2.0,-216.0,-103.0,0
1194,-19.0,-226.0,-85.0,0
1195,-33.0,-245.0,-73.0,0
1196,-48.0,-256.0,-49.0,0
1197,-50.0,-268.0,-51.0,0
1198,-56.0,-274.0,-45.0,0
1199,-54.0,-276.0,-43.0,0
1200,-50.0,-287.0,-38.0,0
1201,-35.0,-288.0,-39.0,0
1202,-22.0,-286.0,-44.0,0
1203,-10.0,-286.0,-48.0,0
1204,3.0,-284.0,-41.0,0
1205,13.0,-277.0,-38.0,0
1206,23.0,-271.0,-33.0,0
1207,41.0,-261.0,-27.0,0
1208,57.0,-252.0,-30.0,0
1209,66.0,-241.0,-24.0,0
1210,85.0,-231.0,-26.0,0
1211,87.0,-220.0,-38.0,0
1212,101.0,-202.0,-43.0,0
1213,104.0,-196.0,-46.0,0
1214,100.0,-192.0,-44.0,0
1215,92.0,-188.0,-37.0,0
1216,88.0,-190.0,-32.0,0
1217,76.0,-188.0,-26.0,0
1218,67.0,-193.0,-23.0,0
1219,62.0,-193.0,-22.0,0
1220,46.0,-196.0,-21.0,0
1221,33.0,-201.0,-15.0,0
1222,23.0,-206.0,-13.0,0
1223,21.0,-206.0,-4.0,0
1224,14.0,-205.0,-6.0,0
1225,5.0,-211.0,-11.0,0
1226,1.0,-209.0,-10.0,0
1227,-7.0,-210.0,-11.0,0
1228,-11.0,-210.0,-9.0,0
1229,-12.0,-220.0,-9.0,0
1230,-14.0,-220.0,-6.0,0
1231,-19.0,-226.0,-2.0,0
1232,-16.0,-226.0,3.0,0
1233,-18.0,-228.0,1.0,0
1234,-25.0,-230.0,2.0,0
1235,-24.0,-230.0,3.0,0
1236,-27.0,-227.0,4.0,0
1237,-25.0,-228.0,6.0,0
1238,-28.0,-224.0,7.0,0
1239,-23.0,-221.0,8.0,0
1240,-25.0,-216.0,14.0,0
1241,-17.0,-216.0,12.0,0
1242,-20.0,-212.0,14.0,0
1243,-17.0,-210.0,7.0,0
1244,-17.0,-207.0,8.0,0
1245,-8.0,-206.0,11.0,0
1246,-12.0,-202.0,9.0,0
1247,-13.0,-195.0,6.0,0
1248,-17.0,-196.0,6.0,0
1249,-22.0,-195.0,7.0,0
1250,-25.0,-195.0,6.0,0
1251,-26.0,-197.0,8.0,0
1252,-25.0,-196.0,7.0,0
1253,-22.0,-205.0,7.0,0
1254,-23.0,-205.0,12.0,0
1255,-20.0,-206.0,14.0,0
1256,-17.0,-213.0,13.0,0
1257,-13.0,-218.0,14.0,0
1258,-7.0,-225.0,17.0,0
1259,-3.0,-230.0,22.0,0
1260,1.0,-239.0,21.0,0
1261,0.0,-238.0,25.0,0
1262,4.0,-248.0,40.0,0
1263,4.0,-254.0,38.0,0
1264,8.0,-251.0,39.0,0
1265,4.0,-255.0,45.0,0
1266,1.0,-256.0,45.0,0
1267,3.0,-253.0,40.0,0
1268,3.0,-253.0,36.0,0
1269,1.0,-250.0,34.0,0
1270,3.0,-252.0,32.0,0
1271,1.0,-249.0,37.0,0
1272,6.0,-253.0,36.0,0
1273,9.0,-254.0,39.0,0
1274,17.0,-257.0,43.0,0
1275,20.0,-261.0,44.0,0
1276,16.0,-257.0,42.0,0
1277,21.0,-263.0,40.0,0
1278,13.0,-260.0,36.0,0
1279,5.0,-257.0,29.0,0
1280,-3.0,-264.0,17.0,0
1281,-18.0,-272.0,10.0,0
1282,-34.0,-286.0,10.0,0
1283,-46.0,-300.0,21.0,0
1284,-60.0,-310.0,31.0,0
1285,-62.0,-322.0,43.0,0
1286,-61.0,-332.0,54.0,0
1287,-52.0,-338.0,55.0,0
1288,-34.0,-353.0,55.0,0
1289,-22.0,-357.0,49.0,0
1290,2.0,-366.0,31.0,0
1291,27.0,-376.0,21.0,0
1292,37.0,-377.0,9.0,0
1293,45.0,-384.0,0.0,0
1294,47.0,-383.0,-3.0,0
1295,47.0,-375.0,-11.0,0
1296,42.0,-356.0,-19.0,0
1297,31.0,-336.0,-28.0,0
1298,18.0,-319.0,-29.0,0
1299,-2.0,-305.0,-30.0,0
1300,-33.0,-290.0,-28.0,0
1301,-63.0,-284.0,-33.0,0
1302,-81.0,-274.0,-44.0,0
1303,-89.0,-267.0,-60.0,0
1304,-90.0,-260.0,-82.0,0
1305,-83.0,-257.0,-91.0,0
1306,-69.0,-250.0,-101.0,0
1307,-57.0,-248.0,-104.0,0
1308,-53.0,-241.0,-113.0,0
1309,-41.0,-237.0,-101.0,0
1310,-31.0,-230.0,-103.0,0
1311,-21.0,-225.0,-105.0,0
1312,-9.0,-222.0,-102.0,0
1313,2.0,-223.0,-99.0,0
1314,22.0,-232.0,-93.0,0
1315,31.0,-243.0,-82.0,0
1316,45.0,-251.0,-73.0,0
1317,57.0,-250.0,-67.0,0
1318,62.0,-255.0,-61.0,0
1319,69.0,-252.0,-53.0,0
1320,73.0,-248.0,-44.0,0
1321,77.0,-245.0,-46.0,0
1322,71.0,-241.0,-42.0,0
1323,65.0,-239.0,-44.0,0
1324,57.0,-236.0,-43.0,0
1325,43.0,-235.0,-49.0,0
1326,35.0,-235.0,-48.0,0
1327,22.0,-238.0,-50.0,0
1328,2.0,-240.0,-54.0,0
1329,-4.0,-240.0,-52.0,0
1330,-17.0,-248.0,-60.0,0
1331,-21.0,-248.0,-58.0,0
1332,-26.0,-247.0,-60.0,0
1333,-32.0,-244.0,-59.0,0
1334,-32.0,-245.0,-54.0,0
1335,-29.0,-241.0,-48.0,0
1336,-25.0,-239.0,-40.0,0
1337,-16.0,-238.0,-35.0,0
1338,-8.0,-234.0,-32.0,0
1339,1.0,-229.0,-36.0,0
1340,11.0,-227.0,-27.0,0
1341,23.0,-229.0,-29.0,0
1342,35.0,-223.0,-27.0,0
1343,43.0,-224.0,-22.0,0
1344,48.0,-224.0,-18.0,0
1345,48.0,-219.0,-22.0,0
1346,56.0,-220.0,-19.0,0
1347,54.0,-213.0,-15.0,0
1348,60.0,-215.0,-4.0,0
1349,60.0,-213.0,-6.0,0
1350,53.0,-214.0,-1.0,0
1351,49.0,-217.0,-1.0,0
1352,52.0,-213.0,0.0,0
1353,51.0,-212.0,0.0,0
1354,43.0,-209.0,-1.0,0
1355,41.0,-209.0,1.0,0
1356,37.0,-208.0,0.0,0
1357,30.0,-209.0,2.0,0
1358,29.0,-207.0,8.0,0
1359,28.0,-209.0,11.0,0
1360,24.0,-205.0,10.0,0
1361,24.0,-204.0,13.0,0
1362,19.0,-202.0,16.0,0
1363,21.0,-199.0,12.0,0
1364,21.0,-197.0,12.0,0
1365,24.0,-194.0,11.0,0
1366,18.0,-194.0,11.0,0
1367,24.0,-196.0,8.0,0
1368,27.0,-197.0,8.0,0
1369,31.0,-199.0,8.0,0
1370,32.0,-202.0,8.0,0
1371,33.0,-204.0,8.0,0
1372,35.0,-203.0,10.0,0
1373,34.0,-206.0,8.0,0
1374,36.0,-209.0,12.0,0
1375,41.0,-210.0,18.0,0
1376,41.0,-211.0,18.0,0
1377,44.0,-210.0,24.0,0
1378,42.0,-214.0,25.0,0
1379,48.0,-216.0,25.0,0
1380,45.0,-219.0,31.0,0
1381,45.0,-221.0,31.0,0
1382,47.0,-227.0,31.0,0
1383,48.0,-230.0,37.0,0
1384,41.0,-238.0,33.0,0
1385,42.0,-233.0,39.0,0
1386,42.0,-234.0,40.0,0
1387,39.0,-236.0,41.0,0
1388,37.0,-234.0,35.0,0
1389,35.0,-233.0,38.0,0
1390,36.0,-234.0,38.0,0
1391,33.0,-233.0,35.0,0
1392,34.0,-229.0,40.0,0
1393,33.0,-236.0,40.0,0
1394,28.0,-232.0,35.0,0
1395,32.0,-234.0,39.0,0
1396,29.0,-236.0,33.0,0
1397,28.0,-239.0,27.0,0
1398,31.0,-242.0,25.0,0
1399,29.0,-251.0,18.0,0
1400,28.0,-254.0,13.0,0
1401,28.0,-252.0,7.0,0
1402,35.0,-256.0,3.0,0
1403,41.0,-257.0,0.0,0
1404,52.0,-259.0,-6.0,0
1405,61.0,-262.0,-2.0,0
1406,69.0,-274.0,7.0,0
1407,72.0,-286.0,25.0,0
1408,72.0,-297.0,38.0,0
1409,68.0,-310.0,62.0,0
1410,53.0,-316.0,84.0,0
1411,40.0,-317.0,100.0,0
1412,23.0,-327.0,113.0,0
1413,2.0,-324.0,126.0,0
1414,-17.0,-319.0,120.0,0
1415,-19.0,-317.0,118.0,0
1416,-37.0,-319.0,111.0,0
1417,-40.0,-305.0,81.0,0
1418,-37.0,-293.0,59.0,0
1419,-29.0,-283.0,39.0,0
1420,-15.0,-277.0,14.0,0
1421,-3.0,-274.0,-1.0,0
1422,21.0,-273.0,-21.0,0
1423,42.0,-273.0,-40.0,0
1424,65.0,-280.0,-49.0,0
1425,73.0,-282.0,-61.0,0
1426,92.0,-283.0,-63.0,0
1427,97.0,-283.0,-73.0,0
1428,108.0,-271.0,-92.0,0
1429,113.0,-263.0,-111.0,0
1430,118.0,-256.0,-128.0,0
1431,109.0,-248.0,-147.0,0
1432,92.0,-238.0,-162.0,0
1433,73.0,-235.0,-160.0,0
1434,49.0,-232.0,-157.0,0
1435,28.0,-233.0,-139.0,0
1436,4.0,-233.0,-124.0,0
1437,-19.0,-242.0,-103.0,0
1438,-39.0,-255.0,-88.0,0
1439,-54.0,-264.0,-72.0,0
1440,-57.0,-276.0,-57.0,0
1441,-59.0,-285.0,-38.0,0
1442,-54.0,-297.0,-29.0,0
1443,-47.0,-305.0,-19.0,0
1444,-39.0,-307.0,-18.0,0
1445,-29.0,-312.0,-17.0,0
1446,-18.0,-309.0,-24.0,0
1447,-1.0,-308.0,-25.0,0
1448,8.0,-301.0,-29.0,0
1449,27.0,-296.0,-29.0,0
1450,42.0,-286.0,-28.0,0
1451,55.0,-272.0,-25.0,0
1452,70.0,-257.0,-29.0,0
1453,82.0,-241.0,-37.0,0
1454,94.0,-232.0,-43.0,0
1455,95.0,-220.0,-41.0,0
1456,101.0,-216.0,-38.0,0
1457,100.0,-210.0,-33.0,0
1458,109.0,-208.0,-29.0,0
1459,107.0,-205.0,-25.0,0
1460,91.0,-204.0,-20.0,0
1461,81.0,-203.0,-15.0,0
1462,70.0,-206.0,-14.0,0
1463,60.0,-210.0,-8.0,0
1464,48.0,-214.0,-8.0,0
1465,38.0,-214.0,-8.0,0
1466,32.0,-217.0,-3.0,0
1467,20.0,-223.0,0.0,0
1468,13.0,-221.0,-3.0,0
1469,7.0,-224.0,2.0,0
1470,1.0,-225.0,1.0,0
1471,0.0,-225.0,7.0,0
1472,-2.0,-224.0,3.0,0
1473,-9.0,-223.0,8.0,0
1474,-10.0,-220.0,10.0,0
1475,-9.0,-222.0,14.0,0
1476,-18.0,-220.0,19.0,0
1477,-21.0,-216.0,14.0,0
1478,-22.0,-217.0,20.0,0
1479,-23.0,-218.0,24.0,0
1480,-30.0,-215.0,28.0,0
1481,-30.0,-211.0,31.0,0
1482,-31.0,-216.0,33.0,0
1483,-27.0,-221.0,30.0,0
1484,-24.0,-223.0,30.0,0
1485,-21.0,-223.0,26.0,0
1486,-17.0,-224.0,27.0,0
1487,-16.0,-226.0,27.0,0
1488,-14.0,-219.0,22.0,0
1489,-12.0,-219.0,20.0,0
1490,-5.0,-217.0,22.0,0
1491,-8.0,-215.0,23.0,0
1492,-3.0,-218.0,22.0,0
1493,3.0,-211.0,21.0,0
1494,3.0,-211.0,23.0,0
1495,6.0,-213.0,25.0,0
1496,8.0,-210.0,24.0,0
1497,6.0,-211.0,26.0,0
1498,13.0,-214.0,27.0,0
1499,15.0,-214.0,34.0,0
1500,21.0,-218.0,33.0,0
1501,16.0,-221.0,37.0,0
1502,17.0,-225.0,37.0,0
1503,19.0,-226.0,35.0,0
1504,14.0,-223.0,40.0,0
1505,19.0,-223.0,37.0,0
1506,11.0,-217.0,36.0,0
1507,12.0,-218.0,34.0,0
1508,4.0,-216.0,36.0,0
1509,1.0,-212.0,36.0,0
1510,1.0,-209.0,35.0,0
1511,-3.0,-204.0,33.0,0
1512,-7.0,-201.0,34.0,0
1513,-10.0,-197.0,32.0,0
1514,-22.0,-194.0,27.0,0
1515,-18.0,-195.0,33.0,0
1516,-22.0,-195.0,32.0,0
1517,-22.0,-194.0,30.0,0
1518,-20.0,-203.0,30.0,0
1519,-23.0,-203.0,33.0,0
1520,-23.0,-202.0,32.0,0
1521,-25.0,-211.0,32.0,0
1522,-25.0,-211.0,35.0,0
1523,-28.0,-211.0,31.0,0
1524,-38.0,-207.0,24.0,0
1525,-29.0,-196.0,23.0,0
1526,-30.0,-191.0,16.0,0
1527,-34.0,-180.0,17.0,0
1528,-39.0,-176.0,12.0,0
1529,-43.0,-173.0,12.0,0
1530,-55.0,-174.0,16.0,0
1531,-63.0,-174.0,21.0,0
1532,-70.0,-171.0,26.0,0
1533,-78.0,-180.0,29.0,0
1534,-87.0,-177.0,33.0,0
1535,-82.0,-178.0,26.0,0
1536,-87.0,-182.0,33.0,0
1537,-79.0,-186.0,29.0,0
1538,-65.0,-191.0,28.0,0
1539,-54.0,-192.0,27.0,0
1540,-29.0,-195.0,26.0,0
1541,-9.0,-198.0,25.0,0
1542,7.0,-192.0,16.0,0
1543,26.0,-189.0,19.0,0
1544,49.0,-182.0,11.0,0
1545,70.0,-171.0,9.0,0
1546,83.0,-154.0,8.0,0
1547,90.0,-136.0,1.0,0
1548,89.0,-128.0,1.0,0
1549,70.0,-105.0,-9.0,0
1550,56.0,-88.0,-12.0,0
1551,42.0,-73.0,-11.0,0
1552,32.0,-68.0,-10.0,0
1553,27.0,-71.0,-9.0,0
1554,21.0,-79.0,-3.0,0
1555,8.0,-90.0,6.0,0
1556,1.0,-107.0,26.0,0
1557,-12.0,-121.0,40.0,0
1558,-20.0,-131.0,51.0,0
1559,-37.0,-134.0,52.0,0
1560,-42.0,-141.0,52.0,0
1561,-41.0,-138.0,41.0,0
1562,-43.0,-137.0,38.0,0
1563,-42.0,-130.0,29.0,0
1564,-35.0,-124.0,17.0,0
1565,-21.0,-126.0,16.0,0
1566,-15.0,-125.0,7.0,0
1567,0.0,-129.0,10.0,0
1568,10.0,-128.0,10.0,0
1569,21.0,-139.0,10.0,0
1570,26.0,-143.0,11.0,0
1571,35.0,-148.0,7.0,0
1572,43.0,-155.0,1.0,0
1573,47.0,-169.0,-15.0,0
1574,48.0,-177.0,-30.0,0
1575,46.0,-199.0,-27.0,0
1576,48.0,-216.0,-29.0,0
1577,41.0,-230.0,-26.0,0
1578,42.0,-232.0,-20.0,0
1579,35.0,-219.0,-26.0,0
1580,29.0,-197.0,-17.0,0
1581,17.0,-174.0,-17.0,0
1582,1.0,-149.0,-9.0,0
1583,-16.0,-133.0,-10.0,0
1584,-23.0,-120.0,-23.0,0
1585,-30.0,-115.0,-28.0,0
1586,-34.0,-115.0,-30.0,0
1587,-29.0,-110.0,-25.0,0
1588,-34.0,-102.0,-20.0,0
1589,-28.0,-94.0,-10.0,0
1590,-31.0,-77.0,-2.0,0
1591,-23.0,-68.0,-1.0,0
1592,-26.0,-52.0,1.0,0
1593,-30.0,-37.0,22.0,0
1594,-32.0,-36.0,25.0,0
1595,-28.0,-37.0,21.0,0
1596,-25.0,-47.0,12.0,0
1597,-16.0,-79.0,1.0,1
1598,3.0,-147.0,26.0,1
1599,2.0,-251.0,59.0,1
1600,-14.0,-351.0,74.0,1
1601,-34.0,-463.0,96.0,1
1602,-34.0,-563.0,106.0,1
1603,-16.0,-649.0,108.0,1
1604,1.0,-725.0,84.0,1
1605,6.0,-777.0,61.0,1
1606,31.0,-835.0,46.0,1
1607,70.0,-880.0,34.0,1
1608,95.0,-903.0,43.0,1
1609,116.0,-896.0,51.0,1
1610,110.0,-858.0,66.0,1
1611,66.0,-766.0,55.0,1
1612,38.0,-651.0,15.0,1
1613,33.0,-534.0,-9.0,1
1614,45.0,-452.0,-36.0,1
1615,101.0,-364.0,-68.0,1
1616,227.0,-307.0,-130.0,1
1617,340.0,-264.0,-222.0,1
1618,387.0,-263.0,-281.0,1
1619,372.0,-302.0,-296.0,1
1620,287.0,-391.0,-275.0,1
1621,192.0,-457.0,-217.0,1
1622,163.0,-447.0,-169.0,1
1623,146.0,-410.0,-160.0,1
1624,117.0,-358.0,-171.0,1
1625,61.0,-286.0,-175.0,1
1626,1.0,-220.0,-177.0,1
1627,-47.0,-151.0,-180.0,1
1628,-85.0,-101.0,-178.0,1
1629,-131.0,-54.0,-179.0,1
1630,-165.0,-1.0,-184.0,1
1631,-169.0,29.0,-189.0,1
1632,-188.0,51.0,-170.0,1
1633,-185.0,56.0,-176.0,1
1634,-176.0,53.0,-169.0,1
1635,-146.0,51.0,-161.0,1
1636,-144.0,27.0,-143.0,1
1637,-124.0,-9.0,-137.0,1
1638,-106.0,-33.0,-128.0,1
1639,-89.0,-57.0,-109.0,1
1640,-80.0,-126.0,-76.0,1
1641,-93.0,-109.0,-30.0,1
1642,-97.0,-71.0,-18.0,1
1643,-125.0,-14.0,-22.0,1
1644,-155.0,39.0,-41.0,1
1645,-169.0,68.0,-57.0,1
1646,-171.0,88.0,-76.0,1
1647,-174.0,91.0,-84.0,1
1648,-171.0,90.0,-100.0,1
1649,-156.0,78.0,-100.0,1
1650,-136.0,67.0,-100.0,1
1651,-122.0,58.0,-96.0,1
1652,-108.0,43.0,-107.0,1
1653,-99.0,38.0,-113.0,1
1654,-85.0,29.0,-125.0,1
1655,-67.0,28.0,-131.0,1
1656,-59.0,30.0,-132.0,1
1657,-54.0,35.0,-135.0,1
1658,-60.0,35.0,-138.0,1
1659,-65.0,33.0,-147.0,1
1660,-74.0,25.0,-157.0,1
1661,-85.0,16.0,-163.0,1
1662,-99.0,1.0,-172.0,1
1663,-123.0,-7.0,-180.0,1
1664,-143.0,-24.0,-184.0,1
1665,-166.0,-31.0,-182.0,1
1666,-185.0,-37.0,-176.0,1
1667,-194.0,-39.0,-172.0,1
1668,-193.0,-44.0,-162.0,1
1669,-192.0,-47.0,-142.0,1
1670,-177.0,-50.0,-122.0,2
1671,-164.0,-54.0,-113.0,2
1672,-143.0,-55.0,-101.0,2
1673,-112.0,-53.0,-95.0,2
1674,-91.0,-52.0,-102.0,2
1675,-79.0,-50.0,-107.0,2
1676,-76.0,-60.0,-123.0,2
1677,-85.0,-61.0,-146.0,2
1678,-111.0,-60.0,-158.0,2
1679,-137.0,-57.0,-171.0,2
1680,-152.0,-73.0,-174.0,2
1681,-543.0,-305.0,-1382.0,2
1682,-1036.0,-1281.0,-1694.0,2
1683,-194.0,-156.0,-56.0,2
1684,490.0,224.0,-211.0,2
1685,714.0,425.0,4.0,2
1686,94.0,299.0,115.0,2
1687,-206.0,-433.0,-353.0,2
1688,-86.0,-241.0,-491.0,2
1689,27.0,-188.0,-656.0,2
1690,-91.0,-98.0,-575.0,2
1691,-57.0,197.0,-567.0,2
1692,-190.0,101.0,-568.0,2
1693,-260.0,-63.0,-801.0,2
1694,-18.0,-233.0,-757.0,2
1695,38.0,-210.0,-560.0,2
1696,11.0,99.0,-393.0,2
1697,-255.0,210.0,-378.0,2
1698,-304.0,66.0,-585.0,2
1699,-392.0,-24.0,-706.0,2
1700,-388.0,-6.0,-721.0,2
1701,-341.0,-41.0,-631.0,2
1702,-317.0,-10.0,-580.0,2
1703,-276.0,-37.0,-555.0,2
1704,-252.0,-56.0,-531.0,2
1705,-189.0,-53.0,-498.0,2
1706,-142.0,-74.0,-462.0,1
1707,-116.0,-33.0,-424.0,1
1708,-130.0,-20.0,-409.0,1
1709,-109.0,-10.0,-380.0,1
1710,-103.0,-15.0,-371.0,1
1711,-93.0,-8.0,-365.0,1
1712,-73.0,-3.0,-359.0,1
1713,-63.0,3.0,-344.0,1
1714,-3.0,4.0,-325.0,1
1715,-28.0,-3.0,-341.0,1
1716,-47.0,-19.0,-332.0,1
1717,-57.0,12.0,-312.0,1
1718,-46.0,-16.0,-317.0,1
1719,-30.0,6.0,-275.0,1
1720,-26.0,-2.0,-273.0,1
1721,-56.0,7.0,-245.0,1
1722,-43.0,11.0,-240.0,1
1723,-41.0,20.0,-230.0,1
1724,-12.0,48.0,-210.0,1
1725,-24.0,24.0,-213.0,1
1726,-67.0,26.0,-231.0,1
1727,-32.0,29.0,-213.0,1
1728,8.0,39.0,-193.0,1
1729,-41.0,-16.0,-193.0,1
1730,-20.0,28.0,-204.0,1
1731,-62.0,59.0,-218.0,1
1732,-56.0,20.0,-182.0,1
1733,15.0,47.0,-189.0,1
1734,-66.0,65.0,-206.0,1
1735,-19.0,43.0,-191.0,1
1736,24.0,59.0,-174.0,1
1737,-49.0,38.0,-211.0,1
1738,2.0,30.0,-210.0,1
1739,-31.0,39.0,-214.0,1
1740,-12.0,34.0,-211.0,0
1741,33.0,36.0,-199.0,0
1742,-40.0,29.0,-210.0,0
1743,-21.0,27.0,-212.0,0
1744,-45.0,20.0,-217.0,0
1745,-24.0,1.0,-209.0,0
1746,-13.0,7.0,-208.0,0
1747,-26.0,5.0,-224.0,0
1748,-18.0,12.0,-219.0,0
1749,-29.0,16.0,-222.0,0
1750,-2.0,0.0,-216.0,0
1751,28.0,13.0,-211.0,0
1752,-16.0,4.0,-230.0,0
1753,3.0,21.0,-233.0,0
1754,-10.0,20.0,-237.0,0
1755,-1.0,30.0,-241.0,0
1756,-4.0,24.0,-235.0,0
1757,-40.0,16.0,-237.0,0
1758,3.0,4.0,-228.0,0
1759,-5.0,21.0,-241.0,0
1760,6.0,22.0,-229.0,0
1761,13.0,9.0,-234.0,0
1762,1.0,13.0,-243.0,0
1763,4.0,6.0,-248.0,0
1764,10.0,3.0,-246.0,0
1765,3.0,2.0,-242.0,0
1766,9.0,4.0,-241.0,0
1767,6.0,1.0,-241.0,0
1768,-4.0,4.0,-240.0,0
1769,-2.0,5.0,-243.0,0
1770,5.0,5.0,-235.0,0
1771,-12.0,2.0,-246.0,0
1772,-11.0,8.0,-243.0,0
1773,-7.0,4.0,-241.0,0
1774,-9.0,7.0,-235.0,0
1775,-2.0,1.0,-237.0,0
1776,-2.0,2.0,-238.0,0
1777,-3.0,2.0,-246.0,0
1778,-2.0,4.0,-248.0,0
1779,-8.0,2.0,-256.0,0
1780,-17.0,0.0,-257.0,0
1781,-7.0,-2.0,-250.0,0
1782,-10.0,-2.0,-251.0,0
1783,-10.0,0.0,-251.0,0
1784,-12.0,-2.0,-252.0,0
1785,-6.0,1.0,-257.0,0
1786,-10.0,-2.0,-257.0,0
1787,-8.0,4.0,-258.0,0
1788,0.0,13.0,-262.0,0
1789,2.0,28.0,-265.0,0
1790,-27.0,-25.0,-245.0,0
1791,-14.0,32.0,-271.0,0
1792,-12.0,-5.0,-263.0,0
1793,0.0,-3.0,-257.0,0
1794,-27.0,1.0,-257.0,0
1795,-30.0,29.0,-285.0,0
1796,-31.0,55.0,-279.0,0
1797,-1.0,-7.0,-277.0,0
1798,16.0,-24.0,-289.0,0
1799,25.0,-10.0,-302.0,0
1800,11.0,16.0,-305.0,0
1801,-1.0,0.0,-292.0,0
1802,-14.0,0.0,-287.0,0
1803,-20.0,-1.0,-265.0,0
1804,-18.0,-3.0,-249.0,0
1805,-23.0,-6.0,-232.0,0
1806,-23.0,2.0,-224.0,0
1807,-19.0,9.0,-217.0,0
1808,-22.0,9.0,-219.0,0
1809,-11.0,4.0,-222.0,0
1810,-10.0,0.0,-228.0,0
1811,-12.0,-5.0,-238.0,0
1812,-13.0,-8.0,-240.0,0
1813,-18.0,-13.0,-241.0,0
1814,-22.0,-12.0,-239.0,0
1815,-23.0,-9.0,-241.0,0
1816,-23.0,-13.0,-243.0,0
1817,-27.0,-9.0,-240.0,0
1818,-26.0,-9.0,-239.0,0
1819,-22.0,1.0,-245.0,0
1820,-30.0,-8.0,-238.0,0
1821,-25.0,-12.0,-240.0,0
1822,-30.0,-11.0,-241.0,0
1823,-27.0,-14.0,-230.0,0
1824,-23.0,-7.0,-239.0,0
1825,-29.0,-12.0,-236.0,0
1826,-27.0,-10.0,-235.0,0
1827,-24.0,-9.0,-234.0,0
1828,-25.0,-11.0,-235.0,0
1829,-22.0,-6.0,-228.0,0
1830,-26.0,-7.0,-233.0,0
1831,-23.0,-10.0,-231.0,0
1832,-26.0,-6.0,-237.0,0
1833,-22.0,-7.0,-233.0,0
1834,-30.0,-11.0,-239.0,0
1835,-33.0,-6.0,-248.0,0
1836,-32.0,0.0,-252.0,0
1837,-32.0,-11.0,-257.0,0
1838,-34.0,-9.0,-260.0,0
1839,-33.0,-17.0,-269.0,0
1840,-39.0,-3.0,-278.0,0
1841,-40.0,-10.0,-285.0,0
1842,-41.0,1.0,-290.0,0
1843,-42.0,-5.0,-298.0,0
1844,-46.0,0.0,-288.0,0
1845,-45.0,-8.0,-288.0,0
1846,-42.0,-10.0,-278.0,0
1847,-39.0,-11.0,-274.0,0
1848,-36.0,-16.0,-258.0,0
1849,-36.0,-13.0,-252.0,0
1850,-31.0,-8.0,-246.0,0
1851,-26.0,-10.0,-242.0,0
1852,-26.0,-9.0,-240.0,0
1853,-34.0,-3.0,-236.0,0
1854,-33.0,-5.0,-236.0,0
1855,-33.0,-5.0,-232.0,0
1856,-35.0,0.0,-233.0,0
1857,-25.0,-7.0,-224.0,0
1858,-39.0,3.0,-225.0,0
1859,-39.0,-7.0,-222.0,0
1860,-37.0,-12.0,-228.0,0
1861,-35.0,-11.0,-223.0,0
1862,-35.0,-11.0,-224.0,0
1863,-41.0,-10.0,-223.0,0
1864,-35.0,-9.0,-225.0,0
1865,-36.0,-14.0,-233.0,0
1866,-37.0,-11.0,-227.0,0
1867,-39.0,-14.0,-228.0,0
1868,-38.0,-10.0,-227.0,0
1869,-40.0,-13.0,-233.0,0
1870,-40.0,-16.0,-237.0,0
1871,-43.0,-10.0,-242.0,0
1872,-42.0,-8.0,-246.0,0
1873,-44.0,-10.0,-251.0,0
1874,-42.0,-10.0,-249.0,0
1875,-40.0,-15.0,-252.0,0
1876,-40.0,-6.0,-253.0,0
1877,-40.0,-5.0,-257.0,0
1878,-37.0,-11.0,-256.0,0
1879,-38.0,-12.0,-255.0,0
1880,-37.0,-9.0,-259.0,0
1881,-38.0,-8.0,-260.0,0
1882,-37.0,-11.0,-255.0,0
1883,-37.0,-6.0,-256.0,0
1884,-39.0,-5.0,-249.0,0
1885,-36.0,-9.0,-252.0,0
1886,-34.0,-10.0,-252.0,0
1887,-35.0,-10.0,-247.0,0
1888,-31.0,-9.0,-258.0,0
1889,-39.0,-11.0,-258.0,0
1890,-39.0,-13.0,-259.0,0
1891,-40.0,-7.0,-258.0,0
1892,-39.0,-16.0,-258.0,0
1893,-43.0,-8.0,-258.0,0
1894,-44.0,-8.0,-260.0,0
1895,-45.0,-5.0,-255.0,0
1896,-43.0,-8.0,-254.0,0
1897,-50.0,-6.0,-274.0,0
1898,-50.0,-18.0,-281.0,0
1899,-56.0,-8.0,-292.0,0
1900,-28.0,21.0,-253.0,0
1901,-64.0,25.0,-240.0,0
1902,-62.0,0.0,-228.0,0
1903,-55.0,-48.0,-232.0,0
1904,-22.0,-67.0,-246.0,0
1905,-19.0,-29.0,-268.0,0
1906,-34.0,0.0,-254.0,0
1907,-24.0,-1.0,-235.0,0
1908,-48.0,-2.0,-222.0,0
1909,-57.0,-6.0,-220.0,0
1910,-48.0,4.0,-221.0,0
1911,-37.0,-2.0,-217.0,0
1912,-33.0,-7.0,-209.0,0
1913,-26.0,-11.0,-206.0,0
1914,-20.0,-15.0,-195.0,0
1915,-14.0,-17.0,-196.0,0
1916,-11.0,-22.0,-195.0,0
1917,-14.0,-19.0,-193.0,0
1918,-20.0,-17.0,-195.0,0
1919,-31.0,-17.0,-208.0,0
1920,-33.0,-19.0,-211.0,0
1921,-37.0,-14.0,-214.0,0
1922,-43.0,-14.0,-224.0,0
1923,-43.0,-15.0,-227.0,0
1924,-46.0,-11.0,-228.0,0
1925,-46.0,-15.0,-235.0,0
1926,-46.0,-13.0,-236.0,0
1927,-41.0,-15.0,-236.0,0
1928,-42.0,-21.0,-248.0,0
1929,-44.0,-14.0,-247.0,0
1930,-43.0,-12.0,-254.0,0
1931,-47.0,-17.0,-258.0,0
1932,-46.0,-17.0,-271.0,0
1933,-44.0,-17.0,-271.0,0
1934,-49.0,-14.0,-275.0,0
1935,-48.0,-15.0,-285.0,0
1936,-46.0,-12.0,-284.0,0
1937,-48.0,-14.0,-285.0,0
1938,-48.0,-18.0,-285.0,0
1939,-50.0,-14.0,-281.0,0
1940,-50.0,-13.0,-285.0,0
1941,-44.0,-14.0,-280.0,0
1942,-47.0,-16.0,-281.0,0
1943,-46.0,-14.0,-278.0,0
1944,-47.0,-17.0,-275.0,0
1945,-44.0,-13.0,-267.0,0
1946,-44.0,-14.0,-265.0,0
1947,-47.0,-10.0,-259.0,0
1948,-46.0,-15.0,-258.0,0
1949,-50.0,-11.0,-254.0,0
1950,-46.0,-15.0,-249.0,0
1951,-45.0,-7.0,-242.0,0
1952,-43.0,-8.0,-245.0,0
1953,-43.0,-8.0,-237.0,0
1954,-39.0,-14.0,-236.0,0
1955,-45.0,-21.0,-234.0,0
1956,-41.0,-22.0,-238.0,0
1957,-40.0,-19.0,-239.0,0
1958,-37.0,-15.0,-233.0,0
1959,-37.0,-7.0,-234.0,0
1960,-41.0,-5.0,-232.0,0
1961,-38.0,-6.0,-220.0,0
1962,-45.0,-4.0,-220.0,0
1963,-40.0,-5.0,-221.0,0
1964,-38.0,-6.0,-217.0,0
1965,-35.0,-9.0,-216.0,0
1966,-36.0,-10.0,-222.0,0
1967,-32.0,-12.0,-222.0,0
1968,-32.0,-11.0,-225.0,0
1969,-31.0,-8.0,-227.0,0
1970,-37.0,-4.0,-227.0,0
1971,-33.0,-12.0,-228.0,0
1972,-36.0,-8.0,-235.0,0
1973,-38.0,-10.0,-239.0,0
1974,-41.0,-3.0,-231.0,0
1975,-35.0,-11.0,-243.0,0
1976,-38.0,-9.0,-238.0,0
1977,-39.0,-11.0,-242.0,0
1978,-41.0,-10.0,-245.0,0
1979,-41.0,-9.0,-249.0,0
1980,-42.0,-12.0,-249.0,0
1981,-38.0,-14.0,-255.0,0
1982,-41.0,-13.0,-257.0,0
1983,-35.0,-21.0,-255.0,0
1984,-41.0,-13.0,-261.0,0
1985,-39.0,-16.0,-265.0,0
1986,-38.0,-14.0,-263.0,0
1987,-40.0,-15.0,-266.0,0
1988,-37.0,-13.0,-267.0,0
1989,-40.0,-12.0,-269.0,0
1990,-38.0,-12.0,-267.0,0
1991,-39.0,-13.0,-264.0,0
1992,-36.0,-13.0,-259.0,0
1993,-41.0,-12.0,-259.0,0
1994,-34.0,-10.0,-256.0,0
1995,-35.0,-17.0,-249.0,0
1996,-37.0,-15.0,-251.0,0
1997,-38.0,-16.0,-245.0,0
1998,-39.0,-14.0,-245.0,0
1999,-37.0,-13.0,-244.0,0
2000,-36.0,-10.0,-241.0,0
2001,-35.0,-14.0,-243.0,0
2002,-35.0,-13.0,-241.0,0
2003,-34.0,-14.0,-236.0,0
2004,-33.0,-11.0,-239.0,0
2005,-33.0,-17.0,-236.0,0
2006,-36.0,-13.0,-240.0,0
2007,-32.0,-14.0,-233.0,0
2008,-36.0,-13.0,-239.0,0
2009,-32.0,-13.0,-239.0,0
2010,-34.0,-12.0,-236.0,0
2011,-36.0,-14.0,-240.0,0
2012,-37.0,-12.0,-233.0,0
2013,-37.0,-11.0,-236.0,0
2014,-34.0,-12.0,-240.0,0
2015,-37.0,-11.0,-242.0,0
2016,-34.0,-11.0,-238.0,0
2017,-39.0,-9.0,-237.0,0
2018,-33.0,-12.0,-240.0,0
2019,-35.0,-14.0,-244.0,0
2020,-33.0,-15.0,-244.0,0
2021,-35.0,-12.0,-245.0,0
2022,-36.0,-10.0,-248.0,0
2023,-37.0,-12.0,-245.0,0
2024,-34.0,-18.0,-252.0,0
2025,-38.0,-10.0,-255.0,0
2026,-33.0,-12.0,-252.0,0
2027,-38.0,-13.0,-253.0,0
2028,-42.0,-15.0,-254.0,0
2029,-35.0,-13.0,-253.0,0
2030,-36.0,-13.0,-251.0,0
2031,-37.0,-12.0,-251.0,0
2032,-35.0,-14.0,-252.0,0
2033,-40.0,-11.0,-252.0,0
2034,-37.0,-15.0,-253.0,0
2035,-37.0,-12.0,-254.0,0
2036,-38.0,-9.0,-249.0,0
2037,-39.0,-14.0,-248.0,0
2038,-41.0,-14.0,-252.0,0
2039,-40.0,-12.0,-247.0,0
2040,-37.0,-16.0,-249.0,0
2041,-38.0,-12.0,-246.0,0
2042,-38.0,-14.0,-247.0,0
2043,-37.0,-14.0,-247.0,0
2044,-34.0,-15.0,-245.0,0
2045,-38.0,-11.0,-243.0,0
2046,-38.0,-10.0,-247.0,0
2047,-36.0,-10.0,-247.0,0
2048,-37.0,-9.0,-246.0,0
2049,-31.0,-15.0,-244.0,0
2050,-36.0,-13.0,-242.0,0
2051,-38.0,-14.0,-243.0,0
2052,-37.0,-14.0,-242.0,0
2053,-36.0,-12.0,-249.0,0
2054,-36.0,-13.0,-238.0,0
2055,-36.0,-11.0,-247.0,0
2056,-38.0,-14.0,-244.0,0
2057,-35.0,-14.0,-242.0,0
2058,-39.0,-14.0,-243.0,0
2059,-37.0,-11.0,-249.0,0
2060,-37.0,-15.0,-248.0,0
2061,-36.0,-12.0,-244.0,0
2062,-39.0,-15.0,-246.0,0
2063,-35.0,-14.0,-248.0,0
2064,-37.0,-14.0,-244.0,0
2065,-38.0,-14.0,-249.0,0
2066,-36.0,-14.0,-248.0,0
2067,-36.0,-15.0,-246.0,0
2068,-38.0,-10.0,-248.0,0
2069,-36.0,-15.0,-249.0,0
2070,-40.0,-15.0,-248.0,0
2071,-38.0,-13.0,-249.0,0
2072,-37.0,-13.0,-244.0,0
2073,-36.0,-14.0,-248.0,0
2074,-36.0,-12.0,-250.0,0
2075,-41.0,-12.0,-246.0,0
2076,-39.0,-13.0,-247.0,0
2077,-36.0,-15.0,-247.0,0
2078,-38.0,-14.0,-250.0,0
2079,-35.0,-12.0,-242.0,0
2080,-38.0,-14.0,-246.0,0
2081,-38.0,-14.0,-250.0,0
2082,-40.0,-13.0,-240.0,0
2083,-38.0,-19.0,-253.0,0
2084,-38.0,-11.0,-246.0,0
2085,-37.0,-14.0,-245.0,0
2086,-37.0,-12.0,-245.0,0
2087,-39.0,-12.0,-246.0,0
2088,-39.0,-12.0,-243.0,0
2089,-35.0,-18.0,-242.0,0
2090,-38.0,-10.0,-247.0,0
2091,-41.0,-12.0,-241.0,0
2092,-38.0,-13.0,-242.0,0
2093,-41.0,-12.0,-245.0,0
2094,-35.0,-13.0,-250.0,0
2095,-39.0,-13.0,-246.0,0
2096,-38.0,-10.0,-245.0,0
2097,-38.0,-10.0,-244.0,0
2098,-39.0,-12.0,-248.0,0
2099,-38.0,-12.0,-249.0,0
2100,-39.0,-13.0,-245.0,0
2101,-37.0,-11.0,-247.0,0
2102,-38.0,-14.0,-248.0,0
2103,-44.0,-5.0,-255.0,0
2104,-39.0,-11.0,-247.0,0
2105,-36.0,-13.0,-245.0,0
2106,-36.0,-13.0,-247.0,0
2107,-37.0,-16.0,-248.0,0
2108,-40.0,-15.0,-247.0,0
2109,-37.0,-14.0,-246.0,0
2110,-36.0,-14.0,-245.0,0
2111,-41.0,-13.0,-245.0,0
2112,-40.0,-9.0,-244.0,0
2113,-31.0,-12.0,-244.0,0
2114,-40.0,-11.0,-250.0,0
2115,-38.0,-13.0,-244.0,0
2116,-38.0,-11.0,-244.0,0
2117,-36.0,-14.0,-249.0,0
2118,-36.0,-16.0,-243.0,0
2119,-39.0,-14.0,-246.0,0
2120,-39.0,-13.0,-246.0,0
2121,-38.0,-9.0,-247.0,0
2122,-37.0,-14.0,-250.0,0
2123,-35.0,-12.0,-244.0,0
2124,-37.0,-16.0,-247.0,0
2125,-34.0,-9.0,-246.0,0
2126,-36.0,-14.0,-246.0,0
2127,-35.0,-13.0,-243.0,0
2128,-37.0,-11.0,-244.0,0
2129,-38.0,-12.0,-247.0,0
2130,-37.0,-13.0,-242.0,0
2131,-35.0,-19.0,-249.0,0
2132,-33.0,-16.0,-245.0,0
2133,-37.0,-14.0,-248.0,0
2134,-39.0,-12.0,-237.0,0
2135,-39.0,-13.0,-246.0,0
2136,-38.0,-12.0,-247.0,0
2137,-37.0,-12.0,-248.0,0
2138,-39.0,-14.0,-246.0,0
2139,-39.0,-12.0,-252.0,0
2140,-39.0,-16.0,-247.0,0
2141,-36.0,-12.0,-247.0,0
2142,-34.0,-12.0,-241.0,0
2143,-41.0,-11.0,-246.0,0
2144,-41.0,-12.0,-252.0,0
2145,-36.0,-16.0,-241.0,0
2146,-40.0,-10.0,-244.0,0
2147,-37.0,-16.0,-244.0,0
2148,-38.0,-12.0,-245.0,0
2149,-37.0,-15.0,-246.0,0
2150,-38.0,-14.0,-247.0,0
2151,-37.0,-14.0,-246.0,0
2152,-39.0,-14.0,-247.0,0
2153,-39.0,-17.0,-247.0,0
2154,-36.0,-10.0,-249.0,0
2155,-38.0,-13.0,-246.0,0
2156,-33.0,-12.0,-237.0,0
2157,-40.0,-16.0,-241.0,0
2158,-39.0,-11.0,-245.0,0
2159,-37.0,-15.0,-248.0,0
2160,-35.0,-12.0,-242.0,0
2161,-35.0,-13.0,-248.0,0
2162,-37.0,-9.0,-246.0,0
2163,-33.0,-15.0,-243.0,0
2164,-34.0,-15.0,-246.0,0
2165,-36.0,-13.0,-247.0,0
2166,-37.0,-12.0,-251.0,0
2167,-39.0,-16.0,-250.0,0
2168,-39.0,-13.0,-244.0,0
2169,-38.0,-11.0,-246.0,0
2170,-38.0,-11.0,-247.0,0
2171,-38.0,-15.0,-247.0,0
2172,-36.0,-17.0,-246.0,0
2173,-35.0,-12.0,-246.0,0
2174,-36.0,-15.0,-247.0,0
2175,-35.0,-16.0,-245.0,0
2176,-35.0,-16.0,-249.0,0
2177,-36.0,-17.0,-248.0,0
2178,-34.0,-7.0,-248.0,0
2179,-32.0,-15.0,-247.0,0
2180,-38.0,-14.0,-242.0,0
2181,-38.0,-13.0,-245.0,0
2182,-37.0,-13.0,-244.0,0
2183,-34.0,-14.0,-245.0,0
2184,-39.0,-13.0,-248.0,0
2185,-38.0,-14.0,-244.0,0
2186,-39.0,-16.0,-246.0,0
2187,-40.0,-11.0,-248.0,0
2188,-39.0,-12.0,-244.0,0
2189,-38.0,-13.0,-240.0,0
2190,-38.0,-13.0,-248.0,0
2191,-36.0,-12.0,-245.0,0
2192,-34.0,-15.0,-245.0,0
2193,-39.0,-13.0,-245.0,0
2194,-37.0,-16.0,-246.0,0
2195,-39.0,-12.0,-241.0,0
2196,-37.0,-13.0,-249.0,0
2197,-36.0,-11.0,-245.0,0
2198,-36.0,-14.0,-243.0,0
2199,-30.0,-12.0,-247.0,0
2200,-35.0,-10.0,-248.0,0
2201,-37.0,-14.0,-245.0,0
2202,-38.0,-12.0,-248.0,0
2203,-38.0,-15.0,-250.0,0
2204,-38.0,-14.0,-242.0,0
2205,-39.0,-15.0,-241.0,0
2206,-36.0,-16.0,-247.0,0
2207,-35.0,-16.0,-247.0,0
2208,-38.0,-9.0,-246.0,0
2209,-35.0,-15.0,-249.0,0
2210,-34.0,-18.0,-243.0,0
2211,-35.0,-14.0,-243.0,0
2212,-37.0,-16.0,-243.0,0
2213,-37.0,-13.0,-248.0,0
2214,-35.0,-13.0,-245.0,0
2215,-37.0,-13.0,-245.0,0
2216,-37.0,-15.0,-242.0,0
2217,-34.0,-15.0,-245.0,0
2218,-40.0,-12.0,-249.0,0
2219,-39.0,-12.0,-248.0,0
2220,-36.0,-15.0,-243.0,0
2221,-35.0,-15.0,-248.0,0
2222,-38.0,-12.0,-247.0,0
2223,-38.0,-13.0,-248.0,0
2224,-35.0,-12.0,-246.0,0
2225,-36.0,-14.0,-247.0,0
2226,-39.0,-13.0,-245.0,0
2227,-37.0,-13.0,-244.0,0
2228,-39.0,-12.0,-248.0,0
2229,-37.0,-16.0,-247.0,0
2230,-34.0,-15.0,-246.0,0
2231,-38.0,-14.0,-243.0,0
2232,-41.0,-14.0,-246.0,0
2233,-36.0,-11.0,-246.0,0
2234,-38.0,-16.0,-240.0,0
2235,-35.0,-11.0,-245.0,0
2236,-37.0,-13.0,-245.0,0
2237,-36.0,-10.0,-243.0,0
2238,-39.0,-11.0,-248.0,0
2239,-37.0,-13.0,-244.0,0
2240,-36.0,-17.0,-244.0,0
2241,-40.0,-8.0,-247.0,0
2242,-38.0,-13.0,-250.0,0
2243,-34.0,-15.0,-248.0,0
2244,-38.0,-13.0,-246.0,0
2245,-39.0,-14.0,-242.0,0
2246,-37.0,-11.0,-247.0,0
2247,-36.0,-15.0,-246.0,0
2248,-37.0,-11.0,-246.0,0
2249,-38.0,-11.0,-248.0,0
2250,-40.0,-10.0,-243.0,0
2251,-38.0,-11.0,-246.0,0
2252,-40.0,-12.0,-243.0,0
2253,-39.0,-7.0,-241.0,0
2254,-38.0,-15.0,-243.0,0
2255,-37.0,-15.0,-246.0,0
2256,-36.0,-13.0,-250.0,0
2257,-37.0,-13.0,-248.0,0
2258,-36.0,-12.0,-244.0,0
2259,-37.0,-13.0,-245.0,0
2260,-38.0,-12.0,-245.0,0
2261,-41.0,-15.0,-246.0,0
2262,-37.0,-15.0,-245.0,0
2263,-32.0,-15.0,-247.0,0
2264,-37.0,-13.0,-253.0,0
2265,-35.0,-14.0,-249.0,0
2266,-38.0,-12.0,-244.0,0
2267,-36.0,-16.0,-246.0,0
2268,-37.0,-12.0,-248.0,0
2269,-39.0,-11.0,-243.0,0
2270,-37.0,-12.0,-241.0,0
2271,-36.0,-16.0,-249.0,0
2272,-36.0,-14.0,-248.0,0
2273,-36.0,-12.0,-248.0,0
2274,-41.0,-13.0,-245.0,0
2275,-38.0,-16.0,-249.0,0
2276,-39.0,-12.0,-243.0,0
2277,-38.0,-13.0,-243.0,0
2278,-36.0,-14.0,-248.0,0
2279,-37.0,-15.0,-245.0,0
2280,-36.0,-14.0,-245.0,0
2281,-37.0,-15.0,-247.0,0
2282,-33.0,-16.0,-246.0,0
2283,-37.0,-13.0,-249.0,0
2284,-39.0,-12.0,-238.0,0
2285,-41.0,-15.0,-246.0,0
2286,-36.0,-12.0,-247.0,0
2287,-38.0,-12.0,-244.0,0
2288,-37.0,-13.0,-246.0,0
2289,-37.0,-13.0,-248.0,0
2290,-39.0,-13.0,-244.0,0
2291,-38.0,-13.0,-245.0,0
2292,-39.0,-14.0,-247.0,0
2293,-38.0,-13.0,-240.0,0
2294,-39.0,-15.0,-242.0,0
2295,-39.0,-17.0,-245.0,0
2296,-45.0,-11.0,-247.0,0
2297,-37.0,-13.0,-248.0,0
2298,-38.0,-12.0,-252.0,0
2299,-39.0,-12.0,-244.0,0
2300,-37.0,-12.0,-245.0,0
2301,-37.0,-11.0,-247.0,0
2302,-38.0,-13.0,-245.0,0
2303,-40.0,-15.0,-244.0,0
2304,-39.0,-14.0,-248.0,0
2305,-35.0,-17.0,-247.0,0
2306,-40.0,-9.0,-247.0,0
2307,-35.0,-15.0,-244.0,0
2308,-37.0,-14.0,-242.0,0
2309,-37.0,-16.0,-245.0,0
2310,-35.0,-13.0,-247.0,0
2311,-35.0,-14.0,-252.0,0
2312,-38.0,-13.0,-248.0,0
2313,-38.0,-14.0,-245.0,0
2314,-36.0,-16.0,-245.0,0
2315,-35.0,-13.0,-246.0,0
2316,-39.0,-12.0,-244.0,0
2317,-40.0,-11.0,-252.0,0
2318,-37.0,-15.0,-241.0,0
2319,-38.0,-12.0,-245.0,0
2320,-39.0,-11.0,-246.0,0
2321,-38.0,-14.0,-247.0,0
2322,-39.0,-13.0,-248.0,0
2323,-38.0,-10.0,-245.0,0
2324,-38.0,-15.0,-241.0,0
2325,-39.0,-13.0,-245.0,0
2326,-39.0,-12.0,-239.0,0
2327,-39.0,-10.0,-243.0,0
2328,-38.0,-11.0,-248.0,0
2329,-38.0,-14.0,-245.0,0
2330,-41.0,-13.0,-243.0,0
2331,-39.0,-11.0,-247.0,0
2332,-36.0,-16.0,-246.0,0
2333,-36.0,-12.0,-245.0,0
2334,-31.0,-15.0,-241.0,0
2335,-38.0,-8.0,-250.0,0
2336,-39.0,-15.0,-242.0,0
2337,-36.0,-15.0,-248.0,0
2338,-42.0,-10.0,-245.0,0
2339,-36.0,-15.0,-247.0,0
2340,-36.0,-14.0,-247.0,0
2341,-37.0,-14.0,-246.0,0
2342,-40.0,-15.0,-245.0,0
2343,-38.0,-12.0,-246.0,0
2344,-36.0,-15.0,-244.0,0
2345,-40.0,-13.0,-248.0,0
2346,-37.0,-15.0,-243.0,0
2347,-36.0,-16.0,-248.0,0
2348,-40.0,-10.0,-247.0,0
2349,-43.0,-14.0,-249.0,0
2350,-35.0,-14.0,-249.0,0
2351,-39.0,-11.0,-246.0,0
2352,-38.0,-13.0,-246.0,0
2353,-37.0,-12.0,-247.0,0
2354,-35.0,-17.0,-247.0,0
2355,-35.0,-11.0,-246.0,0
2356,-39.0,-17.0,-241.0,0
2357,-35.0,-16.0,-244.0,0
2358,-33.0,-12.0,-243.0,0
2359,-36.0,-16.0,-246.0,0
2360,-30.0,-13.0,-249.0,0
2361,-39.0,-14.0,-246.0,0
2362,-39.0,-14.0,-245.0,0
2363,-39.0,-13.0,-247.0,0
2364,-41.0,-15.0,-244.0,0
2365,-39.0,-14.0,-248.0,0
2366,-40.0,-16.0,-240.0,0
2367,-36.0,-16.0,-245.0,0
2368,-39.0,-14.0,-242.0,0
2369,-41.0,-14.0,-245.0,0
2370,-36.0,-17.0,-243.0,0
2371,-39.0,-14.0,-240.0,0
2372,-36.0,-15.0,-245.0,0
2373,-36.0,-15.0,-249.0,0
2374,-37.0,-13.0,-244.0,0
2375,-37.0,-14.0,-246.0,0
2376,-39.0,-12.0,-249.0,0
2377,-38.0,-15.0,-247.0,0
2378,-39.0,-12.0,-245.0,0
2379,-40.0,-13.0,-248.0,0
2380,-35.0,-17.0,-246.0,0
2381,-36.0,-11.0,-247.0,0
2382,-38.0,-11.0,-246.0,0
2383,-37.0,-12.0,-247.0,0
2384,-37.0,-15.0,-244.0,0
2385,-37.0,-14.0,-247.0,0
2386,-36.0,-16.0,-243.0,0
2387,-36.0,-17.0,-245.0,0
2388,-33.0,-17.0,-244.0,0
2389,-34.0,-14.0,-245.0,0
2390,-37.0,-10.0,-244.0,0
2391,-36.0,-14.0,-246.0,0
2392,-39.0,-12.0,-247.0,0
2393,-37.0,-12.0,-245.0,0
2394,-38.0,-15.0,-246.0,0
2395,-40.0,-14.0,-244.0,0
2396,-38.0,-16.0,-246.0,0
2397,-37.0,-14.0,-248.0,0
2398,-36.0,-21.0,-246.0,0
2399,-37.0,-17.0,-245.0,0
2400,-38.0,-13.0,-242.0,0
2401,-37.0,-16.0,-244.0,0
2402,-32.0,-17.0,-241.0,0
2403,-39.0,-15.0,-251.0,0
2404,-38.0,-14.0,-247.0,0
2405,-37.0,-13.0,-244.0,0
2406,-33.0,-13.0,-246.0,0
2407,-36.0,-15.0,-247.0,0
2408,-35.0,-16.0,-249.0,0
2409,-33.0,-15.0,-243.0,0
2410,-42.0,-12.0,-246.0,0
2411,-34.0,-16.0,-243.0,0
2412,-41.0,-10.0,-247.0,0
2413,-37.0,-13.0,-246.0,0
2414,-37.0,-12.0,-246.0,0
2415,-41.0,-13.0,-247.0,0
2416,-36.0,-16.0,-249.0,0
2417,-35.0,-15.0,-245.0,0
2418,-37.0,-11.0,-248.0,0
2419,-37.0,-14.0,-246.0,0
2420,-36.0,-16.0,-243.0,0
2421,-34.0,-15.0,-246.0,0
2422,-35.0,-15.0,-242.0,0
2423,-41.0,-13.0,-248.0,0
2424,-37.0,-16.0,-246.0,0
2425,-38.0,-15.0,-247.0,0
2426,-38.0,-13.0,-248.0,0
2427,-36.0,-12.0,-246.0,0
2428,-37.0,-15.0,-243.0,0
2429,-36.0,-13.0,-245.0,0
2430,-33.0,-17.0,-245.0,0
2431,-40.0,-14.0,-246.0,0
2432,-34.0,-18.0,-249.0,0
2433,-37.0,-15.0,-252.0,0
2434,-33.0,-17.0,-245.0,0
2435,-37.0,-13.0,-248.0,0
2436,-39.0,-14.0,-247.0,0
2437,-37.0,-11.0,-246.0,0
2438,-41.0,-15.0,-249.0,0
2439,-38.0,-13.0,-250.0,0
2440,-37.0,-14.0,-245.0,0
2441,-35.0,-12.0,-243.0,0
2442,-34.0,-16.0,-246.0,0
2443,-37.0,-19.0,-248.0,0
2444,-34.0,-15.0,-243.0,0
2445,-33.0,-15.0,-243.0,0
2446,-36.0,-14.0,-249.0,0
2447,-37.0,-13.0,-243.0,0
2448,-37.0,-15.0,-244.0,0
2449,-38.0,-13.0,-242.0,0
2450,-36.0,-13.0,-244.0,0
2451,-37.0,-16.0,-247.0,0
2452,-39.0,-11.0,-244.0,0
2453,-34.0,-13.0,-245.0,0
2454,-37.0,-10.0,-248.0,0
2455,-37.0,-17.0,-241.0,0
2456,-34.0,-20.0,-238.0,0
2457,-39.0,-14.0,-247.0,0
2458,-40.0,-15.0,-243.0,0
2459,-39.0,-12.0,-246.0,0
2460,-37.0,-16.0,-241.0,0
2461,-41.0,-11.0,-246.0,0
2462,-35.0,-16.0,-245.0,0
2463,-34.0,-14.0,-244.0,0
2464,-34.0,-11.0,-247.0,0
2465,-39.0,-12.0,-243.0,0
2466,-41.0,-17.0,-242.0,0
2467,-37.0,-13.0,-246.0,0
2468,-38.0,-13.0,-248.0,0
2469,-37.0,-12.0,-249.0,0
2470,-41.0,-13.0,-246.0,0
2471,-40.0,-15.0,-243.0,0
2472,-39.0,-14.0,-245.0,0
2473,-33.0,-13.0,-249.0,0
2474,-34.0,-16.0,-244.0,0
2475,-39.0,-17.0,-246.0,0
2476,-41.0,-14.0,-247.0,0
2477,-37.0,-14.0,-243.0,0
2478,-39.0,-18.0,-246.0,0
2479,-35.0,-13.0,-245.0,0
2480,-39.0,-13.0,-247.0,0
2481,-39.0,-14.0,-247.0,0
2482,-35.0,-15.0,-245.0,0
2483,-38.0,-11.0,-246.0,0
2484,-34.0,-15.0,-247.0,0
2485,-33.0,-14.0,-244.0,0
2486,-39.0,-15.0,-243.0,0
2487,-38.0,-13.0,-242.0,0
2488,-39.0,-19.0,-244.0,0
2489,-38.0,-14.0,-248.0,0
2490,-38.0,-14.0,-246.0,0
2491,-35.0,-16.0,-247.0,0
2492,-37.0,-12.0,-244.0,0
2493,-38.0,-13.0,-247.0,0
2494,-39.0,-10.0,-251.0,0
2495,-40.0,-14.0,-247.0,0
2496,-38.0,-15.0,-249.0,0
2497,-33.0,-17.0,-245.0,0
2498,-39.0,-9.0,-243.0,0
2499,-37.0,-15.0,-246.0,0
2500,-35.0,-14.0,-245.0,0
2501,-37.0,-13.0,-244.0,0
2502,-38.0,-14.0,-245.0,0
2503,-36.0,-12.0,-245.0,0
2504,-38.0,-14.0,-243.0,0
2505,-35.0,-18.0,-248.0,0
2506,-37.0,-11.0,-244.0,0
2507,-35.0,-15.0,-246.0,0
2508,-34.0,-12.0,-248.0,0
2509,-42.0,-22.0,-252.0,0
2510,-39.0,-12.0,-244.0,0
2511,-36.0,-15.0,-245.0,0
2512,-40.0,-12.0,-242.0,0
2513,-37.0,-15.0,-247.0,0
2514,-38.0,-16.0,-248.0,0
2515,-38.0,-14.0,-244.0,0
2516,-33.0,-16.0,-243.0,0
2517,-34.0,-16.0,-245.0,0
2518,-37.0,-14.0,-249.0,0
2519,-31.0,-16.0,-241.0,0
2520,-30.0,-19.0,-250.0,0
2521,-39.0,-12.0,-249.0,0
2522,-37.0,-12.0,-244.0,0
2523,-40.0,-14.0,-248.0,0
2524,-35.0,-15.0,-245.0,0
2525,-39.0,-15.0,-252.0,0
2526,-39.0,-9.0,-249.0,0
2527,-40.0,-15.0,-249.0,0
2528,-40.0,-14.0,-247.0,0
2529,-38.0,-12.0,-247.0,0
2530,-45.0,-11.0,-251.0,0
2531,-37.0,-12.0,-245.0,0
2532,-40.0,-12.0,-246.0,0
2533,-37.0,-12.0,-245.0,0
2534,-36.0,-14.0,-245.0,0
2535,-39.0,-11.0,-249.0,0
2536,-37.0,-15.0,-246.0,0
2537,-36.0,-15.0,-248.0,0
2538,-40.0,-14.0,-251.0,0
2539,-40.0,-10.0,-248.0,0
2540,-37.0,-14.0,-243.0,0
2541,-38.0,-10.0,-238.0,0
2542,-39.0,-15.0,-245.0,0
2543,-37.0,-19.0,-246.0,0
2544,-37.0,-16.0,-240.0,0
2545,-36.0,-14.0,-244.0,0
2546,-39.0,-18.0,-243.0,0
2547,-39.0,-13.0,-245.0,0
2548,-38.0,-13.0,-243.0,0
2549,-38.0,-11.0,-245.0,0
2550,-35.0,-17.0,-247.0,0
2551,-40.0,-10.0,-250.0,0
2552,-39.0,-13.0,-250.0,0
2553,-39.0,-15.0,-248.0,0
2554,-39.0,-12.0,-246.0,0
2555,-38.0,-14.0,-245.0,0
2556,-40.0,-10.0,-246.0,0
2557,-37.0,-15.0,-245.0,0
2558,-38.0,-13.0,-248.0,0
2559,-36.0,-16.0,-250.0,0
2560,-40.0,-17.0,-243.0,0
2561,-38.0,-14.0,-241.0,0
2562,-39.0,-10.0,-248.0,0
2563,-36.0,-17.0,-243.0,0
2564,-37.0,-15.0,-243.0,0
2565,-38.0,-12.0,-247.0,0
2566,-36.0,-13.0,-247.0,0
2567,-36.0,-18.0,-245.0,0
2568,-35.0,-13.0,-245.0,0
2569,-40.0,-12.0,-246.0,0
2570,-34.0,-17.0,-244.0,0
2571,-39.0,-13.0,-241.0,0
2572,-36.0,-15.0,-247.0,0
2573,-41.0,-16.0,-251.0,0
2574,-34.0,-16.0,-243.0,0
2575,-36.0,-16.0,-247.0,0
2576,-37.0,-17.0,-250.0,0
2577,-37.0,-14.0,-246.0,0
2578,-34.0,-18.0,-245.0,0
2579,-37.0,-12.0,-246.0,0
2580,-39.0,-17.0,-246.0,0
2581,-39.0,-12.0,-246.0,0
2582,-39.0,-14.0,-246.0,0
2583,-36.0,-17.0,-250.0,0
2584,-39.0,-14.0,-248.0,0
2585,-37.0,-17.0,-245.0,0
2586,-38.0,-14.0,-247.0,0
2587,-35.0,-16.0,-244.0,0
2588,-36.0,-14.0,-244.0,0
2589,-39.0,-14.0,-244.0,0
2590,-39.0,-13.0,-246.0,0
2591,-38.0,-11.0,-246.0,0
2592,-36.0,-15.0,-244.0,0
2593,-38.0,-17.0,-248.0,0
2594,-38.0,-15.0,-249.0,0
2595,-33.0,-13.0,-247.0,0
2596,-41.0,-12.0,-250.0,0
2597,-39.0,-13.0,-247.0,0
2598,-37.0,-13.0,-247.0,0
2599,-37.0,-13.0,-243.0,0
2600,-39.0,-12.0,-245.0,0
2601,-35.0,-14.0,-242.0,0
2602,-39.0,-14.0,-244.0,0
2603,-38.0,-14.0,-248.0,0
2604,-40.0,-14.0,-246.0,0
2605,-37.0,-19.0,-240.0,0
2606,-37.0,-14.0,-243.0,0
2607,-38.0,-13.0,-244.0,0
2608,-37.0,-16.0,-242.0,0
2609,-37.0,-13.0,-245.0,0
2610,-40.0,-14.0,-245.0,0
2611,-37.0,-14.0,-244.0,0
2612,-36.0,-17.0,-248.0,0
2613,-39.0,-13.0,-242.0,0
2614,-38.0,-12.0,-242.0,0
2615,-38.0,-16.0,-244.0,0
2616,-33.0,-17.0,-243.0,0
2617,-36.0,-15.0,-244.0,0
2618,-38.0,-14.0,-243.0,0
2619,-34.0,-14.0,-247.0,0
2620,-39.0,-12.0,-245.0,0
2621,-38.0,-12.0,-245.0,0
2622,-37.0,-16.0,-245.0,0
2623,-42.0,-13.0,-242.0,0
2624,-37.0,-16.0,-244.0,0
2625,-36.0,-16.0,-249.0,0
2626,-36.0,-14.0,-244.0,0
2627,-35.0,-15.0,-247.0,0
2628,-36.0,-15.0,-247.0,0
2629,-36.0,-18.0,-248.0,0
2630,-41.0,-15.0,-247.0,0
2631,-36.0,-13.0,-247.0,0
2632,-34.0,-13.0,-244.0,0
2633,-35.0,-16.0,-244.0,0
2634,-39.0,-10.0,-246.0,0
2635,-39.0,-15.0,-242.0,0
2636,-39.0,-9.0,-252.0,0
2637,-39.0,-15.0,-246.0,0
2638,-37.0,-12.0,-247.0,0
2639,-39.0,-13.0,-246.0,0
2640,-38.0,-12.0,-244.0,0
2641,-38.0,-15.0,-245.0,0
2642,-38.0,-14.0,-249.0,0
2643,-39.0,-16.0,-245.0,0
2644,-35.0,-19.0,-245.0,0
2645,-34.0,-12.0,-245.0,0
2646,-38.0,-12.0,-245.0,0
2647,-41.0,-14.0,-249.0,0
2648,-42.0,-13.0,-250.0,0
2649,-35.0,-13.0,-244.0,0
2650,-36.0,-13.0,-249.0,0
2651,-40.0,-16.0,-249.0,0
2652,-38.0,-15.0,-248.0,0
2653,-36.0,-12.0,-247.0,0
2654,-38.0,-15.0,-244.0,0
2655,-36.0,-18.0,-247.0,0
2656,-35.0,-18.0,-245.0,0
2657,-34.0,-14.0,-245.0,0
2658,-36.0,-15.0,-247.0,0
2659,-43.0,-10.0,-247.0,0
2660,-39.0,-11.0,-244.0,0
2661,-39.0,-15.0,-246.0,0
2662,-36.0,-13.0,-247.0,0
2663,-39.0,-12.0,-248.0,0
2664,-37.0,-13.0,-246.0,0
2665,-37.0,-15.0,-243.0,0
2666,-39.0,-16.0,-242.0,0
2667,-36.0,-13.0,-247.0,0
2668,-38.0,-14.0,-243.0,0
2669,-38.0,-13.0,-250.0,0
2670,-39.0,-16.0,-245.0,0
2671,-37.0,-15.0,-248.0,0
2672,-38.0,-11.0,-246.0,0
2673,-40.0,-11.0,-249.0,0
2674,-38.0,-17.0,-247.0,0
2675,-36.0,-14.0,-246.0,0
2676,-42.0,-12.0,-247.0,0
2677,-38.0,-16.0,-246.0,0
2678,-40.0,-13.0,-247.0,0
2679,-36.0,-15.0,-245.0,0
2680,-36.0,-18.0,-239.0,0
2681,-40.0,-12.0,-244.0,0
2682,-36.0,-15.0,-244.0,0
2683,-40.0,-12.0,-247.0,0
2684,-38.0,-15.0,-245.0,0
2685,-40.0,-15.0,-247.0,0
2686,-37.0,-13.0,-246.0,0
2687,-35.0,-13.0,-241.0,0
2688,-38.0,-14.0,-239.0,0
2689,-35.0,-15.0,-245.0,0
2690,-38.0,-13.0,-242.0,0
2691,-31.0,-9.0,-251.0,0
2692,-38.0,-15.0,-247.0,0
2693,-37.0,-15.0,-247.0,0
2694,-36.0,-16.0,-246.0,0
2695,-38.0,-14.0,-248.0,0
2696,-40.0,-15.0,-245.0,0
2697,-37.0,-15.0,-243.0,0
2698,-39.0,-14.0,-245.0,0
2699,-40.0,-15.0,-245.0,0
2700,-38.0,-19.0,-245.0,0
2701,-35.0,-19.0,-252.0,0
2702,-39.0,-15.0,-247.0,0
2703,-39.0,-14.0,-248.0,0
2704,-36.0,-13.0,-245.0,0
2705,-36.0,-16.0,-246.0,0
2706,-36.0,-13.0,-247.0,0
2707,-37.0,-14.0,-248.0,0
2708,-36.0,-11.0,-248.0,0
2709,-40.0,-17.0,-245.0,0
2710,-33.0,-20.0,-245.0,0
2711,-39.0,-12.0,-244.0,0
2712,-37.0,-14.0,-248.0,0
2713,-34.0,-13.0,-244.0,0
2714,-37.0,-14.0,-245.0,0
2715,-40.0,-15.0,-246.0,0
2716,-38.0,-15.0,-243.0,0
2717,-40.0,-14.0,-247.0,0
2718,-38.0,-15.0,-246.0,0
2719,-39.0,-12.0,-249.0,0
2720,-39.0,-15.0,-248.0,0
2721,-39.0,-13.0,-247.0,0
2722,-41.0,-16.0,-249.0,0
2723,-42.0,-17.0,-243.0,0
2724,-39.0,-11.0,-246.0,0
2725,-40.0,-13.0,-247.0,0
2726,-37.0,-15.0,-246.0,0
2727,-36.0,-15.0,-246.0,0
2728,-37.0,-13.0,-248.0,0
2729,-39.0,-10.0,-247.0,0
2730,-37.0,-14.0,-242.0,0
2731,-39.0,-16.0,-248.0,0
2732,-36.0,-13.0,-247.0,0
2733,-36.0,-14.0,-246.0,0
2734,-38.0,-14.0,-247.0,0
2735,-37.0,-15.0,-249.0,0
2736,-39.0,-12.0,-246.0,0
2737,-40.0,-14.0,-246.0,0
2738,-36.0,-16.0,-246.0,0
2739,-41.0,-14.0,-244.0,0
2740,-37.0,-15.0,-248.0,0
2741,-38.0,-15.0,-247.0,0
2742,-42.0,-14.0,-244.0,0
2743,-41.0,-14.0,-245.0,0
2744,-35.0,-15.0,-239.0,0
2745,-40.0,-14.0,-246.0,0
2746,-37.0,-15.0,-244.0,0
2747,-38.0,-14.0,-244.0,0
2748,-38.0,-18.0,-246.0,0
2749,-35.0,-15.0,-248.0,0
2750,-36.0,-15.0,-243.0,0
2751,-35.0,-15.0,-245.0,0
2752,-41.0,-13.0,-244.0,0
2753,-37.0,-12.0,-245.0,0
2754,-39.0,-13.0,-248.0,0
2755,-39.0,-18.0,-244.0,0
2756,-39.0,-13.0,-248.0,0
2757,-39.0,-13.0,-242.0,0
2758,-39.0,-11.0,-241.0,0
2759,-38.0,-17.0,-248.0,0
2760,-36.0,-13.0,-246.0,0
2761,-39.0,-14.0,-245.0,0
2762,-36.0,-15.0,-246.0,0
2763,-39.0,-15.0,-245.0,0
2764,-39.0,-13.0,-248.0,0
2765,-37.0,-12.0,-252.0,0
2766,-41.0,-10.0,-248.0,0
2767,-38.0,-16.0,-249.0,0
2768,-36.0,-15.0,-245.0,0
2769,-40.0,-14.0,-244.0,0
2770,-39.0,-16.0,-246.0,0
2771,-38.0,-16.0,-246.0,0
2772,-40.0,-13.0,-246.0,0
2773,-39.0,-12.0,-250.0,0
2774,-35.0,-20.0,-242.0,0
2775,-38.0,-15.0,-248.0,0
2776,-41.0,-17.0,-247.0,0
2777,-40.0,-11.0,-244.0,0
2778,-39.0,-13.0,-247.0,0
2779,-38.0,-16.0,-242.0,0
2780,-35.0,-13.0,-246.0,0
2781,-38.0,-16.0,-240.0,0
2782,-37.0,-16.0,-245.0,0
2783,-37.0,-15.0,-244.0,0
2784,-36.0,-16.0,-248.0,0
2785,-38.0,-16.0,-244.0,0
2786,-34.0,-19.0,-246.0,0
2787,-38.0,-16.0,-246.0,0
2788,-34.0,-16.0,-247.0,0
2789,-36.0,-16.0,-242.0,0
2790,-37.0,-12.0,-240.0,0
2791,-39.0,-12.0,-245.0,0
2792,-40.0,-12.0,-245.0,0
2793,-36.0,-14.0,-246.0,0
2794,-36.0,-18.0,-245.0,0
2795,-38.0,-12.0,-241.0,0
2796,-32.0,-17.0,-241.0,0
2797,-33.0,-15.0,-242.0,0
2798,-37.0,-14.0,-240.0,0
2799,-37.0,-14.0,-245.0,0
2800,-37.0,-13.0,-243.0,0
2801,-37.0,-14.0,-246.0,0
2802,-38.0,-16.0,-248.0,0
2803,-38.0,-15.0,-248.0,0
2804,-38.0,-12.0,-249.0,0
2805,-39.0,-11.0,-245.0,0
2806,-39.0,-13.0,-250.0,0
2807,-43.0,-10.0,-249.0,0
2808,-37.0,-16.0,-245.0,0
2809,-39.0,-13.0,-242.0,0
2810,-39.0,-15.0,-242.0,0
2811,-34.0,-17.0,-246.0,0
2812,-38.0,-14.0,-244.0,0
2813,-38.0,-14.0,-249.0,0
2814,-35.0,-17.0,-244.0,0
2815,-36.0,-18.0,-249.0,0
2816,-39.0,-16.0,-245.0,0
2817,-42.0,-14.0,-246.0,0
2818,-36.0,-19.0,-245.0,0
2819,-44.0,-16.0,-241.0,0
2820,-38.0,-12.0,-244.0,0
2821,-36.0,-12.0,-247.0,0
2822,-37.0,-15.0,-245.0,0
2823,-38.0,-14.0,-244.0,0
2824,-33.0,-16.0,-242.0,0
2825,-39.0,-13.0,-246.0,0
2826,-38.0,-14.0,-252.0,0
2827,-36.0,-19.0,-244.0,0
2828,-38.0,-11.0,-250.0,0
2829,-38.0,-17.0,-245.0,0
2830,-33.0,-18.0,-251.0,0
2831,-37.0,-13.0,-244.0,0
2832,-38.0,-11.0,-245.0,0
2833,-37.0,-14.0,-246.0,0
2834,-38.0,-12.0,-242.0,0
2835,-39.0,-12.0,-244.0,0
2836,-39.0,-12.0,-246.0,0
2837,-38.0,-13.0,-239.0,0
2838,-35.0,-15.0,-240.0,0
2839,-39.0,-11.0,-240.0,0
2840,-40.0,-10.0,-239.0,0
2841,-36.0,-15.0,-248.0,0
2842,-36.0,-14.0,-244.0,0
2843,-38.0,-15.0,-243.0,0
2844,-37.0,-16.0,-244.0,0
2845,-35.0,-17.0,-243.0,0
2846,-38.0,-12.0,-247.0,0
2847,-38.0,-16.0,-250.0,0
2848,-41.0,-13.0,-243.0,0
2849,-38.0,-11.0,-236.0,0
2850,-36.0,-16.0,-243.0,0
2851,-41.0,-8.0,-247.0,0
2852,-35.0,-15.0,-247.0,0
2853,-40.0,-15.0,-245.0,0
2854,-36.0,-16.0,-245.0,0
2855,-39.0,-8.0,-247.0,0
2856,-35.0,-15.0,-246.0,0
2857,-36.0,-15.0,-244.0,0
2858,-37.0,-14.0,-246.0,0
2859,-40.0,-12.0,-247.0,0
2860,-36.0,-17.0,-246.0,0
2861,-40.0,-14.0,-247.0,0
2862,-35.0,-10.0,-249.0,0
2863,-39.0,-15.0,-245.0,0
2864,-39.0,-14.0,-244.0,0
2865,-36.0,-15.0,-246.0,0
2866,-36.0,-15.0,-246.0,0
2867,-40.0,-13.0,-246.0,0
2868,-41.0,-12.0,-251.0,0
2869,-37.0,-14.0,-244.0,0
2870,-36.0,-17.0,-247.0,0
2871,-37.0,-15.0,-250.0,0
2872,-43.0,-18.0,-245.0,0
2873,-39.0,-14.0,-251.0,0
2874,-36.0,-15.0,-244.0,0
2875,-37.0,-14.0,-247.0,0
2876,-38.0,-14.0,-246.0,0
2877,-38.0,-13.0,-242.0,0
2878,-39.0,-16.0,-245.0,0
2879,-40.0,-13.0,-249.0,0
2880,-35.0,-13.0,-247.0,0
2881,-37.0,-13.0,-242.0,0
2882,-40.0,-11.0,-245.0,0
2883,-39.0,-15.0,-246.0,0
2884,-38.0,-12.0,-243.0,0
2885,-40.0,-13.0,-243.0,0
2886,-37.0,-14.0,-246.0,0
2887,-36.0,-14.0,-249.0,0
2888,-39.0,-15.0,-248.0,0
2889,-35.0,-16.0,-244.0,0
2890,-40.0,-14.0,-247.0,0
2891,-39.0,-13.0,-248.0,0
2892,-39.0,-13.0,-247.0,0
2893,-40.0,-15.0,-246.0,0
2894,-35.0,-15.0,-242.0,0
2895,-38.0,-15.0,-245.0,0
2896,-39.0,-12.0,-246.0,0
2897,-37.0,-16.0,-247.0,0
2898,-36.0,-15.0,-247.0,0
2899,-38.0,-12.0,-246.0,0
2900,-35.0,-17.0,-246.0,0
2901,-37.0,-14.0,-244.0,0
2902,-43.0,-8.0,-247.0,0
2903,-38.0,-18.0,-242.0,0
2904,-25.0,-13.0,-246.0,0
2905,-36.0,-11.0,-246.0,0
2906,-38.0,-13.0,-246.0,0
2907,-38.0,-13.0,-247.0,0
2908,-37.0,-14.0,-247.0,0
2909,-39.0,-11.0,-249.0,0
2910,-39.0,-15.0,-246.0,0
2911,-38.0,-14.0,-247.0,0
2912,-35.0,-14.0,-246.0,0
2913,-32.0,-17.0,-241.0,0
2914,-37.0,-14.0,-248.0,0
2915,-39.0,-19.0,-246.0,0
2916,-38.0,-12.0,-242.0,0
2917,-38.0,-15.0,-244.0,0
2918,-37.0,-12.0,-243.0,0
2919,-38.0,-12.0,-246.0,0
2920,-35.0,-13.0,-248.0,0
2921,-35.0,-14.0,-245.0,0
2922,-38.0,-9.0,-248.0,0
2923,-38.0,-12.0,-251.0,0
2924,-36.0,-15.0,-246.0,0
2925,-38.0,-13.0,-246.0,0
2926,-38.0,-17.0,-247.0,0
2927,-39.0,-14.0,-240.0,0
2928,-38.0,-15.0,-249.0,0
2929,-40.0,-12.0,-246.0,0
2930,-38.0,-14.0,-247.0,0
2931,-36.0,-15.0,-249.0,0
2932,-39.0,-17.0,-248.0,0
2933,-36.0,-17.0,-247.0,0
2934,-36.0,-18.0,-243.0,0
2935,-39.0,-14.0,-246.0,0
2936,-43.0,-12.0,-247.0,0
2937,-35.0,-15.0,-245.0,0
2938,-34.0,-14.0,-246.0,0
2939,-38.0,-15.0,-243.0,0
2940,-38.0,-12.0,-251.0,0
2941,-37.0,-13.0,-247.0,0
2942,-42.0,-14.0,-243.0,0
2943,-36.0,-13.0,-246.0,0
2944,-39.0,-14.0,-247.0,0
2945,-40.0,-8.0,-247.0,0
2946,-40.0,-13.0,-243.0,0
2947,-39.0,-17.0,-250.0,0
2948,-36.0,-13.0,-244.0,0
2949,-40.0,-13.0,-245.0,0
2950,-38.0,-12.0,-245.0,0
2951,-37.0,-13.0,-246.0,0
2952,-38.0,-12.0,-248.0,0
2953,-36.0,-13.0,-249.0,0
2954,-35.0,-12.0,-244.0,0
2955,-36.0,-11.0,-245.0,0
2956,-36.0,-13.0,-243.0,0
2957,-37.0,-13.0,-249.0,0
2958,-38.0,-14.0,-245.0,0
2959,-38.0,-13.0,-245.0,0
2960,-38.0,-11.0,-243.0,0
2961,-36.0,-12.0,-245.0,0
2962,-36.0,-15.0,-241.0,0
2963,-35.0,-14.0,-245.0,0
2964,-38.0,-14.0,-251.0,0
2965,-37.0,-13.0,-246.0,0
2966,-38.0,-17.0,-242.0,0
2967,-36.0,-13.0,-242.0,0
2968,-40.0,-9.0,-243.0,0
2969,-38.0,-11.0,-244.0,0
2970,-37.0,-13.0,-244.0,0
2971,-36.0,-16.0,-246.0,0
2972,-36.0,-13.0,-249.0,0
2973,-39.0,-13.0,-247.0,0
2974,-37.0,-18.0,-246.0,0
2975,-39.0,-13.0,-244.0,0
2976,-41.0,-12.0,-246.0,0
2977,-36.0,-15.0,-245.0,0
2978,-40.0,-12.0,-242.0,0
2979,-46.0,-13.0,-249.0,0
2980,-36.0,-15.0,-245.0,0
2981,-37.0,-11.0,-245.0,0
2982,-40.0,-13.0,-244.0,0
2983,-39.0,-13.0,-245.0,0
2984,-38.0,-12.0,-246.0,0
2985,-40.0,-11.0,-244.0,0
2986,-38.0,-10.0,-243.0,0
2987,-37.0,-11.0,-242.0,0
2988,-36.0,-15.0,-245.0,0
2989,-38.0,-12.0,-242.0,0
2990,-39.0,-14.0,-246.0,0
2991,-38.0,-11.0,-248.0,0
2992,-37.0,-12.0,-243.0,0
2993,-39.0,-11.0,-246.0,0
2994,-40.0,-15.0,-246.0,0
2995,-36.0,-14.0,-248.0,0
2996,-36.0,-11.0,-247.0,0
2997,-33.0,-16.0,-241.0,0
2998,-39.0,-13.0,-249.0,0
