,accelerometer_x,accelerometer_y,accelerometer_z,fall
0,-8.0,-257.0,6.0,0
1,-8.0,-258.0,0.0,0
2,-8.0,-256.0,4.0,0
3,-8.0,-254.0,4.0,0
4,-7.0,-256.0,7.0,0
5,-13.0,-263.0,2.0,0
6,-9.0,-254.0,4.0,0
7,-8.0,-257.0,6.0,0
8,-7.0,-256.0,3.0,0
9,-8.0,-255.0,5.0,0
10,-9.0,-255.0,4.0,0
11,-8.0,-256.0,4.0,0
12,-9.0,-256.0,3.0,0
13,-7.0,-254.0,4.0,0
14,-6.0,-258.0,5.0,0
15,-7.0,-256.0,4.0,0
16,-6.0,-258.0,4.0,0
17,-3.0,-257.0,3.0,0
18,-7.0,-257.0,2.0,0
19,-8.0,-254.0,3.0,0
20,-6.0,-257.0,8.0,0
21,-5.0,-258.0,3.0,0
22,-12.0,-254.0,1.0,0
23,-9.0,-255.0,3.0,0
24,-9.0,-254.0,-1.0,0
25,-11.0,-257.0,10.0,0
26,-8.0,-256.0,2.0,0
27,-8.0,-260.0,1.0,0
28,-9.0,-257.0,2.0,0
29,-8.0,-256.0,0.0,0
30,-8.0,-257.0,2.0,0
31,-9.0,-256.0,3.0,0
32,-7.0,-257.0,-1.0,0
33,-6.0,-259.0,1.0,0
34,-9.0,-253.0,-1.0,0
35,-9.0,-253.0,0.0,0
36,-7.0,-254.0,2.0,0
37,-11.0,-256.0,1.0,0
38,-7.0,-256.0,5.0,0
39,-6.0,-258.0,4.0,0
40,-7.0,-257.0,2.0,0
41,-9.0,-254.0,4.0,0
42,-8.0,-254.0,3.0,0
43,-10.0,-256.0,3.0,0
44,-7.0,-256.0,0.0,0
45,-8.0,-257.0,2.0,0
46,-9.0,-253.0,3.0,0
47,-4.0,-256.0,3.0,0
48,3.0,-249.0,6.0,0
49,-25.0,-256.0,-5.0,0
50,-11.0,-256.0,25.0,0
51,-7.0,-262.0,-3.0,0
52,-7.0,-254.0,10.0,0
53,-9.0,-260.0,-11.0,0
54,2.0,-256.0,-3.0,0
55,3.0,-264.0,5.0,0
56,-8.0,-259.0,-1.0,0
57,-3.0,-253.0,-5.0,0
58,2.0,-254.0,8.0,0
59,-7.0,-254.0,0.0,0
60,-5.0,-257.0,3.0,0
61,-7.0,-254.0,4.0,0
62,-5.0,-254.0,-2.0,0
63,-7.0,-268.0,-6.0,0
64,-27.0,-257.0,28.0,0
65,8.0,-248.0,-9.0,0
66,11.0,-242.0,-11.0,0
67,-12.0,-266.0,6.0,0
68,0.0,-259.0,-6.0,0
69,-8.0,-256.0,14.0,0
70,0.0,-266.0,20.0,0
71,-6.0,-260.0,-1.0,0
72,-6.0,-259.0,-4.0,0
73,-14.0,-254.0,0.0,0
74,-8.0,-254.0,0.0,0
75,-9.0,-254.0,0.0,0
76,-10.0,-255.0,2.0,0
77,-8.0,-255.0,1.0,0
78,-4.0,-259.0,7.0,0
79,-8.0,-261.0,-6.0,0
80,-15.0,-262.0,12.0,0
81,-11.0,-250.0,-4.0,0
82,4.0,-272.0,2.0,0
83,-7.0,-265.0,-1.0,0
84,-9.0,-258.0,4.0,0
85,-7.0,-261.0,-2.0,0
86,-8.0,-267.0,4.0,0
87,-10.0,-250.0,22.0,0
88,-3.0,-250.0,16.0,0
89,-3.0,-258.0,-2.0,0
90,-5.0,-258.0,-2.0,0
91,-8.0,-256.0,0.0,0
92,-8.0,-258.0,-3.0,0
93,-5.0,-257.0,-4.0,0
94,-7.0,-257.0,-2.0,0
95,-7.0,-259.0,-9.0,0
96,-11.0,-257.0,-4.0,0
97,-2.0,-263.0,-3.0,0
98,-9.0,-258.0,-4.0,0
99,2.0,-272.0,21.0,0
100,-3.0,-256.0,-5.0,0
101,-5.0,-257.0,-5.0,0
102,-9.0,-258.0,-2.0,0
103,-6.0,-255.0,0.0,0
104,-3.0,-261.0,-1.0,0
105,-9.0,-253.0,-2.0,0
106,-3.0,-261.0,-6.0,0
107,-7.0,-258.0,-4.0,0
108,-3.0,-257.0,6.0,0
109,-5.0,-267.0,-14.0,0
110,-8.0,-251.0,0.0,0
111,-5.0,-252.0,-2.0,0
112,-5.0,-263.0,-3.0,0
113,-5.0,-257.0,-7.0,0
114,-2.0,-258.0,-12.0,0
115,-10.0,-253.0,0.0,0
116,-1.0,-253.0,-4.0,0
117,-4.0,-251.0,-13.0,0
118,-7.0,-258.0,-1.0,0
119,-3.0,-254.0,-1.0,0
120,-5.0,-258.0,-5.0,0
121,-7.0,-256.0,-2.0,0
122,-7.0,-257.0,-4.0,0
123,-7.0,-257.0,-8.0,0
124,-1.0,-252.0,-8.0,0
125,-5.0,-262.0,0.0,0
126,-6.0,-255.0,-12.0,0
127,-5.0,-258.0,5.0,0
128,-3.0,-267.0,-3.0,0
129,0.0,-254.0,3.0,0
130,-13.0,-254.0,-9.0,0
131,-14.0,-260.0,-2.0,0
132,-3.0,-258.0,-3.0,0
133,-4.0,-255.0,-2.0,0
134,-7.0,-249.0,-16.0,0
135,-3.0,-255.0,-7.0,0
136,-7.0,-252.0,-7.0,0
137,-5.0,-252.0,-5.0,0
138,-6.0,-257.0,-6.0,0
139,1.0,-246.0,-2.0,0
140,-6.0,-259.0,-2.0,0
141,-4.0,-260.0,-10.0,0
142,-6.0,-256.0,-7.0,0
143,-15.0,-268.0,-13.0,0
144,-8.0,-256.0,-5.0,0
145,-6.0,-254.0,-5.0,0
146,-7.0,-255.0,-7.0,0
147,-5.0,-256.0,-4.0,0
148,-6.0,-252.0,-8.0,0
149,-4.0,-255.0,-6.0,0
150,-3.0,-255.0,-4.0,0
151,-3.0,-254.0,-7.0,0
152,-5.0,-252.0,-2.0,0
153,-4.0,-253.0,-6.0,0
154,-5.0,-257.0,-5.0,0
155,-6.0,-256.0,-6.0,0
156,-2.0,-253.0,-7.0,0
157,-2.0,-254.0,-8.0,0
158,-5.0,-256.0,-5.0,0
159,-2.0,-258.0,-6.0,0
160,-7.0,-256.0,-9.0,0
161,-5.0,-257.0,-9.0,0
162,-8.0,-260.0,-12.0,0
163,-5.0,-257.0,-7.0,0
164,-6.0,-256.0,-6.0,0
165,-5.0,-258.0,-5.0,0
166,-8.0,-258.0,-8.0,0
167,-3.0,-255.0,-8.0,0
168,-5.0,-257.0,-9.0,0
169,-9.0,-253.0,-7.0,0
170,-8.0,-255.0,-8.0,0
171,-9.0,-258.0,-8.0,0
172,-9.0,-254.0,-10.0,0
173,-8.0,-256.0,-10.0,0
174,-8.0,-258.0,-4.0,0
175,-5.0,-257.0,-8.0,0
176,-6.0,-256.0,-10.0,0
177,-6.0,-257.0,-12.0,0
178,-4.0,-262.0,-11.0,0
179,-5.0,-256.0,-12.0,0
180,-4.0,-254.0,-10.0,0
181,-6.0,-258.0,-12.0,0
182,-7.0,-255.0,-7.0,0
183,-4.0,-256.0,-8.0,0
184,-6.0,-256.0,-9.0,0
185,-7.0,-256.0,-13.0,0
186,-7.0,-253.0,-6.0,0
187,-1.0,-256.0,-7.0,0
188,-6.0,-253.0,-6.0,0
189,-8.0,-254.0,-7.0,0
190,-3.0,-256.0,-10.0,0
191,-6.0,-257.0,-8.0,0
192,-6.0,-256.0,-9.0,0
193,-5.0,-258.0,-12.0,0
194,-6.0,-257.0,-10.0,0
195,-6.0,-256.0,-11.0,0
196,-5.0,-259.0,-9.0,0
197,-3.0,-257.0,-11.0,0
198,-6.0,-258.0,-12.0,0
199,-6.0,-257.0,-9.0,0
200,-13.0,-259.0,-8.0,0
201,-4.0,-255.0,-9.0,0
202,-5.0,-256.0,-8.0,0
203,-8.0,-257.0,-10.0,0
204,-4.0,-256.0,-8.0,0
205,-3.0,-257.0,-11.0,0
206,-5.0,-255.0,-8.0,0
207,-8.0,-255.0,-9.0,0
208,-5.0,-259.0,-5.0,0
209,-3.0,-254.0,-8.0,0
210,-4.0,-254.0,-8.0,0
211,-6.0,-259.0,-9.0,0
212,-5.0,-255.0,-8.0,0
213,-5.0,-257.0,-6.0,0
214,-3.0,-256.0,-8.0,0
215,-3.0,-257.0,-5.0,0
216,-3.0,-257.0,-4.0,0
217,-6.0,-256.0,-6.0,0
218,-5.0,-254.0,-7.0,0
219,-2.0,-256.0,-9.0,0
220,-6.0,-255.0,-8.0,0
221,-2.0,-257.0,-8.0,0
222,-4.0,-257.0,-4.0,0
223,-7.0,-255.0,-7.0,0
224,-6.0,-253.0,-9.0,0
225,-4.0,-257.0,-7.0,0
226,-5.0,-256.0,-5.0,0
227,-5.0,-256.0,-8.0,0
228,-3.0,-255.0,-5.0,0
229,-3.0,-257.0,-5.0,0
230,-6.0,-251.0,-7.0,0
231,-6.0,-257.0,-1.0,0
232,-5.0,-257.0,-5.0,0
233,-2.0,-257.0,-4.0,0
234,-6.0,-258.0,-9.0,0
235,-6.0,-255.0,-5.0,0
236,-3.0,-256.0,-5.0,0
237,-7.0,-256.0,-7.0,0
238,-5.0,-253.0,-6.0,0
239,-7.0,-256.0,-3.0,0
240,-6.0,-257.0,-6.0,0
241,-3.0,-258.0,-4.0,0
242,-5.0,-254.0,-7.0,0
243,-4.0,-256.0,-6.0,0
244,-6.0,-250.0,-10.0,0
245,-7.0,-256.0,-2.0,0
246,-3.0,-257.0,-4.0,0
247,-6.0,-261.0,-3.0,0
248,-7.0,-257.0,-2.0,0
249,-8.0,-255.0,-5.0,0
250,-9.0,-255.0,-4.0,0
251,-6.0,-258.0,-4.0,0
252,-4.0,-258.0,-4.0,0
253,-6.0,-255.0,-2.0,0
254,-5.0,-256.0,-3.0,0
255,-6.0,-258.0,-6.0,0
256,-7.0,-258.0,-6.0,0
257,-9.0,-253.0,-3.0,0
258,-7.0,-259.0,-5.0,0
259,-7.0,-255.0,-5.0,0
260,-5.0,-257.0,-7.0,0
261,-2.0,-259.0,-7.0,0
262,-5.0,-257.0,-5.0,0
263,-1.0,-260.0,-7.0,0
264,-4.0,-259.0,-1.0,0
265,-5.0,-257.0,-8.0,0
266,-2.0,-258.0,-5.0,0
267,-3.0,-254.0,-4.0,0
268,-6.0,-258.0,-4.0,0
269,-4.0,-256.0,-2.0,0
270,-8.0,-255.0,-6.0,0
271,-7.0,-257.0,-3.0,0
272,-8.0,-256.0,-5.0,0
273,-4.0,-256.0,-4.0,0
274,-5.0,-258.0,-3.0,0
275,-7.0,-259.0,-5.0,0
276,-3.0,-259.0,-5.0,0
277,-4.0,-258.0,-5.0,0
278,-3.0,-258.0,-4.0,0
279,-6.0,-258.0,-1.0,0
280,-3.0,-256.0,-2.0,0
281,-6.0,-258.0,0.0,0
282,-8.0,-256.0,-7.0,0
283,-8.0,-253.0,-7.0,0
284,-5.0,-257.0,-8.0,0
285,-7.0,-254.0,-7.0,0
286,-9.0,-254.0,-5.0,0
287,-17.0,-257.0,-8.0,0
288,-5.0,-258.0,-7.0,0
289,-7.0,-256.0,-3.0,0
290,-3.0,-258.0,-3.0,0
291,-6.0,-255.0,-5.0,0
292,-4.0,-256.0,-6.0,0
293,-7.0,-260.0,-4.0,0
294,-7.0,-259.0,-2.0,0
295,-8.0,-256.0,2.0,0
296,-8.0,-256.0,-4.0,0
297,-7.0,-259.0,-3.0,0
298,-7.0,-256.0,-6.0,0
299,-7.0,-258.0,0.0,0
300,-3.0,-252.0,-1.0,0
301,-7.0,-254.0,2.0,0
302,-5.0,-255.0,-2.0,0
303,-5.0,-256.0,0.0,0
304,-5.0,-255.0,2.0,0
305,-7.0,-257.0,-3.0,0
306,-7.0,-253.0,-1.0,0
307,-5.0,-253.0,0.0,0
308,-6.0,-254.0,-3.0,0
309,-7.0,-255.0,0.0,0
310,-5.0,-257.0,0.0,0
311,-6.0,-256.0,-1.0,0
312,-7.0,-254.0,-3.0,0
313,-7.0,-256.0,-1.0,0
314,-6.0,-256.0,-1.0,0
315,-6.0,-257.0,-3.0,0
316,-6.0,-258.0,-1.0,0
317,-4.0,-254.0,-5.0,0
318,-4.0,-259.0,-6.0,0
319,-6.0,-254.0,-3.0,0
320,-7.0,-255.0,-3.0,0
321,-7.0,-256.0,-2.0,0
322,-5.0,-255.0,-6.0,0
323,-6.0,-258.0,-4.0,0
324,-5.0,-257.0,-2.0,0
325,-6.0,-257.0,-5.0,0
326,-5.0,-256.0,-4.0,0
327,-7.0,-256.0,-3.0,0
328,-5.0,-259.0,-1.0,0
329,-3.0,-261.0,-3.0,0
330,-6.0,-258.0,0.0,0
331,-1.0,-253.0,-8.0,0
332,-4.0,-256.0,-1.0,0
333,-5.0,-253.0,-5.0,0
334,-4.0,-256.0,-2.0,0
335,-6.0,-255.0,-3.0,0
336,-5.0,-255.0,0.0,0
337,-8.0,-256.0,1.0,0
338,-6.0,-257.0,-3.0,0
339,-7.0,-255.0,-3.0,0
340,-8.0,-256.0,-2.0,0
341,-10.0,-254.0,0.0,0
342,-9.0,-256.0,-2.0,0
343,-4.0,-259.0,-1.0,0
344,-5.0,-258.0,-2.0,0
345,-9.0,-256.0,4.0,0
346,-9.0,-257.0,-4.0,0
347,-7.0,-258.0,2.0,0
348,-7.0,-256.0,-4.0,0
349,-7.0,-255.0,-4.0,0
350,-6.0,-257.0,-2.0,0
351,-7.0,-255.0,-2.0,0
352,-6.0,-258.0,-1.0,0
353,-5.0,-257.0,-4.0,0
354,-5.0,-258.0,0.0,0
355,-8.0,-256.0,0.0,0
356,-5.0,-258.0,1.0,0
357,-7.0,-257.0,0.0,0
358,-11.0,-257.0,2.0,0
359,-4.0,-258.0,1.0,0
360,-4.0,-255.0,1.0,0
361,-7.0,-258.0,0.0,0
362,-6.0,-256.0,2.0,0
363,-1.0,-259.0,-2.0,0
364,-7.0,-255.0,-2.0,0
365,-8.0,-253.0,0.0,0
366,-5.0,-256.0,0.0,0
367,-6.0,-257.0,0.0,0
368,-4.0,-256.0,0.0,0
369,-8.0,-256.0,-2.0,0
370,-5.0,-255.0,1.0,0
371,-7.0,-256.0,-1.0,0
372,-6.0,-256.0,-1.0,0
373,-8.0,-256.0,0.0,0
374,-5.0,-252.0,1.0,0
375,-8.0,-255.0,-2.0,0
376,-8.0,-255.0,-1.0,0
377,-6.0,-253.0,-2.0,0
378,-3.0,-258.0,1.0,0
379,-7.0,-256.0,-3.0,0
380,-7.0,-257.0,0.0,0
381,-7.0,-257.0,0.0,0
382,-3.0,-258.0,2.0,0
383,-8.0,-257.0,4.0,0
384,-6.0,-254.0,4.0,0
385,-7.0,-256.0,1.0,0
386,-7.0,-254.0,-1.0,0
387,-6.0,-257.0,1.0,0
388,-8.0,-258.0,-1.0,0
389,-4.0,-256.0,3.0,0
390,-7.0,-255.0,0.0,0
391,-9.0,-256.0,0.0,0
392,-10.0,-254.0,-2.0,0
393,-4.0,-255.0,1.0,0
394,-8.0,-254.0,-2.0,0
395,-8.0,-253.0,-2.0,0
396,-8.0,-256.0,-3.0,0
397,-10.0,-258.0,-2.0,0
398,-8.0,-254.0,0.0,0
399,-9.0,-255.0,4.0,0
400,-7.0,-255.0,1.0,0
401,-5.0,-257.0,2.0,0
402,-5.0,-257.0,2.0,0
403,-6.0,-253.0,6.0,0
404,-5.0,-258.0,-2.0,0
405,-8.0,-252.0,7.0,0
406,-7.0,-255.0,1.0,0
407,-8.0,-256.0,0.0,0
408,-9.0,-256.0,2.0,0
409,-3.0,-258.0,1.0,0
410,-3.0,-255.0,-1.0,0
411,-9.0,-258.0,-4.0,0
412,-7.0,-256.0,-2.0,0
413,-9.0,-257.0,2.0,0
414,-7.0,-255.0,4.0,0
415,-8.0,-255.0,4.0,0
416,-8.0,-256.0,6.0,0
417,-6.0,-257.0,3.0,0
418,-19.0,-261.0,3.0,0
419,-6.0,-254.0,1.0,0
420,-8.0,-256.0,-1.0,0
421,-7.0,-255.0,-1.0,0
422,-7.0,-256.0,-2.0,0
423,-9.0,-255.0,-4.0,0
424,-4.0,-256.0,3.0,0
425,-5.0,-258.0,0.0,0
426,-10.0,-256.0,-2.0,0
427,-16.0,-257.0,-1.0,0
428,-7.0,-257.0,0.0,0
429,-8.0,-256.0,-1.0,0
430,-7.0,-257.0,-3.0,0
431,-11.0,-255.0,-2.0,0
432,-6.0,-259.0,-1.0,0
433,-7.0,-257.0,-1.0,0
434,-7.0,-256.0,-1.0,0
435,-6.0,-253.0,-1.0,0
436,-3.0,-256.0,-1.0,0
437,-5.0,-257.0,-2.0,0
438,-4.0,-256.0,-1.0,0
439,-6.0,-255.0,1.0,0
440,-3.0,-256.0,0.0,0
441,-6.0,-250.0,-1.0,0
442,-7.0,-257.0,4.0,0
443,-5.0,-257.0,4.0,0
444,-1.0,-259.0,0.0,0
445,-4.0,-258.0,-1.0,0
446,-4.0,-261.0,0.0,0
447,-8.0,-257.0,-2.0,0
448,-7.0,-258.0,-3.0,0
449,-8.0,-256.0,1.0,0
450,-9.0,-256.0,-2.0,0
451,-7.0,-258.0,0.0,0
452,-6.0,-257.0,-1.0,0
453,-5.0,-256.0,0.0,0
454,-6.0,-256.0,-1.0,0
455,-4.0,-257.0,-1.0,0
456,-7.0,-256.0,1.0,0
457,-2.0,-257.0,1.0,0
458,-5.0,-256.0,-3.0,0
459,-5.0,-256.0,-2.0,0
460,-10.0,-255.0,1.0,0
461,-2.0,-266.0,1.0,0
462,-9.0,-254.0,4.0,0
463,-11.0,-258.0,2.0,0
464,-8.0,-259.0,-1.0,0
465,-5.0,-257.0,5.0,0
466,-4.0,-256.0,1.0,0
467,-7.0,-256.0,2.0,0
468,-4.0,-255.0,-1.0,0
469,-6.0,-255.0,0.0,0
470,-5.0,-258.0,3.0,0
471,-3.0,-254.0,3.0,0
472,-4.0,-256.0,3.0,0
473,-5.0,-256.0,0.0,0
474,-4.0,-255.0,6.0,0
475,-7.0,-255.0,7.0,0
476,-7.0,-254.0,5.0,0
477,-9.0,-254.0,-1.0,0
478,-5.0,-257.0,-2.0,0
479,-7.0,-255.0,1.0,0
480,-9.0,-254.0,2.0,0
481,-9.0,-256.0,0.0,0
482,-9.0,-255.0,0.0,0
483,-8.0,-255.0,1.0,0
484,-6.0,-258.0,1.0,0
485,-6.0,-257.0,-1.0,0
486,-8.0,-255.0,5.0,0
487,-9.0,-256.0,8.0,0
488,-5.0,-257.0,-2.0,0
489,-10.0,-256.0,0.0,0
490,-5.0,-258.0,2.0,0
491,-7.0,-256.0,-2.0,0
492,-2.0,-255.0,0.0,0
493,-5.0,-254.0,4.0,0
494,-3.0,-256.0,1.0,0
495,-6.0,-257.0,4.0,0
496,-9.0,-254.0,3.0,0
497,-5.0,-256.0,0.0,0
498,-7.0,-254.0,1.0,0
499,-6.0,-256.0,2.0,0
500,-7.0,-256.0,2.0,0
501,-6.0,-256.0,6.0,0
502,-8.0,-255.0,1.0,0
503,-3.0,-258.0,2.0,0
504,-4.0,-257.0,8.0,0
505,-5.0,-255.0,1.0,0
506,-7.0,-255.0,1.0,0
507,-8.0,-254.0,1.0,0
508,-7.0,-256.0,-2.0,0
509,-10.0,-254.0,0.0,0
510,-9.0,-257.0,4.0,0
511,-3.0,-255.0,6.0,0
512,-7.0,-256.0,1.0,0
513,-8.0,-256.0,4.0,0
514,-8.0,-257.0,3.0,0
515,-10.0,-255.0,4.0,0
516,-6.0,-254.0,7.0,0
517,-8.0,-256.0,2.0,0
518,-6.0,-255.0,4.0,0
519,-2.0,-259.0,1.0,0
520,-3.0,-258.0,3.0,0
521,-8.0,-255.0,5.0,0
522,-6.0,-258.0,5.0,0
523,-8.0,-254.0,2.0,0
524,-7.0,-255.0,4.0,0
525,-6.0,-255.0,2.0,0
526,-1.0,-258.0,-1.0,0
527,-5.0,-259.0,4.0,0
528,-3.0,-257.0,3.0,0
529,-7.0,-258.0,2.0,0
530,-7.0,-257.0,4.0,0
531,-8.0,-255.0,2.0,0
532,-9.0,-258.0,-3.0,0
533,-6.0,-258.0,6.0,0
534,-6.0,-254.0,2.0,0
535,-4.0,-256.0,5.0,0
536,-5.0,-255.0,1.0,0
537,-9.0,-255.0,0.0,0
538,-4.0,-256.0,2.0,0
539,-10.0,-255.0,0.0,0
540,-6.0,-254.0,3.0,0
541,-7.0,-257.0,4.0,0
542,-8.0,-259.0,0.0,0
543,-5.0,-255.0,-1.0,0
544,-5.0,-255.0,2.0,0
545,-9.0,-256.0,3.0,0
546,-7.0,-254.0,1.0,0
547,-7.0,-253.0,1.0,0
548,-6.0,-256.0,-2.0,0
549,-8.0,-254.0,3.0,0
550,-9.0,-253.0,1.0,0
551,-7.0,-256.0,1.0,0
552,-5.0,-255.0,3.0,0
553,-8.0,-256.0,2.0,0
554,-4.0,-255.0,3.0,0
555,-2.0,-255.0,1.0,0
556,-5.0,-257.0,2.0,0
557,-4.0,-256.0,-2.0,0
558,-6.0,-257.0,1.0,0
559,-3.0,-258.0,0.0,0
560,-6.0,-257.0,2.0,0
561,-4.0,-257.0,1.0,0
562,-4.0,-258.0,0.0,0
563,-5.0,-258.0,2.0,0
564,-8.0,-259.0,3.0,0
565,-4.0,-257.0,1.0,0
566,-6.0,-258.0,-1.0,0
567,-9.0,-259.0,1.0,0
568,-6.0,-258.0,0.0,0
569,-6.0,-259.0,3.0,0
570,0.0,-255.0,5.0,0
571,-7.0,-253.0,0.0,0
572,-6.0,-255.0,2.0,0
573,-8.0,-254.0,1.0,0
574,-7.0,-253.0,3.0,0
575,-8.0,-254.0,3.0,0
576,-5.0,-255.0,-1.0,0
577,-6.0,-257.0,4.0,0
578,-6.0,-255.0,1.0,0
579,-6.0,-256.0,2.0,0
580,-6.0,-257.0,1.0,0
581,-7.0,-256.0,0.0,0
582,-7.0,-257.0,3.0,0
583,-5.0,-256.0,-1.0,0
584,-4.0,-255.0,1.0,0
585,-8.0,-255.0,1.0,0
586,-3.0,-253.0,4.0,0
587,-4.0,-255.0,4.0,0
588,-6.0,-258.0,-1.0,0
589,-8.0,-256.0,-3.0,0
590,-7.0,-256.0,1.0,0
591,-5.0,-259.0,1.0,0
592,-5.0,-258.0,0.0,0
593,-7.0,-255.0,1.0,0
594,-9.0,-255.0,1.0,0
595,-9.0,-254.0,0.0,0
596,-5.0,-256.0,2.0,0
597,-7.0,-255.0,-1.0,0
598,-7.0,-257.0,2.0,0
599,-9.0,-256.0,0.0,0
600,-6.0,-257.0,2.0,0
601,-5.0,-257.0,3.0,0
602,-5.0,-255.0,2.0,0
603,-7.0,-254.0,2.0,0
604,-7.0,-253.0,-1.0,0
605,-9.0,-255.0,3.0,0
606,-9.0,-254.0,1.0,0
607,-6.0,-256.0,0.0,0
608,-7.0,-257.0,3.0,0
609,-8.0,-254.0,5.0,0
610,-6.0,-255.0,-1.0,0
611,-10.0,-253.0,3.0,0
612,-5.0,-257.0,1.0,0
613,-7.0,-253.0,-2.0,0
614,-7.0,-257.0,-1.0,0
615,-8.0,-256.0,0.0,0
616,-5.0,-257.0,1.0,0
617,-6.0,-252.0,3.0,0
618,-7.0,-257.0,5.0,0
619,-11.0,-253.0,6.0,0
620,-8.0,-257.0,8.0,0
621,-7.0,-256.0,3.0,0
622,-8.0,-257.0,4.0,0
623,-3.0,-256.0,5.0,0
624,-7.0,-255.0,3.0,0
625,-3.0,-255.0,3.0,0
626,-11.0,-250.0,3.0,0
627,-7.0,-255.0,-1.0,0
628,-7.0,-256.0,1.0,0
629,-7.0,-257.0,2.0,0
630,-8.0,-257.0,5.0,0
631,-6.0,-257.0,-1.0,0
632,-6.0,-256.0,2.0,0
633,-6.0,-258.0,4.0,0
634,-11.0,-257.0,1.0,0
635,-6.0,-257.0,-3.0,0
636,-7.0,-257.0,4.0,0
637,-9.0,-257.0,4.0,0
638,-5.0,-258.0,4.0,0
639,-9.0,-257.0,1.0,0
640,-6.0,-259.0,2.0,0
641,-7.0,-258.0,-2.0,0
642,-9.0,-252.0,-1.0,0
643,-8.0,-254.0,0.0,0
644,-7.0,-253.0,-2.0,0
645,-5.0,-255.0,0.0,0
646,-6.0,-256.0,2.0,0
647,-7.0,-254.0,-3.0,0
648,-8.0,-257.0,4.0,0
649,-2.0,-258.0,-1.0,0
650,-9.0,-255.0,2.0,0
651,-10.0,-255.0,-2.0,0
652,-9.0,-256.0,7.0,0
653,-7.0,-258.0,1.0,0
654,-7.0,-255.0,3.0,0
655,-3.0,-257.0,3.0,0
656,-7.0,-253.0,3.0,0
657,-5.0,-252.0,-5.0,0
658,-5.0,-255.0,2.0,0
659,-6.0,-254.0,3.0,0
660,-6.0,-255.0,5.0,0
661,-2.0,-257.0,-1.0,0
662,-6.0,-255.0,3.0,0
663,-8.0,-253.0,3.0,0
664,-6.0,-256.0,3.0,0
665,-6.0,-256.0,3.0,0
666,-4.0,-253.0,4.0,0
667,-4.0,-256.0,-1.0,0
668,-6.0,-255.0,1.0,0
669,-8.0,-253.0,3.0,0
670,-5.0,-255.0,6.0,0
671,-9.0,-255.0,1.0,0
672,-6.0,-255.0,0.0,0
673,-8.0,-257.0,3.0,0
674,-8.0,-255.0,1.0,0
675,-9.0,-256.0,2.0,0
676,-3.0,-257.0,3.0,0
677,-2.0,-257.0,-4.0,0
678,-6.0,-261.0,4.0,0
679,-7.0,-258.0,2.0,0
680,-10.0,-257.0,2.0,0
681,-6.0,-257.0,3.0,0
682,-7.0,-254.0,1.0,0
683,-6.0,-257.0,2.0,0
684,-7.0,-256.0,3.0,0
685,-6.0,-253.0,1.0,0
686,-7.0,-254.0,2.0,0
687,-7.0,-254.0,0.0,0
688,-5.0,-257.0,0.0,0
689,-8.0,-257.0,0.0,0
690,-7.0,-256.0,-5.0,0
691,-4.0,-254.0,1.0,0
692,-6.0,-254.0,-6.0,0
693,-7.0,-253.0,-1.0,0
694,-4.0,-251.0,-1.0,0
695,-4.0,-256.0,-3.0,0
696,-3.0,-254.0,-1.0,0
697,-6.0,-255.0,0.0,0
698,-6.0,-254.0,-2.0,0
699,-3.0,-254.0,0.0,0
700,1.0,-255.0,1.0,0
701,0.0,-253.0,-6.0,0
702,-4.0,-256.0,-6.0,0
703,-5.0,-256.0,-4.0,0
704,-3.0,-256.0,-3.0,0
705,-3.0,-259.0,-6.0,0
706,-4.0,-258.0,-9.0,0
707,-2.0,-259.0,-5.0,0
708,-1.0,-260.0,-2.0,0
709,-4.0,-257.0,-7.0,0
710,-5.0,-262.0,-2.0,0
711,-7.0,-258.0,-4.0,0
712,-5.0,-262.0,-4.0,0
713,-1.0,-256.0,-4.0,0
714,-7.0,-258.0,-3.0,0
715,-3.0,-257.0,-6.0,0
716,-2.0,-257.0,-7.0,0
717,-1.0,-258.0,-6.0,0
718,-7.0,-255.0,-8.0,0
719,-3.0,-255.0,-8.0,0
720,-1.0,-255.0,-7.0,0
721,-4.0,-258.0,-9.0,0
722,0.0,-259.0,2.0,0
723,-2.0,-254.0,-13.0,0
724,-4.0,-252.0,-8.0,0
725,-6.0,-254.0,-10.0,0
726,-6.0,-253.0,-8.0,0
727,-1.0,-252.0,-4.0,0
728,-2.0,-251.0,-8.0,0
729,-2.0,-253.0,-6.0,0
730,-4.0,-252.0,-4.0,0
731,-3.0,-252.0,-7.0,0
732,-3.0,-252.0,-6.0,0
733,-8.0,-249.0,-1.0,0
734,-6.0,-252.0,-5.0,0
735,-8.0,-254.0,-5.0,0
736,-7.0,-252.0,-1.0,0
737,-8.0,-254.0,-3.0,0
738,-6.0,-254.0,0.0,0
739,-6.0,-252.0,-2.0,0
740,-7.0,-254.0,-4.0,0
741,-7.0,-256.0,1.0,0
742,-9.0,-255.0,-4.0,0
743,-11.0,-254.0,2.0,0
744,-8.0,-252.0,-2.0,0
745,-9.0,-254.0,-1.0,0
746,-9.0,-254.0,-2.0,0
747,-6.0,-252.0,-5.0,0
748,-9.0,-256.0,-7.0,0
749,-11.0,-256.0,2.0,0
750,-8.0,-252.0,2.0,0
751,-7.0,-252.0,-2.0,0
752,-4.0,-256.0,0.0,0
753,-7.0,-256.0,-1.0,0
754,-4.0,-256.0,2.0,0
755,-3.0,-258.0,-2.0,0
756,-6.0,-255.0,-3.0,0
757,-2.0,-257.0,2.0,0
758,-11.0,-252.0,-1.0,0
759,-2.0,-257.0,-4.0,0
760,-7.0,-255.0,-4.0,0
761,0.0,-255.0,-6.0,0
762,-6.0,-253.0,-3.0,0
763,-4.0,-255.0,-7.0,0
764,-4.0,-250.0,-6.0,0
765,-4.0,-250.0,-7.0,0
766,-2.0,-251.0,-8.0,0
767,-3.0,-251.0,-7.0,0
768,0.0,-253.0,-10.0,0
769,0.0,-254.0,-10.0,0
770,0.0,-249.0,-9.0,0
771,-3.0,-251.0,-10.0,0
772,0.0,-251.0,-12.0,0
773,1.0,-250.0,-13.0,0
774,-2.0,-250.0,-14.0,0
775,-4.0,-252.0,-14.0,0
776,-2.0,-260.0,-16.0,0
777,0.0,-250.0,-16.0,0
778,0.0,-250.0,-19.0,0
779,-6.0,-248.0,-20.0,0
780,1.0,-250.0,-23.0,0
781,0.0,-251.0,-19.0,0
782,0.0,-252.0,-22.0,0
783,0.0,-254.0,-18.0,0
784,1.0,-248.0,-26.0,0
785,0.0,-250.0,-25.0,0
786,-3.0,-254.0,-27.0,0
787,-1.0,-250.0,-27.0,0
788,0.0,-249.0,-31.0,0
789,1.0,-247.0,-32.0,0
790,0.0,-246.0,-34.0,0
791,0.0,-248.0,-37.0,0
792,-2.0,-247.0,-37.0,0
793,0.0,-244.0,-36.0,0
794,-2.0,-245.0,-38.0,0
795,1.0,-248.0,-41.0,0
796,-1.0,-244.0,-43.0,0
797,-2.0,-247.0,-45.0,0
798,2.0,-248.0,-48.0,0
799,0.0,-257.0,-47.0,0
800,2.0,-245.0,-46.0,0
801,2.0,-245.0,-54.0,0
802,3.0,-247.0,-51.0,0
803,2.0,-248.0,-56.0,0
804,0.0,-248.0,-54.0,0
805,4.0,-250.0,-56.0,0
806,1.0,-248.0,-62.0,0
807,4.0,-247.0,-59.0,0
808,2.0,-248.0,-65.0,0
809,4.0,-252.0,-67.0,0
810,1.0,-238.0,-67.0,0
811,1.0,-242.0,-69.0,0
812,1.0,-247.0,-74.0,0
813,0.0,-246.0,-76.0,0
814,0.0,-246.0,-77.0,0
815,-1.0,-240.0,-80.0,0
816,0.0,-243.0,-84.0,0
817,3.0,-244.0,-91.0,0
818,3.0,-246.0,-96.0,0
819,2.0,-245.0,-97.0,0
820,4.0,-248.0,-95.0,0
821,10.0,-247.0,-95.0,0
822,12.0,-248.0,-92.0,0
823,12.0,-249.0,-89.0,0
824,17.0,-250.0,-91.0,0
825,11.0,-249.0,-89.0,0
826,11.0,-246.0,-88.0,0
827,16.0,-250.0,-90.0,0
828,15.0,-244.0,-87.0,0
829,10.0,-241.0,-87.0,0
830,15.0,-231.0,-92.0,0
831,23.0,-233.0,-85.0,0
832,11.0,-235.0,-85.0,0
833,-3.0,-244.0,-75.0,0
834,-2.0,-235.0,-83.0,0
835,6.0,-234.0,-88.0,0
836,2.0,-229.0,-86.0,0
837,8.0,-237.0,-87.0,0
838,11.0,-234.0,-87.0,0
839,2.0,-233.0,-92.0,0
840,1.0,-231.0,-98.0,0
841,3.0,-228.0,-98.0,0
842,-6.0,-217.0,-90.0,0
843,7.0,-225.0,-96.0,0
844,17.0,-234.0,-98.0,0
845,14.0,-235.0,-101.0,0
846,8.0,-234.0,-112.0,0
847,9.0,-233.0,-113.0,0
848,16.0,-236.0,-116.0,0
849,19.0,-229.0,-118.0,0
850,37.0,-213.0,-131.0,0
851,4.0,-229.0,-113.0,0
852,4.0,-232.0,-116.0,0
853,15.0,-230.0,-128.0,0
854,19.0,-220.0,-131.0,0
855,4.0,-210.0,-120.0,0
856,18.0,-214.0,-140.0,0
857,20.0,-221.0,-139.0,0
858,16.0,-222.0,-135.0,0
859,11.0,-225.0,-138.0,0
860,7.0,-222.0,-140.0,0
861,6.0,-220.0,-144.0,0
862,13.0,-210.0,-147.0,0
863,12.0,-212.0,-149.0,0
864,11.0,-206.0,-154.0,0
865,9.0,-200.0,-147.0,0
866,11.0,-198.0,-154.0,0
867,14.0,-200.0,-159.0,0
868,21.0,-194.0,-152.0,0
869,9.0,-200.0,-159.0,0
870,10.0,-201.0,-159.0,0
871,8.0,-191.0,-161.0,0
872,5.0,-182.0,-156.0,0
873,11.0,-178.0,-168.0,0
874,12.0,-177.0,-164.0,0
875,12.0,-183.0,-170.0,0
876,10.0,-183.0,-168.0,0
877,11.0,-186.0,-171.0,0
878,8.0,-181.0,-175.0,0
879,12.0,-181.0,-172.0,0
880,14.0,-180.0,-177.0,0
881,17.0,-182.0,-181.0,0
882,17.0,-181.0,-182.0,0
883,16.0,-178.0,-184.0,0
884,25.0,-196.0,-184.0,0
885,22.0,-173.0,-193.0,0
886,20.0,-181.0,-191.0,0
887,20.0,-181.0,-199.0,0
888,15.0,-182.0,-201.0,0
889,12.0,-180.0,-204.0,0
890,14.0,-173.0,-205.0,0
891,11.0,-165.0,-209.0,0
892,15.0,-168.0,-215.0,0
893,11.0,-151.0,-211.0,0
894,17.0,-157.0,-208.0,0
895,14.0,-159.0,-216.0,0
896,16.0,-156.0,-221.0,0
897,13.0,-151.0,-221.0,0
898,18.0,-149.0,-230.0,0
899,15.0,-156.0,-231.0,0
900,19.0,-138.0,-236.0,0
901,20.0,-142.0,-241.0,0
902,15.0,-142.0,-243.0,0
903,21.0,-144.0,-250.0,0
904,18.0,-142.0,-258.0,0
905,22.0,-174.0,-267.0,0
906,19.0,-136.0,-271.0,0
907,22.0,-142.0,-276.0,0
908,14.0,-147.0,-279.0,0
909,18.0,-145.0,-283.0,0
910,20.0,-143.0,-283.0,0
911,24.0,-136.0,-286.0,0
912,29.0,-137.0,-284.0,0
913,28.0,-133.0,-291.0,0
914,28.0,-129.0,-290.0,0
915,29.0,-129.0,-290.0,0
916,28.0,-129.0,-296.0,0
917,28.0,-131.0,-293.0,0
918,30.0,-128.0,-296.0,0
919,28.0,-124.0,-295.0,0
920,32.0,-117.0,-292.0,0
921,32.0,-108.0,-289.0,0
922,31.0,-103.0,-289.0,0
923,32.0,-98.0,-288.0,0
924,33.0,-96.0,-286.0,0
925,35.0,-93.0,-283.0,0
926,33.0,-89.0,-279.0,0
927,28.0,-85.0,-282.0,0
928,26.0,-84.0,-280.0,0
929,26.0,-84.0,-278.0,0
930,20.0,-83.0,-278.0,0
931,23.0,-78.0,-282.0,0
932,26.0,-71.0,-281.0,0
933,25.0,-70.0,-280.0,0
934,32.0,-71.0,-281.0,0
935,29.0,-66.0,-278.0,0
936,31.0,-64.0,-285.0,0
937,32.0,-69.0,-276.0,0
938,34.0,-67.0,-273.0,0
939,31.0,-65.0,-277.0,0
940,31.0,-64.0,-281.0,0
941,30.0,-68.0,-276.0,0
942,32.0,-65.0,-276.0,0
943,32.0,-63.0,-275.0,0
944,32.0,-61.0,-276.0,0
945,30.0,-57.0,-274.0,0
946,34.0,-59.0,-277.0,0
947,38.0,-62.0,-274.0,0
948,36.0,-60.0,-275.0,0
949,41.0,-61.0,-275.0,0
950,39.0,-62.0,-276.0,0
951,37.0,-60.0,-275.0,0
952,38.0,-60.0,-273.0,0
953,38.0,-60.0,-273.0,0
954,39.0,-59.0,-274.0,0
955,39.0,-59.0,-274.0,0
956,39.0,-60.0,-273.0,0
957,43.0,-56.0,-274.0,0
958,38.0,-56.0,-270.0,0
959,37.0,-54.0,-273.0,0
960,35.0,-56.0,-272.0,0
961,35.0,-54.0,-274.0,0
962,35.0,-57.0,-272.0,0
963,31.0,-56.0,-270.0,0
964,29.0,-55.0,-267.0,0
965,29.0,-57.0,-268.0,0
966,26.0,-57.0,-264.0,0
967,24.0,-55.0,-265.0,0
968,27.0,-57.0,-260.0,0
969,24.0,-57.0,-262.0,0
970,24.0,-56.0,-263.0,0
971,21.0,-53.0,-256.0,0
972,21.0,-55.0,-256.0,0
973,24.0,-58.0,-258.0,0
974,27.0,-55.0,-259.0,0
975,30.0,-56.0,-256.0,0
976,29.0,-55.0,-253.0,0
977,30.0,-57.0,-252.0,0
978,28.0,-54.0,-251.0,0
979,29.0,-62.0,-250.0,0
980,25.0,-55.0,-247.0,0
981,26.0,-57.0,-244.0,0
982,26.0,-55.0,-242.0,0
983,24.0,-55.0,-236.0,0
984,20.0,-55.0,-239.0,0
985,24.0,-56.0,-237.0,0
986,22.0,-56.0,-233.0,0
987,27.0,-57.0,-230.0,0
988,30.0,-59.0,-231.0,0
989,31.0,-59.0,-229.0,0
990,29.0,-62.0,-231.0,0
991,29.0,-62.0,-229.0,0
992,30.0,-63.0,-230.0,0
993,23.0,-59.0,-230.0,0
994,22.0,-56.0,-222.0,0
995,23.0,-59.0,-221.0,0
996,27.0,-61.0,-221.0,0
997,23.0,-59.0,-218.0,0
998,25.0,-59.0,-219.0,0
999,29.0,-61.0,-219.0,0
1000,29.0,-63.0,-215.0,0
1001,27.0,-64.0,-217.0,0
1002,26.0,-67.0,-216.0,0
1003,32.0,-69.0,-216.0,0
1004,24.0,-69.0,-215.0,0
1005,25.0,-71.0,-214.0,0
1006,26.0,-74.0,-213.0,0
1007,22.0,-71.0,-217.0,0
1008,19.0,-71.0,-213.0,0
1009,20.0,-75.0,-212.0,0
1010,20.0,-77.0,-211.0,0
1011,19.0,-76.0,-211.0,0
1012,15.0,-77.0,-213.0,0
1013,14.0,-79.0,-217.0,0
1014,13.0,-80.0,-217.0,0
1015,7.0,-69.0,-218.0,0
1016,7.0,-84.0,-223.0,0
1017,8.0,-83.0,-222.0,0
1018,11.0,-84.0,-225.0,0
1019,16.0,-84.0,-222.0,0
1020,18.0,-81.0,-225.0,0
1021,18.0,-82.0,-228.0,0
1022,20.0,-90.0,-231.0,0
1023,19.0,-85.0,-226.0,0
1024,20.0,-89.0,-228.0,0
1025,21.0,-94.0,-228.0,0
1026,21.0,-90.0,-225.0,0
1027,25.0,-92.0,-230.0,0
1028,20.0,-95.0,-231.0,0
1029,19.0,-95.0,-229.0,0
1030,23.0,-92.0,-227.0,0
1031,21.0,-97.0,-229.0,0
1032,20.0,-100.0,-227.0,0
1033,24.0,-100.0,-227.0,0
1034,22.0,-99.0,-225.0,0
1035,20.0,-99.0,-221.0,0
1036,20.0,-95.0,-223.0,0
1037,24.0,-100.0,-223.0,0
1038,18.0,-99.0,-219.0,0
1039,20.0,-98.0,-213.0,0
1040,23.0,-98.0,-214.0,0
1041,26.0,-98.0,-216.0,0
1042,24.0,-95.0,-213.0,0
1043,26.0,-98.0,-215.0,0
1044,22.0,-100.0,-216.0,0
1045,20.0,-99.0,-214.0,0
1046,21.0,-99.0,-212.0,0
1047,21.0,-101.0,-212.0,0
1048,17.0,-104.0,-211.0,0
1049,16.0,-102.0,-211.0,0
1050,12.0,-105.0,-209.0,0
1051,12.0,-105.0,-211.0,0
1052,15.0,-101.0,-211.0,0
1053,11.0,-99.0,-210.0,0
1054,11.0,-99.0,-206.0,0
1055,18.0,-106.0,-210.0,0
1056,9.0,-110.0,-204.0,0
1057,10.0,-106.0,-205.0,0
1058,10.0,-108.0,-210.0,0
1059,20.0,-106.0,-207.0,0
1060,13.0,-110.0,-205.0,0
1061,17.0,-104.0,-203.0,0
1062,16.0,-102.0,-206.0,0
1063,18.0,-99.0,-203.0,0
1064,23.0,-98.0,-204.0,0
1065,26.0,-101.0,-203.0,0
1066,23.0,-92.0,-203.0,0
1067,27.0,-109.0,-198.0,0
1068,15.0,-107.0,-202.0,0
1069,14.0,-108.0,-198.0,0
1070,15.0,-108.0,-197.0,0
1071,14.0,-108.0,-200.0,0
1072,16.0,-107.0,-205.0,0
1073,14.0,-108.0,-204.0,0
1074,11.0,-108.0,-208.0,0
1075,13.0,-112.0,-206.0,0
1076,13.0,-113.0,-207.0,0
1077,11.0,-115.0,-209.0,0
1078,9.0,-118.0,-205.0,0
1079,11.0,-118.0,-206.0,0
1080,12.0,-121.0,-204.0,0
1081,12.0,-119.0,-203.0,0
1082,8.0,-122.0,-206.0,0
1083,7.0,-122.0,-204.0,0
1084,9.0,-126.0,-203.0,0
1085,10.0,-125.0,-211.0,0
1086,9.0,-126.0,-206.0,0
1087,8.0,-125.0,-211.0,0
1088,7.0,-126.0,-212.0,0
1089,7.0,-127.0,-207.0,0
1090,7.0,-129.0,-210.0,0
1091,4.0,-128.0,-207.0,0
1092,4.0,-129.0,-208.0,0
1093,9.0,-128.0,-209.0,0
1094,-2.0,-127.0,-208.0,0
1095,5.0,-136.0,-201.0,0
1096,5.0,-133.0,-199.0,0
1097,10.0,-136.0,-205.0,0
1098,7.0,-134.0,-199.0,0
1099,7.0,-131.0,-202.0,0
1100,7.0,-131.0,-203.0,0
1101,6.0,-134.0,-202.0,0
1102,4.0,-135.0,-199.0,0
1103,1.0,-138.0,-196.0,0
1104,0.0,-139.0,-193.0,0
1105,-2.0,-136.0,-196.0,0
1106,1.0,-140.0,-197.0,0
1107,4.0,-136.0,-199.0,0
1108,3.0,-136.0,-194.0,0
1109,3.0,-138.0,-192.0,0
1110,3.0,-142.0,-188.0,0
1111,4.0,-142.0,-194.0,0
1112,4.0,-144.0,-185.0,0
1113,2.0,-148.0,-188.0,0
1114,0.0,-148.0,-183.0,0
1115,-1.0,-153.0,-183.0,0
1116,-6.0,-157.0,-181.0,0
1117,-9.0,-162.0,-175.0,0
1118,-26.0,-168.0,-169.0,0
1119,-22.0,-168.0,-172.0,0
1120,-10.0,-164.0,-172.0,0
1121,-25.0,-169.0,-171.0,0
1122,-18.0,-168.0,-165.0,0
1123,-25.0,-175.0,-158.0,0
1124,-20.0,-169.0,-161.0,0
1125,-28.0,-168.0,-161.0,0
1126,-19.0,-150.0,-151.0,0
1127,-9.0,-173.0,-156.0,0
1128,-24.0,-172.0,-153.0,0
1129,-19.0,-174.0,-149.0,0
1130,-24.0,-182.0,-145.0,0
1131,-21.0,-189.0,-147.0,0
1132,-12.0,-180.0,-147.0,0
1133,-14.0,-180.0,-146.0,0
1134,-14.0,-176.0,-147.0,0
1135,-17.0,-181.0,-146.0,0
1136,-11.0,-180.0,-148.0,0
1137,-16.0,-180.0,-144.0,0
1138,-19.0,-183.0,-141.0,0
1139,-17.0,-184.0,-142.0,0
1140,-21.0,-188.0,-144.0,0
1141,-26.0,-200.0,-139.0,0
1142,-31.0,-200.0,-139.0,0
1143,-42.0,-201.0,-135.0,0
1144,-52.0,-194.0,-133.0,0
1145,-55.0,-192.0,-132.0,0
1146,-57.0,-188.0,-133.0,0
1147,-53.0,-185.0,-132.0,0
1148,-48.0,-181.0,-135.0,0
1149,-51.0,-178.0,-134.0,0
1150,-45.0,-182.0,-128.0,0
1151,-41.0,-180.0,-131.0,0
1152,-48.0,-178.0,-118.0,0
1153,-45.0,-170.0,-108.0,0
1154,-44.0,-163.0,-105.0,0
1155,-42.0,-157.0,-102.0,0
1156,-62.0,-155.0,-95.0,0
1157,-52.0,-150.0,-101.0,0
1158,-39.0,-152.0,-100.0,0
1159,-39.0,-144.0,-91.0,0
1160,-45.0,-152.0,-85.0,0
1161,-50.0,-152.0,-85.0,0
1162,-53.0,-147.0,-81.0,0
1163,-34.0,-143.0,-82.0,0
1164,-33.0,-136.0,-81.0,0
1165,-39.0,-122.0,-79.0,0
1166,-32.0,-119.0,-69.0,0
1167,-35.0,-108.0,-71.0,0
1168,-27.0,-95.0,-73.0,0
1169,-23.0,-89.0,-69.0,0
1170,-17.0,-71.0,-73.0,0
1171,-10.0,-61.0,-77.0,0
1172,-3.0,-54.0,-67.0,0
1173,0.0,-51.0,-59.0,0
1174,2.0,-48.0,-57.0,0
1175,7.0,-45.0,-58.0,0
1176,7.0,-44.0,-58.0,0
1177,9.0,-45.0,-61.0,0
1178,11.0,-44.0,-60.0,0
1179,12.0,-44.0,-63.0,0
1180,6.0,-49.0,-70.0,0
1181,14.0,-42.0,-68.0,0
1182,14.0,-42.0,-67.0,0
1183,13.0,-36.0,-77.0,0
1184,11.0,-36.0,-80.0,0
1185,3.0,-39.0,-83.0,0
1186,0.0,-32.0,-80.0,0
1187,-4.0,-34.0,-82.0,0
1188,0.0,-30.0,-84.0,0
1189,0.0,-27.0,-85.0,0
1190,1.0,-29.0,-94.0,0
1191,9.0,-30.0,-102.0,0
1192,19.0,-67.0,-112.0,0
1193,19.0,-74.0,-107.0,0
1194,24.0,-87.0,-101.0,0
1195,43.0,-95.0,-85.0,0
1196,39.0,-116.0,-102.0,0
1197,37.0,-132.0,-115.0,0
1198,25.0,-133.0,-128.0,0
1199,13.0,-131.0,-136.0,0
1200,15.0,-134.0,-150.0,0
1201,14.0,-135.0,-148.0,0
1202,8.0,-132.0,-148.0,0
1203,4.0,-132.0,-140.0,0
1204,-15.0,-129.0,-120.0,0
1205,-16.0,-115.0,-115.0,0
1206,-22.0,-110.0,-97.0,0
1207,-20.0,-111.0,-89.0,0
1208,-9.0,-114.0,-84.0,0
1209,8.0,-115.0,-81.0,2
1210,19.0,-109.0,-92.0,2
1211,34.0,-110.0,-97.0,2
1212,44.0,-119.0,-115.0,2
1213,40.0,-128.0,-139.0,2
1214,35.0,-144.0,-150.0,2
1215,39.0,-165.0,-159.0,2
1216,40.0,-183.0,-158.0,2
1217,48.0,-203.0,-157.0,2
1218,45.0,-220.0,-164.0,2
1219,43.0,-227.0,-157.0,2
1220,40.0,-235.0,-160.0,2
1221,31.0,-243.0,-164.0,2
1222,10.0,-246.0,-162.0,2
1223,-10.0,-244.0,-175.0,2
1224,-28.0,-225.0,-185.0,2
1225,-44.0,-214.0,-187.0,2
1226,-45.0,-204.0,-191.0,2
1227,-36.0,-203.0,-212.0,2
1228,-9.0,-199.0,-256.0,2
1229,11.0,-188.0,-294.0,2
1230,30.0,-181.0,-335.0,2
1231,29.0,-177.0,-369.0,2
1232,20.0,-186.0,-407.0,2
1233,15.0,-211.0,-442.0,2
1234,16.0,-258.0,-459.0,2
1235,13.0,-315.0,-438.0,2
1236,-8.0,-360.0,-383.0,2
1237,-48.0,-403.0,-331.0,2
1238,-139.0,-392.0,-272.0,2
1239,-176.0,-390.0,-200.0,2
1240,-286.0,-342.0,-126.0,2
1241,-318.0,-286.0,-71.0,2
1242,-382.0,-220.0,-47.0,2
1243,-418.0,-146.0,-37.0,2
1244,-371.0,-118.0,-36.0,2
1245,-294.0,-122.0,-39.0,2
1246,-235.0,-133.0,-37.0,2
1247,-193.0,-136.0,-39.0,2
1248,-163.0,-139.0,-44.0,2
1249,-134.0,-139.0,-58.0,2
1250,-112.0,-139.0,-78.0,2
1251,-105.0,-135.0,-89.0,2
1252,-113.0,-139.0,-82.0,2
1253,-136.0,-139.0,-57.0,2
1254,-166.0,-147.0,-42.0,2
1255,-210.0,-166.0,-23.0,2
1256,-260.0,-198.0,-19.0,2
1257,-307.0,-233.0,-20.0,2
1258,-363.0,-269.0,-12.0,2
1259,-444.0,-270.0,-6.0,2
1260,-483.0,-265.0,11.0,2
1261,-526.0,-243.0,1.0,2
1262,-577.0,-237.0,-10.0,2
1263,-597.0,-249.0,-61.0,2
1264,-674.0,-302.0,-75.0,2
1265,-734.0,-379.0,-122.0,2
1266,-815.0,-442.0,-167.0,2
1267,-942.0,-495.0,-202.0,2
1268,-1017.0,-512.0,-207.0,2
1269,-1051.0,-512.0,-211.0,2
1270,-983.0,-492.0,-217.0,2
1271,-972.0,-426.0,-173.0,2
1272,-749.0,-405.0,-142.0,2
1273,-464.0,-440.0,-77.0,2
1274,-239.0,-435.0,-31.0,2
1275,-73.0,-403.0,20.0,2
1276,23.0,-391.0,61.0,2
1277,92.0,-397.0,93.0,2
1278,121.0,-373.0,104.0,2
1279,131.0,-326.0,92.0,2
1280,66.0,-271.0,81.0,2
1281,11.0,-223.0,78.0,2
1282,-162.0,-149.0,63.0,2
1283,-229.0,-121.0,21.0,2
1284,-155.0,-147.0,31.0,2
1285,-209.0,-152.0,30.0,2
1286,-195.0,-154.0,34.0,2
1287,-150.0,-165.0,42.0,2
1288,-127.0,-162.0,45.0,2
1289,-125.0,-145.0,60.0,2
1290,-128.0,-124.0,56.0,2
1291,-144.0,-102.0,35.0,2
1292,-170.0,-71.0,25.0,2
1293,-176.0,-41.0,40.0,2
1294,-186.0,-7.0,70.0,2
1295,-190.0,21.0,116.0,2
1296,-192.0,61.0,145.0,2
1297,-192.0,79.0,158.0,2
1298,-196.0,105.0,148.0,2
1299,-226.0,119.0,117.0,2
1300,-262.0,129.0,99.0,2
1301,-289.0,139.0,97.0,2
1302,-340.0,144.0,106.0,2
1303,-365.0,160.0,83.0,2
1304,-393.0,179.0,65.0,2
1305,-433.0,223.0,27.0,2
1306,-473.0,270.0,8.0,2
1307,-507.0,313.0,-13.0,2
1308,-538.0,325.0,13.0,2
1309,-595.0,323.0,42.0,2
1310,-609.0,327.0,46.0,2
1311,-594.0,305.0,64.0,2
1312,-562.0,285.0,82.0,2
1313,-504.0,253.0,85.0,2
1314,-445.0,210.0,45.0,2
1315,-381.0,181.0,20.0,2
1316,-360.0,152.0,13.0,2
1317,-322.0,131.0,35.0,2
1318,-288.0,108.0,73.0,2
1319,-253.0,91.0,107.0,2
1320,-207.0,80.0,118.0,2
1321,-167.0,73.0,119.0,2
1322,-85.0,70.0,102.0,2
1323,-43.0,77.0,103.0,2
1324,10.0,82.0,112.0,2
1325,47.0,87.0,137.0,2
1326,75.0,89.0,154.0,2
1327,102.0,96.0,159.0,2
1328,116.0,80.0,153.0,1
1329,78.0,59.0,133.0,1
1330,19.0,48.0,116.0,1
1331,-10.0,40.0,90.0,1
1332,-49.0,39.0,79.0,1
1333,-88.0,38.0,74.0,1
1334,-125.0,31.0,65.0,1
1335,-154.0,31.0,59.0,1
1336,-182.0,36.0,48.0,1
1337,-199.0,42.0,33.0,1
1338,-216.0,44.0,22.0,1
1339,-232.0,55.0,11.0,1
1340,-225.0,66.0,6.0,1
1341,-229.0,78.0,11.0,1
1342,-224.0,89.0,36.0,1
1343,-227.0,105.0,39.0,1
1344,-228.0,120.0,48.0,1
1345,-231.0,127.0,61.0,1
1346,-246.0,130.0,72.0,1
1347,-260.0,130.0,78.0,1
1348,-279.0,135.0,79.0,1
1349,-309.0,138.0,73.0,1
1350,-334.0,138.0,64.0,1
1351,-351.0,136.0,57.0,1
1352,-371.0,125.0,52.0,1
1353,-378.0,134.0,37.0,1
1354,-374.0,125.0,30.0,1
1355,-368.0,118.0,25.0,1
1356,-357.0,108.0,30.0,1
1357,-356.0,101.0,32.0,1
1358,-364.0,90.0,41.0,1
1359,-369.0,74.0,48.0,1
1360,-367.0,62.0,58.0,1
1361,-361.0,55.0,69.0,1
1362,-345.0,47.0,76.0,1
1363,-329.0,51.0,81.0,1
1364,-323.0,56.0,77.0,1
1365,-318.0,58.0,71.0,1
1366,-301.0,51.0,68.0,1
1367,-286.0,43.0,66.0,1
1368,-280.0,39.0,66.0,1
1369,-273.0,36.0,61.0,1
1370,-266.0,27.0,59.0,1
1371,-259.0,22.0,54.0,1
1372,-244.0,16.0,51.0,1
1373,-230.0,17.0,42.0,1
1374,-227.0,13.0,45.0,1
1375,-217.0,9.0,42.0,1
1376,-212.0,3.0,48.0,1
1377,-190.0,4.0,50.0,1
1378,-193.0,1.0,56.0,1
1379,-193.0,4.0,61.0,1
1380,-214.0,-5.0,67.0,1
1381,-200.0,-8.0,71.0,1
1382,-208.0,-3.0,69.0,1
1383,-212.0,-12.0,70.0,1
1384,-222.0,-15.0,60.0,1
1385,-230.0,-19.0,53.0,1
1386,-228.0,-31.0,39.0,1
1387,-224.0,-42.0,30.0,1
1388,-226.0,-52.0,16.0,1
1389,-232.0,-57.0,15.0,1
1390,-245.0,-58.0,10.0,1
1391,-250.0,-58.0,0.0,1
1392,-261.0,-53.0,0.0,1
1393,-267.0,-46.0,-3.0,1
1394,-270.0,-39.0,-2.0,1
1395,-270.0,-23.0,4.0,1
1396,-281.0,-7.0,3.0,1
1397,-298.0,7.0,10.0,1
1398,-286.0,12.0,10.0,1
1399,-276.0,23.0,4.0,1
1400,-283.0,16.0,10.0,1
1401,-273.0,26.0,9.0,1
1402,-261.0,28.0,8.0,1
1403,-257.0,24.0,3.0,1
1404,-253.0,9.0,7.0,1
1405,-258.0,5.0,6.0,1
1406,-254.0,-8.0,-1.0,1
1407,-256.0,-20.0,6.0,1
1408,-261.0,-31.0,5.0,1
1409,-257.0,-42.0,1.0,1
1410,-253.0,-45.0,-5.0,1
1411,-237.0,-49.0,-1.0,1
1412,-229.0,-48.0,6.0,1
1413,-227.0,-47.0,-2.0,1
1414,-225.0,-41.0,0.0,1
1415,-225.0,-40.0,-6.0,1
1416,-232.0,-29.0,-9.0,1
1417,-235.0,-26.0,-11.0,1
1418,-236.0,-21.0,-19.0,1
1419,-235.0,-24.0,-21.0,1
1420,-240.0,-27.0,-27.0,1
1421,-255.0,-27.0,-32.0,1
1422,-256.0,-27.0,-44.0,1
1423,-261.0,-26.0,-53.0,1
1424,-266.0,-20.0,-53.0,1
1425,-266.0,-27.0,-51.0,1
1426,-262.0,-23.0,-53.0,1
1427,-266.0,-21.0,-58.0,1
1428,-269.0,-19.0,-55.0,1
1429,-269.0,-16.0,-56.0,1
1430,-267.0,-8.0,-57.0,1
1431,-269.0,-4.0,-54.0,1
1432,-265.0,-1.0,-60.0,1
1433,-262.0,1.0,-60.0,1
1434,-264.0,6.0,-59.0,1
1435,-260.0,5.0,-57.0,1
1436,-259.0,8.0,-55.0,1
1437,-262.0,10.0,-52.0,1
1438,-266.0,11.0,-54.0,1
1439,-261.0,11.0,-52.0,1
1440,-260.0,13.0,-50.0,1
1441,-261.0,13.0,-46.0,1
1442,-259.0,19.0,-47.0,1
1443,-261.0,18.0,-38.0,1
1444,-263.0,19.0,-40.0,1
1445,-259.0,17.0,-39.0,1
1446,-256.0,18.0,-42.0,1
1447,-256.0,17.0,-41.0,1
1448,-258.0,16.0,-42.0,1
1449,-258.0,17.0,-45.0,1
1450,-259.0,17.0,-46.0,1
1451,-260.0,16.0,-51.0,1
1452,-260.0,21.0,-48.0,1
1453,-259.0,17.0,-49.0,1
1454,-264.0,19.0,-44.0,1
1455,-266.0,22.0,-44.0,1
1456,-266.0,25.0,-42.0,1
1457,-261.0,30.0,-40.0,1
1458,-260.0,28.0,-41.0,1
1459,-263.0,32.0,-36.0,1
1460,-262.0,34.0,-35.0,1
1461,-260.0,39.0,-39.0,1
1462,-260.0,43.0,-41.0,1
1463,-261.0,46.0,-40.0,1
1464,-258.0,46.0,-45.0,1
1465,-262.0,51.0,-44.0,1
1466,-265.0,52.0,-47.0,1
1467,-264.0,49.0,-42.0,1
1468,-266.0,46.0,-41.0,1
1469,-267.0,45.0,-45.0,1
1470,-267.0,44.0,-43.0,0
1471,-269.0,39.0,-45.0,0
1472,-270.0,41.0,-45.0,0
1473,-275.0,49.0,-49.0,0
1474,-274.0,47.0,-49.0,0
1475,-272.0,44.0,-47.0,0
1476,-272.0,39.0,-47.0,0
1477,-269.0,41.0,-51.0,0
1478,-268.0,41.0,-50.0,0
1479,-268.0,38.0,-51.0,0
1480,-267.0,34.0,-52.0,0
1481,-267.0,31.0,-50.0,0
1482,-264.0,27.0,-47.0,0
1483,-264.0,27.0,-51.0,0
1484,-263.0,25.0,-47.0,0
1485,-262.0,23.0,-47.0,0
1486,-261.0,20.0,-46.0,0
1487,-261.0,24.0,-47.0,0
1488,-260.0,18.0,-40.0,0
1489,-261.0,21.0,-41.0,0
1490,-255.0,18.0,-41.0,0
1491,-256.0,22.0,-38.0,0
1492,-253.0,19.0,-42.0,0
1493,-257.0,17.0,-34.0,0
1494,-257.0,16.0,-33.0,0
1495,-256.0,19.0,-35.0,0
1496,-255.0,19.0,-29.0,0
1497,-258.0,19.0,-28.0,0
1498,-256.0,17.0,-26.0,0
1499,-256.0,15.0,-28.0,0
1500,-256.0,16.0,-22.0,0
1501,-254.0,16.0,-27.0,0
1502,-255.0,15.0,-20.0,0
1503,-255.0,15.0,-23.0,0
1504,-253.0,14.0,-23.0,0
1505,-255.0,11.0,-22.0,0
1506,-256.0,12.0,-19.0,0
1507,-254.0,15.0,-16.0,0
1508,-254.0,15.0,-19.0,0
1509,-255.0,13.0,-17.0,0
1510,-252.0,13.0,-15.0,0
1511,-254.0,11.0,-15.0,0
1512,-252.0,12.0,-17.0,0
1513,-255.0,10.0,-16.0,0
1514,-254.0,8.0,-11.0,0
1515,-257.0,11.0,-13.0,0
1516,-254.0,10.0,-14.0,0
1517,-258.0,9.0,-15.0,0
1518,-257.0,13.0,-12.0,0
1519,-255.0,11.0,-12.0,0
1520,-255.0,9.0,-11.0,0
1521,-256.0,12.0,-13.0,0
1522,-257.0,11.0,-14.0,0
1523,-257.0,15.0,-14.0,0
1524,-256.0,14.0,-16.0,0
1525,-257.0,16.0,-20.0,0
1526,-258.0,18.0,-16.0,0
1527,-257.0,15.0,-14.0,0
1528,-257.0,17.0,-17.0,0
1529,-256.0,13.0,-17.0,0
1530,-256.0,15.0,-19.0,0
1531,-256.0,12.0,-16.0,0
1532,-253.0,12.0,-20.0,0
1533,-255.0,11.0,-17.0,0
1534,-255.0,10.0,-19.0,0
1535,-253.0,12.0,-17.0,0
1536,-251.0,8.0,-16.0,0
1537,-253.0,8.0,-18.0,0
1538,-254.0,9.0,-17.0,0
1539,-252.0,11.0,-19.0,0
1540,-254.0,9.0,-19.0,0
1541,-253.0,14.0,-20.0,0
1542,-256.0,15.0,-26.0,0
1543,-255.0,14.0,-23.0,0
1544,-257.0,16.0,-23.0,0
1545,-254.0,18.0,-27.0,0
1546,-257.0,20.0,-25.0,0
1547,-257.0,16.0,-23.0,0
1548,-257.0,19.0,-21.0,0
1549,-262.0,18.0,-22.0,0
1550,-259.0,20.0,-23.0,0
1551,-259.0,19.0,-24.0,0
1552,-262.0,22.0,-29.0,0
1553,-258.0,23.0,-30.0,0
1554,-259.0,25.0,-31.0,0
1555,-263.0,27.0,-35.0,0
1556,-262.0,25.0,-38.0,0
1557,-265.0,28.0,-33.0,0
1558,-268.0,23.0,-39.0,0
1559,-265.0,23.0,-35.0,0
1560,-264.0,19.0,-37.0,0
1561,-263.0,16.0,-35.0,0
1562,-264.0,15.0,-32.0,0
1563,-258.0,14.0,-31.0,0
1564,-257.0,13.0,-24.0,0
1565,-256.0,12.0,-20.0,0
1566,-259.0,11.0,-20.0,0
1567,-260.0,15.0,-19.0,0
1568,-262.0,15.0,-20.0,0
1569,-261.0,23.0,-17.0,0
1570,-264.0,24.0,-19.0,0
1571,-265.0,24.0,-19.0,0
1572,-262.0,29.0,-15.0,0
1573,-263.0,30.0,-10.0,0
1574,-257.0,30.0,-8.0,0
1575,-260.0,33.0,-9.0,0
1576,-256.0,31.0,-6.0,0
1577,-254.0,24.0,-1.0,0
1578,-248.0,19.0,2.0,0
1579,-246.0,15.0,-4.0,0
1580,-249.0,10.0,-10.0,0
1581,-247.0,6.0,-12.0,0
1582,-247.0,9.0,-15.0,0
1583,-248.0,8.0,-18.0,0
1584,-247.0,5.0,-11.0,0
1585,-245.0,4.0,-13.0,0
1586,-247.0,8.0,-10.0,0
1587,-243.0,8.0,-6.0,0
1588,-244.0,9.0,-8.0,0
1589,-244.0,10.0,-8.0,0
1590,-243.0,13.0,-7.0,0
1591,-244.0,15.0,-10.0,0
1592,-242.0,13.0,-20.0,0
1593,-245.0,13.0,-20.0,0
1594,-248.0,14.0,-20.0,0
1595,-252.0,12.0,-22.0,0
1596,-252.0,12.0,-26.0,0
1597,-254.0,14.0,-32.0,0
1598,-255.0,17.0,-31.0,0
1599,-256.0,18.0,-32.0,0
1600,-257.0,16.0,-30.0,0
1601,-258.0,24.0,-41.0,0
1602,-263.0,26.0,-41.0,0
1603,-263.0,31.0,-46.0,0
1604,-260.0,35.0,-48.0,0
1605,-266.0,34.0,-46.0,0
1606,-264.0,36.0,-47.0,0
1607,-264.0,35.0,-46.0,0
1608,-262.0,34.0,-46.0,0
1609,-263.0,32.0,-50.0,0
1610,-262.0,35.0,-48.0,0
1611,-262.0,36.0,-47.0,0
1612,-262.0,33.0,-50.0,0
1613,-266.0,36.0,-53.0,0
1614,-264.0,33.0,-51.0,0
1615,-265.0,35.0,-52.0,0
1616,-260.0,36.0,-51.0,0
1617,-263.0,39.0,-56.0,0
1618,-266.0,40.0,-59.0,0
1619,-266.0,39.0,-61.0,0
1620,-265.0,44.0,-62.0,0
1621,-267.0,47.0,-66.0,0
1622,-265.0,42.0,-68.0,0
1623,-267.0,43.0,-67.0,0
1624,-265.0,38.0,-65.0,0
1625,-263.0,38.0,-65.0,0
1626,-260.0,35.0,-60.0,0
1627,-256.0,28.0,-56.0,0
1628,-259.0,30.0,-57.0,0
1629,-256.0,23.0,-53.0,0
1630,-254.0,21.0,-47.0,0
1631,-255.0,18.0,-44.0,0
1632,-256.0,17.0,-43.0,0
1633,-257.0,17.0,-42.0,0
1634,-258.0,18.0,-39.0,0
1635,-256.0,21.0,-41.0,0
1636,-259.0,17.0,-37.0,0
1637,-256.0,18.0,-35.0,0
1638,-256.0,19.0,-39.0,0
1639,-253.0,21.0,-35.0,0
1640,-252.0,18.0,-32.0,0
1641,-248.0,20.0,-29.0,0
1642,-259.0,23.0,-31.0,0
1643,-262.0,13.0,-26.0,0
1644,-255.0,16.0,-28.0,0
1645,-253.0,17.0,-27.0,0
1646,-253.0,19.0,-24.0,0
1647,-252.0,17.0,-24.0,0
1648,-250.0,14.0,-26.0,0
1649,-249.0,13.0,-25.0,0
1650,-251.0,15.0,-26.0,0
1651,-252.0,17.0,-23.0,0
1652,-253.0,20.0,-26.0,0
1653,-250.0,18.0,-25.0,0
1654,-251.0,21.0,-25.0,0
1655,-250.0,19.0,-20.0,0
1656,-254.0,23.0,-20.0,0
1657,-255.0,22.0,-24.0,0
1658,-253.0,21.0,-23.0,0
1659,-252.0,22.0,-27.0,0
1660,-255.0,18.0,-29.0,0
1661,-256.0,26.0,-27.0,0
1662,-255.0,22.0,-29.0,0
1663,-256.0,24.0,-29.0,0
1664,-256.0,22.0,-29.0,0
1665,-256.0,21.0,-27.0,0
1666,-255.0,20.0,-28.0,0
1667,-257.0,22.0,-35.0,0
1668,-255.0,18.0,-36.0,0
1669,-256.0,21.0,-35.0,0
1670,-257.0,20.0,-36.0,0
1671,-256.0,22.0,-35.0,0
1672,-259.0,30.0,-35.0,0
1673,-260.0,25.0,-38.0,0
1674,-254.0,25.0,-38.0,0
1675,-256.0,24.0,-38.0,0
1676,-257.0,25.0,-39.0,0
1677,-256.0,26.0,-42.0,0
1678,-257.0,27.0,-35.0,0
1679,-256.0,24.0,-41.0,0
1680,-255.0,22.0,-38.0,0
1681,-257.0,26.0,-44.0,0
1682,-258.0,24.0,-44.0,0
1683,-257.0,25.0,-41.0,0
1684,-259.0,26.0,-39.0,0
1685,-258.0,25.0,-44.0,0
1686,-256.0,22.0,-36.0,0
1687,-257.0,28.0,-40.0,0
1688,-256.0,26.0,-40.0,0
1689,-256.0,26.0,-42.0,0
1690,-259.0,27.0,-42.0,0
1691,-258.0,26.0,-46.0,0
1692,-257.0,24.0,-43.0,0
1693,-257.0,24.0,-44.0,0
1694,-258.0,27.0,-45.0,0
1695,-256.0,24.0,-45.0,0
1696,-256.0,25.0,-41.0,0
1697,-256.0,26.0,-44.0,0
1698,-257.0,22.0,-43.0,0
1699,-255.0,19.0,-46.0,0
1700,-258.0,21.0,-43.0,0
1701,-256.0,23.0,-43.0,0
1702,-261.0,24.0,-43.0,0
1703,-258.0,22.0,-47.0,0
1704,-258.0,22.0,-47.0,0
1705,-258.0,23.0,-47.0,0
1706,-260.0,24.0,-47.0,0
1707,-260.0,23.0,-49.0,0
1708,-261.0,24.0,-40.0,0
1709,-257.0,21.0,-43.0,0
1710,-257.0,22.0,-41.0,0
1711,-256.0,22.0,-41.0,0
1712,-256.0,23.0,-37.0,0
1713,-252.0,19.0,-41.0,0
1714,-255.0,23.0,-39.0,0
1715,-255.0,18.0,-31.0,0
1716,-256.0,18.0,-37.0,0
1717,-255.0,20.0,-37.0,0
1718,-254.0,20.0,-31.0,0
1719,-255.0,19.0,-35.0,0
1720,-256.0,24.0,-31.0,0
1721,-256.0,24.0,-36.0,0
1722,-254.0,24.0,-39.0,0
1723,-253.0,23.0,-36.0,0
1724,-256.0,24.0,-38.0,0
1725,-258.0,27.0,-34.0,0
1726,-256.0,25.0,-34.0,0
1727,-256.0,27.0,-38.0,0
1728,-255.0,24.0,-35.0,0
1729,-258.0,27.0,-38.0,0
1730,-257.0,30.0,-36.0,0
1731,-256.0,24.0,-34.0,0
1732,-258.0,27.0,-33.0,0
1733,-257.0,24.0,-28.0,0
1734,-256.0,23.0,-34.0,0
1735,-257.0,26.0,-35.0,0
1736,-258.0,25.0,-35.0,0
1737,-257.0,25.0,-32.0,0
1738,-256.0,26.0,-34.0,0
1739,-258.0,23.0,-32.0,0
1740,-255.0,23.0,-30.0,0
1741,-256.0,25.0,-32.0,0
1742,-255.0,22.0,-29.0,0
1743,-254.0,23.0,-36.0,0
1744,-254.0,24.0,-31.0,0
1745,-256.0,20.0,-32.0,0
1746,-256.0,21.0,-31.0,0
1747,-253.0,19.0,-34.0,0
1748,-256.0,20.0,-32.0,0
1749,-255.0,19.0,-35.0,0
1750,-256.0,18.0,-31.0,0
1751,-256.0,19.0,-31.0,0
1752,-256.0,21.0,-32.0,0
1753,-255.0,20.0,-33.0,0
1754,-255.0,19.0,-31.0,0
1755,-256.0,22.0,-31.0,0
1756,-256.0,18.0,-31.0,0
1757,-256.0,22.0,-34.0,0
1758,-255.0,22.0,-31.0,0
1759,-254.0,20.0,-34.0,0
1760,-255.0,19.0,-31.0,0
1761,-256.0,20.0,-34.0,0
1762,-256.0,21.0,-31.0,0
1763,-255.0,21.0,-30.0,0
1764,-256.0,20.0,-32.0,0
1765,-254.0,17.0,-34.0,0
1766,-255.0,20.0,-35.0,0
1767,-256.0,20.0,-37.0,0
1768,-257.0,15.0,-37.0,0
1769,-256.0,19.0,-36.0,0
1770,-256.0,20.0,-34.0,0
1771,-248.0,25.0,-38.0,0
1772,-254.0,17.0,-36.0,0
1773,-256.0,21.0,-35.0,0
1774,-256.0,22.0,-34.0,0
1775,-256.0,24.0,-36.0,0
1776,-256.0,20.0,-36.0,0
1777,-257.0,23.0,-39.0,0
1778,-256.0,26.0,-37.0,0
1779,-257.0,23.0,-35.0,0
1780,-257.0,24.0,-36.0,0
1781,-257.0,23.0,-37.0,0
1782,-255.0,22.0,-34.0,0
1783,-255.0,21.0,-34.0,0
1784,-257.0,23.0,-35.0,0
1785,-256.0,22.0,-36.0,0
1786,-258.0,25.0,-36.0,0
1787,-256.0,27.0,-37.0,0
1788,-256.0,26.0,-37.0,0
1789,-257.0,23.0,-37.0,0
1790,-258.0,26.0,-36.0,0
1791,-258.0,24.0,-37.0,0
1792,-258.0,23.0,-35.0,0
1793,-257.0,22.0,-36.0,0
1794,-256.0,20.0,-37.0,0
1795,-257.0,24.0,-35.0,0
1796,-257.0,26.0,-38.0,0
1797,-257.0,24.0,-34.0,0
1798,-256.0,23.0,-36.0,0
1799,-256.0,24.0,-37.0,0
1800,-256.0,24.0,-35.0,0
1801,-257.0,26.0,-35.0,0
1802,-258.0,23.0,-40.0,0
1803,-256.0,22.0,-39.0,0
1804,-258.0,24.0,-35.0,0
1805,-257.0,24.0,-39.0,0
1806,-256.0,21.0,-39.0,0
1807,-257.0,25.0,-39.0,0
1808,-257.0,23.0,-39.0,0
1809,-258.0,24.0,-39.0,0
1810,-258.0,23.0,-37.0,0
1811,-257.0,24.0,-38.0,0
1812,-257.0,23.0,-37.0,0
1813,-258.0,22.0,-39.0,0
1814,-254.0,20.0,-33.0,0
1815,-258.0,26.0,-40.0,0
1816,-258.0,23.0,-37.0,0
1817,-257.0,23.0,-41.0,0
1818,-259.0,23.0,-38.0,0
1819,-257.0,22.0,-34.0,0
1820,-255.0,22.0,-34.0,0
1821,-258.0,25.0,-33.0,0
1822,-257.0,23.0,-38.0,0
1823,-256.0,23.0,-39.0,0
1824,-257.0,21.0,-38.0,0
1825,-256.0,25.0,-35.0,0
1826,-258.0,21.0,-33.0,0
1827,-255.0,21.0,-37.0,0
1828,-255.0,22.0,-34.0,0
1829,-254.0,20.0,-31.0,0
1830,-255.0,23.0,-34.0,0
1831,-256.0,24.0,-33.0,0
1832,-255.0,21.0,-34.0,0
1833,-255.0,20.0,-35.0,0
1834,-255.0,22.0,-36.0,0
1835,-256.0,21.0,-39.0,0
1836,-255.0,21.0,-36.0,0
1837,-258.0,23.0,-35.0,0
1838,-259.0,24.0,-38.0,0
1839,-259.0,24.0,-37.0,0
1840,-256.0,23.0,-33.0,0
1841,-257.0,24.0,-35.0,0
1842,-257.0,24.0,-34.0,0
1843,-257.0,25.0,-36.0,0
1844,-256.0,23.0,-36.0,0
1845,-256.0,24.0,-37.0,0
1846,-257.0,20.0,-35.0,0
1847,-255.0,19.0,-34.0,0
1848,-256.0,23.0,-34.0,0
1849,-258.0,25.0,-37.0,0
1850,-254.0,26.0,-37.0,0
1851,-257.0,23.0,-39.0,0
1852,-257.0,26.0,-37.0,0
1853,-258.0,20.0,-36.0,0
1854,-258.0,20.0,-37.0,0
1855,-258.0,20.0,-38.0,0
1856,-257.0,20.0,-35.0,0
1857,-248.0,27.0,-36.0,0
1858,-256.0,21.0,-39.0,0
1859,-257.0,24.0,-33.0,0
1860,-256.0,24.0,-38.0,0
1861,-256.0,23.0,-35.0,0
1862,-255.0,23.0,-35.0,0
1863,-258.0,22.0,-31.0,0
1864,-256.0,22.0,-31.0,0
1865,-254.0,23.0,-32.0,0
1866,-255.0,18.0,-33.0,0
1867,-256.0,22.0,-31.0,0
1868,-257.0,22.0,-35.0,0
1869,-258.0,25.0,-32.0,0
1870,-257.0,23.0,-37.0,0
1871,-257.0,23.0,-29.0,0
1872,-257.0,23.0,-33.0,0
1873,-256.0,23.0,-38.0,0
1874,-258.0,24.0,-35.0,0
1875,-257.0,22.0,-37.0,0
1876,-257.0,24.0,-36.0,0
1877,-257.0,22.0,-37.0,0
1878,-257.0,24.0,-40.0,0
1879,-256.0,26.0,-37.0,0
1880,-256.0,22.0,-40.0,0
1881,-256.0,24.0,-37.0,0
1882,-256.0,20.0,-35.0,0
1883,-256.0,22.0,-41.0,0
1884,-256.0,25.0,-33.0,0
1885,-257.0,23.0,-35.0,0
1886,-257.0,24.0,-38.0,0
1887,-257.0,27.0,-35.0,0
1888,-257.0,27.0,-33.0,0
1889,-256.0,23.0,-38.0,0
1890,-258.0,24.0,-34.0,0
1891,-256.0,27.0,-38.0,0
1892,-258.0,28.0,-33.0,0
1893,-256.0,25.0,-34.0,0
1894,-259.0,29.0,-36.0,0
1895,-261.0,24.0,-34.0,0
1896,-256.0,24.0,-35.0,0
1897,-256.0,26.0,-33.0,0
1898,-258.0,23.0,-34.0,0
1899,-258.0,32.0,-39.0,0
1900,-258.0,25.0,-34.0,0
1901,-255.0,23.0,-31.0,0
1902,-257.0,27.0,-31.0,0
1903,-257.0,23.0,-32.0,0
1904,-257.0,23.0,-26.0,0
1905,-259.0,26.0,-33.0,0
1906,-255.0,20.0,-26.0,0
1907,-253.0,23.0,-29.0,0
1908,-256.0,22.0,-24.0,0
1909,-253.0,23.0,-22.0,0
1910,-256.0,19.0,-27.0,0
1911,-254.0,18.0,-26.0,0
1912,-253.0,21.0,-27.0,0
1913,-256.0,21.0,-26.0,0
1914,-256.0,19.0,-24.0,0
1915,-256.0,19.0,-25.0,0
1916,-256.0,20.0,-27.0,0
1917,-257.0,21.0,-26.0,0
1918,-256.0,19.0,-28.0,0
1919,-255.0,18.0,-26.0,0
1920,-256.0,20.0,-27.0,0
1921,-255.0,16.0,-28.0,0
1922,-255.0,17.0,-22.0,0
1923,-256.0,16.0,-27.0,0
1924,-256.0,14.0,-22.0,0
1925,-255.0,17.0,-21.0,0
1926,-255.0,17.0,-23.0,0
1927,-256.0,21.0,-24.0,0
1928,-256.0,21.0,-24.0,0
1929,-254.0,18.0,-22.0,0
1930,-256.0,21.0,-22.0,0
1931,-256.0,22.0,-21.0,0
1932,-245.0,17.0,-26.0,0
1933,-261.0,27.0,-25.0,0
1934,-257.0,23.0,-25.0,0
1935,-257.0,24.0,-21.0,0
1936,-257.0,19.0,-26.0,0
1937,-256.0,21.0,-26.0,0
1938,-256.0,19.0,-27.0,0
1939,-256.0,16.0,-25.0,0
1940,-255.0,18.0,-26.0,0
1941,-254.0,17.0,-23.0,0
1942,-257.0,20.0,-30.0,0
1943,-255.0,18.0,-27.0,0
1944,-254.0,22.0,-25.0,0
1945,-256.0,20.0,-27.0,0
1946,-256.0,23.0,-23.0,0
1947,-255.0,22.0,-27.0,0
1948,-256.0,21.0,-26.0,0
1949,-257.0,21.0,-31.0,0
1950,-255.0,25.0,-29.0,0
1951,-258.0,23.0,-30.0,0
1952,-258.0,24.0,-33.0,0
1953,-258.0,24.0,-28.0,0
1954,-259.0,24.0,-29.0,0
1955,-255.0,23.0,-32.0,0
1956,-256.0,21.0,-31.0,0
1957,-259.0,28.0,-33.0,0
1958,-261.0,26.0,-36.0,0
1959,-260.0,24.0,-30.0,0
1960,-260.0,25.0,-30.0,0
1961,-260.0,22.0,-34.0,0
1962,-256.0,29.0,-33.0,0
1963,-258.0,23.0,-36.0,0
1964,-258.0,28.0,-38.0,0
1965,-257.0,24.0,-35.0,0
1966,-256.0,21.0,-34.0,0
1967,-256.0,26.0,-34.0,0
1968,-253.0,24.0,-31.0,0
1969,-264.0,24.0,-31.0,0
1970,-259.0,20.0,-31.0,0
1971,-262.0,25.0,-31.0,0
1972,-260.0,22.0,-32.0,0
1973,-257.0,24.0,-30.0,0
1974,-257.0,26.0,-31.0,0
1975,-257.0,24.0,-30.0,0
1976,-248.0,23.0,-30.0,0
1977,-259.0,25.0,-25.0,0
1978,-258.0,24.0,-30.0,0
1979,-258.0,22.0,-25.0,0
1980,-255.0,18.0,-27.0,0
1981,-257.0,22.0,-28.0,0
1982,-257.0,25.0,-27.0,0
1983,-257.0,23.0,-30.0,0
1984,-258.0,23.0,-31.0,0
1985,-257.0,15.0,-27.0,0
1986,-260.0,23.0,-32.0,0
1987,-254.0,16.0,-32.0,0
1988,-258.0,21.0,-31.0,0
1989,-257.0,23.0,-30.0,0
1990,-256.0,20.0,-33.0,0
1991,-257.0,18.0,-30.0,0
1992,-257.0,21.0,-31.0,0
1993,-257.0,20.0,-31.0,0
1994,-257.0,21.0,-32.0,0
1995,-258.0,20.0,-32.0,0
1996,-257.0,22.0,-30.0,0
1997,-259.0,23.0,-28.0,0
1998,-257.0,22.0,-31.0,0
1999,-257.0,24.0,-30.0,0
2000,-258.0,26.0,-32.0,0
2001,-256.0,22.0,-31.0,0
2002,-256.0,23.0,-33.0,0
2003,-258.0,23.0,-30.0,0
2004,-258.0,20.0,-32.0,0
2005,-258.0,23.0,-27.0,0
2006,-255.0,29.0,-30.0,0
2007,-256.0,21.0,-27.0,0
2008,-256.0,22.0,-30.0,0
2009,-255.0,18.0,-30.0,0
2010,-258.0,23.0,-29.0,0
2011,-256.0,22.0,-30.0,0
2012,-255.0,23.0,-31.0,0
2013,-257.0,20.0,-24.0,0
2014,-257.0,23.0,-30.0,0
2015,-258.0,23.0,-32.0,0
2016,-254.0,23.0,-25.0,0
2017,-255.0,24.0,-29.0,0
2018,-258.0,24.0,-28.0,0
2019,-256.0,23.0,-28.0,0
2020,-256.0,25.0,-28.0,0
2021,-258.0,23.0,-32.0,0
2022,-258.0,25.0,-28.0,0
2023,-261.0,25.0,-26.0,0
2024,-257.0,26.0,-27.0,0
2025,-257.0,21.0,-30.0,0
2026,-257.0,24.0,-27.0,0
2027,-256.0,21.0,-30.0,0
2028,-260.0,26.0,-28.0,0
2029,-258.0,23.0,-31.0,0
2030,-256.0,23.0,-26.0,0
2031,-257.0,24.0,-27.0,0
2032,-257.0,21.0,-21.0,0
2033,-255.0,19.0,-26.0,0
2034,-259.0,23.0,-25.0,0
2035,-253.0,22.0,-25.0,0
2036,-256.0,19.0,-28.0,0
2037,-256.0,17.0,-31.0,0
2038,-256.0,22.0,-25.0,0
2039,-254.0,16.0,-23.0,0
2040,-258.0,20.0,-27.0,0
2041,-256.0,16.0,-25.0,0
2042,-259.0,18.0,-29.0,0
2043,-257.0,18.0,-29.0,0
2044,-257.0,18.0,-29.0,0
2045,-255.0,19.0,-32.0,0
2046,-256.0,20.0,-27.0,0
2047,-256.0,21.0,-24.0,0
2048,-255.0,20.0,-27.0,0
2049,-255.0,26.0,-22.0,0
2050,-254.0,19.0,-25.0,0
2051,-256.0,22.0,-24.0,0
2052,-257.0,20.0,-23.0,0
2053,-256.0,25.0,-24.0,0
2054,-256.0,23.0,-29.0,0
2055,-258.0,20.0,-28.0,0
2056,-256.0,22.0,-26.0,0
2057,-260.0,25.0,-25.0,0
2058,-261.0,26.0,-26.0,0
2059,-260.0,22.0,-26.0,0
2060,-259.0,24.0,-30.0,0
2061,-257.0,24.0,-31.0,0
2062,-258.0,23.0,-26.0,0
2063,-260.0,23.0,-29.0,0
2064,-260.0,23.0,-27.0,0
2065,-258.0,23.0,-28.0,0
2066,-258.0,23.0,-27.0,0
2067,-257.0,23.0,-29.0,0
2068,-257.0,21.0,-24.0,0
2069,-258.0,22.0,-24.0,0
2070,-258.0,25.0,-26.0,0
2071,-255.0,23.0,-29.0,0
2072,-254.0,23.0,-30.0,0
2073,-257.0,22.0,-27.0,0
2074,-258.0,18.0,-30.0,0
2075,-257.0,22.0,-34.0,0
2076,-258.0,22.0,-28.0,0
2077,-257.0,24.0,-32.0,0
2078,-260.0,22.0,-32.0,0
2079,-256.0,20.0,-31.0,0
2080,-259.0,22.0,-27.0,0
2081,-257.0,18.0,-24.0,0
2082,-257.0,22.0,-25.0,0
2083,-256.0,18.0,-28.0,0
2084,-258.0,19.0,-26.0,0
2085,-257.0,20.0,-24.0,0
2086,-258.0,20.0,-25.0,0
2087,-259.0,26.0,-27.0,0
2088,-258.0,24.0,-25.0,0
2089,-256.0,21.0,-26.0,0
2090,-256.0,20.0,-26.0,0
2091,-258.0,21.0,-21.0,0
2092,-257.0,20.0,-19.0,0
2093,-256.0,18.0,-28.0,0
2094,-256.0,15.0,-24.0,0
2095,-258.0,19.0,-24.0,0
2096,-252.0,17.0,-28.0,0
2097,-256.0,22.0,-27.0,0
2098,-255.0,20.0,-23.0,0
2099,-255.0,18.0,-21.0,0
2100,-254.0,16.0,-21.0,0
2101,-255.0,19.0,-22.0,0
2102,-254.0,18.0,-26.0,0
2103,-256.0,20.0,-26.0,0
2104,-256.0,20.0,-28.0,0
2105,-257.0,20.0,-26.0,0
2106,-260.0,25.0,-26.0,0
2107,-259.0,26.0,-27.0,0
2108,-258.0,23.0,-31.0,0
2109,-257.0,25.0,-29.0,0
2110,-257.0,22.0,-31.0,0
2111,-258.0,22.0,-33.0,0
2112,-259.0,23.0,-26.0,0
2113,-259.0,13.0,-27.0,0
2114,-258.0,21.0,-28.0,0
2115,-258.0,22.0,-32.0,0
2116,-258.0,22.0,-28.0,0
2117,-258.0,22.0,-27.0,0
2118,-257.0,20.0,-25.0,0
2119,-258.0,24.0,-31.0,0
2120,-257.0,21.0,-28.0,0
2121,-257.0,20.0,-28.0,0
2122,-258.0,21.0,-29.0,0
2123,-258.0,24.0,-28.0,0
2124,-258.0,21.0,-30.0,0
2125,-257.0,22.0,-33.0,0
2126,-259.0,23.0,-32.0,0
2127,-257.0,22.0,-36.0,0
2128,-257.0,24.0,-34.0,0
2129,-258.0,21.0,-29.0,0
2130,-258.0,22.0,-28.0,0
2131,-256.0,23.0,-30.0,0
2132,-260.0,26.0,-27.0,0
2133,-260.0,28.0,-32.0,0
2134,-258.0,24.0,-30.0,0
2135,-258.0,26.0,-29.0,0
2136,-258.0,27.0,-28.0,0
2137,-258.0,24.0,-27.0,0
2138,-258.0,24.0,-27.0,0
2139,-257.0,22.0,-29.0,0
2140,-258.0,25.0,-27.0,0
2141,-257.0,20.0,-24.0,0
2142,-254.0,20.0,-28.0,0
2143,-258.0,24.0,-28.0,0
2144,-257.0,24.0,-29.0,0
2145,-256.0,24.0,-27.0,0
2146,-257.0,19.0,-30.0,0
2147,-258.0,23.0,-28.0,0
2148,-257.0,20.0,-28.0,0
2149,-256.0,20.0,-27.0,0
2150,-256.0,18.0,-28.0,0
2151,-255.0,20.0,-28.0,0
2152,-255.0,22.0,-28.0,0
2153,-256.0,19.0,-25.0,0
2154,-256.0,19.0,-25.0,0
2155,-258.0,17.0,-30.0,0
2156,-255.0,17.0,-26.0,0
2157,-257.0,23.0,-26.0,0
2158,-257.0,21.0,-28.0,0
2159,-255.0,21.0,-29.0,0
2160,-255.0,22.0,-27.0,0
2161,-256.0,20.0,-30.0,0
2162,-258.0,25.0,-28.0,0
2163,-259.0,22.0,-31.0,0
2164,-257.0,22.0,-30.0,0
2165,-258.0,22.0,-22.0,0
2166,-258.0,22.0,-33.0,0
2167,-256.0,20.0,-36.0,0
2168,-256.0,19.0,-29.0,0
2169,-257.0,18.0,-30.0,0
2170,-256.0,23.0,-30.0,0
2171,-259.0,23.0,-30.0,0
2172,-256.0,21.0,-32.0,0
2173,-260.0,26.0,-33.0,0
2174,-258.0,23.0,-31.0,0
2175,-258.0,27.0,-31.0,0
2176,-258.0,24.0,-31.0,0
2177,-255.0,26.0,-32.0,0
2178,-258.0,22.0,-31.0,0
2179,-255.0,17.0,-31.0,0
2180,-257.0,20.0,-27.0,0
2181,-256.0,21.0,-30.0,0
2182,-256.0,21.0,-29.0,0
2183,-256.0,22.0,-30.0,0
2184,-261.0,22.0,-30.0,0
2185,-256.0,22.0,-28.0,0
2186,-257.0,22.0,-27.0,0
2187,-257.0,21.0,-30.0,0
2188,-255.0,21.0,-26.0,0
2189,-255.0,24.0,-26.0,0
2190,-255.0,18.0,-28.0,0
2191,-256.0,20.0,-27.0,0
2192,-258.0,18.0,-25.0,0
2193,-255.0,16.0,-27.0,0
2194,-256.0,18.0,-25.0,0
2195,-257.0,22.0,-24.0,0
2196,-258.0,20.0,-28.0,0
2197,-260.0,22.0,-29.0,0
2198,-259.0,25.0,-31.0,0
2199,-255.0,22.0,-29.0,0
2200,-259.0,23.0,-27.0,0
2201,-258.0,26.0,-29.0,0
2202,-257.0,26.0,-30.0,0
2203,-257.0,22.0,-30.0,0
2204,-256.0,22.0,-30.0,0
2205,-257.0,22.0,-24.0,0
2206,-259.0,23.0,-29.0,0
2207,-259.0,23.0,-30.0,0
2208,-257.0,26.0,-33.0,0
2209,-256.0,26.0,-32.0,0
2210,-258.0,22.0,-31.0,0
2211,-258.0,22.0,-34.0,0
2212,-258.0,24.0,-36.0,0
2213,-258.0,25.0,-30.0,0
2214,-258.0,25.0,-31.0,0
2215,-259.0,24.0,-29.0,0
2216,-258.0,23.0,-33.0,0
2217,-259.0,25.0,-32.0,0
2218,-256.0,22.0,-30.0,0
2219,-259.0,22.0,-32.0,0
2220,-257.0,26.0,-31.0,0
2221,-259.0,24.0,-32.0,0
2222,-257.0,22.0,-33.0,0
2223,-256.0,25.0,-33.0,0
2224,-256.0,22.0,-36.0,0
2225,-256.0,26.0,-37.0,0
2226,-257.0,24.0,-34.0,0
2227,-255.0,24.0,-33.0,0
2228,-257.0,19.0,-34.0,0
2229,-256.0,21.0,-29.0,0
2230,-256.0,20.0,-33.0,0
2231,-255.0,21.0,-27.0,0
2232,-257.0,23.0,-32.0,0
2233,-257.0,24.0,-28.0,0
2234,-256.0,23.0,-30.0,0
2235,-256.0,22.0,-31.0,0
2236,-257.0,21.0,-26.0,0
2237,-256.0,25.0,-30.0,0
2238,-257.0,24.0,-30.0,0
2239,-256.0,23.0,-26.0,0
2240,-257.0,24.0,-30.0,0
2241,-250.0,30.0,-30.0,0
2242,-257.0,23.0,-30.0,0
2243,-257.0,22.0,-30.0,0
2244,-256.0,26.0,-30.0,0
2245,-255.0,25.0,-34.0,0
2246,-256.0,25.0,-29.0,0
2247,-258.0,25.0,-32.0,0
2248,-257.0,23.0,-26.0,0
2249,-257.0,21.0,-29.0,0
2250,-255.0,19.0,-27.0,0
2251,-258.0,26.0,-27.0,0
2252,-256.0,23.0,-30.0,0
2253,-256.0,23.0,-29.0,0
2254,-257.0,25.0,-29.0,0
2255,-256.0,23.0,-30.0,0
2256,-257.0,22.0,-30.0,0
2257,-257.0,21.0,-28.0,0
2258,-256.0,22.0,-26.0,0
2259,-258.0,23.0,-28.0,0
2260,-256.0,22.0,-29.0,0
2261,-257.0,21.0,-30.0,0
2262,-259.0,28.0,-29.0,0
2263,-256.0,24.0,-32.0,0
2264,-257.0,22.0,-32.0,0
2265,-259.0,23.0,-28.0,0
2266,-257.0,25.0,-28.0,0
2267,-254.0,21.0,-30.0,0
2268,-254.0,21.0,-33.0,0
2269,-256.0,22.0,-24.0,0
2270,-257.0,23.0,-29.0,0
2271,-256.0,19.0,-29.0,0
2272,-257.0,23.0,-29.0,0
2273,-257.0,23.0,-32.0,0
2274,-257.0,25.0,-30.0,0
2275,-257.0,23.0,-31.0,0
2276,-259.0,26.0,-28.0,0
2277,-256.0,26.0,-31.0,0
2278,-258.0,27.0,-31.0,0
2279,-258.0,26.0,-35.0,0
2280,-258.0,25.0,-30.0,0
2281,-258.0,24.0,-30.0,0
2282,-257.0,26.0,-29.0,0
2283,-256.0,23.0,-31.0,0
2284,-256.0,25.0,-32.0,0
2285,-255.0,26.0,-34.0,0
2286,-259.0,24.0,-27.0,0
2287,-257.0,27.0,-33.0,0
2288,-259.0,26.0,-28.0,0
2289,-257.0,20.0,-23.0,0
2290,-257.0,23.0,-29.0,0
2291,-257.0,24.0,-32.0,0
2292,-256.0,22.0,-31.0,0
2293,-257.0,26.0,-27.0,0
2294,-258.0,26.0,-27.0,0
2295,-256.0,24.0,-24.0,0
2296,-256.0,24.0,-28.0,0
2297,-256.0,25.0,-26.0,0
2298,-257.0,26.0,-29.0,0
2299,-260.0,25.0,-28.0,0
2300,-256.0,23.0,-28.0,0
2301,-259.0,27.0,-29.0,0
2302,-258.0,27.0,-27.0,0
2303,-257.0,20.0,-27.0,0
2304,-257.0,25.0,-29.0,0
2305,-258.0,21.0,-27.0,0
2306,-255.0,23.0,-27.0,0
2307,-255.0,22.0,-26.0,0
2308,-258.0,19.0,-24.0,0
2309,-256.0,23.0,-23.0,0
2310,-258.0,23.0,-26.0,0
2311,-256.0,19.0,-25.0,0
2312,-256.0,25.0,-29.0,0
2313,-259.0,24.0,-24.0,0
2314,-257.0,22.0,-28.0,0
2315,-258.0,23.0,-25.0,0
2316,-256.0,23.0,-26.0,0
2317,-258.0,22.0,-28.0,0
2318,-257.0,24.0,-26.0,0
2319,-259.0,20.0,-25.0,0
2320,-258.0,24.0,-27.0,0
2321,-257.0,20.0,-26.0,0
2322,-257.0,20.0,-24.0,0
2323,-256.0,22.0,-27.0,0
2324,-255.0,21.0,-24.0,0
2325,-255.0,22.0,-26.0,0
2326,-259.0,25.0,-25.0,0
2327,-257.0,20.0,-24.0,0
2328,-257.0,22.0,-20.0,0
2329,-256.0,22.0,-26.0,0
2330,-256.0,22.0,-20.0,0
2331,-260.0,25.0,-26.0,0
2332,-256.0,24.0,-24.0,0
2333,-256.0,22.0,-23.0,0
2334,-255.0,20.0,-29.0,0
2335,-257.0,20.0,-23.0,0
2336,-256.0,18.0,-21.0,0
2337,-256.0,22.0,-23.0,0
2338,-256.0,17.0,-23.0,0
2339,-254.0,17.0,-25.0,0
2340,-257.0,20.0,-20.0,0
2341,-255.0,19.0,-19.0,0
2342,-256.0,19.0,-21.0,0
2343,-255.0,19.0,-21.0,0
2344,-256.0,21.0,-21.0,0
2345,-256.0,19.0,-20.0,0
2346,-255.0,19.0,-21.0,0
2347,-255.0,18.0,-15.0,0
2348,-255.0,20.0,-22.0,0
2349,-255.0,15.0,-24.0,0
2350,-257.0,21.0,-20.0,0
2351,-256.0,20.0,-21.0,0
2352,-256.0,21.0,-23.0,0
2353,-256.0,23.0,-20.0,0
2354,-255.0,19.0,-23.0,0
2355,-256.0,19.0,-24.0,0
2356,-258.0,20.0,-21.0,0
2357,-254.0,18.0,-20.0,0
2358,-255.0,18.0,-21.0,0
2359,-257.0,21.0,-21.0,0
2360,-256.0,20.0,-21.0,0
2361,-257.0,23.0,-20.0,0
2362,-255.0,21.0,-25.0,0
2363,-256.0,23.0,-24.0,0
2364,-258.0,19.0,-24.0,0
2365,-261.0,25.0,-23.0,0
2366,-258.0,22.0,-19.0,0
2367,-261.0,26.0,-28.0,0
2368,-259.0,21.0,-24.0,0
2369,-261.0,21.0,-23.0,0
2370,-262.0,20.0,-27.0,0
2371,-260.0,24.0,-24.0,0
2372,-257.0,22.0,-24.0,0
2373,-257.0,23.0,-27.0,0
2374,-257.0,22.0,-21.0,0
2375,-258.0,20.0,-24.0,0
2376,-258.0,23.0,-26.0,0
2377,-258.0,24.0,-24.0,0
2378,-257.0,22.0,-27.0,0
2379,-258.0,23.0,-23.0,0
2380,-255.0,20.0,-23.0,0
2381,-256.0,19.0,-25.0,0
2382,-257.0,20.0,-25.0,0
2383,-258.0,22.0,-23.0,0
2384,-259.0,23.0,-24.0,0
2385,-257.0,22.0,-25.0,0
2386,-258.0,25.0,-24.0,0
2387,-260.0,24.0,-25.0,0
2388,-258.0,21.0,-26.0,0
2389,-257.0,24.0,-27.0,0
2390,-259.0,15.0,-23.0,0
2391,-256.0,21.0,-27.0,0
2392,-259.0,23.0,-23.0,0
2393,-261.0,22.0,-26.0,0
2394,-259.0,20.0,-29.0,0
2395,-258.0,23.0,-26.0,0
2396,-260.0,21.0,-22.0,0
2397,-258.0,24.0,-27.0,0
2398,-260.0,26.0,-29.0,0
2399,-257.0,23.0,-26.0,0
2400,-258.0,25.0,-23.0,0
2401,-258.0,24.0,-21.0,0
2402,-258.0,23.0,-23.0,0
2403,-260.0,24.0,-21.0,0
2404,-257.0,23.0,-25.0,0
2405,-257.0,20.0,-25.0,0
2406,-257.0,25.0,-23.0,0
2407,-258.0,25.0,-22.0,0
2408,-259.0,24.0,-27.0,0
2409,-258.0,24.0,-23.0,0
2410,-257.0,20.0,-20.0,0
2411,-255.0,22.0,-22.0,0
2412,-257.0,23.0,-20.0,0
2413,-257.0,23.0,-22.0,0
2414,-257.0,21.0,-20.0,0
2415,-256.0,19.0,-20.0,0
2416,-256.0,21.0,-20.0,0
2417,-256.0,22.0,-19.0,0
2418,-258.0,23.0,-20.0,0
2419,-255.0,19.0,-20.0,0
2420,-257.0,17.0,-20.0,0
2421,-259.0,20.0,-20.0,0
2422,-256.0,19.0,-21.0,0
2423,-257.0,20.0,-21.0,0
2424,-257.0,21.0,-24.0,0
2425,-257.0,20.0,-23.0,0
2426,-258.0,19.0,-24.0,0
2427,-259.0,19.0,-20.0,0
2428,-261.0,23.0,-21.0,0
2429,-256.0,21.0,-24.0,0
2430,-257.0,22.0,-24.0,0
2431,-257.0,22.0,-27.0,0
2432,-256.0,26.0,-23.0,0
2433,-253.0,22.0,-21.0,0
2434,-259.0,19.0,-20.0,0
2435,-255.0,14.0,-22.0,0
2436,-256.0,18.0,-19.0,0
2437,-256.0,15.0,-20.0,0
2438,-254.0,13.0,-21.0,0
2439,-258.0,16.0,-22.0,0
2440,-255.0,20.0,-20.0,0
2441,-255.0,18.0,-19.0,0
2442,-256.0,18.0,-20.0,0
2443,-255.0,19.0,-21.0,0
2444,-257.0,18.0,-19.0,0
2445,-257.0,19.0,-24.0,0
2446,-258.0,21.0,-22.0,0
2447,-256.0,21.0,-20.0,0
2448,-255.0,20.0,-21.0,0
2449,-257.0,22.0,-22.0,0
2450,-257.0,22.0,-20.0,0
2451,-255.0,22.0,-20.0,0
2452,-257.0,19.0,-21.0,0
2453,-258.0,18.0,-19.0,0
2454,-256.0,19.0,-21.0,0
2455,-258.0,22.0,-20.0,0
2456,-256.0,22.0,-21.0,0
2457,-258.0,21.0,-21.0,0
2458,-259.0,22.0,-20.0,0
2459,-257.0,18.0,-22.0,0
2460,-259.0,23.0,-21.0,0
2461,-260.0,22.0,-20.0,0
2462,-257.0,21.0,-23.0,0
2463,-260.0,20.0,-25.0,0
2464,-258.0,22.0,-23.0,0
2465,-257.0,24.0,-26.0,0
2466,-259.0,24.0,-23.0,0
2467,-258.0,21.0,-25.0,0
2468,-258.0,20.0,-23.0,0
2469,-260.0,23.0,-24.0,0
2470,-259.0,21.0,-22.0,0
2471,-258.0,23.0,-23.0,0
2472,-259.0,19.0,-24.0,0
2473,-259.0,23.0,-21.0,0
2474,-259.0,21.0,-29.0,0
2475,-257.0,22.0,-22.0,0
2476,-257.0,19.0,-21.0,0
2477,-257.0,20.0,-20.0,0
2478,-258.0,20.0,-19.0,0
2479,-257.0,20.0,-21.0,0
2480,-256.0,21.0,-21.0,0
2481,-258.0,24.0,-20.0,0
2482,-256.0,25.0,-19.0,0
2483,-258.0,21.0,-20.0,0
2484,-256.0,18.0,-20.0,0
2485,-256.0,20.0,-20.0,0
2486,-256.0,20.0,-20.0,0
2487,-256.0,21.0,-20.0,0
2488,-258.0,22.0,-20.0,0
2489,-257.0,19.0,-20.0,0
2490,-259.0,23.0,-23.0,0
2491,-259.0,21.0,-21.0,0
2492,-257.0,20.0,-22.0,0
2493,-258.0,23.0,-20.0,0
2494,-258.0,22.0,-22.0,0
2495,-258.0,21.0,-25.0,0
2496,-257.0,21.0,-23.0,0
2497,-256.0,22.0,-21.0,0
2498,-259.0,24.0,-23.0,0
2499,-257.0,24.0,-25.0,0
2500,-259.0,24.0,-25.0,0
2501,-261.0,22.0,-20.0,0
2502,-260.0,21.0,-23.0,0
2503,-259.0,23.0,-25.0,0
2504,-259.0,23.0,-22.0,0
2505,-258.0,21.0,-24.0,0
2506,-256.0,20.0,-28.0,0
2507,-259.0,22.0,-23.0,0
2508,-257.0,20.0,-21.0,0
2509,-259.0,20.0,-20.0,0
2510,-258.0,20.0,-20.0,0
2511,-258.0,18.0,-22.0,0
2512,-259.0,22.0,-23.0,0
2513,-257.0,18.0,-21.0,0
2514,-257.0,18.0,-25.0,0
2515,-258.0,19.0,-24.0,0
2516,-258.0,18.0,-23.0,0
2517,-257.0,16.0,-20.0,0
2518,-256.0,20.0,-20.0,0
2519,-254.0,21.0,-20.0,0
2520,-257.0,19.0,-18.0,0
2521,-257.0,20.0,-17.0,0
2522,-259.0,22.0,-18.0,0
2523,-258.0,21.0,-18.0,0
2524,-255.0,21.0,-20.0,0
2525,-256.0,19.0,-18.0,0
2526,-256.0,17.0,-19.0,0
2527,-256.0,17.0,-20.0,0
2528,-257.0,19.0,-17.0,0
2529,-256.0,17.0,-20.0,0
2530,-257.0,17.0,-19.0,0
2531,-256.0,18.0,-20.0,0
2532,-257.0,20.0,-22.0,0
2533,-258.0,22.0,-21.0,0
2534,-259.0,21.0,-23.0,0
2535,-260.0,20.0,-19.0,0
2536,-258.0,20.0,-18.0,0
2537,-260.0,18.0,-20.0,0
2538,-259.0,25.0,-22.0,0
2539,-259.0,21.0,-21.0,0
2540,-261.0,24.0,-21.0,0
2541,-261.0,20.0,-21.0,0
2542,-257.0,21.0,-20.0,0
2543,-257.0,22.0,-20.0,0
2544,-256.0,17.0,-22.0,0
2545,-258.0,20.0,-20.0,0
2546,-259.0,20.0,-18.0,0
2547,-256.0,20.0,-19.0,0
2548,-258.0,18.0,-20.0,0
2549,-255.0,16.0,-19.0,0
2550,-259.0,22.0,-22.0,0
2551,-257.0,22.0,-20.0,0
2552,-257.0,20.0,-20.0,0
2553,-258.0,21.0,-20.0,0
2554,-258.0,21.0,-22.0,0
2555,-257.0,22.0,-20.0,0
2556,-260.0,23.0,-19.0,0
2557,-259.0,22.0,-20.0,0
2558,-257.0,21.0,-22.0,0
2559,-258.0,22.0,-23.0,0
2560,-258.0,19.0,-19.0,0
2561,-259.0,22.0,-20.0,0
2562,-257.0,21.0,-20.0,0
2563,-259.0,23.0,-21.0,0
2564,-258.0,17.0,-19.0,0
2565,-257.0,23.0,-22.0,0
2566,-258.0,20.0,-20.0,0
2567,-258.0,19.0,-19.0,0
2568,-259.0,23.0,-22.0,0
2569,-257.0,22.0,-21.0,0
2570,-255.0,20.0,-20.0,0
2571,-256.0,22.0,-23.0,0
2572,-258.0,22.0,-21.0,0
2573,-256.0,22.0,-18.0,0
2574,-259.0,23.0,-20.0,0
2575,-257.0,19.0,-20.0,0
2576,-259.0,23.0,-19.0,0
2577,-260.0,24.0,-21.0,0
2578,-258.0,22.0,-19.0,0
2579,-256.0,25.0,-20.0,0
2580,-262.0,21.0,-19.0,0
2581,-258.0,22.0,-19.0,0
2582,-259.0,21.0,-21.0,0
2583,-255.0,19.0,-20.0,0
2584,-257.0,20.0,-18.0,0
2585,-257.0,20.0,-20.0,0
2586,-255.0,16.0,-18.0,0
2587,-256.0,16.0,-18.0,0
2588,-258.0,17.0,-19.0,0
2589,-256.0,20.0,-19.0,0
2590,-255.0,18.0,-18.0,0
2591,-255.0,18.0,-17.0,0
2592,-255.0,19.0,-20.0,0
2593,-258.0,22.0,-20.0,0
2594,-254.0,16.0,-18.0,0
2595,-256.0,18.0,-17.0,0
2596,-257.0,18.0,-21.0,0
2597,-258.0,20.0,-22.0,0
2598,-258.0,21.0,-22.0,0
2599,-255.0,20.0,-19.0,0
2600,-256.0,18.0,-20.0,0
2601,-257.0,23.0,-19.0,0
2602,-259.0,26.0,-19.0,0
2603,-257.0,24.0,-9.0,0
2604,-257.0,24.0,-19.0,0
2605,-260.0,23.0,-16.0,0
2606,-258.0,24.0,-18.0,0
2607,-256.0,24.0,-20.0,0
2608,-259.0,25.0,-19.0,0
2609,-256.0,21.0,-19.0,0
2610,-256.0,19.0,-19.0,0
2611,-257.0,23.0,-19.0,0
2612,-258.0,22.0,-16.0,0
2613,-259.0,20.0,-20.0,0
2614,-260.0,21.0,-20.0,0
2615,-259.0,22.0,-21.0,0
2616,-257.0,20.0,-27.0,0
2617,-258.0,21.0,-19.0,0
2618,-258.0,22.0,-21.0,0
2619,-257.0,23.0,-25.0,0
2620,-259.0,22.0,-20.0,0
2621,-259.0,22.0,-22.0,0
2622,-260.0,23.0,-22.0,0
2623,-257.0,21.0,-18.0,0
2624,-258.0,17.0,-18.0,0
2625,-257.0,19.0,-20.0,0
2626,-257.0,27.0,-20.0,0
2627,-259.0,23.0,-20.0,0
2628,-260.0,24.0,-19.0,0
2629,-259.0,23.0,-20.0,0
2630,-256.0,22.0,-18.0,0
2631,-258.0,20.0,-19.0,0
2632,-258.0,23.0,-20.0,0
2633,-257.0,19.0,-22.0,0
2634,-257.0,23.0,-20.0,0
2635,-258.0,25.0,-20.0,0
2636,-257.0,20.0,-22.0,0
2637,-257.0,22.0,-18.0,0
2638,-257.0,20.0,-20.0,0
2639,-257.0,19.0,-19.0,0
2640,-258.0,24.0,-18.0,0
2641,-256.0,23.0,-21.0,0
2642,-255.0,25.0,-20.0,0
2643,-257.0,21.0,-19.0,0
2644,-256.0,19.0,-19.0,0
2645,-257.0,21.0,-24.0,0
2646,-257.0,26.0,-21.0,0
2647,-258.0,22.0,-21.0,0
2648,-259.0,21.0,-20.0,0
2649,-260.0,20.0,-22.0,0
2650,-258.0,23.0,-22.0,0
2651,-256.0,19.0,-19.0,0
2652,-257.0,19.0,-20.0,0
2653,-257.0,19.0,-19.0,0
2654,-257.0,19.0,-18.0,0
2655,-255.0,18.0,-19.0,0
2656,-258.0,21.0,-21.0,0
2657,-256.0,22.0,-20.0,0
2658,-256.0,22.0,-19.0,0
2659,-256.0,22.0,-20.0,0
2660,-256.0,20.0,-18.0,0
2661,-256.0,21.0,-18.0,0
2662,-259.0,22.0,-22.0,0
2663,-257.0,18.0,-19.0,0
2664,-257.0,20.0,-20.0,0
2665,-257.0,22.0,-20.0,0
2666,-254.0,20.0,-21.0,0
2667,-256.0,21.0,-23.0,0
2668,-258.0,22.0,-21.0,0
2669,-263.0,23.0,-20.0,0
2670,-260.0,23.0,-21.0,0
2671,-257.0,22.0,-18.0,0
2672,-260.0,25.0,-20.0,0
2673,-261.0,22.0,-21.0,0
2674,-261.0,24.0,-20.0,0
2675,-257.0,23.0,-19.0,0
2676,-258.0,24.0,-18.0,0
2677,-257.0,22.0,-21.0,0
2678,-259.0,20.0,-22.0,0
2679,-259.0,19.0,-28.0,0
2680,-258.0,19.0,-28.0,0
2681,-257.0,24.0,-24.0,0
2682,-257.0,21.0,-25.0,0
2683,-256.0,24.0,-26.0,0
2684,-257.0,24.0,-27.0,0
2685,-257.0,23.0,-23.0,0
2686,-259.0,23.0,-22.0,0
2687,-259.0,22.0,-20.0,0
2688,-257.0,21.0,-21.0,0
2689,-262.0,28.0,-15.0,0
2690,-256.0,21.0,-17.0,0
2691,-257.0,24.0,-14.0,0
2692,-257.0,24.0,-15.0,0
2693,-255.0,23.0,-17.0,0
2694,-255.0,23.0,-14.0,0
2695,-260.0,20.0,-13.0,0
2696,-259.0,22.0,-15.0,0
2697,-253.0,19.0,-16.0,0
2698,-256.0,22.0,-19.0,0
2699,-256.0,20.0,-19.0,0
2700,-255.0,19.0,-18.0,0
2701,-257.0,20.0,-20.0,0
2702,-257.0,17.0,-21.0,0
2703,-260.0,22.0,-18.0,0
2704,-259.0,18.0,-20.0,0
2705,-256.0,19.0,-20.0,0
2706,-256.0,20.0,-18.0,0
2707,-256.0,20.0,-18.0,0
2708,-257.0,22.0,-17.0,0
2709,-257.0,20.0,-18.0,0
2710,-255.0,22.0,-19.0,0
2711,-259.0,22.0,-19.0,0
2712,-256.0,24.0,-17.0,0
2713,-257.0,24.0,-15.0,0
2714,-257.0,20.0,-20.0,0
2715,-258.0,21.0,-16.0,0
2716,-257.0,20.0,-21.0,0
2717,-257.0,21.0,-21.0,0
2718,-261.0,23.0,-23.0,0
2719,-260.0,23.0,-20.0,0
2720,-257.0,20.0,-25.0,0
2721,-260.0,22.0,-25.0,0
2722,-258.0,24.0,-20.0,0
2723,-259.0,24.0,-24.0,0
2724,-256.0,23.0,-25.0,0
2725,-257.0,20.0,-22.0,0
2726,-258.0,22.0,-21.0,0
2727,-258.0,24.0,-21.0,0
2728,-257.0,20.0,-23.0,0
2729,-256.0,23.0,-23.0,0
2730,-256.0,22.0,-22.0,0
2731,-259.0,25.0,-24.0,0
2732,-256.0,23.0,-23.0,0
2733,-257.0,22.0,-20.0,0
2734,-257.0,26.0,-22.0,0
2735,-258.0,25.0,-20.0,0
2736,-260.0,26.0,-20.0,0
2737,-257.0,26.0,-22.0,0
2738,-259.0,26.0,-25.0,0
2739,-258.0,24.0,-22.0,0
2740,-260.0,26.0,-21.0,0
2741,-258.0,25.0,-22.0,0
2742,-260.0,27.0,-24.0,0
2743,-261.0,27.0,-28.0,0
2744,-263.0,26.0,-27.0,0
2745,-263.0,27.0,-25.0,0
2746,-259.0,24.0,-33.0,0
2747,-259.0,22.0,-25.0,0
2748,-259.0,24.0,-21.0,0
2749,-258.0,20.0,-24.0,0
2750,-257.0,17.0,-22.0,0
2751,-253.0,17.0,-25.0,0
2752,-256.0,17.0,-25.0,0
2753,-257.0,16.0,-20.0,0
2754,-253.0,15.0,-20.0,0
2755,-256.0,16.0,-20.0,0
2756,-256.0,16.0,-18.0,0
2757,-255.0,17.0,-19.0,0
2758,-254.0,21.0,-20.0,0
2759,-256.0,20.0,-20.0,0
2760,-254.0,19.0,-18.0,0
2761,-255.0,23.0,-18.0,0
2762,-258.0,23.0,-17.0,0
2763,-257.0,25.0,-19.0,0
2764,-256.0,26.0,-21.0,0
2765,-256.0,23.0,-20.0,0
2766,-256.0,27.0,-22.0,0
2767,-258.0,22.0,-20.0,0
2768,-256.0,25.0,-20.0,0
2769,-255.0,24.0,-20.0,0
2770,-257.0,27.0,-20.0,0
2771,-256.0,23.0,-20.0,0
2772,-259.0,28.0,-22.0,0
2773,-256.0,24.0,-21.0,0
2774,-260.0,26.0,-21.0,0
2775,-259.0,26.0,-21.0,0
2776,-257.0,25.0,-24.0,0
2777,-257.0,25.0,-20.0,0
2778,-258.0,28.0,-22.0,0
2779,-259.0,24.0,-23.0,0
2780,-259.0,25.0,-22.0,0
2781,-263.0,25.0,-24.0,0
2782,-258.0,23.0,-29.0,0
2783,-260.0,24.0,-24.0,0
2784,-260.0,26.0,-25.0,0
2785,-266.0,16.0,-24.0,0
2786,-258.0,26.0,-25.0,0
2787,-259.0,25.0,-28.0,0
2788,-257.0,26.0,-27.0,0
2789,-259.0,28.0,-24.0,0
2790,-257.0,24.0,-25.0,0
2791,-260.0,26.0,-22.0,0
2792,-256.0,28.0,-30.0,0
2793,-257.0,29.0,-27.0,0
2794,-257.0,24.0,-31.0,0
2795,-256.0,23.0,-25.0,0
2796,-256.0,19.0,-25.0,0
2797,-260.0,27.0,-19.0,0
2798,-257.0,21.0,-26.0,0
2799,-264.0,26.0,-25.0,0
2800,-258.0,23.0,-18.0,0
2801,-261.0,22.0,-24.0,0
2802,-257.0,25.0,-20.0,0
2803,-261.0,28.0,-21.0,0
2804,-255.0,23.0,-22.0,0
2805,-260.0,22.0,-27.0,0
2806,-257.0,23.0,-22.0,0
2807,-256.0,20.0,-18.0,0
2808,-256.0,20.0,-19.0,0
2809,-256.0,21.0,-20.0,0
2810,-258.0,1.0,-14.0,0
2811,-254.0,16.0,-12.0,0
2812,-258.0,30.0,-15.0,0
2813,-255.0,21.0,-29.0,0
2814,-259.0,25.0,-30.0,0
2815,-246.0,27.0,-19.0,0
2816,-248.0,23.0,-21.0,0
2817,-250.0,21.0,-14.0,0
2818,-266.0,32.0,-15.0,0
2819,-242.0,18.0,-27.0,0
2820,-258.0,19.0,-17.0,0
2821,-256.0,21.0,-20.0,0
2822,-257.0,23.0,-21.0,0
2823,-256.0,26.0,-20.0,0
2824,-257.0,27.0,-20.0,0
2825,-257.0,32.0,-26.0,0
2826,-259.0,27.0,-23.0,0
2827,-258.0,20.0,-26.0,0
2828,-256.0,18.0,-22.0,0
2829,-244.0,28.0,-27.0,0
2830,-269.0,15.0,-15.0,0
2831,-261.0,37.0,-20.0,0
2832,-254.0,29.0,-17.0,0
2833,-253.0,17.0,-28.0,0
2834,-260.0,19.0,-24.0,0
2835,-253.0,27.0,-26.0,0
2836,-258.0,22.0,-26.0,0
2837,-258.0,23.0,-23.0,0
2838,-256.0,26.0,-21.0,0
2839,-258.0,23.0,-24.0,0
2840,-257.0,19.0,-27.0,0
2841,-258.0,27.0,-18.0,0
2842,-259.0,14.0,-18.0,0
2843,-258.0,22.0,-31.0,0
2844,-262.0,22.0,-26.0,0
2845,-252.0,27.0,-20.0,0
2846,-270.0,25.0,-14.0,0
2847,-243.0,23.0,-17.0,0
2848,-258.0,30.0,-24.0,0
2849,-266.0,26.0,-24.0,0
2850,-252.0,24.0,-20.0,0
2851,-256.0,25.0,-22.0,0
2852,-256.0,22.0,-20.0,0
2853,-255.0,22.0,-20.0,0
2854,-256.0,24.0,-18.0,0
2855,-260.0,21.0,-22.0,0
2856,-247.0,11.0,-5.0,0
2857,-262.0,22.0,-13.0,0
2858,-264.0,17.0,-19.0,0
2859,-261.0,20.0,-21.0,0
2860,-254.0,20.0,-28.0,0
2861,-241.0,43.0,-31.0,0
2862,-262.0,34.0,-24.0,0
2863,-256.0,23.0,-33.0,0
2864,-263.0,22.0,-23.0,0
2865,-255.0,22.0,-14.0,0
2866,-256.0,20.0,-21.0,0
2867,-256.0,17.0,-23.0,0
2868,-252.0,19.0,-19.0,0
2869,-256.0,18.0,-20.0,0
2870,-251.0,25.0,-33.0,0
2871,-260.0,24.0,-13.0,0
2872,-261.0,21.0,-17.0,0
2873,-258.0,29.0,-28.0,0
2874,-256.0,23.0,-32.0,0
2875,-245.0,26.0,-13.0,0
2876,-260.0,19.0,-22.0,0
2877,-255.0,18.0,-16.0,0
2878,-260.0,25.0,-17.0,0
2879,-257.0,23.0,-25.0,0
2880,-253.0,23.0,-19.0,0
2881,-256.0,23.0,-20.0,0
2882,-258.0,23.0,-19.0,0
2883,-256.0,21.0,-22.0,0
2884,-257.0,24.0,-22.0,0
2885,-255.0,30.0,-20.0,0
2886,-259.0,31.0,-33.0,0
2887,-259.0,21.0,-17.0,0
2888,-261.0,22.0,-21.0,0
2889,-258.0,29.0,-30.0,0
2890,-258.0,24.0,-22.0,0
2891,-259.0,24.0,-23.0,0
2892,-261.0,29.0,-27.0,0
2893,-261.0,29.0,-24.0,0
2894,-246.0,23.0,-18.0,0
2895,-258.0,24.0,-22.0,0
2896,-256.0,24.0,-24.0,0
2897,-260.0,26.0,-25.0,0
2898,-258.0,22.0,-26.0,0
2899,-265.0,26.0,-32.0,0
2900,-257.0,24.0,-25.0,0
2901,-258.0,25.0,-29.0,0
2902,-258.0,27.0,-22.0,0
2903,-258.0,27.0,-28.0,0
2904,-257.0,26.0,-27.0,0
2905,-258.0,27.0,-26.0,0
2906,-259.0,25.0,-27.0,0
2907,-260.0,27.0,-27.0,0
2908,-263.0,28.0,-17.0,0
2909,-258.0,26.0,-26.0,0
2910,-258.0,24.0,-28.0,0
2911,-260.0,23.0,-26.0,0
2912,-260.0,22.0,-26.0,0
2913,-244.0,33.0,-16.0,0
2914,-257.0,23.0,-27.0,0
2915,-256.0,24.0,-25.0,0
2916,-257.0,25.0,-24.0,0
2917,-257.0,23.0,-20.0,0
2918,-256.0,23.0,-25.0,0
2919,-257.0,24.0,-25.0,0
2920,-256.0,24.0,-23.0,0
2921,-255.0,21.0,-23.0,0
2922,-256.0,23.0,-27.0,0
2923,-257.0,26.0,-22.0,0
2924,-257.0,20.0,-20.0,0
2925,-257.0,21.0,-20.0,0
2926,-257.0,24.0,-23.0,0
2927,-256.0,23.0,-25.0,0
2928,-258.0,23.0,-21.0,0
2929,-258.0,21.0,-24.0,0
2930,-258.0,23.0,-21.0,0
2931,-257.0,23.0,-21.0,0
2932,-256.0,21.0,-22.0,0
2933,-256.0,22.0,-25.0,0
2934,-257.0,23.0,-23.0,0
2935,-255.0,23.0,-20.0,0
2936,-256.0,23.0,-22.0,0
2937,-257.0,20.0,-20.0,0
2938,-258.0,21.0,-23.0,0
2939,-257.0,23.0,-20.0,0
2940,-256.0,21.0,-20.0,0
2941,-258.0,24.0,-19.0,0
2942,-256.0,24.0,-20.0,0
2943,-257.0,24.0,-20.0,0
2944,-257.0,17.0,-21.0,0
2945,-257.0,26.0,-22.0,0
2946,-258.0,23.0,-21.0,0
2947,-256.0,21.0,-20.0,0
2948,-256.0,23.0,-18.0,0
2949,-256.0,24.0,-20.0,0
2950,-256.0,23.0,-25.0,0
2951,-257.0,22.0,-18.0,0
2952,-256.0,18.0,-22.0,0
2953,-258.0,24.0,-22.0,0
2954,-258.0,21.0,-20.0,0
2955,-257.0,21.0,-25.0,0
2956,-258.0,24.0,-22.0,0
2957,-256.0,21.0,-21.0,0
2958,-257.0,23.0,-21.0,0
2959,-259.0,25.0,-20.0,0
2960,-257.0,25.0,-23.0,0
2961,-256.0,22.0,-22.0,0
2962,-259.0,23.0,-21.0,0
2963,-259.0,22.0,-18.0,0
2964,-258.0,26.0,-21.0,0
2965,-257.0,23.0,-21.0,0
2966,-256.0,22.0,-19.0,0
2967,-256.0,23.0,-21.0,0
2968,-256.0,25.0,-20.0,0
2969,-258.0,24.0,-20.0,0
2970,-258.0,22.0,-23.0,0
2971,-259.0,25.0,-23.0,0
2972,-257.0,24.0,-18.0,0
2973,-256.0,27.0,-20.0,0
2974,-256.0,23.0,-22.0,0
2975,-257.0,24.0,-23.0,0
2976,-258.0,25.0,-21.0,0
2977,-256.0,22.0,-20.0,0
2978,-258.0,26.0,-23.0,0
2979,-257.0,23.0,-24.0,0
2980,-257.0,24.0,-23.0,0
2981,-258.0,23.0,-19.0,0
2982,-259.0,23.0,-21.0,0
2983,-260.0,26.0,-22.0,0
2984,-257.0,22.0,-23.0,0
2985,-259.0,24.0,-21.0,0
2986,-258.0,23.0,-20.0,0
2987,-255.0,17.0,-8.0,0
2988,-256.0,24.0,-25.0,0
2989,-256.0,24.0,-22.0,0
2990,-258.0,22.0,-25.0,0
2991,-257.0,25.0,-23.0,0
2992,-256.0,22.0,-29.0,0
2993,-258.0,21.0,-22.0,0
2994,-256.0,24.0,-27.0,0
2995,-258.0,24.0,-25.0,0
2996,-258.0,27.0,-28.0,0
2997,-256.0,22.0,-26.0,0
2998,-261.0,24.0,-25.0,0
2999,-256.0,23.0,-23.0,0
