,accelerometer_x,accelerometer_y,accelerometer_z,fall
0,-13.0,-223.0,85.0,0
1,-10.0,-224.0,82.0,0
2,-12.0,-219.0,79.0,0
3,-12.0,-219.0,83.0,0
4,-12.0,-215.0,78.0,0
5,-9.0,-219.0,79.0,0
6,-9.0,-216.0,81.0,0
7,-10.0,-216.0,79.0,0
8,-9.0,-214.0,76.0,0
9,-9.0,-215.0,78.0,0
10,-11.0,-216.0,82.0,0
11,-12.0,-216.0,78.0,0
12,-11.0,-219.0,80.0,0
13,-11.0,-219.0,79.0,0
14,-7.0,-226.0,81.0,0
15,-10.0,-225.0,84.0,0
16,-9.0,-228.0,78.0,0
17,-12.0,-226.0,81.0,0
18,-9.0,-229.0,82.0,0
19,-9.0,-229.0,83.0,0
20,-10.0,-229.0,77.0,0
21,-8.0,-232.0,79.0,0
22,-7.0,-231.0,81.0,0
23,-8.0,-228.0,78.0,0
24,-7.0,-227.0,80.0,0
25,-6.0,-221.0,81.0,0
26,-10.0,-226.0,87.0,0
27,-4.0,-225.0,82.0,0
28,-7.0,-219.0,82.0,0
29,-7.0,-224.0,88.0,0
30,-8.0,-221.0,86.0,0
31,-6.0,-219.0,84.0,0
32,-7.0,-222.0,83.0,0
33,-8.0,-218.0,83.0,0
34,-7.0,-216.0,83.0,0
35,-8.0,-218.0,84.0,0
36,-7.0,-220.0,82.0,0
37,-9.0,-218.0,87.0,0
38,-8.0,-217.0,90.0,0
39,-7.0,-219.0,86.0,0
40,-10.0,-218.0,82.0,0
41,-12.0,-218.0,86.0,0
42,-11.0,-219.0,86.0,0
43,-8.0,-221.0,87.0,0
44,-9.0,-218.0,85.0,0
45,-10.0,-223.0,81.0,0
46,-11.0,-219.0,81.0,0
47,-13.0,-221.0,80.0,0
48,-10.0,-222.0,85.0,0
49,-9.0,-221.0,85.0,0
50,-9.0,-224.0,79.0,0
51,-9.0,-225.0,81.0,0
52,-11.0,-222.0,80.0,0
53,-9.0,-227.0,84.0,0
54,-10.0,-225.0,80.0,0
55,-12.0,-224.0,83.0,0
56,-9.0,-225.0,82.0,0
57,-10.0,-224.0,85.0,0
58,-11.0,-221.0,85.0,0
59,-10.0,-224.0,83.0,0
60,-9.0,-225.0,83.0,0
61,-10.0,-226.0,84.0,0
62,-11.0,-225.0,80.0,0
63,-10.0,-224.0,81.0,0
64,-9.0,-226.0,81.0,0
65,-10.0,-222.0,83.0,0
66,-9.0,-226.0,83.0,0
67,-9.0,-225.0,78.0,0
68,-10.0,-225.0,76.0,0
69,-9.0,-223.0,79.0,0
70,-10.0,-225.0,80.0,0
71,-9.0,-224.0,81.0,0
72,-7.0,-223.0,79.0,0
73,-11.0,-225.0,78.0,0
74,-9.0,-223.0,81.0,0
75,-6.0,-224.0,83.0,0
76,-9.0,-223.0,76.0,0
77,-10.0,-222.0,82.0,0
78,-7.0,-224.0,80.0,0
79,-9.0,-219.0,84.0,0
80,-8.0,-220.0,80.0,0
81,-7.0,-223.0,84.0,0
82,-9.0,-222.0,83.0,0
83,-9.0,-224.0,82.0,0
84,-11.0,-224.0,84.0,0
85,-11.0,-227.0,85.0,0
86,-10.0,-224.0,86.0,0
87,-10.0,-224.0,83.0,0
88,-11.0,-224.0,87.0,0
89,-10.0,-225.0,82.0,0
90,-7.0,-225.0,79.0,0
91,-12.0,-223.0,82.0,0
92,-10.0,-224.0,81.0,0
93,-12.0,-219.0,80.0,0
94,-13.0,-219.0,80.0,0
95,-12.0,-222.0,78.0,0
96,-13.0,-220.0,74.0,0
97,-9.0,-222.0,79.0,0
98,-10.0,-220.0,77.0,0
99,-11.0,-222.0,78.0,0
100,-13.0,-223.0,79.0,0
101,-12.0,-224.0,79.0,0
102,-12.0,-224.0,78.0,0
103,-12.0,-224.0,80.0,0
104,-16.0,-226.0,83.0,0
105,-13.0,-226.0,79.0,0
106,-15.0,-230.0,81.0,0
107,-14.0,-224.0,80.0,0
108,-14.0,-227.0,84.0,0
109,-12.0,-223.0,82.0,0
110,-13.0,-223.0,83.0,0
111,-11.0,-226.0,79.0,0
112,-15.0,-223.0,84.0,0
113,-14.0,-225.0,80.0,0
114,-13.0,-222.0,81.0,0
115,-12.0,-223.0,80.0,0
116,-12.0,-221.0,77.0,0
117,-11.0,-223.0,77.0,0
118,-13.0,-223.0,78.0,0
119,-14.0,-225.0,80.0,0
120,-9.0,-224.0,79.0,0
121,-8.0,-224.0,77.0,0
122,-11.0,-228.0,80.0,0
123,-8.0,-229.0,80.0,0
124,-9.0,-227.0,82.0,0
125,-12.0,-228.0,81.0,0
126,-10.0,-229.0,81.0,0
127,-11.0,-228.0,77.0,0
128,-10.0,-231.0,80.0,0
129,-8.0,-231.0,78.0,0
130,-7.0,-231.0,78.0,0
131,-10.0,-228.0,75.0,0
132,-8.0,-229.0,78.0,0
133,-4.0,-230.0,76.0,0
134,-7.0,-228.0,73.0,0
135,-6.0,-225.0,75.0,0
136,-8.0,-222.0,73.0,0
137,-6.0,-223.0,73.0,0
138,-6.0,-221.0,77.0,0
139,-8.0,-220.0,74.0,0
140,-6.0,-222.0,75.0,0
141,-3.0,-224.0,73.0,0
142,-9.0,-224.0,73.0,0
143,-6.0,-226.0,74.0,0
144,-8.0,-229.0,75.0,0
145,-7.0,-230.0,73.0,0
146,-5.0,-231.0,77.0,0
147,-10.0,-231.0,75.0,0
148,-10.0,-234.0,78.0,0
149,-7.0,-233.0,74.0,0
150,-6.0,-231.0,72.0,0
151,-10.0,-230.0,74.0,0
152,-9.0,-231.0,74.0,0
153,-8.0,-228.0,73.0,0
154,-10.0,-231.0,74.0,0
155,-7.0,-227.0,72.0,0
156,-12.0,-227.0,71.0,0
157,-9.0,-227.0,70.0,0
158,-9.0,-225.0,71.0,0
159,-10.0,-225.0,72.0,0
160,-10.0,-227.0,73.0,0
161,-9.0,-226.0,73.0,0
162,-11.0,-225.0,71.0,0
163,-11.0,-226.0,75.0,0
164,-12.0,-223.0,75.0,0
165,-11.0,-225.0,74.0,0
166,-10.0,-224.0,75.0,0
167,-13.0,-220.0,75.0,0
168,-10.0,-224.0,75.0,0
169,-14.0,-223.0,73.0,0
170,-12.0,-224.0,73.0,0
171,-14.0,-223.0,74.0,0
172,-11.0,-225.0,74.0,0
173,-9.0,-224.0,74.0,0
174,-6.0,-224.0,73.0,0
175,-12.0,-225.0,77.0,0
176,-11.0,-225.0,76.0,0
177,-9.0,-229.0,73.0,0
178,-11.0,-226.0,77.0,0
179,-11.0,-232.0,76.0,0
180,-10.0,-235.0,75.0,0
181,-8.0,-236.0,74.0,0
182,-12.0,-237.0,76.0,0
183,-9.0,-239.0,75.0,0
184,-13.0,-236.0,77.0,0
185,-10.0,-236.0,74.0,0
186,-8.0,-240.0,76.0,0
187,-10.0,-236.0,72.0,0
188,-12.0,-236.0,74.0,0
189,-11.0,-234.0,73.0,0
190,-9.0,-234.0,71.0,0
191,-11.0,-234.0,71.0,0
192,-7.0,-233.0,70.0,0
193,-12.0,-231.0,70.0,0
194,-9.0,-229.0,71.0,0
195,-9.0,-227.0,72.0,0
196,-10.0,-224.0,69.0,0
197,-10.0,-224.0,72.0,0
198,-10.0,-225.0,69.0,0
199,-9.0,-228.0,68.0,0
200,-9.0,-224.0,70.0,0
201,-12.0,-225.0,72.0,0
202,-14.0,-224.0,69.0,0
203,-12.0,-229.0,72.0,0
204,-13.0,-230.0,72.0,0
205,-12.0,-228.0,74.0,0
206,-12.0,-233.0,70.0,0
207,-12.0,-231.0,75.0,0
208,-15.0,-230.0,73.0,0
209,-14.0,-230.0,73.0,0
210,-15.0,-229.0,76.0,0
211,-15.0,-233.0,67.0,0
212,-13.0,-230.0,70.0,0
213,-12.0,-230.0,69.0,0
214,-13.0,-232.0,72.0,0
215,-14.0,-229.0,72.0,0
216,-12.0,-229.0,71.0,0
217,-10.0,-229.0,72.0,0
218,-10.0,-229.0,74.0,0
219,-10.0,-229.0,73.0,0
220,-11.0,-230.0,72.0,0
221,-7.0,-230.0,75.0,0
222,-7.0,-226.0,75.0,0
223,-7.0,-226.0,73.0,0
224,-7.0,-227.0,76.0,0
225,-5.0,-226.0,74.0,0
226,-5.0,-228.0,73.0,0
227,-4.0,-228.0,72.0,0
228,-6.0,-227.0,70.0,0
229,-7.0,-226.0,71.0,0
230,-3.0,-227.0,75.0,0
231,-4.0,-226.0,73.0,0
232,-4.0,-223.0,75.0,0
233,-10.0,-225.0,73.0,0
234,-5.0,-224.0,74.0,0
235,-4.0,-226.0,77.0,0
236,-4.0,-226.0,77.0,0
237,-6.0,-226.0,73.0,0
238,-1.0,-229.0,77.0,0
239,-2.0,-227.0,74.0,0
240,-5.0,-228.0,77.0,0
241,-3.0,-227.0,76.0,0
242,-2.0,-228.0,77.0,0
243,0.0,-229.0,73.0,0
244,-2.0,-227.0,73.0,0
245,-6.0,-227.0,76.0,0
246,-5.0,-227.0,72.0,0
247,-8.0,-229.0,72.0,0
248,-4.0,-231.0,74.0,0
249,-8.0,-229.0,72.0,0
250,-5.0,-228.0,74.0,0
251,-9.0,-228.0,73.0,0
252,-8.0,-227.0,74.0,0
253,-8.0,-227.0,73.0,0
254,-8.0,-226.0,73.0,0
255,-8.0,-230.0,76.0,0
256,-6.0,-228.0,75.0,0
257,-8.0,-226.0,72.0,0
258,-9.0,-230.0,73.0,0
259,-8.0,-226.0,73.0,0
260,-7.0,-226.0,70.0,0
261,-8.0,-225.0,76.0,0
262,-8.0,-226.0,71.0,0
263,-6.0,-227.0,70.0,0
264,-10.0,-226.0,71.0,0
265,-9.0,-227.0,73.0,0
266,-6.0,-226.0,71.0,0
267,-4.0,-225.0,74.0,0
268,-8.0,-226.0,72.0,0
269,-9.0,-228.0,73.0,0
270,-10.0,-227.0,70.0,0
271,-7.0,-229.0,70.0,0
272,-7.0,-230.0,72.0,0
273,-8.0,-229.0,72.0,0
274,-9.0,-227.0,72.0,0
275,-5.0,-230.0,76.0,0
276,-6.0,-229.0,73.0,0
277,-4.0,-225.0,68.0,0
278,-9.0,-229.0,69.0,0
279,-8.0,-231.0,70.0,0
280,-9.0,-230.0,73.0,0
281,-10.0,-229.0,72.0,0
282,-11.0,-231.0,73.0,0
283,-8.0,-230.0,73.0,0
284,-9.0,-230.0,71.0,0
285,-12.0,-226.0,75.0,0
286,-9.0,-230.0,74.0,0
287,-9.0,-230.0,75.0,0
288,-14.0,-227.0,74.0,0
289,-13.0,-224.0,74.0,0
290,-15.0,-228.0,74.0,0
291,-12.0,-225.0,72.0,0
292,-13.0,-227.0,72.0,0
293,-15.0,-226.0,70.0,0
294,-14.0,-227.0,71.0,0
295,-15.0,-226.0,71.0,0
296,-14.0,-225.0,74.0,0
297,-14.0,-228.0,70.0,0
298,-12.0,-227.0,73.0,0
299,-9.0,-230.0,71.0,0
300,-14.0,-227.0,73.0,0
301,-15.0,-228.0,74.0,0
302,-12.0,-231.0,73.0,0
303,-14.0,-228.0,73.0,0
304,-13.0,-234.0,72.0,0
305,-14.0,-233.0,72.0,0
306,-10.0,-231.0,74.0,0
307,-11.0,-230.0,76.0,0
308,-12.0,-233.0,74.0,0
309,-11.0,-234.0,70.0,0
310,-11.0,-231.0,73.0,0
311,-11.0,-227.0,71.0,0
312,-11.0,-232.0,72.0,0
313,-12.0,-230.0,72.0,0
314,-15.0,-230.0,74.0,0
315,-14.0,-232.0,70.0,0
316,-15.0,-229.0,73.0,0
317,-12.0,-229.0,70.0,0
318,-15.0,-229.0,69.0,0
319,-13.0,-227.0,68.0,0
320,-11.0,-228.0,74.0,0
321,-14.0,-229.0,71.0,0
322,-13.0,-232.0,69.0,0
323,-14.0,-227.0,71.0,0
324,-14.0,-231.0,71.0,0
325,-15.0,-229.0,71.0,0
326,-16.0,-229.0,71.0,0
327,-15.0,-230.0,71.0,0
328,-15.0,-231.0,73.0,0
329,-16.0,-227.0,73.0,0
330,-16.0,-229.0,72.0,0
331,-16.0,-231.0,71.0,0
332,-16.0,-229.0,72.0,0
333,-18.0,-228.0,70.0,0
334,-17.0,-225.0,71.0,0
335,-21.0,-227.0,74.0,0
336,-16.0,-227.0,72.0,0
337,-21.0,-223.0,76.0,0
338,-18.0,-226.0,73.0,0
339,-20.0,-228.0,74.0,0
340,-22.0,-227.0,72.0,0
341,-19.0,-228.0,74.0,0
342,-21.0,-221.0,77.0,0
343,-22.0,-225.0,72.0,0
344,-17.0,-227.0,74.0,0
345,-19.0,-227.0,75.0,0
346,-22.0,-228.0,72.0,0
347,-22.0,-226.0,73.0,0
348,-20.0,-228.0,74.0,0
349,-21.0,-229.0,73.0,0
350,-23.0,-229.0,74.0,0
351,-18.0,-228.0,70.0,0
352,-20.0,-226.0,72.0,0
353,-20.0,-227.0,71.0,0
354,-19.0,-227.0,69.0,0
355,-22.0,-225.0,68.0,0
356,-24.0,-226.0,69.0,0
357,-19.0,-226.0,66.0,0
358,-19.0,-228.0,69.0,0
359,-20.0,-224.0,68.0,0
360,-18.0,-227.0,66.0,0
361,-24.0,-227.0,67.0,0
362,-24.0,-227.0,67.0,0
363,-23.0,-230.0,72.0,0
364,-25.0,-228.0,73.0,0
365,-24.0,-232.0,72.0,0
366,-23.0,-232.0,72.0,0
367,-27.0,-232.0,72.0,0
368,-26.0,-234.0,76.0,0
369,-24.0,-239.0,75.0,0
370,-25.0,-235.0,74.0,0
371,-25.0,-234.0,68.0,0
372,-28.0,-234.0,72.0,0
373,-27.0,-235.0,69.0,0
374,-25.0,-235.0,69.0,0
375,-26.0,-230.0,64.0,0
376,-28.0,-230.0,62.0,0
377,-29.0,-228.0,65.0,0
378,-29.0,-226.0,62.0,0
379,-33.0,-225.0,60.0,0
380,-33.0,-226.0,62.0,0
381,-30.0,-227.0,62.0,0
382,-31.0,-226.0,63.0,0
383,-32.0,-228.0,61.0,0
384,-32.0,-232.0,70.0,0
385,-32.0,-231.0,62.0,0
386,-40.0,-234.0,60.0,0
387,-36.0,-232.0,67.0,0
388,-37.0,-235.0,69.0,0
389,-36.0,-237.0,71.0,0
390,-36.0,-235.0,70.0,0
391,-38.0,-235.0,66.0,0
392,-41.0,-234.0,64.0,0
393,-40.0,-232.0,64.0,0
394,-39.0,-231.0,68.0,0
395,-41.0,-230.0,67.0,0
396,-41.0,-230.0,67.0,0
397,-40.0,-232.0,69.0,0
398,-39.0,-236.0,68.0,0
399,-42.0,-231.0,66.0,0
400,-40.0,-232.0,72.0,0
401,-41.0,-232.0,66.0,0
402,-47.0,-231.0,66.0,0
403,-46.0,-229.0,68.0,0
404,-45.0,-227.0,64.0,0
405,-48.0,-224.0,64.0,0
406,-48.0,-224.0,59.0,0
407,-48.0,-223.0,60.0,0
408,-48.0,-221.0,56.0,0
409,-48.0,-225.0,58.0,0
410,-49.0,-224.0,61.0,0
411,-46.0,-225.0,64.0,0
412,-46.0,-225.0,64.0,0
413,-49.0,-228.0,68.0,0
414,-51.0,-229.0,68.0,0
415,-50.0,-229.0,66.0,0
416,-53.0,-231.0,67.0,0
417,-54.0,-230.0,63.0,0
418,-56.0,-235.0,61.0,0
419,-55.0,-231.0,62.0,0
420,-57.0,-232.0,62.0,0
421,-57.0,-233.0,63.0,0
422,-58.0,-232.0,62.0,0
423,-56.0,-232.0,60.0,0
424,-58.0,-233.0,59.0,0
425,-62.0,-229.0,56.0,0
426,-61.0,-227.0,55.0,0
427,-65.0,-227.0,57.0,0
428,-64.0,-223.0,57.0,0
429,-64.0,-213.0,54.0,0
430,-66.0,-222.0,56.0,0
431,-68.0,-222.0,57.0,0
432,-66.0,-221.0,58.0,0
433,-71.0,-222.0,59.0,0
434,-67.0,-224.0,61.0,0
435,-71.0,-224.0,59.0,0
436,-75.0,-227.0,62.0,0
437,-74.0,-229.0,61.0,0
438,-75.0,-227.0,58.0,0
439,-76.0,-231.0,60.0,0
440,-78.0,-230.0,58.0,0
441,-76.0,-228.0,57.0,0
442,-76.0,-233.0,55.0,0
443,-79.0,-230.0,56.0,0
444,-80.0,-229.0,55.0,0
445,-80.0,-226.0,58.0,0
446,-81.0,-227.0,56.0,0
447,-81.0,-227.0,55.0,0
448,-82.0,-224.0,56.0,0
449,-81.0,-228.0,52.0,0
450,-85.0,-221.0,53.0,0
451,-75.0,-218.0,60.0,0
452,-83.0,-218.0,55.0,0
453,-84.0,-219.0,53.0,0
454,-82.0,-218.0,57.0,0
455,-82.0,-217.0,54.0,0
456,-83.0,-217.0,55.0,0
457,-81.0,-215.0,54.0,0
458,-81.0,-218.0,58.0,0
459,-81.0,-217.0,58.0,0
460,-81.0,-213.0,58.0,0
461,-80.0,-218.0,61.0,0
462,-80.0,-220.0,58.0,0
463,-80.0,-222.0,56.0,0
464,-79.0,-222.0,58.0,0
465,-80.0,-224.0,59.0,0
466,-81.0,-225.0,62.0,0
467,-80.0,-225.0,62.0,0
468,-80.0,-226.0,63.0,0
469,-81.0,-225.0,63.0,0
470,-81.0,-226.0,66.0,0
471,-85.0,-222.0,58.0,0
472,-83.0,-219.0,61.0,0
473,-93.0,-218.0,69.0,0
474,-90.0,-216.0,63.0,0
475,-89.0,-217.0,62.0,0
476,-92.0,-212.0,57.0,0
477,-90.0,-213.0,56.0,0
478,-90.0,-211.0,57.0,0
479,-93.0,-207.0,56.0,0
480,-93.0,-210.0,58.0,0
481,-94.0,-211.0,58.0,0
482,-92.0,-214.0,55.0,0
483,-96.0,-211.0,56.0,0
484,-95.0,-213.0,53.0,0
485,-96.0,-213.0,57.0,0
486,-98.0,-210.0,56.0,0
487,-97.0,-213.0,53.0,0
488,-100.0,-210.0,60.0,0
489,-103.0,-213.0,60.0,0
490,-106.0,-211.0,61.0,0
491,-104.0,-211.0,62.0,0
492,-106.0,-214.0,60.0,0
493,-106.0,-212.0,54.0,0
494,-106.0,-217.0,49.0,0
495,-109.0,-214.0,59.0,0
496,-106.0,-214.0,57.0,0
497,-104.0,-214.0,52.0,0
498,-107.0,-214.0,52.0,0
499,-105.0,-213.0,43.0,0
500,-106.0,-209.0,43.0,0
501,-103.0,-210.0,44.0,0
502,-106.0,-207.0,46.0,0
503,-105.0,-203.0,41.0,0
504,-105.0,-202.0,41.0,0
505,-102.0,-202.0,36.0,0
506,-107.0,-199.0,44.0,0
507,-108.0,-200.0,37.0,0
508,-108.0,-200.0,41.0,0
509,-110.0,-200.0,41.0,0
510,-114.0,-201.0,47.0,0
511,-120.0,-204.0,45.0,0
512,-119.0,-201.0,46.0,0
513,-123.0,-202.0,47.0,0
514,-124.0,-201.0,46.0,0
515,-123.0,-203.0,43.0,0
516,-128.0,-199.0,38.0,0
517,-128.0,-200.0,43.0,0
518,-135.0,-200.0,42.0,0
519,-135.0,-199.0,35.0,0
520,-139.0,-201.0,40.0,0
521,-140.0,-201.0,35.0,0
522,-147.0,-196.0,36.0,0
523,-147.0,-197.0,36.0,0
524,-147.0,-196.0,35.0,0
525,-148.0,-197.0,41.0,0
526,-150.0,-197.0,42.0,0
527,-148.0,-199.0,43.0,0
528,-152.0,-199.0,47.0,0
529,-150.0,-200.0,48.0,0
530,-151.0,-193.0,49.0,0
531,-148.0,-198.0,50.0,0
532,-148.0,-193.0,52.0,0
533,-147.0,-193.0,49.0,0
534,-143.0,-191.0,51.0,0
535,-143.0,-189.0,54.0,0
536,-140.0,-187.0,49.0,0
537,-135.0,-183.0,49.0,0
538,-142.0,-184.0,45.0,0
539,-140.0,-184.0,44.0,0
540,-142.0,-182.0,47.0,0
541,-143.0,-183.0,44.0,0
542,-144.0,-181.0,40.0,0
543,-142.0,-181.0,38.0,0
544,-144.0,-182.0,38.0,0
545,-146.0,-180.0,37.0,0
546,-147.0,-180.0,29.0,0
547,-147.0,-180.0,34.0,0
548,-148.0,-178.0,24.0,0
549,-152.0,-181.0,32.0,0
550,-152.0,-177.0,35.0,0
551,-157.0,-177.0,32.0,0
552,-156.0,-178.0,36.0,0
553,-158.0,-179.0,35.0,0
554,-156.0,-179.0,38.0,0
555,-160.0,-177.0,37.0,0
556,-161.0,-179.0,35.0,0
557,-161.0,-178.0,42.0,0
558,-162.0,-175.0,41.0,0
559,-162.0,-176.0,41.0,0
560,-164.0,-177.0,41.0,0
561,-166.0,-175.0,35.0,0
562,-170.0,-175.0,34.0,0
563,-173.0,-175.0,29.0,0
564,-176.0,-172.0,27.0,0
565,-177.0,-175.0,22.0,0
566,-181.0,-176.0,21.0,0
567,-179.0,-177.0,17.0,0
568,-183.0,-180.0,14.0,0
569,-180.0,-178.0,9.0,0
570,-181.0,-179.0,12.0,0
571,-182.0,-181.0,10.0,0
572,-185.0,-177.0,10.0,0
573,-182.0,-180.0,14.0,0
574,-183.0,-177.0,10.0,0
575,-182.0,-178.0,4.0,0
576,-180.0,-177.0,10.0,0
577,-178.0,-176.0,12.0,0
578,-177.0,-170.0,13.0,0
579,-174.0,-174.0,15.0,0
580,-180.0,-172.0,17.0,0
581,-182.0,-173.0,17.0,0
582,-184.0,-173.0,18.0,0
583,-183.0,-172.0,19.0,0
584,-187.0,-174.0,16.0,0
585,-186.0,-174.0,13.0,0
586,-185.0,-170.0,10.0,0
587,-185.0,-171.0,11.0,0
588,-184.0,-168.0,8.0,0
589,-185.0,-168.0,4.0,0
590,-186.0,-165.0,-2.0,0
591,-186.0,-166.0,0.0,0
592,-188.0,-161.0,0.0,0
593,-194.0,-156.0,5.0,0
594,-190.0,-156.0,6.0,0
595,-192.0,-159.0,6.0,0
596,-189.0,-158.0,14.0,0
597,-192.0,-157.0,14.0,0
598,-192.0,-157.0,14.0,0
599,-192.0,-153.0,14.0,0
600,-188.0,-158.0,14.0,0
601,-191.0,-156.0,15.0,0
602,-189.0,-159.0,13.0,0
603,-192.0,-157.0,9.0,0
604,-194.0,-155.0,10.0,0
605,-193.0,-153.0,8.0,0
606,-194.0,-152.0,7.0,0
607,-199.0,-149.0,7.0,0
608,-200.0,-152.0,0.0,0
609,-201.0,-150.0,-3.0,0
610,-204.0,-146.0,-4.0,0
611,-205.0,-145.0,-4.0,0
612,-206.0,-143.0,-5.0,0
613,-207.0,-147.0,-5.0,0
614,-207.0,-147.0,-3.0,0
615,-205.0,-144.0,1.0,0
616,-205.0,-146.0,-2.0,0
617,-205.0,-146.0,3.0,0
618,-203.0,-147.0,4.0,0
619,-203.0,-146.0,5.0,0
620,-200.0,-140.0,8.0,0
621,-203.0,-140.0,4.0,0
622,-203.0,-140.0,1.0,0
623,-205.0,-139.0,-2.0,0
624,-208.0,-138.0,-6.0,0
625,-207.0,-135.0,-8.0,0
626,-208.0,-135.0,-7.0,0
627,-214.0,-133.0,-10.0,0
628,-212.0,-135.0,-12.0,0
629,-211.0,-137.0,-12.0,0
630,-213.0,-135.0,-16.0,0
631,-211.0,-140.0,-19.0,0
632,-210.0,-137.0,-20.0,0
633,-209.0,-141.0,-23.0,0
634,-211.0,-133.0,-21.0,0
635,-209.0,-137.0,-23.0,0
636,-208.0,-132.0,-21.0,0
637,-209.0,-131.0,-25.0,0
638,-206.0,-131.0,-21.0,0
639,-206.0,-128.0,-19.0,0
640,-207.0,-124.0,-17.0,0
641,-210.0,-123.0,-18.0,0
642,-212.0,-119.0,-23.0,0
643,-216.0,-119.0,-25.0,0
644,-213.0,-115.0,-29.0,0
645,-214.0,-117.0,-33.0,0
646,-215.0,-119.0,-32.0,0
647,-217.0,-111.0,-37.0,0
648,-224.0,-119.0,-36.0,0
649,-223.0,-117.0,-41.0,0
650,-225.0,-118.0,-41.0,0
651,-225.0,-119.0,-41.0,0
652,-229.0,-121.0,-48.0,0
653,-231.0,-121.0,-45.0,0
654,-230.0,-120.0,-40.0,0
655,-226.0,-120.0,-41.0,0
656,-222.0,-116.0,-47.0,0
657,-223.0,-112.0,-42.0,0
658,-226.0,-102.0,-38.0,0
659,-228.0,-98.0,-43.0,0
660,-227.0,-96.0,-45.0,0
661,-230.0,-87.0,-44.0,0
662,-231.0,-82.0,-49.0,0
663,-236.0,-79.0,-46.0,0
664,-239.0,-78.0,-46.0,0
665,-237.0,-78.0,-46.0,0
666,-245.0,-75.0,-47.0,0
667,-257.0,-74.0,-47.0,0
668,-263.0,-70.0,-51.0,0
669,-272.0,-68.0,-58.0,0
670,-280.0,-65.0,-59.0,0
671,-283.0,-64.0,-58.0,0
672,-287.0,-62.0,-56.0,0
673,-284.0,-62.0,-53.0,0
674,-287.0,-63.0,-56.0,0
675,-291.0,-60.0,-54.0,0
676,-285.0,-63.0,-56.0,0
677,-285.0,-68.0,-56.0,0
678,-279.0,-70.0,-56.0,0
679,-277.0,-69.0,-55.0,0
680,-276.0,-69.0,-56.0,0
681,-272.0,-69.0,-56.0,0
682,-271.0,-70.0,-58.0,0
683,-270.0,-68.0,-62.0,0
684,-266.0,-68.0,-63.0,0
685,-263.0,-69.0,-65.0,0
686,-260.0,-70.0,-63.0,0
687,-258.0,-70.0,-67.0,0
688,-255.0,-70.0,-62.0,0
689,-255.0,-69.0,-60.0,0
690,-249.0,-71.0,-58.0,0
691,-254.0,-68.0,-54.0,0
692,-255.0,-69.0,-55.0,0
693,-254.0,-71.0,-56.0,0
694,-255.0,-67.0,-57.0,0
695,-258.0,-67.0,-58.0,0
696,-259.0,-63.0,-59.0,0
697,-255.0,-63.0,-66.0,0
698,-257.0,-61.0,-69.0,0
699,-257.0,-57.0,-76.0,0
700,-256.0,-53.0,-75.0,0
701,-255.0,-52.0,-79.0,0
702,-251.0,-49.0,-85.0,0
703,-243.0,-46.0,-83.0,0
704,-244.0,-48.0,-80.0,0
705,-242.0,-51.0,-82.0,0
706,-244.0,-53.0,-80.0,0
707,-241.0,-57.0,-72.0,0
708,-243.0,-61.0,-68.0,0
709,-242.0,-62.0,-71.0,0
710,-244.0,-69.0,-65.0,0
711,-244.0,-74.0,-68.0,0
712,-246.0,-86.0,-69.0,0
713,-240.0,-80.0,-77.0,0
714,-246.0,-85.0,-77.0,0
715,-242.0,-88.0,-81.0,0
716,-245.0,-85.0,-83.0,0
717,-247.0,-85.0,-79.0,0
718,-245.0,-88.0,-81.0,0
719,-247.0,-86.0,-77.0,0
720,-246.0,-87.0,-79.0,0
721,-243.0,-86.0,-76.0,0
722,-247.0,-85.0,-76.0,0
723,-246.0,-79.0,-74.0,0
724,-246.0,-85.0,-75.0,0
725,-243.0,-81.0,-70.0,0
726,-242.0,-81.0,-70.0,0
727,-241.0,-81.0,-68.0,0
728,-242.0,-82.0,-63.0,0
729,-245.0,-85.0,-69.0,0
730,-248.0,-85.0,-69.0,0
731,-251.0,-90.0,-71.0,0
732,-249.0,-88.0,-71.0,0
733,-254.0,-86.0,-67.0,0
734,-254.0,-85.0,-66.0,0
735,-257.0,-77.0,-74.0,0
736,-255.0,-75.0,-71.0,0
737,-256.0,-75.0,-70.0,0
738,-256.0,-72.0,-72.0,0
739,-259.0,-66.0,-76.0,0
740,-261.0,-61.0,-70.0,0
741,-260.0,-56.0,-70.0,0
742,-259.0,-56.0,-69.0,0
743,-253.0,-55.0,-63.0,0
744,-253.0,-53.0,-63.0,0
745,-250.0,-55.0,-58.0,0
746,-251.0,-55.0,-57.0,0
747,-253.0,-54.0,-58.0,0
748,-251.0,-54.0,-58.0,0
749,-249.0,-53.0,-56.0,0
750,-252.0,-53.0,-54.0,0
751,-250.0,-56.0,-54.0,0
752,-250.0,-55.0,-57.0,0
753,-249.0,-55.0,-54.0,0
754,-249.0,-54.0,-55.0,0
755,-242.0,-50.0,-58.0,0
756,-245.0,-49.0,-55.0,0
757,-248.0,-43.0,-55.0,0
758,-247.0,-44.0,-48.0,0
759,-245.0,-42.0,-46.0,0
760,-243.0,-45.0,-42.0,0
761,-245.0,-47.0,-38.0,0
762,-247.0,-47.0,-36.0,0
763,-250.0,-46.0,-41.0,0
764,-255.0,-47.0,-35.0,0
765,-256.0,-48.0,-40.0,0
766,-260.0,-51.0,-44.0,0
767,-261.0,-53.0,-53.0,0
768,-262.0,-51.0,-55.0,0
769,-263.0,-53.0,-60.0,0
770,-265.0,-52.0,-62.0,0
771,-266.0,-47.0,-58.0,0
772,-272.0,-43.0,-59.0,0
773,-270.0,-42.0,-54.0,0
774,-268.0,-37.0,-48.0,0
775,-268.0,-35.0,-45.0,0
776,-266.0,-34.0,-41.0,0
777,-260.0,-30.0,-49.0,0
778,-258.0,-31.0,-48.0,0
779,-261.0,-32.0,-45.0,0
780,-256.0,-33.0,-51.0,0
781,-252.0,-34.0,-49.0,0
782,-253.0,-35.0,-49.0,0
783,-253.0,-33.0,-57.0,0
784,-255.0,-30.0,-58.0,0
785,-256.0,-29.0,-59.0,0
786,-257.0,-27.0,-58.0,0
787,-256.0,-28.0,-59.0,0
788,-252.0,-33.0,-57.0,0
789,-253.0,-36.0,-59.0,0
790,-253.0,-37.0,-53.0,0
791,-251.0,-42.0,-51.0,0
792,-253.0,-45.0,-52.0,0
793,-251.0,-50.0,-52.0,0
794,-252.0,-53.0,-52.0,0
795,-247.0,-56.0,-53.0,0
796,-248.0,-53.0,-49.0,0
797,-247.0,-53.0,-51.0,0
798,-251.0,-49.0,-51.0,0
799,-251.0,-44.0,-49.0,0
800,-249.0,-39.0,-44.0,0
801,-253.0,-32.0,-49.0,0
802,-257.0,-27.0,-51.0,0
803,-260.0,-23.0,-54.0,0
804,-258.0,-26.0,-55.0,0
805,-259.0,-24.0,-52.0,0
806,-258.0,-25.0,-56.0,0
807,-258.0,-26.0,-55.0,0
808,-260.0,-26.0,-56.0,0
809,-257.0,-26.0,-54.0,0
810,-258.0,-24.0,-53.0,0
811,-262.0,-22.0,-58.0,0
812,-261.0,-22.0,-52.0,0
813,-263.0,-22.0,-57.0,0
814,-263.0,-22.0,-59.0,0
815,-258.0,-27.0,-56.0,0
816,-260.0,-29.0,-59.0,0
817,-259.0,-31.0,-57.0,0
818,-258.0,-31.0,-61.0,0
819,-258.0,-34.0,-58.0,0
820,-260.0,-35.0,-57.0,0
821,-259.0,-37.0,-51.0,0
822,-261.0,-32.0,-55.0,0
823,-258.0,-34.0,-57.0,0
824,-259.0,-31.0,-57.0,0
825,-257.0,-31.0,-55.0,0
826,-260.0,-31.0,-56.0,0
827,-263.0,-26.0,-53.0,0
828,-260.0,-25.0,-52.0,0
829,-263.0,-27.0,-54.0,0
830,-262.0,-26.0,-54.0,0
831,-263.0,-25.0,-57.0,0
832,-265.0,-23.0,-57.0,0
833,-269.0,-20.0,-59.0,0
834,-266.0,-20.0,-59.0,0
835,-263.0,-19.0,-62.0,0
836,-264.0,-17.0,-56.0,0
837,-262.0,-14.0,-56.0,0
838,-261.0,-19.0,-55.0,0
839,-259.0,-15.0,-55.0,0
840,-255.0,-18.0,-53.0,0
841,-257.0,-16.0,-56.0,0
842,-262.0,-15.0,-57.0,0
843,-263.0,-18.0,-65.0,0
844,-265.0,-20.0,-66.0,0
845,-267.0,-20.0,-72.0,0
846,-269.0,-20.0,-72.0,0
847,-269.0,-20.0,-70.0,0
848,-270.0,-20.0,-67.0,0
849,-269.0,-17.0,-66.0,0
850,-271.0,-18.0,-67.0,0
851,-267.0,-14.0,-67.0,0
852,-271.0,-8.0,-69.0,0
853,-271.0,-4.0,-67.0,0
854,-262.0,1.0,-64.0,0
855,-258.0,4.0,-60.0,0
856,-264.0,6.0,-60.0,0
857,-262.0,7.0,-57.0,0
858,-264.0,11.0,-57.0,0
859,-268.0,11.0,-52.0,0
860,-264.0,10.0,-51.0,0
861,-265.0,6.0,-55.0,0
862,-267.0,2.0,-55.0,0
863,-266.0,-1.0,-51.0,0
864,-268.0,-7.0,-49.0,0
865,-268.0,-14.0,-56.0,0
866,-268.0,-17.0,-54.0,0
867,-270.0,-13.0,-53.0,0
868,-272.0,-12.0,-51.0,0
869,-269.0,-12.0,-52.0,0
870,-270.0,-9.0,-53.0,0
871,-268.0,-5.0,-51.0,0
872,-266.0,-3.0,-50.0,0
873,-260.0,1.0,-52.0,0
874,-261.0,-2.0,-51.0,0
875,-264.0,5.0,-48.0,0
876,-264.0,9.0,-43.0,0
877,-255.0,8.0,-45.0,0
878,-261.0,8.0,-41.0,0
879,-263.0,3.0,-36.0,0
880,-265.0,-3.0,-39.0,0
881,-268.0,-4.0,-37.0,0
882,-270.0,-10.0,-38.0,0
883,-269.0,-19.0,-36.0,0
884,-268.0,-24.0,-36.0,0
885,-266.0,-23.0,-33.0,0
886,-270.0,-27.0,-38.0,0
887,-268.0,-30.0,-39.0,0
888,-264.0,-29.0,-38.0,0
889,-265.0,-29.0,-38.0,0
890,-263.0,-32.0,-37.0,0
891,-262.0,-28.0,-35.0,0
892,-262.0,-27.0,-33.0,0
893,-257.0,-28.0,-32.0,0
894,-257.0,-24.0,-27.0,0
895,-258.0,-22.0,-17.0,0
896,-258.0,-20.0,-24.0,0
897,-262.0,-17.0,-25.0,0
898,-258.0,-17.0,-23.0,0
899,-261.0,-14.0,-27.0,0
900,-262.0,-14.0,-23.0,0
901,-259.0,-16.0,-24.0,0
902,-258.0,-17.0,-22.0,0
903,-259.0,-19.0,-23.0,0
904,-261.0,-21.0,-17.0,0
905,-258.0,-20.0,-20.0,0
906,-260.0,-20.0,-18.0,0
907,-258.0,-24.0,-13.0,0
908,-255.0,-27.0,-12.0,0
909,-254.0,-28.0,-17.0,0
910,-253.0,-30.0,-10.0,0
911,-248.0,-35.0,-18.0,0
912,-246.0,-39.0,-16.0,0
913,-244.0,-42.0,-16.0,0
914,-247.0,-42.0,-19.0,0
915,-247.0,-45.0,-20.0,0
916,-249.0,-42.0,-20.0,0
917,-248.0,-46.0,-20.0,0
918,-249.0,-48.0,-18.0,0
919,-249.0,-46.0,-13.0,0
920,-254.0,-45.0,-14.0,0
921,-255.0,-45.0,-11.0,0
922,-255.0,-44.0,-10.0,0
923,-254.0,-46.0,-10.0,0
924,-256.0,-47.0,-14.0,0
925,-258.0,-45.0,-16.0,0
926,-255.0,-44.0,-15.0,0
927,-257.0,-43.0,-16.0,0
928,-258.0,-40.0,-18.0,0
929,-257.0,-37.0,-16.0,0
930,-252.0,-39.0,-10.0,0
931,-254.0,-32.0,-10.0,0
932,-253.0,-33.0,-8.0,0
933,-251.0,-28.0,-6.0,0
934,-251.0,-28.0,-7.0,0
935,-250.0,-27.0,-4.0,0
936,-253.0,-24.0,-2.0,0
937,-253.0,-23.0,-6.0,0
938,-252.0,-24.0,-4.0,0
939,-254.0,-21.0,-7.0,0
940,-254.0,-20.0,-5.0,0
941,-257.0,-21.0,-9.0,0
942,-253.0,-20.0,-5.0,0
943,-252.0,-18.0,-4.0,0
944,-253.0,-17.0,-4.0,0
945,-250.0,-19.0,-4.0,0
946,-249.0,-19.0,-1.0,0
947,-250.0,-19.0,-2.0,0
948,-248.0,-14.0,4.0,0
949,-247.0,-12.0,-1.0,0
950,-243.0,-20.0,-3.0,0
951,-246.0,-14.0,0.0,0
952,-247.0,-10.0,6.0,0
953,-245.0,-10.0,6.0,0
954,-246.0,-10.0,9.0,0
955,-247.0,-7.0,8.0,0
956,-248.0,-11.0,8.0,0
957,-248.0,-12.0,12.0,0
958,-249.0,-14.0,10.0,0
959,-247.0,-19.0,9.0,0
960,-256.0,-14.0,2.0,0
961,-257.0,-13.0,2.0,0
962,-258.0,-15.0,2.0,0
963,-258.0,-16.0,0.0,0
964,-262.0,-15.0,-5.0,0
965,-256.0,-19.0,-6.0,0
966,-259.0,-18.0,-8.0,0
967,-259.0,-17.0,-7.0,0
968,-259.0,-21.0,-7.0,0
969,-261.0,-21.0,-13.0,0
970,-255.0,-17.0,-12.0,0
971,-259.0,-22.0,-17.0,0
972,-258.0,-19.0,-13.0,0
973,-255.0,-23.0,-14.0,0
974,-257.0,-21.0,-15.0,0
975,-260.0,-15.0,-14.0,0
976,-260.0,-12.0,-10.0,0
977,-258.0,-13.0,-10.0,0
978,-257.0,-11.0,-11.0,0
979,-258.0,-9.0,-14.0,0
980,-259.0,-11.0,-11.0,0
981,-256.0,-11.0,-12.0,0
982,-258.0,-11.0,-7.0,0
983,-258.0,-13.0,-5.0,0
984,-257.0,-14.0,-2.0,0
985,-253.0,-19.0,-1.0,0
986,-254.0,-21.0,0.0,0
987,-253.0,-24.0,2.0,0
988,-252.0,-26.0,0.0,0
989,-252.0,-24.0,-4.0,0
990,-253.0,-21.0,-3.0,0
991,-253.0,-23.0,-6.0,0
992,-249.0,-22.0,-5.0,0
993,-248.0,-18.0,-5.0,0
994,-246.0,-29.0,-11.0,0
995,-253.0,-25.0,-7.0,0
996,-258.0,-20.0,-9.0,0
997,-256.0,-22.0,-9.0,0
998,-258.0,-20.0,-13.0,0
999,-259.0,-19.0,-13.0,0
1000,-262.0,-16.0,-14.0,0
1001,-259.0,-20.0,-16.0,0
1002,-263.0,-18.0,-13.0,0
1003,-264.0,-13.0,-17.0,0
1004,-262.0,-16.0,-16.0,0
1005,-266.0,-14.0,-18.0,0
1006,-264.0,-15.0,-19.0,0
1007,-263.0,-14.0,-18.0,0
1008,-265.0,-16.0,-20.0,0
1009,-259.0,-16.0,-21.0,0
1010,-257.0,-18.0,-25.0,0
1011,-263.0,-18.0,-23.0,0
1012,-261.0,-16.0,-19.0,0
1013,-260.0,-21.0,-20.0,0
1014,-263.0,-20.0,-23.0,0
1015,-262.0,-21.0,-25.0,0
1016,-262.0,-24.0,-22.0,0
1017,-264.0,-22.0,-23.0,0
1018,-262.0,-26.0,-23.0,0
1019,-263.0,-29.0,-20.0,0
1020,-263.0,-31.0,-22.0,0
1021,-263.0,-34.0,-20.0,0
1022,-261.0,-34.0,-17.0,0
1023,-261.0,-39.0,-21.0,0
1024,-264.0,-35.0,-18.0,0
1025,-264.0,-37.0,-19.0,0
1026,-269.0,-39.0,-19.0,0
1027,-268.0,-35.0,-15.0,0
1028,-269.0,-34.0,-18.0,0
1029,-267.0,-35.0,-20.0,0
1030,-267.0,-31.0,-23.0,0
1031,-270.0,-26.0,-24.0,0
1032,-268.0,-27.0,-32.0,0
1033,-263.0,-25.0,-29.0,0
1034,-264.0,-27.0,-29.0,0
1035,-263.0,-24.0,-29.0,0
1036,-262.0,-27.0,-25.0,0
1037,-260.0,-28.0,-24.0,0
1038,-261.0,-26.0,-26.0,0
1039,-258.0,-27.0,-21.0,0
1040,-260.0,-30.0,-24.0,0
1041,-259.0,-32.0,-24.0,0
1042,-258.0,-33.0,-22.0,0
1043,-257.0,-31.0,-20.0,0
1044,-253.0,-32.0,-19.0,0
1045,-258.0,-32.0,-18.0,0
1046,-257.0,-31.0,-21.0,0
1047,-257.0,-31.0,-24.0,0
1048,-260.0,-29.0,-24.0,0
1049,-257.0,-30.0,-21.0,0
1050,-255.0,-26.0,-22.0,0
1051,-255.0,-24.0,-23.0,0
1052,-255.0,-25.0,-21.0,0
1053,-257.0,-22.0,-21.0,0
1054,-255.0,-26.0,-20.0,0
1055,-256.0,-25.0,-17.0,0
1056,-262.0,-24.0,-14.0,0
1057,-260.0,-27.0,-20.0,0
1058,-258.0,-27.0,-19.0,0
1059,-258.0,-28.0,-19.0,0
1060,-261.0,-23.0,-19.0,0
1061,-260.0,-27.0,-20.0,0
1062,-260.0,-25.0,-20.0,0
1063,-261.0,-26.0,-23.0,0
1064,-260.0,-28.0,-20.0,0
1065,-262.0,-28.0,-19.0,0
1066,-265.0,-25.0,-19.0,0
1067,-262.0,-27.0,-21.0,0
1068,-263.0,-31.0,-24.0,0
1069,-262.0,-29.0,-22.0,0
1070,-261.0,-29.0,-19.0,0
1071,-262.0,-30.0,-18.0,0
1072,-261.0,-29.0,-18.0,0
1073,-263.0,-29.0,-17.0,0
1074,-261.0,-29.0,-19.0,0
1075,-259.0,-31.0,-17.0,0
1076,-261.0,-25.0,-17.0,0
1077,-260.0,-25.0,-18.0,0
1078,-258.0,-27.0,-17.0,0
1079,-257.0,-26.0,-19.0,0
1080,-259.0,-21.0,-16.0,0
1081,-257.0,-22.0,-18.0,0
1082,-258.0,-24.0,-17.0,0
1083,-258.0,-23.0,-19.0,0
1084,-259.0,-22.0,-17.0,0
1085,-260.0,-20.0,-14.0,0
1086,-261.0,-21.0,-12.0,0
1087,-256.0,-23.0,-15.0,0
1088,-259.0,-21.0,-12.0,0
1089,-259.0,-21.0,-12.0,0
1090,-262.0,-23.0,-10.0,0
1091,-259.0,-25.0,-17.0,0
1092,-259.0,-25.0,-13.0,0
1093,-258.0,-25.0,-10.0,0
1094,-258.0,-25.0,-13.0,0
1095,-258.0,-26.0,-14.0,0
1096,-256.0,-25.0,-9.0,0
1097,-257.0,-27.0,-13.0,0
1098,-255.0,-27.0,-13.0,0
1099,-259.0,-27.0,-10.0,0
1100,-261.0,-27.0,-13.0,0
1101,-259.0,-27.0,-10.0,0
1102,-259.0,-30.0,-9.0,0
1103,-259.0,-27.0,-9.0,0
1104,-258.0,-27.0,-9.0,0
1105,-258.0,-27.0,-11.0,0
1106,-259.0,-28.0,-12.0,0
1107,-255.0,-29.0,-13.0,0
1108,-257.0,-29.0,-13.0,0
1109,-258.0,-25.0,-9.0,0
1110,-257.0,-25.0,-8.0,0
1111,-256.0,-27.0,-10.0,0
1112,-257.0,-26.0,-7.0,0
1113,-256.0,-26.0,-8.0,0
1114,-257.0,-27.0,-2.0,0
1115,-256.0,-25.0,-7.0,0
1116,-257.0,-23.0,-9.0,0
1117,-258.0,-26.0,-11.0,0
1118,-260.0,-19.0,-14.0,0
1119,-258.0,-22.0,-9.0,0
1120,-257.0,-22.0,-11.0,0
1121,-259.0,-17.0,-15.0,0
1122,-257.0,-22.0,-14.0,0
1123,-262.0,-18.0,-15.0,0
1124,-259.0,-20.0,-14.0,0
1125,-257.0,-21.0,-15.0,0
1126,-258.0,-23.0,-15.0,0
1127,-258.0,-23.0,-10.0,0
1128,-254.0,-24.0,-8.0,0
1129,-257.0,-25.0,-9.0,0
1130,-258.0,-25.0,-11.0,0
1131,-258.0,-24.0,-11.0,0
1132,-257.0,-24.0,-11.0,0
1133,-255.0,-25.0,-12.0,0
1134,-257.0,-24.0,-9.0,0
1135,-258.0,-22.0,-11.0,0
1136,-258.0,-22.0,-7.0,0
1137,-255.0,-23.0,-12.0,0
1138,-260.0,-22.0,-12.0,0
1139,-257.0,-23.0,-9.0,0
1140,-259.0,-23.0,-8.0,0
1141,-259.0,-23.0,-8.0,0
1142,-256.0,-22.0,-11.0,0
1143,-261.0,-22.0,-11.0,0
1144,-261.0,-21.0,-10.0,0
1145,-258.0,-24.0,-13.0,0
1146,-261.0,-24.0,-10.0,0
1147,-264.0,-22.0,-8.0,0
1148,-262.0,-27.0,-12.0,0
1149,-260.0,-27.0,-7.0,0
1150,-261.0,-30.0,-9.0,0
1151,-262.0,-34.0,-5.0,0
1152,-261.0,-32.0,-5.0,0
1153,-259.0,-33.0,-7.0,0
1154,-259.0,-33.0,-6.0,0
1155,-262.0,-32.0,-8.0,0
1156,-260.0,-32.0,-7.0,0
1157,-259.0,-30.0,-7.0,0
1158,-257.0,-31.0,-7.0,0
1159,-256.0,-32.0,-9.0,0
1160,-256.0,-28.0,-7.0,0
1161,-257.0,-26.0,-10.0,0
1162,-257.0,-27.0,-7.0,0
1163,-258.0,-25.0,-7.0,0
1164,-258.0,-22.0,-9.0,0
1165,-259.0,-26.0,-9.0,0
1166,-259.0,-23.0,-8.0,0
1167,-254.0,-28.0,-7.0,0
1168,-257.0,-28.0,-6.0,0
1169,-257.0,-28.0,-3.0,0
1170,-256.0,-30.0,-5.0,0
1171,-260.0,-28.0,-6.0,0
1172,-259.0,-30.0,-4.0,0
1173,-257.0,-31.0,-4.0,0
1174,-256.0,-35.0,-3.0,0
1175,-257.0,-31.0,-2.0,0
1176,-255.0,-32.0,-4.0,0
1177,-255.0,-29.0,5.0,0
1178,-251.0,-31.0,3.0,0
1179,-254.0,-27.0,1.0,0
1180,-255.0,-26.0,0.0,0
1181,-255.0,-26.0,5.0,0
1182,-254.0,-27.0,3.0,0
1183,-251.0,-24.0,-2.0,0
1184,-252.0,-28.0,3.0,0
1185,-254.0,-24.0,0.0,0
1186,-253.0,-29.0,1.0,0
1187,-255.0,-28.0,1.0,0
1188,-256.0,-28.0,-1.0,0
1189,-257.0,-30.0,1.0,0
1190,-255.0,-33.0,0.0,0
1191,-255.0,-31.0,-1.0,0
1192,-255.0,-35.0,-1.0,0
1193,-257.0,-34.0,2.0,0
1194,-257.0,-34.0,2.0,0
1195,-257.0,-33.0,2.0,0
1196,-256.0,-34.0,4.0,0
1197,-258.0,-32.0,-2.0,0
1198,-257.0,-33.0,3.0,0
1199,-256.0,-32.0,-3.0,0
1200,-257.0,-31.0,-1.0,0
1201,-257.0,-30.0,-1.0,0
1202,-255.0,-33.0,-1.0,0
1203,-259.0,-27.0,-1.0,0
1204,-256.0,-28.0,2.0,0
1205,-253.0,-26.0,4.0,0
1206,-253.0,-26.0,4.0,0
1207,-252.0,-30.0,1.0,0
1208,-251.0,-31.0,5.0,0
1209,-251.0,-26.0,0.0,0
1210,-256.0,-26.0,-1.0,0
1211,-253.0,-27.0,-2.0,0
1212,-254.0,-27.0,0.0,0
1213,-253.0,-25.0,0.0,0
1214,-259.0,-24.0,0.0,0
1215,-264.0,-26.0,-6.0,0
1216,-266.0,-25.0,-2.0,0
1217,-267.0,-27.0,-6.0,0
1218,-261.0,-30.0,-8.0,0
1219,-264.0,-28.0,-8.0,0
1220,-262.0,-28.0,-5.0,0
1221,-261.0,-27.0,-6.0,0
1222,-260.0,-30.0,-7.0,0
1223,-257.0,-31.0,1.0,0
1224,-252.0,-30.0,4.0,0
1225,-257.0,-27.0,1.0,0
1226,-251.0,-28.0,2.0,0
1227,-251.0,-22.0,0.0,0
1228,-251.0,-24.0,-1.0,0
1229,-249.0,-21.0,4.0,0
1230,-247.0,-17.0,1.0,0
1231,-250.0,-21.0,4.0,0
1232,-251.0,-19.0,5.0,0
1233,-251.0,-23.0,0.0,0
1234,-254.0,-22.0,1.0,0
1235,-252.0,-24.0,4.0,0
1236,-255.0,-25.0,4.0,0
1237,-255.0,-27.0,0.0,0
1238,-255.0,-25.0,-2.0,0
1239,-257.0,-27.0,2.0,0
1240,-258.0,-25.0,-2.0,0
1241,-257.0,-27.0,-7.0,0
1242,-259.0,-26.0,-7.0,0
1243,-259.0,-28.0,-7.0,0
1244,-260.0,-32.0,-12.0,0
1245,-260.0,-31.0,-8.0,0
1246,-260.0,-34.0,-13.0,0
1247,-261.0,-33.0,-15.0,0
1248,-262.0,-35.0,-13.0,0
1249,-264.0,-31.0,-6.0,0
1250,-259.0,-36.0,-11.0,0
1251,-263.0,-36.0,-12.0,0
1252,-259.0,-42.0,-9.0,0
1253,-261.0,-32.0,-7.0,0
1254,-260.0,-33.0,-9.0,0
1255,-260.0,-32.0,-5.0,0
1256,-256.0,-34.0,-4.0,0
1257,-256.0,-35.0,-7.0,0
1258,-257.0,-32.0,1.0,0
1259,-254.0,-32.0,-6.0,0
1260,-253.0,-31.0,-5.0,0
1261,-256.0,-30.0,-3.0,0
1262,-254.0,-31.0,-2.0,0
1263,-254.0,-30.0,-3.0,0
1264,-255.0,-32.0,-5.0,0
1265,-254.0,-30.0,-6.0,0
1266,-256.0,-28.0,-4.0,0
1267,-253.0,-28.0,-3.0,0
1268,-256.0,-30.0,-2.0,0
1269,-254.0,-28.0,-1.0,0
1270,-256.0,-26.0,-4.0,0
1271,-253.0,-21.0,-6.0,0
1272,-257.0,-21.0,0.0,0
1273,-257.0,-27.0,1.0,0
1274,-254.0,-20.0,-4.0,0
1275,-254.0,-21.0,-4.0,0
1276,-254.0,-19.0,-2.0,0
1277,-257.0,-17.0,-3.0,0
1278,-257.0,-20.0,-3.0,0
1279,-253.0,-20.0,-1.0,0
1280,-257.0,-21.0,-3.0,0
1281,-257.0,-19.0,-8.0,0
1282,-255.0,-23.0,-5.0,0
1283,-261.0,-24.0,-4.0,0
1284,-263.0,-26.0,-5.0,0
1285,-263.0,-27.0,-8.0,0
1286,-264.0,-31.0,-9.0,0
1287,-262.0,-31.0,-12.0,0
1288,-262.0,-31.0,-10.0,0
1289,-257.0,-34.0,-14.0,0
1290,-257.0,-34.0,-14.0,0
1291,-255.0,-33.0,-11.0,0
1292,-256.0,-36.0,-12.0,0
1293,-250.0,-37.0,-9.0,0
1294,-253.0,-36.0,-11.0,0
1295,-258.0,-39.0,-14.0,0
1296,-251.0,-37.0,-14.0,0
1297,-253.0,-41.0,-11.0,0
1298,-257.0,-39.0,-15.0,0
1299,-257.0,-40.0,-16.0,0
1300,-257.0,-36.0,-11.0,0
1301,-261.0,-37.0,-13.0,0
1302,-261.0,-37.0,-11.0,0
1303,-262.0,-34.0,-8.0,0
1304,-269.0,-33.0,-8.0,0
1305,-267.0,-32.0,-6.0,0
1306,-267.0,-29.0,-7.0,0
1307,-264.0,-25.0,-8.0,0
1308,-260.0,-25.0,-7.0,0
1309,-256.0,-22.0,-2.0,0
1310,-256.0,-22.0,-3.0,0
1311,-252.0,-19.0,-5.0,0
1312,-252.0,-19.0,-7.0,0
1313,-249.0,-22.0,-9.0,0
1314,-250.0,-24.0,-9.0,0
1315,-249.0,-24.0,-13.0,0
1316,-250.0,-20.0,-15.0,0
1317,-252.0,-28.0,-13.0,0
1318,-251.0,-29.0,-15.0,0
1319,-252.0,-28.0,-15.0,0
1320,-257.0,-32.0,-15.0,0
1321,-258.0,-29.0,-13.0,0
1322,-256.0,-32.0,-14.0,0
1323,-254.0,-32.0,-14.0,0
1324,-260.0,-28.0,-10.0,0
1325,-261.0,-27.0,-10.0,0
1326,-261.0,-23.0,-8.0,0
1327,-257.0,-27.0,-7.0,0
1328,-261.0,-25.0,-10.0,0
1329,-262.0,-22.0,-9.0,0
1330,-262.0,-24.0,-12.0,0
1331,-260.0,-26.0,-13.0,0
1332,-264.0,-28.0,-17.0,0
1333,-263.0,-31.0,-20.0,0
1334,-263.0,-32.0,-20.0,0
1335,-259.0,-39.0,-23.0,0
1336,-257.0,-36.0,-25.0,0
1337,-256.0,-36.0,-28.0,0
1338,-258.0,-33.0,-22.0,0
1339,-259.0,-34.0,-29.0,0
1340,-257.0,-39.0,-28.0,0
1341,-258.0,-36.0,-26.0,0
1342,-256.0,-36.0,-25.0,0
1343,-259.0,-34.0,-24.0,0
1344,-257.0,-31.0,-26.0,0
1345,-261.0,-31.0,-22.0,0
1346,-260.0,-28.0,-18.0,0
1347,-262.0,-29.0,-15.0,0
1348,-260.0,-27.0,-19.0,0
1349,-260.0,-28.0,-11.0,0
1350,-259.0,-24.0,-15.0,0
1351,-260.0,-24.0,-16.0,0
1352,-260.0,-27.0,-14.0,0
1353,-260.0,-27.0,-13.0,0
1354,-260.0,-26.0,-11.0,0
1355,-258.0,-27.0,-19.0,0
1356,-258.0,-27.0,-15.0,0
1357,-258.0,-26.0,-16.0,0
1358,-258.0,-28.0,-13.0,0
1359,-258.0,-28.0,-17.0,0
1360,-258.0,-35.0,-16.0,0
1361,-254.0,-31.0,-14.0,0
1362,-256.0,-24.0,-16.0,0
1363,-259.0,-25.0,-15.0,0
1364,-259.0,-23.0,-18.0,0
1365,-256.0,-21.0,-16.0,0
1366,-257.0,-22.0,-16.0,0
1367,-259.0,-19.0,-18.0,0
1368,-259.0,-19.0,-19.0,0
1369,-259.0,-18.0,-17.0,0
1370,-258.0,-21.0,-17.0,0
1371,-260.0,-19.0,-20.0,0
1372,-260.0,-22.0,-16.0,0
1373,-261.0,-20.0,-15.0,0
1374,-257.0,-28.0,-17.0,0
1375,-258.0,-28.0,-13.0,0
1376,-258.0,-29.0,-14.0,0
1377,-255.0,-32.0,-13.0,0
1378,-250.0,-34.0,-15.0,0
1379,-252.0,-33.0,-16.0,0
1380,-255.0,-26.0,-15.0,0
1381,-252.0,-27.0,-12.0,0
1382,-254.0,-30.0,-17.0,0
1383,-254.0,-25.0,-13.0,0
1384,-256.0,-23.0,-12.0,0
1385,-258.0,-22.0,-13.0,0
1386,-262.0,-20.0,-15.0,0
1387,-260.0,-21.0,-19.0,0
1388,-263.0,-17.0,-23.0,0
1389,-264.0,-23.0,-22.0,0
1390,-265.0,-22.0,-28.0,0
1391,-266.0,-21.0,-31.0,0
1392,-269.0,-24.0,-38.0,0
1393,-269.0,-27.0,-38.0,0
1394,-267.0,-32.0,-40.0,0
1395,-266.0,-32.0,-41.0,0
1396,-263.0,-36.0,-41.0,0
1397,-265.0,-38.0,-38.0,0
1398,-264.0,-33.0,-38.0,0
1399,-266.0,-33.0,-31.0,0
1400,-261.0,-33.0,-28.0,0
1401,-259.0,-30.0,-30.0,0
1402,-259.0,-27.0,-27.0,0
1403,-257.0,-20.0,-28.0,0
1404,-254.0,-28.0,-23.0,0
1405,-254.0,-26.0,-21.0,0
1406,-254.0,-26.0,-20.0,0
1407,-260.0,-24.0,-24.0,0
1408,-259.0,-25.0,-23.0,0
1409,-259.0,-26.0,-25.0,0
1410,-261.0,-28.0,-28.0,0
1411,-262.0,-30.0,-29.0,0
1412,-262.0,-33.0,-28.0,0
1413,-263.0,-32.0,-35.0,0
1414,-261.0,-31.0,-27.0,0
1415,-260.0,-28.0,-27.0,0
1416,-258.0,-33.0,-27.0,0
1417,-260.0,-30.0,-24.0,0
1418,-262.0,-29.0,-23.0,0
1419,-260.0,-29.0,-18.0,0
1420,-260.0,-27.0,-18.0,0
1421,-260.0,-27.0,-18.0,0
1422,-261.0,-29.0,-22.0,0
1423,-260.0,-27.0,-17.0,0
1424,-264.0,-28.0,-19.0,0
1425,-263.0,-25.0,-21.0,0
1426,-259.0,-29.0,-20.0,0
1427,-264.0,-23.0,-21.0,0
1428,-264.0,-25.0,-24.0,0
1429,-260.0,-23.0,-25.0,0
1430,-260.0,-22.0,-22.0,0
1431,-259.0,-17.0,-26.0,0
1432,-255.0,-22.0,-26.0,0
1433,-257.0,-20.0,-21.0,0
1434,-258.0,-22.0,-22.0,0
1435,-254.0,-22.0,-20.0,0
1436,-253.0,-20.0,-19.0,0
1437,-254.0,-26.0,-21.0,0
1438,-254.0,-25.0,-18.0,0
1439,-252.0,-23.0,-19.0,0
1440,-255.0,-25.0,-21.0,0
1441,-252.0,-25.0,-22.0,0
1442,-257.0,-26.0,-20.0,0
1443,-255.0,-25.0,-17.0,0
1444,-254.0,-32.0,-14.0,0
1445,-258.0,-36.0,-13.0,0
1446,-257.0,-31.0,-23.0,0
1447,-258.0,-31.0,-21.0,0
1448,-261.0,-29.0,-17.0,0
1449,-264.0,-30.0,-22.0,0
1450,-259.0,-29.0,-21.0,0
1451,-260.0,-28.0,-20.0,0
1452,-261.0,-27.0,-24.0,0
1453,-260.0,-26.0,-28.0,0
1454,-260.0,-26.0,-27.0,0
1455,-256.0,-29.0,-29.0,0
1456,-260.0,-27.0,-25.0,0
1457,-258.0,-27.0,-25.0,0
1458,-258.0,-27.0,-24.0,0
1459,-256.0,-30.0,-23.0,0
1460,-252.0,-33.0,-20.0,0
1461,-253.0,-33.0,-20.0,0
1462,-249.0,-32.0,-18.0,0
1463,-251.0,-32.0,-17.0,0
1464,-250.0,-35.0,-15.0,0
1465,-252.0,-32.0,-17.0,0
1466,-250.0,-34.0,-18.0,0
1467,-248.0,-36.0,-13.0,0
1468,-247.0,-34.0,-13.0,0
1469,-248.0,-32.0,-12.0,0
1470,-249.0,-35.0,-14.0,0
1471,-249.0,-36.0,-18.0,0
1472,-250.0,-39.0,-21.0,0
1473,-251.0,-35.0,-16.0,0
1474,-254.0,-34.0,-17.0,0
1475,-255.0,-32.0,-18.0,0
1476,-254.0,-34.0,-23.0,0
1477,-257.0,-33.0,-20.0,0
1478,-257.0,-31.0,-15.0,0
1479,-259.0,-32.0,-12.0,0
1480,-260.0,-32.0,-13.0,0
1481,-256.0,-35.0,-11.0,0
1482,-257.0,-39.0,-12.0,0
1483,-258.0,-38.0,-13.0,0
1484,-261.0,-43.0,-12.0,0
1485,-259.0,-45.0,-18.0,0
1486,-263.0,-45.0,-23.0,0
1487,-267.0,-40.0,-22.0,0
1488,-271.0,-43.0,-30.0,0
1489,-270.0,-38.0,-29.0,0
1490,-269.0,-37.0,-33.0,0
1491,-270.0,-37.0,-34.0,0
1492,-267.0,-38.0,-36.0,0
1493,-268.0,-36.0,-37.0,0
1494,-263.0,-38.0,-30.0,0
1495,-258.0,-41.0,-26.0,0
1496,-252.0,-44.0,-20.0,0
1497,-247.0,-44.0,-10.0,0
1498,-251.0,-47.0,-2.0,0
1499,-240.0,-52.0,1.0,0
1500,-242.0,-46.0,2.0,0
1501,-242.0,-47.0,0.0,0
1502,-243.0,-45.0,2.0,0
1503,-247.0,-42.0,-9.0,0
1504,-246.0,-41.0,-14.0,0
1505,-252.0,-34.0,-18.0,0
1506,-253.0,-31.0,-23.0,0
1507,-257.0,-32.0,-28.0,0
1508,-259.0,-33.0,-32.0,0
1509,-261.0,-30.0,-36.0,0
1510,-265.0,-27.0,-38.0,0
1511,-264.0,-36.0,-33.0,0
1512,-265.0,-37.0,-37.0,0
1513,-261.0,-42.0,-31.0,0
1514,-261.0,-44.0,-29.0,0
1515,-260.0,-49.0,-27.0,0
1516,-254.0,-51.0,-25.0,0
1517,-257.0,-55.0,-26.0,0
1518,-257.0,-52.0,-23.0,0
1519,-257.0,-55.0,-30.0,0
1520,-258.0,-55.0,-26.0,0
1521,-259.0,-57.0,-30.0,0
1522,-262.0,-55.0,-32.0,0
1523,-264.0,-51.0,-36.0,0
1524,-260.0,-53.0,-40.0,0
1525,-264.0,-53.0,-43.0,0
1526,-263.0,-52.0,-41.0,0
1527,-264.0,-53.0,-40.0,0
1528,-265.0,-55.0,-40.0,0
1529,-267.0,-56.0,-42.0,0
1530,-265.0,-55.0,-38.0,0
1531,-264.0,-57.0,-37.0,0
1532,-265.0,-63.0,-39.0,0
1533,-264.0,-63.0,-40.0,0
1534,-268.0,-68.0,-38.0,0
1535,-268.0,-69.0,-38.0,0
1536,-263.0,-76.0,-37.0,0
1537,-262.0,-77.0,-32.0,0
1538,-257.0,-80.0,-32.0,0
1539,-256.0,-79.0,-28.0,0
1540,-255.0,-82.0,-32.0,0
1541,-248.0,-78.0,-30.0,0
1542,-247.0,-78.0,-33.0,0
1543,-249.0,-74.0,-36.0,0
1544,-251.0,-75.0,-30.0,0
1545,-247.0,-70.0,-34.0,0
1546,-250.0,-72.0,-37.0,0
1547,-251.0,-70.0,-40.0,0
1548,-245.0,-76.0,-39.0,0
1549,-248.0,-75.0,-40.0,0
1550,-248.0,-74.0,-43.0,0
1551,-247.0,-74.0,-40.0,0
1552,-248.0,-76.0,-38.0,0
1553,-243.0,-76.0,-34.0,0
1554,-245.0,-76.0,-38.0,0
1555,-241.0,-77.0,-37.0,0
1556,-244.0,-78.0,-34.0,0
1557,-243.0,-81.0,-37.0,0
1558,-242.0,-83.0,-31.0,0
1559,-242.0,-85.0,-31.0,0
1560,-243.0,-87.0,-31.0,0
1561,-242.0,-86.0,-29.0,0
1562,-238.0,-91.0,-30.0,0
1563,-234.0,-90.0,-32.0,0
1564,-236.0,-89.0,-32.0,0
1565,-234.0,-88.0,-31.0,0
1566,-235.0,-88.0,-31.0,0
1567,-234.0,-89.0,-33.0,0
1568,-239.0,-88.0,-39.0,0
1569,-238.0,-90.0,-42.0,0
1570,-240.0,-87.0,-37.0,0
1571,-241.0,-86.0,-42.0,0
1572,-239.0,-85.0,-39.0,0
1573,-235.0,-86.0,-40.0,0
1574,-235.0,-86.0,-39.0,0
1575,-242.0,-85.0,-39.0,0
1576,-235.0,-91.0,-34.0,0
1577,-237.0,-91.0,-37.0,0
1578,-238.0,-92.0,-35.0,0
1579,-234.0,-97.0,-35.0,0
1580,-232.0,-101.0,-36.0,0
1581,-238.0,-106.0,-38.0,0
1582,-237.0,-110.0,-37.0,0
1583,-235.0,-111.0,-39.0,0
1584,-237.0,-110.0,-33.0,0
1585,-232.0,-112.0,-34.0,0
1586,-233.0,-109.0,-35.0,0
1587,-233.0,-109.0,-37.0,0
1588,-229.0,-106.0,-36.0,0
1589,-231.0,-105.0,-32.0,0
1590,-231.0,-104.0,-33.0,0
1591,-233.0,-105.0,-38.0,0
1592,-232.0,-106.0,-37.0,0
1593,-231.0,-105.0,-36.0,0
1594,-233.0,-103.0,-30.0,0
1595,-233.0,-108.0,-31.0,0
1596,-236.0,-107.0,-31.0,0
1597,-234.0,-107.0,-33.0,0
1598,-238.0,-109.0,-32.0,0
1599,-231.0,-111.0,-33.0,0
1600,-230.0,-113.0,-30.0,0
1601,-232.0,-115.0,-30.0,0
1602,-232.0,-119.0,-31.0,0
1603,-230.0,-121.0,-30.0,0
1604,-232.0,-120.0,-29.0,0
1605,-229.0,-122.0,-29.0,0
1606,-225.0,-126.0,-30.0,0
1607,-227.0,-123.0,-30.0,0
1608,-227.0,-126.0,-29.0,0
1609,-225.0,-124.0,-29.0,0
1610,-222.0,-124.0,-28.0,0
1611,-223.0,-125.0,-30.0,0
1612,-222.0,-124.0,-34.0,0
1613,-222.0,-125.0,-30.0,0
1614,-222.0,-126.0,-35.0,0
1615,-221.0,-124.0,-36.0,0
1616,-220.0,-125.0,-35.0,0
1617,-224.0,-125.0,-35.0,0
1618,-225.0,-125.0,-33.0,0
1619,-221.0,-122.0,-30.0,0
1620,-221.0,-125.0,-33.0,0
1621,-220.0,-127.0,-30.0,0
1622,-217.0,-129.0,-29.0,0
1623,-223.0,-129.0,-34.0,0
1624,-218.0,-130.0,-31.0,0
1625,-217.0,-130.0,-33.0,0
1626,-214.0,-129.0,-35.0,0
1627,-216.0,-130.0,-35.0,0
1628,-218.0,-132.0,-36.0,0
1629,-216.0,-130.0,-38.0,0
1630,-215.0,-130.0,-37.0,0
1631,-216.0,-130.0,-34.0,0
1632,-215.0,-129.0,-36.0,0
1633,-217.0,-130.0,-37.0,0
1634,-213.0,-135.0,-34.0,0
1635,-212.0,-138.0,-31.0,0
1636,-215.0,-137.0,-32.0,0
1637,-214.0,-136.0,-33.0,0
1638,-213.0,-139.0,-32.0,0
1639,-217.0,-142.0,-34.0,0
1640,-218.0,-141.0,-34.0,0
1641,-213.0,-142.0,-34.0,0
1642,-215.0,-146.0,-35.0,0
1643,-214.0,-148.0,-35.0,0
1644,-212.0,-150.0,-38.0,0
1645,-210.0,-151.0,-36.0,0
1646,-208.0,-155.0,-39.0,0
1647,-209.0,-154.0,-35.0,0
1648,-212.0,-155.0,-35.0,0
1649,-207.0,-155.0,-38.0,0
1650,-208.0,-156.0,-33.0,0
1651,-206.0,-155.0,-30.0,0
1652,-207.0,-158.0,-32.0,0
1653,-204.0,-157.0,-28.0,0
1654,-202.0,-158.0,-27.0,0
1655,-201.0,-159.0,-26.0,0
1656,-199.0,-158.0,-27.0,0
1657,-199.0,-156.0,-26.0,0
1658,-199.0,-156.0,-29.0,0
1659,-200.0,-159.0,-30.0,0
1660,-201.0,-163.0,-34.0,0
1661,-198.0,-162.0,-36.0,0
1662,-198.0,-167.0,-38.0,0
1663,-195.0,-165.0,-33.0,0
1664,-202.0,-167.0,-36.0,0
1665,-201.0,-170.0,-36.0,0
1666,-198.0,-172.0,-34.0,0
1667,-196.0,-172.0,-33.0,0
1668,-195.0,-179.0,-33.0,0
1669,-193.0,-174.0,-29.0,0
1670,-195.0,-180.0,-33.0,0
1671,-195.0,-177.0,-30.0,0
1672,-190.0,-176.0,-27.0,0
1673,-190.0,-176.0,-28.0,0
1674,-190.0,-175.0,-26.0,0
1675,-189.0,-174.0,-29.0,0
1676,-191.0,-170.0,-30.0,0
1677,-190.0,-171.0,-27.0,0
1678,-185.0,-169.0,-27.0,0
1679,-182.0,-166.0,-28.0,0
1680,-181.0,-167.0,-22.0,0
1681,-179.0,-170.0,-24.0,0
1682,-176.0,-169.0,-27.0,0
1683,-172.0,-172.0,-23.0,0
1684,-175.0,-176.0,-23.0,0
1685,-175.0,-180.0,-21.0,0
1686,-173.0,-177.0,-17.0,0
1687,-171.0,-180.0,-19.0,0
1688,-171.0,-184.0,-16.0,0
1689,-171.0,-186.0,-18.0,0
1690,-170.0,-187.0,-17.0,0
1691,-169.0,-189.0,-20.0,0
1692,-170.0,-190.0,-13.0,0
1693,-167.0,-190.0,-17.0,0
1694,-169.0,-190.0,-16.0,0
1695,-167.0,-193.0,-20.0,0
1696,-169.0,-192.0,-16.0,0
1697,-169.0,-192.0,-17.0,0
1698,-164.0,-196.0,-18.0,0
1699,-165.0,-195.0,-14.0,0
1700,-169.0,-193.0,-16.0,0
1701,-172.0,-194.0,-15.0,0
1702,-173.0,-195.0,-14.0,0
1703,-171.0,-197.0,-12.0,0
1704,-171.0,-196.0,-13.0,0
1705,-176.0,-194.0,-17.0,0
1706,-170.0,-188.0,-17.0,0
1707,-172.0,-189.0,-11.0,0
1708,-173.0,-190.0,-10.0,0
1709,-164.0,-191.0,-10.0,0
1710,-165.0,-192.0,-12.0,0
1711,-164.0,-188.0,-6.0,0
1712,-156.0,-191.0,-5.0,0
1713,-159.0,-190.0,-7.0,0
1714,-158.0,-192.0,-8.0,0
1715,-159.0,-187.0,-8.0,0
1716,-157.0,-192.0,-6.0,0
1717,-153.0,-192.0,-8.0,0
1718,-153.0,-196.0,-5.0,0
1719,-157.0,-193.0,-4.0,0
1720,-156.0,-193.0,-8.0,0
1721,-151.0,-196.0,-6.0,0
1722,-150.0,-196.0,-7.0,0
1723,-148.0,-197.0,-2.0,0
1724,-145.0,-195.0,-6.0,0
1725,-148.0,-198.0,0.0,0
1726,-149.0,-195.0,-3.0,0
1727,-147.0,-194.0,-2.0,0
1728,-149.0,-191.0,-8.0,0
1729,-154.0,-196.0,-2.0,0
1730,-151.0,-194.0,-2.0,0
1731,-153.0,-193.0,2.0,0
1732,-158.0,-195.0,-1.0,0
1733,-156.0,-200.0,-1.0,0
1734,-157.0,-195.0,4.0,0
1735,-157.0,-198.0,3.0,0
1736,-156.0,-199.0,8.0,0
1737,-160.0,-201.0,7.0,0
1738,-156.0,-203.0,7.0,0
1739,-157.0,-204.0,7.0,0
1740,-163.0,-197.0,6.0,0
1741,-160.0,-205.0,7.0,0
1742,-158.0,-204.0,8.0,0
1743,-162.0,-202.0,8.0,0
1744,-158.0,-203.0,6.0,0
1745,-160.0,-202.0,5.0,0
1746,-159.0,-202.0,3.0,0
1747,-154.0,-204.0,6.0,0
1748,-153.0,-203.0,7.0,0
1749,-152.0,-200.0,9.0,0
1750,-151.0,-198.0,0.0,0
1751,-145.0,-200.0,7.0,0
1752,-147.0,-200.0,6.0,0
1753,-146.0,-198.0,7.0,0
1754,-144.0,-198.0,10.0,0
1755,-143.0,-198.0,9.0,0
1756,-142.0,-201.0,11.0,0
1757,-144.0,-202.0,11.0,0
1758,-144.0,-198.0,10.0,0
1759,-141.0,-204.0,9.0,0
1760,-143.0,-204.0,11.0,0
1761,-139.0,-202.0,10.0,0
1762,-141.0,-202.0,9.0,0
1763,-141.0,-204.0,10.0,0
1764,-138.0,-203.0,8.0,0
1765,-138.0,-206.0,10.0,0
1766,-141.0,-205.0,12.0,0
1767,-140.0,-205.0,10.0,0
1768,-141.0,-208.0,11.0,0
1769,-139.0,-208.0,9.0,0
1770,-142.0,-206.0,9.0,0
1771,-143.0,-210.0,8.0,0
1772,-142.0,-210.0,14.0,0
1773,-144.0,-208.0,12.0,0
1774,-144.0,-206.0,9.0,0
1775,-143.0,-208.0,14.0,0
1776,-145.0,-210.0,9.0,0
1777,-145.0,-206.0,12.0,0
1778,-144.0,-209.0,13.0,0
1779,-137.0,-208.0,14.0,0
1780,-145.0,-207.0,13.0,0
1781,-138.0,-208.0,17.0,0
1782,-142.0,-209.0,14.0,0
1783,-140.0,-209.0,14.0,0
1784,-134.0,-209.0,14.0,0
1785,-131.0,-209.0,14.0,0
1786,-132.0,-210.0,16.0,0
1787,-134.0,-208.0,13.0,0
1788,-135.0,-206.0,12.0,0
1789,-131.0,-209.0,11.0,0
1790,-131.0,-207.0,10.0,0
1791,-131.0,-206.0,12.0,0
1792,-131.0,-210.0,9.0,0
1793,-131.0,-207.0,9.0,0
1794,-129.0,-207.0,12.0,0
1795,-133.0,-207.0,12.0,0
1796,-132.0,-211.0,10.0,0
1797,-133.0,-211.0,12.0,0
1798,-129.0,-211.0,8.0,0
1799,-129.0,-210.0,10.0,0
1800,-130.0,-213.0,14.0,0
1801,-130.0,-210.0,13.0,0
1802,-134.0,-209.0,12.0,0
1803,-133.0,-213.0,15.0,0
1804,-136.0,-208.0,17.0,0
1805,-134.0,-211.0,14.0,0
1806,-133.0,-209.0,10.0,0
1807,-132.0,-210.0,18.0,0
1808,-134.0,-210.0,15.0,0
1809,-134.0,-209.0,19.0,0
1810,-131.0,-210.0,17.0,0
1811,-135.0,-210.0,22.0,0
1812,-131.0,-215.0,18.0,0
1813,-127.0,-216.0,21.0,0
1814,-126.0,-213.0,22.0,0
1815,-122.0,-212.0,22.0,0
1816,-128.0,-215.0,19.0,0
1817,-127.0,-214.0,16.0,0
1818,-125.0,-214.0,18.0,0
1819,-126.0,-215.0,20.0,0
1820,-121.0,-214.0,25.0,0
1821,-124.0,-218.0,21.0,0
1822,-122.0,-216.0,24.0,0
1823,-126.0,-218.0,22.0,0
1824,-120.0,-221.0,23.0,0
1825,-120.0,-219.0,22.0,0
1826,-117.0,-219.0,24.0,0
1827,-116.0,-220.0,26.0,0
1828,-113.0,-220.0,26.0,0
1829,-110.0,-222.0,25.0,0
1830,-104.0,-220.0,25.0,0
1831,-107.0,-221.0,26.0,0
1832,-102.0,-222.0,28.0,0
1833,-101.0,-226.0,28.0,0
1834,-99.0,-225.0,23.0,0
1835,-96.0,-220.0,26.0,0
1836,-98.0,-219.0,28.0,0
1837,-96.0,-219.0,32.0,0
1838,-92.0,-223.0,34.0,0
1839,-95.0,-220.0,35.0,0
1840,-94.0,-220.0,29.0,0
1841,-94.0,-221.0,26.0,0
1842,-97.0,-217.0,28.0,0
1843,-98.0,-216.0,30.0,0
1844,-94.0,-217.0,29.0,0
1845,-94.0,-218.0,33.0,0
1846,-99.0,-213.0,29.0,0
1847,-95.0,-215.0,33.0,0
1848,-98.0,-218.0,37.0,0
1849,-97.0,-221.0,39.0,0
1850,-94.0,-221.0,35.0,0
1851,-98.0,-225.0,35.0,0
1852,-99.0,-225.0,34.0,0
1853,-98.0,-231.0,36.0,0
1854,-97.0,-231.0,30.0,0
1855,-95.0,-232.0,33.0,0
1856,-97.0,-232.0,30.0,0
1857,-96.0,-230.0,32.0,0
1858,-96.0,-230.0,31.0,0
1859,-96.0,-232.0,37.0,0
1860,-96.0,-233.0,37.0,0
1861,-96.0,-230.0,37.0,0
1862,-96.0,-229.0,37.0,0
1863,-94.0,-228.0,38.0,0
1864,-94.0,-228.0,39.0,0
1865,-93.0,-232.0,37.0,0
1866,-93.0,-226.0,44.0,0
1867,-89.0,-226.0,37.0,0
1868,-91.0,-224.0,41.0,0
1869,-86.0,-225.0,40.0,0
1870,-89.0,-222.0,39.0,0
1871,-86.0,-224.0,36.0,0
1872,-87.0,-223.0,38.0,0
1873,-83.0,-223.0,40.0,0
1874,-86.0,-221.0,42.0,0
1875,-85.0,-221.0,41.0,0
1876,-85.0,-221.0,38.0,0
1877,-83.0,-225.0,40.0,0
1878,-83.0,-224.0,38.0,0
1879,-87.0,-222.0,42.0,0
1880,-81.0,-237.0,48.0,0
1881,-82.0,-227.0,42.0,0
1882,-80.0,-228.0,44.0,0
1883,-80.0,-229.0,41.0,0
1884,-80.0,-230.0,47.0,0
1885,-78.0,-228.0,45.0,0
1886,-79.0,-232.0,46.0,0
1887,-77.0,-224.0,48.0,0
1888,-77.0,-227.0,47.0,0
1889,-75.0,-223.0,48.0,0
1890,-74.0,-222.0,45.0,0
1891,-77.0,-219.0,50.0,0
1892,-74.0,-219.0,49.0,0
1893,-74.0,-220.0,50.0,0
1894,-72.0,-223.0,50.0,0
1895,-74.0,-218.0,50.0,0
1896,-74.0,-218.0,56.0,0
1897,-74.0,-221.0,50.0,0
1898,-73.0,-223.0,51.0,0
1899,-71.0,-228.0,55.0,0
1900,-74.0,-227.0,51.0,0
1901,-72.0,-226.0,53.0,0
1902,-65.0,-222.0,54.0,0
1903,-68.0,-227.0,55.0,0
1904,-69.0,-227.0,52.0,0
1905,-69.0,-220.0,53.0,0
1906,-68.0,-224.0,51.0,0
1907,-69.0,-222.0,52.0,0
1908,-70.0,-228.0,51.0,0
1909,-71.0,-225.0,54.0,0
1910,-69.0,-226.0,54.0,0
1911,-13.0,-218.0,72.0,0
1912,-85.0,-220.0,50.0,0
1913,-75.0,-225.0,57.0,0
1914,-71.0,-222.0,50.0,0
1915,-70.0,-223.0,54.0,0
1916,-75.0,-223.0,55.0,0
1917,-68.0,-224.0,55.0,0
1918,-68.0,-224.0,54.0,0
1919,-66.0,-224.0,57.0,0
1920,-65.0,-226.0,59.0,0
1921,-64.0,-227.0,56.0,0
1922,-68.0,-225.0,54.0,0
1923,-71.0,-221.0,55.0,0
1924,-65.0,-228.0,51.0,0
1925,-67.0,-229.0,59.0,0
1926,-63.0,-223.0,57.0,0
1927,-68.0,-228.0,59.0,0
1928,-65.0,-231.0,59.0,0
1929,-64.0,-229.0,64.0,0
1930,-66.0,-226.0,59.0,0
1931,-61.0,-230.0,61.0,0
1932,-63.0,-226.0,56.0,0
1933,-61.0,-226.0,60.0,0
1934,-64.0,-225.0,54.0,0
1935,-56.0,-229.0,59.0,0
1936,-60.0,-226.0,59.0,0
1937,-57.0,-224.0,58.0,0
1938,-56.0,-229.0,59.0,0
1939,-49.0,-228.0,55.0,0
1940,-52.0,-229.0,62.0,0
1941,-53.0,-228.0,64.0,0
1942,-49.0,-227.0,60.0,0
1943,-52.0,-231.0,60.0,0
1944,-54.0,-233.0,67.0,0
1945,-54.0,-231.0,66.0,0
1946,-53.0,-233.0,61.0,0
1947,-51.0,-233.0,59.0,0
1948,-53.0,-230.0,59.0,0
1949,-50.0,-231.0,60.0,0
1950,-49.0,-237.0,62.0,0
1951,-46.0,-232.0,61.0,0
1952,-47.0,-237.0,55.0,0
1953,-49.0,-235.0,59.0,0
1954,-46.0,-234.0,57.0,0
1955,-46.0,-233.0,59.0,0
1956,-46.0,-233.0,60.0,0
1957,-44.0,-229.0,63.0,0
1958,-41.0,-231.0,60.0,0
1959,-42.0,-230.0,60.0,0
1960,-40.0,-231.0,62.0,0
1961,-39.0,-228.0,61.0,0
1962,-41.0,-229.0,67.0,0
1963,-37.0,-227.0,67.0,0
1964,-40.0,-232.0,63.0,0
1965,-41.0,-231.0,64.0,0
1966,-38.0,-231.0,63.0,0
1967,-34.0,-233.0,63.0,0
1968,-36.0,-228.0,64.0,0
1969,-33.0,-230.0,62.0,0
1970,-31.0,-229.0,62.0,0
1971,-33.0,-229.0,68.0,0
1972,-28.0,-224.0,65.0,0
1973,-33.0,-229.0,66.0,0
1974,-32.0,-229.0,65.0,0
1975,-31.0,-230.0,68.0,0
1976,-35.0,-229.0,70.0,0
1977,-31.0,-220.0,67.0,0
1978,-33.0,-224.0,72.0,0
1979,-36.0,-227.0,72.0,0
1980,-32.0,-230.0,72.0,0
1981,-34.0,-227.0,74.0,0
1982,-33.0,-231.0,73.0,0
1983,-32.0,-229.0,75.0,0
1984,-30.0,-228.0,73.0,0
1985,-29.0,-222.0,74.0,0
1986,-28.0,-225.0,73.0,0
1987,-30.0,-225.0,73.0,0
1988,-27.0,-228.0,83.0,0
1989,-26.0,-224.0,77.0,0
1990,-26.0,-224.0,75.0,0
1991,-29.0,-222.0,79.0,0
1992,-22.0,-221.0,73.0,0
1993,-25.0,-222.0,76.0,0
1994,-25.0,-222.0,76.0,0
1995,-25.0,-224.0,77.0,0
1996,-25.0,-224.0,80.0,0
1997,-22.0,-227.0,78.0,0
1998,-20.0,-229.0,79.0,0
1999,-19.0,-225.0,78.0,0
2000,-15.0,-229.0,82.0,0
2001,-12.0,-226.0,84.0,0
2002,-13.0,-231.0,83.0,0
2003,-10.0,-232.0,86.0,0
2004,-9.0,-231.0,85.0,0
2005,-7.0,-228.0,83.0,0
2006,-7.0,-228.0,90.0,0
2007,-1.0,-227.0,84.0,0
2008,2.0,-225.0,85.0,0
2009,3.0,-223.0,87.0,0
2010,2.0,-225.0,81.0,0
2011,5.0,-223.0,82.0,0
2012,2.0,-218.0,85.0,0
2013,2.0,-216.0,82.0,0
2014,4.0,-215.0,83.0,0
2015,-1.0,-215.0,79.0,0
2016,-1.0,-215.0,80.0,0
2017,-5.0,-214.0,87.0,0
2018,-2.0,-214.0,81.0,0
2019,-3.0,-215.0,92.0,0
2020,0.0,-214.0,87.0,0
2021,-3.0,-219.0,88.0,0
2022,-8.0,-216.0,88.0,0
2023,-11.0,-222.0,90.0,0
2024,-8.0,-219.0,92.0,0
2025,-8.0,-224.0,85.0,0
2026,-7.0,-229.0,94.0,0
2027,-10.0,-226.0,90.0,0
2028,-9.0,-229.0,95.0,0
2029,-8.0,-229.0,92.0,0
2030,-8.0,-227.0,89.0,0
2031,-8.0,-227.0,87.0,0
2032,-5.0,-223.0,85.0,0
2033,-4.0,-221.0,83.0,0
2034,-4.0,-224.0,87.0,0
2035,-2.0,-223.0,87.0,0
2036,-1.0,-220.0,85.0,0
2037,-3.0,-217.0,84.0,0
2038,-1.0,-221.0,84.0,0
2039,-2.0,-219.0,88.0,0
2040,-3.0,-218.0,84.0,0
2041,-2.0,-218.0,85.0,0
2042,1.0,-220.0,85.0,0
2043,1.0,-221.0,84.0,0
2044,1.0,-218.0,89.0,0
2045,2.0,-222.0,85.0,0
2046,4.0,-220.0,88.0,0
2047,3.0,-221.0,89.0,0
2048,3.0,-225.0,91.0,0
2049,1.0,-223.0,86.0,0
2050,2.0,-221.0,87.0,0
2051,4.0,-223.0,88.0,0
2052,1.0,-218.0,87.0,0
2053,2.0,-218.0,85.0,0
2054,0.0,-219.0,82.0,0
2055,-1.0,-216.0,83.0,0
2056,1.0,-215.0,82.0,0
2057,0.0,-214.0,82.0,0
2058,4.0,-220.0,85.0,0
2059,2.0,-217.0,89.0,0
2060,5.0,-217.0,90.0,0
2061,3.0,-218.0,91.0,0
2062,5.0,-219.0,94.0,0
2063,5.0,-221.0,90.0,0
2064,6.0,-218.0,93.0,0
2065,8.0,-215.0,88.0,0
2066,7.0,-221.0,87.0,0
2067,7.0,-219.0,87.0,0
2068,2.0,-221.0,87.0,0
2069,6.0,-222.0,90.0,0
2070,5.0,-218.0,86.0,0
2071,1.0,-219.0,83.0,0
2072,11.0,-224.0,87.0,0
2073,11.0,-220.0,87.0,0
2074,9.0,-221.0,84.0,0
2075,10.0,-220.0,86.0,0
2076,12.0,-218.0,85.0,0
2077,17.0,-221.0,88.0,0
2078,14.0,-219.0,84.0,0
2079,15.0,-217.0,88.0,0
2080,12.0,-216.0,90.0,0
2081,10.0,-216.0,88.0,0
2082,14.0,-218.0,88.0,0
2083,8.0,-218.0,90.0,0
2084,9.0,-215.0,91.0,0
2085,11.0,-215.0,92.0,0
2086,11.0,-214.0,89.0,0
2087,7.0,-214.0,91.0,0
2088,11.0,-213.0,91.0,0
2089,10.0,-216.0,89.0,0
2090,8.0,-217.0,94.0,0
2091,6.0,-216.0,89.0,0
2092,7.0,-217.0,90.0,0
2093,9.0,-219.0,92.0,0
2094,8.0,-216.0,90.0,0
2095,9.0,-218.0,89.0,0
2096,7.0,-219.0,88.0,0
2097,6.0,-217.0,87.0,0
2098,8.0,-217.0,88.0,0
2099,8.0,-219.0,87.0,0
2100,2.0,-217.0,88.0,0
2101,7.0,-214.0,88.0,0
2102,4.0,-215.0,92.0,0
2103,1.0,-218.0,89.0,0
2104,0.0,-214.0,92.0,0
2105,2.0,-219.0,94.0,0
2106,0.0,-219.0,90.0,0
2107,0.0,-217.0,88.0,0
2108,1.0,-217.0,88.0,0
2109,1.0,-216.0,85.0,0
2110,1.0,-213.0,83.0,0
2111,-1.0,-216.0,85.0,0
2112,-3.0,-213.0,83.0,0
2113,-2.0,-217.0,84.0,0
2114,0.0,-218.0,81.0,0
2115,-2.0,-220.0,83.0,0
2116,1.0,-217.0,88.0,0
2117,5.0,-219.0,86.0,0
2118,3.0,-219.0,86.0,0
2119,2.0,-222.0,87.0,0
2120,3.0,-223.0,85.0,0
2121,2.0,-222.0,85.0,0
2122,2.0,-222.0,90.0,0
2123,1.0,-224.0,88.0,0
2124,3.0,-221.0,86.0,0
2125,4.0,-222.0,86.0,0
2126,3.0,-222.0,85.0,0
2127,3.0,-222.0,88.0,0
2128,3.0,-224.0,86.0,0
2129,6.0,-226.0,86.0,0
2130,5.0,-225.0,88.0,0
2131,6.0,-227.0,87.0,0
2132,8.0,-228.0,91.0,0
2133,8.0,-229.0,87.0,0
2134,10.0,-231.0,85.0,0
2135,11.0,-229.0,89.0,0
2136,8.0,-230.0,82.0,0
2137,9.0,-233.0,82.0,0
2138,9.0,-229.0,84.0,0
2139,7.0,-230.0,86.0,0
2140,7.0,-229.0,84.0,0
2141,4.0,-230.0,83.0,0
2142,7.0,-229.0,84.0,0
2143,3.0,-231.0,82.0,0
2144,1.0,-230.0,84.0,0
2145,4.0,-231.0,78.0,0
2146,2.0,-230.0,82.0,0
2147,1.0,-233.0,87.0,0
2148,2.0,-233.0,81.0,0
2149,3.0,-231.0,82.0,0
2150,4.0,-230.0,84.0,0
2151,1.0,-230.0,84.0,0
2152,4.0,-228.0,84.0,0
2153,4.0,-227.0,83.0,0
2154,1.0,-227.0,85.0,0
2155,2.0,-221.0,84.0,0
2156,2.0,-222.0,86.0,0
2157,4.0,-219.0,82.0,0
2158,2.0,-218.0,82.0,0
2159,-2.0,-216.0,87.0,0
2160,2.0,-216.0,85.0,0
2161,-1.0,-214.0,87.0,0
2162,-5.0,-211.0,87.0,0
2163,-4.0,-215.0,85.0,0
2164,-3.0,-215.0,91.0,0
2165,-5.0,-212.0,90.0,0
2166,-5.0,-210.0,90.0,0
2167,-1.0,-211.0,88.0,0
2168,1.0,-213.0,90.0,0
2169,1.0,-211.0,89.0,0
2170,-2.0,-213.0,89.0,0
2171,1.0,-214.0,91.0,0
2172,2.0,-215.0,96.0,0
2173,1.0,-214.0,91.0,0
2174,-2.0,-211.0,89.0,0
2175,2.0,-211.0,96.0,0
2176,1.0,-215.0,96.0,0
2177,4.0,-216.0,99.0,0
2178,6.0,-218.0,96.0,0
2179,3.0,-217.0,94.0,0
2180,6.0,-215.0,93.0,0
2181,6.0,-219.0,90.0,0
2182,4.0,-217.0,93.0,0
2183,6.0,-219.0,89.0,0
2184,3.0,-218.0,92.0,0
2185,0.0,-217.0,90.0,0
2186,2.0,-215.0,88.0,0
2187,6.0,-218.0,86.0,0
2188,4.0,-221.0,81.0,0
2189,7.0,-217.0,87.0,0
2190,6.0,-217.0,86.0,0
2191,7.0,-218.0,82.0,0
2192,9.0,-219.0,87.0,0
2193,6.0,-217.0,87.0,0
2194,6.0,-218.0,86.0,0
2195,9.0,-221.0,83.0,0
2196,10.0,-223.0,88.0,0
2197,11.0,-224.0,86.0,0
2198,13.0,-225.0,86.0,0
2199,10.0,-228.0,87.0,0
2200,8.0,-229.0,85.0,0
2201,12.0,-229.0,83.0,0
2202,8.0,-230.0,82.0,0
2203,11.0,-229.0,83.0,0
2204,10.0,-230.0,85.0,0
2205,6.0,-228.0,85.0,0
2206,7.0,-228.0,88.0,0
2207,2.0,-226.0,79.0,0
2208,2.0,-224.0,82.0,0
2209,4.0,-222.0,85.0,0
2210,1.0,-225.0,82.0,0
2211,1.0,-221.0,84.0,0
2212,-2.0,-222.0,83.0,0
2213,1.0,-221.0,88.0,0
2214,1.0,-219.0,86.0,0
2215,3.0,-221.0,87.0,0
2216,-3.0,-219.0,86.0,0
2217,1.0,-220.0,85.0,0
2218,-1.0,-219.0,87.0,0
2219,-2.0,-219.0,90.0,0
2220,-3.0,-219.0,87.0,0
2221,-3.0,-219.0,87.0,0
2222,-2.0,-218.0,85.0,0
2223,-5.0,-218.0,87.0,0
2224,-2.0,-222.0,85.0,0
2225,-5.0,-221.0,85.0,0
2226,-3.0,-221.0,85.0,0
2227,-4.0,-221.0,85.0,0
2228,-1.0,-221.0,85.0,0
2229,-5.0,-222.0,89.0,0
2230,-3.0,-224.0,89.0,0
2231,-1.0,-222.0,89.0,0
2232,1.0,-223.0,85.0,0
2233,-1.0,-224.0,86.0,0
2234,-3.0,-225.0,89.0,0
2235,-2.0,-221.0,85.0,0
2236,-2.0,-222.0,85.0,0
2237,-1.0,-220.0,88.0,0
2238,1.0,-223.0,91.0,0
2239,-1.0,-223.0,87.0,0
2240,0.0,-219.0,90.0,0
2241,0.0,-220.0,89.0,0
2242,0.0,-221.0,89.0,0
2243,2.0,-222.0,86.0,0
2244,1.0,-222.0,87.0,0
2245,3.0,-220.0,89.0,0
2246,3.0,-220.0,87.0,0
2247,1.0,-218.0,89.0,0
2248,2.0,-219.0,90.0,0
2249,3.0,-218.0,91.0,0
2250,1.0,-221.0,90.0,0
2251,-1.0,-224.0,91.0,0
2252,2.0,-219.0,93.0,0
2253,1.0,-217.0,88.0,0
2254,1.0,-220.0,92.0,0
2255,-1.0,-221.0,88.0,0
2256,-1.0,-222.0,86.0,0
2257,1.0,-220.0,87.0,0
2258,-1.0,-218.0,86.0,0
2259,-2.0,-219.0,87.0,0
2260,0.0,-218.0,84.0,0
2261,0.0,-218.0,91.0,0
2262,-2.0,-221.0,86.0,0
2263,-2.0,-219.0,90.0,0
2264,-1.0,-222.0,90.0,0
2265,2.0,-224.0,87.0,0
2266,-3.0,-220.0,91.0,0
2267,1.0,-220.0,89.0,0
2268,1.0,-223.0,85.0,0
2269,-2.0,-220.0,87.0,0
2270,-2.0,-221.0,85.0,0
2271,-2.0,-216.0,82.0,0
2272,-4.0,-219.0,87.0,0
2273,-1.0,-219.0,87.0,0
2274,-2.0,-222.0,84.0,0
2275,2.0,-218.0,85.0,0
2276,0.0,-217.0,88.0,0
2277,-1.0,-218.0,87.0,0
2278,0.0,-219.0,86.0,0
2279,2.0,-221.0,89.0,0
2280,-3.0,-217.0,86.0,0
2281,0.0,-220.0,84.0,0
2282,-1.0,-218.0,86.0,0
2283,-2.0,-221.0,84.0,0
2284,-1.0,-222.0,84.0,0
2285,1.0,-222.0,78.0,0
2286,-3.0,-219.0,81.0,0
2287,-1.0,-220.0,82.0,0
2288,-4.0,-217.0,83.0,0
2289,-4.0,-223.0,85.0,0
2290,-4.0,-222.0,82.0,0
2291,-5.0,-223.0,84.0,0
2292,-4.0,-225.0,87.0,0
2293,0.0,-224.0,91.0,0
2294,-3.0,-224.0,90.0,0
2295,-3.0,-225.0,87.0,0
2296,-1.0,-224.0,84.0,0
2297,-5.0,-223.0,85.0,0
2298,-3.0,-222.0,86.0,0
2299,-2.0,-224.0,82.0,0
2300,-4.0,-221.0,84.0,0
2301,-1.0,-223.0,82.0,0
2302,0.0,-224.0,82.0,0
2303,0.0,-224.0,77.0,0
2304,-1.0,-223.0,80.0,0
2305,-3.0,-216.0,73.0,0
2306,4.0,-218.0,76.0,0
2307,-1.0,-226.0,85.0,0
2308,-1.0,-224.0,88.0,0
2309,1.0,-223.0,84.0,0
2310,0.0,-225.0,84.0,0
2311,0.0,-224.0,82.0,0
2312,0.0,-225.0,85.0,0
2313,1.0,-223.0,85.0,0
2314,2.0,-223.0,80.0,0
2315,2.0,-222.0,87.0,0
2316,8.0,-213.0,82.0,0
2317,3.0,-223.0,81.0,0
2318,0.0,-220.0,81.0,0
2319,2.0,-223.0,79.0,0
2320,3.0,-225.0,85.0,0
2321,-1.0,-222.0,84.0,0
2322,0.0,-222.0,83.0,0
2323,3.0,-222.0,89.0,0
2324,0.0,-225.0,84.0,0
2325,1.0,-225.0,84.0,0
2326,0.0,-221.0,86.0,0
2327,0.0,-224.0,84.0,0
2328,-1.0,-223.0,85.0,0
2329,1.0,-223.0,85.0,0
2330,-1.0,-223.0,81.0,0
2331,0.0,-225.0,83.0,0
2332,-3.0,-221.0,84.0,0
2333,-4.0,-224.0,81.0,0
2334,-3.0,-222.0,82.0,0
2335,-1.0,-222.0,79.0,0
2336,-4.0,-224.0,82.0,0
2337,-2.0,-223.0,83.0,0
2338,1.0,-230.0,91.0,0
2339,-2.0,-224.0,83.0,0
2340,-4.0,-222.0,83.0,0
2341,-1.0,-221.0,79.0,0
2342,-2.0,-223.0,81.0,0
2343,-4.0,-223.0,81.0,0
2344,-4.0,-225.0,82.0,0
2345,-2.0,-224.0,81.0,0
2346,-5.0,-222.0,83.0,0
2347,1.0,-220.0,77.0,0
2348,-1.0,-221.0,81.0,0
2349,-2.0,-221.0,80.0,0
2350,1.0,-223.0,83.0,0
2351,-2.0,-222.0,82.0,0
2352,0.0,-221.0,79.0,0
2353,-1.0,-222.0,83.0,0
2354,0.0,-224.0,84.0,0
2355,1.0,-224.0,87.0,0
2356,-1.0,-222.0,81.0,0
2357,-4.0,-223.0,86.0,0
2358,-3.0,-226.0,86.0,0
2359,-4.0,-229.0,84.0,0
2360,-5.0,-226.0,88.0,0
2361,-1.0,-228.0,83.0,0
2362,-4.0,-228.0,83.0,0
2363,-1.0,-229.0,83.0,0
2364,-5.0,-226.0,84.0,0
2365,-4.0,-225.0,84.0,0
2366,-5.0,-224.0,81.0,0
2367,-6.0,-227.0,82.0,0
2368,-2.0,-225.0,80.0,0
2369,-3.0,-224.0,83.0,0
2370,-6.0,-226.0,82.0,0
2371,-7.0,-223.0,78.0,0
2372,-4.0,-221.0,81.0,0
2373,-4.0,-222.0,81.0,0
2374,-5.0,-223.0,81.0,0
2375,-4.0,-225.0,82.0,0
2376,-3.0,-226.0,79.0,0
2377,-7.0,-224.0,80.0,0
2378,-5.0,-225.0,81.0,0
2379,-8.0,-228.0,80.0,0
2380,-3.0,-225.0,82.0,0
2381,-3.0,-221.0,79.0,0
2382,-2.0,-225.0,87.0,0
2383,-2.0,-224.0,85.0,0
2384,-3.0,-224.0,87.0,0
2385,0.0,-224.0,87.0,0
2386,-1.0,-224.0,88.0,0
2387,-1.0,-222.0,85.0,0
2388,-3.0,-221.0,85.0,0
2389,2.0,-222.0,86.0,0
2390,-1.0,-222.0,88.0,0
2391,-1.0,-221.0,83.0,0
2392,0.0,-222.0,84.0,0
2393,0.0,-223.0,83.0,0
2394,2.0,-223.0,81.0,0
2395,2.0,-225.0,82.0,0
2396,2.0,-222.0,83.0,0
2397,1.0,-225.0,85.0,0
2398,2.0,-222.0,83.0,0
2399,4.0,-222.0,90.0,0
