,accelerometer_x,accelerometer_y,accelerometer_z,fall
0,0.0,-245.0,-54.0,0
1,-2.0,-243.0,-52.0,0
2,-1.0,-246.0,-56.0,0
3,2.0,-246.0,-57.0,0
4,4.0,-247.0,-54.0,0
5,5.0,-244.0,-50.0,0
6,6.0,-248.0,-52.0,0
7,5.0,-245.0,-56.0,0
8,5.0,-250.0,-52.0,0
9,6.0,-248.0,-52.0,0
10,4.0,-244.0,-51.0,0
11,6.0,-250.0,-50.0,0
12,7.0,-250.0,-56.0,0
13,6.0,-251.0,-51.0,0
14,9.0,-252.0,-51.0,0
15,1.0,-251.0,-53.0,0
16,5.0,-249.0,-49.0,0
17,8.0,-250.0,-54.0,0
18,9.0,-249.0,-51.0,0
19,8.0,-247.0,-53.0,0
20,10.0,-250.0,-49.0,0
21,14.0,-250.0,-51.0,0
22,13.0,-248.0,-51.0,0
23,16.0,-249.0,-52.0,0
24,15.0,-245.0,-49.0,0
25,14.0,-243.0,-50.0,0
26,17.0,-244.0,-51.0,0
27,16.0,-245.0,-50.0,0
28,16.0,-244.0,-47.0,0
29,19.0,-244.0,-50.0,0
30,17.0,-240.0,-50.0,0
31,21.0,-243.0,-48.0,0
32,16.0,-243.0,-45.0,0
33,19.0,-239.0,-44.0,0
34,23.0,-241.0,-44.0,0
35,24.0,-242.0,-46.0,0
36,25.0,-239.0,-45.0,0
37,27.0,-243.0,-39.0,0
38,28.0,-240.0,-40.0,0
39,28.0,-241.0,-43.0,0
40,33.0,-245.0,-46.0,0
41,31.0,-245.0,-45.0,0
42,31.0,-239.0,-43.0,0
43,34.0,-244.0,-46.0,0
44,35.0,-243.0,-42.0,0
45,32.0,-245.0,-41.0,0
46,32.0,-243.0,-40.0,0
47,35.0,-244.0,-43.0,0
48,34.0,-242.0,-43.0,0
49,33.0,-244.0,-41.0,0
50,30.0,-241.0,-39.0,0
51,30.0,-242.0,-40.0,0
52,32.0,-239.0,-40.0,0
53,28.0,-238.0,-37.0,0
54,30.0,-243.0,-37.0,0
55,30.0,-240.0,-40.0,0
56,33.0,-243.0,-42.0,0
57,32.0,-245.0,-41.0,0
58,32.0,-248.0,-38.0,0
59,31.0,-249.0,-37.0,0
60,35.0,-247.0,-37.0,0
61,32.0,-249.0,-39.0,0
62,36.0,-252.0,-38.0,0
63,31.0,-251.0,-37.0,0
64,34.0,-254.0,-41.0,0
65,36.0,-254.0,-37.0,0
66,34.0,-252.0,-38.0,0
67,35.0,-256.0,-36.0,0
68,35.0,-253.0,-35.0,0
69,33.0,-255.0,-34.0,0
70,39.0,-258.0,-34.0,0
71,34.0,-258.0,-35.0,0
72,33.0,-260.0,-30.0,0
73,31.0,-260.0,-35.0,0
74,33.0,-259.0,-32.0,0
75,32.0,-260.0,-29.0,0
76,29.0,-261.0,-33.0,0
77,28.0,-261.0,-26.0,0
78,26.0,-261.0,-26.0,0
79,22.0,-263.0,-30.0,0
80,22.0,-265.0,-35.0,0
81,20.0,-259.0,-36.0,0
82,21.0,-258.0,-37.0,0
83,20.0,-260.0,-32.0,0
84,19.0,-258.0,-39.0,0
85,19.0,-254.0,-39.0,0
86,17.0,-251.0,-40.0,0
87,15.0,-250.0,-38.0,0
88,13.0,-252.0,-37.0,0
89,15.0,-246.0,-37.0,0
90,14.0,-247.0,-35.0,0
91,9.0,-246.0,-43.0,0
92,7.0,-248.0,-41.0,0
93,3.0,-244.0,-39.0,0
94,3.0,-242.0,-44.0,0
95,0.0,-240.0,-50.0,0
96,4.0,-239.0,-48.0,0
97,2.0,-236.0,-52.0,0
98,-2.0,-233.0,-52.0,0
99,-3.0,-227.0,-53.0,0
100,-4.0,-222.0,-53.0,0
101,-12.0,-220.0,-60.0,0
102,-5.0,-220.0,-56.0,0
103,-4.0,-214.0,-55.0,0
104,-5.0,-216.0,-56.0,0
105,-7.0,-216.0,-62.0,0
106,-9.0,-213.0,-59.0,0
107,-14.0,-214.0,-62.0,0
108,-17.0,-214.0,-63.0,0
109,-20.0,-217.0,-63.0,0
110,-28.0,-216.0,-66.0,0
111,-32.0,-211.0,-66.0,0
112,-40.0,-211.0,-67.0,0
113,-44.0,-221.0,-63.0,0
114,-58.0,-213.0,-60.0,0
115,-59.0,-215.0,-61.0,0
116,-66.0,-213.0,-59.0,0
117,-70.0,-212.0,-56.0,0
118,-73.0,-218.0,-56.0,0
119,-74.0,-219.0,-52.0,0
120,-75.0,-217.0,-53.0,0
121,-78.0,-218.0,-53.0,0
122,-77.0,-222.0,-51.0,0
123,-75.0,-216.0,-49.0,0
124,-68.0,-226.0,-53.0,0
125,-62.0,-228.0,-49.0,0
126,-55.0,-231.0,-50.0,0
127,-51.0,-234.0,-48.0,0
128,-49.0,-242.0,-38.0,0
129,-44.0,-243.0,-42.0,0
130,-36.0,-250.0,-39.0,0
131,-36.0,-251.0,-32.0,0
132,-32.0,-255.0,-33.0,0
133,-28.0,-260.0,-33.0,0
134,-30.0,-260.0,-33.0,0
135,-28.0,-262.0,-31.0,0
136,-28.0,-263.0,-33.0,0
137,-28.0,-269.0,-41.0,0
138,-29.0,-274.0,-34.0,0
139,-33.0,-276.0,-43.0,0
140,-35.0,-283.0,-37.0,0
141,-40.0,-281.0,-39.0,0
142,-42.0,-282.0,-37.0,0
143,-41.0,-284.0,-35.0,0
144,-46.0,-278.0,-38.0,0
145,-44.0,-270.0,-41.0,0
146,-48.0,-275.0,-36.0,0
147,-49.0,-269.0,-32.0,0
148,-51.0,-262.0,-35.0,0
149,-49.0,-261.0,-40.0,0
150,-49.0,-257.0,-34.0,0
151,-44.0,-253.0,-37.0,0
152,-40.0,-242.0,-32.0,0
153,-36.0,-241.0,-29.0,0
154,-31.0,-237.0,-29.0,0
155,-30.0,-234.0,-28.0,0
156,-22.0,-234.0,-25.0,0
157,-22.0,-233.0,-24.0,0
158,-24.0,-227.0,-22.0,0
159,-21.0,-228.0,-22.0,0
160,-20.0,-229.0,-18.0,0
161,-23.0,-227.0,-13.0,0
162,-20.0,-226.0,-17.0,0
163,-23.0,-226.0,-19.0,0
164,-17.0,-226.0,-25.0,0
165,-18.0,-228.0,-17.0,0
166,-11.0,-222.0,-18.0,0
167,-23.0,-230.0,-12.0,0
168,-22.0,-226.0,-12.0,0
169,-24.0,-227.0,-12.0,0
170,-23.0,-226.0,-8.0,0
171,-21.0,-225.0,-15.0,0
172,-18.0,-223.0,-19.0,0
173,-23.0,-225.0,-14.0,0
174,-25.0,-223.0,-13.0,0
175,-24.0,-222.0,-13.0,0
176,-27.0,-218.0,-17.0,0
177,-27.0,-219.0,-17.0,0
178,-30.0,-220.0,-16.0,0
179,-33.0,-218.0,-11.0,0
180,-32.0,-220.0,-8.0,0
181,-33.0,-216.0,-9.0,0
182,-30.0,-218.0,-3.0,0
183,-32.0,-226.0,-3.0,0
184,-33.0,-222.0,-2.0,0
185,-32.0,-225.0,1.0,0
186,-34.0,-228.0,1.0,0
187,-33.0,-231.0,5.0,0
188,-32.0,-235.0,5.0,0
189,-32.0,-239.0,2.0,0
190,-31.0,-239.0,1.0,0
191,-31.0,-239.0,8.0,0
192,-26.0,-244.0,4.0,0
193,-26.0,-246.0,8.0,0
194,-20.0,-251.0,1.0,0
195,-20.0,-250.0,2.0,0
196,-25.0,-252.0,7.0,0
197,-26.0,-253.0,5.0,0
198,-28.0,-257.0,1.0,0
199,-31.0,-258.0,-4.0,0
200,-34.0,-261.0,-5.0,0
201,-32.0,-264.0,-11.0,0
202,-30.0,-258.0,-9.0,0
203,-27.0,-257.0,-10.0,0
204,-22.0,-257.0,-21.0,0
205,-23.0,-258.0,-24.0,0
206,-28.0,-259.0,-12.0,0
207,-28.0,-265.0,-5.0,0
208,-33.0,-270.0,6.0,0
209,-37.0,-269.0,9.0,0
210,-46.0,-276.0,8.0,0
211,-43.0,-277.0,20.0,0
212,-37.0,-281.0,22.0,0
213,-40.0,-286.0,26.0,0
214,-39.0,-287.0,32.0,0
215,-34.0,-286.0,36.0,0
216,-31.0,-292.0,34.0,0
217,-33.0,-301.0,27.0,0
218,-31.0,-302.0,27.0,0
219,-9.0,-299.0,13.0,0
220,13.0,-300.0,6.0,0
221,26.0,-309.0,-18.0,0
222,28.0,-314.0,-28.0,0
223,31.0,-325.0,-41.0,0
224,13.0,-340.0,-58.0,0
225,-11.0,-350.0,-72.0,0
226,-37.0,-357.0,-87.0,0
227,-63.0,-355.0,-101.0,0
228,-89.0,-348.0,-117.0,0
229,-118.0,-322.0,-148.0,0
230,-116.0,-303.0,-169.0,0
231,-116.0,-289.0,-177.0,0
232,-111.0,-282.0,-174.0,0
233,-88.0,-266.0,-158.0,0
234,-68.0,-245.0,-140.0,0
235,-47.0,-232.0,-123.0,0
236,-23.0,-223.0,-115.0,0
237,-3.0,-209.0,-112.0,0
238,15.0,-201.0,-102.0,0
239,33.0,-200.0,-94.0,0
240,49.0,-195.0,-93.0,0
241,59.0,-197.0,-91.0,0
242,61.0,-205.0,-78.0,0
243,55.0,-211.0,-67.0,0
244,42.0,-219.0,-53.0,0
245,23.0,-227.0,-43.0,0
246,13.0,-239.0,-45.0,0
247,-1.0,-251.0,-44.0,0
248,-18.0,-258.0,-44.0,0
249,-44.0,-258.0,-44.0,0
250,-50.0,-263.0,-42.0,0
251,-66.0,-260.0,-46.0,0
252,-77.0,-261.0,-50.0,0
253,-71.0,-257.0,-54.0,0
254,-79.0,-254.0,-53.0,0
255,-74.0,-245.0,-61.0,0
256,-63.0,-245.0,-63.0,0
257,-58.0,-238.0,-65.0,0
258,-45.0,-234.0,-65.0,0
259,-26.0,-228.0,-63.0,0
260,-17.0,-218.0,-69.0,0
261,-3.0,-205.0,-63.0,0
262,2.0,-201.0,-69.0,0
263,8.0,-196.0,-67.0,0
264,9.0,-194.0,-64.0,0
265,6.0,-194.0,-54.0,0
266,4.0,-187.0,-59.0,0
267,19.0,-192.0,-55.0,0
268,24.0,-189.0,-56.0,0
269,18.0,-189.0,-53.0,0
270,13.0,-195.0,-49.0,0
271,11.0,-196.0,-46.0,0
272,8.0,-198.0,-43.0,0
273,11.0,-205.0,-36.0,0
274,-3.0,-231.0,-49.0,0
275,-3.0,-234.0,-51.0,0
276,-9.0,-241.0,-44.0,0
277,-15.0,-240.0,-42.0,0
278,-5.0,-249.0,-45.0,0
279,-6.0,-254.0,-39.0,0
280,-10.0,-254.0,-42.0,0
281,-5.0,-258.0,-38.0,0
282,0.0,-260.0,-47.0,0
283,-3.0,-257.0,-43.0,0
284,-3.0,-253.0,-37.0,0
285,-4.0,-244.0,-38.0,0
286,-1.0,-238.0,-38.0,0
287,-3.0,-237.0,-35.0,0
288,-1.0,-236.0,-38.0,0
289,-3.0,-232.0,-33.0,0
290,-3.0,-225.0,-32.0,0
291,-2.0,-225.0,-28.0,0
292,-4.0,-219.0,-25.0,0
293,-3.0,-219.0,-23.0,0
294,-1.0,-219.0,-16.0,0
295,-2.0,-218.0,-14.0,0
296,-2.0,-218.0,-14.0,0
297,-2.0,-220.0,-5.0,0
298,-2.0,-223.0,-4.0,0
299,-1.0,-229.0,2.0,0
300,-4.0,-236.0,7.0,0
301,-9.0,-241.0,11.0,0
302,-32.0,-244.0,18.0,0
303,-15.0,-258.0,17.0,0
304,-9.0,-268.0,12.0,0
305,-16.0,-271.0,10.0,0
306,-12.0,-282.0,5.0,0
307,-12.0,-284.0,3.0,0
308,-8.0,-284.0,-5.0,0
309,-10.0,-280.0,-11.0,0
310,-15.0,-277.0,-20.0,0
311,-14.0,-269.0,-45.0,0
312,-14.0,-260.0,-54.0,0
313,-31.0,-257.0,-50.0,0
314,-33.0,-258.0,-36.0,0
315,-30.0,-262.0,-16.0,0
316,-15.0,-268.0,2.0,0
317,-9.0,-267.0,3.0,0
318,35.0,-286.0,10.0,0
319,56.0,-300.0,27.0,0
320,75.0,-315.0,39.0,0
321,93.0,-327.0,47.0,0
322,101.0,-331.0,52.0,0
323,106.0,-340.0,52.0,0
324,110.0,-341.0,40.0,0
325,100.0,-343.0,11.0,0
326,89.0,-337.0,-34.0,0
327,70.0,-348.0,-60.0,0
328,43.0,-366.0,-82.0,0
329,-13.0,-368.0,-89.0,0
330,8.0,-393.0,-73.0,0
331,14.0,-390.0,-71.0,0
332,13.0,-387.0,-59.0,0
333,23.0,-372.0,-65.0,0
334,45.0,-364.0,-68.0,0
335,51.0,-327.0,-92.0,0
336,70.0,-306.0,-109.0,0
337,66.0,-276.0,-122.0,0
338,47.0,-250.0,-127.0,0
339,39.0,-232.0,-121.0,0
340,29.0,-211.0,-125.0,0
341,25.0,-196.0,-126.0,0
342,15.0,-171.0,-129.0,0
343,2.0,-140.0,-130.0,0
344,-15.0,-129.0,-130.0,0
345,-43.0,-120.0,-122.0,0
346,-61.0,-113.0,-104.0,0
347,-78.0,-113.0,-86.0,0
348,-89.0,-115.0,-67.0,0
349,-108.0,-123.0,-50.0,0
350,-122.0,-132.0,-41.0,0
351,-125.0,-146.0,-32.0,0
352,-126.0,-170.0,-36.0,0
353,-117.0,-193.0,-40.0,0
354,-100.0,-215.0,-52.0,0
355,-85.0,-232.0,-56.0,0
356,-60.0,-253.0,-66.0,0
357,-33.0,-276.0,-68.0,0
358,-5.0,-303.0,-67.0,0
359,12.0,-323.0,-64.0,0
360,31.0,-341.0,-65.0,0
361,37.0,-355.0,-58.0,0
362,39.0,-355.0,-61.0,0
363,42.0,-348.0,-59.0,0
364,43.0,-327.0,-68.0,0
365,41.0,-313.0,-69.0,0
366,39.0,-293.0,-77.0,0
367,29.0,-261.0,-80.0,0
368,16.0,-242.0,-77.0,0
369,10.0,-228.0,-76.0,0
370,3.0,-216.0,-74.0,0
371,9.0,-196.0,-76.0,0
372,10.0,-195.0,-60.0,0
373,-2.0,-189.0,-59.0,0
374,-5.0,-183.0,-54.0,0
375,-11.0,-176.0,-44.0,0
376,-15.0,-173.0,-40.0,0
377,-16.0,-172.0,-49.0,0
378,-20.0,-170.0,-53.0,0
379,-25.0,-171.0,-56.0,0
380,-32.0,-178.0,-62.0,0
381,-32.0,-177.0,-58.0,0
382,-37.0,-186.0,-58.0,0
383,-31.0,-190.0,-56.0,0
384,-37.0,-192.0,-54.0,0
385,-40.0,-202.0,-51.0,0
386,-39.0,-209.0,-53.0,0
387,-44.0,-217.0,-54.0,0
388,-45.0,-218.0,-53.0,0
389,-48.0,-222.0,-47.0,0
390,-48.0,-226.0,-48.0,0
391,-51.0,-223.0,-44.0,0
392,-53.0,-224.0,-36.0,0
393,-59.0,-225.0,-33.0,0
394,-52.0,-222.0,-38.0,0
395,-52.0,-219.0,-31.0,0
396,-52.0,-214.0,-30.0,0
397,-52.0,-207.0,-34.0,0
398,-47.0,-208.0,-27.0,0
399,-51.0,-204.0,-28.0,0
400,-48.0,-206.0,-18.0,0
401,-47.0,-206.0,-24.0,0
402,-47.0,-210.0,-18.0,0
403,-48.0,-203.0,-16.0,0
404,-50.0,-201.0,-5.0,0
405,-45.0,-209.0,-5.0,0
406,-47.0,-210.0,-9.0,0
407,-47.0,-211.0,-10.0,0
408,-45.0,-211.0,-10.0,0
409,-39.0,-214.0,-9.0,0
410,-34.0,-221.0,0.0,0
411,-30.0,-232.0,-4.0,0
412,-18.0,-235.0,1.0,0
413,-22.0,-237.0,-3.0,0
414,-17.0,-247.0,-7.0,0
415,-24.0,-254.0,-12.0,0
416,-31.0,-258.0,-15.0,0
417,-31.0,-263.0,-22.0,0
418,-43.0,-260.0,-34.0,0
419,-50.0,-259.0,-43.0,0
420,-52.0,-253.0,-48.0,0
421,-50.0,-251.0,-55.0,0
422,-42.0,-250.0,-63.0,0
423,-35.0,-253.0,-56.0,0
424,-30.0,-261.0,-44.0,0
425,-40.0,-273.0,-17.0,0
426,-46.0,-293.0,16.0,0
427,-57.0,-306.0,31.0,0
428,-80.0,-320.0,46.0,0
429,-101.0,-323.0,47.0,0
430,-115.0,-330.0,49.0,0
431,-118.0,-334.0,46.0,0
432,-116.0,-336.0,52.0,0
433,-112.0,-330.0,57.0,0
434,-99.0,-327.0,54.0,0
435,-83.0,-324.0,44.0,0
436,-78.0,-326.0,26.0,0
437,-52.0,-332.0,1.0,0
438,-25.0,-341.0,-19.0,0
439,-2.0,-356.0,-40.0,0
440,10.0,-363.0,-51.0,0
441,8.0,-361.0,-57.0,0
442,-3.0,-353.0,-69.0,0
443,-19.0,-336.0,-89.0,0
444,-63.0,-320.0,-116.0,0
445,-99.0,-299.0,-150.0,0
446,-113.0,-292.0,-173.0,0
447,-122.0,-270.0,-203.0,0
448,-104.0,-261.0,-211.0,0
449,-78.0,-250.0,-194.0,0
450,-44.0,-238.0,-175.0,0
451,-19.0,-229.0,-161.0,0
452,3.0,-212.0,-153.0,0
453,28.0,-202.0,-144.0,0
454,43.0,-194.0,-137.0,0
455,66.0,-194.0,-124.0,0
456,81.0,-202.0,-123.0,0
457,97.0,-208.0,-107.0,0
458,103.0,-221.0,-86.0,0
459,99.0,-229.0,-66.0,0
460,93.0,-237.0,-53.0,0
461,70.0,-239.0,-35.0,0
462,55.0,-241.0,-27.0,0
463,37.0,-242.0,-29.0,0
464,23.0,-251.0,-25.0,0
465,15.0,-252.0,-25.0,0
466,-2.0,-247.0,-33.0,0
467,-19.0,-248.0,-42.0,0
468,-37.0,-240.0,-54.0,0
469,-57.0,-233.0,-67.0,0
470,-67.0,-233.0,-75.0,0
471,-80.0,-235.0,-80.0,0
472,-85.0,-240.0,-75.0,0
473,-85.0,-251.0,-65.0,0
474,-80.0,-254.0,-63.0,0
475,-73.0,-259.0,-56.0,0
476,-71.0,-250.0,-54.0,0
477,-67.0,-229.0,-58.0,0
478,-61.0,-214.0,-56.0,0
479,-51.0,-192.0,-58.0,0
480,-44.0,-180.0,-55.0,0
481,-39.0,-165.0,-59.0,0
482,-27.0,-154.0,-52.0,0
483,-15.0,-144.0,-56.0,0
484,-4.0,-147.0,-53.0,0
485,5.0,-149.0,-45.0,0
486,17.0,-156.0,-46.0,0
487,22.0,-165.0,-49.0,0
488,26.0,-176.0,-43.0,0
489,24.0,-184.0,-47.0,0
490,20.0,-205.0,-38.0,0
491,28.0,-209.0,-42.0,0
492,33.0,-218.0,-41.0,0
493,35.0,-227.0,-45.0,0
494,33.0,-236.0,-46.0,0
495,35.0,-248.0,-48.0,0
496,39.0,-257.0,-49.0,0
497,40.0,-264.0,-48.0,0
498,40.0,-275.0,-46.0,0
499,41.0,-281.0,-44.0,0
500,36.0,-286.0,-40.0,0
501,35.0,-287.0,-39.0,0
502,29.0,-279.0,-35.0,0
503,30.0,-278.0,-35.0,0
504,18.0,-264.0,-30.0,0
505,14.0,-258.0,-30.0,0
506,9.0,-254.0,-22.0,0
507,-4.0,-244.0,-21.0,0
508,-10.0,-245.0,-12.0,0
509,-14.0,-244.0,-14.0,0
510,-19.0,-234.0,-10.0,0
511,-25.0,-234.0,-9.0,0
512,-36.0,-233.0,-6.0,0
513,-38.0,-232.0,-5.0,0
514,-48.0,-235.0,8.0,0
515,-55.0,-237.0,8.0,0
516,-57.0,-242.0,13.0,0
517,-51.0,-248.0,13.0,0
518,-49.0,-251.0,16.0,0
519,-37.0,-258.0,15.0,0
520,-31.0,-260.0,9.0,0
521,-25.0,-257.0,10.0,0
522,-28.0,-262.0,11.0,0
523,-31.0,-260.0,14.0,0
524,-41.0,-258.0,10.0,0
525,-53.0,-261.0,17.0,0
526,-63.0,-261.0,23.0,0
527,-63.0,-259.0,19.0,0
528,-50.0,-261.0,11.0,0
529,-47.0,-251.0,21.0,0
530,-37.0,-261.0,17.0,0
531,-20.0,-270.0,36.0,0
532,-4.0,-274.0,39.0,0
533,11.0,-283.0,40.0,0
534,48.0,-286.0,31.0,0
535,73.0,-290.0,21.0,0
536,80.0,-292.0,13.0,0
537,88.0,-300.0,8.0,0
538,83.0,-314.0,-3.0,0
539,69.0,-325.0,-26.0,0
540,46.0,-341.0,-36.0,0
541,23.0,-351.0,-53.0,0
542,4.0,-358.0,-63.0,0
543,-12.0,-349.0,-77.0,0
544,-21.0,-338.0,-84.0,0
545,-13.0,-320.0,-89.0,0
546,-3.0,-288.0,-101.0,0
547,24.0,-257.0,-114.0,0
548,39.0,-225.0,-122.0,0
549,30.0,-197.0,-118.0,0
550,20.0,-177.0,-109.0,0
551,4.0,-171.0,-99.0,0
552,-6.0,-154.0,-79.0,0
553,-3.0,-151.0,-51.0,0
554,-7.0,-150.0,-23.0,0
555,-11.0,-160.0,-13.0,0
556,-17.0,-164.0,-11.0,0
557,-26.0,-185.0,-9.0,0
558,-26.0,-219.0,-9.0,0
559,-30.0,-255.0,-6.0,0
560,-41.0,-283.0,1.0,0
561,-40.0,-304.0,6.0,0
562,-47.0,-319.0,7.0,0
563,-47.0,-335.0,6.0,0
564,-44.0,-348.0,8.0,0
565,-45.0,-351.0,16.0,0
566,-35.0,-355.0,10.0,0
567,-32.0,-346.0,15.0,0
568,-33.0,-317.0,-1.0,0
569,-22.0,-290.0,-14.0,0
570,-16.0,-272.0,-27.0,0
571,-8.0,-251.0,-33.0,0
572,-4.0,-240.0,-37.0,0
573,-8.0,-247.0,-32.0,0
574,-19.0,-254.0,-18.0,0
575,-21.0,-260.0,-15.0,0
576,-31.0,-247.0,2.0,0
577,-36.0,-257.0,-1.0,0
578,-43.0,-251.0,4.0,0
579,-40.0,-233.0,-1.0,0
580,-39.0,-222.0,1.0,0
581,-40.0,-203.0,-7.0,0
582,-35.0,-189.0,-9.0,0
583,-30.0,-172.0,-14.0,0
584,-27.0,-165.0,-16.0,0
585,-26.0,-155.0,-12.0,0
586,-20.0,-146.0,-12.0,0
587,-24.0,-146.0,-10.0,0
588,-29.0,-147.0,-9.0,0
589,-28.0,-149.0,-9.0,0
590,-34.0,-156.0,-10.0,0
591,-37.0,-160.0,-10.0,0
592,-37.0,-176.0,-11.0,0
593,-41.0,-187.0,-1.0,0
594,-41.0,-197.0,-10.0,0
595,-45.0,-211.0,-7.0,0
596,-46.0,-230.0,-3.0,0
597,-45.0,-246.0,-2.0,0
598,-47.0,-251.0,2.0,0
599,-46.0,-252.0,-5.0,0
600,-48.0,-257.0,-11.0,0
601,-47.0,-260.0,-14.0,0
602,-50.0,-261.0,-10.0,0
603,-55.0,-251.0,-8.0,0
604,-57.0,-249.0,-12.0,0
605,-53.0,-240.0,-8.0,0
606,-56.0,-229.0,0.0,0
607,-58.0,-221.0,13.0,0
608,-53.0,-219.0,-7.0,0
609,-51.0,-218.0,-2.0,0
610,-51.0,-209.0,-3.0,0
611,-49.0,-207.0,0.0,0
612,-55.0,-207.0,-1.0,0
613,-49.0,-209.0,-4.0,0
614,-55.0,-206.0,7.0,0
615,-48.0,-209.0,2.0,0
616,-49.0,-211.0,8.0,0
617,-48.0,-213.0,8.0,0
618,-44.0,-214.0,10.0,0
619,-35.0,-232.0,23.0,0
620,-34.0,-225.0,19.0,0
621,-30.0,-227.0,15.0,0
622,-24.0,-228.0,19.0,0
623,-26.0,-230.0,19.0,0
624,-26.0,-232.0,13.0,0
625,-29.0,-244.0,7.0,0
626,-28.0,-243.0,-2.0,0
627,-36.0,-249.0,-14.0,0
628,-47.0,-250.0,-27.0,0
629,-45.0,-260.0,-32.0,0
630,-42.0,-268.0,-28.0,0
631,-42.0,-284.0,-12.0,0
632,-38.0,-298.0,0.0,0
633,-43.0,-307.0,11.0,0
634,-47.0,-321.0,26.0,0
635,-53.0,-330.0,36.0,0
636,-55.0,-341.0,42.0,0
637,-57.0,-343.0,51.0,0
638,-61.0,-351.0,58.0,0
639,-61.0,-348.0,54.0,0
640,-51.0,-342.0,52.0,0
641,-56.0,-334.0,34.0,0
642,-36.0,-321.0,11.0,0
643,-11.0,-309.0,-18.0,0
644,8.0,-307.0,-56.0,0
645,19.0,-304.0,-91.0,0
646,15.0,-305.0,-107.0,0
647,-7.0,-309.0,-118.0,0
648,-45.0,-317.0,-127.0,0
649,-96.0,-306.0,-145.0,0
650,-129.0,-294.0,-171.0,0
651,-154.0,-291.0,-180.0,0
652,-163.0,-283.0,-192.0,0
653,-157.0,-267.0,-198.0,0
654,-147.0,-257.0,-179.0,0
655,-127.0,-258.0,-163.0,0
656,-120.0,-254.0,-148.0,0
657,-102.0,-252.0,-127.0,0
658,-79.0,-258.0,-134.0,0
659,-55.0,-267.0,-111.0,0
660,-49.0,-275.0,-102.0,0
661,-27.0,-293.0,-80.0,0
662,-34.0,-290.0,-89.0,0
663,11.0,-296.0,-71.0,0
664,20.0,-296.0,-75.0,0
665,33.0,-308.0,-41.0,0
666,57.0,-292.0,-35.0,0
667,62.0,-289.0,-14.0,0
668,44.0,-270.0,-36.0,0
669,45.0,-247.0,-18.0,0
670,35.0,-247.0,-45.0,0
671,26.0,-223.0,-33.0,0
672,7.0,-204.0,-49.0,0
673,-1.0,-192.0,-65.0,0
674,-6.0,-185.0,-72.0,0
675,1.0,-186.0,-81.0,0
676,6.0,-193.0,-74.0,0
677,12.0,-194.0,-71.0,0
678,21.0,-196.0,-65.0,0
679,27.0,-196.0,-57.0,0
680,34.0,-189.0,-44.0,0
681,34.0,-180.0,-47.0,0
682,37.0,-166.0,-52.0,0
683,41.0,-149.0,-57.0,0
684,36.0,-143.0,-51.0,0
685,26.0,-139.0,-64.0,0
686,9.0,-129.0,-62.0,0
687,1.0,-129.0,-58.0,0
688,-2.0,-133.0,-51.0,0
689,-2.0,-140.0,-44.0,0
690,-7.0,-151.0,-38.0,0
691,-22.0,-162.0,-30.0,0
692,-36.0,-176.0,-19.0,0
693,-42.0,-189.0,-14.0,0
694,-45.0,-196.0,-16.0,0
695,-40.0,-209.0,-14.0,0
696,-39.0,-212.0,-16.0,0
697,-35.0,-219.0,-19.0,0
698,-33.0,-225.0,-17.0,0
699,-35.0,-231.0,-17.0,0
700,-34.0,-238.0,-16.0,0
701,-32.0,-254.0,-19.0,0
702,-21.0,-264.0,-17.0,0
703,-11.0,-267.0,-13.0,0
704,-2.0,-272.0,-18.0,0
705,-1.0,-280.0,-18.0,0
706,13.0,-275.0,-8.0,0
707,21.0,-277.0,-2.0,0
708,26.0,-275.0,8.0,0
709,29.0,-273.0,9.0,0
710,35.0,-271.0,13.0,0
711,32.0,-268.0,20.0,0
712,28.0,-262.0,21.0,0
713,24.0,-261.0,30.0,0
714,17.0,-260.0,28.0,0
715,9.0,-256.0,38.0,0
716,6.0,-253.0,36.0,0
717,2.0,-250.0,28.0,0
718,-2.0,-251.0,25.0,0
719,-2.0,-255.0,20.0,0
720,-3.0,-260.0,16.0,0
721,0.0,-267.0,19.0,0
722,-2.0,-272.0,17.0,0
723,8.0,-282.0,22.0,0
724,-3.0,-289.0,20.0,0
725,-15.0,-295.0,30.0,0
726,-17.0,-300.0,25.0,0
727,-22.0,-297.0,17.0,0
728,-24.0,-300.0,21.0,0
729,-24.0,-304.0,28.0,0
730,-22.0,-307.0,38.0,0
731,-21.0,-316.0,50.0,0
732,-4.0,-314.0,51.0,0
733,22.0,-311.0,59.0,0
734,50.0,-299.0,54.0,0
735,67.0,-287.0,40.0,0
736,72.0,-276.0,25.0,0
737,69.0,-272.0,3.0,0
738,67.0,-284.0,-20.0,0
739,53.0,-300.0,-35.0,0
740,27.0,-314.0,-51.0,0
741,13.0,-329.0,-67.0,0
742,-3.0,-341.0,-102.0,0
743,-6.0,-342.0,-135.0,0
744,-3.0,-335.0,-156.0,0
745,23.0,-309.0,-180.0,0
746,32.0,-287.0,-184.0,0
747,29.0,-268.0,-166.0,0
748,11.0,-245.0,-150.0,0
749,-11.0,-234.0,-115.0,0
750,-22.0,-234.0,-93.0,0
751,-35.0,-225.0,-85.0,0
752,-49.0,-215.0,-89.0,0
753,-66.0,-215.0,-93.0,0
754,-101.0,-232.0,-94.0,0
755,-118.0,-245.0,-90.0,0
756,-136.0,-267.0,-79.0,0
757,-143.0,-298.0,-64.0,0
758,-147.0,-326.0,-46.0,0
759,-136.0,-341.0,-43.0,0
760,-120.0,-344.0,-44.0,0
761,-98.0,-338.0,-49.0,0
762,-71.0,-322.0,-58.0,0
763,-54.0,-304.0,-64.0,0
764,-37.0,-289.0,-71.0,0
765,-28.0,-280.0,-78.0,0
766,-14.0,-267.0,-82.0,0
767,-9.0,-251.0,-88.0,0
768,-4.0,-239.0,-92.0,0
769,-4.0,-223.0,-81.0,0
770,-14.0,-216.0,-96.0,0
771,-3.0,-216.0,-74.0,0
772,-3.0,-211.0,-58.0,0
773,4.0,-211.0,-50.0,0
774,-2.0,-204.0,-47.0,0
775,-4.0,-201.0,-38.0,0
776,-11.0,-197.0,-27.0,0
777,-3.0,-187.0,-31.0,0
778,2.0,-177.0,-34.0,0
779,-3.0,-170.0,-32.0,0
780,1.0,-169.0,-36.0,0
781,20.0,-149.0,-47.0,0
782,11.0,-152.0,-43.0,0
783,6.0,-143.0,-39.0,0
784,9.0,-143.0,-33.0,0
785,6.0,-139.0,-38.0,0
786,9.0,-141.0,-39.0,0
787,6.0,-140.0,-32.0,0
788,-1.0,-144.0,-38.0,0
789,-4.0,-147.0,-43.0,0
790,-12.0,-158.0,-40.0,0
791,-15.0,-162.0,-42.0,0
792,-22.0,-168.0,-38.0,0
793,-27.0,-174.0,-33.0,0
794,-33.0,-187.0,-28.0,0
795,-42.0,-195.0,-26.0,0
796,-48.0,-197.0,-22.0,0
797,-52.0,-202.0,-17.0,0
798,-55.0,-209.0,-16.0,0
799,-63.0,-216.0,-13.0,0
800,-68.0,-226.0,-6.0,0
801,-73.0,-228.0,-5.0,0
802,-74.0,-230.0,-6.0,0
803,-77.0,-230.0,-2.0,0
804,-82.0,-230.0,1.0,0
805,-81.0,-227.0,-8.0,0
806,-75.0,-228.0,-4.0,0
807,-73.0,-229.0,-11.0,0
808,-71.0,-232.0,-7.0,0
809,-70.0,-238.0,0.0,0
810,-64.0,-244.0,8.0,0
811,-57.0,-252.0,13.0,0
812,-48.0,-259.0,20.0,0
813,-37.0,-259.0,33.0,0
814,-26.0,-267.0,30.0,0
815,-18.0,-272.0,34.0,0
816,-10.0,-275.0,30.0,0
817,-7.0,-281.0,23.0,0
818,-25.0,-277.0,16.0,0
819,-34.0,-275.0,-9.0,0
820,-43.0,-268.0,-26.0,0
821,-48.0,-265.0,-31.0,0
822,-53.0,-262.0,-32.0,0
823,-52.0,-268.0,-15.0,0
824,-44.0,-273.0,-4.0,0
825,-38.0,-272.0,7.0,0
826,-31.0,-281.0,22.0,0
827,-34.0,-285.0,27.0,0
828,-44.0,-296.0,41.0,0
829,-58.0,-302.0,46.0,0
830,-82.0,-304.0,44.0,0
831,-95.0,-302.0,33.0,0
832,-114.0,-301.0,12.0,0
833,-113.0,-303.0,-5.0,0
834,-106.0,-311.0,-26.0,0
835,-99.0,-328.0,-37.0,0
836,-98.0,-339.0,-42.0,0
837,-77.0,-356.0,-47.0,0
838,-67.0,-372.0,-63.0,0
839,-67.0,-377.0,-86.0,0
840,-64.0,-379.0,-117.0,0
841,-56.0,-369.0,-127.0,0
842,-46.0,-348.0,-158.0,0
843,-51.0,-323.0,-183.0,0
844,-61.0,-286.0,-201.0,0
845,-62.0,-268.0,-205.0,0
846,-60.0,-255.0,-195.0,0
847,-34.0,-246.0,-175.0,0
848,-23.0,-231.0,-149.0,0
849,-18.0,-223.0,-121.0,0
850,-18.0,-218.0,-107.0,0
851,-20.0,-213.0,-98.0,0
852,-21.0,-214.0,-95.0,0
853,-30.0,-212.0,-85.0,0
854,-39.0,-213.0,-84.0,0
855,-44.0,-211.0,-79.0,0
856,-59.0,-221.0,-79.0,0
857,-51.0,-227.0,-55.0,0
858,-60.0,-242.0,-40.0,0
859,-66.0,-237.0,-33.0,0
860,-33.0,-249.0,-25.0,0
861,-41.0,-256.0,-26.0,0
862,-68.0,-250.0,-35.0,0
863,-50.0,-255.0,-38.0,0
864,-29.0,-259.0,-43.0,0
865,-23.0,-263.0,-49.0,0
866,-16.0,-264.0,-56.0,0
867,-1.0,-263.0,-61.0,0
868,6.0,-262.0,-61.0,0
869,8.0,-260.0,-67.0,0
870,10.0,-249.0,-78.0,0
871,15.0,-237.0,-78.0,0
872,13.0,-231.0,-75.0,0
873,5.0,-223.0,-71.0,0
874,7.0,-221.0,-70.0,0
875,6.0,-206.0,-59.0,0
876,2.0,-195.0,-56.0,0
877,1.0,-182.0,-55.0,0
878,-3.0,-165.0,-56.0,0
879,-3.0,-158.0,-54.0,0
880,-8.0,-145.0,-54.0,0
881,-13.0,-145.0,-53.0,0
882,-20.0,-141.0,-52.0,0
883,-22.0,-145.0,-43.0,0
884,-18.0,-153.0,-41.0,0
885,-20.0,-160.0,-35.0,0
886,-15.0,-171.0,-35.0,0
887,-12.0,-186.0,-35.0,0
888,-5.0,-197.0,-33.0,0
889,-3.0,-208.0,-34.0,0
890,-4.0,-221.0,-28.0,0
891,3.0,-232.0,-31.0,0
892,5.0,-244.0,-29.0,0
893,9.0,-252.0,-27.0,0
894,16.0,-257.0,-28.0,0
895,21.0,-266.0,-31.0,0
896,25.0,-267.0,-29.0,0
897,28.0,-277.0,-32.0,0
898,27.0,-267.0,-29.0,0
899,33.0,-252.0,-30.0,0
900,34.0,-248.0,-26.0,0
901,35.0,-241.0,-27.0,0
902,32.0,-232.0,-24.0,0
903,25.0,-223.0,-24.0,0
904,25.0,-220.0,-21.0,0
905,23.0,-218.0,-17.0,0
906,20.0,-218.0,-20.0,0
907,16.0,-218.0,-12.0,0
908,8.0,-219.0,-8.0,0
909,3.0,-223.0,-5.0,0
910,-1.0,-227.0,0.0,0
911,-5.0,-230.0,6.0,0
912,-12.0,-235.0,7.0,0
913,-14.0,-238.0,12.0,0
914,-20.0,-244.0,16.0,0
915,-16.0,-249.0,21.0,0
916,-16.0,-253.0,24.0,0
917,-10.0,-256.0,20.0,0
918,-4.0,-251.0,27.0,0
919,-5.0,-253.0,26.0,0
920,17.0,-246.0,21.0,0
921,26.0,-244.0,8.0,0
922,21.0,-241.0,6.0,0
923,31.0,-248.0,-4.0,0
924,39.0,-255.0,-8.0,0
925,47.0,-257.0,-4.0,0
926,45.0,-262.0,-3.0,0
927,40.0,-260.0,-8.0,0
928,34.0,-260.0,8.0,0
929,21.0,-269.0,1.0,0
930,25.0,-264.0,-7.0,0
931,14.0,-257.0,-14.0,0
932,21.0,-265.0,-1.0,0
933,5.0,-252.0,-20.0,0
934,46.0,-250.0,-39.0,0
935,61.0,-250.0,-88.0,0
936,69.0,-264.0,-80.0,0
937,53.0,-280.0,-117.0,0
938,55.0,-321.0,-108.0,0
939,24.0,-355.0,-107.0,0
940,-17.0,-378.0,-108.0,0
941,-47.0,-408.0,-81.0,0
942,-94.0,-406.0,-56.0,0
943,-98.0,-380.0,-86.0,0
944,-95.0,-348.0,-89.0,0
945,-108.0,-331.0,-106.0,0
946,-145.0,-306.0,-92.0,0
947,-149.0,-303.0,-107.0,0
948,-144.0,-267.0,-106.0,0
949,-159.0,-255.0,-113.0,0
950,-153.0,-228.0,-102.0,0
951,-119.0,-162.0,-109.0,0
952,-99.0,-159.0,-87.0,0
953,-84.0,-155.0,-97.0,0
954,-55.0,-168.0,-93.0,0
955,-32.0,-186.0,-93.0,0
956,-3.0,-189.0,-67.0,0
957,25.0,-207.0,-65.0,0
958,47.0,-209.0,-60.0,0
959,71.0,-238.0,-57.0,0
960,85.0,-234.0,-62.0,0
961,99.0,-263.0,-51.0,0
962,105.0,-289.0,-40.0,0
963,109.0,-309.0,-35.0,0
964,112.0,-325.0,-37.0,0
965,107.0,-338.0,-32.0,0
966,86.0,-337.0,-38.0,0
967,69.0,-338.0,-43.0,0
968,49.0,-330.0,-49.0,0
969,31.0,-309.0,-59.0,0
970,11.0,-300.0,-61.0,0
971,-13.0,-284.0,-63.0,0
972,-31.0,-267.0,-61.0,0
973,-47.0,-252.0,-57.0,0
974,-60.0,-242.0,-41.0,0
975,-57.0,-233.0,-55.0,0
976,-60.0,-221.0,-48.0,0
977,-59.0,-207.0,-44.0,0
978,-62.0,-197.0,-39.0,0
979,-53.0,-194.0,-33.0,0
980,-51.0,-186.0,-33.0,0
981,-49.0,-178.0,-27.0,0
982,-38.0,-178.0,-28.0,0
983,-34.0,-169.0,-30.0,0
984,-34.0,-169.0,-29.0,0
985,-33.0,-169.0,-33.0,0
986,-34.0,-167.0,-35.0,0
987,-29.0,-172.0,-31.0,0
988,-31.0,-172.0,-37.0,0
989,-31.0,-175.0,-32.0,0
990,-34.0,-177.0,-31.0,0
991,-30.0,-187.0,-33.0,0
992,-36.0,-193.0,-25.0,0
993,-31.0,-198.0,-24.0,0
994,-27.0,-210.0,-25.0,0
995,-33.0,-216.0,-23.0,0
996,-34.0,-225.0,-21.0,0
997,-30.0,-232.0,-23.0,0
998,-32.0,-237.0,-24.0,0
999,-29.0,-248.0,-25.0,0
1000,-27.0,-253.0,-26.0,0
1001,-30.0,-254.0,-26.0,0
1002,-29.0,-257.0,-32.0,0
1003,-32.0,-257.0,-29.0,0
1004,-29.0,-256.0,-26.0,0
1005,-33.0,-252.0,-28.0,0
1006,-35.0,-246.0,-28.0,0
1007,-39.0,-243.0,-26.0,0
1008,-41.0,-234.0,-29.0,0
1009,-43.0,-231.0,-31.0,0
1010,-48.0,-227.0,-29.0,0
1011,-47.0,-222.0,-25.0,0
1012,-50.0,-220.0,-30.0,0
1013,-51.0,-218.0,-29.0,0
1014,-46.0,-217.0,-22.0,0
1015,-43.0,-220.0,-22.0,0
1016,-50.0,-218.0,-33.0,0
1017,-36.0,-222.0,-18.0,0
1018,-34.0,-223.0,-14.0,0
1019,-28.0,-227.0,-8.0,0
1020,-23.0,-231.0,-10.0,0
1021,-21.0,-231.0,-11.0,0
1022,-21.0,-242.0,-7.0,0
1023,-19.0,-245.0,-12.0,0
1024,-19.0,-247.0,-16.0,0
1025,-20.0,-255.0,-26.0,0
1026,-23.0,-255.0,-26.0,0
1027,-28.0,-260.0,-30.0,0
1028,-30.0,-264.0,-28.0,0
1029,-37.0,-265.0,-32.0,0
1030,-38.0,-273.0,-22.0,0
1031,-39.0,-274.0,-17.0,0
1032,-45.0,-277.0,-8.0,0
1033,-45.0,-274.0,-6.0,0
1034,-51.0,-274.0,-2.0,0
1035,-55.0,-279.0,0.0,0
1036,-58.0,-276.0,2.0,0
1037,-56.0,-275.0,0.0,0
1038,-50.0,-275.0,1.0,0
1039,-51.0,-272.0,-6.0,0
1040,-47.0,-270.0,-7.0,0
1041,-38.0,-266.0,-14.0,0
1042,-25.0,-272.0,-26.0,0
1043,-22.0,-268.0,-45.0,0
1044,-12.0,-271.0,-58.0,0
1045,-12.0,-279.0,-68.0,0
1046,-23.0,-290.0,-70.0,0
1047,-30.0,-297.0,-84.0,0
1048,-33.0,-304.0,-96.0,0
1049,-49.0,-309.0,-103.0,0
1050,-65.0,-303.0,-105.0,0
1051,-72.0,-299.0,-105.0,0
1052,-60.0,-285.0,-109.0,0
1053,-85.0,-269.0,-105.0,0
1054,-85.0,-254.0,-103.0,0
1055,-83.0,-222.0,-110.0,0
1056,-72.0,-201.0,-118.0,0
1057,-65.0,-183.0,-122.0,0
1058,-58.0,-168.0,-122.0,0
1059,-58.0,-156.0,-122.0,0
1060,-49.0,-152.0,-106.0,0
1061,-47.0,-155.0,-91.0,0
1062,-51.0,-159.0,-80.0,0
1063,-54.0,-170.0,-72.0,0
1064,-49.0,-183.0,-74.0,0
1065,-43.0,-205.0,-75.0,0
1066,-34.0,-229.0,-75.0,0
1067,-22.0,-253.0,-69.0,0
1068,-13.0,-280.0,-62.0,0
1069,-14.0,-299.0,-60.0,0
1070,-21.0,-320.0,-49.0,0
1071,-35.0,-332.0,-40.0,0
1072,-41.0,-350.0,-28.0,0
1073,-43.0,-347.0,-21.0,0
1074,-35.0,-347.0,-16.0,0
1075,-37.0,-330.0,-16.0,0
1076,-19.0,-316.0,-20.0,0
1077,-16.0,-295.0,-22.0,0
1078,-9.0,-281.0,-25.0,0
1079,-13.0,-262.0,-18.0,0
1080,-21.0,-240.0,-32.0,0
1081,-18.0,-217.0,-43.0,0
1082,-15.0,-213.0,-41.0,0
1083,-14.0,-212.0,-46.0,0
1084,-13.0,-213.0,-45.0,0
1085,-4.0,-216.0,-51.0,0
1086,3.0,-220.0,-50.0,0
1087,9.0,-223.0,-49.0,0
1088,14.0,-223.0,-54.0,0
1089,13.0,-219.0,-50.0,0
1090,13.0,-207.0,-51.0,0
1091,13.0,-209.0,-57.0,0
1092,14.0,-212.0,-53.0,0
1093,16.0,-211.0,-57.0,0
1094,20.0,-200.0,-59.0,0
1095,19.0,-197.0,-59.0,0
1096,21.0,-201.0,-61.0,0
1097,26.0,-199.0,-58.0,0
1098,24.0,-197.0,-60.0,0
1099,27.0,-203.0,-56.0,0
1100,26.0,-212.0,-46.0,0
1101,22.0,-218.0,-49.0,0
1102,16.0,-225.0,-42.0,0
1103,7.0,-233.0,-42.0,0
1104,-2.0,-246.0,-41.0,0
1105,-2.0,-259.0,-46.0,0
1106,-10.0,-262.0,-46.0,0
1107,-12.0,-266.0,-51.0,0
1108,-12.0,-274.0,-52.0,0
1109,-8.0,-276.0,-52.0,0
1110,-2.0,-277.0,-52.0,0
1111,-6.0,-277.0,-52.0,0
1112,1.0,-277.0,-51.0,0
1113,9.0,-271.0,-51.0,0
1114,15.0,-272.0,-48.0,0
1115,14.0,-266.0,-40.0,0
1116,21.0,-264.0,-43.0,0
1117,23.0,-260.0,-36.0,0
1118,24.0,-259.0,-35.0,0
1119,19.0,-258.0,-36.0,0
1120,27.0,-252.0,-32.0,0
1121,29.0,-246.0,-32.0,0
1122,30.0,-246.0,-28.0,0
1123,37.0,-241.0,-26.0,0
1124,32.0,-237.0,-23.0,0
1125,36.0,-235.0,-19.0,0
1126,34.0,-234.0,-13.0,0
1127,30.0,-231.0,-9.0,0
1128,30.0,-228.0,-12.0,0
1129,28.0,-227.0,-10.0,0
1130,23.0,-228.0,-12.0,0
1131,22.0,-228.0,-18.0,0
1132,18.0,-227.0,-14.0,0
1133,15.0,-227.0,-17.0,0
1134,15.0,-225.0,-11.0,0
1135,14.0,-221.0,-12.0,0
1136,11.0,-227.0,-9.0,0
1137,16.0,-226.0,-10.0,0
1138,19.0,-233.0,-11.0,0
1139,13.0,-231.0,-4.0,0
1140,13.0,-233.0,-3.0,0
1141,3.0,-233.0,6.0,0
1142,-4.0,-234.0,12.0,0
1143,-16.0,-235.0,20.0,0
1144,-29.0,-234.0,15.0,0
1145,-28.0,-236.0,13.0,0
1146,-29.0,-233.0,2.0,0
1147,-32.0,-229.0,-18.0,0
1148,-33.0,-230.0,-37.0,0
1149,-46.0,-227.0,-36.0,0
1150,-36.0,-236.0,-33.0,0
1151,-27.0,-243.0,-23.0,0
1152,-23.0,-254.0,-10.0,0
1153,-21.0,-253.0,6.0,0
1154,-24.0,-258.0,16.0,0
1155,-25.0,-263.0,23.0,0
1156,-31.0,-268.0,30.0,0
1157,-34.0,-272.0,32.0,0
1158,-43.0,-276.0,40.0,0
1159,-50.0,-275.0,31.0,0
1160,-64.0,-269.0,23.0,0
1161,-67.0,-261.0,6.0,0
1162,-63.0,-254.0,-18.0,0
1163,-64.0,-245.0,-31.0,0
1164,-62.0,-242.0,-45.0,0
1165,-57.0,-232.0,-46.0,0
1166,-43.0,-233.0,-46.0,0
1167,-22.0,-230.0,-41.0,0
1168,-5.0,-231.0,-38.0,0
1169,12.0,-234.0,-36.0,0
1170,23.0,-237.0,-31.0,0
1171,33.0,-249.0,-21.0,0
1172,43.0,-256.0,-25.0,0
1173,39.0,-264.0,-17.0,0
1174,42.0,-272.0,-14.0,0
1175,35.0,-280.0,-11.0,0
1176,31.0,-285.0,-11.0,0
1177,19.0,-287.0,-11.0,0
1178,15.0,-285.0,-11.0,0
1179,0.0,-278.0,-15.0,0
1180,-9.0,-270.0,-21.0,0
1181,-25.0,-259.0,-24.0,0
1182,-37.0,-250.0,-27.0,0
1183,-49.0,-239.0,-31.0,0
1184,-57.0,-229.0,-27.0,0
1185,-63.0,-221.0,-35.0,0
1186,-65.0,-215.0,-38.0,0
1187,-67.0,-211.0,-39.0,0
1188,-66.0,-210.0,-44.0,0
1189,-63.0,-213.0,-36.0,0
1190,-62.0,-222.0,-36.0,0
1191,-53.0,-221.0,-35.0,0
1192,-53.0,-225.0,-37.0,0
1193,-49.0,-239.0,-32.0,0
1194,-46.0,-240.0,-31.0,0
1195,-38.0,-243.0,-26.0,0
1196,-36.0,-245.0,-31.0,0
1197,-35.0,-237.0,-30.0,0
1198,-32.0,-239.0,-33.0,0
1199,-33.0,-239.0,-36.0,0
1200,-35.0,-241.0,-36.0,0
1201,-39.0,-238.0,-36.0,0
1202,-39.0,-235.0,-38.0,0
1203,-41.0,-236.0,-39.0,0
1204,-42.0,-231.0,-39.0,0
1205,-44.0,-229.0,-41.0,0
1206,-42.0,-230.0,-41.0,0
1207,-43.0,-229.0,-41.0,0
1208,-46.0,-231.0,-42.0,0
1209,-43.0,-233.0,-36.0,0
1210,-46.0,-218.0,-41.0,0
1211,-43.0,-226.0,-34.0,0
1212,-48.0,-223.0,-25.0,0
1213,-50.0,-220.0,-21.0,0
1214,-53.0,-218.0,-17.0,0
1215,-53.0,-221.0,-6.0,0
1216,-53.0,-223.0,-5.0,0
1217,-49.0,-229.0,4.0,0
1218,-49.0,-239.0,3.0,0
1219,-46.0,-246.0,-3.0,0
1220,-46.0,-250.0,-2.0,0
1221,-45.0,-254.0,-13.0,0
1222,-39.0,-259.0,-27.0,0
1223,-35.0,-263.0,-33.0,0
1224,-40.0,-264.0,-31.0,0
1225,-38.0,-277.0,-22.0,0
1226,-35.0,-288.0,-12.0,0
1227,-33.0,-303.0,-10.0,0
1228,-37.0,-318.0,-19.0,0
1229,-37.0,-339.0,-30.0,0
1230,-39.0,-354.0,-36.0,0
1231,-34.0,-369.0,-51.0,0
1232,-21.0,-382.0,-59.0,0
1233,-12.0,-386.0,-65.0,0
1234,-3.0,-384.0,-66.0,0
1235,9.0,-375.0,-57.0,0
1236,21.0,-354.0,-39.0,0
1237,30.0,-325.0,-20.0,0
1238,33.0,-302.0,-8.0,0
1239,26.0,-288.0,3.0,0
1240,13.0,-277.0,16.0,0
1241,4.0,-270.0,21.0,0
1242,-4.0,-262.0,18.0,0
1243,-23.0,-256.0,10.0,0
1244,-40.0,-247.0,-7.0,0
1245,-56.0,-231.0,-31.0,0
1246,-71.0,-211.0,-47.0,0
1247,-83.0,-193.0,-63.0,0
1248,-91.0,-180.0,-64.0,0
1249,-94.0,-173.0,-69.0,0
1250,-97.0,-174.0,-65.0,0
1251,-94.0,-180.0,-70.0,0
1252,-92.0,-189.0,-61.0,0
1253,-90.0,-196.0,-60.0,0
1254,-88.0,-205.0,-58.0,0
1255,-85.0,-215.0,-54.0,0
1256,-82.0,-223.0,-51.0,0
1257,-72.0,-229.0,-49.0,0
1258,-70.0,-233.0,-43.0,0
1259,-67.0,-237.0,-37.0,0
1260,-59.0,-241.0,-39.0,0
1261,-63.0,-237.0,-38.0,0
1262,-55.0,-237.0,-32.0,0
1263,-54.0,-237.0,-29.0,0
1264,-51.0,-236.0,-26.0,0
1265,-50.0,-234.0,-23.0,0
1266,-46.0,-229.0,-27.0,0
1267,-43.0,-226.0,-22.0,0
1268,-39.0,-225.0,-24.0,0
1269,-36.0,-219.0,-22.0,0
1270,-34.0,-218.0,-28.0,0
1271,-34.0,-218.0,-25.0,0
1272,-28.0,-216.0,-27.0,0
1273,-29.0,-216.0,-27.0,0
1274,-32.0,-223.0,-25.0,0
1275,-36.0,-224.0,-27.0,0
1276,-38.0,-224.0,-25.0,0
1277,-46.0,-222.0,-32.0,0
1278,-50.0,-218.0,-33.0,0
1279,-55.0,-221.0,-36.0,0
1280,-56.0,-218.0,-38.0,0
1281,-54.0,-220.0,-43.0,0
1282,-54.0,-223.0,-45.0,0
1283,-49.0,-228.0,-49.0,0
1284,-50.0,-231.0,-39.0,0
1285,-51.0,-229.0,-41.0,0
1286,-53.0,-236.0,-33.0,0
1287,-49.0,-230.0,-37.0,0
1288,-48.0,-226.0,-42.0,0
1289,-42.0,-229.0,-38.0,0
1290,-41.0,-221.0,-31.0,0
1291,-41.0,-227.0,-30.0,0
1292,-36.0,-231.0,-27.0,0
1293,-36.0,-229.0,-33.0,0
1294,-31.0,-229.0,-35.0,0
1295,-27.0,-228.0,-40.0,0
1296,-22.0,-225.0,-37.0,0
1297,-27.0,-225.0,-33.0,0
1298,-16.0,-234.0,-34.0,0
1299,-15.0,-224.0,-34.0,0
1300,-19.0,-224.0,-37.0,0
1301,-24.0,-216.0,-35.0,0
1302,-18.0,-227.0,-29.0,0
1303,-24.0,-225.0,-36.0,0
1304,-34.0,-230.0,-36.0,0
1305,-32.0,-241.0,-45.0,0
1306,-39.0,-254.0,-54.0,0
1307,-16.0,-324.0,-43.0,0
1308,-33.0,-279.0,-37.0,0
1309,-46.0,-254.0,-52.0,0
1310,-49.0,-241.0,-53.0,0
1311,-59.0,-228.0,-56.0,0
1312,-53.0,-226.0,-59.0,0
1313,-57.0,-217.0,-58.0,0
1314,-49.0,-215.0,-59.0,0
1315,-50.0,-212.0,-61.0,0
1316,-48.0,-218.0,-59.0,0
1317,-45.0,-228.0,-62.0,0
1318,-52.0,-230.0,-58.0,0
1319,-50.0,-230.0,-70.0,0
1320,-49.0,-236.0,-66.0,0
1321,-51.0,-239.0,-78.0,0
1322,-48.0,-241.0,-77.0,0
1323,-49.0,-238.0,-87.0,0
1324,-50.0,-235.0,-94.0,0
1325,-51.0,-228.0,-93.0,0
1326,-52.0,-231.0,-93.0,0
1327,-44.0,-224.0,-92.0,0
1328,-39.0,-222.0,-92.0,0
1329,-38.0,-224.0,-94.0,0
1330,-36.0,-229.0,-87.0,0
1331,-46.0,-229.0,-79.0,0
1332,-41.0,-235.0,-78.0,0
1333,-40.0,-243.0,-77.0,0
1334,-32.0,-246.0,-77.0,0
1335,-35.0,-246.0,-76.0,0
1336,-40.0,-252.0,-86.0,0
1337,-40.0,-251.0,-75.0,0
1338,-44.0,-255.0,-80.0,0
1339,-39.0,-239.0,-78.0,0
1340,-40.0,-250.0,-67.0,0
1341,-46.0,-238.0,-71.0,0
1342,-49.0,-236.0,-78.0,0
1343,-47.0,-230.0,-71.0,0
1344,-40.0,-227.0,-76.0,0
1345,-47.0,-227.0,-84.0,0
1346,-44.0,-225.0,-87.0,0
1347,-52.0,-224.0,-91.0,0
1348,-63.0,-220.0,-94.0,0
1349,-64.0,-223.0,-96.0,0
1350,-68.0,-225.0,-96.0,0
1351,-79.0,-232.0,-91.0,0
1352,-83.0,-226.0,-93.0,0
1353,-82.0,-234.0,-95.0,0
1354,-82.0,-237.0,-93.0,0
1355,-81.0,-240.0,-95.0,0
1356,-76.0,-242.0,-85.0,0
1357,-80.0,-248.0,-86.0,0
1358,-76.0,-240.0,-77.0,0
1359,-66.0,-245.0,-74.0,0
1360,-67.0,-240.0,-76.0,0
1361,-61.0,-237.0,-67.0,0
1362,-51.0,-231.0,-68.0,0
1363,-55.0,-224.0,-68.0,0
1364,-53.0,-216.0,-65.0,0
1365,-55.0,-211.0,-61.0,0
1366,-63.0,-207.0,-67.0,0
1367,-65.0,-204.0,-70.0,0
1368,-68.0,-207.0,-71.0,0
1369,-69.0,-204.0,-68.0,0
1370,-77.0,-196.0,-72.0,0
1371,-78.0,-195.0,-67.0,0
1372,-77.0,-187.0,-66.0,0
1373,-72.0,-178.0,-65.0,0
1374,-68.0,-167.0,-60.0,0
1375,-65.0,-161.0,-57.0,0
1376,-69.0,-156.0,-54.0,0
1377,-69.0,-147.0,-52.0,0
1378,-67.0,-140.0,-55.0,0
1379,-61.0,-139.0,-45.0,0
1380,-59.0,-136.0,-35.0,0
1381,-59.0,-137.0,-30.0,0
1382,-59.0,-135.0,-28.0,0
1383,-51.0,-131.0,-25.0,0
1384,-43.0,-125.0,-26.0,0
1385,-43.0,-120.0,-29.0,0
1386,-41.0,-121.0,-32.0,0
1387,-37.0,-113.0,-38.0,0
1388,-37.0,-110.0,-32.0,0
1389,-37.0,-100.0,-31.0,0
1390,-28.0,-85.0,-31.0,0
1391,-32.0,-66.0,-24.0,0
1392,-22.0,-38.0,-33.0,0
1393,-10.0,-16.0,-41.0,0
1394,5.0,4.0,-43.0,0
1395,5.0,15.0,-46.0,0
1396,11.0,20.0,-53.0,0
1397,28.0,21.0,-60.0,0
1398,39.0,19.0,-63.0,0
1399,41.0,7.0,-70.0,0
1400,44.0,2.0,-72.0,0
1401,52.0,-11.0,-71.0,0
1402,55.0,-24.0,-67.0,0
1403,59.0,-37.0,-73.0,0
1404,66.0,-55.0,-61.0,0
1405,60.0,-74.0,-64.0,2
1406,64.0,-85.0,-69.0,2
1407,65.0,-100.0,-72.0,2
1408,68.0,-112.0,-66.0,2
1409,79.0,-119.0,-73.0,2
1410,86.0,-130.0,-75.0,2
1411,89.0,-134.0,-78.0,2
1412,87.0,-138.0,-85.0,2
1413,94.0,-135.0,-91.0,2
1414,100.0,-132.0,-94.0,2
1415,102.0,-122.0,-103.0,2
1416,102.0,-116.0,-109.0,2
1417,99.0,-99.0,-116.0,2
1418,101.0,-93.0,-125.0,2
1419,104.0,-91.0,-125.0,2
1420,114.0,-93.0,-123.0,2
1421,123.0,-109.0,-120.0,2
1422,139.0,-126.0,-117.0,2
1423,158.0,-155.0,-103.0,2
1424,172.0,-189.0,-84.0,2
1425,210.0,-229.0,-58.0,2
1426,244.0,-280.0,-26.0,2
1427,263.0,-332.0,12.0,2
1428,302.0,-380.0,42.0,2
1429,318.0,-427.0,71.0,2
1430,327.0,-458.0,99.0,2
1431,323.0,-470.0,87.0,2
1432,340.0,-472.0,81.0,2
1433,318.0,-446.0,83.0,2
1434,299.0,-406.0,78.0,2
1435,269.0,-351.0,58.0,2
1436,239.0,-298.0,46.0,2
1437,183.0,-246.0,28.0,2
1438,122.0,-208.0,18.0,2
1439,70.0,-195.0,10.0,2
1440,44.0,-182.0,8.0,2
1441,46.0,-194.0,45.0,2
1442,80.0,-200.0,89.0,2
1443,100.0,-207.0,125.0,2
1444,135.0,-227.0,193.0,2
1445,169.0,-255.0,274.0,2
1446,234.0,-293.0,353.0,2
1447,338.0,-387.0,482.0,2
1448,404.0,-450.0,525.0,2
1449,511.0,-567.0,614.0,2
1450,603.0,-671.0,702.0,2
1451,613.0,-773.0,742.0,2
1452,646.0,-810.0,749.0,2
1453,724.0,-855.0,632.0,2
1454,811.0,-930.0,440.0,2
1455,707.0,-920.0,248.0,2
1456,488.0,-813.0,208.0,2
1457,302.0,-708.0,216.0,2
1458,72.0,-527.0,230.0,2
1459,-47.0,-323.0,288.0,2
1460,-95.0,-156.0,366.0,2
1461,-121.0,-12.0,341.0,2
1462,-127.0,43.0,318.0,2
1463,-25.0,48.0,239.0,2
1464,15.0,74.0,148.0,2
1465,57.0,31.0,126.0,2
1466,49.0,2.0,122.0,2
1467,6.0,-36.0,85.0,2
1468,-18.0,-98.0,80.0,2
1469,39.0,-114.0,81.0,2
1470,43.0,-149.0,127.0,2
1471,47.0,-184.0,148.0,2
1472,33.0,-194.0,167.0,2
1473,18.0,-199.0,196.0,2
1474,10.0,-205.0,213.0,2
1475,8.0,-181.0,215.0,2
1476,12.0,-146.0,213.0,2
1477,29.0,-100.0,221.0,2
1478,50.0,-69.0,243.0,2
1479,55.0,-52.0,245.0,2
1480,46.0,-31.0,223.0,2
1481,28.0,-20.0,212.0,1
1482,27.0,-11.0,215.0,1
1483,19.0,-11.0,216.0,1
1484,-3.0,-4.0,224.0,1
1485,-5.0,15.0,244.0,1
1486,3.0,40.0,264.0,1
1487,-2.0,78.0,275.0,1
1488,-10.0,113.0,282.0,1
1489,-1.0,142.0,285.0,1
1490,-2.0,172.0,292.0,1
1491,-19.0,213.0,302.0,1
1492,-49.0,252.0,308.0,1
1493,-87.0,288.0,314.0,1
1494,-36.0,309.0,290.0,1
1495,-32.0,320.0,274.0,1
1496,-79.0,324.0,261.0,1
1497,-57.0,302.0,241.0,1
1498,-48.0,268.0,240.0,1
1499,-49.0,216.0,228.0,1
1500,-48.0,185.0,199.0,1
1501,-42.0,145.0,183.0,1
1502,-57.0,121.0,174.0,1
1503,-80.0,100.0,176.0,1
1504,-91.0,87.0,168.0,1
1505,-112.0,81.0,161.0,1
1506,-126.0,66.0,161.0,1
1507,-126.0,59.0,156.0,1
1508,-139.0,60.0,159.0,1
1509,-158.0,60.0,162.0,1
1510,-173.0,65.0,159.0,1
1511,-160.0,60.0,154.0,1
1512,-137.0,63.0,143.0,1
1513,-114.0,75.0,149.0,1
1514,-94.0,73.0,147.0,1
1515,-62.0,78.0,144.0,1
1516,-35.0,87.0,149.0,1
1517,-17.0,94.0,159.0,1
1518,-4.0,107.0,160.0,1
1519,1.0,111.0,165.0,1
1520,-4.0,116.0,183.0,1
1521,-12.0,124.0,191.0,1
1522,-13.0,126.0,202.0,1
1523,-20.0,125.0,212.0,1
1524,-17.0,117.0,206.0,1
1525,-32.0,110.0,212.0,1
1526,-35.0,94.0,216.0,1
1527,-43.0,82.0,215.0,1
1528,-33.0,70.0,216.0,1
1529,-35.0,56.0,219.0,1
1530,-27.0,36.0,223.0,1
1531,-24.0,16.0,232.0,1
1532,-19.0,4.0,233.0,1
1533,-26.0,-4.0,247.0,1
1534,-41.0,-2.0,256.0,1
1535,-67.0,0.0,263.0,1
1536,-88.0,11.0,270.0,1
1537,-94.0,26.0,278.0,1
1538,-109.0,42.0,281.0,1
1539,-123.0,61.0,287.0,1
1540,-129.0,78.0,291.0,1
1541,-129.0,95.0,302.0,1
1542,-130.0,108.0,303.0,1
1543,-136.0,129.0,307.0,1
1544,-129.0,142.0,318.0,1
1545,-128.0,154.0,337.0,1
1546,-151.0,163.0,346.0,1
1547,-155.0,163.0,339.0,1
1548,-139.0,162.0,332.0,1
1549,-105.0,154.0,316.0,1
1550,-60.0,148.0,298.0,1
1551,-31.0,133.0,278.0,0
1552,-35.0,124.0,269.0,0
1553,-46.0,106.0,277.0,0
1554,-64.0,82.0,280.0,0
1555,-84.0,61.0,277.0,0
1556,-93.0,34.0,279.0,0
1557,-111.0,2.0,282.0,0
1558,-120.0,-23.0,279.0,0
1559,-125.0,-45.0,271.0,0
1560,-132.0,-51.0,269.0,0
1561,-132.0,-49.0,264.0,0
1562,-131.0,-45.0,257.0,0
1563,-139.0,-39.0,250.0,0
1564,-151.0,-34.0,242.0,0
1565,-145.0,-25.0,238.0,0
1566,-139.0,-16.0,232.0,0
1567,-130.0,-3.0,228.0,0
1568,-115.0,0.0,223.0,0
1569,-93.0,1.0,218.0,0
1570,-77.0,-2.0,218.0,0
1571,-69.0,-6.0,218.0,0
1572,-65.0,-19.0,220.0,0
1573,-57.0,-38.0,226.0,0
1574,-56.0,-50.0,226.0,0
1575,-54.0,-52.0,229.0,0
1576,-54.0,-53.0,222.0,0
1577,-58.0,-52.0,222.0,0
1578,-58.0,-52.0,216.0,0
1579,-60.0,-43.0,219.0,0
1580,-63.0,-38.0,218.0,0
1581,-54.0,-32.0,218.0,0
1582,-58.0,-18.0,217.0,0
1583,-59.0,-13.0,227.0,0
1584,-69.0,-6.0,230.0,0
1585,-61.0,10.0,224.0,0
1586,-48.0,45.0,223.0,0
1587,-48.0,53.0,204.0,0
1588,-83.0,102.0,229.0,0
1589,-53.0,103.0,285.0,0
1590,-54.0,62.0,279.0,0
1591,-95.0,22.0,221.0,0
1592,-57.0,52.0,179.0,0
1593,-61.0,-32.0,270.0,0
1594,-80.0,-108.0,286.0,0
1595,-70.0,-151.0,337.0,0
1596,8.0,-157.0,327.0,0
1597,20.0,-131.0,324.0,0
1598,22.0,-105.0,303.0,0
1599,9.0,-64.0,282.0,0
1600,6.0,-19.0,258.0,0
1601,-24.0,11.0,274.0,0
1602,-13.0,14.0,280.0,0
1603,25.0,-22.0,290.0,0
1604,45.0,-46.0,297.0,0
1605,71.0,-75.0,301.0,0
1606,98.0,-89.0,292.0,0
1607,106.0,-106.0,284.0,0
1608,108.0,-112.0,269.0,0
1609,109.0,-114.0,265.0,0
1610,100.0,-115.0,253.0,0
1611,99.0,-116.0,247.0,0
1612,92.0,-110.0,235.0,0
1613,94.0,-104.0,233.0,0
1614,86.0,-94.0,221.0,0
1615,85.0,-82.0,214.0,0
1616,82.0,-69.0,214.0,0
1617,78.0,-63.0,210.0,0
1618,80.0,-55.0,215.0,0
1619,81.0,-44.0,222.0,0
1620,85.0,-38.0,221.0,0
1621,83.0,-31.0,234.0,0
1622,77.0,-21.0,241.0,0
1623,80.0,-17.0,241.0,0
1624,72.0,-4.0,243.0,0
1625,71.0,-4.0,248.0,0
1626,63.0,-5.0,252.0,0
1627,64.0,-12.0,253.0,0
1628,62.0,-15.0,253.0,0
1629,64.0,-14.0,253.0,0
1630,67.0,-23.0,251.0,0
1631,65.0,-16.0,246.0,0
1632,71.0,-16.0,247.0,0
1633,71.0,-17.0,245.0,0
1634,76.0,-10.0,245.0,0
1635,75.0,-10.0,247.0,0
1636,81.0,-11.0,245.0,0
1637,85.0,-12.0,245.0,0
1638,87.0,-13.0,250.0,0
1639,91.0,-14.0,250.0,0
1640,92.0,-18.0,253.0,0
1641,94.0,-21.0,257.0,0
1642,95.0,-20.0,254.0,0
1643,96.0,-21.0,258.0,0
1644,97.0,-18.0,260.0,0
1645,93.0,-18.0,255.0,0
1646,87.0,-16.0,256.0,0
1647,84.0,-13.0,255.0,0
1648,77.0,-12.0,256.0,0
1649,70.0,-7.0,257.0,0
1650,64.0,-7.0,260.0,0
1651,61.0,-7.0,260.0,0
1652,58.0,-6.0,255.0,0
1653,55.0,-5.0,256.0,0
1654,50.0,-4.0,258.0,0
1655,44.0,-6.0,253.0,0
1656,42.0,-9.0,254.0,0
1657,39.0,-10.0,259.0,0
1658,35.0,-10.0,257.0,0
1659,33.0,-10.0,255.0,0
1660,32.0,-5.0,256.0,0
1661,30.0,-10.0,256.0,0
1662,25.0,-8.0,258.0,0
1663,23.0,-4.0,255.0,0
1664,22.0,-9.0,257.0,0
1665,23.0,-4.0,259.0,0
1666,21.0,-6.0,260.0,0
1667,18.0,-3.0,260.0,0
1668,21.0,-5.0,256.0,0
1669,20.0,-5.0,257.0,0
1670,18.0,-5.0,263.0,0
1671,17.0,-5.0,260.0,0
1672,15.0,-4.0,263.0,0
1673,12.0,-5.0,260.0,0
1674,9.0,-6.0,262.0,0
1675,7.0,-6.0,260.0,0
1676,3.0,-4.0,264.0,0
1677,0.0,-6.0,265.0,0
1678,0.0,-4.0,263.0,0
1679,-4.0,-5.0,264.0,0
1680,-7.0,-5.0,263.0,0
1681,-8.0,-5.0,260.0,0
1682,-11.0,-4.0,264.0,0
1683,-15.0,-5.0,264.0,0
1684,-17.0,-4.0,261.0,0
1685,-17.0,-6.0,263.0,0
1686,-15.0,-4.0,263.0,0
1687,-16.0,-9.0,260.0,0
1688,-17.0,-5.0,263.0,0
1689,-16.0,-13.0,259.0,0
1690,-10.0,-12.0,258.0,0
1691,-11.0,-12.0,257.0,0
1692,-14.0,-10.0,259.0,0
1693,-11.0,-11.0,259.0,0
1694,-9.0,-14.0,258.0,0
1695,-7.0,-11.0,257.0,0
1696,-4.0,-11.0,257.0,0
1697,-6.0,-17.0,260.0,0
1698,-3.0,-13.0,261.0,0
1699,-2.0,-16.0,259.0,0
1700,-1.0,-18.0,257.0,0
1701,1.0,-18.0,258.0,0
1702,-1.0,-17.0,258.0,0
1703,1.0,-19.0,259.0,0
1704,1.0,-19.0,259.0,0
1705,6.0,-19.0,260.0,0
1706,3.0,-17.0,259.0,0
1707,5.0,-17.0,269.0,0
1708,8.0,-14.0,262.0,0
1709,9.0,-20.0,260.0,0
1710,8.0,-16.0,259.0,0
1711,10.0,-14.0,261.0,0
1712,11.0,-16.0,256.0,0
1713,10.0,-13.0,253.0,0
1714,15.0,-17.0,257.0,0
1715,12.0,-14.0,256.0,0
1716,16.0,-14.0,259.0,0
1717,15.0,-14.0,260.0,0
1718,18.0,-13.0,260.0,0
1719,15.0,-11.0,262.0,0
1720,16.0,-13.0,261.0,0
1721,18.0,-11.0,255.0,0
1722,22.0,-12.0,261.0,0
1723,19.0,-12.0,257.0,0
1724,22.0,-10.0,256.0,0
1725,24.0,-13.0,258.0,0
1726,21.0,-15.0,257.0,0
1727,26.0,-12.0,260.0,0
1728,29.0,-15.0,257.0,0
1729,27.0,-12.0,253.0,0
1730,30.0,-14.0,253.0,0
1731,29.0,-15.0,259.0,0
1732,29.0,-14.0,260.0,0
1733,31.0,-15.0,259.0,0
1734,32.0,-12.0,261.0,0
1735,34.0,-13.0,254.0,0
1736,34.0,-14.0,255.0,0
1737,36.0,-12.0,263.0,0
1738,33.0,-15.0,254.0,0
1739,37.0,-16.0,254.0,0
1740,32.0,-11.0,257.0,0
1741,36.0,-14.0,256.0,0
1742,34.0,-14.0,256.0,0
1743,35.0,-15.0,256.0,0
1744,31.0,-14.0,257.0,0
1745,33.0,-12.0,258.0,0
1746,34.0,-13.0,258.0,0
1747,36.0,-14.0,256.0,0
1748,37.0,-10.0,257.0,0
1749,34.0,-13.0,257.0,0
1750,34.0,-13.0,258.0,0
1751,36.0,-15.0,256.0,0
1752,35.0,-13.0,258.0,0
1753,34.0,-14.0,254.0,0
1754,36.0,-15.0,254.0,0
1755,32.0,-17.0,259.0,0
1756,33.0,-17.0,257.0,0
1757,33.0,-21.0,256.0,0
1758,31.0,-19.0,256.0,0
1759,29.0,-17.0,260.0,0
1760,28.0,-18.0,258.0,0
1761,29.0,-24.0,261.0,0
1762,24.0,-21.0,262.0,0
1763,28.0,-22.0,259.0,0
1764,26.0,-22.0,256.0,0
1765,25.0,-21.0,254.0,0
1766,24.0,-22.0,257.0,0
1767,20.0,-20.0,256.0,0
1768,19.0,-20.0,254.0,0
1769,18.0,-19.0,255.0,0
1770,19.0,-24.0,251.0,0
1771,20.0,-22.0,255.0,0
1772,19.0,-21.0,254.0,0
1773,19.0,-21.0,251.0,0
1774,18.0,-23.0,257.0,0
1775,18.0,-22.0,252.0,0
1776,19.0,-24.0,256.0,0
1777,16.0,-17.0,258.0,0
1778,16.0,-21.0,260.0,0
1779,13.0,-22.0,256.0,0
1780,15.0,-23.0,256.0,0
1781,12.0,-22.0,255.0,0
1782,13.0,-20.0,258.0,0
1783,18.0,-22.0,254.0,0
1784,11.0,-19.0,257.0,0
1785,12.0,-20.0,254.0,0
1786,11.0,-18.0,254.0,0
1787,13.0,-21.0,254.0,0
1788,10.0,-17.0,257.0,0
1789,12.0,-15.0,256.0,0
1790,13.0,-15.0,259.0,0
1791,13.0,-17.0,258.0,0
1792,14.0,-20.0,262.0,0
1793,13.0,-15.0,256.0,0
1794,15.0,-18.0,259.0,0
1795,12.0,-14.0,258.0,0
1796,13.0,-15.0,255.0,0
1797,17.0,-16.0,259.0,0
1798,15.0,-14.0,259.0,0
1799,16.0,-13.0,258.0,0
1800,15.0,-14.0,258.0,0
1801,14.0,-11.0,262.0,0
1802,14.0,-18.0,260.0,0
1803,15.0,-15.0,260.0,0
1804,16.0,-15.0,254.0,0
1805,16.0,-15.0,255.0,0
1806,16.0,-20.0,256.0,0
1807,15.0,-16.0,254.0,0
1808,17.0,-19.0,259.0,0
1809,13.0,-17.0,257.0,0
1810,12.0,-18.0,258.0,0
1811,14.0,-17.0,259.0,0
1812,16.0,-17.0,260.0,0
1813,14.0,-18.0,257.0,0
1814,15.0,-17.0,259.0,0
1815,19.0,-21.0,260.0,0
1816,16.0,-20.0,253.0,0
1817,17.0,-19.0,254.0,0
1818,16.0,-18.0,259.0,0
1819,17.0,-20.0,257.0,0
1820,18.0,-21.0,262.0,0
1821,17.0,-22.0,258.0,0
1822,17.0,-24.0,255.0,0
1823,18.0,-24.0,262.0,0
1824,20.0,-25.0,253.0,0
1825,18.0,-23.0,259.0,0
1826,22.0,-29.0,256.0,0
1827,21.0,-28.0,255.0,0
1828,23.0,-30.0,256.0,0
1829,23.0,-28.0,258.0,0
1830,23.0,-29.0,258.0,0
1831,24.0,-28.0,261.0,0
1832,22.0,-29.0,256.0,0
1833,23.0,-30.0,260.0,0
1834,24.0,-30.0,256.0,0
1835,28.0,-26.0,260.0,0
1836,25.0,-28.0,255.0,0
1837,27.0,-28.0,259.0,0
1838,24.0,-28.0,253.0,0
1839,21.0,-22.0,252.0,0
1840,25.0,-23.0,252.0,0
1841,25.0,-25.0,253.0,0
1842,25.0,-23.0,255.0,0
1843,24.0,-24.0,252.0,0
1844,25.0,-20.0,253.0,0
1845,29.0,-21.0,258.0,0
1846,25.0,-16.0,259.0,0
1847,25.0,-22.0,254.0,0
1848,24.0,-21.0,253.0,0
1849,26.0,-19.0,255.0,0
1850,25.0,-21.0,256.0,0
1851,23.0,-19.0,258.0,0
1852,23.0,-20.0,256.0,0
1853,21.0,-21.0,253.0,0
1854,19.0,-18.0,254.0,0
1855,18.0,-19.0,256.0,0
1856,21.0,-18.0,256.0,0
1857,16.0,-17.0,252.0,0
1858,21.0,-23.0,256.0,0
1859,18.0,-18.0,254.0,0
1860,19.0,-20.0,256.0,0
1861,22.0,-24.0,255.0,0
1862,16.0,-22.0,257.0,0
1863,17.0,-28.0,254.0,0
1864,16.0,-29.0,258.0,0
1865,15.0,-28.0,256.0,0
1866,18.0,-29.0,258.0,0
1867,16.0,-28.0,255.0,0
1868,17.0,-29.0,256.0,0
1869,18.0,-30.0,251.0,0
1870,17.0,-32.0,253.0,0
1871,19.0,-29.0,258.0,0
1872,21.0,-28.0,260.0,0
1873,21.0,-28.0,255.0,0
1874,19.0,-31.0,254.0,0
1875,14.0,-24.0,256.0,0
1876,15.0,-23.0,254.0,0
1877,16.0,-25.0,250.0,0
1878,20.0,-22.0,260.0,0
1879,16.0,-24.0,256.0,0
1880,9.0,-10.0,257.0,0
1881,12.0,-13.0,261.0,0
1882,14.0,-15.0,260.0,0
1883,9.0,-15.0,259.0,0
1884,10.0,-14.0,258.0,0
1885,17.0,-12.0,259.0,0
1886,12.0,-15.0,253.0,0
1887,6.0,-10.0,259.0,0
1888,6.0,-11.0,260.0,0
1889,11.0,-7.0,258.0,0
1890,9.0,-12.0,259.0,0
1891,11.0,-13.0,258.0,0
1892,10.0,-6.0,273.0,0
1893,14.0,-14.0,256.0,0
1894,9.0,-12.0,259.0,0
1895,10.0,-12.0,257.0,0
1896,13.0,-16.0,255.0,0
1897,15.0,-15.0,258.0,0
1898,7.0,-15.0,261.0,0
1899,13.0,-14.0,260.0,0
1900,14.0,-19.0,263.0,0
1901,17.0,-25.0,263.0,0
1902,18.0,-17.0,256.0,0
1903,20.0,-21.0,259.0,0
1904,19.0,-20.0,260.0,0
1905,21.0,-22.0,263.0,0
1906,19.0,-22.0,262.0,0
1907,23.0,-25.0,262.0,0
1908,24.0,-26.0,259.0,0
1909,29.0,-24.0,257.0,0
1910,24.0,-18.0,254.0,0
1911,20.0,-20.0,250.0,0
1912,30.0,-23.0,252.0,0
1913,28.0,-21.0,254.0,0
1914,30.0,-22.0,254.0,0
1915,34.0,-22.0,254.0,0
1916,36.0,-18.0,251.0,0
1917,35.0,-20.0,256.0,0
1918,34.0,-18.0,258.0,0
1919,33.0,-19.0,252.0,0
1920,35.0,-18.0,252.0,0
1921,32.0,-17.0,254.0,0
1922,34.0,-17.0,252.0,0
1923,34.0,-18.0,255.0,0
1924,35.0,-19.0,256.0,0
1925,32.0,-21.0,254.0,0
1926,32.0,-17.0,254.0,0
1927,29.0,-21.0,252.0,0
1928,27.0,-17.0,254.0,0
1929,25.0,-19.0,256.0,0
1930,25.0,-17.0,255.0,0
1931,24.0,-15.0,256.0,0
1932,22.0,-15.0,253.0,0
1933,19.0,-15.0,256.0,0
1934,19.0,-18.0,257.0,0
1935,20.0,-15.0,256.0,0
1936,20.0,-14.0,258.0,0
1937,19.0,-13.0,254.0,0
1938,21.0,-12.0,256.0,0
1939,22.0,-13.0,257.0,0
1940,22.0,-12.0,260.0,0
1941,20.0,-9.0,260.0,0
1942,21.0,-13.0,261.0,0
1943,25.0,-11.0,258.0,0
1944,26.0,-11.0,260.0,0
1945,25.0,-14.0,258.0,0
1946,28.0,-12.0,257.0,0
1947,30.0,-12.0,262.0,0
1948,27.0,-13.0,260.0,0
1949,26.0,-15.0,258.0,0
1950,32.0,-14.0,264.0,0
1951,31.0,-13.0,260.0,0
1952,30.0,-14.0,258.0,0
1953,30.0,-15.0,260.0,0
1954,31.0,-17.0,258.0,0
1955,32.0,-16.0,258.0,0
1956,25.0,-16.0,260.0,0
1957,31.0,-17.0,253.0,0
1958,27.0,-18.0,255.0,0
1959,28.0,-13.0,258.0,0
1960,27.0,-18.0,255.0,0
1961,25.0,-14.0,255.0,0
1962,26.0,-18.0,260.0,0
1963,26.0,-17.0,258.0,0
1964,24.0,-17.0,258.0,0
1965,21.0,-16.0,256.0,0
1966,21.0,-17.0,255.0,0
1967,19.0,-16.0,258.0,0
1968,18.0,-18.0,256.0,0
1969,20.0,-16.0,255.0,0
1970,15.0,-12.0,254.0,0
1971,17.0,-15.0,255.0,0
1972,14.0,-16.0,255.0,0
1973,17.0,-13.0,258.0,0
1974,14.0,-13.0,256.0,0
1975,14.0,-14.0,255.0,0
1976,12.0,-11.0,258.0,0
1977,9.0,-9.0,255.0,0
1978,14.0,-12.0,255.0,0
1979,13.0,-15.0,259.0,0
1980,13.0,-10.0,257.0,0
1981,12.0,-11.0,260.0,0
1982,12.0,-12.0,260.0,0
1983,11.0,-10.0,258.0,0
1984,12.0,-10.0,262.0,0
1985,12.0,-10.0,260.0,0
1986,16.0,-10.0,261.0,0
1987,12.0,-11.0,264.0,0
1988,12.0,-10.0,259.0,0
1989,14.0,-8.0,262.0,0
1990,13.0,-12.0,258.0,0
1991,13.0,-10.0,263.0,0
1992,12.0,-8.0,257.0,0
1993,14.0,-7.0,258.0,0
1994,13.0,-7.0,261.0,0
1995,15.0,-7.0,254.0,0
1996,19.0,-8.0,255.0,0
1997,17.0,-8.0,259.0,0
1998,17.0,-6.0,259.0,0
1999,18.0,-9.0,260.0,0
2000,18.0,-10.0,260.0,0
2001,24.0,-12.0,275.0,0
2002,19.0,-7.0,259.0,0
2003,16.0,-6.0,258.0,0
2004,20.0,-6.0,261.0,0
2005,21.0,-9.0,256.0,0
2006,24.0,-10.0,257.0,0
2007,21.0,-9.0,259.0,0
2008,22.0,-7.0,257.0,0
2009,23.0,-10.0,260.0,0
2010,20.0,-11.0,257.0,0
2011,24.0,-8.0,258.0,0
2012,21.0,-10.0,258.0,0
2013,24.0,-9.0,256.0,0
2014,25.0,-10.0,257.0,0
2015,25.0,-8.0,259.0,0
2016,23.0,-9.0,258.0,0
2017,23.0,-12.0,257.0,0
2018,25.0,-10.0,260.0,0
2019,26.0,-12.0,257.0,0
2020,27.0,-12.0,250.0,0
2021,24.0,-11.0,262.0,0
2022,25.0,-11.0,256.0,0
2023,28.0,-11.0,260.0,0
2024,26.0,-11.0,259.0,0
2025,27.0,-15.0,255.0,0
2026,26.0,-9.0,258.0,0
2027,27.0,-12.0,257.0,0
2028,23.0,-11.0,257.0,0
2029,26.0,-10.0,260.0,0
2030,24.0,-10.0,259.0,0
2031,25.0,-12.0,252.0,0
2032,27.0,-10.0,260.0,0
2033,29.0,-10.0,257.0,0
2034,28.0,-1.0,254.0,0
2035,25.0,-9.0,257.0,0
2036,24.0,-11.0,257.0,0
2037,25.0,-8.0,258.0,0
2038,24.0,-11.0,259.0,0
2039,26.0,-8.0,253.0,0
2040,28.0,-8.0,256.0,0
2041,26.0,-9.0,259.0,0
2042,24.0,-11.0,260.0,0
2043,23.0,-8.0,258.0,0
2044,26.0,-8.0,258.0,0
2045,20.0,-4.0,262.0,0
2046,25.0,-7.0,258.0,0
2047,25.0,-10.0,258.0,0
2048,24.0,-5.0,259.0,0
2049,22.0,-11.0,261.0,0
2050,22.0,-4.0,258.0,0
2051,19.0,-7.0,257.0,0
2052,21.0,-10.0,258.0,0
2053,20.0,-6.0,258.0,0
2054,20.0,-7.0,256.0,0
2055,19.0,-11.0,258.0,0
2056,23.0,-11.0,254.0,0
2057,16.0,-9.0,258.0,0
2058,18.0,-8.0,254.0,0
2059,18.0,-9.0,256.0,0
2060,16.0,-8.0,258.0,0
2061,18.0,-10.0,257.0,0
2062,18.0,-4.0,255.0,0
2063,21.0,-5.0,258.0,0
2064,19.0,-9.0,255.0,0
2065,20.0,-7.0,260.0,0
2066,20.0,-3.0,258.0,0
2067,18.0,-6.0,256.0,0
2068,18.0,-6.0,259.0,0
2069,19.0,-7.0,258.0,0
2070,19.0,-7.0,257.0,0
2071,19.0,-3.0,262.0,0
2072,20.0,-8.0,257.0,0
2073,21.0,-9.0,261.0,0
2074,20.0,-8.0,260.0,0
2075,16.0,-8.0,259.0,0
2076,20.0,-7.0,262.0,0
2077,21.0,-8.0,259.0,0
2078,21.0,-8.0,262.0,0
2079,19.0,-6.0,259.0,0
2080,21.0,-8.0,264.0,0
2081,21.0,-11.0,264.0,0
2082,21.0,-10.0,260.0,0
2083,21.0,-12.0,255.0,0
2084,23.0,-9.0,259.0,0
2085,21.0,-7.0,253.0,0
2086,19.0,-9.0,255.0,0
2087,23.0,-10.0,255.0,0
2088,22.0,-8.0,256.0,0
2089,24.0,-11.0,259.0,0
2090,20.0,-6.0,257.0,0
2091,23.0,-6.0,258.0,0
2092,21.0,-7.0,256.0,0
2093,21.0,-5.0,259.0,0
2094,24.0,-4.0,255.0,0
2095,25.0,-5.0,259.0,0
2096,25.0,-4.0,261.0,0
2097,23.0,-4.0,258.0,0
2098,28.0,-7.0,260.0,0
2099,24.0,-6.0,260.0,0
2100,24.0,-6.0,255.0,0
2101,24.0,-7.0,259.0,0
2102,21.0,-11.0,255.0,0
2103,24.0,-6.0,258.0,0
2104,21.0,-8.0,257.0,0
2105,21.0,-9.0,259.0,0
2106,28.0,-10.0,255.0,0
2107,24.0,-7.0,261.0,0
2108,22.0,-7.0,257.0,0
2109,21.0,-10.0,252.0,0
2110,32.0,-6.0,256.0,0
2111,21.0,-6.0,262.0,0
2112,21.0,-6.0,260.0,0
2113,20.0,-10.0,258.0,0
2114,23.0,-9.0,260.0,0
2115,19.0,-11.0,257.0,0
2116,21.0,-11.0,257.0,0
2117,21.0,-10.0,260.0,0
2118,18.0,-10.0,257.0,0
2119,21.0,-12.0,257.0,0
2120,21.0,-13.0,257.0,0
2121,21.0,-11.0,256.0,0
2122,20.0,-9.0,258.0,0
2123,22.0,-9.0,258.0,0
2124,18.0,-10.0,257.0,0
2125,15.0,-11.0,258.0,0
2126,22.0,-15.0,253.0,0
2127,19.0,-9.0,258.0,0
2128,17.0,-11.0,256.0,0
2129,19.0,-13.0,259.0,0
2130,22.0,-11.0,258.0,0
2131,21.0,-15.0,257.0,0
2132,21.0,-12.0,254.0,0
2133,21.0,-16.0,258.0,0
2134,16.0,-13.0,258.0,0
2135,20.0,-15.0,257.0,0
2136,18.0,-16.0,255.0,0
2137,18.0,-17.0,261.0,0
2138,19.0,-15.0,256.0,0
2139,20.0,-15.0,256.0,0
2140,18.0,-16.0,259.0,0
2141,22.0,-15.0,258.0,0
2142,20.0,-13.0,252.0,0
2143,26.0,-12.0,254.0,0
2144,20.0,-15.0,255.0,0
2145,20.0,-13.0,256.0,0
2146,19.0,-14.0,255.0,0
2147,18.0,-15.0,258.0,0
2148,19.0,-12.0,255.0,0
2149,18.0,-15.0,258.0,0
2150,18.0,-14.0,256.0,0
2151,18.0,-15.0,257.0,0
2152,15.0,-16.0,256.0,0
2153,19.0,-15.0,256.0,0
2154,19.0,-18.0,254.0,0
2155,18.0,-17.0,255.0,0
2156,21.0,-15.0,254.0,0
2157,17.0,-15.0,258.0,0
2158,19.0,-17.0,258.0,0
2159,18.0,-15.0,259.0,0
2160,20.0,-15.0,256.0,0
2161,20.0,-14.0,260.0,0
2162,19.0,-17.0,255.0,0
2163,19.0,-16.0,257.0,0
2164,21.0,-14.0,254.0,0
2165,16.0,-15.0,255.0,0
2166,27.0,-20.0,278.0,0
2167,19.0,-19.0,258.0,0
2168,20.0,-14.0,257.0,0
2169,19.0,-15.0,259.0,0
2170,18.0,-15.0,256.0,0
2171,17.0,-15.0,259.0,0
2172,21.0,-16.0,254.0,0
2173,17.0,-15.0,257.0,0
2174,17.0,-19.0,261.0,0
2175,22.0,-15.0,256.0,0
2176,22.0,-18.0,258.0,0
2177,18.0,-14.0,256.0,0
2178,20.0,-17.0,258.0,0
2179,18.0,-18.0,259.0,0
2180,21.0,-17.0,258.0,0
2181,19.0,-17.0,258.0,0
2182,19.0,-16.0,259.0,0
2183,19.0,-19.0,259.0,0
2184,19.0,-17.0,258.0,0
2185,19.0,-12.0,257.0,0
2186,18.0,-16.0,258.0,0
2187,19.0,-20.0,254.0,0
2188,19.0,-20.0,258.0,0
2189,21.0,-18.0,256.0,0
2190,21.0,-20.0,258.0,0
2191,21.0,-20.0,254.0,0
2192,21.0,-21.0,254.0,0
2193,21.0,-19.0,259.0,0
2194,21.0,-19.0,257.0,0
2195,23.0,-19.0,256.0,0
2196,24.0,-19.0,257.0,0
2197,24.0,-19.0,253.0,0
2198,23.0,-18.0,257.0,0
2199,20.0,-16.0,254.0,0
2200,23.0,-12.0,256.0,0
2201,21.0,-11.0,255.0,0
2202,21.0,-7.0,255.0,0
2203,22.0,-11.0,254.0,0
2204,23.0,-12.0,256.0,0
2205,18.0,-13.0,252.0,0
2206,22.0,-19.0,258.0,0
2207,21.0,-23.0,257.0,0
2208,22.0,-25.0,257.0,0
2209,18.0,-26.0,260.0,0
2210,21.0,-24.0,259.0,0
2211,20.0,-25.0,258.0,0
2212,19.0,-26.0,257.0,0
2213,19.0,-28.0,257.0,0
2214,18.0,-22.0,258.0,0
2215,18.0,-20.0,260.0,0
2216,19.0,-18.0,259.0,0
2217,16.0,-14.0,261.0,0
2218,21.0,-14.0,259.0,0
2219,28.0,-11.0,271.0,0
2220,17.0,-14.0,256.0,0
2221,17.0,-18.0,261.0,0
2222,18.0,-23.0,257.0,0
2223,19.0,-20.0,257.0,0
2224,21.0,-22.0,258.0,0
2225,21.0,-23.0,259.0,0
2226,19.0,-21.0,256.0,0
2227,21.0,-23.0,257.0,0
2228,21.0,-24.0,256.0,0
2229,22.0,-21.0,254.0,0
2230,21.0,-23.0,256.0,0
2231,22.0,-23.0,258.0,0
2232,20.0,-22.0,257.0,0
2233,24.0,-21.0,254.0,0
2234,19.0,-21.0,255.0,0
2235,19.0,-21.0,259.0,0
2236,20.0,-26.0,257.0,0
2237,21.0,-21.0,256.0,0
2238,22.0,-24.0,258.0,0
2239,21.0,-26.0,258.0,0
2240,21.0,-25.0,258.0,0
2241,23.0,-24.0,257.0,0
2242,23.0,-23.0,259.0,0
2243,23.0,-26.0,259.0,0
2244,24.0,-25.0,254.0,0
2245,22.0,-27.0,253.0,0
2246,21.0,-25.0,254.0,0
2247,22.0,-25.0,253.0,0
2248,24.0,-29.0,252.0,0
2249,23.0,-30.0,257.0,0
2250,21.0,-28.0,258.0,0
2251,22.0,-27.0,259.0,0
2252,20.0,-19.0,245.0,0
2253,21.0,-29.0,255.0,0
2254,20.0,-23.0,253.0,0
2255,17.0,-24.0,257.0,0
2256,22.0,-25.0,252.0,0
2257,17.0,-24.0,258.0,0
2258,22.0,-24.0,258.0,0
2259,17.0,-23.0,250.0,0
2260,16.0,-18.0,249.0,0
2261,19.0,-21.0,257.0,0
2262,18.0,-23.0,255.0,0
2263,17.0,-22.0,251.0,0
2264,17.0,-20.0,250.0,0
2265,14.0,-20.0,252.0,0
2266,16.0,-22.0,255.0,0
2267,17.0,-22.0,257.0,0
2268,15.0,-19.0,257.0,0
2269,18.0,-19.0,259.0,0
2270,19.0,-21.0,256.0,0
2271,17.0,-20.0,259.0,0
2272,19.0,-18.0,257.0,0
2273,16.0,-17.0,260.0,0
2274,14.0,-17.0,260.0,0
2275,16.0,-17.0,261.0,0
2276,16.0,-17.0,258.0,0
2277,17.0,-17.0,260.0,0
2278,19.0,-21.0,258.0,0
2279,19.0,-18.0,259.0,0
2280,17.0,-20.0,261.0,0
2281,14.0,-17.0,256.0,0
2282,17.0,-21.0,260.0,0
2283,20.0,-17.0,260.0,0
2284,18.0,-19.0,259.0,0
2285,15.0,-13.0,250.0,0
2286,20.0,-19.0,256.0,0
2287,18.0,-21.0,258.0,0
2288,16.0,-19.0,261.0,0
2289,19.0,-21.0,255.0,0
2290,17.0,-21.0,256.0,0
2291,18.0,-20.0,256.0,0
2292,20.0,-20.0,256.0,0
2293,19.0,-24.0,257.0,0
2294,21.0,-26.0,259.0,0
2295,21.0,-22.0,256.0,0
2296,20.0,-22.0,255.0,0
2297,22.0,-19.0,256.0,0
2298,19.0,-23.0,257.0,0
2299,18.0,-23.0,259.0,0
2300,22.0,-23.0,256.0,0
2301,19.0,-21.0,255.0,0
2302,22.0,-23.0,260.0,0
2303,22.0,-21.0,257.0,0
2304,22.0,-25.0,257.0,0
2305,22.0,-23.0,253.0,0
2306,18.0,-21.0,258.0,0
2307,24.0,-24.0,259.0,0
2308,21.0,-23.0,256.0,0
2309,21.0,-26.0,259.0,0
2310,24.0,-25.0,258.0,0
2311,25.0,-24.0,256.0,0
2312,23.0,-24.0,254.0,0
2313,19.0,-23.0,257.0,0
2314,22.0,-24.0,258.0,0
2315,22.0,-25.0,254.0,0
2316,22.0,-21.0,259.0,0
2317,22.0,-23.0,257.0,0
2318,23.0,-15.0,251.0,0
2319,21.0,-17.0,253.0,0
2320,22.0,-22.0,258.0,0
2321,17.0,-20.0,258.0,0
2322,21.0,-20.0,255.0,0
2323,25.0,-21.0,257.0,0
2324,20.0,-20.0,255.0,0
2325,21.0,-19.0,258.0,0
2326,22.0,-18.0,258.0,0
2327,21.0,-18.0,257.0,0
2328,17.0,-32.0,256.0,0
2329,19.0,-19.0,258.0,0
2330,20.0,-16.0,256.0,0
2331,20.0,-16.0,255.0,0
2332,15.0,-15.0,256.0,0
2333,18.0,-16.0,257.0,0
2334,21.0,-19.0,253.0,0
2335,20.0,-20.0,254.0,0
2336,22.0,-15.0,253.0,0
2337,21.0,-20.0,258.0,0
2338,20.0,-18.0,259.0,0
2339,21.0,-16.0,258.0,0
2340,14.0,-12.0,260.0,0
2341,35.0,-18.0,249.0,0
2342,18.0,-13.0,253.0,0
2343,26.0,-23.0,255.0,0
2344,19.0,-13.0,258.0,0
2345,18.0,-17.0,258.0,0
2346,20.0,-15.0,253.0,0
2347,19.0,-16.0,260.0,0
2348,18.0,-18.0,259.0,0
2349,17.0,-16.0,258.0,0
2350,17.0,-14.0,257.0,0
2351,20.0,-15.0,260.0,0
2352,19.0,-15.0,259.0,0
2353,18.0,-15.0,255.0,0
2354,19.0,-17.0,255.0,0
2355,18.0,-18.0,256.0,0
2356,19.0,-17.0,256.0,0
2357,18.0,-17.0,259.0,0
2358,18.0,-15.0,259.0,0
2359,18.0,-18.0,259.0,0
2360,18.0,-12.0,261.0,0
2361,14.0,-14.0,243.0,0
2362,19.0,-17.0,255.0,0
2363,20.0,-16.0,254.0,0
2364,19.0,-14.0,260.0,0
2365,18.0,-14.0,260.0,0
2366,19.0,-16.0,255.0,0
2367,18.0,-14.0,258.0,0
2368,17.0,-16.0,256.0,0
2369,21.0,-13.0,256.0,0
2370,19.0,-14.0,260.0,0
2371,20.0,-15.0,257.0,0
2372,21.0,-15.0,257.0,0
2373,17.0,-16.0,257.0,0
2374,20.0,-15.0,260.0,0
2375,19.0,-14.0,258.0,0
2376,21.0,-16.0,258.0,0
2377,20.0,-15.0,257.0,0
2378,21.0,-19.0,261.0,0
2379,21.0,-13.0,259.0,0
2380,25.0,-12.0,255.0,0
2381,22.0,-15.0,253.0,0
2382,23.0,-17.0,255.0,0
2383,22.0,-14.0,256.0,0
2384,22.0,-13.0,259.0,0
2385,19.0,-13.0,257.0,0
2386,23.0,-14.0,255.0,0
2387,24.0,-15.0,257.0,0
2388,22.0,-15.0,259.0,0
2389,22.0,-14.0,257.0,0
2390,22.0,-16.0,259.0,0
2391,21.0,-15.0,259.0,0
2392,21.0,-12.0,258.0,0
2393,22.0,-13.0,258.0,0
2394,22.0,-16.0,267.0,0
2395,24.0,-14.0,257.0,0
2396,23.0,-16.0,256.0,0
2397,22.0,-13.0,256.0,0
2398,21.0,-16.0,262.0,0
2399,21.0,-13.0,260.0,0
2400,22.0,-14.0,259.0,0
2401,20.0,-15.0,259.0,0
2402,21.0,-14.0,256.0,0
2403,21.0,-12.0,252.0,0
2404,21.0,-15.0,257.0,0
2405,20.0,-12.0,259.0,0
2406,22.0,-13.0,258.0,0
2407,24.0,-12.0,259.0,0
2408,24.0,-16.0,259.0,0
2409,20.0,-14.0,259.0,0
2410,21.0,-11.0,258.0,0
2411,20.0,-14.0,256.0,0
2412,21.0,-13.0,257.0,0
2413,21.0,-13.0,259.0,0
2414,17.0,-10.0,260.0,0
2415,22.0,-13.0,256.0,0
2416,20.0,-14.0,257.0,0
2417,19.0,-9.0,260.0,0
2418,20.0,-14.0,260.0,0
2419,18.0,-13.0,257.0,0
2420,22.0,-14.0,261.0,0
2421,20.0,-12.0,255.0,0
2422,21.0,-13.0,257.0,0
2423,18.0,-12.0,257.0,0
2424,19.0,-14.0,258.0,0
2425,19.0,-14.0,259.0,0
2426,20.0,-15.0,260.0,0
2427,21.0,-15.0,261.0,0
2428,20.0,-17.0,261.0,0
2429,23.0,-12.0,260.0,0
2430,20.0,-14.0,259.0,0
2431,21.0,-13.0,260.0,0
2432,19.0,-15.0,266.0,0
2433,18.0,-13.0,263.0,0
2434,21.0,-17.0,260.0,0
2435,21.0,-16.0,255.0,0
2436,20.0,-13.0,253.0,0
2437,24.0,-13.0,255.0,0
2438,18.0,-10.0,253.0,0
2439,20.0,-14.0,250.0,0
2440,21.0,-14.0,254.0,0
2441,23.0,-13.0,256.0,0
2442,20.0,-12.0,252.0,0
2443,20.0,-13.0,254.0,0
2444,21.0,-10.0,254.0,0
2445,21.0,-9.0,255.0,0
2446,23.0,-8.0,256.0,0
2447,24.0,-10.0,259.0,0
2448,19.0,-8.0,260.0,0
2449,23.0,-9.0,260.0,0
2450,22.0,-6.0,259.0,0
2451,23.0,-11.0,261.0,0
2452,20.0,-5.0,257.0,0
2453,22.0,-11.0,259.0,0
2454,22.0,-10.0,259.0,0
2455,24.0,-6.0,257.0,0
2456,23.0,-8.0,259.0,0
2457,19.0,-9.0,256.0,0
2458,22.0,-7.0,256.0,0
2459,20.0,-9.0,258.0,0
2460,20.0,-9.0,258.0,0
2461,25.0,-6.0,259.0,0
2462,20.0,-9.0,258.0,0
2463,23.0,-9.0,259.0,0
2464,24.0,-9.0,256.0,0
2465,23.0,-9.0,259.0,0
2466,22.0,-6.0,261.0,0
2467,18.0,-13.0,256.0,0
2468,20.0,-8.0,258.0,0
2469,21.0,-6.0,260.0,0
2470,23.0,-11.0,258.0,0
2471,21.0,-7.0,259.0,0
2472,19.0,-7.0,258.0,0
2473,22.0,-7.0,255.0,0
2474,20.0,-6.0,257.0,0
2475,18.0,-6.0,259.0,0
2476,19.0,-5.0,258.0,0
2477,21.0,-8.0,259.0,0
2478,20.0,-8.0,255.0,0
2479,21.0,-4.0,261.0,0
2480,20.0,-7.0,254.0,0
2481,22.0,-11.0,258.0,0
2482,19.0,-7.0,254.0,0
2483,21.0,-6.0,259.0,0
2484,23.0,-11.0,257.0,0
2485,23.0,-10.0,257.0,0
2486,20.0,-4.0,258.0,0
2487,22.0,-9.0,260.0,0
2488,18.0,-7.0,258.0,0
2489,20.0,-5.0,262.0,0
2490,20.0,-5.0,261.0,0
2491,20.0,-8.0,254.0,0
2492,22.0,-7.0,257.0,0
2493,22.0,-5.0,260.0,0
2494,22.0,-11.0,257.0,0
2495,23.0,-5.0,259.0,0
2496,16.0,-4.0,255.0,0
2497,22.0,-8.0,258.0,0
2498,20.0,-6.0,259.0,0
2499,21.0,-7.0,258.0,0
2500,22.0,-9.0,256.0,0
2501,22.0,-5.0,258.0,0
2502,20.0,-5.0,261.0,0
2503,20.0,-7.0,259.0,0
2504,19.0,-7.0,253.0,0
2505,21.0,-5.0,258.0,0
2506,22.0,-6.0,258.0,0
2507,20.0,-7.0,257.0,0
2508,21.0,-5.0,261.0,0
2509,19.0,-3.0,258.0,0
2510,23.0,-5.0,260.0,0
2511,19.0,-4.0,258.0,0
2512,21.0,-5.0,260.0,0
2513,21.0,-4.0,262.0,0
2514,25.0,8.0,255.0,0
2515,21.0,-5.0,258.0,0
2516,20.0,-7.0,259.0,0
2517,22.0,-4.0,259.0,0
2518,21.0,-4.0,259.0,0
2519,21.0,-5.0,257.0,0
2520,21.0,-4.0,257.0,0
2521,20.0,-4.0,259.0,0
2522,21.0,-6.0,260.0,0
2523,24.0,-4.0,257.0,0
2524,20.0,-6.0,259.0,0
2525,17.0,-4.0,260.0,0
2526,18.0,-3.0,260.0,0
2527,21.0,-4.0,259.0,0
2528,22.0,-4.0,262.0,0
2529,17.0,-4.0,256.0,0
2530,23.0,-4.0,256.0,0
2531,20.0,-6.0,258.0,0
2532,21.0,-7.0,259.0,0
2533,23.0,-4.0,260.0,0
2534,20.0,-4.0,257.0,0
2535,24.0,-9.0,258.0,0
2536,20.0,-4.0,260.0,0
2537,23.0,-4.0,258.0,0
2538,20.0,-4.0,260.0,0
2539,23.0,-5.0,262.0,0
2540,25.0,-7.0,260.0,0
2541,20.0,-4.0,258.0,0
2542,22.0,-4.0,256.0,0
2543,21.0,-6.0,257.0,0
2544,21.0,-2.0,260.0,0
2545,20.0,-4.0,258.0,0
2546,21.0,-5.0,258.0,0
2547,21.0,-4.0,256.0,0
2548,21.0,-2.0,259.0,0
2549,27.0,-7.0,257.0,0
2550,21.0,-6.0,260.0,0
2551,21.0,-4.0,260.0,0
2552,22.0,-4.0,258.0,0
2553,20.0,-4.0,257.0,0
2554,22.0,-4.0,258.0,0
2555,20.0,-4.0,258.0,0
2556,19.0,-5.0,259.0,0
2557,21.0,-3.0,260.0,0
2558,22.0,-5.0,259.0,0
2559,21.0,-5.0,260.0,0
2560,22.0,-6.0,257.0,0
2561,18.0,-3.0,257.0,0
2562,24.0,-4.0,258.0,0
2563,24.0,-8.0,256.0,0
2564,20.0,-5.0,261.0,0
2565,21.0,-6.0,255.0,0
2566,22.0,-4.0,256.0,0
2567,22.0,-4.0,258.0,0
2568,25.0,-5.0,257.0,0
2569,24.0,-4.0,259.0,0
2570,22.0,-4.0,259.0,0
2571,21.0,-4.0,261.0,0
2572,22.0,-5.0,260.0,0
2573,22.0,-5.0,262.0,0
2574,21.0,-4.0,259.0,0
2575,22.0,-4.0,261.0,0
2576,22.0,-4.0,259.0,0
2577,22.0,-4.0,260.0,0
2578,22.0,-2.0,257.0,0
2579,20.0,-4.0,259.0,0
2580,22.0,-4.0,261.0,0
2581,23.0,-7.0,260.0,0
2582,21.0,-4.0,258.0,0
2583,21.0,-4.0,261.0,0
2584,20.0,-3.0,260.0,0
2585,23.0,-4.0,258.0,0
2586,21.0,-4.0,258.0,0
2587,21.0,-4.0,258.0,0
2588,24.0,-9.0,254.0,0
2589,22.0,-4.0,256.0,0
2590,21.0,-6.0,257.0,0
2591,21.0,-3.0,259.0,0
2592,21.0,-3.0,257.0,0
2593,25.0,-5.0,260.0,0
2594,21.0,-3.0,258.0,0
2595,22.0,-4.0,260.0,0
2596,19.0,-2.0,262.0,0
2597,22.0,-3.0,256.0,0
2598,22.0,-5.0,262.0,0
2599,19.0,-6.0,258.0,0
2600,20.0,-4.0,258.0,0
2601,21.0,-4.0,259.0,0
2602,23.0,-4.0,260.0,0
2603,24.0,-4.0,254.0,0
2604,21.0,-4.0,258.0,0
2605,22.0,-4.0,259.0,0
2606,21.0,-9.0,255.0,0
2607,22.0,-4.0,258.0,0
2608,22.0,-7.0,260.0,0
2609,21.0,-9.0,254.0,0
2610,22.0,-9.0,259.0,0
2611,22.0,-3.0,276.0,0
2612,22.0,-7.0,263.0,0
2613,21.0,-4.0,260.0,0
2614,22.0,-4.0,263.0,0
2615,20.0,-7.0,260.0,0
2616,24.0,-8.0,265.0,0
2617,21.0,-10.0,262.0,0
2618,20.0,-6.0,261.0,0
2619,24.0,-11.0,259.0,0
2620,19.0,-4.0,255.0,0
2621,21.0,-7.0,252.0,0
2622,20.0,-6.0,252.0,0
2623,22.0,-8.0,256.0,0
2624,20.0,-7.0,257.0,0
2625,23.0,-6.0,256.0,0
2626,21.0,-3.0,256.0,0
2627,23.0,-7.0,257.0,0
2628,22.0,-3.0,258.0,0
2629,23.0,-4.0,259.0,0
2630,19.0,-5.0,253.0,0
2631,22.0,-4.0,257.0,0
2632,22.0,-5.0,260.0,0
2633,21.0,-6.0,259.0,0
2634,23.0,-4.0,260.0,0
2635,20.0,-4.0,259.0,0
2636,22.0,-4.0,258.0,0
2637,21.0,-7.0,262.0,0
2638,21.0,-6.0,258.0,0
2639,22.0,-6.0,258.0,0
2640,21.0,-9.0,258.0,0
2641,21.0,-6.0,261.0,0
2642,19.0,-5.0,258.0,0
2643,23.0,-6.0,259.0,0
2644,18.0,0.0,265.0,0
2645,18.0,-4.0,257.0,0
2646,20.0,-7.0,259.0,0
2647,22.0,-10.0,262.0,0
2648,23.0,-11.0,257.0,0
2649,21.0,-8.0,260.0,0
2650,22.0,-8.0,256.0,0
2651,23.0,-8.0,257.0,0
2652,19.0,-6.0,259.0,0
2653,20.0,-9.0,256.0,0
2654,17.0,-9.0,258.0,0
2655,20.0,-9.0,257.0,0
2656,21.0,-9.0,256.0,0
2657,20.0,-13.0,260.0,0
2658,19.0,-12.0,256.0,0
2659,20.0,-14.0,256.0,0
2660,20.0,-10.0,256.0,0
2661,20.0,-9.0,256.0,0
2662,22.0,-10.0,257.0,0
2663,21.0,-10.0,260.0,0
2664,23.0,-11.0,259.0,0
2665,19.0,-6.0,259.0,0
2666,23.0,-12.0,255.0,0
2667,23.0,-13.0,258.0,0
2668,20.0,-10.0,260.0,0
2669,22.0,-13.0,259.0,0
2670,22.0,-12.0,259.0,0
2671,22.0,-13.0,255.0,0
2672,23.0,-13.0,256.0,0
2673,22.0,-14.0,261.0,0
2674,22.0,-14.0,259.0,0
2675,22.0,-12.0,258.0,0
2676,19.0,-14.0,257.0,0
2677,19.0,-8.0,277.0,0
2678,20.0,-13.0,258.0,0
2679,18.0,-12.0,258.0,0
2680,20.0,-12.0,253.0,0
2681,22.0,-15.0,259.0,0
2682,20.0,-16.0,259.0,0
2683,19.0,-13.0,256.0,0
2684,20.0,-11.0,255.0,0
2685,21.0,-14.0,257.0,0
2686,18.0,-14.0,259.0,0
2687,23.0,-13.0,257.0,0
2688,23.0,-15.0,257.0,0
2689,23.0,-15.0,260.0,0
2690,20.0,-11.0,254.0,0
2691,18.0,-14.0,254.0,0
2692,21.0,-14.0,258.0,0
2693,21.0,-15.0,258.0,0
2694,22.0,-12.0,255.0,0
2695,19.0,-9.0,255.0,0
2696,20.0,-12.0,256.0,0
2697,20.0,-17.0,257.0,0
2698,19.0,-13.0,261.0,0
2699,19.0,-14.0,257.0,0
2700,20.0,-13.0,257.0,0
2701,21.0,-12.0,256.0,0
2702,19.0,-11.0,257.0,0
2703,21.0,-15.0,258.0,0
2704,21.0,-16.0,257.0,0
2705,25.0,-12.0,257.0,0
2706,19.0,-13.0,258.0,0
2707,22.0,-14.0,259.0,0
2708,19.0,-14.0,256.0,0
2709,19.0,-15.0,259.0,0
2710,20.0,-16.0,260.0,0
2711,18.0,-17.0,258.0,0
2712,20.0,-15.0,257.0,0
2713,18.0,-14.0,256.0,0
2714,20.0,-13.0,257.0,0
2715,17.0,-10.0,259.0,0
2716,19.0,-13.0,257.0,0
2717,22.0,-17.0,256.0,0
2718,20.0,-14.0,261.0,0
2719,19.0,-17.0,257.0,0
2720,14.0,-12.0,249.0,0
2721,21.0,-17.0,257.0,0
2722,21.0,-18.0,255.0,0
2723,18.0,-16.0,257.0,0
2724,18.0,-14.0,259.0,0
2725,17.0,-17.0,258.0,0
2726,22.0,-16.0,258.0,0
2727,21.0,-19.0,257.0,0
2728,21.0,-19.0,258.0,0
2729,21.0,-17.0,259.0,0
2730,19.0,-16.0,255.0,0
2731,21.0,-16.0,260.0,0
2732,20.0,-17.0,258.0,0
2733,21.0,-16.0,257.0,0
2734,19.0,-18.0,254.0,0
2735,22.0,-18.0,258.0,0
2736,23.0,-22.0,260.0,0
2737,22.0,-18.0,256.0,0
2738,22.0,-16.0,258.0,0
2739,20.0,-19.0,258.0,0
2740,17.0,-16.0,253.0,0
2741,20.0,-20.0,257.0,0
2742,19.0,-18.0,258.0,0
2743,20.0,-22.0,255.0,0
2744,21.0,-19.0,259.0,0
2745,20.0,-19.0,252.0,0
2746,21.0,-16.0,255.0,0
2747,19.0,-20.0,257.0,0
2748,20.0,-19.0,257.0,0
2749,18.0,-19.0,258.0,0
2750,19.0,-20.0,258.0,0
2751,19.0,-20.0,260.0,0
2752,19.0,-21.0,258.0,0
2753,29.0,-25.0,261.0,0
2754,23.0,-20.0,256.0,0
2755,22.0,-17.0,256.0,0
2756,20.0,-18.0,259.0,0
2757,21.0,-21.0,257.0,0
2758,21.0,-19.0,256.0,0
2759,19.0,-17.0,257.0,0
2760,17.0,-19.0,256.0,0
2761,22.0,-17.0,256.0,0
2762,22.0,-21.0,255.0,0
2763,20.0,-19.0,257.0,0
2764,18.0,-19.0,258.0,0
2765,20.0,-18.0,258.0,0
2766,19.0,-19.0,254.0,0
2767,19.0,-18.0,258.0,0
2768,20.0,-19.0,258.0,0
2769,17.0,-16.0,255.0,0
2770,19.0,-20.0,256.0,0
2771,19.0,-19.0,258.0,0
2772,20.0,-20.0,260.0,0
2773,21.0,-20.0,259.0,0
2774,21.0,-19.0,257.0,0
2775,19.0,-19.0,259.0,0
2776,17.0,-19.0,256.0,0
2777,21.0,-22.0,259.0,0
2778,19.0,-18.0,257.0,0
2779,21.0,-20.0,255.0,0
2780,22.0,-17.0,257.0,0
2781,17.0,-18.0,256.0,0
2782,20.0,-19.0,258.0,0
2783,24.0,-20.0,259.0,0
2784,20.0,-22.0,252.0,0
2785,18.0,-19.0,263.0,0
2786,32.0,-17.0,266.0,0
2787,22.0,-19.0,255.0,0
2788,19.0,-19.0,258.0,0
2789,19.0,-22.0,255.0,0
2790,21.0,-23.0,256.0,0
2791,20.0,-23.0,255.0,0
2792,20.0,-22.0,259.0,0
2793,20.0,-22.0,258.0,0
2794,19.0,-24.0,257.0,0
2795,18.0,-20.0,259.0,0
2796,16.0,-20.0,254.0,0
2797,20.0,-22.0,260.0,0
2798,18.0,-18.0,257.0,0
2799,17.0,-17.0,261.0,0
2800,19.0,-24.0,257.0,0
2801,17.0,-22.0,261.0,0
2802,21.0,-22.0,257.0,0
2803,19.0,-18.0,254.0,0
2804,17.0,-19.0,252.0,0
2805,19.0,-19.0,253.0,0
2806,17.0,-19.0,252.0,0
2807,19.0,-20.0,255.0,0
2808,21.0,-22.0,256.0,0
2809,22.0,-19.0,251.0,0
2810,23.0,-18.0,253.0,0
2811,21.0,-16.0,255.0,0
2812,21.0,-18.0,254.0,0
2813,23.0,-18.0,260.0,0
2814,21.0,-18.0,257.0,0
2815,19.0,-18.0,259.0,0
2816,20.0,-20.0,259.0,0
2817,19.0,-16.0,255.0,0
2818,17.0,-20.0,256.0,0
2819,19.0,-17.0,255.0,0
2820,20.0,-16.0,253.0,0
2821,18.0,-17.0,258.0,0
2822,17.0,-15.0,256.0,0
2823,20.0,-17.0,259.0,0
2824,19.0,-16.0,256.0,0
2825,21.0,-19.0,258.0,0
2826,23.0,-18.0,257.0,0
2827,16.0,-19.0,261.0,0
2828,16.0,-15.0,260.0,0
2829,24.0,-21.0,258.0,0
2830,17.0,-18.0,256.0,0
2831,19.0,-17.0,259.0,0
2832,19.0,-19.0,258.0,0
2833,19.0,-17.0,260.0,0
2834,19.0,-20.0,256.0,0
2835,18.0,-16.0,257.0,0
2836,18.0,-18.0,255.0,0
2837,19.0,-20.0,261.0,0
2838,18.0,-19.0,254.0,0
2839,19.0,-18.0,259.0,0
2840,21.0,-18.0,260.0,0
2841,20.0,-18.0,258.0,0
2842,17.0,-13.0,257.0,0
2843,18.0,-17.0,258.0,0
2844,19.0,-18.0,254.0,0
2845,22.0,-16.0,258.0,0
2846,19.0,-16.0,255.0,0
2847,21.0,-18.0,256.0,0
2848,21.0,-20.0,258.0,0
2849,20.0,-15.0,256.0,0
2850,21.0,-19.0,258.0,0
2851,18.0,-20.0,257.0,0
2852,20.0,-19.0,261.0,0
2853,22.0,-20.0,258.0,0
2854,21.0,-19.0,256.0,0
2855,21.0,-21.0,259.0,0
2856,19.0,-19.0,260.0,0
2857,20.0,-16.0,259.0,0
2858,22.0,-15.0,258.0,0
2859,21.0,-18.0,257.0,0
2860,20.0,-19.0,257.0,0
2861,18.0,-17.0,258.0,0
2862,20.0,-25.0,257.0,0
2863,16.0,-19.0,255.0,0
2864,23.0,-19.0,252.0,0
2865,19.0,-19.0,258.0,0
2866,19.0,-17.0,257.0,0
2867,23.0,-15.0,256.0,0
2868,18.0,-17.0,258.0,0
2869,20.0,-17.0,260.0,0
2870,19.0,-19.0,259.0,0
2871,20.0,-16.0,261.0,0
2872,18.0,-14.0,262.0,0
2873,22.0,-16.0,259.0,0
2874,20.0,-16.0,259.0,0
2875,18.0,-11.0,258.0,0
2876,20.0,-13.0,260.0,0
2877,18.0,-14.0,260.0,0
2878,21.0,-15.0,258.0,0
2879,20.0,-17.0,255.0,0
2880,20.0,-17.0,255.0,0
2881,21.0,-15.0,257.0,0
2882,20.0,-19.0,257.0,0
2883,20.0,-13.0,256.0,0
2884,20.0,-16.0,256.0,0
2885,21.0,-15.0,259.0,0
2886,22.0,-16.0,257.0,0
2887,19.0,-14.0,255.0,0
2888,22.0,-16.0,257.0,0
2889,23.0,-15.0,258.0,0
2890,21.0,-15.0,257.0,0
2891,21.0,-13.0,260.0,0
2892,22.0,-15.0,256.0,0
2893,22.0,-15.0,257.0,0
2894,21.0,-14.0,259.0,0
2895,24.0,-13.0,262.0,0
2896,19.0,-17.0,258.0,0
2897,17.0,-11.0,257.0,0
2898,18.0,-13.0,257.0,0
2899,17.0,-16.0,260.0,0
2900,18.0,-17.0,259.0,0
2901,21.0,-14.0,257.0,0
2902,21.0,-15.0,257.0,0
2903,21.0,-15.0,259.0,0
2904,22.0,-16.0,259.0,0
2905,18.0,-12.0,256.0,0
2906,20.0,-15.0,257.0,0
2907,21.0,-18.0,256.0,0
2908,20.0,-15.0,258.0,0
2909,19.0,-13.0,256.0,0
2910,20.0,-16.0,258.0,0
2911,21.0,-12.0,256.0,0
2912,18.0,-13.0,255.0,0
2913,21.0,-16.0,256.0,0
2914,18.0,-13.0,256.0,0
2915,18.0,-13.0,257.0,0
2916,19.0,-13.0,258.0,0
2917,20.0,-13.0,256.0,0
2918,18.0,-13.0,256.0,0
2919,19.0,-16.0,260.0,0
2920,21.0,-13.0,257.0,0
2921,22.0,-15.0,260.0,0
2922,22.0,-13.0,260.0,0
2923,17.0,-16.0,256.0,0
2924,18.0,-13.0,260.0,0
2925,18.0,-14.0,258.0,0
2926,19.0,-14.0,257.0,0
2927,24.0,-14.0,258.0,0
2928,20.0,-12.0,259.0,0
2929,19.0,-12.0,256.0,0
2930,20.0,-15.0,257.0,0
2931,22.0,-14.0,260.0,0
2932,17.0,-13.0,258.0,0
2933,18.0,-14.0,259.0,0
2934,22.0,-14.0,260.0,0
2935,22.0,-13.0,256.0,0
2936,20.0,-14.0,255.0,0
2937,23.0,-15.0,255.0,0
2938,19.0,-13.0,259.0,0
2939,20.0,-9.0,256.0,0
2940,20.0,-13.0,257.0,0
2941,18.0,-14.0,254.0,0
2942,21.0,-14.0,259.0,0
2943,23.0,-15.0,255.0,0
2944,21.0,-11.0,257.0,0
2945,20.0,-12.0,259.0,0
2946,23.0,-10.0,253.0,0
2947,19.0,-10.0,262.0,0
2948,21.0,-9.0,260.0,0
2949,18.0,-12.0,258.0,0
2950,24.0,-14.0,256.0,0
2951,21.0,-12.0,258.0,0
2952,17.0,-11.0,258.0,0
2953,22.0,-12.0,257.0,0
2954,24.0,-14.0,258.0,0
2955,20.0,-12.0,256.0,0
2956,20.0,-12.0,259.0,0
2957,18.0,-10.0,256.0,0
2958,21.0,-11.0,256.0,0
2959,19.0,-12.0,259.0,0
2960,19.0,-12.0,256.0,0
2961,22.0,-11.0,261.0,0
2962,19.0,-9.0,258.0,0
2963,22.0,-12.0,257.0,0
2964,19.0,-11.0,262.0,0
2965,21.0,-13.0,260.0,0
2966,21.0,-11.0,261.0,0
2967,23.0,-13.0,260.0,0
2968,21.0,-16.0,262.0,0
2969,21.0,-14.0,260.0,0
2970,22.0,-18.0,259.0,0
2971,21.0,-9.0,257.0,0
2972,20.0,-12.0,257.0,0
2973,23.0,-13.0,258.0,0
2974,21.0,-10.0,257.0,0
2975,18.0,-13.0,263.0,0
2976,21.0,-14.0,261.0,0
2977,19.0,-17.0,261.0,0
2978,23.0,-15.0,262.0,0
2979,23.0,-18.0,257.0,0
2980,21.0,-16.0,256.0,0
2981,17.0,-12.0,253.0,0
2982,23.0,-12.0,256.0,0
2983,19.0,-12.0,253.0,0
2984,20.0,-13.0,255.0,0
2985,20.0,-12.0,256.0,0
2986,19.0,-7.0,257.0,0
2987,20.0,-7.0,252.0,0
2988,20.0,-7.0,258.0,0
2989,18.0,-5.0,258.0,0
2990,19.0,-11.0,257.0,0
2991,21.0,-11.0,257.0,0
2992,22.0,-10.0,260.0,0
2993,21.0,-5.0,259.0,0
2994,25.0,-7.0,260.0,0
2995,23.0,-9.0,256.0,0
2996,22.0,-9.0,257.0,0
2997,22.0,-5.0,258.0,0
2998,20.0,-9.0,259.0,0
2999,20.0,-8.0,261.0,0
