,accelerometer_x,accelerometer_y,accelerometer_z,fall
0,7.0,-236.0,-89.0,0
1,6.0,-230.0,-85.0,0
2,9.0,-231.0,-87.0,0
3,8.0,-233.0,-89.0,0
4,7.0,-233.0,-88.0,0
5,15.0,-235.0,-85.0,0
6,9.0,-233.0,-88.0,0
7,8.0,-233.0,-85.0,0
8,7.0,-229.0,-82.0,0
9,8.0,-231.0,-88.0,0
10,7.0,-234.0,-83.0,0
11,4.0,-233.0,-88.0,0
12,7.0,-236.0,-85.0,0
13,10.0,-232.0,-88.0,0
14,10.0,-232.0,-85.0,0
15,6.0,-233.0,-85.0,0
16,8.0,-230.0,-88.0,0
17,6.0,-229.0,-88.0,0
18,6.0,-228.0,-90.0,0
19,7.0,-233.0,-88.0,0
20,7.0,-229.0,-87.0,0
21,6.0,-229.0,-84.0,0
22,7.0,-231.0,-88.0,0
23,6.0,-230.0,-91.0,0
24,5.0,-229.0,-86.0,0
25,3.0,-230.0,-87.0,0
26,6.0,-234.0,-85.0,0
27,1.0,-231.0,-84.0,0
28,1.0,-229.0,-87.0,0
29,0.0,-228.0,-88.0,0
30,2.0,-231.0,-87.0,0
31,1.0,-232.0,-89.0,0
32,2.0,-231.0,-83.0,0
33,1.0,-231.0,-90.0,0
34,1.0,-229.0,-88.0,0
35,2.0,-231.0,-90.0,0
36,2.0,-229.0,-87.0,0
37,2.0,-235.0,-90.0,0
38,5.0,-229.0,-90.0,0
39,3.0,-230.0,-89.0,0
40,4.0,-231.0,-88.0,0
41,7.0,-233.0,-89.0,0
42,2.0,-230.0,-89.0,0
43,5.0,-232.0,-90.0,0
44,2.0,-233.0,-89.0,0
45,5.0,-230.0,-88.0,0
46,2.0,-229.0,-87.0,0
47,4.0,-234.0,-87.0,0
48,1.0,-234.0,-90.0,0
49,3.0,-236.0,-88.0,0
50,2.0,-232.0,-86.0,0
51,0.0,-231.0,-88.0,0
52,1.0,-229.0,-87.0,0
53,0.0,-227.0,-90.0,0
54,0.0,-231.0,-93.0,0
55,-2.0,-228.0,-95.0,0
56,-6.0,-230.0,-93.0,0
57,-4.0,-228.0,-91.0,0
58,-8.0,-227.0,-98.0,0
59,-8.0,-217.0,-105.0,0
60,-17.0,-220.0,-97.0,0
61,-20.0,-221.0,-100.0,0
62,-23.0,-219.0,-104.0,0
63,-29.0,-219.0,-105.0,0
64,-30.0,-217.0,-110.0,0
65,-34.0,-218.0,-109.0,0
66,-40.0,-219.0,-114.0,0
67,-38.0,-221.0,-118.0,0
68,-40.0,-224.0,-119.0,0
69,-39.0,-226.0,-118.0,0
70,-43.0,-218.0,-115.0,0
71,-42.0,-219.0,-112.0,0
72,-41.0,-217.0,-112.0,0
73,-42.0,-218.0,-110.0,0
74,-41.0,-213.0,-110.0,0
75,-40.0,-213.0,-106.0,0
76,-40.0,-214.0,-107.0,0
77,-40.0,-213.0,-107.0,0
78,-38.0,-212.0,-105.0,0
79,-37.0,-216.0,-107.0,0
80,-37.0,-220.0,-106.0,0
81,-27.0,-218.0,-114.0,0
82,-34.0,-226.0,-114.0,0
83,-37.0,-228.0,-109.0,0
84,-36.0,-228.0,-113.0,0
85,-35.0,-233.0,-114.0,0
86,-31.0,-232.0,-113.0,0
87,-26.0,-234.0,-105.0,0
88,-18.0,-238.0,-107.0,0
89,-19.0,-238.0,-105.0,0
90,-14.0,-232.0,-98.0,0
91,-13.0,-231.0,-101.0,0
92,-9.0,-233.0,-98.0,0
93,-5.0,-234.0,-99.0,0
94,0.0,-231.0,-97.0,0
95,2.0,-230.0,-93.0,0
96,7.0,-232.0,-92.0,0
97,4.0,-233.0,-88.0,0
98,10.0,-232.0,-92.0,0
99,6.0,-234.0,-87.0,0
100,6.0,-232.0,-86.0,0
101,3.0,-232.0,-87.0,0
102,2.0,-227.0,-87.0,0
103,1.0,-229.0,-94.0,0
104,0.0,-229.0,-89.0,0
105,0.0,-227.0,-91.0,0
106,-6.0,-232.0,-88.0,0
107,-6.0,-229.0,-81.0,0
108,-6.0,-229.0,-80.0,0
109,-7.0,-232.0,-84.0,0
110,-6.0,-227.0,-81.0,0
111,-2.0,-234.0,-72.0,0
112,-3.0,-231.0,-70.0,0
113,-3.0,-228.0,-71.0,0
114,-7.0,-227.0,-63.0,0
115,-5.0,-227.0,-60.0,0
116,-6.0,-229.0,-61.0,0
117,-5.0,-230.0,-64.0,0
118,-7.0,-227.0,-64.0,0
119,-12.0,-227.0,-67.0,0
120,-10.0,-228.0,-77.0,0
121,-10.0,-230.0,-75.0,0
122,-13.0,-232.0,-79.0,0
123,-17.0,-232.0,-80.0,0
124,-25.0,-225.0,-80.0,0
125,-21.0,-234.0,-82.0,0
126,-23.0,-233.0,-80.0,0
127,-17.0,-236.0,-80.0,0
128,-16.0,-243.0,-79.0,0
129,-9.0,-246.0,-79.0,0
130,-6.0,-247.0,-75.0,0
131,-1.0,-252.0,-77.0,0
132,4.0,-254.0,-82.0,0
133,10.0,-254.0,-85.0,0
134,16.0,-261.0,-85.0,0
135,15.0,-264.0,-88.0,0
136,14.0,-263.0,-91.0,0
137,13.0,-267.0,-97.0,0
138,6.0,-266.0,-104.0,0
139,0.0,-261.0,-112.0,0
140,-7.0,-260.0,-116.0,0
141,-16.0,-257.0,-121.0,0
142,-29.0,-250.0,-121.0,0
143,-33.0,-247.0,-116.0,0
144,-42.0,-243.0,-113.0,0
145,-46.0,-238.0,-110.0,0
146,-45.0,-234.0,-111.0,0
147,-46.0,-228.0,-103.0,0
148,-37.0,-224.0,-101.0,0
149,-32.0,-221.0,-101.0,0
150,-23.0,-219.0,-96.0,0
151,-16.0,-218.0,-93.0,0
152,-12.0,-220.0,-89.0,0
153,-1.0,-223.0,-87.0,0
154,4.0,-220.0,-87.0,0
155,8.0,-218.0,-86.0,0
156,9.0,-222.0,-95.0,0
157,15.0,-223.0,-91.0,0
158,19.0,-225.0,-97.0,0
159,14.0,-226.0,-100.0,0
160,13.0,-227.0,-99.0,0
161,10.0,-227.0,-98.0,0
162,3.0,-227.0,-105.0,0
163,3.0,-230.0,-104.0,0
164,-3.0,-228.0,-102.0,0
165,-9.0,-229.0,-109.0,0
166,-15.0,-230.0,-109.0,0
167,-20.0,-227.0,-99.0,0
168,-20.0,-226.0,-103.0,0
169,-24.0,-220.0,-99.0,0
170,-23.0,-226.0,-103.0,0
171,-24.0,-221.0,-96.0,0
172,-25.0,-219.0,-96.0,0
173,-19.0,-219.0,-94.0,0
174,-20.0,-220.0,-95.0,0
175,-17.0,-220.0,-96.0,0
176,-12.0,-217.0,-94.0,0
177,-13.0,-217.0,-97.0,0
178,-11.0,-208.0,-98.0,0
179,-6.0,-221.0,-99.0,0
180,-3.0,-219.0,-100.0,0
181,-5.0,-219.0,-100.0,0
182,-2.0,-221.0,-98.0,0
183,0.0,-223.0,-100.0,0
184,1.0,-228.0,-101.0,0
185,0.0,-232.0,-98.0,0
186,-3.0,-227.0,-100.0,0
187,-2.0,-231.0,-98.0,0
188,0.0,-237.0,-96.0,0
189,-9.0,-232.0,-93.0,0
190,-2.0,-232.0,-95.0,0
191,0.0,-233.0,-99.0,0
192,-3.0,-233.0,-96.0,0
193,-3.0,-234.0,-92.0,0
194,-2.0,-234.0,-95.0,0
195,-3.0,-234.0,-92.0,0
196,-9.0,-228.0,-97.0,0
197,-6.0,-233.0,-92.0,0
198,-3.0,-234.0,-94.0,0
199,-4.0,-234.0,-92.0,0
200,-7.0,-234.0,-101.0,0
201,-1.0,-233.0,-90.0,0
202,-3.0,-236.0,-93.0,0
203,0.0,-233.0,-92.0,0
204,-5.0,-233.0,-91.0,0
205,-2.0,-233.0,-93.0,0
206,0.0,-235.0,-87.0,0
207,1.0,-235.0,-93.0,0
208,1.0,-237.0,-87.0,0
209,-1.0,-235.0,-88.0,0
210,0.0,-239.0,-86.0,0
211,0.0,-235.0,-88.0,0
212,0.0,-236.0,-87.0,0
213,0.0,-232.0,-86.0,0
214,0.0,-233.0,-84.0,0
215,0.0,-236.0,-83.0,0
216,1.0,-234.0,-89.0,0
217,0.0,-234.0,-88.0,0
218,-5.0,-232.0,-88.0,0
219,0.0,-233.0,-81.0,0
220,1.0,-228.0,-83.0,0
221,0.0,-228.0,-84.0,0
222,1.0,-230.0,-86.0,0
223,2.0,-230.0,-87.0,0
224,2.0,-229.0,-80.0,0
225,1.0,-226.0,-86.0,0
226,2.0,-226.0,-88.0,0
227,1.0,-225.0,-86.0,0
228,7.0,-225.0,-84.0,0
229,6.0,-226.0,-89.0,0
230,8.0,-225.0,-84.0,0
231,5.0,-225.0,-86.0,0
232,9.0,-224.0,-90.0,0
233,4.0,-221.0,-92.0,0
234,7.0,-220.0,-95.0,0
235,10.0,-221.0,-94.0,0
236,8.0,-225.0,-95.0,0
237,10.0,-220.0,-95.0,0
238,5.0,-219.0,-95.0,0
239,9.0,-223.0,-97.0,0
240,9.0,-219.0,-99.0,0
241,11.0,-215.0,-97.0,0
242,12.0,-212.0,-97.0,0
243,17.0,-220.0,-107.0,0
244,16.0,-213.0,-105.0,0
245,19.0,-213.0,-104.0,0
246,21.0,-211.0,-110.0,0
247,24.0,-213.0,-106.0,0
248,28.0,-213.0,-108.0,0
249,29.0,-218.0,-106.0,0
250,33.0,-221.0,-111.0,0
251,34.0,-227.0,-108.0,0
252,32.0,-226.0,-103.0,0
253,28.0,-231.0,-102.0,0
254,23.0,-237.0,-100.0,0
255,28.0,-236.0,-102.0,0
256,23.0,-238.0,-100.0,0
257,22.0,-239.0,-103.0,0
258,23.0,-241.0,-102.0,0
259,19.0,-241.0,-102.0,0
260,20.0,-244.0,-104.0,0
261,23.0,-244.0,-100.0,0
262,22.0,-243.0,-104.0,0
263,18.0,-241.0,-104.0,0
264,22.0,-238.0,-105.0,0
265,19.0,-244.0,-100.0,0
266,23.0,-241.0,-105.0,0
267,24.0,-238.0,-105.0,0
268,23.0,-237.0,-103.0,0
269,24.0,-239.0,-106.0,0
270,24.0,-236.0,-102.0,0
271,25.0,-233.0,-100.0,0
272,28.0,-235.0,-95.0,0
273,28.0,-232.0,-97.0,0
274,28.0,-234.0,-94.0,0
275,22.0,-232.0,-91.0,0
276,21.0,-230.0,-92.0,0
277,21.0,-228.0,-97.0,0
278,22.0,-225.0,-101.0,0
279,23.0,-225.0,-100.0,0
280,23.0,-224.0,-99.0,0
281,27.0,-218.0,-103.0,0
282,28.0,-215.0,-99.0,0
283,31.0,-216.0,-103.0,0
284,29.0,-213.0,-101.0,0
285,32.0,-213.0,-102.0,0
286,31.0,-215.0,-97.0,0
287,27.0,-213.0,-92.0,0
288,30.0,-215.0,-97.0,0
289,27.0,-220.0,-90.0,0
290,29.0,-219.0,-91.0,0
291,30.0,-218.0,-93.0,0
292,27.0,-220.0,-86.0,0
293,26.0,-223.0,-89.0,0
294,24.0,-226.0,-90.0,0
295,24.0,-229.0,-90.0,0
296,23.0,-227.0,-91.0,0
297,23.0,-226.0,-86.0,0
298,24.0,-230.0,-82.0,0
299,24.0,-230.0,-89.0,0
300,21.0,-231.0,-90.0,0
301,24.0,-227.0,-91.0,0
302,24.0,-228.0,-90.0,0
303,24.0,-226.0,-89.0,0
304,29.0,-228.0,-88.0,0
305,26.0,-226.0,-85.0,0
306,28.0,-222.0,-91.0,0
307,29.0,-225.0,-83.0,0
308,32.0,-226.0,-79.0,0
309,31.0,-220.0,-90.0,0
310,30.0,-222.0,-84.0,0
311,31.0,-222.0,-83.0,0
312,30.0,-223.0,-86.0,0
313,28.0,-224.0,-82.0,0
314,28.0,-228.0,-84.0,0
315,28.0,-230.0,-82.0,0
316,29.0,-233.0,-80.0,0
317,25.0,-233.0,-82.0,0
318,25.0,-235.0,-81.0,0
319,28.0,-237.0,-79.0,0
320,24.0,-241.0,-77.0,0
321,22.0,-242.0,-79.0,0
322,22.0,-240.0,-81.0,0
323,23.0,-242.0,-82.0,0
324,18.0,-241.0,-84.0,0
325,19.0,-241.0,-81.0,0
326,19.0,-238.0,-84.0,0
327,16.0,-242.0,-82.0,0
328,15.0,-240.0,-71.0,0
329,16.0,-234.0,-75.0,0
330,14.0,-235.0,-83.0,0
331,14.0,-235.0,-78.0,0
332,18.0,-233.0,-78.0,0
333,14.0,-229.0,-80.0,0
334,20.0,-232.0,-77.0,0
335,20.0,-231.0,-73.0,0
336,19.0,-231.0,-69.0,0
337,21.0,-234.0,-70.0,0
338,26.0,-234.0,-70.0,0
339,21.0,-237.0,-71.0,0
340,19.0,-238.0,-65.0,0
341,22.0,-243.0,-63.0,0
342,18.0,-244.0,-58.0,0
343,13.0,-245.0,-56.0,0
344,15.0,-248.0,-53.0,0
345,9.0,-250.0,-51.0,0
346,3.0,-248.0,-56.0,0
347,1.0,-252.0,-50.0,0
348,5.0,-252.0,-51.0,0
349,1.0,-253.0,-49.0,0
350,1.0,-250.0,-49.0,0
351,-2.0,-249.0,-46.0,0
352,0.0,-250.0,-50.0,0
353,0.0,-247.0,-50.0,0
354,3.0,-245.0,-54.0,0
355,5.0,-240.0,-63.0,0
356,7.0,-233.0,-72.0,0
357,11.0,-227.0,-90.0,0
358,18.0,-221.0,-104.0,0
359,30.0,-217.0,-117.0,0
360,43.0,-220.0,-129.0,0
361,56.0,-224.0,-133.0,0
362,68.0,-233.0,-137.0,0
363,73.0,-246.0,-143.0,0
364,84.0,-250.0,-140.0,0
365,94.0,-263.0,-153.0,0
366,94.0,-276.0,-153.0,0
367,86.0,-284.0,-142.0,0
368,76.0,-297.0,-129.0,0
369,64.0,-304.0,-116.0,0
370,49.0,-313.0,-105.0,0
371,28.0,-317.0,-92.0,0
372,15.0,-319.0,-94.0,0
373,2.0,-316.0,-82.0,0
374,-1.0,-309.0,-83.0,0
375,-9.0,-299.0,-81.0,0
376,-19.0,-281.0,-79.0,0
377,-24.0,-264.0,-83.0,0
378,-27.0,-251.0,-92.0,0
379,-26.0,-240.0,-95.0,0
380,-28.0,-229.0,-101.0,0
381,-25.0,-217.0,-112.0,0
382,-22.0,-210.0,-122.0,0
383,-17.0,-208.0,-128.0,0
384,-7.0,-200.0,-136.0,0
385,-1.0,-202.0,-135.0,0
386,4.0,-203.0,-142.0,0
387,9.0,-201.0,-138.0,0
388,11.0,-207.0,-139.0,0
389,10.0,-207.0,-140.0,0
390,13.0,-212.0,-135.0,0
391,8.0,-211.0,-133.0,0
392,3.0,-215.0,-131.0,0
393,-1.0,-208.0,-130.0,0
394,-7.0,-205.0,-131.0,0
395,-14.0,-201.0,-122.0,0
396,-20.0,-195.0,-118.0,0
397,-25.0,-193.0,-116.0,0
398,-32.0,-188.0,-119.0,0
399,-28.0,-185.0,-121.0,0
400,-28.0,-184.0,-121.0,0
401,-31.0,-182.0,-123.0,0
402,-31.0,-175.0,-121.0,0
403,-29.0,-174.0,-124.0,0
404,-25.0,-179.0,-122.0,0
405,-23.0,-183.0,-124.0,0
406,-22.0,-185.0,-127.0,0
407,-19.0,-187.0,-128.0,0
408,-17.0,-187.0,-125.0,0
409,-15.0,-190.0,-127.0,0
410,-10.0,-197.0,-124.0,0
411,-7.0,-197.0,-127.0,0
412,-6.0,-205.0,-125.0,0
413,-2.0,-206.0,-118.0,0
414,3.0,-212.0,-119.0,0
415,2.0,-213.0,-117.0,0
416,5.0,-221.0,-121.0,0
417,11.0,-224.0,-116.0,0
418,11.0,-230.0,-117.0,0
419,9.0,-232.0,-116.0,0
420,9.0,-234.0,-113.0,0
421,9.0,-231.0,-116.0,0
422,2.0,-230.0,-112.0,0
423,-1.0,-228.0,-108.0,0
424,-5.0,-226.0,-105.0,0
425,-11.0,-220.0,-103.0,0
426,-16.0,-216.0,-104.0,0
427,-18.0,-217.0,-104.0,0
428,-22.0,-209.0,-109.0,0
429,-19.0,-211.0,-104.0,0
430,-22.0,-208.0,-99.0,0
431,-22.0,-208.0,-102.0,0
432,-24.0,-207.0,-98.0,0
433,-22.0,-206.0,-96.0,0
434,-22.0,-211.0,-95.0,0
435,-20.0,-209.0,-97.0,0
436,-19.0,-211.0,-97.0,0
437,-17.0,-211.0,-94.0,0
438,-16.0,-210.0,-93.0,0
439,-10.0,-214.0,-74.0,0
440,-11.0,-210.0,-92.0,0
441,-13.0,-211.0,-92.0,0
442,-10.0,-204.0,-88.0,0
443,-9.0,-212.0,-89.0,0
444,-9.0,-211.0,-84.0,0
445,-4.0,-212.0,-86.0,0
446,-4.0,-212.0,-86.0,0
447,0.0,-210.0,-85.0,0
448,-4.0,-214.0,-81.0,0
449,-2.0,-209.0,-80.0,0
450,0.0,-217.0,-91.0,0
451,-1.0,-214.0,-80.0,0
452,0.0,-216.0,-79.0,0
453,-5.0,-217.0,-77.0,0
454,-7.0,-218.0,-82.0,0
455,-2.0,-218.0,-81.0,0
456,-5.0,-217.0,-82.0,0
457,-6.0,-217.0,-83.0,0
458,-8.0,-215.0,-81.0,0
459,-9.0,-217.0,-78.0,0
460,-8.0,-208.0,-82.0,0
461,-12.0,-210.0,-79.0,0
462,-11.0,-211.0,-77.0,0
463,-9.0,-212.0,-81.0,0
464,-11.0,-214.0,-78.0,0
465,-10.0,-212.0,-76.0,0
466,-11.0,-216.0,-72.0,0
467,-12.0,-220.0,-73.0,0
468,-13.0,-223.0,-73.0,0
469,-14.0,-224.0,-67.0,0
470,-16.0,-234.0,-64.0,0
471,-15.0,-238.0,-64.0,0
472,-10.0,-245.0,-58.0,0
473,-8.0,-252.0,-60.0,0
474,-7.0,-256.0,-61.0,0
475,-1.0,-259.0,-65.0,0
476,-4.0,-261.0,-64.0,0
477,-4.0,-263.0,-60.0,0
478,-3.0,-265.0,-60.0,0
479,-8.0,-272.0,-58.0,0
480,-16.0,-267.0,-63.0,0
481,-15.0,-266.0,-60.0,0
482,-16.0,-265.0,-58.0,0
483,-17.0,-259.0,-57.0,0
484,-16.0,-256.0,-56.0,0
485,-15.0,-255.0,-50.0,0
486,-13.0,-256.0,-50.0,0
487,-7.0,-252.0,-42.0,0
488,-3.0,-253.0,-40.0,0
489,-6.0,-251.0,-38.0,0
490,-6.0,-253.0,-36.0,0
491,-3.0,-251.0,-31.0,0
492,2.0,-251.0,-31.0,0
493,1.0,-251.0,-31.0,0
494,1.0,-255.0,-34.0,0
495,1.0,-255.0,-38.0,0
496,-2.0,-258.0,-42.0,0
497,0.0,-259.0,-62.0,0
498,1.0,-259.0,-77.0,0
499,1.0,-261.0,-103.0,0
500,-1.0,-265.0,-126.0,0
501,-13.0,-272.0,-153.0,0
502,-23.0,-280.0,-177.0,0
503,-37.0,-292.0,-191.0,0
504,-47.0,-298.0,-192.0,0
505,-63.0,-308.0,-176.0,0
506,-74.0,-322.0,-149.0,0
507,-85.0,-334.0,-127.0,0
508,-84.0,-333.0,-115.0,0
509,-78.0,-333.0,-113.0,0
510,-65.0,-325.0,-121.0,0
511,-53.0,-318.0,-128.0,0
512,-34.0,-302.0,-132.0,0
513,-29.0,-288.0,-135.0,0
514,-21.0,-282.0,-139.0,0
515,-10.0,-274.0,-144.0,0
516,2.0,-266.0,-153.0,0
517,4.0,-252.0,-159.0,0
518,10.0,-243.0,-161.0,0
519,10.0,-234.0,-163.0,0
520,5.0,-220.0,-163.0,0
521,6.0,-213.0,-170.0,0
522,8.0,-199.0,-158.0,0
523,16.0,-190.0,-153.0,0
524,18.0,-182.0,-143.0,0
525,19.0,-173.0,-139.0,0
526,24.0,-168.0,-139.0,0
527,27.0,-161.0,-134.0,0
528,28.0,-157.0,-135.0,0
529,34.0,-157.0,-133.0,0
530,36.0,-153.0,-133.0,0
531,39.0,-155.0,-133.0,0
532,36.0,-158.0,-131.0,0
533,40.0,-164.0,-131.0,0
534,32.0,-171.0,-125.0,0
535,27.0,-179.0,-121.0,0
536,22.0,-192.0,-116.0,0
537,14.0,-194.0,-112.0,0
538,7.0,-205.0,-103.0,0
539,4.0,-214.0,-106.0,0
540,0.0,-221.0,-107.0,0
541,-6.0,-220.0,-109.0,0
542,-10.0,-223.0,-114.0,0
543,-11.0,-220.0,-113.0,0
544,-14.0,-218.0,-114.0,0
545,-15.0,-216.0,-114.0,0
546,-11.0,-218.0,-116.0,0
547,-5.0,-212.0,-113.0,0
548,-15.0,-201.0,-116.0,0
549,-10.0,-198.0,-116.0,0
550,-7.0,-195.0,-113.0,0
551,0.0,-191.0,-112.0,0
552,1.0,-191.0,-110.0,0
553,9.0,-190.0,-109.0,0
554,11.0,-187.0,-104.0,0
555,15.0,-188.0,-106.0,0
556,21.0,-191.0,-106.0,0
557,17.0,-187.0,-105.0,0
558,29.0,-191.0,-102.0,0
559,32.0,-192.0,-102.0,0
560,28.0,-193.0,-102.0,0
561,30.0,-195.0,-103.0,0
562,29.0,-197.0,-105.0,0
563,25.0,-198.0,-99.0,0
564,24.0,-200.0,-101.0,0
565,30.0,-200.0,-101.0,0
566,28.0,-203.0,-97.0,0
567,28.0,-204.0,-97.0,0
568,26.0,-197.0,-88.0,0
569,29.0,-202.0,-95.0,0
570,29.0,-201.0,-97.0,0
571,31.0,-203.0,-91.0,0
572,30.0,-204.0,-89.0,0
573,31.0,-208.0,-88.0,0
574,27.0,-208.0,-89.0,0
575,24.0,-212.0,-89.0,0
576,29.0,-222.0,-84.0,0
577,27.0,-223.0,-84.0,0
578,21.0,-226.0,-81.0,0
579,22.0,-235.0,-74.0,0
580,19.0,-235.0,-74.0,0
581,18.0,-236.0,-71.0,0
582,10.0,-237.0,-73.0,0
583,9.0,-240.0,-70.0,0
584,5.0,-240.0,-71.0,0
585,3.0,-235.0,-70.0,0
586,0.0,-230.0,-66.0,0
587,1.0,-228.0,-63.0,0
588,0.0,-225.0,-63.0,0
589,0.0,-222.0,-61.0,0
590,-4.0,-220.0,-60.0,0
591,-3.0,-219.0,-54.0,0
592,-1.0,-219.0,-53.0,0
593,-4.0,-219.0,-49.0,0
594,-3.0,-219.0,-47.0,0
595,-5.0,-226.0,-45.0,0
596,-5.0,-226.0,-46.0,0
597,-8.0,-230.0,-50.0,0
598,0.0,-235.0,-52.0,0
599,0.0,-239.0,-52.0,0
600,2.0,-248.0,-45.0,0
601,9.0,-249.0,-50.0,0
602,10.0,-256.0,-48.0,0
603,10.0,-261.0,-42.0,0
604,8.0,-261.0,-43.0,0
605,6.0,-262.0,-43.0,0
606,14.0,-260.0,-51.0,0
607,12.0,-256.0,-52.0,0
608,25.0,-248.0,-63.0,0
609,34.0,-243.0,-68.0,0
610,45.0,-236.0,-71.0,0
611,62.0,-228.0,-67.0,0
612,69.0,-228.0,-68.0,0
613,80.0,-231.0,-53.0,0
614,85.0,-236.0,-45.0,0
615,92.0,-244.0,-32.0,0
616,84.0,-254.0,-23.0,0
617,76.0,-256.0,-24.0,0
618,62.0,-264.0,-23.0,0
619,44.0,-269.0,-38.0,0
620,28.0,-276.0,-49.0,0
621,15.0,-285.0,-66.0,0
622,8.0,-291.0,-79.0,0
623,3.0,-300.0,-102.0,0
624,1.0,-303.0,-115.0,0
625,4.0,-310.0,-130.0,0
626,6.0,-314.0,-140.0,0
627,4.0,-320.0,-150.0,0
628,21.0,-314.0,-166.0,0
629,29.0,-310.0,-166.0,0
630,31.0,-313.0,-169.0,0
631,38.0,-305.0,-171.0,0
632,42.0,-301.0,-175.0,0
633,56.0,-293.0,-184.0,0
634,49.0,-291.0,-174.0,0
635,48.0,-283.0,-174.0,0
636,42.0,-272.0,-174.0,0
637,34.0,-267.0,-169.0,0
638,24.0,-259.0,-169.0,0
639,9.0,-247.0,-165.0,0
640,1.0,-233.0,-166.0,0
641,-11.0,-224.0,-161.0,0
642,-27.0,-216.0,-167.0,0
643,-43.0,-211.0,-163.0,0
644,-61.0,-206.0,-162.0,0
645,-69.0,-198.0,-173.0,0
646,-70.0,-195.0,-171.0,0
647,-71.0,-194.0,-172.0,0
648,-61.0,-197.0,-169.0,0
649,-50.0,-198.0,-165.0,0
650,-34.0,-203.0,-158.0,0
651,-13.0,-208.0,-151.0,0
652,3.0,-210.0,-147.0,0
653,15.0,-209.0,-137.0,0
654,30.0,-214.0,-132.0,0
655,43.0,-208.0,-127.0,0
656,49.0,-205.0,-120.0,0
657,55.0,-205.0,-110.0,0
658,53.0,-209.0,-107.0,0
659,58.0,-204.0,-106.0,0
660,55.0,-209.0,-99.0,0
661,57.0,-208.0,-106.0,0
662,51.0,-207.0,-112.0,0
663,51.0,-209.0,-107.0,0
664,39.0,-208.0,-107.0,0
665,27.0,-207.0,-113.0,0
666,19.0,-205.0,-113.0,0
667,22.0,-202.0,-110.0,0
668,8.0,-198.0,-106.0,0
669,3.0,-195.0,-98.0,0
670,1.0,-192.0,-100.0,0
671,-1.0,-190.0,-95.0,0
672,-1.0,-186.0,-95.0,0
673,-4.0,-180.0,-94.0,0
674,-7.0,-179.0,-89.0,0
675,-6.0,-175.0,-89.0,0
676,0.0,-180.0,-86.0,0
677,-4.0,-179.0,-84.0,0
678,-3.0,-185.0,-81.0,0
679,0.0,-178.0,-76.0,0
680,0.0,-177.0,-79.0,0
681,-2.0,-177.0,-77.0,0
682,-2.0,-175.0,-77.0,0
683,-2.0,-179.0,-74.0,0
684,-6.0,-177.0,-75.0,0
685,-9.0,-179.0,-70.0,0
686,-10.0,-179.0,-75.0,0
687,-13.0,-185.0,-79.0,0
688,-14.0,-186.0,-74.0,0
689,-13.0,-192.0,-74.0,0
690,-17.0,-194.0,-75.0,0
691,-17.0,-198.0,-72.0,0
692,-18.0,-201.0,-69.0,0
693,-21.0,-201.0,-65.0,0
694,-22.0,-208.0,-68.0,0
695,-19.0,-211.0,-65.0,0
696,-17.0,-218.0,-61.0,0
697,-16.0,-219.0,-62.0,0
698,-15.0,-222.0,-58.0,0
699,-13.0,-217.0,-57.0,0
700,-11.0,-222.0,-56.0,0
701,-8.0,-220.0,-52.0,0
702,-8.0,-221.0,-53.0,0
703,-7.0,-218.0,-51.0,0
704,-9.0,-217.0,-50.0,0
705,-5.0,-222.0,-50.0,0
706,-4.0,-221.0,-47.0,0
707,-4.0,-221.0,-50.0,0
708,0.0,-219.0,-50.0,0
709,-2.0,-226.0,-49.0,0
710,0.0,-224.0,-54.0,0
711,2.0,-226.0,-58.0,0
712,2.0,-229.0,-55.0,0
713,2.0,-234.0,-59.0,0
714,5.0,-237.0,-54.0,0
715,1.0,-238.0,-52.0,0
716,6.0,-246.0,-50.0,0
717,10.0,-252.0,-55.0,0
718,12.0,-257.0,-53.0,0
719,15.0,-257.0,-48.0,0
720,18.0,-259.0,-56.0,0
721,18.0,-264.0,-53.0,0
722,21.0,-266.0,-60.0,0
723,21.0,-272.0,-44.0,0
724,25.0,-271.0,-45.0,0
725,19.0,-280.0,-37.0,0
726,9.0,-274.0,-34.0,0
727,5.0,-277.0,-40.0,0
728,6.0,-274.0,-35.0,0
729,12.0,-284.0,-34.0,0
730,3.0,-278.0,-34.0,0
731,4.0,-278.0,-25.0,0
732,-1.0,-281.0,-8.0,0
733,7.0,-280.0,-20.0,0
734,14.0,-284.0,-19.0,0
735,11.0,-282.0,-35.0,0
736,15.0,-281.0,-45.0,0
737,28.0,-285.0,-67.0,0
738,31.0,-287.0,-87.0,0
739,49.0,-297.0,-117.0,0
740,37.0,-302.0,-160.0,0
741,33.0,-297.0,-179.0,0
742,21.0,-300.0,-196.0,0
743,4.0,-310.0,-182.0,0
744,-21.0,-326.0,-160.0,0
745,-57.0,-330.0,-140.0,0
746,-62.0,-338.0,-139.0,0
747,-62.0,-332.0,-132.0,0
748,-57.0,-324.0,-141.0,0
749,-59.0,-314.0,-150.0,0
750,-53.0,-295.0,-165.0,0
751,-59.0,-286.0,-164.0,0
752,-57.0,-278.0,-165.0,0
753,-48.0,-266.0,-177.0,0
754,-30.0,-240.0,-191.0,0
755,-10.0,-229.0,-183.0,0
756,2.0,-220.0,-176.0,0
757,21.0,-203.0,-166.0,0
758,25.0,-194.0,-155.0,0
759,27.0,-187.0,-157.0,0
760,34.0,-181.0,-143.0,0
761,41.0,-169.0,-147.0,0
762,54.0,-170.0,-141.0,0
763,69.0,-169.0,-141.0,0
764,79.0,-171.0,-131.0,0
765,75.0,-177.0,-131.0,0
766,68.0,-184.0,-126.0,0
767,61.0,-192.0,-127.0,0
768,46.0,-198.0,-122.0,0
769,41.0,-207.0,-117.0,0
770,18.0,-215.0,-117.0,0
771,4.0,-218.0,-116.0,0
772,0.0,-223.0,-115.0,0
773,-15.0,-222.0,-118.0,0
774,-20.0,-228.0,-114.0,0
775,-26.0,-223.0,-111.0,0
776,-24.0,-225.0,-112.0,0
777,-27.0,-222.0,-109.0,0
778,-19.0,-227.0,-105.0,0
779,-15.0,-221.0,-105.0,0
780,-11.0,-214.0,-102.0,0
781,-6.0,-205.0,-103.0,0
782,3.0,-204.0,-99.0,0
783,4.0,-195.0,-94.0,0
784,11.0,-191.0,-91.0,0
785,20.0,-185.0,-94.0,0
786,18.0,-184.0,-92.0,0
787,22.0,-182.0,-89.0,0
788,27.0,-182.0,-85.0,0
789,26.0,-181.0,-89.0,0
790,26.0,-180.0,-82.0,0
791,24.0,-180.0,-77.0,0
792,25.0,-181.0,-77.0,0
793,25.0,-181.0,-77.0,0
794,21.0,-183.0,-71.0,0
795,18.0,-183.0,-71.0,0
796,10.0,-180.0,-73.0,0
797,16.0,-175.0,-75.0,0
798,13.0,-175.0,-71.0,0
799,14.0,-176.0,-75.0,0
800,16.0,-173.0,-72.0,0
801,16.0,-176.0,-78.0,0
802,20.0,-179.0,-76.0,0
803,18.0,-181.0,-83.0,0
804,22.0,-182.0,-74.0,0
805,26.0,-184.0,-79.0,0
806,31.0,-191.0,-77.0,0
807,31.0,-186.0,-88.0,0
808,32.0,-193.0,-77.0,0
809,34.0,-198.0,-75.0,0
810,32.0,-201.0,-70.0,0
811,31.0,-209.0,-69.0,0
812,31.0,-212.0,-68.0,0
813,30.0,-215.0,-64.0,0
814,31.0,-220.0,-69.0,0
815,29.0,-225.0,-66.0,0
816,34.0,-226.0,-61.0,0
817,26.0,-233.0,-51.0,0
818,37.0,-238.0,-51.0,0
819,32.0,-235.0,-48.0,0
820,25.0,-242.0,-38.0,0
821,22.0,-245.0,-32.0,0
822,16.0,-250.0,-30.0,0
823,14.0,-255.0,-25.0,0
824,8.0,-257.0,-23.0,0
825,0.0,-257.0,-24.0,0
826,-1.0,-262.0,-30.0,0
827,-3.0,-261.0,-33.0,0
828,-2.0,-266.0,-38.0,0
829,0.0,-270.0,-31.0,0
830,0.0,-273.0,-29.0,0
831,0.0,-272.0,-28.0,0
832,0.0,-268.0,-33.0,0
833,-2.0,-260.0,-45.0,0
834,-1.0,-254.0,-59.0,0
835,10.0,-241.0,-75.0,0
836,29.0,-224.0,-79.0,0
837,53.0,-221.0,-72.0,0
838,73.0,-217.0,-60.0,0
839,80.0,-218.0,-42.0,0
840,97.0,-226.0,-25.0,0
841,99.0,-234.0,-12.0,0
842,94.0,-244.0,-3.0,0
843,78.0,-252.0,-8.0,0
844,67.0,-260.0,-19.0,0
845,48.0,-275.0,-40.0,0
846,31.0,-292.0,-68.0,0
847,16.0,-297.0,-113.0,0
848,11.0,-304.0,-162.0,0
849,20.0,-315.0,-190.0,0
850,31.0,-326.0,-218.0,0
851,54.0,-334.0,-224.0,0
852,67.0,-340.0,-221.0,0
853,80.0,-347.0,-210.0,0
854,83.0,-349.0,-199.0,0
855,85.0,-356.0,-176.0,0
856,80.0,-355.0,-166.0,0
857,73.0,-344.0,-158.0,0
858,60.0,-332.0,-162.0,0
859,50.0,-314.0,-160.0,0
860,34.0,-295.0,-162.0,0
861,19.0,-280.0,-154.0,0
862,4.0,-268.0,-158.0,0
863,-17.0,-256.0,-161.0,0
864,-40.0,-247.0,-162.0,0
865,-55.0,-234.0,-165.0,0
866,-70.0,-222.0,-169.0,0
867,-88.0,-210.0,-178.0,0
868,-101.0,-199.0,-186.0,0
869,-109.0,-196.0,-184.0,0
870,-104.0,-198.0,-184.0,0
871,-91.0,-191.0,-164.0,0
872,-78.0,-197.0,-163.0,0
873,-60.0,-201.0,-158.0,0
874,-35.0,-203.0,-147.0,0
875,-21.0,-207.0,-143.0,0
876,-6.0,-209.0,-133.0,0
877,2.0,-204.0,-128.0,0
878,12.0,-204.0,-120.0,0
879,20.0,-207.0,-116.0,0
880,29.0,-203.0,-110.0,0
881,42.0,-204.0,-112.0,0
882,48.0,-203.0,-104.0,0
883,57.0,-202.0,-108.0,0
884,60.0,-203.0,-111.0,0
885,63.0,-196.0,-114.0,0
886,54.0,-203.0,-107.0,0
887,48.0,-200.0,-111.0,0
888,44.0,-197.0,-111.0,0
889,38.0,-193.0,-107.0,0
890,31.0,-193.0,-99.0,0
891,19.0,-191.0,-102.0,0
892,16.0,-190.0,-102.0,0
893,10.0,-179.0,-97.0,0
894,5.0,-176.0,-96.0,0
895,3.0,-173.0,-95.0,0
896,0.0,-173.0,-95.0,0
897,0.0,-172.0,-93.0,0
898,-1.0,-169.0,-95.0,0
899,0.0,-171.0,-91.0,0
900,-1.0,-168.0,-89.0,0
901,0.0,-169.0,-88.0,0
902,0.0,-167.0,-81.0,0
903,0.0,-169.0,-80.0,0
904,-1.0,-169.0,-80.0,0
905,0.0,-171.0,-79.0,0
906,0.0,-172.0,-80.0,0
907,-6.0,-176.0,-82.0,0
908,-6.0,-177.0,-78.0,0
909,-11.0,-181.0,-76.0,0
910,-9.0,-185.0,-77.0,0
911,-14.0,-187.0,-84.0,0
912,-22.0,-190.0,-78.0,0
913,-25.0,-196.0,-79.0,0
914,-28.0,-196.0,-77.0,0
915,-29.0,-196.0,-81.0,0
916,-30.0,-203.0,-77.0,0
917,-33.0,-203.0,-73.0,0
918,-31.0,-205.0,-73.0,0
919,-30.0,-209.0,-69.0,0
920,-29.0,-211.0,-69.0,0
921,-27.0,-212.0,-67.0,0
922,-25.0,-212.0,-64.0,0
923,-16.0,-212.0,-64.0,0
924,-11.0,-213.0,-68.0,0
925,-8.0,-214.0,-65.0,0
926,0.0,-212.0,-65.0,0
927,1.0,-209.0,-67.0,0
928,2.0,-208.0,-66.0,0
929,3.0,-208.0,-64.0,0
930,5.0,-210.0,-63.0,0
931,6.0,-212.0,-57.0,0
932,3.0,-213.0,-59.0,0
933,5.0,-222.0,-58.0,0
934,4.0,-230.0,-53.0,0
935,1.0,-231.0,-58.0,0
936,-7.0,-242.0,-59.0,0
937,0.0,-247.0,-51.0,0
938,2.0,-254.0,-54.0,0
939,-5.0,-255.0,-46.0,0
940,-6.0,-258.0,-47.0,0
941,-4.0,-258.0,-51.0,0
942,-7.0,-263.0,-53.0,0
943,-3.0,-260.0,-47.0,0
944,-1.0,-263.0,-53.0,0
945,1.0,-261.0,-50.0,0
946,5.0,-263.0,-45.0,0
947,5.0,-262.0,-47.0,0
948,11.0,-257.0,-45.0,0
949,13.0,-259.0,-47.0,0
950,6.0,-258.0,-41.0,0
951,9.0,-259.0,-42.0,0
952,8.0,-260.0,-40.0,0
953,3.0,-258.0,-42.0,0
954,2.0,-262.0,-35.0,0
955,2.0,-265.0,-33.0,0
956,10.0,-272.0,-21.0,0
957,12.0,-281.0,-11.0,0
958,18.0,-286.0,-12.0,0
959,20.0,-283.0,-9.0,0
960,25.0,-287.0,-11.0,0
961,31.0,-287.0,-36.0,0
962,44.0,-293.0,-64.0,0
963,54.0,-297.0,-91.0,0
964,63.0,-290.0,-130.0,0
965,61.0,-285.0,-181.0,0
966,47.0,-296.0,-207.0,0
967,25.0,-297.0,-227.0,0
968,6.0,-309.0,-211.0,0
969,-23.0,-320.0,-187.0,0
970,-60.0,-340.0,-156.0,0
971,-83.0,-355.0,-131.0,0
972,-90.0,-358.0,-126.0,0
973,-86.0,-353.0,-134.0,0
974,-79.0,-336.0,-157.0,0
975,-65.0,-316.0,-166.0,0
976,-57.0,-298.0,-177.0,0
977,-48.0,-284.0,-174.0,0
978,-45.0,-278.0,-174.0,0
979,-36.0,-256.0,-179.0,0
980,-13.0,-229.0,-183.0,0
981,3.0,-205.0,-185.0,0
982,23.0,-191.0,-173.0,0
983,33.0,-180.0,-165.0,0
984,39.0,-177.0,-154.0,0
985,43.0,-168.0,-159.0,0
986,45.0,-163.0,-153.0,0
987,48.0,-158.0,-158.0,0
988,63.0,-158.0,-156.0,0
989,70.0,-161.0,-151.0,0
990,81.0,-171.0,-156.0,0
991,74.0,-180.0,-137.0,0
992,71.0,-192.0,-128.0,0
993,59.0,-201.0,-126.0,0
994,47.0,-205.0,-124.0,0
995,33.0,-209.0,-120.0,0
996,16.0,-213.0,-118.0,0
997,2.0,-218.0,-115.0,0
998,-6.0,-221.0,-114.0,0
999,-16.0,-223.0,-116.0,0
1000,-24.0,-216.0,-110.0,0
1001,-27.0,-223.0,-102.0,0
1002,-30.0,-222.0,-102.0,0
1003,-26.0,-221.0,-101.0,0
1004,-29.0,-218.0,-101.0,0
1005,-27.0,-216.0,-98.0,0
1006,-17.0,-211.0,-107.0,0
1007,-15.0,-205.0,-106.0,0
1008,-9.0,-195.0,-106.0,0
1009,-3.0,-194.0,-105.0,0
1010,0.0,-190.0,-100.0,0
1011,1.0,-187.0,-98.0,0
1012,-1.0,-185.0,-87.0,0
1013,4.0,-181.0,-86.0,0
1014,10.0,-179.0,-84.0,0
1015,5.0,-180.0,-83.0,0
1016,6.0,-179.0,-79.0,0
1017,11.0,-178.0,-77.0,0
1018,9.0,-181.0,-76.0,0
1019,8.0,-179.0,-77.0,0
1020,13.0,-179.0,-83.0,0
1021,9.0,-182.0,-81.0,0
1022,5.0,-177.0,-79.0,0
1023,8.0,-179.0,-76.0,0
1024,7.0,-178.0,-78.0,0
1025,10.0,-180.0,-82.0,0
1026,11.0,-183.0,-82.0,0
1027,14.0,-182.0,-83.0,0
1028,19.0,-185.0,-79.0,0
1029,17.0,-186.0,-82.0,0
1030,16.0,-188.0,-82.0,0
1031,26.0,-195.0,-81.0,0
1032,26.0,-196.0,-80.0,0
1033,34.0,-202.0,-78.0,0
1034,35.0,-208.0,-77.0,0
1035,34.0,-214.0,-76.0,0
1036,34.0,-216.0,-77.0,0
1037,40.0,-222.0,-74.0,0
1038,40.0,-225.0,-73.0,0
1039,40.0,-229.0,-74.0,0
1040,40.0,-230.0,-72.0,0
1041,43.0,-232.0,-64.0,0
1042,41.0,-236.0,-60.0,0
1043,38.0,-235.0,-54.0,0
1044,42.0,-239.0,-52.0,0
1045,35.0,-242.0,-42.0,0
1046,34.0,-246.0,-43.0,0
1047,28.0,-247.0,-33.0,0
1048,24.0,-246.0,-30.0,0
1049,12.0,-251.0,-27.0,0
1050,2.0,-253.0,-21.0,0
1051,1.0,-257.0,-20.0,0
1052,-1.0,-261.0,-23.0,0
1053,-10.0,-263.0,-23.0,0
1054,-16.0,-264.0,-30.0,0
1055,-13.0,-264.0,-37.0,0
1056,-2.0,-264.0,-44.0,0
1057,5.0,-260.0,-48.0,0
1058,14.0,-255.0,-48.0,0
1059,19.0,-247.0,-55.0,0
1060,20.0,-233.0,-75.0,0
1061,29.0,-225.0,-83.0,0
1062,47.0,-215.0,-81.0,0
1063,64.0,-212.0,-79.0,0
1064,78.0,-222.0,-65.0,0
1065,88.0,-229.0,-50.0,0
1066,88.0,-237.0,-36.0,0
1067,80.0,-239.0,-21.0,0
1068,65.0,-246.0,-14.0,0
1069,46.0,-254.0,-7.0,0
1070,26.0,-259.0,-8.0,0
1071,18.0,-267.0,-13.0,0
1072,8.0,-282.0,-18.0,0
1073,2.0,-295.0,-36.0,0
1074,-4.0,-306.0,-55.0,0
1075,-13.0,-312.0,-79.0,0
1076,-15.0,-318.0,-111.0,0
1077,-16.0,-322.0,-135.0,0
1078,-6.0,-325.0,-159.0,0
1079,13.0,-328.0,-172.0,0
1080,35.0,-339.0,-184.0,0
1081,62.0,-338.0,-192.0,0
1082,69.0,-335.0,-191.0,0
1083,94.0,-325.0,-196.0,0
1084,98.0,-324.0,-185.0,0
1085,91.0,-321.0,-166.0,0
1086,80.0,-314.0,-159.0,0
1087,66.0,-302.0,-163.0,0
1088,55.0,-282.0,-155.0,0
1089,40.0,-267.0,-154.0,0
1090,28.0,-246.0,-152.0,0
1091,8.0,-232.0,-152.0,0
1092,-7.0,-223.0,-151.0,0
1093,-26.0,-218.0,-153.0,0
1094,-53.0,-218.0,-150.0,0
1095,-67.0,-210.0,-156.0,0
1096,-82.0,-206.0,-162.0,0
1097,-91.0,-205.0,-164.0,0
1098,-94.0,-208.0,-166.0,0
1099,-79.0,-206.0,-171.0,0
1100,-63.0,-206.0,-164.0,0
1101,-41.0,-204.0,-162.0,0
1102,-21.0,-205.0,-155.0,0
1103,0.0,-207.0,-149.0,0
1104,15.0,-210.0,-135.0,0
1105,30.0,-206.0,-122.0,0
1106,43.0,-208.0,-108.0,0
1107,59.0,-213.0,-101.0,0
1108,64.0,-212.0,-93.0,0
1109,79.0,-214.0,-88.0,0
1110,78.0,-217.0,-88.0,0
1111,84.0,-220.0,-90.0,0
1112,83.0,-227.0,-95.0,0
1113,78.0,-227.0,-104.0,0
1114,68.0,-222.0,-101.0,0
1115,65.0,-224.0,-102.0,0
1116,57.0,-221.0,-105.0,0
1117,47.0,-221.0,-100.0,0
1118,43.0,-216.0,-99.0,0
1119,29.0,-204.0,-99.0,0
1120,23.0,-193.0,-94.0,0
1121,15.0,-191.0,-90.0,0
1122,8.0,-180.0,-89.0,0
1123,7.0,-174.0,-90.0,0
1124,2.0,-164.0,-90.0,0
1125,-3.0,-160.0,-87.0,0
1126,-3.0,-155.0,-83.0,0
1127,0.0,-154.0,-88.0,0
1128,0.0,-149.0,-81.0,0
1129,0.0,-152.0,-75.0,0
1130,0.0,-148.0,-74.0,0
1131,-1.0,-151.0,-77.0,0
1132,-7.0,-156.0,-74.0,0
1133,-9.0,-161.0,-72.0,0
1134,-6.0,-162.0,-72.0,0
1135,-13.0,-167.0,-73.0,0
1136,-13.0,-171.0,-78.0,0
1137,-15.0,-178.0,-75.0,0
1138,-16.0,-187.0,-80.0,0
1139,-20.0,-193.0,-79.0,0
1140,-22.0,-199.0,-78.0,0
1141,-23.0,-206.0,-75.0,0
1142,-27.0,-216.0,-72.0,0
1143,-30.0,-221.0,-75.0,0
1144,-28.0,-222.0,-71.0,0
1145,-25.0,-228.0,-67.0,0
1146,-21.0,-231.0,-67.0,0
1147,-21.0,-231.0,-57.0,0
1148,-17.0,-231.0,-60.0,0
1149,-15.0,-237.0,-53.0,0
1150,-17.0,-230.0,-52.0,0
1151,-12.0,-232.0,-49.0,0
1152,-15.0,-228.0,-47.0,0
1153,-12.0,-225.0,-42.0,0
1154,-11.0,-227.0,-41.0,0
1155,-13.0,-225.0,-45.0,0
1156,-13.0,-225.0,-37.0,0
1157,-13.0,-225.0,-38.0,0
1158,-14.0,-225.0,-36.0,0
1159,-6.0,-228.0,-38.0,0
1160,-3.0,-230.0,-33.0,0
1161,0.0,-228.0,-36.0,0
1162,1.0,-226.0,-34.0,0
1163,8.0,-226.0,-40.0,0
1164,15.0,-229.0,-46.0,0
1165,22.0,-228.0,-50.0,0
1166,26.0,-233.0,-45.0,0
1167,30.0,-239.0,-48.0,0
1168,30.0,-241.0,-46.0,0
1169,34.0,-245.0,-44.0,0
1170,38.0,-247.0,-48.0,0
1171,39.0,-252.0,-39.0,0
1172,40.0,-258.0,-42.0,0
1173,31.0,-262.0,-41.0,0
1174,30.0,-268.0,-50.0,0
1175,28.0,-271.0,-43.0,0
1176,19.0,-274.0,-49.0,0
1177,9.0,-275.0,-47.0,0
1178,3.0,-278.0,-42.0,0
1179,-1.0,-283.0,-34.0,0
1180,-2.0,-288.0,-28.0,0
1181,-1.0,-294.0,-20.0,0
1182,1.0,-294.0,-11.0,0
1183,5.0,-298.0,-10.0,0
1184,11.0,-304.0,-2.0,0
1185,8.0,-301.0,-16.0,0
1186,12.0,-304.0,-18.0,0
1187,17.0,-300.0,-38.0,0
1188,15.0,-303.0,-59.0,0
1189,22.0,-304.0,-81.0,0
1190,32.0,-309.0,-101.0,0
1191,37.0,-315.0,-132.0,0
1192,17.0,-315.0,-157.0,0
1193,7.0,-313.0,-177.0,0
1194,-12.0,-318.0,-174.0,0
1195,-25.0,-331.0,-149.0,0
1196,-43.0,-337.0,-139.0,0
1197,-52.0,-347.0,-124.0,0
1198,-52.0,-346.0,-125.0,0
1199,-46.0,-332.0,-139.0,0
1200,-42.0,-312.0,-162.0,0
1201,-40.0,-296.0,-175.0,0
1202,-43.0,-280.0,-181.0,0
1203,-51.0,-269.0,-185.0,0
1204,-39.0,-251.0,-181.0,0
1205,-16.0,-230.0,-186.0,0
1206,-8.0,-215.0,-183.0,0
1207,12.0,-197.0,-172.0,0
1208,23.0,-190.0,-163.0,0
1209,23.0,-178.0,-155.0,0
1210,25.0,-171.0,-153.0,0
1211,28.0,-163.0,-149.0,0
1212,48.0,-158.0,-141.0,0
1213,66.0,-157.0,-142.0,0
1214,75.0,-163.0,-140.0,0
1215,76.0,-172.0,-132.0,0
1216,73.0,-178.0,-128.0,0
1217,65.0,-182.0,-132.0,0
1218,50.0,-203.0,-124.0,0
1219,33.0,-210.0,-121.0,0
1220,20.0,-223.0,-115.0,0
1221,1.0,-228.0,-113.0,0
1222,-9.0,-233.0,-109.0,0
1223,-18.0,-233.0,-108.0,0
1224,-32.0,-233.0,-106.0,0
1225,-38.0,-232.0,-102.0,0
1226,-37.0,-234.0,-97.0,0
1227,-34.0,-232.0,-95.0,0
1228,-31.0,-221.0,-97.0,0
1229,-27.0,-224.0,-94.0,0
1230,-23.0,-218.0,-99.0,0
1231,-17.0,-214.0,-96.0,0
1232,-12.0,-211.0,-98.0,0
1233,-8.0,-206.0,-96.0,0
1234,-1.0,-201.0,-97.0,0
1235,1.0,-200.0,-89.0,0
1236,5.0,-195.0,-87.0,0
1237,5.0,-193.0,-80.0,0
1238,10.0,-193.0,-78.0,0
1239,9.0,-192.0,-78.0,0
1240,5.0,-190.0,-71.0,0
1241,13.0,-184.0,-68.0,0
1242,15.0,-185.0,-65.0,0
1243,13.0,-181.0,-66.0,0
1244,10.0,-177.0,-65.0,0
1245,14.0,-175.0,-65.0,0
1246,12.0,-172.0,-64.0,0
1247,16.0,-171.0,-65.0,0
1248,9.0,-164.0,-60.0,0
1249,11.0,-158.0,-63.0,0
1250,7.0,-160.0,-69.0,0
1251,13.0,-159.0,-66.0,0
1252,11.0,-159.0,-65.0,0
1253,17.0,-163.0,-64.0,0
1254,22.0,-161.0,-68.0,0
1255,26.0,-170.0,-68.0,0
1256,30.0,-177.0,-68.0,0
1257,37.0,-180.0,-71.0,0
1258,35.0,-189.0,-69.0,0
1259,39.0,-194.0,-73.0,0
1260,37.0,-202.0,-71.0,0
1261,39.0,-210.0,-70.0,0
1262,39.0,-219.0,-67.0,0
1263,39.0,-222.0,-66.0,0
1264,41.0,-232.0,-65.0,0
1265,42.0,-239.0,-60.0,0
1266,42.0,-247.0,-54.0,0
1267,45.0,-255.0,-49.0,0
1268,40.0,-254.0,-44.0,0
1269,42.0,-260.0,-35.0,0
1270,37.0,-265.0,-30.0,0
1271,30.0,-267.0,-25.0,0
1272,28.0,-276.0,-20.0,0
1273,21.0,-278.0,-15.0,0
1274,12.0,-280.0,-14.0,0
1275,2.0,-281.0,-12.0,0
1276,-6.0,-285.0,-15.0,0
1277,-12.0,-279.0,-23.0,0
1278,-8.0,-274.0,-29.0,0
1279,-9.0,-268.0,-39.0,0
1280,-3.0,-257.0,-49.0,0
1281,2.0,-246.0,-68.0,0
1282,8.0,-231.0,-80.0,0
1283,31.0,-220.0,-86.0,0
1284,46.0,-212.0,-85.0,0
1285,65.0,-216.0,-71.0,0
1286,76.0,-219.0,-57.0,0
1287,81.0,-227.0,-37.0,0
1288,77.0,-236.0,-20.0,0
1289,67.0,-240.0,-13.0,0
1290,51.0,-248.0,-5.0,0
1291,41.0,-257.0,-3.0,0
1292,31.0,-268.0,-7.0,0
1293,21.0,-279.0,-24.0,0
1294,19.0,-288.0,-38.0,0
1295,13.0,-299.0,-65.0,0
1296,3.0,-301.0,-104.0,0
1297,-2.0,-303.0,-152.0,0
1298,0.0,-303.0,-191.0,0
1299,11.0,-302.0,-203.0,0
1300,29.0,-314.0,-200.0,0
1301,60.0,-325.0,-196.0,0
1302,76.0,-329.0,-190.0,0
1303,89.0,-341.0,-186.0,0
1304,102.0,-340.0,-184.0,0
1305,102.0,-344.0,-177.0,0
1306,88.0,-335.0,-180.0,0
1307,63.0,-321.0,-179.0,0
1308,45.0,-311.0,-179.0,0
1309,39.0,-296.0,-182.0,0
1310,23.0,-272.0,-175.0,0
1311,-4.0,-257.0,-174.0,0
1312,-29.0,-245.0,-172.0,0
1313,-54.0,-233.0,-174.0,0
1314,-70.0,-225.0,-180.0,0
1315,-76.0,-220.0,-165.0,0
1316,-95.0,-213.0,-182.0,0
1317,-92.0,-215.0,-185.0,0
1318,-92.0,-212.0,-188.0,0
1319,-82.0,-215.0,-187.0,0
1320,-65.0,-214.0,-183.0,0
1321,-51.0,-210.0,-181.0,0
1322,-26.0,-215.0,-162.0,0
1323,-10.0,-216.0,-145.0,0
1324,1.0,-220.0,-125.0,0
1325,13.0,-217.0,-117.0,0
1326,26.0,-222.0,-108.0,0
1327,42.0,-222.0,-104.0,0
1328,55.0,-225.0,-108.0,0
1329,64.0,-223.0,-114.0,0
1330,67.0,-224.0,-118.0,0
1331,73.0,-223.0,-118.0,0
1332,74.0,-218.0,-116.0,0
1333,80.0,-213.0,-115.0,0
1334,61.0,-225.0,-105.0,0
1335,55.0,-215.0,-110.0,0
1336,49.0,-218.0,-104.0,0
1337,34.0,-205.0,-99.0,0
1338,23.0,-193.0,-96.0,0
1339,16.0,-187.0,-95.0,0
1340,13.0,-179.0,-93.0,0
1341,6.0,-165.0,-91.0,0
1342,1.0,-159.0,-89.0,0
1343,-1.0,-161.0,-91.0,0
1344,-2.0,-156.0,-91.0,0
1345,-4.0,-151.0,-87.0,0
1346,-5.0,-152.0,-91.0,0
1347,-2.0,-147.0,-87.0,0
1348,-2.0,-147.0,-83.0,0
1349,-2.0,-145.0,-80.0,0
1350,-1.0,-145.0,-78.0,0
1351,-5.0,-147.0,-72.0,0
1352,-1.0,-148.0,-70.0,0
1353,-2.0,-150.0,-79.0,0
1354,-2.0,-153.0,-80.0,0
1355,-8.0,-160.0,-78.0,0
1356,-8.0,-162.0,-80.0,0
1357,-11.0,-169.0,-85.0,0
1358,-20.0,-178.0,-87.0,0
1359,-22.0,-182.0,-81.0,0
1360,-26.0,-185.0,-84.0,0
1361,-29.0,-191.0,-80.0,0
1362,-32.0,-201.0,-80.0,0
1363,-34.0,-206.0,-74.0,0
1364,-36.0,-214.0,-75.0,0
1365,-35.0,-221.0,-71.0,0
1366,-34.0,-230.0,-70.0,0
1367,-32.0,-234.0,-66.0,0
1368,-26.0,-241.0,-66.0,0
1369,-25.0,-246.0,-67.0,0
1370,-21.0,-243.0,-69.0,0
1371,-16.0,-246.0,-63.0,0
1372,-14.0,-242.0,-62.0,0
1373,-14.0,-239.0,-59.0,0
1374,-12.0,-236.0,-56.0,0
1375,-13.0,-230.0,-58.0,0
1376,-14.0,-223.0,-58.0,0
1377,-13.0,-225.0,-54.0,0
1378,-8.0,-219.0,-54.0,0
1379,-6.0,-219.0,-52.0,0
1380,-1.0,-216.0,-50.0,0
1381,3.0,-225.0,-59.0,0
1382,5.0,-223.0,-54.0,0
1383,9.0,-225.0,-55.0,0
1384,15.0,-227.0,-52.0,0
1385,17.0,-235.0,-54.0,0
1386,30.0,-241.0,-58.0,0
1387,33.0,-243.0,-52.0,0
1388,30.0,-249.0,-54.0,0
1389,35.0,-255.0,-56.0,0
1390,34.0,-258.0,-57.0,0
1391,23.0,-258.0,-57.0,0
1392,21.0,-262.0,-59.0,0
1393,13.0,-265.0,-57.0,0
1394,6.0,-265.0,-54.0,0
1395,2.0,-268.0,-46.0,0
1396,-3.0,-269.0,-45.0,0
1397,0.0,-266.0,-39.0,0
1398,-4.0,-268.0,-37.0,0
1399,-8.0,-267.0,-30.0,0
1400,-8.0,-266.0,-34.0,0
1401,-10.0,-268.0,-35.0,0
1402,-4.0,-266.0,-30.0,0
1403,-2.0,-265.0,-32.0,0
1404,-1.0,-269.0,-31.0,0
1405,-1.0,-269.0,-35.0,0
1406,-3.0,-268.0,-40.0,0
1407,-4.0,-275.0,-45.0,0
1408,-6.0,-279.0,-53.0,0
1409,-8.0,-276.0,-61.0,0
1410,-8.0,-281.0,-86.0,0
1411,-10.0,-286.0,-100.0,0
1412,-8.0,-293.0,-118.0,0
1413,-13.0,-290.0,-141.0,0
1414,-23.0,-292.0,-165.0,0
1415,-35.0,-296.0,-185.0,0
1416,-49.0,-306.0,-189.0,0
1417,-65.0,-323.0,-170.0,0
1418,-71.0,-330.0,-159.0,0
1419,-84.0,-343.0,-135.0,0
1420,-80.0,-340.0,-133.0,0
1421,-67.0,-338.0,-135.0,0
1422,-54.0,-327.0,-148.0,0
1423,-46.0,-321.0,-160.0,0
1424,-31.0,-298.0,-170.0,0
1425,-19.0,-275.0,-186.0,0
1426,-2.0,-257.0,-193.0,0
1427,7.0,-249.0,-198.0,0
1428,15.0,-242.0,-204.0,0
1429,20.0,-226.0,-205.0,0
1430,32.0,-209.0,-209.0,0
1431,47.0,-187.0,-215.0,0
1432,51.0,-170.0,-206.0,0
1433,50.0,-166.0,-195.0,0
1434,47.0,-160.0,-190.0,0
1435,40.0,-161.0,-175.0,0
1436,36.0,-169.0,-166.0,0
1437,32.0,-175.0,-157.0,0
1438,31.0,-184.0,-153.0,0
1439,31.0,-191.0,-146.0,0
1440,22.0,-200.0,-146.0,0
1441,18.0,-214.0,-138.0,0
1442,8.0,-224.0,-133.0,0
1443,3.0,-232.0,-125.0,0
1444,-7.0,-236.0,-119.0,0
1445,-18.0,-238.0,-118.0,0
1446,-22.0,-242.0,-116.0,0
1447,-28.0,-241.0,-111.0,0
1448,-29.0,-232.0,-109.0,0
1449,-28.0,-232.0,-109.0,0
1450,-20.0,-231.0,-110.0,0
1451,-16.0,-224.0,-108.0,0
1452,-9.0,-215.0,-111.0,0
1453,-1.0,-210.0,-114.0,0
1454,8.0,-203.0,-112.0,0
1455,17.0,-193.0,-115.0,0
1456,15.0,-182.0,-116.0,0
1457,17.0,-173.0,-114.0,0
1458,17.0,-165.0,-109.0,0
1459,20.0,-159.0,-99.0,0
1460,16.0,-157.0,-98.0,0
1461,17.0,-158.0,-93.0,0
1462,14.0,-156.0,-88.0,0
1463,10.0,-157.0,-83.0,0
1464,10.0,-160.0,-81.0,0
1465,7.0,-163.0,-85.0,0
1466,7.0,-173.0,-80.0,0
1467,4.0,-169.0,-79.0,0
1468,3.0,-175.0,-76.0,0
1469,0.0,-179.0,-78.0,0
1470,-5.0,-180.0,-75.0,0
1471,-1.0,-180.0,-74.0,0
1472,0.0,-181.0,-78.0,0
1473,2.0,-177.0,-78.0,0
1474,-7.0,-176.0,-73.0,0
1475,0.0,-177.0,-72.0,0
1476,0.0,-173.0,-81.0,0
1477,7.0,-171.0,-75.0,0
1478,6.0,-170.0,-76.0,0
1479,12.0,-172.0,-84.0,0
1480,12.0,-164.0,-80.0,0
1481,19.0,-170.0,-82.0,0
1482,20.0,-173.0,-85.0,0
1483,28.0,-177.0,-81.0,0
1484,28.0,-185.0,-84.0,0
1485,30.0,-187.0,-84.0,0
1486,31.0,-195.0,-81.0,0
1487,33.0,-198.0,-83.0,0
1488,32.0,-198.0,-84.0,0
1489,31.0,-206.0,-80.0,0
1490,35.0,-208.0,-84.0,0
1491,32.0,-210.0,-80.0,0
1492,34.0,-218.0,-74.0,0
1493,30.0,-220.0,-72.0,0
1494,32.0,-225.0,-66.0,0
1495,28.0,-227.0,-63.0,0
1496,28.0,-225.0,-56.0,0
1497,26.0,-225.0,-54.0,0
1498,23.0,-232.0,-51.0,0
1499,16.0,-232.0,-38.0,0
1500,20.0,-236.0,-40.0,0
1501,20.0,-243.0,-37.0,0
1502,15.0,-251.0,-29.0,0
1503,4.0,-255.0,-25.0,0
1504,1.0,-264.0,-21.0,0
1505,-7.0,-263.0,-17.0,0
1506,-10.0,-264.0,-23.0,0
1507,-13.0,-264.0,-29.0,0
1508,-17.0,-261.0,-32.0,0
1509,-9.0,-266.0,-40.0,0
1510,-2.0,-265.0,-44.0,0
1511,2.0,-267.0,-37.0,0
1512,12.0,-266.0,-39.0,0
1513,25.0,-269.0,-41.0,0
1514,35.0,-263.0,-40.0,0
1515,44.0,-256.0,-46.0,0
1516,56.0,-251.0,-51.0,0
1517,65.0,-238.0,-53.0,0
1518,82.0,-237.0,-55.0,0
1519,86.0,-236.0,-45.0,0
1520,82.0,-246.0,-34.0,0
1521,70.0,-250.0,-24.0,0
1522,61.0,-249.0,-25.0,0
1523,46.0,-249.0,-30.0,0
1524,34.0,-252.0,-46.0,0
1525,20.0,-255.0,-61.0,0
1526,16.0,-259.0,-81.0,0
1527,5.0,-265.0,-101.0,0
1528,3.0,-270.0,-124.0,0
1529,0.0,-278.0,-153.0,0
1530,5.0,-284.0,-182.0,0
1531,13.0,-296.0,-203.0,0
1532,29.0,-301.0,-214.0,0
1533,52.0,-307.0,-224.0,0
1534,74.0,-318.0,-228.0,0
1535,88.0,-325.0,-234.0,0
1536,100.0,-327.0,-240.0,0
1537,95.0,-325.0,-249.0,0
1538,89.0,-330.0,-244.0,0
1539,81.0,-312.0,-232.0,0
1540,63.0,-303.0,-219.0,0
1541,49.0,-294.0,-201.0,0
1542,32.0,-283.0,-191.0,0
1543,8.0,-274.0,-180.0,0
1544,-17.0,-264.0,-178.0,0
1545,-43.0,-257.0,-175.0,0
1546,-69.0,-251.0,-183.0,0
1547,-82.0,-242.0,-186.0,0
1548,-97.0,-238.0,-193.0,0
1549,-100.0,-226.0,-193.0,0
1550,-100.0,-216.0,-198.0,0
1551,-85.0,-207.0,-194.0,0
1552,-75.0,-199.0,-196.0,0
1553,-62.0,-194.0,-180.0,0
1554,-47.0,-187.0,-161.0,0
1555,-28.0,-186.0,-147.0,0
1556,-11.0,-188.0,-129.0,0
1557,8.0,-191.0,-121.0,0
1558,21.0,-193.0,-117.0,0
1559,37.0,-200.0,-116.0,0
1560,50.0,-206.0,-116.0,0
1561,58.0,-210.0,-117.0,0
1562,64.0,-211.0,-122.0,0
1563,65.0,-218.0,-123.0,0
1564,71.0,-215.0,-124.0,0
1565,61.0,-215.0,-119.0,0
1566,52.0,-214.0,-115.0,0
1567,46.0,-216.0,-111.0,0
1568,46.0,-209.0,-107.0,0
1569,35.0,-202.0,-102.0,0
1570,22.0,-198.0,-100.0,0
1571,19.0,-188.0,-101.0,0
1572,11.0,-179.0,-96.0,0
1573,9.0,-173.0,-97.0,0
1574,3.0,-160.0,-94.0,0
1575,-5.0,-162.0,-90.0,0
1576,-8.0,-154.0,-89.0,0
1577,-9.0,-154.0,-86.0,0
1578,-10.0,-157.0,-81.0,0
1579,-11.0,-153.0,-84.0,0
1580,-12.0,-149.0,-82.0,0
1581,-9.0,-143.0,-79.0,0
1582,-9.0,-146.0,-79.0,0
1583,-10.0,-143.0,-77.0,0
1584,-10.0,-143.0,-75.0,0
1585,-12.0,-149.0,-83.0,0
1586,-11.0,-148.0,-78.0,0
1587,-11.0,-153.0,-84.0,0
1588,-11.0,-159.0,-83.0,0
1589,-11.0,-158.0,-80.0,0
1590,-15.0,-165.0,-76.0,0
1591,-16.0,-175.0,-78.0,0
1592,-20.0,-180.0,-82.0,0
1593,-23.0,-188.0,-74.0,0
1594,-24.0,-195.0,-70.0,0
1595,-28.0,-200.0,-65.0,0
1596,-30.0,-208.0,-65.0,0
1597,-30.0,-217.0,-59.0,0
1598,-26.0,-221.0,-60.0,0
1599,-25.0,-227.0,-59.0,0
1600,-25.0,-229.0,-57.0,0
1601,-20.0,-233.0,-54.0,0
1602,-15.0,-236.0,-53.0,0
1603,-14.0,-240.0,-54.0,0
1604,-10.0,-237.0,-50.0,0
1605,-6.0,-236.0,-49.0,0
1606,-3.0,-241.0,-48.0,0
1607,-9.0,-239.0,-47.0,0
1608,1.0,-238.0,-48.0,0
1609,3.0,-229.0,-48.0,0
1610,5.0,-231.0,-48.0,0
1611,6.0,-229.0,-49.0,0
1612,9.0,-226.0,-52.0,0
1613,11.0,-227.0,-53.0,0
1614,18.0,-225.0,-46.0,0
1615,20.0,-225.0,-51.0,0
1616,21.0,-233.0,-49.0,0
1617,31.0,-232.0,-43.0,0
1618,30.0,-234.0,-50.0,0
1619,42.0,-239.0,-43.0,0
1620,41.0,-248.0,-45.0,0
1621,47.0,-251.0,-49.0,0
1622,51.0,-259.0,-45.0,0
1623,39.0,-261.0,-56.0,0
1624,29.0,-265.0,-59.0,0
1625,21.0,-264.0,-59.0,0
1626,12.0,-266.0,-57.0,0
1627,4.0,-262.0,-59.0,0
1628,-8.0,-263.0,-52.0,0
1629,-13.0,-262.0,-47.0,0
1630,-22.0,-261.0,-41.0,0
1631,-22.0,-265.0,-41.0,0
1632,-22.0,-263.0,-40.0,0
1633,-19.0,-267.0,-44.0,0
1634,-18.0,-265.0,-52.0,0
1635,-20.0,-267.0,-63.0,0
1636,-16.0,-275.0,-61.0,0
1637,-16.0,-286.0,-77.0,0
1638,-14.0,-296.0,-91.0,0
1639,-12.0,-308.0,-112.0,0
1640,6.0,-317.0,-130.0,0
1641,9.0,-321.0,-146.0,0
1642,14.0,-325.0,-163.0,0
1643,-3.0,-328.0,-167.0,0
1644,-18.0,-335.0,-160.0,0
1645,-42.0,-333.0,-158.0,0
1646,-47.0,-330.0,-151.0,0
1647,-47.0,-328.0,-158.0,0
1648,-52.0,-320.0,-178.0,0
1649,-56.0,-304.0,-185.0,0
1650,-57.0,-294.0,-193.0,0
1651,-59.0,-283.0,-202.0,0
1652,-65.0,-264.0,-211.0,0
1653,-62.0,-257.0,-214.0,0
1654,-46.0,-247.0,-212.0,0
1655,-26.0,-230.0,-203.0,0
1656,-9.0,-219.0,-192.0,0
1657,-2.0,-208.0,-189.0,0
1658,-1.0,-194.0,-186.0,0
1659,1.0,-188.0,-186.0,0
1660,13.0,-176.0,-178.0,0
1661,23.0,-180.0,-178.0,0
1662,45.0,-180.0,-170.0,0
1663,59.0,-181.0,-166.0,0
1664,60.0,-185.0,-160.0,0
1665,63.0,-193.0,-155.0,0
1666,64.0,-202.0,-149.0,0
1667,52.0,-210.0,-146.0,0
1668,45.0,-223.0,-143.0,0
1669,27.0,-233.0,-139.0,0
1670,15.0,-234.0,-133.0,0
1671,3.0,-235.0,-138.0,0
1672,-2.0,-238.0,-129.0,0
1673,-13.0,-235.0,-126.0,0
1674,-16.0,-228.0,-122.0,0
1675,-19.0,-224.0,-124.0,0
1676,-22.0,-221.0,-120.0,0
1677,-19.0,-213.0,-118.0,0
1678,-17.0,-213.0,-120.0,0
1679,-17.0,-205.0,-119.0,0
1680,-16.0,-197.0,-115.0,0
1681,-4.0,-193.0,-107.0,0
1682,-3.0,-192.0,-101.0,0
1683,2.0,-187.0,-105.0,0
1684,6.0,-180.0,-103.0,0
1685,13.0,-176.0,-97.0,0
1686,21.0,-177.0,-97.0,0
1687,23.0,-174.0,-93.0,0
1688,22.0,-173.0,-89.0,0
1689,25.0,-173.0,-85.0,0
1690,29.0,-171.0,-82.0,0
1691,28.0,-173.0,-83.0,0
1692,24.0,-170.0,-86.0,0
1693,23.0,-169.0,-81.0,0
1694,26.0,-170.0,-83.0,0
1695,22.0,-167.0,-78.0,0
1696,21.0,-162.0,-73.0,0
1697,20.0,-162.0,-76.0,0
1698,15.0,-159.0,-80.0,0
1699,18.0,-157.0,-76.0,0
1700,17.0,-157.0,-76.0,0
1701,15.0,-154.0,-82.0,0
1702,16.0,-155.0,-75.0,0
1703,16.0,-160.0,-83.0,0
1704,15.0,-165.0,-82.0,0
1705,19.0,-166.0,-91.0,0
1706,20.0,-171.0,-93.0,0
1707,23.0,-175.0,-94.0,0
1708,28.0,-178.0,-91.0,0
1709,29.0,-185.0,-95.0,0
1710,32.0,-191.0,-89.0,0
1711,32.0,-196.0,-84.0,0
1712,31.0,-202.0,-79.0,0
1713,31.0,-206.0,-78.0,0
1714,35.0,-213.0,-70.0,0
1715,35.0,-224.0,-79.0,0
1716,33.0,-226.0,-68.0,0
1717,35.0,-228.0,-63.0,0
1718,31.0,-237.0,-58.0,0
1719,30.0,-241.0,-48.0,0
1720,25.0,-248.0,-42.0,0
1721,23.0,-255.0,-36.0,0
1722,20.0,-259.0,-29.0,0
1723,11.0,-263.0,-26.0,0
1724,6.0,-268.0,-21.0,0
1725,-2.0,-276.0,-18.0,0
1726,-4.0,-277.0,-24.0,0
1727,-9.0,-269.0,-24.0,0
1728,-3.0,-262.0,-24.0,0
1729,-4.0,-255.0,-31.0,0
1730,0.0,-248.0,-34.0,0
1731,0.0,-241.0,-36.0,0
1732,4.0,-235.0,-38.0,0
1733,11.0,-231.0,-38.0,0
1734,19.0,-228.0,-37.0,0
1735,32.0,-219.0,-41.0,0
1736,35.0,-221.0,-46.0,0
1737,43.0,-218.0,-44.0,0
1738,49.0,-217.0,-47.0,0
1739,52.0,-219.0,-53.0,0
1740,53.0,-218.0,-59.0,0
1741,56.0,-220.0,-68.0,0
1742,56.0,-226.0,-73.0,0
1743,52.0,-234.0,-89.0,0
1744,50.0,-240.0,-99.0,0
1745,45.0,-243.0,-117.0,0
1746,44.0,-253.0,-132.0,0
1747,41.0,-265.0,-152.0,0
1748,41.0,-271.0,-174.0,0
1749,40.0,-283.0,-191.0,0
1750,46.0,-298.0,-205.0,0
1751,45.0,-311.0,-220.0,0
1752,45.0,-326.0,-217.0,0
1753,47.0,-344.0,-212.0,0
1754,47.0,-356.0,-202.0,0
1755,57.0,-361.0,-200.0,0
1756,55.0,-353.0,-200.0,0
1757,41.0,-341.0,-214.0,0
1758,22.0,-319.0,-208.0,0
1759,13.0,-309.0,-206.0,0
1760,7.0,-293.0,-204.0,0
1761,-3.0,-274.0,-190.0,0
1762,-21.0,-254.0,-179.0,0
1763,-39.0,-236.0,-171.0,0
1764,-59.0,-217.0,-173.0,0
1765,-74.0,-205.0,-175.0,0
1766,-88.0,-203.0,-177.0,0
1767,-101.0,-197.0,-183.0,0
1768,-97.0,-195.0,-191.0,0
1769,-100.0,-188.0,-190.0,0
1770,-87.0,-189.0,-192.0,0
1771,-65.0,-190.0,-183.0,0
1772,-45.0,-193.0,-169.0,0
1773,-19.0,-200.0,-159.0,0
1774,0.0,-202.0,-147.0,0
1775,12.0,-210.0,-137.0,0
1776,22.0,-217.0,-130.0,0
1777,35.0,-222.0,-126.0,0
1778,42.0,-226.0,-118.0,0
1779,43.0,-231.0,-124.0,0
1780,41.0,-234.0,-131.0,0
1781,47.0,-237.0,-127.0,0
1782,51.0,-242.0,-119.0,0
1783,47.0,-237.0,-121.0,0
1784,46.0,-239.0,-115.0,0
1785,48.0,-228.0,-110.0,0
1786,50.0,-224.0,-106.0,0
1787,42.0,-221.0,-102.0,0
1788,37.0,-212.0,-97.0,0
1789,29.0,-203.0,-93.0,0
1790,28.0,-197.0,-92.0,0
1791,16.0,-191.0,-98.0,0
1792,9.0,-182.0,-91.0,0
1793,7.0,-173.0,-96.0,0
1794,2.0,-168.0,-88.0,0
1795,1.0,-168.0,-89.0,0
1796,0.0,-163.0,-87.0,0
1797,0.0,-158.0,-82.0,0
1798,-2.0,-156.0,-69.0,0
1799,-2.0,-147.0,-75.0,0
1800,-2.0,-151.0,-67.0,0
1801,-4.0,-150.0,-65.0,0
1802,-4.0,-148.0,-62.0,0
1803,-7.0,-147.0,-61.0,0
1804,-10.0,-144.0,-60.0,0
1805,-9.0,-149.0,-58.0,0
1806,-15.0,-147.0,-61.0,0
1807,-16.0,-149.0,-63.0,0
1808,-17.0,-149.0,-63.0,0
1809,-16.0,-158.0,-64.0,0
1810,-22.0,-160.0,-68.0,0
1811,-19.0,-170.0,-69.0,0
1812,-27.0,-173.0,-71.0,0
1813,-29.0,-176.0,-73.0,0
1814,-30.0,-189.0,-75.0,0
1815,-28.0,-194.0,-70.0,0
1816,-24.0,-200.0,-65.0,0
1817,-16.0,-208.0,-64.0,0
1818,-1.0,-211.0,-62.0,0
1819,8.0,-219.0,-60.0,0
1820,17.0,-223.0,-55.0,0
1821,24.0,-228.0,-57.0,0
1822,27.0,-233.0,-54.0,0
1823,31.0,-236.0,-42.0,0
1824,43.0,-242.0,-47.0,0
1825,45.0,-250.0,-45.0,0
1826,45.0,-250.0,-39.0,0
1827,46.0,-251.0,-40.0,0
1828,47.0,-255.0,-38.0,0
1829,38.0,-255.0,-42.0,0
1830,44.0,-255.0,-50.0,0
1831,24.0,-253.0,-46.0,0
1832,14.0,-250.0,-58.0,0
1833,5.0,-243.0,-58.0,0
1834,-7.0,-239.0,-59.0,0
1835,-14.0,-238.0,-62.0,0
1836,-25.0,-235.0,-62.0,0
1837,-27.0,-237.0,-60.0,0
1838,-28.0,-239.0,-62.0,0
1839,-31.0,-244.0,-61.0,0
1840,-24.0,-248.0,-60.0,0
1841,-14.0,-253.0,-63.0,0
1842,-12.0,-257.0,-66.0,0
1843,-2.0,-258.0,-72.0,0
1844,1.0,-263.0,-85.0,0
1845,-2.0,-273.0,-99.0,0
1846,-3.0,-287.0,-109.0,0
1847,-1.0,-307.0,-110.0,0
1848,4.0,-327.0,-124.0,0
1849,13.0,-348.0,-146.0,0
1850,20.0,-356.0,-168.0,0
1851,17.0,-362.0,-193.0,0
1852,17.0,-362.0,-209.0,0
1853,11.0,-357.0,-226.0,0
1854,-3.0,-344.0,-223.0,0
1855,-20.0,-337.0,-225.0,0
1856,-30.0,-315.0,-224.0,0
1857,-39.0,-309.0,-207.0,0
1858,-47.0,-294.0,-197.0,0
1859,-51.0,-270.0,-195.0,0
1860,-52.0,-230.0,-200.0,0
1861,-49.0,-203.0,-194.0,0
1862,-34.0,-175.0,-188.0,0
1863,-20.0,-161.0,-174.0,0
1864,-2.0,-151.0,-171.0,0
1865,-1.0,-142.0,-167.0,0
1866,9.0,-132.0,-169.0,0
1867,20.0,-125.0,-173.0,0
1868,36.0,-126.0,-166.0,0
1869,57.0,-132.0,-151.0,0
1870,63.0,-143.0,-146.0,0
1871,62.0,-156.0,-142.0,0
1872,62.0,-173.0,-138.0,0
1873,55.0,-181.0,-138.0,0
1874,39.0,-193.0,-139.0,0
1875,32.0,-208.0,-140.0,0
1876,21.0,-224.0,-137.0,0
1877,10.0,-233.0,-141.0,0
1878,3.0,-243.0,-140.0,0
1879,-7.0,-251.0,-137.0,0
1880,-14.0,-254.0,-142.0,0
1881,-14.0,-253.0,-142.0,0
1882,-13.0,-254.0,-135.0,0
1883,1.0,-248.0,-131.0,0
1884,1.0,-244.0,-128.0,0
1885,6.0,-237.0,-122.0,0
1886,9.0,-225.0,-118.0,0
1887,5.0,-215.0,-117.0,0
1888,21.0,-201.0,-111.0,0
1889,28.0,-196.0,-108.0,0
1890,31.0,-189.0,-104.0,0
1891,31.0,-180.0,-99.0,0
1892,37.0,-173.0,-97.0,0
1893,38.0,-168.0,-92.0,0
1894,39.0,-166.0,-85.0,0
1895,40.0,-166.0,-89.0,0
1896,34.0,-167.0,-91.0,0
1897,32.0,-168.0,-88.0,0
1898,31.0,-161.0,-84.0,0
1899,28.0,-168.0,-87.0,0
1900,31.0,-162.0,-85.0,0
1901,38.0,-169.0,-86.0,0
1902,47.0,-164.0,-87.0,0
1903,58.0,-177.0,-82.0,0
1904,67.0,-183.0,-79.0,0
1905,77.0,-197.0,-81.0,0
1906,78.0,-206.0,-88.0,0
1907,66.0,-227.0,-89.0,0
1908,43.0,-247.0,-93.0,0
1909,40.0,-252.0,-101.0,0
1910,16.0,-270.0,-108.0,0
1911,-13.0,-288.0,-104.0,0
1912,-48.0,-318.0,-89.0,0
1913,-80.0,-342.0,-66.0,0
1914,-71.0,-349.0,-69.0,0
1915,-47.0,-348.0,-77.0,0
1916,-45.0,-352.0,-81.0,0
1917,-40.0,-352.0,-84.0,0
1918,-38.0,-342.0,-78.0,0
1919,-34.0,-320.0,-68.0,0
1920,-32.0,-298.0,-48.0,0
1921,-28.0,-255.0,-39.0,0
1922,-27.0,-207.0,-33.0,0
1923,-22.0,-161.0,-39.0,0
1924,-12.0,-117.0,-61.0,0
1925,-8.0,-82.0,-78.0,0
1926,4.0,-52.0,-109.0,0
1927,16.0,-30.0,-134.0,0
1928,16.0,-15.0,-177.0,0
1929,15.0,-6.0,-211.0,0
1930,23.0,-17.0,-225.0,0
1931,21.0,-38.0,-230.0,0
1932,25.0,-74.0,-230.0,0
1933,30.0,-115.0,-228.0,0
1934,39.0,-146.0,-243.0,0
1935,35.0,-161.0,-253.0,0
1936,25.0,-169.0,-276.0,0
1937,7.0,-182.0,-278.0,0
1938,-8.0,-192.0,-259.0,0
1939,-13.0,-199.0,-242.0,1
1940,-10.0,-207.0,-226.0,1
1941,-14.0,-201.0,-210.0,1
1942,-17.0,-180.0,-231.0,1
1943,-22.0,-166.0,-252.0,1
1944,-21.0,-161.0,-260.0,1
1945,-25.0,-164.0,-259.0,1
1946,-17.0,-165.0,-268.0,1
1947,-2.0,-165.0,-287.0,1
1948,22.0,-165.0,-321.0,1
1949,46.0,-154.0,-367.0,1
1950,59.0,-138.0,-387.0,1
1951,80.0,-131.0,-409.0,1
1952,81.0,-125.0,-409.0,1
1953,100.0,-97.0,-410.0,1
1954,76.0,-121.0,-376.0,1
1955,74.0,-106.0,-380.0,1
1956,64.0,-112.0,-370.0,1
1957,52.0,-116.0,-352.0,1
1958,44.0,-131.0,-323.0,1
1959,42.0,-142.0,-283.0,1
1960,17.0,-174.0,-231.0,1
1961,19.0,-197.0,-190.0,1
1962,-4.0,-218.0,-140.0,1
1963,-5.0,-232.0,-110.0,1
1964,-1.0,-241.0,-66.0,1
1965,-20.0,-258.0,-28.0,1
1966,-8.0,-260.0,-13.0,1
1967,4.0,-263.0,3.0,1
1968,11.0,-250.0,19.0,1
1969,16.0,-240.0,39.0,1
1970,37.0,-225.0,39.0,1
1971,33.0,-233.0,49.0,1
1972,28.0,-229.0,51.0,1
1973,8.0,-226.0,52.0,1
1974,-13.0,-216.0,66.0,1
1975,-45.0,-199.0,72.0,1
1976,-73.0,-187.0,71.0,1
1977,-122.0,-166.0,50.0,1
1978,-163.0,-154.0,24.0,1
1979,-179.0,-154.0,6.0,1
1980,-188.0,-161.0,18.0,1
1981,-180.0,-160.0,34.0,1
1982,-165.0,-147.0,63.0,1
1983,-135.0,-138.0,88.0,1
1984,-81.0,-117.0,95.0,1
1985,-46.0,-98.0,101.0,1
1986,1.0,-54.0,100.0,1
1987,44.0,-23.0,97.0,1
1988,67.0,33.0,57.0,1
1989,102.0,104.0,4.0,1
1990,118.0,137.0,-40.0,1
1991,131.0,163.0,-72.0,1
1992,117.0,169.0,-97.0,1
1993,77.0,173.0,-128.0,1
1994,28.0,171.0,-174.0,1
1995,-5.0,148.0,-218.0,1
1996,-29.0,105.0,-244.0,1
1997,-22.0,73.0,-272.0,1
1998,-14.0,45.0,-319.0,1
1999,-34.0,20.0,-368.0,1
2000,-64.0,2.0,-408.0,1
2001,-100.0,0.0,-432.0,1
2002,-124.0,-14.0,-431.0,1
2003,-121.0,-14.0,-444.0,1
2004,-115.0,-25.0,-435.0,1
2005,-75.0,-34.0,-437.0,1
2006,-44.0,-34.0,-436.0,1
2007,-30.0,-44.0,-420.0,1
2008,1.0,-52.0,-418.0,1
2009,18.0,-64.0,-424.0,1
2010,51.0,-62.0,-427.0,1
2011,57.0,-58.0,-429.0,1
2012,53.0,-52.0,-417.0,1
2013,44.0,-47.0,-418.0,1
2014,36.0,-40.0,-402.0,1
2015,30.0,-36.0,-395.0,1
2016,26.0,-41.0,-378.0,1
2017,21.0,-45.0,-371.0,1
2018,13.0,-43.0,-362.0,1
2019,-13.0,-49.0,-361.0,1
2020,-40.0,-53.0,-346.0,1
2021,-41.0,-60.0,-348.0,1
2022,-51.0,-85.0,-354.0,1
2023,-55.0,-101.0,-341.0,1
2024,-46.0,-127.0,-345.0,1
2025,-34.0,-143.0,-341.0,1
2026,-29.0,-142.0,-335.0,1
2027,-16.0,-141.0,-310.0,1
2028,-2.0,-143.0,-299.0,1
2029,2.0,-139.0,-267.0,1
2030,10.0,-137.0,-235.0,1
2031,13.0,-141.0,-211.0,1
2032,15.0,-140.0,-181.0,1
2033,21.0,-147.0,-171.0,1
2034,34.0,-147.0,-161.0,1
2035,12.0,-128.0,-153.0,1
2036,13.0,-128.0,-151.0,1
2037,14.0,-127.0,-139.0,1
2038,0.0,-115.0,-141.0,1
2039,-16.0,-117.0,-132.0,1
2040,-29.0,-104.0,-134.0,1
2041,-40.0,-105.0,-134.0,1
2042,-51.0,-101.0,-141.0,1
2043,-47.0,-101.0,-146.0,1
2044,-49.0,-99.0,-154.0,1
2045,-35.0,-96.0,-176.0,1
2046,-69.0,-77.0,-178.0,1
2047,-63.0,-67.0,-190.0,1
2048,-66.0,-57.0,-198.0,1
2049,-76.0,-45.0,-202.0,1
2050,-87.0,-42.0,-205.0,1
2051,-91.0,-38.0,-204.0,1
2052,-91.0,-29.0,-213.0,1
2053,-94.0,-12.0,-223.0,1
2054,-94.0,-2.0,-227.0,1
2055,-92.0,7.0,-238.0,1
2056,-90.0,21.0,-252.0,1
2057,-88.0,24.0,-253.0,1
2058,-88.0,25.0,-253.0,1
2059,-92.0,30.0,-257.0,1
2060,-106.0,33.0,-265.0,1
2061,-114.0,40.0,-272.0,1
2062,-131.0,47.0,-283.0,1
2063,-154.0,50.0,-284.0,1
2064,-154.0,48.0,-287.0,1
2065,-158.0,46.0,-292.0,1
2066,-136.0,55.0,-309.0,1
2067,-128.0,71.0,-324.0,1
2068,-139.0,44.0,-329.0,1
2069,-147.0,74.0,-350.0,1
2070,-152.0,97.0,-365.0,1
2071,-176.0,119.0,-386.0,1
2072,-209.0,108.0,-390.0,1
2073,-216.0,109.0,-404.0,1
2074,-218.0,63.0,-394.0,1
2075,-258.0,36.0,-411.0,1
2076,-224.0,51.0,-434.0,1
2077,-195.0,55.0,-436.0,1
2078,-164.0,52.0,-421.0,1
2079,-189.0,5.0,-391.0,1
2080,-159.0,46.0,-430.0,1
2081,-152.0,64.0,-427.0,1
2082,-123.0,66.0,-420.0,1
2083,-87.0,63.0,-432.0,1
2084,-72.0,12.0,-372.0,1
2085,-42.0,-7.0,-372.0,1
2086,-9.0,-41.0,-310.0,1
2087,26.0,-41.0,-267.0,1
2088,55.0,-45.0,-228.0,1
2089,72.0,-25.0,-198.0,1
2090,91.0,-22.0,-173.0,1
2091,104.0,-30.0,-121.0,1
2092,108.0,-17.0,-101.0,1
2093,115.0,1.0,-53.0,1
2094,126.0,3.0,-47.0,1
2095,133.0,9.0,-35.0,1
2096,164.0,20.0,-36.0,1
2097,200.0,13.0,-30.0,1
2098,217.0,-10.0,-36.0,1
2099,256.0,2.0,-19.0,1
2100,268.0,0.0,-22.0,1
2101,265.0,-1.0,-29.0,1
2102,245.0,1.0,-52.0,1
2103,208.0,9.0,-66.0,1
2104,168.0,12.0,-65.0,1
2105,143.0,22.0,-65.0,1
2106,122.0,22.0,-50.0,1
2107,107.0,33.0,-33.0,1
2108,83.0,51.0,-29.0,1
2109,60.0,74.0,-37.0,1
2110,23.0,94.0,-32.0,1
2111,-5.0,115.0,-26.0,1
2112,-35.0,113.0,-12.0,1
2113,-54.0,112.0,-3.0,1
2114,-60.0,108.0,-6.0,2
2115,-59.0,118.0,-16.0,2
2116,-43.0,126.0,-24.0,2
2117,-12.0,142.0,-38.0,2
2118,24.0,153.0,-65.0,2
2119,68.0,156.0,-114.0,2
2120,110.0,172.0,-141.0,2
2121,137.0,184.0,-145.0,2
2122,157.0,197.0,-132.0,2
2123,177.0,213.0,-136.0,2
2124,172.0,224.0,-154.0,2
2125,161.0,214.0,-169.0,2
2126,167.0,223.0,-191.0,2
2127,131.0,219.0,-199.0,2
2128,124.0,206.0,-207.0,2
2129,120.0,200.0,-224.0,2
2130,132.0,200.0,-232.0,2
2131,138.0,195.0,-230.0,2
2132,157.0,197.0,-249.0,2
2133,176.0,191.0,-236.0,2
2134,169.0,183.0,-200.0,2
2135,169.0,179.0,-172.0,2
2136,160.0,178.0,-157.0,2
2137,166.0,174.0,-162.0,2
2138,178.0,171.0,-176.0,2
2139,174.0,182.0,-185.0,2
2140,164.0,182.0,-177.0,2
2141,151.0,172.0,-168.0,2
2142,147.0,160.0,-172.0,2
2143,137.0,143.0,-168.0,2
2144,121.0,126.0,-174.0,2
2145,92.0,102.0,-169.0,2
2146,40.0,69.0,-148.0,2
2147,1.0,47.0,-128.0,2
2148,-33.0,21.0,-110.0,2
2149,-56.0,-3.0,-115.0,2
2150,-66.0,-26.0,-144.0,2
2151,-60.0,-33.0,-163.0,2
2152,-39.0,-32.0,-155.0,2
2153,-15.0,-38.0,-122.0,2
2154,30.0,-38.0,-90.0,2
2155,64.0,-28.0,-107.0,2
2156,128.0,-50.0,-80.0,2
2157,160.0,-52.0,-73.0,2
2158,398.0,88.0,-250.0,2
2159,58.0,7.0,-170.0,2
2160,357.0,450.0,-474.0,2
2161,304.0,138.0,-201.0,2
2162,503.0,230.0,-335.0,2
2163,398.0,361.0,-522.0,2
2164,235.0,768.0,-593.0,2
2165,388.0,343.0,-281.0,2
2166,408.0,324.0,-464.0,2
2167,454.0,376.0,-662.0,2
2168,465.0,348.0,-700.0,2
2169,341.0,612.0,-721.0,2
2170,365.0,607.0,-669.0,2
2171,369.0,576.0,-686.0,2
2172,383.0,309.0,-614.0,2
2173,337.0,254.0,-575.0,2
2174,321.0,178.0,-478.0,2
2175,216.0,222.0,-511.0,2
2176,166.0,192.0,-517.0,2
2177,119.0,171.0,-529.0,2
2178,144.0,157.0,-519.0,2
2179,130.0,116.0,-471.0,2
2180,160.0,145.0,-432.0,2
2181,167.0,138.0,-355.0,2
2182,175.0,145.0,-306.0,2
2183,215.0,158.0,-266.0,2
2184,222.0,205.0,-280.0,2
2185,204.0,240.0,-285.0,2
2186,181.0,217.0,-256.0,2
2187,153.0,205.0,-252.0,2
2188,137.0,212.0,-256.0,2
2189,121.0,189.0,-239.0,2
2190,99.0,187.0,-239.0,2
2191,81.0,162.0,-222.0,2
2192,67.0,194.0,-251.0,2
2193,45.0,191.0,-256.0,2
2194,16.0,190.0,-215.0,2
2195,-9.0,174.0,-176.0,2
2196,-46.0,171.0,-141.0,2
2197,-51.0,198.0,-134.0,2
2198,-67.0,195.0,-115.0,2
2199,-75.0,146.0,-99.0,2
2200,-102.0,115.0,-98.0,2
2201,-117.0,100.0,-102.0,2
2202,-118.0,96.0,-116.0,2
2203,-131.0,91.0,-109.0,2
2204,-111.0,114.0,-114.0,2
2205,-68.0,90.0,-117.0,2
2206,-53.0,90.0,-129.0,2
2207,-15.0,95.0,-128.0,2
2208,13.0,105.0,-137.0,2
2209,38.0,108.0,-135.0,1
2210,58.0,108.0,-146.0,1
2211,80.0,107.0,-156.0,1
2212,88.0,125.0,-173.0,1
2213,93.0,130.0,-178.0,1
2214,94.0,135.0,-177.0,1
2215,84.0,143.0,-174.0,1
2216,70.0,143.0,-170.0,1
2217,51.0,138.0,-162.0,1
2218,24.0,143.0,-160.0,1
2219,9.0,132.0,-156.0,1
2220,-4.0,93.0,-140.0,1
2221,-13.0,95.0,-156.0,1
2222,-15.0,76.0,-154.0,1
2223,-19.0,71.0,-157.0,1
2224,-13.0,68.0,-161.0,1
2225,0.0,74.0,-173.0,1
2226,-5.0,75.0,-183.0,1
2227,-9.0,93.0,-187.0,1
2228,-12.0,90.0,-188.0,1
2229,-10.0,101.0,-196.0,1
2230,-27.0,126.0,-201.0,1
2231,-30.0,158.0,-207.0,1
2232,-33.0,163.0,-211.0,1
2233,-18.0,146.0,-190.0,1
2234,-54.0,181.0,-208.0,1
2235,34.0,187.0,-214.0,1
2236,-6.0,184.0,-234.0,1
2237,-17.0,145.0,-212.0,1
2238,32.0,118.0,-204.0,1
2239,-52.0,93.0,-214.0,1
2240,-2.0,139.0,-247.0,1
2241,-18.0,90.0,-257.0,1
2242,-27.0,65.0,-263.0,1
2243,-30.0,80.0,-281.0,1
2244,-14.0,39.0,-293.0,1
2245,-34.0,39.0,-301.0,1
2246,-19.0,4.0,-280.0,1
2247,-41.0,24.0,-289.0,1
2248,-39.0,26.0,-297.0,1
2249,-37.0,11.0,-288.0,1
2250,-26.0,12.0,-289.0,1
2251,-25.0,17.0,-297.0,1
2252,-2.0,30.0,-302.0,1
2253,5.0,41.0,-308.0,1
2254,1.0,62.0,-305.0,1
2255,17.0,59.0,-302.0,1
2256,32.0,65.0,-294.0,1
2257,34.0,70.0,-292.0,1
2258,19.0,64.0,-300.0,1
2259,29.0,62.0,-295.0,1
2260,23.0,72.0,-297.0,1
2261,8.0,59.0,-291.0,1
2262,-13.0,46.0,-297.0,1
2263,19.0,43.0,-288.0,1
2264,8.0,44.0,-301.0,1
2265,20.0,34.0,-300.0,1
2266,16.0,33.0,-298.0,1
2267,14.0,43.0,-295.0,1
2268,26.0,46.0,-286.0,1
2269,12.0,43.0,-281.0,1
2270,10.0,37.0,-279.0,1
2271,16.0,44.0,-284.0,1
2272,6.0,48.0,-270.0,1
2273,3.0,53.0,-274.0,1
2274,10.0,54.0,-261.0,1
2275,4.0,54.0,-263.0,1
2276,5.0,61.0,-260.0,1
2277,8.0,54.0,-255.0,1
2278,8.0,63.0,-265.0,1
2279,13.0,58.0,-257.0,1
2280,20.0,58.0,-250.0,1
2281,23.0,60.0,-258.0,1
2282,25.0,54.0,-229.0,0
2283,21.0,52.0,-236.0,0
2284,19.0,52.0,-216.0,0
2285,24.0,52.0,-218.0,0
2286,24.0,49.0,-214.0,0
2287,25.0,45.0,-217.0,0
2288,11.0,36.0,-217.0,0
2289,-31.0,35.0,-213.0,0
2290,-8.0,35.0,-218.0,0
2291,-7.0,32.0,-211.0,0
2292,5.0,21.0,-213.0,0
2293,0.0,19.0,-217.0,0
2294,-3.0,22.0,-221.0,0
2295,1.0,28.0,-217.0,0
2296,-11.0,23.0,-218.0,0
2297,-14.0,23.0,-217.0,0
2298,-17.0,19.0,-216.0,0
2299,-14.0,9.0,-205.0,0
2300,-13.0,13.0,-211.0,0
2301,-13.0,14.0,-212.0,0
2302,-4.0,16.0,-214.0,0
2303,-9.0,16.0,-218.0,0
2304,-7.0,19.0,-222.0,0
2305,-10.0,21.0,-225.0,0
2306,-7.0,14.0,-232.0,0
2307,-8.0,18.0,-232.0,0
2308,-11.0,14.0,-232.0,0
2309,-17.0,14.0,-241.0,0
2310,-8.0,31.0,-242.0,0
2311,-5.0,25.0,-238.0,0
2312,-17.0,25.0,-238.0,0
2313,-25.0,19.0,-250.0,0
2314,-27.0,13.0,-246.0,0
2315,-23.0,14.0,-244.0,0
2316,-21.0,20.0,-250.0,0
2317,-33.0,19.0,-250.0,0
2318,-14.0,20.0,-247.0,0
2319,-21.0,25.0,-255.0,0
2320,-21.0,16.0,-253.0,0
2321,-23.0,22.0,-255.0,0
2322,-14.0,25.0,-256.0,0
2323,-11.0,25.0,-258.0,0
2324,-17.0,28.0,-256.0,0
2325,-12.0,31.0,-254.0,0
2326,-7.0,27.0,-261.0,0
2327,-5.0,27.0,-255.0,0
2328,-6.0,28.0,-251.0,0
2329,0.0,28.0,-257.0,0
2330,-2.0,27.0,-257.0,0
2331,-2.0,28.0,-256.0,0
2332,-6.0,31.0,-255.0,0
2333,0.0,26.0,-258.0,0
2334,2.0,23.0,-259.0,0
2335,-9.0,29.0,-266.0,0
2336,-13.0,25.0,-271.0,0
2337,-12.0,29.0,-268.0,0
2338,-3.0,27.0,-267.0,0
2339,-6.0,24.0,-270.0,0
2340,0.0,28.0,-270.0,0
2341,0.0,30.0,-275.0,0
2342,-1.0,33.0,-278.0,0
2343,1.0,35.0,-278.0,0
2344,0.0,35.0,-274.0,0
2345,1.0,36.0,-276.0,0
2346,0.0,37.0,-275.0,0
2347,4.0,33.0,-280.0,0
2348,2.0,35.0,-279.0,0
2349,3.0,32.0,-275.0,0
2350,0.0,31.0,-272.0,0
2351,1.0,35.0,-271.0,0
2352,3.0,31.0,-271.0,0
2353,2.0,36.0,-268.0,0
2354,0.0,30.0,-266.0,0
2355,1.0,32.0,-261.0,0
2356,4.0,27.0,-263.0,0
2357,3.0,31.0,-259.0,0
2358,0.0,35.0,-267.0,0
2359,7.0,37.0,-260.0,0
2360,1.0,43.0,-271.0,0
2361,5.0,35.0,-258.0,0
2362,7.0,34.0,-260.0,0
2363,2.0,36.0,-260.0,0
2364,5.0,31.0,-262.0,0
2365,7.0,34.0,-265.0,0
2366,6.0,37.0,-256.0,0
2367,7.0,35.0,-254.0,0
2368,11.0,30.0,-247.0,0
2369,4.0,39.0,-248.0,0
2370,7.0,30.0,-243.0,0
2371,0.0,31.0,-252.0,0
2372,3.0,32.0,-248.0,0
2373,5.0,35.0,-249.0,0
2374,17.0,43.0,-245.0,0
2375,3.0,34.0,-241.0,0
2376,8.0,29.0,-237.0,0
2377,8.0,29.0,-241.0,0
2378,8.0,32.0,-240.0,0
2379,10.0,37.0,-247.0,0
2380,8.0,30.0,-242.0,0
2381,12.0,28.0,-242.0,0
2382,7.0,27.0,-241.0,0
2383,10.0,37.0,-243.0,0
2384,15.0,49.0,-239.0,0
2385,13.0,41.0,-232.0,0
2386,10.0,36.0,-229.0,0
2387,10.0,32.0,-229.0,0
2388,29.0,45.0,-240.0,0
2389,24.0,40.0,-233.0,0
2390,4.0,29.0,-226.0,0
2391,19.0,32.0,-221.0,0
2392,22.0,37.0,-228.0,0
2393,10.0,24.0,-225.0,0
2394,15.0,22.0,-231.0,0
2395,25.0,30.0,-230.0,0
2396,32.0,41.0,-235.0,0
2397,28.0,35.0,-232.0,0
2398,18.0,31.0,-234.0,0
2399,25.0,21.0,-228.0,0
2400,26.0,26.0,-229.0,0
2401,35.0,26.0,-235.0,0
2402,29.0,26.0,-239.0,0
2403,27.0,29.0,-231.0,0
2404,27.0,31.0,-234.0,0
2405,29.0,28.0,-233.0,0
2406,32.0,32.0,-234.0,0
2407,33.0,30.0,-236.0,0
2408,31.0,30.0,-238.0,0
2409,34.0,26.0,-239.0,0
2410,35.0,29.0,-239.0,0
2411,31.0,26.0,-240.0,0
2412,29.0,18.0,-246.0,0
2413,29.0,29.0,-240.0,0
2414,30.0,29.0,-240.0,0
2415,32.0,29.0,-247.0,0
2416,33.0,26.0,-245.0,0
2417,35.0,31.0,-250.0,0
2418,39.0,28.0,-246.0,0
2419,38.0,27.0,-250.0,0
2420,36.0,32.0,-252.0,0
2421,35.0,27.0,-251.0,0
2422,38.0,30.0,-254.0,0
2423,38.0,32.0,-253.0,0
2424,40.0,28.0,-251.0,0
2425,36.0,28.0,-248.0,0
2426,36.0,29.0,-253.0,0
2427,37.0,29.0,-256.0,0
2428,36.0,26.0,-253.0,0
2429,36.0,26.0,-253.0,0
2430,35.0,23.0,-252.0,0
2431,37.0,28.0,-254.0,0
2432,39.0,27.0,-253.0,0
2433,38.0,26.0,-253.0,0
2434,38.0,33.0,-255.0,0
2435,38.0,30.0,-254.0,0
2436,41.0,28.0,-257.0,0
2437,36.0,28.0,-254.0,0
2438,38.0,30.0,-256.0,0
2439,38.0,27.0,-256.0,0
2440,34.0,30.0,-254.0,0
2441,36.0,34.0,-250.0,0
2442,37.0,26.0,-249.0,0
2443,39.0,24.0,-255.0,0
2444,40.0,36.0,-253.0,0
2445,39.0,29.0,-253.0,0
2446,42.0,30.0,-256.0,0
2447,37.0,31.0,-255.0,0
2448,37.0,32.0,-254.0,0
2449,37.0,28.0,-255.0,0
2450,38.0,31.0,-254.0,0
2451,40.0,30.0,-251.0,0
2452,34.0,30.0,-251.0,0
2453,32.0,30.0,-252.0,0
2454,39.0,27.0,-250.0,0
2455,30.0,29.0,-247.0,0
2456,31.0,28.0,-246.0,0
2457,37.0,24.0,-244.0,0
2458,35.0,26.0,-246.0,0
2459,38.0,28.0,-246.0,0
2460,32.0,28.0,-248.0,0
2461,32.0,28.0,-247.0,0
2462,34.0,28.0,-248.0,0
2463,32.0,27.0,-245.0,0
2464,35.0,31.0,-246.0,0
2465,38.0,26.0,-245.0,0
2466,32.0,32.0,-250.0,0
2467,35.0,31.0,-247.0,0
2468,33.0,28.0,-243.0,0
2469,40.0,26.0,-243.0,0
2470,34.0,28.0,-245.0,0
2471,34.0,28.0,-241.0,0
2472,37.0,28.0,-242.0,0
2473,34.0,30.0,-243.0,0
2474,32.0,27.0,-243.0,0
2475,31.0,29.0,-240.0,0
2476,34.0,31.0,-244.0,0
2477,30.0,23.0,-249.0,0
2478,31.0,26.0,-242.0,0
2479,35.0,28.0,-243.0,0
2480,35.0,26.0,-243.0,0
2481,34.0,29.0,-246.0,0
2482,35.0,27.0,-245.0,0
2483,35.0,26.0,-248.0,0
2484,33.0,26.0,-244.0,0
2485,32.0,28.0,-245.0,0
2486,32.0,25.0,-241.0,0
2487,38.0,24.0,-242.0,0
2488,33.0,23.0,-244.0,0
2489,34.0,24.0,-249.0,0
2490,34.0,25.0,-245.0,0
2491,32.0,23.0,-245.0,0
2492,32.0,27.0,-248.0,0
2493,33.0,25.0,-246.0,0
2494,30.0,26.0,-247.0,0
2495,35.0,23.0,-251.0,0
2496,33.0,25.0,-250.0,0
2497,37.0,26.0,-251.0,0
2498,37.0,31.0,-253.0,0
2499,32.0,28.0,-252.0,0
2500,33.0,28.0,-252.0,0
2501,32.0,26.0,-253.0,0
2502,36.0,25.0,-253.0,0
2503,34.0,25.0,-250.0,0
2504,35.0,24.0,-249.0,0
2505,32.0,24.0,-249.0,0
2506,35.0,27.0,-252.0,0
2507,34.0,30.0,-254.0,0
2508,35.0,26.0,-247.0,0
2509,35.0,28.0,-247.0,0
2510,33.0,27.0,-251.0,0
2511,36.0,28.0,-249.0,0
2512,36.0,28.0,-252.0,0
2513,38.0,26.0,-250.0,0
2514,35.0,25.0,-251.0,0
2515,35.0,28.0,-247.0,0
2516,33.0,25.0,-250.0,0
2517,38.0,24.0,-249.0,0
2518,33.0,29.0,-248.0,0
2519,36.0,25.0,-250.0,0
2520,33.0,28.0,-249.0,0
2521,37.0,27.0,-247.0,0
2522,37.0,22.0,-246.0,0
2523,34.0,25.0,-245.0,0
2524,36.0,26.0,-246.0,0
2525,33.0,26.0,-249.0,0
2526,34.0,26.0,-251.0,0
2527,34.0,26.0,-247.0,0
2528,33.0,25.0,-249.0,0
2529,31.0,30.0,-245.0,0
2530,40.0,28.0,-251.0,0
2531,35.0,25.0,-248.0,0
2532,35.0,28.0,-246.0,0
2533,34.0,24.0,-247.0,0
2534,33.0,28.0,-241.0,0
2535,36.0,25.0,-242.0,0
2536,36.0,24.0,-243.0,0
2537,31.0,26.0,-241.0,0
2538,38.0,27.0,-242.0,0
2539,33.0,26.0,-247.0,0
2540,38.0,27.0,-244.0,0
2541,35.0,27.0,-244.0,0
2542,34.0,25.0,-246.0,0
2543,34.0,25.0,-242.0,0
2544,34.0,26.0,-244.0,0
2545,32.0,25.0,-245.0,0
2546,37.0,25.0,-247.0,0
2547,37.0,24.0,-244.0,0
2548,32.0,26.0,-245.0,0
2549,37.0,25.0,-242.0,0
2550,35.0,24.0,-247.0,0
2551,36.0,25.0,-243.0,0
2552,34.0,20.0,-244.0,0
2553,34.0,26.0,-250.0,0
2554,37.0,26.0,-250.0,0
2555,34.0,25.0,-250.0,0
2556,36.0,27.0,-246.0,0
2557,34.0,29.0,-248.0,0
2558,38.0,25.0,-245.0,0
2559,39.0,24.0,-245.0,0
2560,36.0,24.0,-249.0,0
2561,38.0,26.0,-246.0,0
2562,34.0,27.0,-252.0,0
2563,35.0,26.0,-251.0,0
2564,37.0,26.0,-247.0,0
2565,34.0,27.0,-249.0,0
2566,35.0,23.0,-247.0,0
2567,38.0,24.0,-248.0,0
2568,36.0,25.0,-249.0,0
2569,40.0,26.0,-246.0,0
2570,39.0,24.0,-253.0,0
2571,36.0,25.0,-247.0,0
2572,35.0,24.0,-252.0,0
2573,34.0,24.0,-252.0,0
2574,35.0,26.0,-252.0,0
2575,39.0,22.0,-251.0,0
2576,37.0,26.0,-252.0,0
2577,37.0,25.0,-250.0,0
2578,35.0,24.0,-249.0,0
2579,36.0,26.0,-251.0,0
2580,37.0,25.0,-251.0,0
2581,32.0,30.0,-250.0,0
2582,33.0,25.0,-250.0,0
2583,34.0,26.0,-250.0,0
2584,38.0,33.0,-248.0,0
2585,36.0,24.0,-248.0,0
2586,39.0,20.0,-246.0,0
2587,36.0,27.0,-246.0,0
2588,34.0,24.0,-248.0,0
2589,36.0,25.0,-248.0,0
2590,33.0,27.0,-250.0,0
2591,34.0,25.0,-247.0,0
2592,36.0,24.0,-252.0,0
2593,37.0,25.0,-251.0,0
2594,38.0,28.0,-247.0,0
2595,34.0,26.0,-245.0,0
2596,36.0,24.0,-248.0,0
2597,34.0,26.0,-248.0,0
2598,36.0,24.0,-243.0,0
2599,34.0,25.0,-245.0,0
2600,34.0,26.0,-247.0,0
2601,40.0,23.0,-242.0,0
2602,38.0,19.0,-248.0,0
2603,40.0,19.0,-242.0,0
2604,35.0,22.0,-245.0,0
2605,36.0,22.0,-248.0,0
2606,35.0,24.0,-242.0,0
2607,37.0,22.0,-244.0,0
2608,37.0,26.0,-243.0,0
2609,36.0,22.0,-241.0,0
2610,37.0,23.0,-248.0,0
2611,39.0,23.0,-247.0,0
2612,35.0,23.0,-249.0,0
2613,40.0,24.0,-247.0,0
2614,38.0,27.0,-247.0,0
2615,41.0,24.0,-246.0,0
2616,33.0,18.0,-246.0,0
2617,35.0,23.0,-243.0,0
2618,34.0,23.0,-247.0,0
2619,36.0,23.0,-245.0,0
2620,38.0,22.0,-247.0,0
2621,37.0,21.0,-245.0,0
2622,35.0,25.0,-247.0,0
2623,35.0,24.0,-248.0,0
2624,38.0,25.0,-249.0,0
2625,37.0,20.0,-250.0,0
2626,38.0,22.0,-245.0,0
2627,33.0,23.0,-246.0,0
2628,40.0,22.0,-252.0,0
2629,39.0,24.0,-250.0,0
2630,39.0,21.0,-251.0,0
2631,37.0,25.0,-253.0,0
2632,41.0,21.0,-252.0,0
2633,37.0,23.0,-247.0,0
2634,41.0,24.0,-250.0,0
2635,39.0,26.0,-251.0,0
2636,39.0,22.0,-246.0,0
2637,37.0,23.0,-244.0,0
2638,37.0,23.0,-250.0,0
2639,38.0,24.0,-253.0,0
2640,36.0,21.0,-251.0,0
2641,36.0,12.0,-253.0,0
2642,41.0,35.0,-251.0,0
2643,39.0,20.0,-247.0,0
2644,38.0,25.0,-248.0,0
2645,42.0,24.0,-249.0,0
2646,39.0,27.0,-245.0,0
2647,43.0,24.0,-250.0,0
2648,43.0,21.0,-246.0,0
2649,39.0,24.0,-251.0,0
2650,41.0,21.0,-249.0,0
2651,41.0,23.0,-243.0,0
2652,38.0,25.0,-248.0,0
2653,43.0,22.0,-244.0,0
2654,39.0,22.0,-244.0,0
2655,42.0,21.0,-245.0,0
2656,42.0,22.0,-245.0,0
2657,37.0,24.0,-244.0,0
2658,40.0,22.0,-242.0,0
2659,40.0,25.0,-243.0,0
2660,40.0,25.0,-246.0,0
2661,40.0,23.0,-245.0,0
2662,38.0,23.0,-239.0,0
2663,38.0,21.0,-243.0,0
2664,38.0,23.0,-244.0,0
2665,40.0,21.0,-243.0,0
2666,41.0,24.0,-245.0,0
2667,37.0,24.0,-244.0,0
2668,41.0,22.0,-247.0,0
2669,41.0,23.0,-245.0,0
2670,43.0,23.0,-246.0,0
2671,40.0,22.0,-243.0,0
2672,40.0,22.0,-244.0,0
2673,39.0,22.0,-244.0,0
2674,41.0,23.0,-243.0,0
2675,38.0,25.0,-245.0,0
2676,41.0,24.0,-243.0,0
2677,39.0,21.0,-245.0,0
2678,40.0,22.0,-248.0,0
2679,41.0,18.0,-246.0,0
2680,44.0,24.0,-248.0,0
2681,40.0,24.0,-244.0,0
2682,41.0,22.0,-246.0,0
2683,40.0,21.0,-248.0,0
2684,42.0,24.0,-244.0,0
2685,37.0,26.0,-247.0,0
2686,40.0,24.0,-248.0,0
2687,41.0,18.0,-245.0,0
2688,36.0,24.0,-247.0,0
2689,37.0,7.0,-246.0,0
2690,38.0,40.0,-253.0,0
2691,44.0,33.0,-245.0,0
2692,43.0,18.0,-244.0,0
2693,45.0,18.0,-249.0,0
2694,42.0,22.0,-247.0,0
2695,38.0,24.0,-249.0,0
2696,42.0,19.0,-246.0,0
2697,37.0,23.0,-244.0,0
2698,43.0,23.0,-251.0,0
2699,41.0,22.0,-248.0,0
2700,43.0,21.0,-246.0,0
2701,41.0,24.0,-244.0,0
2702,38.0,19.0,-247.0,0
2703,39.0,24.0,-250.0,0
2704,38.0,20.0,-249.0,0
2705,44.0,24.0,-250.0,0
2706,40.0,21.0,-249.0,0
2707,41.0,21.0,-244.0,0
2708,40.0,24.0,-247.0,0
2709,42.0,20.0,-250.0,0
2710,42.0,21.0,-252.0,0
2711,41.0,21.0,-247.0,0
2712,41.0,20.0,-249.0,0
2713,43.0,23.0,-246.0,0
2714,42.0,21.0,-250.0,0
2715,40.0,20.0,-247.0,0
2716,38.0,22.0,-250.0,0
2717,43.0,25.0,-246.0,0
2718,38.0,25.0,-247.0,0
2719,39.0,23.0,-245.0,0
2720,41.0,22.0,-249.0,0
2721,44.0,23.0,-249.0,0
2722,40.0,27.0,-244.0,0
2723,40.0,26.0,-246.0,0
2724,42.0,24.0,-248.0,0
2725,41.0,22.0,-249.0,0
2726,40.0,22.0,-250.0,0
2727,41.0,23.0,-243.0,0
2728,38.0,24.0,-245.0,0
2729,39.0,23.0,-246.0,0
2730,39.0,21.0,-244.0,0
2731,40.0,20.0,-247.0,0
2732,45.0,22.0,-243.0,0
2733,38.0,23.0,-247.0,0
2734,33.0,25.0,-249.0,0
2735,39.0,23.0,-247.0,0
2736,38.0,22.0,-244.0,0
2737,41.0,23.0,-248.0,0
2738,38.0,23.0,-249.0,0
2739,39.0,21.0,-245.0,0
2740,37.0,24.0,-246.0,0
2741,40.0,25.0,-245.0,0
2742,43.0,19.0,-243.0,0
2743,39.0,19.0,-248.0,0
2744,40.0,24.0,-250.0,0
2745,40.0,19.0,-249.0,0
2746,39.0,25.0,-250.0,0
2747,37.0,24.0,-247.0,0
2748,40.0,22.0,-243.0,0
2749,39.0,22.0,-245.0,0
2750,40.0,22.0,-244.0,0
2751,39.0,22.0,-249.0,0
2752,37.0,20.0,-248.0,0
2753,34.0,24.0,-249.0,0
2754,48.0,23.0,-244.0,0
2755,44.0,21.0,-246.0,0
2756,38.0,21.0,-247.0,0
2757,37.0,24.0,-250.0,0
2758,41.0,20.0,-244.0,0
2759,38.0,24.0,-245.0,0
2760,38.0,25.0,-246.0,0
2761,38.0,22.0,-249.0,0
2762,41.0,22.0,-246.0,0
2763,37.0,26.0,-246.0,0
2764,36.0,21.0,-252.0,0
2765,40.0,18.0,-249.0,0
2766,38.0,22.0,-246.0,0
2767,40.0,22.0,-249.0,0
2768,40.0,23.0,-246.0,0
2769,36.0,24.0,-246.0,0
2770,38.0,22.0,-249.0,0
2771,40.0,23.0,-246.0,0
2772,40.0,24.0,-248.0,0
2773,41.0,21.0,-250.0,0
2774,38.0,22.0,-246.0,0
2775,40.0,25.0,-244.0,0
2776,32.0,24.0,-249.0,0
2777,38.0,26.0,-250.0,0
2778,40.0,26.0,-247.0,0
2779,41.0,23.0,-247.0,0
2780,38.0,21.0,-245.0,0
2781,41.0,23.0,-249.0,0
2782,39.0,22.0,-248.0,0
2783,36.0,24.0,-245.0,0
2784,37.0,22.0,-242.0,0
2785,41.0,21.0,-244.0,0
2786,38.0,21.0,-247.0,0
2787,44.0,21.0,-247.0,0
2788,38.0,21.0,-248.0,0
2789,39.0,24.0,-249.0,0
2790,40.0,20.0,-246.0,0
2791,39.0,22.0,-245.0,0
2792,39.0,24.0,-248.0,0
2793,37.0,22.0,-247.0,0
2794,40.0,23.0,-252.0,0
2795,41.0,21.0,-249.0,0
2796,37.0,22.0,-246.0,0
2797,38.0,24.0,-246.0,0
2798,42.0,22.0,-243.0,0
2799,37.0,24.0,-246.0,0
2800,41.0,21.0,-246.0,0
2801,39.0,23.0,-246.0,0
2802,38.0,23.0,-248.0,0
2803,41.0,24.0,-245.0,0
2804,37.0,24.0,-248.0,0
2805,41.0,21.0,-249.0,0
2806,38.0,25.0,-248.0,0
2807,43.0,20.0,-243.0,0
2808,37.0,21.0,-246.0,0
2809,40.0,23.0,-247.0,0
2810,38.0,23.0,-251.0,0
2811,38.0,22.0,-249.0,0
2812,40.0,21.0,-249.0,0
2813,41.0,23.0,-248.0,0
2814,37.0,24.0,-247.0,0
2815,40.0,26.0,-248.0,0
2816,42.0,20.0,-247.0,0
2817,40.0,22.0,-250.0,0
2818,42.0,24.0,-245.0,0
2819,40.0,20.0,-244.0,0
2820,38.0,23.0,-246.0,0
2821,39.0,23.0,-245.0,0
2822,40.0,21.0,-248.0,0
2823,41.0,20.0,-244.0,0
2824,38.0,22.0,-246.0,0
2825,40.0,22.0,-247.0,0
2826,41.0,24.0,-248.0,0
2827,39.0,21.0,-243.0,0
2828,38.0,23.0,-245.0,0
2829,38.0,22.0,-246.0,0
2830,39.0,22.0,-249.0,0
2831,39.0,24.0,-243.0,0
2832,40.0,21.0,-244.0,0
2833,38.0,25.0,-247.0,0
2834,39.0,22.0,-251.0,0
2835,40.0,19.0,-250.0,0
2836,39.0,26.0,-245.0,0
2837,39.0,22.0,-250.0,0
2838,38.0,24.0,-247.0,0
2839,39.0,23.0,-247.0,0
2840,37.0,20.0,-239.0,0
2841,37.0,23.0,-248.0,0
2842,38.0,20.0,-249.0,0
2843,39.0,20.0,-248.0,0
2844,37.0,24.0,-246.0,0
2845,36.0,25.0,-249.0,0
2846,41.0,21.0,-246.0,0
2847,39.0,21.0,-248.0,0
2848,39.0,23.0,-246.0,0
2849,40.0,21.0,-250.0,0
2850,39.0,24.0,-247.0,0
2851,38.0,29.0,-247.0,0
2852,40.0,24.0,-248.0,0
2853,41.0,21.0,-247.0,0
2854,37.0,25.0,-244.0,0
2855,39.0,20.0,-248.0,0
2856,39.0,22.0,-246.0,0
2857,39.0,24.0,-249.0,0
2858,35.0,17.0,-248.0,0
2859,39.0,21.0,-246.0,0
2860,38.0,24.0,-249.0,0
2861,41.0,22.0,-249.0,0
2862,40.0,18.0,-251.0,0
2863,38.0,23.0,-248.0,0
2864,41.0,18.0,-249.0,0
2865,40.0,24.0,-246.0,0
2866,36.0,26.0,-249.0,0
2867,39.0,23.0,-245.0,0
2868,41.0,21.0,-245.0,0
2869,37.0,19.0,-245.0,0
2870,36.0,23.0,-247.0,0
2871,38.0,24.0,-242.0,0
2872,45.0,22.0,-252.0,0
2873,40.0,29.0,-238.0,0
2874,41.0,16.0,-254.0,0
2875,42.0,19.0,-244.0,0
2876,35.0,21.0,-249.0,0
2877,36.0,22.0,-251.0,0
2878,42.0,24.0,-243.0,0
2879,35.0,17.0,-231.0,0
2880,45.0,20.0,-249.0,0
2881,46.0,20.0,-252.0,0
2882,31.0,23.0,-241.0,0
2883,33.0,24.0,-242.0,0
2884,31.0,23.0,-244.0,0
2885,38.0,23.0,-247.0,0
2886,39.0,22.0,-238.0,0
2887,30.0,22.0,-227.0,0
2888,38.0,29.0,-250.0,0
2889,38.0,19.0,-244.0,0
2890,49.0,23.0,-251.0,0
2891,36.0,20.0,-237.0,0
2892,46.0,20.0,-246.0,0
2893,43.0,15.0,-242.0,0
2894,42.0,17.0,-249.0,0
2895,33.0,26.0,-245.0,0
2896,39.0,27.0,-248.0,0
2897,38.0,35.0,-244.0,0
2898,36.0,27.0,-246.0,0
2899,33.0,18.0,-251.0,0
2900,37.0,22.0,-244.0,0
2901,36.0,21.0,-246.0,0
2902,41.0,22.0,-250.0,0
2903,40.0,22.0,-248.0,0
2904,40.0,23.0,-250.0,0
2905,32.0,21.0,-252.0,0
2906,38.0,25.0,-251.0,0
2907,38.0,22.0,-248.0,0
2908,39.0,20.0,-246.0,0
2909,38.0,23.0,-251.0,0
2910,35.0,24.0,-249.0,0
2911,38.0,20.0,-252.0,0
2912,37.0,22.0,-246.0,0
2913,37.0,21.0,-250.0,0
2914,40.0,20.0,-249.0,0
2915,40.0,26.0,-250.0,0
2916,40.0,22.0,-249.0,0
2917,39.0,24.0,-248.0,0
2918,37.0,23.0,-247.0,0
2919,49.0,21.0,-248.0,0
2920,40.0,23.0,-247.0,0
2921,37.0,25.0,-250.0,0
2922,39.0,21.0,-251.0,0
2923,37.0,22.0,-249.0,0
2924,40.0,22.0,-245.0,0
2925,37.0,22.0,-245.0,0
2926,35.0,22.0,-243.0,0
2927,38.0,25.0,-247.0,0
2928,37.0,22.0,-248.0,0
2929,39.0,25.0,-250.0,0
2930,40.0,22.0,-247.0,0
2931,39.0,20.0,-250.0,0
2932,35.0,24.0,-245.0,0
2933,37.0,19.0,-250.0,0
2934,35.0,21.0,-251.0,0
2935,39.0,20.0,-243.0,0
2936,39.0,17.0,-245.0,0
2937,38.0,22.0,-251.0,0
2938,41.0,21.0,-248.0,0
2939,39.0,23.0,-246.0,0
2940,38.0,21.0,-248.0,0
2941,37.0,25.0,-243.0,0
2942,36.0,20.0,-246.0,0
2943,36.0,22.0,-247.0,0
2944,33.0,25.0,-245.0,0
2945,40.0,22.0,-247.0,0
2946,36.0,21.0,-247.0,0
2947,41.0,22.0,-252.0,0
2948,40.0,19.0,-247.0,0
2949,38.0,20.0,-250.0,0
2950,39.0,21.0,-249.0,0
2951,41.0,21.0,-248.0,0
2952,40.0,21.0,-248.0,0
2953,37.0,23.0,-247.0,0
2954,39.0,23.0,-248.0,0
2955,35.0,23.0,-244.0,0
2956,33.0,22.0,-245.0,0
2957,39.0,22.0,-246.0,0
2958,31.0,17.0,-239.0,0
2959,36.0,23.0,-247.0,0
2960,39.0,22.0,-249.0,0
2961,37.0,21.0,-250.0,0
2962,41.0,21.0,-245.0,0
2963,37.0,22.0,-248.0,0
2964,38.0,22.0,-247.0,0
2965,37.0,25.0,-249.0,0
2966,38.0,24.0,-249.0,0
2967,38.0,21.0,-250.0,0
2968,33.0,26.0,-251.0,0
2969,39.0,23.0,-244.0,0
2970,36.0,22.0,-247.0,0
2971,36.0,23.0,-245.0,0
2972,38.0,23.0,-249.0,0
2973,39.0,22.0,-248.0,0
2974,40.0,18.0,-246.0,0
2975,39.0,20.0,-251.0,0
2976,42.0,19.0,-248.0,0
2977,39.0,24.0,-248.0,0
2978,38.0,21.0,-245.0,0
2979,44.0,23.0,-254.0,0
2980,37.0,24.0,-246.0,0
2981,38.0,27.0,-251.0,0
2982,37.0,23.0,-248.0,0
2983,38.0,22.0,-244.0,0
2984,38.0,21.0,-243.0,0
2985,38.0,21.0,-249.0,0
2986,36.0,22.0,-247.0,0
2987,38.0,19.0,-248.0,0
2988,39.0,21.0,-246.0,0
2989,39.0,22.0,-248.0,0
2990,36.0,29.0,-249.0,0
2991,36.0,25.0,-249.0,0
2992,41.0,18.0,-249.0,0
2993,37.0,19.0,-246.0,0
2994,39.0,23.0,-249.0,0
2995,37.0,24.0,-249.0,0
2996,36.0,25.0,-247.0,0
2997,35.0,17.0,-247.0,0
2998,38.0,18.0,-250.0,0
2999,36.0,25.0,-250.0,0
