,accelerometer_x,accelerometer_y,accelerometer_z,fall
0,-5.0,-247.0,21.0,0
1,-4.0,-248.0,25.0,0
2,-6.0,-247.0,18.0,0
3,-5.0,-247.0,20.0,0
4,-7.0,-248.0,25.0,0
5,-3.0,-248.0,19.0,0
6,-5.0,-244.0,23.0,0
7,-3.0,-248.0,23.0,0
8,-6.0,-247.0,24.0,0
9,-5.0,-246.0,22.0,0
10,-6.0,-246.0,22.0,0
11,-3.0,-246.0,28.0,0
12,-3.0,-251.0,21.0,0
13,-4.0,-248.0,18.0,0
14,-4.0,-250.0,23.0,0
15,-3.0,-247.0,17.0,0
16,-5.0,-248.0,19.0,0
17,-7.0,-246.0,14.0,0
18,-6.0,-247.0,22.0,0
19,-7.0,-245.0,20.0,0
20,-6.0,-245.0,20.0,0
21,-5.0,-245.0,21.0,0
22,-5.0,-248.0,23.0,0
23,-5.0,-246.0,24.0,0
24,-4.0,-246.0,23.0,0
25,-6.0,-248.0,25.0,0
26,-3.0,-248.0,23.0,0
27,-10.0,-247.0,25.0,0
28,-3.0,-249.0,20.0,0
29,-4.0,-246.0,21.0,0
30,-6.0,-247.0,19.0,0
31,-5.0,-247.0,26.0,0
32,-5.0,-248.0,24.0,0
33,-4.0,-246.0,22.0,0
34,-3.0,-247.0,22.0,0
35,-5.0,-247.0,21.0,0
36,-8.0,-244.0,21.0,0
37,-5.0,-248.0,23.0,0
38,-6.0,-248.0,23.0,0
39,-8.0,-246.0,18.0,0
40,-5.0,-247.0,23.0,0
41,-6.0,-246.0,20.0,0
42,-7.0,-247.0,18.0,0
43,-6.0,-247.0,24.0,0
44,-8.0,-247.0,23.0,0
45,-3.0,-248.0,21.0,0
46,-7.0,-248.0,21.0,0
47,-3.0,-248.0,18.0,0
48,-6.0,-250.0,20.0,0
49,-5.0,-247.0,17.0,0
50,-6.0,-248.0,20.0,0
51,-9.0,-248.0,18.0,0
52,-7.0,-248.0,20.0,0
53,-7.0,-247.0,21.0,0
54,-9.0,-248.0,18.0,0
55,-5.0,-249.0,18.0,0
56,-6.0,-248.0,18.0,0
57,-5.0,-248.0,15.0,0
58,-6.0,-246.0,19.0,0
59,-5.0,-246.0,21.0,0
60,-6.0,-246.0,24.0,0
61,-6.0,-246.0,21.0,0
62,-6.0,-247.0,21.0,0
63,-10.0,-245.0,19.0,0
64,-3.0,-248.0,22.0,0
65,-7.0,-247.0,19.0,0
66,-6.0,-247.0,22.0,0
67,-5.0,-247.0,21.0,0
68,-7.0,-249.0,16.0,0
69,-7.0,-244.0,22.0,0
70,-6.0,-247.0,23.0,0
71,-7.0,-246.0,22.0,0
72,-5.0,-248.0,20.0,0
73,-5.0,-248.0,21.0,0
74,-2.0,-249.0,18.0,0
75,-3.0,-247.0,16.0,0
76,-2.0,-248.0,17.0,0
77,-4.0,-246.0,17.0,0
78,-6.0,-248.0,19.0,0
79,-5.0,-247.0,20.0,0
80,-6.0,-247.0,18.0,0
81,-5.0,-248.0,17.0,0
82,-5.0,-248.0,21.0,0
83,-2.0,-248.0,23.0,0
84,-5.0,-248.0,21.0,0
85,-9.0,-245.0,19.0,0
86,-3.0,-247.0,21.0,0
87,-6.0,-247.0,17.0,0
88,-5.0,-246.0,17.0,0
89,-4.0,-250.0,17.0,0
90,-2.0,-247.0,20.0,0
91,-5.0,-244.0,20.0,0
92,-8.0,-244.0,17.0,0
93,-3.0,-247.0,21.0,0
94,-5.0,-246.0,15.0,0
95,-7.0,-247.0,22.0,0
96,-8.0,-247.0,21.0,0
97,-5.0,-247.0,18.0,0
98,-8.0,-244.0,19.0,0
99,-4.0,-246.0,17.0,0
100,-4.0,-246.0,19.0,0
101,-6.0,-245.0,18.0,0
102,-9.0,-244.0,22.0,0
103,-5.0,-247.0,25.0,0
104,-7.0,-247.0,21.0,0
105,-6.0,-248.0,19.0,0
106,-8.0,-250.0,24.0,0
107,-6.0,-248.0,18.0,0
108,-3.0,-251.0,15.0,0
109,-7.0,-248.0,18.0,0
110,-6.0,-249.0,19.0,0
111,-3.0,-249.0,18.0,0
112,-8.0,-248.0,17.0,0
113,-5.0,-249.0,15.0,0
114,-5.0,-247.0,15.0,0
115,-6.0,-247.0,18.0,0
116,-4.0,-248.0,14.0,0
117,-6.0,-246.0,17.0,0
118,-4.0,-248.0,14.0,0
119,-5.0,-246.0,15.0,0
120,-3.0,-247.0,15.0,0
121,-5.0,-248.0,18.0,0
122,-3.0,-246.0,16.0,0
123,-2.0,-248.0,16.0,0
124,-4.0,-249.0,17.0,0
125,-1.0,-248.0,18.0,0
126,-2.0,-247.0,15.0,0
127,-4.0,-249.0,17.0,0
128,-2.0,-250.0,10.0,0
129,-1.0,-248.0,17.0,0
130,-5.0,-247.0,15.0,0
131,-3.0,-248.0,16.0,0
132,-1.0,-247.0,14.0,0
133,-4.0,-249.0,17.0,0
134,-4.0,-249.0,21.0,0
135,-7.0,-249.0,18.0,0
136,-4.0,-248.0,14.0,0
137,-4.0,-249.0,17.0,0
138,-3.0,-249.0,10.0,0
139,-3.0,-250.0,13.0,0
140,-6.0,-248.0,9.0,0
141,-7.0,-248.0,13.0,0
142,-5.0,-248.0,11.0,0
143,-4.0,-247.0,9.0,0
144,-5.0,-249.0,13.0,0
145,-4.0,-249.0,15.0,0
146,-8.0,-251.0,12.0,0
147,-4.0,-250.0,14.0,0
148,-2.0,-248.0,13.0,0
149,-3.0,-249.0,12.0,0
150,-6.0,-250.0,8.0,0
151,-4.0,-248.0,9.0,0
152,-4.0,-248.0,10.0,0
153,-1.0,-247.0,12.0,0
154,-3.0,-248.0,10.0,0
155,-4.0,-249.0,10.0,0
156,-5.0,-246.0,9.0,0
157,-3.0,-248.0,10.0,0
158,-3.0,-248.0,13.0,0
159,-5.0,-248.0,10.0,0
160,-6.0,-249.0,16.0,0
161,-5.0,-249.0,9.0,0
162,-5.0,-249.0,10.0,0
163,-5.0,-249.0,9.0,0
164,-7.0,-248.0,13.0,0
165,-7.0,-249.0,9.0,0
166,-6.0,-248.0,12.0,0
167,-7.0,-248.0,12.0,0
168,-6.0,-249.0,15.0,0
169,-5.0,-253.0,10.0,0
170,-6.0,-251.0,11.0,0
171,-10.0,-250.0,9.0,0
172,-8.0,-253.0,11.0,0
173,-10.0,-250.0,6.0,0
174,-10.0,-252.0,6.0,0
175,-9.0,-254.0,7.0,0
176,-9.0,-253.0,8.0,0
177,-9.0,-252.0,8.0,0
178,-12.0,-254.0,7.0,0
179,-10.0,-251.0,9.0,0
180,-10.0,-252.0,7.0,0
181,-7.0,-249.0,8.0,0
182,-9.0,-250.0,9.0,0
183,-10.0,-249.0,8.0,0
184,-7.0,-251.0,9.0,0
185,-9.0,-250.0,8.0,0
186,-9.0,-252.0,8.0,0
187,-10.0,-249.0,11.0,0
188,-8.0,-250.0,6.0,0
189,-9.0,-251.0,8.0,0
190,-5.0,-252.0,9.0,0
191,-6.0,-253.0,9.0,0
192,-7.0,-251.0,11.0,0
193,-6.0,-252.0,6.0,0
194,-7.0,-250.0,8.0,0
195,-5.0,-253.0,7.0,0
196,-3.0,-248.0,5.0,0
197,-5.0,-250.0,8.0,0
198,-5.0,-250.0,0.0,0
199,-1.0,-249.0,6.0,0
200,-3.0,-247.0,8.0,0
201,0.0,-249.0,5.0,0
202,-1.0,-251.0,1.0,0
203,-2.0,-249.0,7.0,0
204,1.0,-252.0,4.0,0
205,-2.0,-251.0,5.0,0
206,0.0,-252.0,-2.0,0
207,-4.0,-253.0,0.0,0
208,-1.0,-254.0,-1.0,0
209,-2.0,-252.0,2.0,0
210,0.0,-252.0,5.0,0
211,-3.0,-250.0,-1.0,0
212,-1.0,-251.0,2.0,0
213,-1.0,-252.0,8.0,0
214,0.0,-252.0,6.0,0
215,-6.0,-250.0,8.0,0
216,-4.0,-248.0,8.0,0
217,-2.0,-251.0,8.0,0
218,-6.0,-250.0,9.0,0
219,-3.0,-250.0,10.0,0
220,-6.0,-250.0,11.0,0
221,-4.0,-251.0,8.0,0
222,-5.0,-249.0,8.0,0
223,-7.0,-250.0,9.0,0
224,-6.0,-249.0,11.0,0
225,-8.0,-247.0,12.0,0
226,-6.0,-247.0,11.0,0
227,-6.0,-247.0,8.0,0
228,-6.0,-249.0,5.0,0
229,-6.0,-249.0,9.0,0
230,-8.0,-247.0,8.0,0
231,-8.0,-250.0,9.0,0
232,-7.0,-250.0,9.0,0
233,-6.0,-249.0,9.0,0
234,-6.0,-249.0,6.0,0
235,-6.0,-252.0,9.0,0
236,-6.0,-249.0,8.0,0
237,-7.0,-249.0,8.0,0
238,-7.0,-250.0,8.0,0
239,-6.0,-251.0,3.0,0
240,-8.0,-251.0,5.0,0
241,-8.0,-249.0,7.0,0
242,-7.0,-252.0,8.0,0
243,-10.0,-249.0,3.0,0
244,-7.0,-250.0,3.0,0
245,-8.0,-249.0,7.0,0
246,-8.0,-250.0,5.0,0
247,-9.0,-249.0,4.0,0
248,-11.0,-247.0,9.0,0
249,-6.0,-248.0,8.0,0
250,-9.0,-247.0,4.0,0
251,-7.0,-247.0,9.0,0
252,-4.0,-251.0,8.0,0
253,-8.0,-248.0,11.0,0
254,-8.0,-245.0,10.0,0
255,-7.0,-247.0,9.0,0
256,-4.0,-248.0,11.0,0
257,-12.0,-247.0,11.0,0
258,-7.0,-249.0,10.0,0
259,-6.0,-249.0,12.0,0
260,-10.0,-248.0,10.0,0
261,-6.0,-248.0,9.0,0
262,-3.0,-250.0,9.0,0
263,-5.0,-251.0,8.0,0
264,-7.0,-250.0,6.0,0
265,-8.0,-247.0,8.0,0
266,-8.0,-252.0,8.0,0
267,-11.0,-251.0,8.0,0
268,-7.0,-251.0,8.0,0
269,-9.0,-250.0,10.0,0
270,-8.0,-249.0,5.0,0
271,-6.0,-250.0,8.0,0
272,-7.0,-247.0,3.0,0
273,-9.0,-250.0,7.0,0
274,-7.0,-248.0,6.0,0
275,-8.0,-248.0,7.0,0
276,-7.0,-248.0,8.0,0
277,-12.0,-248.0,8.0,0
278,-10.0,-247.0,7.0,0
279,-9.0,-250.0,10.0,0
280,-10.0,-247.0,8.0,0
281,-10.0,-251.0,5.0,0
282,-11.0,-247.0,5.0,0
283,-7.0,-250.0,8.0,0
284,-6.0,-251.0,8.0,0
285,-10.0,-249.0,7.0,0
286,-8.0,-249.0,3.0,0
287,-8.0,-250.0,5.0,0
288,-10.0,-249.0,2.0,0
289,-10.0,-249.0,9.0,0
290,-10.0,-248.0,8.0,0
291,-8.0,-249.0,7.0,0
292,-8.0,-250.0,6.0,0
293,-10.0,-247.0,6.0,0
294,-6.0,-253.0,4.0,0
295,-6.0,-250.0,7.0,0
296,-8.0,-249.0,3.0,0
297,-5.0,-250.0,8.0,0
298,-8.0,-250.0,8.0,0
299,-8.0,-249.0,7.0,0
300,-6.0,-249.0,7.0,0
301,-7.0,-248.0,9.0,0
302,-7.0,-248.0,8.0,0
303,-6.0,-247.0,9.0,0
304,-6.0,-252.0,7.0,0
305,-5.0,-249.0,6.0,0
306,-5.0,-248.0,10.0,0
307,-4.0,-251.0,6.0,0
308,-4.0,-250.0,8.0,0
309,-4.0,-251.0,6.0,0
310,-5.0,-248.0,8.0,0
311,-6.0,-248.0,5.0,0
312,-7.0,-251.0,5.0,0
313,-5.0,-252.0,6.0,0
314,-8.0,-248.0,5.0,0
315,-5.0,-251.0,2.0,0
316,-6.0,-250.0,4.0,0
317,-6.0,-250.0,7.0,0
318,-6.0,-254.0,3.0,0
319,-8.0,-249.0,8.0,0
320,-8.0,-248.0,2.0,0
321,-11.0,-248.0,10.0,0
322,-5.0,-250.0,7.0,0
323,-6.0,-252.0,7.0,0
324,-8.0,-250.0,6.0,0
325,-7.0,-252.0,5.0,0
326,-8.0,-251.0,7.0,0
327,-6.0,-248.0,6.0,0
328,-8.0,-248.0,4.0,0
329,-5.0,-248.0,8.0,0
330,-9.0,-248.0,4.0,0
331,-7.0,-251.0,5.0,0
332,-9.0,-249.0,8.0,0
333,-8.0,-250.0,7.0,0
334,-9.0,-249.0,5.0,0
335,-8.0,-248.0,6.0,0
336,-6.0,-254.0,-1.0,0
337,-3.0,-251.0,7.0,0
338,-8.0,-249.0,8.0,0
339,-6.0,-251.0,6.0,0
340,-5.0,-250.0,4.0,0
341,-7.0,-248.0,8.0,0
342,-6.0,-251.0,5.0,0
343,-10.0,-248.0,9.0,0
344,-8.0,-250.0,8.0,0
345,-7.0,-249.0,8.0,0
346,-7.0,-249.0,5.0,0
347,-8.0,-248.0,8.0,0
348,-5.0,-250.0,3.0,0
349,-5.0,-250.0,2.0,0
350,-5.0,-250.0,6.0,0
351,-7.0,-249.0,7.0,0
352,-4.0,-248.0,5.0,0
353,-7.0,-248.0,8.0,0
354,-8.0,-248.0,7.0,0
355,-6.0,-249.0,8.0,0
356,-5.0,-252.0,11.0,0
357,-5.0,-249.0,8.0,0
358,-3.0,-250.0,9.0,0
359,-7.0,-248.0,7.0,0
360,-5.0,-251.0,7.0,0
361,-6.0,-249.0,8.0,0
362,-8.0,-248.0,7.0,0
363,-4.0,-250.0,3.0,0
364,-9.0,-249.0,4.0,0
365,-4.0,-254.0,7.0,0
366,-6.0,-253.0,4.0,0
367,-8.0,-251.0,8.0,0
368,-4.0,-250.0,7.0,0
369,-6.0,-253.0,7.0,0
370,-3.0,-249.0,1.0,0
371,-8.0,-250.0,7.0,0
372,-5.0,-249.0,7.0,0
373,-6.0,-250.0,7.0,0
374,-7.0,-248.0,5.0,0
375,-6.0,-249.0,7.0,0
376,-7.0,-250.0,8.0,0
377,-7.0,-251.0,8.0,0
378,-5.0,-255.0,1.0,0
379,-7.0,-250.0,5.0,0
380,-8.0,-252.0,8.0,0
381,-6.0,-250.0,3.0,0
382,-8.0,-249.0,0.0,0
383,-8.0,-248.0,4.0,0
384,-10.0,-249.0,8.0,0
385,-8.0,-249.0,4.0,0
386,-8.0,-246.0,8.0,0
387,-10.0,-251.0,8.0,0
388,-8.0,-249.0,6.0,0
389,-8.0,-250.0,8.0,0
390,-8.0,-250.0,6.0,0
391,-7.0,-247.0,8.0,0
392,-7.0,-249.0,6.0,0
393,-4.0,-251.0,3.0,0
394,-8.0,-249.0,3.0,0
395,-5.0,-249.0,7.0,0
396,-7.0,-248.0,8.0,0
397,-5.0,-249.0,7.0,0
398,-7.0,-249.0,5.0,0
399,-7.0,-249.0,5.0,0
400,-5.0,-248.0,7.0,0
401,-8.0,-251.0,4.0,0
402,-8.0,-248.0,2.0,0
403,-9.0,-251.0,6.0,0
404,-7.0,-253.0,6.0,0
405,-7.0,-250.0,7.0,0
406,-8.0,-248.0,3.0,0
407,-6.0,-250.0,8.0,0
408,-8.0,-251.0,8.0,0
409,-8.0,-250.0,6.0,0
410,-5.0,-249.0,3.0,0
411,-7.0,-250.0,3.0,0
412,-4.0,-250.0,3.0,0
413,-5.0,-250.0,4.0,0
414,-8.0,-248.0,6.0,0
415,-8.0,-251.0,5.0,0
416,-4.0,-251.0,5.0,0
417,-6.0,-247.0,8.0,0
418,-4.0,-249.0,4.0,0
419,-6.0,-251.0,7.0,0
420,-4.0,-250.0,5.0,0
421,-2.0,-251.0,8.0,0
422,-4.0,-249.0,8.0,0
423,-6.0,-249.0,9.0,0
424,-7.0,-247.0,8.0,0
425,-6.0,-249.0,8.0,0
426,-6.0,-250.0,4.0,0
427,-8.0,-249.0,6.0,0
428,-6.0,-250.0,8.0,0
429,-4.0,-251.0,6.0,0
430,-9.0,-251.0,8.0,0
431,-8.0,-250.0,6.0,0
432,-7.0,-249.0,8.0,0
433,-6.0,-250.0,6.0,0
434,-7.0,-249.0,6.0,0
435,-5.0,-251.0,8.0,0
436,-7.0,-251.0,7.0,0
437,-6.0,-250.0,7.0,0
438,-7.0,-249.0,3.0,0
439,-6.0,-250.0,8.0,0
440,-6.0,-249.0,8.0,0
441,-5.0,-251.0,8.0,0
442,-5.0,-249.0,8.0,0
443,-3.0,-250.0,8.0,0
444,-8.0,-250.0,8.0,0
445,-7.0,-250.0,7.0,0
446,-8.0,-248.0,8.0,0
447,-5.0,-252.0,9.0,0
448,-6.0,-252.0,8.0,0
449,-6.0,-249.0,8.0,0
450,-8.0,-251.0,7.0,0
451,-9.0,-249.0,10.0,0
452,-8.0,-249.0,3.0,0
453,-9.0,-253.0,6.0,0
454,-6.0,-252.0,0.0,0
455,-6.0,-251.0,8.0,0
456,-6.0,-249.0,7.0,0
457,-6.0,-249.0,7.0,0
458,-8.0,-248.0,3.0,0
459,-5.0,-250.0,9.0,0
460,-6.0,-251.0,6.0,0
461,-6.0,-253.0,7.0,0
462,-6.0,-251.0,8.0,0
463,-7.0,-249.0,8.0,0
464,-6.0,-249.0,6.0,0
465,-9.0,-249.0,9.0,0
466,-9.0,-248.0,4.0,0
467,-5.0,-249.0,4.0,0
468,-5.0,-251.0,6.0,0
469,-11.0,-247.0,9.0,0
470,-7.0,-248.0,4.0,0
471,-6.0,-249.0,9.0,0
472,-8.0,-249.0,5.0,0
473,1.0,-251.0,6.0,0
474,-7.0,-249.0,9.0,0
475,-4.0,-248.0,8.0,0
476,-7.0,-249.0,8.0,0
477,-6.0,-248.0,6.0,0
478,-8.0,-251.0,14.0,0
479,-8.0,-249.0,7.0,0
480,-5.0,-249.0,9.0,0
481,-6.0,-254.0,7.0,0
482,-4.0,-250.0,8.0,0
483,-9.0,-247.0,8.0,0
484,-4.0,-249.0,8.0,0
485,-8.0,-248.0,8.0,0
486,-7.0,-252.0,6.0,0
487,-6.0,-250.0,8.0,0
488,-6.0,-248.0,8.0,0
489,-6.0,-249.0,10.0,0
490,-4.0,-252.0,8.0,0
491,-5.0,-249.0,5.0,0
492,-5.0,-252.0,8.0,0
493,-8.0,-249.0,6.0,0
494,-6.0,-250.0,9.0,0
495,-4.0,-252.0,8.0,0
496,-7.0,-250.0,8.0,0
497,-7.0,-248.0,9.0,0
498,-7.0,-252.0,4.0,0
499,-10.0,-247.0,5.0,0
500,-6.0,-250.0,10.0,0
501,-5.0,-250.0,10.0,0
502,-5.0,-250.0,8.0,0
503,-6.0,-249.0,8.0,0
504,-2.0,-255.0,6.0,0
505,-6.0,-249.0,8.0,0
506,-4.0,-250.0,8.0,0
507,-8.0,-248.0,7.0,0
508,-8.0,-250.0,6.0,0
509,-6.0,-249.0,6.0,0
510,-6.0,-250.0,5.0,0
511,-4.0,-249.0,6.0,0
512,-6.0,-248.0,9.0,0
513,-6.0,-249.0,8.0,0
514,-8.0,-250.0,8.0,0
515,-4.0,-249.0,8.0,0
516,-6.0,-250.0,6.0,0
517,-5.0,-251.0,6.0,0
518,-10.0,-248.0,8.0,0
519,-7.0,-251.0,10.0,0
520,-6.0,-251.0,5.0,0
521,-8.0,-251.0,7.0,0
522,-6.0,-250.0,8.0,0
523,-8.0,-248.0,5.0,0
524,-9.0,-248.0,7.0,0
525,-6.0,-248.0,3.0,0
526,-9.0,-248.0,6.0,0
527,-7.0,-249.0,1.0,0
528,-6.0,-249.0,5.0,0
529,-7.0,-248.0,7.0,0
530,-6.0,-249.0,9.0,0
531,-9.0,-248.0,10.0,0
532,-7.0,-249.0,8.0,0
533,-11.0,-248.0,10.0,0
534,-7.0,-248.0,8.0,0
535,-11.0,-246.0,5.0,0
536,-6.0,-248.0,9.0,0
537,-5.0,-248.0,7.0,0
538,-7.0,-248.0,5.0,0
539,-8.0,-250.0,7.0,0
540,-5.0,-248.0,5.0,0
541,-6.0,-251.0,8.0,0
542,-3.0,-249.0,6.0,0
543,-4.0,-251.0,8.0,0
544,-9.0,-252.0,8.0,0
545,-10.0,-247.0,11.0,0
546,-7.0,-250.0,10.0,0
547,-4.0,-251.0,7.0,0
548,-8.0,-246.0,6.0,0
549,-6.0,-246.0,8.0,0
550,-1.0,-245.0,-1.0,0
551,-4.0,-246.0,7.0,0
552,-7.0,-243.0,6.0,0
553,-5.0,-245.0,8.0,0
554,-5.0,-244.0,5.0,0
555,-5.0,-245.0,5.0,0
556,-6.0,-248.0,4.0,0
557,-9.0,-247.0,4.0,0
558,-10.0,-249.0,9.0,0
559,-7.0,-250.0,8.0,0
560,-9.0,-249.0,6.0,0
561,-10.0,-251.0,4.0,0
562,-11.0,-249.0,3.0,0
563,-9.0,-250.0,2.0,0
564,-9.0,-251.0,5.0,0
565,-9.0,-248.0,-3.0,0
566,-8.0,-249.0,-2.0,0
567,-11.0,-247.0,-1.0,0
568,-10.0,-246.0,2.0,0
569,-10.0,-248.0,5.0,0
570,-10.0,-243.0,5.0,0
571,-12.0,-244.0,6.0,0
572,-7.0,-244.0,8.0,0
573,-11.0,-237.0,7.0,0
574,-11.0,-236.0,8.0,0
575,-8.0,-235.0,8.0,0
576,-13.0,-236.0,6.0,0
577,-8.0,-235.0,8.0,0
578,-14.0,-240.0,7.0,0
579,-12.0,-238.0,8.0,0
580,-11.0,-241.0,1.0,0
581,-11.0,-243.0,5.0,0
582,-15.0,-245.0,6.0,0
583,-12.0,-247.0,2.0,0
584,-13.0,-248.0,1.0,0
585,-15.0,-252.0,0.0,0
586,-16.0,-247.0,0.0,0
587,-15.0,-249.0,3.0,0
588,-14.0,-248.0,-2.0,0
589,-12.0,-248.0,3.0,0
590,-13.0,-244.0,-8.0,0
591,-12.0,-243.0,1.0,0
592,-13.0,-240.0,-6.0,0
593,-15.0,-237.0,-5.0,0
594,-13.0,-236.0,-2.0,0
595,-11.0,-237.0,-2.0,0
596,-9.0,-236.0,-3.0,0
597,-11.0,-236.0,-6.0,0
598,-9.0,-237.0,-7.0,0
599,-14.0,-238.0,-7.0,0
600,-13.0,-240.0,-13.0,0
601,-11.0,-243.0,-14.0,0
602,-12.0,-243.0,-17.0,0
603,-10.0,-248.0,-22.0,0
604,-12.0,-248.0,-30.0,0
605,-10.0,-252.0,-33.0,0
606,-11.0,-255.0,-30.0,0
607,-11.0,-261.0,-30.0,0
608,-15.0,-256.0,-27.0,0
609,-16.0,-252.0,-31.0,0
610,-14.0,-254.0,-32.0,0
611,-17.0,-249.0,-28.0,0
612,-16.0,-246.0,-32.0,0
613,-18.0,-246.0,-27.0,0
614,-23.0,-236.0,-24.0,0
615,-21.0,-236.0,-25.0,0
616,-27.0,-235.0,-23.0,0
617,-29.0,-236.0,-20.0,0
618,-28.0,-233.0,-19.0,0
619,-27.0,-237.0,-17.0,0
620,-24.0,-240.0,-20.0,0
621,-20.0,-241.0,-14.0,0
622,-21.0,-242.0,-12.0,0
623,-17.0,-246.0,-16.0,0
624,-20.0,-245.0,-5.0,0
625,-19.0,-250.0,-9.0,0
626,-16.0,-254.0,-12.0,0
627,-14.0,-252.0,-16.0,0
628,-15.0,-253.0,-14.0,0
629,-16.0,-258.0,-21.0,0
630,-13.0,-260.0,-20.0,0
631,-15.0,-259.0,-29.0,0
632,-15.0,-262.0,-28.0,0
633,-15.0,-261.0,-31.0,0
634,-7.0,-267.0,-42.0,0
635,1.0,-266.0,-62.0,0
636,8.0,-264.0,-76.0,0
637,15.0,-266.0,-89.0,0
638,15.0,-257.0,-113.0,0
639,7.0,-260.0,-136.0,0
640,12.0,-255.0,-151.0,0
641,5.0,-255.0,-161.0,0
642,8.0,-263.0,-160.0,0
643,7.0,-274.0,-158.0,0
644,9.0,-291.0,-152.0,0
645,1.0,-311.0,-153.0,0
646,7.0,-325.0,-148.0,0
647,5.0,-339.0,-142.0,0
648,6.0,-349.0,-144.0,0
649,17.0,-356.0,-136.0,0
650,21.0,-352.0,-132.0,0
651,23.0,-347.0,-134.0,0
652,16.0,-342.0,-131.0,0
653,4.0,-337.0,-130.0,0
654,-10.0,-330.0,-127.0,0
655,-28.0,-323.0,-138.0,0
656,-35.0,-315.0,-137.0,0
657,-41.0,-310.0,-144.0,0
658,-46.0,-296.0,-152.0,0
659,-41.0,-289.0,-159.0,0
660,-42.0,-280.0,-169.0,0
661,-35.0,-274.0,-171.0,0
662,-34.0,-278.0,-180.0,0
663,-19.0,-262.0,-173.0,0
664,-16.0,-254.0,-180.0,0
665,-10.0,-249.0,-179.0,0
666,-10.0,-247.0,-178.0,0
667,-11.0,-239.0,-180.0,0
668,-8.0,-234.0,-185.0,0
669,-11.0,-231.0,-185.0,0
670,-8.0,-235.0,-183.0,0
671,-9.0,-237.0,-177.0,0
672,-6.0,-245.0,-171.0,0
673,-3.0,-247.0,-164.0,0
674,-2.0,-247.0,-165.0,0
675,3.0,-248.0,-165.0,0
676,9.0,-246.0,-166.0,0
677,12.0,-242.0,-165.0,0
678,14.0,-239.0,-166.0,0
679,13.0,-236.0,-167.0,0
680,10.0,-235.0,-169.0,0
681,3.0,-232.0,-172.0,0
682,2.0,-232.0,-172.0,0
683,-3.0,-230.0,-173.0,0
684,-2.0,-228.0,-172.0,0
685,-4.0,-228.0,-170.0,0
686,-8.0,-225.0,-170.0,0
687,-6.0,-225.0,-175.0,0
688,-7.0,-215.0,-177.0,0
689,-9.0,-216.0,-177.0,0
690,-5.0,-211.0,-179.0,0
691,-12.0,-212.0,-182.0,0
692,-10.0,-190.0,-175.0,0
693,-8.0,-193.0,-182.0,0
694,-11.0,-192.0,-182.0,0
695,-8.0,-194.0,-179.0,0
696,-12.0,-192.0,-174.0,0
697,-9.0,-195.0,-175.0,0
698,-11.0,-195.0,-173.0,0
699,-10.0,-195.0,-173.0,0
700,-9.0,-192.0,-175.0,0
701,-9.0,-197.0,-175.0,0
702,-8.0,-193.0,-174.0,0
703,-6.0,-196.0,-180.0,0
704,-3.0,-195.0,-177.0,0
705,1.0,-194.0,-171.0,0
706,-1.0,-188.0,-181.0,0
707,0.0,-191.0,-181.0,0
708,4.0,-192.0,-177.0,0
709,-2.0,-188.0,-178.0,0
710,4.0,-194.0,-179.0,0
711,5.0,-194.0,-182.0,0
712,4.0,-191.0,-168.0,0
713,4.0,-182.0,-181.0,0
714,0.0,-182.0,-181.0,0
715,5.0,-182.0,-185.0,0
716,-2.0,-181.0,-184.0,0
717,-7.0,-178.0,-182.0,0
718,-6.0,-183.0,-183.0,0
719,-12.0,-179.0,-175.0,0
720,-1.0,-175.0,-177.0,0
721,-4.0,-172.0,-175.0,0
722,-3.0,-171.0,-182.0,0
723,-2.0,-170.0,-184.0,0
724,-12.0,-178.0,-198.0,0
725,-2.0,-165.0,-181.0,0
726,4.0,-151.0,-175.0,0
727,0.0,-151.0,-182.0,0
728,0.0,-152.0,-188.0,0
729,-17.0,-162.0,-194.0,0
730,15.0,-151.0,-168.0,0
731,4.0,-160.0,-174.0,0
732,-18.0,-173.0,-177.0,0
733,-33.0,-183.0,-176.0,0
734,-40.0,-190.0,-176.0,0
735,-56.0,-189.0,-195.0,0
736,-60.0,-198.0,-199.0,0
737,-40.0,-195.0,-196.0,0
738,-38.0,-197.0,-205.0,0
739,-45.0,-202.0,-206.0,0
740,-86.0,-208.0,-209.0,0
741,-9.0,-207.0,-179.0,0
742,5.0,-193.0,-166.0,0
743,-6.0,-190.0,-162.0,0
744,-12.0,-191.0,-168.0,0
745,-19.0,-186.0,-155.0,0
746,40.0,-178.0,-144.0,0
747,40.0,-158.0,-156.0,0
748,22.0,-139.0,-168.0,0
749,-36.0,-136.0,-188.0,0
750,25.0,-122.0,-169.0,0
751,43.0,-109.0,-174.0,0
752,38.0,-94.0,-183.0,0
753,23.0,-92.0,-184.0,0
754,-27.0,-100.0,-210.0,0
755,24.0,-95.0,-173.0,0
756,46.0,-93.0,-171.0,0
757,9.0,-96.0,-180.0,0
758,21.0,-107.0,-177.0,0
759,12.0,-114.0,-178.0,0
760,11.0,-121.0,-176.0,0
761,7.0,-126.0,-173.0,0
762,5.0,-135.0,-173.0,0
763,7.0,-136.0,-170.0,0
764,6.0,-141.0,-171.0,0
765,6.0,-146.0,-178.0,0
766,3.0,-144.0,-180.0,0
767,6.0,-145.0,-182.0,0
768,5.0,-142.0,-182.0,0
769,4.0,-142.0,-184.0,0
770,9.0,-142.0,-187.0,0
771,12.0,-137.0,-193.0,0
772,15.0,-136.0,-200.0,0
773,18.0,-132.0,-202.0,0
774,22.0,-136.0,-209.0,0
775,26.0,-138.0,-211.0,0
776,25.0,-135.0,-211.0,0
777,29.0,-143.0,-209.0,0
778,31.0,-138.0,-211.0,0
779,32.0,-140.0,-201.0,0
780,35.0,-140.0,-198.0,0
781,38.0,-137.0,-192.0,0
782,34.0,-133.0,-185.0,0
783,32.0,-132.0,-179.0,0
784,30.0,-123.0,-173.0,0
785,28.0,-120.0,-170.0,0
786,27.0,-118.0,-161.0,0
787,29.0,-119.0,-152.0,0
788,25.0,-117.0,-146.0,0
789,23.0,-116.0,-142.0,0
790,21.0,-117.0,-139.0,0
791,23.0,-117.0,-136.0,0
792,17.0,-117.0,-133.0,0
793,13.0,-119.0,-129.0,0
794,20.0,-123.0,-128.0,0
795,16.0,-127.0,-125.0,0
796,22.0,-133.0,-126.0,0
797,28.0,-138.0,-128.0,0
798,31.0,-142.0,-138.0,0
799,38.0,-150.0,-151.0,0
800,37.0,-156.0,-155.0,0
801,42.0,-162.0,-171.0,0
802,44.0,-167.0,-184.0,0
803,46.0,-169.0,-186.0,0
804,48.0,-169.0,-202.0,0
805,49.0,-168.0,-214.0,0
806,46.0,-171.0,-224.0,0
807,48.0,-174.0,-232.0,0
808,47.0,-180.0,-238.0,0
809,41.0,-181.0,-228.0,0
810,42.0,-187.0,-236.0,0
811,34.0,-190.0,-229.0,0
812,34.0,-191.0,-230.0,0
813,35.0,-192.0,-226.0,0
814,40.0,-198.0,-228.0,0
815,46.0,-205.0,-226.0,0
816,52.0,-213.0,-228.0,0
817,53.0,-230.0,-223.0,0
818,48.0,-242.0,-228.0,0
819,48.0,-260.0,-215.0,0
820,50.0,-285.0,-211.0,1
821,38.0,-309.0,-205.0,1
822,42.0,-328.0,-183.0,1
823,33.0,-371.0,-188.0,1
824,32.0,-388.0,-167.0,1
825,7.0,-457.0,-160.0,1
826,10.0,-520.0,-138.0,1
827,-5.0,-596.0,-275.0,1
828,-15.0,-637.0,-424.0,1
829,-46.0,-678.0,-492.0,1
830,-58.0,-716.0,-441.0,1
831,-45.0,-750.0,-302.0,1
832,-68.0,-731.0,-222.0,1
833,-115.0,-638.0,-172.0,1
834,-126.0,-533.0,-124.0,1
835,-101.0,-437.0,-64.0,1
836,-87.0,-365.0,3.0,1
837,-88.0,-306.0,35.0,1
838,-92.0,-255.0,32.0,1
839,-90.0,-198.0,22.0,1
840,-81.0,-136.0,12.0,1
841,-77.0,-76.0,3.0,1
842,-74.0,-26.0,-3.0,1
843,-56.0,18.0,7.0,1
844,-34.0,55.0,18.0,1
845,-15.0,69.0,52.0,1
846,-6.0,39.0,97.0,1
847,18.0,-11.0,132.0,1
848,33.0,-70.0,176.0,1
849,47.0,-136.0,214.0,1
850,63.0,-198.0,235.0,1
851,79.0,-253.0,238.0,1
852,94.0,-310.0,217.0,1
853,88.0,-359.0,183.0,1
854,71.0,-398.0,139.0,1
855,50.0,-419.0,105.0,1
856,26.0,-431.0,83.0,1
857,3.0,-421.0,69.0,1
858,-15.0,-402.0,61.0,1
859,-24.0,-377.0,52.0,1
860,-35.0,-340.0,42.0,1
861,-41.0,-297.0,33.0,1
862,-41.0,-252.0,18.0,1
863,-42.0,-211.0,1.0,1
864,-35.0,-179.0,-23.0,1
865,-31.0,-162.0,-55.0,1
866,-17.0,-160.0,-84.0,1
867,-16.0,-179.0,-100.0,1
868,-19.0,-196.0,-106.0,1
869,-26.0,-223.0,-105.0,1
870,-22.0,-250.0,-105.0,1
871,-24.0,-273.0,-100.0,1
872,-22.0,-295.0,-95.0,1
873,-24.0,-310.0,-92.0,1
874,-25.0,-315.0,-88.0,1
875,-24.0,-314.0,-81.0,1
876,-16.0,-308.0,-80.0,1
877,-16.0,-290.0,-79.0,0
878,-13.0,-275.0,-71.0,0
879,-12.0,-256.0,-65.0,0
880,-5.0,-241.0,-61.0,0
881,-6.0,-223.0,-59.0,0
882,-3.0,-209.0,-56.0,0
883,0.0,-197.0,-54.0,0
884,0.0,-191.0,-52.0,0
885,5.0,-187.0,-56.0,0
886,13.0,-194.0,-50.0,0
887,23.0,-206.0,-46.0,0
888,27.0,-213.0,-46.0,0
889,20.0,-222.0,-51.0,0
890,24.0,-234.0,-42.0,0
891,22.0,-239.0,-42.0,0
892,22.0,-247.0,-49.0,0
893,25.0,-249.0,-49.0,0
894,22.0,-255.0,-52.0,0
895,25.0,-256.0,-49.0,0
896,23.0,-254.0,-46.0,0
897,27.0,-255.0,-48.0,0
898,28.0,-250.0,-39.0,0
899,26.0,-250.0,-42.0,0
900,29.0,-257.0,-45.0,0
901,25.0,-259.0,-42.0,0
902,27.0,-261.0,-45.0,0
903,29.0,-265.0,-49.0,0
904,28.0,-268.0,-45.0,0
905,24.0,-269.0,-49.0,0
906,21.0,-273.0,-54.0,0
907,16.0,-271.0,-57.0,0
908,10.0,-268.0,-58.0,0
909,5.0,-262.0,-55.0,0
910,4.0,-259.0,-55.0,0
911,4.0,-255.0,-54.0,0
912,-1.0,-254.0,-50.0,0
913,-4.0,-252.0,-47.0,0
914,1.0,-256.0,-46.0,0
915,3.0,-256.0,-43.0,0
916,7.0,-257.0,-37.0,0
917,9.0,-260.0,-37.0,0
918,12.0,-257.0,-33.0,0
919,19.0,-255.0,-38.0,0
920,27.0,-253.0,-43.0,0
921,30.0,-248.0,-37.0,0
922,33.0,-246.0,-39.0,0
923,37.0,-244.0,-37.0,0
924,37.0,-243.0,-37.0,0
925,39.0,-243.0,-38.0,0
926,34.0,-244.0,-43.0,0
927,34.0,-247.0,-39.0,0
928,34.0,-250.0,-38.0,0
929,29.0,-251.0,-41.0,0
930,21.0,-256.0,-38.0,0
931,25.0,-260.0,-34.0,0
932,22.0,-257.0,-34.0,0
933,18.0,-262.0,-34.0,0
934,16.0,-257.0,-31.0,0
935,17.0,-258.0,-32.0,0
936,17.0,-258.0,-28.0,0
937,20.0,-262.0,-30.0,0
938,20.0,-253.0,-31.0,0
939,18.0,-254.0,-29.0,0
940,18.0,-253.0,-30.0,0
941,19.0,-255.0,-28.0,0
942,18.0,-257.0,-31.0,0
943,11.0,-253.0,-33.0,0
944,11.0,-254.0,-38.0,0
945,12.0,-253.0,-36.0,0
946,9.0,-252.0,-39.0,0
947,5.0,-253.0,-38.0,0
948,7.0,-253.0,-41.0,0
949,7.0,-252.0,-44.0,0
950,0.0,-253.0,-47.0,0
951,4.0,-253.0,-46.0,0
952,1.0,-254.0,-40.0,0
953,1.0,-255.0,-44.0,0
954,1.0,-250.0,-44.0,0
955,4.0,-254.0,-43.0,0
956,5.0,-254.0,-41.0,0
957,6.0,-253.0,-43.0,0
958,4.0,-249.0,-45.0,0
959,6.0,-249.0,-46.0,0
960,9.0,-249.0,-45.0,0
961,10.0,-247.0,-49.0,0
962,11.0,-249.0,-53.0,0
963,12.0,-249.0,-51.0,0
964,14.0,-251.0,-52.0,0
965,18.0,-252.0,-52.0,0
966,13.0,-248.0,-54.0,0
967,15.0,-252.0,-55.0,0
968,17.0,-253.0,-56.0,0
969,18.0,-253.0,-57.0,0
970,19.0,-255.0,-59.0,0
971,15.0,-256.0,-59.0,0
972,14.0,-257.0,-60.0,0
973,13.0,-256.0,-58.0,0
974,11.0,-254.0,-60.0,0
975,11.0,-254.0,-55.0,0
976,12.0,-253.0,-57.0,0
977,8.0,-256.0,-57.0,0
978,8.0,-256.0,-56.0,0
979,9.0,-255.0,-57.0,0
980,4.0,-257.0,-56.0,0
981,3.0,-256.0,-55.0,0
982,3.0,-256.0,-54.0,0
983,7.0,-258.0,-52.0,0
984,6.0,-258.0,-51.0,0
985,6.0,-258.0,-46.0,0
986,7.0,-256.0,-42.0,0
987,7.0,-254.0,-41.0,0
988,8.0,-257.0,-42.0,0
989,9.0,-256.0,-40.0,0
990,9.0,-255.0,-38.0,0
991,10.0,-255.0,-40.0,0
992,7.0,-257.0,-39.0,0
993,8.0,-255.0,-40.0,0
994,10.0,-255.0,-42.0,0
995,6.0,-255.0,-41.0,0
996,11.0,-257.0,-41.0,0
997,7.0,-255.0,-45.0,0
998,5.0,-254.0,-41.0,0
999,7.0,-257.0,-41.0,0
1000,6.0,-254.0,-46.0,0
1001,6.0,-254.0,-47.0,0
1002,4.0,-250.0,-48.0,0
1003,8.0,-253.0,-46.0,0
1004,4.0,-251.0,-48.0,0
1005,5.0,-251.0,-51.0,0
1006,3.0,-251.0,-56.0,0
1007,-1.0,-255.0,-56.0,0
1008,1.0,-254.0,-55.0,0
1009,1.0,-251.0,-57.0,0
1010,2.0,-255.0,-56.0,0
1011,-2.0,-252.0,-55.0,0
1012,-3.0,-251.0,-54.0,0
1013,0.0,-254.0,-55.0,0
1014,-4.0,-254.0,-54.0,0
1015,-9.0,-250.0,-55.0,0
1016,-4.0,-252.0,-51.0,0
1017,-1.0,-250.0,-52.0,0
1018,-6.0,-250.0,-51.0,0
1019,-6.0,-253.0,-51.0,0
1020,-3.0,-249.0,-51.0,0
1021,-4.0,-249.0,-55.0,0
1022,-2.0,-251.0,-49.0,0
1023,-2.0,-250.0,-47.0,0
1024,-2.0,-251.0,-48.0,0
1025,-2.0,-248.0,-46.0,0
1026,-2.0,-250.0,-46.0,0
1027,-3.0,-250.0,-46.0,0
1028,0.0,-254.0,-41.0,0
1029,0.0,-250.0,-40.0,0
1030,-2.0,-252.0,-44.0,0
1031,-6.0,-251.0,-42.0,0
1032,-3.0,-253.0,-41.0,0
1033,-3.0,-255.0,-38.0,0
1034,-3.0,-255.0,-45.0,0
1035,1.0,-256.0,-40.0,0
1036,-1.0,-256.0,-35.0,0
1037,1.0,-255.0,-38.0,0
1038,1.0,-258.0,-36.0,0
1039,-1.0,-254.0,-34.0,0
1040,4.0,-260.0,-39.0,0
1041,1.0,-258.0,-36.0,0
1042,2.0,-261.0,-35.0,0
1043,0.0,-260.0,-38.0,0
1044,5.0,-258.0,-36.0,0
1045,3.0,-257.0,-35.0,0
1046,0.0,-258.0,-39.0,0
1047,2.0,-259.0,-37.0,0
1048,2.0,-257.0,-35.0,0
1049,5.0,-259.0,-34.0,0
1050,6.0,-259.0,-35.0,0
1051,0.0,-259.0,-32.0,0
1052,-2.0,-257.0,-36.0,0
1053,1.0,-255.0,-33.0,0
1054,2.0,-256.0,-34.0,0
1055,1.0,-253.0,-30.0,0
1056,1.0,-250.0,-29.0,0
1057,1.0,-250.0,-30.0,0
1058,2.0,-252.0,-32.0,0
1059,3.0,-251.0,-32.0,0
1060,6.0,-251.0,-34.0,0
1061,4.0,-253.0,-29.0,0
1062,2.0,-252.0,-28.0,0
1063,2.0,-248.0,-33.0,0
1064,2.0,-250.0,-34.0,0
1065,2.0,-249.0,-34.0,0
1066,3.0,-249.0,-32.0,0
1067,1.0,-248.0,-35.0,0
1068,1.0,-249.0,-39.0,0
1069,2.0,-249.0,-32.0,0
1070,2.0,-252.0,-33.0,0
1071,0.0,-252.0,-33.0,0
1072,-1.0,-251.0,-35.0,0
1073,-2.0,-254.0,-34.0,0
1074,-5.0,-255.0,-32.0,0
1075,-5.0,-259.0,-30.0,0
1076,-6.0,-258.0,-30.0,0
1077,-7.0,-259.0,-29.0,0
1078,-8.0,-258.0,-32.0,0
1079,-7.0,-259.0,-29.0,0
1080,-9.0,-255.0,-30.0,0
1081,-7.0,-259.0,-28.0,0
1082,-12.0,-254.0,-32.0,0
1083,-5.0,-259.0,-31.0,0
1084,-8.0,-256.0,-35.0,0
1085,-3.0,-257.0,-35.0,0
1086,-3.0,-251.0,-38.0,0
1087,-4.0,-253.0,-36.0,0
1088,-2.0,-252.0,-36.0,0
1089,-2.0,-249.0,-39.0,0
1090,-2.0,-252.0,-41.0,0
1091,1.0,-251.0,-37.0,0
1092,2.0,-249.0,-36.0,0
1093,1.0,-249.0,-37.0,0
1094,0.0,-251.0,-36.0,0
1095,0.0,-249.0,-36.0,0
1096,-3.0,-250.0,-35.0,0
1097,3.0,-250.0,-34.0,0
1098,-3.0,-250.0,-33.0,0
1099,5.0,-251.0,-34.0,0
1100,1.0,-251.0,-34.0,0
1101,3.0,-251.0,-32.0,0
1102,1.0,-250.0,-31.0,0
1103,6.0,-252.0,-34.0,0
1104,6.0,-253.0,-35.0,0
1105,8.0,-254.0,-36.0,0
1106,4.0,-254.0,-32.0,0
1107,6.0,-253.0,-37.0,0
1108,4.0,-255.0,-33.0,0
1109,3.0,-255.0,-36.0,0
1110,1.0,-252.0,-33.0,0
1111,0.0,-251.0,-31.0,0
1112,-1.0,-257.0,-31.0,0
1113,-1.0,-254.0,-35.0,0
1114,-3.0,-253.0,-33.0,0
1115,-6.0,-252.0,-34.0,0
1116,-6.0,-252.0,-33.0,0
1117,-6.0,-251.0,-30.0,0
1118,-6.0,-253.0,-35.0,0
1119,-3.0,-257.0,-33.0,0
1120,-5.0,-253.0,-32.0,0
1121,0.0,-254.0,-30.0,0
1122,0.0,-255.0,-31.0,0
1123,1.0,-255.0,-30.0,0
1124,2.0,-255.0,-31.0,0
1125,5.0,-253.0,-31.0,0
1126,4.0,-255.0,-32.0,0
1127,7.0,-253.0,-34.0,0
1128,7.0,-255.0,-30.0,0
1129,10.0,-253.0,-27.0,0
1130,8.0,-253.0,-32.0,0
1131,10.0,-253.0,-32.0,0
1132,11.0,-251.0,-29.0,0
1133,6.0,-249.0,-26.0,0
1134,6.0,-254.0,-28.0,0
1135,8.0,-254.0,-32.0,0
1136,8.0,-253.0,-30.0,0
1137,6.0,-252.0,-30.0,0
1138,6.0,-253.0,-26.0,0
1139,3.0,-251.0,-29.0,0
1140,5.0,-256.0,-29.0,0
1141,6.0,-256.0,-27.0,0
1142,5.0,-254.0,-26.0,0
1143,7.0,-256.0,-25.0,0
1144,5.0,-253.0,-28.0,0
1145,10.0,-252.0,-25.0,0
1146,8.0,-251.0,-22.0,0
1147,9.0,-252.0,-27.0,0
1148,8.0,-251.0,-28.0,0
1149,6.0,-250.0,-17.0,0
1150,6.0,-252.0,-23.0,0
1151,11.0,-252.0,-26.0,0
1152,5.0,-251.0,-21.0,0
1153,7.0,-252.0,-28.0,0
1154,6.0,-251.0,-27.0,0
1155,5.0,-253.0,-23.0,0
1156,1.0,-252.0,-24.0,0
1157,5.0,-253.0,-27.0,0
1158,7.0,-256.0,-24.0,0
1159,5.0,-252.0,-26.0,0
1160,4.0,-252.0,-26.0,0
1161,5.0,-252.0,-23.0,0
1162,7.0,-254.0,-23.0,0
1163,5.0,-254.0,-26.0,0
1164,3.0,-251.0,-27.0,0
1165,3.0,-251.0,-28.0,0
1166,4.0,-254.0,-22.0,0
1167,0.0,-254.0,-27.0,0
1168,3.0,-253.0,-24.0,0
1169,4.0,-250.0,-25.0,0
1170,4.0,-253.0,-23.0,0
1171,5.0,-251.0,-25.0,0
1172,7.0,-257.0,-25.0,0
1173,6.0,-252.0,-25.0,0
1174,3.0,-252.0,-19.0,0
1175,3.0,-251.0,-24.0,0
1176,8.0,-254.0,-24.0,0
1177,4.0,-250.0,-21.0,0
1178,6.0,-255.0,-25.0,0
1179,7.0,-256.0,-28.0,0
1180,7.0,-252.0,-27.0,0
1181,4.0,-253.0,-29.0,0
1182,7.0,-255.0,-29.0,0
1183,6.0,-255.0,-28.0,0
1184,8.0,-255.0,-29.0,0
1185,6.0,-252.0,-31.0,0
1186,11.0,-254.0,-28.0,0
1187,5.0,-252.0,-28.0,0
1188,7.0,-254.0,-30.0,0
1189,4.0,-255.0,-27.0,0
1190,4.0,-254.0,-33.0,0
1191,2.0,-253.0,-30.0,0
1192,0.0,-251.0,-29.0,0
1193,2.0,-254.0,-26.0,0
1194,3.0,-253.0,-26.0,0
1195,1.0,-254.0,-29.0,0
1196,2.0,-254.0,-27.0,0
1197,2.0,-254.0,-28.0,0
1198,2.0,-253.0,-27.0,0
1199,2.0,-253.0,-23.0,0
1200,0.0,-252.0,-31.0,0
1201,-1.0,-253.0,-26.0,0
1202,1.0,-256.0,-30.0,0
1203,0.0,-253.0,-28.0,0
1204,0.0,-252.0,-26.0,0
1205,2.0,-256.0,-27.0,0
1206,1.0,-251.0,-27.0,0
1207,5.0,-253.0,-29.0,0
1208,2.0,-253.0,-27.0,0
1209,-1.0,-251.0,-28.0,0
1210,4.0,-252.0,-26.0,0
1211,2.0,-251.0,-26.0,0
1212,4.0,-253.0,-25.0,0
1213,2.0,-253.0,-26.0,0
1214,3.0,-253.0,-24.0,0
1215,2.0,-251.0,-24.0,0
1216,4.0,-249.0,-23.0,0
1217,3.0,-252.0,-28.0,0
1218,2.0,-253.0,-23.0,0
1219,2.0,-254.0,-26.0,0
1220,4.0,-254.0,-20.0,0
1221,2.0,-253.0,-19.0,0
1222,6.0,-254.0,-21.0,0
1223,2.0,-253.0,-24.0,0
1224,3.0,-252.0,-21.0,0
1225,1.0,-254.0,-22.0,0
1226,5.0,-256.0,-20.0,0
1227,5.0,-256.0,-19.0,0
1228,5.0,-254.0,-17.0,0
1229,6.0,-252.0,-20.0,0
1230,5.0,-256.0,-19.0,0
1231,5.0,-252.0,-17.0,0
1232,5.0,-252.0,-17.0,0
1233,2.0,-252.0,-13.0,0
1234,4.0,-252.0,-19.0,0
1235,4.0,-253.0,-15.0,0
1236,6.0,-251.0,-17.0,0
1237,4.0,-251.0,-17.0,0
1238,6.0,-252.0,-15.0,0
1239,6.0,-253.0,-13.0,0
1240,5.0,-253.0,-17.0,0
1241,5.0,-253.0,-18.0,0
1242,5.0,-252.0,-19.0,0
1243,5.0,-252.0,-20.0,0
1244,6.0,-253.0,-21.0,0
1245,6.0,-251.0,-16.0,0
1246,6.0,-252.0,-17.0,0
1247,1.0,-252.0,-16.0,0
1248,5.0,-250.0,-14.0,0
1249,4.0,-251.0,-14.0,0
1250,4.0,-251.0,-19.0,0
1251,2.0,-248.0,-14.0,0
1252,4.0,-251.0,-18.0,0
1253,6.0,-252.0,-14.0,0
1254,7.0,-253.0,-15.0,0
1255,2.0,-253.0,-20.0,0
1256,4.0,-248.0,-17.0,0
1257,4.0,-252.0,-18.0,0
1258,6.0,-254.0,-18.0,0
1259,6.0,-252.0,-19.0,0
1260,6.0,-255.0,-22.0,0
1261,4.0,-253.0,-23.0,0
1262,3.0,-250.0,-22.0,0
1263,8.0,-253.0,-25.0,0
1264,5.0,-252.0,-21.0,0
1265,5.0,-255.0,-20.0,0
1266,6.0,-251.0,-23.0,0
1267,-1.0,-253.0,-18.0,0
1268,3.0,-250.0,-18.0,0
1269,4.0,-253.0,-15.0,0
1270,2.0,-251.0,-14.0,0
1271,2.0,-250.0,-13.0,0
1272,1.0,-247.0,-17.0,0
1273,3.0,-251.0,-14.0,0
1274,4.0,-254.0,-13.0,0
1275,4.0,-253.0,-14.0,0
1276,4.0,-250.0,-17.0,0
1277,6.0,-249.0,-14.0,0
1278,4.0,-252.0,-14.0,0
1279,0.0,-250.0,-12.0,0
1280,6.0,-251.0,-12.0,0
1281,5.0,-255.0,-9.0,0
1282,3.0,-253.0,-18.0,0
1283,8.0,-252.0,-18.0,0
1284,7.0,-253.0,-15.0,0
1285,5.0,-254.0,-17.0,0
1286,8.0,-256.0,-14.0,0
1287,3.0,-251.0,-17.0,0
1288,5.0,-252.0,-18.0,0
1289,5.0,-254.0,-16.0,0
1290,7.0,-250.0,-17.0,0
1291,6.0,-252.0,-18.0,0
1292,3.0,-251.0,-15.0,0
1293,7.0,-255.0,-17.0,0
1294,9.0,-255.0,-19.0,0
1295,6.0,-253.0,-19.0,0
1296,7.0,-256.0,-19.0,0
1297,6.0,-254.0,-22.0,0
1298,7.0,-254.0,-22.0,0
1299,10.0,-256.0,-21.0,0
1300,7.0,-253.0,-22.0,0
1301,7.0,-254.0,-19.0,0
1302,8.0,-250.0,-23.0,0
1303,6.0,-250.0,-18.0,0
1304,9.0,-251.0,-21.0,0
1305,8.0,-252.0,-16.0,0
1306,9.0,-251.0,-20.0,0
1307,9.0,-254.0,-18.0,0
1308,8.0,-250.0,-19.0,0
1309,10.0,-257.0,-15.0,0
1310,8.0,-251.0,-17.0,0
1311,6.0,-252.0,-17.0,0
1312,4.0,-254.0,-16.0,0
1313,6.0,-255.0,-17.0,0
1314,8.0,-255.0,-23.0,0
1315,1.0,-250.0,-19.0,0
1316,5.0,-255.0,-18.0,0
1317,5.0,-252.0,-18.0,0
1318,5.0,-251.0,-19.0,0
1319,5.0,-252.0,-16.0,0
1320,4.0,-252.0,-22.0,0
1321,6.0,-253.0,-20.0,0
1322,4.0,-252.0,-22.0,0
1323,5.0,-255.0,-19.0,0
1324,5.0,-253.0,-17.0,0
1325,6.0,-253.0,-18.0,0
1326,5.0,-252.0,-19.0,0
1327,3.0,-253.0,-20.0,0
1328,5.0,-253.0,-19.0,0
1329,4.0,-252.0,-19.0,0
1330,5.0,-252.0,-20.0,0
1331,5.0,-254.0,-16.0,0
1332,5.0,-255.0,-17.0,0
1333,4.0,-253.0,-14.0,0
1334,2.0,-253.0,-19.0,0
1335,5.0,-254.0,-20.0,0
1336,3.0,-251.0,-21.0,0
1337,5.0,-252.0,-18.0,0
1338,3.0,-252.0,-21.0,0
1339,2.0,-252.0,-21.0,0
1340,5.0,-257.0,-20.0,0
1341,6.0,-253.0,-19.0,0
1342,4.0,-254.0,-19.0,0
1343,4.0,-254.0,-22.0,0
1344,9.0,-258.0,-17.0,0
1345,3.0,-253.0,-23.0,0
1346,5.0,-252.0,-20.0,0
1347,5.0,-252.0,-19.0,0
1348,5.0,-251.0,-22.0,0
1349,6.0,-254.0,-22.0,0
1350,3.0,-253.0,-18.0,0
1351,2.0,-251.0,-19.0,0
1352,6.0,-253.0,-21.0,0
1353,6.0,-254.0,-20.0,0
1354,3.0,-255.0,-27.0,0
1355,5.0,-255.0,-22.0,0
1356,3.0,-255.0,-22.0,0
1357,6.0,-255.0,-25.0,0
1358,7.0,-257.0,-24.0,0
1359,5.0,-254.0,-24.0,0
1360,6.0,-255.0,-25.0,0
1361,5.0,-256.0,-27.0,0
1362,5.0,-254.0,-23.0,0
1363,5.0,-257.0,-25.0,0
1364,7.0,-258.0,-23.0,0
1365,3.0,-253.0,-19.0,0
1366,5.0,-256.0,-19.0,0
1367,7.0,-255.0,-20.0,0
1368,5.0,-253.0,-19.0,0
1369,9.0,-254.0,-19.0,0
1370,5.0,-252.0,-17.0,0
1371,5.0,-251.0,-20.0,0
1372,6.0,-249.0,-18.0,0
1373,7.0,-252.0,-14.0,0
1374,5.0,-248.0,-17.0,0
1375,6.0,-247.0,-15.0,0
1376,9.0,-248.0,-19.0,0
1377,5.0,-247.0,-17.0,0
1378,6.0,-249.0,-19.0,0
1379,7.0,-250.0,-24.0,0
1380,4.0,-252.0,-16.0,0
1381,6.0,-252.0,-23.0,0
1382,5.0,-251.0,-19.0,0
1383,8.0,-254.0,-19.0,0
1384,5.0,-252.0,-21.0,0
1385,8.0,-254.0,-21.0,0
1386,5.0,-252.0,-18.0,0
1387,7.0,-256.0,-17.0,0
1388,5.0,-253.0,-19.0,0
1389,4.0,-252.0,-19.0,0
1390,6.0,-254.0,-16.0,0
1391,4.0,-252.0,-18.0,0
1392,5.0,-252.0,-16.0,0
1393,5.0,-251.0,-19.0,0
1394,4.0,-252.0,-19.0,0
1395,7.0,-252.0,-16.0,0
1396,6.0,-253.0,-19.0,0
1397,7.0,-251.0,-19.0,0
1398,1.0,-253.0,-21.0,0
1399,4.0,-250.0,-18.0,0
1400,4.0,-254.0,-21.0,0
1401,3.0,-253.0,-22.0,0
1402,1.0,-252.0,-22.0,0
1403,3.0,-253.0,-21.0,0
1404,6.0,-252.0,-18.0,0
1405,5.0,-250.0,-19.0,0
1406,4.0,-255.0,-20.0,0
1407,6.0,-254.0,-17.0,0
1408,4.0,-254.0,-20.0,0
1409,0.0,-252.0,-20.0,0
1410,2.0,-252.0,-19.0,0
1411,3.0,-253.0,-19.0,0
1412,3.0,-254.0,-18.0,0
1413,2.0,-252.0,-20.0,0
1414,4.0,-252.0,-22.0,0
1415,3.0,-255.0,-20.0,0
1416,3.0,-253.0,-23.0,0
1417,2.0,-253.0,-18.0,0
1418,0.0,-250.0,-21.0,0
1419,4.0,-253.0,-21.0,0
1420,5.0,-255.0,-20.0,0
1421,2.0,-253.0,-23.0,0
1422,4.0,-254.0,-20.0,0
1423,2.0,-253.0,-24.0,0
1424,4.0,-255.0,-21.0,0
1425,3.0,-253.0,-23.0,0
1426,3.0,-250.0,-22.0,0
1427,2.0,-254.0,-23.0,0
1428,1.0,-257.0,-21.0,0
1429,4.0,-253.0,-22.0,0
1430,3.0,-254.0,-18.0,0
1431,4.0,-253.0,-23.0,0
1432,3.0,-256.0,-21.0,0
1433,3.0,-254.0,-21.0,0
1434,4.0,-257.0,-20.0,0
1435,5.0,-252.0,-20.0,0
1436,6.0,-256.0,-22.0,0
1437,5.0,-254.0,-24.0,0
1438,4.0,-251.0,-20.0,0
1439,3.0,-253.0,-20.0,0
1440,6.0,-254.0,-20.0,0
1441,3.0,-253.0,-20.0,0
1442,2.0,-250.0,-17.0,0
1443,4.0,-252.0,-25.0,0
1444,6.0,-252.0,-16.0,0
1445,6.0,-253.0,-16.0,0
1446,5.0,-253.0,-20.0,0
1447,6.0,-254.0,-20.0,0
1448,4.0,-252.0,-17.0,0
1449,5.0,-254.0,-23.0,0
1450,5.0,-258.0,-19.0,0
1451,4.0,-259.0,-24.0,0
1452,8.0,-256.0,-27.0,0
1453,2.0,-254.0,-24.0,0
1454,2.0,-252.0,-23.0,0
1455,5.0,-255.0,-26.0,0
1456,5.0,-255.0,-19.0,0
1457,6.0,-254.0,-20.0,0
1458,2.0,-252.0,-18.0,0
1459,3.0,-250.0,-20.0,0
1460,7.0,-251.0,-22.0,0
1461,6.0,-249.0,-19.0,0
1462,3.0,-252.0,-18.0,0
1463,5.0,-252.0,-19.0,0
1464,5.0,-251.0,-20.0,0
1465,4.0,-250.0,-17.0,0
1466,7.0,-256.0,-19.0,0
1467,3.0,-254.0,-16.0,0
1468,6.0,-254.0,-16.0,0
1469,5.0,-250.0,-17.0,0
1470,6.0,-254.0,-18.0,0
1471,6.0,-256.0,-19.0,0
1472,4.0,-253.0,-20.0,0
1473,4.0,-251.0,-18.0,0
1474,7.0,-253.0,-20.0,0
1475,4.0,-258.0,-20.0,0
1476,3.0,-254.0,-21.0,0
1477,3.0,-253.0,-23.0,0
1478,2.0,-252.0,-20.0,0
1479,7.0,-255.0,-21.0,0
1480,6.0,-255.0,-19.0,0
1481,5.0,-255.0,-21.0,0
1482,4.0,-256.0,-17.0,0
1483,5.0,-252.0,-29.0,0
1484,6.0,-256.0,-20.0,0
1485,5.0,-253.0,-23.0,0
1486,2.0,-251.0,-22.0,0
1487,4.0,-252.0,-20.0,0
1488,6.0,-254.0,-21.0,0
1489,3.0,-254.0,-24.0,0
1490,3.0,-256.0,-21.0,0
1491,3.0,-253.0,-20.0,0
1492,4.0,-254.0,-20.0,0
1493,6.0,-252.0,-17.0,0
1494,2.0,-252.0,-18.0,0
1495,6.0,-254.0,-22.0,0
1496,5.0,-251.0,-20.0,0
1497,0.0,-252.0,-15.0,0
1498,4.0,-254.0,-15.0,0
1499,3.0,-252.0,-14.0,0
1500,4.0,-250.0,-18.0,0
1501,1.0,-251.0,-16.0,0
1502,6.0,-252.0,-25.0,0
1503,4.0,-254.0,-17.0,0
1504,4.0,-253.0,-16.0,0
1505,7.0,-256.0,-17.0,0
1506,3.0,-253.0,-18.0,0
1507,3.0,-251.0,-21.0,0
1508,5.0,-254.0,-17.0,0
1509,6.0,-254.0,-14.0,0
1510,5.0,-254.0,-16.0,0
1511,6.0,-253.0,-18.0,0
1512,1.0,-255.0,-14.0,0
1513,4.0,-254.0,-18.0,0
1514,5.0,-251.0,-18.0,0
1515,3.0,-252.0,-13.0,0
1516,6.0,-252.0,-14.0,0
1517,4.0,-252.0,-16.0,0
1518,3.0,-253.0,-18.0,0
1519,3.0,-252.0,-20.0,0
1520,2.0,-251.0,-15.0,0
1521,3.0,-252.0,-18.0,0
1522,3.0,-252.0,-12.0,0
1523,3.0,-254.0,-14.0,0
1524,5.0,-253.0,-15.0,0
1525,4.0,-255.0,-18.0,0
1526,5.0,-252.0,-15.0,0
1527,3.0,-253.0,-17.0,0
1528,4.0,-252.0,-14.0,0
1529,6.0,-252.0,-16.0,0
1530,5.0,-253.0,-18.0,0
1531,8.0,-253.0,-16.0,0
1532,5.0,-252.0,-14.0,0
1533,7.0,-251.0,-14.0,0
1534,4.0,-250.0,-15.0,0
1535,7.0,-251.0,-13.0,0
1536,6.0,-250.0,-17.0,0
1537,9.0,-254.0,-18.0,0
1538,4.0,-250.0,-13.0,0
1539,5.0,-250.0,-18.0,0
1540,5.0,-250.0,-14.0,0
1541,3.0,-252.0,-13.0,0
1542,3.0,-253.0,-18.0,0
1543,5.0,-252.0,-18.0,0
1544,5.0,-253.0,-18.0,0
1545,6.0,-253.0,-14.0,0
1546,4.0,-251.0,-18.0,0
1547,4.0,-254.0,-17.0,0
1548,5.0,-253.0,-17.0,0
1549,3.0,-253.0,-14.0,0
1550,2.0,-253.0,-14.0,0
1551,3.0,-250.0,-16.0,0
1552,4.0,-250.0,-17.0,0
1553,5.0,-252.0,-18.0,0
1554,3.0,-254.0,-17.0,0
1555,4.0,-253.0,-19.0,0
1556,6.0,-253.0,-13.0,0
1557,2.0,-251.0,-16.0,0
1558,7.0,-252.0,-16.0,0
1559,2.0,-251.0,-18.0,0
1560,5.0,-254.0,-16.0,0
1561,6.0,-253.0,-14.0,0
1562,6.0,-253.0,-18.0,0
1563,5.0,-252.0,-15.0,0
1564,6.0,-251.0,-17.0,0
1565,5.0,-251.0,-15.0,0
1566,5.0,-252.0,-13.0,0
1567,4.0,-255.0,-14.0,0
1568,4.0,-251.0,-15.0,0
1569,2.0,-251.0,-15.0,0
1570,4.0,-254.0,-18.0,0
1571,3.0,-251.0,-12.0,0
1572,4.0,-253.0,-16.0,0
1573,3.0,-250.0,-16.0,0
1574,5.0,-255.0,-17.0,0
1575,5.0,-253.0,-15.0,0
1576,3.0,-252.0,-19.0,0
1577,5.0,-254.0,-19.0,0
1578,6.0,-253.0,-14.0,0
1579,5.0,-250.0,-17.0,0
1580,6.0,-252.0,-17.0,0
1581,4.0,-251.0,-18.0,0
1582,6.0,-249.0,-17.0,0
1583,5.0,-253.0,-17.0,0
1584,5.0,-251.0,-12.0,0
1585,3.0,-253.0,-15.0,0
1586,5.0,-252.0,-16.0,0
1587,6.0,-253.0,-19.0,0
1588,6.0,-254.0,-20.0,0
1589,4.0,-255.0,-17.0,0
1590,7.0,-253.0,-16.0,0
1591,4.0,-252.0,-16.0,0
1592,5.0,-254.0,-18.0,0
1593,8.0,-256.0,-15.0,0
1594,5.0,-253.0,-14.0,0
1595,8.0,-253.0,-15.0,0
1596,3.0,-252.0,-13.0,0
1597,5.0,-251.0,-16.0,0
1598,3.0,-252.0,-18.0,0
1599,4.0,-250.0,-15.0,0
1600,6.0,-253.0,-13.0,0
1601,4.0,-253.0,-17.0,0
1602,6.0,-252.0,-16.0,0
1603,7.0,-248.0,-14.0,0
1604,6.0,-253.0,-17.0,0
1605,5.0,-253.0,-17.0,0
1606,6.0,-251.0,-14.0,0
1607,3.0,-251.0,-17.0,0
1608,5.0,-248.0,-15.0,0
1609,3.0,-252.0,-15.0,0
1610,3.0,-254.0,-16.0,0
1611,8.0,-256.0,-17.0,0
1612,3.0,-250.0,-14.0,0
1613,7.0,-252.0,-19.0,0
1614,4.0,-258.0,-18.0,0
1615,4.0,-248.0,-22.0,0
1616,6.0,-254.0,-16.0,0
1617,3.0,-252.0,-19.0,0
1618,6.0,-253.0,-18.0,0
1619,3.0,-251.0,-18.0,0
1620,4.0,-253.0,-14.0,0
1621,6.0,-250.0,-14.0,0
1622,5.0,-250.0,-20.0,0
1623,5.0,-249.0,-20.0,0
1624,5.0,-252.0,-17.0,0
1625,5.0,-251.0,-14.0,0
1626,3.0,-255.0,-13.0,0
1627,4.0,-254.0,-11.0,0
1628,5.0,-253.0,-16.0,0
1629,2.0,-256.0,-17.0,0
1630,4.0,-255.0,-20.0,0
1631,5.0,-253.0,-16.0,0
1632,8.0,-254.0,-19.0,0
1633,3.0,-250.0,-20.0,0
1634,5.0,-253.0,-18.0,0
1635,5.0,-254.0,-18.0,0
1636,3.0,-249.0,-20.0,0
1637,2.0,-251.0,-14.0,0
1638,7.0,-252.0,-13.0,0
1639,2.0,-250.0,-13.0,0
1640,2.0,-252.0,-15.0,0
1641,2.0,-255.0,-13.0,0
1642,3.0,-254.0,-16.0,0
1643,4.0,-251.0,-13.0,0
1644,5.0,-255.0,-14.0,0
1645,4.0,-254.0,-14.0,0
1646,2.0,-254.0,-17.0,0
1647,5.0,-253.0,-14.0,0
1648,4.0,-251.0,-14.0,0
1649,4.0,-251.0,-20.0,0
1650,5.0,-252.0,-18.0,0
1651,6.0,-251.0,-15.0,0
1652,4.0,-249.0,-18.0,0
1653,4.0,-255.0,-20.0,0
1654,4.0,-256.0,-15.0,0
1655,2.0,-253.0,-16.0,0
1656,5.0,-260.0,-22.0,0
1657,-2.0,-246.0,-8.0,0
1658,2.0,-254.0,-15.0,0
1659,3.0,-254.0,-18.0,0
1660,1.0,-254.0,-17.0,0
1661,4.0,-253.0,-13.0,0
1662,3.0,-250.0,-13.0,0
1663,5.0,-251.0,-15.0,0
1664,6.0,-254.0,-17.0,0
1665,3.0,-251.0,-12.0,0
1666,4.0,-249.0,-15.0,0
1667,4.0,-252.0,-15.0,0
1668,5.0,-251.0,-13.0,0
1669,1.0,-248.0,-14.0,0
1670,7.0,-253.0,-16.0,0
1671,6.0,-250.0,-14.0,0
1672,2.0,-252.0,-12.0,0
1673,5.0,-249.0,-14.0,0
1674,5.0,-252.0,-12.0,0
1675,7.0,-253.0,-11.0,0
1676,7.0,-253.0,-13.0,0
1677,5.0,-253.0,-13.0,0
1678,4.0,-251.0,-13.0,0
1679,2.0,-255.0,-10.0,0
1680,4.0,-254.0,-18.0,0
1681,3.0,-251.0,-13.0,0
1682,4.0,-255.0,-13.0,0
1683,5.0,-253.0,-11.0,0
1684,2.0,-252.0,-18.0,0
1685,1.0,-254.0,-11.0,0
1686,7.0,-255.0,-13.0,0
1687,7.0,-254.0,-11.0,0
1688,3.0,-254.0,-14.0,0
1689,5.0,-253.0,-12.0,0
1690,3.0,-252.0,-15.0,0
1691,2.0,-251.0,-14.0,0
1692,4.0,-253.0,-14.0,0
1693,5.0,-255.0,-14.0,0
1694,4.0,-251.0,-11.0,0
1695,4.0,-250.0,-13.0,0
1696,3.0,-251.0,-14.0,0
1697,5.0,-250.0,-15.0,0
1698,5.0,-252.0,-11.0,0
1699,0.0,-251.0,-14.0,0
1700,3.0,-249.0,-11.0,0
1701,-1.0,-251.0,-15.0,0
1702,8.0,-254.0,-9.0,0
1703,6.0,-252.0,-13.0,0
1704,3.0,-253.0,-14.0,0
1705,2.0,-252.0,-14.0,0
1706,5.0,-251.0,-10.0,0
1707,5.0,-256.0,-11.0,0
1708,3.0,-253.0,-13.0,0
1709,4.0,-251.0,-13.0,0
1710,2.0,-250.0,-12.0,0
1711,5.0,-253.0,-14.0,0
1712,5.0,-253.0,-15.0,0
1713,5.0,-251.0,-16.0,0
1714,4.0,-253.0,-14.0,0
1715,8.0,-253.0,-17.0,0
1716,3.0,-254.0,-19.0,0
1717,3.0,-253.0,-13.0,0
1718,4.0,-255.0,-15.0,0
1719,3.0,-254.0,-14.0,0
1720,6.0,-254.0,-13.0,0
1721,4.0,-255.0,-15.0,0
1722,8.0,-251.0,-12.0,0
1723,4.0,-253.0,-15.0,0
1724,4.0,-255.0,-15.0,0
1725,3.0,-255.0,-13.0,0
1726,4.0,-252.0,-21.0,0
1727,3.0,-252.0,-16.0,0
1728,4.0,-252.0,-15.0,0
1729,4.0,-251.0,-13.0,0
1730,0.0,-251.0,-13.0,0
1731,3.0,-253.0,-13.0,0
1732,1.0,-252.0,-14.0,0
1733,2.0,-253.0,-16.0,0
1734,5.0,-255.0,-13.0,0
1735,3.0,-252.0,-15.0,0
1736,2.0,-249.0,-14.0,0
1737,5.0,-253.0,-13.0,0
1738,8.0,-252.0,-12.0,0
1739,5.0,-254.0,-13.0,0
1740,3.0,-252.0,-14.0,0
1741,5.0,-252.0,-12.0,0
1742,5.0,-253.0,-10.0,0
1743,6.0,-254.0,-13.0,0
1744,5.0,-252.0,-13.0,0
1745,3.0,-250.0,-14.0,0
1746,2.0,-254.0,-12.0,0
1747,2.0,-252.0,-13.0,0
1748,7.0,-254.0,-11.0,0
1749,6.0,-251.0,-14.0,0
1750,6.0,-253.0,-17.0,0
1751,5.0,-252.0,-14.0,0
1752,4.0,-252.0,-14.0,0
1753,5.0,-251.0,-17.0,0
1754,4.0,-255.0,-10.0,0
1755,4.0,-252.0,-14.0,0
1756,5.0,-250.0,-7.0,0
1757,2.0,-255.0,-15.0,0
1758,3.0,-251.0,-18.0,0
1759,6.0,-253.0,-15.0,0
1760,5.0,-252.0,-16.0,0
1761,7.0,-254.0,-11.0,0
1762,4.0,-250.0,-14.0,0
1763,4.0,-252.0,-10.0,0
1764,3.0,-255.0,-14.0,0
1765,8.0,-252.0,-14.0,0
1766,2.0,-251.0,-10.0,0
1767,3.0,-251.0,-13.0,0
1768,5.0,-254.0,-14.0,0
1769,6.0,-254.0,-12.0,0
1770,7.0,-255.0,-13.0,0
1771,6.0,-254.0,-10.0,0
1772,2.0,-250.0,-11.0,0
1773,3.0,-249.0,-12.0,0
1774,5.0,-251.0,-10.0,0
1775,5.0,-252.0,-16.0,0
1776,4.0,-252.0,-15.0,0
1777,4.0,-253.0,-12.0,0
1778,1.0,-251.0,-13.0,0
1779,4.0,-255.0,-10.0,0
1780,6.0,-253.0,-11.0,0
1781,5.0,-256.0,-14.0,0
1782,4.0,-251.0,-12.0,0
1783,2.0,-249.0,-13.0,0
1784,3.0,-252.0,-13.0,0
1785,5.0,-251.0,-14.0,0
1786,4.0,-252.0,-16.0,0
1787,3.0,-250.0,-15.0,0
1788,4.0,-253.0,-14.0,0
1789,6.0,-251.0,-11.0,0
1790,6.0,-252.0,-16.0,0
1791,5.0,-255.0,-12.0,0
1792,7.0,-254.0,-11.0,0
1793,7.0,-253.0,-13.0,0
1794,4.0,-253.0,-12.0,0
1795,3.0,-252.0,-14.0,0
1796,3.0,-252.0,-14.0,0
1797,3.0,-253.0,-11.0,0
1798,3.0,-251.0,-12.0,0
1799,2.0,-250.0,-12.0,0
1800,6.0,-250.0,-15.0,0
1801,4.0,-250.0,-15.0,0
1802,5.0,-250.0,-11.0,0
1803,7.0,-252.0,-11.0,0
1804,6.0,-251.0,-11.0,0
1805,5.0,-254.0,-14.0,0
1806,5.0,-251.0,-8.0,0
1807,5.0,-256.0,-13.0,0
1808,7.0,-256.0,-13.0,0
1809,3.0,-252.0,-7.0,0
1810,9.0,-255.0,-14.0,0
1811,2.0,-257.0,-14.0,0
1812,1.0,-255.0,-15.0,0
1813,1.0,-254.0,-14.0,0
1814,4.0,-253.0,-17.0,0
1815,6.0,-249.0,-17.0,0
1816,3.0,-250.0,-15.0,0
1817,6.0,-250.0,-15.0,0
1818,4.0,-251.0,-14.0,0
1819,5.0,-251.0,-14.0,0
1820,4.0,-252.0,-12.0,0
1821,2.0,-252.0,-11.0,0
1822,2.0,-252.0,-9.0,0
1823,2.0,-252.0,-13.0,0
1824,2.0,-251.0,-11.0,0
1825,3.0,-250.0,-10.0,0
1826,6.0,-253.0,-10.0,0
1827,4.0,-254.0,-13.0,0
1828,7.0,-251.0,-12.0,0
1829,5.0,-251.0,-12.0,0
1830,3.0,-251.0,-13.0,0
1831,6.0,-252.0,-12.0,0
1832,3.0,-250.0,-13.0,0
1833,3.0,-249.0,-6.0,0
1834,4.0,-251.0,-12.0,0
1835,5.0,-252.0,-14.0,0
1836,8.0,-252.0,-12.0,0
1837,1.0,-252.0,-11.0,0
1838,7.0,-253.0,-10.0,0
1839,4.0,-256.0,-9.0,0
1840,5.0,-252.0,-17.0,0
1841,4.0,-249.0,-15.0,0
1842,4.0,-253.0,-15.0,0
1843,2.0,-255.0,-8.0,0
1844,6.0,-251.0,-10.0,0
1845,0.0,-251.0,-15.0,0
1846,3.0,-256.0,-15.0,0
1847,4.0,-253.0,-16.0,0
1848,4.0,-253.0,-13.0,0
1849,6.0,-254.0,-8.0,0
1850,3.0,-254.0,-11.0,0
1851,6.0,-253.0,-12.0,0
1852,2.0,-252.0,-13.0,0
1853,3.0,-251.0,-11.0,0
1854,3.0,-253.0,-14.0,0
1855,4.0,-252.0,-12.0,0
1856,3.0,-250.0,-13.0,0
1857,5.0,-251.0,-10.0,0
1858,3.0,-246.0,-8.0,0
1859,1.0,-250.0,-8.0,0
1860,6.0,-250.0,-13.0,0
1861,5.0,-252.0,-12.0,0
1862,1.0,-253.0,-10.0,0
1863,5.0,-254.0,-8.0,0
1864,5.0,-255.0,-8.0,0
1865,1.0,-251.0,-10.0,0
1866,6.0,-253.0,-13.0,0
1867,3.0,-251.0,-14.0,0
1868,0.0,-254.0,-13.0,0
1869,1.0,-249.0,-11.0,0
1870,5.0,-251.0,-16.0,0
1871,4.0,-250.0,-13.0,0
1872,5.0,-253.0,-10.0,0
1873,4.0,-252.0,-18.0,0
1874,3.0,-252.0,-11.0,0
1875,2.0,-250.0,-14.0,0
1876,3.0,-253.0,-14.0,0
1877,5.0,-254.0,-15.0,0
1878,3.0,-252.0,-13.0,0
1879,3.0,-251.0,-13.0,0
1880,2.0,-250.0,-9.0,0
1881,6.0,-251.0,-10.0,0
1882,4.0,-251.0,-12.0,0
1883,4.0,-251.0,-15.0,0
1884,4.0,-252.0,-14.0,0
1885,3.0,-254.0,-12.0,0
1886,4.0,-253.0,-11.0,0
1887,3.0,-250.0,-12.0,0
1888,2.0,-253.0,-11.0,0
1889,5.0,-251.0,-11.0,0
1890,6.0,-253.0,-15.0,0
1891,3.0,-251.0,-12.0,0
1892,3.0,-253.0,-7.0,0
1893,2.0,-253.0,-9.0,0
1894,1.0,-254.0,-10.0,0
1895,4.0,-254.0,-11.0,0
1896,2.0,-251.0,-17.0,0
1897,4.0,-252.0,-12.0,0
1898,5.0,-254.0,-15.0,0
1899,5.0,-253.0,-11.0,0
1900,3.0,-252.0,-12.0,0
1901,4.0,-253.0,-10.0,0
1902,5.0,-251.0,-13.0,0
1903,5.0,-250.0,-12.0,0
1904,4.0,-252.0,-12.0,0
1905,4.0,-253.0,-13.0,0
1906,2.0,-251.0,-14.0,0
1907,2.0,-254.0,-10.0,0
1908,2.0,-253.0,-14.0,0
1909,2.0,-253.0,-11.0,0
1910,5.0,-252.0,-15.0,0
1911,3.0,-252.0,-16.0,0
1912,2.0,-252.0,-15.0,0
1913,5.0,-252.0,-12.0,0
1914,6.0,-258.0,-13.0,0
1915,6.0,-252.0,-12.0,0
1916,4.0,-252.0,-15.0,0
1917,5.0,-253.0,-15.0,0
1918,3.0,-253.0,-11.0,0
1919,3.0,-250.0,-11.0,0
1920,4.0,-251.0,-11.0,0
1921,5.0,-254.0,-12.0,0
1922,2.0,-252.0,-13.0,0
1923,3.0,-253.0,-13.0,0
1924,1.0,-254.0,-19.0,0
1925,1.0,-252.0,-14.0,0
1926,6.0,-252.0,-14.0,0
1927,3.0,-253.0,-13.0,0
1928,2.0,-250.0,-13.0,0
1929,2.0,-253.0,-16.0,0
1930,6.0,-254.0,-18.0,0
1931,6.0,-252.0,-14.0,0
1932,5.0,-253.0,-14.0,0
1933,6.0,-252.0,-12.0,0
1934,1.0,-250.0,-15.0,0
1935,6.0,-250.0,-14.0,0
1936,5.0,-250.0,-15.0,0
1937,3.0,-252.0,-15.0,0
1938,7.0,-255.0,-14.0,0
1939,2.0,-253.0,-12.0,0
1940,3.0,-250.0,-16.0,0
1941,6.0,-256.0,-12.0,0
1942,5.0,-252.0,-14.0,0
1943,1.0,-251.0,-13.0,0
1944,3.0,-253.0,-13.0,0
1945,6.0,-253.0,-13.0,0
1946,5.0,-252.0,-14.0,0
1947,5.0,-252.0,-12.0,0
1948,4.0,-255.0,-10.0,0
1949,3.0,-250.0,-16.0,0
1950,0.0,-251.0,-14.0,0
1951,5.0,-252.0,-15.0,0
1952,4.0,-258.0,-12.0,0
1953,4.0,-252.0,-10.0,0
1954,4.0,-252.0,-16.0,0
1955,5.0,-254.0,-18.0,0
1956,3.0,-255.0,-18.0,0
1957,4.0,-252.0,-15.0,0
1958,2.0,-252.0,-12.0,0
1959,6.0,-251.0,-15.0,0
1960,4.0,-254.0,-13.0,0
1961,2.0,-252.0,-11.0,0
1962,3.0,-251.0,-13.0,0
1963,4.0,-250.0,-15.0,0
1964,6.0,-251.0,-15.0,0
1965,9.0,-251.0,-17.0,0
1966,5.0,-251.0,-10.0,0
1967,1.0,-252.0,-14.0,0
1968,0.0,-252.0,-13.0,0
1969,4.0,-253.0,-15.0,0
1970,1.0,-256.0,-15.0,0
1971,6.0,-251.0,-14.0,0
1972,2.0,-252.0,-15.0,0
1973,6.0,-256.0,-12.0,0
1974,2.0,-252.0,-12.0,0
1975,3.0,-254.0,-14.0,0
1976,3.0,-251.0,-17.0,0
1977,3.0,-251.0,-12.0,0
1978,5.0,-252.0,-13.0,0
1979,8.0,-252.0,-16.0,0
1980,5.0,-252.0,-12.0,0
1981,3.0,-251.0,-17.0,0
1982,4.0,-253.0,-15.0,0
1983,6.0,-254.0,-14.0,0
1984,5.0,-254.0,-15.0,0
1985,3.0,-255.0,-18.0,0
1986,3.0,-255.0,-11.0,0
1987,4.0,-253.0,-14.0,0
1988,3.0,-254.0,-11.0,0
1989,5.0,-258.0,-15.0,0
1990,4.0,-257.0,-15.0,0
1991,1.0,-255.0,-18.0,0
1992,2.0,-252.0,-17.0,0
1993,2.0,-254.0,-14.0,0
1994,2.0,-252.0,-19.0,0
1995,2.0,-250.0,-19.0,0
1996,7.0,-253.0,-16.0,0
1997,3.0,-251.0,-12.0,0
1998,3.0,-250.0,-12.0,0
1999,5.0,-253.0,-15.0,0
2000,3.0,-253.0,-10.0,0
2001,6.0,-254.0,-13.0,0
2002,3.0,-253.0,-12.0,0
2003,4.0,-254.0,-10.0,0
2004,4.0,-254.0,-14.0,0
2005,2.0,-254.0,-15.0,0
2006,2.0,-258.0,-12.0,0
2007,2.0,-253.0,-14.0,0
2008,1.0,-250.0,-12.0,0
2009,3.0,-252.0,-12.0,0
2010,1.0,-249.0,-11.0,0
2011,4.0,-249.0,-13.0,0
2012,4.0,-251.0,-13.0,0
2013,5.0,-254.0,-13.0,0
2014,6.0,-252.0,-11.0,0
2015,5.0,-254.0,-11.0,0
2016,0.0,-252.0,-14.0,0
2017,3.0,-256.0,-13.0,0
2018,6.0,-259.0,-15.0,0
2019,5.0,-260.0,-14.0,0
2020,4.0,-259.0,-13.0,0
2021,4.0,-260.0,-18.0,0
2022,2.0,-260.0,-16.0,0
2023,6.0,-258.0,-18.0,0
2024,0.0,-254.0,-10.0,0
2025,4.0,-253.0,-17.0,0
2026,5.0,-254.0,-18.0,0
2027,3.0,-251.0,-17.0,0
2028,3.0,-248.0,-15.0,0
2029,4.0,-247.0,-14.0,0
2030,4.0,-249.0,-16.0,0
2031,2.0,-248.0,-16.0,0
2032,1.0,-248.0,-15.0,0
2033,5.0,-252.0,-11.0,0
2034,3.0,-251.0,-8.0,0
2035,1.0,-248.0,-8.0,0
2036,3.0,-255.0,-7.0,0
2037,4.0,-251.0,-8.0,0
2038,4.0,-253.0,-6.0,0
2039,5.0,-253.0,-7.0,0
2040,5.0,-252.0,-4.0,0
2041,4.0,-255.0,-9.0,0
2042,6.0,-256.0,-7.0,0
2043,4.0,-251.0,-5.0,0
2044,6.0,-250.0,-10.0,0
2045,3.0,-252.0,-9.0,0
2046,6.0,-250.0,-7.0,0
2047,6.0,-249.0,-7.0,0
2048,3.0,-251.0,-11.0,0
2049,0.0,-249.0,-9.0,0
2050,2.0,-249.0,-11.0,0
2051,4.0,-250.0,-7.0,0
2052,2.0,-251.0,-10.0,0
2053,3.0,-253.0,-12.0,0
2054,2.0,-252.0,-7.0,0
2055,6.0,-254.0,-11.0,0
2056,7.0,-254.0,-9.0,0
2057,7.0,-251.0,-7.0,0
2058,5.0,-251.0,-11.0,0
2059,3.0,-252.0,-10.0,0
2060,8.0,-255.0,-7.0,0
2061,2.0,-251.0,-14.0,0
2062,5.0,-251.0,-8.0,0
2063,2.0,-250.0,-11.0,0
2064,4.0,-251.0,-9.0,0
2065,5.0,-253.0,-7.0,0
2066,3.0,-250.0,-6.0,0
2067,3.0,-251.0,-9.0,0
2068,3.0,-251.0,-6.0,0
2069,5.0,-251.0,-8.0,0
2070,5.0,-251.0,-8.0,0
2071,3.0,-250.0,-7.0,0
2072,2.0,-250.0,-9.0,0
2073,5.0,-250.0,-13.0,0
2074,5.0,-252.0,-9.0,0
2075,6.0,-253.0,-9.0,0
2076,3.0,-251.0,-8.0,0
2077,3.0,-252.0,-9.0,0
2078,4.0,-250.0,-11.0,0
2079,5.0,-253.0,-9.0,0
2080,3.0,-252.0,-11.0,0
2081,5.0,-253.0,-7.0,0
2082,2.0,-251.0,-9.0,0
2083,3.0,-252.0,-8.0,0
2084,5.0,-256.0,-7.0,0
2085,4.0,-254.0,-8.0,0
2086,2.0,-251.0,-9.0,0
2087,4.0,-251.0,-13.0,0
2088,7.0,-254.0,-5.0,0
2089,3.0,-251.0,-11.0,0
2090,1.0,-251.0,-6.0,0
2091,2.0,-252.0,-8.0,0
2092,3.0,-253.0,-8.0,0
2093,7.0,-253.0,-12.0,0
2094,3.0,-251.0,-7.0,0
2095,3.0,-255.0,-7.0,0
2096,3.0,-252.0,-6.0,0
2097,5.0,-252.0,-7.0,0
2098,4.0,-250.0,-9.0,0
2099,4.0,-251.0,-9.0,0
2100,3.0,-253.0,-7.0,0
2101,2.0,-251.0,-6.0,0
2102,4.0,-251.0,-7.0,0
2103,3.0,-250.0,-6.0,0
2104,5.0,-251.0,-8.0,0
2105,4.0,-250.0,-10.0,0
2106,5.0,-252.0,-7.0,0
2107,7.0,-254.0,-7.0,0
2108,1.0,-251.0,-10.0,0
2109,4.0,-252.0,-8.0,0
2110,5.0,-252.0,-11.0,0
2111,4.0,-255.0,-9.0,0
2112,3.0,-254.0,-6.0,0
2113,5.0,-253.0,-9.0,0
2114,2.0,-250.0,-5.0,0
2115,2.0,-252.0,-6.0,0
2116,5.0,-251.0,-10.0,0
2117,4.0,-252.0,-11.0,0
2118,2.0,-252.0,-6.0,0
2119,6.0,-254.0,-6.0,0
2120,3.0,-253.0,-11.0,0
2121,6.0,-255.0,-11.0,0
2122,1.0,-251.0,-5.0,0
2123,6.0,-254.0,-5.0,0
2124,4.0,-250.0,-7.0,0
2125,4.0,-253.0,-7.0,0
2126,7.0,-249.0,-6.0,0
2127,5.0,-252.0,-9.0,0
2128,3.0,-250.0,-10.0,0
2129,3.0,-253.0,-6.0,0
2130,4.0,-252.0,-10.0,0
2131,9.0,-252.0,-6.0,0
2132,3.0,-253.0,-11.0,0
2133,5.0,-253.0,-9.0,0
2134,7.0,-254.0,-5.0,0
2135,2.0,-252.0,-10.0,0
2136,4.0,-251.0,-10.0,0
2137,5.0,-252.0,-9.0,0
2138,4.0,-253.0,-8.0,0
2139,4.0,-250.0,-2.0,0
2140,5.0,-253.0,-10.0,0
2141,3.0,-251.0,-11.0,0
2142,7.0,-254.0,-9.0,0
2143,3.0,-253.0,-8.0,0
2144,4.0,-256.0,-12.0,0
2145,3.0,-253.0,-9.0,0
2146,3.0,-251.0,-9.0,0
2147,3.0,-251.0,-10.0,0
2148,4.0,-252.0,-7.0,0
2149,5.0,-252.0,-8.0,0
2150,7.0,-252.0,-9.0,0
2151,5.0,-250.0,-10.0,0
2152,7.0,-249.0,-7.0,0
2153,5.0,-249.0,-7.0,0
2154,3.0,-248.0,-6.0,0
2155,4.0,-248.0,-8.0,0
2156,7.0,-252.0,-6.0,0
2157,2.0,-249.0,-5.0,0
2158,5.0,-249.0,-5.0,0
2159,4.0,-249.0,-5.0,0
2160,4.0,-252.0,-8.0,0
2161,3.0,-250.0,-7.0,0
2162,5.0,-254.0,-10.0,0
2163,5.0,-253.0,-6.0,0
2164,3.0,-257.0,-5.0,0
2165,0.0,-255.0,-8.0,0
2166,1.0,-253.0,-7.0,0
2167,1.0,-254.0,-8.0,0
2168,6.0,-254.0,-10.0,0
2169,1.0,-250.0,-10.0,0
2170,3.0,-252.0,-8.0,0
2171,2.0,-252.0,-8.0,0
2172,2.0,-252.0,-9.0,0
2173,3.0,-251.0,-7.0,0
2174,5.0,-249.0,-9.0,0
2175,7.0,-251.0,-9.0,0
2176,2.0,-250.0,-11.0,0
2177,5.0,-249.0,-5.0,0
2178,2.0,-249.0,-5.0,0
2179,4.0,-252.0,-4.0,0
2180,3.0,-259.0,-2.0,0
2181,4.0,-250.0,-4.0,0
2182,6.0,-250.0,-7.0,0
2183,4.0,-250.0,-7.0,0
2184,5.0,-250.0,-5.0,0
2185,6.0,-248.0,-7.0,0
2186,3.0,-251.0,-7.0,0
2187,4.0,-250.0,-4.0,0
2188,4.0,-248.0,-5.0,0
2189,3.0,-251.0,-4.0,0
2190,4.0,-254.0,-7.0,0
2191,2.0,-250.0,-7.0,0
2192,7.0,-251.0,-7.0,0
2193,4.0,-249.0,-7.0,0
2194,4.0,-252.0,-6.0,0
2195,5.0,-256.0,-6.0,0
2196,2.0,-251.0,-6.0,0
2197,5.0,-254.0,-11.0,0
2198,5.0,-253.0,-9.0,0
2199,3.0,-253.0,-5.0,0
2200,7.0,-254.0,-3.0,0
2201,3.0,-252.0,-6.0,0
2202,5.0,-254.0,-7.0,0
2203,4.0,-250.0,-8.0,0
2204,4.0,-253.0,-8.0,0
2205,3.0,-252.0,-6.0,0
2206,3.0,-253.0,-7.0,0
2207,3.0,-249.0,-9.0,0
2208,4.0,-248.0,-5.0,0
2209,5.0,-252.0,-5.0,0
2210,4.0,-250.0,-7.0,0
2211,3.0,-250.0,-5.0,0
2212,3.0,-251.0,-2.0,0
2213,6.0,-251.0,-5.0,0
2214,3.0,-253.0,-2.0,0
2215,6.0,-251.0,-5.0,0
2216,0.0,-252.0,-4.0,0
2217,4.0,-254.0,-6.0,0
2218,3.0,-252.0,-7.0,0
2219,3.0,-252.0,-3.0,0
2220,4.0,-252.0,-6.0,0
2221,5.0,-254.0,-2.0,0
2222,6.0,-251.0,-6.0,0
2223,5.0,-255.0,-3.0,0
2224,4.0,-252.0,-5.0,0
2225,4.0,-252.0,-7.0,0
2226,5.0,-254.0,-1.0,0
2227,1.0,-251.0,-5.0,0
2228,4.0,-255.0,-9.0,0
2229,5.0,-252.0,-5.0,0
2230,2.0,-254.0,-6.0,0
2231,5.0,-253.0,-6.0,0
2232,4.0,-250.0,-6.0,0
2233,4.0,-251.0,-7.0,0
2234,3.0,-250.0,-6.0,0
2235,5.0,-252.0,-7.0,0
2236,2.0,-246.0,-4.0,0
2237,7.0,-251.0,-7.0,0
2238,1.0,-250.0,-7.0,0
2239,5.0,-251.0,-5.0,0
2240,6.0,-252.0,-7.0,0
2241,2.0,-251.0,-8.0,0
2242,3.0,-250.0,-5.0,0
2243,3.0,-252.0,-6.0,0
2244,6.0,-251.0,-5.0,0
2245,1.0,-251.0,-4.0,0
2246,3.0,-251.0,-7.0,0
2247,6.0,-250.0,-4.0,0
2248,3.0,-249.0,-8.0,0
2249,6.0,-252.0,-4.0,0
2250,4.0,-251.0,-4.0,0
2251,1.0,-251.0,-2.0,0
2252,2.0,-250.0,-5.0,0
2253,2.0,-249.0,-3.0,0
2254,4.0,-251.0,-5.0,0
2255,4.0,-252.0,-7.0,0
2256,1.0,-250.0,-4.0,0
2257,3.0,-250.0,-7.0,0
2258,4.0,-254.0,-8.0,0
2259,-1.0,-250.0,-5.0,0
2260,3.0,-250.0,-6.0,0
2261,4.0,-254.0,-8.0,0
2262,3.0,-254.0,-4.0,0
2263,3.0,-251.0,-4.0,0
2264,3.0,-250.0,-7.0,0
2265,4.0,-253.0,-6.0,0
2266,0.0,-253.0,-6.0,0
2267,3.0,-253.0,-6.0,0
2268,2.0,-251.0,1.0,0
2269,4.0,-253.0,-7.0,0
2270,3.0,-252.0,-7.0,0
2271,6.0,-254.0,-4.0,0
2272,6.0,-250.0,-8.0,0
2273,-1.0,-249.0,-4.0,0
2274,6.0,-250.0,-7.0,0
2275,4.0,-252.0,-8.0,0
2276,3.0,-250.0,-8.0,0
2277,6.0,-252.0,-2.0,0
2278,3.0,-249.0,-4.0,0
2279,4.0,-251.0,-7.0,0
2280,2.0,-251.0,-6.0,0
2281,3.0,-255.0,-6.0,0
2282,2.0,-252.0,-6.0,0
2283,6.0,-254.0,-9.0,0
2284,5.0,-254.0,-12.0,0
2285,3.0,-251.0,-13.0,0
2286,1.0,-252.0,-9.0,0
2287,2.0,-252.0,-6.0,0
2288,2.0,-250.0,-7.0,0
2289,3.0,-251.0,-11.0,0
2290,3.0,-250.0,-9.0,0
2291,7.0,-252.0,-5.0,0
2292,4.0,-252.0,-7.0,0
2293,4.0,-252.0,-7.0,0
2294,3.0,-251.0,-8.0,0
2295,3.0,-251.0,-4.0,0
2296,5.0,-250.0,-8.0,0
2297,4.0,-253.0,-2.0,0
2298,2.0,-252.0,-8.0,0
2299,4.0,-253.0,-1.0,0
2300,5.0,-252.0,-2.0,0
2301,0.0,-251.0,1.0,0
2302,7.0,-250.0,-3.0,0
2303,4.0,-251.0,-9.0,0
2304,5.0,-251.0,-3.0,0
2305,4.0,-251.0,-3.0,0
2306,5.0,-252.0,-3.0,0
2307,8.0,-251.0,-6.0,0
2308,0.0,-249.0,-1.0,0
2309,3.0,-252.0,-3.0,0
2310,5.0,-253.0,-4.0,0
2311,2.0,-252.0,-3.0,0
2312,2.0,-250.0,-6.0,0
2313,2.0,-251.0,-8.0,0
2314,4.0,-251.0,-5.0,0
2315,1.0,-251.0,-10.0,0
2316,3.0,-250.0,-4.0,0
2317,5.0,-250.0,-4.0,0
2318,1.0,-250.0,-4.0,0
2319,5.0,-250.0,-5.0,0
2320,1.0,-251.0,-6.0,0
2321,2.0,-252.0,-6.0,0
2322,3.0,-254.0,-8.0,0
2323,4.0,-254.0,-5.0,0
2324,4.0,-251.0,-9.0,0
2325,3.0,-253.0,-7.0,0
2326,0.0,-248.0,-6.0,0
2327,4.0,-250.0,-9.0,0
2328,4.0,-250.0,-7.0,0
2329,4.0,-252.0,-4.0,0
2330,8.0,-254.0,-6.0,0
2331,2.0,-250.0,0.0,0
2332,2.0,-249.0,-2.0,0
2333,3.0,-250.0,-7.0,0
2334,3.0,-252.0,-5.0,0
2335,1.0,-249.0,-10.0,0
2336,4.0,-252.0,-7.0,0
2337,-1.0,-251.0,-6.0,0
2338,3.0,-254.0,-9.0,0
2339,2.0,-254.0,-6.0,0
2340,3.0,-253.0,-8.0,0
2341,3.0,-255.0,-10.0,0
2342,3.0,-253.0,1.0,0
2343,3.0,-252.0,-13.0,0
2344,3.0,-253.0,-11.0,0
2345,2.0,-253.0,-10.0,0
2346,5.0,-251.0,-7.0,0
2347,2.0,-250.0,-12.0,0
2348,2.0,-251.0,-8.0,0
2349,4.0,-252.0,-9.0,0
2350,1.0,-251.0,-5.0,0
2351,3.0,-250.0,-9.0,0
2352,2.0,-252.0,-9.0,0
2353,6.0,-259.0,-3.0,0
2354,0.0,-254.0,-4.0,0
2355,5.0,-250.0,-4.0,0
2356,4.0,-250.0,-8.0,0
2357,4.0,-250.0,-8.0,0
2358,2.0,-249.0,-7.0,0
2359,6.0,-250.0,-9.0,0
2360,6.0,-250.0,-7.0,0
2361,2.0,-249.0,-4.0,0
2362,2.0,-250.0,-7.0,0
2363,3.0,-252.0,-7.0,0
2364,-1.0,-260.0,-4.0,0
2365,4.0,-251.0,-9.0,0
2366,5.0,-252.0,-13.0,0
2367,4.0,-254.0,-8.0,0
2368,2.0,-252.0,-9.0,0
2369,3.0,-252.0,-7.0,0
2370,4.0,-255.0,-8.0,0
2371,8.0,-255.0,-6.0,0
2372,5.0,-256.0,-12.0,0
2373,6.0,-252.0,-11.0,0
2374,2.0,-249.0,-7.0,0
2375,9.0,-250.0,5.0,0
2376,2.0,-249.0,-8.0,0
2377,4.0,-251.0,-12.0,0
2378,3.0,-250.0,-13.0,0
2379,2.0,-249.0,-5.0,0
2380,0.0,-248.0,-9.0,0
2381,2.0,-249.0,-7.0,0
2382,4.0,-248.0,-5.0,0
2383,6.0,-250.0,-6.0,0
2384,4.0,-253.0,-6.0,0
2385,4.0,-249.0,-6.0,0
2386,9.0,-257.0,-1.0,0
2387,5.0,-251.0,-6.0,0
2388,4.0,-253.0,-9.0,0
2389,3.0,-251.0,-6.0,0
2390,5.0,-255.0,-9.0,0
2391,6.0,-254.0,-7.0,0
2392,5.0,-254.0,-8.0,0
2393,3.0,-253.0,-7.0,0
2394,3.0,-252.0,-6.0,0
2395,3.0,-252.0,-7.0,0
2396,3.0,-252.0,-10.0,0
2397,1.0,-244.0,-27.0,0
2398,4.0,-252.0,-7.0,0
