,accelerometer_x,accelerometer_y,accelerometer_z,fall
0,27.0,-98.0,249.0,0
1,24.0,-98.0,246.0,0
2,25.0,-96.0,248.0,0
3,26.0,-97.0,247.0,0
4,26.0,-98.0,249.0,0
5,24.0,-95.0,246.0,0
6,26.0,-98.0,251.0,0
7,26.0,-97.0,247.0,0
8,24.0,-96.0,247.0,0
9,24.0,-97.0,247.0,0
10,26.0,-99.0,248.0,0
11,25.0,-95.0,245.0,0
12,29.0,-101.0,249.0,0
13,28.0,-97.0,248.0,0
14,26.0,-95.0,253.0,0
15,26.0,-98.0,248.0,0
16,26.0,-93.0,247.0,0
17,24.0,-94.0,248.0,0
18,26.0,-95.0,245.0,0
19,26.0,-98.0,250.0,0
20,22.0,-95.0,249.0,0
21,25.0,-96.0,247.0,0
22,31.0,-92.0,245.0,0
23,24.0,-93.0,245.0,0
24,21.0,-90.0,244.0,0
25,28.0,-97.0,255.0,0
26,12.0,-91.0,238.0,0
27,18.0,-91.0,249.0,0
28,31.0,-97.0,251.0,0
29,21.0,-92.0,239.0,0
30,27.0,-100.0,242.0,0
31,30.0,-94.0,244.0,0
32,13.0,-98.0,249.0,0
33,35.0,-98.0,253.0,0
34,29.0,-94.0,253.0,0
35,29.0,-92.0,250.0,0
36,26.0,-94.0,251.0,0
37,23.0,-101.0,248.0,0
38,28.0,-96.0,253.0,0
39,25.0,-69.0,226.0,0
40,25.0,-95.0,247.0,0
41,22.0,-96.0,250.0,0
42,27.0,-96.0,240.0,0
43,25.0,-94.0,247.0,0
44,17.0,-94.0,250.0,0
45,20.0,-93.0,247.0,0
46,24.0,-95.0,246.0,0
47,26.0,-97.0,247.0,0
48,26.0,-98.0,249.0,0
49,24.0,-96.0,249.0,0
50,26.0,-95.0,250.0,0
51,25.0,-96.0,250.0,0
52,24.0,-96.0,249.0,0
53,24.0,-96.0,246.0,0
54,25.0,-93.0,247.0,0
55,26.0,-96.0,249.0,0
56,21.0,-96.0,247.0,0
57,23.0,-98.0,249.0,0
58,24.0,-94.0,251.0,0
59,25.0,-96.0,250.0,0
60,29.0,-98.0,246.0,0
61,26.0,-95.0,248.0,0
62,24.0,-96.0,249.0,0
63,26.0,-98.0,248.0,0
64,26.0,-98.0,244.0,0
65,26.0,-95.0,245.0,0
66,24.0,-93.0,247.0,0
67,26.0,-99.0,247.0,0
68,23.0,-96.0,246.0,0
69,27.0,-98.0,248.0,0
70,22.0,-96.0,246.0,0
71,27.0,-97.0,246.0,0
72,24.0,-94.0,246.0,0
73,27.0,-97.0,249.0,0
74,26.0,-97.0,247.0,0
75,27.0,-98.0,246.0,0
76,21.0,-95.0,249.0,0
77,27.0,-98.0,244.0,0
78,29.0,-96.0,247.0,0
79,24.0,-94.0,250.0,0
80,27.0,-95.0,246.0,0
81,27.0,-97.0,250.0,0
82,26.0,-95.0,247.0,0
83,29.0,-96.0,248.0,0
84,25.0,-96.0,250.0,0
85,24.0,-95.0,248.0,0
86,26.0,-96.0,251.0,0
87,26.0,-98.0,251.0,0
88,29.0,-94.0,248.0,0
89,25.0,-96.0,248.0,0
90,24.0,-97.0,248.0,0
91,26.0,-94.0,246.0,0
92,26.0,-94.0,247.0,0
93,23.0,-95.0,250.0,0
94,25.0,-94.0,251.0,0
95,25.0,-99.0,252.0,0
96,27.0,-98.0,248.0,0
97,25.0,-98.0,247.0,0
98,26.0,-96.0,248.0,0
99,27.0,-97.0,245.0,0
100,25.0,-96.0,242.0,0
101,24.0,-94.0,245.0,0
102,29.0,-96.0,251.0,0
103,26.0,-100.0,245.0,0
104,25.0,-97.0,248.0,0
105,25.0,-96.0,246.0,0
106,24.0,-98.0,247.0,0
107,27.0,-97.0,249.0,0
108,25.0,-97.0,243.0,0
109,23.0,-96.0,249.0,0
110,29.0,-97.0,250.0,0
111,25.0,-95.0,252.0,0
112,24.0,-94.0,251.0,0
113,24.0,-93.0,245.0,0
114,25.0,-97.0,245.0,0
115,27.0,-93.0,245.0,0
116,28.0,-95.0,249.0,0
117,25.0,-93.0,252.0,0
118,24.0,-94.0,251.0,0
119,26.0,-96.0,244.0,0
120,25.0,-96.0,250.0,0
121,24.0,-95.0,249.0,0
122,26.0,-94.0,248.0,0
123,26.0,-96.0,247.0,0
124,26.0,-96.0,244.0,0
125,25.0,-96.0,251.0,0
126,28.0,-95.0,247.0,0
127,25.0,-98.0,249.0,0
128,26.0,-99.0,249.0,0
129,26.0,-102.0,248.0,0
130,26.0,-101.0,248.0,0
131,26.0,-100.0,247.0,0
132,25.0,-98.0,249.0,0
133,23.0,-102.0,246.0,0
134,26.0,-98.0,250.0,0
135,28.0,-96.0,245.0,0
136,22.0,-99.0,248.0,0
137,24.0,-99.0,247.0,0
138,29.0,-98.0,245.0,0
139,25.0,-100.0,244.0,0
140,24.0,-98.0,248.0,0
141,26.0,-95.0,246.0,0
142,27.0,-96.0,248.0,0
143,24.0,-98.0,248.0,0
144,27.0,-98.0,249.0,0
145,30.0,-100.0,244.0,0
146,26.0,-96.0,250.0,0
147,25.0,-96.0,246.0,0
148,27.0,-98.0,248.0,0
149,27.0,-100.0,248.0,0
150,27.0,-98.0,250.0,0
151,25.0,-98.0,245.0,0
152,24.0,-98.0,246.0,0
153,24.0,-100.0,243.0,0
154,27.0,-99.0,245.0,0
155,26.0,-95.0,246.0,0
156,25.0,-97.0,245.0,0
157,25.0,-101.0,246.0,0
158,26.0,-99.0,245.0,0
159,27.0,-100.0,245.0,0
160,25.0,-100.0,244.0,0
161,24.0,-101.0,244.0,0
162,27.0,-97.0,248.0,0
163,26.0,-97.0,251.0,0
164,24.0,-98.0,247.0,0
165,26.0,-100.0,248.0,0
166,26.0,-99.0,248.0,0
167,28.0,-101.0,246.0,0
168,26.0,-99.0,248.0,0
169,25.0,-99.0,247.0,0
170,27.0,-99.0,243.0,0
171,24.0,-98.0,246.0,0
172,25.0,-98.0,246.0,0
173,27.0,-101.0,249.0,0
174,26.0,-100.0,247.0,0
175,26.0,-102.0,247.0,0
176,26.0,-98.0,246.0,0
177,25.0,-99.0,244.0,0
178,24.0,-98.0,242.0,0
179,25.0,-100.0,248.0,0
180,28.0,-101.0,246.0,0
181,24.0,-98.0,245.0,0
182,26.0,-98.0,246.0,0
183,23.0,-97.0,248.0,0
184,26.0,-101.0,247.0,0
185,23.0,-99.0,242.0,0
186,27.0,-97.0,247.0,0
187,24.0,-101.0,244.0,0
188,27.0,-101.0,248.0,0
189,25.0,-101.0,245.0,0
190,25.0,-103.0,248.0,0
191,26.0,-101.0,248.0,0
192,27.0,-100.0,248.0,0
193,26.0,-100.0,245.0,0
194,25.0,-100.0,242.0,0
195,27.0,-101.0,244.0,0
196,26.0,-104.0,251.0,0
197,29.0,-102.0,245.0,0
198,23.0,-100.0,246.0,0
199,24.0,-101.0,245.0,0
200,26.0,-103.0,248.0,0
201,25.0,-103.0,245.0,0
202,28.0,-104.0,249.0,0
203,25.0,-99.0,245.0,0
204,28.0,-101.0,245.0,0
205,26.0,-104.0,249.0,0
206,26.0,-102.0,248.0,0
207,26.0,-101.0,249.0,0
208,26.0,-100.0,243.0,0
209,27.0,-100.0,243.0,0
210,23.0,-104.0,245.0,0
211,27.0,-102.0,246.0,0
212,27.0,-102.0,247.0,0
213,26.0,-101.0,247.0,0
214,27.0,-102.0,247.0,0
215,29.0,-102.0,244.0,0
216,28.0,-103.0,247.0,0
217,25.0,-102.0,248.0,0
218,28.0,-103.0,246.0,0
219,26.0,-104.0,246.0,0
220,23.0,-102.0,246.0,0
221,28.0,-101.0,246.0,0
222,28.0,-105.0,245.0,0
223,24.0,-103.0,243.0,0
224,26.0,-101.0,245.0,0
225,26.0,-105.0,247.0,0
226,28.0,-103.0,247.0,0
227,29.0,-102.0,248.0,0
228,27.0,-101.0,244.0,0
229,27.0,-100.0,243.0,0
230,27.0,-101.0,247.0,0
231,25.0,-105.0,243.0,0
232,29.0,-103.0,242.0,0
233,25.0,-105.0,246.0,0
234,26.0,-105.0,241.0,0
235,26.0,-105.0,249.0,0
236,25.0,-103.0,243.0,0
237,28.0,-102.0,246.0,0
238,27.0,-101.0,246.0,0
239,28.0,-104.0,245.0,0
240,28.0,-106.0,247.0,0
241,29.0,-103.0,246.0,0
242,25.0,-103.0,244.0,0
243,26.0,-103.0,243.0,0
244,22.0,-105.0,246.0,0
245,28.0,-108.0,244.0,0
246,26.0,-106.0,246.0,0
247,28.0,-106.0,245.0,0
248,27.0,-107.0,243.0,0
249,24.0,-107.0,242.0,0
250,22.0,-107.0,243.0,0
251,25.0,-105.0,245.0,0
252,26.0,-110.0,245.0,0
253,26.0,-104.0,244.0,0
254,25.0,-107.0,241.0,0
255,27.0,-106.0,240.0,0
256,28.0,-107.0,240.0,0
257,27.0,-106.0,240.0,0
258,25.0,-105.0,240.0,0
259,24.0,-105.0,242.0,0
260,27.0,-104.0,242.0,0
261,26.0,-104.0,243.0,0
262,26.0,-106.0,244.0,0
263,26.0,-105.0,243.0,0
264,28.0,-103.0,244.0,0
265,27.0,-104.0,242.0,0
266,27.0,-105.0,246.0,0
267,28.0,-110.0,242.0,0
268,24.0,-107.0,241.0,0
269,26.0,-105.0,244.0,0
270,25.0,-103.0,242.0,0
271,27.0,-108.0,239.0,0
272,27.0,-103.0,244.0,0
273,24.0,-107.0,246.0,0
274,26.0,-105.0,245.0,0
275,27.0,-110.0,243.0,0
276,25.0,-104.0,245.0,0
277,27.0,-105.0,242.0,0
278,28.0,-106.0,244.0,0
279,26.0,-107.0,241.0,0
280,25.0,-105.0,248.0,0
281,25.0,-103.0,243.0,0
282,28.0,-106.0,250.0,0
283,26.0,-104.0,248.0,0
284,25.0,-105.0,246.0,0
285,27.0,-105.0,248.0,0
286,27.0,-103.0,244.0,0
287,25.0,-104.0,246.0,0
288,27.0,-103.0,244.0,0
289,25.0,-102.0,245.0,0
290,26.0,-106.0,246.0,0
291,28.0,-103.0,244.0,0
292,26.0,-102.0,245.0,0
293,25.0,-104.0,240.0,0
294,25.0,-106.0,242.0,0
295,25.0,-107.0,246.0,0
296,25.0,-104.0,244.0,0
297,26.0,-103.0,246.0,0
298,26.0,-103.0,242.0,0
299,28.0,-104.0,246.0,0
300,24.0,-103.0,246.0,0
301,25.0,-102.0,249.0,0
302,26.0,-106.0,246.0,0
303,26.0,-102.0,247.0,0
304,27.0,-106.0,248.0,0
305,25.0,-105.0,248.0,0
306,25.0,-105.0,244.0,0
307,25.0,-102.0,244.0,0
308,29.0,-103.0,248.0,0
309,23.0,-103.0,244.0,0
310,24.0,-106.0,245.0,0
311,28.0,-102.0,244.0,0
312,26.0,-104.0,247.0,0
313,26.0,-104.0,248.0,0
314,25.0,-104.0,249.0,0
315,27.0,-104.0,245.0,0
316,26.0,-103.0,244.0,0
317,25.0,-106.0,245.0,0
318,22.0,-105.0,244.0,0
319,27.0,-103.0,243.0,0
320,28.0,-103.0,244.0,0
321,28.0,-103.0,247.0,0
322,25.0,-102.0,243.0,0
323,26.0,-101.0,242.0,0
324,25.0,-101.0,243.0,0
325,24.0,-102.0,243.0,0
326,24.0,-99.0,247.0,0
327,26.0,-102.0,243.0,0
328,29.0,-103.0,243.0,0
329,26.0,-102.0,246.0,0
330,26.0,-102.0,245.0,0
331,27.0,-102.0,247.0,0
332,26.0,-102.0,245.0,0
333,24.0,-100.0,248.0,0
334,27.0,-103.0,246.0,0
335,25.0,-102.0,246.0,0
336,25.0,-105.0,244.0,0
337,29.0,-104.0,247.0,0
338,26.0,-104.0,243.0,0
339,26.0,-102.0,244.0,0
340,27.0,-103.0,246.0,0
341,27.0,-103.0,246.0,0
342,26.0,-100.0,244.0,0
343,25.0,-103.0,242.0,0
344,25.0,-104.0,246.0,0
345,23.0,-101.0,243.0,0
346,26.0,-103.0,246.0,0
347,24.0,-103.0,242.0,0
348,25.0,-103.0,242.0,0
349,25.0,-103.0,242.0,0
350,26.0,-104.0,246.0,0
351,26.0,-103.0,243.0,0
352,27.0,-103.0,248.0,0
353,24.0,-101.0,244.0,0
354,27.0,-103.0,243.0,0
355,26.0,-100.0,244.0,0
356,25.0,-103.0,242.0,0
357,28.0,-102.0,246.0,0
358,28.0,-100.0,247.0,0
359,24.0,-101.0,245.0,0
360,21.0,-100.0,244.0,0
361,28.0,-103.0,245.0,0
362,26.0,-99.0,248.0,0
363,25.0,-103.0,245.0,0
364,25.0,-102.0,247.0,0
365,25.0,-102.0,244.0,0
366,24.0,-103.0,248.0,0
367,23.0,-101.0,241.0,0
368,26.0,-100.0,246.0,0
369,25.0,-103.0,248.0,0
370,27.0,-103.0,247.0,0
371,25.0,-100.0,247.0,0
372,23.0,-102.0,247.0,0
373,25.0,-97.0,248.0,0
374,24.0,-100.0,244.0,0
375,24.0,-104.0,245.0,0
376,25.0,-103.0,246.0,0
377,25.0,-100.0,241.0,0
378,26.0,-99.0,246.0,0
379,24.0,-99.0,250.0,0
380,25.0,-100.0,247.0,0
381,26.0,-99.0,244.0,0
382,21.0,-106.0,249.0,0
383,27.0,-98.0,246.0,0
384,25.0,-100.0,249.0,0
385,25.0,-100.0,250.0,0
386,25.0,-99.0,246.0,0
387,27.0,-100.0,246.0,0
388,25.0,-99.0,245.0,0
389,29.0,-101.0,244.0,0
390,28.0,-97.0,249.0,0
391,27.0,-99.0,248.0,0
392,26.0,-99.0,251.0,0
393,26.0,-99.0,244.0,0
394,27.0,-100.0,246.0,0
395,28.0,-97.0,249.0,0
396,26.0,-100.0,248.0,0
397,24.0,-96.0,248.0,0
398,27.0,-97.0,248.0,0
399,26.0,-101.0,247.0,0
400,27.0,-99.0,247.0,0
401,24.0,-103.0,243.0,0
402,24.0,-101.0,247.0,0
403,24.0,-102.0,243.0,0
404,24.0,-98.0,248.0,0
405,26.0,-98.0,245.0,0
406,28.0,-100.0,246.0,0
407,26.0,-99.0,242.0,0
408,28.0,-103.0,251.0,0
409,28.0,-101.0,247.0,0
410,26.0,-100.0,248.0,0
411,25.0,-100.0,245.0,0
412,26.0,-102.0,247.0,0
413,27.0,-100.0,245.0,0
414,27.0,-99.0,247.0,0
415,26.0,-98.0,248.0,0
416,24.0,-97.0,247.0,0
417,25.0,-100.0,247.0,0
418,26.0,-101.0,246.0,0
419,26.0,-97.0,251.0,0
420,28.0,-98.0,243.0,0
421,25.0,-99.0,246.0,0
422,28.0,-97.0,242.0,0
423,25.0,-98.0,248.0,0
424,25.0,-98.0,249.0,0
425,25.0,-97.0,246.0,0
426,25.0,-96.0,248.0,0
427,27.0,-98.0,248.0,0
428,24.0,-97.0,250.0,0
429,21.0,-96.0,245.0,0
430,26.0,-98.0,248.0,0
431,26.0,-100.0,246.0,0
432,26.0,-98.0,244.0,0
433,25.0,-98.0,246.0,0
434,27.0,-100.0,246.0,0
435,26.0,-97.0,246.0,0
436,25.0,-99.0,247.0,0
437,25.0,-100.0,247.0,0
438,28.0,-97.0,247.0,0
439,25.0,-98.0,247.0,0
440,25.0,-97.0,243.0,0
441,25.0,-97.0,245.0,0
442,25.0,-96.0,245.0,0
443,26.0,-98.0,251.0,0
444,25.0,-99.0,249.0,0
445,24.0,-100.0,249.0,0
446,24.0,-96.0,245.0,0
447,26.0,-99.0,249.0,0
448,28.0,-98.0,246.0,0
449,26.0,-97.0,248.0,0
450,26.0,-98.0,247.0,0
451,27.0,-100.0,251.0,0
452,26.0,-95.0,246.0,0
453,24.0,-96.0,250.0,0
454,23.0,-95.0,252.0,0
455,29.0,-97.0,246.0,0
456,27.0,-98.0,247.0,0
457,26.0,-98.0,248.0,0
458,28.0,-98.0,248.0,0
459,25.0,-99.0,246.0,0
460,25.0,-99.0,245.0,0
461,23.0,-96.0,249.0,0
462,27.0,-96.0,245.0,0
463,26.0,-96.0,248.0,0
464,25.0,-97.0,249.0,0
465,28.0,-97.0,249.0,0
466,24.0,-97.0,248.0,0
467,25.0,-97.0,249.0,0
468,26.0,-95.0,250.0,0
469,24.0,-98.0,249.0,0
470,26.0,-100.0,250.0,0
471,25.0,-97.0,246.0,0
472,23.0,-95.0,246.0,0
473,26.0,-98.0,248.0,0
474,26.0,-97.0,254.0,0
475,29.0,-98.0,250.0,0
476,27.0,-99.0,248.0,0
477,23.0,-97.0,248.0,0
478,24.0,-98.0,250.0,0
479,26.0,-96.0,247.0,0
480,26.0,-98.0,247.0,0
481,29.0,-97.0,249.0,0
482,27.0,-95.0,248.0,0
483,25.0,-97.0,250.0,0
484,26.0,-97.0,246.0,0
485,29.0,-97.0,246.0,0
486,26.0,-96.0,247.0,0
487,26.0,-95.0,249.0,0
488,28.0,-97.0,247.0,0
489,25.0,-98.0,249.0,0
490,25.0,-98.0,247.0,0
491,26.0,-96.0,249.0,0
492,24.0,-98.0,245.0,0
493,24.0,-95.0,249.0,0
494,26.0,-98.0,247.0,0
495,26.0,-94.0,246.0,0
496,25.0,-95.0,245.0,0
497,25.0,-95.0,247.0,0
498,24.0,-96.0,250.0,0
499,23.0,-98.0,246.0,0
500,26.0,-92.0,246.0,0
501,24.0,-96.0,247.0,0
502,26.0,-98.0,245.0,0
503,27.0,-97.0,252.0,0
504,25.0,-93.0,249.0,0
505,25.0,-95.0,249.0,0
506,28.0,-95.0,250.0,0
507,28.0,-94.0,250.0,0
508,26.0,-93.0,250.0,0
509,27.0,-98.0,245.0,0
510,24.0,-94.0,249.0,0
511,27.0,-94.0,247.0,0
512,27.0,-98.0,248.0,0
513,26.0,-94.0,247.0,0
514,26.0,-94.0,250.0,0
515,27.0,-98.0,251.0,0
516,27.0,-95.0,250.0,0
517,23.0,-95.0,251.0,0
518,25.0,-93.0,248.0,0
519,24.0,-93.0,247.0,0
520,25.0,-93.0,247.0,0
521,24.0,-95.0,249.0,0
522,24.0,-95.0,249.0,0
523,26.0,-96.0,246.0,0
524,28.0,-97.0,245.0,0
525,25.0,-96.0,249.0,0
526,25.0,-98.0,247.0,0
527,25.0,-95.0,247.0,0
528,25.0,-95.0,247.0,0
529,27.0,-97.0,247.0,0
530,24.0,-94.0,254.0,0
531,24.0,-92.0,250.0,0
532,27.0,-98.0,249.0,0
533,29.0,-98.0,250.0,0
534,25.0,-96.0,251.0,0
535,25.0,-93.0,249.0,0
536,24.0,-93.0,244.0,0
537,29.0,-93.0,247.0,0
538,25.0,-95.0,248.0,0
539,25.0,-93.0,251.0,0
540,25.0,-93.0,247.0,0
541,27.0,-95.0,248.0,0
542,28.0,-98.0,248.0,0
543,25.0,-94.0,246.0,0
544,25.0,-93.0,249.0,0
545,26.0,-92.0,250.0,0
546,27.0,-94.0,248.0,0
547,26.0,-95.0,249.0,0
548,26.0,-95.0,248.0,0
549,28.0,-95.0,249.0,0
550,23.0,-95.0,248.0,0
551,24.0,-94.0,249.0,0
552,28.0,-94.0,245.0,0
553,25.0,-93.0,252.0,0
554,24.0,-96.0,249.0,0
555,24.0,-97.0,253.0,0
556,26.0,-92.0,249.0,0
557,21.0,-92.0,250.0,0
558,23.0,-94.0,252.0,0
559,24.0,-93.0,250.0,0
560,22.0,-91.0,250.0,0
561,25.0,-96.0,251.0,0
562,28.0,-94.0,250.0,0
563,26.0,-96.0,251.0,0
564,25.0,-95.0,247.0,0
565,27.0,-95.0,250.0,0
566,24.0,-92.0,247.0,0
567,26.0,-92.0,246.0,0
568,27.0,-93.0,249.0,0
569,24.0,-94.0,246.0,0
570,25.0,-95.0,250.0,0
571,22.0,-95.0,250.0,0
572,25.0,-95.0,249.0,0
573,24.0,-94.0,246.0,0
574,24.0,-94.0,247.0,0
575,28.0,-94.0,249.0,0
576,28.0,-95.0,249.0,0
577,25.0,-94.0,247.0,0
578,24.0,-91.0,247.0,0
579,28.0,-94.0,251.0,0
580,27.0,-94.0,252.0,0
581,26.0,-90.0,249.0,0
582,24.0,-91.0,247.0,0
583,25.0,-91.0,248.0,0
584,24.0,-89.0,250.0,0
585,27.0,-90.0,251.0,0
586,26.0,-91.0,249.0,0
587,25.0,-92.0,249.0,0
588,26.0,-93.0,246.0,0
589,26.0,-91.0,250.0,0
590,27.0,-90.0,249.0,0
591,27.0,-93.0,248.0,0
592,24.0,-90.0,246.0,0
593,25.0,-93.0,247.0,0
594,27.0,-93.0,249.0,0
595,25.0,-93.0,249.0,0
596,29.0,-95.0,247.0,0
597,24.0,-94.0,249.0,0
598,27.0,-93.0,252.0,0
599,26.0,-93.0,248.0,0
600,27.0,-95.0,251.0,0
601,25.0,-93.0,250.0,0
602,27.0,-91.0,251.0,0
603,25.0,-94.0,243.0,0
604,26.0,-91.0,250.0,0
605,28.0,-98.0,248.0,0
606,25.0,-90.0,249.0,0
607,26.0,-92.0,248.0,0
608,24.0,-93.0,253.0,0
609,26.0,-93.0,250.0,0
610,28.0,-92.0,246.0,0
611,26.0,-93.0,250.0,0
612,26.0,-93.0,249.0,0
613,26.0,-90.0,248.0,0
614,22.0,-87.0,252.0,0
615,27.0,-93.0,249.0,0
616,25.0,-90.0,247.0,0
617,26.0,-91.0,248.0,0
618,27.0,-92.0,246.0,0
619,26.0,-92.0,251.0,0
620,25.0,-93.0,249.0,0
621,26.0,-95.0,249.0,0
622,25.0,-95.0,251.0,0
623,23.0,-91.0,249.0,0
624,24.0,-93.0,246.0,0
625,27.0,-92.0,247.0,0
626,23.0,-91.0,250.0,0
627,26.0,-94.0,246.0,0
628,24.0,-96.0,245.0,0
629,24.0,-90.0,249.0,0
630,25.0,-91.0,247.0,0
631,24.0,-91.0,247.0,0
632,28.0,-91.0,249.0,0
633,26.0,-92.0,248.0,0
634,25.0,-94.0,250.0,0
635,25.0,-92.0,253.0,0
636,26.0,-89.0,251.0,0
637,27.0,-95.0,252.0,0
638,24.0,-90.0,247.0,0
639,25.0,-92.0,250.0,0
640,26.0,-93.0,249.0,0
641,26.0,-89.0,252.0,0
642,27.0,-89.0,245.0,0
643,26.0,-93.0,250.0,0
644,26.0,-93.0,251.0,0
645,24.0,-92.0,248.0,0
646,24.0,-91.0,254.0,0
647,25.0,-92.0,253.0,0
648,24.0,-91.0,250.0,0
649,24.0,-92.0,250.0,0
650,25.0,-92.0,248.0,0
651,27.0,-93.0,250.0,0
652,27.0,-93.0,248.0,0
653,26.0,-91.0,250.0,0
654,28.0,-93.0,250.0,0
655,27.0,-92.0,249.0,0
656,23.0,-90.0,254.0,0
657,28.0,-91.0,249.0,0
658,28.0,-91.0,247.0,0
659,24.0,-90.0,249.0,0
660,25.0,-89.0,248.0,0
661,25.0,-90.0,249.0,0
662,24.0,-89.0,248.0,0
663,24.0,-88.0,250.0,0
664,28.0,-92.0,250.0,0
665,25.0,-88.0,248.0,0
666,27.0,-91.0,251.0,0
667,27.0,-92.0,249.0,0
668,27.0,-92.0,246.0,0
669,27.0,-90.0,250.0,0
670,21.0,-91.0,254.0,0
671,26.0,-91.0,253.0,0
672,25.0,-91.0,248.0,0
673,23.0,-90.0,247.0,0
674,28.0,-92.0,248.0,0
675,27.0,-89.0,251.0,0
676,28.0,-94.0,249.0,0
677,25.0,-89.0,249.0,0
678,27.0,-94.0,249.0,0
679,26.0,-92.0,249.0,0
680,28.0,-91.0,249.0,0
681,26.0,-90.0,252.0,0
682,25.0,-92.0,246.0,0
683,23.0,-88.0,248.0,0
684,23.0,-90.0,253.0,0
685,27.0,-88.0,248.0,0
686,26.0,-92.0,250.0,0
687,21.0,-90.0,250.0,0
688,25.0,-92.0,251.0,0
689,26.0,-91.0,250.0,0
690,23.0,-90.0,249.0,0
691,23.0,-91.0,250.0,0
692,23.0,-89.0,254.0,0
693,26.0,-91.0,252.0,0
694,23.0,-89.0,249.0,0
695,27.0,-89.0,251.0,0
696,26.0,-88.0,250.0,0
697,26.0,-90.0,253.0,0
698,22.0,-91.0,251.0,0
699,28.0,-90.0,251.0,0
700,27.0,-89.0,252.0,0
701,28.0,-90.0,249.0,0
702,27.0,-88.0,253.0,0
703,27.0,-92.0,251.0,0
704,29.0,-91.0,251.0,0
705,27.0,-91.0,248.0,0
706,28.0,-90.0,253.0,0
707,24.0,-91.0,254.0,0
708,26.0,-87.0,255.0,0
709,28.0,-92.0,254.0,0
710,24.0,-90.0,255.0,0
711,26.0,-90.0,257.0,0
712,26.0,-93.0,256.0,0
713,24.0,-95.0,260.0,0
714,27.0,-99.0,256.0,0
715,26.0,-102.0,258.0,0
716,26.0,-106.0,259.0,0
717,25.0,-113.0,257.0,0
718,25.0,-114.0,255.0,0
719,24.0,-112.0,253.0,0
720,25.0,-110.0,250.0,0
721,23.0,-104.0,241.0,0
722,23.0,-103.0,238.0,0
723,22.0,-99.0,238.0,0
724,21.0,-98.0,237.0,0
725,18.0,-92.0,243.0,0
726,18.0,-92.0,245.0,0
727,17.0,-93.0,249.0,0
728,18.0,-97.0,252.0,0
729,23.0,-99.0,247.0,0
730,25.0,-104.0,254.0,0
731,24.0,-110.0,255.0,0
732,27.0,-110.0,252.0,0
733,24.0,-115.0,251.0,0
734,23.0,-113.0,253.0,0
735,25.0,-114.0,253.0,0
736,26.0,-113.0,250.0,0
737,26.0,-103.0,250.0,0
738,25.0,-97.0,248.0,0
739,24.0,-95.0,249.0,0
740,26.0,-92.0,253.0,0
741,30.0,-99.0,257.0,0
742,25.0,-100.0,257.0,0
743,19.0,-98.0,261.0,0
744,15.0,-105.0,268.0,0
745,9.0,-109.0,282.0,0
746,8.0,-118.0,284.0,0
747,7.0,-121.0,286.0,0
748,4.0,-125.0,283.0,0
749,6.0,-127.0,286.0,0
750,9.0,-125.0,281.0,0
751,10.0,-125.0,270.0,0
752,20.0,-130.0,260.0,0
753,28.0,-124.0,253.0,0
754,38.0,-126.0,252.0,0
755,39.0,-126.0,253.0,0
756,40.0,-120.0,259.0,0
757,40.0,-110.0,255.0,0
758,46.0,-102.0,238.0,0
759,54.0,-102.0,223.0,0
760,58.0,-105.0,184.0,0
761,49.0,-109.0,151.0,0
762,43.0,-115.0,122.0,0
763,41.0,-115.0,121.0,0
764,45.0,-115.0,136.0,0
765,43.0,-119.0,165.0,0
766,32.0,-113.0,197.0,0
767,21.0,-111.0,221.0,0
768,2.0,-107.0,238.0,0
769,-10.0,-111.0,245.0,0
770,-16.0,-109.0,254.0,0
771,-7.0,-114.0,263.0,0
772,-3.0,-114.0,265.0,0
773,0.0,-107.0,266.0,0
774,0.0,-102.0,269.0,0
775,-6.0,-99.0,260.0,0
776,-12.0,-97.0,247.0,0
777,-10.0,-99.0,232.0,0
778,-3.0,-97.0,226.0,0
779,4.0,-94.0,223.0,0
780,7.0,-94.0,223.0,0
781,3.0,-90.0,225.0,0
782,10.0,-92.0,226.0,0
783,12.0,-96.0,230.0,0
784,13.0,-98.0,234.0,0
785,19.0,-97.0,241.0,0
786,30.0,-99.0,240.0,0
787,40.0,-100.0,237.0,0
788,43.0,-97.0,242.0,0
789,48.0,-99.0,246.0,0
790,55.0,-92.0,256.0,0
791,64.0,-96.0,259.0,0
792,73.0,-98.0,256.0,0
793,75.0,-105.0,254.0,0
794,75.0,-106.0,252.0,0
795,76.0,-117.0,245.0,0
796,66.0,-119.0,234.0,0
797,59.0,-129.0,227.0,0
798,52.0,-138.0,225.0,0
799,47.0,-143.0,221.0,0
800,46.0,-154.0,204.0,0
801,44.0,-159.0,201.0,0
802,37.0,-172.0,202.0,0
803,30.0,-188.0,202.0,0
804,22.0,-197.0,205.0,0
805,2.0,-207.0,203.0,0
806,-17.0,-213.0,208.0,0
807,-34.0,-221.0,212.0,0
808,-40.0,-226.0,207.0,0
809,-40.0,-226.0,202.0,0
810,-34.0,-225.0,200.0,0
811,-11.0,-225.0,197.0,0
812,5.0,-224.0,190.0,0
813,18.0,-229.0,184.0,0
814,32.0,-235.0,184.0,0
815,43.0,-242.0,180.0,0
816,47.0,-248.0,185.0,0
817,56.0,-250.0,186.0,0
818,52.0,-248.0,189.0,0
819,53.0,-244.0,187.0,0
820,50.0,-234.0,188.0,0
821,45.0,-225.0,189.0,0
822,32.0,-219.0,187.0,0
823,27.0,-211.0,192.0,0
824,15.0,-205.0,194.0,0
825,14.0,-197.0,192.0,0
826,11.0,-192.0,189.0,0
827,3.0,-188.0,187.0,0
828,0.0,-180.0,185.0,0
829,1.0,-178.0,185.0,0
830,0.0,-172.0,183.0,0
831,-11.0,-168.0,181.0,0
832,-16.0,-168.0,186.0,0
833,-13.0,-171.0,182.0,0
834,-20.0,-169.0,184.0,0
835,-26.0,-173.0,190.0,0
836,-35.0,-173.0,193.0,0
837,-47.0,-169.0,193.0,0
838,-45.0,-166.0,190.0,0
839,-42.0,-162.0,195.0,0
840,-31.0,-155.0,192.0,0
841,-24.0,-147.0,195.0,0
842,-8.0,-146.0,201.0,0
843,1.0,-140.0,203.0,0
844,8.0,-133.0,208.0,0
845,14.0,-131.0,211.0,0
846,23.0,-123.0,215.0,0
847,31.0,-117.0,223.0,0
848,40.0,-113.0,228.0,0
849,47.0,-109.0,234.0,0
850,55.0,-100.0,242.0,0
851,59.0,-98.0,242.0,0
852,59.0,-96.0,242.0,0
853,65.0,-100.0,253.0,0
854,62.0,-98.0,253.0,0
855,60.0,-99.0,251.0,0
856,62.0,-101.0,252.0,0
857,61.0,-109.0,248.0,0
858,61.0,-106.0,240.0,0
859,56.0,-111.0,240.0,0
860,51.0,-115.0,236.0,0
861,51.0,-123.0,236.0,0
862,44.0,-126.0,232.0,0
863,45.0,-131.0,230.0,0
864,40.0,-134.0,229.0,0
865,39.0,-141.0,228.0,0
866,40.0,-144.0,231.0,0
867,31.0,-148.0,231.0,0
868,35.0,-150.0,238.0,0
869,29.0,-154.0,241.0,0
870,32.0,-161.0,240.0,0
871,31.0,-159.0,241.0,0
872,32.0,-162.0,239.0,0
873,43.0,-162.0,249.0,0
874,54.0,-159.0,248.0,0
875,67.0,-157.0,253.0,0
876,88.0,-153.0,256.0,0
877,114.0,-145.0,261.0,0
878,131.0,-137.0,261.0,0
879,149.0,-124.0,262.0,0
880,154.0,-111.0,262.0,0
881,164.0,-96.0,269.0,0
882,171.0,-80.0,269.0,0
883,175.0,-72.0,273.0,0
884,181.0,-70.0,273.0,0
885,173.0,-70.0,276.0,0
886,168.0,-69.0,284.0,0
887,156.0,-69.0,280.0,0
888,114.0,-72.0,286.0,0
889,61.0,-79.0,298.0,0
890,27.0,-88.0,311.0,0
891,21.0,-89.0,303.0,0
892,36.0,-98.0,288.0,0
893,64.0,-108.0,266.0,0
894,74.0,-119.0,250.0,0
895,83.0,-129.0,229.0,0
896,88.0,-137.0,219.0,0
897,91.0,-140.0,201.0,0
898,93.0,-149.0,183.0,0
899,91.0,-158.0,165.0,0
900,87.0,-161.0,155.0,0
901,80.0,-167.0,151.0,0
902,73.0,-168.0,149.0,0
903,69.0,-166.0,146.0,0
904,72.0,-163.0,149.0,0
905,74.0,-159.0,143.0,0
906,78.0,-150.0,146.0,0
907,82.0,-143.0,147.0,0
908,89.0,-132.0,143.0,0
909,99.0,-122.0,142.0,0
910,104.0,-118.0,133.0,0
911,110.0,-110.0,128.0,0
912,114.0,-101.0,121.0,0
913,120.0,-95.0,117.0,0
914,120.0,-90.0,113.0,0
915,117.0,-83.0,111.0,0
916,124.0,-76.0,101.0,0
917,125.0,-70.0,101.0,0
918,126.0,-66.0,98.0,0
919,129.0,-63.0,95.0,0
920,132.0,-62.0,94.0,0
921,132.0,-60.0,89.0,0
922,141.0,-63.0,87.0,0
923,140.0,-62.0,86.0,0
924,150.0,-58.0,82.0,0
925,163.0,-54.0,80.0,0
926,170.0,-53.0,77.0,0
927,177.0,-52.0,77.0,0
928,185.0,-52.0,78.0,0
929,186.0,-48.0,84.0,0
930,191.0,-42.0,83.0,0
931,191.0,-33.0,90.0,0
932,192.0,-29.0,94.0,0
933,192.0,-27.0,94.0,0
934,190.0,-27.0,99.0,0
935,193.0,-27.0,101.0,0
936,194.0,-28.0,103.0,0
937,196.0,-26.0,105.0,0
938,198.0,-28.0,107.0,0
939,198.0,-28.0,111.0,0
940,198.0,-26.0,107.0,0
941,199.0,-30.0,107.0,0
942,200.0,-31.0,104.0,0
943,206.0,-35.0,106.0,0
944,203.0,-37.0,99.0,0
945,204.0,-41.0,98.0,0
946,208.0,-45.0,97.0,0
947,208.0,-43.0,95.0,0
948,212.0,-45.0,101.0,0
949,212.0,-49.0,102.0,0
950,215.0,-50.0,97.0,0
951,222.0,-50.0,98.0,0
952,226.0,-51.0,94.0,0
953,235.0,-45.0,89.0,0
954,246.0,-45.0,80.0,0
955,251.0,-44.0,75.0,0
956,255.0,-40.0,74.0,0
957,250.0,-42.0,72.0,0
958,242.0,-45.0,77.0,0
959,226.0,-52.0,78.0,0
960,208.0,-60.0,88.0,0
961,209.0,-64.0,92.0,0
962,233.0,-65.0,100.0,0
963,259.0,-75.0,111.0,0
964,278.0,-88.0,120.0,0
965,315.0,-99.0,136.0,0
966,382.0,-112.0,161.0,0
967,426.0,-113.0,159.0,0
968,457.0,-109.0,153.0,0
969,492.0,-98.0,126.0,0
970,524.0,-89.0,91.0,0
971,538.0,-81.0,49.0,0
972,537.0,-77.0,0.0,0
973,518.0,-76.0,-36.0,0
974,455.0,-68.0,-31.0,0
975,390.0,-61.0,-7.0,0
976,327.0,-58.0,21.0,0
977,267.0,-57.0,55.0,0
978,230.0,-56.0,77.0,0
979,199.0,-58.0,97.0,0
980,177.0,-56.0,111.0,0
981,155.0,-53.0,123.0,0
982,139.0,-48.0,125.0,0
983,128.0,-38.0,122.0,0
984,127.0,-30.0,124.0,0
985,127.0,-22.0,120.0,0
986,132.0,-12.0,113.0,0
987,146.0,-4.0,107.0,0
988,165.0,0.0,99.0,0
989,190.0,1.0,87.0,0
990,201.0,2.0,83.0,0
991,214.0,4.0,76.0,0
992,221.0,0.0,71.0,0
993,228.0,-6.0,67.0,0
994,238.0,-9.0,61.0,0
995,247.0,-16.0,52.0,0
996,255.0,-25.0,42.0,0
997,258.0,-25.0,41.0,0
998,265.0,-29.0,32.0,0
999,268.0,-31.0,35.0,0
1000,271.0,-30.0,30.0,0
1001,274.0,-31.0,36.0,0
1002,274.0,-32.0,35.0,0
1003,279.0,-33.0,33.0,0
1004,277.0,-38.0,28.0,0
1005,279.0,-42.0,30.0,0
1006,280.0,-50.0,29.0,0
1007,283.0,-58.0,23.0,0
1008,274.0,-65.0,21.0,0
1009,275.0,-68.0,21.0,0
1010,274.0,-76.0,16.0,0
1011,269.0,-79.0,12.0,0
1012,266.0,-82.0,8.0,0
1013,256.0,-75.0,3.0,0
1014,247.0,-69.0,-5.0,0
1015,242.0,-57.0,-5.0,0
1016,245.0,-50.0,-16.0,0
1017,250.0,-43.0,-21.0,0
1018,244.0,-39.0,-28.0,0
1019,255.0,-35.0,-34.0,0
1020,260.0,-33.0,-35.0,0
1021,270.0,-31.0,-30.0,0
1022,271.0,-30.0,-30.0,0
1023,274.0,-31.0,-26.0,0
1024,276.0,-32.0,-25.0,0
1025,278.0,-29.0,-22.0,0
1026,275.0,-28.0,-15.0,0
1027,271.0,-29.0,-13.0,0
1028,274.0,-35.0,-10.0,0
1029,274.0,-34.0,-10.0,0
1030,268.0,-38.0,-11.0,0
1031,264.0,-39.0,-7.0,0
1032,264.0,-40.0,-11.0,0
1033,256.0,-38.0,-9.0,0
1034,257.0,-39.0,-10.0,0
1035,252.0,-36.0,-14.0,0
1036,251.0,-38.0,-16.0,0
1037,255.0,-38.0,-20.0,0
1038,252.0,-32.0,-22.0,0
1039,253.0,-25.0,-21.0,0
1040,259.0,-17.0,-19.0,0
1041,256.0,-11.0,-16.0,0
1042,258.0,-3.0,-13.0,0
1043,260.0,-3.0,-15.0,0
1044,265.0,-2.0,-13.0,0
1045,271.0,-9.0,-13.0,0
1046,277.0,-10.0,-20.0,0
1047,284.0,-12.0,-16.0,0
1048,283.0,-17.0,-15.0,0
1049,284.0,-13.0,-11.0,0
1050,282.0,-16.0,-9.0,0
1051,280.0,-14.0,-9.0,0
1052,277.0,-13.0,-10.0,0
1053,273.0,-17.0,-6.0,0
1054,272.0,-20.0,-14.0,0
1055,265.0,-25.0,-20.0,0
1056,264.0,-26.0,-16.0,0
1057,263.0,-21.0,-20.0,0
1058,258.0,-20.0,-15.0,0
1059,257.0,-21.0,-16.0,0
1060,256.0,-18.0,-14.0,0
1061,256.0,-21.0,-20.0,0
1062,253.0,-22.0,-24.0,0
1063,255.0,-21.0,-30.0,0
1064,256.0,-17.0,-32.0,0
1065,256.0,-14.0,-38.0,0
1066,257.0,-15.0,-37.0,0
1067,257.0,-10.0,-35.0,0
1068,263.0,-10.0,-29.0,0
1069,260.0,-7.0,-27.0,0
1070,260.0,0.0,-24.0,0
1071,261.0,0.0,-14.0,0
1072,262.0,1.0,-13.0,0
1073,263.0,0.0,-14.0,0
1074,264.0,4.0,-18.0,0
1075,266.0,2.0,-23.0,0
1076,264.0,2.0,-28.0,0
1077,266.0,-4.0,-28.0,0
1078,263.0,-1.0,-24.0,0
1079,260.0,-4.0,-26.0,0
1080,259.0,-2.0,-19.0,0
1081,254.0,-2.0,-22.0,0
1082,257.0,-3.0,-18.0,0
1083,252.0,-4.0,-10.0,0
1084,250.0,0.0,-15.0,0
1085,250.0,0.0,-8.0,0
1086,250.0,1.0,-8.0,0
1087,248.0,0.0,-12.0,0
1088,249.0,1.0,-2.0,0
1089,249.0,0.0,-5.0,0
1090,251.0,0.0,-9.0,0
1091,248.0,0.0,-7.0,0
1092,247.0,-2.0,-3.0,0
1093,251.0,-6.0,-3.0,0
1094,250.0,-5.0,-8.0,0
1095,253.0,-8.0,-6.0,0
1096,250.0,-4.0,-6.0,0
1097,255.0,0.0,-2.0,0
1098,251.0,-1.0,-5.0,0
1099,255.0,3.0,-1.0,0
1100,255.0,4.0,-2.0,0
1101,257.0,5.0,-2.0,0
1102,256.0,4.0,0.0,0
1103,260.0,6.0,0.0,0
1104,256.0,4.0,3.0,0
1105,258.0,1.0,4.0,0
1106,257.0,8.0,6.0,0
1107,260.0,6.0,9.0,0
1108,257.0,10.0,2.0,0
1109,259.0,8.0,9.0,0
1110,260.0,14.0,9.0,0
1111,257.0,16.0,5.0,0
1112,259.0,13.0,6.0,0
1113,258.0,14.0,6.0,0
1114,253.0,14.0,5.0,0
1115,250.0,14.0,8.0,0
1116,254.0,10.0,3.0,0
1117,252.0,9.0,4.0,0
1118,253.0,8.0,2.0,0
1119,252.0,7.0,6.0,0
1120,251.0,8.0,4.0,0
1121,249.0,6.0,3.0,0
1122,248.0,7.0,5.0,0
1123,247.0,9.0,4.0,0
1124,248.0,10.0,3.0,0
1125,244.0,10.0,7.0,0
1126,245.0,10.0,3.0,0
1127,247.0,5.0,2.0,0
1128,246.0,0.0,1.0,0
1129,250.0,0.0,1.0,0
1130,253.0,0.0,0.0,0
1131,258.0,-2.0,-4.0,0
1132,255.0,7.0,-8.0,0
1133,255.0,13.0,-11.0,0
1134,253.0,16.0,-13.0,0
1135,252.0,22.0,-16.0,0
1136,252.0,18.0,-15.0,0
1137,252.0,16.0,-14.0,0
1138,255.0,12.0,-11.0,0
1139,257.0,9.0,-11.0,0
1140,259.0,7.0,-9.0,0
1141,258.0,7.0,-11.0,0
1142,255.0,12.0,-13.0,0
1143,261.0,7.0,-20.0,0
1144,250.0,18.0,-13.0,0
1145,253.0,20.0,-17.0,0
1146,254.0,15.0,-8.0,0
1147,253.0,8.0,-12.0,0
1148,255.0,3.0,-12.0,0
1149,258.0,0.0,-6.0,0
1150,256.0,-7.0,-9.0,0
1151,260.0,-9.0,-11.0,0
1152,257.0,-10.0,-15.0,0
1153,261.0,-16.0,-18.0,0
1154,258.0,-18.0,-18.0,0
1155,263.0,-20.0,-22.0,0
1156,263.0,-19.0,-17.0,0
1157,259.0,-17.0,-18.0,0
1158,256.0,-15.0,-21.0,0
1159,264.0,-21.0,-23.0,0
1160,256.0,-16.0,-22.0,0
1161,254.0,-10.0,-23.0,0
1162,257.0,-14.0,-25.0,0
1163,253.0,-16.0,-18.0,0
1164,255.0,-17.0,-14.0,0
1165,254.0,-16.0,-22.0,0
1166,254.0,-18.0,-17.0,0
1167,253.0,-16.0,-14.0,0
1168,253.0,-14.0,-17.0,0
1169,257.0,-14.0,-13.0,0
1170,257.0,-13.0,-17.0,0
1171,255.0,-9.0,-21.0,0
1172,256.0,-6.0,-16.0,0
1173,260.0,-8.0,-22.0,0
1174,258.0,-1.0,-22.0,0
1175,262.0,-2.0,-24.0,0
1176,260.0,0.0,-25.0,0
1177,261.0,0.0,-24.0,0
1178,261.0,-2.0,-25.0,0
1179,260.0,-3.0,-26.0,0
1180,259.0,1.0,-25.0,0
1181,260.0,-1.0,-26.0,0
1182,259.0,0.0,-26.0,0
1183,261.0,0.0,-28.0,0
1184,257.0,0.0,-25.0,0
1185,256.0,-1.0,-24.0,0
1186,258.0,0.0,-24.0,0
1187,257.0,2.0,-29.0,0
1188,256.0,2.0,-27.0,0
1189,255.0,3.0,-22.0,0
1190,257.0,6.0,-25.0,0
1191,255.0,7.0,-29.0,0
1192,256.0,10.0,-23.0,0
1193,257.0,10.0,-24.0,0
1194,254.0,9.0,-22.0,0
1195,255.0,14.0,-25.0,0
1196,257.0,11.0,-22.0,0
1197,253.0,16.0,-25.0,0
1198,257.0,12.0,-23.0,0
1199,264.0,3.0,-25.0,0
1200,255.0,21.0,-20.0,0
1201,255.0,17.0,-25.0,0
1202,253.0,23.0,-27.0,0
1203,254.0,23.0,-27.0,0
1204,254.0,24.0,-22.0,0
1205,253.0,23.0,-25.0,0
1206,253.0,25.0,-28.0,0
1207,252.0,24.0,-24.0,0
1208,255.0,20.0,-25.0,0
1209,252.0,24.0,-23.0,0
1210,254.0,23.0,-21.0,0
1211,251.0,23.0,-26.0,0
1212,255.0,25.0,-23.0,0
1213,252.0,25.0,-22.0,0
1214,256.0,24.0,-20.0,0
1215,255.0,23.0,-23.0,0
1216,256.0,26.0,-20.0,0
1217,254.0,24.0,-22.0,0
1218,254.0,27.0,-20.0,0
1219,255.0,26.0,-21.0,0
1220,253.0,25.0,-20.0,0
1221,255.0,25.0,-28.0,0
1222,253.0,29.0,-27.0,0
1223,254.0,28.0,-22.0,0
1224,256.0,26.0,-26.0,0
1225,256.0,27.0,-20.0,0
1226,254.0,26.0,-24.0,0
1227,255.0,28.0,-21.0,0
1228,253.0,26.0,-23.0,0
1229,255.0,26.0,-25.0,0
1230,256.0,26.0,-22.0,0
1231,255.0,27.0,-25.0,0
1232,257.0,22.0,-23.0,0
1233,252.0,26.0,-21.0,0
1234,255.0,22.0,-20.0,0
1235,255.0,23.0,-21.0,0
1236,256.0,26.0,-21.0,0
1237,254.0,26.0,-24.0,0
1238,256.0,24.0,-26.0,0
1239,254.0,23.0,-21.0,0
1240,254.0,25.0,-21.0,0
1241,255.0,27.0,-20.0,0
1242,253.0,25.0,-19.0,0
1243,254.0,25.0,-22.0,0
1244,254.0,25.0,-23.0,0
1245,254.0,22.0,-22.0,0
1246,253.0,25.0,-22.0,0
1247,253.0,23.0,-22.0,0
1248,253.0,26.0,-23.0,0
1249,254.0,24.0,-23.0,0
1250,255.0,23.0,-22.0,0
1251,254.0,25.0,-29.0,0
1252,253.0,25.0,-23.0,0
1253,255.0,21.0,-24.0,0
1254,253.0,26.0,-27.0,0
1255,255.0,22.0,-23.0,0
1256,255.0,24.0,-28.0,0
1257,254.0,19.0,-26.0,0
1258,253.0,21.0,-26.0,0
1259,255.0,20.0,-22.0,0
1260,254.0,19.0,-21.0,0
1261,256.0,18.0,-26.0,0
1262,255.0,18.0,-23.0,0
1263,254.0,16.0,-21.0,0
1264,256.0,17.0,-25.0,0
1265,254.0,18.0,-25.0,0
1266,253.0,17.0,-27.0,0
1267,255.0,17.0,-28.0,0
1268,253.0,17.0,-21.0,0
1269,253.0,12.0,-25.0,0
1270,253.0,15.0,-25.0,0
1271,254.0,16.0,-26.0,0
1272,255.0,14.0,-23.0,0
1273,253.0,19.0,-22.0,0
1274,253.0,13.0,-19.0,0
1275,254.0,16.0,-22.0,0
1276,254.0,14.0,-22.0,0
1277,251.0,14.0,-24.0,0
1278,253.0,14.0,-19.0,0
1279,255.0,14.0,-24.0,0
1280,254.0,12.0,-22.0,0
1281,256.0,11.0,-22.0,0
1282,251.0,12.0,-22.0,0
1283,252.0,14.0,-23.0,0
1284,253.0,14.0,-23.0,0
1285,252.0,15.0,-21.0,0
1286,254.0,14.0,-20.0,0
1287,252.0,16.0,-24.0,0
1288,254.0,11.0,-20.0,0
1289,253.0,15.0,-24.0,0
1290,253.0,12.0,-20.0,0
1291,253.0,14.0,-22.0,0
1292,253.0,17.0,-21.0,0
1293,254.0,16.0,-18.0,0
1294,255.0,13.0,-18.0,0
1295,251.0,18.0,-21.0,0
1296,256.0,16.0,-16.0,0
1297,254.0,18.0,-23.0,0
1298,254.0,14.0,-18.0,0
1299,250.0,18.0,-16.0,0
1300,253.0,16.0,-21.0,0
1301,250.0,18.0,-23.0,0
1302,255.0,18.0,-16.0,0
1303,252.0,21.0,-21.0,0
1304,252.0,22.0,-18.0,0
1305,254.0,22.0,-18.0,0
1306,255.0,19.0,-22.0,0
1307,252.0,21.0,-23.0,0
1308,256.0,20.0,-20.0,0
1309,253.0,22.0,-23.0,0
1310,254.0,24.0,-17.0,0
1311,253.0,22.0,-23.0,0
1312,255.0,22.0,-19.0,0
1313,252.0,21.0,-22.0,0
1314,252.0,23.0,-20.0,0
1315,253.0,21.0,-21.0,0
1316,253.0,25.0,-19.0,0
1317,251.0,23.0,-24.0,0
1318,254.0,17.0,-20.0,0
1319,256.0,20.0,-21.0,0
1320,252.0,21.0,-19.0,0
1321,254.0,20.0,-16.0,0
1322,253.0,22.0,-23.0,0
1323,255.0,20.0,-21.0,0
1324,252.0,23.0,-17.0,0
1325,253.0,20.0,-16.0,0
1326,254.0,22.0,-23.0,0
1327,254.0,17.0,-19.0,0
1328,253.0,19.0,-19.0,0
1329,253.0,22.0,-23.0,0
1330,254.0,22.0,-20.0,0
1331,255.0,21.0,-18.0,0
1332,255.0,21.0,-22.0,0
1333,255.0,22.0,-20.0,0
1334,254.0,23.0,-19.0,0
1335,252.0,24.0,-17.0,0
1336,254.0,21.0,-20.0,0
1337,254.0,19.0,-24.0,0
1338,251.0,21.0,-17.0,0
1339,255.0,21.0,-19.0,0
1340,252.0,21.0,-22.0,0
1341,254.0,19.0,-20.0,0
1342,252.0,20.0,-17.0,0
1343,254.0,19.0,-18.0,0
1344,255.0,18.0,-18.0,0
1345,254.0,19.0,-16.0,0
1346,254.0,20.0,-20.0,0
1347,255.0,18.0,-18.0,0
1348,254.0,19.0,-18.0,0
1349,254.0,21.0,-22.0,0
1350,254.0,20.0,-19.0,0
1351,254.0,16.0,-19.0,0
1352,255.0,19.0,-18.0,0
1353,254.0,18.0,-17.0,0
1354,254.0,20.0,-18.0,0
1355,253.0,20.0,-18.0,0
1356,252.0,20.0,-17.0,0
1357,254.0,18.0,-18.0,0
1358,256.0,20.0,-19.0,0
1359,253.0,20.0,-18.0,0
1360,253.0,21.0,-18.0,0
1361,254.0,14.0,-18.0,0
1362,256.0,19.0,-18.0,0
1363,254.0,19.0,-17.0,0
1364,255.0,20.0,-16.0,0
1365,253.0,17.0,-20.0,0
1366,253.0,19.0,-20.0,0
1367,253.0,18.0,-17.0,0
1368,255.0,19.0,-18.0,0
1369,252.0,18.0,-18.0,0
1370,252.0,20.0,-16.0,0
1371,253.0,18.0,-16.0,0
1372,256.0,18.0,-14.0,0
1373,253.0,14.0,-15.0,0
1374,254.0,16.0,-19.0,0
1375,253.0,19.0,-19.0,0
1376,253.0,17.0,-18.0,0
1377,252.0,16.0,-16.0,0
1378,255.0,18.0,-15.0,0
1379,251.0,18.0,-17.0,0
1380,254.0,17.0,-16.0,0
1381,255.0,16.0,-19.0,0
1382,254.0,17.0,-17.0,0
1383,254.0,19.0,-15.0,0
1384,255.0,19.0,-16.0,0
1385,254.0,18.0,-19.0,0
1386,255.0,19.0,-21.0,0
1387,254.0,16.0,-19.0,0
1388,253.0,17.0,-16.0,0
1389,255.0,15.0,-19.0,0
1390,254.0,18.0,-20.0,0
1391,256.0,20.0,-19.0,0
1392,253.0,18.0,-19.0,0
1393,255.0,17.0,-13.0,0
1394,254.0,18.0,-16.0,0
1395,255.0,20.0,-15.0,0
1396,252.0,19.0,-20.0,0
1397,256.0,19.0,-18.0,0
1398,251.0,21.0,-17.0,0
1399,255.0,18.0,-17.0,0
1400,254.0,16.0,-15.0,0
1401,257.0,17.0,-16.0,0
1402,254.0,19.0,-17.0,0
1403,253.0,18.0,-14.0,0
1404,255.0,18.0,-18.0,0
1405,256.0,16.0,-20.0,0
1406,255.0,15.0,-16.0,0
1407,254.0,18.0,-17.0,0
1408,255.0,18.0,-16.0,0
1409,253.0,20.0,-17.0,0
1410,253.0,19.0,-16.0,0
1411,254.0,17.0,-15.0,0
1412,256.0,20.0,-20.0,0
1413,254.0,16.0,-16.0,0
1414,255.0,19.0,-14.0,0
1415,253.0,19.0,-17.0,0
1416,254.0,19.0,-12.0,0
1417,253.0,18.0,-20.0,0
1418,253.0,20.0,-18.0,0
1419,254.0,20.0,-17.0,0
1420,251.0,20.0,-18.0,0
1421,254.0,22.0,-19.0,0
1422,254.0,21.0,-16.0,0
1423,255.0,19.0,-13.0,0
1424,254.0,22.0,-17.0,0
1425,255.0,20.0,-16.0,0
1426,254.0,16.0,-16.0,0
1427,254.0,18.0,-17.0,0
1428,253.0,19.0,-15.0,0
1429,255.0,21.0,-18.0,0
1430,250.0,21.0,-20.0,0
1431,255.0,19.0,-16.0,0
1432,252.0,23.0,-15.0,0
1433,254.0,17.0,-20.0,0
1434,254.0,19.0,-18.0,0
1435,254.0,20.0,-16.0,0
1436,255.0,17.0,-20.0,0
1437,255.0,20.0,-17.0,0
1438,254.0,17.0,-18.0,0
1439,256.0,18.0,-19.0,0
1440,253.0,19.0,-17.0,0
1441,255.0,15.0,-20.0,0
1442,252.0,22.0,-14.0,0
1443,255.0,16.0,-16.0,0
1444,255.0,19.0,-15.0,0
1445,252.0,20.0,-14.0,0
1446,253.0,21.0,-19.0,0
1447,252.0,22.0,-19.0,0
1448,255.0,18.0,-21.0,0
1449,254.0,17.0,-20.0,0
1450,252.0,17.0,-15.0,0
1451,253.0,16.0,-17.0,0
1452,254.0,19.0,-21.0,0
1453,251.0,20.0,-15.0,0
1454,253.0,12.0,-20.0,0
1455,255.0,16.0,-18.0,0
1456,255.0,17.0,-16.0,0
1457,255.0,19.0,-21.0,0
1458,258.0,7.0,-28.0,0
1459,254.0,19.0,-20.0,0
1460,252.0,20.0,-22.0,0
1461,252.0,17.0,-18.0,0
1462,252.0,18.0,-18.0,0
1463,253.0,20.0,-22.0,0
1464,254.0,15.0,-17.0,0
1465,253.0,16.0,-20.0,0
1466,255.0,17.0,-20.0,0
1467,255.0,18.0,-20.0,0
1468,254.0,17.0,-17.0,0
1469,255.0,19.0,-20.0,0
1470,253.0,19.0,-22.0,0
1471,254.0,17.0,-21.0,0
1472,253.0,19.0,-19.0,0
1473,252.0,19.0,-20.0,0
1474,257.0,18.0,-22.0,0
1475,255.0,16.0,-22.0,0
1476,254.0,16.0,-24.0,0
1477,251.0,18.0,-20.0,0
1478,255.0,19.0,-20.0,0
1479,254.0,18.0,-21.0,0
1480,250.0,19.0,-20.0,0
1481,256.0,19.0,-22.0,0
1482,254.0,19.0,-16.0,0
1483,254.0,20.0,-20.0,0
1484,254.0,16.0,-20.0,0
1485,252.0,18.0,-18.0,0
1486,252.0,17.0,-19.0,0
1487,253.0,18.0,-20.0,0
1488,253.0,21.0,-15.0,0
1489,252.0,20.0,-19.0,0
1490,252.0,20.0,-21.0,0
1491,255.0,19.0,-19.0,0
1492,254.0,21.0,-22.0,0
1493,253.0,20.0,-21.0,0
1494,252.0,20.0,-17.0,0
1495,256.0,17.0,-20.0,0
1496,250.0,19.0,-19.0,0
1497,254.0,19.0,-20.0,0
1498,254.0,16.0,-20.0,0
1499,254.0,24.0,-19.0,0
1500,253.0,18.0,-20.0,0
1501,251.0,20.0,-17.0,0
1502,254.0,17.0,-22.0,0
1503,254.0,18.0,-23.0,0
1504,251.0,19.0,-20.0,0
1505,254.0,18.0,-21.0,0
1506,253.0,20.0,-19.0,0
1507,254.0,22.0,-20.0,0
1508,255.0,17.0,-22.0,0
1509,253.0,21.0,-19.0,0
1510,255.0,21.0,-23.0,0
1511,254.0,23.0,-22.0,0
1512,255.0,22.0,-19.0,0
1513,255.0,19.0,-22.0,0
1514,254.0,18.0,-24.0,0
1515,254.0,21.0,-20.0,0
1516,255.0,19.0,-23.0,0
1517,253.0,16.0,-21.0,0
1518,256.0,18.0,-24.0,0
1519,252.0,17.0,-19.0,0
1520,252.0,18.0,-19.0,0
1521,253.0,15.0,-20.0,0
1522,253.0,22.0,-18.0,0
1523,254.0,18.0,-21.0,0
1524,254.0,20.0,-23.0,0
1525,252.0,20.0,-25.0,0
1526,253.0,19.0,-22.0,0
1527,254.0,17.0,-19.0,0
1528,256.0,18.0,-21.0,0
1529,257.0,19.0,-22.0,0
1530,255.0,16.0,-19.0,0
1531,259.0,17.0,-20.0,0
1532,258.0,17.0,-25.0,0
1533,258.0,18.0,-26.0,0
1534,260.0,18.0,-27.0,0
1535,258.0,16.0,-26.0,0
1536,260.0,18.0,-28.0,0
1537,258.0,19.0,-27.0,0
1538,262.0,15.0,-26.0,0
1539,261.0,16.0,-27.0,0
1540,261.0,15.0,-24.0,0
1541,260.0,17.0,-28.0,0
1542,263.0,18.0,-27.0,0
1543,261.0,19.0,-29.0,0
1544,262.0,18.0,-28.0,0
1545,257.0,21.0,-25.0,0
1546,258.0,19.0,-23.0,0
1547,260.0,19.0,-24.0,0
1548,259.0,17.0,-22.0,0
1549,256.0,17.0,-23.0,0
1550,257.0,17.0,-21.0,0
1551,260.0,16.0,-22.0,0
1552,260.0,14.0,-21.0,0
1553,260.0,14.0,-19.0,0
1554,264.0,13.0,-22.0,0
1555,257.0,18.0,-28.0,0
1556,260.0,14.0,-22.0,0
1557,261.0,17.0,-20.0,0
1558,259.0,21.0,-19.0,0
1559,258.0,22.0,-16.0,0
1560,260.0,19.0,-16.0,0
1561,258.0,23.0,-16.0,0
1562,260.0,22.0,-13.0,0
1563,260.0,19.0,-15.0,0
1564,262.0,18.0,-13.0,0
1565,261.0,23.0,-9.0,0
1566,264.0,22.0,-4.0,0
1567,260.0,21.0,-5.0,0
1568,260.0,25.0,-2.0,0
1569,263.0,21.0,3.0,0
1570,263.0,18.0,1.0,0
1571,260.0,21.0,-5.0,0
1572,258.0,15.0,-8.0,0
1573,260.0,13.0,-10.0,0
1574,259.0,8.0,-14.0,0
1575,261.0,1.0,-22.0,0
1576,263.0,3.0,-25.0,0
1577,264.0,4.0,-27.0,0
1578,268.0,5.0,-27.0,0
1579,270.0,14.0,-29.0,0
1580,273.0,17.0,-30.0,0
1581,276.0,23.0,-34.0,0
1582,275.0,25.0,-35.0,0
1583,272.0,25.0,-33.0,0
1584,275.0,26.0,-20.0,0
1585,273.0,21.0,-16.0,0
1586,273.0,24.0,-5.0,0
1587,270.0,20.0,0.0,0
1588,269.0,23.0,5.0,0
1589,262.0,25.0,13.0,0
1590,263.0,24.0,16.0,0
1591,254.0,24.0,14.0,0
1592,246.0,22.0,2.0,0
1593,243.0,20.0,-7.0,0
1594,241.0,16.0,-10.0,0
1595,238.0,20.0,-14.0,0
1596,239.0,23.0,-21.0,0
1597,242.0,27.0,-23.0,0
1598,245.0,28.0,-23.0,0
1599,248.0,33.0,-23.0,0
1600,254.0,37.0,-21.0,0
1601,257.0,41.0,-18.0,0
1602,261.0,40.0,-7.0,0
1603,267.0,41.0,0.0,0
1604,270.0,43.0,5.0,0
1605,266.0,41.0,10.0,0
1606,267.0,39.0,15.0,0
1607,262.0,36.0,13.0,0
1608,259.0,35.0,11.0,0
1609,257.0,27.0,13.0,0
1610,257.0,26.0,13.0,0
1611,254.0,24.0,15.0,0
1612,253.0,23.0,13.0,0
1613,256.0,23.0,7.0,0
1614,262.0,22.0,3.0,0
1615,268.0,26.0,2.0,0
1616,268.0,26.0,-1.0,0
1617,275.0,23.0,0.0,0
1618,278.0,23.0,10.0,0
1619,281.0,21.0,20.0,0
1620,282.0,16.0,30.0,0
1621,283.0,16.0,32.0,0
1622,286.0,20.0,25.0,0
1623,288.0,23.0,19.0,0
1624,286.0,25.0,22.0,0
1625,285.0,25.0,15.0,0
1626,280.0,18.0,16.0,0
1627,276.0,7.0,12.0,0
1628,271.0,6.0,10.0,0
1629,265.0,2.0,9.0,0
1630,259.0,-3.0,21.0,0
1631,258.0,-10.0,20.0,0
1632,257.0,-21.0,23.0,0
1633,256.0,-27.0,24.0,0
1634,252.0,-36.0,29.0,0
1635,252.0,-46.0,32.0,0
1636,249.0,-50.0,37.0,0
1637,237.0,-59.0,44.0,0
1638,230.0,-70.0,49.0,0
1639,214.0,-77.0,54.0,0
1640,205.0,-87.0,47.0,0
1641,199.0,-92.0,48.0,0
1642,201.0,-98.0,37.0,0
1643,206.0,-107.0,39.0,0
1644,209.0,-114.0,31.0,0
1645,211.0,-122.0,25.0,0
1646,209.0,-123.0,18.0,0
1647,210.0,-123.0,18.0,0
1648,215.0,-111.0,16.0,0
1649,216.0,-106.0,12.0,0
1650,217.0,-101.0,22.0,0
1651,224.0,-95.0,21.0,0
1652,234.0,-87.0,22.0,0
1653,238.0,-84.0,25.0,0
1654,244.0,-76.0,28.0,0
1655,258.0,-65.0,24.0,0
1656,264.0,-65.0,25.0,0
1657,272.0,-62.0,14.0,0
1658,280.0,-64.0,15.0,0
1659,281.0,-63.0,16.0,0
1660,278.0,-67.0,11.0,0
1661,272.0,-66.0,13.0,0
1662,260.0,-61.0,21.0,0
1663,263.0,-57.0,16.0,0
1664,262.0,-53.0,14.0,0
1665,258.0,-45.0,14.0,0
1666,246.0,-47.0,18.0,0
1667,248.0,-51.0,11.0,0
1668,246.0,-56.0,6.0,0
1669,246.0,-65.0,0.0,0
1670,244.0,-75.0,-7.0,0
1671,233.0,-86.0,-12.0,0
1672,226.0,-92.0,-18.0,0
1673,222.0,-100.0,-22.0,0
1674,221.0,-104.0,-19.0,0
1675,213.0,-110.0,-21.0,0
1676,216.0,-115.0,-14.0,0
1677,207.0,-122.0,1.0,0
1678,210.0,-125.0,5.0,0
1679,208.0,-127.0,16.0,0
1680,211.0,-128.0,26.0,0
1681,217.0,-127.0,33.0,0
1682,223.0,-122.0,43.0,0
1683,223.0,-122.0,42.0,0
1684,232.0,-117.0,52.0,0
1685,234.0,-115.0,53.0,0
1686,241.0,-106.0,54.0,0
1687,242.0,-100.0,55.0,0
1688,238.0,-89.0,52.0,0
1689,242.0,-82.0,52.0,0
1690,242.0,-75.0,51.0,0
1691,242.0,-65.0,53.0,0
1692,242.0,-62.0,49.0,0
1693,240.0,-59.0,53.0,0
1694,242.0,-52.0,54.0,0
1695,240.0,-59.0,58.0,0
1696,242.0,-55.0,61.0,0
1697,233.0,-52.0,56.0,0
1698,234.0,-53.0,58.0,0
1699,227.0,-54.0,63.0,0
1700,229.0,-49.0,63.0,0
1701,228.0,-48.0,73.0,0
1702,226.0,-46.0,80.0,0
1703,228.0,-43.0,87.0,0
1704,232.0,-40.0,100.0,0
1705,238.0,-39.0,105.0,0
1706,246.0,-38.0,104.0,0
1707,246.0,-35.0,106.0,0
1708,252.0,-38.0,109.0,0
1709,255.0,-39.0,95.0,0
1710,265.0,-41.0,88.0,0
1711,270.0,-47.0,84.0,0
1712,273.0,-51.0,74.0,0
1713,272.0,-55.0,78.0,0
1714,263.0,-60.0,79.0,0
1715,254.0,-65.0,87.0,0
1716,252.0,-84.0,97.0,0
1717,250.0,-94.0,99.0,0
1718,256.0,-100.0,95.0,0
1719,256.0,-118.0,95.0,0
1720,251.0,-127.0,92.0,0
1721,251.0,-130.0,89.0,0
1722,258.0,-140.0,89.0,0
1723,264.0,-148.0,93.0,0
1724,289.0,-150.0,96.0,0
1725,309.0,-151.0,96.0,0
1726,335.0,-151.0,104.0,0
1727,366.0,-159.0,117.0,0
1728,390.0,-154.0,126.0,0
1729,411.0,-152.0,129.0,0
1730,421.0,-151.0,129.0,0
1731,434.0,-148.0,130.0,0
1732,449.0,-131.0,129.0,0
1733,475.0,-114.0,118.0,0
1734,481.0,-94.0,105.0,0
1735,461.0,-81.0,97.0,0
1736,427.0,-61.0,75.0,0
1737,391.0,-53.0,67.0,0
1738,361.0,-32.0,48.0,0
1739,330.0,-32.0,45.0,0
1740,303.0,-23.0,25.0,0
1741,277.0,-27.0,22.0,0
1742,251.0,-32.0,7.0,0
1743,233.0,-44.0,4.0,0
1744,222.0,-52.0,9.0,0
1745,221.0,-62.0,22.0,0
1746,222.0,-78.0,40.0,0
1747,229.0,-96.0,62.0,0
1748,240.0,-115.0,74.0,0
1749,236.0,-127.0,85.0,0
1750,235.0,-139.0,89.0,0
1751,231.0,-149.0,98.0,0
1752,229.0,-158.0,107.0,0
1753,223.0,-161.0,108.0,0
1754,221.0,-160.0,102.0,0
1755,212.0,-151.0,99.0,0
1756,203.0,-148.0,94.0,0
1757,189.0,-137.0,84.0,0
1758,184.0,-127.0,80.0,0
1759,169.0,-105.0,68.0,0
1760,160.0,-92.0,66.0,0
1761,149.0,-79.0,69.0,0
1762,138.0,-66.0,77.0,0
1763,129.0,-55.0,84.0,0
1764,126.0,-46.0,88.0,0
1765,119.0,-39.0,91.0,0
1766,117.0,-30.0,93.0,0
1767,118.0,-24.0,97.0,0
1768,117.0,-20.0,94.0,0
1769,110.0,-13.0,90.0,0
1770,108.0,-6.0,90.0,0
1771,109.0,-5.0,88.0,0
1772,108.0,-4.0,88.0,0
1773,108.0,-1.0,86.0,0
1774,112.0,-7.0,85.0,0
1775,118.0,-9.0,87.0,0
1776,121.0,-9.0,81.0,0
1777,124.0,-13.0,82.0,0
1778,129.0,-15.0,82.0,0
1779,131.0,-20.0,79.0,0
1780,136.0,-26.0,80.0,0
1781,140.0,-26.0,88.0,0
1782,136.0,-26.0,87.0,0
1783,133.0,-25.0,87.0,0
1784,133.0,-25.0,92.0,0
1785,130.0,-22.0,93.0,0
1786,125.0,-23.0,94.0,0
1787,120.0,-21.0,96.0,0
1788,123.0,-24.0,97.0,0
1789,121.0,-23.0,96.0,0
1790,120.0,-24.0,102.0,0
1791,116.0,-19.0,98.0,0
1792,110.0,-18.0,99.0,0
1793,107.0,-14.0,95.0,0
1794,106.0,-16.0,97.0,0
1795,103.0,-10.0,94.0,0
1796,107.0,-9.0,88.0,0
1797,110.0,-10.0,88.0,0
1798,112.0,-9.0,87.0,0
1799,116.0,-11.0,82.0,0
1800,127.0,-19.0,85.0,0
1801,140.0,-29.0,87.0,0
1802,149.0,-35.0,100.0,0
1803,154.0,-48.0,117.0,0
1804,183.0,-55.0,141.0,0
1805,214.0,-76.0,164.0,0
1806,243.0,-103.0,199.0,0
1807,272.0,-127.0,237.0,0
1808,304.0,-156.0,280.0,0
1809,329.0,-191.0,311.0,0
1810,364.0,-220.0,328.0,0
1811,391.0,-249.0,329.0,0
1812,421.0,-273.0,321.0,0
1813,442.0,-300.0,304.0,0
1814,439.0,-329.0,277.0,0
1815,400.0,-350.0,263.0,0
1816,348.0,-360.0,259.0,0
1817,323.0,-346.0,258.0,0
1818,285.0,-341.0,263.0,0
1819,249.0,-333.0,251.0,0
1820,198.0,-319.0,229.0,0
1821,138.0,-292.0,196.0,0
1822,85.0,-262.0,165.0,0
1823,47.0,-233.0,131.0,0
1824,19.0,-203.0,109.0,0
1825,7.0,-185.0,97.0,0
1826,3.0,-178.0,97.0,0
1827,6.0,-170.0,109.0,0
1828,15.0,-167.0,126.0,0
1829,23.0,-159.0,145.0,0
1830,37.0,-148.0,165.0,0
1831,49.0,-142.0,181.0,0
1832,60.0,-136.0,191.0,0
1833,65.0,-128.0,195.0,0
1834,70.0,-125.0,194.0,0
1835,71.0,-116.0,193.0,0
1836,71.0,-110.0,191.0,0
1837,73.0,-106.0,191.0,0
1838,74.0,-97.0,189.0,0
1839,83.0,-94.0,183.0,0
1840,92.0,-88.0,183.0,0
1841,102.0,-81.0,175.0,0
1842,114.0,-76.0,166.0,0
1843,124.0,-73.0,162.0,0
1844,137.0,-74.0,156.0,0
1845,143.0,-75.0,153.0,0
1846,149.0,-82.0,149.0,0
1847,156.0,-91.0,154.0,0
1848,162.0,-101.0,155.0,0
1849,170.0,-115.0,162.0,0
1850,170.0,-133.0,167.0,0
1851,168.0,-149.0,175.0,0
1852,171.0,-167.0,183.0,0
1853,171.0,-184.0,182.0,0
1854,172.0,-196.0,184.0,0
1855,169.0,-207.0,188.0,0
1856,164.0,-219.0,189.0,0
1857,157.0,-227.0,184.0,0
1858,152.0,-232.0,181.0,0
1859,145.0,-235.0,178.0,0
1860,142.0,-234.0,173.0,0
1861,141.0,-236.0,170.0,0
1862,138.0,-233.0,166.0,0
1863,129.0,-223.0,160.0,0
1864,128.0,-216.0,156.0,0
1865,123.0,-205.0,148.0,0
1866,122.0,-197.0,148.0,0
1867,114.0,-187.0,143.0,0
1868,114.0,-179.0,144.0,0
1869,110.0,-167.0,146.0,0
1870,107.0,-159.0,150.0,0
1871,102.0,-151.0,154.0,0
1872,97.0,-145.0,157.0,0
1873,96.0,-143.0,162.0,0
1874,97.0,-143.0,170.0,0
1875,98.0,-148.0,175.0,0
1876,92.0,-153.0,183.0,0
1877,94.0,-160.0,190.0,0
1878,90.0,-159.0,196.0,0
1879,90.0,-162.0,204.0,0
1880,90.0,-169.0,212.0,0
1881,87.0,-171.0,211.0,0
1882,83.0,-174.0,216.0,0
1883,81.0,-173.0,215.0,0
1884,79.0,-175.0,214.0,0
1885,78.0,-176.0,213.0,0
1886,77.0,-174.0,214.0,0
1887,81.0,-174.0,203.0,0
1888,83.0,-172.0,199.0,0
1889,87.0,-172.0,188.0,0
1890,89.0,-170.0,185.0,0
1891,96.0,-168.0,176.0,0
1892,101.0,-167.0,174.0,0
1893,109.0,-169.0,172.0,0
1894,114.0,-167.0,172.0,0
1895,120.0,-163.0,168.0,0
1896,124.0,-162.0,170.0,0
1897,125.0,-163.0,173.0,0
1898,125.0,-158.0,175.0,0
1899,125.0,-152.0,179.0,0
1900,128.0,-146.0,179.0,0
1901,126.0,-142.0,181.0,0
1902,124.0,-136.0,178.0,0
1903,119.0,-134.0,180.0,0
1904,112.0,-138.0,173.0,0
1905,105.0,-139.0,175.0,0
1906,106.0,-144.0,174.0,0
1907,102.0,-141.0,181.0,0
1908,96.0,-140.0,185.0,0
1909,97.0,-144.0,195.0,0
1910,94.0,-143.0,202.0,0
1911,92.0,-142.0,209.0,0
1912,89.0,-139.0,217.0,0
1913,90.0,-140.0,223.0,0
1914,93.0,-142.0,224.0,0
1915,97.0,-144.0,226.0,0
1916,97.0,-146.0,219.0,0
1917,102.0,-151.0,214.0,0
1918,105.0,-161.0,209.0,0
1919,103.0,-167.0,197.0,0
1920,100.0,-175.0,193.0,0
1921,101.0,-185.0,195.0,0
1922,94.0,-191.0,186.0,0
1923,91.0,-192.0,185.0,0
1924,94.0,-189.0,185.0,0
1925,91.0,-187.0,186.0,0
1926,89.0,-181.0,185.0,0
1927,84.0,-174.0,180.0,0
1928,84.0,-174.0,180.0,0
1929,72.0,-172.0,174.0,0
1930,64.0,-174.0,174.0,0
1931,60.0,-176.0,175.0,0
1932,58.0,-178.0,179.0,0
1933,57.0,-175.0,180.0,0
1934,54.0,-174.0,188.0,0
1935,59.0,-171.0,193.0,0
1936,60.0,-164.0,194.0,0
1937,65.0,-160.0,195.0,0
1938,67.0,-153.0,196.0,0
1939,73.0,-151.0,196.0,0
1940,83.0,-146.0,196.0,0
1941,86.0,-143.0,198.0,0
1942,91.0,-139.0,192.0,0
1943,90.0,-136.0,193.0,0
1944,92.0,-139.0,189.0,0
1945,91.0,-137.0,192.0,0
1946,91.0,-140.0,194.0,0
1947,86.0,-146.0,197.0,0
1948,82.0,-148.0,199.0,0
1949,80.0,-155.0,199.0,0
1950,74.0,-152.0,201.0,0
1951,70.0,-153.0,206.0,0
1952,66.0,-152.0,201.0,0
1953,63.0,-150.0,200.0,0
1954,65.0,-150.0,201.0,0
1955,60.0,-152.0,201.0,0
1956,63.0,-152.0,197.0,0
1957,64.0,-151.0,193.0,0
1958,61.0,-150.0,193.0,0
1959,62.0,-152.0,193.0,0
1960,62.0,-157.0,193.0,0
1961,60.0,-156.0,193.0,0
1962,56.0,-163.0,194.0,0
1963,52.0,-165.0,197.0,0
1964,51.0,-173.0,194.0,0
1965,48.0,-173.0,197.0,0
1966,47.0,-180.0,200.0,0
1967,46.0,-180.0,203.0,0
1968,43.0,-181.0,204.0,0
1969,45.0,-179.0,197.0,0
1970,39.0,-176.0,200.0,0
1971,33.0,-174.0,200.0,0
1972,28.0,-167.0,199.0,0
1973,27.0,-166.0,204.0,0
1974,28.0,-163.0,204.0,0
1975,25.0,-161.0,212.0,0
1976,27.0,-159.0,217.0,0
1977,27.0,-160.0,218.0,0
1978,25.0,-163.0,227.0,0
1979,22.0,-165.0,239.0,0
1980,20.0,-171.0,244.0,0
1981,13.0,-173.0,247.0,0
1982,9.0,-174.0,245.0,0
1983,6.0,-169.0,247.0,0
1984,5.0,-168.0,240.0,0
1985,3.0,-161.0,235.0,0
1986,-2.0,-158.0,228.0,0
1987,1.0,-153.0,224.0,0
1988,3.0,-147.0,218.0,0
1989,5.0,-143.0,215.0,0
1990,6.0,-141.0,210.0,0
1991,10.0,-139.0,204.0,0
1992,14.0,-137.0,213.0,0
1993,15.0,-139.0,210.0,0
1994,26.0,-141.0,212.0,0
1995,27.0,-152.0,212.0,0
1996,35.0,-156.0,218.0,0
1997,35.0,-158.0,217.0,0
1998,36.0,-164.0,218.0,0
1999,35.0,-172.0,220.0,0
2000,32.0,-176.0,219.0,0
2001,26.0,-180.0,220.0,0
2002,18.0,-176.0,217.0,0
2003,18.0,-181.0,220.0,0
2004,14.0,-178.0,224.0,0
2005,16.0,-173.0,215.0,0
2006,16.0,-168.0,212.0,0
2007,19.0,-162.0,208.0,0
2008,26.0,-159.0,203.0,0
2009,31.0,-158.0,203.0,0
2010,36.0,-158.0,200.0,0
2011,36.0,-155.0,201.0,0
2012,41.0,-154.0,205.0,0
2013,46.0,-158.0,208.0,0
2014,50.0,-159.0,209.0,0
2015,54.0,-158.0,208.0,0
2016,53.0,-157.0,216.0,0
2017,57.0,-157.0,220.0,0
2018,59.0,-155.0,217.0,0
2019,57.0,-154.0,224.0,0
2020,56.0,-155.0,222.0,0
2021,53.0,-151.0,225.0,0
2022,55.0,-150.0,220.0,0
2023,53.0,-150.0,223.0,0
2024,58.0,-145.0,219.0,0
2025,59.0,-148.0,213.0,0
2026,60.0,-153.0,209.0,0
2027,62.0,-151.0,205.0,0
2028,61.0,-157.0,203.0,0
2029,59.0,-159.0,199.0,0
2030,59.0,-164.0,198.0,0
2031,55.0,-165.0,202.0,0
2032,55.0,-167.0,202.0,0
2033,56.0,-168.0,206.0,0
2034,54.0,-170.0,208.0,0
2035,50.0,-178.0,206.0,0
2036,46.0,-177.0,208.0,0
2037,44.0,-181.0,207.0,0
2038,50.0,-184.0,210.0,0
2039,48.0,-188.0,213.0,0
2040,43.0,-185.0,211.0,0
2041,35.0,-180.0,208.0,0
2042,35.0,-180.0,208.0,0
2043,36.0,-178.0,212.0,0
2044,33.0,-174.0,211.0,0
2045,25.0,-167.0,212.0,0
2046,14.0,-164.0,205.0,0
2047,8.0,-157.0,203.0,0
2048,3.0,-157.0,199.0,0
2049,1.0,-159.0,198.0,0
2050,-5.0,-161.0,202.0,0
2051,-7.0,-168.0,203.0,0
2052,-15.0,-169.0,206.0,0
2053,-22.0,-170.0,204.0,0
2054,-26.0,-169.0,205.0,0
2055,-25.0,-169.0,207.0,0
2056,-21.0,-169.0,206.0,0
2057,-17.0,-160.0,209.0,0
2058,-15.0,-156.0,203.0,0
2059,-7.0,-153.0,204.0,0
2060,-3.0,-151.0,201.0,0
2061,1.0,-152.0,205.0,0
2062,8.0,-151.0,208.0,0
2063,11.0,-154.0,212.0,0
2064,12.0,-154.0,214.0,0
2065,22.0,-159.0,222.0,0
2066,25.0,-161.0,221.0,0
2067,29.0,-159.0,220.0,0
2068,31.0,-159.0,223.0,0
2069,32.0,-155.0,216.0,0
2070,31.0,-152.0,218.0,0
2071,31.0,-152.0,219.0,0
2072,31.0,-154.0,211.0,0
2073,33.0,-152.0,217.0,0
2074,29.0,-155.0,222.0,0
2075,28.0,-156.0,220.0,0
2076,28.0,-157.0,215.0,0
2077,26.0,-156.0,224.0,0
2078,26.0,-152.0,220.0,0
2079,23.0,-146.0,225.0,0
2080,27.0,-145.0,221.0,0
2081,27.0,-140.0,223.0,0
2082,27.0,-136.0,224.0,0
2083,30.0,-133.0,220.0,0
2084,31.0,-131.0,224.0,0
2085,32.0,-131.0,224.0,0
2086,34.0,-130.0,227.0,0
2087,38.0,-132.0,227.0,0
2088,36.0,-136.0,226.0,0
2089,37.0,-138.0,227.0,0
2090,37.0,-141.0,225.0,0
2091,34.0,-142.0,223.0,0
2092,32.0,-143.0,225.0,0
2093,32.0,-147.0,227.0,0
2094,32.0,-141.0,223.0,0
2095,33.0,-147.0,223.0,0
2096,31.0,-142.0,225.0,0
2097,32.0,-144.0,226.0,0
2098,35.0,-144.0,229.0,0
2099,36.0,-145.0,229.0,0
2100,39.0,-142.0,228.0,0
2101,41.0,-146.0,230.0,0
2102,40.0,-140.0,228.0,0
2103,42.0,-142.0,230.0,0
2104,40.0,-140.0,230.0,0
2105,42.0,-141.0,231.0,0
2106,42.0,-136.0,231.0,0
2107,42.0,-137.0,226.0,0
2108,40.0,-137.0,229.0,0
2109,42.0,-133.0,227.0,0
2110,36.0,-137.0,224.0,0
2111,38.0,-134.0,226.0,0
2112,38.0,-135.0,225.0,0
2113,39.0,-134.0,222.0,0
2114,42.0,-136.0,224.0,0
2115,40.0,-130.0,223.0,0
2116,41.0,-130.0,224.0,0
2117,46.0,-129.0,225.0,0
2118,45.0,-128.0,224.0,0
2119,44.0,-128.0,223.0,0
2120,45.0,-126.0,222.0,0
2121,47.0,-127.0,224.0,0
2122,48.0,-125.0,225.0,0
2123,50.0,-126.0,223.0,0
2124,49.0,-127.0,223.0,0
2125,50.0,-127.0,229.0,0
2126,41.0,-128.0,228.0,0
2127,41.0,-132.0,223.0,0
2128,39.0,-130.0,225.0,0
2129,38.0,-131.0,229.0,0
2130,33.0,-136.0,228.0,0
2131,32.0,-136.0,229.0,0
2132,32.0,-139.0,231.0,0
2133,28.0,-134.0,232.0,0
2134,24.0,-142.0,231.0,0
2135,22.0,-140.0,233.0,0
2136,19.0,-140.0,239.0,0
2137,17.0,-139.0,238.0,0
2138,19.0,-141.0,237.0,0
2139,12.0,-137.0,239.0,0
2140,10.0,-132.0,242.0,0
2141,10.0,-131.0,238.0,0
2142,9.0,-127.0,243.0,0
2143,10.0,-128.0,241.0,0
2144,12.0,-122.0,237.0,0
2145,14.0,-123.0,238.0,0
2146,16.0,-121.0,243.0,0
2147,14.0,-119.0,238.0,0
2148,15.0,-118.0,241.0,0
2149,16.0,-113.0,242.0,0
2150,20.0,-117.0,242.0,0
2151,19.0,-113.0,244.0,0
2152,21.0,-113.0,238.0,0
2153,23.0,-112.0,240.0,0
2154,24.0,-116.0,235.0,0
2155,26.0,-112.0,237.0,0
2156,28.0,-112.0,237.0,0
2157,23.0,-108.0,235.0,0
2158,28.0,-111.0,239.0,0
2159,32.0,-115.0,239.0,0
2160,34.0,-111.0,240.0,0
2161,33.0,-113.0,238.0,0
2162,37.0,-111.0,241.0,0
2163,35.0,-112.0,241.0,0
2164,35.0,-110.0,240.0,0
2165,34.0,-112.0,239.0,0
2166,37.0,-109.0,241.0,0
2167,41.0,-114.0,243.0,0
2168,42.0,-110.0,243.0,0
2169,43.0,-109.0,242.0,0
2170,45.0,-110.0,237.0,0
2171,45.0,-111.0,241.0,0
2172,44.0,-113.0,242.0,0
2173,43.0,-113.0,241.0,0
2174,40.0,-113.0,237.0,0
2175,40.0,-115.0,239.0,0
2176,43.0,-113.0,234.0,0
2177,40.0,-119.0,240.0,0
2178,39.0,-119.0,240.0,0
2179,37.0,-120.0,238.0,0
2180,37.0,-120.0,237.0,0
2181,35.0,-123.0,239.0,0
2182,37.0,-123.0,240.0,0
2183,32.0,-122.0,234.0,0
2184,34.0,-126.0,239.0,0
2185,33.0,-125.0,238.0,0
2186,35.0,-125.0,237.0,0
2187,33.0,-123.0,236.0,0
2188,33.0,-121.0,236.0,0
2189,34.0,-121.0,236.0,0
2190,33.0,-119.0,238.0,0
2191,32.0,-118.0,236.0,0
2192,31.0,-120.0,234.0,0
2193,32.0,-119.0,237.0,0
2194,28.0,-117.0,234.0,0
2195,26.0,-119.0,237.0,0
2196,27.0,-117.0,238.0,0
2197,31.0,-117.0,243.0,0
2198,28.0,-119.0,238.0,0
2199,29.0,-114.0,237.0,0
2200,28.0,-122.0,237.0,0
2201,25.0,-121.0,241.0,0
2202,27.0,-120.0,240.0,0
2203,30.0,-124.0,235.0,0
2204,28.0,-123.0,236.0,0
2205,27.0,-128.0,236.0,0
2206,28.0,-127.0,237.0,0
2207,27.0,-128.0,235.0,0
2208,31.0,-127.0,237.0,0
2209,32.0,-128.0,235.0,0
2210,26.0,-129.0,235.0,0
2211,31.0,-132.0,233.0,0
2212,25.0,-130.0,234.0,0
2213,29.0,-131.0,235.0,0
2214,25.0,-132.0,237.0,0
2215,24.0,-125.0,234.0,0
2216,23.0,-127.0,233.0,0
2217,21.0,-126.0,238.0,0
2218,21.0,-125.0,236.0,0
2219,20.0,-120.0,236.0,0
2220,17.0,-122.0,235.0,0
2221,17.0,-117.0,236.0,0
2222,16.0,-118.0,238.0,0
2223,16.0,-118.0,235.0,0
2224,15.0,-116.0,237.0,0
2225,20.0,-115.0,239.0,0
2226,18.0,-114.0,242.0,0
2227,18.0,-116.0,240.0,0
2228,17.0,-116.0,242.0,0
2229,13.0,-112.0,242.0,0
2230,18.0,-115.0,240.0,0
2231,16.0,-113.0,242.0,0
2232,16.0,-114.0,242.0,0
2233,16.0,-111.0,241.0,0
2234,18.0,-113.0,240.0,0
2235,17.0,-115.0,241.0,0
2236,17.0,-113.0,244.0,0
2237,19.0,-112.0,243.0,0
2238,19.0,-110.0,242.0,0
2239,22.0,-112.0,243.0,0
2240,24.0,-111.0,242.0,0
2241,22.0,-106.0,241.0,0
2242,24.0,-109.0,241.0,0
2243,26.0,-110.0,243.0,0
2244,26.0,-109.0,242.0,0
2245,29.0,-111.0,242.0,0
2246,32.0,-110.0,244.0,0
2247,32.0,-107.0,244.0,0
2248,31.0,-108.0,240.0,0
2249,32.0,-107.0,243.0,0
2250,34.0,-107.0,243.0,0
2251,30.0,-106.0,246.0,0
2252,35.0,-104.0,243.0,0
2253,33.0,-103.0,245.0,0
2254,34.0,-106.0,244.0,0
2255,35.0,-105.0,242.0,0
2256,36.0,-104.0,242.0,0
2257,34.0,-105.0,239.0,0
2258,34.0,-102.0,245.0,0
2259,37.0,-106.0,243.0,0
2260,37.0,-101.0,243.0,0
2261,36.0,-106.0,247.0,0
2262,39.0,-106.0,246.0,0
2263,35.0,-106.0,242.0,0
2264,38.0,-109.0,244.0,0
2265,36.0,-107.0,243.0,0
2266,31.0,-107.0,240.0,0
2267,34.0,-108.0,237.0,0
2268,34.0,-109.0,244.0,0
2269,31.0,-108.0,244.0,0
2270,33.0,-109.0,241.0,0
2271,31.0,-109.0,246.0,0
2272,32.0,-110.0,242.0,0
2273,29.0,-112.0,240.0,0
2274,29.0,-113.0,242.0,0
2275,28.0,-114.0,241.0,0
2276,29.0,-114.0,240.0,0
2277,26.0,-114.0,244.0,0
2278,27.0,-114.0,245.0,0
2279,28.0,-113.0,243.0,0
2280,28.0,-117.0,243.0,0
2281,28.0,-117.0,244.0,0
2282,26.0,-112.0,242.0,0
2283,28.0,-115.0,244.0,0
2284,24.0,-114.0,237.0,0
2285,27.0,-115.0,239.0,0
2286,26.0,-112.0,240.0,0
2287,26.0,-112.0,239.0,0
2288,30.0,-116.0,237.0,0
2289,27.0,-114.0,238.0,0
2290,28.0,-114.0,234.0,0
2291,29.0,-120.0,236.0,0
2292,27.0,-113.0,238.0,0
2293,27.0,-116.0,236.0,0
2294,28.0,-115.0,238.0,0
2295,30.0,-115.0,236.0,0
2296,30.0,-115.0,240.0,0
2297,27.0,-116.0,241.0,0
2298,30.0,-114.0,240.0,0
2299,31.0,-115.0,239.0,0
2300,29.0,-114.0,243.0,0
2301,30.0,-113.0,241.0,0
2302,30.0,-113.0,239.0,0
2303,28.0,-113.0,243.0,0
2304,27.0,-110.0,237.0,0
2305,27.0,-113.0,240.0,0
2306,27.0,-109.0,242.0,0
2307,27.0,-111.0,244.0,0
2308,27.0,-111.0,241.0,0
2309,26.0,-112.0,240.0,0
2310,24.0,-109.0,239.0,0
2311,25.0,-111.0,241.0,0
2312,25.0,-110.0,245.0,0
2313,25.0,-111.0,241.0,0
2314,27.0,-112.0,241.0,0
2315,27.0,-113.0,241.0,0
2316,26.0,-110.0,241.0,0
2317,29.0,-113.0,246.0,0
2318,28.0,-113.0,242.0,0
2319,31.0,-113.0,243.0,0
2320,28.0,-113.0,245.0,0
2321,27.0,-111.0,241.0,0
2322,26.0,-113.0,243.0,0
2323,30.0,-109.0,242.0,0
2324,29.0,-111.0,243.0,0
2325,27.0,-114.0,239.0,0
2326,27.0,-114.0,237.0,0
2327,28.0,-112.0,241.0,0
2328,26.0,-110.0,245.0,0
2329,28.0,-109.0,239.0,0
2330,26.0,-113.0,243.0,0
2331,27.0,-115.0,242.0,0
2332,30.0,-111.0,241.0,0
2333,29.0,-107.0,240.0,0
2334,29.0,-109.0,241.0,0
2335,26.0,-111.0,243.0,0
2336,25.0,-111.0,243.0,0
2337,27.0,-115.0,243.0,0
2338,27.0,-108.0,240.0,0
2339,28.0,-110.0,242.0,0
2340,29.0,-107.0,242.0,0
2341,29.0,-112.0,242.0,0
2342,28.0,-113.0,243.0,0
2343,25.0,-114.0,240.0,0
2344,28.0,-115.0,241.0,0
2345,30.0,-117.0,243.0,0
2346,27.0,-113.0,240.0,0
2347,28.0,-112.0,240.0,0
2348,32.0,-112.0,240.0,0
2349,24.0,-111.0,243.0,0
2350,27.0,-112.0,245.0,0
2351,30.0,-115.0,237.0,0
2352,29.0,-117.0,239.0,0
2353,28.0,-115.0,242.0,0
2354,28.0,-117.0,242.0,0
2355,27.0,-114.0,243.0,0
2356,27.0,-115.0,237.0,0
2357,28.0,-116.0,238.0,0
2358,27.0,-115.0,236.0,0
2359,27.0,-114.0,239.0,0
2360,29.0,-117.0,239.0,0
2361,30.0,-113.0,239.0,0
2362,27.0,-114.0,235.0,0
2363,28.0,-113.0,241.0,0
2364,30.0,-113.0,238.0,0
2365,29.0,-115.0,240.0,0
2366,27.0,-114.0,237.0,0
2367,30.0,-116.0,238.0,0
2368,30.0,-117.0,237.0,0
2369,32.0,-113.0,241.0,0
2370,29.0,-116.0,241.0,0
2371,28.0,-114.0,239.0,0
2372,29.0,-114.0,240.0,0
2373,28.0,-116.0,240.0,0
2374,27.0,-111.0,239.0,0
2375,28.0,-114.0,240.0,0
2376,28.0,-114.0,241.0,0
2377,25.0,-112.0,241.0,0
2378,29.0,-112.0,242.0,0
2379,30.0,-114.0,243.0,0
2380,27.0,-109.0,242.0,0
2381,28.0,-116.0,238.0,0
2382,28.0,-115.0,239.0,0
2383,27.0,-115.0,242.0,0
2384,27.0,-113.0,240.0,0
2385,31.0,-116.0,237.0,0
2386,24.0,-114.0,241.0,0
2387,26.0,-114.0,241.0,0
2388,31.0,-114.0,243.0,0
2389,29.0,-112.0,238.0,0
2390,27.0,-113.0,236.0,0
2391,28.0,-113.0,241.0,0
2392,32.0,-115.0,238.0,0
2393,29.0,-114.0,241.0,0
2394,27.0,-115.0,237.0,0
2395,31.0,-113.0,235.0,0
2396,30.0,-114.0,237.0,0
2397,32.0,-115.0,240.0,0
2398,29.0,-109.0,236.0,0
2399,28.0,-110.0,236.0,0
