,accelerometer_x,accelerometer_y,accelerometer_z,fall
0,13.0,-245.0,-68.0,0
1,14.0,-247.0,-69.0,0
2,8.0,-245.0,-65.0,0
3,11.0,-245.0,-70.0,0
4,8.0,-244.0,-62.0,0
5,16.0,-243.0,-61.0,0
6,8.0,-250.0,-69.0,0
7,10.0,-247.0,-68.0,0
8,9.0,-243.0,-70.0,0
9,13.0,-249.0,-68.0,0
10,6.0,-247.0,-67.0,0
11,6.0,-250.0,-66.0,0
12,9.0,-250.0,-68.0,0
13,7.0,-246.0,-66.0,0
14,4.0,-248.0,-68.0,0
15,3.0,-241.0,-71.0,0
16,-2.0,-250.0,-54.0,0
17,6.0,-251.0,-67.0,0
18,5.0,-249.0,-66.0,0
19,4.0,-251.0,-67.0,0
20,5.0,-249.0,-72.0,0
21,8.0,-251.0,-67.0,0
22,6.0,-253.0,-70.0,0
23,10.0,-250.0,-70.0,0
24,10.0,-252.0,-68.0,0
25,9.0,-252.0,-66.0,0
26,28.0,-248.0,-76.0,0
27,14.0,-248.0,-68.0,0
28,14.0,-248.0,-66.0,0
29,17.0,-247.0,-67.0,0
30,14.0,-248.0,-72.0,0
31,14.0,-245.0,-69.0,0
32,15.0,-246.0,-71.0,0
33,16.0,-244.0,-73.0,0
34,17.0,-245.0,-66.0,0
35,17.0,-245.0,-68.0,0
36,19.0,-244.0,-70.0,0
37,16.0,-253.0,-64.0,0
38,20.0,-245.0,-69.0,0
39,19.0,-244.0,-69.0,0
40,22.0,-248.0,-72.0,0
41,21.0,-246.0,-71.0,0
42,21.0,-245.0,-69.0,0
43,21.0,-245.0,-70.0,0
44,23.0,-247.0,-72.0,0
45,25.0,-247.0,-75.0,0
46,23.0,-246.0,-73.0,0
47,25.0,-243.0,-77.0,0
48,31.0,-247.0,-61.0,0
49,26.0,-248.0,-74.0,0
50,23.0,-246.0,-74.0,0
51,22.0,-242.0,-77.0,0
52,25.0,-248.0,-78.0,0
53,23.0,-248.0,-79.0,0
54,24.0,-250.0,-77.0,0
55,19.0,-251.0,-77.0,0
56,18.0,-249.0,-71.0,0
57,21.0,-254.0,-78.0,0
58,18.0,-254.0,-77.0,0
59,11.0,-255.0,-64.0,0
60,15.0,-249.0,-73.0,0
61,19.0,-248.0,-72.0,0
62,15.0,-247.0,-70.0,0
63,17.0,-244.0,-70.0,0
64,17.0,-245.0,-74.0,0
65,19.0,-245.0,-69.0,0
66,19.0,-241.0,-69.0,0
67,17.0,-243.0,-69.0,0
68,21.0,-241.0,-67.0,0
69,14.0,-239.0,-69.0,0
70,11.0,-235.0,-68.0,0
71,19.0,-242.0,-68.0,0
72,21.0,-239.0,-67.0,0
73,21.0,-238.0,-71.0,0
74,23.0,-240.0,-65.0,0
75,21.0,-240.0,-67.0,0
76,23.0,-242.0,-67.0,0
77,24.0,-240.0,-65.0,0
78,20.0,-240.0,-69.0,0
79,18.0,-247.0,-67.0,0
80,23.0,-244.0,-63.0,0
81,17.0,-245.0,-55.0,0
82,23.0,-249.0,-67.0,0
83,19.0,-250.0,-67.0,0
84,20.0,-253.0,-69.0,0
85,21.0,-255.0,-70.0,0
86,23.0,-256.0,-68.0,0
87,22.0,-254.0,-67.0,0
88,24.0,-256.0,-70.0,0
89,22.0,-256.0,-74.0,0
90,24.0,-255.0,-70.0,0
91,18.0,-254.0,-72.0,0
92,21.0,-248.0,-83.0,0
93,19.0,-253.0,-73.0,0
94,18.0,-252.0,-72.0,0
95,20.0,-248.0,-71.0,0
96,18.0,-248.0,-70.0,0
97,18.0,-243.0,-65.0,0
98,19.0,-247.0,-66.0,0
99,21.0,-243.0,-64.0,0
100,20.0,-237.0,-64.0,0
101,23.0,-238.0,-63.0,0
102,25.0,-239.0,-64.0,0
103,31.0,-231.0,-76.0,0
104,29.0,-238.0,-63.0,0
105,31.0,-237.0,-60.0,0
106,28.0,-236.0,-62.0,0
107,34.0,-233.0,-62.0,0
108,31.0,-233.0,-62.0,0
109,33.0,-239.0,-63.0,0
110,35.0,-237.0,-62.0,0
111,38.0,-242.0,-61.0,0
112,34.0,-244.0,-64.0,0
113,31.0,-238.0,-61.0,0
114,33.0,-246.0,-63.0,0
115,35.0,-244.0,-65.0,0
116,37.0,-248.0,-66.0,0
117,39.0,-245.0,-64.0,0
118,39.0,-246.0,-66.0,0
119,39.0,-246.0,-67.0,0
120,34.0,-247.0,-65.0,0
121,39.0,-245.0,-65.0,0
122,36.0,-242.0,-68.0,0
123,39.0,-242.0,-69.0,0
124,44.0,-246.0,-46.0,0
125,36.0,-242.0,-65.0,0
126,38.0,-245.0,-65.0,0
127,34.0,-243.0,-66.0,0
128,37.0,-247.0,-64.0,0
129,38.0,-245.0,-65.0,0
130,36.0,-244.0,-66.0,0
131,36.0,-239.0,-67.0,0
132,30.0,-247.0,-64.0,0
133,33.0,-245.0,-68.0,0
134,33.0,-246.0,-56.0,0
135,30.0,-235.0,-81.0,0
136,31.0,-243.0,-64.0,0
137,33.0,-241.0,-64.0,0
138,33.0,-246.0,-66.0,0
139,31.0,-243.0,-64.0,0
140,32.0,-243.0,-65.0,0
141,31.0,-241.0,-66.0,0
142,33.0,-245.0,-64.0,0
143,29.0,-242.0,-68.0,0
144,26.0,-243.0,-65.0,0
145,29.0,-244.0,-66.0,0
146,30.0,-244.0,-75.0,0
147,34.0,-246.0,-66.0,0
148,30.0,-240.0,-68.0,0
149,33.0,-242.0,-67.0,0
150,34.0,-242.0,-69.0,0
151,29.0,-241.0,-69.0,0
152,33.0,-241.0,-67.0,0
153,31.0,-241.0,-69.0,0
154,31.0,-245.0,-70.0,0
155,26.0,-240.0,-74.0,0
156,28.0,-247.0,-72.0,0
157,24.0,-229.0,-85.0,0
158,24.0,-246.0,-72.0,0
159,21.0,-247.0,-73.0,0
160,17.0,-246.0,-73.0,0
161,17.0,-251.0,-79.0,0
162,14.0,-251.0,-79.0,0
163,11.0,-251.0,-79.0,0
164,6.0,-251.0,-80.0,0
165,10.0,-254.0,-81.0,0
166,6.0,-254.0,-82.0,0
167,5.0,-250.0,-91.0,0
168,-3.0,-253.0,-81.0,0
169,-2.0,-249.0,-91.0,0
170,-3.0,-247.0,-91.0,0
171,-4.0,-249.0,-90.0,0
172,-7.0,-246.0,-94.0,0
173,-10.0,-246.0,-93.0,0
174,-13.0,-243.0,-95.0,0
175,-15.0,-246.0,-94.0,0
176,-16.0,-244.0,-97.0,0
177,-18.0,-242.0,-95.0,0
178,-16.0,-242.0,-96.0,0
179,-30.0,-247.0,-89.0,0
180,-16.0,-242.0,-98.0,0
181,-20.0,-243.0,-94.0,0
182,-21.0,-241.0,-94.0,0
183,-26.0,-238.0,-95.0,0
184,-25.0,-240.0,-93.0,0
185,-28.0,-236.0,-93.0,0
186,-32.0,-238.0,-84.0,0
187,-32.0,-239.0,-85.0,0
188,-29.0,-238.0,-87.0,0
189,-35.0,-240.0,-83.0,0
190,-37.0,-239.0,-80.0,0
191,-36.0,-239.0,-78.0,0
192,-34.0,-241.0,-79.0,0
193,-35.0,-241.0,-80.0,0
194,-34.0,-240.0,-81.0,0
195,-30.0,-243.0,-76.0,0
196,-30.0,-244.0,-84.0,0
197,-30.0,-249.0,-77.0,0
198,-23.0,-251.0,-79.0,0
199,-25.0,-255.0,-82.0,0
200,-25.0,-256.0,-81.0,0
201,-15.0,-264.0,-79.0,0
202,-23.0,-257.0,-85.0,0
203,-46.0,-248.0,-88.0,0
204,-21.0,-262.0,-84.0,0
205,-11.0,-270.0,-86.0,0
206,-2.0,-274.0,-80.0,0
207,1.0,-272.0,-82.0,0
208,-8.0,-265.0,-88.0,0
209,-13.0,-264.0,-86.0,0
210,-16.0,-262.0,-87.0,0
211,-9.0,-268.0,-71.0,0
212,-7.0,-257.0,-83.0,0
213,-14.0,-254.0,-78.0,0
214,-16.0,-254.0,-84.0,0
215,-19.0,-250.0,-82.0,0
216,-23.0,-251.0,-82.0,0
217,-30.0,-246.0,-84.0,0
218,-24.0,-246.0,-78.0,0
219,-28.0,-245.0,-81.0,0
220,-32.0,-247.0,-83.0,0
221,-29.0,-248.0,-73.0,0
222,-28.0,-243.0,-69.0,0
223,-32.0,-245.0,-76.0,0
224,-30.0,-245.0,-76.0,0
225,-28.0,-245.0,-82.0,0
226,-30.0,-247.0,-78.0,0
227,-26.0,-245.0,-77.0,0
228,-22.0,-246.0,-77.0,0
229,-23.0,-247.0,-76.0,0
230,-22.0,-239.0,-77.0,0
231,-19.0,-236.0,-82.0,0
232,-17.0,-232.0,-71.0,0
233,-7.0,-233.0,-72.0,0
234,-13.0,-227.0,-73.0,0
235,-14.0,-223.0,-70.0,0
236,-29.0,-212.0,-74.0,0
237,-14.0,-219.0,-66.0,0
238,6.0,-227.0,-65.0,0
239,18.0,-225.0,-64.0,0
240,7.0,-223.0,-65.0,0
241,-4.0,-219.0,-64.0,0
242,-4.0,-222.0,-62.0,0
243,-2.0,-218.0,-66.0,0
244,-1.0,-217.0,-59.0,0
245,7.0,-219.0,-65.0,0
246,5.0,-222.0,-65.0,0
247,-4.0,-220.0,-64.0,0
248,-7.0,-218.0,-61.0,0
249,-6.0,-224.0,-64.0,0
250,-8.0,-225.0,-64.0,0
251,-1.0,-227.0,-64.0,0
252,-5.0,-227.0,-65.0,0
253,-3.0,-236.0,-64.0,0
254,2.0,-233.0,-63.0,0
255,0.0,-245.0,-52.0,0
256,-2.0,-241.0,-62.0,0
257,-3.0,-241.0,-60.0,0
258,-2.0,-248.0,-64.0,0
259,0.0,-251.0,-60.0,0
260,-4.0,-254.0,-60.0,0
261,-9.0,-252.0,-63.0,0
262,-9.0,-255.0,-64.0,0
263,-9.0,-256.0,-62.0,0
264,-11.0,-258.0,-65.0,0
265,-11.0,-259.0,-74.0,0
266,-21.0,-259.0,-73.0,0
267,-11.0,-262.0,-67.0,0
268,-10.0,-266.0,-64.0,0
269,-14.0,-264.0,-69.0,0
270,-15.0,-268.0,-70.0,0
271,-13.0,-272.0,-70.0,0
272,-14.0,-269.0,-70.0,0
273,-13.0,-270.0,-70.0,0
274,-11.0,-269.0,-70.0,0
275,-10.0,-271.0,-79.0,0
276,-13.0,-268.0,-74.0,0
277,-25.0,-261.0,-70.0,0
278,-16.0,-272.0,-78.0,0
279,-18.0,-266.0,-76.0,0
280,-16.0,-268.0,-73.0,0
281,-16.0,-270.0,-68.0,0
282,-20.0,-268.0,-66.0,0
283,-17.0,-266.0,-63.0,0
284,-16.0,-260.0,-70.0,0
285,-18.0,-257.0,-58.0,0
286,-18.0,-253.0,-62.0,0
287,-18.0,-256.0,-58.0,0
288,-16.0,-248.0,-61.0,0
289,-21.0,-238.0,-62.0,0
290,-21.0,-240.0,-66.0,0
291,-21.0,-240.0,-66.0,0
292,-25.0,-241.0,-71.0,0
293,-31.0,-243.0,-75.0,0
294,-39.0,-253.0,-74.0,0
295,-43.0,-254.0,-86.0,0
296,-45.0,-267.0,-84.0,0
297,-42.0,-277.0,-84.0,0
298,-40.0,-289.0,-107.0,0
299,-47.0,-295.0,-99.0,0
300,-46.0,-306.0,-104.0,0
301,-42.0,-310.0,-111.0,0
302,-37.0,-313.0,-114.0,0
303,-30.0,-308.0,-122.0,0
304,-26.0,-306.0,-127.0,0
305,-21.0,-297.0,-131.0,0
306,-15.0,-288.0,-138.0,0
307,-9.0,-274.0,-141.0,0
308,-6.0,-262.0,-147.0,0
309,4.0,-246.0,-163.0,0
310,-1.0,-240.0,-155.0,0
311,-2.0,-229.0,-152.0,0
312,2.0,-221.0,-154.0,0
313,2.0,-215.0,-149.0,0
314,6.0,-208.0,-146.0,0
315,5.0,-202.0,-137.0,0
316,15.0,-197.0,-136.0,0
317,15.0,-197.0,-126.0,0
318,17.0,-199.0,-121.0,0
319,21.0,-199.0,-111.0,0
320,8.0,-199.0,-101.0,0
321,28.0,-200.0,-100.0,0
322,32.0,-200.0,-96.0,0
323,31.0,-203.0,-95.0,0
324,30.0,-201.0,-94.0,0
325,31.0,-204.0,-95.0,0
326,23.0,-202.0,-92.0,0
327,14.0,-207.0,-96.0,0
328,14.0,-208.0,-99.0,0
329,12.0,-206.0,-97.0,0
330,7.0,-205.0,-102.0,0
331,2.0,-205.0,-116.0,0
332,4.0,-215.0,-110.0,0
333,3.0,-220.0,-111.0,0
334,2.0,-225.0,-109.0,0
335,4.0,-234.0,-111.0,0
336,-1.0,-232.0,-110.0,0
337,0.0,-240.0,-109.0,0
338,0.0,-250.0,-114.0,0
339,-2.0,-255.0,-114.0,0
340,-2.0,-261.0,-116.0,0
341,7.0,-267.0,-119.0,0
342,-3.0,-270.0,-119.0,0
343,-5.0,-273.0,-124.0,0
344,-3.0,-275.0,-127.0,0
345,-1.0,-274.0,-126.0,0
346,-1.0,-279.0,-127.0,0
347,6.0,-278.0,-128.0,0
348,9.0,-280.0,-127.0,0
349,12.0,-271.0,-128.0,0
350,17.0,-268.0,-126.0,0
351,24.0,-252.0,-131.0,0
352,28.0,-238.0,-130.0,0
353,27.0,-248.0,-121.0,0
354,28.0,-241.0,-116.0,0
355,32.0,-237.0,-109.0,0
356,34.0,-234.0,-103.0,0
357,32.0,-228.0,-103.0,0
358,35.0,-223.0,-96.0,0
359,34.0,-223.0,-98.0,0
360,36.0,-212.0,-97.0,0
361,33.0,-207.0,-86.0,0
362,31.0,-204.0,-79.0,0
363,41.0,-203.0,-85.0,0
364,40.0,-189.0,-85.0,0
365,29.0,-197.0,-74.0,0
366,28.0,-199.0,-74.0,0
367,29.0,-198.0,-72.0,0
368,26.0,-198.0,-69.0,0
369,24.0,-196.0,-74.0,0
370,22.0,-200.0,-72.0,0
371,23.0,-200.0,-74.0,0
372,18.0,-203.0,-74.0,0
373,21.0,-204.0,-77.0,0
374,21.0,-221.0,-65.0,0
375,19.0,-212.0,-75.0,0
376,18.0,-214.0,-76.0,0
377,20.0,-221.0,-86.0,0
378,20.0,-224.0,-81.0,0
379,21.0,-230.0,-91.0,0
380,15.0,-228.0,-87.0,0
381,17.0,-242.0,-85.0,0
382,3.0,-219.0,-91.0,0
383,17.0,-231.0,-91.0,0
384,18.0,-240.0,-91.0,0
385,29.0,-244.0,-96.0,0
386,16.0,-251.0,-90.0,0
387,19.0,-255.0,-90.0,0
388,19.0,-249.0,-88.0,0
389,15.0,-246.0,-88.0,0
390,21.0,-250.0,-88.0,0
391,20.0,-247.0,-87.0,0
392,22.0,-248.0,-81.0,0
393,20.0,-242.0,-77.0,0
394,23.0,-234.0,-78.0,0
395,24.0,-240.0,-74.0,0
396,28.0,-237.0,-75.0,0
397,25.0,-234.0,-75.0,0
398,25.0,-232.0,-69.0,0
399,23.0,-230.0,-70.0,0
400,26.0,-228.0,-68.0,0
401,26.0,-227.0,-65.0,0
402,32.0,-224.0,-65.0,0
403,31.0,-224.0,-66.0,0
404,30.0,-219.0,-64.0,0
405,30.0,-217.0,-70.0,0
406,34.0,-216.0,-73.0,0
407,32.0,-226.0,-60.0,0
408,31.0,-219.0,-69.0,0
409,27.0,-221.0,-66.0,0
410,27.0,-225.0,-65.0,0
411,26.0,-228.0,-69.0,0
412,21.0,-229.0,-67.0,0
413,19.0,-236.0,-71.0,0
414,13.0,-239.0,-73.0,0
415,11.0,-241.0,-71.0,0
416,16.0,-245.0,-69.0,0
417,10.0,-245.0,-70.0,0
418,7.0,-247.0,-76.0,0
419,8.0,-248.0,-77.0,0
420,13.0,-251.0,-78.0,0
421,4.0,-253.0,-82.0,0
422,2.0,-255.0,-80.0,0
423,1.0,-255.0,-82.0,0
424,9.0,-258.0,-74.0,0
425,15.0,-261.0,-76.0,0
426,18.0,-263.0,-75.0,0
427,20.0,-270.0,-65.0,0
428,38.0,-277.0,-71.0,0
429,29.0,-272.0,-60.0,0
430,30.0,-272.0,-63.0,0
431,31.0,-267.0,-64.0,0
432,35.0,-271.0,-65.0,0
433,35.0,-266.0,-69.0,0
434,37.0,-260.0,-67.0,0
435,45.0,-257.0,-72.0,0
436,44.0,-249.0,-84.0,0
437,47.0,-253.0,-83.0,0
438,46.0,-248.0,-94.0,0
439,49.0,-248.0,-95.0,0
440,47.0,-257.0,-90.0,0
441,46.0,-267.0,-93.0,0
442,47.0,-277.0,-96.0,0
443,43.0,-286.0,-99.0,0
444,43.0,-293.0,-97.0,0
445,42.0,-300.0,-106.0,0
446,40.0,-305.0,-108.0,0
447,36.0,-305.0,-114.0,0
448,36.0,-309.0,-116.0,0
449,30.0,-308.0,-125.0,0
450,26.0,-309.0,-108.0,0
451,29.0,-285.0,-129.0,0
452,32.0,-280.0,-139.0,0
453,28.0,-276.0,-142.0,0
454,23.0,-268.0,-148.0,0
455,21.0,-251.0,-144.0,0
456,19.0,-241.0,-155.0,0
457,16.0,-228.0,-156.0,0
458,5.0,-225.0,-148.0,0
459,-4.0,-224.0,-151.0,0
460,-13.0,-234.0,-138.0,0
461,-11.0,-221.0,-143.0,0
462,-16.0,-219.0,-136.0,0
463,-19.0,-216.0,-134.0,0
464,-25.0,-218.0,-130.0,0
465,-28.0,-215.0,-121.0,0
466,-29.0,-209.0,-120.0,0
467,-32.0,-208.0,-119.0,0
468,-30.0,-208.0,-118.0,0
469,-34.0,-199.0,-118.0,0
470,-31.0,-201.0,-109.0,0
471,-18.0,-194.0,-107.0,0
472,-23.0,-195.0,-113.0,0
473,-20.0,-194.0,-109.0,0
474,-14.0,-193.0,-112.0,0
475,-4.0,-195.0,-115.0,0
476,-5.0,-197.0,-113.0,0
477,-1.0,-201.0,-116.0,0
478,0.0,-206.0,-117.0,0
479,2.0,-213.0,-121.0,0
480,9.0,-216.0,-111.0,0
481,21.0,-224.0,-111.0,0
482,23.0,-231.0,-109.0,0
483,19.0,-236.0,-108.0,0
484,27.0,-241.0,-109.0,0
485,29.0,-244.0,-105.0,0
486,28.0,-246.0,-111.0,0
487,21.0,-250.0,-114.0,0
488,18.0,-255.0,-118.0,0
489,22.0,-255.0,-115.0,0
490,15.0,-257.0,-120.0,0
491,13.0,-255.0,-116.0,0
492,13.0,-255.0,-118.0,0
493,11.0,-254.0,-123.0,0
494,5.0,-261.0,-121.0,0
495,-4.0,-264.0,-128.0,0
496,-9.0,-267.0,-123.0,0
497,-12.0,-267.0,-129.0,0
498,-14.0,-266.0,-127.0,0
499,-16.0,-263.0,-127.0,0
500,-17.0,-262.0,-130.0,0
501,-16.0,-261.0,-123.0,0
502,-18.0,-257.0,-120.0,0
503,-19.0,-253.0,-116.0,0
504,-22.0,-230.0,-126.0,0
505,-23.0,-241.0,-112.0,0
506,-26.0,-238.0,-107.0,0
507,-22.0,-234.0,-98.0,0
508,-26.0,-227.0,-98.0,0
509,-24.0,-225.0,-91.0,0
510,-25.0,-221.0,-88.0,0
511,-22.0,-220.0,-86.0,0
512,-30.0,-213.0,-81.0,0
513,-27.0,-210.0,-81.0,0
514,-27.0,-210.0,-76.0,0
515,-16.0,-212.0,-71.0,0
516,-26.0,-206.0,-77.0,0
517,-25.0,-205.0,-71.0,0
518,-26.0,-202.0,-71.0,0
519,-24.0,-203.0,-71.0,0
520,-20.0,-203.0,-70.0,0
521,-23.0,-203.0,-69.0,0
522,-22.0,-202.0,-71.0,0
523,-24.0,-204.0,-72.0,0
524,-24.0,-208.0,-68.0,0
525,-27.0,-208.0,-71.0,0
526,-24.0,-202.0,-78.0,0
527,-27.0,-206.0,-69.0,0
528,-21.0,-211.0,-69.0,0
529,-23.0,-211.0,-70.0,0
530,-16.0,-212.0,-71.0,0
531,-14.0,-210.0,-69.0,0
532,-14.0,-212.0,-67.0,0
533,-12.0,-217.0,-70.0,0
534,-4.0,-221.0,-68.0,0
535,-9.0,-222.0,-62.0,0
536,-2.0,-216.0,-64.0,0
537,-3.0,-230.0,-53.0,0
538,-5.0,-228.0,-64.0,0
539,-5.0,-230.0,-62.0,0
540,-2.0,-236.0,-61.0,0
541,-7.0,-235.0,-56.0,0
542,-7.0,-235.0,-59.0,0
543,-4.0,-235.0,-60.0,0
544,-8.0,-237.0,-59.0,0
545,-10.0,-236.0,-56.0,0
546,-9.0,-241.0,-54.0,0
547,-14.0,-247.0,-44.0,0
548,-15.0,-240.0,-52.0,0
549,-16.0,-241.0,-52.0,0
550,-16.0,-243.0,-52.0,0
551,-16.0,-243.0,-54.0,0
552,-16.0,-242.0,-57.0,0
553,-16.0,-245.0,-60.0,0
554,-16.0,-247.0,-60.0,0
555,-9.0,-246.0,-63.0,0
556,-5.0,-248.0,-60.0,0
557,-2.0,-245.0,-62.0,0
558,13.0,-255.0,-59.0,0
559,7.0,-251.0,-66.0,0
560,5.0,-255.0,-64.0,0
561,10.0,-255.0,-66.0,0
562,7.0,-258.0,-70.0,0
563,-2.0,-258.0,-79.0,0
564,5.0,-261.0,-78.0,0
565,4.0,-264.0,-81.0,0
566,2.0,-266.0,-82.0,0
567,-1.0,-267.0,-75.0,0
568,-2.0,-269.0,-80.0,0
569,-8.0,-283.0,-78.0,0
570,-3.0,-280.0,-69.0,0
571,8.0,-282.0,-61.0,0
572,4.0,-284.0,-62.0,0
573,5.0,-287.0,-57.0,0
574,2.0,-285.0,-61.0,0
575,6.0,-287.0,-56.0,0
576,2.0,-289.0,-56.0,0
577,4.0,-280.0,-61.0,0
578,6.0,-277.0,-63.0,0
579,2.0,-267.0,-65.0,0
580,-12.0,-256.0,-73.0,0
581,-15.0,-255.0,-80.0,0
582,-20.0,-257.0,-86.0,0
583,-27.0,-258.0,-84.0,0
584,-32.0,-265.0,-81.0,0
585,-39.0,-273.0,-85.0,0
586,-44.0,-278.0,-87.0,0
587,-46.0,-291.0,-95.0,0
588,-46.0,-295.0,-102.0,0
589,-49.0,-302.0,-103.0,0
590,-49.0,-308.0,-112.0,0
591,-50.0,-316.0,-116.0,0
592,-38.0,-310.0,-128.0,0
593,-40.0,-304.0,-138.0,0
594,-36.0,-298.0,-148.0,0
595,-34.0,-287.0,-157.0,0
596,-28.0,-276.0,-161.0,0
597,-21.0,-258.0,-162.0,0
598,-17.0,-247.0,-165.0,0
599,-17.0,-233.0,-164.0,0
600,-11.0,-222.0,-157.0,0
601,-11.0,-215.0,-152.0,0
602,-2.0,-199.0,-148.0,0
603,7.0,-193.0,-141.0,0
604,14.0,-190.0,-130.0,0
605,22.0,-189.0,-122.0,0
606,23.0,-190.0,-110.0,0
607,26.0,-192.0,-102.0,0
608,27.0,-196.0,-93.0,0
609,21.0,-202.0,-89.0,0
610,20.0,-205.0,-83.0,0
611,15.0,-218.0,-79.0,0
612,5.0,-218.0,-87.0,0
613,8.0,-227.0,-82.0,0
614,3.0,-234.0,-80.0,0
615,-5.0,-236.0,-83.0,0
616,-12.0,-241.0,-89.0,0
617,-14.0,-243.0,-94.0,0
618,-16.0,-245.0,-99.0,0
619,-17.0,-244.0,-101.0,0
620,-20.0,-249.0,-99.0,0
621,-15.0,-243.0,-102.0,0
622,-12.0,-244.0,-102.0,0
623,-14.0,-240.0,-97.0,0
624,-5.0,-230.0,-106.0,0
625,-6.0,-226.0,-103.0,0
626,-7.0,-221.0,-103.0,0
627,-10.0,-219.0,-105.0,0
628,-11.0,-222.0,-103.0,0
629,-10.0,-227.0,-101.0,0
630,-14.0,-229.0,-101.0,0
631,-2.0,-236.0,-104.0,0
632,3.0,-246.0,-106.0,0
633,11.0,-253.0,-109.0,0
634,11.0,-251.0,-132.0,0
635,7.0,-256.0,-111.0,0
636,13.0,-256.0,-113.0,0
637,16.0,-256.0,-113.0,0
638,24.0,-255.0,-116.0,0
639,22.0,-252.0,-114.0,0
640,33.0,-249.0,-107.0,0
641,34.0,-244.0,-108.0,0
642,39.0,-241.0,-105.0,0
643,41.0,-232.0,-102.0,0
644,42.0,-233.0,-99.0,0
645,48.0,-232.0,-79.0,0
646,44.0,-224.0,-91.0,0
647,46.0,-220.0,-89.0,0
648,48.0,-219.0,-86.0,0
649,50.0,-212.0,-80.0,0
650,49.0,-212.0,-74.0,0
651,51.0,-209.0,-76.0,0
652,48.0,-205.0,-71.0,0
653,45.0,-200.0,-70.0,0
654,46.0,-198.0,-71.0,0
655,46.0,-198.0,-65.0,0
656,44.0,-192.0,-78.0,0
657,42.0,-194.0,-68.0,0
658,42.0,-193.0,-65.0,0
659,41.0,-199.0,-64.0,0
660,42.0,-198.0,-66.0,0
661,36.0,-200.0,-64.0,0
662,43.0,-208.0,-67.0,0
663,38.0,-214.0,-69.0,0
664,33.0,-219.0,-71.0,0
665,34.0,-225.0,-78.0,0
666,30.0,-232.0,-71.0,0
667,37.0,-223.0,-83.0,0
668,29.0,-243.0,-83.0,0
669,31.0,-246.0,-82.0,0
670,18.0,-241.0,-83.0,0
671,28.0,-256.0,-86.0,0
672,27.0,-259.0,-90.0,0
673,26.0,-263.0,-89.0,0
674,22.0,-259.0,-91.0,0
675,22.0,-257.0,-80.0,0
676,21.0,-261.0,-86.0,0
677,22.0,-254.0,-77.0,0
678,25.0,-255.0,-81.0,0
679,22.0,-249.0,-81.0,0
680,20.0,-248.0,-73.0,0
681,16.0,-241.0,-69.0,0
682,18.0,-239.0,-66.0,0
683,15.0,-237.0,-68.0,0
684,17.0,-232.0,-64.0,0
685,14.0,-229.0,-59.0,0
686,16.0,-226.0,-60.0,0
687,16.0,-225.0,-54.0,0
688,8.0,-216.0,-49.0,0
689,19.0,-219.0,-55.0,0
690,18.0,-216.0,-52.0,0
691,25.0,-220.0,-54.0,0
692,19.0,-216.0,-49.0,0
693,18.0,-210.0,-53.0,0
694,17.0,-213.0,-54.0,0
695,13.0,-214.0,-54.0,0
696,14.0,-213.0,-61.0,0
697,16.0,-211.0,-66.0,0
698,8.0,-218.0,-68.0,0
699,6.0,-212.0,-85.0,0
700,0.0,-224.0,-75.0,0
701,-11.0,-236.0,-75.0,0
702,-11.0,-244.0,-70.0,0
703,-15.0,-256.0,-70.0,0
704,-5.0,-251.0,-72.0,0
705,-3.0,-267.0,-82.0,0
706,-12.0,-261.0,-90.0,0
707,-8.0,-260.0,-92.0,0
708,6.0,-263.0,-88.0,0
709,14.0,-268.0,-91.0,0
710,22.0,-271.0,-79.0,0
711,29.0,-275.0,-83.0,0
712,32.0,-284.0,-83.0,0
713,38.0,-288.0,-75.0,0
714,34.0,-284.0,-80.0,0
715,39.0,-297.0,-76.0,0
716,42.0,-305.0,-68.0,0
717,41.0,-307.0,-76.0,0
718,41.0,-295.0,-82.0,0
719,36.0,-291.0,-70.0,0
720,54.0,-276.0,-91.0,0
721,60.0,-274.0,-87.0,0
722,56.0,-276.0,-87.0,0
723,55.0,-281.0,-80.0,0
724,62.0,-281.0,-82.0,0
725,61.0,-286.0,-84.0,0
726,62.0,-289.0,-86.0,0
727,64.0,-291.0,-98.0,0
728,76.0,-295.0,-109.0,0
729,65.0,-292.0,-110.0,0
730,62.0,-298.0,-122.0,0
731,58.0,-296.0,-119.0,0
732,56.0,-295.0,-135.0,0
733,54.0,-287.0,-147.0,0
734,59.0,-300.0,-137.0,0
735,48.0,-297.0,-146.0,0
736,45.0,-297.0,-152.0,0
737,43.0,-286.0,-152.0,0
738,36.0,-280.0,-156.0,0
739,24.0,-264.0,-164.0,0
740,22.0,-254.0,-159.0,0
741,8.0,-237.0,-164.0,0
742,2.0,-224.0,-160.0,0
743,-10.0,-219.0,-157.0,0
744,-3.0,-193.0,-167.0,0
745,-18.0,-194.0,-154.0,0
746,-25.0,-190.0,-145.0,0
747,-33.0,-186.0,-136.0,0
748,-35.0,-185.0,-128.0,0
749,-48.0,-172.0,-127.0,0
750,-45.0,-190.0,-104.0,0
751,-50.0,-188.0,-102.0,0
752,-53.0,-186.0,-101.0,0
753,-55.0,-190.0,-95.0,0
754,-56.0,-188.0,-96.0,0
755,-51.0,-193.0,-87.0,0
756,-48.0,-192.0,-94.0,0
757,-43.0,-192.0,-103.0,0
758,-29.0,-195.0,-105.0,0
759,-22.0,-200.0,-110.0,0
760,-14.0,-207.0,-117.0,0
761,-8.0,-212.0,-121.0,0
762,-4.0,-218.0,-124.0,0
763,-1.0,-226.0,-123.0,0
764,9.0,-230.0,-137.0,0
765,8.0,-237.0,-134.0,0
766,17.0,-248.0,-126.0,0
767,25.0,-254.0,-132.0,0
768,23.0,-256.0,-127.0,0
769,32.0,-259.0,-125.0,0
770,22.0,-258.0,-127.0,0
771,21.0,-260.0,-124.0,0
772,24.0,-265.0,-123.0,0
773,20.0,-262.0,-119.0,0
774,25.0,-262.0,-117.0,0
775,15.0,-260.0,-130.0,0
776,18.0,-259.0,-124.0,0
777,21.0,-261.0,-121.0,0
778,15.0,-257.0,-125.0,0
779,11.0,-256.0,-120.0,0
780,9.0,-255.0,-122.0,0
781,7.0,-252.0,-122.0,0
782,0.0,-251.0,-113.0,0
783,-2.0,-246.0,-115.0,0
784,-6.0,-238.0,-114.0,0
785,-8.0,-238.0,-112.0,0
786,-15.0,-241.0,-102.0,0
787,-16.0,-224.0,-102.0,0
788,-17.0,-222.0,-102.0,0
789,-20.0,-214.0,-99.0,0
790,-24.0,-210.0,-92.0,0
791,-25.0,-208.0,-87.0,0
792,-25.0,-207.0,-83.0,0
793,-25.0,-207.0,-85.0,0
794,-24.0,-205.0,-82.0,0
795,-24.0,-201.0,-82.0,0
796,-23.0,-200.0,-82.0,0
797,-27.0,-213.0,-63.0,0
798,-20.0,-198.0,-82.0,0
799,-16.0,-201.0,-79.0,0
800,-17.0,-202.0,-78.0,0
801,-19.0,-201.0,-81.0,0
802,-18.0,-201.0,-88.0,0
803,-21.0,-200.0,-84.0,0
804,-21.0,-208.0,-86.0,0
805,-19.0,-207.0,-83.0,0
806,-23.0,-210.0,-85.0,0
807,-31.0,-207.0,-85.0,0
808,-25.0,-216.0,-82.0,0
809,-22.0,-218.0,-87.0,0
810,-28.0,-219.0,-83.0,0
811,-20.0,-225.0,-83.0,0
812,-19.0,-225.0,-82.0,0
813,-22.0,-226.0,-80.0,0
814,-18.0,-230.0,-86.0,0
815,-19.0,-233.0,-83.0,0
816,-21.0,-234.0,-82.0,0
817,-16.0,-234.0,-80.0,0
818,-17.0,-228.0,-96.0,0
819,-16.0,-239.0,-77.0,0
820,-16.0,-241.0,-78.0,0
821,-15.0,-243.0,-77.0,0
822,-16.0,-241.0,-79.0,0
823,-15.0,-239.0,-76.0,0
824,-13.0,-238.0,-77.0,0
825,-11.0,-236.0,-76.0,0
826,-10.0,-240.0,-74.0,0
827,-15.0,-238.0,-71.0,0
828,-11.0,-241.0,-68.0,0
829,-10.0,-236.0,-66.0,0
830,-9.0,-238.0,-74.0,0
831,-19.0,-238.0,-75.0,0
832,-12.0,-239.0,-64.0,0
833,-11.0,-238.0,-65.0,0
834,-15.0,-235.0,-62.0,0
835,-12.0,-232.0,-62.0,0
836,-14.0,-232.0,-66.0,0
837,-13.0,-235.0,-67.0,0
838,-13.0,-229.0,-69.0,0
839,-14.0,-230.0,-66.0,0
840,-3.0,-234.0,-78.0,0
841,-13.0,-232.0,-66.0,0
842,-9.0,-235.0,-69.0,0
843,-11.0,-235.0,-69.0,0
844,-10.0,-236.0,-71.0,0
845,-12.0,-239.0,-74.0,0
846,-9.0,-247.0,-73.0,0
847,-10.0,-246.0,-75.0,0
848,-13.0,-245.0,-75.0,0
849,-11.0,-254.0,-81.0,0
850,-13.0,-258.0,-81.0,0
851,-6.0,-249.0,-83.0,0
852,-10.0,-268.0,-79.0,0
853,-11.0,-268.0,-81.0,0
854,-14.0,-270.0,-83.0,0
855,-16.0,-275.0,-82.0,0
856,-15.0,-273.0,-81.0,0
857,-13.0,-277.0,-82.0,0
858,-18.0,-281.0,-78.0,0
859,-12.0,-284.0,-80.0,0
860,-17.0,-281.0,-73.0,0
861,-27.0,-290.0,-75.0,0
862,-25.0,-291.0,-65.0,0
863,-17.0,-282.0,-66.0,0
864,-18.0,-279.0,-63.0,0
865,-16.0,-275.0,-57.0,0
866,-19.0,-266.0,-57.0,0
867,-16.0,-258.0,-60.0,0
868,-10.0,-255.0,-59.0,0
869,-8.0,-252.0,-50.0,0
870,-10.0,-249.0,-52.0,0
871,-12.0,-242.0,-49.0,0
872,-17.0,-225.0,-62.0,0
873,-19.0,-223.0,-66.0,0
874,-23.0,-214.0,-78.0,0
875,-32.0,-213.0,-92.0,0
876,-37.0,-223.0,-104.0,0
877,-41.0,-242.0,-107.0,0
878,-45.0,-264.0,-110.0,0
879,-55.0,-289.0,-120.0,0
880,-60.0,-302.0,-133.0,0
881,-58.0,-320.0,-139.0,0
882,-58.0,-326.0,-148.0,0
883,-63.0,-326.0,-156.0,0
884,-49.0,-324.0,-169.0,0
885,-53.0,-320.0,-179.0,0
886,-47.0,-315.0,-189.0,0
887,-38.0,-302.0,-194.0,0
888,-31.0,-288.0,-203.0,0
889,-19.0,-276.0,-207.0,0
890,-10.0,-267.0,-205.0,0
891,-8.0,-250.0,-214.0,0
892,-8.0,-234.0,-200.0,0
893,-8.0,-224.0,-193.0,0
894,0.0,-221.0,-184.0,0
895,1.0,-211.0,-164.0,0
896,5.0,-206.0,-155.0,0
897,9.0,-207.0,-146.0,0
898,16.0,-203.0,-136.0,0
899,22.0,-203.0,-121.0,0
900,21.0,-203.0,-114.0,0
901,23.0,-205.0,-108.0,0
902,23.0,-209.0,-101.0,0
903,23.0,-211.0,-89.0,0
904,23.0,-210.0,-87.0,0
905,15.0,-209.0,-96.0,0
906,12.0,-208.0,-80.0,0
907,8.0,-208.0,-79.0,0
908,-2.0,-209.0,-85.0,0
909,-11.0,-201.0,-87.0,0
910,-10.0,-201.0,-89.0,0
911,-11.0,-196.0,-95.0,0
912,-8.0,-192.0,-97.0,0
913,-14.0,-189.0,-99.0,0
914,-8.0,-182.0,-99.0,0
915,-3.0,-183.0,-102.0,0
916,-8.0,-181.0,-92.0,0
917,-3.0,-176.0,-100.0,0
918,-1.0,-181.0,-107.0,0
919,-1.0,-187.0,-108.0,0
920,0.0,-196.0,-112.0,0
921,-9.0,-207.0,-118.0,0
922,-9.0,-222.0,-120.0,0
923,-11.0,-236.0,-124.0,0
924,-8.0,-250.0,-125.0,0
925,-8.0,-259.0,-133.0,0
926,-4.0,-269.0,-136.0,0
927,-10.0,-276.0,-125.0,0
928,4.0,-284.0,-142.0,0
929,6.0,-287.0,-139.0,0
930,11.0,-282.0,-142.0,0
931,13.0,-281.0,-142.0,0
932,15.0,-273.0,-138.0,0
933,13.0,-265.0,-136.0,0
934,16.0,-256.0,-143.0,0
935,21.0,-245.0,-136.0,0
936,22.0,-240.0,-136.0,0
937,29.0,-228.0,-143.0,0
938,27.0,-227.0,-127.0,0
939,28.0,-224.0,-125.0,0
940,27.0,-221.0,-117.0,0
941,24.0,-217.0,-117.0,0
942,22.0,-215.0,-105.0,0
943,18.0,-208.0,-102.0,0
944,13.0,-205.0,-99.0,0
945,13.0,-205.0,-98.0,0
946,7.0,-200.0,-96.0,0
947,4.0,-197.0,-89.0,0
948,-3.0,-198.0,-101.0,0
949,-4.0,-192.0,-96.0,0
950,-9.0,-192.0,-93.0,0
951,-10.0,-191.0,-100.0,0
952,-9.0,-191.0,-98.0,0
953,-13.0,-192.0,-101.0,0
954,-16.0,-193.0,-102.0,0
955,-36.0,-186.0,-96.0,0
956,-14.0,-203.0,-98.0,0
957,-14.0,-208.0,-102.0,0
958,-12.0,-221.0,-104.0,0
959,-12.0,-224.0,-119.0,0
960,-8.0,-231.0,-107.0,0
961,-7.0,-237.0,-111.0,0
962,-4.0,-239.0,-114.0,0
963,0.0,-250.0,-115.0,0
964,2.0,-256.0,-116.0,0
965,-1.0,-254.0,-120.0,0
966,1.0,-258.0,-124.0,0
967,6.0,-255.0,-120.0,0
968,9.0,-255.0,-122.0,0
969,10.0,-259.0,-126.0,0
970,19.0,-261.0,-117.0,0
971,16.0,-252.0,-126.0,0
972,21.0,-250.0,-119.0,0
973,23.0,-253.0,-122.0,0
974,28.0,-247.0,-119.0,0
975,33.0,-252.0,-113.0,0
976,36.0,-248.0,-116.0,0
977,33.0,-244.0,-113.0,0
978,33.0,-238.0,-107.0,0
979,36.0,-240.0,-100.0,0
980,32.0,-235.0,-107.0,0
981,27.0,-234.0,-91.0,0
982,34.0,-225.0,-96.0,0
983,28.0,-222.0,-99.0,0
984,25.0,-220.0,-94.0,0
985,26.0,-221.0,-92.0,0
986,23.0,-219.0,-92.0,0
987,22.0,-221.0,-89.0,0
988,16.0,-220.0,-89.0,0
989,14.0,-219.0,-84.0,0
990,13.0,-219.0,-82.0,0
991,7.0,-219.0,-87.0,0
992,15.0,-236.0,-70.0,0
993,5.0,-220.0,-81.0,0
994,7.0,-227.0,-86.0,0
995,3.0,-224.0,-85.0,0
996,3.0,-226.0,-85.0,0
997,4.0,-229.0,-85.0,0
998,4.0,-228.0,-88.0,0
999,1.0,-227.0,-93.0,0
1000,5.0,-230.0,-88.0,0
1001,6.0,-225.0,-92.0,0
1002,7.0,-229.0,-102.0,0
1003,6.0,-223.0,-110.0,0
1004,14.0,-229.0,-95.0,0
1005,17.0,-227.0,-100.0,0
1006,16.0,-226.0,-98.0,0
1007,14.0,-223.0,-100.0,0
1008,20.0,-225.0,-103.0,0
1009,16.0,-220.0,-107.0,0
1010,17.0,-222.0,-104.0,0
1011,20.0,-224.0,-108.0,0
1012,14.0,-219.0,-110.0,0
1013,14.0,-219.0,-115.0,0
1014,7.0,-222.0,-98.0,0
1015,12.0,-214.0,-115.0,0
1016,7.0,-214.0,-122.0,0
1017,6.0,-211.0,-119.0,0
1018,2.0,-212.0,-126.0,0
1019,-4.0,-211.0,-124.0,0
1020,-2.0,-207.0,-127.0,0
1021,-7.0,-210.0,-124.0,0
1022,-9.0,-208.0,-128.0,0
1023,-14.0,-207.0,-123.0,0
1024,-7.0,-210.0,-127.0,0
1025,-16.0,-202.0,-131.0,0
1026,-13.0,-203.0,-132.0,0
1027,-13.0,-204.0,-135.0,0
1028,-16.0,-204.0,-140.0,0
1029,-11.0,-203.0,-144.0,0
1030,-11.0,-205.0,-145.0,0
1031,-11.0,-203.0,-153.0,0
1032,-13.0,-203.0,-151.0,0
1033,-4.0,-200.0,-161.0,0
1034,-2.0,-201.0,-168.0,0
1035,-3.0,-206.0,-150.0,0
1036,-3.0,-200.0,-170.0,0
1037,-2.0,-202.0,-172.0,0
1038,-10.0,-200.0,-172.0,0
1039,-10.0,-197.0,-173.0,0
1040,-11.0,-199.0,-168.0,0
1041,-14.0,-202.0,-166.0,0
1042,-22.0,-202.0,-166.0,0
1043,-28.0,-200.0,-156.0,0
1044,-32.0,-204.0,-153.0,0
1045,-39.0,-205.0,-155.0,0
1046,-40.0,-202.0,-158.0,0
1047,-45.0,-203.0,-153.0,0
1048,-53.0,-197.0,-153.0,0
1049,-54.0,-196.0,-157.0,0
1050,-49.0,-198.0,-158.0,0
1051,-54.0,-191.0,-158.0,0
1052,-51.0,-196.0,-156.0,0
1053,-45.0,-194.0,-156.0,0
1054,-42.0,-191.0,-159.0,0
1055,-47.0,-188.0,-157.0,0
1056,-37.0,-190.0,-156.0,0
1057,-34.0,-179.0,-156.0,0
1058,-30.0,-197.0,-142.0,0
1059,-15.0,-205.0,-137.0,0
1060,-11.0,-213.0,-128.0,0
1061,-1.0,-225.0,-120.0,0
1062,4.0,-237.0,-109.0,0
1063,12.0,-246.0,-109.0,0
1064,23.0,-252.0,-105.0,0
1065,30.0,-255.0,-109.0,0
1066,34.0,-258.0,-111.0,0
1067,41.0,-253.0,-117.0,0
1068,45.0,-256.0,-128.0,0
1069,55.0,-252.0,-141.0,0
1070,63.0,-246.0,-153.0,0
1071,67.0,-240.0,-164.0,0
1072,68.0,-227.0,-174.0,0
1073,71.0,-221.0,-184.0,0
1074,68.0,-216.0,-190.0,0
1075,69.0,-211.0,-194.0,0
1076,68.0,-210.0,-194.0,0
1077,63.0,-223.0,-197.0,0
1078,48.0,-229.0,-168.0,0
1079,57.0,-229.0,-200.0,0
1080,56.0,-235.0,-195.0,0
1081,51.0,-237.0,-195.0,0
1082,43.0,-237.0,-199.0,0
1083,35.0,-235.0,-201.0,0
1084,24.0,-233.0,-206.0,0
1085,20.0,-233.0,-210.0,0
1086,17.0,-228.0,-209.0,0
1087,11.0,-218.0,-217.0,1
1088,10.0,-210.0,-224.0,1
1089,-4.0,-215.0,-243.0,1
1090,-1.0,-210.0,-241.0,1
1091,3.0,-206.0,-253.0,1
1092,11.0,-212.0,-262.0,1
1093,10.0,-217.0,-270.0,1
1094,12.0,-215.0,-281.0,1
1095,15.0,-214.0,-292.0,1
1096,17.0,-212.0,-300.0,1
1097,14.0,-210.0,-312.0,1
1098,15.0,-213.0,-315.0,1
1099,8.0,-222.0,-309.0,1
1100,2.0,-222.0,-325.0,1
1101,-14.0,-233.0,-314.0,1
1102,-34.0,-241.0,-310.0,1
1103,-38.0,-252.0,-301.0,1
1104,-51.0,-255.0,-300.0,1
1105,-66.0,-255.0,-304.0,1
1106,-78.0,-254.0,-305.0,1
1107,-95.0,-252.0,-318.0,1
1108,-114.0,-256.0,-313.0,1
1109,-127.0,-260.0,-321.0,1
1110,-141.0,-269.0,-293.0,1
1111,-144.0,-268.0,-310.0,1
1112,-150.0,-275.0,-306.0,1
1113,-149.0,-271.0,-315.0,1
1114,-144.0,-268.0,-330.0,1
1115,-125.0,-260.0,-345.0,1
1116,-103.0,-250.0,-336.0,1
1117,-94.0,-231.0,-323.0,1
1118,-79.0,-221.0,-279.0,1
1119,-67.0,-208.0,-236.0,1
1120,-52.0,-187.0,-194.0,1
1121,-33.0,-164.0,-156.0,1
1122,-13.0,-116.0,-151.0,1
1123,0.0,-77.0,-127.0,1
1124,23.0,-39.0,-81.0,1
1125,32.0,-10.0,-51.0,1
1126,29.0,45.0,-17.0,1
1127,53.0,82.0,27.0,1
1128,73.0,120.0,78.0,1
1129,72.0,159.0,140.0,1
1130,56.0,191.0,191.0,1
1131,50.0,198.0,256.0,1
1132,17.0,195.0,297.0,1
1133,35.0,166.0,320.0,1
1134,25.0,124.0,319.0,1
1135,-1.0,83.0,317.0,1
1136,-66.0,57.0,271.0,1
1137,-169.0,5.0,256.0,1
1138,-218.0,-54.0,240.0,1
1139,-209.0,-100.0,204.0,1
1140,-182.0,-113.0,153.0,1
1141,-131.0,-91.0,65.0,1
1142,-75.0,-70.0,-42.0,1
1143,-38.0,-42.0,-132.0,1
1144,-6.0,-43.0,-241.0,1
1145,39.0,-94.0,-303.0,1
1146,80.0,-126.0,-353.0,1
1147,58.0,-99.0,-379.0,1
1148,29.0,-68.0,-402.0,1
1149,-33.0,-1.0,-469.0,1
1150,-122.0,45.0,-538.0,1
1151,-174.0,23.0,-601.0,1
1152,-129.0,-78.0,-611.0,1
1153,-65.0,-177.0,-580.0,1
1154,-4.0,-227.0,-512.0,1
1155,-4.0,-203.0,-503.0,1
1156,-24.0,-183.0,-482.0,1
1157,-27.0,-198.0,-498.0,1
1158,-29.0,-248.0,-549.0,1
1159,-66.0,-288.0,-576.0,1
1160,-85.0,-303.0,-574.0,1
1161,-91.0,-295.0,-577.0,1
1162,-83.0,-280.0,-567.0,1
1163,-80.0,-263.0,-553.0,1
1164,-75.0,-238.0,-558.0,1
1165,-61.0,-204.0,-534.0,1
1166,-40.0,-171.0,-504.0,1
1167,-27.0,-144.0,-465.0,1
1168,-16.0,-125.0,-429.0,1
1169,-17.0,-126.0,-399.0,1
1170,-20.0,-146.0,-365.0,1
1171,-28.0,-180.0,-350.0,1
1172,-30.0,-219.0,-322.0,1
1173,-18.0,-265.0,-297.0,1
1174,-18.0,-277.0,-283.0,1
1175,-9.0,-298.0,-257.0,1
1176,1.0,-314.0,-233.0,1
1177,9.0,-315.0,-221.0,1
1178,5.0,-320.0,-228.0,1
1179,-9.0,-319.0,-232.0,1
1180,-18.0,-318.0,-243.0,1
1181,-29.0,-320.0,-260.0,1
1182,-51.0,-298.0,-251.0,1
1183,-40.0,-296.0,-256.0,1
1184,-34.0,-290.0,-270.0,1
1185,-30.0,-276.0,-284.0,1
1186,-3.0,-269.0,-310.0,1
1187,13.0,-260.0,-318.0,1
1188,25.0,-257.0,-311.0,1
1189,25.0,-268.0,-298.0,1
1190,33.0,-289.0,-285.0,1
1191,37.0,-311.0,-268.0,1
1192,41.0,-327.0,-245.0,1
1193,44.0,-333.0,-217.0,1
1194,47.0,-335.0,-195.0,1
1195,45.0,-322.0,-173.0,1
1196,52.0,-296.0,-136.0,1
1197,44.0,-253.0,-122.0,1
1198,35.0,-205.0,-95.0,1
1199,24.0,-155.0,-64.0,1
1200,30.0,-101.0,-33.0,1
1201,35.0,-50.0,-5.0,1
1202,35.0,1.0,13.0,1
1203,30.0,54.0,33.0,1
1204,33.0,104.0,67.0,1
1205,43.0,160.0,74.0,1
1206,44.0,231.0,70.0,1
1207,39.0,263.0,65.0,1
1208,20.0,275.0,48.0,1
1209,-3.0,290.0,37.0,1
1210,-45.0,274.0,33.0,1
1211,-114.0,232.0,27.0,1
1212,-168.0,162.0,13.0,1
1213,-195.0,110.0,-17.0,1
1214,-219.0,72.0,-60.0,1
1215,-174.0,26.0,-116.0,1
1216,-50.0,-12.0,-161.0,1
1217,27.0,-35.0,-197.0,1
1218,87.0,-72.0,-267.0,1
1219,152.0,-127.0,-311.0,1
1220,202.0,-186.0,-379.0,1
1221,232.0,-173.0,-462.0,1
1222,222.0,-124.0,-560.0,1
1223,145.0,-116.0,-576.0,1
1224,261.0,-79.0,-612.0,1
1225,306.0,-59.0,-640.0,1
1226,193.0,-28.0,-646.0,1
1227,169.0,-53.0,-660.0,1
1228,73.0,-110.0,-653.0,1
1229,-36.0,-170.0,-623.0,1
1230,-78.0,-201.0,-578.0,1
1231,-93.0,-203.0,-556.0,1
1232,-70.0,-232.0,-568.0,1
1233,-60.0,-217.0,-579.0,1
1234,-39.0,-208.0,-601.0,1
1235,-50.0,-237.0,-596.0,1
1236,-77.0,-267.0,-567.0,1
1237,-95.0,-300.0,-521.0,1
1238,-85.0,-323.0,-479.0,1
1239,-79.0,-287.0,-463.0,1
1240,-69.0,-268.0,-424.0,1
1241,-37.0,-225.0,-397.0,1
1242,-52.0,-178.0,-379.0,1
1243,-22.0,-147.0,-333.0,1
1244,-29.0,-119.0,-293.0,1
1245,-26.0,-86.0,-265.0,1
1246,-17.0,-73.0,-247.0,1
1247,-21.0,-83.0,-228.0,1
1248,-31.0,-87.0,-207.0,1
1249,-40.0,-79.0,-190.0,1
1250,-19.0,-120.0,-175.0,1
1251,-13.0,-152.0,-141.0,1
1252,-19.0,-179.0,-116.0,1
1253,-9.0,-200.0,-98.0,1
1254,13.0,-212.0,-70.0,1
1255,20.0,-210.0,-62.0,1
1256,39.0,-203.0,-57.0,1
1257,52.0,-188.0,-57.0,1
1258,58.0,-169.0,-62.0,1
1259,68.0,-161.0,-59.0,1
1260,68.0,-124.0,-71.0,1
1261,65.0,-105.0,-81.0,1
1262,41.0,-83.0,-89.0,1
1263,31.0,-75.0,-83.0,1
1264,15.0,-69.0,-90.0,1
1265,4.0,-67.0,-83.0,1
1266,-3.0,-70.0,-80.0,1
1267,-9.0,-73.0,-70.0,1
1268,-21.0,-78.0,-69.0,1
1269,-33.0,-86.0,-63.0,1
1270,-46.0,-97.0,-44.0,1
1271,-43.0,-99.0,-47.0,1
1272,-47.0,-107.0,-49.0,1
1273,-52.0,-112.0,-40.0,1
1274,-52.0,-119.0,-39.0,1
1275,-53.0,-116.0,-35.0,1
1276,-52.0,-118.0,-35.0,1
1277,-48.0,-114.0,-36.0,0
1278,-54.0,-111.0,-30.0,0
1279,-51.0,-108.0,-39.0,0
1280,-46.0,-106.0,-45.0,0
1281,-48.0,-100.0,-53.0,0
1282,-45.0,-98.0,-52.0,0
1283,-47.0,-96.0,-57.0,0
1284,-36.0,-98.0,-59.0,0
1285,-20.0,-102.0,-65.0,0
1286,-28.0,-102.0,-68.0,0
1287,-28.0,-108.0,-69.0,0
1288,-15.0,-110.0,-71.0,0
1289,-20.0,-116.0,-77.0,0
1290,-12.0,-129.0,-83.0,0
1291,-6.0,-134.0,-82.0,0
1292,-14.0,-135.0,-85.0,0
1293,-25.0,-129.0,-101.0,0
1294,-29.0,-122.0,-124.0,0
1295,-50.0,-106.0,-149.0,0
1296,-76.0,-85.0,-182.0,0
1297,-97.0,-68.0,-218.0,0
1298,-123.0,-53.0,-264.0,0
1299,-143.0,-51.0,-309.0,0
1300,-155.0,-62.0,-335.0,0
1301,-146.0,-116.0,-351.0,0
1302,-110.0,-175.0,-351.0,0
1303,-37.0,-267.0,-348.0,0
1304,8.0,-316.0,-346.0,0
1305,32.0,-342.0,-356.0,0
1306,46.0,-339.0,-367.0,0
1307,61.0,-323.0,-383.0,0
1308,77.0,-309.0,-402.0,0
1309,79.0,-305.0,-430.0,0
1310,73.0,-311.0,-443.0,0
1311,51.0,-334.0,-470.0,0
1312,23.0,-367.0,-471.0,0
1313,-17.0,-395.0,-469.0,0
1314,-44.0,-411.0,-460.0,0
1315,-64.0,-426.0,-429.0,0
1316,-89.0,-419.0,-395.0,0
1317,-110.0,-396.0,-352.0,0
1318,-120.0,-376.0,-325.0,0
1319,-128.0,-341.0,-288.0,0
1320,-130.0,-301.0,-261.0,0
1321,-119.0,-259.0,-247.0,0
1322,-106.0,-222.0,-223.0,0
1323,-89.0,-203.0,-206.0,0
1324,-61.0,-195.0,-189.0,0
1325,-45.0,-194.0,-170.0,0
1326,-17.0,-200.0,-157.0,0
1327,8.0,-205.0,-141.0,0
1328,12.0,-212.0,-114.0,0
1329,16.0,-199.0,-104.0,0
1330,25.0,-192.0,-88.0,0
1331,30.0,-175.0,-77.0,0
1332,25.0,-157.0,-78.0,0
1333,27.0,-144.0,-75.0,0
1334,14.0,-123.0,-72.0,0
1335,4.0,-117.0,-70.0,0
1336,0.0,-113.0,-76.0,0
1337,-4.0,-119.0,-75.0,0
1338,-10.0,-126.0,-85.0,0
1339,-14.0,-139.0,-87.0,0
1340,-16.0,-152.0,-92.0,0
1341,-13.0,-165.0,-91.0,0
1342,-10.0,-178.0,-101.0,0
1343,-2.0,-193.0,-103.0,0
1344,2.0,-199.0,-113.0,0
1345,1.0,-214.0,-96.0,0
1346,20.0,-212.0,-115.0,0
1347,23.0,-217.0,-116.0,0
1348,25.0,-214.0,-110.0,0
1349,31.0,-213.0,-113.0,0
1350,33.0,-208.0,-111.0,0
1351,35.0,-207.0,-111.0,0
1352,33.0,-201.0,-106.0,0
1353,35.0,-190.0,-101.0,0
1354,39.0,-181.0,-96.0,0
1355,41.0,-169.0,-78.0,0
1356,37.0,-168.0,-74.0,0
1357,44.0,-149.0,-67.0,0
1358,45.0,-140.0,-58.0,0
1359,43.0,-131.0,-54.0,0
1360,41.0,-125.0,-40.0,0
1361,37.0,-116.0,-25.0,0
1362,36.0,-108.0,-23.0,0
1363,36.0,-115.0,-13.0,0
1364,28.0,-109.0,-9.0,0
1365,32.0,-111.0,-5.0,0
1366,32.0,-109.0,-4.0,0
1367,39.0,-120.0,5.0,0
1368,36.0,-102.0,-11.0,0
1369,41.0,-101.0,-10.0,0
1370,48.0,-105.0,-10.0,0
1371,51.0,-104.0,-13.0,0
1372,58.0,-110.0,-17.0,0
1373,64.0,-116.0,-23.0,0
1374,72.0,-124.0,-28.0,0
1375,75.0,-136.0,-39.0,0
1376,82.0,-148.0,-42.0,0
1377,76.0,-162.0,-59.0,0
1378,83.0,-176.0,-73.0,0
1379,60.0,-203.0,-73.0,0
1380,54.0,-218.0,-88.0,0
1381,49.0,-231.0,-102.0,0
1382,48.0,-242.0,-127.0,0
1383,44.0,-250.0,-155.0,0
1384,46.0,-251.0,-184.0,0
1385,48.0,-246.0,-216.0,0
1386,51.0,-239.0,-254.0,0
1387,59.0,-230.0,-284.0,0
1388,72.0,-242.0,-312.0,0
1389,81.0,-269.0,-352.0,0
1390,50.0,-296.0,-332.0,0
1391,4.0,-321.0,-331.0,0
1392,-32.0,-340.0,-349.0,0
1393,-55.0,-360.0,-360.0,0
1394,-87.0,-372.0,-367.0,0
1395,-104.0,-391.0,-355.0,0
1396,-117.0,-408.0,-349.0,0
1397,-129.0,-419.0,-338.0,0
1398,-139.0,-425.0,-329.0,0
1399,-129.0,-422.0,-319.0,0
1400,-97.0,-411.0,-306.0,0
1401,-76.0,-385.0,-299.0,0
1402,-48.0,-355.0,-282.0,0
1403,-39.0,-332.0,-268.0,0
1404,-9.0,-309.0,-252.0,0
1405,19.0,-283.0,-230.0,0
1406,42.0,-263.0,-208.0,0
1407,48.0,-245.0,-185.0,0
1408,52.0,-224.0,-172.0,0
1409,48.0,-224.0,-135.0,0
1410,49.0,-216.0,-142.0,0
1411,65.0,-215.0,-133.0,0
1412,62.0,-201.0,-129.0,0
1413,54.0,-212.0,-120.0,0
1414,46.0,-207.0,-108.0,0
1415,36.0,-214.0,-106.0,0
1416,15.0,-206.0,-101.0,0
1417,4.0,-204.0,-92.0,0
1418,-5.0,-195.0,-85.0,0
1419,-12.0,-182.0,-82.0,0
1420,-10.0,-181.0,-71.0,0
1421,-4.0,-161.0,-75.0,0
1422,2.0,-156.0,-79.0,0
1423,7.0,-149.0,-85.0,0
1424,12.0,-156.0,-90.0,0
1425,19.0,-168.0,-93.0,0
1426,17.0,-173.0,-100.0,0
1427,15.0,-191.0,-106.0,0
1428,7.0,-201.0,-108.0,0
1429,-2.0,-214.0,-112.0,0
1430,-3.0,-217.0,-107.0,0
1431,-9.0,-219.0,-117.0,0
1432,-13.0,-217.0,-123.0,0
1433,-30.0,-231.0,-109.0,0
1434,-28.0,-219.0,-117.0,0
1435,-38.0,-212.0,-115.0,0
1436,-45.0,-200.0,-111.0,0
1437,-49.0,-194.0,-105.0,0
1438,-53.0,-182.0,-107.0,0
1439,-52.0,-170.0,-96.0,0
1440,-53.0,-160.0,-92.0,0
1441,-60.0,-156.0,-83.0,0
1442,-62.0,-163.0,-67.0,0
1443,-50.0,-143.0,-64.0,0
1444,-50.0,-141.0,-59.0,0
1445,-47.0,-139.0,-48.0,0
1446,-47.0,-144.0,-44.0,0
1447,-39.0,-143.0,-36.0,0
1448,-37.0,-143.0,-28.0,0
1449,-23.0,-142.0,-30.0,0
1450,-26.0,-140.0,-23.0,0
1451,-27.0,-134.0,-26.0,0
1452,-22.0,-134.0,-26.0,0
1453,-30.0,-131.0,-37.0,0
1454,-31.0,-132.0,-28.0,0
1455,-29.0,-132.0,-35.0,0
1456,-25.0,-140.0,-39.0,0
1457,-20.0,-143.0,-40.0,0
1458,-7.0,-152.0,-48.0,0
1459,-10.0,-167.0,-52.0,0
1460,-11.0,-183.0,-57.0,0
1461,-12.0,-194.0,-60.0,0
1462,-17.0,-207.0,-58.0,0
1463,-21.0,-222.0,-61.0,0
1464,-18.0,-226.0,-84.0,0
1465,-24.0,-238.0,-76.0,0
1466,-29.0,-245.0,-86.0,0
1467,-29.0,-255.0,-94.0,0
1468,-30.0,-265.0,-103.0,0
1469,-27.0,-272.0,-118.0,0
1470,-27.0,-281.0,-131.0,0
1471,-25.0,-286.0,-147.0,0
1472,-30.0,-292.0,-169.0,0
1473,-35.0,-298.0,-181.0,0
1474,-34.0,-304.0,-203.0,0
1475,-21.0,-319.0,-213.0,0
1476,-16.0,-319.0,-232.0,0
1477,-13.0,-327.0,-242.0,0
1478,-10.0,-320.0,-256.0,0
1479,-3.0,-313.0,-275.0,0
1480,3.0,-310.0,-281.0,0
1481,20.0,-309.0,-278.0,0
1482,33.0,-308.0,-273.0,0
1483,48.0,-309.0,-267.0,0
1484,47.0,-304.0,-254.0,0
1485,47.0,-312.0,-238.0,0
1486,37.0,-292.0,-224.0,0
1487,22.0,-278.0,-209.0,0
1488,14.0,-266.0,-199.0,0
1489,4.0,-256.0,-193.0,0
1490,-13.0,-239.0,-187.0,0
1491,-22.0,-229.0,-179.0,0
1492,-35.0,-224.0,-175.0,0
1493,-50.0,-217.0,-166.0,0
1494,-65.0,-216.0,-160.0,0
1495,-72.0,-225.0,-155.0,0
1496,-56.0,-232.0,-177.0,0
1497,-64.0,-228.0,-177.0,0
1498,-83.0,-253.0,-154.0,0
1499,-51.0,-266.0,-158.0,0
1500,-74.0,-259.0,-176.0,0
1501,-47.0,-304.0,-162.0,0
1502,-59.0,-283.0,-161.0,0
1503,-27.0,-277.0,-176.0,0
1504,-33.0,-291.0,-161.0,0
1505,-13.0,-279.0,-157.0,0
1506,-7.0,-274.0,-170.0,0
1507,-1.0,-274.0,-146.0,0
1508,-6.0,-281.0,-149.0,0
1509,5.0,-271.0,-161.0,0
1510,1.0,-257.0,-152.0,0
1511,5.0,-249.0,-182.0,0
1512,13.0,-243.0,-164.0,0
1513,9.0,-231.0,-156.0,0
1514,9.0,-234.0,-140.0,0
1515,14.0,-231.0,-130.0,0
1516,19.0,-226.0,-124.0,0
1517,14.0,-232.0,-101.0,0
1518,17.0,-203.0,-129.0,0
1519,20.0,-207.0,-102.0,0
1520,27.0,-198.0,-94.0,0
1521,24.0,-188.0,-86.0,0
1522,33.0,-183.0,-82.0,0
1523,24.0,-179.0,-60.0,0
1524,42.0,-165.0,-74.0,0
1525,46.0,-152.0,-69.0,0
1526,47.0,-143.0,-65.0,0
1527,49.0,-140.0,-62.0,0
1528,52.0,-131.0,-71.0,0
1529,51.0,-130.0,-58.0,0
1530,56.0,-129.0,-48.0,0
1531,49.0,-126.0,-46.0,0
1532,45.0,-125.0,-41.0,0
1533,44.0,-125.0,-35.0,0
1534,43.0,-129.0,-34.0,0
1535,39.0,-129.0,-31.0,0
1536,33.0,-126.0,-28.0,0
1537,34.0,-135.0,-29.0,0
1538,29.0,-140.0,-31.0,0
1539,17.0,-139.0,-30.0,0
1540,31.0,-151.0,-34.0,0
1541,28.0,-156.0,-37.0,0
1542,28.0,-160.0,-43.0,0
1543,27.0,-167.0,-48.0,0
1544,31.0,-177.0,-52.0,0
1545,31.0,-185.0,-55.0,0
1546,29.0,-193.0,-58.0,0
1547,30.0,-197.0,-61.0,0
1548,31.0,-210.0,-61.0,0
1549,26.0,-228.0,-66.0,0
1550,38.0,-226.0,-61.0,0
1551,35.0,-241.0,-67.0,0
1552,38.0,-248.0,-78.0,0
1553,39.0,-257.0,-84.0,0
1554,42.0,-261.0,-87.0,0
1555,44.0,-271.0,-89.0,0
1556,47.0,-276.0,-94.0,0
1557,46.0,-281.0,-100.0,0
1558,48.0,-280.0,-101.0,0
1559,49.0,-283.0,-110.0,0
1560,50.0,-287.0,-103.0,0
1561,57.0,-273.0,-115.0,0
1562,44.0,-286.0,-97.0,0
1563,40.0,-288.0,-100.0,0
1564,37.0,-285.0,-96.0,0
1565,32.0,-284.0,-98.0,0
1566,34.0,-274.0,-101.0,0
1567,31.0,-265.0,-106.0,0
1568,37.0,-255.0,-122.0,0
1569,40.0,-239.0,-133.0,0
1570,46.0,-224.0,-148.0,0
1571,55.0,-211.0,-171.0,0
1572,67.0,-204.0,-184.0,0
1573,68.0,-209.0,-202.0,0
1574,60.0,-226.0,-207.0,0
1575,34.0,-256.0,-194.0,0
1576,3.0,-278.0,-183.0,0
1577,-16.0,-336.0,-191.0,0
1578,-58.0,-364.0,-198.0,0
1579,-101.0,-336.0,-204.0,0
1580,-101.0,-320.0,-213.0,0
1581,-83.0,-312.0,-216.0,0
1582,-78.0,-287.0,-235.0,0
1583,-66.0,-279.0,-227.0,0
1584,-71.0,-262.0,-234.0,0
1585,-68.0,-248.0,-238.0,0
1586,-48.0,-243.0,-241.0,0
1587,-36.0,-240.0,-231.0,0
1588,-21.0,-243.0,-230.0,0
1589,-13.0,-243.0,-220.0,0
1590,1.0,-250.0,-208.0,0
1591,13.0,-260.0,-195.0,0
1592,23.0,-271.0,-185.0,0
1593,29.0,-268.0,-187.0,0
1594,30.0,-275.0,-171.0,0
1595,29.0,-271.0,-168.0,0
1596,34.0,-266.0,-165.0,0
1597,38.0,-264.0,-159.0,0
1598,36.0,-257.0,-152.0,0
1599,43.0,-254.0,-142.0,0
1600,32.0,-242.0,-135.0,0
1601,21.0,-236.0,-125.0,0
1602,11.0,-223.0,-117.0,0
1603,-2.0,-218.0,-107.0,0
1604,-4.0,-202.0,-103.0,0
1605,-4.0,-183.0,-102.0,0
1606,0.0,-170.0,-99.0,0
1607,-1.0,-161.0,-96.0,0
1608,0.0,-155.0,-96.0,0
1609,2.0,-152.0,-96.0,0
1610,4.0,-155.0,-94.0,0
1611,-1.0,-162.0,-92.0,0
1612,2.0,-174.0,-93.0,0
1613,6.0,-183.0,-97.0,0
1614,11.0,-195.0,-99.0,0
1615,29.0,-211.0,-112.0,0
1616,13.0,-222.0,-103.0,0
1617,10.0,-232.0,-104.0,0
1618,11.0,-244.0,-114.0,0
1619,5.0,-251.0,-121.0,0
1620,-2.0,-255.0,-121.0,0
1621,-5.0,-256.0,-127.0,0
1622,-11.0,-257.0,-129.0,0
1623,-21.0,-253.0,-132.0,0
1624,-27.0,-252.0,-131.0,0
1625,-32.0,-251.0,-127.0,0
1626,-40.0,-240.0,-135.0,0
1627,-49.0,-236.0,-129.0,0
1628,-50.0,-230.0,-127.0,0
1629,-51.0,-224.0,-123.0,0
1630,-49.0,-221.0,-118.0,0
1631,-47.0,-214.0,-108.0,0
1632,-44.0,-208.0,-103.0,0
1633,-45.0,-205.0,-90.0,0
1634,-40.0,-198.0,-81.0,0
1635,-38.0,-192.0,-79.0,0
1636,-36.0,-188.0,-56.0,0
1637,-34.0,-185.0,-62.0,0
1638,-30.0,-181.0,-64.0,0
1639,-33.0,-174.0,-64.0,0
1640,-30.0,-174.0,-63.0,0
1641,-33.0,-170.0,-60.0,0
1642,-31.0,-170.0,-59.0,0
1643,-27.0,-173.0,-56.0,0
1644,-27.0,-174.0,-63.0,0
1645,-20.0,-176.0,-61.0,0
1646,-26.0,-181.0,-56.0,0
1647,-14.0,-193.0,-47.0,0
1648,-16.0,-193.0,-59.0,0
1649,-13.0,-198.0,-55.0,0
1650,-7.0,-200.0,-57.0,0
1651,-6.0,-206.0,-60.0,0
1652,-11.0,-210.0,-59.0,0
1653,-4.0,-212.0,-59.0,0
1654,-5.0,-218.0,-61.0,0
1655,-10.0,-221.0,-60.0,0
1656,-8.0,-226.0,-66.0,0
1657,-10.0,-232.0,-75.0,0
1658,-13.0,-237.0,-76.0,0
1659,-14.0,-245.0,-65.0,0
1660,-16.0,-246.0,-74.0,0
1661,-23.0,-253.0,-72.0,0
1662,-30.0,-253.0,-78.0,0
1663,-34.0,-256.0,-82.0,0
1664,-34.0,-256.0,-87.0,0
1665,-35.0,-265.0,-92.0,0
1666,-36.0,-261.0,-91.0,0
1667,-38.0,-268.0,-89.0,0
1668,-33.0,-277.0,-92.0,0
1669,-30.0,-298.0,-86.0,0
1670,-30.0,-290.0,-89.0,0
1671,-25.0,-294.0,-84.0,0
1672,-21.0,-295.0,-83.0,0
1673,-19.0,-297.0,-84.0,0
1674,-16.0,-291.0,-74.0,0
1675,-17.0,-287.0,-79.0,0
1676,-16.0,-280.0,-76.0,0
1677,-17.0,-270.0,-78.0,0
1678,-19.0,-268.0,-74.0,0
1679,-20.0,-254.0,-81.0,0
1680,-35.0,-235.0,-92.0,0
1681,-37.0,-236.0,-119.0,0
1682,-45.0,-233.0,-135.0,0
1683,-47.0,-247.0,-145.0,0
1684,-40.0,-275.0,-150.0,0
1685,-31.0,-304.0,-155.0,0
1686,-18.0,-330.0,-168.0,0
1687,-9.0,-344.0,-181.0,0
1688,-4.0,-343.0,-199.0,0
1689,2.0,-329.0,-209.0,0
1690,12.0,-315.0,-219.0,0
1691,9.0,-295.0,-214.0,0
1692,16.0,-281.0,-211.0,0
1693,28.0,-272.0,-201.0,0
1694,36.0,-256.0,-210.0,0
1695,37.0,-247.0,-198.0,0
1696,38.0,-232.0,-186.0,0
1697,33.0,-222.0,-174.0,0
1698,30.0,-209.0,-163.0,0
1699,26.0,-193.0,-152.0,0
1700,22.0,-192.0,-143.0,0
1701,1.0,-191.0,-115.0,0
1702,10.0,-192.0,-117.0,0
1703,4.0,-194.0,-109.0,0
1704,-1.0,-200.0,-112.0,0
1705,-8.0,-202.0,-111.0,0
1706,-12.0,-209.0,-118.0,0
1707,-19.0,-221.0,-121.0,0
1708,-24.0,-230.0,-122.0,0
1709,-29.0,-241.0,-126.0,0
1710,-33.0,-251.0,-125.0,0
1711,-35.0,-248.0,-131.0,0
1712,-25.0,-233.0,-134.0,0
1713,-29.0,-245.0,-133.0,0
1714,-21.0,-235.0,-136.0,0
1715,-23.0,-225.0,-135.0,0
1716,-17.0,-215.0,-133.0,0
1717,-16.0,-208.0,-131.0,0
1718,-15.0,-200.0,-130.0,0
1719,-12.0,-195.0,-131.0,0
1720,-17.0,-199.0,-130.0,0
1721,-16.0,-206.0,-127.0,0
1722,-12.0,-213.0,-129.0,0
1723,-6.0,-213.0,-127.0,0
1724,-5.0,-226.0,-129.0,0
1725,1.0,-228.0,-128.0,0
1726,9.0,-233.0,-129.0,0
1727,19.0,-234.0,-135.0,0
1728,19.0,-233.0,-134.0,0
1729,22.0,-230.0,-135.0,0
1730,27.0,-228.0,-137.0,0
1731,24.0,-228.0,-134.0,0
1732,26.0,-223.0,-133.0,0
1733,31.0,-221.0,-126.0,0
1734,31.0,-218.0,-126.0,0
1735,36.0,-215.0,-120.0,0
1736,32.0,-210.0,-115.0,0
1737,36.0,-207.0,-108.0,0
1738,37.0,-203.0,-100.0,0
1739,38.0,-197.0,-94.0,0
1740,39.0,-196.0,-89.0,0
1741,41.0,-187.0,-85.0,0
1742,39.0,-188.0,-76.0,0
1743,33.0,-184.0,-74.0,0
1744,14.0,-175.0,-80.0,0
1745,40.0,-168.0,-79.0,0
1746,34.0,-180.0,-66.0,0
1747,33.0,-176.0,-63.0,0
1748,29.0,-177.0,-64.0,0
1749,28.0,-182.0,-63.0,0
1750,25.0,-184.0,-66.0,0
1751,24.0,-191.0,-70.0,0
1752,22.0,-197.0,-65.0,0
1753,24.0,-203.0,-65.0,0
1754,20.0,-213.0,-69.0,0
1755,19.0,-227.0,-64.0,0
1756,20.0,-223.0,-74.0,0
1757,22.0,-232.0,-81.0,0
1758,24.0,-241.0,-77.0,0
1759,21.0,-243.0,-81.0,0
1760,22.0,-244.0,-80.0,0
1761,19.0,-246.0,-88.0,0
1762,19.0,-245.0,-90.0,0
1763,22.0,-244.0,-91.0,0
1764,23.0,-247.0,-86.0,0
1765,19.0,-245.0,-87.0,0
1766,26.0,-243.0,-80.0,0
1767,19.0,-245.0,-81.0,0
1768,22.0,-249.0,-74.0,0
1769,19.0,-249.0,-71.0,0
1770,20.0,-252.0,-77.0,0
1771,21.0,-252.0,-72.0,0
1772,26.0,-253.0,-76.0,0
1773,31.0,-248.0,-85.0,0
1774,33.0,-246.0,-86.0,0
1775,37.0,-241.0,-94.0,0
1776,40.0,-239.0,-100.0,0
1777,43.0,-246.0,-87.0,0
1778,47.0,-235.0,-99.0,0
1779,52.0,-235.0,-96.0,0
1780,49.0,-233.0,-91.0,0
1781,46.0,-233.0,-92.0,0
1782,44.0,-236.0,-88.0,0
1783,45.0,-241.0,-91.0,0
1784,47.0,-247.0,-87.0,0
1785,44.0,-246.0,-84.0,0
1786,44.0,-252.0,-85.0,0
1787,41.0,-248.0,-88.0,0
1788,45.0,-250.0,-86.0,0
1789,44.0,-248.0,-92.0,0
1790,43.0,-250.0,-95.0,0
1791,43.0,-251.0,-102.0,0
1792,41.0,-258.0,-114.0,0
1793,38.0,-265.0,-122.0,0
1794,35.0,-278.0,-128.0,0
1795,25.0,-296.0,-134.0,0
1796,19.0,-316.0,-134.0,0
1797,16.0,-322.0,-138.0,0
1798,8.0,-330.0,-140.0,0
1799,-2.0,-337.0,-148.0,0
1800,-5.0,-335.0,-159.0,0
1801,-13.0,-330.0,-165.0,0
1802,-16.0,-322.0,-172.0,0
1803,-25.0,-308.0,-182.0,0
1804,-21.0,-287.0,-188.0,0
1805,-16.0,-277.0,-190.0,0
1806,-16.0,-255.0,-194.0,0
1807,-20.0,-239.0,-194.0,0
1808,-29.0,-222.0,-191.0,0
1809,-37.0,-205.0,-197.0,0
1810,-36.0,-201.0,-175.0,0
1811,-40.0,-192.0,-167.0,0
1812,-39.0,-191.0,-154.0,0
1813,-42.0,-188.0,-147.0,0
1814,-45.0,-185.0,-136.0,0
1815,-41.0,-182.0,-131.0,0
1816,-41.0,-179.0,-123.0,0
1817,-40.0,-178.0,-120.0,0
1818,-40.0,-175.0,-118.0,0
1819,-34.0,-174.0,-116.0,0
1820,-25.0,-176.0,-113.0,0
1821,-25.0,-185.0,-114.0,0
1822,-19.0,-190.0,-109.0,0
1823,-14.0,-194.0,-116.0,0
1824,-5.0,-201.0,-117.0,0
1825,0.0,-207.0,-118.0,0
1826,6.0,-215.0,-123.0,0
1827,15.0,-223.0,-128.0,0
1828,24.0,-226.0,-127.0,0
1829,22.0,-231.0,-128.0,0
1830,25.0,-240.0,-130.0,0
1831,24.0,-238.0,-144.0,0
1832,21.0,-240.0,-131.0,0
1833,23.0,-242.0,-129.0,0
1834,17.0,-240.0,-132.0,0
1835,17.0,-242.0,-134.0,0
1836,15.0,-242.0,-135.0,0
1837,13.0,-241.0,-134.0,0
1838,6.0,-247.0,-143.0,0
1839,5.0,-251.0,-146.0,0
1840,-8.0,-254.0,-147.0,0
1841,-12.0,-252.0,-147.0,0
1842,-14.0,-247.0,-172.0,0
1843,-26.0,-255.0,-156.0,0
1844,-28.0,-254.0,-154.0,0
1845,-32.0,-254.0,-153.0,0
1846,-36.0,-251.0,-156.0,0
1847,-40.0,-248.0,-149.0,0
1848,-43.0,-243.0,-146.0,0
1849,-46.0,-241.0,-137.0,0
1850,-47.0,-234.0,-133.0,0
1851,-49.0,-230.0,-125.0,0
1852,-47.0,-228.0,-120.0,0
1853,-49.0,-213.0,-119.0,0
1854,-49.0,-214.0,-105.0,0
1855,-48.0,-208.0,-95.0,0
1856,-49.0,-203.0,-90.0,0
1857,-42.0,-200.0,-83.0,0
1858,-39.0,-193.0,-76.0,0
1859,-34.0,-192.0,-77.0,0
1860,-32.0,-192.0,-73.0,0
1861,-33.0,-188.0,-67.0,0
1862,-32.0,-187.0,-65.0,0
1863,-35.0,-185.0,-61.0,0
1864,-33.0,-188.0,-60.0,0
1865,-35.0,-179.0,-62.0,0
1866,-35.0,-179.0,-65.0,0
1867,-35.0,-176.0,-65.0,0
1868,-34.0,-173.0,-67.0,0
1869,-35.0,-178.0,-70.0,0
1870,-35.0,-180.0,-71.0,0
1871,-39.0,-186.0,-70.0,0
1872,-38.0,-193.0,-80.0,0
1873,-35.0,-204.0,-79.0,0
1874,-36.0,-212.0,-80.0,0
1875,-37.0,-214.0,-83.0,0
1876,-39.0,-228.0,-84.0,0
1877,-37.0,-237.0,-85.0,0
1878,-36.0,-241.0,-88.0,0
1879,-35.0,-244.0,-87.0,0
1880,-35.0,-244.0,-93.0,0
1881,-34.0,-242.0,-88.0,0
1882,-30.0,-248.0,-86.0,0
1883,-32.0,-243.0,-92.0,0
1884,-30.0,-244.0,-90.0,0
1885,-31.0,-246.0,-89.0,0
1886,-40.0,-250.0,-76.0,0
1887,-29.0,-249.0,-80.0,0
1888,-30.0,-251.0,-78.0,0
1889,-32.0,-254.0,-75.0,0
1890,-31.0,-255.0,-71.0,0
1891,-32.0,-255.0,-67.0,0
1892,-31.0,-253.0,-72.0,0
1893,-29.0,-249.0,-72.0,0
1894,-34.0,-247.0,-74.0,0
1895,-32.0,-246.0,-70.0,0
1896,-36.0,-239.0,-81.0,0
1897,-34.0,-243.0,-75.0,0
1898,-30.0,-238.0,-85.0,0
1899,-26.0,-239.0,-83.0,0
1900,-24.0,-244.0,-82.0,0
1901,-21.0,-252.0,-82.0,0
1902,-18.0,-249.0,-79.0,0
1903,-14.0,-254.0,-81.0,0
1904,-15.0,-254.0,-81.0,0
1905,-15.0,-259.0,-91.0,0
1906,-15.0,-261.0,-80.0,0
1907,-15.0,-265.0,-85.0,0
1908,-18.0,-264.0,-85.0,0
1909,-18.0,-262.0,-100.0,0
1910,-26.0,-258.0,-110.0,0
1911,-34.0,-256.0,-129.0,0
1912,-36.0,-257.0,-148.0,0
1913,-26.0,-273.0,-158.0,0
1914,-19.0,-295.0,-167.0,0
1915,-8.0,-324.0,-172.0,0
1916,-4.0,-345.0,-182.0,0
1917,-6.0,-352.0,-201.0,0
1918,-25.0,-344.0,-214.0,0
1919,-22.0,-347.0,-221.0,0
1920,-18.0,-337.0,-222.0,0
1921,-12.0,-329.0,-227.0,0
1922,-5.0,-297.0,-239.0,0
1923,2.0,-273.0,-245.0,0
1924,0.0,-257.0,-236.0,0
1925,-5.0,-242.0,-221.0,0
1926,3.0,-220.0,-197.0,0
1927,6.0,-199.0,-183.0,0
1928,11.0,-181.0,-161.0,0
1929,7.0,-168.0,-140.0,0
1930,13.0,-150.0,-136.0,0
1931,12.0,-144.0,-124.0,0
1932,10.0,-146.0,-109.0,0
1933,2.0,-147.0,-103.0,0
1934,0.0,-153.0,-101.0,0
1935,-6.0,-159.0,-98.0,0
1936,-7.0,-166.0,-101.0,0
1937,-16.0,-174.0,-103.0,0
1938,-23.0,-189.0,-108.0,0
1939,-35.0,-196.0,-110.0,0
1940,-34.0,-200.0,-121.0,0
1941,-52.0,-213.0,-117.0,0
1942,-54.0,-216.0,-124.0,0
1943,-53.0,-223.0,-133.0,0
1944,-50.0,-230.0,-139.0,0
1945,-45.0,-229.0,-143.0,0
1946,-44.0,-225.0,-141.0,0
1947,-37.0,-219.0,-144.0,0
1948,-30.0,-214.0,-151.0,0
1949,-22.0,-205.0,-157.0,0
1950,-31.0,-211.0,-152.0,0
1951,-28.0,-216.0,-153.0,0
1952,-24.0,-228.0,-158.0,0
1953,-27.0,-231.0,-160.0,0
1954,-21.0,-236.0,-165.0,0
1955,-14.0,-246.0,-168.0,0
1956,-10.0,-254.0,-171.0,0
1957,-8.0,-262.0,-169.0,0
1958,1.0,-265.0,-167.0,0
1959,3.0,-262.0,-166.0,0
1960,8.0,-261.0,-160.0,0
1961,12.0,-264.0,-162.0,0
1962,17.0,-258.0,-161.0,0
1963,17.0,-253.0,-156.0,0
1964,22.0,-247.0,-148.0,0
1965,25.0,-237.0,-144.0,0
1966,28.0,-224.0,-136.0,0
1967,35.0,-217.0,-133.0,0
1968,38.0,-206.0,-127.0,0
1969,43.0,-198.0,-125.0,0
1970,40.0,-192.0,-107.0,0
1971,45.0,-186.0,-106.0,0
1972,38.0,-176.0,-103.0,0
1973,43.0,-183.0,-90.0,0
1974,35.0,-179.0,-86.0,0
1975,37.0,-178.0,-78.0,0
1976,35.0,-180.0,-78.0,0
1977,33.0,-176.0,-75.0,0
1978,27.0,-175.0,-73.0,0
1979,28.0,-176.0,-75.0,0
1980,25.0,-174.0,-72.0,0
1981,24.0,-174.0,-70.0,0
1982,19.0,-171.0,-87.0,0
1983,23.0,-173.0,-76.0,0
1984,21.0,-184.0,-81.0,0
1985,20.0,-192.0,-83.0,0
1986,18.0,-199.0,-88.0,0
1987,21.0,-210.0,-93.0,0
1988,15.0,-217.0,-93.0,0
1989,16.0,-227.0,-100.0,0
1990,17.0,-237.0,-106.0,0
1991,20.0,-242.0,-105.0,0
1992,18.0,-248.0,-107.0,0
1993,19.0,-249.0,-116.0,0
1994,26.0,-266.0,-109.0,0
1995,18.0,-252.0,-112.0,0
1996,21.0,-251.0,-112.0,0
1997,22.0,-252.0,-105.0,0
1998,22.0,-251.0,-111.0,0
1999,21.0,-248.0,-101.0,0
2000,22.0,-249.0,-96.0,0
2001,18.0,-251.0,-97.0,0
2002,19.0,-242.0,-90.0,0
2003,23.0,-245.0,-98.0,0
2004,22.0,-233.0,-97.0,0
2005,30.0,-236.0,-85.0,0
2006,20.0,-231.0,-94.0,0
2007,24.0,-227.0,-95.0,0
2008,23.0,-224.0,-94.0,0
2009,24.0,-220.0,-87.0,0
2010,23.0,-218.0,-85.0,0
2011,20.0,-219.0,-83.0,0
2012,15.0,-223.0,-78.0,0
2013,15.0,-222.0,-79.0,0
2014,10.0,-220.0,-78.0,0
2015,8.0,-224.0,-72.0,0
2016,14.0,-238.0,-72.0,0
2017,12.0,-230.0,-78.0,0
2018,14.0,-233.0,-79.0,0
2019,15.0,-235.0,-76.0,0
2020,19.0,-238.0,-74.0,0
2021,19.0,-242.0,-77.0,0
2022,21.0,-245.0,-77.0,0
2023,23.0,-253.0,-79.0,0
2024,26.0,-252.0,-82.0,0
2025,20.0,-260.0,-75.0,0
2026,18.0,-256.0,-93.0,0
2027,6.0,-268.0,-83.0,0
2028,5.0,-265.0,-89.0,0
2029,6.0,-267.0,-93.0,0
2030,8.0,-267.0,-100.0,0
2031,9.0,-262.0,-111.0,0
2032,18.0,-256.0,-125.0,0
2033,22.0,-256.0,-135.0,0
2034,26.0,-268.0,-145.0,0
2035,32.0,-276.0,-146.0,0
2036,25.0,-303.0,-151.0,0
2037,27.0,-311.0,-143.0,0
2038,16.0,-335.0,-155.0,0
2039,4.0,-342.0,-162.0,0
2040,-3.0,-347.0,-168.0,0
2041,-6.0,-347.0,-170.0,0
2042,-7.0,-338.0,-184.0,0
2043,-4.0,-320.0,-192.0,0
2044,-4.0,-301.0,-199.0,0
2045,-3.0,-285.0,-199.0,0
2046,-6.0,-269.0,-205.0,0
2047,-14.0,-250.0,-208.0,0
2048,-10.0,-244.0,-187.0,0
2049,-22.0,-218.0,-191.0,0
2050,-21.0,-205.0,-186.0,0
2051,-24.0,-193.0,-176.0,0
2052,-24.0,-184.0,-161.0,0
2053,-27.0,-178.0,-152.0,0
2054,-29.0,-176.0,-138.0,0
2055,-31.0,-175.0,-126.0,0
2056,-28.0,-170.0,-118.0,0
2057,-30.0,-168.0,-114.0,0
2058,-31.0,-168.0,-105.0,0
2059,-24.0,-167.0,-99.0,0
2060,2.0,-182.0,-87.0,0
2061,-17.0,-170.0,-100.0,0
2062,-18.0,-173.0,-100.0,0
2063,-19.0,-177.0,-102.0,0
2064,-13.0,-185.0,-103.0,0
2065,-11.0,-190.0,-115.0,0
2066,-8.0,-196.0,-116.0,0
2067,0.0,-210.0,-119.0,0
2068,2.0,-213.0,-121.0,0
2069,7.0,-220.0,-127.0,0
2070,4.0,-227.0,-113.0,0
2071,14.0,-232.0,-130.0,0
2072,18.0,-236.0,-131.0,0
2073,25.0,-238.0,-129.0,0
2074,17.0,-242.0,-126.0,0
2075,18.0,-243.0,-128.0,0
2076,19.0,-246.0,-129.0,0
2077,23.0,-237.0,-137.0,0
2078,20.0,-240.0,-139.0,0
2079,24.0,-243.0,-144.0,0
2080,14.0,-251.0,-138.0,0
2081,18.0,-258.0,-133.0,0
2082,7.0,-256.0,-131.0,0
2083,3.0,-255.0,-133.0,0
2084,-4.0,-256.0,-132.0,0
2085,-15.0,-252.0,-133.0,0
2086,-19.0,-250.0,-132.0,0
2087,-29.0,-249.0,-132.0,0
2088,-40.0,-241.0,-137.0,0
2089,-43.0,-236.0,-133.0,0
2090,-47.0,-233.0,-129.0,0
2091,-58.0,-223.0,-141.0,0
2092,-53.0,-220.0,-139.0,0
2093,-61.0,-217.0,-117.0,0
2094,-56.0,-216.0,-104.0,0
2095,-58.0,-215.0,-103.0,0
2096,-55.0,-215.0,-97.0,0
2097,-56.0,-214.0,-93.0,0
2098,-55.0,-215.0,-88.0,0
2099,-49.0,-209.0,-86.0,0
2100,-52.0,-204.0,-79.0,0
2101,-51.0,-198.0,-79.0,0
2102,-48.0,-199.0,-65.0,0
2103,-50.0,-192.0,-75.0,0
2104,-48.0,-191.0,-73.0,0
2105,-46.0,-192.0,-73.0,0
2106,-46.0,-193.0,-74.0,0
2107,-44.0,-192.0,-71.0,0
2108,-45.0,-196.0,-75.0,0
2109,-40.0,-199.0,-77.0,0
2110,-44.0,-202.0,-77.0,0
2111,-41.0,-210.0,-78.0,0
2112,-43.0,-213.0,-83.0,0
2113,-38.0,-214.0,-89.0,0
2114,-37.0,-223.0,-85.0,0
2115,-39.0,-225.0,-92.0,0
2116,-34.0,-229.0,-93.0,0
2117,-35.0,-229.0,-99.0,0
2118,-35.0,-230.0,-94.0,0
2119,-27.0,-233.0,-90.0,0
2120,-25.0,-227.0,-95.0,0
2121,-22.0,-227.0,-89.0,0
2122,-23.0,-227.0,-85.0,0
2123,-27.0,-221.0,-88.0,0
2124,-8.0,-221.0,-95.0,0
2125,-22.0,-218.0,-81.0,0
2126,-22.0,-218.0,-78.0,0
2127,-23.0,-220.0,-75.0,0
2128,-22.0,-218.0,-69.0,0
2129,-24.0,-219.0,-69.0,0
2130,-20.0,-222.0,-66.0,0
2131,-26.0,-221.0,-68.0,0
2132,-21.0,-222.0,-68.0,0
2133,-24.0,-224.0,-71.0,0
2134,-24.0,-230.0,-71.0,0
2135,-23.0,-219.0,-75.0,0
2136,-21.0,-232.0,-71.0,0
2137,-20.0,-233.0,-82.0,0
2138,-16.0,-234.0,-80.0,0
2139,-16.0,-235.0,-82.0,0
2140,-11.0,-238.0,-87.0,0
2141,-7.0,-239.0,-88.0,0
2142,-7.0,-245.0,-89.0,0
2143,-2.0,-246.0,-90.0,0
2144,-1.0,-255.0,-96.0,0
2145,0.0,-256.0,-92.0,0
2146,9.0,-247.0,-112.0,0
2147,6.0,-267.0,-99.0,0
2148,7.0,-274.0,-103.0,0
2149,10.0,-276.0,-108.0,0
2150,4.0,-280.0,-110.0,0
2151,1.0,-278.0,-108.0,0
2152,1.0,-283.0,-118.0,0
2153,-3.0,-283.0,-117.0,0
2154,-7.0,-279.0,-114.0,0
2155,-4.0,-281.0,-111.0,0
2156,-8.0,-281.0,-108.0,0
2157,-1.0,-286.0,-106.0,0
2158,-2.0,-289.0,-101.0,0
2159,-1.0,-286.0,-93.0,0
2160,-9.0,-279.0,-94.0,0
2161,-10.0,-277.0,-94.0,0
2162,-17.0,-269.0,-90.0,0
2163,-30.0,-261.0,-103.0,0
2164,-32.0,-251.0,-107.0,0
2165,-39.0,-243.0,-116.0,0
2166,-50.0,-248.0,-122.0,0
2167,-42.0,-256.0,-118.0,0
2168,-51.0,-268.0,-120.0,0
2169,-50.0,-279.0,-129.0,0
2170,-50.0,-292.0,-131.0,0
2171,-49.0,-301.0,-138.0,0
2172,-42.0,-310.0,-148.0,0
2173,-39.0,-310.0,-162.0,0
2174,-38.0,-304.0,-172.0,0
2175,-34.0,-293.0,-180.0,0
2176,-29.0,-280.0,-188.0,0
2177,-28.0,-262.0,-193.0,0
2178,-27.0,-248.0,-188.0,0
2179,-19.0,-229.0,-196.0,0
2180,-16.0,-214.0,-194.0,0
2181,-14.0,-200.0,-191.0,0
2182,-14.0,-188.0,-176.0,0
2183,-13.0,-181.0,-173.0,0
2184,-15.0,-169.0,-163.0,0
2185,-10.0,-164.0,-153.0,0
2186,-7.0,-157.0,-137.0,0
2187,-11.0,-158.0,-125.0,0
2188,-7.0,-160.0,-116.0,0
2189,-16.0,-167.0,-101.0,0
2190,-16.0,-184.0,-96.0,0
2191,-18.0,-195.0,-89.0,0
2192,-19.0,-198.0,-90.0,0
2193,-21.0,-202.0,-98.0,0
2194,-19.0,-205.0,-110.0,0
2195,-30.0,-212.0,-109.0,0
2196,-35.0,-225.0,-108.0,0
2197,-37.0,-235.0,-108.0,0
2198,-41.0,-240.0,-115.0,0
2199,-32.0,-248.0,-121.0,0
2200,-36.0,-258.0,-119.0,0
2201,-25.0,-255.0,-128.0,0
2202,-21.0,-254.0,-133.0,0
2203,-21.0,-249.0,-131.0,0
2204,-16.0,-241.0,-136.0,0
2205,-14.0,-237.0,-132.0,0
2206,-11.0,-232.0,-138.0,0
2207,-12.0,-227.0,-134.0,0
2208,-12.0,-224.0,-132.0,0
2209,-10.0,-218.0,-133.0,0
2210,-8.0,-213.0,-152.0,0
2211,-6.0,-221.0,-142.0,0
2212,-6.0,-225.0,-142.0,0
2213,-5.0,-229.0,-140.0,0
2214,1.0,-236.0,-146.0,0
2215,1.0,-243.0,-143.0,0
2216,6.0,-247.0,-147.0,0
2217,14.0,-247.0,-146.0,0
2218,14.0,-253.0,-151.0,0
2219,17.0,-250.0,-148.0,0
2220,22.0,-246.0,-147.0,0
2221,36.0,-241.0,-154.0,0
2222,29.0,-239.0,-140.0,0
2223,33.0,-233.0,-133.0,0
2224,38.0,-229.0,-132.0,0
2225,38.0,-223.0,-128.0,0
2226,39.0,-217.0,-118.0,0
2227,38.0,-216.0,-111.0,0
2228,35.0,-215.0,-102.0,0
2229,37.0,-209.0,-98.0,0
2230,33.0,-211.0,-96.0,0
2231,35.0,-201.0,-86.0,0
2232,16.0,-200.0,-84.0,0
2233,31.0,-194.0,-80.0,0
2234,29.0,-192.0,-81.0,0
2235,26.0,-186.0,-77.0,0
2236,22.0,-181.0,-81.0,0
2237,23.0,-180.0,-78.0,0
2238,21.0,-179.0,-76.0,0
2239,19.0,-178.0,-78.0,0
2240,18.0,-186.0,-79.0,0
2241,14.0,-190.0,-84.0,0
2242,17.0,-196.0,-84.0,0
2243,10.0,-198.0,-94.0,0
2244,12.0,-210.0,-89.0,0
2245,10.0,-216.0,-93.0,0
2246,12.0,-222.0,-100.0,0
2247,11.0,-225.0,-98.0,0
2248,6.0,-229.0,-105.0,0
2249,9.0,-230.0,-111.0,0
2250,12.0,-231.0,-114.0,0
2251,11.0,-233.0,-107.0,0
2252,8.0,-232.0,-113.0,0
2253,19.0,-236.0,-109.0,0
2254,5.0,-241.0,-100.0,0
2255,9.0,-231.0,-102.0,0
2256,13.0,-231.0,-101.0,0
2257,11.0,-230.0,-96.0,0
2258,6.0,-233.0,-92.0,0
2259,9.0,-233.0,-84.0,0
2260,10.0,-232.0,-82.0,0
2261,10.0,-231.0,-81.0,0
2262,14.0,-230.0,-81.0,0
2263,12.0,-229.0,-78.0,0
2264,15.0,-229.0,-78.0,0
2265,12.0,-233.0,-65.0,0
2266,12.0,-228.0,-78.0,0
2267,16.0,-225.0,-80.0,0
2268,14.0,-227.0,-80.0,0
2269,14.0,-223.0,-78.0,0
2270,14.0,-229.0,-80.0,0
2271,13.0,-228.0,-80.0,0
2272,9.0,-231.0,-80.0,0
2273,10.0,-239.0,-85.0,0
2274,8.0,-238.0,-84.0,0
2275,4.0,-247.0,-87.0,0
2276,-5.0,-236.0,-90.0,0
2277,7.0,-244.0,-98.0,0
2278,11.0,-249.0,-101.0,0
2279,13.0,-251.0,-103.0,0
2280,14.0,-250.0,-102.0,0
2281,14.0,-256.0,-100.0,0
2282,14.0,-262.0,-102.0,0
2283,16.0,-269.0,-100.0,0
2284,7.0,-272.0,-101.0,0
2285,7.0,-277.0,-97.0,0
2286,3.0,-284.0,-98.0,0
2287,4.0,-295.0,-83.0,0
2288,0.0,-288.0,-99.0,0
2289,-1.0,-281.0,-101.0,0
2290,-1.0,-280.0,-107.0,0
2291,8.0,-269.0,-112.0,0
2292,17.0,-264.0,-124.0,0
2293,25.0,-255.0,-132.0,0
2294,30.0,-249.0,-145.0,0
2295,26.0,-261.0,-141.0,0
2296,17.0,-277.0,-137.0,0
2297,17.0,-293.0,-151.0,0
2298,0.0,-317.0,-126.0,0
2299,-7.0,-323.0,-124.0,0
2300,-7.0,-330.0,-126.0,0
2301,-10.0,-328.0,-125.0,0
2302,-9.0,-327.0,-129.0,0
2303,-8.0,-319.0,-140.0,0
2304,-7.0,-305.0,-147.0,0
2305,-5.0,-285.0,-155.0,0
2306,-6.0,-271.0,-158.0,0
2307,1.0,-245.0,-161.0,0
2308,4.0,-234.0,-168.0,0
2309,9.0,-218.0,-172.0,0
2310,14.0,-204.0,-173.0,0
2311,22.0,-194.0,-170.0,0
2312,24.0,-190.0,-162.0,0
2313,25.0,-188.0,-149.0,0
2314,23.0,-189.0,-148.0,0
2315,18.0,-192.0,-142.0,0
2316,18.0,-191.0,-135.0,0
2317,12.0,-192.0,-128.0,0
2318,4.0,-194.0,-125.0,0
2319,-1.0,-194.0,-112.0,0
2320,-10.0,-183.0,-115.0,0
2321,-15.0,-177.0,-109.0,0
2322,-18.0,-174.0,-109.0,0
2323,-26.0,-167.0,-112.0,0
2324,-34.0,-166.0,-105.0,0
2325,-39.0,-165.0,-104.0,0
2326,-42.0,-162.0,-105.0,0
2327,-37.0,-164.0,-106.0,0
2328,-23.0,-161.0,-116.0,0
2329,-13.0,-169.0,-114.0,0
2330,3.0,-173.0,-124.0,0
2331,-4.0,-178.0,-125.0,0
2332,2.0,-195.0,-127.0,0
2333,8.0,-208.0,-129.0,0
2334,10.0,-220.0,-130.0,0
2335,15.0,-234.0,-126.0,0
2336,13.0,-250.0,-132.0,0
2337,17.0,-258.0,-132.0,0
2338,13.0,-266.0,-135.0,0
2339,12.0,-273.0,-141.0,0
2340,3.0,-276.0,-143.0,0
2341,10.0,-286.0,-155.0,0
2342,0.0,-279.0,-153.0,0
2343,-4.0,-279.0,-155.0,0
2344,-7.0,-277.0,-158.0,0
2345,-6.0,-279.0,-161.0,0
2346,-10.0,-277.0,-167.0,0
2347,-11.0,-272.0,-163.0,0
2348,-13.0,-271.0,-158.0,0
2349,-15.0,-268.0,-158.0,0
2350,-15.0,-264.0,-155.0,0
2351,-17.0,-250.0,-152.0,0
2352,-17.0,-252.0,-144.0,0
2353,-19.0,-246.0,-141.0,0
2354,-19.0,-242.0,-139.0,0
2355,-17.0,-234.0,-133.0,0
2356,-21.0,-225.0,-127.0,0
2357,-21.0,-218.0,-120.0,0
2358,-25.0,-212.0,-114.0,0
2359,-21.0,-208.0,-102.0,0
2360,-27.0,-198.0,-102.0,0
2361,-33.0,-193.0,-91.0,0
2362,-28.0,-189.0,-88.0,0
2363,-28.0,-191.0,-84.0,0
2364,-25.0,-190.0,-77.0,0
2365,-26.0,-189.0,-76.0,0
2366,-29.0,-190.0,-79.0,0
2367,-30.0,-190.0,-77.0,0
2368,-29.0,-193.0,-81.0,0
2369,-25.0,-193.0,-83.0,0
2370,-26.0,-196.0,-82.0,0
2371,-25.0,-196.0,-82.0,0
2372,-30.0,-197.0,-89.0,0
2373,-28.0,-193.0,-96.0,0
2374,-27.0,-206.0,-92.0,0
2375,-29.0,-208.0,-95.0,0
2376,-34.0,-216.0,-94.0,0
2377,-32.0,-218.0,-97.0,0
2378,-37.0,-224.0,-102.0,0
2379,-36.0,-229.0,-103.0,0
2380,-40.0,-229.0,-107.0,0
2381,-37.0,-229.0,-109.0,0
2382,-39.0,-227.0,-112.0,0
2383,-41.0,-236.0,-114.0,0
2384,-44.0,-228.0,-118.0,0
2385,-38.0,-231.0,-111.0,0
2386,-36.0,-231.0,-113.0,0
2387,-35.0,-228.0,-111.0,0
2388,-32.0,-229.0,-108.0,0
2389,-31.0,-224.0,-106.0,0
2390,-28.0,-229.0,-100.0,0
2391,-28.0,-226.0,-99.0,0
2392,-20.0,-224.0,-98.0,0
2393,-17.0,-220.0,-92.0,0
2394,-18.0,-219.0,-91.0,0
2395,-23.0,-216.0,-91.0,0
2396,-16.0,-221.0,-84.0,0
2397,-17.0,-218.0,-80.0,0
2398,-16.0,-219.0,-77.0,0
2399,-16.0,-219.0,-79.0,0
