,accelerometer_x,accelerometer_y,accelerometer_z,fall
0,-12.0,-35.0,238.0,0
1,-14.0,-35.0,234.0,0
2,-12.0,-35.0,238.0,0
3,-13.0,-35.0,237.0,0
4,-14.0,-36.0,234.0,0
5,-12.0,-35.0,235.0,0
6,-19.0,-44.0,233.0,0
7,-21.0,-29.0,241.0,0
8,-17.0,-39.0,234.0,0
9,-17.0,-38.0,252.0,0
10,-15.0,-38.0,235.0,0
11,-15.0,-35.0,233.0,0
12,-16.0,-36.0,234.0,0
13,-15.0,-37.0,234.0,0
14,-15.0,-38.0,237.0,0
15,-15.0,-36.0,235.0,0
16,-14.0,-36.0,236.0,0
17,-13.0,-37.0,234.0,0
18,-12.0,-36.0,233.0,0
19,-20.0,-37.0,249.0,0
20,-9.0,-32.0,233.0,0
21,-19.0,-36.0,232.0,0
22,-20.0,-29.0,238.0,0
23,-18.0,-30.0,252.0,0
24,-24.0,-50.0,240.0,0
25,-13.0,-38.0,236.0,0
26,-12.0,-36.0,235.0,0
27,-14.0,-37.0,236.0,0
28,-15.0,-37.0,235.0,0
29,-13.0,-37.0,235.0,0
30,-14.0,-35.0,235.0,0
31,-13.0,-38.0,234.0,0
32,-12.0,-36.0,233.0,0
33,-12.0,-34.0,237.0,0
34,-12.0,-35.0,233.0,0
35,-12.0,-37.0,234.0,0
36,-12.0,-37.0,234.0,0
37,-15.0,-34.0,237.0,0
38,-16.0,-31.0,236.0,0
39,-14.0,-35.0,236.0,0
40,-16.0,-37.0,237.0,0
41,-14.0,-36.0,235.0,0
42,-12.0,-39.0,235.0,0
43,-14.0,-36.0,234.0,0
44,-12.0,-35.0,239.0,0
45,-12.0,-36.0,238.0,0
46,-13.0,-36.0,236.0,0
47,-16.0,-34.0,236.0,0
48,-13.0,-36.0,234.0,0
49,-14.0,-37.0,237.0,0
50,-13.0,-37.0,234.0,0
51,-13.0,-36.0,237.0,0
52,-15.0,-35.0,232.0,0
53,-19.0,-33.0,237.0,0
54,-12.0,-36.0,237.0,0
55,-11.0,-37.0,234.0,0
56,-13.0,-38.0,235.0,0
57,-15.0,-32.0,234.0,0
58,-13.0,-36.0,235.0,0
59,-13.0,-36.0,235.0,0
60,-14.0,-36.0,235.0,0
61,-14.0,-38.0,237.0,0
62,-12.0,-38.0,236.0,0
63,-13.0,-37.0,239.0,0
64,-14.0,-35.0,237.0,0
65,-17.0,-35.0,235.0,0
66,-16.0,-35.0,236.0,0
67,-12.0,-36.0,237.0,0
68,-12.0,-37.0,236.0,0
69,-12.0,-37.0,234.0,0
70,-14.0,-37.0,237.0,0
71,-12.0,-36.0,236.0,0
72,-14.0,-34.0,234.0,0
73,-13.0,-38.0,236.0,0
74,-16.0,-34.0,236.0,0
75,-14.0,-36.0,234.0,0
76,-13.0,-37.0,235.0,0
77,-13.0,-34.0,233.0,0
78,-16.0,-36.0,236.0,0
79,-12.0,-37.0,238.0,0
80,-12.0,-36.0,235.0,0
81,-18.0,-38.0,238.0,0
82,-15.0,-36.0,237.0,0
83,-12.0,-37.0,236.0,0
84,-15.0,-34.0,237.0,0
85,-14.0,-36.0,237.0,0
86,-12.0,-35.0,237.0,0
87,-12.0,-35.0,232.0,0
88,-15.0,-36.0,236.0,0
89,-13.0,-34.0,231.0,0
90,-13.0,-35.0,232.0,0
91,-17.0,-33.0,235.0,0
92,-14.0,-32.0,235.0,0
93,-15.0,-34.0,236.0,0
94,-18.0,-34.0,234.0,0
95,-14.0,-36.0,236.0,0
96,-14.0,-39.0,235.0,0
97,-12.0,-39.0,235.0,0
98,-15.0,-35.0,238.0,0
99,-17.0,-36.0,235.0,0
100,-15.0,-35.0,236.0,0
101,-13.0,-34.0,234.0,0
102,-12.0,-33.0,233.0,0
103,-14.0,-33.0,232.0,0
104,-14.0,-33.0,235.0,0
105,-13.0,-33.0,237.0,0
106,-13.0,-36.0,237.0,0
107,-13.0,-36.0,234.0,0
108,-12.0,-35.0,240.0,0
109,-17.0,-34.0,237.0,0
110,-17.0,-35.0,239.0,0
111,-14.0,-38.0,235.0,0
112,-14.0,-36.0,235.0,0
113,-16.0,-38.0,234.0,0
114,-12.0,-35.0,237.0,0
115,-13.0,-35.0,233.0,0
116,-14.0,-39.0,238.0,0
117,-15.0,-36.0,234.0,0
118,-14.0,-36.0,234.0,0
119,-16.0,-36.0,236.0,0
120,-12.0,-37.0,237.0,0
121,-15.0,-34.0,240.0,0
122,-11.0,-35.0,236.0,0
123,-14.0,-36.0,235.0,0
124,-14.0,-34.0,238.0,0
125,-14.0,-37.0,240.0,0
126,-12.0,-33.0,237.0,0
127,-14.0,-32.0,235.0,0
128,-17.0,-33.0,234.0,0
129,-17.0,-35.0,237.0,0
130,-14.0,-35.0,235.0,0
131,-16.0,-34.0,236.0,0
132,-12.0,-35.0,235.0,0
133,-12.0,-34.0,236.0,0
134,-13.0,-34.0,235.0,0
135,-12.0,-34.0,235.0,0
136,-12.0,-34.0,237.0,0
137,-12.0,-37.0,234.0,0
138,-14.0,-35.0,240.0,0
139,-12.0,-35.0,236.0,0
140,-14.0,-32.0,235.0,0
141,-14.0,-33.0,237.0,0
142,-15.0,-34.0,236.0,0
143,-12.0,-35.0,235.0,0
144,-12.0,-35.0,233.0,0
145,-12.0,-37.0,238.0,0
146,-12.0,-34.0,236.0,0
147,-13.0,-34.0,238.0,0
148,-13.0,-36.0,238.0,0
149,-12.0,-37.0,238.0,0
150,-12.0,-34.0,235.0,0
151,-14.0,-34.0,233.0,0
152,-12.0,-33.0,235.0,0
153,-12.0,-34.0,235.0,0
154,-11.0,-35.0,238.0,0
155,-14.0,-33.0,236.0,0
156,-11.0,-33.0,236.0,0
157,-14.0,-35.0,237.0,0
158,-13.0,-34.0,233.0,0
159,-12.0,-34.0,232.0,0
160,-14.0,-35.0,240.0,0
161,-15.0,-33.0,237.0,0
162,-13.0,-34.0,237.0,0
163,-13.0,-34.0,236.0,0
164,-12.0,-32.0,237.0,0
165,-15.0,-34.0,238.0,0
166,-15.0,-34.0,236.0,0
167,-15.0,-35.0,234.0,0
168,-14.0,-34.0,235.0,0
169,-13.0,-35.0,238.0,0
170,-12.0,-35.0,236.0,0
171,-14.0,-33.0,236.0,0
172,-16.0,-34.0,236.0,0
173,-15.0,-34.0,238.0,0
174,-13.0,-35.0,236.0,0
175,-13.0,-37.0,233.0,0
176,-12.0,-34.0,236.0,0
177,-13.0,-32.0,236.0,0
178,-13.0,-31.0,235.0,0
179,-12.0,-35.0,237.0,0
180,-10.0,-31.0,240.0,0
181,-14.0,-33.0,231.0,0
182,-13.0,-32.0,235.0,0
183,-16.0,-34.0,237.0,0
184,-13.0,-33.0,234.0,0
185,-14.0,-35.0,234.0,0
186,-13.0,-34.0,236.0,0
187,-12.0,-34.0,237.0,0
188,-13.0,-33.0,235.0,0
189,-15.0,-33.0,235.0,0
190,-16.0,-30.0,234.0,0
191,-16.0,-34.0,235.0,0
192,-15.0,-33.0,235.0,0
193,-12.0,-32.0,238.0,0
194,-13.0,-33.0,236.0,0
195,-14.0,-31.0,235.0,0
196,-17.0,-31.0,239.0,0
197,-12.0,-34.0,236.0,0
198,-12.0,-29.0,236.0,0
199,-12.0,-33.0,236.0,0
200,-12.0,-32.0,236.0,0
201,-12.0,-32.0,234.0,0
202,-12.0,-34.0,235.0,0
203,-15.0,-32.0,234.0,0
204,-12.0,-33.0,238.0,0
205,-12.0,-33.0,236.0,0
206,-13.0,-34.0,239.0,0
207,-13.0,-30.0,238.0,0
208,-12.0,-32.0,234.0,0
209,-12.0,-36.0,234.0,0
210,-14.0,-34.0,238.0,0
211,-11.0,-34.0,237.0,0
212,-12.0,-32.0,234.0,0
213,-12.0,-32.0,234.0,0
214,-14.0,-32.0,235.0,0
215,-15.0,-35.0,233.0,0
216,-12.0,-32.0,235.0,0
217,-12.0,-34.0,234.0,0
218,-12.0,-36.0,235.0,0
219,-12.0,-32.0,237.0,0
220,-13.0,-33.0,234.0,0
221,-12.0,-35.0,232.0,0
222,-13.0,-33.0,240.0,0
223,-12.0,-33.0,235.0,0
224,-12.0,-32.0,236.0,0
225,-13.0,-31.0,239.0,0
226,-12.0,-35.0,239.0,0
227,-14.0,-32.0,238.0,0
228,-18.0,-30.0,237.0,0
229,-12.0,-32.0,243.0,0
230,-14.0,-35.0,234.0,0
231,-13.0,-33.0,235.0,0
232,-16.0,-31.0,233.0,0
233,-12.0,-32.0,234.0,0
234,-12.0,-32.0,235.0,0
235,-12.0,-35.0,232.0,0
236,-14.0,-34.0,231.0,0
237,-13.0,-34.0,236.0,0
238,-15.0,-33.0,236.0,0
239,-13.0,-33.0,233.0,0
240,-13.0,-37.0,237.0,0
241,-14.0,-36.0,231.0,0
242,-15.0,-35.0,235.0,0
243,-14.0,-34.0,241.0,0
244,-12.0,-35.0,235.0,0
245,-13.0,-32.0,238.0,0
246,-13.0,-34.0,236.0,0
247,-12.0,-35.0,236.0,0
248,-12.0,-29.0,237.0,0
249,-12.0,-30.0,237.0,0
250,-12.0,-31.0,238.0,0
251,-12.0,-28.0,236.0,0
252,-13.0,-32.0,239.0,0
253,-14.0,-28.0,236.0,0
254,-12.0,-34.0,236.0,0
255,-12.0,-33.0,233.0,0
256,-13.0,-28.0,239.0,0
257,-15.0,-33.0,237.0,0
258,-15.0,-34.0,235.0,0
259,-14.0,-33.0,236.0,0
260,-12.0,-36.0,236.0,0
261,-14.0,-37.0,237.0,0
262,-15.0,-34.0,238.0,0
263,-14.0,-33.0,235.0,0
264,-12.0,-32.0,235.0,0
265,-12.0,-36.0,241.0,0
266,-11.0,-36.0,237.0,0
267,-12.0,-33.0,238.0,0
268,-12.0,-35.0,233.0,0
269,-14.0,-32.0,237.0,0
270,-12.0,-32.0,235.0,0
271,-16.0,-34.0,238.0,0
272,-13.0,-33.0,235.0,0
273,-14.0,-30.0,239.0,0
274,-16.0,-33.0,234.0,0
275,-12.0,-31.0,236.0,0
276,-15.0,-30.0,235.0,0
277,-13.0,-35.0,239.0,0
278,-12.0,-34.0,236.0,0
279,-12.0,-33.0,234.0,0
280,-14.0,-33.0,235.0,0
281,-12.0,-34.0,238.0,0
282,-12.0,-35.0,239.0,0
283,-14.0,-33.0,235.0,0
284,-12.0,-33.0,235.0,0
285,-12.0,-32.0,233.0,0
286,-10.0,-31.0,233.0,0
287,-12.0,-32.0,237.0,0
288,-12.0,-32.0,236.0,0
289,-11.0,-33.0,234.0,0
290,-12.0,-31.0,235.0,0
291,-12.0,-33.0,236.0,0
292,-16.0,-32.0,232.0,0
293,-12.0,-34.0,238.0,0
294,-12.0,-32.0,236.0,0
295,-12.0,-32.0,235.0,0
296,-13.0,-34.0,237.0,0
297,-15.0,-31.0,239.0,0
298,-12.0,-34.0,232.0,0
299,-17.0,-33.0,239.0,0
300,-12.0,-35.0,239.0,0
301,-14.0,-35.0,236.0,0
302,-13.0,-34.0,239.0,0
303,-13.0,-33.0,234.0,0
304,-14.0,-35.0,236.0,0
305,-12.0,-34.0,239.0,0
306,-12.0,-33.0,236.0,0
307,-12.0,-33.0,235.0,0
308,-12.0,-34.0,235.0,0
309,-11.0,-33.0,234.0,0
310,-13.0,-31.0,239.0,0
311,-15.0,-34.0,238.0,0
312,-15.0,-30.0,233.0,0
313,-16.0,-33.0,236.0,0
314,-12.0,-33.0,236.0,0
315,-12.0,-35.0,237.0,0
316,-12.0,-35.0,232.0,0
317,-12.0,-34.0,238.0,0
318,-12.0,-34.0,236.0,0
319,-15.0,-33.0,232.0,0
320,-12.0,-36.0,236.0,0
321,-12.0,-34.0,235.0,0
322,-12.0,-33.0,235.0,0
323,-15.0,-37.0,237.0,0
324,-13.0,-32.0,234.0,0
325,-13.0,-35.0,234.0,0
326,-13.0,-34.0,237.0,0
327,-12.0,-35.0,236.0,0
328,-13.0,-34.0,235.0,0
329,-12.0,-33.0,235.0,0
330,-16.0,-31.0,239.0,0
331,-12.0,-36.0,236.0,0
332,-12.0,-35.0,235.0,0
333,-13.0,-33.0,239.0,0
334,-13.0,-31.0,239.0,0
335,-12.0,-34.0,238.0,0
336,-13.0,-32.0,237.0,0
337,-12.0,-33.0,236.0,0
338,-13.0,-33.0,235.0,0
339,-14.0,-34.0,235.0,0
340,-13.0,-35.0,233.0,0
341,-14.0,-32.0,236.0,0
342,-12.0,-37.0,238.0,0
343,-14.0,-33.0,233.0,0
344,-11.0,-37.0,236.0,0
345,-15.0,-35.0,234.0,0
346,-15.0,-35.0,234.0,0
347,-13.0,-34.0,236.0,0
348,-12.0,-37.0,235.0,0
349,-14.0,-35.0,241.0,0
350,-12.0,-33.0,233.0,0
351,-13.0,-38.0,236.0,0
352,-13.0,-35.0,234.0,0
353,-15.0,-34.0,237.0,0
354,-12.0,-35.0,235.0,0
355,-12.0,-32.0,238.0,0
356,-12.0,-32.0,237.0,0
357,-12.0,-32.0,232.0,0
358,-13.0,-33.0,236.0,0
359,-11.0,-31.0,234.0,0
360,-12.0,-36.0,236.0,0
361,-12.0,-34.0,238.0,0
362,-12.0,-34.0,238.0,0
363,-13.0,-34.0,235.0,0
364,-14.0,-35.0,236.0,0
365,-14.0,-33.0,235.0,0
366,-12.0,-33.0,237.0,0
367,-15.0,-32.0,234.0,0
368,-13.0,-34.0,235.0,0
369,-12.0,-36.0,236.0,0
370,-15.0,-36.0,234.0,0
371,-12.0,-34.0,233.0,0
372,-15.0,-33.0,233.0,0
373,-12.0,-34.0,238.0,0
374,-12.0,-31.0,238.0,0
375,-12.0,-33.0,234.0,0
376,-14.0,-32.0,237.0,0
377,-11.0,-33.0,238.0,0
378,-14.0,-34.0,237.0,0
379,-17.0,-32.0,235.0,0
380,-15.0,-34.0,238.0,0
381,-14.0,-34.0,234.0,0
382,-14.0,-35.0,234.0,0
383,-12.0,-36.0,238.0,0
384,-12.0,-38.0,235.0,0
385,-14.0,-34.0,238.0,0
386,-15.0,-35.0,233.0,0
387,-12.0,-32.0,237.0,0
388,-12.0,-35.0,235.0,0
389,-14.0,-35.0,232.0,0
390,-17.0,-34.0,235.0,0
391,-18.0,-32.0,233.0,0
392,-16.0,-35.0,235.0,0
393,-15.0,-35.0,238.0,0
394,-16.0,-33.0,237.0,0
395,-14.0,-36.0,235.0,0
396,-15.0,-37.0,233.0,0
397,-16.0,-35.0,236.0,0
398,-12.0,-40.0,236.0,0
399,-13.0,-38.0,239.0,0
400,-15.0,-34.0,235.0,0
401,-12.0,-38.0,235.0,0
402,-12.0,-37.0,238.0,0
403,-15.0,-37.0,235.0,0
404,-15.0,-34.0,241.0,0
405,-15.0,-35.0,233.0,0
406,-12.0,-32.0,233.0,0
407,-13.0,-33.0,237.0,0
408,-15.0,-34.0,236.0,0
409,-14.0,-35.0,234.0,0
410,-15.0,-35.0,237.0,0
411,-16.0,-33.0,234.0,0
412,-12.0,-36.0,236.0,0
413,-15.0,-37.0,237.0,0
414,-15.0,-36.0,236.0,0
415,-12.0,-36.0,237.0,0
416,-14.0,-35.0,232.0,0
417,-12.0,-37.0,236.0,0
418,-14.0,-38.0,233.0,0
419,-14.0,-37.0,231.0,0
420,-12.0,-38.0,234.0,0
421,-13.0,-37.0,237.0,0
422,-14.0,-37.0,237.0,0
423,-12.0,-36.0,236.0,0
424,-15.0,-37.0,236.0,0
425,-13.0,-37.0,235.0,0
426,-14.0,-35.0,236.0,0
427,-17.0,-36.0,237.0,0
428,-16.0,-35.0,240.0,0
429,-14.0,-34.0,242.0,0
430,-14.0,-35.0,236.0,0
431,-13.0,-37.0,236.0,0
432,-14.0,-34.0,235.0,0
433,-15.0,-34.0,237.0,0
434,-12.0,-36.0,237.0,0
435,-14.0,-32.0,237.0,0
436,-13.0,-36.0,241.0,0
437,-17.0,-33.0,236.0,0
438,-13.0,-36.0,238.0,0
439,-13.0,-34.0,235.0,0
440,-13.0,-34.0,233.0,0
441,-12.0,-35.0,238.0,0
442,-13.0,-33.0,238.0,0
443,-13.0,-35.0,236.0,0
444,-12.0,-33.0,231.0,0
445,-12.0,-35.0,234.0,0
446,-14.0,-35.0,232.0,0
447,-15.0,-32.0,235.0,0
448,-12.0,-36.0,231.0,0
449,-15.0,-34.0,236.0,0
450,-16.0,-36.0,236.0,0
451,-12.0,-36.0,236.0,0
452,-14.0,-35.0,234.0,0
453,-17.0,-34.0,235.0,0
454,-15.0,-37.0,238.0,0
455,-15.0,-36.0,235.0,0
456,-15.0,-35.0,233.0,0
457,-14.0,-33.0,234.0,0
458,-13.0,-34.0,232.0,0
459,-12.0,-35.0,235.0,0
460,-14.0,-35.0,237.0,0
461,-14.0,-35.0,235.0,0
462,-14.0,-32.0,238.0,0
463,-12.0,-35.0,234.0,0
464,-12.0,-34.0,236.0,0
465,-14.0,-33.0,234.0,0
466,-14.0,-34.0,239.0,0
467,-13.0,-33.0,237.0,0
468,-12.0,-34.0,236.0,0
469,-12.0,-35.0,236.0,0
470,-12.0,-35.0,236.0,0
471,-14.0,-36.0,236.0,0
472,-16.0,-34.0,238.0,0
473,-14.0,-38.0,235.0,0
474,-12.0,-33.0,237.0,0
475,-15.0,-33.0,233.0,0
476,-13.0,-34.0,235.0,0
477,-14.0,-34.0,238.0,0
478,-17.0,-32.0,237.0,0
479,-16.0,-36.0,236.0,0
480,-12.0,-34.0,235.0,0
481,-17.0,-36.0,237.0,0
482,-17.0,-35.0,235.0,0
483,-15.0,-34.0,239.0,0
484,-14.0,-35.0,238.0,0
485,-16.0,-33.0,238.0,0
486,-16.0,-32.0,237.0,0
487,-16.0,-31.0,235.0,0
488,-15.0,-33.0,238.0,0
489,-15.0,-34.0,236.0,0
490,-13.0,-32.0,235.0,0
491,-13.0,-32.0,239.0,0
492,-13.0,-33.0,235.0,0
493,-16.0,-32.0,240.0,0
494,-12.0,-35.0,238.0,0
495,-11.0,-33.0,235.0,0
496,-14.0,-33.0,238.0,0
497,-13.0,-35.0,240.0,0
498,-12.0,-32.0,240.0,0
499,-17.0,-33.0,233.0,0
500,-13.0,-36.0,233.0,0
501,-13.0,-31.0,234.0,0
502,-12.0,-36.0,235.0,0
503,-12.0,-34.0,237.0,0
504,-13.0,-37.0,236.0,0
505,-14.0,-34.0,235.0,0
506,-14.0,-32.0,235.0,0
507,-15.0,-31.0,232.0,0
508,-16.0,-37.0,234.0,0
509,-12.0,-33.0,236.0,0
510,-15.0,-33.0,237.0,0
511,-12.0,-36.0,235.0,0
512,-12.0,-34.0,234.0,0
513,-12.0,-33.0,238.0,0
514,-12.0,-36.0,238.0,0
515,-13.0,-33.0,238.0,0
516,-12.0,-34.0,237.0,0
517,-12.0,-36.0,237.0,0
518,-16.0,-34.0,238.0,0
519,-12.0,-37.0,235.0,0
520,-13.0,-34.0,237.0,0
521,-14.0,-34.0,241.0,0
522,-12.0,-34.0,236.0,0
523,-14.0,-34.0,234.0,0
524,-12.0,-31.0,231.0,0
525,-12.0,-35.0,236.0,0
526,-13.0,-35.0,238.0,0
527,-13.0,-35.0,236.0,0
528,-13.0,-37.0,233.0,0
529,-12.0,-36.0,235.0,0
530,-19.0,-35.0,234.0,0
531,-14.0,-34.0,234.0,0
532,-17.0,-35.0,237.0,0
533,-15.0,-36.0,236.0,0
534,-20.0,-35.0,236.0,0
535,-16.0,-34.0,234.0,0
536,-14.0,-36.0,236.0,0
537,-17.0,-36.0,237.0,0
538,-14.0,-33.0,235.0,0
539,-14.0,-34.0,234.0,0
540,-15.0,-32.0,233.0,0
541,-15.0,-31.0,234.0,0
542,-15.0,-33.0,238.0,0
543,-12.0,-34.0,234.0,0
544,-12.0,-31.0,239.0,0
545,-13.0,-33.0,234.0,0
546,-15.0,-32.0,239.0,0
547,-18.0,-35.0,238.0,0
548,-16.0,-33.0,233.0,0
549,-19.0,-34.0,239.0,0
550,-19.0,-37.0,238.0,0
551,-16.0,-36.0,237.0,0
552,-17.0,-38.0,233.0,0
553,-17.0,-36.0,238.0,0
554,-16.0,-35.0,233.0,0
555,-20.0,-36.0,234.0,0
556,-14.0,-33.0,232.0,0
557,-15.0,-35.0,237.0,0
558,-16.0,-34.0,234.0,0
559,-12.0,-36.0,236.0,0
560,-17.0,-34.0,240.0,0
561,-12.0,-34.0,235.0,0
562,-15.0,-34.0,235.0,0
563,-18.0,-31.0,240.0,0
564,-15.0,-32.0,238.0,0
565,-14.0,-36.0,237.0,0
566,-19.0,-32.0,236.0,0
567,-13.0,-33.0,238.0,0
568,-13.0,-34.0,240.0,0
569,-12.0,-32.0,235.0,0
570,-15.0,-37.0,240.0,0
571,-14.0,-34.0,238.0,0
572,-14.0,-34.0,237.0,0
573,-12.0,-33.0,238.0,0
574,-14.0,-32.0,241.0,0
575,-14.0,-36.0,245.0,0
576,-18.0,-35.0,248.0,0
577,-13.0,-36.0,243.0,0
578,-14.0,-34.0,248.0,0
579,-17.0,-34.0,248.0,0
580,-15.0,-34.0,246.0,0
581,-19.0,-31.0,244.0,0
582,-17.0,-32.0,241.0,0
583,-19.0,-28.0,243.0,0
584,-19.0,-32.0,237.0,0
585,-20.0,-30.0,234.0,0
586,-18.0,-32.0,233.0,0
587,-18.0,-33.0,233.0,0
588,-16.0,-33.0,230.0,0
589,-22.0,-36.0,234.0,0
590,-21.0,-39.0,229.0,0
591,-22.0,-39.0,234.0,0
592,-24.0,-41.0,234.0,0
593,-24.0,-44.0,237.0,0
594,-24.0,-44.0,236.0,0
595,-26.0,-46.0,237.0,0
596,-26.0,-47.0,235.0,0
597,-28.0,-47.0,240.0,0
598,-28.0,-39.0,238.0,0
599,-34.0,-38.0,238.0,0
600,-34.0,-35.0,239.0,0
601,-31.0,-34.0,238.0,0
602,-29.0,-31.0,230.0,0
603,-28.0,-27.0,234.0,0
604,-22.0,-27.0,232.0,0
605,-22.0,-30.0,229.0,0
606,-20.0,-30.0,227.0,0
607,-16.0,-30.0,221.0,0
608,-12.0,-33.0,219.0,0
609,-12.0,-37.0,226.0,0
610,-12.0,-38.0,218.0,0
611,-10.0,-42.0,227.0,0
612,-8.0,-44.0,225.0,0
613,-11.0,-47.0,231.0,0
614,-9.0,-51.0,230.0,0
615,-9.0,-55.0,231.0,0
616,-10.0,-54.0,230.0,0
617,-11.0,-51.0,236.0,0
618,-11.0,-49.0,231.0,0
619,-10.0,-49.0,230.0,0
620,-7.0,-50.0,233.0,0
621,-9.0,-45.0,230.0,0
622,-8.0,-44.0,229.0,0
623,-4.0,-42.0,226.0,0
624,-2.0,-43.0,224.0,0
625,3.0,-39.0,224.0,0
626,7.0,-42.0,226.0,0
627,10.0,-38.0,226.0,0
628,12.0,-39.0,224.0,0
629,14.0,-42.0,226.0,0
630,18.0,-42.0,226.0,0
631,20.0,-43.0,226.0,0
632,28.0,-44.0,227.0,0
633,25.0,-44.0,225.0,0
634,26.0,-45.0,230.0,0
635,24.0,-48.0,231.0,0
636,25.0,-52.0,235.0,0
637,23.0,-51.0,236.0,0
638,24.0,-54.0,229.0,0
639,19.0,-54.0,231.0,0
640,17.0,-56.0,232.0,0
641,15.0,-56.0,230.0,0
642,11.0,-59.0,237.0,0
643,14.0,-60.0,233.0,0
644,7.0,-63.0,234.0,0
645,6.0,-58.0,237.0,0
646,3.0,-62.0,235.0,0
647,-2.0,-73.0,228.0,0
648,-3.0,-54.0,233.0,0
649,12.0,-59.0,228.0,0
650,-7.0,-54.0,237.0,0
651,-4.0,-64.0,239.0,0
652,-7.0,-53.0,224.0,0
653,-11.0,-57.0,239.0,0
654,-11.0,-55.0,229.0,0
655,-12.0,-54.0,233.0,0
656,-12.0,-53.0,229.0,0
657,-13.0,-53.0,231.0,0
658,-14.0,-50.0,234.0,0
659,-16.0,-49.0,235.0,0
660,-16.0,-50.0,233.0,0
661,-19.0,-48.0,234.0,0
662,-21.0,-50.0,237.0,0
663,-19.0,-49.0,236.0,0
664,-23.0,-51.0,241.0,0
665,-25.0,-52.0,243.0,0
666,-27.0,-51.0,245.0,0
667,-27.0,-51.0,241.0,0
668,-24.0,-51.0,240.0,0
669,-30.0,-51.0,236.0,0
670,-31.0,-46.0,242.0,0
671,-31.0,-46.0,237.0,0
672,-32.0,-46.0,236.0,0
673,-38.0,-48.0,237.0,0
674,-35.0,-46.0,234.0,0
675,-40.0,-44.0,235.0,0
676,-36.0,-46.0,230.0,0
677,-38.0,-43.0,230.0,0
678,-38.0,-46.0,229.0,0
679,-38.0,-43.0,227.0,0
680,-37.0,-46.0,226.0,0
681,-34.0,-47.0,231.0,0
682,-32.0,-46.0,229.0,0
683,-30.0,-50.0,226.0,0
684,-30.0,-45.0,228.0,0
685,-32.0,-49.0,232.0,0
686,-31.0,-48.0,228.0,0
687,-30.0,-50.0,229.0,0
688,-33.0,-51.0,228.0,0
689,-34.0,-50.0,231.0,0
690,-30.0,-50.0,229.0,0
691,-32.0,-49.0,227.0,0
692,-31.0,-52.0,227.0,0
693,-32.0,-50.0,226.0,0
694,-33.0,-48.0,227.0,0
695,-28.0,-53.0,226.0,0
696,-33.0,-50.0,217.0,0
697,-30.0,-54.0,216.0,0
698,-26.0,-52.0,217.0,0
699,-28.0,-54.0,219.0,0
700,-27.0,-56.0,216.0,0
701,-23.0,-58.0,214.0,0
702,-22.0,-58.0,221.0,0
703,-24.0,-57.0,218.0,0
704,-27.0,-60.0,220.0,0
705,-27.0,-67.0,228.0,0
706,-31.0,-68.0,236.0,0
707,-37.0,-69.0,242.0,0
708,-41.0,-69.0,250.0,0
709,-49.0,-71.0,257.0,0
710,-59.0,-72.0,263.0,0
711,-63.0,-69.0,267.0,0
712,-70.0,-71.0,268.0,0
713,-77.0,-70.0,271.0,0
714,-82.0,-63.0,268.0,0
715,-86.0,-54.0,266.0,0
716,-90.0,-48.0,262.0,0
717,-92.0,-42.0,255.0,0
718,-89.0,-34.0,250.0,0
719,-87.0,-27.0,240.0,0
720,-81.0,-20.0,236.0,0
721,-76.0,-17.0,229.0,0
722,-67.0,-8.0,225.0,0
723,-59.0,-13.0,228.0,0
724,-53.0,-11.0,217.0,0
725,-45.0,-12.0,218.0,0
726,-41.0,-21.0,217.0,0
727,-38.0,-24.0,220.0,0
728,-39.0,-35.0,221.0,0
729,-35.0,-44.0,224.0,0
730,-36.0,-54.0,227.0,0
731,-43.0,-64.0,234.0,0
732,-44.0,-71.0,231.0,0
733,-46.0,-76.0,233.0,0
734,-50.0,-83.0,237.0,0
735,-54.0,-88.0,232.0,0
736,-51.0,-95.0,231.0,0
737,-49.0,-97.0,225.0,0
738,-48.0,-98.0,221.0,0
739,-46.0,-92.0,215.0,0
740,-38.0,-87.0,213.0,0
741,-29.0,-85.0,209.0,0
742,-23.0,-80.0,209.0,0
743,-19.0,-70.0,211.0,0
744,-18.0,-65.0,216.0,0
745,-17.0,-58.0,224.0,0
746,-18.0,-53.0,232.0,0
747,-21.0,-47.0,237.0,0
748,-22.0,-48.0,247.0,0
749,-27.0,-45.0,252.0,0
750,-27.0,-46.0,255.0,0
751,-25.0,-48.0,266.0,0
752,-24.0,-55.0,270.0,0
753,-24.0,-61.0,266.0,0
754,-27.0,-67.0,271.0,0
755,-31.0,-73.0,266.0,0
756,-40.0,-76.0,261.0,0
757,-39.0,-81.0,259.0,0
758,-43.0,-85.0,255.0,0
759,-45.0,-87.0,248.0,0
760,-48.0,-86.0,243.0,0
761,-48.0,-88.0,233.0,0
762,-51.0,-87.0,230.0,0
763,-52.0,-83.0,230.0,0
764,-57.0,-79.0,222.0,0
765,-58.0,-74.0,222.0,0
766,-57.0,-72.0,215.0,0
767,-60.0,-67.0,212.0,0
768,-63.0,-63.0,214.0,0
769,-63.0,-60.0,216.0,0
770,-63.0,-58.0,220.0,0
771,-66.0,-52.0,215.0,0
772,-69.0,-53.0,214.0,0
773,-69.0,-50.0,211.0,0
774,-69.0,-50.0,213.0,0
775,-72.0,-47.0,203.0,0
776,-73.0,-45.0,205.0,0
777,-72.0,-48.0,202.0,0
778,-75.0,-43.0,198.0,0
779,-72.0,-45.0,190.0,0
780,-74.0,-47.0,183.0,0
781,-72.0,-49.0,183.0,0
782,-74.0,-52.0,178.0,0
783,-75.0,-52.0,177.0,0
784,-74.0,-50.0,178.0,0
785,-77.0,-52.0,176.0,0
786,-79.0,-53.0,172.0,0
787,-80.0,-54.0,178.0,0
788,-83.0,-56.0,170.0,0
789,-85.0,-53.0,172.0,0
790,-84.0,-54.0,168.0,0
791,-89.0,-52.0,162.0,0
792,-90.0,-53.0,159.0,0
793,-89.0,-51.0,159.0,0
794,-89.0,-50.0,151.0,0
795,-92.0,-42.0,155.0,0
796,-95.0,-41.0,150.0,0
797,-94.0,-39.0,153.0,0
798,-93.0,-35.0,151.0,0
799,-94.0,-33.0,148.0,0
800,-100.0,-28.0,149.0,0
801,-101.0,-23.0,148.0,0
802,-104.0,-23.0,152.0,0
803,-108.0,-22.0,158.0,0
804,-111.0,-24.0,158.0,0
805,-112.0,-27.0,166.0,0
806,-113.0,-32.0,167.0,0
807,-104.0,-44.0,181.0,0
808,-100.0,-54.0,188.0,0
809,-105.0,-60.0,194.0,0
810,-112.0,-68.0,203.0,0
811,-122.0,-72.0,216.0,0
812,-121.0,-81.0,208.0,0
813,-127.0,-89.0,242.0,0
814,-135.0,-94.0,255.0,0
815,-138.0,-101.0,265.0,0
816,-141.0,-107.0,271.0,0
817,-147.0,-109.0,278.0,0
818,-150.0,-114.0,280.0,0
819,-155.0,-114.0,274.0,0
820,-165.0,-111.0,270.0,0
821,-170.0,-106.0,265.0,0
822,-174.0,-103.0,265.0,0
823,-176.0,-96.0,258.0,0
824,-173.0,-87.0,255.0,0
825,-171.0,-81.0,251.0,0
826,-164.0,-75.0,244.0,0
827,-158.0,-70.0,236.0,0
828,-156.0,-67.0,228.0,0
829,-153.0,-58.0,221.0,0
830,-148.0,-53.0,208.0,0
831,-155.0,-48.0,205.0,0
832,-157.0,-46.0,202.0,0
833,-159.0,-47.0,199.0,0
834,-161.0,-48.0,198.0,0
835,-163.0,-49.0,195.0,0
836,-163.0,-51.0,198.0,0
837,-176.0,-55.0,196.0,0
838,-179.0,-57.0,197.0,0
839,-182.0,-59.0,190.0,0
840,-186.0,-61.0,185.0,0
841,-192.0,-55.0,177.0,0
842,-193.0,-57.0,175.0,0
843,-195.0,-55.0,171.0,0
844,-202.0,-52.0,170.0,0
845,-212.0,-47.0,161.0,0
846,-217.0,-45.0,154.0,0
847,-220.0,-38.0,139.0,0
848,-217.0,-32.0,125.0,0
849,-211.0,-19.0,118.0,0
850,-208.0,-13.0,105.0,0
851,-196.0,-2.0,100.0,0
852,-181.0,5.0,96.0,0
853,-162.0,13.0,101.0,0
854,-147.0,18.0,110.0,0
855,-133.0,16.0,120.0,0
856,-128.0,18.0,137.0,0
857,-133.0,13.0,152.0,0
858,-136.0,2.0,164.0,0
859,-138.0,-3.0,181.0,0
860,-133.0,-11.0,193.0,0
861,-130.0,-13.0,202.0,0
862,-125.0,-17.0,208.0,0
863,-129.0,-20.0,210.0,0
864,-135.0,-18.0,203.0,0
865,-137.0,-18.0,204.0,0
866,-141.0,-25.0,196.0,0
867,-149.0,-26.0,191.0,0
868,-158.0,-27.0,182.0,0
869,-165.0,-32.0,179.0,0
870,-171.0,-36.0,165.0,0
871,-178.0,-42.0,162.0,0
872,-183.0,-49.0,160.0,0
873,-189.0,-55.0,156.0,0
874,-198.0,-63.0,156.0,0
875,-200.0,-68.0,151.0,0
876,-201.0,-75.0,152.0,0
877,-207.0,-80.0,153.0,0
878,-204.0,-90.0,154.0,0
879,-205.0,-97.0,157.0,0
880,-200.0,-102.0,159.0,0
881,-200.0,-101.0,160.0,0
882,-195.0,-99.0,162.0,0
883,-194.0,-97.0,163.0,0
884,-188.0,-91.0,169.0,0
885,-185.0,-84.0,160.0,0
886,-186.0,-74.0,160.0,0
887,-176.0,-66.0,160.0,0
888,-173.0,-58.0,161.0,0
889,-169.0,-52.0,159.0,0
890,-170.0,-39.0,160.0,0
891,-172.0,-30.0,162.0,0
892,-168.0,-22.0,161.0,0
893,-166.0,-19.0,162.0,0
894,-166.0,-12.0,164.0,0
895,-167.0,-8.0,166.0,0
896,-165.0,-7.0,167.0,0
897,-168.0,-11.0,171.0,0
898,-166.0,-17.0,177.0,0
899,-165.0,-20.0,179.0,0
900,-160.0,-24.0,179.0,0
901,-160.0,-30.0,179.0,0
902,-159.0,-36.0,185.0,0
903,-158.0,-41.0,178.0,0
904,-154.0,-44.0,183.0,0
905,-155.0,-48.0,183.0,0
906,-151.0,-51.0,184.0,0
907,-146.0,-55.0,184.0,0
908,-146.0,-58.0,176.0,0
909,-141.0,-62.0,176.0,0
910,-142.0,-63.0,175.0,0
911,-140.0,-65.0,176.0,0
912,-140.0,-68.0,173.0,0
913,-140.0,-68.0,173.0,0
914,-140.0,-70.0,167.0,0
915,-140.0,-74.0,167.0,0
916,-143.0,-78.0,165.0,0
917,-145.0,-78.0,162.0,0
918,-146.0,-83.0,162.0,0
919,-151.0,-86.0,162.0,0
920,-158.0,-87.0,156.0,0
921,-157.0,-93.0,156.0,0
922,-162.0,-97.0,153.0,0
923,-177.0,-90.0,157.0,0
924,-181.0,-91.0,159.0,0
925,-183.0,-87.0,160.0,0
926,-181.0,-81.0,154.0,0
927,-181.0,-77.0,151.0,0
928,-183.0,-74.0,148.0,0
929,-185.0,-69.0,150.0,0
930,-184.0,-65.0,147.0,0
931,-184.0,-59.0,141.0,0
932,-183.0,-59.0,139.0,0
933,-180.0,-53.0,137.0,0
934,-182.0,-55.0,139.0,0
935,-180.0,-53.0,136.0,0
936,-185.0,-52.0,140.0,0
937,-184.0,-57.0,138.0,0
938,-186.0,-56.0,142.0,0
939,-188.0,-58.0,141.0,0
940,-184.0,-64.0,142.0,0
941,-189.0,-61.0,142.0,0
942,-188.0,-60.0,141.0,0
943,-192.0,-58.0,142.0,0
944,-189.0,-57.0,139.0,0
945,-190.0,-51.0,137.0,0
946,-195.0,-47.0,135.0,0
947,-200.0,-43.0,135.0,0
948,-201.0,-37.0,135.0,0
949,-202.0,-37.0,129.0,0
950,-202.0,-35.0,127.0,0
951,-203.0,-30.0,128.0,0
952,-208.0,-31.0,129.0,0
953,-208.0,-31.0,120.0,0
954,-210.0,-31.0,124.0,0
955,-209.0,-32.0,123.0,0
956,-212.0,-30.0,124.0,0
957,-213.0,-32.0,120.0,0
958,-216.0,-32.0,122.0,0
959,-217.0,-35.0,121.0,0
960,-220.0,-32.0,122.0,0
961,-222.0,-33.0,114.0,0
962,-227.0,-33.0,119.0,0
963,-226.0,-34.0,115.0,0
964,-228.0,-34.0,113.0,0
965,-231.0,-32.0,117.0,0
966,-236.0,-34.0,117.0,0
967,-242.0,-31.0,114.0,0
968,-241.0,-28.0,109.0,0
969,-246.0,-25.0,108.0,0
970,-244.0,-25.0,103.0,0
971,-246.0,-24.0,99.0,0
972,-248.0,-22.0,99.0,0
973,-249.0,-21.0,98.0,0
974,-252.0,-22.0,92.0,0
975,-247.0,-24.0,88.0,0
976,-245.0,-25.0,88.0,0
977,-243.0,-26.0,89.0,0
978,-247.0,-24.0,87.0,0
979,-248.0,-28.0,88.0,0
980,-243.0,-30.0,91.0,0
981,-242.0,-28.0,87.0,0
982,-245.0,-30.0,89.0,0
983,-242.0,-30.0,92.0,0
984,-244.0,-27.0,90.0,0
985,-241.0,-27.0,84.0,0
986,-239.0,-29.0,85.0,0
987,-235.0,-27.0,80.0,0
988,-229.0,-30.0,80.0,0
989,-230.0,-32.0,77.0,0
990,-226.0,-35.0,78.0,0
991,-222.0,-38.0,72.0,0
992,-222.0,-39.0,71.0,0
993,-228.0,-36.0,68.0,0
994,-231.0,-36.0,68.0,0
995,-229.0,-37.0,69.0,0
996,-234.0,-33.0,64.0,0
997,-237.0,-32.0,66.0,0
998,-242.0,-29.0,66.0,0
999,-242.0,-23.0,69.0,0
1000,-239.0,-23.0,68.0,0
1001,-232.0,-24.0,62.0,0
1002,-231.0,-24.0,64.0,0
1003,-229.0,-22.0,66.0,0
1004,-229.0,-19.0,61.0,0
1005,-226.0,-22.0,61.0,0
1006,-224.0,-20.0,60.0,0
1007,-223.0,-22.0,57.0,0
1008,-223.0,-22.0,58.0,0
1009,-223.0,-24.0,55.0,0
1010,-225.0,-23.0,50.0,0
1011,-229.0,-24.0,56.0,0
1012,-226.0,-24.0,58.0,0
1013,-230.0,-27.0,59.0,0
1014,-235.0,-28.0,64.0,0
1015,-239.0,-29.0,66.0,0
1016,-238.0,-33.0,63.0,0
1017,-242.0,-29.0,64.0,0
1018,-243.0,-28.0,64.0,0
1019,-243.0,-26.0,58.0,0
1020,-245.0,-27.0,59.0,0
1021,-248.0,-23.0,60.0,0
1022,-250.0,-20.0,54.0,0
1023,-254.0,-17.0,59.0,0
1024,-255.0,-13.0,56.0,0
1025,-260.0,-10.0,58.0,0
1026,-259.0,-11.0,54.0,0
1027,-261.0,-13.0,51.0,0
1028,-259.0,-11.0,52.0,0
1029,-260.0,-11.0,48.0,0
1030,-263.0,-11.0,52.0,0
1031,-266.0,-12.0,47.0,0
1032,-264.0,-14.0,47.0,0
1033,-264.0,-15.0,45.0,0
1034,-264.0,-16.0,45.0,0
1035,-263.0,-14.0,41.0,0
1036,-261.0,-12.0,39.0,0
1037,-258.0,-12.0,38.0,0
1038,-254.0,-7.0,38.0,0
1039,-249.0,-3.0,34.0,0
1040,-245.0,4.0,34.0,0
1041,-244.0,7.0,34.0,0
1042,-239.0,16.0,32.0,0
1043,-242.0,20.0,28.0,0
1044,-235.0,23.0,27.0,0
1045,-235.0,28.0,23.0,0
1046,-233.0,33.0,15.0,0
1047,-231.0,36.0,15.0,0
1048,-230.0,39.0,10.0,0
1049,-228.0,41.0,9.0,0
1050,-230.0,43.0,8.0,0
1051,-236.0,43.0,10.0,0
1052,-236.0,44.0,7.0,0
1053,-238.0,44.0,8.0,0
1054,-242.0,43.0,4.0,0
1055,-240.0,42.0,6.0,0
1056,-245.0,42.0,-3.0,0
1057,-254.0,43.0,-2.0,0
1058,-258.0,44.0,-6.0,0
1059,-263.0,45.0,-7.0,0
1060,-268.0,51.0,-12.0,0
1061,-275.0,59.0,-19.0,0
1062,-280.0,64.0,-27.0,0
1063,-285.0,71.0,-34.0,0
1064,-290.0,75.0,-37.0,0
1065,-294.0,84.0,-50.0,0
1066,-294.0,87.0,-53.0,0
1067,-294.0,86.0,-59.0,0
1068,-296.0,92.0,-56.0,0
1069,-291.0,91.0,-57.0,0
1070,-286.0,88.0,-58.0,0
1071,-280.0,89.0,-54.0,0
1072,-273.0,81.0,-49.0,0
1073,-268.0,80.0,-46.0,0
1074,-263.0,73.0,-39.0,0
1075,-256.0,67.0,-31.0,0
1076,-250.0,63.0,-25.0,0
1077,-248.0,60.0,-19.0,0
1078,-242.0,54.0,-20.0,0
1079,-241.0,50.0,-18.0,0
1080,-239.0,48.0,-23.0,0
1081,-236.0,45.0,-22.0,0
1082,-234.0,47.0,-27.0,0
1083,-232.0,44.0,-38.0,0
1084,-231.0,47.0,-48.0,0
1085,-229.0,48.0,-55.0,0
1086,-230.0,49.0,-54.0,0
1087,-225.0,50.0,-61.0,0
1088,-230.0,56.0,-67.0,0
1089,-228.0,50.0,-64.0,0
1090,-230.0,51.0,-68.0,0
1091,-229.0,48.0,-66.0,0
1092,-229.0,45.0,-69.0,0
1093,-232.0,42.0,-67.0,0
1094,-241.0,42.0,-68.0,0
1095,-240.0,41.0,-68.0,0
1096,-243.0,37.0,-66.0,0
1097,-246.0,40.0,-65.0,0
1098,-250.0,43.0,-63.0,0
1099,-253.0,44.0,-69.0,0
1100,-256.0,48.0,-65.0,0
1101,-259.0,49.0,-65.0,0
1102,-259.0,51.0,-70.0,0
1103,-255.0,53.0,-69.0,0
1104,-255.0,56.0,-67.0,0
1105,-252.0,57.0,-69.0,0
1106,-254.0,60.0,-75.0,0
1107,-250.0,61.0,-79.0,0
1108,-250.0,61.0,-80.0,0
1109,-250.0,60.0,-83.0,0
1110,-253.0,61.0,-84.0,0
1111,-254.0,63.0,-81.0,0
1112,-254.0,62.0,-80.0,0
1113,-256.0,63.0,-87.0,0
1114,-262.0,62.0,-87.0,0
1115,-266.0,64.0,-90.0,0
1116,-268.0,64.0,-94.0,0
1117,-273.0,64.0,-97.0,0
1118,-280.0,66.0,-97.0,0
1119,-288.0,66.0,-98.0,0
1120,-297.0,67.0,-108.0,0
1121,-306.0,70.0,-111.0,0
1122,-315.0,73.0,-118.0,0
1123,-325.0,76.0,-126.0,0
1124,-325.0,77.0,-131.0,0
1125,-329.0,75.0,-133.0,0
1126,-324.0,74.0,-135.0,0
1127,-323.0,76.0,-133.0,0
1128,-317.0,73.0,-134.0,0
1129,-308.0,65.0,-132.0,0
1130,-297.0,63.0,-125.0,0
1131,-284.0,59.0,-122.0,0
1132,-276.0,56.0,-116.0,0
1133,-263.0,55.0,-109.0,0
1134,-256.0,52.0,-100.0,0
1135,-245.0,51.0,-93.0,0
1136,-240.0,52.0,-88.0,0
1137,-227.0,51.0,-80.0,0
1138,-219.0,51.0,-75.0,0
1139,-216.0,54.0,-73.0,0
1140,-213.0,55.0,-70.0,0
1141,-210.0,56.0,-70.0,0
1142,-209.0,58.0,-71.0,0
1143,-211.0,58.0,-68.0,0
1144,-208.0,59.0,-67.0,0
1145,-213.0,58.0,-64.0,0
1146,-212.0,58.0,-59.0,0
1147,-217.0,57.0,-57.0,0
1148,-219.0,56.0,-56.0,0
1149,-217.0,55.0,-53.0,0
1150,-224.0,54.0,-51.0,0
1151,-222.0,51.0,-53.0,0
1152,-223.0,53.0,-53.0,0
1153,-226.0,51.0,-52.0,0
1154,-226.0,48.0,-53.0,0
1155,-235.0,51.0,-53.0,0
1156,-235.0,48.0,-55.0,0
1157,-238.0,48.0,-56.0,0
1158,-240.0,51.0,-61.0,0
1159,-240.0,51.0,-61.0,0
1160,-241.0,52.0,-61.0,0
1161,-249.0,54.0,-63.0,0
1162,-265.0,56.0,-57.0,0
1163,-268.0,57.0,-54.0,0
1164,-263.0,53.0,-55.0,0
1165,-260.0,51.0,-55.0,0
1166,-260.0,53.0,-53.0,0
1167,-261.0,55.0,-49.0,0
1168,-266.0,54.0,-52.0,0
1169,-261.0,56.0,-53.0,0
1170,-262.0,59.0,-54.0,0
1171,-263.0,55.0,-53.0,0
1172,-261.0,55.0,-51.0,0
1173,-260.0,58.0,-48.0,0
1174,-261.0,57.0,-51.0,0
1175,-263.0,56.0,-53.0,0
1176,-262.0,60.0,-54.0,0
1177,-260.0,59.0,-56.0,0
1178,-261.0,56.0,-55.0,0
1179,-259.0,59.0,-56.0,0
1180,-264.0,59.0,-56.0,0
1181,-259.0,59.0,-63.0,0
1182,-252.0,57.0,-64.0,0
1183,-250.0,57.0,-66.0,0
1184,-269.0,63.0,-58.0,0
1185,-281.0,60.0,-53.0,0
1186,-272.0,54.0,-49.0,0
1187,-265.0,47.0,-48.0,0
1188,-258.0,44.0,-54.0,0
1189,-259.0,44.0,-56.0,0
1190,-257.0,44.0,-57.0,0
1191,-258.0,46.0,-52.0,0
1192,-257.0,44.0,-56.0,0
1193,-260.0,44.0,-57.0,0
1194,-262.0,47.0,-57.0,0
1195,-259.0,51.0,-57.0,0
1196,-264.0,51.0,-58.0,0
1197,-264.0,53.0,-55.0,0
1198,-264.0,52.0,-56.0,0
1199,-263.0,53.0,-58.0,0
1200,-264.0,55.0,-57.0,0
1201,-264.0,57.0,-57.0,0
1202,-262.0,53.0,-58.0,0
1203,-262.0,56.0,-56.0,0
1204,-261.0,55.0,-55.0,0
1205,-255.0,56.0,-62.0,0
1206,-255.0,57.0,-59.0,0
1207,-251.0,57.0,-56.0,0
1208,-250.0,56.0,-59.0,0
1209,-249.0,57.0,-59.0,0
1210,-243.0,55.0,-59.0,0
1211,-243.0,52.0,-62.0,0
1212,-242.0,54.0,-59.0,0
1213,-239.0,51.0,-59.0,0
1214,-240.0,49.0,-58.0,0
1215,-237.0,50.0,-60.0,0
1216,-237.0,48.0,-60.0,0
1217,-235.0,47.0,-58.0,0
1218,-237.0,45.0,-59.0,0
1219,-238.0,44.0,-57.0,0
1220,-242.0,44.0,-58.0,0
1221,-245.0,44.0,-57.0,0
1222,-239.0,43.0,-56.0,0
1223,-242.0,43.0,-55.0,0
1224,-244.0,41.0,-56.0,0
1225,-243.0,43.0,-53.0,0
1226,-243.0,40.0,-52.0,0
1227,-246.0,40.0,-55.0,0
1228,-244.0,39.0,-55.0,0
1229,-251.0,39.0,-54.0,0
1230,-250.0,38.0,-56.0,0
1231,-252.0,38.0,-53.0,0
1232,-254.0,41.0,-53.0,0
1233,-257.0,36.0,-56.0,0
1234,-261.0,38.0,-54.0,0
1235,-262.0,39.0,-58.0,0
1236,-261.0,39.0,-60.0,0
1237,-262.0,40.0,-58.0,0
1238,-265.0,42.0,-55.0,0
1239,-262.0,40.0,-59.0,0
1240,-266.0,42.0,-58.0,0
1241,-266.0,45.0,-62.0,0
1242,-265.0,47.0,-60.0,0
1243,-263.0,48.0,-62.0,0
1244,-262.0,52.0,-63.0,0
1245,-261.0,51.0,-60.0,0
1246,-262.0,53.0,-61.0,0
1247,-261.0,55.0,-61.0,0
1248,-261.0,59.0,-62.0,0
1249,-259.0,56.0,-61.0,0
1250,-258.0,59.0,-60.0,0
1251,-258.0,58.0,-59.0,0
1252,-254.0,56.0,-59.0,0
1253,-255.0,55.0,-57.0,0
1254,-254.0,54.0,-57.0,0
1255,-253.0,68.0,-61.0,0
1256,-250.0,63.0,-49.0,0
1257,-256.0,51.0,-51.0,0
1258,-242.0,50.0,-54.0,0
1259,-263.0,62.0,-53.0,0
1260,-249.0,56.0,-53.0,0
1261,-247.0,60.0,-57.0,0
1262,-254.0,55.0,-57.0,0
1263,-255.0,56.0,-56.0,0
1264,-254.0,53.0,-52.0,0
1265,-253.0,53.0,-51.0,0
1266,-251.0,55.0,-59.0,0
1267,-252.0,53.0,-55.0,0
1268,-251.0,52.0,-54.0,0
1269,-255.0,52.0,-54.0,0
1270,-256.0,51.0,-54.0,0
1271,-255.0,49.0,-52.0,0
1272,-255.0,51.0,-50.0,0
1273,-254.0,50.0,-55.0,0
1274,-254.0,48.0,-54.0,0
1275,-254.0,45.0,-52.0,0
1276,-255.0,47.0,-51.0,0
1277,-257.0,48.0,-55.0,0
1278,-255.0,46.0,-53.0,0
1279,-257.0,49.0,-57.0,0
1280,-257.0,48.0,-58.0,0
1281,-256.0,47.0,-53.0,0
1282,-257.0,49.0,-56.0,0
1283,-256.0,51.0,-54.0,0
1284,-258.0,52.0,-55.0,0
1285,-257.0,49.0,-56.0,0
1286,-258.0,53.0,-59.0,0
1287,-258.0,54.0,-54.0,0
1288,-257.0,49.0,-56.0,0
1289,-255.0,49.0,-55.0,0
1290,-256.0,51.0,-55.0,0
1291,-256.0,49.0,-54.0,0
1292,-256.0,50.0,-55.0,0
1293,-255.0,48.0,-51.0,0
1294,-256.0,46.0,-51.0,0
1295,-253.0,44.0,-53.0,0
1296,-254.0,46.0,-51.0,0
1297,-257.0,46.0,-50.0,0
1298,-258.0,42.0,-50.0,0
1299,-254.0,41.0,-51.0,0
1300,-255.0,43.0,-52.0,0
1301,-255.0,44.0,-49.0,0
1302,-256.0,43.0,-54.0,0
1303,-256.0,43.0,-53.0,0
1304,-257.0,45.0,-51.0,0
1305,-260.0,44.0,-52.0,0
1306,-257.0,43.0,-52.0,0
1307,-253.0,41.0,-48.0,0
1308,-256.0,43.0,-52.0,0
1309,-257.0,43.0,-50.0,0
1310,-255.0,42.0,-53.0,0
1311,-253.0,42.0,-51.0,0
1312,-252.0,43.0,-49.0,0
1313,-257.0,42.0,-51.0,0
1314,-256.0,41.0,-46.0,0
1315,-255.0,43.0,-51.0,0
1316,-252.0,46.0,-50.0,0
1317,-255.0,47.0,-46.0,0
1318,-257.0,47.0,-46.0,0
1319,-256.0,44.0,-47.0,0
1320,-255.0,44.0,-44.0,0
1321,-255.0,45.0,-45.0,0
1322,-257.0,46.0,-44.0,0
1323,-255.0,44.0,-47.0,0
1324,-255.0,47.0,-46.0,0
1325,-255.0,44.0,-53.0,0
1326,-254.0,42.0,-47.0,0
1327,-255.0,43.0,-46.0,0
1328,-255.0,45.0,-47.0,0
1329,-256.0,40.0,-48.0,0
1330,-256.0,42.0,-47.0,0
1331,-254.0,42.0,-50.0,0
1332,-255.0,45.0,-45.0,0
1333,-256.0,45.0,-47.0,0
1334,-255.0,39.0,-44.0,0
1335,-254.0,43.0,-50.0,0
1336,-257.0,43.0,-48.0,0
1337,-257.0,44.0,-49.0,0
1338,-254.0,42.0,-46.0,0
1339,-255.0,45.0,-48.0,0
1340,-256.0,44.0,-49.0,0
1341,-258.0,45.0,-45.0,0
1342,-257.0,43.0,-46.0,0
1343,-255.0,43.0,-45.0,0
1344,-258.0,45.0,-42.0,0
1345,-256.0,42.0,-48.0,0
1346,-255.0,45.0,-44.0,0
1347,-255.0,45.0,-44.0,0
1348,-253.0,45.0,-43.0,0
1349,-256.0,43.0,-49.0,0
1350,-254.0,46.0,-48.0,0
1351,-254.0,47.0,-48.0,0
1352,-255.0,44.0,-46.0,0
1353,-255.0,45.0,-43.0,0
1354,-257.0,44.0,-43.0,0
1355,-255.0,43.0,-49.0,0
1356,-257.0,43.0,-45.0,0
1357,-256.0,44.0,-44.0,0
1358,-256.0,44.0,-46.0,0
1359,-254.0,44.0,-46.0,0
1360,-258.0,44.0,-47.0,0
1361,-255.0,45.0,-44.0,0
1362,-256.0,44.0,-47.0,0
1363,-257.0,44.0,-46.0,0
1364,-256.0,43.0,-50.0,0
1365,-257.0,45.0,-47.0,0
1366,-259.0,46.0,-46.0,0
1367,-258.0,44.0,-49.0,0
1368,-255.0,41.0,-46.0,0
1369,-259.0,44.0,-49.0,0
1370,-257.0,46.0,-43.0,0
1371,-259.0,44.0,-49.0,0
1372,-256.0,45.0,-45.0,0
1373,-258.0,44.0,-47.0,0
1374,-256.0,42.0,-47.0,0
1375,-254.0,42.0,-47.0,0
1376,-261.0,45.0,-47.0,0
1377,-259.0,46.0,-49.0,0
1378,-258.0,46.0,-44.0,0
1379,-256.0,43.0,-43.0,0
1380,-255.0,43.0,-45.0,0
1381,-254.0,43.0,-47.0,0
1382,-255.0,44.0,-44.0,0
1383,-257.0,45.0,-48.0,0
1384,-258.0,43.0,-46.0,0
1385,-256.0,44.0,-42.0,0
1386,-255.0,41.0,-45.0,0
1387,-253.0,46.0,-43.0,0
1388,-257.0,45.0,-46.0,0
1389,-258.0,45.0,-44.0,0
1390,-260.0,43.0,-45.0,0
1391,-257.0,44.0,-50.0,0
1392,-256.0,46.0,-47.0,0
1393,-257.0,44.0,-44.0,0
1394,-255.0,43.0,-43.0,0
1395,-256.0,45.0,-46.0,0
1396,-260.0,45.0,-50.0,0
1397,-257.0,45.0,-47.0,0
1398,-255.0,44.0,-46.0,0
1399,-258.0,43.0,-46.0,0
1400,-258.0,46.0,-45.0,0
1401,-255.0,43.0,-49.0,0
1402,-256.0,46.0,-50.0,0
1403,-261.0,46.0,-44.0,0
1404,-258.0,45.0,-50.0,0
1405,-258.0,42.0,-44.0,0
1406,-257.0,46.0,-52.0,0
1407,-255.0,43.0,-47.0,0
1408,-260.0,46.0,-43.0,0
1409,-256.0,44.0,-49.0,0
1410,-256.0,42.0,-45.0,0
1411,-258.0,44.0,-46.0,0
1412,-253.0,42.0,-45.0,0
1413,-256.0,42.0,-44.0,0
1414,-257.0,44.0,-45.0,0
1415,-255.0,42.0,-46.0,0
1416,-257.0,43.0,-45.0,0
1417,-260.0,43.0,-43.0,0
1418,-256.0,45.0,-46.0,0
1419,-255.0,43.0,-48.0,0
1420,-260.0,44.0,-49.0,0
1421,-254.0,44.0,-43.0,0
1422,-257.0,43.0,-49.0,0
1423,-253.0,40.0,-47.0,0
1424,-256.0,43.0,-49.0,0
1425,-254.0,43.0,-48.0,0
1426,-255.0,41.0,-47.0,0
1427,-257.0,43.0,-46.0,0
1428,-256.0,43.0,-45.0,0
1429,-253.0,42.0,-43.0,0
1430,-254.0,44.0,-48.0,0
1431,-257.0,45.0,-45.0,0
1432,-257.0,45.0,-45.0,0
1433,-260.0,48.0,-49.0,0
1434,-257.0,44.0,-47.0,0
1435,-253.0,47.0,-47.0,0
1436,-256.0,46.0,-42.0,0
1437,-257.0,42.0,-47.0,0
1438,-260.0,47.0,-45.0,0
1439,-257.0,44.0,-44.0,0
1440,-256.0,43.0,-46.0,0
1441,-254.0,45.0,-44.0,0
1442,-259.0,46.0,-44.0,0
1443,-257.0,44.0,-46.0,0
1444,-257.0,45.0,-45.0,0
1445,-257.0,46.0,-47.0,0
1446,-255.0,43.0,-48.0,0
1447,-254.0,41.0,-44.0,0
1448,-255.0,40.0,-47.0,0
1449,-258.0,43.0,-46.0,0
1450,-256.0,44.0,-48.0,0
1451,-256.0,43.0,-46.0,0
1452,-257.0,43.0,-47.0,0
1453,-258.0,45.0,-46.0,0
1454,-256.0,43.0,-46.0,0
1455,-256.0,41.0,-42.0,0
1456,-258.0,43.0,-47.0,0
1457,-256.0,41.0,-42.0,0
1458,-257.0,44.0,-45.0,0
1459,-256.0,46.0,-44.0,0
1460,-256.0,44.0,-44.0,0
1461,-256.0,42.0,-47.0,0
1462,-254.0,44.0,-47.0,0
1463,-254.0,42.0,-46.0,0
1464,-258.0,43.0,-45.0,0
1465,-255.0,43.0,-45.0,0
1466,-256.0,41.0,-41.0,0
1467,-255.0,42.0,-46.0,0
1468,-259.0,44.0,-44.0,0
1469,-257.0,45.0,-47.0,0
1470,-258.0,45.0,-47.0,0
1471,-254.0,44.0,-46.0,0
1472,-256.0,42.0,-49.0,0
1473,-254.0,42.0,-46.0,0
1474,-256.0,44.0,-47.0,0
1475,-257.0,43.0,-49.0,0
1476,-255.0,45.0,-46.0,0
1477,-257.0,45.0,-47.0,0
1478,-255.0,40.0,-47.0,0
1479,-258.0,43.0,-46.0,0
1480,-259.0,45.0,-46.0,0
1481,-256.0,45.0,-44.0,0
1482,-255.0,43.0,-45.0,0
1483,-258.0,42.0,-49.0,0
1484,-257.0,44.0,-47.0,0
1485,-254.0,45.0,-46.0,0
1486,-257.0,46.0,-45.0,0
1487,-257.0,47.0,-48.0,0
1488,-255.0,46.0,-48.0,0
1489,-256.0,44.0,-45.0,0
1490,-259.0,45.0,-47.0,0
1491,-259.0,43.0,-45.0,0
1492,-256.0,46.0,-45.0,0
1493,-258.0,45.0,-47.0,0
1494,-259.0,47.0,-51.0,0
1495,-255.0,45.0,-46.0,0
1496,-255.0,45.0,-44.0,0
1497,-257.0,43.0,-49.0,0
1498,-259.0,45.0,-45.0,0
1499,-258.0,43.0,-48.0,0
1500,-257.0,44.0,-45.0,0
1501,-256.0,41.0,-43.0,0
1502,-254.0,44.0,-43.0,0
1503,-260.0,47.0,-42.0,0
1504,-258.0,41.0,-44.0,0
1505,-257.0,45.0,-45.0,0
1506,-256.0,43.0,-46.0,0
1507,-257.0,43.0,-45.0,0
1508,-254.0,43.0,-48.0,0
1509,-258.0,43.0,-48.0,0
1510,-255.0,44.0,-42.0,0
1511,-258.0,45.0,-45.0,0
1512,-256.0,46.0,-43.0,0
1513,-256.0,43.0,-39.0,0
1514,-256.0,45.0,-44.0,0
1515,-256.0,44.0,-44.0,0
1516,-256.0,45.0,-43.0,0
1517,-256.0,45.0,-45.0,0
1518,-257.0,47.0,-43.0,0
1519,-258.0,43.0,-40.0,0
1520,-255.0,43.0,-45.0,0
1521,-258.0,47.0,-47.0,0
1522,-255.0,43.0,-46.0,0
1523,-257.0,41.0,-44.0,0
1524,-257.0,42.0,-48.0,0
1525,-257.0,43.0,-50.0,0
1526,-255.0,43.0,-47.0,0
1527,-256.0,40.0,-48.0,0
1528,-260.0,43.0,-47.0,0
1529,-257.0,43.0,-47.0,0
1530,-256.0,42.0,-46.0,0
1531,-255.0,42.0,-46.0,0
1532,-256.0,43.0,-46.0,0
1533,-258.0,46.0,-47.0,0
1534,-258.0,42.0,-45.0,0
1535,-257.0,42.0,-45.0,0
1536,-256.0,42.0,-48.0,0
1537,-259.0,43.0,-46.0,0
1538,-257.0,43.0,-44.0,0
1539,-256.0,41.0,-46.0,0
1540,-258.0,45.0,-46.0,0
1541,-256.0,45.0,-44.0,0
1542,-255.0,42.0,-46.0,0
1543,-255.0,43.0,-43.0,0
1544,-255.0,42.0,-45.0,0
1545,-255.0,43.0,-42.0,0
1546,-255.0,42.0,-42.0,0
1547,-256.0,43.0,-42.0,0
1548,-255.0,43.0,-44.0,0
1549,-258.0,44.0,-44.0,0
1550,-257.0,43.0,-43.0,0
1551,-257.0,42.0,-44.0,0
1552,-260.0,46.0,-47.0,0
1553,-255.0,44.0,-46.0,0
1554,-258.0,44.0,-46.0,0
1555,-254.0,42.0,-47.0,0
1556,-258.0,44.0,-43.0,0
1557,-258.0,45.0,-47.0,0
1558,-256.0,43.0,-47.0,0
1559,-258.0,45.0,-45.0,0
1560,-257.0,44.0,-45.0,0
1561,-258.0,44.0,-47.0,0
1562,-259.0,44.0,-45.0,0
1563,-257.0,46.0,-45.0,0
1564,-257.0,44.0,-46.0,0
1565,-257.0,46.0,-45.0,0
1566,-259.0,42.0,-47.0,0
1567,-259.0,43.0,-44.0,0
1568,-256.0,43.0,-43.0,0
1569,-256.0,40.0,-40.0,0
1570,-258.0,45.0,-44.0,0
1571,-258.0,42.0,-43.0,0
1572,-257.0,46.0,-46.0,0
1573,-253.0,42.0,-47.0,0
1574,-255.0,44.0,-44.0,0
1575,-255.0,43.0,-43.0,0
1576,-257.0,41.0,-47.0,0
1577,-255.0,44.0,-44.0,0
1578,-256.0,43.0,-47.0,0
1579,-257.0,44.0,-45.0,0
1580,-256.0,46.0,-46.0,0
1581,-255.0,41.0,-45.0,0
1582,-259.0,41.0,-43.0,0
1583,-255.0,44.0,-41.0,0
1584,-258.0,45.0,-46.0,0
1585,-257.0,46.0,-46.0,0
1586,-256.0,43.0,-46.0,0
1587,-257.0,41.0,-44.0,0
1588,-256.0,43.0,-44.0,0
1589,-257.0,44.0,-46.0,0
1590,-257.0,43.0,-43.0,0
1591,-254.0,43.0,-47.0,0
1592,-259.0,43.0,-44.0,0
1593,-257.0,44.0,-43.0,0
1594,-253.0,40.0,-43.0,0
1595,-256.0,42.0,-49.0,0
1596,-259.0,46.0,-47.0,0
1597,-257.0,43.0,-47.0,0
1598,-256.0,42.0,-47.0,0
1599,-258.0,44.0,-44.0,0
1600,-255.0,44.0,-46.0,0
1601,-258.0,46.0,-46.0,0
1602,-256.0,42.0,-48.0,0
1603,-256.0,43.0,-48.0,0
1604,-256.0,44.0,-51.0,0
1605,-257.0,48.0,-51.0,0
1606,-258.0,44.0,-47.0,0
1607,-255.0,42.0,-48.0,0
1608,-259.0,43.0,-47.0,0
1609,-256.0,44.0,-45.0,0
1610,-256.0,44.0,-43.0,0
1611,-256.0,44.0,-42.0,0
1612,-258.0,44.0,-46.0,0
1613,-257.0,42.0,-44.0,0
1614,-259.0,45.0,-45.0,0
1615,-256.0,44.0,-49.0,0
1616,-259.0,43.0,-44.0,0
1617,-254.0,44.0,-48.0,0
1618,-258.0,42.0,-44.0,0
1619,-256.0,42.0,-44.0,0
1620,-259.0,46.0,-44.0,0
1621,-260.0,44.0,-46.0,0
1622,-258.0,43.0,-43.0,0
1623,-259.0,44.0,-44.0,0
1624,-254.0,42.0,-40.0,0
1625,-258.0,46.0,-47.0,0
1626,-256.0,45.0,-44.0,0
1627,-256.0,43.0,-45.0,0
1628,-257.0,41.0,-47.0,0
1629,-256.0,45.0,-46.0,0
1630,-257.0,43.0,-43.0,0
1631,-256.0,40.0,-44.0,0
1632,-256.0,43.0,-44.0,0
1633,-257.0,44.0,-45.0,0
1634,-255.0,45.0,-45.0,0
1635,-257.0,42.0,-43.0,0
1636,-259.0,42.0,-45.0,0
1637,-259.0,45.0,-46.0,0
1638,-261.0,45.0,-44.0,0
1639,-254.0,41.0,-42.0,0
1640,-257.0,45.0,-44.0,0
1641,-255.0,45.0,-47.0,0
1642,-254.0,40.0,-50.0,0
1643,-254.0,40.0,-49.0,0
1644,-258.0,47.0,-42.0,0
1645,-262.0,31.0,-40.0,0
1646,-259.0,43.0,-49.0,0
1647,-257.0,43.0,-44.0,0
1648,-258.0,42.0,-42.0,0
1649,-260.0,40.0,-44.0,0
1650,-258.0,43.0,-40.0,0
1651,-259.0,41.0,-43.0,0
1652,-256.0,42.0,-42.0,0
1653,-258.0,41.0,-43.0,0
1654,-257.0,42.0,-44.0,0
1655,-258.0,43.0,-47.0,0
1656,-256.0,42.0,-46.0,0
1657,-255.0,40.0,-46.0,0
1658,-256.0,42.0,-43.0,0
1659,-255.0,43.0,-49.0,0
1660,-256.0,42.0,-46.0,0
1661,-257.0,43.0,-48.0,0
1662,-257.0,43.0,-42.0,0
1663,-259.0,44.0,-47.0,0
1664,-260.0,44.0,-47.0,0
1665,-260.0,44.0,-48.0,0
1666,-260.0,44.0,-50.0,0
1667,-261.0,41.0,-48.0,0
1668,-262.0,44.0,-47.0,0
1669,-262.0,48.0,-47.0,0
1670,-259.0,40.0,-49.0,0
1671,-263.0,48.0,-47.0,0
1672,-260.0,45.0,-47.0,0
1673,-263.0,48.0,-48.0,0
1674,-261.0,47.0,-46.0,0
1675,-261.0,45.0,-47.0,0
1676,-262.0,45.0,-46.0,0
1677,-266.0,43.0,-45.0,0
1678,-267.0,43.0,-45.0,0
1679,-265.0,46.0,-47.0,0
1680,-264.0,45.0,-48.0,0
1681,-265.0,43.0,-43.0,0
1682,-265.0,44.0,-47.0,0
1683,-268.0,43.0,-47.0,0
1684,-263.0,41.0,-46.0,0
1685,-264.0,46.0,-47.0,0
1686,-266.0,45.0,-47.0,0
1687,-263.0,43.0,-49.0,0
1688,-266.0,45.0,-48.0,0
1689,-265.0,43.0,-47.0,0
1690,-264.0,42.0,-49.0,0
1691,-260.0,43.0,-48.0,0
1692,-263.0,44.0,-44.0,0
1693,-263.0,41.0,-46.0,0
1694,-262.0,44.0,-45.0,0
1695,-258.0,41.0,-42.0,0
1696,-261.0,43.0,-47.0,0
1697,-262.0,41.0,-44.0,0
1698,-260.0,43.0,-51.0,0
1699,-258.0,44.0,-50.0,0
1700,-260.0,43.0,-43.0,0
1701,-261.0,42.0,-46.0,0
1702,-261.0,40.0,-43.0,0
1703,-255.0,42.0,-42.0,0
1704,-257.0,42.0,-39.0,0
1705,-258.0,43.0,-39.0,0
1706,-256.0,41.0,-38.0,0
1707,-260.0,39.0,-40.0,0
1708,-259.0,40.0,-37.0,0
1709,-259.0,41.0,-39.0,0
1710,-260.0,39.0,-38.0,0
1711,-259.0,36.0,-35.0,0
1712,-262.0,38.0,-37.0,0
1713,-261.0,36.0,-34.0,0
1714,-261.0,36.0,-34.0,0
1715,-263.0,34.0,-33.0,0
1716,-261.0,36.0,-35.0,0
1717,-263.0,34.0,-35.0,0
1718,-262.0,33.0,-32.0,0
1719,-264.0,32.0,-30.0,0
1720,-262.0,34.0,-27.0,0
1721,-266.0,33.0,-30.0,0
1722,-267.0,34.0,-30.0,0
1723,-266.0,36.0,-29.0,0
1724,-265.0,33.0,-29.0,0
1725,-264.0,30.0,-25.0,0
1726,-266.0,31.0,-29.0,0
1727,-265.0,34.0,-28.0,0
1728,-264.0,32.0,-22.0,0
1729,-265.0,33.0,-24.0,0
1730,-265.0,32.0,-21.0,0
1731,-266.0,33.0,-24.0,0
1732,-263.0,31.0,-24.0,0
1733,-266.0,32.0,-20.0,0
1734,-262.0,29.0,-20.0,0
1735,-263.0,30.0,-16.0,0
1736,-261.0,27.0,-21.0,0
1737,-262.0,29.0,-18.0,0
1738,-265.0,30.0,-18.0,0
1739,-264.0,30.0,-15.0,0
1740,-262.0,27.0,-14.0,0
1741,-266.0,27.0,-13.0,0
1742,-264.0,27.0,-16.0,0
1743,-262.0,25.0,-12.0,0
1744,-263.0,26.0,-11.0,0
1745,-263.0,28.0,-10.0,0
1746,-263.0,25.0,-12.0,0
1747,-263.0,24.0,-12.0,0
1748,-264.0,23.0,-10.0,0
1749,-264.0,24.0,-8.0,0
1750,-260.0,20.0,-9.0,0
1751,-267.0,22.0,-3.0,0
1752,-261.0,22.0,-8.0,0
1753,-262.0,21.0,-6.0,0
1754,-261.0,21.0,-7.0,0
1755,-261.0,19.0,2.0,0
1756,-260.0,20.0,-4.0,0
1757,-259.0,20.0,0.0,0
1758,-258.0,20.0,-3.0,0
1759,-262.0,21.0,-2.0,0
1760,-261.0,18.0,4.0,0
1761,-261.0,17.0,4.0,0
1762,-261.0,19.0,3.0,0
1763,-257.0,18.0,8.0,0
1764,-255.0,16.0,7.0,0
1765,-259.0,17.0,3.0,0
1766,-255.0,13.0,10.0,0
1767,-258.0,18.0,9.0,0
1768,-255.0,16.0,12.0,0
1769,-257.0,14.0,9.0,0
1770,-255.0,11.0,16.0,0
1771,-252.0,12.0,10.0,0
1772,-255.0,10.0,12.0,0
1773,-256.0,12.0,16.0,0
1774,-257.0,13.0,15.0,0
1775,-252.0,9.0,16.0,0
1776,-254.0,10.0,17.0,0
1777,-254.0,9.0,19.0,0
1778,-253.0,10.0,20.0,0
1779,-253.0,4.0,22.0,0
1780,-252.0,7.0,22.0,0
1781,-252.0,2.0,20.0,0
1782,-254.0,6.0,27.0,0
1783,-255.0,4.0,28.0,0
1784,-251.0,1.0,25.0,0
1785,-249.0,-3.0,27.0,0
1786,-253.0,2.0,22.0,0
1787,-252.0,-1.0,25.0,0
1788,-252.0,0.0,28.0,0
1789,-254.0,0.0,29.0,0
1790,-252.0,-3.0,31.0,0
1791,-257.0,-2.0,29.0,0
1792,-255.0,-1.0,30.0,0
1793,-260.0,1.0,29.0,0
1794,-258.0,-1.0,30.0,0
1795,-258.0,-1.0,31.0,0
1796,-262.0,0.0,33.0,0
1797,-258.0,-1.0,29.0,0
1798,-262.0,-2.0,28.0,0
1799,-260.0,-2.0,37.0,0
1800,-259.0,0.0,32.0,0
1801,-260.0,-1.0,31.0,0
1802,-259.0,0.0,30.0,0
1803,-258.0,-1.0,32.0,0
1804,-257.0,-1.0,34.0,0
1805,-259.0,-3.0,29.0,0
1806,-261.0,0.0,27.0,0
1807,-260.0,-4.0,35.0,0
1808,-265.0,-2.0,37.0,0
1809,-269.0,-2.0,36.0,0
1810,-268.0,-4.0,45.0,0
1811,-272.0,0.0,41.0,0
1812,-273.0,-2.0,41.0,0
1813,-270.0,1.0,41.0,0
1814,-272.0,2.0,39.0,0
1815,-269.0,-2.0,37.0,0
1816,-268.0,1.0,33.0,0
1817,-267.0,1.0,34.0,0
1818,-264.0,0.0,34.0,0
1819,-262.0,0.0,34.0,0
1820,-256.0,2.0,35.0,0
1821,-255.0,1.0,31.0,0
1822,-253.0,0.0,34.0,0
1823,-251.0,-4.0,29.0,0
1824,-252.0,-3.0,37.0,0
1825,-250.0,-5.0,37.0,0
1826,-249.0,-7.0,40.0,0
1827,-251.0,-4.0,46.0,0
1828,-251.0,-6.0,45.0,0
1829,-250.0,-12.0,46.0,0
1830,-252.0,-11.0,49.0,0
1831,-251.0,-9.0,52.0,0
1832,-253.0,-10.0,55.0,0
1833,-253.0,-13.0,55.0,0
1834,-253.0,-14.0,55.0,0
1835,-253.0,-13.0,56.0,0
1836,-252.0,-16.0,54.0,0
1837,-251.0,-17.0,58.0,0
1838,-257.0,-18.0,48.0,0
1839,-249.0,-11.0,63.0,0
1840,-254.0,-25.0,60.0,0
1841,-259.0,-19.0,75.0,0
1842,-247.0,-27.0,57.0,0
1843,-242.0,-23.0,59.0,0
1844,-250.0,-18.0,60.0,0
1845,-249.0,-19.0,63.0,0
1846,-249.0,-23.0,64.0,0
1847,-251.0,-22.0,63.0,0
1848,-241.0,-24.0,69.0,0
1849,-247.0,-22.0,70.0,0
1850,-246.0,-25.0,70.0,0
1851,-245.0,-22.0,71.0,0
1852,-246.0,-25.0,75.0,0
1853,-247.0,-24.0,75.0,0
1854,-242.0,-27.0,76.0,0
1855,-247.0,-24.0,77.0,0
1856,-241.0,-27.0,78.0,0
1857,-240.0,-26.0,82.0,0
1858,-241.0,-26.0,85.0,0
1859,-239.0,-25.0,81.0,0
1860,-238.0,-26.0,85.0,0
1861,-239.0,-28.0,90.0,0
1862,-242.0,-30.0,92.0,0
1863,-238.0,-31.0,92.0,0
1864,-233.0,-32.0,95.0,0
1865,-232.0,-31.0,94.0,0
1866,-233.0,-32.0,101.0,0
1867,-231.0,-33.0,98.0,0
1868,-232.0,-33.0,99.0,0
1869,-229.0,-31.0,101.0,0
1870,-234.0,-34.0,98.0,0
1871,-230.0,-36.0,97.0,0
1872,-230.0,-35.0,101.0,0
1873,-230.0,-34.0,104.0,0
1874,-226.0,-40.0,104.0,0
1875,-224.0,-43.0,105.0,0
1876,-225.0,-41.0,104.0,0
1877,-223.0,-45.0,106.0,0
1878,-222.0,-49.0,105.0,0
1879,-223.0,-50.0,105.0,0
1880,-223.0,-47.0,105.0,0
1881,-220.0,-51.0,100.0,0
1882,-223.0,-50.0,104.0,0
1883,-223.0,-51.0,107.0,0
1884,-221.0,-53.0,108.0,0
1885,-222.0,-52.0,106.0,0
1886,-221.0,-53.0,110.0,0
1887,-221.0,-53.0,114.0,0
1888,-223.0,-51.0,115.0,0
1889,-221.0,-54.0,117.0,0
1890,-224.0,-52.0,118.0,0
1891,-221.0,-53.0,117.0,0
1892,-223.0,-53.0,119.0,0
1893,-221.0,-52.0,120.0,0
1894,-218.0,-54.0,119.0,0
1895,-214.0,-54.0,126.0,0
1896,-217.0,-50.0,121.0,0
1897,-217.0,-51.0,125.0,0
1898,-214.0,-53.0,124.0,0
1899,-212.0,-50.0,125.0,0
1900,-209.0,-44.0,120.0,0
1901,-206.0,-49.0,120.0,0
1902,-199.0,-45.0,119.0,0
1903,-196.0,-42.0,120.0,0
1904,-193.0,-37.0,118.0,0
1905,-190.0,-35.0,121.0,0
1906,-191.0,-34.0,124.0,0
1907,-188.0,-33.0,125.0,0
1908,-191.0,-36.0,123.0,0
1909,-188.0,-41.0,132.0,0
1910,-191.0,-39.0,134.0,0
1911,-194.0,-42.0,138.0,0
1912,-189.0,-48.0,143.0,0
1913,-194.0,-49.0,146.0,0
1914,-193.0,-53.0,148.0,0
1915,-194.0,-57.0,153.0,0
1916,-191.0,-58.0,153.0,0
1917,-192.0,-59.0,151.0,0
1918,-196.0,-59.0,147.0,0
1919,-194.0,-58.0,146.0,0
1920,-193.0,-60.0,151.0,0
1921,-192.0,-59.0,146.0,0
1922,-186.0,-59.0,150.0,0
1923,-188.0,-57.0,147.0,0
1924,-189.0,-53.0,147.0,0
1925,-181.0,-56.0,146.0,0
1926,-182.0,-55.0,149.0,0
1927,-182.0,-53.0,153.0,0
1928,-179.0,-55.0,152.0,0
1929,-181.0,-52.0,157.0,0
1930,-181.0,-50.0,159.0,0
1931,-179.0,-52.0,161.0,0
1932,-182.0,-50.0,162.0,0
1933,-180.0,-48.0,164.0,0
1934,-178.0,-48.0,164.0,0
1935,-176.0,-45.0,167.0,0
1936,-176.0,-42.0,166.0,0
1937,-176.0,-43.0,165.0,0
1938,-171.0,-42.0,164.0,0
1939,-171.0,-37.0,161.0,0
1940,-172.0,-38.0,164.0,0
1941,-168.0,-39.0,164.0,0
1942,-171.0,-37.0,164.0,0
1943,-167.0,-38.0,162.0,0
1944,-168.0,-37.0,160.0,0
1945,-161.0,-40.0,162.0,0
1946,-162.0,-39.0,164.0,0
1947,-159.0,-44.0,169.0,0
1948,-156.0,-45.0,168.0,0
1949,-159.0,-44.0,169.0,0
1950,-158.0,-42.0,170.0,0
1951,-159.0,-39.0,174.0,0
1952,-158.0,-41.0,171.0,0
1953,-157.0,-43.0,169.0,0
1954,-153.0,-45.0,168.0,0
1955,-151.0,-44.0,172.0,0
1956,-151.0,-46.0,171.0,0
1957,-146.0,-49.0,175.0,0
1958,-141.0,-52.0,178.0,0
1959,-139.0,-55.0,184.0,0
1960,-138.0,-57.0,188.0,0
1961,-139.0,-59.0,195.0,0
1962,-136.0,-61.0,195.0,0
1963,-135.0,-63.0,194.0,0
1964,-135.0,-59.0,195.0,0
1965,-138.0,-55.0,193.0,0
1966,-136.0,-53.0,187.0,0
1967,-138.0,-49.0,188.0,0
1968,-138.0,-46.0,191.0,0
1969,-137.0,-43.0,194.0,0
1970,-137.0,-41.0,190.0,0
1971,-136.0,-37.0,194.0,0
1972,-139.0,-35.0,193.0,0
1973,-137.0,-37.0,194.0,0
1974,-134.0,-38.0,199.0,0
1975,-131.0,-37.0,199.0,0
1976,-135.0,-37.0,198.0,0
1977,-130.0,-37.0,195.0,0
1978,-130.0,-38.0,196.0,0
1979,-132.0,-36.0,198.0,0
1980,-126.0,-39.0,198.0,0
1981,-126.0,-33.0,200.0,0
1982,-123.0,-36.0,205.0,0
1983,-119.0,-41.0,205.0,0
1984,-116.0,-39.0,205.0,0
1985,-111.0,-40.0,205.0,0
1986,-111.0,-42.0,203.0,0
1987,-106.0,-46.0,204.0,0
1988,-104.0,-49.0,206.0,0
1989,-101.0,-52.0,207.0,0
1990,-101.0,-55.0,207.0,0
1991,-100.0,-56.0,204.0,0
1992,-103.0,-58.0,209.0,0
1993,-99.0,-60.0,209.0,0
1994,-99.0,-60.0,208.0,0
1995,-96.0,-66.0,208.0,0
1996,-100.0,-65.0,208.0,0
1997,-96.0,-66.0,208.0,0
1998,-95.0,-66.0,205.0,0
1999,-97.0,-66.0,207.0,0
2000,-97.0,-66.0,205.0,0
2001,-94.0,-66.0,205.0,0
2002,-94.0,-67.0,202.0,0
2003,-91.0,-68.0,209.0,0
2004,-90.0,-68.0,207.0,0
2005,-91.0,-72.0,204.0,0
2006,-90.0,-71.0,208.0,0
2007,-91.0,-73.0,209.0,0
2008,-90.0,-74.0,211.0,0
2009,-87.0,-74.0,214.0,0
2010,-89.0,-73.0,213.0,0
2011,-85.0,-77.0,214.0,0
2012,-81.0,-74.0,214.0,0
2013,-84.0,-74.0,216.0,0
2014,-80.0,-70.0,214.0,0
2015,-77.0,-69.0,215.0,0
2016,-77.0,-72.0,218.0,0
2017,-74.0,-68.0,219.0,0
2018,-68.0,-66.0,214.0,0
2019,-70.0,-66.0,219.0,0
2020,-69.0,-64.0,222.0,0
2021,-64.0,-63.0,221.0,0
2022,-60.0,-67.0,226.0,0
2023,-54.0,-66.0,228.0,0
2024,-54.0,-64.0,222.0,0
2025,-47.0,-66.0,226.0,0
2026,-45.0,-67.0,225.0,0
2027,-43.0,-67.0,228.0,0
2028,-41.0,-67.0,228.0,0
2029,-41.0,-65.0,224.0,0
2030,-37.0,-67.0,225.0,0
2031,-35.0,-68.0,230.0,0
2032,-33.0,-68.0,231.0,0
2033,-37.0,-69.0,233.0,0
2034,-36.0,-71.0,237.0,0
2035,-37.0,-72.0,235.0,0
2036,-37.0,-69.0,235.0,0
2037,-33.0,-72.0,233.0,0
2038,-33.0,-70.0,233.0,0
2039,-33.0,-68.0,234.0,0
2040,-25.0,-68.0,229.0,0
2041,-26.0,-68.0,226.0,0
2042,-23.0,-65.0,226.0,0
2043,-18.0,-64.0,225.0,0
2044,-18.0,-63.0,227.0,0
2045,-15.0,-64.0,227.0,0
2046,-15.0,-59.0,230.0,0
2047,-15.0,-59.0,232.0,0
2048,-12.0,-57.0,234.0,0
2049,-10.0,-59.0,233.0,0
2050,-12.0,-57.0,237.0,0
2051,-12.0,-58.0,238.0,0
2052,-14.0,-62.0,238.0,0
2053,-13.0,-62.0,239.0,0
2054,-20.0,-59.0,238.0,0
2055,-24.0,-58.0,239.0,0
2056,-29.0,-58.0,231.0,0
2057,-34.0,-56.0,233.0,0
2058,-40.0,-53.0,230.0,0
2059,-45.0,-56.0,226.0,0
2060,-43.0,-52.0,219.0,0
2061,-48.0,-52.0,218.0,0
2062,-50.0,-50.0,213.0,0
2063,-48.0,-53.0,217.0,0
2064,-45.0,-59.0,217.0,0
2065,-43.0,-61.0,216.0,0
2066,-42.0,-65.0,218.0,0
2067,-33.0,-72.0,224.0,0
2068,-29.0,-76.0,226.0,0
2069,-23.0,-83.0,229.0,0
2070,-15.0,-83.0,231.0,0
2071,-13.0,-86.0,231.0,0
2072,-9.0,-88.0,225.0,0
2073,-3.0,-90.0,228.0,0
2074,-2.0,-90.0,224.0,0
2075,9.0,-89.0,224.0,0
2076,4.0,-86.0,223.0,0
2077,10.0,-82.0,217.0,0
2078,10.0,-75.0,218.0,0
2079,16.0,-76.0,218.0,0
2080,15.0,-76.0,218.0,0
2081,18.0,-71.0,220.0,0
2082,17.0,-68.0,219.0,0
2083,21.0,-68.0,220.0,0
2084,21.0,-68.0,225.0,0
2085,16.0,-68.0,223.0,0
2086,18.0,-68.0,223.0,0
2087,16.0,-67.0,223.0,0
2088,19.0,-66.0,223.0,0
2089,25.0,-66.0,227.0,0
2090,22.0,-64.0,224.0,0
2091,25.0,-68.0,227.0,0
2092,23.0,-66.0,225.0,0
2093,28.0,-68.0,230.0,0
2094,30.0,-68.0,226.0,0
2095,33.0,-70.0,233.0,0
2096,33.0,-69.0,235.0,0
2097,37.0,-70.0,235.0,0
2098,34.0,-71.0,231.0,0
2099,35.0,-71.0,239.0,0
2100,36.0,-70.0,234.0,0
2101,33.0,-69.0,233.0,0
2102,33.0,-68.0,231.0,0
2103,31.0,-67.0,228.0,0
2104,32.0,-69.0,225.0,0
2105,28.0,-68.0,221.0,0
2106,28.0,-65.0,218.0,0
2107,26.0,-69.0,220.0,0
2108,28.0,-68.0,218.0,0
2109,28.0,-69.0,215.0,0
2110,34.0,-71.0,216.0,0
2111,31.0,-72.0,217.0,0
2112,32.0,-74.0,216.0,0
2113,35.0,-74.0,218.0,0
2114,32.0,-72.0,221.0,0
2115,32.0,-73.0,220.0,0
2116,34.0,-74.0,218.0,0
2117,32.0,-73.0,222.0,0
2118,30.0,-73.0,222.0,0
2119,27.0,-76.0,231.0,0
2120,26.0,-72.0,230.0,0
2121,26.0,-73.0,229.0,0
2122,27.0,-71.0,226.0,0
2123,23.0,-67.0,228.0,0
2124,23.0,-62.0,232.0,0
2125,23.0,-60.0,226.0,0
2126,27.0,-57.0,223.0,0
2127,26.0,-51.0,220.0,0
2128,29.0,-49.0,216.0,0
2129,27.0,-46.0,214.0,0
2130,25.0,-41.0,216.0,0
2131,23.0,-46.0,221.0,0
2132,20.0,-49.0,226.0,0
2133,13.0,-52.0,224.0,0
2134,9.0,-58.0,235.0,0
2135,-2.0,-60.0,240.0,0
2136,-5.0,-65.0,240.0,0
2137,-10.0,-69.0,247.0,0
2138,-14.0,-69.0,248.0,0
2139,-16.0,-69.0,250.0,0
2140,-21.0,-67.0,242.0,0
2141,-23.0,-66.0,245.0,0
2142,-25.0,-65.0,241.0,0
2143,-30.0,-61.0,231.0,0
2144,-31.0,-59.0,232.0,0
2145,-31.0,-56.0,225.0,0
2146,-31.0,-55.0,226.0,0
2147,-26.0,-58.0,226.0,0
2148,-23.0,-57.0,223.0,0
2149,-19.0,-60.0,227.0,0
2150,-16.0,-66.0,230.0,0
2151,-17.0,-67.0,230.0,0
2152,-16.0,-68.0,233.0,0
2153,-12.0,-71.0,238.0,0
2154,-17.0,-73.0,238.0,0
2155,-16.0,-71.0,242.0,0
2156,-19.0,-68.0,240.0,0
2157,-16.0,-68.0,239.0,0
2158,-20.0,-64.0,238.0,0
2159,-20.0,-60.0,237.0,0
2160,-24.0,-56.0,237.0,0
2161,-27.0,-53.0,234.0,0
2162,-32.0,-47.0,235.0,0
2163,-32.0,-44.0,230.0,0
2164,-35.0,-40.0,228.0,0
2165,-33.0,-40.0,225.0,0
2166,-31.0,-38.0,228.0,0
2167,-30.0,-41.0,227.0,0
2168,-31.0,-43.0,235.0,0
2169,-31.0,-46.0,234.0,0
2170,-30.0,-52.0,235.0,0
2171,-29.0,-56.0,237.0,0
2172,-32.0,-57.0,242.0,0
2173,-33.0,-62.0,242.0,0
2174,-32.0,-67.0,244.0,0
2175,-31.0,-67.0,242.0,0
2176,-35.0,-68.0,239.0,0
2177,-30.0,-68.0,240.0,0
2178,-31.0,-67.0,234.0,0
2179,-26.0,-68.0,226.0,0
2180,-23.0,-67.0,221.0,0
2181,-18.0,-63.0,216.0,0
2182,-12.0,-64.0,214.0,0
2183,-12.0,-60.0,210.0,0
2184,-11.0,-61.0,211.0,0
2185,-7.0,-58.0,214.0,0
2186,-6.0,-62.0,207.0,0
2187,0.0,-65.0,214.0,0
2188,-4.0,-64.0,214.0,0
2189,-4.0,-63.0,218.0,0
2190,-2.0,-63.0,222.0,0
2191,-5.0,-67.0,226.0,0
2192,-7.0,-63.0,224.0,0
2193,-10.0,-58.0,229.0,0
2194,-11.0,-55.0,231.0,0
2195,-19.0,-53.0,232.0,0
2196,-25.0,-46.0,234.0,0
2197,-28.0,-47.0,238.0,0
2198,-34.0,-43.0,235.0,0
2199,-39.0,-45.0,235.0,0
2200,-40.0,-45.0,238.0,0
2201,-42.0,-45.0,239.0,0
2202,-43.0,-48.0,244.0,0
2203,-46.0,-50.0,246.0,0
2204,-48.0,-54.0,247.0,0
2205,-50.0,-55.0,250.0,0
2206,-49.0,-57.0,245.0,0
2207,-48.0,-62.0,244.0,0
2208,-50.0,-59.0,244.0,0
2209,-51.0,-58.0,239.0,0
2210,-51.0,-59.0,237.0,0
2211,-52.0,-59.0,237.0,0
2212,-52.0,-59.0,231.0,0
2213,-54.0,-60.0,231.0,0
2214,-54.0,-59.0,226.0,0
2215,-50.0,-60.0,225.0,0
2216,-54.0,-61.0,223.0,0
2217,-48.0,-63.0,217.0,0
2218,-49.0,-62.0,216.0,0
2219,-47.0,-63.0,215.0,0
2220,-46.0,-63.0,217.0,0
2221,-43.0,-65.0,215.0,0
2222,-41.0,-64.0,216.0,0
2223,-39.0,-64.0,219.0,0
2224,-30.0,-65.0,218.0,0
2225,-33.0,-64.0,221.0,0
2226,-31.0,-60.0,223.0,0
2227,-29.0,-58.0,223.0,0
2228,-26.0,-55.0,228.0,0
2229,-23.0,-56.0,229.0,0
2230,-20.0,-52.0,228.0,0
2231,-18.0,-53.0,230.0,0
2232,-14.0,-49.0,226.0,0
2233,-19.0,-46.0,231.0,0
2234,-17.0,-50.0,233.0,0
2235,-18.0,-48.0,232.0,0
2236,-21.0,-47.0,235.0,0
2237,-19.0,-47.0,233.0,0
2238,-21.0,-48.0,234.0,0
2239,-20.0,-44.0,238.0,0
2240,-21.0,-46.0,240.0,0
2241,-23.0,-49.0,240.0,0
2242,-23.0,-47.0,240.0,0
2243,-27.0,-45.0,242.0,0
2244,-24.0,-48.0,238.0,0
2245,-24.0,-45.0,241.0,0
2246,-29.0,-44.0,239.0,0
2247,-30.0,-46.0,239.0,0
2248,-31.0,-47.0,235.0,0
2249,-35.0,-45.0,238.0,0
2250,-35.0,-45.0,233.0,0
2251,-38.0,-45.0,235.0,0
2252,-38.0,-48.0,232.0,0
2253,-36.0,-51.0,236.0,0
2254,-36.0,-53.0,231.0,0
2255,-37.0,-51.0,232.0,0
2256,-34.0,-53.0,231.0,0
2257,-36.0,-51.0,230.0,0
2258,-32.0,-49.0,230.0,0
2259,-33.0,-51.0,229.0,0
2260,-30.0,-47.0,230.0,0
2261,-29.0,-49.0,228.0,0
2262,-27.0,-46.0,230.0,0
2263,-23.0,-49.0,231.0,0
2264,-25.0,-49.0,229.0,0
2265,-24.0,-44.0,232.0,0
2266,-24.0,-46.0,230.0,0
2267,-24.0,-46.0,236.0,0
2268,-24.0,-47.0,230.0,0
2269,-23.0,-49.0,233.0,0
2270,-25.0,-47.0,233.0,0
2271,-25.0,-43.0,234.0,0
2272,-21.0,-48.0,234.0,0
2273,-23.0,-47.0,234.0,0
2274,-18.0,-47.0,232.0,0
2275,-19.0,-46.0,235.0,0
2276,-21.0,-45.0,234.0,0
2277,-21.0,-45.0,233.0,0
2278,-20.0,-45.0,235.0,0
2279,-19.0,-45.0,235.0,0
2280,-19.0,-46.0,232.0,0
2281,-23.0,-46.0,233.0,0
2282,-25.0,-44.0,235.0,0
2283,-24.0,-44.0,236.0,0
2284,-25.0,-47.0,236.0,0
2285,-28.0,-49.0,234.0,0
2286,-24.0,-50.0,234.0,0
2287,-27.0,-47.0,235.0,0
2288,-24.0,-50.0,232.0,0
2289,-27.0,-49.0,234.0,0
2290,-23.0,-46.0,231.0,0
2291,-27.0,-46.0,230.0,0
2292,-23.0,-45.0,234.0,0
2293,-22.0,-46.0,230.0,0
2294,-24.0,-49.0,232.0,0
2295,-21.0,-45.0,233.0,0
2296,-20.0,-48.0,232.0,0
2297,-19.0,-46.0,236.0,0
2298,-18.0,-47.0,238.0,0
2299,-15.0,-49.0,233.0,0
2300,-12.0,-45.0,235.0,0
2301,-16.0,-47.0,235.0,0
2302,-14.0,-45.0,238.0,0
2303,-13.0,-45.0,236.0,0
2304,-12.0,-39.0,234.0,0
2305,-12.0,-44.0,229.0,0
2306,-14.0,-40.0,232.0,0
2307,-12.0,-41.0,234.0,0
2308,-12.0,-42.0,234.0,0
2309,-15.0,-40.0,238.0,0
2310,-15.0,-40.0,236.0,0
2311,-16.0,-41.0,233.0,0
2312,-15.0,-42.0,234.0,0
2313,-16.0,-44.0,235.0,0
2314,-16.0,-42.0,234.0,0
2315,-15.0,-45.0,236.0,0
2316,-19.0,-44.0,237.0,0
2317,-22.0,-45.0,236.0,0
2318,-22.0,-46.0,239.0,0
2319,-23.0,-47.0,236.0,0
2320,-25.0,-47.0,239.0,0
2321,-26.0,-46.0,234.0,0
2322,-24.0,-50.0,237.0,0
2323,-23.0,-46.0,234.0,0
2324,-26.0,-44.0,234.0,0
2325,-25.0,-49.0,236.0,0
2326,-28.0,-44.0,234.0,0
2327,-29.0,-45.0,233.0,0
2328,-28.0,-48.0,231.0,0
2329,-29.0,-48.0,237.0,0
2330,-28.0,-44.0,234.0,0
2331,-28.0,-43.0,232.0,0
2332,-26.0,-48.0,229.0,0
2333,-31.0,-45.0,231.0,0
2334,-28.0,-44.0,233.0,0
2335,-26.0,-49.0,235.0,0
2336,-30.0,-46.0,231.0,0
2337,-31.0,-44.0,231.0,0
2338,-29.0,-44.0,235.0,0
2339,-30.0,-44.0,228.0,0
2340,-32.0,-42.0,235.0,0
2341,-28.0,-46.0,233.0,0
2342,-31.0,-46.0,231.0,0
2343,-30.0,-45.0,228.0,0
2344,-33.0,-41.0,233.0,0
2345,-33.0,-42.0,234.0,0
2346,-28.0,-42.0,231.0,0
2347,-30.0,-42.0,231.0,0
2348,-28.0,-41.0,231.0,0
2349,-29.0,-44.0,230.0,0
2350,-29.0,-41.0,236.0,0
2351,-27.0,-43.0,236.0,0
2352,-27.0,-42.0,238.0,0
2353,-29.0,-42.0,233.0,0
2354,-28.0,-43.0,235.0,0
2355,-27.0,-41.0,238.0,0
2356,-30.0,-42.0,232.0,0
2357,-25.0,-43.0,235.0,0
2358,-29.0,-43.0,234.0,0
2359,-27.0,-44.0,236.0,0
2360,-24.0,-45.0,239.0,0
2361,-25.0,-44.0,235.0,0
2362,-24.0,-47.0,232.0,0
2363,-25.0,-44.0,232.0,0
2364,-24.0,-44.0,234.0,0
2365,-21.0,-44.0,233.0,0
2366,-20.0,-48.0,232.0,0
2367,-21.0,-46.0,232.0,0
2368,-21.0,-45.0,230.0,0
2369,-21.0,-43.0,232.0,0
2370,-23.0,-46.0,231.0,0
2371,-23.0,-44.0,232.0,0
2372,-21.0,-44.0,234.0,0
2373,-22.0,-46.0,233.0,0
2374,-21.0,-45.0,236.0,0
2375,-21.0,-45.0,234.0,0
2376,-19.0,-51.0,233.0,0
2377,-21.0,-44.0,234.0,0
2378,-23.0,-48.0,237.0,0
2379,-19.0,-45.0,227.0,0
2380,-21.0,-42.0,237.0,0
2381,-19.0,-41.0,233.0,0
2382,-16.0,-43.0,235.0,0
2383,-14.0,-44.0,238.0,0
2384,-17.0,-45.0,232.0,0
2385,-19.0,-42.0,236.0,0
2386,-21.0,-40.0,237.0,0
2387,-20.0,-45.0,235.0,0
2388,-22.0,-46.0,232.0,0
2389,-21.0,-46.0,233.0,0
2390,-22.0,-45.0,235.0,0
2391,-22.0,-47.0,231.0,0
2392,-21.0,-47.0,236.0,0
2393,-22.0,-48.0,231.0,0
2394,-22.0,-46.0,233.0,0
2395,-24.0,-47.0,236.0,0
2396,-24.0,-48.0,237.0,0
2397,-22.0,-49.0,234.0,0
2398,-23.0,-44.0,233.0,0
2399,-22.0,-47.0,232.0,0
