,accelerometer_x,accelerometer_y,accelerometer_z,fall
0,31.0,-234.0,47.0,0
1,27.0,-231.0,42.0,0
2,28.0,-233.0,42.0,0
3,29.0,-239.0,40.0,0
4,29.0,-239.0,41.0,0
5,26.0,-235.0,41.0,0
6,27.0,-238.0,45.0,0
7,28.0,-237.0,43.0,0
8,28.0,-239.0,47.0,0
9,25.0,-237.0,43.0,0
10,33.0,-238.0,43.0,0
11,28.0,-236.0,45.0,0
12,31.0,-237.0,45.0,0
13,31.0,-236.0,45.0,0
14,33.0,-235.0,49.0,0
15,35.0,-239.0,53.0,0
16,31.0,-228.0,50.0,0
17,29.0,-231.0,47.0,0
18,25.0,-232.0,48.0,0
19,27.0,-233.0,50.0,0
20,27.0,-233.0,49.0,0
21,26.0,-235.0,50.0,0
22,28.0,-233.0,48.0,0
23,27.0,-232.0,49.0,0
24,27.0,-236.0,53.0,0
25,25.0,-234.0,58.0,0
26,24.0,-235.0,60.0,0
27,24.0,-236.0,53.0,0
28,24.0,-235.0,51.0,0
29,25.0,-239.0,58.0,0
30,23.0,-238.0,56.0,0
31,25.0,-240.0,56.0,0
32,25.0,-240.0,57.0,0
33,28.0,-239.0,62.0,0
34,24.0,-238.0,56.0,0
35,25.0,-242.0,59.0,0
36,26.0,-240.0,62.0,0
37,18.0,-234.0,56.0,0
38,21.0,-237.0,59.0,0
39,22.0,-236.0,62.0,0
40,25.0,-233.0,60.0,0
41,22.0,-233.0,57.0,0
42,23.0,-233.0,59.0,0
43,20.0,-229.0,57.0,0
44,22.0,-233.0,58.0,0
45,22.0,-228.0,60.0,0
46,22.0,-229.0,57.0,0
47,23.0,-229.0,59.0,0
48,19.0,-223.0,58.0,0
49,24.0,-230.0,59.0,0
50,24.0,-232.0,59.0,0
51,22.0,-233.0,61.0,0
52,27.0,-232.0,55.0,0
53,26.0,-234.0,60.0,0
54,28.0,-233.0,58.0,0
55,26.0,-234.0,62.0,0
56,24.0,-233.0,56.0,0
57,26.0,-229.0,61.0,0
58,24.0,-230.0,56.0,0
59,27.0,-232.0,54.0,0
60,25.0,-231.0,56.0,0
61,25.0,-232.0,54.0,0
62,20.0,-231.0,63.0,0
63,20.0,-230.0,59.0,0
64,21.0,-233.0,60.0,0
65,23.0,-234.0,59.0,0
66,21.0,-232.0,61.0,0
67,22.0,-232.0,63.0,0
68,21.0,-232.0,63.0,0
69,21.0,-229.0,60.0,0
70,21.0,-230.0,62.0,0
71,24.0,-232.0,64.0,0
72,23.0,-230.0,62.0,0
73,24.0,-231.0,61.0,0
74,25.0,-232.0,62.0,0
75,24.0,-229.0,65.0,0
76,27.0,-232.0,61.0,0
77,22.0,-232.0,62.0,0
78,27.0,-233.0,57.0,0
79,24.0,-229.0,65.0,0
80,27.0,-232.0,65.0,0
81,29.0,-230.0,66.0,0
82,25.0,-234.0,65.0,0
83,29.0,-236.0,65.0,0
84,26.0,-233.0,61.0,0
85,27.0,-235.0,66.0,0
86,29.0,-234.0,65.0,0
87,26.0,-231.0,64.0,0
88,26.0,-230.0,60.0,0
89,30.0,-231.0,61.0,0
90,25.0,-229.0,57.0,0
91,30.0,-230.0,59.0,0
92,29.0,-221.0,65.0,0
93,30.0,-230.0,60.0,0
94,31.0,-230.0,63.0,0
95,30.0,-232.0,65.0,0
96,29.0,-229.0,60.0,0
97,31.0,-234.0,61.0,0
98,29.0,-234.0,62.0,0
99,29.0,-232.0,62.0,0
100,28.0,-231.0,59.0,0
101,29.0,-231.0,65.0,0
102,29.0,-228.0,62.0,0
103,34.0,-233.0,60.0,0
104,26.0,-225.0,61.0,0
105,29.0,-227.0,60.0,0
106,27.0,-229.0,60.0,0
107,32.0,-229.0,61.0,0
108,30.0,-227.0,60.0,0
109,29.0,-229.0,65.0,0
110,27.0,-229.0,62.0,0
111,29.0,-231.0,59.0,0
112,31.0,-227.0,63.0,0
113,35.0,-225.0,61.0,0
114,30.0,-231.0,60.0,0
115,30.0,-230.0,64.0,0
116,28.0,-230.0,61.0,0
117,26.0,-229.0,61.0,0
118,29.0,-227.0,63.0,0
119,29.0,-231.0,58.0,0
120,26.0,-228.0,56.0,0
121,28.0,-228.0,63.0,0
122,30.0,-233.0,60.0,0
123,28.0,-230.0,64.0,0
124,25.0,-233.0,62.0,0
125,28.0,-231.0,60.0,0
126,28.0,-232.0,62.0,0
127,27.0,-231.0,61.0,0
128,30.0,-230.0,63.0,0
129,28.0,-227.0,58.0,0
130,26.0,-227.0,62.0,0
131,25.0,-230.0,64.0,0
132,25.0,-228.0,60.0,0
133,26.0,-227.0,63.0,0
134,29.0,-228.0,66.0,0
135,25.0,-232.0,62.0,0
136,28.0,-230.0,64.0,0
137,24.0,-228.0,64.0,0
138,27.0,-231.0,62.0,0
139,27.0,-232.0,63.0,0
140,27.0,-232.0,62.0,0
141,25.0,-228.0,62.0,0
142,29.0,-235.0,63.0,0
143,27.0,-229.0,63.0,0
144,27.0,-234.0,63.0,0
145,23.0,-233.0,63.0,0
146,26.0,-230.0,63.0,0
147,23.0,-229.0,61.0,0
148,24.0,-232.0,64.0,0
149,24.0,-231.0,67.0,0
150,28.0,-230.0,58.0,0
151,24.0,-233.0,65.0,0
152,26.0,-233.0,62.0,0
153,26.0,-232.0,62.0,0
154,25.0,-228.0,69.0,0
155,23.0,-229.0,64.0,0
156,25.0,-230.0,62.0,0
157,28.0,-231.0,65.0,0
158,26.0,-231.0,62.0,0
159,26.0,-230.0,60.0,0
160,24.0,-231.0,63.0,0
161,24.0,-233.0,64.0,0
162,26.0,-233.0,62.0,0
163,23.0,-226.0,63.0,0
164,24.0,-231.0,61.0,0
165,24.0,-231.0,62.0,0
166,22.0,-232.0,60.0,0
167,25.0,-229.0,65.0,0
168,21.0,-227.0,59.0,0
169,23.0,-230.0,60.0,0
170,26.0,-232.0,64.0,0
171,25.0,-232.0,61.0,0
172,22.0,-231.0,66.0,0
173,23.0,-230.0,62.0,0
174,25.0,-232.0,61.0,0
175,24.0,-232.0,64.0,0
176,27.0,-233.0,63.0,0
177,26.0,-230.0,63.0,0
178,28.0,-232.0,63.0,0
179,31.0,-232.0,64.0,0
180,28.0,-227.0,62.0,0
181,28.0,-231.0,62.0,0
182,27.0,-227.0,64.0,0
183,27.0,-226.0,65.0,0
184,27.0,-227.0,66.0,0
185,29.0,-230.0,67.0,0
186,26.0,-229.0,67.0,0
187,28.0,-229.0,61.0,0
188,24.0,-230.0,68.0,0
189,28.0,-231.0,68.0,0
190,34.0,-228.0,70.0,0
191,29.0,-233.0,67.0,0
192,29.0,-234.0,68.0,0
193,29.0,-232.0,64.0,0
194,27.0,-230.0,68.0,0
195,28.0,-231.0,66.0,0
196,30.0,-231.0,66.0,0
197,26.0,-230.0,65.0,0
198,26.0,-229.0,62.0,0
199,27.0,-229.0,66.0,0
200,28.0,-232.0,68.0,0
201,27.0,-228.0,80.0,0
202,25.0,-224.0,67.0,0
203,25.0,-227.0,66.0,0
204,28.0,-225.0,65.0,0
205,27.0,-230.0,68.0,0
206,25.0,-228.0,65.0,0
207,28.0,-228.0,67.0,0
208,27.0,-228.0,69.0,0
209,28.0,-227.0,70.0,0
210,28.0,-226.0,66.0,0
211,29.0,-233.0,67.0,0
212,28.0,-230.0,65.0,0
213,30.0,-225.0,61.0,0
214,31.0,-228.0,65.0,0
215,29.0,-229.0,69.0,0
216,31.0,-229.0,67.0,0
217,29.0,-229.0,67.0,0
218,31.0,-229.0,63.0,0
219,30.0,-231.0,63.0,0
220,26.0,-227.0,62.0,0
221,31.0,-229.0,69.0,0
222,29.0,-230.0,67.0,0
223,30.0,-228.0,62.0,0
224,27.0,-227.0,67.0,0
225,30.0,-232.0,69.0,0
226,29.0,-229.0,65.0,0
227,26.0,-226.0,68.0,0
228,30.0,-228.0,65.0,0
229,28.0,-229.0,70.0,0
230,26.0,-227.0,67.0,0
231,32.0,-229.0,68.0,0
232,26.0,-229.0,64.0,0
233,38.0,-232.0,66.0,0
234,30.0,-226.0,63.0,0
235,32.0,-228.0,69.0,0
236,26.0,-226.0,67.0,0
237,25.0,-227.0,70.0,0
238,27.0,-228.0,66.0,0
239,27.0,-229.0,71.0,0
240,29.0,-229.0,69.0,0
241,28.0,-227.0,68.0,0
242,29.0,-227.0,66.0,0
243,28.0,-229.0,62.0,0
244,32.0,-229.0,75.0,0
245,30.0,-231.0,68.0,0
246,30.0,-231.0,66.0,0
247,29.0,-231.0,69.0,0
248,31.0,-229.0,67.0,0
249,29.0,-231.0,68.0,0
250,28.0,-231.0,68.0,0
251,24.0,-229.0,66.0,0
252,25.0,-228.0,69.0,0
253,28.0,-229.0,71.0,0
254,28.0,-232.0,68.0,0
255,26.0,-237.0,68.0,0
256,25.0,-230.0,67.0,0
257,26.0,-231.0,66.0,0
258,28.0,-231.0,68.0,0
259,26.0,-229.0,67.0,0
260,24.0,-228.0,70.0,0
261,24.0,-228.0,67.0,0
262,24.0,-231.0,67.0,0
263,23.0,-230.0,67.0,0
264,22.0,-227.0,65.0,0
265,29.0,-229.0,66.0,0
266,27.0,-225.0,67.0,0
267,26.0,-227.0,64.0,0
268,26.0,-226.0,67.0,0
269,27.0,-228.0,67.0,0
270,25.0,-227.0,67.0,0
271,26.0,-227.0,64.0,0
272,26.0,-226.0,66.0,0
273,26.0,-231.0,60.0,0
274,26.0,-229.0,65.0,0
275,23.0,-228.0,65.0,0
276,26.0,-232.0,66.0,0
277,27.0,-226.0,63.0,0
278,29.0,-230.0,70.0,0
279,28.0,-230.0,65.0,0
280,28.0,-228.0,67.0,0
281,29.0,-229.0,68.0,0
282,30.0,-231.0,62.0,0
283,32.0,-232.0,67.0,0
284,34.0,-229.0,65.0,0
285,32.0,-227.0,66.0,0
286,30.0,-228.0,64.0,0
287,30.0,-229.0,69.0,0
288,28.0,-224.0,60.0,0
289,29.0,-228.0,68.0,0
290,29.0,-229.0,69.0,0
291,25.0,-228.0,65.0,0
292,28.0,-229.0,66.0,0
293,31.0,-232.0,64.0,0
294,27.0,-229.0,68.0,0
295,27.0,-227.0,66.0,0
296,27.0,-230.0,70.0,0
297,25.0,-230.0,70.0,0
298,26.0,-231.0,70.0,0
299,26.0,-231.0,72.0,0
300,27.0,-232.0,66.0,0
301,28.0,-232.0,64.0,0
302,25.0,-233.0,65.0,0
303,26.0,-233.0,64.0,0
304,26.0,-231.0,68.0,0
305,25.0,-236.0,63.0,0
306,26.0,-237.0,63.0,0
307,27.0,-231.0,62.0,0
308,23.0,-231.0,63.0,0
309,22.0,-226.0,67.0,0
310,28.0,-226.0,64.0,0
311,23.0,-228.0,63.0,0
312,25.0,-228.0,62.0,0
313,21.0,-225.0,64.0,0
314,28.0,-229.0,61.0,0
315,25.0,-229.0,62.0,0
316,25.0,-228.0,64.0,0
317,25.0,-229.0,66.0,0
318,26.0,-231.0,62.0,0
319,24.0,-230.0,66.0,0
320,27.0,-228.0,66.0,0
321,31.0,-230.0,65.0,0
322,30.0,-229.0,68.0,0
323,32.0,-228.0,70.0,0
324,32.0,-229.0,68.0,0
325,33.0,-230.0,66.0,0
326,32.0,-229.0,64.0,0
327,33.0,-230.0,63.0,0
328,30.0,-231.0,66.0,0
329,34.0,-232.0,65.0,0
330,32.0,-231.0,65.0,0
331,31.0,-232.0,65.0,0
332,33.0,-230.0,66.0,0
333,29.0,-228.0,66.0,0
334,30.0,-230.0,68.0,0
335,29.0,-230.0,66.0,0
336,30.0,-232.0,65.0,0
337,26.0,-228.0,66.0,0
338,28.0,-232.0,63.0,0
339,28.0,-228.0,67.0,0
340,26.0,-228.0,65.0,0
341,27.0,-230.0,65.0,0
342,25.0,-233.0,65.0,0
343,23.0,-228.0,64.0,0
344,23.0,-231.0,72.0,0
345,27.0,-227.0,64.0,0
346,25.0,-231.0,66.0,0
347,27.0,-230.0,66.0,0
348,27.0,-232.0,64.0,0
349,28.0,-229.0,67.0,0
350,25.0,-235.0,62.0,0
351,27.0,-232.0,66.0,0
352,28.0,-230.0,64.0,0
353,28.0,-231.0,69.0,0
354,24.0,-233.0,62.0,0
355,26.0,-231.0,67.0,0
356,26.0,-230.0,67.0,0
357,23.0,-230.0,69.0,0
358,23.0,-226.0,65.0,0
359,24.0,-228.0,67.0,0
360,23.0,-230.0,70.0,0
361,26.0,-229.0,67.0,0
362,25.0,-227.0,66.0,0
363,26.0,-226.0,70.0,0
364,26.0,-228.0,67.0,0
365,27.0,-229.0,66.0,0
366,24.0,-229.0,68.0,0
367,28.0,-227.0,72.0,0
368,26.0,-228.0,68.0,0
369,27.0,-226.0,68.0,0
370,30.0,-229.0,71.0,0
371,26.0,-227.0,70.0,0
372,29.0,-228.0,77.0,0
373,27.0,-228.0,73.0,0
374,28.0,-227.0,73.0,0
375,21.0,-228.0,69.0,0
376,25.0,-226.0,73.0,0
377,26.0,-229.0,71.0,0
378,23.0,-228.0,71.0,0
379,28.0,-230.0,74.0,0
380,22.0,-229.0,72.0,0
381,25.0,-229.0,71.0,0
382,27.0,-228.0,72.0,0
383,24.0,-228.0,71.0,0
384,29.0,-232.0,72.0,0
385,26.0,-226.0,72.0,0
386,23.0,-226.0,70.0,0
387,26.0,-224.0,70.0,0
388,30.0,-226.0,70.0,0
389,27.0,-226.0,72.0,0
390,27.0,-226.0,70.0,0
391,29.0,-225.0,73.0,0
392,28.0,-227.0,69.0,0
393,28.0,-225.0,71.0,0
394,30.0,-223.0,72.0,0
395,29.0,-227.0,70.0,0
396,32.0,-229.0,62.0,0
397,31.0,-232.0,59.0,0
398,29.0,-227.0,67.0,0
399,31.0,-229.0,68.0,0
400,31.0,-230.0,66.0,0
401,26.0,-226.0,66.0,0
402,29.0,-227.0,68.0,0
403,32.0,-225.0,69.0,0
404,29.0,-224.0,71.0,0
405,29.0,-225.0,72.0,0
406,29.0,-224.0,71.0,0
407,28.0,-222.0,73.0,0
408,27.0,-222.0,69.0,0
409,28.0,-223.0,73.0,0
410,28.0,-224.0,74.0,0
411,29.0,-222.0,72.0,0
412,28.0,-224.0,71.0,0
413,32.0,-227.0,71.0,0
414,29.0,-229.0,76.0,0
415,31.0,-230.0,72.0,0
416,30.0,-230.0,71.0,0
417,31.0,-230.0,75.0,0
418,30.0,-230.0,74.0,0
419,32.0,-232.0,75.0,0
420,34.0,-233.0,74.0,0
421,30.0,-228.0,75.0,0
422,30.0,-228.0,73.0,0
423,29.0,-225.0,74.0,0
424,30.0,-225.0,74.0,0
425,26.0,-221.0,73.0,0
426,26.0,-222.0,73.0,0
427,28.0,-225.0,73.0,0
428,26.0,-221.0,72.0,0
429,29.0,-224.0,83.0,0
430,26.0,-223.0,75.0,0
431,27.0,-224.0,76.0,0
432,29.0,-225.0,76.0,0
433,27.0,-224.0,76.0,0
434,26.0,-225.0,75.0,0
435,32.0,-225.0,76.0,0
436,31.0,-226.0,73.0,0
437,29.0,-225.0,74.0,0
438,33.0,-228.0,74.0,0
439,31.0,-225.0,76.0,0
440,29.0,-229.0,74.0,0
441,27.0,-227.0,74.0,0
442,26.0,-224.0,73.0,0
443,28.0,-226.0,75.0,0
444,27.0,-224.0,74.0,0
445,26.0,-225.0,76.0,0
446,29.0,-224.0,75.0,0
447,29.0,-222.0,74.0,0
448,28.0,-227.0,76.0,0
449,25.0,-224.0,72.0,0
450,30.0,-226.0,74.0,0
451,26.0,-227.0,73.0,0
452,28.0,-225.0,76.0,0
453,29.0,-226.0,73.0,0
454,31.0,-225.0,71.0,0
455,27.0,-225.0,71.0,0
456,29.0,-228.0,72.0,0
457,30.0,-227.0,72.0,0
458,27.0,-227.0,75.0,0
459,28.0,-223.0,71.0,0
460,27.0,-224.0,72.0,0
461,24.0,-226.0,69.0,0
462,31.0,-228.0,71.0,0
463,29.0,-229.0,73.0,0
464,30.0,-225.0,72.0,0
465,30.0,-225.0,75.0,0
466,26.0,-223.0,73.0,0
467,28.0,-226.0,75.0,0
468,29.0,-227.0,70.0,0
469,28.0,-224.0,79.0,0
470,28.0,-228.0,74.0,0
471,31.0,-225.0,72.0,0
472,25.0,-225.0,72.0,0
473,26.0,-218.0,72.0,0
474,26.0,-227.0,73.0,0
475,29.0,-223.0,75.0,0
476,29.0,-227.0,73.0,0
477,29.0,-226.0,75.0,0
478,28.0,-225.0,74.0,0
479,30.0,-229.0,74.0,0
480,28.0,-224.0,71.0,0
481,28.0,-223.0,73.0,0
482,28.0,-227.0,73.0,0
483,25.0,-226.0,76.0,0
484,23.0,-230.0,78.0,0
485,26.0,-225.0,77.0,0
486,26.0,-228.0,73.0,0
487,28.0,-227.0,73.0,0
488,28.0,-223.0,74.0,0
489,26.0,-227.0,76.0,0
490,28.0,-228.0,75.0,0
491,24.0,-226.0,72.0,0
492,26.0,-226.0,77.0,0
493,26.0,-225.0,73.0,0
494,26.0,-227.0,73.0,0
495,29.0,-228.0,74.0,0
496,28.0,-228.0,73.0,0
497,26.0,-226.0,77.0,0
498,29.0,-223.0,73.0,0
499,27.0,-224.0,76.0,0
500,29.0,-227.0,74.0,0
501,28.0,-228.0,73.0,0
502,26.0,-222.0,71.0,0
503,29.0,-227.0,74.0,0
504,30.0,-228.0,73.0,0
505,29.0,-222.0,70.0,0
506,31.0,-229.0,69.0,0
507,30.0,-225.0,76.0,0
508,28.0,-223.0,72.0,0
509,27.0,-222.0,74.0,0
510,28.0,-225.0,70.0,0
511,25.0,-228.0,71.0,0
512,28.0,-227.0,69.0,0
513,28.0,-225.0,71.0,0
514,29.0,-225.0,68.0,0
515,31.0,-229.0,72.0,0
516,19.0,-220.0,75.0,0
517,22.0,-227.0,71.0,0
518,26.0,-225.0,68.0,0
519,28.0,-231.0,67.0,0
520,32.0,-230.0,72.0,0
521,28.0,-226.0,69.0,0
522,28.0,-229.0,68.0,0
523,30.0,-229.0,71.0,0
524,29.0,-231.0,67.0,0
525,27.0,-229.0,69.0,0
526,29.0,-228.0,70.0,0
527,33.0,-231.0,66.0,0
528,30.0,-228.0,73.0,0
529,27.0,-226.0,69.0,0
530,30.0,-229.0,69.0,0
531,28.0,-225.0,71.0,0
532,29.0,-226.0,71.0,0
533,27.0,-227.0,76.0,0
534,27.0,-228.0,72.0,0
535,26.0,-228.0,69.0,0
536,27.0,-230.0,66.0,0
537,20.0,-224.0,69.0,0
538,29.0,-230.0,67.0,0
539,28.0,-226.0,66.0,0
540,26.0,-226.0,67.0,0
541,28.0,-228.0,67.0,0
542,28.0,-227.0,73.0,0
543,27.0,-225.0,73.0,0
544,28.0,-226.0,67.0,0
545,31.0,-228.0,69.0,0
546,29.0,-227.0,66.0,0
547,25.0,-230.0,69.0,0
548,30.0,-229.0,69.0,0
549,26.0,-228.0,70.0,0
550,28.0,-228.0,70.0,0
551,28.0,-228.0,65.0,0
552,25.0,-227.0,73.0,0
553,27.0,-230.0,69.0,0
554,26.0,-229.0,65.0,0
555,27.0,-229.0,70.0,0
556,26.0,-229.0,69.0,0
557,25.0,-234.0,63.0,0
558,28.0,-229.0,67.0,0
559,31.0,-234.0,65.0,0
560,31.0,-231.0,70.0,0
561,26.0,-227.0,67.0,0
562,28.0,-230.0,69.0,0
563,27.0,-228.0,71.0,0
564,25.0,-228.0,64.0,0
565,28.0,-228.0,64.0,0
566,25.0,-227.0,69.0,0
567,27.0,-228.0,71.0,0
568,27.0,-228.0,69.0,0
569,30.0,-228.0,68.0,0
570,23.0,-222.0,71.0,0
571,27.0,-226.0,70.0,0
572,26.0,-226.0,69.0,0
573,29.0,-232.0,69.0,0
574,29.0,-229.0,73.0,0
575,27.0,-230.0,71.0,0
576,26.0,-230.0,73.0,0
577,25.0,-225.0,67.0,0
578,26.0,-229.0,71.0,0
579,28.0,-230.0,64.0,0
580,27.0,-231.0,66.0,0
581,32.0,-228.0,72.0,0
582,23.0,-229.0,63.0,0
583,15.0,-234.0,75.0,0
584,30.0,-229.0,69.0,0
585,26.0,-223.0,65.0,0
586,31.0,-229.0,69.0,0
587,26.0,-226.0,70.0,0
588,28.0,-227.0,71.0,0
589,31.0,-227.0,70.0,0
590,29.0,-229.0,67.0,0
591,25.0,-226.0,69.0,0
592,24.0,-228.0,68.0,0
593,25.0,-228.0,74.0,0
594,28.0,-231.0,70.0,0
595,25.0,-228.0,71.0,0
596,26.0,-229.0,72.0,0
597,28.0,-229.0,69.0,0
598,26.0,-228.0,72.0,0
599,25.0,-224.0,75.0,0
600,28.0,-227.0,71.0,0
601,27.0,-228.0,73.0,0
602,26.0,-226.0,68.0,0
603,25.0,-226.0,67.0,0
604,29.0,-227.0,70.0,0
605,27.0,-229.0,72.0,0
606,30.0,-230.0,68.0,0
607,26.0,-229.0,66.0,0
608,27.0,-229.0,69.0,0
609,28.0,-228.0,73.0,0
610,27.0,-228.0,70.0,0
611,26.0,-229.0,63.0,0
612,27.0,-227.0,69.0,0
613,29.0,-232.0,69.0,0
614,27.0,-224.0,69.0,0
615,29.0,-229.0,75.0,0
616,28.0,-227.0,69.0,0
617,28.0,-229.0,69.0,0
618,25.0,-230.0,70.0,0
619,24.0,-226.0,67.0,0
620,29.0,-228.0,65.0,0
621,27.0,-224.0,72.0,0
622,30.0,-229.0,69.0,0
623,28.0,-228.0,73.0,0
624,28.0,-232.0,65.0,0
625,27.0,-227.0,67.0,0
626,28.0,-227.0,70.0,0
627,28.0,-226.0,68.0,0
628,29.0,-227.0,67.0,0
629,28.0,-226.0,68.0,0
630,28.0,-223.0,70.0,0
631,26.0,-225.0,75.0,0
632,28.0,-224.0,72.0,0
633,30.0,-227.0,69.0,0
634,30.0,-227.0,69.0,0
635,27.0,-225.0,67.0,0
636,26.0,-227.0,72.0,0
637,30.0,-233.0,70.0,0
638,29.0,-230.0,70.0,0
639,29.0,-230.0,71.0,0
640,28.0,-229.0,71.0,0
641,30.0,-230.0,68.0,0
642,29.0,-227.0,71.0,0
643,30.0,-228.0,68.0,0
644,25.0,-226.0,67.0,0
645,30.0,-227.0,67.0,0
646,30.0,-227.0,68.0,0
647,27.0,-230.0,59.0,0
648,24.0,-223.0,74.0,0
649,27.0,-225.0,73.0,0
650,30.0,-228.0,72.0,0
651,26.0,-226.0,69.0,0
652,29.0,-230.0,71.0,0
653,27.0,-228.0,69.0,0
654,26.0,-226.0,70.0,0
655,27.0,-229.0,69.0,0
656,27.0,-230.0,73.0,0
657,29.0,-229.0,70.0,0
658,26.0,-221.0,71.0,0
659,29.0,-227.0,69.0,0
660,28.0,-228.0,70.0,0
661,28.0,-227.0,69.0,0
662,30.0,-232.0,70.0,0
663,25.0,-227.0,70.0,0
664,27.0,-227.0,67.0,0
665,26.0,-225.0,70.0,0
666,28.0,-228.0,70.0,0
667,27.0,-227.0,68.0,0
668,29.0,-226.0,70.0,0
669,28.0,-226.0,75.0,0
670,28.0,-227.0,69.0,0
671,27.0,-228.0,74.0,0
672,27.0,-229.0,73.0,0
673,29.0,-225.0,74.0,0
674,27.0,-230.0,74.0,0
675,26.0,-228.0,74.0,0
676,28.0,-226.0,74.0,0
677,30.0,-228.0,72.0,0
678,28.0,-230.0,74.0,0
679,31.0,-233.0,73.0,0
680,33.0,-233.0,73.0,0
681,33.0,-231.0,71.0,0
682,36.0,-229.0,74.0,0
683,37.0,-229.0,72.0,0
684,39.0,-228.0,74.0,0
685,41.0,-226.0,76.0,0
686,42.0,-226.0,76.0,0
687,39.0,-223.0,75.0,0
688,40.0,-225.0,74.0,0
689,36.0,-226.0,77.0,0
690,30.0,-228.0,78.0,0
691,19.0,-231.0,75.0,0
692,19.0,-232.0,76.0,0
693,14.0,-235.0,74.0,0
694,12.0,-236.0,77.0,0
695,6.0,-239.0,73.0,0
696,6.0,-238.0,71.0,0
697,4.0,-241.0,71.0,0
698,5.0,-239.0,68.0,0
699,4.0,-236.0,68.0,0
700,8.0,-234.0,71.0,0
701,11.0,-231.0,73.0,0
702,16.0,-228.0,73.0,0
703,19.0,-223.0,67.0,0
704,21.0,-220.0,67.0,0
705,22.0,-218.0,68.0,0
706,25.0,-217.0,66.0,0
707,25.0,-218.0,67.0,0
708,26.0,-218.0,63.0,0
709,26.0,-222.0,65.0,0
710,26.0,-220.0,63.0,0
711,28.0,-216.0,65.0,0
712,26.0,-221.0,63.0,0
713,31.0,-224.0,72.0,0
714,31.0,-223.0,68.0,0
715,34.0,-223.0,70.0,0
716,32.0,-224.0,73.0,0
717,34.0,-223.0,69.0,0
718,33.0,-221.0,74.0,0
719,38.0,-222.0,71.0,0
720,36.0,-224.0,73.0,0
721,35.0,-223.0,74.0,0
722,34.0,-224.0,74.0,0
723,41.0,-218.0,76.0,0
724,37.0,-224.0,73.0,0
725,33.0,-223.0,75.0,0
726,32.0,-225.0,73.0,0
727,32.0,-230.0,73.0,0
728,32.0,-232.0,74.0,0
729,29.0,-232.0,71.0,0
730,32.0,-237.0,70.0,0
731,27.0,-239.0,72.0,0
732,27.0,-236.0,73.0,0
733,27.0,-238.0,73.0,0
734,25.0,-239.0,79.0,0
735,25.0,-236.0,71.0,0
736,21.0,-231.0,69.0,0
737,21.0,-229.0,71.0,0
738,19.0,-227.0,67.0,0
739,20.0,-226.0,68.0,0
740,17.0,-222.0,70.0,0
741,17.0,-220.0,71.0,0
742,18.0,-222.0,68.0,0
743,19.0,-220.0,67.0,0
744,24.0,-222.0,69.0,0
745,20.0,-222.0,64.0,0
746,21.0,-223.0,64.0,0
747,25.0,-224.0,66.0,0
748,26.0,-224.0,69.0,0
749,28.0,-222.0,70.0,0
750,27.0,-219.0,71.0,0
751,28.0,-220.0,71.0,0
752,33.0,-219.0,71.0,0
753,30.0,-218.0,73.0,0
754,29.0,-220.0,71.0,0
755,30.0,-220.0,75.0,0
756,28.0,-218.0,78.0,0
757,32.0,-220.0,76.0,0
758,30.0,-219.0,77.0,0
759,32.0,-218.0,77.0,0
760,31.0,-221.0,77.0,0
761,35.0,-224.0,74.0,0
762,35.0,-223.0,83.0,0
763,36.0,-226.0,77.0,0
764,34.0,-229.0,79.0,0
765,34.0,-231.0,77.0,0
766,36.0,-228.0,75.0,0
767,32.0,-230.0,76.0,0
768,36.0,-234.0,76.0,0
769,36.0,-232.0,77.0,0
770,31.0,-233.0,76.0,0
771,31.0,-231.0,79.0,0
772,30.0,-228.0,78.0,0
773,28.0,-229.0,78.0,0
774,30.0,-229.0,76.0,0
775,29.0,-225.0,79.0,0
776,26.0,-225.0,78.0,0
777,28.0,-225.0,79.0,0
778,29.0,-221.0,78.0,0
779,28.0,-222.0,80.0,0
780,24.0,-221.0,78.0,0
781,28.0,-222.0,80.0,0
782,28.0,-220.0,80.0,0
783,29.0,-222.0,77.0,0
784,26.0,-221.0,77.0,0
785,25.0,-219.0,77.0,0
786,26.0,-218.0,78.0,0
787,28.0,-221.0,79.0,0
788,27.0,-217.0,77.0,0
789,31.0,-219.0,77.0,0
790,27.0,-222.0,77.0,0
791,28.0,-222.0,77.0,0
792,28.0,-221.0,79.0,0
793,27.0,-221.0,80.0,0
794,28.0,-220.0,76.0,0
795,28.0,-221.0,77.0,0
796,29.0,-220.0,82.0,0
797,27.0,-222.0,81.0,0
798,29.0,-226.0,77.0,0
799,27.0,-225.0,79.0,0
800,30.0,-225.0,78.0,0
801,27.0,-223.0,77.0,0
802,29.0,-228.0,78.0,0
803,27.0,-223.0,80.0,0
804,30.0,-225.0,78.0,0
805,27.0,-228.0,82.0,0
806,31.0,-227.0,80.0,0
807,28.0,-224.0,82.0,0
808,27.0,-220.0,79.0,0
809,30.0,-222.0,79.0,0
810,28.0,-220.0,78.0,0
811,26.0,-220.0,76.0,0
812,29.0,-225.0,75.0,0
813,31.0,-218.0,85.0,0
814,26.0,-220.0,70.0,0
815,28.0,-219.0,83.0,0
816,24.0,-217.0,80.0,0
817,26.0,-221.0,78.0,0
818,27.0,-224.0,78.0,0
819,30.0,-222.0,77.0,0
820,23.0,-223.0,80.0,0
821,28.0,-221.0,77.0,0
822,28.0,-216.0,84.0,0
823,28.0,-223.0,78.0,0
824,28.0,-220.0,78.0,0
825,25.0,-223.0,78.0,0
826,28.0,-221.0,77.0,0
827,27.0,-221.0,75.0,0
828,27.0,-225.0,81.0,0
829,29.0,-225.0,76.0,0
830,26.0,-219.0,80.0,0
831,27.0,-221.0,78.0,0
832,25.0,-222.0,75.0,0
833,27.0,-224.0,80.0,0
834,26.0,-223.0,79.0,0
835,26.0,-222.0,77.0,0
836,27.0,-222.0,76.0,0
837,28.0,-226.0,77.0,0
838,29.0,-224.0,79.0,0
839,27.0,-224.0,80.0,0
840,26.0,-224.0,78.0,0
841,29.0,-221.0,78.0,0
842,29.0,-222.0,78.0,0
843,32.0,-220.0,82.0,0
844,29.0,-219.0,77.0,0
845,28.0,-219.0,77.0,0
846,29.0,-220.0,83.0,0
847,28.0,-219.0,74.0,0
848,30.0,-220.0,79.0,0
849,29.0,-218.0,78.0,0
850,27.0,-219.0,82.0,0
851,26.0,-221.0,78.0,0
852,31.0,-221.0,76.0,0
853,31.0,-219.0,78.0,0
854,30.0,-219.0,82.0,0
855,32.0,-226.0,80.0,0
856,32.0,-222.0,80.0,0
857,32.0,-226.0,82.0,0
858,34.0,-226.0,79.0,0
859,29.0,-223.0,78.0,0
860,34.0,-223.0,81.0,0
861,29.0,-223.0,81.0,0
862,32.0,-220.0,83.0,0
863,28.0,-221.0,82.0,0
864,29.0,-221.0,80.0,0
865,36.0,-220.0,84.0,0
866,30.0,-219.0,82.0,0
867,31.0,-219.0,79.0,0
868,28.0,-218.0,78.0,0
869,30.0,-219.0,80.0,0
870,29.0,-218.0,81.0,0
871,30.0,-221.0,80.0,0
872,31.0,-221.0,80.0,0
873,27.0,-222.0,82.0,0
874,30.0,-223.0,80.0,0
875,31.0,-225.0,86.0,0
876,33.0,-226.0,72.0,0
877,28.0,-218.0,77.0,0
878,29.0,-223.0,81.0,0
879,29.0,-221.0,84.0,0
880,33.0,-220.0,83.0,0
881,28.0,-216.0,83.0,0
882,31.0,-223.0,85.0,0
883,31.0,-220.0,82.0,0
884,30.0,-221.0,82.0,0
885,31.0,-217.0,83.0,0
886,31.0,-221.0,81.0,0
887,29.0,-216.0,90.0,0
888,32.0,-222.0,81.0,0
889,31.0,-223.0,81.0,0
890,29.0,-222.0,78.0,0
891,28.0,-218.0,81.0,0
892,29.0,-223.0,83.0,0
893,30.0,-218.0,79.0,0
894,32.0,-218.0,85.0,0
895,29.0,-217.0,79.0,0
896,32.0,-219.0,84.0,0
897,29.0,-216.0,82.0,0
898,32.0,-220.0,87.0,0
899,28.0,-220.0,79.0,0
900,28.0,-220.0,82.0,0
901,29.0,-220.0,83.0,0
902,30.0,-218.0,84.0,0
903,30.0,-219.0,82.0,0
904,30.0,-222.0,81.0,0
905,31.0,-220.0,82.0,0
906,29.0,-222.0,81.0,0
907,31.0,-222.0,78.0,0
908,28.0,-222.0,81.0,0
909,27.0,-228.0,82.0,0
910,29.0,-221.0,79.0,0
911,30.0,-221.0,78.0,0
912,33.0,-222.0,84.0,0
913,30.0,-219.0,83.0,0
914,30.0,-218.0,82.0,0
915,31.0,-220.0,81.0,0
916,29.0,-217.0,80.0,0
917,30.0,-221.0,83.0,0
918,29.0,-221.0,83.0,0
919,28.0,-218.0,81.0,0
920,31.0,-216.0,87.0,0
921,28.0,-218.0,85.0,0
922,29.0,-221.0,81.0,0
923,30.0,-218.0,80.0,0
924,30.0,-219.0,81.0,0
925,29.0,-220.0,80.0,0
926,30.0,-221.0,81.0,0
927,31.0,-220.0,84.0,0
928,30.0,-217.0,85.0,0
929,31.0,-223.0,83.0,0
930,31.0,-220.0,79.0,0
931,29.0,-217.0,81.0,0
932,31.0,-217.0,82.0,0
933,32.0,-218.0,84.0,0
934,31.0,-221.0,83.0,0
935,29.0,-219.0,83.0,0
936,29.0,-218.0,85.0,0
937,33.0,-219.0,81.0,0
938,30.0,-222.0,85.0,0
939,29.0,-222.0,83.0,0
940,36.0,-222.0,80.0,0
941,24.0,-221.0,82.0,0
942,30.0,-221.0,83.0,0
943,32.0,-225.0,78.0,0
944,31.0,-222.0,79.0,0
945,32.0,-221.0,76.0,0
946,28.0,-219.0,77.0,0
947,32.0,-221.0,79.0,0
948,34.0,-219.0,86.0,0
949,31.0,-218.0,78.0,0
950,33.0,-217.0,80.0,0
951,30.0,-218.0,81.0,0
952,35.0,-215.0,77.0,0
953,31.0,-217.0,86.0,0
954,35.0,-218.0,82.0,0
955,34.0,-218.0,85.0,0
956,35.0,-219.0,82.0,0
957,35.0,-219.0,78.0,0
958,34.0,-220.0,82.0,0
959,34.0,-217.0,82.0,0
960,33.0,-217.0,87.0,0
961,33.0,-219.0,86.0,0
962,31.0,-222.0,83.0,0
963,31.0,-227.0,79.0,0
964,32.0,-223.0,85.0,0
965,31.0,-223.0,85.0,0
966,31.0,-224.0,81.0,0
967,30.0,-222.0,79.0,0
968,31.0,-224.0,83.0,0
969,28.0,-223.0,80.0,0
970,30.0,-220.0,85.0,0
971,28.0,-223.0,84.0,0
972,30.0,-218.0,84.0,0
973,31.0,-221.0,86.0,0
974,32.0,-218.0,88.0,0
975,28.0,-219.0,84.0,0
976,27.0,-221.0,81.0,0
977,29.0,-222.0,79.0,0
978,26.0,-216.0,82.0,0
979,28.0,-217.0,86.0,0
980,25.0,-219.0,82.0,0
981,23.0,-218.0,78.0,0
982,30.0,-220.0,86.0,0
983,30.0,-217.0,86.0,0
984,29.0,-219.0,84.0,0
985,28.0,-217.0,84.0,0
986,29.0,-221.0,83.0,0
987,27.0,-221.0,85.0,0
988,29.0,-222.0,84.0,0
989,32.0,-221.0,80.0,0
990,31.0,-220.0,83.0,0
991,31.0,-222.0,82.0,0
992,27.0,-220.0,84.0,0
993,29.0,-218.0,81.0,0
994,30.0,-221.0,84.0,0
995,28.0,-220.0,81.0,0
996,21.0,-219.0,79.0,0
997,28.0,-220.0,83.0,0
998,30.0,-221.0,83.0,0
999,28.0,-218.0,80.0,0
1000,29.0,-219.0,80.0,0
1001,27.0,-223.0,84.0,0
1002,28.0,-221.0,84.0,0
1003,27.0,-223.0,85.0,0
1004,29.0,-222.0,81.0,0
1005,29.0,-221.0,81.0,0
1006,27.0,-218.0,83.0,0
1007,30.0,-229.0,82.0,0
1008,30.0,-221.0,80.0,0
1009,32.0,-220.0,83.0,0
1010,30.0,-223.0,80.0,0
1011,30.0,-222.0,80.0,0
1012,33.0,-220.0,79.0,0
1013,28.0,-220.0,80.0,0
1014,32.0,-218.0,84.0,0
1015,31.0,-220.0,78.0,0
1016,28.0,-220.0,79.0,0
1017,27.0,-220.0,81.0,0
1018,33.0,-219.0,77.0,0
1019,30.0,-219.0,77.0,0
1020,30.0,-220.0,77.0,0
1021,33.0,-219.0,80.0,0
1022,31.0,-221.0,78.0,0
1023,32.0,-222.0,80.0,0
1024,31.0,-221.0,81.0,0
1025,32.0,-220.0,82.0,0
1026,34.0,-219.0,82.0,0
1027,34.0,-223.0,81.0,0
1028,28.0,-219.0,82.0,0
1029,31.0,-220.0,82.0,0
1030,32.0,-220.0,82.0,0
1031,28.0,-221.0,82.0,0
1032,33.0,-222.0,81.0,0
1033,32.0,-221.0,82.0,0
1034,30.0,-221.0,82.0,0
1035,33.0,-219.0,81.0,0
1036,34.0,-220.0,84.0,0
1037,32.0,-219.0,79.0,0
1038,28.0,-217.0,82.0,0
1039,34.0,-218.0,78.0,0
1040,30.0,-217.0,80.0,0
1041,31.0,-218.0,82.0,0
1042,29.0,-220.0,83.0,0
1043,30.0,-219.0,82.0,0
1044,29.0,-219.0,82.0,0
1045,34.0,-220.0,82.0,0
1046,35.0,-221.0,82.0,0
1047,33.0,-225.0,84.0,0
1048,34.0,-221.0,83.0,0
1049,31.0,-220.0,83.0,0
1050,30.0,-220.0,82.0,0
1051,32.0,-221.0,83.0,0
1052,33.0,-221.0,83.0,0
1053,32.0,-219.0,84.0,0
1054,34.0,-219.0,83.0,0
1055,29.0,-221.0,86.0,0
1056,35.0,-220.0,85.0,0
1057,32.0,-221.0,85.0,0
1058,27.0,-217.0,83.0,0
1059,33.0,-221.0,84.0,0
1060,30.0,-217.0,84.0,0
1061,36.0,-214.0,80.0,0
1062,33.0,-217.0,86.0,0
1063,32.0,-221.0,86.0,0
1064,32.0,-220.0,83.0,0
1065,35.0,-222.0,83.0,0
1066,32.0,-222.0,84.0,0
1067,31.0,-221.0,83.0,0
1068,33.0,-218.0,84.0,0
1069,33.0,-220.0,82.0,0
1070,29.0,-221.0,86.0,0
1071,32.0,-219.0,88.0,0
1072,30.0,-221.0,87.0,0
1073,29.0,-222.0,83.0,0
1074,31.0,-226.0,83.0,0
1075,29.0,-222.0,85.0,0
1076,31.0,-224.0,84.0,0
1077,31.0,-224.0,83.0,0
1078,30.0,-225.0,87.0,0
1079,32.0,-221.0,87.0,0
1080,30.0,-218.0,87.0,0
1081,33.0,-216.0,89.0,0
1082,33.0,-217.0,83.0,0
1083,33.0,-217.0,83.0,0
1084,32.0,-219.0,87.0,0
1085,31.0,-218.0,84.0,0
1086,31.0,-217.0,87.0,0
1087,31.0,-215.0,83.0,0
1088,31.0,-218.0,84.0,0
1089,27.0,-215.0,87.0,0
1090,27.0,-215.0,85.0,0
1091,28.0,-213.0,83.0,0
1092,28.0,-216.0,85.0,0
1093,29.0,-219.0,85.0,0
1094,31.0,-218.0,89.0,0
1095,29.0,-224.0,84.0,0
1096,29.0,-223.0,81.0,0
1097,30.0,-222.0,86.0,0
1098,30.0,-223.0,81.0,0
1099,32.0,-223.0,82.0,0
1100,33.0,-221.0,82.0,0
1101,28.0,-220.0,83.0,0
1102,29.0,-217.0,84.0,0
1103,30.0,-218.0,84.0,0
1104,28.0,-220.0,80.0,0
1105,28.0,-222.0,74.0,0
1106,33.0,-220.0,79.0,0
1107,32.0,-220.0,83.0,0
1108,30.0,-219.0,82.0,0
1109,33.0,-217.0,80.0,0
1110,34.0,-218.0,86.0,0
1111,31.0,-217.0,87.0,0
1112,35.0,-218.0,94.0,0
1113,33.0,-214.0,86.0,0
1114,35.0,-214.0,89.0,0
1115,35.0,-217.0,90.0,0
1116,31.0,-217.0,80.0,0
1117,35.0,-216.0,94.0,0
1118,33.0,-215.0,94.0,0
1119,31.0,-215.0,91.0,0
1120,35.0,-220.0,88.0,0
1121,30.0,-217.0,90.0,0
1122,30.0,-219.0,92.0,0
1123,28.0,-221.0,94.0,0
1124,32.0,-223.0,91.0,0
1125,27.0,-223.0,91.0,0
1126,28.0,-221.0,88.0,0
1127,32.0,-221.0,90.0,0
1128,29.0,-221.0,93.0,0
1129,28.0,-218.0,92.0,0
1130,32.0,-219.0,94.0,0
1131,25.0,-215.0,94.0,0
1132,27.0,-217.0,96.0,0
1133,28.0,-216.0,95.0,0
1134,27.0,-214.0,98.0,0
1135,27.0,-214.0,101.0,0
1136,29.0,-216.0,99.0,0
1137,30.0,-217.0,102.0,0
1138,30.0,-216.0,102.0,0
1139,27.0,-211.0,100.0,0
1140,31.0,-213.0,103.0,0
1141,31.0,-213.0,101.0,0
1142,29.0,-213.0,104.0,0
1143,29.0,-211.0,103.0,0
1144,34.0,-209.0,100.0,0
1145,32.0,-211.0,100.0,0
1146,34.0,-213.0,101.0,0
1147,36.0,-214.0,102.0,0
1148,30.0,-223.0,104.0,0
1149,30.0,-211.0,101.0,0
1150,31.0,-215.0,107.0,0
1151,30.0,-209.0,107.0,0
1152,28.0,-210.0,107.0,0
1153,33.0,-206.0,111.0,0
1154,32.0,-206.0,117.0,0
1155,38.0,-207.0,123.0,0
1156,39.0,-204.0,134.0,0
1157,37.0,-195.0,138.0,0
1158,42.0,-192.0,133.0,0
1159,47.0,-183.0,136.0,0
1160,41.0,-179.0,127.0,0
1161,36.0,-181.0,118.0,0
1162,33.0,-179.0,108.0,0
1163,40.0,-182.0,92.0,0
1164,33.0,-189.0,80.0,0
1165,33.0,-195.0,69.0,0
1166,36.0,-193.0,63.0,0
1167,40.0,-202.0,62.0,0
1168,40.0,-203.0,68.0,0
1169,48.0,-210.0,70.0,0
1170,50.0,-207.0,74.0,0
1171,47.0,-212.0,77.0,0
1172,42.0,-216.0,87.0,0
1173,31.0,-214.0,89.0,0
1174,40.0,-217.0,84.0,0
1175,36.0,-217.0,85.0,0
1176,38.0,-213.0,79.0,0
1177,33.0,-214.0,77.0,0
1178,26.0,-217.0,75.0,0
1179,23.0,-214.0,72.0,0
1180,20.0,-212.0,67.0,0
1181,20.0,-211.0,69.0,0
1182,24.0,-212.0,73.0,0
1183,16.0,-208.0,80.0,0
1184,28.0,-213.0,81.0,0
1185,25.0,-213.0,82.0,0
1186,23.0,-210.0,86.0,0
1187,23.0,-214.0,84.0,0
1188,26.0,-214.0,84.0,0
1189,26.0,-214.0,86.0,0
1190,25.0,-214.0,86.0,0
1191,26.0,-211.0,86.0,0
1192,23.0,-206.0,84.0,0
1193,25.0,-205.0,83.0,0
1194,29.0,-206.0,81.0,0
1195,31.0,-202.0,84.0,0
1196,31.0,-203.0,79.0,0
1197,33.0,-207.0,85.0,0
1198,30.0,-207.0,84.0,0
1199,31.0,-206.0,88.0,0
1200,27.0,-202.0,85.0,0
1201,30.0,-204.0,83.0,0
1202,28.0,-205.0,79.0,0
1203,29.0,-205.0,78.0,0
1204,29.0,-199.0,79.0,0
1205,27.0,-197.0,78.0,0
1206,26.0,-194.0,75.0,0
1207,28.0,-190.0,76.0,0
1208,33.0,-186.0,64.0,0
1209,36.0,-180.0,59.0,0
1210,37.0,-177.0,53.0,0
1211,36.0,-168.0,36.0,0
1212,29.0,-166.0,35.0,0
1213,22.0,-166.0,23.0,0
1214,18.0,-167.0,21.0,0
1215,19.0,-166.0,21.0,0
1216,10.0,-164.0,28.0,0
1217,8.0,-169.0,36.0,0
1218,7.0,-177.0,44.0,0
1219,8.0,-187.0,52.0,0
1220,9.0,-203.0,64.0,0
1221,11.0,-215.0,69.0,0
1222,10.0,-229.0,77.0,0
1223,18.0,-245.0,87.0,0
1224,13.0,-252.0,92.0,0
1225,14.0,-262.0,88.0,0
1226,13.0,-265.0,106.0,0
1227,5.0,-260.0,110.0,0
1228,5.0,-252.0,118.0,0
1229,-2.0,-243.0,125.0,0
1230,-4.0,-233.0,131.0,0
1231,-8.0,-214.0,142.0,0
1232,-5.0,-192.0,146.0,0
1233,-4.0,-175.0,145.0,0
1234,-9.0,-147.0,145.0,0
1235,-5.0,-130.0,139.0,0
1236,-4.0,-118.0,143.0,0
1237,-1.0,-113.0,143.0,0
1238,-2.0,-107.0,147.0,0
1239,3.0,-108.0,152.0,0
1240,7.0,-107.0,159.0,0
1241,13.0,-113.0,156.0,0
1242,20.0,-118.0,161.0,0
1243,25.0,-127.0,154.0,0
1244,29.0,-134.0,147.0,0
1245,31.0,-145.0,141.0,0
1246,28.0,-158.0,133.0,0
1247,26.0,-160.0,124.0,0
1248,24.0,-160.0,113.0,0
1249,22.0,-162.0,105.0,0
1250,23.0,-157.0,100.0,0
1251,18.0,-152.0,91.0,0
1252,11.0,-146.0,81.0,0
1253,9.0,-143.0,77.0,0
1254,4.0,-134.0,76.0,0
1255,2.0,-127.0,75.0,0
1256,-1.0,-126.0,69.0,0
1257,-5.0,-128.0,61.0,0
1258,-8.0,-123.0,70.0,0
1259,-12.0,-120.0,64.0,0
1260,-17.0,-121.0,65.0,0
1261,-19.0,-123.0,69.0,0
1262,-20.0,-125.0,74.0,0
1263,-24.0,-125.0,83.0,0
1264,-26.0,-124.0,84.0,0
1265,-26.0,-120.0,86.0,0
1266,-20.0,-118.0,95.0,0
1267,-11.0,-115.0,99.0,0
1268,-4.0,-115.0,97.0,0
1269,7.0,-106.0,103.0,0
1270,19.0,-108.0,104.0,0
1271,33.0,-111.0,104.0,0
1272,34.0,-107.0,109.0,0
1273,24.0,-104.0,109.0,0
1274,20.0,-111.0,104.0,0
1275,11.0,-113.0,96.0,0
1276,11.0,-114.0,90.0,0
1277,6.0,-113.0,82.0,0
1278,-3.0,-112.0,74.0,0
1279,-13.0,-106.0,73.0,0
1280,-20.0,-100.0,68.0,0
1281,-24.0,-93.0,69.0,0
1282,-23.0,-87.0,72.0,0
1283,-30.0,-78.0,65.0,0
1284,-37.0,-71.0,67.0,0
1285,-44.0,-66.0,64.0,0
1286,-55.0,-66.0,61.0,0
1287,-67.0,-67.0,59.0,0
1288,-78.0,-65.0,57.0,0
1289,-80.0,-72.0,59.0,0
1290,-89.0,-69.0,55.0,0
1291,-85.0,-74.0,51.0,0
1292,-80.0,-81.0,43.0,0
1293,-70.0,-78.0,42.0,0
1294,-60.0,-81.0,45.0,0
1295,-72.0,-72.0,55.0,0
1296,-84.0,-58.0,61.0,0
1297,-83.0,-47.0,65.0,0
1298,-78.0,-45.0,50.0,0
1299,-96.0,-44.0,22.0,0
1300,-114.0,-45.0,16.0,0
1301,-123.0,-53.0,-9.0,0
1302,-137.0,-70.0,-28.0,0
1303,-153.0,-90.0,-30.0,0
1304,-160.0,-101.0,-35.0,0
1305,-150.0,-116.0,-42.0,0
1306,-135.0,-130.0,-35.0,0
1307,-138.0,-146.0,-33.0,0
1308,-133.0,-158.0,-19.0,0
1309,-139.0,-148.0,11.0,0
1310,-166.0,-130.0,49.0,0
1311,-173.0,-118.0,95.0,0
1312,-179.0,-110.0,139.0,0
1313,-184.0,-104.0,174.0,0
1314,-185.0,-88.0,197.0,0
1315,-181.0,-61.0,214.0,0
1316,-166.0,-36.0,211.0,0
1317,-101.0,-34.0,183.0,0
1318,-45.0,-39.0,134.0,0
1319,-11.0,-58.0,87.0,2
1320,-8.0,-49.0,79.0,2
1321,47.0,-58.0,69.0,2
1322,38.0,-50.0,99.0,2
1323,19.0,-51.0,95.0,2
1324,-2.0,-78.0,96.0,2
1325,-62.0,-97.0,143.0,2
1326,-91.0,-109.0,188.0,2
1327,-163.0,-130.0,233.0,2
1328,-197.0,-118.0,278.0,2
1329,-160.0,-135.0,323.0,2
1330,-141.0,-158.0,348.0,2
1331,-153.0,-193.0,376.0,2
1332,-177.0,-196.0,433.0,2
1333,-194.0,-214.0,481.0,2
1334,-393.0,-205.0,611.0,2
1335,-466.0,-282.0,687.0,2
1336,-667.0,-376.0,837.0,2
1337,-819.0,-403.0,951.0,2
1338,-931.0,-421.0,1035.0,2
1339,-988.0,-431.0,957.0,2
1340,-976.0,-390.0,869.0,2
1341,-989.0,-228.0,789.0,2
1342,-1033.0,-18.0,707.0,2
1343,-978.0,258.0,661.0,2
1344,-782.0,560.0,650.0,2
1345,-517.0,654.0,524.0,2
1346,-291.0,657.0,388.0,2
1347,-182.0,603.0,322.0,2
1348,-44.0,494.0,328.0,2
1349,83.0,372.0,295.0,2
1350,193.0,219.0,232.0,2
1351,270.0,68.0,193.0,2
1352,301.0,-76.0,173.0,2
1353,266.0,-200.0,151.0,2
1354,276.0,-293.0,151.0,2
1355,284.0,-350.0,151.0,2
1356,256.0,-399.0,134.0,2
1357,168.0,-408.0,117.0,2
1358,44.0,-361.0,122.0,2
1359,-55.0,-283.0,127.0,2
1360,-130.0,-207.0,118.0,2
1361,-192.0,-136.0,110.0,2
1362,-226.0,-77.0,90.0,2
1363,-226.0,-22.0,71.0,2
1364,-213.0,29.0,55.0,2
1365,-200.0,82.0,45.0,2
1366,-184.0,135.0,48.0,2
1367,-173.0,185.0,48.0,2
1368,-158.0,235.0,43.0,2
1369,-131.0,280.0,22.0,2
1370,-105.0,306.0,7.0,2
1371,-71.0,314.0,-5.0,2
1372,-29.0,303.0,-9.0,1
1373,-9.0,276.0,-1.0,1
1374,7.0,244.0,12.0,1
1375,21.0,211.0,24.0,1
1376,34.0,178.0,48.0,1
1377,41.0,151.0,66.0,1
1378,38.0,139.0,84.0,1
1379,32.0,129.0,95.0,1
1380,18.0,126.0,108.0,1
1381,-5.0,134.0,127.0,1
1382,-17.0,136.0,136.0,1
1383,-31.0,145.0,138.0,1
1384,-42.0,151.0,132.0,1
1385,-61.0,166.0,126.0,1
1386,-82.0,178.0,118.0,1
1387,-68.0,191.0,117.0,1
1388,-79.0,210.0,99.0,1
1389,-69.0,220.0,92.0,1
1390,-57.0,235.0,98.0,1
1391,-47.0,245.0,104.0,1
1392,-38.0,254.0,124.0,1
1393,-19.0,258.0,131.0,1
1394,5.0,254.0,136.0,1
1395,34.0,247.0,137.0,1
1396,58.0,235.0,150.0,1
1397,81.0,223.0,165.0,1
1398,89.0,210.0,186.0,1
1399,95.0,206.0,208.0,1
1400,93.0,197.0,214.0,1
1401,95.0,190.0,224.0,1
1402,107.0,188.0,225.0,1
1403,95.0,190.0,244.0,1
1404,84.0,193.0,251.0,1
1405,55.0,197.0,256.0,1
1406,31.0,205.0,259.0,1
1407,13.0,206.0,259.0,1
1408,3.0,208.0,260.0,1
1409,-9.0,206.0,266.0,1
1410,-16.0,203.0,274.0,1
1411,-7.0,192.0,271.0,1
1412,2.0,166.0,282.0,1
1413,4.0,135.0,286.0,1
1414,19.0,106.0,282.0,1
1415,28.0,79.0,270.0,1
1416,43.0,57.0,261.0,1
1417,61.0,38.0,260.0,0
1418,96.0,27.0,260.0,0
1419,112.0,30.0,248.0,0
1420,125.0,32.0,248.0,0
1421,137.0,33.0,242.0,0
1422,142.0,36.0,237.0,0
1423,143.0,40.0,236.0,0
1424,123.0,50.0,234.0,0
1425,110.0,65.0,235.0,0
1426,81.0,77.0,228.0,0
1427,56.0,77.0,226.0,0
1428,44.0,74.0,229.0,0
1429,23.0,66.0,231.0,0
1430,-10.0,54.0,220.0,0
1431,-15.0,53.0,221.0,0
1432,-30.0,43.0,218.0,0
1433,-41.0,42.0,216.0,0
1434,-49.0,42.0,208.0,0
1435,-56.0,45.0,209.0,0
1436,-58.0,46.0,206.0,0
1437,-50.0,50.0,206.0,0
1438,-37.0,52.0,206.0,0
1439,-25.0,51.0,204.0,0
1440,-7.0,56.0,212.0,0
1441,1.0,52.0,214.0,0
1442,14.0,55.0,218.0,0
1443,18.0,55.0,223.0,0
1444,20.0,61.0,227.0,0
1445,18.0,67.0,222.0,0
1446,20.0,72.0,221.0,0
1447,14.0,73.0,221.0,0
1448,0.0,78.0,220.0,0
1449,-11.0,75.0,223.0,0
1450,-23.0,72.0,221.0,0
1451,-26.0,70.0,214.0,0
1452,-30.0,66.0,221.0,0
1453,-40.0,68.0,218.0,0
1454,-43.0,73.0,216.0,0
1455,-42.0,73.0,220.0,0
1456,-46.0,80.0,218.0,0
1457,-45.0,80.0,216.0,0
1458,-49.0,87.0,213.0,0
1459,-49.0,89.0,214.0,0
1460,-42.0,88.0,211.0,0
1461,-44.0,98.0,212.0,0
1462,-39.0,96.0,203.0,0
1463,-41.0,99.0,207.0,0
1464,-16.0,102.0,200.0,0
1465,-40.0,104.0,212.0,0
1466,-22.0,100.0,207.0,0
1467,-21.0,102.0,210.0,0
1468,-20.0,102.0,212.0,0
1469,-17.0,103.0,210.0,0
1470,-6.0,105.0,212.0,0
1471,-17.0,103.0,211.0,0
1472,-13.0,102.0,217.0,0
1473,-15.0,110.0,220.0,0
1474,-12.0,102.0,216.0,0
1475,-15.0,107.0,217.0,0
1476,-17.0,105.0,212.0,0
1477,-14.0,101.0,211.0,0
1478,-19.0,97.0,210.0,0
1479,-20.0,95.0,210.0,0
1480,-20.0,99.0,205.0,0
1481,-25.0,93.0,208.0,0
1482,-25.0,93.0,203.0,0
1483,-24.0,88.0,207.0,0
1484,-22.0,84.0,209.0,0
1485,-18.0,79.0,202.0,0
1486,-19.0,78.0,203.0,0
1487,-20.0,76.0,206.0,0
1488,-18.0,72.0,209.0,0
1489,-18.0,73.0,210.0,0
1490,-16.0,69.0,211.0,0
1491,-19.0,66.0,213.0,0
1492,-15.0,67.0,213.0,0
1493,-16.0,63.0,220.0,0
1494,-13.0,60.0,218.0,0
1495,-4.0,62.0,225.0,0
1496,-10.0,59.0,222.0,0
1497,-10.0,55.0,218.0,0
1498,-12.0,53.0,220.0,0
1499,-15.0,56.0,217.0,0
1500,-19.0,56.0,219.0,0
1501,-13.0,55.0,220.0,0
1502,-13.0,58.0,215.0,0
1503,-19.0,57.0,219.0,0
1504,-18.0,50.0,219.0,0
1505,-13.0,53.0,215.0,0
1506,-15.0,52.0,214.0,0
1507,-20.0,45.0,220.0,0
1508,-20.0,44.0,218.0,0
1509,-18.0,46.0,218.0,0
1510,-21.0,45.0,220.0,0
1511,-25.0,42.0,218.0,0
1512,-26.0,42.0,226.0,0
1513,-20.0,45.0,222.0,0
1514,-24.0,42.0,220.0,0
1515,-20.0,42.0,220.0,0
1516,-19.0,44.0,226.0,0
1517,-20.0,40.0,220.0,0
1518,-20.0,45.0,230.0,0
1519,-20.0,40.0,229.0,0
1520,-19.0,40.0,236.0,0
1521,-16.0,37.0,237.0,0
1522,-17.0,39.0,233.0,0
1523,-20.0,35.0,234.0,0
1524,-16.0,38.0,234.0,0
1525,-13.0,41.0,234.0,0
1526,-10.0,40.0,226.0,0
1527,-18.0,43.0,228.0,0
1528,-17.0,43.0,223.0,0
1529,-15.0,45.0,224.0,0
1530,-15.0,49.0,221.0,0
1531,-16.0,51.0,217.0,0
1532,-11.0,54.0,219.0,0
1533,-14.0,53.0,215.0,0
1534,-13.0,53.0,217.0,0
1535,-22.0,64.0,219.0,0
1536,-17.0,60.0,215.0,0
1537,-22.0,65.0,217.0,0
1538,-23.0,65.0,215.0,0
1539,-20.0,65.0,213.0,0
1540,-25.0,70.0,217.0,0
1541,-18.0,72.0,221.0,0
1542,-20.0,71.0,217.0,0
1543,-20.0,74.0,214.0,0
1544,-19.0,76.0,216.0,0
1545,-20.0,74.0,219.0,0
1546,-22.0,75.0,221.0,0
1547,-17.0,76.0,223.0,0
1548,-12.0,73.0,228.0,0
1549,-16.0,72.0,219.0,0
1550,-14.0,73.0,226.0,0
1551,-14.0,74.0,225.0,0
1552,-20.0,73.0,221.0,0
1553,-19.0,74.0,223.0,0
1554,-16.0,72.0,217.0,0
1555,-17.0,69.0,214.0,0
1556,-18.0,69.0,215.0,0
1557,-11.0,61.0,209.0,0
1558,-16.0,64.0,213.0,0
1559,-10.0,60.0,215.0,0
1560,-11.0,57.0,219.0,0
1561,-6.0,57.0,213.0,0
1562,-5.0,53.0,211.0,0
1563,-12.0,49.0,217.0,0
1564,-14.0,53.0,217.0,0
1565,-13.0,49.0,219.0,0
1566,-13.0,51.0,221.0,0
1567,-15.0,48.0,218.0,0
1568,-15.0,45.0,220.0,0
1569,-20.0,49.0,220.0,0
1570,-19.0,44.0,227.0,0
1571,-17.0,44.0,222.0,0
1572,-19.0,44.0,221.0,0
1573,-16.0,45.0,221.0,0
1574,-17.0,43.0,217.0,0
1575,-16.0,41.0,218.0,0
1576,-16.0,45.0,220.0,0
1577,-18.0,47.0,225.0,0
1578,-12.0,49.0,231.0,0
1579,-12.0,50.0,229.0,0
1580,-17.0,50.0,232.0,0
1581,-14.0,53.0,237.0,0
1582,-14.0,55.0,230.0,0
1583,-20.0,59.0,235.0,0
1584,-20.0,65.0,230.0,0
1585,-18.0,64.0,225.0,0
1586,-20.0,62.0,224.0,0
1587,-27.0,60.0,224.0,0
1588,-28.0,55.0,218.0,0
1589,-20.0,49.0,208.0,0
1590,-25.0,46.0,210.0,0
1591,-37.0,42.0,209.0,0
1592,-31.0,36.0,204.0,0
1593,-28.0,27.0,196.0,0
1594,-34.0,25.0,200.0,0
1595,-32.0,23.0,199.0,0
1596,-27.0,17.0,203.0,0
1597,-31.0,13.0,205.0,0
1598,-29.0,12.0,216.0,0
1599,-21.0,12.0,211.0,0
1600,-19.0,11.0,214.0,0
1601,-14.0,13.0,214.0,0
1602,-10.0,18.0,216.0,0
1603,-1.0,24.0,217.0,0
1604,-3.0,24.0,221.0,0
1605,-6.0,29.0,223.0,0
1606,-4.0,30.0,223.0,0
1607,-3.0,28.0,217.0,0
1608,-11.0,26.0,214.0,0
1609,-11.0,26.0,214.0,0
1610,-16.0,23.0,216.0,0
1611,-20.0,20.0,209.0,0
1612,-21.0,18.0,208.0,0
1613,-23.0,19.0,211.0,0
1614,-30.0,19.0,210.0,0
1615,-29.0,17.0,207.0,0
1616,-28.0,18.0,208.0,0
1617,-34.0,21.0,208.0,0
1618,-31.0,23.0,209.0,0
1619,-32.0,23.0,211.0,0
1620,-26.0,23.0,209.0,0
1621,-24.0,23.0,214.0,0
1622,-20.0,23.0,216.0,0
1623,-17.0,20.0,216.0,0
1624,-11.0,18.0,218.0,0
1625,-7.0,14.0,221.0,0
1626,-10.0,11.0,219.0,0
1627,-6.0,9.0,223.0,0
1628,-6.0,6.0,221.0,0
1629,-10.0,8.0,222.0,0
1630,-10.0,7.0,220.0,0
1631,-15.0,11.0,221.0,0
1632,-15.0,14.0,221.0,0
1633,-16.0,18.0,216.0,0
1634,-14.0,22.0,220.0,0
1635,-18.0,23.0,218.0,0
1636,-16.0,20.0,223.0,0
1637,-15.0,26.0,221.0,0
1638,-19.0,20.0,222.0,0
1639,-18.0,18.0,223.0,0
1640,-20.0,16.0,222.0,0
1641,-19.0,16.0,224.0,0
1642,-19.0,16.0,221.0,0
1643,-24.0,19.0,228.0,0
1644,-26.0,20.0,227.0,0
1645,-30.0,28.0,224.0,0
1646,-28.0,28.0,231.0,0
1647,-31.0,31.0,225.0,0
1648,-28.0,34.0,232.0,0
1649,-33.0,40.0,229.0,0
1650,-31.0,39.0,229.0,0
1651,-35.0,42.0,227.0,0
1652,-29.0,41.0,223.0,0
1653,-30.0,44.0,221.0,0
1654,-24.0,45.0,219.0,0
1655,-25.0,47.0,222.0,0
1656,-20.0,49.0,217.0,0
1657,-21.0,49.0,218.0,0
1658,-18.0,51.0,217.0,0
1659,-15.0,53.0,216.0,0
1660,-14.0,51.0,213.0,0
1661,-12.0,54.0,217.0,0
1662,-11.0,54.0,214.0,0
1663,-9.0,57.0,218.0,0
1664,-5.0,59.0,215.0,0
1665,-1.0,60.0,218.0,0
1666,1.0,61.0,217.0,0
1667,1.0,64.0,215.0,0
1668,0.0,63.0,219.0,0
1669,1.0,59.0,219.0,0
1670,-3.0,59.0,220.0,0
1671,1.0,60.0,217.0,0
1672,2.0,58.0,217.0,0
1673,-1.0,56.0,216.0,0
1674,2.0,56.0,219.0,0
1675,2.0,58.0,222.0,0
1676,1.0,61.0,220.0,0
1677,1.0,56.0,219.0,0
1678,-5.0,58.0,221.0,0
1679,-3.0,55.0,223.0,0
1680,-1.0,58.0,217.0,0
1681,-6.0,53.0,220.0,0
1682,-4.0,50.0,219.0,0
1683,-7.0,53.0,222.0,0
1684,-7.0,49.0,223.0,0
1685,-9.0,47.0,222.0,0
1686,-10.0,45.0,226.0,0
1687,-14.0,43.0,223.0,0
1688,-14.0,44.0,225.0,0
1689,-15.0,41.0,219.0,0
1690,-18.0,40.0,220.0,0
1691,-25.0,43.0,227.0,0
1692,-20.0,41.0,220.0,0
1693,-25.0,38.0,222.0,0
1694,-26.0,40.0,222.0,0
1695,-29.0,37.0,216.0,0
1696,-25.0,37.0,218.0,0
1697,-26.0,35.0,215.0,0
1698,-27.0,39.0,218.0,0
1699,-28.0,36.0,214.0,0
1700,-26.0,33.0,212.0,0
1701,-29.0,34.0,215.0,0
1702,-26.0,31.0,210.0,0
1703,-26.0,30.0,213.0,0
1704,-27.0,32.0,216.0,0
1705,-22.0,29.0,214.0,0
1706,-20.0,28.0,216.0,0
1707,-27.0,30.0,215.0,0
1708,-21.0,27.0,218.0,0
1709,-23.0,30.0,213.0,0
1710,-21.0,35.0,217.0,0
1711,-21.0,29.0,218.0,0
1712,-24.0,32.0,218.0,0
1713,-21.0,30.0,225.0,0
1714,-21.0,35.0,217.0,0
1715,-20.0,35.0,213.0,0
1716,-20.0,35.0,213.0,0
1717,-20.0,36.0,215.0,0
1718,-22.0,35.0,217.0,0
1719,-22.0,37.0,219.0,0
1720,-17.0,32.0,220.0,0
1721,-20.0,34.0,221.0,0
1722,-20.0,33.0,220.0,0
1723,-20.0,37.0,222.0,0
1724,-25.0,36.0,228.0,0
1725,-20.0,41.0,227.0,0
1726,-20.0,43.0,226.0,0
1727,-20.0,43.0,226.0,0
1728,-20.0,44.0,223.0,0
1729,-23.0,46.0,228.0,0
1730,-19.0,43.0,228.0,0
1731,-19.0,44.0,227.0,0
1732,-20.0,42.0,222.0,0
1733,-19.0,42.0,225.0,0
1734,-17.0,38.0,220.0,0
1735,-17.0,42.0,230.0,0
1736,-17.0,39.0,219.0,0
1737,-19.0,42.0,217.0,0
1738,-16.0,44.0,218.0,0
1739,-15.0,43.0,222.0,0
1740,-14.0,44.0,221.0,0
1741,-10.0,46.0,218.0,0
1742,-7.0,50.0,220.0,0
1743,-10.0,52.0,219.0,0
1744,-6.0,51.0,221.0,0
1745,-7.0,56.0,223.0,0
1746,-7.0,54.0,225.0,0
1747,-4.0,57.0,220.0,0
1748,-3.0,56.0,223.0,0
1749,1.0,55.0,225.0,0
1750,0.0,57.0,224.0,0
1751,-7.0,59.0,226.0,0
1752,-5.0,59.0,224.0,0
1753,-8.0,58.0,225.0,0
1754,-8.0,60.0,222.0,0
1755,-14.0,59.0,216.0,0
1756,-13.0,56.0,218.0,0
1757,-15.0,53.0,214.0,0
1758,-17.0,45.0,218.0,0
1759,-20.0,41.0,215.0,0
1760,-22.0,35.0,218.0,0
1761,-30.0,30.0,220.0,0
1762,-31.0,24.0,218.0,0
1763,-38.0,21.0,216.0,0
1764,-41.0,15.0,219.0,0
1765,-45.0,14.0,219.0,0
1766,-53.0,13.0,220.0,0
1767,-54.0,13.0,216.0,0
1768,-62.0,22.0,222.0,0
1769,-64.0,23.0,215.0,0
1770,-60.0,26.0,218.0,0
1771,-60.0,33.0,215.0,0
1772,-59.0,39.0,211.0,0
1773,-54.0,38.0,217.0,0
1774,-50.0,43.0,210.0,0
1775,-50.0,46.0,214.0,0
1776,-50.0,49.0,215.0,0
1777,-46.0,46.0,212.0,0
1778,-42.0,45.0,217.0,0
1779,-43.0,44.0,215.0,0
1780,-38.0,42.0,210.0,0
1781,-38.0,43.0,213.0,0
1782,-32.0,40.0,211.0,0
1783,-28.0,37.0,213.0,0
1784,-28.0,38.0,210.0,0
1785,-26.0,44.0,214.0,0
1786,-26.0,41.0,220.0,0
1787,-28.0,43.0,216.0,0
1788,-25.0,42.0,219.0,0
1789,-22.0,41.0,215.0,0
1790,-23.0,41.0,220.0,0
1791,-25.0,39.0,221.0,0
1792,-28.0,38.0,225.0,0
1793,-27.0,40.0,226.0,0
1794,-30.0,37.0,224.0,0
1795,-28.0,35.0,228.0,0
1796,-29.0,31.0,226.0,0
1797,-32.0,35.0,224.0,0
1798,-27.0,30.0,227.0,0
1799,-28.0,33.0,227.0,0
1800,-26.0,32.0,236.0,0
1801,-22.0,29.0,219.0,0
1802,-27.0,31.0,225.0,0
1803,-26.0,31.0,224.0,0
1804,-21.0,30.0,223.0,0
1805,-26.0,34.0,220.0,0
1806,-26.0,34.0,220.0,0
1807,-21.0,35.0,219.0,0
1808,-28.0,34.0,220.0,0
1809,-27.0,36.0,217.0,0
1810,-28.0,40.0,216.0,0
1811,-27.0,35.0,212.0,0
1812,-28.0,42.0,212.0,0
1813,-27.0,44.0,212.0,0
1814,-31.0,48.0,215.0,0
1815,-31.0,46.0,215.0,0
1816,-29.0,43.0,213.0,0
1817,-26.0,45.0,215.0,0
1818,-28.0,48.0,221.0,0
1819,-29.0,46.0,219.0,0
1820,-27.0,47.0,221.0,0
1821,-26.0,45.0,216.0,0
1822,-21.0,42.0,227.0,0
1823,-26.0,42.0,218.0,0
1824,-24.0,41.0,216.0,0
1825,-24.0,37.0,220.0,0
1826,-27.0,39.0,219.0,0
1827,-27.0,39.0,215.0,0
1828,-26.0,40.0,214.0,0
1829,-27.0,35.0,214.0,0
1830,-32.0,41.0,211.0,0
1831,-33.0,38.0,214.0,0
1832,-39.0,42.0,214.0,0
1833,-41.0,43.0,217.0,0
1834,-38.0,45.0,213.0,0
1835,-40.0,47.0,216.0,0
1836,-38.0,44.0,221.0,0
1837,-36.0,50.0,218.0,0
1838,-33.0,53.0,222.0,0
1839,-30.0,50.0,224.0,0
1840,-28.0,52.0,225.0,0
1841,-29.0,47.0,219.0,0
1842,-30.0,47.0,225.0,0
1843,-31.0,49.0,223.0,0
1844,-30.0,46.0,233.0,0
1845,-34.0,46.0,222.0,0
1846,-30.0,43.0,222.0,0
1847,-32.0,42.0,223.0,0
1848,-33.0,40.0,220.0,0
1849,-30.0,40.0,219.0,0
1850,-35.0,43.0,222.0,0
1851,-34.0,41.0,213.0,0
1852,-37.0,42.0,215.0,0
1853,-34.0,43.0,215.0,0
1854,-37.0,38.0,218.0,0
1855,-47.0,43.0,216.0,0
1856,-40.0,43.0,210.0,0
1857,-37.0,37.0,215.0,0
1858,-39.0,38.0,214.0,0
1859,-40.0,38.0,217.0,0
1860,-35.0,39.0,216.0,0
1861,-36.0,38.0,216.0,0
1862,-36.0,37.0,211.0,0
1863,-37.0,39.0,216.0,0
1864,-39.0,38.0,218.0,0
1865,-38.0,36.0,215.0,0
1866,-38.0,30.0,222.0,0
1867,-41.0,38.0,216.0,0
1868,-39.0,38.0,216.0,0
1869,-42.0,41.0,217.0,0
1870,-39.0,38.0,218.0,0
1871,-46.0,38.0,220.0,0
1872,-46.0,37.0,223.0,0
1873,-47.0,35.0,221.0,0
1874,-45.0,37.0,222.0,0
1875,-46.0,35.0,219.0,0
1876,-46.0,34.0,219.0,0
1877,-44.0,33.0,231.0,0
1878,-48.0,35.0,219.0,0
1879,-46.0,37.0,225.0,0
1880,-43.0,32.0,220.0,0
1881,-43.0,33.0,223.0,0
1882,-39.0,31.0,216.0,0
1883,-40.0,27.0,213.0,0
1884,-39.0,28.0,217.0,0
1885,-40.0,25.0,216.0,0
1886,-36.0,25.0,219.0,0
1887,-39.0,35.0,216.0,0
1888,-37.0,29.0,221.0,0
1889,-41.0,29.0,223.0,0
1890,-39.0,29.0,220.0,0
1891,-36.0,28.0,219.0,0
1892,-37.0,33.0,220.0,0
1893,-34.0,31.0,221.0,0
1894,-37.0,35.0,218.0,0
1895,-34.0,34.0,218.0,0
1896,-33.0,38.0,224.0,0
1897,-32.0,34.0,217.0,0
1898,-29.0,37.0,219.0,0
1899,-37.0,41.0,226.0,0
1900,-30.0,37.0,218.0,0
1901,-32.0,39.0,218.0,0
1902,-33.0,40.0,216.0,0
1903,-34.0,40.0,219.0,0
1904,-37.0,42.0,218.0,0
1905,-37.0,40.0,217.0,0
1906,-37.0,41.0,217.0,0
1907,-41.0,34.0,219.0,0
1908,-41.0,40.0,213.0,0
1909,-34.0,36.0,219.0,0
1910,-43.0,35.0,219.0,0
1911,-41.0,34.0,219.0,0
1912,-40.0,34.0,220.0,0
1913,-42.0,37.0,220.0,0
1914,-41.0,39.0,219.0,0
1915,-42.0,40.0,219.0,0
1916,-41.0,39.0,219.0,0
1917,-41.0,43.0,218.0,0
1918,-43.0,42.0,219.0,0
1919,-42.0,42.0,215.0,0
1920,-44.0,46.0,220.0,0
1921,-43.0,39.0,219.0,0
1922,-40.0,41.0,219.0,0
1923,-41.0,40.0,215.0,0
1924,-42.0,42.0,219.0,0
1925,-40.0,40.0,216.0,0
1926,-39.0,39.0,213.0,0
1927,-36.0,38.0,216.0,0
1928,-38.0,36.0,213.0,0
1929,-41.0,38.0,218.0,0
1930,-38.0,37.0,215.0,0
1931,-41.0,38.0,216.0,0
1932,-37.0,35.0,217.0,0
1933,-37.0,35.0,219.0,0
1934,-38.0,40.0,222.0,0
1935,-38.0,41.0,221.0,0
1936,-38.0,36.0,223.0,0
1937,-35.0,39.0,218.0,0
1938,-39.0,37.0,218.0,0
1939,-41.0,40.0,220.0,0
1940,-39.0,36.0,222.0,0
1941,-39.0,40.0,220.0,0
1942,-39.0,50.0,218.0,0
1943,-39.0,38.0,220.0,0
1944,-36.0,37.0,219.0,0
1945,-38.0,41.0,213.0,0
1946,-36.0,39.0,210.0,0
1947,-37.0,40.0,218.0,0
1948,-33.0,37.0,214.0,0
1949,-37.0,41.0,216.0,0
1950,-36.0,41.0,218.0,0
1951,-33.0,41.0,216.0,0
1952,-31.0,46.0,220.0,0
1953,-28.0,41.0,217.0,0
1954,-28.0,40.0,217.0,0
1955,-30.0,38.0,221.0,0
1956,-30.0,37.0,221.0,0
1957,-30.0,38.0,218.0,0
1958,-29.0,35.0,222.0,0
1959,-31.0,34.0,225.0,0
1960,-29.0,33.0,221.0,0
1961,-31.0,35.0,222.0,0
1962,-31.0,33.0,220.0,0
1963,-29.0,33.0,224.0,0
1964,-33.0,25.0,222.0,0
1965,-27.0,35.0,215.0,0
1966,-31.0,36.0,215.0,0
1967,-33.0,36.0,216.0,0
1968,-33.0,33.0,217.0,0
1969,-34.0,36.0,218.0,0
1970,-35.0,37.0,219.0,0
1971,-37.0,37.0,223.0,0
1972,-38.0,37.0,219.0,0
1973,-41.0,40.0,224.0,0
1974,-43.0,42.0,219.0,0
1975,-38.0,46.0,214.0,0
1976,-43.0,40.0,216.0,0
1977,-43.0,40.0,216.0,0
1978,-41.0,37.0,217.0,0
1979,-43.0,38.0,214.0,0
1980,-46.0,38.0,216.0,0
1981,-47.0,38.0,216.0,0
1982,-47.0,38.0,223.0,0
1983,-44.0,35.0,220.0,0
1984,-47.0,34.0,220.0,0
1985,-50.0,36.0,215.0,0
1986,-46.0,38.0,226.0,0
1987,-42.0,37.0,219.0,0
1988,-46.0,37.0,221.0,0
1989,-47.0,34.0,220.0,0
1990,-43.0,35.0,220.0,0
1991,-41.0,35.0,220.0,0
1992,-47.0,35.0,217.0,0
1993,-46.0,33.0,218.0,0
1994,-39.0,29.0,216.0,0
1995,-41.0,29.0,217.0,0
1996,-40.0,29.0,218.0,0
1997,-40.0,30.0,213.0,0
1998,-38.0,30.0,219.0,0
1999,-37.0,26.0,217.0,0
2000,-38.0,25.0,216.0,0
2001,-35.0,23.0,214.0,0
2002,-34.0,24.0,221.0,0
2003,-31.0,23.0,217.0,0
2004,-34.0,25.0,223.0,0
2005,-32.0,22.0,221.0,0
2006,-32.0,25.0,223.0,0
2007,-37.0,23.0,221.0,0
2008,-38.0,30.0,222.0,0
2009,-37.0,27.0,221.0,0
2010,-41.0,30.0,223.0,0
2011,-37.0,29.0,218.0,0
2012,-36.0,30.0,217.0,0
2013,-40.0,28.0,216.0,0
2014,-38.0,31.0,215.0,0
2015,-42.0,27.0,213.0,0
2016,-41.0,32.0,216.0,0
2017,-43.0,30.0,215.0,0
2018,-40.0,29.0,212.0,0
2019,-44.0,31.0,215.0,0
2020,-42.0,34.0,217.0,0
2021,-37.0,30.0,214.0,0
2022,-40.0,32.0,217.0,0
2023,-40.0,31.0,224.0,0
2024,-37.0,30.0,219.0,0
2025,-42.0,33.0,217.0,0
2026,-35.0,30.0,218.0,0
2027,-39.0,34.0,217.0,0
2028,-36.0,34.0,225.0,0
2029,-40.0,34.0,218.0,0
2030,-35.0,32.0,222.0,0
2031,-38.0,32.0,221.0,0
2032,-40.0,35.0,218.0,0
2033,-37.0,38.0,219.0,0
2034,-37.0,36.0,220.0,0
2035,-36.0,39.0,223.0,0
2036,-37.0,42.0,216.0,0
2037,-36.0,39.0,220.0,0
2038,-34.0,36.0,217.0,0
2039,-34.0,38.0,220.0,0
2040,-39.0,36.0,218.0,0
2041,-34.0,40.0,219.0,0
2042,-34.0,43.0,217.0,0
2043,-34.0,40.0,219.0,0
2044,-36.0,44.0,218.0,0
2045,-32.0,44.0,216.0,0
2046,-36.0,43.0,217.0,0
2047,-30.0,46.0,216.0,0
2048,-30.0,45.0,217.0,0
2049,-29.0,50.0,216.0,0
2050,-31.0,49.0,214.0,0
2051,-29.0,47.0,212.0,0
2052,-30.0,44.0,217.0,0
2053,-32.0,46.0,222.0,0
2054,-32.0,42.0,216.0,0
2055,-33.0,43.0,214.0,0
2056,-34.0,46.0,216.0,0
2057,-33.0,41.0,218.0,0
2058,-33.0,44.0,217.0,0
2059,-30.0,45.0,219.0,0
2060,-27.0,39.0,219.0,0
2061,-29.0,36.0,222.0,0
2062,-30.0,41.0,219.0,0
2063,-34.0,37.0,227.0,0
2064,-29.0,34.0,228.0,0
2065,-31.0,38.0,226.0,0
2066,-34.0,36.0,224.0,0
2067,-33.0,37.0,221.0,0
2068,-31.0,34.0,225.0,0
2069,-32.0,33.0,221.0,0
2070,-35.0,33.0,221.0,0
2071,-33.0,33.0,218.0,0
2072,-35.0,34.0,217.0,0
2073,-32.0,34.0,226.0,0
2074,-34.0,33.0,219.0,0
2075,-33.0,33.0,214.0,0
2076,-32.0,34.0,221.0,0
2077,-33.0,34.0,221.0,0
2078,-32.0,36.0,220.0,0
2079,-32.0,32.0,222.0,0
2080,-33.0,32.0,218.0,0
2081,-30.0,29.0,220.0,0
2082,-35.0,31.0,222.0,0
2083,-35.0,32.0,219.0,0
2084,-35.0,27.0,221.0,0
2085,-37.0,31.0,217.0,0
2086,-37.0,28.0,219.0,0
2087,-36.0,28.0,215.0,0
2088,-39.0,26.0,216.0,0
2089,-36.0,24.0,219.0,0
2090,-42.0,22.0,219.0,0
2091,-42.0,28.0,220.0,0
2092,-42.0,29.0,219.0,0
2093,-45.0,30.0,215.0,0
2094,-46.0,35.0,220.0,0
2095,-47.0,31.0,219.0,0
2096,-46.0,35.0,218.0,0
2097,-45.0,32.0,218.0,0
2098,-45.0,32.0,217.0,0
2099,-43.0,30.0,217.0,0
2100,-46.0,32.0,217.0,0
2101,-41.0,29.0,217.0,0
2102,-42.0,33.0,216.0,0
2103,-42.0,31.0,212.0,0
2104,-41.0,32.0,216.0,0
2105,-40.0,30.0,214.0,0
2106,-38.0,27.0,214.0,0
2107,-36.0,24.0,213.0,0
2108,-38.0,24.0,214.0,0
2109,-38.0,23.0,211.0,0
2110,-40.0,22.0,217.0,0
2111,-40.0,23.0,216.0,0
2112,-42.0,25.0,218.0,0
2113,-43.0,25.0,213.0,0
2114,-43.0,26.0,213.0,0
2115,-43.0,29.0,210.0,0
2116,-39.0,30.0,212.0,0
2117,-41.0,31.0,212.0,0
2118,-34.0,30.0,208.0,0
2119,-46.0,31.0,218.0,0
2120,-45.0,34.0,218.0,0
2121,-44.0,34.0,220.0,0
2122,-42.0,32.0,219.0,0
2123,-46.0,33.0,220.0,0
2124,-46.0,36.0,222.0,0
2125,-46.0,34.0,217.0,0
2126,-44.0,34.0,220.0,0
2127,-44.0,35.0,224.0,0
2128,-44.0,35.0,220.0,0
2129,-42.0,32.0,222.0,0
2130,-41.0,36.0,223.0,0
2131,-44.0,36.0,222.0,0
2132,-35.0,33.0,217.0,0
2133,-37.0,34.0,221.0,0
2134,-38.0,34.0,223.0,0
2135,-38.0,37.0,221.0,0
2136,-36.0,40.0,219.0,0
2137,-37.0,34.0,220.0,0
2138,-39.0,37.0,221.0,0
2139,-37.0,36.0,221.0,0
2140,-33.0,33.0,223.0,0
2141,-37.0,32.0,222.0,0
2142,-35.0,35.0,220.0,0
2143,-37.0,35.0,221.0,0
2144,-35.0,37.0,225.0,0
2145,-34.0,37.0,219.0,0
2146,-34.0,41.0,224.0,0
2147,-36.0,43.0,224.0,0
2148,-37.0,44.0,218.0,0
2149,-38.0,44.0,225.0,0
2150,-36.0,45.0,223.0,0
2151,-34.0,44.0,224.0,0
2152,-35.0,47.0,220.0,0
2153,-34.0,45.0,222.0,0
2154,-33.0,44.0,220.0,0
2155,-35.0,44.0,221.0,0
2156,-31.0,39.0,219.0,0
2157,-33.0,38.0,214.0,0
2158,-30.0,40.0,216.0,0
2159,-32.0,41.0,222.0,0
2160,-31.0,39.0,223.0,0
2161,-31.0,37.0,222.0,0
2162,-35.0,38.0,222.0,0
2163,-34.0,41.0,225.0,0
2164,-34.0,38.0,221.0,0
2165,-34.0,39.0,222.0,0
2166,-36.0,37.0,218.0,0
2167,-33.0,41.0,218.0,0
2168,-38.0,35.0,217.0,0
2169,-33.0,35.0,216.0,0
2170,-34.0,39.0,223.0,0
2171,-36.0,37.0,219.0,0
2172,-35.0,35.0,220.0,0
2173,-37.0,35.0,218.0,0
2174,-35.0,33.0,217.0,0
2175,-35.0,30.0,220.0,0
2176,-34.0,31.0,219.0,0
2177,-30.0,32.0,221.0,0
2178,-34.0,30.0,220.0,0
2179,-30.0,35.0,223.0,0
2180,-35.0,31.0,221.0,0
2181,-34.0,30.0,221.0,0
2182,-35.0,24.0,215.0,0
2183,-34.0,28.0,216.0,0
2184,-38.0,27.0,219.0,0
2185,-37.0,30.0,218.0,0
2186,-39.0,30.0,216.0,0
2187,-36.0,24.0,221.0,0
2188,-40.0,26.0,221.0,0
2189,-43.0,25.0,218.0,0
2190,-45.0,22.0,214.0,0
2191,-44.0,25.0,217.0,0
2192,-49.0,27.0,212.0,0
2193,-44.0,25.0,215.0,0
2194,-46.0,22.0,217.0,0
2195,-46.0,24.0,216.0,0
2196,-46.0,24.0,215.0,0
2197,-45.0,26.0,214.0,0
2198,-43.0,26.0,218.0,0
2199,-43.0,28.0,217.0,0
2200,-40.0,26.0,222.0,0
2201,-42.0,27.0,220.0,0
2202,-38.0,27.0,219.0,0
2203,-39.0,31.0,224.0,0
2204,-38.0,29.0,219.0,0
2205,-42.0,33.0,215.0,0
2206,-40.0,31.0,218.0,0
2207,-40.0,32.0,219.0,0
2208,-39.0,30.0,221.0,0
2209,-38.0,29.0,221.0,0
2210,-40.0,28.0,220.0,0
2211,-37.0,28.0,221.0,0
2212,-35.0,31.0,221.0,0
2213,-33.0,28.0,220.0,0
2214,-35.0,37.0,221.0,0
2215,-35.0,34.0,222.0,0
2216,-35.0,36.0,225.0,0
2217,-36.0,38.0,224.0,0
2218,-37.0,36.0,220.0,0
2219,-34.0,39.0,218.0,0
2220,-39.0,38.0,219.0,0
2221,-38.0,42.0,220.0,0
2222,-39.0,41.0,218.0,0
2223,-42.0,40.0,216.0,0
2224,-41.0,29.0,210.0,0
2225,-40.0,25.0,213.0,0
2226,-45.0,33.0,214.0,0
2227,-43.0,31.0,215.0,0
2228,-43.0,29.0,217.0,0
2229,-38.0,28.0,214.0,0
2230,-40.0,29.0,215.0,0
2231,-35.0,28.0,218.0,0
2232,-38.0,33.0,218.0,0
2233,-36.0,32.0,220.0,0
2234,-35.0,31.0,217.0,0
2235,-38.0,34.0,222.0,0
2236,-39.0,32.0,220.0,0
2237,-35.0,32.0,216.0,0
2238,-35.0,32.0,220.0,0
2239,-37.0,31.0,221.0,0
2240,-37.0,29.0,222.0,0
2241,-34.0,26.0,221.0,0
2242,-36.0,26.0,220.0,0
2243,-40.0,28.0,218.0,0
2244,-38.0,29.0,222.0,0
2245,-36.0,28.0,221.0,0
2246,-33.0,25.0,221.0,0
2247,-36.0,27.0,219.0,0
2248,-32.0,26.0,222.0,0
2249,-33.0,27.0,221.0,0
2250,-35.0,32.0,223.0,0
2251,-35.0,33.0,218.0,0
2252,-34.0,32.0,223.0,0
2253,-35.0,37.0,226.0,0
2254,-37.0,37.0,221.0,0
2255,-36.0,38.0,220.0,0
2256,-43.0,40.0,219.0,0
2257,-41.0,42.0,221.0,0
2258,-40.0,41.0,224.0,0
2259,-41.0,36.0,215.0,0
2260,-43.0,38.0,214.0,0
2261,-45.0,39.0,216.0,0
2262,-45.0,42.0,216.0,0
2263,-43.0,35.0,221.0,0
2264,-41.0,37.0,221.0,0
2265,-39.0,37.0,216.0,0
2266,-41.0,35.0,220.0,0
2267,-40.0,34.0,216.0,0
2268,-37.0,34.0,217.0,0
2269,-33.0,35.0,223.0,0
2270,-37.0,33.0,221.0,0
2271,-37.0,32.0,217.0,0
2272,-33.0,29.0,222.0,0
2273,-36.0,32.0,220.0,0
2274,-36.0,33.0,220.0,0
2275,-40.0,34.0,221.0,0
2276,-34.0,31.0,217.0,0
2277,-37.0,36.0,220.0,0
2278,-41.0,32.0,218.0,0
2279,-38.0,41.0,221.0,0
2280,-45.0,39.0,217.0,0
2281,-44.0,38.0,217.0,0
2282,-47.0,37.0,218.0,0
2283,-43.0,36.0,222.0,0
2284,-41.0,32.0,223.0,0
2285,-45.0,34.0,218.0,0
2286,-45.0,30.0,221.0,0
2287,-40.0,30.0,218.0,0
2288,-37.0,32.0,220.0,0
2289,-36.0,33.0,216.0,0
2290,-38.0,32.0,217.0,0
2291,-37.0,31.0,215.0,0
2292,-40.0,30.0,219.0,0
2293,-39.0,31.0,218.0,0
2294,-39.0,31.0,220.0,0
2295,-40.0,28.0,220.0,0
2296,-39.0,30.0,220.0,0
2297,-38.0,28.0,217.0,0
2298,-37.0,29.0,223.0,0
2299,-37.0,29.0,218.0,0
2300,-37.0,25.0,218.0,0
2301,-38.0,30.0,216.0,0
2302,-34.0,25.0,221.0,0
2303,-34.0,26.0,217.0,0
2304,-31.0,25.0,220.0,0
2305,-32.0,25.0,219.0,0
2306,-29.0,24.0,220.0,0
2307,-31.0,24.0,218.0,0
2308,-33.0,25.0,217.0,0
2309,-28.0,27.0,218.0,0
2310,-31.0,28.0,218.0,0
2311,-33.0,25.0,217.0,0
2312,-34.0,24.0,217.0,0
2313,-37.0,29.0,217.0,0
2314,-38.0,29.0,212.0,0
2315,-41.0,27.0,219.0,0
2316,-41.0,28.0,217.0,0
2317,-39.0,28.0,218.0,0
2318,-38.0,29.0,215.0,0
2319,-41.0,31.0,217.0,0
2320,-37.0,27.0,207.0,0
2321,-37.0,28.0,214.0,0
2322,-36.0,27.0,210.0,0
2323,-36.0,28.0,219.0,0
2324,-34.0,25.0,217.0,0
2325,-32.0,23.0,215.0,0
2326,-31.0,20.0,220.0,0
2327,-32.0,22.0,217.0,0
2328,-30.0,23.0,223.0,0
2329,-33.0,24.0,220.0,0
2330,-32.0,24.0,225.0,0
2331,-30.0,27.0,220.0,0
2332,-32.0,32.0,221.0,0
2333,-29.0,31.0,217.0,0
2334,-33.0,34.0,221.0,0
2335,-31.0,30.0,221.0,0
2336,-37.0,34.0,217.0,0
2337,-35.0,33.0,214.0,0
2338,-35.0,31.0,217.0,0
2339,-37.0,31.0,217.0,0
2340,-37.0,29.0,215.0,0
2341,-38.0,29.0,211.0,0
2342,-36.0,26.0,217.0,0
2343,-39.0,28.0,214.0,0
2344,-38.0,25.0,215.0,0
2345,-37.0,25.0,218.0,0
2346,-39.0,26.0,219.0,0
2347,-35.0,27.0,220.0,0
2348,-34.0,26.0,220.0,0
2349,-32.0,26.0,223.0,0
2350,-29.0,26.0,221.0,0
2351,-31.0,28.0,222.0,0
2352,-31.0,31.0,228.0,0
2353,-29.0,30.0,228.0,0
2354,-32.0,33.0,224.0,0
2355,-30.0,31.0,225.0,0
2356,-33.0,33.0,225.0,0
2357,-34.0,32.0,223.0,0
2358,-31.0,32.0,221.0,0
2359,-35.0,30.0,226.0,0
2360,-34.0,32.0,220.0,0
2361,-35.0,31.0,218.0,0
2362,-33.0,29.0,218.0,0
2363,-31.0,31.0,223.0,0
2364,-32.0,33.0,222.0,0
2365,-31.0,30.0,224.0,0
2366,-30.0,31.0,220.0,0
2367,-24.0,34.0,222.0,0
2368,-27.0,31.0,223.0,0
2369,-22.0,32.0,227.0,0
2370,-24.0,34.0,223.0,0
2371,-21.0,34.0,225.0,0
2372,-27.0,33.0,226.0,0
2373,-27.0,37.0,224.0,0
2374,-26.0,35.0,223.0,0
2375,-29.0,41.0,223.0,0
2376,-30.0,36.0,223.0,0
2377,-21.0,34.0,217.0,0
2378,-29.0,36.0,217.0,0
2379,-29.0,33.0,221.0,0
2380,-32.0,35.0,223.0,0
2381,-31.0,34.0,218.0,0
2382,-33.0,38.0,217.0,0
2383,-33.0,37.0,218.0,0
2384,-30.0,34.0,217.0,0
2385,-34.0,35.0,217.0,0
2386,-31.0,39.0,217.0,0
2387,-37.0,38.0,218.0,0
2388,-36.0,44.0,220.0,0
2389,-28.0,35.0,219.0,0
2390,-34.0,41.0,219.0,0
2391,-35.0,41.0,220.0,0
2392,-36.0,38.0,218.0,0
2393,-39.0,38.0,218.0,0
2394,-39.0,38.0,218.0,0
2395,-41.0,36.0,214.0,0
2396,-41.0,39.0,220.0,0
2397,-44.0,41.0,219.0,0
2398,-39.0,36.0,219.0,0
2399,-44.0,30.0,214.0,0
2400,-43.0,35.0,218.0,0
2401,-41.0,34.0,215.0,0
2402,-44.0,35.0,214.0,0
2403,-41.0,31.0,212.0,0
2404,-42.0,32.0,214.0,0
2405,-46.0,33.0,218.0,0
2406,-45.0,30.0,219.0,0
2407,-38.0,29.0,217.0,0
2408,-41.0,30.0,214.0,0
2409,-42.0,30.0,215.0,0
2410,-43.0,32.0,225.0,0
2411,-42.0,32.0,219.0,0
2412,-41.0,32.0,217.0,0
2413,-39.0,34.0,214.0,0
2414,-41.0,32.0,221.0,0
2415,-43.0,33.0,218.0,0
2416,-41.0,32.0,221.0,0
2417,-37.0,30.0,219.0,0
2418,-39.0,33.0,224.0,0
2419,-43.0,30.0,216.0,0
2420,-38.0,34.0,219.0,0
2421,-37.0,35.0,219.0,0
2422,-37.0,31.0,218.0,0
2423,-38.0,32.0,222.0,0
2424,-37.0,29.0,220.0,0
2425,-36.0,30.0,214.0,0
2426,-35.0,31.0,217.0,0
2427,-34.0,31.0,217.0,0
2428,-31.0,28.0,218.0,0
2429,-30.0,30.0,214.0,0
2430,-33.0,28.0,217.0,0
2431,-30.0,28.0,220.0,0
2432,-36.0,29.0,215.0,0
2433,-32.0,32.0,217.0,0
2434,-30.0,29.0,219.0,0
2435,-30.0,31.0,218.0,0
2436,-32.0,36.0,217.0,0
2437,-33.0,35.0,220.0,0
2438,-31.0,36.0,219.0,0
2439,-31.0,35.0,224.0,0
2440,-28.0,36.0,220.0,0
2441,-31.0,38.0,221.0,0
2442,-30.0,35.0,221.0,0
2443,-27.0,36.0,225.0,0
2444,-30.0,37.0,223.0,0
2445,-28.0,39.0,225.0,0
2446,-30.0,39.0,221.0,0
2447,-29.0,33.0,227.0,0
2448,-33.0,38.0,225.0,0
2449,-32.0,38.0,220.0,0
2450,-33.0,32.0,223.0,0
2451,-35.0,36.0,219.0,0
2452,-38.0,32.0,217.0,0
2453,-38.0,34.0,218.0,0
2454,-47.0,39.0,215.0,0
2455,-39.0,35.0,222.0,0
2456,-47.0,41.0,215.0,0
2457,-44.0,39.0,220.0,0
2458,-47.0,37.0,220.0,0
2459,-45.0,42.0,221.0,0
2460,-43.0,44.0,221.0,0
2461,-41.0,43.0,223.0,0
2462,-37.0,44.0,224.0,0
2463,-36.0,45.0,225.0,0
2464,-30.0,41.0,225.0,0
2465,-30.0,40.0,229.0,0
2466,-31.0,43.0,232.0,0
2467,-25.0,35.0,226.0,0
2468,-27.0,33.0,229.0,0
2469,-28.0,30.0,225.0,0
2470,-33.0,27.0,224.0,0
2471,-37.0,30.0,221.0,0
2472,-36.0,28.0,211.0,0
2473,-36.0,28.0,211.0,0
2474,-37.0,33.0,205.0,0
2475,-35.0,31.0,205.0,0
2476,-41.0,30.0,209.0,0
2477,-34.0,38.0,202.0,0
2478,-35.0,38.0,203.0,0
2479,-34.0,38.0,208.0,0
2480,-33.0,37.0,210.0,0
2481,-31.0,36.0,213.0,0
2482,-31.0,38.0,216.0,0
2483,-34.0,35.0,218.0,0
2484,-38.0,33.0,221.0,0
2485,-37.0,33.0,223.0,0
2486,-40.0,27.0,225.0,0
2487,-38.0,34.0,225.0,0
2488,-40.0,28.0,220.0,0
2489,-44.0,30.0,225.0,0
2490,-43.0,27.0,220.0,0
2491,-43.0,29.0,221.0,0
2492,-44.0,26.0,223.0,0
2493,-43.0,29.0,224.0,0
2494,-45.0,27.0,221.0,0
2495,-44.0,31.0,220.0,0
2496,-43.0,33.0,224.0,0
2497,-51.0,33.0,220.0,0
2498,-43.0,32.0,214.0,0
2499,-43.0,29.0,221.0,0
2500,-41.0,33.0,220.0,0
2501,-36.0,34.0,220.0,0
2502,-35.0,39.0,216.0,0
2503,-32.0,37.0,216.0,0
2504,-30.0,38.0,212.0,0
2505,-30.0,39.0,212.0,0
2506,-26.0,35.0,213.0,0
2507,-24.0,34.0,215.0,0
2508,-33.0,38.0,218.0,0
2509,-27.0,36.0,215.0,0
2510,-30.0,35.0,216.0,0
2511,-30.0,31.0,218.0,0
2512,-32.0,36.0,215.0,0
2513,-31.0,30.0,217.0,0
2514,-30.0,33.0,217.0,0
2515,-32.0,33.0,221.0,0
2516,-35.0,33.0,216.0,0
2517,-34.0,28.0,224.0,0
2518,-36.0,34.0,217.0,0
2519,-29.0,33.0,228.0,0
2520,-31.0,37.0,224.0,0
2521,-32.0,38.0,226.0,0
2522,-30.0,35.0,223.0,0
2523,-29.0,35.0,226.0,0
2524,-28.0,41.0,220.0,0
2525,-28.0,37.0,222.0,0
2526,-32.0,41.0,223.0,0
2527,-33.0,41.0,220.0,0
2528,-28.0,36.0,223.0,0
2529,-30.0,38.0,218.0,0
2530,-39.0,38.0,218.0,0
2531,-31.0,35.0,220.0,0
2532,-30.0,35.0,216.0,0
2533,-34.0,40.0,215.0,0
2534,-35.0,36.0,217.0,0
2535,-36.0,37.0,214.0,0
2536,-35.0,35.0,216.0,0
2537,-36.0,38.0,215.0,0
2538,-35.0,36.0,212.0,0
2539,-33.0,40.0,219.0,0
2540,-34.0,36.0,218.0,0
2541,-33.0,38.0,216.0,0
2542,-35.0,39.0,218.0,0
2543,-35.0,42.0,216.0,0
2544,-35.0,41.0,220.0,0
2545,-40.0,41.0,218.0,0
2546,-36.0,41.0,216.0,0
2547,-37.0,39.0,218.0,0
2548,-37.0,37.0,215.0,0
2549,-37.0,38.0,215.0,0
2550,-37.0,40.0,223.0,0
2551,-38.0,36.0,217.0,0
2552,-33.0,32.0,224.0,0
2553,-38.0,34.0,226.0,0
2554,-39.0,34.0,220.0,0
2555,-38.0,33.0,223.0,0
2556,-39.0,37.0,223.0,0
2557,-36.0,39.0,221.0,0
2558,-36.0,35.0,225.0,0
2559,-36.0,39.0,224.0,0
2560,-37.0,33.0,226.0,0
2561,-33.0,38.0,228.0,0
2562,-36.0,38.0,228.0,0
2563,-37.0,36.0,222.0,0
2564,-37.0,38.0,228.0,0
2565,-37.0,37.0,227.0,0
2566,-39.0,35.0,226.0,0
2567,-37.0,33.0,220.0,0
2568,-40.0,37.0,222.0,0
2569,-37.0,34.0,221.0,0
2570,-39.0,38.0,221.0,0
2571,-37.0,37.0,221.0,0
2572,-38.0,36.0,218.0,0
2573,-38.0,38.0,216.0,0
2574,-37.0,30.0,215.0,0
2575,-38.0,35.0,216.0,0
2576,-35.0,32.0,219.0,0
2577,-33.0,31.0,219.0,0
2578,-33.0,33.0,226.0,0
2579,-33.0,34.0,221.0,0
2580,-32.0,37.0,221.0,0
2581,-34.0,38.0,225.0,0
2582,-28.0,32.0,234.0,0
2583,-31.0,36.0,231.0,0
2584,-30.0,34.0,232.0,0
2585,-31.0,31.0,236.0,0
2586,-31.0,30.0,234.0,0
2587,-36.0,28.0,233.0,0
2588,-39.0,28.0,231.0,0
2589,-41.0,25.0,229.0,0
2590,-37.0,19.0,225.0,0
2591,-42.0,22.0,225.0,0
2592,-39.0,20.0,217.0,0
2593,-35.0,25.0,219.0,0
2594,-34.0,25.0,214.0,0
2595,-29.0,29.0,212.0,0
2596,-28.0,34.0,217.0,0
2597,-27.0,40.0,216.0,0
2598,-27.0,40.0,220.0,0
2599,-30.0,46.0,219.0,0
2600,-30.0,45.0,222.0,0
2601,-35.0,42.0,227.0,0
2602,-34.0,42.0,223.0,0
2603,-36.0,38.0,222.0,0
2604,-38.0,37.0,222.0,0
2605,-36.0,34.0,223.0,0
2606,-35.0,32.0,221.0,0
2607,-35.0,27.0,217.0,0
2608,-37.0,29.0,211.0,0
2609,-41.0,27.0,212.0,0
2610,-37.0,27.0,210.0,0
2611,-38.0,29.0,209.0,0
2612,-37.0,29.0,210.0,0
2613,-41.0,34.0,211.0,0
2614,-39.0,35.0,208.0,0
2615,-40.0,37.0,209.0,0
2616,-39.0,37.0,211.0,0
2617,-47.0,38.0,208.0,0
2618,-37.0,36.0,215.0,0
2619,-37.0,37.0,213.0,0
2620,-39.0,34.0,215.0,0
2621,-40.0,32.0,214.0,0
2622,-36.0,27.0,214.0,0
2623,-38.0,30.0,210.0,0
2624,-37.0,28.0,210.0,0
2625,-41.0,27.0,211.0,0
2626,-39.0,28.0,209.0,0
2627,-37.0,29.0,212.0,0
2628,-48.0,26.0,199.0,0
2629,-40.0,26.0,211.0,0
2630,-41.0,28.0,212.0,0
2631,-39.0,28.0,208.0,0
2632,-35.0,29.0,211.0,0
2633,-36.0,34.0,210.0,0
2634,-30.0,38.0,213.0,0
2635,-30.0,39.0,219.0,0
2636,-28.0,45.0,220.0,0
2637,-20.0,47.0,221.0,0
2638,-21.0,45.0,221.0,0
2639,-26.0,51.0,234.0,0
2640,-24.0,43.0,229.0,0
2641,-20.0,37.0,226.0,0
2642,-21.0,31.0,228.0,0
2643,-23.0,28.0,228.0,0
2644,-27.0,27.0,227.0,0
2645,-28.0,26.0,220.0,0
2646,-28.0,27.0,220.0,0
2647,-29.0,28.0,220.0,0
2648,-34.0,29.0,216.0,0
2649,-29.0,33.0,216.0,0
2650,-30.0,35.0,217.0,0
2651,-32.0,38.0,216.0,0
2652,-32.0,38.0,220.0,0
2653,-32.0,38.0,214.0,0
2654,-33.0,37.0,218.0,0
2655,-29.0,39.0,217.0,0
2656,-29.0,41.0,221.0,0
2657,-25.0,39.0,221.0,0
2658,-25.0,40.0,217.0,0
2659,-28.0,42.0,214.0,0
2660,-21.0,39.0,219.0,0
2661,-32.0,46.0,217.0,0
2662,-26.0,40.0,224.0,0
2663,-21.0,40.0,220.0,0
2664,-28.0,42.0,221.0,0
2665,-24.0,41.0,215.0,0
2666,-24.0,40.0,220.0,0
2667,-25.0,38.0,218.0,0
2668,-29.0,40.0,218.0,0
2669,-29.0,39.0,223.0,0
2670,-26.0,42.0,218.0,0
2671,-29.0,42.0,217.0,0
2672,-21.0,42.0,214.0,0
2673,-27.0,40.0,219.0,0
2674,-28.0,42.0,217.0,0
2675,-28.0,38.0,213.0,0
2676,-24.0,39.0,212.0,0
2677,-28.0,39.0,216.0,0
2678,-31.0,39.0,216.0,0
2679,-28.0,41.0,217.0,0
2680,-29.0,39.0,219.0,0
2681,-33.0,41.0,214.0,0
2682,-33.0,40.0,216.0,0
2683,-34.0,39.0,214.0,0
2684,-33.0,41.0,217.0,0
2685,-32.0,39.0,215.0,0
2686,-35.0,38.0,218.0,0
2687,-34.0,41.0,221.0,0
2688,-35.0,41.0,221.0,0
2689,-33.0,42.0,218.0,0
2690,-34.0,40.0,221.0,0
2691,-36.0,44.0,221.0,0
2692,-33.0,43.0,221.0,0
2693,-31.0,43.0,219.0,0
2694,-37.0,48.0,223.0,0
2695,-29.0,44.0,221.0,0
2696,-28.0,46.0,224.0,0
2697,-26.0,42.0,220.0,0
2698,-26.0,42.0,220.0,0
2699,-29.0,41.0,216.0,0
2700,-25.0,41.0,219.0,0
2701,-27.0,35.0,223.0,0
2702,-29.0,39.0,222.0,0
2703,-29.0,39.0,223.0,0
2704,-24.0,29.0,218.0,0
2705,-24.0,37.0,226.0,0
2706,-28.0,38.0,220.0,0
2707,-26.0,36.0,221.0,0
2708,-26.0,39.0,217.0,0
2709,-25.0,36.0,217.0,0
2710,-25.0,37.0,220.0,0
2711,-24.0,38.0,225.0,0
2712,-24.0,37.0,220.0,0
2713,-28.0,39.0,223.0,0
2714,-29.0,37.0,220.0,0
2715,-27.0,36.0,219.0,0
2716,-29.0,43.0,220.0,0
2717,-28.0,37.0,216.0,0
2718,-28.0,36.0,219.0,0
2719,-26.0,36.0,218.0,0
2720,-25.0,32.0,218.0,0
2721,-28.0,35.0,215.0,0
2722,-29.0,37.0,217.0,0
2723,-29.0,38.0,216.0,0
2724,-29.0,35.0,214.0,0
2725,-28.0,37.0,214.0,0
2726,-21.0,36.0,215.0,0
2727,-24.0,37.0,213.0,0
2728,-30.0,38.0,215.0,0
2729,-33.0,41.0,214.0,0
2730,-32.0,42.0,211.0,0
2731,-30.0,43.0,219.0,0
2732,-32.0,44.0,216.0,0
2733,-31.0,45.0,214.0,0
2734,-33.0,46.0,217.0,0
2735,-36.0,45.0,215.0,0
2736,-36.0,50.0,214.0,0
2737,-31.0,46.0,214.0,0
2738,-29.0,47.0,219.0,0
2739,-31.0,46.0,217.0,0
2740,-39.0,49.0,222.0,0
2741,-33.0,49.0,222.0,0
2742,-31.0,47.0,222.0,0
2743,-30.0,46.0,222.0,0
2744,-34.0,42.0,222.0,0
2745,-31.0,43.0,222.0,0
2746,-29.0,40.0,220.0,0
2747,-29.0,42.0,220.0,0
2748,-36.0,36.0,224.0,0
2749,-34.0,43.0,217.0,0
2750,-32.0,43.0,221.0,0
2751,-33.0,39.0,218.0,0
2752,-38.0,38.0,218.0,0
2753,-34.0,42.0,220.0,0
2754,-33.0,40.0,218.0,0
2755,-32.0,43.0,217.0,0
2756,-35.0,44.0,218.0,0
2757,-31.0,42.0,222.0,0
2758,-30.0,48.0,221.0,0
2759,-24.0,43.0,219.0,0
2760,-29.0,47.0,224.0,0
2761,-33.0,48.0,227.0,0
2762,-29.0,49.0,226.0,0
2763,-32.0,49.0,228.0,0
2764,-29.0,51.0,229.0,0
2765,-29.0,47.0,227.0,0
2766,-33.0,48.0,227.0,0
2767,-28.0,45.0,228.0,0
2768,-31.0,47.0,229.0,0
2769,-31.0,47.0,224.0,0
2770,-36.0,46.0,219.0,0
2771,-31.0,42.0,221.0,0
2772,-35.0,40.0,221.0,0
2773,-35.0,41.0,217.0,0
2774,-31.0,35.0,217.0,0
2775,-34.0,37.0,213.0,0
2776,-31.0,36.0,213.0,0
2777,-32.0,35.0,212.0,0
2778,-34.0,35.0,219.0,0
2779,-30.0,38.0,212.0,0
2780,-31.0,38.0,213.0,0
2781,-37.0,37.0,215.0,0
2782,-36.0,40.0,213.0,0
2783,-36.0,37.0,215.0,0
2784,-35.0,37.0,214.0,0
2785,-37.0,41.0,212.0,0
2786,-34.0,38.0,212.0,0
2787,-38.0,43.0,213.0,0
2788,-37.0,43.0,212.0,0
2789,-36.0,45.0,218.0,0
2790,-34.0,48.0,218.0,0
2791,-35.0,47.0,218.0,0
2792,-32.0,48.0,221.0,0
2793,-39.0,48.0,222.0,0
2794,-36.0,49.0,222.0,0
2795,-37.0,52.0,222.0,0
2796,-39.0,51.0,222.0,0
2797,-37.0,47.0,226.0,0
2798,-34.0,48.0,219.0,0
2799,-35.0,42.0,219.0,0
2800,-35.0,43.0,223.0,0
2801,-37.0,41.0,221.0,0
2802,-31.0,39.0,224.0,0
2803,-32.0,37.0,197.0,0
2804,-36.0,40.0,215.0,0
2805,-33.0,40.0,217.0,0
2806,-35.0,39.0,217.0,0
2807,-36.0,42.0,215.0,0
2808,-35.0,44.0,217.0,0
2809,-29.0,45.0,215.0,0
2810,-32.0,44.0,217.0,0
2811,-32.0,44.0,222.0,0
2812,-28.0,44.0,217.0,0
2813,-39.0,44.0,223.0,0
2814,-30.0,44.0,220.0,0
2815,-29.0,43.0,221.0,0
2816,-30.0,44.0,220.0,0
2817,-32.0,43.0,218.0,0
2818,-31.0,44.0,221.0,0
2819,-32.0,40.0,219.0,0
2820,-30.0,39.0,219.0,0
2821,-28.0,38.0,217.0,0
2822,-30.0,38.0,219.0,0
2823,-31.0,40.0,214.0,0
2824,-33.0,37.0,217.0,0
2825,-34.0,41.0,219.0,0
2826,-31.0,39.0,216.0,0
2827,-32.0,42.0,217.0,0
2828,-33.0,41.0,220.0,0
2829,-31.0,40.0,219.0,0
2830,-35.0,43.0,220.0,0
2831,-35.0,44.0,219.0,0
2832,-36.0,43.0,222.0,0
2833,-34.0,41.0,215.0,0
2834,-29.0,40.0,219.0,0
2835,-33.0,44.0,220.0,0
2836,-29.0,43.0,221.0,0
2837,-32.0,42.0,222.0,0
2838,-30.0,43.0,219.0,0
2839,-32.0,43.0,225.0,0
2840,-34.0,43.0,224.0,0
2841,-34.0,44.0,221.0,0
2842,-37.0,46.0,218.0,0
2843,-33.0,46.0,226.0,0
2844,-35.0,47.0,227.0,0
2845,-32.0,46.0,224.0,0
2846,-33.0,56.0,221.0,0
2847,-37.0,51.0,227.0,0
2848,-36.0,49.0,223.0,0
2849,-41.0,55.0,226.0,0
2850,-42.0,54.0,224.0,0
2851,-43.0,55.0,226.0,0
2852,-45.0,55.0,223.0,0
2853,-43.0,53.0,216.0,0
2854,-45.0,52.0,214.0,0
2855,-44.0,46.0,216.0,0
2856,-44.0,46.0,211.0,0
2857,-51.0,46.0,216.0,0
2858,-40.0,44.0,209.0,0
2859,-41.0,40.0,209.0,0
2860,-38.0,37.0,210.0,0
2861,-39.0,33.0,208.0,0
2862,-39.0,32.0,209.0,0
2863,-36.0,33.0,211.0,0
2864,-39.0,31.0,219.0,0
2865,-37.0,33.0,223.0,0
2866,-34.0,33.0,211.0,0
2867,-37.0,34.0,213.0,0
2868,-37.0,33.0,226.0,0
2869,-33.0,38.0,211.0,0
2870,-35.0,36.0,218.0,0
2871,-31.0,33.0,215.0,0
2872,-32.0,32.0,220.0,0
2873,-29.0,29.0,219.0,0
2874,-28.0,31.0,224.0,0
2875,-27.0,25.0,224.0,0
2876,-25.0,29.0,223.0,0
2877,-26.0,29.0,230.0,0
2878,-23.0,29.0,229.0,0
2879,-27.0,30.0,225.0,0
2880,-29.0,33.0,229.0,0
2881,-23.0,29.0,223.0,0
2882,-27.0,36.0,225.0,0
2883,-22.0,37.0,218.0,0
2884,-21.0,36.0,219.0,0
2885,-22.0,40.0,217.0,0
2886,-23.0,39.0,210.0,0
2887,-22.0,31.0,208.0,0
2888,-20.0,32.0,205.0,0
2889,-23.0,33.0,207.0,0
2890,-24.0,35.0,213.0,0
2891,-21.0,32.0,208.0,0
2892,-21.0,28.0,205.0,0
2893,-20.0,31.0,209.0,0
2894,-21.0,31.0,210.0,0
2895,-20.0,31.0,214.0,0
2896,-22.0,33.0,215.0,0
2897,-25.0,32.0,220.0,0
2898,-24.0,35.0,224.0,0
2899,-27.0,36.0,220.0,0
2900,-30.0,40.0,219.0,0
2901,-31.0,36.0,225.0,0
2902,-31.0,39.0,222.0,0
2903,-33.0,39.0,217.0,0
2904,-34.0,41.0,217.0,0
2905,-35.0,39.0,219.0,0
2906,-37.0,37.0,216.0,0
2907,-38.0,41.0,219.0,0
2908,-40.0,41.0,216.0,0
2909,-43.0,43.0,218.0,0
2910,-44.0,40.0,216.0,0
2911,-44.0,39.0,230.0,0
2912,-44.0,37.0,220.0,0
2913,-48.0,40.0,219.0,0
2914,-47.0,41.0,216.0,0
2915,-45.0,41.0,216.0,0
2916,-44.0,43.0,218.0,0
2917,-49.0,44.0,218.0,0
2918,-47.0,43.0,221.0,0
2919,-44.0,46.0,218.0,0
2920,-44.0,43.0,217.0,0
2921,-43.0,41.0,218.0,0
2922,-44.0,48.0,224.0,0
2923,-41.0,42.0,219.0,0
2924,-43.0,41.0,218.0,0
2925,-42.0,42.0,215.0,0
2926,-41.0,41.0,221.0,0
2927,-45.0,42.0,220.0,0
2928,-42.0,42.0,217.0,0
2929,-42.0,41.0,224.0,0
2930,-39.0,35.0,213.0,0
2931,-49.0,37.0,220.0,0
2932,-47.0,38.0,221.0,0
2933,-42.0,39.0,224.0,0
2934,-46.0,41.0,220.0,0
2935,-49.0,39.0,224.0,0
2936,-48.0,40.0,219.0,0
2937,-47.0,40.0,220.0,0
2938,-48.0,41.0,220.0,0
2939,-46.0,39.0,218.0,0
2940,-42.0,37.0,216.0,0
2941,-41.0,35.0,216.0,0
2942,-41.0,35.0,213.0,0
2943,-41.0,35.0,216.0,0
2944,-38.0,32.0,217.0,0
2945,-38.0,34.0,217.0,0
2946,-40.0,37.0,218.0,0
2947,-34.0,34.0,217.0,0
2948,-41.0,39.0,214.0,0
2949,-37.0,34.0,220.0,0
2950,-40.0,39.0,213.0,0
2951,-39.0,36.0,212.0,0
2952,-39.0,35.0,215.0,0
2953,-46.0,37.0,214.0,0
2954,-37.0,36.0,224.0,0
2955,-32.0,34.0,216.0,0
2956,-35.0,35.0,213.0,0
2957,-35.0,36.0,216.0,0
2958,-30.0,39.0,219.0,0
2959,-31.0,37.0,214.0,0
2960,-36.0,38.0,219.0,0
2961,-32.0,39.0,222.0,0
2962,-37.0,41.0,225.0,0
2963,-35.0,42.0,223.0,0
2964,-33.0,42.0,227.0,0
2965,-38.0,47.0,221.0,0
2966,-30.0,43.0,218.0,0
2967,-31.0,43.0,227.0,0
2968,-34.0,46.0,226.0,0
2969,-33.0,46.0,223.0,0
2970,-30.0,47.0,225.0,0
2971,-31.0,48.0,219.0,0
2972,-33.0,45.0,219.0,0
2973,-29.0,49.0,218.0,0
2974,-32.0,49.0,217.0,0
2975,-30.0,44.0,213.0,0
2976,-32.0,45.0,218.0,0
2977,-31.0,42.0,218.0,0
2978,-28.0,40.0,211.0,0
2979,-31.0,41.0,209.0,0
2980,-30.0,42.0,216.0,0
2981,-33.0,43.0,215.0,0
2982,-32.0,43.0,213.0,0
2983,-37.0,44.0,217.0,0
2984,-40.0,43.0,216.0,0
2985,-39.0,44.0,218.0,0
2986,-40.0,47.0,221.0,0
2987,-42.0,46.0,222.0,0
2988,-44.0,41.0,218.0,0
2989,-47.0,44.0,205.0,0
2990,-43.0,48.0,223.0,0
2991,-45.0,46.0,222.0,0
2992,-50.0,43.0,217.0,0
2993,-49.0,44.0,220.0,0
2994,-44.0,45.0,228.0,0
2995,-49.0,40.0,215.0,0
2996,-48.0,50.0,211.0,0
2997,-47.0,47.0,219.0,0
2998,-51.0,44.0,219.0,0
2999,-45.0,43.0,215.0,0
