,accelerometer_x,accelerometer_y,accelerometer_z,fall
0,-11.0,-277.0,-5.0,0
1,-9.0,-277.0,-10.0,0
2,-9.0,-276.0,-8.0,0
3,-9.0,-275.0,-8.0,0
4,-8.0,-275.0,-8.0,0
5,3.0,-291.0,-11.0,0
6,-5.0,-275.0,-11.0,0
7,-6.0,-272.0,-6.0,0
8,-4.0,-274.0,-12.0,0
9,-6.0,-273.0,-10.0,0
10,-3.0,-273.0,-7.0,0
11,-3.0,-272.0,-12.0,0
12,-4.0,-268.0,-12.0,0
13,-3.0,-268.0,-14.0,0
14,-1.0,-268.0,-11.0,0
15,0.0,-266.0,-7.0,0
16,-4.0,-268.0,-12.0,0
17,-3.0,-267.0,-12.0,0
18,-2.0,-267.0,-9.0,0
19,-3.0,-267.0,-11.0,0
20,-3.0,-269.0,-4.0,0
21,-7.0,-267.0,-6.0,0
22,-8.0,-273.0,-8.0,0
23,-3.0,-266.0,-9.0,0
24,3.0,-267.0,-2.0,0
25,-9.0,-266.0,-5.0,0
26,-9.0,-266.0,-14.0,0
27,-6.0,-267.0,-11.0,0
28,-1.0,-257.0,-1.0,0
29,-3.0,-262.0,-13.0,0
30,-3.0,-264.0,-1.0,0
31,-10.0,-271.0,-15.0,0
32,-10.0,-273.0,-8.0,0
33,-12.0,-273.0,-17.0,0
34,-11.0,-264.0,-4.0,0
35,-11.0,-268.0,2.0,0
36,-11.0,-276.0,-2.0,0
37,-5.0,-266.0,-7.0,0
38,-10.0,-272.0,-13.0,0
39,-16.0,-273.0,-27.0,0
40,-13.0,-274.0,-11.0,0
41,-13.0,-275.0,-5.0,0
42,-13.0,-273.0,-13.0,0
43,-13.0,-275.0,-13.0,0
44,-10.0,-267.0,-10.0,0
45,-12.0,-271.0,-10.0,0
46,-12.0,-274.0,-11.0,0
47,-11.0,-271.0,-14.0,0
48,-11.0,-274.0,-17.0,0
49,-10.0,-268.0,-21.0,0
50,-11.0,-275.0,-9.0,0
51,-12.0,-272.0,-8.0,0
52,-11.0,-273.0,-9.0,0
53,-11.0,-268.0,-8.0,0
54,-12.0,-272.0,-15.0,0
55,-12.0,-267.0,-12.0,0
56,-10.0,-270.0,-12.0,0
57,-12.0,-270.0,-11.0,0
58,-11.0,-274.0,-4.0,0
59,-10.0,-271.0,-9.0,0
60,-6.0,-270.0,-6.0,0
61,-7.0,-272.0,-13.0,0
62,-10.0,-272.0,-5.0,0
63,-9.0,-269.0,-10.0,0
64,-9.0,-271.0,-12.0,0
65,-8.0,-270.0,-9.0,0
66,-6.0,-270.0,-13.0,0
67,-5.0,-270.0,-11.0,0
68,-8.0,-270.0,-14.0,0
69,-5.0,-271.0,-14.0,0
70,-8.0,-271.0,-13.0,0
71,-8.0,-272.0,-12.0,0
72,-11.0,-271.0,-10.0,0
73,-8.0,-273.0,-9.0,0
74,-11.0,-270.0,-12.0,0
75,-9.0,-273.0,-8.0,0
76,-9.0,-271.0,-10.0,0
77,-11.0,-272.0,-3.0,0
78,-12.0,-273.0,-5.0,0
79,-14.0,-269.0,-8.0,0
80,-11.0,-273.0,-10.0,0
81,-12.0,-275.0,-9.0,0
82,-11.0,-274.0,-10.0,0
83,-10.0,-270.0,-10.0,0
84,-10.0,-272.0,-8.0,0
85,-12.0,-272.0,-15.0,0
86,-12.0,-272.0,-13.0,0
87,-12.0,-272.0,-10.0,0
88,-12.0,-272.0,-14.0,0
89,-12.0,-272.0,-12.0,0
90,-11.0,-274.0,-5.0,0
91,-10.0,-272.0,-10.0,0
92,-10.0,-271.0,-10.0,0
93,-11.0,-270.0,-10.0,0
94,-11.0,-269.0,-8.0,0
95,-11.0,-270.0,-10.0,0
96,-11.0,-272.0,-9.0,0
97,-10.0,-270.0,-8.0,0
98,-11.0,-269.0,-9.0,0
99,-9.0,-271.0,-8.0,0
100,-10.0,-269.0,-12.0,0
101,-10.0,-273.0,-9.0,0
102,-10.0,-269.0,-12.0,0
103,-10.0,-270.0,-11.0,0
104,-11.0,-269.0,-10.0,0
105,-10.0,-272.0,-9.0,0
106,-11.0,-271.0,-11.0,0
107,-10.0,-269.0,-12.0,0
108,-12.0,-271.0,-11.0,0
109,-11.0,-274.0,-9.0,0
110,-9.0,-271.0,-13.0,0
111,-11.0,-271.0,-14.0,0
112,-10.0,-269.0,-13.0,0
113,-8.0,-275.0,-6.0,0
114,-9.0,-274.0,-13.0,0
115,-10.0,-272.0,-6.0,0
116,-11.0,-273.0,-9.0,0
117,-10.0,-271.0,-12.0,0
118,-11.0,-271.0,-11.0,0
119,-8.0,-271.0,-5.0,0
120,-12.0,-271.0,-10.0,0
121,-11.0,-270.0,-6.0,0
122,-10.0,-268.0,-8.0,0
123,-11.0,-269.0,-9.0,0
124,-10.0,-271.0,-10.0,0
125,-10.0,-271.0,-12.0,0
126,-9.0,-271.0,-8.0,0
127,-9.0,-271.0,-6.0,0
128,-9.0,-272.0,-7.0,0
129,-11.0,-270.0,-12.0,0
130,-11.0,-270.0,-15.0,0
131,-10.0,-271.0,-12.0,0
132,-7.0,-270.0,-9.0,0
133,-11.0,-270.0,-6.0,0
134,-10.0,-270.0,-5.0,0
135,-9.0,-270.0,-8.0,0
136,-9.0,-272.0,-5.0,0
137,-8.0,-271.0,-8.0,0
138,-9.0,-271.0,-9.0,0
139,-9.0,-272.0,-10.0,0
140,-12.0,-269.0,-5.0,0
141,-11.0,-269.0,-7.0,0
142,-12.0,-269.0,-11.0,0
143,-10.0,-270.0,-9.0,0
144,-12.0,-269.0,-8.0,0
145,-9.0,-269.0,-8.0,0
146,-10.0,-269.0,-5.0,0
147,-10.0,-270.0,-10.0,0
148,-11.0,-270.0,-10.0,0
149,-9.0,-270.0,-12.0,0
150,-11.0,-271.0,-8.0,0
151,-6.0,-271.0,-5.0,0
152,-9.0,-271.0,-5.0,0
153,-8.0,-270.0,-6.0,0
154,-8.0,-270.0,-9.0,0
155,-9.0,-271.0,-9.0,0
156,-10.0,-270.0,-5.0,0
157,-10.0,-271.0,-8.0,0
158,-6.0,-274.0,-3.0,0
159,-9.0,-275.0,-8.0,0
160,-9.0,-273.0,-5.0,0
161,-9.0,-271.0,-6.0,0
162,-10.0,-273.0,-7.0,0
163,-11.0,-272.0,-10.0,0
164,-11.0,-271.0,-11.0,0
165,-11.0,-272.0,-6.0,0
166,-11.0,-271.0,-6.0,0
167,-10.0,-273.0,-6.0,0
168,-11.0,-272.0,-6.0,0
169,-11.0,-269.0,-7.0,0
170,-12.0,-272.0,-5.0,0
171,-11.0,-271.0,-9.0,0
172,-12.0,-270.0,-1.0,0
173,-10.0,-272.0,-7.0,0
174,-12.0,-269.0,-4.0,0
175,-11.0,-270.0,-5.0,0
176,-11.0,-269.0,-5.0,0
177,-9.0,-271.0,-3.0,0
178,-7.0,-271.0,-4.0,0
179,-11.0,-272.0,-4.0,0
180,-9.0,-271.0,-6.0,0
181,-11.0,-269.0,-5.0,0
182,-11.0,-272.0,-9.0,0
183,-8.0,-274.0,-4.0,0
184,-10.0,-272.0,-5.0,0
185,-10.0,-272.0,-7.0,0
186,-11.0,-271.0,-7.0,0
187,-7.0,-265.0,-9.0,0
188,-8.0,-272.0,-8.0,0
189,-9.0,-270.0,-10.0,0
190,-9.0,-271.0,-4.0,0
191,-7.0,-270.0,-7.0,0
192,-11.0,-271.0,-6.0,0
193,-10.0,-269.0,-10.0,0
194,-11.0,-271.0,-8.0,0
195,-10.0,-272.0,-3.0,0
196,-10.0,-267.0,-7.0,0
197,-11.0,-269.0,-6.0,0
198,-10.0,-269.0,0.0,0
199,-11.0,-272.0,-1.0,0
200,-8.0,-270.0,-7.0,0
201,-10.0,-271.0,-7.0,0
202,-11.0,-269.0,-9.0,0
203,-9.0,-273.0,-6.0,0
204,-8.0,-268.0,-8.0,0
205,-11.0,-272.0,-5.0,0
206,-10.0,-269.0,-6.0,0
207,-10.0,-270.0,-8.0,0
208,-7.0,-273.0,-8.0,0
209,-9.0,-271.0,-5.0,0
210,-11.0,-272.0,-8.0,0
211,-8.0,-273.0,-6.0,0
212,-10.0,-273.0,-8.0,0
213,-8.0,-271.0,-7.0,0
214,-11.0,-273.0,-8.0,0
215,-10.0,-274.0,-8.0,0
216,-10.0,-270.0,-6.0,0
217,-9.0,-270.0,-7.0,0
218,-11.0,-271.0,-6.0,0
219,-11.0,-268.0,-8.0,0
220,-12.0,-273.0,-5.0,0
221,-6.0,-272.0,-9.0,0
222,-8.0,-271.0,-8.0,0
223,-10.0,-269.0,-4.0,0
224,-8.0,-271.0,-14.0,0
225,-9.0,-269.0,-3.0,0
226,-7.0,-272.0,-7.0,0
227,-10.0,-272.0,0.0,0
228,-12.0,-272.0,-11.0,0
229,-12.0,-270.0,-1.0,0
230,-10.0,-271.0,-4.0,0
231,-12.0,-271.0,-10.0,0
232,-11.0,-271.0,-4.0,0
233,-8.0,-270.0,-5.0,0
234,-12.0,-270.0,-6.0,0
235,-11.0,-270.0,-3.0,0
236,-9.0,-270.0,-4.0,0
237,-10.0,-271.0,-3.0,0
238,-11.0,-271.0,-2.0,0
239,-10.0,-272.0,-3.0,0
240,-11.0,-272.0,-4.0,0
241,-11.0,-273.0,-2.0,0
242,-11.0,-269.0,-5.0,0
243,-11.0,-271.0,0.0,0
244,-10.0,-271.0,-5.0,0
245,-10.0,-269.0,-6.0,0
246,-11.0,-268.0,-8.0,0
247,-8.0,-266.0,-7.0,0
248,-9.0,-270.0,-8.0,0
249,-10.0,-274.0,-6.0,0
250,-11.0,-270.0,-7.0,0
251,-9.0,-274.0,-3.0,0
252,-9.0,-269.0,-9.0,0
253,-9.0,-271.0,-9.0,0
254,-8.0,-268.0,-8.0,0
255,-10.0,-266.0,-8.0,0
256,-10.0,-269.0,-8.0,0
257,-10.0,-271.0,-6.0,0
258,-9.0,-272.0,-1.0,0
259,-10.0,-270.0,-6.0,0
260,-11.0,-272.0,-2.0,0
261,-12.0,-271.0,-5.0,0
262,-11.0,-270.0,-1.0,0
263,-11.0,-270.0,-3.0,0
264,-12.0,-273.0,-4.0,0
265,-12.0,-271.0,-7.0,0
266,-12.0,-270.0,-4.0,0
267,-10.0,-272.0,-2.0,0
268,-10.0,-274.0,-1.0,0
269,-11.0,-272.0,-6.0,0
270,-11.0,-272.0,-4.0,0
271,-12.0,-270.0,-3.0,0
272,-10.0,-272.0,-4.0,0
273,-9.0,-272.0,-5.0,0
274,-11.0,-271.0,-4.0,0
275,-10.0,-270.0,-4.0,0
276,-10.0,-269.0,-7.0,0
277,-8.0,-269.0,-6.0,0
278,-10.0,-269.0,-6.0,0
279,-10.0,-265.0,-9.0,0
280,-10.0,-269.0,-6.0,0
281,-11.0,-268.0,-6.0,0
282,-12.0,-269.0,-5.0,0
283,-11.0,-270.0,-4.0,0
284,-12.0,-272.0,0.0,0
285,-12.0,-271.0,-2.0,0
286,-12.0,-274.0,-1.0,0
287,-13.0,-274.0,-1.0,0
288,-14.0,-276.0,-1.0,0
289,-12.0,-275.0,-4.0,0
290,-16.0,-274.0,0.0,0
291,-15.0,-275.0,2.0,0
292,-14.0,-276.0,-3.0,0
293,-12.0,-281.0,0.0,0
294,-12.0,-275.0,0.0,0
295,-12.0,-274.0,0.0,0
296,-13.0,-275.0,2.0,0
297,-13.0,-270.0,2.0,0
298,-12.0,-273.0,2.0,0
299,-14.0,-271.0,3.0,0
300,-12.0,-269.0,1.0,0
301,-12.0,-267.0,5.0,0
302,-12.0,-265.0,5.0,0
303,-12.0,-265.0,5.0,0
304,-10.0,-263.0,6.0,0
305,-9.0,-262.0,0.0,0
306,-8.0,-261.0,5.0,0
307,-8.0,-263.0,-1.0,0
308,-8.0,-262.0,1.0,0
309,-10.0,-262.0,2.0,0
310,-8.0,-262.0,1.0,0
311,-11.0,-264.0,0.0,0
312,-9.0,-264.0,2.0,0
313,-11.0,-262.0,2.0,0
314,-11.0,-264.0,-2.0,0
315,-12.0,-264.0,0.0,0
316,-11.0,-265.0,1.0,0
317,-11.0,-268.0,-2.0,0
318,-12.0,-267.0,-1.0,0
319,-11.0,-270.0,-1.0,0
320,-12.0,-270.0,0.0,0
321,-14.0,-270.0,-3.0,0
322,-12.0,-271.0,-2.0,0
323,-12.0,-272.0,-1.0,0
324,-12.0,-271.0,-5.0,0
325,-12.0,-269.0,-2.0,0
326,-14.0,-270.0,0.0,0
327,-14.0,-272.0,-5.0,0
328,-13.0,-273.0,-8.0,0
329,-12.0,-272.0,-6.0,0
330,-13.0,-275.0,-1.0,0
331,-12.0,-273.0,-4.0,0
332,-15.0,-272.0,-12.0,0
333,-12.0,-273.0,-7.0,0
334,-14.0,-270.0,-8.0,0
335,-12.0,-271.0,-9.0,0
336,-16.0,-270.0,-9.0,0
337,-14.0,-269.0,-7.0,0
338,-14.0,-273.0,-8.0,0
339,-12.0,-271.0,-7.0,0
340,-11.0,-274.0,-8.0,0
341,-11.0,-272.0,-6.0,0
342,-11.0,-272.0,-9.0,0
343,-12.0,-270.0,-9.0,0
344,-11.0,-271.0,-2.0,0
345,-12.0,-270.0,-5.0,0
346,-12.0,-268.0,-6.0,0
347,-10.0,-270.0,-4.0,0
348,-11.0,-268.0,-5.0,0
349,-10.0,-269.0,-7.0,0
350,-8.0,-272.0,-7.0,0
351,-9.0,-269.0,-7.0,0
352,-12.0,-271.0,0.0,0
353,-12.0,-273.0,-5.0,0
354,-11.0,-272.0,-7.0,0
355,-8.0,-270.0,-4.0,0
356,-11.0,-266.0,-7.0,0
357,-8.0,-270.0,-5.0,0
358,-8.0,-269.0,-4.0,0
359,-9.0,-268.0,-4.0,0
360,-11.0,-269.0,-8.0,0
361,-11.0,-269.0,1.0,0
362,-12.0,-268.0,-5.0,0
363,-11.0,-270.0,-3.0,0
364,-11.0,-269.0,-3.0,0
365,-11.0,-272.0,-8.0,0
366,-8.0,-270.0,-2.0,0
367,-11.0,-272.0,-7.0,0
368,-9.0,-271.0,-4.0,0
369,-10.0,-273.0,-7.0,0
370,-11.0,-271.0,-11.0,0
371,-9.0,-273.0,-4.0,0
372,-12.0,-273.0,-7.0,0
373,-11.0,-271.0,-8.0,0
374,-5.0,-255.0,1.0,0
375,-10.0,-273.0,-6.0,0
376,-12.0,-272.0,-10.0,0
377,-12.0,-272.0,-9.0,0
378,-12.0,-271.0,-9.0,0
379,-11.0,-272.0,-11.0,0
380,-12.0,-274.0,-11.0,0
381,-12.0,-273.0,-8.0,0
382,-12.0,-274.0,-8.0,0
383,-12.0,-273.0,-3.0,0
384,-10.0,-274.0,-15.0,0
385,-11.0,-274.0,-12.0,0
386,-10.0,-271.0,-12.0,0
387,-10.0,-272.0,-11.0,0
388,-10.0,-271.0,-11.0,0
389,-12.0,-273.0,-8.0,0
390,-10.0,-271.0,-8.0,0
391,-11.0,-272.0,-8.0,0
392,-9.0,-272.0,-12.0,0
393,-9.0,-271.0,-9.0,0
394,-11.0,-270.0,-8.0,0
395,-6.0,-274.0,-8.0,0
396,-9.0,-268.0,-10.0,0
397,-9.0,-268.0,-10.0,0
398,-6.0,-270.0,-11.0,0
399,-7.0,-270.0,-12.0,0
400,-9.0,-268.0,-9.0,0
401,-6.0,-270.0,-11.0,0
402,-9.0,-270.0,-5.0,0
403,-7.0,-272.0,-13.0,0
404,-9.0,-270.0,-9.0,0
405,-10.0,-268.0,-10.0,0
406,-7.0,-271.0,-7.0,0
407,-7.0,-270.0,-9.0,0
408,-10.0,-269.0,-8.0,0
409,-7.0,-268.0,-9.0,0
410,-7.0,-273.0,-7.0,0
411,-7.0,-272.0,-6.0,0
412,-11.0,-270.0,-11.0,0
413,-11.0,-269.0,-5.0,0
414,-9.0,-271.0,-6.0,0
415,-11.0,-270.0,-7.0,0
416,-6.0,-268.0,-3.0,0
417,-7.0,-266.0,-10.0,0
418,-7.0,-268.0,-7.0,0
419,-9.0,-268.0,-5.0,0
420,-10.0,-265.0,-8.0,0
421,-10.0,-269.0,-9.0,0
422,-8.0,-272.0,-8.0,0
423,-12.0,-270.0,-4.0,0
424,-12.0,-272.0,-3.0,0
425,-11.0,-275.0,-3.0,0
426,-10.0,-276.0,-5.0,0
427,-8.0,-277.0,-8.0,0
428,-11.0,-274.0,-3.0,0
429,-7.0,-274.0,-13.0,0
430,-8.0,-275.0,-12.0,0
431,-3.0,-276.0,-10.0,0
432,-5.0,-276.0,-4.0,0
433,-7.0,-275.0,2.0,0
434,-7.0,-272.0,1.0,0
435,-7.0,-273.0,-2.0,0
436,-7.0,-269.0,1.0,0
437,-2.0,-273.0,1.0,0
438,0.0,-271.0,3.0,0
439,-2.0,-270.0,2.0,0
440,0.0,-270.0,0.0,0
441,4.0,-270.0,2.0,0
442,2.0,-271.0,3.0,0
443,2.0,-275.0,5.0,0
444,3.0,-273.0,12.0,0
445,-1.0,-270.0,8.0,0
446,-2.0,-269.0,9.0,0
447,-3.0,-263.0,6.0,0
448,-1.0,-266.0,11.0,0
449,-3.0,-264.0,14.0,0
450,-4.0,-263.0,18.0,0
451,-4.0,-259.0,14.0,0
452,-2.0,-254.0,11.0,0
453,-1.0,-251.0,8.0,0
454,0.0,-250.0,4.0,0
455,-3.0,-251.0,7.0,0
456,-4.0,-245.0,9.0,0
457,-7.0,-245.0,12.0,0
458,-8.0,-246.0,14.0,0
459,-5.0,-246.0,10.0,0
460,-5.0,-247.0,6.0,0
461,-7.0,-249.0,3.0,0
462,-1.0,-252.0,3.0,0
463,-2.0,-251.0,1.0,0
464,-3.0,-257.0,1.0,0
465,2.0,-259.0,-1.0,0
466,5.0,-251.0,-4.0,0
467,3.0,-250.0,-3.0,0
468,8.0,-249.0,-3.0,0
469,5.0,-247.0,-3.0,0
470,3.0,-246.0,-4.0,0
471,-2.0,-241.0,-3.0,0
472,0.0,-237.0,-10.0,0
473,5.0,-232.0,-13.0,0
474,3.0,-226.0,-21.0,0
475,6.0,-224.0,-26.0,0
476,11.0,-222.0,-34.0,0
477,22.0,-225.0,-30.0,0
478,21.0,-227.0,-36.0,0
479,22.0,-231.0,-38.0,0
480,23.0,-237.0,-40.0,0
481,27.0,-241.0,-42.0,0
482,33.0,-248.0,-35.0,0
483,34.0,-253.0,-31.0,0
484,32.0,-253.0,-24.0,0
485,31.0,-258.0,-20.0,0
486,26.0,-259.0,-19.0,0
487,19.0,-256.0,-22.0,0
488,19.0,-257.0,-14.0,0
489,17.0,-256.0,-12.0,0
490,20.0,-253.0,-9.0,0
491,4.0,-256.0,-3.0,0
492,-8.0,-264.0,6.0,0
493,-18.0,-264.0,25.0,0
494,-40.0,-266.0,31.0,0
495,-54.0,-270.0,33.0,0
496,-54.0,-263.0,41.0,0
497,-47.0,-259.0,44.0,0
498,-47.0,-249.0,40.0,0
499,-32.0,-239.0,38.0,0
500,-25.0,-229.0,29.0,0
501,-27.0,-215.0,13.0,0
502,-36.0,-205.0,-7.0,0
503,-37.0,-196.0,-18.0,0
504,-22.0,-186.0,-18.0,0
505,-11.0,-179.0,-28.0,0
506,1.0,-175.0,-28.0,0
507,1.0,-169.0,-14.0,0
508,3.0,-176.0,-6.0,0
509,1.0,-176.0,10.0,0
510,7.0,-178.0,14.0,0
511,11.0,-179.0,7.0,0
512,20.0,-180.0,-2.0,0
513,26.0,-187.0,-2.0,0
514,25.0,-194.0,-9.0,0
515,23.0,-201.0,-2.0,0
516,22.0,-213.0,9.0,0
517,19.0,-230.0,12.0,0
518,17.0,-247.0,15.0,0
519,22.0,-264.0,12.0,0
520,20.0,-274.0,5.0,0
521,18.0,-288.0,-2.0,0
522,13.0,-307.0,-3.0,0
523,8.0,-325.0,1.0,0
524,5.0,-349.0,4.0,0
525,-6.0,-372.0,10.0,0
526,-14.0,-400.0,21.0,0
527,-18.0,-414.0,27.0,0
528,-24.0,-435.0,20.0,0
529,-25.0,-445.0,4.0,0
530,-29.0,-474.0,-16.0,0
531,-27.0,-487.0,-29.0,0
532,-26.0,-506.0,-42.0,0
533,-32.0,-516.0,-46.0,0
534,-50.0,-519.0,-52.0,0
535,-48.0,-530.0,-50.0,0
536,-60.0,-532.0,-44.0,0
537,-57.0,-536.0,-27.0,0
538,-42.0,-546.0,-20.0,0
539,-21.0,-560.0,-11.0,0
540,1.0,-563.0,0.0,0
541,27.0,-559.0,0.0,0
542,53.0,-553.0,2.0,0
543,67.0,-547.0,-9.0,0
544,78.0,-531.0,-28.0,0
545,90.0,-519.0,-36.0,0
546,99.0,-514.0,-45.0,0
547,102.0,-516.0,-36.0,0
548,99.0,-516.0,-27.0,0
549,99.0,-516.0,-15.0,0
550,98.0,-509.0,-16.0,0
551,103.0,-498.0,-13.0,0
552,105.0,-489.0,-16.0,0
553,101.0,-476.0,-4.0,0
554,86.0,-454.0,13.0,0
555,60.0,-423.0,21.0,0
556,34.0,-378.0,3.0,0
557,6.0,-319.0,-24.0,0
558,-9.0,-271.0,-36.0,0
559,-16.0,-210.0,-55.0,0
560,-27.0,-172.0,-87.0,0
561,6.0,-147.0,-124.0,0
562,50.0,-133.0,-156.0,0
563,75.0,-141.0,-179.0,0
564,79.0,-149.0,-156.0,0
565,76.0,-181.0,-89.0,0
566,70.0,-210.0,-51.0,0
567,56.0,-226.0,-11.0,0
568,47.0,-222.0,16.0,0
569,57.0,-199.0,4.0,0
570,95.0,-181.0,-49.0,0
571,138.0,-175.0,-119.0,0
572,161.0,-167.0,-186.0,0
573,172.0,-161.0,-231.0,0
574,171.0,-150.0,-264.0,0
575,152.0,-148.0,-245.0,0
576,111.0,-153.0,-188.0,0
577,77.0,-161.0,-105.0,0
578,67.0,-169.0,-12.0,0
579,72.0,-178.0,49.0,0
580,68.0,-179.0,78.0,0
581,53.0,-179.0,70.0,0
582,22.0,-174.0,23.0,0
583,-12.0,-168.0,-49.0,0
584,-50.0,-167.0,-118.0,0
585,-81.0,-176.0,-169.0,0
586,-114.0,-189.0,-188.0,0
587,-151.0,-212.0,-174.0,0
588,-189.0,-243.0,-144.0,0
589,-201.0,-268.0,-115.0,0
590,-186.0,-301.0,-70.0,0
591,-130.0,-332.0,-26.0,0
592,-83.0,-357.0,-10.0,0
593,-57.0,-378.0,-30.0,0
594,-39.0,-398.0,-54.0,0
595,-10.0,-420.0,-72.0,0
596,9.0,-443.0,-77.0,0
597,33.0,-479.0,-77.0,0
598,45.0,-517.0,-77.0,0
599,42.0,-556.0,-72.0,0
600,40.0,-594.0,-63.0,0
601,41.0,-621.0,-65.0,0
602,36.0,-631.0,-79.0,0
603,37.0,-624.0,-93.0,0
604,40.0,-611.0,-90.0,0
605,30.0,-587.0,-83.0,0
606,-3.0,-561.0,-63.0,0
607,-31.0,-538.0,-27.0,0
608,-81.0,-518.0,2.0,0
609,-121.0,-489.0,11.0,0
610,-139.0,-452.0,-7.0,0
611,-137.0,-400.0,-43.0,0
612,-131.0,-356.0,-56.0,0
613,-120.0,-309.0,-79.0,0
614,-108.0,-262.0,-127.0,0
615,-93.0,-208.0,-150.0,0
616,-80.0,-176.0,-158.0,0
617,-68.0,-165.0,-162.0,0
618,-65.0,-181.0,-147.0,0
619,-69.0,-202.0,-115.0,0
620,-73.0,-228.0,-63.0,0
621,-62.0,-240.0,-18.0,0
622,-35.0,-235.0,5.0,0
623,-1.0,-206.0,17.0,0
624,39.0,-161.0,10.0,0
625,55.0,-110.0,0.0,0
626,63.0,-55.0,6.0,0
627,53.0,-7.0,23.0,0
628,17.0,57.0,55.0,0
629,-19.0,111.0,106.0,0
630,-73.0,169.0,146.0,0
631,-124.0,181.0,116.0,0
632,-171.0,192.0,71.0,0
633,-183.0,178.0,-32.0,0
634,-170.0,146.0,-141.0,0
635,-163.0,108.0,-213.0,0
636,-145.0,56.0,-290.0,0
637,-117.0,3.0,-344.0,0
638,-79.0,-55.0,-384.0,0
639,-15.0,-124.0,-412.0,0
640,44.0,-194.0,-411.0,0
641,63.0,-282.0,-362.0,0
642,50.0,-364.0,-278.0,0
643,30.0,-489.0,-139.0,0
644,-41.0,-600.0,-3.0,0
645,-111.0,-701.0,54.0,0
646,-3.0,-728.0,64.0,0
647,109.0,-714.0,-45.0,0
648,164.0,-686.0,-157.0,0
649,191.0,-628.0,-212.0,0
650,156.0,-580.0,-226.0,0
651,76.0,-532.0,-209.0,0
652,33.0,-496.0,-179.0,0
653,5.0,-450.0,-135.0,0
654,-1.0,-404.0,-104.0,0
655,14.0,-364.0,-74.0,0
656,37.0,-336.0,-60.0,0
657,53.0,-319.0,-63.0,0
658,58.0,-303.0,-72.0,0
659,58.0,-295.0,-97.0,0
660,47.0,-302.0,-98.0,0
661,40.0,-335.0,-95.0,0
662,46.0,-369.0,-77.0,0
663,54.0,-388.0,-52.0,0
664,67.0,-364.0,-37.0,0
665,57.0,-341.0,-52.0,0
666,38.0,-294.0,-66.0,0
667,22.0,-238.0,-65.0,0
668,0.0,-172.0,-61.0,0
669,-12.0,-110.0,-49.0,0
670,-2.0,-61.0,-29.0,0
671,25.0,-19.0,-5.0,0
672,49.0,-27.0,-18.0,0
673,57.0,14.0,7.0,0
674,66.0,9.0,7.0,0
675,67.0,3.0,13.0,0
676,70.0,10.0,28.0,0
677,69.0,10.0,35.0,0
678,73.0,13.0,43.0,0
679,71.0,33.0,55.0,0
680,76.0,61.0,64.0,0
681,71.0,83.0,32.0,0
682,63.0,115.0,10.0,0
683,53.0,143.0,-13.0,0
684,38.0,166.0,-45.0,0
685,13.0,168.0,-73.0,0
686,-6.0,157.0,-97.0,0
687,-6.0,107.0,-130.0,0
688,-12.0,62.0,-159.0,0
689,-15.0,0.0,-201.0,0
690,-60.0,-54.0,-265.0,0
691,-112.0,-113.0,-359.0,0
692,-150.0,-179.0,-438.0,0
693,-191.0,-266.0,-424.0,0
694,-237.0,-377.0,-313.0,0
695,-254.0,-484.0,-133.0,0
696,-202.0,-599.0,17.0,0
697,21.0,-676.0,195.0,0
698,151.0,-692.0,201.0,0
699,118.0,-742.0,17.0,0
700,48.0,-715.0,-117.0,0
701,-10.0,-687.0,-239.0,0
702,-64.0,-660.0,-305.0,0
703,-82.0,-681.0,-290.0,0
704,-65.0,-692.0,-233.0,0
705,34.0,-672.0,-161.0,0
706,101.0,-647.0,-101.0,0
707,96.0,-614.0,-69.0,0
708,38.0,-560.0,-72.0,0
709,6.0,-512.0,-77.0,0
710,9.0,-476.0,-76.0,0
711,12.0,-462.0,-61.0,0
712,1.0,-450.0,-57.0,0
713,-29.0,-447.0,-61.0,0
714,-74.0,-433.0,-61.0,0
715,-109.0,-411.0,-61.0,0
716,-140.0,-392.0,-85.0,0
717,-152.0,-358.0,-119.0,0
718,-141.0,-321.0,-107.0,0
719,-119.0,-294.0,-83.0,0
720,-76.0,-255.0,-76.0,0
721,-43.0,-217.0,-72.0,0
722,-30.0,-185.0,-87.0,0
723,-42.0,-151.0,-79.0,0
724,-70.0,-119.0,-47.0,0
725,-84.0,-82.0,-7.0,0
726,-88.0,-64.0,3.0,0
727,-77.0,-23.0,30.0,0
728,-78.0,-9.0,11.0,0
729,-76.0,11.0,3.0,0
730,-89.0,34.0,4.0,0
731,-108.0,57.0,17.0,0
732,-130.0,78.0,26.0,0
733,-136.0,98.0,55.0,0
734,-123.0,114.0,61.0,0
735,-104.0,135.0,48.0,0
736,-69.0,173.0,15.0,0
737,-51.0,190.0,-41.0,0
738,-51.0,200.0,-102.0,0
739,-64.0,202.0,-153.0,0
740,-67.0,176.0,-206.0,0
741,-62.0,123.0,-236.0,0
742,-54.0,71.0,-241.0,0
743,-25.0,-23.0,-265.0,0
744,16.0,-122.0,-313.0,0
745,76.0,-215.0,-360.0,0
746,136.0,-312.0,-381.0,0
747,154.0,-400.0,-330.0,0
748,167.0,-517.0,-190.0,0
749,114.0,-584.0,-35.0,0
750,-79.0,-722.0,161.0,0
751,-149.0,-859.0,310.0,0
752,-107.0,-920.0,126.0,0
753,-65.0,-797.0,-75.0,0
754,-17.0,-691.0,-219.0,0
755,2.0,-617.0,-263.0,0
756,3.0,-591.0,-254.0,0
757,-8.0,-581.0,-217.0,0
758,-13.0,-577.0,-161.0,0
759,5.0,-567.0,-97.0,0
760,46.0,-535.0,-48.0,0
761,88.0,-490.0,-20.0,0
762,117.0,-442.0,0.0,0
763,142.0,-406.0,4.0,0
764,155.0,-376.0,-9.0,0
765,166.0,-364.0,-42.0,0
766,175.0,-368.0,-80.0,0
767,160.0,-394.0,-123.0,0
768,117.0,-437.0,-147.0,0
769,65.0,-466.0,-129.0,0
770,32.0,-468.0,-102.0,0
771,-10.0,-433.0,-100.0,0
772,-25.0,-392.0,-99.0,0
773,-33.0,-331.0,-88.0,0
774,-38.0,-254.0,-79.0,0
775,-43.0,-174.0,-58.0,0
776,-39.0,-94.0,-38.0,0
777,-20.0,-30.0,-19.0,0
778,10.0,17.0,-7.0,0
779,43.0,40.0,-17.0,0
780,52.0,46.0,-24.0,0
781,59.0,57.0,-26.0,0
782,64.0,43.0,-27.0,0
783,72.0,47.0,-12.0,0
784,96.0,33.0,-1.0,0
785,110.0,46.0,27.0,0
786,121.0,58.0,45.0,0
787,117.0,58.0,36.0,0
788,105.0,103.0,47.0,0
789,80.0,125.0,19.0,0
790,53.0,153.0,-29.0,0
791,22.0,178.0,-79.0,0
792,-12.0,190.0,-116.0,0
793,-28.0,180.0,-144.0,0
794,-39.0,128.0,-164.0,0
795,-54.0,91.0,-174.0,0
796,-79.0,16.0,-186.0,0
797,-112.0,-64.0,-209.0,0
798,-135.0,-150.0,-219.0,0
799,-148.0,-247.0,-221.0,0
800,-161.0,-350.0,-195.0,0
801,-163.0,-452.0,-140.0,0
802,-163.0,-566.0,-100.0,0
803,-132.0,-633.0,-34.0,0
804,6.0,-692.0,26.0,0
805,97.0,-737.0,80.0,0
806,46.0,-813.0,96.0,0
807,-27.0,-776.0,-2.0,0
808,-54.0,-709.0,-116.0,0
809,-73.0,-658.0,-212.0,0
810,-68.0,-639.0,-229.0,0
811,-14.0,-606.0,-169.0,0
812,55.0,-591.0,-122.0,0
813,79.0,-576.0,-100.0,0
814,77.0,-562.0,-100.0,0
815,57.0,-530.0,-97.0,0
816,51.0,-495.0,-76.0,0
817,45.0,-470.0,-64.0,0
818,38.0,-458.0,-62.0,0
819,16.0,-447.0,-72.0,0
820,-20.0,-426.0,-85.0,0
821,-49.0,-409.0,-95.0,0
822,-74.0,-389.0,-92.0,0
823,-93.0,-365.0,-101.0,0
824,-109.0,-339.0,-130.0,0
825,-109.0,-308.0,-108.0,0
826,-108.0,-279.0,-78.0,0
827,-95.0,-247.0,-58.0,0
828,-82.0,-214.0,-43.0,0
829,-72.0,-186.0,-52.0,0
830,-59.0,-155.0,-55.0,0
831,-52.0,-123.0,-58.0,0
832,-42.0,-84.0,-51.0,0
833,-35.0,-41.0,-34.0,0
834,-37.0,-20.0,-24.0,0
835,-51.0,6.0,-20.0,0
836,-69.0,28.0,-10.0,0
837,-85.0,41.0,-4.0,0
838,-98.0,51.0,5.0,0
839,-108.0,64.0,24.0,0
840,-108.0,76.0,54.0,0
841,-101.0,81.0,71.0,0
842,-75.0,90.0,89.0,0
843,-41.0,106.0,85.0,0
844,-12.0,119.0,47.0,0
845,-9.0,107.0,-20.0,0
846,-13.0,150.0,-54.0,0
847,-34.0,159.0,-96.0,0
848,-47.0,152.0,-156.0,0
849,-49.0,127.0,-198.0,0
850,-52.0,78.0,-227.0,0
851,-37.0,9.0,-229.0,0
852,-12.0,-81.0,-243.0,0
853,22.0,-176.0,-276.0,0
854,63.0,-278.0,-301.0,0
855,83.0,-372.0,-293.0,0
856,99.0,-467.0,-244.0,0
857,113.0,-547.0,-167.0,0
858,20.0,-628.0,-37.0,0
859,-120.0,-723.0,141.0,0
860,-99.0,-938.0,210.0,0
861,-63.0,-867.0,68.0,0
862,-23.0,-782.0,-106.0,0
863,15.0,-709.0,-224.0,0
864,27.0,-667.0,-259.0,0
865,45.0,-644.0,-254.0,0
866,38.0,-636.0,-208.0,0
867,26.0,-627.0,-143.0,0
868,18.0,-592.0,-88.0,0
869,21.0,-544.0,-58.0,0
870,49.0,-485.0,-46.0,0
871,73.0,-432.0,-47.0,0
872,87.0,-401.0,-43.0,0
873,83.0,-368.0,-49.0,0
874,84.0,-351.0,-65.0,0
875,102.0,-341.0,-103.0,0
876,118.0,-347.0,-127.0,0
877,114.0,-361.0,-137.0,0
878,88.0,-374.0,-144.0,0
879,45.0,-379.0,-150.0,0
880,6.0,-367.0,-133.0,0
881,-33.0,-339.0,-106.0,0
882,-69.0,-296.0,-82.0,0
883,-93.0,-243.0,-65.0,0
884,-114.0,-187.0,-52.0,0
885,-122.0,-113.0,-41.0,0
886,-103.0,-64.0,-26.0,0
887,-78.0,-21.0,-5.0,0
888,-42.0,8.0,-5.0,0
889,-3.0,46.0,19.0,0
890,36.0,37.0,7.0,0
891,76.0,54.0,33.0,0
892,114.0,38.0,43.0,0
893,143.0,17.0,47.0,0
894,155.0,0.0,59.0,0
895,151.0,-6.0,70.0,0
896,127.0,0.0,83.0,0
897,102.0,8.0,76.0,0
898,80.0,25.0,63.0,0
899,79.0,56.0,47.0,0
900,75.0,70.0,5.0,0
901,62.0,92.0,-35.0,0
902,36.0,106.0,-69.0,0
903,15.0,108.0,-101.0,0
904,-10.0,96.0,-150.0,0
905,-38.0,70.0,-198.0,0
906,-75.0,30.0,-251.0,0
907,-119.0,-31.0,-300.0,0
908,-159.0,-101.0,-321.0,0
909,-190.0,-189.0,-299.0,0
910,-211.0,-261.0,-247.0,0
911,-221.0,-369.0,-147.0,0
912,-207.0,-474.0,-25.0,0
913,-141.0,-610.0,74.0,0
914,33.0,-767.0,203.0,0
915,128.0,-787.0,87.0,0
916,65.0,-746.0,7.0,0
917,-10.0,-684.0,-90.0,0
918,-51.0,-643.0,-172.0,0
919,-75.0,-616.0,-259.0,0
920,-89.0,-609.0,-307.0,0
921,-75.0,-605.0,-264.0,0
922,6.0,-622.0,-189.0,0
923,63.0,-633.0,-142.0,0
924,98.0,-629.0,-123.0,0
925,93.0,-602.0,-101.0,0
926,80.0,-581.0,-89.0,0
927,62.0,-546.0,-74.0,0
928,51.0,-509.0,-79.0,0
929,38.0,-472.0,-85.0,0
930,18.0,-444.0,-99.0,0
931,-20.0,-413.0,-109.0,0
932,-50.0,-400.0,-95.0,0
933,-68.0,-383.0,-89.0,0
934,-92.0,-354.0,-82.0,0
935,-117.0,-331.0,-90.0,0
936,-130.0,-297.0,-95.0,0
937,-123.0,-259.0,-76.0,0
938,-103.0,-215.0,-56.0,0
939,-64.0,-181.0,-37.0,0
940,-27.0,-141.0,-28.0,0
941,-8.0,-116.0,-26.0,0
942,13.0,-90.0,-29.0,0
943,10.0,-66.0,-25.0,0
944,7.0,-40.0,-11.0,0
945,0.0,-15.0,3.0,0
946,-5.0,0.0,12.0,0
947,-10.0,13.0,22.0,0
948,-18.0,20.0,32.0,0
949,-25.0,21.0,43.0,0
950,-46.0,24.0,53.0,0
951,-75.0,16.0,61.0,0
952,-96.0,13.0,75.0,0
953,-99.0,16.0,86.0,0
954,-78.0,29.0,91.0,0
955,-41.0,44.0,72.0,0
956,-15.0,51.0,51.0,0
957,-3.0,97.0,29.0,0
958,-6.0,122.0,-10.0,0
959,-24.0,137.0,-59.0,0
960,-44.0,137.0,-101.0,0
961,-57.0,132.0,-143.0,0
962,-61.0,108.0,-179.0,0
963,-59.0,47.0,-205.0,0
964,-50.0,-3.0,-212.0,0
965,-27.0,-81.0,-221.0,0
966,14.0,-162.0,-217.0,0
967,51.0,-246.0,-219.0,0
968,68.0,-322.0,-210.0,0
969,75.0,-398.0,-206.0,0
970,87.0,-480.0,-185.0,0
971,57.0,-554.0,-131.0,0
972,-69.0,-626.0,-19.0,0
973,-97.0,-801.0,165.0,0
974,-73.0,-811.0,69.0,0
975,-11.0,-759.0,-45.0,0
976,-1.0,-700.0,-164.0,0
977,-11.0,-636.0,-222.0,0
978,-21.0,-605.0,-254.0,0
979,-26.0,-598.0,-244.0,0
980,-23.0,-591.0,-191.0,0
981,-9.0,-585.0,-132.0,0
982,1.0,-566.0,-84.0,0
983,22.0,-541.0,-50.0,0
984,39.0,-526.0,-30.0,0
985,34.0,-506.0,-32.0,0
986,10.0,-488.0,-24.0,0
987,-7.0,-482.0,-30.0,0
988,-9.0,-473.0,-50.0,0
989,20.0,-469.0,-66.0,0
990,52.0,-457.0,-57.0,0
991,76.0,-442.0,-55.0,0
992,67.0,-406.0,-71.0,0
993,40.0,-371.0,-91.0,0
994,15.0,-343.0,-111.0,0
995,-23.0,-307.0,-132.0,0
996,-46.0,-272.0,-128.0,0
997,-35.0,-220.0,-105.0,0
998,-7.0,-172.0,-86.0,0
999,15.0,-133.0,-76.0,0
1000,40.0,-90.0,-68.0,0
1001,54.0,-52.0,-49.0,0
1002,69.0,-31.0,-18.0,0
1003,80.0,-20.0,27.0,0
1004,85.0,-22.0,70.0,0
1005,96.0,-38.0,106.0,0
1006,101.0,-49.0,121.0,0
1007,108.0,-46.0,117.0,0
1008,115.0,-55.0,82.0,0
1009,127.0,-18.0,84.0,0
1010,123.0,4.0,76.0,0
1011,105.0,32.0,57.0,0
1012,67.0,63.0,42.0,0
1013,28.0,113.0,28.0,0
1014,-4.0,141.0,-1.0,0
1015,-11.0,157.0,-46.0,0
1016,-11.0,177.0,-80.0,0
1017,-16.0,173.0,-121.0,0
1018,-14.0,142.0,-187.0,0
1019,-3.0,77.0,-243.0,0
1020,-14.0,6.0,-276.0,0
1021,-56.0,-73.0,-313.0,0
1022,-105.0,-155.0,-334.0,0
1023,-148.0,-255.0,-313.0,0
1024,-188.0,-371.0,-228.0,0
1025,-203.0,-469.0,-129.0,0
1026,-199.0,-602.0,3.0,0
1027,-131.0,-726.0,121.0,0
1028,24.0,-843.0,244.0,0
1029,127.0,-796.0,61.0,0
1030,61.0,-684.0,-82.0,0
1031,-46.0,-607.0,-149.0,0
1032,-120.0,-541.0,-188.0,0
1033,-147.0,-497.0,-193.0,0
1034,-136.0,-446.0,-168.0,0
1035,-57.0,-415.0,-155.0,0
1036,18.0,-404.0,-135.0,0
1037,65.0,-405.0,-131.0,0
1038,95.0,-415.0,-116.0,0
1039,115.0,-443.0,-108.0,0
1040,122.0,-462.0,-90.0,0
1041,127.0,-499.0,-59.0,0
1042,135.0,-539.0,-42.0,0
1043,139.0,-563.0,-24.0,0
1044,144.0,-589.0,-34.0,0
1045,134.0,-603.0,-48.0,0
1046,100.0,-607.0,-63.0,0
1047,65.0,-603.0,-67.0,0
1048,39.0,-590.0,-76.0,0
1049,14.0,-551.0,-104.0,0
1050,-6.0,-498.0,-126.0,0
1051,-12.0,-432.0,-132.0,0
1052,-12.0,-358.0,-115.0,0
1053,1.0,-289.0,-101.0,0
1054,18.0,-219.0,-98.0,0
1055,47.0,-160.0,-112.0,0
1056,65.0,-108.0,-132.0,0
1057,83.0,-61.0,-151.0,0
1058,104.0,-9.0,-157.0,0
1059,116.0,20.0,-150.0,0
1060,121.0,18.0,-169.0,0
1061,130.0,30.0,-131.0,0
1062,126.0,-8.0,-113.0,0
1063,107.0,-37.0,-95.0,0
1064,75.0,-72.0,-52.0,0
1065,34.0,-96.0,-6.0,0
1066,4.0,-115.0,35.0,0
1067,-25.0,-121.0,76.0,0
1068,-50.0,-126.0,98.0,0
1069,-66.0,-118.0,121.0,0
1070,-74.0,-96.0,125.0,0
1071,-76.0,-77.0,130.0,0
1072,-85.0,-41.0,128.0,0
1073,-84.0,-6.0,114.0,0
1074,-73.0,26.0,88.0,0
1075,-57.0,44.0,51.0,0
1076,-44.0,59.0,7.0,0
1077,-39.0,67.0,-34.0,0
1078,-33.0,77.0,-66.0,0
1079,-20.0,73.0,-104.0,0
1080,7.0,77.0,-128.0,0
1081,22.0,78.0,-178.0,0
1082,37.0,75.0,-223.0,0
1083,48.0,66.0,-272.0,0
1084,43.0,45.0,-312.0,0
1085,22.0,-2.0,-333.0,0
1086,0.0,-50.0,-331.0,0
1087,-12.0,-121.0,-330.0,0
1088,13.0,-197.0,-328.0,0
1089,69.0,-279.0,-284.0,0
1090,115.0,-368.0,-184.0,0
1091,111.0,-468.0,-30.0,0
1092,49.0,-557.0,122.0,0
1093,-36.0,-607.0,217.0,0
1094,-102.0,-653.0,198.0,0
1095,-162.0,-628.0,69.0,0
1096,-179.0,-541.0,-67.0,0
1097,-105.0,-440.0,-158.0,0
1098,61.0,-378.0,-209.0,0
1099,204.0,-338.0,-258.0,0
1100,291.0,-300.0,-290.0,0
1101,287.0,-278.0,-291.0,0
1102,188.0,-276.0,-264.0,0
1103,101.0,-302.0,-201.0,0
1104,30.0,-315.0,-153.0,0
1105,-25.0,-317.0,-141.0,0
1106,-55.0,-312.0,-157.0,0
1107,-72.0,-306.0,-164.0,0
1108,-68.0,-325.0,-163.0,0
1109,-45.0,-342.0,-148.0,0
1110,-30.0,-374.0,-124.0,0
1111,-35.0,-406.0,-92.0,0
1112,-48.0,-437.0,-61.0,0
1113,-63.0,-460.0,-33.0,0
1114,-65.0,-462.0,-14.0,0
1115,-59.0,-451.0,-9.0,0
1116,-40.0,-420.0,-15.0,0
1117,-13.0,-402.0,-15.0,0
1118,20.0,-373.0,-19.0,0
1119,58.0,-348.0,-14.0,0
1120,91.0,-324.0,-8.0,0
1121,116.0,-302.0,-16.0,0
1122,138.0,-287.0,-33.0,0
1123,157.0,-273.0,-56.0,0
1124,168.0,-258.0,-76.0,0
1125,180.0,-249.0,-96.0,0
1126,176.0,-236.0,-110.0,0
1127,158.0,-233.0,-124.0,0
1128,126.0,-231.0,-119.0,0
1129,104.0,-237.0,-107.0,0
1130,78.0,-241.0,-88.0,0
1131,57.0,-238.0,-81.0,0
1132,50.0,-236.0,-87.0,0
1133,44.0,-227.0,-90.0,0
1134,39.0,-219.0,-98.0,0
1135,35.0,-208.0,-105.0,0
1136,33.0,-203.0,-115.0,0
1137,21.0,-195.0,-110.0,0
1138,21.0,-196.0,-101.0,0
1139,19.0,-188.0,-82.0,0
1140,18.0,-184.0,-72.0,0
1141,30.0,-179.0,-60.0,0
1142,35.0,-172.0,-55.0,0
1143,46.0,-165.0,-58.0,0
1144,51.0,-156.0,-63.0,0
1145,52.0,-155.0,-77.0,0
1146,51.0,-151.0,-100.0,0
1147,48.0,-153.0,-119.0,0
1148,44.0,-163.0,-141.0,0
1149,31.0,-174.0,-148.0,0
1150,23.0,-184.0,-149.0,0
1151,15.0,-184.0,-142.0,0
1152,8.0,-186.0,-136.0,0
1153,0.0,-187.0,-130.0,0
1154,-4.0,-203.0,-123.0,0
1155,-2.0,-212.0,-113.0,0
1156,-5.0,-232.0,-94.0,0
1157,-12.0,-241.0,-74.0,0
1158,-12.0,-252.0,-63.0,0
1159,-12.0,-255.0,-65.0,0
1160,-13.0,-253.0,-74.0,0
1161,-17.0,-245.0,-89.0,0
1162,-25.0,-237.0,-111.0,0
1163,-31.0,-235.0,-119.0,0
1164,-33.0,-231.0,-136.0,0
1165,-36.0,-236.0,-149.0,0
1166,-42.0,-245.0,-150.0,0
1167,-46.0,-260.0,-150.0,0
1168,-51.0,-273.0,-137.0,0
1169,-52.0,-285.0,-130.0,0
1170,-52.0,-293.0,-121.0,0
1171,-51.0,-297.0,-110.0,0
1172,-59.0,-292.0,-99.0,0
1173,-73.0,-284.0,-94.0,0
1174,-82.0,-281.0,-91.0,0
1175,-95.0,-275.0,-84.0,0
1176,-106.0,-270.0,-84.0,0
1177,-115.0,-264.0,-85.0,0
1178,-112.0,-265.0,-81.0,0
1179,-115.0,-272.0,-79.0,0
1180,-122.0,-284.0,-77.0,0
1181,-129.0,-299.0,-64.0,0
1182,-134.0,-316.0,-58.0,0
1183,-142.0,-329.0,-43.0,0
1184,-140.0,-339.0,-44.0,0
1185,-144.0,-340.0,-33.0,0
1186,-144.0,-341.0,-40.0,0
1187,-144.0,-331.0,-43.0,0
1188,-146.0,-319.0,-37.0,0
1189,-147.0,-307.0,-34.0,0
1190,-147.0,-290.0,-33.0,0
1191,-137.0,-276.0,-28.0,0
1192,-121.0,-269.0,-25.0,0
1193,-110.0,-268.0,-25.0,0
1194,-95.0,-269.0,-22.0,0
1195,-81.0,-268.0,-17.0,0
1196,-74.0,-274.0,-10.0,0
1197,-62.0,-276.0,-1.0,0
1198,-56.0,-285.0,1.0,0
1199,-51.0,-290.0,1.0,0
1200,-47.0,-296.0,5.0,0
1201,-47.0,-290.0,2.0,0
1202,-43.0,-289.0,0.0,0
1203,-40.0,-292.0,1.0,0
1204,-41.0,-283.0,1.0,0
1205,-45.0,-280.0,2.0,0
1206,-50.0,-275.0,4.0,0
1207,-52.0,-268.0,4.0,0
1208,-55.0,-265.0,11.0,0
1209,-55.0,-264.0,9.0,0
1210,-54.0,-266.0,11.0,0
1211,-55.0,-265.0,12.0,0
1212,-48.0,-264.0,9.0,0
1213,-49.0,-261.0,13.0,0
1214,-48.0,-257.0,13.0,0
1215,-40.0,-254.0,16.0,0
1216,-43.0,-246.0,14.0,0
1217,-40.0,-245.0,15.0,0
1218,-40.0,-236.0,13.0,0
1219,-40.0,-235.0,15.0,0
1220,-45.0,-231.0,17.0,0
1221,-51.0,-231.0,14.0,0
1222,-53.0,-227.0,17.0,0
1223,-64.0,-228.0,14.0,0
1224,-64.0,-228.0,18.0,0
1225,-67.0,-230.0,21.0,0
1226,-72.0,-236.0,29.0,0
1227,-72.0,-241.0,27.0,0
1228,-75.0,-243.0,27.0,0
1229,-75.0,-246.0,24.0,0
1230,-68.0,-252.0,22.0,0
1231,-71.0,-254.0,22.0,0
1232,-65.0,-260.0,23.0,0
1233,-63.0,-261.0,20.0,0
1234,-56.0,-264.0,26.0,0
1235,-48.0,-271.0,38.0,0
1236,-44.0,-269.0,40.0,0
1237,-43.0,-268.0,35.0,0
1238,-44.0,-260.0,36.0,0
1239,-44.0,-258.0,34.0,0
1240,-44.0,-258.0,33.0,0
1241,-48.0,-257.0,35.0,0
1242,-52.0,-255.0,32.0,0
1243,-51.0,-260.0,29.0,0
1244,-52.0,-264.0,34.0,0
1245,-52.0,-268.0,27.0,0
1246,-51.0,-273.0,26.0,0
1247,-53.0,-274.0,27.0,0
1248,-54.0,-273.0,24.0,0
1249,-55.0,-270.0,17.0,0
1250,-48.0,-271.0,15.0,0
1251,-40.0,-269.0,12.0,0
1252,-36.0,-269.0,11.0,0
1253,-26.0,-268.0,8.0,0
1254,-22.0,-270.0,7.0,0
1255,-13.0,-271.0,12.0,0
1256,-9.0,-276.0,11.0,0
1257,-1.0,-274.0,15.0,0
1258,-1.0,-275.0,17.0,0
1259,2.0,-272.0,19.0,0
1260,2.0,-269.0,16.0,0
1261,-2.0,-266.0,20.0,0
1262,-5.0,-266.0,22.0,0
1263,-3.0,-264.0,24.0,0
1264,-7.0,-261.0,31.0,0
1265,-14.0,-264.0,39.0,0
1266,-17.0,-264.0,45.0,0
1267,-22.0,-263.0,41.0,0
1268,-27.0,-260.0,40.0,0
1269,-32.0,-256.0,42.0,0
1270,-40.0,-254.0,38.0,0
1271,-41.0,-256.0,42.0,0
1272,-47.0,-255.0,44.0,0
1273,-44.0,-259.0,48.0,0
1274,-51.0,-257.0,45.0,0
1275,-50.0,-264.0,43.0,0
1276,-48.0,-264.0,47.0,0
1277,-47.0,-267.0,48.0,0
1278,-47.0,-270.0,49.0,0
1279,-47.0,-274.0,44.0,0
1280,-49.0,-272.0,47.0,0
1281,-55.0,-271.0,44.0,0
1282,-58.0,-264.0,33.0,0
1283,-62.0,-261.0,37.0,0
1284,-71.0,-253.0,31.0,0
1285,-72.0,-250.0,33.0,0
1286,-76.0,-244.0,32.0,0
1287,-77.0,-241.0,32.0,0
1288,-81.0,-237.0,34.0,0
1289,-81.0,-238.0,33.0,0
1290,-86.0,-237.0,27.0,0
1291,-87.0,-241.0,29.0,0
1292,-90.0,-240.0,24.0,0
1293,-90.0,-243.0,23.0,0
1294,-89.0,-246.0,25.0,0
1295,-86.0,-248.0,24.0,0
1296,-83.0,-250.0,23.0,0
1297,-78.0,-261.0,16.0,0
1298,-65.0,-266.0,15.0,0
1299,-53.0,-278.0,12.0,0
1300,-46.0,-288.0,3.0,0
1301,-41.0,-296.0,0.0,0
1302,-38.0,-301.0,-21.0,0
1303,-31.0,-311.0,-39.0,0
1304,-19.0,-327.0,-50.0,0
1305,-12.0,-342.0,-56.0,0
1306,-10.0,-348.0,-53.0,0
1307,-11.0,-349.0,-49.0,0
1308,-12.0,-346.0,-40.0,0
1309,-16.0,-335.0,-40.0,0
1310,-16.0,-320.0,-39.0,0
1311,-6.0,-307.0,-43.0,0
1312,4.0,-304.0,-44.0,0
1313,13.0,-306.0,-39.0,0
1314,21.0,-307.0,-41.0,0
1315,28.0,-311.0,-40.0,0
1316,32.0,-315.0,-46.0,0
1317,31.0,-316.0,-43.0,0
1318,25.0,-315.0,-38.0,0
1319,20.0,-311.0,-38.0,0
1320,14.0,-307.0,-36.0,0
1321,12.0,-306.0,-33.0,0
1322,7.0,-300.0,-32.0,0
1323,5.0,-298.0,-29.0,0
1324,5.0,-292.0,-24.0,0
1325,2.0,-287.0,-29.0,0
1326,-4.0,-278.0,-33.0,0
1327,-13.0,-273.0,-29.0,0
1328,-18.0,-268.0,-28.0,0
1329,-20.0,-263.0,-19.0,0
1330,-19.0,-263.0,-22.0,0
1331,-17.0,-261.0,-21.0,0
1332,-11.0,-256.0,-22.0,0
1333,-11.0,-252.0,-26.0,0
1334,-2.0,-250.0,-22.0,0
1335,4.0,-247.0,-28.0,0
1336,13.0,-243.0,-31.0,0
1337,17.0,-244.0,-33.0,0
1338,19.0,-238.0,-40.0,0
1339,18.0,-236.0,-43.0,0
1340,17.0,-234.0,-46.0,0
1341,16.0,-234.0,-45.0,0
1342,13.0,-233.0,-51.0,0
1343,5.0,-235.0,-52.0,0
1344,8.0,-236.0,-50.0,0
1345,3.0,-240.0,-48.0,0
1346,0.0,-239.0,-48.0,0
1347,-7.0,-242.0,-45.0,0
1348,-12.0,-239.0,-46.0,0
1349,-13.0,-240.0,-40.0,0
1350,-14.0,-244.0,-41.0,0
1351,-20.0,-247.0,-35.0,0
1352,-23.0,-255.0,-31.0,0
1353,-26.0,-256.0,-27.0,0
1354,-29.0,-259.0,-24.0,0
1355,-32.0,-265.0,-24.0,0
1356,-32.0,-272.0,-26.0,0
1357,-29.0,-277.0,-19.0,0
1358,-28.0,-286.0,-22.0,0
1359,-30.0,-292.0,-19.0,0
1360,-30.0,-302.0,-17.0,0
1361,-32.0,-311.0,-9.0,0
1362,-33.0,-316.0,-8.0,0
1363,-35.0,-318.0,-9.0,0
1364,-34.0,-319.0,-14.0,0
1365,-30.0,-314.0,-10.0,0
1366,-27.0,-307.0,-8.0,0
1367,-25.0,-300.0,-5.0,0
1368,-22.0,-294.0,0.0,0
1369,-18.0,-291.0,2.0,0
1370,-14.0,-283.0,6.0,0
1371,-12.0,-277.0,6.0,0
1372,-11.0,-276.0,3.0,0
1373,-11.0,-276.0,1.0,0
1374,-10.0,-279.0,0.0,0
1375,-13.0,-276.0,-2.0,0
1376,-9.0,-277.0,-7.0,0
1377,-10.0,-277.0,-8.0,0
1378,-9.0,-276.0,-14.0,0
1379,-5.0,-274.0,-16.0,0
1380,-1.0,-271.0,-12.0,0
1381,0.0,-264.0,-13.0,0
1382,3.0,-264.0,-15.0,0
1383,1.0,-257.0,-10.0,0
1384,6.0,-253.0,-7.0,0
1385,0.0,-251.0,-9.0,0
1386,-1.0,-249.0,0.0,0
1387,-1.0,-245.0,0.0,0
1388,-2.0,-246.0,-1.0,0
1389,-2.0,-249.0,1.0,0
1390,0.0,-250.0,2.0,0
1391,-2.0,-250.0,1.0,0
1392,-3.0,-251.0,1.0,0
1393,-4.0,-254.0,2.0,0
1394,-3.0,-254.0,2.0,0
1395,-3.0,-258.0,3.0,0
1396,-5.0,-259.0,3.0,0
1397,-6.0,-262.0,2.0,0
1398,-6.0,-258.0,0.0,0
1399,-7.0,-259.0,0.0,0
1400,-11.0,-262.0,0.0,0
1401,-13.0,-263.0,1.0,0
1402,-18.0,-262.0,-2.0,0
1403,-21.0,-260.0,-3.0,0
1404,-24.0,-261.0,-4.0,0
1405,-26.0,-264.0,-3.0,0
1406,-25.0,-260.0,-4.0,0
1407,-26.0,-263.0,2.0,0
1408,-23.0,-262.0,-5.0,0
1409,-21.0,-258.0,-6.0,0
1410,-18.0,-261.0,-5.0,0
1411,-13.0,-264.0,-5.0,0
1412,-10.0,-265.0,-7.0,0
1413,-11.0,-273.0,-6.0,0
1414,-5.0,-275.0,-6.0,0
1415,1.0,-279.0,-13.0,0
1416,3.0,-275.0,-8.0,0
1417,3.0,-278.0,-13.0,0
1418,6.0,-280.0,-14.0,0
1419,7.0,-281.0,-11.0,0
1420,8.0,-284.0,-14.0,0
1421,4.0,-285.0,-19.0,0
1422,-1.0,-280.0,-19.0,0
1423,0.0,-282.0,-15.0,0
1424,-11.0,-287.0,-7.0,0
1425,-14.0,-288.0,2.0,0
1426,-25.0,-289.0,16.0,0
1427,-26.0,-294.0,20.0,0
1428,-32.0,-293.0,16.0,0
1429,-31.0,-294.0,10.0,0
1430,-30.0,-288.0,0.0,0
1431,-27.0,-288.0,-8.0,0
1432,-25.0,-286.0,-12.0,0
1433,-19.0,-284.0,-16.0,0
1434,-11.0,-284.0,-18.0,0
1435,-8.0,-283.0,-37.0,0
1436,-2.0,-284.0,-14.0,0
1437,1.0,-283.0,-15.0,0
1438,5.0,-285.0,-13.0,0
1439,9.0,-283.0,-18.0,0
1440,14.0,-285.0,-21.0,0
1441,20.0,-284.0,-22.0,0
1442,20.0,-284.0,-19.0,0
1443,19.0,-284.0,-16.0,0
1444,16.0,-278.0,-17.0,0
1445,10.0,-278.0,-18.0,0
1446,11.0,-277.0,-14.0,0
1447,2.0,-271.0,-13.0,0
1448,2.0,-268.0,-11.0,0
1449,0.0,-263.0,-16.0,0
1450,-3.0,-260.0,-14.0,0
1451,-7.0,-256.0,-9.0,0
1452,-10.0,-256.0,-13.0,0
1453,-10.0,-257.0,-12.0,0
1454,-12.0,-259.0,-10.0,0
1455,-9.0,-264.0,-10.0,0
1456,-10.0,-261.0,-12.0,0
1457,-12.0,-262.0,-14.0,0
1458,-14.0,-263.0,-15.0,0
1459,-12.0,-267.0,-16.0,0
1460,-12.0,-263.0,-15.0,0
1461,-12.0,-264.0,-19.0,0
1462,-12.0,-265.0,-17.0,0
1463,-10.0,-268.0,-22.0,0
1464,-10.0,-267.0,-19.0,0
1465,-8.0,-270.0,-15.0,0
1466,-5.0,-269.0,-15.0,0
1467,-3.0,-268.0,-17.0,0
1468,1.0,-263.0,-17.0,0
1469,1.0,-263.0,-17.0,0
1470,3.0,-257.0,-15.0,0
1471,3.0,-254.0,-16.0,0
1472,8.0,-255.0,-16.0,0
1473,7.0,-258.0,-18.0,0
1474,10.0,-260.0,-22.0,0
1475,11.0,-259.0,-19.0,0
1476,9.0,-263.0,-16.0,0
1477,7.0,-264.0,-14.0,0
1478,2.0,-265.0,-13.0,0
1479,1.0,-263.0,-12.0,0
1480,-4.0,-265.0,-11.0,0
1481,-7.0,-261.0,-12.0,0
1482,-9.0,-261.0,-7.0,0
1483,-8.0,-258.0,-6.0,0
1484,-11.0,-257.0,-6.0,0
1485,-19.0,-250.0,-3.0,0
1486,-14.0,-255.0,-1.0,0
1487,-21.0,-254.0,1.0,0
1488,-18.0,-255.0,-2.0,0
1489,-21.0,-257.0,2.0,0
1490,-22.0,-253.0,0.0,0
1491,-20.0,-256.0,2.0,0
1492,-19.0,-257.0,3.0,0
1493,-14.0,-260.0,3.0,0
1494,-14.0,-262.0,2.0,0
1495,-10.0,-264.0,2.0,0
1496,-11.0,-265.0,3.0,0
1497,-12.0,-268.0,5.0,0
1498,-11.0,-270.0,3.0,0
1499,-9.0,-269.0,2.0,0
1500,-8.0,-271.0,-1.0,0
1501,-9.0,-271.0,2.0,0
1502,-10.0,-268.0,0.0,0
1503,-12.0,-263.0,-2.0,0
1504,-12.0,-259.0,-7.0,0
1505,-12.0,-257.0,-7.0,0
1506,-14.0,-251.0,-9.0,0
1507,-14.0,-249.0,-8.0,0
1508,-12.0,-250.0,-13.0,0
1509,-13.0,-249.0,-14.0,0
1510,-12.0,-251.0,-16.0,0
1511,-13.0,-251.0,-18.0,0
1512,-10.0,-258.0,-20.0,0
1513,-9.0,-267.0,-18.0,0
1514,-8.0,-273.0,-21.0,0
1515,-3.0,-274.0,-24.0,0
1516,2.0,-281.0,-24.0,0
1517,1.0,-281.0,-27.0,0
1518,6.0,-288.0,-33.0,0
1519,5.0,-290.0,-32.0,0
1520,5.0,-296.0,-23.0,0
1521,3.0,-298.0,-19.0,0
1522,0.0,-297.0,-9.0,0
1523,1.0,-298.0,-8.0,0
1524,-4.0,-293.0,-9.0,0
1525,-7.0,-292.0,-8.0,0
1526,-7.0,-287.0,-9.0,0
1527,-11.0,-284.0,-9.0,0
1528,-14.0,-281.0,-4.0,0
1529,-19.0,-276.0,-4.0,0
1530,-22.0,-273.0,-10.0,0
1531,-23.0,-272.0,-7.0,0
1532,-20.0,-270.0,-8.0,0
1533,-17.0,-268.0,-8.0,0
1534,-14.0,-268.0,-13.0,0
1535,-11.0,-267.0,-11.0,0
1536,-9.0,-267.0,-15.0,0
1537,-9.0,-262.0,-15.0,0
1538,-4.0,-263.0,-15.0,0
1539,-3.0,-262.0,-16.0,0
1540,3.0,-262.0,-17.0,0
1541,2.0,-261.0,-16.0,0
1542,2.0,-259.0,-15.0,0
1543,2.0,-257.0,-13.0,0
1544,2.0,-252.0,-9.0,0
1545,3.0,-252.0,-11.0,0
1546,2.0,-252.0,-9.0,0
1547,1.0,-257.0,-10.0,0
1548,-4.0,-256.0,-5.0,0
1549,-9.0,-258.0,-4.0,0
1550,-8.0,-263.0,0.0,0
1551,-12.0,-264.0,-4.0,0
1552,-12.0,-268.0,-5.0,0
1553,-12.0,-271.0,-5.0,0
1554,-12.0,-271.0,-5.0,0
1555,-15.0,-274.0,-6.0,0
1556,-13.0,-276.0,-7.0,0
1557,-12.0,-278.0,-10.0,0
1558,-15.0,-278.0,-8.0,0
1559,-12.0,-279.0,-6.0,0
1560,-12.0,-281.0,-9.0,0
1561,-11.0,-280.0,-5.0,0
1562,-4.0,-285.0,-4.0,0
1563,-7.0,-283.0,-2.0,0
1564,-6.0,-283.0,-8.0,0
1565,-1.0,-283.0,-11.0,0
1566,-4.0,-282.0,-8.0,0
1567,-1.0,-281.0,-14.0,0
1568,3.0,-280.0,-13.0,0
1569,6.0,-279.0,-19.0,0
1570,5.0,-276.0,-17.0,0
1571,4.0,-275.0,-18.0,0
1572,0.0,-273.0,-18.0,0
1573,-2.0,-271.0,-18.0,0
1574,-1.0,-272.0,-14.0,0
1575,-3.0,-269.0,-19.0,0
1576,-5.0,-271.0,-19.0,0
1577,-4.0,-269.0,-14.0,0
1578,-7.0,-268.0,-14.0,0
1579,-9.0,-271.0,-18.0,0
1580,-8.0,-268.0,-20.0,0
1581,-7.0,-269.0,-24.0,0
1582,-10.0,-268.0,-19.0,0
1583,-9.0,-268.0,-24.0,0
1584,-10.0,-268.0,-26.0,0
1585,-9.0,-268.0,-26.0,0
1586,-9.0,-272.0,-25.0,0
1587,-8.0,-269.0,-30.0,0
1588,-6.0,-268.0,-27.0,0
1589,-3.0,-268.0,-29.0,0
1590,-2.0,-267.0,-29.0,0
1591,0.0,-268.0,-28.0,0
1592,3.0,-268.0,-29.0,0
1593,2.0,-269.0,-29.0,0
1594,3.0,-269.0,-27.0,0
1595,3.0,-271.0,-27.0,0
1596,1.0,-268.0,-34.0,0
1597,3.0,-267.0,-29.0,0
1598,4.0,-264.0,-31.0,0
1599,2.0,-262.0,-30.0,0
1600,0.0,-263.0,-27.0,0
1601,-3.0,-264.0,-29.0,0
1602,-7.0,-266.0,-29.0,0
1603,-9.0,-266.0,-26.0,0
1604,-11.0,-268.0,-24.0,0
1605,-12.0,-272.0,-24.0,0
1606,-12.0,-275.0,-23.0,0
1607,-14.0,-277.0,-26.0,0
1608,-15.0,-276.0,-20.0,0
1609,-19.0,-277.0,-23.0,0
1610,-16.0,-278.0,-28.0,0
1611,-11.0,-278.0,-25.0,0
1612,-14.0,-282.0,-28.0,0
1613,-12.0,-281.0,-31.0,0
1614,-7.0,-276.0,-40.0,0
1615,-6.0,-276.0,-39.0,0
1616,-6.0,-278.0,-35.0,0
1617,-3.0,-277.0,-31.0,0
1618,-2.0,-282.0,-29.0,0
1619,-3.0,-278.0,-28.0,0
1620,-3.0,-274.0,-30.0,0
1621,-1.0,-276.0,-31.0,0
1622,-2.0,-275.0,-33.0,0
1623,-5.0,-274.0,-28.0,0
1624,-3.0,-275.0,-31.0,0
1625,-3.0,-273.0,-32.0,0
1626,-4.0,-276.0,-25.0,0
1627,-8.0,-275.0,-28.0,0
1628,-7.0,-268.0,-32.0,0
1629,-5.0,-269.0,-28.0,0
1630,-8.0,-268.0,-29.0,0
1631,-5.0,-272.0,-30.0,0
1632,-3.0,-272.0,-29.0,0
1633,-6.0,-269.0,-31.0,0
1634,-4.0,-271.0,-24.0,0
1635,-6.0,-274.0,-29.0,0
1636,-8.0,-268.0,-27.0,0
1637,-9.0,-270.0,-23.0,0
1638,-9.0,-267.0,-28.0,0
1639,-9.0,-271.0,-24.0,0
1640,-9.0,-273.0,-24.0,0
1641,-8.0,-271.0,-23.0,0
1642,-11.0,-271.0,-25.0,0
1643,-12.0,-272.0,-26.0,0
1644,-12.0,-269.0,-24.0,0
1645,-11.0,-271.0,-24.0,0
1646,-14.0,-271.0,-27.0,0
1647,-12.0,-270.0,-29.0,0
1648,-12.0,-269.0,-29.0,0
1649,-11.0,-272.0,-26.0,0
1650,-12.0,-273.0,-29.0,0
1651,-12.0,-271.0,-28.0,0
1652,-9.0,-273.0,-23.0,0
1653,-10.0,-269.0,-27.0,0
1654,-9.0,-270.0,-27.0,0
1655,-9.0,-269.0,-30.0,0
1656,-6.0,-272.0,-30.0,0
1657,-5.0,-271.0,-30.0,0
1658,-5.0,-271.0,-32.0,0
1659,1.0,-272.0,-32.0,0
1660,-2.0,-269.0,-31.0,0
1661,-5.0,-270.0,-25.0,0
1662,-6.0,-268.0,-25.0,0
1663,-3.0,-274.0,-30.0,0
1664,-5.0,-269.0,-27.0,0
1665,-5.0,-271.0,-25.0,0
1666,-3.0,-269.0,-29.0,0
1667,-3.0,-269.0,-31.0,0
1668,-3.0,-271.0,-30.0,0
1669,-3.0,-272.0,-27.0,0
1670,0.0,-274.0,-25.0,0
1671,-2.0,-274.0,-25.0,0
1672,-1.0,-273.0,-26.0,0
1673,2.0,-273.0,-29.0,0
1674,1.0,-273.0,-28.0,0
1675,4.0,-274.0,-33.0,0
1676,5.0,-273.0,-30.0,0
1677,2.0,-273.0,-27.0,0
1678,5.0,-274.0,-31.0,0
1679,3.0,-276.0,-31.0,0
1680,2.0,-273.0,-35.0,0
1681,-1.0,-276.0,-31.0,0
1682,-1.0,-276.0,-27.0,0
1683,0.0,-277.0,-31.0,0
1684,2.0,-279.0,-32.0,0
1685,3.0,-276.0,-31.0,0
1686,4.0,-276.0,-32.0,0
1687,6.0,-275.0,-34.0,0
1688,5.0,-274.0,-32.0,0
1689,5.0,-274.0,-32.0,0
1690,2.0,-274.0,-29.0,0
1691,3.0,-273.0,-29.0,0
1692,2.0,-274.0,-28.0,0
1693,2.0,-274.0,-29.0,0
1694,3.0,-275.0,-35.0,0
1695,2.0,-273.0,-29.0,0
1696,2.0,-275.0,-28.0,0
1697,4.0,-275.0,-31.0,0
1698,6.0,-273.0,-28.0,0
1699,1.0,-274.0,-32.0,0
1700,4.0,-273.0,-31.0,0
1701,2.0,-273.0,-29.0,0
1702,5.0,-274.0,-31.0,0
1703,2.0,-272.0,-30.0,0
1704,2.0,-270.0,-30.0,0
1705,3.0,-270.0,-26.0,0
1706,2.0,-272.0,-28.0,0
1707,0.0,-272.0,-30.0,0
1708,-1.0,-271.0,-32.0,0
1709,0.0,-270.0,-33.0,0
1710,2.0,-271.0,-34.0,0
1711,1.0,-274.0,-32.0,0
1712,-2.0,-273.0,-29.0,0
1713,2.0,-273.0,-21.0,0
1714,-4.0,-273.0,-25.0,0
1715,-4.0,-269.0,-26.0,0
1716,0.0,-269.0,-28.0,0
1717,-2.0,-265.0,-30.0,0
1718,-2.0,-268.0,-31.0,0
1719,-1.0,-268.0,-24.0,0
1720,0.0,-270.0,-24.0,0
1721,-4.0,-272.0,-22.0,0
1722,-1.0,-271.0,-25.0,0
1723,0.0,-274.0,-22.0,0
1724,-3.0,-273.0,-26.0,0
1725,0.0,-273.0,-26.0,0
1726,3.0,-272.0,-24.0,0
1727,1.0,-273.0,-24.0,0
1728,1.0,-273.0,-28.0,0
1729,-2.0,-271.0,-26.0,0
1730,3.0,-271.0,-28.0,0
1731,2.0,-270.0,-28.0,0
1732,1.0,-269.0,-30.0,0
1733,0.0,-271.0,-26.0,0
1734,1.0,-270.0,-27.0,0
1735,1.0,-272.0,-24.0,0
1736,-2.0,-273.0,-25.0,0
1737,-2.0,-272.0,-30.0,0
1738,0.0,-272.0,-24.0,0
1739,-2.0,-272.0,-22.0,0
1740,-1.0,-273.0,-25.0,0
1741,0.0,-272.0,-21.0,0
1742,-1.0,-273.0,-24.0,0
1743,-2.0,-273.0,-23.0,0
1744,3.0,-275.0,-22.0,0
1745,0.0,-273.0,-20.0,0
1746,2.0,-274.0,-23.0,0
1747,4.0,-274.0,-18.0,0
1748,2.0,-273.0,-23.0,0
1749,2.0,-274.0,-27.0,0
1750,2.0,-273.0,-19.0,0
1751,1.0,-273.0,-22.0,0
1752,4.0,-271.0,-22.0,0
1753,5.0,-271.0,-20.0,0
1754,4.0,-270.0,-25.0,0
1755,5.0,-267.0,-27.0,0
1756,5.0,-267.0,-19.0,0
1757,2.0,-267.0,-22.0,0
1758,2.0,-268.0,-21.0,0
1759,1.0,-268.0,-20.0,0
1760,1.0,-269.0,-20.0,0
1761,1.0,-269.0,-21.0,0
1762,2.0,-268.0,-22.0,0
1763,2.0,-269.0,-22.0,0
1764,1.0,-270.0,-19.0,0
1765,1.0,-266.0,-19.0,0
1766,-1.0,-272.0,-17.0,0
1767,-1.0,-269.0,-17.0,0
1768,2.0,-272.0,-17.0,0
1769,3.0,-273.0,-14.0,0
1770,2.0,-275.0,-17.0,0
1771,3.0,-272.0,-18.0,0
1772,4.0,-273.0,-18.0,0
1773,0.0,-271.0,-13.0,0
1774,2.0,-271.0,-20.0,0
1775,1.0,-269.0,-18.0,0
1776,4.0,-271.0,-15.0,0
1777,4.0,-275.0,-16.0,0
1778,2.0,-271.0,-18.0,0
1779,0.0,-271.0,-16.0,0
1780,4.0,-271.0,-13.0,0
1781,3.0,-270.0,-16.0,0
1782,3.0,-268.0,-15.0,0
1783,3.0,-271.0,-18.0,0
1784,2.0,-271.0,-18.0,0
1785,-1.0,-267.0,-13.0,0
1786,1.0,-271.0,-19.0,0
1787,2.0,-272.0,-13.0,0
1788,11.0,-266.0,-21.0,0
1789,5.0,-269.0,-17.0,0
1790,1.0,-268.0,-15.0,0
1791,2.0,-271.0,-16.0,0
1792,2.0,-270.0,-17.0,0
1793,1.0,-271.0,-12.0,0
1794,-1.0,-271.0,-15.0,0
1795,3.0,-271.0,-16.0,0
1796,-1.0,-273.0,-17.0,0
1797,1.0,-272.0,-17.0,0
1798,1.0,-270.0,-14.0,0
1799,-1.0,-270.0,-15.0,0
1800,0.0,-269.0,-13.0,0
1801,2.0,-272.0,-14.0,0
1802,2.0,-270.0,-12.0,0
1803,1.0,-270.0,-15.0,0
1804,0.0,-269.0,-19.0,0
1805,2.0,-268.0,-23.0,0
1806,1.0,-267.0,-20.0,0
1807,1.0,-273.0,-17.0,0
1808,1.0,-272.0,-13.0,0
1809,0.0,-276.0,-17.0,0
1810,4.0,-273.0,-16.0,0
1811,3.0,-273.0,-19.0,0
1812,0.0,-270.0,-16.0,0
1813,1.0,-268.0,-12.0,0
1814,2.0,-270.0,-20.0,0
1815,1.0,-268.0,-15.0,0
1816,-2.0,-269.0,-17.0,0
1817,-1.0,-271.0,-12.0,0
1818,0.0,-270.0,-11.0,0
1819,-2.0,-268.0,-9.0,0
1820,2.0,-269.0,-13.0,0
1821,-2.0,-268.0,-13.0,0
1822,0.0,-270.0,-11.0,0
1823,-3.0,-269.0,-14.0,0
1824,-1.0,-269.0,-15.0,0
1825,-2.0,-271.0,-12.0,0
1826,-2.0,-272.0,-17.0,0
1827,-1.0,-271.0,-16.0,0
1828,-4.0,-269.0,-16.0,0
1829,-4.0,-272.0,-16.0,0
1830,1.0,-271.0,-12.0,0
1831,-1.0,-273.0,-15.0,0
1832,1.0,-275.0,-14.0,0
1833,-1.0,-267.0,-11.0,0
1834,-3.0,-271.0,-10.0,0
1835,-2.0,-267.0,-7.0,0
1836,-3.0,-271.0,-12.0,0
1837,-2.0,-269.0,-14.0,0
1838,0.0,-270.0,-11.0,0
1839,1.0,-272.0,-14.0,0
1840,-1.0,-270.0,-12.0,0
1841,0.0,-272.0,-10.0,0
1842,4.0,-268.0,-10.0,0
1843,0.0,-271.0,-10.0,0
1844,4.0,-269.0,-11.0,0
1845,3.0,-268.0,-14.0,0
1846,5.0,-268.0,-10.0,0
1847,0.0,-270.0,-13.0,0
1848,2.0,-273.0,-8.0,0
1849,2.0,-272.0,-11.0,0
1850,4.0,-271.0,-12.0,0
1851,2.0,-272.0,-9.0,0
1852,0.0,-272.0,-9.0,0
1853,-1.0,-272.0,-12.0,0
1854,1.0,-273.0,-15.0,0
1855,0.0,-272.0,-13.0,0
1856,0.0,-271.0,-11.0,0
1857,2.0,-274.0,-13.0,0
1858,1.0,-272.0,-16.0,0
1859,5.0,-273.0,-13.0,0
1860,1.0,-274.0,-13.0,0
1861,2.0,-273.0,-14.0,0
1862,0.0,-272.0,-14.0,0
1863,1.0,-273.0,-12.0,0
1864,1.0,-273.0,-17.0,0
1865,0.0,-275.0,-13.0,0
1866,0.0,-276.0,-11.0,0
1867,0.0,-273.0,-11.0,0
1868,-4.0,-271.0,-15.0,0
1869,-1.0,-272.0,-10.0,0
1870,-2.0,-271.0,-10.0,0
1871,1.0,-271.0,-15.0,0
1872,-5.0,-269.0,-14.0,0
1873,-2.0,-270.0,-15.0,0
1874,-2.0,-267.0,-13.0,0
1875,-1.0,-268.0,-10.0,0
1876,-1.0,-269.0,-11.0,0
1877,-1.0,-269.0,-14.0,0
1878,-2.0,-269.0,-15.0,0
1879,0.0,-268.0,-12.0,0
1880,-3.0,-272.0,-12.0,0
1881,-1.0,-270.0,-14.0,0
1882,-4.0,-271.0,-10.0,0
1883,-2.0,-273.0,-12.0,0
1884,-4.0,-272.0,-12.0,0
1885,-1.0,-266.0,-14.0,0
1886,-3.0,-271.0,-16.0,0
1887,-4.0,-267.0,-13.0,0
1888,-2.0,-269.0,-14.0,0
1889,-4.0,-269.0,-13.0,0
1890,-5.0,-271.0,-13.0,0
1891,-3.0,-274.0,-13.0,0
1892,-2.0,-275.0,-15.0,0
1893,2.0,-275.0,-10.0,0
1894,1.0,-275.0,-17.0,0
1895,-3.0,-270.0,-13.0,0
1896,-3.0,-269.0,-12.0,0
1897,1.0,-273.0,-15.0,0
1898,3.0,-270.0,-9.0,0
1899,-2.0,-270.0,-15.0,0
1900,1.0,-274.0,-17.0,0
1901,0.0,-273.0,-19.0,0
1902,1.0,-273.0,-21.0,0
1903,1.0,-276.0,-17.0,0
1904,1.0,-279.0,-16.0,0
1905,-1.0,-274.0,-16.0,0
1906,2.0,-277.0,-11.0,0
1907,3.0,-276.0,-14.0,0
1908,5.0,-274.0,-16.0,0
1909,2.0,-272.0,-20.0,0
1910,3.0,-273.0,-16.0,0
1911,1.0,-269.0,-14.0,0
1912,4.0,-274.0,-14.0,0
1913,1.0,-274.0,-11.0,0
1914,1.0,-272.0,-12.0,0
1915,3.0,-272.0,-11.0,0
1916,2.0,-272.0,-11.0,0
1917,1.0,-271.0,-12.0,0
1918,3.0,-274.0,-12.0,0
1919,-2.0,-273.0,-12.0,0
1920,1.0,-272.0,-15.0,0
1921,1.0,-272.0,-18.0,0
1922,0.0,-272.0,-16.0,0
1923,0.0,-269.0,-13.0,0
1924,2.0,-272.0,-15.0,0
1925,0.0,-271.0,-13.0,0
1926,-1.0,-273.0,-16.0,0
1927,-1.0,-271.0,-19.0,0
1928,-1.0,-272.0,-17.0,0
1929,-3.0,-271.0,-17.0,0
1930,-1.0,-271.0,-15.0,0
1931,-3.0,-270.0,-13.0,0
1932,-3.0,-271.0,-17.0,0
1933,0.0,-273.0,-16.0,0
1934,-4.0,-271.0,-13.0,0
1935,-6.0,-271.0,-17.0,0
1936,-4.0,-272.0,-12.0,0
1937,-2.0,-273.0,-12.0,0
1938,-5.0,-274.0,-11.0,0
1939,-1.0,-272.0,-14.0,0
1940,-3.0,-270.0,-17.0,0
1941,-4.0,-272.0,-16.0,0
1942,-5.0,-273.0,-16.0,0
1943,-3.0,-273.0,-15.0,0
1944,-6.0,-272.0,-16.0,0
1945,-1.0,-272.0,-16.0,0
1946,-5.0,-273.0,-15.0,0
1947,-4.0,-272.0,-12.0,0
1948,-3.0,-274.0,-16.0,0
1949,-2.0,-273.0,-19.0,0
1950,-3.0,-271.0,-18.0,0
1951,1.0,-270.0,-16.0,0
1952,0.0,-271.0,-15.0,0
1953,-3.0,-270.0,-17.0,0
1954,-5.0,-269.0,-13.0,0
1955,-4.0,-270.0,-11.0,0
1956,-2.0,-271.0,-14.0,0
1957,-5.0,-273.0,-15.0,0
1958,-5.0,-272.0,-12.0,0
1959,-6.0,-270.0,-13.0,0
1960,0.0,-270.0,-11.0,0
1961,-1.0,-273.0,-15.0,0
1962,-1.0,-271.0,-14.0,0
1963,-5.0,-272.0,-13.0,0
1964,-1.0,-270.0,-12.0,0
1965,0.0,-269.0,-6.0,0
1966,-2.0,-269.0,-12.0,0
1967,0.0,-271.0,-10.0,0
1968,0.0,-269.0,-10.0,0
1969,-1.0,-270.0,-15.0,0
1970,2.0,-271.0,-11.0,0
1971,-1.0,-269.0,-13.0,0
1972,2.0,-273.0,-12.0,0
1973,0.0,-270.0,-14.0,0
1974,3.0,-271.0,-16.0,0
1975,-1.0,-271.0,-11.0,0
1976,0.0,-273.0,-12.0,0
1977,1.0,-273.0,-9.0,0
1978,-1.0,-269.0,-9.0,0
1979,1.0,-273.0,-11.0,0
1980,0.0,-272.0,-9.0,0
1981,0.0,-269.0,-14.0,0
1982,1.0,-268.0,-11.0,0
1983,0.0,-273.0,-8.0,0
1984,-1.0,-267.0,-11.0,0
1985,2.0,-267.0,-11.0,0
1986,2.0,-272.0,-14.0,0
1987,0.0,-271.0,-12.0,0
1988,-1.0,-271.0,-12.0,0
1989,-2.0,-267.0,-13.0,0
1990,-3.0,-264.0,-14.0,0
1991,-6.0,-260.0,-17.0,0
1992,-5.0,-258.0,-13.0,0
1993,-7.0,-258.0,-13.0,0
1994,-7.0,-263.0,-6.0,0
1995,-6.0,-266.0,-3.0,0
1996,-7.0,-268.0,-2.0,0
1997,-6.0,-272.0,-5.0,0
1998,-7.0,-275.0,-2.0,0
1999,-1.0,-277.0,0.0,0
2000,-2.0,-282.0,3.0,0
2001,-2.0,-282.0,5.0,0
2002,-2.0,-284.0,11.0,0
2003,-2.0,-281.0,13.0,0
2004,-3.0,-277.0,8.0,0
2005,-3.0,-270.0,10.0,0
2006,-1.0,-269.0,13.0,0
2007,-1.0,-269.0,14.0,0
2008,4.0,-270.0,16.0,0
2009,0.0,-264.0,15.0,0
2010,-3.0,-266.0,18.0,0
2011,-6.0,-269.0,17.0,0
2012,-8.0,-268.0,14.0,0
2013,-9.0,-267.0,11.0,0
2014,-10.0,-268.0,13.0,0
2015,-9.0,-271.0,12.0,0
2016,-7.0,-271.0,4.0,0
2017,-5.0,-272.0,4.0,0
2018,0.0,-273.0,3.0,0
2019,10.0,-274.0,1.0,0
2020,17.0,-273.0,0.0,0
2021,22.0,-274.0,-4.0,0
2022,23.0,-271.0,-5.0,0
2023,25.0,-273.0,-4.0,0
2024,28.0,-274.0,-2.0,0
2025,26.0,-277.0,-4.0,0
2026,26.0,-278.0,-8.0,0
2027,24.0,-278.0,-2.0,0
2028,19.0,-276.0,0.0,0
2029,19.0,-276.0,-5.0,0
2030,17.0,-273.0,-1.0,0
2031,15.0,-271.0,0.0,0
2032,11.0,-267.0,-2.0,0
2033,10.0,-267.0,-6.0,0
2034,9.0,-265.0,-6.0,0
2035,9.0,-261.0,-11.0,0
2036,8.0,-266.0,-8.0,0
2037,4.0,-262.0,-8.0,0
2038,4.0,-264.0,-8.0,0
2039,2.0,-267.0,-4.0,0
2040,3.0,-266.0,-8.0,0
2041,-1.0,-265.0,-5.0,0
2042,-3.0,-265.0,-7.0,0
2043,-1.0,-267.0,-3.0,0
2044,-4.0,-266.0,-1.0,0
2045,-3.0,-267.0,-1.0,0
2046,-7.0,-265.0,-1.0,0
2047,-3.0,-268.0,1.0,0
2048,-6.0,-267.0,0.0,0
2049,-4.0,-269.0,-1.0,0
2050,-6.0,-270.0,0.0,0
2051,-5.0,-269.0,-1.0,0
2052,-4.0,-268.0,-4.0,0
2053,-6.0,-266.0,-7.0,0
2054,-4.0,-266.0,-4.0,0
2055,-6.0,-265.0,-2.0,0
2056,-6.0,-261.0,-5.0,0
2057,-5.0,-267.0,-10.0,0
2058,-3.0,-264.0,-10.0,0
2059,-4.0,-265.0,-10.0,0
2060,-3.0,-262.0,-4.0,0
2061,-6.0,-262.0,-10.0,0
2062,-4.0,-264.0,-10.0,0
2063,-4.0,-264.0,-14.0,0
2064,-2.0,-263.0,-12.0,0
2065,-1.0,-266.0,-13.0,0
2066,0.0,-268.0,-9.0,0
2067,1.0,-272.0,-10.0,0
2068,1.0,-273.0,-12.0,0
2069,-1.0,-274.0,-6.0,0
2070,-1.0,-273.0,-8.0,0
2071,-2.0,-273.0,-7.0,0
2072,-3.0,-276.0,-4.0,0
2073,1.0,-274.0,-9.0,0
2074,1.0,-274.0,-9.0,0
2075,1.0,-271.0,-10.0,0
2076,0.0,-270.0,-8.0,0
2077,2.0,-270.0,-11.0,0
2078,2.0,-266.0,-11.0,0
2079,1.0,-264.0,-11.0,0
2080,2.0,-264.0,-11.0,0
2081,6.0,-263.0,-15.0,0
2082,2.0,-258.0,-12.0,0
2083,5.0,-257.0,-11.0,0
2084,5.0,-257.0,-9.0,0
2085,5.0,-257.0,-9.0,0
2086,4.0,-257.0,-6.0,0
2087,5.0,-262.0,-2.0,0
2088,6.0,-259.0,0.0,0
2089,10.0,-259.0,0.0,0
2090,8.0,-262.0,-2.0,0
2091,6.0,-263.0,2.0,0
2092,4.0,-264.0,0.0,0
2093,4.0,-267.0,1.0,0
2094,3.0,-270.0,4.0,0
2095,2.0,-273.0,7.0,0
2096,1.0,-273.0,12.0,0
2097,0.0,-274.0,13.0,0
2098,-2.0,-272.0,11.0,0
2099,-3.0,-272.0,12.0,0
2100,-2.0,-270.0,17.0,0
2101,-1.0,-263.0,12.0,0
2102,-1.0,-263.0,7.0,0
2103,-1.0,-260.0,14.0,0
2104,-4.0,-261.0,11.0,0
2105,-2.0,-260.0,10.0,0
2106,-4.0,-254.0,8.0,0
2107,3.0,-257.0,7.0,0
2108,7.0,-259.0,5.0,0
2109,8.0,-262.0,3.0,0
2110,6.0,-264.0,0.0,0
2111,2.0,-261.0,-7.0,0
2112,0.0,-262.0,-2.0,0
2113,-5.0,-260.0,-4.0,0
2114,-7.0,-262.0,-5.0,0
2115,-11.0,-261.0,-6.0,0
2116,-14.0,-258.0,-11.0,0
2117,-19.0,-261.0,-11.0,0
2118,-20.0,-267.0,-6.0,0
2119,-16.0,-270.0,-5.0,0
2120,-22.0,-274.0,-6.0,0
2121,-20.0,-275.0,0.0,0
2122,-12.0,-278.0,1.0,0
2123,-12.0,-278.0,5.0,0
2124,-10.0,-277.0,13.0,0
2125,-10.0,-276.0,20.0,0
2126,-8.0,-278.0,23.0,0
2127,1.0,-275.0,26.0,0
2128,5.0,-275.0,24.0,0
2129,10.0,-270.0,21.0,0
2130,16.0,-267.0,19.0,0
2131,23.0,-264.0,16.0,0
2132,28.0,-263.0,9.0,0
2133,29.0,-262.0,9.0,0
2134,34.0,-262.0,13.0,0
2135,36.0,-263.0,7.0,0
2136,36.0,-265.0,6.0,0
2137,35.0,-269.0,5.0,0
2138,35.0,-268.0,6.0,0
2139,34.0,-269.0,5.0,0
2140,22.0,-243.0,-3.0,0
2141,25.0,-265.0,12.0,0
2142,22.0,-264.0,16.0,0
2143,22.0,-265.0,16.0,0
2144,22.0,-264.0,22.0,0
2145,20.0,-264.0,24.0,0
2146,16.0,-264.0,30.0,0
2147,13.0,-264.0,32.0,0
2148,14.0,-263.0,31.0,0
2149,11.0,-257.0,29.0,0
2150,11.0,-252.0,27.0,0
2151,13.0,-251.0,24.0,0
2152,14.0,-249.0,22.0,0
2153,7.0,-243.0,20.0,0
2154,8.0,-236.0,15.0,0
2155,10.0,-241.0,16.0,0
2156,7.0,-239.0,13.0,0
2157,10.0,-237.0,21.0,0
2158,11.0,-236.0,19.0,0
2159,15.0,-237.0,20.0,0
2160,11.0,-236.0,12.0,0
2161,7.0,-229.0,7.0,0
2162,5.0,-233.0,9.0,0
2163,5.0,-239.0,14.0,0
2164,7.0,-248.0,21.0,0
2165,1.0,-254.0,18.0,0
2166,-1.0,-258.0,14.0,0
2167,-2.0,-261.0,22.0,0
2168,3.0,-270.0,17.0,0
2169,12.0,-275.0,23.0,0
2170,21.0,-283.0,30.0,0
2171,28.0,-283.0,34.0,0
2172,29.0,-282.0,29.0,0
2173,28.0,-276.0,29.0,0
2174,20.0,-273.0,33.0,0
2175,13.0,-264.0,41.0,0
2176,5.0,-263.0,50.0,0
2177,-3.0,-258.0,56.0,0
2178,-5.0,-245.0,56.0,0
2179,-5.0,-238.0,50.0,0
2180,-9.0,-230.0,46.0,0
2181,-13.0,-227.0,40.0,0
2182,-20.0,-225.0,31.0,0
2183,-31.0,-227.0,15.0,0
2184,-40.0,-226.0,0.0,0
2185,-42.0,-225.0,-19.0,0
2186,-37.0,-223.0,-40.0,0
2187,-36.0,-213.0,-52.0,0
2188,-34.0,-198.0,-66.0,0
2189,-37.0,-186.0,-86.0,0
2190,-30.0,-162.0,-113.0,0
2191,-32.0,-139.0,-128.0,0
2192,-37.0,-109.0,-133.0,0
2193,-46.0,-86.0,-124.0,0
2194,-49.0,-58.0,-104.0,0
2195,-47.0,-37.0,-72.0,0
2196,-35.0,-16.0,-29.0,0
2197,-24.0,-2.0,-2.0,0
2198,2.0,16.0,22.0,0
2199,28.0,34.0,42.0,0
2200,52.0,42.0,40.0,0
2201,71.0,49.0,38.0,0
2202,73.0,48.0,28.0,0
2203,67.0,51.0,9.0,0
2204,56.0,51.0,-5.0,0
2205,35.0,40.0,-46.0,0
2206,16.0,36.0,-53.0,0
2207,6.0,33.0,-62.0,0
2208,1.0,26.0,-55.0,0
2209,-2.0,17.0,-40.0,0
2210,-14.0,3.0,-10.0,0
2211,-40.0,-20.0,18.0,0
2212,-57.0,-48.0,42.0,0
2213,-78.0,-81.0,70.0,0
2214,-100.0,-112.0,84.0,0
2215,-115.0,-146.0,82.0,0
2216,-123.0,-178.0,62.0,0
2217,-117.0,-213.0,31.0,0
2218,-109.0,-243.0,1.0,0
2219,-102.0,-278.0,-19.0,0
2220,-92.0,-306.0,-16.0,0
2221,-76.0,-349.0,-4.0,0
2222,-78.0,-393.0,12.0,0
2223,-124.0,-453.0,60.0,0
2224,-177.0,-568.0,148.0,0
2225,-139.0,-698.0,195.0,0
2226,-34.0,-807.0,50.0,0
2227,29.0,-910.0,-63.0,0
2228,109.0,-906.0,-185.0,0
2229,318.0,-1487.0,213.0,0
2230,323.0,-1118.0,-307.0,0
2231,441.0,-1071.0,-270.0,0
2232,481.0,-1132.0,-253.0,0
2233,391.0,-968.0,-79.0,0
2234,95.0,-614.0,-12.0,0
2235,-5.0,-456.0,-71.0,0
2236,-82.0,-248.0,-27.0,0
2237,-134.0,-69.0,-57.0,0
2238,-148.0,68.0,-156.0,0
2239,-168.0,198.0,-249.0,0
2240,-187.0,328.0,-250.0,0
2241,-204.0,464.0,-181.0,0
2242,-210.0,579.0,-87.0,0
2243,-214.0,632.0,-13.0,0
2244,-187.0,616.0,45.0,0
2245,-135.0,508.0,66.0,0
2246,-63.0,317.0,82.0,0
2247,-33.0,140.0,54.0,0
2248,-34.0,4.0,-43.0,0
2249,-29.0,-79.0,-144.0,0
2250,-17.0,-115.0,-195.0,0
2251,3.0,-153.0,-219.0,0
2252,19.0,-169.0,-191.0,0
2253,45.0,-175.0,-148.0,0
2254,74.0,-172.0,-112.0,0
2255,79.0,-204.0,-93.0,0
2256,78.0,-241.0,-75.0,0
2257,71.0,-342.0,-102.0,0
2258,38.0,-406.0,-183.0,0
2259,-111.0,-453.0,-425.0,0
2260,-227.0,-577.0,-461.0,0
2261,-212.0,-786.0,-169.0,0
2262,-133.0,-1007.0,114.0,0
2263,-130.0,-1325.0,506.0,0
2264,-53.0,-1273.0,244.0,0
2265,-26.0,-1129.0,-24.0,0
2266,73.0,-1141.0,-221.0,0
2267,130.0,-1178.0,-150.0,0
2268,-59.0,-897.0,-17.0,0
2269,-117.0,-697.0,-50.0,0
2270,-119.0,-513.0,-92.0,0
2271,-93.0,-362.0,-62.0,0
2272,-78.0,-211.0,15.0,0
2273,-62.0,-93.0,34.0,0
2274,-37.0,33.0,11.0,0
2275,-23.0,123.0,-21.0,0
2276,-4.0,127.0,-92.0,0
2277,26.0,55.0,-118.0,0
2278,34.0,-67.0,-82.0,0
2279,17.0,-218.0,-46.0,0
2280,-4.0,-357.0,-2.0,0
2281,-12.0,-442.0,27.0,0
2282,-23.0,-549.0,316.0,0
2283,-31.0,-604.0,30.0,0
2284,-7.0,-538.0,-80.0,0
2285,-7.0,-433.0,-93.0,0
2286,-18.0,-327.0,-62.0,0
2287,-19.0,-234.0,-76.0,0
2288,-13.0,-170.0,-116.0,0
2289,11.0,-99.0,-173.0,0
2290,44.0,-27.0,-223.0,0
2291,89.0,49.0,-230.0,0
2292,112.0,108.0,-245.0,0
2293,137.0,182.0,-192.0,0
2294,137.0,267.0,-119.0,0
2295,123.0,324.0,-60.0,0
2296,106.0,352.0,-41.0,0
2297,59.0,359.0,-62.0,0
2298,23.0,256.0,-148.0,0
2299,19.0,126.0,-200.0,0
2300,-5.0,12.0,-154.0,0
2301,-12.0,-108.0,-72.0,0
2302,-12.0,-219.0,3.0,0
2303,-25.0,-319.0,48.0,0
2304,-57.0,-379.0,41.0,0
2305,-101.0,-452.0,-1.0,0
2306,-150.0,-482.0,-29.0,0
2307,-214.0,-573.0,-82.0,0
2308,-307.0,-573.0,-89.0,0
2309,-356.0,-620.0,-103.0,0
2310,-297.0,-662.0,-113.0,0
2311,-86.0,-722.0,-43.0,0
2312,50.0,-743.0,53.0,0
2313,153.0,-751.0,139.0,0
2314,221.0,-844.0,231.0,0
2315,207.0,-777.0,137.0,0
2316,150.0,-669.0,126.0,0
2317,109.0,-567.0,133.0,0
2318,87.0,-460.0,91.0,0
2319,86.0,-371.0,39.0,0
2320,89.0,-245.0,-28.0,0
2321,86.0,-139.0,-89.0,0
2322,86.0,-38.0,-126.0,0
2323,74.0,57.0,-128.0,0
2324,43.0,123.0,-136.0,0
2325,2.0,144.0,-153.0,0
2326,-23.0,199.0,-105.0,0
2327,-50.0,187.0,-107.0,0
2328,-81.0,163.0,-101.0,0
2329,-113.0,103.0,-100.0,0
2330,-134.0,47.0,-77.0,0
2331,-150.0,13.0,-34.0,0
2332,-157.0,-23.0,5.0,0
2333,-135.0,-53.0,26.0,0
2334,-92.0,-82.0,22.0,0
2335,-33.0,-97.0,-12.0,0
2336,-27.0,-78.0,-49.0,0
2337,-22.0,-66.0,-84.0,0
2338,1.0,-80.0,-101.0,0
2339,14.0,-114.0,-96.0,0
2340,18.0,-175.0,-82.0,0
2341,28.0,-241.0,-53.0,0
2342,32.0,-291.0,-56.0,0
2343,23.0,-362.0,-85.0,0
2344,12.0,-419.0,-108.0,0
2345,7.0,-498.0,-148.0,0
2346,10.0,-538.0,-152.0,0
2347,46.0,-598.0,-213.0,0
2348,82.0,-658.0,-198.0,0
2349,77.0,-688.0,-146.0,0
2350,55.0,-746.0,-112.0,0
2351,26.0,-806.0,43.0,0
2352,-16.0,-964.0,368.0,0
2353,-132.0,-977.0,245.0,0
2354,-99.0,-862.0,82.0,0
2355,-76.0,-725.0,28.0,0
2356,-114.0,-607.0,1.0,0
2357,-149.0,-491.0,-35.0,0
2358,-163.0,-408.0,-67.0,0
2359,-154.0,-312.0,-120.0,0
2360,-117.0,-215.0,-151.0,0
2361,-68.0,-139.0,-167.0,0
2362,-16.0,-71.0,-165.0,0
2363,8.0,-23.0,-138.0,0
2364,18.0,6.0,-102.0,0
2365,15.0,5.0,-70.0,0
2366,1.0,-2.0,-32.0,0
2367,-4.0,-22.0,-1.0,0
2368,7.0,-35.0,12.0,0
2369,36.0,-51.0,12.0,0
2370,70.0,-59.0,15.0,0
2371,110.0,-54.0,17.0,0
2372,142.0,-46.0,4.0,0
2373,153.0,-37.0,-4.0,0
2374,144.0,-18.0,-13.0,0
2375,114.0,1.0,-25.0,0
2376,70.0,14.0,-36.0,0
2377,31.0,25.0,-53.0,0
2378,-3.0,19.0,-65.0,0
2379,-28.0,4.0,-70.0,0
2380,-37.0,-12.0,-78.0,0
2381,-35.0,-31.0,-91.0,0
2382,-35.0,-69.0,-128.0,0
2383,-46.0,-110.0,-124.0,0
2384,-68.0,-163.0,-105.0,0
2385,-92.0,-222.0,-63.0,0
2386,-115.0,-290.0,-17.0,0
2387,-114.0,-356.0,3.0,0
2388,-104.0,-413.0,8.0,0
2389,-104.0,-481.0,3.0,0
2390,-134.0,-536.0,5.0,0
2391,-194.0,-584.0,26.0,0
2392,-236.0,-636.0,32.0,0
2393,-178.0,-681.0,-62.0,0
2394,3.0,-705.0,-142.0,0
2395,127.0,-725.0,-95.0,0
2396,175.0,-767.0,26.0,0
2397,249.0,-892.0,183.0,0
2398,217.0,-900.0,135.0,0
2399,180.0,-747.0,123.0,0
2400,121.0,-621.0,98.0,0
2401,75.0,-520.0,49.0,0
2402,70.0,-411.0,-32.0,0
2403,89.0,-316.0,-94.0,0
2404,94.0,-249.0,-120.0,0
2405,78.0,-176.0,-143.0,0
2406,34.0,-109.0,-141.0,0
2407,-22.0,-69.0,-121.0,0
2408,-69.0,-13.0,-54.0,0
2409,-89.0,1.0,-34.0,0
2410,-83.0,23.0,-29.0,0
2411,-75.0,24.0,-42.0,0
2412,-70.0,12.0,-56.0,0
2413,-77.0,-13.0,-62.0,0
2414,-94.0,-41.0,-48.0,0
2415,-108.0,-71.0,-3.0,0
2416,-119.0,-89.0,26.0,0
2417,-111.0,-96.0,36.0,0
2418,-90.0,-89.0,14.0,0
2419,-69.0,-68.0,-8.0,0
2420,-41.0,-35.0,-47.0,0
2421,-18.0,0.0,-83.0,0
2422,-10.0,50.0,-76.0,0
2423,-14.0,81.0,-93.0,0
2424,-33.0,87.0,-130.0,0
2425,-49.0,50.0,-196.0,0
2426,-41.0,-2.0,-232.0,0
2427,-27.0,-47.0,-218.0,0
2428,-11.0,-113.0,-169.0,0
2429,14.0,-188.0,-92.0,0
2430,28.0,-263.0,-23.0,0
2431,35.0,-340.0,37.0,0
2432,26.0,-419.0,73.0,0
2433,25.0,-476.0,92.0,0
2434,16.0,-506.0,51.0,0
2435,-21.0,-510.0,-181.0,0
2436,-70.0,-514.0,-432.0,0
2437,-58.0,-632.0,-384.0,0
2438,-20.0,-766.0,-10.0,0
2439,132.0,-1261.0,902.0,0
2440,-71.0,-1158.0,612.0,0
2441,-7.0,-949.0,323.0,0
2442,23.0,-869.0,117.0,0
2443,-28.0,-717.0,27.0,0
2444,-105.0,-601.0,-10.0,0
2445,-138.0,-512.0,-62.0,0
2446,-118.0,-430.0,-111.0,0
2447,-71.0,-349.0,-109.0,0
2448,-29.0,-269.0,-73.0,0
2449,-7.0,-221.0,-46.0,0
2450,12.0,-175.0,-14.0,0
2451,32.0,-160.0,12.0,0
2452,45.0,-164.0,42.0,0
2453,51.0,-195.0,53.0,0
2454,47.0,-226.0,42.0,0
2455,51.0,-269.0,20.0,0
2456,50.0,-308.0,12.0,0
2457,44.0,-337.0,12.0,0
2458,22.0,-355.0,31.0,0
2459,-11.0,-355.0,50.0,0
2460,-50.0,-335.0,52.0,0
2461,-83.0,-286.0,23.0,0
2462,-113.0,-234.0,-4.0,0
2463,-107.0,-182.0,-39.0,0
2464,-99.0,-120.0,-67.0,0
2465,-92.0,-77.0,-68.0,0
2466,-69.0,-34.0,-110.0,0
2467,-39.0,4.0,-141.0,0
2468,0.0,42.0,-145.0,0
2469,27.0,38.0,-179.0,0
2470,52.0,45.0,-172.0,0
2471,71.0,43.0,-159.0,0
2472,74.0,36.0,-133.0,0
2473,75.0,24.0,-107.0,0
2474,70.0,-5.0,-82.0,0
2475,58.0,-32.0,-63.0,0
2476,42.0,-61.0,-46.0,0
2477,33.0,-81.0,-30.0,0
2478,22.0,-93.0,-19.0,0
2479,14.0,-103.0,-26.0,0
2480,7.0,-119.0,-24.0,0
2481,5.0,-143.0,-9.0,0
2482,2.0,-170.0,-2.0,0
2483,-15.0,-197.0,-9.0,0
2484,-41.0,-232.0,-21.0,0
2485,-72.0,-274.0,-28.0,0
2486,-95.0,-338.0,-29.0,0
2487,-111.0,-414.0,-58.0,0
2488,-102.0,-474.0,-98.0,0
2489,-53.0,-546.0,-192.0,0
2490,14.0,-607.0,-238.0,0
2491,44.0,-697.0,-159.0,0
2492,68.0,-780.0,86.0,0
2493,217.0,-985.0,315.0,0
2494,146.0,-956.0,223.0,0
2495,147.0,-840.0,146.0,0
2496,130.0,-705.0,75.0,0
2497,69.0,-609.0,53.0,0
2498,15.0,-532.0,20.0,0
2499,17.0,-471.0,-9.0,0
2500,21.0,-410.0,-14.0,0
2501,2.0,-360.0,-25.0,0
2502,-28.0,-322.0,-47.0,0
2503,-49.0,-301.0,-77.0,0
2504,-100.0,-260.0,-89.0,0
2505,-114.0,-234.0,-86.0,0
2506,-123.0,-214.0,-67.0,0
2507,-123.0,-201.0,-18.0,0
2508,-121.0,-185.0,25.0,0
2509,-116.0,-167.0,54.0,0
2510,-111.0,-151.0,60.0,0
2511,-102.0,-139.0,49.0,0
2512,-92.0,-119.0,29.0,0
2513,-65.0,-82.0,16.0,0
2514,-39.0,-57.0,-9.0,0
2515,-13.0,-19.0,-27.0,0
2516,-6.0,0.0,-64.0,0
2517,-3.0,45.0,-64.0,0
2518,-11.0,72.0,-74.0,0
2519,-23.0,93.0,-82.0,0
2520,-32.0,105.0,-87.0,0
2521,-21.0,121.0,-80.0,0
2522,-15.0,119.0,-79.0,0
2523,-12.0,104.0,-75.0,0
2524,-11.0,67.0,-79.0,0
2525,-12.0,32.0,-68.0,0
2526,-12.0,-1.0,-64.0,0
2527,-4.0,-48.0,-62.0,0
2528,15.0,-90.0,-68.0,0
2529,28.0,-124.0,-63.0,0
2530,36.0,-150.0,-66.0,0
2531,50.0,-173.0,-53.0,0
2532,56.0,-198.0,-51.0,0
2533,54.0,-224.0,-43.0,0
2534,44.0,-236.0,-28.0,0
2535,30.0,-264.0,0.0,0
2536,17.0,-281.0,30.0,0
2537,-8.0,-306.0,42.0,0
2538,-28.0,-345.0,43.0,0
2539,-12.0,-405.0,50.0,0
2540,-3.0,-468.0,5.0,0
2541,-47.0,-508.0,-162.0,0
2542,-104.0,-535.0,-312.0,0
2543,-163.0,-644.0,-335.0,0
2544,-164.0,-726.0,-117.0,0
2545,-175.0,-781.0,186.0,0
2546,-127.0,-984.0,548.0,0
2547,-45.0,-992.0,326.0,0
2548,-25.0,-842.0,208.0,0
2549,-33.0,-747.0,135.0,0
2550,-82.0,-608.0,64.0,0
2551,-95.0,-481.0,-21.0,0
2552,-70.0,-372.0,-83.0,0
2553,-35.0,-276.0,-117.0,0
2554,5.0,-189.0,-101.0,0
2555,28.0,-132.0,-75.0,0
2556,33.0,-99.0,-53.0,0
2557,32.0,-102.0,-34.0,0
2558,17.0,-142.0,-2.0,0
2559,4.0,-205.0,44.0,0
2560,0.0,-273.0,65.0,0
2561,9.0,-336.0,66.0,0
2562,24.0,-385.0,51.0,0
2563,25.0,-411.0,30.0,0
2564,11.0,-411.0,1.0,0
2565,12.0,-393.0,-15.0,0
2566,6.0,-340.0,-53.0,0
2567,1.0,-274.0,-77.0,0
2568,-13.0,-209.0,-102.0,0
2569,-23.0,-153.0,-118.0,0
2570,-21.0,-122.0,-134.0,0
2571,-23.0,-53.0,-101.0,0
2572,-15.0,-50.0,-123.0,0
2573,0.0,14.0,-90.0,0
2574,14.0,33.0,-90.0,0
2575,28.0,43.0,-86.0,0
2576,36.0,42.0,-73.0,0
2577,37.0,46.0,-42.0,0
2578,26.0,28.0,-26.0,0
2579,7.0,3.0,-8.0,0
2580,-15.0,-17.0,-1.0,0
2581,-36.0,-46.0,0.0,0
2582,-39.0,-75.0,-13.0,0
2583,-55.0,-105.0,-38.0,0
2584,-69.0,-125.0,-47.0,0
2585,-72.0,-152.0,-56.0,0
2586,-77.0,-181.0,-62.0,0
2587,-81.0,-211.0,-78.0,0
2588,-77.0,-238.0,-89.0,0
2589,-59.0,-296.0,-99.0,0
2590,-59.0,-366.0,-112.0,0
2591,-58.0,-452.0,-123.0,0
2592,-47.0,-531.0,-176.0,0
2593,-26.0,-594.0,-247.0,0
2594,21.0,-637.0,-259.0,0
2595,77.0,-684.0,-200.0,0
2596,154.0,-723.0,12.0,0
2597,199.0,-773.0,201.0,0
2598,228.0,-819.0,201.0,0
2599,170.0,-712.0,155.0,0
2600,129.0,-642.0,131.0,0
2601,99.0,-595.0,56.0,0
2602,61.0,-554.0,-13.0,0
2603,47.0,-531.0,-39.0,0
2604,40.0,-510.0,-43.0,0
2605,43.0,-494.0,-21.0,0
2606,8.0,-477.0,-7.0,0
2607,-42.0,-446.0,-14.0,0
2608,-81.0,-407.0,-30.0,0
2609,-100.0,-359.0,-58.0,0
2610,-103.0,-308.0,-91.0,0
2611,-99.0,-269.0,-114.0,0
2612,-94.0,-214.0,-121.0,0
2613,-96.0,-170.0,-125.0,0
2614,-98.0,-127.0,-119.0,0
2615,-98.0,-93.0,-95.0,0
2616,-80.0,-70.0,-83.0,0
2617,-48.0,-56.0,-69.0,0
2618,-28.0,-57.0,-59.0,0
2619,-1.0,-56.0,-28.0,0
2620,10.0,-66.0,-11.0,0
2621,12.0,-73.0,12.0,0
2622,3.0,-80.0,37.0,0
2623,-12.0,-81.0,56.0,0
2624,-31.0,-78.0,73.0,0
2625,-46.0,-72.0,88.0,0
2626,-55.0,-70.0,81.0,0
2627,-56.0,-62.0,69.0,0
2628,-37.0,-43.0,47.0,0
2629,-19.0,-22.0,9.0,0
2630,-12.0,-8.0,-14.0,0
2631,-16.0,2.0,-38.0,0
2632,-11.0,11.0,-43.0,0
2633,-12.0,34.0,-39.0,0
2634,-9.0,25.0,-49.0,0
2635,-9.0,15.0,-46.0,0
2636,-8.0,-10.0,-48.0,0
2637,-12.0,-36.0,-32.0,0
2638,-2.0,-73.0,-23.0,0
2639,22.0,-103.0,-16.0,0
2640,37.0,-131.0,-27.0,0
2641,53.0,-164.0,-55.0,0
2642,67.0,-191.0,-67.0,0
2643,87.0,-232.0,-69.0,0
2644,103.0,-276.0,-61.0,0
2645,103.0,-326.0,-46.0,0
2646,85.0,-378.0,-22.0,0
2647,52.0,-428.0,-4.0,0
2648,23.0,-486.0,-21.0,0
2649,17.0,-535.0,-37.0,0
2650,20.0,-596.0,-44.0,0
2651,14.0,-659.0,-66.0,0
2652,-13.0,-699.0,-102.0,0
2653,-75.0,-758.0,-137.0,0
2654,-172.0,-756.0,-95.0,0
2655,-237.0,-816.0,6.0,0
2656,-283.0,-887.0,263.0,0
2657,-235.0,-832.0,240.0,0
2658,-161.0,-717.0,218.0,0
2659,-180.0,-587.0,156.0,0
2660,-208.0,-473.0,50.0,0
2661,-232.0,-389.0,-42.0,0
2662,-235.0,-326.0,-105.0,0
2663,-205.0,-282.0,-133.0,0
2664,-147.0,-270.0,-121.0,0
2665,-116.0,-290.0,-80.0,0
2666,-72.0,-335.0,-10.0,0
2667,-27.0,-382.0,47.0,0
2668,10.0,-416.0,75.0,0
2669,50.0,-428.0,78.0,0
2670,87.0,-429.0,45.0,0
2671,98.0,-422.0,-11.0,0
2672,92.0,-426.0,-44.0,0
2673,59.0,-438.0,-72.0,0
2674,28.0,-458.0,-72.0,0
2675,11.0,-473.0,-62.0,0
2676,1.0,-475.0,-42.0,0
2677,-9.0,-462.0,-24.0,0
2678,-23.0,-433.0,-3.0,0
2679,-48.0,-396.0,6.0,0
2680,-75.0,-364.0,17.0,0
2681,-107.0,-326.0,33.0,0
2682,-117.0,-285.0,36.0,0
2683,-105.0,-262.0,27.0,0
2684,-79.0,-245.0,4.0,0
2685,-47.0,-236.0,-20.0,0
2686,-28.0,-227.0,-38.0,0
2687,-11.0,-229.0,-49.0,0
2688,-6.0,-223.0,-47.0,0
2689,-3.0,-229.0,-47.0,0
2690,0.0,-228.0,-33.0,0
2691,-1.0,-229.0,-24.0,0
2692,1.0,-223.0,-18.0,0
2693,6.0,-217.0,-18.0,0
2694,10.0,-213.0,-15.0,0
2695,17.0,-209.0,-23.0,0
2696,13.0,-211.0,-24.0,0
2697,9.0,-212.0,-37.0,0
2698,3.0,-211.0,-37.0,0
2699,-5.0,-214.0,-45.0,0
2700,-8.0,-226.0,-37.0,0
2701,-7.0,-241.0,-28.0,0
2702,-10.0,-252.0,-25.0,0
2703,-11.0,-260.0,-17.0,0
2704,-16.0,-265.0,-14.0,0
2705,-22.0,-267.0,-8.0,0
2706,-25.0,-263.0,-18.0,0
2707,-25.0,-257.0,-22.0,0
2708,-22.0,-253.0,-28.0,0
2709,-16.0,-251.0,-32.0,0
2710,-12.0,-248.0,-31.0,0
2711,-6.0,-247.0,-34.0,0
2712,-3.0,-243.0,-27.0,0
2713,0.0,-239.0,-22.0,0
2714,8.0,-239.0,-20.0,0
2715,8.0,-240.0,-20.0,0
2716,6.0,-239.0,-18.0,0
2717,9.0,-237.0,-18.0,0
2718,10.0,-239.0,-18.0,0
2719,11.0,-239.0,-22.0,0
2720,12.0,-247.0,-23.0,0
2721,13.0,-255.0,-19.0,0
2722,15.0,-260.0,-17.0,0
2723,13.0,-265.0,-17.0,0
2724,12.0,-271.0,-13.0,0
2725,11.0,-273.0,-14.0,0
2726,9.0,-275.0,-11.0,0
2727,4.0,-275.0,-18.0,0
2728,5.0,-276.0,-12.0,0
2729,-1.0,-276.0,-14.0,0
2730,-3.0,-281.0,-3.0,0
2731,-6.0,-281.0,0.0,0
2732,-3.0,-283.0,4.0,0
2733,-6.0,-281.0,6.0,0
2734,-9.0,-275.0,8.0,0
2735,-11.0,-271.0,4.0,0
2736,-7.0,-265.0,0.0,0
2737,-8.0,-265.0,10.0,0
2738,-10.0,-263.0,11.0,0
2739,-8.0,-267.0,15.0,0
2740,-10.0,-269.0,14.0,0
2741,-5.0,-276.0,13.0,0
2742,-4.0,-274.0,16.0,0
2743,-4.0,-275.0,14.0,0
2744,-3.0,-273.0,14.0,0
2745,-2.0,-274.0,11.0,0
2746,-2.0,-271.0,8.0,0
2747,-5.0,-270.0,10.0,0
2748,-1.0,-263.0,13.0,0
2749,0.0,-261.0,15.0,0
2750,0.0,-255.0,11.0,0
2751,5.0,-255.0,10.0,0
2752,7.0,-250.0,2.0,0
2753,10.0,-242.0,2.0,0
2754,12.0,-243.0,-3.0,0
2755,12.0,-243.0,0.0,0
2756,13.0,-244.0,2.0,0
2757,13.0,-244.0,-2.0,0
2758,13.0,-248.0,1.0,0
2759,11.0,-247.0,1.0,0
2760,6.0,-249.0,3.0,0
2761,4.0,-249.0,13.0,0
2762,3.0,-256.0,14.0,0
2763,4.0,-261.0,12.0,0
2764,0.0,-260.0,13.0,0
2765,2.0,-263.0,14.0,0
2766,-6.0,-264.0,16.0,0
2767,-8.0,-264.0,11.0,0
2768,-9.0,-269.0,13.0,0
2769,-9.0,-269.0,13.0,0
2770,-7.0,-270.0,9.0,0
2771,-2.0,-264.0,4.0,0
2772,2.0,-263.0,5.0,0
2773,5.0,-260.0,0.0,0
2774,2.0,-258.0,-6.0,0
2775,5.0,-260.0,-1.0,0
2776,8.0,-259.0,-4.0,0
2777,10.0,-265.0,0.0,0
2778,7.0,-271.0,-8.0,0
2779,3.0,-275.0,-12.0,0
2780,-7.0,-275.0,-18.0,0
2781,-13.0,-278.0,-27.0,0
2782,-30.0,-282.0,-35.0,0
2783,-46.0,-288.0,-41.0,0
2784,-64.0,-288.0,-41.0,0
2785,-75.0,-293.0,-40.0,0
2786,-82.0,-293.0,-34.0,0
2787,-88.0,-293.0,-33.0,0
2788,-96.0,-297.0,-26.0,0
2789,-104.0,-293.0,-18.0,0
2790,-108.0,-294.0,-11.0,0
2791,-108.0,-290.0,-6.0,0
2792,-100.0,-290.0,-3.0,0
2793,-91.0,-285.0,0.0,0
2794,-75.0,-282.0,-7.0,0
2795,-60.0,-281.0,-11.0,0
2796,-46.0,-273.0,-16.0,0
2797,-33.0,-267.0,-24.0,0
2798,-23.0,-261.0,-31.0,0
2799,-11.0,-254.0,-33.0,0
2800,-3.0,-245.0,-28.0,0
2801,4.0,-242.0,-30.0,0
2802,11.0,-237.0,-32.0,0
2803,17.0,-236.0,-29.0,0
2804,18.0,-234.0,-25.0,0
2805,21.0,-233.0,-25.0,0
2806,21.0,-234.0,-28.0,0
2807,23.0,-232.0,-27.0,0
2808,22.0,-236.0,-28.0,0
2809,18.0,-237.0,-22.0,0
2810,18.0,-236.0,-21.0,0
2811,17.0,-235.0,-24.0,0
2812,12.0,-240.0,-25.0,0
2813,11.0,-244.0,-20.0,0
2814,8.0,-246.0,-22.0,0
2815,10.0,-248.0,-27.0,0
2816,8.0,-246.0,-32.0,0
2817,13.0,-247.0,-42.0,0
2818,19.0,-249.0,-52.0,0
2819,23.0,-254.0,-62.0,0
2820,33.0,-262.0,-69.0,0
2821,35.0,-269.0,-74.0,0
2822,44.0,-279.0,-84.0,0
2823,44.0,-296.0,-84.0,0
2824,41.0,-309.0,-83.0,0
2825,39.0,-326.0,-84.0,0
2826,37.0,-335.0,-84.0,0
2827,29.0,-343.0,-73.0,0
2828,21.0,-346.0,-75.0,0
2829,6.0,-340.0,-74.0,0
2830,-6.0,-328.0,-73.0,0
2831,-19.0,-313.0,-68.0,0
2832,-32.0,-299.0,-64.0,0
2833,-46.0,-280.0,-61.0,0
2834,-55.0,-271.0,-52.0,0
2835,-61.0,-258.0,-45.0,0
2836,-72.0,-250.0,-43.0,0
2837,-75.0,-247.0,-43.0,0
2838,-75.0,-246.0,-36.0,0
2839,-72.0,-245.0,-31.0,0
2840,-66.0,-250.0,-28.0,0
2841,-62.0,-245.0,-22.0,0
2842,-52.0,-250.0,-21.0,0
2843,-45.0,-247.0,-16.0,0
2844,-37.0,-244.0,-13.0,0
2845,-30.0,-247.0,-13.0,0
2846,-28.0,-246.0,-13.0,0
2847,-21.0,-248.0,-8.0,0
2848,-16.0,-254.0,-6.0,0
2849,-12.0,-258.0,-3.0,0
2850,-10.0,-259.0,-12.0,0
2851,-5.0,-262.0,-10.0,0
2852,-1.0,-267.0,-12.0,0
2853,1.0,-269.0,-14.0,0
2854,5.0,-267.0,-14.0,0
2855,10.0,-267.0,-17.0,0
2856,10.0,-266.0,-21.0,0
2857,11.0,-265.0,-24.0,0
2858,5.0,-249.0,-40.0,0
2859,11.0,-272.0,-38.0,0
2860,7.0,-272.0,-42.0,0
2861,3.0,-274.0,-46.0,0
2862,-3.0,-274.0,-51.0,0
2863,-3.0,-273.0,-58.0,0
2864,-3.0,-276.0,-65.0,0
2865,-4.0,-276.0,-64.0,0
2866,-6.0,-279.0,-66.0,0
2867,-5.0,-282.0,-71.0,0
2868,-6.0,-288.0,-69.0,0
2869,-3.0,-288.0,-71.0,0
2870,-9.0,-292.0,-72.0,0
2871,-10.0,-291.0,-64.0,0
2872,-11.0,-293.0,-63.0,0
2873,-12.0,-294.0,-63.0,0
2874,-19.0,-289.0,-60.0,0
2875,-16.0,-288.0,-58.0,0
2876,-19.0,-284.0,-56.0,0
2877,-18.0,-280.0,-57.0,0
2878,-19.0,-279.0,-53.0,0
2879,-20.0,-273.0,-57.0,0
2880,-24.0,-272.0,-54.0,0
2881,-27.0,-268.0,-54.0,0
2882,-28.0,-268.0,-44.0,0
2883,-27.0,-265.0,-47.0,0
2884,-30.0,-266.0,-42.0,0
2885,-26.0,-267.0,-37.0,0
2886,-25.0,-268.0,-30.0,0
2887,-19.0,-272.0,-35.0,0
2888,-20.0,-268.0,-32.0,0
2889,-15.0,-270.0,-33.0,0
2890,-15.0,-272.0,-27.0,0
2891,-13.0,-269.0,-31.0,0
2892,-12.0,-270.0,-31.0,0
2893,-15.0,-266.0,-30.0,0
2894,-12.0,-267.0,-35.0,0
2895,-14.0,-266.0,-34.0,0
2896,-12.0,-270.0,-40.0,0
2897,-12.0,-271.0,-42.0,0
2898,-12.0,-272.0,-42.0,0
2899,-12.0,-273.0,-48.0,0
2900,-12.0,-275.0,-49.0,0
2901,-13.0,-272.0,-46.0,0
2902,-13.0,-272.0,-50.0,0
2903,-11.0,-271.0,-51.0,0
2904,-12.0,-273.0,-52.0,0
2905,-10.0,-274.0,-59.0,0
2906,-11.0,-275.0,-63.0,0
2907,-7.0,-277.0,-64.0,0
2908,-9.0,-282.0,-59.0,0
2909,-4.0,-283.0,-59.0,0
2910,-2.0,-286.0,-50.0,0
2911,1.0,-285.0,-53.0,0
2912,3.0,-279.0,-52.0,0
2913,1.0,-277.0,-51.0,0
2914,7.0,-276.0,-53.0,0
2915,8.0,-271.0,-52.0,0
2916,10.0,-270.0,-50.0,0
2917,12.0,-268.0,-47.0,0
2918,10.0,-270.0,-44.0,0
2919,12.0,-268.0,-43.0,0
2920,12.0,-267.0,-45.0,0
2921,8.0,-268.0,-46.0,0
2922,9.0,-269.0,-45.0,0
2923,10.0,-275.0,-40.0,0
2924,3.0,-273.0,-40.0,0
2925,-1.0,-275.0,-37.0,0
2926,-4.0,-274.0,-35.0,0
2927,-3.0,-274.0,-35.0,0
2928,-7.0,-277.0,-36.0,0
2929,-1.0,-277.0,-37.0,0
2930,-2.0,-276.0,-39.0,0
2931,1.0,-277.0,-40.0,0
2932,-2.0,-275.0,-39.0,0
2933,-3.0,-273.0,-34.0,0
2934,-4.0,-271.0,-39.0,0
2935,-5.0,-266.0,-38.0,0
2936,-7.0,-264.0,-37.0,0
2937,-5.0,-263.0,-39.0,0
2938,-6.0,-262.0,-40.0,0
2939,-6.0,-264.0,-38.0,0
2940,-7.0,-263.0,-39.0,0
2941,-8.0,-264.0,-38.0,0
2942,-8.0,-261.0,-39.0,0
2943,-11.0,-261.0,-36.0,0
2944,-8.0,-260.0,-37.0,0
2945,-12.0,-261.0,-36.0,0
2946,-11.0,-262.0,-36.0,0
2947,-10.0,-264.0,-36.0,0
2948,-12.0,-269.0,-30.0,0
2949,-11.0,-267.0,-33.0,0
2950,-8.0,-271.0,-33.0,0
2951,-7.0,-275.0,-31.0,0
2952,-6.0,-276.0,-30.0,0
2953,-5.0,-275.0,-32.0,0
2954,-3.0,-274.0,-30.0,0
2955,-3.0,-275.0,-30.0,0
2956,-4.0,-270.0,-32.0,0
2957,0.0,-271.0,-34.0,0
2958,0.0,-267.0,-32.0,0
2959,-2.0,-265.0,-32.0,0
2960,-5.0,-262.0,-30.0,0
2961,-4.0,-266.0,-29.0,0
2962,-5.0,-263.0,-30.0,0
2963,-5.0,-267.0,-31.0,0
2964,-7.0,-266.0,-31.0,0
2965,-7.0,-265.0,-31.0,0
2966,-10.0,-267.0,-29.0,0
2967,-9.0,-270.0,-30.0,0
2968,-8.0,-269.0,-34.0,0
2969,-10.0,-272.0,-34.0,0
2970,-11.0,-275.0,-28.0,0
2971,-12.0,-275.0,-33.0,0
2972,-11.0,-277.0,-37.0,0
2973,-11.0,-278.0,-36.0,0
2974,-12.0,-276.0,-37.0,0
2975,-12.0,-278.0,-35.0,0
2976,-13.0,-278.0,-37.0,0
2977,-14.0,-282.0,-34.0,0
2978,-11.0,-279.0,-35.0,0
2979,-12.0,-279.0,-34.0,0
2980,-10.0,-278.0,-29.0,0
2981,-12.0,-277.0,-29.0,0
2982,-12.0,-277.0,-27.0,0
2983,-11.0,-277.0,-29.0,0
2984,-16.0,-275.0,-27.0,0
2985,-12.0,-272.0,-25.0,0
2986,-13.0,-271.0,-29.0,0
2987,-12.0,-271.0,-25.0,0
2988,-12.0,-271.0,-25.0,0
2989,-13.0,-267.0,-27.0,0
2990,-13.0,-265.0,-26.0,0
2991,-14.0,-268.0,-25.0,0
2992,-14.0,-264.0,-22.0,0
2993,-16.0,-262.0,-21.0,0
2994,-16.0,-262.0,-21.0,0
2995,-13.0,-263.0,-28.0,0
2996,-13.0,-263.0,-31.0,0
2997,-15.0,-263.0,-30.0,0
2998,-14.0,-264.0,-39.0,0
2999,-13.0,-267.0,-34.0,0
3000,-12.0,-271.0,-26.0,0
3001,-12.0,-271.0,-22.0,0
3002,-12.0,-275.0,-21.0,0
3003,-12.0,-272.0,-22.0,0
3004,-11.0,-270.0,-23.0,0
3005,-10.0,-272.0,-20.0,0
3006,-11.0,-270.0,-20.0,0
3007,-10.0,-271.0,-25.0,0
3008,-11.0,-270.0,-21.0,0
3009,-11.0,-269.0,-20.0,0
3010,-9.0,-273.0,-23.0,0
3011,-10.0,-275.0,-21.0,0
3012,-11.0,-274.0,-21.0,0
3013,-9.0,-272.0,-24.0,0
3014,-8.0,-272.0,-19.0,0
3015,-7.0,-272.0,-20.0,0
3016,-6.0,-272.0,-22.0,0
3017,-7.0,-271.0,-20.0,0
3018,-7.0,-271.0,-23.0,0
3019,-4.0,-271.0,-24.0,0
3020,-5.0,-268.0,-22.0,0
3021,-4.0,-268.0,-22.0,0
3022,-8.0,-267.0,-22.0,0
3023,-7.0,-267.0,-19.0,0
3024,-7.0,-268.0,-19.0,0
3025,-7.0,-268.0,-18.0,0
3026,-7.0,-269.0,-15.0,0
3027,-7.0,-271.0,-19.0,0
3028,-7.0,-270.0,-19.0,0
3029,-6.0,-273.0,-14.0,0
3030,-7.0,-272.0,-20.0,0
3031,-6.0,-273.0,-14.0,0
3032,-5.0,-271.0,-13.0,0
3033,-8.0,-270.0,-14.0,0
3034,-7.0,-270.0,-11.0,0
3035,-10.0,-268.0,-9.0,0
3036,-8.0,-270.0,-12.0,0
3037,-10.0,-270.0,-14.0,0
3038,-7.0,-268.0,-11.0,0
3039,-6.0,-269.0,-14.0,0
3040,-12.0,-268.0,-13.0,0
3041,-9.0,-267.0,-15.0,0
3042,-9.0,-267.0,-10.0,0
3043,-12.0,-265.0,-8.0,0
3044,-10.0,-270.0,-14.0,0
3045,-7.0,-269.0,-15.0,0
3046,-9.0,-273.0,-11.0,0
3047,-11.0,-271.0,-11.0,0
3048,-9.0,-273.0,-6.0,0
3049,-9.0,-275.0,-8.0,0
3050,-12.0,-275.0,-8.0,0
3051,-8.0,-275.0,-6.0,0
3052,-12.0,-275.0,-9.0,0
3053,-8.0,-272.0,-9.0,0
3054,-10.0,-269.0,-7.0,0
3055,-9.0,-270.0,-7.0,0
3056,-11.0,-270.0,-11.0,0
3057,-5.0,-269.0,-7.0,0
3058,-9.0,-268.0,-8.0,0
3059,-9.0,-272.0,-9.0,0
3060,-7.0,-273.0,-4.0,0
3061,-8.0,-274.0,-1.0,0
3062,-9.0,-272.0,-1.0,0
3063,-7.0,-273.0,-2.0,0
3064,-8.0,-275.0,-1.0,0
3065,-5.0,-274.0,-4.0,0
3066,-5.0,-273.0,-1.0,0
3067,2.0,-271.0,0.0,0
3068,3.0,-269.0,-3.0,0
3069,-4.0,-269.0,-1.0,0
3070,-8.0,-273.0,0.0,0
3071,1.0,-268.0,5.0,0
3072,2.0,-271.0,-2.0,0
3073,-5.0,-275.0,3.0,0
3074,3.0,-267.0,8.0,0
3075,1.0,-261.0,-2.0,0
3076,-8.0,-266.0,0.0,0
3077,-15.0,-273.0,-9.0,0
3078,-14.0,-274.0,10.0,0
3079,7.0,-268.0,3.0,0
3080,12.0,-268.0,-8.0,0
3081,1.0,-273.0,-11.0,0
3082,-5.0,-271.0,-1.0,0
3083,-6.0,-270.0,5.0,0
3084,2.0,-271.0,-2.0,0
3085,2.0,-272.0,-6.0,0
3086,-12.0,-274.0,-9.0,0
3087,-13.0,-272.0,6.0,0
3088,-7.0,-274.0,4.0,0
3089,11.0,-276.0,-19.0,0
3090,-6.0,-274.0,-15.0,0
3091,-11.0,-273.0,-8.0,0
3092,-20.0,-275.0,3.0,0
3093,-11.0,-270.0,8.0,0
3094,-2.0,-270.0,-1.0,0
3095,1.0,-266.0,-7.0,0
3096,-2.0,-264.0,-7.0,0
3097,-7.0,-262.0,-1.0,0
3098,-11.0,-268.0,1.0,0
3099,-10.0,-266.0,-5.0,0
3100,-10.0,-267.0,1.0,0
3101,-10.0,-269.0,2.0,0
3102,-7.0,-271.0,3.0,0
3103,-10.0,-272.0,3.0,0
3104,-8.0,-271.0,0.0,0
3105,-11.0,-266.0,0.0,0
3106,-4.0,-264.0,3.0,0
3107,-7.0,-268.0,3.0,0
3108,-5.0,-266.0,6.0,0
3109,-6.0,-267.0,2.0,0
3110,-6.0,-265.0,3.0,0
3111,-10.0,-265.0,0.0,0
3112,-11.0,-265.0,0.0,0
3113,-8.0,-269.0,0.0,0
3114,-10.0,-269.0,5.0,0
3115,-8.0,-269.0,8.0,0
3116,-12.0,-271.0,3.0,0
3117,-7.0,-272.0,1.0,0
3118,-10.0,-272.0,4.0,0
3119,-8.0,-271.0,0.0,0
3120,-9.0,-270.0,3.0,0
3121,-9.0,-271.0,1.0,0
3122,-8.0,-265.0,6.0,0
3123,-8.0,-266.0,4.0,0
3124,-8.0,-265.0,1.0,0
3125,-9.0,-267.0,4.0,0
3126,-8.0,-267.0,4.0,0
3127,-10.0,-266.0,2.0,0
3128,-4.0,-268.0,2.0,0
3129,-7.0,-268.0,6.0,0
3130,-8.0,-272.0,1.0,0
3131,-11.0,-268.0,0.0,0
3132,-5.0,-276.0,11.0,0
3133,-5.0,-264.0,6.0,0
3134,4.0,-268.0,-5.0,0
3135,2.0,-268.0,0.0,0
3136,-10.0,-270.0,1.0,0
3137,-8.0,-272.0,5.0,0
3138,-6.0,-271.0,7.0,0
3139,-4.0,-266.0,2.0,0
3140,1.0,-259.0,-4.0,0
3141,2.0,-264.0,-4.0,0
3142,-5.0,-267.0,-7.0,0
3143,-5.0,-271.0,-6.0,0
3144,-2.0,-273.0,0.0,0
3145,-10.0,-275.0,7.0,0
3146,-14.0,-277.0,8.0,0
3147,-11.0,-274.0,1.0,0
3148,-13.0,-260.0,1.0,0
3149,-14.0,-264.0,-5.0,0
3150,0.0,-265.0,-2.0,0
3151,-11.0,-272.0,-1.0,0
3152,-13.0,-274.0,-3.0,0
3153,-13.0,-274.0,-3.0,0
3154,-3.0,-277.0,-1.0,0
3155,-2.0,-267.0,2.0,0
3156,-8.0,-263.0,1.0,0
3157,-15.0,-267.0,-6.0,0
3158,-11.0,-266.0,-2.0,0
3159,-6.0,-267.0,-5.0,0
3160,-11.0,-267.0,-1.0,0
3161,-8.0,-272.0,-1.0,0
3162,-7.0,-270.0,0.0,0
3163,-6.0,-273.0,1.0,0
3164,-7.0,-269.0,-6.0,0
3165,-11.0,-269.0,-1.0,0
3166,-10.0,-267.0,-7.0,0
3167,-8.0,-268.0,-2.0,0
3168,-12.0,-267.0,-3.0,0
3169,-15.0,-271.0,-2.0,0
3170,-12.0,-269.0,0.0,0
3171,-13.0,-274.0,-6.0,0
3172,-8.0,-280.0,1.0,0
3173,-14.0,-278.0,2.0,0
3174,-7.0,-272.0,-3.0,0
3175,-10.0,-275.0,-5.0,0
3176,-16.0,-264.0,-12.0,0
3177,-11.0,-277.0,-9.0,0
3178,-5.0,-272.0,-14.0,0
3179,-9.0,-264.0,-1.0,0
3180,-6.0,-274.0,-6.0,0
3181,-10.0,-273.0,-8.0,0
3182,-13.0,-275.0,-9.0,0
3183,-6.0,-278.0,-6.0,0
3184,-8.0,-276.0,-7.0,0
3185,-9.0,-276.0,-5.0,0
3186,-8.0,-274.0,-1.0,0
3187,-11.0,-271.0,-1.0,0
3188,-10.0,-270.0,-1.0,0
3189,-9.0,-266.0,-4.0,0
3190,-11.0,-264.0,0.0,0
3191,-10.0,-266.0,-11.0,0
3192,-7.0,-264.0,-6.0,0
3193,-11.0,-269.0,-8.0,0
3194,-6.0,-271.0,-6.0,0
3195,-10.0,-273.0,-6.0,0
3196,-7.0,-274.0,-6.0,0
3197,-9.0,-272.0,0.0,0
3198,-6.0,-271.0,1.0,0
3199,-8.0,-271.0,-5.0,0
3200,-7.0,-271.0,-9.0,0
3201,-8.0,-266.0,-13.0,0
3202,-5.0,-271.0,-8.0,0
3203,-7.0,-273.0,-10.0,0
3204,-8.0,-272.0,-5.0,0
3205,-7.0,-271.0,-11.0,0
3206,-6.0,-273.0,-7.0,0
3207,-3.0,-271.0,-7.0,0
3208,-8.0,-273.0,-12.0,0
3209,-4.0,-273.0,-9.0,0
3210,-6.0,-270.0,-16.0,0
3211,-7.0,-273.0,-10.0,0
3212,-5.0,-273.0,-12.0,0
3213,-2.0,-272.0,-10.0,0
3214,-3.0,-269.0,-12.0,0
3215,-3.0,-272.0,-11.0,0
3216,-5.0,-273.0,-13.0,0
3217,-4.0,-275.0,-10.0,0
3218,-8.0,-271.0,-9.0,0
3219,-2.0,-272.0,-9.0,0
3220,-2.0,-270.0,-11.0,0
3221,-1.0,-271.0,-11.0,0
3222,-1.0,-274.0,-12.0,0
3223,-5.0,-275.0,-7.0,0
3224,-2.0,-274.0,-11.0,0
3225,-3.0,-269.0,-13.0,0
3226,-1.0,-271.0,-10.0,0
3227,0.0,-270.0,-14.0,0
3228,2.0,-272.0,-11.0,0
3229,-3.0,-273.0,-11.0,0
3230,0.0,-274.0,-14.0,0
3231,2.0,-268.0,-14.0,0
3232,3.0,-271.0,-18.0,0
3233,5.0,-271.0,-11.0,0
3234,5.0,-270.0,-14.0,0
3235,4.0,-270.0,-18.0,0
3236,3.0,-274.0,-17.0,0
3237,6.0,-272.0,-11.0,0
3238,7.0,-266.0,-13.0,0
3239,4.0,-265.0,-25.0,0
3240,4.0,-267.0,-21.0,0
3241,2.0,-264.0,-17.0,0
3242,0.0,-266.0,-13.0,0
3243,0.0,-269.0,-17.0,0
3244,-2.0,-268.0,-15.0,0
3245,2.0,-274.0,-19.0,0
3246,1.0,-275.0,-19.0,0
3247,-1.0,-271.0,-16.0,0
3248,2.0,-274.0,-16.0,0
3249,0.0,-273.0,-17.0,0
3250,-1.0,-271.0,-18.0,0
3251,-1.0,-269.0,-18.0,0
3252,4.0,-268.0,-20.0,0
3253,-1.0,-268.0,-20.0,0
3254,2.0,-269.0,-19.0,0
3255,-1.0,-268.0,-18.0,0
3256,-4.0,-273.0,-19.0,0
3257,-4.0,-276.0,-20.0,0
3258,0.0,-276.0,-17.0,0
3259,-5.0,-274.0,-20.0,0
3260,-8.0,-275.0,-24.0,0
3261,-4.0,-273.0,-25.0,0
3262,-2.0,-271.0,-23.0,0
3263,-4.0,-271.0,-26.0,0
3264,-7.0,-268.0,-25.0,0
3265,-5.0,-268.0,-22.0,0
3266,-4.0,-269.0,-28.0,0
3267,-7.0,-269.0,-23.0,0
3268,-7.0,-270.0,-20.0,0
3269,-9.0,-272.0,-16.0,0
3270,-7.0,-271.0,-12.0,0
3271,-8.0,-268.0,-15.0,0
3272,-10.0,-269.0,-13.0,0
3273,-7.0,-266.0,-15.0,0
3274,-9.0,-269.0,-18.0,0
3275,-11.0,-269.0,-18.0,0
3276,-10.0,-267.0,-16.0,0
3277,-10.0,-273.0,-17.0,0
3278,-12.0,-268.0,-19.0,0
3279,-12.0,-269.0,-20.0,0
3280,-12.0,-266.0,-20.0,0
3281,-13.0,-267.0,-20.0,0
3282,-13.0,-267.0,-23.0,0
3283,-18.0,-266.0,-21.0,0
3284,-14.0,-267.0,-18.0,0
3285,-14.0,-269.0,-26.0,0
3286,-12.0,-269.0,-20.0,0
3287,-12.0,-268.0,-26.0,0
3288,-12.0,-270.0,-27.0,0
3289,-13.0,-271.0,-21.0,0
3290,-8.0,-273.0,-21.0,0
3291,-29.0,-266.0,-19.0,0
3292,-9.0,-272.0,-27.0,0
3293,-10.0,-268.0,-17.0,0
3294,-12.0,-274.0,-25.0,0
3295,-12.0,-275.0,-27.0,0
3296,-12.0,-272.0,-16.0,0
3297,-12.0,-271.0,-24.0,0
3298,-14.0,-271.0,-21.0,0
3299,-14.0,-268.0,-26.0,0
3300,-18.0,-272.0,-26.0,0
3301,-22.0,-268.0,-26.0,0
3302,-24.0,-269.0,-21.0,0
3303,-23.0,-267.0,-17.0,0
3304,-21.0,-265.0,-16.0,0
3305,-21.0,-267.0,-22.0,0
3306,-14.0,-269.0,-18.0,0
3307,-16.0,-270.0,-25.0,0
3308,-13.0,-272.0,-15.0,0
3309,-12.0,-272.0,-20.0,0
3310,-12.0,-274.0,-24.0,0
3311,-9.0,-274.0,-28.0,0
3312,-10.0,-272.0,-28.0,0
3313,-9.0,-276.0,-30.0,0
3314,-11.0,-275.0,-28.0,0
3315,-11.0,-276.0,-31.0,0
3316,-12.0,-276.0,-32.0,0
3317,-11.0,-276.0,-31.0,0
3318,-7.0,-276.0,-26.0,0
3319,-10.0,-275.0,-29.0,0
3320,-7.0,-274.0,-31.0,0
3321,-10.0,-275.0,-29.0,0
3322,-9.0,-275.0,-30.0,0
3323,-12.0,-275.0,-30.0,0
3324,-10.0,-274.0,-31.0,0
3325,-10.0,-276.0,-29.0,0
3326,-9.0,-274.0,-32.0,0
3327,-12.0,-274.0,-32.0,0
3328,-14.0,-272.0,-32.0,0
3329,-12.0,-273.0,-33.0,0
3330,-12.0,-273.0,-36.0,0
3331,-12.0,-272.0,-29.0,0
3332,-11.0,-273.0,-32.0,0
3333,-14.0,-272.0,-31.0,0
3334,-12.0,-274.0,-29.0,0
3335,-12.0,-271.0,-33.0,0
3336,-12.0,-274.0,-33.0,0
3337,-16.0,-275.0,-24.0,0
3338,-23.0,-269.0,-26.0,0
3339,-13.0,-272.0,-25.0,0
3340,-12.0,-271.0,-33.0,0
3341,-13.0,-266.0,-35.0,0
3342,-18.0,-265.0,-31.0,0
3343,-17.0,-266.0,-31.0,0
3344,-19.0,-265.0,-33.0,0
3345,-16.0,-268.0,-33.0,0
3346,-16.0,-265.0,-28.0,0
3347,-19.0,-266.0,-34.0,0
3348,-19.0,-268.0,-33.0,0
3349,-15.0,-269.0,-31.0,0
3350,-12.0,-268.0,-31.0,0
3351,-15.0,-267.0,-35.0,0
3352,-16.0,-265.0,-30.0,0
3353,-12.0,-269.0,-34.0,0
3354,-14.0,-266.0,-40.0,0
3355,-12.0,-263.0,-40.0,0
3356,-11.0,-266.0,-39.0,0
3357,-12.0,-269.0,-35.0,0
3358,-12.0,-272.0,-35.0,0
3359,-11.0,-271.0,-29.0,0
3360,-12.0,-271.0,-31.0,0
3361,-12.0,-273.0,-26.0,0
3362,-12.0,-269.0,-32.0,0
3363,-12.0,-269.0,-35.0,0
3364,-9.0,-269.0,-35.0,0
3365,-11.0,-270.0,-34.0,0
3366,-11.0,-272.0,-34.0,0
3367,-12.0,-272.0,-34.0,0
3368,-10.0,-273.0,-38.0,0
3369,-10.0,-273.0,-37.0,0
3370,-11.0,-273.0,-39.0,0
3371,-12.0,-273.0,-38.0,0
3372,-11.0,-273.0,-38.0,0
3373,-10.0,-275.0,-42.0,0
3374,-11.0,-274.0,-42.0,0
3375,-12.0,-275.0,-38.0,0
3376,-22.0,-271.0,-37.0,0
3377,-15.0,-272.0,-35.0,0
3378,-14.0,-274.0,-37.0,0
3379,-25.0,-272.0,-30.0,0
3380,-33.0,-267.0,-32.0,0
3381,-29.0,-269.0,-32.0,0
3382,-22.0,-268.0,-29.0,0
3383,-11.0,-270.0,-24.0,0
3384,-7.0,-270.0,-21.0,0
3385,-11.0,-270.0,-19.0,0
3386,-12.0,-265.0,-21.0,0
3387,-7.0,-264.0,-22.0,0
3388,-3.0,-269.0,-23.0,0
3389,-5.0,-269.0,-26.0,0
3390,-3.0,-272.0,-27.0,0
3391,-5.0,-273.0,-30.0,0
3392,-5.0,-278.0,-33.0,0
3393,0.0,-278.0,-31.0,0
3394,0.0,-277.0,-36.0,0
3395,-5.0,-274.0,-39.0,0
3396,-6.0,-274.0,-35.0,0
3397,-9.0,-272.0,-35.0,0
3398,-9.0,-270.0,-37.0,0
3399,-8.0,-269.0,-39.0,0
3400,-6.0,-269.0,-42.0,0
3401,-8.0,-264.0,-43.0,0
3402,-4.0,-270.0,-42.0,0
3403,-3.0,-268.0,-42.0,0
3404,-6.0,-268.0,-45.0,0
3405,-6.0,-272.0,-43.0,0
3406,-4.0,-273.0,-42.0,0
3407,-4.0,-275.0,-47.0,0
3408,-7.0,-273.0,-46.0,0
3409,-7.0,-270.0,-41.0,0
3410,-6.0,-268.0,-45.0,0
3411,3.0,-270.0,-37.0,0
3412,6.0,-262.0,-36.0,0
3413,-1.0,-264.0,-36.0,0
3414,-13.0,-260.0,-36.0,0
3415,-31.0,-260.0,-29.0,0
3416,-35.0,-266.0,-30.0,0
3417,-37.0,-272.0,-26.0,0
3418,-37.0,-276.0,-25.0,0
3419,-34.0,-279.0,-22.0,0
3420,-36.0,-282.0,-25.0,0
3421,-30.0,-285.0,-29.0,0
3422,-23.0,-287.0,-26.0,0
3423,-12.0,-285.0,-20.0,0
3424,-12.0,-275.0,-25.0,0
3425,-10.0,-266.0,-34.0,0
3426,-8.0,-257.0,-45.0,0
3427,-6.0,-253.0,-42.0,0
3428,-6.0,-256.0,-47.0,0
3429,-10.0,-257.0,-44.0,0
3430,-12.0,-264.0,-44.0,0
3431,-16.0,-271.0,-43.0,0
3432,-17.0,-271.0,-43.0,0
3433,-16.0,-273.0,-42.0,0
3434,-17.0,-273.0,-39.0,0
3435,-13.0,-272.0,-42.0,0
3436,-15.0,-273.0,-38.0,0
3437,-16.0,-275.0,-36.0,0
3438,-15.0,-276.0,-31.0,0
3439,-15.0,-277.0,-36.0,0
3440,-13.0,-276.0,-34.0,0
3441,-16.0,-275.0,-37.0,0
3442,-17.0,-272.0,-35.0,0
3443,-12.0,-271.0,-38.0,0
3444,-11.0,-268.0,-41.0,0
3445,-10.0,-268.0,-42.0,0
3446,-9.0,-264.0,-43.0,0
3447,-10.0,-262.0,-44.0,0
3448,-9.0,-267.0,-45.0,0
3449,-8.0,-272.0,-41.0,0
3450,-9.0,-274.0,-37.0,0
3451,-12.0,-272.0,-35.0,0
3452,-12.0,-269.0,-39.0,0
3453,-11.0,-268.0,-40.0,0
3454,-11.0,-268.0,-39.0,0
3455,-11.0,-270.0,-38.0,0
3456,-10.0,-271.0,-42.0,0
3457,-12.0,-269.0,-38.0,0
3458,-12.0,-270.0,-39.0,0
3459,-13.0,-271.0,-37.0,0
3460,-12.0,-272.0,-38.0,0
3461,-8.0,-271.0,-37.0,0
3462,-9.0,-272.0,-43.0,0
3463,-8.0,-273.0,-39.0,0
3464,-11.0,-273.0,-35.0,0
3465,-6.0,-275.0,-40.0,0
3466,-5.0,-275.0,-36.0,0
3467,-3.0,-275.0,-40.0,0
3468,-9.0,-273.0,-41.0,0
3469,-4.0,-273.0,-40.0,0
3470,-4.0,-271.0,-39.0,0
3471,-4.0,-270.0,-39.0,0
3472,-5.0,-268.0,-35.0,0
3473,-3.0,-269.0,-35.0,0
3474,-3.0,-270.0,-38.0,0
3475,-8.0,-269.0,-35.0,0
3476,-10.0,-273.0,-34.0,0
3477,-9.0,-272.0,-38.0,0
3478,-10.0,-273.0,-33.0,0
3479,-12.0,-272.0,-35.0,0
3480,-12.0,-273.0,-39.0,0
3481,-12.0,-271.0,-36.0,0
3482,-12.0,-275.0,-39.0,0
3483,-14.0,-271.0,-37.0,0
3484,-12.0,-271.0,-39.0,0
3485,-12.0,-271.0,-42.0,0
3486,-11.0,-270.0,-38.0,0
3487,-12.0,-268.0,-41.0,0
3488,-11.0,-269.0,-39.0,0
3489,-10.0,-271.0,-40.0,0
3490,-8.0,-270.0,-39.0,0
3491,-11.0,-271.0,-42.0,0
3492,-11.0,-271.0,-46.0,0
3493,-8.0,-269.0,-41.0,0
3494,-8.0,-271.0,-41.0,0
3495,-6.0,-272.0,-42.0,0
3496,-4.0,-273.0,-45.0,0
3497,-8.0,-273.0,-42.0,0
3498,-8.0,-273.0,-40.0,0
3499,-9.0,-273.0,-41.0,0
3500,-6.0,-274.0,-36.0,0
3501,-9.0,-271.0,-40.0,0
3502,-9.0,-271.0,-41.0,0
3503,-9.0,-271.0,-40.0,0
3504,-10.0,-271.0,-37.0,0
3505,-11.0,-272.0,-35.0,0
3506,-12.0,-273.0,-37.0,0
3507,-12.0,-269.0,-34.0,0
3508,-13.0,-271.0,-38.0,0
3509,-13.0,-271.0,-40.0,0
3510,-13.0,-268.0,-35.0,0
3511,-12.0,-269.0,-37.0,0
3512,-12.0,-267.0,-35.0,0
3513,-11.0,-271.0,-35.0,0
3514,-11.0,-269.0,-36.0,0
3515,-12.0,-269.0,-36.0,0
3516,-11.0,-274.0,-36.0,0
3517,-10.0,-274.0,-33.0,0
3518,-11.0,-271.0,-35.0,0
3519,-10.0,-272.0,-31.0,0
3520,-9.0,-272.0,-33.0,0
3521,-11.0,-271.0,-35.0,0
3522,-8.0,-272.0,-32.0,0
3523,-11.0,-274.0,-38.0,0
3524,-10.0,-272.0,-33.0,0
3525,-10.0,-269.0,-32.0,0
3526,-11.0,-268.0,-31.0,0
3527,-12.0,-270.0,-29.0,0
3528,-11.0,-269.0,-33.0,0
3529,-9.0,-270.0,-33.0,0
3530,-10.0,-271.0,-33.0,0
3531,-12.0,-271.0,-35.0,0
3532,-10.0,-266.0,-27.0,0
3533,-10.0,-270.0,-26.0,0
3534,-11.0,-271.0,-31.0,0
3535,-8.0,-271.0,-34.0,0
3536,-12.0,-269.0,-34.0,0
3537,-11.0,-269.0,-35.0,0
3538,-8.0,-269.0,-35.0,0
3539,-8.0,-270.0,-34.0,0
3540,-9.0,-274.0,-33.0,0
3541,-7.0,-275.0,-29.0,0
3542,-9.0,-273.0,-32.0,0
3543,-9.0,-273.0,-34.0,0
3544,-10.0,-268.0,-36.0,0
3545,-10.0,-270.0,-36.0,0
3546,-8.0,-272.0,-31.0,0
3547,-12.0,-268.0,-30.0,0
3548,-11.0,-269.0,-30.0,0
3549,-11.0,-271.0,-31.0,0
3550,-11.0,-268.0,-28.0,0
3551,-11.0,-269.0,-25.0,0
3552,-11.0,-271.0,-27.0,0
3553,-12.0,-269.0,-29.0,0
3554,-10.0,-269.0,-29.0,0
3555,-12.0,-268.0,-27.0,0
3556,-10.0,-269.0,-29.0,0
3557,-11.0,-271.0,-32.0,0
3558,-8.0,-272.0,-28.0,0
3559,-10.0,-269.0,-30.0,0
3560,-8.0,-271.0,-29.0,0
3561,-9.0,-274.0,-31.0,0
3562,-10.0,-268.0,-27.0,0
3563,-11.0,-270.0,-32.0,0
3564,-9.0,-273.0,-33.0,0
3565,-10.0,-271.0,-31.0,0
3566,-12.0,-274.0,-32.0,0
3567,-10.0,-274.0,-33.0,0
3568,-8.0,-272.0,-31.0,0
3569,-9.0,-273.0,-29.0,0
3570,-9.0,-270.0,-27.0,0
3571,-8.0,-273.0,-27.0,0
3572,-10.0,-268.0,-29.0,0
3573,-11.0,-275.0,-28.0,0
3574,-12.0,-271.0,-36.0,0
3575,-11.0,-272.0,-32.0,0
3576,-11.0,-273.0,-31.0,0
3577,-9.0,-274.0,-32.0,0
3578,-11.0,-272.0,-28.0,0
3579,-9.0,-271.0,-28.0,0
3580,-10.0,-271.0,-28.0,0
3581,-11.0,-269.0,-26.0,0
3582,-9.0,-268.0,-31.0,0
3583,-9.0,-270.0,-30.0,0
3584,-9.0,-272.0,-31.0,0
3585,-8.0,-270.0,-28.0,0
3586,-10.0,-275.0,-30.0,0
3587,-10.0,-275.0,-31.0,0
3588,-11.0,-274.0,-31.0,0
3589,-10.0,-272.0,-29.0,0
3590,-11.0,-272.0,-27.0,0
3591,-10.0,-273.0,-28.0,0
3592,-11.0,-271.0,-31.0,0
3593,-11.0,-270.0,-32.0,0
3594,-10.0,-270.0,-29.0,0
3595,-10.0,-268.0,-26.0,0
3596,-9.0,-271.0,-37.0,0
3597,-12.0,-270.0,-34.0,0
3598,-11.0,-271.0,-29.0,0
3599,-12.0,-271.0,-28.0,0
3600,-10.0,-271.0,-32.0,0
3601,-11.0,-270.0,-27.0,0
3602,-6.0,-271.0,-30.0,0
3603,-8.0,-271.0,-29.0,0
3604,-11.0,-269.0,-31.0,0
3605,-10.0,-270.0,-28.0,0
3606,-10.0,-268.0,-31.0,0
3607,-11.0,-272.0,-27.0,0
3608,-11.0,-271.0,-28.0,0
3609,-11.0,-273.0,-26.0,0
3610,-12.0,-271.0,-25.0,0
3611,-12.0,-269.0,-22.0,0
3612,-12.0,-272.0,-27.0,0
3613,-11.0,-269.0,-28.0,0
3614,-11.0,-268.0,-29.0,0
3615,-9.0,-269.0,-29.0,0
3616,-11.0,-271.0,-23.0,0
3617,-11.0,-270.0,-26.0,0
3618,-10.0,-271.0,-25.0,0
3619,-9.0,-271.0,-27.0,0
3620,-12.0,-272.0,-24.0,0
3621,-11.0,-270.0,-28.0,0
3622,-10.0,-271.0,-29.0,0
3623,-11.0,-272.0,-25.0,0
3624,-11.0,-270.0,-25.0,0
3625,-11.0,-272.0,-33.0,0
3626,-10.0,-267.0,-28.0,0
3627,-10.0,-271.0,-32.0,0
3628,-8.0,-270.0,-32.0,0
3629,-9.0,-271.0,-33.0,0
3630,-8.0,-273.0,-22.0,0
3631,-9.0,-271.0,-25.0,0
3632,-11.0,-273.0,-28.0,0
3633,-10.0,-268.0,-30.0,0
3634,-10.0,-270.0,-30.0,0
3635,-9.0,-269.0,-32.0,0
3636,-9.0,-271.0,-28.0,0
3637,-9.0,-272.0,-24.0,0
3638,-11.0,-271.0,-22.0,0
3639,-12.0,-273.0,-22.0,0
3640,-11.0,-269.0,-25.0,0
3641,-11.0,-271.0,-27.0,0
3642,-11.0,-272.0,-24.0,0
3643,-12.0,-270.0,-21.0,0
3644,-10.0,-272.0,-24.0,0
3645,-11.0,-267.0,-26.0,0
3646,-11.0,-269.0,-24.0,0
3647,-10.0,-270.0,-29.0,0
3648,-12.0,-269.0,-28.0,0
3649,-12.0,-272.0,-27.0,0
3650,-11.0,-272.0,-25.0,0
3651,-10.0,-271.0,-25.0,0
3652,-11.0,-270.0,-24.0,0
3653,-11.0,-270.0,-26.0,0
3654,-12.0,-269.0,-29.0,0
3655,-12.0,-271.0,-24.0,0
3656,-11.0,-273.0,-24.0,0
3657,-11.0,-270.0,-27.0,0
3658,-11.0,-272.0,-22.0,0
3659,-11.0,-271.0,-25.0,0
3660,-12.0,-269.0,-25.0,0
3661,-12.0,-271.0,-26.0,0
3662,-10.0,-269.0,-24.0,0
3663,-12.0,-269.0,-24.0,0
3664,-12.0,-270.0,-28.0,0
3665,-12.0,-271.0,-28.0,0
3666,-11.0,-273.0,-24.0,0
3667,-10.0,-270.0,-26.0,0
3668,-13.0,-270.0,-31.0,0
3669,-10.0,-273.0,-28.0,0
3670,-12.0,-272.0,-27.0,0
3671,-12.0,-270.0,-28.0,0
3672,-12.0,-271.0,-24.0,0
3673,-11.0,-268.0,-29.0,0
3674,-10.0,-271.0,-27.0,0
3675,-11.0,-272.0,-26.0,0
3676,-11.0,-271.0,-24.0,0
3677,-11.0,-271.0,-23.0,0
3678,-12.0,-272.0,-26.0,0
3679,-12.0,-271.0,-28.0,0
3680,-11.0,-271.0,-27.0,0
3681,-11.0,-270.0,-24.0,0
3682,-11.0,-271.0,-26.0,0
3683,-14.0,-271.0,-22.0,0
3684,-12.0,-269.0,-25.0,0
3685,-11.0,-272.0,-25.0,0
3686,-11.0,-273.0,-26.0,0
3687,-12.0,-272.0,-23.0,0
3688,-11.0,-273.0,-26.0,0
3689,-10.0,-272.0,-27.0,0
3690,-9.0,-270.0,-28.0,0
3691,-12.0,-271.0,-27.0,0
3692,-10.0,-274.0,-31.0,0
3693,-9.0,-274.0,-28.0,0
3694,-10.0,-271.0,-31.0,0
3695,-10.0,-272.0,-29.0,0
3696,-11.0,-270.0,-28.0,0
3697,-11.0,-273.0,-29.0,0
3698,-12.0,-270.0,-25.0,0
3699,-11.0,-269.0,-26.0,0
3700,-12.0,-268.0,-30.0,0
3701,-11.0,-269.0,-28.0,0
3702,-12.0,-268.0,-30.0,0
3703,-12.0,-271.0,-22.0,0
3704,-12.0,-271.0,-27.0,0
3705,-8.0,-271.0,-25.0,0
3706,-13.0,-270.0,-29.0,0
3707,-11.0,-271.0,-31.0,0
3708,-9.0,-274.0,-29.0,0
3709,-10.0,-271.0,-31.0,0
3710,-10.0,-271.0,-32.0,0
3711,-11.0,-271.0,-25.0,0
3712,-12.0,-272.0,-28.0,0
3713,-11.0,-268.0,-28.0,0
3714,-11.0,-269.0,-28.0,0
3715,-11.0,-271.0,-29.0,0
3716,-11.0,-270.0,-31.0,0
3717,-12.0,-266.0,-35.0,0
3718,-12.0,-272.0,-32.0,0
3719,-10.0,-275.0,-31.0,0
3720,-12.0,-275.0,-29.0,0
3721,-12.0,-273.0,-27.0,0
3722,-10.0,-271.0,-26.0,0
3723,-7.0,-271.0,-26.0,0
3724,-11.0,-269.0,-33.0,0
3725,-10.0,-267.0,-30.0,0
3726,-9.0,-269.0,-32.0,0
3727,-11.0,-271.0,-29.0,0
3728,-10.0,-271.0,-25.0,0
3729,-10.0,-270.0,-31.0,0
3730,-12.0,-269.0,-23.0,0
3731,-9.0,-271.0,-29.0,0
3732,-10.0,-270.0,-30.0,0
3733,-8.0,-271.0,-27.0,0
3734,-12.0,-273.0,-28.0,0
3735,-10.0,-271.0,-28.0,0
3736,-12.0,-271.0,-34.0,0
3737,-9.0,-271.0,-26.0,0
3738,-12.0,-273.0,-31.0,0
3739,-10.0,-275.0,-34.0,0
3740,-12.0,-270.0,-30.0,0
3741,-10.0,-272.0,-32.0,0
3742,-10.0,-270.0,-29.0,0
3743,-11.0,-270.0,-29.0,0
3744,-11.0,-271.0,-32.0,0
3745,-10.0,-271.0,-26.0,0
3746,-12.0,-271.0,-29.0,0
3747,-12.0,-272.0,-28.0,0
3748,-9.0,-275.0,-31.0,0
3749,-11.0,-272.0,-27.0,0
3750,-11.0,-272.0,-27.0,0
3751,-10.0,-273.0,-29.0,0
3752,-12.0,-272.0,-31.0,0
3753,-10.0,-271.0,-31.0,0
3754,-10.0,-271.0,-31.0,0
3755,-12.0,-272.0,-28.0,0
3756,-11.0,-269.0,-34.0,0
3757,-10.0,-270.0,-33.0,0
3758,-9.0,-272.0,-31.0,0
3759,-10.0,-273.0,-33.0,0
3760,-8.0,-271.0,-32.0,0
3761,-9.0,-273.0,-31.0,0
3762,-10.0,-270.0,-31.0,0
3763,-9.0,-271.0,-29.0,0
3764,-9.0,-270.0,-32.0,0
3765,-10.0,-269.0,-33.0,0
3766,-10.0,-270.0,-31.0,0
3767,-11.0,-272.0,-29.0,0
3768,-9.0,-273.0,-32.0,0
3769,-10.0,-272.0,-29.0,0
3770,-9.0,-275.0,-27.0,0
3771,-10.0,-273.0,-32.0,0
3772,-10.0,-270.0,-31.0,0
3773,-8.0,-272.0,-34.0,0
3774,-9.0,-270.0,-32.0,0
3775,-10.0,-273.0,-34.0,0
3776,-9.0,-272.0,-31.0,0
3777,-10.0,-272.0,-31.0,0
3778,-9.0,-274.0,-30.0,0
3779,-11.0,-272.0,-30.0,0
3780,-12.0,-272.0,-30.0,0
3781,-11.0,-271.0,-33.0,0
3782,-12.0,-269.0,-30.0,0
3783,-12.0,-270.0,-29.0,0
3784,-8.0,-271.0,-32.0,0
3785,-9.0,-270.0,-30.0,0
3786,-12.0,-272.0,-32.0,0
3787,-11.0,-273.0,-33.0,0
3788,-9.0,-274.0,-33.0,0
3789,-9.0,-274.0,-32.0,0
3790,-10.0,-271.0,-33.0,0
3791,-10.0,-272.0,-31.0,0
3792,-10.0,-274.0,-30.0,0
3793,-10.0,-268.0,-31.0,0
3794,-9.0,-272.0,-35.0,0
3795,-10.0,-270.0,-34.0,0
3796,-8.0,-273.0,-34.0,0
3797,-8.0,-270.0,-32.0,0
3798,-9.0,-272.0,-31.0,0
3799,-10.0,-276.0,-31.0,0
3800,-10.0,-274.0,-32.0,0
3801,-9.0,-271.0,-32.0,0
3802,-11.0,-272.0,-29.0,0
3803,-11.0,-270.0,-31.0,0
3804,-11.0,-271.0,-32.0,0
3805,-12.0,-268.0,-30.0,0
3806,-12.0,-269.0,-28.0,0
3807,-12.0,-269.0,-34.0,0
3808,-11.0,-269.0,-37.0,0
3809,-11.0,-268.0,-40.0,0
3810,-6.0,-271.0,-30.0,0
3811,-10.0,-274.0,-31.0,0
3812,-10.0,-273.0,-24.0,0
3813,-12.0,-272.0,-25.0,0
3814,-10.0,-269.0,-31.0,0
3815,-8.0,-265.0,-35.0,0
3816,-10.0,-266.0,-30.0,0
3817,-10.0,-266.0,-30.0,0
3818,-8.0,-268.0,-27.0,0
3819,-8.0,-270.0,-29.0,0
3820,-8.0,-270.0,-31.0,0
3821,-9.0,-272.0,-28.0,0
3822,-7.0,-268.0,-25.0,0
3823,-8.0,-269.0,-30.0,0
3824,-10.0,-266.0,-29.0,0
3825,-10.0,-269.0,-29.0,0
3826,-12.0,-271.0,-28.0,0
3827,-11.0,-270.0,-32.0,0
3828,-10.0,-271.0,-29.0,0
3829,-9.0,-273.0,-29.0,0
3830,-8.0,-272.0,-33.0,0
3831,-8.0,-271.0,-32.0,0
3832,-11.0,-271.0,-28.0,0
3833,-11.0,-269.0,-31.0,0
3834,-10.0,-273.0,-30.0,0
3835,-11.0,-270.0,-29.0,0
3836,-10.0,-271.0,-31.0,0
3837,-9.0,-271.0,-33.0,0
3838,-10.0,-270.0,-34.0,0
3839,-12.0,-269.0,-30.0,0
3840,-9.0,-272.0,-31.0,0
3841,-9.0,-271.0,-33.0,0
3842,-11.0,-268.0,-33.0,0
3843,-8.0,-270.0,-32.0,0
3844,-9.0,-272.0,-29.0,0
3845,-8.0,-271.0,-32.0,0
3846,-6.0,-270.0,-32.0,0
3847,-9.0,-272.0,-32.0,0
3848,-7.0,-273.0,-32.0,0
3849,-9.0,-273.0,-30.0,0
3850,-7.0,-273.0,-32.0,0
3851,-7.0,-272.0,-32.0,0
3852,-10.0,-273.0,-33.0,0
3853,-8.0,-273.0,-33.0,0
3854,-8.0,-274.0,-32.0,0
3855,-9.0,-272.0,-29.0,0
3856,-12.0,-271.0,-34.0,0
3857,-9.0,-273.0,-30.0,0
3858,-11.0,-270.0,-33.0,0
3859,-11.0,-272.0,-30.0,0
3860,-8.0,-272.0,-28.0,0
3861,-11.0,-270.0,-33.0,0
3862,-8.0,-271.0,-34.0,0
3863,-7.0,-270.0,-28.0,0
3864,-9.0,-270.0,-31.0,0
3865,-7.0,-275.0,-33.0,0
3866,-8.0,-275.0,-33.0,0
3867,-8.0,-276.0,-28.0,0
3868,-8.0,-271.0,-33.0,0
3869,-5.0,-270.0,-37.0,0
3870,-8.0,-272.0,-32.0,0
3871,-9.0,-272.0,-32.0,0
3872,-10.0,-271.0,-35.0,0
3873,-9.0,-271.0,-31.0,0
3874,-8.0,-270.0,-36.0,0
3875,-7.0,-273.0,-29.0,0
3876,-9.0,-271.0,-31.0,0
3877,-6.0,-272.0,-31.0,0
3878,-8.0,-274.0,-35.0,0
3879,-6.0,-272.0,-32.0,0
3880,-7.0,-273.0,-34.0,0
3881,-11.0,-272.0,-28.0,0
3882,-12.0,-270.0,-31.0,0
3883,-10.0,-274.0,-32.0,0
3884,-11.0,-270.0,-27.0,0
3885,-11.0,-270.0,-33.0,0
3886,-11.0,-274.0,-33.0,0
3887,-11.0,-268.0,-30.0,0
3888,-10.0,-270.0,-31.0,0
3889,-8.0,-268.0,-31.0,0
3890,-10.0,-268.0,-31.0,0
3891,-8.0,-272.0,-29.0,0
3892,-8.0,-273.0,-28.0,0
3893,-9.0,-274.0,-32.0,0
3894,-11.0,-269.0,-32.0,0
3895,-10.0,-272.0,-28.0,0
3896,-7.0,-270.0,-27.0,0
3897,-7.0,-272.0,-31.0,0
3898,-8.0,-271.0,-31.0,0
3899,-9.0,-267.0,-34.0,0
3900,-8.0,-268.0,-36.0,0
3901,-9.0,-270.0,-36.0,0
3902,-9.0,-274.0,-35.0,0
3903,-7.0,-275.0,-29.0,0
3904,-9.0,-275.0,-26.0,0
3905,-8.0,-276.0,-28.0,0
3906,-9.0,-272.0,-30.0,0
3907,-7.0,-270.0,-33.0,0
3908,-8.0,-265.0,-36.0,0
3909,-9.0,-270.0,-33.0,0
3910,-6.0,-270.0,-28.0,0
3911,-10.0,-274.0,-29.0,0
3912,-9.0,-271.0,-29.0,0
3913,-10.0,-271.0,-25.0,0
3914,-7.0,-291.0,-21.0,0
3915,-11.0,-270.0,-28.0,0
3916,-10.0,-269.0,-26.0,0
3917,-12.0,-270.0,-27.0,0
3918,-11.0,-270.0,-29.0,0
3919,-8.0,-270.0,-23.0,0
3920,-10.0,-269.0,-25.0,0
3921,-7.0,-268.0,-30.0,0
3922,-9.0,-271.0,-30.0,0
3923,-6.0,-270.0,-34.0,0
3924,-5.0,-272.0,-29.0,0
3925,-7.0,-269.0,-28.0,0
3926,-5.0,-273.0,-32.0,0
3927,-6.0,-273.0,-30.0,0
3928,-6.0,-272.0,-29.0,0
3929,-8.0,-274.0,-33.0,0
3930,-5.0,-273.0,-34.0,0
3931,-7.0,-272.0,-28.0,0
3932,-6.0,-273.0,-27.0,0
3933,-7.0,-272.0,-30.0,0
3934,-8.0,-271.0,-26.0,0
3935,-9.0,-268.0,-31.0,0
3936,-6.0,-273.0,-28.0,0
3937,-6.0,-271.0,-31.0,0
3938,-7.0,-270.0,-32.0,0
3939,-7.0,-269.0,-31.0,0
3940,-9.0,-270.0,-29.0,0
3941,-7.0,-268.0,-31.0,0
3942,-7.0,-273.0,-29.0,0
3943,-6.0,-271.0,-29.0,0
3944,-5.0,-268.0,-30.0,0
3945,-6.0,-269.0,-30.0,0
3946,-5.0,-268.0,-29.0,0
3947,-6.0,-269.0,-30.0,0
3948,-6.0,-273.0,-32.0,0
3949,-6.0,-270.0,-28.0,0
3950,-5.0,-272.0,-31.0,0
3951,-3.0,-270.0,-27.0,0
3952,-8.0,-270.0,-33.0,0
3953,-4.0,-271.0,-35.0,0
3954,-5.0,-268.0,-31.0,0
3955,-4.0,-271.0,-30.0,0
3956,-4.0,-271.0,-32.0,0
3957,-6.0,-270.0,-28.0,0
3958,-5.0,-272.0,-29.0,0
3959,-6.0,-269.0,-31.0,0
3960,-5.0,-271.0,-33.0,0
3961,-4.0,-273.0,-33.0,0
3962,-6.0,-272.0,-32.0,0
3963,-6.0,-272.0,-29.0,0
3964,-5.0,-270.0,-29.0,0
3965,-6.0,-271.0,-30.0,0
3966,-5.0,-270.0,-34.0,0
3967,-5.0,-272.0,-32.0,0
3968,-4.0,-270.0,-37.0,0
3969,-4.0,-269.0,-31.0,0
3970,-4.0,-268.0,-33.0,0
3971,-3.0,-270.0,-31.0,0
3972,-4.0,-267.0,-32.0,0
3973,-2.0,-270.0,-33.0,0
3974,-3.0,-269.0,-33.0,0
3975,-4.0,-270.0,-34.0,0
3976,-3.0,-268.0,-34.0,0
3977,-3.0,-268.0,-34.0,0
3978,-4.0,-268.0,-35.0,0
3979,-5.0,-270.0,-31.0,0
3980,-2.0,-270.0,-33.0,0
3981,-3.0,-273.0,-28.0,0
3982,-1.0,-271.0,-33.0,0
3983,-1.0,-271.0,-36.0,0
3984,-3.0,-272.0,-33.0,0
3985,-2.0,-274.0,-36.0,0
3986,-4.0,-272.0,-30.0,0
3987,-6.0,-272.0,-34.0,0
3988,-5.0,-272.0,-31.0,0
3989,-5.0,-273.0,-32.0,0
3990,-1.0,-269.0,-31.0,0
3991,-8.0,-270.0,-31.0,0
3992,-5.0,-270.0,-39.0,0
3993,-5.0,-273.0,-36.0,0
3994,-3.0,-273.0,-37.0,0
3995,-3.0,-274.0,-34.0,0
3996,-5.0,-274.0,-29.0,0
3997,-3.0,-274.0,-29.0,0
3998,-3.0,-271.0,-34.0,0
3999,-4.0,-271.0,-36.0,0
4000,-5.0,-270.0,-34.0,0
4001,-4.0,-272.0,-34.0,0
4002,-4.0,-271.0,-33.0,0
4003,-3.0,-274.0,-28.0,0
4004,-7.0,-272.0,-31.0,0
4005,-6.0,-273.0,-29.0,0
4006,-4.0,-273.0,-27.0,0
4007,-7.0,-273.0,-30.0,0
4008,-7.0,-273.0,-32.0,0
4009,-7.0,-271.0,-27.0,0
4010,-7.0,-274.0,-33.0,0
4011,-6.0,-272.0,-31.0,0
4012,-5.0,-275.0,-33.0,0
4013,-9.0,-269.0,-32.0,0
4014,-8.0,-274.0,-35.0,0
4015,-9.0,-270.0,-32.0,0
4016,-9.0,-269.0,-30.0,0
4017,-10.0,-270.0,-33.0,0
4018,-8.0,-272.0,-31.0,0
4019,-8.0,-272.0,-30.0,0
4020,-8.0,-271.0,-32.0,0
4021,-7.0,-272.0,-30.0,0
4022,-10.0,-267.0,-31.0,0
4023,-6.0,-273.0,-28.0,0
4024,-3.0,-274.0,-28.0,0
4025,-9.0,-270.0,-31.0,0
4026,-7.0,-270.0,-32.0,0
4027,-9.0,-269.0,-32.0,0
4028,-7.0,-269.0,-36.0,0
4029,-8.0,-270.0,-33.0,0
4030,-10.0,-268.0,-35.0,0
4031,-8.0,-269.0,-35.0,0
4032,-8.0,-270.0,-31.0,0
4033,-6.0,-271.0,-34.0,0
4034,-7.0,-273.0,-32.0,0
4035,-6.0,-271.0,-33.0,0
4036,-9.0,-272.0,-33.0,0
4037,-11.0,-272.0,-33.0,0
4038,-7.0,-271.0,-34.0,0
4039,-8.0,-272.0,-33.0,0
4040,-10.0,-269.0,-32.0,0
4041,-8.0,-271.0,-33.0,0
4042,-7.0,-269.0,-31.0,0
4043,-9.0,-269.0,-33.0,0
4044,-7.0,-271.0,-35.0,0
4045,-9.0,-268.0,-29.0,0
4046,-9.0,-270.0,-33.0,0
4047,-8.0,-271.0,-33.0,0
4048,-10.0,-269.0,-31.0,0
4049,-9.0,-268.0,-28.0,0
4050,-9.0,-270.0,-34.0,0
4051,-6.0,-271.0,-36.0,0
4052,-3.0,-273.0,-35.0,0
4053,-6.0,-271.0,-32.0,0
4054,-8.0,-273.0,-33.0,0
4055,-8.0,-270.0,-34.0,0
4056,-6.0,-275.0,-34.0,0
4057,-6.0,-271.0,-33.0,0
4058,-7.0,-270.0,-32.0,0
4059,-5.0,-275.0,-34.0,0
4060,-5.0,-273.0,-34.0,0
4061,-3.0,-274.0,-35.0,0
4062,-6.0,-272.0,-32.0,0
4063,-6.0,-274.0,-33.0,0
4064,-10.0,-271.0,-35.0,0
4065,-5.0,-275.0,-36.0,0
4066,-4.0,-275.0,-34.0,0
4067,-8.0,-272.0,-31.0,0
4068,-7.0,-274.0,-34.0,0
4069,-8.0,-272.0,-34.0,0
4070,-7.0,-269.0,-32.0,0
4071,-7.0,-271.0,-34.0,0
4072,-8.0,-271.0,-36.0,0
4073,-5.0,-271.0,-34.0,0
4074,-7.0,-271.0,-31.0,0
4075,-4.0,-271.0,-30.0,0
4076,-4.0,-272.0,-32.0,0
4077,-1.0,-274.0,-30.0,0
4078,-6.0,-274.0,-35.0,0
4079,-4.0,-274.0,-35.0,0
4080,-3.0,-276.0,-28.0,0
4081,-5.0,-271.0,-28.0,0
4082,-7.0,-274.0,-28.0,0
4083,-3.0,-272.0,-30.0,0
4084,-4.0,-269.0,-35.0,0
4085,-3.0,-273.0,-33.0,0
4086,-4.0,-272.0,-34.0,0
4087,-6.0,-273.0,-30.0,0
4088,-1.0,-276.0,-31.0,0
4089,-1.0,-278.0,-30.0,0
4090,0.0,-280.0,-26.0,0
4091,-4.0,-278.0,-28.0,0
4092,-9.0,-275.0,-28.0,0
4093,-8.0,-272.0,-32.0,0
4094,-1.0,-275.0,-32.0,0
4095,-5.0,-271.0,-30.0,0
4096,-2.0,-272.0,-33.0,0
4097,-2.0,-272.0,-38.0,0
4098,-2.0,-273.0,-30.0,0
4099,-5.0,-271.0,-31.0,0
4100,-4.0,-272.0,-32.0,0
4101,-1.0,-270.0,-28.0,0
4102,-3.0,-273.0,-32.0,0
4103,-5.0,-273.0,-25.0,0
4104,-5.0,-269.0,-24.0,0
4105,-4.0,-268.0,-23.0,0
4106,-7.0,-265.0,-23.0,0
4107,-3.0,-264.0,-23.0,0
4108,-1.0,-262.0,-23.0,0
4109,-5.0,-263.0,-26.0,0
4110,-8.0,-263.0,-20.0,0
4111,-9.0,-262.0,-22.0,0
4112,-10.0,-263.0,-22.0,0
4113,-10.0,-264.0,-20.0,0
4114,-8.0,-266.0,-20.0,0
4115,-11.0,-265.0,-27.0,0
4116,-11.0,-266.0,-19.0,0
4117,-9.0,-267.0,-23.0,0
4118,-12.0,-267.0,-23.0,0
4119,-12.0,-267.0,-23.0,0
4120,-10.0,-272.0,-25.0,0
4121,-12.0,-268.0,-21.0,0
4122,-12.0,-270.0,-22.0,0
4123,-12.0,-271.0,-26.0,0
4124,-12.0,-271.0,-24.0,0
4125,-10.0,-273.0,-25.0,0
4126,-5.0,-274.0,-29.0,0
4127,-7.0,-274.0,-30.0,0
4128,-8.0,-274.0,-28.0,0
4129,-8.0,-274.0,-31.0,0
4130,-8.0,-272.0,-30.0,0
4131,-8.0,-275.0,-29.0,0
4132,-10.0,-274.0,-28.0,0
4133,-7.0,-272.0,-29.0,0
4134,-5.0,-275.0,-23.0,0
4135,-7.0,-272.0,-26.0,0
4136,-7.0,-274.0,-26.0,0
4137,-7.0,-274.0,-24.0,0
4138,-2.0,-274.0,-27.0,0
4139,-1.0,-270.0,-28.0,0
4140,-1.0,-271.0,-25.0,0
4141,-2.0,-272.0,-22.0,0
4142,-4.0,-271.0,-22.0,0
4143,-1.0,-272.0,-19.0,0
4144,-2.0,-270.0,-20.0,0
4145,-2.0,-272.0,-24.0,0
4146,-4.0,-274.0,-17.0,0
4147,-7.0,-271.0,-16.0,0
4148,0.0,-273.0,-22.0,0
4149,-4.0,-271.0,-23.0,0
4150,1.0,-273.0,-21.0,0
4151,5.0,-274.0,-24.0,0
4152,5.0,-274.0,-25.0,0
4153,2.0,-273.0,-19.0,0
4154,-27.0,-270.0,-21.0,0
4155,11.0,-271.0,-16.0,0
4156,11.0,-270.0,-27.0,0
4157,9.0,-274.0,-29.0,0
4158,-10.0,-271.0,-19.0,0
4159,-11.0,-268.0,-18.0,0
4160,-7.0,-270.0,-20.0,0
4161,-18.0,-265.0,-21.0,0
4162,4.0,-267.0,-15.0,0
4163,7.0,-272.0,-26.0,0
4164,20.0,-275.0,-28.0,0
4165,29.0,-276.0,-28.0,0
4166,-12.0,-276.0,-25.0,0
4167,-15.0,-276.0,-15.0,0
4168,-6.0,-273.0,-19.0,0
4169,3.0,-274.0,-26.0,0
4170,3.0,-275.0,-23.0,0
4171,2.0,-273.0,-26.0,0
4172,-4.0,-271.0,-23.0,0
4173,-3.0,-272.0,-25.0,0
4174,4.0,-268.0,-26.0,0
4175,-9.0,-268.0,-23.0,0
4176,-11.0,-271.0,-23.0,0
4177,-6.0,-268.0,-22.0,0
4178,-4.0,-266.0,-31.0,0
4179,-1.0,-270.0,-25.0,0
4180,-2.0,-272.0,-30.0,0
4181,-6.0,-273.0,-26.0,0
4182,-9.0,-273.0,-19.0,0
4183,-4.0,-273.0,-18.0,0
4184,-2.0,-268.0,-19.0,0
4185,1.0,-268.0,-18.0,0
4186,0.0,-270.0,-20.0,0
4187,-8.0,-265.0,-18.0,0
4188,-9.0,-267.0,-22.0,0
4189,-5.0,-266.0,-19.0,0
4190,-3.0,-271.0,-20.0,0
4191,-8.0,-272.0,-22.0,0
4192,-9.0,-270.0,-20.0,0
4193,-7.0,-264.0,-25.0,0
4194,-4.0,-269.0,-27.0,0
4195,-5.0,-269.0,-21.0,0
4196,-5.0,-273.0,-19.0,0
4197,-5.0,-275.0,-23.0,0
4198,-5.0,-273.0,-22.0,0
4199,-8.0,-272.0,-24.0,0
4200,-4.0,-273.0,-19.0,0
4201,-4.0,-273.0,-25.0,0
4202,-6.0,-272.0,-22.0,0
4203,-6.0,-271.0,-24.0,0
4204,-8.0,-269.0,-23.0,0
4205,-6.0,-272.0,-20.0,0
4206,-11.0,-272.0,-21.0,0
4207,-11.0,-271.0,-20.0,0
4208,-7.0,-267.0,-22.0,0
4209,-5.0,-268.0,-21.0,0
4210,-6.0,-271.0,-21.0,0
4211,-5.0,-269.0,-16.0,0
4212,-3.0,-273.0,-23.0,0
4213,-1.0,-270.0,-21.0,0
4214,-2.0,-271.0,-21.0,0
4215,-4.0,-274.0,-20.0,0
4216,-4.0,-272.0,-19.0,0
4217,-2.0,-275.0,-18.0,0
4218,1.0,-271.0,-21.0,0
4219,2.0,-272.0,-20.0,0
4220,-1.0,-274.0,-21.0,0
4221,-4.0,-270.0,-21.0,0
4222,2.0,-269.0,-20.0,0
4223,2.0,-270.0,-20.0,0
4224,-3.0,-270.0,-21.0,0
4225,1.0,-269.0,-22.0,0
4226,1.0,-269.0,-21.0,0
4227,-2.0,-269.0,-18.0,0
4228,0.0,-270.0,-18.0,0
4229,2.0,-269.0,-18.0,0
4230,1.0,-268.0,-25.0,0
4231,5.0,-271.0,-24.0,0
4232,2.0,-272.0,-22.0,0
4233,1.0,-273.0,-20.0,0
4234,-1.0,-270.0,-27.0,0
4235,1.0,-275.0,-23.0,0
4236,2.0,-273.0,-27.0,0
4237,5.0,-274.0,-26.0,0
4238,3.0,-270.0,-28.0,0
4239,4.0,-271.0,-25.0,0
4240,0.0,-267.0,-28.0,0
4241,1.0,-270.0,-19.0,0
4242,3.0,-269.0,-27.0,0
4243,-1.0,-271.0,-19.0,0
4244,-5.0,-270.0,-17.0,0
4245,-2.0,-270.0,-17.0,0
4246,-3.0,-269.0,-19.0,0
4247,-3.0,-269.0,-20.0,0
4248,1.0,-267.0,-20.0,0
4249,-1.0,-269.0,-25.0,0
4250,2.0,-267.0,-26.0,0
4251,1.0,-268.0,-24.0,0
4252,2.0,-266.0,-24.0,0
4253,1.0,-270.0,-29.0,0
4254,5.0,-271.0,-22.0,0
4255,0.0,-272.0,-27.0,0
4256,-5.0,-272.0,-25.0,0
4257,-7.0,-273.0,-27.0,0
4258,-7.0,-271.0,-25.0,0
4259,-11.0,-270.0,-28.0,0
4260,-7.0,-271.0,-25.0,0
4261,-8.0,-272.0,-21.0,0
4262,-7.0,-268.0,-25.0,0
4263,-9.0,-270.0,-22.0,0
4264,0.0,-276.0,-23.0,0
4265,-5.0,-273.0,-28.0,0
4266,17.0,-274.0,-18.0,0
4267,3.0,-277.0,-27.0,0
4268,-4.0,-274.0,-28.0,0
4269,-6.0,-270.0,-26.0,0
4270,-7.0,-267.0,-21.0,0
4271,-7.0,-263.0,-27.0,0
4272,-2.0,-260.0,-24.0,0
4273,-6.0,-268.0,-28.0,0
4274,-7.0,-269.0,-26.0,0
4275,-5.0,-274.0,-28.0,0
4276,-6.0,-277.0,-25.0,0
4277,-7.0,-279.0,-22.0,0
4278,-5.0,-275.0,-21.0,0
4279,-5.0,-277.0,-23.0,0
4280,-4.0,-275.0,-28.0,0
4281,-4.0,-276.0,-30.0,0
4282,-7.0,-275.0,-26.0,0
4283,-4.0,-273.0,-24.0,0
4284,-5.0,-273.0,-24.0,0
4285,-8.0,-276.0,-25.0,0
4286,-10.0,-276.0,-20.0,0
4287,-11.0,-275.0,-25.0,0
4288,-7.0,-275.0,-20.0,0
4289,-9.0,-274.0,-24.0,0
4290,-7.0,-271.0,-20.0,0
4291,-8.0,-273.0,-23.0,0
4292,-8.0,-271.0,-27.0,0
4293,-5.0,-271.0,-26.0,0
4294,-5.0,-270.0,-26.0,0
4295,-2.0,-271.0,-23.0,0
4296,-1.0,-268.0,-21.0,0
4297,0.0,-272.0,-24.0,0
4298,-2.0,-268.0,-29.0,0
4299,-2.0,-266.0,-24.0,0
4300,-5.0,-270.0,-23.0,0
4301,-5.0,-268.0,-24.0,0
4302,-6.0,-268.0,-25.0,0
4303,-7.0,-269.0,-24.0,0
4304,-4.0,-267.0,-26.0,0
4305,-4.0,-269.0,-22.0,0
4306,-2.0,-268.0,-22.0,0
4307,-6.0,-271.0,-27.0,0
4308,-7.0,-269.0,-22.0,0
4309,-6.0,-272.0,-22.0,0
4310,-5.0,-275.0,-18.0,0
4311,-6.0,-271.0,-23.0,0
4312,-1.0,-272.0,-22.0,0
4313,-4.0,-271.0,-17.0,0
4314,-5.0,-271.0,-27.0,0
4315,-9.0,-269.0,-27.0,0
4316,-4.0,-272.0,-27.0,0
4317,-2.0,-270.0,-22.0,0
4318,-5.0,-271.0,-25.0,0
4319,-5.0,-269.0,-23.0,0
4320,-4.0,-267.0,-26.0,0
4321,0.0,-268.0,-28.0,0
4322,4.0,-272.0,-23.0,0
4323,4.0,-268.0,-23.0,0
4324,4.0,-275.0,-18.0,0
4325,3.0,-276.0,-18.0,0
4326,2.0,-277.0,-13.0,0
4327,-6.0,-277.0,-17.0,0
4328,-7.0,-275.0,-23.0,0
4329,-4.0,-275.0,-23.0,0
4330,-6.0,-275.0,-24.0,0
4331,-4.0,-275.0,-22.0,0
4332,0.0,-273.0,-23.0,0
4333,2.0,-271.0,-25.0,0
4334,-1.0,-268.0,-25.0,0
4335,-1.0,-268.0,-28.0,0
4336,-3.0,-271.0,-23.0,0
4337,-9.0,-268.0,-28.0,0
4338,-2.0,-275.0,-20.0,0
4339,8.0,-273.0,-20.0,0
4340,13.0,-273.0,-25.0,0
4341,4.0,-271.0,-22.0,0
4342,-6.0,-269.0,-23.0,0
4343,-8.0,-266.0,-23.0,0
4344,-11.0,-268.0,-23.0,0
4345,-9.0,-271.0,-25.0,0
4346,-10.0,-270.0,-22.0,0
4347,-6.0,-272.0,-25.0,0
4348,-8.0,-271.0,-22.0,0
4349,-6.0,-273.0,-23.0,0
4350,-18.0,-272.0,-23.0,0
4351,-11.0,-269.0,-20.0,0
4352,0.0,-272.0,-22.0,0
4353,-5.0,-272.0,-22.0,0
4354,-15.0,-274.0,-23.0,0
4355,-12.0,-272.0,-23.0,0
4356,-5.0,-274.0,-24.0,0
4357,-2.0,-273.0,-23.0,0
4358,1.0,-275.0,-29.0,0
4359,-3.0,-274.0,-21.0,0
4360,-2.0,-277.0,-30.0,0
4361,-5.0,-272.0,-28.0,0
4362,0.0,-272.0,-22.0,0
4363,-7.0,-266.0,-25.0,0
4364,-10.0,-267.0,-22.0,0
4365,-6.0,-268.0,-27.0,0
4366,-3.0,-266.0,-27.0,0
4367,0.0,-265.0,-29.0,0
4368,0.0,-263.0,-28.0,0
4369,0.0,-269.0,-32.0,0
4370,3.0,-271.0,-27.0,0
4371,6.0,-276.0,-23.0,0
4372,1.0,-276.0,-19.0,0
4373,1.0,-275.0,-20.0,0
4374,-2.0,-274.0,-26.0,0
4375,-2.0,-271.0,-22.0,0
4376,-2.0,-270.0,-22.0,0
4377,-6.0,-272.0,-22.0,0
4378,-5.0,-270.0,-18.0,0
4379,-8.0,-272.0,-17.0,0
4380,-5.0,-270.0,-19.0,0
4381,-1.0,-270.0,-21.0,0
4382,1.0,-269.0,-25.0,0
4383,-1.0,-269.0,-26.0,0
4384,6.0,-267.0,-24.0,0
4385,-7.0,-272.0,-17.0,0
4386,-9.0,-270.0,-15.0,0
4387,-3.0,-267.0,-22.0,0
4388,-10.0,-265.0,-12.0,0
4389,-8.0,-268.0,-32.0,0
4390,-12.0,-265.0,-26.0,0
4391,-5.0,-271.0,-12.0,0
4392,-5.0,-276.0,-24.0,0
4393,-12.0,-271.0,-19.0,0
4394,-11.0,-275.0,-25.0,0
4395,3.0,-257.0,-18.0,0
4396,-8.0,-273.0,-24.0,0
4397,-5.0,-270.0,-30.0,0
4398,-3.0,-273.0,-29.0,0
4399,-6.0,-271.0,-31.0,0
4400,-6.0,-270.0,-27.0,0
4401,-7.0,-270.0,-26.0,0
4402,-6.0,-268.0,-23.0,0
4403,-3.0,-270.0,-19.0,0
4404,-2.0,-271.0,-16.0,0
4405,-3.0,-269.0,-18.0,0
4406,-3.0,-267.0,-17.0,0
4407,-4.0,-268.0,-24.0,0
4408,-3.0,-270.0,-22.0,0
4409,-1.0,-272.0,-22.0,0
4410,-4.0,-271.0,-22.0,0
4411,1.0,-272.0,-25.0,0
4412,1.0,-274.0,-25.0,0
4413,-3.0,-275.0,-20.0,0
4414,-4.0,-273.0,-25.0,0
4415,-5.0,-272.0,-21.0,0
4416,1.0,-271.0,-22.0,0
4417,1.0,-272.0,-21.0,0
4418,-1.0,-271.0,-22.0,0
4419,-9.0,-274.0,-26.0,0
4420,-19.0,-276.0,-22.0,0
4421,-22.0,-274.0,-21.0,0
4422,-16.0,-274.0,-24.0,0
4423,-10.0,-272.0,-28.0,0
4424,-8.0,-274.0,-19.0,0
4425,-10.0,-271.0,-18.0,0
4426,-12.0,-266.0,-20.0,0
4427,-11.0,-267.0,-18.0,0
4428,-14.0,-269.0,-17.0,0
4429,-13.0,-268.0,-19.0,0
4430,-9.0,-268.0,-18.0,0
4431,-8.0,-272.0,-21.0,0
4432,-12.0,-271.0,-17.0,0
4433,-7.0,-267.0,-20.0,0
4434,-3.0,-267.0,-19.0,0
4435,-3.0,-265.0,-18.0,0
4436,-11.0,-267.0,-18.0,0
4437,1.0,-269.0,-16.0,0
4438,11.0,-266.0,-18.0,0
4439,-2.0,-269.0,-15.0,0
4440,-9.0,-271.0,-19.0,0
4441,-11.0,-268.0,-18.0,0
4442,-7.0,-267.0,-23.0,0
4443,0.0,-270.0,-22.0,0
4444,-1.0,-267.0,-20.0,0
4445,6.0,-269.0,-21.0,0
4446,4.0,-269.0,-16.0,0
4447,0.0,-273.0,-16.0,0
4448,-5.0,-274.0,-17.0,0
4449,-11.0,-276.0,-10.0,0
4450,-7.0,-275.0,-13.0,0
4451,-6.0,-276.0,-15.0,0
4452,-6.0,-276.0,-16.0,0
4453,-9.0,-276.0,-10.0,0
4454,-5.0,-276.0,-18.0,0
4455,-1.0,-275.0,-13.0,0
4456,-5.0,-272.0,-9.0,0
4457,-9.0,-268.0,-17.0,0
4458,-8.0,-267.0,-16.0,0
4459,-7.0,-268.0,-13.0,0
4460,-4.0,-264.0,-13.0,0
4461,-7.0,-267.0,-19.0,0
4462,-6.0,-267.0,-20.0,0
4463,-2.0,-268.0,-27.0,0
4464,4.0,-266.0,-26.0,0
4465,1.0,-268.0,-25.0,0
4466,-1.0,-271.0,-24.0,0
4467,-5.0,-271.0,-20.0,0
4468,-3.0,-270.0,-19.0,0
4469,-3.0,-273.0,-24.0,0
4470,2.0,-272.0,-18.0,0
4471,1.0,-270.0,-21.0,0
4472,7.0,-268.0,-21.0,0
4473,6.0,-266.0,-17.0,0
4474,-1.0,-273.0,-12.0,0
4475,4.0,-269.0,0.0,0
4476,-41.0,-274.0,-14.0,0
4477,-43.0,-271.0,-22.0,0
4478,-26.0,-274.0,-31.0,0
4479,-7.0,-276.0,-29.0,0
4480,4.0,-283.0,-19.0,0
4481,5.0,-277.0,-23.0,0
4482,4.0,-272.0,-22.0,0
4483,1.0,-263.0,-21.0,0
4484,-2.0,-259.0,-20.0,0
4485,-7.0,-257.0,-17.0,0
4486,-12.0,-260.0,-24.0,0
4487,-12.0,-262.0,-21.0,0
4488,-12.0,-267.0,-19.0,0
4489,-12.0,-272.0,-25.0,0
4490,-11.0,-273.0,-20.0,0
4491,-9.0,-274.0,-21.0,0
4492,1.0,-272.0,-24.0,0
4493,1.0,-275.0,-22.0,0
4494,1.0,-276.0,-20.0,0
4495,-4.0,-276.0,-15.0,0
4496,-2.0,-277.0,-11.0,0
4497,-1.0,-276.0,-10.0,0
4498,-4.0,-275.0,-12.0,0
4499,-3.0,-274.0,-13.0,0
4500,-9.0,-272.0,-17.0,0
4501,-10.0,-270.0,-15.0,0
4502,-8.0,-271.0,-18.0,0
4503,-11.0,-271.0,-21.0,0
4504,-15.0,-272.0,-24.0,0
4505,-12.0,-268.0,-25.0,0
4506,-11.0,-269.0,-22.0,0
4507,-7.0,-268.0,-22.0,0
4508,-8.0,-267.0,-27.0,0
4509,-4.0,-268.0,-24.0,0
4510,-3.0,-267.0,-27.0,0
4511,-5.0,-268.0,-25.0,0
4512,-1.0,-270.0,-28.0,0
4513,-5.0,-269.0,-25.0,0
4514,-2.0,-270.0,-24.0,0
4515,0.0,-274.0,-22.0,0
4516,-2.0,-274.0,-25.0,0
4517,1.0,-276.0,-24.0,0
4518,-2.0,-275.0,-21.0,0
4519,-5.0,-275.0,-28.0,0
4520,-1.0,-275.0,-22.0,0
4521,0.0,-274.0,-24.0,0
4522,1.0,-275.0,-25.0,0
4523,-2.0,-274.0,-24.0,0
4524,0.0,-274.0,-23.0,0
4525,-4.0,-271.0,-22.0,0
4526,-9.0,-272.0,-24.0,0
4527,-8.0,-271.0,-20.0,0
4528,-5.0,-271.0,-20.0,0
4529,-12.0,-271.0,-24.0,0
4530,-4.0,-273.0,-20.0,0
4531,-7.0,-271.0,-21.0,0
4532,-9.0,-272.0,-21.0,0
4533,-8.0,-274.0,-22.0,0
4534,-30.0,-274.0,-16.0,0
4535,-23.0,-273.0,-23.0,0
4536,-8.0,-267.0,-33.0,0
4537,6.0,-272.0,-32.0,0
4538,-6.0,-272.0,-28.0,0
4539,-10.0,-273.0,-26.0,0
4540,-4.0,-270.0,-28.0,0
4541,-1.0,-271.0,-26.0,0
4542,-3.0,-268.0,-28.0,0
4543,-8.0,-266.0,-25.0,0
4544,-12.0,-265.0,-27.0,0
4545,-10.0,-263.0,-26.0,0
4546,-9.0,-264.0,-24.0,0
4547,-10.0,-269.0,-29.0,0
4548,-9.0,-272.0,-29.0,0
4549,-3.0,-272.0,-28.0,0
4550,-3.0,-274.0,-26.0,0
4551,1.0,-274.0,-22.0,0
4552,-3.0,-276.0,-26.0,0
4553,-8.0,-274.0,-20.0,0
4554,-7.0,-275.0,-22.0,0
4555,-7.0,-274.0,-23.0,0
4556,-6.0,-272.0,-16.0,0
4557,-8.0,-270.0,-20.0,0
4558,-9.0,-272.0,-17.0,0
4559,-9.0,-268.0,-20.0,0
4560,-9.0,-267.0,-30.0,0
4561,-10.0,-265.0,-28.0,0
4562,-8.0,-268.0,-25.0,0
4563,-12.0,-266.0,-23.0,0
4564,-12.0,-271.0,-22.0,0
4565,-11.0,-270.0,-22.0,0
4566,-10.0,-272.0,-26.0,0
4567,-9.0,-266.0,-27.0,0
4568,-9.0,-268.0,-23.0,0
4569,-7.0,-267.0,-27.0,0
4570,-6.0,-270.0,-25.0,0
4571,-6.0,-270.0,-29.0,0
4572,-5.0,-271.0,-29.0,0
4573,-9.0,-269.0,-28.0,0
4574,-6.0,-272.0,-28.0,0
4575,-3.0,-271.0,-31.0,0
4576,-1.0,-274.0,-28.0,0
4577,1.0,-274.0,-25.0,0
4578,1.0,-275.0,-29.0,0
4579,-2.0,-274.0,-25.0,0
4580,2.0,-274.0,-26.0,0
4581,-1.0,-272.0,-25.0,0
4582,-5.0,-272.0,-31.0,0
4583,-4.0,-269.0,-27.0,0
4584,0.0,-274.0,-27.0,0
4585,1.0,-271.0,-27.0,0
4586,4.0,-270.0,-32.0,0
4587,2.0,-273.0,-34.0,0
4588,-4.0,-273.0,-34.0,0
4589,-4.0,-275.0,-30.0,0
4590,-7.0,-270.0,-29.0,0
4591,-6.0,-271.0,-28.0,0
4592,-4.0,-270.0,-27.0,0
4593,-5.0,-266.0,-33.0,0
4594,-3.0,-269.0,-30.0,0
4595,-3.0,-268.0,-28.0,0
4596,-2.0,-270.0,-26.0,0
4597,-2.0,-267.0,-24.0,0
4598,-5.0,-271.0,-26.0,0
4599,-6.0,-270.0,-24.0,0
4600,-8.0,-270.0,-24.0,0
4601,-11.0,-274.0,-25.0,0
4602,-9.0,-273.0,-22.0,0
4603,-11.0,-276.0,-25.0,0
4604,-12.0,-276.0,-25.0,0
4605,-11.0,-279.0,-21.0,0
4606,-14.0,-275.0,-19.0,0
4607,-12.0,-275.0,-21.0,0
4608,-14.0,-275.0,-18.0,0
4609,-12.0,-276.0,-21.0,0
4610,-13.0,-276.0,-21.0,0
4611,-12.0,-276.0,-26.0,0
4612,-12.0,-275.0,-26.0,0
4613,-12.0,-276.0,-30.0,0
4614,-12.0,-275.0,-23.0,0
4615,-12.0,-269.0,-33.0,0
4616,-9.0,-270.0,-33.0,0
4617,-9.0,-268.0,-33.0,0
4618,-16.0,-271.0,-52.0,0
4619,-7.0,-265.0,-34.0,0
4620,-6.0,-266.0,-36.0,0
4621,-7.0,-266.0,-39.0,0
4622,-6.0,-263.0,-33.0,0
4623,-4.0,-267.0,-35.0,0
4624,-5.0,-267.0,-31.0,0
4625,-5.0,-270.0,-32.0,0
4626,-3.0,-269.0,-33.0,0
4627,-2.0,-268.0,-32.0,0
4628,-6.0,-267.0,-33.0,0
4629,-3.0,-270.0,-33.0,0
4630,-1.0,-271.0,-32.0,0
4631,-1.0,-273.0,-31.0,0
4632,-7.0,-272.0,-32.0,0
4633,-4.0,-272.0,-26.0,0
4634,-4.0,-274.0,-30.0,0
4635,-9.0,-273.0,-31.0,0
4636,-5.0,-274.0,-31.0,0
4637,-9.0,-273.0,-26.0,0
4638,-10.0,-269.0,-30.0,0
4639,-11.0,-273.0,-32.0,0
4640,-10.0,-275.0,-31.0,0
4641,-10.0,-275.0,-30.0,0
4642,-11.0,-274.0,-29.0,0
4643,-11.0,-275.0,-31.0,0
4644,-10.0,-275.0,-31.0,0
4645,-10.0,-272.0,-27.0,0
4646,-10.0,-273.0,-27.0,0
4647,-5.0,-271.0,-27.0,0
4648,-6.0,-270.0,-29.0,0
4649,-7.0,-273.0,-28.0,0
4650,-9.0,-274.0,-28.0,0
4651,-9.0,-271.0,-27.0,0
4652,-6.0,-276.0,-30.0,0
4653,-5.0,-274.0,-28.0,0
4654,-6.0,-275.0,-33.0,0
4655,-5.0,-270.0,-27.0,0
4656,-4.0,-273.0,-26.0,0
4657,-5.0,-271.0,-28.0,0
4658,-3.0,-271.0,-30.0,0
4659,-3.0,-274.0,-31.0,0
4660,-3.0,-273.0,-30.0,0
4661,-1.0,-274.0,-28.0,0
4662,-6.0,-273.0,-30.0,0
4663,-1.0,-275.0,-28.0,0
4664,-6.0,-275.0,-28.0,0
4665,-5.0,-275.0,-27.0,0
4666,-5.0,-273.0,-28.0,0
4667,-7.0,-268.0,-28.0,0
4668,-4.0,-272.0,-29.0,0
4669,-5.0,-269.0,-31.0,0
4670,-4.0,-272.0,-27.0,0
4671,-5.0,-274.0,-28.0,0
4672,-9.0,-272.0,-26.0,0
4673,-8.0,-274.0,-27.0,0
4674,-10.0,-275.0,-27.0,0
4675,-9.0,-271.0,-26.0,0
4676,-7.0,-273.0,-29.0,0
4677,-6.0,-274.0,-29.0,0
4678,-10.0,-272.0,-33.0,0
4679,-10.0,-273.0,-31.0,0
4680,-9.0,-272.0,-31.0,0
4681,-6.0,-272.0,-28.0,0
4682,-8.0,-274.0,-31.0,0
4683,-5.0,-272.0,-31.0,0
4684,-10.0,-273.0,-27.0,0
4685,-9.0,-272.0,-30.0,0
4686,-8.0,-272.0,-31.0,0
4687,-9.0,-273.0,-30.0,0
4688,-9.0,-270.0,-28.0,0
4689,-8.0,-275.0,-28.0,0
4690,-9.0,-270.0,-27.0,0
4691,-11.0,-271.0,-29.0,0
4692,-11.0,-269.0,-28.0,0
4693,-11.0,-273.0,-28.0,0
4694,-8.0,-269.0,-30.0,0
4695,-11.0,-267.0,-29.0,0
4696,-7.0,-269.0,-33.0,0
4697,-8.0,-270.0,-32.0,0
4698,-8.0,-267.0,-30.0,0
4699,-5.0,-267.0,-32.0,0
4700,-4.0,-269.0,-32.0,0
4701,-7.0,-269.0,-35.0,0
4702,-4.0,-271.0,-32.0,0
4703,-6.0,-270.0,-31.0,0
4704,-5.0,-273.0,-30.0,0
4705,-5.0,-272.0,-28.0,0
4706,-4.0,-270.0,-32.0,0
4707,-6.0,-268.0,-29.0,0
4708,-6.0,-270.0,-28.0,0
4709,-6.0,-266.0,-25.0,0
4710,-5.0,-268.0,-25.0,0
4711,-4.0,-268.0,-26.0,0
4712,-5.0,-266.0,-26.0,0
4713,-8.0,-268.0,-22.0,0
4714,-6.0,-266.0,-23.0,0
4715,-6.0,-268.0,-22.0,0
4716,-6.0,-265.0,-27.0,0
4717,-8.0,-271.0,-20.0,0
4718,-6.0,-269.0,-26.0,0
4719,-6.0,-272.0,-24.0,0
4720,-7.0,-271.0,-26.0,0
4721,-8.0,-270.0,-26.0,0
4722,-6.0,-273.0,-23.0,0
4723,-5.0,-272.0,-22.0,0
4724,-6.0,-269.0,-27.0,0
4725,-8.0,-269.0,-26.0,0
4726,-7.0,-269.0,-23.0,0
4727,-6.0,-270.0,-19.0,0
4728,-9.0,-271.0,-18.0,0
4729,-6.0,-270.0,-20.0,0
4730,-6.0,-271.0,-20.0,0
4731,-8.0,-269.0,-22.0,0
4732,-4.0,-270.0,-18.0,0
4733,-8.0,-270.0,-22.0,0
4734,-5.0,-272.0,-19.0,0
4735,-7.0,-272.0,-22.0,0
4736,-8.0,-272.0,-20.0,0
4737,-10.0,-271.0,-20.0,0
4738,-9.0,-273.0,-22.0,0
4739,-9.0,-274.0,-19.0,0
4740,-6.0,-276.0,-21.0,0
4741,-8.0,-273.0,-20.0,0
4742,-9.0,-272.0,-24.0,0
4743,-9.0,-273.0,-22.0,0
4744,-7.0,-270.0,-20.0,0
4745,-6.0,-267.0,-23.0,0
4746,-5.0,-270.0,-23.0,0
4747,-5.0,-272.0,-19.0,0
4748,-3.0,-270.0,-20.0,0
4749,-6.0,-271.0,-19.0,0
4750,-8.0,-273.0,-15.0,0
4751,-8.0,-274.0,-15.0,0
4752,-10.0,-274.0,-20.0,0
4753,-9.0,-272.0,-20.0,0
4754,-9.0,-273.0,-21.0,0
4755,-10.0,-272.0,-20.0,0
4756,-10.0,-273.0,-20.0,0
4757,-11.0,-273.0,-17.0,0
4758,-12.0,-268.0,-23.0,0
4759,-10.0,-272.0,-27.0,0
4760,-12.0,-274.0,-29.0,0
4761,-10.0,-276.0,-29.0,0
4762,-6.0,-278.0,-22.0,0
4763,-7.0,-278.0,-18.0,0
4764,-9.0,-275.0,-20.0,0
4765,-8.0,-274.0,-21.0,0
4766,-8.0,-273.0,-25.0,0
4767,-8.0,-270.0,-24.0,0
4768,-8.0,-269.0,-24.0,0
4769,-10.0,-271.0,-24.0,0
4770,-12.0,-272.0,-21.0,0
4771,-8.0,-273.0,-21.0,0
4772,-10.0,-272.0,-26.0,0
4773,-11.0,-274.0,-25.0,0
4774,-10.0,-271.0,-24.0,0
4775,-12.0,-269.0,-25.0,0
4776,-8.0,-271.0,-21.0,0
4777,-12.0,-271.0,-24.0,0
4778,-11.0,-268.0,-24.0,0
4779,-8.0,-268.0,-27.0,0
4780,-4.0,-270.0,-24.0,0
4781,-8.0,-270.0,-23.0,0
4782,-4.0,-271.0,-24.0,0
4783,-9.0,-271.0,-19.0,0
4784,-10.0,-269.0,-24.0,0
4785,-8.0,-271.0,-20.0,0
4786,-10.0,-269.0,-24.0,0
4787,-7.0,-268.0,-23.0,0
4788,-4.0,-271.0,-23.0,0
4789,-5.0,-267.0,-23.0,0
4790,-4.0,-266.0,-26.0,0
4791,-4.0,-267.0,-22.0,0
4792,-1.0,-269.0,-21.0,0
4793,-2.0,-266.0,-22.0,0
4794,-4.0,-266.0,-24.0,0
4795,-1.0,-268.0,-25.0,0
4796,-2.0,-268.0,-20.0,0
4797,0.0,-267.0,-19.0,0
4798,-1.0,-267.0,-24.0,0
4799,-4.0,-266.0,-24.0,0
4800,-1.0,-271.0,-22.0,0
4801,-5.0,-269.0,-24.0,0
4802,-7.0,-267.0,-25.0,0
4803,-6.0,-270.0,-22.0,0
4804,-6.0,-270.0,-21.0,0
4805,-8.0,-268.0,-22.0,0
4806,-9.0,-267.0,-20.0,0
4807,-7.0,-270.0,-26.0,0
4808,-9.0,-269.0,-22.0,0
4809,-11.0,-268.0,-18.0,0
4810,-7.0,-270.0,-21.0,0
4811,-6.0,-270.0,-20.0,0
4812,-8.0,-271.0,-20.0,0
4813,-10.0,-269.0,-25.0,0
4814,-9.0,-270.0,-24.0,0
4815,-10.0,-273.0,-23.0,0
4816,-6.0,-273.0,-23.0,0
4817,-7.0,-272.0,-23.0,0
4818,-7.0,-274.0,-27.0,0
4819,-6.0,-273.0,-23.0,0
4820,-7.0,-275.0,-28.0,0
4821,-5.0,-275.0,-26.0,0
4822,-3.0,-275.0,-29.0,0
4823,-6.0,-275.0,-24.0,0
4824,-5.0,-276.0,-25.0,0
4825,-3.0,-276.0,-24.0,0
4826,0.0,-276.0,-24.0,0
4827,-1.0,-277.0,-25.0,0
4828,1.0,-279.0,-27.0,0
4829,6.0,-280.0,-26.0,0
4830,3.0,-280.0,-25.0,0
4831,0.0,-276.0,-25.0,0
4832,1.0,-277.0,-26.0,0
4833,-2.0,-272.0,-28.0,0
4834,0.0,-272.0,-24.0,0
4835,0.0,-273.0,-20.0,0
4836,0.0,-273.0,-24.0,0
4837,-3.0,-273.0,-21.0,0
4838,-4.0,-274.0,-20.0,0
4839,-5.0,-272.0,-24.0,0
4840,-3.0,-270.0,-22.0,0
4841,-5.0,-271.0,-27.0,0
4842,-5.0,-269.0,-24.0,0
4843,-7.0,-268.0,-27.0,0
4844,-1.0,-271.0,-26.0,0
4845,-3.0,-269.0,-23.0,0
4846,-2.0,-268.0,-20.0,0
