,accelerometer_x,accelerometer_y,accelerometer_z,fall
0,17.0,-253.0,-30.0,0
1,17.0,-253.0,-29.0,0
2,18.0,-254.0,-27.0,0
3,17.0,-254.0,-32.0,0
4,16.0,-253.0,-31.0,0
5,21.0,-255.0,-32.0,0
6,17.0,-254.0,-29.0,0
7,20.0,-257.0,-31.0,0
8,17.0,-251.0,-28.0,0
9,17.0,-255.0,-30.0,0
10,19.0,-257.0,-32.0,0
11,19.0,-255.0,-26.0,0
12,19.0,-255.0,-31.0,0
13,20.0,-253.0,-27.0,0
14,18.0,-253.0,-31.0,0
15,17.0,-256.0,-33.0,0
16,16.0,-253.0,-27.0,0
17,16.0,-255.0,-32.0,0
18,16.0,-253.0,-29.0,0
19,16.0,-253.0,-32.0,0
20,19.0,-254.0,-28.0,0
21,18.0,-256.0,-28.0,0
22,19.0,-256.0,-31.0,0
23,18.0,-252.0,-28.0,0
24,20.0,-255.0,-31.0,0
25,19.0,-253.0,-32.0,0
26,17.0,-252.0,-29.0,0
27,18.0,-254.0,-28.0,0
28,17.0,-254.0,-27.0,0
29,21.0,-256.0,-31.0,0
30,17.0,-257.0,-27.0,0
31,21.0,-255.0,-31.0,0
32,19.0,-256.0,-29.0,0
33,17.0,-256.0,-33.0,0
34,18.0,-252.0,-27.0,0
35,15.0,-251.0,-27.0,0
36,20.0,-255.0,-30.0,0
37,18.0,-255.0,-29.0,0
38,16.0,-251.0,-25.0,0
39,20.0,-256.0,-27.0,0
40,17.0,-253.0,-27.0,0
41,19.0,-257.0,-27.0,0
42,18.0,-253.0,-32.0,0
43,19.0,-254.0,-28.0,0
44,18.0,-254.0,-29.0,0
45,18.0,-253.0,-26.0,0
46,19.0,-255.0,-28.0,0
47,20.0,-254.0,-30.0,0
48,19.0,-252.0,-32.0,0
49,19.0,-255.0,-26.0,0
50,18.0,-256.0,-27.0,0
51,19.0,-260.0,-27.0,0
52,20.0,-257.0,-26.0,0
53,20.0,-256.0,-23.0,0
54,17.0,-254.0,-28.0,0
55,18.0,-257.0,-23.0,0
56,19.0,-253.0,-26.0,0
57,22.0,-253.0,-26.0,0
58,19.0,-250.0,-27.0,0
59,18.0,-252.0,-27.0,0
60,22.0,-253.0,-28.0,0
61,22.0,-252.0,-29.0,0
62,20.0,-252.0,-29.0,0
63,22.0,-254.0,-25.0,0
64,18.0,-254.0,-28.0,0
65,18.0,-254.0,-27.0,0
66,19.0,-254.0,-28.0,0
67,21.0,-257.0,-23.0,0
68,19.0,-257.0,-26.0,0
69,20.0,-257.0,-24.0,0
70,22.0,-260.0,-29.0,0
71,21.0,-257.0,-27.0,0
72,20.0,-257.0,-28.0,0
73,17.0,-253.0,-29.0,0
74,19.0,-254.0,-28.0,0
75,20.0,-255.0,-28.0,0
76,20.0,-257.0,-30.0,0
77,17.0,-253.0,-31.0,0
78,22.0,-256.0,-28.0,0
79,16.0,-254.0,-25.0,0
80,21.0,-255.0,-27.0,0
81,22.0,-252.0,-27.0,0
82,20.0,-253.0,-26.0,0
83,21.0,-256.0,-27.0,0
84,19.0,-256.0,-26.0,0
85,17.0,-254.0,-22.0,0
86,21.0,-255.0,-25.0,0
87,18.0,-255.0,-26.0,0
88,22.0,-253.0,-25.0,0
89,18.0,-252.0,-25.0,0
90,22.0,-256.0,-24.0,0
91,21.0,-253.0,-25.0,0
92,18.0,-252.0,-27.0,0
93,21.0,-252.0,-26.0,0
94,19.0,-254.0,-24.0,0
95,21.0,-254.0,-23.0,0
96,19.0,-251.0,-22.0,0
97,18.0,-255.0,-25.0,0
98,18.0,-254.0,-26.0,0
99,19.0,-254.0,-26.0,0
100,20.0,-255.0,-27.0,0
101,19.0,-252.0,-26.0,0
102,21.0,-256.0,-23.0,0
103,19.0,-254.0,-25.0,0
104,20.0,-253.0,-25.0,0
105,21.0,-254.0,-27.0,0
106,20.0,-254.0,-25.0,0
107,18.0,-256.0,-24.0,0
108,19.0,-259.0,-23.0,0
109,21.0,-258.0,-22.0,0
110,20.0,-260.0,-26.0,0
111,20.0,-260.0,-22.0,0
112,18.0,-249.0,-26.0,0
113,20.0,-256.0,-25.0,0
114,18.0,-255.0,-25.0,0
115,20.0,-253.0,-22.0,0
116,21.0,-254.0,-28.0,0
117,17.0,-255.0,-22.0,0
118,17.0,-254.0,-25.0,0
119,19.0,-253.0,-24.0,0
120,18.0,-251.0,-24.0,0
121,18.0,-251.0,-25.0,0
122,18.0,-251.0,-25.0,0
123,22.0,-254.0,-23.0,0
124,20.0,-253.0,-24.0,0
125,22.0,-257.0,-24.0,0
126,16.0,-252.0,-22.0,0
127,18.0,-254.0,-22.0,0
128,18.0,-253.0,-25.0,0
129,23.0,-255.0,-27.0,0
130,18.0,-257.0,-23.0,0
131,17.0,-255.0,-22.0,0
132,20.0,-253.0,-22.0,0
133,21.0,-256.0,-25.0,0
134,16.0,-253.0,-26.0,0
135,23.0,-253.0,-18.0,0
136,17.0,-254.0,-24.0,0
137,17.0,-252.0,-26.0,0
138,17.0,-253.0,-27.0,0
139,21.0,-256.0,-26.0,0
140,19.0,-253.0,-25.0,0
141,21.0,-254.0,-26.0,0
142,18.0,-256.0,-24.0,0
143,21.0,-253.0,-24.0,0
144,18.0,-255.0,-30.0,0
145,20.0,-255.0,-25.0,0
146,19.0,-246.0,-29.0,0
147,20.0,-254.0,-27.0,0
148,20.0,-256.0,-28.0,0
149,17.0,-254.0,-24.0,0
150,22.0,-253.0,-28.0,0
151,21.0,-256.0,-23.0,0
152,18.0,-255.0,-27.0,0
153,18.0,-252.0,-25.0,0
154,20.0,-253.0,-29.0,0
155,19.0,-252.0,-24.0,0
156,20.0,-254.0,-27.0,0
157,20.0,-261.0,-31.0,0
158,17.0,-252.0,-27.0,0
159,19.0,-254.0,-23.0,0
160,18.0,-252.0,-26.0,0
161,19.0,-254.0,-28.0,0
162,20.0,-252.0,-26.0,0
163,23.0,-255.0,-26.0,0
164,17.0,-256.0,-26.0,0
165,21.0,-256.0,-27.0,0
166,21.0,-256.0,-22.0,0
167,19.0,-253.0,-27.0,0
168,21.0,-259.0,-27.0,0
169,19.0,-255.0,-22.0,0
170,21.0,-258.0,-25.0,0
171,19.0,-257.0,-26.0,0
172,19.0,-254.0,-22.0,0
173,19.0,-260.0,-29.0,0
174,18.0,-258.0,-24.0,0
175,23.0,-259.0,-25.0,0
176,20.0,-256.0,-25.0,0
177,20.0,-254.0,-21.0,0
178,20.0,-256.0,-20.0,0
179,15.0,-256.0,-20.0,0
180,20.0,-256.0,-23.0,0
181,22.0,-255.0,-20.0,0
182,21.0,-255.0,-20.0,0
183,21.0,-256.0,-25.0,0
184,22.0,-254.0,-26.0,0
185,21.0,-255.0,-25.0,0
186,19.0,-254.0,-27.0,0
187,23.0,-256.0,-25.0,0
188,21.0,-256.0,-24.0,0
189,21.0,-258.0,-22.0,0
190,22.0,-257.0,-23.0,0
191,22.0,-255.0,-25.0,0
192,17.0,-257.0,-24.0,0
193,18.0,-254.0,-23.0,0
194,19.0,-257.0,-20.0,0
195,23.0,-256.0,-23.0,0
196,23.0,-256.0,-24.0,0
197,23.0,-252.0,-22.0,0
198,20.0,-253.0,-25.0,0
199,19.0,-251.0,-25.0,0
200,20.0,-250.0,-26.0,0
201,18.0,-246.0,-25.0,0
202,18.0,-252.0,-24.0,0
203,20.0,-252.0,-26.0,0
204,20.0,-256.0,-28.0,0
205,22.0,-254.0,-28.0,0
206,22.0,-255.0,-30.0,0
207,22.0,-255.0,-28.0,0
208,20.0,-253.0,-30.0,0
209,21.0,-260.0,-29.0,0
210,20.0,-256.0,-26.0,0
211,20.0,-255.0,-27.0,0
212,21.0,-258.0,-29.0,0
213,22.0,-253.0,-30.0,0
214,20.0,-256.0,-28.0,0
215,22.0,-256.0,-27.0,0
216,20.0,-252.0,-33.0,0
217,18.0,-251.0,-29.0,0
218,19.0,-254.0,-28.0,0
219,21.0,-251.0,-32.0,0
220,21.0,-254.0,-32.0,0
221,22.0,-254.0,-26.0,0
222,19.0,-260.0,-27.0,0
223,22.0,-250.0,-29.0,0
224,21.0,-252.0,-31.0,0
225,19.0,-252.0,-32.0,0
226,21.0,-251.0,-27.0,0
227,20.0,-252.0,-32.0,0
228,22.0,-254.0,-25.0,0
229,18.0,-256.0,-31.0,0
230,20.0,-252.0,-33.0,0
231,19.0,-256.0,-33.0,0
232,19.0,-254.0,-29.0,0
233,21.0,-256.0,-29.0,0
234,18.0,-256.0,-30.0,0
235,21.0,-259.0,-28.0,0
236,21.0,-254.0,-27.0,0
237,19.0,-257.0,-28.0,0
238,22.0,-259.0,-26.0,0
239,21.0,-257.0,-31.0,0
240,21.0,-255.0,-31.0,0
241,19.0,-257.0,-28.0,0
242,21.0,-252.0,-26.0,0
243,20.0,-254.0,-32.0,0
244,23.0,-256.0,-29.0,0
245,21.0,-252.0,-30.0,0
246,20.0,-253.0,-30.0,0
247,24.0,-254.0,-31.0,0
248,20.0,-250.0,-33.0,0
249,22.0,-255.0,-30.0,0
250,21.0,-253.0,-33.0,0
251,20.0,-253.0,-31.0,0
252,18.0,-253.0,-28.0,0
253,19.0,-254.0,-30.0,0
254,21.0,-255.0,-28.0,0
255,19.0,-253.0,-24.0,0
256,18.0,-253.0,-27.0,0
257,22.0,-252.0,-30.0,0
258,20.0,-250.0,-32.0,0
259,23.0,-250.0,-30.0,0
260,22.0,-252.0,-29.0,0
261,20.0,-255.0,-28.0,0
262,22.0,-252.0,-32.0,0
263,22.0,-254.0,-30.0,0
264,21.0,-252.0,-32.0,0
265,24.0,-256.0,-33.0,0
266,19.0,-253.0,-28.0,0
267,24.0,-256.0,-31.0,0
268,20.0,-253.0,-34.0,0
269,21.0,-252.0,-27.0,0
270,23.0,-256.0,-31.0,0
271,16.0,-253.0,-33.0,0
272,20.0,-253.0,-31.0,0
273,20.0,-253.0,-30.0,0
274,24.0,-254.0,-26.0,0
275,20.0,-253.0,-32.0,0
276,21.0,-254.0,-30.0,0
277,22.0,-256.0,-33.0,0
278,23.0,-255.0,-31.0,0
279,22.0,-255.0,-30.0,0
280,19.0,-253.0,-33.0,0
281,22.0,-257.0,-31.0,0
282,21.0,-253.0,-28.0,0
283,22.0,-254.0,-31.0,0
284,20.0,-254.0,-30.0,0
285,20.0,-253.0,-34.0,0
286,21.0,-254.0,-33.0,0
287,22.0,-254.0,-31.0,0
288,24.0,-258.0,-27.0,0
289,22.0,-255.0,-30.0,0
290,24.0,-256.0,-33.0,0
291,23.0,-255.0,-30.0,0
292,22.0,-257.0,-33.0,0
293,21.0,-258.0,-33.0,0
294,21.0,-255.0,-32.0,0
295,20.0,-255.0,-28.0,0
296,20.0,-256.0,-30.0,0
297,21.0,-255.0,-28.0,0
298,27.0,-256.0,-29.0,0
299,22.0,-254.0,-29.0,0
300,20.0,-255.0,-30.0,0
301,19.0,-255.0,-29.0,0
302,19.0,-256.0,-28.0,0
303,21.0,-256.0,-29.0,0
304,19.0,-255.0,-32.0,0
305,20.0,-252.0,-32.0,0
306,23.0,-255.0,-29.0,0
307,22.0,-252.0,-24.0,0
308,21.0,-255.0,-26.0,0
309,24.0,-255.0,-30.0,0
310,20.0,-254.0,-25.0,0
311,19.0,-255.0,-28.0,0
312,20.0,-256.0,-35.0,0
313,21.0,-255.0,-28.0,0
314,22.0,-256.0,-27.0,0
315,20.0,-253.0,-32.0,0
316,23.0,-254.0,-27.0,0
317,22.0,-254.0,-30.0,0
318,21.0,-253.0,-28.0,0
319,22.0,-255.0,-28.0,0
320,23.0,-255.0,-30.0,0
321,21.0,-254.0,-29.0,0
322,21.0,-252.0,-31.0,0
323,23.0,-256.0,-27.0,0
324,23.0,-253.0,-26.0,0
325,24.0,-256.0,-31.0,0
326,24.0,-256.0,-30.0,0
327,22.0,-255.0,-32.0,0
328,25.0,-255.0,-29.0,0
329,21.0,-253.0,-25.0,0
330,14.0,-255.0,-33.0,0
331,21.0,-257.0,-28.0,0
332,19.0,-254.0,-26.0,0
333,22.0,-256.0,-25.0,0
334,21.0,-255.0,-31.0,0
335,23.0,-255.0,-30.0,0
336,21.0,-253.0,-25.0,0
337,19.0,-255.0,-30.0,0
338,23.0,-255.0,-25.0,0
339,22.0,-257.0,-33.0,0
340,19.0,-252.0,-32.0,0
341,21.0,-254.0,-33.0,0
342,22.0,-254.0,-30.0,0
343,18.0,-254.0,-29.0,0
344,23.0,-255.0,-26.0,0
345,21.0,-256.0,-24.0,0
346,19.0,-252.0,-32.0,0
347,20.0,-253.0,-27.0,0
348,20.0,-255.0,-26.0,0
349,21.0,-257.0,-25.0,0
350,19.0,-256.0,-23.0,0
351,21.0,-255.0,-27.0,0
352,19.0,-255.0,-28.0,0
353,20.0,-253.0,-30.0,0
354,21.0,-256.0,-30.0,0
355,22.0,-257.0,-27.0,0
356,18.0,-253.0,-27.0,0
357,20.0,-257.0,-31.0,0
358,20.0,-254.0,-27.0,0
359,20.0,-254.0,-28.0,0
360,22.0,-255.0,-30.0,0
361,20.0,-252.0,-26.0,0
362,20.0,-251.0,-27.0,0
363,23.0,-255.0,-27.0,0
364,22.0,-256.0,-31.0,0
365,23.0,-253.0,-25.0,0
366,20.0,-254.0,-30.0,0
367,21.0,-252.0,-26.0,0
368,25.0,-256.0,-27.0,0
369,23.0,-252.0,-23.0,0
370,19.0,-254.0,-30.0,0
371,21.0,-256.0,-29.0,0
372,21.0,-254.0,-29.0,0
373,20.0,-254.0,-25.0,0
374,21.0,-256.0,-27.0,0
375,23.0,-255.0,-23.0,0
376,20.0,-254.0,-30.0,0
377,20.0,-256.0,-26.0,0
378,21.0,-253.0,-30.0,0
379,23.0,-252.0,-30.0,0
380,22.0,-253.0,-29.0,0
381,19.0,-253.0,-26.0,0
382,19.0,-250.0,-25.0,0
383,19.0,-252.0,-26.0,0
384,22.0,-250.0,-22.0,0
385,22.0,-254.0,-28.0,0
386,22.0,-253.0,-25.0,0
387,20.0,-256.0,-22.0,0
388,18.0,-255.0,-26.0,0
389,20.0,-258.0,-20.0,0
390,22.0,-257.0,-27.0,0
391,21.0,-259.0,-26.0,0
392,21.0,-258.0,-22.0,0
393,17.0,-255.0,-25.0,0
394,20.0,-259.0,-21.0,0
395,19.0,-257.0,-21.0,0
396,20.0,-256.0,-24.0,0
397,21.0,-252.0,-25.0,0
398,22.0,-254.0,-26.0,0
399,21.0,-252.0,-24.0,0
400,19.0,-252.0,-27.0,0
401,23.0,-252.0,-28.0,0
402,22.0,-252.0,-28.0,0
403,22.0,-255.0,-27.0,0
404,22.0,-252.0,-27.0,0
405,19.0,-256.0,-21.0,0
406,21.0,-254.0,-25.0,0
407,20.0,-257.0,-25.0,0
408,20.0,-256.0,-23.0,0
409,21.0,-259.0,-25.0,0
410,22.0,-258.0,-21.0,0
411,20.0,-254.0,-22.0,0
412,22.0,-256.0,-24.0,0
413,20.0,-254.0,-23.0,0
414,22.0,-249.0,-21.0,0
415,21.0,-252.0,-20.0,0
416,22.0,-252.0,-23.0,0
417,20.0,-252.0,-19.0,0
418,17.0,-255.0,-24.0,0
419,25.0,-256.0,-21.0,0
420,19.0,-253.0,-24.0,0
421,18.0,-252.0,-21.0,0
422,21.0,-255.0,-26.0,0
423,21.0,-256.0,-21.0,0
424,25.0,-256.0,-22.0,0
425,22.0,-256.0,-24.0,0
426,19.0,-254.0,-22.0,0
427,24.0,-255.0,-21.0,0
428,23.0,-254.0,-22.0,0
429,18.0,-254.0,-24.0,0
430,20.0,-252.0,-22.0,0
431,22.0,-255.0,-24.0,0
432,23.0,-253.0,-22.0,0
433,19.0,-252.0,-21.0,0
434,20.0,-256.0,-21.0,0
435,20.0,-253.0,-26.0,0
436,19.0,-253.0,-20.0,0
437,20.0,-253.0,-22.0,0
438,21.0,-253.0,-20.0,0
439,21.0,-257.0,-24.0,0
440,19.0,-259.0,-22.0,0
441,19.0,-256.0,-22.0,0
442,22.0,-256.0,-23.0,0
443,19.0,-257.0,-21.0,0
444,21.0,-259.0,-20.0,0
445,20.0,-255.0,-20.0,0
446,22.0,-257.0,-23.0,0
447,19.0,-255.0,-20.0,0
448,22.0,-256.0,-19.0,0
449,23.0,-254.0,-20.0,0
450,21.0,-252.0,-22.0,0
451,21.0,-253.0,-21.0,0
452,23.0,-253.0,-19.0,0
453,23.0,-253.0,-21.0,0
454,22.0,-252.0,-21.0,0
455,23.0,-256.0,-20.0,0
456,21.0,-258.0,-20.0,0
457,21.0,-254.0,-24.0,0
458,22.0,-255.0,-20.0,0
459,18.0,-250.0,-20.0,0
460,18.0,-254.0,-18.0,0
461,21.0,-255.0,-18.0,0
462,20.0,-255.0,-21.0,0
463,23.0,-257.0,-20.0,0
464,18.0,-253.0,-20.0,0
465,17.0,-253.0,-24.0,0
466,23.0,-256.0,-20.0,0
467,22.0,-255.0,-19.0,0
468,23.0,-256.0,-19.0,0
469,21.0,-254.0,-19.0,0
470,21.0,-253.0,-19.0,0
471,21.0,-253.0,-18.0,0
472,20.0,-253.0,-20.0,0
473,20.0,-255.0,-18.0,0
474,21.0,-254.0,-20.0,0
475,18.0,-254.0,-21.0,0
476,20.0,-254.0,-19.0,0
477,20.0,-256.0,-16.0,0
478,22.0,-255.0,-20.0,0
479,19.0,-256.0,-19.0,0
480,22.0,-257.0,-21.0,0
481,21.0,-258.0,-18.0,0
482,19.0,-253.0,-20.0,0
483,21.0,-256.0,-15.0,0
484,19.0,-249.0,-18.0,0
485,20.0,-254.0,-24.0,0
486,22.0,-257.0,-18.0,0
487,20.0,-256.0,-19.0,0
488,18.0,-254.0,-20.0,0
489,21.0,-255.0,-19.0,0
490,19.0,-253.0,-19.0,0
491,22.0,-255.0,-16.0,0
492,21.0,-256.0,-20.0,0
493,21.0,-253.0,-14.0,0
494,17.0,-251.0,-19.0,0
495,21.0,-255.0,-17.0,0
496,22.0,-257.0,-16.0,0
497,24.0,-258.0,-19.0,0
498,20.0,-258.0,-16.0,0
499,20.0,-256.0,-18.0,0
500,20.0,-255.0,-17.0,0
501,21.0,-257.0,-19.0,0
502,20.0,-254.0,-18.0,0
503,21.0,-257.0,-18.0,0
504,20.0,-257.0,-12.0,0
505,22.0,-258.0,-18.0,0
506,17.0,-256.0,-17.0,0
507,20.0,-255.0,-19.0,0
508,21.0,-259.0,-19.0,0
509,19.0,-259.0,-14.0,0
510,19.0,-255.0,-18.0,0
511,18.0,-256.0,-18.0,0
512,19.0,-255.0,-15.0,0
513,17.0,-254.0,-15.0,0
514,21.0,-255.0,-16.0,0
515,23.0,-257.0,-15.0,0
516,18.0,-256.0,-17.0,0
517,24.0,-256.0,-15.0,0
518,21.0,-254.0,-15.0,0
519,21.0,-256.0,-20.0,0
520,17.0,-255.0,-17.0,0
521,21.0,-256.0,-17.0,0
522,17.0,-254.0,-16.0,0
523,19.0,-256.0,-16.0,0
524,18.0,-258.0,-15.0,0
525,22.0,-254.0,-14.0,0
526,20.0,-259.0,-17.0,0
527,22.0,-257.0,-17.0,0
528,20.0,-254.0,-16.0,0
529,22.0,-257.0,-18.0,0
530,22.0,-253.0,-17.0,0
531,21.0,-255.0,-16.0,0
532,18.0,-256.0,-12.0,0
533,21.0,-255.0,-14.0,0
534,21.0,-256.0,-16.0,0
535,21.0,-255.0,-18.0,0
536,21.0,-257.0,-15.0,0
537,20.0,-257.0,-16.0,0
538,21.0,-254.0,-15.0,0
539,21.0,-252.0,-15.0,0
540,21.0,-253.0,-16.0,0
541,21.0,-253.0,-15.0,0
542,23.0,-255.0,-16.0,0
543,21.0,-251.0,-14.0,0
544,22.0,-257.0,-17.0,0
545,22.0,-255.0,-15.0,0
546,23.0,-254.0,-15.0,0
547,23.0,-251.0,-19.0,0
548,22.0,-254.0,-14.0,0
549,22.0,-254.0,-16.0,0
550,21.0,-255.0,-16.0,0
551,21.0,-257.0,-13.0,0
552,17.0,-255.0,-14.0,0
553,20.0,-256.0,-14.0,0
554,19.0,-253.0,-16.0,0
555,19.0,-255.0,-13.0,0
556,21.0,-255.0,-15.0,0
557,22.0,-254.0,-10.0,0
558,19.0,-255.0,-14.0,0
559,21.0,-254.0,-15.0,0
560,20.0,-252.0,-15.0,0
561,21.0,-253.0,-16.0,0
562,21.0,-252.0,-12.0,0
563,21.0,-254.0,-14.0,0
564,21.0,-256.0,-13.0,0
565,22.0,-257.0,-14.0,0
566,21.0,-256.0,-17.0,0
567,19.0,-257.0,-12.0,0
568,21.0,-257.0,-12.0,0
569,22.0,-258.0,-9.0,0
570,25.0,-261.0,-12.0,0
571,26.0,-255.0,-15.0,0
572,21.0,-258.0,-13.0,0
573,23.0,-255.0,-13.0,0
574,22.0,-254.0,-15.0,0
575,19.0,-255.0,-15.0,0
576,23.0,-256.0,-15.0,0
577,21.0,-254.0,-12.0,0
578,23.0,-258.0,-13.0,0
579,21.0,-257.0,-10.0,0
580,18.0,-256.0,-12.0,0
581,20.0,-252.0,-13.0,0
582,21.0,-255.0,-15.0,0
583,19.0,-256.0,-11.0,0
584,19.0,-255.0,-11.0,0
585,21.0,-256.0,-8.0,0
586,20.0,-257.0,-11.0,0
587,20.0,-254.0,-11.0,0
588,19.0,-254.0,-10.0,0
589,19.0,-254.0,-11.0,0
590,22.0,-255.0,-9.0,0
591,19.0,-255.0,-11.0,0
592,18.0,-254.0,-14.0,0
593,24.0,-253.0,-4.0,0
594,20.0,-253.0,-9.0,0
595,20.0,-257.0,-9.0,0
596,22.0,-256.0,-7.0,0
597,19.0,-254.0,-7.0,0
598,22.0,-256.0,-9.0,0
599,21.0,-257.0,-8.0,0
600,16.0,-254.0,-9.0,0
601,18.0,-256.0,-6.0,0
602,20.0,-259.0,-5.0,0
603,20.0,-254.0,-9.0,0
604,19.0,-253.0,-11.0,0
605,21.0,-253.0,-5.0,0
606,22.0,-255.0,-8.0,0
607,24.0,-257.0,-5.0,0
608,21.0,-252.0,-7.0,0
609,20.0,-257.0,-6.0,0
610,22.0,-256.0,-8.0,0
611,23.0,-257.0,-6.0,0
612,18.0,-255.0,-7.0,0
613,19.0,-255.0,-4.0,0
614,24.0,-259.0,-8.0,0
615,18.0,-254.0,-7.0,0
616,19.0,-257.0,-8.0,0
617,18.0,-255.0,-7.0,0
618,19.0,-252.0,-6.0,0
619,19.0,-257.0,-6.0,0
620,22.0,-258.0,-2.0,0
621,17.0,-255.0,-5.0,0
622,18.0,-254.0,-4.0,0
623,18.0,-255.0,-3.0,0
624,22.0,-256.0,-3.0,0
625,22.0,-257.0,-4.0,0
626,19.0,-255.0,-7.0,0
627,21.0,-257.0,-3.0,0
628,22.0,-255.0,-4.0,0
629,23.0,-256.0,-4.0,0
630,20.0,-257.0,-2.0,0
631,22.0,-258.0,0.0,0
632,20.0,-259.0,-3.0,0
633,22.0,-257.0,1.0,0
634,20.0,-258.0,1.0,0
635,18.0,-257.0,-3.0,0
636,25.0,-260.0,6.0,0
637,21.0,-256.0,-3.0,0
638,20.0,-255.0,-2.0,0
639,23.0,-255.0,1.0,0
640,22.0,-256.0,4.0,0
641,19.0,-252.0,3.0,0
642,21.0,-255.0,0.0,0
643,20.0,-256.0,2.0,0
644,20.0,-257.0,-2.0,0
645,21.0,-257.0,3.0,0
646,21.0,-256.0,3.0,0
647,22.0,-257.0,1.0,0
648,21.0,-256.0,2.0,0
649,18.0,-257.0,3.0,0
650,22.0,-258.0,2.0,0
651,20.0,-256.0,6.0,0
652,23.0,-257.0,3.0,0
653,20.0,-257.0,8.0,0
654,21.0,-252.0,5.0,0
655,24.0,-254.0,8.0,0
656,20.0,-253.0,4.0,0
657,21.0,-255.0,6.0,0
658,25.0,-256.0,8.0,0
659,21.0,-255.0,8.0,0
660,22.0,-259.0,6.0,0
661,20.0,-256.0,5.0,0
662,23.0,-258.0,8.0,0
663,23.0,-257.0,7.0,0
664,21.0,-258.0,3.0,0
665,22.0,-258.0,9.0,0
666,21.0,-255.0,12.0,0
667,20.0,-258.0,13.0,0
668,25.0,-258.0,9.0,0
669,21.0,-257.0,9.0,0
670,22.0,-260.0,10.0,0
671,21.0,-257.0,13.0,0
672,23.0,-260.0,10.0,0
673,18.0,-256.0,12.0,0
674,20.0,-259.0,9.0,0
675,23.0,-259.0,15.0,0
676,22.0,-260.0,12.0,0
677,22.0,-259.0,16.0,0
678,17.0,-259.0,18.0,0
679,16.0,-261.0,15.0,0
680,20.0,-261.0,11.0,0
681,15.0,-260.0,10.0,0
682,19.0,-260.0,10.0,0
683,18.0,-257.0,12.0,0
684,22.0,-259.0,10.0,0
685,20.0,-254.0,12.0,0
686,20.0,-254.0,15.0,0
687,16.0,-253.0,17.0,0
688,22.0,-250.0,17.0,0
689,17.0,-250.0,22.0,0
690,16.0,-251.0,21.0,0
691,16.0,-252.0,26.0,0
692,15.0,-255.0,20.0,0
693,12.0,-252.0,19.0,0
694,14.0,-256.0,26.0,0
695,13.0,-251.0,23.0,0
696,16.0,-257.0,29.0,0
697,9.0,-252.0,29.0,0
698,12.0,-255.0,27.0,0
699,9.0,-253.0,33.0,0
700,13.0,-257.0,32.0,0
701,13.0,-255.0,38.0,0
702,16.0,-253.0,33.0,0
703,14.0,-254.0,34.0,0
704,14.0,-249.0,35.0,0
705,18.0,-247.0,32.0,0
706,21.0,-243.0,27.0,0
707,21.0,-235.0,24.0,0
708,24.0,-231.0,24.0,0
709,24.0,-225.0,28.0,0
710,24.0,-224.0,28.0,0
711,23.0,-227.0,32.0,0
712,23.0,-234.0,34.0,0
713,22.0,-244.0,43.0,0
714,23.0,-247.0,48.0,0
715,25.0,-250.0,45.0,0
716,25.0,-249.0,41.0,0
717,24.0,-248.0,38.0,0
718,24.0,-248.0,38.0,0
719,26.0,-249.0,40.0,0
720,25.0,-248.0,41.0,0
721,27.0,-249.0,42.0,0
722,22.0,-250.0,43.0,0
723,22.0,-254.0,45.0,0
724,22.0,-255.0,45.0,0
725,21.0,-255.0,44.0,0
726,20.0,-256.0,43.0,0
727,21.0,-257.0,44.0,0
728,19.0,-255.0,44.0,0
729,16.0,-252.0,44.0,0
730,19.0,-252.0,41.0,0
731,15.0,-248.0,42.0,0
732,16.0,-246.0,39.0,0
733,20.0,-246.0,40.0,0
734,20.0,-248.0,41.0,0
735,16.0,-243.0,41.0,0
736,16.0,-250.0,45.0,0
737,20.0,-254.0,43.0,0
738,18.0,-254.0,40.0,0
739,18.0,-254.0,41.0,0
740,18.0,-249.0,43.0,0
741,14.0,-246.0,44.0,0
742,17.0,-248.0,48.0,0
743,17.0,-248.0,53.0,0
744,16.0,-247.0,52.0,0
745,20.0,-247.0,48.0,0
746,19.0,-246.0,50.0,0
747,17.0,-246.0,45.0,0
748,21.0,-247.0,45.0,0
749,18.0,-248.0,51.0,0
750,17.0,-251.0,51.0,0
751,13.0,-247.0,55.0,0
752,14.0,-245.0,55.0,0
753,13.0,-243.0,59.0,0
754,12.0,-246.0,61.0,0
755,9.0,-240.0,60.0,0
756,14.0,-242.0,58.0,0
757,10.0,-239.0,59.0,0
758,13.0,-242.0,59.0,0
759,17.0,-239.0,54.0,0
760,10.0,-244.0,51.0,0
761,13.0,-240.0,56.0,0
762,13.0,-241.0,56.0,0
763,12.0,-246.0,60.0,0
764,14.0,-245.0,59.0,0
765,11.0,-244.0,61.0,0
766,11.0,-247.0,62.0,0
767,5.0,-247.0,61.0,0
768,11.0,-247.0,64.0,0
769,8.0,-248.0,64.0,0
770,7.0,-247.0,62.0,0
771,7.0,-248.0,61.0,0
772,6.0,-251.0,63.0,0
773,4.0,-248.0,57.0,0
774,4.0,-248.0,59.0,0
775,4.0,-247.0,65.0,0
776,4.0,-248.0,68.0,0
777,2.0,-252.0,65.0,0
778,2.0,-246.0,63.0,0
779,4.0,-248.0,67.0,0
780,5.0,-246.0,64.0,0
781,4.0,-247.0,70.0,0
782,7.0,-247.0,70.0,0
783,7.0,-245.0,74.0,0
784,5.0,-241.0,66.0,0
785,11.0,-242.0,67.0,0
786,7.0,-239.0,64.0,0
787,8.0,-242.0,70.0,0
788,11.0,-243.0,69.0,0
789,6.0,-239.0,73.0,0
790,9.0,-242.0,72.0,0
791,8.0,-238.0,74.0,0
792,7.0,-238.0,74.0,0
793,3.0,-239.0,76.0,0
794,5.0,-239.0,78.0,0
795,5.0,-237.0,77.0,0
796,10.0,-235.0,77.0,0
797,6.0,-232.0,82.0,0
798,6.0,-235.0,80.0,0
799,8.0,-233.0,81.0,0
800,3.0,-235.0,79.0,0
801,8.0,-235.0,80.0,0
802,6.0,-236.0,81.0,0
803,5.0,-236.0,88.0,0
804,3.0,-234.0,84.0,0
805,8.0,-237.0,81.0,0
806,4.0,-234.0,84.0,0
807,12.0,-234.0,84.0,0
808,7.0,-228.0,86.0,0
809,7.0,-227.0,92.0,0
810,4.0,-224.0,89.0,0
811,2.0,-223.0,88.0,0
812,4.0,-223.0,93.0,0
813,2.0,-222.0,98.0,0
814,6.0,-223.0,100.0,0
815,2.0,-220.0,98.0,0
816,3.0,-226.0,100.0,0
817,7.0,-226.0,104.0,0
818,6.0,-225.0,105.0,0
819,7.0,-225.0,102.0,0
820,7.0,-225.0,101.0,0
821,7.0,-226.0,105.0,0
822,7.0,-226.0,101.0,0
823,5.0,-222.0,104.0,0
824,7.0,-222.0,106.0,0
825,5.0,-218.0,106.0,0
826,6.0,-214.0,111.0,0
827,2.0,-212.0,110.0,0
828,7.0,-208.0,108.0,0
829,4.0,-208.0,109.0,0
830,9.0,-208.0,117.0,0
831,5.0,-209.0,118.0,0
832,6.0,-211.0,114.0,0
833,6.0,-214.0,116.0,0
834,9.0,-213.0,117.0,0
835,9.0,-215.0,122.0,0
836,3.0,-219.0,122.0,0
837,0.0,-217.0,118.0,0
838,0.0,-218.0,118.0,0
839,1.0,-214.0,120.0,0
840,0.0,-219.0,122.0,0
841,-3.0,-215.0,123.0,0
842,0.0,-213.0,122.0,0
843,1.0,-207.0,122.0,0
844,0.0,-204.0,121.0,0
845,-1.0,-201.0,122.0,0
846,-2.0,-200.0,128.0,0
847,2.0,-200.0,130.0,0
848,6.0,-203.0,130.0,0
849,5.0,-201.0,130.0,0
850,7.0,-200.0,131.0,0
851,5.0,-201.0,140.0,0
852,2.0,-201.0,141.0,0
853,9.0,-208.0,141.0,0
854,5.0,-207.0,141.0,0
855,14.0,-210.0,144.0,1
856,15.0,-205.0,147.0,1
857,16.0,-201.0,146.0,1
858,19.0,-199.0,144.0,1
859,20.0,-200.0,146.0,1
860,24.0,-201.0,149.0,1
861,22.0,-203.0,150.0,1
862,23.0,-205.0,145.0,1
863,22.0,-203.0,150.0,1
864,14.0,-198.0,152.0,1
865,13.0,-200.0,151.0,1
866,11.0,-193.0,146.0,1
867,5.0,-184.0,141.0,1
868,1.0,-176.0,139.0,1
869,-6.0,-167.0,142.0,1
870,-8.0,-160.0,146.0,1
871,-15.0,-157.0,143.0,1
872,-24.0,-155.0,148.0,1
873,-35.0,-153.0,151.0,1
874,-31.0,-157.0,148.0,1
875,-39.0,-150.0,146.0,1
876,-41.0,-149.0,154.0,1
877,-43.0,-147.0,155.0,1
878,-48.0,-142.0,154.0,1
879,-44.0,-142.0,154.0,1
880,-39.0,-144.0,152.0,1
881,-35.0,-142.0,146.0,1
882,-31.0,-137.0,150.0,1
883,-24.0,-133.0,156.0,1
884,-21.0,-130.0,157.0,1
885,-15.0,-128.0,159.0,1
886,-17.0,-127.0,164.0,1
887,-9.0,-128.0,156.0,1
888,-6.0,-125.0,161.0,1
889,-9.0,-123.0,166.0,1
890,-8.0,-129.0,174.0,1
891,-8.0,-134.0,169.0,1
892,-7.0,-137.0,160.0,1
893,-11.0,-134.0,157.0,1
894,-10.0,-132.0,156.0,1
895,-9.0,-128.0,160.0,1
896,-13.0,-125.0,159.0,1
897,-18.0,-125.0,163.0,1
898,-17.0,-120.0,173.0,1
899,-11.0,-119.0,174.0,1
900,-13.0,-113.0,177.0,1
901,-10.0,-105.0,176.0,1
902,-7.0,-99.0,179.0,1
903,-8.0,-100.0,180.0,1
904,-8.0,-108.0,175.0,1
905,0.0,-108.0,169.0,1
906,0.0,-110.0,163.0,1
907,0.0,-111.0,160.0,1
908,-3.0,-112.0,157.0,1
909,-3.0,-115.0,156.0,1
910,-3.0,-113.0,155.0,1
911,0.0,-105.0,151.0,1
912,1.0,-98.0,154.0,1
913,2.0,-89.0,157.0,1
914,1.0,-87.0,160.0,1
915,3.0,-83.0,150.0,1
916,0.0,-70.0,140.0,1
917,2.0,-62.0,130.0,1
918,0.0,-59.0,125.0,1
919,-4.0,-55.0,121.0,1
920,-10.0,-43.0,105.0,1
921,-15.0,-36.0,93.0,1
922,-15.0,-16.0,85.0,1
923,-46.0,-8.0,67.0,1
924,-57.0,4.0,62.0,1
925,-52.0,5.0,59.0,1
926,-35.0,0.0,61.0,1
927,9.0,8.0,48.0,1
928,23.0,19.0,36.0,1
929,33.0,32.0,24.0,1
930,51.0,41.0,2.0,1
931,67.0,50.0,-16.0,1
932,70.0,50.0,-17.0,1
933,45.0,54.0,-18.0,2
934,27.0,51.0,-26.0,2
935,15.0,59.0,-28.0,2
936,10.0,48.0,-32.0,2
937,21.0,37.0,-20.0,2
938,24.0,22.0,-13.0,2
939,-15.0,26.0,-2.0,2
940,-65.0,14.0,12.0,2
941,-93.0,2.0,51.0,2
942,-89.0,-22.0,84.0,2
943,-87.0,-22.0,108.0,2
944,-120.0,-10.0,147.0,2
945,-117.0,6.0,189.0,2
946,-155.0,24.0,245.0,2
947,-190.0,31.0,334.0,2
948,-238.0,34.0,457.0,2
949,-231.0,21.0,596.0,2
950,-219.0,35.0,709.0,2
951,-202.0,68.0,830.0,2
952,-218.0,110.0,1013.0,2
953,-256.0,127.0,1327.0,2
954,-317.0,143.0,1457.0,2
955,-358.0,219.0,1427.0,2
956,-427.0,377.0,1330.0,2
957,-489.0,554.0,1136.0,2
958,-456.0,679.0,789.0,2
959,-315.0,693.0,542.0,2
960,-206.0,596.0,373.0,2
961,-129.0,424.0,307.0,2
962,-68.0,214.0,305.0,2
963,-6.0,-12.0,329.0,2
964,21.0,-232.0,364.0,2
965,40.0,-420.0,403.0,2
966,45.0,-571.0,421.0,2
967,45.0,-686.0,409.0,2
968,37.0,-751.0,357.0,2
969,27.0,-756.0,277.0,2
970,-10.0,-695.0,211.0,2
971,-36.0,-582.0,152.0,2
972,-38.0,-460.0,91.0,2
973,-22.0,-351.0,50.0,2
974,-31.0,-248.0,35.0,2
975,-43.0,-143.0,29.0,2
976,-54.0,-49.0,43.0,2
977,-67.0,35.0,64.0,2
978,-72.0,112.0,101.0,2
979,-75.0,167.0,130.0,1
980,-81.0,211.0,157.0,1
981,-92.0,246.0,173.0,1
982,-100.0,259.0,188.0,1
983,-100.0,256.0,183.0,1
984,-93.0,254.0,173.0,1
985,-86.0,213.0,155.0,1
986,-77.0,185.0,129.0,1
987,-85.0,158.0,112.0,1
988,-87.0,128.0,100.0,1
989,-96.0,102.0,97.0,1
990,-101.0,69.0,97.0,1
991,-95.0,48.0,97.0,1
992,-96.0,35.0,102.0,1
993,-94.0,36.0,108.0,1
994,-87.0,38.0,113.0,1
995,-78.0,54.0,124.0,1
996,-72.0,70.0,123.0,1
997,-74.0,85.0,131.0,1
998,-83.0,107.0,146.0,1
999,-81.0,124.0,144.0,1
1000,-85.0,133.0,148.0,1
1001,-98.0,135.0,158.0,1
1002,-108.0,129.0,160.0,1
1003,-122.0,123.0,171.0,1
1004,-127.0,113.0,175.0,1
1005,-130.0,98.0,187.0,1
1006,-121.0,95.0,196.0,1
1007,-129.0,82.0,214.0,1
1008,-144.0,80.0,229.0,1
1009,-166.0,75.0,241.0,1
1010,-191.0,78.0,259.0,1
1011,-204.0,74.0,278.0,1
1012,-221.0,68.0,288.0,1
1013,-234.0,60.0,292.0,1
1014,-241.0,52.0,299.0,1
1015,-249.0,38.0,297.0,1
1016,-254.0,23.0,287.0,1
1017,-250.0,7.0,297.0,1
1018,-253.0,-7.0,291.0,1
1019,-246.0,-23.0,289.0,1
1020,-243.0,-36.0,281.0,1
1021,-230.0,-54.0,266.0,1
1022,-221.0,-63.0,259.0,1
1023,-211.0,-69.0,254.0,1
1024,-201.0,-73.0,243.0,1
1025,-190.0,-76.0,237.0,1
1026,-184.0,-76.0,227.0,1
1027,-178.0,-76.0,215.0,1
1028,-177.0,-80.0,207.0,1
1029,-152.0,-61.0,220.0,1
1030,-154.0,-59.0,214.0,1
1031,-146.0,-50.0,196.0,1
1032,-140.0,-32.0,192.0,1
1033,-130.0,-34.0,203.0,1
1034,-124.0,-17.0,200.0,1
1035,-122.0,-19.0,191.0,1
1036,-120.0,-14.0,187.0,1
1037,-115.0,-2.0,172.0,1
1038,-105.0,-3.0,183.0,1
1039,-96.0,-2.0,182.0,1
1040,-92.0,-1.0,178.0,1
1041,-89.0,-1.0,176.0,1
1042,-83.0,-2.0,182.0,1
1043,-85.0,-15.0,174.0,1
1044,-87.0,-16.0,177.0,1
1045,-98.0,-13.0,196.0,1
1046,-90.0,-16.0,182.0,1
1047,-77.0,-13.0,206.0,1
1048,-92.0,-6.0,188.0,1
1049,-83.0,-1.0,198.0,1
1050,-103.0,-27.0,205.0,1
1051,-104.0,-25.0,218.0,1
1052,-90.0,-18.0,215.0,1
1053,-97.0,-8.0,208.0,1
1054,-102.0,-5.0,215.0,1
1055,-105.0,-3.0,213.0,1
1056,-107.0,-4.0,217.0,1
1057,-116.0,-8.0,218.0,1
1058,-110.0,-10.0,231.0,1
1059,-121.0,-15.0,228.0,1
1060,-118.0,-27.0,242.0,1
1061,-117.0,-30.0,250.0,1
1062,-127.0,-39.0,234.0,1
1063,-108.0,-50.0,255.0,1
1064,-112.0,-47.0,239.0,1
1065,-104.0,-30.0,247.0,1
1066,-106.0,-29.0,231.0,1
1067,-103.0,-21.0,230.0,1
1068,-92.0,-1.0,208.0,1
1069,-119.0,-9.0,222.0,1
1070,-118.0,-8.0,222.0,1
1071,-129.0,-7.0,221.0,1
1072,-128.0,-8.0,222.0,1
1073,-124.0,-12.0,222.0,1
1074,-142.0,-15.0,221.0,1
1075,-140.0,-12.0,232.0,1
1076,-152.0,-6.0,223.0,1
1077,-159.0,-10.0,220.0,1
1078,-163.0,-14.0,218.0,1
1079,-173.0,-16.0,219.0,1
1080,-187.0,-21.0,210.0,1
1081,-190.0,-20.0,208.0,1
1082,-187.0,-32.0,208.0,1
1083,-186.0,-34.0,203.0,1
1084,-185.0,-42.0,197.0,1
1085,-179.0,-49.0,195.0,1
1086,-182.0,-54.0,188.0,1
1087,-171.0,-55.0,186.0,1
1088,-180.0,-61.0,176.0,1
1089,-177.0,-50.0,175.0,1
1090,-148.0,-33.0,161.0,1
1091,-163.0,-20.0,166.0,1
1092,-158.0,-19.0,165.0,1
1093,-153.0,-5.0,156.0,1
1094,-164.0,-5.0,152.0,1
1095,-154.0,4.0,147.0,1
1096,-164.0,8.0,151.0,1
1097,-170.0,1.0,145.0,1
1098,-167.0,3.0,132.0,1
1099,-180.0,-7.0,143.0,1
1100,-167.0,-14.0,149.0,1
1101,-162.0,-21.0,157.0,1
1102,-156.0,-24.0,169.0,1
1103,-157.0,-28.0,169.0,1
1104,-161.0,-19.0,164.0,1
1105,-164.0,-17.0,170.0,1
1106,-162.0,-18.0,170.0,1
1107,-163.0,-6.0,170.0,1
1108,-176.0,0.0,157.0,1
1109,-191.0,7.0,151.0,1
1110,-198.0,11.0,140.0,1
1111,-200.0,13.0,140.0,1
1112,-206.0,-2.0,150.0,1
1113,-214.0,9.0,141.0,1
1114,-217.0,-15.0,142.0,1
1115,-220.0,-13.0,151.0,1
1116,-203.0,-13.0,147.0,1
1117,-213.0,-33.0,162.0,1
1118,-204.0,-37.0,169.0,1
1119,-197.0,-41.0,177.0,1
1120,-193.0,-49.0,184.0,1
1121,-188.0,-46.0,188.0,1
1122,-184.0,-49.0,196.0,1
1123,-183.0,-50.0,197.0,1
1124,-180.0,-51.0,192.0,1
1125,-174.0,-51.0,192.0,1
1126,-178.0,-46.0,182.0,1
1127,-179.0,-41.0,181.0,1
1128,-178.0,-38.0,178.0,1
1129,-182.0,-33.0,177.0,1
1130,-167.0,-27.0,174.0,1
1131,-188.0,-23.0,177.0,1
1132,-189.0,-18.0,172.0,1
1133,-188.0,-6.0,176.0,1
1134,-191.0,-5.0,175.0,1
1135,-194.0,0.0,180.0,1
1136,-198.0,8.0,180.0,1
1137,-198.0,5.0,176.0,1
1138,-199.0,8.0,181.0,1
1139,-205.0,8.0,193.0,1
1140,-198.0,7.0,182.0,1
1141,-195.0,-1.0,183.0,1
1142,-194.0,-6.0,187.0,1
1143,-190.0,-16.0,187.0,1
1144,-187.0,-18.0,185.0,1
1145,-182.0,-29.0,189.0,1
1146,-172.0,-32.0,190.0,1
1147,-168.0,-34.0,189.0,1
1148,-160.0,-35.0,192.0,1
1149,-152.0,-41.0,193.0,1
1150,-149.0,-35.0,194.0,1
1151,-142.0,-32.0,196.0,1
1152,-132.0,-34.0,193.0,1
1153,-129.0,-31.0,198.0,1
1154,-128.0,-31.0,193.0,1
1155,-124.0,-30.0,198.0,1
1156,-118.0,-29.0,193.0,1
1157,-117.0,-26.0,205.0,1
1158,-111.0,-24.0,201.0,1
1159,-108.0,-24.0,203.0,1
1160,-107.0,-24.0,200.0,1
1161,-106.0,-22.0,209.0,1
1162,-108.0,-23.0,215.0,1
1163,-104.0,-23.0,216.0,1
1164,-102.0,-23.0,213.0,1
1165,-102.0,-25.0,219.0,1
1166,-101.0,-24.0,218.0,1
1167,-101.0,-27.0,226.0,1
1168,-106.0,-22.0,228.0,1
1169,-108.0,-26.0,226.0,1
1170,-105.0,-29.0,225.0,1
1171,-107.0,-29.0,234.0,1
1172,-105.0,-29.0,230.0,1
1173,-107.0,-28.0,230.0,1
1174,-109.0,-28.0,230.0,1
1175,-108.0,-32.0,230.0,1
1176,-104.0,-34.0,232.0,1
1177,-106.0,-30.0,225.0,1
1178,-105.0,-39.0,227.0,1
1179,-98.0,-39.0,230.0,1
1180,-103.0,-34.0,226.0,1
1181,-104.0,-34.0,225.0,1
1182,-106.0,-31.0,228.0,1
1183,-101.0,-32.0,223.0,1
1184,-100.0,-27.0,226.0,1
1185,-102.0,-28.0,227.0,1
1186,-101.0,-26.0,220.0,1
1187,-101.0,-23.0,220.0,1
1188,-100.0,-25.0,226.0,1
1189,-99.0,-29.0,218.0,1
1190,-102.0,-25.0,217.0,1
1191,-98.0,-26.0,220.0,1
1192,-101.0,-25.0,218.0,1
1193,-100.0,-27.0,214.0,1
1194,-106.0,-28.0,213.0,1
1195,-105.0,-29.0,216.0,1
1196,-106.0,-28.0,211.0,1
1197,-107.0,-29.0,216.0,1
1198,-111.0,-29.0,215.0,1
1199,-112.0,-31.0,209.0,1
1200,-113.0,-31.0,213.0,1
1201,-118.0,-30.0,208.0,1
1202,-118.0,-27.0,214.0,1
1203,-122.0,-32.0,210.0,1
1204,-124.0,-33.0,212.0,1
1205,-129.0,-34.0,210.0,0
1206,-133.0,-34.0,211.0,0
1207,-138.0,-33.0,207.0,0
1208,-135.0,-36.0,211.0,0
1209,-138.0,-33.0,205.0,0
1210,-143.0,-31.0,206.0,0
1211,-143.0,-33.0,204.0,0
1212,-143.0,-32.0,207.0,0
1213,-147.0,-31.0,202.0,0
1214,-145.0,-30.0,204.0,0
1215,-144.0,-29.0,203.0,0
1216,-148.0,-26.0,201.0,0
1217,-147.0,-26.0,199.0,0
1218,-147.0,-22.0,200.0,0
1219,-147.0,-20.0,198.0,0
1220,-145.0,-24.0,197.0,0
1221,-147.0,-19.0,199.0,0
1222,-143.0,-22.0,198.0,0
1223,-150.0,-21.0,194.0,0
1224,-145.0,-21.0,203.0,0
1225,-143.0,-17.0,200.0,0
1226,-144.0,-18.0,201.0,0
1227,-143.0,-17.0,200.0,0
1228,-142.0,-17.0,199.0,0
1229,-144.0,-17.0,201.0,0
1230,-145.0,-19.0,200.0,0
1231,-141.0,-17.0,202.0,0
1232,-142.0,-18.0,198.0,0
1233,-143.0,-16.0,199.0,0
1234,-143.0,-16.0,201.0,0
1235,-143.0,-13.0,200.0,0
1236,-144.0,-14.0,204.0,0
1237,-143.0,-15.0,201.0,0
1238,-140.0,-17.0,197.0,0
1239,-140.0,-17.0,201.0,0
1240,-141.0,-14.0,203.0,0
1241,-143.0,-13.0,206.0,0
1242,-138.0,-18.0,208.0,0
1243,-136.0,-18.0,208.0,0
1244,-138.0,-19.0,204.0,0
1245,-137.0,-18.0,209.0,0
1246,-137.0,-19.0,212.0,0
1247,-134.0,-22.0,209.0,0
1248,-134.0,-19.0,209.0,0
1249,-135.0,-21.0,209.0,0
1250,-136.0,-17.0,210.0,0
1251,-134.0,-20.0,212.0,0
1252,-131.0,-21.0,213.0,0
1253,-133.0,-22.0,211.0,0
1254,-133.0,-22.0,215.0,0
1255,-130.0,-24.0,210.0,0
1256,-132.0,-20.0,208.0,0
1257,-129.0,-24.0,209.0,0
1258,-131.0,-24.0,211.0,0
1259,-129.0,-22.0,211.0,0
1260,-128.0,-26.0,211.0,0
1261,-128.0,-20.0,209.0,0
1262,-127.0,-24.0,210.0,0
1263,-127.0,-24.0,210.0,0
1264,-127.0,-21.0,209.0,0
1265,-127.0,-27.0,209.0,0
1266,-125.0,-26.0,213.0,0
1267,-127.0,-20.0,207.0,0
1268,-129.0,-24.0,211.0,0
1269,-125.0,-28.0,211.0,0
1270,-126.0,-25.0,208.0,0
1271,-127.0,-26.0,212.0,0
1272,-125.0,-28.0,211.0,0
1273,-125.0,-22.0,214.0,0
1274,-125.0,-28.0,212.0,0
1275,-124.0,-27.0,213.0,0
1276,-124.0,-25.0,211.0,0
1277,-126.0,-28.0,210.0,0
1278,-124.0,-30.0,211.0,0
1279,-124.0,-27.0,212.0,0
1280,-126.0,-25.0,210.0,0
1281,-123.0,-24.0,211.0,0
1282,-124.0,-26.0,210.0,0
1283,-124.0,-26.0,213.0,0
1284,-122.0,-27.0,213.0,0
1285,-125.0,-29.0,218.0,0
1286,-122.0,-27.0,213.0,0
1287,-124.0,-27.0,215.0,0
1288,-125.0,-30.0,212.0,0
1289,-122.0,-30.0,220.0,0
1290,-123.0,-28.0,210.0,0
1291,-125.0,-28.0,210.0,0
1292,-125.0,-25.0,208.0,0
1293,-126.0,-21.0,211.0,0
1294,-126.0,-24.0,205.0,0
1295,-126.0,-21.0,210.0,0
1296,-127.0,-21.0,212.0,0
1297,-127.0,-24.0,209.0,0
1298,-127.0,-22.0,207.0,0
1299,-126.0,-24.0,207.0,0
1300,-127.0,-23.0,210.0,0
1301,-126.0,-19.0,209.0,0
1302,-128.0,-26.0,206.0,0
1303,-127.0,-24.0,209.0,0
1304,-128.0,-23.0,210.0,0
1305,-129.0,-22.0,213.0,0
1306,-128.0,-24.0,210.0,0
1307,-128.0,-23.0,213.0,0
1308,-129.0,-23.0,210.0,0
1309,-127.0,-23.0,207.0,0
1310,-128.0,-21.0,211.0,0
1311,-129.0,-28.0,213.0,0
1312,-130.0,-23.0,208.0,0
1313,-130.0,-20.0,205.0,0
1314,-129.0,-24.0,208.0,0
1315,-131.0,-21.0,207.0,0
1316,-131.0,-22.0,207.0,0
1317,-130.0,-22.0,206.0,0
1318,-131.0,-22.0,209.0,0
1319,-129.0,-21.0,208.0,0
1320,-133.0,-20.0,211.0,0
1321,-129.0,-21.0,207.0,0
1322,-129.0,-20.0,209.0,0
1323,-130.0,-17.0,208.0,0
1324,-130.0,-18.0,212.0,0
1325,-131.0,-19.0,209.0,0
1326,-129.0,-19.0,211.0,0
1327,-130.0,-21.0,211.0,0
1328,-134.0,-21.0,206.0,0
1329,-132.0,-18.0,210.0,0
1330,-132.0,-17.0,209.0,0
1331,-130.0,-20.0,213.0,0
1332,-130.0,-18.0,214.0,0
1333,-134.0,-22.0,211.0,0
1334,-128.0,-25.0,207.0,0
1335,-131.0,-21.0,207.0,0
1336,-130.0,-22.0,209.0,0
1337,-128.0,-22.0,206.0,0
1338,-130.0,-24.0,211.0,0
1339,-129.0,-22.0,210.0,0
1340,-130.0,-23.0,206.0,0
1341,-128.0,-26.0,209.0,0
1342,-129.0,-23.0,208.0,0
1343,-128.0,-24.0,209.0,0
1344,-126.0,-23.0,212.0,0
1345,-128.0,-22.0,211.0,0
1346,-129.0,-24.0,213.0,0
1347,-125.0,-23.0,215.0,0
1348,-126.0,-23.0,210.0,0
1349,-127.0,-25.0,211.0,0
1350,-127.0,-20.0,213.0,0
1351,-127.0,-24.0,212.0,0
1352,-123.0,-24.0,212.0,0
1353,-126.0,-22.0,210.0,0
1354,-124.0,-15.0,215.0,0
1355,-128.0,-23.0,211.0,0
1356,-124.0,-24.0,214.0,0
1357,-127.0,-23.0,214.0,0
1358,-125.0,-23.0,216.0,0
1359,-124.0,-24.0,211.0,0
1360,-125.0,-22.0,214.0,0
1361,-124.0,-25.0,213.0,0
1362,-125.0,-22.0,212.0,0
1363,-125.0,-25.0,215.0,0
1364,-124.0,-23.0,212.0,0
1365,-129.0,-24.0,213.0,0
1366,-125.0,-24.0,211.0,0
1367,-126.0,-27.0,212.0,0
1368,-126.0,-25.0,213.0,0
1369,-126.0,-25.0,214.0,0
1370,-126.0,-24.0,215.0,0
1371,-124.0,-24.0,213.0,0
1372,-127.0,-25.0,213.0,0
1373,-128.0,-24.0,212.0,0
1374,-129.0,-23.0,213.0,0
1375,-127.0,-23.0,218.0,0
1376,-127.0,-24.0,213.0,0
1377,-127.0,-21.0,211.0,0
1378,-125.0,-24.0,209.0,0
1379,-126.0,-24.0,213.0,0
1380,-124.0,-26.0,213.0,0
1381,-126.0,-21.0,211.0,0
1382,-126.0,-22.0,213.0,0
1383,-127.0,-26.0,209.0,0
1384,-128.0,-24.0,213.0,0
1385,-127.0,-27.0,211.0,0
1386,-124.0,-25.0,216.0,0
1387,-125.0,-24.0,211.0,0
1388,-129.0,-24.0,210.0,0
1389,-126.0,-23.0,211.0,0
1390,-127.0,-25.0,211.0,0
1391,-126.0,-24.0,209.0,0
1392,-129.0,-24.0,208.0,0
1393,-127.0,-23.0,209.0,0
1394,-126.0,-23.0,210.0,0
1395,-129.0,-24.0,210.0,0
1396,-129.0,-24.0,211.0,0
1397,-127.0,-23.0,211.0,0
1398,-127.0,-26.0,212.0,0
1399,-128.0,-25.0,213.0,0
1400,-128.0,-22.0,212.0,0
1401,-129.0,-24.0,210.0,0
1402,-128.0,-25.0,210.0,0
1403,-128.0,-25.0,209.0,0
1404,-127.0,-25.0,211.0,0
1405,-125.0,-26.0,211.0,0
1406,-126.0,-24.0,213.0,0
1407,-128.0,-27.0,211.0,0
1408,-128.0,-28.0,214.0,0
1409,-128.0,-27.0,212.0,0
1410,-126.0,-25.0,209.0,0
1411,-127.0,-26.0,211.0,0
1412,-127.0,-26.0,210.0,0
1413,-129.0,-24.0,214.0,0
1414,-127.0,-27.0,211.0,0
1415,-126.0,-25.0,212.0,0
1416,-125.0,-26.0,211.0,0
1417,-128.0,-25.0,212.0,0
1418,-124.0,-28.0,210.0,0
1419,-127.0,-27.0,213.0,0
1420,-126.0,-26.0,211.0,0
1421,-126.0,-26.0,215.0,0
1422,-125.0,-25.0,210.0,0
1423,-126.0,-28.0,210.0,0
1424,-127.0,-23.0,208.0,0
1425,-125.0,-28.0,214.0,0
1426,-126.0,-24.0,211.0,0
1427,-127.0,-25.0,209.0,0
1428,-125.0,-27.0,209.0,0
1429,-126.0,-29.0,207.0,0
1430,-124.0,-29.0,212.0,0
1431,-127.0,-27.0,208.0,0
1432,-125.0,-27.0,211.0,0
1433,-123.0,-28.0,212.0,0
1434,-128.0,-24.0,207.0,0
1435,-124.0,-26.0,209.0,0
1436,-123.0,-28.0,210.0,0
1437,-124.0,-27.0,211.0,0
1438,-124.0,-25.0,212.0,0
1439,-127.0,-26.0,209.0,0
1440,-124.0,-25.0,209.0,0
1441,-126.0,-29.0,210.0,0
1442,-128.0,-26.0,214.0,0
1443,-126.0,-29.0,211.0,0
1444,-128.0,-23.0,211.0,0
1445,-127.0,-25.0,212.0,0
1446,-125.0,-27.0,210.0,0
1447,-129.0,-26.0,213.0,0
1448,-127.0,-25.0,211.0,0
1449,-127.0,-27.0,210.0,0
1450,-127.0,-27.0,210.0,0
1451,-126.0,-27.0,209.0,0
1452,-129.0,-30.0,210.0,0
1453,-127.0,-28.0,211.0,0
1454,-129.0,-26.0,207.0,0
1455,-127.0,-27.0,209.0,0
1456,-126.0,-26.0,209.0,0
1457,-127.0,-27.0,212.0,0
1458,-127.0,-27.0,211.0,0
1459,-126.0,-24.0,211.0,0
1460,-126.0,-27.0,209.0,0
1461,-126.0,-27.0,208.0,0
1462,-128.0,-26.0,204.0,0
1463,-125.0,-29.0,210.0,0
1464,-127.0,-29.0,210.0,0
1465,-125.0,-26.0,209.0,0
1466,-125.0,-27.0,212.0,0
1467,-126.0,-28.0,213.0,0
1468,-127.0,-26.0,211.0,0
1469,-126.0,-29.0,208.0,0
1470,-125.0,-28.0,210.0,0
1471,-123.0,-28.0,209.0,0
1472,-125.0,-27.0,207.0,0
1473,-128.0,-26.0,214.0,0
1474,-127.0,-28.0,209.0,0
1475,-128.0,-27.0,209.0,0
1476,-128.0,-27.0,210.0,0
1477,-128.0,-25.0,210.0,0
1478,-128.0,-25.0,206.0,0
1479,-127.0,-26.0,209.0,0
1480,-129.0,-27.0,210.0,0
1481,-127.0,-27.0,211.0,0
1482,-128.0,-27.0,211.0,0
1483,-126.0,-28.0,207.0,0
1484,-126.0,-29.0,213.0,0
1485,-118.0,-30.0,206.0,0
1486,-127.0,-25.0,212.0,0
1487,-126.0,-26.0,213.0,0
1488,-125.0,-30.0,215.0,0
1489,-126.0,-29.0,214.0,0
1490,-127.0,-28.0,212.0,0
1491,-126.0,-33.0,212.0,0
1492,-127.0,-30.0,209.0,0
1493,-126.0,-32.0,211.0,0
1494,-126.0,-31.0,212.0,0
1495,-127.0,-28.0,209.0,0
1496,-125.0,-28.0,209.0,0
1497,-126.0,-27.0,209.0,0
1498,-125.0,-27.0,204.0,0
1499,-124.0,-27.0,209.0,0
1500,-127.0,-27.0,210.0,0
1501,-128.0,-24.0,210.0,0
1502,-127.0,-29.0,211.0,0
1503,-126.0,-24.0,213.0,0
1504,-126.0,-23.0,209.0,0
1505,-123.0,-27.0,214.0,0
1506,-127.0,-26.0,212.0,0
1507,-125.0,-23.0,211.0,0
1508,-124.0,-26.0,215.0,0
1509,-125.0,-28.0,215.0,0
1510,-125.0,-28.0,212.0,0
1511,-126.0,-27.0,214.0,0
1512,-125.0,-29.0,212.0,0
1513,-127.0,-26.0,215.0,0
1514,-127.0,-29.0,209.0,0
1515,-125.0,-26.0,213.0,0
1516,-126.0,-29.0,211.0,0
1517,-124.0,-29.0,214.0,0
1518,-124.0,-28.0,209.0,0
1519,-126.0,-30.0,213.0,0
1520,-127.0,-24.0,211.0,0
1521,-126.0,-28.0,213.0,0
1522,-125.0,-28.0,212.0,0
1523,-125.0,-28.0,209.0,0
1524,-125.0,-29.0,210.0,0
1525,-127.0,-27.0,214.0,0
1526,-128.0,-31.0,211.0,0
1527,-127.0,-31.0,209.0,0
1528,-127.0,-30.0,209.0,0
1529,-126.0,-30.0,211.0,0
1530,-127.0,-28.0,214.0,0
1531,-126.0,-30.0,209.0,0
1532,-127.0,-31.0,211.0,0
1533,-127.0,-29.0,208.0,0
1534,-127.0,-29.0,211.0,0
1535,-125.0,-29.0,211.0,0
1536,-128.0,-30.0,209.0,0
1537,-126.0,-30.0,210.0,0
1538,-125.0,-28.0,211.0,0
1539,-126.0,-28.0,208.0,0
1540,-127.0,-29.0,211.0,0
1541,-125.0,-32.0,210.0,0
1542,-125.0,-30.0,210.0,0
1543,-126.0,-29.0,209.0,0
1544,-126.0,-30.0,210.0,0
1545,-127.0,-28.0,209.0,0
1546,-127.0,-31.0,209.0,0
1547,-125.0,-31.0,211.0,0
1548,-127.0,-32.0,210.0,0
1549,-126.0,-31.0,209.0,0
1550,-130.0,-33.0,207.0,0
1551,-128.0,-31.0,209.0,0
1552,-123.0,-29.0,208.0,0
1553,-130.0,-30.0,209.0,0
1554,-128.0,-29.0,207.0,0
1555,-127.0,-29.0,207.0,0
1556,-127.0,-28.0,209.0,0
1557,-127.0,-27.0,212.0,0
1558,-127.0,-29.0,211.0,0
1559,-126.0,-30.0,209.0,0
1560,-125.0,-31.0,207.0,0
1561,-128.0,-31.0,209.0,0
1562,-127.0,-29.0,207.0,0
1563,-127.0,-31.0,211.0,0
1564,-127.0,-28.0,209.0,0
1565,-125.0,-31.0,209.0,0
1566,-127.0,-28.0,212.0,0
1567,-125.0,-29.0,213.0,0
1568,-127.0,-28.0,210.0,0
1569,-126.0,-29.0,211.0,0
1570,-128.0,-26.0,211.0,0
1571,-126.0,-30.0,208.0,0
1572,-125.0,-36.0,211.0,0
1573,-126.0,-27.0,207.0,0
1574,-126.0,-27.0,208.0,0
1575,-126.0,-26.0,209.0,0
1576,-127.0,-27.0,212.0,0
1577,-126.0,-33.0,213.0,0
1578,-128.0,-30.0,210.0,0
1579,-127.0,-31.0,213.0,0
1580,-122.0,-31.0,212.0,0
1581,-124.0,-31.0,210.0,0
1582,-120.0,-31.0,213.0,0
1583,-125.0,-28.0,213.0,0
1584,-128.0,-31.0,211.0,0
1585,-125.0,-30.0,211.0,0
1586,-127.0,-29.0,208.0,0
1587,-127.0,-30.0,211.0,0
1588,-126.0,-32.0,209.0,0
1589,-127.0,-26.0,206.0,0
1590,-126.0,-30.0,208.0,0
1591,-126.0,-30.0,208.0,0
1592,-125.0,-31.0,206.0,0
1593,-126.0,-29.0,209.0,0
1594,-129.0,-29.0,198.0,0
1595,-127.0,-30.0,206.0,0
1596,-127.0,-30.0,205.0,0
1597,-127.0,-27.0,209.0,0
1598,-128.0,-28.0,208.0,0
1599,-125.0,-27.0,209.0,0
1600,-125.0,-30.0,211.0,0
1601,-127.0,-31.0,210.0,0
1602,-127.0,-28.0,210.0,0
1603,-126.0,-29.0,209.0,0
1604,-128.0,-30.0,212.0,0
1605,-128.0,-29.0,209.0,0
1606,-126.0,-29.0,207.0,0
1607,-125.0,-31.0,210.0,0
1608,-126.0,-27.0,208.0,0
1609,-127.0,-31.0,212.0,0
1610,-126.0,-31.0,208.0,0
1611,-125.0,-31.0,208.0,0
1612,-126.0,-31.0,209.0,0
1613,-125.0,-31.0,211.0,0
1614,-124.0,-31.0,213.0,0
1615,-126.0,-33.0,210.0,0
1616,-125.0,-28.0,209.0,0
1617,-124.0,-31.0,215.0,0
1618,-127.0,-27.0,211.0,0
1619,-127.0,-28.0,213.0,0
1620,-126.0,-27.0,208.0,0
1621,-125.0,-29.0,208.0,0
1622,-126.0,-29.0,210.0,0
1623,-124.0,-28.0,213.0,0
1624,-128.0,-29.0,213.0,0
1625,-128.0,-25.0,208.0,0
1626,-125.0,-28.0,212.0,0
1627,-126.0,-30.0,211.0,0
1628,-125.0,-29.0,209.0,0
1629,-124.0,-30.0,209.0,0
1630,-126.0,-27.0,213.0,0
1631,-126.0,-30.0,212.0,0
1632,-123.0,-28.0,212.0,0
1633,-125.0,-31.0,211.0,0
1634,-124.0,-30.0,207.0,0
1635,-124.0,-27.0,207.0,0
1636,-125.0,-29.0,212.0,0
1637,-122.0,-27.0,216.0,0
1638,-126.0,-27.0,210.0,0
1639,-121.0,-30.0,211.0,0
1640,-125.0,-28.0,213.0,0
1641,-124.0,-29.0,214.0,0
1642,-124.0,-28.0,213.0,0
1643,-125.0,-29.0,212.0,0
1644,-122.0,-28.0,212.0,0
1645,-126.0,-27.0,214.0,0
1646,-127.0,-29.0,208.0,0
1647,-124.0,-29.0,207.0,0
1648,-124.0,-31.0,210.0,0
1649,-127.0,-27.0,213.0,0
1650,-128.0,-28.0,209.0,0
1651,-124.0,-28.0,212.0,0
1652,-124.0,-27.0,209.0,0
1653,-126.0,-26.0,213.0,0
1654,-127.0,-26.0,208.0,0
1655,-125.0,-27.0,210.0,0
1656,-126.0,-26.0,207.0,0
1657,-129.0,-26.0,211.0,0
1658,-126.0,-27.0,209.0,0
1659,-126.0,-21.0,205.0,0
1660,-126.0,-28.0,209.0,0
1661,-126.0,-28.0,211.0,0
1662,-126.0,-25.0,215.0,0
1663,-124.0,-28.0,213.0,0
1664,-127.0,-29.0,214.0,0
1665,-123.0,-30.0,212.0,0
1666,-124.0,-31.0,214.0,0
1667,-123.0,-29.0,216.0,0
1668,-125.0,-28.0,214.0,0
1669,-124.0,-30.0,215.0,0
1670,-122.0,-32.0,210.0,0
1671,-122.0,-31.0,211.0,0
1672,-122.0,-28.0,207.0,0
1673,-126.0,-29.0,208.0,0
1674,-124.0,-27.0,210.0,0
1675,-128.0,-26.0,209.0,0
1676,-128.0,-28.0,208.0,0
1677,-126.0,-26.0,209.0,0
1678,-126.0,-25.0,207.0,0
1679,-126.0,-25.0,210.0,0
1680,-124.0,-24.0,206.0,0
1681,-124.0,-22.0,207.0,0
1682,-124.0,-24.0,213.0,0
1683,-126.0,-22.0,213.0,0
1684,-127.0,-20.0,213.0,0
1685,-126.0,-21.0,211.0,0
1686,-125.0,-25.0,212.0,0
1687,-125.0,-22.0,214.0,0
1688,-127.0,-22.0,216.0,0
1689,-126.0,-24.0,213.0,0
1690,-126.0,-25.0,213.0,0
1691,-126.0,-21.0,212.0,0
1692,-126.0,-28.0,213.0,0
1693,-125.0,-27.0,212.0,0
1694,-124.0,-27.0,210.0,0
1695,-126.0,-24.0,210.0,0
1696,-123.0,-27.0,212.0,0
1697,-125.0,-25.0,214.0,0
1698,-126.0,-25.0,212.0,0
1699,-126.0,-24.0,213.0,0
1700,-127.0,-24.0,213.0,0
1701,-126.0,-24.0,212.0,0
1702,-128.0,-25.0,211.0,0
1703,-126.0,-27.0,215.0,0
1704,-124.0,-25.0,214.0,0
1705,-123.0,-28.0,214.0,0
1706,-124.0,-25.0,209.0,0
1707,-126.0,-22.0,210.0,0
1708,-124.0,-26.0,213.0,0
1709,-127.0,-25.0,210.0,0
1710,-123.0,-25.0,210.0,0
1711,-125.0,-27.0,216.0,0
1712,-126.0,-25.0,210.0,0
1713,-126.0,-25.0,212.0,0
1714,-127.0,-22.0,212.0,0
1715,-128.0,-27.0,214.0,0
1716,-123.0,-25.0,210.0,0
1717,-124.0,-24.0,210.0,0
1718,-124.0,-25.0,212.0,0
1719,-125.0,-24.0,213.0,0
1720,-124.0,-25.0,215.0,0
1721,-123.0,-23.0,213.0,0
1722,-125.0,-25.0,211.0,0
1723,-125.0,-26.0,213.0,0
1724,-124.0,-25.0,211.0,0
1725,-123.0,-22.0,209.0,0
1726,-126.0,-24.0,217.0,0
1727,-123.0,-26.0,214.0,0
1728,-123.0,-26.0,211.0,0
1729,-125.0,-25.0,211.0,0
1730,-126.0,-25.0,209.0,0
1731,-123.0,-25.0,211.0,0
1732,-125.0,-26.0,213.0,0
1733,-126.0,-25.0,211.0,0
1734,-126.0,-24.0,211.0,0
1735,-124.0,-24.0,213.0,0
1736,-124.0,-24.0,213.0,0
1737,-124.0,-24.0,208.0,0
1738,-124.0,-23.0,214.0,0
1739,-124.0,-24.0,210.0,0
1740,-124.0,-22.0,213.0,0
1741,-125.0,-23.0,211.0,0
1742,-125.0,-20.0,213.0,0
1743,-124.0,-26.0,209.0,0
1744,-126.0,-23.0,212.0,0
1745,-123.0,-25.0,213.0,0
1746,-127.0,-22.0,211.0,0
1747,-119.0,-24.0,214.0,0
1748,-126.0,-22.0,212.0,0
1749,-124.0,-23.0,213.0,0
1750,-124.0,-21.0,214.0,0
1751,-126.0,-19.0,210.0,0
1752,-127.0,-21.0,213.0,0
1753,-126.0,-21.0,208.0,0
1754,-127.0,-23.0,211.0,0
1755,-125.0,-25.0,214.0,0
1756,-123.0,-23.0,212.0,0
1757,-126.0,-22.0,216.0,0
1758,-123.0,-24.0,216.0,0
1759,-123.0,-22.0,209.0,0
1760,-125.0,-21.0,213.0,0
1761,-125.0,-23.0,213.0,0
1762,-123.0,-25.0,214.0,0
1763,-127.0,-23.0,212.0,0
1764,-126.0,-24.0,213.0,0
1765,-124.0,-20.0,213.0,0
1766,-125.0,-24.0,211.0,0
1767,-124.0,-21.0,215.0,0
1768,-124.0,-24.0,214.0,0
1769,-125.0,-20.0,212.0,0
1770,-126.0,-26.0,215.0,0
1771,-125.0,-23.0,209.0,0
1772,-125.0,-22.0,212.0,0
1773,-125.0,-23.0,215.0,0
1774,-127.0,-22.0,214.0,0
1775,-125.0,-23.0,214.0,0
1776,-123.0,-24.0,212.0,0
1777,-121.0,-23.0,211.0,0
1778,-125.0,-23.0,214.0,0
1779,-124.0,-21.0,214.0,0
1780,-123.0,-28.0,211.0,0
1781,-123.0,-23.0,212.0,0
1782,-128.0,-23.0,219.0,0
1783,-124.0,-23.0,213.0,0
1784,-124.0,-22.0,215.0,0
1785,-124.0,-24.0,216.0,0
1786,-127.0,-20.0,215.0,0
1787,-124.0,-22.0,209.0,0
1788,-123.0,-20.0,217.0,0
1789,-128.0,-20.0,218.0,0
1790,-125.0,-24.0,213.0,0
1791,-124.0,-22.0,212.0,0
1792,-124.0,-22.0,213.0,0
1793,-122.0,-22.0,214.0,0
1794,-126.0,-22.0,214.0,0
1795,-123.0,-23.0,212.0,0
1796,-123.0,-23.0,212.0,0
1797,-122.0,-22.0,213.0,0
1798,-123.0,-23.0,211.0,0
1799,-125.0,-22.0,213.0,0
1800,-124.0,-25.0,211.0,0
1801,-122.0,-23.0,213.0,0
1802,-127.0,-20.0,210.0,0
1803,-125.0,-20.0,212.0,0
1804,-125.0,-22.0,211.0,0
1805,-122.0,-21.0,211.0,0
1806,-125.0,-19.0,212.0,0
1807,-126.0,-20.0,213.0,0
1808,-126.0,-22.0,213.0,0
1809,-126.0,-25.0,211.0,0
1810,-124.0,-23.0,214.0,0
1811,-125.0,-23.0,215.0,0
1812,-129.0,-25.0,207.0,0
1813,-125.0,-22.0,212.0,0
1814,-127.0,-21.0,211.0,0
1815,-126.0,-22.0,214.0,0
1816,-124.0,-25.0,214.0,0
1817,-125.0,-22.0,217.0,0
1818,-124.0,-23.0,212.0,0
1819,-126.0,-23.0,213.0,0
1820,-125.0,-23.0,209.0,0
1821,-126.0,-23.0,214.0,0
1822,-125.0,-20.0,211.0,0
1823,-125.0,-22.0,212.0,0
1824,-124.0,-22.0,212.0,0
1825,-126.0,-21.0,214.0,0
1826,-126.0,-23.0,213.0,0
1827,-127.0,-22.0,216.0,0
1828,-126.0,-24.0,214.0,0
1829,-126.0,-22.0,212.0,0
1830,-125.0,-22.0,210.0,0
1831,-125.0,-20.0,215.0,0
1832,-122.0,-22.0,210.0,0
1833,-124.0,-22.0,211.0,0
1834,-125.0,-21.0,214.0,0
1835,-126.0,-23.0,212.0,0
1836,-125.0,-20.0,212.0,0
1837,-122.0,-23.0,212.0,0
1838,-124.0,-18.0,212.0,0
1839,-125.0,-19.0,211.0,0
1840,-126.0,-20.0,212.0,0
1841,-125.0,-22.0,211.0,0
1842,-125.0,-22.0,216.0,0
1843,-126.0,-20.0,212.0,0
1844,-125.0,-22.0,210.0,0
1845,-126.0,-19.0,217.0,0
1846,-124.0,-19.0,212.0,0
1847,-125.0,-22.0,216.0,0
1848,-126.0,-23.0,211.0,0
1849,-124.0,-19.0,209.0,0
1850,-126.0,-23.0,211.0,0
1851,-128.0,-20.0,209.0,0
1852,-128.0,-20.0,211.0,0
1853,-124.0,-22.0,209.0,0
1854,-125.0,-22.0,209.0,0
1855,-125.0,-18.0,214.0,0
1856,-125.0,-19.0,213.0,0
1857,-127.0,-21.0,212.0,0
1858,-124.0,-21.0,214.0,0
1859,-123.0,-23.0,211.0,0
1860,-125.0,-21.0,215.0,0
1861,-125.0,-21.0,212.0,0
1862,-126.0,-23.0,219.0,0
1863,-124.0,-24.0,217.0,0
1864,-124.0,-22.0,215.0,0
1865,-125.0,-22.0,212.0,0
1866,-125.0,-22.0,212.0,0
1867,-125.0,-22.0,211.0,0
1868,-122.0,-25.0,211.0,0
1869,-127.0,-19.0,211.0,0
1870,-124.0,-23.0,212.0,0
1871,-124.0,-22.0,210.0,0
1872,-124.0,-21.0,211.0,0
1873,-122.0,-22.0,212.0,0
1874,-125.0,-24.0,214.0,0
1875,-126.0,-20.0,211.0,0
1876,-127.0,-17.0,216.0,0
1877,-125.0,-13.0,210.0,0
1878,-125.0,-18.0,212.0,0
1879,-124.0,-18.0,211.0,0
1880,-127.0,-16.0,212.0,0
1881,-126.0,-17.0,212.0,0
1882,-126.0,-19.0,213.0,0
1883,-126.0,-17.0,214.0,0
1884,-125.0,-16.0,214.0,0
1885,-126.0,-17.0,213.0,0
1886,-123.0,-19.0,212.0,0
1887,-126.0,-20.0,213.0,0
1888,-126.0,-18.0,211.0,0
1889,-125.0,-23.0,213.0,0
1890,-123.0,-20.0,211.0,0
1891,-126.0,-17.0,210.0,0
1892,-125.0,-21.0,211.0,0
1893,-126.0,-18.0,211.0,0
1894,-124.0,-22.0,213.0,0
1895,-124.0,-22.0,213.0,0
1896,-124.0,-22.0,212.0,0
1897,-126.0,-20.0,213.0,0
1898,-125.0,-22.0,211.0,0
1899,-127.0,-23.0,208.0,0
1900,-127.0,-23.0,214.0,0
1901,-125.0,-19.0,214.0,0
1902,-127.0,-19.0,215.0,0
1903,-125.0,-19.0,214.0,0
1904,-126.0,-19.0,213.0,0
1905,-126.0,-20.0,213.0,0
1906,-126.0,-17.0,212.0,0
1907,-126.0,-20.0,212.0,0
1908,-126.0,-18.0,210.0,0
1909,-118.0,-19.0,209.0,0
1910,-127.0,-19.0,211.0,0
1911,-126.0,-20.0,211.0,0
1912,-126.0,-22.0,211.0,0
1913,-124.0,-22.0,210.0,0
1914,-125.0,-18.0,211.0,0
1915,-123.0,-19.0,211.0,0
1916,-125.0,-21.0,214.0,0
1917,-123.0,-22.0,213.0,0
1918,-123.0,-21.0,210.0,0
1919,-127.0,-20.0,207.0,0
1920,-125.0,-20.0,214.0,0
1921,-121.0,-19.0,214.0,0
1922,-127.0,-22.0,215.0,0
1923,-127.0,-20.0,213.0,0
1924,-126.0,-22.0,215.0,0
1925,-126.0,-22.0,214.0,0
1926,-126.0,-22.0,214.0,0
1927,-123.0,-22.0,210.0,0
1928,-126.0,-20.0,210.0,0
1929,-127.0,-19.0,215.0,0
1930,-125.0,-19.0,212.0,0
1931,-127.0,-17.0,216.0,0
1932,-124.0,-20.0,212.0,0
1933,-122.0,-19.0,215.0,0
1934,-125.0,-17.0,215.0,0
1935,-127.0,-18.0,213.0,0
1936,-128.0,-20.0,214.0,0
1937,-126.0,-16.0,213.0,0
1938,-123.0,-18.0,218.0,0
1939,-125.0,-21.0,215.0,0
1940,-125.0,-20.0,219.0,0
1941,-127.0,-20.0,215.0,0
1942,-123.0,-19.0,213.0,0
1943,-124.0,-21.0,210.0,0
1944,-121.0,-19.0,212.0,0
1945,-122.0,-23.0,213.0,0
1946,-126.0,-22.0,213.0,0
1947,-123.0,-24.0,212.0,0
1948,-125.0,-20.0,215.0,0
1949,-126.0,-22.0,214.0,0
1950,-123.0,-21.0,217.0,0
1951,-122.0,-22.0,216.0,0
1952,-125.0,-21.0,217.0,0
1953,-125.0,-23.0,216.0,0
1954,-123.0,-25.0,214.0,0
1955,-125.0,-19.0,214.0,0
1956,-123.0,-23.0,216.0,0
1957,-126.0,-21.0,211.0,0
1958,-125.0,-23.0,216.0,0
1959,-126.0,-21.0,213.0,0
1960,-124.0,-23.0,213.0,0
1961,-125.0,-23.0,215.0,0
1962,-126.0,-22.0,211.0,0
1963,-124.0,-21.0,213.0,0
1964,-128.0,-20.0,220.0,0
1965,-126.0,-24.0,214.0,0
1966,-127.0,-23.0,212.0,0
1967,-126.0,-22.0,211.0,0
1968,-124.0,-25.0,210.0,0
1969,-126.0,-25.0,212.0,0
1970,-125.0,-22.0,212.0,0
1971,-125.0,-23.0,212.0,0
1972,-124.0,-26.0,211.0,0
1973,-126.0,-25.0,212.0,0
1974,-125.0,-24.0,214.0,0
1975,-126.0,-22.0,209.0,0
1976,-125.0,-25.0,211.0,0
1977,-125.0,-23.0,211.0,0
1978,-123.0,-24.0,211.0,0
1979,-125.0,-26.0,216.0,0
1980,-121.0,-24.0,212.0,0
1981,-125.0,-24.0,211.0,0
1982,-122.0,-26.0,216.0,0
1983,-125.0,-25.0,212.0,0
1984,-124.0,-26.0,215.0,0
1985,-125.0,-21.0,211.0,0
1986,-125.0,-24.0,204.0,0
1987,-122.0,-24.0,215.0,0
1988,-125.0,-24.0,212.0,0
1989,-123.0,-25.0,215.0,0
1990,-127.0,-21.0,211.0,0
1991,-126.0,-24.0,209.0,0
1992,-125.0,-21.0,218.0,0
1993,-126.0,-25.0,215.0,0
1994,-124.0,-26.0,212.0,0
1995,-124.0,-26.0,215.0,0
1996,-123.0,-24.0,215.0,0
1997,-123.0,-23.0,215.0,0
1998,-125.0,-24.0,214.0,0
1999,-123.0,-22.0,214.0,0
2000,-122.0,-26.0,213.0,0
2001,-123.0,-25.0,214.0,0
2002,-124.0,-24.0,211.0,0
2003,-123.0,-24.0,211.0,0
2004,-125.0,-25.0,215.0,0
2005,-125.0,-24.0,212.0,0
2006,-127.0,-23.0,209.0,0
2007,-124.0,-26.0,214.0,0
2008,-124.0,-30.0,212.0,0
2009,-127.0,-25.0,213.0,0
2010,-126.0,-24.0,212.0,0
2011,-126.0,-25.0,214.0,0
2012,-124.0,-24.0,212.0,0
2013,-126.0,-24.0,213.0,0
2014,-125.0,-26.0,212.0,0
2015,-125.0,-23.0,211.0,0
2016,-127.0,-27.0,215.0,0
2017,-126.0,-24.0,212.0,0
2018,-126.0,-25.0,213.0,0
2019,-126.0,-25.0,211.0,0
2020,-126.0,-25.0,212.0,0
2021,-126.0,-26.0,211.0,0
2022,-124.0,-28.0,212.0,0
2023,-124.0,-25.0,210.0,0
2024,-125.0,-27.0,213.0,0
2025,-126.0,-26.0,212.0,0
2026,-125.0,-25.0,215.0,0
2027,-127.0,-23.0,210.0,0
2028,-126.0,-22.0,212.0,0
2029,-121.0,-24.0,214.0,0
2030,-124.0,-25.0,212.0,0
2031,-125.0,-27.0,215.0,0
2032,-125.0,-23.0,213.0,0
2033,-124.0,-26.0,214.0,0
2034,-125.0,-26.0,212.0,0
2035,-124.0,-30.0,210.0,0
2036,-122.0,-28.0,211.0,0
2037,-125.0,-28.0,210.0,0
2038,-121.0,-29.0,211.0,0
2039,-122.0,-26.0,211.0,0
2040,-125.0,-27.0,213.0,0
2041,-123.0,-26.0,212.0,0
2042,-123.0,-28.0,214.0,0
2043,-124.0,-28.0,214.0,0
2044,-125.0,-26.0,210.0,0
2045,-123.0,-27.0,213.0,0
2046,-125.0,-27.0,209.0,0
2047,-123.0,-26.0,209.0,0
2048,-127.0,-23.0,209.0,0
2049,-124.0,-26.0,214.0,0
2050,-127.0,-26.0,211.0,0
2051,-126.0,-27.0,206.0,0
2052,-126.0,-28.0,211.0,0
2053,-121.0,-28.0,209.0,0
2054,-125.0,-28.0,212.0,0
2055,-125.0,-25.0,208.0,0
2056,-125.0,-27.0,212.0,0
2057,-124.0,-28.0,216.0,0
2058,-125.0,-28.0,215.0,0
2059,-124.0,-30.0,217.0,0
2060,-124.0,-28.0,216.0,0
2061,-125.0,-28.0,215.0,0
2062,-123.0,-31.0,219.0,0
2063,-125.0,-29.0,211.0,0
2064,-121.0,-29.0,212.0,0
2065,-124.0,-29.0,210.0,0
2066,-126.0,-27.0,213.0,0
2067,-126.0,-24.0,212.0,0
2068,-126.0,-26.0,212.0,0
2069,-127.0,-24.0,207.0,0
2070,-124.0,-25.0,213.0,0
2071,-125.0,-25.0,209.0,0
2072,-125.0,-25.0,208.0,0
2073,-123.0,-22.0,212.0,0
2074,-125.0,-22.0,215.0,0
2075,-125.0,-25.0,213.0,0
2076,-125.0,-22.0,214.0,0
2077,-126.0,-25.0,212.0,0
2078,-126.0,-24.0,210.0,0
2079,-126.0,-24.0,211.0,0
2080,-125.0,-26.0,209.0,0
2081,-124.0,-25.0,211.0,0
2082,-127.0,-25.0,214.0,0
2083,-125.0,-23.0,213.0,0
2084,-125.0,-26.0,213.0,0
2085,-127.0,-28.0,213.0,0
2086,-124.0,-29.0,212.0,0
2087,-125.0,-28.0,212.0,0
2088,-124.0,-30.0,210.0,0
2089,-126.0,-29.0,214.0,0
2090,-126.0,-25.0,214.0,0
2091,-125.0,-29.0,212.0,0
2092,-124.0,-27.0,210.0,0
2093,-126.0,-26.0,211.0,0
2094,-127.0,-25.0,215.0,0
2095,-125.0,-29.0,211.0,0
2096,-127.0,-27.0,213.0,0
2097,-127.0,-30.0,210.0,0
2098,-124.0,-25.0,208.0,0
2099,-124.0,-29.0,210.0,0
2100,-128.0,-28.0,213.0,0
2101,-125.0,-31.0,212.0,0
2102,-125.0,-29.0,210.0,0
2103,-125.0,-28.0,212.0,0
2104,-128.0,-28.0,212.0,0
2105,-126.0,-26.0,212.0,0
2106,-127.0,-28.0,213.0,0
2107,-124.0,-34.0,209.0,0
2108,-127.0,-28.0,210.0,0
2109,-124.0,-28.0,209.0,0
2110,-124.0,-30.0,213.0,0
2111,-125.0,-27.0,212.0,0
2112,-125.0,-27.0,208.0,0
2113,-125.0,-28.0,208.0,0
2114,-126.0,-31.0,212.0,0
2115,-126.0,-28.0,212.0,0
2116,-126.0,-29.0,212.0,0
2117,-125.0,-31.0,214.0,0
2118,-126.0,-31.0,210.0,0
2119,-125.0,-30.0,212.0,0
2120,-122.0,-33.0,210.0,0
2121,-124.0,-31.0,209.0,0
2122,-125.0,-30.0,209.0,0
2123,-125.0,-30.0,210.0,0
2124,-127.0,-28.0,210.0,0
2125,-128.0,-28.0,208.0,0
2126,-125.0,-29.0,209.0,0
2127,-126.0,-31.0,208.0,0
2128,-126.0,-31.0,207.0,0
2129,-125.0,-29.0,209.0,0
2130,-126.0,-27.0,216.0,0
2131,-125.0,-28.0,210.0,0
2132,-124.0,-28.0,211.0,0
2133,-124.0,-29.0,211.0,0
2134,-125.0,-27.0,209.0,0
2135,-124.0,-29.0,210.0,0
2136,-125.0,-29.0,210.0,0
2137,-126.0,-28.0,208.0,0
2138,-124.0,-32.0,211.0,0
2139,-125.0,-27.0,206.0,0
2140,-125.0,-31.0,211.0,0
2141,-128.0,-28.0,208.0,0
2142,-125.0,-29.0,210.0,0
2143,-124.0,-26.0,207.0,0
2144,-125.0,-29.0,210.0,0
2145,-126.0,-25.0,208.0,0
2146,-127.0,-27.0,212.0,0
2147,-124.0,-29.0,208.0,0
2148,-123.0,-29.0,210.0,0
2149,-124.0,-28.0,213.0,0
2150,-126.0,-28.0,215.0,0
2151,-126.0,-30.0,210.0,0
2152,-127.0,-27.0,207.0,0
2153,-125.0,-29.0,210.0,0
2154,-125.0,-28.0,210.0,0
2155,-126.0,-32.0,211.0,0
2156,-126.0,-30.0,208.0,0
2157,-126.0,-27.0,211.0,0
2158,-125.0,-28.0,211.0,0
2159,-126.0,-30.0,211.0,0
2160,-123.0,-30.0,210.0,0
2161,-126.0,-30.0,209.0,0
2162,-124.0,-32.0,207.0,0
2163,-127.0,-25.0,208.0,0
2164,-128.0,-30.0,209.0,0
2165,-127.0,-30.0,209.0,0
2166,-126.0,-28.0,209.0,0
2167,-126.0,-29.0,209.0,0
2168,-126.0,-28.0,211.0,0
2169,-126.0,-30.0,210.0,0
2170,-128.0,-28.0,213.0,0
2171,-125.0,-31.0,215.0,0
2172,-122.0,-30.0,213.0,0
2173,-126.0,-28.0,211.0,0
2174,-126.0,-28.0,214.0,0
2175,-127.0,-29.0,211.0,0
2176,-125.0,-28.0,214.0,0
2177,-123.0,-28.0,211.0,0
2178,-124.0,-30.0,209.0,0
2179,-124.0,-30.0,211.0,0
2180,-126.0,-28.0,212.0,0
2181,-124.0,-19.0,207.0,0
2182,-125.0,-26.0,210.0,0
2183,-125.0,-27.0,207.0,0
2184,-126.0,-26.0,212.0,0
2185,-125.0,-26.0,211.0,0
2186,-123.0,-26.0,211.0,0
2187,-124.0,-29.0,213.0,0
2188,-126.0,-28.0,210.0,0
2189,-127.0,-25.0,212.0,0
2190,-128.0,-27.0,207.0,0
2191,-126.0,-28.0,210.0,0
2192,-125.0,-27.0,209.0,0
2193,-124.0,-23.0,210.0,0
2194,-125.0,-29.0,213.0,0
2195,-124.0,-28.0,209.0,0
2196,-125.0,-26.0,213.0,0
2197,-125.0,-28.0,210.0,0
2198,-125.0,-28.0,211.0,0
2199,-123.0,-27.0,215.0,0
2200,-125.0,-28.0,213.0,0
2201,-123.0,-29.0,212.0,0
2202,-127.0,-29.0,210.0,0
2203,-126.0,-29.0,211.0,0
2204,-121.0,-28.0,225.0,0
2205,-121.0,-28.0,212.0,0
2206,-126.0,-25.0,216.0,0
2207,-123.0,-29.0,212.0,0
2208,-126.0,-27.0,210.0,0
2209,-124.0,-28.0,213.0,0
2210,-125.0,-27.0,210.0,0
2211,-124.0,-30.0,211.0,0
2212,-124.0,-26.0,214.0,0
2213,-127.0,-24.0,214.0,0
2214,-124.0,-29.0,211.0,0
2215,-125.0,-25.0,210.0,0
2216,-121.0,-29.0,212.0,0
2217,-124.0,-28.0,212.0,0
2218,-123.0,-30.0,212.0,0
2219,-126.0,-28.0,211.0,0
2220,-122.0,-25.0,212.0,0
2221,-126.0,-24.0,212.0,0
2222,-125.0,-27.0,215.0,0
2223,-126.0,-27.0,211.0,0
2224,-125.0,-27.0,210.0,0
2225,-123.0,-26.0,210.0,0
2226,-126.0,-25.0,217.0,0
2227,-125.0,-25.0,209.0,0
2228,-127.0,-25.0,212.0,0
2229,-124.0,-23.0,213.0,0
2230,-125.0,-23.0,211.0,0
2231,-126.0,-22.0,211.0,0
2232,-126.0,-28.0,212.0,0
2233,-122.0,-28.0,210.0,0
2234,-124.0,-24.0,208.0,0
2235,-125.0,-23.0,207.0,0
2236,-125.0,-24.0,215.0,0
2237,-127.0,-21.0,210.0,0
2238,-125.0,-23.0,215.0,0
2239,-122.0,-27.0,211.0,0
2240,-125.0,-27.0,211.0,0
2241,-122.0,-28.0,216.0,0
2242,-123.0,-26.0,213.0,0
2243,-123.0,-27.0,216.0,0
2244,-125.0,-28.0,211.0,0
2245,-124.0,-28.0,214.0,0
2246,-120.0,-26.0,213.0,0
2247,-121.0,-28.0,213.0,0
2248,-125.0,-29.0,213.0,0
2249,-123.0,-28.0,212.0,0
2250,-124.0,-25.0,214.0,0
2251,-124.0,-25.0,214.0,0
2252,-122.0,-27.0,206.0,0
2253,-125.0,-23.0,209.0,0
2254,-125.0,-23.0,208.0,0
2255,-123.0,-25.0,214.0,0
2256,-125.0,-21.0,211.0,0
2257,-126.0,-20.0,211.0,0
2258,-127.0,-20.0,211.0,0
2259,-124.0,-22.0,209.0,0
2260,-123.0,-21.0,211.0,0
2261,-127.0,-21.0,213.0,0
2262,-124.0,-17.0,212.0,0
2263,-125.0,-18.0,210.0,0
2264,-123.0,-20.0,215.0,0
2265,-123.0,-22.0,215.0,0
2266,-123.0,-23.0,213.0,0
2267,-126.0,-24.0,213.0,0
2268,-125.0,-23.0,213.0,0
2269,-120.0,-22.0,223.0,0
2270,-127.0,-22.0,217.0,0
2271,-123.0,-24.0,216.0,0
2272,-123.0,-24.0,213.0,0
2273,-123.0,-22.0,213.0,0
2274,-126.0,-21.0,216.0,0
2275,-125.0,-23.0,214.0,0
2276,-125.0,-24.0,215.0,0
2277,-125.0,-25.0,212.0,0
2278,-126.0,-26.0,214.0,0
2279,-124.0,-21.0,212.0,0
2280,-125.0,-23.0,212.0,0
2281,-126.0,-23.0,213.0,0
2282,-126.0,-22.0,214.0,0
2283,-127.0,-23.0,211.0,0
2284,-124.0,-21.0,213.0,0
2285,-125.0,-26.0,215.0,0
2286,-127.0,-25.0,214.0,0
2287,-126.0,-21.0,215.0,0
2288,-126.0,-28.0,211.0,0
2289,-126.0,-21.0,216.0,0
2290,-125.0,-23.0,213.0,0
2291,-123.0,-16.0,217.0,0
2292,-122.0,-23.0,212.0,0
2293,-125.0,-23.0,214.0,0
2294,-125.0,-23.0,211.0,0
2295,-124.0,-23.0,210.0,0
2296,-125.0,-21.0,213.0,0
2297,-125.0,-23.0,213.0,0
2298,-124.0,-21.0,215.0,0
2299,-125.0,-24.0,215.0,0
2300,-122.0,-24.0,210.0,0
2301,-132.0,-19.0,212.0,0
2302,-123.0,-22.0,215.0,0
2303,-126.0,-22.0,210.0,0
2304,-123.0,-23.0,213.0,0
2305,-127.0,-23.0,211.0,0
2306,-125.0,-23.0,214.0,0
2307,-126.0,-25.0,214.0,0
2308,-124.0,-23.0,209.0,0
2309,-125.0,-22.0,213.0,0
2310,-126.0,-24.0,214.0,0
2311,-124.0,-24.0,212.0,0
2312,-122.0,-23.0,212.0,0
2313,-123.0,-25.0,217.0,0
2314,-124.0,-24.0,216.0,0
2315,-122.0,-23.0,213.0,0
2316,-124.0,-21.0,212.0,0
2317,-126.0,-20.0,215.0,0
2318,-123.0,-22.0,215.0,0
2319,-126.0,-24.0,217.0,0
2320,-123.0,-19.0,212.0,0
2321,-124.0,-22.0,210.0,0
2322,-124.0,-23.0,211.0,0
2323,-121.0,-21.0,216.0,0
2324,-125.0,-21.0,216.0,0
2325,-123.0,-23.0,216.0,0
2326,-125.0,-21.0,211.0,0
2327,-124.0,-23.0,214.0,0
2328,-126.0,-20.0,216.0,0
2329,-124.0,-23.0,213.0,0
2330,-126.0,-20.0,210.0,0
2331,-124.0,-24.0,215.0,0
2332,-127.0,-19.0,213.0,0
2333,-126.0,-22.0,215.0,0
2334,-125.0,-20.0,212.0,0
2335,-125.0,-21.0,215.0,0
2336,-126.0,-18.0,211.0,0
2337,-125.0,-23.0,213.0,0
2338,-126.0,-19.0,214.0,0
2339,-127.0,-19.0,210.0,0
2340,-126.0,-20.0,208.0,0
2341,-122.0,-22.0,212.0,0
2342,-128.0,-20.0,215.0,0
2343,-123.0,-21.0,211.0,0
2344,-125.0,-22.0,213.0,0
2345,-125.0,-22.0,207.0,0
2346,-124.0,-22.0,212.0,0
2347,-127.0,-22.0,215.0,0
2348,-126.0,-21.0,211.0,0
2349,-124.0,-22.0,213.0,0
2350,-126.0,-21.0,214.0,0
2351,-124.0,-20.0,212.0,0
2352,-124.0,-22.0,209.0,0
2353,-127.0,-21.0,215.0,0
2354,-123.0,-19.0,210.0,0
2355,-123.0,-20.0,213.0,0
2356,-120.0,-19.0,214.0,0
2357,-124.0,-20.0,213.0,0
2358,-125.0,-20.0,216.0,0
2359,-124.0,-20.0,212.0,0
2360,-123.0,-20.0,216.0,0
2361,-124.0,-20.0,213.0,0
2362,-123.0,-17.0,212.0,0
2363,-128.0,-20.0,216.0,0
2364,-124.0,-18.0,209.0,0
2365,-125.0,-19.0,213.0,0
2366,-125.0,-18.0,216.0,0
2367,-127.0,-18.0,212.0,0
2368,-126.0,-19.0,210.0,0
2369,-128.0,-15.0,215.0,0
2370,-126.0,-17.0,215.0,0
2371,-126.0,-18.0,214.0,0
2372,-124.0,-18.0,213.0,0
2373,-127.0,-18.0,216.0,0
2374,-125.0,-19.0,215.0,0
2375,-126.0,-15.0,214.0,0
2376,-125.0,-14.0,212.0,0
2377,-125.0,-19.0,213.0,0
2378,-124.0,-20.0,218.0,0
2379,-124.0,-17.0,216.0,0
2380,-127.0,-18.0,214.0,0
2381,-125.0,-19.0,215.0,0
2382,-124.0,-21.0,215.0,0
2383,-127.0,-17.0,213.0,0
2384,-126.0,-15.0,213.0,0
2385,-123.0,-17.0,217.0,0
2386,-127.0,-16.0,215.0,0
2387,-127.0,-17.0,209.0,0
2388,-125.0,-18.0,216.0,0
2389,-127.0,-16.0,213.0,0
2390,-126.0,-17.0,211.0,0
2391,-126.0,-18.0,215.0,0
2392,-127.0,-16.0,215.0,0
2393,-126.0,-17.0,212.0,0
2394,-126.0,-16.0,213.0,0
2395,-126.0,-19.0,214.0,0
2396,-126.0,-16.0,211.0,0
2397,-126.0,-16.0,212.0,0
2398,-128.0,-18.0,209.0,0
2399,-126.0,-16.0,217.0,0
2400,-127.0,-19.0,215.0,0
2401,-127.0,-18.0,219.0,0
2402,-127.0,-16.0,213.0,0
2403,-127.0,-16.0,215.0,0
2404,-127.0,-17.0,212.0,0
2405,-125.0,-17.0,212.0,0
2406,-126.0,-16.0,210.0,0
2407,-127.0,-17.0,215.0,0
2408,-129.0,-15.0,211.0,0
2409,-126.0,-15.0,211.0,0
2410,-129.0,-14.0,212.0,0
2411,-128.0,-11.0,201.0,0
2412,-127.0,-15.0,210.0,0
2413,-126.0,-18.0,211.0,0
2414,-128.0,-18.0,211.0,0
2415,-127.0,-19.0,211.0,0
2416,-127.0,-17.0,207.0,0
2417,-128.0,-18.0,212.0,0
2418,-128.0,-15.0,212.0,0
2419,-125.0,-15.0,211.0,0
2420,-125.0,-14.0,210.0,0
2421,-126.0,-18.0,208.0,0
2422,-127.0,-15.0,212.0,0
2423,-128.0,-13.0,214.0,0
2424,-127.0,-16.0,216.0,0
2425,-124.0,-17.0,211.0,0
2426,-126.0,-17.0,213.0,0
2427,-128.0,-16.0,207.0,0
2428,-128.0,-12.0,210.0,0
2429,-127.0,-14.0,211.0,0
2430,-129.0,-16.0,213.0,0
2431,-128.0,-16.0,214.0,0
2432,-127.0,-14.0,209.0,0
2433,-126.0,-15.0,214.0,0
2434,-124.0,-18.0,210.0,0
2435,-127.0,-14.0,212.0,0
2436,-128.0,-15.0,212.0,0
2437,-129.0,-13.0,211.0,0
2438,-126.0,-14.0,209.0,0
2439,-126.0,-17.0,208.0,0
2440,-128.0,-14.0,209.0,0
2441,-125.0,-16.0,209.0,0
2442,-128.0,-16.0,212.0,0
2443,-127.0,-15.0,209.0,0
2444,-125.0,-15.0,214.0,0
2445,-127.0,-16.0,211.0,0
2446,-128.0,-18.0,217.0,0
2447,-126.0,-16.0,212.0,0
2448,-127.0,-19.0,212.0,0
2449,-128.0,-14.0,213.0,0
2450,-128.0,-16.0,213.0,0
2451,-127.0,-17.0,213.0,0
2452,-127.0,-16.0,210.0,0
2453,-125.0,-18.0,212.0,0
2454,-128.0,-14.0,212.0,0
2455,-125.0,-16.0,211.0,0
2456,-125.0,-15.0,208.0,0
2457,-127.0,-14.0,214.0,0
2458,-128.0,-13.0,212.0,0
2459,-126.0,-16.0,212.0,0
2460,-126.0,-16.0,210.0,0
2461,-127.0,-12.0,213.0,0
2462,-126.0,-15.0,211.0,0
2463,-128.0,-13.0,209.0,0
2464,-126.0,-14.0,212.0,0
2465,-128.0,-11.0,213.0,0
2466,-127.0,-14.0,216.0,0
2467,-128.0,-13.0,212.0,0
2468,-127.0,-10.0,214.0,0
2469,-125.0,-9.0,210.0,0
2470,-126.0,-12.0,214.0,0
2471,-126.0,-15.0,212.0,0
2472,-127.0,-13.0,215.0,0
2473,-127.0,-13.0,215.0,0
2474,-127.0,-13.0,208.0,0
2475,-128.0,-13.0,211.0,0
2476,-127.0,-10.0,214.0,0
2477,-127.0,-13.0,214.0,0
2478,-127.0,-14.0,215.0,0
2479,-126.0,-16.0,212.0,0
2480,-125.0,-12.0,211.0,0
2481,-127.0,-16.0,213.0,0
2482,-127.0,-16.0,212.0,0
2483,-126.0,-13.0,213.0,0
2484,-127.0,-16.0,213.0,0
2485,-129.0,-13.0,212.0,0
2486,-123.0,-17.0,219.0,0
2487,-125.0,-15.0,210.0,0
2488,-126.0,-15.0,216.0,0
2489,-125.0,-13.0,213.0,0
2490,-127.0,-14.0,211.0,0
2491,-127.0,-15.0,217.0,0
2492,-125.0,-16.0,214.0,0
2493,-125.0,-16.0,214.0,0
2494,-126.0,-18.0,211.0,0
2495,-128.0,-18.0,208.0,0
2496,-127.0,-17.0,213.0,0
2497,-126.0,-13.0,211.0,0
2498,-126.0,-16.0,213.0,0
2499,-127.0,-14.0,213.0,0
2500,-126.0,-17.0,216.0,0
2501,-125.0,-15.0,214.0,0
2502,-124.0,-13.0,217.0,0
2503,-126.0,-15.0,215.0,0
2504,-123.0,-16.0,214.0,0
2505,-126.0,-16.0,216.0,0
2506,-126.0,-18.0,212.0,0
2507,-123.0,-16.0,214.0,0
2508,-126.0,-15.0,212.0,0
2509,-124.0,-12.0,215.0,0
2510,-126.0,-15.0,213.0,0
2511,-127.0,-17.0,210.0,0
2512,-125.0,-18.0,219.0,0
2513,-123.0,-18.0,214.0,0
2514,-123.0,-20.0,215.0,0
2515,-126.0,-20.0,215.0,0
2516,-123.0,-22.0,216.0,0
2517,-124.0,-18.0,209.0,0
2518,-124.0,-22.0,213.0,0
2519,-124.0,-21.0,212.0,0
2520,-128.0,-18.0,215.0,0
2521,-124.0,-19.0,209.0,0
2522,-125.0,-19.0,210.0,0
2523,-124.0,-19.0,212.0,0
2524,-122.0,-18.0,214.0,0
2525,-122.0,-20.0,213.0,0
2526,-125.0,-19.0,211.0,0
2527,-123.0,-21.0,212.0,0
2528,-125.0,-18.0,213.0,0
2529,-125.0,-15.0,214.0,0
2530,-126.0,-18.0,214.0,0
2531,-123.0,-18.0,212.0,0
2532,-123.0,-20.0,214.0,0
2533,-124.0,-18.0,213.0,0
2534,-125.0,-20.0,215.0,0
2535,-124.0,-21.0,215.0,0
2536,-127.0,-19.0,214.0,0
2537,-126.0,-22.0,215.0,0
2538,-127.0,-19.0,214.0,0
2539,-125.0,-20.0,213.0,0
2540,-124.0,-22.0,211.0,0
2541,-125.0,-20.0,208.0,0
2542,-126.0,-22.0,211.0,0
2543,-123.0,-21.0,216.0,0
2544,-125.0,-23.0,209.0,0
2545,-123.0,-20.0,215.0,0
2546,-127.0,-22.0,212.0,0
2547,-126.0,-21.0,217.0,0
2548,-126.0,-21.0,210.0,0
2549,-128.0,-18.0,213.0,0
2550,-124.0,-22.0,214.0,0
2551,-127.0,-23.0,211.0,0
2552,-126.0,-25.0,214.0,0
2553,-124.0,-26.0,213.0,0
2554,-124.0,-24.0,212.0,0
2555,-124.0,-22.0,210.0,0
2556,-125.0,-22.0,215.0,0
2557,-126.0,-24.0,212.0,0
2558,-121.0,-26.0,214.0,0
2559,-125.0,-22.0,212.0,0
2560,-124.0,-25.0,211.0,0
2561,-125.0,-23.0,215.0,0
2562,-122.0,-23.0,212.0,0
2563,-125.0,-24.0,211.0,0
2564,-128.0,-21.0,213.0,0
2565,-125.0,-23.0,214.0,0
2566,-125.0,-22.0,214.0,0
2567,-123.0,-22.0,213.0,0
2568,-127.0,-23.0,213.0,0
2569,-121.0,-23.0,214.0,0
2570,-125.0,-20.0,212.0,0
2571,-121.0,-25.0,210.0,0
2572,-122.0,-23.0,215.0,0
2573,-125.0,-21.0,214.0,0
2574,-124.0,-24.0,216.0,0
2575,-124.0,-24.0,210.0,0
2576,-125.0,-22.0,214.0,0
2577,-123.0,-23.0,211.0,0
2578,-126.0,-25.0,212.0,0
2579,-126.0,-23.0,213.0,0
2580,-126.0,-21.0,210.0,0
2581,-123.0,-26.0,216.0,0
2582,-123.0,-25.0,212.0,0
2583,-124.0,-26.0,211.0,0
2584,-124.0,-23.0,213.0,0
2585,-124.0,-28.0,210.0,0
2586,-125.0,-21.0,214.0,0
2587,-125.0,-24.0,213.0,0
2588,-125.0,-25.0,214.0,0
2589,-124.0,-23.0,209.0,0
2590,-126.0,-21.0,215.0,0
2591,-123.0,-23.0,210.0,0
2592,-126.0,-24.0,211.0,0
2593,-124.0,-26.0,212.0,0
2594,-124.0,-24.0,215.0,0
2595,-127.0,-24.0,214.0,0
2596,-130.0,-23.0,202.0,0
2597,-125.0,-24.0,211.0,0
2598,-125.0,-22.0,209.0,0
2599,-125.0,-25.0,210.0,0
2600,-124.0,-24.0,210.0,0
2601,-126.0,-24.0,211.0,0
2602,-123.0,-25.0,211.0,0
2603,-125.0,-27.0,211.0,0
2604,-125.0,-25.0,213.0,0
2605,-125.0,-22.0,211.0,0
2606,-125.0,-25.0,208.0,0
2607,-123.0,-26.0,212.0,0
2608,-126.0,-26.0,211.0,0
2609,-125.0,-26.0,214.0,0
2610,-126.0,-22.0,214.0,0
2611,-125.0,-22.0,211.0,0
2612,-124.0,-24.0,214.0,0
2613,-125.0,-24.0,211.0,0
2614,-125.0,-24.0,212.0,0
2615,-125.0,-23.0,212.0,0
2616,-124.0,-23.0,214.0,0
2617,-124.0,-25.0,213.0,0
2618,-124.0,-18.0,215.0,0
2619,-124.0,-28.0,211.0,0
2620,-124.0,-26.0,210.0,0
2621,-123.0,-26.0,212.0,0
2622,-125.0,-26.0,212.0,0
2623,-127.0,-25.0,212.0,0
2624,-125.0,-26.0,210.0,0
2625,-127.0,-25.0,210.0,0
2626,-125.0,-28.0,214.0,0
2627,-125.0,-26.0,211.0,0
2628,-123.0,-24.0,214.0,0
2629,-127.0,-25.0,212.0,0
2630,-124.0,-27.0,213.0,0
2631,-124.0,-28.0,215.0,0
2632,-125.0,-26.0,208.0,0
2633,-125.0,-26.0,216.0,0
2634,-125.0,-29.0,212.0,0
2635,-126.0,-27.0,211.0,0
2636,-123.0,-27.0,209.0,0
2637,-126.0,-29.0,209.0,0
2638,-127.0,-25.0,211.0,0
2639,-123.0,-29.0,209.0,0
2640,-126.0,-28.0,211.0,0
2641,-126.0,-26.0,210.0,0
2642,-123.0,-26.0,212.0,0
2643,-123.0,-27.0,214.0,0
2644,-123.0,-28.0,210.0,0
2645,-124.0,-29.0,212.0,0
2646,-123.0,-26.0,211.0,0
2647,-126.0,-28.0,209.0,0
2648,-125.0,-26.0,207.0,0
2649,-124.0,-27.0,210.0,0
2650,-126.0,-28.0,207.0,0
2651,-125.0,-24.0,211.0,0
2652,-127.0,-26.0,212.0,0
2653,-126.0,-26.0,211.0,0
2654,-128.0,-25.0,213.0,0
2655,-125.0,-28.0,211.0,0
2656,-126.0,-26.0,209.0,0
2657,-122.0,-25.0,209.0,0
2658,-124.0,-25.0,209.0,0
2659,-123.0,-28.0,213.0,0
2660,-125.0,-27.0,212.0,0
2661,-125.0,-29.0,212.0,0
2662,-124.0,-29.0,214.0,0
2663,-125.0,-32.0,211.0,0
2664,-125.0,-29.0,213.0,0
2665,-126.0,-31.0,211.0,0
2666,-124.0,-30.0,216.0,0
2667,-124.0,-31.0,212.0,0
2668,-123.0,-30.0,215.0,0
2669,-125.0,-31.0,210.0,0
2670,-122.0,-30.0,211.0,0
2671,-126.0,-27.0,207.0,0
2672,-123.0,-28.0,209.0,0
2673,-126.0,-27.0,207.0,0
2674,-123.0,-24.0,209.0,0
2675,-125.0,-23.0,209.0,0
2676,-124.0,-27.0,211.0,0
2677,-126.0,-25.0,211.0,0
2678,-125.0,-25.0,209.0,0
2679,-124.0,-22.0,210.0,0
2680,-127.0,-26.0,211.0,0
2681,-128.0,-25.0,211.0,0
2682,-127.0,-26.0,215.0,0
2683,-121.0,-23.0,218.0,0
2684,-127.0,-23.0,212.0,0
2685,-127.0,-22.0,212.0,0
2686,-123.0,-28.0,215.0,0
2687,-125.0,-26.0,214.0,0
2688,-126.0,-26.0,210.0,0
2689,-126.0,-26.0,209.0,0
2690,-128.0,-25.0,212.0,0
2691,-125.0,-28.0,211.0,0
2692,-126.0,-29.0,215.0,0
2693,-125.0,-27.0,210.0,0
2694,-125.0,-27.0,213.0,0
2695,-125.0,-28.0,208.0,0
2696,-126.0,-27.0,211.0,0
2697,-125.0,-30.0,214.0,0
2698,-128.0,-27.0,212.0,0
2699,-125.0,-29.0,211.0,0
2700,-124.0,-29.0,209.0,0
2701,-127.0,-29.0,213.0,0
2702,-126.0,-27.0,212.0,0
2703,-126.0,-31.0,210.0,0
2704,-126.0,-29.0,211.0,0
2705,-119.0,-27.0,211.0,0
2706,-126.0,-27.0,212.0,0
2707,-124.0,-28.0,210.0,0
2708,-126.0,-29.0,210.0,0
2709,-124.0,-30.0,207.0,0
2710,-125.0,-28.0,213.0,0
2711,-125.0,-30.0,211.0,0
2712,-125.0,-29.0,206.0,0
2713,-125.0,-30.0,210.0,0
2714,-126.0,-30.0,207.0,0
2715,-125.0,-26.0,209.0,0
2716,-127.0,-25.0,208.0,0
2717,-124.0,-31.0,209.0,0
2718,-124.0,-25.0,204.0,0
2719,-126.0,-29.0,210.0,0
2720,-124.0,-27.0,210.0,0
2721,-127.0,-28.0,211.0,0
2722,-126.0,-30.0,207.0,0
2723,-125.0,-28.0,207.0,0
2724,-124.0,-31.0,212.0,0
2725,-126.0,-30.0,209.0,0
2726,-125.0,-27.0,208.0,0
2727,-125.0,-27.0,208.0,0
2728,-124.0,-30.0,211.0,0
2729,-125.0,-29.0,212.0,0
2730,-123.0,-31.0,207.0,0
2731,-127.0,-28.0,208.0,0
2732,-127.0,-25.0,211.0,0
2733,-124.0,-30.0,208.0,0
2734,-126.0,-29.0,210.0,0
2735,-126.0,-24.0,209.0,0
2736,-125.0,-30.0,212.0,0
2737,-123.0,-26.0,210.0,0
2738,-123.0,-29.0,210.0,0
2739,-126.0,-24.0,212.0,0
2740,-125.0,-30.0,209.0,0
2741,-124.0,-27.0,211.0,0
2742,-124.0,-28.0,210.0,0
2743,-126.0,-28.0,209.0,0
2744,-125.0,-27.0,214.0,0
2745,-127.0,-27.0,213.0,0
2746,-127.0,-28.0,210.0,0
2747,-127.0,-24.0,213.0,0
2748,-128.0,-29.0,209.0,0
2749,-126.0,-27.0,209.0,0
2750,-125.0,-25.0,214.0,0
2751,-123.0,-26.0,217.0,0
2752,-128.0,-24.0,213.0,0
2753,-127.0,-25.0,215.0,0
2754,-125.0,-26.0,210.0,0
2755,-126.0,-24.0,216.0,0
2756,-125.0,-27.0,213.0,0
2757,-124.0,-27.0,214.0,0
2758,-124.0,-28.0,213.0,0
2759,-123.0,-28.0,214.0,0
2760,-123.0,-28.0,212.0,0
2761,-124.0,-24.0,213.0,0
2762,-124.0,-26.0,211.0,0
2763,-126.0,-28.0,215.0,0
2764,-124.0,-24.0,213.0,0
2765,-123.0,-29.0,211.0,0
2766,-126.0,-25.0,211.0,0
2767,-123.0,-27.0,210.0,0
2768,-126.0,-27.0,213.0,0
2769,-127.0,-23.0,207.0,0
2770,-124.0,-22.0,213.0,0
2771,-124.0,-26.0,211.0,0
2772,-126.0,-26.0,212.0,0
2773,-125.0,-30.0,213.0,0
2774,-125.0,-26.0,213.0,0
2775,-125.0,-26.0,214.0,0
2776,-125.0,-26.0,212.0,0
2777,-122.0,-26.0,212.0,0
2778,-124.0,-24.0,213.0,0
2779,-127.0,-25.0,209.0,0
2780,-127.0,-25.0,219.0,0
2781,-125.0,-25.0,207.0,0
2782,-125.0,-30.0,211.0,0
2783,-127.0,-25.0,210.0,0
2784,-123.0,-27.0,211.0,0
2785,-125.0,-26.0,212.0,0
2786,-126.0,-28.0,212.0,0
2787,-123.0,-27.0,212.0,0
2788,-126.0,-24.0,211.0,0
2789,-127.0,-26.0,211.0,0
2790,-123.0,-21.0,213.0,0
2791,-125.0,-26.0,210.0,0
2792,-126.0,-26.0,212.0,0
2793,-122.0,-25.0,212.0,0
2794,-125.0,-25.0,210.0,0
2795,-124.0,-25.0,214.0,0
2796,-123.0,-24.0,212.0,0
2797,-126.0,-24.0,210.0,0
2798,-123.0,-26.0,216.0,0
2799,-124.0,-24.0,212.0,0
2800,-124.0,-25.0,213.0,0
2801,-126.0,-23.0,214.0,0
2802,-123.0,-27.0,211.0,0
2803,-124.0,-25.0,210.0,0
2804,-125.0,-23.0,215.0,0
2805,-123.0,-24.0,211.0,0
2806,-125.0,-23.0,215.0,0
2807,-126.0,-22.0,215.0,0
2808,-123.0,-25.0,214.0,0
2809,-125.0,-24.0,212.0,0
2810,-125.0,-24.0,216.0,0
2811,-126.0,-24.0,211.0,0
2812,-123.0,-26.0,213.0,0
2813,-124.0,-27.0,215.0,0
2814,-125.0,-25.0,211.0,0
2815,-126.0,-22.0,212.0,0
2816,-123.0,-26.0,212.0,0
2817,-124.0,-25.0,215.0,0
2818,-125.0,-22.0,207.0,0
2819,-126.0,-22.0,211.0,0
2820,-127.0,-21.0,212.0,0
2821,-124.0,-28.0,210.0,0
2822,-129.0,-25.0,213.0,0
2823,-125.0,-22.0,213.0,0
2824,-121.0,-24.0,213.0,0
2825,-125.0,-24.0,212.0,0
2826,-123.0,-24.0,212.0,0
2827,-126.0,-23.0,210.0,0
2828,-124.0,-25.0,211.0,0
2829,-125.0,-25.0,214.0,0
2830,-124.0,-23.0,211.0,0
2831,-125.0,-23.0,211.0,0
2832,-126.0,-24.0,211.0,0
2833,-122.0,-27.0,208.0,0
2834,-124.0,-21.0,211.0,0
2835,-126.0,-24.0,211.0,0
2836,-122.0,-19.0,215.0,0
2837,-125.0,-23.0,214.0,0
2838,-124.0,-25.0,214.0,0
2839,-127.0,-24.0,212.0,0
2840,-124.0,-21.0,210.0,0
2841,-128.0,-23.0,211.0,0
2842,-125.0,-23.0,210.0,0
2843,-123.0,-20.0,213.0,0
2844,-126.0,-21.0,211.0,0
2845,-124.0,-23.0,209.0,0
2846,-127.0,-19.0,210.0,0
2847,-125.0,-24.0,208.0,0
2848,-126.0,-20.0,213.0,0
2849,-125.0,-22.0,208.0,0
2850,-126.0,-22.0,213.0,0
2851,-125.0,-23.0,215.0,0
2852,-125.0,-20.0,211.0,0
2853,-126.0,-22.0,213.0,0
2854,-126.0,-24.0,217.0,0
2855,-122.0,-23.0,215.0,0
2856,-126.0,-26.0,214.0,0
2857,-124.0,-26.0,216.0,0
2858,-126.0,-28.0,214.0,0
2859,-124.0,-22.0,214.0,0
2860,-124.0,-25.0,211.0,0
2861,-124.0,-23.0,213.0,0
2862,-125.0,-24.0,209.0,0
2863,-123.0,-23.0,209.0,0
2864,-123.0,-23.0,208.0,0
2865,-123.0,-21.0,210.0,0
2866,-125.0,-21.0,209.0,0
2867,-126.0,-16.0,211.0,0
2868,-125.0,-19.0,208.0,0
2869,-125.0,-17.0,209.0,0
2870,-123.0,-18.0,213.0,0
2871,-126.0,-17.0,213.0,0
2872,-126.0,-18.0,211.0,0
2873,-124.0,-16.0,214.0,0
2874,-125.0,-17.0,210.0,0
2875,-125.0,-19.0,213.0,0
2876,-123.0,-20.0,213.0,0
2877,-126.0,-15.0,214.0,0
2878,-126.0,-20.0,211.0,0
2879,-126.0,-16.0,215.0,0
2880,-126.0,-16.0,215.0,0
2881,-127.0,-21.0,213.0,0
2882,-125.0,-19.0,212.0,0
2883,-127.0,-22.0,216.0,0
2884,-127.0,-23.0,210.0,0
2885,-125.0,-22.0,213.0,0
2886,-125.0,-22.0,211.0,0
2887,-126.0,-22.0,210.0,0
2888,-123.0,-21.0,211.0,0
2889,-126.0,-18.0,213.0,0
2890,-125.0,-23.0,214.0,0
2891,-123.0,-23.0,214.0,0
2892,-125.0,-20.0,212.0,0
2893,-128.0,-20.0,213.0,0
2894,-126.0,-19.0,211.0,0
2895,-124.0,-21.0,212.0,0
2896,-127.0,-20.0,214.0,0
2897,-127.0,-23.0,216.0,0
2898,-122.0,-22.0,213.0,0
2899,-125.0,-20.0,211.0,0
2900,-125.0,-21.0,212.0,0
2901,-126.0,-20.0,215.0,0
2902,-124.0,-21.0,213.0,0
2903,-125.0,-20.0,209.0,0
2904,-126.0,-18.0,210.0,0
2905,-125.0,-19.0,212.0,0
2906,-125.0,-20.0,210.0,0
2907,-122.0,-21.0,212.0,0
2908,-125.0,-19.0,209.0,0
2909,-126.0,-16.0,215.0,0
2910,-126.0,-17.0,211.0,0
2911,-124.0,-18.0,213.0,0
2912,-125.0,-22.0,215.0,0
2913,-124.0,-18.0,213.0,0
2914,-125.0,-21.0,215.0,0
2915,-125.0,-24.0,210.0,0
2916,-125.0,-21.0,210.0,0
2917,-124.0,-21.0,213.0,0
2918,-127.0,-20.0,215.0,0
2919,-122.0,-22.0,213.0,0
2920,-123.0,-21.0,214.0,0
2921,-127.0,-19.0,215.0,0
2922,-126.0,-20.0,212.0,0
2923,-117.0,-17.0,209.0,0
2924,-124.0,-20.0,210.0,0
2925,-126.0,-20.0,214.0,0
2926,-123.0,-21.0,210.0,0
2927,-125.0,-22.0,211.0,0
2928,-125.0,-19.0,211.0,0
2929,-126.0,-16.0,215.0,0
2930,-127.0,-20.0,214.0,0
2931,-127.0,-19.0,210.0,0
2932,-126.0,-21.0,214.0,0
2933,-127.0,-10.0,207.0,0
2934,-124.0,-18.0,215.0,0
2935,-126.0,-19.0,213.0,0
2936,-125.0,-18.0,212.0,0
2937,-125.0,-20.0,212.0,0
2938,-127.0,-18.0,212.0,0
2939,-125.0,-15.0,213.0,0
2940,-126.0,-17.0,210.0,0
2941,-125.0,-20.0,214.0,0
2942,-126.0,-17.0,216.0,0
2943,-127.0,-17.0,211.0,0
2944,-125.0,-17.0,212.0,0
2945,-125.0,-22.0,211.0,0
2946,-127.0,-19.0,212.0,0
2947,-126.0,-17.0,209.0,0
2948,-125.0,-21.0,211.0,0
2949,-125.0,-17.0,215.0,0
2950,-125.0,-21.0,212.0,0
2951,-127.0,-14.0,214.0,0
2952,-125.0,-19.0,212.0,0
2953,-125.0,-20.0,214.0,0
2954,-124.0,-21.0,209.0,0
2955,-125.0,-17.0,213.0,0
2956,-124.0,-20.0,214.0,0
2957,-125.0,-16.0,214.0,0
2958,-124.0,-14.0,212.0,0
2959,-127.0,-17.0,212.0,0
2960,-122.0,-17.0,215.0,0
2961,-125.0,-19.0,214.0,0
2962,-125.0,-18.0,214.0,0
2963,-124.0,-17.0,212.0,0
2964,-127.0,-19.0,215.0,0
2965,-125.0,-15.0,214.0,0
2966,-125.0,-17.0,214.0,0
2967,-125.0,-18.0,212.0,0
2968,-127.0,-16.0,212.0,0
2969,-123.0,-17.0,212.0,0
2970,-124.0,-18.0,214.0,0
2971,-126.0,-18.0,214.0,0
2972,-128.0,-18.0,213.0,0
2973,-125.0,-15.0,214.0,0
2974,-123.0,-19.0,211.0,0
2975,-125.0,-19.0,212.0,0
2976,-127.0,-16.0,212.0,0
2977,-126.0,-19.0,217.0,0
2978,-124.0,-16.0,211.0,0
2979,-124.0,-16.0,214.0,0
2980,-126.0,-18.0,212.0,0
2981,-126.0,-18.0,213.0,0
2982,-126.0,-16.0,216.0,0
2983,-126.0,-18.0,213.0,0
2984,-123.0,-20.0,210.0,0
2985,-125.0,-18.0,211.0,0
2986,-127.0,-20.0,210.0,0
2987,-124.0,-18.0,214.0,0
2988,-124.0,-12.0,205.0,0
2989,-123.0,-17.0,212.0,0
2990,-124.0,-18.0,211.0,0
2991,-126.0,-20.0,215.0,0
2992,-125.0,-17.0,213.0,0
2993,-123.0,-20.0,214.0,0
2994,-126.0,-17.0,210.0,0
2995,-124.0,-18.0,214.0,0
2996,-125.0,-19.0,214.0,0
2997,-127.0,-19.0,214.0,0
2998,-124.0,-17.0,211.0,0
2999,-125.0,-16.0,213.0,0
