,accelerometer_x,accelerometer_y,accelerometer_z,fall
0,-3.0,-241.0,66.0,0
1,-6.0,-239.0,68.0,0
2,-3.0,-237.0,67.0,0
3,-2.0,-240.0,69.0,0
4,-4.0,-240.0,67.0,0
5,-6.0,-240.0,67.0,0
6,-3.0,-240.0,65.0,0
7,-6.0,-240.0,66.0,0
8,-6.0,-242.0,65.0,0
9,-2.0,-238.0,66.0,0
10,-3.0,-238.0,66.0,0
11,-2.0,-237.0,67.0,0
12,-2.0,-238.0,64.0,0
13,-1.0,-238.0,64.0,0
14,-5.0,-240.0,66.0,0
15,-5.0,-239.0,66.0,0
16,-5.0,-236.0,66.0,0
17,-5.0,-238.0,64.0,0
18,-4.0,-242.0,67.0,0
19,-1.0,-242.0,68.0,0
20,-3.0,-239.0,64.0,0
21,-5.0,-240.0,67.0,0
22,0.0,-240.0,68.0,0
23,-3.0,-238.0,69.0,0
24,-6.0,-240.0,68.0,0
25,-3.0,-239.0,66.0,0
26,-4.0,-235.0,67.0,0
27,-3.0,-240.0,67.0,0
28,-2.0,-241.0,65.0,0
29,-1.0,-237.0,67.0,0
30,-6.0,-238.0,65.0,0
31,-2.0,-238.0,69.0,0
32,-5.0,-237.0,66.0,0
33,-5.0,-239.0,67.0,0
34,-3.0,-238.0,66.0,0
35,-2.0,-237.0,67.0,0
36,-2.0,-238.0,70.0,0
37,-3.0,-239.0,67.0,0
38,-2.0,-242.0,68.0,0
39,0.0,-238.0,68.0,0
40,-2.0,-240.0,67.0,0
41,-3.0,-241.0,69.0,0
42,-7.0,-238.0,67.0,0
43,-1.0,-238.0,66.0,0
44,0.0,-240.0,70.0,0
45,-2.0,-236.0,66.0,0
46,-5.0,-235.0,70.0,0
47,-2.0,-238.0,67.0,0
48,-3.0,-240.0,66.0,0
49,-4.0,-238.0,68.0,0
50,-2.0,-235.0,67.0,0
51,-3.0,-239.0,66.0,0
52,-2.0,-239.0,68.0,0
53,-3.0,-236.0,67.0,0
54,-1.0,-237.0,69.0,0
55,-4.0,-238.0,66.0,0
56,-1.0,-240.0,66.0,0
57,-1.0,-239.0,66.0,0
58,-3.0,-238.0,70.0,0
59,-6.0,-239.0,69.0,0
60,-5.0,-238.0,67.0,0
61,-5.0,-238.0,65.0,0
62,0.0,-239.0,65.0,0
63,-2.0,-238.0,66.0,0
64,-3.0,-235.0,66.0,0
65,-5.0,-238.0,67.0,0
66,-3.0,-239.0,69.0,0
67,-1.0,-239.0,69.0,0
68,-1.0,-238.0,66.0,0
69,-3.0,-236.0,69.0,0
70,-2.0,-237.0,68.0,0
71,-1.0,-236.0,69.0,0
72,-2.0,-235.0,70.0,0
73,-2.0,-238.0,67.0,0
74,-4.0,-237.0,67.0,0
75,-5.0,-239.0,66.0,0
76,-6.0,-238.0,68.0,0
77,-4.0,-238.0,67.0,0
78,-4.0,-238.0,68.0,0
79,-5.0,-238.0,69.0,0
80,-2.0,-239.0,67.0,0
81,-2.0,-241.0,70.0,0
82,-4.0,-240.0,69.0,0
83,-4.0,-238.0,68.0,0
84,-5.0,-240.0,68.0,0
85,-4.0,-239.0,68.0,0
86,-4.0,-241.0,68.0,0
87,-3.0,-240.0,68.0,0
88,-4.0,-240.0,72.0,0
89,-3.0,-239.0,68.0,0
90,-5.0,-241.0,66.0,0
91,0.0,-239.0,66.0,0
92,-4.0,-236.0,70.0,0
93,-1.0,-237.0,66.0,0
94,-1.0,-237.0,68.0,0
95,-2.0,-239.0,66.0,0
96,-1.0,-240.0,70.0,0
97,-2.0,-239.0,68.0,0
98,0.0,-239.0,66.0,0
99,-5.0,-234.0,66.0,0
100,-6.0,-236.0,67.0,0
101,-2.0,-236.0,70.0,0
102,-2.0,-237.0,67.0,0
103,-3.0,-239.0,68.0,0
104,-4.0,-236.0,69.0,0
105,-2.0,-238.0,70.0,0
106,0.0,-238.0,68.0,0
107,-7.0,-234.0,67.0,0
108,-2.0,-239.0,69.0,0
109,-4.0,-241.0,65.0,0
110,-2.0,-236.0,67.0,0
111,-1.0,-239.0,69.0,0
112,-5.0,-237.0,67.0,0
113,-5.0,-236.0,69.0,0
114,-4.0,-240.0,70.0,0
115,-4.0,-239.0,70.0,0
116,-2.0,-241.0,68.0,0
117,-5.0,-239.0,69.0,0
118,-8.0,-236.0,72.0,0
119,-3.0,-239.0,65.0,0
120,-4.0,-241.0,67.0,0
121,-1.0,-241.0,70.0,0
122,-2.0,-239.0,69.0,0
123,-8.0,-240.0,67.0,0
124,-4.0,-240.0,70.0,0
125,-5.0,-237.0,68.0,0
126,-8.0,-238.0,65.0,0
127,-3.0,-240.0,66.0,0
128,-5.0,-236.0,70.0,0
129,-4.0,-236.0,70.0,0
130,-5.0,-237.0,64.0,0
131,-5.0,-237.0,67.0,0
132,-4.0,-238.0,72.0,0
133,-5.0,-237.0,66.0,0
134,-5.0,-238.0,68.0,0
135,-3.0,-240.0,68.0,0
136,-5.0,-239.0,69.0,0
137,-2.0,-238.0,66.0,0
138,-4.0,-238.0,70.0,0
139,-5.0,-238.0,67.0,0
140,-7.0,-236.0,66.0,0
141,-4.0,-237.0,69.0,0
142,-3.0,-236.0,67.0,0
143,-4.0,-237.0,69.0,0
144,-5.0,-238.0,68.0,0
145,-5.0,-238.0,71.0,0
146,-6.0,-238.0,69.0,0
147,-6.0,-242.0,69.0,0
148,-8.0,-236.0,68.0,0
149,-4.0,-235.0,67.0,0
150,-3.0,-239.0,70.0,0
151,-7.0,-239.0,68.0,0
152,-7.0,-239.0,68.0,0
153,-9.0,-237.0,68.0,0
154,-6.0,-239.0,69.0,0
155,-7.0,-237.0,73.0,0
156,-5.0,-240.0,69.0,0
157,-6.0,-236.0,71.0,0
158,-5.0,-238.0,68.0,0
159,-5.0,-238.0,69.0,0
160,-5.0,-236.0,70.0,0
161,-8.0,-239.0,68.0,0
162,-6.0,-235.0,71.0,0
163,-3.0,-239.0,68.0,0
164,-4.0,-239.0,72.0,0
165,0.0,-238.0,69.0,0
166,-5.0,-233.0,69.0,0
167,-5.0,-234.0,68.0,0
168,2.0,-235.0,65.0,0
169,4.0,-232.0,65.0,0
170,4.0,-229.0,64.0,0
171,3.0,-230.0,59.0,0
172,1.0,-232.0,63.0,0
173,1.0,-232.0,64.0,0
174,2.0,-238.0,64.0,0
175,2.0,-241.0,63.0,0
176,-3.0,-241.0,63.0,0
177,-5.0,-242.0,66.0,0
178,-7.0,-241.0,67.0,0
179,-5.0,-242.0,66.0,0
180,-7.0,-238.0,65.0,0
181,-7.0,-239.0,68.0,0
182,-5.0,-238.0,70.0,0
183,-3.0,-237.0,69.0,0
184,0.0,-234.0,72.0,0
185,-2.0,-234.0,73.0,0
186,0.0,-237.0,73.0,0
187,4.0,-235.0,75.0,0
188,4.0,-237.0,71.0,0
189,3.0,-236.0,73.0,0
190,5.0,-243.0,77.0,0
191,3.0,-243.0,74.0,0
192,4.0,-244.0,74.0,0
193,0.0,-243.0,72.0,0
194,0.0,-241.0,70.0,0
195,1.0,-245.0,73.0,0
196,-1.0,-244.0,70.0,0
197,-4.0,-241.0,72.0,0
198,-3.0,-238.0,72.0,0
199,-8.0,-236.0,71.0,0
200,-6.0,-242.0,76.0,0
201,-6.0,-237.0,72.0,0
202,-8.0,-239.0,70.0,0
203,-10.0,-237.0,69.0,0
204,-8.0,-238.0,73.0,0
205,-8.0,-235.0,68.0,0
206,-6.0,-234.0,72.0,0
207,-2.0,-236.0,70.0,0
208,-9.0,-236.0,67.0,0
209,-3.0,-242.0,65.0,0
210,-6.0,-236.0,70.0,0
211,-9.0,-237.0,65.0,0
212,-9.0,-239.0,64.0,0
213,-8.0,-236.0,67.0,0
214,-7.0,-241.0,67.0,0
215,-9.0,-240.0,64.0,0
216,-10.0,-239.0,67.0,0
217,-11.0,-238.0,64.0,0
218,-10.0,-241.0,66.0,0
219,-14.0,-238.0,65.0,0
220,-15.0,-238.0,66.0,0
221,-13.0,-240.0,68.0,0
222,-13.0,-239.0,66.0,0
223,-15.0,-239.0,65.0,0
224,-16.0,-241.0,66.0,0
225,-17.0,-240.0,67.0,0
226,-16.0,-241.0,67.0,0
227,-17.0,-242.0,67.0,0
228,-17.0,-240.0,65.0,0
229,-17.0,-237.0,63.0,0
230,-15.0,-239.0,62.0,0
231,-20.0,-241.0,64.0,0
232,-16.0,-239.0,64.0,0
233,-15.0,-239.0,64.0,0
234,-14.0,-239.0,66.0,0
235,-13.0,-239.0,65.0,0
236,-11.0,-240.0,63.0,0
237,-12.0,-238.0,59.0,0
238,-14.0,-238.0,62.0,0
239,-11.0,-240.0,65.0,0
240,-7.0,-242.0,66.0,0
241,-10.0,-239.0,66.0,0
242,-8.0,-236.0,67.0,0
243,-8.0,-237.0,66.0,0
244,-8.0,-238.0,67.0,0
245,-7.0,-236.0,65.0,0
246,-6.0,-237.0,65.0,0
247,-5.0,-235.0,65.0,0
248,-4.0,-234.0,67.0,0
249,-1.0,-235.0,67.0,0
250,0.0,-237.0,65.0,0
251,1.0,-236.0,61.0,0
252,1.0,-236.0,68.0,0
253,0.0,-238.0,66.0,0
254,2.0,-236.0,67.0,0
255,2.0,-239.0,69.0,0
256,1.0,-238.0,70.0,0
257,2.0,-236.0,71.0,0
258,2.0,-242.0,66.0,0
259,4.0,-241.0,66.0,0
260,1.0,-236.0,67.0,0
261,3.0,-238.0,68.0,0
262,3.0,-236.0,66.0,0
263,1.0,-237.0,69.0,0
264,4.0,-240.0,70.0,0
265,0.0,-238.0,69.0,0
266,3.0,-240.0,72.0,0
267,0.0,-239.0,66.0,0
268,1.0,-243.0,67.0,0
269,3.0,-245.0,65.0,0
270,4.0,-242.0,69.0,0
271,2.0,-245.0,67.0,0
272,1.0,-244.0,67.0,0
273,1.0,-242.0,69.0,0
274,0.0,-242.0,65.0,0
275,0.0,-242.0,65.0,0
276,2.0,-239.0,66.0,0
277,0.0,-240.0,65.0,0
278,-3.0,-237.0,67.0,0
279,0.0,-237.0,64.0,0
280,-1.0,-238.0,67.0,0
281,-2.0,-237.0,65.0,0
282,0.0,-240.0,63.0,0
283,0.0,-240.0,64.0,0
284,0.0,-239.0,66.0,0
285,2.0,-240.0,65.0,0
286,2.0,-237.0,65.0,0
287,0.0,-239.0,67.0,0
288,0.0,-239.0,64.0,0
289,0.0,-236.0,67.0,0
290,3.0,-239.0,65.0,0
291,0.0,-241.0,63.0,0
292,1.0,-237.0,63.0,0
293,1.0,-240.0,65.0,0
294,0.0,-238.0,65.0,0
295,0.0,-239.0,66.0,0
296,0.0,-240.0,67.0,0
297,1.0,-240.0,65.0,0
298,0.0,-239.0,67.0,0
299,-2.0,-243.0,65.0,0
300,-1.0,-239.0,65.0,0
301,0.0,-240.0,65.0,0
302,1.0,-240.0,68.0,0
303,0.0,-239.0,67.0,0
304,-1.0,-238.0,68.0,0
305,0.0,-239.0,66.0,0
306,0.0,-239.0,68.0,0
307,-6.0,-236.0,67.0,0
308,-2.0,-236.0,67.0,0
309,-4.0,-237.0,68.0,0
310,-3.0,-238.0,64.0,0
311,-4.0,-239.0,69.0,0
312,-5.0,-237.0,65.0,0
313,-6.0,-242.0,68.0,0
314,-7.0,-236.0,67.0,0
315,-8.0,-236.0,69.0,0
316,-6.0,-238.0,70.0,0
317,-6.0,-239.0,69.0,0
318,-8.0,-238.0,70.0,0
319,-6.0,-236.0,70.0,0
320,-10.0,-242.0,71.0,0
321,5.0,-248.0,88.0,0
322,-9.0,-238.0,71.0,0
323,-8.0,-238.0,70.0,0
324,-9.0,-240.0,71.0,0
325,-10.0,-238.0,74.0,0
326,-13.0,-235.0,71.0,0
327,-7.0,-240.0,72.0,0
328,-6.0,-240.0,70.0,0
329,-10.0,-240.0,68.0,0
330,-11.0,-237.0,71.0,0
331,-13.0,-239.0,68.0,0
332,-11.0,-239.0,66.0,0
333,-12.0,-238.0,69.0,0
334,-11.0,-238.0,67.0,0
335,-11.0,-239.0,73.0,0
336,-8.0,-238.0,73.0,0
337,-7.0,-239.0,71.0,0
338,-7.0,-237.0,68.0,0
339,-6.0,-239.0,69.0,0
340,-7.0,-238.0,68.0,0
341,-5.0,-233.0,72.0,0
342,-6.0,-234.0,69.0,0
343,-7.0,-234.0,66.0,0
344,-8.0,-232.0,66.0,0
345,-4.0,-233.0,70.0,0
346,-9.0,-231.0,70.0,0
347,-7.0,-234.0,69.0,0
348,-6.0,-235.0,68.0,0
349,-10.0,-236.0,68.0,0
350,-6.0,-237.0,73.0,0
351,-5.0,-234.0,67.0,0
352,-8.0,-234.0,73.0,0
353,-1.0,-236.0,71.0,0
354,-3.0,-234.0,78.0,0
355,-2.0,-235.0,77.0,0
356,0.0,-234.0,74.0,0
357,1.0,-237.0,77.0,0
358,2.0,-237.0,74.0,0
359,2.0,-237.0,74.0,0
360,0.0,-240.0,70.0,0
361,2.0,-243.0,71.0,0
362,2.0,-242.0,68.0,0
363,2.0,-244.0,69.0,0
364,0.0,-244.0,66.0,0
365,2.0,-243.0,66.0,0
366,0.0,-247.0,65.0,0
367,1.0,-247.0,64.0,0
368,0.0,-248.0,63.0,0
369,-3.0,-244.0,61.0,0
370,-4.0,-244.0,64.0,0
371,-6.0,-245.0,65.0,0
372,-7.0,-243.0,65.0,0
373,-9.0,-240.0,61.0,0
374,-7.0,-242.0,63.0,0
375,-6.0,-238.0,58.0,0
376,-8.0,-237.0,63.0,0
377,-6.0,-239.0,64.0,0
378,-5.0,-237.0,60.0,0
379,-4.0,-239.0,63.0,0
380,-7.0,-235.0,64.0,0
381,-5.0,-236.0,65.0,0
382,-7.0,-233.0,63.0,0
383,-4.0,-235.0,64.0,0
384,-3.0,-241.0,63.0,0
385,0.0,-239.0,62.0,0
386,-2.0,-240.0,62.0,0
387,-2.0,-238.0,66.0,0
388,-1.0,-239.0,65.0,0
389,0.0,-241.0,64.0,0
390,-3.0,-237.0,65.0,0
391,0.0,-239.0,63.0,0
392,-2.0,-236.0,66.0,0
393,0.0,-239.0,66.0,0
394,0.0,-238.0,68.0,0
395,0.0,-236.0,66.0,0
396,0.0,-236.0,68.0,0
397,-1.0,-237.0,68.0,0
398,0.0,-237.0,69.0,0
399,1.0,-235.0,67.0,0
400,-2.0,-238.0,70.0,0
401,-3.0,-236.0,67.0,0
402,-1.0,-240.0,70.0,0
403,-2.0,-239.0,69.0,0
404,-4.0,-239.0,75.0,0
405,0.0,-237.0,71.0,0
406,-3.0,-240.0,74.0,0
407,-2.0,-238.0,69.0,0
408,-4.0,-240.0,74.0,0
409,-4.0,-239.0,71.0,0
410,-6.0,-239.0,73.0,0
411,-4.0,-234.0,74.0,0
412,-2.0,-239.0,76.0,0
413,-3.0,-240.0,71.0,0
414,-3.0,-238.0,74.0,0
415,-5.0,-237.0,70.0,0
416,-9.0,-235.0,71.0,0
417,-6.0,-236.0,69.0,0
418,-9.0,-238.0,72.0,0
419,-6.0,-239.0,71.0,0
420,-6.0,-237.0,70.0,0
421,-5.0,-238.0,70.0,0
422,-7.0,-239.0,72.0,0
423,-6.0,-239.0,70.0,0
424,-5.0,-238.0,68.0,0
425,-6.0,-236.0,72.0,0
426,-5.0,-237.0,69.0,0
427,-7.0,-239.0,66.0,0
428,-7.0,-238.0,64.0,0
429,-6.0,-239.0,66.0,0
430,-8.0,-238.0,67.0,0
431,-8.0,-237.0,66.0,0
432,-9.0,-240.0,67.0,0
433,-8.0,-239.0,65.0,0
434,-6.0,-240.0,69.0,0
435,-4.0,-240.0,66.0,0
436,-4.0,-240.0,66.0,0
437,-2.0,-237.0,64.0,0
438,-7.0,-237.0,67.0,0
439,-3.0,-242.0,68.0,0
440,-3.0,-242.0,66.0,0
441,-7.0,-239.0,72.0,0
442,-6.0,-238.0,71.0,0
443,-1.0,-240.0,69.0,0
444,-4.0,-238.0,71.0,0
445,-1.0,-236.0,71.0,0
446,-3.0,-234.0,73.0,0
447,-3.0,-236.0,68.0,0
448,-6.0,-231.0,69.0,0
449,-1.0,-234.0,73.0,0
450,-3.0,-237.0,69.0,0
451,-2.0,-236.0,74.0,0
452,0.0,-235.0,73.0,0
453,-3.0,-238.0,67.0,0
454,-3.0,-236.0,70.0,0
455,-1.0,-239.0,71.0,0
456,-2.0,-236.0,72.0,0
457,-2.0,-237.0,69.0,0
458,-5.0,-241.0,72.0,0
459,-1.0,-240.0,72.0,0
460,-1.0,-242.0,70.0,0
461,-5.0,-241.0,73.0,0
462,-1.0,-240.0,68.0,0
463,-2.0,-238.0,73.0,0
464,-3.0,-237.0,71.0,0
465,-3.0,-240.0,67.0,0
466,-4.0,-238.0,71.0,0
467,-2.0,-241.0,69.0,0
468,-4.0,-236.0,71.0,0
469,-3.0,-237.0,69.0,0
470,-7.0,-236.0,68.0,0
471,-1.0,-238.0,69.0,0
472,-1.0,-237.0,65.0,0
473,0.0,-233.0,68.0,0
474,-4.0,-235.0,69.0,0
475,-7.0,-234.0,69.0,0
476,-6.0,-236.0,69.0,0
477,-5.0,-235.0,68.0,0
478,-1.0,-237.0,69.0,0
479,-1.0,-236.0,75.0,0
480,-4.0,-232.0,69.0,0
481,0.0,-232.0,69.0,0
482,0.0,-235.0,69.0,0
483,-2.0,-235.0,69.0,0
484,0.0,-237.0,71.0,0
485,-1.0,-235.0,72.0,0
486,0.0,-235.0,72.0,0
487,1.0,-234.0,72.0,0
488,0.0,-237.0,72.0,0
489,0.0,-239.0,66.0,0
490,3.0,-242.0,70.0,0
491,2.0,-241.0,66.0,0
492,0.0,-241.0,67.0,0
493,0.0,-243.0,67.0,0
494,1.0,-243.0,65.0,0
495,0.0,-244.0,64.0,0
496,-1.0,-245.0,65.0,0
497,-2.0,-245.0,62.0,0
498,-2.0,-245.0,63.0,0
499,-6.0,-247.0,64.0,0
500,-5.0,-244.0,63.0,0
501,-5.0,-243.0,63.0,0
502,-5.0,-244.0,62.0,0
503,-8.0,-243.0,58.0,0
504,-7.0,-243.0,64.0,0
505,-9.0,-241.0,64.0,0
506,-5.0,-240.0,62.0,0
507,-5.0,-241.0,63.0,0
508,-8.0,-237.0,62.0,0
509,-6.0,-239.0,64.0,0
510,-6.0,-237.0,64.0,0
511,-5.0,-239.0,64.0,0
512,-6.0,-238.0,63.0,0
513,-3.0,-239.0,67.0,0
514,-7.0,-237.0,65.0,0
515,-3.0,-237.0,65.0,0
516,-5.0,-240.0,65.0,0
517,-3.0,-242.0,64.0,0
518,-2.0,-241.0,62.0,0
519,-1.0,-241.0,66.0,0
520,-1.0,-237.0,67.0,0
521,-2.0,-242.0,66.0,0
522,-1.0,-239.0,67.0,0
523,-6.0,-237.0,68.0,0
524,-2.0,-237.0,65.0,0
525,-4.0,-238.0,67.0,0
526,-3.0,-240.0,67.0,0
527,-2.0,-234.0,65.0,0
528,-6.0,-238.0,71.0,0
529,-1.0,-239.0,69.0,0
530,-1.0,-238.0,68.0,0
531,-4.0,-234.0,65.0,0
532,-6.0,-238.0,66.0,0
533,-3.0,-236.0,71.0,0
534,-6.0,-239.0,68.0,0
535,-6.0,-238.0,68.0,0
536,-2.0,-238.0,70.0,0
537,-7.0,-238.0,72.0,0
538,-5.0,-236.0,71.0,0
539,-7.0,-237.0,73.0,0
540,-7.0,-236.0,73.0,0
541,0.0,-236.0,70.0,0
542,-4.0,-237.0,72.0,0
543,-1.0,-237.0,70.0,0
544,-1.0,-236.0,71.0,0
545,-5.0,-237.0,72.0,0
546,-3.0,-236.0,74.0,0
547,-2.0,-235.0,72.0,0
548,-4.0,-236.0,72.0,0
549,-5.0,-236.0,70.0,0
550,-3.0,-235.0,68.0,0
551,-7.0,-233.0,68.0,0
552,0.0,-239.0,69.0,0
553,0.0,-240.0,69.0,0
554,-4.0,-239.0,68.0,0
555,0.0,-237.0,67.0,0
556,0.0,-239.0,70.0,0
557,-1.0,-237.0,68.0,0
558,-1.0,-240.0,68.0,0
559,0.0,-238.0,69.0,0
560,0.0,-239.0,71.0,0
561,-1.0,-235.0,68.0,0
562,-2.0,-238.0,66.0,0
563,-1.0,-237.0,65.0,0
564,-2.0,-235.0,70.0,0
565,-3.0,-239.0,66.0,0
566,-1.0,-236.0,69.0,0
567,-1.0,-239.0,68.0,0
568,0.0,-240.0,70.0,0
569,0.0,-237.0,67.0,0
570,-1.0,-236.0,67.0,0
571,-1.0,-239.0,70.0,0
572,-2.0,-236.0,66.0,0
573,-1.0,-237.0,68.0,0
574,-2.0,-238.0,67.0,0
575,-2.0,-239.0,66.0,0
576,0.0,-240.0,69.0,0
577,-4.0,-236.0,68.0,0
578,-2.0,-238.0,66.0,0
579,-6.0,-240.0,64.0,0
580,-5.0,-238.0,66.0,0
581,-4.0,-238.0,64.0,0
582,0.0,-238.0,67.0,0
583,-3.0,-242.0,66.0,0
584,-7.0,-239.0,66.0,0
585,-5.0,-239.0,66.0,0
586,0.0,-240.0,71.0,0
587,-2.0,-241.0,66.0,0
588,-1.0,-237.0,65.0,0
589,-1.0,-241.0,64.0,0
590,-6.0,-237.0,70.0,0
591,-1.0,-242.0,67.0,0
592,0.0,-240.0,66.0,0
593,0.0,-241.0,67.0,0
594,-2.0,-240.0,69.0,0
595,-1.0,-240.0,69.0,0
596,-3.0,-241.0,70.0,0
597,-2.0,-239.0,67.0,0
598,-3.0,-237.0,67.0,0
599,-1.0,-239.0,70.0,0
600,-3.0,-236.0,67.0,0
601,-2.0,-238.0,66.0,0
602,0.0,-237.0,67.0,0
603,0.0,-239.0,71.0,0
604,-4.0,-237.0,68.0,0
605,-4.0,-237.0,66.0,0
606,-4.0,-237.0,68.0,0
607,-6.0,-235.0,68.0,0
608,-3.0,-237.0,66.0,0
609,-7.0,-234.0,68.0,0
610,0.0,-237.0,66.0,0
611,-8.0,-232.0,67.0,0
612,-3.0,-237.0,72.0,0
613,-4.0,-235.0,69.0,0
614,-4.0,-237.0,73.0,0
615,-3.0,-237.0,67.0,0
616,-4.0,-234.0,68.0,0
617,0.0,-235.0,68.0,0
618,0.0,-237.0,69.0,0
619,0.0,-239.0,68.0,0
620,0.0,-241.0,68.0,0
621,0.0,-241.0,67.0,0
622,0.0,-241.0,66.0,0
623,0.0,-241.0,67.0,0
624,0.0,-242.0,63.0,0
625,0.0,-243.0,65.0,0
626,-1.0,-244.0,63.0,0
627,0.0,-244.0,63.0,0
628,-2.0,-244.0,63.0,0
629,0.0,-246.0,63.0,0
630,-1.0,-244.0,60.0,0
631,-1.0,-245.0,61.0,0
632,-4.0,-242.0,60.0,0
633,-3.0,-242.0,58.0,0
634,-7.0,-245.0,62.0,0
635,-7.0,-242.0,61.0,0
636,-7.0,-241.0,63.0,0
637,-8.0,-239.0,60.0,0
638,-7.0,-242.0,60.0,0
639,-7.0,-241.0,60.0,0
640,-8.0,-242.0,59.0,0
641,-8.0,-240.0,57.0,0
642,-7.0,-243.0,60.0,0
643,-5.0,-240.0,61.0,0
644,-7.0,-238.0,62.0,0
645,-7.0,-240.0,61.0,0
646,-4.0,-241.0,60.0,0
647,-5.0,-239.0,64.0,0
648,-5.0,-238.0,63.0,0
649,-3.0,-240.0,63.0,0
650,-3.0,-239.0,65.0,0
651,-4.0,-237.0,63.0,0
652,-2.0,-238.0,64.0,0
653,-2.0,-239.0,67.0,0
654,-3.0,-239.0,66.0,0
655,-3.0,-238.0,68.0,0
656,0.0,-241.0,64.0,0
657,0.0,-240.0,65.0,0
658,-3.0,-238.0,67.0,0
659,-3.0,-240.0,67.0,0
660,-1.0,-238.0,66.0,0
661,-1.0,-239.0,68.0,0
662,-3.0,-240.0,66.0,0
663,-3.0,-239.0,64.0,0
664,-4.0,-241.0,69.0,0
665,-3.0,-244.0,65.0,0
666,0.0,-242.0,71.0,0
667,-4.0,-241.0,67.0,0
668,-5.0,-242.0,71.0,0
669,-4.0,-238.0,66.0,0
670,-4.0,-244.0,68.0,0
671,-3.0,-239.0,71.0,0
672,-7.0,-239.0,68.0,0
673,-3.0,-240.0,69.0,0
674,-4.0,-242.0,67.0,0
675,-6.0,-239.0,66.0,0
676,-6.0,-236.0,68.0,0
677,-7.0,-240.0,65.0,0
678,-3.0,-238.0,65.0,0
679,-1.0,-239.0,68.0,0
680,-8.0,-238.0,67.0,0
681,-3.0,-236.0,69.0,0
682,-3.0,-237.0,68.0,0
683,-5.0,-237.0,69.0,0
684,-3.0,-238.0,66.0,0
685,-5.0,-236.0,67.0,0
686,-3.0,-236.0,70.0,0
687,-3.0,-239.0,67.0,0
688,-5.0,-233.0,66.0,0
689,-5.0,-237.0,67.0,0
690,-4.0,-237.0,64.0,0
691,-3.0,-241.0,67.0,0
692,0.0,-241.0,66.0,0
693,0.0,-240.0,66.0,0
694,-4.0,-239.0,66.0,0
695,-5.0,-238.0,68.0,0
696,-2.0,-240.0,69.0,0
697,-2.0,-238.0,64.0,0
698,-2.0,-241.0,67.0,0
699,-5.0,-238.0,67.0,0
700,-2.0,-241.0,67.0,0
701,-1.0,-235.0,66.0,0
702,-2.0,-240.0,67.0,0
703,-2.0,-238.0,67.0,0
704,-2.0,-239.0,66.0,0
705,-4.0,-240.0,70.0,0
706,-4.0,-240.0,68.0,0
707,-4.0,-238.0,67.0,0
708,-3.0,-239.0,68.0,0
709,-2.0,-240.0,69.0,0
710,-3.0,-238.0,74.0,0
711,-1.0,-237.0,67.0,0
712,-4.0,-238.0,67.0,0
713,0.0,-235.0,68.0,0
714,-2.0,-237.0,70.0,0
715,-4.0,-232.0,69.0,0
716,-1.0,-235.0,70.0,0
717,0.0,-236.0,68.0,0
718,0.0,-239.0,71.0,0
719,1.0,-236.0,69.0,0
720,-1.0,-238.0,70.0,0
721,2.0,-239.0,70.0,0
722,-2.0,-236.0,67.0,0
723,0.0,-237.0,65.0,0
724,1.0,-235.0,68.0,0
725,1.0,-239.0,66.0,0
726,0.0,-237.0,69.0,0
727,0.0,-235.0,67.0,0
728,1.0,-235.0,70.0,0
729,0.0,-239.0,75.0,0
730,1.0,-238.0,73.0,0
731,1.0,-236.0,71.0,0
732,-1.0,-237.0,68.0,0
733,0.0,-236.0,67.0,0
734,-1.0,-233.0,71.0,0
735,0.0,-236.0,73.0,0
736,0.0,-237.0,71.0,0
737,0.0,-236.0,74.0,0
738,0.0,-238.0,72.0,0
739,0.0,-236.0,69.0,0
740,0.0,-239.0,68.0,0
741,-4.0,-239.0,68.0,0
742,-1.0,-239.0,66.0,0
743,-1.0,-242.0,69.0,0
744,0.0,-240.0,68.0,0
745,-2.0,-243.0,67.0,0
746,0.0,-242.0,66.0,0
747,0.0,-243.0,62.0,0
748,-4.0,-241.0,65.0,0
749,-6.0,-239.0,64.0,0
750,-2.0,-243.0,60.0,0
751,-5.0,-241.0,61.0,0
752,0.0,-241.0,60.0,0
753,-4.0,-239.0,63.0,0
754,-8.0,-240.0,62.0,0
755,-3.0,-239.0,62.0,0
756,-6.0,-239.0,63.0,0
757,-5.0,-240.0,63.0,0
758,-6.0,-237.0,62.0,0
759,-7.0,-240.0,64.0,0
760,-2.0,-236.0,62.0,0
761,-3.0,-239.0,60.0,0
762,-7.0,-235.0,59.0,0
763,-6.0,-234.0,62.0,0
764,-1.0,-236.0,61.0,0
765,-4.0,-231.0,65.0,0
766,-3.0,-231.0,62.0,0
767,-1.0,-232.0,62.0,0
768,-4.0,-230.0,61.0,0
769,-4.0,-231.0,62.0,0
770,-1.0,-229.0,57.0,0
771,-1.0,-233.0,59.0,0
772,-2.0,-229.0,56.0,0
773,-3.0,-228.0,59.0,0
774,-3.0,-228.0,57.0,0
775,-1.0,-233.0,54.0,0
776,-3.0,-235.0,57.0,0
777,-3.0,-234.0,55.0,0
778,0.0,-239.0,55.0,0
779,0.0,-241.0,49.0,0
780,4.0,-244.0,52.0,0
781,2.0,-246.0,50.0,0
782,2.0,-248.0,49.0,0
783,5.0,-249.0,50.0,0
784,6.0,-250.0,48.0,0
785,4.0,-251.0,44.0,0
786,8.0,-249.0,40.0,0
787,1.0,-247.0,37.0,0
788,9.0,-249.0,41.0,0
789,4.0,-242.0,44.0,0
790,3.0,-247.0,43.0,0
791,2.0,-242.0,43.0,0
792,-2.0,-239.0,48.0,0
793,1.0,-236.0,49.0,0
794,-8.0,-231.0,45.0,0
795,-1.0,-228.0,52.0,0
796,0.0,-229.0,51.0,0
797,-3.0,-226.0,52.0,0
798,-4.0,-231.0,49.0,0
799,-8.0,-231.0,48.0,0
800,-22.0,-225.0,39.0,0
801,-1.0,-224.0,47.0,0
802,2.0,-225.0,53.0,0
803,-10.0,-230.0,53.0,0
804,0.0,-242.0,60.0,0
805,-2.0,-242.0,56.0,0
806,-6.0,-237.0,59.0,0
807,1.0,-244.0,61.0,0
808,-3.0,-239.0,57.0,0
809,-4.0,-238.0,53.0,0
810,-3.0,-236.0,55.0,0
811,-20.0,-233.0,32.0,0
812,1.0,-248.0,71.0,0
813,21.0,-243.0,68.0,0
814,6.0,-249.0,75.0,0
815,-63.0,-238.0,30.0,0
816,-27.0,-230.0,28.0,0
817,-14.0,-227.0,46.0,0
818,-8.0,-232.0,54.0,0
819,-18.0,-238.0,53.0,0
820,-10.0,-247.0,47.0,0
821,-12.0,-248.0,56.0,0
822,-6.0,-249.0,61.0,0
823,-2.0,-249.0,59.0,0
824,-3.0,-246.0,54.0,0
825,-3.0,-244.0,56.0,0
826,-2.0,-243.0,53.0,0
827,-1.0,-241.0,52.0,0
828,0.0,-240.0,55.0,0
829,-3.0,-246.0,56.0,0
830,-1.0,-242.0,50.0,0
831,-2.0,-244.0,50.0,0
832,0.0,-245.0,52.0,0
833,0.0,-249.0,47.0,0
834,0.0,-250.0,44.0,0
835,-2.0,-249.0,43.0,0
836,-5.0,-245.0,41.0,0
837,-1.0,-244.0,40.0,0
838,-4.0,-241.0,39.0,0
839,0.0,-241.0,43.0,0
840,1.0,-238.0,38.0,0
841,0.0,-236.0,35.0,0
842,0.0,-238.0,40.0,0
843,2.0,-237.0,36.0,0
844,1.0,-240.0,39.0,0
845,3.0,-242.0,32.0,0
846,4.0,-242.0,33.0,0
847,6.0,-244.0,30.0,0
848,4.0,-241.0,29.0,0
849,8.0,-244.0,27.0,0
850,8.0,-243.0,23.0,0
851,9.0,-242.0,20.0,0
852,7.0,-242.0,17.0,0
853,11.0,-241.0,18.0,0
854,9.0,-244.0,10.0,0
855,13.0,-245.0,12.0,0
856,10.0,-245.0,10.0,0
857,13.0,-245.0,8.0,0
858,15.0,-245.0,7.0,0
859,12.0,-246.0,6.0,0
860,10.0,-243.0,3.0,0
861,10.0,-245.0,4.0,0
862,11.0,-245.0,5.0,0
863,12.0,-242.0,3.0,0
864,12.0,-244.0,2.0,0
865,9.0,-242.0,1.0,0
866,12.0,-243.0,4.0,0
867,9.0,-240.0,-2.0,0
868,12.0,-242.0,-2.0,0
869,17.0,-240.0,-1.0,0
870,13.0,-239.0,-6.0,0
871,15.0,-241.0,-7.0,0
872,21.0,-238.0,-9.0,0
873,22.0,-245.0,-9.0,0
874,22.0,-243.0,-13.0,0
875,23.0,-241.0,-19.0,0
876,19.0,-238.0,-14.0,0
877,16.0,-240.0,-16.0,0
878,17.0,-241.0,-15.0,0
879,12.0,-241.0,-20.0,0
880,7.0,-247.0,-24.0,0
881,7.0,-248.0,-25.0,0
882,8.0,-245.0,-31.0,0
883,5.0,-249.0,-29.0,0
884,4.0,-246.0,-32.0,0
885,7.0,-248.0,-34.0,0
886,7.0,-251.0,-36.0,0
887,8.0,-247.0,-37.0,0
888,11.0,-246.0,-39.0,0
889,16.0,-251.0,-43.0,0
890,13.0,-245.0,-47.0,0
891,12.0,-249.0,-49.0,0
892,10.0,-249.0,-49.0,0
893,6.0,-246.0,-55.0,0
894,8.0,-246.0,-54.0,0
895,8.0,-246.0,-58.0,0
896,13.0,-248.0,-57.0,0
897,17.0,-242.0,-53.0,0
898,16.0,-245.0,-55.0,0
899,16.0,-245.0,-50.0,0
900,17.0,-241.0,-51.0,0
901,21.0,-244.0,-47.0,0
902,19.0,-243.0,-49.0,0
903,16.0,-241.0,-51.0,0
904,19.0,-242.0,-52.0,0
905,22.0,-244.0,-50.0,0
906,26.0,-247.0,-51.0,0
907,28.0,-247.0,-54.0,0
908,28.0,-243.0,-61.0,0
909,34.0,-243.0,-65.0,0
910,32.0,-242.0,-65.0,0
911,34.0,-242.0,-66.0,0
912,36.0,-242.0,-66.0,0
913,31.0,-240.0,-73.0,0
914,30.0,-239.0,-72.0,0
915,22.0,-235.0,-70.0,0
916,14.0,-236.0,-68.0,0
917,12.0,-238.0,-62.0,0
918,7.0,-236.0,-60.0,0
919,5.0,-236.0,-59.0,0
920,1.0,-241.0,-57.0,0
921,0.0,-243.0,-57.0,0
922,0.0,-245.0,-56.0,0
923,1.0,-247.0,-58.0,0
924,3.0,-256.0,-59.0,0
925,1.0,-259.0,-64.0,0
926,3.0,-262.0,-72.0,0
927,3.0,-264.0,-77.0,0
928,2.0,-262.0,-83.0,0
929,0.0,-262.0,-88.0,0
930,2.0,-261.0,-106.0,0
931,6.0,-259.0,-113.0,0
932,12.0,-257.0,-115.0,0
933,8.0,-258.0,-129.0,0
934,30.0,-256.0,-129.0,0
935,26.0,-251.0,-133.0,0
936,30.0,-251.0,-142.0,0
937,34.0,-254.0,-140.0,0
938,35.0,-248.0,-147.0,0
939,43.0,-248.0,-152.0,0
940,41.0,-249.0,-161.0,0
941,45.0,-248.0,-169.0,0
942,52.0,-249.0,-178.0,0
943,55.0,-254.0,-188.0,0
944,54.0,-254.0,-198.0,0
945,54.0,-249.0,-204.0,0
946,56.0,-242.0,-215.0,0
947,53.0,-230.0,-219.0,0
948,59.0,-219.0,-224.0,0
949,58.0,-219.0,-223.0,0
950,59.0,-211.0,-225.0,0
951,63.0,-208.0,-225.0,0
952,62.0,-203.0,-219.0,0
953,63.0,-201.0,-222.0,0
954,69.0,-201.0,-214.0,0
955,70.0,-198.0,-215.0,0
956,74.0,-194.0,-212.0,0
957,74.0,-191.0,-213.0,0
958,76.0,-191.0,-207.0,0
959,73.0,-189.0,-210.0,0
960,77.0,-187.0,-215.0,0
961,77.0,-184.0,-215.0,0
962,77.0,-182.0,-216.0,0
963,72.0,-175.0,-214.0,0
964,76.0,-174.0,-215.0,0
965,72.0,-170.0,-214.0,0
966,74.0,-166.0,-215.0,0
967,73.0,-167.0,-212.0,0
968,72.0,-168.0,-203.0,0
969,71.0,-172.0,-197.0,0
970,73.0,-169.0,-193.0,0
971,77.0,-170.0,-188.0,0
972,75.0,-173.0,-183.0,0
973,71.0,-173.0,-176.0,0
974,71.0,-168.0,-174.0,0
975,69.0,-164.0,-175.0,0
976,67.0,-163.0,-172.0,0
977,64.0,-160.0,-170.0,0
978,62.0,-159.0,-169.0,0
979,56.0,-154.0,-167.0,0
980,62.0,-153.0,-172.0,0
981,57.0,-152.0,-170.0,0
982,49.0,-153.0,-169.0,0
983,46.0,-151.0,-169.0,0
984,41.0,-154.0,-173.0,0
985,39.0,-149.0,-168.0,0
986,36.0,-153.0,-169.0,0
987,32.0,-155.0,-166.0,0
988,34.0,-156.0,-168.0,0
989,32.0,-159.0,-164.0,0
990,30.0,-158.0,-167.0,0
991,29.0,-152.0,-167.0,0
992,24.0,-149.0,-171.0,0
993,29.0,-148.0,-164.0,0
994,15.0,-149.0,-171.0,0
995,16.0,-146.0,-168.0,0
996,11.0,-146.0,-162.0,0
997,12.0,-144.0,-166.0,0
998,8.0,-143.0,-170.0,0
999,2.0,-138.0,-165.0,0
1000,4.0,-142.0,-167.0,0
1001,0.0,-135.0,-175.0,0
1002,1.0,-135.0,-173.0,0
1003,1.0,-138.0,-173.0,0
1004,-1.0,-136.0,-175.0,0
1005,0.0,-137.0,-172.0,0
1006,2.0,-134.0,-174.0,0
1007,2.0,-135.0,-174.0,0
1008,7.0,-138.0,-173.0,0
1009,5.0,-137.0,-172.0,0
1010,6.0,-144.0,-170.0,0
1011,7.0,-148.0,-168.0,0
1012,12.0,-153.0,-170.0,0
1013,10.0,-155.0,-167.0,0
1014,10.0,-159.0,-167.0,0
1015,11.0,-157.0,-167.0,0
1016,15.0,-158.0,-169.0,0
1017,13.0,-161.0,-170.0,0
1018,16.0,-162.0,-170.0,0
1019,18.0,-160.0,-168.0,0
1020,14.0,-156.0,-168.0,0
1021,17.0,-154.0,-167.0,0
1022,17.0,-147.0,-169.0,0
1023,14.0,-147.0,-173.0,0
1024,6.0,-148.0,-173.0,0
1025,0.0,-145.0,-175.0,0
1026,-1.0,-143.0,-175.0,0
1027,-9.0,-145.0,-176.0,0
1028,-9.0,-147.0,-176.0,0
1029,-14.0,-148.0,-174.0,0
1030,-16.0,-153.0,-172.0,0
1031,-23.0,-153.0,-179.0,0
1032,-27.0,-151.0,-176.0,0
1033,-27.0,-155.0,-174.0,0
1034,-28.0,-148.0,-177.0,0
1035,-28.0,-147.0,-175.0,0
1036,-28.0,-148.0,-170.0,0
1037,-25.0,-152.0,-166.0,0
1038,-18.0,-151.0,-168.0,0
1039,-19.0,-152.0,-165.0,0
1040,-16.0,-156.0,-165.0,0
1041,-13.0,-152.0,-167.0,0
1042,-13.0,-147.0,-168.0,0
1043,-6.0,-144.0,-170.0,0
1044,0.0,-139.0,-167.0,0
1045,4.0,-132.0,-178.0,0
1046,5.0,-125.0,-173.0,0
1047,9.0,-125.0,-173.0,0
1048,3.0,-122.0,-170.0,0
1049,2.0,-124.0,-174.0,0
1050,3.0,-122.0,-170.0,0
1051,-2.0,-128.0,-166.0,0
1052,-5.0,-129.0,-166.0,0
1053,1.0,-136.0,-159.0,0
1054,6.0,-140.0,-157.0,0
1055,6.0,-144.0,-155.0,0
1056,13.0,-144.0,-151.0,0
1057,15.0,-144.0,-148.0,0
1058,16.0,-145.0,-154.0,0
1059,24.0,-140.0,-151.0,0
1060,27.0,-145.0,-157.0,0
1061,28.0,-145.0,-156.0,0
1062,32.0,-150.0,-151.0,0
1063,39.0,-152.0,-142.0,0
1064,43.0,-154.0,-139.0,0
1065,42.0,-156.0,-138.0,0
1066,39.0,-161.0,-133.0,0
1067,35.0,-165.0,-133.0,0
1068,30.0,-163.0,-129.0,0
1069,30.0,-163.0,-135.0,0
1070,32.0,-162.0,-138.0,0
1071,40.0,-166.0,-135.0,0
1072,50.0,-164.0,-140.0,0
1073,46.0,-170.0,-144.0,0
1074,55.0,-177.0,-139.0,0
1075,61.0,-182.0,-138.0,0
1076,64.0,-188.0,-136.0,0
1077,64.0,-194.0,-140.0,0
1078,72.0,-194.0,-133.0,0
1079,72.0,-194.0,-146.0,0
1080,72.0,-189.0,-149.0,0
1081,78.0,-184.0,-156.0,0
1082,77.0,-182.0,-163.0,0
1083,72.0,-175.0,-159.0,0
1084,66.0,-174.0,-160.0,0
1085,67.0,-175.0,-157.0,0
1086,62.0,-172.0,-154.0,0
1087,64.0,-177.0,-149.0,0
1088,53.0,-179.0,-144.0,0
1089,51.0,-180.0,-139.0,0
1090,49.0,-179.0,-132.0,0
1091,48.0,-177.0,-130.0,0
1092,48.0,-177.0,-123.0,0
1093,45.0,-178.0,-113.0,0
1094,40.0,-177.0,-107.0,0
1095,34.0,-173.0,-111.0,0
1096,32.0,-171.0,-109.0,0
1097,26.0,-167.0,-112.0,0
1098,19.0,-173.0,-112.0,0
1099,8.0,-173.0,-114.0,0
1100,16.0,-176.0,-105.0,0
1101,8.0,-181.0,-109.0,0
1102,8.0,-189.0,-107.0,0
1103,8.0,-198.0,-102.0,0
1104,4.0,-205.0,-97.0,0
1105,3.0,-205.0,-94.0,0
1106,-2.0,-207.0,-96.0,0
1107,-1.0,-211.0,-95.0,0
1108,-5.0,-211.0,-89.0,0
1109,-2.0,-214.0,-87.0,0
1110,1.0,-219.0,-76.0,0
1111,8.0,-213.0,-77.0,0
1112,18.0,-208.0,-71.0,0
1113,10.0,-191.0,-62.0,0
1114,44.0,-199.0,-63.0,0
1115,57.0,-190.0,-63.0,0
1116,54.0,-179.0,-64.0,0
1117,55.0,-169.0,-71.0,0
1118,63.0,-163.0,-74.0,0
1119,63.0,-155.0,-73.0,0
1120,60.0,-154.0,-81.0,0
1121,67.0,-152.0,-88.0,0
1122,49.0,-154.0,-91.0,0
1123,54.0,-164.0,-83.0,0
1124,59.0,-185.0,-66.0,0
1125,63.0,-206.0,-74.0,0
1126,70.0,-224.0,-56.0,0
1127,69.0,-248.0,-52.0,0
1128,57.0,-264.0,-50.0,0
1129,41.0,-271.0,-42.0,0
1130,27.0,-256.0,-34.0,0
1131,27.0,-249.0,-27.0,0
1132,14.0,-235.0,-38.0,0
1133,21.0,-212.0,-29.0,0
1134,15.0,-200.0,-25.0,0
1135,10.0,-183.0,-33.0,0
1136,12.0,-165.0,-56.0,0
1137,0.0,-149.0,-57.0,0
1138,6.0,-141.0,-73.0,0
1139,3.0,-137.0,-79.0,0
1140,14.0,-143.0,-79.0,0
1141,11.0,-148.0,-89.0,0
1142,3.0,-165.0,-100.0,0
1143,-4.0,-191.0,-105.0,0
1144,-16.0,-196.0,-90.0,0
1145,-36.0,-213.0,-81.0,0
1146,-67.0,-236.0,-77.0,0
1147,-95.0,-243.0,-75.0,0
1148,-108.0,-241.0,-72.0,0
1149,-116.0,-227.0,-71.0,0
1150,-121.0,-224.0,-61.0,0
1151,-129.0,-198.0,-53.0,0
1152,-123.0,-170.0,-28.0,0
1153,-126.0,-158.0,-37.0,0
1154,-120.0,-134.0,-26.0,0
1155,-108.0,-130.0,-25.0,0
1156,-95.0,-115.0,-37.0,0
1157,-86.0,-123.0,-84.0,0
1158,-92.0,-117.0,-99.0,0
1159,-90.0,-110.0,-103.0,0
1160,-84.0,-106.0,-121.0,0
1161,-97.0,-97.0,-133.0,0
1162,-114.0,-102.0,-136.0,0
1163,-129.0,-107.0,-154.0,0
1164,-153.0,-105.0,-165.0,2
1165,-175.0,-107.0,-163.0,2
1166,-184.0,-112.0,-159.0,2
1167,-191.0,-114.0,-155.0,2
1168,-177.0,-129.0,-137.0,2
1169,-175.0,-135.0,-150.0,2
1170,-175.0,-139.0,-170.0,2
1171,-163.0,-144.0,-180.0,2
1172,-152.0,-148.0,-185.0,2
1173,-143.0,-143.0,-190.0,2
1174,-121.0,-127.0,-194.0,2
1175,-118.0,-112.0,-209.0,2
1176,-93.0,-99.0,-222.0,2
1177,-76.0,-86.0,-233.0,2
1178,-47.0,-76.0,-242.0,2
1179,-24.0,-67.0,-258.0,2
1180,-1.0,-56.0,-262.0,2
1181,19.0,-52.0,-261.0,2
1182,41.0,-60.0,-265.0,2
1183,52.0,-67.0,-271.0,2
1184,60.0,-79.0,-277.0,2
1185,85.0,-84.0,-266.0,2
1186,65.0,-85.0,-279.0,2
1187,63.0,-76.0,-280.0,2
1188,60.0,-77.0,-285.0,2
1189,65.0,-66.0,-268.0,2
1190,63.0,-67.0,-257.0,2
1191,47.0,-74.0,-262.0,2
1192,41.0,-75.0,-254.0,2
1193,44.0,-77.0,-259.0,2
1194,46.0,-81.0,-256.0,2
1195,54.0,-77.0,-259.0,2
1196,56.0,-83.0,-259.0,2
1197,57.0,-93.0,-253.0,2
1198,60.0,-103.0,-252.0,2
1199,68.0,-114.0,-240.0,2
1200,74.0,-124.0,-238.0,2
1201,79.0,-133.0,-239.0,2
1202,90.0,-127.0,-233.0,2
1203,100.0,-127.0,-240.0,2
1204,99.0,-126.0,-243.0,2
1205,98.0,-117.0,-239.0,2
1206,91.0,-107.0,-248.0,2
1207,82.0,-95.0,-240.0,2
1208,66.0,-91.0,-235.0,2
1209,42.0,-81.0,-215.0,2
1210,20.0,-83.0,-207.0,2
1211,-1.0,-89.0,-196.0,2
1212,-27.0,-86.0,-188.0,2
1213,-35.0,-76.0,-171.0,2
1214,-30.0,-66.0,-176.0,2
1215,-16.0,-63.0,-184.0,2
1216,-8.0,-74.0,-212.0,2
1217,10.0,-146.0,-225.0,2
1218,1.0,-194.0,-223.0,2
1219,0.0,-203.0,-224.0,2
1220,-27.0,-283.0,-301.0,2
1221,-7.0,-301.0,-248.0,2
1222,16.0,-237.0,-141.0,2
1223,-10.0,-114.0,-126.0,2
1224,8.0,-61.0,-132.0,2
1225,31.0,10.0,-145.0,2
1226,72.0,154.0,-32.0,2
1227,-79.0,77.0,-231.0,2
1228,-84.0,29.0,-214.0,2
1229,8.0,-1.0,-894.0,2
1230,-67.0,-85.0,-346.0,2
1231,-118.0,-287.0,-298.0,2
1232,-199.0,-234.0,-287.0,2
1233,-239.0,-67.0,-593.0,2
1234,-1183.0,534.0,-1258.0,2
1235,-85.0,262.0,413.0,2
1236,-278.0,407.0,-139.0,2
1237,-105.0,421.0,-465.0,2
1238,105.0,407.0,-502.0,2
1239,47.0,234.0,-455.0,2
1240,2.0,222.0,-558.0,2
1241,11.0,99.0,-552.0,2
1242,19.0,-119.0,-602.0,2
1243,33.0,-126.0,-659.0,2
1244,44.0,-115.0,-705.0,2
1245,-63.0,-333.0,-769.0,2
1246,-187.0,-446.0,-672.0,2
1247,-145.0,-316.0,-761.0,2
1248,-236.0,-331.0,-580.0,2
1249,-125.0,-242.0,-627.0,2
1250,-4.0,-290.0,-558.0,2
1251,-82.0,-247.0,-567.0,2
1252,-4.0,-120.0,-502.0,2
1253,23.0,-263.0,-416.0,2
1254,-110.0,-174.0,-465.0,2
1255,-29.0,-137.0,-425.0,2
1256,-99.0,-8.0,-353.0,2
1257,-103.0,-3.0,-323.0,2
1258,-70.0,13.0,-263.0,2
1259,-60.0,106.0,-278.0,2
1260,-85.0,83.0,-226.0,2
1261,-61.0,86.0,-176.0,2
1262,-64.0,115.0,-162.0,2
1263,-57.0,150.0,-163.0,2
1264,-76.0,193.0,-151.0,2
1265,-79.0,227.0,-149.0,2
1266,-85.0,233.0,-150.0,2
1267,-69.0,232.0,-149.0,2
1268,-77.0,229.0,-146.0,2
1269,-72.0,235.0,-145.0,2
1270,-67.0,224.0,-154.0,2
1271,-76.0,213.0,-157.0,2
1272,-72.0,215.0,-152.0,2
1273,-81.0,182.0,-141.0,2
1274,-86.0,150.0,-126.0,2
1275,-87.0,141.0,-125.0,2
1276,-91.0,126.0,-122.0,2
1277,-87.0,107.0,-120.0,2
1278,-84.0,104.0,-127.0,2
1279,-82.0,104.0,-130.0,2
1280,-77.0,100.0,-134.0,1
1281,-85.0,106.0,-132.0,1
1282,-85.0,116.0,-146.0,1
1283,-79.0,118.0,-140.0,1
1284,-79.0,140.0,-147.0,1
1285,-84.0,135.0,-141.0,1
1286,-84.0,144.0,-144.0,1
1287,-77.0,149.0,-155.0,1
1288,-83.0,153.0,-134.0,1
1289,-82.0,172.0,-137.0,1
1290,-73.0,173.0,-138.0,1
1291,-73.0,183.0,-135.0,1
1292,-62.0,200.0,-147.0,1
1293,-59.0,188.0,-145.0,1
1294,-49.0,175.0,-148.0,1
1295,-46.0,189.0,-154.0,1
1296,-43.0,178.0,-151.0,1
1297,-85.0,203.0,-176.0,1
1298,-75.0,181.0,-189.0,1
1299,-71.0,182.0,-203.0,1
1300,-73.0,178.0,-212.0,1
1301,-76.0,167.0,-216.0,1
1302,-88.0,173.0,-224.0,1
1303,-77.0,168.0,-229.0,1
1304,-62.0,155.0,-223.0,1
1305,-76.0,136.0,-244.0,1
1306,-87.0,103.0,-237.0,1
1307,-87.0,84.0,-247.0,1
1308,-86.0,75.0,-249.0,1
1309,-83.0,73.0,-253.0,1
1310,-80.0,77.0,-255.0,1
1311,-77.0,67.0,-253.0,1
1312,-80.0,61.0,-262.0,1
1313,-85.0,84.0,-254.0,1
1314,-79.0,70.0,-254.0,1
1315,-81.0,68.0,-252.0,1
1316,-79.0,66.0,-256.0,1
1317,-81.0,67.0,-252.0,1
1318,-81.0,60.0,-249.0,1
1319,-77.0,62.0,-252.0,1
1320,-81.0,62.0,-251.0,1
1321,-79.0,63.0,-249.0,1
1322,-75.0,59.0,-243.0,1
1323,-74.0,58.0,-241.0,1
1324,-75.0,57.0,-244.0,1
1325,-78.0,57.0,-246.0,1
1326,-73.0,55.0,-241.0,1
1327,-74.0,52.0,-239.0,1
1328,-75.0,49.0,-239.0,1
1329,-68.0,47.0,-239.0,1
1330,-66.0,40.0,-242.0,1
1331,-65.0,41.0,-239.0,1
1332,-67.0,43.0,-239.0,1
1333,-66.0,43.0,-238.0,1
1334,-67.0,40.0,-230.0,1
1335,-72.0,37.0,-238.0,1
1336,-58.0,37.0,-231.0,1
1337,-56.0,36.0,-234.0,1
1338,-59.0,32.0,-229.0,1
1339,-63.0,39.0,-225.0,1
1340,-62.0,43.0,-231.0,1
1341,-73.0,38.0,-234.0,1
1342,-54.0,40.0,-230.0,1
1343,-54.0,35.0,-233.0,1
1344,-54.0,32.0,-230.0,1
1345,-59.0,33.0,-234.0,1
1346,-59.0,37.0,-236.0,1
1347,-62.0,36.0,-241.0,1
1348,-62.0,36.0,-236.0,1
1349,-64.0,35.0,-240.0,1
1350,-56.0,39.0,-230.0,1
1351,-53.0,38.0,-239.0,1
1352,-60.0,37.0,-244.0,1
1353,-62.0,33.0,-239.0,1
1354,-64.0,41.0,-247.0,1
1355,-63.0,42.0,-241.0,1
1356,-64.0,41.0,-249.0,1
1357,-63.0,38.0,-242.0,1
1358,-59.0,38.0,-244.0,1
1359,-62.0,42.0,-244.0,1
1360,-61.0,37.0,-244.0,1
1361,-62.0,38.0,-242.0,1
1362,-61.0,40.0,-242.0,1
1363,-61.0,40.0,-242.0,1
1364,-62.0,38.0,-244.0,1
1365,-59.0,41.0,-241.0,1
1366,-62.0,38.0,-242.0,1
1367,-64.0,44.0,-243.0,1
1368,-64.0,39.0,-239.0,1
1369,-64.0,39.0,-243.0,1
1370,-64.0,43.0,-237.0,1
1371,-65.0,45.0,-240.0,1
1372,-64.0,41.0,-237.0,1
1373,-64.0,42.0,-236.0,1
1374,-64.0,43.0,-237.0,1
1375,-64.0,42.0,-234.0,1
1376,-64.0,44.0,-234.0,1
1377,-64.0,44.0,-235.0,1
1378,-65.0,43.0,-235.0,1
1379,-64.0,43.0,-234.0,1
1380,-65.0,45.0,-232.0,1
1381,-65.0,46.0,-233.0,1
1382,-65.0,41.0,-233.0,1
1383,-65.0,43.0,-233.0,1
1384,-66.0,46.0,-229.0,1
1385,-63.0,41.0,-234.0,0
1386,-66.0,44.0,-231.0,0
1387,-64.0,43.0,-234.0,0
1388,-63.0,44.0,-237.0,0
1389,-62.0,41.0,-233.0,0
1390,-68.0,45.0,-231.0,0
1391,-64.0,46.0,-234.0,0
1392,-66.0,47.0,-235.0,0
1393,-65.0,44.0,-231.0,0
1394,-64.0,44.0,-232.0,0
1395,-66.0,48.0,-232.0,0
1396,-64.0,46.0,-234.0,0
1397,-68.0,45.0,-231.0,0
1398,-66.0,42.0,-234.0,0
1399,-63.0,42.0,-233.0,0
1400,-65.0,44.0,-231.0,0
1401,-61.0,44.0,-236.0,0
1402,-67.0,48.0,-235.0,0
1403,-64.0,43.0,-232.0,0
1404,-65.0,43.0,-232.0,0
1405,-65.0,44.0,-235.0,0
1406,-63.0,42.0,-234.0,0
1407,-63.0,42.0,-231.0,0
1408,-65.0,43.0,-236.0,0
1409,-63.0,42.0,-233.0,0
1410,-62.0,40.0,-236.0,0
1411,-64.0,41.0,-235.0,0
1412,-62.0,40.0,-235.0,0
1413,-63.0,40.0,-241.0,0
1414,-62.0,43.0,-237.0,0
1415,-60.0,41.0,-234.0,0
1416,-63.0,45.0,-235.0,0
1417,-63.0,40.0,-234.0,0
1418,-64.0,43.0,-233.0,0
1419,-62.0,41.0,-237.0,0
1420,-63.0,41.0,-238.0,0
1421,-64.0,43.0,-242.0,0
1422,-62.0,42.0,-237.0,0
1423,-60.0,42.0,-235.0,0
1424,-61.0,40.0,-234.0,0
1425,-62.0,44.0,-237.0,0
1426,-63.0,42.0,-234.0,0
1427,-62.0,42.0,-238.0,0
1428,-64.0,42.0,-238.0,0
1429,-60.0,40.0,-236.0,0
1430,-63.0,43.0,-237.0,0
1431,-62.0,40.0,-239.0,0
1432,-62.0,41.0,-235.0,0
1433,-61.0,40.0,-237.0,0
1434,-60.0,41.0,-236.0,0
1435,-60.0,40.0,-237.0,0
1436,-61.0,39.0,-235.0,0
1437,-62.0,43.0,-240.0,0
1438,-63.0,40.0,-237.0,0
1439,-61.0,42.0,-240.0,0
1440,-64.0,36.0,-240.0,0
1441,-64.0,43.0,-241.0,0
1442,-61.0,43.0,-236.0,0
1443,-60.0,41.0,-236.0,0
1444,-62.0,45.0,-243.0,0
1445,-60.0,41.0,-240.0,0
1446,-26.0,16.0,-243.0,0
1447,-113.0,65.0,-244.0,0
1448,-92.0,80.0,-215.0,0
1449,-63.0,46.0,-232.0,0
1450,-61.0,35.0,-244.0,0
1451,-60.0,39.0,-240.0,0
1452,-57.0,41.0,-239.0,0
1453,-59.0,37.0,-235.0,0
1454,-63.0,43.0,-239.0,0
1455,-59.0,41.0,-232.0,0
1456,-63.0,41.0,-237.0,0
1457,-61.0,39.0,-232.0,0
1458,-62.0,44.0,-237.0,0
1459,-60.0,39.0,-234.0,0
1460,-62.0,41.0,-234.0,0
1461,-61.0,40.0,-236.0,0
1462,-58.0,40.0,-235.0,0
1463,-61.0,43.0,-237.0,0
1464,-61.0,41.0,-236.0,0
1465,-60.0,41.0,-234.0,0
1466,-58.0,35.0,-239.0,0
1467,-62.0,40.0,-235.0,0
1468,-63.0,40.0,-232.0,0
1469,-63.0,42.0,-235.0,0
1470,-63.0,42.0,-235.0,0
1471,-61.0,41.0,-237.0,0
1472,-61.0,41.0,-233.0,0
1473,-64.0,42.0,-234.0,0
1474,-60.0,39.0,-238.0,0
1475,-62.0,41.0,-240.0,0
1476,-59.0,41.0,-236.0,0
1477,-61.0,40.0,-233.0,0
1478,-63.0,43.0,-234.0,0
1479,-61.0,41.0,-237.0,0
1480,-61.0,42.0,-237.0,0
1481,-64.0,41.0,-238.0,0
1482,-74.0,32.0,-234.0,0
1483,-60.0,43.0,-235.0,0
1484,-62.0,39.0,-235.0,0
1485,-61.0,40.0,-238.0,0
1486,-61.0,42.0,-239.0,0
1487,-61.0,41.0,-233.0,0
1488,-64.0,40.0,-234.0,0
1489,-63.0,39.0,-233.0,0
1490,-62.0,44.0,-236.0,0
1491,-62.0,39.0,-239.0,0
1492,-61.0,39.0,-237.0,0
1493,-64.0,42.0,-234.0,0
1494,-62.0,42.0,-233.0,0
1495,-63.0,42.0,-235.0,0
1496,-60.0,40.0,-238.0,0
1497,-62.0,37.0,-235.0,0
1498,-61.0,40.0,-235.0,0
1499,-61.0,41.0,-235.0,0
1500,-60.0,42.0,-235.0,0
1501,-62.0,39.0,-238.0,0
1502,-61.0,38.0,-238.0,0
1503,-60.0,42.0,-239.0,0
1504,-60.0,40.0,-233.0,0
1505,-59.0,42.0,-239.0,0
1506,-64.0,39.0,-241.0,0
1507,-61.0,42.0,-236.0,0
1508,-57.0,36.0,-239.0,0
1509,-61.0,38.0,-235.0,0
1510,-62.0,44.0,-240.0,0
1511,-60.0,41.0,-236.0,0
1512,-61.0,43.0,-233.0,0
1513,-58.0,41.0,-238.0,0
1514,-61.0,38.0,-241.0,0
1515,-56.0,39.0,-237.0,0
1516,-62.0,42.0,-237.0,0
1517,-61.0,41.0,-239.0,0
1518,-63.0,42.0,-237.0,0
1519,-59.0,39.0,-240.0,0
1520,-60.0,40.0,-236.0,0
1521,-60.0,41.0,-239.0,0
1522,-63.0,38.0,-237.0,0
1523,-60.0,40.0,-241.0,0
1524,-60.0,40.0,-238.0,0
1525,-61.0,41.0,-233.0,0
1526,-61.0,42.0,-236.0,0
1527,-61.0,41.0,-234.0,0
1528,-59.0,38.0,-234.0,0
1529,-61.0,44.0,-236.0,0
1530,-61.0,42.0,-238.0,0
1531,-60.0,37.0,-237.0,0
1532,-62.0,38.0,-238.0,0
1533,-63.0,40.0,-240.0,0
1534,-62.0,41.0,-234.0,0
1535,-62.0,39.0,-236.0,0
1536,-60.0,41.0,-236.0,0
1537,-59.0,40.0,-232.0,0
1538,-59.0,41.0,-231.0,0
1539,-62.0,39.0,-231.0,0
1540,-41.0,39.0,-235.0,0
1541,-63.0,41.0,-233.0,0
1542,-63.0,42.0,-238.0,0
1543,-61.0,41.0,-239.0,0
1544,-62.0,41.0,-237.0,0
1545,-60.0,39.0,-236.0,0
1546,-63.0,37.0,-238.0,0
1547,-60.0,39.0,-240.0,0
1548,-60.0,41.0,-236.0,0
1549,-61.0,37.0,-237.0,0
1550,-58.0,39.0,-235.0,0
1551,-63.0,38.0,-233.0,0
1552,73.0,-12.0,-234.0,0
1553,-149.0,84.0,-252.0,0
1554,-102.0,97.0,-219.0,0
1555,-63.0,41.0,-237.0,0
1556,-61.0,36.0,-239.0,0
1557,-58.0,41.0,-237.0,0
1558,-60.0,36.0,-236.0,0
1559,-60.0,35.0,-240.0,0
1560,-62.0,40.0,-235.0,0
1561,-62.0,38.0,-240.0,0
1562,-62.0,38.0,-236.0,0
1563,-59.0,37.0,-238.0,0
1564,-61.0,39.0,-236.0,0
1565,-61.0,39.0,-236.0,0
1566,-63.0,39.0,-239.0,0
1567,-62.0,37.0,-239.0,0
1568,-62.0,37.0,-233.0,0
1569,-60.0,40.0,-235.0,0
1570,-61.0,36.0,-236.0,0
1571,-57.0,37.0,-237.0,0
1572,-61.0,39.0,-239.0,0
1573,-57.0,38.0,-233.0,0
1574,-60.0,36.0,-237.0,0
1575,-62.0,38.0,-238.0,0
1576,-51.0,59.0,-242.0,0
1577,-61.0,31.0,-232.0,0
1578,-60.0,31.0,-223.0,0
1579,-57.0,39.0,-228.0,0
1580,-61.0,35.0,-237.0,0
1581,-60.0,39.0,-240.0,0
1582,-59.0,37.0,-238.0,0
1583,-59.0,37.0,-239.0,0
1584,-59.0,35.0,-236.0,0
1585,-60.0,36.0,-237.0,0
1586,-61.0,40.0,-239.0,0
1587,-62.0,37.0,-233.0,0
1588,-61.0,37.0,-236.0,0
1589,-61.0,39.0,-237.0,0
1590,-59.0,38.0,-237.0,0
1591,-60.0,38.0,-235.0,0
1592,-63.0,39.0,-236.0,0
1593,-63.0,39.0,-236.0,0
1594,-61.0,39.0,-233.0,0
1595,-59.0,40.0,-236.0,0
1596,-61.0,39.0,-237.0,0
1597,-61.0,36.0,-237.0,0
1598,-62.0,39.0,-240.0,0
1599,-59.0,38.0,-238.0,0
1600,-61.0,37.0,-241.0,0
1601,-62.0,40.0,-239.0,0
1602,-58.0,37.0,-238.0,0
1603,-60.0,40.0,-240.0,0
1604,-62.0,38.0,-240.0,0
1605,-62.0,39.0,-238.0,0
1606,-62.0,38.0,-237.0,0
1607,-61.0,38.0,-234.0,0
1608,-59.0,39.0,-235.0,0
1609,-59.0,38.0,-237.0,0
1610,-61.0,37.0,-236.0,0
1611,-61.0,36.0,-237.0,0
1612,-62.0,40.0,-236.0,0
1613,-60.0,38.0,-238.0,0
1614,-56.0,39.0,-237.0,0
1615,-59.0,39.0,-238.0,0
1616,-61.0,38.0,-238.0,0
1617,-57.0,38.0,-234.0,0
1618,-58.0,38.0,-233.0,0
1619,-57.0,39.0,-233.0,0
1620,-61.0,38.0,-235.0,0
1621,-58.0,39.0,-237.0,0
1622,-57.0,39.0,-236.0,0
1623,-60.0,39.0,-236.0,0
1624,-62.0,38.0,-237.0,0
1625,-59.0,40.0,-235.0,0
1626,-60.0,36.0,-237.0,0
1627,-58.0,37.0,-236.0,0
1628,-59.0,38.0,-236.0,0
1629,-59.0,40.0,-236.0,0
1630,-61.0,40.0,-239.0,0
1631,-59.0,35.0,-236.0,0
1632,-59.0,41.0,-239.0,0
1633,-60.0,39.0,-238.0,0
1634,-59.0,40.0,-237.0,0
1635,-61.0,43.0,-239.0,0
1636,-58.0,39.0,-240.0,0
1637,-55.0,39.0,-239.0,0
1638,-58.0,37.0,-236.0,0
1639,-61.0,39.0,-240.0,0
1640,-61.0,39.0,-237.0,0
1641,-60.0,38.0,-239.0,0
1642,-61.0,41.0,-241.0,0
1643,-61.0,40.0,-238.0,0
1644,-58.0,40.0,-236.0,0
1645,-60.0,39.0,-233.0,0
1646,-59.0,41.0,-241.0,0
1647,-61.0,39.0,-240.0,0
1648,-59.0,39.0,-236.0,0
1649,-58.0,41.0,-237.0,0
1650,-58.0,41.0,-235.0,0
1651,-59.0,41.0,-240.0,0
1652,-60.0,40.0,-235.0,0
1653,-62.0,42.0,-241.0,0
1654,-57.0,36.0,-236.0,0
1655,-59.0,41.0,-240.0,0
1656,-56.0,37.0,-238.0,0
1657,-58.0,39.0,-237.0,0
1658,-58.0,38.0,-240.0,0
1659,-57.0,38.0,-235.0,0
1660,-59.0,36.0,-237.0,0
1661,-59.0,39.0,-236.0,0
1662,-61.0,39.0,-240.0,0
1663,-58.0,39.0,-236.0,0
1664,-58.0,39.0,-237.0,0
1665,-58.0,38.0,-233.0,0
1666,-58.0,39.0,-238.0,0
1667,-57.0,38.0,-237.0,0
1668,-58.0,38.0,-237.0,0
1669,-58.0,37.0,-238.0,0
1670,-60.0,39.0,-236.0,0
1671,-61.0,41.0,-235.0,0
1672,-57.0,39.0,-239.0,0
1673,-54.0,37.0,-238.0,0
1674,-59.0,40.0,-236.0,0
1675,-57.0,39.0,-239.0,0
1676,-57.0,38.0,-236.0,0
1677,-62.0,40.0,-238.0,0
1678,-56.0,38.0,-239.0,0
1679,-58.0,38.0,-238.0,0
1680,-61.0,38.0,-237.0,0
1681,-58.0,40.0,-237.0,0
1682,-59.0,41.0,-236.0,0
1683,-58.0,40.0,-235.0,0
1684,-59.0,40.0,-238.0,0
1685,-59.0,38.0,-240.0,0
1686,-58.0,41.0,-238.0,0
1687,-57.0,39.0,-238.0,0
1688,-60.0,40.0,-239.0,0
1689,-55.0,41.0,-239.0,0
1690,-59.0,38.0,-237.0,0
1691,-57.0,40.0,-238.0,0
1692,-55.0,42.0,-237.0,0
1693,-58.0,38.0,-238.0,0
1694,-57.0,41.0,-236.0,0
1695,-58.0,40.0,-239.0,0
1696,-55.0,37.0,-237.0,0
1697,-58.0,40.0,-237.0,0
1698,-57.0,39.0,-238.0,0
1699,-61.0,39.0,-239.0,0
1700,-56.0,37.0,-237.0,0
1701,-57.0,42.0,-236.0,0
1702,-60.0,40.0,-237.0,0
1703,-59.0,40.0,-237.0,0
1704,-60.0,38.0,-236.0,0
1705,-58.0,40.0,-232.0,0
1706,-59.0,37.0,-241.0,0
1707,-59.0,41.0,-238.0,0
1708,-58.0,42.0,-237.0,0
1709,-58.0,40.0,-237.0,0
1710,-58.0,41.0,-236.0,0
1711,-58.0,41.0,-235.0,0
1712,-56.0,36.0,-235.0,0
1713,-58.0,41.0,-238.0,0
1714,-62.0,40.0,-238.0,0
1715,-58.0,42.0,-238.0,0
1716,-57.0,40.0,-240.0,0
1717,-56.0,39.0,-236.0,0
1718,-60.0,39.0,-238.0,0
1719,-59.0,40.0,-237.0,0
1720,-57.0,40.0,-238.0,0
1721,-58.0,38.0,-235.0,0
1722,-57.0,41.0,-235.0,0
1723,-55.0,37.0,-238.0,0
1724,-57.0,42.0,-238.0,0
1725,-59.0,39.0,-235.0,0
1726,-60.0,39.0,-238.0,0
1727,-60.0,40.0,-239.0,0
1728,-57.0,39.0,-240.0,0
1729,-55.0,39.0,-239.0,0
1730,-58.0,39.0,-237.0,0
1731,-58.0,42.0,-241.0,0
1732,-56.0,38.0,-238.0,0
1733,-57.0,37.0,-239.0,0
1734,-53.0,39.0,-236.0,0
1735,-56.0,39.0,-236.0,0
1736,-58.0,41.0,-238.0,0
1737,-56.0,41.0,-235.0,0
1738,-57.0,44.0,-240.0,0
1739,-55.0,40.0,-237.0,0
1740,-57.0,41.0,-237.0,0
1741,-58.0,40.0,-234.0,0
1742,-56.0,39.0,-234.0,0
1743,-57.0,40.0,-240.0,0
1744,-58.0,39.0,-234.0,0
1745,-53.0,38.0,-238.0,0
1746,-57.0,40.0,-236.0,0
1747,-58.0,37.0,-241.0,0
1748,-59.0,40.0,-240.0,0
1749,-58.0,43.0,-237.0,0
1750,-56.0,36.0,-236.0,0
1751,-56.0,40.0,-238.0,0
1752,-57.0,41.0,-236.0,0
1753,-57.0,43.0,-237.0,0
1754,-60.0,39.0,-234.0,0
1755,-57.0,35.0,-235.0,0
1756,-59.0,40.0,-239.0,0
1757,-59.0,37.0,-237.0,0
1758,-60.0,40.0,-238.0,0
1759,-59.0,37.0,-237.0,0
1760,-59.0,39.0,-237.0,0
1761,-56.0,37.0,-236.0,0
1762,-58.0,40.0,-234.0,0
1763,-57.0,40.0,-236.0,0
1764,-58.0,40.0,-236.0,0
1765,-57.0,39.0,-235.0,0
1766,-55.0,40.0,-240.0,0
1767,-59.0,43.0,-237.0,0
1768,-59.0,41.0,-238.0,0
1769,-57.0,40.0,-235.0,0
1770,-58.0,39.0,-238.0,0
1771,-60.0,40.0,-238.0,0
1772,-58.0,39.0,-240.0,0
1773,-61.0,41.0,-238.0,0
1774,-58.0,39.0,-239.0,0
1775,-57.0,35.0,-238.0,0
1776,-56.0,38.0,-235.0,0
1777,-56.0,41.0,-235.0,0
1778,-56.0,38.0,-239.0,0
1779,-58.0,41.0,-240.0,0
1780,-57.0,40.0,-240.0,0
1781,-58.0,40.0,-236.0,0
1782,-56.0,38.0,-238.0,0
1783,-57.0,39.0,-240.0,0
1784,-56.0,38.0,-241.0,0
1785,-56.0,41.0,-240.0,0
1786,-56.0,40.0,-238.0,0
1787,-57.0,41.0,-240.0,0
1788,-56.0,41.0,-237.0,0
1789,-56.0,39.0,-239.0,0
1790,-59.0,40.0,-240.0,0
1791,-57.0,39.0,-239.0,0
1792,-57.0,40.0,-237.0,0
1793,-58.0,40.0,-236.0,0
1794,-57.0,39.0,-239.0,0
1795,-60.0,41.0,-239.0,0
1796,-57.0,39.0,-237.0,0
1797,-56.0,36.0,-234.0,0
1798,-56.0,36.0,-236.0,0
1799,-56.0,36.0,-238.0,0
1800,-56.0,40.0,-233.0,0
1801,-56.0,39.0,-239.0,0
1802,-59.0,39.0,-235.0,0
1803,-59.0,38.0,-233.0,0
1804,-57.0,39.0,-238.0,0
1805,-55.0,39.0,-240.0,0
1806,-58.0,37.0,-236.0,0
1807,-58.0,40.0,-240.0,0
1808,-56.0,40.0,-239.0,0
1809,-57.0,38.0,-237.0,0
1810,-58.0,40.0,-237.0,0
1811,-56.0,38.0,-235.0,0
1812,-54.0,40.0,-239.0,0
1813,-57.0,40.0,-238.0,0
1814,-56.0,38.0,-236.0,0
1815,-56.0,42.0,-236.0,0
1816,-57.0,40.0,-238.0,0
1817,-57.0,37.0,-236.0,0
1818,-56.0,39.0,-242.0,0
1819,-57.0,43.0,-241.0,0
1820,-59.0,43.0,-240.0,0
1821,-58.0,38.0,-239.0,0
1822,-55.0,37.0,-238.0,0
1823,-60.0,41.0,-237.0,0
1824,-57.0,36.0,-234.0,0
1825,-56.0,40.0,-238.0,0
1826,-60.0,42.0,-237.0,0
1827,-58.0,41.0,-237.0,0
1828,-58.0,39.0,-236.0,0
1829,-57.0,40.0,-239.0,0
1830,-56.0,40.0,-238.0,0
1831,-58.0,38.0,-237.0,0
1832,-56.0,41.0,-237.0,0
1833,-56.0,36.0,-240.0,0
1834,-58.0,42.0,-235.0,0
1835,-58.0,40.0,-238.0,0
1836,-59.0,39.0,-235.0,0
1837,-58.0,38.0,-238.0,0
1838,-56.0,36.0,-236.0,0
1839,-59.0,39.0,-234.0,0
1840,-58.0,39.0,-237.0,0
1841,-58.0,42.0,-237.0,0
1842,-56.0,36.0,-235.0,0
1843,-57.0,37.0,-236.0,0
1844,-57.0,40.0,-237.0,0
1845,-58.0,40.0,-235.0,0
1846,-57.0,40.0,-237.0,0
1847,-57.0,41.0,-239.0,0
1848,-60.0,40.0,-237.0,0
1849,-59.0,39.0,-237.0,0
1850,-57.0,37.0,-236.0,0
1851,-57.0,36.0,-234.0,0
1852,-57.0,40.0,-239.0,0
1853,-59.0,41.0,-240.0,0
1854,-57.0,39.0,-239.0,0
1855,-60.0,40.0,-239.0,0
1856,-58.0,39.0,-235.0,0
1857,-59.0,39.0,-241.0,0
1858,-58.0,40.0,-238.0,0
1859,-56.0,35.0,-240.0,0
1860,-54.0,38.0,-235.0,0
1861,-55.0,40.0,-239.0,0
1862,-57.0,37.0,-238.0,0
1863,-57.0,40.0,-238.0,0
1864,-57.0,39.0,-235.0,0
1865,-56.0,42.0,-236.0,0
1866,-59.0,37.0,-236.0,0
1867,-57.0,38.0,-238.0,0
1868,-61.0,42.0,-241.0,0
1869,-56.0,38.0,-238.0,0
1870,-55.0,40.0,-237.0,0
1871,-56.0,42.0,-232.0,0
1872,-56.0,40.0,-238.0,0
1873,-56.0,37.0,-238.0,0
1874,-56.0,40.0,-236.0,0
1875,-55.0,38.0,-238.0,0
1876,-58.0,39.0,-234.0,0
1877,-56.0,38.0,-240.0,0
1878,-58.0,39.0,-236.0,0
1879,-56.0,41.0,-234.0,0
1880,-59.0,40.0,-240.0,0
1881,-57.0,40.0,-238.0,0
1882,-57.0,42.0,-236.0,0
1883,-58.0,38.0,-242.0,0
1884,-56.0,37.0,-237.0,0
1885,-56.0,39.0,-239.0,0
1886,-56.0,40.0,-239.0,0
1887,-57.0,38.0,-238.0,0
1888,-55.0,39.0,-237.0,0
1889,-56.0,39.0,-238.0,0
1890,-56.0,37.0,-238.0,0
1891,-57.0,38.0,-240.0,0
1892,-55.0,39.0,-239.0,0
1893,-59.0,39.0,-238.0,0
1894,-55.0,38.0,-239.0,0
1895,-55.0,40.0,-240.0,0
1896,-57.0,37.0,-239.0,0
1897,-60.0,38.0,-237.0,0
1898,-60.0,41.0,-239.0,0
1899,-57.0,40.0,-235.0,0
1900,-58.0,37.0,-236.0,0
1901,-55.0,43.0,-236.0,0
1902,-58.0,39.0,-235.0,0
1903,-57.0,39.0,-238.0,0
1904,-58.0,40.0,-238.0,0
1905,-55.0,37.0,-241.0,0
1906,-58.0,38.0,-237.0,0
1907,-58.0,41.0,-238.0,0
1908,-58.0,35.0,-241.0,0
1909,-58.0,41.0,-240.0,0
1910,-54.0,40.0,-235.0,0
1911,-55.0,41.0,-238.0,0
1912,-54.0,38.0,-239.0,0
1913,-56.0,36.0,-234.0,0
1914,-56.0,41.0,-240.0,0
1915,-58.0,40.0,-238.0,0
1916,-56.0,37.0,-237.0,0
1917,-55.0,38.0,-237.0,0
1918,-56.0,40.0,-236.0,0
1919,-58.0,38.0,-235.0,0
1920,-57.0,39.0,-239.0,0
1921,-55.0,40.0,-238.0,0
1922,-57.0,39.0,-237.0,0
1923,-57.0,41.0,-241.0,0
1924,-55.0,39.0,-236.0,0
1925,-58.0,38.0,-238.0,0
1926,-56.0,37.0,-241.0,0
1927,-58.0,39.0,-239.0,0
1928,-59.0,41.0,-240.0,0
1929,-55.0,37.0,-239.0,0
1930,-54.0,39.0,-239.0,0
1931,-55.0,36.0,-238.0,0
1932,-57.0,39.0,-234.0,0
1933,-56.0,37.0,-240.0,0
1934,-56.0,39.0,-235.0,0
1935,-52.0,38.0,-235.0,0
1936,-54.0,40.0,-237.0,0
1937,-55.0,36.0,-242.0,0
1938,-57.0,42.0,-235.0,0
1939,-57.0,37.0,-242.0,0
1940,-59.0,40.0,-236.0,0
1941,-56.0,38.0,-240.0,0
1942,-58.0,39.0,-238.0,0
1943,-56.0,38.0,-238.0,0
1944,-57.0,38.0,-239.0,0
1945,-55.0,37.0,-242.0,0
1946,-55.0,39.0,-238.0,0
1947,-57.0,40.0,-242.0,0
1948,-53.0,38.0,-236.0,0
1949,-55.0,40.0,-239.0,0
1950,-53.0,41.0,-239.0,0
1951,-56.0,37.0,-237.0,0
1952,-57.0,40.0,-238.0,0
1953,-55.0,42.0,-237.0,0
1954,-57.0,38.0,-238.0,0
1955,-57.0,40.0,-237.0,0
1956,-57.0,40.0,-242.0,0
1957,-56.0,39.0,-236.0,0
1958,-54.0,37.0,-238.0,0
1959,-59.0,37.0,-238.0,0
1960,-57.0,39.0,-238.0,0
1961,-55.0,37.0,-240.0,0
1962,-55.0,40.0,-238.0,0
1963,-57.0,40.0,-239.0,0
1964,-57.0,38.0,-236.0,0
1965,-54.0,39.0,-235.0,0
1966,-58.0,40.0,-237.0,0
1967,-56.0,39.0,-240.0,0
1968,-56.0,38.0,-236.0,0
1969,-54.0,38.0,-236.0,0
1970,-58.0,38.0,-240.0,0
1971,-55.0,38.0,-238.0,0
1972,-57.0,40.0,-240.0,0
1973,-54.0,40.0,-232.0,0
1974,-56.0,38.0,-237.0,0
1975,-54.0,39.0,-238.0,0
1976,-53.0,39.0,-235.0,0
1977,-59.0,40.0,-244.0,0
1978,-58.0,39.0,-240.0,0
1979,-55.0,35.0,-236.0,0
1980,-57.0,39.0,-237.0,0
1981,-56.0,37.0,-238.0,0
1982,-54.0,38.0,-238.0,0
1983,-56.0,37.0,-242.0,0
1984,-55.0,41.0,-237.0,0
1985,-57.0,38.0,-236.0,0
1986,-58.0,40.0,-235.0,0
1987,-56.0,39.0,-240.0,0
1988,-54.0,38.0,-237.0,0
1989,-57.0,38.0,-238.0,0
1990,-57.0,38.0,-235.0,0
1991,-46.0,38.0,-243.0,0
1992,-58.0,37.0,-240.0,0
1993,-56.0,38.0,-240.0,0
1994,-57.0,42.0,-239.0,0
1995,-57.0,40.0,-239.0,0
1996,-56.0,39.0,-239.0,0
1997,-55.0,39.0,-235.0,0
1998,-57.0,41.0,-238.0,0
1999,-57.0,37.0,-240.0,0
2000,-50.0,37.0,-240.0,0
2001,-56.0,40.0,-242.0,0
2002,-58.0,37.0,-235.0,0
2003,-57.0,39.0,-234.0,0
2004,-58.0,38.0,-239.0,0
2005,-54.0,38.0,-239.0,0
2006,-56.0,37.0,-238.0,0
2007,-59.0,38.0,-237.0,0
2008,-54.0,38.0,-236.0,0
2009,-60.0,39.0,-240.0,0
2010,-56.0,36.0,-236.0,0
2011,-57.0,39.0,-237.0,0
2012,-57.0,42.0,-237.0,0
2013,-54.0,36.0,-239.0,0
2014,-58.0,39.0,-235.0,0
2015,-56.0,39.0,-239.0,0
2016,-56.0,39.0,-240.0,0
2017,-55.0,39.0,-236.0,0
2018,-54.0,39.0,-238.0,0
2019,-55.0,42.0,-239.0,0
2020,-57.0,40.0,-236.0,0
2021,-58.0,40.0,-239.0,0
2022,-56.0,38.0,-242.0,0
2023,-58.0,38.0,-237.0,0
2024,-55.0,38.0,-238.0,0
2025,-56.0,38.0,-238.0,0
2026,-54.0,38.0,-241.0,0
2027,-57.0,41.0,-237.0,0
2028,-58.0,38.0,-239.0,0
2029,-58.0,41.0,-239.0,0
2030,-56.0,38.0,-236.0,0
2031,-55.0,38.0,-237.0,0
2032,-58.0,39.0,-238.0,0
2033,-54.0,38.0,-235.0,0
2034,-58.0,42.0,-238.0,0
2035,-58.0,37.0,-235.0,0
2036,-56.0,40.0,-234.0,0
2037,-57.0,40.0,-242.0,0
2038,-57.0,38.0,-239.0,0
2039,-55.0,39.0,-236.0,0
2040,-56.0,36.0,-237.0,0
2041,-56.0,43.0,-240.0,0
2042,-55.0,40.0,-238.0,0
2043,-54.0,36.0,-235.0,0
2044,-56.0,38.0,-237.0,0
2045,-55.0,39.0,-233.0,0
2046,-55.0,41.0,-235.0,0
2047,-56.0,40.0,-236.0,0
2048,-57.0,42.0,-240.0,0
2049,-54.0,39.0,-236.0,0
2050,-58.0,39.0,-237.0,0
2051,-55.0,38.0,-240.0,0
2052,-55.0,39.0,-238.0,0
2053,-56.0,37.0,-240.0,0
2054,-55.0,40.0,-238.0,0
2055,-56.0,40.0,-239.0,0
2056,-55.0,37.0,-238.0,0
2057,-54.0,39.0,-241.0,0
2058,-58.0,36.0,-238.0,0
2059,-56.0,38.0,-235.0,0
2060,-54.0,40.0,-237.0,0
2061,-56.0,40.0,-239.0,0
2062,-58.0,41.0,-238.0,0
2063,-54.0,39.0,-238.0,0
2064,-53.0,39.0,-239.0,0
2065,-56.0,39.0,-236.0,0
2066,-56.0,38.0,-236.0,0
2067,-54.0,38.0,-236.0,0
2068,-56.0,39.0,-237.0,0
2069,-56.0,39.0,-237.0,0
2070,-54.0,39.0,-238.0,0
2071,-54.0,38.0,-236.0,0
2072,-55.0,41.0,-241.0,0
2073,-58.0,41.0,-237.0,0
2074,-58.0,37.0,-238.0,0
2075,-57.0,39.0,-237.0,0
2076,-57.0,38.0,-239.0,0
2077,-56.0,37.0,-239.0,0
2078,-56.0,39.0,-238.0,0
2079,-55.0,42.0,-238.0,0
2080,-58.0,42.0,-237.0,0
2081,-55.0,37.0,-240.0,0
2082,-57.0,40.0,-237.0,0
2083,-54.0,37.0,-238.0,0
2084,-55.0,41.0,-236.0,0
2085,-57.0,39.0,-242.0,0
2086,-54.0,40.0,-239.0,0
2087,-55.0,39.0,-236.0,0
2088,-57.0,38.0,-240.0,0
2089,-55.0,38.0,-239.0,0
2090,-56.0,42.0,-237.0,0
2091,-54.0,40.0,-236.0,0
2092,-59.0,39.0,-239.0,0
2093,-52.0,40.0,-236.0,0
2094,-55.0,36.0,-240.0,0
2095,-58.0,40.0,-236.0,0
2096,-55.0,41.0,-237.0,0
2097,-55.0,41.0,-238.0,0
2098,-57.0,40.0,-236.0,0
2099,-54.0,39.0,-238.0,0
2100,-56.0,42.0,-238.0,0
2101,-54.0,40.0,-236.0,0
2102,-55.0,41.0,-237.0,0
2103,-54.0,36.0,-239.0,0
2104,-55.0,41.0,-235.0,0
2105,-57.0,38.0,-237.0,0
2106,-54.0,41.0,-235.0,0
2107,-55.0,43.0,-238.0,0
2108,-56.0,37.0,-241.0,0
2109,-56.0,38.0,-244.0,0
2110,-56.0,38.0,-239.0,0
2111,-59.0,40.0,-240.0,0
2112,-56.0,38.0,-239.0,0
2113,-55.0,38.0,-239.0,0
2114,-55.0,38.0,-236.0,0
2115,-56.0,38.0,-239.0,0
2116,-54.0,38.0,-242.0,0
2117,-56.0,38.0,-234.0,0
2118,-55.0,39.0,-236.0,0
2119,-56.0,38.0,-238.0,0
2120,-53.0,36.0,-239.0,0
2121,-58.0,40.0,-235.0,0
2122,-56.0,37.0,-241.0,0
2123,-57.0,38.0,-236.0,0
2124,-56.0,39.0,-235.0,0
2125,-58.0,40.0,-239.0,0
2126,-54.0,38.0,-240.0,0
2127,-57.0,36.0,-240.0,0
2128,-56.0,41.0,-237.0,0
2129,-57.0,40.0,-237.0,0
2130,-56.0,38.0,-235.0,0
2131,-57.0,40.0,-240.0,0
2132,-55.0,39.0,-238.0,0
2133,-54.0,40.0,-235.0,0
2134,-53.0,39.0,-240.0,0
2135,-56.0,40.0,-237.0,0
2136,-57.0,37.0,-237.0,0
2137,-56.0,40.0,-239.0,0
2138,-53.0,36.0,-239.0,0
2139,-55.0,38.0,-239.0,0
2140,-56.0,40.0,-237.0,0
2141,-56.0,38.0,-239.0,0
2142,-54.0,39.0,-237.0,0
2143,-55.0,41.0,-240.0,0
2144,-53.0,40.0,-239.0,0
2145,-57.0,41.0,-238.0,0
2146,-55.0,41.0,-236.0,0
2147,-54.0,40.0,-237.0,0
2148,-55.0,39.0,-235.0,0
2149,-55.0,39.0,-240.0,0
2150,-54.0,38.0,-239.0,0
2151,-56.0,40.0,-239.0,0
2152,-56.0,39.0,-239.0,0
2153,-56.0,37.0,-236.0,0
2154,-57.0,42.0,-232.0,0
2155,-56.0,36.0,-235.0,0
2156,-55.0,38.0,-238.0,0
2157,-56.0,41.0,-239.0,0
2158,-59.0,41.0,-237.0,0
2159,-54.0,40.0,-238.0,0
2160,-54.0,38.0,-238.0,0
2161,-56.0,37.0,-239.0,0
2162,-57.0,41.0,-240.0,0
2163,-55.0,40.0,-241.0,0
2164,-57.0,42.0,-236.0,0
2165,-55.0,41.0,-236.0,0
2166,-56.0,36.0,-238.0,0
2167,-55.0,41.0,-237.0,0
2168,-56.0,42.0,-236.0,0
2169,-56.0,38.0,-239.0,0
2170,-54.0,41.0,-238.0,0
2171,-56.0,40.0,-236.0,0
2172,-54.0,39.0,-239.0,0
2173,-53.0,40.0,-238.0,0
2174,-54.0,38.0,-238.0,0
2175,-54.0,43.0,-240.0,0
2176,-54.0,40.0,-238.0,0
2177,-53.0,38.0,-240.0,0
2178,-53.0,37.0,-237.0,0
2179,-56.0,40.0,-237.0,0
2180,-54.0,39.0,-233.0,0
2181,-59.0,41.0,-237.0,0
2182,-55.0,40.0,-238.0,0
2183,-55.0,40.0,-240.0,0
2184,-55.0,43.0,-242.0,0
2185,-54.0,40.0,-239.0,0
2186,-53.0,37.0,-235.0,0
2187,-56.0,37.0,-240.0,0
2188,-50.0,37.0,-242.0,0
2189,-54.0,36.0,-241.0,0
2190,-56.0,39.0,-237.0,0
2191,-54.0,38.0,-238.0,0
2192,-55.0,40.0,-237.0,0
2193,-53.0,42.0,-237.0,0
2194,-56.0,43.0,-240.0,0
2195,-55.0,37.0,-240.0,0
2196,-53.0,40.0,-237.0,0
2197,-55.0,36.0,-238.0,0
2198,-59.0,41.0,-238.0,0
2199,-55.0,37.0,-239.0,0
2200,-57.0,39.0,-239.0,0
2201,-56.0,39.0,-238.0,0
2202,-54.0,35.0,-238.0,0
2203,-54.0,38.0,-238.0,0
2204,-54.0,42.0,-237.0,0
2205,-59.0,41.0,-240.0,0
2206,-55.0,39.0,-239.0,0
2207,-53.0,39.0,-238.0,0
2208,-55.0,40.0,-235.0,0
2209,-53.0,39.0,-237.0,0
2210,-55.0,40.0,-240.0,0
2211,-55.0,38.0,-236.0,0
2212,-53.0,38.0,-237.0,0
2213,-50.0,37.0,-238.0,0
2214,-53.0,39.0,-240.0,0
2215,-55.0,40.0,-240.0,0
2216,-55.0,40.0,-237.0,0
2217,-53.0,42.0,-239.0,0
2218,-55.0,39.0,-238.0,0
2219,-55.0,41.0,-237.0,0
2220,-56.0,38.0,-240.0,0
2221,-56.0,41.0,-239.0,0
2222,-54.0,37.0,-240.0,0
2223,-57.0,38.0,-238.0,0
2224,-53.0,39.0,-241.0,0
2225,-55.0,38.0,-238.0,0
2226,-52.0,38.0,-235.0,0
2227,-51.0,42.0,-238.0,0
2228,-54.0,40.0,-238.0,0
2229,-56.0,42.0,-237.0,0
2230,-51.0,41.0,-238.0,0
2231,-52.0,38.0,-241.0,0
2232,-54.0,38.0,-239.0,0
2233,-54.0,38.0,-237.0,0
2234,-56.0,41.0,-240.0,0
2235,-56.0,41.0,-240.0,0
2236,-52.0,38.0,-237.0,0
2237,-53.0,41.0,-235.0,0
2238,-52.0,41.0,-237.0,0
2239,-54.0,41.0,-238.0,0
2240,-55.0,39.0,-238.0,0
2241,-52.0,39.0,-236.0,0
2242,-57.0,41.0,-237.0,0
2243,-53.0,38.0,-235.0,0
2244,-54.0,43.0,-236.0,0
2245,-55.0,39.0,-238.0,0
2246,-56.0,38.0,-235.0,0
2247,-53.0,38.0,-235.0,0
2248,-56.0,39.0,-239.0,0
2249,-53.0,39.0,-240.0,0
2250,-52.0,41.0,-238.0,0
2251,-51.0,41.0,-239.0,0
2252,-55.0,42.0,-239.0,0
2253,-52.0,38.0,-241.0,0
2254,-53.0,38.0,-242.0,0
2255,-53.0,38.0,-237.0,0
2256,-53.0,38.0,-238.0,0
2257,-56.0,41.0,-239.0,0
2258,-52.0,40.0,-239.0,0
2259,-52.0,38.0,-242.0,0
2260,-55.0,39.0,-239.0,0
2261,-52.0,37.0,-237.0,0
2262,-53.0,41.0,-242.0,0
2263,-53.0,42.0,-241.0,0
2264,-55.0,40.0,-236.0,0
2265,-54.0,37.0,-234.0,0
2266,-53.0,41.0,-240.0,0
2267,-53.0,40.0,-239.0,0
2268,-53.0,41.0,-241.0,0
2269,-53.0,40.0,-240.0,0
2270,-52.0,39.0,-237.0,0
2271,-53.0,36.0,-239.0,0
2272,-54.0,42.0,-238.0,0
2273,-53.0,38.0,-237.0,0
2274,-51.0,43.0,-237.0,0
2275,-55.0,42.0,-233.0,0
2276,-54.0,39.0,-238.0,0
2277,-54.0,38.0,-234.0,0
2278,-52.0,39.0,-236.0,0
2279,-55.0,40.0,-235.0,0
2280,-54.0,39.0,-238.0,0
2281,-53.0,39.0,-238.0,0
2282,-53.0,40.0,-238.0,0
2283,-52.0,37.0,-240.0,0
2284,-56.0,41.0,-240.0,0
2285,-53.0,36.0,-242.0,0
2286,-54.0,41.0,-239.0,0
2287,-52.0,40.0,-238.0,0
2288,-55.0,43.0,-239.0,0
2289,-55.0,37.0,-240.0,0
2290,-55.0,38.0,-239.0,0
2291,-54.0,43.0,-237.0,0
2292,-53.0,40.0,-241.0,0
2293,-55.0,39.0,-239.0,0
2294,-53.0,39.0,-237.0,0
2295,-55.0,38.0,-238.0,0
2296,-54.0,40.0,-238.0,0
2297,-55.0,41.0,-237.0,0
2298,-55.0,39.0,-238.0,0
2299,-55.0,40.0,-239.0,0
2300,-51.0,40.0,-235.0,0
2301,-54.0,38.0,-238.0,0
2302,-54.0,41.0,-239.0,0
2303,-56.0,41.0,-239.0,0
2304,-52.0,43.0,-237.0,0
2305,-52.0,37.0,-240.0,0
2306,-55.0,41.0,-238.0,0
2307,-50.0,37.0,-240.0,0
2308,-53.0,37.0,-239.0,0
2309,-56.0,40.0,-238.0,0
2310,-54.0,39.0,-238.0,0
2311,-55.0,44.0,-239.0,0
2312,-55.0,38.0,-237.0,0
2313,-52.0,39.0,-236.0,0
2314,-55.0,41.0,-237.0,0
2315,-57.0,42.0,-237.0,0
2316,-55.0,40.0,-237.0,0
2317,-56.0,41.0,-237.0,0
2318,-56.0,43.0,-237.0,0
2319,-54.0,39.0,-239.0,0
2320,-53.0,40.0,-238.0,0
2321,-54.0,37.0,-238.0,0
2322,-53.0,41.0,-241.0,0
2323,-55.0,41.0,-237.0,0
2324,-53.0,39.0,-237.0,0
2325,-53.0,38.0,-238.0,0
2326,-54.0,40.0,-239.0,0
2327,-59.0,43.0,-239.0,0
2328,-38.0,43.0,-237.0,0
2329,-61.0,38.0,-237.0,0
2330,-60.0,43.0,-244.0,0
2331,-52.0,40.0,-238.0,0
2332,-53.0,39.0,-240.0,0
2333,-54.0,40.0,-236.0,0
2334,-52.0,38.0,-238.0,0
2335,-54.0,40.0,-239.0,0
2336,-52.0,39.0,-236.0,0
2337,-55.0,40.0,-239.0,0
2338,-55.0,42.0,-241.0,0
2339,-53.0,36.0,-240.0,0
2340,-56.0,38.0,-236.0,0
2341,-55.0,38.0,-240.0,0
2342,-57.0,40.0,-240.0,0
2343,-52.0,40.0,-237.0,0
2344,-55.0,40.0,-237.0,0
2345,-52.0,37.0,-236.0,0
2346,-55.0,39.0,-240.0,0
2347,-55.0,40.0,-237.0,0
2348,-56.0,40.0,-241.0,0
2349,-57.0,42.0,-243.0,0
2350,-59.0,40.0,-237.0,0
2351,-56.0,39.0,-236.0,0
2352,-55.0,38.0,-241.0,0
2353,-56.0,39.0,-238.0,0
2354,-52.0,37.0,-238.0,0
2355,-55.0,41.0,-236.0,0
2356,-51.0,38.0,-239.0,0
2357,-55.0,41.0,-242.0,0
2358,-51.0,39.0,-236.0,0
2359,-56.0,37.0,-239.0,0
2360,-56.0,37.0,-240.0,0
2361,-53.0,38.0,-238.0,0
2362,-53.0,40.0,-238.0,0
2363,-57.0,39.0,-239.0,0
2364,-54.0,39.0,-236.0,0
2365,-54.0,38.0,-235.0,0
2366,-54.0,38.0,-239.0,0
2367,-56.0,40.0,-237.0,0
2368,-54.0,40.0,-241.0,0
2369,-52.0,37.0,-234.0,0
2370,-54.0,38.0,-234.0,0
2371,-56.0,41.0,-239.0,0
2372,-54.0,38.0,-237.0,0
2373,-52.0,40.0,-238.0,0
2374,-54.0,38.0,-239.0,0
2375,-55.0,40.0,-240.0,0
2376,-53.0,38.0,-236.0,0
2377,-52.0,37.0,-240.0,0
2378,-54.0,41.0,-239.0,0
2379,-54.0,37.0,-238.0,0
2380,-55.0,41.0,-237.0,0
2381,-55.0,37.0,-236.0,0
2382,-54.0,40.0,-238.0,0
2383,-56.0,40.0,-238.0,0
2384,-52.0,38.0,-239.0,0
2385,-53.0,36.0,-238.0,0
2386,-54.0,36.0,-239.0,0
2387,-56.0,40.0,-239.0,0
2388,-53.0,38.0,-239.0,0
2389,-53.0,35.0,-241.0,0
2390,-53.0,39.0,-240.0,0
2391,-53.0,41.0,-239.0,0
2392,-51.0,40.0,-239.0,0
2393,-53.0,39.0,-241.0,0
2394,-56.0,41.0,-238.0,0
2395,-52.0,42.0,-239.0,0
2396,-52.0,40.0,-239.0,0
2397,-53.0,38.0,-239.0,0
2398,-52.0,38.0,-242.0,0
2399,-55.0,40.0,-240.0,0
2400,-53.0,41.0,-236.0,0
2401,-53.0,38.0,-243.0,0
2402,-55.0,38.0,-238.0,0
2403,-53.0,38.0,-240.0,0
2404,-53.0,35.0,-239.0,0
2405,-53.0,38.0,-238.0,0
2406,-55.0,39.0,-240.0,0
2407,-53.0,40.0,-237.0,0
2408,-56.0,39.0,-235.0,0
2409,-53.0,37.0,-241.0,0
2410,-54.0,41.0,-238.0,0
2411,-116.0,72.0,-258.0,0
2412,-26.0,18.0,-212.0,0
2413,-40.0,40.0,-237.0,0
2414,-57.0,44.0,-242.0,0
2415,-49.0,35.0,-238.0,0
2416,-52.0,38.0,-239.0,0
2417,-53.0,40.0,-236.0,0
2418,-55.0,35.0,-239.0,0
2419,-53.0,38.0,-237.0,0
2420,-54.0,37.0,-236.0,0
2421,-52.0,39.0,-236.0,0
2422,-56.0,40.0,-240.0,0
2423,-55.0,40.0,-242.0,0
2424,-56.0,40.0,-241.0,0
2425,-51.0,40.0,-240.0,0
2426,-49.0,42.0,-236.0,0
2427,-55.0,40.0,-237.0,0
2428,-56.0,39.0,-238.0,0
2429,-58.0,39.0,-242.0,0
2430,-52.0,38.0,-240.0,0
2431,-51.0,40.0,-237.0,0
2432,-51.0,36.0,-239.0,0
2433,-56.0,38.0,-241.0,0
2434,-50.0,36.0,-241.0,0
2435,-54.0,38.0,-235.0,0
2436,-54.0,40.0,-239.0,0
2437,-53.0,36.0,-238.0,0
2438,-55.0,41.0,-238.0,0
2439,-57.0,39.0,-236.0,0
2440,-53.0,37.0,-241.0,0
2441,-51.0,38.0,-239.0,0
2442,-53.0,39.0,-241.0,0
2443,-54.0,37.0,-242.0,0
2444,-52.0,38.0,-239.0,0
2445,-53.0,38.0,-236.0,0
2446,-56.0,42.0,-237.0,0
2447,-55.0,36.0,-238.0,0
2448,-55.0,38.0,-237.0,0
2449,-53.0,37.0,-237.0,0
2450,-49.0,36.0,-238.0,0
2451,-55.0,40.0,-237.0,0
2452,-53.0,37.0,-240.0,0
2453,-52.0,38.0,-235.0,0
2454,-53.0,39.0,-237.0,0
2455,-52.0,39.0,-239.0,0
2456,-53.0,38.0,-243.0,0
2457,-52.0,37.0,-239.0,0
2458,-52.0,37.0,-239.0,0
2459,-53.0,38.0,-240.0,0
2460,-52.0,37.0,-238.0,0
2461,-53.0,36.0,-240.0,0
2462,-53.0,39.0,-235.0,0
2463,-52.0,37.0,-237.0,0
2464,-52.0,39.0,-237.0,0
2465,-53.0,41.0,-238.0,0
2466,-52.0,36.0,-239.0,0
2467,-52.0,36.0,-237.0,0
2468,-55.0,32.0,-235.0,0
2469,-56.0,40.0,-239.0,0
2470,-53.0,38.0,-237.0,0
2471,-52.0,37.0,-240.0,0
2472,-52.0,38.0,-239.0,0
2473,-55.0,37.0,-235.0,0
2474,-53.0,38.0,-240.0,0
2475,-52.0,36.0,-238.0,0
2476,-52.0,35.0,-240.0,0
2477,-50.0,38.0,-237.0,0
2478,-52.0,37.0,-241.0,0
2479,-53.0,38.0,-245.0,0
2480,-54.0,40.0,-239.0,0
2481,-53.0,41.0,-241.0,0
2482,-55.0,38.0,-238.0,0
2483,-53.0,38.0,-239.0,0
2484,-53.0,38.0,-242.0,0
2485,-53.0,38.0,-241.0,0
2486,-52.0,39.0,-236.0,0
2487,-53.0,36.0,-241.0,0
2488,-52.0,38.0,-239.0,0
2489,-51.0,38.0,-239.0,0
2490,-56.0,38.0,-237.0,0
2491,-50.0,38.0,-237.0,0
2492,-53.0,40.0,-241.0,0
2493,-52.0,36.0,-239.0,0
2494,-53.0,37.0,-239.0,0
2495,-53.0,38.0,-238.0,0
2496,-53.0,39.0,-239.0,0
2497,-52.0,38.0,-238.0,0
2498,-51.0,38.0,-240.0,0
2499,-53.0,38.0,-240.0,0
2500,-56.0,37.0,-241.0,0
2501,-53.0,37.0,-240.0,0
2502,-53.0,37.0,-239.0,0
2503,-53.0,38.0,-237.0,0
2504,-53.0,39.0,-240.0,0
2505,-55.0,37.0,-239.0,0
2506,-52.0,37.0,-237.0,0
2507,-53.0,36.0,-237.0,0
2508,-55.0,40.0,-240.0,0
2509,-52.0,38.0,-238.0,0
2510,-51.0,38.0,-238.0,0
2511,-52.0,38.0,-239.0,0
2512,-53.0,39.0,-240.0,0
2513,-52.0,38.0,-240.0,0
2514,-55.0,36.0,-237.0,0
2515,-51.0,37.0,-235.0,0
2516,-51.0,38.0,-236.0,0
2517,-54.0,37.0,-243.0,0
2518,-53.0,36.0,-241.0,0
2519,-51.0,38.0,-240.0,0
2520,-52.0,38.0,-237.0,0
2521,-53.0,39.0,-240.0,0
2522,-51.0,39.0,-239.0,0
2523,-54.0,39.0,-240.0,0
2524,-52.0,37.0,-240.0,0
2525,-54.0,39.0,-242.0,0
2526,-55.0,38.0,-242.0,0
2527,-55.0,38.0,-239.0,0
2528,-54.0,38.0,-242.0,0
2529,-51.0,37.0,-242.0,0
2530,-49.0,37.0,-238.0,0
2531,-55.0,43.0,-239.0,0
2532,-50.0,37.0,-236.0,0
2533,-55.0,40.0,-239.0,0
2534,-54.0,39.0,-237.0,0
2535,-52.0,37.0,-238.0,0
2536,-52.0,36.0,-239.0,0
2537,-54.0,38.0,-240.0,0
2538,-53.0,38.0,-235.0,0
2539,-56.0,39.0,-238.0,0
2540,-52.0,37.0,-235.0,0
2541,-53.0,40.0,-238.0,0
2542,-50.0,35.0,-240.0,0
2543,-54.0,36.0,-236.0,0
2544,-53.0,38.0,-238.0,0
2545,-53.0,36.0,-237.0,0
2546,-51.0,37.0,-239.0,0
2547,-52.0,40.0,-240.0,0
2548,-52.0,35.0,-240.0,0
2549,-51.0,38.0,-241.0,0
2550,-51.0,34.0,-243.0,0
2551,-50.0,40.0,-234.0,0
2552,-52.0,39.0,-240.0,0
2553,-55.0,36.0,-241.0,0
2554,-51.0,35.0,-242.0,0
2555,-51.0,39.0,-239.0,0
2556,-54.0,38.0,-240.0,0
2557,-52.0,40.0,-237.0,0
2558,-52.0,38.0,-235.0,0
2559,-53.0,39.0,-241.0,0
2560,-52.0,38.0,-240.0,0
2561,-53.0,35.0,-237.0,0
2562,-52.0,38.0,-238.0,0
2563,-52.0,36.0,-239.0,0
2564,-52.0,36.0,-240.0,0
2565,-54.0,38.0,-243.0,0
2566,-51.0,38.0,-237.0,0
2567,-50.0,40.0,-238.0,0
2568,-54.0,35.0,-242.0,0
2569,-53.0,37.0,-238.0,0
2570,-54.0,41.0,-240.0,0
2571,-53.0,39.0,-240.0,0
2572,-51.0,36.0,-237.0,0
2573,-58.0,41.0,-237.0,0
2574,-51.0,37.0,-236.0,0
2575,-53.0,39.0,-239.0,0
2576,-52.0,39.0,-237.0,0
2577,-55.0,38.0,-238.0,0
2578,-51.0,37.0,-236.0,0
2579,-54.0,38.0,-240.0,0
2580,-50.0,38.0,-241.0,0
2581,-51.0,38.0,-241.0,0
2582,-55.0,37.0,-235.0,0
2583,-53.0,36.0,-236.0,0
2584,-51.0,38.0,-237.0,0
2585,-54.0,37.0,-239.0,0
2586,-50.0,37.0,-243.0,0
2587,-55.0,37.0,-239.0,0
2588,-53.0,40.0,-240.0,0
2589,-54.0,37.0,-240.0,0
2590,-51.0,35.0,-244.0,0
2591,-52.0,38.0,-241.0,0
2592,-55.0,38.0,-240.0,0
2593,-52.0,35.0,-241.0,0
2594,-52.0,35.0,-236.0,0
2595,-51.0,36.0,-238.0,0
2596,-53.0,37.0,-235.0,0
2597,-49.0,38.0,-242.0,0
2598,-52.0,38.0,-237.0,0
2599,-50.0,37.0,-238.0,0
2600,-52.0,37.0,-238.0,0
2601,-54.0,37.0,-242.0,0
2602,-49.0,36.0,-242.0,0
2603,-53.0,38.0,-237.0,0
2604,-54.0,37.0,-239.0,0
2605,-54.0,41.0,-240.0,0
2606,-53.0,38.0,-238.0,0
2607,-53.0,39.0,-239.0,0
2608,-52.0,39.0,-239.0,0
2609,-53.0,36.0,-240.0,0
2610,-52.0,34.0,-237.0,0
2611,-52.0,38.0,-239.0,0
2612,-51.0,37.0,-240.0,0
2613,-52.0,42.0,-235.0,0
2614,-51.0,38.0,-240.0,0
2615,-55.0,41.0,-242.0,0
2616,-51.0,37.0,-235.0,0
2617,-54.0,38.0,-239.0,0
2618,-51.0,38.0,-241.0,0
2619,-51.0,38.0,-240.0,0
2620,-52.0,38.0,-243.0,0
2621,-51.0,37.0,-241.0,0
2622,-53.0,38.0,-237.0,0
2623,-50.0,37.0,-242.0,0
2624,-51.0,37.0,-241.0,0
2625,-54.0,40.0,-243.0,0
2626,-53.0,39.0,-240.0,0
2627,-55.0,39.0,-242.0,0
2628,-50.0,38.0,-239.0,0
2629,-53.0,38.0,-237.0,0
2630,-56.0,41.0,-237.0,0
2631,-52.0,36.0,-237.0,0
2632,-51.0,36.0,-238.0,0
2633,-53.0,38.0,-237.0,0
2634,-51.0,37.0,-242.0,0
2635,-54.0,41.0,-242.0,0
2636,-50.0,40.0,-237.0,0
2637,-54.0,40.0,-240.0,0
2638,-54.0,39.0,-241.0,0
2639,-52.0,39.0,-241.0,0
2640,-54.0,38.0,-238.0,0
2641,-52.0,42.0,-237.0,0
2642,-51.0,38.0,-241.0,0
2643,-52.0,37.0,-242.0,0
2644,-54.0,38.0,-238.0,0
2645,-53.0,40.0,-238.0,0
2646,-52.0,36.0,-240.0,0
2647,-51.0,37.0,-236.0,0
2648,-50.0,40.0,-239.0,0
2649,-54.0,39.0,-241.0,0
2650,-51.0,39.0,-242.0,0
2651,-48.0,36.0,-241.0,0
2652,-55.0,39.0,-237.0,0
2653,-52.0,39.0,-238.0,0
2654,-51.0,38.0,-240.0,0
2655,-51.0,36.0,-239.0,0
2656,-53.0,39.0,-239.0,0
2657,-49.0,35.0,-237.0,0
2658,-52.0,38.0,-237.0,0
2659,-52.0,40.0,-238.0,0
2660,-50.0,36.0,-239.0,0
2661,-52.0,40.0,-242.0,0
2662,-53.0,36.0,-239.0,0
2663,-49.0,37.0,-239.0,0
2664,-51.0,38.0,-241.0,0
2665,-52.0,41.0,-244.0,0
2666,-52.0,38.0,-241.0,0
2667,-51.0,39.0,-236.0,0
2668,-51.0,39.0,-240.0,0
2669,-52.0,39.0,-238.0,0
2670,-51.0,39.0,-237.0,0
2671,-49.0,36.0,-238.0,0
2672,-52.0,36.0,-239.0,0
2673,-51.0,37.0,-241.0,0
2674,-53.0,40.0,-238.0,0
2675,-51.0,38.0,-239.0,0
2676,-53.0,37.0,-236.0,0
2677,-51.0,40.0,-239.0,0
2678,-50.0,37.0,-237.0,0
2679,-50.0,38.0,-237.0,0
2680,-50.0,40.0,-236.0,0
2681,-49.0,38.0,-238.0,0
2682,-51.0,36.0,-238.0,0
2683,-50.0,39.0,-242.0,0
2684,-50.0,38.0,-239.0,0
2685,-50.0,38.0,-237.0,0
2686,-51.0,39.0,-238.0,0
2687,-50.0,39.0,-237.0,0
2688,-51.0,39.0,-240.0,0
2689,-51.0,39.0,-240.0,0
2690,-52.0,37.0,-238.0,0
2691,-49.0,37.0,-241.0,0
2692,-51.0,40.0,-240.0,0
2693,-50.0,41.0,-236.0,0
2694,-53.0,36.0,-239.0,0
2695,-52.0,39.0,-238.0,0
2696,-52.0,39.0,-241.0,0
2697,-50.0,37.0,-238.0,0
2698,-51.0,38.0,-240.0,0
2699,-48.0,36.0,-240.0,0
2700,-49.0,37.0,-237.0,0
2701,-53.0,39.0,-239.0,0
2702,-52.0,39.0,-243.0,0
2703,-51.0,40.0,-240.0,0
2704,-52.0,38.0,-238.0,0
2705,-52.0,35.0,-237.0,0
2706,-52.0,38.0,-239.0,0
2707,-50.0,38.0,-240.0,0
2708,-52.0,42.0,-238.0,0
2709,-50.0,35.0,-241.0,0
2710,-53.0,39.0,-242.0,0
2711,-49.0,37.0,-239.0,0
2712,-49.0,39.0,-237.0,0
2713,-52.0,41.0,-236.0,0
2714,-53.0,39.0,-241.0,0
2715,-52.0,36.0,-238.0,0
2716,-50.0,38.0,-235.0,0
2717,-48.0,37.0,-241.0,0
2718,-50.0,39.0,-240.0,0
2719,-52.0,37.0,-240.0,0
2720,-47.0,38.0,-236.0,0
2721,-54.0,38.0,-236.0,0
2722,-52.0,40.0,-237.0,0
2723,-51.0,41.0,-236.0,0
2724,-51.0,36.0,-242.0,0
2725,-52.0,40.0,-238.0,0
2726,-51.0,40.0,-241.0,0
2727,-52.0,39.0,-240.0,0
2728,-52.0,40.0,-239.0,0
2729,-52.0,37.0,-235.0,0
2730,-49.0,40.0,-241.0,0
2731,-49.0,38.0,-238.0,0
2732,-49.0,34.0,-241.0,0
2733,-51.0,39.0,-238.0,0
2734,-49.0,40.0,-240.0,0
2735,-50.0,36.0,-239.0,0
2736,-49.0,39.0,-240.0,0
2737,-50.0,40.0,-236.0,0
2738,-50.0,39.0,-240.0,0
2739,-50.0,38.0,-237.0,0
2740,-48.0,38.0,-237.0,0
2741,-52.0,36.0,-240.0,0
2742,-52.0,37.0,-237.0,0
2743,-49.0,35.0,-238.0,0
2744,-47.0,36.0,-237.0,0
2745,-49.0,39.0,-240.0,0
2746,-48.0,36.0,-240.0,0
2747,-51.0,38.0,-239.0,0
2748,-50.0,41.0,-238.0,0
2749,-51.0,37.0,-238.0,0
2750,-49.0,40.0,-241.0,0
2751,-50.0,40.0,-241.0,0
2752,-51.0,39.0,-241.0,0
2753,-51.0,37.0,-235.0,0
2754,-49.0,38.0,-239.0,0
2755,-51.0,39.0,-243.0,0
2756,-49.0,39.0,-238.0,0
2757,-54.0,40.0,-235.0,0
2758,-50.0,35.0,-237.0,0
2759,-50.0,38.0,-238.0,0
2760,-49.0,39.0,-237.0,0
2761,-52.0,41.0,-238.0,0
2762,-52.0,40.0,-235.0,0
2763,-53.0,41.0,-239.0,0
2764,-51.0,42.0,-241.0,0
2765,-50.0,40.0,-238.0,0
2766,-51.0,37.0,-238.0,0
2767,-51.0,40.0,-239.0,0
2768,-51.0,43.0,-237.0,0
2769,-50.0,38.0,-240.0,0
2770,-51.0,39.0,-240.0,0
2771,-52.0,40.0,-240.0,0
2772,-51.0,41.0,-243.0,0
2773,-50.0,42.0,-241.0,0
2774,-51.0,39.0,-239.0,0
2775,-50.0,39.0,-236.0,0
2776,-48.0,41.0,-236.0,0
2777,-51.0,37.0,-237.0,0
2778,-49.0,40.0,-237.0,0
2779,-50.0,40.0,-236.0,0
2780,-49.0,39.0,-241.0,0
2781,-50.0,38.0,-238.0,0
2782,-50.0,36.0,-239.0,0
2783,-52.0,39.0,-238.0,0
2784,-51.0,39.0,-238.0,0
2785,-51.0,41.0,-236.0,0
2786,-49.0,39.0,-240.0,0
2787,-50.0,39.0,-237.0,0
2788,-51.0,38.0,-239.0,0
2789,-49.0,37.0,-239.0,0
2790,-50.0,36.0,-238.0,0
2791,-53.0,38.0,-238.0,0
2792,-51.0,41.0,-238.0,0
2793,-48.0,38.0,-237.0,0
2794,-50.0,37.0,-238.0,0
2795,-46.0,42.0,-238.0,0
2796,-51.0,38.0,-239.0,0
2797,-49.0,38.0,-239.0,0
2798,-52.0,39.0,-240.0,0
2799,-54.0,42.0,-240.0,0
2800,-52.0,41.0,-239.0,0
2801,-51.0,40.0,-239.0,0
2802,-51.0,39.0,-238.0,0
2803,-53.0,42.0,-238.0,0
2804,-50.0,39.0,-240.0,0
2805,-50.0,38.0,-245.0,0
2806,-53.0,42.0,-237.0,0
2807,-47.0,40.0,-239.0,0
2808,-51.0,40.0,-240.0,0
2809,-47.0,37.0,-239.0,0
2810,-51.0,42.0,-240.0,0
2811,-54.0,38.0,-241.0,0
2812,-48.0,39.0,-236.0,0
2813,-49.0,39.0,-236.0,0
2814,-50.0,37.0,-238.0,0
2815,-47.0,37.0,-238.0,0
2816,-50.0,38.0,-238.0,0
2817,-52.0,41.0,-234.0,0
2818,-51.0,40.0,-233.0,0
2819,-48.0,38.0,-241.0,0
2820,-53.0,40.0,-239.0,0
2821,-48.0,40.0,-236.0,0
2822,-50.0,40.0,-239.0,0
2823,-52.0,39.0,-237.0,0
2824,-49.0,39.0,-239.0,0
2825,-51.0,38.0,-241.0,0
2826,-48.0,39.0,-240.0,0
2827,-48.0,37.0,-238.0,0
2828,-48.0,36.0,-240.0,0
2829,-49.0,36.0,-225.0,0
2830,-50.0,40.0,-238.0,0
2831,-50.0,41.0,-240.0,0
2832,-50.0,39.0,-239.0,0
2833,-49.0,41.0,-241.0,0
2834,-51.0,38.0,-238.0,0
2835,-52.0,42.0,-240.0,0
2836,-50.0,39.0,-239.0,0
2837,-50.0,39.0,-237.0,0
2838,-51.0,40.0,-239.0,0
2839,-50.0,41.0,-240.0,0
2840,-51.0,37.0,-240.0,0
2841,-50.0,40.0,-237.0,0
2842,-49.0,38.0,-238.0,0
2843,-50.0,42.0,-241.0,0
2844,-51.0,39.0,-238.0,0
2845,-50.0,42.0,-239.0,0
2846,-50.0,39.0,-239.0,0
2847,-52.0,36.0,-243.0,0
2848,-53.0,42.0,-240.0,0
2849,-50.0,40.0,-240.0,0
2850,-51.0,39.0,-242.0,0
2851,-50.0,39.0,-241.0,0
2852,-52.0,37.0,-238.0,0
2853,-52.0,39.0,-236.0,0
2854,-51.0,39.0,-239.0,0
2855,-49.0,39.0,-239.0,0
2856,-49.0,41.0,-235.0,0
2857,-51.0,39.0,-240.0,0
2858,-49.0,38.0,-239.0,0
2859,-50.0,40.0,-241.0,0
2860,-51.0,40.0,-238.0,0
2861,-50.0,38.0,-241.0,0
2862,-50.0,37.0,-240.0,0
2863,-48.0,38.0,-240.0,0
2864,-50.0,38.0,-243.0,0
2865,-49.0,41.0,-240.0,0
2866,-53.0,38.0,-240.0,0
2867,-52.0,38.0,-241.0,0
2868,-51.0,40.0,-238.0,0
2869,-50.0,34.0,-235.0,0
2870,-52.0,43.0,-239.0,0
2871,-51.0,41.0,-238.0,0
2872,-49.0,39.0,-240.0,0
2873,-48.0,37.0,-242.0,0
2874,-50.0,37.0,-242.0,0
2875,-54.0,40.0,-238.0,0
2876,-51.0,35.0,-237.0,0
2877,-52.0,40.0,-243.0,0
2878,-52.0,40.0,-237.0,0
2879,-52.0,38.0,-240.0,0
2880,-49.0,38.0,-242.0,0
2881,-53.0,41.0,-240.0,0
2882,-51.0,35.0,-241.0,0
2883,-52.0,38.0,-241.0,0
2884,-51.0,36.0,-238.0,0
2885,-49.0,39.0,-238.0,0
2886,-52.0,43.0,-239.0,0
2887,-53.0,39.0,-237.0,0
2888,-54.0,41.0,-237.0,0
2889,-50.0,40.0,-235.0,0
2890,-51.0,40.0,-241.0,0
2891,-49.0,37.0,-238.0,0
2892,-51.0,37.0,-238.0,0
2893,-51.0,40.0,-237.0,0
2894,-52.0,39.0,-240.0,0
2895,-49.0,40.0,-240.0,0
2896,-50.0,41.0,-241.0,0
2897,-53.0,40.0,-239.0,0
2898,-48.0,39.0,-238.0,0
2899,-49.0,36.0,-238.0,0
2900,-50.0,38.0,-237.0,0
2901,-52.0,40.0,-237.0,0
2902,-51.0,40.0,-240.0,0
2903,-51.0,36.0,-240.0,0
2904,-49.0,39.0,-239.0,0
2905,-49.0,38.0,-241.0,0
2906,-48.0,38.0,-238.0,0
2907,-54.0,37.0,-240.0,0
2908,-51.0,38.0,-240.0,0
2909,-51.0,38.0,-236.0,0
2910,-50.0,40.0,-241.0,0
2911,-51.0,37.0,-241.0,0
2912,-51.0,40.0,-241.0,0
2913,-49.0,38.0,-240.0,0
2914,-48.0,38.0,-238.0,0
2915,-52.0,39.0,-240.0,0
2916,-48.0,37.0,-238.0,0
2917,-51.0,40.0,-240.0,0
2918,-52.0,36.0,-240.0,0
2919,-53.0,40.0,-241.0,0
2920,-52.0,38.0,-238.0,0
2921,-50.0,38.0,-240.0,0
2922,-51.0,37.0,-238.0,0
2923,-49.0,36.0,-239.0,0
2924,-50.0,39.0,-241.0,0
2925,-49.0,39.0,-237.0,0
2926,-51.0,39.0,-242.0,0
2927,-49.0,38.0,-241.0,0
2928,-53.0,37.0,-240.0,0
2929,-48.0,37.0,-241.0,0
2930,-53.0,39.0,-238.0,0
2931,-52.0,39.0,-240.0,0
2932,-50.0,35.0,-242.0,0
2933,-52.0,37.0,-242.0,0
2934,-51.0,39.0,-237.0,0
2935,-53.0,37.0,-242.0,0
2936,-50.0,34.0,-242.0,0
2937,-50.0,35.0,-239.0,0
2938,-51.0,40.0,-236.0,0
2939,-52.0,38.0,-237.0,0
2940,-51.0,38.0,-239.0,0
2941,-51.0,35.0,-238.0,0
2942,-48.0,36.0,-243.0,0
2943,-50.0,37.0,-241.0,0
2944,-52.0,37.0,-235.0,0
2945,-51.0,38.0,-239.0,0
2946,-51.0,36.0,-241.0,0
2947,-49.0,38.0,-240.0,0
2948,-54.0,37.0,-239.0,0
2949,-51.0,40.0,-238.0,0
2950,-51.0,38.0,-238.0,0
2951,-51.0,37.0,-238.0,0
2952,-53.0,40.0,-238.0,0
2953,-53.0,40.0,-236.0,0
2954,-52.0,37.0,-238.0,0
2955,-50.0,35.0,-240.0,0
2956,-48.0,38.0,-240.0,0
2957,-49.0,41.0,-242.0,0
2958,-53.0,36.0,-240.0,0
2959,-52.0,38.0,-240.0,0
2960,-49.0,40.0,-239.0,0
2961,-50.0,37.0,-239.0,0
2962,-52.0,34.0,-242.0,0
2963,-49.0,39.0,-241.0,0
2964,-52.0,40.0,-237.0,0
2965,-48.0,35.0,-236.0,0
2966,-52.0,37.0,-237.0,0
2967,-51.0,40.0,-239.0,0
2968,-48.0,37.0,-242.0,0
2969,-50.0,40.0,-240.0,0
2970,-50.0,41.0,-241.0,0
2971,-52.0,34.0,-240.0,0
2972,-51.0,38.0,-239.0,0
2973,-51.0,39.0,-236.0,0
2974,-53.0,42.0,-238.0,0
2975,-52.0,36.0,-238.0,0
2976,-49.0,40.0,-241.0,0
2977,-51.0,39.0,-238.0,0
2978,-52.0,37.0,-236.0,0
2979,-50.0,38.0,-244.0,0
2980,-52.0,35.0,-238.0,0
2981,-50.0,38.0,-240.0,0
2982,-52.0,38.0,-243.0,0
2983,-50.0,40.0,-241.0,0
2984,-51.0,39.0,-242.0,0
2985,-52.0,39.0,-242.0,0
2986,-47.0,38.0,-242.0,0
2987,-51.0,37.0,-239.0,0
2988,-52.0,36.0,-237.0,0
2989,-50.0,38.0,-236.0,0
2990,-52.0,40.0,-240.0,0
2991,-52.0,38.0,-237.0,0
2992,-48.0,40.0,-243.0,0
2993,-50.0,39.0,-241.0,0
2994,-51.0,36.0,-241.0,0
2995,-50.0,37.0,-239.0,0
2996,-52.0,37.0,-236.0,0
2997,-51.0,38.0,-242.0,0
2998,-54.0,38.0,-241.0,0
2999,-54.0,37.0,-239.0,0
