,accelerometer_x,accelerometer_y,accelerometer_z,fall
0,-4.0,-220.0,-135.0,0
1,-5.0,-218.0,-135.0,0
2,-7.0,-218.0,-135.0,0
3,-7.0,-218.0,-138.0,0
4,-3.0,-221.0,-135.0,0
5,-6.0,-218.0,-131.0,0
6,-6.0,-218.0,-133.0,0
7,-7.0,-220.0,-135.0,0
8,-6.0,-220.0,-135.0,0
9,-8.0,-220.0,-134.0,0
10,-5.0,-221.0,-135.0,0
11,-3.0,-218.0,-138.0,0
12,-5.0,-221.0,-133.0,0
13,-7.0,-221.0,-134.0,0
14,-7.0,-218.0,-136.0,0
15,-8.0,-220.0,-133.0,0
16,-2.0,-220.0,-134.0,0
17,-5.0,-222.0,-134.0,0
18,-14.0,-222.0,-133.0,0
19,-6.0,-220.0,-134.0,0
20,-7.0,-221.0,-136.0,0
21,-3.0,-219.0,-137.0,0
22,-5.0,-217.0,-137.0,0
23,-6.0,-221.0,-136.0,0
24,-5.0,-219.0,-131.0,0
25,-5.0,-221.0,-135.0,0
26,3.0,-213.0,-128.0,0
27,-7.0,-220.0,-135.0,0
28,-7.0,-218.0,-135.0,0
29,-6.0,-219.0,-134.0,0
30,-3.0,-221.0,-135.0,0
31,-8.0,-220.0,-134.0,0
32,-7.0,-218.0,-136.0,0
33,-3.0,-218.0,-136.0,0
34,-2.0,-221.0,-135.0,0
35,-2.0,-221.0,-137.0,0
36,-5.0,-219.0,-131.0,0
37,-7.0,-220.0,-135.0,0
38,-3.0,-219.0,-137.0,0
39,-4.0,-219.0,-139.0,0
40,-3.0,-219.0,-137.0,0
41,-6.0,-219.0,-135.0,0
42,-2.0,-220.0,-136.0,0
43,-1.0,-222.0,-138.0,0
44,-4.0,-221.0,-136.0,0
45,-3.0,-220.0,-134.0,0
46,-4.0,-216.0,-136.0,0
47,-5.0,-218.0,-134.0,0
48,-4.0,-218.0,-134.0,0
49,-5.0,-218.0,-136.0,0
50,-8.0,-215.0,-134.0,0
51,-6.0,-218.0,-134.0,0
52,-3.0,-223.0,-134.0,0
53,-5.0,-219.0,-136.0,0
54,-2.0,-219.0,-137.0,0
55,-6.0,-217.0,-137.0,0
56,-9.0,-218.0,-134.0,0
57,-9.0,-219.0,-135.0,0
58,-9.0,-219.0,-135.0,0
59,-5.0,-218.0,-135.0,0
60,-3.0,-221.0,-134.0,0
61,-3.0,-220.0,-139.0,0
62,-6.0,-220.0,-139.0,0
63,-5.0,-217.0,-138.0,0
64,-5.0,-220.0,-135.0,0
65,-2.0,-222.0,-134.0,0
66,-7.0,-218.0,-138.0,0
67,-8.0,-218.0,-137.0,0
68,-4.0,-221.0,-136.0,0
69,-9.0,-219.0,-137.0,0
70,-4.0,-218.0,-137.0,0
71,-4.0,-219.0,-136.0,0
72,-6.0,-219.0,-134.0,0
73,-3.0,-218.0,-138.0,0
74,-6.0,-220.0,-137.0,0
75,-2.0,-219.0,-135.0,0
76,-6.0,-217.0,-131.0,0
77,-5.0,-220.0,-135.0,0
78,-6.0,-220.0,-134.0,0
79,-4.0,-221.0,-133.0,0
80,-4.0,-218.0,-134.0,0
81,-6.0,-218.0,-134.0,0
82,-1.0,-219.0,-136.0,0
83,-5.0,-217.0,-135.0,0
84,-5.0,-220.0,-133.0,0
85,-5.0,-219.0,-136.0,0
86,-7.0,-218.0,-134.0,0
87,-7.0,-221.0,-135.0,0
88,-5.0,-217.0,-135.0,0
89,-5.0,-218.0,-130.0,0
90,-6.0,-222.0,-132.0,0
91,-8.0,-218.0,-137.0,0
92,-7.0,-218.0,-136.0,0
93,-8.0,-218.0,-133.0,0
94,-3.0,-219.0,-134.0,0
95,-9.0,-219.0,-136.0,0
96,-6.0,-218.0,-140.0,0
97,-6.0,-220.0,-138.0,0
98,-6.0,-217.0,-137.0,0
99,-5.0,-220.0,-137.0,0
100,-5.0,-219.0,-138.0,0
101,-8.0,-215.0,-139.0,0
102,-7.0,-219.0,-135.0,0
103,-6.0,-219.0,-137.0,0
104,-4.0,-219.0,-140.0,0
105,-6.0,-216.0,-140.0,0
106,-6.0,-220.0,-140.0,0
107,-2.0,-219.0,-140.0,0
108,-2.0,-218.0,-137.0,0
109,-10.0,-215.0,-136.0,0
110,-7.0,-218.0,-138.0,0
111,-3.0,-218.0,-136.0,0
112,-6.0,-217.0,-137.0,0
113,-5.0,-222.0,-139.0,0
114,-6.0,-219.0,-139.0,0
115,-3.0,-217.0,-140.0,0
116,-9.0,-218.0,-139.0,0
117,-2.0,-218.0,-137.0,0
118,-5.0,-219.0,-137.0,0
119,-5.0,-216.0,-133.0,0
120,-7.0,-220.0,-138.0,0
121,-9.0,-216.0,-141.0,0
122,-9.0,-217.0,-137.0,0
123,-9.0,-220.0,-139.0,0
124,-7.0,-217.0,-135.0,0
125,-4.0,-218.0,-137.0,0
126,-9.0,-215.0,-137.0,0
127,-9.0,-217.0,-140.0,0
128,-3.0,-217.0,-137.0,0
129,-3.0,-216.0,-138.0,0
130,-6.0,-216.0,-138.0,0
131,-6.0,-217.0,-138.0,0
132,-4.0,-216.0,-139.0,0
133,-9.0,-217.0,-140.0,0
134,-6.0,-217.0,-137.0,0
135,-6.0,-215.0,-140.0,0
136,-7.0,-215.0,-138.0,0
137,-4.0,-218.0,-138.0,0
138,-5.0,-219.0,-138.0,0
139,-7.0,-218.0,-139.0,0
140,-2.0,-218.0,-140.0,0
141,-3.0,-220.0,-140.0,0
142,-5.0,-219.0,-137.0,0
143,-6.0,-214.0,-137.0,0
144,-7.0,-217.0,-141.0,0
145,-10.0,-214.0,-135.0,0
146,-6.0,-215.0,-140.0,0
147,-6.0,-217.0,-143.0,0
148,-11.0,-217.0,-141.0,0
149,-4.0,-217.0,-138.0,0
150,-5.0,-218.0,-137.0,0
151,-5.0,-220.0,-140.0,0
152,-2.0,-218.0,-140.0,0
153,-8.0,-219.0,-138.0,0
154,-4.0,-216.0,-140.0,0
155,-6.0,-217.0,-143.0,0
156,-6.0,-219.0,-139.0,0
157,-7.0,-209.0,-134.0,0
158,-6.0,-215.0,-140.0,0
159,-4.0,-216.0,-137.0,0
160,-2.0,-218.0,-137.0,0
161,-6.0,-217.0,-137.0,0
162,-7.0,-214.0,-135.0,0
163,-6.0,-213.0,-138.0,0
164,-7.0,-214.0,-136.0,0
165,-7.0,-213.0,-138.0,0
166,-4.0,-216.0,-139.0,0
167,-3.0,-217.0,-140.0,0
168,-5.0,-215.0,-138.0,0
169,-4.0,-217.0,-138.0,0
170,-5.0,-216.0,-141.0,0
171,-8.0,-215.0,-137.0,0
172,-7.0,-217.0,-138.0,0
173,-6.0,-217.0,-137.0,0
174,-3.0,-219.0,-138.0,0
175,-7.0,-218.0,-138.0,0
176,-10.0,-216.0,-140.0,0
177,-3.0,-215.0,-138.0,0
178,-2.0,-217.0,-142.0,0
179,-7.0,-216.0,-143.0,0
180,-5.0,-218.0,-142.0,0
181,-4.0,-218.0,-138.0,0
182,-2.0,-217.0,-139.0,0
183,-6.0,-214.0,-135.0,0
184,-4.0,-217.0,-139.0,0
185,-7.0,-217.0,-138.0,0
186,-7.0,-220.0,-138.0,0
187,-8.0,-217.0,-137.0,0
188,-4.0,-217.0,-138.0,0
189,-4.0,-211.0,-142.0,0
190,-5.0,-218.0,-140.0,0
191,-5.0,-218.0,-140.0,0
192,-5.0,-217.0,-141.0,0
193,-7.0,-214.0,-143.0,0
194,-7.0,-216.0,-142.0,0
195,-6.0,-216.0,-138.0,0
196,-8.0,-215.0,-140.0,0
197,-5.0,-216.0,-143.0,0
198,-9.0,-216.0,-141.0,0
199,-6.0,-216.0,-141.0,0
200,-6.0,-218.0,-140.0,0
201,-12.0,-222.0,-140.0,0
202,-2.0,-220.0,-142.0,0
203,-8.0,-216.0,-140.0,0
204,-5.0,-219.0,-138.0,0
205,-7.0,-217.0,-140.0,0
206,-5.0,-215.0,-142.0,0
207,-5.0,-217.0,-137.0,0
208,-6.0,-214.0,-139.0,0
209,-7.0,-215.0,-141.0,0
210,-2.0,-215.0,-141.0,0
211,-5.0,-217.0,-144.0,0
212,-9.0,-215.0,-142.0,0
213,-4.0,-215.0,-142.0,0
214,-7.0,-219.0,-140.0,0
215,-5.0,-217.0,-139.0,0
216,-3.0,-218.0,-141.0,0
217,-7.0,-215.0,-142.0,0
218,-4.0,-216.0,-141.0,0
219,-6.0,-213.0,-141.0,0
220,-7.0,-218.0,-139.0,0
221,-7.0,-216.0,-140.0,0
222,-7.0,-215.0,-137.0,0
223,-7.0,-215.0,-140.0,0
224,-8.0,-215.0,-141.0,0
225,-8.0,-217.0,-138.0,0
226,-5.0,-218.0,-139.0,0
227,-4.0,-216.0,-140.0,0
228,-7.0,-214.0,-141.0,0
229,-7.0,-218.0,-140.0,0
230,-9.0,-215.0,-136.0,0
231,-6.0,-218.0,-138.0,0
232,-4.0,-217.0,-139.0,0
233,-6.0,-219.0,-139.0,0
234,-4.0,-216.0,-143.0,0
235,-8.0,-213.0,-137.0,0
236,-8.0,-217.0,-139.0,0
237,-3.0,-219.0,-140.0,0
238,-6.0,-217.0,-141.0,0
239,-7.0,-215.0,-141.0,0
240,-3.0,-219.0,-140.0,0
241,-4.0,-217.0,-139.0,0
242,-2.0,-215.0,-138.0,0
243,2.0,-214.0,-141.0,0
244,-6.0,-215.0,-139.0,0
245,-3.0,-218.0,-140.0,0
246,-7.0,-214.0,-138.0,0
247,-4.0,-220.0,-139.0,0
248,-7.0,-217.0,-140.0,0
249,-3.0,-214.0,-140.0,0
250,-4.0,-218.0,-138.0,0
251,-6.0,-218.0,-141.0,0
252,-7.0,-217.0,-142.0,0
253,-2.0,-219.0,-137.0,0
254,-5.0,-216.0,-139.0,0
255,-7.0,-220.0,-140.0,0
256,-6.0,-217.0,-137.0,0
257,-7.0,-217.0,-141.0,0
258,-3.0,-218.0,-139.0,0
259,-6.0,-218.0,-139.0,0
260,-4.0,-218.0,-140.0,0
261,-5.0,-220.0,-141.0,0
262,-5.0,-214.0,-139.0,0
263,-5.0,-217.0,-138.0,0
264,-5.0,-216.0,-140.0,0
265,-4.0,-217.0,-138.0,0
266,-6.0,-212.0,-134.0,0
267,-7.0,-217.0,-138.0,0
268,-3.0,-217.0,-142.0,0
269,-6.0,-218.0,-138.0,0
270,-5.0,-215.0,-138.0,0
271,-6.0,-215.0,-138.0,0
272,-5.0,-216.0,-139.0,0
273,-6.0,-214.0,-140.0,0
274,-7.0,-216.0,-134.0,0
275,-2.0,-217.0,-138.0,0
276,-8.0,-217.0,-143.0,0
277,-5.0,-209.0,-139.0,0
278,-7.0,-216.0,-141.0,0
279,-6.0,-218.0,-134.0,0
280,-3.0,-217.0,-139.0,0
281,-5.0,-217.0,-139.0,0
282,-4.0,-218.0,-140.0,0
283,-6.0,-217.0,-142.0,0
284,-6.0,-217.0,-139.0,0
285,-5.0,-215.0,-138.0,0
286,-6.0,-214.0,-139.0,0
287,-2.0,-219.0,-139.0,0
288,-12.0,-223.0,-131.0,0
289,-7.0,-217.0,-137.0,0
290,-2.0,-219.0,-139.0,0
291,-7.0,-215.0,-136.0,0
292,-4.0,-220.0,-140.0,0
293,-8.0,-217.0,-140.0,0
294,-4.0,-217.0,-140.0,0
295,-5.0,-218.0,-139.0,0
296,-5.0,-216.0,-140.0,0
297,-8.0,-219.0,-139.0,0
298,-4.0,-217.0,-140.0,0
299,-7.0,-217.0,-135.0,0
300,-6.0,-214.0,-140.0,0
301,-3.0,-218.0,-140.0,0
302,-5.0,-215.0,-141.0,0
303,-5.0,-217.0,-138.0,0
304,-3.0,-217.0,-141.0,0
305,-6.0,-219.0,-137.0,0
306,-6.0,-215.0,-142.0,0
307,-3.0,-221.0,-143.0,0
308,-8.0,-219.0,-139.0,0
309,-5.0,-217.0,-136.0,0
310,-2.0,-209.0,-134.0,0
311,-4.0,-219.0,-138.0,0
312,-7.0,-218.0,-142.0,0
313,-9.0,-216.0,-137.0,0
314,-5.0,-215.0,-139.0,0
315,-3.0,-214.0,-142.0,0
316,-6.0,-220.0,-135.0,0
317,-6.0,-219.0,-137.0,0
318,-6.0,-218.0,-140.0,0
319,-3.0,-216.0,-138.0,0
320,-6.0,-216.0,-143.0,0
321,-1.0,-222.0,-143.0,0
322,-4.0,-219.0,-136.0,0
323,-8.0,-217.0,-136.0,0
324,-6.0,-215.0,-138.0,0
325,-8.0,-217.0,-142.0,0
326,-6.0,-217.0,-139.0,0
327,-7.0,-217.0,-138.0,0
328,-4.0,-213.0,-139.0,0
329,-6.0,-217.0,-144.0,0
330,-5.0,-217.0,-136.0,0
331,-9.0,-212.0,-138.0,0
332,-3.0,-215.0,-137.0,0
333,-5.0,-217.0,-137.0,0
334,-6.0,-218.0,-139.0,0
335,-8.0,-217.0,-135.0,0
336,-5.0,-217.0,-139.0,0
337,-4.0,-221.0,-139.0,0
338,-6.0,-216.0,-136.0,0
339,-7.0,-221.0,-137.0,0
340,-8.0,-219.0,-139.0,0
341,-7.0,-215.0,-135.0,0
342,-7.0,-220.0,-136.0,0
343,-8.0,-218.0,-135.0,0
344,-3.0,-218.0,-136.0,0
345,-4.0,-217.0,-138.0,0
346,-3.0,-218.0,-138.0,0
347,-2.0,-217.0,-139.0,0
348,-5.0,-214.0,-141.0,0
349,-6.0,-220.0,-141.0,0
350,-8.0,-216.0,-137.0,0
351,-6.0,-217.0,-141.0,0
352,-2.0,-218.0,-139.0,0
353,-3.0,-218.0,-141.0,0
354,-7.0,-215.0,-140.0,0
355,-7.0,-216.0,-143.0,0
356,-3.0,-218.0,-139.0,0
357,-7.0,-216.0,-143.0,0
358,-6.0,-216.0,-139.0,0
359,-6.0,-216.0,-142.0,0
360,-5.0,-215.0,-143.0,0
361,-12.0,-214.0,-141.0,0
362,-7.0,-218.0,-140.0,0
363,-7.0,-214.0,-144.0,0
364,-7.0,-217.0,-146.0,0
365,-8.0,-217.0,-142.0,0
366,-7.0,-215.0,-143.0,0
367,-8.0,-217.0,-144.0,0
368,-2.0,-219.0,-141.0,0
369,-6.0,-216.0,-142.0,0
370,-3.0,-213.0,-140.0,0
371,-7.0,-217.0,-138.0,0
372,-2.0,-216.0,-143.0,0
373,-6.0,-217.0,-138.0,0
374,-1.0,-215.0,-139.0,0
375,-5.0,-218.0,-135.0,0
376,-5.0,-217.0,-136.0,0
377,-7.0,-220.0,-137.0,0
378,-6.0,-218.0,-133.0,0
379,-4.0,-215.0,-134.0,0
380,-4.0,-216.0,-138.0,0
381,-5.0,-217.0,-139.0,0
382,0.0,-218.0,-140.0,0
383,-2.0,-219.0,-140.0,0
384,0.0,-220.0,-143.0,0
385,0.0,-216.0,-143.0,0
386,0.0,-219.0,-144.0,0
387,1.0,-217.0,-138.0,0
388,0.0,-215.0,-143.0,0
389,-3.0,-215.0,-139.0,0
390,-2.0,-216.0,-141.0,0
391,-6.0,-213.0,-144.0,0
392,-2.0,-218.0,-140.0,0
393,-4.0,-217.0,-140.0,0
394,-2.0,-219.0,-141.0,0
395,-4.0,-216.0,-138.0,0
396,-7.0,-218.0,-139.0,0
397,-2.0,-220.0,-145.0,0
398,-7.0,-220.0,-138.0,0
399,-9.0,-216.0,-138.0,0
400,-10.0,-215.0,-131.0,0
401,-7.0,-218.0,-133.0,0
402,-10.0,-217.0,-133.0,0
403,-10.0,-214.0,-135.0,0
404,-9.0,-212.0,-134.0,0
405,-9.0,-210.0,-137.0,0
406,-6.0,-216.0,-136.0,0
407,0.0,-216.0,-139.0,0
408,-5.0,-217.0,-133.0,0
409,-2.0,-217.0,-135.0,0
410,-5.0,-221.0,-130.0,0
411,-3.0,-220.0,-128.0,0
412,-2.0,-217.0,-128.0,0
413,-7.0,-220.0,-125.0,0
414,-7.0,-216.0,-129.0,0
415,-7.0,-217.0,-130.0,0
416,-9.0,-219.0,-132.0,0
417,-10.0,-217.0,-132.0,0
418,-9.0,-221.0,-134.0,0
419,-10.0,-219.0,-132.0,0
420,-11.0,-220.0,-133.0,0
421,-10.0,-217.0,-130.0,0
422,-13.0,-219.0,-135.0,0
423,-11.0,-218.0,-136.0,0
424,-13.0,-216.0,-137.0,0
425,-14.0,-216.0,-142.0,0
426,-14.0,-215.0,-137.0,0
427,-13.0,-215.0,-141.0,0
428,-15.0,-219.0,-146.0,0
429,-11.0,-217.0,-142.0,0
430,-15.0,-217.0,-139.0,0
431,-14.0,-218.0,-141.0,0
432,-15.0,-216.0,-144.0,0
433,-15.0,-217.0,-141.0,0
434,-16.0,-218.0,-140.0,0
435,-17.0,-215.0,-140.0,0
436,-14.0,-216.0,-139.0,0
437,-15.0,-215.0,-137.0,0
438,-15.0,-215.0,-138.0,0
439,-15.0,-215.0,-136.0,0
440,-17.0,-210.0,-140.0,0
441,-15.0,-213.0,-139.0,0
442,-14.0,-212.0,-138.0,0
443,-17.0,-211.0,-138.0,0
444,-18.0,-209.0,-143.0,0
445,-17.0,-211.0,-140.0,0
446,-19.0,-212.0,-140.0,0
447,-21.0,-210.0,-141.0,0
448,-22.0,-214.0,-145.0,0
449,-22.0,-215.0,-146.0,0
450,-20.0,-212.0,-146.0,0
451,-22.0,-212.0,-147.0,0
452,-24.0,-210.0,-148.0,0
453,-26.0,-211.0,-149.0,0
454,-29.0,-209.0,-149.0,0
455,-27.0,-209.0,-148.0,0
456,-34.0,-208.0,-150.0,0
457,-34.0,-210.0,-150.0,0
458,-34.0,-211.0,-150.0,0
459,-36.0,-209.0,-147.0,0
460,-36.0,-210.0,-150.0,0
461,-42.0,-209.0,-149.0,0
462,-38.0,-213.0,-151.0,0
463,-42.0,-213.0,-148.0,0
464,-42.0,-210.0,-150.0,0
465,-45.0,-213.0,-149.0,0
466,-47.0,-211.0,-148.0,0
467,-45.0,-210.0,-144.0,0
468,-52.0,-210.0,-147.0,0
469,-52.0,-210.0,-147.0,0
470,-50.0,-211.0,-147.0,0
471,-53.0,-209.0,-146.0,0
472,-55.0,-207.0,-147.0,0
473,-59.0,-203.0,-146.0,0
474,-61.0,-201.0,-145.0,0
475,-57.0,-199.0,-147.0,0
476,-63.0,-200.0,-145.0,0
477,-64.0,-196.0,-150.0,0
478,-64.0,-196.0,-148.0,0
479,-65.0,-199.0,-144.0,0
480,-67.0,-199.0,-144.0,0
481,-70.0,-196.0,-146.0,0
482,-68.0,-199.0,-146.0,0
483,-69.0,-194.0,-145.0,0
484,-74.0,-193.0,-141.0,0
485,-76.0,-194.0,-146.0,0
486,-77.0,-191.0,-144.0,0
487,-76.0,-191.0,-143.0,0
488,-75.0,-193.0,-146.0,0
489,-79.0,-188.0,-147.0,0
490,-77.0,-192.0,-149.0,0
491,-80.0,-192.0,-147.0,0
492,-80.0,-192.0,-146.0,0
493,-81.0,-189.0,-146.0,0
494,-80.0,-193.0,-149.0,0
495,-82.0,-193.0,-146.0,0
496,-83.0,-190.0,-147.0,0
497,-81.0,-188.0,-148.0,0
498,-84.0,-188.0,-148.0,0
499,-85.0,-190.0,-148.0,0
500,-83.0,-188.0,-148.0,0
501,-84.0,-186.0,-149.0,0
502,-81.0,-186.0,-148.0,0
503,-84.0,-186.0,-146.0,0
504,-84.0,-185.0,-148.0,0
505,-88.0,-186.0,-147.0,0
506,-83.0,-187.0,-150.0,0
507,-88.0,-187.0,-149.0,0
508,-86.0,-187.0,-152.0,0
509,-88.0,-185.0,-153.0,0
510,-90.0,-184.0,-153.0,0
511,-93.0,-184.0,-153.0,0
512,-92.0,-183.0,-151.0,0
513,-94.0,-183.0,-150.0,0
514,-92.0,-183.0,-152.0,0
515,-95.0,-180.0,-150.0,0
516,-96.0,-181.0,-152.0,0
517,-92.0,-180.0,-151.0,0
518,-96.0,-179.0,-148.0,0
519,-98.0,-180.0,-147.0,0
520,-96.0,-181.0,-151.0,0
521,-95.0,-178.0,-149.0,0
522,-102.0,-177.0,-151.0,0
523,-99.0,-178.0,-149.0,0
524,-102.0,-177.0,-150.0,0
525,-101.0,-178.0,-152.0,0
526,-105.0,-178.0,-153.0,0
527,-104.0,-178.0,-151.0,0
528,-101.0,-179.0,-156.0,0
529,-101.0,-175.0,-154.0,0
530,-103.0,-174.0,-157.0,0
531,-101.0,-181.0,-157.0,0
532,-101.0,-180.0,-158.0,0
533,-99.0,-175.0,-155.0,0
534,-96.0,-176.0,-157.0,0
535,-101.0,-176.0,-154.0,0
536,-100.0,-175.0,-161.0,0
537,-99.0,-178.0,-158.0,0
538,-103.0,-172.0,-156.0,0
539,-105.0,-172.0,-158.0,0
540,-104.0,-172.0,-159.0,0
541,-107.0,-172.0,-156.0,0
542,-107.0,-169.0,-154.0,0
543,-113.0,-170.0,-157.0,0
544,-112.0,-166.0,-159.0,0
545,-116.0,-164.0,-159.0,0
546,-115.0,-161.0,-158.0,0
547,-118.0,-165.0,-162.0,0
548,-121.0,-162.0,-161.0,0
549,-122.0,-160.0,-161.0,0
550,-123.0,-156.0,-163.0,0
551,-122.0,-155.0,-162.0,0
552,-125.0,-154.0,-168.0,0
553,-123.0,-152.0,-166.0,0
554,-120.0,-153.0,-168.0,0
555,-121.0,-154.0,-169.0,0
556,-121.0,-153.0,-170.0,0
557,-125.0,-152.0,-171.0,0
558,-125.0,-148.0,-166.0,0
559,-129.0,-152.0,-173.0,0
560,-126.0,-147.0,-168.0,0
561,-126.0,-148.0,-166.0,0
562,-128.0,-143.0,-168.0,0
563,-127.0,-146.0,-167.0,0
564,-130.0,-143.0,-169.0,0
565,-132.0,-139.0,-171.0,0
566,-133.0,-138.0,-173.0,0
567,-132.0,-136.0,-169.0,0
568,-136.0,-135.0,-172.0,0
569,-140.0,-136.0,-174.0,0
570,-141.0,-135.0,-175.0,0
571,-140.0,-133.0,-170.0,0
572,-142.0,-131.0,-170.0,0
573,-145.0,-130.0,-173.0,0
574,-140.0,-129.0,-169.0,0
575,-143.0,-128.0,-171.0,0
576,-139.0,-129.0,-167.0,0
577,-143.0,-129.0,-171.0,0
578,-144.0,-127.0,-169.0,0
579,-146.0,-127.0,-167.0,0
580,-144.0,-126.0,-170.0,0
581,-146.0,-124.0,-168.0,0
582,-140.0,-124.0,-171.0,0
583,-142.0,-124.0,-169.0,0
584,-143.0,-120.0,-173.0,0
585,-145.0,-125.0,-168.0,0
586,-144.0,-122.0,-166.0,0
587,-145.0,-122.0,-168.0,0
588,-145.0,-120.0,-170.0,0
589,-144.0,-121.0,-172.0,0
590,-146.0,-124.0,-172.0,0
591,-148.0,-118.0,-173.0,0
592,-153.0,-113.0,-171.0,0
593,-156.0,-110.0,-177.0,0
594,-149.0,-114.0,-171.0,0
595,-151.0,-113.0,-167.0,0
596,-156.0,-106.0,-173.0,0
597,-152.0,-107.0,-171.0,0
598,-159.0,-105.0,-171.0,0
599,-160.0,-102.0,-177.0,0
600,-160.0,-102.0,-171.0,0
601,-163.0,-100.0,-171.0,0
602,-160.0,-99.0,-172.0,0
603,-162.0,-93.0,-173.0,0
604,-163.0,-98.0,-169.0,0
605,-162.0,-95.0,-166.0,0
606,-161.0,-96.0,-169.0,0
607,-165.0,-94.0,-170.0,0
608,-167.0,-91.0,-170.0,0
609,-166.0,-94.0,-172.0,0
610,-171.0,-92.0,-169.0,0
611,-168.0,-92.0,-167.0,0
612,-171.0,-80.0,-171.0,0
613,-168.0,-91.0,-170.0,0
614,-177.0,-89.0,-170.0,0
615,-167.0,-85.0,-175.0,0
616,-176.0,-71.0,-176.0,0
617,-166.0,-84.0,-177.0,0
618,-186.0,-72.0,-184.0,0
619,-181.0,-68.0,-174.0,0
620,-188.0,-69.0,-175.0,0
621,-184.0,-60.0,-174.0,0
622,-186.0,-60.0,-169.0,0
623,-191.0,-60.0,-170.0,0
624,-191.0,-49.0,-170.0,0
625,-186.0,-49.0,-170.0,0
626,-191.0,-48.0,-171.0,0
627,-191.0,-50.0,-168.0,0
628,-190.0,-49.0,-167.0,0
629,-191.0,-48.0,-167.0,0
630,-190.0,-52.0,-169.0,0
631,-192.0,-47.0,-165.0,0
632,-195.0,-46.0,-166.0,0
633,-195.0,-47.0,-166.0,0
634,-194.0,-46.0,-168.0,0
635,-198.0,-45.0,-166.0,0
636,-200.0,-49.0,-167.0,0
637,-197.0,-45.0,-170.0,0
638,-198.0,-49.0,-162.0,0
639,-197.0,-44.0,-165.0,0
640,-200.0,-43.0,-165.0,0
641,-196.0,-40.0,-166.0,0
642,-195.0,-40.0,-165.0,0
643,-193.0,-38.0,-163.0,0
644,-193.0,-38.0,-159.0,0
645,-192.0,-34.0,-159.0,0
646,-194.0,-30.0,-159.0,0
647,-192.0,-31.0,-159.0,0
648,-192.0,-31.0,-157.0,0
649,-194.0,-28.0,-159.0,0
650,-196.0,-27.0,-154.0,0
651,-198.0,-23.0,-154.0,0
652,-195.0,-25.0,-161.0,0
653,-199.0,-22.0,-159.0,0
654,-197.0,-20.0,-158.0,0
655,-198.0,-21.0,-163.0,0
656,-201.0,-20.0,-158.0,0
657,-200.0,-18.0,-161.0,0
658,-194.0,-14.0,-155.0,0
659,-201.0,-17.0,-158.0,0
660,-205.0,-17.0,-163.0,0
661,-210.0,-16.0,-159.0,0
662,-204.0,-19.0,-159.0,0
663,-210.0,-17.0,-160.0,0
664,-210.0,-16.0,-157.0,0
665,-210.0,-16.0,-161.0,0
666,-209.0,-15.0,-160.0,0
667,-209.0,-14.0,-161.0,0
668,-203.0,-15.0,-150.0,0
669,-204.0,-11.0,-157.0,0
670,-205.0,-13.0,-156.0,0
671,-205.0,-13.0,-155.0,0
672,-205.0,-14.0,-155.0,0
673,-206.0,-9.0,-151.0,0
674,-206.0,-11.0,-150.0,0
675,-209.0,-8.0,-151.0,0
676,-208.0,-11.0,-152.0,0
677,-211.0,-12.0,-145.0,0
678,-216.0,-11.0,-149.0,0
679,-217.0,-11.0,-147.0,0
680,-219.0,-11.0,-142.0,0
681,-218.0,-14.0,-143.0,0
682,-219.0,-12.0,-147.0,0
683,-217.0,-13.0,-147.0,0
684,-219.0,-16.0,-147.0,0
685,-223.0,-13.0,-145.0,0
686,-220.0,-12.0,-143.0,0
687,-222.0,-7.0,-140.0,0
688,-225.0,-8.0,-141.0,0
689,-222.0,-7.0,-139.0,0
690,-222.0,-4.0,-140.0,0
691,-223.0,-2.0,-138.0,0
692,-225.0,-2.0,-138.0,0
693,-227.0,2.0,-135.0,0
694,-222.0,0.0,-132.0,0
695,-229.0,6.0,-128.0,0
696,-227.0,6.0,-125.0,0
697,-229.0,7.0,-128.0,0
698,-230.0,5.0,-122.0,0
699,-230.0,7.0,-122.0,0
700,-228.0,5.0,-124.0,0
701,-231.0,5.0,-118.0,0
702,-231.0,8.0,-119.0,0
703,-232.0,6.0,-118.0,0
704,-238.0,6.0,-118.0,0
705,-235.0,3.0,-113.0,0
706,-238.0,4.0,-116.0,0
707,-240.0,2.0,-111.0,0
708,-242.0,1.0,-111.0,0
709,-240.0,-3.0,-112.0,0
710,-241.0,1.0,-108.0,0
711,-238.0,1.0,-106.0,0
712,-237.0,0.0,-109.0,0
713,-236.0,5.0,-108.0,0
714,-246.0,-1.0,-109.0,0
715,-238.0,1.0,-110.0,0
716,-239.0,-1.0,-109.0,0
717,-242.0,-1.0,-104.0,0
718,-240.0,-4.0,-105.0,0
719,-242.0,1.0,-106.0,0
720,-242.0,1.0,-106.0,0
721,-245.0,-2.0,-103.0,0
722,-239.0,3.0,-101.0,0
723,-245.0,1.0,-97.0,0
724,-243.0,3.0,-98.0,0
725,-245.0,4.0,-96.0,0
726,-245.0,6.0,-93.0,0
727,-245.0,4.0,-90.0,0
728,-244.0,6.0,-89.0,0
729,-246.0,6.0,-87.0,0
730,-248.0,5.0,-84.0,0
731,-249.0,7.0,-90.0,0
732,-249.0,7.0,-89.0,0
733,-250.0,4.0,-89.0,0
734,-253.0,1.0,-86.0,0
735,-254.0,7.0,-86.0,0
736,-255.0,6.0,-87.0,0
737,-252.0,3.0,-86.0,0
738,-256.0,7.0,-89.0,0
739,-258.0,3.0,-83.0,0
740,-255.0,0.0,-87.0,0
741,-254.0,0.0,-84.0,0
742,-255.0,-1.0,-82.0,0
743,-257.0,-3.0,-81.0,0
744,-253.0,-8.0,-84.0,0
745,-256.0,-7.0,-79.0,0
746,-254.0,-10.0,-84.0,0
747,-252.0,-10.0,-80.0,0
748,-253.0,-4.0,-81.0,0
749,-249.0,-7.0,-79.0,0
750,-246.0,-5.0,-84.0,0
751,-244.0,-3.0,-82.0,0
752,-240.0,-6.0,-76.0,0
753,-238.0,-7.0,-76.0,0
754,-238.0,-8.0,-74.0,0
755,-240.0,-5.0,-72.0,0
756,-236.0,-8.0,-67.0,0
757,-238.0,-1.0,-68.0,0
758,-239.0,0.0,-63.0,0
759,-238.0,-2.0,-60.0,0
760,-244.0,1.0,-58.0,0
761,-242.0,6.0,-54.0,0
762,-250.0,7.0,-55.0,0
763,-250.0,6.0,-49.0,0
764,-249.0,5.0,-50.0,0
765,-254.0,8.0,-53.0,0
766,-258.0,10.0,-49.0,0
767,-262.0,11.0,-55.0,0
768,-260.0,8.0,-52.0,0
769,-260.0,8.0,-48.0,0
770,-265.0,9.0,-48.0,0
771,-263.0,3.0,-43.0,0
772,-267.0,2.0,-45.0,0
773,-269.0,4.0,-44.0,0
774,-272.0,-2.0,-46.0,0
775,-273.0,1.0,-46.0,0
776,-273.0,-1.0,-47.0,0
777,-273.0,-1.0,-48.0,0
778,-270.0,2.0,-49.0,0
779,-269.0,1.0,-50.0,0
780,-264.0,1.0,-49.0,0
781,-264.0,-3.0,-54.0,0
782,-268.0,2.0,-50.0,0
783,-261.0,0.0,-41.0,0
784,-261.0,-1.0,-41.0,0
785,-260.0,2.0,-34.0,0
786,-259.0,-4.0,-38.0,0
787,-261.0,1.0,-30.0,0
788,-258.0,0.0,-32.0,0
789,-262.0,0.0,-31.0,0
790,-264.0,0.0,-28.0,0
791,-268.0,0.0,-21.0,0
792,-264.0,-5.0,-22.0,0
793,-267.0,-2.0,-21.0,0
794,-267.0,0.0,-23.0,0
795,-264.0,0.0,-18.0,0
796,-265.0,-3.0,-20.0,0
797,-265.0,0.0,-19.0,0
798,-270.0,1.0,-10.0,0
799,-266.0,2.0,-19.0,0
800,-266.0,9.0,-20.0,0
801,-264.0,8.0,-23.0,0
802,-266.0,8.0,-22.0,0
803,-264.0,11.0,-18.0,0
804,-261.0,14.0,-19.0,0
805,-261.0,14.0,-18.0,0
806,-265.0,11.0,-12.0,0
807,-269.0,11.0,-7.0,0
808,-270.0,8.0,-7.0,0
809,-272.0,8.0,-6.0,0
810,-273.0,5.0,-4.0,0
811,-275.0,0.0,-2.0,0
812,-277.0,4.0,1.0,0
813,-277.0,0.0,1.0,0
814,-274.0,-3.0,-1.0,0
815,-277.0,-6.0,-2.0,0
816,-272.0,-6.0,0.0,0
817,-271.0,-10.0,6.0,0
818,-266.0,-15.0,4.0,0
819,-262.0,-14.0,2.0,0
820,-259.0,-13.0,5.0,0
821,-256.0,-14.0,3.0,0
822,-255.0,-10.0,3.0,0
823,-251.0,-12.0,1.0,0
824,-247.0,-14.0,6.0,0
825,-248.0,-13.0,7.0,0
826,-248.0,-11.0,7.0,0
827,-245.0,-15.0,6.0,0
828,-244.0,-15.0,5.0,0
829,-240.0,-16.0,5.0,0
830,-242.0,-16.0,5.0,0
831,-243.0,-10.0,8.0,0
832,-244.0,-14.0,15.0,0
833,-240.0,-13.0,17.0,0
834,-240.0,-11.0,18.0,0
835,-240.0,-11.0,23.0,0
836,-241.0,-8.0,24.0,0
837,-243.0,-2.0,30.0,0
838,-250.0,-4.0,27.0,0
839,-250.0,-4.0,35.0,0
840,-255.0,4.0,32.0,0
841,-255.0,4.0,31.0,0
842,-260.0,3.0,33.0,0
843,-261.0,1.0,33.0,0
844,-263.0,-1.0,35.0,0
845,-264.0,4.0,32.0,0
846,-267.0,4.0,31.0,0
847,-267.0,4.0,29.0,0
848,-265.0,4.0,30.0,0
849,-261.0,1.0,27.0,0
850,-260.0,1.0,24.0,0
851,-259.0,-4.0,25.0,0
852,-256.0,7.0,25.0,0
853,-256.0,-5.0,26.0,0
854,-256.0,-5.0,27.0,0
855,-255.0,-4.0,27.0,0
856,-250.0,-5.0,30.0,0
857,-250.0,-9.0,28.0,0
858,-244.0,-12.0,33.0,0
859,-240.0,-9.0,32.0,0
860,-238.0,-7.0,39.0,0
861,-238.0,-5.0,36.0,0
862,-235.0,-5.0,39.0,0
863,-235.0,-2.0,41.0,0
864,-236.0,2.0,39.0,0
865,-237.0,4.0,38.0,0
866,-237.0,8.0,41.0,0
867,-241.0,8.0,41.0,0
868,-243.0,9.0,40.0,0
869,-247.0,10.0,40.0,0
870,-254.0,12.0,41.0,0
871,-256.0,15.0,40.0,0
872,-259.0,13.0,40.0,0
873,-261.0,15.0,40.0,0
874,-260.0,16.0,39.0,0
875,-264.0,14.0,35.0,0
876,-267.0,14.0,37.0,0
877,-262.0,12.0,35.0,0
878,-260.0,11.0,35.0,0
879,-259.0,11.0,32.0,0
880,-256.0,9.0,32.0,0
881,-253.0,7.0,32.0,0
882,-249.0,5.0,35.0,0
883,-251.0,0.0,35.0,0
884,-246.0,-5.0,40.0,0
885,-246.0,-7.0,38.0,0
886,-246.0,-8.0,37.0,0
887,-245.0,-13.0,36.0,0
888,-247.0,-15.0,36.0,0
889,-251.0,-12.0,39.0,0
890,-255.0,-11.0,26.0,0
891,-259.0,-8.0,32.0,0
892,-262.0,-8.0,26.0,0
893,-267.0,-6.0,26.0,0
894,-269.0,-6.0,25.0,0
895,-268.0,-3.0,23.0,0
896,-277.0,-4.0,18.0,0
897,-271.0,-6.0,23.0,0
898,-272.0,-2.0,23.0,0
899,-270.0,-7.0,20.0,0
900,-272.0,-4.0,25.0,0
901,-268.0,-5.0,28.0,0
902,-265.0,-1.0,23.0,0
903,-262.0,-1.0,24.0,0
904,-261.0,4.0,28.0,0
905,-262.0,7.0,22.0,0
906,-258.0,7.0,28.0,0
907,-255.0,10.0,25.0,0
908,-257.0,8.0,21.0,0
909,-257.0,8.0,20.0,0
910,-256.0,8.0,18.0,0
911,-258.0,9.0,24.0,0
912,-256.0,8.0,18.0,0
913,-256.0,7.0,15.0,0
914,-257.0,8.0,16.0,0
915,-256.0,6.0,21.0,0
916,-256.0,7.0,19.0,0
917,-252.0,5.0,19.0,0
918,-258.0,7.0,23.0,0
919,-259.0,4.0,22.0,0
920,-259.0,6.0,20.0,0
921,-256.0,4.0,18.0,0
922,-258.0,5.0,17.0,0
923,-256.0,-1.0,22.0,0
924,-255.0,2.0,17.0,0
925,-260.0,5.0,20.0,0
926,-259.0,4.0,19.0,0
927,-264.0,0.0,14.0,0
928,-262.0,-2.0,19.0,0
929,-257.0,-6.0,17.0,0
930,-258.0,-4.0,20.0,0
931,-263.0,-3.0,19.0,0
932,-261.0,-5.0,19.0,0
933,-260.0,-6.0,18.0,0
934,-266.0,-4.0,17.0,0
935,-261.0,-4.0,22.0,0
936,-260.0,-5.0,17.0,0
937,-261.0,-3.0,14.0,0
938,-264.0,-8.0,18.0,0
939,-268.0,-7.0,14.0,0
940,-264.0,-2.0,11.0,0
941,-264.0,-5.0,8.0,0
942,-263.0,-6.0,9.0,0
943,-265.0,-5.0,10.0,0
944,-260.0,-10.0,6.0,0
945,-261.0,-12.0,8.0,0
946,-259.0,-13.0,7.0,0
947,-255.0,-12.0,8.0,0
948,-255.0,-13.0,10.0,0
949,-255.0,-14.0,11.0,0
950,-253.0,-16.0,13.0,0
951,-256.0,-13.0,14.0,0
952,-255.0,-12.0,19.0,0
953,-257.0,-13.0,16.0,0
954,-254.0,-14.0,14.0,0
955,-257.0,-8.0,16.0,0
956,-257.0,-11.0,12.0,0
957,-257.0,-14.0,15.0,0
958,-258.0,-8.0,14.0,0
959,-260.0,-13.0,23.0,0
960,-255.0,-16.0,18.0,0
961,-256.0,-18.0,19.0,0
962,-254.0,-17.0,23.0,0
963,-256.0,-17.0,25.0,0
964,-254.0,-22.0,25.0,0
965,-252.0,-23.0,25.0,0
966,-254.0,-23.0,27.0,0
967,-253.0,-23.0,27.0,0
968,-253.0,-24.0,24.0,0
969,-254.0,-26.0,25.0,0
970,-254.0,-23.0,24.0,0
971,-255.0,-23.0,25.0,0
972,-255.0,-24.0,25.0,0
973,-251.0,-25.0,21.0,0
974,-251.0,-27.0,17.0,0
975,-252.0,-24.0,19.0,0
976,-253.0,-25.0,13.0,0
977,-246.0,-28.0,15.0,0
978,-249.0,-26.0,13.0,0
979,-247.0,-26.0,14.0,0
980,-243.0,-27.0,15.0,0
981,-248.0,-30.0,16.0,0
982,-242.0,-26.0,13.0,0
983,-244.0,-23.0,12.0,0
984,-242.0,-24.0,15.0,0
985,-242.0,-23.0,14.0,0
986,-247.0,-23.0,16.0,0
987,-248.0,-24.0,20.0,0
988,-252.0,-23.0,18.0,0
989,-252.0,-22.0,18.0,0
990,-253.0,-22.0,19.0,0
991,-251.0,-21.0,18.0,0
992,-251.0,-21.0,19.0,0
993,-250.0,-16.0,18.0,0
994,-251.0,-14.0,20.0,0
995,-251.0,-13.0,15.0,0
996,-249.0,-12.0,20.0,0
997,-249.0,-16.0,23.0,0
998,-250.0,-14.0,23.0,0
999,-249.0,-20.0,20.0,0
1000,-248.0,-21.0,25.0,0
1001,-249.0,-23.0,23.0,0
1002,-252.0,-24.0,28.0,0
1003,-257.0,-31.0,25.0,0
1004,-253.0,-28.0,26.0,0
1005,-253.0,-31.0,28.0,0
1006,-252.0,-34.0,25.0,0
1007,-255.0,-34.0,29.0,0
1008,-252.0,-31.0,26.0,0
1009,-253.0,-34.0,27.0,0
1010,-252.0,-29.0,28.0,0
1011,-254.0,-25.0,29.0,0
1012,-255.0,-22.0,28.0,0
1013,-252.0,-20.0,24.0,0
1014,-251.0,-18.0,23.0,0
1015,-254.0,-13.0,21.0,0
1016,-258.0,-12.0,20.0,0
1017,-255.0,-11.0,15.0,0
1018,-254.0,-14.0,14.0,0
1019,-258.0,-16.0,14.0,0
1020,-257.0,-14.0,17.0,0
1021,-258.0,-20.0,16.0,0
1022,-258.0,-20.0,17.0,0
1023,-262.0,-20.0,14.0,0
1024,-263.0,-24.0,13.0,0
1025,-261.0,-21.0,21.0,0
1026,-267.0,-21.0,11.0,0
1027,-265.0,-22.0,11.0,0
1028,-263.0,-25.0,13.0,0
1029,-266.0,-27.0,10.0,0
1030,-265.0,-24.0,13.0,0
1031,-262.0,-24.0,10.0,0
1032,-261.0,-25.0,6.0,0
1033,-260.0,-27.0,13.0,0
1034,-259.0,-24.0,12.0,0
1035,-254.0,-26.0,9.0,0
1036,-256.0,-21.0,7.0,0
1037,-258.0,-16.0,10.0,0
1038,-254.0,-20.0,11.0,0
1039,-257.0,-15.0,15.0,0
1040,-256.0,-19.0,10.0,0
1041,-259.0,-12.0,11.0,0
1042,-260.0,-16.0,12.0,0
1043,-259.0,-14.0,15.0,0
1044,-260.0,-16.0,14.0,0
1045,-259.0,-17.0,15.0,0
1046,-259.0,-16.0,14.0,0
1047,-261.0,-17.0,15.0,0
1048,-260.0,-17.0,10.0,0
1049,-259.0,-22.0,16.0,0
1050,-259.0,-18.0,13.0,0
1051,-255.0,-21.0,13.0,0
1052,-259.0,-17.0,13.0,0
1053,-258.0,-20.0,10.0,0
1054,-255.0,-21.0,11.0,0
1055,-256.0,-20.0,14.0,0
1056,-257.0,-18.0,13.0,0
1057,-258.0,-22.0,13.0,0
1058,-260.0,-23.0,15.0,0
1059,-259.0,-20.0,13.0,0
1060,-261.0,-20.0,10.0,0
1061,-260.0,-21.0,9.0,0
1062,-264.0,-19.0,9.0,0
1063,-263.0,-20.0,8.0,0
1064,-263.0,-15.0,10.0,0
1065,-262.0,-15.0,8.0,0
1066,-259.0,-18.0,6.0,0
1067,-261.0,-16.0,7.0,0
1068,-259.0,-19.0,10.0,0
1069,-257.0,-17.0,8.0,0
1070,-255.0,-17.0,10.0,0
1071,-257.0,-18.0,10.0,0
1072,-257.0,-16.0,10.0,0
1073,-258.0,-17.0,14.0,0
1074,-255.0,-15.0,8.0,0
1075,-252.0,-17.0,11.0,0
1076,-254.0,-17.0,8.0,0
1077,-251.0,-19.0,8.0,0
1078,-256.0,-17.0,11.0,0
1079,-254.0,-16.0,11.0,0
1080,-256.0,-21.0,11.0,0
1081,-255.0,-21.0,12.0,0
1082,-255.0,-19.0,10.0,0
1083,-256.0,-21.0,16.0,0
1084,-258.0,-20.0,11.0,0
1085,-256.0,-22.0,8.0,0
1086,-257.0,-20.0,12.0,0
1087,-260.0,-22.0,15.0,0
1088,-259.0,-19.0,13.0,0
1089,-259.0,-21.0,15.0,0
1090,-257.0,-21.0,14.0,0
1091,-256.0,-20.0,23.0,0
1092,-258.0,-22.0,19.0,0
1093,-258.0,-21.0,18.0,0
1094,-256.0,-20.0,25.0,0
1095,-253.0,-21.0,23.0,0
1096,-254.0,-23.0,23.0,0
1097,-254.0,-25.0,23.0,0
1098,-255.0,-25.0,22.0,0
1099,-252.0,-21.0,20.0,0
1100,-255.0,-23.0,27.0,0
1101,-257.0,-27.0,22.0,0
1102,-254.0,-27.0,21.0,0
1103,-256.0,-26.0,17.0,0
1104,-256.0,-24.0,18.0,0
1105,-257.0,-23.0,21.0,0
1106,-255.0,-27.0,18.0,0
1107,-255.0,-26.0,18.0,0
1108,-255.0,-27.0,23.0,0
1109,-256.0,-22.0,25.0,0
1110,-255.0,-23.0,19.0,0
1111,-251.0,-25.0,20.0,0
1112,-250.0,-26.0,23.0,0
1113,-249.0,-25.0,21.0,0
1114,-248.0,-24.0,26.0,0
1115,-249.0,-26.0,24.0,0
1116,-250.0,-28.0,24.0,0
1117,-252.0,-25.0,23.0,0
1118,-253.0,-27.0,26.0,0
1119,-253.0,-25.0,24.0,0
1120,-255.0,-24.0,25.0,0
1121,-256.0,-27.0,26.0,0
1122,-256.0,-25.0,24.0,0
1123,-258.0,-26.0,20.0,0
1124,-258.0,-26.0,23.0,0
1125,-258.0,-23.0,22.0,0
1126,-258.0,-25.0,20.0,0
1127,-258.0,-26.0,21.0,0
1128,-261.0,-25.0,22.0,0
1129,-260.0,-22.0,21.0,0
1130,-257.0,-25.0,18.0,0
1131,-258.0,-25.0,16.0,0
1132,-260.0,-16.0,19.0,0
1133,-257.0,-25.0,20.0,0
1134,-254.0,-25.0,21.0,0
1135,-256.0,-26.0,21.0,0
1136,-252.0,-24.0,20.0,0
1137,-252.0,-25.0,26.0,0
1138,-254.0,-25.0,25.0,0
1139,-255.0,-23.0,22.0,0
1140,-253.0,-22.0,26.0,0
1141,-255.0,-20.0,22.0,0
1142,-253.0,-19.0,22.0,0
1143,-255.0,-22.0,23.0,0
1144,-256.0,-21.0,26.0,0
1145,-255.0,-21.0,22.0,0
1146,-256.0,-23.0,20.0,0
1147,-256.0,-21.0,19.0,0
1148,-255.0,-21.0,18.0,0
1149,-258.0,-21.0,18.0,0
1150,-256.0,-22.0,23.0,0
1151,-257.0,-24.0,22.0,0
1152,-258.0,-22.0,22.0,0
1153,-258.0,-22.0,19.0,0
1154,-259.0,-27.0,22.0,0
1155,-258.0,-27.0,16.0,0
1156,-259.0,-26.0,18.0,0
1157,-257.0,-26.0,23.0,0
1158,-258.0,-23.0,18.0,0
1159,-258.0,-25.0,21.0,0
1160,-256.0,-30.0,22.0,0
1161,-260.0,-24.0,18.0,0
1162,-255.0,-25.0,22.0,0
1163,-256.0,-27.0,19.0,0
1164,-255.0,-23.0,12.0,0
1165,-255.0,-24.0,17.0,0
1166,-254.0,-21.0,18.0,0
1167,-255.0,-23.0,18.0,0
1168,-256.0,-21.0,21.0,0
1169,-256.0,-21.0,21.0,0
1170,-257.0,-22.0,20.0,0
1171,-255.0,-25.0,20.0,0
1172,-257.0,-21.0,22.0,0
1173,-256.0,-23.0,20.0,0
1174,-257.0,-22.0,23.0,0
1175,-261.0,-23.0,14.0,0
1176,-257.0,-25.0,23.0,0
1177,-254.0,-25.0,21.0,0
1178,-252.0,-28.0,22.0,0
1179,-257.0,-25.0,23.0,0
1180,-255.0,-24.0,20.0,0
1181,-257.0,-23.0,23.0,0
1182,-256.0,-21.0,24.0,0
1183,-255.0,-22.0,24.0,0
1184,-258.0,-25.0,22.0,0
1185,-257.0,-22.0,24.0,0
1186,-259.0,-23.0,19.0,0
1187,-259.0,-21.0,24.0,0
1188,-259.0,-21.0,22.0,0
1189,-257.0,-25.0,22.0,0
1190,-257.0,-23.0,19.0,0
1191,-258.0,-20.0,24.0,0
1192,-259.0,-20.0,22.0,0
1193,-257.0,-25.0,20.0,0
1194,-253.0,-24.0,24.0,0
1195,-254.0,-23.0,25.0,0
1196,-254.0,-19.0,25.0,0
1197,-256.0,-21.0,23.0,0
1198,-253.0,-22.0,26.0,0
1199,-255.0,-24.0,28.0,0
1200,-254.0,-26.0,21.0,0
1201,-256.0,-23.0,21.0,0
1202,-256.0,-27.0,23.0,0
1203,-255.0,-25.0,24.0,0
1204,-257.0,-24.0,22.0,0
1205,-256.0,-24.0,22.0,0
1206,-257.0,-22.0,24.0,0
1207,-257.0,-27.0,24.0,0
1208,-255.0,-24.0,21.0,0
1209,-255.0,-25.0,25.0,0
1210,-257.0,-23.0,20.0,0
1211,-259.0,-22.0,23.0,0
1212,-257.0,-23.0,22.0,0
1213,-256.0,-20.0,19.0,0
1214,-256.0,-25.0,24.0,0
1215,-254.0,-24.0,26.0,0
1216,-254.0,-24.0,25.0,0
1217,-253.0,-17.0,17.0,0
1218,-255.0,-24.0,23.0,0
1219,-255.0,-24.0,25.0,0
1220,-256.0,-27.0,22.0,0
1221,-255.0,-22.0,26.0,0
1222,-256.0,-23.0,23.0,0
1223,-256.0,-26.0,25.0,0
1224,-257.0,-25.0,26.0,0
1225,-257.0,-23.0,24.0,0
1226,-257.0,-24.0,28.0,0
1227,-256.0,-22.0,26.0,0
1228,-257.0,-25.0,25.0,0
1229,-256.0,-23.0,25.0,0
1230,-257.0,-23.0,25.0,0
1231,-256.0,-23.0,28.0,0
1232,-257.0,-22.0,26.0,0
1233,-252.0,-23.0,25.0,0
1234,-254.0,-24.0,26.0,0
1235,-256.0,-23.0,25.0,0
1236,-253.0,-25.0,26.0,0
1237,-256.0,-23.0,23.0,0
1238,-256.0,-24.0,26.0,0
1239,-257.0,-25.0,30.0,0
1240,-257.0,-24.0,27.0,0
1241,-256.0,-25.0,24.0,0
1242,-258.0,-22.0,23.0,0
1243,-257.0,-24.0,25.0,0
1244,-257.0,-25.0,26.0,0
1245,-256.0,-25.0,24.0,0
1246,-258.0,-21.0,25.0,0
1247,-258.0,-24.0,24.0,0
1248,-257.0,-25.0,22.0,0
1249,-256.0,-27.0,28.0,0
1250,-258.0,-23.0,24.0,0
1251,-256.0,-25.0,22.0,0
1252,-254.0,-27.0,24.0,0
1253,-256.0,-23.0,23.0,0
1254,-256.0,-22.0,25.0,0
1255,-256.0,-25.0,26.0,0
1256,-256.0,-23.0,25.0,0
1257,-254.0,-26.0,23.0,0
1258,-256.0,-24.0,28.0,0
1259,-257.0,-23.0,23.0,0
1260,-255.0,-22.0,23.0,0
1261,-246.0,-19.0,25.0,0
1262,-256.0,-18.0,27.0,0
1263,-256.0,-25.0,24.0,0
1264,-254.0,-24.0,25.0,0
1265,-256.0,-23.0,23.0,0
1266,-256.0,-23.0,25.0,0
1267,-257.0,-23.0,25.0,0
1268,-257.0,-23.0,23.0,0
1269,-259.0,-21.0,22.0,0
1270,-260.0,-23.0,23.0,0
1271,-260.0,-23.0,24.0,0
1272,-259.0,-23.0,22.0,0
1273,-258.0,-24.0,23.0,0
1274,-256.0,-25.0,19.0,0
1275,-257.0,-23.0,24.0,0
1276,-255.0,-23.0,22.0,0
1277,-255.0,-23.0,23.0,0
1278,-254.0,-26.0,25.0,0
1279,-254.0,-22.0,28.0,0
1280,-257.0,-22.0,26.0,0
1281,-253.0,-24.0,22.0,0
1282,-254.0,-21.0,22.0,0
1283,-257.0,-22.0,18.0,0
1284,-256.0,-25.0,21.0,0
1285,-255.0,-23.0,25.0,0
1286,-255.0,-24.0,25.0,0
1287,-255.0,-24.0,21.0,0
1288,-255.0,-24.0,20.0,0
1289,-256.0,-23.0,19.0,0
1290,-255.0,-23.0,19.0,0
1291,-256.0,-23.0,22.0,0
1292,-256.0,-19.0,16.0,0
1293,-256.0,-23.0,16.0,0
1294,-256.0,-23.0,20.0,0
1295,-255.0,-22.0,20.0,0
1296,-255.0,-23.0,22.0,0
1297,-256.0,-19.0,24.0,0
1298,-252.0,-23.0,20.0,0
1299,-253.0,-23.0,24.0,0
1300,-255.0,-24.0,25.0,0
1301,-254.0,-23.0,22.0,0
1302,-256.0,-23.0,25.0,0
1303,-252.0,-23.0,28.0,0
1304,-258.0,-21.0,25.0,0
1305,-256.0,-22.0,25.0,0
1306,-254.0,-23.0,25.0,0
1307,-254.0,-22.0,21.0,0
1308,-257.0,-21.0,21.0,0
1309,-253.0,-22.0,20.0,0
1310,-254.0,-23.0,22.0,0
1311,-252.0,-24.0,20.0,0
1312,-251.0,-21.0,24.0,0
1313,-254.0,-20.0,19.0,0
1314,-253.0,-21.0,23.0,0
1315,-251.0,-21.0,28.0,0
1316,-254.0,-21.0,27.0,0
1317,-250.0,-22.0,26.0,0
1318,-255.0,-22.0,24.0,0
1319,-256.0,-22.0,28.0,0
1320,-253.0,-26.0,27.0,0
1321,-251.0,-23.0,25.0,0
1322,-252.0,-20.0,28.0,0
1323,-255.0,-21.0,27.0,0
1324,-255.0,-23.0,24.0,0
1325,-253.0,-24.0,22.0,0
1326,-257.0,-23.0,26.0,0
1327,-255.0,-25.0,26.0,0
1328,-255.0,-23.0,22.0,0
1329,-256.0,-21.0,25.0,0
1330,-256.0,-26.0,25.0,0
1331,-257.0,-24.0,20.0,0
1332,-257.0,-25.0,20.0,0
1333,-256.0,-29.0,21.0,0
1334,-256.0,-24.0,22.0,0
1335,-256.0,-25.0,19.0,0
1336,-256.0,-24.0,17.0,0
1337,-254.0,-21.0,17.0,0
1338,-254.0,-26.0,19.0,0
1339,-254.0,-23.0,18.0,0
1340,-256.0,-18.0,15.0,0
1341,-256.0,-24.0,18.0,0
1342,-256.0,-21.0,18.0,0
1343,-255.0,-20.0,16.0,0
1344,-257.0,-20.0,15.0,0
1345,-256.0,-23.0,12.0,0
1346,-256.0,-18.0,12.0,0
1347,-254.0,-23.0,13.0,0
1348,-258.0,-18.0,15.0,0
1349,-258.0,-15.0,14.0,0
1350,-258.0,-17.0,10.0,0
1351,-257.0,-19.0,6.0,0
1352,-256.0,-18.0,8.0,0
1353,-258.0,-18.0,6.0,0
1354,-257.0,-21.0,5.0,0
1355,-260.0,-14.0,9.0,0
1356,-261.0,-17.0,3.0,0
1357,-261.0,-17.0,4.0,0
1358,-263.0,-18.0,0.0,0
1359,-262.0,-14.0,2.0,0
1360,-261.0,-13.0,3.0,0
1361,-264.0,-14.0,3.0,0
1362,-262.0,-13.0,-1.0,0
1363,-262.0,-16.0,3.0,0
1364,-262.0,-12.0,6.0,0
1365,-262.0,-14.0,5.0,0
1366,-260.0,-12.0,9.0,0
1367,-264.0,-12.0,6.0,0
1368,-262.0,-11.0,9.0,0
1369,-261.0,-12.0,12.0,0
1370,-261.0,-10.0,13.0,0
1371,-258.0,-12.0,7.0,0
1372,-261.0,-12.0,11.0,0
1373,-261.0,-9.0,8.0,0
1374,-257.0,-13.0,12.0,0
1375,-260.0,-14.0,14.0,0
1376,-260.0,-10.0,15.0,0
1377,-259.0,-13.0,7.0,0
1378,-258.0,-12.0,13.0,0
1379,-256.0,-13.0,9.0,0
1380,-257.0,-15.0,11.0,0
1381,-259.0,-15.0,9.0,0
1382,-257.0,-14.0,12.0,0
1383,-258.0,-10.0,10.0,0
1384,-258.0,-15.0,14.0,0
1385,-257.0,-16.0,11.0,0
1386,-257.0,-11.0,16.0,0
1387,-258.0,-17.0,15.0,0
1388,-256.0,-14.0,15.0,0
1389,-255.0,-17.0,16.0,0
1390,-257.0,-12.0,14.0,0
1391,-255.0,-16.0,18.0,0
1392,-255.0,-17.0,17.0,0
1393,-256.0,-17.0,19.0,0
1394,-255.0,-21.0,18.0,0
1395,-258.0,-19.0,14.0,0
1396,-258.0,-20.0,14.0,0
1397,-256.0,-21.0,19.0,0
1398,-256.0,-21.0,13.0,0
1399,-259.0,-22.0,11.0,0
1400,-257.0,-21.0,16.0,0
1401,-255.0,-22.0,11.0,0
1402,-258.0,-21.0,14.0,0
1403,-258.0,-21.0,8.0,0
1404,-256.0,-23.0,13.0,0
1405,-257.0,-19.0,13.0,0
1406,-258.0,-21.0,10.0,0
1407,-257.0,-18.0,9.0,0
1408,-256.0,-23.0,12.0,0
1409,-256.0,-22.0,10.0,0
1410,-259.0,-20.0,11.0,0
1411,-256.0,-21.0,10.0,0
1412,-258.0,-21.0,13.0,0
1413,-258.0,-19.0,11.0,0
1414,-258.0,-17.0,13.0,0
1415,-258.0,-20.0,9.0,0
1416,-258.0,-17.0,9.0,0
1417,-256.0,-21.0,11.0,0
1418,-257.0,-16.0,12.0,0
1419,-258.0,-18.0,6.0,0
1420,-256.0,-16.0,6.0,0
1421,-258.0,-16.0,12.0,0
1422,-259.0,-18.0,9.0,0
1423,-256.0,-14.0,7.0,0
1424,-261.0,-14.0,11.0,0
1425,-260.0,-14.0,9.0,0
1426,-257.0,-16.0,8.0,0
1427,-259.0,-19.0,8.0,0
1428,-257.0,-17.0,10.0,0
1429,-259.0,-19.0,15.0,0
1430,-256.0,-19.0,7.0,0
1431,-256.0,-16.0,15.0,0
1432,-256.0,-16.0,11.0,0
1433,-257.0,-15.0,13.0,0
1434,-257.0,-16.0,12.0,0
1435,-257.0,-18.0,12.0,0
1436,-254.0,-17.0,13.0,0
1437,-257.0,-16.0,14.0,0
1438,-257.0,-15.0,14.0,0
1439,-256.0,-16.0,14.0,0
1440,-258.0,-15.0,13.0,0
1441,-259.0,-16.0,15.0,0
1442,-257.0,-14.0,13.0,0
1443,-258.0,-14.0,16.0,0
1444,-257.0,-16.0,16.0,0
1445,-260.0,-14.0,12.0,0
1446,-257.0,-14.0,15.0,0
1447,-262.0,-13.0,13.0,0
1448,-258.0,-16.0,9.0,0
1449,-259.0,-14.0,11.0,0
1450,-258.0,-16.0,15.0,0
1451,-259.0,-15.0,14.0,0
1452,-257.0,-11.0,16.0,0
1453,-257.0,-13.0,13.0,0
1454,-259.0,-12.0,17.0,0
1455,-258.0,-12.0,17.0,0
1456,-260.0,-12.0,19.0,0
1457,-260.0,-12.0,19.0,0
1458,-263.0,-10.0,15.0,0
1459,-260.0,-15.0,21.0,0
1460,-264.0,-13.0,17.0,0
1461,-260.0,-13.0,18.0,0
1462,-263.0,-13.0,21.0,0
1463,-261.0,-14.0,18.0,0
1464,-263.0,-14.0,18.0,0
1465,-263.0,-12.0,18.0,0
1466,-259.0,-8.0,15.0,0
1467,-262.0,-7.0,12.0,0
1468,-259.0,-6.0,13.0,0
1469,-257.0,-8.0,10.0,0
1470,-260.0,-7.0,13.0,0
1471,-257.0,-7.0,9.0,0
1472,-258.0,-6.0,12.0,0
1473,-256.0,-12.0,13.0,0
1474,-254.0,-9.0,14.0,0
1475,-256.0,-11.0,19.0,0
1476,-259.0,-13.0,15.0,0
1477,-259.0,-14.0,16.0,0
1478,-258.0,-19.0,17.0,0
1479,-262.0,-20.0,12.0,0
1480,-259.0,-20.0,14.0,0
1481,-260.0,-23.0,14.0,0
1482,-262.0,-19.0,12.0,0
1483,-262.0,-22.0,9.0,0
1484,-261.0,-20.0,9.0,0
1485,-262.0,-18.0,10.0,0
1486,-260.0,-16.0,11.0,0
1487,-260.0,-15.0,3.0,0
1488,-259.0,-13.0,8.0,0
1489,-260.0,-14.0,3.0,0
1490,-258.0,-12.0,1.0,0
1491,-258.0,-14.0,5.0,0
1492,-259.0,-14.0,5.0,0
1493,-261.0,-16.0,10.0,0
1494,-258.0,-22.0,10.0,0
1495,-256.0,-20.0,9.0,0
1496,-255.0,-26.0,12.0,0
1497,-256.0,-22.0,10.0,0
1498,-258.0,-30.0,14.0,0
1499,-258.0,-32.0,11.0,0
1500,-259.0,-29.0,15.0,0
1501,-260.0,-28.0,13.0,0
1502,-257.0,-29.0,18.0,0
1503,-257.0,-28.0,19.0,0
1504,-257.0,-25.0,16.0,0
1505,-255.0,-27.0,21.0,0
1506,-255.0,-25.0,23.0,0
1507,-256.0,-22.0,26.0,0
1508,-253.0,-22.0,27.0,0
1509,-254.0,-19.0,35.0,0
1510,-255.0,-22.0,34.0,0
1511,-251.0,-21.0,35.0,0
1512,-251.0,-23.0,35.0,0
1513,-248.0,-25.0,38.0,0
1514,-251.0,-23.0,31.0,0
1515,-248.0,-21.0,30.0,0
1516,-253.0,-22.0,28.0,0
1517,-251.0,-24.0,23.0,0
1518,-248.0,-22.0,28.0,0
1519,-252.0,-24.0,26.0,0
1520,-251.0,-24.0,23.0,0
1521,-252.0,-26.0,19.0,0
1522,-249.0,-23.0,21.0,0
1523,-253.0,-24.0,19.0,0
1524,-254.0,-25.0,20.0,0
1525,-254.0,-23.0,20.0,0
1526,-253.0,-23.0,17.0,0
1527,-252.0,-20.0,23.0,0
1528,-254.0,-16.0,24.0,0
1529,-254.0,-16.0,19.0,0
1530,-253.0,-19.0,20.0,0
1531,-254.0,-13.0,23.0,0
1532,-255.0,-14.0,20.0,0
1533,-256.0,-17.0,20.0,0
1534,-256.0,-14.0,17.0,0
1535,-256.0,-12.0,18.0,0
1536,-251.0,-18.0,16.0,0
1537,-249.0,-15.0,11.0,0
1538,-250.0,-13.0,15.0,0
1539,-250.0,-19.0,17.0,0
1540,-247.0,-18.0,14.0,0
1541,-251.0,-16.0,11.0,0
1542,-253.0,-16.0,14.0,0
1543,-253.0,-18.0,18.0,0
1544,-255.0,-18.0,17.0,0
1545,-256.0,-17.0,18.0,0
1546,-254.0,-13.0,18.0,0
1547,-255.0,-13.0,14.0,0
1548,-255.0,-15.0,17.0,0
1549,-255.0,-10.0,12.0,0
1550,-254.0,-10.0,13.0,0
1551,-253.0,-13.0,12.0,0
1552,-252.0,-11.0,14.0,0
1553,-253.0,-12.0,7.0,0
1554,-252.0,-14.0,12.0,0
1555,-255.0,-14.0,12.0,0
1556,-255.0,-16.0,10.0,0
1557,-254.0,-19.0,8.0,0
1558,-256.0,-21.0,9.0,0
1559,-254.0,-22.0,5.0,0
1560,-252.0,-22.0,10.0,0
1561,-254.0,-21.0,11.0,0
1562,-256.0,-21.0,1.0,0
1563,-258.0,-21.0,7.0,0
1564,-252.0,-19.0,13.0,0
1565,-252.0,-19.0,17.0,0
1566,-249.0,-18.0,18.0,0
1567,-247.0,-17.0,19.0,0
1568,-246.0,-19.0,21.0,0
1569,-248.0,-12.0,26.0,0
1570,-247.0,-16.0,23.0,0
1571,-247.0,-14.0,26.0,0
1572,-251.0,-10.0,24.0,0
1573,-251.0,-11.0,27.0,0
1574,-252.0,-10.0,22.0,0
1575,-251.0,-11.0,18.0,0
1576,-252.0,-9.0,28.0,0
1577,-254.0,-7.0,22.0,0
1578,-254.0,-6.0,22.0,0
1579,-254.0,-7.0,22.0,0
1580,-254.0,-8.0,18.0,0
1581,-255.0,-5.0,18.0,0
1582,-252.0,-10.0,19.0,0
1583,-252.0,-7.0,16.0,0
1584,-251.0,-10.0,14.0,0
1585,-247.0,-13.0,18.0,0
1586,-249.0,-13.0,15.0,0
1587,-249.0,-10.0,20.0,0
1588,-249.0,-12.0,14.0,0
1589,-248.0,-11.0,15.0,0
1590,-251.0,-9.0,14.0,0
1591,-256.0,-5.0,13.0,0
1592,-255.0,-6.0,11.0,0
1593,-256.0,-1.0,8.0,0
1594,-262.0,3.0,5.0,0
1595,-259.0,4.0,6.0,0
1596,-264.0,6.0,-1.0,0
1597,-266.0,7.0,-5.0,0
1598,-262.0,8.0,-6.0,0
1599,-261.0,3.0,-8.0,0
1600,-261.0,2.0,-13.0,0
1601,-261.0,0.0,-12.0,0
1602,-260.0,-4.0,-13.0,0
1603,-258.0,-6.0,-18.0,0
1604,-257.0,-11.0,-17.0,0
1605,-257.0,-16.0,-19.0,0
1606,-257.0,-16.0,-18.0,0
1607,-256.0,-21.0,-9.0,0
1608,-254.0,-23.0,-12.0,0
1609,-248.0,-24.0,-9.0,0
1610,-245.0,-28.0,-10.0,0
1611,-246.0,-25.0,-11.0,0
1612,-249.0,-22.0,-7.0,0
1613,-248.0,-21.0,-8.0,0
1614,-247.0,-21.0,-6.0,0
1615,-246.0,-20.0,-6.0,0
1616,-251.0,-20.0,-9.0,0
1617,-256.0,-19.0,-9.0,0
1618,-256.0,-18.0,-12.0,0
1619,-258.0,-17.0,-10.0,0
1620,-261.0,-17.0,-16.0,0
1621,-260.0,-19.0,-20.0,0
1622,-261.0,-13.0,-19.0,0
1623,-266.0,-13.0,-20.0,0
1624,-270.0,-10.0,-23.0,0
1625,-269.0,-7.0,-29.0,0
1626,-267.0,-4.0,-26.0,0
1627,-263.0,-3.0,-28.0,0
1628,-264.0,-1.0,-25.0,0
1629,-262.0,-5.0,-24.0,0
1630,-259.0,-7.0,-20.0,0
1631,-260.0,-12.0,-20.0,0
1632,-258.0,-16.0,-18.0,0
1633,-259.0,-14.0,-9.0,0
1634,-259.0,-20.0,-8.0,0
1635,-257.0,-20.0,-12.0,0
1636,-260.0,-15.0,-15.0,0
1637,-260.0,-15.0,-16.0,0
1638,-257.0,-7.0,-19.0,0
1639,-258.0,-1.0,-23.0,0
1640,-257.0,-3.0,-31.0,0
1641,-261.0,4.0,-31.0,0
1642,-260.0,7.0,-33.0,0
1643,-262.0,7.0,-39.0,0
1644,-263.0,6.0,-39.0,0
1645,-261.0,8.0,-38.0,0
1646,-266.0,8.0,-42.0,0
1647,-267.0,7.0,-42.0,0
1648,-279.0,8.0,-45.0,0
1649,-273.0,8.0,-40.0,0
1650,-276.0,9.0,-42.0,0
1651,-277.0,11.0,-46.0,0
1652,-278.0,18.0,-51.0,0
1653,-277.0,19.0,-51.0,0
1654,-277.0,17.0,-51.0,0
1655,-275.0,15.0,-50.0,0
1656,-274.0,13.0,-51.0,0
1657,-275.0,16.0,-48.0,0
1658,-271.0,13.0,-50.0,0
1659,-272.0,16.0,-55.0,0
1660,-271.0,16.0,-52.0,0
1661,-270.0,21.0,-55.0,0
1662,-266.0,20.0,-60.0,0
1663,-266.0,18.0,-54.0,0
1664,-269.0,21.0,-56.0,0
1665,-267.0,20.0,-57.0,0
1666,-266.0,21.0,-61.0,0
1667,-264.0,21.0,-62.0,0
1668,-264.0,20.0,-64.0,0
1669,-260.0,22.0,-69.0,0
1670,-260.0,18.0,-66.0,0
1671,-260.0,19.0,-71.0,0
1672,-257.0,15.0,-69.0,0
1673,-255.0,11.0,-66.0,0
1674,-254.0,9.0,-68.0,0
1675,-256.0,9.0,-72.0,0
1676,-254.0,7.0,-65.0,0
1677,-254.0,5.0,-69.0,0
1678,-255.0,4.0,-73.0,0
1679,-255.0,4.0,-74.0,0
1680,-255.0,5.0,-73.0,0
1681,-255.0,8.0,-74.0,0
1682,-254.0,5.0,-76.0,0
1683,-253.0,0.0,-76.0,0
1684,-256.0,1.0,-81.0,0
1685,-255.0,-1.0,-82.0,0
1686,-257.0,3.0,-81.0,0
1687,-259.0,-4.0,-82.0,0
1688,-258.0,-2.0,-83.0,0
1689,-256.0,-2.0,-84.0,0
1690,-257.0,-4.0,-90.0,0
1691,-254.0,-4.0,-83.0,0
1692,-249.0,-4.0,-92.0,0
1693,-247.0,-8.0,-91.0,0
1694,-243.0,-6.0,-93.0,0
1695,-242.0,-7.0,-89.0,0
1696,-238.0,-10.0,-92.0,0
1697,-238.0,-9.0,-91.0,0
1698,-239.0,-13.0,-94.0,0
1699,-242.0,-14.0,-95.0,0
1700,-239.0,-15.0,-95.0,0
1701,-237.0,-16.0,-94.0,0
1702,-236.0,-11.0,-96.0,0
1703,-232.0,-14.0,-95.0,0
1704,-229.0,-10.0,-98.0,0
1705,-228.0,-11.0,-97.0,0
1706,-227.0,-12.0,-92.0,0
1707,-231.0,-12.0,-97.0,0
1708,-232.0,-14.0,-98.0,0
1709,-235.0,-14.0,-96.0,0
1710,-233.0,-18.0,-96.0,0
1711,-236.0,-18.0,-93.0,0
1712,-235.0,-18.0,-86.0,0
1713,-242.0,-18.0,-94.0,0
1714,-240.0,-18.0,-93.0,0
1715,-241.0,-18.0,-91.0,0
1716,-239.0,-20.0,-99.0,0
1717,-241.0,-17.0,-103.0,0
1718,-240.0,-15.0,-104.0,0
1719,-236.0,-16.0,-101.0,0
1720,-235.0,-16.0,-99.0,0
1721,-236.0,-20.0,-101.0,0
1722,-239.0,-22.0,-95.0,0
1723,-241.0,-26.0,-101.0,0
1724,-243.0,-23.0,-99.0,0
1725,-244.0,-26.0,-100.0,0
1726,-243.0,-25.0,-100.0,0
1727,-240.0,-21.0,-100.0,0
1728,-236.0,-19.0,-106.0,0
1729,-236.0,-16.0,-104.0,0
1730,-236.0,-15.0,-98.0,0
1731,-236.0,-15.0,-103.0,0
1732,-238.0,-16.0,-103.0,0
1733,-237.0,-15.0,-101.0,0
1734,-236.0,-15.0,-102.0,0
1735,-240.0,-12.0,-100.0,0
1736,-238.0,-16.0,-93.0,0
1737,-244.0,-12.0,-96.0,0
1738,-246.0,-13.0,-91.0,0
1739,-240.0,-14.0,-96.0,0
1740,-241.0,-11.0,-89.0,0
1741,-236.0,-17.0,-94.0,0
1742,-237.0,-16.0,-94.0,0
1743,-236.0,-17.0,-95.0,0
1744,-236.0,-13.0,-96.0,0
1745,-231.0,-13.0,-98.0,0
1746,-234.0,-11.0,-98.0,0
1747,-232.0,-14.0,-105.0,0
1748,-235.0,-15.0,-103.0,0
1749,-235.0,-14.0,-100.0,0
1750,-238.0,-17.0,-101.0,0
1751,-241.0,-17.0,-97.0,0
1752,-242.0,-18.0,-96.0,0
1753,-240.0,-16.0,-98.0,0
1754,-242.0,-16.0,-97.0,0
1755,-242.0,-19.0,-101.0,0
1756,-239.0,-19.0,-95.0,0
1757,-241.0,-23.0,-103.0,0
1758,-242.0,-19.0,-108.0,0
1759,-238.0,-23.0,-106.0,0
1760,-237.0,-27.0,-109.0,0
1761,-236.0,-25.0,-113.0,0
1762,-234.0,-29.0,-112.0,0
1763,-232.0,-29.0,-113.0,0
1764,-233.0,-30.0,-113.0,0
1765,-228.0,-29.0,-115.0,0
1766,-233.0,-32.0,-113.0,0
1767,-235.0,-28.0,-111.0,0
1768,-234.0,-31.0,-115.0,0
1769,-235.0,-28.0,-117.0,0
1770,-233.0,-29.0,-117.0,0
1771,-230.0,-26.0,-119.0,0
1772,-227.0,-28.0,-120.0,0
1773,-228.0,-28.0,-115.0,0
1774,-228.0,-30.0,-117.0,0
1775,-227.0,-29.0,-116.0,0
1776,-225.0,-30.0,-114.0,0
1777,-227.0,-27.0,-116.0,0
1778,-230.0,-25.0,-117.0,0
1779,-230.0,-23.0,-114.0,0
1780,-230.0,-26.0,-119.0,0
1781,-227.0,-26.0,-120.0,0
1782,-225.0,-26.0,-120.0,0
1783,-229.0,-25.0,-120.0,0
1784,-226.0,-23.0,-119.0,0
1785,-228.0,-23.0,-124.0,0
1786,-229.0,-24.0,-121.0,0
1787,-225.0,-24.0,-124.0,0
1788,-224.0,-23.0,-129.0,0
1789,-227.0,-25.0,-125.0,0
1790,-225.0,-30.0,-129.0,0
1791,-224.0,-30.0,-128.0,0
1792,-221.0,-34.0,-126.0,0
1793,-222.0,-32.0,-130.0,0
1794,-225.0,-33.0,-131.0,0
1795,-224.0,-35.0,-130.0,0
1796,-223.0,-35.0,-132.0,0
1797,-220.0,-37.0,-131.0,0
1798,-222.0,-37.0,-129.0,0
1799,-223.0,-33.0,-131.0,0
1800,-221.0,-38.0,-132.0,0
1801,-221.0,-41.0,-129.0,0
1802,-222.0,-37.0,-131.0,0
1803,-221.0,-40.0,-130.0,0
1804,-221.0,-40.0,-130.0,0
1805,-218.0,-40.0,-133.0,0
1806,-214.0,-43.0,-130.0,0
1807,-214.0,-39.0,-131.0,0
1808,-211.0,-42.0,-132.0,0
1809,-215.0,-38.0,-137.0,0
1810,-212.0,-40.0,-135.0,0
1811,-211.0,-40.0,-136.0,0
1812,-211.0,-41.0,-136.0,0
1813,-208.0,-44.0,-135.0,0
1814,-211.0,-42.0,-138.0,0
1815,-208.0,-42.0,-136.0,0
1816,-208.0,-40.0,-137.0,0
1817,-208.0,-41.0,-139.0,0
1818,-208.0,-39.0,-138.0,0
1819,-211.0,-39.0,-136.0,0
1820,-209.0,-40.0,-135.0,0
1821,-211.0,-40.0,-138.0,0
1822,-216.0,-40.0,-136.0,0
1823,-213.0,-42.0,-141.0,0
1824,-214.0,-40.0,-139.0,0
1825,-220.0,-38.0,-143.0,0
1826,-215.0,-43.0,-144.0,0
1827,-210.0,-46.0,-141.0,0
1828,-218.0,-40.0,-145.0,0
1829,-213.0,-40.0,-146.0,0
1830,-212.0,-42.0,-146.0,0
1831,-213.0,-42.0,-147.0,0
1832,-214.0,-43.0,-145.0,0
1833,-215.0,-45.0,-146.0,0
1834,-214.0,-40.0,-146.0,0
1835,-214.0,-43.0,-150.0,0
1836,-210.0,-44.0,-151.0,0
1837,-208.0,-43.0,-148.0,0
1838,-208.0,-47.0,-151.0,0
1839,-207.0,-45.0,-149.0,0
1840,-204.0,-42.0,-150.0,0
1841,-207.0,-39.0,-152.0,0
1842,-206.0,-43.0,-147.0,0
1843,-207.0,-47.0,-151.0,0
1844,-199.0,-46.0,-157.0,0
1845,-200.0,-44.0,-155.0,0
1846,-199.0,-44.0,-155.0,0
1847,-199.0,-39.0,-155.0,0
1848,-201.0,-43.0,-161.0,0
1849,-197.0,-43.0,-158.0,0
1850,-197.0,-37.0,-159.0,0
1851,-196.0,-40.0,-164.0,0
1852,-197.0,-36.0,-162.0,0
1853,-199.0,-33.0,-164.0,0
1854,-193.0,-36.0,-164.0,0
1855,-192.0,-36.0,-163.0,0
1856,-192.0,-39.0,-162.0,0
1857,-189.0,-38.0,-163.0,0
1858,-185.0,-46.0,-167.0,0
1859,-184.0,-42.0,-167.0,0
1860,-183.0,-38.0,-168.0,0
1861,-186.0,-41.0,-169.0,0
1862,-188.0,-40.0,-169.0,0
1863,-185.0,-38.0,-170.0,0
1864,-189.0,-41.0,-170.0,0
1865,-181.0,-42.0,-167.0,0
1866,-188.0,-41.0,-173.0,0
1867,-187.0,-39.0,-177.0,0
1868,-190.0,-34.0,-179.0,0
1869,-189.0,-36.0,-181.0,0
1870,-182.0,-35.0,-180.0,0
1871,-186.0,-36.0,-177.0,0
1872,-184.0,-37.0,-181.0,0
1873,-182.0,-41.0,-180.0,0
1874,-181.0,-40.0,-181.0,0
1875,-182.0,-43.0,-179.0,0
1876,-179.0,-38.0,-182.0,0
1877,-182.0,-45.0,-184.0,0
1878,-183.0,-44.0,-180.0,0
1879,-188.0,-46.0,-185.0,0
1880,-184.0,-49.0,-185.0,0
1881,-184.0,-50.0,-187.0,0
1882,-185.0,-49.0,-185.0,0
1883,-184.0,-45.0,-189.0,0
1884,-183.0,-42.0,-183.0,0
1885,-184.0,-44.0,-185.0,0
1886,-184.0,-44.0,-182.0,0
1887,-186.0,-47.0,-176.0,0
1888,-185.0,-46.0,-176.0,0
1889,-185.0,-51.0,-180.0,0
1890,-183.0,-51.0,-181.0,0
1891,-183.0,-50.0,-179.0,0
1892,-181.0,-53.0,-181.0,0
1893,-175.0,-57.0,-178.0,0
1894,-176.0,-55.0,-181.0,0
1895,-177.0,-58.0,-182.0,0
1896,-178.0,-57.0,-179.0,0
1897,-174.0,-59.0,-181.0,0
1898,-171.0,-59.0,-182.0,0
1899,-174.0,-57.0,-181.0,0
1900,-172.0,-59.0,-184.0,0
1901,-171.0,-61.0,-184.0,0
1902,-164.0,-60.0,-182.0,0
1903,-163.0,-61.0,-184.0,0
1904,-162.0,-63.0,-187.0,0
1905,-159.0,-66.0,-185.0,0
1906,-161.0,-62.0,-184.0,0
1907,-169.0,-63.0,-186.0,0
1908,-171.0,-63.0,-184.0,0
1909,-166.0,-66.0,-188.0,0
1910,-171.0,-68.0,-185.0,0
1911,-171.0,-73.0,-188.0,0
1912,-171.0,-74.0,-188.0,0
1913,-171.0,-75.0,-190.0,0
1914,-168.0,-80.0,-190.0,0
1915,-172.0,-80.0,-187.0,0
1916,-170.0,-84.0,-192.0,0
1917,-167.0,-82.0,-192.0,0
1918,-163.0,-90.0,-191.0,0
1919,-162.0,-90.0,-189.0,0
1920,-161.0,-85.0,-194.0,0
1921,-158.0,-85.0,-200.0,0
1922,-153.0,-86.0,-200.0,0
1923,-153.0,-84.0,-197.0,0
1924,-148.0,-86.0,-198.0,0
1925,-149.0,-81.0,-195.0,0
1926,-149.0,-84.0,-196.0,0
1927,-150.0,-81.0,-194.0,0
1928,-145.0,-84.0,-197.0,0
1929,-151.0,-86.0,-192.0,0
1930,-151.0,-85.0,-194.0,0
1931,-150.0,-90.0,-195.0,0
1932,-150.0,-84.0,-195.0,0
1933,-157.0,-82.0,-190.0,0
1934,-154.0,-85.0,-189.0,0
1935,-152.0,-80.0,-188.0,0
1936,-157.0,-79.0,-185.0,0
1937,-156.0,-82.0,-183.0,0
1938,-154.0,-85.0,-187.0,0
1939,-160.0,-83.0,-184.0,0
1940,-158.0,-85.0,-184.0,0
1941,-155.0,-88.0,-183.0,0
1942,-158.0,-83.0,-186.0,0
1943,-154.0,-84.0,-180.0,0
1944,-156.0,-87.0,-184.0,0
1945,-155.0,-85.0,-182.0,0
1946,-154.0,-85.0,-183.0,0
1947,-154.0,-88.0,-183.0,0
1948,-153.0,-92.0,-183.0,0
1949,-156.0,-90.0,-183.0,0
1950,-149.0,-95.0,-188.0,0
1951,-148.0,-96.0,-186.0,0
1952,-145.0,-94.0,-191.0,0
1953,-149.0,-98.0,-185.0,0
1954,-146.0,-99.0,-189.0,0
1955,-145.0,-102.0,-193.0,0
1956,-147.0,-105.0,-189.0,0
1957,-142.0,-106.0,-189.0,0
1958,-140.0,-107.0,-187.0,0
1959,-144.0,-109.0,-185.0,0
1960,-145.0,-110.0,-184.0,0
1961,-144.0,-109.0,-186.0,0
1962,-144.0,-111.0,-183.0,0
1963,-143.0,-110.0,-186.0,0
1964,-143.0,-112.0,-185.0,0
1965,-144.0,-110.0,-186.0,0
1966,-143.0,-110.0,-178.0,0
1967,-141.0,-118.0,-180.0,0
1968,-142.0,-116.0,-181.0,0
1969,-140.0,-116.0,-181.0,0
1970,-141.0,-119.0,-179.0,0
1971,-140.0,-119.0,-181.0,0
1972,-141.0,-118.0,-178.0,0
1973,-140.0,-121.0,-177.0,0
1974,-134.0,-116.0,-175.0,0
1975,-141.0,-120.0,-179.0,0
1976,-141.0,-121.0,-180.0,0
1977,-141.0,-126.0,-174.0,0
1978,-140.0,-122.0,-173.0,0
1979,-135.0,-124.0,-175.0,0
1980,-132.0,-128.0,-176.0,0
1981,-135.0,-125.0,-176.0,0
1982,-134.0,-133.0,-177.0,0
1983,-133.0,-131.0,-176.0,0
1984,-131.0,-132.0,-177.0,0
1985,-133.0,-135.0,-175.0,0
1986,-133.0,-133.0,-176.0,0
1987,-128.0,-135.0,-177.0,0
1988,-130.0,-134.0,-174.0,0
1989,-128.0,-135.0,-175.0,0
1990,-123.0,-138.0,-176.0,0
1991,-126.0,-140.0,-178.0,0
1992,-124.0,-140.0,-178.0,0
1993,-122.0,-140.0,-176.0,0
1994,-121.0,-142.0,-175.0,0
1995,-120.0,-141.0,-175.0,0
1996,-119.0,-141.0,-177.0,0
1997,-117.0,-144.0,-179.0,0
1998,-117.0,-146.0,-179.0,0
1999,-111.0,-150.0,-178.0,0
2000,-111.0,-149.0,-175.0,0
2001,-111.0,-151.0,-175.0,0
2002,-112.0,-149.0,-178.0,0
2003,-105.0,-149.0,-176.0,0
2004,-105.0,-151.0,-171.0,0
2005,-104.0,-149.0,-176.0,0
2006,-101.0,-150.0,-170.0,0
2007,-98.0,-150.0,-170.0,0
2008,-94.0,-147.0,-171.0,0
2009,-97.0,-150.0,-174.0,0
2010,-97.0,-149.0,-173.0,0
2011,-93.0,-149.0,-170.0,0
2012,-94.0,-152.0,-171.0,0
2013,-94.0,-151.0,-173.0,0
2014,-91.0,-151.0,-168.0,0
2015,-92.0,-157.0,-171.0,0
2016,-90.0,-155.0,-166.0,0
2017,-89.0,-160.0,-167.0,0
2018,-86.0,-159.0,-171.0,0
2019,-90.0,-160.0,-168.0,0
2020,-89.0,-161.0,-167.0,0
2021,-90.0,-163.0,-170.0,0
2022,-87.0,-163.0,-172.0,0
2023,-82.0,-168.0,-169.0,0
2024,-88.0,-164.0,-169.0,0
2025,-84.0,-167.0,-170.0,0
2026,-82.0,-169.0,-173.0,0
2027,-80.0,-170.0,-171.0,0
2028,-82.0,-168.0,-171.0,0
2029,-83.0,-171.0,-167.0,0
2030,-83.0,-168.0,-171.0,0
2031,-81.0,-171.0,-167.0,0
2032,-86.0,-173.0,-167.0,0
2033,-86.0,-171.0,-168.0,0
2034,-83.0,-171.0,-165.0,0
2035,-84.0,-168.0,-167.0,0
2036,-88.0,-170.0,-163.0,0
2037,-86.0,-171.0,-168.0,0
2038,-86.0,-170.0,-165.0,0
2039,-86.0,-173.0,-168.0,0
2040,-87.0,-166.0,-168.0,0
2041,-87.0,-171.0,-167.0,0
2042,-87.0,-170.0,-167.0,0
2043,-84.0,-174.0,-166.0,0
2044,-85.0,-172.0,-169.0,0
2045,-84.0,-174.0,-169.0,0
2046,-80.0,-176.0,-168.0,0
2047,-79.0,-175.0,-172.0,0
2048,-76.0,-174.0,-176.0,0
2049,-73.0,-174.0,-178.0,0
2050,-75.0,-175.0,-174.0,0
2051,-76.0,-173.0,-174.0,0
2052,-72.0,-174.0,-173.0,0
2053,-72.0,-176.0,-175.0,0
2054,-68.0,-176.0,-176.0,0
2055,-72.0,-179.0,-175.0,0
2056,-68.0,-182.0,-175.0,0
2057,-65.0,-181.0,-176.0,0
2058,-67.0,-181.0,-178.0,0
2059,-67.0,-183.0,-172.0,0
2060,-64.0,-185.0,-176.0,0
2061,-70.0,-186.0,-172.0,0
2062,-65.0,-182.0,-175.0,0
2063,-65.0,-183.0,-173.0,0
2064,-65.0,-190.0,-170.0,0
2065,-64.0,-187.0,-173.0,0
2066,-62.0,-187.0,-168.0,0
2067,-63.0,-186.0,-169.0,0
2068,-62.0,-190.0,-169.0,0
2069,-61.0,-188.0,-165.0,0
2070,-60.0,-189.0,-166.0,0
2071,-59.0,-192.0,-165.0,0
2072,-61.0,-189.0,-163.0,0
2073,-59.0,-185.0,-168.0,0
2074,-59.0,-189.0,-163.0,0
2075,-63.0,-188.0,-163.0,0
2076,-61.0,-187.0,-164.0,0
2077,-59.0,-191.0,-165.0,0
2078,-57.0,-186.0,-165.0,0
2079,-56.0,-192.0,-168.0,0
2080,-56.0,-189.0,-164.0,0
2081,-56.0,-189.0,-166.0,0
2082,-58.0,-189.0,-164.0,0
2083,-57.0,-188.0,-164.0,0
2084,-57.0,-187.0,-164.0,0
2085,-52.0,-190.0,-164.0,0
2086,-54.0,-187.0,-163.0,0
2087,-53.0,-189.0,-163.0,0
2088,-48.0,-189.0,-163.0,0
2089,-48.0,-187.0,-165.0,0
2090,-48.0,-190.0,-160.0,0
2091,-46.0,-191.0,-160.0,0
2092,-46.0,-190.0,-160.0,0
2093,-44.0,-188.0,-162.0,0
2094,-45.0,-193.0,-161.0,0
2095,-44.0,-192.0,-159.0,0
2096,-45.0,-193.0,-163.0,0
2097,-42.0,-194.0,-159.0,0
2098,-39.0,-197.0,-160.0,0
2099,-40.0,-196.0,-160.0,0
2100,-42.0,-195.0,-163.0,0
2101,-41.0,-196.0,-159.0,0
2102,-44.0,-197.0,-159.0,0
2103,-41.0,-195.0,-164.0,0
2104,-41.0,-196.0,-154.0,0
2105,-43.0,-198.0,-161.0,0
2106,-39.0,-197.0,-160.0,0
2107,-40.0,-197.0,-164.0,0
2108,-38.0,-195.0,-160.0,0
2109,-42.0,-194.0,-160.0,0
2110,-41.0,-193.0,-162.0,0
2111,-37.0,-194.0,-161.0,0
2112,-34.0,-198.0,-161.0,0
2113,-37.0,-193.0,-164.0,0
2114,-36.0,-197.0,-164.0,0
2115,-37.0,-197.0,-162.0,0
2116,-31.0,-198.0,-162.0,0
2117,-32.0,-200.0,-165.0,0
2118,-29.0,-201.0,-163.0,0
2119,-30.0,-200.0,-161.0,0
2120,-33.0,-201.0,-161.0,0
2121,-31.0,-201.0,-159.0,0
2122,-32.0,-203.0,-160.0,0
2123,-30.0,-199.0,-160.0,0
2124,-29.0,-201.0,-157.0,0
2125,-25.0,-199.0,-156.0,0
2126,-27.0,-200.0,-162.0,0
2127,-25.0,-200.0,-153.0,0
2128,-24.0,-200.0,-155.0,0
2129,-27.0,-201.0,-153.0,0
2130,-24.0,-204.0,-153.0,0
2131,-20.0,-206.0,-154.0,0
2132,-21.0,-203.0,-154.0,0
2133,-23.0,-205.0,-152.0,0
2134,-20.0,-205.0,-154.0,0
2135,-20.0,-205.0,-146.0,0
2136,-21.0,-206.0,-150.0,0
2137,-17.0,-209.0,-151.0,0
2138,-18.0,-204.0,-152.0,0
2139,-14.0,-206.0,-154.0,0
2140,-13.0,-207.0,-153.0,0
2141,-12.0,-206.0,-151.0,0
2142,-11.0,-206.0,-154.0,0
2143,-10.0,-207.0,-154.0,0
2144,-5.0,-208.0,-150.0,0
2145,-3.0,-207.0,-157.0,0
2146,-2.0,-209.0,-155.0,0
2147,-1.0,-207.0,-156.0,0
2148,1.0,-217.0,-150.0,0
2149,1.0,-209.0,-156.0,0
2150,1.0,-210.0,-155.0,0
2151,0.0,-209.0,-155.0,0
2152,0.0,-208.0,-152.0,0
2153,0.0,-208.0,-148.0,0
2154,0.0,-209.0,-150.0,0
2155,1.0,-207.0,-152.0,0
2156,-1.0,-208.0,-148.0,0
2157,0.0,-206.0,-151.0,0
2158,0.0,-205.0,-149.0,0
2159,0.0,-204.0,-150.0,0
2160,-2.0,-209.0,-151.0,0
2161,-4.0,-205.0,-150.0,0
2162,0.0,-203.0,-149.0,0
2163,-3.0,-206.0,-147.0,0
2164,-6.0,-202.0,-149.0,0
2165,-3.0,-206.0,-151.0,0
2166,-3.0,-205.0,-148.0,0
2167,-1.0,-205.0,-149.0,0
2168,-4.0,-203.0,-149.0,0
2169,0.0,-205.0,-148.0,0
2170,-3.0,-205.0,-148.0,0
2171,-3.0,-203.0,-147.0,0
2172,-3.0,-202.0,-150.0,0
2173,-7.0,-201.0,-147.0,0
2174,-3.0,-204.0,-148.0,0
2175,-2.0,-205.0,-146.0,0
2176,-4.0,-210.0,-148.0,0
2177,-5.0,-206.0,-150.0,0
2178,-5.0,-205.0,-152.0,0
2179,-4.0,-205.0,-152.0,0
2180,-5.0,-206.0,-149.0,0
2181,-2.0,-205.0,-151.0,0
2182,-5.0,-203.0,-148.0,0
2183,-6.0,-205.0,-150.0,0
2184,-8.0,-202.0,-154.0,0
2185,-7.0,-203.0,-152.0,0
2186,-9.0,-203.0,-153.0,0
2187,-8.0,-206.0,-150.0,0
2188,-9.0,-202.0,-151.0,0
2189,-4.0,-204.0,-151.0,0
2190,-10.0,-203.0,-149.0,0
2191,-8.0,-202.0,-150.0,0
2192,-7.0,-199.0,-149.0,0
2193,-8.0,-202.0,-147.0,0
2194,-8.0,-205.0,-153.0,0
2195,-6.0,-204.0,-148.0,0
2196,-4.0,-206.0,-149.0,0
2197,-6.0,-206.0,-149.0,0
2198,-6.0,-204.0,-150.0,0
2199,-3.0,-204.0,-150.0,0
2200,-6.0,-208.0,-147.0,0
2201,-7.0,-208.0,-149.0,0
2202,-6.0,-209.0,-149.0,0
2203,-7.0,-207.0,-147.0,0
2204,-5.0,-208.0,-149.0,0
2205,-7.0,-206.0,-154.0,0
2206,-6.0,-208.0,-148.0,0
2207,-3.0,-208.0,-150.0,0
2208,-1.0,-208.0,-151.0,0
2209,-5.0,-207.0,-151.0,0
2210,-3.0,-208.0,-151.0,0
2211,-5.0,-207.0,-149.0,0
2212,-4.0,-209.0,-152.0,0
2213,-2.0,-208.0,-154.0,0
2214,-3.0,-209.0,-147.0,0
2215,-1.0,-208.0,-154.0,0
2216,-5.0,-209.0,-149.0,0
2217,-1.0,-206.0,-153.0,0
2218,-6.0,-204.0,-151.0,0
2219,-6.0,-206.0,-150.0,0
2220,-5.0,-205.0,-149.0,0
2221,-4.0,-204.0,-153.0,0
2222,-5.0,-204.0,-153.0,0
2223,-6.0,-202.0,-155.0,0
2224,-6.0,-204.0,-157.0,0
2225,-6.0,-204.0,-155.0,0
2226,-8.0,-200.0,-155.0,0
2227,-7.0,-201.0,-155.0,0
2228,-6.0,-203.0,-156.0,0
2229,-9.0,-201.0,-156.0,0
2230,-8.0,-203.0,-154.0,0
2231,-12.0,-206.0,-158.0,0
2232,-12.0,-200.0,-156.0,0
2233,-14.0,-198.0,-159.0,0
2234,-9.0,-198.0,-155.0,0
2235,-11.0,-202.0,-154.0,0
2236,-13.0,-202.0,-159.0,0
2237,-13.0,-201.0,-158.0,0
2238,-9.0,-199.0,-159.0,0
2239,-9.0,-204.0,-160.0,0
2240,-11.0,-199.0,-159.0,0
2241,-8.0,-201.0,-158.0,0
2242,-9.0,-202.0,-158.0,0
2243,-8.0,-202.0,-161.0,0
2244,-7.0,-200.0,-162.0,0
2245,-6.0,-202.0,-163.0,0
2246,-7.0,-200.0,-159.0,0
2247,-7.0,-199.0,-160.0,0
2248,-5.0,-204.0,-162.0,0
2249,-5.0,-199.0,-158.0,0
2250,-6.0,-198.0,-157.0,0
2251,-1.0,-199.0,-163.0,0
2252,-4.0,-199.0,-159.0,0
2253,-3.0,-201.0,-162.0,0
2254,-3.0,-199.0,-160.0,0
2255,-6.0,-201.0,-157.0,0
2256,-9.0,-200.0,-162.0,0
2257,-3.0,-197.0,-158.0,0
2258,-3.0,-199.0,-159.0,0
2259,-8.0,-199.0,-165.0,0
2260,-6.0,-199.0,-164.0,0
2261,-6.0,-197.0,-162.0,0
2262,-6.0,-198.0,-163.0,0
2263,-9.0,-200.0,-164.0,0
2264,-8.0,-199.0,-161.0,0
2265,-5.0,-200.0,-158.0,0
2266,-9.0,-197.0,-162.0,0
2267,-10.0,-199.0,-161.0,0
2268,-10.0,-203.0,-166.0,0
2269,-11.0,-199.0,-164.0,0
2270,-10.0,-199.0,-159.0,0
2271,-10.0,-201.0,-165.0,0
2272,-8.0,-202.0,-167.0,0
2273,-9.0,-199.0,-164.0,0
2274,-7.0,-198.0,-164.0,0
2275,-9.0,-201.0,-161.0,0
2276,-13.0,-198.0,-158.0,0
2277,-8.0,-197.0,-162.0,0
2278,-9.0,-199.0,-158.0,0
2279,-12.0,-197.0,-165.0,0
2280,-11.0,-197.0,-164.0,0
2281,-9.0,-200.0,-161.0,0
2282,-11.0,-198.0,-161.0,0
2283,-11.0,-197.0,-159.0,0
2284,-9.0,-201.0,-157.0,0
2285,-11.0,-198.0,-162.0,0
2286,-11.0,-199.0,-165.0,0
2287,-12.0,-196.0,-163.0,0
2288,-11.0,-200.0,-160.0,0
2289,-12.0,-200.0,-161.0,0
2290,-10.0,-197.0,-165.0,0
2291,-13.0,-198.0,-161.0,0
2292,-11.0,-202.0,-160.0,0
2293,-10.0,-198.0,-160.0,0
2294,-12.0,-200.0,-166.0,0
2295,-10.0,-198.0,-163.0,0
2296,-11.0,-202.0,-161.0,0
2297,-9.0,-198.0,-163.0,0
2298,-11.0,-197.0,-160.0,0
2299,-9.0,-198.0,-164.0,0
2300,-10.0,-198.0,-161.0,0
2301,-10.0,-199.0,-165.0,0
2302,-7.0,-200.0,-159.0,0
2303,-8.0,-198.0,-161.0,0
2304,-9.0,-198.0,-159.0,0
2305,-14.0,-195.0,-160.0,0
2306,-13.0,-198.0,-159.0,0
2307,-14.0,-197.0,-159.0,0
2308,-12.0,-199.0,-160.0,0
2309,-15.0,-196.0,-161.0,0
2310,-12.0,-199.0,-160.0,0
2311,-12.0,-196.0,-163.0,0
2312,-12.0,-198.0,-162.0,0
2313,-12.0,-199.0,-163.0,0
2314,-13.0,-199.0,-161.0,0
2315,-11.0,-200.0,-159.0,0
2316,-9.0,-200.0,-155.0,0
2317,-11.0,-199.0,-158.0,0
2318,-14.0,-197.0,-161.0,0
2319,-14.0,-197.0,-159.0,0
2320,-12.0,-198.0,-159.0,0
2321,-11.0,-199.0,-161.0,0
2322,-14.0,-201.0,-160.0,0
2323,-15.0,-202.0,-168.0,0
2324,-12.0,-200.0,-161.0,0
2325,-13.0,-198.0,-159.0,0
2326,-11.0,-203.0,-162.0,0
2327,-11.0,-200.0,-160.0,0
2328,-12.0,-194.0,-162.0,0
2329,-12.0,-197.0,-157.0,0
2330,-12.0,-198.0,-165.0,0
2331,-12.0,-199.0,-162.0,0
2332,-14.0,-200.0,-161.0,0
2333,-15.0,-199.0,-158.0,0
2334,-10.0,-203.0,-161.0,0
2335,-13.0,-199.0,-160.0,0
2336,-14.0,-198.0,-160.0,0
2337,-11.0,-199.0,-159.0,0
2338,-13.0,-196.0,-158.0,0
2339,-12.0,-199.0,-161.0,0
2340,-15.0,-200.0,-159.0,0
2341,-10.0,-202.0,-162.0,0
2342,-15.0,-201.0,-160.0,0
2343,-10.0,-201.0,-158.0,0
2344,-12.0,-201.0,-163.0,0
2345,-15.0,-203.0,-158.0,0
2346,-12.0,-197.0,-160.0,0
2347,-11.0,-200.0,-163.0,0
2348,-16.0,-198.0,-161.0,0
2349,-12.0,-201.0,-162.0,0
2350,-11.0,-199.0,-161.0,0
2351,-9.0,-201.0,-162.0,0
2352,-12.0,-199.0,-158.0,0
2353,-12.0,-199.0,-162.0,0
2354,-11.0,-198.0,-163.0,0
2355,-9.0,-197.0,-159.0,0
2356,-10.0,-197.0,-157.0,0
2357,-13.0,-198.0,-159.0,0
2358,-12.0,-200.0,-162.0,0
2359,-12.0,-197.0,-162.0,0
2360,-12.0,-200.0,-159.0,0
2361,-10.0,-200.0,-162.0,0
2362,-13.0,-197.0,-158.0,0
2363,-10.0,-200.0,-158.0,0
2364,-10.0,-198.0,-162.0,0
2365,-10.0,-200.0,-156.0,0
2366,-10.0,-201.0,-165.0,0
2367,-10.0,-199.0,-158.0,0
2368,-12.0,-199.0,-162.0,0
2369,-10.0,-200.0,-158.0,0
2370,-13.0,-199.0,-158.0,0
2371,-10.0,-199.0,-161.0,0
2372,-9.0,-197.0,-159.0,0
2373,-9.0,-201.0,-159.0,0
2374,-11.0,-199.0,-160.0,0
2375,-10.0,-200.0,-160.0,0
2376,-9.0,-200.0,-158.0,0
2377,-9.0,-203.0,-159.0,0
2378,-8.0,-198.0,-158.0,0
2379,-11.0,-202.0,-160.0,0
2380,-7.0,-202.0,-160.0,0
2381,-10.0,-197.0,-158.0,0
2382,-8.0,-202.0,-158.0,0
2383,-9.0,-201.0,-157.0,0
2384,-6.0,-202.0,-156.0,0
2385,-9.0,-197.0,-155.0,0
2386,-8.0,-197.0,-162.0,0
2387,-7.0,-205.0,-158.0,0
2388,-7.0,-202.0,-158.0,0
2389,-5.0,-201.0,-163.0,0
2390,-10.0,-199.0,-160.0,0
2391,-11.0,-200.0,-161.0,0
2392,-8.0,-199.0,-159.0,0
2393,-8.0,-200.0,-159.0,0
2394,-9.0,-200.0,-160.0,0
2395,-10.0,-199.0,-159.0,0
2396,-9.0,-197.0,-159.0,0
2397,-10.0,-199.0,-159.0,0
2398,-9.0,-203.0,-159.0,0
2399,-5.0,-199.0,-158.0,0
