,accelerometer_x,accelerometer_y,accelerometer_z,fall
0,-6.0,-255.0,-23.0,0
1,-5.0,-258.0,-22.0,0
2,-7.0,-250.0,-22.0,0
3,-3.0,-257.0,-22.0,0
4,-4.0,-255.0,-21.0,0
5,-5.0,-253.0,-21.0,0
6,-6.0,-254.0,-18.0,0
7,-8.0,-257.0,-19.0,0
8,-6.0,-255.0,-18.0,0
9,-8.0,-256.0,-20.0,0
10,-8.0,-254.0,-18.0,0
11,-7.0,-258.0,-20.0,0
12,-8.0,-256.0,-20.0,0
13,-9.0,-255.0,-21.0,0
14,-6.0,-257.0,-20.0,0
15,-8.0,-255.0,-21.0,0
16,-9.0,-254.0,-19.0,0
17,-8.0,-255.0,-19.0,0
18,-8.0,-255.0,-18.0,0
19,-4.0,-259.0,-20.0,0
20,-4.0,-257.0,-20.0,0
21,-7.0,-256.0,-18.0,0
22,-5.0,-256.0,-17.0,0
23,-6.0,-255.0,-19.0,0
24,-3.0,-259.0,-20.0,0
25,-4.0,-257.0,-20.0,0
26,-7.0,-257.0,-20.0,0
27,-6.0,-257.0,-20.0,0
28,-9.0,-257.0,-21.0,0
29,-7.0,-253.0,-20.0,0
30,-5.0,-253.0,-19.0,0
31,-6.0,-254.0,-19.0,0
32,-5.0,-254.0,-20.0,0
33,-6.0,-255.0,-20.0,0
34,-4.0,-255.0,-19.0,0
35,-7.0,-256.0,-23.0,0
36,-6.0,-258.0,-18.0,0
37,-4.0,-253.0,-25.0,0
38,-6.0,-256.0,-15.0,0
39,-8.0,-254.0,-21.0,0
40,-3.0,-256.0,-22.0,0
41,-5.0,-255.0,-20.0,0
42,-5.0,-255.0,-21.0,0
43,-6.0,-258.0,-21.0,0
44,-2.0,-254.0,-20.0,0
45,-5.0,-255.0,-18.0,0
46,-4.0,-254.0,-17.0,0
47,-4.0,-253.0,-19.0,0
48,-5.0,-255.0,-20.0,0
49,-7.0,-260.0,-20.0,0
50,-6.0,-255.0,-20.0,0
51,-8.0,-257.0,-18.0,0
52,-8.0,-257.0,-21.0,0
53,-7.0,-258.0,-17.0,0
54,-7.0,-255.0,-24.0,0
55,-6.0,-254.0,-20.0,0
56,-9.0,-255.0,-24.0,0
57,-8.0,-254.0,-19.0,0
58,-9.0,-256.0,-20.0,0
59,-12.0,-257.0,-17.0,0
60,-6.0,-255.0,-19.0,0
61,-7.0,-257.0,-20.0,0
62,-8.0,-253.0,-19.0,0
63,-9.0,-253.0,-21.0,0
64,-5.0,-254.0,-19.0,0
65,-9.0,-258.0,-18.0,0
66,-3.0,-256.0,-21.0,0
67,-3.0,-260.0,-19.0,0
68,-6.0,-255.0,-21.0,0
69,-8.0,-253.0,-20.0,0
70,-7.0,-257.0,-20.0,0
71,-6.0,-254.0,-20.0,0
72,-8.0,-258.0,-20.0,0
73,-9.0,-256.0,-22.0,0
74,-5.0,-254.0,-20.0,0
75,-9.0,-257.0,-21.0,0
76,-6.0,-255.0,-17.0,0
77,-8.0,-253.0,-20.0,0
78,-7.0,-255.0,-19.0,0
79,-7.0,-256.0,-18.0,0
80,-7.0,-253.0,-20.0,0
81,-5.0,-254.0,-24.0,0
82,-5.0,-254.0,-19.0,0
83,-6.0,-255.0,-20.0,0
84,-3.0,-258.0,-18.0,0
85,-6.0,-254.0,-17.0,0
86,-6.0,-257.0,-19.0,0
87,-4.0,-257.0,-17.0,0
88,-8.0,-255.0,-17.0,0
89,-6.0,-255.0,-20.0,0
90,-5.0,-255.0,-19.0,0
91,-7.0,-255.0,-17.0,0
92,-4.0,-255.0,-19.0,0
93,-3.0,-256.0,-19.0,0
94,-4.0,-256.0,-21.0,0
95,-7.0,-254.0,-18.0,0
96,-8.0,-254.0,-17.0,0
97,-5.0,-256.0,-20.0,0
98,-8.0,-255.0,-20.0,0
99,-6.0,-257.0,-18.0,0
100,-5.0,-259.0,-19.0,0
101,-3.0,-258.0,-16.0,0
102,-5.0,-257.0,-15.0,0
103,-1.0,-255.0,-16.0,0
104,-6.0,-254.0,-17.0,0
105,-4.0,-255.0,-18.0,0
106,-5.0,-255.0,-18.0,0
107,-3.0,-254.0,-18.0,0
108,-4.0,-256.0,-16.0,0
109,-7.0,-253.0,-16.0,0
110,-4.0,-256.0,-18.0,0
111,-10.0,-254.0,-15.0,0
112,-6.0,-256.0,-18.0,0
113,-7.0,-255.0,-16.0,0
114,-5.0,-254.0,-18.0,0
115,-8.0,-255.0,-17.0,0
116,-3.0,-259.0,-19.0,0
117,-4.0,-257.0,-19.0,0
118,-5.0,-253.0,-20.0,0
119,-6.0,-258.0,-15.0,0
120,-4.0,-255.0,-18.0,0
121,-4.0,-255.0,-18.0,0
122,-4.0,-257.0,-20.0,0
123,-6.0,-255.0,-19.0,0
124,-6.0,-262.0,-17.0,0
125,-5.0,-256.0,-17.0,0
126,-4.0,-255.0,-17.0,0
127,-6.0,-255.0,-16.0,0
128,-6.0,-255.0,-15.0,0
129,-6.0,-253.0,-16.0,0
130,-6.0,-259.0,-19.0,0
131,-8.0,-258.0,-19.0,0
132,-7.0,-255.0,-19.0,0
133,-4.0,-253.0,-18.0,0
134,-7.0,-256.0,-18.0,0
135,-7.0,-255.0,-19.0,0
136,-5.0,-256.0,-17.0,0
137,-6.0,-254.0,-20.0,0
138,-8.0,-255.0,-19.0,0
139,-5.0,-258.0,-19.0,0
140,-5.0,-253.0,-18.0,0
141,-6.0,-255.0,-20.0,0
142,-5.0,-256.0,-18.0,0
143,-3.0,-256.0,-18.0,0
144,-5.0,-256.0,-16.0,0
145,-1.0,-256.0,-19.0,0
146,-7.0,-258.0,-19.0,0
147,-8.0,-255.0,-16.0,0
148,-8.0,-256.0,-20.0,0
149,-3.0,-253.0,-20.0,0
150,-7.0,-255.0,-20.0,0
151,-5.0,-256.0,-19.0,0
152,-8.0,-254.0,-19.0,0
153,-7.0,-257.0,-16.0,0
154,-6.0,-257.0,-15.0,0
155,-6.0,-257.0,-19.0,0
156,-7.0,-255.0,-15.0,0
157,-3.0,-255.0,-21.0,0
158,-3.0,-258.0,-18.0,0
159,-2.0,-256.0,-16.0,0
160,-3.0,-258.0,-18.0,0
161,-9.0,-257.0,-18.0,0
162,-6.0,-255.0,-21.0,0
163,-7.0,-256.0,-15.0,0
164,-4.0,-256.0,-16.0,0
165,-7.0,-256.0,-16.0,0
166,-5.0,-255.0,-17.0,0
167,-6.0,-258.0,-15.0,0
168,-3.0,-254.0,-15.0,0
169,-5.0,-256.0,-20.0,0
170,-4.0,-256.0,-18.0,0
171,-6.0,-257.0,-19.0,0
172,-6.0,-255.0,-20.0,0
173,-5.0,-258.0,-18.0,0
174,-4.0,-253.0,-18.0,0
175,-6.0,-253.0,-16.0,0
176,-4.0,-255.0,-20.0,0
177,-7.0,-253.0,-19.0,0
178,-6.0,-257.0,-19.0,0
179,-7.0,-257.0,-20.0,0
180,-2.0,-256.0,-21.0,0
181,-2.0,-257.0,-18.0,0
182,-5.0,-257.0,-19.0,0
183,-9.0,-255.0,-18.0,0
184,-10.0,-256.0,-19.0,0
185,-7.0,-257.0,-18.0,0
186,-7.0,-259.0,-16.0,0
187,-6.0,-256.0,-19.0,0
188,-4.0,-255.0,-21.0,0
189,-4.0,-251.0,-20.0,0
190,-9.0,-254.0,-19.0,0
191,-7.0,-256.0,-21.0,0
192,-8.0,-257.0,-20.0,0
193,-6.0,-255.0,-17.0,0
194,-6.0,-253.0,-17.0,0
195,-6.0,-256.0,-19.0,0
196,-5.0,-257.0,-17.0,0
197,-5.0,-256.0,-20.0,0
198,-3.0,-256.0,-19.0,0
199,-8.0,-254.0,-20.0,0
200,-8.0,-255.0,-20.0,0
201,-7.0,-256.0,-19.0,0
202,-7.0,-253.0,-20.0,0
203,-5.0,-254.0,-19.0,0
204,-6.0,-257.0,-19.0,0
205,-10.0,-255.0,-17.0,0
206,-4.0,-257.0,-17.0,0
207,-7.0,-256.0,-19.0,0
208,-8.0,-255.0,-19.0,0
209,-2.0,-257.0,-19.0,0
210,-8.0,-257.0,-20.0,0
211,-4.0,-251.0,-18.0,0
212,-4.0,-255.0,-17.0,0
213,-7.0,-255.0,-20.0,0
214,-4.0,-258.0,-19.0,0
215,-5.0,-256.0,-19.0,0
216,-3.0,-256.0,-19.0,0
217,-5.0,-256.0,-20.0,0
218,-5.0,-254.0,-16.0,0
219,-6.0,-253.0,-19.0,0
220,-9.0,-253.0,-18.0,0
221,-6.0,-257.0,-19.0,0
222,-6.0,-257.0,-18.0,0
223,-6.0,-256.0,-18.0,0
224,-6.0,-256.0,-18.0,0
225,-8.0,-257.0,-17.0,0
226,-4.0,-258.0,-19.0,0
227,-10.0,-257.0,-15.0,0
228,-6.0,-257.0,-18.0,0
229,-9.0,-256.0,-18.0,0
230,-7.0,-257.0,-21.0,0
231,-3.0,-256.0,-18.0,0
232,-7.0,-255.0,-18.0,0
233,-5.0,-256.0,-17.0,0
234,-4.0,-256.0,-20.0,0
235,-6.0,-254.0,-17.0,0
236,-6.0,-256.0,-19.0,0
237,-6.0,-254.0,-14.0,0
238,-5.0,-258.0,-19.0,0
239,-7.0,-255.0,-19.0,0
240,-6.0,-258.0,-16.0,0
241,-6.0,-254.0,-17.0,0
242,-5.0,-255.0,-18.0,0
243,-4.0,-257.0,-16.0,0
244,-4.0,-257.0,-14.0,0
245,-3.0,-255.0,-15.0,0
246,-6.0,-256.0,-16.0,0
247,-5.0,-255.0,-15.0,0
248,-8.0,-254.0,-11.0,0
249,-2.0,-257.0,-15.0,0
250,-6.0,-258.0,-17.0,0
251,-6.0,-259.0,-17.0,0
252,-8.0,-254.0,-18.0,0
253,-4.0,-252.0,-17.0,0
254,-6.0,-256.0,-16.0,0
255,-8.0,-255.0,-18.0,0
256,-8.0,-253.0,-13.0,0
257,-3.0,-255.0,-18.0,0
258,-5.0,-255.0,-17.0,0
259,-4.0,-255.0,-15.0,0
260,-6.0,-252.0,-14.0,0
261,-6.0,-257.0,-16.0,0
262,-7.0,-257.0,-16.0,0
263,-7.0,-258.0,-14.0,0
264,-4.0,-258.0,-17.0,0
265,-8.0,-251.0,-12.0,0
266,-3.0,-256.0,-16.0,0
267,-6.0,-256.0,-18.0,0
268,-7.0,-254.0,-13.0,0
269,-8.0,-253.0,-15.0,0
270,-9.0,-255.0,-14.0,0
271,-7.0,-254.0,-17.0,0
272,-8.0,-257.0,-12.0,0
273,-4.0,-254.0,-16.0,0
274,-10.0,-253.0,-12.0,0
275,-5.0,-258.0,-18.0,0
276,-4.0,-258.0,-16.0,0
277,-5.0,-252.0,-16.0,0
278,-4.0,-258.0,-14.0,0
279,-7.0,-257.0,-12.0,0
280,-4.0,-257.0,-17.0,0
281,-5.0,-258.0,-16.0,0
282,-4.0,-257.0,-16.0,0
283,-9.0,-257.0,-16.0,0
284,-9.0,-256.0,-17.0,0
285,-6.0,-256.0,-18.0,0
286,-5.0,-255.0,-15.0,0
287,-6.0,-256.0,-16.0,0
288,-7.0,-257.0,-17.0,0
289,-3.0,-255.0,-14.0,0
290,-5.0,-257.0,-15.0,0
291,-9.0,-254.0,-11.0,0
292,-3.0,-254.0,-14.0,0
293,-6.0,-257.0,-14.0,0
294,-6.0,-257.0,-16.0,0
295,-5.0,-257.0,-13.0,0
296,-6.0,-258.0,-17.0,0
297,-5.0,-258.0,-15.0,0
298,-7.0,-258.0,-18.0,0
299,-3.0,-256.0,-20.0,0
300,-7.0,-253.0,-16.0,0
301,-9.0,-255.0,-15.0,0
302,-7.0,-259.0,-20.0,0
303,-7.0,-258.0,-17.0,0
304,-8.0,-252.0,-17.0,0
305,-5.0,-259.0,-18.0,0
306,-6.0,-257.0,-18.0,0
307,-6.0,-255.0,-17.0,0
308,-4.0,-258.0,-18.0,0
309,-4.0,-255.0,-14.0,0
310,-7.0,-258.0,-17.0,0
311,-9.0,-254.0,-19.0,0
312,-9.0,-254.0,-18.0,0
313,-6.0,-256.0,-19.0,0
314,-5.0,-258.0,-18.0,0
315,-7.0,-254.0,-18.0,0
316,-7.0,-254.0,-15.0,0
317,-7.0,-256.0,-16.0,0
318,-5.0,-258.0,-13.0,0
319,-5.0,-257.0,-15.0,0
320,-4.0,-259.0,-18.0,0
321,-8.0,-255.0,-15.0,0
322,-8.0,-255.0,-18.0,0
323,-7.0,-254.0,-18.0,0
324,-5.0,-255.0,-14.0,0
325,-7.0,-256.0,-16.0,0
326,-11.0,-255.0,-16.0,0
327,-4.0,-256.0,-17.0,0
328,-8.0,-255.0,-16.0,0
329,-5.0,-255.0,-20.0,0
330,-6.0,-253.0,-15.0,0
331,-8.0,-258.0,-20.0,0
332,-7.0,-254.0,-17.0,0
333,-8.0,-256.0,-19.0,0
334,-9.0,-255.0,-18.0,0
335,-8.0,-254.0,-19.0,0
336,-8.0,-257.0,-17.0,0
337,-5.0,-257.0,-19.0,0
338,-5.0,-259.0,-21.0,0
339,-6.0,-257.0,-17.0,0
340,-7.0,-257.0,-17.0,0
341,-7.0,-255.0,-18.0,0
342,-12.0,-258.0,-15.0,0
343,-7.0,-256.0,-14.0,0
344,-6.0,-254.0,-18.0,0
345,-5.0,-254.0,-19.0,0
346,-7.0,-257.0,-19.0,0
347,-7.0,-252.0,-16.0,0
348,-9.0,-254.0,-19.0,0
349,-3.0,-257.0,-20.0,0
350,-7.0,-254.0,-17.0,0
351,-6.0,-257.0,-17.0,0
352,-10.0,-254.0,-18.0,0
353,-6.0,-257.0,-16.0,0
354,-5.0,-258.0,-20.0,0
355,-6.0,-259.0,-16.0,0
356,-6.0,-258.0,-19.0,0
357,-8.0,-255.0,-17.0,0
358,-6.0,-255.0,-20.0,0
359,-7.0,-254.0,-18.0,0
360,-8.0,-256.0,-20.0,0
361,-9.0,-257.0,-19.0,0
362,-6.0,-256.0,-18.0,0
363,-3.0,-253.0,-18.0,0
364,-6.0,-248.0,-19.0,0
365,-6.0,-257.0,-16.0,0
366,-6.0,-255.0,-19.0,0
367,-6.0,-255.0,-17.0,0
368,-7.0,-255.0,-18.0,0
369,-6.0,-257.0,-16.0,0
370,-6.0,-256.0,-18.0,0
371,-5.0,-257.0,-17.0,0
372,-6.0,-254.0,-18.0,0
373,-7.0,-257.0,-20.0,0
374,-6.0,-255.0,-18.0,0
375,-5.0,-256.0,-21.0,0
376,-8.0,-255.0,-20.0,0
377,-6.0,-255.0,-19.0,0
378,-5.0,-255.0,-18.0,0
379,-6.0,-255.0,-20.0,0
380,-5.0,-256.0,-18.0,0
381,-4.0,-255.0,-18.0,0
382,-5.0,-255.0,-17.0,0
383,-4.0,-256.0,-20.0,0
384,-8.0,-256.0,-19.0,0
385,-5.0,-255.0,-21.0,0
386,-13.0,-255.0,-22.0,0
387,-5.0,-259.0,-20.0,0
388,-8.0,-256.0,-20.0,0
389,-6.0,-257.0,-19.0,0
390,-6.0,-256.0,-15.0,0
391,-5.0,-257.0,-18.0,0
392,-8.0,-256.0,-19.0,0
393,-8.0,-255.0,-20.0,0
394,-8.0,-256.0,-19.0,0
395,-3.0,-260.0,-19.0,0
396,-6.0,-255.0,-20.0,0
397,-9.0,-253.0,-20.0,0
398,-6.0,-254.0,-19.0,0
399,-2.0,-256.0,-20.0,0
400,-6.0,-256.0,-17.0,0
401,-7.0,-257.0,-20.0,0
402,-8.0,-258.0,-20.0,0
403,-6.0,-256.0,-19.0,0
404,-5.0,-253.0,-19.0,0
405,-5.0,-256.0,-19.0,0
406,-8.0,-253.0,-20.0,0
407,-8.0,-256.0,-28.0,0
408,-7.0,-251.0,-20.0,0
409,-6.0,-257.0,-20.0,0
410,-8.0,-257.0,-22.0,0
411,-10.0,-253.0,-19.0,0
412,-7.0,-257.0,-18.0,0
413,-6.0,-253.0,-21.0,0
414,-8.0,-256.0,-20.0,0
415,-2.0,-256.0,-23.0,0
416,-7.0,-257.0,-23.0,0
417,-7.0,-255.0,-26.0,0
418,-4.0,-257.0,-21.0,0
419,-6.0,-256.0,-25.0,0
420,-6.0,-258.0,-23.0,0
421,-10.0,-258.0,-21.0,0
422,-6.0,-256.0,-24.0,0
423,-8.0,-259.0,-21.0,0
424,-4.0,-257.0,-20.0,0
425,-6.0,-260.0,-20.0,0
426,-8.0,-256.0,-20.0,0
427,-3.0,-258.0,-22.0,0
428,-8.0,-255.0,-25.0,0
429,-9.0,-256.0,-26.0,0
430,-8.0,-253.0,-23.0,0
431,-7.0,-253.0,-24.0,0
432,-8.0,-254.0,-21.0,0
433,-7.0,-254.0,-26.0,0
434,-8.0,-256.0,-22.0,0
435,-8.0,-255.0,-24.0,0
436,-8.0,-259.0,-23.0,0
437,-6.0,-257.0,-23.0,0
438,-6.0,-259.0,-23.0,0
439,-8.0,-256.0,-25.0,0
440,-6.0,-254.0,-22.0,0
441,-8.0,-256.0,-31.0,0
442,-5.0,-258.0,-28.0,0
443,-7.0,-259.0,-34.0,0
444,-7.0,-261.0,-39.0,0
445,-6.0,-261.0,-36.0,0
446,-7.0,-262.0,-42.0,0
447,-8.0,-262.0,-40.0,1
448,-12.0,-263.0,-43.0,1
449,-7.0,-268.0,-39.0,1
450,-6.0,-265.0,-44.0,1
451,-7.0,-265.0,-41.0,1
452,-7.0,-263.0,-39.0,1
453,-5.0,-265.0,-40.0,1
454,-5.0,-258.0,-46.0,1
455,-6.0,-257.0,-43.0,1
456,-4.0,-257.0,-42.0,1
457,-3.0,-254.0,-45.0,1
458,-1.0,-255.0,-41.0,1
459,0.0,-253.0,-46.0,1
460,-2.0,-256.0,-43.0,1
461,-3.0,-254.0,-43.0,1
462,-1.0,-254.0,-47.0,1
463,-6.0,-256.0,-47.0,1
464,-6.0,-253.0,-45.0,1
465,-7.0,-252.0,-49.0,1
466,-7.0,-253.0,-53.0,1
467,-7.0,-251.0,-48.0,1
468,-3.0,-251.0,-49.0,1
469,-8.0,-251.0,-46.0,1
470,-7.0,-252.0,-52.0,1
471,-6.0,-250.0,-47.0,1
472,-4.0,-247.0,-53.0,1
473,-4.0,-249.0,-57.0,1
474,-5.0,-248.0,-58.0,1
475,-8.0,-248.0,-55.0,1
476,-7.0,-243.0,-62.0,1
477,-4.0,-244.0,-60.0,1
478,-4.0,-246.0,-65.0,1
479,-6.0,-243.0,-68.0,1
480,-6.0,-240.0,-66.0,1
481,-8.0,-242.0,-67.0,1
482,-6.0,-237.0,-71.0,1
483,-3.0,-242.0,-67.0,1
484,-1.0,-239.0,-69.0,1
485,-3.0,-233.0,-73.0,1
486,-3.0,-232.0,-71.0,1
487,0.0,-227.0,-74.0,1
488,3.0,-226.0,-77.0,1
489,0.0,-222.0,-80.0,1
490,1.0,-215.0,-79.0,1
491,2.0,-211.0,-80.0,1
492,2.0,-205.0,-79.0,1
493,0.0,-196.0,-83.0,1
494,-1.0,-188.0,-85.0,1
495,-3.0,-180.0,-78.0,1
496,-7.0,-172.0,-79.0,1
497,-7.0,-162.0,-74.0,1
498,-9.0,-156.0,-72.0,1
499,-11.0,-148.0,-67.0,1
500,-12.0,-144.0,-70.0,1
501,-12.0,-139.0,-66.0,1
502,-12.0,-131.0,-63.0,1
503,-15.0,-130.0,-61.0,1
504,-15.0,-123.0,-64.0,1
505,-13.0,-120.0,-61.0,1
506,-17.0,-111.0,-56.0,1
507,-18.0,-103.0,-58.0,1
508,-20.0,-97.0,-51.0,1
509,-23.0,-90.0,-41.0,1
510,-28.0,-88.0,-29.0,1
511,-37.0,-90.0,-17.0,1
512,-37.0,-97.0,-5.0,1
513,-36.0,-106.0,4.0,1
514,-33.0,-118.0,6.0,1
515,-26.0,-125.0,3.0,1
516,-12.0,-135.0,-19.0,1
517,-1.0,-131.0,-37.0,1
518,0.0,-128.0,-58.0,1
519,0.0,-124.0,-83.0,1
520,0.0,-115.0,-103.0,1
521,0.0,-108.0,-112.0,1
522,1.0,-101.0,-105.0,1
523,5.0,-111.0,-93.0,1
524,5.0,-117.0,-79.0,1
525,8.0,-135.0,-58.0,1
526,13.0,-152.0,-39.0,1
527,12.0,-171.0,-30.0,1
528,10.0,-181.0,-23.0,1
529,8.0,-185.0,-38.0,1
530,4.0,-187.0,-55.0,1
531,3.0,-185.0,-79.0,1
532,3.0,-183.0,-94.0,1
533,-2.0,-186.0,-103.0,1
534,-15.0,-194.0,-102.0,1
535,-18.0,-207.0,-97.0,1
536,-25.0,-215.0,-90.0,1
537,-24.0,-232.0,-93.0,1
538,-27.0,-245.0,-98.0,1
539,-28.0,-253.0,-109.0,1
540,-24.0,-259.0,-119.0,1
541,-17.0,-261.0,-128.0,1
542,-11.0,-263.0,-129.0,1
543,-6.0,-267.0,-126.0,1
544,-6.0,-274.0,-123.0,1
545,-11.0,-283.0,-117.0,1
546,-12.0,-294.0,-113.0,1
547,-14.0,-299.0,-116.0,1
548,-16.0,-309.0,-121.0,1
549,-19.0,-310.0,-128.0,1
550,-26.0,-309.0,-131.0,1
551,-27.0,-311.0,-135.0,1
552,-35.0,-309.0,-136.0,1
553,-41.0,-311.0,-129.0,1
554,-48.0,-313.0,-126.0,1
555,-50.0,-318.0,-124.0,1
556,-54.0,-320.0,-119.0,1
557,-46.0,-336.0,-122.0,1
558,-44.0,-339.0,-119.0,1
559,-37.0,-343.0,-126.0,1
560,-23.0,-345.0,-115.0,1
561,-18.0,-344.0,-119.0,1
562,-16.0,-339.0,-118.0,1
563,-15.0,-337.0,-119.0,1
564,-13.0,-338.0,-123.0,1
565,-10.0,-337.0,-124.0,1
566,-6.0,-330.0,-126.0,1
567,-5.0,-320.0,-130.0,1
568,2.0,-319.0,-134.0,1
569,2.0,-311.0,-132.0,1
570,5.0,-301.0,-129.0,1
571,9.0,-299.0,-128.0,1
572,3.0,-289.0,-119.0,1
573,0.0,-286.0,-118.0,1
574,-3.0,-280.0,-116.0,1
575,-10.0,-284.0,-111.0,1
576,-19.0,-285.0,-102.0,1
577,-27.0,-295.0,-98.0,1
578,-34.0,-306.0,-91.0,1
579,-35.0,-317.0,-90.0,1
580,-36.0,-326.0,-84.0,1
581,-38.0,-349.0,-83.0,1
582,-41.0,-364.0,-84.0,1
583,-39.0,-378.0,-84.0,1
584,-36.0,-394.0,-82.0,1
585,-39.0,-408.0,-78.0,1
586,-27.0,-428.0,-80.0,1
587,-26.0,-435.0,-86.0,1
588,-26.0,-442.0,-91.0,1
589,-23.0,-442.0,-103.0,1
590,-17.0,-441.0,-124.0,1
591,-19.0,-433.0,-134.0,1
592,-17.0,-427.0,-133.0,1
593,-15.0,-417.0,-133.0,1
594,-10.0,-396.0,-125.0,1
595,-1.0,-377.0,-119.0,1
596,-1.0,-348.0,-121.0,1
597,2.0,-323.0,-119.0,1
598,0.0,-298.0,-108.0,1
599,2.0,-277.0,-98.0,1
600,6.0,-264.0,-86.0,1
601,7.0,-252.0,-75.0,1
602,7.0,-239.0,-70.0,1
603,2.0,-228.0,-60.0,1
604,5.0,-221.0,-51.0,1
605,3.0,-213.0,-44.0,1
606,0.0,-207.0,-48.0,1
607,0.0,-203.0,-55.0,1
608,1.0,-198.0,-58.0,1
609,0.0,-197.0,-53.0,1
610,1.0,-198.0,-48.0,1
611,4.0,-200.0,-43.0,1
612,4.0,-209.0,-37.0,1
613,3.0,-212.0,-35.0,1
614,4.0,-217.0,-28.0,1
615,5.0,-228.0,-22.0,1
616,4.0,-234.0,-24.0,1
617,5.0,-238.0,-28.0,1
618,3.0,-241.0,-32.0,1
619,7.0,-247.0,-34.0,1
620,8.0,-253.0,-36.0,1
621,1.0,-251.0,-34.0,1
622,1.0,-254.0,-38.0,1
623,2.0,-255.0,-37.0,1
624,0.0,-251.0,-38.0,1
625,-3.0,-248.0,-40.0,1
626,-8.0,-246.0,-49.0,1
627,-8.0,-240.0,-44.0,1
628,-8.0,-240.0,-49.0,1
629,-8.0,-242.0,-48.0,1
630,-7.0,-238.0,-52.0,1
631,-9.0,-242.0,-53.0,1
632,-4.0,-244.0,-57.0,1
633,-8.0,-248.0,-61.0,1
634,-6.0,-249.0,-61.0,1
635,-6.0,-255.0,-61.0,1
636,-4.0,-260.0,-59.0,1
637,-5.0,-265.0,-60.0,1
638,-8.0,-272.0,-60.0,1
639,-7.0,-278.0,-59.0,1
640,-5.0,-284.0,-51.0,1
641,-3.0,-281.0,-46.0,1
642,-4.0,-277.0,-51.0,1
643,-2.0,-271.0,-51.0,1
644,-5.0,-262.0,-48.0,1
645,-4.0,-258.0,-55.0,1
646,-8.0,-256.0,-54.0,1
647,-8.0,-260.0,-54.0,1
648,-8.0,-260.0,-54.0,1
649,-7.0,-263.0,-53.0,1
650,-5.0,-264.0,-53.0,1
651,-7.0,-267.0,-51.0,1
652,-5.0,-268.0,-48.0,1
653,-8.0,-263.0,-42.0,1
654,-6.0,-260.0,-41.0,1
655,-4.0,-258.0,-40.0,1
656,-4.0,-251.0,-39.0,1
657,-1.0,-248.0,-35.0,1
658,-2.0,-248.0,-37.0,1
659,-6.0,-242.0,-32.0,1
660,-4.0,-243.0,-34.0,1
661,-2.0,-242.0,-27.0,1
662,-7.0,-240.0,-24.0,1
663,-7.0,-244.0,-23.0,1
664,-6.0,-245.0,-20.0,1
665,-7.0,-248.0,-21.0,1
666,-5.0,-253.0,-21.0,1
667,-1.0,-258.0,-16.0,1
668,-7.0,-260.0,-19.0,1
669,-7.0,-263.0,-18.0,1
670,-8.0,-262.0,-14.0,1
671,-8.0,-265.0,-17.0,1
672,-7.0,-264.0,-14.0,1
673,-4.0,-260.0,-17.0,1
674,-7.0,-260.0,-17.0,1
675,-7.0,-257.0,-15.0,1
676,-9.0,-258.0,-13.0,1
677,-4.0,-253.0,-15.0,1
678,-4.0,-251.0,-16.0,1
679,-9.0,-252.0,-12.0,1
680,-7.0,-249.0,-12.0,1
681,-6.0,-251.0,-13.0,1
682,-6.0,-251.0,-8.0,1
683,-1.0,-250.0,-14.0,1
684,-6.0,-249.0,-14.0,0
685,-3.0,-251.0,-12.0,0
686,-6.0,-252.0,-13.0,0
687,-6.0,-251.0,-13.0,0
688,-10.0,-254.0,-8.0,0
689,-6.0,-257.0,-15.0,0
690,-7.0,-257.0,-14.0,0
691,-8.0,-259.0,-14.0,0
692,-6.0,-258.0,-17.0,0
693,-10.0,-258.0,-13.0,0
694,-8.0,-255.0,-14.0,0
695,-9.0,-255.0,-15.0,0
696,-10.0,-252.0,-13.0,0
697,-12.0,-253.0,-11.0,0
698,-8.0,-251.0,-8.0,0
699,-10.0,-250.0,-9.0,0
700,-8.0,-252.0,-12.0,0
701,-9.0,-252.0,-7.0,0
702,-8.0,-253.0,-10.0,0
703,-10.0,-252.0,-7.0,0
704,-8.0,-252.0,-9.0,0
705,-9.0,-250.0,-8.0,0
706,-6.0,-252.0,-9.0,0
707,-8.0,-256.0,-6.0,0
708,-8.0,-252.0,-8.0,0
709,-9.0,-256.0,-1.0,0
710,-8.0,-251.0,-8.0,0
711,-10.0,-252.0,-4.0,0
712,-7.0,-253.0,-5.0,0
713,-8.0,-255.0,-9.0,0
714,-4.0,-254.0,-8.0,0
715,-6.0,-257.0,-6.0,0
716,-6.0,-252.0,-6.0,0
717,-5.0,-253.0,-2.0,0
718,-6.0,-255.0,-5.0,0
719,-7.0,-254.0,-4.0,0
720,-3.0,-254.0,-6.0,0
721,-4.0,-255.0,-5.0,0
722,-6.0,-256.0,-2.0,0
723,-2.0,-257.0,-5.0,0
724,-1.0,-257.0,-3.0,0
725,-8.0,-257.0,-1.0,0
726,-6.0,-255.0,-4.0,0
727,-5.0,-252.0,-2.0,0
728,-3.0,-255.0,-5.0,0
729,0.0,-256.0,-4.0,0
730,-6.0,-255.0,-2.0,0
731,1.0,-260.0,-3.0,0
732,-3.0,-255.0,-2.0,0
733,-2.0,-256.0,-5.0,0
734,-2.0,-253.0,0.0,0
735,-1.0,-252.0,-2.0,0
736,-3.0,-254.0,-2.0,0
737,-2.0,-255.0,2.0,0
738,-2.0,-252.0,1.0,0
739,-4.0,-257.0,3.0,0
740,-3.0,-257.0,4.0,0
741,-3.0,-255.0,2.0,0
742,0.0,-255.0,1.0,0
743,-2.0,-258.0,1.0,0
744,0.0,-257.0,2.0,0
745,-5.0,-255.0,-1.0,0
746,-5.0,-257.0,2.0,0
747,-4.0,-254.0,0.0,0
748,-6.0,-256.0,0.0,0
749,-5.0,-255.0,0.0,0
750,-2.0,-256.0,1.0,0
751,-4.0,-253.0,2.0,0
752,-3.0,-250.0,2.0,0
753,1.0,-252.0,2.0,0
754,-3.0,-253.0,3.0,0
755,-2.0,-255.0,2.0,0
756,-6.0,-254.0,2.0,0
757,-7.0,-252.0,1.0,0
758,-3.0,-257.0,5.0,0
759,-5.0,-255.0,4.0,0
760,-3.0,-257.0,0.0,0
761,-6.0,-257.0,5.0,0
762,-1.0,-258.0,3.0,0
763,-7.0,-261.0,-6.0,0
764,-2.0,-257.0,2.0,0
765,-2.0,-259.0,1.0,0
766,-6.0,-254.0,-1.0,0
767,-4.0,-253.0,1.0,0
768,-5.0,-254.0,1.0,0
769,-1.0,-253.0,-2.0,0
770,-4.0,-255.0,-1.0,0
771,-5.0,-257.0,0.0,0
772,-4.0,-255.0,-3.0,0
773,-1.0,-257.0,1.0,0
774,-3.0,-258.0,2.0,0
775,-7.0,-262.0,-1.0,0
776,-7.0,-260.0,-3.0,0
777,-2.0,-256.0,-2.0,0
778,-6.0,-252.0,4.0,0
779,-3.0,-255.0,-2.0,0
780,-3.0,-256.0,1.0,0
781,-4.0,-257.0,-2.0,0
782,-5.0,-254.0,-6.0,0
783,-3.0,-256.0,1.0,0
784,-4.0,-255.0,1.0,0
785,-3.0,-257.0,-4.0,0
786,-4.0,-253.0,-2.0,0
787,-3.0,-255.0,2.0,0
788,-3.0,-255.0,-1.0,0
789,-3.0,-258.0,2.0,0
790,-4.0,-257.0,-2.0,0
791,-6.0,-255.0,-1.0,0
792,-8.0,-255.0,1.0,0
793,-3.0,-258.0,-5.0,0
794,-3.0,-257.0,0.0,0
795,-6.0,-259.0,-2.0,0
796,-5.0,-256.0,-2.0,0
797,-4.0,-256.0,-5.0,0
798,-4.0,-255.0,-4.0,0
799,-5.0,-257.0,-3.0,0
800,-8.0,-254.0,1.0,0
801,-5.0,-254.0,0.0,0
802,-2.0,-255.0,0.0,0
803,-6.0,-253.0,1.0,0
804,-5.0,-258.0,0.0,0
805,-7.0,-258.0,-3.0,0
806,-9.0,-257.0,-1.0,0
807,-3.0,-257.0,-2.0,0
808,-5.0,-258.0,-2.0,0
809,-8.0,-257.0,2.0,0
810,-5.0,-257.0,-6.0,0
811,-2.0,-258.0,-3.0,0
812,-6.0,-256.0,-1.0,0
813,-6.0,-260.0,-3.0,0
814,-7.0,-258.0,-2.0,0
815,-5.0,-255.0,-3.0,0
816,-7.0,-255.0,-5.0,0
817,-8.0,-258.0,-3.0,0
818,-5.0,-257.0,0.0,0
819,-4.0,-259.0,-3.0,0
820,-5.0,-254.0,1.0,0
821,-8.0,-255.0,2.0,0
822,-4.0,-255.0,-3.0,0
823,-6.0,-253.0,2.0,0
824,-5.0,-257.0,0.0,0
825,-4.0,-256.0,2.0,0
826,-3.0,-259.0,-1.0,0
827,-9.0,-255.0,1.0,0
828,-7.0,-258.0,-1.0,0
829,-7.0,-257.0,-2.0,0
830,-7.0,-256.0,3.0,0
831,-8.0,-255.0,5.0,0
832,-6.0,-257.0,0.0,0
833,-6.0,-257.0,-1.0,0
834,-7.0,-252.0,0.0,0
835,-7.0,-251.0,-1.0,0
836,-4.0,-254.0,-3.0,0
837,-5.0,-253.0,1.0,0
838,-6.0,-257.0,0.0,0
839,-4.0,-255.0,-2.0,0
840,-9.0,-254.0,1.0,0
841,-3.0,-255.0,0.0,0
842,-5.0,-256.0,4.0,0
843,-10.0,-255.0,-1.0,0
844,-8.0,-255.0,-1.0,0
845,-1.0,-255.0,4.0,0
846,-9.0,-257.0,-1.0,0
847,-6.0,-255.0,-2.0,0
848,-5.0,-255.0,-3.0,0
849,-2.0,-257.0,2.0,0
850,-5.0,-257.0,0.0,0
851,-7.0,-256.0,0.0,0
852,-6.0,-256.0,6.0,0
853,-5.0,-256.0,2.0,0
854,-2.0,-258.0,3.0,0
855,-7.0,-255.0,1.0,0
856,-6.0,-256.0,0.0,0
857,-5.0,-255.0,0.0,0
858,-6.0,-256.0,2.0,0
859,-5.0,-253.0,2.0,0
860,-3.0,-252.0,5.0,0
861,-6.0,-255.0,3.0,0
862,-5.0,-256.0,0.0,0
863,-5.0,-257.0,1.0,0
864,-6.0,-255.0,5.0,0
865,-7.0,-256.0,6.0,0
866,-5.0,-256.0,4.0,0
867,-4.0,-256.0,-2.0,0
868,-4.0,-256.0,1.0,0
869,-3.0,-256.0,2.0,0
870,-4.0,-254.0,1.0,0
871,-4.0,-255.0,3.0,0
872,-3.0,-254.0,2.0,0
873,-3.0,-258.0,2.0,0
874,-3.0,-255.0,4.0,0
875,-4.0,-255.0,4.0,0
876,-4.0,-255.0,3.0,0
877,-7.0,-253.0,5.0,0
878,-4.0,-254.0,3.0,0
879,-8.0,-256.0,0.0,0
880,-4.0,-257.0,5.0,0
881,-4.0,-257.0,3.0,0
882,-3.0,-257.0,7.0,0
883,-8.0,-252.0,3.0,0
884,-6.0,-256.0,3.0,0
885,-3.0,-256.0,3.0,0
886,-2.0,-257.0,-1.0,0
887,-5.0,-257.0,3.0,0
888,-6.0,-258.0,3.0,0
889,-6.0,-254.0,5.0,0
890,-4.0,-253.0,2.0,0
891,-4.0,-257.0,3.0,0
892,-5.0,-256.0,1.0,0
893,-3.0,-256.0,2.0,0
894,-6.0,-255.0,6.0,0
895,-5.0,-252.0,1.0,0
896,-7.0,-251.0,4.0,0
897,-6.0,-256.0,2.0,0
898,-6.0,-255.0,1.0,0
899,-3.0,-255.0,2.0,0
900,-4.0,-255.0,1.0,0
901,-8.0,-256.0,3.0,0
902,-6.0,-256.0,3.0,0
903,-2.0,-255.0,1.0,0
904,-7.0,-258.0,5.0,0
905,0.0,-259.0,3.0,0
906,-9.0,-257.0,4.0,0
907,-5.0,-257.0,6.0,0
908,-6.0,-256.0,4.0,0
909,-4.0,-258.0,3.0,0
910,-2.0,-257.0,2.0,0
911,-5.0,-255.0,0.0,0
912,-6.0,-255.0,-2.0,0
913,-6.0,-255.0,2.0,0
914,-5.0,-257.0,1.0,0
915,-7.0,-257.0,4.0,0
916,-5.0,-253.0,3.0,0
917,-5.0,-256.0,1.0,0
918,-3.0,-257.0,1.0,0
919,-7.0,-252.0,2.0,0
920,-7.0,-253.0,3.0,0
921,-5.0,-255.0,3.0,0
922,-2.0,-255.0,3.0,0
923,-8.0,-254.0,4.0,0
924,-8.0,-254.0,0.0,0
925,-2.0,-258.0,-2.0,0
926,-7.0,-257.0,2.0,0
927,0.0,-253.0,5.0,0
928,-9.0,-256.0,4.0,0
929,-5.0,-255.0,0.0,0
930,-7.0,-259.0,2.0,0
931,-7.0,-256.0,0.0,0
932,-10.0,-256.0,-1.0,0
933,-6.0,-255.0,-1.0,0
934,-10.0,-251.0,0.0,0
935,-6.0,-253.0,3.0,0
936,-5.0,-260.0,2.0,0
937,-5.0,-256.0,1.0,0
938,-5.0,-257.0,-1.0,0
939,-7.0,-257.0,-1.0,0
940,-4.0,-255.0,-3.0,0
941,-8.0,-254.0,0.0,0
942,-5.0,-256.0,1.0,0
943,-5.0,-254.0,3.0,0
944,-6.0,-255.0,-2.0,0
945,-8.0,-253.0,0.0,0
946,-8.0,-258.0,-1.0,0
947,-7.0,-256.0,1.0,0
948,-12.0,-257.0,-7.0,0
949,-8.0,-252.0,-7.0,0
950,-8.0,-254.0,-5.0,0
951,-8.0,-255.0,0.0,0
952,-7.0,-253.0,-1.0,0
953,-8.0,-254.0,2.0,0
954,-7.0,-254.0,-4.0,0
955,-8.0,-255.0,-2.0,0
956,-3.0,-258.0,-1.0,0
957,-6.0,-258.0,0.0,0
958,-5.0,-260.0,3.0,0
959,-4.0,-258.0,-2.0,0
960,-7.0,-259.0,-3.0,0
961,-6.0,-256.0,-4.0,0
962,-6.0,-258.0,-5.0,0
963,-6.0,-257.0,-5.0,0
964,-6.0,-257.0,-2.0,0
965,-6.0,-259.0,-4.0,0
966,-6.0,-253.0,-2.0,0
967,-6.0,-260.0,-3.0,0
968,-5.0,-255.0,-4.0,0
969,-4.0,-255.0,-5.0,0
970,-8.0,-260.0,-3.0,0
971,-4.0,-256.0,-5.0,0
972,-3.0,-254.0,-4.0,0
973,-3.0,-254.0,-3.0,0
974,-3.0,-253.0,-5.0,0
975,-6.0,-257.0,-5.0,0
976,-4.0,-256.0,-5.0,0
977,-4.0,-255.0,-7.0,0
978,-1.0,-256.0,-2.0,0
979,-9.0,-256.0,-4.0,0
980,-6.0,-257.0,-6.0,0
981,-5.0,-255.0,-3.0,0
982,-8.0,-257.0,-4.0,0
983,-4.0,-254.0,-4.0,0
984,-7.0,-259.0,-1.0,0
985,-7.0,-258.0,-5.0,0
986,-5.0,-258.0,-4.0,0
987,-6.0,-258.0,-4.0,0
988,-8.0,-257.0,-1.0,0
989,-6.0,-254.0,-3.0,0
990,-7.0,-259.0,-8.0,0
991,-3.0,-256.0,-1.0,0
992,-11.0,-256.0,-3.0,0
993,-10.0,-259.0,-6.0,0
994,-4.0,-260.0,-2.0,0
995,-4.0,-256.0,-3.0,0
996,-7.0,-256.0,-3.0,0
997,-6.0,-259.0,-6.0,0
998,-7.0,-258.0,-5.0,0
999,-6.0,-252.0,-6.0,0
1000,-5.0,-256.0,-4.0,0
1001,-4.0,-254.0,-7.0,0
1002,-4.0,-255.0,-6.0,0
1003,-7.0,-256.0,-6.0,0
1004,-6.0,-258.0,-4.0,0
1005,-5.0,-257.0,-6.0,0
1006,-3.0,-258.0,-7.0,0
1007,-9.0,-259.0,-7.0,0
1008,-3.0,-253.0,-6.0,0
1009,-4.0,-258.0,-6.0,0
1010,-8.0,-255.0,-9.0,0
1011,-5.0,-256.0,-4.0,0
1012,-1.0,-256.0,-1.0,0
1013,-1.0,-260.0,-6.0,0
1014,-6.0,-256.0,-6.0,0
1015,-5.0,-257.0,-4.0,0
1016,-5.0,-256.0,-1.0,0
1017,-8.0,-256.0,-3.0,0
1018,-8.0,-256.0,-3.0,0
1019,-3.0,-254.0,-2.0,0
1020,-7.0,-258.0,-3.0,0
1021,-6.0,-257.0,-3.0,0
1022,-8.0,-252.0,-1.0,0
1023,-5.0,-256.0,-2.0,0
1024,-7.0,-252.0,-4.0,0
1025,-8.0,-255.0,-3.0,0
1026,-7.0,-258.0,0.0,0
1027,-6.0,-256.0,-1.0,0
1028,-4.0,-256.0,-2.0,0
1029,-6.0,-257.0,-2.0,0
1030,-5.0,-259.0,-5.0,0
1031,-5.0,-257.0,-6.0,0
1032,-4.0,-256.0,-2.0,0
1033,-4.0,-254.0,-1.0,0
1034,-5.0,-254.0,-5.0,0
1035,-8.0,-253.0,0.0,0
1036,-5.0,-255.0,1.0,0
1037,-6.0,-254.0,-1.0,0
1038,-5.0,-256.0,-5.0,0
1039,-4.0,-256.0,-2.0,0
1040,-6.0,-255.0,-2.0,0
1041,-3.0,-255.0,0.0,0
1042,-4.0,-255.0,-5.0,0
1043,-7.0,-254.0,-1.0,0
1044,-8.0,-256.0,-2.0,0
1045,-6.0,-257.0,1.0,0
1046,-6.0,-256.0,-1.0,0
1047,-5.0,-261.0,-2.0,0
1048,-6.0,-255.0,-1.0,0
1049,-11.0,-257.0,2.0,0
1050,-7.0,-261.0,-1.0,0
1051,-3.0,-257.0,-4.0,0
1052,-5.0,-258.0,-1.0,0
1053,-4.0,-255.0,-1.0,0
1054,-8.0,-254.0,-2.0,0
1055,-7.0,-255.0,-4.0,0
1056,-7.0,-258.0,1.0,0
1057,-9.0,-253.0,-1.0,0
1058,-5.0,-254.0,0.0,0
1059,-5.0,-257.0,-6.0,0
1060,-8.0,-253.0,-3.0,0
1061,-3.0,-255.0,2.0,0
1062,-4.0,-257.0,0.0,0
1063,-3.0,-254.0,-1.0,0
1064,-8.0,-254.0,-3.0,0
1065,-5.0,-256.0,-2.0,0
1066,-4.0,-257.0,1.0,0
1067,-2.0,-256.0,1.0,0
1068,-6.0,-256.0,0.0,0
1069,-3.0,-255.0,4.0,0
1070,-4.0,-256.0,0.0,0
1071,-5.0,-256.0,-2.0,0
1072,-6.0,-254.0,2.0,0
1073,-5.0,-257.0,0.0,0
1074,-5.0,-254.0,0.0,0
1075,-7.0,-255.0,0.0,0
1076,-3.0,-256.0,0.0,0
1077,-3.0,-257.0,1.0,0
1078,-14.0,-257.0,0.0,0
1079,-5.0,-257.0,2.0,0
1080,-9.0,-253.0,0.0,0
1081,-7.0,-256.0,-1.0,0
1082,-4.0,-255.0,-3.0,0
1083,-7.0,-260.0,4.0,0
1084,-8.0,-257.0,-1.0,0
1085,-8.0,-258.0,-1.0,0
1086,-8.0,-257.0,-2.0,0
1087,-8.0,-256.0,-2.0,0
1088,-8.0,-254.0,-5.0,0
1089,-5.0,-254.0,1.0,0
1090,-6.0,-254.0,1.0,0
1091,-3.0,-257.0,0.0,0
1092,-7.0,-255.0,4.0,0
1093,-5.0,-255.0,1.0,0
1094,-5.0,-258.0,4.0,0
1095,-4.0,-254.0,-1.0,0
1096,-5.0,-253.0,-1.0,0
1097,-6.0,-257.0,2.0,0
1098,-5.0,-255.0,3.0,0
1099,-3.0,-257.0,3.0,0
1100,-5.0,-257.0,5.0,0
1101,-8.0,-255.0,4.0,0
1102,-5.0,-257.0,0.0,0
1103,-8.0,-255.0,2.0,0
1104,-3.0,-255.0,-1.0,0
1105,-7.0,-259.0,-2.0,0
1106,-9.0,-256.0,0.0,0
1107,-8.0,-255.0,1.0,0
1108,-7.0,-256.0,-3.0,0
1109,-7.0,-255.0,2.0,0
1110,-13.0,-253.0,-1.0,0
1111,-4.0,-259.0,0.0,0
1112,-4.0,-256.0,-2.0,0
1113,-11.0,-252.0,-3.0,0
1114,-6.0,-256.0,3.0,0
1115,-6.0,-255.0,-1.0,0
1116,-4.0,-257.0,3.0,0
1117,-7.0,-255.0,1.0,0
1118,-4.0,-259.0,-2.0,0
1119,-4.0,-255.0,-2.0,0
1120,-6.0,-257.0,0.0,0
1121,-5.0,-254.0,-1.0,0
1122,-4.0,-260.0,-2.0,0
1123,-7.0,-254.0,3.0,0
1124,-7.0,-256.0,1.0,0
1125,-7.0,-258.0,3.0,0
1126,-5.0,-256.0,1.0,0
1127,-4.0,-252.0,0.0,0
1128,-3.0,-256.0,-3.0,0
1129,-4.0,-258.0,4.0,0
1130,-6.0,-253.0,0.0,0
1131,-6.0,-256.0,2.0,0
1132,-9.0,-250.0,8.0,0
1133,-6.0,-256.0,4.0,0
1134,-4.0,-257.0,4.0,0
1135,-4.0,-256.0,3.0,0
1136,-7.0,-257.0,2.0,0
1137,-2.0,-259.0,4.0,0
1138,-8.0,-255.0,-1.0,0
1139,-6.0,-256.0,2.0,0
1140,-7.0,-257.0,2.0,0
1141,-5.0,-257.0,1.0,0
1142,-6.0,-257.0,0.0,0
1143,-3.0,-255.0,-1.0,0
1144,-6.0,-257.0,-4.0,0
1145,-4.0,-257.0,1.0,0
1146,-4.0,-257.0,2.0,0
1147,-8.0,-253.0,-1.0,0
1148,-4.0,-254.0,-3.0,0
1149,-5.0,-257.0,-2.0,0
1150,-5.0,-255.0,0.0,0
1151,-5.0,-257.0,1.0,0
1152,-7.0,-257.0,-4.0,0
1153,-7.0,-253.0,-3.0,0
1154,-9.0,-256.0,2.0,0
1155,-4.0,-257.0,-2.0,0
1156,-5.0,-260.0,2.0,0
1157,-6.0,-255.0,0.0,0
1158,-7.0,-255.0,3.0,0
1159,-5.0,-254.0,6.0,0
1160,-7.0,-254.0,1.0,0
1161,-8.0,-256.0,5.0,0
1162,-4.0,-256.0,-1.0,0
1163,-6.0,-256.0,0.0,0
1164,-7.0,-257.0,0.0,0
1165,-6.0,-259.0,1.0,0
1166,-8.0,-254.0,1.0,0
1167,-4.0,-256.0,2.0,0
1168,-9.0,-255.0,2.0,0
1169,-7.0,-255.0,0.0,0
1170,-7.0,-255.0,3.0,0
1171,-6.0,-257.0,3.0,0
1172,-4.0,-256.0,7.0,0
1173,-7.0,-256.0,-2.0,0
1174,-3.0,-255.0,1.0,0
1175,-7.0,-257.0,1.0,0
1176,-5.0,-258.0,3.0,0
1177,-4.0,-257.0,1.0,0
1178,-6.0,-255.0,-2.0,0
1179,-7.0,-253.0,-3.0,0
1180,-6.0,-258.0,2.0,0
1181,-7.0,-255.0,0.0,0
1182,-4.0,-258.0,4.0,0
1183,-4.0,-255.0,2.0,0
1184,-7.0,-256.0,0.0,0
1185,-5.0,-255.0,1.0,0
1186,-8.0,-252.0,6.0,0
1187,-6.0,-252.0,-2.0,0
1188,-6.0,-255.0,-1.0,0
1189,-5.0,-256.0,1.0,0
1190,-7.0,-254.0,3.0,0
1191,-7.0,-255.0,2.0,0
1192,-5.0,-255.0,3.0,0
1193,-7.0,-255.0,3.0,0
1194,-7.0,-257.0,5.0,0
1195,-6.0,-257.0,5.0,0
1196,-4.0,-256.0,0.0,0
1197,-8.0,-255.0,2.0,0
1198,-5.0,-259.0,0.0,0
1199,-4.0,-258.0,-1.0,0
1200,-4.0,-255.0,-3.0,0
1201,-7.0,-255.0,1.0,0
1202,-8.0,-254.0,2.0,0
1203,-6.0,-255.0,7.0,0
1204,-6.0,-256.0,-1.0,0
1205,-6.0,-256.0,3.0,0
1206,-5.0,-258.0,3.0,0
1207,-7.0,-256.0,3.0,0
1208,-3.0,-255.0,0.0,0
1209,-4.0,-254.0,3.0,0
1210,-5.0,-257.0,3.0,0
1211,-10.0,-252.0,0.0,0
1212,-3.0,-255.0,3.0,0
1213,-7.0,-252.0,3.0,0
1214,-8.0,-253.0,2.0,0
1215,-6.0,-252.0,2.0,0
1216,-8.0,-255.0,0.0,0
1217,-5.0,-256.0,4.0,0
1218,-9.0,-258.0,5.0,0
1219,-7.0,-257.0,1.0,0
1220,-8.0,-256.0,6.0,0
1221,-7.0,-256.0,5.0,0
1222,-7.0,-258.0,0.0,0
1223,-7.0,-259.0,6.0,0
1224,-5.0,-257.0,3.0,0
1225,-6.0,-255.0,-1.0,0
1226,-6.0,-255.0,5.0,0
1227,-4.0,-254.0,1.0,0
1228,-5.0,-251.0,-4.0,0
1229,-4.0,-255.0,1.0,0
1230,-7.0,-254.0,3.0,0
1231,-5.0,-254.0,3.0,0
1232,-6.0,-254.0,-2.0,0
1233,-8.0,-255.0,5.0,0
1234,-5.0,-252.0,4.0,0
1235,-6.0,-254.0,4.0,0
1236,-5.0,-255.0,4.0,0
1237,-5.0,-257.0,2.0,0
1238,-7.0,-258.0,6.0,0
1239,-5.0,-256.0,0.0,0
1240,-8.0,-257.0,6.0,0
1241,-8.0,-257.0,6.0,0
1242,-8.0,-255.0,7.0,0
1243,-9.0,-254.0,6.0,0
1244,-7.0,-254.0,7.0,0
1245,-7.0,-255.0,6.0,0
1246,-6.0,-253.0,5.0,0
1247,-5.0,-256.0,5.0,0
1248,-5.0,-256.0,4.0,0
1249,-7.0,-257.0,6.0,0
1250,-6.0,-258.0,2.0,0
1251,-6.0,-255.0,2.0,0
1252,-5.0,-255.0,4.0,0
1253,-4.0,-257.0,-1.0,0
1254,-7.0,-254.0,2.0,0
1255,-6.0,-258.0,2.0,0
1256,-8.0,-255.0,5.0,0
1257,-8.0,-252.0,3.0,0
1258,-7.0,-254.0,1.0,0
1259,-7.0,-256.0,2.0,0
1260,-8.0,-255.0,4.0,0
1261,-5.0,-257.0,3.0,0
1262,-6.0,-255.0,5.0,0
1263,-7.0,-258.0,2.0,0
1264,-5.0,-255.0,5.0,0
1265,-6.0,-257.0,0.0,0
1266,-7.0,-257.0,5.0,0
1267,-5.0,-255.0,5.0,0
1268,-2.0,-256.0,2.0,0
1269,-7.0,-256.0,3.0,0
1270,-6.0,-255.0,7.0,0
1271,-4.0,-256.0,7.0,0
1272,-2.0,-256.0,7.0,0
1273,-6.0,-257.0,7.0,0
1274,-5.0,-250.0,6.0,0
1275,-4.0,-255.0,7.0,0
1276,-4.0,-256.0,3.0,0
1277,-5.0,-257.0,4.0,0
1278,-5.0,-258.0,4.0,0
1279,-5.0,-256.0,2.0,0
1280,-5.0,-256.0,8.0,0
1281,-2.0,-259.0,2.0,0
1282,-6.0,-253.0,6.0,0
1283,-6.0,-256.0,4.0,0
1284,-8.0,-253.0,4.0,0
1285,-6.0,-252.0,5.0,0
1286,-3.0,-259.0,1.0,0
1287,-6.0,-256.0,0.0,0
1288,-4.0,-255.0,5.0,0
1289,-6.0,-255.0,5.0,0
1290,-5.0,-254.0,5.0,0
1291,-6.0,-257.0,8.0,0
1292,-9.0,-253.0,2.0,0
1293,-8.0,-253.0,6.0,0
1294,-2.0,-255.0,9.0,0
1295,-6.0,-253.0,7.0,0
1296,-10.0,-260.0,11.0,0
1297,-4.0,-256.0,3.0,0
1298,-6.0,-253.0,8.0,0
1299,-5.0,-254.0,2.0,0
1300,-8.0,-253.0,7.0,0
1301,-5.0,-252.0,5.0,0
1302,-5.0,-257.0,7.0,0
1303,-3.0,-256.0,5.0,0
1304,-8.0,-257.0,7.0,0
1305,-6.0,-257.0,8.0,0
1306,-5.0,-256.0,7.0,0
1307,-7.0,-255.0,7.0,0
1308,-1.0,-256.0,8.0,0
1309,-5.0,-260.0,7.0,0
1310,-2.0,-259.0,8.0,0
1311,-8.0,-254.0,4.0,0
1312,-6.0,-255.0,4.0,0
1313,-6.0,-256.0,6.0,0
1314,-6.0,-255.0,7.0,0
1315,-7.0,-257.0,3.0,0
1316,-3.0,-257.0,5.0,0
1317,-5.0,-256.0,2.0,0
1318,-6.0,-253.0,17.0,0
1319,-5.0,-254.0,3.0,0
1320,-2.0,-257.0,7.0,0
1321,-4.0,-255.0,9.0,0
1322,-6.0,-256.0,6.0,0
1323,-3.0,-254.0,8.0,0
1324,-5.0,-258.0,4.0,0
1325,-5.0,-255.0,5.0,0
1326,-3.0,-256.0,6.0,0
1327,-7.0,-255.0,5.0,0
1328,-3.0,-254.0,5.0,0
1329,-6.0,-255.0,5.0,0
1330,-6.0,-255.0,4.0,0
1331,-3.0,-255.0,3.0,0
1332,-6.0,-255.0,8.0,0
1333,-5.0,-256.0,4.0,0
1334,-4.0,-259.0,3.0,0
1335,-3.0,-257.0,5.0,0
1336,-3.0,-254.0,3.0,0
1337,-3.0,-257.0,7.0,0
1338,-7.0,-257.0,7.0,0
1339,-3.0,-258.0,8.0,0
1340,-6.0,-256.0,9.0,0
1341,-6.0,-257.0,5.0,0
1342,-7.0,-255.0,8.0,0
1343,-3.0,-257.0,6.0,0
1344,-8.0,-254.0,8.0,0
1345,-5.0,-257.0,5.0,0
1346,-3.0,-258.0,6.0,0
1347,-3.0,-257.0,6.0,0
1348,-4.0,-253.0,7.0,0
1349,-5.0,-254.0,5.0,0
1350,-4.0,-258.0,3.0,0
1351,-4.0,-256.0,8.0,0
1352,-6.0,-256.0,6.0,0
1353,-7.0,-252.0,9.0,0
1354,-6.0,-256.0,3.0,0
1355,-6.0,-257.0,7.0,0
1356,-6.0,-257.0,7.0,0
1357,-5.0,-257.0,4.0,0
1358,-3.0,-257.0,6.0,0
1359,-2.0,-256.0,9.0,0
1360,-2.0,-258.0,6.0,0
1361,-8.0,-258.0,5.0,0
1362,-7.0,-255.0,8.0,0
1363,-3.0,-256.0,5.0,0
1364,-7.0,-260.0,3.0,0
1365,-5.0,-257.0,8.0,0
1366,-5.0,-258.0,7.0,0
1367,-7.0,-257.0,7.0,0
1368,-3.0,-257.0,8.0,0
1369,-7.0,-254.0,7.0,0
1370,-3.0,-253.0,6.0,0
1371,-7.0,-250.0,5.0,0
1372,-4.0,-258.0,7.0,0
1373,-5.0,-254.0,8.0,0
1374,-7.0,-254.0,5.0,0
1375,-6.0,-256.0,8.0,0
1376,-5.0,-256.0,8.0,0
1377,-2.0,-257.0,6.0,0
1378,-6.0,-257.0,6.0,0
1379,-5.0,-256.0,8.0,0
1380,-3.0,-256.0,10.0,0
1381,-6.0,-256.0,10.0,0
1382,-6.0,-257.0,6.0,0
1383,-7.0,-253.0,7.0,0
1384,-5.0,-257.0,8.0,0
1385,-5.0,-255.0,2.0,0
1386,-6.0,-259.0,4.0,0
1387,-5.0,-257.0,5.0,0
1388,-6.0,-253.0,7.0,0
1389,-5.0,-254.0,9.0,0
1390,-7.0,-254.0,10.0,0
1391,-5.0,-253.0,10.0,0
1392,-2.0,-255.0,12.0,0
1393,-2.0,-256.0,10.0,0
1394,-5.0,-256.0,6.0,0
1395,-7.0,-254.0,10.0,0
1396,-5.0,-256.0,7.0,0
1397,-8.0,-252.0,7.0,0
1398,-7.0,-256.0,10.0,0
1399,-8.0,-254.0,8.0,0
1400,-5.0,-253.0,5.0,0
1401,-7.0,-255.0,11.0,0
1402,-7.0,-255.0,6.0,0
1403,-8.0,-250.0,7.0,0
1404,-4.0,-255.0,11.0,0
1405,-7.0,-254.0,6.0,0
1406,-5.0,-255.0,10.0,0
1407,-6.0,-255.0,6.0,0
1408,-4.0,-256.0,7.0,0
1409,-5.0,-256.0,7.0,0
1410,-8.0,-258.0,6.0,0
1411,-7.0,-253.0,10.0,0
1412,-6.0,-255.0,11.0,0
1413,-5.0,-258.0,10.0,0
1414,-7.0,-255.0,3.0,0
1415,-5.0,-255.0,8.0,0
1416,-6.0,-254.0,7.0,0
1417,-7.0,-255.0,7.0,0
1418,-4.0,-253.0,3.0,0
1419,-8.0,-253.0,6.0,0
1420,-8.0,-254.0,4.0,0
1421,-5.0,-254.0,8.0,0
1422,-8.0,-252.0,7.0,0
1423,-2.0,-257.0,6.0,0
1424,-5.0,-255.0,6.0,0
1425,-5.0,-254.0,3.0,0
1426,-3.0,-258.0,6.0,0
1427,-10.0,-257.0,8.0,0
1428,-6.0,-258.0,8.0,0
1429,-6.0,-255.0,7.0,0
1430,-6.0,-252.0,7.0,0
1431,-4.0,-258.0,10.0,0
1432,-8.0,-252.0,5.0,0
1433,-8.0,-257.0,6.0,0
1434,-9.0,-256.0,5.0,0
1435,-3.0,-255.0,5.0,0
1436,-6.0,-254.0,6.0,0
1437,-2.0,-255.0,6.0,0
1438,-3.0,-256.0,4.0,0
1439,-5.0,-255.0,7.0,0
1440,-4.0,-256.0,7.0,0
1441,-3.0,-256.0,6.0,0
1442,-3.0,-253.0,10.0,0
1443,-5.0,-255.0,9.0,0
1444,-11.0,-256.0,8.0,0
1445,-6.0,-255.0,7.0,0
1446,-7.0,-255.0,9.0,0
1447,-3.0,-255.0,5.0,0
1448,-6.0,-248.0,6.0,0
1449,-5.0,-255.0,7.0,0
1450,-5.0,-252.0,7.0,0
1451,-3.0,-254.0,5.0,0
1452,-8.0,-254.0,8.0,0
1453,-5.0,-257.0,11.0,0
1454,-5.0,-254.0,7.0,0
1455,-3.0,-253.0,5.0,0
1456,-7.0,-255.0,4.0,0
1457,-4.0,-254.0,7.0,0
1458,-4.0,-256.0,9.0,0
1459,-6.0,-254.0,5.0,0
1460,-3.0,-259.0,6.0,0
1461,-4.0,-254.0,6.0,0
1462,-5.0,-253.0,7.0,0
1463,-7.0,-257.0,0.0,0
1464,-4.0,-256.0,6.0,0
1465,-6.0,-254.0,7.0,0
1466,-6.0,-253.0,4.0,0
1467,-7.0,-252.0,6.0,0
1468,-6.0,-253.0,5.0,0
1469,-5.0,-255.0,5.0,0
1470,-5.0,-251.0,6.0,0
1471,-6.0,-255.0,5.0,0
1472,-6.0,-256.0,3.0,0
1473,-3.0,-257.0,4.0,0
1474,-7.0,-258.0,5.0,0
1475,-5.0,-257.0,1.0,0
1476,-7.0,-257.0,2.0,0
1477,-7.0,-256.0,1.0,0
1478,-9.0,-257.0,4.0,0
1479,-3.0,-257.0,-1.0,0
1480,-8.0,-251.0,4.0,0
1481,-8.0,-255.0,6.0,0
1482,-8.0,-255.0,3.0,0
1483,-8.0,-256.0,-4.0,0
1484,-7.0,-253.0,0.0,0
1485,-7.0,-254.0,2.0,0
1486,-6.0,-253.0,1.0,0
1487,-6.0,-255.0,0.0,0
1488,-7.0,-253.0,2.0,0
1489,-4.0,-255.0,-3.0,0
1490,-6.0,-256.0,2.0,0
1491,-5.0,-255.0,2.0,0
1492,-6.0,-255.0,-5.0,0
1493,-8.0,-251.0,-3.0,0
1494,-8.0,-250.0,-5.0,0
1495,-9.0,-250.0,-2.0,0
1496,-11.0,-248.0,-2.0,0
1497,-6.0,-252.0,1.0,0
1498,-6.0,-252.0,1.0,0
1499,-8.0,-249.0,-1.0,0
1500,-7.0,-252.0,-1.0,0
1501,-9.0,-248.0,-5.0,0
1502,-4.0,-250.0,-4.0,0
1503,-7.0,-249.0,-8.0,0
1504,-9.0,-249.0,-5.0,0
1505,-9.0,-248.0,-6.0,0
1506,-13.0,-246.0,-10.0,0
1507,-14.0,-247.0,-7.0,0
1508,-12.0,-246.0,-8.0,0
1509,-10.0,-250.0,-7.0,0
1510,-9.0,-252.0,-7.0,0
1511,-9.0,-250.0,-8.0,0
1512,-8.0,-254.0,-8.0,0
1513,-14.0,-251.0,-10.0,0
1514,-4.0,-258.0,-9.0,0
1515,-4.0,-255.0,-11.0,0
1516,-8.0,-256.0,-9.0,0
1517,-9.0,-253.0,-10.0,0
1518,-8.0,-254.0,-12.0,0
1519,-9.0,-256.0,-12.0,0
1520,-7.0,-257.0,-12.0,0
1521,-7.0,-254.0,-17.0,0
1522,-8.0,-254.0,-15.0,0
1523,-7.0,-252.0,-15.0,0
1524,-4.0,-254.0,-14.0,0
1525,-5.0,-253.0,-11.0,0
1526,-3.0,-250.0,-14.0,0
1527,-2.0,-253.0,-15.0,0
1528,-3.0,-249.0,-15.0,0
1529,-2.0,-247.0,-15.0,0
1530,-1.0,-248.0,-10.0,0
1531,-4.0,-249.0,-18.0,0
1532,-2.0,-248.0,-18.0,0
1533,0.0,-248.0,-17.0,0
1534,1.0,-250.0,-20.0,0
1535,-5.0,-244.0,-12.0,0
1536,-5.0,-249.0,-22.0,1
1537,-5.0,-249.0,-20.0,1
1538,-5.0,-250.0,-24.0,1
1539,-6.0,-251.0,-25.0,1
1540,-5.0,-255.0,-23.0,1
1541,-1.0,-253.0,-23.0,1
1542,-7.0,-253.0,-24.0,1
1543,-1.0,-253.0,-25.0,1
1544,-4.0,-249.0,-27.0,1
1545,-5.0,-249.0,-28.0,1
1546,-3.0,-253.0,-31.0,1
1547,-6.0,-246.0,-34.0,1
1548,-8.0,-246.0,-35.0,1
1549,-9.0,-246.0,-36.0,1
1550,-10.0,-244.0,-34.0,1
1551,-9.0,-247.0,-31.0,1
1552,-10.0,-248.0,-33.0,1
1553,-8.0,-245.0,-28.0,1
1554,-8.0,-245.0,-25.0,1
1555,-8.0,-242.0,-23.0,1
1556,-8.0,-239.0,-20.0,1
1557,-4.0,-236.0,-20.0,1
1558,-3.0,-230.0,-21.0,1
1559,-3.0,-233.0,-19.0,1
1560,-3.0,-236.0,-21.0,1
1561,-2.0,-246.0,-24.0,1
1562,-7.0,-252.0,-31.0,1
1563,-11.0,-262.0,-34.0,1
1564,-12.0,-276.0,-45.0,1
1565,-9.0,-292.0,-53.0,1
1566,-11.0,-304.0,-62.0,1
1567,-5.0,-313.0,-77.0,1
1568,-4.0,-324.0,-88.0,1
1569,-2.0,-329.0,-105.0,1
1570,-2.0,-332.0,-115.0,1
1571,4.0,-340.0,-126.0,1
1572,2.0,-347.0,-130.0,1
1573,0.0,-364.0,-132.0,1
1574,-6.0,-378.0,-122.0,1
1575,-13.0,-391.0,-115.0,1
1576,-20.0,-403.0,-114.0,1
1577,-18.0,-416.0,-111.0,1
1578,-4.0,-427.0,-111.0,1
1579,-2.0,-429.0,-116.0,1
1580,3.0,-431.0,-116.0,1
1581,8.0,-426.0,-114.0,1
1582,1.0,-416.0,-112.0,1
1583,-3.0,-404.0,-115.0,1
1584,-9.0,-391.0,-112.0,1
1585,-20.0,-378.0,-108.0,1
1586,-29.0,-366.0,-112.0,1
1587,-37.0,-356.0,-107.0,1
1588,-43.0,-340.0,-107.0,1
1589,-46.0,-329.0,-109.0,1
1590,-50.0,-321.0,-110.0,1
1591,-50.0,-313.0,-115.0,1
1592,-53.0,-302.0,-121.0,1
1593,-51.0,-292.0,-123.0,1
1594,-44.0,-293.0,-129.0,1
1595,-46.0,-285.0,-128.0,1
1596,-41.0,-282.0,-127.0,1
1597,-34.0,-286.0,-125.0,1
1598,-32.0,-289.0,-122.0,1
1599,-20.0,-295.0,-114.0,1
1600,-20.0,-305.0,-120.0,1
1601,-22.0,-312.0,-121.0,1
1602,-26.0,-318.0,-117.0,1
1603,-21.0,-324.0,-116.0,1
1604,-23.0,-331.0,-111.0,1
1605,-14.0,-334.0,-112.0,1
1606,-16.0,-336.0,-117.0,1
1607,-13.0,-336.0,-116.0,1
1608,-12.0,-332.0,-117.0,1
1609,-14.0,-327.0,-108.0,1
1610,-13.0,-325.0,-112.0,1
1611,-16.0,-317.0,-115.0,1
1612,-16.0,-312.0,-118.0,1
1613,-18.0,-303.0,-119.0,1
1614,-16.0,-293.0,-117.0,1
1615,-19.0,-283.0,-115.0,1
1616,-18.0,-274.0,-113.0,1
1617,-18.0,-267.0,-112.0,1
1618,-21.0,-253.0,-105.0,1
1619,-17.0,-248.0,-102.0,1
1620,-20.0,-244.0,-96.0,1
1621,-20.0,-237.0,-89.0,1
1622,-24.0,-229.0,-95.0,1
1623,-25.0,-224.0,-91.0,1
1624,-23.0,-224.0,-87.0,1
1625,-23.0,-226.0,-88.0,1
1626,-26.0,-225.0,-87.0,1
1627,-23.0,-229.0,-85.0,1
1628,-25.0,-228.0,-84.0,1
1629,-20.0,-230.0,-81.0,1
1630,-15.0,-224.0,-83.0,1
1631,-12.0,-223.0,-80.0,1
1632,-10.0,-219.0,-80.0,1
1633,-7.0,-215.0,-78.0,1
1634,-3.0,-213.0,-74.0,1
1635,-3.0,-206.0,-73.0,1
1636,-6.0,-202.0,-71.0,1
1637,-6.0,-198.0,-68.0,1
1638,-8.0,-193.0,-66.0,1
1639,-4.0,-190.0,-66.0,1
1640,-4.0,-184.0,-67.0,1
1641,-2.0,-182.0,-64.0,1
1642,3.0,-170.0,-69.0,1
1643,1.0,-173.0,-65.0,1
1644,1.0,-170.0,-62.0,1
1645,-1.0,-162.0,-58.0,1
1646,-2.0,-158.0,-57.0,1
1647,0.0,-153.0,-62.0,1
1648,0.0,-144.0,-62.0,1
1649,2.0,-137.0,-65.0,1
1650,-2.0,-127.0,-60.0,1
1651,-4.0,-123.0,-61.0,1
1652,0.0,-115.0,-62.0,1
1653,-1.0,-116.0,-60.0,1
1654,0.0,-116.0,-54.0,1
1655,0.0,-114.0,-49.0,1
1656,0.0,-113.0,-53.0,1
1657,0.0,-114.0,-50.0,1
1658,-2.0,-111.0,-54.0,1
1659,-2.0,-111.0,-52.0,1
1660,-2.0,-109.0,-58.0,1
1661,0.0,-109.0,-58.0,1
1662,-1.0,-109.0,-56.0,1
1663,0.0,-102.0,-63.0,1
1664,6.0,-100.0,-63.0,1
1665,-3.0,-105.0,-57.0,1
1666,-7.0,-107.0,-56.0,1
1667,-2.0,-115.0,-58.0,1
1668,-4.0,-121.0,-62.0,1
1669,-6.0,-127.0,-60.0,1
1670,-6.0,-137.0,-66.0,1
1671,-10.0,-149.0,-71.0,1
1672,-13.0,-158.0,-75.0,1
1673,-12.0,-169.0,-71.0,1
1674,-12.0,-180.0,-75.0,1
1675,-11.0,-189.0,-72.0,1
1676,-11.0,-199.0,-72.0,1
1677,-11.0,-208.0,-70.0,1
1678,-9.0,-219.0,-67.0,1
1679,-9.0,-227.0,-70.0,1
1680,-8.0,-235.0,-71.0,1
1681,-9.0,-241.0,-78.0,1
1682,-5.0,-243.0,-76.0,1
1683,-1.0,-247.0,-81.0,1
1684,-5.0,-249.0,-85.0,1
1685,-6.0,-254.0,-85.0,1
1686,-11.0,-258.0,-90.0,1
1687,-9.0,-258.0,-87.0,1
1688,-6.0,-262.0,-87.0,1
1689,-5.0,-260.0,-84.0,1
1690,-2.0,-265.0,-83.0,1
1691,-6.0,-262.0,-81.0,1
1692,-4.0,-261.0,-77.0,1
1693,0.0,-260.0,-70.0,1
1694,-3.0,-259.0,-69.0,1
1695,0.0,-259.0,-59.0,1
1696,0.0,-260.0,-66.0,1
1697,0.0,-258.0,-64.0,1
1698,1.0,-260.0,-67.0,1
1699,0.0,-262.0,-61.0,1
1700,-7.0,-258.0,-58.0,1
1701,-6.0,-258.0,-58.0,1
1702,-8.0,-258.0,-56.0,1
1703,-6.0,-259.0,-57.0,1
1704,-11.0,-254.0,-57.0,1
1705,-13.0,-252.0,-54.0,1
1706,-11.0,-252.0,-56.0,1
1707,-11.0,-250.0,-56.0,1
1708,-12.0,-250.0,-50.0,1
1709,-8.0,-250.0,-53.0,1
1710,-10.0,-248.0,-48.0,1
1711,-7.0,-249.0,-45.0,1
1712,-8.0,-252.0,-46.0,1
1713,-10.0,-250.0,-45.0,1
1714,-7.0,-248.0,-45.0,1
1715,-8.0,-248.0,-46.0,1
1716,-9.0,-251.0,-47.0,1
1717,-9.0,-250.0,-48.0,1
1718,-10.0,-252.0,-45.0,1
1719,-10.0,-251.0,-45.0,1
1720,-5.0,-254.0,-41.0,1
1721,-4.0,-255.0,-41.0,1
1722,-1.0,-256.0,-46.0,1
1723,-5.0,-251.0,-47.0,1
1724,-2.0,-252.0,-42.0,1
1725,0.0,-252.0,-42.0,1
1726,-3.0,-255.0,-40.0,1
1727,-3.0,-255.0,-38.0,1
1728,-2.0,-253.0,-39.0,1
1729,-3.0,-252.0,-38.0,1
1730,-1.0,-254.0,-42.0,1
1731,-1.0,-253.0,-38.0,1
1732,-2.0,-250.0,-39.0,1
1733,-3.0,-249.0,-35.0,1
1734,-1.0,-249.0,-35.0,1
1735,-4.0,-248.0,-36.0,1
1736,-1.0,-249.0,-34.0,1
1737,-2.0,-249.0,-35.0,1
1738,-3.0,-249.0,-38.0,1
1739,-2.0,-247.0,-37.0,1
1740,-3.0,-249.0,-36.0,1
1741,-2.0,-249.0,-36.0,1
1742,0.0,-252.0,-36.0,1
1743,-1.0,-255.0,-39.0,1
1744,-4.0,-254.0,-35.0,1
1745,-2.0,-255.0,-34.0,1
1746,-7.0,-258.0,-33.0,1
1747,-4.0,-259.0,-30.0,1
1748,-4.0,-258.0,-36.0,1
1749,-8.0,-258.0,-35.0,1
1750,-3.0,-260.0,-34.0,1
1751,-6.0,-260.0,-32.0,1
1752,-4.0,-259.0,-37.0,1
1753,-6.0,-261.0,-36.0,1
1754,-8.0,-260.0,-36.0,1
1755,-9.0,-257.0,-35.0,1
1756,-9.0,-257.0,-34.0,1
1757,-10.0,-254.0,-34.0,1
1758,-10.0,-259.0,-33.0,1
1759,-12.0,-250.0,-37.0,1
1760,-15.0,-249.0,-37.0,1
1761,-16.0,-251.0,-36.0,1
1762,-14.0,-256.0,-39.0,1
1763,-17.0,-250.0,-34.0,1
1764,-17.0,-252.0,-36.0,1
1765,-18.0,-253.0,-31.0,1
1766,-16.0,-255.0,-27.0,1
1767,-17.0,-256.0,-30.0,1
1768,-13.0,-255.0,-30.0,1
1769,-12.0,-257.0,-32.0,1
1770,-11.0,-260.0,-32.0,1
1771,-10.0,-258.0,-34.0,1
1772,-7.0,-257.0,-33.0,1
1773,-9.0,-259.0,-32.0,1
1774,-7.0,-258.0,-31.0,1
1775,-2.0,-258.0,-35.0,1
1776,-7.0,-258.0,-29.0,1
1777,-5.0,-257.0,-34.0,0
1778,-3.0,-253.0,-31.0,0
1779,-2.0,-256.0,-31.0,0
1780,-1.0,-253.0,-32.0,0
1781,-8.0,-252.0,-33.0,0
1782,-5.0,-251.0,-33.0,0
1783,-4.0,-256.0,-32.0,0
1784,-6.0,-255.0,-31.0,0
1785,-2.0,-260.0,-36.0,0
1786,-7.0,-257.0,-36.0,0
1787,-7.0,-257.0,-35.0,0
1788,-5.0,-259.0,-34.0,0
1789,-7.0,-259.0,-36.0,0
1790,-5.0,-258.0,-35.0,0
1791,-4.0,-258.0,-36.0,0
1792,-6.0,-256.0,-31.0,0
1793,-7.0,-254.0,-31.0,0
1794,-13.0,-253.0,-45.0,0
1795,-5.0,-252.0,-34.0,0
1796,-7.0,-250.0,-34.0,0
1797,-7.0,-253.0,-37.0,0
1798,-5.0,-251.0,-32.0,0
1799,-4.0,-251.0,-31.0,0
1800,-8.0,-253.0,-34.0,0
1801,-5.0,-255.0,-32.0,0
1802,-7.0,-255.0,-32.0,0
1803,-7.0,-255.0,-32.0,0
1804,-4.0,-259.0,-32.0,0
1805,-6.0,-254.0,-36.0,0
1806,-10.0,-251.0,-36.0,0
1807,-3.0,-254.0,-38.0,0
1808,-6.0,-250.0,-36.0,0
1809,-7.0,-252.0,-33.0,0
1810,-6.0,-253.0,-32.0,0
1811,-1.0,-249.0,-30.0,0
1812,-6.0,-253.0,-30.0,0
1813,-8.0,-254.0,-25.0,0
1814,-6.0,-253.0,-32.0,0
1815,-2.0,-254.0,-29.0,0
1816,-4.0,-257.0,-29.0,0
1817,-5.0,-257.0,-32.0,0
1818,-6.0,-258.0,-32.0,0
1819,-6.0,-258.0,-30.0,0
1820,-2.0,-256.0,-32.0,0
1821,-6.0,-257.0,-29.0,0
1822,-5.0,-259.0,-33.0,0
1823,-4.0,-258.0,-32.0,0
1824,-10.0,-253.0,-35.0,0
1825,-3.0,-259.0,-33.0,0
1826,-4.0,-256.0,-31.0,0
1827,-3.0,-252.0,-35.0,0
1828,-1.0,-255.0,-36.0,0
1829,-2.0,-254.0,-31.0,0
1830,-5.0,-250.0,-34.0,0
1831,-3.0,-253.0,-31.0,0
1832,-2.0,-256.0,-33.0,0
1833,-3.0,-257.0,-29.0,0
1834,-6.0,-257.0,-30.0,0
1835,-4.0,-255.0,-30.0,0
1836,-4.0,-255.0,-27.0,0
1837,-3.0,-254.0,-32.0,0
1838,-3.0,-254.0,-33.0,0
1839,-4.0,-253.0,-33.0,0
1840,-4.0,-251.0,-32.0,0
1841,-4.0,-252.0,-29.0,0
1842,-3.0,-253.0,-27.0,0
1843,-6.0,-252.0,-25.0,0
1844,-8.0,-253.0,-28.0,0
1845,-8.0,-252.0,-27.0,0
1846,-6.0,-256.0,-34.0,0
1847,-5.0,-254.0,-29.0,0
1848,-9.0,-252.0,-28.0,0
1849,-7.0,-252.0,-30.0,0
1850,-5.0,-254.0,-29.0,0
1851,-3.0,-252.0,-32.0,0
1852,-6.0,-255.0,-30.0,0
1853,-3.0,-256.0,-28.0,0
1854,-1.0,-253.0,-30.0,0
1855,-1.0,-257.0,-31.0,0
1856,-6.0,-255.0,-34.0,0
1857,-5.0,-252.0,-31.0,0
1858,-5.0,-254.0,-33.0,0
1859,-3.0,-253.0,-31.0,0
1860,-7.0,-254.0,-29.0,0
1861,-10.0,-257.0,-36.0,0
1862,-8.0,-258.0,-35.0,0
1863,-8.0,-259.0,-32.0,0
1864,-8.0,-255.0,-35.0,0
1865,-6.0,-258.0,-32.0,0
1866,-8.0,-254.0,-31.0,0
1867,-4.0,-259.0,-32.0,0
1868,-4.0,-257.0,-33.0,0
1869,-5.0,-256.0,-33.0,0
1870,-6.0,-254.0,-31.0,0
1871,-5.0,-256.0,-30.0,0
1872,-8.0,-254.0,-29.0,0
1873,-4.0,-254.0,-34.0,0
1874,-8.0,-255.0,-34.0,0
1875,-7.0,-256.0,-31.0,0
1876,-9.0,-252.0,-29.0,0
1877,-9.0,-255.0,-28.0,0
1878,-6.0,-259.0,-30.0,0
1879,-6.0,-255.0,-32.0,0
1880,-6.0,-257.0,-33.0,0
1881,-7.0,-255.0,-32.0,0
1882,-8.0,-252.0,-30.0,0
1883,-5.0,-256.0,-28.0,0
1884,-8.0,-253.0,-33.0,0
1885,-7.0,-252.0,-30.0,0
1886,-7.0,-255.0,-33.0,0
1887,-8.0,-251.0,-31.0,0
1888,-8.0,-253.0,-33.0,0
1889,-6.0,-259.0,-32.0,0
1890,-8.0,-255.0,-30.0,0
1891,-7.0,-254.0,-33.0,0
1892,-7.0,-258.0,-30.0,0
1893,-8.0,-256.0,-35.0,0
1894,-10.0,-255.0,-28.0,0
1895,-8.0,-256.0,-29.0,0
1896,-9.0,-257.0,-30.0,0
1897,-7.0,-254.0,-32.0,0
1898,-11.0,-252.0,-29.0,0
1899,-7.0,-254.0,-31.0,0
1900,-8.0,-254.0,-34.0,0
1901,-9.0,-255.0,-33.0,0
1902,-7.0,-254.0,-33.0,0
1903,-6.0,-258.0,-27.0,0
1904,-9.0,-253.0,-31.0,0
1905,-8.0,-259.0,-29.0,0
1906,-9.0,-257.0,-30.0,0
1907,-10.0,-255.0,-30.0,0
1908,-10.0,-254.0,-31.0,0
1909,-9.0,-254.0,-31.0,0
1910,-7.0,-256.0,-34.0,0
1911,-8.0,-254.0,-30.0,0
1912,-11.0,-254.0,-32.0,0
1913,-9.0,-254.0,-31.0,0
1914,-10.0,-256.0,-30.0,0
1915,-7.0,-255.0,-31.0,0
1916,-8.0,-255.0,-30.0,0
1917,-10.0,-252.0,-28.0,0
1918,-10.0,-253.0,-29.0,0
1919,-9.0,-251.0,-30.0,0
1920,-8.0,-252.0,-31.0,0
1921,-7.0,-253.0,-35.0,0
1922,-8.0,-252.0,-30.0,0
1923,-11.0,-258.0,-34.0,0
1924,-7.0,-256.0,-27.0,0
1925,-5.0,-255.0,-30.0,0
1926,-10.0,-256.0,-28.0,0
1927,-12.0,-255.0,-28.0,0
1928,-7.0,-254.0,-27.0,0
1929,-9.0,-253.0,-30.0,0
1930,-7.0,-258.0,-27.0,0
1931,-8.0,-255.0,-29.0,0
1932,-10.0,-253.0,-33.0,0
1933,-10.0,-253.0,-29.0,0
1934,-11.0,-254.0,-31.0,0
1935,-9.0,-253.0,-31.0,0
1936,-9.0,-258.0,-29.0,0
1937,-11.0,-253.0,-32.0,0
1938,-10.0,-255.0,-31.0,0
1939,-8.0,-260.0,-33.0,0
1940,-10.0,-258.0,-25.0,0
1941,-10.0,-254.0,-29.0,0
1942,-8.0,-255.0,-25.0,0
1943,-9.0,-260.0,-25.0,0
1944,-9.0,-256.0,-24.0,0
1945,-10.0,-255.0,-26.0,0
1946,-4.0,-255.0,-28.0,0
1947,-6.0,-255.0,-29.0,0
1948,-9.0,-254.0,-28.0,0
1949,-9.0,-254.0,-23.0,0
1950,-9.0,-255.0,-27.0,0
1951,-9.0,-255.0,-28.0,0
1952,-8.0,-255.0,-27.0,0
1953,-9.0,-255.0,-23.0,0
1954,-8.0,-254.0,-25.0,0
1955,-7.0,-256.0,-27.0,0
1956,-11.0,-255.0,-26.0,0
1957,-10.0,-253.0,-29.0,0
1958,-7.0,-257.0,-26.0,0
1959,-10.0,-251.0,-28.0,0
1960,-9.0,-254.0,-22.0,0
1961,-4.0,-253.0,-27.0,0
1962,-7.0,-253.0,-25.0,0
1963,-5.0,-255.0,-30.0,0
1964,-7.0,-254.0,-24.0,0
1965,-8.0,-253.0,-27.0,0
1966,-8.0,-255.0,-21.0,0
1967,-9.0,-256.0,-27.0,0
1968,-7.0,-255.0,-23.0,0
1969,-7.0,-255.0,-25.0,0
1970,-8.0,-256.0,-28.0,0
1971,-9.0,-253.0,-26.0,0
1972,-5.0,-256.0,-27.0,0
1973,-5.0,-254.0,-24.0,0
1974,-8.0,-256.0,-23.0,0
1975,-8.0,-255.0,-23.0,0
1976,-7.0,-256.0,-25.0,0
1977,-9.0,-257.0,-29.0,0
1978,-11.0,-255.0,-27.0,0
1979,-10.0,-256.0,-29.0,0
1980,-10.0,-256.0,-30.0,0
1981,-6.0,-256.0,-27.0,0
1982,-2.0,-257.0,-29.0,0
1983,-5.0,-256.0,-27.0,0
1984,-2.0,-255.0,-27.0,0
1985,-6.0,-252.0,-23.0,0
1986,-7.0,-252.0,-22.0,0
1987,-8.0,-252.0,-25.0,0
1988,-11.0,-253.0,-25.0,0
1989,-8.0,-254.0,-25.0,0
1990,-16.0,-250.0,-38.0,0
1991,-5.0,-255.0,-26.0,0
1992,-8.0,-256.0,-24.0,0
1993,-7.0,-255.0,-28.0,0
1994,-8.0,-255.0,-25.0,0
1995,-10.0,-252.0,-21.0,0
1996,-5.0,-258.0,-26.0,0
1997,-7.0,-255.0,-26.0,0
1998,-8.0,-255.0,-28.0,0
1999,-8.0,-255.0,-27.0,0
2000,-9.0,-255.0,-22.0,0
2001,-10.0,-253.0,-26.0,0
2002,-9.0,-253.0,-28.0,0
2003,-6.0,-259.0,-28.0,0
2004,-9.0,-256.0,-25.0,0
2005,-8.0,-256.0,-27.0,0
2006,-7.0,-255.0,-25.0,0
2007,-8.0,-253.0,-25.0,0
2008,-5.0,-259.0,-26.0,0
2009,-7.0,-257.0,-25.0,0
2010,-9.0,-258.0,-25.0,0
2011,-4.0,-256.0,-26.0,0
2012,-1.0,-258.0,-23.0,0
2013,-9.0,-252.0,-26.0,0
2014,-3.0,-253.0,-27.0,0
2015,-5.0,-254.0,-23.0,0
2016,-10.0,-252.0,-25.0,0
2017,-5.0,-255.0,-25.0,0
2018,-6.0,-257.0,-22.0,0
2019,-10.0,-252.0,-21.0,0
2020,-7.0,-253.0,-20.0,0
2021,-8.0,-253.0,-22.0,0
2022,-6.0,-253.0,-24.0,0
2023,-8.0,-255.0,-22.0,0
2024,-6.0,-255.0,-27.0,0
2025,-7.0,-255.0,-24.0,0
2026,-11.0,-254.0,-24.0,0
2027,-5.0,-256.0,-25.0,0
2028,-8.0,-255.0,-21.0,0
2029,-9.0,-253.0,-22.0,0
2030,-7.0,-257.0,-23.0,0
2031,-7.0,-255.0,-20.0,0
2032,-7.0,-255.0,-27.0,0
2033,-5.0,-255.0,-23.0,0
2034,-10.0,-257.0,-22.0,0
2035,-7.0,-253.0,-25.0,0
2036,-7.0,-254.0,-24.0,0
2037,-6.0,-255.0,-22.0,0
2038,-5.0,-254.0,-23.0,0
2039,-7.0,-256.0,-22.0,0
2040,-6.0,-257.0,-24.0,0
2041,-7.0,-255.0,-25.0,0
2042,-4.0,-255.0,-21.0,0
2043,-8.0,-256.0,-22.0,0
2044,-7.0,-253.0,-22.0,0
2045,-5.0,-255.0,-22.0,0
2046,-9.0,-255.0,-24.0,0
2047,-7.0,-257.0,-22.0,0
2048,-7.0,-255.0,-21.0,0
2049,-6.0,-255.0,-23.0,0
2050,-7.0,-255.0,-25.0,0
2051,-4.0,-256.0,-22.0,0
2052,-8.0,-257.0,-20.0,0
2053,-8.0,-253.0,-22.0,0
2054,-4.0,-253.0,-23.0,0
2055,-6.0,-257.0,-20.0,0
2056,-6.0,-255.0,-24.0,0
2057,-3.0,-253.0,-25.0,0
2058,-6.0,-257.0,-23.0,0
2059,-6.0,-254.0,-22.0,0
2060,-11.0,-253.0,-22.0,0
2061,-4.0,-259.0,-24.0,0
2062,-9.0,-256.0,-20.0,0
2063,-9.0,-259.0,-21.0,0
2064,-2.0,-257.0,-21.0,0
2065,-5.0,-258.0,-22.0,0
2066,-7.0,-257.0,-22.0,0
2067,-8.0,-255.0,-21.0,0
2068,-6.0,-258.0,-23.0,0
2069,-6.0,-253.0,-22.0,0
2070,-4.0,-257.0,-22.0,0
2071,-5.0,-255.0,-21.0,0
2072,-5.0,-253.0,-25.0,0
2073,-5.0,-255.0,-20.0,0
2074,-6.0,-254.0,-20.0,0
2075,-8.0,-257.0,-20.0,0
2076,-3.0,-256.0,-22.0,0
2077,-7.0,-254.0,-21.0,0
2078,-7.0,-252.0,-23.0,0
2079,-2.0,-254.0,-21.0,0
2080,-6.0,-254.0,-22.0,0
2081,-1.0,-255.0,-20.0,0
2082,-5.0,-254.0,-22.0,0
2083,-5.0,-256.0,-20.0,0
2084,-2.0,-256.0,-20.0,0
2085,-5.0,-254.0,-22.0,0
2086,-1.0,-252.0,-19.0,0
2087,-4.0,-256.0,-23.0,0
2088,-5.0,-254.0,-26.0,0
2089,-7.0,-255.0,-21.0,0
2090,-3.0,-252.0,-24.0,0
2091,-6.0,-254.0,-20.0,0
2092,-7.0,-253.0,-23.0,0
2093,-8.0,-254.0,-22.0,0
2094,-7.0,-255.0,-20.0,0
2095,-7.0,-254.0,-26.0,0
2096,-6.0,-254.0,-22.0,0
2097,-5.0,-254.0,-23.0,0
2098,-7.0,-255.0,-17.0,0
2099,-7.0,-254.0,-25.0,0
2100,-3.0,-255.0,-21.0,0
2101,-4.0,-259.0,-20.0,0
2102,-4.0,-259.0,-19.0,0
2103,-6.0,-255.0,-25.0,0
2104,-6.0,-251.0,-19.0,0
2105,-5.0,-255.0,-19.0,0
2106,-4.0,-254.0,-19.0,0
2107,-8.0,-254.0,-20.0,0
2108,-7.0,-255.0,-20.0,0
2109,-6.0,-255.0,-17.0,0
2110,-10.0,-254.0,-20.0,0
2111,-6.0,-256.0,-18.0,0
2112,-7.0,-253.0,-20.0,0
2113,-10.0,-253.0,-19.0,0
2114,-9.0,-254.0,-22.0,0
2115,-9.0,-253.0,-20.0,0
2116,-7.0,-257.0,-20.0,0
2117,-10.0,-252.0,-20.0,0
2118,-4.0,-255.0,-18.0,0
2119,-10.0,-258.0,-20.0,0
2120,-10.0,-255.0,-17.0,0
2121,-10.0,-256.0,-18.0,0
2122,-9.0,-256.0,-17.0,0
2123,-4.0,-255.0,-20.0,0
2124,-11.0,-251.0,-20.0,0
2125,-4.0,-253.0,-19.0,0
2126,-7.0,-254.0,-19.0,0
2127,-9.0,-252.0,-17.0,0
2128,-6.0,-254.0,-19.0,0
2129,-7.0,-252.0,-18.0,0
2130,-11.0,-254.0,-19.0,0
2131,-9.0,-254.0,-19.0,0
2132,-7.0,-253.0,-20.0,0
2133,-9.0,-252.0,-16.0,0
2134,-8.0,-252.0,-19.0,0
2135,-9.0,-255.0,-17.0,0
2136,-6.0,-257.0,-20.0,0
2137,-9.0,-256.0,-19.0,0
2138,-5.0,-254.0,-20.0,0
2139,-8.0,-255.0,-20.0,0
2140,-9.0,-255.0,-20.0,0
2141,-8.0,-254.0,-19.0,0
2142,-8.0,-253.0,-29.0,0
2143,-9.0,-253.0,-21.0,0
2144,-4.0,-259.0,-20.0,0
2145,-10.0,-254.0,-20.0,0
2146,-10.0,-255.0,-20.0,0
2147,-6.0,-255.0,-22.0,0
2148,-8.0,-255.0,-19.0,0
2149,-10.0,-257.0,-20.0,0
2150,-7.0,-258.0,-20.0,0
2151,-9.0,-256.0,-22.0,0
2152,-12.0,-256.0,-20.0,0
2153,-9.0,-258.0,-17.0,0
2154,-6.0,-256.0,-20.0,0
2155,-9.0,-257.0,-20.0,0
2156,-7.0,-252.0,-22.0,0
2157,-11.0,-254.0,-18.0,0
2158,-7.0,-256.0,-23.0,0
2159,-5.0,-258.0,-20.0,0
2160,-7.0,-256.0,-18.0,0
2161,-7.0,-257.0,-20.0,0
2162,-6.0,-258.0,-18.0,0
2163,-5.0,-257.0,-20.0,0
2164,-5.0,-258.0,-18.0,0
2165,-4.0,-257.0,-19.0,0
2166,-7.0,-256.0,-20.0,0
2167,-8.0,-253.0,-20.0,0
2168,-8.0,-253.0,-20.0,0
2169,-5.0,-256.0,-22.0,0
2170,-8.0,-255.0,-23.0,0
2171,-9.0,-254.0,-24.0,0
2172,-6.0,-258.0,-21.0,0
2173,-8.0,-254.0,-24.0,0
2174,-6.0,-255.0,-23.0,0
2175,-8.0,-256.0,-21.0,0
2176,-9.0,-257.0,-21.0,0
2177,-10.0,-255.0,-23.0,0
2178,-7.0,-257.0,-20.0,0
2179,-9.0,-256.0,-22.0,0
2180,-10.0,-255.0,-22.0,0
2181,-8.0,-254.0,-21.0,0
2182,-7.0,-253.0,-21.0,0
2183,-7.0,-256.0,-21.0,0
2184,-11.0,-250.0,-22.0,0
2185,-10.0,-251.0,-22.0,0
2186,-18.0,-253.0,-19.0,0
2187,-12.0,-254.0,-18.0,0
2188,-8.0,-252.0,-20.0,0
2189,-7.0,-252.0,-21.0,0
2190,-7.0,-253.0,-23.0,0
2191,-6.0,-256.0,-18.0,0
2192,-8.0,-256.0,-20.0,0
2193,-8.0,-255.0,-19.0,0
2194,-7.0,-258.0,-20.0,0
2195,-9.0,-260.0,-20.0,0
2196,-7.0,-256.0,-23.0,0
2197,-6.0,-253.0,-20.0,0
2198,-5.0,-253.0,-26.0,0
2199,-8.0,-255.0,-19.0,0
2200,-9.0,-251.0,-21.0,0
2201,-9.0,-255.0,-20.0,0
2202,-5.0,-256.0,-20.0,0
2203,-8.0,-256.0,-22.0,0
2204,-8.0,-255.0,-22.0,0
2205,-5.0,-255.0,-20.0,0
2206,-10.0,-255.0,-20.0,0
2207,-7.0,-258.0,-21.0,0
2208,-8.0,-256.0,-23.0,0
2209,-9.0,-256.0,-20.0,0
2210,-10.0,-255.0,-24.0,0
2211,-6.0,-259.0,-24.0,0
2212,-9.0,-259.0,-19.0,0
2213,-8.0,-258.0,-23.0,0
2214,-6.0,-256.0,-21.0,0
2215,-8.0,-253.0,-25.0,0
2216,-5.0,-253.0,-22.0,0
2217,-5.0,-256.0,-18.0,0
2218,-4.0,-260.0,-18.0,0
2219,-8.0,-255.0,-21.0,0
2220,-8.0,-255.0,-20.0,0
2221,-8.0,-252.0,-20.0,0
2222,-5.0,-254.0,-20.0,0
2223,-4.0,-255.0,-19.0,0
2224,-9.0,-256.0,-20.0,0
2225,-9.0,-255.0,-20.0,0
2226,-9.0,-253.0,-19.0,0
2227,-8.0,-255.0,-20.0,0
2228,-8.0,-256.0,-21.0,0
2229,-8.0,-254.0,-20.0,0
2230,-7.0,-253.0,-22.0,0
2231,-7.0,-256.0,-20.0,0
2232,-8.0,-253.0,-22.0,0
2233,-6.0,-256.0,-18.0,0
2234,-8.0,-256.0,-21.0,0
2235,-9.0,-254.0,-20.0,0
2236,-7.0,-258.0,-20.0,0
2237,-9.0,-254.0,-20.0,0
2238,-9.0,-257.0,-23.0,0
2239,-8.0,-258.0,-26.0,0
2240,-8.0,-254.0,-21.0,0
2241,-4.0,-255.0,-21.0,0
2242,-8.0,-253.0,-24.0,0
2243,-7.0,-254.0,-20.0,0
2244,-7.0,-253.0,-21.0,0
2245,-8.0,-254.0,-20.0,0
2246,-6.0,-256.0,-21.0,0
2247,-8.0,-252.0,-21.0,0
2248,-7.0,-256.0,-20.0,0
2249,-4.0,-257.0,-20.0,0
2250,-5.0,-256.0,-23.0,0
2251,-7.0,-256.0,-19.0,0
2252,-9.0,-252.0,-22.0,0
2253,-7.0,-258.0,-20.0,0
2254,-9.0,-257.0,-20.0,0
2255,-9.0,-258.0,-19.0,0
2256,-7.0,-255.0,-20.0,0
2257,-8.0,-257.0,-21.0,0
2258,-6.0,-258.0,-24.0,0
2259,-6.0,-255.0,-22.0,0
2260,-7.0,-255.0,-25.0,0
2261,-7.0,-254.0,-24.0,0
2262,-7.0,-254.0,-23.0,0
2263,-9.0,-255.0,-20.0,0
2264,-4.0,-254.0,-22.0,0
2265,-6.0,-253.0,-21.0,0
2266,-8.0,-253.0,-16.0,0
2267,-8.0,-255.0,-20.0,0
2268,-5.0,-256.0,-17.0,0
2269,-8.0,-256.0,-19.0,0
2270,-5.0,-258.0,-20.0,0
2271,-7.0,-256.0,-24.0,0
2272,-5.0,-256.0,-20.0,0
2273,-5.0,-255.0,-18.0,0
2274,-7.0,-258.0,-20.0,0
2275,-8.0,-254.0,-20.0,0
2276,-6.0,-256.0,-23.0,0
2277,-9.0,-254.0,-19.0,0
2278,-6.0,-255.0,-19.0,0
2279,-7.0,-257.0,-24.0,0
2280,-8.0,-255.0,-22.0,0
2281,-6.0,-257.0,-21.0,0
2282,-9.0,-257.0,-22.0,0
2283,-6.0,-257.0,-20.0,0
2284,-7.0,-255.0,-19.0,0
2285,-3.0,-257.0,-20.0,0
2286,-5.0,-258.0,-20.0,0
2287,-11.0,-254.0,-20.0,0
2288,-10.0,-253.0,-21.0,0
2289,-3.0,-255.0,-20.0,0
2290,-5.0,-257.0,-19.0,0
2291,-10.0,-256.0,-20.0,0
2292,-8.0,-256.0,-18.0,0
2293,-7.0,-253.0,-19.0,0
2294,-5.0,-256.0,-18.0,0
2295,-8.0,-254.0,-20.0,0
2296,-7.0,-254.0,-23.0,0
2297,-8.0,-255.0,-18.0,0
2298,-5.0,-257.0,-24.0,0
2299,-5.0,-255.0,-20.0,0
2300,-10.0,-252.0,-20.0,0
2301,-8.0,-252.0,-20.0,0
2302,-9.0,-256.0,-20.0,0
2303,-6.0,-258.0,-21.0,0
2304,-9.0,-254.0,-20.0,0
2305,-9.0,-256.0,-20.0,0
2306,-12.0,-255.0,-19.0,0
2307,-8.0,-255.0,-15.0,0
2308,-10.0,-257.0,-21.0,0
2309,-3.0,-255.0,-19.0,0
2310,-8.0,-255.0,-19.0,0
2311,-8.0,-253.0,-20.0,0
2312,-8.0,-253.0,-20.0,0
2313,-6.0,-253.0,-20.0,0
2314,-10.0,-254.0,-20.0,0
2315,-6.0,-256.0,-21.0,0
2316,3.0,-254.0,-19.0,0
2317,-8.0,-254.0,-19.0,0
2318,-7.0,-257.0,-20.0,0
2319,-8.0,-254.0,-21.0,0
2320,-7.0,-253.0,-18.0,0
2321,-8.0,-254.0,-18.0,0
2322,-8.0,-256.0,-19.0,0
2323,-7.0,-254.0,-20.0,0
2324,-8.0,-254.0,-19.0,0
2325,-6.0,-256.0,-20.0,0
2326,-6.0,-257.0,-19.0,0
2327,-8.0,-255.0,-19.0,0
2328,-7.0,-253.0,-20.0,0
2329,-4.0,-258.0,-18.0,0
2330,-8.0,-256.0,-20.0,0
2331,-9.0,-257.0,-18.0,0
2332,-9.0,-258.0,-20.0,0
2333,-7.0,-256.0,-19.0,0
2334,-5.0,-258.0,-18.0,0
2335,-7.0,-255.0,-17.0,0
2336,-6.0,-258.0,-20.0,0
2337,-10.0,-255.0,-19.0,0
2338,-11.0,-264.0,-19.0,0
2339,-6.0,-252.0,-22.0,0
2340,-8.0,-255.0,-19.0,0
2341,-9.0,-252.0,-20.0,0
2342,-10.0,-251.0,-22.0,0
2343,-4.0,-257.0,-19.0,0
2344,-6.0,-254.0,-18.0,0
2345,-5.0,-257.0,-21.0,0
2346,-2.0,-259.0,-20.0,0
2347,-7.0,-255.0,-19.0,0
2348,-8.0,-256.0,-20.0,0
2349,-9.0,-255.0,-18.0,0
2350,-8.0,-256.0,-16.0,0
2351,-7.0,-255.0,-17.0,0
2352,-7.0,-256.0,-20.0,0
2353,-8.0,-258.0,-19.0,0
2354,-7.0,-254.0,-16.0,0
2355,-9.0,-255.0,-19.0,0
2356,-11.0,-252.0,-19.0,0
2357,-8.0,-254.0,-18.0,0
2358,-9.0,-254.0,-16.0,0
2359,-6.0,-256.0,-19.0,0
2360,-2.0,-251.0,-16.0,0
2361,-6.0,-256.0,-17.0,0
2362,-7.0,-254.0,-19.0,0
2363,-9.0,-257.0,-21.0,0
2364,-8.0,-257.0,-19.0,0
2365,-8.0,-258.0,-18.0,0
2366,-8.0,-258.0,-14.0,0
2367,-10.0,-257.0,-18.0,0
2368,-9.0,-256.0,-17.0,0
2369,-10.0,-254.0,-17.0,0
2370,-7.0,-257.0,-19.0,0
2371,-7.0,-255.0,-19.0,0
2372,-4.0,-256.0,-20.0,0
2373,-8.0,-251.0,-20.0,0
2374,-8.0,-256.0,-17.0,0
2375,-8.0,-253.0,-19.0,0
2376,-8.0,-257.0,-22.0,0
2377,-8.0,-257.0,-19.0,0
2378,-5.0,-255.0,-19.0,0
2379,-11.0,-254.0,-17.0,0
2380,-6.0,-259.0,-18.0,0
2381,-11.0,-255.0,-16.0,0
2382,-8.0,-259.0,-20.0,0
2383,-8.0,-255.0,-16.0,0
2384,-6.0,-256.0,-20.0,0
2385,-8.0,-255.0,-19.0,0
2386,-8.0,-253.0,-18.0,0
2387,-9.0,-254.0,-13.0,0
2388,-7.0,-255.0,-19.0,0
2389,-8.0,-253.0,-20.0,0
2390,-5.0,-258.0,-17.0,0
2391,-8.0,-257.0,-20.0,0
2392,-9.0,-253.0,-18.0,0
2393,-7.0,-254.0,-20.0,0
2394,-6.0,-256.0,-17.0,0
2395,-9.0,-254.0,-14.0,0
2396,-8.0,-255.0,-19.0,0
2397,-6.0,-256.0,-16.0,0
2398,-8.0,-258.0,-21.0,0
2399,-10.0,-254.0,-20.0,0
