,accelerometer_x,accelerometer_y,accelerometer_z,fall
0,-12.0,-4.0,236.0,0
1,-13.0,-4.0,240.0,0
2,-13.0,-4.0,241.0,0
3,-12.0,-4.0,239.0,0
4,-11.0,-6.0,237.0,0
5,-11.0,-4.0,238.0,0
6,-12.0,-4.0,238.0,0
7,-11.0,-4.0,237.0,0
8,-13.0,-4.0,239.0,0
9,-11.0,-4.0,240.0,0
10,-12.0,-4.0,238.0,0
11,-12.0,-5.0,235.0,0
12,-12.0,-4.0,239.0,0
13,-12.0,-5.0,238.0,0
14,-11.0,-3.0,245.0,0
15,-11.0,-4.0,238.0,0
16,-11.0,-4.0,241.0,0
17,-12.0,-4.0,240.0,0
18,-11.0,-6.0,237.0,0
19,-13.0,-5.0,242.0,0
20,-13.0,-4.0,239.0,0
21,-13.0,-6.0,238.0,0
22,-11.0,-7.0,238.0,0
23,-12.0,-9.0,235.0,0
24,-12.0,-6.0,235.0,0
25,-14.0,-9.0,239.0,0
26,-13.0,-6.0,237.0,0
27,-12.0,-5.0,238.0,0
28,-12.0,-9.0,238.0,0
29,-12.0,-11.0,234.0,0
30,-13.0,-6.0,237.0,0
31,-12.0,-7.0,236.0,0
32,-12.0,-4.0,242.0,0
33,-13.0,-4.0,241.0,0
34,-12.0,-5.0,242.0,0
35,-11.0,-7.0,238.0,0
36,-13.0,-8.0,240.0,0
37,-12.0,-10.0,240.0,0
38,-13.0,-8.0,239.0,0
39,-13.0,-9.0,238.0,0
40,-12.0,-6.0,238.0,0
41,-12.0,-10.0,240.0,0
42,-12.0,-9.0,239.0,0
43,-12.0,-8.0,240.0,0
44,-15.0,-6.0,240.0,0
45,-13.0,-8.0,238.0,0
46,-12.0,-11.0,238.0,0
47,-12.0,-6.0,239.0,0
48,-12.0,-11.0,239.0,0
49,-12.0,-9.0,239.0,0
50,-14.0,-7.0,242.0,0
51,-12.0,-7.0,236.0,0
52,-12.0,-8.0,237.0,0
53,-10.0,-14.0,239.0,0
54,-12.0,-11.0,239.0,0
55,-12.0,-8.0,238.0,0
56,-12.0,-7.0,235.0,0
57,-12.0,-10.0,236.0,0
58,-12.0,-7.0,240.0,0
59,-14.0,-11.0,241.0,0
60,-12.0,-7.0,241.0,0
61,-12.0,-10.0,239.0,0
62,-16.0,-5.0,239.0,0
63,-12.0,-10.0,239.0,0
64,-12.0,-8.0,241.0,0
65,-12.0,-11.0,239.0,0
66,-13.0,-11.0,239.0,0
67,-13.0,-10.0,241.0,0
68,-13.0,-11.0,241.0,0
69,-12.0,-11.0,239.0,0
70,-12.0,-9.0,237.0,0
71,-12.0,-11.0,237.0,0
72,-12.0,-10.0,238.0,0
73,-12.0,-10.0,239.0,0
74,-12.0,-12.0,237.0,0
75,-14.0,-12.0,238.0,0
76,-13.0,-11.0,238.0,0
77,-12.0,-12.0,239.0,0
78,-12.0,-13.0,240.0,0
79,-12.0,-13.0,239.0,0
80,-13.0,-14.0,239.0,0
81,-12.0,-12.0,236.0,0
82,-12.0,-8.0,234.0,0
83,-12.0,-13.0,240.0,0
84,-12.0,-12.0,237.0,0
85,-12.0,-11.0,238.0,0
86,-12.0,-11.0,237.0,0
87,-12.0,-12.0,236.0,0
88,-14.0,-13.0,240.0,0
89,-12.0,-12.0,236.0,0
90,-11.0,-12.0,241.0,0
91,-12.0,-13.0,239.0,0
92,-12.0,-15.0,243.0,0
93,-13.0,-11.0,238.0,0
94,-11.0,-14.0,241.0,0
95,-11.0,-14.0,237.0,0
96,-12.0,-14.0,238.0,0
97,-12.0,-15.0,240.0,0
98,-12.0,-11.0,237.0,0
99,-14.0,-11.0,240.0,0
100,-11.0,-13.0,240.0,0
101,-12.0,-18.0,239.0,0
102,-10.0,-16.0,238.0,0
103,-12.0,-18.0,240.0,0
104,-12.0,-14.0,238.0,0
105,-12.0,-12.0,236.0,0
106,-12.0,-14.0,237.0,0
107,-12.0,-16.0,234.0,0
108,-15.0,-16.0,238.0,0
109,-13.0,-17.0,238.0,0
110,-14.0,-16.0,238.0,0
111,-13.0,-15.0,237.0,0
112,-12.0,-14.0,238.0,0
113,-12.0,-14.0,239.0,0
114,-12.0,-16.0,241.0,0
115,-14.0,-14.0,236.0,0
116,-11.0,-16.0,236.0,0
117,-12.0,-16.0,234.0,0
118,-12.0,-13.0,237.0,0
119,-13.0,-16.0,241.0,0
120,-12.0,-12.0,238.0,0
121,-13.0,-15.0,242.0,0
122,-13.0,-12.0,234.0,0
123,-12.0,-15.0,239.0,0
124,-13.0,-14.0,237.0,0
125,-13.0,-15.0,237.0,0
126,-12.0,-14.0,236.0,0
127,-14.0,-15.0,236.0,0
128,-11.0,-16.0,241.0,0
129,-12.0,-12.0,238.0,0
130,-12.0,-13.0,242.0,0
131,-12.0,-14.0,240.0,0
132,-14.0,-14.0,240.0,0
133,-14.0,-15.0,239.0,0
134,-12.0,-18.0,236.0,0
135,-14.0,-14.0,237.0,0
136,-12.0,-18.0,238.0,0
137,-12.0,-14.0,239.0,0
138,-12.0,-17.0,239.0,0
139,-12.0,-15.0,239.0,0
140,-13.0,-16.0,243.0,0
141,-12.0,-16.0,236.0,0
142,-12.0,-15.0,239.0,0
143,-13.0,-16.0,237.0,0
144,-12.0,-15.0,241.0,0
145,-12.0,-17.0,240.0,0
146,-12.0,-16.0,236.0,0
147,-11.0,-17.0,240.0,0
148,-13.0,-15.0,236.0,0
149,-11.0,-17.0,239.0,0
150,-13.0,-18.0,242.0,0
151,-12.0,-19.0,237.0,0
152,-14.0,-16.0,238.0,0
153,-15.0,-18.0,236.0,0
154,-12.0,-18.0,235.0,0
155,-11.0,-17.0,236.0,0
156,-12.0,-16.0,237.0,0
157,-14.0,-16.0,237.0,0
158,-12.0,-16.0,234.0,0
159,-12.0,-18.0,240.0,0
160,-11.0,-16.0,239.0,0
161,-12.0,-18.0,239.0,0
162,-12.0,-19.0,235.0,0
163,-12.0,-15.0,235.0,0
164,-12.0,-15.0,238.0,0
165,-14.0,-16.0,239.0,0
166,-11.0,-19.0,237.0,0
167,-12.0,-18.0,239.0,0
168,-15.0,-17.0,237.0,0
169,-16.0,-17.0,238.0,0
170,-14.0,-18.0,238.0,0
171,-12.0,-18.0,237.0,0
172,-12.0,-16.0,238.0,0
173,-11.0,-20.0,236.0,0
174,-12.0,-19.0,236.0,0
175,-13.0,-21.0,235.0,0
176,-11.0,-17.0,239.0,0
177,-12.0,-18.0,236.0,0
178,-13.0,-17.0,237.0,0
179,-11.0,-19.0,238.0,0
180,-12.0,-18.0,234.0,0
181,-13.0,-18.0,241.0,0
182,-12.0,-18.0,239.0,0
183,-12.0,-19.0,239.0,0
184,-11.0,-19.0,237.0,0
185,-16.0,-18.0,240.0,0
186,-12.0,-18.0,236.0,0
187,-12.0,-16.0,239.0,0
188,-13.0,-22.0,235.0,0
189,-14.0,-18.0,237.0,0
190,-12.0,-19.0,238.0,0
191,-14.0,-15.0,239.0,0
192,-14.0,-15.0,238.0,0
193,-13.0,-19.0,237.0,0
194,-11.0,-21.0,238.0,0
195,-12.0,-19.0,240.0,0
196,-12.0,-21.0,236.0,0
197,-15.0,-21.0,240.0,0
198,-12.0,-22.0,238.0,0
199,-12.0,-20.0,237.0,0
200,-11.0,-22.0,238.0,0
201,-12.0,-19.0,236.0,0
202,-9.0,-25.0,237.0,0
203,-15.0,-20.0,232.0,0
204,-13.0,-23.0,232.0,0
205,-12.0,-20.0,232.0,0
206,-12.0,-20.0,239.0,0
207,-12.0,-19.0,238.0,0
208,-11.0,-21.0,236.0,0
209,-13.0,-19.0,236.0,0
210,-12.0,-19.0,233.0,0
211,-13.0,-20.0,239.0,0
212,-12.0,-18.0,236.0,0
213,-12.0,-22.0,239.0,0
214,-12.0,-20.0,238.0,0
215,-12.0,-21.0,238.0,0
216,-12.0,-21.0,239.0,0
217,-12.0,-20.0,238.0,0
218,-12.0,-20.0,238.0,0
219,-12.0,-20.0,239.0,0
220,-12.0,-20.0,238.0,0
221,-13.0,-20.0,236.0,0
222,-12.0,-19.0,238.0,0
223,-13.0,-19.0,235.0,0
224,-11.0,-20.0,235.0,0
225,-15.0,-19.0,239.0,0
226,-12.0,-18.0,236.0,0
227,-15.0,-19.0,237.0,0
228,-12.0,-18.0,238.0,0
229,-15.0,-17.0,241.0,0
230,-12.0,-19.0,239.0,0
231,-12.0,-19.0,238.0,0
232,-14.0,-19.0,235.0,0
233,-12.0,-20.0,243.0,0
234,-12.0,-19.0,236.0,0
235,-12.0,-22.0,237.0,0
236,-11.0,-21.0,239.0,0
237,-12.0,-19.0,241.0,0
238,-14.0,-20.0,237.0,0
239,-15.0,-16.0,236.0,0
240,-11.0,-20.0,240.0,0
241,-13.0,-19.0,236.0,0
242,-11.0,-19.0,237.0,0
243,-12.0,-16.0,235.0,0
244,-12.0,-20.0,238.0,0
245,-11.0,-19.0,240.0,0
246,-11.0,-20.0,238.0,0
247,-15.0,-17.0,236.0,0
248,-12.0,-19.0,237.0,0
249,-12.0,-21.0,234.0,0
250,-14.0,-18.0,235.0,0
251,-12.0,-20.0,234.0,0
252,-12.0,-22.0,237.0,0
253,-12.0,-17.0,236.0,0
254,-13.0,-20.0,240.0,0
255,-14.0,-19.0,236.0,0
256,-12.0,-20.0,241.0,0
257,-12.0,-19.0,241.0,0
258,-13.0,-19.0,238.0,0
259,-12.0,-20.0,239.0,0
260,-12.0,-22.0,236.0,0
261,-12.0,-23.0,239.0,0
262,-12.0,-20.0,244.0,0
263,-13.0,-22.0,239.0,0
264,-12.0,-21.0,236.0,0
265,-12.0,-22.0,235.0,0
266,-12.0,-22.0,236.0,0
267,-12.0,-22.0,239.0,0
268,-13.0,-20.0,236.0,0
269,-12.0,-21.0,236.0,0
270,-13.0,-21.0,239.0,0
271,-12.0,-19.0,236.0,0
272,-12.0,-18.0,235.0,0
273,-12.0,-18.0,237.0,0
274,-12.0,-19.0,233.0,0
275,-12.0,-18.0,241.0,0
276,-12.0,-16.0,238.0,0
277,-12.0,-18.0,238.0,0
278,-12.0,-21.0,241.0,0
279,-12.0,-19.0,242.0,0
280,-11.0,-20.0,237.0,0
281,-13.0,-20.0,238.0,0
282,-11.0,-21.0,238.0,0
283,-11.0,-20.0,237.0,0
284,-12.0,-21.0,238.0,0
285,-11.0,-20.0,239.0,0
286,-12.0,-18.0,236.0,0
287,-12.0,-18.0,235.0,0
288,-12.0,-18.0,232.0,0
289,-12.0,-18.0,238.0,0
290,-12.0,-22.0,237.0,0
291,-13.0,-19.0,236.0,0
292,-12.0,-19.0,235.0,0
293,-13.0,-18.0,240.0,0
294,-10.0,-23.0,234.0,0
295,-12.0,-20.0,236.0,0
296,-12.0,-20.0,233.0,0
297,-12.0,-21.0,240.0,0
298,-12.0,-17.0,236.0,0
299,-12.0,-22.0,236.0,0
300,-11.0,-19.0,236.0,0
301,-12.0,-20.0,235.0,0
302,-10.0,-22.0,236.0,0
303,-12.0,-20.0,238.0,0
304,-12.0,-20.0,239.0,0
305,-12.0,-19.0,236.0,0
306,-11.0,-21.0,235.0,0
307,-12.0,-18.0,235.0,0
308,-12.0,-17.0,236.0,0
309,-14.0,-17.0,236.0,0
310,-12.0,-19.0,237.0,0
311,-12.0,-19.0,233.0,0
312,-11.0,-18.0,233.0,0
313,-13.0,-17.0,237.0,0
314,-12.0,-20.0,237.0,0
315,-12.0,-19.0,235.0,0
316,-12.0,-20.0,239.0,0
317,-11.0,-19.0,236.0,0
318,-12.0,-22.0,235.0,0
319,-12.0,-18.0,239.0,0
320,-12.0,-17.0,236.0,0
321,-12.0,-21.0,238.0,0
322,-12.0,-18.0,238.0,0
323,-14.0,-20.0,240.0,0
324,-12.0,-20.0,236.0,0
325,-12.0,-21.0,235.0,0
326,-13.0,-16.0,241.0,0
327,-13.0,-19.0,237.0,0
328,-12.0,-21.0,234.0,0
329,-11.0,-18.0,236.0,0
330,-12.0,-19.0,240.0,0
331,-12.0,-17.0,238.0,0
332,-11.0,-20.0,238.0,0
333,-12.0,-19.0,237.0,0
334,-12.0,-15.0,238.0,0
335,-12.0,-20.0,240.0,0
336,-12.0,-15.0,238.0,0
337,-12.0,-19.0,238.0,0
338,-12.0,-18.0,236.0,0
339,-12.0,-16.0,238.0,0
340,-12.0,-20.0,240.0,0
341,-12.0,-18.0,238.0,0
342,-12.0,-22.0,240.0,0
343,-12.0,-20.0,238.0,0
344,-12.0,-20.0,240.0,0
345,-12.0,-17.0,236.0,0
346,-12.0,-18.0,238.0,0
347,-11.0,-17.0,241.0,0
348,-12.0,-19.0,235.0,0
349,-12.0,-18.0,241.0,0
350,-11.0,-21.0,239.0,0
351,-12.0,-19.0,233.0,0
352,-11.0,-17.0,237.0,0
353,-12.0,-18.0,234.0,0
354,-12.0,-20.0,239.0,0
355,-12.0,-18.0,237.0,0
356,-12.0,-19.0,235.0,0
357,-12.0,-16.0,239.0,0
358,-14.0,-18.0,238.0,0
359,-12.0,-20.0,237.0,0
360,-12.0,-16.0,238.0,0
361,-11.0,-18.0,236.0,0
362,-12.0,-21.0,235.0,0
363,-15.0,-16.0,234.0,0
364,-11.0,-19.0,236.0,0
365,-12.0,-17.0,238.0,0
366,-12.0,-18.0,240.0,0
367,-13.0,-19.0,237.0,0
368,-12.0,-18.0,238.0,0
369,-12.0,-17.0,239.0,0
370,-14.0,-16.0,238.0,0
371,-11.0,-20.0,240.0,0
372,-12.0,-19.0,237.0,0
373,-12.0,-16.0,238.0,0
374,-12.0,-18.0,238.0,0
375,-13.0,-14.0,237.0,0
376,-14.0,-16.0,236.0,0
377,-13.0,-17.0,243.0,0
378,-13.0,-17.0,238.0,0
379,-14.0,-17.0,240.0,0
380,-15.0,-17.0,240.0,0
381,-13.0,-22.0,239.0,0
382,-12.0,-18.0,236.0,0
383,-12.0,-19.0,236.0,0
384,-12.0,-17.0,238.0,0
385,-12.0,-15.0,233.0,0
386,-12.0,-18.0,240.0,0
387,-12.0,-17.0,240.0,0
388,-12.0,-17.0,240.0,0
389,-12.0,-15.0,234.0,0
390,-12.0,-16.0,239.0,0
391,-12.0,-18.0,234.0,0
392,-12.0,-18.0,235.0,0
393,-12.0,-16.0,233.0,0
394,-14.0,-15.0,239.0,0
395,-11.0,-19.0,235.0,0
396,-17.0,-15.0,235.0,0
397,-14.0,-19.0,237.0,0
398,-12.0,-18.0,238.0,0
399,-12.0,-18.0,237.0,0
400,-12.0,-16.0,241.0,0
401,-13.0,-15.0,237.0,0
402,-12.0,-18.0,238.0,0
403,-12.0,-17.0,241.0,0
404,-12.0,-20.0,240.0,0
405,-12.0,-20.0,241.0,0
406,-12.0,-19.0,235.0,0
407,-10.0,-20.0,234.0,0
408,-12.0,-20.0,241.0,0
409,-12.0,-18.0,237.0,0
410,-12.0,-18.0,237.0,0
411,-13.0,-19.0,238.0,0
412,-12.0,-13.0,234.0,0
413,-12.0,-18.0,236.0,0
414,-13.0,-19.0,239.0,0
415,-12.0,-16.0,238.0,0
416,-12.0,-14.0,237.0,0
417,-12.0,-15.0,239.0,0
418,-13.0,-15.0,239.0,0
419,-12.0,-12.0,237.0,0
420,-11.0,-17.0,240.0,0
421,-12.0,-16.0,238.0,0
422,-12.0,-17.0,240.0,0
423,-12.0,-15.0,237.0,0
424,-12.0,-18.0,239.0,0
425,-12.0,-13.0,240.0,0
426,-12.0,-20.0,237.0,0
427,-12.0,-16.0,238.0,0
428,-11.0,-15.0,240.0,0
429,-13.0,-14.0,238.0,0
430,-13.0,-16.0,238.0,0
431,-12.0,-16.0,236.0,0
432,-12.0,-18.0,237.0,0
433,-12.0,-15.0,238.0,0
434,-13.0,-15.0,235.0,0
435,-12.0,-15.0,240.0,0
436,-12.0,-15.0,235.0,0
437,-12.0,-18.0,239.0,0
438,-12.0,-17.0,238.0,0
439,-12.0,-17.0,235.0,0
440,-11.0,-18.0,234.0,0
441,-11.0,-19.0,235.0,0
442,-12.0,-18.0,243.0,0
443,-13.0,-15.0,232.0,0
444,-12.0,-16.0,244.0,0
445,-14.0,-15.0,233.0,0
446,-12.0,-16.0,238.0,0
447,-14.0,-16.0,237.0,0
448,-12.0,-14.0,237.0,0
449,-13.0,-13.0,239.0,0
450,-12.0,-14.0,237.0,0
451,-12.0,-15.0,236.0,0
452,-12.0,-14.0,236.0,0
453,-11.0,-12.0,237.0,0
454,-11.0,-16.0,240.0,0
455,-13.0,-15.0,238.0,0
456,-12.0,-12.0,239.0,0
457,-12.0,-10.0,238.0,0
458,-12.0,-15.0,237.0,0
459,-11.0,-12.0,236.0,0
460,-13.0,-15.0,240.0,0
461,-12.0,-14.0,236.0,0
462,-12.0,-16.0,238.0,0
463,-14.0,-13.0,240.0,0
464,-13.0,-15.0,237.0,0
465,-14.0,-15.0,235.0,0
466,-15.0,-15.0,236.0,0
467,-12.0,-13.0,237.0,0
468,-12.0,-13.0,235.0,0
469,-13.0,-12.0,238.0,0
470,-14.0,-11.0,239.0,0
471,-12.0,-13.0,237.0,0
472,-14.0,-16.0,243.0,0
473,-11.0,-10.0,239.0,0
474,-12.0,-13.0,239.0,0
475,-12.0,-12.0,243.0,0
476,-12.0,-11.0,237.0,0
477,-12.0,-13.0,236.0,0
478,-14.0,-10.0,238.0,0
479,-12.0,-14.0,238.0,0
480,-14.0,-11.0,241.0,0
481,-14.0,-14.0,235.0,0
482,-12.0,-14.0,234.0,0
483,-12.0,-12.0,234.0,0
484,-13.0,-14.0,238.0,0
485,-12.0,-12.0,239.0,0
486,-12.0,-14.0,238.0,0
487,-12.0,-14.0,241.0,0
488,-11.0,-14.0,236.0,0
489,-12.0,-11.0,236.0,0
490,-12.0,-12.0,239.0,0
491,-13.0,-12.0,237.0,0
492,-12.0,-13.0,234.0,0
493,-11.0,-14.0,238.0,0
494,-12.0,-12.0,242.0,0
495,-12.0,-13.0,238.0,0
496,-12.0,-14.0,236.0,0
497,-12.0,-13.0,237.0,0
498,-12.0,-13.0,239.0,0
499,-12.0,-14.0,238.0,0
500,-12.0,-11.0,236.0,0
501,-12.0,-12.0,241.0,0
502,-12.0,-8.0,237.0,0
503,-12.0,-13.0,237.0,0
504,-12.0,-12.0,238.0,0
505,-12.0,-11.0,240.0,0
506,-13.0,-12.0,239.0,0
507,-12.0,-13.0,236.0,0
508,-13.0,-13.0,237.0,0
509,-12.0,-12.0,239.0,0
510,-12.0,-12.0,235.0,0
511,-12.0,-9.0,240.0,0
512,-12.0,-9.0,236.0,0
513,-14.0,-12.0,238.0,0
514,-14.0,-11.0,239.0,0
515,-12.0,-12.0,237.0,0
516,-12.0,-12.0,240.0,0
517,-14.0,-10.0,238.0,0
518,-13.0,-13.0,238.0,0
519,-12.0,-10.0,242.0,0
520,-14.0,-12.0,240.0,0
521,-12.0,-12.0,239.0,0
522,-12.0,-11.0,235.0,0
523,-11.0,-13.0,237.0,0
524,-12.0,-9.0,237.0,0
525,-14.0,-13.0,239.0,0
526,-12.0,-8.0,241.0,0
527,-13.0,-12.0,238.0,0
528,-12.0,-12.0,240.0,0
529,-11.0,-9.0,237.0,0
530,-12.0,-10.0,243.0,0
531,-13.0,-11.0,242.0,0
532,-12.0,-13.0,238.0,0
533,-12.0,-10.0,238.0,0
534,-12.0,-10.0,238.0,0
535,-16.0,-10.0,242.0,0
536,-12.0,-12.0,242.0,0
537,-12.0,-12.0,240.0,0
538,-11.0,-7.0,235.0,0
539,-13.0,-11.0,239.0,0
540,-13.0,-9.0,241.0,0
541,-12.0,-4.0,240.0,0
542,-12.0,-8.0,239.0,0
543,-12.0,-8.0,237.0,0
544,-12.0,-10.0,237.0,0
545,-11.0,-8.0,240.0,0
546,-12.0,-8.0,239.0,0
547,-12.0,-4.0,236.0,0
548,-11.0,-7.0,238.0,0
549,-9.0,-10.0,240.0,0
550,-10.0,-10.0,237.0,0
551,-12.0,-10.0,237.0,0
552,-9.0,-9.0,240.0,0
553,-12.0,-11.0,240.0,0
554,-11.0,-11.0,238.0,0
555,-12.0,-11.0,241.0,0
556,-12.0,-12.0,240.0,0
557,-10.0,-14.0,241.0,0
558,-12.0,-10.0,239.0,0
559,-12.0,-15.0,237.0,0
560,-11.0,-14.0,241.0,0
561,-13.0,-12.0,238.0,0
562,-12.0,-13.0,236.0,0
563,-12.0,-7.0,238.0,0
564,-14.0,-12.0,242.0,0
565,-15.0,-5.0,233.0,0
566,-14.0,-8.0,237.0,0
567,-15.0,-7.0,239.0,0
568,-13.0,-10.0,241.0,0
569,-14.0,-7.0,237.0,0
570,-14.0,-7.0,237.0,0
571,-15.0,-8.0,241.0,0
572,-14.0,-9.0,240.0,0
573,-12.0,-9.0,241.0,0
574,-12.0,-10.0,242.0,0
575,-13.0,-6.0,238.0,0
576,-13.0,-11.0,239.0,0
577,-15.0,-7.0,238.0,0
578,-14.0,-8.0,242.0,0
579,-13.0,-9.0,243.0,0
580,-14.0,-9.0,243.0,0
581,-14.0,-10.0,249.0,0
582,-12.0,-2.0,244.0,0
583,-16.0,-3.0,231.0,0
584,-9.0,-3.0,244.0,0
585,-12.0,-4.0,246.0,0
586,-14.0,-5.0,246.0,0
587,-19.0,-6.0,242.0,0
588,-13.0,-5.0,246.0,0
589,-13.0,-7.0,236.0,0
590,-12.0,-9.0,240.0,0
591,-13.0,-11.0,237.0,0
592,-15.0,-15.0,238.0,0
593,-12.0,-14.0,240.0,0
594,-12.0,-18.0,234.0,0
595,-14.0,-15.0,240.0,0
596,-12.0,-20.0,242.0,0
597,-12.0,-18.0,239.0,0
598,-15.0,-18.0,237.0,0
599,-13.0,-17.0,237.0,0
600,-13.0,-16.0,239.0,0
601,-15.0,-14.0,241.0,0
602,-18.0,-14.0,236.0,0
603,-17.0,-14.0,242.0,0
604,-13.0,-17.0,242.0,0
605,-13.0,-16.0,242.0,0
606,-14.0,-15.0,244.0,0
607,-15.0,-14.0,241.0,0
608,-18.0,-9.0,241.0,0
609,-19.0,-11.0,238.0,0
610,-18.0,-13.0,242.0,0
611,-17.0,-14.0,242.0,0
612,-19.0,-12.0,237.0,0
613,-19.0,-17.0,240.0,0
614,-22.0,-14.0,236.0,0
615,-21.0,-18.0,237.0,0
616,-22.0,-20.0,234.0,0
617,-24.0,-22.0,232.0,0
618,-26.0,-22.0,232.0,0
619,-28.0,-21.0,234.0,0
620,-28.0,-21.0,233.0,0
621,-28.0,-20.0,232.0,0
622,-30.0,-20.0,234.0,0
623,-35.0,-17.0,231.0,0
624,-32.0,-18.0,239.0,0
625,-34.0,-17.0,236.0,0
626,-34.0,-15.0,241.0,0
627,-34.0,-12.0,237.0,0
628,-34.0,-12.0,239.0,0
629,-32.0,-15.0,243.0,0
630,-35.0,-14.0,241.0,0
631,-32.0,-13.0,242.0,0
632,-32.0,-13.0,240.0,0
633,-34.0,-13.0,237.0,0
634,-30.0,-11.0,240.0,0
635,-28.0,-12.0,240.0,0
636,-33.0,-11.0,236.0,0
637,-31.0,-11.0,236.0,0
638,-31.0,-15.0,235.0,0
639,-31.0,-12.0,234.0,0
640,-33.0,-10.0,239.0,0
641,-31.0,-16.0,240.0,0
642,-33.0,-12.0,235.0,0
643,-32.0,-13.0,238.0,0
644,-30.0,-16.0,238.0,0
645,-25.0,-17.0,239.0,0
646,-21.0,-19.0,237.0,0
647,-18.0,-23.0,238.0,0
648,-16.0,-19.0,234.0,0
649,-12.0,-22.0,235.0,0
650,-13.0,-21.0,236.0,0
651,-12.0,-23.0,236.0,0
652,-12.0,-21.0,235.0,0
653,-12.0,-19.0,240.0,0
654,-10.0,-23.0,241.0,0
655,-11.0,-25.0,243.0,0
656,-9.0,-21.0,241.0,0
657,-9.0,-28.0,240.0,0
658,-3.0,-28.0,240.0,0
659,-3.0,-22.0,246.0,0
660,-4.0,-21.0,243.0,0
661,-1.0,-20.0,241.0,0
662,0.0,-23.0,242.0,0
663,-2.0,-19.0,240.0,0
664,-1.0,-20.0,236.0,0
665,2.0,-22.0,242.0,0
666,1.0,-21.0,238.0,0
667,1.0,-25.0,238.0,0
668,4.0,-28.0,236.0,0
669,6.0,-31.0,238.0,0
670,7.0,-35.0,238.0,0
671,5.0,-37.0,240.0,0
672,9.0,-37.0,237.0,0
673,7.0,-34.0,239.0,0
674,5.0,-34.0,238.0,0
675,7.0,-34.0,240.0,0
676,7.0,-29.0,242.0,0
677,8.0,-27.0,243.0,0
678,9.0,-28.0,237.0,0
679,11.0,-27.0,238.0,0
680,11.0,-30.0,236.0,0
681,11.0,-32.0,233.0,0
682,14.0,-31.0,233.0,0
683,11.0,-30.0,230.0,0
684,10.0,-29.0,231.0,0
685,8.0,-31.0,236.0,0
686,9.0,-34.0,237.0,0
687,10.0,-33.0,234.0,0
688,6.0,-33.0,232.0,0
689,8.0,-33.0,230.0,0
690,8.0,-36.0,230.0,0
691,10.0,-31.0,236.0,0
692,11.0,-35.0,233.0,0
693,10.0,-35.0,233.0,0
694,15.0,-37.0,238.0,0
695,11.0,-34.0,230.0,0
696,14.0,-31.0,234.0,0
697,17.0,-29.0,233.0,0
698,19.0,-28.0,236.0,0
699,22.0,-27.0,236.0,0
700,24.0,-26.0,235.0,0
701,26.0,-29.0,236.0,0
702,27.0,-21.0,232.0,0
703,29.0,-24.0,229.0,0
704,28.0,-23.0,235.0,0
705,30.0,-23.0,232.0,0
706,29.0,-21.0,235.0,0
707,29.0,-24.0,238.0,0
708,25.0,-24.0,235.0,0
709,27.0,-27.0,239.0,0
710,29.0,-32.0,237.0,0
711,29.0,-29.0,240.0,0
712,30.0,-30.0,232.0,0
713,29.0,-30.0,233.0,0
714,35.0,-37.0,251.0,0
715,31.0,-29.0,233.0,0
716,30.0,-30.0,236.0,0
717,29.0,-29.0,238.0,0
718,29.0,-31.0,236.0,0
719,26.0,-29.0,242.0,0
720,30.0,-27.0,245.0,0
721,27.0,-26.0,245.0,0
722,31.0,-25.0,245.0,0
723,29.0,-24.0,239.0,0
724,33.0,-21.0,239.0,0
725,32.0,-21.0,238.0,0
726,36.0,-19.0,240.0,0
727,38.0,-20.0,237.0,0
728,40.0,-22.0,238.0,0
729,40.0,-23.0,237.0,0
730,41.0,-21.0,241.0,0
731,41.0,-22.0,233.0,0
732,41.0,-24.0,228.0,0
733,42.0,-22.0,237.0,0
734,45.0,-25.0,241.0,0
735,43.0,-23.0,242.0,0
736,42.0,-23.0,242.0,0
737,41.0,-22.0,238.0,0
738,40.0,-22.0,234.0,0
739,40.0,-23.0,230.0,0
740,44.0,-24.0,233.0,0
741,46.0,-27.0,231.0,0
742,46.0,-30.0,227.0,0
743,45.0,-30.0,225.0,0
744,47.0,-34.0,233.0,0
745,48.0,-33.0,231.0,0
746,48.0,-36.0,233.0,0
747,51.0,-33.0,236.0,0
748,50.0,-28.0,236.0,0
749,49.0,-30.0,234.0,0
750,49.0,-26.0,237.0,0
751,55.0,-25.0,232.0,0
752,54.0,-18.0,231.0,0
753,57.0,-20.0,227.0,0
754,62.0,-21.0,227.0,0
755,62.0,-22.0,228.0,0
756,67.0,-21.0,223.0,0
757,63.0,-22.0,225.0,0
758,67.0,-23.0,227.0,0
759,70.0,-26.0,220.0,0
760,72.0,-25.0,220.0,0
761,75.0,-25.0,223.0,0
762,74.0,-22.0,220.0,0
763,76.0,-21.0,220.0,0
764,79.0,-23.0,219.0,0
765,83.0,-20.0,221.0,0
766,79.0,-16.0,220.0,0
767,87.0,-19.0,221.0,0
768,82.0,-18.0,221.0,0
769,88.0,-20.0,217.0,0
770,89.0,-20.0,219.0,0
771,93.0,-20.0,219.0,0
772,95.0,-22.0,212.0,0
773,97.0,-23.0,213.0,0
774,98.0,-24.0,215.0,0
775,98.0,-28.0,216.0,0
776,102.0,-28.0,214.0,0
777,103.0,-26.0,218.0,0
778,102.0,-24.0,213.0,0
779,106.0,-24.0,214.0,0
780,104.0,-24.0,215.0,0
781,104.0,-22.0,213.0,0
782,107.0,-22.0,217.0,0
783,105.0,-22.0,212.0,0
784,107.0,-26.0,207.0,0
785,108.0,-26.0,201.0,0
786,101.0,-23.0,200.0,0
787,82.0,-23.0,201.0,0
788,64.0,-24.0,209.0,0
789,69.0,-34.0,201.0,0
790,84.0,-43.0,185.0,0
791,94.0,-48.0,184.0,0
792,106.0,-50.0,199.0,0
793,124.0,-58.0,217.0,0
794,132.0,-59.0,226.0,0
795,144.0,-61.0,235.0,0
796,149.0,-58.0,240.0,0
797,148.0,-52.0,235.0,0
798,150.0,-50.0,233.0,0
799,144.0,-39.0,225.0,0
800,139.0,-29.0,220.0,0
801,131.0,-25.0,211.0,0
802,125.0,-18.0,204.0,0
803,118.0,-18.0,204.0,0
804,116.0,-20.0,198.0,0
805,115.0,-23.0,193.0,0
806,117.0,-31.0,184.0,0
807,116.0,-35.0,186.0,0
808,120.0,-40.0,195.0,0
809,123.0,-44.0,193.0,0
810,121.0,-41.0,197.0,0
811,126.0,-36.0,202.0,0
812,128.0,-29.0,203.0,0
813,130.0,-21.0,206.0,0
814,134.0,-10.0,210.0,0
815,136.0,-4.0,212.0,0
816,142.0,-3.0,210.0,0
817,143.0,0.0,214.0,0
818,146.0,2.0,210.0,0
819,149.0,2.0,207.0,0
820,145.0,1.0,203.0,0
821,146.0,-2.0,200.0,0
822,142.0,-4.0,199.0,0
823,144.0,-8.0,193.0,0
824,144.0,-8.0,192.0,0
825,143.0,-11.0,193.0,0
826,145.0,-15.0,187.0,0
827,148.0,-19.0,182.0,0
828,147.0,-16.0,179.0,0
829,149.0,-14.0,184.0,0
830,154.0,-16.0,185.0,0
831,153.0,-14.0,184.0,0
832,153.0,-7.0,177.0,0
833,154.0,-3.0,168.0,0
834,153.0,-6.0,166.0,0
835,150.0,-4.0,167.0,0
836,152.0,-1.0,166.0,0
837,156.0,-1.0,167.0,0
838,159.0,0.0,166.0,0
839,162.0,-2.0,159.0,0
840,166.0,0.0,160.0,0
841,172.0,2.0,157.0,0
842,176.0,-2.0,158.0,0
843,179.0,-1.0,156.0,0
844,181.0,0.0,152.0,0
845,184.0,-4.0,151.0,0
846,182.0,-1.0,149.0,0
847,183.0,-1.0,147.0,0
848,186.0,-3.0,145.0,0
849,189.0,-6.0,148.0,0
850,186.0,-4.0,145.0,0
851,189.0,-8.0,146.0,0
852,190.0,-10.0,148.0,0
853,192.0,-11.0,142.0,0
854,191.0,-12.0,147.0,0
855,194.0,-12.0,150.0,0
856,193.0,-14.0,142.0,0
857,196.0,-7.0,143.0,0
858,194.0,-7.0,143.0,0
859,201.0,-7.0,144.0,0
860,203.0,-3.0,146.0,0
861,216.0,-3.0,139.0,0
862,227.0,-1.0,131.0,0
863,235.0,-1.0,130.0,0
864,245.0,-4.0,133.0,0
865,251.0,0.0,130.0,0
866,253.0,4.0,128.0,0
867,254.0,3.0,128.0,0
868,254.0,8.0,125.0,0
869,250.0,12.0,128.0,0
870,248.0,15.0,131.0,0
871,244.0,16.0,129.0,0
872,237.0,16.0,127.0,0
873,230.0,21.0,130.0,0
874,225.0,20.0,126.0,0
875,217.0,20.0,123.0,0
876,217.0,18.0,122.0,0
877,209.0,19.0,115.0,0
878,210.0,20.0,112.0,0
879,209.0,21.0,109.0,0
880,213.0,18.0,110.0,0
881,213.0,23.0,106.0,0
882,218.0,23.0,106.0,0
883,223.0,22.0,107.0,0
884,226.0,24.0,109.0,0
885,229.0,25.0,111.0,0
886,229.0,28.0,109.0,0
887,234.0,30.0,111.0,0
888,236.0,32.0,113.0,0
889,235.0,31.0,110.0,0
890,232.0,32.0,107.0,0
891,235.0,29.0,106.0,0
892,233.0,35.0,117.0,0
893,230.0,36.0,114.0,0
894,227.0,37.0,114.0,0
895,226.0,37.0,110.0,0
896,225.0,38.0,116.0,0
897,224.0,36.0,114.0,0
898,226.0,35.0,116.0,0
899,223.0,35.0,109.0,0
900,227.0,32.0,110.0,0
901,231.0,32.0,101.0,0
902,231.0,28.0,94.0,0
903,234.0,31.0,89.0,0
904,236.0,28.0,84.0,0
905,235.0,26.0,81.0,0
906,241.0,24.0,77.0,0
907,241.0,20.0,73.0,0
908,237.0,18.0,77.0,0
909,235.0,21.0,75.0,0
910,236.0,18.0,74.0,0
911,235.0,21.0,78.0,0
912,231.0,20.0,80.0,0
913,233.0,18.0,79.0,0
914,239.0,21.0,78.0,0
915,238.0,20.0,79.0,0
916,241.0,24.0,79.0,0
917,245.0,20.0,73.0,0
918,247.0,21.0,74.0,0
919,248.0,22.0,71.0,0
920,258.0,18.0,68.0,0
921,259.0,18.0,60.0,0
922,259.0,18.0,55.0,0
923,260.0,19.0,51.0,0
924,258.0,21.0,53.0,0
925,258.0,19.0,49.0,0
926,262.0,22.0,43.0,0
927,265.0,20.0,43.0,0
928,263.0,18.0,37.0,0
929,262.0,19.0,42.0,0
930,263.0,16.0,33.0,0
931,263.0,15.0,32.0,0
932,263.0,11.0,31.0,0
933,261.0,14.0,34.0,0
934,261.0,13.0,33.0,0
935,259.0,10.0,27.0,0
936,262.0,15.0,33.0,0
937,260.0,16.0,32.0,0
938,259.0,18.0,29.0,0
939,262.0,18.0,26.0,0
940,263.0,23.0,25.0,0
941,262.0,23.0,23.0,0
942,266.0,26.0,23.0,0
943,264.0,26.0,23.0,0
944,268.0,26.0,15.0,0
945,268.0,29.0,15.0,0
946,270.0,29.0,16.0,0
947,271.0,25.0,16.0,0
948,275.0,26.0,12.0,0
949,276.0,24.0,20.0,0
950,274.0,25.0,13.0,0
951,273.0,24.0,14.0,0
952,270.0,26.0,11.0,0
953,267.0,24.0,13.0,0
954,265.0,25.0,16.0,0
955,260.0,25.0,16.0,0
956,258.0,24.0,20.0,0
957,253.0,24.0,17.0,0
958,250.0,20.0,20.0,0
959,248.0,24.0,17.0,0
960,248.0,24.0,20.0,0
961,244.0,24.0,15.0,0
962,246.0,23.0,17.0,0
963,243.0,20.0,21.0,0
964,247.0,21.0,22.0,0
965,246.0,21.0,18.0,0
966,249.0,20.0,16.0,0
967,251.0,21.0,17.0,0
968,252.0,20.0,18.0,0
969,256.0,17.0,20.0,0
970,257.0,19.0,20.0,0
971,259.0,22.0,20.0,0
972,262.0,26.0,18.0,0
973,263.0,24.0,21.0,0
974,261.0,27.0,22.0,0
975,260.0,27.0,22.0,0
976,257.0,26.0,25.0,0
977,259.0,25.0,23.0,0
978,258.0,24.0,19.0,0
979,255.0,22.0,18.0,0
980,251.0,19.0,15.0,0
981,253.0,17.0,11.0,0
982,251.0,14.0,10.0,0
983,251.0,12.0,6.0,0
984,249.0,15.0,6.0,0
985,251.0,14.0,6.0,0
986,248.0,17.0,7.0,0
987,250.0,15.0,1.0,0
988,250.0,16.0,3.0,0
989,254.0,16.0,-1.0,0
990,254.0,15.0,-2.0,0
991,256.0,17.0,-5.0,0
992,253.0,19.0,-3.0,0
993,258.0,22.0,-9.0,0
994,257.0,23.0,-11.0,0
995,260.0,23.0,-12.0,0
996,261.0,23.0,-10.0,0
997,266.0,20.0,-14.0,0
998,266.0,24.0,-10.0,0
999,266.0,24.0,-17.0,0
1000,266.0,21.0,-11.0,0
1001,264.0,19.0,-13.0,0
1002,263.0,16.0,-12.0,0
1003,262.0,18.0,-11.0,0
1004,263.0,17.0,-16.0,0
1005,261.0,16.0,-12.0,0
1006,259.0,18.0,-15.0,0
1007,257.0,15.0,-14.0,0
1008,258.0,16.0,-21.0,0
1009,256.0,15.0,-20.0,0
1010,257.0,15.0,-22.0,0
1011,255.0,15.0,-27.0,0
1012,256.0,14.0,-23.0,0
1013,255.0,17.0,-25.0,0
1014,254.0,14.0,-31.0,0
1015,254.0,13.0,-28.0,0
1016,257.0,14.0,-25.0,0
1017,255.0,16.0,-31.0,0
1018,257.0,13.0,-33.0,0
1019,258.0,11.0,-33.0,0
1020,260.0,14.0,-34.0,0
1021,260.0,11.0,-37.0,0
1022,263.0,11.0,-40.0,0
1023,263.0,9.0,-36.0,0
1024,265.0,10.0,-36.0,0
1025,262.0,11.0,-40.0,0
1026,264.0,10.0,-43.0,0
1027,264.0,12.0,-38.0,0
1028,267.0,10.0,-44.0,0
1029,263.0,15.0,-43.0,0
1030,266.0,18.0,-45.0,0
1031,264.0,18.0,-43.0,0
1032,266.0,19.0,-48.0,0
1033,262.0,22.0,-41.0,0
1034,263.0,22.0,-45.0,0
1035,264.0,22.0,-47.0,0
1036,261.0,22.0,-43.0,0
1037,257.0,24.0,-45.0,0
1038,260.0,21.0,-48.0,0
1039,259.0,24.0,-53.0,0
1040,259.0,22.0,-55.0,0
1041,258.0,21.0,-57.0,0
1042,261.0,18.0,-52.0,0
1043,257.0,19.0,-55.0,0
1044,258.0,16.0,-54.0,0
1045,257.0,16.0,-57.0,0
1046,254.0,18.0,-57.0,0
1047,250.0,21.0,-50.0,0
1048,249.0,18.0,-50.0,0
1049,248.0,23.0,-50.0,0
1050,248.0,24.0,-56.0,0
1051,249.0,22.0,-56.0,0
1052,253.0,21.0,-57.0,0
1053,252.0,16.0,-61.0,0
1054,254.0,8.0,-65.0,0
1055,255.0,3.0,-69.0,0
1056,253.0,0.0,-68.0,0
1057,256.0,-4.0,-77.0,0
1058,260.0,-3.0,-81.0,0
1059,261.0,-4.0,-84.0,0
1060,263.0,-6.0,-92.0,0
1061,260.0,-1.0,-90.0,0
1062,261.0,-3.0,-86.0,0
1063,257.0,3.0,-83.0,0
1064,252.0,9.0,-79.0,0
1065,246.0,15.0,-79.0,0
1066,243.0,22.0,-73.0,0
1067,239.0,23.0,-66.0,0
1068,237.0,24.0,-65.0,0
1069,232.0,26.0,-66.0,0
1070,231.0,23.0,-73.0,0
1071,235.0,18.0,-75.0,0
1072,236.0,15.0,-77.0,0
1073,243.0,7.0,-74.0,0
1074,244.0,6.0,-78.0,0
1075,248.0,5.0,-76.0,0
1076,251.0,7.0,-76.0,0
1077,252.0,8.0,-75.0,0
1078,256.0,14.0,-77.0,0
1079,257.0,13.0,-77.0,0
1080,257.0,21.0,-76.0,0
1081,260.0,25.0,-78.0,0
1082,262.0,28.0,-75.0,0
1083,260.0,32.0,-67.0,0
1084,261.0,31.0,-69.0,0
1085,262.0,36.0,-66.0,0
1086,266.0,34.0,-61.0,0
1087,263.0,33.0,-57.0,0
1088,265.0,33.0,-57.0,0
1089,271.0,30.0,-58.0,0
1090,272.0,29.0,-57.0,0
1091,273.0,28.0,-54.0,0
1092,278.0,28.0,-54.0,0
1093,279.0,22.0,-54.0,0
1094,283.0,21.0,-58.0,0
1095,281.0,22.0,-59.0,0
1096,283.0,18.0,-62.0,0
1097,278.0,17.0,-63.0,0
1098,276.0,17.0,-65.0,0
1099,277.0,17.0,-59.0,0
1100,273.0,19.0,-64.0,0
1101,268.0,16.0,-60.0,0
1102,268.0,16.0,-61.0,0
1103,264.0,19.0,-57.0,0
1104,262.0,22.0,-59.0,0
1105,264.0,24.0,-59.0,0
1106,262.0,25.0,-56.0,0
1107,263.0,25.0,-56.0,0
1108,263.0,27.0,-54.0,0
1109,268.0,26.0,-55.0,0
1110,266.0,28.0,-53.0,0
1111,267.0,30.0,-55.0,0
1112,266.0,31.0,-52.0,0
1113,269.0,28.0,-52.0,0
1114,265.0,26.0,-49.0,0
1115,265.0,32.0,-55.0,0
1116,264.0,28.0,-49.0,0
1117,263.0,29.0,-52.0,0
1118,263.0,23.0,-54.0,0
1119,258.0,23.0,-52.0,0
1120,259.0,22.0,-51.0,0
1121,259.0,22.0,-47.0,0
1122,257.0,24.0,-51.0,0
1123,256.0,26.0,-48.0,0
1124,256.0,23.0,-52.0,0
1125,257.0,24.0,-54.0,0
1126,257.0,25.0,-54.0,0
1127,259.0,25.0,-51.0,0
1128,258.0,24.0,-55.0,0
1129,257.0,25.0,-51.0,0
1130,256.0,21.0,-56.0,0
1131,255.0,20.0,-56.0,0
1132,255.0,22.0,-55.0,0
1133,254.0,23.0,-54.0,0
1134,256.0,22.0,-56.0,0
1135,255.0,27.0,-56.0,0
1136,260.0,25.0,-56.0,0
1137,256.0,32.0,-55.0,0
1138,259.0,30.0,-55.0,0
1139,260.0,29.0,-54.0,0
1140,259.0,32.0,-53.0,0
1141,258.0,32.0,-53.0,0
1142,258.0,29.0,-55.0,0
1143,257.0,32.0,-52.0,0
1144,259.0,29.0,-53.0,0
1145,255.0,29.0,-47.0,0
1146,255.0,29.0,-53.0,0
1147,257.0,29.0,-52.0,0
1148,255.0,28.0,-51.0,0
1149,254.0,26.0,-49.0,0
1150,255.0,23.0,-47.0,0
1151,256.0,23.0,-53.0,0
1152,257.0,22.0,-53.0,0
1153,256.0,27.0,-48.0,0
1154,256.0,25.0,-50.0,0
1155,255.0,25.0,-52.0,0
1156,257.0,25.0,-52.0,0
1157,259.0,27.0,-52.0,0
1158,258.0,25.0,-51.0,0
1159,256.0,28.0,-50.0,0
1160,257.0,29.0,-52.0,0
1161,258.0,27.0,-46.0,0
1162,258.0,29.0,-52.0,0
1163,260.0,28.0,-53.0,0
1164,256.0,26.0,-50.0,0
1165,258.0,27.0,-49.0,0
1166,256.0,28.0,-49.0,0
1167,257.0,23.0,-49.0,0
1168,257.0,22.0,-54.0,0
1169,254.0,25.0,-50.0,0
1170,255.0,25.0,-50.0,0
1171,257.0,23.0,-49.0,0
1172,257.0,24.0,-52.0,0
1173,257.0,24.0,-50.0,0
1174,257.0,25.0,-45.0,0
1175,258.0,23.0,-52.0,0
1176,258.0,24.0,-51.0,0
1177,257.0,26.0,-52.0,0
1178,259.0,28.0,-49.0,0
1179,258.0,25.0,-53.0,0
1180,256.0,24.0,-50.0,0
1181,257.0,24.0,-50.0,0
1182,255.0,25.0,-50.0,0
1183,255.0,24.0,-51.0,0
1184,257.0,24.0,-51.0,0
1185,261.0,22.0,-49.0,0
1186,260.0,23.0,-49.0,0
1187,259.0,27.0,-50.0,0
1188,262.0,24.0,-51.0,0
1189,259.0,25.0,-50.0,0
1190,261.0,26.0,-49.0,0
1191,257.0,24.0,-48.0,0
1192,255.0,29.0,-51.0,0
1193,257.0,27.0,-51.0,0
1194,257.0,28.0,-55.0,0
1195,256.0,24.0,-53.0,0
1196,251.0,26.0,-52.0,0
1197,254.0,21.0,-50.0,0
1198,253.0,24.0,-53.0,0
1199,258.0,22.0,-54.0,0
1200,257.0,21.0,-51.0,0
1201,258.0,25.0,-55.0,0
1202,257.0,23.0,-52.0,0
1203,257.0,27.0,-53.0,0
1204,258.0,27.0,-49.0,0
1205,258.0,27.0,-50.0,0
1206,257.0,26.0,-48.0,0
1207,257.0,27.0,-48.0,0
1208,256.0,26.0,-49.0,0
1209,258.0,25.0,-48.0,0
1210,257.0,22.0,-53.0,0
1211,257.0,23.0,-53.0,0
1212,254.0,23.0,-53.0,0
1213,257.0,22.0,-55.0,0
1214,256.0,23.0,-53.0,0
1215,256.0,22.0,-50.0,0
1216,258.0,24.0,-56.0,0
1217,259.0,25.0,-57.0,0
1218,258.0,26.0,-54.0,0
1219,262.0,22.0,-53.0,0
1220,259.0,26.0,-51.0,0
1221,258.0,27.0,-55.0,0
1222,261.0,24.0,-59.0,0
1223,260.0,25.0,-53.0,0
1224,256.0,24.0,-46.0,0
1225,253.0,31.0,-54.0,0
1226,259.0,29.0,-45.0,0
1227,261.0,26.0,-55.0,0
1228,261.0,38.0,-54.0,0
1229,262.0,25.0,-53.0,0
1230,260.0,24.0,-58.0,0
1231,259.0,24.0,-53.0,0
1232,258.0,26.0,-52.0,0
1233,258.0,24.0,-51.0,0
1234,263.0,29.0,-64.0,0
1235,259.0,25.0,-49.0,0
1236,259.0,24.0,-52.0,0
1237,258.0,25.0,-54.0,0
1238,257.0,23.0,-51.0,0
1239,256.0,26.0,-50.0,0
1240,258.0,22.0,-52.0,0
1241,258.0,25.0,-53.0,0
1242,255.0,23.0,-52.0,0
1243,258.0,23.0,-53.0,0
1244,256.0,21.0,-53.0,0
1245,256.0,24.0,-50.0,0
1246,256.0,26.0,-54.0,0
1247,258.0,24.0,-55.0,0
1248,258.0,23.0,-55.0,0
1249,256.0,24.0,-54.0,0
1250,258.0,24.0,-51.0,0
1251,260.0,24.0,-54.0,0
1252,261.0,24.0,-54.0,0
1253,261.0,25.0,-52.0,0
1254,262.0,22.0,-51.0,0
1255,260.0,24.0,-53.0,0
1256,259.0,23.0,-52.0,0
1257,257.0,24.0,-48.0,0
1258,261.0,22.0,-49.0,0
1259,257.0,24.0,-55.0,0
1260,262.0,20.0,-50.0,0
1261,261.0,21.0,-52.0,0
1262,257.0,23.0,-52.0,0
1263,259.0,22.0,-52.0,0
1264,259.0,22.0,-51.0,0
1265,259.0,23.0,-55.0,0
1266,259.0,24.0,-53.0,0
1267,257.0,25.0,-52.0,0
1268,258.0,24.0,-54.0,0
1269,259.0,26.0,-53.0,0
1270,260.0,24.0,-53.0,0
1271,259.0,24.0,-53.0,0
1272,257.0,25.0,-53.0,0
1273,256.0,23.0,-54.0,0
1274,257.0,25.0,-55.0,0
1275,257.0,23.0,-55.0,0
1276,259.0,23.0,-56.0,0
1277,255.0,25.0,-56.0,0
1278,256.0,23.0,-55.0,0
1279,257.0,23.0,-51.0,0
1280,259.0,24.0,-51.0,0
1281,255.0,25.0,-54.0,0
1282,257.0,20.0,-55.0,0
1283,256.0,24.0,-53.0,0
1284,259.0,23.0,-54.0,0
1285,258.0,23.0,-53.0,0
1286,260.0,21.0,-51.0,0
1287,262.0,25.0,-51.0,0
1288,259.0,23.0,-53.0,0
1289,256.0,25.0,-54.0,0
1290,257.0,24.0,-53.0,0
1291,258.0,23.0,-48.0,0
1292,256.0,24.0,-51.0,0
1293,256.0,24.0,-49.0,0
1294,256.0,22.0,-54.0,0
1295,256.0,21.0,-49.0,0
1296,256.0,22.0,-48.0,0
1297,260.0,25.0,-52.0,0
1298,257.0,25.0,-50.0,0
1299,255.0,25.0,-49.0,0
1300,255.0,27.0,-45.0,0
1301,260.0,27.0,-47.0,0
1302,259.0,27.0,-48.0,0
1303,256.0,28.0,-48.0,0
1304,256.0,25.0,-52.0,0
1305,257.0,27.0,-47.0,0
1306,259.0,26.0,-47.0,0
1307,258.0,25.0,-48.0,0
1308,258.0,28.0,-49.0,0
1309,261.0,22.0,-46.0,0
1310,258.0,27.0,-48.0,0
1311,258.0,27.0,-47.0,0
1312,259.0,23.0,-53.0,0
1313,258.0,26.0,-51.0,0
1314,260.0,25.0,-50.0,0
1315,260.0,25.0,-49.0,0
1316,259.0,23.0,-52.0,0
1317,259.0,25.0,-53.0,0
1318,260.0,23.0,-51.0,0
1319,261.0,25.0,-52.0,0
1320,260.0,23.0,-54.0,0
1321,258.0,28.0,-51.0,0
1322,258.0,26.0,-51.0,0
1323,258.0,25.0,-48.0,0
1324,259.0,25.0,-51.0,0
1325,261.0,22.0,-52.0,0
1326,257.0,24.0,-53.0,0
1327,260.0,21.0,-49.0,0
1328,260.0,21.0,-55.0,0
1329,260.0,24.0,-52.0,0
1330,259.0,23.0,-48.0,0
1331,256.0,26.0,-51.0,0
1332,259.0,22.0,-51.0,0
1333,257.0,26.0,-50.0,0
1334,258.0,23.0,-49.0,0
1335,257.0,23.0,-49.0,0
1336,255.0,23.0,-46.0,0
1337,254.0,25.0,-53.0,0
1338,257.0,22.0,-46.0,0
1339,256.0,25.0,-49.0,0
1340,257.0,22.0,-46.0,0
1341,256.0,21.0,-48.0,0
1342,258.0,24.0,-44.0,0
1343,261.0,23.0,-49.0,0
1344,259.0,28.0,-52.0,0
1345,259.0,25.0,-52.0,0
1346,258.0,28.0,-51.0,0
1347,260.0,25.0,-51.0,0
1348,261.0,26.0,-49.0,0
1349,259.0,24.0,-50.0,0
1350,260.0,25.0,-52.0,0
1351,258.0,25.0,-52.0,0
1352,260.0,24.0,-50.0,0
1353,257.0,28.0,-52.0,0
1354,260.0,25.0,-53.0,0
1355,258.0,23.0,-50.0,0
1356,257.0,27.0,-50.0,0
1357,258.0,26.0,-54.0,0
1358,257.0,25.0,-50.0,0
1359,257.0,25.0,-49.0,0
1360,258.0,25.0,-52.0,0
1361,260.0,24.0,-55.0,0
1362,260.0,24.0,-52.0,0
1363,258.0,26.0,-49.0,0
1364,260.0,27.0,-53.0,0
1365,261.0,26.0,-50.0,0
1366,260.0,26.0,-53.0,0
1367,259.0,28.0,-54.0,0
1368,262.0,27.0,-47.0,0
1369,260.0,28.0,-52.0,0
1370,258.0,24.0,-52.0,0
1371,260.0,27.0,-47.0,0
1372,259.0,22.0,-46.0,0
1373,257.0,25.0,-48.0,0
1374,256.0,25.0,-45.0,0
1375,260.0,24.0,-46.0,0
1376,259.0,24.0,-49.0,0
1377,255.0,23.0,-52.0,0
1378,259.0,26.0,-49.0,0
1379,257.0,25.0,-48.0,0
1380,258.0,24.0,-50.0,0
1381,261.0,23.0,-49.0,0
1382,258.0,25.0,-46.0,0
1383,257.0,25.0,-50.0,0
1384,262.0,22.0,-49.0,0
1385,260.0,23.0,-49.0,0
1386,258.0,22.0,-48.0,0
1387,259.0,20.0,-44.0,0
1388,255.0,24.0,-49.0,0
1389,252.0,23.0,-47.0,0
1390,253.0,24.0,-45.0,0
1391,252.0,25.0,-49.0,0
1392,254.0,23.0,-44.0,0
1393,258.0,25.0,-45.0,0
1394,255.0,24.0,-48.0,0
1395,258.0,26.0,-47.0,0
1396,258.0,22.0,-43.0,0
1397,256.0,23.0,-44.0,0
1398,260.0,22.0,-44.0,0
1399,258.0,20.0,-45.0,0
1400,258.0,22.0,-47.0,0
1401,260.0,20.0,-47.0,0
1402,260.0,23.0,-44.0,0
1403,260.0,22.0,-43.0,0
1404,258.0,24.0,-48.0,0
1405,260.0,25.0,-44.0,0
1406,260.0,22.0,-49.0,0
1407,262.0,24.0,-47.0,0
1408,260.0,22.0,-49.0,0
1409,258.0,24.0,-47.0,0
1410,260.0,24.0,-47.0,0
1411,257.0,25.0,-51.0,0
1412,262.0,25.0,-48.0,0
1413,264.0,23.0,-50.0,0
1414,261.0,26.0,-50.0,0
1415,263.0,25.0,-48.0,0
1416,262.0,25.0,-52.0,0
1417,264.0,26.0,-53.0,0
1418,262.0,26.0,-49.0,0
1419,264.0,26.0,-52.0,0
1420,262.0,28.0,-49.0,0
1421,265.0,25.0,-49.0,0
1422,265.0,27.0,-49.0,0
1423,268.0,25.0,-51.0,0
1424,267.0,23.0,-52.0,0
1425,267.0,24.0,-50.0,0
1426,268.0,25.0,-49.0,0
1427,268.0,23.0,-46.0,0
1428,271.0,23.0,-49.0,0
1429,271.0,23.0,-49.0,0
1430,269.0,24.0,-43.0,0
1431,270.0,24.0,-47.0,0
1432,265.0,24.0,-44.0,0
1433,264.0,25.0,-45.0,0
1434,261.0,26.0,-40.0,0
1435,260.0,26.0,-40.0,0
1436,261.0,23.0,-37.0,0
1437,257.0,23.0,-41.0,0
1438,259.0,24.0,-42.0,0
1439,257.0,24.0,-42.0,0
1440,256.0,23.0,-41.0,0
1441,258.0,26.0,-45.0,0
1442,256.0,27.0,-38.0,0
1443,256.0,24.0,-43.0,0
1444,259.0,23.0,-42.0,0
1445,257.0,22.0,-44.0,0
1446,258.0,21.0,-43.0,0
1447,258.0,21.0,-42.0,0
1448,257.0,21.0,-35.0,0
1449,258.0,18.0,-40.0,0
1450,257.0,21.0,-37.0,0
1451,253.0,16.0,-35.0,0
1452,258.0,20.0,-43.0,0
1453,257.0,20.0,-37.0,0
1454,258.0,22.0,-38.0,0
1455,259.0,22.0,-34.0,0
1456,260.0,21.0,-31.0,0
1457,260.0,19.0,-36.0,0
1458,260.0,20.0,-36.0,0
1459,259.0,23.0,-35.0,0
1460,260.0,22.0,-35.0,0
1461,262.0,22.0,-34.0,0
1462,264.0,23.0,-33.0,0
1463,262.0,22.0,-32.0,0
1464,266.0,19.0,-31.0,0
1465,270.0,20.0,-30.0,0
1466,266.0,20.0,-33.0,0
1467,266.0,22.0,-27.0,0
1468,268.0,22.0,-33.0,0
1469,266.0,20.0,-34.0,0
1470,265.0,22.0,-32.0,0
1471,266.0,20.0,-28.0,0
1472,266.0,21.0,-29.0,0
1473,266.0,21.0,-28.0,0
1474,261.0,24.0,-26.0,0
1475,263.0,25.0,-27.0,0
1476,262.0,24.0,-29.0,0
1477,264.0,23.0,-26.0,0
1478,263.0,24.0,-28.0,0
1479,269.0,21.0,-28.0,0
1480,266.0,22.0,-22.0,0
1481,267.0,21.0,-27.0,0
1482,270.0,19.0,-26.0,0
1483,269.0,23.0,-25.0,0
1484,271.0,23.0,-20.0,0
1485,268.0,23.0,-21.0,0
1486,270.0,23.0,-20.0,0
1487,268.0,22.0,-24.0,0
1488,263.0,25.0,-19.0,0
1489,263.0,27.0,-18.0,0
1490,262.0,24.0,-17.0,0
1491,262.0,26.0,-20.0,0
1492,261.0,24.0,-20.0,0
1493,263.0,24.0,-15.0,0
1494,257.0,22.0,-15.0,0
1495,257.0,22.0,-10.0,0
1496,257.0,21.0,-11.0,0
1497,256.0,22.0,-12.0,0
1498,251.0,22.0,-12.0,0
1499,253.0,18.0,-8.0,0
1500,251.0,17.0,-7.0,0
1501,247.0,18.0,-5.0,0
1502,249.0,14.0,-5.0,0
1503,249.0,15.0,-1.0,0
1504,253.0,13.0,2.0,0
1505,249.0,14.0,2.0,0
1506,251.0,16.0,2.0,0
1507,250.0,16.0,8.0,0
1508,252.0,16.0,4.0,0
1509,255.0,17.0,8.0,0
1510,255.0,20.0,8.0,0
1511,252.0,21.0,9.0,0
1512,257.0,23.0,7.0,0
1513,256.0,24.0,11.0,0
1514,256.0,22.0,11.0,0
1515,255.0,27.0,11.0,0
1516,256.0,24.0,14.0,0
1517,251.0,27.0,17.0,0
1518,255.0,26.0,17.0,0
1519,255.0,28.0,16.0,0
1520,254.0,30.0,13.0,0
1521,257.0,26.0,13.0,0
1522,261.0,22.0,17.0,0
1523,262.0,21.0,16.0,0
1524,260.0,22.0,15.0,0
1525,263.0,20.0,18.0,0
1526,264.0,18.0,18.0,0
1527,262.0,19.0,19.0,0
1528,261.0,21.0,16.0,0
1529,262.0,20.0,15.0,0
1530,261.0,21.0,18.0,0
1531,260.0,19.0,17.0,0
1532,257.0,21.0,14.0,0
1533,256.0,22.0,15.0,0
1534,259.0,21.0,19.0,0
1535,261.0,19.0,19.0,0
1536,256.0,24.0,21.0,0
1537,258.0,24.0,17.0,0
1538,260.0,22.0,25.0,0
1539,258.0,23.0,21.0,0
1540,258.0,24.0,20.0,0
1541,260.0,24.0,23.0,0
1542,265.0,24.0,21.0,0
1543,263.0,25.0,26.0,0
1544,261.0,25.0,19.0,0
1545,263.0,25.0,21.0,0
1546,263.0,26.0,19.0,0
1547,264.0,24.0,21.0,0
1548,263.0,25.0,19.0,0
1549,264.0,17.0,21.0,0
1550,260.0,17.0,19.0,0
1551,261.0,17.0,18.0,0
1552,262.0,14.0,19.0,0
1553,258.0,16.0,20.0,0
1554,260.0,12.0,21.0,0
1555,256.0,12.0,23.0,0
1556,256.0,11.0,25.0,0
1557,256.0,13.0,25.0,0
1558,256.0,14.0,27.0,0
1559,258.0,13.0,28.0,0
1560,257.0,14.0,30.0,0
1561,256.0,17.0,29.0,0
1562,246.0,17.0,26.0,0
1563,256.0,16.0,30.0,0
1564,254.0,21.0,27.0,0
1565,256.0,18.0,32.0,0
1566,257.0,17.0,26.0,0
1567,253.0,18.0,32.0,0
1568,252.0,16.0,33.0,0
1569,252.0,19.0,37.0,0
1570,254.0,12.0,37.0,0
1571,255.0,14.0,36.0,0
1572,254.0,12.0,37.0,0
1573,254.0,15.0,35.0,0
1574,256.0,12.0,38.0,0
1575,256.0,11.0,41.0,0
1576,257.0,14.0,38.0,0
1577,258.0,14.0,37.0,0
1578,257.0,17.0,36.0,0
1579,258.0,17.0,39.0,0
1580,257.0,17.0,42.0,0
1581,259.0,16.0,39.0,0
1582,255.0,19.0,42.0,0
1583,256.0,15.0,39.0,0
1584,254.0,17.0,42.0,0
1585,254.0,16.0,43.0,0
1586,253.0,14.0,48.0,0
1587,253.0,17.0,48.0,0
1588,251.0,15.0,43.0,0
1589,254.0,14.0,49.0,0
1590,254.0,14.0,50.0,0
1591,254.0,14.0,47.0,0
1592,253.0,15.0,51.0,0
1593,254.0,15.0,50.0,0
1594,253.0,13.0,52.0,0
1595,251.0,17.0,54.0,0
1596,254.0,16.0,54.0,0
1597,251.0,16.0,50.0,0
1598,253.0,16.0,53.0,0
1599,255.0,12.0,49.0,0
1600,254.0,13.0,50.0,0
1601,257.0,8.0,53.0,0
1602,254.0,14.0,54.0,0
1603,255.0,12.0,55.0,0
1604,249.0,13.0,58.0,0
1605,248.0,11.0,59.0,0
1606,250.0,12.0,54.0,0
1607,247.0,11.0,61.0,0
1608,245.0,13.0,59.0,0
1609,247.0,11.0,65.0,0
1610,246.0,10.0,65.0,0
1611,244.0,11.0,62.0,0
1612,245.0,11.0,65.0,0
1613,246.0,10.0,65.0,0
1614,245.0,12.0,65.0,0
1615,245.0,12.0,63.0,0
1616,242.0,12.0,64.0,0
1617,245.0,11.0,69.0,0
1618,245.0,12.0,73.0,0
1619,242.0,15.0,71.0,0
1620,246.0,14.0,71.0,0
1621,244.0,11.0,76.0,0
1622,243.0,11.0,73.0,0
1623,243.0,12.0,76.0,0
1624,245.0,11.0,75.0,0
1625,243.0,14.0,77.0,0
1626,244.0,13.0,80.0,0
1627,244.0,14.0,81.0,0
1628,240.0,12.0,85.0,0
1629,241.0,11.0,81.0,0
1630,241.0,11.0,87.0,0
1631,240.0,11.0,88.0,0
1632,243.0,7.0,90.0,0
1633,244.0,7.0,89.0,0
1634,245.0,7.0,91.0,0
1635,245.0,7.0,93.0,0
1636,244.0,8.0,97.0,0
1637,245.0,4.0,95.0,0
1638,243.0,5.0,99.0,0
1639,243.0,8.0,99.0,0
1640,243.0,5.0,100.0,0
1641,240.0,8.0,95.0,0
1642,240.0,6.0,96.0,0
1643,238.0,9.0,100.0,0
1644,238.0,3.0,98.0,0
1645,237.0,6.0,99.0,0
1646,229.0,6.0,100.0,0
1647,231.0,1.0,100.0,0
1648,231.0,2.0,100.0,0
1649,228.0,4.0,102.0,0
1650,226.0,1.0,102.0,0
1651,224.0,6.0,102.0,0
1652,226.0,3.0,101.0,0
1653,222.0,5.0,102.0,0
1654,220.0,7.0,99.0,0
1655,221.0,4.0,104.0,0
1656,216.0,7.0,107.0,0
1657,219.0,8.0,105.0,0
1658,216.0,4.0,110.0,0
1659,213.0,7.0,110.0,0
1660,213.0,3.0,110.0,0
1661,212.0,3.0,108.0,0
1662,208.0,5.0,116.0,0
1663,210.0,2.0,121.0,0
1664,209.0,0.0,119.0,0
1665,207.0,-1.0,122.0,0
1666,208.0,2.0,127.0,0
1667,211.0,0.0,127.0,0
1668,205.0,2.0,131.0,0
1669,210.0,2.0,131.0,0
1670,208.0,2.0,134.0,0
1671,209.0,0.0,132.0,0
1672,210.0,2.0,136.0,0
1673,215.0,2.0,139.0,0
1674,214.0,2.0,138.0,0
1675,212.0,3.0,140.0,0
1676,213.0,6.0,144.0,0
1677,214.0,6.0,140.0,0
1678,213.0,4.0,145.0,0
1679,211.0,4.0,142.0,0
1680,210.0,6.0,144.0,0
1681,213.0,4.0,146.0,0
1682,211.0,6.0,146.0,0
1683,206.0,6.0,147.0,0
1684,203.0,6.0,152.0,0
1685,205.0,6.0,152.0,0
1686,201.0,4.0,156.0,0
1687,203.0,2.0,158.0,0
1688,200.0,0.0,157.0,0
1689,199.0,-2.0,158.0,0
1690,200.0,-3.0,160.0,0
1691,196.0,-3.0,161.0,0
1692,198.0,-4.0,161.0,0
1693,194.0,-4.0,156.0,0
1694,194.0,-4.0,159.0,0
1695,189.0,-4.0,161.0,0
1696,191.0,-3.0,162.0,0
1697,185.0,1.0,168.0,0
1698,189.0,-2.0,170.0,0
1699,188.0,-3.0,175.0,0
1700,191.0,-6.0,176.0,0
1701,190.0,-3.0,180.0,0
1702,195.0,-4.0,182.0,0
1703,195.0,-4.0,190.0,0
1704,195.0,-2.0,193.0,0
1705,193.0,0.0,194.0,0
1706,188.0,1.0,194.0,0
1707,182.0,0.0,187.0,0
1708,179.0,-1.0,184.0,0
1709,175.0,-3.0,184.0,0
1710,169.0,-3.0,177.0,0
1711,161.0,-10.0,180.0,0
1712,157.0,-13.0,176.0,0
1713,160.0,-14.0,175.0,0
1714,158.0,-17.0,175.0,0
1715,153.0,-18.0,175.0,0
1716,148.0,-15.0,169.0,0
1717,147.0,-10.0,176.0,0
1718,147.0,-4.0,178.0,0
1719,145.0,-3.0,178.0,0
1720,147.0,3.0,184.0,0
1721,147.0,4.0,185.0,0
1722,145.0,9.0,197.0,0
1723,143.0,8.0,196.0,0
1724,143.0,4.0,201.0,0
1725,143.0,4.0,202.0,0
1726,137.0,8.0,205.0,0
1727,137.0,7.0,203.0,0
1728,140.0,5.0,203.0,0
1729,136.0,7.0,206.0,0
1730,136.0,5.0,209.0,0
1731,137.0,8.0,202.0,0
1732,137.0,4.0,204.0,0
1733,136.0,4.0,201.0,0
1734,136.0,1.0,198.0,0
1735,138.0,1.0,201.0,0
1736,134.0,-3.0,200.0,0
1737,131.0,-3.0,197.0,0
1738,135.0,-4.0,200.0,0
1739,131.0,-7.0,193.0,0
1740,130.0,-12.0,199.0,0
1741,134.0,-12.0,196.0,0
1742,129.0,-10.0,199.0,0
1743,128.0,-11.0,200.0,0
1744,127.0,-5.0,201.0,0
1745,131.0,-4.0,200.0,0
1746,129.0,-2.0,200.0,0
1747,127.0,-2.0,201.0,0
1748,124.0,2.0,201.0,0
1749,123.0,2.0,206.0,0
1750,124.0,1.0,207.0,0
1751,124.0,3.0,209.0,0
1752,123.0,0.0,209.0,0
1753,123.0,-2.0,205.0,0
1754,121.0,-2.0,203.0,0
1755,123.0,-3.0,203.0,0
1756,120.0,-4.0,207.0,0
1757,124.0,-5.0,205.0,0
1758,129.0,-4.0,209.0,0
1759,128.0,-4.0,208.0,0
1760,127.0,-4.0,205.0,0
1761,129.0,-6.0,203.0,0
1762,126.0,-6.0,204.0,0
1763,122.0,-8.0,203.0,0
1764,120.0,-6.0,203.0,0
1765,119.0,-4.0,207.0,0
1766,120.0,-4.0,210.0,0
1767,122.0,-6.0,202.0,0
1768,122.0,-4.0,205.0,0
1769,122.0,-3.0,205.0,0
1770,126.0,-4.0,205.0,0
1771,128.0,-5.0,209.0,0
1772,125.0,-3.0,209.0,0
1773,126.0,-4.0,207.0,0
1774,126.0,-5.0,203.0,0
1775,123.0,-4.0,209.0,0
1776,127.0,-9.0,208.0,0
1777,124.0,-12.0,207.0,0
1778,122.0,-11.0,205.0,0
1779,121.0,-8.0,203.0,0
1780,121.0,-13.0,204.0,0
1781,120.0,-10.0,203.0,0
1782,118.0,-10.0,201.0,0
1783,120.0,-9.0,205.0,0
1784,119.0,-10.0,203.0,0
1785,118.0,-12.0,207.0,0
1786,118.0,-7.0,209.0,0
1787,118.0,-12.0,217.0,0
1788,118.0,-11.0,214.0,0
1789,118.0,-12.0,216.0,0
1790,115.0,-12.0,215.0,0
1791,120.0,-12.0,214.0,0
1792,117.0,-13.0,216.0,0
1793,116.0,-14.0,213.0,0
1794,116.0,-12.0,214.0,0
1795,113.0,-10.0,212.0,0
1796,115.0,-13.0,210.0,0
1797,116.0,-12.0,208.0,0
1798,116.0,-13.0,213.0,0
1799,116.0,-13.0,206.0,0
1800,114.0,-9.0,207.0,0
1801,115.0,-7.0,209.0,0
1802,117.0,-7.0,207.0,0
1803,115.0,-6.0,211.0,0
1804,115.0,-11.0,212.0,0
1805,117.0,-10.0,216.0,0
1806,114.0,-7.0,215.0,0
1807,114.0,-7.0,216.0,0
1808,116.0,-8.0,213.0,0
1809,111.0,-3.0,215.0,0
1810,112.0,-2.0,215.0,0
1811,109.0,-3.0,213.0,0
1812,112.0,-3.0,217.0,0
1813,112.0,-4.0,216.0,0
1814,113.0,-3.0,224.0,0
1815,107.0,-4.0,217.0,0
1816,112.0,-7.0,221.0,0
1817,106.0,-6.0,220.0,0
1818,104.0,-7.0,213.0,0
1819,103.0,-13.0,213.0,0
1820,102.0,-11.0,219.0,0
1821,98.0,-12.0,220.0,0
1822,100.0,-12.0,219.0,0
1823,95.0,-12.0,221.0,0
1824,99.0,-11.0,221.0,0
1825,98.0,-11.0,217.0,0
1826,96.0,-12.0,220.0,0
1827,93.0,-13.0,219.0,0
1828,90.0,-10.0,215.0,0
1829,90.0,-9.0,212.0,0
1830,89.0,-11.0,214.0,0
1831,89.0,-5.0,212.0,0
1832,92.0,-6.0,215.0,0
1833,91.0,-11.0,220.0,0
1834,94.0,-12.0,220.0,0
1835,96.0,-12.0,217.0,0
1836,92.0,-13.0,220.0,0
1837,91.0,-17.0,219.0,0
1838,93.0,-17.0,224.0,0
1839,91.0,-16.0,226.0,0
1840,88.0,-17.0,225.0,0
1841,91.0,-21.0,227.0,0
1842,87.0,-22.0,228.0,0
1843,85.0,-23.0,225.0,0
1844,83.0,-18.0,227.0,0
1845,82.0,-13.0,226.0,0
1846,85.0,-10.0,227.0,0
1847,75.0,-19.0,226.0,0
1848,70.0,-14.0,242.0,0
1849,73.0,-11.0,218.0,0
1850,75.0,-13.0,216.0,0
1851,73.0,1.0,201.0,0
1852,70.0,-4.0,221.0,0
1853,67.0,-5.0,224.0,0
1854,64.0,-5.0,222.0,0
1855,63.0,-9.0,235.0,0
1856,57.0,-9.0,236.0,0
1857,53.0,-12.0,239.0,0
1858,50.0,-15.0,236.0,0
1859,49.0,-17.0,237.0,0
1860,47.0,-19.0,236.0,0
1861,44.0,-22.0,235.0,0
1862,41.0,-22.0,234.0,0
1863,41.0,-23.0,232.0,0
1864,41.0,-23.0,236.0,0
1865,42.0,-24.0,235.0,0
1866,37.0,-19.0,233.0,0
1867,35.0,-18.0,235.0,0
1868,34.0,-12.0,237.0,0
1869,32.0,-9.0,233.0,0
1870,33.0,-7.0,232.0,0
1871,32.0,-5.0,237.0,0
1872,30.0,-4.0,233.0,0
1873,30.0,-4.0,235.0,0
1874,27.0,-4.0,236.0,0
1875,25.0,-6.0,234.0,0
1876,29.0,-12.0,234.0,0
1877,26.0,-15.0,233.0,0
1878,26.0,-18.0,241.0,0
1879,25.0,-19.0,238.0,0
1880,20.0,-24.0,241.0,0
1881,18.0,-20.0,242.0,0
1882,18.0,-22.0,239.0,0
1883,11.0,-20.0,236.0,0
1884,9.0,-18.0,227.0,0
1885,8.0,-17.0,233.0,0
1886,6.0,-18.0,229.0,0
1887,6.0,-10.0,229.0,0
1888,5.0,-11.0,229.0,0
1889,2.0,-7.0,238.0,0
1890,0.0,-4.0,236.0,0
1891,0.0,-4.0,238.0,0
1892,-3.0,-3.0,236.0,0
1893,-6.0,-6.0,236.0,0
1894,-7.0,-9.0,239.0,0
1895,-9.0,-11.0,239.0,0
1896,-12.0,-11.0,239.0,0
1897,-11.0,-15.0,236.0,0
1898,-12.0,-18.0,246.0,0
1899,-12.0,-19.0,244.0,0
1900,-14.0,-19.0,243.0,0
1901,-14.0,-19.0,245.0,0
1902,-15.0,-18.0,243.0,0
1903,-14.0,-18.0,244.0,0
1904,-18.0,-18.0,246.0,0
1905,-19.0,-17.0,245.0,0
1906,-22.0,-14.0,238.0,0
1907,-25.0,-15.0,237.0,0
1908,-27.0,-12.0,245.0,0
1909,-29.0,-10.0,245.0,0
1910,-34.0,-9.0,243.0,0
1911,-28.0,-9.0,243.0,0
1912,-31.0,-10.0,246.0,0
1913,-30.0,-9.0,244.0,0
1914,-29.0,-8.0,245.0,0
1915,-26.0,-5.0,247.0,0
1916,-23.0,-10.0,237.0,0
1917,-22.0,-12.0,237.0,0
1918,-18.0,-12.0,235.0,0
1919,-23.0,-16.0,233.0,0
1920,-20.0,-18.0,233.0,0
1921,-23.0,-16.0,241.0,0
1922,-23.0,-13.0,242.0,0
1923,-28.0,-12.0,238.0,0
1924,-28.0,-12.0,242.0,0
1925,-30.0,-12.0,240.0,0
1926,-32.0,-10.0,238.0,0
1927,-34.0,-7.0,236.0,0
1928,-34.0,-6.0,239.0,0
1929,-35.0,-7.0,239.0,0
1930,-34.0,-8.0,240.0,0
1931,-33.0,-5.0,235.0,0
1932,-35.0,-4.0,239.0,0
1933,-36.0,-5.0,236.0,0
1934,-35.0,-6.0,240.0,0
1935,-38.0,-4.0,242.0,0
1936,-39.0,-6.0,243.0,0
1937,-37.0,-5.0,243.0,0
1938,-38.0,-9.0,240.0,0
1939,-35.0,-6.0,240.0,0
1940,-36.0,-9.0,239.0,0
1941,-37.0,-13.0,239.0,0
1942,-31.0,-11.0,238.0,0
1943,-33.0,-10.0,238.0,0
1944,-31.0,-10.0,241.0,0
1945,-23.0,-8.0,240.0,0
1946,-18.0,-4.0,238.0,0
1947,-22.0,-2.0,238.0,0
1948,-19.0,-2.0,240.0,0
1949,-21.0,-3.0,238.0,0
1950,-23.0,-1.0,235.0,0
1951,-25.0,-3.0,238.0,0
1952,-26.0,-2.0,240.0,0
1953,-26.0,-3.0,238.0,0
1954,-27.0,-7.0,239.0,0
1955,-25.0,-4.0,237.0,0
1956,-25.0,-4.0,239.0,0
1957,-24.0,-3.0,239.0,0
1958,-23.0,-3.0,243.0,0
1959,-25.0,-4.0,242.0,0
1960,-24.0,-4.0,239.0,0
1961,-22.0,-4.0,242.0,0
1962,-21.0,-3.0,241.0,0
1963,-21.0,-4.0,239.0,0
1964,-22.0,-3.0,237.0,0
1965,-25.0,-3.0,238.0,0
1966,-27.0,-5.0,244.0,0
1967,-26.0,-4.0,242.0,0
1968,-26.0,-6.0,239.0,0
1969,-28.0,-4.0,239.0,0
1970,-25.0,-11.0,240.0,0
1971,-27.0,-8.0,233.0,0
1972,-25.0,-15.0,238.0,0
1973,-29.0,-17.0,232.0,0
1974,-28.0,-13.0,234.0,0
1975,-29.0,-20.0,233.0,0
1976,-29.0,-20.0,235.0,0
1977,-32.0,-20.0,232.0,0
1978,-34.0,-18.0,240.0,0
1979,-34.0,-14.0,244.0,0
1980,-36.0,-13.0,246.0,0
1981,-33.0,-10.0,247.0,0
1982,-32.0,-6.0,245.0,0
1983,-28.0,-5.0,247.0,0
1984,-23.0,-4.0,242.0,0
1985,-20.0,-8.0,246.0,0
1986,-19.0,-8.0,243.0,0
1987,-14.0,-7.0,241.0,0
1988,-15.0,-5.0,238.0,0
1989,-12.0,-10.0,236.0,0
1990,-15.0,-13.0,233.0,0
1991,-12.0,-12.0,230.0,0
1992,-14.0,-13.0,230.0,0
1993,-17.0,-17.0,231.0,0
1994,-18.0,-18.0,228.0,0
1995,-21.0,-18.0,229.0,0
1996,-26.0,-18.0,233.0,0
1997,-30.0,-19.0,232.0,0
1998,-30.0,-21.0,233.0,0
1999,-30.0,-21.0,240.0,0
2000,-29.0,-20.0,240.0,0
2001,-29.0,-22.0,235.0,0
2002,-29.0,-19.0,240.0,0
2003,-27.0,-19.0,243.0,0
2004,-29.0,-20.0,237.0,0
2005,-34.0,-19.0,233.0,0
2006,-33.0,-17.0,235.0,0
2007,-34.0,-15.0,230.0,0
2008,-35.0,-21.0,229.0,0
2009,-34.0,-22.0,227.0,0
2010,-36.0,-21.0,227.0,0
2011,-35.0,-26.0,236.0,0
2012,-35.0,-24.0,235.0,0
2013,-38.0,-30.0,239.0,0
2014,-35.0,-26.0,236.0,0
2015,-35.0,-29.0,240.0,0
2016,-32.0,-25.0,240.0,0
2017,-33.0,-24.0,240.0,0
2018,-30.0,-24.0,239.0,0
2019,-31.0,-21.0,246.0,0
2020,-31.0,-18.0,244.0,0
2021,-28.0,-16.0,243.0,0
2022,-26.0,-12.0,245.0,0
2023,-22.0,-8.0,244.0,0
2024,-24.0,-11.0,241.0,0
2025,-22.0,-10.0,237.0,0
2026,-22.0,-11.0,235.0,0
2027,-22.0,-13.0,239.0,0
2028,-23.0,-12.0,234.0,0
2029,-22.0,-14.0,234.0,0
2030,-25.0,-15.0,238.0,0
2031,-22.0,-15.0,236.0,0
2032,-27.0,-15.0,239.0,0
2033,-27.0,-15.0,236.0,0
2034,-31.0,-12.0,236.0,0
2035,-30.0,-10.0,237.0,0
2036,-30.0,-13.0,236.0,0
2037,-31.0,-9.0,238.0,0
2038,-32.0,-5.0,236.0,0
2039,-31.0,-6.0,238.0,0
2040,-29.0,-7.0,237.0,0
2041,-29.0,-7.0,240.0,0
2042,-29.0,-9.0,239.0,0
2043,-27.0,-7.0,238.0,0
2044,-28.0,-8.0,239.0,0
2045,-31.0,-7.0,237.0,0
2046,-26.0,-8.0,240.0,0
2047,-27.0,-10.0,238.0,0
2048,-28.0,-10.0,244.0,0
2049,-25.0,-12.0,244.0,0
2050,-26.0,-9.0,237.0,0
2051,-23.0,-10.0,240.0,0
2052,-24.0,-15.0,234.0,0
2053,-21.0,-17.0,240.0,0
2054,-20.0,-18.0,240.0,0
2055,-21.0,-18.0,234.0,0
2056,-21.0,-22.0,237.0,0
2057,-20.0,-20.0,238.0,0
2058,-20.0,-21.0,240.0,0
2059,-20.0,-20.0,235.0,0
2060,-18.0,-20.0,233.0,0
2061,-18.0,-21.0,236.0,0
2062,-20.0,-17.0,235.0,0
2063,-15.0,-18.0,239.0,0
2064,-14.0,-19.0,237.0,0
2065,-15.0,-17.0,239.0,0
2066,-14.0,-18.0,239.0,0
2067,-14.0,-16.0,239.0,0
2068,-15.0,-14.0,239.0,0
2069,-13.0,-15.0,237.0,0
2070,-14.0,-17.0,239.0,0
2071,-12.0,-16.0,240.0,0
2072,-16.0,-18.0,233.0,0
2073,-14.0,-23.0,239.0,0
2074,-16.0,-20.0,236.0,0
2075,-13.0,-22.0,231.0,0
2076,-19.0,-22.0,235.0,0
2077,-14.0,-24.0,236.0,0
2078,-20.0,-20.0,235.0,0
2079,-18.0,-20.0,232.0,0
2080,-22.0,-19.0,236.0,0
2081,-22.0,-20.0,233.0,0
2082,-24.0,-20.0,238.0,0
2083,-23.0,-23.0,235.0,0
2084,-24.0,-20.0,237.0,0
2085,-24.0,-24.0,234.0,0
2086,-26.0,-19.0,234.0,0
2087,-26.0,-20.0,236.0,0
2088,-24.0,-20.0,235.0,0
2089,-24.0,-22.0,234.0,0
2090,-23.0,-21.0,237.0,0
2091,-24.0,-17.0,237.0,0
2092,-23.0,-18.0,236.0,0
2093,-23.0,-17.0,238.0,0
2094,-23.0,-16.0,238.0,0
2095,-22.0,-16.0,236.0,0
2096,-23.0,-15.0,235.0,0
2097,-23.0,-12.0,238.0,0
2098,-22.0,-11.0,241.0,0
2099,-24.0,-11.0,238.0,0
2100,-24.0,-7.0,240.0,0
2101,-22.0,-10.0,241.0,0
2102,-23.0,-9.0,239.0,0
2103,-23.0,-5.0,240.0,0
2104,-24.0,-4.0,239.0,0
2105,-25.0,-4.0,239.0,0
2106,-22.0,-5.0,241.0,0
2107,-24.0,-4.0,239.0,0
2108,-21.0,-5.0,241.0,0
2109,-20.0,-4.0,239.0,0
2110,-23.0,-4.0,240.0,0
2111,-20.0,-4.0,238.0,0
2112,-21.0,-4.0,238.0,0
2113,-24.0,-4.0,238.0,0
2114,-22.0,-4.0,239.0,0
2115,-19.0,-5.0,239.0,0
2116,-19.0,-4.0,243.0,0
2117,-21.0,-4.0,241.0,0
2118,-21.0,-7.0,241.0,0
2119,-24.0,-4.0,239.0,0
2120,-22.0,-6.0,244.0,0
2121,-19.0,-6.0,239.0,0
2122,-20.0,-4.0,243.0,0
2123,-19.0,-4.0,240.0,0
2124,-18.0,-5.0,239.0,0
2125,-17.0,-5.0,242.0,0
2126,-16.0,-4.0,238.0,0
2127,-16.0,-5.0,237.0,0
2128,-14.0,-8.0,237.0,0
2129,-14.0,-4.0,243.0,0
2130,-13.0,-4.0,242.0,0
2131,-13.0,-4.0,243.0,0
2132,-12.0,-5.0,236.0,0
2133,-11.0,-7.0,240.0,0
2134,-12.0,-9.0,241.0,0
2135,-10.0,-8.0,237.0,0
2136,-11.0,-6.0,239.0,0
2137,-12.0,-5.0,239.0,0
2138,-12.0,-5.0,235.0,0
2139,-14.0,-6.0,242.0,0
2140,-15.0,-6.0,237.0,0
2141,-14.0,-6.0,240.0,0
2142,-16.0,-11.0,242.0,0
2143,-17.0,-7.0,237.0,0
2144,-17.0,-8.0,243.0,0
2145,-15.0,-6.0,243.0,0
2146,-18.0,-9.0,239.0,0
2147,-19.0,-8.0,238.0,0
2148,-17.0,-7.0,243.0,0
2149,-17.0,-9.0,243.0,0
2150,-19.0,-9.0,243.0,0
2151,-17.0,-10.0,237.0,0
2152,-17.0,-13.0,236.0,0
2153,-20.0,-9.0,238.0,0
2154,-18.0,-11.0,232.0,0
2155,-20.0,-7.0,236.0,0
2156,-18.0,-8.0,235.0,0
2157,-14.0,-4.0,236.0,0
2158,-17.0,-10.0,239.0,0
2159,-18.0,-8.0,234.0,0
2160,-18.0,-6.0,238.0,0
2161,-21.0,-5.0,239.0,0
2162,-19.0,-6.0,243.0,0
2163,-21.0,-4.0,236.0,0
2164,-21.0,-2.0,241.0,0
2165,-20.0,-4.0,241.0,0
2166,-20.0,-4.0,242.0,0
2167,-20.0,-3.0,243.0,0
2168,-18.0,-2.0,240.0,0
2169,-20.0,-4.0,240.0,0
2170,-15.0,-2.0,242.0,0
2171,-16.0,-5.0,241.0,0
2172,-18.0,-4.0,242.0,0
2173,-17.0,-3.0,245.0,0
2174,-19.0,-4.0,239.0,0
2175,-20.0,-3.0,240.0,0
2176,-19.0,-4.0,241.0,0
2177,-15.0,-6.0,239.0,0
2178,-18.0,-4.0,241.0,0
2179,-19.0,-4.0,242.0,0
2180,-21.0,-4.0,237.0,0
2181,-16.0,-4.0,246.0,0
2182,-15.0,-4.0,242.0,0
2183,-16.0,-4.0,244.0,0
2184,-18.0,-4.0,239.0,0
2185,-19.0,-4.0,240.0,0
2186,-16.0,-5.0,240.0,0
2187,-14.0,-4.0,239.0,0
2188,-18.0,-2.0,239.0,0
2189,-13.0,-6.0,242.0,0
2190,-20.0,-4.0,239.0,0
2191,-16.0,-4.0,244.0,0
2192,-15.0,-4.0,238.0,0
2193,-14.0,-5.0,240.0,0
2194,-19.0,-4.0,241.0,0
2195,-12.0,-4.0,238.0,0
2196,-16.0,-4.0,238.0,0
2197,-13.0,-4.0,237.0,0
2198,-13.0,-4.0,240.0,0
2199,-14.0,-4.0,238.0,0
2200,-16.0,-5.0,238.0,0
2201,-16.0,-4.0,237.0,0
2202,-17.0,-4.0,241.0,0
2203,-18.0,0.0,244.0,0
2204,-14.0,-3.0,238.0,0
2205,-16.0,-3.0,244.0,0
2206,-17.0,-3.0,239.0,0
2207,-14.0,-3.0,240.0,0
2208,-15.0,-3.0,241.0,0
2209,-14.0,-3.0,241.0,0
2210,-16.0,-3.0,241.0,0
2211,-17.0,-3.0,243.0,0
2212,-17.0,-3.0,241.0,0
2213,-13.0,-3.0,237.0,0
2214,-17.0,-4.0,244.0,0
2215,-15.0,-4.0,240.0,0
2216,-15.0,-4.0,237.0,0
2217,-17.0,-4.0,238.0,0
2218,-14.0,-4.0,240.0,0
2219,-13.0,-4.0,238.0,0
2220,-15.0,-4.0,239.0,0
2221,-16.0,-3.0,244.0,0
2222,-14.0,-3.0,237.0,0
2223,-14.0,-4.0,238.0,0
2224,-12.0,-4.0,239.0,0
2225,-13.0,-3.0,238.0,0
2226,-13.0,-3.0,238.0,0
2227,-12.0,-4.0,240.0,0
2228,-14.0,-3.0,239.0,0
2229,-14.0,-3.0,240.0,0
2230,-15.0,-2.0,240.0,0
2231,-15.0,-4.0,238.0,0
2232,-18.0,-4.0,240.0,0
2233,-13.0,-3.0,241.0,0
2234,-17.0,-4.0,239.0,0
2235,-18.0,-3.0,239.0,0
2236,-13.0,-4.0,236.0,0
2237,-16.0,-3.0,242.0,0
2238,-13.0,-4.0,240.0,0
2239,-15.0,-3.0,237.0,0
2240,-14.0,-4.0,235.0,0
2241,-16.0,-4.0,239.0,0
2242,-17.0,-3.0,239.0,0
2243,-14.0,-4.0,236.0,0
2244,-16.0,-4.0,236.0,0
2245,-17.0,-5.0,238.0,0
2246,-14.0,-3.0,240.0,0
2247,-18.0,-4.0,241.0,0
2248,-14.0,-6.0,237.0,0
2249,-16.0,-4.0,241.0,0
2250,-17.0,-2.0,238.0,0
2251,-18.0,-3.0,242.0,0
2252,-14.0,-3.0,239.0,0
2253,-14.0,-4.0,238.0,0
2254,-16.0,-4.0,239.0,0
2255,-15.0,-4.0,238.0,0
2256,-13.0,-3.0,239.0,0
2257,-16.0,-2.0,237.0,0
2258,-12.0,-4.0,242.0,0
2259,-12.0,-3.0,240.0,0
2260,-18.0,-6.0,238.0,0
2261,-14.0,-5.0,241.0,0
2262,-18.0,-3.0,238.0,0
2263,-19.0,-4.0,239.0,0
2264,-15.0,-4.0,240.0,0
2265,-13.0,-8.0,237.0,0
2266,-16.0,-4.0,239.0,0
2267,-15.0,-4.0,239.0,0
2268,-18.0,-3.0,240.0,0
2269,-15.0,-3.0,238.0,0
2270,-13.0,-4.0,239.0,0
2271,-12.0,-4.0,237.0,0
2272,-15.0,-3.0,240.0,0
2273,-12.0,-4.0,238.0,0
2274,-14.0,-4.0,238.0,0
2275,-14.0,-4.0,238.0,0
2276,-13.0,-3.0,240.0,0
2277,-12.0,-4.0,242.0,0
2278,-17.0,-2.0,238.0,0
2279,-18.0,-3.0,238.0,0
2280,-17.0,-5.0,240.0,0
2281,-15.0,-2.0,245.0,0
2282,-14.0,-3.0,241.0,0
2283,-12.0,-4.0,240.0,0
2284,-15.0,-4.0,242.0,0
2285,-12.0,-4.0,238.0,0
2286,-16.0,-3.0,241.0,0
2287,-13.0,-5.0,237.0,0
2288,-17.0,-2.0,237.0,0
2289,-15.0,-3.0,239.0,0
2290,-18.0,-4.0,237.0,0
2291,-12.0,-6.0,239.0,0
2292,-13.0,-4.0,238.0,0
2293,-15.0,-4.0,240.0,0
2294,-13.0,-4.0,235.0,0
2295,-12.0,-4.0,239.0,0
2296,-12.0,-4.0,236.0,0
2297,-12.0,-3.0,239.0,0
2298,-12.0,-3.0,243.0,0
2299,-14.0,-4.0,238.0,0
2300,-13.0,-3.0,241.0,0
2301,-13.0,-2.0,239.0,0
2302,-12.0,-3.0,243.0,0
2303,-13.0,-3.0,239.0,0
2304,-13.0,0.0,240.0,0
2305,-13.0,-3.0,240.0,0
2306,-12.0,-4.0,236.0,0
2307,-16.0,-2.0,238.0,0
2308,-12.0,-4.0,242.0,0
2309,-15.0,-3.0,240.0,0
2310,-14.0,-4.0,237.0,0
2311,-13.0,-3.0,240.0,0
2312,-14.0,-4.0,242.0,0
2313,-13.0,-2.0,240.0,0
2314,-15.0,-4.0,244.0,0
2315,-13.0,-4.0,239.0,0
2316,-14.0,-4.0,244.0,0
2317,-15.0,-4.0,236.0,0
2318,-17.0,-4.0,241.0,0
2319,-15.0,-4.0,236.0,0
2320,-13.0,-3.0,243.0,0
2321,-14.0,-3.0,240.0,0
2322,-15.0,-3.0,238.0,0
2323,-12.0,-4.0,239.0,0
2324,-17.0,-3.0,239.0,0
2325,-15.0,-4.0,236.0,0
2326,-13.0,-4.0,241.0,0
2327,-16.0,-4.0,244.0,0
2328,-16.0,-4.0,239.0,0
2329,-18.0,-5.0,242.0,0
2330,-13.0,-4.0,239.0,0
2331,-13.0,-4.0,238.0,0
2332,-16.0,-3.0,239.0,0
2333,-14.0,-4.0,239.0,0
2334,-15.0,-2.0,236.0,0
2335,-13.0,-4.0,238.0,0
2336,-15.0,-4.0,236.0,0
2337,-12.0,-4.0,240.0,0
2338,-13.0,-6.0,241.0,0
2339,-14.0,-2.0,239.0,0
2340,-18.0,-3.0,240.0,0
2341,-13.0,-4.0,242.0,0
2342,-17.0,-4.0,241.0,0
2343,-16.0,-4.0,239.0,0
2344,-18.0,-4.0,240.0,0
2345,-13.0,-5.0,240.0,0
2346,-16.0,-4.0,240.0,0
2347,-15.0,-5.0,241.0,0
2348,-13.0,-6.0,238.0,0
2349,-15.0,-4.0,238.0,0
2350,-15.0,-6.0,241.0,0
2351,-13.0,-8.0,235.0,0
2352,-15.0,-6.0,241.0,0
2353,-12.0,-5.0,239.0,0
2354,-15.0,-8.0,241.0,0
2355,-14.0,-8.0,237.0,0
2356,-17.0,-4.0,240.0,0
2357,-14.0,-6.0,236.0,0
2358,-17.0,-6.0,240.0,0
2359,-16.0,-6.0,236.0,0
2360,-15.0,-4.0,241.0,0
2361,-15.0,-7.0,241.0,0
2362,-14.0,-6.0,237.0,0
2363,-16.0,-6.0,239.0,0
2364,-19.0,-4.0,239.0,0
2365,-15.0,-10.0,240.0,0
2366,-16.0,-7.0,245.0,0
2367,-14.0,-7.0,239.0,0
2368,-16.0,-6.0,239.0,0
2369,-15.0,-12.0,238.0,0
2370,-19.0,-9.0,239.0,0
2371,-15.0,-10.0,240.0,0
2372,-14.0,-9.0,239.0,0
2373,-17.0,-11.0,234.0,0
2374,-17.0,-6.0,241.0,0
2375,-14.0,-9.0,238.0,0
2376,-16.0,-6.0,236.0,0
2377,-17.0,-12.0,239.0,0
2378,-16.0,-11.0,241.0,0
2379,-13.0,-10.0,240.0,0
2380,-14.0,-11.0,239.0,0
2381,-16.0,-9.0,237.0,0
2382,-19.0,-8.0,240.0,0
2383,-15.0,-11.0,239.0,0
2384,-16.0,-8.0,244.0,0
2385,-18.0,-10.0,238.0,0
2386,-12.0,-12.0,239.0,0
2387,-14.0,-10.0,238.0,0
2388,-14.0,-12.0,243.0,0
2389,-15.0,-13.0,236.0,0
2390,-16.0,-13.0,237.0,0
2391,-15.0,-12.0,236.0,0
2392,-17.0,-12.0,238.0,0
2393,-16.0,-10.0,238.0,0
2394,-17.0,-9.0,241.0,0
2395,-19.0,-12.0,240.0,0
2396,-14.0,-11.0,238.0,0
2397,-18.0,-11.0,239.0,0
2398,-20.0,-10.0,238.0,0
2399,-15.0,-13.0,241.0,0
