,accelerometer_x,accelerometer_y,accelerometer_z,fall
0,6.0,-245.0,73.0,0
1,10.0,-246.0,73.0,0
2,7.0,-241.0,77.0,0
3,8.0,-245.0,78.0,0
4,8.0,-244.0,73.0,0
5,19.0,-228.0,64.0,0
6,9.0,-242.0,75.0,0
7,7.0,-242.0,74.0,0
8,7.0,-239.0,72.0,0
9,7.0,-240.0,71.0,0
10,7.0,-242.0,72.0,0
11,4.0,-241.0,70.0,0
12,6.0,-244.0,70.0,0
13,7.0,-241.0,73.0,0
14,5.0,-242.0,72.0,0
15,7.0,-247.0,73.0,0
16,10.0,-247.0,73.0,0
17,12.0,-247.0,76.0,0
18,10.0,-245.0,75.0,0
19,8.0,-244.0,71.0,0
20,9.0,-245.0,70.0,0
21,8.0,-244.0,74.0,0
22,8.0,-243.0,75.0,0
23,10.0,-243.0,66.0,0
24,9.0,-242.0,72.0,0
25,9.0,-241.0,72.0,0
26,2.0,-237.0,73.0,0
27,7.0,-240.0,71.0,0
28,6.0,-241.0,72.0,0
29,9.0,-242.0,74.0,0
30,3.0,-242.0,75.0,0
31,6.0,-243.0,73.0,0
32,6.0,-241.0,76.0,0
33,6.0,-244.0,74.0,0
34,5.0,-241.0,77.0,0
35,4.0,-246.0,72.0,0
36,5.0,-244.0,67.0,0
37,5.0,-247.0,69.0,0
38,3.0,-244.0,72.0,0
39,6.0,-242.0,74.0,0
40,10.0,-245.0,68.0,0
41,4.0,-245.0,68.0,0
42,8.0,-245.0,70.0,0
43,7.0,-244.0,72.0,0
44,8.0,-243.0,69.0,0
45,6.0,-245.0,69.0,0
46,8.0,-244.0,68.0,0
47,5.0,-242.0,69.0,0
48,6.0,-247.0,71.0,0
49,7.0,-243.0,65.0,0
50,7.0,-244.0,68.0,0
51,8.0,-243.0,67.0,0
52,7.0,-245.0,68.0,0
53,8.0,-242.0,66.0,0
54,4.0,-243.0,63.0,0
55,11.0,-243.0,68.0,0
56,10.0,-243.0,68.0,0
57,6.0,-243.0,66.0,0
58,8.0,-243.0,65.0,0
59,10.0,-253.0,61.0,0
60,9.0,-246.0,63.0,0
61,8.0,-244.0,67.0,0
62,6.0,-248.0,62.0,0
63,5.0,-247.0,63.0,0
64,6.0,-247.0,63.0,0
65,8.0,-248.0,65.0,0
66,8.0,-248.0,62.0,0
67,5.0,-247.0,66.0,0
68,7.0,-248.0,60.0,0
69,9.0,-247.0,60.0,0
70,9.0,-246.0,56.0,0
71,6.0,-244.0,62.0,0
72,8.0,-245.0,60.0,0
73,4.0,-246.0,62.0,0
74,7.0,-247.0,63.0,0
75,7.0,-247.0,60.0,0
76,6.0,-247.0,60.0,0
77,6.0,-248.0,60.0,0
78,5.0,-248.0,60.0,0
79,7.0,-248.0,56.0,0
80,7.0,-248.0,58.0,0
81,7.0,-249.0,55.0,0
82,4.0,-246.0,56.0,0
83,7.0,-249.0,59.0,0
84,6.0,-248.0,54.0,0
85,8.0,-248.0,58.0,0
86,9.0,-248.0,56.0,0
87,7.0,-250.0,57.0,0
88,8.0,-250.0,57.0,0
89,5.0,-251.0,59.0,0
90,7.0,-249.0,57.0,0
91,8.0,-251.0,51.0,0
92,5.0,-247.0,57.0,0
93,6.0,-250.0,54.0,0
94,3.0,-252.0,52.0,0
95,6.0,-251.0,55.0,0
96,9.0,-248.0,56.0,0
97,6.0,-254.0,54.0,0
98,8.0,-252.0,53.0,0
99,9.0,-252.0,55.0,0
100,8.0,-251.0,56.0,0
101,10.0,-252.0,52.0,0
102,7.0,-248.0,56.0,0
103,9.0,-249.0,54.0,0
104,5.0,-250.0,52.0,0
105,5.0,-248.0,51.0,0
106,6.0,-247.0,53.0,0
107,8.0,-249.0,57.0,0
108,8.0,-247.0,53.0,0
109,12.0,-247.0,56.0,0
110,9.0,-247.0,55.0,0
111,8.0,-248.0,55.0,0
112,6.0,-247.0,57.0,0
113,12.0,-256.0,62.0,0
114,8.0,-245.0,56.0,0
115,8.0,-248.0,58.0,0
116,5.0,-248.0,57.0,0
117,6.0,-250.0,56.0,0
118,5.0,-247.0,60.0,0
119,6.0,-249.0,56.0,0
120,9.0,-251.0,56.0,0
121,5.0,-248.0,56.0,0
122,5.0,-250.0,57.0,0
123,3.0,-248.0,56.0,0
124,6.0,-249.0,58.0,0
125,7.0,-249.0,57.0,0
126,3.0,-249.0,54.0,0
127,5.0,-250.0,58.0,0
128,7.0,-249.0,57.0,0
129,6.0,-249.0,54.0,0
130,5.0,-247.0,58.0,0
131,3.0,-250.0,56.0,0
132,1.0,-251.0,58.0,0
133,4.0,-252.0,57.0,0
134,4.0,-250.0,55.0,0
135,3.0,-251.0,58.0,0
136,7.0,-250.0,55.0,0
137,7.0,-250.0,55.0,0
138,5.0,-249.0,52.0,0
139,7.0,-250.0,54.0,0
140,4.0,-248.0,56.0,0
141,6.0,-247.0,56.0,0
142,7.0,-246.0,55.0,0
143,8.0,-246.0,56.0,0
144,7.0,-247.0,52.0,0
145,8.0,-247.0,57.0,0
146,7.0,-247.0,58.0,0
147,7.0,-245.0,61.0,0
148,9.0,-248.0,59.0,0
149,7.0,-248.0,59.0,0
150,7.0,-249.0,59.0,0
151,6.0,-248.0,58.0,0
152,8.0,-249.0,55.0,0
153,5.0,-248.0,54.0,0
154,3.0,-246.0,57.0,0
155,6.0,-245.0,59.0,0
156,3.0,-245.0,56.0,0
157,7.0,-246.0,63.0,0
158,5.0,-247.0,59.0,0
159,4.0,-244.0,61.0,0
160,5.0,-244.0,61.0,0
161,3.0,-245.0,57.0,0
162,5.0,-244.0,57.0,0
163,8.0,-248.0,59.0,0
164,4.0,-245.0,54.0,0
165,7.0,-245.0,61.0,0
166,7.0,-243.0,59.0,0
167,4.0,-245.0,60.0,0
168,6.0,-244.0,59.0,0
169,6.0,-246.0,62.0,0
170,3.0,-243.0,59.0,0
171,7.0,-248.0,58.0,0
172,7.0,-250.0,62.0,0
173,8.0,-251.0,59.0,0
174,5.0,-252.0,59.0,0
175,5.0,-253.0,62.0,0
176,7.0,-250.0,59.0,0
177,6.0,-252.0,60.0,0
178,5.0,-251.0,59.0,0
179,5.0,-247.0,58.0,0
180,4.0,-251.0,55.0,0
181,6.0,-252.0,61.0,0
182,4.0,-251.0,59.0,0
183,8.0,-249.0,59.0,0
184,7.0,-251.0,56.0,0
185,6.0,-248.0,58.0,0
186,5.0,-247.0,57.0,0
187,3.0,-248.0,58.0,0
188,5.0,-250.0,57.0,0
189,7.0,-248.0,58.0,0
190,3.0,-247.0,57.0,0
191,4.0,-246.0,57.0,0
192,3.0,-244.0,60.0,0
193,7.0,-246.0,60.0,0
194,4.0,-245.0,59.0,0
195,5.0,-247.0,61.0,0
196,7.0,-246.0,61.0,0
197,8.0,-246.0,61.0,0
198,8.0,-246.0,63.0,0
199,9.0,-245.0,60.0,0
200,7.0,-247.0,57.0,0
201,8.0,-239.0,60.0,0
202,6.0,-244.0,62.0,0
203,7.0,-245.0,62.0,0
204,7.0,-244.0,61.0,0
205,9.0,-244.0,64.0,0
206,8.0,-245.0,61.0,0
207,11.0,-246.0,64.0,0
208,7.0,-246.0,65.0,0
209,8.0,-248.0,63.0,0
210,7.0,-248.0,60.0,0
211,10.0,-248.0,65.0,0
212,9.0,-244.0,62.0,0
213,12.0,-247.0,66.0,0
214,8.0,-249.0,61.0,0
215,8.0,-247.0,62.0,0
216,5.0,-247.0,64.0,0
217,5.0,-247.0,63.0,0
218,7.0,-248.0,62.0,0
219,7.0,-246.0,64.0,0
220,6.0,-247.0,62.0,0
221,5.0,-246.0,63.0,0
222,16.0,-249.0,62.0,0
223,5.0,-246.0,62.0,0
224,8.0,-247.0,60.0,0
225,6.0,-245.0,62.0,0
226,8.0,-247.0,67.0,0
227,9.0,-247.0,60.0,0
228,9.0,-248.0,59.0,0
229,7.0,-244.0,60.0,0
230,7.0,-247.0,63.0,0
231,7.0,-247.0,64.0,0
232,7.0,-247.0,62.0,0
233,9.0,-248.0,64.0,0
234,6.0,-245.0,64.0,0
235,8.0,-246.0,61.0,0
236,10.0,-248.0,64.0,0
237,9.0,-244.0,66.0,0
238,5.0,-248.0,64.0,0
239,6.0,-246.0,64.0,0
240,7.0,-247.0,66.0,0
241,6.0,-244.0,63.0,0
242,5.0,-246.0,66.0,0
243,6.0,-244.0,65.0,0
244,6.0,-250.0,62.0,0
245,6.0,-246.0,66.0,0
246,5.0,-245.0,67.0,0
247,9.0,-247.0,67.0,0
248,7.0,-248.0,66.0,0
249,6.0,-245.0,64.0,0
250,4.0,-247.0,64.0,0
251,4.0,-249.0,67.0,0
252,4.0,-247.0,64.0,0
253,5.0,-247.0,67.0,0
254,5.0,-247.0,58.0,0
255,6.0,-247.0,68.0,0
256,5.0,-244.0,63.0,0
257,10.0,-247.0,66.0,0
258,9.0,-244.0,61.0,0
259,6.0,-243.0,63.0,0
260,5.0,-243.0,62.0,0
261,7.0,-245.0,69.0,0
262,6.0,-243.0,64.0,0
263,5.0,-244.0,70.0,0
264,5.0,-245.0,67.0,0
265,6.0,-245.0,66.0,0
266,13.0,-239.0,63.0,0
267,2.0,-245.0,67.0,0
268,7.0,-246.0,66.0,0
269,7.0,-246.0,67.0,0
270,8.0,-246.0,66.0,0
271,5.0,-248.0,67.0,0
272,6.0,-246.0,66.0,0
273,8.0,-246.0,66.0,0
274,6.0,-246.0,66.0,0
275,9.0,-247.0,65.0,0
276,5.0,-246.0,65.0,0
277,9.0,-247.0,63.0,0
278,5.0,-244.0,66.0,0
279,8.0,-246.0,65.0,0
280,9.0,-248.0,61.0,0
281,9.0,-246.0,63.0,0
282,6.0,-248.0,63.0,0
283,8.0,-246.0,67.0,0
284,6.0,-248.0,63.0,0
285,7.0,-247.0,66.0,0
286,7.0,-245.0,66.0,0
287,8.0,-245.0,66.0,0
288,5.0,-246.0,62.0,0
289,4.0,-247.0,65.0,0
290,7.0,-245.0,71.0,0
291,5.0,-245.0,65.0,0
292,6.0,-246.0,68.0,0
293,5.0,-248.0,63.0,0
294,7.0,-247.0,66.0,0
295,5.0,-245.0,66.0,0
296,4.0,-243.0,63.0,0
297,7.0,-243.0,62.0,0
298,7.0,-247.0,69.0,0
299,5.0,-246.0,66.0,0
300,6.0,-247.0,64.0,0
301,5.0,-246.0,67.0,0
302,5.0,-247.0,63.0,0
303,7.0,-247.0,63.0,0
304,5.0,-245.0,68.0,0
305,7.0,-245.0,64.0,0
306,9.0,-248.0,67.0,0
307,6.0,-245.0,69.0,0
308,6.0,-246.0,67.0,0
309,9.0,-241.0,54.0,0
310,7.0,-246.0,65.0,0
311,9.0,-244.0,68.0,0
312,7.0,-247.0,71.0,0
313,4.0,-245.0,68.0,0
314,7.0,-245.0,65.0,0
315,7.0,-245.0,69.0,0
316,5.0,-246.0,71.0,0
317,8.0,-246.0,66.0,0
318,4.0,-246.0,70.0,0
319,5.0,-245.0,67.0,0
320,8.0,-246.0,64.0,0
321,5.0,-244.0,71.0,0
322,6.0,-246.0,66.0,0
323,7.0,-244.0,71.0,0
324,11.0,-247.0,69.0,0
325,7.0,-244.0,69.0,0
326,8.0,-246.0,66.0,0
327,6.0,-243.0,68.0,0
328,8.0,-245.0,67.0,0
329,10.0,-245.0,66.0,0
330,6.0,-246.0,65.0,0
331,3.0,-242.0,62.0,0
332,6.0,-247.0,67.0,0
333,9.0,-247.0,71.0,0
334,6.0,-244.0,68.0,0
335,8.0,-245.0,65.0,0
336,6.0,-245.0,69.0,0
337,6.0,-247.0,71.0,0
338,5.0,-247.0,67.0,0
339,5.0,-243.0,67.0,0
340,6.0,-247.0,69.0,0
341,4.0,-241.0,67.0,0
342,8.0,-243.0,66.0,0
343,5.0,-246.0,65.0,0
344,9.0,-241.0,67.0,0
345,9.0,-246.0,69.0,0
346,9.0,-241.0,68.0,0
347,6.0,-241.0,70.0,0
348,3.0,-243.0,69.0,0
349,5.0,-245.0,65.0,0
350,5.0,-244.0,65.0,0
351,8.0,-245.0,71.0,0
352,5.0,-246.0,71.0,0
353,6.0,-243.0,71.0,0
354,5.0,-245.0,70.0,0
355,5.0,-245.0,69.0,0
356,6.0,-247.0,64.0,0
357,6.0,-246.0,65.0,0
358,4.0,-245.0,67.0,0
359,5.0,-245.0,71.0,0
360,6.0,-246.0,70.0,0
361,7.0,-245.0,62.0,0
362,6.0,-244.0,69.0,0
363,7.0,-245.0,66.0,0
364,6.0,-242.0,70.0,0
365,7.0,-242.0,68.0,0
366,11.0,-245.0,71.0,0
367,5.0,-242.0,68.0,0
368,8.0,-243.0,70.0,0
369,7.0,-244.0,71.0,0
370,6.0,-239.0,65.0,0
371,4.0,-239.0,72.0,0
372,6.0,-236.0,68.0,0
373,5.0,-238.0,72.0,0
374,7.0,-240.0,67.0,0
375,3.0,-241.0,64.0,0
376,7.0,-243.0,64.0,0
377,3.0,-246.0,65.0,0
378,6.0,-248.0,69.0,0
379,6.0,-253.0,68.0,0
380,9.0,-250.0,65.0,0
381,11.0,-254.0,68.0,0
382,7.0,-258.0,65.0,0
383,6.0,-258.0,65.0,0
384,5.0,-257.0,65.0,0
385,9.0,-259.0,66.0,0
386,5.0,-257.0,65.0,0
387,6.0,-254.0,62.0,0
388,5.0,-255.0,61.0,0
389,4.0,-248.0,61.0,0
390,4.0,-247.0,60.0,0
391,5.0,-243.0,58.0,0
392,6.0,-242.0,56.0,0
393,4.0,-238.0,59.0,0
394,6.0,-237.0,57.0,0
395,8.0,-242.0,62.0,0
396,7.0,-246.0,59.0,0
397,4.0,-243.0,61.0,0
398,7.0,-240.0,64.0,0
399,4.0,-244.0,63.0,0
400,6.0,-246.0,63.0,0
401,5.0,-246.0,63.0,0
402,5.0,-248.0,68.0,0
403,6.0,-249.0,60.0,0
404,7.0,-248.0,60.0,0
405,6.0,-247.0,61.0,0
406,9.0,-249.0,60.0,0
407,7.0,-249.0,61.0,0
408,8.0,-247.0,60.0,0
409,5.0,-248.0,64.0,0
410,7.0,-245.0,59.0,0
411,8.0,-248.0,60.0,0
412,5.0,-245.0,59.0,0
413,4.0,-246.0,60.0,0
414,7.0,-246.0,60.0,0
415,4.0,-245.0,64.0,0
416,6.0,-247.0,62.0,0
417,3.0,-243.0,66.0,0
418,7.0,-247.0,64.0,0
419,4.0,-245.0,58.0,0
420,4.0,-246.0,62.0,0
421,5.0,-245.0,63.0,0
422,7.0,-245.0,60.0,0
423,4.0,-247.0,60.0,0
424,6.0,-248.0,64.0,0
425,5.0,-247.0,63.0,0
426,5.0,-247.0,61.0,0
427,6.0,-247.0,63.0,0
428,6.0,-248.0,61.0,0
429,7.0,-249.0,62.0,0
430,8.0,-247.0,63.0,0
431,7.0,-249.0,61.0,0
432,8.0,-247.0,57.0,0
433,7.0,-249.0,62.0,0
434,8.0,-247.0,59.0,0
435,7.0,-247.0,61.0,0
436,7.0,-247.0,61.0,0
437,5.0,-249.0,61.0,0
438,5.0,-245.0,63.0,0
439,6.0,-247.0,60.0,0
440,8.0,-243.0,60.0,0
441,7.0,-248.0,59.0,0
442,7.0,-249.0,57.0,0
443,7.0,-246.0,58.0,0
444,6.0,-249.0,62.0,0
445,6.0,-247.0,61.0,0
446,5.0,-250.0,60.0,0
447,7.0,-249.0,57.0,0
448,5.0,-248.0,61.0,0
449,7.0,-249.0,59.0,0
450,7.0,-244.0,56.0,0
451,8.0,-248.0,62.0,0
452,6.0,-246.0,56.0,0
453,7.0,-245.0,59.0,0
454,9.0,-249.0,59.0,0
455,8.0,-246.0,61.0,0
456,4.0,-244.0,62.0,0
457,7.0,-247.0,59.0,0
458,9.0,-249.0,59.0,0
459,8.0,-248.0,61.0,0
460,9.0,-248.0,55.0,0
461,6.0,-247.0,57.0,0
462,8.0,-241.0,68.0,0
463,6.0,-248.0,60.0,0
464,5.0,-245.0,59.0,0
465,4.0,-248.0,58.0,0
466,6.0,-245.0,59.0,0
467,6.0,-248.0,58.0,0
468,4.0,-247.0,58.0,0
469,7.0,-247.0,57.0,0
470,8.0,-248.0,55.0,0
471,6.0,-247.0,61.0,0
472,9.0,-248.0,57.0,0
473,8.0,-248.0,59.0,0
474,6.0,-249.0,59.0,0
475,6.0,-249.0,58.0,0
476,5.0,-249.0,58.0,0
477,7.0,-247.0,59.0,0
478,6.0,-248.0,59.0,0
479,5.0,-247.0,61.0,0
480,7.0,-246.0,60.0,0
481,3.0,-244.0,60.0,0
482,7.0,-249.0,57.0,0
483,5.0,-244.0,57.0,0
484,11.0,-244.0,59.0,0
485,8.0,-247.0,56.0,0
486,9.0,-249.0,57.0,0
487,6.0,-248.0,57.0,0
488,7.0,-248.0,56.0,0
489,9.0,-249.0,54.0,0
490,7.0,-250.0,59.0,0
491,8.0,-248.0,58.0,0
492,6.0,-247.0,58.0,0
493,7.0,-245.0,58.0,0
494,7.0,-247.0,61.0,0
495,9.0,-245.0,55.0,0
496,5.0,-244.0,59.0,0
497,6.0,-245.0,57.0,0
498,7.0,-247.0,60.0,0
499,9.0,-247.0,57.0,0
500,8.0,-246.0,57.0,0
501,7.0,-247.0,57.0,0
502,5.0,-247.0,60.0,0
503,7.0,-248.0,59.0,0
504,6.0,-250.0,59.0,0
505,4.0,-248.0,58.0,0
506,8.0,-251.0,55.0,0
507,7.0,-249.0,56.0,0
508,6.0,-250.0,54.0,0
509,8.0,-246.0,54.0,0
510,3.0,-247.0,54.0,0
511,6.0,-247.0,56.0,0
512,4.0,-246.0,54.0,0
513,5.0,-245.0,55.0,0
514,6.0,-245.0,56.0,0
515,6.0,-246.0,56.0,0
516,6.0,-249.0,58.0,0
517,6.0,-248.0,63.0,0
518,7.0,-248.0,58.0,0
519,8.0,-247.0,57.0,0
520,8.0,-249.0,60.0,0
521,9.0,-249.0,61.0,0
522,10.0,-249.0,58.0,0
523,9.0,-247.0,59.0,0
524,10.0,-249.0,59.0,0
525,6.0,-247.0,54.0,0
526,6.0,-245.0,60.0,0
527,8.0,-246.0,56.0,0
528,5.0,-248.0,55.0,0
529,8.0,-248.0,55.0,0
530,6.0,-247.0,58.0,0
531,7.0,-250.0,56.0,0
532,9.0,-246.0,58.0,0
533,7.0,-248.0,56.0,0
534,8.0,-249.0,58.0,0
535,6.0,-248.0,57.0,0
536,7.0,-248.0,54.0,0
537,4.0,-247.0,55.0,0
538,6.0,-251.0,54.0,0
539,6.0,-249.0,56.0,0
540,7.0,-248.0,56.0,0
541,9.0,-247.0,59.0,0
542,6.0,-248.0,57.0,0
543,6.0,-248.0,59.0,0
544,5.0,-247.0,57.0,0
545,6.0,-249.0,58.0,0
546,4.0,-249.0,60.0,0
547,4.0,-251.0,57.0,0
548,4.0,-249.0,57.0,0
549,8.0,-251.0,72.0,0
550,2.0,-250.0,57.0,0
551,2.0,-247.0,57.0,0
552,4.0,-248.0,56.0,0
553,5.0,-248.0,60.0,0
554,6.0,-245.0,60.0,0
555,9.0,-246.0,60.0,0
556,12.0,-248.0,56.0,0
557,9.0,-247.0,59.0,0
558,10.0,-244.0,55.0,0
559,11.0,-247.0,58.0,0
560,11.0,-244.0,55.0,0
561,11.0,-245.0,53.0,0
562,9.0,-246.0,56.0,0
563,11.0,-243.0,57.0,0
564,11.0,-249.0,58.0,0
565,14.0,-248.0,57.0,0
566,14.0,-247.0,58.0,0
567,14.0,-251.0,51.0,0
568,12.0,-250.0,54.0,0
569,13.0,-249.0,60.0,0
570,10.0,-249.0,64.0,0
571,6.0,-246.0,57.0,0
572,11.0,-252.0,62.0,0
573,11.0,-248.0,61.0,0
574,10.0,-251.0,59.0,0
575,9.0,-247.0,60.0,0
576,8.0,-250.0,61.0,0
577,10.0,-250.0,59.0,0
578,11.0,-247.0,63.0,0
579,11.0,-247.0,63.0,0
580,9.0,-246.0,58.0,0
581,5.0,-245.0,59.0,0
582,6.0,-247.0,62.0,0
583,9.0,-248.0,59.0,0
584,4.0,-247.0,59.0,0
585,5.0,-247.0,66.0,0
586,7.0,-246.0,63.0,0
587,6.0,-246.0,64.0,0
588,5.0,-244.0,62.0,0
589,1.0,-245.0,64.0,0
590,2.0,-247.0,64.0,0
591,2.0,-248.0,62.0,0
592,-1.0,-246.0,63.0,0
593,0.0,-242.0,61.0,0
594,2.0,-247.0,58.0,0
595,-2.0,-245.0,59.0,0
596,-2.0,-245.0,61.0,0
597,1.0,-245.0,60.0,0
598,1.0,-246.0,59.0,0
599,2.0,-246.0,59.0,0
600,1.0,-242.0,62.0,0
601,0.0,-245.0,64.0,0
602,5.0,-245.0,67.0,0
603,4.0,-245.0,64.0,0
604,3.0,-245.0,69.0,0
605,2.0,-246.0,71.0,0
606,1.0,-248.0,69.0,0
607,3.0,-247.0,69.0,0
608,4.0,-247.0,69.0,0
609,4.0,-244.0,68.0,0
610,2.0,-243.0,70.0,0
611,3.0,-241.0,70.0,0
612,5.0,-240.0,69.0,0
613,3.0,-244.0,70.0,0
614,1.0,-241.0,65.0,0
615,2.0,-242.0,68.0,0
616,3.0,-248.0,71.0,0
617,1.0,-248.0,69.0,0
618,4.0,-249.0,72.0,0
619,3.0,-249.0,73.0,0
620,4.0,-252.0,74.0,0
621,2.0,-253.0,78.0,0
622,5.0,-250.0,74.0,0
623,5.0,-252.0,79.0,0
624,1.0,-252.0,74.0,0
625,1.0,-253.0,74.0,0
626,1.0,-251.0,70.0,0
627,1.0,-253.0,67.0,0
628,2.0,-251.0,64.0,0
629,1.0,-251.0,63.0,0
630,1.0,-251.0,59.0,0
631,1.0,-249.0,60.0,0
632,3.0,-250.0,61.0,0
633,2.0,-251.0,56.0,0
634,2.0,-250.0,57.0,0
635,1.0,-248.0,55.0,0
636,2.0,-246.0,50.0,0
637,4.0,-247.0,50.0,0
638,2.0,-245.0,52.0,0
639,7.0,-241.0,47.0,0
640,7.0,-239.0,47.0,0
641,12.0,-237.0,43.0,0
642,15.0,-235.0,41.0,0
643,13.0,-233.0,43.0,0
644,13.0,-230.0,39.0,0
645,13.0,-228.0,43.0,0
646,16.0,-232.0,43.0,0
647,16.0,-228.0,47.0,0
648,14.0,-232.0,44.0,0
649,17.0,-232.0,43.0,0
650,16.0,-233.0,46.0,0
651,14.0,-238.0,45.0,0
652,14.0,-236.0,44.0,0
653,18.0,-237.0,45.0,0
654,17.0,-236.0,49.0,0
655,17.0,-234.0,46.0,0
656,13.0,-234.0,45.0,0
657,15.0,-234.0,47.0,0
658,13.0,-233.0,51.0,0
659,15.0,-234.0,47.0,0
660,17.0,-239.0,44.0,0
661,18.0,-237.0,44.0,0
662,14.0,-237.0,46.0,0
663,13.0,-241.0,48.0,0
664,13.0,-245.0,49.0,0
665,12.0,-247.0,51.0,0
666,11.0,-248.0,58.0,0
667,8.0,-250.0,59.0,0
668,6.0,-253.0,54.0,0
669,-2.0,-257.0,62.0,0
670,-6.0,-256.0,53.0,0
671,-14.0,-257.0,55.0,0
672,-21.0,-263.0,52.0,0
673,-24.0,-263.0,53.0,0
674,-24.0,-266.0,55.0,0
675,-24.0,-272.0,58.0,0
676,-32.0,-269.0,54.0,0
677,-29.0,-270.0,59.0,0
678,-29.0,-275.0,59.0,0
679,-31.0,-277.0,57.0,0
680,-27.0,-277.0,61.0,0
681,-30.0,-275.0,52.0,0
682,-27.0,-273.0,48.0,0
683,-29.0,-271.0,48.0,0
684,-23.0,-270.0,45.0,0
685,-25.0,-271.0,42.0,0
686,-25.0,-268.0,40.0,0
687,-22.0,-275.0,37.0,0
688,-19.0,-275.0,36.0,0
689,-20.0,-275.0,39.0,0
690,-17.0,-278.0,37.0,0
691,-16.0,-278.0,37.0,0
692,-15.0,-280.0,33.0,0
693,-16.0,-281.0,32.0,0
694,-18.0,-280.0,26.0,0
695,-13.0,-280.0,29.0,0
696,-18.0,-279.0,28.0,0
697,-23.0,-275.0,30.0,0
698,-25.0,-275.0,32.0,0
699,-26.0,-274.0,36.0,0
700,-30.0,-269.0,38.0,0
701,-34.0,-268.0,29.0,0
702,-35.0,-267.0,43.0,0
703,-35.0,-266.0,45.0,0
704,-32.0,-265.0,42.0,0
705,-37.0,-256.0,38.0,0
706,-34.0,-255.0,42.0,0
707,-31.0,-251.0,42.0,0
708,-33.0,-247.0,36.0,0
709,-34.0,-244.0,36.0,0
710,-33.0,-240.0,37.0,0
711,-36.0,-237.0,33.0,0
712,-35.0,-236.0,29.0,0
713,-41.0,-234.0,32.0,0
714,-42.0,-235.0,30.0,0
715,-48.0,-231.0,33.0,0
716,-50.0,-237.0,32.0,0
717,-56.0,-238.0,36.0,0
718,-60.0,-237.0,34.0,0
719,-59.0,-242.0,40.0,0
720,-62.0,-246.0,40.0,0
721,-67.0,-244.0,45.0,0
722,-72.0,-247.0,47.0,0
723,-73.0,-250.0,51.0,0
724,-76.0,-246.0,56.0,0
725,-81.0,-244.0,61.0,0
726,-81.0,-240.0,58.0,0
727,-83.0,-237.0,59.0,0
728,-81.0,-233.0,57.0,0
729,-83.0,-227.0,54.0,0
730,-80.0,-223.0,53.0,0
731,-83.0,-218.0,49.0,0
732,-85.0,-214.0,46.0,0
733,-84.0,-210.0,42.0,0
734,-90.0,-204.0,38.0,0
735,-87.0,-204.0,37.0,0
736,-89.0,-207.0,37.0,0
737,-95.0,-211.0,38.0,0
738,-97.0,-211.0,36.0,0
739,-104.0,-218.0,43.0,0
740,-110.0,-227.0,51.0,0
741,-111.0,-235.0,57.0,0
742,-116.0,-243.0,64.0,0
743,-121.0,-245.0,71.0,0
744,-126.0,-245.0,75.0,0
745,-127.0,-246.0,77.0,0
746,-127.0,-244.0,77.0,0
747,-123.0,-242.0,74.0,0
748,-118.0,-234.0,73.0,0
749,-116.0,-228.0,74.0,0
750,-111.0,-215.0,73.0,0
751,-104.0,-204.0,78.0,0
752,-103.0,-197.0,72.0,0
753,-101.0,-182.0,70.0,0
754,-103.0,-171.0,67.0,0
755,-106.0,-158.0,64.0,0
756,-106.0,-151.0,64.0,0
757,-114.0,-142.0,60.0,0
758,-124.0,-139.0,63.0,0
759,-128.0,-138.0,62.0,0
760,-133.0,-137.0,61.0,0
761,-144.0,-142.0,56.0,0
762,-157.0,-146.0,56.0,0
763,-164.0,-155.0,55.0,0
764,-171.0,-161.0,49.0,0
765,-177.0,-168.0,48.0,0
766,-176.0,-164.0,46.0,0
767,-185.0,-179.0,45.0,0
768,-180.0,-180.0,46.0,0
769,-181.0,-180.0,47.0,0
770,-179.0,-177.0,47.0,0
771,-173.0,-180.0,45.0,0
772,-171.0,-175.0,49.0,0
773,-166.0,-174.0,47.0,0
774,-166.0,-165.0,46.0,0
775,-166.0,-159.0,47.0,0
776,-162.0,-153.0,44.0,0
777,-162.0,-143.0,44.0,0
778,-162.0,-136.0,39.0,0
779,-167.0,-129.0,34.0,0
780,-166.0,-124.0,28.0,0
781,-169.0,-118.0,24.0,0
782,-172.0,-114.0,21.0,0
783,-183.0,-113.0,16.0,0
784,-194.0,-118.0,19.0,0
785,-209.0,-126.0,20.0,0
786,-228.0,-137.0,21.0,0
787,-243.0,-150.0,27.0,0
788,-244.0,-157.0,24.0,0
789,-251.0,-174.0,28.0,0
790,-245.0,-177.0,24.0,0
791,-241.0,-181.0,26.0,0
792,-231.0,-177.0,24.0,0
793,-226.0,-165.0,21.0,0
794,-221.0,-146.0,24.0,0
795,-219.0,-130.0,12.0,0
796,-219.0,-119.0,2.0,0
797,-222.0,-106.0,-2.0,0
798,-220.0,-96.0,-11.0,0
799,-222.0,-90.0,-17.0,0
800,-227.0,-85.0,-24.0,0
801,-231.0,-87.0,-27.0,0
802,-233.0,-88.0,-27.0,0
803,-239.0,-93.0,-24.0,0
804,-247.0,-102.0,-21.0,0
805,-246.0,-114.0,-19.0,0
806,-252.0,-120.0,-19.0,0
807,-254.0,-125.0,-9.0,0
808,-258.0,-129.0,-4.0,0
809,-259.0,-134.0,3.0,0
810,-260.0,-122.0,3.0,0
811,-258.0,-124.0,13.0,0
812,-256.0,-120.0,10.0,0
813,-255.0,-114.0,6.0,0
814,-251.0,-106.0,-2.0,0
815,-246.0,-94.0,-10.0,0
816,-234.0,-87.0,-14.0,0
817,-230.0,-78.0,-17.0,0
818,-223.0,-74.0,-18.0,0
819,-223.0,-69.0,-17.0,0
820,-226.0,-69.0,-18.0,0
821,-231.0,-70.0,-18.0,0
822,-236.0,-76.0,-17.0,0
823,-238.0,-84.0,-11.0,0
824,-241.0,-95.0,-6.0,0
825,-247.0,-99.0,0.0,0
826,-249.0,-106.0,1.0,0
827,-248.0,-112.0,1.0,0
828,-250.0,-109.0,4.0,0
829,-248.0,-106.0,-2.0,0
830,-243.0,-101.0,-8.0,0
831,-244.0,-87.0,-16.0,0
832,-237.0,-77.0,-17.0,0
833,-242.0,-63.0,-33.0,0
834,-244.0,-50.0,-42.0,0
835,-247.0,-43.0,-51.0,0
836,-248.0,-35.0,-53.0,0
837,-252.0,-33.0,-54.0,0
838,-255.0,-30.0,-47.0,0
839,-259.0,-32.0,-43.0,0
840,-264.0,-34.0,-34.0,0
841,-267.0,-36.0,-26.0,0
842,-272.0,-43.0,-17.0,0
843,-271.0,-52.0,-12.0,0
844,-276.0,-56.0,-5.0,0
845,-274.0,-64.0,-2.0,0
846,-270.0,-69.0,-5.0,0
847,-266.0,-72.0,-2.0,0
848,-262.0,-68.0,-1.0,0
849,-259.0,-68.0,-6.0,0
850,-259.0,-66.0,-10.0,0
851,-261.0,-60.0,-8.0,0
852,-264.0,-55.0,-9.0,0
853,-265.0,-51.0,-1.0,0
854,-267.0,-49.0,-4.0,0
855,-269.0,-45.0,3.0,0
856,-268.0,-44.0,6.0,0
857,-270.0,-41.0,12.0,0
858,-269.0,-39.0,13.0,0
859,-265.0,-38.0,8.0,0
860,-262.0,-33.0,11.0,0
861,-256.0,-35.0,9.0,0
862,-255.0,-29.0,4.0,0
863,-254.0,-25.0,4.0,0
864,-248.0,-27.0,4.0,0
865,-240.0,-31.0,2.0,0
866,-235.0,-37.0,1.0,0
867,-230.0,-38.0,2.0,0
868,-231.0,-38.0,9.0,0
869,-233.0,-38.0,14.0,0
870,-237.0,-36.0,24.0,0
871,-242.0,-30.0,28.0,0
872,-247.0,-21.0,29.0,0
873,-251.0,-11.0,33.0,0
874,-254.0,-1.0,33.0,0
875,-254.0,11.0,31.0,0
876,-253.0,13.0,29.0,0
877,-254.0,14.0,27.0,0
878,-256.0,17.0,30.0,0
879,-259.0,12.0,27.0,0
880,-262.0,10.0,27.0,0
881,-270.0,11.0,31.0,0
882,-284.0,14.0,41.0,0
883,-289.0,14.0,47.0,0
884,-293.0,13.0,52.0,0
885,-292.0,18.0,59.0,0
886,-294.0,14.0,51.0,0
887,-296.0,18.0,42.0,0
888,-302.0,14.0,34.0,0
889,-304.0,10.0,21.0,0
890,-310.0,8.0,10.0,0
891,-319.0,12.0,4.0,0
892,-323.0,12.0,-6.0,0
893,-328.0,13.0,-6.0,0
894,-326.0,18.0,-3.0,0
895,-320.0,20.0,-1.0,0
896,-317.0,20.0,0.0,0
897,-306.0,30.0,11.0,0
898,-293.0,35.0,18.0,0
899,-283.0,42.0,25.0,0
900,-264.0,50.0,34.0,0
901,-251.0,52.0,38.0,0
902,-235.0,55.0,39.0,0
903,-225.0,60.0,46.0,0
904,-213.0,61.0,52.0,0
905,-207.0,61.0,52.0,0
906,-202.0,55.0,49.0,0
907,-201.0,55.0,55.0,0
908,-205.0,54.0,59.0,0
909,-205.0,46.0,64.0,0
910,-210.0,45.0,70.0,0
911,-213.0,38.0,73.0,0
912,-217.0,38.0,79.0,0
913,-219.0,35.0,80.0,0
914,-225.0,31.0,84.0,0
915,-227.0,34.0,86.0,0
916,-230.0,34.0,87.0,0
917,-236.0,35.0,90.0,0
918,-227.0,41.0,83.0,0
919,-231.0,44.0,81.0,0
920,-227.0,48.0,82.0,0
921,-227.0,47.0,74.0,0
922,-226.0,52.0,74.0,0
923,-224.0,53.0,73.0,0
924,-225.0,54.0,77.0,0
925,-227.0,55.0,72.0,0
926,-226.0,53.0,75.0,0
927,-231.0,52.0,72.0,0
928,-238.0,50.0,73.0,0
929,-242.0,48.0,69.0,0
930,-244.0,43.0,72.0,0
931,-253.0,37.0,62.0,0
932,-256.0,28.0,63.0,0
933,-262.0,22.0,60.0,0
934,-264.0,13.0,53.0,0
935,-268.0,9.0,53.0,0
936,-271.0,4.0,49.0,0
937,-268.0,6.0,47.0,0
938,-267.0,3.0,45.0,0
939,-260.0,5.0,35.0,0
940,-257.0,15.0,50.0,0
941,-255.0,23.0,57.0,0
942,-249.0,33.0,62.0,0
943,-242.0,44.0,66.0,0
944,-241.0,54.0,69.0,0
945,-235.0,55.0,71.0,0
946,-235.0,58.0,77.0,0
947,-235.0,62.0,75.0,0
948,-235.0,62.0,79.0,0
949,-232.0,64.0,76.0,0
950,-230.0,55.0,77.0,0
951,-232.0,49.0,69.0,0
952,-235.0,46.0,61.0,0
953,-239.0,38.0,56.0,0
954,-244.0,33.0,48.0,0
955,-255.0,24.0,46.0,0
956,-264.0,19.0,41.0,0
957,-273.0,14.0,37.0,0
958,-274.0,2.0,32.0,0
959,-277.0,-14.0,33.0,0
960,-280.0,-21.0,31.0,0
961,-276.0,-29.0,31.0,0
962,-281.0,-31.0,33.0,0
963,-281.0,-32.0,34.0,0
964,-279.0,-34.0,31.0,0
965,-274.0,-35.0,31.0,0
966,-271.0,-29.0,32.0,0
967,-271.0,-26.0,27.0,0
968,-270.0,-24.0,25.0,0
969,-267.0,-18.0,20.0,0
970,-265.0,-17.0,22.0,0
971,-262.0,-18.0,14.0,0
972,-260.0,-15.0,10.0,0
973,-260.0,-9.0,5.0,0
974,-258.0,-13.0,5.0,0
975,-258.0,-9.0,3.0,0
976,-257.0,-8.0,1.0,0
977,-256.0,-10.0,-1.0,0
978,-253.0,-12.0,-2.0,0
979,-255.0,-15.0,4.0,0
980,-249.0,-21.0,6.0,0
981,-249.0,-21.0,10.0,0
982,-256.0,-25.0,16.0,0
983,-251.0,-21.0,22.0,0
984,-255.0,-25.0,24.0,0
985,-253.0,-26.0,28.0,0
986,-256.0,-25.0,27.0,0
987,-260.0,-24.0,29.0,0
988,-258.0,-28.0,26.0,0
989,-260.0,-26.0,27.0,0
990,-263.0,-25.0,27.0,0
991,-264.0,-23.0,23.0,0
992,-260.0,-25.0,21.0,0
993,-268.0,-23.0,16.0,0
994,-268.0,-17.0,19.0,0
995,-266.0,-16.0,17.0,0
996,-264.0,-13.0,15.0,0
997,-266.0,-15.0,14.0,0
998,-262.0,-9.0,13.0,0
999,-258.0,-13.0,10.0,0
1000,-258.0,-12.0,9.0,0
1001,-259.0,-8.0,10.0,0
1002,-258.0,-10.0,8.0,0
1003,-256.0,-8.0,8.0,0
1004,-251.0,-6.0,7.0,0
1005,-255.0,-7.0,9.0,0
1006,-255.0,-11.0,10.0,0
1007,-256.0,-6.0,15.0,0
1008,-258.0,-9.0,12.0,0
1009,-257.0,-8.0,14.0,0
1010,-260.0,-8.0,16.0,0
1011,-259.0,-3.0,14.0,0
1012,-263.0,-6.0,21.0,0
1013,-263.0,-4.0,18.0,0
1014,-264.0,-2.0,17.0,0
1015,-263.0,-3.0,17.0,0
1016,-269.0,2.0,13.0,0
1017,-267.0,5.0,22.0,0
1018,-269.0,7.0,18.0,0
1019,-272.0,9.0,20.0,0
1020,-268.0,13.0,17.0,0
1021,-269.0,11.0,17.0,0
1022,-268.0,15.0,23.0,0
1023,-269.0,16.0,21.0,0
1024,-266.0,21.0,29.0,0
1025,-261.0,20.0,23.0,0
1026,-264.0,19.0,24.0,0
1027,-262.0,16.0,26.0,0
1028,-262.0,16.0,29.0,0
1029,-256.0,11.0,31.0,0
1030,-258.0,8.0,33.0,0
1031,-259.0,6.0,31.0,0
1032,-256.0,1.0,34.0,0
1033,-257.0,-7.0,35.0,0
1034,-258.0,-5.0,30.0,0
1035,-257.0,-5.0,38.0,0
1036,-258.0,-8.0,34.0,0
1037,-256.0,-11.0,32.0,0
1038,-258.0,-5.0,38.0,0
1039,-256.0,-6.0,34.0,0
1040,-257.0,-5.0,37.0,0
1041,-257.0,-4.0,32.0,0
1042,-255.0,0.0,40.0,0
1043,-258.0,2.0,40.0,0
1044,-259.0,2.0,44.0,0
1045,-257.0,3.0,46.0,0
1046,-258.0,8.0,42.0,0
1047,-255.0,7.0,42.0,0
1048,-257.0,8.0,44.0,0
1049,-256.0,6.0,44.0,0
1050,-254.0,8.0,43.0,0
1051,-253.0,8.0,43.0,0
1052,-256.0,6.0,42.0,0
1053,-253.0,6.0,42.0,0
1054,-251.0,2.0,42.0,0
1055,-249.0,1.0,43.0,0
1056,-253.0,1.0,43.0,0
1057,-251.0,-5.0,41.0,0
1058,-251.0,-5.0,43.0,0
1059,-252.0,-6.0,44.0,0
1060,-252.0,-7.0,44.0,0
1061,-255.0,-9.0,45.0,0
1062,-252.0,-12.0,43.0,0
1063,-255.0,-13.0,43.0,0
1064,-254.0,-14.0,48.0,0
1065,-255.0,-12.0,46.0,0
1066,-257.0,-11.0,43.0,0
1067,-255.0,-13.0,42.0,0
1068,-255.0,-12.0,42.0,0
1069,-256.0,-8.0,39.0,0
1070,-254.0,-8.0,38.0,0
1071,-253.0,-8.0,33.0,0
1072,-253.0,-8.0,35.0,0
1073,-251.0,-7.0,33.0,0
1074,-254.0,-4.0,36.0,0
1075,-253.0,-5.0,35.0,0
1076,-253.0,-3.0,40.0,0
1077,-250.0,-2.0,40.0,0
1078,-251.0,0.0,43.0,0
1079,-251.0,5.0,42.0,0
1080,-253.0,6.0,44.0,0
1081,-252.0,8.0,43.0,0
1082,-254.0,8.0,44.0,0
1083,-253.0,10.0,43.0,0
1084,-252.0,8.0,42.0,0
1085,-253.0,8.0,42.0,0
1086,-251.0,11.0,42.0,0
1087,-252.0,9.0,43.0,0
1088,-256.0,11.0,42.0,0
1089,-253.0,9.0,42.0,0
1090,-254.0,10.0,47.0,0
1091,-252.0,8.0,43.0,0
1092,-251.0,6.0,43.0,0
1093,-252.0,8.0,43.0,0
1094,-252.0,7.0,43.0,0
1095,-251.0,1.0,47.0,0
1096,-256.0,3.0,49.0,0
1097,-255.0,2.0,48.0,0
1098,-255.0,-1.0,49.0,0
1099,-255.0,-4.0,48.0,0
1100,-255.0,-6.0,52.0,0
1101,-257.0,-3.0,47.0,0
1102,-260.0,-4.0,45.0,0
1103,-258.0,-4.0,45.0,0
1104,-258.0,-6.0,46.0,0
1105,-257.0,-5.0,44.0,0
1106,-257.0,-5.0,42.0,0
1107,-254.0,0.0,44.0,0
1108,-255.0,-2.0,42.0,0
1109,-253.0,1.0,41.0,0
1110,-255.0,3.0,40.0,0
1111,-253.0,4.0,41.0,0
1112,-254.0,9.0,42.0,0
1113,-253.0,8.0,43.0,0
1114,-253.0,8.0,42.0,0
1115,-254.0,8.0,42.0,0
1116,-255.0,3.0,47.0,0
1117,-253.0,3.0,44.0,0
1118,-253.0,6.0,42.0,0
1119,-253.0,4.0,43.0,0
1120,-253.0,4.0,45.0,0
1121,-253.0,6.0,47.0,0
1122,-255.0,4.0,48.0,0
1123,-256.0,4.0,49.0,0
1124,-252.0,0.0,43.0,0
1125,-253.0,-3.0,45.0,0
1126,-254.0,2.0,44.0,0
1127,-254.0,2.0,45.0,0
1128,-254.0,4.0,45.0,0
1129,-256.0,3.0,42.0,0
1130,-255.0,6.0,46.0,0
1131,-251.0,0.0,45.0,0
1132,-253.0,0.0,40.0,0
1133,-255.0,2.0,47.0,0
1134,-255.0,-1.0,41.0,0
1135,-251.0,-2.0,44.0,0
1136,-256.0,-2.0,44.0,0
1137,-255.0,-3.0,47.0,0
1138,-255.0,-1.0,48.0,0
1139,-253.0,-4.0,44.0,0
1140,-252.0,-2.0,42.0,0
1141,-255.0,3.0,43.0,0
1142,-254.0,-2.0,47.0,0
1143,-255.0,2.0,44.0,0
1144,-254.0,-3.0,46.0,0
1145,-254.0,-2.0,44.0,0
1146,-254.0,-2.0,45.0,0
1147,-254.0,-5.0,46.0,0
1148,-257.0,-1.0,46.0,0
1149,-255.0,-4.0,45.0,0
1150,-255.0,-6.0,45.0,0
1151,-256.0,-7.0,46.0,0
1152,-254.0,-8.0,43.0,0
1153,-257.0,-6.0,44.0,0
1154,-255.0,-7.0,42.0,0
1155,-257.0,-13.0,42.0,0
1156,-256.0,-1.0,44.0,0
1157,-255.0,-1.0,43.0,0
1158,-252.0,1.0,42.0,0
1159,-254.0,1.0,44.0,0
1160,-255.0,1.0,41.0,0
1161,-254.0,3.0,43.0,0
1162,-253.0,5.0,42.0,0
1163,-253.0,6.0,42.0,0
1164,-253.0,5.0,43.0,0
1165,-254.0,1.0,43.0,0
1166,-255.0,2.0,41.0,0
1167,-257.0,0.0,43.0,0
1168,-256.0,-2.0,41.0,0
1169,-257.0,1.0,42.0,0
1170,-257.0,0.0,41.0,0
1171,-258.0,-2.0,43.0,0
1172,-259.0,1.0,41.0,0
1173,-256.0,0.0,42.0,0
1174,-253.0,-2.0,40.0,0
1175,-256.0,-2.0,42.0,0
1176,-257.0,-2.0,41.0,0
1177,-256.0,1.0,41.0,0
1178,-257.0,6.0,37.0,0
1179,-257.0,1.0,43.0,0
1180,-255.0,0.0,43.0,0
1181,-255.0,0.0,41.0,0
1182,-255.0,3.0,43.0,0
1183,-256.0,0.0,42.0,0
1184,-255.0,1.0,44.0,0
1185,-254.0,0.0,43.0,0
1186,-251.0,-1.0,43.0,0
1187,-256.0,1.0,43.0,0
1188,-253.0,1.0,44.0,0
1189,-252.0,3.0,42.0,0
1190,-255.0,-2.0,38.0,0
1191,-256.0,5.0,44.0,0
1192,-253.0,0.0,43.0,0
1193,-256.0,2.0,44.0,0
1194,-252.0,-2.0,43.0,0
1195,-255.0,0.0,44.0,0
1196,-256.0,-3.0,43.0,0
1197,-250.0,-5.0,45.0,0
1198,-253.0,-2.0,44.0,0
1199,-249.0,-6.0,48.0,0
1200,-254.0,-2.0,42.0,0
1201,-255.0,-4.0,44.0,0
1202,-255.0,-3.0,43.0,0
1203,-255.0,-4.0,41.0,0
1204,-254.0,-5.0,42.0,0
1205,-255.0,-4.0,44.0,0
1206,-253.0,-4.0,41.0,0
1207,-255.0,0.0,39.0,0
1208,-256.0,-2.0,40.0,0
1209,-255.0,1.0,44.0,0
1210,-256.0,1.0,42.0,0
1211,-254.0,2.0,39.0,0
1212,-252.0,-1.0,43.0,0
1213,-251.0,-2.0,43.0,0
1214,-251.0,-1.0,44.0,0
1215,-254.0,-3.0,44.0,0
1216,-255.0,-2.0,43.0,0
1217,-254.0,-2.0,44.0,0
1218,-252.0,-6.0,41.0,0
1219,-253.0,-3.0,43.0,0
1220,-255.0,2.0,35.0,0
1221,-255.0,-4.0,43.0,0
1222,-256.0,-3.0,40.0,0
1223,-254.0,-4.0,41.0,0
1224,-256.0,-2.0,41.0,0
1225,-254.0,1.0,44.0,0
1226,-255.0,-1.0,44.0,0
1227,-256.0,1.0,43.0,0
1228,-254.0,-4.0,45.0,0
1229,-254.0,5.0,47.0,0
1230,-254.0,0.0,44.0,0
1231,-252.0,4.0,46.0,0
1232,-253.0,3.0,43.0,0
1233,-254.0,2.0,45.0,0
1234,-256.0,2.0,44.0,0
1235,-253.0,0.0,47.0,0
1236,-253.0,2.0,46.0,0
1237,-251.0,-1.0,46.0,0
1238,-256.0,2.0,43.0,0
1239,-253.0,1.0,43.0,0
1240,-255.0,-1.0,43.0,0
1241,-256.0,-2.0,47.0,0
1242,-253.0,4.0,51.0,0
1243,-255.0,2.0,43.0,0
1244,-255.0,2.0,47.0,0
1245,-255.0,3.0,46.0,0
1246,-256.0,1.0,43.0,0
1247,-255.0,3.0,44.0,0
1248,-252.0,2.0,43.0,0
1249,-256.0,0.0,45.0,0
1250,-255.0,4.0,44.0,0
1251,-255.0,-2.0,42.0,0
1252,-255.0,-4.0,45.0,0
1253,-256.0,2.0,44.0,0
1254,-255.0,-1.0,43.0,0
1255,-255.0,-2.0,50.0,0
1256,-255.0,-1.0,50.0,0
1257,-255.0,-5.0,44.0,0
1258,-255.0,1.0,45.0,0
1259,-255.0,0.0,43.0,0
1260,-255.0,4.0,45.0,0
1261,-253.0,0.0,49.0,0
1262,-255.0,-1.0,43.0,0
1263,-254.0,0.0,46.0,0
1264,-258.0,-5.0,44.0,0
1265,-255.0,2.0,44.0,0
1266,-254.0,0.0,46.0,0
1267,-254.0,1.0,46.0,0
1268,-256.0,-4.0,47.0,0
1269,-254.0,-4.0,43.0,0
1270,-255.0,-2.0,45.0,0
1271,-252.0,-2.0,44.0,0
1272,-255.0,-3.0,47.0,0
1273,-254.0,-2.0,44.0,0
1274,-256.0,-2.0,44.0,0
1275,-254.0,-4.0,42.0,0
1276,-256.0,1.0,43.0,0
1277,-254.0,2.0,43.0,0
1278,-251.0,-1.0,45.0,0
1279,-253.0,2.0,44.0,0
1280,-255.0,7.0,46.0,0
1281,-255.0,2.0,47.0,0
1282,-254.0,3.0,48.0,0
1283,-252.0,1.0,48.0,0
1284,-255.0,3.0,48.0,0
1285,-253.0,2.0,48.0,0
1286,-255.0,1.0,49.0,0
1287,-254.0,-2.0,47.0,0
1288,-254.0,0.0,51.0,0
1289,-254.0,-3.0,47.0,0
1290,-255.0,-1.0,48.0,0
1291,-251.0,-1.0,46.0,0
1292,-255.0,0.0,46.0,0
1293,-254.0,-2.0,45.0,0
1294,-252.0,-4.0,43.0,0
1295,-256.0,0.0,46.0,0
1296,-255.0,0.0,47.0,0
1297,-256.0,0.0,44.0,0
1298,-255.0,-1.0,46.0,0
1299,-255.0,-2.0,47.0,0
1300,-255.0,1.0,42.0,0
1301,-254.0,0.0,50.0,0
1302,-256.0,0.0,48.0,0
1303,-254.0,1.0,46.0,0
1304,-254.0,1.0,47.0,0
1305,-255.0,3.0,49.0,0
1306,-251.0,1.0,46.0,0
1307,-253.0,-3.0,50.0,0
1308,-256.0,0.0,49.0,0
1309,-252.0,0.0,45.0,0
1310,-254.0,0.0,45.0,0
1311,-254.0,1.0,46.0,0
1312,-252.0,0.0,45.0,0
1313,-253.0,6.0,47.0,0
1314,-254.0,2.0,48.0,0
1315,-249.0,-3.0,50.0,0
1316,-253.0,-1.0,45.0,0
1317,-255.0,2.0,47.0,0
1318,-255.0,1.0,48.0,0
1319,-256.0,-2.0,49.0,0
1320,-254.0,-3.0,46.0,0
1321,-254.0,-2.0,46.0,0
1322,-256.0,1.0,45.0,0
1323,-255.0,-3.0,49.0,0
1324,-253.0,-2.0,46.0,0
1325,-250.0,1.0,44.0,0
1326,-253.0,1.0,47.0,0
1327,-255.0,-1.0,45.0,0
1328,-253.0,-2.0,47.0,0
1329,-246.0,0.0,55.0,0
1330,-256.0,6.0,46.0,0
1331,-254.0,2.0,47.0,0
1332,-255.0,2.0,49.0,0
1333,-253.0,1.0,48.0,0
1334,-255.0,3.0,50.0,0
1335,-255.0,0.0,47.0,0
1336,-253.0,0.0,49.0,0
1337,-253.0,2.0,48.0,0
1338,-254.0,0.0,47.0,0
1339,-252.0,-3.0,47.0,0
1340,-253.0,-1.0,46.0,0
1341,-252.0,1.0,50.0,0
1342,-255.0,1.0,47.0,0
1343,-254.0,1.0,45.0,0
1344,-254.0,3.0,47.0,0
1345,-255.0,2.0,44.0,0
1346,-252.0,1.0,47.0,0
1347,-250.0,-1.0,47.0,0
1348,-254.0,3.0,49.0,0
1349,-253.0,0.0,52.0,0
1350,-253.0,-2.0,46.0,0
1351,-243.0,0.0,48.0,0
1352,-256.0,0.0,47.0,0
1353,-255.0,3.0,50.0,0
1354,-253.0,-2.0,46.0,0
1355,-252.0,1.0,50.0,0
1356,-252.0,1.0,49.0,0
1357,-255.0,0.0,46.0,0
1358,-255.0,3.0,45.0,0
1359,-251.0,-1.0,46.0,0
1360,-252.0,-3.0,47.0,0
1361,-256.0,0.0,47.0,0
1362,-252.0,0.0,44.0,0
1363,-253.0,1.0,46.0,0
1364,-255.0,2.0,47.0,0
1365,-252.0,1.0,49.0,0
1366,-254.0,1.0,49.0,0
1367,-255.0,0.0,45.0,0
1368,-250.0,-2.0,46.0,0
1369,-255.0,-2.0,48.0,0
1370,-253.0,2.0,45.0,0
1371,-253.0,-2.0,48.0,0
1372,-253.0,-1.0,46.0,0
1373,-248.0,7.0,49.0,0
1374,-253.0,-1.0,50.0,0
1375,-254.0,-2.0,45.0,0
1376,-250.0,-1.0,48.0,0
1377,-255.0,-2.0,46.0,0
1378,-254.0,1.0,50.0,0
1379,-255.0,2.0,44.0,0
1380,-252.0,-2.0,45.0,0
1381,-255.0,1.0,49.0,0
1382,-252.0,-1.0,44.0,0
1383,-253.0,-1.0,47.0,0
1384,-254.0,-4.0,49.0,0
1385,-253.0,-3.0,54.0,0
1386,-252.0,-2.0,50.0,0
1387,-255.0,-4.0,50.0,0
1388,-253.0,-4.0,47.0,0
1389,-254.0,-6.0,47.0,0
1390,-256.0,-3.0,47.0,0
1391,-255.0,-3.0,45.0,0
1392,-255.0,-3.0,46.0,0
1393,-254.0,0.0,48.0,0
1394,-254.0,1.0,47.0,0
1395,-253.0,2.0,43.0,0
1396,-252.0,-1.0,42.0,0
1397,-253.0,3.0,46.0,0
1398,-256.0,3.0,45.0,0
1399,-252.0,2.0,48.0,0
1400,-253.0,1.0,48.0,0
1401,-254.0,4.0,47.0,0
1402,-254.0,1.0,51.0,0
1403,-256.0,3.0,46.0,0
1404,-257.0,1.0,45.0,0
1405,-252.0,3.0,52.0,0
1406,-255.0,3.0,48.0,0
1407,-255.0,3.0,45.0,0
1408,-254.0,-1.0,46.0,0
1409,-255.0,2.0,49.0,0
1410,-253.0,-1.0,46.0,0
1411,-252.0,-4.0,46.0,0
1412,-255.0,-1.0,48.0,0
1413,-255.0,0.0,46.0,0
1414,-254.0,-1.0,47.0,0
1415,-252.0,0.0,48.0,0
1416,-250.0,-1.0,44.0,0
1417,-252.0,0.0,49.0,0
1418,-254.0,2.0,45.0,0
1419,-252.0,-1.0,46.0,0
1420,-255.0,0.0,46.0,0
1421,-256.0,2.0,46.0,0
1422,-254.0,0.0,49.0,0
1423,-254.0,2.0,46.0,0
1424,-254.0,0.0,44.0,0
1425,-254.0,2.0,43.0,0
1426,-254.0,0.0,45.0,0
1427,-253.0,-1.0,47.0,0
1428,-254.0,-1.0,46.0,0
1429,-254.0,-5.0,43.0,0
1430,-253.0,-4.0,47.0,0
1431,-255.0,0.0,47.0,0
1432,-253.0,-2.0,45.0,0
1433,-254.0,1.0,47.0,0
1434,-255.0,4.0,48.0,0
1435,-253.0,-2.0,45.0,0
1436,-252.0,-1.0,47.0,0
1437,-254.0,-2.0,49.0,0
1438,-247.0,0.0,50.0,0
1439,-256.0,0.0,49.0,0
1440,-256.0,-2.0,45.0,0
1441,-255.0,0.0,49.0,0
1442,-252.0,-2.0,46.0,0
1443,-255.0,-2.0,46.0,0
1444,-254.0,-2.0,44.0,0
1445,-254.0,-1.0,47.0,0
1446,-253.0,-2.0,46.0,0
1447,-253.0,2.0,47.0,0
1448,-252.0,-2.0,50.0,0
1449,-252.0,1.0,53.0,0
1450,-253.0,0.0,47.0,0
1451,-253.0,-1.0,47.0,0
1452,-254.0,-1.0,47.0,0
1453,-253.0,-2.0,49.0,0
1454,-255.0,0.0,45.0,0
1455,-256.0,3.0,50.0,0
1456,-255.0,0.0,48.0,0
1457,-253.0,-1.0,46.0,0
1458,-255.0,-3.0,43.0,0
1459,-254.0,4.0,46.0,0
1460,-254.0,1.0,46.0,0
1461,-256.0,3.0,48.0,0
1462,-254.0,-3.0,48.0,0
1463,-255.0,-2.0,46.0,0
1464,-252.0,-2.0,44.0,0
1465,-255.0,2.0,45.0,0
1466,-255.0,2.0,47.0,0
1467,-253.0,-3.0,48.0,0
1468,-254.0,4.0,48.0,0
1469,-249.0,-1.0,49.0,0
1470,-255.0,3.0,48.0,0
1471,-254.0,2.0,46.0,0
1472,-256.0,0.0,50.0,0
1473,-256.0,0.0,45.0,0
1474,-255.0,-2.0,46.0,0
1475,-255.0,2.0,46.0,0
1476,-255.0,-1.0,47.0,0
1477,-252.0,3.0,45.0,0
1478,-255.0,4.0,48.0,0
1479,-252.0,4.0,48.0,0
1480,-252.0,0.0,46.0,0
1481,-257.0,1.0,46.0,0
1482,-255.0,2.0,48.0,0
1483,-254.0,2.0,48.0,0
1484,-253.0,0.0,50.0,0
1485,-253.0,-1.0,48.0,0
1486,-255.0,3.0,47.0,0
1487,-254.0,0.0,47.0,0
1488,-254.0,1.0,47.0,0
1489,-255.0,0.0,44.0,0
1490,-253.0,5.0,46.0,0
1491,-254.0,2.0,47.0,0
1492,-254.0,0.0,49.0,0
1493,-256.0,1.0,45.0,0
1494,-255.0,2.0,45.0,0
1495,-255.0,-2.0,46.0,0
1496,-255.0,-3.0,46.0,0
1497,-255.0,-4.0,46.0,0
1498,-254.0,-5.0,42.0,0
1499,-254.0,-5.0,48.0,0
1500,-251.0,-3.0,46.0,0
1501,-253.0,-5.0,48.0,0
1502,-253.0,-3.0,45.0,0
1503,-246.0,-1.0,51.0,0
1504,-256.0,-1.0,47.0,0
1505,-255.0,0.0,46.0,0
1506,-252.0,-5.0,47.0,0
1507,-254.0,-3.0,45.0,0
1508,-255.0,-4.0,49.0,0
1509,-254.0,-6.0,46.0,0
1510,-252.0,-6.0,51.0,0
1511,-255.0,-6.0,50.0,0
1512,-253.0,-5.0,47.0,0
1513,-253.0,-4.0,47.0,0
1514,-253.0,-4.0,45.0,0
1515,-254.0,-2.0,46.0,0
1516,-254.0,-4.0,45.0,0
1517,-253.0,-1.0,44.0,0
1518,-250.0,-1.0,44.0,0
1519,-253.0,0.0,46.0,0
1520,-253.0,1.0,46.0,0
1521,-251.0,-1.0,47.0,0
1522,-252.0,0.0,48.0,0
1523,-253.0,-2.0,48.0,0
1524,-252.0,0.0,49.0,0
1525,-252.0,-11.0,53.0,0
1526,-253.0,-2.0,46.0,0
1527,-257.0,-4.0,51.0,0
1528,-254.0,-5.0,50.0,0
1529,-253.0,-1.0,49.0,0
1530,-253.0,-5.0,49.0,0
1531,-255.0,-2.0,50.0,0
1532,-254.0,-2.0,49.0,0
1533,-254.0,-1.0,46.0,0
1534,-254.0,-2.0,46.0,0
1535,-254.0,-3.0,47.0,0
1536,-254.0,1.0,47.0,0
1537,-256.0,1.0,48.0,0
1538,-255.0,1.0,45.0,0
1539,-255.0,-2.0,45.0,0
1540,-254.0,0.0,45.0,0
1541,-252.0,0.0,43.0,0
1542,-253.0,1.0,45.0,0
1543,-255.0,0.0,45.0,0
1544,-252.0,-2.0,44.0,0
1545,-255.0,-1.0,45.0,0
1546,-254.0,1.0,45.0,0
1547,-253.0,-4.0,44.0,0
1548,-255.0,-1.0,46.0,0
1549,-254.0,-2.0,46.0,0
1550,-253.0,-4.0,42.0,0
1551,-255.0,2.0,44.0,0
1552,-253.0,-1.0,41.0,0
1553,-254.0,-5.0,45.0,0
1554,-255.0,-3.0,48.0,0
1555,-254.0,-3.0,44.0,0
1556,-255.0,-1.0,46.0,0
1557,-251.0,-2.0,48.0,0
1558,-256.0,-2.0,43.0,0
1559,-256.0,-1.0,45.0,0
1560,-254.0,-1.0,45.0,0
1561,-253.0,-6.0,44.0,0
1562,-253.0,-5.0,45.0,0
1563,-254.0,-2.0,44.0,0
1564,-254.0,-3.0,44.0,0
1565,-253.0,-4.0,48.0,0
1566,-254.0,-6.0,44.0,0
1567,-253.0,-4.0,48.0,0
1568,-254.0,-7.0,48.0,0
1569,-256.0,-12.0,46.0,0
1570,-254.0,-1.0,47.0,0
1571,-253.0,-3.0,45.0,0
1572,-256.0,-2.0,44.0,0
1573,-252.0,-3.0,46.0,0
1574,-253.0,-5.0,45.0,0
1575,-254.0,-2.0,45.0,0
1576,-252.0,-3.0,44.0,0
1577,-254.0,-4.0,50.0,0
1578,-252.0,-2.0,47.0,0
1579,-253.0,-1.0,47.0,0
1580,-253.0,0.0,44.0,0
1581,-252.0,-1.0,50.0,0
1582,-253.0,-1.0,47.0,0
1583,-254.0,-3.0,47.0,0
1584,-255.0,-2.0,44.0,0
1585,-253.0,-1.0,47.0,0
1586,-254.0,-1.0,51.0,0
1587,-257.0,0.0,45.0,0
1588,-257.0,-3.0,45.0,0
1589,-255.0,-4.0,46.0,0
1590,-254.0,4.0,44.0,0
1591,-254.0,-2.0,43.0,0
1592,-257.0,-3.0,40.0,0
1593,-257.0,0.0,44.0,0
1594,-257.0,-1.0,41.0,0
1595,-254.0,-2.0,43.0,0
1596,-257.0,1.0,42.0,0
1597,-256.0,0.0,43.0,0
1598,-255.0,-1.0,42.0,0
1599,-254.0,-1.0,44.0,0
1600,-254.0,-2.0,45.0,0
1601,-254.0,-1.0,46.0,0
1602,-255.0,0.0,45.0,0
1603,-252.0,-3.0,45.0,0
1604,-254.0,0.0,45.0,0
1605,-252.0,-2.0,44.0,0
1606,-252.0,-1.0,44.0,0
1607,-254.0,-2.0,49.0,0
1608,-254.0,-2.0,45.0,0
1609,-254.0,0.0,45.0,0
1610,-256.0,-2.0,46.0,0
1611,-255.0,-3.0,50.0,0
1612,-254.0,0.0,45.0,0
1613,-255.0,-2.0,48.0,0
1614,-256.0,1.0,51.0,0
1615,-256.0,1.0,46.0,0
1616,-252.0,-2.0,47.0,0
1617,-254.0,0.0,48.0,0
1618,-255.0,1.0,44.0,0
1619,-255.0,-3.0,48.0,0
1620,-252.0,-2.0,45.0,0
1621,-255.0,0.0,46.0,0
1622,-252.0,-4.0,45.0,0
1623,-251.0,-5.0,43.0,0
1624,-250.0,-6.0,42.0,0
1625,-254.0,-5.0,43.0,0
1626,-252.0,-5.0,41.0,0
1627,-256.0,-5.0,43.0,0
1628,-253.0,-7.0,46.0,0
1629,-255.0,-6.0,45.0,0
1630,-254.0,-9.0,43.0,0
1631,-255.0,-7.0,45.0,0
1632,-254.0,-7.0,45.0,0
1633,-255.0,-4.0,47.0,0
1634,-258.0,-18.0,52.0,0
1635,-254.0,-6.0,49.0,0
1636,-254.0,-5.0,47.0,0
1637,-256.0,-2.0,47.0,0
1638,-254.0,-1.0,46.0,0
1639,-255.0,-2.0,44.0,0
1640,-256.0,0.0,46.0,0
1641,-252.0,-2.0,44.0,0
1642,-253.0,0.0,43.0,0
1643,-255.0,6.0,45.0,0
1644,-252.0,5.0,44.0,0
1645,-253.0,3.0,44.0,0
1646,-254.0,1.0,41.0,0
1647,-255.0,0.0,43.0,0
1648,-254.0,-3.0,44.0,0
1649,-253.0,-4.0,44.0,0
1650,-255.0,-3.0,44.0,0
1651,-255.0,-5.0,45.0,0
1652,-256.0,-6.0,45.0,0
1653,-255.0,-6.0,42.0,0
1654,-256.0,-8.0,42.0,0
1655,-256.0,-6.0,46.0,0
1656,-257.0,-5.0,53.0,0
1657,-255.0,-5.0,46.0,0
1658,-256.0,-5.0,49.0,0
1659,-253.0,-5.0,48.0,0
1660,-255.0,-4.0,48.0,0
1661,-256.0,-2.0,47.0,0
1662,-256.0,-4.0,48.0,0
1663,-256.0,-3.0,49.0,0
1664,-258.0,-4.0,48.0,0
1665,-260.0,-5.0,45.0,0
1666,-259.0,-9.0,47.0,0
1667,-265.0,-5.0,42.0,0
1668,-263.0,-5.0,43.0,0
1669,-268.0,-6.0,37.0,0
1670,-269.0,-8.0,37.0,0
1671,-271.0,-9.0,38.0,0
1672,-274.0,-15.0,35.0,0
1673,-272.0,-18.0,36.0,0
1674,-270.0,-19.0,33.0,0
1675,-271.0,-21.0,35.0,0
1676,-268.0,-23.0,35.0,0
1677,-264.0,-20.0,39.0,0
1678,-260.0,-22.0,35.0,0
1679,-263.0,-23.0,32.0,0
1680,-258.0,-18.0,39.0,0
1681,-254.0,-15.0,36.0,0
1682,-251.0,-14.0,41.0,0
1683,-248.0,-10.0,38.0,0
1684,-247.0,-9.0,41.0,0
1685,-247.0,-6.0,38.0,0
1686,-245.0,-10.0,39.0,0
1687,-243.0,-6.0,40.0,0
1688,-239.0,-7.0,38.0,0
1689,-241.0,-5.0,39.0,0
1690,-241.0,-7.0,39.0,0
1691,-243.0,-3.0,38.0,0
1692,-245.0,-4.0,43.0,0
1693,-247.0,-5.0,44.0,0
1694,-245.0,-6.0,47.0,0
1695,-254.0,-7.0,54.0,0
1696,-253.0,-9.0,53.0,0
1697,-256.0,-12.0,55.0,0
1698,-260.0,-12.0,57.0,0
1699,-254.0,-17.0,58.0,0
1700,-253.0,-14.0,59.0,0
1701,-254.0,-11.0,60.0,0
1702,-250.0,-9.0,60.0,0
1703,-252.0,-11.0,58.0,0
1704,-247.0,-7.0,59.0,0
1705,-249.0,-3.0,69.0,0
1706,-247.0,-2.0,67.0,0
1707,-246.0,0.0,66.0,0
1708,-243.0,7.0,64.0,0
1709,-244.0,13.0,71.0,0
1710,-245.0,14.0,79.0,0
1711,-243.0,20.0,85.0,0
1712,-244.0,28.0,93.0,0
1713,-243.0,37.0,103.0,0
1714,-244.0,48.0,112.0,0
1715,-245.0,58.0,120.0,0
1716,-249.0,70.0,126.0,0
1717,-255.0,77.0,131.0,0
1718,-259.0,84.0,131.0,0
1719,-261.0,90.0,127.0,0
1720,-272.0,88.0,120.0,0
1721,-275.0,91.0,96.0,0
1722,-279.0,88.0,75.0,0
1723,-279.0,80.0,46.0,0
1724,-272.0,72.0,21.0,0
1725,-256.0,60.0,-14.0,0
1726,-234.0,48.0,-39.0,0
1727,-215.0,43.0,-58.0,0
1728,-203.0,30.0,-66.0,0
1729,-197.0,21.0,-69.0,0
1730,-194.0,13.0,-64.0,0
1731,-194.0,6.0,-41.0,0
1732,-203.0,0.0,-25.0,0
1733,-213.0,-8.0,-9.0,0
1734,-227.0,-11.0,0.0,0
1735,-242.0,-9.0,14.0,0
1736,-253.0,-5.0,19.0,0
1737,-272.0,4.0,20.0,0
1738,-287.0,6.0,25.0,0
1739,-303.0,13.0,26.0,0
1740,-311.0,15.0,18.0,0
1741,-322.0,21.0,14.0,0
1742,-325.0,28.0,2.0,0
1743,-330.0,18.0,-4.0,0
1744,-330.0,18.0,-13.0,0
1745,-328.0,8.0,-16.0,0
1746,-323.0,7.0,-11.0,0
1747,-312.0,-2.0,-7.0,0
1748,-303.0,-9.0,-2.0,0
1749,-295.0,-11.0,5.0,0
1750,-291.0,-17.0,15.0,0
1751,-286.0,-22.0,25.0,0
1752,-283.0,-23.0,31.0,0
1753,-279.0,-24.0,34.0,0
1754,-273.0,-26.0,36.0,0
1755,-266.0,-22.0,35.0,0
1756,-265.0,-22.0,29.0,0
1757,-266.0,-22.0,17.0,0
1758,-264.0,-21.0,-2.0,0
1759,-261.0,-27.0,-23.0,0
1760,-261.0,-29.0,-51.0,0
1761,-265.0,-40.0,-67.0,0
1762,-263.0,-50.0,-80.0,0
1763,-266.0,-56.0,-89.0,0
1764,-272.0,-75.0,-94.0,0
1765,-279.0,-80.0,-96.0,0
1766,-276.0,-84.0,-85.0,0
1767,-279.0,-89.0,-74.0,0
1768,-271.0,-97.0,-65.0,0
1769,-269.0,-93.0,-58.0,0
1770,-261.0,-96.0,-55.0,0
1771,-257.0,-96.0,-51.0,0
1772,-254.0,-93.0,-48.0,0
1773,-255.0,-83.0,-47.0,0
1774,-252.0,-81.0,-48.0,0
1775,-250.0,-80.0,-47.0,0
1776,-249.0,-77.0,-42.0,0
1777,-246.0,-78.0,-39.0,0
1778,-248.0,-78.0,-28.0,0
1779,-246.0,-84.0,-20.0,0
1780,-248.0,-83.0,-19.0,0
1781,-248.0,-86.0,-9.0,0
1782,-246.0,-87.0,-4.0,0
1783,-248.0,-89.0,3.0,0
1784,-245.0,-90.0,4.0,0
1785,-244.0,-93.0,7.0,0
1786,-238.0,-89.0,12.0,0
1787,-236.0,-82.0,4.0,0
1788,-232.0,-85.0,1.0,0
1789,-231.0,-79.0,5.0,0
1790,-226.0,-78.0,5.0,0
1791,-223.0,-73.0,4.0,0
1792,-221.0,-74.0,1.0,0
1793,-219.0,-77.0,-1.0,0
1794,-222.0,-82.0,-2.0,0
1795,-223.0,-90.0,-3.0,0
1796,-229.0,-94.0,-1.0,0
1797,-237.0,-99.0,-1.0,0
1798,-241.0,-103.0,-1.0,0
1799,-247.0,-105.0,-2.0,0
1800,-240.0,-111.0,-3.0,0
1801,-241.0,-108.0,-3.0,0
1802,-239.0,-109.0,-3.0,0
1803,-234.0,-111.0,-3.0,0
1804,-233.0,-114.0,-3.0,0
1805,-228.0,-116.0,-3.0,0
1806,-216.0,-122.0,10.0,0
1807,-221.0,-121.0,-2.0,0
1808,-217.0,-121.0,2.0,0
1809,-213.0,-122.0,0.0,0
1810,-213.0,-119.0,-5.0,0
1811,-214.0,-122.0,-10.0,0
1812,-214.0,-127.0,-17.0,0
1813,-214.0,-134.0,-26.0,0
1814,-212.0,-139.0,-26.0,0
1815,-212.0,-145.0,-31.0,0
1816,-209.0,-153.0,-35.0,0
1817,-201.0,-162.0,-35.0,0
1818,-197.0,-169.0,-28.0,0
1819,-194.0,-175.0,-20.0,0
1820,-189.0,-182.0,-13.0,0
1821,-183.0,-183.0,-6.0,0
1822,-185.0,-187.0,6.0,0
1823,-179.0,-188.0,11.0,0
1824,-180.0,-187.0,15.0,0
1825,-184.0,-186.0,14.0,0
1826,-188.0,-181.0,15.0,0
1827,-189.0,-177.0,13.0,0
1828,-192.0,-166.0,21.0,0
1829,-191.0,-157.0,24.0,0
1830,-191.0,-151.0,24.0,0
1831,-193.0,-141.0,28.0,0
1832,-197.0,-134.0,29.0,0
1833,-195.0,-131.0,32.0,0
1834,-201.0,-130.0,37.0,0
1835,-207.0,-135.0,38.0,0
1836,-207.0,-134.0,44.0,0
1837,-203.0,-144.0,48.0,0
1838,-197.0,-145.0,56.0,0
1839,-191.0,-148.0,60.0,0
1840,-187.0,-149.0,70.0,0
1841,-186.0,-153.0,70.0,0
1842,-178.0,-158.0,73.0,0
1843,-172.0,-159.0,73.0,0
1844,-163.0,-162.0,73.0,0
1845,-154.0,-171.0,66.0,0
1846,-148.0,-174.0,61.0,0
1847,-139.0,-179.0,57.0,0
1848,-141.0,-178.0,51.0,0
1849,-132.0,-187.0,48.0,0
1850,-129.0,-189.0,47.0,0
1851,-131.0,-200.0,47.0,0
1852,-132.0,-202.0,46.0,0
1853,-129.0,-207.0,44.0,0
1854,-131.0,-216.0,46.0,0
1855,-133.0,-219.0,47.0,0
1856,-134.0,-220.0,47.0,0
1857,-133.0,-223.0,45.0,0
1858,-138.0,-223.0,47.0,0
1859,-140.0,-221.0,43.0,0
1860,-143.0,-215.0,45.0,0
1861,-141.0,-215.0,45.0,0
1862,-143.0,-211.0,42.0,0
1863,-143.0,-204.0,41.0,0
1864,-143.0,-201.0,34.0,0
1865,-143.0,-197.0,33.0,0
1866,-139.0,-191.0,29.0,0
1867,-140.0,-190.0,26.0,0
1868,-138.0,-185.0,27.0,0
1869,-132.0,-182.0,19.0,0
1870,-126.0,-190.0,26.0,0
1871,-127.0,-184.0,25.0,0
1872,-122.0,-185.0,24.0,0
1873,-114.0,-189.0,26.0,0
1874,-106.0,-195.0,19.0,0
1875,-101.0,-196.0,22.0,0
1876,-101.0,-195.0,23.0,0
1877,-95.0,-201.0,19.0,0
1878,-93.0,-205.0,17.0,0
1879,-85.0,-207.0,18.0,0
1880,-83.0,-210.0,13.0,0
1881,-81.0,-211.0,8.0,0
1882,-76.0,-212.0,3.0,0
1883,-76.0,-217.0,-1.0,0
1884,-75.0,-220.0,-1.0,0
1885,-74.0,-220.0,-7.0,0
1886,-73.0,-220.0,-3.0,0
1887,-70.0,-221.0,-6.0,0
1888,-69.0,-222.0,-5.0,0
1889,-63.0,-222.0,-4.0,0
1890,-61.0,-225.0,-7.0,0
1891,-59.0,-228.0,-2.0,0
1892,-62.0,-228.0,2.0,0
1893,-57.0,-234.0,3.0,0
1894,-57.0,-244.0,7.0,0
1895,-62.0,-244.0,5.0,0
1896,-62.0,-254.0,3.0,0
1897,-70.0,-258.0,9.0,0
1898,-66.0,-265.0,7.0,0
1899,-70.0,-274.0,7.0,0
1900,-68.0,-284.0,8.0,0
1901,-69.0,-290.0,12.0,0
1902,-72.0,-298.0,8.0,0
1903,-70.0,-303.0,7.0,0
1904,-67.0,-301.0,6.0,0
1905,-68.0,-301.0,5.0,0
1906,-70.0,-297.0,4.0,0
1907,-69.0,-290.0,5.0,0
1908,-68.0,-287.0,5.0,0
1909,-70.0,-279.0,3.0,0
1910,-66.0,-276.0,11.0,0
1911,-67.0,-270.0,11.0,0
1912,-66.0,-267.0,21.0,0
1913,-65.0,-263.0,13.0,0
1914,-58.0,-261.0,14.0,0
1915,-50.0,-259.0,13.0,0
1916,-45.0,-251.0,8.0,0
1917,-38.0,-252.0,7.0,0
1918,-33.0,-246.0,6.0,0
1919,-30.0,-247.0,5.0,0
1920,-29.0,-246.0,2.0,0
1921,-29.0,-247.0,8.0,0
1922,-28.0,-247.0,3.0,0
1923,-27.0,-247.0,6.0,0
1924,-26.0,-248.0,8.0,0
1925,-23.0,-249.0,3.0,0
1926,-25.0,-247.0,0.0,0
1927,-26.0,-247.0,-5.0,0
1928,-27.0,-249.0,-8.0,0
1929,-22.0,-249.0,-10.0,0
1930,-22.0,-249.0,-15.0,0
1931,-19.0,-253.0,-18.0,0
1932,-14.0,-255.0,-17.0,0
1933,-13.0,-254.0,-18.0,0
1934,-26.0,-271.0,-20.0,0
1935,-6.0,-258.0,-20.0,0
1936,0.0,-264.0,-26.0,0
1937,10.0,-265.0,-28.0,0
1938,14.0,-267.0,-22.0,0
1939,20.0,-268.0,-24.0,0
1940,24.0,-274.0,-26.0,0
1941,32.0,-276.0,-24.0,0
1942,40.0,-282.0,-23.0,0
1943,44.0,-287.0,-20.0,0
1944,45.0,-291.0,-18.0,0
1945,51.0,-297.0,-16.0,0
1946,52.0,-297.0,-17.0,0
1947,54.0,-301.0,-14.0,0
1948,60.0,-299.0,-12.0,0
1949,58.0,-298.0,-13.0,0
1950,58.0,-299.0,-9.0,0
1951,57.0,-291.0,-9.0,0
1952,53.0,-288.0,-8.0,0
1953,54.0,-281.0,-2.0,0
1954,49.0,-271.0,-8.0,0
1955,54.0,-271.0,-5.0,0
1956,44.0,-261.0,-1.0,0
1957,41.0,-251.0,-1.0,0
1958,35.0,-247.0,-3.0,0
1959,28.0,-243.0,-1.0,0
1960,29.0,-239.0,0.0,0
1961,23.0,-232.0,9.0,0
1962,19.0,-230.0,7.0,0
1963,17.0,-225.0,10.0,0
1964,11.0,-226.0,15.0,0
1965,6.0,-228.0,15.0,0
1966,4.0,-231.0,16.0,0
1967,2.0,-232.0,21.0,0
1968,2.0,-234.0,24.0,0
1969,6.0,-240.0,25.0,0
1970,6.0,-246.0,25.0,0
1971,10.0,-248.0,34.0,0
1972,10.0,-252.0,35.0,0
1973,9.0,-252.0,37.0,0
1974,15.0,-256.0,37.0,0
1975,16.0,-259.0,36.0,0
1976,17.0,-256.0,38.0,0
1977,15.0,-256.0,38.0,0
1978,20.0,-255.0,38.0,0
1979,22.0,-257.0,30.0,0
1980,22.0,-258.0,28.0,0
1981,19.0,-254.0,26.0,0
1982,19.0,-254.0,25.0,0
1983,23.0,-256.0,22.0,0
1984,22.0,-256.0,27.0,0
1985,22.0,-257.0,28.0,0
1986,26.0,-258.0,31.0,0
1987,29.0,-258.0,30.0,0
1988,28.0,-259.0,32.0,0
1989,34.0,-257.0,31.0,0
1990,31.0,-253.0,29.0,0
1991,34.0,-253.0,28.0,0
1992,36.0,-252.0,31.0,0
1993,33.0,-249.0,27.0,0
1994,33.0,-248.0,26.0,0
1995,33.0,-246.0,23.0,0
1996,30.0,-245.0,23.0,0
1997,32.0,-246.0,18.0,0
1998,28.0,-244.0,19.0,0
1999,20.0,-248.0,16.0,0
2000,28.0,-245.0,18.0,0
2001,27.0,-244.0,17.0,0
2002,27.0,-242.0,18.0,0
2003,28.0,-245.0,17.0,0
2004,26.0,-246.0,12.0,0
2005,29.0,-247.0,14.0,0
2006,33.0,-245.0,14.0,0
2007,33.0,-246.0,11.0,0
2008,30.0,-246.0,13.0,0
2009,34.0,-247.0,19.0,0
2010,32.0,-247.0,14.0,0
2011,32.0,-249.0,17.0,0
2012,36.0,-249.0,15.0,0
2013,32.0,-249.0,15.0,0
2014,33.0,-252.0,17.0,0
2015,32.0,-254.0,19.0,0
2016,34.0,-259.0,15.0,0
2017,33.0,-257.0,17.0,0
2018,33.0,-262.0,18.0,0
2019,32.0,-264.0,17.0,0
2020,32.0,-266.0,18.0,0
2021,25.0,-265.0,16.0,0
2022,29.0,-265.0,18.0,0
2023,29.0,-264.0,17.0,0
2024,28.0,-262.0,13.0,0
2025,25.0,-263.0,11.0,0
2026,26.0,-263.0,5.0,0
2027,21.0,-263.0,14.0,0
2028,20.0,-259.0,8.0,0
2029,18.0,-266.0,9.0,0
2030,15.0,-265.0,14.0,0
2031,10.0,-265.0,9.0,0
2032,7.0,-263.0,14.0,0
2033,10.0,-265.0,17.0,0
2034,6.0,-261.0,17.0,0
2035,4.0,-262.0,23.0,0
2036,1.0,-261.0,22.0,0
2037,0.0,-260.0,19.0,0
2038,0.0,-259.0,20.0,0
2039,-3.0,-257.0,26.0,0
2040,-8.0,-258.0,24.0,0
2041,-12.0,-254.0,23.0,0
2042,-15.0,-254.0,30.0,0
2043,-16.0,-255.0,26.0,0
2044,-19.0,-258.0,24.0,0
2045,-21.0,-258.0,25.0,0
2046,-21.0,-256.0,26.0,0
2047,-24.0,-256.0,29.0,0
2048,-23.0,-253.0,25.0,0
2049,-24.0,-255.0,22.0,0
2050,-25.0,-252.0,22.0,0
2051,-24.0,-253.0,26.0,0
2052,-22.0,-250.0,24.0,0
2053,-21.0,-249.0,25.0,0
2054,-20.0,-247.0,21.0,0
2055,-16.0,-248.0,21.0,0
2056,-17.0,-247.0,26.0,0
2057,-12.0,-246.0,21.0,0
2058,-9.0,-247.0,25.0,0
2059,-8.0,-249.0,27.0,0
2060,-3.0,-253.0,27.0,0
2061,-5.0,-250.0,29.0,0
2062,-2.0,-255.0,28.0,0
2063,-1.0,-256.0,31.0,0
2064,1.0,-263.0,40.0,0
2065,-2.0,-257.0,32.0,0
2066,0.0,-259.0,34.0,0
2067,0.0,-258.0,34.0,0
2068,-1.0,-260.0,34.0,0
2069,-3.0,-258.0,36.0,0
2070,0.0,-261.0,35.0,0
2071,-1.0,-256.0,35.0,0
2072,0.0,-257.0,36.0,0
2073,0.0,-256.0,34.0,0
2074,1.0,-252.0,37.0,0
2075,1.0,-252.0,39.0,0
2076,0.0,-252.0,39.0,0
2077,1.0,-249.0,41.0,0
2078,4.0,-252.0,39.0,0
2079,6.0,-251.0,42.0,0
2080,8.0,-252.0,42.0,0
2081,6.0,-251.0,41.0,0
2082,14.0,-250.0,44.0,0
2083,14.0,-251.0,44.0,0
2084,13.0,-251.0,43.0,0
2085,11.0,-250.0,43.0,0
2086,16.0,-248.0,46.0,0
2087,15.0,-251.0,45.0,0
2088,17.0,-251.0,44.0,0
2089,17.0,-247.0,43.0,0
2090,17.0,-249.0,41.0,0
2091,18.0,-250.0,41.0,0
2092,17.0,-250.0,43.0,0
2093,18.0,-249.0,40.0,0
2094,17.0,-249.0,41.0,0
2095,16.0,-248.0,36.0,0
2096,20.0,-250.0,44.0,0
2097,17.0,-251.0,36.0,0
2098,19.0,-251.0,41.0,0
2099,23.0,-251.0,38.0,0
2100,20.0,-251.0,42.0,0
2101,24.0,-254.0,40.0,0
2102,20.0,-248.0,42.0,0
2103,21.0,-250.0,40.0,0
2104,22.0,-248.0,36.0,0
2105,21.0,-249.0,41.0,0
2106,18.0,-248.0,40.0,0
2107,22.0,-248.0,41.0,0
2108,20.0,-248.0,34.0,0
2109,18.0,-247.0,36.0,0
2110,19.0,-250.0,35.0,0
2111,17.0,-247.0,36.0,0
2112,20.0,-248.0,39.0,0
2113,18.0,-248.0,38.0,0
2114,19.0,-248.0,40.0,0
2115,19.0,-249.0,39.0,0
2116,17.0,-253.0,38.0,0
2117,18.0,-249.0,40.0,0
2118,17.0,-251.0,33.0,0
2119,16.0,-253.0,34.0,0
2120,15.0,-251.0,35.0,0
2121,13.0,-250.0,38.0,0
2122,11.0,-252.0,38.0,0
2123,7.0,-252.0,36.0,0
2124,6.0,-251.0,38.0,0
2125,6.0,-255.0,35.0,0
2126,3.0,-251.0,37.0,0
2127,1.0,-248.0,43.0,0
2128,4.0,-252.0,38.0,0
2129,2.0,-253.0,37.0,0
2130,4.0,-252.0,40.0,0
2131,3.0,-253.0,43.0,0
2132,3.0,-249.0,39.0,0
2133,4.0,-249.0,39.0,0
2134,4.0,-249.0,37.0,0
2135,6.0,-252.0,40.0,0
2136,8.0,-251.0,41.0,0
2137,10.0,-254.0,39.0,0
2138,9.0,-251.0,39.0,0
2139,10.0,-251.0,38.0,0
2140,10.0,-253.0,36.0,0
2141,12.0,-255.0,43.0,0
2142,13.0,-249.0,42.0,0
2143,13.0,-253.0,40.0,0
2144,12.0,-254.0,41.0,0
2145,13.0,-249.0,40.0,0
2146,9.0,-255.0,42.0,0
2147,14.0,-253.0,39.0,0
2148,13.0,-251.0,39.0,0
2149,11.0,-255.0,40.0,0
2150,8.0,-252.0,34.0,0
2151,14.0,-250.0,36.0,0
2152,6.0,-255.0,35.0,0
2153,4.0,-256.0,36.0,0
2154,4.0,-255.0,34.0,0
2155,6.0,-250.0,35.0,0
2156,2.0,-252.0,39.0,0
2157,4.0,-252.0,41.0,0
2158,2.0,-253.0,36.0,0
2159,1.0,-252.0,37.0,0
2160,0.0,-249.0,38.0,0
2161,4.0,-248.0,40.0,0
2162,2.0,-251.0,35.0,0
2163,4.0,-248.0,38.0,0
2164,3.0,-250.0,39.0,0
2165,5.0,-250.0,39.0,0
2166,8.0,-250.0,40.0,0
2167,5.0,-251.0,41.0,0
2168,8.0,-249.0,37.0,0
2169,10.0,-252.0,37.0,0
2170,11.0,-252.0,37.0,0
2171,10.0,-250.0,38.0,0
2172,6.0,-243.0,33.0,0
2173,9.0,-251.0,38.0,0
2174,10.0,-249.0,40.0,0
2175,7.0,-251.0,36.0,0
2176,9.0,-251.0,33.0,0
2177,8.0,-254.0,31.0,0
2178,9.0,-252.0,37.0,0
2179,9.0,-252.0,34.0,0
2180,8.0,-251.0,38.0,0
2181,8.0,-251.0,36.0,0
2182,8.0,-253.0,38.0,0
2183,9.0,-253.0,42.0,0
2184,8.0,-250.0,41.0,0
2185,10.0,-252.0,38.0,0
2186,8.0,-251.0,38.0,0
2187,6.0,-247.0,37.0,0
2188,8.0,-252.0,37.0,0
2189,7.0,-253.0,35.0,0
2190,9.0,-251.0,36.0,0
2191,4.0,-253.0,36.0,0
2192,10.0,-251.0,37.0,0
2193,6.0,-249.0,38.0,0
2194,5.0,-250.0,37.0,0
2195,8.0,-249.0,34.0,0
2196,7.0,-250.0,35.0,0
2197,5.0,-250.0,35.0,0
2198,7.0,-251.0,39.0,0
2199,8.0,-251.0,35.0,0
2200,7.0,-250.0,39.0,0
2201,9.0,-251.0,39.0,0
2202,9.0,-251.0,35.0,0
2203,11.0,-249.0,42.0,0
2204,9.0,-249.0,37.0,0
2205,9.0,-249.0,40.0,0
2206,10.0,-252.0,35.0,0
2207,10.0,-252.0,34.0,0
2208,11.0,-251.0,32.0,0
2209,11.0,-251.0,35.0,0
2210,9.0,-249.0,36.0,0
2211,8.0,-252.0,37.0,0
2212,9.0,-250.0,34.0,0
2213,10.0,-254.0,27.0,0
2214,9.0,-251.0,34.0,0
2215,9.0,-252.0,36.0,0
2216,5.0,-253.0,32.0,0
2217,7.0,-251.0,35.0,0
2218,8.0,-253.0,35.0,0
2219,7.0,-251.0,35.0,0
2220,6.0,-251.0,35.0,0
2221,11.0,-253.0,36.0,0
2222,7.0,-251.0,39.0,0
2223,7.0,-251.0,36.0,0
2224,8.0,-251.0,36.0,0
2225,5.0,-252.0,35.0,0
2226,7.0,-252.0,34.0,0
2227,8.0,-251.0,34.0,0
2228,5.0,-253.0,32.0,0
2229,7.0,-254.0,33.0,0
2230,5.0,-252.0,30.0,0
2231,7.0,-253.0,34.0,0
2232,7.0,-251.0,33.0,0
2233,6.0,-255.0,36.0,0
2234,5.0,-255.0,36.0,0
2235,3.0,-255.0,42.0,0
2236,4.0,-254.0,36.0,0
2237,6.0,-255.0,38.0,0
2238,6.0,-254.0,34.0,0
2239,3.0,-252.0,39.0,0
2240,6.0,-254.0,33.0,0
2241,6.0,-251.0,34.0,0
2242,3.0,-253.0,33.0,0
2243,4.0,-251.0,32.0,0
2244,5.0,-252.0,35.0,0
2245,5.0,-251.0,36.0,0
2246,3.0,-250.0,33.0,0
2247,4.0,-252.0,33.0,0
2248,7.0,-252.0,31.0,0
2249,4.0,-249.0,37.0,0
2250,6.0,-252.0,37.0,0
2251,5.0,-251.0,32.0,0
2252,3.0,-255.0,36.0,0
2253,6.0,-253.0,31.0,0
2254,5.0,-250.0,32.0,0
2255,6.0,-249.0,31.0,0
2256,9.0,-250.0,30.0,0
2257,8.0,-253.0,29.0,0
2258,6.0,-253.0,32.0,0
2259,9.0,-254.0,31.0,0
2260,14.0,-250.0,34.0,0
2261,9.0,-254.0,33.0,0
2262,10.0,-255.0,29.0,0
2263,11.0,-256.0,26.0,0
2264,9.0,-253.0,29.0,0
2265,13.0,-260.0,31.0,0
2266,9.0,-253.0,28.0,0
2267,8.0,-255.0,27.0,0
2268,14.0,-257.0,26.0,0
2269,10.0,-254.0,29.0,0
2270,10.0,-254.0,30.0,0
2271,9.0,-255.0,29.0,0
2272,8.0,-252.0,27.0,0
2273,5.0,-252.0,27.0,0
2274,11.0,-251.0,29.0,0
2275,7.0,-252.0,27.0,0
2276,9.0,-251.0,32.0,0
2277,9.0,-250.0,27.0,0
2278,8.0,-252.0,28.0,0
2279,5.0,-256.0,29.0,0
2280,6.0,-257.0,31.0,0
2281,0.0,-253.0,25.0,0
2282,5.0,-256.0,30.0,0
2283,6.0,-261.0,28.0,0
2284,6.0,-258.0,27.0,0
2285,5.0,-255.0,28.0,0
2286,6.0,-258.0,28.0,0
2287,3.0,-255.0,31.0,0
2288,4.0,-253.0,28.0,0
2289,4.0,-257.0,29.0,0
2290,2.0,-249.0,27.0,0
2291,1.0,-253.0,31.0,0
2292,3.0,-249.0,32.0,0
2293,0.0,-251.0,28.0,0
2294,2.0,-252.0,31.0,0
2295,4.0,-253.0,32.0,0
2296,3.0,-252.0,37.0,0
2297,3.0,-254.0,33.0,0
2298,1.0,-252.0,30.0,0
2299,3.0,-252.0,30.0,0
2300,4.0,-255.0,32.0,0
2301,7.0,-255.0,34.0,0
2302,6.0,-254.0,31.0,0
2303,11.0,-252.0,24.0,0
2304,7.0,-250.0,31.0,0
2305,7.0,-255.0,29.0,0
2306,7.0,-252.0,32.0,0
2307,7.0,-254.0,28.0,0
2308,7.0,-254.0,24.0,0
2309,9.0,-251.0,31.0,0
2310,9.0,-255.0,29.0,0
2311,6.0,-254.0,31.0,0
2312,10.0,-252.0,29.0,0
2313,8.0,-253.0,32.0,0
2314,10.0,-250.0,28.0,0
2315,5.0,-252.0,28.0,0
2316,5.0,-255.0,27.0,0
2317,8.0,-248.0,31.0,0
2318,5.0,-253.0,31.0,0
2319,3.0,-252.0,28.0,0
2320,7.0,-249.0,29.0,0
2321,8.0,-250.0,29.0,0
2322,6.0,-252.0,29.0,0
2323,8.0,-250.0,28.0,0
2324,7.0,-251.0,28.0,0
2325,11.0,-253.0,25.0,0
2326,10.0,-254.0,30.0,0
2327,8.0,-256.0,33.0,0
2328,8.0,-253.0,30.0,0
2329,10.0,-255.0,33.0,0
2330,9.0,-257.0,35.0,0
2331,9.0,-255.0,29.0,0
2332,6.0,-257.0,30.0,0
2333,7.0,-255.0,32.0,0
2334,9.0,-254.0,31.0,0
2335,6.0,-255.0,31.0,0
2336,4.0,-254.0,32.0,0
2337,3.0,-251.0,33.0,0
2338,3.0,-253.0,31.0,0
2339,3.0,-253.0,29.0,0
2340,5.0,-251.0,32.0,0
2341,4.0,-254.0,28.0,0
2342,2.0,-251.0,30.0,0
2343,4.0,-250.0,34.0,0
2344,6.0,-252.0,32.0,0
2345,5.0,-251.0,28.0,0
2346,11.0,-250.0,24.0,0
2347,5.0,-250.0,33.0,0
2348,6.0,-250.0,32.0,0
2349,10.0,-251.0,29.0,0
2350,7.0,-252.0,30.0,0
2351,7.0,-252.0,31.0,0
2352,8.0,-252.0,34.0,0
2353,8.0,-252.0,28.0,0
2354,10.0,-252.0,30.0,0
2355,8.0,-253.0,32.0,0
2356,6.0,-253.0,29.0,0
2357,5.0,-252.0,31.0,0
2358,7.0,-253.0,33.0,0
2359,7.0,-253.0,32.0,0
2360,5.0,-251.0,32.0,0
2361,5.0,-253.0,33.0,0
2362,6.0,-253.0,32.0,0
2363,3.0,-254.0,33.0,0
2364,4.0,-253.0,32.0,0
2365,4.0,-254.0,33.0,0
2366,6.0,-254.0,28.0,0
2367,3.0,-254.0,30.0,0
2368,10.0,-255.0,37.0,0
2369,4.0,-251.0,29.0,0
2370,4.0,-252.0,28.0,0
2371,6.0,-253.0,32.0,0
2372,11.0,-256.0,27.0,0
2373,6.0,-252.0,29.0,0
2374,12.0,-255.0,30.0,0
2375,10.0,-252.0,32.0,0
2376,9.0,-253.0,34.0,0
2377,8.0,-253.0,32.0,0
2378,10.0,-253.0,32.0,0
2379,8.0,-256.0,35.0,0
2380,8.0,-251.0,28.0,0
2381,6.0,-255.0,31.0,0
2382,8.0,-253.0,32.0,0
2383,7.0,-253.0,30.0,0
2384,7.0,-255.0,29.0,0
2385,8.0,-253.0,30.0,0
2386,6.0,-252.0,35.0,0
2387,3.0,-252.0,30.0,0
2388,10.0,-253.0,32.0,0
2389,7.0,-250.0,33.0,0
2390,8.0,-259.0,30.0,0
2391,7.0,-251.0,29.0,0
2392,4.0,-252.0,31.0,0
2393,6.0,-254.0,35.0,0
2394,8.0,-253.0,35.0,0
2395,6.0,-254.0,33.0,0
2396,7.0,-253.0,34.0,0
2397,9.0,-253.0,31.0,0
2398,5.0,-253.0,31.0,0
2399,8.0,-252.0,34.0,0
