,accelerometer_x,accelerometer_y,accelerometer_z,fall
0,18.0,-248.0,-46.0,0
1,18.0,-244.0,-47.0,0
2,17.0,-243.0,-47.0,0
3,18.0,-245.0,-44.0,0
4,20.0,-244.0,-42.0,0
5,22.0,-245.0,-47.0,0
6,26.0,-238.0,-61.0,0
7,23.0,-227.0,-38.0,0
8,24.0,-248.0,-44.0,0
9,23.0,-248.0,-49.0,0
10,20.0,-248.0,-51.0,0
11,23.0,-251.0,-51.0,0
12,22.0,-249.0,-45.0,0
13,24.0,-249.0,-51.0,0
14,24.0,-254.0,-50.0,0
15,23.0,-253.0,-47.0,0
16,20.0,-257.0,-52.0,0
17,23.0,-255.0,-59.0,0
18,32.0,-255.0,-54.0,0
19,23.0,-257.0,-56.0,0
20,23.0,-256.0,-57.0,0
21,24.0,-254.0,-56.0,0
22,21.0,-259.0,-59.0,0
23,23.0,-258.0,-56.0,0
24,22.0,-259.0,-55.0,0
25,22.0,-256.0,-54.0,0
26,23.0,-257.0,-55.0,0
27,20.0,-256.0,-54.0,0
28,21.0,-256.0,-54.0,0
29,19.0,-256.0,-56.0,0
30,18.0,-255.0,-56.0,0
31,19.0,-255.0,-55.0,0
32,16.0,-252.0,-52.0,0
33,17.0,-256.0,-55.0,0
34,20.0,-253.0,-53.0,0
35,20.0,-254.0,-54.0,0
36,16.0,-253.0,-58.0,0
37,14.0,-253.0,-56.0,0
38,15.0,-255.0,-56.0,0
39,17.0,-255.0,-54.0,0
40,15.0,-257.0,-55.0,0
41,17.0,-258.0,-55.0,0
42,15.0,-255.0,-54.0,0
43,15.0,-253.0,-53.0,0
44,16.0,-254.0,-55.0,0
45,15.0,-253.0,-53.0,0
46,14.0,-254.0,-54.0,0
47,14.0,-254.0,-57.0,0
48,16.0,-252.0,-56.0,0
49,15.0,-253.0,-53.0,0
50,15.0,-251.0,-54.0,0
51,19.0,-254.0,-55.0,0
52,19.0,-253.0,-54.0,0
53,21.0,-251.0,-55.0,0
54,22.0,-252.0,-53.0,0
55,23.0,-250.0,-55.0,0
56,20.0,-251.0,-54.0,0
57,21.0,-252.0,-52.0,0
58,22.0,-250.0,-53.0,0
59,24.0,-249.0,-51.0,0
60,21.0,-252.0,-53.0,0
61,21.0,-248.0,-50.0,0
62,18.0,-249.0,-54.0,0
63,23.0,-249.0,-52.0,0
64,19.0,-248.0,-50.0,0
65,21.0,-250.0,-48.0,0
66,22.0,-252.0,-53.0,0
67,20.0,-249.0,-52.0,0
68,22.0,-252.0,-51.0,0
69,25.0,-253.0,-49.0,0
70,22.0,-251.0,-51.0,0
71,26.0,-253.0,-50.0,0
72,26.0,-251.0,-54.0,0
73,24.0,-252.0,-52.0,0
74,23.0,-253.0,-54.0,0
75,24.0,-250.0,-54.0,0
76,21.0,-247.0,-54.0,0
77,22.0,-247.0,-53.0,0
78,21.0,-248.0,-54.0,0
79,22.0,-250.0,-53.0,0
80,20.0,-246.0,-53.0,0
81,17.0,-250.0,-52.0,0
82,18.0,-249.0,-56.0,0
83,21.0,-249.0,-51.0,0
84,20.0,-249.0,-56.0,0
85,18.0,-248.0,-54.0,0
86,22.0,-254.0,-56.0,0
87,21.0,-250.0,-54.0,0
88,20.0,-253.0,-50.0,0
89,20.0,-254.0,-54.0,0
90,21.0,-254.0,-51.0,0
91,20.0,-255.0,-53.0,0
92,20.0,-254.0,-54.0,0
93,18.0,-252.0,-54.0,0
94,19.0,-252.0,-52.0,0
95,20.0,-254.0,-55.0,0
96,22.0,-256.0,-51.0,0
97,21.0,-252.0,-54.0,0
98,20.0,-253.0,-54.0,0
99,22.0,-256.0,-53.0,0
100,19.0,-252.0,-49.0,0
101,21.0,-255.0,-52.0,0
102,20.0,-255.0,-53.0,0
103,18.0,-253.0,-54.0,0
104,20.0,-255.0,-51.0,0
105,18.0,-252.0,-51.0,0
106,21.0,-252.0,-52.0,0
107,22.0,-251.0,-51.0,0
108,19.0,-252.0,-52.0,0
109,21.0,-248.0,-53.0,0
110,17.0,-248.0,-50.0,0
111,18.0,-245.0,-51.0,0
112,21.0,-253.0,-52.0,0
113,20.0,-252.0,-52.0,0
114,20.0,-250.0,-49.0,0
115,20.0,-251.0,-51.0,0
116,21.0,-251.0,-51.0,0
117,18.0,-251.0,-51.0,0
118,21.0,-253.0,-56.0,0
119,19.0,-252.0,-52.0,0
120,19.0,-250.0,-54.0,0
121,22.0,-250.0,-55.0,0
122,18.0,-252.0,-49.0,0
123,20.0,-255.0,-50.0,0
124,20.0,-251.0,-52.0,0
125,21.0,-251.0,-51.0,0
126,20.0,-252.0,-54.0,0
127,21.0,-251.0,-54.0,0
128,20.0,-252.0,-52.0,0
129,23.0,-251.0,-51.0,0
130,22.0,-251.0,-53.0,0
131,23.0,-252.0,-53.0,0
132,21.0,-251.0,-51.0,0
133,20.0,-250.0,-53.0,0
134,20.0,-251.0,-53.0,0
135,20.0,-249.0,-52.0,0
136,21.0,-254.0,-54.0,0
137,20.0,-253.0,-55.0,0
138,21.0,-250.0,-52.0,0
139,19.0,-253.0,-49.0,0
140,18.0,-252.0,-54.0,0
141,19.0,-249.0,-51.0,0
142,19.0,-252.0,-51.0,0
143,23.0,-253.0,-53.0,0
144,20.0,-251.0,-48.0,0
145,20.0,-251.0,-52.0,0
146,19.0,-251.0,-53.0,0
147,22.0,-250.0,-57.0,0
148,22.0,-248.0,-56.0,0
149,19.0,-250.0,-52.0,0
150,20.0,-253.0,-53.0,0
151,22.0,-251.0,-52.0,0
152,23.0,-251.0,-52.0,0
153,20.0,-252.0,-51.0,0
154,20.0,-254.0,-52.0,0
155,21.0,-252.0,-52.0,0
156,23.0,-256.0,-52.0,0
157,21.0,-252.0,-53.0,0
158,21.0,-255.0,-50.0,0
159,22.0,-255.0,-54.0,0
160,20.0,-253.0,-52.0,0
161,20.0,-252.0,-53.0,0
162,21.0,-254.0,-52.0,0
163,20.0,-253.0,-50.0,0
164,22.0,-252.0,-53.0,0
165,21.0,-250.0,-52.0,0
166,21.0,-252.0,-51.0,0
167,21.0,-251.0,-50.0,0
168,21.0,-252.0,-50.0,0
169,23.0,-252.0,-48.0,0
170,21.0,-245.0,-49.0,0
171,22.0,-249.0,-50.0,0
172,22.0,-249.0,-53.0,0
173,19.0,-248.0,-52.0,0
174,23.0,-251.0,-53.0,0
175,20.0,-250.0,-52.0,0
176,22.0,-251.0,-52.0,0
177,22.0,-252.0,-53.0,0
178,23.0,-249.0,-51.0,0
179,23.0,-251.0,-49.0,0
180,21.0,-254.0,-47.0,0
181,23.0,-251.0,-53.0,0
182,22.0,-249.0,-51.0,0
183,22.0,-252.0,-51.0,0
184,22.0,-252.0,-52.0,0
185,24.0,-250.0,-51.0,0
186,20.0,-249.0,-48.0,0
187,24.0,-250.0,-52.0,0
188,22.0,-255.0,-53.0,0
189,24.0,-251.0,-50.0,0
190,20.0,-253.0,-50.0,0
191,20.0,-252.0,-53.0,0
192,22.0,-254.0,-51.0,0
193,20.0,-252.0,-52.0,0
194,22.0,-253.0,-52.0,0
195,21.0,-252.0,-50.0,0
196,23.0,-253.0,-51.0,0
197,25.0,-250.0,-52.0,0
198,22.0,-251.0,-54.0,0
199,23.0,-251.0,-49.0,0
200,21.0,-251.0,-51.0,0
201,24.0,-252.0,-48.0,0
202,23.0,-249.0,-51.0,0
203,25.0,-250.0,-52.0,0
204,24.0,-252.0,-53.0,0
205,25.0,-250.0,-49.0,0
206,22.0,-249.0,-48.0,0
207,22.0,-253.0,-52.0,0
208,22.0,-250.0,-50.0,0
209,22.0,-252.0,-51.0,0
210,24.0,-252.0,-52.0,0
211,24.0,-254.0,-54.0,0
212,22.0,-252.0,-51.0,0
213,22.0,-254.0,-51.0,0
214,19.0,-253.0,-51.0,0
215,20.0,-253.0,-53.0,0
216,22.0,-253.0,-54.0,0
217,21.0,-256.0,-52.0,0
218,21.0,-257.0,-52.0,0
219,21.0,-255.0,-52.0,0
220,21.0,-253.0,-50.0,0
221,19.0,-253.0,-50.0,0
222,21.0,-250.0,-49.0,0
223,23.0,-249.0,-52.0,0
224,18.0,-251.0,-52.0,0
225,22.0,-251.0,-53.0,0
226,23.0,-252.0,-53.0,0
227,22.0,-253.0,-53.0,0
228,21.0,-251.0,-49.0,0
229,23.0,-252.0,-50.0,0
230,22.0,-255.0,-48.0,0
231,18.0,-251.0,-48.0,0
232,23.0,-253.0,-50.0,0
233,19.0,-249.0,-45.0,0
234,20.0,-252.0,-49.0,0
235,23.0,-252.0,-50.0,0
236,24.0,-252.0,-50.0,0
237,22.0,-254.0,-49.0,0
238,22.0,-251.0,-52.0,0
239,21.0,-252.0,-48.0,0
240,22.0,-252.0,-49.0,0
241,22.0,-252.0,-49.0,0
242,21.0,-253.0,-47.0,0
243,20.0,-252.0,-47.0,0
244,21.0,-253.0,-49.0,0
245,18.0,-253.0,-51.0,0
246,16.0,-250.0,-47.0,0
247,19.0,-253.0,-50.0,0
248,20.0,-250.0,-46.0,0
249,22.0,-252.0,-48.0,0
250,19.0,-249.0,-50.0,0
251,21.0,-249.0,-47.0,0
252,20.0,-249.0,-50.0,0
253,19.0,-251.0,-47.0,0
254,22.0,-247.0,-55.0,0
255,22.0,-249.0,-51.0,0
256,22.0,-250.0,-50.0,0
257,20.0,-249.0,-48.0,0
258,21.0,-254.0,-50.0,0
259,20.0,-252.0,-46.0,0
260,22.0,-252.0,-51.0,0
261,19.0,-253.0,-49.0,0
262,18.0,-251.0,-49.0,0
263,24.0,-251.0,-54.0,0
264,22.0,-253.0,-48.0,0
265,19.0,-250.0,-48.0,0
266,24.0,-254.0,-52.0,0
267,18.0,-253.0,-51.0,0
268,21.0,-252.0,-49.0,0
269,20.0,-249.0,-50.0,0
270,19.0,-252.0,-52.0,0
271,21.0,-252.0,-51.0,0
272,18.0,-250.0,-53.0,0
273,22.0,-253.0,-55.0,0
274,21.0,-253.0,-54.0,0
275,21.0,-254.0,-53.0,0
276,18.0,-253.0,-53.0,0
277,22.0,-251.0,-51.0,0
278,21.0,-251.0,-51.0,0
279,22.0,-249.0,-55.0,0
280,21.0,-252.0,-51.0,0
281,23.0,-251.0,-47.0,0
282,22.0,-253.0,-51.0,0
283,21.0,-252.0,-49.0,0
284,23.0,-252.0,-52.0,0
285,22.0,-255.0,-49.0,0
286,20.0,-252.0,-50.0,0
287,19.0,-252.0,-53.0,0
288,21.0,-252.0,-51.0,0
289,21.0,-254.0,-51.0,0
290,20.0,-255.0,-52.0,0
291,22.0,-256.0,-51.0,0
292,21.0,-254.0,-54.0,0
293,22.0,-254.0,-53.0,0
294,22.0,-255.0,-53.0,0
295,22.0,-254.0,-52.0,0
296,20.0,-253.0,-51.0,0
297,21.0,-251.0,-53.0,0
298,24.0,-251.0,-51.0,0
299,21.0,-253.0,-49.0,0
300,24.0,-255.0,-51.0,0
301,22.0,-253.0,-49.0,0
302,25.0,-252.0,-54.0,0
303,22.0,-252.0,-53.0,0
304,25.0,-252.0,-47.0,0
305,24.0,-254.0,-50.0,0
306,22.0,-251.0,-49.0,0
307,24.0,-252.0,-49.0,0
308,21.0,-251.0,-53.0,0
309,22.0,-250.0,-51.0,0
310,20.0,-250.0,-52.0,0
311,23.0,-249.0,-49.0,0
312,21.0,-251.0,-55.0,0
313,20.0,-251.0,-53.0,0
314,23.0,-252.0,-48.0,0
315,22.0,-254.0,-52.0,0
316,23.0,-254.0,-50.0,0
317,21.0,-253.0,-51.0,0
318,21.0,-251.0,-49.0,0
319,23.0,-249.0,-49.0,0
320,22.0,-251.0,-54.0,0
321,24.0,-254.0,-47.0,0
322,23.0,-252.0,-48.0,0
323,23.0,-251.0,-53.0,0
324,21.0,-249.0,-50.0,0
325,22.0,-250.0,-50.0,0
326,21.0,-249.0,-49.0,0
327,24.0,-251.0,-50.0,0
328,19.0,-247.0,-50.0,0
329,24.0,-250.0,-50.0,0
330,25.0,-251.0,-51.0,0
331,23.0,-253.0,-52.0,0
332,21.0,-252.0,-51.0,0
333,22.0,-254.0,-50.0,0
334,21.0,-254.0,-52.0,0
335,21.0,-255.0,-50.0,0
336,24.0,-253.0,-49.0,0
337,25.0,-255.0,-52.0,0
338,23.0,-251.0,-52.0,0
339,24.0,-252.0,-56.0,0
340,23.0,-254.0,-52.0,0
341,23.0,-254.0,-52.0,0
342,21.0,-250.0,-51.0,0
343,24.0,-255.0,-49.0,0
344,23.0,-251.0,-51.0,0
345,23.0,-251.0,-49.0,0
346,23.0,-249.0,-50.0,0
347,22.0,-250.0,-52.0,0
348,25.0,-253.0,-50.0,0
349,25.0,-254.0,-49.0,0
350,22.0,-251.0,-50.0,0
351,23.0,-249.0,-50.0,0
352,22.0,-250.0,-52.0,0
353,24.0,-252.0,-55.0,0
354,21.0,-247.0,-50.0,0
355,23.0,-252.0,-50.0,0
356,25.0,-251.0,-53.0,0
357,22.0,-251.0,-52.0,0
358,24.0,-250.0,-50.0,0
359,21.0,-254.0,-50.0,0
360,19.0,-253.0,-49.0,0
361,22.0,-255.0,-48.0,0
362,23.0,-253.0,-50.0,0
363,21.0,-252.0,-53.0,0
364,22.0,-254.0,-52.0,0
365,22.0,-254.0,-49.0,0
366,22.0,-254.0,-52.0,0
367,20.0,-252.0,-54.0,0
368,22.0,-255.0,-52.0,0
369,23.0,-253.0,-51.0,0
370,22.0,-254.0,-55.0,0
371,23.0,-252.0,-56.0,0
372,21.0,-251.0,-55.0,0
373,21.0,-249.0,-55.0,0
374,20.0,-254.0,-54.0,0
375,24.0,-253.0,-51.0,0
376,22.0,-252.0,-50.0,0
377,23.0,-254.0,-53.0,0
378,21.0,-253.0,-48.0,0
379,24.0,-255.0,-49.0,0
380,22.0,-255.0,-52.0,0
381,25.0,-252.0,-44.0,0
382,22.0,-250.0,-49.0,0
383,19.0,-251.0,-48.0,0
384,23.0,-253.0,-47.0,0
385,21.0,-251.0,-50.0,0
386,19.0,-253.0,-49.0,0
387,23.0,-254.0,-50.0,0
388,24.0,-252.0,-48.0,0
389,23.0,-252.0,-50.0,0
390,22.0,-251.0,-48.0,0
391,17.0,-250.0,-50.0,0
392,19.0,-253.0,-53.0,0
393,21.0,-253.0,-51.0,0
394,21.0,-252.0,-52.0,0
395,20.0,-251.0,-47.0,0
396,18.0,-254.0,-49.0,0
397,21.0,-255.0,-50.0,0
398,21.0,-253.0,-50.0,0
399,21.0,-256.0,-51.0,0
400,20.0,-255.0,-50.0,0
401,22.0,-254.0,-53.0,0
402,19.0,-250.0,-48.0,0
403,16.0,-252.0,-50.0,0
404,21.0,-250.0,-50.0,0
405,19.0,-254.0,-52.0,0
406,18.0,-251.0,-48.0,0
407,18.0,-250.0,-49.0,0
408,19.0,-250.0,-50.0,0
409,19.0,-252.0,-51.0,0
410,16.0,-251.0,-51.0,0
411,16.0,-249.0,-50.0,0
412,17.0,-251.0,-51.0,0
413,22.0,-254.0,-47.0,0
414,20.0,-253.0,-51.0,0
415,23.0,-254.0,-49.0,0
416,19.0,-251.0,-51.0,0
417,19.0,-251.0,-54.0,0
418,21.0,-250.0,-53.0,0
419,23.0,-252.0,-52.0,0
420,22.0,-253.0,-54.0,0
421,24.0,-252.0,-55.0,0
422,26.0,-254.0,-54.0,0
423,22.0,-254.0,-55.0,0
424,25.0,-254.0,-54.0,0
425,23.0,-255.0,-54.0,0
426,23.0,-255.0,-55.0,0
427,24.0,-255.0,-54.0,0
428,22.0,-257.0,-55.0,0
429,23.0,-256.0,-55.0,0
430,22.0,-256.0,-55.0,0
431,23.0,-253.0,-56.0,0
432,22.0,-256.0,-55.0,0
433,21.0,-253.0,-55.0,0
434,23.0,-252.0,-56.0,0
435,19.0,-252.0,-53.0,0
436,21.0,-251.0,-55.0,0
437,19.0,-251.0,-55.0,0
438,22.0,-249.0,-53.0,0
439,24.0,-254.0,-54.0,0
440,18.0,-252.0,-51.0,0
441,21.0,-249.0,-51.0,0
442,21.0,-250.0,-53.0,0
443,21.0,-251.0,-48.0,0
444,22.0,-250.0,-54.0,0
445,21.0,-251.0,-52.0,0
446,19.0,-249.0,-49.0,0
447,21.0,-252.0,-54.0,0
448,18.0,-252.0,-51.0,0
449,21.0,-254.0,-52.0,0
450,21.0,-253.0,-46.0,0
451,22.0,-250.0,-50.0,0
452,22.0,-252.0,-53.0,0
453,21.0,-254.0,-50.0,0
454,23.0,-254.0,-53.0,0
455,21.0,-252.0,-50.0,0
456,21.0,-248.0,-53.0,0
457,21.0,-251.0,-51.0,0
458,22.0,-253.0,-50.0,0
459,23.0,-250.0,-50.0,0
460,22.0,-252.0,-51.0,0
461,23.0,-253.0,-51.0,0
462,20.0,-251.0,-49.0,0
463,25.0,-254.0,-50.0,0
464,22.0,-252.0,-47.0,0
465,23.0,-253.0,-49.0,0
466,24.0,-253.0,-52.0,0
467,23.0,-254.0,-54.0,0
468,23.0,-253.0,-51.0,0
469,20.0,-249.0,-52.0,0
470,20.0,-250.0,-49.0,0
471,20.0,-251.0,-53.0,0
472,23.0,-252.0,-50.0,0
473,22.0,-250.0,-53.0,0
474,22.0,-247.0,-51.0,0
475,22.0,-251.0,-47.0,0
476,21.0,-251.0,-52.0,0
477,19.0,-248.0,-50.0,0
478,21.0,-251.0,-50.0,0
479,23.0,-249.0,-52.0,0
480,21.0,-252.0,-53.0,0
481,22.0,-251.0,-51.0,0
482,20.0,-249.0,-47.0,0
483,22.0,-253.0,-50.0,0
484,22.0,-254.0,-53.0,0
485,22.0,-250.0,-47.0,0
486,18.0,-252.0,-53.0,0
487,16.0,-253.0,-51.0,0
488,18.0,-252.0,-54.0,0
489,21.0,-253.0,-50.0,0
490,19.0,-251.0,-51.0,0
491,21.0,-254.0,-50.0,0
492,20.0,-254.0,-51.0,0
493,22.0,-255.0,-50.0,0
494,18.0,-251.0,-50.0,0
495,20.0,-252.0,-50.0,0
496,19.0,-250.0,-51.0,0
497,20.0,-253.0,-55.0,0
498,23.0,-251.0,-50.0,0
499,20.0,-248.0,-50.0,0
500,20.0,-252.0,-51.0,0
501,20.0,-251.0,-53.0,0
502,21.0,-252.0,-54.0,0
503,24.0,-254.0,-56.0,0
504,21.0,-250.0,-53.0,0
505,22.0,-250.0,-52.0,0
506,23.0,-255.0,-50.0,0
507,21.0,-251.0,-52.0,0
508,21.0,-254.0,-51.0,0
509,20.0,-254.0,-53.0,0
510,24.0,-252.0,-53.0,0
511,22.0,-251.0,-54.0,0
512,26.0,-256.0,-53.0,0
513,18.0,-251.0,-53.0,0
514,21.0,-251.0,-54.0,0
515,23.0,-255.0,-53.0,0
516,21.0,-255.0,-54.0,0
517,22.0,-253.0,-54.0,0
518,20.0,-254.0,-54.0,0
519,19.0,-252.0,-51.0,0
520,21.0,-253.0,-51.0,0
521,22.0,-253.0,-53.0,0
522,23.0,-253.0,-54.0,0
523,22.0,-251.0,-54.0,0
524,20.0,-249.0,-55.0,0
525,18.0,-251.0,-53.0,0
526,20.0,-251.0,-54.0,0
527,20.0,-250.0,-56.0,0
528,23.0,-247.0,-53.0,0
529,21.0,-252.0,-52.0,0
530,21.0,-253.0,-55.0,0
531,22.0,-252.0,-53.0,0
532,21.0,-251.0,-52.0,0
533,21.0,-253.0,-50.0,0
534,19.0,-250.0,-53.0,0
535,23.0,-256.0,-52.0,0
536,21.0,-254.0,-55.0,0
537,22.0,-257.0,-52.0,0
538,20.0,-253.0,-52.0,0
539,19.0,-254.0,-55.0,0
540,17.0,-252.0,-53.0,0
541,22.0,-251.0,-52.0,0
542,19.0,-252.0,-54.0,0
543,18.0,-253.0,-52.0,0
544,21.0,-255.0,-53.0,0
545,20.0,-255.0,-53.0,0
546,20.0,-253.0,-51.0,0
547,23.0,-253.0,-55.0,0
548,19.0,-250.0,-52.0,0
549,20.0,-251.0,-47.0,0
550,19.0,-250.0,-54.0,0
551,24.0,-251.0,-53.0,0
552,23.0,-249.0,-52.0,0
553,22.0,-250.0,-53.0,0
554,20.0,-249.0,-54.0,0
555,22.0,-249.0,-54.0,0
556,22.0,-249.0,-53.0,0
557,23.0,-250.0,-56.0,0
558,19.0,-248.0,-55.0,0
559,21.0,-252.0,-52.0,0
560,24.0,-254.0,-56.0,0
561,23.0,-252.0,-55.0,0
562,21.0,-250.0,-54.0,0
563,20.0,-250.0,-51.0,0
564,21.0,-254.0,-52.0,0
565,18.0,-252.0,-56.0,0
566,21.0,-252.0,-51.0,0
567,24.0,-256.0,-53.0,0
568,20.0,-252.0,-55.0,0
569,20.0,-251.0,-54.0,0
570,24.0,-251.0,-58.0,0
571,20.0,-252.0,-54.0,0
572,21.0,-249.0,-54.0,0
573,25.0,-253.0,-57.0,0
574,25.0,-249.0,-55.0,0
575,25.0,-249.0,-57.0,0
576,28.0,-254.0,-56.0,0
577,25.0,-250.0,-55.0,0
578,26.0,-251.0,-61.0,0
579,25.0,-251.0,-56.0,0
580,25.0,-252.0,-58.0,0
581,26.0,-252.0,-58.0,0
582,28.0,-253.0,-56.0,0
583,26.0,-253.0,-57.0,0
584,27.0,-251.0,-55.0,0
585,27.0,-253.0,-61.0,0
586,24.0,-250.0,-59.0,0
587,23.0,-250.0,-58.0,0
588,29.0,-253.0,-60.0,0
589,23.0,-253.0,-63.0,0
590,24.0,-252.0,-62.0,0
591,24.0,-252.0,-60.0,0
592,24.0,-253.0,-60.0,0
593,27.0,-256.0,-60.0,0
594,24.0,-252.0,-60.0,0
595,26.0,-253.0,-61.0,0
596,20.0,-257.0,-62.0,0
597,22.0,-254.0,-66.0,0
598,22.0,-255.0,-62.0,0
599,25.0,-255.0,-65.0,0
600,22.0,-255.0,-57.0,0
601,24.0,-252.0,-60.0,0
602,24.0,-255.0,-58.0,0
603,19.0,-250.0,-59.0,0
604,20.0,-249.0,-58.0,0
605,24.0,-249.0,-60.0,0
606,23.0,-247.0,-56.0,0
607,22.0,-245.0,-56.0,0
608,21.0,-241.0,-56.0,0
609,27.0,-246.0,-58.0,0
610,25.0,-245.0,-56.0,0
611,27.0,-245.0,-53.0,0
612,28.0,-244.0,-57.0,0
613,23.0,-244.0,-57.0,0
614,26.0,-246.0,-59.0,0
615,27.0,-246.0,-60.0,0
616,26.0,-245.0,-60.0,0
617,27.0,-247.0,-61.0,0
618,26.0,-248.0,-63.0,0
619,23.0,-245.0,-64.0,0
620,24.0,-244.0,-68.0,0
621,25.0,-247.0,-69.0,0
622,26.0,-245.0,-70.0,0
623,28.0,-246.0,-73.0,0
624,26.0,-242.0,-78.0,0
625,26.0,-244.0,-80.0,0
626,28.0,-244.0,-86.0,0
627,26.0,-243.0,-82.0,0
628,27.0,-242.0,-83.0,0
629,26.0,-242.0,-86.0,0
630,28.0,-242.0,-84.0,0
631,31.0,-242.0,-86.0,0
632,30.0,-239.0,-87.0,0
633,32.0,-237.0,-86.0,0
634,31.0,-234.0,-86.0,0
635,31.0,-230.0,-86.0,0
636,31.0,-229.0,-82.0,0
637,31.0,-223.0,-85.0,0
638,33.0,-221.0,-82.0,0
639,32.0,-216.0,-76.0,0
640,31.0,-213.0,-77.0,0
641,31.0,-210.0,-77.0,0
642,35.0,-209.0,-74.0,0
643,32.0,-203.0,-74.0,0
644,33.0,-202.0,-74.0,0
645,32.0,-196.0,-71.0,0
646,33.0,-195.0,-71.0,0
647,33.0,-196.0,-75.0,0
648,31.0,-193.0,-74.0,0
649,31.0,-186.0,-73.0,0
650,29.0,-185.0,-81.0,0
651,30.0,-185.0,-77.0,0
652,27.0,-181.0,-79.0,0
653,31.0,-181.0,-80.0,0
654,30.0,-181.0,-80.0,0
655,28.0,-179.0,-79.0,0
656,27.0,-176.0,-75.0,0
657,25.0,-175.0,-74.0,0
658,24.0,-173.0,-73.0,0
659,20.0,-175.0,-76.0,0
660,21.0,-173.0,-81.0,0
661,21.0,-172.0,-83.0,0
662,21.0,-170.0,-83.0,0
663,21.0,-166.0,-81.0,0
664,23.0,-169.0,-81.0,0
665,28.0,-172.0,-77.0,0
666,33.0,-175.0,-82.0,0
667,33.0,-176.0,-79.0,0
668,36.0,-180.0,-79.0,0
669,37.0,-184.0,-79.0,0
670,36.0,-185.0,-86.0,0
671,34.0,-188.0,-84.0,0
672,33.0,-193.0,-88.0,0
673,32.0,-197.0,-96.0,0
674,29.0,-196.0,-99.0,0
675,25.0,-198.0,-97.0,0
676,23.0,-199.0,-98.0,0
677,16.0,-201.0,-103.0,0
678,12.0,-201.0,-105.0,0
679,9.0,-199.0,-106.0,0
680,12.0,-196.0,-109.0,0
681,10.0,-197.0,-117.0,0
682,13.0,-194.0,-120.0,0
683,9.0,-192.0,-121.0,0
684,11.0,-189.0,-116.0,0
685,8.0,-189.0,-121.0,0
686,5.0,-187.0,-114.0,0
687,5.0,-189.0,-104.0,0
688,6.0,-194.0,-102.0,0
689,6.0,-191.0,-87.0,0
690,7.0,-191.0,-89.0,0
691,5.0,-187.0,-87.0,0
692,7.0,-188.0,-86.0,0
693,9.0,-182.0,-85.0,0
694,13.0,-182.0,-84.0,0
695,14.0,-174.0,-86.0,0
696,16.0,-170.0,-89.0,0
697,21.0,-168.0,-92.0,0
698,26.0,-164.0,-91.0,0
699,26.0,-159.0,-101.0,0
700,31.0,-161.0,-97.0,0
701,35.0,-161.0,-96.0,0
702,38.0,-163.0,-94.0,0
703,37.0,-170.0,-94.0,0
704,42.0,-179.0,-92.0,0
705,39.0,-185.0,-89.0,0
706,35.0,-189.0,-86.0,0
707,34.0,-197.0,-89.0,0
708,35.0,-205.0,-92.0,0
709,33.0,-208.0,-95.0,0
710,29.0,-216.0,-101.0,0
711,26.0,-217.0,-107.0,0
712,22.0,-217.0,-116.0,0
713,19.0,-216.0,-129.0,0
714,23.0,-218.0,-135.0,0
715,21.0,-219.0,-141.0,0
716,20.0,-214.0,-151.0,0
717,22.0,-215.0,-154.0,0
718,22.0,-212.0,-156.0,0
719,18.0,-209.0,-156.0,0
720,19.0,-209.0,-157.0,0
721,20.0,-213.0,-155.0,0
722,19.0,-215.0,-148.0,0
723,18.0,-216.0,-152.0,0
724,20.0,-220.0,-148.0,0
725,22.0,-215.0,-151.0,0
726,21.0,-215.0,-158.0,0
727,22.0,-213.0,-162.0,0
728,26.0,-215.0,-167.0,0
729,30.0,-214.0,-166.0,0
730,34.0,-215.0,-169.0,0
731,39.0,-217.0,-167.0,0
732,41.0,-222.0,-168.0,0
733,36.0,-223.0,-171.0,0
734,43.0,-229.0,-155.0,0
735,38.0,-234.0,-150.0,0
736,40.0,-225.0,-164.0,0
737,45.0,-231.0,-141.0,0
738,37.0,-220.0,-161.0,0
739,29.0,-226.0,-154.0,0
740,28.0,-228.0,-150.0,0
741,25.0,-227.0,-158.0,0
742,25.0,-228.0,-164.0,0
743,23.0,-226.0,-169.0,0
744,22.0,-227.0,-178.0,0
745,21.0,-227.0,-185.0,0
746,25.0,-226.0,-192.0,0
747,24.0,-227.0,-196.0,0
748,26.0,-225.0,-202.0,0
749,24.0,-226.0,-198.0,0
750,26.0,-223.0,-200.0,0
751,29.0,-222.0,-196.0,0
752,28.0,-224.0,-192.0,0
753,33.0,-228.0,-186.0,0
754,36.0,-224.0,-185.0,0
755,37.0,-225.0,-179.0,0
756,39.0,-227.0,-182.0,0
757,40.0,-228.0,-181.0,0
758,38.0,-228.0,-176.0,0
759,37.0,-230.0,-178.0,0
760,38.0,-232.0,-182.0,0
761,35.0,-233.0,-185.0,0
762,35.0,-236.0,-189.0,0
763,32.0,-236.0,-190.0,0
764,30.0,-238.0,-196.0,0
765,29.0,-237.0,-200.0,0
766,28.0,-239.0,-208.0,0
767,23.0,-234.0,-208.0,0
768,26.0,-231.0,-205.0,0
769,28.0,-231.0,-208.0,0
770,27.0,-227.0,-204.0,0
771,30.0,-221.0,-199.0,0
772,27.0,-219.0,-194.0,0
773,32.0,-218.0,-187.0,0
774,34.0,-214.0,-178.0,0
775,36.0,-213.0,-172.0,0
776,33.0,-210.0,-167.0,0
777,35.0,-209.0,-160.0,0
778,35.0,-210.0,-158.0,0
779,36.0,-210.0,-153.0,0
780,34.0,-208.0,-154.0,0
781,37.0,-214.0,-155.0,0
782,38.0,-210.0,-162.0,0
783,37.0,-209.0,-168.0,0
784,34.0,-212.0,-167.0,0
785,33.0,-227.0,-173.0,0
786,33.0,-225.0,-178.0,0
787,36.0,-227.0,-183.0,0
788,34.0,-226.0,-182.0,0
789,32.0,-225.0,-177.0,0
790,33.0,-222.0,-173.0,0
791,30.0,-221.0,-164.0,0
792,29.0,-219.0,-157.0,0
793,26.0,-218.0,-148.0,0
794,24.0,-216.0,-139.0,0
795,25.0,-212.0,-135.0,0
796,22.0,-209.0,-133.0,0
797,25.0,-209.0,-132.0,0
798,28.0,-210.0,-127.0,0
799,25.0,-214.0,-125.0,0
800,32.0,-216.0,-140.0,0
801,29.0,-220.0,-142.0,0
802,35.0,-226.0,-149.0,0
803,36.0,-226.0,-161.0,0
804,39.0,-232.0,-160.0,0
805,39.0,-234.0,-167.0,0
806,37.0,-236.0,-170.0,0
807,37.0,-239.0,-168.0,0
808,34.0,-234.0,-167.0,0
809,30.0,-231.0,-165.0,0
810,32.0,-230.0,-158.0,0
811,26.0,-228.0,-153.0,0
812,27.0,-227.0,-143.0,0
813,26.0,-226.0,-139.0,0
814,20.0,-224.0,-131.0,0
815,19.0,-224.0,-130.0,0
816,22.0,-220.0,-132.0,0
817,22.0,-225.0,-132.0,0
818,25.0,-224.0,-133.0,0
819,28.0,-225.0,-138.0,0
820,30.0,-232.0,-137.0,0
821,34.0,-229.0,-145.0,0
822,35.0,-230.0,-152.0,0
823,38.0,-235.0,-151.0,0
824,40.0,-238.0,-154.0,0
825,41.0,-234.0,-151.0,0
826,41.0,-232.0,-153.0,0
827,45.0,-234.0,-154.0,0
828,42.0,-234.0,-157.0,0
829,39.0,-233.0,-151.0,0
830,38.0,-234.0,-151.0,0
831,31.0,-233.0,-146.0,0
832,26.0,-233.0,-143.0,0
833,27.0,-234.0,-139.0,0
834,22.0,-234.0,-140.0,0
835,22.0,-237.0,-135.0,0
836,23.0,-238.0,-141.0,0
837,22.0,-239.0,-137.0,0
838,25.0,-238.0,-138.0,0
839,24.0,-236.0,-135.0,0
840,29.0,-238.0,-138.0,0
841,35.0,-240.0,-137.0,0
842,37.0,-237.0,-139.0,0
843,38.0,-238.0,-141.0,0
844,34.0,-240.0,-136.0,0
845,38.0,-239.0,-137.0,0
846,36.0,-235.0,-132.0,0
847,32.0,-233.0,-132.0,0
848,37.0,-235.0,-133.0,0
849,37.0,-227.0,-128.0,0
850,33.0,-224.0,-127.0,0
851,33.0,-221.0,-129.0,0
852,31.0,-221.0,-126.0,0
853,32.0,-221.0,-123.0,0
854,26.0,-219.0,-120.0,0
855,29.0,-224.0,-118.0,0
856,29.0,-225.0,-110.0,0
857,26.0,-226.0,-106.0,0
858,25.0,-229.0,-106.0,0
859,27.0,-229.0,-109.0,0
860,27.0,-231.0,-107.0,0
861,30.0,-231.0,-104.0,0
862,32.0,-237.0,-104.0,0
863,37.0,-247.0,-105.0,0
864,37.0,-254.0,-94.0,0
865,37.0,-263.0,-97.0,0
866,37.0,-282.0,-94.0,0
867,33.0,-298.0,-91.0,0
868,29.0,-316.0,-90.0,0
869,28.0,-333.0,-91.0,0
870,28.0,-349.0,-108.0,0
871,28.0,-360.0,-117.0,0
872,28.0,-366.0,-134.0,0
873,33.0,-373.0,-154.0,0
874,36.0,-376.0,-173.0,0
875,39.0,-373.0,-192.0,0
876,41.0,-370.0,-200.0,0
877,47.0,-363.0,-201.0,0
878,49.0,-350.0,-200.0,0
879,46.0,-327.0,-187.0,0
880,41.0,-314.0,-176.0,0
881,34.0,-291.0,-155.0,0
882,31.0,-282.0,-133.0,0
883,21.0,-266.0,-111.0,0
884,16.0,-257.0,-97.0,0
885,12.0,-250.0,-75.0,0
886,9.0,-238.0,-53.0,0
887,6.0,-229.0,-43.0,0
888,2.0,-218.0,-31.0,0
889,0.0,-213.0,-27.0,0
890,-3.0,-210.0,-25.0,0
891,-4.0,-212.0,-28.0,0
892,-7.0,-214.0,-33.0,0
893,-6.0,-221.0,-35.0,0
894,-6.0,-231.0,-43.0,0
895,-4.0,-234.0,-53.0,0
896,-2.0,-239.0,-63.0,0
897,1.0,-242.0,-67.0,0
898,5.0,-246.0,-68.0,0
899,9.0,-246.0,-75.0,0
900,12.0,-248.0,-74.0,0
901,18.0,-250.0,-70.0,0
902,20.0,-249.0,-69.0,0
903,30.0,-246.0,-69.0,0
904,38.0,-242.0,-63.0,0
905,44.0,-244.0,-68.0,0
906,44.0,-241.0,-70.0,0
907,44.0,-237.0,-75.0,0
908,46.0,-235.0,-77.0,0
909,44.0,-233.0,-80.0,0
910,55.0,-232.0,-83.0,0
911,53.0,-230.0,-83.0,0
912,54.0,-230.0,-84.0,0
913,53.0,-230.0,-83.0,0
914,53.0,-230.0,-84.0,0
915,49.0,-232.0,-85.0,0
916,52.0,-233.0,-87.0,0
917,51.0,-235.0,-83.0,0
918,51.0,-241.0,-87.0,0
919,44.0,-244.0,-85.0,0
920,39.0,-248.0,-84.0,0
921,36.0,-245.0,-85.0,0
922,36.0,-253.0,-83.0,0
923,37.0,-254.0,-77.0,0
924,37.0,-255.0,-83.0,0
925,36.0,-259.0,-74.0,0
926,33.0,-261.0,-76.0,0
927,31.0,-263.0,-71.0,0
928,35.0,-265.0,-66.0,0
929,33.0,-266.0,-65.0,0
930,31.0,-268.0,-57.0,0
931,30.0,-268.0,-56.0,0
932,24.0,-264.0,-49.0,0
933,25.0,-261.0,-48.0,0
934,19.0,-260.0,-40.0,0
935,20.0,-261.0,-36.0,0
936,14.0,-252.0,-41.0,0
937,16.0,-251.0,-36.0,0
938,11.0,-247.0,-36.0,0
939,12.0,-240.0,-43.0,0
940,11.0,-235.0,-43.0,0
941,9.0,-229.0,-50.0,0
942,12.0,-225.0,-49.0,0
943,15.0,-223.0,-56.0,0
944,14.0,-220.0,-62.0,0
945,18.0,-219.0,-58.0,0
946,19.0,-221.0,-62.0,0
947,19.0,-225.0,-59.0,0
948,21.0,-233.0,-58.0,0
949,23.0,-235.0,-59.0,0
950,24.0,-239.0,-60.0,0
951,24.0,-247.0,-61.0,0
952,27.0,-250.0,-57.0,0
953,27.0,-252.0,-59.0,0
954,28.0,-256.0,-56.0,0
955,27.0,-257.0,-57.0,0
956,27.0,-259.0,-55.0,0
957,28.0,-258.0,-56.0,0
958,27.0,-257.0,-57.0,0
959,27.0,-257.0,-57.0,0
960,29.0,-258.0,-57.0,0
961,28.0,-259.0,-61.0,0
962,26.0,-252.0,-60.0,0
963,26.0,-249.0,-64.0,0
964,25.0,-250.0,-67.0,0
965,28.0,-249.0,-66.0,0
966,27.0,-248.0,-65.0,0
967,28.0,-249.0,-61.0,0
968,24.0,-247.0,-64.0,0
969,26.0,-246.0,-58.0,0
970,27.0,-248.0,-59.0,0
971,25.0,-251.0,-58.0,0
972,26.0,-253.0,-59.0,0
973,27.0,-256.0,-55.0,0
974,25.0,-255.0,-55.0,0
975,25.0,-258.0,-52.0,0
976,25.0,-257.0,-53.0,0
977,21.0,-256.0,-48.0,0
978,25.0,-258.0,-49.0,0
979,22.0,-256.0,-47.0,0
980,21.0,-252.0,-50.0,0
981,21.0,-253.0,-52.0,0
982,19.0,-250.0,-55.0,0
983,22.0,-244.0,-54.0,0
984,23.0,-246.0,-51.0,0
985,25.0,-248.0,-54.0,0
986,27.0,-247.0,-57.0,0
987,27.0,-247.0,-57.0,0
988,30.0,-248.0,-58.0,0
989,27.0,-248.0,-54.0,0
990,26.0,-251.0,-56.0,0
991,26.0,-249.0,-52.0,0
992,26.0,-251.0,-48.0,0
993,29.0,-253.0,-51.0,0
994,29.0,-253.0,-49.0,0
995,26.0,-251.0,-45.0,0
996,30.0,-253.0,-46.0,0
997,29.0,-253.0,-47.0,0
998,30.0,-254.0,-48.0,0
999,30.0,-251.0,-48.0,0
1000,28.0,-252.0,-50.0,0
1001,24.0,-251.0,-52.0,0
1002,27.0,-250.0,-53.0,0
1003,24.0,-249.0,-54.0,0
1004,22.0,-251.0,-56.0,0
1005,26.0,-253.0,-55.0,0
1006,23.0,-254.0,-54.0,0
1007,23.0,-254.0,-54.0,0
1008,24.0,-255.0,-55.0,0
1009,25.0,-255.0,-53.0,0
1010,18.0,-257.0,-54.0,0
1011,22.0,-258.0,-50.0,0
1012,23.0,-257.0,-50.0,0
1013,23.0,-260.0,-46.0,0
1014,22.0,-255.0,-44.0,0
1015,23.0,-258.0,-47.0,0
1016,25.0,-256.0,-44.0,0
1017,23.0,-256.0,-44.0,0
1018,24.0,-253.0,-41.0,0
1019,23.0,-254.0,-46.0,0
1020,23.0,-249.0,-48.0,0
1021,23.0,-251.0,-50.0,0
1022,25.0,-251.0,-47.0,0
1023,25.0,-249.0,-48.0,0
1024,24.0,-246.0,-48.0,0
1025,22.0,-247.0,-52.0,0
1026,22.0,-248.0,-51.0,0
1027,20.0,-246.0,-54.0,0
1028,24.0,-250.0,-50.0,0
1029,25.0,-248.0,-53.0,0
1030,23.0,-251.0,-52.0,0
1031,22.0,-252.0,-53.0,0
1032,20.0,-255.0,-49.0,0
1033,20.0,-252.0,-50.0,0
1034,20.0,-256.0,-49.0,0
1035,18.0,-253.0,-49.0,0
1036,19.0,-256.0,-47.0,0
1037,21.0,-251.0,-46.0,0
1038,18.0,-258.0,-48.0,0
1039,21.0,-256.0,-48.0,0
1040,23.0,-256.0,-48.0,0
1041,20.0,-257.0,-43.0,0
1042,20.0,-259.0,-43.0,0
1043,20.0,-258.0,-44.0,0
1044,20.0,-255.0,-45.0,0
1045,22.0,-252.0,-43.0,0
1046,22.0,-255.0,-44.0,0
1047,23.0,-254.0,-41.0,0
1048,22.0,-254.0,-42.0,0
1049,23.0,-251.0,-39.0,0
1050,23.0,-250.0,-42.0,0
1051,25.0,-249.0,-39.0,0
1052,27.0,-250.0,-43.0,0
1053,25.0,-248.0,-37.0,0
1054,27.0,-252.0,-44.0,0
1055,28.0,-247.0,-43.0,0
1056,24.0,-247.0,-41.0,0
1057,24.0,-245.0,-39.0,0
1058,26.0,-247.0,-41.0,0
1059,23.0,-246.0,-37.0,0
1060,23.0,-249.0,-38.0,0
1061,24.0,-249.0,-35.0,0
1062,24.0,-247.0,-37.0,0
1063,20.0,-249.0,-35.0,0
1064,20.0,-252.0,-37.0,0
1065,20.0,-253.0,-37.0,0
1066,22.0,-256.0,-35.0,0
1067,22.0,-255.0,-37.0,0
1068,20.0,-253.0,-36.0,0
1069,20.0,-253.0,-36.0,0
1070,23.0,-252.0,-39.0,0
1071,20.0,-254.0,-34.0,0
1072,18.0,-252.0,-38.0,0
1073,23.0,-253.0,-36.0,0
1074,24.0,-255.0,-43.0,0
1075,24.0,-251.0,-40.0,0
1076,22.0,-253.0,-38.0,0
1077,25.0,-251.0,-38.0,0
1078,27.0,-253.0,-40.0,0
1079,27.0,-252.0,-38.0,0
1080,24.0,-249.0,-40.0,0
1081,25.0,-251.0,-39.0,0
1082,25.0,-253.0,-34.0,0
1083,23.0,-255.0,-41.0,0
1084,27.0,-252.0,-38.0,0
1085,24.0,-253.0,-38.0,0
1086,24.0,-254.0,-42.0,0
1087,24.0,-252.0,-39.0,0
1088,25.0,-250.0,-39.0,0
1089,22.0,-251.0,-41.0,0
1090,25.0,-255.0,-38.0,0
1091,23.0,-254.0,-44.0,0
1092,25.0,-253.0,-41.0,0
1093,20.0,-253.0,-43.0,0
1094,21.0,-251.0,-42.0,0
1095,23.0,-252.0,-42.0,0
1096,22.0,-252.0,-44.0,0
1097,23.0,-253.0,-41.0,0
1098,22.0,-255.0,-44.0,0
1099,24.0,-253.0,-43.0,0
1100,23.0,-256.0,-38.0,0
1101,20.0,-252.0,-39.0,0
1102,21.0,-253.0,-40.0,0
1103,21.0,-255.0,-37.0,0
1104,22.0,-254.0,-37.0,0
1105,24.0,-254.0,-39.0,0
1106,21.0,-253.0,-40.0,0
1107,25.0,-252.0,-41.0,0
1108,22.0,-249.0,-45.0,0
1109,22.0,-250.0,-44.0,0
1110,23.0,-250.0,-46.0,0
1111,23.0,-251.0,-41.0,0
1112,25.0,-253.0,-40.0,0
1113,23.0,-253.0,-39.0,0
1114,26.0,-255.0,-37.0,0
1115,23.0,-254.0,-39.0,0
1116,23.0,-255.0,-39.0,0
1117,24.0,-255.0,-41.0,0
1118,21.0,-252.0,-38.0,0
1119,23.0,-255.0,-40.0,0
1120,22.0,-255.0,-38.0,0
1121,23.0,-255.0,-37.0,0
1122,22.0,-252.0,-43.0,0
1123,22.0,-254.0,-39.0,0
1124,23.0,-253.0,-37.0,0
1125,24.0,-254.0,-37.0,0
1126,23.0,-253.0,-35.0,0
1127,21.0,-255.0,-41.0,0
1128,25.0,-253.0,-38.0,0
1129,25.0,-254.0,-40.0,0
1130,21.0,-253.0,-38.0,0
1131,24.0,-253.0,-38.0,0
1132,20.0,-254.0,-38.0,0
1133,24.0,-254.0,-37.0,0
1134,25.0,-252.0,-37.0,0
1135,23.0,-255.0,-35.0,0
1136,22.0,-254.0,-42.0,0
1137,21.0,-253.0,-38.0,0
1138,21.0,-252.0,-38.0,0
1139,22.0,-253.0,-39.0,0
1140,21.0,-252.0,-40.0,0
1141,22.0,-254.0,-37.0,0
1142,21.0,-253.0,-39.0,0
1143,21.0,-250.0,-37.0,0
1144,22.0,-253.0,-39.0,0
1145,24.0,-253.0,-37.0,0
1146,20.0,-253.0,-38.0,0
1147,21.0,-253.0,-40.0,0
1148,21.0,-252.0,-40.0,0
1149,21.0,-255.0,-39.0,0
1150,21.0,-254.0,-43.0,0
1151,21.0,-254.0,-39.0,0
1152,21.0,-253.0,-38.0,0
1153,21.0,-252.0,-40.0,0
1154,24.0,-254.0,-40.0,0
1155,24.0,-251.0,-39.0,0
1156,24.0,-252.0,-41.0,0
1157,24.0,-254.0,-45.0,0
1158,23.0,-253.0,-42.0,0
1159,25.0,-253.0,-41.0,0
1160,23.0,-252.0,-40.0,0
1161,24.0,-253.0,-39.0,0
1162,25.0,-254.0,-41.0,0
1163,24.0,-254.0,-36.0,0
1164,26.0,-255.0,-36.0,0
1165,26.0,-255.0,-39.0,0
1166,21.0,-256.0,-34.0,0
1167,22.0,-253.0,-38.0,0
1168,20.0,-254.0,-36.0,0
1169,23.0,-256.0,-39.0,0
1170,20.0,-255.0,-40.0,0
1171,20.0,-255.0,-39.0,0
1172,22.0,-254.0,-38.0,0
1173,23.0,-252.0,-38.0,0
1174,21.0,-252.0,-38.0,0
1175,20.0,-254.0,-38.0,0
1176,23.0,-254.0,-41.0,0
1177,22.0,-254.0,-36.0,0
1178,22.0,-254.0,-42.0,0
1179,22.0,-252.0,-42.0,0
1180,22.0,-253.0,-40.0,0
1181,22.0,-253.0,-41.0,0
1182,23.0,-253.0,-43.0,0
1183,23.0,-253.0,-40.0,0
1184,20.0,-249.0,-40.0,0
1185,22.0,-254.0,-42.0,0
1186,25.0,-253.0,-35.0,0
1187,22.0,-255.0,-40.0,0
1188,25.0,-252.0,-35.0,0
1189,22.0,-253.0,-37.0,0
1190,22.0,-253.0,-36.0,0
1191,20.0,-253.0,-38.0,0
1192,22.0,-251.0,-38.0,0
1193,23.0,-251.0,-38.0,0
1194,19.0,-249.0,-38.0,0
1195,23.0,-250.0,-37.0,0
1196,18.0,-252.0,-36.0,0
1197,19.0,-249.0,-36.0,0
1198,20.0,-253.0,-36.0,0
1199,21.0,-254.0,-33.0,0
1200,22.0,-254.0,-39.0,0
1201,24.0,-253.0,-40.0,0
1202,24.0,-254.0,-36.0,0
1203,22.0,-254.0,-38.0,0
1204,23.0,-256.0,-35.0,0
1205,24.0,-253.0,-36.0,0
1206,20.0,-255.0,-33.0,0
1207,24.0,-254.0,-36.0,0
1208,22.0,-253.0,-35.0,0
1209,22.0,-252.0,-36.0,0
1210,22.0,-254.0,-37.0,0
1211,20.0,-252.0,-34.0,0
1212,21.0,-255.0,-38.0,0
1213,20.0,-257.0,-40.0,0
1214,24.0,-256.0,-38.0,0
1215,24.0,-257.0,-40.0,0
1216,22.0,-255.0,-38.0,0
1217,21.0,-255.0,-35.0,0
1218,20.0,-255.0,-38.0,0
1219,23.0,-258.0,-33.0,0
1220,22.0,-257.0,-40.0,0
1221,18.0,-257.0,-39.0,0
1222,24.0,-256.0,-40.0,0
1223,20.0,-256.0,-37.0,0
1224,18.0,-254.0,-38.0,0
1225,17.0,-252.0,-40.0,0
1226,17.0,-253.0,-39.0,0
1227,18.0,-253.0,-40.0,0
1228,20.0,-254.0,-34.0,0
1229,21.0,-253.0,-39.0,0
1230,18.0,-251.0,-37.0,0
1231,21.0,-257.0,-32.0,0
1232,20.0,-256.0,-33.0,0
1233,20.0,-257.0,-34.0,0
1234,19.0,-253.0,-30.0,0
1235,21.0,-256.0,-36.0,0
1236,20.0,-253.0,-36.0,0
1237,20.0,-254.0,-32.0,0
1238,22.0,-255.0,-36.0,0
1239,19.0,-253.0,-35.0,0
1240,25.0,-254.0,-37.0,0
1241,23.0,-255.0,-33.0,0
1242,22.0,-254.0,-33.0,0
1243,24.0,-253.0,-34.0,0
1244,26.0,-253.0,-35.0,0
1245,21.0,-254.0,-35.0,0
1246,20.0,-252.0,-29.0,0
1247,23.0,-256.0,-41.0,0
1248,23.0,-253.0,-35.0,0
1249,21.0,-254.0,-37.0,0
1250,21.0,-253.0,-32.0,0
1251,21.0,-251.0,-33.0,0
1252,20.0,-255.0,-35.0,0
1253,21.0,-255.0,-38.0,0
1254,21.0,-251.0,-40.0,0
1255,24.0,-254.0,-35.0,0
1256,24.0,-251.0,-36.0,0
1257,22.0,-253.0,-40.0,0
1258,19.0,-251.0,-31.0,0
1259,19.0,-253.0,-35.0,0
1260,23.0,-255.0,-38.0,0
1261,21.0,-251.0,-35.0,0
1262,19.0,-249.0,-35.0,0
1263,23.0,-256.0,-36.0,0
1264,19.0,-253.0,-34.0,0
1265,20.0,-254.0,-37.0,0
1266,19.0,-251.0,-39.0,0
1267,20.0,-254.0,-35.0,0
1268,21.0,-255.0,-37.0,0
1269,19.0,-253.0,-36.0,0
1270,19.0,-254.0,-38.0,0
1271,21.0,-255.0,-37.0,0
1272,18.0,-254.0,-37.0,0
1273,22.0,-256.0,-39.0,0
1274,22.0,-254.0,-31.0,0
1275,22.0,-255.0,-35.0,0
1276,23.0,-254.0,-34.0,0
1277,23.0,-255.0,-35.0,0
1278,21.0,-254.0,-37.0,0
1279,24.0,-252.0,-30.0,0
1280,19.0,-254.0,-38.0,0
1281,20.0,-253.0,-35.0,0
1282,21.0,-251.0,-34.0,0
1283,22.0,-255.0,-34.0,0
1284,21.0,-251.0,-37.0,0
1285,24.0,-253.0,-34.0,0
1286,20.0,-254.0,-29.0,0
1287,27.0,-250.0,-30.0,0
1288,23.0,-253.0,-32.0,0
1289,24.0,-254.0,-31.0,0
1290,22.0,-252.0,-28.0,0
1291,23.0,-255.0,-33.0,0
1292,23.0,-255.0,-34.0,0
1293,25.0,-256.0,-35.0,0
1294,23.0,-254.0,-36.0,0
1295,23.0,-253.0,-35.0,0
1296,23.0,-252.0,-33.0,0
1297,22.0,-254.0,-30.0,0
1298,26.0,-253.0,-35.0,0
1299,23.0,-255.0,-33.0,0
1300,24.0,-254.0,-34.0,0
1301,20.0,-250.0,-34.0,0
1302,23.0,-255.0,-34.0,0
1303,22.0,-253.0,-35.0,0
1304,22.0,-251.0,-36.0,0
1305,18.0,-250.0,-37.0,0
1306,19.0,-252.0,-40.0,0
1307,21.0,-254.0,-36.0,0
1308,18.0,-254.0,-37.0,0
1309,19.0,-254.0,-41.0,0
1310,18.0,-255.0,-36.0,0
1311,22.0,-257.0,-39.0,0
1312,18.0,-253.0,-34.0,0
1313,17.0,-255.0,-36.0,0
1314,20.0,-256.0,-35.0,0
1315,19.0,-255.0,-36.0,0
1316,21.0,-256.0,-37.0,0
1317,20.0,-253.0,-37.0,0
1318,24.0,-256.0,-40.0,0
1319,21.0,-251.0,-40.0,0
1320,20.0,-253.0,-37.0,0
1321,22.0,-251.0,-38.0,0
1322,22.0,-252.0,-35.0,0
1323,22.0,-254.0,-38.0,0
1324,20.0,-252.0,-39.0,0
1325,20.0,-251.0,-36.0,0
1326,20.0,-256.0,-37.0,0
1327,20.0,-253.0,-38.0,0
1328,19.0,-253.0,-35.0,0
1329,18.0,-254.0,-37.0,0
1330,23.0,-258.0,-35.0,0
1331,20.0,-259.0,-37.0,0
1332,21.0,-256.0,-35.0,0
1333,19.0,-257.0,-31.0,0
1334,22.0,-256.0,-37.0,0
1335,22.0,-254.0,-33.0,0
1336,23.0,-255.0,-32.0,0
1337,23.0,-252.0,-35.0,0
1338,22.0,-252.0,-34.0,0
1339,22.0,-252.0,-39.0,0
1340,22.0,-249.0,-35.0,0
1341,23.0,-252.0,-32.0,0
1342,24.0,-252.0,-37.0,0
1343,25.0,-254.0,-36.0,0
1344,23.0,-251.0,-33.0,0
1345,24.0,-253.0,-36.0,0
1346,25.0,-252.0,-34.0,0
1347,23.0,-254.0,-36.0,0
1348,26.0,-254.0,-34.0,0
1349,27.0,-255.0,-34.0,0
1350,25.0,-252.0,-38.0,0
1351,24.0,-257.0,-33.0,0
1352,23.0,-254.0,-35.0,0
1353,21.0,-253.0,-36.0,0
1354,22.0,-253.0,-35.0,0
1355,23.0,-255.0,-36.0,0
1356,20.0,-255.0,-37.0,0
1357,21.0,-254.0,-37.0,0
1358,20.0,-251.0,-39.0,0
1359,18.0,-255.0,-39.0,0
1360,21.0,-255.0,-36.0,0
1361,23.0,-252.0,-38.0,0
1362,21.0,-253.0,-33.0,0
1363,22.0,-254.0,-36.0,0
1364,20.0,-252.0,-41.0,0
1365,20.0,-255.0,-38.0,0
1366,20.0,-253.0,-36.0,0
1367,22.0,-255.0,-36.0,0
1368,24.0,-254.0,-37.0,0
1369,22.0,-253.0,-42.0,0
1370,22.0,-254.0,-39.0,0
1371,23.0,-255.0,-43.0,0
1372,24.0,-252.0,-40.0,0
1373,22.0,-250.0,-41.0,0
1374,23.0,-252.0,-43.0,0
1375,20.0,-253.0,-39.0,0
1376,22.0,-252.0,-40.0,0
1377,22.0,-253.0,-36.0,0
1378,25.0,-255.0,-38.0,0
1379,25.0,-253.0,-33.0,0
1380,24.0,-254.0,-35.0,0
1381,25.0,-255.0,-35.0,0
1382,24.0,-252.0,-30.0,0
1383,24.0,-257.0,-32.0,0
1384,25.0,-256.0,-32.0,0
1385,27.0,-255.0,-30.0,0
1386,25.0,-255.0,-33.0,0
1387,21.0,-252.0,-30.0,0
1388,20.0,-251.0,-32.0,0
1389,21.0,-250.0,-30.0,0
1390,20.0,-252.0,-29.0,0
1391,22.0,-252.0,-31.0,0
1392,23.0,-253.0,-32.0,0
1393,21.0,-253.0,-35.0,0
1394,21.0,-249.0,-35.0,0
1395,20.0,-252.0,-35.0,0
1396,23.0,-254.0,-30.0,0
1397,20.0,-252.0,-34.0,0
1398,21.0,-252.0,-31.0,0
1399,21.0,-253.0,-33.0,0
1400,22.0,-255.0,-32.0,0
1401,19.0,-254.0,-29.0,0
1402,20.0,-254.0,-32.0,0
1403,22.0,-254.0,-34.0,0
1404,24.0,-252.0,-36.0,0
1405,20.0,-254.0,-32.0,0
1406,21.0,-253.0,-36.0,0
1407,21.0,-251.0,-36.0,0
1408,21.0,-256.0,-44.0,0
1409,20.0,-254.0,-39.0,0
1410,20.0,-251.0,-37.0,0
1411,19.0,-254.0,-37.0,0
1412,24.0,-254.0,-37.0,0
1413,19.0,-252.0,-36.0,0
1414,21.0,-255.0,-37.0,0
1415,23.0,-255.0,-38.0,0
1416,21.0,-254.0,-35.0,0
1417,21.0,-254.0,-36.0,0
1418,25.0,-256.0,-37.0,0
1419,21.0,-252.0,-36.0,0
1420,22.0,-255.0,-39.0,0
1421,23.0,-254.0,-42.0,0
1422,21.0,-252.0,-39.0,0
1423,21.0,-249.0,-40.0,0
1424,19.0,-250.0,-37.0,0
1425,19.0,-249.0,-43.0,0
1426,20.0,-253.0,-39.0,0
1427,23.0,-251.0,-38.0,0
1428,21.0,-255.0,-37.0,0
1429,25.0,-257.0,-38.0,0
1430,25.0,-254.0,-40.0,0
1431,25.0,-256.0,-40.0,0
1432,26.0,-252.0,-39.0,0
1433,27.0,-255.0,-37.0,0
1434,26.0,-253.0,-41.0,0
1435,25.0,-255.0,-39.0,0
1436,20.0,-251.0,-42.0,0
1437,23.0,-251.0,-40.0,0
1438,20.0,-249.0,-44.0,0
1439,22.0,-251.0,-41.0,0
1440,17.0,-249.0,-39.0,0
1441,21.0,-251.0,-48.0,0
1442,21.0,-250.0,-44.0,0
1443,23.0,-253.0,-42.0,0
1444,20.0,-253.0,-40.0,0
1445,20.0,-253.0,-40.0,0
1446,21.0,-254.0,-42.0,0
1447,22.0,-255.0,-40.0,0
1448,19.0,-257.0,-36.0,0
1449,22.0,-257.0,-36.0,0
1450,21.0,-256.0,-33.0,0
1451,22.0,-258.0,-36.0,0
1452,22.0,-254.0,-31.0,0
1453,24.0,-263.0,-40.0,0
1454,19.0,-263.0,-37.0,0
1455,21.0,-254.0,-41.0,0
1456,25.0,-250.0,-56.0,0
1457,20.0,-249.0,-35.0,0
1458,21.0,-249.0,-31.0,0
1459,24.0,-252.0,-34.0,0
1460,21.0,-250.0,-40.0,0
1461,21.0,-250.0,-35.0,0
1462,22.0,-252.0,-33.0,0
1463,21.0,-250.0,-35.0,0
1464,21.0,-250.0,-34.0,0
1465,21.0,-250.0,-35.0,0
1466,22.0,-254.0,-34.0,0
1467,19.0,-250.0,-35.0,0
1468,17.0,-251.0,-35.0,0
1469,18.0,-252.0,-39.0,0
1470,18.0,-251.0,-44.0,0
1471,18.0,-250.0,-40.0,0
1472,21.0,-249.0,-45.0,0
1473,17.0,-247.0,-42.0,0
1474,19.0,-248.0,-47.0,0
1475,18.0,-250.0,-46.0,0
1476,19.0,-248.0,-45.0,0
1477,20.0,-250.0,-50.0,0
1478,18.0,-252.0,-44.0,0
1479,20.0,-254.0,-48.0,0
1480,18.0,-254.0,-49.0,0
1481,23.0,-254.0,-47.0,0
1482,20.0,-254.0,-49.0,0
1483,22.0,-256.0,-50.0,0
1484,20.0,-255.0,-47.0,0
1485,21.0,-255.0,-48.0,0
1486,23.0,-256.0,-45.0,0
1487,22.0,-254.0,-43.0,0
1488,19.0,-257.0,-44.0,0
1489,20.0,-254.0,-41.0,0
1490,19.0,-254.0,-44.0,0
1491,20.0,-254.0,-46.0,0
1492,20.0,-251.0,-48.0,0
1493,20.0,-251.0,-48.0,0
1494,19.0,-250.0,-44.0,0
1495,19.0,-251.0,-44.0,0
1496,22.0,-251.0,-48.0,0
1497,24.0,-249.0,-43.0,0
1498,23.0,-249.0,-43.0,0
1499,25.0,-250.0,-42.0,0
1500,22.0,-247.0,-41.0,0
1501,21.0,-247.0,-43.0,0
1502,25.0,-250.0,-44.0,0
1503,22.0,-250.0,-50.0,0
1504,23.0,-248.0,-47.0,0
1505,24.0,-251.0,-48.0,0
1506,25.0,-250.0,-48.0,0
1507,24.0,-251.0,-50.0,0
1508,25.0,-251.0,-48.0,0
1509,25.0,-255.0,-53.0,0
1510,26.0,-254.0,-49.0,0
1511,25.0,-254.0,-49.0,0
1512,19.0,-253.0,-51.0,0
1513,20.0,-255.0,-48.0,0
1514,22.0,-254.0,-51.0,0
1515,23.0,-253.0,-50.0,0
1516,18.0,-251.0,-49.0,0
1517,21.0,-254.0,-49.0,0
1518,19.0,-249.0,-49.0,0
1519,21.0,-250.0,-51.0,0
1520,17.0,-251.0,-51.0,0
1521,16.0,-254.0,-50.0,0
1522,19.0,-251.0,-55.0,0
1523,20.0,-249.0,-54.0,0
1524,18.0,-250.0,-57.0,0
1525,19.0,-249.0,-58.0,0
1526,20.0,-247.0,-61.0,0
1527,17.0,-248.0,-57.0,0
1528,21.0,-249.0,-58.0,0
1529,21.0,-249.0,-56.0,0
1530,22.0,-249.0,-55.0,0
1531,19.0,-249.0,-56.0,0
1532,18.0,-248.0,-54.0,0
1533,20.0,-252.0,-56.0,0
1534,21.0,-250.0,-56.0,0
1535,21.0,-250.0,-55.0,0
1536,18.0,-253.0,-55.0,0
1537,17.0,-251.0,-54.0,0
1538,18.0,-253.0,-55.0,0
1539,18.0,-253.0,-56.0,0
1540,19.0,-250.0,-57.0,0
1541,18.0,-249.0,-55.0,0
1542,18.0,-249.0,-58.0,0
1543,19.0,-246.0,-56.0,0
1544,16.0,-252.0,-61.0,0
1545,20.0,-245.0,-69.0,0
1546,18.0,-251.0,-62.0,0
1547,20.0,-246.0,-63.0,0
1548,19.0,-247.0,-66.0,0
1549,19.0,-243.0,-63.0,0
1550,19.0,-243.0,-67.0,0
1551,17.0,-247.0,-67.0,0
1552,17.0,-242.0,-66.0,0
1553,19.0,-245.0,-65.0,0
1554,15.0,-247.0,-65.0,0
1555,21.0,-251.0,-63.0,0
1556,21.0,-249.0,-65.0,0
1557,20.0,-249.0,-65.0,0
1558,20.0,-250.0,-67.0,0
1559,19.0,-251.0,-69.0,0
1560,21.0,-250.0,-61.0,0
1561,18.0,-248.0,-63.0,0
1562,21.0,-249.0,-62.0,0
1563,21.0,-248.0,-63.0,0
1564,23.0,-250.0,-66.0,0
1565,23.0,-249.0,-69.0,0
1566,22.0,-249.0,-73.0,0
1567,21.0,-243.0,-75.0,0
1568,18.0,-248.0,-73.0,0
1569,23.0,-247.0,-74.0,0
1570,19.0,-245.0,-76.0,0
1571,18.0,-245.0,-79.0,0
1572,20.0,-245.0,-79.0,0
1573,19.0,-245.0,-77.0,0
1574,18.0,-247.0,-78.0,0
1575,18.0,-245.0,-89.0,0
1576,16.0,-244.0,-79.0,0
1577,18.0,-241.0,-79.0,0
1578,22.0,-243.0,-80.0,0
1579,21.0,-244.0,-80.0,0
1580,21.0,-246.0,-78.0,0
1581,20.0,-241.0,-78.0,0
1582,23.0,-241.0,-76.0,0
1583,24.0,-240.0,-79.0,0
1584,25.0,-239.0,-80.0,0
1585,27.0,-239.0,-81.0,0
1586,30.0,-238.0,-85.0,0
1587,31.0,-235.0,-85.0,0
1588,30.0,-236.0,-86.0,0
1589,31.0,-236.0,-91.0,0
1590,34.0,-236.0,-93.0,0
1591,33.0,-239.0,-95.0,0
1592,35.0,-241.0,-97.0,0
1593,36.0,-242.0,-102.0,0
1594,37.0,-240.0,-101.0,0
1595,40.0,-239.0,-100.0,0
1596,42.0,-239.0,-104.0,0
1597,42.0,-234.0,-107.0,0
1598,40.0,-232.0,-110.0,0
1599,36.0,-229.0,-115.0,0
1600,28.0,-224.0,-128.0,0
1601,19.0,-221.0,-140.0,0
1602,13.0,-218.0,-144.0,0
1603,6.0,-220.0,-154.0,0
1604,-5.0,-216.0,-164.0,0
1605,-11.0,-215.0,-168.0,0
1606,-16.0,-213.0,-179.0,0
1607,-19.0,-215.0,-187.0,0
1608,-18.0,-213.0,-193.0,0
1609,-15.0,-214.0,-192.0,0
1610,-11.0,-213.0,-194.0,0
1611,-4.0,-218.0,-191.0,0
1612,-1.0,-223.0,-190.0,0
1613,10.0,-227.0,-191.0,0
1614,15.0,-232.0,-189.0,0
1615,24.0,-234.0,-187.0,0
1616,33.0,-239.0,-188.0,0
1617,46.0,-240.0,-200.0,0
1618,50.0,-239.0,-203.0,0
1619,59.0,-235.0,-207.0,0
1620,66.0,-228.0,-205.0,0
1621,72.0,-230.0,-201.0,0
1622,72.0,-227.0,-213.0,0
1623,77.0,-222.0,-217.0,0
1624,76.0,-219.0,-213.0,0
1625,75.0,-213.0,-214.0,0
1626,69.0,-208.0,-211.0,0
1627,66.0,-203.0,-211.0,0
1628,64.0,-198.0,-211.0,0
1629,54.0,-196.0,-212.0,0
1630,46.0,-193.0,-208.0,0
1631,33.0,-191.0,-201.0,0
1632,27.0,-191.0,-193.0,0
1633,19.0,-191.0,-189.0,0
1634,14.0,-191.0,-188.0,0
1635,9.0,-190.0,-190.0,0
1636,10.0,-191.0,-193.0,0
1637,10.0,-187.0,-199.0,0
1638,10.0,-180.0,-198.0,0
1639,16.0,-175.0,-207.0,0
1640,19.0,-173.0,-209.0,0
1641,24.0,-171.0,-212.0,0
1642,27.0,-169.0,-212.0,0
1643,31.0,-169.0,-214.0,0
1644,37.0,-172.0,-218.0,0
1645,43.0,-176.0,-225.0,0
1646,45.0,-174.0,-225.0,0
1647,45.0,-172.0,-232.0,0
1648,47.0,-173.0,-231.0,0
1649,49.0,-175.0,-240.0,0
1650,40.0,-173.0,-235.0,0
1651,47.0,-171.0,-232.0,0
1652,42.0,-174.0,-231.0,0
1653,41.0,-175.0,-229.0,0
1654,41.0,-175.0,-230.0,0
1655,39.0,-172.0,-231.0,0
1656,37.0,-176.0,-231.0,0
1657,35.0,-177.0,-229.0,0
1658,30.0,-172.0,-226.0,0
1659,29.0,-173.0,-233.0,0
1660,29.0,-176.0,-232.0,0
1661,30.0,-172.0,-230.0,0
1662,31.0,-175.0,-229.0,0
1663,30.0,-175.0,-231.0,0
1664,29.0,-173.0,-238.0,0
1665,32.0,-171.0,-242.0,0
1666,32.0,-170.0,-243.0,0
1667,31.0,-169.0,-247.0,0
1668,35.0,-165.0,-245.0,0
1669,37.0,-166.0,-243.0,0
1670,38.0,-166.0,-244.0,0
1671,37.0,-164.0,-239.0,0
1672,37.0,-165.0,-238.0,0
1673,37.0,-164.0,-228.0,0
1674,38.0,-167.0,-229.0,0
1675,33.0,-164.0,-230.0,0
1676,32.0,-162.0,-225.0,0
1677,31.0,-163.0,-229.0,0
1678,31.0,-163.0,-228.0,0
1679,29.0,-158.0,-229.0,0
1680,28.0,-160.0,-225.0,0
1681,29.0,-153.0,-230.0,0
1682,30.0,-155.0,-226.0,0
1683,29.0,-153.0,-226.0,0
1684,27.0,-153.0,-226.0,0
1685,31.0,-150.0,-225.0,0
1686,33.0,-149.0,-227.0,0
1687,34.0,-150.0,-226.0,0
1688,36.0,-150.0,-224.0,0
1689,40.0,-153.0,-227.0,0
1690,46.0,-155.0,-218.0,0
1691,47.0,-150.0,-234.0,0
1692,43.0,-159.0,-221.0,0
1693,46.0,-158.0,-227.0,0
1694,45.0,-160.0,-228.0,0
1695,45.0,-159.0,-232.0,0
1696,39.0,-155.0,-236.0,0
1697,39.0,-154.0,-243.0,0
1698,32.0,-151.0,-244.0,0
1699,29.0,-148.0,-247.0,0
1700,31.0,-148.0,-244.0,0
1701,27.0,-144.0,-248.0,0
1702,28.0,-145.0,-250.0,0
1703,27.0,-146.0,-246.0,0
1704,25.0,-149.0,-247.0,0
1705,29.0,-149.0,-242.0,0
1706,26.0,-151.0,-242.0,0
1707,28.0,-152.0,-240.0,0
1708,29.0,-153.0,-243.0,0
1709,33.0,-154.0,-239.0,0
1710,31.0,-158.0,-238.0,0
1711,32.0,-159.0,-231.0,0
1712,36.0,-158.0,-232.0,0
1713,36.0,-158.0,-229.0,0
1714,37.0,-159.0,-233.0,0
1715,39.0,-158.0,-226.0,0
1716,42.0,-158.0,-229.0,0
1717,41.0,-158.0,-225.0,0
1718,43.0,-158.0,-232.0,0
1719,43.0,-158.0,-230.0,0
1720,45.0,-160.0,-231.0,0
1721,44.0,-159.0,-229.0,0
1722,44.0,-162.0,-230.0,0
1723,44.0,-163.0,-225.0,0
1724,43.0,-165.0,-229.0,0
1725,40.0,-162.0,-229.0,0
1726,38.0,-164.0,-225.0,0
1727,32.0,-160.0,-227.0,0
1728,30.0,-162.0,-229.0,0
1729,28.0,-162.0,-225.0,0
1730,27.0,-161.0,-229.0,0
1731,25.0,-164.0,-223.0,0
1732,20.0,-162.0,-224.0,0
1733,20.0,-161.0,-224.0,0
1734,16.0,-158.0,-218.0,0
1735,15.0,-158.0,-219.0,0
1736,15.0,-159.0,-215.0,0
1737,17.0,-161.0,-216.0,0
1738,18.0,-162.0,-217.0,0
1739,18.0,-161.0,-212.0,0
1740,21.0,-162.0,-212.0,0
1741,19.0,-163.0,-212.0,0
1742,23.0,-167.0,-210.0,0
1743,26.0,-166.0,-214.0,0
1744,29.0,-169.0,-215.0,0
1745,29.0,-165.0,-216.0,0
1746,32.0,-166.0,-213.0,0
1747,28.0,-161.0,-214.0,0
1748,30.0,-159.0,-209.0,0
1749,32.0,-159.0,-205.0,0
1750,33.0,-158.0,-203.0,0
1751,33.0,-157.0,-204.0,0
1752,35.0,-157.0,-204.0,0
1753,34.0,-153.0,-202.0,0
1754,32.0,-154.0,-207.0,0
1755,36.0,-154.0,-205.0,0
1756,38.0,-158.0,-203.0,0
1757,39.0,-159.0,-205.0,0
1758,38.0,-159.0,-204.0,0
1759,37.0,-161.0,-199.0,0
1760,40.0,-164.0,-200.0,0
1761,39.0,-166.0,-199.0,0
1762,38.0,-169.0,-198.0,0
1763,38.0,-171.0,-195.0,0
1764,35.0,-173.0,-199.0,0
1765,36.0,-174.0,-198.0,0
1766,37.0,-173.0,-203.0,0
1767,33.0,-173.0,-198.0,0
1768,30.0,-171.0,-195.0,0
1769,31.0,-173.0,-197.0,0
1770,29.0,-174.0,-194.0,0
1771,26.0,-172.0,-190.0,0
1772,27.0,-172.0,-189.0,0
1773,26.0,-174.0,-187.0,0
1774,25.0,-176.0,-187.0,0
1775,23.0,-175.0,-190.0,0
1776,23.0,-175.0,-193.0,0
1777,24.0,-178.0,-194.0,0
1778,30.0,-180.0,-190.0,0
1779,31.0,-178.0,-193.0,0
1780,31.0,-179.0,-191.0,0
1781,34.0,-180.0,-193.0,0
1782,39.0,-183.0,-196.0,0
1783,41.0,-184.0,-193.0,0
1784,41.0,-185.0,-192.0,0
1785,39.0,-183.0,-191.0,0
1786,39.0,-186.0,-187.0,0
1787,36.0,-185.0,-187.0,0
1788,37.0,-183.0,-185.0,0
1789,37.0,-181.0,-185.0,0
1790,32.0,-181.0,-185.0,0
1791,34.0,-180.0,-182.0,0
1792,30.0,-179.0,-178.0,0
1793,31.0,-176.0,-172.0,0
1794,29.0,-174.0,-168.0,0
1795,28.0,-173.0,-165.0,0
1796,25.0,-170.0,-160.0,0
1797,28.0,-171.0,-161.0,0
1798,26.0,-166.0,-156.0,0
1799,27.0,-170.0,-153.0,0
1800,26.0,-168.0,-153.0,0
1801,28.0,-170.0,-151.0,0
1802,27.0,-167.0,-144.0,0
1803,30.0,-169.0,-144.0,0
1804,28.0,-166.0,-148.0,0
1805,29.0,-169.0,-142.0,0
1806,30.0,-172.0,-144.0,0
1807,27.0,-172.0,-141.0,0
1808,29.0,-173.0,-144.0,0
1809,27.0,-171.0,-146.0,0
1810,27.0,-175.0,-145.0,0
1811,28.0,-177.0,-143.0,0
1812,28.0,-181.0,-143.0,0
1813,26.0,-184.0,-144.0,0
1814,28.0,-185.0,-139.0,0
1815,30.0,-186.0,-140.0,0
1816,27.0,-187.0,-137.0,0
1817,28.0,-187.0,-143.0,0
1818,32.0,-185.0,-140.0,0
1819,30.0,-182.0,-145.0,0
1820,31.0,-182.0,-146.0,0
1821,31.0,-173.0,-145.0,0
1822,32.0,-175.0,-145.0,0
1823,33.0,-176.0,-148.0,0
1824,33.0,-172.0,-146.0,0
1825,34.0,-170.0,-145.0,0
1826,34.0,-172.0,-141.0,0
1827,36.0,-173.0,-135.0,0
1828,32.0,-177.0,-131.0,0
1829,33.0,-174.0,-126.0,0
1830,34.0,-180.0,-121.0,0
1831,33.0,-182.0,-119.0,0
1832,30.0,-185.0,-116.0,0
1833,31.0,-186.0,-111.0,0
1834,30.0,-184.0,-112.0,0
1835,30.0,-182.0,-108.0,0
1836,28.0,-182.0,-101.0,0
1837,25.0,-180.0,-106.0,0
1838,25.0,-184.0,-102.0,0
1839,21.0,-180.0,-105.0,0
1840,22.0,-178.0,-107.0,0
1841,23.0,-178.0,-108.0,0
1842,24.0,-175.0,-111.0,0
1843,24.0,-172.0,-111.0,0
1844,27.0,-176.0,-118.0,0
1845,24.0,-173.0,-120.0,0
1846,23.0,-171.0,-121.0,0
1847,23.0,-171.0,-126.0,0
1848,21.0,-174.0,-122.0,0
1849,21.0,-173.0,-121.0,0
1850,18.0,-175.0,-122.0,0
1851,22.0,-182.0,-119.0,0
1852,22.0,-187.0,-117.0,0
1853,21.0,-187.0,-116.0,0
1854,22.0,-189.0,-112.0,0
1855,22.0,-189.0,-107.0,0
1856,21.0,-190.0,-105.0,0
1857,21.0,-190.0,-108.0,0
1858,21.0,-190.0,-111.0,0
1859,21.0,-185.0,-114.0,0
1860,17.0,-184.0,-117.0,0
1861,22.0,-183.0,-116.0,0
1862,24.0,-180.0,-118.0,0
1863,24.0,-180.0,-119.0,0
1864,30.0,-180.0,-117.0,0
1865,33.0,-180.0,-118.0,0
1866,35.0,-185.0,-114.0,0
1867,35.0,-187.0,-114.0,0
1868,37.0,-194.0,-115.0,0
1869,36.0,-196.0,-117.0,0
1870,42.0,-197.0,-118.0,0
1871,43.0,-204.0,-116.0,0
1872,43.0,-208.0,-116.0,0
1873,42.0,-206.0,-118.0,0
1874,45.0,-215.0,-119.0,0
1875,45.0,-213.0,-114.0,0
1876,45.0,-216.0,-116.0,0
1877,45.0,-218.0,-115.0,0
1878,41.0,-220.0,-119.0,0
1879,41.0,-220.0,-120.0,0
1880,43.0,-223.0,-118.0,0
1881,40.0,-226.0,-118.0,0
1882,40.0,-228.0,-118.0,0
1883,34.0,-233.0,-115.0,0
1884,37.0,-236.0,-112.0,0
1885,30.0,-241.0,-110.0,0
1886,26.0,-245.0,-106.0,0
1887,28.0,-247.0,-104.0,0
1888,25.0,-250.0,-103.0,0
1889,21.0,-250.0,-104.0,0
1890,21.0,-251.0,-106.0,0
1891,23.0,-251.0,-104.0,0
1892,18.0,-247.0,-108.0,0
1893,18.0,-245.0,-102.0,0
1894,16.0,-244.0,-105.0,0
1895,16.0,-240.0,-103.0,0
1896,17.0,-240.0,-97.0,0
1897,17.0,-237.0,-94.0,0
1898,14.0,-234.0,-91.0,0
1899,12.0,-229.0,-94.0,0
1900,10.0,-229.0,-85.0,0
1901,11.0,-230.0,-86.0,0
1902,9.0,-231.0,-85.0,0
1903,8.0,-232.0,-82.0,0
1904,12.0,-234.0,-81.0,0
1905,15.0,-230.0,-85.0,0
1906,15.0,-228.0,-90.0,0
1907,15.0,-223.0,-92.0,0
1908,15.0,-223.0,-92.0,0
1909,16.0,-219.0,-90.0,0
1910,21.0,-223.0,-86.0,0
1911,21.0,-222.0,-89.0,0
1912,19.0,-222.0,-84.0,0
1913,26.0,-225.0,-82.0,0
1914,28.0,-228.0,-82.0,0
1915,31.0,-227.0,-78.0,0
1916,34.0,-229.0,-80.0,0
1917,36.0,-233.0,-79.0,0
1918,42.0,-236.0,-81.0,0
1919,38.0,-237.0,-79.0,0
1920,43.0,-241.0,-80.0,0
1921,40.0,-244.0,-78.0,0
1922,47.0,-247.0,-78.0,0
1923,46.0,-247.0,-77.0,0
1924,48.0,-255.0,-76.0,0
1925,47.0,-255.0,-75.0,0
1926,48.0,-260.0,-77.0,0
1927,43.0,-261.0,-84.0,0
1928,39.0,-259.0,-82.0,0
1929,36.0,-258.0,-90.0,0
1930,33.0,-261.0,-84.0,0
1931,32.0,-259.0,-88.0,0
1932,29.0,-259.0,-88.0,0
1933,28.0,-257.0,-89.0,0
1934,25.0,-251.0,-86.0,0
1935,23.0,-252.0,-86.0,0
1936,25.0,-251.0,-87.0,0
1937,24.0,-250.0,-85.0,0
1938,20.0,-243.0,-83.0,0
1939,23.0,-242.0,-76.0,0
1940,23.0,-238.0,-69.0,0
1941,27.0,-237.0,-73.0,0
1942,25.0,-235.0,-72.0,0
1943,25.0,-232.0,-72.0,0
1944,25.0,-232.0,-70.0,0
1945,24.0,-231.0,-68.0,0
1946,26.0,-234.0,-73.0,0
1947,26.0,-232.0,-72.0,0
1948,26.0,-235.0,-71.0,0
1949,28.0,-235.0,-74.0,0
1950,28.0,-240.0,-78.0,0
1951,28.0,-243.0,-75.0,0
1952,28.0,-246.0,-80.0,0
1953,25.0,-249.0,-79.0,0
1954,27.0,-251.0,-79.0,0
1955,23.0,-254.0,-77.0,0
1956,22.0,-258.0,-83.0,0
1957,22.0,-259.0,-87.0,0
1958,25.0,-259.0,-84.0,0
1959,21.0,-260.0,-86.0,0
1960,25.0,-261.0,-86.0,0
1961,24.0,-259.0,-86.0,0
1962,28.0,-260.0,-85.0,0
1963,24.0,-257.0,-85.0,0
1964,20.0,-253.0,-87.0,0
1965,21.0,-251.0,-88.0,0
1966,21.0,-249.0,-90.0,0
1967,20.0,-247.0,-91.0,0
1968,21.0,-244.0,-88.0,0
1969,21.0,-242.0,-83.0,0
1970,20.0,-243.0,-83.0,0
1971,19.0,-239.0,-82.0,0
1972,20.0,-240.0,-82.0,0
1973,21.0,-243.0,-77.0,0
1974,21.0,-240.0,-75.0,0
1975,22.0,-239.0,-76.0,0
1976,24.0,-240.0,-66.0,0
1977,24.0,-240.0,-66.0,0
1978,24.0,-240.0,-66.0,0
1979,24.0,-240.0,-70.0,0
1980,21.0,-240.0,-71.0,0
1981,23.0,-240.0,-70.0,0
1982,20.0,-241.0,-69.0,0
1983,28.0,-244.0,-70.0,0
1984,27.0,-242.0,-68.0,0
1985,27.0,-242.0,-71.0,0
1986,28.0,-244.0,-78.0,0
1987,31.0,-248.0,-71.0,0
1988,30.0,-247.0,-70.0,0
1989,31.0,-254.0,-74.0,0
1990,32.0,-252.0,-72.0,0
1991,32.0,-249.0,-73.0,0
1992,33.0,-251.0,-73.0,0
1993,33.0,-253.0,-74.0,0
1994,31.0,-251.0,-73.0,0
1995,31.0,-252.0,-75.0,0
1996,29.0,-251.0,-76.0,0
1997,31.0,-252.0,-79.0,0
1998,30.0,-249.0,-79.0,0
1999,28.0,-250.0,-76.0,0
2000,25.0,-249.0,-77.0,0
2001,26.0,-249.0,-79.0,0
2002,25.0,-249.0,-75.0,0
2003,25.0,-250.0,-75.0,0
2004,25.0,-249.0,-78.0,0
2005,22.0,-244.0,-75.0,0
2006,23.0,-245.0,-75.0,0
2007,21.0,-244.0,-73.0,0
2008,23.0,-246.0,-69.0,0
2009,23.0,-240.0,-71.0,0
2010,21.0,-242.0,-70.0,0
2011,22.0,-235.0,-69.0,0
2012,23.0,-239.0,-67.0,0
2013,22.0,-239.0,-71.0,0
2014,24.0,-240.0,-68.0,0
2015,23.0,-240.0,-69.0,0
2016,25.0,-240.0,-68.0,0
2017,22.0,-241.0,-69.0,0
2018,23.0,-240.0,-68.0,0
2019,20.0,-241.0,-68.0,0
2020,23.0,-244.0,-69.0,0
2021,23.0,-243.0,-67.0,0
2022,25.0,-244.0,-66.0,0
2023,21.0,-249.0,-65.0,0
2024,20.0,-247.0,-65.0,0
2025,23.0,-247.0,-69.0,0
2026,23.0,-248.0,-69.0,0
2027,21.0,-249.0,-71.0,0
2028,19.0,-246.0,-66.0,0
2029,20.0,-247.0,-69.0,0
2030,22.0,-246.0,-66.0,0
2031,20.0,-246.0,-69.0,0
2032,24.0,-248.0,-72.0,0
2033,20.0,-245.0,-71.0,0
2034,19.0,-247.0,-68.0,0
2035,18.0,-248.0,-69.0,0
2036,20.0,-248.0,-69.0,0
2037,20.0,-247.0,-71.0,0
2038,19.0,-249.0,-67.0,0
2039,16.0,-245.0,-69.0,0
2040,17.0,-245.0,-67.0,0
2041,17.0,-245.0,-68.0,0
2042,21.0,-245.0,-70.0,0
2043,18.0,-245.0,-70.0,0
2044,19.0,-250.0,-71.0,0
2045,18.0,-247.0,-69.0,0
2046,17.0,-248.0,-65.0,0
2047,19.0,-255.0,-69.0,0
2048,19.0,-252.0,-70.0,0
2049,18.0,-252.0,-67.0,0
2050,14.0,-251.0,-69.0,0
2051,17.0,-257.0,-64.0,0
2052,17.0,-252.0,-69.0,0
2053,19.0,-257.0,-69.0,0
2054,18.0,-255.0,-67.0,0
2055,21.0,-254.0,-69.0,0
2056,19.0,-254.0,-70.0,0
2057,22.0,-254.0,-70.0,0
2058,19.0,-252.0,-72.0,0
2059,22.0,-251.0,-68.0,0
2060,20.0,-250.0,-71.0,0
2061,22.0,-252.0,-69.0,0
2062,22.0,-250.0,-64.0,0
2063,23.0,-249.0,-66.0,0
2064,21.0,-248.0,-69.0,0
2065,25.0,-250.0,-66.0,0
2066,21.0,-251.0,-68.0,0
2067,20.0,-247.0,-71.0,0
2068,22.0,-248.0,-68.0,0
2069,19.0,-248.0,-70.0,0
2070,20.0,-249.0,-66.0,0
2071,18.0,-248.0,-70.0,0
2072,17.0,-248.0,-70.0,0
2073,18.0,-246.0,-65.0,0
2074,19.0,-249.0,-63.0,0
2075,19.0,-253.0,-65.0,0
2076,17.0,-247.0,-62.0,0
2077,20.0,-251.0,-68.0,0
2078,16.0,-251.0,-67.0,0
2079,17.0,-248.0,-62.0,0
2080,17.0,-252.0,-66.0,0
2081,17.0,-254.0,-69.0,0
2082,18.0,-250.0,-67.0,0
2083,23.0,-251.0,-65.0,0
2084,18.0,-255.0,-65.0,0
2085,17.0,-251.0,-67.0,0
2086,16.0,-251.0,-62.0,0
2087,20.0,-248.0,-60.0,0
2088,20.0,-248.0,-60.0,0
2089,18.0,-252.0,-62.0,0
2090,18.0,-248.0,-62.0,0
2091,19.0,-248.0,-64.0,0
2092,19.0,-247.0,-64.0,0
2093,18.0,-250.0,-65.0,0
2094,20.0,-250.0,-62.0,0
2095,20.0,-247.0,-61.0,0
2096,19.0,-249.0,-61.0,0
2097,18.0,-252.0,-61.0,0
2098,21.0,-252.0,-64.0,0
2099,19.0,-251.0,-61.0,0
2100,22.0,-254.0,-62.0,0
2101,20.0,-251.0,-58.0,0
2102,20.0,-253.0,-63.0,0
2103,19.0,-251.0,-64.0,0
2104,20.0,-251.0,-63.0,0
2105,21.0,-251.0,-62.0,0
2106,21.0,-250.0,-65.0,0
2107,16.0,-249.0,-63.0,0
2108,21.0,-250.0,-67.0,0
2109,20.0,-249.0,-64.0,0
2110,16.0,-247.0,-63.0,0
2111,20.0,-250.0,-61.0,0
2112,20.0,-253.0,-62.0,0
2113,18.0,-250.0,-63.0,0
2114,18.0,-247.0,-65.0,0
2115,15.0,-246.0,-68.0,0
2116,16.0,-248.0,-61.0,0
2117,14.0,-247.0,-60.0,0
2118,12.0,-243.0,-63.0,0
2119,17.0,-245.0,-66.0,0
2120,16.0,-247.0,-62.0,0
2121,17.0,-249.0,-60.0,0
2122,13.0,-248.0,-63.0,0
2123,17.0,-249.0,-66.0,0
2124,16.0,-246.0,-65.0,0
2125,20.0,-248.0,-62.0,0
2126,14.0,-247.0,-60.0,0
2127,17.0,-247.0,-60.0,0
2128,17.0,-247.0,-60.0,0
2129,19.0,-252.0,-61.0,0
2130,20.0,-253.0,-62.0,0
2131,18.0,-251.0,-59.0,0
2132,17.0,-250.0,-58.0,0
2133,21.0,-250.0,-60.0,0
2134,20.0,-253.0,-63.0,0
2135,19.0,-250.0,-64.0,0
2136,18.0,-252.0,-61.0,0
2137,18.0,-248.0,-63.0,0
2138,14.0,-250.0,-63.0,0
2139,16.0,-247.0,-60.0,0
2140,17.0,-250.0,-63.0,0
2141,16.0,-250.0,-60.0,0
2142,13.0,-251.0,-63.0,0
2143,15.0,-249.0,-64.0,0
2144,15.0,-252.0,-63.0,0
2145,20.0,-252.0,-62.0,0
2146,16.0,-253.0,-63.0,0
2147,14.0,-256.0,-58.0,0
2148,19.0,-254.0,-60.0,0
2149,12.0,-253.0,-55.0,0
2150,13.0,-245.0,-61.0,0
2151,23.0,-251.0,-43.0,0
2152,21.0,-259.0,-63.0,0
2153,20.0,-252.0,-68.0,0
2154,20.0,-252.0,-63.0,0
2155,23.0,-252.0,-64.0,0
2156,23.0,-254.0,-65.0,0
2157,22.0,-252.0,-61.0,0
2158,22.0,-252.0,-64.0,0
2159,22.0,-253.0,-62.0,0
2160,20.0,-250.0,-67.0,0
2161,19.0,-250.0,-62.0,0
2162,20.0,-250.0,-65.0,0
2163,19.0,-249.0,-62.0,0
2164,24.0,-251.0,-61.0,0
2165,18.0,-250.0,-59.0,0
2166,19.0,-248.0,-61.0,0
2167,24.0,-249.0,-58.0,0
2168,21.0,-246.0,-62.0,0
2169,19.0,-249.0,-61.0,0
2170,21.0,-249.0,-58.0,0
2171,19.0,-248.0,-58.0,0
2172,22.0,-250.0,-60.0,0
2173,21.0,-246.0,-60.0,0
2174,24.0,-248.0,-56.0,0
2175,21.0,-246.0,-56.0,0
2176,21.0,-245.0,-58.0,0
2177,25.0,-251.0,-55.0,0
2178,22.0,-248.0,-54.0,0
2179,21.0,-245.0,-54.0,0
2180,20.0,-247.0,-53.0,0
2181,22.0,-249.0,-51.0,0
2182,22.0,-247.0,-53.0,0
2183,21.0,-249.0,-52.0,0
2184,21.0,-244.0,-51.0,0
2185,18.0,-244.0,-55.0,0
2186,20.0,-243.0,-54.0,0
2187,19.0,-245.0,-53.0,0
2188,16.0,-244.0,-55.0,0
2189,18.0,-246.0,-54.0,0
2190,16.0,-246.0,-50.0,0
2191,17.0,-245.0,-55.0,0
2192,17.0,-246.0,-47.0,0
2193,17.0,-246.0,-52.0,0
2194,17.0,-248.0,-51.0,0
2195,18.0,-248.0,-51.0,0
2196,16.0,-250.0,-52.0,0
2197,17.0,-249.0,-54.0,0
2198,17.0,-251.0,-54.0,0
2199,20.0,-249.0,-53.0,0
2200,20.0,-250.0,-54.0,0
2201,18.0,-253.0,-55.0,0
2202,17.0,-253.0,-55.0,0
2203,19.0,-251.0,-55.0,0
2204,18.0,-253.0,-55.0,0
2205,17.0,-252.0,-57.0,0
2206,17.0,-253.0,-53.0,0
2207,17.0,-251.0,-54.0,0
2208,15.0,-254.0,-54.0,0
2209,15.0,-252.0,-56.0,0
2210,15.0,-251.0,-55.0,0
2211,18.0,-254.0,-54.0,0
2212,15.0,-253.0,-56.0,0
2213,15.0,-251.0,-54.0,0
2214,16.0,-255.0,-56.0,0
2215,16.0,-258.0,-56.0,0
2216,16.0,-256.0,-57.0,0
2217,16.0,-258.0,-56.0,0
2218,16.0,-257.0,-56.0,0
2219,15.0,-254.0,-56.0,0
2220,15.0,-255.0,-57.0,0
2221,14.0,-258.0,-55.0,0
2222,14.0,-252.0,-57.0,0
2223,16.0,-255.0,-54.0,0
2224,17.0,-255.0,-59.0,0
2225,16.0,-255.0,-57.0,0
2226,17.0,-254.0,-57.0,0
2227,16.0,-255.0,-57.0,0
2228,16.0,-257.0,-57.0,0
2229,18.0,-256.0,-55.0,0
2230,19.0,-254.0,-53.0,0
2231,20.0,-254.0,-56.0,0
2232,20.0,-253.0,-56.0,0
2233,18.0,-253.0,-56.0,0
2234,18.0,-251.0,-55.0,0
2235,17.0,-249.0,-53.0,0
2236,17.0,-248.0,-55.0,0
2237,16.0,-249.0,-56.0,0
2238,18.0,-249.0,-54.0,0
2239,15.0,-247.0,-53.0,0
2240,16.0,-251.0,-53.0,0
2241,18.0,-249.0,-53.0,0
2242,19.0,-249.0,-52.0,0
2243,16.0,-252.0,-51.0,0
2244,20.0,-251.0,-54.0,0
2245,17.0,-249.0,-56.0,0
2246,15.0,-249.0,-54.0,0
2247,17.0,-250.0,-51.0,0
2248,16.0,-249.0,-50.0,0
2249,18.0,-254.0,-54.0,0
2250,19.0,-249.0,-55.0,0
2251,20.0,-251.0,-53.0,0
2252,19.0,-248.0,-52.0,0
2253,19.0,-246.0,-52.0,0
2254,22.0,-254.0,-54.0,0
2255,19.0,-250.0,-52.0,0
2256,21.0,-251.0,-54.0,0
2257,18.0,-250.0,-52.0,0
2258,21.0,-249.0,-51.0,0
2259,22.0,-252.0,-48.0,0
2260,19.0,-249.0,-50.0,0
2261,17.0,-249.0,-49.0,0
2262,21.0,-251.0,-47.0,0
2263,14.0,-246.0,-50.0,0
2264,19.0,-251.0,-44.0,0
2265,18.0,-247.0,-48.0,0
2266,20.0,-249.0,-53.0,0
2267,15.0,-247.0,-50.0,0
2268,15.0,-247.0,-47.0,0
2269,17.0,-249.0,-51.0,0
2270,18.0,-249.0,-50.0,0
2271,15.0,-248.0,-50.0,0
2272,17.0,-251.0,-50.0,0
2273,13.0,-247.0,-54.0,0
2274,13.0,-247.0,-49.0,0
2275,15.0,-249.0,-51.0,0
2276,16.0,-249.0,-49.0,0
2277,13.0,-250.0,-54.0,0
2278,17.0,-250.0,-51.0,0
2279,17.0,-250.0,-50.0,0
2280,15.0,-250.0,-52.0,0
2281,15.0,-250.0,-52.0,0
2282,17.0,-254.0,-49.0,0
2283,19.0,-250.0,-50.0,0
2284,16.0,-251.0,-50.0,0
2285,17.0,-250.0,-50.0,0
2286,15.0,-250.0,-49.0,0
2287,17.0,-251.0,-53.0,0
2288,19.0,-250.0,-48.0,0
2289,15.0,-248.0,-53.0,0
2290,16.0,-255.0,-57.0,0
2291,15.0,-252.0,-53.0,0
2292,14.0,-253.0,-54.0,0
2293,14.0,-250.0,-54.0,0
2294,14.0,-254.0,-55.0,0
2295,14.0,-254.0,-55.0,0
2296,14.0,-253.0,-52.0,0
2297,16.0,-254.0,-53.0,0
2298,11.0,-253.0,-51.0,0
2299,14.0,-256.0,-54.0,0
2300,14.0,-254.0,-55.0,0
2301,14.0,-253.0,-55.0,0
2302,14.0,-255.0,-55.0,0
2303,15.0,-253.0,-52.0,0
2304,19.0,-249.0,-53.0,0
2305,19.0,-253.0,-54.0,0
2306,16.0,-253.0,-51.0,0
2307,17.0,-252.0,-55.0,0
2308,16.0,-253.0,-57.0,0
2309,18.0,-250.0,-56.0,0
2310,17.0,-253.0,-56.0,0
2311,17.0,-253.0,-56.0,0
2312,18.0,-254.0,-52.0,0
2313,18.0,-254.0,-56.0,0
2314,18.0,-253.0,-57.0,0
2315,16.0,-254.0,-57.0,0
2316,16.0,-257.0,-53.0,0
2317,19.0,-256.0,-54.0,0
2318,15.0,-252.0,-55.0,0
2319,17.0,-257.0,-54.0,0
2320,16.0,-255.0,-55.0,0
2321,19.0,-256.0,-54.0,0
2322,18.0,-254.0,-56.0,0
2323,17.0,-250.0,-55.0,0
2324,18.0,-252.0,-54.0,0
2325,13.0,-247.0,-56.0,0
2326,15.0,-253.0,-54.0,0
2327,17.0,-246.0,-56.0,0
2328,18.0,-247.0,-54.0,0
2329,17.0,-248.0,-52.0,0
2330,17.0,-250.0,-50.0,0
2331,19.0,-248.0,-51.0,0
2332,14.0,-246.0,-54.0,0
2333,20.0,-246.0,-51.0,0
2334,18.0,-247.0,-55.0,0
2335,19.0,-251.0,-54.0,0
2336,17.0,-245.0,-55.0,0
2337,19.0,-249.0,-52.0,0
2338,22.0,-252.0,-55.0,0
2339,20.0,-251.0,-51.0,0
2340,18.0,-252.0,-52.0,0
2341,19.0,-253.0,-49.0,0
2342,15.0,-252.0,-54.0,0
2343,20.0,-256.0,-54.0,0
2344,17.0,-253.0,-54.0,0
2345,16.0,-256.0,-54.0,0
2346,19.0,-254.0,-55.0,0
2347,18.0,-255.0,-52.0,0
2348,14.0,-251.0,-55.0,0
2349,16.0,-253.0,-54.0,0
2350,16.0,-253.0,-54.0,0
2351,17.0,-253.0,-53.0,0
2352,18.0,-254.0,-56.0,0
2353,16.0,-254.0,-53.0,0
2354,19.0,-253.0,-54.0,0
2355,20.0,-253.0,-52.0,0
2356,17.0,-254.0,-55.0,0
2357,19.0,-253.0,-51.0,0
2358,19.0,-253.0,-53.0,0
2359,16.0,-251.0,-54.0,0
2360,18.0,-251.0,-50.0,0
2361,16.0,-251.0,-56.0,0
2362,21.0,-250.0,-53.0,0
2363,15.0,-252.0,-56.0,0
2364,16.0,-251.0,-55.0,0
2365,13.0,-250.0,-53.0,0
2366,16.0,-252.0,-52.0,0
2367,16.0,-250.0,-47.0,0
2368,17.0,-254.0,-54.0,0
2369,13.0,-250.0,-47.0,0
2370,16.0,-253.0,-50.0,0
2371,17.0,-254.0,-53.0,0
2372,19.0,-252.0,-53.0,0
2373,18.0,-256.0,-52.0,0
2374,15.0,-252.0,-55.0,0
2375,18.0,-252.0,-54.0,0
2376,17.0,-253.0,-56.0,0
2377,18.0,-251.0,-51.0,0
2378,17.0,-249.0,-49.0,0
2379,17.0,-249.0,-56.0,0
2380,18.0,-250.0,-52.0,0
2381,18.0,-250.0,-51.0,0
2382,20.0,-248.0,-53.0,0
2383,22.0,-252.0,-56.0,0
2384,22.0,-249.0,-51.0,0
2385,20.0,-252.0,-50.0,0
2386,24.0,-251.0,-53.0,0
2387,23.0,-252.0,-52.0,0
2388,22.0,-251.0,-54.0,0
2389,19.0,-250.0,-53.0,0
2390,22.0,-250.0,-53.0,0
2391,19.0,-253.0,-50.0,0
2392,21.0,-250.0,-53.0,0
2393,18.0,-253.0,-54.0,0
2394,19.0,-251.0,-52.0,0
2395,20.0,-252.0,-48.0,0
2396,17.0,-251.0,-52.0,0
2397,18.0,-250.0,-52.0,0
2398,17.0,-252.0,-53.0,0
2399,17.0,-251.0,-52.0,0
