,accelerometer_x,accelerometer_y,accelerometer_z,fall
0,7.0,-250.0,-78.0,0
1,4.0,-250.0,-81.0,0
2,1.0,-249.0,-79.0,0
3,1.0,-248.0,-75.0,0
4,2.0,-250.0,-75.0,0
5,1.0,-248.0,-80.0,0
6,2.0,-249.0,-79.0,0
7,3.0,-249.0,-79.0,0
8,5.0,-251.0,-74.0,0
9,3.0,-249.0,-74.0,0
10,4.0,-251.0,-75.0,0
11,0.0,-250.0,-78.0,0
12,2.0,-252.0,-76.0,0
13,3.0,-250.0,-73.0,0
14,2.0,-252.0,-79.0,0
15,4.0,-252.0,-80.0,0
16,2.0,-249.0,-77.0,0
17,1.0,-249.0,-78.0,0
18,4.0,-253.0,-78.0,0
19,0.0,-252.0,-78.0,0
20,2.0,-249.0,-78.0,0
21,4.0,-250.0,-80.0,0
22,0.0,-251.0,-78.0,0
23,3.0,-251.0,-80.0,0
24,0.0,-252.0,-76.0,0
25,3.0,-251.0,-77.0,0
26,4.0,-251.0,-77.0,0
27,3.0,-253.0,-77.0,0
28,3.0,-252.0,-78.0,0
29,1.0,-253.0,-81.0,0
30,0.0,-251.0,-75.0,0
31,0.0,-248.0,-76.0,0
32,4.0,-252.0,-77.0,0
33,4.0,-250.0,-77.0,0
34,1.0,-251.0,-76.0,0
35,4.0,-250.0,-76.0,0
36,3.0,-250.0,-77.0,0
37,3.0,-248.0,-74.0,0
38,1.0,-251.0,-77.0,0
39,-1.0,-248.0,-76.0,0
40,4.0,-249.0,-77.0,0
41,2.0,-247.0,-77.0,0
42,3.0,-248.0,-75.0,0
43,1.0,-248.0,-75.0,0
44,3.0,-248.0,-73.0,0
45,5.0,-250.0,-76.0,0
46,3.0,-248.0,-70.0,0
47,4.0,-248.0,-76.0,0
48,3.0,-248.0,-75.0,0
49,2.0,-249.0,-73.0,0
50,0.0,-249.0,-75.0,0
51,1.0,-250.0,-75.0,0
52,4.0,-248.0,-74.0,0
53,3.0,-249.0,-77.0,0
54,2.0,-249.0,-78.0,0
55,3.0,-248.0,-80.0,0
56,4.0,-249.0,-72.0,0
57,5.0,-249.0,-76.0,0
58,4.0,-251.0,-75.0,0
59,2.0,-249.0,-75.0,0
60,3.0,-250.0,-78.0,0
61,4.0,-250.0,-75.0,0
62,2.0,-252.0,-75.0,0
63,3.0,-251.0,-78.0,0
64,1.0,-247.0,-79.0,0
65,2.0,-252.0,-79.0,0
66,4.0,-252.0,-78.0,0
67,3.0,-252.0,-72.0,0
68,6.0,-253.0,-75.0,0
69,5.0,-253.0,-76.0,0
70,0.0,-253.0,-75.0,0
71,4.0,-252.0,-76.0,0
72,4.0,-251.0,-74.0,0
73,0.0,-249.0,-75.0,0
74,6.0,-252.0,-77.0,0
75,2.0,-250.0,-73.0,0
76,2.0,-250.0,-77.0,0
77,3.0,-249.0,-78.0,0
78,2.0,-248.0,-73.0,0
79,4.0,-248.0,-71.0,0
80,3.0,-249.0,-79.0,0
81,5.0,-252.0,-77.0,0
82,3.0,-250.0,-75.0,0
83,4.0,-250.0,-71.0,0
84,3.0,-248.0,-75.0,0
85,2.0,-250.0,-77.0,0
86,1.0,-250.0,-74.0,0
87,0.0,-249.0,-72.0,0
88,0.0,-250.0,-74.0,0
89,4.0,-251.0,-76.0,0
90,3.0,-252.0,-76.0,0
91,1.0,-250.0,-73.0,0
92,2.0,-252.0,-78.0,0
93,4.0,-252.0,-71.0,0
94,1.0,-251.0,-74.0,0
95,2.0,-250.0,-76.0,0
96,1.0,-249.0,-74.0,0
97,2.0,-248.0,-77.0,0
98,1.0,-249.0,-78.0,0
99,2.0,-249.0,-78.0,0
100,2.0,-248.0,-77.0,0
101,4.0,-249.0,-73.0,0
102,2.0,-250.0,-75.0,0
103,3.0,-253.0,-72.0,0
104,-1.0,-250.0,-76.0,0
105,2.0,-252.0,-76.0,0
106,2.0,-250.0,-75.0,0
107,2.0,-254.0,-74.0,0
108,3.0,-249.0,-76.0,0
109,3.0,-251.0,-76.0,0
110,3.0,-251.0,-78.0,0
111,3.0,-248.0,-76.0,0
112,3.0,-251.0,-74.0,0
113,0.0,-248.0,-78.0,0
114,1.0,-248.0,-76.0,0
115,3.0,-251.0,-75.0,0
116,3.0,-250.0,-73.0,0
117,3.0,-251.0,-75.0,0
118,6.0,-251.0,-75.0,0
119,5.0,-250.0,-71.0,0
120,6.0,-249.0,-72.0,0
121,4.0,-252.0,-72.0,0
122,4.0,-249.0,-78.0,0
123,2.0,-251.0,-76.0,0
124,4.0,-250.0,-75.0,0
125,4.0,-248.0,-78.0,0
126,2.0,-248.0,-74.0,0
127,4.0,-249.0,-75.0,0
128,3.0,-250.0,-78.0,0
129,5.0,-251.0,-77.0,0
130,2.0,-250.0,-77.0,0
131,5.0,-249.0,-76.0,0
132,4.0,-251.0,-75.0,0
133,3.0,-251.0,-73.0,0
134,6.0,-248.0,-75.0,0
135,-1.0,-248.0,-79.0,0
136,2.0,-251.0,-75.0,0
137,-1.0,-250.0,-76.0,0
138,-1.0,-249.0,-76.0,0
139,1.0,-252.0,-75.0,0
140,4.0,-248.0,-73.0,0
141,2.0,-249.0,-74.0,0
142,1.0,-250.0,-74.0,0
143,1.0,-251.0,-73.0,0
144,0.0,-250.0,-73.0,0
145,3.0,-250.0,-75.0,0
146,2.0,-252.0,-75.0,0
147,2.0,-251.0,-73.0,0
148,4.0,-249.0,-74.0,0
149,-2.0,-248.0,-76.0,0
150,5.0,-251.0,-74.0,0
151,0.0,-247.0,-77.0,0
152,2.0,-248.0,-76.0,0
153,2.0,-249.0,-72.0,0
154,1.0,-250.0,-77.0,0
155,3.0,-251.0,-75.0,0
156,1.0,-249.0,-78.0,0
157,2.0,-247.0,-73.0,0
158,1.0,-249.0,-70.0,0
159,2.0,-253.0,-70.0,0
160,-1.0,-250.0,-73.0,0
161,2.0,-251.0,-74.0,0
162,-2.0,-250.0,-75.0,0
163,1.0,-253.0,-72.0,0
164,1.0,-250.0,-74.0,0
165,1.0,-250.0,-73.0,0
166,-2.0,-250.0,-72.0,0
167,1.0,-250.0,-74.0,0
168,3.0,-249.0,-75.0,0
169,3.0,-251.0,-69.0,0
170,3.0,-251.0,-74.0,0
171,3.0,-248.0,-74.0,0
172,-2.0,-249.0,-73.0,0
173,-1.0,-250.0,-71.0,0
174,3.0,-249.0,-75.0,0
175,1.0,-250.0,-71.0,0
176,1.0,-250.0,-70.0,0
177,3.0,-253.0,-72.0,0
178,2.0,-250.0,-69.0,0
179,6.0,-250.0,-68.0,0
180,1.0,-251.0,-71.0,0
181,1.0,-250.0,-73.0,0
182,5.0,-250.0,-74.0,0
183,2.0,-250.0,-70.0,0
184,-1.0,-251.0,-70.0,0
185,6.0,-253.0,-76.0,0
186,3.0,-250.0,-65.0,0
187,-1.0,-250.0,-70.0,0
188,1.0,-252.0,-70.0,0
189,2.0,-248.0,-68.0,0
190,-1.0,-251.0,-69.0,0
191,3.0,-250.0,-69.0,0
192,3.0,-253.0,-67.0,0
193,1.0,-252.0,-73.0,0
194,1.0,-249.0,-68.0,0
195,2.0,-252.0,-67.0,0
196,1.0,-250.0,-69.0,0
197,0.0,-249.0,-74.0,0
198,2.0,-249.0,-72.0,0
199,1.0,-250.0,-70.0,0
200,2.0,-250.0,-71.0,0
201,4.0,-251.0,-70.0,0
202,3.0,-250.0,-70.0,0
203,2.0,-251.0,-73.0,0
204,2.0,-252.0,-72.0,0
205,2.0,-252.0,-68.0,0
206,4.0,-252.0,-71.0,0
207,5.0,-252.0,-72.0,0
208,3.0,-251.0,-70.0,0
209,1.0,-252.0,-69.0,0
210,6.0,-252.0,-69.0,0
211,2.0,-253.0,-72.0,0
212,2.0,-249.0,-67.0,0
213,3.0,-252.0,-70.0,0
214,3.0,-254.0,-72.0,0
215,2.0,-250.0,-67.0,0
216,2.0,-252.0,-71.0,0
217,2.0,-252.0,-65.0,0
218,-2.0,-249.0,-71.0,0
219,3.0,-248.0,-70.0,0
220,2.0,-251.0,-72.0,0
221,1.0,-249.0,-73.0,0
222,-7.0,-253.0,-67.0,0
223,1.0,-252.0,-71.0,0
224,1.0,-250.0,-70.0,0
225,2.0,-251.0,-69.0,0
226,2.0,-252.0,-70.0,0
227,3.0,-250.0,-70.0,0
228,4.0,-250.0,-70.0,0
229,3.0,-250.0,-65.0,0
230,2.0,-249.0,-73.0,0
231,0.0,-250.0,-68.0,0
232,3.0,-249.0,-64.0,0
233,0.0,-252.0,-70.0,0
234,2.0,-251.0,-68.0,0
235,-1.0,-251.0,-68.0,0
236,3.0,-252.0,-66.0,0
237,0.0,-248.0,-71.0,0
238,0.0,-250.0,-68.0,0
239,-1.0,-248.0,-71.0,0
240,-1.0,-249.0,-71.0,0
241,2.0,-248.0,-64.0,0
242,-1.0,-249.0,-71.0,0
243,0.0,-251.0,-72.0,0
244,6.0,-259.0,-73.0,0
245,2.0,-251.0,-71.0,0
246,3.0,-254.0,-68.0,0
247,0.0,-253.0,-69.0,0
248,1.0,-254.0,-70.0,0
249,1.0,-254.0,-65.0,0
250,2.0,-255.0,-71.0,0
251,3.0,-255.0,-70.0,0
252,5.0,-252.0,-70.0,0
253,4.0,-254.0,-72.0,0
254,2.0,-253.0,-71.0,0
255,3.0,-250.0,-73.0,0
256,4.0,-251.0,-76.0,0
257,0.0,-251.0,-72.0,0
258,3.0,-251.0,-71.0,0
259,3.0,-249.0,-75.0,0
260,5.0,-249.0,-74.0,0
261,1.0,-249.0,-68.0,0
262,4.0,-252.0,-72.0,0
263,2.0,-251.0,-73.0,0
264,3.0,-251.0,-71.0,0
265,-1.0,-251.0,-70.0,0
266,1.0,-254.0,-75.0,0
267,2.0,-253.0,-69.0,0
268,6.0,-251.0,-71.0,0
269,0.0,-249.0,-72.0,0
270,2.0,-249.0,-68.0,0
271,4.0,-250.0,-71.0,0
272,3.0,-249.0,-72.0,0
273,0.0,-251.0,-68.0,0
274,2.0,-251.0,-71.0,0
275,4.0,-250.0,-71.0,0
276,0.0,-249.0,-70.0,0
277,1.0,-249.0,-70.0,0
278,3.0,-252.0,-72.0,0
279,3.0,-249.0,-68.0,0
280,3.0,-249.0,-73.0,0
281,-1.0,-248.0,-70.0,0
282,3.0,-247.0,-70.0,0
283,4.0,-248.0,-69.0,0
284,4.0,-249.0,-69.0,0
285,4.0,-248.0,-68.0,0
286,6.0,-248.0,-69.0,0
287,4.0,-249.0,-70.0,0
288,3.0,-254.0,-67.0,0
289,2.0,-248.0,-72.0,0
290,6.0,-249.0,-71.0,0
291,5.0,-249.0,-71.0,0
292,7.0,-248.0,-70.0,0
293,6.0,-249.0,-68.0,0
294,4.0,-246.0,-69.0,0
295,7.0,-248.0,-69.0,0
296,4.0,-248.0,-68.0,0
297,7.0,-247.0,-66.0,0
298,7.0,-249.0,-67.0,0
299,6.0,-249.0,-69.0,0
300,6.0,-248.0,-68.0,0
301,5.0,-249.0,-72.0,0
302,5.0,-248.0,-69.0,0
303,4.0,-249.0,-72.0,0
304,9.0,-246.0,-71.0,0
305,5.0,-249.0,-65.0,0
306,7.0,-248.0,-71.0,0
307,6.0,-252.0,-71.0,0
308,4.0,-249.0,-69.0,0
309,6.0,-247.0,-74.0,0
310,6.0,-249.0,-77.0,0
311,8.0,-249.0,-73.0,0
312,3.0,-247.0,-69.0,0
313,3.0,-247.0,-70.0,0
314,3.0,-248.0,-70.0,0
315,4.0,-252.0,-70.0,0
316,4.0,-249.0,-67.0,0
317,3.0,-252.0,-70.0,0
318,7.0,-251.0,-71.0,0
319,3.0,-248.0,-71.0,0
320,0.0,-248.0,-74.0,0
321,2.0,-248.0,-71.0,0
322,2.0,-247.0,-72.0,0
323,4.0,-249.0,-77.0,0
324,4.0,-246.0,-74.0,0
325,5.0,-249.0,-79.0,0
326,5.0,-247.0,-81.0,0
327,3.0,-247.0,-76.0,0
328,3.0,-249.0,-75.0,0
329,1.0,-250.0,-75.0,0
330,5.0,-251.0,-76.0,0
331,-2.0,-247.0,-66.0,0
332,3.0,-248.0,-75.0,0
333,6.0,-249.0,-73.0,0
334,4.0,-249.0,-76.0,0
335,5.0,-248.0,-77.0,0
336,3.0,-249.0,-79.0,0
337,4.0,-248.0,-80.0,0
338,5.0,-248.0,-78.0,0
339,5.0,-248.0,-83.0,0
340,4.0,-244.0,-85.0,0
341,4.0,-246.0,-84.0,0
342,5.0,-247.0,-83.0,0
343,4.0,-244.0,-83.0,0
344,7.0,-246.0,-80.0,0
345,7.0,-248.0,-81.0,0
346,6.0,-246.0,-80.0,0
347,5.0,-245.0,-79.0,0
348,6.0,-248.0,-81.0,0
349,4.0,-249.0,-83.0,0
350,1.0,-248.0,-80.0,0
351,3.0,-250.0,-84.0,0
352,1.0,-250.0,-82.0,0
353,5.0,-250.0,-82.0,0
354,5.0,-254.0,-81.0,0
355,3.0,-251.0,-81.0,0
356,0.0,-249.0,-79.0,0
357,1.0,-248.0,-82.0,0
358,1.0,-252.0,-85.0,0
359,1.0,-252.0,-81.0,0
360,-4.0,-249.0,-86.0,0
361,-6.0,-249.0,-85.0,0
362,-6.0,-249.0,-91.0,0
363,-9.0,-249.0,-91.0,0
364,-5.0,-255.0,-90.0,0
365,-8.0,-253.0,-91.0,0
366,-9.0,-254.0,-90.0,0
367,-11.0,-256.0,-92.0,0
368,-7.0,-257.0,-89.0,0
369,-8.0,-256.0,-91.0,0
370,-8.0,-256.0,-90.0,0
371,-5.0,-257.0,-90.0,0
372,-6.0,-256.0,-88.0,0
373,-7.0,-256.0,-87.0,0
374,-4.0,-253.0,-91.0,0
375,0.0,-262.0,-86.0,0
376,-1.0,-256.0,-89.0,0
377,-4.0,-254.0,-95.0,0
378,-1.0,-253.0,-93.0,0
379,2.0,-252.0,-95.0,0
380,0.0,-252.0,-92.0,0
381,2.0,-253.0,-90.0,0
382,0.0,-254.0,-93.0,0
383,-1.0,-250.0,-89.0,0
384,-2.0,-250.0,-91.0,0
385,-2.0,-248.0,-92.0,0
386,-2.0,-247.0,-88.0,0
387,0.0,-248.0,-91.0,0
388,-2.0,-248.0,-87.0,0
389,-3.0,-248.0,-90.0,0
390,0.0,-248.0,-92.0,0
391,0.0,-247.0,-91.0,0
392,0.0,-247.0,-90.0,0
393,1.0,-244.0,-90.0,0
394,0.0,-244.0,-89.0,0
395,0.0,-244.0,-91.0,0
396,6.0,-246.0,-93.0,0
397,8.0,-243.0,-94.0,0
398,2.0,-246.0,-88.0,0
399,2.0,-244.0,-90.0,0
400,5.0,-246.0,-92.0,0
401,7.0,-247.0,-92.0,0
402,3.0,-246.0,-92.0,0
403,4.0,-246.0,-93.0,0
404,5.0,-247.0,-94.0,0
405,5.0,-248.0,-97.0,0
406,6.0,-249.0,-95.0,0
407,9.0,-249.0,-92.0,0
408,4.0,-248.0,-98.0,0
409,6.0,-250.0,-95.0,0
410,7.0,-251.0,-98.0,0
411,5.0,-250.0,-93.0,0
412,7.0,-249.0,-94.0,0
413,6.0,-249.0,-95.0,0
414,7.0,-249.0,-96.0,0
415,10.0,-251.0,-95.0,0
416,5.0,-249.0,-88.0,0
417,8.0,-248.0,-89.0,0
418,10.0,-248.0,-106.0,0
419,10.0,-248.0,-94.0,0
420,11.0,-247.0,-93.0,0
421,8.0,-247.0,-93.0,0
422,10.0,-245.0,-98.0,0
423,9.0,-247.0,-94.0,0
424,12.0,-250.0,-94.0,0
425,11.0,-245.0,-93.0,0
426,11.0,-248.0,-91.0,0
427,12.0,-248.0,-90.0,0
428,8.0,-247.0,-93.0,0
429,8.0,-246.0,-92.0,0
430,8.0,-247.0,-92.0,0
431,1.0,-245.0,-94.0,0
432,4.0,-246.0,-89.0,0
433,5.0,-245.0,-92.0,0
434,4.0,-247.0,-96.0,0
435,3.0,-245.0,-96.0,0
436,2.0,-244.0,-99.0,0
437,0.0,-242.0,-100.0,0
438,-1.0,-242.0,-99.0,0
439,5.0,-245.0,-100.0,0
440,4.0,-244.0,-95.0,0
441,1.0,-247.0,-95.0,0
442,4.0,-247.0,-98.0,0
443,3.0,-245.0,-96.0,0
444,0.0,-245.0,-98.0,0
445,3.0,-247.0,-97.0,0
446,3.0,-245.0,-97.0,0
447,2.0,-246.0,-96.0,0
448,5.0,-248.0,-94.0,0
449,1.0,-247.0,-99.0,0
450,1.0,-248.0,-97.0,0
451,3.0,-248.0,-99.0,0
452,1.0,-249.0,-98.0,0
453,2.0,-247.0,-98.0,0
454,5.0,-249.0,-99.0,0
455,3.0,-248.0,-99.0,0
456,2.0,-247.0,-101.0,0
457,6.0,-249.0,-98.0,0
458,2.0,-247.0,-100.0,0
459,4.0,-248.0,-96.0,0
460,5.0,-246.0,-101.0,0
461,4.0,-245.0,-104.0,0
462,4.0,-244.0,-98.0,0
463,6.0,-247.0,-99.0,0
464,5.0,-244.0,-95.0,0
465,6.0,-247.0,-95.0,0
466,7.0,-247.0,-98.0,0
467,8.0,-247.0,-95.0,0
468,5.0,-246.0,-98.0,0
469,7.0,-247.0,-101.0,0
470,6.0,-248.0,-97.0,0
471,4.0,-247.0,-99.0,0
472,7.0,-248.0,-96.0,0
473,8.0,-245.0,-99.0,0
474,6.0,-247.0,-95.0,0
475,3.0,-246.0,-94.0,0
476,7.0,-248.0,-92.0,0
477,6.0,-245.0,-92.0,0
478,8.0,-249.0,-94.0,0
479,6.0,-246.0,-93.0,0
480,5.0,-248.0,-95.0,0
481,7.0,-246.0,-93.0,0
482,7.0,-246.0,-92.0,0
483,6.0,-247.0,-99.0,0
484,1.0,-242.0,-102.0,0
485,8.0,-245.0,-98.0,0
486,8.0,-246.0,-99.0,0
487,9.0,-247.0,-102.0,0
488,8.0,-247.0,-94.0,0
489,8.0,-247.0,-95.0,0
490,9.0,-247.0,-96.0,0
491,9.0,-247.0,-99.0,0
492,10.0,-245.0,-101.0,0
493,10.0,-249.0,-95.0,0
494,12.0,-246.0,-96.0,0
495,11.0,-247.0,-98.0,0
496,8.0,-245.0,-103.0,0
497,10.0,-248.0,-98.0,0
498,8.0,-246.0,-99.0,0
499,7.0,-246.0,-95.0,0
500,5.0,-247.0,-96.0,0
501,8.0,-247.0,-96.0,0
502,12.0,-247.0,-95.0,0
503,6.0,-249.0,-97.0,0
504,9.0,-249.0,-95.0,0
505,6.0,-245.0,-95.0,0
506,5.0,-247.0,-93.0,0
507,9.0,-246.0,-98.0,0
508,6.0,-245.0,-94.0,0
509,8.0,-247.0,-94.0,0
510,6.0,-245.0,-96.0,0
511,9.0,-245.0,-95.0,0
512,6.0,-249.0,-98.0,0
513,6.0,-247.0,-95.0,0
514,10.0,-248.0,-97.0,0
515,7.0,-247.0,-96.0,0
516,8.0,-248.0,-98.0,0
517,8.0,-249.0,-101.0,0
518,10.0,-249.0,-98.0,0
519,6.0,-250.0,-100.0,0
520,9.0,-250.0,-96.0,0
521,9.0,-254.0,-97.0,0
522,7.0,-251.0,-95.0,0
523,10.0,-251.0,-97.0,0
524,9.0,-254.0,-99.0,0
525,12.0,-253.0,-95.0,0
526,11.0,-251.0,-101.0,0
527,14.0,-250.0,-91.0,0
528,10.0,-250.0,-96.0,0
529,10.0,-251.0,-97.0,0
530,8.0,-248.0,-98.0,0
531,10.0,-247.0,-95.0,0
532,11.0,-250.0,-94.0,0
533,9.0,-248.0,-93.0,0
534,9.0,-247.0,-91.0,0
535,5.0,-248.0,-91.0,0
536,7.0,-248.0,-96.0,0
537,10.0,-249.0,-91.0,0
538,11.0,-251.0,-92.0,0
539,11.0,-252.0,-90.0,0
540,9.0,-252.0,-91.0,0
541,11.0,-253.0,-94.0,0
542,9.0,-252.0,-92.0,0
543,6.0,-249.0,-93.0,0
544,12.0,-251.0,-91.0,0
545,7.0,-250.0,-86.0,0
546,6.0,-249.0,-89.0,0
547,7.0,-248.0,-87.0,0
548,6.0,-245.0,-85.0,0
549,5.0,-252.0,-89.0,0
550,10.0,-244.0,-89.0,0
551,10.0,-240.0,-86.0,0
552,10.0,-243.0,-85.0,0
553,8.0,-241.0,-86.0,0
554,8.0,-242.0,-84.0,0
555,6.0,-243.0,-92.0,0
556,8.0,-244.0,-90.0,0
557,5.0,-244.0,-88.0,0
558,8.0,-247.0,-92.0,0
559,8.0,-246.0,-89.0,0
560,1.0,-248.0,-93.0,0
561,6.0,-248.0,-93.0,0
562,6.0,-246.0,-95.0,0
563,7.0,-249.0,-97.0,0
564,7.0,-248.0,-92.0,0
565,7.0,-249.0,-91.0,0
566,1.0,-245.0,-94.0,0
567,5.0,-248.0,-98.0,0
568,5.0,-248.0,-96.0,0
569,7.0,-249.0,-98.0,0
570,2.0,-248.0,-99.0,0
571,4.0,-247.0,-97.0,0
572,2.0,-250.0,-98.0,0
573,5.0,-250.0,-97.0,0
574,7.0,-249.0,-100.0,0
575,6.0,-248.0,-100.0,0
576,5.0,-249.0,-99.0,0
577,3.0,-248.0,-100.0,0
578,3.0,-251.0,-105.0,0
579,2.0,-250.0,-101.0,0
580,8.0,-247.0,-108.0,0
581,10.0,-250.0,-107.0,0
582,12.0,-247.0,-110.0,0
583,13.0,-246.0,-115.0,0
584,12.0,-242.0,-114.0,0
585,12.0,-240.0,-113.0,0
586,10.0,-241.0,-114.0,0
587,8.0,-239.0,-115.0,0
588,7.0,-237.0,-116.0,0
589,8.0,-235.0,-117.0,0
590,10.0,-232.0,-119.0,0
591,9.0,-229.0,-121.0,0
592,7.0,-221.0,-120.0,0
593,11.0,-222.0,-125.0,0
594,11.0,-216.0,-127.0,0
595,14.0,-213.0,-127.0,0
596,13.0,-204.0,-126.0,0
597,13.0,-198.0,-131.0,0
598,16.0,-189.0,-131.0,0
599,17.0,-179.0,-137.0,0
600,18.0,-173.0,-139.0,0
601,15.0,-163.0,-144.0,0
602,17.0,-148.0,-144.0,0
603,17.0,-137.0,-145.0,0
604,19.0,-129.0,-139.0,0
605,19.0,-123.0,-135.0,0
606,13.0,-114.0,-123.0,0
607,10.0,-108.0,-112.0,0
608,10.0,-108.0,-93.0,0
609,8.0,-101.0,-76.0,0
610,6.0,-102.0,-59.0,1
611,6.0,-104.0,-42.0,1
612,2.0,-104.0,-27.0,1
613,-1.0,-104.0,-19.0,1
614,-10.0,-107.0,-1.0,1
615,-7.0,-110.0,7.0,1
616,-10.0,-110.0,9.0,1
617,-15.0,-114.0,15.0,1
618,-19.0,-120.0,10.0,1
619,-28.0,-121.0,7.0,1
620,-33.0,-121.0,-7.0,1
621,-39.0,-123.0,-21.0,1
622,-40.0,-123.0,-46.0,1
623,-43.0,-123.0,-63.0,1
624,-44.0,-123.0,-81.0,1
625,-45.0,-120.0,-97.0,1
626,-45.0,-121.0,-107.0,1
627,-41.0,-122.0,-111.0,1
628,-33.0,-126.0,-116.0,1
629,-31.0,-130.0,-117.0,1
630,-24.0,-137.0,-112.0,1
631,-16.0,-143.0,-100.0,1
632,-12.0,-154.0,-84.0,1
633,-5.0,-166.0,-75.0,1
634,3.0,-181.0,-64.0,1
635,13.0,-203.0,-44.0,1
636,22.0,-216.0,-36.0,1
637,30.0,-234.0,-31.0,1
638,33.0,-253.0,-32.0,1
639,36.0,-275.0,-37.0,1
640,47.0,-291.0,-55.0,1
641,48.0,-301.0,-74.0,1
642,48.0,-309.0,-95.0,1
643,48.0,-314.0,-121.0,1
644,45.0,-315.0,-141.0,1
645,45.0,-319.0,-161.0,1
646,37.0,-317.0,-173.0,1
647,27.0,-317.0,-182.0,1
648,25.0,-325.0,-186.0,1
649,19.0,-334.0,-184.0,1
650,17.0,-349.0,-182.0,1
651,14.0,-365.0,-179.0,1
652,10.0,-384.0,-169.0,1
653,10.0,-407.0,-179.0,1
654,11.0,-428.0,-192.0,1
655,9.0,-443.0,-211.0,1
656,6.0,-454.0,-246.0,1
657,3.0,-465.0,-274.0,1
658,5.0,-470.0,-302.0,1
659,9.0,-475.0,-318.0,1
660,10.0,-477.0,-326.0,1
661,10.0,-482.0,-322.0,1
662,4.0,-489.0,-311.0,1
663,5.0,-503.0,-293.0,1
664,7.0,-510.0,-286.0,1
665,15.0,-521.0,-280.0,1
666,22.0,-530.0,-282.0,1
667,27.0,-538.0,-283.0,1
668,29.0,-544.0,-286.0,1
669,32.0,-553.0,-291.0,1
670,31.0,-560.0,-288.0,1
671,35.0,-565.0,-292.0,1
672,38.0,-568.0,-295.0,1
673,50.0,-575.0,-295.0,1
674,60.0,-577.0,-291.0,1
675,72.0,-575.0,-293.0,1
676,77.0,-577.0,-287.0,1
677,79.0,-576.0,-283.0,1
678,79.0,-577.0,-280.0,1
679,80.0,-585.0,-271.0,1
680,78.0,-596.0,-276.0,1
681,77.0,-606.0,-274.0,1
682,67.0,-621.0,-274.0,1
683,50.0,-626.0,-267.0,1
684,33.0,-626.0,-257.0,1
685,21.0,-621.0,-250.0,1
686,12.0,-608.0,-246.0,1
687,4.0,-586.0,-251.0,1
688,0.0,-563.0,-259.0,1
689,-5.0,-525.0,-265.0,1
690,-17.0,-487.0,-268.0,1
691,-19.0,-452.0,-268.0,1
692,-25.0,-412.0,-267.0,1
693,-31.0,-369.0,-273.0,1
694,-36.0,-331.0,-270.0,1
695,-35.0,-296.0,-261.0,1
696,-34.0,-264.0,-248.0,1
697,-33.0,-226.0,-226.0,1
698,-28.0,-197.0,-203.0,1
699,-31.0,-161.0,-168.0,1
700,-25.0,-125.0,-132.0,1
701,-25.0,-94.0,-103.0,1
702,-24.0,-60.0,-76.0,1
703,-26.0,-30.0,-62.0,1
704,-28.0,6.0,-57.0,1
705,-35.0,34.0,-60.0,1
706,-47.0,68.0,-69.0,1
707,-52.0,94.0,-82.0,1
708,-58.0,125.0,-90.0,1
709,-58.0,148.0,-91.0,1
710,-62.0,175.0,-95.0,1
711,-64.0,194.0,-91.0,1
712,-71.0,210.0,-85.0,1
713,-73.0,223.0,-84.0,1
714,-71.0,240.0,-96.0,1
715,-56.0,252.0,-97.0,1
716,-53.0,243.0,-135.0,1
717,-68.0,206.0,-185.0,1
718,-33.0,140.0,-207.0,1
719,4.0,84.0,-182.0,1
720,2.0,42.0,-146.0,1
721,9.0,14.0,-111.0,1
722,15.0,-5.0,-80.0,1
723,16.0,-8.0,-59.0,1
724,15.0,-12.0,-60.0,1
725,15.0,-22.0,-66.0,1
726,16.0,-36.0,-77.0,1
727,15.0,-49.0,-77.0,1
728,16.0,-55.0,-75.0,1
729,17.0,-56.0,-70.0,1
730,15.0,-57.0,-57.0,1
731,14.0,-58.0,-47.0,1
732,17.0,-65.0,-34.0,1
733,14.0,-64.0,-27.0,1
734,15.0,-64.0,-20.0,1
735,16.0,-68.0,-17.0,1
736,16.0,-65.0,-17.0,1
737,16.0,-66.0,-21.0,1
738,19.0,-59.0,-30.0,1
739,24.0,-56.0,-34.0,1
740,26.0,-48.0,-35.0,1
741,26.0,-41.0,-31.0,1
742,28.0,-33.0,-28.0,1
743,29.0,-21.0,-32.0,1
744,30.0,-9.0,-32.0,1
745,32.0,-1.0,-32.0,1
746,36.0,9.0,-29.0,1
747,35.0,20.0,-36.0,1
748,35.0,29.0,-33.0,1
749,34.0,37.0,-41.0,1
750,31.0,45.0,-42.0,1
751,30.0,45.0,-43.0,1
752,26.0,52.0,-45.0,1
753,25.0,49.0,-47.0,1
754,19.0,51.0,-51.0,1
755,19.0,48.0,-59.0,1
756,16.0,47.0,-62.0,1
757,13.0,47.0,-67.0,1
758,6.0,42.0,-78.0,1
759,2.0,41.0,-79.0,1
760,-7.0,41.0,-90.0,1
761,-8.0,39.0,-90.0,1
762,-14.0,38.0,-98.0,1
763,-16.0,33.0,-97.0,1
764,-20.0,27.0,-91.0,1
765,-7.0,10.0,-97.0,1
766,-14.0,-8.0,-80.0,1
767,-26.0,-27.0,-80.0,1
768,-25.0,-36.0,-108.0,1
769,-27.0,-45.0,-154.0,1
770,-34.0,-38.0,-203.0,1
771,-42.0,-41.0,-234.0,1
772,-50.0,-59.0,-246.0,1
773,-50.0,-79.0,-230.0,1
774,-43.0,-111.0,-212.0,1
775,-33.0,-135.0,-191.0,1
776,-12.0,-158.0,-201.0,1
777,15.0,-187.0,-244.0,1
778,42.0,-223.0,-319.0,1
779,48.0,-272.0,-389.0,1
780,31.0,-355.0,-436.0,1
781,2.0,-473.0,-430.0,1
782,-24.0,-622.0,-393.0,1
783,-18.0,-813.0,-322.0,1
784,1.0,-993.0,-254.0,1
785,55.0,-1121.0,-207.0,1
786,118.0,-1128.0,-268.0,1
787,174.0,-1062.0,-405.0,1
788,225.0,-968.0,-550.0,1
789,244.0,-877.0,-654.0,1
790,196.0,-789.0,-683.0,1
791,140.0,-712.0,-654.0,1
792,114.0,-658.0,-626.0,1
793,105.0,-600.0,-567.0,1
794,94.0,-536.0,-491.0,1
795,83.0,-460.0,-415.0,1
796,61.0,-386.0,-351.0,1
797,46.0,-329.0,-304.0,1
798,26.0,-279.0,-254.0,1
799,6.0,-246.0,-211.0,1
800,-7.0,-230.0,-167.0,1
801,-8.0,-233.0,-130.0,1
802,-10.0,-242.0,-91.0,1
803,0.0,-251.0,-59.0,1
804,9.0,-263.0,-36.0,1
805,16.0,-280.0,-30.0,1
806,16.0,-297.0,-48.0,1
807,10.0,-307.0,-69.0,1
808,10.0,-314.0,-91.0,1
809,0.0,-317.0,-118.0,1
810,-4.0,-314.0,-134.0,1
811,-13.0,-308.0,-144.0,1
812,-15.0,-289.0,-156.0,1
813,-13.0,-278.0,-164.0,1
814,-15.0,-254.0,-171.0,1
815,-16.0,-235.0,-183.0,1
816,-17.0,-212.0,-192.0,1
817,-22.0,-192.0,-194.0,1
818,-16.0,-184.0,-186.0,1
819,-10.0,-181.0,-182.0,1
820,-4.0,-178.0,-168.0,1
821,1.0,-183.0,-153.0,1
822,12.0,-196.0,-133.0,1
823,19.0,-214.0,-128.0,1
824,29.0,-233.0,-112.0,1
825,35.0,-246.0,-105.0,1
826,43.0,-262.0,-101.0,1
827,48.0,-268.0,-99.0,1
828,51.0,-275.0,-105.0,1
829,52.0,-268.0,-110.0,1
830,47.0,-263.0,-120.0,1
831,41.0,-247.0,-127.0,1
832,35.0,-228.0,-134.0,1
833,25.0,-207.0,-134.0,1
834,23.0,-192.0,-136.0,1
835,19.0,-174.0,-141.0,1
836,19.0,-159.0,-141.0,1
837,12.0,-145.0,-135.0,1
838,16.0,-139.0,-138.0,1
839,15.0,-135.0,-131.0,0
840,15.0,-130.0,-126.0,0
841,12.0,-133.0,-121.0,0
842,9.0,-141.0,-119.0,0
843,7.0,-147.0,-113.0,0
844,4.0,-156.0,-113.0,0
845,5.0,-168.0,-110.0,0
846,4.0,-176.0,-111.0,0
847,1.0,-183.0,-116.0,0
848,4.0,-189.0,-120.0,0
849,2.0,-191.0,-121.0,0
850,6.0,-193.0,-124.0,0
851,9.0,-193.0,-123.0,0
852,14.0,-195.0,-125.0,0
853,19.0,-195.0,-123.0,0
854,24.0,-201.0,-116.0,0
855,29.0,-206.0,-113.0,0
856,31.0,-214.0,-110.0,0
857,37.0,-221.0,-106.0,0
858,39.0,-225.0,-108.0,0
859,46.0,-231.0,-106.0,0
860,47.0,-232.0,-113.0,0
861,47.0,-232.0,-119.0,0
862,48.0,-233.0,-127.0,0
863,47.0,-232.0,-136.0,0
864,46.0,-232.0,-144.0,0
865,48.0,-231.0,-151.0,0
866,40.0,-231.0,-157.0,0
867,35.0,-229.0,-157.0,0
868,33.0,-231.0,-162.0,0
869,27.0,-233.0,-161.0,0
870,19.0,-233.0,-156.0,0
871,17.0,-237.0,-154.0,0
872,9.0,-237.0,-151.0,0
873,5.0,-240.0,-145.0,0
874,4.0,-234.0,-138.0,0
875,4.0,-237.0,-141.0,0
876,0.0,-231.0,-142.0,0
877,3.0,-231.0,-137.0,0
878,4.0,-230.0,-138.0,0
879,5.0,-222.0,-136.0,0
880,8.0,-219.0,-138.0,0
881,7.0,-217.0,-135.0,0
882,8.0,-212.0,-137.0,0
883,6.0,-208.0,-134.0,0
884,8.0,-208.0,-136.0,0
885,10.0,-207.0,-131.0,0
886,9.0,-202.0,-137.0,0
887,10.0,-200.0,-134.0,0
888,11.0,-196.0,-136.0,0
889,11.0,-194.0,-139.0,0
890,11.0,-195.0,-145.0,0
891,9.0,-191.0,-147.0,0
892,4.0,-191.0,-146.0,0
893,-1.0,-190.0,-153.0,0
894,-3.0,-186.0,-155.0,0
895,-7.0,-186.0,-162.0,0
896,-12.0,-190.0,-163.0,0
897,-12.0,-189.0,-163.0,0
898,-14.0,-195.0,-158.0,0
899,-13.0,-205.0,-159.0,0
900,-16.0,-212.0,-154.0,0
901,-16.0,-219.0,-146.0,0
902,-22.0,-224.0,-142.0,0
903,-26.0,-231.0,-139.0,0
904,-26.0,-240.0,-139.0,0
905,-30.0,-247.0,-134.0,0
906,-30.0,-252.0,-134.0,0
907,-28.0,-257.0,-138.0,0
908,-30.0,-259.0,-147.0,0
909,-33.0,-263.0,-148.0,0
910,-35.0,-268.0,-153.0,0
911,-38.0,-267.0,-150.0,0
912,-37.0,-266.0,-147.0,0
913,-32.0,-268.0,-150.0,0
914,-28.0,-261.0,-148.0,0
915,-26.0,-259.0,-149.0,0
916,-25.0,-254.0,-142.0,0
917,-16.0,-249.0,-144.0,0
918,-13.0,-247.0,-138.0,0
919,-13.0,-244.0,-141.0,0
920,-9.0,-240.0,-134.0,0
921,-7.0,-238.0,-135.0,0
922,1.0,-240.0,-131.0,0
923,9.0,-238.0,-135.0,0
924,10.0,-235.0,-132.0,0
925,17.0,-242.0,-139.0,0
926,24.0,-242.0,-136.0,0
927,29.0,-243.0,-134.0,0
928,32.0,-243.0,-134.0,0
929,31.0,-242.0,-131.0,0
930,31.0,-240.0,-128.0,0
931,28.0,-236.0,-127.0,0
932,27.0,-233.0,-126.0,0
933,24.0,-232.0,-128.0,0
934,18.0,-228.0,-128.0,0
935,14.0,-224.0,-128.0,0
936,12.0,-225.0,-135.0,0
937,10.0,-228.0,-130.0,0
938,11.0,-223.0,-135.0,0
939,13.0,-221.0,-136.0,0
940,13.0,-227.0,-134.0,0
941,13.0,-228.0,-134.0,0
942,15.0,-230.0,-127.0,0
943,15.0,-234.0,-124.0,0
944,12.0,-234.0,-123.0,0
945,14.0,-235.0,-118.0,0
946,12.0,-233.0,-119.0,0
947,12.0,-234.0,-116.0,0
948,8.0,-230.0,-118.0,0
949,9.0,-231.0,-116.0,0
950,9.0,-232.0,-114.0,0
951,10.0,-228.0,-118.0,0
952,7.0,-231.0,-117.0,0
953,9.0,-228.0,-123.0,0
954,8.0,-228.0,-121.0,0
955,10.0,-228.0,-128.0,0
956,9.0,-224.0,-124.0,0
957,9.0,-222.0,-125.0,0
958,10.0,-220.0,-122.0,0
959,16.0,-219.0,-131.0,0
960,13.0,-224.0,-121.0,0
961,11.0,-222.0,-122.0,0
962,14.0,-227.0,-121.0,0
963,13.0,-229.0,-120.0,0
964,14.0,-227.0,-120.0,0
965,15.0,-229.0,-121.0,0
966,15.0,-231.0,-121.0,0
967,16.0,-232.0,-121.0,0
968,16.0,-233.0,-119.0,0
969,17.0,-232.0,-120.0,0
970,12.0,-232.0,-119.0,0
971,12.0,-233.0,-115.0,0
972,11.0,-235.0,-115.0,0
973,14.0,-242.0,-120.0,0
974,13.0,-242.0,-118.0,0
975,13.0,-247.0,-116.0,0
976,14.0,-246.0,-120.0,0
977,13.0,-248.0,-117.0,0
978,18.0,-250.0,-126.0,0
979,18.0,-250.0,-125.0,0
980,19.0,-251.0,-124.0,0
981,12.0,-254.0,-121.0,0
982,17.0,-247.0,-128.0,0
983,17.0,-245.0,-129.0,0
984,16.0,-246.0,-126.0,0
985,16.0,-242.0,-126.0,0
986,14.0,-239.0,-121.0,0
987,12.0,-238.0,-123.0,0
988,15.0,-240.0,-121.0,0
989,15.0,-243.0,-120.0,0
990,11.0,-243.0,-119.0,0
991,9.0,-243.0,-118.0,0
992,4.0,-245.0,-128.0,0
993,5.0,-248.0,-125.0,0
994,7.0,-245.0,-123.0,0
995,6.0,-248.0,-125.0,0
996,3.0,-251.0,-127.0,0
997,2.0,-251.0,-127.0,0
998,4.0,-252.0,-129.0,0
999,3.0,-253.0,-124.0,0
1000,3.0,-250.0,-127.0,0
1001,0.0,-250.0,-126.0,0
1002,4.0,-251.0,-125.0,0
1003,-2.0,-252.0,-117.0,0
1004,3.0,-249.0,-121.0,0
1005,5.0,-247.0,-119.0,0
1006,7.0,-245.0,-115.0,0
1007,9.0,-245.0,-117.0,0
1008,10.0,-243.0,-120.0,0
1009,10.0,-242.0,-120.0,0
1010,11.0,-241.0,-117.0,0
1011,10.0,-241.0,-118.0,0
1012,9.0,-240.0,-121.0,0
1013,11.0,-239.0,-116.0,0
1014,13.0,-236.0,-114.0,0
1015,15.0,-237.0,-120.0,0
1016,12.0,-235.0,-115.0,0
1017,12.0,-236.0,-115.0,0
1018,13.0,-233.0,-118.0,0
1019,13.0,-233.0,-119.0,0
1020,14.0,-231.0,-115.0,0
1021,12.0,-230.0,-120.0,0
1022,13.0,-230.0,-117.0,0
1023,13.0,-233.0,-114.0,0
1024,15.0,-237.0,-113.0,0
1025,10.0,-228.0,-117.0,0
1026,9.0,-231.0,-116.0,0
1027,13.0,-231.0,-115.0,0
1028,12.0,-235.0,-117.0,0
1029,9.0,-233.0,-114.0,0
1030,10.0,-235.0,-115.0,0
1031,12.0,-234.0,-116.0,0
1032,8.0,-236.0,-117.0,0
1033,9.0,-236.0,-112.0,0
1034,11.0,-234.0,-119.0,0
1035,10.0,-238.0,-117.0,0
1036,9.0,-238.0,-119.0,0
1037,8.0,-239.0,-124.0,0
1038,8.0,-242.0,-121.0,0
1039,12.0,-241.0,-121.0,0
1040,11.0,-238.0,-121.0,0
1041,12.0,-242.0,-120.0,0
1042,8.0,-243.0,-119.0,0
1043,13.0,-243.0,-117.0,0
1044,11.0,-243.0,-121.0,0
1045,13.0,-244.0,-116.0,0
1046,11.0,-248.0,-117.0,0
1047,14.0,-249.0,-122.0,0
1048,16.0,-249.0,-119.0,0
1049,14.0,-250.0,-118.0,0
1050,13.0,-245.0,-120.0,0
1051,18.0,-247.0,-121.0,0
1052,15.0,-243.0,-120.0,0
1053,17.0,-247.0,-122.0,0
1054,19.0,-244.0,-121.0,0
1055,17.0,-242.0,-123.0,0
1056,21.0,-244.0,-122.0,0
1057,20.0,-240.0,-122.0,0
1058,19.0,-240.0,-121.0,0
1059,19.0,-242.0,-121.0,0
1060,20.0,-240.0,-120.0,0
1061,19.0,-240.0,-120.0,0
1062,18.0,-238.0,-122.0,0
1063,16.0,-238.0,-118.0,0
1064,16.0,-239.0,-117.0,0
1065,18.0,-235.0,-117.0,0
1066,15.0,-238.0,-116.0,0
1067,14.0,-237.0,-119.0,0
1068,11.0,-240.0,-115.0,0
1069,18.0,-238.0,-117.0,0
1070,20.0,-238.0,-115.0,0
1071,17.0,-238.0,-113.0,0
1072,15.0,-238.0,-118.0,0
1073,14.0,-239.0,-118.0,0
1074,14.0,-240.0,-117.0,0
1075,12.0,-237.0,-117.0,0
1076,13.0,-239.0,-119.0,0
1077,17.0,-237.0,-119.0,0
1078,15.0,-237.0,-121.0,0
1079,16.0,-235.0,-120.0,0
1080,16.0,-237.0,-121.0,0
1081,15.0,-235.0,-122.0,0
1082,20.0,-234.0,-119.0,0
1083,16.0,-236.0,-120.0,0
1084,16.0,-236.0,-119.0,0
1085,18.0,-237.0,-120.0,0
1086,20.0,-241.0,-118.0,0
1087,20.0,-241.0,-119.0,0
1088,18.0,-241.0,-119.0,0
1089,18.0,-239.0,-120.0,0
1090,15.0,-246.0,-111.0,0
1091,18.0,-246.0,-119.0,0
1092,17.0,-242.0,-120.0,0
1093,18.0,-240.0,-120.0,0
1094,17.0,-242.0,-121.0,0
1095,16.0,-243.0,-122.0,0
1096,16.0,-238.0,-120.0,0
1097,16.0,-241.0,-121.0,0
1098,16.0,-240.0,-119.0,0
1099,15.0,-241.0,-121.0,0
1100,16.0,-240.0,-120.0,0
1101,15.0,-241.0,-120.0,0
1102,12.0,-238.0,-120.0,0
1103,12.0,-236.0,-120.0,0
1104,15.0,-238.0,-121.0,0
1105,11.0,-238.0,-121.0,0
1106,14.0,-239.0,-119.0,0
1107,16.0,-236.0,-122.0,0
1108,12.0,-239.0,-123.0,0
1109,14.0,-238.0,-121.0,0
1110,15.0,-241.0,-121.0,0
1111,16.0,-242.0,-116.0,0
1112,12.0,-242.0,-111.0,0
1113,14.0,-242.0,-120.0,0
1114,14.0,-243.0,-120.0,0
1115,14.0,-239.0,-122.0,0
1116,13.0,-241.0,-119.0,0
1117,14.0,-241.0,-121.0,0
1118,14.0,-246.0,-119.0,0
1119,13.0,-241.0,-115.0,0
1120,14.0,-244.0,-116.0,0
1121,14.0,-244.0,-117.0,0
1122,16.0,-244.0,-119.0,0
1123,18.0,-247.0,-116.0,0
1124,16.0,-248.0,-116.0,0
1125,15.0,-247.0,-118.0,0
1126,16.0,-247.0,-113.0,0
1127,16.0,-248.0,-118.0,0
1128,17.0,-245.0,-117.0,0
1129,17.0,-247.0,-117.0,0
1130,17.0,-246.0,-116.0,0
1131,15.0,-246.0,-118.0,0
1132,17.0,-245.0,-115.0,0
1133,12.0,-247.0,-120.0,0
1134,13.0,-248.0,-119.0,0
1135,15.0,-247.0,-117.0,0
1136,9.0,-245.0,-119.0,0
1137,8.0,-246.0,-113.0,0
1138,10.0,-245.0,-118.0,0
1139,5.0,-246.0,-119.0,0
1140,10.0,-248.0,-120.0,0
1141,7.0,-246.0,-120.0,0
1142,8.0,-245.0,-115.0,0
1143,8.0,-245.0,-118.0,0
1144,9.0,-244.0,-115.0,0
1145,5.0,-242.0,-119.0,0
1146,10.0,-242.0,-115.0,0
1147,8.0,-245.0,-116.0,0
1148,9.0,-243.0,-117.0,0
1149,7.0,-245.0,-115.0,0
1150,10.0,-247.0,-118.0,0
1151,8.0,-247.0,-114.0,0
1152,9.0,-245.0,-117.0,0
1153,9.0,-246.0,-115.0,0
1154,10.0,-245.0,-118.0,0
1155,11.0,-246.0,-111.0,0
1156,9.0,-246.0,-121.0,0
1157,7.0,-246.0,-120.0,0
1158,8.0,-244.0,-122.0,0
1159,5.0,-241.0,-123.0,0
1160,7.0,-242.0,-122.0,0
1161,4.0,-240.0,-122.0,0
1162,3.0,-239.0,-121.0,0
1163,2.0,-236.0,-126.0,0
1164,1.0,-235.0,-124.0,0
1165,0.0,-236.0,-130.0,0
1166,-3.0,-231.0,-129.0,0
1167,-5.0,-232.0,-128.0,0
1168,-6.0,-231.0,-127.0,0
1169,-4.0,-234.0,-129.0,0
1170,-6.0,-234.0,-130.0,0
1171,-4.0,-235.0,-132.0,0
1172,-5.0,-236.0,-135.0,0
1173,-5.0,-236.0,-137.0,0
1174,-6.0,-234.0,-140.0,0
1175,-5.0,-233.0,-145.0,0
1176,-2.0,-231.0,-147.0,0
1177,-4.0,-222.0,-156.0,0
1178,-1.0,-222.0,-151.0,0
1179,4.0,-219.0,-152.0,0
1180,4.0,-209.0,-156.0,0
1181,4.0,-201.0,-155.0,0
1182,7.0,-196.0,-160.0,0
1183,9.0,-187.0,-161.0,0
1184,10.0,-179.0,-160.0,0
1185,7.0,-166.0,-157.0,0
1186,8.0,-154.0,-154.0,0
1187,14.0,-146.0,-150.0,0
1188,14.0,-135.0,-149.0,0
1189,18.0,-125.0,-142.0,0
1190,20.0,-118.0,-136.0,0
1191,24.0,-105.0,-133.0,0
1192,23.0,-97.0,-123.0,0
1193,21.0,-89.0,-119.0,0
1194,25.0,-85.0,-107.0,0
1195,20.0,-77.0,-103.0,0
1196,19.0,-71.0,-92.0,0
1197,16.0,-67.0,-81.0,1
1198,12.0,-65.0,-67.0,1
1199,7.0,-51.0,-55.0,1
1200,1.0,-60.0,-37.0,1
1201,-11.0,-63.0,-17.0,1
1202,-15.0,-71.0,-5.0,1
1203,-15.0,-79.0,8.0,1
1204,-12.0,-81.0,10.0,1
1205,-10.0,-85.0,9.0,1
1206,-12.0,-89.0,-2.0,1
1207,-14.0,-92.0,-7.0,1
1208,-15.0,-95.0,-20.0,1
1209,-21.0,-102.0,-27.0,1
1210,-25.0,-110.0,-37.0,1
1211,-26.0,-120.0,-47.0,1
1212,-21.0,-131.0,-55.0,1
1213,-17.0,-145.0,-63.0,1
1214,-24.0,-158.0,-72.0,1
1215,-16.0,-168.0,-79.0,1
1216,-16.0,-186.0,-82.0,1
1217,-16.0,-195.0,-90.0,1
1218,-10.0,-209.0,-90.0,1
1219,-7.0,-219.0,-95.0,1
1220,-5.0,-226.0,-94.0,1
1221,4.0,-239.0,-107.0,1
1222,7.0,-248.0,-115.0,1
1223,8.0,-254.0,-131.0,1
1224,3.0,-254.0,-148.0,1
1225,-1.0,-259.0,-171.0,1
1226,-1.0,-265.0,-187.0,1
1227,-1.0,-278.0,-208.0,1
1228,4.0,-302.0,-213.0,1
1229,9.0,-320.0,-221.0,1
1230,18.0,-351.0,-218.0,1
1231,27.0,-384.0,-205.0,1
1232,34.0,-419.0,-195.0,1
1233,35.0,-443.0,-195.0,1
1234,38.0,-467.0,-209.0,1
1235,42.0,-486.0,-225.0,1
1236,46.0,-493.0,-246.0,1
1237,52.0,-499.0,-258.0,1
1238,59.0,-493.0,-267.0,1
1239,63.0,-484.0,-280.0,1
1240,71.0,-472.0,-275.0,1
1241,69.0,-456.0,-273.0,1
1242,70.0,-441.0,-267.0,1
1243,63.0,-429.0,-266.0,1
1244,63.0,-421.0,-254.0,1
1245,49.0,-422.0,-249.0,1
1246,32.0,-418.0,-239.0,1
1247,16.0,-419.0,-234.0,1
1248,-3.0,-415.0,-228.0,1
1249,-12.0,-409.0,-233.0,1
1250,-18.0,-399.0,-238.0,1
1251,-20.0,-394.0,-242.0,1
1252,-24.0,-386.0,-237.0,1
1253,-17.0,-384.0,-240.0,1
1254,-16.0,-380.0,-239.0,1
1255,-7.0,-389.0,-234.0,1
1256,-6.0,-401.0,-229.0,1
1257,-1.0,-415.0,-221.0,1
1258,-2.0,-435.0,-215.0,1
1259,-2.0,-455.0,-210.0,1
1260,-1.0,-478.0,-209.0,1
1261,-11.0,-494.0,-219.0,1
1262,-14.0,-511.0,-238.0,1
1263,-29.0,-523.0,-248.0,1
1264,-44.0,-536.0,-261.0,1
1265,-63.0,-547.0,-268.0,1
1266,-76.0,-558.0,-282.0,1
1267,-80.0,-559.0,-290.0,1
1268,-82.0,-564.0,-294.0,1
1269,-77.0,-565.0,-297.0,1
1270,-73.0,-567.0,-292.0,1
1271,-57.0,-571.0,-288.0,1
1272,-47.0,-567.0,-288.0,1
1273,-38.0,-564.0,-288.0,1
1274,-26.0,-552.0,-283.0,1
1275,-18.0,-538.0,-284.0,1
1276,-10.0,-531.0,-280.0,1
1277,0.0,-512.0,-273.0,1
1278,8.0,-496.0,-266.0,1
1279,9.0,-474.0,-260.0,1
1280,14.0,-449.0,-254.0,1
1281,21.0,-423.0,-246.0,1
1282,24.0,-387.0,-240.0,1
1283,28.0,-357.0,-219.0,1
1284,29.0,-316.0,-202.0,1
1285,29.0,-278.0,-178.0,1
1286,29.0,-238.0,-156.0,1
1287,29.0,-194.0,-136.0,1
1288,24.0,-151.0,-113.0,1
1289,21.0,-114.0,-83.0,1
1290,16.0,-74.0,-63.0,1
1291,11.0,-33.0,-55.0,1
1292,9.0,14.0,-56.0,1
1293,8.0,57.0,-55.0,1
1294,0.0,95.0,-61.0,1
1295,-10.0,132.0,-65.0,1
1296,-6.0,153.0,-65.0,1
1297,-5.0,174.0,-71.0,1
1298,-7.0,191.0,-76.0,1
1299,-8.0,201.0,-79.0,1
1300,-9.0,202.0,-89.0,1
1301,-13.0,198.0,-98.0,1
1302,-14.0,189.0,-102.0,1
1303,-8.0,177.0,-90.0,1
1304,4.0,167.0,-94.0,1
1305,18.0,162.0,-100.0,1
1306,32.0,160.0,-128.0,1
1307,37.0,132.0,-158.0,1
1308,42.0,107.0,-162.0,1
1309,35.0,97.0,-144.0,1
1310,28.0,87.0,-125.0,1
1311,23.0,69.0,-114.0,1
1312,19.0,43.0,-109.0,1
1313,15.0,8.0,-98.0,1
1314,17.0,-24.0,-90.0,1
1315,12.0,-54.0,-74.0,1
1316,9.0,-74.0,-54.0,1
1317,3.0,-95.0,-43.0,1
1318,-3.0,-108.0,-27.0,1
1319,-9.0,-119.0,-18.0,1
1320,-11.0,-120.0,-15.0,1
1321,-15.0,-125.0,-8.0,1
1322,-16.0,-126.0,-13.0,1
1323,-17.0,-121.0,-18.0,1
1324,-23.0,-115.0,-29.0,1
1325,-27.0,-105.0,-33.0,1
1326,-32.0,-91.0,-46.0,1
1327,-39.0,-81.0,-54.0,1
1328,-39.0,-63.0,-55.0,1
1329,-37.0,-54.0,-57.0,1
1330,-33.0,-42.0,-54.0,1
1331,-27.0,-26.0,-49.0,1
1332,-24.0,-11.0,-38.0,1
1333,-22.0,3.0,-29.0,1
1334,-18.0,11.0,-21.0,1
1335,-15.0,21.0,-17.0,1
1336,-10.0,30.0,-10.0,1
1337,-6.0,43.0,-12.0,1
1338,-1.0,47.0,-13.0,1
1339,2.0,56.0,-15.0,1
1340,2.0,65.0,-19.0,1
1341,8.0,68.0,-30.0,1
1342,9.0,76.0,-32.0,1
1343,14.0,77.0,-45.0,1
1344,14.0,82.0,-55.0,1
1345,20.0,79.0,-63.0,1
1346,24.0,80.0,-69.0,1
1347,22.0,78.0,-77.0,1
1348,23.0,75.0,-74.0,1
1349,22.0,71.0,-77.0,1
1350,20.0,55.0,-68.0,1
1351,7.0,31.0,-68.0,1
1352,2.0,12.0,-86.0,1
1353,-3.0,-2.0,-96.0,1
1354,-10.0,-20.0,-121.0,1
1355,-14.0,-36.0,-137.0,1
1356,-16.0,-51.0,-157.0,1
1357,-14.0,-73.0,-164.0,1
1358,-10.0,-93.0,-163.0,1
1359,-5.0,-122.0,-177.0,1
1360,-6.0,-143.0,-209.0,1
1361,3.0,-168.0,-251.0,1
1362,4.0,-194.0,-319.0,1
1363,11.0,-224.0,-407.0,1
1364,3.0,-266.0,-475.0,1
1365,-16.0,-336.0,-488.0,1
1366,-39.0,-457.0,-452.0,1
1367,-53.0,-625.0,-375.0,1
1368,-66.0,-804.0,-249.0,1
1369,-68.0,-991.0,-148.0,1
1370,-45.0,-1147.0,-148.0,1
1371,-2.0,-1199.0,-255.0,1
1372,38.0,-1130.0,-402.0,1
1373,86.0,-1024.0,-521.0,1
1374,118.0,-934.0,-589.0,1
1375,92.0,-864.0,-589.0,1
1376,48.0,-826.0,-572.0,1
1377,22.0,-786.0,-560.0,1
1378,6.0,-732.0,-530.0,1
1379,1.0,-652.0,-481.0,1
1380,-1.0,-554.0,-411.0,1
1381,-5.0,-451.0,-352.0,1
1382,2.0,-368.0,-292.0,1
1383,20.0,-285.0,-253.0,1
1384,34.0,-217.0,-216.0,1
1385,47.0,-173.0,-185.0,1
1386,57.0,-157.0,-159.0,1
1387,65.0,-153.0,-135.0,1
1388,77.0,-173.0,-115.0,1
1389,87.0,-213.0,-96.0,1
1390,93.0,-260.0,-87.0,1
1391,81.0,-310.0,-95.0,1
1392,76.0,-357.0,-108.0,1
1393,72.0,-392.0,-126.0,1
1394,66.0,-417.0,-139.0,1
1395,59.0,-424.0,-162.0,1
1396,42.0,-415.0,-170.0,1
1397,26.0,-395.0,-176.0,1
1398,9.0,-369.0,-172.0,1
1399,-7.0,-331.0,-176.0,1
1400,-13.0,-299.0,-167.0,1
1401,-26.0,-268.0,-166.0,1
1402,-39.0,-237.0,-161.0,1
1403,-47.0,-217.0,-154.0,1
1404,-54.0,-201.0,-149.0,1
1405,-57.0,-192.0,-143.0,1
1406,-58.0,-183.0,-143.0,1
1407,-57.0,-183.0,-135.0,1
1408,-44.0,-185.0,-130.0,1
1409,-38.0,-189.0,-116.0,1
1410,-29.0,-187.0,-106.0,1
1411,-15.0,-190.0,-100.0,1
1412,-7.0,-184.0,-87.0,1
1413,8.0,-180.0,-84.0,1
1414,15.0,-163.0,-79.0,1
1415,22.0,-146.0,-78.0,1
1416,21.0,-120.0,-84.0,1
1417,23.0,-104.0,-96.0,1
1418,25.0,-80.0,-97.0,1
1419,30.0,-59.0,-102.0,1
1420,28.0,-44.0,-104.0,1
1421,34.0,-33.0,-102.0,1
1422,40.0,-26.0,-110.0,1
1423,44.0,-20.0,-109.0,1
1424,38.0,-23.0,-115.0,1
1425,38.0,-39.0,-113.0,1
1426,32.0,-57.0,-116.0,1
1427,29.0,-80.0,-119.0,1
1428,23.0,-98.0,-112.0,1
1429,25.0,-116.0,-111.0,1
1430,26.0,-130.0,-109.0,1
1431,21.0,-144.0,-102.0,1
1432,20.0,-158.0,-101.0,1
1433,16.0,-174.0,-98.0,1
1434,11.0,-187.0,-101.0,1
1435,3.0,-199.0,-101.0,1
1436,-5.0,-211.0,-99.0,1
1437,-11.0,-219.0,-102.0,1
1438,-15.0,-228.0,-105.0,1
1439,-14.0,-235.0,-106.0,1
1440,-18.0,-238.0,-108.0,1
1441,-15.0,-245.0,-107.0,1
1442,-14.0,-251.0,-114.0,1
1443,-12.0,-257.0,-115.0,1
1444,-10.0,-266.0,-120.0,1
1445,0.0,-276.0,-127.0,1
1446,3.0,-288.0,-127.0,1
1447,12.0,-302.0,-135.0,1
1448,14.0,-311.0,-138.0,1
1449,19.0,-316.0,-146.0,1
1450,21.0,-321.0,-151.0,1
1451,21.0,-318.0,-154.0,1
1452,23.0,-322.0,-156.0,1
1453,25.0,-318.0,-158.0,1
1454,24.0,-312.0,-161.0,1
1455,23.0,-304.0,-163.0,1
1456,20.0,-291.0,-160.0,1
1457,18.0,-282.0,-155.0,1
1458,17.0,-267.0,-153.0,1
1459,16.0,-251.0,-151.0,1
1460,14.0,-238.0,-147.0,1
1461,15.0,-225.0,-144.0,1
1462,16.0,-212.0,-141.0,1
1463,15.0,-200.0,-138.0,1
1464,11.0,-190.0,-136.0,0
1465,11.0,-183.0,-129.0,0
1466,9.0,-180.0,-129.0,0
1467,5.0,-176.0,-123.0,0
1468,0.0,-176.0,-118.0,0
1469,-4.0,-178.0,-118.0,0
1470,-7.0,-184.0,-116.0,0
1471,-11.0,-191.0,-118.0,0
1472,-8.0,-200.0,-119.0,0
1473,-7.0,-210.0,-119.0,0
1474,-1.0,-222.0,-121.0,0
1475,11.0,-224.0,-120.0,0
1476,26.0,-229.0,-132.0,0
1477,24.0,-240.0,-126.0,0
1478,23.0,-241.0,-133.0,0
1479,28.0,-243.0,-138.0,0
1480,32.0,-248.0,-150.0,0
1481,29.0,-252.0,-156.0,0
1482,11.0,-250.0,-155.0,0
1483,-5.0,-246.0,-157.0,0
1484,-21.0,-248.0,-167.0,0
1485,-29.0,-246.0,-161.0,0
1486,-27.0,-249.0,-143.0,0
1487,-13.0,-248.0,-141.0,0
1488,-7.0,-250.0,-142.0,0
1489,-1.0,-254.0,-139.0,0
1490,2.0,-254.0,-129.0,0
1491,7.0,-257.0,-126.0,0
1492,12.0,-259.0,-122.0,0
1493,17.0,-261.0,-120.0,0
1494,22.0,-258.0,-119.0,0
1495,30.0,-259.0,-120.0,0
1496,36.0,-257.0,-122.0,0
1497,41.0,-252.0,-124.0,0
1498,39.0,-247.0,-124.0,0
1499,38.0,-236.0,-133.0,0
1500,38.0,-229.0,-133.0,0
1501,37.0,-227.0,-131.0,0
1502,35.0,-220.0,-130.0,0
1503,31.0,-218.0,-122.0,0
1504,31.0,-219.0,-120.0,0
1505,28.0,-214.0,-117.0,0
1506,32.0,-216.0,-115.0,0
1507,27.0,-210.0,-119.0,0
1508,26.0,-208.0,-119.0,0
1509,27.0,-209.0,-124.0,0
1510,27.0,-206.0,-128.0,0
1511,20.0,-206.0,-137.0,0
1512,12.0,-203.0,-147.0,0
1513,8.0,-202.0,-144.0,0
1514,7.0,-205.0,-141.0,0
1515,8.0,-214.0,-135.0,0
1516,4.0,-220.0,-131.0,0
1517,4.0,-230.0,-120.0,0
1518,1.0,-242.0,-119.0,0
1519,1.0,-250.0,-111.0,0
1520,-2.0,-260.0,-111.0,0
1521,-1.0,-268.0,-109.0,0
1522,-1.0,-273.0,-114.0,0
1523,1.0,-273.0,-118.0,0
1524,3.0,-274.0,-121.0,0
1525,7.0,-267.0,-124.0,0
1526,8.0,-263.0,-128.0,0
1527,7.0,-255.0,-131.0,0
1528,4.0,-250.0,-135.0,0
1529,4.0,-248.0,-139.0,0
1530,5.0,-244.0,-137.0,0
1531,3.0,-243.0,-135.0,0
1532,4.0,-241.0,-127.0,0
1533,5.0,-245.0,-125.0,0
1534,4.0,-243.0,-120.0,0
1535,7.0,-248.0,-118.0,0
1536,7.0,-248.0,-120.0,0
1537,8.0,-247.0,-118.0,0
1538,9.0,-248.0,-116.0,0
1539,12.0,-247.0,-114.0,0
1540,9.0,-244.0,-119.0,0
1541,10.0,-240.0,-119.0,0
1542,9.0,-238.0,-112.0,0
1543,6.0,-236.0,-108.0,0
1544,7.0,-233.0,-110.0,0
1545,9.0,-235.0,-107.0,0
1546,6.0,-234.0,-112.0,0
1547,5.0,-234.0,-107.0,0
1548,4.0,-236.0,-107.0,0
1549,-2.0,-239.0,-106.0,0
1550,1.0,-240.0,-103.0,0
1551,-1.0,-242.0,-107.0,0
1552,-1.0,-240.0,-104.0,0
1553,-1.0,-243.0,-106.0,0
1554,-2.0,-239.0,-107.0,0
1555,0.0,-240.0,-108.0,0
1556,0.0,-238.0,-112.0,0
1557,1.0,-241.0,-112.0,0
1558,4.0,-245.0,-113.0,0
1559,2.0,-243.0,-111.0,0
1560,2.0,-242.0,-109.0,0
1561,3.0,-244.0,-110.0,0
1562,2.0,-242.0,-110.0,0
1563,4.0,-242.0,-106.0,0
1564,3.0,-243.0,-106.0,0
1565,-6.0,-244.0,-107.0,0
1566,3.0,-243.0,-104.0,0
1567,6.0,-243.0,-101.0,0
1568,6.0,-240.0,-102.0,0
1569,11.0,-241.0,-108.0,0
1570,11.0,-239.0,-104.0,0
1571,10.0,-238.0,-108.0,0
1572,13.0,-238.0,-106.0,0
1573,10.0,-239.0,-108.0,0
1574,11.0,-240.0,-109.0,0
1575,11.0,-240.0,-109.0,0
1576,8.0,-238.0,-114.0,0
1577,11.0,-240.0,-106.0,0
1578,9.0,-241.0,-108.0,0
1579,10.0,-243.0,-110.0,0
1580,11.0,-245.0,-110.0,0
1581,10.0,-247.0,-107.0,0
1582,11.0,-246.0,-111.0,0
1583,12.0,-247.0,-110.0,0
1584,13.0,-247.0,-114.0,0
1585,12.0,-245.0,-109.0,0
1586,12.0,-242.0,-122.0,0
1587,11.0,-244.0,-109.0,0
1588,13.0,-244.0,-113.0,0
1589,9.0,-244.0,-110.0,0
1590,14.0,-246.0,-109.0,0
1591,15.0,-247.0,-112.0,0
1592,10.0,-243.0,-110.0,0
1593,14.0,-246.0,-109.0,0
1594,14.0,-246.0,-111.0,0
1595,13.0,-247.0,-110.0,0
1596,13.0,-246.0,-106.0,0
1597,13.0,-249.0,-111.0,0
1598,11.0,-245.0,-107.0,0
1599,14.0,-246.0,-108.0,0
1600,11.0,-246.0,-109.0,0
1601,11.0,-245.0,-109.0,0
1602,8.0,-242.0,-111.0,0
1603,10.0,-243.0,-112.0,0
1604,9.0,-239.0,-110.0,0
1605,7.0,-238.0,-110.0,0
1606,7.0,-238.0,-108.0,0
1607,9.0,-238.0,-111.0,0
1608,11.0,-240.0,-104.0,0
1609,8.0,-242.0,-112.0,0
1610,5.0,-239.0,-107.0,0
1611,9.0,-240.0,-109.0,0
1612,9.0,-242.0,-103.0,0
1613,8.0,-243.0,-107.0,0
1614,8.0,-242.0,-108.0,0
1615,6.0,-242.0,-110.0,0
1616,4.0,-242.0,-104.0,0
1617,6.0,-239.0,-105.0,0
1618,8.0,-240.0,-105.0,0
1619,7.0,-240.0,-105.0,0
1620,8.0,-239.0,-109.0,0
1621,7.0,-242.0,-109.0,0
1622,7.0,-240.0,-106.0,0
1623,7.0,-242.0,-107.0,0
1624,7.0,-241.0,-110.0,0
1625,10.0,-244.0,-108.0,0
1626,9.0,-240.0,-112.0,0
1627,9.0,-242.0,-110.0,0
1628,6.0,-245.0,-106.0,0
1629,5.0,-243.0,-113.0,0
1630,8.0,-242.0,-96.0,0
1631,5.0,-245.0,-109.0,0
1632,4.0,-245.0,-110.0,0
1633,3.0,-243.0,-110.0,0
1634,8.0,-243.0,-109.0,0
1635,7.0,-243.0,-110.0,0
1636,9.0,-241.0,-112.0,0
1637,11.0,-239.0,-115.0,0
1638,10.0,-237.0,-112.0,0
1639,13.0,-241.0,-113.0,0
1640,14.0,-241.0,-114.0,0
1641,16.0,-242.0,-114.0,0
1642,13.0,-243.0,-114.0,0
1643,12.0,-245.0,-112.0,0
1644,13.0,-249.0,-103.0,0
1645,13.0,-248.0,-109.0,0
1646,11.0,-247.0,-106.0,0
1647,11.0,-247.0,-108.0,0
1648,10.0,-248.0,-108.0,0
1649,11.0,-246.0,-113.0,0
1650,8.0,-242.0,-113.0,0
1651,10.0,-243.0,-114.0,0
1652,13.0,-240.0,-117.0,0
1653,11.0,-242.0,-109.0,0
1654,10.0,-243.0,-111.0,0
1655,13.0,-244.0,-109.0,0
1656,13.0,-243.0,-110.0,0
1657,16.0,-246.0,-110.0,0
1658,14.0,-245.0,-108.0,0
1659,16.0,-247.0,-109.0,0
1660,13.0,-245.0,-109.0,0
1661,14.0,-246.0,-110.0,0
1662,14.0,-244.0,-109.0,0
1663,14.0,-243.0,-108.0,0
1664,14.0,-243.0,-113.0,0
1665,12.0,-242.0,-110.0,0
1666,12.0,-241.0,-109.0,0
1667,17.0,-240.0,-113.0,0
1668,15.0,-240.0,-114.0,0
1669,16.0,-240.0,-108.0,0
1670,13.0,-240.0,-109.0,0
1671,14.0,-242.0,-114.0,0
1672,13.0,-239.0,-111.0,0
1673,13.0,-243.0,-109.0,0
1674,11.0,-244.0,-110.0,0
1675,12.0,-243.0,-110.0,0
1676,12.0,-241.0,-111.0,0
1677,13.0,-243.0,-114.0,0
1678,11.0,-241.0,-111.0,0
1679,10.0,-243.0,-116.0,0
1680,9.0,-244.0,-108.0,0
1681,12.0,-243.0,-113.0,0
1682,11.0,-245.0,-116.0,0
1683,10.0,-241.0,-115.0,0
1684,10.0,-242.0,-111.0,0
1685,9.0,-244.0,-113.0,0
1686,11.0,-243.0,-111.0,0
1687,7.0,-244.0,-115.0,0
1688,7.0,-242.0,-114.0,0
1689,7.0,-242.0,-111.0,0
1690,9.0,-246.0,-106.0,0
1691,6.0,-245.0,-109.0,0
1692,7.0,-243.0,-109.0,0
1693,9.0,-243.0,-109.0,0
1694,5.0,-245.0,-106.0,0
1695,12.0,-243.0,-107.0,0
1696,5.0,-244.0,-109.0,0
1697,6.0,-245.0,-114.0,0
1698,3.0,-243.0,-110.0,0
1699,4.0,-240.0,-113.0,0
1700,10.0,-241.0,-116.0,0
1701,8.0,-240.0,-110.0,0
1702,7.0,-242.0,-115.0,0
1703,7.0,-242.0,-110.0,0
1704,7.0,-241.0,-109.0,0
1705,10.0,-244.0,-115.0,0
1706,10.0,-242.0,-110.0,0
1707,12.0,-242.0,-111.0,0
1708,10.0,-243.0,-108.0,0
1709,8.0,-241.0,-114.0,0
1710,11.0,-242.0,-112.0,0
1711,11.0,-243.0,-113.0,0
1712,10.0,-241.0,-110.0,0
1713,13.0,-242.0,-114.0,0
1714,11.0,-241.0,-109.0,0
1715,10.0,-242.0,-112.0,0
1716,11.0,-243.0,-109.0,0
1717,16.0,-244.0,-105.0,0
1718,10.0,-244.0,-109.0,0
1719,11.0,-244.0,-112.0,0
1720,13.0,-245.0,-113.0,0
1721,12.0,-244.0,-107.0,0
1722,12.0,-243.0,-114.0,0
1723,13.0,-244.0,-112.0,0
1724,13.0,-240.0,-108.0,0
1725,14.0,-244.0,-110.0,0
1726,11.0,-244.0,-108.0,0
1727,13.0,-244.0,-112.0,0
1728,13.0,-242.0,-114.0,0
1729,14.0,-246.0,-113.0,0
1730,12.0,-245.0,-110.0,0
1731,13.0,-244.0,-112.0,0
1732,12.0,-243.0,-114.0,0
1733,16.0,-243.0,-113.0,0
1734,15.0,-244.0,-112.0,0
1735,15.0,-242.0,-117.0,0
1736,16.0,-245.0,-111.0,0
1737,15.0,-244.0,-115.0,0
1738,15.0,-242.0,-111.0,0
1739,18.0,-242.0,-112.0,0
1740,14.0,-241.0,-115.0,0
1741,16.0,-246.0,-110.0,0
1742,16.0,-243.0,-117.0,0
1743,19.0,-246.0,-113.0,0
1744,12.0,-242.0,-113.0,0
1745,16.0,-245.0,-114.0,0
1746,12.0,-238.0,-112.0,0
1747,14.0,-240.0,-111.0,0
1748,14.0,-239.0,-111.0,0
1749,15.0,-238.0,-113.0,0
1750,13.0,-241.0,-118.0,0
1751,13.0,-241.0,-110.0,0
1752,12.0,-240.0,-114.0,0
1753,13.0,-240.0,-113.0,0
1754,13.0,-238.0,-114.0,0
1755,13.0,-241.0,-112.0,0
1756,11.0,-241.0,-108.0,0
1757,13.0,-238.0,-115.0,0
1758,13.0,-242.0,-114.0,0
1759,15.0,-242.0,-113.0,0
1760,10.0,-242.0,-114.0,0
1761,5.0,-241.0,-118.0,0
1762,10.0,-240.0,-116.0,0
1763,10.0,-238.0,-115.0,0
1764,12.0,-242.0,-113.0,0
1765,10.0,-239.0,-110.0,0
1766,10.0,-241.0,-115.0,0
1767,10.0,-242.0,-112.0,0
1768,7.0,-242.0,-112.0,0
1769,9.0,-242.0,-114.0,0
1770,8.0,-244.0,-109.0,0
1771,8.0,-245.0,-110.0,0
1772,6.0,-242.0,-117.0,0
1773,10.0,-242.0,-113.0,0
1774,8.0,-242.0,-114.0,0
1775,7.0,-242.0,-115.0,0
1776,9.0,-243.0,-112.0,0
1777,9.0,-242.0,-113.0,0
1778,9.0,-243.0,-117.0,0
1779,11.0,-244.0,-116.0,0
1780,8.0,-242.0,-114.0,0
1781,7.0,-241.0,-119.0,0
1782,7.0,-240.0,-116.0,0
1783,13.0,-237.0,-122.0,0
1784,7.0,-241.0,-119.0,0
1785,6.0,-244.0,-115.0,0
1786,8.0,-244.0,-117.0,0
1787,5.0,-244.0,-117.0,0
1788,4.0,-243.0,-114.0,0
1789,7.0,-243.0,-116.0,0
1790,6.0,-246.0,-112.0,0
1791,8.0,-243.0,-115.0,0
1792,7.0,-243.0,-116.0,0
1793,9.0,-243.0,-115.0,0
1794,6.0,-242.0,-113.0,0
1795,6.0,-242.0,-113.0,0
1796,7.0,-242.0,-112.0,0
1797,6.0,-240.0,-113.0,0
1798,8.0,-243.0,-114.0,0
1799,8.0,-240.0,-115.0,0
1800,9.0,-240.0,-110.0,0
1801,9.0,-244.0,-113.0,0
1802,13.0,-244.0,-115.0,0
1803,12.0,-245.0,-115.0,0
1804,3.0,-246.0,-108.0,0
1805,11.0,-240.0,-111.0,0
1806,11.0,-245.0,-114.0,0
1807,10.0,-242.0,-112.0,0
1808,6.0,-243.0,-113.0,0
1809,11.0,-242.0,-112.0,0
1810,9.0,-244.0,-111.0,0
1811,8.0,-245.0,-114.0,0
1812,8.0,-244.0,-108.0,0
1813,13.0,-245.0,-112.0,0
1814,8.0,-244.0,-112.0,0
1815,11.0,-245.0,-111.0,0
1816,12.0,-241.0,-113.0,0
1817,10.0,-245.0,-113.0,0
1818,10.0,-243.0,-113.0,0
1819,11.0,-242.0,-114.0,0
1820,12.0,-242.0,-115.0,0
1821,11.0,-243.0,-111.0,0
1822,9.0,-245.0,-110.0,0
1823,11.0,-244.0,-111.0,0
1824,12.0,-244.0,-107.0,0
1825,12.0,-244.0,-114.0,0
1826,11.0,-242.0,-109.0,0
1827,12.0,-243.0,-110.0,0
1828,9.0,-244.0,-114.0,0
1829,12.0,-243.0,-112.0,0
1830,11.0,-245.0,-112.0,0
1831,10.0,-243.0,-112.0,0
1832,10.0,-245.0,-114.0,0
1833,10.0,-244.0,-118.0,0
1834,10.0,-243.0,-113.0,0
1835,10.0,-240.0,-111.0,0
1836,12.0,-241.0,-114.0,0
1837,9.0,-246.0,-112.0,0
1838,11.0,-243.0,-114.0,0
1839,10.0,-245.0,-114.0,0
1840,11.0,-244.0,-115.0,0
1841,11.0,-243.0,-114.0,0
1842,8.0,-244.0,-112.0,0
1843,11.0,-243.0,-116.0,0
1844,12.0,-243.0,-111.0,0
1845,9.0,-245.0,-111.0,0
1846,10.0,-245.0,-113.0,0
1847,8.0,-244.0,-115.0,0
1848,11.0,-247.0,-109.0,0
1849,11.0,-244.0,-110.0,0
1850,10.0,-244.0,-111.0,0
1851,11.0,-243.0,-117.0,0
1852,10.0,-241.0,-111.0,0
1853,14.0,-239.0,-111.0,0
1854,11.0,-242.0,-114.0,0
1855,11.0,-240.0,-114.0,0
1856,9.0,-239.0,-112.0,0
1857,10.0,-239.0,-114.0,0
1858,11.0,-245.0,-116.0,0
1859,7.0,-239.0,-113.0,0
1860,6.0,-239.0,-115.0,0
1861,8.0,-239.0,-108.0,0
1862,7.0,-240.0,-109.0,0
1863,10.0,-244.0,-110.0,0
1864,9.0,-243.0,-108.0,0
1865,11.0,-244.0,-108.0,0
1866,9.0,-240.0,-112.0,0
1867,10.0,-246.0,-112.0,0
1868,9.0,-243.0,-113.0,0
1869,9.0,-245.0,-111.0,0
1870,8.0,-240.0,-106.0,0
1871,8.0,-241.0,-113.0,0
1872,9.0,-240.0,-111.0,0
1873,4.0,-240.0,-110.0,0
1874,8.0,-239.0,-112.0,0
1875,11.0,-243.0,-113.0,0
1876,8.0,-243.0,-110.0,0
1877,6.0,-242.0,-112.0,0
1878,8.0,-245.0,-109.0,0
1879,9.0,-243.0,-111.0,0
1880,6.0,-246.0,-106.0,0
1881,8.0,-244.0,-114.0,0
1882,8.0,-245.0,-113.0,0
1883,7.0,-246.0,-115.0,0
1884,7.0,-247.0,-110.0,0
1885,6.0,-243.0,-112.0,0
1886,9.0,-243.0,-113.0,0
1887,9.0,-245.0,-112.0,0
1888,7.0,-243.0,-114.0,0
1889,8.0,-242.0,-114.0,0
1890,7.0,-243.0,-116.0,0
1891,7.0,-240.0,-113.0,0
1892,10.0,-242.0,-113.0,0
1893,7.0,-242.0,-107.0,0
1894,10.0,-242.0,-112.0,0
1895,11.0,-243.0,-109.0,0
1896,8.0,-244.0,-113.0,0
1897,10.0,-246.0,-109.0,0
1898,4.0,-240.0,-113.0,0
1899,11.0,-245.0,-107.0,0
1900,8.0,-245.0,-108.0,0
1901,8.0,-245.0,-107.0,0
1902,9.0,-244.0,-111.0,0
1903,10.0,-244.0,-112.0,0
1904,7.0,-245.0,-109.0,0
1905,8.0,-243.0,-110.0,0
1906,8.0,-244.0,-113.0,0
1907,9.0,-244.0,-111.0,0
1908,9.0,-241.0,-107.0,0
1909,9.0,-242.0,-107.0,0
1910,13.0,-247.0,-109.0,0
1911,7.0,-242.0,-109.0,0
1912,11.0,-241.0,-114.0,0
1913,11.0,-241.0,-108.0,0
1914,9.0,-243.0,-108.0,0
1915,11.0,-242.0,-111.0,0
1916,9.0,-242.0,-107.0,0
1917,7.0,-241.0,-108.0,0
1918,9.0,-241.0,-107.0,0
1919,10.0,-243.0,-104.0,0
1920,8.0,-242.0,-110.0,0
1921,11.0,-246.0,-109.0,0
1922,10.0,-243.0,-109.0,0
1923,8.0,-241.0,-111.0,0
1924,11.0,-243.0,-112.0,0
1925,10.0,-243.0,-109.0,0
1926,11.0,-240.0,-105.0,0
1927,9.0,-243.0,-109.0,0
1928,9.0,-243.0,-109.0,0
1929,11.0,-243.0,-102.0,0
1930,12.0,-245.0,-107.0,0
1931,10.0,-241.0,-109.0,0
1932,14.0,-247.0,-108.0,0
1933,10.0,-246.0,-112.0,0
1934,10.0,-241.0,-115.0,0
1935,11.0,-248.0,-106.0,0
1936,9.0,-247.0,-109.0,0
1937,11.0,-244.0,-108.0,0
1938,10.0,-244.0,-111.0,0
1939,10.0,-242.0,-107.0,0
1940,13.0,-246.0,-108.0,0
1941,14.0,-243.0,-114.0,0
1942,10.0,-242.0,-112.0,0
1943,12.0,-245.0,-111.0,0
1944,10.0,-246.0,-106.0,0
1945,7.0,-243.0,-110.0,0
1946,13.0,-246.0,-108.0,0
1947,14.0,-245.0,-107.0,0
1948,9.0,-244.0,-101.0,0
1949,12.0,-243.0,-110.0,0
1950,6.0,-245.0,-104.0,0
1951,10.0,-246.0,-106.0,0
1952,8.0,-245.0,-106.0,0
1953,9.0,-245.0,-104.0,0
1954,8.0,-246.0,-109.0,0
1955,10.0,-246.0,-110.0,0
1956,7.0,-243.0,-110.0,0
1957,9.0,-242.0,-106.0,0
1958,8.0,-243.0,-104.0,0
1959,11.0,-243.0,-106.0,0
1960,11.0,-243.0,-108.0,0
1961,9.0,-244.0,-106.0,0
1962,8.0,-241.0,-111.0,0
1963,11.0,-243.0,-104.0,0
1964,9.0,-245.0,-107.0,0
1965,8.0,-244.0,-105.0,0
1966,8.0,-242.0,-103.0,0
1967,7.0,-242.0,-106.0,0
1968,8.0,-246.0,-105.0,0
1969,9.0,-245.0,-109.0,0
1970,7.0,-244.0,-103.0,0
1971,7.0,-243.0,-104.0,0
1972,10.0,-245.0,-107.0,0
1973,9.0,-242.0,-105.0,0
1974,7.0,-243.0,-104.0,0
1975,11.0,-246.0,-107.0,0
1976,9.0,-243.0,-107.0,0
1977,11.0,-242.0,-104.0,0
1978,11.0,-244.0,-107.0,0
1979,9.0,-243.0,-110.0,0
1980,9.0,-245.0,-108.0,0
1981,12.0,-243.0,-108.0,0
1982,13.0,-247.0,-104.0,0
1983,11.0,-246.0,-104.0,0
1984,14.0,-247.0,-103.0,0
1985,11.0,-244.0,-107.0,0
1986,10.0,-245.0,-104.0,0
1987,10.0,-247.0,-109.0,0
1988,11.0,-246.0,-107.0,0
1989,12.0,-246.0,-106.0,0
1990,10.0,-246.0,-110.0,0
1991,11.0,-244.0,-104.0,0
1992,10.0,-248.0,-108.0,0
1993,12.0,-247.0,-107.0,0
1994,8.0,-245.0,-105.0,0
1995,8.0,-246.0,-104.0,0
1996,7.0,-243.0,-105.0,0
1997,10.0,-244.0,-104.0,0
1998,12.0,-243.0,-106.0,0
1999,6.0,-244.0,-107.0,0
2000,8.0,-243.0,-102.0,0
2001,9.0,-246.0,-107.0,0
2002,11.0,-246.0,-106.0,0
2003,7.0,-247.0,-106.0,0
2004,12.0,-247.0,-109.0,0
2005,11.0,-243.0,-102.0,0
2006,12.0,-245.0,-103.0,0
2007,10.0,-244.0,-103.0,0
2008,8.0,-246.0,-103.0,0
2009,12.0,-245.0,-104.0,0
2010,9.0,-244.0,-109.0,0
2011,10.0,-245.0,-108.0,0
2012,9.0,-243.0,-107.0,0
2013,10.0,-244.0,-103.0,0
2014,12.0,-245.0,-111.0,0
2015,11.0,-244.0,-109.0,0
2016,11.0,-242.0,-105.0,0
2017,11.0,-245.0,-107.0,0
2018,14.0,-246.0,-102.0,0
2019,11.0,-242.0,-104.0,0
2020,13.0,-246.0,-105.0,0
2021,14.0,-245.0,-104.0,0
2022,13.0,-245.0,-100.0,0
2023,11.0,-245.0,-103.0,0
2024,9.0,-245.0,-106.0,0
2025,12.0,-246.0,-107.0,0
2026,12.0,-246.0,-110.0,0
2027,11.0,-243.0,-110.0,0
2028,10.0,-243.0,-108.0,0
2029,13.0,-246.0,-107.0,0
2030,10.0,-244.0,-110.0,0
2031,9.0,-243.0,-105.0,0
2032,10.0,-245.0,-106.0,0
2033,11.0,-243.0,-104.0,0
2034,14.0,-246.0,-107.0,0
2035,11.0,-246.0,-103.0,0
2036,11.0,-245.0,-107.0,0
2037,12.0,-246.0,-107.0,0
2038,10.0,-246.0,-106.0,0
2039,12.0,-247.0,-107.0,0
2040,10.0,-245.0,-100.0,0
2041,10.0,-244.0,-105.0,0
2042,10.0,-244.0,-106.0,0
2043,8.0,-245.0,-105.0,0
2044,12.0,-248.0,-106.0,0
2045,10.0,-246.0,-108.0,0
2046,9.0,-245.0,-106.0,0
2047,10.0,-243.0,-107.0,0
2048,13.0,-246.0,-106.0,0
2049,11.0,-245.0,-104.0,0
2050,14.0,-245.0,-105.0,0
2051,12.0,-246.0,-108.0,0
2052,11.0,-245.0,-107.0,0
2053,9.0,-244.0,-105.0,0
2054,9.0,-244.0,-104.0,0
2055,12.0,-244.0,-105.0,0
2056,9.0,-243.0,-105.0,0
2057,10.0,-245.0,-106.0,0
2058,7.0,-243.0,-104.0,0
2059,9.0,-244.0,-106.0,0
2060,9.0,-245.0,-106.0,0
2061,11.0,-244.0,-107.0,0
2062,11.0,-245.0,-108.0,0
2063,7.0,-243.0,-106.0,0
2064,10.0,-245.0,-106.0,0
2065,10.0,-245.0,-109.0,0
2066,10.0,-242.0,-113.0,0
2067,10.0,-246.0,-109.0,0
2068,9.0,-246.0,-104.0,0
2069,9.0,-243.0,-102.0,0
2070,10.0,-243.0,-107.0,0
2071,10.0,-244.0,-107.0,0
2072,12.0,-247.0,-104.0,0
2073,11.0,-243.0,-107.0,0
2074,9.0,-243.0,-110.0,0
2075,9.0,-243.0,-104.0,0
2076,13.0,-246.0,-105.0,0
2077,12.0,-244.0,-105.0,0
2078,10.0,-246.0,-109.0,0
2079,9.0,-247.0,-108.0,0
2080,11.0,-246.0,-106.0,0
2081,7.0,-247.0,-105.0,0
2082,9.0,-246.0,-107.0,0
2083,12.0,-246.0,-107.0,0
2084,11.0,-245.0,-106.0,0
2085,8.0,-247.0,-106.0,0
2086,8.0,-246.0,-105.0,0
2087,10.0,-244.0,-102.0,0
2088,11.0,-246.0,-105.0,0
2089,7.0,-244.0,-103.0,0
2090,12.0,-246.0,-106.0,0
2091,9.0,-244.0,-103.0,0
2092,12.0,-246.0,-105.0,0
2093,8.0,-243.0,-107.0,0
2094,11.0,-243.0,-104.0,0
2095,10.0,-242.0,-108.0,0
2096,12.0,-245.0,-106.0,0
2097,12.0,-241.0,-106.0,0
2098,10.0,-244.0,-102.0,0
2099,11.0,-243.0,-104.0,0
2100,9.0,-242.0,-104.0,0
2101,12.0,-246.0,-107.0,0
2102,12.0,-246.0,-102.0,0
2103,12.0,-248.0,-102.0,0
2104,9.0,-245.0,-105.0,0
2105,11.0,-245.0,-103.0,0
2106,9.0,-244.0,-103.0,0
2107,13.0,-243.0,-105.0,0
2108,11.0,-243.0,-109.0,0
2109,8.0,-244.0,-106.0,0
2110,9.0,-242.0,-106.0,0
2111,11.0,-244.0,-105.0,0
2112,12.0,-241.0,-108.0,0
2113,10.0,-246.0,-105.0,0
2114,11.0,-244.0,-102.0,0
2115,10.0,-246.0,-104.0,0
2116,9.0,-245.0,-106.0,0
2117,13.0,-247.0,-102.0,0
2118,10.0,-244.0,-106.0,0
2119,8.0,-245.0,-100.0,0
2120,11.0,-245.0,-103.0,0
2121,9.0,-242.0,-106.0,0
2122,6.0,-242.0,-108.0,0
2123,11.0,-243.0,-107.0,0
2124,8.0,-241.0,-105.0,0
2125,9.0,-243.0,-104.0,0
2126,10.0,-242.0,-104.0,0
2127,8.0,-243.0,-104.0,0
2128,11.0,-246.0,-103.0,0
2129,11.0,-242.0,-105.0,0
2130,9.0,-246.0,-105.0,0
2131,9.0,-242.0,-102.0,0
2132,8.0,-244.0,-108.0,0
2133,10.0,-244.0,-106.0,0
2134,10.0,-247.0,-106.0,0
2135,12.0,-248.0,-107.0,0
2136,10.0,-245.0,-110.0,0
2137,7.0,-243.0,-107.0,0
2138,9.0,-243.0,-109.0,0
2139,9.0,-246.0,-106.0,0
2140,10.0,-246.0,-105.0,0
2141,10.0,-246.0,-105.0,0
2142,13.0,-245.0,-108.0,0
2143,12.0,-244.0,-104.0,0
2144,10.0,-246.0,-109.0,0
2145,14.0,-244.0,-107.0,0
2146,10.0,-246.0,-110.0,0
2147,10.0,-243.0,-106.0,0
2148,10.0,-245.0,-106.0,0
2149,12.0,-242.0,-106.0,0
2150,15.0,-245.0,-106.0,0
2151,13.0,-243.0,-110.0,0
2152,10.0,-245.0,-107.0,0
2153,10.0,-245.0,-104.0,0
2154,12.0,-243.0,-106.0,0
2155,12.0,-245.0,-106.0,0
2156,12.0,-244.0,-108.0,0
2157,11.0,-243.0,-106.0,0
2158,10.0,-244.0,-104.0,0
2159,10.0,-244.0,-104.0,0
2160,10.0,-243.0,-107.0,0
2161,12.0,-243.0,-112.0,0
2162,10.0,-242.0,-109.0,0
2163,9.0,-245.0,-106.0,0
2164,10.0,-242.0,-108.0,0
2165,12.0,-245.0,-108.0,0
2166,11.0,-242.0,-110.0,0
2167,11.0,-242.0,-104.0,0
2168,12.0,-245.0,-111.0,0
2169,10.0,-246.0,-105.0,0
2170,10.0,-245.0,-105.0,0
2171,11.0,-246.0,-101.0,0
2172,9.0,-247.0,-106.0,0
2173,12.0,-247.0,-105.0,0
2174,10.0,-243.0,-105.0,0
2175,13.0,-248.0,-104.0,0
2176,11.0,-247.0,-108.0,0
2177,8.0,-246.0,-105.0,0
2178,10.0,-247.0,-110.0,0
2179,11.0,-242.0,-108.0,0
2180,12.0,-245.0,-108.0,0
2181,11.0,-243.0,-108.0,0
2182,11.0,-246.0,-111.0,0
2183,11.0,-243.0,-105.0,0
2184,11.0,-246.0,-108.0,0
2185,9.0,-246.0,-103.0,0
2186,10.0,-246.0,-107.0,0
2187,10.0,-245.0,-108.0,0
2188,9.0,-245.0,-107.0,0
2189,9.0,-247.0,-106.0,0
2190,9.0,-248.0,-106.0,0
2191,7.0,-244.0,-104.0,0
2192,8.0,-246.0,-104.0,0
2193,10.0,-244.0,-104.0,0
2194,11.0,-247.0,-107.0,0
2195,9.0,-247.0,-106.0,0
2196,8.0,-243.0,-104.0,0
2197,8.0,-244.0,-104.0,0
2198,10.0,-247.0,-103.0,0
2199,11.0,-247.0,-102.0,0
2200,8.0,-244.0,-103.0,0
2201,9.0,-246.0,-105.0,0
2202,10.0,-247.0,-104.0,0
2203,6.0,-246.0,-104.0,0
2204,11.0,-245.0,-107.0,0
2205,10.0,-247.0,-106.0,0
2206,8.0,-244.0,-105.0,0
2207,8.0,-245.0,-105.0,0
2208,10.0,-247.0,-106.0,0
2209,10.0,-246.0,-102.0,0
2210,10.0,-244.0,-104.0,0
2211,6.0,-244.0,-101.0,0
2212,9.0,-246.0,-104.0,0
2213,9.0,-245.0,-103.0,0
2214,10.0,-245.0,-104.0,0
2215,6.0,-244.0,-102.0,0
2216,7.0,-243.0,-103.0,0
2217,10.0,-246.0,-105.0,0
2218,7.0,-247.0,-102.0,0
2219,5.0,-245.0,-103.0,0
2220,3.0,-244.0,-105.0,0
2221,8.0,-247.0,-102.0,0
2222,7.0,-247.0,-105.0,0
2223,5.0,-245.0,-105.0,0
2224,5.0,-244.0,-106.0,0
2225,7.0,-246.0,-104.0,0
2226,6.0,-246.0,-101.0,0
2227,7.0,-243.0,-103.0,0
2228,10.0,-245.0,-104.0,0
2229,10.0,-246.0,-101.0,0
2230,6.0,-245.0,-103.0,0
2231,8.0,-245.0,-104.0,0
2232,10.0,-244.0,-106.0,0
2233,8.0,-245.0,-106.0,0
2234,9.0,-244.0,-105.0,0
2235,8.0,-246.0,-106.0,0
2236,9.0,-244.0,-104.0,0
2237,9.0,-246.0,-106.0,0
2238,8.0,-244.0,-102.0,0
2239,9.0,-241.0,-104.0,0
2240,5.0,-243.0,-108.0,0
2241,8.0,-247.0,-101.0,0
2242,9.0,-244.0,-101.0,0
2243,8.0,-243.0,-105.0,0
2244,9.0,-243.0,-108.0,0
2245,11.0,-246.0,-102.0,0
2246,10.0,-246.0,-105.0,0
2247,9.0,-247.0,-104.0,0
2248,10.0,-245.0,-106.0,0
2249,6.0,-243.0,-104.0,0
2250,8.0,-245.0,-102.0,0
2251,9.0,-245.0,-103.0,0
2252,9.0,-246.0,-100.0,0
2253,9.0,-247.0,-102.0,0
2254,11.0,-246.0,-103.0,0
2255,10.0,-248.0,-106.0,0
2256,12.0,-248.0,-106.0,0
2257,10.0,-245.0,-105.0,0
2258,10.0,-248.0,-104.0,0
2259,11.0,-245.0,-106.0,0
2260,10.0,-241.0,-107.0,0
2261,10.0,-246.0,-103.0,0
2262,11.0,-247.0,-106.0,0
2263,7.0,-242.0,-103.0,0
2264,11.0,-245.0,-101.0,0
2265,9.0,-244.0,-105.0,0
2266,10.0,-244.0,-103.0,0
2267,10.0,-245.0,-104.0,0
2268,8.0,-244.0,-101.0,0
2269,12.0,-245.0,-102.0,0
2270,9.0,-241.0,-102.0,0
2271,9.0,-242.0,-105.0,0
2272,9.0,-244.0,-100.0,0
2273,17.0,-242.0,-101.0,0
2274,9.0,-246.0,-100.0,0
2275,9.0,-242.0,-107.0,0
2276,10.0,-245.0,-104.0,0
2277,4.0,-245.0,-103.0,0
2278,9.0,-244.0,-106.0,0
2279,8.0,-247.0,-102.0,0
2280,7.0,-249.0,-101.0,0
2281,8.0,-247.0,-103.0,0
2282,10.0,-247.0,-99.0,0
2283,8.0,-245.0,-104.0,0
2284,7.0,-246.0,-101.0,0
2285,7.0,-244.0,-106.0,0
2286,8.0,-246.0,-102.0,0
2287,11.0,-245.0,-106.0,0
2288,9.0,-245.0,-107.0,0
2289,10.0,-246.0,-107.0,0
2290,9.0,-246.0,-103.0,0
2291,9.0,-244.0,-105.0,0
2292,8.0,-244.0,-100.0,0
2293,10.0,-244.0,-104.0,0
2294,7.0,-244.0,-104.0,0
2295,18.0,-247.0,-89.0,0
2296,10.0,-252.0,-115.0,0
2297,7.0,-247.0,-97.0,0
2298,9.0,-232.0,-102.0,0
2299,5.0,-254.0,-100.0,0
2300,15.0,-245.0,-101.0,0
2301,2.0,-249.0,-103.0,0
2302,9.0,-245.0,-99.0,0
2303,12.0,-244.0,-97.0,0
2304,3.0,-248.0,-99.0,0
2305,13.0,-246.0,-95.0,0
2306,17.0,-238.0,-103.0,0
2307,4.0,-246.0,-95.0,0
2308,7.0,-245.0,-98.0,0
2309,6.0,-245.0,-100.0,0
2310,8.0,-244.0,-102.0,0
2311,6.0,-248.0,-99.0,0
2312,3.0,-243.0,-97.0,0
2313,8.0,-248.0,-98.0,0
2314,10.0,-241.0,-96.0,0
2315,3.0,-250.0,-105.0,0
2316,0.0,-246.0,-106.0,0
2317,19.0,-247.0,-91.0,0
2318,8.0,-236.0,-102.0,0
2319,16.0,-243.0,-108.0,0
2320,5.0,-249.0,-99.0,0
2321,8.0,-238.0,-103.0,0
2322,13.0,-224.0,-108.0,0
2323,9.0,-243.0,-102.0,0
2324,7.0,-243.0,-104.0,0
2325,10.0,-245.0,-106.0,0
2326,7.0,-243.0,-100.0,0
2327,9.0,-246.0,-102.0,0
2328,15.0,-250.0,-104.0,0
2329,9.0,-224.0,-94.0,0
2330,10.0,-251.0,-85.0,0
2331,2.0,-247.0,-90.0,0
2332,7.0,-236.0,-113.0,0
2333,13.0,-248.0,-101.0,0
2334,18.0,-242.0,-99.0,0
2335,5.0,-240.0,-125.0,0
2336,4.0,-236.0,-98.0,0
2337,13.0,-244.0,-102.0,0
2338,9.0,-247.0,-100.0,0
2339,6.0,-247.0,-99.0,0
2340,8.0,-245.0,-102.0,0
2341,8.0,-245.0,-102.0,0
2342,5.0,-244.0,-103.0,0
2343,10.0,-245.0,-89.0,0
2344,5.0,-249.0,-102.0,0
2345,8.0,-245.0,-103.0,0
2346,9.0,-244.0,-94.0,0
2347,11.0,-247.0,-101.0,0
2348,8.0,-247.0,-98.0,0
2349,9.0,-246.0,-95.0,0
2350,10.0,-246.0,-104.0,0
2351,5.0,-250.0,-96.0,0
2352,14.0,-239.0,-95.0,0
2353,6.0,-247.0,-100.0,0
2354,7.0,-246.0,-102.0,0
2355,4.0,-244.0,-103.0,0
2356,9.0,-245.0,-101.0,0
2357,7.0,-266.0,-108.0,0
2358,20.0,-252.0,-99.0,0
2359,-1.0,-236.0,-110.0,0
2360,10.0,-255.0,-94.0,0
2361,11.0,-256.0,-83.0,0
2362,11.0,-251.0,-88.0,0
2363,7.0,-240.0,-98.0,0
2364,0.0,-239.0,-103.0,0
2365,15.0,-244.0,-105.0,0
2366,19.0,-247.0,-97.0,0
2367,8.0,-246.0,-102.0,0
2368,6.0,-246.0,-104.0,0
2369,5.0,-244.0,-103.0,0
2370,7.0,-244.0,-102.0,0
2371,7.0,-246.0,-106.0,0
2372,13.0,-249.0,-104.0,0
2373,12.0,-242.0,-102.0,0
2374,10.0,-239.0,-98.0,0
2375,9.0,-242.0,-96.0,0
2376,16.0,-245.0,-100.0,0
2377,5.0,-247.0,-112.0,0
2378,3.0,-246.0,-96.0,0
2379,6.0,-241.0,-102.0,0
2380,1.0,-240.0,-105.0,0
2381,-1.0,-243.0,-117.0,0
2382,-7.0,-251.0,-106.0,0
2383,4.0,-242.0,-121.0,0
2384,7.0,-247.0,-105.0,0
2385,5.0,-244.0,-104.0,0
2386,4.0,-244.0,-102.0,0
2387,6.0,-245.0,-102.0,0
2388,21.0,-257.0,-77.0,0
2389,13.0,-243.0,-101.0,0
2390,5.0,-243.0,-98.0,0
2391,17.0,-243.0,-112.0,0
2392,4.0,-254.0,-96.0,0
2393,10.0,-239.0,-98.0,0
2394,5.0,-243.0,-102.0,0
2395,7.0,-244.0,-105.0,0
2396,8.0,-244.0,-103.0,0
2397,5.0,-247.0,-96.0,0
2398,7.0,-245.0,-100.0,0
2399,8.0,-246.0,-103.0,0
