,accelerometer_x,accelerometer_y,accelerometer_z,fall
0,29.0,-110.0,246.0,0
1,27.0,-107.0,243.0,0
2,29.0,-106.0,243.0,0
3,27.0,-106.0,243.0,0
4,29.0,-105.0,246.0,0
5,35.0,-117.0,251.0,0
6,32.0,-102.0,247.0,0
7,32.0,-101.0,246.0,0
8,29.0,-98.0,247.0,0
9,30.0,-98.0,247.0,0
10,34.0,-99.0,247.0,0
11,29.0,-94.0,248.0,0
12,31.0,-95.0,247.0,0
13,31.0,-95.0,247.0,0
14,31.0,-93.0,247.0,0
15,29.0,-93.0,248.0,0
16,30.0,-95.0,249.0,0
17,31.0,-90.0,249.0,0
18,29.0,-95.0,247.0,0
19,34.0,-97.0,250.0,0
20,32.0,-92.0,245.0,0
21,31.0,-96.0,248.0,0
22,33.0,-94.0,254.0,0
23,32.0,-85.0,247.0,0
24,31.0,-94.0,246.0,0
25,38.0,-90.0,247.0,0
26,29.0,-101.0,251.0,0
27,32.0,-100.0,243.0,0
28,30.0,-97.0,245.0,0
29,28.0,-97.0,252.0,0
30,33.0,-106.0,253.0,0
31,31.0,-99.0,246.0,0
32,34.0,-107.0,244.0,0
33,26.0,-105.0,246.0,0
34,38.0,-99.0,244.0,0
35,26.0,-99.0,244.0,0
36,20.0,-100.0,250.0,0
37,32.0,-100.0,248.0,0
38,22.0,-100.0,245.0,0
39,16.0,-114.0,264.0,0
40,31.0,-99.0,244.0,0
41,34.0,-101.0,247.0,0
42,31.0,-99.0,250.0,0
43,30.0,-94.0,245.0,0
44,32.0,-92.0,245.0,0
45,30.0,-99.0,244.0,0
46,29.0,-99.0,247.0,0
47,31.0,-95.0,249.0,0
48,31.0,-98.0,248.0,0
49,35.0,-98.0,248.0,0
50,32.0,-97.0,245.0,0
51,33.0,-99.0,246.0,0
52,34.0,-97.0,245.0,0
53,35.0,-97.0,250.0,0
54,32.0,-98.0,246.0,0
55,33.0,-97.0,249.0,0
56,34.0,-97.0,247.0,0
57,32.0,-94.0,248.0,0
58,34.0,-97.0,248.0,0
59,33.0,-99.0,247.0,0
60,35.0,-100.0,247.0,0
61,33.0,-96.0,246.0,0
62,33.0,-98.0,251.0,0
63,33.0,-96.0,252.0,0
64,33.0,-96.0,246.0,0
65,30.0,-99.0,245.0,0
66,31.0,-97.0,251.0,0
67,33.0,-96.0,247.0,0
68,31.0,-97.0,247.0,0
69,30.0,-96.0,243.0,0
70,31.0,-93.0,250.0,0
71,30.0,-99.0,244.0,0
72,31.0,-96.0,250.0,0
73,33.0,-97.0,246.0,0
74,30.0,-99.0,250.0,0
75,31.0,-97.0,251.0,0
76,31.0,-95.0,247.0,0
77,30.0,-95.0,251.0,0
78,30.0,-98.0,251.0,0
79,30.0,-95.0,247.0,0
80,31.0,-97.0,246.0,0
81,29.0,-97.0,248.0,0
82,29.0,-96.0,247.0,0
83,30.0,-96.0,248.0,0
84,30.0,-97.0,245.0,0
85,29.0,-95.0,247.0,0
86,29.0,-98.0,247.0,0
87,29.0,-95.0,244.0,0
88,29.0,-94.0,243.0,0
89,26.0,-95.0,242.0,0
90,27.0,-95.0,243.0,0
91,28.0,-96.0,246.0,0
92,32.0,-99.0,249.0,0
93,28.0,-97.0,247.0,0
94,28.0,-99.0,248.0,0
95,27.0,-98.0,247.0,0
96,28.0,-99.0,242.0,0
97,32.0,-102.0,244.0,0
98,33.0,-101.0,242.0,0
99,33.0,-102.0,247.0,0
100,33.0,-103.0,246.0,0
101,36.0,-104.0,243.0,0
102,36.0,-104.0,253.0,0
103,39.0,-106.0,248.0,0
104,35.0,-107.0,250.0,0
105,37.0,-106.0,248.0,0
106,34.0,-110.0,246.0,0
107,33.0,-108.0,246.0,0
108,34.0,-108.0,248.0,0
109,35.0,-112.0,253.0,0
110,33.0,-119.0,252.0,0
111,35.0,-121.0,246.0,0
112,33.0,-122.0,250.0,0
113,33.0,-123.0,252.0,0
114,39.0,-125.0,251.0,0
115,39.0,-122.0,247.0,0
116,42.0,-122.0,247.0,0
117,40.0,-121.0,241.0,0
118,44.0,-123.0,235.0,0
119,44.0,-124.0,237.0,0
120,45.0,-128.0,232.0,0
121,43.0,-126.0,227.0,0
122,44.0,-129.0,231.0,0
123,46.0,-130.0,230.0,0
124,45.0,-129.0,231.0,0
125,46.0,-128.0,228.0,0
126,50.0,-123.0,229.0,0
127,49.0,-123.0,227.0,0
128,49.0,-122.0,224.0,0
129,50.0,-121.0,228.0,0
130,48.0,-118.0,230.0,0
131,52.0,-117.0,238.0,0
132,49.0,-115.0,242.0,0
133,50.0,-114.0,248.0,0
134,50.0,-112.0,250.0,0
135,50.0,-115.0,262.0,0
136,48.0,-123.0,261.0,0
137,47.0,-130.0,264.0,0
138,46.0,-139.0,268.0,0
139,46.0,-146.0,261.0,0
140,46.0,-152.0,256.0,0
141,47.0,-162.0,245.0,0
142,47.0,-165.0,234.0,0
143,49.0,-171.0,221.0,0
144,48.0,-170.0,202.0,0
145,45.0,-169.0,192.0,0
146,46.0,-172.0,176.0,0
147,38.0,-166.0,162.0,0
148,36.0,-171.0,159.0,0
149,38.0,-176.0,154.0,0
150,36.0,-178.0,162.0,0
151,32.0,-178.0,161.0,0
152,28.0,-176.0,163.0,0
153,26.0,-179.0,169.0,0
154,27.0,-172.0,168.0,0
155,28.0,-167.0,173.0,0
156,31.0,-164.0,183.0,0
157,32.0,-162.0,189.0,0
158,30.0,-163.0,200.0,0
159,29.0,-167.0,204.0,0
160,28.0,-166.0,216.0,0
161,24.0,-168.0,220.0,0
162,21.0,-171.0,227.0,0
163,15.0,-173.0,223.0,0
164,13.0,-167.0,217.0,0
165,9.0,-166.0,218.0,0
166,13.0,-163.0,213.0,0
167,11.0,-157.0,203.0,0
168,7.0,-149.0,198.0,0
169,8.0,-146.0,199.0,0
170,8.0,-145.0,201.0,0
171,6.0,-142.0,198.0,0
172,4.0,-143.0,200.0,0
173,4.0,-142.0,202.0,0
174,5.0,-148.0,208.0,0
175,6.0,-152.0,208.0,0
176,1.0,-155.0,210.0,0
177,1.0,-158.0,210.0,0
178,0.0,-160.0,208.0,0
179,-3.0,-165.0,212.0,0
180,-6.0,-165.0,202.0,0
181,-12.0,-162.0,197.0,0
182,-17.0,-166.0,193.0,0
183,-25.0,-166.0,192.0,0
184,-27.0,-166.0,193.0,0
185,-31.0,-164.0,187.0,0
186,-39.0,-169.0,189.0,0
187,-42.0,-170.0,189.0,0
188,-47.0,-174.0,192.0,0
189,-58.0,-181.0,195.0,0
190,-61.0,-179.0,200.0,0
191,-66.0,-181.0,204.0,0
192,-69.0,-183.0,211.0,0
193,-74.0,-181.0,212.0,0
194,-77.0,-176.0,217.0,0
195,-82.0,-171.0,219.0,0
196,-83.0,-164.0,223.0,0
197,-87.0,-160.0,227.0,0
198,-90.0,-153.0,227.0,0
199,-89.0,-153.0,226.0,0
200,-83.0,-152.0,228.0,0
201,-85.0,-152.0,230.0,0
202,-83.0,-154.0,233.0,0
203,-74.0,-153.0,235.0,0
204,-73.0,-158.0,238.0,0
205,-72.0,-150.0,233.0,0
206,-68.0,-156.0,230.0,0
207,-65.0,-156.0,226.0,0
208,-62.0,-158.0,220.0,0
209,-64.0,-158.0,217.0,0
210,-62.0,-165.0,214.0,0
211,-58.0,-164.0,206.0,0
212,-55.0,-165.0,204.0,0
213,-51.0,-169.0,203.0,0
214,-51.0,-173.0,202.0,0
215,-41.0,-173.0,206.0,0
216,-40.0,-172.0,204.0,0
217,-35.0,-172.0,205.0,0
218,-26.0,-169.0,204.0,0
219,-20.0,-164.0,208.0,0
220,-17.0,-158.0,203.0,0
221,-15.0,-155.0,206.0,0
222,-14.0,-154.0,207.0,0
223,-16.0,-151.0,211.0,0
224,-20.0,-150.0,218.0,0
225,-23.0,-148.0,221.0,0
226,-31.0,-148.0,225.0,0
227,-35.0,-142.0,232.0,0
228,-44.0,-137.0,229.0,0
229,-47.0,-134.0,223.0,0
230,-49.0,-132.0,223.0,0
231,-50.0,-131.0,222.0,0
232,-51.0,-130.0,218.0,0
233,-46.0,-129.0,219.0,0
234,-42.0,-133.0,215.0,0
235,-42.0,-136.0,213.0,0
236,-43.0,-137.0,213.0,0
237,-39.0,-144.0,212.0,0
238,-39.0,-148.0,212.0,0
239,-43.0,-151.0,218.0,0
240,-44.0,-155.0,218.0,0
241,-48.0,-159.0,221.0,0
242,-49.0,-157.0,223.0,0
243,-43.0,-160.0,231.0,0
244,-40.0,-157.0,230.0,0
245,-39.0,-158.0,229.0,0
246,-36.0,-156.0,231.0,0
247,-30.0,-154.0,228.0,0
248,-29.0,-148.0,230.0,0
249,-23.0,-147.0,230.0,0
250,-18.0,-141.0,232.0,0
251,-13.0,-136.0,230.0,0
252,-8.0,-134.0,229.0,0
253,-6.0,-130.0,231.0,0
254,0.0,-129.0,232.0,0
255,0.0,-128.0,232.0,0
256,9.0,-128.0,237.0,0
257,7.0,-127.0,234.0,0
258,11.0,-126.0,231.0,0
259,14.0,-124.0,233.0,0
260,17.0,-126.0,235.0,0
261,20.0,-121.0,232.0,0
262,24.0,-123.0,235.0,0
263,24.0,-120.0,232.0,0
264,26.0,-117.0,236.0,0
265,29.0,-116.0,240.0,0
266,28.0,-117.0,238.0,0
267,31.0,-114.0,243.0,0
268,30.0,-116.0,241.0,0
269,34.0,-118.0,238.0,0
270,35.0,-115.0,241.0,0
271,36.0,-119.0,239.0,0
272,35.0,-120.0,239.0,0
273,36.0,-117.0,240.0,0
274,38.0,-122.0,238.0,0
275,39.0,-122.0,239.0,0
276,39.0,-126.0,238.0,0
277,36.0,-123.0,239.0,0
278,37.0,-124.0,238.0,0
279,40.0,-124.0,237.0,0
280,35.0,-122.0,239.0,0
281,39.0,-127.0,236.0,0
282,39.0,-125.0,238.0,0
283,41.0,-126.0,236.0,0
284,45.0,-127.0,237.0,0
285,40.0,-125.0,236.0,0
286,40.0,-128.0,236.0,0
287,44.0,-129.0,231.0,0
288,40.0,-130.0,229.0,0
289,40.0,-129.0,229.0,0
290,41.0,-131.0,224.0,0
291,41.0,-131.0,223.0,0
292,37.0,-131.0,225.0,0
293,38.0,-131.0,227.0,0
294,39.0,-134.0,230.0,0
295,41.0,-132.0,228.0,0
296,37.0,-135.0,232.0,0
297,40.0,-132.0,226.0,0
298,38.0,-133.0,233.0,0
299,38.0,-132.0,234.0,0
300,40.0,-131.0,232.0,0
301,38.0,-129.0,234.0,0
302,39.0,-131.0,238.0,0
303,44.0,-127.0,234.0,0
304,41.0,-123.0,229.0,0
305,40.0,-123.0,234.0,0
306,38.0,-121.0,237.0,0
307,38.0,-121.0,239.0,0
308,35.0,-123.0,239.0,0
309,32.0,-123.0,240.0,0
310,32.0,-124.0,242.0,0
311,32.0,-120.0,243.0,0
312,28.0,-125.0,245.0,0
313,31.0,-126.0,244.0,0
314,31.0,-128.0,247.0,0
315,27.0,-123.0,246.0,0
316,28.0,-127.0,241.0,0
317,27.0,-125.0,245.0,0
318,24.0,-124.0,244.0,0
319,23.0,-122.0,238.0,0
320,20.0,-122.0,237.0,0
321,19.0,-121.0,241.0,0
322,20.0,-121.0,238.0,0
323,20.0,-120.0,238.0,0
324,15.0,-119.0,239.0,0
325,15.0,-115.0,238.0,0
326,17.0,-118.0,242.0,0
327,16.0,-116.0,240.0,0
328,15.0,-114.0,242.0,0
329,17.0,-115.0,245.0,0
330,16.0,-113.0,250.0,0
331,22.0,-109.0,248.0,0
332,20.0,-105.0,249.0,0
333,19.0,-102.0,246.0,0
334,19.0,-103.0,251.0,0
335,19.0,-101.0,246.0,0
336,16.0,-99.0,244.0,0
337,18.0,-99.0,245.0,0
338,20.0,-97.0,242.0,0
339,19.0,-100.0,240.0,0
340,17.0,-100.0,241.0,0
341,16.0,-105.0,239.0,0
342,15.0,-107.0,243.0,0
343,16.0,-113.0,243.0,0
344,15.0,-116.0,249.0,0
345,14.0,-119.0,247.0,0
346,14.0,-122.0,247.0,0
347,15.0,-122.0,248.0,0
348,13.0,-125.0,246.0,0
349,15.0,-125.0,245.0,0
350,16.0,-125.0,242.0,0
351,16.0,-121.0,238.0,0
352,15.0,-119.0,234.0,0
353,16.0,-124.0,232.0,0
354,14.0,-125.0,231.0,0
355,19.0,-130.0,228.0,0
356,22.0,-132.0,227.0,0
357,23.0,-135.0,230.0,0
358,23.0,-140.0,230.0,0
359,27.0,-140.0,231.0,0
360,24.0,-137.0,230.0,0
361,28.0,-141.0,233.0,0
362,27.0,-136.0,230.0,0
363,31.0,-134.0,229.0,0
364,30.0,-133.0,234.0,0
365,30.0,-129.0,226.0,0
366,34.0,-128.0,229.0,0
367,35.0,-126.0,231.0,0
368,37.0,-122.0,231.0,0
369,37.0,-121.0,225.0,0
370,37.0,-121.0,224.0,0
371,36.0,-119.0,228.0,0
372,36.0,-119.0,230.0,0
373,36.0,-119.0,221.0,0
374,29.0,-120.0,227.0,0
375,29.0,-124.0,227.0,0
376,25.0,-124.0,223.0,0
377,19.0,-122.0,232.0,0
378,17.0,-127.0,233.0,0
379,11.0,-126.0,232.0,0
380,8.0,-129.0,238.0,0
381,5.0,-127.0,237.0,0
382,10.0,-137.0,229.0,0
383,2.0,-128.0,240.0,0
384,-4.0,-130.0,240.0,0
385,-3.0,-129.0,236.0,0
386,-5.0,-127.0,237.0,0
387,-10.0,-127.0,239.0,0
388,-11.0,-125.0,239.0,0
389,-12.0,-125.0,238.0,0
390,-10.0,-121.0,242.0,0
391,-13.0,-117.0,246.0,0
392,-16.0,-115.0,247.0,0
393,-14.0,-111.0,244.0,0
394,-14.0,-111.0,242.0,0
395,-13.0,-113.0,246.0,0
396,-12.0,-110.0,251.0,0
397,-10.0,-114.0,249.0,0
398,-15.0,-115.0,252.0,0
399,-17.0,-117.0,256.0,0
400,-19.0,-120.0,256.0,0
401,-23.0,-119.0,258.0,0
402,-25.0,-125.0,258.0,0
403,-26.0,-126.0,256.0,0
404,-30.0,-129.0,254.0,0
405,-33.0,-130.0,245.0,0
406,-35.0,-129.0,243.0,0
407,-37.0,-130.0,231.0,0
408,-38.0,-130.0,220.0,0
409,-43.0,-129.0,210.0,0
410,-40.0,-141.0,201.0,0
411,-35.0,-150.0,187.0,0
412,-31.0,-164.0,192.0,0
413,-27.0,-174.0,186.0,0
414,-21.0,-179.0,190.0,0
415,-14.0,-182.0,189.0,0
416,-14.0,-180.0,195.0,0
417,-10.0,-182.0,198.0,0
418,-6.0,-177.0,203.0,0
419,-1.0,-170.0,203.0,0
420,1.0,-163.0,213.0,0
421,3.0,-155.0,216.0,0
422,10.0,-145.0,224.0,0
423,14.0,-137.0,225.0,0
424,15.0,-128.0,230.0,0
425,16.0,-118.0,230.0,0
426,19.0,-114.0,235.0,0
427,23.0,-107.0,235.0,0
428,27.0,-105.0,236.0,0
429,28.0,-104.0,241.0,0
430,29.0,-103.0,242.0,0
431,28.0,-106.0,242.0,0
432,26.0,-111.0,245.0,0
433,22.0,-113.0,243.0,0
434,23.0,-122.0,247.0,0
435,19.0,-120.0,254.0,0
436,14.0,-119.0,256.0,0
437,15.0,-114.0,258.0,0
438,7.0,-111.0,260.0,0
439,10.0,-107.0,259.0,0
440,7.0,-100.0,262.0,0
441,7.0,-94.0,261.0,0
442,10.0,-90.0,264.0,0
443,10.0,-86.0,262.0,0
444,13.0,-84.0,263.0,0
445,18.0,-85.0,264.0,0
446,21.0,-80.0,257.0,0
447,21.0,-78.0,257.0,0
448,25.0,-80.0,253.0,0
449,27.0,-82.0,254.0,0
450,29.0,-84.0,251.0,0
451,29.0,-87.0,246.0,0
452,30.0,-89.0,251.0,0
453,30.0,-94.0,251.0,0
454,31.0,-98.0,252.0,0
455,32.0,-103.0,250.0,0
456,29.0,-106.0,249.0,0
457,33.0,-115.0,249.0,0
458,27.0,-117.0,245.0,0
459,31.0,-123.0,245.0,0
460,32.0,-128.0,240.0,0
461,28.0,-131.0,237.0,0
462,29.0,-132.0,238.0,0
463,29.0,-137.0,233.0,0
464,29.0,-137.0,231.0,0
465,29.0,-137.0,226.0,0
466,29.0,-136.0,221.0,0
467,33.0,-136.0,221.0,0
468,34.0,-135.0,218.0,0
469,28.0,-131.0,216.0,0
470,31.0,-135.0,214.0,0
471,28.0,-129.0,215.0,0
472,31.0,-127.0,216.0,0
473,31.0,-127.0,216.0,0
474,34.0,-129.0,217.0,0
475,32.0,-129.0,219.0,0
476,36.0,-126.0,225.0,0
477,39.0,-128.0,223.0,0
478,37.0,-126.0,224.0,0
479,36.0,-128.0,229.0,0
480,34.0,-125.0,233.0,0
481,33.0,-124.0,236.0,0
482,33.0,-123.0,238.0,0
483,31.0,-122.0,234.0,0
484,30.0,-122.0,239.0,0
485,29.0,-121.0,239.0,0
486,30.0,-119.0,241.0,0
487,29.0,-120.0,250.0,0
488,31.0,-117.0,247.0,0
489,30.0,-114.0,249.0,0
490,29.0,-116.0,248.0,0
491,27.0,-108.0,254.0,0
492,29.0,-107.0,255.0,0
493,28.0,-104.0,251.0,0
494,24.0,-101.0,250.0,0
495,26.0,-102.0,252.0,0
496,24.0,-95.0,252.0,0
497,23.0,-93.0,252.0,0
498,25.0,-98.0,253.0,0
499,26.0,-97.0,251.0,0
500,24.0,-99.0,250.0,0
501,28.0,-97.0,247.0,0
502,20.0,-100.0,249.0,0
503,23.0,-105.0,249.0,0
504,22.0,-106.0,250.0,0
505,21.0,-106.0,246.0,0
506,25.0,-114.0,248.0,0
507,23.0,-114.0,247.0,0
508,22.0,-114.0,241.0,0
509,22.0,-118.0,245.0,0
510,22.0,-117.0,240.0,0
511,23.0,-118.0,236.0,0
512,22.0,-120.0,240.0,0
513,22.0,-118.0,236.0,0
514,22.0,-120.0,238.0,0
515,19.0,-116.0,238.0,0
516,15.0,-118.0,235.0,0
517,18.0,-118.0,236.0,0
518,15.0,-112.0,237.0,0
519,16.0,-112.0,237.0,0
520,17.0,-112.0,235.0,0
521,18.0,-115.0,232.0,0
522,16.0,-114.0,234.0,0
523,14.0,-111.0,236.0,0
524,13.0,-112.0,238.0,0
525,12.0,-110.0,237.0,0
526,13.0,-109.0,241.0,0
527,11.0,-109.0,238.0,0
528,12.0,-112.0,241.0,0
529,10.0,-114.0,237.0,0
530,11.0,-111.0,242.0,0
531,8.0,-116.0,244.0,0
532,10.0,-114.0,245.0,0
533,9.0,-113.0,244.0,0
534,10.0,-114.0,247.0,0
535,11.0,-115.0,244.0,0
536,12.0,-115.0,246.0,0
537,11.0,-119.0,244.0,0
538,13.0,-117.0,245.0,0
539,13.0,-114.0,245.0,0
540,14.0,-112.0,247.0,0
541,15.0,-112.0,247.0,0
542,17.0,-112.0,243.0,0
543,18.0,-108.0,247.0,0
544,15.0,-108.0,245.0,0
545,16.0,-106.0,249.0,0
546,20.0,-103.0,245.0,0
547,21.0,-103.0,248.0,0
548,20.0,-101.0,249.0,0
549,23.0,-101.0,246.0,0
550,25.0,-97.0,246.0,0
551,26.0,-101.0,251.0,0
552,24.0,-98.0,246.0,0
553,26.0,-97.0,244.0,0
554,25.0,-98.0,249.0,0
555,25.0,-99.0,247.0,0
556,22.0,-100.0,250.0,0
557,27.0,-102.0,246.0,0
558,23.0,-98.0,246.0,0
559,20.0,-99.0,247.0,0
560,20.0,-105.0,243.0,0
561,20.0,-103.0,241.0,0
562,24.0,-107.0,240.0,0
563,20.0,-108.0,243.0,0
564,24.0,-105.0,244.0,0
565,20.0,-111.0,245.0,0
566,21.0,-110.0,246.0,0
567,19.0,-110.0,241.0,0
568,20.0,-111.0,240.0,0
569,22.0,-111.0,242.0,0
570,19.0,-111.0,245.0,0
571,22.0,-106.0,239.0,0
572,22.0,-112.0,243.0,0
573,20.0,-107.0,245.0,0
574,23.0,-106.0,241.0,0
575,23.0,-108.0,244.0,0
576,24.0,-108.0,242.0,0
577,22.0,-109.0,244.0,0
578,24.0,-106.0,238.0,0
579,24.0,-109.0,243.0,0
580,27.0,-111.0,238.0,0
581,24.0,-107.0,244.0,0
582,27.0,-109.0,243.0,0
583,25.0,-105.0,246.0,0
584,24.0,-108.0,245.0,0
585,23.0,-106.0,242.0,0
586,25.0,-111.0,245.0,0
587,28.0,-108.0,245.0,0
588,26.0,-108.0,248.0,0
589,25.0,-107.0,243.0,0
590,26.0,-106.0,246.0,0
591,26.0,-106.0,250.0,0
592,28.0,-104.0,246.0,0
593,27.0,-104.0,248.0,0
594,25.0,-103.0,247.0,0
595,29.0,-100.0,246.0,0
596,27.0,-99.0,241.0,0
597,28.0,-102.0,246.0,0
598,25.0,-97.0,248.0,0
599,26.0,-100.0,244.0,0
600,27.0,-101.0,246.0,0
601,26.0,-100.0,245.0,0
602,23.0,-101.0,245.0,0
603,25.0,-103.0,247.0,0
604,25.0,-100.0,242.0,0
605,27.0,-103.0,245.0,0
606,22.0,-104.0,245.0,0
607,25.0,-105.0,245.0,0
608,23.0,-106.0,247.0,0
609,20.0,-103.0,247.0,0
610,20.0,-101.0,245.0,0
611,24.0,-104.0,245.0,0
612,21.0,-106.0,249.0,0
613,22.0,-102.0,247.0,0
614,20.0,-107.0,244.0,0
615,20.0,-107.0,246.0,0
616,22.0,-104.0,248.0,0
617,21.0,-104.0,245.0,0
618,19.0,-104.0,244.0,0
619,23.0,-103.0,245.0,0
620,21.0,-104.0,246.0,0
621,21.0,-104.0,246.0,0
622,22.0,-104.0,243.0,0
623,21.0,-102.0,245.0,0
624,20.0,-101.0,241.0,0
625,21.0,-104.0,243.0,0
626,19.0,-103.0,247.0,0
627,22.0,-103.0,247.0,0
628,18.0,-101.0,248.0,0
629,23.0,-102.0,241.0,0
630,25.0,-101.0,244.0,0
631,22.0,-104.0,245.0,0
632,21.0,-101.0,247.0,0
633,23.0,-101.0,246.0,0
634,23.0,-102.0,245.0,0
635,24.0,-101.0,245.0,0
636,24.0,-103.0,248.0,0
637,24.0,-99.0,247.0,0
638,22.0,-104.0,249.0,0
639,26.0,-101.0,243.0,0
640,23.0,-99.0,247.0,0
641,24.0,-102.0,246.0,0
642,23.0,-102.0,248.0,0
643,22.0,-101.0,244.0,0
644,23.0,-100.0,245.0,0
645,23.0,-100.0,247.0,0
646,21.0,-102.0,246.0,0
647,24.0,-98.0,245.0,0
648,25.0,-98.0,247.0,0
649,22.0,-101.0,247.0,0
650,21.0,-101.0,250.0,0
651,22.0,-101.0,249.0,0
652,24.0,-103.0,244.0,0
653,24.0,-102.0,246.0,0
654,22.0,-102.0,245.0,0
655,23.0,-100.0,249.0,0
656,26.0,-100.0,251.0,0
657,23.0,-100.0,247.0,0
658,20.0,-100.0,244.0,0
659,24.0,-100.0,246.0,0
660,24.0,-101.0,243.0,0
661,24.0,-99.0,243.0,0
662,24.0,-99.0,245.0,0
663,25.0,-100.0,247.0,0
664,26.0,-100.0,245.0,0
665,27.0,-101.0,249.0,0
666,24.0,-102.0,249.0,0
667,22.0,-99.0,245.0,0
668,25.0,-102.0,247.0,0
669,26.0,-100.0,247.0,0
670,24.0,-99.0,248.0,0
671,22.0,-97.0,244.0,0
672,24.0,-101.0,247.0,0
673,26.0,-102.0,246.0,0
674,24.0,-102.0,246.0,0
675,25.0,-102.0,249.0,0
676,23.0,-97.0,249.0,0
677,27.0,-103.0,248.0,0
678,23.0,-99.0,242.0,0
679,23.0,-101.0,250.0,0
680,25.0,-99.0,246.0,0
681,25.0,-95.0,244.0,0
682,25.0,-100.0,246.0,0
683,22.0,-98.0,248.0,0
684,24.0,-98.0,250.0,0
685,23.0,-97.0,250.0,0
686,22.0,-99.0,246.0,0
687,28.0,-99.0,245.0,0
688,23.0,-100.0,245.0,0
689,23.0,-100.0,250.0,0
690,21.0,-100.0,248.0,0
691,23.0,-98.0,243.0,0
692,19.0,-99.0,246.0,0
693,19.0,-100.0,245.0,0
694,26.0,-102.0,246.0,0
695,25.0,-103.0,247.0,0
696,24.0,-103.0,247.0,0
697,23.0,-102.0,246.0,0
698,24.0,-99.0,245.0,0
699,24.0,-104.0,249.0,0
700,27.0,-99.0,250.0,0
701,22.0,-98.0,245.0,0
702,24.0,-102.0,250.0,0
703,23.0,-98.0,249.0,0
704,24.0,-99.0,248.0,0
705,22.0,-98.0,247.0,0
706,26.0,-102.0,241.0,0
707,24.0,-99.0,248.0,0
708,23.0,-97.0,246.0,0
709,25.0,-96.0,249.0,0
710,24.0,-100.0,248.0,0
711,25.0,-101.0,246.0,0
712,25.0,-98.0,244.0,0
713,20.0,-95.0,248.0,0
714,25.0,-97.0,246.0,0
715,24.0,-96.0,247.0,0
716,23.0,-92.0,247.0,0
717,24.0,-97.0,245.0,0
718,23.0,-95.0,246.0,0
719,29.0,-97.0,249.0,0
720,26.0,-93.0,247.0,0
721,21.0,-95.0,249.0,0
722,23.0,-97.0,247.0,0
723,24.0,-95.0,249.0,0
724,25.0,-94.0,249.0,0
725,25.0,-96.0,246.0,0
726,24.0,-95.0,249.0,0
727,26.0,-98.0,253.0,0
728,22.0,-94.0,250.0,0
729,23.0,-98.0,251.0,0
730,23.0,-99.0,248.0,0
731,21.0,-97.0,248.0,0
732,24.0,-100.0,247.0,0
733,19.0,-96.0,245.0,0
734,20.0,-101.0,246.0,0
735,22.0,-98.0,247.0,0
736,20.0,-102.0,250.0,0
737,17.0,-101.0,258.0,0
738,18.0,-102.0,255.0,0
739,17.0,-101.0,249.0,0
740,17.0,-100.0,253.0,0
741,15.0,-91.0,240.0,0
742,23.0,-110.0,245.0,0
743,14.0,-112.0,243.0,0
744,20.0,-117.0,246.0,0
745,17.0,-116.0,248.0,0
746,15.0,-118.0,248.0,0
747,15.0,-116.0,245.0,0
748,14.0,-112.0,245.0,0
749,14.0,-107.0,242.0,0
750,13.0,-105.0,242.0,0
751,12.0,-105.0,244.0,0
752,12.0,-103.0,245.0,0
753,10.0,-99.0,241.0,0
754,8.0,-102.0,244.0,0
755,9.0,-103.0,242.0,0
756,6.0,-107.0,249.0,0
757,9.0,-111.0,249.0,0
758,11.0,-115.0,250.0,0
759,7.0,-114.0,250.0,0
760,10.0,-121.0,251.0,0
761,9.0,-121.0,252.0,0
762,13.0,-120.0,257.0,0
763,15.0,-119.0,256.0,0
764,18.0,-117.0,260.0,0
765,21.0,-114.0,259.0,0
766,17.0,-112.0,258.0,0
767,21.0,-115.0,253.0,0
768,20.0,-112.0,255.0,0
769,25.0,-114.0,251.0,0
770,22.0,-117.0,250.0,0
771,18.0,-119.0,250.0,0
772,20.0,-124.0,251.0,0
773,15.0,-123.0,249.0,0
774,10.0,-123.0,248.0,0
775,15.0,-121.0,245.0,0
776,8.0,-115.0,243.0,0
777,8.0,-111.0,242.0,0
778,6.0,-108.0,239.0,0
779,4.0,-110.0,240.0,0
780,2.0,-105.0,238.0,0
781,3.0,-111.0,241.0,0
782,4.0,-116.0,242.0,0
783,4.0,-121.0,239.0,0
784,2.0,-121.0,235.0,0
785,2.0,-125.0,231.0,0
786,5.0,-127.0,227.0,0
787,5.0,-126.0,224.0,0
788,6.0,-125.0,224.0,0
789,7.0,-119.0,222.0,0
790,12.0,-114.0,221.0,0
791,17.0,-110.0,223.0,0
792,20.0,-106.0,224.0,0
793,23.0,-100.0,235.0,0
794,27.0,-105.0,229.0,0
795,28.0,-104.0,236.0,0
796,29.0,-109.0,241.0,0
797,30.0,-112.0,251.0,0
798,29.0,-121.0,250.0,0
799,24.0,-123.0,250.0,0
800,18.0,-125.0,252.0,0
801,15.0,-124.0,242.0,0
802,13.0,-125.0,247.0,0
803,9.0,-126.0,240.0,0
804,2.0,-126.0,239.0,0
805,1.0,-128.0,236.0,0
806,5.0,-130.0,230.0,0
807,6.0,-130.0,233.0,0
808,11.0,-132.0,227.0,0
809,11.0,-135.0,221.0,0
810,18.0,-142.0,216.0,0
811,27.0,-144.0,216.0,0
812,34.0,-144.0,218.0,0
813,43.0,-146.0,220.0,0
814,40.0,-144.0,220.0,0
815,43.0,-146.0,230.0,0
816,43.0,-149.0,227.0,0
817,37.0,-154.0,228.0,0
818,33.0,-152.0,225.0,0
819,36.0,-157.0,226.0,0
820,31.0,-161.0,223.0,0
821,32.0,-164.0,221.0,0
822,27.0,-169.0,216.0,0
823,27.0,-169.0,215.0,0
824,33.0,-174.0,215.0,0
825,27.0,-176.0,214.0,0
826,23.0,-178.0,212.0,0
827,16.0,-178.0,222.0,0
828,17.0,-180.0,218.0,0
829,10.0,-178.0,219.0,0
830,6.0,-172.0,213.0,0
831,3.0,-174.0,217.0,0
832,2.0,-175.0,212.0,0
833,-8.0,-177.0,208.0,0
834,-13.0,-173.0,198.0,0
835,-16.0,-174.0,206.0,0
836,-16.0,-174.0,209.0,0
837,-23.0,-174.0,205.0,0
838,-35.0,-172.0,206.0,0
839,-37.0,-166.0,215.0,0
840,-37.0,-155.0,217.0,0
841,-39.0,-148.0,211.0,0
842,-40.0,-143.0,214.0,0
843,-51.0,-138.0,219.0,0
844,-47.0,-137.0,222.0,0
845,-49.0,-142.0,221.0,0
846,-47.0,-136.0,223.0,0
847,-43.0,-137.0,223.0,0
848,-47.0,-132.0,227.0,0
849,-40.0,-139.0,210.0,0
850,-37.0,-134.0,213.0,0
851,-34.0,-134.0,208.0,0
852,-33.0,-133.0,209.0,0
853,-28.0,-129.0,204.0,0
854,-26.0,-125.0,211.0,0
855,-20.0,-122.0,211.0,0
856,-17.0,-123.0,220.0,0
857,-15.0,-125.0,223.0,0
858,-11.0,-126.0,227.0,0
859,-8.0,-129.0,229.0,0
860,0.0,-132.0,232.0,0
861,-2.0,-135.0,232.0,0
862,1.0,-140.0,238.0,0
863,-5.0,-142.0,238.0,0
864,-2.0,-146.0,235.0,0
865,-4.0,-150.0,233.0,0
866,-3.0,-145.0,229.0,0
867,-1.0,-144.0,222.0,0
868,0.0,-140.0,218.0,0
869,3.0,-139.0,216.0,0
870,6.0,-144.0,219.0,0
871,4.0,-145.0,220.0,0
872,5.0,-148.0,227.0,0
873,17.0,-157.0,240.0,0
874,24.0,-162.0,242.0,0
875,31.0,-170.0,253.0,0
876,41.0,-173.0,257.0,0
877,44.0,-177.0,258.0,0
878,51.0,-180.0,262.0,0
879,51.0,-176.0,262.0,0
880,63.0,-171.0,263.0,0
881,64.0,-160.0,261.0,0
882,72.0,-149.0,258.0,0
883,77.0,-137.0,257.0,0
884,79.0,-124.0,256.0,0
885,83.0,-115.0,262.0,0
886,83.0,-104.0,268.0,0
887,89.0,-101.0,275.0,0
888,91.0,-102.0,291.0,0
889,88.0,-104.0,303.0,0
890,87.0,-107.0,308.0,0
891,79.0,-112.0,316.0,0
892,68.0,-113.0,316.0,0
893,60.0,-118.0,313.0,0
894,42.0,-117.0,310.0,0
895,31.0,-124.0,309.0,0
896,17.0,-127.0,300.0,0
897,2.0,-130.0,297.0,0
898,-17.0,-131.0,295.0,0
899,-40.0,-132.0,295.0,0
900,-48.0,-133.0,296.0,0
901,-45.0,-132.0,288.0,0
902,-43.0,-136.0,278.0,0
903,-37.0,-141.0,270.0,0
904,-32.0,-146.0,262.0,0
905,-21.0,-148.0,255.0,0
906,-15.0,-154.0,253.0,0
907,-6.0,-154.0,244.0,0
908,-1.0,-154.0,238.0,0
909,9.0,-148.0,226.0,0
910,17.0,-142.0,223.0,0
911,27.0,-138.0,209.0,0
912,40.0,-131.0,197.0,0
913,47.0,-124.0,196.0,0
914,56.0,-120.0,192.0,0
915,62.0,-121.0,184.0,0
916,67.0,-116.0,179.0,0
917,71.0,-108.0,169.0,0
918,75.0,-103.0,163.0,0
919,83.0,-93.0,153.0,0
920,86.0,-78.0,146.0,0
921,93.0,-65.0,142.0,0
922,97.0,-55.0,142.0,0
923,105.0,-48.0,138.0,0
924,111.0,-30.0,141.0,0
925,121.0,-27.0,132.0,0
926,126.0,-18.0,129.0,0
927,139.0,-14.0,125.0,0
928,144.0,-10.0,123.0,0
929,147.0,-1.0,114.0,0
930,147.0,-4.0,102.0,0
931,143.0,-8.0,99.0,0
932,142.0,-18.0,94.0,0
933,139.0,-23.0,96.0,0
934,133.0,-31.0,100.0,0
935,130.0,-38.0,99.0,0
936,123.0,-36.0,101.0,0
937,124.0,-37.0,100.0,0
938,123.0,-31.0,94.0,0
939,121.0,-28.0,89.0,0
940,119.0,-28.0,93.0,0
941,121.0,-35.0,89.0,0
942,120.0,-35.0,91.0,0
943,119.0,-40.0,96.0,0
944,122.0,-46.0,99.0,0
945,125.0,-52.0,100.0,0
946,129.0,-58.0,106.0,0
947,130.0,-62.0,114.0,0
948,136.0,-65.0,115.0,0
949,143.0,-69.0,116.0,0
950,155.0,-70.0,118.0,0
951,160.0,-72.0,120.0,0
952,170.0,-74.0,120.0,0
953,176.0,-72.0,120.0,0
954,182.0,-70.0,118.0,0
955,191.0,-69.0,112.0,0
956,197.0,-71.0,112.0,0
957,204.0,-66.0,109.0,0
958,222.0,-62.0,115.0,0
959,236.0,-60.0,117.0,0
960,250.0,-57.0,123.0,0
961,267.0,-54.0,131.0,0
962,286.0,-51.0,141.0,0
963,299.0,-48.0,155.0,0
964,302.0,-51.0,170.0,0
965,293.0,-55.0,190.0,0
966,277.0,-63.0,212.0,0
967,256.0,-71.0,244.0,0
968,234.0,-89.0,266.0,0
969,235.0,-102.0,284.0,0
970,252.0,-119.0,299.0,0
971,273.0,-139.0,314.0,0
972,292.0,-162.0,324.0,0
973,300.0,-185.0,326.0,0
974,305.0,-206.0,319.0,0
975,308.0,-219.0,305.0,0
976,306.0,-222.0,287.0,0
977,289.0,-210.0,260.0,0
978,264.0,-200.0,246.0,0
979,234.0,-179.0,226.0,0
980,192.0,-161.0,209.0,0
981,153.0,-140.0,192.0,0
982,127.0,-127.0,184.0,0
983,98.0,-111.0,179.0,0
984,83.0,-93.0,181.0,0
985,71.0,-73.0,189.0,0
986,65.0,-56.0,191.0,0
987,71.0,-36.0,195.0,0
988,87.0,-19.0,195.0,0
989,105.0,0.0,192.0,0
990,123.0,8.0,176.0,0
991,134.0,11.0,156.0,0
992,141.0,7.0,142.0,0
993,147.0,2.0,133.0,0
994,148.0,-7.0,125.0,0
995,154.0,-19.0,122.0,0
996,158.0,-25.0,128.0,0
997,171.0,-32.0,142.0,0
998,178.0,-31.0,151.0,0
999,193.0,-26.0,165.0,0
1000,198.0,-12.0,187.0,0
1001,206.0,-1.0,194.0,0
1002,217.0,12.0,192.0,0
1003,231.0,11.0,171.0,0
1004,239.0,11.0,153.0,0
1005,246.0,-4.0,137.0,0
1006,247.0,-22.0,129.0,0
1007,250.0,-41.0,120.0,0
1008,247.0,-53.0,118.0,0
1009,243.0,-63.0,115.0,0
1010,240.0,-64.0,114.0,0
1011,238.0,-65.0,120.0,0
1012,247.0,-66.0,115.0,0
1013,251.0,-63.0,114.0,0
1014,255.0,-66.0,107.0,0
1015,256.0,-65.0,105.0,0
1016,262.0,-64.0,104.0,0
1017,259.0,-60.0,101.0,0
1018,259.0,-58.0,106.0,0
1019,256.0,-58.0,108.0,0
1020,253.0,-60.0,116.0,0
1021,245.0,-60.0,111.0,0
1022,239.0,-61.0,111.0,0
1023,234.0,-64.0,112.0,0
1024,231.0,-64.0,112.0,0
1025,226.0,-60.0,110.0,0
1026,235.0,-60.0,103.0,0
1027,235.0,-55.0,100.0,0
1028,235.0,-50.0,93.0,0
1029,235.0,-41.0,86.0,0
1030,232.0,-36.0,82.0,0
1031,233.0,-37.0,73.0,0
1032,232.0,-35.0,70.0,0
1033,233.0,-31.0,66.0,0
1034,229.0,-29.0,67.0,0
1035,229.0,-31.0,72.0,0
1036,232.0,-37.0,68.0,0
1037,232.0,-40.0,66.0,0
1038,240.0,-43.0,64.0,0
1039,247.0,-45.0,66.0,0
1040,249.0,-52.0,63.0,0
1041,251.0,-54.0,58.0,0
1042,254.0,-57.0,55.0,0
1043,255.0,-60.0,56.0,0
1044,255.0,-66.0,50.0,0
1045,260.0,-69.0,47.0,0
1046,257.0,-72.0,44.0,0
1047,261.0,-76.0,40.0,0
1048,263.0,-74.0,36.0,0
1049,269.0,-77.0,36.0,0
1050,274.0,-73.0,30.0,0
1051,279.0,-72.0,26.0,0
1052,286.0,-72.0,19.0,0
1053,286.0,-71.0,21.0,0
1054,282.0,-67.0,20.0,0
1055,281.0,-61.0,25.0,0
1056,274.0,-52.0,21.0,0
1057,264.0,-44.0,24.0,0
1058,264.0,-47.0,9.0,0
1059,271.0,-47.0,4.0,0
1060,275.0,-39.0,0.0,0
1061,277.0,-35.0,4.0,0
1062,282.0,-29.0,11.0,0
1063,280.0,-27.0,18.0,0
1064,281.0,-31.0,11.0,0
1065,279.0,-26.0,14.0,0
1066,278.0,-28.0,15.0,0
1067,279.0,-25.0,10.0,0
1068,276.0,-20.0,12.0,0
1069,272.0,-18.0,15.0,0
1070,272.0,-20.0,11.0,0
1071,267.0,-19.0,9.0,0
1072,265.0,-20.0,14.0,0
1073,268.0,-20.0,14.0,0
1074,262.0,-20.0,13.0,0
1075,259.0,-25.0,10.0,0
1076,255.0,-30.0,12.0,0
1077,256.0,-27.0,4.0,0
1078,255.0,-32.0,4.0,0
1079,256.0,-37.0,2.0,0
1080,256.0,-39.0,0.0,0
1081,257.0,-37.0,-6.0,0
1082,260.0,-36.0,-11.0,0
1083,260.0,-34.0,-11.0,0
1084,262.0,-31.0,-10.0,0
1085,264.0,-33.0,-4.0,0
1086,263.0,-31.0,-2.0,0
1087,260.0,-33.0,-4.0,0
1088,262.0,-34.0,-3.0,0
1089,262.0,-36.0,-1.0,0
1090,262.0,-35.0,0.0,0
1091,261.0,-38.0,1.0,0
1092,257.0,-39.0,2.0,0
1093,256.0,-37.0,5.0,0
1094,249.0,-37.0,3.0,0
1095,250.0,-33.0,6.0,0
1096,247.0,-29.0,8.0,0
1097,242.0,-25.0,8.0,0
1098,250.0,-20.0,22.0,0
1099,244.0,-26.0,8.0,0
1100,245.0,-26.0,10.0,0
1101,244.0,-30.0,12.0,0
1102,245.0,-32.0,10.0,0
1103,242.0,-36.0,6.0,0
1104,242.0,-39.0,5.0,0
1105,246.0,-36.0,7.0,0
1106,248.0,-37.0,10.0,0
1107,254.0,-32.0,9.0,0
1108,257.0,-27.0,11.0,0
1109,261.0,-26.0,8.0,0
1110,265.0,-25.0,2.0,0
1111,267.0,-24.0,6.0,0
1112,266.0,-29.0,2.0,0
1113,265.0,-27.0,2.0,0
1114,267.0,-29.0,6.0,0
1115,267.0,-30.0,5.0,0
1116,266.0,-29.0,10.0,0
1117,263.0,-32.0,14.0,0
1118,262.0,-34.0,21.0,0
1119,260.0,-41.0,17.0,0
1120,258.0,-40.0,20.0,0
1121,262.0,-42.0,19.0,0
1122,259.0,-41.0,23.0,0
1123,265.0,-43.0,19.0,0
1124,265.0,-37.0,16.0,0
1125,267.0,-35.0,19.0,0
1126,267.0,-30.0,21.0,0
1127,266.0,-27.0,19.0,0
1128,264.0,-23.0,14.0,0
1129,262.0,-20.0,18.0,0
1130,259.0,-16.0,20.0,0
1131,261.0,-18.0,18.0,0
1132,257.0,-16.0,17.0,0
1133,256.0,-16.0,20.0,0
1134,255.0,-13.0,20.0,0
1135,251.0,-11.0,21.0,0
1136,252.0,-11.0,17.0,0
1137,250.0,-13.0,20.0,0
1138,248.0,-8.0,22.0,0
1139,247.0,-10.0,22.0,0
1140,250.0,-10.0,23.0,0
1141,248.0,-11.0,22.0,0
1142,251.0,-16.0,23.0,0
1143,248.0,-15.0,22.0,0
1144,250.0,-16.0,20.0,0
1145,251.0,-17.0,18.0,0
1146,249.0,-19.0,20.0,0
1147,247.0,-19.0,20.0,0
1148,247.0,-19.0,18.0,0
1149,244.0,-20.0,14.0,0
1150,248.0,-16.0,11.0,0
1151,248.0,-14.0,7.0,0
1152,250.0,-9.0,8.0,0
1153,250.0,-9.0,2.0,0
1154,252.0,-8.0,3.0,0
1155,255.0,-8.0,1.0,0
1156,253.0,-2.0,0.0,0
1157,257.0,-6.0,-2.0,0
1158,257.0,-5.0,0.0,0
1159,256.0,-8.0,0.0,0
1160,261.0,-9.0,6.0,0
1161,257.0,-3.0,1.0,0
1162,257.0,-5.0,6.0,0
1163,260.0,-4.0,2.0,0
1164,260.0,-10.0,6.0,0
1165,260.0,-12.0,9.0,0
1166,259.0,-18.0,8.0,0
1167,259.0,-14.0,8.0,0
1168,262.0,-20.0,5.0,0
1169,258.0,-18.0,13.0,0
1170,255.0,-17.0,7.0,0
1171,257.0,-17.0,8.0,0
1172,257.0,-12.0,8.0,0
1173,260.0,-12.0,4.0,0
1174,254.0,-11.0,1.0,0
1175,257.0,-9.0,4.0,0
1176,258.0,-7.0,-2.0,0
1177,256.0,-1.0,-4.0,0
1178,255.0,1.0,-5.0,0
1179,254.0,0.0,-6.0,0
1180,256.0,0.0,-7.0,0
1181,251.0,3.0,-8.0,0
1182,253.0,-1.0,-11.0,0
1183,255.0,0.0,-10.0,0
1184,254.0,-2.0,-11.0,0
1185,256.0,-5.0,-18.0,0
1186,257.0,-7.0,-14.0,0
1187,257.0,-8.0,-16.0,0
1188,257.0,-6.0,-14.0,0
1189,259.0,-5.0,-18.0,0
1190,260.0,0.0,-16.0,0
1191,258.0,0.0,-16.0,0
1192,263.0,1.0,-13.0,0
1193,265.0,0.0,-18.0,0
1194,265.0,1.0,-12.0,0
1195,265.0,3.0,-13.0,0
1196,263.0,1.0,-12.0,0
1197,263.0,-2.0,-16.0,0
1198,267.0,0.0,-18.0,0
1199,265.0,0.0,-16.0,0
1200,262.0,0.0,-15.0,0
1201,262.0,2.0,-12.0,0
1202,264.0,3.0,-12.0,0
1203,263.0,2.0,-15.0,0
1204,262.0,7.0,-16.0,0
1205,265.0,8.0,-19.0,0
1206,264.0,10.0,-14.0,0
1207,263.0,14.0,-16.0,0
1208,261.0,14.0,-12.0,0
1209,264.0,20.0,-17.0,0
1210,266.0,20.0,-13.0,0
1211,264.0,20.0,-13.0,0
1212,266.0,22.0,-11.0,0
1213,267.0,17.0,-12.0,0
1214,267.0,20.0,-10.0,0
1215,262.0,20.0,-6.0,0
1216,267.0,19.0,-7.0,0
1217,263.0,21.0,-9.0,0
1218,262.0,18.0,-8.0,0
1219,264.0,17.0,-9.0,0
1220,263.0,16.0,-8.0,0
1221,259.0,14.0,-11.0,0
1222,259.0,17.0,-8.0,0
1223,259.0,14.0,-13.0,0
1224,260.0,11.0,-10.0,0
1225,258.0,13.0,-8.0,0
1226,260.0,8.0,-15.0,0
1227,257.0,11.0,-7.0,0
1228,255.0,9.0,-10.0,0
1229,257.0,9.0,-5.0,0
1230,258.0,7.0,-7.0,0
1231,256.0,10.0,-9.0,0
1232,256.0,14.0,-2.0,0
1233,259.0,13.0,-5.0,0
1234,259.0,14.0,-6.0,0
1235,258.0,16.0,-8.0,0
1236,259.0,12.0,-3.0,0
1237,258.0,20.0,-7.0,0
1238,257.0,18.0,-8.0,0
1239,259.0,18.0,-4.0,0
1240,259.0,20.0,-3.0,0
1241,257.0,17.0,-5.0,0
1242,258.0,19.0,-1.0,0
1243,256.0,21.0,-1.0,0
1244,259.0,18.0,0.0,0
1245,256.0,21.0,0.0,0
1246,260.0,19.0,0.0,0
1247,257.0,14.0,0.0,0
1248,256.0,18.0,2.0,0
1249,258.0,18.0,3.0,0
1250,258.0,13.0,1.0,0
1251,260.0,13.0,1.0,0
1252,262.0,11.0,0.0,0
1253,260.0,12.0,0.0,0
1254,262.0,11.0,0.0,0
1255,263.0,13.0,0.0,0
1256,267.0,11.0,0.0,0
1257,262.0,16.0,-2.0,0
1258,259.0,14.0,-1.0,0
1259,263.0,14.0,0.0,0
1260,259.0,14.0,-2.0,0
1261,261.0,10.0,-5.0,0
1262,258.0,16.0,-4.0,0
1263,258.0,15.0,-6.0,0
1264,257.0,12.0,-7.0,0
1265,257.0,10.0,-8.0,0
1266,255.0,10.0,-5.0,0
1267,257.0,8.0,-5.0,0
1268,256.0,7.0,0.0,0
1269,258.0,0.0,-2.0,0
1270,260.0,0.0,-1.0,0
1271,259.0,0.0,0.0,0
1272,260.0,-2.0,1.0,0
1273,266.0,-2.0,6.0,0
1274,262.0,-5.0,4.0,0
1275,263.0,-5.0,1.0,0
1276,266.0,-9.0,3.0,0
1277,263.0,-8.0,3.0,0
1278,264.0,-7.0,1.0,0
1279,268.0,-11.0,3.0,0
1280,265.0,-6.0,3.0,0
1281,267.0,-3.0,1.0,0
1282,265.0,-5.0,4.0,0
1283,268.0,-7.0,6.0,0
1284,257.0,-3.0,9.0,0
1285,261.0,-7.0,9.0,0
1286,257.0,-8.0,14.0,0
1287,255.0,-9.0,19.0,0
1288,252.0,-11.0,18.0,0
1289,255.0,-16.0,18.0,0
1290,251.0,-17.0,22.0,0
1291,247.0,-15.0,23.0,0
1292,250.0,-20.0,25.0,0
1293,248.0,-20.0,29.0,0
1294,241.0,-18.0,29.0,0
1295,245.0,-20.0,29.0,0
1296,249.0,-19.0,32.0,0
1297,251.0,-23.0,30.0,0
1298,251.0,-17.0,35.0,0
1299,251.0,-18.0,29.0,0
1300,253.0,-14.0,31.0,0
1301,254.0,-13.0,33.0,0
1302,255.0,-8.0,32.0,0
1303,256.0,-12.0,27.0,0
1304,255.0,-6.0,33.0,0
1305,256.0,-10.0,38.0,0
1306,255.0,-8.0,40.0,0
1307,255.0,-10.0,37.0,0
1308,257.0,-10.0,39.0,0
1309,256.0,-13.0,44.0,0
1310,257.0,-14.0,39.0,0
1311,255.0,-13.0,45.0,0
1312,254.0,-17.0,46.0,0
1313,256.0,-20.0,39.0,0
1314,257.0,-17.0,39.0,0
1315,255.0,-16.0,45.0,0
1316,254.0,-17.0,40.0,0
1317,255.0,-19.0,39.0,0
1318,252.0,-18.0,41.0,0
1319,251.0,-17.0,37.0,0
1320,250.0,-18.0,40.0,0
1321,252.0,-19.0,37.0,0
1322,251.0,-18.0,41.0,0
1323,249.0,-18.0,40.0,0
1324,251.0,-19.0,41.0,0
1325,251.0,-17.0,39.0,0
1326,248.0,-15.0,40.0,0
1327,249.0,-14.0,39.0,0
1328,245.0,-14.0,41.0,0
1329,247.0,-13.0,43.0,0
1330,249.0,-13.0,40.0,0
1331,244.0,-8.0,44.0,0
1332,246.0,-8.0,41.0,0
1333,246.0,-9.0,44.0,0
1334,246.0,-9.0,46.0,0
1335,249.0,-10.0,40.0,0
1336,247.0,-6.0,38.0,0
1337,248.0,-7.0,45.0,0
1338,249.0,-5.0,42.0,0
1339,250.0,-4.0,43.0,0
1340,251.0,-6.0,48.0,0
1341,250.0,-4.0,43.0,0
1342,252.0,-7.0,47.0,0
1343,249.0,-3.0,47.0,0
1344,251.0,-2.0,44.0,0
1345,251.0,-8.0,52.0,0
1346,253.0,-10.0,51.0,0
1347,249.0,-8.0,47.0,0
1348,253.0,-12.0,48.0,0
1349,253.0,-9.0,48.0,0
1350,250.0,-12.0,49.0,0
1351,248.0,-9.0,45.0,0
1352,249.0,-10.0,46.0,0
1353,251.0,-8.0,47.0,0
1354,253.0,-10.0,46.0,0
1355,251.0,-8.0,48.0,0
1356,254.0,-9.0,45.0,0
1357,254.0,-7.0,43.0,0
1358,256.0,-7.0,43.0,0
1359,252.0,-7.0,46.0,0
1360,254.0,-8.0,46.0,0
1361,252.0,-6.0,44.0,0
1362,254.0,-8.0,43.0,0
1363,254.0,-7.0,44.0,0
1364,254.0,-6.0,42.0,0
1365,253.0,-7.0,41.0,0
1366,253.0,-7.0,42.0,0
1367,255.0,-12.0,41.0,0
1368,255.0,-12.0,41.0,0
1369,254.0,-14.0,44.0,0
1370,252.0,-16.0,45.0,0
1371,254.0,-16.0,39.0,0
1372,254.0,-15.0,40.0,0
1373,255.0,-17.0,39.0,0
1374,256.0,-18.0,34.0,0
1375,258.0,-16.0,39.0,0
1376,257.0,-18.0,37.0,0
1377,257.0,-16.0,29.0,0
1378,257.0,-16.0,34.0,0
1379,255.0,-15.0,30.0,0
1380,257.0,-16.0,30.0,0
1381,259.0,-16.0,33.0,0
1382,256.0,-14.0,31.0,0
1383,255.0,-17.0,31.0,0
1384,257.0,-16.0,32.0,0
1385,256.0,-11.0,34.0,0
1386,256.0,-15.0,31.0,0
1387,254.0,-9.0,31.0,0
1388,255.0,-12.0,32.0,0
1389,257.0,-9.0,34.0,0
1390,256.0,-8.0,32.0,0
1391,255.0,-11.0,34.0,0
1392,255.0,-6.0,35.0,0
1393,256.0,-12.0,33.0,0
1394,253.0,-8.0,34.0,0
1395,255.0,-6.0,35.0,0
1396,255.0,-6.0,33.0,0
1397,255.0,-3.0,33.0,0
1398,254.0,-4.0,34.0,0
1399,257.0,-4.0,34.0,0
1400,257.0,-5.0,36.0,0
1401,255.0,-7.0,34.0,0
1402,256.0,-7.0,33.0,0
1403,257.0,-8.0,35.0,0
1404,258.0,-12.0,33.0,0
1405,256.0,-9.0,32.0,0
1406,255.0,-11.0,35.0,0
1407,256.0,-11.0,32.0,0
1408,257.0,-9.0,34.0,0
1409,256.0,-11.0,33.0,0
1410,259.0,-12.0,39.0,0
1411,258.0,-11.0,34.0,0
1412,256.0,-10.0,31.0,0
1413,259.0,-10.0,31.0,0
1414,257.0,-10.0,31.0,0
1415,256.0,-11.0,34.0,0
1416,258.0,-11.0,28.0,0
1417,257.0,-4.0,29.0,0
1418,257.0,-9.0,34.0,0
1419,257.0,-7.0,32.0,0
1420,255.0,-7.0,31.0,0
1421,256.0,-6.0,35.0,0
1422,257.0,-8.0,31.0,0
1423,258.0,-7.0,32.0,0
1424,254.0,-6.0,28.0,0
1425,256.0,-4.0,32.0,0
1426,257.0,-10.0,29.0,0
1427,257.0,-7.0,30.0,0
1428,257.0,-4.0,33.0,0
1429,256.0,-4.0,32.0,0
1430,258.0,-9.0,29.0,0
1431,256.0,-5.0,32.0,0
1432,257.0,-8.0,28.0,0
1433,256.0,-3.0,29.0,0
1434,256.0,-6.0,28.0,0
1435,255.0,-6.0,29.0,0
1436,256.0,-3.0,33.0,0
1437,257.0,-7.0,29.0,0
1438,257.0,-6.0,27.0,0
1439,257.0,-9.0,28.0,0
1440,258.0,-7.0,27.0,0
1441,256.0,-5.0,28.0,0
1442,256.0,-8.0,27.0,0
1443,257.0,-7.0,27.0,0
1444,256.0,-8.0,28.0,0
1445,256.0,-5.0,29.0,0
1446,254.0,-4.0,28.0,0
1447,255.0,-5.0,28.0,0
1448,258.0,-7.0,26.0,0
1449,252.0,-2.0,27.0,0
1450,255.0,-6.0,25.0,0
1451,256.0,-6.0,27.0,0
1452,255.0,-4.0,27.0,0
1453,255.0,-4.0,28.0,0
1454,257.0,-6.0,26.0,0
1455,254.0,-4.0,26.0,0
1456,257.0,-6.0,27.0,0
1457,268.0,-13.0,32.0,0
1458,257.0,-7.0,27.0,0
1459,257.0,-4.0,27.0,0
1460,259.0,-7.0,29.0,0
1461,257.0,-5.0,25.0,0
1462,257.0,-2.0,25.0,0
1463,259.0,-1.0,25.0,0
1464,260.0,-4.0,23.0,0
1465,258.0,-2.0,27.0,0
1466,260.0,-6.0,24.0,0
1467,257.0,-5.0,22.0,0
1468,258.0,-8.0,27.0,0
1469,257.0,-3.0,22.0,0
1470,256.0,0.0,21.0,0
1471,256.0,-4.0,19.0,0
1472,257.0,-2.0,22.0,0
1473,255.0,-3.0,21.0,0
1474,257.0,0.0,24.0,0
1475,255.0,-3.0,24.0,0
1476,257.0,-5.0,23.0,0
1477,257.0,-1.0,20.0,0
1478,258.0,-4.0,18.0,0
1479,257.0,-3.0,26.0,0
1480,258.0,0.0,21.0,0
1481,258.0,0.0,24.0,0
1482,258.0,-3.0,23.0,0
1483,258.0,-2.0,24.0,0
1484,257.0,1.0,24.0,0
1485,257.0,-2.0,20.0,0
1486,258.0,-4.0,20.0,0
1487,260.0,0.0,23.0,0
1488,256.0,-1.0,25.0,0
1489,256.0,-4.0,22.0,0
1490,258.0,-4.0,22.0,0
1491,257.0,-3.0,25.0,0
1492,258.0,-2.0,24.0,0
1493,259.0,-1.0,21.0,0
1494,256.0,-1.0,21.0,0
1495,259.0,-2.0,17.0,0
1496,258.0,0.0,19.0,0
1497,258.0,-4.0,23.0,0
1498,256.0,0.0,20.0,0
1499,254.0,0.0,21.0,0
1500,256.0,0.0,20.0,0
1501,255.0,0.0,20.0,0
1502,258.0,0.0,16.0,0
1503,257.0,0.0,16.0,0
1504,258.0,-1.0,22.0,0
1505,257.0,-2.0,20.0,0
1506,256.0,1.0,20.0,0
1507,258.0,0.0,20.0,0
1508,259.0,-3.0,21.0,0
1509,259.0,-3.0,20.0,0
1510,258.0,-1.0,20.0,0
1511,257.0,-3.0,23.0,0
1512,256.0,-1.0,18.0,0
1513,259.0,0.0,20.0,0
1514,259.0,0.0,24.0,0
1515,258.0,0.0,20.0,0
1516,259.0,0.0,18.0,0
1517,257.0,0.0,24.0,0
1518,257.0,-3.0,20.0,0
1519,256.0,0.0,20.0,0
1520,257.0,-1.0,19.0,0
1521,256.0,-1.0,24.0,0
1522,259.0,0.0,18.0,0
1523,256.0,1.0,23.0,0
1524,258.0,0.0,23.0,0
1525,257.0,0.0,22.0,0
1526,256.0,-1.0,25.0,0
1527,258.0,-1.0,19.0,0
1528,257.0,-2.0,25.0,0
1529,258.0,-1.0,23.0,0
1530,257.0,-2.0,21.0,0
1531,256.0,-1.0,22.0,0
1532,256.0,-3.0,20.0,0
1533,259.0,-2.0,24.0,0
1534,259.0,-1.0,19.0,0
1535,255.0,-2.0,26.0,0
1536,257.0,-2.0,22.0,0
1537,255.0,0.0,21.0,0
1538,256.0,-3.0,20.0,0
1539,256.0,-3.0,21.0,0
1540,257.0,0.0,23.0,0
1541,258.0,-2.0,23.0,0
1542,259.0,-3.0,24.0,0
1543,256.0,-1.0,27.0,0
1544,256.0,-1.0,23.0,0
1545,256.0,-2.0,24.0,0
1546,256.0,-3.0,21.0,0
1547,255.0,0.0,21.0,0
1548,258.0,-4.0,20.0,0
1549,255.0,0.0,25.0,0
1550,256.0,-2.0,23.0,0
1551,256.0,0.0,22.0,0
1552,257.0,0.0,27.0,0
1553,256.0,0.0,21.0,0
1554,256.0,-5.0,22.0,0
1555,256.0,-3.0,25.0,0
1556,256.0,0.0,23.0,0
1557,259.0,1.0,22.0,0
1558,258.0,-3.0,22.0,0
1559,255.0,-1.0,24.0,0
1560,256.0,-2.0,26.0,0
1561,255.0,-2.0,26.0,0
1562,259.0,-3.0,25.0,0
1563,255.0,-1.0,21.0,0
1564,257.0,-1.0,25.0,0
1565,258.0,-4.0,24.0,0
1566,258.0,-3.0,26.0,0
1567,257.0,-1.0,24.0,0
1568,258.0,-2.0,20.0,0
1569,257.0,-2.0,26.0,0
1570,256.0,0.0,19.0,0
1571,257.0,0.0,25.0,0
1572,256.0,-2.0,25.0,0
1573,257.0,-1.0,25.0,0
1574,255.0,0.0,21.0,0
1575,258.0,0.0,25.0,0
1576,258.0,1.0,22.0,0
1577,255.0,-4.0,21.0,0
1578,254.0,0.0,26.0,0
1579,255.0,-4.0,23.0,0
1580,257.0,-2.0,27.0,0
1581,256.0,-4.0,23.0,0
1582,257.0,-2.0,25.0,0
1583,256.0,0.0,24.0,0
1584,259.0,0.0,21.0,0
1585,259.0,-3.0,25.0,0
1586,257.0,-2.0,23.0,0
1587,257.0,-4.0,23.0,0
1588,255.0,-2.0,22.0,0
1589,256.0,-1.0,23.0,0
1590,257.0,-2.0,22.0,0
1591,258.0,-1.0,19.0,0
1592,254.0,0.0,25.0,0
1593,255.0,-4.0,23.0,0
1594,255.0,-2.0,22.0,0
1595,255.0,-2.0,24.0,0
1596,255.0,-3.0,25.0,0
1597,256.0,0.0,22.0,0
1598,256.0,0.0,29.0,0
1599,252.0,-3.0,25.0,0
1600,256.0,-3.0,24.0,0
1601,257.0,-1.0,25.0,0
1602,257.0,-1.0,25.0,0
1603,254.0,-2.0,24.0,0
1604,258.0,-1.0,24.0,0
1605,256.0,-2.0,22.0,0
1606,257.0,-1.0,24.0,0
1607,258.0,-2.0,24.0,0
1608,258.0,-2.0,23.0,0
1609,258.0,-2.0,21.0,0
1610,257.0,-1.0,19.0,0
1611,257.0,0.0,23.0,0
1612,255.0,0.0,26.0,0
1613,255.0,0.0,23.0,0
1614,257.0,-1.0,20.0,0
1615,257.0,-3.0,21.0,0
1616,258.0,0.0,22.0,0
1617,258.0,-1.0,23.0,0
1618,255.0,-2.0,28.0,0
1619,257.0,-2.0,21.0,0
1620,256.0,-6.0,22.0,0
1621,257.0,0.0,22.0,0
1622,257.0,0.0,23.0,0
1623,257.0,0.0,20.0,0
1624,255.0,-2.0,21.0,0
1625,256.0,0.0,23.0,0
1626,258.0,-1.0,22.0,0
1627,257.0,-3.0,21.0,0
1628,257.0,0.0,22.0,0
1629,256.0,0.0,23.0,0
1630,257.0,0.0,24.0,0
1631,256.0,0.0,22.0,0
1632,256.0,-2.0,21.0,0
1633,253.0,1.0,22.0,0
1634,258.0,-5.0,24.0,0
1635,256.0,0.0,23.0,0
1636,256.0,-4.0,24.0,0
1637,256.0,-2.0,22.0,0
1638,259.0,-4.0,24.0,0
1639,256.0,0.0,27.0,0
1640,257.0,-2.0,24.0,0
1641,258.0,-4.0,21.0,0
1642,257.0,0.0,20.0,0
1643,255.0,-1.0,22.0,0
1644,256.0,-1.0,26.0,0
1645,259.0,-3.0,24.0,0
1646,256.0,-2.0,25.0,0
1647,257.0,-3.0,24.0,0
1648,253.0,0.0,24.0,0
1649,259.0,0.0,21.0,0
1650,256.0,0.0,24.0,0
1651,257.0,-2.0,22.0,0
1652,258.0,-1.0,27.0,0
1653,255.0,0.0,24.0,0
1654,257.0,0.0,26.0,0
1655,257.0,0.0,22.0,0
1656,255.0,0.0,17.0,0
1657,256.0,-3.0,24.0,0
1658,254.0,-5.0,24.0,0
1659,256.0,-6.0,24.0,0
1660,257.0,0.0,24.0,0
1661,257.0,0.0,24.0,0
1662,258.0,-1.0,22.0,0
1663,258.0,-3.0,29.0,0
1664,255.0,-4.0,25.0,0
1665,257.0,0.0,28.0,0
1666,258.0,0.0,26.0,0
1667,255.0,-4.0,20.0,0
1668,256.0,-1.0,25.0,0
1669,257.0,-2.0,24.0,0
1670,259.0,1.0,26.0,0
1671,255.0,-2.0,25.0,0
1672,259.0,0.0,25.0,0
1673,257.0,0.0,26.0,0
1674,254.0,-2.0,23.0,0
1675,255.0,-1.0,23.0,0
1676,255.0,-3.0,28.0,0
1677,260.0,0.0,25.0,0
1678,257.0,-3.0,25.0,0
1679,257.0,-3.0,22.0,0
1680,257.0,-4.0,23.0,0
1681,259.0,-6.0,25.0,0
1682,259.0,-1.0,27.0,0
1683,257.0,-3.0,23.0,0
1684,258.0,1.0,20.0,0
1685,258.0,0.0,26.0,0
1686,256.0,-2.0,25.0,0
1687,257.0,-4.0,25.0,0
1688,256.0,-2.0,23.0,0
1689,256.0,-1.0,22.0,0
1690,255.0,0.0,22.0,0
1691,256.0,-2.0,22.0,0
1692,256.0,-2.0,24.0,0
1693,257.0,-5.0,21.0,0
1694,257.0,-3.0,23.0,0
1695,256.0,-1.0,26.0,0
1696,258.0,-1.0,23.0,0
1697,255.0,-4.0,25.0,0
1698,254.0,-1.0,26.0,0
1699,257.0,-2.0,26.0,0
1700,256.0,-3.0,27.0,0
1701,254.0,-3.0,24.0,0
1702,255.0,0.0,25.0,0
1703,255.0,-2.0,26.0,0
1704,257.0,-1.0,25.0,0
1705,255.0,-1.0,24.0,0
1706,255.0,-2.0,24.0,0
1707,256.0,0.0,24.0,0
1708,254.0,-3.0,25.0,0
1709,255.0,0.0,25.0,0
1710,257.0,-2.0,23.0,0
1711,256.0,-3.0,22.0,0
1712,257.0,-3.0,22.0,0
1713,256.0,0.0,24.0,0
1714,256.0,1.0,25.0,0
1715,256.0,-3.0,23.0,0
1716,258.0,-2.0,28.0,0
1717,257.0,-3.0,24.0,0
1718,255.0,0.0,24.0,0
1719,257.0,0.0,21.0,0
1720,256.0,-1.0,26.0,0
1721,256.0,-2.0,27.0,0
1722,257.0,-1.0,23.0,0
1723,255.0,-2.0,24.0,0
1724,257.0,0.0,22.0,0
1725,259.0,-2.0,25.0,0
1726,257.0,-3.0,26.0,0
1727,257.0,-1.0,25.0,0
1728,252.0,0.0,23.0,0
1729,259.0,-4.0,21.0,0
1730,258.0,-3.0,22.0,0
1731,257.0,-3.0,22.0,0
1732,254.0,-5.0,23.0,0
1733,256.0,0.0,22.0,0
1734,255.0,0.0,27.0,0
1735,259.0,-3.0,22.0,0
1736,258.0,0.0,24.0,0
1737,257.0,-2.0,23.0,0
1738,256.0,0.0,25.0,0
1739,254.0,-1.0,25.0,0
1740,254.0,-3.0,25.0,0
1741,257.0,-1.0,24.0,0
1742,256.0,-1.0,24.0,0
1743,258.0,-4.0,27.0,0
1744,257.0,0.0,21.0,0
1745,256.0,-3.0,22.0,0
1746,256.0,-3.0,25.0,0
1747,258.0,-3.0,27.0,0
1748,257.0,-3.0,24.0,0
1749,257.0,-4.0,25.0,0
1750,254.0,0.0,26.0,0
1751,256.0,-2.0,26.0,0
1752,255.0,-1.0,24.0,0
1753,256.0,-5.0,26.0,0
1754,256.0,-3.0,23.0,0
1755,256.0,-2.0,24.0,0
1756,257.0,-2.0,25.0,0
1757,258.0,-4.0,28.0,0
1758,256.0,-4.0,23.0,0
1759,255.0,-3.0,21.0,0
1760,258.0,-5.0,23.0,0
1761,261.0,-4.0,19.0,0
1762,256.0,-2.0,26.0,0
1763,256.0,-5.0,24.0,0
1764,254.0,-3.0,24.0,0
1765,257.0,-2.0,25.0,0
1766,257.0,-3.0,27.0,0
1767,256.0,0.0,27.0,0
1768,257.0,-3.0,25.0,0
1769,256.0,-3.0,23.0,0
1770,258.0,-5.0,26.0,0
1771,257.0,-1.0,25.0,0
1772,257.0,0.0,26.0,0
1773,255.0,-2.0,21.0,0
1774,256.0,-2.0,24.0,0
1775,257.0,-2.0,26.0,0
1776,257.0,-2.0,26.0,0
1777,254.0,0.0,22.0,0
1778,257.0,0.0,22.0,0
1779,256.0,-3.0,27.0,0
1780,254.0,-1.0,24.0,0
1781,256.0,-2.0,21.0,0
1782,256.0,-1.0,28.0,0
1783,257.0,-2.0,22.0,0
1784,256.0,-4.0,23.0,0
1785,257.0,-3.0,26.0,0
1786,258.0,-5.0,23.0,0
1787,257.0,0.0,24.0,0
1788,256.0,-2.0,26.0,0
1789,256.0,0.0,24.0,0
1790,260.0,-6.0,25.0,0
1791,257.0,-3.0,26.0,0
1792,256.0,-2.0,24.0,0
1793,257.0,-3.0,23.0,0
1794,256.0,2.0,20.0,0
1795,258.0,-2.0,22.0,0
1796,256.0,-2.0,22.0,0
1797,256.0,-4.0,22.0,0
1798,256.0,-4.0,25.0,0
1799,257.0,0.0,26.0,0
1800,257.0,0.0,24.0,0
1801,255.0,0.0,23.0,0
1802,257.0,-4.0,23.0,0
1803,256.0,0.0,25.0,0
1804,255.0,0.0,25.0,0
1805,254.0,0.0,29.0,0
1806,257.0,-2.0,27.0,0
1807,257.0,-3.0,27.0,0
1808,257.0,-4.0,22.0,0
1809,257.0,-2.0,22.0,0
1810,256.0,-1.0,28.0,0
1811,256.0,0.0,26.0,0
1812,258.0,-5.0,23.0,0
1813,258.0,-5.0,24.0,0
1814,257.0,-3.0,23.0,0
1815,258.0,-4.0,28.0,0
1816,257.0,-5.0,24.0,0
1817,258.0,-1.0,31.0,0
1818,255.0,-2.0,21.0,0
1819,255.0,-1.0,24.0,0
1820,257.0,-1.0,24.0,0
1821,257.0,-1.0,25.0,0
1822,257.0,-3.0,28.0,0
1823,256.0,-4.0,24.0,0
1824,258.0,-4.0,25.0,0
1825,256.0,-3.0,24.0,0
1826,256.0,-3.0,24.0,0
1827,257.0,0.0,23.0,0
1828,257.0,-2.0,25.0,0
1829,256.0,-4.0,25.0,0
1830,257.0,-4.0,24.0,0
1831,258.0,-3.0,23.0,0
1832,259.0,-2.0,26.0,0
1833,256.0,-1.0,21.0,0
1834,259.0,-3.0,21.0,0
1835,255.0,-3.0,23.0,0
1836,256.0,-4.0,27.0,0
1837,257.0,-2.0,20.0,0
1838,258.0,-1.0,23.0,0
1839,257.0,0.0,23.0,0
1840,258.0,-1.0,24.0,0
1841,257.0,-4.0,23.0,0
1842,259.0,-3.0,18.0,0
1843,258.0,-1.0,23.0,0
1844,256.0,-6.0,26.0,0
1845,257.0,0.0,26.0,0
1846,260.0,-5.0,22.0,0
1847,258.0,-3.0,24.0,0
1848,260.0,-4.0,21.0,0
1849,258.0,-2.0,24.0,0
1850,260.0,-2.0,20.0,0
1851,258.0,-4.0,26.0,0
1852,260.0,-4.0,19.0,0
1853,259.0,-6.0,26.0,0
1854,259.0,-6.0,27.0,0
1855,259.0,-5.0,24.0,0
1856,261.0,-8.0,22.0,0
1857,258.0,-8.0,22.0,0
1858,259.0,-5.0,25.0,0
1859,262.0,-7.0,25.0,0
1860,258.0,-1.0,23.0,0
1861,258.0,-1.0,23.0,0
1862,260.0,-3.0,25.0,0
1863,260.0,-1.0,22.0,0
1864,257.0,-1.0,19.0,0
1865,257.0,0.0,18.0,0
1866,255.0,-1.0,23.0,0
1867,256.0,-4.0,21.0,0
1868,254.0,0.0,19.0,0
1869,256.0,-2.0,20.0,0
1870,255.0,0.0,22.0,0
1871,257.0,2.0,22.0,0
1872,253.0,1.0,17.0,0
1873,255.0,3.0,17.0,0
1874,258.0,0.0,20.0,0
1875,259.0,5.0,18.0,0
1876,260.0,1.0,16.0,0
1877,259.0,2.0,16.0,0
1878,262.0,2.0,12.0,0
1879,259.0,2.0,13.0,0
1880,260.0,0.0,14.0,0
1881,260.0,2.0,13.0,0
1882,259.0,2.0,17.0,0
1883,258.0,2.0,19.0,0
1884,260.0,1.0,32.0,0
1885,259.0,0.0,32.0,0
1886,260.0,0.0,40.0,0
1887,261.0,1.0,47.0,0
1888,258.0,-1.0,52.0,0
1889,258.0,0.0,58.0,0
1890,257.0,0.0,57.0,0
1891,254.0,3.0,60.0,0
1892,251.0,8.0,57.0,0
1893,253.0,5.0,57.0,0
1894,247.0,12.0,57.0,0
1895,242.0,19.0,57.0,0
1896,243.0,18.0,53.0,0
1897,247.0,20.0,50.0,0
1898,245.0,20.0,46.0,0
1899,252.0,16.0,46.0,0
1900,252.0,12.0,44.0,0
1901,259.0,8.0,44.0,0
1902,260.0,2.0,37.0,0
1903,265.0,0.0,33.0,0
1904,265.0,-1.0,25.0,0
1905,267.0,-5.0,16.0,0
1906,271.0,-8.0,13.0,0
1907,275.0,-11.0,5.0,0
1908,270.0,-11.0,1.0,0
1909,267.0,-13.0,2.0,0
1910,267.0,-8.0,0.0,0
1911,261.0,-6.0,2.0,0
1912,265.0,-8.0,6.0,0
1913,266.0,-3.0,8.0,0
1914,267.0,0.0,11.0,0
1915,264.0,4.0,11.0,0
1916,265.0,7.0,15.0,0
1917,263.0,8.0,14.0,0
1918,265.0,7.0,20.0,0
1919,262.0,5.0,17.0,0
1920,259.0,2.0,17.0,0
1921,259.0,2.0,19.0,0
1922,259.0,0.0,15.0,0
1923,261.0,0.0,11.0,0
1924,260.0,0.0,12.0,0
1925,258.0,1.0,11.0,0
1926,258.0,4.0,7.0,0
1927,259.0,5.0,6.0,0
1928,260.0,10.0,2.0,0
1929,265.0,9.0,1.0,0
1930,269.0,9.0,2.0,0
1931,273.0,12.0,9.0,0
1932,279.0,18.0,10.0,0
1933,284.0,20.0,14.0,0
1934,285.0,22.0,21.0,0
1935,289.0,23.0,19.0,0
1936,287.0,25.0,20.0,0
1937,285.0,24.0,23.0,0
1938,285.0,21.0,27.0,0
1939,283.0,16.0,26.0,0
1940,281.0,18.0,29.0,0
1941,274.0,8.0,31.0,0
1942,269.0,7.0,31.0,0
1943,264.0,4.0,36.0,0
1944,263.0,1.0,42.0,0
1945,259.0,1.0,43.0,0
1946,254.0,-4.0,40.0,0
1947,255.0,-4.0,39.0,0
1948,248.0,-5.0,41.0,0
1949,246.0,-14.0,47.0,0
1950,241.0,-12.0,46.0,0
1951,235.0,-18.0,50.0,0
1952,232.0,-24.0,50.0,0
1953,228.0,-29.0,53.0,0
1954,228.0,-33.0,52.0,0
1955,222.0,-39.0,57.0,0
1956,220.0,-38.0,57.0,0
1957,220.0,-39.0,58.0,0
1958,229.0,-47.0,64.0,0
1959,220.0,-48.0,60.0,0
1960,224.0,-52.0,59.0,0
1961,228.0,-46.0,63.0,0
1962,234.0,-42.0,56.0,0
1963,235.0,-41.0,55.0,0
1964,240.0,-40.0,44.0,0
1965,243.0,-39.0,44.0,0
1966,250.0,-35.0,34.0,0
1967,256.0,-33.0,26.0,0
1968,264.0,-29.0,18.0,0
1969,269.0,-27.0,12.0,0
1970,283.0,-33.0,11.0,0
1971,286.0,-24.0,5.0,0
1972,298.0,-30.0,0.0,0
1973,299.0,-30.0,-1.0,0
1974,302.0,-29.0,-10.0,0
1975,305.0,-33.0,-17.0,0
1976,301.0,-33.0,-19.0,0
1977,294.0,-41.0,-14.0,0
1978,283.0,-41.0,-12.0,0
1979,274.0,-41.0,-8.0,0
1980,268.0,-43.0,-7.0,0
1981,262.0,-46.0,-2.0,0
1982,257.0,-50.0,2.0,0
1983,251.0,-49.0,6.0,0
1984,243.0,-57.0,12.0,0
1985,245.0,-57.0,11.0,0
1986,246.0,-61.0,12.0,0
1987,244.0,-63.0,18.0,0
1988,242.0,-63.0,21.0,0
1989,241.0,-64.0,27.0,0
1990,245.0,-67.0,24.0,0
1991,252.0,-65.0,32.0,0
1992,251.0,-66.0,37.0,0
1993,253.0,-64.0,35.0,0
1994,253.0,-63.0,36.0,0
1995,255.0,-60.0,38.0,0
1996,256.0,-58.0,40.0,0
1997,259.0,-54.0,42.0,0
1998,259.0,-50.0,39.0,0
1999,258.0,-44.0,47.0,0
2000,260.0,-41.0,41.0,0
2001,258.0,-41.0,44.0,0
2002,255.0,-42.0,44.0,0
2003,254.0,-42.0,45.0,0
2004,249.0,-42.0,44.0,0
2005,251.0,-50.0,49.0,0
2006,249.0,-49.0,49.0,0
2007,244.0,-53.0,51.0,0
2008,242.0,-58.0,51.0,0
2009,240.0,-60.0,60.0,0
2010,241.0,-63.0,64.0,0
2011,242.0,-64.0,66.0,0
2012,239.0,-65.0,75.0,0
2013,238.0,-67.0,79.0,0
2014,236.0,-64.0,85.0,0
2015,239.0,-63.0,95.0,0
2016,238.0,-61.0,91.0,0
2017,243.0,-59.0,99.0,0
2018,244.0,-59.0,104.0,0
2019,250.0,-57.0,102.0,0
2020,251.0,-53.0,97.0,0
2021,250.0,-55.0,98.0,0
2022,249.0,-55.0,93.0,0
2023,255.0,-55.0,91.0,0
2024,257.0,-65.0,82.0,0
2025,255.0,-65.0,82.0,0
2026,253.0,-72.0,79.0,0
2027,255.0,-75.0,85.0,0
2028,255.0,-75.0,94.0,0
2029,257.0,-78.0,99.0,0
2030,259.0,-75.0,101.0,0
2031,256.0,-72.0,103.0,0
2032,254.0,-73.0,107.0,0
2033,256.0,-73.0,114.0,0
2034,257.0,-72.0,116.0,0
2035,264.0,-66.0,112.0,0
2036,283.0,-69.0,107.0,0
2037,274.0,-63.0,111.0,0
2038,277.0,-63.0,112.0,0
2039,278.0,-64.0,118.0,0
2040,285.0,-68.0,119.0,0
2041,283.0,-69.0,124.0,0
2042,284.0,-74.0,130.0,0
2043,291.0,-79.0,130.0,0
2044,299.0,-82.0,136.0,0
2045,306.0,-91.0,139.0,0
2046,308.0,-95.0,145.0,0
2047,315.0,-103.0,138.0,0
2048,321.0,-107.0,128.0,0
2049,331.0,-109.0,108.0,0
2050,324.0,-118.0,96.0,0
2051,315.0,-124.0,87.0,0
2052,295.0,-125.0,75.0,0
2053,279.0,-124.0,64.0,0
2054,272.0,-110.0,57.0,0
2055,265.0,-104.0,56.0,0
2056,257.0,-105.0,72.0,0
2057,251.0,-108.0,87.0,0
2058,247.0,-108.0,107.0,0
2059,245.0,-121.0,122.0,0
2060,239.0,-127.0,131.0,0
2061,244.0,-132.0,143.0,0
2062,246.0,-137.0,142.0,0
2063,244.0,-141.0,143.0,0
2064,245.0,-143.0,143.0,0
2065,243.0,-144.0,131.0,0
2066,241.0,-139.0,128.0,0
2067,239.0,-140.0,129.0,0
2068,229.0,-138.0,118.0,0
2069,223.0,-134.0,124.0,0
2070,209.0,-129.0,121.0,0
2071,207.0,-123.0,121.0,0
2072,201.0,-113.0,117.0,0
2073,197.0,-101.0,114.0,0
2074,194.0,-91.0,107.0,0
2075,190.0,-79.0,105.0,0
2076,185.0,-66.0,99.0,0
2077,177.0,-56.0,108.0,0
2078,167.0,-44.0,101.0,0
2079,159.0,-36.0,113.0,0
2080,152.0,-29.0,112.0,0
2081,141.0,-23.0,120.0,0
2082,138.0,-23.0,117.0,0
2083,130.0,-23.0,122.0,0
2084,126.0,-28.0,122.0,0
2085,120.0,-30.0,119.0,0
2086,113.0,-26.0,116.0,0
2087,102.0,-21.0,107.0,0
2088,98.0,-18.0,107.0,0
2089,95.0,-16.0,102.0,0
2090,93.0,-18.0,102.0,0
2091,91.0,-15.0,104.0,0
2092,91.0,-13.0,108.0,0
2093,91.0,-11.0,114.0,0
2094,94.0,-11.0,119.0,0
2095,96.0,-9.0,119.0,0
2096,101.0,-9.0,123.0,0
2097,104.0,-11.0,115.0,0
2098,103.0,-11.0,119.0,0
2099,102.0,-11.0,112.0,0
2100,102.0,-10.0,111.0,0
2101,96.0,-7.0,109.0,0
2102,92.0,-10.0,112.0,0
2103,86.0,-8.0,115.0,0
2104,82.0,-5.0,112.0,0
2105,81.0,-7.0,118.0,0
2106,76.0,-9.0,123.0,0
2107,78.0,-14.0,127.0,0
2108,79.0,-21.0,136.0,0
2109,81.0,-26.0,140.0,0
2110,85.0,-28.0,139.0,0
2111,92.0,-37.0,143.0,0
2112,93.0,-38.0,140.0,0
2113,99.0,-40.0,135.0,0
2114,102.0,-40.0,129.0,0
2115,102.0,-41.0,122.0,0
2116,111.0,-43.0,121.0,0
2117,109.0,-41.0,113.0,0
2118,107.0,-46.0,109.0,0
2119,103.0,-53.0,109.0,0
2120,105.0,-60.0,112.0,0
2121,118.0,-64.0,115.0,0
2122,138.0,-68.0,120.0,0
2123,151.0,-79.0,130.0,0
2124,174.0,-93.0,148.0,0
2125,193.0,-106.0,165.0,0
2126,200.0,-126.0,187.0,0
2127,212.0,-144.0,217.0,0
2128,234.0,-169.0,248.0,0
2129,247.0,-199.0,286.0,0
2130,279.0,-228.0,324.0,0
2131,328.0,-258.0,342.0,0
2132,378.0,-292.0,354.0,0
2133,410.0,-320.0,337.0,0
2134,436.0,-336.0,305.0,0
2135,445.0,-351.0,273.0,0
2136,426.0,-362.0,260.0,0
2137,373.0,-363.0,255.0,0
2138,325.0,-356.0,251.0,0
2139,285.0,-339.0,232.0,0
2140,221.0,-310.0,210.0,0
2141,164.0,-282.0,187.0,0
2142,118.0,-253.0,169.0,0
2143,76.0,-223.0,148.0,0
2144,40.0,-194.0,134.0,0
2145,13.0,-175.0,131.0,0
2146,-2.0,-164.0,133.0,0
2147,-16.0,-160.0,141.0,0
2148,-10.0,-158.0,151.0,0
2149,-13.0,-157.0,153.0,0
2150,-3.0,-158.0,149.0,0
2151,12.0,-159.0,148.0,0
2152,22.0,-160.0,146.0,0
2153,36.0,-151.0,147.0,0
2154,46.0,-139.0,154.0,0
2155,59.0,-124.0,158.0,0
2156,73.0,-105.0,164.0,0
2157,80.0,-86.0,169.0,0
2158,90.0,-76.0,177.0,0
2159,99.0,-71.0,184.0,0
2160,103.0,-73.0,194.0,0
2161,111.0,-77.0,199.0,0
2162,120.0,-81.0,206.0,0
2163,135.0,-90.0,209.0,0
2164,145.0,-97.0,213.0,0
2165,159.0,-103.0,210.0,0
2166,166.0,-105.0,204.0,0
2167,175.0,-111.0,206.0,0
2168,180.0,-115.0,200.0,0
2169,183.0,-122.0,193.0,0
2170,185.0,-132.0,193.0,0
2171,185.0,-146.0,191.0,0
2172,182.0,-158.0,191.0,0
2173,182.0,-171.0,181.0,0
2174,172.0,-180.0,179.0,0
2175,165.0,-186.0,175.0,0
2176,155.0,-192.0,180.0,0
2177,150.0,-192.0,173.0,0
2178,136.0,-193.0,168.0,0
2179,131.0,-194.0,171.0,0
2180,128.0,-195.0,170.0,0
2181,120.0,-194.0,174.0,0
2182,111.0,-193.0,175.0,0
2183,106.0,-193.0,181.0,0
2184,103.0,-193.0,181.0,0
2185,98.0,-189.0,182.0,0
2186,97.0,-189.0,180.0,0
2187,95.0,-185.0,184.0,0
2188,95.0,-182.0,187.0,0
2189,91.0,-176.0,186.0,0
2190,91.0,-171.0,185.0,0
2191,84.0,-165.0,189.0,0
2192,82.0,-159.0,188.0,0
2193,80.0,-154.0,189.0,0
2194,75.0,-149.0,184.0,0
2195,77.0,-153.0,191.0,0
2196,75.0,-157.0,193.0,0
2197,70.0,-160.0,191.0,0
2198,73.0,-167.0,189.0,0
2199,66.0,-171.0,196.0,0
2200,61.0,-178.0,196.0,0
2201,59.0,-185.0,203.0,0
2202,56.0,-183.0,198.0,0
2203,60.0,-189.0,204.0,0
2204,58.0,-191.0,197.0,0
2205,52.0,-198.0,194.0,0
2206,50.0,-205.0,196.0,0
2207,48.0,-208.0,195.0,0
2208,41.0,-210.0,187.0,0
2209,42.0,-209.0,188.0,0
2210,34.0,-203.0,181.0,0
2211,30.0,-201.0,182.0,0
2212,27.0,-202.0,179.0,0
2213,23.0,-200.0,180.0,0
2214,23.0,-202.0,180.0,0
2215,23.0,-203.0,181.0,0
2216,25.0,-200.0,186.0,0
2217,29.0,-197.0,191.0,0
2218,31.0,-192.0,185.0,0
2219,31.0,-186.0,186.0,0
2220,36.0,-181.0,186.0,0
2221,40.0,-177.0,184.0,0
2222,45.0,-175.0,189.0,0
2223,46.0,-172.0,190.0,0
2224,54.0,-170.0,191.0,0
2225,57.0,-168.0,192.0,0
2226,59.0,-166.0,189.0,0
2227,60.0,-163.0,186.0,0
2228,63.0,-161.0,193.0,0
2229,63.0,-157.0,190.0,0
2230,63.0,-162.0,191.0,0
2231,63.0,-159.0,188.0,0
2232,61.0,-162.0,187.0,0
2233,63.0,-160.0,190.0,0
2234,59.0,-162.0,188.0,0
2235,61.0,-162.0,183.0,0
2236,57.0,-164.0,180.0,0
2237,59.0,-164.0,181.0,0
2238,56.0,-163.0,181.0,0
2239,58.0,-163.0,179.0,0
2240,55.0,-165.0,182.0,0
2241,55.0,-169.0,183.0,0
2242,48.0,-170.0,184.0,0
2243,48.0,-169.0,189.0,0
2244,44.0,-175.0,189.0,0
2245,42.0,-173.0,193.0,0
2246,38.0,-173.0,192.0,0
2247,34.0,-174.0,192.0,0
2248,28.0,-173.0,191.0,0
2249,24.0,-172.0,194.0,0
2250,23.0,-176.0,192.0,0
2251,19.0,-176.0,190.0,0
2252,16.0,-177.0,190.0,0
2253,16.0,-178.0,188.0,0
2254,10.0,-181.0,194.0,0
2255,12.0,-184.0,195.0,0
2256,8.0,-186.0,196.0,0
2257,7.0,-188.0,195.0,0
2258,5.0,-191.0,199.0,0
2259,6.0,-191.0,200.0,0
2260,5.0,-194.0,202.0,0
2261,2.0,-192.0,198.0,0
2262,2.0,-193.0,199.0,0
2263,-2.0,-190.0,197.0,0
2264,-6.0,-185.0,194.0,0
2265,-10.0,-181.0,194.0,0
2266,-14.0,-177.0,199.0,0
2267,-17.0,-172.0,202.0,0
2268,-20.0,-167.0,193.0,0
2269,-23.0,-163.0,192.0,0
2270,-27.0,-160.0,193.0,0
2271,-31.0,-158.0,192.0,0
2272,-36.0,-157.0,195.0,0
2273,-35.0,-158.0,194.0,0
2274,-33.0,-159.0,202.0,0
2275,-34.0,-162.0,201.0,0
2276,-28.0,-167.0,207.0,0
2277,-27.0,-174.0,210.0,0
2278,-28.0,-176.0,214.0,0
2279,-26.0,-178.0,217.0,0
2280,-27.0,-182.0,225.0,0
2281,-30.0,-187.0,228.0,0
2282,-34.0,-185.0,228.0,0
2283,-38.0,-182.0,226.0,0
2284,-42.0,-177.0,225.0,0
2285,-51.0,-174.0,220.0,0
2286,-52.0,-167.0,221.0,0
2287,-56.0,-163.0,219.0,0
2288,-59.0,-159.0,219.0,0
2289,-59.0,-160.0,214.0,0
2290,-64.0,-159.0,218.0,0
2291,-67.0,-156.0,219.0,0
2292,-73.0,-154.0,214.0,0
2293,-79.0,-155.0,219.0,0
2294,-84.0,-158.0,212.0,0
2295,-85.0,-159.0,209.0,0
2296,-84.0,-165.0,202.0,0
2297,-93.0,-161.0,203.0,0
2298,-94.0,-160.0,199.0,0
2299,-95.0,-159.0,197.0,0
2300,-93.0,-160.0,191.0,0
2301,-97.0,-158.0,196.0,0
2302,-96.0,-156.0,194.0,0
2303,-96.0,-155.0,194.0,0
2304,-95.0,-157.0,194.0,0
2305,-100.0,-155.0,195.0,0
2306,-105.0,-156.0,199.0,0
2307,-107.0,-152.0,200.0,0
2308,-105.0,-154.0,199.0,0
2309,-101.0,-154.0,199.0,0
2310,-91.0,-153.0,201.0,0
2311,-86.0,-155.0,203.0,0
2312,-82.0,-160.0,211.0,0
2313,-75.0,-160.0,208.0,0
2314,-69.0,-164.0,214.0,0
2315,-64.0,-161.0,212.0,0
2316,-58.0,-164.0,215.0,0
2317,-54.0,-162.0,217.0,0
2318,-49.0,-157.0,217.0,0
2319,-48.0,-154.0,226.0,0
2320,-41.0,-152.0,224.0,0
2321,-35.0,-147.0,228.0,0
2322,-29.0,-147.0,231.0,0
2323,-26.0,-149.0,236.0,0
2324,-21.0,-152.0,235.0,0
2325,-18.0,-156.0,233.0,0
2326,-11.0,-159.0,233.0,0
2327,-7.0,-165.0,233.0,0
2328,-8.0,-166.0,230.0,0
2329,-3.0,-164.0,220.0,0
2330,-2.0,-167.0,213.0,0
2331,2.0,-163.0,213.0,0
2332,0.0,-160.0,205.0,0
2333,4.0,-164.0,205.0,0
2334,4.0,-167.0,210.0,0
2335,-1.0,-163.0,205.0,0
2336,-4.0,-166.0,207.0,0
2337,-7.0,-173.0,206.0,0
2338,0.0,-175.0,192.0,0
2339,2.0,-174.0,191.0,0
2340,3.0,-177.0,194.0,0
2341,4.0,-174.0,192.0,0
2342,4.0,-176.0,199.0,0
2343,8.0,-178.0,201.0,0
2344,10.0,-180.0,204.0,0
2345,5.0,-180.0,204.0,0
2346,7.0,-183.0,200.0,0
2347,6.0,-182.0,196.0,0
2348,0.0,-184.0,196.0,0
2349,-5.0,-181.0,199.0,0
2350,-5.0,-179.0,201.0,0
2351,-6.0,-181.0,207.0,0
2352,-1.0,-179.0,208.0,0
2353,-2.0,-174.0,220.0,0
2354,0.0,-175.0,218.0,0
2355,-1.0,-171.0,224.0,0
2356,-1.0,-165.0,226.0,0
2357,-3.0,-158.0,228.0,0
2358,1.0,-155.0,229.0,0
2359,7.0,-152.0,228.0,0
2360,10.0,-155.0,227.0,0
2361,16.0,-154.0,224.0,0
2362,22.0,-149.0,223.0,0
2363,24.0,-150.0,226.0,0
2364,28.0,-153.0,219.0,0
2365,29.0,-148.0,217.0,0
2366,32.0,-145.0,217.0,0
2367,33.0,-148.0,216.0,0
2368,32.0,-147.0,212.0,0
2369,34.0,-144.0,211.0,0
2370,34.0,-144.0,214.0,0
2371,35.0,-144.0,211.0,0
2372,32.0,-147.0,215.0,0
2373,32.0,-144.0,214.0,0
2374,35.0,-147.0,220.0,0
2375,32.0,-143.0,218.0,0
2376,31.0,-145.0,218.0,0
2377,34.0,-147.0,222.0,0
2378,35.0,-145.0,221.0,0
2379,39.0,-144.0,224.0,0
2380,41.0,-146.0,224.0,0
2381,39.0,-147.0,228.0,0
2382,41.0,-143.0,233.0,0
2383,40.0,-140.0,229.0,0
2384,40.0,-140.0,228.0,0
2385,43.0,-136.0,229.0,0
2386,39.0,-132.0,228.0,0
2387,37.0,-130.0,228.0,0
2388,35.0,-133.0,229.0,0
2389,28.0,-133.0,229.0,0
2390,22.0,-135.0,231.0,0
2391,15.0,-137.0,238.0,0
2392,7.0,-136.0,234.0,0
2393,5.0,-137.0,228.0,0
2394,0.0,-131.0,220.0,0
2395,6.0,-129.0,208.0,0
2396,11.0,-127.0,205.0,0
2397,22.0,-121.0,211.0,0
2398,38.0,-124.0,211.0,0
2399,56.0,-128.0,215.0,0
