,accelerometer_x,accelerometer_y,accelerometer_z,fall
0,8.0,-254.0,-43.0,0
1,6.0,-248.0,-42.0,0
2,3.0,-249.0,-44.0,0
3,8.0,-251.0,-43.0,0
4,1.0,-247.0,-47.0,0
5,18.0,-242.0,-43.0,0
6,12.0,-250.0,-43.0,0
7,8.0,-253.0,-39.0,0
8,8.0,-253.0,-40.0,0
9,5.0,-254.0,-43.0,0
10,6.0,-252.0,-41.0,0
11,6.0,-255.0,-41.0,0
12,6.0,-255.0,-38.0,0
13,5.0,-253.0,-44.0,0
14,7.0,-252.0,-45.0,0
15,-5.0,-246.0,-49.0,0
16,5.0,-250.0,-38.0,0
17,6.0,-252.0,-44.0,0
18,5.0,-251.0,-45.0,0
19,6.0,-253.0,-42.0,0
20,5.0,-249.0,-43.0,0
21,6.0,-248.0,-44.0,0
22,4.0,-253.0,-42.0,0
23,2.0,-251.0,-45.0,0
24,6.0,-250.0,-44.0,0
25,9.0,-250.0,-43.0,0
26,12.0,-248.0,-50.0,0
27,5.0,-252.0,-41.0,0
28,7.0,-250.0,-45.0,0
29,6.0,-253.0,-47.0,0
30,7.0,-250.0,-44.0,0
31,11.0,-250.0,-44.0,0
32,5.0,-249.0,-43.0,0
33,7.0,-248.0,-41.0,0
34,6.0,-251.0,-47.0,0
35,5.0,-250.0,-46.0,0
36,10.0,-249.0,-45.0,0
37,0.0,-253.0,-44.0,0
38,7.0,-251.0,-44.0,0
39,6.0,-251.0,-46.0,0
40,8.0,-251.0,-40.0,0
41,5.0,-250.0,-43.0,0
42,5.0,-251.0,-42.0,0
43,6.0,-252.0,-46.0,0
44,7.0,-252.0,-44.0,0
45,5.0,-252.0,-48.0,0
46,5.0,-248.0,-46.0,0
47,7.0,-250.0,-38.0,0
48,4.0,-249.0,-43.0,0
49,7.0,-251.0,-42.0,0
50,8.0,-251.0,-47.0,0
51,7.0,-249.0,-44.0,0
52,7.0,-252.0,-44.0,0
53,8.0,-251.0,-45.0,0
54,8.0,-253.0,-42.0,0
55,8.0,-255.0,-42.0,0
56,7.0,-251.0,-46.0,0
57,7.0,-251.0,-42.0,0
58,4.0,-253.0,-52.0,0
59,14.0,-265.0,-22.0,0
60,8.0,-250.0,-43.0,0
61,7.0,-249.0,-40.0,0
62,6.0,-250.0,-45.0,0
63,6.0,-247.0,-44.0,0
64,7.0,-248.0,-44.0,0
65,6.0,-251.0,-48.0,0
66,8.0,-254.0,-40.0,0
67,6.0,-251.0,-50.0,0
68,10.0,-252.0,-45.0,0
69,9.0,-250.0,-45.0,0
70,26.0,-251.0,-46.0,0
71,8.0,-251.0,-49.0,0
72,8.0,-251.0,-48.0,0
73,5.0,-251.0,-43.0,0
74,7.0,-248.0,-44.0,0
75,8.0,-251.0,-46.0,0
76,8.0,-248.0,-45.0,0
77,8.0,-253.0,-42.0,0
78,10.0,-249.0,-41.0,0
79,4.0,-254.0,-48.0,0
80,7.0,-254.0,-45.0,0
81,-4.0,-264.0,-30.0,0
82,6.0,-250.0,-46.0,0
83,7.0,-251.0,-46.0,0
84,6.0,-249.0,-47.0,0
85,9.0,-251.0,-48.0,0
86,10.0,-251.0,-42.0,0
87,5.0,-250.0,-43.0,0
88,12.0,-251.0,-46.0,0
89,10.0,-248.0,-41.0,0
90,5.0,-252.0,-47.0,0
91,8.0,-254.0,-41.0,0
92,-2.0,-244.0,-47.0,0
93,9.0,-250.0,-42.0,0
94,9.0,-250.0,-44.0,0
95,8.0,-247.0,-43.0,0
96,6.0,-247.0,-44.0,0
97,10.0,-249.0,-41.0,0
98,8.0,-250.0,-45.0,0
99,9.0,-252.0,-44.0,0
100,6.0,-253.0,-42.0,0
101,4.0,-248.0,-48.0,0
102,11.0,-252.0,-47.0,0
103,9.0,-262.0,-22.0,0
104,5.0,-251.0,-44.0,0
105,7.0,-251.0,-46.0,0
106,6.0,-249.0,-47.0,0
107,7.0,-250.0,-46.0,0
108,6.0,-250.0,-45.0,0
109,4.0,-253.0,-40.0,0
110,6.0,-255.0,-46.0,0
111,1.0,-250.0,-45.0,0
112,5.0,-254.0,-45.0,0
113,7.0,-241.0,-53.0,0
114,6.0,-252.0,-44.0,0
115,8.0,-252.0,-47.0,0
116,9.0,-252.0,-48.0,0
117,8.0,-250.0,-47.0,0
118,10.0,-253.0,-49.0,0
119,6.0,-250.0,-44.0,0
120,6.0,-249.0,-47.0,0
121,8.0,-253.0,-45.0,0
122,10.0,-250.0,-49.0,0
123,9.0,-249.0,-42.0,0
124,24.0,-247.0,-43.0,0
125,9.0,-253.0,-45.0,0
126,6.0,-250.0,-48.0,0
127,9.0,-248.0,-46.0,0
128,7.0,-252.0,-44.0,0
129,7.0,-249.0,-45.0,0
130,5.0,-250.0,-42.0,0
131,7.0,-248.0,-42.0,0
132,8.0,-249.0,-50.0,0
133,10.0,-252.0,-49.0,0
134,13.0,-248.0,-42.0,0
135,17.0,-242.0,-78.0,0
136,9.0,-251.0,-41.0,0
137,5.0,-249.0,-46.0,0
138,8.0,-255.0,-45.0,0
139,9.0,-250.0,-47.0,0
140,7.0,-247.0,-44.0,0
141,7.0,-250.0,-43.0,0
142,6.0,-252.0,-41.0,0
143,14.0,-251.0,-42.0,0
144,8.0,-249.0,-46.0,0
145,8.0,-249.0,-44.0,0
146,1.0,-242.0,-47.0,0
147,8.0,-250.0,-46.0,0
148,9.0,-252.0,-47.0,0
149,6.0,-249.0,-48.0,0
150,6.0,-248.0,-49.0,0
151,6.0,-251.0,-50.0,0
152,5.0,-253.0,-49.0,0
153,3.0,-251.0,-47.0,0
154,7.0,-252.0,-45.0,0
155,8.0,-251.0,-49.0,0
156,6.0,-252.0,-51.0,0
157,3.0,-236.0,-56.0,0
158,6.0,-252.0,-49.0,0
159,9.0,-250.0,-47.0,0
160,7.0,-249.0,-48.0,0
161,6.0,-251.0,-47.0,0
162,6.0,-247.0,-44.0,0
163,6.0,-249.0,-42.0,0
164,9.0,-251.0,-43.0,0
165,5.0,-248.0,-51.0,0
166,6.0,-246.0,-45.0,0
167,10.0,-249.0,-46.0,0
168,-1.0,-254.0,-44.0,0
169,5.0,-250.0,-50.0,0
170,7.0,-250.0,-45.0,0
171,7.0,-250.0,-47.0,0
172,7.0,-251.0,-48.0,0
173,7.0,-249.0,-47.0,0
174,6.0,-252.0,-48.0,0
175,8.0,-245.0,-51.0,0
176,5.0,-249.0,-43.0,0
177,4.0,-250.0,-45.0,0
178,6.0,-251.0,-43.0,0
179,13.0,-240.0,-59.0,0
180,6.0,-252.0,-47.0,0
181,6.0,-253.0,-48.0,0
182,5.0,-252.0,-45.0,0
183,4.0,-249.0,-46.0,0
184,7.0,-250.0,-45.0,0
185,7.0,-252.0,-46.0,0
186,4.0,-251.0,-49.0,0
187,7.0,-252.0,-44.0,0
188,9.0,-251.0,-41.0,0
189,8.0,-253.0,-40.0,0
190,-3.0,-257.0,-37.0,0
191,8.0,-251.0,-45.0,0
192,8.0,-252.0,-40.0,0
193,7.0,-252.0,-47.0,0
194,7.0,-251.0,-44.0,0
195,6.0,-253.0,-48.0,0
196,6.0,-254.0,-46.0,0
197,1.0,-252.0,-42.0,0
198,5.0,-250.0,-48.0,0
199,2.0,-250.0,-48.0,0
200,6.0,-248.0,-49.0,0
201,1.0,-250.0,-50.0,0
202,8.0,-252.0,-44.0,0
203,6.0,-252.0,-47.0,0
204,7.0,-249.0,-49.0,0
205,6.0,-250.0,-48.0,0
206,4.0,-250.0,-46.0,0
207,8.0,-250.0,-52.0,0
208,6.0,-250.0,-45.0,0
209,9.0,-250.0,-47.0,0
210,4.0,-250.0,-39.0,0
211,1.0,-242.0,-75.0,0
212,8.0,-252.0,-45.0,0
213,5.0,-251.0,-43.0,0
214,8.0,-253.0,-44.0,0
215,7.0,-253.0,-43.0,0
216,7.0,-253.0,-46.0,0
217,7.0,-249.0,-48.0,0
218,11.0,-247.0,-43.0,0
219,3.0,-248.0,-47.0,0
220,5.0,-249.0,-47.0,0
221,8.0,-251.0,-46.0,0
222,4.0,-249.0,-56.0,0
223,6.0,-251.0,-45.0,0
224,9.0,-251.0,-49.0,0
225,5.0,-252.0,-44.0,0
226,6.0,-252.0,-48.0,0
227,7.0,-252.0,-48.0,0
228,8.0,-252.0,-45.0,0
229,4.0,-253.0,-46.0,0
230,7.0,-251.0,-46.0,0
231,4.0,-250.0,-45.0,0
232,4.0,-252.0,-47.0,0
233,9.0,-244.0,-62.0,0
234,7.0,-253.0,-47.0,0
235,7.0,-249.0,-48.0,0
236,7.0,-252.0,-48.0,0
237,7.0,-249.0,-46.0,0
238,6.0,-252.0,-51.0,0
239,7.0,-251.0,-44.0,0
240,8.0,-250.0,-47.0,0
241,9.0,-253.0,-48.0,0
242,5.0,-250.0,-53.0,0
243,7.0,-250.0,-48.0,0
244,7.0,-252.0,-47.0,0
245,-9.0,-277.0,-30.0,0
246,13.0,-255.0,-36.0,0
247,6.0,-251.0,-48.0,0
248,9.0,-252.0,-46.0,0
249,6.0,-248.0,-49.0,0
250,6.0,-248.0,-50.0,0
251,8.0,-250.0,-41.0,0
252,3.0,-250.0,-46.0,0
253,6.0,-251.0,-44.0,0
254,7.0,-252.0,-48.0,0
255,11.0,-259.0,-45.0,0
256,8.0,-250.0,-49.0,0
257,5.0,-246.0,-46.0,0
258,9.0,-252.0,-46.0,0
259,10.0,-252.0,-47.0,0
260,9.0,-251.0,-46.0,0
261,8.0,-253.0,-48.0,0
262,8.0,-253.0,-47.0,0
263,6.0,-252.0,-49.0,0
264,6.0,-252.0,-50.0,0
265,8.0,-253.0,-49.0,0
266,3.0,-252.0,-34.0,0
267,10.0,-251.0,-46.0,0
268,8.0,-249.0,-45.0,0
269,5.0,-254.0,-43.0,0
270,10.0,-253.0,-46.0,0
271,7.0,-248.0,-47.0,0
272,5.0,-248.0,-44.0,0
273,9.0,-251.0,-48.0,0
274,8.0,-252.0,-46.0,0
275,7.0,-254.0,-47.0,0
276,9.0,-250.0,-44.0,0
277,5.0,-258.0,-61.0,0
278,9.0,-252.0,-46.0,0
279,8.0,-251.0,-43.0,0
280,9.0,-251.0,-47.0,0
281,7.0,-249.0,-44.0,0
282,8.0,-250.0,-41.0,0
283,11.0,-252.0,-46.0,0
284,12.0,-249.0,-47.0,0
285,9.0,-250.0,-47.0,0
286,5.0,-248.0,-48.0,0
287,11.0,-252.0,-43.0,0
288,10.0,-246.0,-57.0,0
289,8.0,-252.0,-45.0,0
290,9.0,-250.0,-47.0,0
291,8.0,-250.0,-41.0,0
292,4.0,-248.0,-44.0,0
293,11.0,-252.0,-46.0,0
294,9.0,-254.0,-45.0,0
295,7.0,-248.0,-46.0,0
296,4.0,-251.0,-49.0,0
297,7.0,-250.0,-46.0,0
298,7.0,-250.0,-42.0,0
299,17.0,-250.0,-58.0,0
300,7.0,-250.0,-44.0,0
301,10.0,-251.0,-44.0,0
302,6.0,-250.0,-42.0,0
303,4.0,-252.0,-41.0,0
304,6.0,-250.0,-43.0,0
305,7.0,-251.0,-46.0,0
306,7.0,-251.0,-49.0,0
307,6.0,-254.0,-40.0,0
308,8.0,-250.0,-46.0,0
309,10.0,-249.0,-40.0,0
310,20.0,-239.0,-60.0,0
311,8.0,-252.0,-44.0,0
312,9.0,-249.0,-46.0,0
313,7.0,-250.0,-45.0,0
314,8.0,-255.0,-43.0,0
315,9.0,-253.0,-47.0,0
316,7.0,-247.0,-46.0,0
317,8.0,-249.0,-52.0,0
318,9.0,-248.0,-49.0,0
319,9.0,-247.0,-47.0,0
320,17.0,-254.0,-49.0,0
321,7.0,-252.0,-45.0,0
322,7.0,-250.0,-47.0,0
323,8.0,-253.0,-42.0,0
324,8.0,-251.0,-44.0,0
325,8.0,-254.0,-40.0,0
326,7.0,-251.0,-45.0,0
327,10.0,-255.0,-40.0,0
328,5.0,-249.0,-42.0,0
329,7.0,-252.0,-44.0,0
330,5.0,-250.0,-43.0,0
331,12.0,-253.0,-37.0,0
332,6.0,-251.0,-41.0,0
333,5.0,-248.0,-41.0,0
334,6.0,-250.0,-41.0,0
335,8.0,-253.0,-45.0,0
336,7.0,-251.0,-43.0,0
337,5.0,-249.0,-41.0,0
338,7.0,-249.0,-43.0,0
339,6.0,-250.0,-45.0,0
340,10.0,-249.0,-41.0,0
341,8.0,-254.0,-37.0,0
342,8.0,-254.0,-38.0,0
343,4.0,-253.0,-44.0,0
344,6.0,-251.0,-42.0,0
345,8.0,-252.0,-46.0,0
346,8.0,-254.0,-41.0,0
347,8.0,-252.0,-43.0,0
348,7.0,-251.0,-39.0,0
349,5.0,-253.0,-41.0,0
350,6.0,-245.0,-46.0,0
351,4.0,-249.0,-41.0,0
352,6.0,-250.0,-45.0,0
353,14.0,-260.0,-38.0,0
354,5.0,-251.0,-44.0,0
355,9.0,-252.0,-42.0,0
356,7.0,-252.0,-43.0,0
357,6.0,-252.0,-43.0,0
358,7.0,-253.0,-43.0,0
359,5.0,-249.0,-44.0,0
360,9.0,-253.0,-45.0,0
361,7.0,-250.0,-42.0,0
362,5.0,-251.0,-43.0,0
363,4.0,-249.0,-40.0,0
364,16.0,-239.0,-54.0,0
365,7.0,-248.0,-47.0,0
366,7.0,-248.0,-43.0,0
367,12.0,-249.0,-44.0,0
368,6.0,-252.0,-44.0,0
369,7.0,-250.0,-46.0,0
370,8.0,-250.0,-46.0,0
371,7.0,-250.0,-40.0,0
372,11.0,-250.0,-44.0,0
373,4.0,-247.0,-46.0,0
374,8.0,-250.0,-47.0,0
375,13.0,-254.0,-48.0,0
376,8.0,-251.0,-46.0,0
377,6.0,-248.0,-43.0,0
378,10.0,-249.0,-43.0,0
379,5.0,-250.0,-41.0,0
380,9.0,-253.0,-43.0,0
381,7.0,-249.0,-41.0,0
382,5.0,-250.0,-46.0,0
383,7.0,-253.0,-45.0,0
384,10.0,-250.0,-44.0,0
385,12.0,-251.0,-36.0,0
386,-2.0,-241.0,-40.0,0
387,6.0,-250.0,-44.0,0
388,9.0,-250.0,-46.0,0
389,9.0,-253.0,-43.0,0
390,9.0,-253.0,-42.0,0
391,11.0,-252.0,-43.0,0
392,7.0,-251.0,-42.0,0
393,8.0,-254.0,-41.0,0
394,7.0,-251.0,-48.0,0
395,6.0,-249.0,-41.0,0
396,7.0,-251.0,-45.0,0
397,9.0,-253.0,-19.0,0
398,7.0,-251.0,-41.0,0
399,9.0,-252.0,-40.0,0
400,7.0,-249.0,-40.0,0
401,6.0,-251.0,-40.0,0
402,5.0,-250.0,-45.0,0
403,7.0,-249.0,-45.0,0
404,5.0,-250.0,-45.0,0
405,10.0,-251.0,-45.0,0
406,7.0,-250.0,-43.0,0
407,8.0,-251.0,-47.0,0
408,10.0,-250.0,-43.0,0
409,9.0,-251.0,-43.0,0
410,9.0,-250.0,-44.0,0
411,6.0,-253.0,-41.0,0
412,8.0,-253.0,-40.0,0
413,6.0,-249.0,-43.0,0
414,9.0,-252.0,-45.0,0
415,7.0,-253.0,-40.0,0
416,4.0,-250.0,-45.0,0
417,7.0,-254.0,-44.0,0
418,16.0,-238.0,-56.0,0
419,9.0,-251.0,-41.0,0
420,7.0,-249.0,-42.0,0
421,7.0,-251.0,-44.0,0
422,7.0,-249.0,-42.0,0
423,7.0,-251.0,-42.0,0
424,8.0,-250.0,-44.0,0
425,6.0,-251.0,-41.0,0
426,9.0,-247.0,-45.0,0
427,9.0,-253.0,-47.0,0
428,8.0,-254.0,-42.0,0
429,7.0,-244.0,-35.0,0
430,8.0,-251.0,-42.0,0
431,7.0,-248.0,-43.0,0
432,9.0,-251.0,-44.0,0
433,12.0,-252.0,-43.0,0
434,5.0,-251.0,-43.0,0
435,5.0,-251.0,-43.0,0
436,2.0,-249.0,-40.0,0
437,4.0,-250.0,-45.0,0
438,6.0,-249.0,-38.0,0
439,10.0,-245.0,-39.0,0
440,1.0,-256.0,-31.0,0
441,7.0,-248.0,-45.0,0
442,7.0,-251.0,-45.0,0
443,7.0,-248.0,-44.0,0
444,7.0,-249.0,-44.0,0
445,7.0,-252.0,-42.0,0
446,9.0,-252.0,-48.0,0
447,6.0,-250.0,-46.0,0
448,6.0,-249.0,-39.0,0
449,5.0,-252.0,-38.0,0
450,9.0,-253.0,-45.0,0
451,13.0,-246.0,-46.0,0
452,8.0,-252.0,-42.0,0
453,8.0,-250.0,-43.0,0
454,9.0,-253.0,-42.0,0
455,7.0,-251.0,-44.0,0
456,8.0,-250.0,-40.0,0
457,8.0,-250.0,-42.0,0
458,8.0,-250.0,-43.0,0
459,7.0,-247.0,-44.0,0
460,7.0,-248.0,-44.0,0
461,6.0,-254.0,-45.0,0
462,6.0,-247.0,-63.0,0
463,7.0,-249.0,-45.0,0
464,9.0,-251.0,-42.0,0
465,7.0,-249.0,-44.0,0
466,10.0,-252.0,-45.0,0
467,9.0,-250.0,-45.0,0
468,8.0,-252.0,-44.0,0
469,7.0,-249.0,-42.0,0
470,4.0,-251.0,-47.0,0
471,4.0,-251.0,-43.0,0
472,13.0,-251.0,-46.0,0
473,6.0,-254.0,-32.0,0
474,9.0,-249.0,-47.0,0
475,8.0,-250.0,-48.0,0
476,6.0,-251.0,-42.0,0
477,8.0,-251.0,-41.0,0
478,4.0,-251.0,-41.0,0
479,7.0,-252.0,-45.0,0
480,7.0,-249.0,-49.0,0
481,7.0,-247.0,-43.0,0
482,6.0,-247.0,-45.0,0
483,6.0,-249.0,-39.0,0
484,3.0,-242.0,-58.0,0
485,6.0,-249.0,-43.0,0
486,5.0,-249.0,-48.0,0
487,4.0,-250.0,-41.0,0
488,9.0,-252.0,-40.0,0
489,7.0,-251.0,-46.0,0
490,6.0,-250.0,-44.0,0
491,8.0,-248.0,-40.0,0
492,6.0,-253.0,-45.0,0
493,6.0,-248.0,-47.0,0
494,9.0,-249.0,-47.0,0
495,9.0,-248.0,-40.0,0
496,8.0,-249.0,-43.0,0
497,6.0,-252.0,-44.0,0
498,7.0,-249.0,-43.0,0
499,10.0,-252.0,-43.0,0
500,7.0,-252.0,-42.0,0
501,6.0,-248.0,-45.0,0
502,7.0,-245.0,-43.0,0
503,9.0,-253.0,-46.0,0
504,6.0,-250.0,-46.0,0
505,8.0,-252.0,-45.0,0
506,-1.0,-246.0,-46.0,0
507,7.0,-252.0,-40.0,0
508,8.0,-255.0,-41.0,0
509,6.0,-251.0,-41.0,0
510,7.0,-251.0,-41.0,0
511,5.0,-250.0,-46.0,0
512,6.0,-254.0,-44.0,0
513,8.0,-255.0,-44.0,0
514,8.0,-252.0,-35.0,0
515,11.0,-252.0,-46.0,0
516,8.0,-255.0,-45.0,0
517,16.0,-236.0,-54.0,0
518,7.0,-253.0,-44.0,0
519,7.0,-254.0,-45.0,0
520,11.0,-254.0,-41.0,0
521,8.0,-250.0,-42.0,0
522,8.0,-252.0,-41.0,0
523,8.0,-250.0,-47.0,0
524,8.0,-253.0,-46.0,0
525,3.0,-252.0,-42.0,0
526,6.0,-253.0,-39.0,0
527,7.0,-247.0,-44.0,0
528,5.0,-252.0,-42.0,0
529,6.0,-251.0,-42.0,0
530,6.0,-252.0,-44.0,0
531,8.0,-251.0,-45.0,0
532,3.0,-253.0,-41.0,0
533,6.0,-252.0,-40.0,0
534,5.0,-249.0,-44.0,0
535,4.0,-249.0,-45.0,0
536,7.0,-249.0,-51.0,0
537,7.0,-253.0,-37.0,0
538,15.0,-245.0,-52.0,0
539,10.0,-251.0,-45.0,0
540,8.0,-251.0,-46.0,0
541,7.0,-250.0,-44.0,0
542,7.0,-249.0,-46.0,0
543,8.0,-250.0,-46.0,0
544,8.0,-250.0,-48.0,0
545,7.0,-251.0,-45.0,0
546,6.0,-250.0,-47.0,0
547,7.0,-253.0,-44.0,0
548,5.0,-250.0,-50.0,0
549,-6.0,-253.0,-36.0,0
550,5.0,-253.0,-45.0,0
551,4.0,-248.0,-45.0,0
552,6.0,-251.0,-47.0,0
553,7.0,-251.0,-49.0,0
554,5.0,-249.0,-47.0,0
555,3.0,-251.0,-50.0,0
556,8.0,-248.0,-50.0,0
557,4.0,-250.0,-49.0,0
558,3.0,-248.0,-49.0,0
559,5.0,-246.0,-47.0,0
560,6.0,-234.0,-59.0,0
561,7.0,-250.0,-51.0,0
562,6.0,-249.0,-47.0,0
563,8.0,-249.0,-50.0,0
564,7.0,-249.0,-47.0,0
565,6.0,-249.0,-50.0,0
566,6.0,-250.0,-47.0,0
567,1.0,-256.0,-43.0,0
568,3.0,-256.0,-53.0,0
569,4.0,-251.0,-51.0,0
570,6.0,-251.0,-52.0,0
571,0.0,-257.0,-37.0,0
572,6.0,-249.0,-53.0,0
573,8.0,-247.0,-51.0,0
574,6.0,-246.0,-52.0,0
575,7.0,-247.0,-57.0,0
576,6.0,-245.0,-60.0,0
577,9.0,-245.0,-59.0,0
578,12.0,-244.0,-55.0,0
579,9.0,-244.0,-59.0,0
580,12.0,-248.0,-60.0,0
581,6.0,-244.0,-58.0,0
582,15.0,-231.0,-67.0,0
583,8.0,-245.0,-59.0,0
584,9.0,-245.0,-57.0,0
585,7.0,-244.0,-55.0,0
586,6.0,-243.0,-59.0,0
587,5.0,-244.0,-58.0,0
588,7.0,-243.0,-61.0,0
589,7.0,-245.0,-58.0,0
590,7.0,-244.0,-62.0,0
591,5.0,-241.0,-63.0,0
592,8.0,-241.0,-69.0,0
593,13.0,-252.0,-60.0,0
594,8.0,-242.0,-67.0,0
595,6.0,-241.0,-71.0,0
596,8.0,-241.0,-69.0,0
597,8.0,-241.0,-74.0,0
598,8.0,-239.0,-75.0,0
599,6.0,-239.0,-72.0,0
600,7.0,-239.0,-74.0,0
601,7.0,-235.0,-78.0,0
602,8.0,-240.0,-70.0,0
603,8.0,-236.0,-76.0,0
604,3.0,-239.0,-62.0,0
605,4.0,-232.0,-79.0,0
606,4.0,-232.0,-76.0,0
607,4.0,-234.0,-78.0,0
608,-1.0,-228.0,-76.0,0
609,5.0,-230.0,-77.0,0
610,5.0,-228.0,-76.0,0
611,3.0,-224.0,-80.0,0
612,2.0,-226.0,-82.0,0
613,0.0,-225.0,-80.0,0
614,5.0,-226.0,-91.0,0
615,-4.0,-207.0,-95.0,0
616,1.0,-227.0,-87.0,0
617,-1.0,-224.0,-88.0,0
618,1.0,-230.0,-90.0,0
619,-3.0,-229.0,-91.0,0
620,0.0,-228.0,-93.0,0
621,-6.0,-226.0,-92.0,0
622,-6.0,-225.0,-99.0,0
623,-2.0,-223.0,-102.0,0
624,-4.0,-228.0,-101.0,0
625,-12.0,-221.0,-94.0,0
626,-1.0,-222.0,-103.0,0
627,-5.0,-222.0,-109.0,0
628,-7.0,-219.0,-108.0,0
629,-3.0,-218.0,-112.0,0
630,0.0,-222.0,-111.0,0
631,-2.0,-222.0,-104.0,0
632,0.0,-215.0,-113.0,0
633,2.0,-222.0,-109.0,0
634,5.0,-221.0,-112.0,0
635,6.0,-226.0,-104.0,0
636,11.0,-219.0,-96.0,0
637,5.0,-217.0,-106.0,0
638,5.0,-217.0,-103.0,0
639,5.0,-218.0,-105.0,0
640,6.0,-220.0,-104.0,0
641,6.0,-219.0,-106.0,0
642,6.0,-218.0,-109.0,0
643,5.0,-219.0,-107.0,0
644,7.0,-218.0,-112.0,0
645,7.0,-217.0,-116.0,0
646,4.0,-214.0,-114.0,0
647,3.0,-203.0,-129.0,0
648,6.0,-210.0,-122.0,0
649,7.0,-214.0,-122.0,0
650,7.0,-209.0,-124.0,0
651,9.0,-211.0,-121.0,0
652,8.0,-211.0,-122.0,0
653,6.0,-213.0,-123.0,0
654,0.0,-213.0,-126.0,0
655,2.0,-215.0,-124.0,0
656,-2.0,-221.0,-123.0,0
657,-7.0,-223.0,-119.0,0
658,-2.0,-246.0,-106.0,0
659,-14.0,-235.0,-115.0,0
660,-14.0,-234.0,-112.0,0
661,-15.0,-233.0,-118.0,0
662,-16.0,-230.0,-114.0,0
663,-16.0,-230.0,-117.0,0
664,-16.0,-227.0,-118.0,0
665,-17.0,-221.0,-122.0,0
666,-14.0,-219.0,-125.0,0
667,-12.0,-218.0,-130.0,0
668,-7.0,-215.0,-130.0,0
669,2.0,-206.0,-124.0,0
670,-1.0,-210.0,-132.0,0
671,1.0,-205.0,-131.0,0
672,1.0,-208.0,-140.0,0
673,5.0,-209.0,-137.0,0
674,6.0,-208.0,-137.0,0
675,4.0,-205.0,-135.0,0
676,7.0,-206.0,-139.0,0
677,11.0,-211.0,-133.0,0
678,6.0,-208.0,-137.0,0
679,8.0,-202.0,-139.0,0
680,-1.0,-193.0,-139.0,0
681,5.0,-199.0,-137.0,0
682,9.0,-200.0,-138.0,0
683,6.0,-201.0,-141.0,0
684,7.0,-196.0,-134.0,0
685,7.0,-194.0,-135.0,0
686,5.0,-194.0,-137.0,0
687,10.0,-189.0,-138.0,0
688,9.0,-190.0,-136.0,0
689,8.0,-190.0,-137.0,0
690,10.0,-185.0,-153.0,0
691,-9.0,-199.0,-135.0,0
692,8.0,-193.0,-148.0,0
693,5.0,-194.0,-149.0,0
694,4.0,-198.0,-151.0,0
695,-2.0,-198.0,-152.0,0
696,-4.0,-200.0,-158.0,0
697,-8.0,-204.0,-156.0,0
698,-14.0,-200.0,-151.0,0
699,-13.0,-199.0,-160.0,0
700,-19.0,-196.0,-149.0,0
701,-23.0,-197.0,-154.0,0
702,-16.0,-202.0,-142.0,0
703,-31.0,-196.0,-149.0,0
704,-31.0,-190.0,-152.0,0
705,-30.0,-189.0,-153.0,0
706,-32.0,-186.0,-153.0,0
707,-36.0,-183.0,-148.0,0
708,-35.0,-180.0,-156.0,0
709,-34.0,-182.0,-156.0,0
710,-35.0,-177.0,-154.0,0
711,-42.0,-175.0,-158.0,0
712,-46.0,-177.0,-150.0,0
713,-48.0,-180.0,-159.0,0
714,-45.0,-178.0,-159.0,0
715,-44.0,-180.0,-158.0,0
716,-45.0,-182.0,-163.0,0
717,-44.0,-180.0,-164.0,0
718,-44.0,-184.0,-169.0,0
719,-46.0,-181.0,-170.0,0
720,-49.0,-184.0,-169.0,0
721,-45.0,-186.0,-169.0,0
722,-38.0,-192.0,-175.0,0
723,-35.0,-184.0,-195.0,0
724,-32.0,-200.0,-182.0,0
725,-31.0,-197.0,-183.0,0
726,-29.0,-198.0,-186.0,0
727,-27.0,-197.0,-185.0,0
728,-24.0,-199.0,-190.0,0
729,-20.0,-199.0,-196.0,0
730,-23.0,-196.0,-192.0,0
731,-28.0,-193.0,-192.0,0
732,-27.0,-192.0,-194.0,0
733,-29.0,-190.0,-196.0,0
734,-36.0,-192.0,-207.0,0
735,-33.0,-181.0,-198.0,0
736,-37.0,-182.0,-200.0,0
737,-38.0,-181.0,-200.0,0
738,-42.0,-183.0,-194.0,0
739,-47.0,-180.0,-193.0,0
740,-50.0,-177.0,-189.0,0
741,-48.0,-178.0,-192.0,0
742,-55.0,-184.0,-190.0,0
743,-58.0,-183.0,-196.0,0
744,-55.0,-177.0,-198.0,0
745,-52.0,-195.0,-186.0,0
746,-51.0,-182.0,-201.0,0
747,-44.0,-180.0,-199.0,0
748,-43.0,-181.0,-203.0,0
749,-40.0,-179.0,-201.0,0
750,-31.0,-177.0,-199.0,0
751,-28.0,-177.0,-203.0,0
752,-28.0,-179.0,-203.0,0
753,-28.0,-176.0,-204.0,0
754,-25.0,-177.0,-205.0,0
755,-30.0,-174.0,-200.0,0
756,-26.0,-182.0,-198.0,0
757,-35.0,-175.0,-202.0,0
758,-36.0,-174.0,-197.0,0
759,-40.0,-172.0,-193.0,0
760,-46.0,-174.0,-198.0,0
761,-50.0,-172.0,-197.0,0
762,-49.0,-166.0,-194.0,0
763,-51.0,-167.0,-193.0,0
764,-52.0,-165.0,-198.0,0
765,-55.0,-167.0,-200.0,0
766,-55.0,-167.0,-204.0,0
767,-40.0,-156.0,-213.0,0
768,-48.0,-161.0,-200.0,0
769,-44.0,-166.0,-200.0,0
770,-43.0,-168.0,-200.0,0
771,-42.0,-168.0,-205.0,0
772,-37.0,-172.0,-197.0,0
773,-38.0,-171.0,-203.0,0
774,-36.0,-166.0,-199.0,0
775,-42.0,-170.0,-197.0,0
776,-44.0,-172.0,-203.0,0
777,-43.0,-170.0,-200.0,0
778,-50.0,-154.0,-217.0,0
779,-47.0,-170.0,-201.0,0
780,-47.0,-169.0,-207.0,0
781,-51.0,-169.0,-204.0,0
782,-50.0,-172.0,-206.0,0
783,-50.0,-170.0,-204.0,0
784,-48.0,-171.0,-207.0,0
785,-49.0,-173.0,-212.0,0
786,-46.0,-173.0,-214.0,0
787,-48.0,-175.0,-210.0,0
788,-52.0,-174.0,-213.0,0
789,-47.0,-170.0,-193.0,0
790,-50.0,-173.0,-214.0,0
791,-51.0,-169.0,-213.0,0
792,-50.0,-172.0,-210.0,0
793,-52.0,-169.0,-212.0,0
794,-56.0,-167.0,-217.0,0
795,-52.0,-167.0,-214.0,0
796,-54.0,-164.0,-216.0,0
797,-51.0,-167.0,-216.0,0
798,-40.0,-169.0,-218.0,0
799,-41.0,-166.0,-218.0,0
800,-33.0,-153.0,-236.0,0
801,-31.0,-170.0,-221.0,0
802,-31.0,-169.0,-226.0,0
803,-24.0,-168.0,-225.0,0
804,-23.0,-172.0,-226.0,0
805,-18.0,-169.0,-224.0,0
806,-16.0,-176.0,-224.0,0
807,-18.0,-177.0,-223.0,0
808,-20.0,-175.0,-226.0,0
809,-31.0,-170.0,-222.0,0
810,-40.0,-170.0,-221.0,0
811,-42.0,-171.0,-217.0,0
812,-54.0,-168.0,-219.0,0
813,-60.0,-166.0,-219.0,0
814,-66.0,-164.0,-226.0,0
815,-67.0,-163.0,-225.0,0
816,-69.0,-167.0,-225.0,0
817,-71.0,-165.0,-230.0,0
818,-68.0,-167.0,-225.0,0
819,-60.0,-170.0,-223.0,0
820,-38.0,-175.0,-226.0,0
821,-38.0,-181.0,-228.0,0
822,-34.0,-178.0,-226.0,0
823,-27.0,-177.0,-228.0,0
824,-19.0,-181.0,-229.0,0
825,-11.0,-186.0,-224.0,0
826,-12.0,-183.0,-224.0,0
827,-18.0,-185.0,-220.0,0
828,-25.0,-190.0,-225.0,0
829,-25.0,-191.0,-219.0,0
830,-40.0,-184.0,-221.0,0
831,-44.0,-180.0,-217.0,0
832,-57.0,-173.0,-217.0,0
833,-61.0,-180.0,-216.0,0
834,-67.0,-178.0,-217.0,0
835,-71.0,-170.0,-222.0,0
836,-70.0,-172.0,-218.0,0
837,-71.0,-168.0,-219.0,0
838,-67.0,-172.0,-217.0,0
839,-63.0,-169.0,-220.0,0
840,-62.0,-171.0,-214.0,0
841,-51.0,-170.0,-210.0,0
842,-43.0,-178.0,-216.0,0
843,-31.0,-177.0,-222.0,0
844,-34.0,-189.0,-215.0,0
845,-32.0,-192.0,-212.0,0
846,-29.0,-192.0,-214.0,0
847,-30.0,-195.0,-215.0,0
848,-31.0,-199.0,-221.0,0
849,-30.0,-199.0,-217.0,0
850,-34.0,-202.0,-219.0,0
851,-41.0,-199.0,-211.0,0
852,-43.0,-197.0,-217.0,0
853,-44.0,-196.0,-215.0,0
854,-37.0,-207.0,-199.0,0
855,-48.0,-200.0,-211.0,0
856,-48.0,-200.0,-208.0,0
857,-46.0,-200.0,-209.0,0
858,-46.0,-198.0,-204.0,0
859,-45.0,-199.0,-204.0,0
860,-39.0,-200.0,-204.0,0
861,-40.0,-202.0,-202.0,0
862,-32.0,-206.0,-195.0,0
863,-32.0,-208.0,-202.0,0
864,-33.0,-210.0,-193.0,0
865,-30.0,-219.0,-198.0,0
866,-36.0,-218.0,-196.0,0
867,-32.0,-223.0,-199.0,0
868,-31.0,-223.0,-200.0,0
869,-33.0,-221.0,-200.0,0
870,-36.0,-228.0,-200.0,0
871,-39.0,-227.0,-203.0,0
872,-34.0,-227.0,-206.0,0
873,-36.0,-230.0,-207.0,0
874,-32.0,-230.0,-202.0,0
875,-37.0,-226.0,-208.0,0
876,-36.0,-229.0,-204.0,0
877,-42.0,-248.0,-192.0,0
878,-40.0,-224.0,-204.0,0
879,-30.0,-227.0,-193.0,0
880,-30.0,-225.0,-196.0,0
881,-29.0,-226.0,-190.0,0
882,-22.0,-228.0,-188.0,0
883,-28.0,-227.0,-186.0,0
884,-23.0,-222.0,-182.0,0
885,-23.0,-227.0,-183.0,0
886,-21.0,-229.0,-181.0,0
887,-13.0,-229.0,-180.0,0
888,-21.0,-225.0,-174.0,0
889,-20.0,-224.0,-174.0,0
890,-23.0,-221.0,-172.0,0
891,-22.0,-225.0,-166.0,0
892,-23.0,-221.0,-168.0,0
893,-23.0,-222.0,-154.0,0
894,-30.0,-218.0,-155.0,0
895,-29.0,-221.0,-146.0,0
896,-24.0,-222.0,-148.0,0
897,-29.0,-219.0,-142.0,0
898,-36.0,-216.0,-151.0,0
899,-25.0,-215.0,-145.0,0
900,-24.0,-216.0,-139.0,0
901,-23.0,-213.0,-140.0,0
902,-23.0,-210.0,-137.0,0
903,-22.0,-215.0,-133.0,0
904,-18.0,-214.0,-135.0,0
905,-17.0,-216.0,-129.0,0
906,-17.0,-215.0,-129.0,0
907,-17.0,-218.0,-127.0,0
908,-16.0,-217.0,-128.0,0
909,-18.0,-222.0,-127.0,0
910,-14.0,-217.0,-126.0,0
911,-9.0,-220.0,-126.0,0
912,-8.0,-222.0,-125.0,0
913,-5.0,-225.0,-126.0,0
914,-4.0,-224.0,-127.0,0
915,-4.0,-223.0,-127.0,0
916,-6.0,-229.0,-125.0,0
917,-6.0,-232.0,-119.0,0
918,-5.0,-234.0,-123.0,0
919,-7.0,-239.0,-120.0,0
920,-4.0,-234.0,-120.0,0
921,-3.0,-239.0,-117.0,0
922,2.0,-239.0,-115.0,0
923,0.0,-240.0,-115.0,0
924,1.0,-235.0,-113.0,0
925,2.0,-238.0,-111.0,0
926,7.0,-240.0,-104.0,0
927,4.0,-241.0,-103.0,0
928,5.0,-242.0,-99.0,0
929,6.0,-243.0,-102.0,0
930,5.0,-246.0,-87.0,0
931,13.0,-243.0,-98.0,0
932,11.0,-243.0,-98.0,0
933,11.0,-247.0,-103.0,0
934,15.0,-247.0,-100.0,0
935,10.0,-244.0,-98.0,0
936,12.0,-243.0,-95.0,0
937,16.0,-243.0,-93.0,0
938,12.0,-245.0,-88.0,0
939,10.0,-246.0,-95.0,0
940,12.0,-247.0,-92.0,0
941,27.0,-233.0,-78.0,0
942,14.0,-244.0,-89.0,0
943,14.0,-245.0,-87.0,0
944,10.0,-243.0,-86.0,0
945,9.0,-245.0,-81.0,0
946,10.0,-246.0,-80.0,0
947,7.0,-244.0,-72.0,0
948,10.0,-250.0,-71.0,0
949,7.0,-247.0,-76.0,0
950,6.0,-244.0,-71.0,0
951,2.0,-244.0,-68.0,0
952,-10.0,-247.0,-59.0,0
953,0.0,-244.0,-68.0,0
954,2.0,-248.0,-73.0,0
955,1.0,-247.0,-71.0,0
956,0.0,-247.0,-72.0,0
957,2.0,-252.0,-68.0,0
958,1.0,-250.0,-70.0,0
959,1.0,-253.0,-69.0,0
960,3.0,-253.0,-65.0,0
961,1.0,-250.0,-63.0,0
962,1.0,-250.0,-66.0,0
963,-9.0,-254.0,-47.0,0
964,1.0,-250.0,-59.0,0
965,2.0,-247.0,-57.0,0
966,1.0,-248.0,-52.0,0
967,6.0,-248.0,-43.0,0
968,2.0,-243.0,-41.0,0
969,2.0,-247.0,-45.0,0
970,0.0,-244.0,-46.0,0
971,0.0,-246.0,-36.0,0
972,-1.0,-240.0,-33.0,0
973,-1.0,-245.0,-36.0,0
974,-6.0,-255.0,-32.0,0
975,2.0,-247.0,-32.0,0
976,4.0,-252.0,-33.0,0
977,2.0,-252.0,-28.0,0
978,0.0,-251.0,-27.0,0
979,-1.0,-249.0,-20.0,0
980,-2.0,-249.0,-20.0,0
981,0.0,-250.0,-11.0,0
982,-1.0,-245.0,-16.0,0
983,0.0,-247.0,-12.0,0
984,-6.0,-239.0,-2.0,0
985,-4.0,-241.0,-6.0,0
986,3.0,-231.0,-7.0,0
987,-2.0,-228.0,-4.0,0
988,0.0,-226.0,-4.0,0
989,-2.0,-223.0,-9.0,0
990,-3.0,-225.0,-4.0,0
991,-5.0,-226.0,-5.0,0
992,-5.0,-233.0,-2.0,0
993,-6.0,-240.0,2.0,0
994,5.0,-247.0,-4.0,0
995,5.0,-252.0,1.0,0
996,17.0,-266.0,14.0,0
997,13.0,-261.0,6.0,0
998,15.0,-261.0,6.0,0
999,15.0,-261.0,6.0,0
1000,17.0,-256.0,5.0,0
1001,17.0,-253.0,2.0,0
1002,16.0,-248.0,3.0,0
1003,21.0,-244.0,1.0,0
1004,15.0,-244.0,-1.0,0
1005,14.0,-239.0,-6.0,0
1006,13.0,-240.0,-10.0,0
1007,11.0,-241.0,-13.0,0
1008,6.0,-234.0,-13.0,0
1009,6.0,-235.0,-17.0,0
1010,10.0,-239.0,-21.0,0
1011,5.0,-237.0,-21.0,0
1012,4.0,-245.0,-22.0,0
1013,4.0,-241.0,-29.0,0
1014,12.0,-247.0,-28.0,0
1015,9.0,-248.0,-31.0,0
1016,16.0,-248.0,-29.0,0
1017,15.0,-241.0,-43.0,0
1018,13.0,-246.0,-35.0,0
1019,10.0,-249.0,-37.0,0
1020,11.0,-250.0,-39.0,0
1021,11.0,-250.0,-38.0,0
1022,10.0,-249.0,-43.0,0
1023,13.0,-252.0,-41.0,0
1024,13.0,-255.0,-37.0,0
1025,13.0,-256.0,-41.0,0
1026,8.0,-259.0,-32.0,0
1027,7.0,-258.0,-28.0,0
1028,10.0,-273.0,-21.0,0
1029,-1.0,-259.0,-22.0,0
1030,-2.0,-258.0,-15.0,0
1031,-2.0,-257.0,-14.0,0
1032,-2.0,-251.0,-9.0,0
1033,-3.0,-247.0,-8.0,0
1034,-3.0,-243.0,-7.0,0
1035,-2.0,-239.0,-4.0,0
1036,-1.0,-236.0,-2.0,0
1037,1.0,-235.0,-2.0,0
1038,5.0,-232.0,-1.0,0
1039,-8.0,-238.0,1.0,0
1040,7.0,-238.0,3.0,0
1041,8.0,-241.0,2.0,0
1042,7.0,-243.0,6.0,0
1043,10.0,-243.0,5.0,0
1044,10.0,-247.0,2.0,0
1045,11.0,-250.0,4.0,0
1046,10.0,-256.0,2.0,0
1047,8.0,-251.0,-1.0,0
1048,5.0,-255.0,3.0,0
1049,7.0,-253.0,3.0,0
1050,7.0,-252.0,-6.0,0
1051,6.0,-257.0,8.0,0
1052,2.0,-252.0,5.0,0
1053,5.0,-252.0,5.0,0
1054,3.0,-250.0,3.0,0
1055,2.0,-250.0,2.0,0
1056,6.0,-249.0,3.0,0
1057,3.0,-246.0,1.0,0
1058,7.0,-248.0,-1.0,0
1059,7.0,-245.0,0.0,0
1060,13.0,-249.0,-1.0,0
1061,14.0,-262.0,5.0,0
1062,11.0,-249.0,0.0,0
1063,14.0,-247.0,-2.0,0
1064,11.0,-246.0,-2.0,0
1065,16.0,-249.0,0.0,0
1066,14.0,-249.0,-9.0,0
1067,15.0,-248.0,-3.0,0
1068,12.0,-247.0,-8.0,0
1069,14.0,-246.0,-8.0,0
1070,11.0,-248.0,-7.0,0
1071,7.0,-249.0,-10.0,0
1072,0.0,-256.0,-1.0,0
1073,6.0,-249.0,-10.0,0
1074,7.0,-249.0,-6.0,0
1075,4.0,-253.0,-11.0,0
1076,6.0,-252.0,-7.0,0
1077,5.0,-253.0,-6.0,0
1078,5.0,-253.0,-5.0,0
1079,3.0,-253.0,-6.0,0
1080,4.0,-252.0,-4.0,0
1081,1.0,-253.0,-9.0,0
1082,-2.0,-253.0,-6.0,0
1083,0.0,-256.0,-7.0,0
1084,1.0,-251.0,-6.0,0
1085,2.0,-253.0,-7.0,0
1086,2.0,-250.0,-6.0,0
1087,3.0,-251.0,-8.0,0
1088,2.0,-254.0,-3.0,0
1089,3.0,-249.0,-4.0,0
1090,5.0,-253.0,-8.0,0
1091,5.0,-253.0,-10.0,0
1092,3.0,-250.0,-6.0,0
1093,7.0,-254.0,3.0,0
1094,8.0,-255.0,6.0,0
1095,6.0,-252.0,-4.0,0
1096,8.0,-252.0,-5.0,0
1097,4.0,-251.0,-6.0,0
1098,4.0,-252.0,0.0,0
1099,5.0,-252.0,-2.0,0
1100,4.0,-253.0,-2.0,0
1101,3.0,-249.0,-2.0,0
1102,-1.0,-248.0,5.0,0
1103,0.0,-249.0,-6.0,0
1104,2.0,-247.0,0.0,0
1105,-9.0,-239.0,-2.0,0
1106,-3.0,-250.0,4.0,0
1107,-1.0,-248.0,8.0,0
1108,-1.0,-248.0,3.0,0
1109,-7.0,-247.0,2.0,0
1110,-8.0,-249.0,2.0,0
1111,-6.0,-250.0,0.0,0
1112,-10.0,-245.0,2.0,0
1113,-9.0,-251.0,0.0,0
1114,-4.0,-246.0,-1.0,0
1115,-10.0,-252.0,-14.0,0
1116,-2.0,-252.0,-2.0,0
1117,1.0,-252.0,-1.0,0
1118,5.0,-256.0,0.0,0
1119,7.0,-255.0,-8.0,0
1120,8.0,-254.0,-7.0,0
1121,10.0,-254.0,-9.0,0
1122,15.0,-254.0,-13.0,0
1123,11.0,-253.0,-13.0,0
1124,12.0,-250.0,-17.0,0
1125,16.0,-252.0,-15.0,0
1126,20.0,-259.0,-2.0,0
1127,11.0,-248.0,-16.0,0
1128,12.0,-250.0,-17.0,0
1129,11.0,-252.0,-17.0,0
1130,9.0,-249.0,-15.0,0
1131,10.0,-250.0,-17.0,0
1132,9.0,-250.0,-17.0,0
1133,7.0,-250.0,-18.0,0
1134,11.0,-254.0,-17.0,0
1135,10.0,-252.0,-18.0,0
1136,9.0,-254.0,-15.0,0
1137,24.0,-259.0,-16.0,0
1138,12.0,-254.0,-16.0,0
1139,12.0,-252.0,-21.0,0
1140,12.0,-253.0,-19.0,0
1141,11.0,-250.0,-22.0,0
1142,11.0,-250.0,-20.0,0
1143,6.0,-248.0,-25.0,0
1144,6.0,-249.0,-20.0,0
1145,6.0,-247.0,-23.0,0
1146,10.0,-245.0,-26.0,0
1147,14.0,-244.0,-20.0,0
1148,13.0,-248.0,-16.0,0
1149,2.0,-248.0,-23.0,0
1150,8.0,-254.0,-25.0,0
1151,10.0,-252.0,-25.0,0
1152,7.0,-251.0,-23.0,0
1153,11.0,-253.0,-22.0,0
1154,11.0,-255.0,-24.0,0
1155,14.0,-254.0,-23.0,0
1156,12.0,-253.0,-22.0,0
1157,12.0,-254.0,-20.0,0
1158,6.0,-253.0,-20.0,0
1159,23.0,-261.0,-19.0,0
1160,10.0,-257.0,-16.0,0
1161,7.0,-254.0,-16.0,0
1162,12.0,-254.0,-17.0,0
1163,5.0,-252.0,-7.0,0
1164,3.0,-253.0,-13.0,0
1165,3.0,-254.0,-13.0,0
1166,4.0,-254.0,-8.0,0
1167,2.0,-252.0,-11.0,0
1168,7.0,-251.0,-9.0,0
1169,3.0,-252.0,-8.0,0
1170,-8.0,-245.0,-8.0,0
1171,2.0,-253.0,-10.0,0
1172,2.0,-254.0,-9.0,0
1173,4.0,-255.0,-14.0,0
1174,1.0,-252.0,-12.0,0
1175,4.0,-254.0,-9.0,0
1176,-2.0,-253.0,-10.0,0
1177,0.0,-253.0,-8.0,0
1178,-4.0,-253.0,-6.0,0
1179,1.0,-252.0,-5.0,0
1180,-3.0,-251.0,-13.0,0
1181,-5.0,-245.0,-15.0,0
1182,0.0,-253.0,-7.0,0
1183,-1.0,-252.0,-12.0,0
1184,1.0,-252.0,-14.0,0
1185,2.0,-252.0,-14.0,0
1186,2.0,-255.0,-12.0,0
1187,2.0,-252.0,-13.0,0
1188,1.0,-248.0,-13.0,0
1189,0.0,-250.0,-14.0,0
1190,3.0,-250.0,-15.0,0
1191,4.0,-250.0,-9.0,0
1192,-5.0,-244.0,-11.0,0
1193,3.0,-247.0,-13.0,0
1194,3.0,-248.0,-10.0,0
1195,3.0,-249.0,-15.0,0
1196,4.0,-250.0,-15.0,0
1197,4.0,-247.0,-16.0,0
1198,3.0,-250.0,-19.0,0
1199,5.0,-248.0,-17.0,0
1200,10.0,-249.0,-18.0,0
1201,4.0,-252.0,-19.0,0
1202,5.0,-254.0,-16.0,0
1203,-4.0,-241.0,-26.0,0
1204,7.0,-254.0,-18.0,0
1205,5.0,-254.0,-19.0,0
1206,8.0,-255.0,-21.0,0
1207,4.0,-253.0,-17.0,0
1208,8.0,-253.0,-22.0,0
1209,6.0,-251.0,-20.0,0
1210,10.0,-248.0,-21.0,0
1211,3.0,-251.0,-18.0,0
1212,6.0,-248.0,-15.0,0
1213,5.0,-251.0,-16.0,0
1214,10.0,-252.0,-15.0,0
1215,6.0,-251.0,-17.0,0
1216,5.0,-250.0,-17.0,0
1217,5.0,-249.0,-12.0,0
1218,6.0,-252.0,-12.0,0
1219,5.0,-253.0,-13.0,0
1220,6.0,-250.0,-10.0,0
1221,4.0,-254.0,-13.0,0
1222,9.0,-255.0,-13.0,0
1223,7.0,-259.0,-7.0,0
1224,4.0,-236.0,-25.0,0
1225,5.0,-256.0,-12.0,0
1226,3.0,-257.0,-13.0,0
1227,8.0,-260.0,-11.0,0
1228,5.0,-259.0,-14.0,0
1229,4.0,-258.0,-15.0,0
1230,7.0,-256.0,-17.0,0
1231,5.0,-254.0,-15.0,0
1232,9.0,-255.0,-14.0,0
1233,5.0,-248.0,-17.0,0
1234,3.0,-249.0,-13.0,0
1235,7.0,-251.0,-2.0,0
1236,11.0,-247.0,-12.0,0
1237,6.0,-246.0,-18.0,0
1238,6.0,-245.0,-13.0,0
1239,7.0,-244.0,-17.0,0
1240,6.0,-248.0,-11.0,0
1241,6.0,-246.0,-12.0,0
1242,6.0,-249.0,-13.0,0
1243,8.0,-251.0,-14.0,0
1244,4.0,-249.0,-13.0,0
1245,3.0,-252.0,-17.0,0
1246,9.0,-246.0,-10.0,0
1247,4.0,-251.0,-14.0,0
1248,4.0,-252.0,-18.0,0
1249,3.0,-253.0,-15.0,0
1250,4.0,-253.0,-17.0,0
1251,3.0,-250.0,-18.0,0
1252,4.0,-253.0,-18.0,0
1253,6.0,-256.0,-16.0,0
1254,7.0,-254.0,-21.0,0
1255,3.0,-252.0,-14.0,0
1256,5.0,-253.0,-19.0,0
1257,12.0,-250.0,-27.0,0
1258,0.0,-251.0,-21.0,0
1259,2.0,-251.0,-18.0,0
1260,5.0,-254.0,-19.0,0
1261,2.0,-251.0,-17.0,0
1262,3.0,-252.0,-16.0,0
1263,1.0,-252.0,-20.0,0
1264,0.0,-250.0,-17.0,0
1265,1.0,-253.0,-21.0,0
1266,3.0,-257.0,-16.0,0
1267,-1.0,-256.0,-14.0,0
1268,-4.0,-256.0,4.0,0
1269,3.0,-257.0,-13.0,0
1270,1.0,-260.0,-20.0,0
1271,3.0,-259.0,-18.0,0
1272,1.0,-259.0,-19.0,0
1273,2.0,-257.0,-16.0,0
1274,3.0,-256.0,-19.0,0
1275,3.0,-257.0,-20.0,0
1276,6.0,-254.0,-18.0,0
1277,2.0,-253.0,-20.0,0
1278,2.0,-251.0,-14.0,0
1279,7.0,-248.0,-16.0,0
1280,5.0,-246.0,-22.0,0
1281,5.0,-242.0,-17.0,0
1282,6.0,-244.0,-16.0,0
1283,2.0,-243.0,-13.0,0
1284,5.0,-245.0,-9.0,0
1285,6.0,-243.0,-11.0,0
1286,4.0,-249.0,-13.0,0
1287,4.0,-247.0,-8.0,0
1288,4.0,-247.0,-4.0,0
1289,5.0,-248.0,-9.0,0
1290,-1.0,-241.0,-10.0,0
1291,1.0,-247.0,-9.0,0
1292,3.0,-250.0,-10.0,0
1293,3.0,-249.0,-8.0,0
1294,3.0,-250.0,-12.0,0
1295,3.0,-252.0,-10.0,0
1296,4.0,-254.0,-13.0,0
1297,4.0,-249.0,-14.0,0
1298,2.0,-254.0,-12.0,0
1299,0.0,-254.0,-16.0,0
1300,-6.0,-253.0,-13.0,0
1301,-4.0,-254.0,-6.0,0
1302,5.0,-253.0,-14.0,0
1303,5.0,-249.0,-13.0,0
1304,3.0,-247.0,-15.0,0
1305,5.0,-251.0,-13.0,0
1306,5.0,-248.0,-12.0,0
1307,3.0,-249.0,-16.0,0
1308,7.0,-249.0,-18.0,0
1309,7.0,-250.0,-11.0,0
1310,6.0,-255.0,-13.0,0
1311,6.0,-251.0,-12.0,0
1312,2.0,-255.0,-11.0,0
1313,6.0,-256.0,-13.0,0
1314,7.0,-255.0,-15.0,0
1315,7.0,-253.0,-15.0,0
1316,4.0,-254.0,-17.0,0
1317,4.0,-253.0,-14.0,0
1318,5.0,-250.0,-13.0,0
1319,4.0,-249.0,-17.0,0
1320,5.0,-250.0,-12.0,0
1321,3.0,-248.0,-19.0,0
1322,3.0,-262.0,4.0,0
1323,6.0,-249.0,-14.0,0
1324,3.0,-250.0,-13.0,0
1325,4.0,-251.0,-14.0,0
1326,4.0,-254.0,-13.0,0
1327,4.0,-252.0,-12.0,0
1328,2.0,-250.0,-13.0,0
1329,1.0,-251.0,-12.0,0
1330,7.0,-252.0,-14.0,0
1331,8.0,-252.0,-11.0,0
1332,6.0,-253.0,-14.0,0
1333,12.0,-255.0,-4.0,0
1334,5.0,-254.0,-14.0,0
1335,6.0,-250.0,-12.0,0
1336,5.0,-251.0,-15.0,0
1337,4.0,-250.0,-16.0,0
1338,6.0,-251.0,-14.0,0
1339,3.0,-249.0,-17.0,0
1340,5.0,-251.0,-19.0,0
1341,3.0,-252.0,-12.0,0
1342,7.0,-251.0,-18.0,0
1343,7.0,-252.0,-15.0,0
1344,14.0,-250.0,-12.0,0
1345,4.0,-250.0,-16.0,0
1346,4.0,-253.0,-18.0,0
1347,6.0,-253.0,-20.0,0
1348,4.0,-252.0,-16.0,0
1349,3.0,-252.0,-17.0,0
1350,1.0,-250.0,-13.0,0
1351,6.0,-251.0,-16.0,0
1352,7.0,-251.0,-15.0,0
1353,4.0,-252.0,-21.0,0
1354,1.0,-251.0,-15.0,0
1355,8.0,-240.0,-12.0,0
1356,4.0,-251.0,-14.0,0
1357,2.0,-250.0,-16.0,0
1358,3.0,-251.0,-13.0,0
1359,5.0,-254.0,-15.0,0
1360,3.0,-252.0,-14.0,0
1361,3.0,-253.0,-11.0,0
1362,0.0,-251.0,-10.0,0
1363,6.0,-251.0,-10.0,0
1364,3.0,-251.0,-10.0,0
1365,2.0,-250.0,-15.0,0
1366,11.0,-271.0,-2.0,0
1367,2.0,-252.0,-12.0,0
1368,3.0,-250.0,-12.0,0
1369,2.0,-249.0,-15.0,0
1370,7.0,-253.0,-13.0,0
1371,1.0,-251.0,-13.0,0
1372,3.0,-252.0,-19.0,0
1373,1.0,-255.0,-8.0,0
1374,3.0,-247.0,-14.0,0
1375,2.0,-252.0,-18.0,0
1376,7.0,-254.0,-14.0,0
1377,-7.0,-255.0,-2.0,0
1378,5.0,-253.0,-14.0,0
1379,4.0,-251.0,-14.0,0
1380,6.0,-253.0,-13.0,0
1381,5.0,-255.0,-15.0,0
1382,3.0,-252.0,-14.0,0
1383,5.0,-253.0,-11.0,0
1384,1.0,-250.0,-14.0,0
1385,2.0,-251.0,-14.0,0
1386,4.0,-250.0,-14.0,0
1387,4.0,-251.0,-14.0,0
1388,3.0,-244.0,-27.0,0
1389,5.0,-251.0,-14.0,0
1390,5.0,-251.0,-17.0,0
1391,4.0,-252.0,-15.0,0
1392,2.0,-249.0,-14.0,0
1393,4.0,-253.0,-15.0,0
1394,3.0,-251.0,-14.0,0
1395,5.0,-252.0,-12.0,0
1396,2.0,-255.0,-11.0,0
1397,2.0,-252.0,-10.0,0
1398,5.0,-253.0,-7.0,0
1399,4.0,-257.0,-15.0,0
1400,7.0,-252.0,-13.0,0
1401,5.0,-257.0,-11.0,0
1402,4.0,-252.0,-9.0,0
1403,6.0,-251.0,-14.0,0
1404,5.0,-251.0,-15.0,0
1405,3.0,-250.0,-13.0,0
1406,2.0,-249.0,-15.0,0
1407,5.0,-249.0,-13.0,0
1408,-1.0,-247.0,-7.0,0
1409,3.0,-248.0,-13.0,0
1410,-6.0,-249.0,-12.0,0
1411,5.0,-251.0,-17.0,0
1412,4.0,-249.0,-11.0,0
1413,7.0,-253.0,-13.0,0
1414,5.0,-249.0,-12.0,0
1415,5.0,-252.0,-11.0,0
1416,3.0,-255.0,-14.0,0
1417,4.0,-255.0,-15.0,0
1418,4.0,-249.0,-9.0,0
1419,7.0,-251.0,-15.0,0
1420,5.0,-244.0,-18.0,0
1421,6.0,-252.0,-14.0,0
1422,6.0,-251.0,-13.0,0
1423,4.0,-250.0,-12.0,0
1424,8.0,-251.0,-12.0,0
1425,6.0,-250.0,-11.0,0
1426,6.0,-251.0,-10.0,0
1427,4.0,-254.0,-10.0,0
1428,8.0,-252.0,-14.0,0
1429,2.0,-253.0,-13.0,0
1430,4.0,-250.0,-11.0,0
1431,9.0,-265.0,4.0,0
1432,4.0,-251.0,-16.0,0
1433,3.0,-249.0,-14.0,0
1434,5.0,-253.0,-15.0,0
1435,4.0,-250.0,-15.0,0
1436,5.0,-253.0,-10.0,0
1437,3.0,-250.0,-18.0,0
1438,2.0,-249.0,-7.0,0
1439,6.0,-255.0,-6.0,0
1440,2.0,-251.0,-15.0,0
1441,8.0,-246.0,-15.0,0
1442,3.0,-247.0,-19.0,0
1443,4.0,-251.0,-10.0,0
1444,6.0,-251.0,-12.0,0
1445,5.0,-250.0,-14.0,0
1446,4.0,-253.0,-10.0,0
1447,4.0,-254.0,-11.0,0
1448,4.0,-254.0,-14.0,0
1449,5.0,-253.0,-12.0,0
1450,5.0,-253.0,-6.0,0
1451,5.0,-252.0,-13.0,0
1452,9.0,-251.0,-12.0,0
1453,16.0,-244.0,-28.0,0
1454,1.0,-249.0,-11.0,0
1455,2.0,-247.0,-14.0,0
1456,5.0,-251.0,-13.0,0
1457,4.0,-249.0,-11.0,0
1458,7.0,-251.0,-11.0,0
1459,6.0,-249.0,-11.0,0
1460,4.0,-251.0,-14.0,0
1461,6.0,-254.0,-11.0,0
1462,-1.0,-247.0,-13.0,0
1463,8.0,-250.0,-14.0,0
1464,15.0,-243.0,-20.0,0
1465,4.0,-249.0,-16.0,0
1466,4.0,-246.0,-14.0,0
1467,3.0,-250.0,-13.0,0
1468,5.0,-252.0,-14.0,0
1469,5.0,-253.0,-14.0,0
1470,5.0,-248.0,-11.0,0
1471,6.0,-253.0,-13.0,0
1472,4.0,-253.0,-12.0,0
1473,-2.0,-254.0,-7.0,0
1474,5.0,-247.0,-9.0,0
1475,20.0,-245.0,-12.0,0
1476,4.0,-252.0,-14.0,0
1477,3.0,-253.0,-14.0,0
1478,5.0,-251.0,-10.0,0
1479,5.0,-252.0,-14.0,0
1480,4.0,-253.0,-11.0,0
1481,4.0,-253.0,-12.0,0
1482,5.0,-253.0,-12.0,0
1483,6.0,-255.0,-11.0,0
1484,3.0,-254.0,-13.0,0
1485,9.0,-252.0,-10.0,0
1486,5.0,-256.0,-5.0,0
1487,5.0,-250.0,-12.0,0
1488,3.0,-249.0,-16.0,0
1489,5.0,-251.0,-15.0,0
1490,3.0,-248.0,-11.0,0
1491,2.0,-250.0,-15.0,0
1492,4.0,-250.0,-15.0,0
1493,3.0,-252.0,-13.0,0
1494,1.0,-252.0,-12.0,0
1495,2.0,-249.0,-13.0,0
1496,0.0,-249.0,-13.0,0
1497,19.0,-247.0,-29.0,0
1498,6.0,-251.0,-13.0,0
1499,3.0,-251.0,-12.0,0
1500,5.0,-251.0,-16.0,0
1501,3.0,-253.0,-13.0,0
1502,3.0,-251.0,-13.0,0
1503,3.0,-250.0,-12.0,0
1504,7.0,-252.0,-9.0,0
1505,0.0,-250.0,-12.0,0
1506,1.0,-249.0,-12.0,0
1507,5.0,-247.0,-10.0,0
1508,7.0,-249.0,-17.0,0
1509,14.0,-247.0,-28.0,0
1510,7.0,-241.0,-21.0,0
1511,3.0,-249.0,-20.0,0
1512,5.0,-249.0,-13.0,0
1513,5.0,-248.0,-20.0,0
1514,4.0,-252.0,-14.0,0
1515,1.0,-249.0,-16.0,0
1516,7.0,-248.0,-18.0,0
1517,6.0,-250.0,-21.0,0
1518,5.0,-251.0,-18.0,0
1519,0.0,-252.0,-11.0,0
1520,2.0,-251.0,-19.0,0
1521,5.0,-251.0,-15.0,0
1522,5.0,-253.0,-19.0,0
1523,6.0,-249.0,-15.0,0
1524,7.0,-250.0,-19.0,0
1525,1.0,-243.0,-17.0,0
1526,6.0,-247.0,-19.0,0
1527,2.0,-247.0,-18.0,0
1528,-3.0,-252.0,-22.0,0
1529,8.0,-259.0,-5.0,0
1530,5.0,-251.0,-22.0,0
1531,2.0,-250.0,-19.0,0
1532,1.0,-249.0,-21.0,0
1533,3.0,-251.0,-19.0,0
1534,6.0,-253.0,-19.0,0
1535,7.0,-251.0,-21.0,0
1536,4.0,-249.0,-23.0,0
1537,8.0,-249.0,-26.0,0
1538,6.0,-249.0,-17.0,0
1539,2.0,-242.0,-14.0,0
1540,23.0,-253.0,-24.0,0
1541,8.0,-252.0,-19.0,0
1542,8.0,-250.0,-20.0,0
1543,8.0,-250.0,-25.0,0
1544,8.0,-252.0,-20.0,0
1545,10.0,-251.0,-21.0,0
1546,6.0,-251.0,-23.0,0
1547,6.0,-251.0,-21.0,0
1548,7.0,-251.0,-27.0,0
1549,1.0,-249.0,-20.0,0
1550,3.0,-251.0,-23.0,0
1551,-8.0,-241.0,-32.0,0
1552,4.0,-248.0,-25.0,0
1553,5.0,-250.0,-25.0,0
1554,2.0,-249.0,-24.0,0
1555,0.0,-252.0,-27.0,0
1556,0.0,-250.0,-28.0,0
1557,1.0,-250.0,-24.0,0
1558,1.0,-253.0,-19.0,0
1559,0.0,-252.0,-21.0,0
1560,-3.0,-254.0,-24.0,0
1561,1.0,-251.0,-25.0,0
1562,12.0,-253.0,-22.0,0
1563,1.0,-250.0,-34.0,0
1564,1.0,-254.0,-29.0,0
1565,-3.0,-253.0,-25.0,0
1566,-1.0,-251.0,-28.0,0
1567,1.0,-254.0,-23.0,0
1568,-2.0,-255.0,-25.0,0
1569,-6.0,-254.0,-26.0,0
1570,-6.0,-248.0,-21.0,0
1571,-5.0,-251.0,-22.0,0
1572,-2.0,-250.0,-27.0,0
1573,6.0,-241.0,-35.0,0
1574,0.0,-245.0,-23.0,0
1575,-1.0,-244.0,-23.0,0
1576,1.0,-244.0,-21.0,0
1577,5.0,-244.0,-25.0,0
1578,8.0,-241.0,-27.0,0
1579,10.0,-239.0,-30.0,0
1580,11.0,-244.0,-27.0,0
1581,11.0,-244.0,-25.0,0
1582,8.0,-243.0,-31.0,0
1583,7.0,-246.0,-26.0,0
1584,6.0,-247.0,-22.0,0
1585,4.0,-244.0,-31.0,0
1586,1.0,-247.0,-31.0,0
1587,-1.0,-248.0,-30.0,0
1588,-2.0,-249.0,-36.0,0
1589,-2.0,-251.0,-37.0,0
1590,-6.0,-250.0,-38.0,0
1591,-6.0,-254.0,-39.0,0
1592,-11.0,-253.0,-45.0,0
1593,-10.0,-250.0,-42.0,0
1594,-11.0,-252.0,-46.0,0
1595,-11.0,-252.0,-45.0,0
1596,-15.0,-249.0,-49.0,0
1597,-12.0,-248.0,-46.0,0
1598,-16.0,-245.0,-50.0,0
1599,-13.0,-248.0,-51.0,0
1600,-15.0,-248.0,-51.0,0
1601,-11.0,-246.0,-47.0,0
1602,-16.0,-247.0,-46.0,0
1603,-14.0,-241.0,-50.0,0
1604,-14.0,-246.0,-48.0,0
1605,-12.0,-243.0,-49.0,0
1606,-16.0,-256.0,-38.0,0
1607,-12.0,-244.0,-56.0,0
1608,-12.0,-245.0,-58.0,0
1609,-11.0,-246.0,-58.0,0
1610,-13.0,-247.0,-63.0,0
1611,-12.0,-251.0,-63.0,0
1612,-15.0,-246.0,-63.0,0
1613,-12.0,-245.0,-63.0,0
1614,-13.0,-246.0,-65.0,0
1615,-8.0,-248.0,-67.0,0
1616,-12.0,-248.0,-66.0,0
1617,-15.0,-255.0,-65.0,0
1618,-13.0,-251.0,-70.0,0
1619,-13.0,-254.0,-73.0,0
1620,-12.0,-251.0,-75.0,0
1621,-14.0,-250.0,-73.0,0
1622,-14.0,-253.0,-72.0,0
1623,-16.0,-256.0,-76.0,0
1624,-20.0,-257.0,-79.0,0
1625,-16.0,-258.0,-85.0,0
1626,-19.0,-255.0,-88.0,0
1627,-23.0,-250.0,-111.0,0
1628,-22.0,-253.0,-94.0,0
1629,-24.0,-249.0,-95.0,0
1630,-25.0,-247.0,-98.0,0
1631,-22.0,-247.0,-99.0,0
1632,-19.0,-242.0,-96.0,0
1633,-20.0,-237.0,-95.0,0
1634,-22.0,-232.0,-95.0,0
1635,-17.0,-231.0,-94.0,0
1636,-16.0,-234.0,-91.0,0
1637,-13.0,-232.0,-88.0,0
1638,-11.0,-227.0,-93.0,0
1639,-6.0,-241.0,-95.0,0
1640,-5.0,-242.0,-92.0,0
1641,-2.0,-247.0,-94.0,0
1642,4.0,-250.0,-95.0,0
1643,6.0,-254.0,-97.0,0
1644,7.0,-254.0,-101.0,0
1645,7.0,-256.0,-102.0,0
1646,10.0,-254.0,-112.0,0
1647,9.0,-254.0,-108.0,0
1648,5.0,-254.0,-108.0,0
1649,9.0,-253.0,-104.0,0
1650,-2.0,-251.0,-112.0,0
1651,-7.0,-251.0,-112.0,0
1652,-9.0,-255.0,-110.0,0
1653,-9.0,-255.0,-112.0,0
1654,-15.0,-253.0,-108.0,0
1655,-18.0,-251.0,-110.0,0
1656,-25.0,-249.0,-110.0,0
1657,-26.0,-249.0,-109.0,0
1658,-29.0,-248.0,-109.0,0
1659,-32.0,-250.0,-113.0,0
1660,-34.0,-272.0,-112.0,0
1661,-29.0,-256.0,-125.0,0
1662,-27.0,-261.0,-126.0,0
1663,-24.0,-264.0,-127.0,0
1664,-24.0,-270.0,-129.0,0
1665,-22.0,-272.0,-137.0,0
1666,-21.0,-274.0,-133.0,0
1667,-19.0,-276.0,-132.0,0
1668,-17.0,-274.0,-136.0,0
1669,-20.0,-272.0,-136.0,0
1670,-24.0,-274.0,-139.0,0
1671,-18.0,-272.0,-160.0,0
1672,-27.0,-274.0,-139.0,0
1673,-30.0,-272.0,-138.0,0
1674,-35.0,-272.0,-138.0,0
1675,-32.0,-268.0,-138.0,0
1676,-33.0,-267.0,-134.0,0
1677,-32.0,-266.0,-140.0,0
1678,-33.0,-262.0,-141.0,0
1679,-30.0,-262.0,-141.0,0
1680,-32.0,-263.0,-133.0,0
1681,-31.0,-256.0,-139.0,0
1682,-12.0,-261.0,-141.0,0
1683,-32.0,-255.0,-147.0,0
1684,-29.0,-254.0,-148.0,0
1685,-30.0,-253.0,-151.0,0
1686,-31.0,-255.0,-148.0,0
1687,-33.0,-255.0,-150.0,0
1688,-34.0,-254.0,-154.0,0
1689,-35.0,-251.0,-150.0,0
1690,-37.0,-250.0,-154.0,0
1691,-39.0,-251.0,-154.0,0
1692,-40.0,-242.0,-169.0,0
1693,-43.0,-243.0,-158.0,0
1694,-43.0,-241.0,-156.0,0
1695,-44.0,-238.0,-159.0,0
1696,-45.0,-238.0,-161.0,0
1697,-44.0,-232.0,-161.0,0
1698,-40.0,-235.0,-163.0,0
1699,-39.0,-236.0,-162.0,0
1700,-41.0,-238.0,-158.0,0
1701,-42.0,-238.0,-163.0,0
1702,-41.0,-235.0,-160.0,0
1703,-27.0,-225.0,-166.0,0
1704,-36.0,-231.0,-163.0,0
1705,-41.0,-232.0,-164.0,0
1706,-37.0,-233.0,-161.0,0
1707,-36.0,-233.0,-162.0,0
1708,-39.0,-231.0,-159.0,0
1709,-39.0,-228.0,-159.0,0
1710,-40.0,-229.0,-155.0,0
1711,-40.0,-227.0,-163.0,0
1712,-36.0,-231.0,-159.0,0
1713,-43.0,-232.0,-160.0,0
1714,-34.0,-238.0,-163.0,0
1715,-43.0,-233.0,-160.0,0
1716,-43.0,-232.0,-164.0,0
1717,-43.0,-232.0,-164.0,0
1718,-44.0,-232.0,-168.0,0
1719,-45.0,-232.0,-167.0,0
1720,-40.0,-232.0,-168.0,0
1721,-45.0,-237.0,-164.0,0
1722,-41.0,-232.0,-164.0,0
1723,-45.0,-230.0,-163.0,0
1724,-44.0,-230.0,-162.0,0
1725,-50.0,-221.0,-165.0,0
1726,-44.0,-227.0,-157.0,0
1727,-42.0,-225.0,-162.0,0
1728,-40.0,-224.0,-157.0,0
1729,-39.0,-226.0,-155.0,0
1730,-41.0,-222.0,-156.0,0
1731,-40.0,-221.0,-152.0,0
1732,-41.0,-224.0,-152.0,0
1733,-40.0,-221.0,-159.0,0
1734,-39.0,-221.0,-155.0,0
1735,-33.0,-226.0,-157.0,0
1736,-51.0,-220.0,-154.0,0
1737,-35.0,-223.0,-153.0,0
1738,-37.0,-224.0,-150.0,0
1739,-37.0,-227.0,-152.0,0
1740,-34.0,-225.0,-155.0,0
1741,-37.0,-224.0,-152.0,0
1742,-36.0,-227.0,-151.0,0
1743,-37.0,-227.0,-153.0,0
1744,-38.0,-220.0,-155.0,0
1745,-39.0,-220.0,-151.0,0
1746,-40.0,-226.0,-150.0,0
1747,-33.0,-232.0,-146.0,0
1748,-44.0,-223.0,-144.0,0
1749,-43.0,-219.0,-146.0,0
1750,-46.0,-219.0,-144.0,0
1751,-45.0,-218.0,-141.0,0
1752,-46.0,-215.0,-141.0,0
1753,-45.0,-218.0,-144.0,0
1754,-44.0,-217.0,-143.0,0
1755,-47.0,-218.0,-142.0,0
1756,-47.0,-217.0,-145.0,0
1757,-58.0,-218.0,-147.0,0
1758,-51.0,-217.0,-136.0,0
1759,-45.0,-212.0,-140.0,0
1760,-45.0,-217.0,-141.0,0
1761,-45.0,-219.0,-138.0,0
1762,-44.0,-218.0,-138.0,0
1763,-43.0,-220.0,-139.0,0
1764,-43.0,-217.0,-136.0,0
1765,-43.0,-217.0,-138.0,0
1766,-44.0,-214.0,-136.0,0
1767,-38.0,-217.0,-136.0,0
1768,-42.0,-214.0,-132.0,0
1769,-39.0,-216.0,-110.0,0
1770,-43.0,-216.0,-128.0,0
1771,-42.0,-215.0,-129.0,0
1772,-41.0,-215.0,-133.0,0
1773,-39.0,-215.0,-127.0,0
1774,-37.0,-215.0,-128.0,0
1775,-37.0,-212.0,-127.0,0
1776,-33.0,-219.0,-130.0,0
1777,-31.0,-219.0,-130.0,0
1778,-34.0,-221.0,-128.0,0
1779,-30.0,-234.0,-126.0,0
1780,-25.0,-230.0,-125.0,0
1781,-35.0,-232.0,-125.0,0
1782,-36.0,-232.0,-127.0,0
1783,-44.0,-230.0,-124.0,0
1784,-39.0,-232.0,-125.0,0
1785,-41.0,-226.0,-121.0,0
1786,-43.0,-229.0,-125.0,0
1787,-46.0,-226.0,-124.0,0
1788,-43.0,-225.0,-121.0,0
1789,-38.0,-220.0,-122.0,0
1790,-27.0,-232.0,-100.0,0
1791,-37.0,-217.0,-119.0,0
1792,-37.0,-214.0,-116.0,0
1793,-36.0,-211.0,-120.0,0
1794,-34.0,-213.0,-118.0,0
1795,-32.0,-213.0,-118.0,0
1796,-33.0,-213.0,-119.0,0
1797,-32.0,-212.0,-119.0,0
1798,-29.0,-215.0,-118.0,0
1799,-24.0,-215.0,-119.0,0
1800,-23.0,-218.0,-112.0,0
1801,-13.0,-214.0,-118.0,0
1802,-18.0,-219.0,-118.0,0
1803,-16.0,-220.0,-117.0,0
1804,-16.0,-216.0,-114.0,0
1805,-18.0,-219.0,-115.0,0
1806,-18.0,-222.0,-116.0,0
1807,-16.0,-225.0,-116.0,0
1808,-14.0,-221.0,-112.0,0
1809,-14.0,-224.0,-105.0,0
1810,-15.0,-223.0,-106.0,0
1811,-9.0,-221.0,-105.0,0
1812,-13.0,-221.0,-110.0,0
1813,-10.0,-225.0,-111.0,0
1814,-12.0,-217.0,-111.0,0
1815,-10.0,-215.0,-111.0,0
1816,-10.0,-216.0,-113.0,0
1817,-9.0,-213.0,-109.0,0
1818,-8.0,-212.0,-111.0,0
1819,-7.0,-215.0,-103.0,0
1820,-10.0,-209.0,-104.0,0
1821,-13.0,-211.0,-101.0,0
1822,-10.0,-213.0,-98.0,0
1823,-12.0,-215.0,-95.0,0
1824,-14.0,-207.0,-101.0,0
1825,-14.0,-205.0,-99.0,0
1826,-16.0,-204.0,-100.0,0
1827,-16.0,-206.0,-105.0,0
1828,-16.0,-199.0,-95.0,0
1829,-19.0,-204.0,-100.0,0
1830,-21.0,-207.0,-97.0,0
1831,-19.0,-203.0,-95.0,0
1832,-19.0,-204.0,-95.0,0
1833,-16.0,-203.0,-98.0,0
1834,-26.0,-206.0,-96.0,0
1835,-15.0,-205.0,-90.0,0
1836,-4.0,-211.0,-99.0,0
1837,-3.0,-208.0,-96.0,0
1838,-3.0,-212.0,-96.0,0
1839,-3.0,-211.0,-97.0,0
1840,1.0,-213.0,-97.0,0
1841,3.0,-215.0,-98.0,0
1842,7.0,-216.0,-101.0,0
1843,7.0,-211.0,-98.0,0
1844,10.0,-210.0,-101.0,0
1845,17.0,-204.0,-101.0,0
1846,3.0,-207.0,-103.0,0
1847,-2.0,-209.0,-106.0,0
1848,-3.0,-206.0,-98.0,0
1849,-4.0,-209.0,-99.0,0
1850,-3.0,-210.0,-99.0,0
1851,-8.0,-210.0,-96.0,0
1852,-8.0,-212.0,-91.0,0
1853,-10.0,-216.0,-100.0,0
1854,-8.0,-210.0,-96.0,0
1855,-5.0,-217.0,-93.0,0
1856,-11.0,-213.0,-96.0,0
1857,-3.0,-216.0,-98.0,0
1858,-6.0,-219.0,-98.0,0
1859,-4.0,-220.0,-98.0,0
1860,-3.0,-220.0,-93.0,0
1861,-6.0,-220.0,-93.0,0
1862,-4.0,-218.0,-96.0,0
1863,0.0,-214.0,-94.0,0
1864,0.0,-221.0,-95.0,0
1865,-2.0,-220.0,-92.0,0
1866,-3.0,-221.0,-103.0,0
1867,-11.0,-228.0,-99.0,0
1868,-3.0,-219.0,-94.0,0
1869,1.0,-224.0,-95.0,0
1870,2.0,-224.0,-100.0,0
1871,5.0,-225.0,-93.0,0
1872,8.0,-226.0,-98.0,0
1873,6.0,-229.0,-96.0,0
1874,6.0,-233.0,-91.0,0
1875,14.0,-230.0,-90.0,0
1876,9.0,-228.0,-93.0,0
1877,14.0,-233.0,-90.0,0
1878,17.0,-244.0,-80.0,0
1879,17.0,-236.0,-88.0,0
1880,15.0,-235.0,-90.0,0
1881,15.0,-235.0,-83.0,0
1882,10.0,-238.0,-86.0,0
1883,8.0,-232.0,-80.0,0
1884,10.0,-232.0,-78.0,0
1885,-3.0,-237.0,-75.0,0
1886,-4.0,-232.0,-75.0,0
1887,-3.0,-237.0,-70.0,0
1888,-14.0,-218.0,-79.0,0
1889,-2.0,-237.0,-68.0,0
1890,-7.0,-235.0,-64.0,0
1891,-9.0,-235.0,-68.0,0
1892,-7.0,-236.0,-71.0,0
1893,-7.0,-239.0,-76.0,0
1894,-8.0,-237.0,-74.0,0
1895,-9.0,-241.0,-73.0,0
1896,-7.0,-239.0,-73.0,0
1897,-2.0,-243.0,-72.0,0
1898,-1.0,-245.0,-79.0,0
1899,-3.0,-246.0,-73.0,0
1900,5.0,-249.0,-69.0,0
1901,11.0,-250.0,-71.0,0
1902,11.0,-250.0,-76.0,0
1903,10.0,-248.0,-75.0,0
1904,13.0,-250.0,-63.0,0
1905,11.0,-239.0,-64.0,0
1906,15.0,-238.0,-66.0,0
1907,13.0,-240.0,-62.0,0
1908,17.0,-234.0,-63.0,0
1909,15.0,-229.0,-63.0,0
1910,25.0,-246.0,-68.0,0
1911,19.0,-235.0,-60.0,0
1912,19.0,-235.0,-58.0,0
1913,21.0,-234.0,-58.0,0
1914,19.0,-233.0,-56.0,0
1915,16.0,-235.0,-58.0,0
1916,18.0,-240.0,-61.0,0
1917,20.0,-244.0,-59.0,0
1918,20.0,-249.0,-61.0,0
1919,18.0,-261.0,-64.0,0
1920,17.0,-254.0,-60.0,0
1921,17.0,-252.0,-75.0,0
1922,16.0,-257.0,-64.0,0
1923,19.0,-257.0,-65.0,0
1924,15.0,-256.0,-66.0,0
1925,15.0,-258.0,-60.0,0
1926,9.0,-256.0,-61.0,0
1927,8.0,-256.0,-60.0,0
1928,1.0,-248.0,-59.0,0
1929,4.0,-245.0,-56.0,0
1930,-3.0,-247.0,-61.0,0
1931,3.0,-247.0,-44.0,0
1932,-6.0,-246.0,-37.0,0
1933,-4.0,-234.0,-50.0,0
1934,-8.0,-231.0,-53.0,0
1935,-3.0,-236.0,-51.0,0
1936,-5.0,-238.0,-46.0,0
1937,-3.0,-239.0,-45.0,0
1938,-8.0,-243.0,-43.0,0
1939,-5.0,-247.0,-41.0,0
1940,-1.0,-247.0,-47.0,0
1941,-4.0,-250.0,-47.0,0
1942,-5.0,-251.0,-44.0,0
1943,-2.0,-250.0,-48.0,0
1944,0.0,-254.0,-52.0,0
1945,-1.0,-252.0,-56.0,0
1946,-4.0,-252.0,-53.0,0
1947,-1.0,-247.0,-54.0,0
1948,-3.0,-243.0,-57.0,0
1949,-4.0,-260.0,-72.0,0
1950,-2.0,-247.0,-51.0,0
1951,-3.0,-237.0,-52.0,0
1952,0.0,-231.0,-60.0,0
1953,1.0,-234.0,-62.0,0
1954,-3.0,-229.0,-93.0,0
1955,4.0,-233.0,-62.0,0
1956,5.0,-236.0,-62.0,0
1957,8.0,-242.0,-59.0,0
1958,9.0,-245.0,-53.0,0
1959,8.0,-248.0,-54.0,0
1960,10.0,-253.0,-52.0,0
1961,8.0,-257.0,-45.0,0
1962,8.0,-259.0,-54.0,0
1963,2.0,-257.0,-49.0,0
1964,4.0,-256.0,-53.0,0
1965,6.0,-255.0,-43.0,0
1966,3.0,-255.0,-54.0,0
1967,-1.0,-252.0,-48.0,0
1968,-1.0,-252.0,-52.0,0
1969,-3.0,-245.0,-46.0,0
1970,-1.0,-244.0,-49.0,0
1971,-5.0,-241.0,-48.0,0
1972,-3.0,-241.0,-52.0,0
1973,-1.0,-236.0,-52.0,0
1974,-4.0,-240.0,-52.0,0
1975,-3.0,-239.0,-50.0,0
1976,8.0,-232.0,-69.0,0
1977,1.0,-240.0,-51.0,0
1978,2.0,-240.0,-56.0,0
1979,6.0,-245.0,-56.0,0
1980,5.0,-247.0,-54.0,0
1981,8.0,-251.0,-53.0,0
1982,9.0,-255.0,-56.0,0
1983,7.0,-255.0,-47.0,0
1984,7.0,-256.0,-45.0,0
1985,4.0,-253.0,-47.0,0
1986,-9.0,-248.0,-56.0,0
1987,7.0,-252.0,-47.0,0
1988,9.0,-255.0,-47.0,0
1989,5.0,-255.0,-51.0,0
1990,3.0,-249.0,-47.0,0
1991,3.0,-253.0,-43.0,0
1992,0.0,-248.0,-45.0,0
1993,-1.0,-251.0,-44.0,0
1994,1.0,-252.0,-44.0,0
1995,1.0,-255.0,-46.0,0
1996,4.0,-256.0,-48.0,0
1997,3.0,-261.0,-45.0,0
1998,2.0,-256.0,-41.0,0
1999,4.0,-256.0,-42.0,0
2000,8.0,-256.0,-41.0,0
2001,7.0,-258.0,-36.0,0
2002,7.0,-254.0,-39.0,0
2003,7.0,-255.0,-41.0,0
2004,6.0,-253.0,-44.0,0
2005,11.0,-251.0,-41.0,0
2006,7.0,-250.0,-45.0,0
2007,9.0,-252.0,-34.0,0
2008,-1.0,-248.0,-44.0,0
2009,5.0,-248.0,-37.0,0
2010,6.0,-249.0,-35.0,0
2011,6.0,-251.0,-36.0,0
2012,3.0,-250.0,-33.0,0
2013,0.0,-245.0,-36.0,0
2014,1.0,-249.0,-33.0,0
2015,1.0,-249.0,-32.0,0
2016,1.0,-249.0,-35.0,0
2017,5.0,-250.0,-36.0,0
2018,4.0,-248.0,-33.0,0
2019,2.0,-241.0,-34.0,0
2020,1.0,-254.0,-32.0,0
2021,3.0,-256.0,-31.0,0
2022,1.0,-254.0,-38.0,0
2023,1.0,-255.0,-36.0,0
2024,3.0,-256.0,-33.0,0
2025,0.0,-257.0,-40.0,0
2026,-1.0,-260.0,-34.0,0
2027,1.0,-256.0,-35.0,0
2028,1.0,-260.0,-40.0,0
2029,1.0,-258.0,-38.0,0
2030,-3.0,-253.0,-43.0,0
2031,-1.0,-256.0,-41.0,0
2032,0.0,-254.0,-39.0,0
2033,-1.0,-252.0,-39.0,0
2034,3.0,-253.0,-40.0,0
2035,3.0,-249.0,-35.0,0
2036,3.0,-246.0,-37.0,0
2037,6.0,-247.0,-35.0,0
2038,3.0,-250.0,-31.0,0
2039,3.0,-253.0,-36.0,0
2040,4.0,-250.0,-36.0,0
2041,9.0,-252.0,-35.0,0
2042,7.0,-251.0,-35.0,0
2043,7.0,-253.0,-36.0,0
2044,6.0,-251.0,-38.0,0
2045,5.0,-251.0,-41.0,0
2046,5.0,-250.0,-43.0,0
2047,4.0,-250.0,-39.0,0
2048,3.0,-250.0,-37.0,0
2049,5.0,-252.0,-32.0,0
2050,1.0,-252.0,-30.0,0
2051,0.0,-250.0,-38.0,0
2052,-4.0,-257.0,-21.0,0
2053,1.0,-245.0,-30.0,0
2054,0.0,-248.0,-34.0,0
2055,-1.0,-246.0,-31.0,0
2056,3.0,-246.0,-32.0,0
2057,4.0,-248.0,-31.0,0
2058,4.0,-248.0,-30.0,0
2059,2.0,-250.0,-31.0,0
2060,7.0,-249.0,-32.0,0
2061,6.0,-250.0,-34.0,0
2062,3.0,-252.0,-34.0,0
2063,12.0,-248.0,-43.0,0
2064,3.0,-252.0,-36.0,0
2065,6.0,-252.0,-37.0,0
2066,4.0,-251.0,-33.0,0
2067,2.0,-254.0,-37.0,0
2068,2.0,-252.0,-43.0,0
2069,3.0,-255.0,-42.0,0
2070,5.0,-254.0,-33.0,0
2071,4.0,-255.0,-37.0,0
2072,2.0,-252.0,-39.0,0
2073,5.0,-255.0,-40.0,0
2074,8.0,-255.0,-51.0,0
2075,3.0,-256.0,-39.0,0
2076,5.0,-250.0,-38.0,0
2077,5.0,-253.0,-35.0,0
2078,6.0,-250.0,-37.0,0
2079,5.0,-250.0,-36.0,0
2080,8.0,-254.0,-36.0,0
2081,6.0,-249.0,-30.0,0
2082,5.0,-253.0,-36.0,0
2083,2.0,-257.0,-35.0,0
2084,12.0,-254.0,-31.0,0
2085,8.0,-250.0,-34.0,0
2086,8.0,-251.0,-34.0,0
2087,9.0,-249.0,-37.0,0
2088,11.0,-248.0,-35.0,0
2089,8.0,-251.0,-36.0,0
2090,13.0,-251.0,-38.0,0
2091,11.0,-253.0,-34.0,0
2092,14.0,-250.0,-38.0,0
2093,9.0,-254.0,-40.0,0
2094,6.0,-255.0,-35.0,0
2095,11.0,-254.0,-33.0,0
2096,8.0,-250.0,-41.0,0
2097,7.0,-246.0,-37.0,0
2098,3.0,-254.0,-35.0,0
2099,1.0,-253.0,-36.0,0
2100,4.0,-253.0,-44.0,0
2101,3.0,-251.0,-38.0,0
2102,6.0,-254.0,-34.0,0
2103,10.0,-252.0,-33.0,0
2104,8.0,-253.0,-32.0,0
2105,8.0,-252.0,-34.0,0
2106,5.0,-252.0,-33.0,0
2107,10.0,-250.0,-30.0,0
2108,9.0,-250.0,-31.0,0
2109,3.0,-249.0,-32.0,0
2110,1.0,-243.0,-33.0,0
2111,7.0,-251.0,-27.0,0
2112,6.0,-247.0,-33.0,0
2113,3.0,-249.0,-32.0,0
2114,5.0,-250.0,-33.0,0
2115,7.0,-250.0,-37.0,0
2116,0.0,-249.0,-36.0,0
2117,3.0,-248.0,-30.0,0
2118,3.0,-251.0,-29.0,0
2119,6.0,-250.0,-34.0,0
2120,0.0,-252.0,-32.0,0
2121,5.0,-250.0,-32.0,0
2122,3.0,-253.0,-34.0,0
2123,8.0,-254.0,-28.0,0
2124,3.0,-252.0,-33.0,0
2125,19.0,-251.0,-32.0,0
2126,14.0,-245.0,-30.0,0
2127,3.0,-251.0,-38.0,0
2128,4.0,-252.0,-29.0,0
2129,2.0,-254.0,-29.0,0
2130,6.0,-250.0,-36.0,0
2131,2.0,-246.0,-22.0,0
2132,3.0,-251.0,-38.0,0
2133,-7.0,-250.0,-33.0,0
2134,3.0,-252.0,-32.0,0
2135,2.0,-250.0,-32.0,0
2136,7.0,-248.0,-34.0,0
2137,7.0,-242.0,-44.0,0
2138,14.0,-254.0,-28.0,0
2139,8.0,-251.0,-35.0,0
2140,7.0,-253.0,-33.0,0
2141,6.0,-251.0,-32.0,0
2142,7.0,-254.0,-32.0,0
2143,9.0,-238.0,-43.0,0
2144,5.0,-254.0,-32.0,0
2145,6.0,-250.0,-32.0,0
2146,8.0,-254.0,-31.0,0
2147,7.0,-250.0,-34.0,0
2148,18.0,-233.0,-58.0,0
2149,5.0,-253.0,-35.0,0
2150,7.0,-251.0,-29.0,0
2151,3.0,-248.0,-31.0,0
2152,6.0,-252.0,-32.0,0
2153,5.0,-248.0,-24.0,0
2154,6.0,-251.0,-33.0,0
2155,7.0,-252.0,-32.0,0
2156,1.0,-251.0,-32.0,0
2157,1.0,-252.0,-32.0,0
2158,1.0,-250.0,-34.0,0
2159,2.0,-254.0,-30.0,0
2160,5.0,-254.0,-29.0,0
2161,2.0,-234.0,-45.0,0
2162,4.0,-252.0,-32.0,0
2163,2.0,-253.0,-31.0,0
2164,1.0,-254.0,-31.0,0
2165,5.0,-250.0,-35.0,0
2166,5.0,-255.0,-33.0,0
2167,4.0,-251.0,-30.0,0
2168,3.0,-249.0,-36.0,0
2169,4.0,-251.0,-29.0,0
2170,3.0,-252.0,-31.0,0
2171,5.0,-251.0,-34.0,0
2172,8.0,-260.0,-29.0,0
2173,6.0,-253.0,-32.0,0
2174,4.0,-251.0,-30.0,0
2175,4.0,-251.0,-35.0,0
2176,4.0,-253.0,-31.0,0
2177,7.0,-251.0,-33.0,0
2178,4.0,-252.0,-33.0,0
2179,8.0,-249.0,-31.0,0
2180,7.0,-255.0,-29.0,0
2181,10.0,-256.0,-33.0,0
2182,10.0,-251.0,-30.0,0
2183,-6.0,-258.0,-23.0,0
2184,9.0,-255.0,-36.0,0
2185,5.0,-253.0,-32.0,0
2186,7.0,-254.0,-36.0,0
2187,8.0,-251.0,-36.0,0
2188,9.0,-249.0,-34.0,0
2189,10.0,-250.0,-33.0,0
2190,7.0,-255.0,-27.0,0
2191,6.0,-252.0,-36.0,0
2192,8.0,-251.0,-26.0,0
2193,5.0,-236.0,-43.0,0
2194,9.0,-249.0,-31.0,0
2195,7.0,-249.0,-28.0,0
2196,6.0,-249.0,-30.0,0
2197,8.0,-252.0,-30.0,0
2198,8.0,-249.0,-32.0,0
2199,6.0,-248.0,-35.0,0
2200,12.0,-251.0,-32.0,0
2201,10.0,-252.0,-31.0,0
2202,7.0,-251.0,-32.0,0
2203,9.0,-252.0,-32.0,0
2204,10.0,-248.0,-46.0,0
2205,8.0,-249.0,-32.0,0
2206,9.0,-252.0,-32.0,0
2207,10.0,-254.0,-33.0,0
2208,8.0,-254.0,-34.0,0
2209,9.0,-253.0,-34.0,0
2210,10.0,-250.0,-30.0,0
2211,7.0,-248.0,-31.0,0
2212,9.0,-249.0,-32.0,0
2213,10.0,-250.0,-35.0,0
2214,5.0,-250.0,-32.0,0
2215,20.0,-273.0,-13.0,0
2216,5.0,-250.0,-29.0,0
2217,5.0,-250.0,-32.0,0
2218,7.0,-255.0,-31.0,0
2219,5.0,-251.0,-34.0,0
2220,5.0,-251.0,-30.0,0
2221,4.0,-250.0,-30.0,0
2222,6.0,-251.0,-32.0,0
2223,9.0,-253.0,-31.0,0
2224,11.0,-251.0,-34.0,0
2225,9.0,-249.0,-35.0,0
2226,2.0,-249.0,-29.0,0
2227,6.0,-249.0,-30.0,0
2228,7.0,-251.0,-31.0,0
2229,8.0,-250.0,-34.0,0
2230,9.0,-250.0,-33.0,0
2231,6.0,-251.0,-35.0,0
2232,10.0,-250.0,-34.0,0
2233,6.0,-254.0,-34.0,0
2234,5.0,-250.0,-31.0,0
2235,6.0,-250.0,-36.0,0
2236,6.0,-251.0,-36.0,0
2237,20.0,-255.0,-15.0,0
2238,8.0,-255.0,-32.0,0
2239,4.0,-251.0,-32.0,0
2240,5.0,-254.0,-32.0,0
2241,5.0,-252.0,-31.0,0
2242,5.0,-250.0,-30.0,0
2243,5.0,-253.0,-34.0,0
2244,1.0,-250.0,-30.0,0
2245,7.0,-254.0,-34.0,0
2246,3.0,-251.0,-30.0,0
2247,3.0,-255.0,-31.0,0
2248,2.0,-259.0,-28.0,0
2249,3.0,-251.0,-32.0,0
2250,4.0,-250.0,-33.0,0
2251,-1.0,-250.0,-34.0,0
2252,3.0,-255.0,-33.0,0
2253,3.0,-248.0,-33.0,0
2254,4.0,-251.0,-37.0,0
2255,7.0,-253.0,-35.0,0
2256,5.0,-251.0,-36.0,0
2257,6.0,-253.0,-36.0,0
2258,12.0,-252.0,-33.0,0
2259,5.0,-252.0,-33.0,0
2260,4.0,-250.0,-39.0,0
2261,8.0,-255.0,-35.0,0
2262,3.0,-255.0,-34.0,0
2263,8.0,-254.0,-34.0,0
2264,5.0,-256.0,-33.0,0
2265,6.0,-256.0,-35.0,0
2266,10.0,-256.0,-35.0,0
2267,2.0,-255.0,-36.0,0
2268,6.0,-253.0,-35.0,0
2269,6.0,-252.0,-34.0,0
2270,-6.0,-253.0,-33.0,0
2271,7.0,-252.0,-38.0,0
2272,6.0,-252.0,-33.0,0
2273,5.0,-251.0,-37.0,0
2274,4.0,-252.0,-36.0,0
2275,6.0,-249.0,-32.0,0
2276,8.0,-247.0,-35.0,0
2277,8.0,-247.0,-34.0,0
2278,4.0,-245.0,-36.0,0
2279,6.0,-249.0,-34.0,0
2280,8.0,-250.0,-37.0,0
2281,19.0,-236.0,-43.0,0
2282,9.0,-251.0,-29.0,0
2283,8.0,-249.0,-33.0,0
2284,6.0,-250.0,-30.0,0
2285,6.0,-251.0,-29.0,0
2286,6.0,-251.0,-34.0,0
2287,3.0,-249.0,-37.0,0
2288,6.0,-250.0,-38.0,0
2289,11.0,-250.0,-37.0,0
2290,5.0,-249.0,-36.0,0
2291,2.0,-253.0,-34.0,0
2292,9.0,-254.0,-36.0,0
2293,6.0,-251.0,-36.0,0
2294,5.0,-251.0,-37.0,0
2295,5.0,-254.0,-36.0,0
2296,6.0,-250.0,-33.0,0
2297,7.0,-253.0,-36.0,0
2298,8.0,-251.0,-31.0,0
2299,5.0,-251.0,-39.0,0
2300,4.0,-246.0,-37.0,0
2301,5.0,-247.0,-38.0,0
2302,6.0,-237.0,-42.0,0
2303,6.0,-250.0,-34.0,0
2304,0.0,-248.0,-36.0,0
2305,6.0,-253.0,-33.0,0
2306,3.0,-253.0,-34.0,0
2307,4.0,-252.0,-35.0,0
2308,5.0,-252.0,-35.0,0
2309,4.0,-250.0,-34.0,0
2310,5.0,-254.0,-36.0,0
2311,5.0,-249.0,-39.0,0
2312,1.0,-249.0,-43.0,0
2313,7.0,-235.0,-52.0,0
2314,5.0,-253.0,-38.0,0
2315,5.0,-252.0,-39.0,0
2316,7.0,-255.0,-35.0,0
2317,5.0,-252.0,-37.0,0
2318,4.0,-255.0,-36.0,0
2319,5.0,-252.0,-36.0,0
2320,6.0,-253.0,-41.0,0
2321,7.0,-247.0,-37.0,0
2322,3.0,-252.0,-36.0,0
2323,9.0,-252.0,-37.0,0
2324,5.0,-259.0,-41.0,0
2325,6.0,-254.0,-37.0,0
2326,8.0,-256.0,-39.0,0
2327,3.0,-248.0,-36.0,0
2328,5.0,-250.0,-40.0,0
2329,5.0,-252.0,-41.0,0
2330,6.0,-252.0,-42.0,0
2331,5.0,-251.0,-43.0,0
2332,5.0,-247.0,-38.0,0
2333,6.0,-249.0,-43.0,0
2334,8.0,-248.0,-43.0,0
2335,-4.0,-247.0,-39.0,0
2336,5.0,-251.0,-36.0,0
2337,6.0,-251.0,-39.0,0
2338,6.0,-249.0,-40.0,0
2339,6.0,-249.0,-34.0,0
2340,5.0,-250.0,-38.0,0
2341,6.0,-253.0,-34.0,0
2342,4.0,-250.0,-36.0,0
2343,4.0,-252.0,-35.0,0
2344,6.0,-248.0,-29.0,0
2345,3.0,-251.0,-35.0,0
2346,5.0,-241.0,-38.0,0
2347,3.0,-251.0,-39.0,0
2348,5.0,-251.0,-36.0,0
2349,4.0,-254.0,-35.0,0
2350,5.0,-251.0,-35.0,0
2351,3.0,-252.0,-34.0,0
2352,5.0,-253.0,-37.0,0
2353,2.0,-249.0,-38.0,0
2354,1.0,-251.0,-38.0,0
2355,6.0,-250.0,-37.0,0
2356,2.0,-247.0,-40.0,0
2357,0.0,-242.0,-43.0,0
2358,6.0,-250.0,-38.0,0
2359,5.0,-249.0,-39.0,0
2360,4.0,-250.0,-36.0,0
2361,4.0,-251.0,-38.0,0
2362,5.0,-253.0,-39.0,0
2363,4.0,-252.0,-37.0,0
2364,3.0,-252.0,-37.0,0
2365,9.0,-249.0,-34.0,0
2366,6.0,-253.0,-35.0,0
2367,1.0,-250.0,-38.0,0
2368,-7.0,-252.0,-41.0,0
2369,3.0,-252.0,-35.0,0
2370,1.0,-251.0,-35.0,0
2371,4.0,-250.0,-40.0,0
2372,4.0,-250.0,-37.0,0
2373,3.0,-251.0,-36.0,0
2374,3.0,-249.0,-39.0,0
2375,5.0,-254.0,-34.0,0
2376,1.0,-251.0,-39.0,0
2377,4.0,-251.0,-37.0,0
2378,3.0,-251.0,-35.0,0
2379,8.0,-246.0,-40.0,0
2380,4.0,-253.0,-39.0,0
2381,4.0,-250.0,-36.0,0
2382,4.0,-251.0,-38.0,0
2383,3.0,-253.0,-35.0,0
2384,6.0,-251.0,-38.0,0
2385,4.0,-249.0,-34.0,0
2386,5.0,-251.0,-39.0,0
2387,6.0,-255.0,-37.0,0
2388,4.0,-251.0,-37.0,0
2389,6.0,-255.0,-35.0,0
2390,6.0,-252.0,-38.0,0
2391,5.0,-252.0,-40.0,0
2392,3.0,-251.0,-36.0,0
2393,5.0,-249.0,-41.0,0
2394,3.0,-250.0,-36.0,0
2395,6.0,-252.0,-38.0,0
2396,4.0,-251.0,-39.0,0
2397,8.0,-249.0,-41.0,0
2398,4.0,-249.0,-37.0,0
2399,2.0,-254.0,-33.0,0
