,accelerometer_x,accelerometer_y,accelerometer_z,fall
0,5.0,-254.0,-14.0,0
1,6.0,-255.0,-13.0,0
2,7.0,-258.0,-10.0,0
3,10.0,-255.0,-10.0,0
4,5.0,-256.0,-12.0,0
5,13.0,-256.0,-3.0,0
6,8.0,-256.0,-14.0,0
7,7.0,-258.0,-9.0,0
8,6.0,-255.0,-10.0,0
9,7.0,-258.0,-10.0,0
10,6.0,-255.0,-13.0,0
11,5.0,-256.0,-9.0,0
12,8.0,-258.0,-9.0,0
13,7.0,-252.0,-11.0,0
14,8.0,-257.0,-14.0,0
15,12.0,-252.0,-15.0,0
16,4.0,-257.0,-14.0,0
17,5.0,-257.0,-13.0,0
18,4.0,-256.0,-12.0,0
19,5.0,-258.0,-11.0,0
20,6.0,-256.0,-11.0,0
21,5.0,-257.0,-12.0,0
22,5.0,-260.0,-11.0,0
23,3.0,-256.0,-9.0,0
24,3.0,-257.0,-10.0,0
25,5.0,-258.0,-12.0,0
26,5.0,-256.0,-13.0,0
27,7.0,-256.0,-12.0,0
28,5.0,-255.0,-6.0,0
29,4.0,-257.0,-13.0,0
30,5.0,-253.0,-15.0,0
31,5.0,-256.0,-11.0,0
32,5.0,-255.0,-14.0,0
33,5.0,-256.0,-8.0,0
34,3.0,-252.0,-8.0,0
35,7.0,-254.0,-11.0,0
36,5.0,-257.0,-6.0,0
37,8.0,-258.0,-5.0,0
38,4.0,-255.0,-9.0,0
39,6.0,-254.0,-7.0,0
40,3.0,-255.0,-11.0,0
41,7.0,-257.0,-10.0,0
42,7.0,-251.0,-10.0,0
43,2.0,-253.0,-9.0,0
44,4.0,-257.0,-10.0,0
45,5.0,-254.0,-9.0,0
46,5.0,-256.0,-12.0,0
47,2.0,-257.0,-8.0,0
48,4.0,-257.0,-10.0,0
49,5.0,-255.0,-10.0,0
50,4.0,-258.0,-10.0,0
51,3.0,-258.0,-13.0,0
52,5.0,-257.0,-12.0,0
53,4.0,-259.0,-10.0,0
54,4.0,-262.0,-6.0,0
55,2.0,-259.0,-13.0,0
56,5.0,-259.0,-8.0,0
57,3.0,-258.0,-7.0,0
58,3.0,-258.0,-9.0,0
59,10.0,-256.0,-9.0,0
60,2.0,-254.0,-11.0,0
61,2.0,-252.0,-11.0,0
62,4.0,-253.0,-10.0,0
63,4.0,-256.0,-7.0,0
64,2.0,-253.0,-11.0,0
65,4.0,-256.0,-7.0,0
66,4.0,-257.0,-6.0,0
67,3.0,-257.0,-13.0,0
68,4.0,-257.0,-6.0,0
69,1.0,-256.0,-7.0,0
70,4.0,-257.0,-11.0,0
71,5.0,-260.0,-7.0,0
72,4.0,-254.0,-9.0,0
73,4.0,-258.0,-11.0,0
74,6.0,-259.0,-10.0,0
75,5.0,-257.0,-9.0,0
76,7.0,-256.0,-11.0,0
77,5.0,-259.0,-10.0,0
78,4.0,-257.0,-9.0,0
79,5.0,-259.0,-12.0,0
80,5.0,-258.0,-10.0,0
81,4.0,-256.0,-10.0,0
82,1.0,-257.0,-9.0,0
83,5.0,-260.0,-9.0,0
84,4.0,-257.0,-12.0,0
85,2.0,-256.0,-10.0,0
86,3.0,-256.0,-12.0,0
87,4.0,-257.0,-8.0,0
88,6.0,-253.0,-12.0,0
89,7.0,-256.0,-15.0,0
90,7.0,-253.0,-12.0,0
91,3.0,-255.0,-13.0,0
92,7.0,-257.0,-10.0,0
93,7.0,-254.0,-9.0,0
94,3.0,-256.0,-8.0,0
95,2.0,-257.0,-7.0,0
96,6.0,-257.0,-7.0,0
97,3.0,-259.0,-4.0,0
98,3.0,-259.0,-6.0,0
99,5.0,-259.0,-10.0,0
100,3.0,-257.0,-7.0,0
101,1.0,-255.0,-10.0,0
102,-1.0,-256.0,-12.0,0
103,3.0,-255.0,-7.0,0
104,5.0,-253.0,-8.0,0
105,2.0,-254.0,-10.0,0
106,5.0,-256.0,-7.0,0
107,3.0,-252.0,-8.0,0
108,3.0,-257.0,-3.0,0
109,2.0,-254.0,-5.0,0
110,2.0,-253.0,-9.0,0
111,5.0,-257.0,-9.0,0
112,3.0,-254.0,-4.0,0
113,1.0,-257.0,-6.0,0
114,5.0,-256.0,-8.0,0
115,3.0,-256.0,-4.0,0
116,4.0,-256.0,-8.0,0
117,2.0,-253.0,-6.0,0
118,5.0,-256.0,-8.0,0
119,2.0,-253.0,-5.0,0
120,4.0,-256.0,-7.0,0
121,3.0,-254.0,-6.0,0
122,7.0,-257.0,-5.0,0
123,4.0,-254.0,-7.0,0
124,12.0,-254.0,-4.0,0
125,1.0,-254.0,-9.0,0
126,2.0,-252.0,-6.0,0
127,5.0,-256.0,-9.0,0
128,5.0,-258.0,-5.0,0
129,3.0,-256.0,-8.0,0
130,5.0,-256.0,-10.0,0
131,6.0,-260.0,-9.0,0
132,5.0,-257.0,-6.0,0
133,3.0,-256.0,-9.0,0
134,4.0,-256.0,-10.0,0
135,2.0,-254.0,-6.0,0
136,5.0,-254.0,-6.0,0
137,5.0,-255.0,-5.0,0
138,4.0,-253.0,-8.0,0
139,5.0,-258.0,-4.0,0
140,5.0,-257.0,-5.0,0
141,5.0,-258.0,-8.0,0
142,5.0,-256.0,-8.0,0
143,3.0,-257.0,-5.0,0
144,4.0,-260.0,-10.0,0
145,4.0,-256.0,-5.0,0
146,5.0,-264.0,2.0,0
147,3.0,-257.0,-9.0,0
148,4.0,-257.0,-6.0,0
149,7.0,-257.0,-5.0,0
150,6.0,-258.0,-9.0,0
151,4.0,-257.0,-7.0,0
152,6.0,-253.0,-5.0,0
153,5.0,-254.0,-5.0,0
154,4.0,-255.0,-2.0,0
155,6.0,-260.0,-5.0,0
156,4.0,-255.0,-5.0,0
157,2.0,-253.0,-5.0,0
158,4.0,-258.0,-4.0,0
159,6.0,-253.0,-9.0,0
160,8.0,-252.0,-7.0,0
161,4.0,-255.0,-8.0,0
162,6.0,-252.0,-5.0,0
163,5.0,-256.0,-8.0,0
164,4.0,-255.0,-4.0,0
165,5.0,-255.0,-3.0,0
166,4.0,-254.0,-7.0,0
167,4.0,-256.0,-6.0,0
168,1.0,-258.0,-3.0,0
169,5.0,-256.0,-4.0,0
170,4.0,-255.0,-4.0,0
171,8.0,-257.0,-5.0,0
172,4.0,-254.0,-4.0,0
173,5.0,-255.0,-5.0,0
174,3.0,-257.0,-4.0,0
175,4.0,-252.0,-6.0,0
176,3.0,-254.0,-6.0,0
177,7.0,-258.0,-6.0,0
178,6.0,-260.0,-9.0,0
179,4.0,-256.0,-7.0,0
180,5.0,-262.0,-6.0,0
181,7.0,-259.0,-7.0,0
182,5.0,-259.0,-8.0,0
183,5.0,-257.0,-11.0,0
184,8.0,-256.0,-9.0,0
185,8.0,-258.0,-6.0,0
186,7.0,-260.0,-9.0,0
187,5.0,-258.0,-8.0,0
188,7.0,-255.0,-6.0,0
189,5.0,-266.0,-3.0,0
190,4.0,-258.0,-11.0,0
191,5.0,-256.0,-4.0,0
192,5.0,-256.0,-4.0,0
193,2.0,-256.0,-5.0,0
194,2.0,-256.0,-6.0,0
195,4.0,-257.0,-6.0,0
196,4.0,-255.0,-5.0,0
197,5.0,-253.0,-6.0,0
198,7.0,-258.0,-10.0,0
199,8.0,-254.0,-4.0,0
200,4.0,-254.0,-6.0,0
201,7.0,-257.0,-8.0,0
202,4.0,-252.0,-7.0,0
203,5.0,-253.0,-9.0,0
204,4.0,-255.0,-6.0,0
205,6.0,-257.0,-8.0,0
206,5.0,-258.0,-7.0,0
207,5.0,-255.0,-11.0,0
208,3.0,-256.0,-6.0,0
209,3.0,-258.0,-6.0,0
210,4.0,-257.0,-11.0,0
211,7.0,-259.0,1.0,0
212,3.0,-256.0,-10.0,0
213,1.0,-256.0,-5.0,0
214,5.0,-256.0,-3.0,0
215,2.0,-255.0,-3.0,0
216,4.0,-257.0,-7.0,0
217,5.0,-259.0,-6.0,0
218,4.0,-257.0,-7.0,0
219,4.0,-258.0,-9.0,0
220,4.0,-259.0,-1.0,0
221,8.0,-257.0,-3.0,0
222,4.0,-259.0,-7.0,0
223,5.0,-254.0,-6.0,0
224,4.0,-255.0,-5.0,0
225,4.0,-255.0,-8.0,0
226,2.0,-255.0,-9.0,0
227,8.0,-254.0,-7.0,0
228,4.0,-255.0,-9.0,0
229,6.0,-258.0,-7.0,0
230,4.0,-255.0,-7.0,0
231,5.0,-255.0,-5.0,0
232,4.0,-258.0,-5.0,0
233,11.0,-258.0,-4.0,0
234,2.0,-257.0,-7.0,0
235,2.0,-256.0,-8.0,0
236,4.0,-255.0,-9.0,0
237,1.0,-255.0,-8.0,0
238,3.0,-255.0,-6.0,0
239,5.0,-255.0,-11.0,0
240,3.0,-256.0,-7.0,0
241,6.0,-255.0,-8.0,0
242,7.0,-255.0,-8.0,0
243,2.0,-253.0,-9.0,0
244,6.0,-254.0,-4.0,0
245,5.0,-253.0,-7.0,0
246,8.0,-257.0,-6.0,0
247,3.0,-257.0,-6.0,0
248,5.0,-255.0,-7.0,0
249,3.0,-259.0,-4.0,0
250,5.0,-257.0,-4.0,0
251,5.0,-258.0,-7.0,0
252,6.0,-258.0,-5.0,0
253,5.0,-256.0,-6.0,0
254,11.0,-261.0,-2.0,0
255,4.0,-255.0,-7.0,0
256,5.0,-257.0,-6.0,0
257,5.0,-256.0,-4.0,0
258,4.0,-255.0,-5.0,0
259,5.0,-255.0,-4.0,0
260,2.0,-255.0,-4.0,0
261,3.0,-256.0,-6.0,0
262,5.0,-257.0,-3.0,0
263,4.0,-255.0,-6.0,0
264,4.0,-256.0,-5.0,0
265,3.0,-257.0,-7.0,0
266,6.0,-257.0,-7.0,0
267,6.0,-258.0,-9.0,0
268,8.0,-256.0,-7.0,0
269,3.0,-254.0,-4.0,0
270,8.0,-258.0,-9.0,0
271,5.0,-256.0,-8.0,0
272,4.0,-258.0,-6.0,0
273,4.0,-255.0,-8.0,0
274,4.0,-254.0,-9.0,0
275,2.0,-254.0,-10.0,0
276,3.0,-257.0,-5.0,0
277,4.0,-255.0,-8.0,0
278,5.0,-257.0,-9.0,0
279,4.0,-254.0,-7.0,0
280,3.0,-257.0,-6.0,0
281,5.0,-255.0,-5.0,0
282,6.0,-255.0,-5.0,0
283,5.0,-257.0,-3.0,0
284,4.0,-255.0,-3.0,0
285,6.0,-257.0,-4.0,0
286,5.0,-258.0,-5.0,0
287,4.0,-254.0,-7.0,0
288,6.0,-256.0,-5.0,0
289,7.0,-256.0,-8.0,0
290,6.0,-261.0,-8.0,0
291,4.0,-254.0,-5.0,0
292,3.0,-254.0,-7.0,0
293,4.0,-256.0,-6.0,0
294,6.0,-254.0,-4.0,0
295,3.0,-256.0,-4.0,0
296,4.0,-256.0,-7.0,0
297,6.0,-255.0,-3.0,0
298,5.0,-255.0,-7.0,0
299,7.0,-256.0,-10.0,0
300,5.0,-254.0,-5.0,0
301,8.0,-255.0,-6.0,0
302,6.0,-254.0,-10.0,0
303,6.0,-254.0,-4.0,0
304,6.0,-254.0,-7.0,0
305,3.0,-252.0,-7.0,0
306,5.0,-255.0,-8.0,0
307,3.0,-254.0,-12.0,0
308,3.0,-255.0,-5.0,0
309,3.0,-257.0,-7.0,0
310,5.0,-255.0,-7.0,0
311,5.0,-257.0,-10.0,0
312,4.0,-254.0,-7.0,0
313,3.0,-256.0,-8.0,0
314,8.0,-255.0,-6.0,0
315,4.0,-255.0,-6.0,0
316,5.0,-254.0,-5.0,0
317,4.0,-256.0,-5.0,0
318,3.0,-254.0,-7.0,0
319,6.0,-258.0,-6.0,0
320,5.0,-259.0,-2.0,0
321,3.0,-258.0,-7.0,0
322,7.0,-256.0,-4.0,0
323,6.0,-256.0,-2.0,0
324,4.0,-252.0,-4.0,0
325,3.0,-257.0,-3.0,0
326,3.0,-255.0,-7.0,0
327,2.0,-255.0,-7.0,0
328,7.0,-257.0,-7.0,0
329,4.0,-257.0,-6.0,0
330,7.0,-257.0,-7.0,0
331,4.0,-258.0,-7.0,0
332,6.0,-256.0,-3.0,0
333,5.0,-255.0,-8.0,0
334,7.0,-256.0,-5.0,0
335,5.0,-259.0,-5.0,0
336,6.0,-255.0,-2.0,0
337,5.0,-256.0,-6.0,0
338,5.0,-254.0,-7.0,0
339,6.0,-258.0,-10.0,0
340,2.0,-256.0,-7.0,0
341,4.0,-257.0,-3.0,0
342,4.0,-253.0,-3.0,0
343,6.0,-256.0,-11.0,0
344,7.0,-258.0,-11.0,0
345,5.0,-259.0,-7.0,0
346,1.0,-253.0,-7.0,0
347,5.0,-261.0,-3.0,0
348,2.0,-260.0,-7.0,0
349,5.0,-257.0,-6.0,0
350,4.0,-254.0,-3.0,0
351,6.0,-256.0,-3.0,0
352,4.0,-254.0,-5.0,0
353,3.0,-257.0,-4.0,0
354,5.0,-255.0,-5.0,0
355,7.0,-254.0,-6.0,0
356,4.0,-253.0,-3.0,0
357,5.0,-253.0,-8.0,0
358,5.0,-258.0,-6.0,0
359,3.0,-258.0,-3.0,0
360,5.0,-258.0,-5.0,0
361,5.0,-256.0,-2.0,0
362,10.0,-257.0,-3.0,0
363,3.0,-256.0,-6.0,0
364,5.0,-257.0,-5.0,0
365,4.0,-258.0,-5.0,0
366,6.0,-258.0,-6.0,0
367,6.0,-255.0,-6.0,0
368,3.0,-255.0,-3.0,0
369,4.0,-256.0,-4.0,0
370,5.0,-256.0,-1.0,0
371,6.0,-256.0,-5.0,0
372,3.0,-254.0,2.0,0
373,4.0,-255.0,-8.0,0
374,6.0,-257.0,0.0,0
375,7.0,-256.0,-5.0,0
376,7.0,-256.0,-3.0,0
377,4.0,-253.0,-3.0,0
378,5.0,-254.0,-6.0,0
379,6.0,-256.0,-4.0,0
380,3.0,-259.0,-5.0,0
381,4.0,-259.0,-9.0,0
382,3.0,-258.0,-4.0,0
383,3.0,-256.0,-3.0,0
384,4.0,-258.0,-4.0,0
385,2.0,-257.0,-11.0,0
386,4.0,-257.0,-6.0,0
387,6.0,-256.0,-6.0,0
388,5.0,-257.0,-5.0,0
389,7.0,-255.0,-8.0,0
390,5.0,-254.0,-5.0,0
391,2.0,-255.0,-4.0,0
392,6.0,-258.0,-7.0,0
393,5.0,-257.0,-6.0,0
394,6.0,-253.0,-6.0,0
395,5.0,-254.0,-5.0,0
396,6.0,-254.0,-4.0,0
397,4.0,-255.0,-6.0,0
398,4.0,-258.0,-5.0,0
399,3.0,-255.0,-1.0,0
400,5.0,-257.0,-6.0,0
401,2.0,-253.0,-4.0,0
402,4.0,-260.0,-3.0,0
403,3.0,-257.0,-3.0,0
404,6.0,-259.0,-1.0,0
405,2.0,-256.0,-3.0,0
406,2.0,-254.0,0.0,0
407,2.0,-253.0,-1.0,0
408,3.0,-254.0,-2.0,0
409,5.0,-256.0,-1.0,0
410,6.0,-253.0,-4.0,0
411,4.0,-256.0,-1.0,0
412,4.0,-257.0,-5.0,0
413,5.0,-255.0,-2.0,0
414,8.0,-257.0,-2.0,0
415,4.0,-259.0,-3.0,0
416,7.0,-258.0,-5.0,0
417,4.0,-256.0,2.0,0
418,6.0,-254.0,1.0,0
419,4.0,-256.0,-2.0,0
420,5.0,-258.0,-1.0,0
421,6.0,-253.0,-2.0,0
422,5.0,-256.0,-1.0,0
423,6.0,-257.0,1.0,0
424,5.0,-254.0,-1.0,0
425,5.0,-257.0,2.0,0
426,3.0,-256.0,-4.0,0
427,5.0,-257.0,-2.0,0
428,3.0,-257.0,-2.0,0
429,11.0,-253.0,-2.0,0
430,3.0,-255.0,-1.0,0
431,2.0,-253.0,0.0,0
432,1.0,-255.0,-2.0,0
433,3.0,-253.0,-1.0,0
434,4.0,-254.0,-3.0,0
435,7.0,-254.0,0.0,0
436,8.0,-257.0,-1.0,0
437,6.0,-256.0,-1.0,0
438,8.0,-255.0,0.0,0
439,9.0,-256.0,-1.0,0
440,6.0,-258.0,0.0,0
441,7.0,-256.0,1.0,0
442,5.0,-256.0,1.0,0
443,4.0,-260.0,4.0,0
444,3.0,-257.0,2.0,0
445,5.0,-255.0,1.0,0
446,5.0,-257.0,1.0,0
447,4.0,-254.0,6.0,0
448,3.0,-254.0,1.0,0
449,2.0,-255.0,-2.0,0
450,6.0,-251.0,-8.0,0
451,2.0,-253.0,1.0,0
452,6.0,-257.0,0.0,0
453,5.0,-254.0,2.0,0
454,1.0,-255.0,-3.0,0
455,5.0,-254.0,-2.0,0
456,7.0,-257.0,0.0,0
457,4.0,-257.0,1.0,0
458,2.0,-255.0,2.0,0
459,5.0,-259.0,0.0,0
460,6.0,-256.0,-1.0,0
461,5.0,-254.0,-1.0,0
462,4.0,-256.0,-1.0,0
463,6.0,-254.0,-7.0,0
464,7.0,-257.0,-5.0,0
465,3.0,-258.0,-2.0,0
466,6.0,-256.0,2.0,0
467,4.0,-258.0,-3.0,0
468,6.0,-255.0,-2.0,0
469,5.0,-255.0,-2.0,0
470,3.0,-256.0,-5.0,0
471,4.0,-259.0,0.0,0
472,11.0,-256.0,2.0,0
473,3.0,-254.0,1.0,0
474,4.0,-256.0,-3.0,0
475,5.0,-257.0,1.0,0
476,6.0,-254.0,-3.0,0
477,4.0,-254.0,-1.0,0
478,4.0,-253.0,-1.0,0
479,6.0,-256.0,2.0,0
480,6.0,-254.0,1.0,0
481,3.0,-253.0,-6.0,0
482,4.0,-252.0,-1.0,0
483,3.0,-257.0,-2.0,0
484,4.0,-257.0,1.0,0
485,2.0,-255.0,0.0,0
486,5.0,-260.0,0.0,0
487,3.0,-254.0,1.0,0
488,4.0,-256.0,-2.0,0
489,5.0,-257.0,-2.0,0
490,3.0,-255.0,-1.0,0
491,5.0,-257.0,0.0,0
492,4.0,-257.0,0.0,0
493,2.0,-255.0,1.0,0
494,14.0,-252.0,-9.0,0
495,0.0,-250.0,-1.0,0
496,3.0,-254.0,-5.0,0
497,3.0,-256.0,0.0,0
498,3.0,-254.0,-6.0,0
499,3.0,-256.0,-1.0,0
500,4.0,-260.0,-3.0,0
501,2.0,-257.0,-1.0,0
502,5.0,-255.0,-2.0,0
503,3.0,-259.0,-2.0,0
504,4.0,-258.0,-2.0,0
505,6.0,-257.0,-4.0,0
506,6.0,-258.0,0.0,0
507,6.0,-258.0,-2.0,0
508,6.0,-258.0,-3.0,0
509,3.0,-258.0,-3.0,0
510,6.0,-256.0,-3.0,0
511,2.0,-256.0,-8.0,0
512,6.0,-257.0,0.0,0
513,3.0,-256.0,-2.0,0
514,1.0,-255.0,-1.0,0
515,3.0,-257.0,-2.0,0
516,3.0,-259.0,-8.0,0
517,1.0,-257.0,-2.0,0
518,6.0,-258.0,0.0,0
519,1.0,-256.0,-2.0,0
520,2.0,-254.0,-3.0,0
521,5.0,-257.0,-5.0,0
522,5.0,-258.0,0.0,0
523,3.0,-255.0,-4.0,0
524,5.0,-259.0,-3.0,0
525,3.0,-256.0,-3.0,0
526,4.0,-257.0,-7.0,0
527,5.0,-254.0,-4.0,0
528,3.0,-254.0,-4.0,0
529,4.0,-254.0,-3.0,0
530,4.0,-254.0,-2.0,0
531,1.0,-255.0,1.0,0
532,5.0,-256.0,-3.0,0
533,7.0,-256.0,-2.0,0
534,4.0,-256.0,-2.0,0
535,5.0,-253.0,-5.0,0
536,6.0,-256.0,-4.0,0
537,11.0,-256.0,-6.0,0
538,5.0,-257.0,-6.0,0
539,6.0,-260.0,-5.0,0
540,5.0,-256.0,-2.0,0
541,4.0,-258.0,0.0,0
542,5.0,-255.0,2.0,0
543,4.0,-252.0,0.0,0
544,5.0,-255.0,-5.0,0
545,3.0,-253.0,-3.0,0
546,7.0,-253.0,-5.0,0
547,4.0,-255.0,-2.0,0
548,6.0,-254.0,-5.0,0
549,5.0,-258.0,-3.0,0
550,4.0,-256.0,-3.0,0
551,4.0,-255.0,-2.0,0
552,5.0,-257.0,0.0,0
553,4.0,-255.0,-1.0,0
554,4.0,-255.0,-3.0,0
555,4.0,-255.0,1.0,0
556,5.0,-255.0,-5.0,0
557,3.0,-253.0,-1.0,0
558,2.0,-257.0,-4.0,0
559,12.0,-252.0,-5.0,0
560,7.0,-256.0,-7.0,0
561,4.0,-255.0,-6.0,0
562,4.0,-257.0,-7.0,0
563,5.0,-256.0,-7.0,0
564,4.0,-257.0,-3.0,0
565,6.0,-254.0,-5.0,0
566,5.0,-257.0,-2.0,0
567,4.0,-256.0,-1.0,0
568,4.0,-257.0,-2.0,0
569,3.0,-259.0,-4.0,0
570,4.0,-258.0,-3.0,0
571,1.0,-256.0,-5.0,0
572,8.0,-256.0,-3.0,0
573,4.0,-254.0,-2.0,0
574,3.0,-257.0,-3.0,0
575,3.0,-255.0,-1.0,0
576,6.0,-255.0,-5.0,0
577,6.0,-258.0,-7.0,0
578,2.0,-255.0,-4.0,0
579,3.0,-259.0,-5.0,0
580,4.0,-258.0,-4.0,0
581,2.0,-258.0,-2.0,0
582,3.0,-256.0,-5.0,0
583,5.0,-257.0,-1.0,0
584,5.0,-256.0,0.0,0
585,4.0,-257.0,-5.0,0
586,5.0,-254.0,-2.0,0
587,4.0,-257.0,-1.0,0
588,2.0,-255.0,-2.0,0
589,3.0,-256.0,-4.0,0
590,3.0,-255.0,-6.0,0
591,4.0,-253.0,-3.0,0
592,6.0,-260.0,-4.0,0
593,3.0,-256.0,-5.0,0
594,4.0,-259.0,-4.0,0
595,5.0,-260.0,-2.0,0
596,2.0,-258.0,-3.0,0
597,2.0,-257.0,0.0,0
598,5.0,-254.0,-4.0,0
599,5.0,-255.0,-5.0,0
600,4.0,-256.0,-4.0,0
601,5.0,-256.0,-5.0,0
602,4.0,-255.0,-6.0,0
603,13.0,-253.0,-13.0,0
604,5.0,-257.0,-4.0,0
605,5.0,-256.0,-2.0,0
606,4.0,-257.0,-6.0,0
607,4.0,-260.0,-8.0,0
608,3.0,-257.0,-4.0,0
609,1.0,-254.0,-2.0,0
610,5.0,-257.0,-3.0,0
611,6.0,-259.0,-5.0,0
612,2.0,-257.0,-2.0,0
613,3.0,-254.0,-6.0,0
614,6.0,-253.0,-3.0,0
615,3.0,-253.0,-1.0,0
616,4.0,-255.0,-4.0,0
617,8.0,-257.0,-5.0,0
618,6.0,-255.0,-5.0,0
619,6.0,-257.0,-4.0,0
620,2.0,-251.0,-9.0,0
621,6.0,-259.0,-9.0,0
622,4.0,-256.0,-4.0,0
623,3.0,-257.0,0.0,0
624,4.0,-260.0,-2.0,0
625,4.0,-257.0,-4.0,0
626,4.0,-255.0,-5.0,0
627,3.0,-255.0,-3.0,0
628,3.0,-254.0,-1.0,0
629,6.0,-256.0,-3.0,0
630,7.0,-257.0,-9.0,0
631,5.0,-256.0,-3.0,0
632,5.0,-255.0,-7.0,0
633,7.0,-258.0,-8.0,0
634,6.0,-256.0,-7.0,0
635,4.0,-257.0,-8.0,0
636,3.0,-253.0,-6.0,0
637,1.0,-254.0,-1.0,0
638,4.0,-255.0,-2.0,0
639,5.0,-256.0,-3.0,0
640,4.0,-257.0,-5.0,0
641,6.0,-259.0,-6.0,0
642,3.0,-255.0,-1.0,0
643,5.0,-255.0,-7.0,0
644,6.0,-254.0,-6.0,0
645,5.0,-254.0,-9.0,0
646,5.0,-258.0,-13.0,0
647,6.0,-255.0,-9.0,0
648,7.0,-257.0,-6.0,0
649,2.0,-253.0,-6.0,0
650,4.0,-257.0,-10.0,0
651,6.0,-256.0,-10.0,0
652,4.0,-255.0,-7.0,0
653,2.0,-255.0,-5.0,0
654,8.0,-258.0,-8.0,0
655,3.0,-260.0,-9.0,0
656,3.0,-255.0,-4.0,0
657,2.0,-255.0,-6.0,0
658,5.0,-256.0,-4.0,0
659,3.0,-257.0,-5.0,0
660,5.0,-256.0,-8.0,0
661,6.0,-259.0,-2.0,0
662,5.0,-255.0,-3.0,0
663,2.0,-256.0,-5.0,0
664,7.0,-259.0,-3.0,0
665,5.0,-260.0,-8.0,0
666,6.0,-256.0,-6.0,0
667,7.0,-254.0,-2.0,0
668,7.0,-251.0,-1.0,0
669,8.0,-255.0,-3.0,0
670,6.0,-256.0,-5.0,0
671,3.0,-255.0,-9.0,0
672,4.0,-258.0,-7.0,0
673,6.0,-255.0,-8.0,0
674,4.0,-255.0,-11.0,0
675,3.0,-258.0,-5.0,0
676,0.0,-256.0,-5.0,0
677,6.0,-258.0,-6.0,0
678,4.0,-255.0,-7.0,0
679,3.0,-255.0,-5.0,0
680,4.0,-252.0,-2.0,0
681,2.0,-256.0,-6.0,0
682,3.0,-255.0,-5.0,0
683,2.0,-256.0,-6.0,0
684,5.0,-256.0,-5.0,0
685,5.0,-256.0,-6.0,0
686,4.0,-256.0,-9.0,0
687,8.0,-257.0,-10.0,0
688,8.0,-255.0,-7.0,0
689,4.0,-254.0,-6.0,0
690,8.0,-253.0,0.0,0
691,6.0,-256.0,-7.0,0
692,3.0,-256.0,-10.0,0
693,3.0,-254.0,-5.0,0
694,4.0,-257.0,-7.0,0
695,2.0,-255.0,-1.0,0
696,4.0,-255.0,-9.0,0
697,7.0,-258.0,-5.0,0
698,5.0,-257.0,-7.0,0
699,3.0,-255.0,-6.0,0
700,5.0,-256.0,-12.0,0
701,4.0,-258.0,-7.0,0
702,3.0,-257.0,-8.0,0
703,3.0,-258.0,-8.0,0
704,5.0,-256.0,-9.0,0
705,3.0,-259.0,-9.0,0
706,6.0,-257.0,-10.0,0
707,6.0,-256.0,-11.0,0
708,6.0,-256.0,-13.0,0
709,3.0,-256.0,-15.0,0
710,3.0,-257.0,-15.0,0
711,5.0,-259.0,-15.0,0
712,4.0,-253.0,-17.0,0
713,6.0,-252.0,-15.0,0
714,5.0,-256.0,-15.0,0
715,2.0,-258.0,-19.0,0
716,5.0,-261.0,-19.0,0
717,4.0,-260.0,-20.0,0
718,5.0,-262.0,-22.0,0
719,3.0,-264.0,-20.0,0
720,2.0,-262.0,-22.0,0
721,0.0,-263.0,-20.0,0
722,4.0,-264.0,-26.0,0
723,3.0,-265.0,-30.0,0
724,3.0,-261.0,-29.0,0
725,5.0,-263.0,-34.0,0
726,2.0,-262.0,-36.0,0
727,3.0,-265.0,-35.0,0
728,0.0,-269.0,-35.0,0
729,0.0,-268.0,-35.0,0
730,1.0,-271.0,-34.0,0
731,2.0,-270.0,-30.0,0
732,6.0,-271.0,-29.0,0
733,-1.0,-270.0,-33.0,0
734,1.0,-264.0,-31.0,0
735,2.0,-264.0,-32.0,0
736,2.0,-259.0,-31.0,0
737,3.0,-258.0,-33.0,0
738,0.0,-255.0,-27.0,0
739,0.0,-251.0,-31.0,0
740,0.0,-256.0,-31.0,0
741,-3.0,-255.0,-28.0,0
742,0.0,-252.0,-30.0,0
743,1.0,-253.0,-30.0,0
744,2.0,-257.0,-28.0,0
745,2.0,-256.0,-30.0,0
746,2.0,-257.0,-26.0,0
747,2.0,-255.0,-29.0,0
748,2.0,-254.0,-21.0,0
749,0.0,-252.0,-27.0,0
750,2.0,-255.0,-22.0,0
751,4.0,-255.0,-24.0,0
752,2.0,-249.0,-30.0,0
753,4.0,-252.0,-29.0,0
754,6.0,-250.0,-25.0,0
755,1.0,-248.0,-26.0,0
756,1.0,-247.0,-20.0,0
757,5.0,-250.0,-21.0,0
758,1.0,-250.0,-24.0,0
759,3.0,-249.0,-17.0,0
760,2.0,-248.0,-19.0,0
761,4.0,-247.0,-17.0,0
762,1.0,-248.0,-14.0,0
763,3.0,-248.0,-15.0,0
764,5.0,-248.0,-6.0,0
765,2.0,-251.0,-13.0,0
766,4.0,-246.0,-7.0,0
767,5.0,-243.0,-2.0,0
768,5.0,-244.0,-5.0,0
769,7.0,-242.0,-9.0,0
770,7.0,-243.0,-8.0,0
771,6.0,-240.0,-6.0,0
772,8.0,-241.0,-10.0,0
773,11.0,-244.0,-8.0,0
774,9.0,-243.0,-10.0,0
775,10.0,-243.0,-7.0,0
776,9.0,-247.0,-12.0,0
777,8.0,-246.0,-10.0,0
778,5.0,-246.0,-13.0,0
779,7.0,-247.0,-14.0,0
780,6.0,-248.0,-11.0,0
781,3.0,-248.0,-13.0,0
782,6.0,-249.0,-8.0,0
783,5.0,-249.0,-10.0,0
784,6.0,-254.0,-10.0,0
785,3.0,-255.0,-10.0,0
786,5.0,-255.0,-4.0,0
787,6.0,-259.0,-3.0,0
788,5.0,-259.0,-7.0,0
789,4.0,-263.0,-1.0,0
790,5.0,-265.0,1.0,0
791,5.0,-263.0,-3.0,0
792,1.0,-260.0,0.0,0
793,0.0,-263.0,0.0,0
794,0.0,-256.0,-3.0,0
795,0.0,-258.0,-6.0,0
796,2.0,-255.0,-10.0,0
797,2.0,-252.0,-10.0,0
798,3.0,-247.0,-15.0,0
799,0.0,-249.0,-12.0,0
800,0.0,-247.0,-16.0,0
801,1.0,-246.0,-13.0,0
802,0.0,-246.0,-19.0,0
803,0.0,-246.0,-16.0,0
804,0.0,-245.0,-17.0,0
805,0.0,-244.0,-13.0,0
806,-2.0,-247.0,-13.0,0
807,0.0,-246.0,-10.0,0
808,-6.0,-246.0,-11.0,0
809,-6.0,-249.0,-12.0,0
810,-6.0,-252.0,-11.0,0
811,-7.0,-250.0,-13.0,0
812,-8.0,-253.0,-16.0,0
813,-11.0,-257.0,-14.0,0
814,-9.0,-258.0,-16.0,0
815,-9.0,-255.0,-17.0,0
816,-8.0,-257.0,-18.0,0
817,-10.0,-254.0,-20.0,0
818,-7.0,-255.0,-11.0,0
819,-7.0,-257.0,-14.0,0
820,-8.0,-265.0,-8.0,0
821,-4.0,-262.0,-9.0,0
822,-2.0,-263.0,-9.0,0
823,0.0,-265.0,-10.0,0
824,0.0,-267.0,-9.0,0
825,-2.0,-266.0,-13.0,0
826,0.0,-264.0,-16.0,0
827,3.0,-266.0,-15.0,0
828,3.0,-267.0,-17.0,0
829,5.0,-264.0,-18.0,0
830,4.0,-261.0,-18.0,0
831,3.0,-261.0,-19.0,0
832,4.0,-254.0,-21.0,0
833,4.0,-254.0,-20.0,0
834,1.0,-253.0,-19.0,0
835,2.0,-255.0,-20.0,0
836,4.0,-253.0,-19.0,0
837,1.0,-255.0,-23.0,0
838,0.0,-256.0,-19.0,0
839,3.0,-255.0,-21.0,0
840,0.0,-252.0,-29.0,0
841,0.0,-249.0,-22.0,0
842,0.0,-252.0,-27.0,0
843,5.0,-251.0,-28.0,0
844,4.0,-252.0,-38.0,0
845,0.0,-246.0,-40.0,0
846,1.0,-247.0,-44.0,0
847,1.0,-245.0,-44.0,0
848,1.0,-245.0,-42.0,0
849,1.0,-244.0,-43.0,0
850,0.0,-244.0,-40.0,0
851,-4.0,-240.0,-39.0,0
852,1.0,-243.0,-39.0,0
853,2.0,-244.0,-42.0,0
854,1.0,-247.0,-36.0,0
855,2.0,-248.0,-36.0,0
856,0.0,-249.0,-39.0,0
857,0.0,-253.0,-44.0,0
858,0.0,-251.0,-44.0,0
859,0.0,-252.0,-46.0,0
860,0.0,-251.0,-52.0,0
861,0.0,-248.0,-51.0,0
862,0.0,-249.0,-51.0,0
863,-3.0,-246.0,-65.0,0
864,-2.0,-244.0,-54.0,0
865,0.0,-242.0,-54.0,0
866,-1.0,-242.0,-54.0,0
867,0.0,-239.0,-58.0,0
868,0.0,-241.0,-55.0,0
869,0.0,-239.0,-54.0,0
870,0.0,-240.0,-52.0,0
871,0.0,-240.0,-50.0,0
872,1.0,-246.0,-51.0,0
873,2.0,-245.0,-46.0,0
874,2.0,-245.0,-53.0,0
875,3.0,-245.0,-52.0,0
876,3.0,-249.0,-54.0,0
877,4.0,-248.0,-58.0,0
878,0.0,-249.0,-56.0,0
879,4.0,-249.0,-60.0,0
880,0.0,-247.0,-63.0,0
881,1.0,-244.0,-64.0,0
882,3.0,-246.0,-66.0,0
883,0.0,-242.0,-71.0,0
884,0.0,-237.0,-69.0,0
885,-2.0,-243.0,-59.0,0
886,-2.0,-233.0,-68.0,0
887,0.0,-232.0,-70.0,0
888,-2.0,-230.0,-72.0,0
889,-2.0,-230.0,-70.0,0
890,0.0,-234.0,-70.0,0
891,-5.0,-230.0,-72.0,0
892,-4.0,-233.0,-72.0,0
893,-2.0,-233.0,-67.0,0
894,0.0,-235.0,-70.0,0
895,1.0,-238.0,-69.0,0
896,0.0,-238.0,-66.0,0
897,2.0,-242.0,-71.0,0
898,3.0,-242.0,-74.0,0
899,9.0,-243.0,-73.0,0
900,9.0,-245.0,-75.0,0
901,9.0,-246.0,-80.0,0
902,6.0,-242.0,-82.0,0
903,9.0,-242.0,-84.0,0
904,7.0,-239.0,-80.0,0
905,6.0,-239.0,-82.0,0
906,5.0,-228.0,-87.0,0
907,5.0,-233.0,-80.0,0
908,5.0,-228.0,-83.0,0
909,2.0,-230.0,-80.0,0
910,4.0,-227.0,-78.0,0
911,1.0,-226.0,-82.0,0
912,2.0,-227.0,-82.0,0
913,5.0,-228.0,-82.0,0
914,4.0,-230.0,-83.0,0
915,8.0,-230.0,-83.0,0
916,9.0,-231.0,-87.0,0
917,5.0,-233.0,-83.0,0
918,9.0,-236.0,-85.0,0
919,7.0,-230.0,-90.0,0
920,6.0,-232.0,-87.0,0
921,5.0,-232.0,-92.0,0
922,7.0,-233.0,-90.0,0
923,6.0,-229.0,-93.0,0
924,5.0,-226.0,-90.0,0
925,4.0,-220.0,-89.0,0
926,3.0,-220.0,-90.0,0
927,1.0,-217.0,-88.0,0
928,2.0,-224.0,-89.0,0
929,1.0,-213.0,-86.0,0
930,2.0,-216.0,-85.0,0
931,0.0,-214.0,-84.0,0
932,2.0,-211.0,-88.0,0
933,2.0,-214.0,-90.0,0
934,1.0,-216.0,-92.0,0
935,0.0,-216.0,-95.0,0
936,1.0,-217.0,-97.0,0
937,0.0,-215.0,-97.0,0
938,2.0,-220.0,-100.0,0
939,0.0,-219.0,-100.0,0
940,-2.0,-220.0,-101.0,0
941,0.0,-220.0,-100.0,0
942,0.0,-222.0,-97.0,0
943,1.0,-221.0,-96.0,0
944,0.0,-219.0,-93.0,0
945,2.0,-217.0,-90.0,0
946,4.0,-219.0,-94.0,0
947,4.0,-215.0,-94.0,0
948,6.0,-219.0,-87.0,0
949,4.0,-214.0,-91.0,0
950,3.0,-207.0,-91.0,0
951,10.0,-208.0,-94.0,0
952,7.0,-208.0,-96.0,0
953,9.0,-211.0,-92.0,0
954,7.0,-213.0,-97.0,0
955,8.0,-214.0,-99.0,0
956,4.0,-216.0,-100.0,0
957,3.0,-216.0,-101.0,0
958,1.0,-219.0,-104.0,0
959,0.0,-219.0,-103.0,0
960,-3.0,-219.0,-101.0,0
961,0.0,-219.0,-106.0,0
962,-2.0,-217.0,-103.0,0
963,-3.0,-219.0,-103.0,0
964,1.0,-219.0,-105.0,0
965,1.0,-219.0,-104.0,0
966,1.0,-218.0,-101.0,0
967,2.0,-220.0,-102.0,0
968,5.0,-220.0,-96.0,0
969,4.0,-220.0,-96.0,0
970,7.0,-220.0,-97.0,0
971,5.0,-220.0,-98.0,0
972,7.0,-220.0,-85.0,0
973,3.0,-217.0,-94.0,0
974,4.0,-216.0,-98.0,0
975,3.0,-215.0,-97.0,0
976,3.0,-213.0,-103.0,0
977,3.0,-216.0,-107.0,0
978,1.0,-213.0,-109.0,0
979,1.0,-216.0,-112.0,0
980,1.0,-216.0,-116.0,0
981,3.0,-220.0,-120.0,0
982,8.0,-219.0,-122.0,0
983,9.0,-224.0,-118.0,0
984,10.0,-223.0,-123.0,0
985,11.0,-222.0,-119.0,0
986,10.0,-226.0,-121.0,0
987,12.0,-230.0,-116.0,0
988,12.0,-228.0,-120.0,0
989,15.0,-229.0,-113.0,0
990,11.0,-227.0,-111.0,0
991,9.0,-227.0,-112.0,0
992,9.0,-226.0,-112.0,0
993,7.0,-227.0,-112.0,0
994,9.0,-226.0,-114.0,0
995,1.0,-220.0,-121.0,0
996,0.0,-217.0,-126.0,0
997,-5.0,-214.0,-128.0,0
998,-3.0,-213.0,-137.0,0
999,-1.0,-213.0,-138.0,0
1000,-2.0,-216.0,-144.0,0
1001,-1.0,-218.0,-143.0,0
1002,0.0,-218.0,-145.0,0
1003,2.0,-225.0,-148.0,0
1004,2.0,-224.0,-141.0,0
1005,8.0,-228.0,-144.0,0
1006,7.0,-228.0,-141.0,0
1007,9.0,-227.0,-136.0,0
1008,6.0,-226.0,-135.0,0
1009,9.0,-223.0,-132.0,0
1010,12.0,-218.0,-132.0,0
1011,11.0,-213.0,-135.0,0
1012,12.0,-207.0,-142.0,0
1013,9.0,-205.0,-140.0,0
1014,6.0,-204.0,-145.0,0
1015,5.0,-196.0,-142.0,0
1016,2.0,-201.0,-152.0,0
1017,1.0,-208.0,-152.0,0
1018,-1.0,-209.0,-151.0,0
1019,2.0,-212.0,-155.0,0
1020,-3.0,-218.0,-153.0,0
1021,-5.0,-220.0,-159.0,0
1022,-4.0,-226.0,-154.0,0
1023,-2.0,-230.0,-153.0,0
1024,0.0,-228.0,-160.0,0
1025,-1.0,-233.0,-153.0,0
1026,-1.0,-227.0,-159.0,0
1027,1.0,-227.0,-158.0,0
1028,4.0,-224.0,-156.0,0
1029,4.0,-222.0,-156.0,0
1030,3.0,-222.0,-158.0,0
1031,3.0,-219.0,-164.0,0
1032,2.0,-218.0,-159.0,0
1033,3.0,-216.0,-158.0,0
1034,2.0,-211.0,-162.0,0
1035,1.0,-206.0,-165.0,0
1036,4.0,-209.0,-163.0,0
1037,4.0,-213.0,-156.0,0
1038,5.0,-211.0,-165.0,0
1039,10.0,-214.0,-166.0,0
1040,12.0,-212.0,-162.0,0
1041,9.0,-216.0,-163.0,0
1042,14.0,-215.0,-162.0,0
1043,17.0,-218.0,-165.0,0
1044,19.0,-214.0,-164.0,0
1045,19.0,-210.0,-165.0,0
1046,19.0,-210.0,-164.0,0
1047,17.0,-211.0,-166.0,0
1048,13.0,-209.0,-171.0,0
1049,17.0,-205.0,-170.0,0
1050,12.0,-201.0,-173.0,0
1051,13.0,-207.0,-177.0,0
1052,10.0,-205.0,-182.0,0
1053,5.0,-213.0,-180.0,0
1054,3.0,-215.0,-182.0,0
1055,3.0,-215.0,-190.0,0
1056,1.0,-217.0,-192.0,0
1057,1.0,-225.0,-193.0,0
1058,1.0,-228.0,-186.0,0
1059,5.0,-233.0,-191.0,0
1060,11.0,-222.0,-174.0,0
1061,5.0,-226.0,-168.0,0
1062,6.0,-224.0,-166.0,0
1063,7.0,-216.0,-163.0,0
1064,8.0,-213.0,-158.0,0
1065,9.0,-211.0,-154.0,0
1066,6.0,-207.0,-151.0,0
1067,8.0,-200.0,-154.0,0
1068,7.0,-192.0,-154.0,0
1069,7.0,-189.0,-157.0,0
1070,5.0,-191.0,-158.0,0
1071,4.0,-193.0,-157.0,0
1072,1.0,-197.0,-157.0,0
1073,2.0,-201.0,-155.0,0
1074,2.0,-205.0,-156.0,0
1075,1.0,-206.0,-158.0,0
1076,3.0,-206.0,-156.0,0
1077,5.0,-212.0,-150.0,0
1078,3.0,-220.0,-148.0,0
1079,8.0,-224.0,-146.0,0
1080,2.0,-227.0,-146.0,0
1081,5.0,-230.0,-139.0,0
1082,8.0,-231.0,-148.0,0
1083,8.0,-232.0,-146.0,0
1084,13.0,-231.0,-148.0,0
1085,11.0,-226.0,-149.0,0
1086,18.0,-227.0,-148.0,0
1087,16.0,-223.0,-150.0,0
1088,17.0,-217.0,-155.0,0
1089,15.0,-218.0,-159.0,0
1090,15.0,-217.0,-157.0,0
1091,10.0,-216.0,-160.0,0
1092,7.0,-218.0,-159.0,0
1093,6.0,-217.0,-163.0,0
1094,4.0,-215.0,-162.0,0
1095,2.0,-214.0,-164.0,0
1096,3.0,-220.0,-165.0,0
1097,6.0,-220.0,-159.0,0
1098,5.0,-221.0,-163.0,0
1099,4.0,-217.0,-160.0,0
1100,5.0,-219.0,-160.0,0
1101,6.0,-220.0,-158.0,0
1102,8.0,-226.0,-158.0,0
1103,3.0,-227.0,-151.0,0
1104,3.0,-221.0,-153.0,0
1105,5.0,-225.0,-156.0,0
1106,4.0,-222.0,-154.0,0
1107,2.0,-226.0,-157.0,0
1108,6.0,-229.0,-159.0,0
1109,9.0,-233.0,-160.0,0
1110,9.0,-240.0,-168.0,0
1111,7.0,-236.0,-171.0,0
1112,5.0,-243.0,-176.0,0
1113,11.0,-249.0,-177.0,0
1114,12.0,-258.0,-181.0,0
1115,11.0,-263.0,-183.0,0
1116,9.0,-269.0,-179.0,0
1117,6.0,-269.0,-179.0,0
1118,4.0,-279.0,-175.0,0
1119,2.0,-282.0,-176.0,0
1120,1.0,-286.0,-176.0,0
1121,-3.0,-285.0,-180.0,0
1122,0.0,-289.0,-180.0,0
1123,0.0,-284.0,-181.0,0
1124,-6.0,-284.0,-172.0,0
1125,0.0,-288.0,-159.0,0
1126,0.0,-283.0,-150.0,0
1127,1.0,-276.0,-138.0,0
1128,2.0,-271.0,-135.0,0
1129,0.0,-270.0,-136.0,0
1130,-2.0,-263.0,-127.0,0
1131,1.0,-263.0,-125.0,0
1132,1.0,-262.0,-128.0,0
1133,1.0,-258.0,-124.0,0
1134,2.0,-256.0,-128.0,0
1135,2.0,-253.0,-130.0,0
1136,0.0,-250.0,-133.0,0
1137,-1.0,-249.0,-128.0,0
1138,-3.0,-251.0,-125.0,0
1139,0.0,-246.0,-121.0,0
1140,-1.0,-243.0,-120.0,0
1141,-2.0,-241.0,-112.0,0
1142,-4.0,-232.0,-109.0,0
1143,-2.0,-233.0,-107.0,0
1144,-2.0,-231.0,-110.0,0
1145,0.0,-226.0,-105.0,0
1146,-2.0,-224.0,-100.0,0
1147,0.0,-222.0,-103.0,0
1148,1.0,-223.0,-105.0,0
1149,-2.0,-219.0,-102.0,0
1150,0.0,-221.0,-103.0,0
1151,-1.0,-222.0,-108.0,0
1152,0.0,-224.0,-104.0,0
1153,0.0,-222.0,-102.0,0
1154,1.0,-223.0,-103.0,0
1155,-5.0,-222.0,-101.0,0
1156,-3.0,-228.0,-103.0,0
1157,-5.0,-222.0,-100.0,0
1158,-7.0,-225.0,-99.0,0
1159,-5.0,-228.0,-103.0,0
1160,-5.0,-226.0,-98.0,0
1161,-3.0,-230.0,-100.0,0
1162,-2.0,-232.0,-95.0,0
1163,-3.0,-231.0,-99.0,0
1164,-2.0,-235.0,-99.0,0
1165,-1.0,-236.0,-96.0,0
1166,-4.0,-236.0,-92.0,0
1167,0.0,-238.0,-96.0,0
1168,2.0,-241.0,-90.0,0
1169,0.0,-244.0,-94.0,0
1170,0.0,-242.0,-97.0,0
1171,-2.0,-246.0,-97.0,0
1172,-2.0,-249.0,-91.0,0
1173,0.0,-249.0,-91.0,0
1174,-2.0,-250.0,-87.0,0
1175,-3.0,-250.0,-92.0,0
1176,-3.0,-253.0,-88.0,0
1177,0.0,-253.0,-88.0,0
1178,0.0,-253.0,-86.0,0
1179,0.0,-254.0,-88.0,0
1180,-2.0,-252.0,-83.0,0
1181,-2.0,-253.0,-84.0,0
1182,-4.0,-253.0,-80.0,0
1183,-3.0,-252.0,-76.0,0
1184,-2.0,-252.0,-74.0,0
1185,-1.0,-250.0,-67.0,0
1186,-2.0,-251.0,-68.0,0
1187,-6.0,-250.0,-65.0,0
1188,-8.0,-249.0,-60.0,0
1189,6.0,-251.0,-63.0,0
1190,-3.0,-254.0,-57.0,0
1191,-4.0,-254.0,-56.0,0
1192,-1.0,-255.0,-53.0,0
1193,-9.0,-255.0,-53.0,0
1194,-8.0,-250.0,-54.0,0
1195,-7.0,-252.0,-54.0,0
1196,-7.0,-249.0,-51.0,0
1197,-8.0,-249.0,-51.0,0
1198,-7.0,-248.0,-53.0,0
1199,-7.0,-249.0,-49.0,0
1200,-6.0,-249.0,-44.0,0
1201,-3.0,-250.0,-44.0,0
1202,-7.0,-256.0,-45.0,0
1203,-6.0,-254.0,-37.0,0
1204,-5.0,-260.0,-39.0,0
1205,-3.0,-254.0,-40.0,0
1206,-7.0,-258.0,-37.0,0
1207,-3.0,-259.0,-36.0,0
1208,-1.0,-258.0,-39.0,0
1209,-5.0,-258.0,-35.0,0
1210,-6.0,-249.0,-33.0,0
1211,-3.0,-257.0,-21.0,0
1212,-7.0,-250.0,-34.0,0
1213,-11.0,-252.0,-29.0,0
1214,-12.0,-252.0,-29.0,0
1215,-13.0,-250.0,-25.0,0
1216,-15.0,-253.0,-27.0,0
1217,-17.0,-247.0,-31.0,0
1218,-18.0,-246.0,-28.0,0
1219,-13.0,-250.0,-28.0,0
1220,-16.0,-254.0,-29.0,0
1221,-18.0,-257.0,-24.0,0
1222,-18.0,-256.0,-22.0,0
1223,-19.0,-251.0,-25.0,0
1224,-16.0,-258.0,-27.0,0
1225,-16.0,-257.0,-25.0,0
1226,-14.0,-260.0,-22.0,0
1227,-12.0,-258.0,-23.0,0
1228,-12.0,-258.0,-26.0,0
1229,-13.0,-261.0,-22.0,0
1230,-9.0,-257.0,-19.0,0
1231,-8.0,-258.0,-20.0,0
1232,-10.0,-255.0,-20.0,0
1233,0.0,-251.0,-16.0,0
1234,-4.0,-252.0,-17.0,0
1235,-5.0,-255.0,-19.0,0
1236,-5.0,-253.0,-19.0,0
1237,-7.0,-250.0,-12.0,0
1238,-6.0,-250.0,-16.0,0
1239,-8.0,-251.0,-15.0,0
1240,-6.0,-256.0,-14.0,0
1241,-11.0,-250.0,-18.0,0
1242,-11.0,-253.0,-16.0,0
1243,-10.0,-256.0,-17.0,0
1244,-10.0,-252.0,-16.0,0
1245,-9.0,-260.0,-13.0,0
1246,-10.0,-256.0,-11.0,0
1247,-8.0,-255.0,-12.0,0
1248,-6.0,-257.0,-8.0,0
1249,-10.0,-259.0,-8.0,0
1250,-9.0,-259.0,-9.0,0
1251,-8.0,-259.0,-6.0,0
1252,-9.0,-257.0,-7.0,0
1253,-6.0,-261.0,-8.0,0
1254,-10.0,-257.0,-8.0,0
1255,-11.0,-263.0,-9.0,0
1256,-9.0,-257.0,-9.0,0
1257,-8.0,-259.0,-5.0,0
1258,-5.0,-255.0,-3.0,0
1259,-7.0,-259.0,-9.0,0
1260,-2.0,-257.0,-6.0,0
1261,-4.0,-253.0,-4.0,0
1262,0.0,-255.0,-7.0,0
1263,-2.0,-254.0,-6.0,0
1264,-1.0,-254.0,-5.0,0
1265,-3.0,-254.0,-5.0,0
1266,0.0,-255.0,0.0,0
1267,1.0,-255.0,-4.0,0
1268,0.0,-254.0,-5.0,0
1269,-2.0,-255.0,-1.0,0
1270,-3.0,-256.0,0.0,0
1271,-5.0,-253.0,-4.0,0
1272,-8.0,-254.0,0.0,0
1273,-8.0,-252.0,0.0,0
1274,-10.0,-252.0,1.0,0
1275,-9.0,-252.0,-2.0,0
1276,-4.0,-251.0,5.0,0
1277,-10.0,-250.0,-1.0,0
1278,-8.0,-251.0,-2.0,0
1279,-11.0,-251.0,1.0,0
1280,-8.0,-251.0,0.0,0
1281,-9.0,-254.0,2.0,0
1282,-5.0,-261.0,5.0,0
1283,-4.0,-260.0,6.0,0
1284,-6.0,-260.0,4.0,0
1285,-4.0,-261.0,6.0,0
1286,-3.0,-260.0,2.0,0
1287,-1.0,-261.0,5.0,0
1288,-4.0,-258.0,7.0,0
1289,0.0,-258.0,5.0,0
1290,-3.0,-253.0,9.0,0
1291,-3.0,-251.0,7.0,0
1292,-3.0,-250.0,10.0,0
1293,-5.0,-250.0,13.0,0
1294,0.0,-257.0,12.0,0
1295,-3.0,-252.0,15.0,0
1296,-5.0,-253.0,17.0,0
1297,-4.0,-248.0,10.0,0
1298,-1.0,-256.0,8.0,0
1299,-6.0,-252.0,13.0,0
1300,-3.0,-254.0,17.0,0
1301,-5.0,-254.0,15.0,0
1302,-4.0,-253.0,21.0,0
1303,-7.0,-253.0,15.0,0
1304,-7.0,-255.0,18.0,0
1305,-8.0,-253.0,18.0,0
1306,-9.0,-252.0,17.0,0
1307,-6.0,-253.0,15.0,0
1308,-6.0,-253.0,19.0,0
1309,-6.0,-252.0,18.0,0
1310,-10.0,-248.0,20.0,0
1311,-10.0,-249.0,24.0,0
1312,-10.0,-251.0,21.0,0
1313,-7.0,-251.0,22.0,0
1314,-10.0,-250.0,21.0,0
1315,-7.0,-253.0,21.0,0
1316,-8.0,-254.0,21.0,0
1317,-5.0,-254.0,19.0,0
1318,-7.0,-251.0,19.0,0
1319,-1.0,-256.0,22.0,0
1320,-2.0,-251.0,22.0,0
1321,-2.0,-250.0,20.0,0
1322,-4.0,-251.0,20.0,0
1323,-1.0,-252.0,22.0,0
1324,0.0,-250.0,21.0,0
1325,1.0,-252.0,22.0,0
1326,-1.0,-249.0,15.0,0
1327,0.0,-251.0,20.0,0
1328,0.0,-253.0,22.0,0
1329,-2.0,-251.0,19.0,0
1330,0.0,-254.0,24.0,0
1331,-3.0,-254.0,21.0,0
1332,-4.0,-254.0,22.0,0
1333,-1.0,-253.0,22.0,0
1334,-2.0,-251.0,20.0,0
1335,0.0,-254.0,20.0,0
1336,-2.0,-253.0,25.0,0
1337,0.0,-251.0,20.0,0
1338,-5.0,-249.0,22.0,0
1339,-8.0,-249.0,22.0,0
1340,-6.0,-253.0,21.0,0
1341,0.0,-252.0,24.0,0
1342,-5.0,-250.0,22.0,0
1343,-6.0,-252.0,18.0,0
1344,-9.0,-252.0,19.0,0
1345,-5.0,-254.0,20.0,0
1346,-2.0,-255.0,22.0,0
1347,-9.0,-252.0,20.0,0
1348,-7.0,-258.0,15.0,0
1349,-7.0,-258.0,19.0,0
1350,-7.0,-256.0,15.0,0
1351,-5.0,-255.0,13.0,0
1352,-7.0,-255.0,18.0,0
1353,-9.0,-253.0,18.0,0
1354,-8.0,-253.0,19.0,0
1355,-2.0,-252.0,17.0,0
1356,-7.0,-256.0,15.0,0
1357,-7.0,-253.0,16.0,0
1358,-4.0,-252.0,14.0,0
1359,-4.0,-253.0,18.0,0
1360,-3.0,-257.0,16.0,0
1361,-7.0,-255.0,17.0,0
1362,-6.0,-254.0,20.0,0
1363,-1.0,-257.0,25.0,0
1364,-6.0,-257.0,15.0,0
1365,-6.0,-256.0,18.0,0
1366,-1.0,-258.0,15.0,0
1367,-3.0,-257.0,17.0,0
1368,-2.0,-257.0,16.0,0
1369,-3.0,-255.0,14.0,0
1370,0.0,-256.0,13.0,0
1371,-3.0,-252.0,13.0,0
1372,-2.0,-252.0,16.0,0
1373,-4.0,-249.0,16.0,0
1374,-2.0,-253.0,10.0,0
1375,-2.0,-252.0,12.0,0
1376,-3.0,-250.0,11.0,0
1377,-2.0,-251.0,10.0,0
1378,0.0,-252.0,9.0,0
1379,-1.0,-254.0,12.0,0
1380,0.0,-261.0,13.0,0
1381,-4.0,-258.0,13.0,0
1382,-2.0,-262.0,9.0,0
1383,0.0,-258.0,13.0,0
1384,-4.0,-259.0,10.0,0
1385,-3.0,-260.0,11.0,0
1386,-4.0,-257.0,8.0,0
1387,-3.0,-257.0,12.0,0
1388,-2.0,-261.0,8.0,0
1389,-4.0,-258.0,10.0,0
1390,-5.0,-259.0,8.0,0
1391,-4.0,-260.0,10.0,0
1392,-5.0,-260.0,10.0,0
1393,-6.0,-261.0,9.0,0
1394,-4.0,-260.0,10.0,0
1395,-6.0,-261.0,8.0,0
1396,-4.0,-256.0,9.0,0
1397,-8.0,-257.0,10.0,0
1398,-3.0,-257.0,12.0,0
1399,-6.0,-250.0,10.0,0
1400,-1.0,-252.0,8.0,0
1401,-4.0,-252.0,9.0,0
1402,-1.0,-251.0,12.0,0
1403,-2.0,-252.0,13.0,0
1404,-2.0,-255.0,10.0,0
1405,-1.0,-252.0,9.0,0
1406,-7.0,-257.0,17.0,0
1407,-2.0,-253.0,10.0,0
1408,-2.0,-257.0,11.0,0
1409,-3.0,-254.0,12.0,0
1410,-1.0,-259.0,10.0,0
1411,-2.0,-254.0,10.0,0
1412,-1.0,-255.0,10.0,0
1413,-2.0,-257.0,9.0,0
1414,-3.0,-255.0,9.0,0
1415,-4.0,-257.0,7.0,0
1416,-3.0,-256.0,9.0,0
1417,-8.0,-255.0,6.0,0
1418,-3.0,-255.0,12.0,0
1419,-3.0,-257.0,5.0,0
1420,-3.0,-257.0,11.0,0
1421,-7.0,-255.0,9.0,0
1422,-3.0,-255.0,9.0,0
1423,-4.0,-257.0,7.0,0
1424,-6.0,-258.0,8.0,0
1425,-5.0,-255.0,7.0,0
1426,-6.0,-254.0,12.0,0
1427,-9.0,-252.0,8.0,0
1428,-5.0,-257.0,7.0,0
1429,-4.0,-256.0,4.0,0
1430,-4.0,-256.0,8.0,0
1431,-3.0,-256.0,8.0,0
1432,-1.0,-255.0,5.0,0
1433,-5.0,-256.0,6.0,0
1434,-7.0,-254.0,11.0,0
1435,-4.0,-254.0,9.0,0
1436,-4.0,-254.0,9.0,0
1437,-3.0,-255.0,9.0,0
1438,-5.0,-254.0,8.0,0
1439,-4.0,-255.0,4.0,0
1440,-1.0,-255.0,8.0,0
1441,-6.0,-253.0,6.0,0
1442,-8.0,-253.0,3.0,0
1443,-3.0,-254.0,7.0,0
1444,-4.0,-256.0,5.0,0
1445,-7.0,-254.0,4.0,0
1446,-5.0,-257.0,7.0,0
1447,-4.0,-257.0,8.0,0
1448,-5.0,-254.0,7.0,0
1449,-8.0,-256.0,5.0,0
1450,-2.0,-258.0,9.0,0
1451,-10.0,-258.0,11.0,0
1452,-6.0,-257.0,10.0,0
1453,-5.0,-260.0,6.0,0
1454,-6.0,-256.0,3.0,0
1455,-6.0,-256.0,3.0,0
1456,-7.0,-254.0,8.0,0
1457,-3.0,-254.0,6.0,0
1458,-5.0,-252.0,3.0,0
1459,-6.0,-254.0,3.0,0
1460,-7.0,-251.0,6.0,0
1461,-6.0,-253.0,2.0,0
1462,-7.0,-255.0,10.0,0
1463,-6.0,-260.0,8.0,0
1464,-4.0,-257.0,7.0,0
1465,-4.0,-255.0,12.0,0
1466,-8.0,-257.0,8.0,0
1467,-7.0,-261.0,10.0,0
1468,-1.0,-257.0,7.0,0
1469,-3.0,-256.0,7.0,0
1470,-1.0,-260.0,7.0,0
1471,-8.0,-256.0,6.0,0
1472,-17.0,-260.0,2.0,0
1473,-5.0,-257.0,4.0,0
1474,-1.0,-255.0,5.0,0
1475,-3.0,-257.0,5.0,0
1476,-2.0,-256.0,6.0,0
1477,-2.0,-255.0,4.0,0
1478,-5.0,-256.0,5.0,0
1479,-5.0,-256.0,5.0,0
1480,-4.0,-256.0,7.0,0
1481,-4.0,-256.0,3.0,0
1482,-6.0,-258.0,4.0,0
1483,-5.0,-256.0,4.0,0
1484,-4.0,-256.0,8.0,0
1485,-5.0,-258.0,4.0,0
1486,-5.0,-258.0,6.0,0
1487,-5.0,-255.0,5.0,0
1488,-2.0,-255.0,2.0,0
1489,-5.0,-256.0,6.0,0
1490,-5.0,-256.0,4.0,0
1491,-4.0,-254.0,9.0,0
1492,-3.0,-258.0,7.0,0
1493,1.0,-258.0,13.0,0
1494,-2.0,-254.0,5.0,0
1495,-3.0,-256.0,6.0,0
1496,-3.0,-252.0,6.0,0
1497,-4.0,-254.0,8.0,0
1498,-1.0,-258.0,6.0,0
1499,-5.0,-257.0,5.0,0
1500,-4.0,-257.0,7.0,0
1501,-2.0,-256.0,7.0,0
1502,-6.0,-255.0,5.0,0
1503,-4.0,-254.0,8.0,0
1504,-1.0,-256.0,4.0,0
1505,-5.0,-255.0,5.0,0
1506,-6.0,-255.0,7.0,0
1507,-1.0,-254.0,6.0,0
1508,-4.0,-255.0,8.0,0
1509,-7.0,-253.0,5.0,0
1510,-7.0,-256.0,11.0,0
1511,-7.0,-256.0,9.0,0
1512,-3.0,-254.0,4.0,0
1513,-4.0,-256.0,6.0,0
1514,-2.0,-258.0,6.0,0
1515,-3.0,-252.0,2.0,0
1516,-1.0,-256.0,8.0,0
1517,0.0,-255.0,5.0,0
1518,-2.0,-258.0,6.0,0
1519,-8.0,-256.0,9.0,0
1520,-4.0,-255.0,8.0,0
1521,-1.0,-256.0,10.0,0
1522,-3.0,-255.0,8.0,0
1523,-5.0,-257.0,10.0,0
1524,-7.0,-254.0,6.0,0
1525,-5.0,-255.0,9.0,0
1526,-2.0,-252.0,5.0,0
1527,-5.0,-255.0,10.0,0
1528,-3.0,-256.0,4.0,0
1529,-5.0,-256.0,5.0,0
1530,-2.0,-259.0,9.0,0
1531,-4.0,-254.0,8.0,0
1532,-5.0,-256.0,9.0,0
1533,-5.0,-255.0,9.0,0
1534,-1.0,-256.0,9.0,0
1535,-1.0,-256.0,6.0,0
1536,0.0,-256.0,6.0,0
1537,-2.0,-256.0,6.0,0
1538,-3.0,-257.0,7.0,0
1539,-4.0,-255.0,6.0,0
1540,-4.0,-257.0,9.0,0
1541,-3.0,-256.0,7.0,0
1542,-5.0,-258.0,4.0,0
1543,-7.0,-253.0,7.0,0
1544,-1.0,-256.0,7.0,0
1545,-2.0,-255.0,10.0,0
1546,-2.0,-256.0,10.0,0
1547,-3.0,-246.0,8.0,0
1548,-5.0,-255.0,10.0,0
1549,-2.0,-252.0,8.0,0
1550,-5.0,-253.0,9.0,0
1551,-2.0,-254.0,9.0,0
1552,-2.0,-252.0,9.0,0
1553,0.0,-252.0,8.0,0
1554,-2.0,-255.0,9.0,0
1555,-3.0,-254.0,13.0,0
1556,0.0,-254.0,11.0,0
1557,-6.0,-254.0,12.0,0
1558,-6.0,-255.0,12.0,0
1559,-10.0,-253.0,6.0,0
1560,-5.0,-255.0,9.0,0
1561,-10.0,-254.0,13.0,0
1562,-5.0,-256.0,8.0,0
1563,-7.0,-255.0,9.0,0
1564,-5.0,-254.0,11.0,0
1565,-3.0,-257.0,13.0,0
1566,-5.0,-256.0,10.0,0
1567,-5.0,-253.0,14.0,0
1568,-4.0,-256.0,14.0,0
1569,-4.0,-251.0,11.0,0
1570,-2.0,-254.0,12.0,0
1571,0.0,-255.0,11.0,0
1572,-6.0,-253.0,12.0,0
1573,-3.0,-256.0,10.0,0
1574,0.0,-256.0,14.0,0
1575,-6.0,-255.0,14.0,0
1576,-2.0,-256.0,9.0,0
1577,-4.0,-251.0,18.0,0
1578,-3.0,-254.0,13.0,0
1579,-2.0,-256.0,12.0,0
1580,4.0,-263.0,16.0,0
1581,-3.0,-253.0,7.0,0
1582,0.0,-254.0,10.0,0
1583,-1.0,-256.0,9.0,0
1584,-3.0,-253.0,11.0,0
1585,-2.0,-254.0,7.0,0
1586,-2.0,-254.0,9.0,0
1587,-1.0,-256.0,13.0,0
1588,-5.0,-253.0,9.0,0
1589,-2.0,-257.0,10.0,0
1590,-2.0,-256.0,7.0,0
1591,-3.0,-258.0,10.0,0
1592,-6.0,-256.0,8.0,0
1593,-2.0,-254.0,4.0,0
1594,-5.0,-256.0,7.0,0
1595,-1.0,-259.0,9.0,0
1596,-4.0,-255.0,9.0,0
1597,-6.0,-258.0,10.0,0
1598,-6.0,-257.0,4.0,0
1599,-5.0,-258.0,10.0,0
1600,0.0,-257.0,8.0,0
1601,-2.0,-259.0,15.0,0
1602,0.0,-258.0,4.0,0
1603,0.0,-254.0,10.0,0
1604,-5.0,-255.0,15.0,0
1605,-7.0,-254.0,10.0,0
1606,-5.0,-254.0,8.0,0
1607,-4.0,-254.0,12.0,0
1608,-3.0,-257.0,14.0,0
1609,-6.0,-256.0,15.0,0
1610,-3.0,-256.0,13.0,0
1611,-6.0,-251.0,12.0,0
1612,-5.0,-255.0,14.0,0
1613,-6.0,-255.0,12.0,0
1614,-7.0,-253.0,15.0,0
1615,-7.0,-253.0,11.0,0
1616,-2.0,-256.0,16.0,0
1617,-2.0,-257.0,13.0,0
1618,-2.0,-256.0,17.0,0
1619,-3.0,-254.0,16.0,0
1620,-7.0,-254.0,15.0,0
1621,0.0,-258.0,16.0,0
1622,-4.0,-256.0,14.0,0
1623,-5.0,-254.0,11.0,0
1624,0.0,-252.0,14.0,0
1625,-3.0,-258.0,17.0,0
1626,-2.0,-256.0,18.0,0
1627,-3.0,-254.0,16.0,0
1628,-5.0,-253.0,14.0,0
1629,-6.0,-252.0,14.0,0
1630,0.0,-256.0,13.0,0
1631,-5.0,-252.0,15.0,0
1632,-5.0,-253.0,11.0,0
1633,-4.0,-254.0,13.0,0
1634,-5.0,-254.0,13.0,0
1635,-9.0,-254.0,13.0,0
1636,-2.0,-253.0,14.0,0
1637,-5.0,-249.0,14.0,0
1638,-5.0,-256.0,14.0,0
1639,-6.0,-251.0,13.0,0
1640,-3.0,-257.0,11.0,0
1641,-5.0,-254.0,17.0,0
1642,-7.0,-254.0,14.0,0
1643,-5.0,-256.0,14.0,0
1644,-4.0,-255.0,13.0,0
1645,-6.0,-256.0,13.0,0
1646,-3.0,-262.0,5.0,0
1647,-5.0,-256.0,13.0,0
1648,-1.0,-256.0,12.0,0
1649,-2.0,-254.0,13.0,0
1650,-7.0,-255.0,12.0,0
1651,-4.0,-255.0,13.0,0
1652,-4.0,-256.0,14.0,0
1653,0.0,-257.0,18.0,0
1654,-4.0,-255.0,13.0,0
1655,-2.0,-259.0,10.0,0
1656,-1.0,-257.0,12.0,0
1657,-2.0,-255.0,11.0,0
1658,-2.0,-256.0,15.0,0
1659,-3.0,-254.0,11.0,0
1660,-3.0,-256.0,17.0,0
1661,-6.0,-254.0,17.0,0
1662,0.0,-253.0,14.0,0
1663,-1.0,-254.0,17.0,0
1664,-1.0,-256.0,17.0,0
1665,-2.0,-256.0,13.0,0
1666,-2.0,-256.0,15.0,0
1667,-3.0,-259.0,9.0,0
1668,-3.0,-255.0,8.0,0
1669,-2.0,-254.0,14.0,0
1670,0.0,-255.0,14.0,0
1671,-1.0,-255.0,10.0,0
1672,-1.0,-253.0,11.0,0
1673,-4.0,-253.0,13.0,0
1674,-2.0,-251.0,17.0,0
1675,-6.0,-251.0,14.0,0
1676,-7.0,-254.0,13.0,0
1677,-3.0,-253.0,12.0,0
1678,-8.0,-258.0,16.0,0
1679,-7.0,-253.0,15.0,0
1680,-7.0,-254.0,17.0,0
1681,-5.0,-256.0,11.0,0
1682,-4.0,-255.0,12.0,0
1683,-4.0,-254.0,14.0,0
1684,-1.0,-254.0,14.0,0
1685,-2.0,-256.0,16.0,0
1686,-2.0,-254.0,15.0,0
1687,0.0,-255.0,9.0,0
1688,0.0,-255.0,14.0,0
1689,3.0,-260.0,11.0,0
1690,-2.0,-253.0,13.0,0
1691,-2.0,-253.0,13.0,0
1692,-2.0,-257.0,13.0,0
1693,-2.0,-251.0,11.0,0
1694,-2.0,-257.0,6.0,0
1695,-2.0,-255.0,11.0,0
1696,-2.0,-256.0,8.0,0
1697,-3.0,-255.0,8.0,0
1698,-5.0,-254.0,10.0,0
1699,-4.0,-255.0,7.0,0
1700,-3.0,-256.0,9.0,0
1701,-6.0,-257.0,13.0,0
1702,-6.0,-251.0,10.0,0
1703,-5.0,-255.0,6.0,0
1704,-7.0,-253.0,11.0,0
1705,-8.0,-252.0,10.0,0
1706,-5.0,-253.0,13.0,0
1707,-3.0,-254.0,12.0,0
1708,-5.0,-253.0,10.0,0
1709,-9.0,-251.0,13.0,0
1710,-5.0,-252.0,14.0,0
1711,-10.0,-255.0,8.0,0
1712,-6.0,-253.0,9.0,0
1713,-9.0,-253.0,7.0,0
1714,-8.0,-252.0,9.0,0
1715,-4.0,-253.0,9.0,0
1716,-3.0,-255.0,9.0,0
1717,-6.0,-254.0,11.0,0
1718,-4.0,-258.0,7.0,0
1719,-1.0,-255.0,10.0,0
1720,-2.0,-256.0,6.0,0
1721,-7.0,-255.0,9.0,0
1722,-6.0,-257.0,7.0,0
1723,-3.0,-257.0,11.0,0
1724,-1.0,-259.0,10.0,0
1725,-1.0,-257.0,10.0,0
1726,-8.0,-255.0,11.0,0
1727,-5.0,-252.0,9.0,0
1728,-5.0,-255.0,8.0,0
1729,-1.0,-254.0,8.0,0
1730,-5.0,-255.0,6.0,0
1731,-5.0,-252.0,9.0,0
1732,-4.0,-254.0,11.0,0
1733,-1.0,-257.0,16.0,0
1734,-1.0,-258.0,4.0,0
1735,-1.0,-254.0,2.0,0
1736,-6.0,-252.0,4.0,0
1737,-6.0,-250.0,6.0,0
1738,-5.0,-254.0,6.0,0
1739,-6.0,-256.0,3.0,0
1740,-3.0,-260.0,6.0,0
1741,-3.0,-252.0,0.0,0
1742,-4.0,-257.0,2.0,0
1743,-1.0,-257.0,1.0,0
1744,-1.0,-256.0,-6.0,0
1745,0.0,-256.0,0.0,0
1746,-3.0,-257.0,-1.0,0
1747,-3.0,-253.0,0.0,0
1748,-3.0,-254.0,3.0,0
1749,-1.0,-255.0,-3.0,0
1750,-2.0,-257.0,-2.0,0
1751,-4.0,-255.0,-2.0,0
1752,-1.0,-253.0,-2.0,0
1753,-6.0,-254.0,-2.0,0
1754,-3.0,-250.0,5.0,0
1755,-5.0,-252.0,-3.0,0
1756,-4.0,-256.0,-2.0,0
1757,-4.0,-251.0,-2.0,0
1758,-4.0,-253.0,-1.0,0
1759,-2.0,-252.0,-1.0,0
1760,-5.0,-251.0,-2.0,0
1761,-6.0,-250.0,-2.0,0
1762,-3.0,-254.0,0.0,0
1763,-6.0,-251.0,-3.0,0
1764,-4.0,-253.0,1.0,0
1765,-3.0,-255.0,-1.0,0
1766,-1.0,-250.0,-7.0,0
1767,-1.0,-255.0,-6.0,0
1768,-1.0,-253.0,-3.0,0
1769,-3.0,-252.0,-7.0,0
1770,0.0,-251.0,-9.0,0
1771,-3.0,-254.0,-3.0,0
1772,0.0,-255.0,-6.0,0
1773,-7.0,-254.0,-8.0,0
1774,-2.0,-259.0,-2.0,0
1775,-2.0,-257.0,-6.0,0
1776,-11.0,-257.0,-1.0,0
1777,-3.0,-258.0,-2.0,0
1778,-1.0,-256.0,-8.0,0
1779,-5.0,-252.0,-6.0,0
1780,-2.0,-255.0,-9.0,0
1781,-1.0,-256.0,-8.0,0
1782,-3.0,-251.0,-8.0,0
1783,0.0,-250.0,-8.0,0
1784,-2.0,-252.0,-8.0,0
1785,0.0,-250.0,-6.0,0
1786,-4.0,-251.0,-6.0,0
1787,-5.0,-249.0,-7.0,0
1788,-6.0,-253.0,-8.0,0
1789,-4.0,-253.0,-7.0,0
1790,-5.0,-251.0,-6.0,0
1791,-5.0,-256.0,-9.0,0
1792,-4.0,-253.0,-10.0,0
1793,-4.0,-251.0,-10.0,0
1794,-6.0,-253.0,-9.0,0
1795,-1.0,-255.0,-12.0,0
1796,-2.0,-253.0,-14.0,0
1797,-4.0,-245.0,-18.0,0
1798,0.0,-252.0,-23.0,0
1799,-3.0,-248.0,-16.0,0
1800,0.0,-253.0,-11.0,0
1801,0.0,-251.0,-14.0,0
1802,2.0,-253.0,-21.0,0
1803,0.0,-252.0,-16.0,0
1804,1.0,-250.0,-20.0,0
1805,0.0,-249.0,-21.0,0
1806,-3.0,-252.0,-20.0,0
1807,-2.0,-252.0,-21.0,0
1808,-1.0,-251.0,-25.0,0
1809,0.0,-252.0,-21.0,0
1810,-6.0,-253.0,-24.0,0
1811,-1.0,-255.0,-26.0,0
1812,-3.0,-254.0,-25.0,0
1813,1.0,-252.0,-25.0,0
1814,-3.0,-255.0,-27.0,0
1815,-2.0,-252.0,-26.0,0
1816,-1.0,-255.0,-27.0,0
1817,-2.0,-255.0,-28.0,0
1818,-6.0,-255.0,-28.0,0
1819,-3.0,-253.0,-28.0,0
1820,2.0,-257.0,-28.0,0
1821,0.0,-256.0,-31.0,0
1822,-4.0,-254.0,-34.0,0
1823,-2.0,-253.0,-33.0,0
1824,-2.0,-254.0,-31.0,0
1825,-3.0,-249.0,-39.0,0
1826,-2.0,-252.0,-33.0,0
1827,-3.0,-250.0,-37.0,0
1828,2.0,-248.0,-41.0,0
1829,-1.0,-251.0,-40.0,0
1830,1.0,-253.0,-40.0,0
1831,1.0,-251.0,-40.0,0
1832,0.0,-251.0,-39.0,0
1833,0.0,-251.0,-44.0,0
1834,-2.0,-251.0,-45.0,0
1835,0.0,-251.0,-46.0,0
1836,-2.0,-249.0,-49.0,0
1837,0.0,-254.0,-48.0,0
1838,-4.0,-252.0,-48.0,0
1839,0.0,-257.0,-45.0,0
1840,-3.0,-255.0,-49.0,0
1841,-1.0,-255.0,-52.0,0
1842,8.0,-256.0,-52.0,0
1843,-1.0,-256.0,-54.0,0
1844,1.0,-256.0,-60.0,0
1845,0.0,-255.0,-59.0,0
1846,2.0,-256.0,-61.0,0
1847,3.0,-260.0,-63.0,0
1848,3.0,-262.0,-61.0,0
1849,2.0,-266.0,-61.0,0
1850,4.0,-264.0,-62.0,0
1851,2.0,-266.0,-59.0,0
1852,3.0,-267.0,-60.0,0
1853,4.0,-265.0,-54.0,0
1854,0.0,-265.0,-60.0,0
1855,-2.0,-261.0,-58.0,0
1856,0.0,-260.0,-66.0,0
1857,-2.0,-257.0,-64.0,0
1858,-5.0,-256.0,-66.0,0
1859,-1.0,-251.0,-67.0,0
1860,-4.0,-251.0,-69.0,0
1861,-5.0,-249.0,-65.0,0
1862,-1.0,-248.0,-66.0,0
1863,-9.0,-243.0,-67.0,0
1864,-3.0,-247.0,-66.0,0
1865,0.0,-248.0,-67.0,0
1866,0.0,-249.0,-64.0,0
1867,0.0,-251.0,-65.0,0
1868,2.0,-250.0,-59.0,0
1869,0.0,-249.0,-65.0,0
1870,2.0,-249.0,-69.0,0
1871,2.0,-250.0,-75.0,0
1872,4.0,-252.0,-85.0,0
1873,8.0,-250.0,-84.0,0
1874,8.0,-253.0,-88.0,0
1875,8.0,-253.0,-88.0,0
1876,4.0,-250.0,-95.0,0
1877,5.0,-255.0,-96.0,0
1878,6.0,-258.0,-102.0,0
1879,3.0,-257.0,-97.0,0
1880,6.0,-265.0,-104.0,0
1881,1.0,-261.0,-107.0,0
1882,2.0,-267.0,-113.0,0
1883,4.0,-269.0,-112.0,0
1884,3.0,-275.0,-120.0,0
1885,1.0,-273.0,-120.0,0
1886,6.0,-279.0,-130.0,0
1887,7.0,-278.0,-138.0,0
1888,8.0,-279.0,-145.0,0
1889,10.0,-278.0,-148.0,0
1890,15.0,-280.0,-146.0,0
1891,14.0,-283.0,-148.0,0
1892,12.0,-280.0,-147.0,0
1893,14.0,-282.0,-146.0,0
1894,11.0,-279.0,-144.0,0
1895,10.0,-275.0,-144.0,0
1896,7.0,-273.0,-144.0,0
1897,6.0,-266.0,-145.0,0
1898,2.0,-263.0,-145.0,0
1899,1.0,-253.0,-146.0,0
1900,-3.0,-251.0,-149.0,0
1901,-5.0,-248.0,-149.0,0
1902,-9.0,-243.0,-149.0,0
1903,-8.0,-243.0,-149.0,0
1904,-5.0,-244.0,-153.0,0
1905,0.0,-243.0,-150.0,0
1906,4.0,-244.0,-154.0,0
1907,1.0,-244.0,-149.0,0
1908,5.0,-243.0,-154.0,0
1909,6.0,-242.0,-150.0,0
1910,6.0,-241.0,-152.0,0
1911,10.0,-241.0,-147.0,0
1912,11.0,-240.0,-147.0,0
1913,13.0,-239.0,-146.0,0
1914,13.0,-239.0,-145.0,0
1915,14.0,-239.0,-145.0,0
1916,13.0,-238.0,-146.0,0
1917,12.0,-237.0,-149.0,0
1918,11.0,-234.0,-151.0,0
1919,8.0,-237.0,-152.0,0
1920,7.0,-237.0,-152.0,0
1921,4.0,-236.0,-156.0,0
1922,4.0,-231.0,-158.0,0
1923,2.0,-235.0,-158.0,0
1924,0.0,-232.0,-159.0,0
1925,-1.0,-232.0,-160.0,0
1926,0.0,-232.0,-159.0,0
1927,-2.0,-233.0,-160.0,0
1928,-8.0,-231.0,-161.0,0
1929,0.0,-231.0,-157.0,0
1930,-1.0,-231.0,-157.0,0
1931,-2.0,-231.0,-156.0,0
1932,-2.0,-229.0,-152.0,0
1933,0.0,-230.0,-151.0,0
1934,0.0,-225.0,-151.0,0
1935,0.0,-222.0,-148.0,0
1936,2.0,-223.0,-144.0,0
1937,3.0,-222.0,-146.0,0
1938,2.0,-220.0,-143.0,0
1939,3.0,-220.0,-144.0,0
1940,6.0,-221.0,-146.0,0
1941,5.0,-219.0,-146.0,0
1942,8.0,-220.0,-146.0,0
1943,8.0,-221.0,-141.0,0
1944,10.0,-220.0,-148.0,0
1945,9.0,-222.0,-145.0,0
1946,3.0,-218.0,-145.0,0
1947,1.0,-222.0,-144.0,0
1948,1.0,-218.0,-145.0,0
1949,-4.0,-223.0,-142.0,0
1950,1.0,-224.0,-143.0,0
1951,-2.0,-224.0,-139.0,0
1952,1.0,-224.0,-138.0,0
1953,-2.0,-226.0,-137.0,0
1954,-2.0,-222.0,-135.0,0
1955,-3.0,-228.0,-135.0,0
1956,-2.0,-225.0,-134.0,0
1957,-1.0,-226.0,-135.0,0
1958,-1.0,-230.0,-136.0,0
1959,0.0,-228.0,-135.0,0
1960,0.0,-225.0,-136.0,0
1961,1.0,-226.0,-138.0,0
1962,1.0,-230.0,-140.0,0
1963,2.0,-231.0,-136.0,0
1964,3.0,-233.0,-137.0,0
1965,7.0,-235.0,-137.0,0
1966,8.0,-233.0,-137.0,0
1967,6.0,-231.0,-139.0,0
1968,7.0,-229.0,-141.0,0
1969,6.0,-231.0,-137.0,0
1970,7.0,-231.0,-136.0,0
1971,4.0,-239.0,-133.0,0
1972,4.0,-225.0,-135.0,0
1973,7.0,-227.0,-135.0,0
1974,1.0,-226.0,-137.0,0
1975,5.0,-228.0,-133.0,0
1976,1.0,-224.0,-135.0,0
1977,2.0,-220.0,-129.0,0
1978,1.0,-225.0,-131.0,0
1979,0.0,-218.0,-127.0,0
1980,2.0,-220.0,-124.0,0
1981,0.0,-214.0,-126.0,0
1982,2.0,-216.0,-127.0,0
1983,1.0,-217.0,-122.0,0
1984,4.0,-219.0,-124.0,0
1985,1.0,-216.0,-121.0,0
1986,0.0,-217.0,-127.0,0
1987,1.0,-219.0,-124.0,0
1988,1.0,-227.0,-123.0,0
1989,2.0,-224.0,-122.0,0
1990,2.0,-227.0,-126.0,0
1991,1.0,-227.0,-124.0,0
1992,1.0,-232.0,-124.0,0
1993,1.0,-235.0,-113.0,0
1994,3.0,-233.0,-121.0,0
1995,1.0,-239.0,-122.0,0
1996,1.0,-239.0,-121.0,0
1997,2.0,-236.0,-124.0,0
1998,1.0,-237.0,-120.0,0
1999,3.0,-239.0,-120.0,0
2000,5.0,-237.0,-121.0,0
2001,5.0,-238.0,-118.0,0
2002,6.0,-231.0,-117.0,0
2003,5.0,-230.0,-117.0,0
2004,7.0,-230.0,-115.0,0
2005,7.0,-231.0,-115.0,0
2006,7.0,-229.0,-116.0,0
2007,6.0,-226.0,-119.0,0
2008,7.0,-227.0,-121.0,0
2009,2.0,-225.0,-119.0,0
2010,3.0,-224.0,-121.0,0
2011,5.0,-224.0,-120.0,0
2012,1.0,-222.0,-122.0,0
2013,1.0,-220.0,-122.0,0
2014,0.0,-218.0,-119.0,0
2015,-1.0,-225.0,-123.0,0
2016,-5.0,-218.0,-118.0,0
2017,-1.0,-222.0,-118.0,0
2018,-2.0,-221.0,-115.0,0
2019,-1.0,-223.0,-113.0,0
2020,-3.0,-223.0,-110.0,0
2021,-2.0,-219.0,-112.0,0
2022,-2.0,-224.0,-113.0,0
2023,1.0,-223.0,-114.0,0
2024,2.0,-227.0,-112.0,0
2025,4.0,-226.0,-112.0,0
2026,3.0,-227.0,-111.0,0
2027,6.0,-229.0,-108.0,0
2028,6.0,-231.0,-108.0,0
2029,6.0,-229.0,-109.0,0
2030,7.0,-231.0,-107.0,0
2031,7.0,-234.0,-101.0,0
2032,8.0,-234.0,-103.0,0
2033,1.0,-233.0,-102.0,0
2034,3.0,-234.0,-106.0,0
2035,5.0,-235.0,-105.0,0
2036,3.0,-238.0,-104.0,0
2037,-1.0,-238.0,-100.0,0
2038,0.0,-241.0,-105.0,0
2039,2.0,-239.0,-101.0,0
2040,-1.0,-239.0,-102.0,0
2041,-4.0,-236.0,-102.0,0
2042,-5.0,-233.0,-99.0,0
2043,-2.0,-235.0,-99.0,0
2044,-2.0,-234.0,-101.0,0
2045,-2.0,-231.0,-101.0,0
2046,0.0,-231.0,-99.0,0
2047,0.0,-234.0,-99.0,0
2048,-2.0,-228.0,-96.0,0
2049,-1.0,-226.0,-94.0,0
2050,-1.0,-225.0,-96.0,0
2051,-2.0,-223.0,-93.0,0
2052,0.0,-225.0,-96.0,0
2053,2.0,-227.0,-93.0,0
2054,0.0,-222.0,-91.0,0
2055,1.0,-222.0,-92.0,0
2056,3.0,-225.0,-92.0,0
2057,2.0,-224.0,-95.0,0
2058,7.0,-222.0,-92.0,0
2059,5.0,-230.0,-93.0,0
2060,6.0,-231.0,-91.0,0
2061,2.0,-236.0,-90.0,0
2062,5.0,-235.0,-90.0,0
2063,6.0,-239.0,-90.0,0
2064,3.0,-235.0,-88.0,0
2065,5.0,-234.0,-90.0,0
2066,3.0,-237.0,-90.0,0
2067,2.0,-237.0,-88.0,0
2068,1.0,-236.0,-85.0,0
2069,1.0,-241.0,-87.0,0
2070,1.0,-238.0,-84.0,0
2071,1.0,-237.0,-84.0,0
2072,1.0,-239.0,-85.0,0
2073,1.0,-242.0,-82.0,0
2074,0.0,-238.0,-82.0,0
2075,0.0,-239.0,-86.0,0
2076,-3.0,-240.0,-82.0,0
2077,-2.0,-241.0,-80.0,0
2078,0.0,-240.0,-84.0,0
2079,-5.0,-239.0,-77.0,0
2080,0.0,-240.0,-85.0,0
2081,0.0,-239.0,-82.0,0
2082,-4.0,-241.0,-80.0,0
2083,-3.0,-239.0,-80.0,0
2084,-1.0,-238.0,-77.0,0
2085,1.0,-240.0,-80.0,0
2086,2.0,-242.0,-78.0,0
2087,1.0,-241.0,-80.0,0
2088,0.0,-237.0,-77.0,0
2089,1.0,-236.0,-78.0,0
2090,1.0,-239.0,-75.0,0
2091,3.0,-235.0,-79.0,0
2092,0.0,-234.0,-77.0,0
2093,0.0,-238.0,-69.0,0
2094,3.0,-237.0,-73.0,0
2095,0.0,-235.0,-69.0,0
2096,1.0,-234.0,-71.0,0
2097,0.0,-238.0,-70.0,0
2098,0.0,-236.0,-69.0,0
2099,2.0,-235.0,-67.0,0
2100,1.0,-236.0,-63.0,0
2101,3.0,-234.0,-65.0,0
2102,2.0,-235.0,-71.0,0
2103,4.0,-237.0,-65.0,0
2104,0.0,-237.0,-63.0,0
2105,1.0,-238.0,-65.0,0
2106,0.0,-237.0,-62.0,0
2107,0.0,-239.0,-67.0,0
2108,2.0,-240.0,-64.0,0
2109,1.0,-242.0,-64.0,0
2110,3.0,-240.0,-66.0,0
2111,2.0,-242.0,-64.0,0
2112,4.0,-242.0,-61.0,0
2113,3.0,-243.0,-59.0,0
2114,4.0,-243.0,-58.0,0
2115,2.0,-241.0,-57.0,0
2116,3.0,-244.0,-57.0,0
2117,2.0,-242.0,-54.0,0
2118,3.0,-244.0,-56.0,0
2119,1.0,-245.0,-54.0,0
2120,2.0,-245.0,-53.0,0
2121,1.0,-245.0,-51.0,0
2122,1.0,-245.0,-49.0,0
2123,0.0,-244.0,-50.0,0
2124,-2.0,-243.0,-61.0,0
2125,-1.0,-242.0,-54.0,0
2126,1.0,-244.0,-53.0,0
2127,-3.0,-240.0,-53.0,0
2128,-1.0,-240.0,-51.0,0
2129,-1.0,-241.0,-52.0,0
2130,-3.0,-237.0,-47.0,0
2131,-1.0,-237.0,-50.0,0
2132,0.0,-237.0,-48.0,0
2133,-1.0,-235.0,-47.0,0
2134,0.0,-235.0,-45.0,0
2135,1.0,-237.0,-43.0,0
2136,0.0,-239.0,-47.0,0
2137,2.0,-233.0,-45.0,0
2138,3.0,-236.0,-44.0,0
2139,2.0,-236.0,-47.0,0
2140,2.0,-238.0,-42.0,0
2141,1.0,-235.0,-43.0,0
2142,5.0,-236.0,-40.0,0
2143,9.0,-237.0,-38.0,0
2144,3.0,-235.0,-42.0,0
2145,4.0,-239.0,-41.0,0
2146,3.0,-230.0,-35.0,0
2147,5.0,-236.0,-40.0,0
2148,2.0,-238.0,-39.0,0
2149,3.0,-237.0,-42.0,0
2150,1.0,-234.0,-42.0,0
2151,1.0,-235.0,-42.0,0
2152,2.0,-239.0,-37.0,0
2153,1.0,-238.0,-38.0,0
2154,3.0,-239.0,-39.0,0
2155,3.0,-243.0,-36.0,0
2156,5.0,-246.0,-34.0,0
2157,2.0,-243.0,-35.0,0
2158,5.0,-244.0,-34.0,0
2159,3.0,-247.0,-34.0,0
2160,5.0,-246.0,-34.0,0
2161,5.0,-249.0,-31.0,0
2162,3.0,-248.0,-32.0,0
2163,2.0,-248.0,-30.0,0
2164,2.0,-251.0,-28.0,0
2165,0.0,-251.0,-31.0,0
2166,2.0,-250.0,-31.0,0
2167,4.0,-251.0,-22.0,0
2168,3.0,-252.0,-39.0,0
2169,4.0,-249.0,-27.0,0
2170,-4.0,-250.0,-28.0,0
2171,1.0,-252.0,-27.0,0
2172,0.0,-251.0,-32.0,0
2173,4.0,-248.0,-25.0,0
2174,4.0,-249.0,-23.0,0
2175,1.0,-253.0,-31.0,0
2176,-2.0,-249.0,-21.0,0
2177,0.0,-251.0,-20.0,0
2178,6.0,-250.0,-19.0,0
2179,8.0,-249.0,-18.0,0
2180,8.0,-250.0,-21.0,0
2181,6.0,-255.0,-19.0,0
2182,14.0,-249.0,-18.0,0
2183,15.0,-251.0,-19.0,0
2184,2.0,-246.0,-11.0,0
2185,4.0,-240.0,-23.0,0
2186,8.0,-251.0,2.0,0
2187,7.0,-246.0,-18.0,0
2188,5.0,-246.0,-16.0,0
2189,4.0,-249.0,-12.0,0
2190,5.0,-246.0,-15.0,0
2191,3.0,-243.0,-16.0,0
2192,0.0,-245.0,-12.0,0
2193,0.0,-242.0,-13.0,0
2194,-2.0,-241.0,-12.0,0
2195,0.0,-243.0,-11.0,0
2196,-2.0,-248.0,-15.0,0
2197,7.0,-243.0,-13.0,0
2198,1.0,-248.0,-15.0,0
2199,1.0,-251.0,2.0,0
2200,3.0,-252.0,-8.0,0
2201,3.0,-255.0,-12.0,0
2202,3.0,-252.0,-14.0,0
2203,10.0,-254.0,-13.0,0
2204,6.0,-247.0,-19.0,0
2205,5.0,-259.0,-12.0,0
2206,11.0,-249.0,-18.0,0
2207,10.0,-253.0,-11.0,0
2208,8.0,-252.0,-13.0,0
2209,4.0,-251.0,-11.0,0
2210,3.0,-253.0,-11.0,0
2211,4.0,-253.0,-11.0,0
2212,6.0,-251.0,-1.0,0
2213,2.0,-249.0,-10.0,0
2214,9.0,-247.0,-9.0,0
2215,-1.0,-249.0,-7.0,0
2216,-1.0,-245.0,-14.0,0
2217,9.0,-257.0,-9.0,0
2218,4.0,-256.0,-4.0,0
2219,0.0,-258.0,1.0,0
2220,3.0,-258.0,-15.0,0
2221,0.0,-256.0,-10.0,0
2222,5.0,-251.0,-1.0,0
2223,-1.0,-255.0,-5.0,0
2224,-3.0,-252.0,-5.0,0
2225,0.0,-252.0,-3.0,0
2226,0.0,-251.0,-6.0,0
2227,7.0,-243.0,-7.0,0
2228,7.0,-258.0,-10.0,0
2229,13.0,-252.0,-6.0,0
2230,14.0,-255.0,8.0,0
2231,4.0,-246.0,5.0,0
2232,2.0,-256.0,-17.0,0
2233,3.0,-256.0,-3.0,0
2234,2.0,-263.0,-6.0,0
2235,-2.0,-269.0,-1.0,0
2236,5.0,-259.0,-7.0,0
2237,0.0,-268.0,3.0,0
2238,0.0,-262.0,-4.0,0
2239,1.0,-262.0,-2.0,0
2240,0.0,-257.0,-4.0,0
2241,3.0,-259.0,0.0,0
2242,5.0,-258.0,-2.0,0
2243,-1.0,-254.0,4.0,0
2244,0.0,-259.0,7.0,0
2245,5.0,-255.0,2.0,0
2246,3.0,-245.0,-8.0,0
2247,9.0,-268.0,-6.0,0
2248,12.0,-253.0,7.0,0
2249,7.0,-256.0,-11.0,0
2250,18.0,-251.0,-5.0,0
2251,5.0,-256.0,-9.0,0
2252,8.0,-261.0,1.0,0
2253,14.0,-261.0,-2.0,0
2254,8.0,-261.0,-5.0,0
2255,10.0,-260.0,-1.0,0
2256,9.0,-261.0,-3.0,0
2257,5.0,-260.0,4.0,0
2258,14.0,-262.0,13.0,0
2259,7.0,-265.0,-5.0,0
2260,7.0,-259.0,0.0,0
2261,6.0,-258.0,2.0,0
2262,8.0,-255.0,-3.0,0
2263,9.0,-250.0,-1.0,0
2264,7.0,-261.0,0.0,0
2265,3.0,-254.0,-2.0,0
2266,2.0,-257.0,-4.0,0
2267,2.0,-258.0,2.0,0
2268,0.0,-264.0,3.0,0
2269,-1.0,-261.0,3.0,0
2270,-3.0,-258.0,3.0,0
2271,-4.0,-258.0,2.0,0
2272,-2.0,-262.0,1.0,0
2273,-12.0,-266.0,-5.0,0
2274,-7.0,-259.0,2.0,0
2275,-7.0,-256.0,0.0,0
2276,-4.0,-257.0,4.0,0
2277,-8.0,-257.0,5.0,0
2278,-7.0,-254.0,5.0,0
2279,-7.0,-249.0,5.0,0
2280,-5.0,-250.0,2.0,0
2281,-3.0,-250.0,4.0,0
2282,0.0,-248.0,4.0,0
2283,0.0,-253.0,4.0,0
2284,0.0,-250.0,5.0,0
2285,6.0,-253.0,4.0,0
2286,8.0,-252.0,8.0,0
2287,3.0,-263.0,9.0,0
2288,10.0,-257.0,1.0,0
2289,13.0,-259.0,4.0,0
2290,11.0,-256.0,3.0,0
2291,10.0,-256.0,3.0,0
2292,12.0,-260.0,2.0,0
2293,10.0,-256.0,3.0,0
2294,11.0,-258.0,-3.0,0
2295,9.0,-254.0,-2.0,0
2296,8.0,-255.0,4.0,0
2297,8.0,-254.0,3.0,0
2298,13.0,-252.0,2.0,0
2299,4.0,-249.0,2.0,0
2300,4.0,-251.0,2.0,0
2301,6.0,-251.0,5.0,0
2302,4.0,-252.0,3.0,0
2303,4.0,-256.0,1.0,0
2304,1.0,-256.0,3.0,0
2305,0.0,-257.0,5.0,0
2306,1.0,-257.0,3.0,0
2307,0.0,-257.0,2.0,0
2308,1.0,-258.0,4.0,0
2309,0.0,-258.0,1.0,0
2310,0.0,-260.0,2.0,0
2311,0.0,-258.0,0.0,0
2312,1.0,-259.0,4.0,0
2313,1.0,-258.0,0.0,0
2314,1.0,-258.0,-1.0,0
2315,4.0,-260.0,3.0,0
2316,4.0,-258.0,2.0,0
2317,0.0,-259.0,2.0,0
2318,2.0,-256.0,5.0,0
2319,-8.0,-257.0,-2.0,0
2320,0.0,-256.0,3.0,0
2321,0.0,-256.0,4.0,0
2322,0.0,-257.0,3.0,0
2323,0.0,-255.0,2.0,0
2324,1.0,-258.0,6.0,0
2325,0.0,-256.0,7.0,0
2326,0.0,-256.0,6.0,0
2327,4.0,-262.0,4.0,0
2328,3.0,-257.0,4.0,0
2329,1.0,-258.0,4.0,0
2330,3.0,-259.0,2.0,0
2331,3.0,-256.0,2.0,0
2332,3.0,-256.0,3.0,0
2333,5.0,-256.0,3.0,0
2334,2.0,-257.0,1.0,0
2335,5.0,-253.0,2.0,0
2336,7.0,-255.0,4.0,0
2337,2.0,-253.0,3.0,0
2338,4.0,-254.0,1.0,0
2339,4.0,-253.0,1.0,0
2340,4.0,-252.0,0.0,0
2341,0.0,-261.0,-10.0,0
2342,1.0,-255.0,-2.0,0
2343,2.0,-256.0,2.0,0
2344,1.0,-253.0,2.0,0
2345,1.0,-257.0,1.0,0
2346,2.0,-255.0,2.0,0
2347,3.0,-256.0,8.0,0
2348,1.0,-258.0,7.0,0
2349,4.0,-259.0,3.0,0
2350,1.0,-259.0,5.0,0
2351,4.0,-259.0,3.0,0
2352,4.0,-258.0,1.0,0
2353,2.0,-256.0,4.0,0
2354,4.0,-255.0,-1.0,0
2355,3.0,-253.0,-1.0,0
2356,4.0,-249.0,1.0,0
2357,4.0,-250.0,0.0,0
2358,4.0,-249.0,0.0,0
2359,1.0,-249.0,-2.0,0
2360,1.0,-251.0,0.0,0
2361,1.0,-253.0,-3.0,0
2362,6.0,-255.0,-5.0,0
2363,1.0,-254.0,0.0,0
2364,1.0,-257.0,1.0,0
2365,2.0,-260.0,-4.0,0
2366,1.0,-260.0,0.0,0
2367,6.0,-262.0,-1.0,0
2368,2.0,-262.0,1.0,0
2369,1.0,-261.0,0.0,0
2370,1.0,-264.0,-3.0,0
2371,0.0,-260.0,-2.0,0
2372,6.0,-256.0,0.0,0
2373,4.0,-255.0,-5.0,0
2374,2.0,-257.0,-2.0,0
2375,2.0,-254.0,-5.0,0
2376,3.0,-254.0,-7.0,0
2377,3.0,-251.0,-4.0,0
2378,6.0,-254.0,-3.0,0
2379,5.0,-256.0,-5.0,0
2380,7.0,-256.0,-6.0,0
2381,4.0,-257.0,-1.0,0
2382,5.0,-258.0,-4.0,0
2383,4.0,-258.0,-2.0,0
2384,5.0,-270.0,3.0,0
2385,4.0,-258.0,-4.0,0
2386,3.0,-260.0,-7.0,0
2387,2.0,-260.0,-2.0,0
2388,0.0,-258.0,-3.0,0
2389,1.0,-259.0,-3.0,0
2390,0.0,-256.0,1.0,0
2391,0.0,-258.0,-4.0,0
2392,0.0,-257.0,-5.0,0
2393,1.0,-258.0,0.0,0
2394,1.0,-256.0,-3.0,0
2395,2.0,-256.0,6.0,0
2396,0.0,-255.0,-2.0,0
2397,0.0,-252.0,-2.0,0
2398,3.0,-255.0,-2.0,0
2399,1.0,-253.0,-2.0,0
