,accelerometer_x,accelerometer_y,accelerometer_z,fall
0,4.0,-242.0,59.0,0
1,2.0,-240.0,55.0,0
2,1.0,-242.0,60.0,0
3,2.0,-238.0,62.0,0
4,4.0,-240.0,61.0,0
5,5.0,-241.0,54.0,0
6,1.0,-238.0,58.0,0
7,5.0,-244.0,56.0,0
8,1.0,-240.0,60.0,0
9,0.0,-241.0,60.0,0
10,0.0,-239.0,62.0,0
11,0.0,-240.0,62.0,0
12,1.0,-240.0,64.0,0
13,2.0,-250.0,59.0,0
14,0.0,-247.0,57.0,0
15,1.0,-244.0,54.0,0
16,5.0,-243.0,60.0,0
17,3.0,-246.0,57.0,0
18,4.0,-241.0,57.0,0
19,2.0,-241.0,60.0,0
20,-2.0,-237.0,58.0,0
21,2.0,-239.0,60.0,0
22,6.0,-240.0,58.0,0
23,1.0,-242.0,61.0,0
24,5.0,-240.0,62.0,0
25,0.0,-236.0,66.0,0
26,1.0,-244.0,67.0,0
27,0.0,-238.0,65.0,0
28,3.0,-241.0,63.0,0
29,3.0,-240.0,60.0,0
30,4.0,-235.0,62.0,0
31,2.0,-239.0,62.0,0
32,1.0,-235.0,62.0,0
33,5.0,-242.0,60.0,0
34,5.0,-241.0,60.0,0
35,2.0,-239.0,63.0,0
36,4.0,-243.0,60.0,0
37,4.0,-243.0,60.0,0
38,2.0,-238.0,62.0,0
39,5.0,-241.0,62.0,0
40,0.0,-239.0,62.0,0
41,1.0,-238.0,60.0,0
42,3.0,-240.0,63.0,0
43,2.0,-239.0,58.0,0
44,0.0,-239.0,59.0,0
45,2.0,-242.0,61.0,0
46,0.0,-239.0,57.0,0
47,1.0,-241.0,63.0,0
48,1.0,-238.0,63.0,0
49,2.0,-240.0,62.0,0
50,0.0,-241.0,59.0,0
51,4.0,-241.0,63.0,0
52,2.0,-242.0,62.0,0
53,3.0,-239.0,60.0,0
54,0.0,-242.0,60.0,0
55,1.0,-242.0,60.0,0
56,3.0,-241.0,62.0,0
57,0.0,-242.0,59.0,0
58,-1.0,-236.0,60.0,0
59,3.0,-239.0,63.0,0
60,2.0,-236.0,60.0,0
61,0.0,-236.0,60.0,0
62,4.0,-238.0,61.0,0
63,1.0,-237.0,61.0,0
64,1.0,-238.0,62.0,0
65,2.0,-239.0,61.0,0
66,1.0,-240.0,56.0,0
67,2.0,-247.0,60.0,0
68,1.0,-241.0,65.0,0
69,1.0,-236.0,65.0,0
70,0.0,-242.0,66.0,0
71,1.0,-242.0,63.0,0
72,3.0,-240.0,57.0,0
73,2.0,-240.0,62.0,0
74,2.0,-241.0,61.0,0
75,0.0,-242.0,57.0,0
76,3.0,-241.0,60.0,0
77,2.0,-243.0,58.0,0
78,2.0,-244.0,58.0,0
79,3.0,-243.0,62.0,0
80,8.0,-240.0,61.0,0
81,1.0,-231.0,63.0,0
82,3.0,-240.0,63.0,0
83,1.0,-239.0,60.0,0
84,0.0,-236.0,65.0,0
85,2.0,-240.0,60.0,0
86,5.0,-238.0,62.0,0
87,1.0,-241.0,59.0,0
88,3.0,-239.0,64.0,0
89,0.0,-240.0,56.0,0
90,7.0,-235.0,64.0,0
91,2.0,-236.0,65.0,0
92,3.0,-241.0,60.0,0
93,1.0,-238.0,61.0,0
94,1.0,-240.0,60.0,0
95,0.0,-238.0,66.0,0
96,3.0,-239.0,61.0,0
97,2.0,-239.0,63.0,0
98,3.0,-245.0,62.0,0
99,2.0,-244.0,61.0,0
100,2.0,-246.0,60.0,0
101,-1.0,-239.0,59.0,0
102,7.0,-244.0,64.0,0
103,2.0,-237.0,62.0,0
104,1.0,-240.0,61.0,0
105,0.0,-240.0,61.0,0
106,4.0,-241.0,59.0,0
107,3.0,-241.0,61.0,0
108,3.0,-240.0,61.0,0
109,2.0,-236.0,62.0,0
110,2.0,-238.0,58.0,0
111,1.0,-238.0,62.0,0
112,3.0,-238.0,63.0,0
113,1.0,-239.0,61.0,0
114,1.0,-241.0,63.0,0
115,2.0,-239.0,62.0,0
116,5.0,-241.0,61.0,0
117,3.0,-240.0,60.0,0
118,5.0,-239.0,61.0,0
119,3.0,-239.0,61.0,0
120,3.0,-240.0,62.0,0
121,5.0,-237.0,64.0,0
122,4.0,-238.0,60.0,0
123,6.0,-239.0,59.0,0
124,1.0,-236.0,59.0,0
125,5.0,-244.0,58.0,0
126,3.0,-243.0,62.0,0
127,1.0,-241.0,63.0,0
128,1.0,-239.0,60.0,0
129,2.0,-241.0,64.0,0
130,0.0,-240.0,60.0,0
131,4.0,-238.0,59.0,0
132,1.0,-236.0,60.0,0
133,1.0,-237.0,61.0,0
134,5.0,-241.0,58.0,0
135,7.0,-240.0,65.0,0
136,2.0,-236.0,59.0,0
137,2.0,-239.0,60.0,0
138,0.0,-236.0,63.0,0
139,2.0,-239.0,64.0,0
140,5.0,-241.0,63.0,0
141,3.0,-238.0,61.0,0
142,3.0,-244.0,62.0,0
143,5.0,-239.0,60.0,0
144,4.0,-243.0,63.0,0
145,4.0,-235.0,67.0,0
146,3.0,-244.0,56.0,0
147,3.0,-240.0,59.0,0
148,3.0,-242.0,63.0,0
149,2.0,-240.0,60.0,0
150,1.0,-239.0,59.0,0
151,3.0,-239.0,62.0,0
152,3.0,-240.0,59.0,0
153,2.0,-242.0,61.0,0
154,0.0,-237.0,60.0,0
155,1.0,-240.0,59.0,0
156,2.0,-239.0,61.0,0
157,0.0,-246.0,58.0,0
158,2.0,-240.0,64.0,0
159,2.0,-239.0,63.0,0
160,2.0,-243.0,60.0,0
161,0.0,-237.0,61.0,0
162,3.0,-241.0,61.0,0
163,0.0,-235.0,60.0,0
164,1.0,-238.0,61.0,0
165,3.0,-239.0,63.0,0
166,6.0,-241.0,60.0,0
167,0.0,-239.0,60.0,0
168,0.0,-239.0,63.0,0
169,2.0,-243.0,61.0,0
170,3.0,-240.0,62.0,0
171,2.0,-239.0,62.0,0
172,2.0,-242.0,63.0,0
173,4.0,-240.0,65.0,0
174,2.0,-241.0,62.0,0
175,3.0,-242.0,62.0,0
176,2.0,-241.0,64.0,0
177,1.0,-238.0,60.0,0
178,2.0,-238.0,63.0,0
179,6.0,-239.0,63.0,0
180,1.0,-239.0,63.0,0
181,3.0,-243.0,60.0,0
182,0.0,-241.0,62.0,0
183,1.0,-239.0,62.0,0
184,3.0,-239.0,60.0,0
185,4.0,-236.0,59.0,0
186,7.0,-237.0,57.0,0
187,1.0,-238.0,65.0,0
188,2.0,-238.0,63.0,0
189,2.0,-241.0,59.0,0
190,2.0,-237.0,59.0,0
191,1.0,-240.0,60.0,0
192,1.0,-240.0,61.0,0
193,2.0,-239.0,62.0,0
194,3.0,-239.0,63.0,0
195,4.0,-237.0,59.0,0
196,1.0,-237.0,59.0,0
197,1.0,-241.0,64.0,0
198,4.0,-229.0,59.0,0
199,6.0,-240.0,61.0,0
200,5.0,-241.0,63.0,0
201,4.0,-238.0,61.0,0
202,1.0,-242.0,64.0,0
203,1.0,-241.0,62.0,0
204,3.0,-243.0,60.0,0
205,1.0,-243.0,64.0,0
206,1.0,-242.0,64.0,0
207,3.0,-246.0,65.0,0
208,0.0,-245.0,61.0,0
209,0.0,-240.0,61.0,0
210,2.0,-239.0,68.0,0
211,8.0,-243.0,62.0,0
212,3.0,-242.0,58.0,0
213,4.0,-240.0,60.0,0
214,4.0,-239.0,59.0,0
215,2.0,-240.0,59.0,0
216,3.0,-241.0,59.0,0
217,2.0,-235.0,60.0,0
218,4.0,-239.0,58.0,0
219,3.0,-242.0,55.0,0
220,3.0,-240.0,64.0,0
221,-1.0,-238.0,59.0,0
222,9.0,-236.0,61.0,0
223,2.0,-238.0,62.0,0
224,2.0,-239.0,64.0,0
225,2.0,-238.0,64.0,0
226,1.0,-237.0,62.0,0
227,1.0,-240.0,64.0,0
228,1.0,-240.0,58.0,0
229,4.0,-238.0,57.0,0
230,1.0,-236.0,58.0,0
231,1.0,-235.0,63.0,0
232,0.0,-241.0,61.0,0
233,4.0,-236.0,58.0,0
234,2.0,-239.0,60.0,0
235,2.0,-239.0,61.0,0
236,3.0,-241.0,63.0,0
237,4.0,-241.0,62.0,0
238,4.0,-242.0,60.0,0
239,2.0,-242.0,59.0,0
240,3.0,-240.0,59.0,0
241,3.0,-241.0,60.0,0
242,4.0,-242.0,60.0,0
243,4.0,-238.0,59.0,0
244,4.0,-239.0,55.0,0
245,0.0,-238.0,59.0,0
246,1.0,-239.0,61.0,0
247,1.0,-240.0,58.0,0
248,1.0,-236.0,60.0,0
249,2.0,-241.0,60.0,0
250,3.0,-239.0,63.0,0
251,1.0,-240.0,57.0,0
252,4.0,-239.0,60.0,0
253,1.0,-237.0,61.0,0
254,3.0,-240.0,66.0,0
255,5.0,-244.0,59.0,0
256,2.0,-239.0,59.0,0
257,1.0,-238.0,58.0,0
258,0.0,-239.0,62.0,0
259,3.0,-240.0,62.0,0
260,2.0,-241.0,61.0,0
261,2.0,-240.0,64.0,0
262,5.0,-242.0,64.0,0
263,0.0,-240.0,58.0,0
264,2.0,-239.0,64.0,0
265,5.0,-240.0,60.0,0
266,4.0,-241.0,62.0,0
267,2.0,-239.0,62.0,0
268,1.0,-238.0,61.0,0
269,-2.0,-239.0,62.0,0
270,0.0,-240.0,61.0,0
271,1.0,-239.0,56.0,0
272,0.0,-243.0,58.0,0
273,3.0,-245.0,58.0,0
274,3.0,-244.0,62.0,0
275,2.0,-242.0,58.0,0
276,2.0,-243.0,60.0,0
277,1.0,-239.0,62.0,0
278,2.0,-239.0,60.0,0
279,3.0,-239.0,61.0,0
280,0.0,-240.0,62.0,0
281,2.0,-240.0,61.0,0
282,1.0,-240.0,59.0,0
283,2.0,-237.0,62.0,0
284,0.0,-237.0,53.0,0
285,3.0,-238.0,62.0,0
286,5.0,-239.0,58.0,0
287,4.0,-240.0,57.0,0
288,3.0,-237.0,55.0,0
289,3.0,-240.0,60.0,0
290,3.0,-242.0,59.0,0
291,1.0,-243.0,61.0,0
292,3.0,-241.0,60.0,0
293,2.0,-243.0,59.0,0
294,1.0,-241.0,58.0,0
295,1.0,-239.0,59.0,0
296,3.0,-242.0,63.0,0
297,2.0,-242.0,55.0,0
298,1.0,-241.0,63.0,0
299,2.0,-242.0,57.0,0
300,0.0,-238.0,53.0,0
301,3.0,-239.0,58.0,0
302,1.0,-240.0,60.0,0
303,1.0,-240.0,58.0,0
304,1.0,-241.0,59.0,0
305,3.0,-240.0,57.0,0
306,0.0,-244.0,59.0,0
307,1.0,-244.0,56.0,0
308,2.0,-243.0,59.0,0
309,8.0,-243.0,50.0,0
310,4.0,-239.0,56.0,0
311,1.0,-244.0,59.0,0
312,1.0,-242.0,58.0,0
313,1.0,-239.0,55.0,0
314,2.0,-244.0,60.0,0
315,1.0,-241.0,58.0,0
316,4.0,-243.0,60.0,0
317,3.0,-241.0,56.0,0
318,3.0,-242.0,53.0,0
319,1.0,-244.0,61.0,0
320,13.0,-240.0,51.0,0
321,5.0,-242.0,56.0,0
322,1.0,-241.0,59.0,0
323,1.0,-238.0,55.0,0
324,4.0,-246.0,61.0,0
325,2.0,-241.0,54.0,0
326,5.0,-243.0,59.0,0
327,2.0,-241.0,59.0,0
328,2.0,-245.0,59.0,0
329,4.0,-243.0,61.0,0
330,1.0,-241.0,55.0,0
331,1.0,-240.0,60.0,0
332,1.0,-240.0,60.0,0
333,1.0,-240.0,60.0,0
334,2.0,-239.0,56.0,0
335,2.0,-241.0,59.0,0
336,2.0,-241.0,60.0,0
337,0.0,-239.0,61.0,0
338,1.0,-236.0,57.0,0
339,4.0,-244.0,60.0,0
340,3.0,-240.0,56.0,0
341,3.0,-243.0,57.0,0
342,3.0,-240.0,53.0,0
343,3.0,-243.0,60.0,0
344,2.0,-240.0,57.0,0
345,1.0,-241.0,57.0,0
346,0.0,-239.0,60.0,0
347,0.0,-239.0,60.0,0
348,3.0,-245.0,56.0,0
349,4.0,-242.0,62.0,0
350,0.0,-238.0,53.0,0
351,1.0,-241.0,57.0,0
352,3.0,-239.0,61.0,0
353,2.0,-239.0,61.0,0
354,2.0,-240.0,59.0,0
355,4.0,-241.0,58.0,0
356,3.0,-242.0,59.0,0
357,1.0,-241.0,58.0,0
358,2.0,-241.0,60.0,0
359,2.0,-241.0,60.0,0
360,1.0,-240.0,57.0,0
361,2.0,-241.0,63.0,0
362,4.0,-243.0,62.0,0
363,0.0,-245.0,58.0,0
364,-1.0,-244.0,54.0,0
365,1.0,-237.0,57.0,0
366,1.0,-242.0,57.0,0
367,3.0,-239.0,59.0,0
368,1.0,-239.0,58.0,0
369,3.0,-240.0,58.0,0
370,3.0,-241.0,61.0,0
371,6.0,-238.0,55.0,0
372,0.0,-235.0,55.0,0
373,5.0,-242.0,58.0,0
374,1.0,-240.0,60.0,0
375,8.0,-240.0,63.0,0
376,0.0,-243.0,56.0,0
377,3.0,-242.0,58.0,0
378,2.0,-242.0,59.0,0
379,0.0,-242.0,59.0,0
380,1.0,-240.0,58.0,0
381,0.0,-240.0,62.0,0
382,3.0,-240.0,59.0,0
383,2.0,-240.0,62.0,0
384,3.0,-244.0,58.0,0
385,0.0,-242.0,56.0,0
386,1.0,-240.0,58.0,0
387,1.0,-240.0,59.0,0
388,1.0,-243.0,61.0,0
389,2.0,-242.0,59.0,0
390,0.0,-238.0,61.0,0
391,3.0,-242.0,63.0,0
392,2.0,-237.0,61.0,0
393,3.0,-243.0,61.0,0
394,0.0,-239.0,63.0,0
395,1.0,-245.0,62.0,0
396,9.0,-245.0,59.0,0
397,1.0,-240.0,59.0,0
398,2.0,-239.0,59.0,0
399,2.0,-244.0,59.0,0
400,0.0,-243.0,57.0,0
401,1.0,-241.0,58.0,0
402,1.0,-240.0,59.0,0
403,2.0,-241.0,59.0,0
404,2.0,-243.0,62.0,0
405,0.0,-238.0,58.0,0
406,2.0,-240.0,59.0,0
407,5.0,-240.0,56.0,0
408,0.0,-239.0,60.0,0
409,0.0,-237.0,62.0,0
410,1.0,-237.0,56.0,0
411,3.0,-237.0,58.0,0
412,4.0,-239.0,62.0,0
413,0.0,-238.0,61.0,0
414,2.0,-242.0,59.0,0
415,1.0,-238.0,62.0,0
416,2.0,-239.0,57.0,0
417,2.0,-239.0,59.0,0
418,0.0,-246.0,62.0,0
419,1.0,-241.0,61.0,0
420,1.0,-241.0,60.0,0
421,1.0,-240.0,57.0,0
422,1.0,-239.0,62.0,0
423,3.0,-241.0,63.0,0
424,0.0,-242.0,61.0,0
425,0.0,-241.0,63.0,0
426,2.0,-239.0,57.0,0
427,0.0,-239.0,52.0,0
428,1.0,-240.0,60.0,0
429,0.0,-238.0,63.0,0
430,-2.0,-240.0,58.0,0
431,3.0,-243.0,62.0,0
432,6.0,-244.0,60.0,0
433,2.0,-239.0,61.0,0
434,3.0,-241.0,62.0,0
435,0.0,-241.0,58.0,0
436,1.0,-239.0,60.0,0
437,0.0,-237.0,60.0,0
438,1.0,-238.0,60.0,0
439,2.0,-239.0,62.0,0
440,5.0,-241.0,59.0,0
441,1.0,-238.0,61.0,0
442,0.0,-240.0,63.0,0
443,1.0,-239.0,62.0,0
444,2.0,-239.0,61.0,0
445,0.0,-240.0,61.0,0
446,3.0,-239.0,63.0,0
447,3.0,-237.0,66.0,0
448,3.0,-242.0,64.0,0
449,3.0,-241.0,63.0,0
450,0.0,-236.0,61.0,0
451,1.0,-240.0,63.0,0
452,1.0,-242.0,63.0,0
453,0.0,-239.0,60.0,0
454,1.0,-241.0,62.0,0
455,2.0,-239.0,65.0,0
456,1.0,-241.0,59.0,0
457,1.0,-242.0,58.0,0
458,1.0,-243.0,62.0,0
459,1.0,-243.0,62.0,0
460,0.0,-240.0,60.0,0
461,2.0,-243.0,60.0,0
462,0.0,-241.0,55.0,0
463,2.0,-242.0,58.0,0
464,3.0,-240.0,61.0,0
465,3.0,-239.0,63.0,0
466,4.0,-239.0,61.0,0
467,3.0,-240.0,64.0,0
468,1.0,-241.0,61.0,0
469,4.0,-241.0,60.0,0
470,3.0,-244.0,58.0,0
471,0.0,-239.0,60.0,0
472,0.0,-239.0,63.0,0
473,2.0,-239.0,55.0,0
474,2.0,-237.0,61.0,0
475,2.0,-240.0,62.0,0
476,2.0,-240.0,62.0,0
477,2.0,-239.0,62.0,0
478,2.0,-239.0,62.0,0
479,2.0,-239.0,59.0,0
480,0.0,-240.0,58.0,0
481,-1.0,-244.0,62.0,0
482,0.0,-239.0,58.0,0
483,1.0,-236.0,61.0,0
484,2.0,-238.0,63.0,0
485,1.0,-240.0,61.0,0
486,1.0,-238.0,63.0,0
487,3.0,-241.0,61.0,0
488,0.0,-237.0,60.0,0
489,3.0,-240.0,59.0,0
490,5.0,-242.0,59.0,0
491,4.0,-241.0,58.0,0
492,7.0,-241.0,61.0,0
493,0.0,-240.0,62.0,0
494,5.0,-244.0,54.0,0
495,2.0,-240.0,60.0,0
496,1.0,-242.0,62.0,0
497,0.0,-241.0,62.0,0
498,1.0,-241.0,62.0,0
499,0.0,-236.0,57.0,0
500,0.0,-240.0,59.0,0
501,5.0,-242.0,63.0,0
502,1.0,-241.0,61.0,0
503,2.0,-239.0,64.0,0
504,4.0,-237.0,57.0,0
505,3.0,-239.0,57.0,0
506,1.0,-240.0,62.0,0
507,1.0,-239.0,56.0,0
508,3.0,-242.0,61.0,0
509,2.0,-242.0,58.0,0
510,0.0,-242.0,61.0,0
511,1.0,-242.0,62.0,0
512,1.0,-239.0,58.0,0
513,0.0,-241.0,62.0,0
514,2.0,-241.0,64.0,0
515,4.0,-244.0,60.0,0
516,10.0,-242.0,58.0,0
517,0.0,-243.0,61.0,0
518,4.0,-242.0,63.0,0
519,2.0,-241.0,61.0,0
520,2.0,-240.0,61.0,0
521,1.0,-241.0,62.0,0
522,0.0,-236.0,60.0,0
523,2.0,-238.0,63.0,0
524,3.0,-239.0,63.0,0
525,7.0,-239.0,64.0,0
526,1.0,-239.0,60.0,0
527,-2.0,-247.0,63.0,0
528,2.0,-237.0,60.0,0
529,2.0,-241.0,62.0,0
530,0.0,-241.0,61.0,0
531,1.0,-239.0,59.0,0
532,2.0,-243.0,61.0,0
533,1.0,-237.0,64.0,0
534,0.0,-243.0,59.0,0
535,3.0,-241.0,64.0,0
536,-2.0,-240.0,60.0,0
537,1.0,-241.0,64.0,0
538,2.0,-242.0,58.0,0
539,1.0,-238.0,63.0,0
540,0.0,-237.0,61.0,0
541,1.0,-240.0,62.0,0
542,3.0,-241.0,63.0,0
543,0.0,-240.0,62.0,0
544,1.0,-239.0,61.0,0
545,1.0,-239.0,60.0,0
546,2.0,-239.0,62.0,0
547,0.0,-242.0,59.0,0
548,1.0,-243.0,61.0,0
549,6.0,-242.0,57.0,0
550,0.0,-240.0,60.0,0
551,-1.0,-240.0,61.0,0
552,1.0,-238.0,63.0,0
553,2.0,-242.0,62.0,0
554,0.0,-237.0,60.0,0
555,2.0,-242.0,63.0,0
556,1.0,-240.0,62.0,0
557,4.0,-246.0,62.0,0
558,-2.0,-239.0,57.0,0
559,0.0,-240.0,60.0,0
560,0.0,-246.0,61.0,0
561,0.0,-241.0,61.0,0
562,1.0,-239.0,60.0,0
563,1.0,-242.0,62.0,0
564,1.0,-241.0,58.0,0
565,1.0,-238.0,61.0,0
566,1.0,-242.0,61.0,0
567,3.0,-238.0,59.0,0
568,2.0,-236.0,66.0,0
569,1.0,-240.0,60.0,0
570,2.0,-238.0,61.0,0
571,-3.0,-239.0,60.0,0
572,0.0,-240.0,62.0,0
573,4.0,-239.0,60.0,0
574,1.0,-240.0,63.0,0
575,1.0,-242.0,62.0,0
576,2.0,-240.0,62.0,0
577,0.0,-239.0,63.0,0
578,4.0,-241.0,63.0,0
579,0.0,-239.0,56.0,0
580,3.0,-244.0,62.0,0
581,-1.0,-243.0,64.0,0
582,0.0,-246.0,57.0,0
583,1.0,-240.0,59.0,0
584,0.0,-241.0,59.0,0
585,1.0,-239.0,63.0,0
586,0.0,-241.0,60.0,0
587,3.0,-242.0,57.0,0
588,1.0,-240.0,55.0,0
589,1.0,-236.0,57.0,0
590,2.0,-238.0,63.0,0
591,5.0,-239.0,61.0,0
592,0.0,-244.0,62.0,0
593,1.0,-241.0,62.0,0
594,1.0,-234.0,63.0,0
595,-1.0,-239.0,65.0,0
596,0.0,-235.0,64.0,0
597,3.0,-236.0,62.0,0
598,-1.0,-238.0,61.0,0
599,0.0,-237.0,59.0,0
600,1.0,-234.0,62.0,0
601,-1.0,-236.0,62.0,0
602,2.0,-244.0,64.0,0
603,0.0,-237.0,63.0,0
604,1.0,-239.0,61.0,0
605,0.0,-237.0,62.0,0
606,0.0,-240.0,63.0,0
607,2.0,-239.0,63.0,0
608,0.0,-239.0,61.0,0
609,1.0,-238.0,61.0,0
610,0.0,-239.0,61.0,0
611,3.0,-241.0,62.0,0
612,0.0,-243.0,65.0,0
613,2.0,-240.0,63.0,0
614,-2.0,-238.0,54.0,0
615,1.0,-242.0,63.0,0
616,1.0,-239.0,62.0,0
617,0.0,-237.0,63.0,0
618,2.0,-237.0,62.0,0
619,0.0,-239.0,60.0,0
620,0.0,-239.0,62.0,0
621,2.0,-245.0,65.0,0
622,0.0,-241.0,63.0,0
623,2.0,-236.0,63.0,0
624,2.0,-235.0,65.0,0
625,3.0,-237.0,67.0,0
626,3.0,-241.0,59.0,0
627,2.0,-239.0,62.0,0
628,1.0,-236.0,62.0,0
629,1.0,-238.0,62.0,0
630,0.0,-238.0,64.0,0
631,0.0,-240.0,62.0,0
632,0.0,-240.0,63.0,0
633,2.0,-240.0,65.0,0
634,0.0,-241.0,62.0,0
635,5.0,-240.0,63.0,0
636,3.0,-243.0,70.0,0
637,1.0,-238.0,63.0,0
638,1.0,-239.0,60.0,0
639,0.0,-240.0,64.0,0
640,1.0,-239.0,63.0,0
641,-1.0,-239.0,60.0,0
642,3.0,-242.0,61.0,0
643,0.0,-240.0,61.0,0
644,4.0,-241.0,59.0,0
645,3.0,-239.0,64.0,0
646,3.0,-240.0,59.0,0
647,0.0,-242.0,65.0,0
648,0.0,-237.0,63.0,0
649,1.0,-238.0,61.0,0
650,2.0,-238.0,66.0,0
651,1.0,-238.0,63.0,0
652,2.0,-240.0,63.0,0
653,0.0,-240.0,62.0,0
654,1.0,-239.0,65.0,0
655,0.0,-236.0,63.0,0
656,2.0,-239.0,65.0,0
657,2.0,-242.0,64.0,0
658,1.0,-242.0,64.0,0
659,1.0,-242.0,63.0,0
660,0.0,-239.0,63.0,0
661,0.0,-236.0,63.0,0
662,0.0,-241.0,62.0,0
663,0.0,-239.0,63.0,0
664,1.0,-237.0,63.0,0
665,3.0,-243.0,64.0,0
666,0.0,-239.0,65.0,0
667,0.0,-240.0,64.0,0
668,2.0,-242.0,59.0,0
669,1.0,-243.0,64.0,0
670,2.0,-240.0,62.0,0
671,1.0,-239.0,61.0,0
672,1.0,-239.0,55.0,0
673,0.0,-239.0,61.0,0
674,1.0,-241.0,59.0,0
675,1.0,-239.0,63.0,0
676,-1.0,-241.0,64.0,0
677,0.0,-237.0,57.0,0
678,4.0,-240.0,63.0,0
679,0.0,-243.0,61.0,0
680,-1.0,-233.0,60.0,0
681,2.0,-242.0,62.0,0
682,1.0,-240.0,60.0,0
683,0.0,-239.0,60.0,0
684,1.0,-240.0,62.0,0
685,2.0,-239.0,65.0,0
686,3.0,-242.0,63.0,0
687,5.0,-242.0,62.0,0
688,1.0,-242.0,59.0,0
689,2.0,-244.0,61.0,0
690,1.0,-242.0,60.0,0
691,-1.0,-238.0,60.0,0
692,1.0,-240.0,61.0,0
693,1.0,-241.0,59.0,0
694,1.0,-239.0,61.0,0
695,4.0,-240.0,60.0,0
696,1.0,-240.0,62.0,0
697,3.0,-240.0,60.0,0
698,2.0,-240.0,58.0,0
699,0.0,-242.0,60.0,0
700,2.0,-242.0,63.0,0
701,3.0,-242.0,60.0,0
702,2.0,-239.0,58.0,0
703,0.0,-240.0,62.0,0
704,0.0,-242.0,57.0,0
705,1.0,-239.0,61.0,0
706,2.0,-238.0,59.0,0
707,1.0,-240.0,58.0,0
708,3.0,-241.0,64.0,0
709,4.0,-238.0,61.0,0
710,1.0,-241.0,61.0,0
711,0.0,-241.0,63.0,0
712,-2.0,-237.0,59.0,0
713,1.0,-240.0,61.0,0
714,0.0,-237.0,63.0,0
715,0.0,-239.0,62.0,0
716,1.0,-238.0,60.0,0
717,1.0,-240.0,61.0,0
718,1.0,-238.0,62.0,0
719,1.0,-239.0,61.0,0
720,2.0,-239.0,64.0,0
721,2.0,-240.0,64.0,0
722,1.0,-238.0,61.0,0
723,-2.0,-242.0,59.0,0
724,1.0,-243.0,61.0,0
725,2.0,-244.0,59.0,0
726,1.0,-241.0,61.0,0
727,0.0,-238.0,57.0,0
728,-1.0,-240.0,59.0,0
729,0.0,-241.0,56.0,0
730,1.0,-240.0,63.0,0
731,1.0,-236.0,56.0,0
732,0.0,-242.0,61.0,0
733,-1.0,-238.0,59.0,0
734,2.0,-244.0,57.0,0
735,-1.0,-242.0,56.0,0
736,1.0,-242.0,56.0,0
737,1.0,-243.0,56.0,0
738,0.0,-240.0,59.0,0
739,1.0,-240.0,62.0,0
740,1.0,-244.0,60.0,0
741,0.0,-242.0,59.0,0
742,0.0,-241.0,60.0,0
743,0.0,-240.0,58.0,0
744,-2.0,-238.0,61.0,0
745,1.0,-240.0,59.0,0
746,1.0,-238.0,58.0,0
747,0.0,-239.0,61.0,0
748,1.0,-238.0,58.0,0
749,0.0,-238.0,61.0,0
750,0.0,-238.0,59.0,0
751,1.0,-238.0,61.0,0
752,2.0,-237.0,57.0,0
753,1.0,-239.0,54.0,0
754,5.0,-240.0,60.0,0
755,2.0,-238.0,57.0,0
756,6.0,-242.0,62.0,0
757,3.0,-242.0,58.0,0
758,5.0,-240.0,56.0,0
759,2.0,-243.0,56.0,0
760,0.0,-241.0,61.0,0
761,0.0,-243.0,57.0,0
762,2.0,-244.0,60.0,0
763,1.0,-241.0,56.0,0
764,-1.0,-242.0,57.0,0
765,1.0,-247.0,58.0,0
766,1.0,-244.0,54.0,0
767,5.0,-245.0,52.0,0
768,4.0,-241.0,59.0,0
769,5.0,-244.0,59.0,0
770,2.0,-243.0,57.0,0
771,0.0,-239.0,56.0,0
772,1.0,-238.0,60.0,0
773,1.0,-243.0,60.0,0
774,2.0,-236.0,56.0,0
775,4.0,-238.0,57.0,0
776,0.0,-237.0,56.0,0
777,1.0,-239.0,53.0,0
778,2.0,-239.0,59.0,0
779,0.0,-236.0,62.0,0
780,0.0,-239.0,55.0,0
781,1.0,-241.0,59.0,0
782,0.0,-236.0,56.0,0
783,0.0,-239.0,61.0,0
784,0.0,-236.0,57.0,0
785,0.0,-236.0,57.0,0
786,3.0,-237.0,60.0,0
787,1.0,-239.0,57.0,0
788,1.0,-239.0,60.0,0
789,2.0,-239.0,57.0,0
790,1.0,-239.0,55.0,0
791,1.0,-240.0,56.0,0
792,2.0,-242.0,55.0,0
793,2.0,-242.0,56.0,0
794,0.0,-243.0,55.0,0
795,4.0,-243.0,54.0,0
796,1.0,-240.0,53.0,0
797,4.0,-245.0,51.0,0
798,2.0,-249.0,53.0,0
799,3.0,-251.0,60.0,0
800,1.0,-238.0,53.0,0
801,5.0,-243.0,47.0,0
802,2.0,-239.0,50.0,0
803,2.0,-244.0,49.0,0
804,1.0,-237.0,56.0,0
805,2.0,-242.0,56.0,0
806,3.0,-243.0,52.0,0
807,1.0,-241.0,51.0,0
808,1.0,-240.0,56.0,0
809,3.0,-243.0,51.0,0
810,0.0,-241.0,52.0,0
811,1.0,-242.0,51.0,0
812,1.0,-238.0,53.0,0
813,0.0,-241.0,53.0,0
814,0.0,-239.0,54.0,0
815,1.0,-239.0,52.0,0
816,1.0,-242.0,48.0,0
817,0.0,-240.0,43.0,0
818,3.0,-243.0,53.0,0
819,1.0,-242.0,50.0,0
820,-2.0,-238.0,46.0,0
821,0.0,-238.0,45.0,0
822,2.0,-240.0,46.0,0
823,1.0,-240.0,50.0,0
824,3.0,-241.0,48.0,0
825,2.0,-243.0,48.0,0
826,4.0,-243.0,48.0,0
827,1.0,-242.0,44.0,0
828,2.0,-246.0,46.0,0
829,1.0,-243.0,45.0,0
830,1.0,-243.0,43.0,0
831,-3.0,-239.0,42.0,0
832,2.0,-248.0,47.0,0
833,1.0,-243.0,49.0,0
834,-1.0,-243.0,47.0,0
835,0.0,-245.0,44.0,0
836,-1.0,-242.0,44.0,0
837,0.0,-246.0,45.0,0
838,2.0,-245.0,41.0,0
839,2.0,-244.0,47.0,0
840,2.0,-242.0,46.0,0
841,1.0,-247.0,45.0,0
842,-2.0,-243.0,42.0,0
843,2.0,-244.0,41.0,0
844,2.0,-241.0,41.0,0
845,1.0,-243.0,43.0,0
846,2.0,-245.0,39.0,0
847,3.0,-241.0,44.0,0
848,4.0,-241.0,41.0,0
849,1.0,-245.0,44.0,0
850,1.0,-248.0,41.0,0
851,5.0,-245.0,46.0,0
852,4.0,-248.0,39.0,0
853,0.0,-243.0,41.0,0
854,2.0,-244.0,39.0,0
855,2.0,-248.0,38.0,0
856,1.0,-245.0,41.0,0
857,2.0,-245.0,37.0,0
858,4.0,-247.0,39.0,0
859,1.0,-242.0,40.0,0
860,1.0,-242.0,41.0,0
861,3.0,-244.0,37.0,0
862,3.0,-242.0,40.0,0
863,3.0,-244.0,40.0,0
864,7.0,-247.0,38.0,0
865,0.0,-242.0,41.0,0
866,1.0,-243.0,39.0,0
867,1.0,-241.0,38.0,0
868,0.0,-242.0,37.0,0
869,1.0,-242.0,43.0,0
870,3.0,-245.0,37.0,0
871,2.0,-242.0,41.0,0
872,0.0,-243.0,39.0,0
873,2.0,-244.0,38.0,0
874,5.0,-246.0,40.0,0
875,9.0,-247.0,37.0,0
876,2.0,-246.0,34.0,0
877,2.0,-245.0,38.0,0
878,2.0,-246.0,39.0,0
879,3.0,-243.0,41.0,0
880,1.0,-243.0,38.0,0
881,4.0,-246.0,38.0,0
882,2.0,-242.0,40.0,0
883,2.0,-242.0,37.0,0
884,6.0,-247.0,39.0,0
885,1.0,-249.0,37.0,0
886,2.0,-245.0,36.0,0
887,1.0,-246.0,37.0,0
888,5.0,-248.0,39.0,0
889,5.0,-246.0,37.0,0
890,4.0,-245.0,34.0,0
891,1.0,-243.0,33.0,0
892,2.0,-246.0,32.0,0
893,1.0,-238.0,30.0,0
894,3.0,-245.0,33.0,0
895,3.0,-243.0,34.0,0
896,0.0,-243.0,28.0,0
897,1.0,-244.0,32.0,0
898,0.0,-240.0,35.0,0
899,2.0,-242.0,30.0,0
900,1.0,-242.0,30.0,0
901,0.0,-242.0,33.0,0
902,1.0,-245.0,31.0,0
903,-1.0,-243.0,32.0,0
904,-1.0,-243.0,33.0,0
905,2.0,-241.0,34.0,0
906,-5.0,-242.0,30.0,0
907,4.0,-240.0,31.0,0
908,0.0,-242.0,29.0,0
909,0.0,-242.0,32.0,0
910,1.0,-243.0,28.0,0
911,2.0,-245.0,24.0,0
912,1.0,-244.0,21.0,0
913,3.0,-245.0,21.0,0
914,2.0,-244.0,24.0,0
915,1.0,-244.0,24.0,0
916,2.0,-243.0,23.0,0
917,-2.0,-244.0,19.0,0
918,1.0,-246.0,20.0,0
919,4.0,-244.0,19.0,0
920,4.0,-244.0,23.0,0
921,4.0,-246.0,23.0,0
922,3.0,-246.0,19.0,0
923,2.0,-242.0,22.0,0
924,0.0,-240.0,16.0,0
925,3.0,-247.0,17.0,0
926,5.0,-243.0,19.0,0
927,1.0,-246.0,22.0,0
928,2.0,-246.0,18.0,0
929,4.0,-246.0,15.0,0
930,4.0,-246.0,17.0,0
931,2.0,-249.0,15.0,0
932,5.0,-247.0,18.0,0
933,6.0,-249.0,18.0,0
934,3.0,-248.0,13.0,0
935,7.0,-248.0,13.0,0
936,5.0,-245.0,13.0,0
937,6.0,-247.0,14.0,0
938,6.0,-246.0,9.0,0
939,10.0,-244.0,15.0,0
940,5.0,-243.0,12.0,0
941,4.0,-246.0,8.0,0
942,4.0,-245.0,14.0,0
943,4.0,-244.0,9.0,0
944,4.0,-244.0,9.0,0
945,1.0,-238.0,9.0,0
946,6.0,-244.0,7.0,0
947,5.0,-246.0,8.0,0
948,6.0,-245.0,6.0,0
949,5.0,-248.0,4.0,0
950,4.0,-246.0,7.0,2
951,6.0,-246.0,5.0,2
952,7.0,-243.0,7.0,2
953,6.0,-245.0,8.0,2
954,8.0,-246.0,5.0,2
955,7.0,-246.0,3.0,2
956,9.0,-245.0,1.0,2
957,7.0,-247.0,4.0,2
958,6.0,-246.0,3.0,2
959,8.0,-247.0,0.0,2
960,11.0,-247.0,8.0,2
961,10.0,-246.0,-2.0,2
962,10.0,-246.0,-6.0,2
963,9.0,-246.0,-3.0,2
964,6.0,-243.0,-3.0,2
965,9.0,-247.0,-4.0,2
966,6.0,-244.0,-2.0,2
967,12.0,-245.0,-3.0,2
968,14.0,-242.0,-6.0,2
969,5.0,-240.0,-4.0,2
970,8.0,-242.0,-14.0,2
971,9.0,-237.0,0.0,2
972,9.0,-238.0,-11.0,2
973,13.0,-237.0,-12.0,2
974,11.0,-240.0,-10.0,2
975,8.0,-235.0,-14.0,2
976,8.0,-235.0,-17.0,2
977,11.0,-236.0,-20.0,2
978,10.0,-240.0,-21.0,2
979,11.0,-240.0,-24.0,2
980,14.0,-241.0,-22.0,2
981,11.0,-242.0,-27.0,2
982,10.0,-238.0,-30.0,2
983,13.0,-240.0,-25.0,2
984,13.0,-240.0,-24.0,2
985,13.0,-241.0,-26.0,2
986,16.0,-241.0,-30.0,2
987,13.0,-241.0,-30.0,2
988,11.0,-238.0,-34.0,2
989,16.0,-242.0,-30.0,2
990,11.0,-240.0,-34.0,2
991,13.0,-246.0,-37.0,2
992,18.0,-245.0,-40.0,2
993,17.0,-242.0,-40.0,2
994,11.0,-243.0,-40.0,2
995,9.0,-244.0,-40.0,2
996,8.0,-240.0,-40.0,2
997,10.0,-239.0,-43.0,2
998,9.0,-242.0,-51.0,2
999,6.0,-243.0,-43.0,2
1000,7.0,-245.0,-46.0,2
1001,8.0,-234.0,-50.0,2
1002,12.0,-229.0,-53.0,2
1003,1.0,-234.0,-52.0,2
1004,-3.0,-234.0,-51.0,2
1005,-8.0,-234.0,-44.0,2
1006,-12.0,-238.0,-48.0,2
1007,-8.0,-238.0,-48.0,2
1008,-14.0,-239.0,-43.0,2
1009,-12.0,-242.0,-50.0,2
1010,-10.0,-238.0,-53.0,2
1011,-12.0,-234.0,-56.0,2
1012,-6.0,-232.0,-60.0,2
1013,-1.0,-227.0,-59.0,2
1014,0.0,-233.0,-70.0,2
1015,-1.0,-232.0,-67.0,2
1016,3.0,-235.0,-67.0,2
1017,3.0,-232.0,-73.0,2
1018,7.0,-230.0,-72.0,2
1019,5.0,-232.0,-75.0,2
1020,8.0,-231.0,-75.0,2
1021,11.0,-234.0,-76.0,2
1022,12.0,-232.0,-73.0,2
1023,15.0,-231.0,-80.0,2
1024,16.0,-227.0,-81.0,2
1025,16.0,-228.0,-84.0,2
1026,19.0,-226.0,-83.0,2
1027,21.0,-224.0,-85.0,2
1028,22.0,-226.0,-87.0,2
1029,18.0,-220.0,-84.0,2
1030,18.0,-223.0,-87.0,2
1031,15.0,-224.0,-87.0,2
1032,15.0,-225.0,-87.0,2
1033,13.0,-225.0,-93.0,2
1034,8.0,-220.0,-87.0,2
1035,7.0,-220.0,-96.0,2
1036,8.0,-221.0,-90.0,2
1037,7.0,-219.0,-94.0,2
1038,10.0,-215.0,-97.0,2
1039,6.0,-211.0,-101.0,2
1040,7.0,-211.0,-101.0,2
1041,9.0,-207.0,-100.0,2
1042,6.0,-208.0,-104.0,2
1043,6.0,-201.0,-105.0,2
1044,12.0,-200.0,-102.0,2
1045,12.0,-198.0,-100.0,2
1046,8.0,-196.0,-102.0,2
1047,12.0,-196.0,-107.0,2
1048,14.0,-193.0,-104.0,2
1049,17.0,-192.0,-106.0,2
1050,22.0,-191.0,-105.0,2
1051,25.0,-191.0,-108.0,2
1052,30.0,-191.0,-107.0,2
1053,24.0,-185.0,-113.0,2
1054,28.0,-187.0,-114.0,2
1055,32.0,-183.0,-112.0,2
1056,34.0,-179.0,-122.0,2
1057,30.0,-176.0,-131.0,2
1058,31.0,-180.0,-128.0,2
1059,36.0,-173.0,-130.0,2
1060,37.0,-173.0,-139.0,2
1061,43.0,-173.0,-143.0,2
1062,47.0,-174.0,-146.0,2
1063,46.0,-173.0,-149.0,2
1064,50.0,-175.0,-155.0,2
1065,50.0,-180.0,-162.0,2
1066,46.0,-178.0,-168.0,2
1067,38.0,-182.0,-177.0,2
1068,37.0,-187.0,-182.0,2
1069,34.0,-187.0,-184.0,2
1070,31.0,-188.0,-185.0,2
1071,23.0,-187.0,-194.0,2
1072,22.0,-181.0,-193.0,2
1073,16.0,-171.0,-202.0,2
1074,13.0,-159.0,-201.0,2
1075,15.0,-155.0,-202.0,2
1076,14.0,-147.0,-203.0,2
1077,20.0,-150.0,-197.0,2
1078,17.0,-149.0,-196.0,2
1079,22.0,-152.0,-193.0,2
1080,23.0,-155.0,-186.0,2
1081,24.0,-154.0,-183.0,2
1082,29.0,-156.0,-183.0,2
1083,22.0,-152.0,-186.0,2
1084,15.0,-147.0,-184.0,2
1085,12.0,-145.0,-183.0,2
1086,4.0,-141.0,-174.0,2
1087,-3.0,-141.0,-170.0,2
1088,-9.0,-142.0,-167.0,2
1089,-14.0,-144.0,-156.0,2
1090,-16.0,-148.0,-157.0,2
1091,-20.0,-158.0,-149.0,2
1092,-19.0,-167.0,-148.0,2
1093,-16.0,-171.0,-149.0,2
1094,-10.0,-174.0,-141.0,2
1095,-2.0,-176.0,-145.0,2
1096,4.0,-170.0,-141.0,2
1097,13.0,-165.0,-143.0,2
1098,21.0,-161.0,-148.0,2
1099,27.0,-154.0,-150.0,2
1100,39.0,-140.0,-160.0,2
1101,48.0,-129.0,-166.0,2
1102,51.0,-118.0,-180.0,2
1103,53.0,-104.0,-190.0,2
1104,48.0,-84.0,-208.0,2
1105,42.0,-66.0,-227.0,2
1106,35.0,-56.0,-255.0,2
1107,32.0,-45.0,-281.0,2
1108,31.0,-41.0,-300.0,2
1109,50.0,-41.0,-321.0,2
1110,63.0,-46.0,-340.0,2
1111,83.0,-51.0,-361.0,2
1112,104.0,-55.0,-374.0,2
1113,127.0,-62.0,-385.0,2
1114,147.0,-63.0,-399.0,2
1115,173.0,-66.0,-412.0,2
1116,183.0,-59.0,-422.0,2
1117,174.0,-48.0,-428.0,2
1118,162.0,-41.0,-437.0,2
1119,149.0,-34.0,-439.0,2
1120,124.0,-24.0,-418.0,2
1121,89.0,-17.0,-406.0,2
1122,66.0,-17.0,-380.0,2
1123,44.0,-26.0,-338.0,2
1124,20.0,-30.0,-311.0,2
1125,-9.0,-35.0,-266.0,2
1126,-31.0,-29.0,-238.0,2
1127,-40.0,-32.0,-199.0,2
1128,-56.0,-36.0,-163.0,2
1129,-57.0,-43.0,-144.0,2
1130,-63.0,-58.0,-124.0,2
1131,-53.0,-70.0,-112.0,2
1132,-45.0,-79.0,-104.0,2
1133,-41.0,-83.0,-124.0,2
1134,-41.0,-74.0,-139.0,2
1135,-29.0,-63.0,-162.0,2
1136,-9.0,-48.0,-185.0,2
1137,10.0,-26.0,-195.0,2
1138,35.0,-10.0,-198.0,2
1139,60.0,5.0,-194.0,2
1140,88.0,16.0,-189.0,2
1141,111.0,42.0,-198.0,2
1142,124.0,80.0,-222.0,2
1143,121.0,125.0,-231.0,2
1144,107.0,157.0,-237.0,2
1145,87.0,193.0,-236.0,2
1146,71.0,215.0,-235.0,2
1147,51.0,222.0,-231.0,2
1148,36.0,223.0,-244.0,2
1149,34.0,215.0,-252.0,2
1150,36.0,210.0,-256.0,2
1151,38.0,205.0,-264.0,2
1152,32.0,202.0,-257.0,2
1153,34.0,197.0,-258.0,2
1154,27.0,200.0,-256.0,2
1155,27.0,193.0,-253.0,2
1156,20.0,188.0,-243.0,2
1157,7.0,185.0,-232.0,2
1158,2.0,175.0,-224.0,2
1159,-3.0,170.0,-211.0,2
1160,-16.0,173.0,-201.0,2
1161,-21.0,167.0,-196.0,2
1162,-33.0,168.0,-195.0,2
1163,-28.0,171.0,-196.0,2
1164,-31.0,172.0,-200.0,2
1165,-35.0,179.0,-202.0,2
1166,-36.0,179.0,-202.0,2
1167,-38.0,186.0,-202.0,2
1168,-43.0,183.0,-199.0,2
1169,-47.0,187.0,-194.0,2
1170,-52.0,187.0,-186.0,2
1171,-55.0,191.0,-187.0,2
1172,-58.0,192.0,-184.0,2
1173,-59.0,197.0,-180.0,2
1174,-58.0,193.0,-177.0,2
1175,-59.0,194.0,-172.0,2
1176,-58.0,189.0,-161.0,2
1177,-56.0,184.0,-156.0,2
1178,-54.0,179.0,-153.0,2
1179,-49.0,170.0,-150.0,2
1180,-43.0,163.0,-147.0,2
1181,-41.0,161.0,-148.0,2
1182,-43.0,161.0,-140.0,2
1183,-53.0,159.0,-126.0,2
1184,-54.0,165.0,-128.0,2
1185,-55.0,168.0,-127.0,2
1186,-63.0,164.0,-122.0,2
1187,-62.0,157.0,-121.0,2
1188,-68.0,152.0,-123.0,2
1189,-72.0,149.0,-118.0,2
1190,-78.0,152.0,-117.0,2
1191,-81.0,154.0,-119.0,2
1192,-84.0,159.0,-118.0,2
1193,-95.0,165.0,-118.0,2
1194,-80.0,174.0,-108.0,2
1195,-121.0,183.0,-97.0,2
1196,-140.0,177.0,-83.0,2
1197,-134.0,180.0,-84.0,2
1198,-133.0,183.0,-86.0,2
1199,-143.0,187.0,-85.0,2
1200,-132.0,189.0,-86.0,2
1201,-163.0,190.0,-88.0,2
1202,-177.0,187.0,-74.0,2
1203,-177.0,192.0,-76.0,2
1204,-187.0,201.0,-71.0,2
1205,-174.0,217.0,-76.0,2
1206,-174.0,227.0,-73.0,2
1207,-214.0,232.0,-73.0,2
1208,-296.0,213.0,-74.0,2
1209,-294.0,205.0,-81.0,2
1210,-261.0,205.0,-83.0,2
1211,-245.0,201.0,-79.0,2
1212,-242.0,207.0,-69.0,2
1213,-235.0,207.0,-55.0,2
1214,-232.0,208.0,-48.0,2
1215,-212.0,208.0,-38.0,2
1216,-171.0,221.0,-37.0,2
1217,-199.0,216.0,-40.0,2
1218,-183.0,210.0,-35.0,2
1219,-220.0,190.0,-32.0,2
1220,-191.0,190.0,-31.0,2
1221,-156.0,192.0,-30.0,2
1222,-153.0,189.0,-23.0,2
1223,-159.0,180.0,-9.0,2
1224,-190.0,168.0,2.0,2
1225,-199.0,162.0,2.0,2
1226,-221.0,153.0,15.0,2
1227,-228.0,160.0,32.0,2
1228,-236.0,161.0,45.0,2
1229,-246.0,154.0,48.0,2
1230,-244.0,152.0,54.0,2
1231,-237.0,151.0,51.0,2
1232,-229.0,152.0,45.0,2
1233,-223.0,148.0,50.0,2
1234,-210.0,150.0,52.0,2
1235,-205.0,148.0,54.0,2
1236,-201.0,143.0,61.0,2
1237,-198.0,144.0,63.0,2
1238,-201.0,146.0,65.0,2
1239,-205.0,145.0,67.0,2
1240,-221.0,146.0,67.0,2
1241,-224.0,142.0,63.0,2
1242,-226.0,143.0,62.0,2
1243,-227.0,134.0,55.0,2
1244,-226.0,129.0,54.0,2
1245,-216.0,132.0,42.0,2
1246,-218.0,131.0,62.0,2
1247,-223.0,127.0,68.0,2
1248,-221.0,118.0,74.0,2
1249,-206.0,109.0,75.0,2
1250,-200.0,107.0,78.0,2
1251,-195.0,103.0,70.0,2
1252,-192.0,106.0,73.0,2
1253,-194.0,102.0,95.0,2
1254,-213.0,96.0,119.0,2
1255,-222.0,70.0,138.0,2
1256,-230.0,62.0,147.0,2
1257,-228.0,64.0,147.0,2
1258,-241.0,61.0,153.0,2
1259,-233.0,63.0,146.0,2
1260,-238.0,61.0,134.0,2
1261,-233.0,63.0,129.0,2
1262,-217.0,62.0,121.0,2
1263,-213.0,65.0,111.0,2
1264,-199.0,63.0,102.0,2
1265,-195.0,69.0,93.0,2
1266,-191.0,78.0,100.0,2
1267,-201.0,77.0,111.0,2
1268,-199.0,74.0,133.0,2
1269,-204.0,61.0,160.0,2
1270,-204.0,44.0,182.0,2
1271,-225.0,28.0,192.0,2
1272,-231.0,23.0,197.0,2
1273,-238.0,25.0,214.0,2
1274,-227.0,23.0,244.0,2
1275,-234.0,16.0,257.0,2
1276,-239.0,7.0,254.0,2
1277,-236.0,-12.0,232.0,2
1278,-241.0,-16.0,223.0,2
1279,-240.0,-16.0,203.0,2
1280,-238.0,-26.0,185.0,2
1281,-227.0,-31.0,175.0,2
1282,-213.0,-40.0,169.0,2
1283,-202.0,-50.0,168.0,2
1284,-187.0,-47.0,175.0,2
1285,-169.0,-49.0,182.0,2
1286,-152.0,-50.0,190.0,2
1287,-130.0,-50.0,208.0,2
1288,-111.0,-52.0,226.0,2
1289,-105.0,-50.0,260.0,2
1290,-98.0,-43.0,288.0,2
1291,-93.0,-38.0,302.0,2
1292,-80.0,-34.0,301.0,2
1293,-70.0,-25.0,296.0,2
1294,-67.0,-18.0,289.0,2
1295,-60.0,-20.0,276.0,2
1296,-57.0,-20.0,261.0,2
1297,-37.0,-36.0,247.0,2
1298,-19.0,-66.0,232.0,2
1299,-18.0,-80.0,220.0,2
1300,-21.0,-103.0,204.0,2
1301,-43.0,-123.0,192.0,2
1302,-58.0,-145.0,190.0,2
1303,-76.0,-165.0,190.0,2
1304,-87.0,-167.0,188.0,2
1305,-102.0,-167.0,191.0,2
1306,-112.0,-167.0,189.0,2
1307,-106.0,-155.0,190.0,2
1308,-120.0,-127.0,216.0,2
1309,-154.0,-107.0,213.0,2
1310,-147.0,-62.0,214.0,2
1311,-109.0,-22.0,201.0,2
1312,-65.0,1.0,192.0,2
1313,-21.0,22.0,173.0,2
1314,4.0,26.0,168.0,2
1315,2.0,34.0,164.0,2
1316,-4.0,33.0,173.0,2
1317,-29.0,37.0,192.0,2
1318,-54.0,27.0,211.0,2
1319,-79.0,55.0,269.0,2
1320,-155.0,67.0,317.0,2
1321,-217.0,55.0,334.0,2
1322,-235.0,22.0,317.0,2
1323,-187.0,-28.0,275.0,2
1324,-123.0,-74.0,241.0,2
1325,-54.0,-140.0,212.0,2
1326,4.0,-191.0,220.0,2
1327,43.0,-238.0,250.0,2
1328,45.0,-268.0,267.0,2
1329,30.0,-299.0,279.0,2
1330,15.0,-307.0,284.0,2
1331,1.0,-319.0,286.0,2
1332,-8.0,-297.0,277.0,2
1333,-19.0,-263.0,258.0,2
1334,-29.0,-239.0,250.0,2
1335,-39.0,-222.0,238.0,2
1336,-51.0,-201.0,228.0,2
1337,-64.0,-184.0,218.0,2
1338,-67.0,-161.0,212.0,2
1339,-75.0,-143.0,194.0,2
1340,-68.0,-135.0,177.0,2
1341,-65.0,-120.0,154.0,2
1342,-44.0,-109.0,136.0,2
1343,-15.0,-94.0,123.0,2
1344,4.0,-77.0,117.0,2
1345,19.0,-62.0,121.0,2
1346,36.0,-47.0,132.0,2
1347,45.0,-25.0,146.0,2
1348,50.0,-7.0,183.0,2
1349,45.0,15.0,202.0,2
1350,47.0,23.0,230.0,2
1351,49.0,36.0,246.0,2
1352,50.0,37.0,262.0,2
1353,45.0,39.0,270.0,2
1354,49.0,32.0,269.0,2
1355,53.0,28.0,284.0,2
1356,45.0,12.0,271.0,2
1357,39.0,2.0,284.0,2
1358,31.0,-15.0,286.0,2
1359,23.0,-40.0,279.0,2
1360,14.0,-49.0,283.0,2
1361,13.0,-60.0,290.0,2
1362,12.0,-67.0,284.0,2
1363,19.0,-59.0,278.0,1
1364,20.0,-52.0,276.0,1
1365,29.0,-45.0,268.0,1
1366,38.0,-40.0,264.0,1
1367,41.0,-34.0,260.0,1
1368,41.0,-32.0,255.0,1
1369,47.0,-39.0,259.0,1
1370,49.0,-39.0,260.0,1
1371,47.0,-36.0,262.0,1
1372,47.0,-38.0,260.0,1
1373,56.0,-40.0,259.0,1
1374,52.0,-33.0,256.0,1
1375,44.0,-33.0,254.0,1
1376,41.0,-34.0,250.0,1
1377,50.0,-31.0,245.0,1
1378,60.0,-30.0,246.0,1
1379,63.0,-28.0,241.0,1
1380,62.0,-26.0,243.0,1
1381,61.0,-20.0,238.0,1
1382,63.0,-24.0,246.0,1
1383,61.0,-24.0,246.0,1
1384,52.0,-16.0,250.0,1
1385,36.0,-10.0,249.0,1
1386,30.0,-9.0,253.0,1
1387,26.0,-1.0,249.0,1
1388,16.0,0.0,248.0,1
1389,9.0,0.0,245.0,1
1390,11.0,0.0,247.0,1
1391,12.0,-2.0,247.0,1
1392,10.0,-2.0,252.0,1
1393,12.0,0.0,253.0,1
1394,4.0,-2.0,244.0,1
1395,6.0,-9.0,252.0,1
1396,0.0,-9.0,249.0,1
1397,2.0,-9.0,253.0,1
1398,-6.0,-7.0,250.0,1
1399,-17.0,-12.0,259.0,1
1400,-14.0,-15.0,258.0,1
1401,-12.0,-20.0,264.0,1
1402,-16.0,-27.0,267.0,1
1403,-21.0,-27.0,269.0,1
1404,-24.0,-28.0,273.0,1
1405,-22.0,-30.0,271.0,1
1406,-25.0,-40.0,256.0,1
1407,-24.0,-28.0,258.0,1
1408,-29.0,-31.0,263.0,1
1409,-21.0,-48.0,268.0,1
1410,-16.0,-61.0,270.0,1
1411,-18.0,-65.0,264.0,1
1412,-15.0,-71.0,262.0,1
1413,-13.0,-75.0,259.0,1
1414,-11.0,-82.0,256.0,1
1415,-10.0,-90.0,254.0,1
1416,-7.0,-85.0,252.0,1
1417,-10.0,-95.0,249.0,1
1418,1.0,-79.0,243.0,1
1419,8.0,-66.0,240.0,1
1420,18.0,-53.0,230.0,1
1421,26.0,-37.0,223.0,1
1422,24.0,-25.0,218.0,1
1423,30.0,-14.0,213.0,1
1424,23.0,-1.0,207.0,1
1425,18.0,1.0,203.0,1
1426,18.0,1.0,208.0,1
1427,17.0,4.0,213.0,1
1428,13.0,6.0,219.0,1
1429,1.0,9.0,228.0,1
1430,-6.0,6.0,230.0,1
1431,-12.0,2.0,239.0,1
1432,-11.0,-6.0,239.0,1
1433,-23.0,-18.0,250.0,1
1434,-23.0,-29.0,255.0,1
1435,-24.0,-35.0,261.0,1
1436,-27.0,-46.0,259.0,1
1437,-29.0,-54.0,259.0,1
1438,-26.0,-59.0,255.0,1
1439,-26.0,-63.0,256.0,1
1440,-26.0,-64.0,257.0,1
1441,-27.0,-70.0,256.0,1
1442,-24.0,-68.0,258.0,1
1443,-22.0,-65.0,250.0,1
1444,-21.0,-60.0,250.0,1
1445,-22.0,-57.0,249.0,1
1446,-22.0,-52.0,244.0,1
1447,-21.0,-48.0,242.0,1
1448,-20.0,-40.0,244.0,1
1449,-13.0,-40.0,246.0,1
1450,-13.0,-39.0,243.0,1
1451,-15.0,-38.0,246.0,1
1452,-20.0,-33.0,253.0,1
1453,-21.0,-29.0,253.0,1
1454,-20.0,-27.0,249.0,1
1455,-24.0,-27.0,246.0,0
1456,-24.0,-20.0,248.0,0
1457,-26.0,-14.0,248.0,0
1458,-20.0,-14.0,247.0,0
1459,-25.0,-4.0,243.0,0
1460,-22.0,-6.0,246.0,0
1461,-26.0,-1.0,239.0,0
1462,-27.0,0.0,244.0,0
1463,-26.0,1.0,242.0,0
1464,-26.0,1.0,243.0,0
1465,-25.0,2.0,245.0,0
1466,-24.0,4.0,245.0,0
1467,-21.0,-1.0,244.0,0
1468,-17.0,-2.0,246.0,0
1469,-19.0,-4.0,245.0,0
1470,-21.0,-2.0,246.0,0
1471,-19.0,-9.0,250.0,0
1472,-12.0,-15.0,253.0,0
1473,-16.0,-18.0,250.0,0
1474,-18.0,-18.0,254.0,0
1475,-22.0,-21.0,254.0,0
1476,-19.0,-23.0,256.0,0
1477,-17.0,-19.0,256.0,0
1478,-15.0,-24.0,254.0,0
1479,-12.0,-23.0,257.0,0
1480,-15.0,-25.0,254.0,0
1481,-17.0,-19.0,253.0,0
1482,-14.0,-20.0,251.0,0
1483,-15.0,-16.0,253.0,0
1484,-18.0,-16.0,252.0,0
1485,-25.0,-13.0,252.0,0
1486,-22.0,-12.0,252.0,0
1487,-23.0,-6.0,250.0,0
1488,-21.0,-4.0,251.0,0
1489,-20.0,-8.0,249.0,0
1490,-19.0,-3.0,253.0,0
1491,-15.0,0.0,249.0,0
1492,-18.0,-4.0,252.0,0
1493,-22.0,0.0,240.0,0
1494,-31.0,-1.0,248.0,0
1495,-22.0,-3.0,251.0,0
1496,-18.0,-2.0,251.0,0
1497,-17.0,-5.0,253.0,0
1498,-15.0,-3.0,250.0,0
1499,-15.0,-2.0,254.0,0
1500,-17.0,1.0,254.0,0
1501,-12.0,-10.0,247.0,0
1502,-18.0,-8.0,249.0,0
1503,-18.0,-12.0,252.0,0
1504,-21.0,-4.0,248.0,0
1505,-14.0,-13.0,252.0,0
1506,-15.0,-12.0,250.0,0
1507,-12.0,-14.0,251.0,0
1508,-13.0,-10.0,248.0,0
1509,-12.0,-12.0,250.0,0
1510,-12.0,-18.0,249.0,0
1511,-10.0,-18.0,247.0,0
1512,-15.0,-17.0,250.0,0
1513,-14.0,-19.0,251.0,0
1514,-7.0,-22.0,251.0,0
1515,-13.0,-19.0,244.0,0
1516,-17.0,-22.0,248.0,0
1517,-13.0,-20.0,247.0,0
1518,-12.0,-19.0,247.0,0
1519,-14.0,-19.0,246.0,0
1520,-12.0,-20.0,246.0,0
1521,-16.0,-16.0,242.0,0
1522,-15.0,-16.0,240.0,0
1523,-11.0,-20.0,244.0,0
1524,-12.0,-21.0,244.0,0
1525,-9.0,-23.0,245.0,0
1526,-18.0,-20.0,240.0,0
1527,-12.0,-23.0,246.0,0
1528,-12.0,-26.0,247.0,0
1529,-14.0,-28.0,249.0,0
1530,-14.0,-28.0,247.0,0
1531,-10.0,-28.0,249.0,0
1532,-12.0,-28.0,247.0,0
1533,-13.0,-25.0,248.0,0
1534,-8.0,-29.0,246.0,0
1535,-10.0,-27.0,249.0,0
1536,-11.0,-26.0,251.0,0
1537,-8.0,-23.0,246.0,0
1538,-7.0,-25.0,244.0,0
1539,-7.0,-25.0,245.0,0
1540,-8.0,-24.0,244.0,0
1541,-7.0,-26.0,246.0,0
1542,-8.0,-24.0,249.0,0
1543,-7.0,-25.0,247.0,0
1544,-9.0,-25.0,243.0,0
1545,-7.0,-25.0,247.0,0
1546,-16.0,-22.0,248.0,0
1547,-11.0,-22.0,250.0,0
1548,-10.0,-24.0,245.0,0
1549,-12.0,-22.0,245.0,0
1550,-14.0,-21.0,246.0,0
1551,-14.0,-24.0,248.0,0
1552,-13.0,-24.0,247.0,0
1553,-16.0,-19.0,246.0,0
1554,-19.0,-21.0,243.0,0
1555,-15.0,-24.0,246.0,0
1556,-12.0,-23.0,249.0,0
1557,-16.0,-22.0,245.0,0
1558,-11.0,-21.0,249.0,0
1559,-13.0,-22.0,244.0,0
1560,-13.0,-20.0,245.0,0
1561,-10.0,-23.0,246.0,0
1562,-13.0,-20.0,249.0,0
1563,-13.0,-22.0,246.0,0
1564,-11.0,-21.0,246.0,0
1565,-8.0,-23.0,248.0,0
1566,-6.0,-23.0,251.0,0
1567,-10.0,-18.0,250.0,0
1568,-10.0,-20.0,245.0,0
1569,-19.0,-22.0,251.0,0
1570,-8.0,-16.0,246.0,0
1571,-9.0,-20.0,245.0,0
1572,-10.0,-16.0,249.0,0
1573,-5.0,-18.0,252.0,0
1574,-7.0,-16.0,247.0,0
1575,-6.0,-19.0,249.0,0
1576,-8.0,-16.0,246.0,0
1577,-6.0,-15.0,248.0,0
1578,-5.0,-15.0,249.0,0
1579,0.0,-17.0,248.0,0
1580,-9.0,-14.0,249.0,0
1581,-8.0,-15.0,248.0,0
1582,0.0,-13.0,250.0,0
1583,-4.0,-11.0,248.0,0
1584,-2.0,-14.0,249.0,0
1585,-6.0,-13.0,246.0,0
1586,-5.0,-11.0,249.0,0
1587,-7.0,-12.0,252.0,0
1588,-7.0,-14.0,253.0,0
1589,-7.0,-11.0,252.0,0
1590,-13.0,-5.0,245.0,0
1591,-6.0,-12.0,242.0,0
1592,-3.0,-14.0,248.0,0
1593,-6.0,-13.0,249.0,0
1594,-2.0,-16.0,249.0,0
1595,-7.0,-16.0,246.0,0
1596,-7.0,-16.0,249.0,0
1597,-5.0,-16.0,249.0,0
1598,-4.0,-16.0,246.0,0
1599,-6.0,-17.0,249.0,0
1600,-5.0,-17.0,243.0,0
1601,-6.0,-19.0,247.0,0
1602,-7.0,-15.0,251.0,0
1603,-3.0,-15.0,246.0,0
1604,-2.0,-14.0,246.0,0
1605,-3.0,-10.0,248.0,0
1606,0.0,-11.0,247.0,0
1607,-2.0,-10.0,250.0,0
1608,-7.0,-8.0,247.0,0
1609,-5.0,-8.0,249.0,0
1610,-4.0,-9.0,245.0,0
1611,-6.0,-8.0,248.0,0
1612,-4.0,-13.0,254.0,0
1613,-3.0,-11.0,250.0,0
1614,-3.0,-6.0,250.0,0
1615,-3.0,-8.0,250.0,0
1616,-3.0,-4.0,247.0,0
1617,-2.0,-6.0,249.0,0
1618,0.0,-6.0,248.0,0
1619,0.0,-6.0,249.0,0
1620,0.0,-6.0,251.0,0
1621,1.0,-5.0,251.0,0
1622,0.0,-5.0,249.0,0
1623,-1.0,-9.0,252.0,0
1624,1.0,-10.0,257.0,0
1625,-3.0,-4.0,253.0,0
1626,-3.0,-6.0,247.0,0
1627,0.0,-3.0,251.0,0
1628,1.0,-8.0,251.0,0
1629,0.0,-6.0,253.0,0
1630,0.0,-6.0,253.0,0
1631,0.0,-8.0,247.0,0
1632,0.0,-9.0,253.0,0
1633,-1.0,-9.0,248.0,0
1634,-3.0,-8.0,251.0,0
1635,-1.0,-4.0,252.0,0
1636,0.0,-7.0,252.0,0
1637,2.0,-8.0,252.0,0
1638,-1.0,-5.0,251.0,0
1639,-1.0,0.0,250.0,0
1640,1.0,-7.0,251.0,0
1641,0.0,-4.0,252.0,0
1642,3.0,-6.0,252.0,0
1643,1.0,-5.0,252.0,0
1644,3.0,-5.0,251.0,0
1645,1.0,-3.0,253.0,0
1646,2.0,-4.0,245.0,0
1647,1.0,-5.0,252.0,0
1648,1.0,-4.0,252.0,0
1649,1.0,-5.0,251.0,0
1650,0.0,-3.0,250.0,0
1651,1.0,-4.0,251.0,0
1652,0.0,-7.0,254.0,0
1653,1.0,-4.0,252.0,0
1654,0.0,-6.0,250.0,0
1655,0.0,-6.0,250.0,0
1656,-6.0,-6.0,249.0,0
1657,0.0,-2.0,251.0,0
1658,0.0,-6.0,249.0,0
1659,0.0,0.0,248.0,0
1660,0.0,-5.0,252.0,0
1661,0.0,-2.0,251.0,0
1662,-3.0,-2.0,252.0,0
1663,-1.0,-2.0,250.0,0
1664,1.0,-4.0,245.0,0
1665,0.0,-8.0,253.0,0
1666,1.0,-7.0,251.0,0
1667,1.0,-5.0,245.0,0
1668,1.0,-2.0,251.0,0
1669,1.0,-3.0,247.0,0
1670,1.0,-5.0,253.0,0
1671,3.0,-2.0,248.0,0
1672,5.0,-6.0,253.0,0
1673,0.0,-2.0,249.0,0
1674,1.0,-3.0,247.0,0
1675,1.0,-2.0,256.0,0
1676,2.0,-2.0,246.0,0
1677,4.0,-2.0,252.0,0
1678,1.0,-8.0,252.0,0
1679,1.0,-1.0,249.0,0
1680,3.0,-6.0,249.0,0
1681,2.0,-2.0,246.0,0
1682,-1.0,-5.0,250.0,0
1683,3.0,-5.0,248.0,0
1684,0.0,-3.0,251.0,0
1685,-1.0,-4.0,246.0,0
1686,-1.0,-4.0,249.0,0
1687,0.0,-4.0,251.0,0
1688,2.0,-3.0,254.0,0
1689,3.0,-1.0,248.0,0
1690,-1.0,-2.0,248.0,0
1691,1.0,0.0,253.0,0
1692,1.0,-2.0,250.0,0
1693,0.0,-2.0,253.0,0
1694,2.0,-1.0,248.0,0
1695,0.0,-1.0,252.0,0
1696,0.0,-1.0,247.0,0
1697,1.0,0.0,250.0,0
1698,-1.0,-1.0,248.0,0
1699,1.0,-5.0,247.0,0
1700,2.0,-6.0,255.0,0
1701,0.0,1.0,248.0,0
1702,1.0,0.0,251.0,0
1703,0.0,-1.0,249.0,0
1704,-1.0,-1.0,251.0,0
1705,0.0,0.0,253.0,0
1706,0.0,-2.0,251.0,0
1707,0.0,-1.0,248.0,0
1708,1.0,2.0,251.0,0
1709,0.0,-6.0,248.0,0
1710,-2.0,-6.0,251.0,0
1711,-3.0,-7.0,241.0,0
1712,0.0,-1.0,251.0,0
1713,1.0,-4.0,249.0,0
1714,0.0,-5.0,249.0,0
1715,1.0,-5.0,245.0,0
1716,0.0,-6.0,248.0,0
1717,0.0,-6.0,252.0,0
1718,-3.0,-2.0,245.0,0
1719,0.0,0.0,253.0,0
1720,0.0,-5.0,247.0,0
1721,0.0,-3.0,246.0,0
1722,-3.0,0.0,252.0,0
1723,-2.0,-1.0,248.0,0
1724,0.0,0.0,247.0,0
1725,0.0,2.0,247.0,0
1726,-2.0,2.0,250.0,0
1727,1.0,1.0,246.0,0
1728,0.0,1.0,249.0,0
1729,-3.0,3.0,247.0,0
1730,-4.0,3.0,250.0,0
1731,-4.0,3.0,254.0,0
1732,1.0,0.0,251.0,0
1733,-2.0,2.0,252.0,0
1734,-2.0,2.0,251.0,0
1735,-2.0,1.0,249.0,0
1736,-2.0,0.0,251.0,0
1737,0.0,-3.0,251.0,0
1738,-5.0,-1.0,253.0,0
1739,0.0,-1.0,253.0,0
1740,-3.0,-6.0,249.0,0
1741,0.0,-3.0,251.0,0
1742,-1.0,-3.0,250.0,0
1743,0.0,-3.0,249.0,0
1744,-2.0,-1.0,251.0,0
1745,3.0,0.0,249.0,0
1746,0.0,-2.0,251.0,0
1747,0.0,0.0,250.0,0
1748,-1.0,0.0,250.0,0
1749,0.0,1.0,250.0,0
1750,2.0,-2.0,251.0,0
1751,-2.0,0.0,251.0,0
1752,-2.0,-3.0,254.0,0
1753,-6.0,3.0,251.0,0
1754,-4.0,-5.0,250.0,0
1755,-4.0,1.0,250.0,0
1756,-7.0,-2.0,254.0,0
1757,-4.0,0.0,249.0,0
1758,-3.0,0.0,250.0,0
1759,-5.0,0.0,248.0,0
1760,-4.0,-2.0,252.0,0
1761,-4.0,2.0,253.0,0
1762,-2.0,0.0,251.0,0
1763,-1.0,-1.0,252.0,0
1764,-1.0,-2.0,247.0,0
1765,0.0,1.0,256.0,0
1766,-4.0,0.0,255.0,0
1767,-1.0,-2.0,253.0,0
1768,0.0,0.0,247.0,0
1769,0.0,0.0,256.0,0
1770,0.0,0.0,252.0,0
1771,-1.0,0.0,248.0,0
1772,-2.0,-1.0,251.0,0
1773,0.0,-1.0,249.0,0
1774,0.0,-7.0,249.0,0
1775,-6.0,0.0,245.0,0
1776,-3.0,-5.0,257.0,0
1777,-2.0,0.0,248.0,0
1778,-1.0,-3.0,246.0,0
1779,0.0,-3.0,254.0,0
1780,0.0,-4.0,250.0,0
1781,-4.0,-2.0,250.0,0
1782,-5.0,-1.0,252.0,0
1783,-3.0,0.0,246.0,0
1784,-2.0,-5.0,251.0,0
1785,-3.0,0.0,245.0,0
1786,-3.0,-2.0,249.0,0
1787,-8.0,1.0,249.0,0
1788,-4.0,-3.0,251.0,0
1789,-4.0,-1.0,249.0,0
1790,-7.0,0.0,248.0,0
1791,-5.0,-3.0,254.0,0
1792,-4.0,-4.0,251.0,0
1793,-6.0,-5.0,249.0,0
1794,-4.0,-6.0,254.0,0
1795,-5.0,-5.0,254.0,0
1796,-3.0,-2.0,251.0,0
1797,-5.0,-5.0,246.0,0
1798,-5.0,-4.0,256.0,0
1799,-2.0,-4.0,252.0,0
1800,0.0,-4.0,247.0,0
1801,0.0,-1.0,248.0,0
1802,-4.0,0.0,255.0,0
1803,-6.0,0.0,250.0,0
1804,-3.0,-2.0,249.0,0
1805,-5.0,-1.0,249.0,0
1806,-4.0,-1.0,251.0,0
1807,-2.0,-1.0,247.0,0
1808,-1.0,-7.0,253.0,0
1809,0.0,-9.0,249.0,0
1810,-1.0,-6.0,251.0,0
1811,0.0,-7.0,251.0,0
1812,-1.0,-7.0,249.0,0
1813,0.0,-9.0,247.0,0
1814,1.0,-3.0,251.0,0
1815,0.0,-4.0,249.0,0
1816,-3.0,-8.0,253.0,0
1817,1.0,-8.0,248.0,0
1818,-5.0,-6.0,249.0,0
1819,-1.0,-8.0,246.0,0
1820,5.0,-12.0,251.0,0
1821,-1.0,-8.0,250.0,0
1822,0.0,-8.0,248.0,0
1823,-1.0,-7.0,250.0,0
1824,-1.0,-9.0,251.0,0
1825,-3.0,-8.0,250.0,0
1826,-6.0,-9.0,251.0,0
1827,-4.0,-4.0,249.0,0
1828,-5.0,-5.0,250.0,0
1829,-2.0,-9.0,252.0,0
1830,-4.0,-5.0,247.0,0
1831,-8.0,-3.0,242.0,0
1832,0.0,-4.0,246.0,0
1833,-3.0,-9.0,251.0,0
1834,-1.0,-9.0,248.0,0
1835,-1.0,-7.0,253.0,0
1836,-2.0,-7.0,246.0,0
1837,-1.0,-10.0,250.0,0
1838,2.0,-9.0,249.0,0
1839,0.0,-13.0,251.0,0
1840,-2.0,-11.0,249.0,0
1841,-1.0,-16.0,248.0,0
1842,-6.0,-7.0,251.0,0
1843,-2.0,-12.0,248.0,0
1844,-2.0,-10.0,248.0,0
1845,0.0,-10.0,249.0,0
1846,-1.0,-12.0,247.0,0
1847,0.0,-9.0,248.0,0
1848,0.0,-10.0,250.0,0
1849,-4.0,-9.0,250.0,0
1850,-3.0,-9.0,245.0,0
1851,-1.0,-13.0,246.0,0
1852,-1.0,-5.0,246.0,0
1853,-4.0,-13.0,249.0,0
1854,0.0,-10.0,253.0,0
1855,-2.0,-12.0,249.0,0
1856,0.0,-11.0,249.0,0
1857,-1.0,-12.0,250.0,0
1858,-2.0,-10.0,251.0,0
1859,0.0,-12.0,251.0,0
1860,-1.0,-13.0,249.0,0
1861,-1.0,-13.0,251.0,0
1862,-2.0,-8.0,249.0,0
1863,0.0,-2.0,255.0,0
1864,-2.0,-10.0,254.0,0
1865,-1.0,-14.0,247.0,0
1866,1.0,-12.0,248.0,0
1867,0.0,-12.0,248.0,0
1868,-3.0,-11.0,250.0,0
1869,0.0,-14.0,245.0,0
1870,1.0,-15.0,253.0,0
1871,0.0,-15.0,247.0,0
1872,1.0,-12.0,249.0,0
1873,-2.0,-15.0,250.0,0
1874,1.0,-15.0,246.0,0
1875,-1.0,-12.0,247.0,0
1876,0.0,-14.0,251.0,0
1877,0.0,-10.0,248.0,0
1878,0.0,-13.0,244.0,0
1879,2.0,-13.0,247.0,0
1880,0.0,-11.0,250.0,0
1881,-2.0,-13.0,248.0,0
1882,1.0,-15.0,251.0,0
1883,0.0,-11.0,248.0,0
1884,0.0,-13.0,246.0,0
1885,-1.0,-10.0,242.0,0
1886,0.0,-15.0,246.0,0
1887,1.0,-10.0,250.0,0
1888,0.0,-11.0,250.0,0
1889,-1.0,-11.0,250.0,0
1890,-2.0,-11.0,246.0,0
1891,2.0,-15.0,249.0,0
1892,0.0,-12.0,247.0,0
1893,0.0,-17.0,244.0,0
1894,0.0,-13.0,249.0,0
1895,-2.0,-15.0,249.0,0
1896,0.0,-14.0,246.0,0
1897,2.0,-16.0,249.0,0
1898,0.0,-14.0,248.0,0
1899,0.0,-12.0,251.0,0
1900,1.0,-13.0,248.0,0
1901,0.0,-14.0,248.0,0
1902,0.0,-13.0,245.0,0
1903,0.0,-13.0,246.0,0
1904,1.0,-17.0,246.0,0
1905,-3.0,-10.0,252.0,0
1906,2.0,-15.0,245.0,0
1907,-4.0,-17.0,244.0,0
1908,-2.0,-12.0,251.0,0
1909,0.0,-15.0,247.0,0
1910,-1.0,-16.0,248.0,0
1911,0.0,-20.0,247.0,0
1912,0.0,-19.0,245.0,0
1913,-3.0,-15.0,249.0,0
1914,-1.0,-16.0,245.0,0
1915,-3.0,-17.0,243.0,0
1916,-4.0,-16.0,245.0,0
1917,-5.0,-12.0,250.0,0
1918,0.0,-17.0,243.0,0
1919,0.0,-11.0,245.0,0
1920,1.0,-14.0,244.0,0
1921,0.0,-14.0,249.0,0
1922,1.0,-13.0,245.0,0
1923,0.0,-13.0,249.0,0
1924,3.0,-15.0,251.0,0
1925,1.0,-15.0,250.0,0
1926,1.0,-16.0,250.0,0
1927,0.0,-16.0,248.0,0
1928,0.0,-15.0,241.0,0
1929,-1.0,-17.0,247.0,0
1930,-2.0,-15.0,251.0,0
1931,0.0,-13.0,248.0,0
1932,0.0,-14.0,250.0,0
1933,2.0,-18.0,245.0,0
1934,-1.0,-16.0,248.0,0
1935,1.0,-17.0,248.0,0
1936,1.0,-21.0,248.0,0
1937,1.0,-17.0,248.0,0
1938,0.0,-16.0,250.0,0
1939,-3.0,-12.0,241.0,0
1940,-5.0,-20.0,250.0,0
1941,0.0,-17.0,247.0,0
1942,-1.0,-13.0,249.0,0
1943,0.0,-15.0,251.0,0
1944,2.0,-16.0,248.0,0
1945,-1.0,-13.0,250.0,0
1946,0.0,-16.0,250.0,0
1947,0.0,-16.0,250.0,0
1948,0.0,-14.0,245.0,0
1949,-2.0,-14.0,244.0,0
1950,-3.0,-18.0,251.0,0
1951,-4.0,-13.0,254.0,0
1952,2.0,-15.0,250.0,0
1953,0.0,-11.0,247.0,0
1954,-2.0,-11.0,249.0,0
1955,0.0,-9.0,245.0,0
1956,0.0,-8.0,248.0,0
1957,-2.0,-8.0,246.0,0
1958,-1.0,-9.0,253.0,0
1959,-2.0,-5.0,248.0,0
1960,0.0,-8.0,251.0,0
1961,-7.0,-2.0,249.0,0
1962,0.0,-6.0,249.0,0
1963,-2.0,-8.0,251.0,0
1964,1.0,-12.0,251.0,0
1965,-3.0,-5.0,252.0,0
1966,-2.0,-10.0,249.0,0
1967,0.0,-12.0,254.0,0
1968,-1.0,-14.0,251.0,0
1969,-4.0,-5.0,246.0,0
1970,-6.0,-8.0,253.0,0
1971,-3.0,-8.0,253.0,0
1972,-1.0,-8.0,253.0,0
1973,0.0,-10.0,248.0,0
1974,0.0,-10.0,250.0,0
1975,0.0,-9.0,248.0,0
1976,-2.0,-8.0,251.0,0
1977,-1.0,-6.0,251.0,0
1978,-2.0,-9.0,249.0,0
1979,-1.0,-11.0,250.0,0
1980,0.0,-9.0,249.0,0
1981,1.0,-8.0,249.0,0
1982,-1.0,-7.0,253.0,0
1983,2.0,-7.0,243.0,0
1984,-1.0,-10.0,247.0,0
1985,0.0,-8.0,250.0,0
1986,0.0,-10.0,249.0,0
1987,-3.0,-11.0,253.0,0
1988,-1.0,-11.0,246.0,0
1989,0.0,-10.0,246.0,0
1990,-1.0,-12.0,251.0,0
1991,0.0,-12.0,244.0,0
1992,-1.0,-11.0,246.0,0
1993,-4.0,-16.0,247.0,0
1994,3.0,-15.0,249.0,0
1995,0.0,-11.0,247.0,0
1996,-2.0,-11.0,250.0,0
1997,-1.0,-11.0,251.0,0
1998,-3.0,-7.0,247.0,0
1999,0.0,-9.0,253.0,0
2000,-2.0,-9.0,248.0,0
2001,-2.0,-13.0,248.0,0
2002,-1.0,-8.0,248.0,0
2003,-1.0,-9.0,250.0,0
2004,-4.0,-8.0,252.0,0
2005,1.0,-15.0,246.0,0
2006,-2.0,-11.0,242.0,0
2007,1.0,-14.0,249.0,0
2008,-5.0,-8.0,247.0,0
2009,-1.0,-12.0,248.0,0
2010,0.0,-13.0,249.0,0
2011,-2.0,-14.0,250.0,0
2012,1.0,-12.0,250.0,0
2013,0.0,-7.0,248.0,0
2014,0.0,-6.0,248.0,0
2015,-1.0,-7.0,253.0,0
2016,-5.0,-10.0,251.0,0
2017,-1.0,-6.0,253.0,0
2018,-1.0,-9.0,247.0,0
2019,-2.0,-1.0,249.0,0
2020,-3.0,-4.0,250.0,0
2021,-1.0,-10.0,248.0,0
2022,-3.0,-10.0,252.0,0
2023,-2.0,-8.0,249.0,0
2024,-1.0,-8.0,248.0,0
2025,-4.0,-7.0,250.0,0
2026,6.0,-7.0,250.0,0
2027,-6.0,-1.0,253.0,0
2028,-3.0,-4.0,250.0,0
2029,-1.0,-4.0,249.0,0
2030,0.0,-7.0,247.0,0
2031,-4.0,-8.0,247.0,0
2032,-1.0,-7.0,248.0,0
2033,-2.0,-8.0,249.0,0
2034,-3.0,-8.0,249.0,0
2035,-2.0,-3.0,252.0,0
2036,-2.0,-6.0,242.0,0
2037,0.0,-8.0,250.0,0
2038,-5.0,-4.0,242.0,0
2039,2.0,-6.0,248.0,0
2040,-1.0,0.0,253.0,0
2041,-1.0,-5.0,252.0,0
2042,0.0,-2.0,250.0,0
2043,-2.0,-6.0,252.0,0
2044,0.0,-4.0,249.0,0
2045,-3.0,-3.0,247.0,0
2046,2.0,-3.0,252.0,0
2047,0.0,-6.0,255.0,0
2048,3.0,-11.0,249.0,0
2049,-2.0,-6.0,261.0,0
2050,4.0,-6.0,256.0,0
2051,0.0,-5.0,251.0,0
2052,-3.0,-7.0,251.0,0
2053,0.0,-4.0,249.0,0
2054,0.0,-6.0,252.0,0
2055,-1.0,-5.0,248.0,0
2056,-2.0,-5.0,251.0,0
2057,-3.0,-8.0,250.0,0
2058,-1.0,-9.0,250.0,0
2059,0.0,-7.0,251.0,0
2060,-2.0,-3.0,247.0,0
2061,-3.0,-6.0,248.0,0
2062,0.0,-5.0,250.0,0
2063,0.0,-7.0,251.0,0
2064,-2.0,-4.0,251.0,0
2065,1.0,-8.0,248.0,0
2066,-3.0,-4.0,245.0,0
2067,-4.0,-5.0,251.0,0
2068,2.0,-6.0,248.0,0
2069,0.0,0.0,245.0,0
2070,2.0,-5.0,250.0,0
2071,-1.0,-7.0,250.0,0
2072,-4.0,-4.0,249.0,0
2073,-1.0,-6.0,251.0,0
2074,0.0,-8.0,252.0,0
2075,1.0,-4.0,251.0,0
2076,0.0,-5.0,250.0,0
2077,-1.0,-11.0,252.0,0
2078,1.0,-5.0,251.0,0
2079,-2.0,-7.0,251.0,0
2080,0.0,-4.0,251.0,0
2081,-5.0,-7.0,251.0,0
2082,-1.0,-4.0,251.0,0
2083,-2.0,-10.0,252.0,0
2084,0.0,-4.0,251.0,0
2085,-3.0,-4.0,254.0,0
2086,-4.0,-3.0,248.0,0
2087,-2.0,-2.0,249.0,0
2088,-3.0,-3.0,246.0,0
2089,-2.0,0.0,249.0,0
2090,-1.0,-1.0,249.0,0
2091,-4.0,-5.0,249.0,0
2092,-1.0,-3.0,251.0,0
2093,1.0,-6.0,253.0,0
2094,0.0,-3.0,250.0,0
2095,0.0,-2.0,250.0,0
2096,-1.0,-3.0,250.0,0
2097,-1.0,-2.0,250.0,0
2098,-1.0,-2.0,249.0,0
2099,0.0,-5.0,251.0,0
2100,-1.0,0.0,247.0,0
2101,-5.0,1.0,247.0,0
2102,0.0,-3.0,253.0,0
2103,-5.0,-4.0,248.0,0
2104,0.0,-3.0,251.0,0
2105,-4.0,-2.0,251.0,0
2106,0.0,-2.0,250.0,0
2107,-2.0,-1.0,252.0,0
2108,-2.0,-5.0,251.0,0
2109,-1.0,0.0,252.0,0
2110,-3.0,-3.0,249.0,0
2111,0.0,0.0,249.0,0
2112,0.0,-3.0,253.0,0
2113,-1.0,-3.0,252.0,0
2114,0.0,-4.0,251.0,0
2115,0.0,-3.0,255.0,0
2116,0.0,-3.0,248.0,0
2117,-2.0,-5.0,249.0,0
2118,-3.0,-2.0,249.0,0
2119,-3.0,-2.0,253.0,0
2120,-5.0,0.0,250.0,0
2121,0.0,-2.0,250.0,0
2122,0.0,-2.0,251.0,0
2123,-3.0,-1.0,255.0,0
2124,-3.0,-6.0,252.0,0
2125,5.0,-1.0,253.0,0
2126,0.0,-2.0,250.0,0
2127,-3.0,-2.0,251.0,0
2128,-1.0,-3.0,252.0,0
2129,0.0,-4.0,249.0,0
2130,0.0,-4.0,249.0,0
2131,0.0,-3.0,248.0,0
2132,-3.0,-6.0,247.0,0
2133,1.0,-2.0,246.0,0
2134,-3.0,-1.0,246.0,0
2135,0.0,-3.0,250.0,0
2136,0.0,-3.0,245.0,0
2137,0.0,0.0,248.0,0
2138,0.0,-4.0,251.0,0
2139,-2.0,0.0,250.0,0
2140,0.0,-2.0,250.0,0
2141,1.0,0.0,251.0,0
2142,1.0,0.0,250.0,0
2143,-1.0,-3.0,252.0,0
2144,0.0,-7.0,251.0,0
2145,-1.0,-1.0,246.0,0
2146,-4.0,-2.0,251.0,0
2147,-5.0,-6.0,248.0,0
2148,-6.0,0.0,248.0,0
2149,-2.0,-3.0,246.0,0
2150,0.0,-5.0,248.0,0
2151,-5.0,-2.0,249.0,0
2152,-1.0,-2.0,249.0,0
2153,-2.0,-2.0,252.0,0
2154,-4.0,-4.0,247.0,0
2155,-3.0,-5.0,249.0,0
2156,-3.0,-7.0,252.0,0
2157,-3.0,-3.0,249.0,0
2158,-5.0,-4.0,245.0,0
2159,-2.0,-2.0,252.0,0
2160,0.0,-5.0,251.0,0
2161,-1.0,-4.0,251.0,0
2162,-2.0,-2.0,248.0,0
2163,-3.0,-3.0,247.0,0
2164,-2.0,0.0,247.0,0
2165,-4.0,-1.0,251.0,0
2166,-2.0,-2.0,247.0,0
2167,-2.0,-4.0,246.0,0
2168,-6.0,-9.0,241.0,0
2169,0.0,-3.0,249.0,0
2170,0.0,-5.0,250.0,0
2171,-1.0,-2.0,246.0,0
2172,-2.0,-2.0,246.0,0
2173,-4.0,0.0,251.0,0
2174,-3.0,0.0,250.0,0
2175,-2.0,-4.0,251.0,0
2176,-1.0,-3.0,245.0,0
2177,-5.0,0.0,250.0,0
2178,-2.0,2.0,248.0,0
2179,-7.0,-2.0,245.0,0
2180,0.0,0.0,248.0,0
2181,-2.0,0.0,249.0,0
2182,-3.0,0.0,251.0,0
2183,-2.0,-3.0,250.0,0
2184,-1.0,-2.0,249.0,0
2185,-4.0,-1.0,250.0,0
2186,0.0,-1.0,252.0,0
2187,-4.0,-3.0,247.0,0
2188,-1.0,-3.0,252.0,0
2189,-1.0,0.0,250.0,0
2190,-5.0,0.0,254.0,0
2191,-1.0,-1.0,250.0,0
2192,-1.0,-1.0,252.0,0
2193,0.0,-4.0,252.0,0
2194,-2.0,-2.0,250.0,0
2195,-2.0,-4.0,250.0,0
2196,0.0,-4.0,250.0,0
2197,-2.0,-2.0,245.0,0
2198,-6.0,-1.0,254.0,0
2199,0.0,1.0,252.0,0
2200,-1.0,-4.0,253.0,0
2201,-2.0,0.0,252.0,0
2202,-1.0,-2.0,249.0,0
2203,0.0,-4.0,250.0,0
2204,-3.0,-1.0,252.0,0
2205,-1.0,-1.0,252.0,0
2206,-3.0,-4.0,251.0,0
2207,-3.0,-2.0,250.0,0
2208,-7.0,0.0,248.0,0
2209,-2.0,-2.0,249.0,0
2210,-3.0,-4.0,246.0,0
2211,0.0,1.0,248.0,0
2212,-1.0,-6.0,256.0,0
2213,-2.0,-4.0,250.0,0
2214,-1.0,-1.0,249.0,0
2215,-3.0,0.0,248.0,0
2216,-2.0,-1.0,250.0,0
2217,0.0,-3.0,253.0,0
2218,0.0,0.0,254.0,0
2219,-1.0,-3.0,250.0,0
2220,1.0,-4.0,249.0,0
2221,-1.0,-2.0,247.0,0
2222,0.0,-7.0,250.0,0
2223,-2.0,-1.0,258.0,0
2224,-2.0,-3.0,252.0,0
2225,0.0,-5.0,251.0,0
2226,-3.0,-1.0,252.0,0
2227,-1.0,-7.0,247.0,0
2228,-1.0,-1.0,246.0,0
2229,-3.0,-1.0,249.0,0
2230,-2.0,-6.0,250.0,0
2231,-3.0,-2.0,251.0,0
2232,-4.0,-1.0,253.0,0
2233,-4.0,-5.0,251.0,0
2234,-1.0,-3.0,247.0,0
2235,1.0,-3.0,253.0,0
2236,-4.0,0.0,247.0,0
2237,-5.0,1.0,252.0,0
2238,-1.0,1.0,251.0,0
2239,0.0,0.0,248.0,0
2240,-2.0,1.0,249.0,0
2241,-3.0,-1.0,253.0,0
2242,-1.0,1.0,250.0,0
2243,-5.0,0.0,250.0,0
2244,-8.0,0.0,251.0,0
2245,-4.0,2.0,248.0,0
2246,0.0,-1.0,249.0,0
2247,-4.0,0.0,254.0,0
2248,-2.0,0.0,253.0,0
2249,0.0,-1.0,252.0,0
2250,-1.0,0.0,250.0,0
2251,-4.0,0.0,251.0,0
2252,-2.0,-1.0,253.0,0
2253,-4.0,-1.0,254.0,0
2254,-2.0,0.0,255.0,0
2255,-2.0,1.0,253.0,0
2256,-8.0,2.0,244.0,0
2257,-3.0,1.0,252.0,0
2258,0.0,0.0,249.0,0
2259,-2.0,1.0,253.0,0
2260,0.0,0.0,251.0,0
2261,-5.0,0.0,252.0,0
2262,-4.0,0.0,252.0,0
2263,-1.0,0.0,250.0,0
2264,-2.0,1.0,249.0,0
2265,-4.0,0.0,250.0,0
2266,-7.0,1.0,246.0,0
2267,-1.0,0.0,248.0,0
2268,0.0,-2.0,249.0,0
2269,-1.0,1.0,252.0,0
2270,-2.0,-2.0,248.0,0
2271,-3.0,-1.0,250.0,0
2272,-5.0,0.0,249.0,0
2273,-5.0,0.0,252.0,0
2274,-3.0,1.0,248.0,0
2275,-4.0,-1.0,253.0,0
2276,1.0,0.0,252.0,0
2277,1.0,1.0,248.0,0
2278,-1.0,-5.0,247.0,0
2279,-2.0,0.0,252.0,0
2280,-4.0,-2.0,253.0,0
2281,-4.0,-1.0,253.0,0
2282,0.0,-1.0,251.0,0
2283,-3.0,-1.0,248.0,0
2284,-1.0,0.0,250.0,0
2285,-4.0,0.0,249.0,0
2286,-1.0,0.0,249.0,0
2287,0.0,0.0,250.0,0
2288,-1.0,-1.0,250.0,0
2289,0.0,-1.0,253.0,0
2290,-5.0,-1.0,253.0,0
2291,-2.0,-2.0,252.0,0
2292,-2.0,0.0,249.0,0
2293,0.0,-3.0,251.0,0
2294,-2.0,0.0,252.0,0
2295,0.0,-5.0,254.0,0
2296,0.0,-2.0,252.0,0
2297,-7.0,-1.0,255.0,0
2298,-1.0,0.0,257.0,0
2299,-3.0,-3.0,248.0,0
2300,-3.0,2.0,252.0,0
2301,0.0,-2.0,247.0,0
2302,0.0,0.0,247.0,0
2303,-2.0,0.0,251.0,0
2304,-1.0,0.0,249.0,0
2305,-5.0,1.0,252.0,0
2306,-3.0,-2.0,249.0,0
2307,0.0,0.0,250.0,0
2308,-3.0,1.0,247.0,0
2309,-1.0,0.0,248.0,0
2310,3.0,1.0,253.0,0
2311,-1.0,0.0,250.0,0
2312,0.0,0.0,248.0,0
2313,-1.0,-2.0,250.0,0
2314,0.0,0.0,249.0,0
2315,-1.0,0.0,252.0,0
2316,-1.0,0.0,248.0,0
2317,-6.0,1.0,248.0,0
2318,0.0,-2.0,245.0,0
2319,-3.0,0.0,247.0,0
2320,-7.0,-2.0,250.0,0
2321,-2.0,-1.0,244.0,0
2322,-1.0,-2.0,249.0,0
2323,-2.0,0.0,248.0,0
2324,0.0,-1.0,253.0,0
2325,-1.0,0.0,249.0,0
2326,-1.0,-1.0,251.0,0
2327,-3.0,-5.0,248.0,0
2328,-4.0,-4.0,251.0,0
2329,0.0,-3.0,248.0,0
2330,-4.0,-3.0,246.0,0
2331,0.0,-5.0,253.0,0
2332,1.0,-1.0,256.0,0
2333,-1.0,-3.0,249.0,0
2334,-1.0,-3.0,250.0,0
2335,0.0,-2.0,251.0,0
2336,-4.0,-2.0,250.0,0
2337,-2.0,0.0,250.0,0
2338,-1.0,-5.0,249.0,0
2339,-1.0,-3.0,252.0,0
2340,-3.0,-2.0,248.0,0
2341,-3.0,-1.0,247.0,0
2342,-1.0,-4.0,245.0,0
2343,-2.0,-6.0,254.0,0
2344,-2.0,-3.0,248.0,0
2345,-3.0,-5.0,248.0,0
2346,-2.0,-6.0,250.0,0
2347,-3.0,-1.0,252.0,0
2348,-1.0,0.0,249.0,0
2349,-1.0,-3.0,250.0,0
2350,1.0,-7.0,249.0,0
2351,-3.0,-1.0,247.0,0
2352,-1.0,1.0,247.0,0
2353,2.0,-1.0,248.0,0
2354,-7.0,-6.0,251.0,0
2355,-2.0,0.0,250.0,0
2356,-2.0,-2.0,248.0,0
2357,-1.0,-2.0,249.0,0
2358,0.0,-5.0,248.0,0
2359,-1.0,0.0,248.0,0
2360,-2.0,-3.0,248.0,0
2361,-1.0,-1.0,248.0,0
2362,0.0,-3.0,250.0,0
2363,1.0,-5.0,252.0,0
2364,-3.0,-6.0,252.0,0
2365,-5.0,-2.0,247.0,0
2366,0.0,-2.0,255.0,0
2367,0.0,-3.0,251.0,0
2368,0.0,-5.0,253.0,0
2369,0.0,-5.0,249.0,0
2370,0.0,-6.0,245.0,0
2371,-1.0,-3.0,247.0,0
2372,1.0,-6.0,251.0,0
2373,-3.0,-5.0,245.0,0
2374,0.0,-9.0,251.0,0
2375,1.0,-6.0,253.0,0
2376,-3.0,-3.0,253.0,0
2377,-4.0,-5.0,249.0,0
2378,0.0,-6.0,251.0,0
2379,0.0,-4.0,246.0,0
2380,-4.0,-2.0,246.0,0
2381,-4.0,-5.0,244.0,0
2382,-1.0,-8.0,253.0,0
2383,-3.0,-9.0,247.0,0
2384,-2.0,-7.0,249.0,0
2385,-2.0,-7.0,245.0,0
2386,-2.0,-10.0,250.0,0
2387,-2.0,-4.0,245.0,0
2388,0.0,-9.0,249.0,0
2389,-1.0,-6.0,249.0,0
2390,-3.0,-7.0,248.0,0
2391,0.0,-5.0,249.0,0
2392,0.0,-9.0,247.0,0
2393,-3.0,-8.0,252.0,0
2394,-3.0,-8.0,253.0,0
2395,-3.0,-2.0,249.0,0
2396,-3.0,-8.0,245.0,0
2397,-2.0,-3.0,245.0,0
2398,-3.0,0.0,251.0,0
2399,-2.0,0.0,253.0,0
2400,-3.0,0.0,250.0,0
2401,-1.0,0.0,251.0,0
2402,-4.0,0.0,249.0,0
2403,-1.0,0.0,247.0,0
2404,-5.0,0.0,253.0,0
2405,0.0,-2.0,250.0,0
2406,-5.0,0.0,248.0,0
2407,-2.0,0.0,248.0,0
2408,3.0,0.0,253.0,0
2409,0.0,-5.0,249.0,0
2410,-1.0,-5.0,251.0,0
2411,-4.0,-1.0,249.0,0
2412,-3.0,-3.0,249.0,0
2413,-1.0,-4.0,247.0,0
2414,-2.0,-1.0,250.0,0
2415,0.0,-6.0,251.0,0
2416,-1.0,-8.0,249.0,0
2417,-2.0,-4.0,255.0,0
2418,-7.0,-2.0,247.0,0
2419,-10.0,-4.0,237.0,0
2420,-3.0,-3.0,251.0,0
2421,-2.0,-4.0,249.0,0
2422,-2.0,-2.0,251.0,0
2423,-2.0,0.0,248.0,0
2424,-4.0,-1.0,253.0,0
2425,-2.0,-5.0,251.0,0
2426,-2.0,-4.0,252.0,0
2427,-5.0,0.0,249.0,0
2428,1.0,-3.0,255.0,0
2429,1.0,-3.0,250.0,0
2430,-2.0,-5.0,254.0,0
2431,-3.0,-3.0,253.0,0
2432,-2.0,-1.0,249.0,0
2433,-2.0,-2.0,247.0,0
2434,-5.0,-6.0,249.0,0
2435,-3.0,-4.0,246.0,0
2436,-3.0,-3.0,250.0,0
2437,-6.0,-6.0,250.0,0
2438,-2.0,-8.0,248.0,0
2439,-7.0,-5.0,250.0,0
2440,-6.0,-2.0,246.0,0
2441,-1.0,-4.0,247.0,0
2442,-4.0,-6.0,245.0,0
2443,-3.0,0.0,251.0,0
2444,-2.0,-3.0,250.0,0
2445,-3.0,-1.0,251.0,0
2446,-5.0,-2.0,248.0,0
2447,-2.0,-3.0,255.0,0
2448,-5.0,-5.0,249.0,0
2449,-1.0,-5.0,248.0,0
2450,-1.0,-6.0,245.0,0
2451,-1.0,-7.0,247.0,0
2452,-4.0,-15.0,242.0,0
2453,-1.0,-7.0,246.0,0
2454,-2.0,-4.0,249.0,0
2455,-2.0,-3.0,248.0,0
2456,1.0,-7.0,249.0,0
2457,-1.0,-8.0,249.0,0
2458,-3.0,0.0,251.0,0
2459,-3.0,-5.0,247.0,0
2460,0.0,-3.0,252.0,0
2461,0.0,-1.0,248.0,0
2462,-2.0,-3.0,251.0,0
2463,-3.0,-1.0,251.0,0
2464,-5.0,-2.0,249.0,0
2465,-3.0,0.0,253.0,0
2466,-2.0,0.0,245.0,0
2467,0.0,-1.0,250.0,0
2468,-2.0,0.0,250.0,0
2469,-3.0,-3.0,255.0,0
2470,-1.0,0.0,251.0,0
2471,-5.0,-2.0,253.0,0
2472,-3.0,-1.0,249.0,0
2473,-6.0,-8.0,250.0,0
2474,-2.0,0.0,249.0,0
2475,0.0,-1.0,251.0,0
2476,0.0,-4.0,251.0,0
2477,-1.0,-5.0,251.0,0
2478,-1.0,-2.0,247.0,0
2479,-1.0,-6.0,253.0,0
2480,1.0,-5.0,254.0,0
2481,-4.0,-1.0,249.0,0
2482,0.0,-6.0,251.0,0
2483,-1.0,-6.0,255.0,0
2484,-3.0,-2.0,246.0,0
2485,0.0,-3.0,248.0,0
2486,-2.0,0.0,251.0,0
2487,-2.0,-2.0,253.0,0
2488,-1.0,-3.0,253.0,0
2489,-3.0,-2.0,252.0,0
2490,-2.0,-5.0,249.0,0
2491,-2.0,-3.0,252.0,0
2492,0.0,-6.0,252.0,0
2493,-5.0,-4.0,251.0,0
2494,0.0,-4.0,249.0,0
2495,-2.0,-4.0,245.0,0
2496,1.0,-3.0,247.0,0
2497,0.0,-4.0,252.0,0
2498,-2.0,0.0,253.0,0
2499,-3.0,-5.0,248.0,0
2500,0.0,-1.0,253.0,0
2501,-4.0,-4.0,251.0,0
2502,-1.0,-6.0,251.0,0
2503,-2.0,-3.0,245.0,0
2504,-3.0,0.0,250.0,0
2505,-2.0,-5.0,252.0,0
2506,1.0,-7.0,252.0,0
2507,-1.0,-2.0,248.0,0
2508,-4.0,-4.0,250.0,0
2509,-2.0,-5.0,251.0,0
2510,-2.0,-1.0,246.0,0
2511,-1.0,0.0,251.0,0
2512,-1.0,-1.0,251.0,0
2513,-2.0,-1.0,253.0,0
2514,0.0,-1.0,252.0,0
2515,0.0,-3.0,248.0,0
2516,-1.0,0.0,247.0,0
2517,-2.0,-7.0,242.0,0
2518,-3.0,-2.0,249.0,0
2519,-2.0,-1.0,251.0,0
2520,-4.0,-2.0,249.0,0
2521,-1.0,-5.0,249.0,0
2522,-2.0,-2.0,251.0,0
2523,-1.0,-3.0,247.0,0
2524,-2.0,-2.0,248.0,0
2525,1.0,-5.0,245.0,0
2526,-1.0,-9.0,252.0,0
2527,-6.0,-3.0,249.0,0
2528,-7.0,-4.0,242.0,0
2529,-3.0,0.0,252.0,0
2530,-1.0,0.0,250.0,0
2531,0.0,0.0,248.0,0
2532,-3.0,0.0,252.0,0
2533,0.0,0.0,249.0,0
2534,-3.0,0.0,251.0,0
2535,-3.0,-2.0,252.0,0
2536,-3.0,-1.0,251.0,0
2537,-5.0,0.0,250.0,0
2538,1.0,-1.0,253.0,0
2539,-5.0,-2.0,249.0,0
2540,0.0,-1.0,252.0,0
2541,-4.0,0.0,253.0,0
2542,0.0,0.0,249.0,0
2543,-1.0,0.0,247.0,0
2544,0.0,0.0,248.0,0
2545,0.0,-1.0,250.0,0
2546,-1.0,-2.0,247.0,0
2547,-3.0,-2.0,251.0,0
2548,0.0,-3.0,250.0,0
2549,-4.0,-1.0,256.0,0
2550,9.0,-3.0,247.0,0
2551,-2.0,-2.0,247.0,0
2552,-2.0,-1.0,249.0,0
2553,-2.0,0.0,249.0,0
2554,-1.0,-1.0,250.0,0
2555,-6.0,1.0,250.0,0
2556,-1.0,-2.0,247.0,0
2557,-3.0,-6.0,249.0,0
2558,-1.0,-4.0,253.0,0
2559,-7.0,0.0,250.0,0
2560,0.0,-3.0,253.0,0
2561,-1.0,0.0,252.0,0
2562,-3.0,0.0,250.0,0
2563,-1.0,-1.0,251.0,0
2564,-1.0,-3.0,252.0,0
2565,-4.0,0.0,254.0,0
2566,0.0,0.0,254.0,0
2567,-3.0,0.0,249.0,0
2568,1.0,-2.0,251.0,0
2569,0.0,-1.0,249.0,0
2570,5.0,0.0,255.0,0
2571,-3.0,-6.0,249.0,0
2572,-1.0,-1.0,251.0,0
2573,-1.0,0.0,250.0,0
2574,-2.0,-4.0,247.0,0
2575,-2.0,-3.0,252.0,0
2576,-2.0,0.0,250.0,0
2577,-4.0,0.0,250.0,0
2578,-1.0,-4.0,252.0,0
2579,-1.0,-2.0,251.0,0
2580,-1.0,-4.0,249.0,0
2581,-1.0,-1.0,246.0,0
2582,-2.0,-3.0,246.0,0
2583,-1.0,-6.0,247.0,0
2584,0.0,-2.0,249.0,0
2585,0.0,-1.0,249.0,0
2586,-6.0,0.0,249.0,0
2587,-1.0,-3.0,247.0,0
2588,-5.0,1.0,250.0,0
2589,-5.0,-1.0,250.0,0
2590,-2.0,-4.0,251.0,0
2591,0.0,0.0,252.0,0
2592,0.0,-1.0,255.0,0
2593,-2.0,1.0,247.0,0
2594,-1.0,-2.0,251.0,0
2595,-2.0,0.0,250.0,0
2596,0.0,0.0,249.0,0
2597,0.0,0.0,253.0,0
2598,-1.0,-3.0,247.0,0
2599,-3.0,-1.0,252.0,0
2600,1.0,-4.0,251.0,0
2601,0.0,-1.0,255.0,0
2602,-1.0,-1.0,253.0,0
2603,-2.0,-5.0,254.0,0
2604,-4.0,-6.0,252.0,0
2605,0.0,-5.0,249.0,0
2606,0.0,-2.0,245.0,0
2607,-2.0,0.0,248.0,0
2608,0.0,-3.0,249.0,0
2609,-4.0,0.0,248.0,0
2610,0.0,0.0,248.0,0
2611,-4.0,-1.0,249.0,0
2612,-2.0,-6.0,251.0,0
2613,-3.0,-1.0,252.0,0
2614,-2.0,-4.0,251.0,0
2615,-3.0,-2.0,244.0,0
2616,0.0,-2.0,250.0,0
2617,-3.0,-4.0,247.0,0
2618,-1.0,-4.0,248.0,0
2619,-1.0,-2.0,253.0,0
2620,-1.0,-4.0,251.0,0
2621,-2.0,-5.0,250.0,0
2622,-3.0,-2.0,250.0,0
2623,1.0,0.0,249.0,0
2624,-2.0,-6.0,248.0,0
2625,1.0,-6.0,250.0,0
2626,-1.0,-5.0,244.0,0
2627,0.0,0.0,252.0,0
2628,0.0,1.0,248.0,0
2629,-1.0,1.0,249.0,0
2630,-2.0,1.0,251.0,0
2631,-1.0,0.0,253.0,0
2632,-3.0,-1.0,249.0,0
2633,-5.0,1.0,251.0,0
2634,-3.0,1.0,254.0,0
2635,-4.0,-1.0,255.0,0
2636,-3.0,3.0,254.0,0
2637,0.0,-1.0,251.0,0
2638,-2.0,0.0,251.0,0
2639,-2.0,0.0,252.0,0
2640,0.0,-1.0,251.0,0
2641,0.0,-1.0,250.0,0
2642,-2.0,-1.0,251.0,0
2643,-5.0,1.0,253.0,0
2644,-3.0,0.0,247.0,0
2645,0.0,-1.0,253.0,0
2646,-2.0,-2.0,253.0,0
2647,0.0,-4.0,253.0,0
2648,-6.0,0.0,247.0,0
2649,-1.0,0.0,249.0,0
2650,-3.0,-1.0,249.0,0
2651,0.0,-2.0,253.0,0
2652,-1.0,-3.0,249.0,0
2653,0.0,-4.0,252.0,0
2654,0.0,0.0,251.0,0
2655,-4.0,0.0,249.0,0
2656,-1.0,-4.0,250.0,0
2657,-4.0,-1.0,247.0,0
2658,-4.0,1.0,253.0,0
2659,-4.0,2.0,245.0,0
2660,-4.0,-3.0,249.0,0
2661,-2.0,-4.0,247.0,0
2662,0.0,-3.0,251.0,0
2663,-2.0,0.0,248.0,0
2664,-1.0,-4.0,252.0,0
2665,-1.0,-3.0,249.0,0
2666,0.0,-4.0,251.0,0
2667,-2.0,-2.0,250.0,0
2668,-1.0,-2.0,255.0,0
2669,0.0,-2.0,251.0,0
2670,-3.0,1.0,249.0,0
2671,-1.0,0.0,249.0,0
2672,1.0,-1.0,250.0,0
2673,-1.0,1.0,253.0,0
2674,-2.0,0.0,252.0,0
2675,-3.0,-4.0,249.0,0
2676,-6.0,-1.0,248.0,0
2677,-3.0,-1.0,253.0,0
2678,-6.0,1.0,246.0,0
2679,-3.0,-3.0,251.0,0
2680,-8.0,-5.0,256.0,0
2681,-3.0,-3.0,250.0,0
2682,-1.0,-1.0,251.0,0
2683,-1.0,-5.0,252.0,0
2684,-4.0,0.0,248.0,0
2685,-2.0,-2.0,248.0,0
2686,0.0,-3.0,249.0,0
2687,-6.0,-2.0,249.0,0
2688,0.0,-2.0,250.0,0
2689,-3.0,-4.0,250.0,0
2690,-4.0,1.0,247.0,0
2691,-7.0,-1.0,249.0,0
2692,-5.0,0.0,253.0,0
2693,-5.0,-1.0,248.0,0
2694,-5.0,0.0,252.0,0
2695,-1.0,2.0,252.0,0
2696,-5.0,-3.0,251.0,0
2697,1.0,-2.0,249.0,0
2698,-5.0,0.0,251.0,0
2699,-3.0,-2.0,251.0,0
2700,-3.0,-3.0,250.0,0
2701,-3.0,-1.0,250.0,0
2702,-2.0,4.0,246.0,0
2703,-1.0,-4.0,253.0,0
2704,-3.0,0.0,252.0,0
2705,1.0,-3.0,250.0,0
2706,-2.0,-1.0,248.0,0
2707,-2.0,-1.0,247.0,0
2708,0.0,-4.0,253.0,0
2709,-2.0,-3.0,251.0,0
2710,-1.0,-3.0,249.0,0
2711,-3.0,-4.0,249.0,0
2712,-1.0,-1.0,249.0,0
2713,-1.0,-2.0,253.0,0
2714,-2.0,-5.0,250.0,0
2715,0.0,-2.0,250.0,0
2716,-1.0,-1.0,249.0,0
2717,-1.0,0.0,250.0,0
2718,0.0,-3.0,250.0,0
2719,0.0,-2.0,252.0,0
2720,-1.0,-2.0,248.0,0
2721,0.0,0.0,247.0,0
2722,1.0,-4.0,249.0,0
2723,-4.0,-2.0,253.0,0
2724,-1.0,-3.0,248.0,0
2725,-1.0,0.0,249.0,0
2726,-4.0,0.0,250.0,0
2727,-3.0,-1.0,251.0,0
2728,-1.0,0.0,249.0,0
2729,-3.0,0.0,250.0,0
2730,-1.0,-2.0,254.0,0
2731,-2.0,-3.0,255.0,0
2732,-2.0,-4.0,250.0,0
2733,1.0,-7.0,254.0,0
2734,-6.0,-4.0,247.0,0
2735,-3.0,-10.0,251.0,0
2736,-4.0,0.0,249.0,0
2737,-1.0,-2.0,253.0,0
2738,0.0,-5.0,250.0,0
2739,-1.0,-2.0,244.0,0
2740,0.0,-4.0,251.0,0
2741,0.0,-2.0,251.0,0
2742,-2.0,-3.0,247.0,0
2743,-4.0,-1.0,246.0,0
2744,3.0,-3.0,249.0,0
2745,-2.0,-1.0,251.0,0
2746,1.0,0.0,254.0,0
2747,-1.0,-3.0,247.0,0
2748,-2.0,-3.0,246.0,0
2749,-1.0,0.0,253.0,0
2750,-2.0,-4.0,248.0,0
2751,-2.0,0.0,248.0,0
2752,-3.0,0.0,248.0,0
2753,-3.0,-1.0,248.0,0
2754,-2.0,-3.0,251.0,0
2755,0.0,-5.0,251.0,0
2756,-4.0,-2.0,250.0,0
2757,-3.0,0.0,247.0,0
2758,-2.0,-3.0,253.0,0
2759,-2.0,-5.0,250.0,0
2760,-3.0,0.0,248.0,0
2761,-4.0,-2.0,248.0,0
2762,-4.0,-4.0,250.0,0
2763,0.0,-1.0,249.0,0
2764,-4.0,-3.0,250.0,0
2765,-3.0,-1.0,251.0,0
2766,-1.0,-2.0,254.0,0
2767,0.0,-1.0,249.0,0
2768,-3.0,-4.0,253.0,0
2769,-2.0,-3.0,250.0,0
2770,-2.0,0.0,253.0,0
2771,-2.0,0.0,252.0,0
2772,-1.0,-3.0,248.0,0
2773,-4.0,-2.0,248.0,0
2774,-5.0,-2.0,250.0,0
2775,-5.0,0.0,249.0,0
2776,-4.0,-2.0,250.0,0
2777,-3.0,-4.0,248.0,0
2778,-3.0,-1.0,253.0,0
2779,-1.0,-2.0,249.0,0
2780,-3.0,-2.0,250.0,0
2781,-5.0,1.0,251.0,0
2782,-2.0,0.0,251.0,0
2783,-3.0,-2.0,250.0,0
2784,0.0,-5.0,252.0,0
2785,-5.0,-1.0,249.0,0
2786,-1.0,-3.0,251.0,0
2787,0.0,-1.0,254.0,0
2788,0.0,-1.0,252.0,0
2789,-2.0,-1.0,249.0,0
2790,-2.0,0.0,250.0,0
2791,0.0,-4.0,251.0,0
2792,-1.0,-2.0,250.0,0
2793,-2.0,-1.0,250.0,0
2794,-5.0,-2.0,252.0,0
2795,-2.0,-2.0,249.0,0
2796,-7.0,-1.0,251.0,0
2797,-5.0,0.0,248.0,0
2798,-6.0,1.0,248.0,0
2799,0.0,-3.0,250.0,0
2800,-6.0,-4.0,249.0,0
2801,-4.0,0.0,250.0,0
2802,-3.0,0.0,247.0,0
2803,-1.0,-4.0,251.0,0
2804,0.0,0.0,249.0,0
2805,-3.0,0.0,253.0,0
2806,0.0,0.0,251.0,0
2807,0.0,-2.0,248.0,0
2808,-3.0,0.0,249.0,0
2809,0.0,1.0,247.0,0
2810,-1.0,-4.0,250.0,0
2811,-8.0,-11.0,252.0,0
2812,-1.0,-2.0,252.0,0
2813,-3.0,0.0,250.0,0
2814,-5.0,0.0,244.0,0
2815,-1.0,0.0,250.0,0
2816,-1.0,-1.0,251.0,0
2817,-1.0,-2.0,252.0,0
2818,-4.0,-2.0,252.0,0
2819,-5.0,-5.0,250.0,0
2820,0.0,0.0,249.0,0
2821,-1.0,-4.0,255.0,0
2822,-1.0,0.0,254.0,0
2823,0.0,-3.0,250.0,0
2824,-3.0,0.0,248.0,0
2825,-3.0,-4.0,250.0,0
2826,-2.0,-1.0,247.0,0
2827,-2.0,0.0,249.0,0
2828,-5.0,-1.0,249.0,0
2829,0.0,0.0,249.0,0
2830,-1.0,-4.0,254.0,0
2831,-1.0,0.0,252.0,0
2832,-1.0,1.0,250.0,0
2833,-4.0,-3.0,253.0,0
2834,-2.0,-2.0,250.0,0
2835,-3.0,0.0,253.0,0
2836,-2.0,-1.0,252.0,0
2837,-2.0,-1.0,249.0,0
2838,-2.0,-2.0,255.0,0
2839,-1.0,-3.0,252.0,0
2840,-2.0,-2.0,249.0,0
2841,-1.0,0.0,249.0,0
2842,-2.0,0.0,246.0,0
2843,-3.0,-3.0,249.0,0
2844,-5.0,-4.0,249.0,0
2845,-3.0,-2.0,250.0,0
2846,-4.0,0.0,251.0,0
2847,-4.0,-2.0,252.0,0
2848,-2.0,0.0,249.0,0
2849,-2.0,-2.0,251.0,0
2850,-2.0,1.0,252.0,0
2851,0.0,-2.0,249.0,0
2852,-1.0,-5.0,251.0,0
2853,-2.0,-1.0,250.0,0
2854,-3.0,-4.0,252.0,0
2855,2.0,-2.0,256.0,0
2856,-1.0,-3.0,251.0,0
2857,-5.0,-1.0,251.0,0
2858,-1.0,-1.0,248.0,0
2859,-3.0,-1.0,247.0,0
2860,-1.0,-2.0,249.0,0
2861,-3.0,0.0,249.0,0
2862,-3.0,-1.0,248.0,0
2863,-7.0,-1.0,250.0,0
2864,-3.0,0.0,253.0,0
2865,-2.0,-2.0,250.0,0
2866,-2.0,-2.0,243.0,0
2867,-1.0,-1.0,249.0,0
2868,-2.0,0.0,249.0,0
2869,0.0,0.0,248.0,0
2870,-3.0,0.0,248.0,0
2871,-3.0,-1.0,249.0,0
2872,-1.0,1.0,254.0,0
2873,-4.0,3.0,248.0,0
2874,-6.0,1.0,252.0,0
2875,0.0,0.0,248.0,0
2876,0.0,0.0,251.0,0
2877,-4.0,0.0,250.0,0
2878,-2.0,0.0,253.0,0
2879,-3.0,0.0,251.0,0
2880,-2.0,0.0,249.0,0
2881,0.0,1.0,249.0,0
2882,-3.0,1.0,251.0,0
2883,-3.0,0.0,250.0,0
2884,0.0,-1.0,251.0,0
2885,-4.0,-2.0,252.0,0
2886,0.0,-4.0,252.0,0
2887,-3.0,-2.0,253.0,0
2888,0.0,-1.0,256.0,0
2889,-3.0,0.0,249.0,0
2890,-2.0,0.0,248.0,0
2891,0.0,-3.0,251.0,0
2892,0.0,0.0,250.0,0
2893,-1.0,-2.0,253.0,0
2894,-1.0,-2.0,249.0,0
2895,1.0,-6.0,250.0,0
2896,-7.0,-1.0,249.0,0
2897,-5.0,-2.0,253.0,0
2898,-1.0,-5.0,251.0,0
2899,-4.0,-4.0,250.0,0
2900,-4.0,-1.0,250.0,0
2901,-4.0,0.0,248.0,0
2902,-1.0,-5.0,250.0,0
2903,0.0,-5.0,249.0,0
2904,-2.0,-1.0,250.0,0
2905,-1.0,-5.0,250.0,0
2906,-3.0,-5.0,249.0,0
2907,-1.0,-6.0,248.0,0
2908,-3.0,-3.0,247.0,0
2909,3.0,-4.0,250.0,0
2910,-2.0,-1.0,253.0,0
2911,0.0,-2.0,250.0,0
2912,-1.0,-1.0,250.0,0
2913,-2.0,-5.0,253.0,0
2914,-6.0,-1.0,249.0,0
2915,-6.0,0.0,251.0,0
2916,-2.0,-4.0,249.0,0
2917,0.0,-9.0,247.0,0
2918,-3.0,-5.0,248.0,0
2919,-4.0,-7.0,253.0,0
2920,-3.0,-8.0,253.0,0
2921,0.0,-4.0,249.0,0
2922,-1.0,-5.0,248.0,0
2923,0.0,-4.0,250.0,0
2924,-4.0,-4.0,252.0,0
2925,0.0,-7.0,245.0,0
2926,-7.0,0.0,253.0,0
2927,-2.0,-2.0,248.0,0
2928,-5.0,-8.0,247.0,0
2929,-2.0,-5.0,253.0,0
2930,0.0,-7.0,253.0,0
2931,-7.0,0.0,252.0,0
2932,0.0,-6.0,244.0,0
2933,-2.0,-2.0,247.0,0
2934,-2.0,-4.0,252.0,0
2935,-4.0,-1.0,251.0,0
2936,0.0,0.0,250.0,0
2937,-2.0,-3.0,253.0,0
2938,-4.0,-2.0,250.0,0
2939,-3.0,-5.0,253.0,0
2940,-4.0,-4.0,249.0,0
2941,-5.0,-1.0,248.0,0
2942,-2.0,-5.0,257.0,0
2943,0.0,-3.0,252.0,0
2944,-5.0,-1.0,253.0,0
2945,-1.0,-5.0,249.0,0
2946,0.0,-5.0,251.0,0
2947,0.0,-6.0,251.0,0
2948,-2.0,-2.0,251.0,0
2949,0.0,-5.0,251.0,0
2950,1.0,-4.0,250.0,0
2951,-2.0,-8.0,251.0,0
2952,-4.0,-5.0,246.0,0
2953,-5.0,-2.0,251.0,0
2954,-1.0,-2.0,252.0,0
2955,0.0,-6.0,250.0,0
2956,-4.0,-3.0,253.0,0
2957,0.0,-7.0,250.0,0
2958,1.0,-5.0,254.0,0
2959,-1.0,-5.0,249.0,0
2960,-1.0,-3.0,246.0,0
2961,0.0,-7.0,248.0,0
2962,0.0,-3.0,249.0,0
2963,0.0,-6.0,251.0,0
2964,-3.0,-10.0,257.0,0
2965,-1.0,-7.0,250.0,0
2966,-3.0,-7.0,250.0,0
2967,-2.0,-4.0,250.0,0
2968,-1.0,-5.0,249.0,0
2969,-2.0,-9.0,250.0,0
2970,-3.0,-6.0,250.0,0
2971,-8.0,-8.0,250.0,0
2972,-7.0,-1.0,247.0,0
2973,0.0,-6.0,249.0,0
2974,0.0,-7.0,253.0,0
2975,-2.0,-14.0,260.0,0
2976,-1.0,-7.0,247.0,0
2977,-2.0,-7.0,254.0,0
2978,-4.0,-8.0,247.0,0
2979,-1.0,-8.0,249.0,0
2980,0.0,-9.0,250.0,0
2981,-2.0,-9.0,249.0,0
2982,-1.0,-5.0,244.0,0
2983,-5.0,-6.0,250.0,0
2984,-2.0,-11.0,251.0,0
2985,-1.0,-11.0,244.0,0
2986,-2.0,-6.0,251.0,0
2987,-1.0,-7.0,248.0,0
2988,-1.0,-8.0,248.0,0
2989,-2.0,-7.0,250.0,0
2990,-3.0,-5.0,251.0,0
2991,-5.0,-3.0,251.0,0
2992,0.0,-6.0,250.0,0
2993,-4.0,-7.0,248.0,0
2994,-5.0,-8.0,243.0,0
2995,0.0,-7.0,251.0,0
2996,-1.0,-6.0,246.0,0
2997,0.0,-11.0,249.0,0
2998,0.0,-8.0,249.0,0
