,accelerometer_x,accelerometer_y,accelerometer_z,fall
0,5.0,-220.0,107.0,0
1,6.0,-217.0,107.0,0
2,6.0,-220.0,108.0,0
3,6.0,-220.0,104.0,0
4,4.0,-218.0,106.0,0
5,1.0,-214.0,102.0,0
6,5.0,-217.0,112.0,0
7,6.0,-218.0,110.0,0
8,2.0,-214.0,110.0,0
9,6.0,-220.0,102.0,0
10,5.0,-218.0,102.0,0
11,6.0,-218.0,108.0,0
12,5.0,-218.0,101.0,0
13,8.0,-220.0,106.0,0
14,9.0,-217.0,108.0,0
15,12.0,-222.0,105.0,0
16,8.0,-215.0,103.0,0
17,10.0,-220.0,109.0,0
18,7.0,-218.0,107.0,0
19,8.0,-218.0,109.0,0
20,8.0,-218.0,105.0,0
21,7.0,-218.0,104.0,0
22,7.0,-221.0,107.0,0
23,5.0,-221.0,105.0,0
24,7.0,-220.0,112.0,0
25,10.0,-224.0,105.0,0
26,10.0,-217.0,109.0,0
27,4.0,-222.0,106.0,0
28,6.0,-218.0,107.0,0
29,8.0,-219.0,106.0,0
30,5.0,-217.0,105.0,0
31,8.0,-217.0,108.0,0
32,8.0,-218.0,107.0,0
33,5.0,-219.0,105.0,0
34,2.0,-217.0,109.0,0
35,7.0,-218.0,102.0,0
36,5.0,-221.0,105.0,0
37,4.0,-220.0,105.0,0
38,2.0,-221.0,102.0,0
39,4.0,-220.0,103.0,0
40,6.0,-219.0,107.0,0
41,8.0,-222.0,105.0,0
42,4.0,-217.0,107.0,0
43,2.0,-216.0,108.0,0
44,5.0,-216.0,107.0,0
45,6.0,-217.0,110.0,0
46,10.0,-218.0,104.0,0
47,6.0,-218.0,108.0,0
48,4.0,-219.0,102.0,0
49,8.0,-220.0,103.0,0
50,9.0,-221.0,103.0,0
51,9.0,-224.0,106.0,0
52,8.0,-222.0,104.0,0
53,9.0,-221.0,105.0,0
54,7.0,-218.0,104.0,0
55,6.0,-215.0,99.0,0
56,5.0,-223.0,105.0,0
57,7.0,-219.0,103.0,0
58,8.0,-219.0,107.0,0
59,0.0,-220.0,106.0,0
60,5.0,-218.0,109.0,0
61,6.0,-220.0,106.0,0
62,3.0,-219.0,105.0,0
63,5.0,-219.0,103.0,0
64,9.0,-217.0,101.0,0
65,4.0,-221.0,103.0,0
66,7.0,-220.0,104.0,0
67,7.0,-220.0,100.0,0
68,7.0,-223.0,104.0,0
69,7.0,-224.0,103.0,0
70,12.0,-219.0,108.0,0
71,11.0,-220.0,101.0,0
72,8.0,-220.0,106.0,0
73,8.0,-220.0,104.0,0
74,8.0,-217.0,99.0,0
75,8.0,-220.0,100.0,0
76,6.0,-221.0,101.0,0
77,9.0,-219.0,99.0,0
78,11.0,-219.0,102.0,0
79,9.0,-220.0,97.0,0
80,6.0,-222.0,99.0,0
81,2.0,-220.0,99.0,0
82,7.0,-219.0,99.0,0
83,8.0,-223.0,104.0,0
84,6.0,-224.0,99.0,0
85,6.0,-225.0,100.0,0
86,4.0,-221.0,105.0,0
87,6.0,-221.0,99.0,0
88,8.0,-230.0,102.0,0
89,5.0,-223.0,95.0,0
90,1.0,-223.0,98.0,0
91,8.0,-222.0,94.0,0
92,9.0,-219.0,103.0,0
93,4.0,-218.0,100.0,0
94,4.0,-220.0,105.0,0
95,6.0,-219.0,100.0,0
96,6.0,-222.0,100.0,0
97,6.0,-219.0,101.0,0
98,9.0,-223.0,102.0,0
99,9.0,-219.0,104.0,0
100,9.0,-220.0,103.0,0
101,8.0,-222.0,101.0,0
102,6.0,-222.0,96.0,0
103,6.0,-224.0,102.0,0
104,8.0,-222.0,99.0,0
105,6.0,-222.0,99.0,0
106,8.0,-223.0,102.0,0
107,7.0,-222.0,99.0,0
108,5.0,-222.0,99.0,0
109,3.0,-221.0,98.0,0
110,5.0,-224.0,96.0,0
111,2.0,-221.0,101.0,0
112,6.0,-224.0,98.0,0
113,6.0,-223.0,95.0,0
114,4.0,-222.0,99.0,0
115,7.0,-223.0,97.0,0
116,2.0,-224.0,98.0,0
117,6.0,-224.0,95.0,0
118,3.0,-224.0,97.0,0
119,5.0,-223.0,99.0,0
120,7.0,-224.0,91.0,0
121,7.0,-224.0,100.0,0
122,5.0,-224.0,95.0,0
123,10.0,-226.0,104.0,0
124,7.0,-229.0,94.0,0
125,6.0,-223.0,99.0,0
126,6.0,-219.0,100.0,0
127,7.0,-225.0,98.0,0
128,3.0,-221.0,99.0,0
129,7.0,-222.0,97.0,0
130,2.0,-222.0,101.0,0
131,3.0,-223.0,96.0,0
132,4.0,-225.0,96.0,0
133,4.0,-223.0,98.0,0
134,3.0,-222.0,96.0,0
135,3.0,-219.0,92.0,0
136,3.0,-223.0,96.0,0
137,5.0,-219.0,92.0,0
138,3.0,-222.0,97.0,0
139,5.0,-225.0,96.0,0
140,4.0,-222.0,98.0,0
141,7.0,-224.0,99.0,0
142,6.0,-224.0,93.0,0
143,2.0,-221.0,90.0,0
144,3.0,-222.0,93.0,0
145,5.0,-223.0,91.0,0
146,3.0,-222.0,93.0,0
147,6.0,-223.0,97.0,0
148,5.0,-223.0,96.0,0
149,6.0,-222.0,94.0,0
150,5.0,-223.0,102.0,0
151,5.0,-225.0,100.0,0
152,8.0,-225.0,100.0,0
153,8.0,-220.0,97.0,0
154,5.0,-222.0,97.0,0
155,7.0,-222.0,99.0,0
156,5.0,-224.0,97.0,0
157,3.0,-223.0,95.0,0
158,7.0,-224.0,98.0,0
159,6.0,-225.0,96.0,0
160,3.0,-223.0,94.0,0
161,8.0,-225.0,94.0,0
162,9.0,-223.0,97.0,0
163,6.0,-223.0,95.0,0
164,2.0,-223.0,95.0,0
165,5.0,-225.0,97.0,0
166,7.0,-222.0,97.0,0
167,4.0,-226.0,94.0,0
168,0.0,-223.0,94.0,0
169,7.0,-224.0,97.0,0
170,1.0,-227.0,91.0,0
171,6.0,-231.0,98.0,0
172,5.0,-225.0,98.0,0
173,6.0,-228.0,97.0,0
174,6.0,-228.0,95.0,0
175,8.0,-225.0,95.0,0
176,5.0,-223.0,96.0,0
177,4.0,-220.0,96.0,0
178,4.0,-224.0,93.0,0
179,12.0,-214.0,91.0,0
180,8.0,-220.0,96.0,0
181,8.0,-221.0,98.0,0
182,8.0,-223.0,101.0,0
183,9.0,-223.0,96.0,0
184,6.0,-221.0,95.0,0
185,3.0,-221.0,94.0,0
186,8.0,-222.0,96.0,0
187,5.0,-226.0,95.0,0
188,7.0,-228.0,97.0,0
189,6.0,-222.0,96.0,0
190,5.0,-230.0,101.0,0
191,7.0,-224.0,94.0,0
192,4.0,-225.0,95.0,0
193,8.0,-224.0,95.0,0
194,7.0,-226.0,98.0,0
195,8.0,-225.0,92.0,0
196,5.0,-222.0,97.0,0
197,4.0,-223.0,94.0,0
198,5.0,-221.0,95.0,0
199,5.0,-224.0,93.0,0
200,5.0,-225.0,97.0,0
201,1.0,-225.0,91.0,0
202,5.0,-222.0,93.0,0
203,7.0,-224.0,97.0,0
204,8.0,-226.0,94.0,0
205,3.0,-224.0,96.0,0
206,8.0,-227.0,91.0,0
207,7.0,-227.0,93.0,0
208,3.0,-224.0,94.0,0
209,10.0,-225.0,91.0,0
210,6.0,-223.0,96.0,0
211,6.0,-227.0,91.0,0
212,8.0,-224.0,90.0,0
213,6.0,-227.0,91.0,0
214,9.0,-227.0,89.0,0
215,9.0,-223.0,93.0,0
216,6.0,-224.0,92.0,0
217,6.0,-220.0,91.0,0
218,8.0,-224.0,97.0,0
219,3.0,-221.0,94.0,0
220,4.0,-224.0,94.0,0
221,7.0,-224.0,96.0,0
222,8.0,-228.0,92.0,0
223,7.0,-228.0,93.0,0
224,3.0,-229.0,95.0,0
225,5.0,-227.0,92.0,0
226,5.0,-228.0,91.0,0
227,7.0,-227.0,91.0,0
228,4.0,-224.0,89.0,0
229,4.0,-225.0,89.0,0
230,3.0,-223.0,91.0,0
231,9.0,-227.0,93.0,0
232,0.0,-220.0,88.0,0
233,1.0,-215.0,95.0,0
234,7.0,-225.0,89.0,0
235,4.0,-223.0,92.0,0
236,3.0,-222.0,90.0,0
237,4.0,-222.0,93.0,0
238,5.0,-228.0,95.0,0
239,5.0,-226.0,94.0,0
240,2.0,-226.0,89.0,0
241,3.0,-226.0,93.0,0
242,2.0,-226.0,91.0,0
243,5.0,-226.0,93.0,0
244,4.0,-225.0,92.0,0
245,7.0,-226.0,91.0,0
246,3.0,-226.0,94.0,0
247,4.0,-224.0,94.0,0
248,6.0,-225.0,95.0,0
249,4.0,-226.0,94.0,0
250,6.0,-224.0,93.0,0
251,2.0,-224.0,94.0,0
252,6.0,-223.0,98.0,0
253,3.0,-224.0,90.0,0
254,4.0,-227.0,90.0,0
255,7.0,-228.0,96.0,0
256,3.0,-225.0,95.0,0
257,3.0,-225.0,92.0,0
258,4.0,-226.0,90.0,0
259,3.0,-227.0,90.0,0
260,5.0,-227.0,92.0,0
261,1.0,-226.0,90.0,0
262,6.0,-224.0,94.0,0
263,4.0,-224.0,92.0,0
264,2.0,-226.0,88.0,0
265,5.0,-224.0,93.0,0
266,-1.0,-225.0,93.0,0
267,2.0,-222.0,95.0,0
268,4.0,-226.0,90.0,0
269,3.0,-224.0,93.0,0
270,3.0,-229.0,93.0,0
271,4.0,-226.0,94.0,0
272,2.0,-224.0,91.0,0
273,4.0,-225.0,89.0,0
274,4.0,-225.0,93.0,0
275,7.0,-225.0,94.0,0
276,9.0,-227.0,95.0,0
277,2.0,-223.0,92.0,0
278,7.0,-226.0,94.0,0
279,5.0,-226.0,93.0,0
280,5.0,-227.0,90.0,0
281,5.0,-224.0,93.0,0
282,6.0,-225.0,91.0,0
283,5.0,-224.0,94.0,0
284,7.0,-226.0,94.0,0
285,4.0,-225.0,88.0,0
286,4.0,-227.0,91.0,0
287,4.0,-228.0,87.0,0
288,1.0,-225.0,78.0,0
289,3.0,-227.0,90.0,0
290,3.0,-227.0,94.0,0
291,7.0,-229.0,89.0,0
292,1.0,-226.0,92.0,0
293,7.0,-228.0,92.0,0
294,2.0,-226.0,92.0,0
295,5.0,-226.0,92.0,0
296,4.0,-225.0,92.0,0
297,3.0,-225.0,92.0,0
298,6.0,-223.0,88.0,0
299,4.0,-226.0,92.0,0
300,3.0,-224.0,94.0,0
301,5.0,-227.0,91.0,0
302,5.0,-224.0,90.0,0
303,5.0,-225.0,92.0,0
304,5.0,-225.0,91.0,0
305,7.0,-227.0,89.0,0
306,6.0,-226.0,88.0,0
307,4.0,-224.0,91.0,0
308,5.0,-227.0,87.0,0
309,5.0,-225.0,90.0,0
310,6.0,-227.0,87.0,0
311,5.0,-227.0,89.0,0
312,4.0,-229.0,95.0,0
313,4.0,-229.0,93.0,0
314,5.0,-227.0,91.0,0
315,5.0,-225.0,95.0,0
316,8.0,-225.0,93.0,0
317,6.0,-225.0,87.0,0
318,4.0,-224.0,92.0,0
319,8.0,-224.0,87.0,0
320,6.0,-223.0,91.0,0
321,7.0,-225.0,88.0,0
322,5.0,-227.0,87.0,0
323,5.0,-228.0,93.0,0
324,7.0,-227.0,90.0,0
325,9.0,-227.0,89.0,0
326,7.0,-226.0,90.0,0
327,4.0,-226.0,91.0,0
328,9.0,-226.0,89.0,0
329,6.0,-225.0,88.0,0
330,8.0,-226.0,91.0,0
331,7.0,-226.0,87.0,0
332,5.0,-228.0,94.0,0
333,7.0,-227.0,92.0,0
334,3.0,-226.0,89.0,0
335,5.0,-227.0,93.0,0
336,4.0,-227.0,88.0,0
337,4.0,-222.0,94.0,0
338,5.0,-226.0,89.0,0
339,8.0,-224.0,93.0,0
340,7.0,-225.0,95.0,0
341,8.0,-228.0,88.0,0
342,8.0,-228.0,90.0,0
343,6.0,-228.0,90.0,0
344,4.0,-226.0,90.0,0
345,4.0,-229.0,91.0,0
346,3.0,-228.0,91.0,0
347,3.0,-224.0,89.0,0
348,1.0,-225.0,91.0,0
349,4.0,-227.0,91.0,0
350,5.0,-223.0,95.0,0
351,1.0,-226.0,90.0,0
352,5.0,-223.0,90.0,0
353,1.0,-227.0,95.0,0
354,5.0,-225.0,92.0,0
355,4.0,-226.0,90.0,0
356,3.0,-224.0,90.0,0
357,8.0,-228.0,91.0,0
358,5.0,-226.0,91.0,0
359,6.0,-228.0,91.0,0
360,7.0,-227.0,92.0,0
361,3.0,-225.0,90.0,0
362,4.0,-227.0,88.0,0
363,5.0,-226.0,90.0,0
364,3.0,-223.0,85.0,0
365,2.0,-222.0,90.0,0
366,6.0,-224.0,93.0,0
367,4.0,-223.0,93.0,0
368,6.0,-225.0,94.0,0
369,6.0,-227.0,90.0,0
370,6.0,-224.0,91.0,0
371,8.0,-222.0,94.0,0
372,5.0,-224.0,93.0,0
373,0.0,-225.0,87.0,0
374,0.0,-223.0,89.0,0
375,8.0,-227.0,89.0,0
376,1.0,-224.0,96.0,0
377,4.0,-225.0,93.0,0
378,4.0,-228.0,91.0,0
379,3.0,-228.0,91.0,0
380,7.0,-231.0,87.0,0
381,4.0,-226.0,91.0,0
382,2.0,-226.0,96.0,0
383,8.0,-227.0,90.0,0
384,6.0,-226.0,91.0,0
385,6.0,-228.0,90.0,0
386,4.0,-231.0,86.0,0
387,6.0,-227.0,90.0,0
388,5.0,-228.0,88.0,0
389,3.0,-224.0,91.0,0
390,6.0,-225.0,93.0,0
391,5.0,-230.0,92.0,0
392,3.0,-222.0,93.0,0
393,8.0,-225.0,89.0,0
394,3.0,-223.0,91.0,0
395,6.0,-228.0,90.0,0
396,8.0,-227.0,92.0,0
397,6.0,-227.0,87.0,0
398,5.0,-227.0,88.0,0
399,6.0,-226.0,94.0,0
400,6.0,-224.0,93.0,0
401,3.0,-222.0,91.0,0
402,4.0,-225.0,88.0,0
403,4.0,-226.0,89.0,0
404,3.0,-225.0,89.0,0
405,4.0,-223.0,92.0,0
406,5.0,-226.0,88.0,0
407,4.0,-228.0,89.0,0
408,7.0,-232.0,93.0,0
409,3.0,-230.0,89.0,0
410,4.0,-232.0,92.0,0
411,6.0,-230.0,84.0,0
412,4.0,-229.0,90.0,0
413,2.0,-223.0,88.0,0
414,2.0,-224.0,92.0,0
415,3.0,-227.0,94.0,0
416,4.0,-228.0,92.0,0
417,4.0,-227.0,92.0,0
418,4.0,-221.0,91.0,0
419,3.0,-227.0,94.0,0
420,5.0,-224.0,93.0,0
421,6.0,-221.0,90.0,0
422,4.0,-225.0,88.0,0
423,5.0,-225.0,93.0,0
424,2.0,-223.0,87.0,0
425,1.0,-225.0,92.0,0
426,5.0,-225.0,90.0,0
427,3.0,-223.0,94.0,0
428,3.0,-226.0,92.0,0
429,6.0,-233.0,98.0,0
430,5.0,-226.0,92.0,0
431,5.0,-228.0,91.0,0
432,6.0,-228.0,93.0,0
433,4.0,-227.0,94.0,0
434,5.0,-225.0,91.0,0
435,4.0,-227.0,91.0,0
436,8.0,-228.0,94.0,0
437,6.0,-226.0,92.0,0
438,6.0,-227.0,90.0,0
439,9.0,-225.0,90.0,0
440,9.0,-228.0,89.0,0
441,7.0,-230.0,93.0,0
442,3.0,-226.0,92.0,0
443,3.0,-224.0,93.0,0
444,5.0,-226.0,87.0,0
445,2.0,-226.0,90.0,0
446,6.0,-225.0,90.0,0
447,4.0,-228.0,89.0,0
448,-1.0,-225.0,92.0,0
449,4.0,-226.0,86.0,0
450,5.0,-226.0,92.0,0
451,4.0,-228.0,92.0,0
452,6.0,-226.0,91.0,0
453,7.0,-225.0,91.0,0
454,4.0,-222.0,90.0,0
455,5.0,-222.0,97.0,0
456,6.0,-222.0,91.0,0
457,7.0,-225.0,92.0,0
458,4.0,-226.0,94.0,0
459,5.0,-226.0,89.0,0
460,4.0,-224.0,92.0,0
461,6.0,-229.0,88.0,0
462,3.0,-228.0,92.0,0
463,4.0,-228.0,92.0,0
464,6.0,-228.0,93.0,0
465,3.0,-225.0,91.0,0
466,4.0,-226.0,90.0,0
467,6.0,-224.0,91.0,0
468,7.0,-228.0,91.0,0
469,8.0,-227.0,93.0,0
470,4.0,-227.0,87.0,0
471,6.0,-226.0,94.0,0
472,8.0,-228.0,92.0,0
473,-2.0,-225.0,86.0,0
474,6.0,-227.0,90.0,0
475,6.0,-226.0,92.0,0
476,4.0,-227.0,91.0,0
477,6.0,-226.0,88.0,0
478,6.0,-227.0,91.0,0
479,5.0,-225.0,88.0,0
480,3.0,-223.0,92.0,0
481,2.0,-225.0,87.0,0
482,6.0,-227.0,92.0,0
483,7.0,-226.0,93.0,0
484,-1.0,-224.0,85.0,0
485,6.0,-223.0,90.0,0
486,6.0,-227.0,94.0,0
487,9.0,-227.0,94.0,0
488,3.0,-226.0,91.0,0
489,5.0,-227.0,89.0,0
490,4.0,-226.0,91.0,0
491,11.0,-228.0,93.0,0
492,4.0,-223.0,94.0,0
493,5.0,-224.0,92.0,0
494,6.0,-225.0,91.0,0
495,8.0,-224.0,91.0,0
496,12.0,-226.0,90.0,0
497,7.0,-226.0,91.0,0
498,6.0,-224.0,92.0,0
499,8.0,-226.0,90.0,0
500,8.0,-225.0,93.0,0
501,8.0,-224.0,94.0,0
502,5.0,-225.0,94.0,0
503,3.0,-223.0,98.0,0
504,3.0,-228.0,92.0,0
505,4.0,-226.0,90.0,0
506,-2.0,-225.0,90.0,0
507,1.0,-225.0,92.0,0
508,3.0,-226.0,89.0,0
509,6.0,-231.0,88.0,0
510,6.0,-229.0,90.0,0
511,4.0,-230.0,90.0,0
512,4.0,-228.0,88.0,0
513,7.0,-232.0,90.0,0
514,0.0,-226.0,87.0,0
515,7.0,-231.0,85.0,0
516,8.0,-226.0,86.0,0
517,5.0,-226.0,92.0,0
518,7.0,-226.0,88.0,0
519,6.0,-224.0,92.0,0
520,5.0,-223.0,90.0,0
521,5.0,-224.0,90.0,0
522,2.0,-227.0,92.0,0
523,6.0,-226.0,84.0,0
524,2.0,-226.0,85.0,0
525,5.0,-228.0,96.0,0
526,5.0,-225.0,95.0,0
527,10.0,-229.0,88.0,0
528,7.0,-228.0,86.0,0
529,9.0,-227.0,91.0,0
530,6.0,-229.0,87.0,0
531,5.0,-226.0,87.0,0
532,8.0,-228.0,89.0,0
533,3.0,-226.0,89.0,0
534,3.0,-226.0,93.0,0
535,6.0,-229.0,89.0,0
536,3.0,-225.0,93.0,0
537,6.0,-225.0,87.0,0
538,6.0,-229.0,85.0,0
539,4.0,-226.0,93.0,0
540,3.0,-225.0,88.0,0
541,5.0,-224.0,91.0,0
542,6.0,-226.0,89.0,0
543,7.0,-227.0,93.0,0
544,6.0,-225.0,90.0,0
545,6.0,-223.0,87.0,0
546,5.0,-225.0,91.0,0
547,3.0,-224.0,87.0,0
548,5.0,-225.0,89.0,0
549,7.0,-229.0,90.0,0
550,4.0,-225.0,91.0,0
551,6.0,-224.0,93.0,0
552,4.0,-224.0,92.0,0
553,6.0,-228.0,90.0,0
554,7.0,-226.0,90.0,0
555,5.0,-225.0,87.0,0
556,6.0,-227.0,88.0,0
557,4.0,-224.0,89.0,0
558,6.0,-227.0,88.0,0
559,4.0,-223.0,91.0,0
560,6.0,-225.0,92.0,0
561,7.0,-224.0,97.0,0
562,4.0,-225.0,94.0,0
563,7.0,-223.0,91.0,0
564,7.0,-226.0,91.0,0
565,6.0,-222.0,95.0,0
566,11.0,-227.0,92.0,0
567,11.0,-225.0,94.0,0
568,6.0,-227.0,94.0,0
569,7.0,-226.0,92.0,0
570,6.0,-225.0,91.0,0
571,4.0,-225.0,94.0,0
572,5.0,-222.0,91.0,0
573,5.0,-222.0,91.0,0
574,7.0,-225.0,98.0,0
575,7.0,-224.0,90.0,0
576,8.0,-224.0,91.0,0
577,1.0,-227.0,92.0,0
578,11.0,-229.0,92.0,0
579,7.0,-226.0,93.0,0
580,11.0,-227.0,91.0,0
581,10.0,-230.0,93.0,0
582,7.0,-227.0,88.0,0
583,7.0,-224.0,95.0,0
584,6.0,-226.0,97.0,0
585,8.0,-223.0,96.0,0
586,9.0,-223.0,97.0,0
587,4.0,-225.0,92.0,0
588,7.0,-222.0,93.0,0
589,3.0,-222.0,88.0,0
590,1.0,-221.0,87.0,0
591,2.0,-226.0,96.0,0
592,10.0,-228.0,92.0,0
593,9.0,-224.0,89.0,0
594,7.0,-227.0,94.0,0
595,6.0,-226.0,93.0,0
596,6.0,-226.0,87.0,0
597,7.0,-230.0,89.0,0
598,7.0,-229.0,89.0,0
599,5.0,-226.0,90.0,0
600,4.0,-226.0,93.0,0
601,9.0,-228.0,92.0,0
602,10.0,-227.0,89.0,0
603,4.0,-224.0,92.0,0
604,4.0,-221.0,86.0,0
605,4.0,-225.0,88.0,0
606,7.0,-228.0,94.0,0
607,5.0,-230.0,91.0,0
608,7.0,-229.0,89.0,0
609,8.0,-228.0,95.0,0
610,6.0,-227.0,94.0,0
611,5.0,-225.0,90.0,0
612,4.0,-225.0,87.0,0
613,6.0,-225.0,87.0,0
614,4.0,-225.0,88.0,0
615,3.0,-230.0,88.0,0
616,5.0,-225.0,89.0,0
617,5.0,-227.0,88.0,0
618,5.0,-227.0,93.0,0
619,6.0,-227.0,91.0,0
620,5.0,-227.0,92.0,0
621,4.0,-223.0,95.0,0
622,5.0,-225.0,92.0,0
623,7.0,-227.0,95.0,0
624,6.0,-224.0,93.0,0
625,7.0,-219.0,93.0,0
626,7.0,-224.0,89.0,0
627,6.0,-225.0,93.0,0
628,9.0,-224.0,89.0,0
629,4.0,-225.0,91.0,0
630,8.0,-226.0,96.0,0
631,8.0,-225.0,93.0,0
632,7.0,-225.0,95.0,0
633,5.0,-225.0,97.0,0
634,7.0,-225.0,89.0,0
635,8.0,-223.0,94.0,0
636,5.0,-225.0,92.0,0
637,6.0,-227.0,93.0,0
638,4.0,-225.0,91.0,0
639,4.0,-225.0,94.0,0
640,4.0,-225.0,92.0,0
641,9.0,-228.0,97.0,0
642,7.0,-226.0,94.0,0
643,5.0,-223.0,99.0,0
644,9.0,-227.0,96.0,0
645,10.0,-226.0,93.0,0
646,8.0,-229.0,93.0,0
647,3.0,-227.0,95.0,0
648,5.0,-224.0,95.0,0
649,1.0,-227.0,94.0,0
650,3.0,-224.0,94.0,0
651,2.0,-225.0,92.0,0
652,5.0,-225.0,92.0,0
653,8.0,-227.0,94.0,0
654,2.0,-222.0,93.0,0
655,4.0,-222.0,91.0,0
656,4.0,-221.0,92.0,0
657,4.0,-216.0,93.0,0
658,3.0,-221.0,98.0,0
659,-3.0,-220.0,93.0,0
660,8.0,-226.0,93.0,0
661,8.0,-222.0,89.0,0
662,5.0,-225.0,91.0,0
663,4.0,-226.0,90.0,0
664,3.0,-232.0,89.0,0
665,6.0,-230.0,93.0,0
666,2.0,-225.0,92.0,0
667,3.0,-225.0,90.0,0
668,-1.0,-224.0,93.0,0
669,0.0,-228.0,89.0,0
670,1.0,-225.0,87.0,0
671,4.0,-230.0,89.0,0
672,1.0,-226.0,89.0,0
673,3.0,-227.0,90.0,0
674,2.0,-228.0,91.0,0
675,0.0,-223.0,87.0,0
676,4.0,-225.0,90.0,0
677,4.0,-220.0,90.0,0
678,4.0,-221.0,89.0,0
679,5.0,-225.0,91.0,0
680,4.0,-223.0,88.0,0
681,7.0,-224.0,90.0,0
682,5.0,-223.0,82.0,0
683,9.0,-228.0,91.0,0
684,3.0,-226.0,87.0,0
685,9.0,-226.0,84.0,0
686,4.0,-228.0,88.0,0
687,8.0,-230.0,89.0,0
688,9.0,-226.0,89.0,0
689,4.0,-227.0,81.0,0
690,5.0,-228.0,92.0,0
691,7.0,-223.0,84.0,0
692,1.0,-226.0,89.0,0
693,5.0,-232.0,90.0,0
694,3.0,-230.0,86.0,0
695,5.0,-227.0,90.0,0
696,4.0,-229.0,89.0,0
697,1.0,-227.0,87.0,0
698,7.0,-228.0,89.0,0
699,6.0,-231.0,84.0,0
700,3.0,-231.0,88.0,0
701,2.0,-227.0,86.0,0
702,1.0,-219.0,89.0,0
703,3.0,-227.0,88.0,0
704,3.0,-228.0,88.0,0
705,4.0,-224.0,83.0,0
706,5.0,-229.0,86.0,0
707,5.0,-231.0,88.0,0
708,5.0,-229.0,86.0,0
709,0.0,-229.0,87.0,0
710,1.0,-226.0,86.0,0
711,3.0,-224.0,88.0,0
712,4.0,-227.0,83.0,0
713,2.0,-228.0,84.0,0
714,1.0,-226.0,85.0,0
715,1.0,-226.0,85.0,0
716,1.0,-229.0,82.0,0
717,1.0,-225.0,86.0,0
718,0.0,-229.0,86.0,0
719,5.0,-228.0,86.0,0
720,3.0,-230.0,86.0,0
721,0.0,-229.0,85.0,0
722,-2.0,-228.0,85.0,0
723,2.0,-227.0,82.0,0
724,0.0,-230.0,84.0,0
725,0.0,-228.0,86.0,0
726,4.0,-232.0,79.0,0
727,3.0,-233.0,82.0,0
728,3.0,-229.0,86.0,0
729,2.0,-234.0,82.0,0
730,9.0,-229.0,84.0,0
731,3.0,-227.0,79.0,0
732,1.0,-230.0,80.0,0
733,4.0,-227.0,80.0,0
734,6.0,-234.0,75.0,0
735,5.0,-229.0,79.0,0
736,8.0,-231.0,76.0,0
737,6.0,-229.0,80.0,0
738,6.0,-231.0,77.0,0
739,6.0,-231.0,77.0,0
740,4.0,-226.0,79.0,0
741,7.0,-233.0,78.0,0
742,7.0,-230.0,77.0,0
743,4.0,-230.0,77.0,0
744,4.0,-228.0,79.0,0
745,8.0,-230.0,73.0,0
746,3.0,-233.0,74.0,0
747,5.0,-232.0,69.0,0
748,2.0,-228.0,73.0,0
749,4.0,-230.0,68.0,0
750,4.0,-235.0,71.0,0
751,3.0,-230.0,71.0,0
752,5.0,-233.0,72.0,0
753,2.0,-234.0,74.0,0
754,7.0,-232.0,73.0,0
755,7.0,-232.0,65.0,0
756,1.0,-229.0,70.0,0
757,2.0,-234.0,75.0,0
758,3.0,-236.0,70.0,0
759,3.0,-233.0,71.0,0
760,3.0,-236.0,69.0,0
761,5.0,-236.0,72.0,0
762,4.0,-236.0,68.0,0
763,8.0,-234.0,71.0,0
764,3.0,-235.0,68.0,0
765,4.0,-235.0,71.0,0
766,3.0,-231.0,67.0,0
767,5.0,-235.0,72.0,0
768,3.0,-233.0,64.0,0
769,2.0,-234.0,66.0,0
770,0.0,-235.0,68.0,0
771,3.0,-234.0,65.0,0
772,2.0,-234.0,67.0,0
773,2.0,-237.0,66.0,0
774,0.0,-237.0,66.0,0
775,4.0,-235.0,65.0,0
776,1.0,-235.0,63.0,0
777,-1.0,-236.0,64.0,0
778,4.0,-239.0,67.0,0
779,2.0,-238.0,63.0,0
780,-2.0,-233.0,60.0,0
781,0.0,-238.0,59.0,0
782,0.0,-233.0,60.0,0
783,2.0,-235.0,63.0,0
784,-1.0,-235.0,67.0,0
785,0.0,-236.0,63.0,0
786,-1.0,-232.0,62.0,0
787,3.0,-235.0,59.0,0
788,-1.0,-237.0,65.0,0
789,0.0,-234.0,65.0,0
790,4.0,-236.0,59.0,0
791,0.0,-234.0,59.0,0
792,2.0,-237.0,59.0,0
793,3.0,-236.0,58.0,0
794,2.0,-238.0,57.0,0
795,2.0,-238.0,57.0,0
796,3.0,-236.0,56.0,0
797,3.0,-237.0,56.0,0
798,3.0,-240.0,55.0,0
799,2.0,-238.0,50.0,0
800,2.0,-238.0,61.0,0
801,3.0,-239.0,57.0,0
802,0.0,-238.0,59.0,0
803,2.0,-237.0,57.0,0
804,1.0,-238.0,52.0,0
805,3.0,-234.0,55.0,0
806,5.0,-236.0,55.0,0
807,3.0,-239.0,54.0,0
808,2.0,-238.0,54.0,0
809,1.0,-237.0,56.0,0
810,3.0,-239.0,55.0,0
811,1.0,-239.0,49.0,0
812,4.0,-239.0,54.0,0
813,2.0,-239.0,54.0,0
814,3.0,-240.0,52.0,0
815,3.0,-237.0,49.0,0
816,2.0,-235.0,51.0,0
817,3.0,-236.0,49.0,0
818,3.0,-240.0,52.0,0
819,2.0,-236.0,50.0,0
820,4.0,-239.0,48.0,0
821,4.0,-237.0,47.0,0
822,5.0,-243.0,46.0,0
823,0.0,-240.0,44.0,0
824,-3.0,-240.0,45.0,0
825,2.0,-239.0,44.0,0
826,3.0,-239.0,42.0,0
827,3.0,-238.0,45.0,0
828,5.0,-239.0,47.0,0
829,3.0,-240.0,47.0,0
830,3.0,-239.0,42.0,0
831,9.0,-244.0,45.0,0
832,7.0,-240.0,43.0,0
833,4.0,-239.0,45.0,0
834,3.0,-239.0,45.0,0
835,3.0,-240.0,48.0,0
836,1.0,-241.0,44.0,0
837,5.0,-241.0,43.0,0
838,4.0,-241.0,39.0,0
839,3.0,-244.0,39.0,0
840,3.0,-248.0,39.0,0
841,-1.0,-240.0,41.0,0
842,5.0,-242.0,42.0,0
843,3.0,-239.0,41.0,0
844,1.0,-240.0,40.0,0
845,-3.0,-240.0,37.0,0
846,-4.0,-236.0,40.0,0
847,-4.0,-234.0,38.0,0
848,-1.0,-237.0,39.0,0
849,-4.0,-233.0,35.0,0
850,-4.0,-234.0,37.0,0
851,-6.0,-234.0,33.0,0
852,-8.0,-236.0,37.0,0
853,-5.0,-232.0,35.0,0
854,-7.0,-243.0,37.0,0
855,-4.0,-240.0,36.0,0
856,-4.0,-237.0,35.0,0
857,-5.0,-239.0,34.0,0
858,-6.0,-239.0,32.0,0
859,-8.0,-241.0,31.0,0
860,-7.0,-239.0,34.0,0
861,-6.0,-241.0,26.0,0
862,-4.0,-242.0,31.0,0
863,-6.0,-240.0,29.0,0
864,-5.0,-241.0,25.0,0
865,5.0,-239.0,23.0,0
866,-5.0,-241.0,27.0,0
867,-4.0,-241.0,27.0,0
868,-4.0,-243.0,28.0,0
869,-4.0,-242.0,26.0,0
870,-3.0,-238.0,25.0,0
871,-5.0,-237.0,24.0,0
872,-5.0,-237.0,26.0,0
873,-2.0,-239.0,22.0,0
874,-1.0,-242.0,19.0,0
875,-2.0,-234.0,22.0,0
876,1.0,-237.0,15.0,0
877,1.0,-236.0,22.0,0
878,3.0,-236.0,21.0,0
879,3.0,-238.0,23.0,0
880,2.0,-236.0,20.0,0
881,1.0,-233.0,18.0,0
882,2.0,-235.0,18.0,0
883,3.0,-234.0,16.0,0
884,1.0,-233.0,14.0,0
885,2.0,-236.0,17.0,0
886,4.0,-238.0,14.0,0
887,10.0,-234.0,16.0,0
888,4.0,-235.0,14.0,0
889,-1.0,-233.0,14.0,0
890,1.0,-231.0,12.0,0
891,1.0,-232.0,8.0,0
892,-2.0,-231.0,11.0,0
893,-1.0,-229.0,8.0,0
894,-2.0,-232.0,5.0,0
895,0.0,-237.0,7.0,0
896,-2.0,-235.0,7.0,0
897,-2.0,-234.0,6.0,0
898,-3.0,-231.0,2.0,0
899,-1.0,-235.0,1.0,0
900,-3.0,-234.0,2.0,0
901,-2.0,-234.0,3.0,0
902,-2.0,-233.0,3.0,0
903,-3.0,-237.0,-1.0,0
904,-4.0,-234.0,2.0,0
905,-3.0,-237.0,1.0,0
906,-3.0,-236.0,1.0,0
907,-3.0,-233.0,-3.0,0
908,-3.0,-231.0,7.0,0
909,-5.0,-229.0,-1.0,0
910,-4.0,-226.0,-3.0,0
911,-3.0,-225.0,-5.0,0
912,-3.0,-223.0,-2.0,0
913,-4.0,-220.0,-6.0,0
914,-3.0,-220.0,-3.0,0
915,0.0,-222.0,-6.0,0
916,-3.0,-220.0,-5.0,0
917,1.0,-224.0,-10.0,0
918,-1.0,-221.0,-9.0,0
919,0.0,-224.0,-6.0,0
920,1.0,-227.0,-11.0,0
921,2.0,-219.0,-12.0,0
922,0.0,-218.0,-15.0,0
923,1.0,-219.0,-17.0,0
924,-1.0,-217.0,-18.0,0
925,1.0,-217.0,-19.0,0
926,1.0,-219.0,-17.0,0
927,2.0,-212.0,-18.0,0
928,-2.0,-213.0,-21.0,0
929,1.0,-212.0,-15.0,0
930,1.0,-208.0,-15.0,0
931,-1.0,-205.0,-21.0,0
932,1.0,-205.0,-18.0,0
933,-2.0,-202.0,-14.0,0
934,0.0,-198.0,-19.0,0
935,0.0,-200.0,-19.0,0
936,-1.0,-197.0,-19.0,0
937,-1.0,-195.0,-17.0,0
938,1.0,-197.0,-12.0,0
939,0.0,-194.0,-14.0,0
940,2.0,-194.0,-13.0,0
941,0.0,-192.0,-15.0,0
942,-1.0,-192.0,-19.0,0
943,3.0,-188.0,-22.0,0
944,4.0,-188.0,-22.0,0
945,10.0,-188.0,-23.0,0
946,14.0,-190.0,-24.0,0
947,12.0,-190.0,-28.0,0
948,13.0,-192.0,-36.0,0
949,14.0,-197.0,-32.0,0
950,15.0,-202.0,-39.0,0
951,12.0,-208.0,-37.0,0
952,6.0,-209.0,-48.0,0
953,7.0,-216.0,-49.0,0
954,-2.0,-223.0,-54.0,0
955,-4.0,-229.0,-62.0,0
956,-6.0,-230.0,-65.0,0
957,-16.0,-233.0,-69.0,0
958,-17.0,-235.0,-69.0,0
959,-25.0,-238.0,-75.0,0
960,-28.0,-232.0,-70.0,0
961,-24.0,-232.0,-72.0,0
962,-27.0,-235.0,-70.0,0
963,-29.0,-225.0,-72.0,0
964,-32.0,-221.0,-72.0,0
965,-31.0,-222.0,-68.0,0
966,-24.0,-223.0,-68.0,0
967,-20.0,-228.0,-56.0,0
968,-20.0,-233.0,-51.0,0
969,-12.0,-247.0,-42.0,0
970,-11.0,-252.0,-35.0,0
971,-5.0,-260.0,-28.0,0
972,-5.0,-267.0,-27.0,0
973,-7.0,-269.0,-28.0,0
974,-12.0,-268.0,-32.0,0
975,-12.0,-259.0,-32.0,0
976,-15.0,-255.0,-42.0,0
977,-11.0,-247.0,-44.0,0
978,-3.0,-239.0,-47.0,0
979,-3.0,-243.0,-48.0,0
980,-3.0,-239.0,-46.0,0
981,2.0,-243.0,-52.0,0
982,6.0,-247.0,-50.0,0
983,10.0,-242.0,-55.0,0
984,10.0,-232.0,-56.0,0
985,12.0,-242.0,-60.0,0
986,11.0,-240.0,-64.0,0
987,13.0,-240.0,-66.0,0
988,10.0,-234.0,-70.0,0
989,6.0,-234.0,-71.0,0
990,3.0,-228.0,-75.0,0
991,2.0,-222.0,-79.0,0
992,-5.0,-224.0,-84.0,0
993,-11.0,-223.0,-80.0,0
994,-18.0,-220.0,-87.0,0
995,-19.0,-214.0,-84.0,0
996,-26.0,-214.0,-91.0,0
997,-31.0,-211.0,-97.0,0
998,-32.0,-212.0,-93.0,0
999,-30.0,-209.0,-107.0,0
1000,-27.0,-212.0,-113.0,0
1001,-25.0,-217.0,-122.0,0
1002,-28.0,-220.0,-124.0,0
1003,-19.0,-228.0,-135.0,0
1004,-19.0,-232.0,-139.0,0
1005,-18.0,-236.0,-154.0,0
1006,-29.0,-243.0,-173.0,0
1007,-28.0,-246.0,-178.0,0
1008,-29.0,-248.0,-198.0,0
1009,-38.0,-242.0,-211.0,0
1010,-39.0,-235.0,-237.0,0
1011,-46.0,-222.0,-258.0,0
1012,-46.0,-215.0,-280.0,0
1013,-52.0,-198.0,-307.0,1
1014,-53.0,-184.0,-339.0,1
1015,-49.0,-170.0,-373.0,1
1016,-39.0,-158.0,-408.0,1
1017,-39.0,-151.0,-435.0,1
1018,-41.0,-148.0,-460.0,1
1019,-25.0,-146.0,-489.0,1
1020,-14.0,-154.0,-507.0,1
1021,-14.0,-169.0,-516.0,1
1022,-5.0,-193.0,-501.0,1
1023,-12.0,-238.0,-483.0,1
1024,-14.0,-281.0,-456.0,1
1025,-28.0,-321.0,-419.0,1
1026,-32.0,-359.0,-382.0,1
1027,-29.0,-404.0,-322.0,1
1028,-27.0,-441.0,-258.0,1
1029,-23.0,-451.0,-195.0,1
1030,-18.0,-444.0,-144.0,1
1031,-18.0,-422.0,-120.0,1
1032,-16.0,-383.0,-86.0,1
1033,-11.0,-339.0,-64.0,1
1034,-8.0,-292.0,-42.0,1
1035,-5.0,-255.0,-19.0,1
1036,-4.0,-204.0,3.0,1
1037,-4.0,-151.0,27.0,1
1038,-6.0,-102.0,52.0,1
1039,-3.0,-53.0,68.0,1
1040,-1.0,-16.0,80.0,1
1041,7.0,29.0,88.0,1
1042,11.0,64.0,90.0,1
1043,13.0,83.0,90.0,1
1044,10.0,96.0,78.0,1
1045,11.0,95.0,60.0,1
1046,14.0,76.0,36.0,1
1047,6.0,63.0,25.0,1
1048,1.0,37.0,-2.0,1
1049,4.0,13.0,-17.0,1
1050,-1.0,-12.0,-30.0,1
1051,2.0,-47.0,-45.0,1
1052,3.0,-79.0,-44.0,1
1053,-1.0,-109.0,-47.0,1
1054,-1.0,-131.0,-33.0,1
1055,-3.0,-161.0,-20.0,1
1056,-10.0,-184.0,-3.0,1
1057,-8.0,-195.0,22.0,1
1058,-5.0,-204.0,33.0,1
1059,-3.0,-203.0,62.0,1
1060,1.0,-199.0,87.0,1
1061,8.0,-185.0,112.0,1
1062,14.0,-172.0,124.0,2
1063,21.0,-156.0,132.0,2
1064,31.0,-132.0,146.0,2
1065,48.0,-108.0,150.0,2
1066,52.0,-76.0,151.0,2
1067,72.0,-48.0,151.0,2
1068,79.0,-26.0,139.0,2
1069,82.0,4.0,114.0,2
1070,91.0,37.0,73.0,2
1071,83.0,65.0,36.0,2
1072,80.0,84.0,5.0,2
1073,73.0,104.0,-29.0,2
1074,41.0,124.0,-128.0,2
1075,-275.0,806.0,-1658.0,2
1076,-204.0,996.0,-990.0,2
1077,80.0,236.0,212.0,2
1078,-24.0,-207.0,50.0,2
1079,11.0,153.0,-390.0,2
1080,-307.0,689.0,-937.0,2
1081,-301.0,1204.0,-620.0,2
1082,122.0,1299.0,-395.0,2
1083,-191.0,1096.0,-757.0,2
1084,142.0,-67.0,-563.0,2
1085,130.0,33.0,-704.0,2
1086,-64.0,91.0,-872.0,2
1087,-19.0,282.0,-1186.0,2
1088,-156.0,666.0,-1573.0,2
1089,-117.0,783.0,-1601.0,2
1090,-25.0,567.0,-1301.0,2
1091,-58.0,326.0,-1080.0,2
1092,-131.0,457.0,-1064.0,2
1093,-75.0,325.0,-920.0,2
1094,-54.0,-17.0,-719.0,2
1095,-25.0,0.0,-535.0,2
1096,-70.0,77.0,-376.0,2
1097,-22.0,-62.0,-221.0,2
1098,-18.0,1.0,-209.0,2
1099,-100.0,23.0,-209.0,2
1100,13.0,-210.0,-109.0,2
1101,-102.0,1.0,-238.0,2
1102,-61.0,-146.0,-225.0,2
1103,-44.0,-206.0,-208.0,2
1104,-23.0,-92.0,-288.0,2
1105,14.0,-151.0,-263.0,2
1106,-3.0,-113.0,-255.0,2
1107,3.0,-4.0,-273.0,1
1108,-12.0,74.0,-275.0,1
1109,-37.0,162.0,-270.0,1
1110,-43.0,205.0,-240.0,1
1111,-69.0,293.0,-209.0,1
1112,-58.0,348.0,-167.0,1
1113,-43.0,402.0,-191.0,1
1114,-33.0,402.0,-179.0,1
1115,0.0,370.0,-140.0,1
1116,1.0,297.0,-106.0,1
1117,-23.0,282.0,-208.0,1
1118,0.0,169.0,-157.0,1
1119,-16.0,134.0,-149.0,1
1120,-72.0,84.0,-75.0,1
1121,-40.0,70.0,-62.0,1
1122,4.0,105.0,-174.0,1
1123,65.0,78.0,-144.0,1
1124,48.0,-6.0,-58.0,1
1125,49.0,-26.0,-59.0,1
1126,71.0,-30.0,-90.0,1
1127,66.0,-31.0,-139.0,1
1128,45.0,-16.0,-143.0,1
1129,12.0,11.0,-155.0,1
1130,5.0,40.0,-198.0,1
1131,-28.0,52.0,-207.0,1
1132,-20.0,62.0,-215.0,1
1133,-14.0,64.0,-215.0,1
1134,-14.0,65.0,-230.0,1
1135,-25.0,49.0,-237.0,1
1136,-17.0,56.0,-259.0,1
1137,-15.0,55.0,-282.0,1
1138,-19.0,49.0,-279.0,1
1139,-26.0,37.0,-299.0,1
1140,-20.0,24.0,-331.0,1
1141,-19.0,33.0,-329.0,1
1142,-17.0,22.0,-338.0,1
1143,-21.0,20.0,-340.0,1
1144,-20.0,20.0,-346.0,1
1145,-40.0,12.0,-338.0,1
1146,-46.0,22.0,-345.0,1
1147,-38.0,2.0,-344.0,1
1148,-38.0,10.0,-360.0,0
1149,-21.0,24.0,-355.0,0
1150,-22.0,10.0,-344.0,0
1151,-22.0,17.0,-349.0,0
1152,-21.0,15.0,-319.0,0
1153,-11.0,9.0,-314.0,0
1154,-31.0,26.0,-307.0,0
1155,-15.0,18.0,-280.0,0
1156,-11.0,13.0,-277.0,0
1157,-25.0,25.0,-273.0,0
1158,-9.0,25.0,-259.0,0
1159,-10.0,18.0,-252.0,0
1160,-17.0,13.0,-250.0,0
1161,-15.0,16.0,-253.0,0
1162,-17.0,13.0,-254.0,0
1163,-7.0,9.0,-243.0,0
1164,-7.0,2.0,-237.0,0
1165,-11.0,14.0,-240.0,0
1166,-14.0,9.0,-232.0,0
1167,-16.0,-5.0,-224.0,0
1168,-12.0,-1.0,-230.0,0
1169,-17.0,21.0,-244.0,0
1170,-15.0,8.0,-231.0,0
1171,-16.0,-1.0,-223.0,0
1172,-12.0,1.0,-217.0,0
1173,-14.0,3.0,-224.0,0
1174,-16.0,2.0,-224.0,0
1175,-14.0,-2.0,-223.0,0
1176,-20.0,10.0,-230.0,0
1177,-15.0,4.0,-234.0,0
1178,-18.0,6.0,-235.0,0
1179,-16.0,5.0,-243.0,0
1180,-15.0,5.0,-242.0,0
1181,-13.0,7.0,-245.0,0
1182,-14.0,6.0,-253.0,0
1183,-16.0,10.0,-257.0,0
1184,-17.0,7.0,-260.0,0
1185,-21.0,11.0,-262.0,0
1186,-23.0,15.0,-268.0,0
1187,-22.0,11.0,-268.0,0
1188,-22.0,12.0,-272.0,0
1189,-20.0,9.0,-269.0,0
1190,-21.0,11.0,-273.0,0
1191,-20.0,12.0,-274.0,0
1192,-22.0,8.0,-275.0,0
1193,-19.0,10.0,-274.0,0
1194,-21.0,11.0,-274.0,0
1195,-23.0,14.0,-275.0,0
1196,-21.0,11.0,-271.0,0
1197,-22.0,15.0,-271.0,0
1198,-22.0,17.0,-267.0,0
1199,-17.0,12.0,-267.0,0
1200,-19.0,16.0,-260.0,0
1201,-19.0,13.0,-258.0,0
1202,-15.0,13.0,-256.0,0
1203,-16.0,14.0,-257.0,0
1204,-21.0,10.0,-252.0,0
1205,-20.0,14.0,-252.0,0
1206,-17.0,16.0,-249.0,0
1207,-17.0,13.0,-251.0,0
1208,-17.0,9.0,-251.0,0
1209,-19.0,16.0,-251.0,0
1210,-18.0,12.0,-250.0,0
1211,-19.0,14.0,-249.0,0
1212,-18.0,15.0,-247.0,0
1213,-17.0,13.0,-249.0,0
1214,-17.0,11.0,-248.0,0
1215,-14.0,10.0,-251.0,0
1216,-16.0,12.0,-251.0,0
1217,-18.0,14.0,-251.0,0
1218,-20.0,14.0,-250.0,0
1219,-22.0,14.0,-259.0,0
1220,-21.0,15.0,-257.0,0
1221,-20.0,13.0,-257.0,0
1222,-20.0,12.0,-258.0,0
1223,-19.0,15.0,-254.0,0
1224,-18.0,13.0,-257.0,0
1225,-17.0,15.0,-261.0,0
1226,-19.0,9.0,-261.0,0
1227,-20.0,8.0,-260.0,0
1228,-18.0,14.0,-260.0,0
1229,-18.0,10.0,-256.0,0
1230,-20.0,16.0,-263.0,0
1231,-18.0,10.0,-261.0,0
1232,-19.0,10.0,-260.0,0
1233,-19.0,10.0,-261.0,0
1234,-19.0,13.0,-263.0,0
1235,-20.0,13.0,-259.0,0
1236,-19.0,10.0,-261.0,0
1237,-19.0,13.0,-258.0,0
1238,-18.0,10.0,-258.0,0
1239,-17.0,12.0,-258.0,0
1240,-18.0,8.0,-260.0,0
1241,-20.0,8.0,-258.0,0
1242,-20.0,7.0,-254.0,0
1243,-20.0,10.0,-254.0,0
1244,-19.0,8.0,-259.0,0
1245,-17.0,7.0,-252.0,0
1246,-20.0,8.0,-254.0,0
1247,-21.0,7.0,-254.0,0
1248,-19.0,10.0,-256.0,0
1249,-21.0,9.0,-256.0,0
1250,-22.0,13.0,-254.0,0
1251,-17.0,12.0,-258.0,0
1252,-20.0,11.0,-254.0,0
1253,-19.0,13.0,-255.0,0
1254,-20.0,10.0,-253.0,0
1255,-19.0,8.0,-253.0,0
1256,-21.0,9.0,-256.0,0
1257,-21.0,11.0,-258.0,0
1258,-21.0,11.0,-252.0,0
1259,-20.0,11.0,-255.0,0
1260,-19.0,11.0,-255.0,0
1261,-18.0,9.0,-258.0,0
1262,-21.0,8.0,-256.0,0
1263,-18.0,12.0,-258.0,0
1264,-21.0,10.0,-254.0,0
1265,-18.0,13.0,-255.0,0
1266,-19.0,12.0,-254.0,0
1267,-22.0,12.0,-255.0,0
1268,-20.0,15.0,-256.0,0
1269,-18.0,10.0,-257.0,0
1270,-18.0,10.0,-263.0,0
1271,-22.0,14.0,-259.0,0
1272,-21.0,11.0,-258.0,0
1273,-21.0,15.0,-257.0,0
1274,-20.0,13.0,-260.0,0
1275,-17.0,9.0,-257.0,0
1276,-19.0,13.0,-259.0,0
1277,-19.0,11.0,-259.0,0
1278,-21.0,12.0,-256.0,0
1279,-23.0,17.0,-256.0,0
1280,-17.0,12.0,-258.0,0
1281,-20.0,13.0,-259.0,0
1282,-21.0,11.0,-254.0,0
1283,-10.0,18.0,-260.0,0
1284,-17.0,12.0,-256.0,0
1285,-20.0,12.0,-259.0,0
1286,-19.0,13.0,-257.0,0
1287,-20.0,13.0,-255.0,0
1288,-21.0,13.0,-260.0,0
1289,-17.0,10.0,-255.0,0
1290,-16.0,13.0,-252.0,0
1291,-20.0,17.0,-257.0,0
1292,-18.0,12.0,-256.0,0
1293,-18.0,9.0,-253.0,0
1294,-18.0,9.0,-258.0,0
1295,-17.0,5.0,-255.0,0
1296,-17.0,9.0,-257.0,0
1297,-18.0,12.0,-255.0,0
1298,-18.0,10.0,-254.0,0
1299,-20.0,12.0,-257.0,0
1300,-20.0,13.0,-258.0,0
1301,-17.0,11.0,-258.0,0
1302,-19.0,14.0,-255.0,0
1303,-19.0,16.0,-255.0,0
1304,-20.0,14.0,-255.0,0
1305,-18.0,12.0,-254.0,0
1306,-21.0,12.0,-258.0,0
1307,-21.0,11.0,-259.0,0
1308,-19.0,9.0,-255.0,0
1309,-19.0,9.0,-254.0,0
1310,-16.0,8.0,-255.0,0
1311,-21.0,9.0,-258.0,0
1312,-19.0,15.0,-256.0,0
1313,-21.0,14.0,-257.0,0
1314,-17.0,11.0,-255.0,0
1315,-15.0,9.0,-256.0,0
1316,-19.0,9.0,-255.0,0
1317,-20.0,12.0,-255.0,0
1318,-21.0,11.0,-256.0,0
1319,-20.0,14.0,-255.0,0
1320,-19.0,9.0,-256.0,0
1321,-17.0,12.0,-253.0,0
1322,-20.0,10.0,-254.0,0
1323,-18.0,11.0,-256.0,0
1324,-22.0,10.0,-262.0,0
1325,-21.0,10.0,-259.0,0
1326,-21.0,8.0,-257.0,0
1327,-22.0,12.0,-257.0,0
1328,-18.0,10.0,-257.0,0
1329,-20.0,10.0,-254.0,0
1330,-17.0,10.0,-256.0,0
1331,-21.0,12.0,-254.0,0
1332,-20.0,14.0,-257.0,0
1333,-22.0,14.0,-257.0,0
1334,-21.0,14.0,-258.0,0
1335,-19.0,11.0,-254.0,0
1336,-20.0,13.0,-253.0,0
1337,-21.0,11.0,-256.0,0
1338,-20.0,13.0,-251.0,0
1339,-19.0,11.0,-255.0,0
1340,-19.0,12.0,-255.0,0
1341,-18.0,13.0,-254.0,0
1342,-21.0,12.0,-257.0,0
1343,-21.0,10.0,-255.0,0
1344,-19.0,11.0,-254.0,0
1345,-19.0,10.0,-253.0,0
1346,-28.0,10.0,-256.0,0
1347,-23.0,15.0,-263.0,0
1348,-18.0,9.0,-259.0,0
1349,-21.0,12.0,-259.0,0
1350,-18.0,9.0,-257.0,0
1351,-19.0,8.0,-257.0,0
1352,-22.0,13.0,-259.0,0
1353,-18.0,10.0,-257.0,0
1354,-19.0,8.0,-252.0,0
1355,-19.0,15.0,-252.0,0
1356,-23.0,9.0,-255.0,0
1357,-17.0,12.0,-257.0,0
1358,-15.0,14.0,-256.0,0
1359,-19.0,10.0,-257.0,0
1360,-23.0,12.0,-256.0,0
1361,-21.0,12.0,-255.0,0
1362,-19.0,9.0,-258.0,0
1363,-22.0,14.0,-258.0,0
1364,-19.0,9.0,-256.0,0
1365,-19.0,11.0,-255.0,0
1366,-21.0,10.0,-260.0,0
1367,-21.0,12.0,-252.0,0
1368,-24.0,16.0,-261.0,0
1369,-23.0,11.0,-256.0,0
1370,-21.0,11.0,-255.0,0
1371,-20.0,12.0,-257.0,0
1372,-16.0,9.0,-256.0,0
1373,-21.0,12.0,-261.0,0
1374,-19.0,11.0,-258.0,0
1375,-18.0,12.0,-256.0,0
1376,-20.0,13.0,-256.0,0
1377,-21.0,14.0,-259.0,0
1378,-21.0,9.0,-255.0,0
1379,-26.0,5.0,-270.0,0
1380,-22.0,13.0,-255.0,0
1381,-21.0,11.0,-256.0,0
1382,-19.0,9.0,-258.0,0
1383,-20.0,6.0,-261.0,0
1384,-20.0,12.0,-255.0,0
1385,-18.0,11.0,-258.0,0
1386,-22.0,14.0,-259.0,0
1387,-21.0,10.0,-255.0,0
1388,-19.0,12.0,-257.0,0
1389,-21.0,12.0,-253.0,0
1390,-21.0,11.0,-260.0,0
1391,-20.0,11.0,-255.0,0
1392,-20.0,10.0,-256.0,0
1393,-19.0,10.0,-259.0,0
1394,-20.0,13.0,-257.0,0
1395,-20.0,11.0,-256.0,0
1396,-20.0,7.0,-258.0,0
1397,-22.0,11.0,-256.0,0
1398,-20.0,6.0,-256.0,0
1399,-19.0,8.0,-255.0,0
1400,-22.0,10.0,-256.0,0
1401,-21.0,11.0,-259.0,0
1402,-20.0,8.0,-254.0,0
1403,-20.0,12.0,-257.0,0
1404,-20.0,9.0,-257.0,0
1405,-23.0,11.0,-256.0,0
1406,-22.0,12.0,-255.0,0
1407,-20.0,9.0,-252.0,0
1408,-23.0,9.0,-250.0,0
1409,-20.0,9.0,-254.0,0
1410,-20.0,13.0,-254.0,0
1411,-28.0,13.0,-260.0,0
1412,-21.0,13.0,-258.0,0
1413,-20.0,8.0,-256.0,0
1414,-21.0,12.0,-255.0,0
1415,-20.0,12.0,-258.0,0
1416,-18.0,10.0,-253.0,0
1417,-22.0,9.0,-256.0,0
1418,-22.0,11.0,-256.0,0
1419,-23.0,15.0,-258.0,0
1420,-23.0,14.0,-258.0,0
1421,-18.0,10.0,-254.0,0
1422,-21.0,11.0,-256.0,0
1423,-23.0,11.0,-256.0,0
1424,-17.0,10.0,-254.0,0
1425,-21.0,10.0,-260.0,0
1426,-23.0,9.0,-256.0,0
1427,-19.0,9.0,-258.0,0
1428,-21.0,10.0,-260.0,0
1429,-19.0,11.0,-258.0,0
1430,-20.0,6.0,-254.0,0
1431,-20.0,9.0,-249.0,0
1432,-23.0,19.0,-262.0,0
1433,-20.0,9.0,-255.0,0
1434,-21.0,9.0,-253.0,0
1435,-20.0,10.0,-254.0,0
1436,-20.0,10.0,-254.0,0
1437,-20.0,10.0,-259.0,0
1438,-18.0,10.0,-260.0,0
1439,-21.0,11.0,-256.0,0
1440,-20.0,8.0,-256.0,0
1441,-24.0,13.0,-251.0,0
1442,-24.0,10.0,-258.0,0
1443,-23.0,13.0,-252.0,0
1444,-19.0,10.0,-256.0,0
1445,-21.0,10.0,-258.0,0
1446,-19.0,8.0,-257.0,0
1447,-23.0,8.0,-257.0,0
1448,-20.0,10.0,-255.0,0
1449,-20.0,12.0,-257.0,0
1450,-22.0,11.0,-255.0,0
1451,-18.0,12.0,-255.0,0
1452,-21.0,13.0,-254.0,0
1453,-22.0,11.0,-257.0,0
1454,-17.0,3.0,-258.0,0
1455,-19.0,11.0,-254.0,0
1456,-21.0,11.0,-256.0,0
1457,-19.0,11.0,-254.0,0
1458,-22.0,11.0,-258.0,0
1459,-22.0,10.0,-256.0,0
1460,-21.0,15.0,-254.0,0
1461,-20.0,9.0,-255.0,0
1462,-19.0,13.0,-255.0,0
1463,-23.0,9.0,-258.0,0
1464,-17.0,11.0,-259.0,0
1465,-20.0,10.0,-256.0,0
1466,-20.0,10.0,-260.0,0
1467,-20.0,9.0,-259.0,0
1468,-23.0,12.0,-257.0,0
1469,-20.0,12.0,-257.0,0
1470,-19.0,9.0,-256.0,0
1471,-22.0,12.0,-258.0,0
1472,-21.0,10.0,-260.0,0
1473,-22.0,7.0,-257.0,0
1474,-19.0,10.0,-256.0,0
1475,-19.0,14.0,-261.0,0
1476,-19.0,8.0,-258.0,0
1477,-21.0,12.0,-253.0,0
1478,-18.0,8.0,-257.0,0
1479,-22.0,11.0,-260.0,0
1480,-20.0,9.0,-257.0,0
1481,-20.0,7.0,-256.0,0
1482,-20.0,8.0,-254.0,0
1483,-21.0,11.0,-257.0,0
1484,-22.0,10.0,-258.0,0
1485,-21.0,13.0,-260.0,0
1486,-23.0,7.0,-250.0,0
1487,-19.0,9.0,-255.0,0
1488,-21.0,8.0,-257.0,0
1489,-21.0,11.0,-257.0,0
1490,-26.0,11.0,-261.0,0
1491,-16.0,9.0,-254.0,0
1492,-20.0,11.0,-257.0,0
1493,-21.0,11.0,-254.0,0
1494,-24.0,12.0,-256.0,0
1495,-20.0,7.0,-251.0,0
1496,-18.0,9.0,-259.0,0
1497,-17.0,7.0,-260.0,0
1498,-25.0,8.0,-255.0,0
1499,-20.0,10.0,-258.0,0
1500,-19.0,7.0,-256.0,0
1501,-24.0,10.0,-255.0,0
1502,-22.0,10.0,-259.0,0
1503,-21.0,9.0,-253.0,0
1504,-21.0,8.0,-252.0,0
1505,-24.0,14.0,-256.0,0
1506,-21.0,7.0,-256.0,0
1507,-22.0,6.0,-249.0,0
1508,-24.0,11.0,-256.0,0
1509,-22.0,12.0,-256.0,0
1510,-21.0,9.0,-257.0,0
1511,-23.0,10.0,-257.0,0
1512,-20.0,11.0,-255.0,0
1513,-18.0,8.0,-259.0,0
1514,-21.0,10.0,-256.0,0
1515,-23.0,8.0,-258.0,0
1516,-22.0,9.0,-252.0,0
1517,-21.0,6.0,-257.0,0
1518,-20.0,8.0,-255.0,0
1519,-19.0,11.0,-256.0,0
1520,-20.0,5.0,-255.0,0
1521,-21.0,10.0,-254.0,0
1522,-18.0,10.0,-258.0,0
1523,-20.0,11.0,-255.0,0
1524,-21.0,9.0,-256.0,0
1525,-19.0,9.0,-255.0,0
1526,-23.0,12.0,-252.0,0
1527,-22.0,10.0,-258.0,0
1528,-24.0,11.0,-258.0,0
1529,-21.0,8.0,-256.0,0
1530,-21.0,9.0,-257.0,0
1531,-18.0,7.0,-256.0,0
1532,-22.0,8.0,-252.0,0
1533,-22.0,6.0,-255.0,0
1534,-19.0,10.0,-259.0,0
1535,-21.0,10.0,-258.0,0
1536,-22.0,9.0,-257.0,0
1537,-24.0,8.0,-257.0,0
1538,-19.0,12.0,-257.0,0
1539,-23.0,5.0,-262.0,0
1540,-20.0,10.0,-260.0,0
1541,-21.0,11.0,-256.0,0
1542,-21.0,11.0,-259.0,0
1543,-22.0,9.0,-258.0,0
1544,-21.0,9.0,-258.0,0
1545,-24.0,9.0,-258.0,0
1546,-21.0,11.0,-256.0,0
1547,-20.0,7.0,-255.0,0
1548,-20.0,8.0,-253.0,0
1549,-21.0,9.0,-253.0,0
1550,-21.0,9.0,-255.0,0
1551,-19.0,8.0,-257.0,0
1552,-20.0,9.0,-258.0,0
1553,-19.0,8.0,-257.0,0
1554,-22.0,9.0,-255.0,0
1555,-23.0,11.0,-255.0,0
1556,-21.0,10.0,-253.0,0
1557,-22.0,9.0,-256.0,0
1558,-19.0,6.0,-256.0,0
1559,-18.0,7.0,-254.0,0
1560,-22.0,13.0,-258.0,0
1561,-21.0,11.0,-259.0,0
1562,-22.0,7.0,-256.0,0
1563,-23.0,9.0,-258.0,0
1564,-22.0,10.0,-254.0,0
1565,-23.0,11.0,-257.0,0
1566,-21.0,8.0,-256.0,0
1567,-19.0,7.0,-255.0,0
1568,-21.0,11.0,-253.0,0
1569,-20.0,4.0,-257.0,0
1570,-21.0,7.0,-256.0,0
1571,-10.0,8.0,-251.0,0
1572,-22.0,13.0,-257.0,0
1573,-22.0,8.0,-256.0,0
1574,-20.0,7.0,-257.0,0
1575,-23.0,9.0,-255.0,0
1576,-19.0,10.0,-257.0,0
1577,-22.0,11.0,-255.0,0
1578,-20.0,7.0,-256.0,0
1579,-22.0,11.0,-259.0,0
1580,-20.0,9.0,-258.0,0
1581,-21.0,12.0,-254.0,0
1582,-27.0,9.0,-259.0,0
1583,-21.0,9.0,-256.0,0
1584,-21.0,12.0,-258.0,0
1585,-21.0,7.0,-257.0,0
1586,-19.0,12.0,-259.0,0
1587,-21.0,6.0,-257.0,0
1588,-21.0,12.0,-256.0,0
1589,-21.0,8.0,-259.0,0
1590,-20.0,8.0,-254.0,0
1591,-23.0,6.0,-258.0,0
1592,-24.0,8.0,-260.0,0
1593,-22.0,6.0,-258.0,0
1594,-19.0,8.0,-257.0,0
1595,-21.0,8.0,-254.0,0
1596,-21.0,10.0,-259.0,0
1597,-21.0,7.0,-257.0,0
1598,-23.0,10.0,-259.0,0
1599,-22.0,6.0,-255.0,0
1600,-18.0,9.0,-253.0,0
1601,-19.0,6.0,-257.0,0
1602,-18.0,11.0,-252.0,0
1603,-20.0,7.0,-258.0,0
1604,-20.0,10.0,-253.0,0
1605,-22.0,11.0,-258.0,0
1606,-20.0,11.0,-255.0,0
1607,-19.0,7.0,-258.0,0
1608,-21.0,10.0,-258.0,0
1609,-22.0,8.0,-256.0,0
1610,-19.0,10.0,-258.0,0
1611,-19.0,9.0,-253.0,0
1612,-19.0,9.0,-257.0,0
1613,-21.0,11.0,-260.0,0
1614,-16.0,13.0,-259.0,0
1615,-20.0,11.0,-256.0,0
1616,-21.0,10.0,-255.0,0
1617,-23.0,9.0,-260.0,0
1618,-19.0,8.0,-259.0,0
1619,-20.0,9.0,-254.0,0
1620,-26.0,9.0,-256.0,0
1621,-22.0,8.0,-255.0,0
1622,-23.0,7.0,-262.0,0
1623,-20.0,7.0,-253.0,0
1624,-24.0,13.0,-252.0,0
1625,-23.0,6.0,-256.0,0
1626,-23.0,9.0,-259.0,0
1627,-22.0,6.0,-259.0,0
1628,-21.0,7.0,-255.0,0
1629,-21.0,8.0,-256.0,0
1630,-19.0,7.0,-259.0,0
1631,-19.0,9.0,-256.0,0
1632,-20.0,8.0,-255.0,0
1633,-23.0,9.0,-254.0,0
1634,-21.0,11.0,-259.0,0
1635,-22.0,5.0,-259.0,0
1636,-19.0,8.0,-253.0,0
1637,-16.0,6.0,-255.0,0
1638,-19.0,7.0,-257.0,0
1639,-22.0,7.0,-261.0,0
1640,-18.0,6.0,-255.0,0
1641,-17.0,7.0,-259.0,0
1642,-22.0,10.0,-254.0,0
1643,-23.0,12.0,-258.0,0
1644,-19.0,9.0,-255.0,0
1645,-20.0,8.0,-258.0,0
1646,-24.0,10.0,-263.0,0
1647,-19.0,9.0,-258.0,0
1648,-22.0,9.0,-257.0,0
1649,-22.0,8.0,-258.0,0
1650,-19.0,9.0,-256.0,0
1651,-20.0,10.0,-258.0,0
1652,-16.0,7.0,-253.0,0
1653,-22.0,8.0,-261.0,0
1654,-20.0,9.0,-255.0,0
1655,-20.0,10.0,-254.0,0
1656,-26.0,5.0,-258.0,0
1657,-23.0,8.0,-254.0,0
1658,-24.0,10.0,-255.0,0
1659,-23.0,4.0,-255.0,0
1660,-21.0,9.0,-258.0,0
1661,-19.0,8.0,-254.0,0
1662,-21.0,9.0,-256.0,0
1663,-22.0,10.0,-256.0,0
1664,-21.0,9.0,-255.0,0
1665,-19.0,10.0,-254.0,0
1666,-20.0,9.0,-256.0,0
1667,-21.0,9.0,-255.0,0
1668,-19.0,7.0,-254.0,0
1669,-20.0,6.0,-256.0,0
1670,-22.0,9.0,-257.0,0
1671,-25.0,8.0,-256.0,0
1672,-21.0,7.0,-256.0,0
1673,-20.0,7.0,-257.0,0
1674,-22.0,8.0,-259.0,0
1675,-25.0,9.0,-257.0,0
1676,-20.0,7.0,-253.0,0
1677,-21.0,9.0,-255.0,0
1678,-21.0,9.0,-254.0,0
1679,-20.0,9.0,-260.0,0
1680,-22.0,6.0,-256.0,0
1681,-24.0,12.0,-256.0,0
1682,-23.0,11.0,-258.0,0
1683,-21.0,10.0,-257.0,0
1684,-20.0,8.0,-252.0,0
1685,-22.0,10.0,-261.0,0
1686,-22.0,12.0,-255.0,0
1687,-21.0,6.0,-258.0,0
1688,-24.0,12.0,-257.0,0
1689,-22.0,7.0,-257.0,0
1690,-17.0,9.0,-259.0,0
1691,-21.0,10.0,-260.0,0
1692,-19.0,10.0,-257.0,0
1693,-21.0,9.0,-257.0,0
1694,-24.0,9.0,-257.0,0
1695,-21.0,11.0,-253.0,0
1696,-22.0,9.0,-257.0,0
1697,-21.0,10.0,-255.0,0
1698,-23.0,9.0,-257.0,0
1699,-23.0,5.0,-253.0,0
1700,-22.0,8.0,-253.0,0
1701,-18.0,8.0,-257.0,0
1702,-22.0,7.0,-255.0,0
1703,-21.0,8.0,-257.0,0
1704,-23.0,9.0,-254.0,0
1705,-23.0,12.0,-258.0,0
1706,-20.0,9.0,-257.0,0
1707,-23.0,8.0,-256.0,0
1708,-21.0,8.0,-259.0,0
1709,-21.0,7.0,-255.0,0
1710,-25.0,7.0,-253.0,0
1711,-19.0,6.0,-254.0,0
1712,-20.0,10.0,-257.0,0
1713,-23.0,10.0,-255.0,0
1714,-21.0,10.0,-256.0,0
1715,-23.0,10.0,-256.0,0
1716,-23.0,10.0,-253.0,0
1717,-19.0,8.0,-253.0,0
1718,-21.0,11.0,-258.0,0
1719,-20.0,9.0,-256.0,0
1720,-22.0,12.0,-259.0,0
1721,-23.0,9.0,-256.0,0
1722,-23.0,9.0,-255.0,0
1723,-20.0,7.0,-255.0,0
1724,-21.0,11.0,-257.0,0
1725,-21.0,10.0,-257.0,0
1726,-21.0,12.0,-258.0,0
1727,-18.0,6.0,-256.0,0
1728,-23.0,9.0,-256.0,0
1729,-21.0,9.0,-257.0,0
1730,-23.0,9.0,-254.0,0
1731,-26.0,9.0,-257.0,0
1732,-24.0,8.0,-257.0,0
1733,-19.0,7.0,-259.0,0
1734,-21.0,8.0,-253.0,0
1735,-22.0,8.0,-256.0,0
1736,-22.0,10.0,-256.0,0
1737,-21.0,10.0,-257.0,0
1738,-20.0,7.0,-256.0,0
1739,-22.0,11.0,-253.0,0
1740,-21.0,6.0,-254.0,0
1741,-22.0,10.0,-256.0,0
1742,-20.0,6.0,-252.0,0
1743,-22.0,8.0,-251.0,0
1744,-24.0,12.0,-256.0,0
1745,-23.0,11.0,-254.0,0
1746,-22.0,8.0,-254.0,0
1747,-19.0,9.0,-255.0,0
1748,-20.0,7.0,-255.0,0
1749,-19.0,9.0,-257.0,0
1750,-22.0,5.0,-257.0,0
1751,-21.0,9.0,-251.0,0
1752,-14.0,11.0,-259.0,0
1753,-21.0,9.0,-255.0,0
1754,-22.0,11.0,-253.0,0
1755,-19.0,8.0,-256.0,0
1756,-20.0,7.0,-258.0,0
1757,-23.0,11.0,-256.0,0
1758,-19.0,9.0,-258.0,0
1759,-22.0,6.0,-255.0,0
1760,-24.0,10.0,-261.0,0
1761,-20.0,9.0,-256.0,0
1762,-22.0,11.0,-253.0,0
1763,-20.0,7.0,-255.0,0
1764,-24.0,12.0,-258.0,0
1765,-21.0,10.0,-254.0,0
1766,-20.0,9.0,-258.0,0
1767,-21.0,10.0,-257.0,0
1768,-21.0,9.0,-254.0,0
1769,-19.0,7.0,-260.0,0
1770,-18.0,11.0,-253.0,0
1771,-19.0,10.0,-257.0,0
1772,-21.0,6.0,-257.0,0
1773,-21.0,8.0,-255.0,0
1774,-25.0,13.0,-263.0,0
1775,-20.0,9.0,-255.0,0
1776,-21.0,11.0,-255.0,0
1777,-20.0,10.0,-254.0,0
1778,-21.0,8.0,-257.0,0
1779,-26.0,11.0,-254.0,0
1780,-21.0,7.0,-261.0,0
1781,-20.0,8.0,-260.0,0
1782,-22.0,10.0,-255.0,0
1783,-24.0,10.0,-253.0,0
1784,-26.0,8.0,-262.0,0
1785,-22.0,12.0,-253.0,0
1786,-21.0,6.0,-256.0,0
1787,-21.0,7.0,-255.0,0
1788,-21.0,8.0,-257.0,0
1789,-23.0,10.0,-258.0,0
1790,-21.0,8.0,-254.0,0
1791,-20.0,7.0,-257.0,0
1792,-17.0,8.0,-257.0,0
1793,-20.0,9.0,-255.0,0
1794,-20.0,7.0,-256.0,0
1795,-28.0,11.0,-261.0,0
1796,-23.0,9.0,-255.0,0
1797,-21.0,9.0,-255.0,0
1798,-21.0,9.0,-258.0,0
1799,-23.0,10.0,-256.0,0
1800,-22.0,9.0,-254.0,0
1801,-21.0,9.0,-259.0,0
1802,-21.0,8.0,-258.0,0
1803,-21.0,7.0,-259.0,0
1804,-22.0,7.0,-255.0,0
1805,-20.0,6.0,-254.0,0
1806,-27.0,10.0,-255.0,0
1807,-21.0,8.0,-257.0,0
1808,-21.0,8.0,-257.0,0
1809,-21.0,11.0,-257.0,0
1810,-24.0,12.0,-259.0,0
1811,-20.0,8.0,-256.0,0
1812,-26.0,8.0,-258.0,0
1813,-20.0,9.0,-259.0,0
1814,-23.0,10.0,-256.0,0
1815,-24.0,10.0,-255.0,0
1816,-23.0,8.0,-255.0,0
1817,-22.0,7.0,-260.0,0
1818,-23.0,10.0,-254.0,0
1819,-22.0,10.0,-254.0,0
1820,-25.0,12.0,-257.0,0
1821,-21.0,10.0,-256.0,0
1822,-21.0,9.0,-256.0,0
1823,-20.0,6.0,-256.0,0
1824,-24.0,13.0,-254.0,0
1825,-25.0,9.0,-255.0,0
1826,-23.0,8.0,-255.0,0
1827,-22.0,7.0,-257.0,0
1828,-22.0,11.0,-258.0,0
1829,-23.0,10.0,-257.0,0
1830,-22.0,11.0,-256.0,0
1831,-23.0,12.0,-257.0,0
1832,-23.0,12.0,-255.0,0
1833,-24.0,10.0,-257.0,0
1834,-19.0,11.0,-257.0,0
1835,-21.0,8.0,-258.0,0
1836,-20.0,11.0,-257.0,0
1837,-22.0,8.0,-257.0,0
1838,-29.0,6.0,-250.0,0
1839,-21.0,12.0,-256.0,0
1840,-18.0,9.0,-256.0,0
1841,-21.0,9.0,-257.0,0
1842,-22.0,11.0,-258.0,0
1843,-23.0,9.0,-257.0,0
1844,-21.0,10.0,-256.0,0
1845,-20.0,9.0,-258.0,0
1846,-20.0,11.0,-254.0,0
1847,-22.0,6.0,-256.0,0
1848,-22.0,6.0,-249.0,0
1849,-19.0,8.0,-254.0,0
1850,-20.0,9.0,-254.0,0
1851,-23.0,10.0,-256.0,0
1852,-22.0,9.0,-257.0,0
1853,-23.0,13.0,-254.0,0
1854,-22.0,11.0,-257.0,0
1855,-25.0,14.0,-259.0,0
1856,-25.0,11.0,-259.0,0
1857,-22.0,8.0,-256.0,0
1858,-24.0,10.0,-259.0,0
1859,-19.0,6.0,-258.0,0
1860,-24.0,9.0,-260.0,0
1861,-23.0,8.0,-259.0,0
1862,-20.0,6.0,-255.0,0
1863,-22.0,9.0,-259.0,0
1864,-22.0,10.0,-259.0,0
1865,-23.0,8.0,-258.0,0
1866,-21.0,12.0,-258.0,0
1867,-23.0,10.0,-259.0,0
1868,-22.0,11.0,-257.0,0
1869,-21.0,8.0,-254.0,0
1870,-25.0,10.0,-258.0,0
1871,-24.0,11.0,-257.0,0
1872,-23.0,6.0,-256.0,0
1873,-24.0,10.0,-259.0,0
1874,-20.0,10.0,-261.0,0
1875,-24.0,10.0,-254.0,0
1876,-20.0,10.0,-255.0,0
1877,-23.0,9.0,-258.0,0
1878,-19.0,10.0,-253.0,0
1879,-22.0,11.0,-253.0,0
1880,-25.0,10.0,-259.0,0
1881,-22.0,10.0,-253.0,0
1882,-23.0,8.0,-257.0,0
1883,-23.0,9.0,-255.0,0
1884,-22.0,7.0,-256.0,0
1885,-24.0,11.0,-257.0,0
1886,-22.0,11.0,-255.0,0
1887,-19.0,7.0,-256.0,0
1888,-23.0,8.0,-252.0,0
1889,-21.0,9.0,-257.0,0
1890,-25.0,8.0,-261.0,0
1891,-25.0,7.0,-256.0,0
1892,-23.0,13.0,-260.0,0
1893,-23.0,9.0,-259.0,0
1894,-22.0,8.0,-255.0,0
1895,-22.0,10.0,-256.0,0
1896,-20.0,12.0,-256.0,0
1897,-22.0,8.0,-260.0,0
1898,-18.0,7.0,-254.0,0
1899,-24.0,11.0,-257.0,0
1900,-23.0,11.0,-257.0,0
1901,-23.0,9.0,-256.0,0
1902,-25.0,16.0,-259.0,0
1903,-21.0,7.0,-255.0,0
1904,-25.0,9.0,-256.0,0
1905,-24.0,10.0,-259.0,0
1906,-21.0,11.0,-256.0,0
1907,-24.0,9.0,-257.0,0
1908,-22.0,12.0,-258.0,0
1909,-22.0,10.0,-251.0,0
1910,-21.0,6.0,-254.0,0
1911,-23.0,8.0,-254.0,0
1912,-19.0,8.0,-255.0,0
1913,-21.0,7.0,-257.0,0
1914,-21.0,10.0,-258.0,0
1915,-22.0,11.0,-258.0,0
1916,-23.0,11.0,-254.0,0
1917,-20.0,10.0,-256.0,0
1918,-22.0,9.0,-255.0,0
1919,-24.0,8.0,-257.0,0
1920,-26.0,13.0,-257.0,0
1921,-20.0,4.0,-258.0,0
1922,-21.0,7.0,-258.0,0
1923,-21.0,8.0,-255.0,0
1924,-20.0,9.0,-257.0,0
1925,-22.0,9.0,-256.0,0
1926,-24.0,11.0,-255.0,0
1927,-20.0,7.0,-256.0,0
1928,-24.0,9.0,-257.0,0
1929,-21.0,11.0,-256.0,0
1930,-21.0,9.0,-255.0,0
1931,-19.0,7.0,-258.0,0
1932,-23.0,10.0,-257.0,0
1933,-25.0,13.0,-257.0,0
1934,-19.0,10.0,-259.0,0
1935,-20.0,6.0,-256.0,0
1936,-22.0,8.0,-258.0,0
1937,-22.0,8.0,-253.0,0
1938,-21.0,7.0,-256.0,0
1939,-23.0,12.0,-257.0,0
1940,-20.0,9.0,-255.0,0
1941,-22.0,7.0,-259.0,0
1942,-21.0,9.0,-255.0,0
1943,-27.0,7.0,-252.0,0
1944,-26.0,11.0,-257.0,0
1945,-19.0,11.0,-254.0,0
1946,-21.0,9.0,-257.0,0
1947,-24.0,10.0,-254.0,0
1948,-23.0,7.0,-253.0,0
1949,-21.0,13.0,-256.0,0
1950,-21.0,9.0,-256.0,0
1951,-22.0,8.0,-257.0,0
1952,-22.0,9.0,-257.0,0
1953,-24.0,9.0,-256.0,0
1954,-22.0,5.0,-262.0,0
1955,-23.0,11.0,-259.0,0
1956,-24.0,11.0,-256.0,0
1957,-24.0,10.0,-256.0,0
1958,-23.0,9.0,-260.0,0
1959,-22.0,7.0,-255.0,0
1960,-20.0,11.0,-254.0,0
1961,-24.0,14.0,-257.0,0
1962,-20.0,9.0,-256.0,0
1963,-26.0,9.0,-261.0,0
1964,-21.0,11.0,-257.0,0
1965,-24.0,14.0,-256.0,0
1966,-22.0,11.0,-257.0,0
1967,-24.0,11.0,-255.0,0
1968,-21.0,4.0,-257.0,0
1969,-21.0,9.0,-253.0,0
1970,-23.0,6.0,-255.0,0
1971,-23.0,9.0,-257.0,0
1972,-24.0,12.0,-258.0,0
1973,-21.0,8.0,-253.0,0
1974,-24.0,8.0,-256.0,0
1975,-22.0,9.0,-255.0,0
1976,-25.0,9.0,-262.0,0
1977,-21.0,9.0,-255.0,0
1978,-20.0,9.0,-254.0,0
1979,-20.0,7.0,-257.0,0
1980,-25.0,10.0,-254.0,0
1981,-21.0,11.0,-255.0,0
1982,-20.0,11.0,-257.0,0
1983,-19.0,11.0,-257.0,0
1984,-19.0,7.0,-257.0,0
1985,-18.0,8.0,-256.0,0
1986,-25.0,7.0,-255.0,0
1987,-23.0,8.0,-256.0,0
1988,-19.0,10.0,-255.0,0
1989,-19.0,6.0,-253.0,0
1990,-22.0,8.0,-256.0,0
1991,-21.0,9.0,-259.0,0
1992,-20.0,7.0,-257.0,0
1993,-26.0,11.0,-258.0,0
1994,-24.0,11.0,-257.0,0
1995,-23.0,9.0,-253.0,0
1996,-20.0,10.0,-252.0,0
1997,-25.0,12.0,-253.0,0
1998,-22.0,18.0,-254.0,0
1999,-23.0,10.0,-256.0,0
2000,-23.0,9.0,-257.0,0
2001,-22.0,10.0,-254.0,0
2002,-23.0,7.0,-256.0,0
2003,-20.0,10.0,-259.0,0
2004,-26.0,13.0,-255.0,0
2005,-21.0,9.0,-258.0,0
2006,-22.0,9.0,-255.0,0
2007,-23.0,6.0,-253.0,0
2008,-19.0,6.0,-255.0,0
2009,-23.0,9.0,-254.0,0
2010,-19.0,9.0,-258.0,0
2011,-21.0,8.0,-255.0,0
2012,-23.0,10.0,-257.0,0
2013,-26.0,14.0,-256.0,0
2014,-19.0,8.0,-253.0,0
2015,-18.0,5.0,-249.0,0
2016,-20.0,6.0,-258.0,0
2017,-23.0,11.0,-256.0,0
2018,-23.0,12.0,-253.0,0
2019,-21.0,6.0,-255.0,0
2020,-19.0,8.0,-254.0,0
2021,-22.0,12.0,-253.0,0
2022,-22.0,9.0,-254.0,0
2023,-21.0,8.0,-255.0,0
2024,-24.0,9.0,-256.0,0
2025,-20.0,8.0,-257.0,0
2026,-22.0,7.0,-260.0,0
2027,-27.0,7.0,-255.0,0
2028,-22.0,9.0,-256.0,0
2029,-20.0,10.0,-252.0,0
2030,-23.0,11.0,-254.0,0
2031,-20.0,8.0,-252.0,0
2032,-23.0,8.0,-256.0,0
2033,-21.0,8.0,-257.0,0
2034,-21.0,10.0,-254.0,0
2035,-22.0,11.0,-256.0,0
2036,-24.0,8.0,-253.0,0
2037,-20.0,8.0,-257.0,0
2038,-21.0,10.0,-259.0,0
2039,-23.0,9.0,-255.0,0
2040,-23.0,17.0,-252.0,0
2041,-19.0,9.0,-254.0,0
2042,-23.0,11.0,-255.0,0
2043,-24.0,10.0,-256.0,0
2044,-22.0,8.0,-253.0,0
2045,-22.0,6.0,-257.0,0
2046,-21.0,11.0,-254.0,0
2047,-23.0,11.0,-254.0,0
2048,-21.0,7.0,-255.0,0
2049,-23.0,10.0,-253.0,0
2050,-21.0,7.0,-248.0,0
2051,-23.0,10.0,-261.0,0
2052,-21.0,10.0,-259.0,0
2053,-23.0,12.0,-258.0,0
2054,-23.0,10.0,-259.0,0
2055,-20.0,8.0,-256.0,0
2056,-21.0,8.0,-257.0,0
2057,-21.0,9.0,-255.0,0
2058,-19.0,8.0,-254.0,0
2059,-27.0,13.0,-260.0,0
2060,-23.0,12.0,-258.0,0
2061,-22.0,10.0,-258.0,0
2062,-22.0,4.0,-249.0,0
2063,-20.0,10.0,-258.0,0
2064,-20.0,10.0,-256.0,0
2065,-22.0,11.0,-252.0,0
2066,-20.0,9.0,-254.0,0
2067,-22.0,10.0,-257.0,0
2068,-21.0,11.0,-254.0,0
2069,-22.0,7.0,-256.0,0
2070,-19.0,8.0,-256.0,0
2071,-20.0,8.0,-261.0,0
2072,-22.0,5.0,-254.0,0
2073,-21.0,7.0,-255.0,0
2074,-25.0,9.0,-258.0,0
2075,-20.0,8.0,-257.0,0
2076,-23.0,9.0,-258.0,0
2077,-22.0,9.0,-257.0,0
2078,-20.0,12.0,-256.0,0
2079,-24.0,8.0,-255.0,0
2080,-25.0,10.0,-261.0,0
2081,-21.0,12.0,-254.0,0
2082,-20.0,6.0,-255.0,0
2083,-28.0,15.0,-258.0,0
2084,-21.0,7.0,-256.0,0
2085,-22.0,7.0,-257.0,0
2086,-22.0,8.0,-254.0,0
2087,-21.0,7.0,-256.0,0
2088,-23.0,8.0,-259.0,0
2089,-21.0,10.0,-256.0,0
2090,-22.0,12.0,-258.0,0
2091,-22.0,6.0,-257.0,0
2092,-22.0,12.0,-253.0,0
2093,-22.0,7.0,-255.0,0
2094,-20.0,19.0,-259.0,0
2095,-23.0,10.0,-253.0,0
2096,-20.0,9.0,-257.0,0
2097,-22.0,7.0,-257.0,0
2098,-23.0,8.0,-258.0,0
2099,-21.0,9.0,-256.0,0
2100,-20.0,13.0,-254.0,0
2101,-18.0,8.0,-258.0,0
2102,-22.0,12.0,-260.0,0
2103,-21.0,9.0,-257.0,0
2104,-21.0,3.0,-253.0,0
2105,-21.0,12.0,-253.0,0
2106,-20.0,8.0,-257.0,0
2107,-26.0,13.0,-251.0,0
2108,-22.0,10.0,-255.0,0
2109,-20.0,6.0,-256.0,0
2110,-22.0,7.0,-259.0,0
2111,-21.0,10.0,-256.0,0
2112,-22.0,10.0,-255.0,0
2113,-20.0,9.0,-257.0,0
2114,-22.0,8.0,-254.0,0
2115,-21.0,10.0,-258.0,0
2116,-21.0,9.0,-256.0,0
2117,-23.0,8.0,-256.0,0
2118,-22.0,4.0,-258.0,0
2119,-21.0,7.0,-256.0,0
2120,-25.0,10.0,-256.0,0
2121,-20.0,7.0,-258.0,0
2122,-22.0,10.0,-257.0,0
2123,-22.0,8.0,-257.0,0
2124,-26.0,9.0,-252.0,0
2125,-19.0,8.0,-252.0,0
2126,-26.0,9.0,-256.0,0
2127,-21.0,10.0,-255.0,0
2128,-22.0,8.0,-256.0,0
2129,-21.0,9.0,-255.0,0
2130,-23.0,10.0,-254.0,0
2131,-23.0,9.0,-258.0,0
2132,-23.0,10.0,-255.0,0
2133,-20.0,8.0,-254.0,0
2134,-20.0,9.0,-257.0,0
2135,-22.0,7.0,-252.0,0
2136,-20.0,6.0,-264.0,0
2137,-21.0,6.0,-257.0,0
2138,-19.0,7.0,-258.0,0
2139,-21.0,7.0,-256.0,0
2140,-21.0,8.0,-252.0,0
2141,-23.0,12.0,-256.0,0
2142,-21.0,8.0,-257.0,0
2143,-20.0,5.0,-259.0,0
2144,-21.0,10.0,-252.0,0
2145,-21.0,8.0,-256.0,0
2146,-23.0,11.0,-252.0,0
2147,-20.0,10.0,-252.0,0
2148,-24.0,9.0,-254.0,0
2149,-20.0,10.0,-258.0,0
2150,-21.0,8.0,-254.0,0
2151,-23.0,10.0,-256.0,0
2152,-22.0,8.0,-258.0,0
2153,-23.0,11.0,-258.0,0
2154,-26.0,10.0,-255.0,0
2155,-23.0,10.0,-256.0,0
2156,-19.0,10.0,-255.0,0
2157,-22.0,10.0,-255.0,0
2158,-23.0,8.0,-254.0,0
2159,-20.0,7.0,-252.0,0
2160,-20.0,7.0,-254.0,0
2161,-22.0,8.0,-255.0,0
2162,-22.0,7.0,-258.0,0
2163,-22.0,8.0,-256.0,0
2164,-23.0,9.0,-255.0,0
2165,-24.0,10.0,-261.0,0
2166,-25.0,11.0,-259.0,0
2167,-19.0,11.0,-252.0,0
2168,-21.0,13.0,-257.0,0
2169,-23.0,7.0,-259.0,0
2170,-22.0,10.0,-258.0,0
2171,-20.0,7.0,-254.0,0
2172,-22.0,10.0,-258.0,0
2173,-21.0,9.0,-257.0,0
2174,-22.0,7.0,-257.0,0
2175,-20.0,7.0,-252.0,0
2176,-22.0,11.0,-255.0,0
2177,-23.0,9.0,-256.0,0
2178,-21.0,10.0,-255.0,0
2179,-21.0,8.0,-258.0,0
2180,-20.0,11.0,-256.0,0
2181,-21.0,11.0,-253.0,0
2182,-23.0,7.0,-258.0,0
2183,-23.0,12.0,-255.0,0
2184,-19.0,8.0,-258.0,0
2185,-20.0,7.0,-257.0,0
2186,-24.0,9.0,-257.0,0
2187,-25.0,9.0,-256.0,0
2188,-21.0,6.0,-255.0,0
2189,-21.0,9.0,-259.0,0
2190,-23.0,11.0,-261.0,0
2191,-19.0,6.0,-256.0,0
2192,-22.0,10.0,-258.0,0
2193,-19.0,8.0,-256.0,0
2194,-21.0,8.0,-260.0,0
2195,-22.0,11.0,-257.0,0
2196,-26.0,9.0,-260.0,0
2197,-21.0,8.0,-259.0,0
2198,-18.0,6.0,-259.0,0
2199,-20.0,8.0,-255.0,0
2200,-27.0,9.0,-263.0,0
2201,-20.0,8.0,-256.0,0
2202,-21.0,7.0,-257.0,0
2203,-22.0,9.0,-258.0,0
2204,-21.0,9.0,-256.0,0
2205,-19.0,11.0,-254.0,0
2206,-20.0,8.0,-258.0,0
2207,-23.0,8.0,-258.0,0
2208,-16.0,7.0,-255.0,0
2209,-22.0,7.0,-257.0,0
2210,-22.0,7.0,-256.0,0
2211,-21.0,7.0,-259.0,0
2212,-22.0,8.0,-256.0,0
2213,-23.0,9.0,-257.0,0
2214,-22.0,9.0,-255.0,0
2215,-21.0,12.0,-258.0,0
2216,-22.0,9.0,-254.0,0
2217,-21.0,12.0,-256.0,0
2218,-18.0,9.0,-259.0,0
2219,-22.0,8.0,-255.0,0
2220,-22.0,10.0,-255.0,0
2221,-21.0,7.0,-259.0,0
2222,-19.0,5.0,-256.0,0
2223,-22.0,10.0,-257.0,0
2224,-24.0,7.0,-256.0,0
2225,-20.0,6.0,-256.0,0
2226,-24.0,8.0,-258.0,0
2227,-21.0,9.0,-256.0,0
2228,-23.0,11.0,-256.0,0
2229,-21.0,9.0,-259.0,0
2230,-20.0,6.0,-255.0,0
2231,-22.0,7.0,-257.0,0
2232,-19.0,8.0,-246.0,0
2233,-20.0,8.0,-255.0,0
2234,-20.0,11.0,-258.0,0
2235,-22.0,8.0,-254.0,0
2236,-21.0,11.0,-256.0,0
2237,-20.0,9.0,-255.0,0
2238,-21.0,8.0,-257.0,0
2239,-25.0,6.0,-259.0,0
2240,-21.0,10.0,-258.0,0
2241,-22.0,11.0,-257.0,0
2242,-20.0,4.0,-257.0,0
2243,-21.0,12.0,-257.0,0
2244,-22.0,10.0,-256.0,0
2245,-21.0,9.0,-255.0,0
2246,-21.0,12.0,-256.0,0
2247,-23.0,13.0,-255.0,0
2248,-23.0,9.0,-257.0,0
2249,-20.0,8.0,-256.0,0
2250,-25.0,11.0,-255.0,0
2251,-22.0,7.0,-256.0,0
2252,-22.0,9.0,-254.0,0
2253,-23.0,11.0,-251.0,0
2254,-25.0,16.0,-251.0,0
2255,-22.0,11.0,-255.0,0
2256,-23.0,5.0,-255.0,0
2257,-20.0,7.0,-258.0,0
2258,-21.0,9.0,-259.0,0
2259,-22.0,10.0,-255.0,0
2260,-22.0,10.0,-259.0,0
2261,-22.0,7.0,-256.0,0
2262,-21.0,10.0,-254.0,0
2263,-20.0,11.0,-254.0,0
2264,-23.0,14.0,-255.0,0
2265,-21.0,10.0,-256.0,0
2266,-20.0,10.0,-254.0,0
2267,-24.0,10.0,-257.0,0
2268,-20.0,8.0,-256.0,0
2269,-20.0,9.0,-259.0,0
2270,-19.0,9.0,-255.0,0
2271,-21.0,6.0,-255.0,0
2272,-22.0,11.0,-251.0,0
2273,-22.0,9.0,-259.0,0
2274,-24.0,13.0,-258.0,0
2275,-21.0,6.0,-258.0,0
2276,-23.0,10.0,-256.0,0
2277,-21.0,8.0,-251.0,0
2278,-23.0,10.0,-254.0,0
2279,-21.0,9.0,-256.0,0
2280,-25.0,11.0,-257.0,0
2281,-23.0,10.0,-254.0,0
2282,-17.0,5.0,-257.0,0
2283,-23.0,6.0,-259.0,0
2284,-25.0,9.0,-260.0,0
2285,-23.0,8.0,-259.0,0
2286,-22.0,4.0,-257.0,0
2287,-23.0,11.0,-255.0,0
2288,-23.0,10.0,-256.0,0
2289,-22.0,6.0,-259.0,0
2290,-20.0,7.0,-253.0,0
2291,-23.0,8.0,-258.0,0
2292,-20.0,9.0,-251.0,0
2293,-25.0,14.0,-260.0,0
2294,-23.0,9.0,-256.0,0
2295,-26.0,11.0,-259.0,0
2296,-13.0,10.0,-256.0,0
2297,-24.0,7.0,-256.0,0
2298,-22.0,12.0,-254.0,0
2299,-21.0,8.0,-251.0,0
2300,-21.0,7.0,-254.0,0
2301,-22.0,9.0,-253.0,0
2302,-19.0,8.0,-256.0,0
2303,-22.0,6.0,-252.0,0
2304,-23.0,9.0,-257.0,0
2305,-23.0,8.0,-257.0,0
2306,-21.0,11.0,-256.0,0
2307,-20.0,9.0,-256.0,0
2308,-22.0,12.0,-256.0,0
2309,-23.0,10.0,-254.0,0
2310,-20.0,9.0,-256.0,0
2311,-25.0,11.0,-257.0,0
2312,-23.0,11.0,-255.0,0
2313,-22.0,12.0,-253.0,0
2314,-21.0,8.0,-257.0,0
2315,-23.0,11.0,-259.0,0
2316,-21.0,10.0,-259.0,0
2317,-20.0,6.0,-254.0,0
2318,-24.0,14.0,-254.0,0
2319,-19.0,7.0,-258.0,0
2320,-24.0,9.0,-256.0,0
2321,-23.0,11.0,-256.0,0
2322,-21.0,9.0,-257.0,0
2323,-23.0,10.0,-257.0,0
2324,-24.0,13.0,-254.0,0
2325,-23.0,10.0,-254.0,0
2326,-21.0,12.0,-255.0,0
2327,-21.0,7.0,-252.0,0
2328,-26.0,3.0,-249.0,0
2329,-21.0,10.0,-255.0,0
2330,-21.0,11.0,-256.0,0
2331,-22.0,8.0,-255.0,0
2332,-22.0,6.0,-258.0,0
2333,-24.0,11.0,-254.0,0
2334,-24.0,14.0,-258.0,0
2335,-24.0,13.0,-260.0,0
2336,-23.0,13.0,-259.0,0
2337,-21.0,6.0,-252.0,0
2338,-27.0,10.0,-253.0,0
2339,-23.0,10.0,-254.0,0
2340,-23.0,8.0,-258.0,0
2341,-23.0,8.0,-256.0,0
2342,-23.0,14.0,-259.0,0
2343,-19.0,9.0,-256.0,0
2344,-24.0,12.0,-256.0,0
2345,-19.0,10.0,-256.0,0
2346,-19.0,6.0,-258.0,0
2347,-23.0,10.0,-259.0,0
2348,-20.0,10.0,-257.0,0
2349,-22.0,9.0,-257.0,0
2350,-25.0,8.0,-257.0,0
2351,-22.0,11.0,-252.0,0
2352,-21.0,10.0,-258.0,0
2353,-22.0,11.0,-256.0,0
2354,-18.0,10.0,-255.0,0
2355,-20.0,9.0,-255.0,0
2356,-20.0,4.0,-253.0,0
2357,-19.0,8.0,-255.0,0
2358,-21.0,10.0,-254.0,0
2359,-19.0,10.0,-258.0,0
2360,-23.0,12.0,-255.0,0
2361,-25.0,14.0,-256.0,0
2362,-21.0,10.0,-256.0,0
2363,-21.0,8.0,-257.0,0
2364,-21.0,9.0,-257.0,0
2365,-25.0,8.0,-255.0,0
2366,-24.0,11.0,-257.0,0
2367,-24.0,10.0,-258.0,0
2368,-23.0,6.0,-258.0,0
2369,-23.0,9.0,-256.0,0
2370,-20.0,8.0,-260.0,0
2371,-23.0,11.0,-250.0,0
2372,-23.0,11.0,-264.0,0
2373,-20.0,11.0,-254.0,0
2374,-22.0,8.0,-260.0,0
2375,-22.0,10.0,-256.0,0
2376,-23.0,13.0,-253.0,0
2377,-21.0,10.0,-258.0,0
2378,-23.0,10.0,-260.0,0
2379,-22.0,11.0,-257.0,0
2380,-22.0,11.0,-254.0,0
2381,-25.0,11.0,-260.0,0
2382,-21.0,7.0,-255.0,0
2383,-20.0,7.0,-254.0,0
2384,-22.0,8.0,-260.0,0
2385,-21.0,9.0,-258.0,0
2386,-20.0,7.0,-255.0,0
2387,-19.0,11.0,-257.0,0
2388,-23.0,8.0,-260.0,0
2389,-18.0,8.0,-257.0,0
2390,-21.0,10.0,-256.0,0
2391,-22.0,9.0,-258.0,0
2392,-24.0,10.0,-253.0,0
2393,-22.0,11.0,-257.0,0
2394,-22.0,8.0,-256.0,0
2395,-22.0,8.0,-258.0,0
2396,-21.0,10.0,-256.0,0
2397,-24.0,9.0,-257.0,0
2398,-22.0,10.0,-256.0,0
2399,-20.0,9.0,-259.0,0
2400,-23.0,7.0,-255.0,0
2401,-24.0,12.0,-259.0,0
2402,-20.0,6.0,-248.0,0
2403,-10.0,12.0,-257.0,0
2404,-21.0,11.0,-258.0,0
2405,-22.0,10.0,-256.0,0
2406,-22.0,11.0,-258.0,0
2407,-24.0,12.0,-257.0,0
2408,-20.0,8.0,-256.0,0
2409,-24.0,10.0,-254.0,0
2410,-24.0,12.0,-258.0,0
2411,-23.0,12.0,-255.0,0
2412,-21.0,10.0,-255.0,0
2413,-23.0,5.0,-258.0,0
2414,-19.0,9.0,-255.0,0
2415,-22.0,10.0,-257.0,0
2416,-23.0,9.0,-258.0,0
2417,-22.0,7.0,-256.0,0
2418,-21.0,10.0,-254.0,0
2419,-23.0,10.0,-258.0,0
2420,-23.0,10.0,-256.0,0
2421,-23.0,10.0,-256.0,0
2422,-22.0,10.0,-257.0,0
2423,-23.0,6.0,-254.0,0
2424,-20.0,10.0,-260.0,0
2425,-26.0,10.0,-258.0,0
2426,-23.0,10.0,-256.0,0
2427,-23.0,12.0,-259.0,0
2428,-24.0,9.0,-255.0,0
2429,-25.0,11.0,-255.0,0
2430,-20.0,12.0,-256.0,0
2431,-20.0,10.0,-254.0,0
2432,-22.0,6.0,-257.0,0
2433,-21.0,9.0,-257.0,0
2434,-22.0,8.0,-253.0,0
2435,-16.0,12.0,-254.0,0
2436,-19.0,7.0,-255.0,0
2437,-22.0,9.0,-255.0,0
2438,-24.0,11.0,-255.0,0
2439,-24.0,11.0,-255.0,0
2440,-25.0,7.0,-261.0,0
2441,-23.0,7.0,-257.0,0
2442,-22.0,8.0,-258.0,0
2443,-22.0,9.0,-255.0,0
2444,-22.0,7.0,-256.0,0
2445,-24.0,8.0,-256.0,0
2446,-27.0,8.0,-256.0,0
2447,-23.0,13.0,-258.0,0
2448,-23.0,10.0,-255.0,0
2449,-20.0,8.0,-258.0,0
2450,-21.0,11.0,-256.0,0
2451,-25.0,10.0,-256.0,0
2452,-23.0,7.0,-257.0,0
2453,-20.0,8.0,-257.0,0
2454,-23.0,9.0,-254.0,0
2455,-23.0,8.0,-260.0,0
2456,-28.0,13.0,-260.0,0
2457,-21.0,9.0,-258.0,0
2458,-21.0,9.0,-257.0,0
2459,-22.0,11.0,-253.0,0
2460,-22.0,10.0,-257.0,0
2461,-21.0,10.0,-257.0,0
2462,-23.0,10.0,-257.0,0
2463,-19.0,7.0,-254.0,0
2464,-22.0,7.0,-258.0,0
2465,-25.0,9.0,-253.0,0
2466,-23.0,10.0,-257.0,0
2467,-23.0,8.0,-260.0,0
2468,-22.0,8.0,-256.0,0
2469,-20.0,8.0,-256.0,0
2470,-24.0,8.0,-255.0,0
2471,-24.0,8.0,-254.0,0
2472,-24.0,8.0,-257.0,0
2473,-21.0,8.0,-259.0,0
2474,-21.0,6.0,-257.0,0
2475,-24.0,10.0,-261.0,0
2476,-24.0,7.0,-257.0,0
2477,-26.0,13.0,-254.0,0
2478,-26.0,7.0,-255.0,0
2479,-17.0,7.0,-256.0,0
2480,-22.0,9.0,-255.0,0
2481,-24.0,13.0,-256.0,0
2482,-21.0,9.0,-254.0,0
2483,-21.0,9.0,-251.0,0
2484,-21.0,6.0,-253.0,0
2485,-24.0,6.0,-254.0,0
2486,-26.0,9.0,-252.0,0
2487,-20.0,7.0,-255.0,0
2488,-18.0,4.0,-257.0,0
2489,-24.0,8.0,-255.0,0
2490,-22.0,9.0,-257.0,0
2491,-21.0,10.0,-258.0,0
2492,-25.0,9.0,-256.0,0
2493,-21.0,9.0,-254.0,0
2494,-22.0,9.0,-256.0,0
2495,-22.0,8.0,-257.0,0
2496,-23.0,12.0,-259.0,0
2497,-22.0,9.0,-258.0,0
2498,-22.0,6.0,-255.0,0
2499,-26.0,11.0,-254.0,0
2500,-25.0,9.0,-256.0,0
2501,-22.0,11.0,-259.0,0
2502,-25.0,11.0,-256.0,0
2503,-24.0,9.0,-256.0,0
2504,-23.0,7.0,-255.0,0
2505,-25.0,9.0,-259.0,0
2506,-22.0,9.0,-256.0,0
2507,-24.0,11.0,-256.0,0
2508,-24.0,9.0,-256.0,0
2509,-20.0,7.0,-254.0,0
2510,-17.0,12.0,-258.0,0
2511,-20.0,10.0,-250.0,0
2512,-21.0,10.0,-256.0,0
2513,-20.0,9.0,-255.0,0
2514,-24.0,10.0,-258.0,0
2515,-22.0,7.0,-255.0,0
2516,-25.0,12.0,-254.0,0
2517,-22.0,10.0,-260.0,0
2518,-25.0,9.0,-257.0,0
2519,-23.0,7.0,-257.0,0
2520,-18.0,11.0,-256.0,0
2521,-22.0,9.0,-257.0,0
2522,-24.0,11.0,-256.0,0
2523,-24.0,6.0,-252.0,0
2524,-22.0,10.0,-256.0,0
2525,-21.0,7.0,-257.0,0
2526,-26.0,11.0,-254.0,0
2527,-23.0,8.0,-250.0,0
2528,-22.0,11.0,-257.0,0
2529,-23.0,9.0,-256.0,0
2530,-22.0,8.0,-254.0,0
2531,-22.0,6.0,-251.0,0
2532,-21.0,6.0,-255.0,0
2533,-21.0,9.0,-258.0,0
2534,-23.0,8.0,-254.0,0
2535,-20.0,7.0,-254.0,0
2536,-24.0,8.0,-255.0,0
2537,-24.0,11.0,-256.0,0
2538,-24.0,8.0,-260.0,0
2539,-20.0,7.0,-254.0,0
2540,-21.0,10.0,-257.0,0
2541,-24.0,11.0,-256.0,0
2542,-25.0,8.0,-261.0,0
2543,-22.0,8.0,-256.0,0
2544,-22.0,8.0,-256.0,0
2545,-23.0,8.0,-257.0,0
2546,-21.0,6.0,-254.0,0
2547,-26.0,11.0,-254.0,0
2548,-22.0,8.0,-253.0,0
2549,-23.0,8.0,-257.0,0
2550,-24.0,8.0,-256.0,0
2551,-20.0,11.0,-256.0,0
2552,-21.0,13.0,-256.0,0
2553,-22.0,10.0,-255.0,0
2554,-25.0,10.0,-253.0,0
2555,-24.0,12.0,-257.0,0
2556,-22.0,9.0,-253.0,0
2557,-23.0,9.0,-255.0,0
2558,-24.0,12.0,-260.0,0
2559,-21.0,9.0,-256.0,0
2560,-23.0,8.0,-252.0,0
2561,-21.0,9.0,-256.0,0
2562,-26.0,6.0,-254.0,0
2563,-21.0,11.0,-253.0,0
2564,-24.0,9.0,-255.0,0
2565,-22.0,8.0,-256.0,0
2566,-23.0,7.0,-254.0,0
2567,-22.0,10.0,-257.0,0
2568,-21.0,7.0,-256.0,0
2569,-26.0,8.0,-255.0,0
2570,-25.0,10.0,-253.0,0
2571,-23.0,7.0,-256.0,0
2572,-21.0,7.0,-258.0,0
2573,-18.0,5.0,-258.0,0
2574,-21.0,4.0,-260.0,0
2575,-24.0,8.0,-253.0,0
2576,-21.0,11.0,-251.0,0
2577,-22.0,8.0,-257.0,0
2578,-22.0,8.0,-257.0,0
2579,-19.0,9.0,-252.0,0
2580,-23.0,7.0,-256.0,0
2581,-23.0,8.0,-255.0,0
2582,-21.0,9.0,-255.0,0
2583,-22.0,9.0,-257.0,0
2584,-23.0,3.0,-251.0,0
2585,-19.0,8.0,-255.0,0
2586,-21.0,8.0,-259.0,0
2587,-21.0,10.0,-255.0,0
2588,-22.0,11.0,-255.0,0
2589,-22.0,9.0,-260.0,0
2590,-22.0,8.0,-253.0,0
2591,-22.0,6.0,-261.0,0
2592,-23.0,8.0,-250.0,0
2593,-26.0,7.0,-256.0,0
2594,-25.0,9.0,-256.0,0
2595,-22.0,4.0,-257.0,0
2596,-22.0,9.0,-258.0,0
2597,-22.0,9.0,-256.0,0
2598,-19.0,4.0,-256.0,0
2599,-21.0,12.0,-258.0,0
2600,-22.0,10.0,-256.0,0
2601,-24.0,8.0,-260.0,0
2602,-21.0,8.0,-262.0,0
2603,-20.0,6.0,-252.0,0
2604,-20.0,8.0,-257.0,0
2605,-20.0,5.0,-257.0,0
2606,-18.0,7.0,-258.0,0
2607,-20.0,8.0,-254.0,0
2608,-21.0,10.0,-259.0,0
2609,-22.0,7.0,-256.0,0
2610,-23.0,11.0,-254.0,0
2611,-21.0,9.0,-253.0,0
2612,-22.0,9.0,-257.0,0
2613,-20.0,9.0,-255.0,0
2614,-23.0,8.0,-256.0,0
2615,-22.0,10.0,-250.0,0
2616,-24.0,11.0,-253.0,0
2617,-23.0,9.0,-259.0,0
2618,-22.0,9.0,-259.0,0
2619,-24.0,11.0,-257.0,0
2620,-24.0,9.0,-255.0,0
2621,-24.0,11.0,-256.0,0
2622,-22.0,10.0,-255.0,0
2623,-22.0,10.0,-259.0,0
2624,-22.0,8.0,-258.0,0
2625,-25.0,12.0,-258.0,0
2626,-21.0,8.0,-257.0,0
2627,-20.0,14.0,-256.0,0
2628,-22.0,11.0,-256.0,0
2629,-20.0,10.0,-253.0,0
2630,-22.0,11.0,-254.0,0
2631,-20.0,9.0,-255.0,0
2632,-23.0,9.0,-257.0,0
2633,-23.0,9.0,-255.0,0
2634,-20.0,8.0,-256.0,0
2635,-22.0,9.0,-261.0,0
2636,-21.0,5.0,-256.0,0
2637,-24.0,8.0,-255.0,0
2638,-23.0,7.0,-255.0,0
2639,-24.0,11.0,-256.0,0
2640,-25.0,11.0,-257.0,0
2641,-24.0,9.0,-258.0,0
2642,-26.0,8.0,-257.0,0
2643,-21.0,12.0,-254.0,0
2644,-20.0,9.0,-259.0,0
2645,-23.0,10.0,-255.0,0
2646,-21.0,11.0,-255.0,0
2647,-22.0,9.0,-254.0,0
2648,-18.0,5.0,-258.0,0
2649,-22.0,8.0,-256.0,0
2650,-22.0,7.0,-254.0,0
2651,-25.0,8.0,-256.0,0
2652,-25.0,10.0,-254.0,0
2653,-24.0,11.0,-257.0,0
2654,-21.0,11.0,-257.0,0
2655,-23.0,9.0,-257.0,0
2656,-23.0,10.0,-256.0,0
2657,-23.0,10.0,-257.0,0
2658,-22.0,13.0,-257.0,0
2659,-18.0,8.0,-255.0,0
2660,-23.0,10.0,-257.0,0
2661,-21.0,9.0,-253.0,0
2662,-24.0,10.0,-255.0,0
2663,-21.0,9.0,-257.0,0
2664,-22.0,8.0,-256.0,0
2665,-22.0,9.0,-257.0,0
2666,-24.0,12.0,-258.0,0
2667,-22.0,9.0,-261.0,0
2668,-23.0,8.0,-252.0,0
2669,-27.0,9.0,-260.0,0
2670,-16.0,9.0,-254.0,0
2671,-22.0,9.0,-257.0,0
2672,-22.0,6.0,-255.0,0
2673,-24.0,11.0,-261.0,0
2674,-25.0,10.0,-261.0,0
2675,-21.0,7.0,-258.0,0
2676,-23.0,9.0,-259.0,0
2677,-22.0,12.0,-257.0,0
2678,-25.0,9.0,-253.0,0
2679,-23.0,10.0,-255.0,0
2680,-24.0,8.0,-256.0,0
2681,-22.0,7.0,-258.0,0
2682,-21.0,10.0,-256.0,0
2683,-23.0,9.0,-257.0,0
2684,-25.0,11.0,-260.0,0
2685,-23.0,9.0,-255.0,0
2686,-21.0,8.0,-258.0,0
2687,-23.0,7.0,-258.0,0
2688,-20.0,9.0,-256.0,0
2689,-24.0,12.0,-256.0,0
2690,-23.0,9.0,-257.0,0
2691,-21.0,6.0,-260.0,0
2692,-22.0,10.0,-253.0,0
2693,-23.0,13.0,-256.0,0
2694,-21.0,9.0,-253.0,0
2695,-23.0,9.0,-256.0,0
2696,-21.0,9.0,-256.0,0
2697,-22.0,9.0,-256.0,0
2698,-20.0,7.0,-256.0,0
2699,-21.0,5.0,-258.0,0
2700,-22.0,7.0,-252.0,0
2701,-26.0,13.0,-259.0,0
2702,-23.0,6.0,-254.0,0
2703,-26.0,9.0,-257.0,0
2704,-22.0,9.0,-255.0,0
2705,-23.0,8.0,-256.0,0
2706,-21.0,10.0,-253.0,0
2707,-24.0,10.0,-255.0,0
2708,-21.0,6.0,-257.0,0
2709,-21.0,9.0,-252.0,0
2710,-22.0,9.0,-257.0,0
2711,-24.0,7.0,-258.0,0
2712,-22.0,11.0,-264.0,0
2713,-22.0,9.0,-260.0,0
2714,-23.0,9.0,-256.0,0
2715,-21.0,10.0,-254.0,0
2716,-22.0,11.0,-257.0,0
2717,-21.0,11.0,-256.0,0
2718,-23.0,9.0,-259.0,0
2719,-24.0,12.0,-256.0,0
2720,-23.0,10.0,-256.0,0
2721,-20.0,7.0,-253.0,0
2722,-19.0,8.0,-252.0,0
2723,-28.0,7.0,-257.0,0
2724,-25.0,12.0,-256.0,0
2725,-22.0,8.0,-256.0,0
2726,-22.0,6.0,-258.0,0
2727,-21.0,7.0,-258.0,0
2728,-24.0,11.0,-257.0,0
2729,-21.0,7.0,-256.0,0
2730,-23.0,10.0,-254.0,0
2731,-22.0,7.0,-256.0,0
2732,-25.0,10.0,-258.0,0
2733,-24.0,10.0,-257.0,0
2734,-22.0,9.0,-259.0,0
2735,-21.0,11.0,-256.0,0
2736,-23.0,9.0,-256.0,0
2737,-20.0,10.0,-254.0,0
2738,-22.0,11.0,-259.0,0
2739,-22.0,8.0,-258.0,0
2740,-24.0,10.0,-256.0,0
2741,-21.0,11.0,-257.0,0
2742,-21.0,9.0,-252.0,0
2743,-25.0,9.0,-256.0,0
2744,-19.0,9.0,-252.0,0
2745,-22.0,9.0,-255.0,0
2746,-24.0,6.0,-257.0,0
2747,-25.0,10.0,-255.0,0
2748,-21.0,6.0,-256.0,0
2749,-22.0,9.0,-259.0,0
2750,-22.0,7.0,-254.0,0
2751,-23.0,10.0,-253.0,0
2752,-22.0,8.0,-250.0,0
2753,-23.0,6.0,-257.0,0
2754,-20.0,8.0,-252.0,0
2755,-22.0,9.0,-261.0,0
2756,-23.0,9.0,-256.0,0
2757,-21.0,7.0,-259.0,0
2758,-22.0,9.0,-254.0,0
2759,-24.0,9.0,-255.0,0
2760,-26.0,6.0,-253.0,0
2761,-20.0,9.0,-256.0,0
2762,-22.0,11.0,-259.0,0
2763,-24.0,10.0,-251.0,0
2764,-24.0,10.0,-255.0,0
2765,-23.0,10.0,-257.0,0
2766,-25.0,8.0,-257.0,0
2767,-24.0,8.0,-254.0,0
2768,-22.0,12.0,-257.0,0
2769,-21.0,12.0,-255.0,0
2770,-24.0,9.0,-257.0,0
2771,-22.0,11.0,-256.0,0
2772,-22.0,8.0,-254.0,0
2773,-16.0,6.0,-256.0,0
2774,-23.0,8.0,-259.0,0
2775,-22.0,10.0,-256.0,0
2776,-23.0,9.0,-259.0,0
2777,-22.0,7.0,-255.0,0
2778,-24.0,7.0,-255.0,0
2779,-21.0,8.0,-256.0,0
2780,-23.0,9.0,-255.0,0
2781,-21.0,9.0,-253.0,0
2782,-23.0,12.0,-258.0,0
2783,-22.0,8.0,-258.0,0
2784,-24.0,10.0,-255.0,0
2785,-23.0,10.0,-253.0,0
2786,-24.0,8.0,-257.0,0
2787,-20.0,8.0,-255.0,0
2788,-22.0,11.0,-254.0,0
2789,-22.0,9.0,-258.0,0
2790,-23.0,9.0,-252.0,0
2791,-22.0,12.0,-256.0,0
2792,-25.0,9.0,-255.0,0
2793,-23.0,5.0,-254.0,0
2794,-24.0,7.0,-259.0,0
2795,-28.0,13.0,-256.0,0
2796,-17.0,11.0,-255.0,0
2797,-22.0,12.0,-259.0,0
2798,-22.0,6.0,-261.0,0
2799,-23.0,9.0,-260.0,0
2800,-20.0,9.0,-261.0,0
2801,-24.0,8.0,-258.0,0
2802,-23.0,9.0,-258.0,0
2803,-21.0,7.0,-256.0,0
2804,-24.0,7.0,-260.0,0
2805,-25.0,8.0,-258.0,0
2806,-23.0,8.0,-258.0,0
2807,-21.0,9.0,-255.0,0
2808,-24.0,10.0,-250.0,0
2809,-24.0,9.0,-258.0,0
2810,-23.0,10.0,-254.0,0
2811,-20.0,8.0,-257.0,0
2812,-23.0,10.0,-256.0,0
2813,-21.0,9.0,-256.0,0
2814,-22.0,9.0,-257.0,0
2815,-21.0,7.0,-255.0,0
2816,-24.0,11.0,-257.0,0
2817,-20.0,9.0,-255.0,0
2818,-22.0,10.0,-256.0,0
2819,-27.0,8.0,-256.0,0
2820,-21.0,6.0,-256.0,0
2821,-22.0,10.0,-259.0,0
2822,-21.0,10.0,-257.0,0
2823,-23.0,9.0,-255.0,0
2824,-23.0,10.0,-260.0,0
2825,-21.0,7.0,-259.0,0
2826,-23.0,11.0,-259.0,0
2827,-25.0,10.0,-257.0,0
2828,-26.0,9.0,-257.0,0
2829,-21.0,8.0,-254.0,0
2830,-25.0,7.0,-260.0,0
2831,-22.0,8.0,-255.0,0
2832,-24.0,9.0,-255.0,0
2833,-22.0,9.0,-256.0,0
2834,-22.0,10.0,-256.0,0
2835,-24.0,9.0,-256.0,0
2836,-19.0,11.0,-257.0,0
2837,-23.0,10.0,-256.0,0
2838,-21.0,8.0,-258.0,0
2839,-23.0,10.0,-254.0,0
2840,-25.0,11.0,-259.0,0
2841,-23.0,11.0,-256.0,0
2842,-22.0,7.0,-256.0,0
2843,-22.0,9.0,-257.0,0
2844,-23.0,11.0,-257.0,0
2845,-24.0,9.0,-257.0,0
2846,-20.0,7.0,-258.0,0
2847,-20.0,8.0,-255.0,0
2848,-22.0,11.0,-261.0,0
2849,-22.0,10.0,-254.0,0
2850,-20.0,6.0,-257.0,0
2851,-27.0,4.0,-259.0,0
2852,-22.0,8.0,-256.0,0
2853,-25.0,10.0,-258.0,0
2854,-24.0,11.0,-256.0,0
2855,-22.0,8.0,-257.0,0
2856,-24.0,9.0,-261.0,0
2857,-24.0,11.0,-257.0,0
2858,-21.0,10.0,-256.0,0
2859,-22.0,5.0,-255.0,0
2860,-21.0,9.0,-258.0,0
2861,-20.0,12.0,-257.0,0
2862,-26.0,6.0,-255.0,0
2863,-22.0,12.0,-254.0,0
2864,-23.0,10.0,-253.0,0
2865,-21.0,7.0,-257.0,0
2866,-21.0,8.0,-254.0,0
2867,-23.0,11.0,-258.0,0
2868,-23.0,11.0,-257.0,0
2869,-21.0,9.0,-253.0,0
2870,-23.0,7.0,-258.0,0
2871,-23.0,12.0,-254.0,0
2872,-17.0,9.0,-258.0,0
2873,-21.0,8.0,-256.0,0
2874,-23.0,10.0,-255.0,0
2875,-23.0,11.0,-256.0,0
2876,-23.0,11.0,-256.0,0
2877,-23.0,8.0,-255.0,0
2878,-24.0,12.0,-258.0,0
2879,-22.0,8.0,-260.0,0
2880,-20.0,7.0,-256.0,0
2881,-22.0,9.0,-259.0,0
2882,-18.0,7.0,-255.0,0
2883,-26.0,10.0,-261.0,0
2884,-23.0,8.0,-253.0,0
2885,-22.0,9.0,-259.0,0
2886,-21.0,8.0,-256.0,0
2887,-23.0,8.0,-256.0,0
2888,-23.0,12.0,-254.0,0
2889,-25.0,11.0,-253.0,0
2890,-23.0,6.0,-260.0,0
2891,-24.0,7.0,-253.0,0
2892,-23.0,8.0,-258.0,0
2893,-22.0,7.0,-254.0,0
2894,-19.0,7.0,-254.0,0
2895,-24.0,9.0,-258.0,0
2896,-22.0,9.0,-256.0,0
2897,-24.0,8.0,-254.0,0
2898,-22.0,8.0,-256.0,0
2899,-22.0,10.0,-254.0,0
2900,-23.0,9.0,-258.0,0
2901,-23.0,10.0,-257.0,0
2902,-22.0,7.0,-252.0,0
2903,-24.0,8.0,-259.0,0
2904,-26.0,10.0,-254.0,0
2905,-21.0,9.0,-257.0,0
2906,-23.0,10.0,-254.0,0
2907,-22.0,13.0,-254.0,0
2908,-19.0,7.0,-256.0,0
2909,-23.0,12.0,-256.0,0
2910,-21.0,8.0,-259.0,0
2911,-22.0,10.0,-254.0,0
2912,-24.0,10.0,-255.0,0
2913,-23.0,10.0,-258.0,0
2914,-19.0,9.0,-254.0,0
2915,-22.0,7.0,-249.0,0
2916,-24.0,8.0,-256.0,0
2917,-24.0,8.0,-252.0,0
2918,-20.0,8.0,-255.0,0
2919,-22.0,12.0,-254.0,0
2920,-25.0,12.0,-255.0,0
2921,-23.0,8.0,-259.0,0
2922,-24.0,7.0,-256.0,0
2923,-21.0,10.0,-260.0,0
2924,-21.0,13.0,-257.0,0
2925,-20.0,9.0,-251.0,0
2926,-26.0,5.0,-258.0,0
2927,-23.0,7.0,-256.0,0
2928,-21.0,7.0,-254.0,0
2929,-22.0,8.0,-259.0,0
2930,-22.0,10.0,-255.0,0
2931,-21.0,10.0,-256.0,0
2932,-21.0,7.0,-257.0,0
2933,-21.0,13.0,-256.0,0
2934,-19.0,9.0,-256.0,0
2935,-19.0,10.0,-256.0,0
2936,-22.0,11.0,-254.0,0
2937,-21.0,12.0,-255.0,0
2938,-21.0,5.0,-255.0,0
2939,-21.0,7.0,-256.0,0
2940,-22.0,7.0,-259.0,0
2941,-22.0,11.0,-254.0,0
2942,-25.0,9.0,-255.0,0
2943,-26.0,11.0,-255.0,0
2944,-23.0,8.0,-257.0,0
2945,-23.0,10.0,-255.0,0
2946,-21.0,7.0,-255.0,0
2947,-11.0,7.0,-260.0,0
2948,-21.0,10.0,-257.0,0
2949,-21.0,10.0,-253.0,0
2950,-24.0,11.0,-255.0,0
2951,-24.0,9.0,-254.0,0
2952,-21.0,7.0,-253.0,0
2953,-21.0,10.0,-256.0,0
2954,-21.0,6.0,-256.0,0
2955,-24.0,7.0,-258.0,0
2956,-22.0,12.0,-255.0,0
2957,-21.0,12.0,-254.0,0
2958,-28.0,6.0,-254.0,0
2959,-22.0,9.0,-260.0,0
2960,-23.0,11.0,-257.0,0
2961,-25.0,10.0,-254.0,0
2962,-21.0,10.0,-256.0,0
2963,-22.0,9.0,-258.0,0
2964,-24.0,12.0,-256.0,0
2965,-23.0,6.0,-260.0,0
2966,-18.0,10.0,-258.0,0
2967,-23.0,11.0,-253.0,0
2968,-20.0,6.0,-258.0,0
2969,-20.0,12.0,-256.0,0
2970,-20.0,11.0,-255.0,0
2971,-23.0,9.0,-255.0,0
2972,-21.0,8.0,-254.0,0
2973,-21.0,8.0,-255.0,0
2974,-22.0,8.0,-258.0,0
2975,-23.0,7.0,-254.0,0
2976,-24.0,11.0,-255.0,0
2977,-21.0,7.0,-256.0,0
2978,-25.0,9.0,-254.0,0
2979,-25.0,6.0,-257.0,0
2980,-24.0,7.0,-256.0,0
2981,-21.0,11.0,-260.0,0
2982,-21.0,7.0,-255.0,0
2983,-23.0,11.0,-253.0,0
2984,-24.0,10.0,-258.0,0
2985,-23.0,8.0,-256.0,0
2986,-22.0,8.0,-257.0,0
2987,-23.0,10.0,-256.0,0
2988,-23.0,10.0,-260.0,0
2989,-24.0,12.0,-256.0,0
2990,-24.0,11.0,-253.0,0
2991,-24.0,11.0,-252.0,0
2992,-23.0,10.0,-254.0,0
2993,-20.0,10.0,-258.0,0
2994,-21.0,8.0,-258.0,0
2995,-23.0,10.0,-259.0,0
2996,-24.0,9.0,-256.0,0
2997,-23.0,9.0,-255.0,0
2998,-22.0,5.0,-260.0,0
2999,-24.0,8.0,-256.0,0
