,accelerometer_x,accelerometer_y,accelerometer_z,fall
0,6.0,-17.0,241.0,0
1,0.0,-15.0,240.0,0
2,5.0,-17.0,242.0,0
3,4.0,-15.0,242.0,0
4,4.0,-15.0,241.0,0
5,7.0,-15.0,243.0,0
6,3.0,-12.0,241.0,0
7,0.0,-14.0,241.0,0
8,2.0,-11.0,243.0,0
9,3.0,-12.0,244.0,0
10,1.0,-15.0,242.0,0
11,1.0,-15.0,242.0,0
12,8.0,-14.0,245.0,0
13,5.0,-12.0,240.0,0
14,4.0,-13.0,243.0,0
15,3.0,-13.0,243.0,0
16,2.0,-10.0,241.0,0
17,3.0,-16.0,243.0,0
18,3.0,-12.0,242.0,0
19,5.0,-11.0,242.0,0
20,4.0,-12.0,243.0,0
21,2.0,-12.0,241.0,0
22,-2.0,-11.0,237.0,0
23,0.0,-19.0,240.0,0
24,5.0,-12.0,238.0,0
25,-5.0,-12.0,241.0,0
26,3.0,-8.0,244.0,0
27,2.0,-14.0,236.0,0
28,6.0,-15.0,246.0,0
29,-6.0,-10.0,232.0,0
30,7.0,-6.0,253.0,0
31,6.0,-13.0,239.0,0
32,9.0,-7.0,238.0,0
33,0.0,-20.0,240.0,0
34,6.0,-15.0,244.0,0
35,-3.0,-20.0,237.0,0
36,2.0,-8.0,243.0,0
37,1.0,-12.0,246.0,0
38,1.0,-5.0,236.0,0
39,-2.0,-11.0,249.0,0
40,5.0,-11.0,243.0,0
41,4.0,-9.0,244.0,0
42,1.0,-6.0,244.0,0
43,4.0,-11.0,242.0,0
44,0.0,-11.0,246.0,0
45,3.0,-12.0,246.0,0
46,7.0,-9.0,240.0,0
47,5.0,-9.0,242.0,0
48,4.0,-12.0,241.0,0
49,3.0,-12.0,239.0,0
50,5.0,-10.0,242.0,0
51,4.0,-10.0,241.0,0
52,4.0,-5.0,242.0,0
53,3.0,-7.0,245.0,0
54,4.0,-6.0,245.0,0
55,5.0,-8.0,243.0,0
56,3.0,-4.0,242.0,0
57,5.0,-6.0,245.0,0
58,1.0,-7.0,246.0,0
59,2.0,-8.0,242.0,0
60,4.0,-9.0,241.0,0
61,5.0,-10.0,243.0,0
62,4.0,-6.0,246.0,0
63,3.0,-8.0,241.0,0
64,0.0,-5.0,243.0,0
65,3.0,-5.0,241.0,0
66,6.0,-6.0,240.0,0
67,3.0,-5.0,241.0,0
68,4.0,-5.0,243.0,0
69,2.0,-7.0,244.0,0
70,4.0,-7.0,239.0,0
71,3.0,-9.0,240.0,0
72,2.0,-6.0,248.0,0
73,2.0,-8.0,244.0,0
74,4.0,-7.0,244.0,0
75,2.0,-9.0,241.0,0
76,1.0,-5.0,243.0,0
77,4.0,-7.0,244.0,0
78,4.0,-6.0,245.0,0
79,2.0,-8.0,246.0,0
80,4.0,-4.0,242.0,0
81,4.0,-5.0,243.0,0
82,2.0,-5.0,244.0,0
83,4.0,-5.0,242.0,0
84,2.0,-4.0,240.0,0
85,6.0,-5.0,240.0,0
86,1.0,-4.0,243.0,0
87,7.0,-4.0,249.0,0
88,4.0,-2.0,243.0,0
89,2.0,-3.0,244.0,0
90,1.0,-2.0,240.0,0
91,4.0,-1.0,244.0,0
92,3.0,-3.0,246.0,0
93,3.0,-3.0,244.0,0
94,4.0,-4.0,245.0,0
95,2.0,-4.0,245.0,0
96,3.0,-6.0,246.0,0
97,3.0,-3.0,245.0,0
98,2.0,-5.0,241.0,0
99,3.0,-4.0,243.0,0
100,6.0,-4.0,246.0,0
101,5.0,-4.0,239.0,0
102,1.0,-4.0,241.0,0
103,4.0,-4.0,243.0,0
104,2.0,-4.0,244.0,0
105,1.0,-3.0,245.0,0
106,5.0,-4.0,245.0,0
107,4.0,-7.0,243.0,0
108,4.0,-4.0,242.0,0
109,4.0,-4.0,243.0,0
110,8.0,-4.0,242.0,0
111,3.0,-4.0,244.0,0
112,4.0,-5.0,244.0,0
113,4.0,-4.0,243.0,0
114,2.0,-2.0,240.0,0
115,4.0,-3.0,244.0,0
116,3.0,-3.0,244.0,0
117,4.0,-4.0,240.0,0
118,2.0,-4.0,241.0,0
119,2.0,-5.0,241.0,0
120,4.0,-3.0,242.0,0
121,3.0,-3.0,243.0,0
122,4.0,-4.0,241.0,0
123,4.0,-5.0,249.0,0
124,1.0,-4.0,241.0,0
125,2.0,-4.0,246.0,0
126,1.0,-2.0,246.0,0
127,3.0,-3.0,242.0,0
128,5.0,-3.0,244.0,0
129,5.0,-4.0,241.0,0
130,1.0,-3.0,241.0,0
131,3.0,-4.0,240.0,0
132,3.0,-4.0,244.0,0
133,5.0,-4.0,243.0,0
134,3.0,-4.0,244.0,0
135,5.0,-4.0,246.0,0
136,3.0,-2.0,244.0,0
137,3.0,-4.0,241.0,0
138,1.0,-4.0,245.0,0
139,0.0,-4.0,243.0,0
140,2.0,-4.0,245.0,0
141,2.0,-1.0,246.0,0
142,2.0,-2.0,244.0,0
143,1.0,-3.0,243.0,0
144,1.0,-2.0,241.0,0
145,4.0,-4.0,242.0,0
146,5.0,-2.0,245.0,0
147,0.0,-4.0,240.0,0
148,3.0,-5.0,244.0,0
149,4.0,-4.0,241.0,0
150,4.0,-4.0,245.0,0
151,4.0,-2.0,247.0,0
152,5.0,0.0,239.0,0
153,2.0,-4.0,245.0,0
154,4.0,-4.0,241.0,0
155,3.0,-4.0,245.0,0
156,3.0,-4.0,244.0,0
157,2.0,-4.0,241.0,0
158,2.0,-3.0,246.0,0
159,3.0,-4.0,244.0,0
160,2.0,-3.0,246.0,0
161,4.0,-2.0,246.0,0
162,3.0,-4.0,243.0,0
163,4.0,-4.0,241.0,0
164,3.0,-4.0,244.0,0
165,6.0,-4.0,241.0,0
166,3.0,-5.0,241.0,0
167,3.0,-2.0,243.0,0
168,5.0,-4.0,245.0,0
169,2.0,-3.0,242.0,0
170,6.0,-4.0,244.0,0
171,2.0,-4.0,245.0,0
172,4.0,-4.0,246.0,0
173,2.0,-3.0,243.0,0
174,4.0,-4.0,244.0,0
175,6.0,-5.0,245.0,0
176,4.0,-4.0,244.0,0
177,7.0,-4.0,243.0,0
178,0.0,-3.0,244.0,0
179,3.0,-4.0,243.0,0
180,4.0,-4.0,242.0,0
181,2.0,-3.0,244.0,0
182,1.0,-4.0,242.0,0
183,4.0,-5.0,244.0,0
184,1.0,-4.0,243.0,0
185,3.0,-5.0,245.0,0
186,4.0,-4.0,247.0,0
187,3.0,-4.0,245.0,0
188,4.0,-4.0,241.0,0
189,4.0,-4.0,243.0,0
190,4.0,-4.0,244.0,0
191,2.0,-4.0,243.0,0
192,4.0,-4.0,246.0,0
193,3.0,-4.0,246.0,0
194,6.0,-5.0,242.0,0
195,1.0,-3.0,242.0,0
196,3.0,-4.0,245.0,0
197,6.0,-6.0,237.0,0
198,5.0,-5.0,242.0,0
199,4.0,-5.0,245.0,0
200,5.0,-5.0,245.0,0
201,3.0,-5.0,244.0,0
202,2.0,-7.0,243.0,0
203,1.0,-5.0,241.0,0
204,1.0,-4.0,244.0,0
205,3.0,-6.0,244.0,0
206,3.0,-5.0,243.0,0
207,2.0,-4.0,243.0,0
208,5.0,-4.0,245.0,0
209,2.0,-4.0,247.0,0
210,7.0,-8.0,245.0,0
211,3.0,-4.0,242.0,0
212,3.0,-9.0,241.0,0
213,4.0,-7.0,243.0,0
214,4.0,-4.0,244.0,0
215,2.0,-4.0,246.0,0
216,3.0,-7.0,247.0,0
217,2.0,-5.0,243.0,0
218,3.0,-5.0,244.0,0
219,0.0,-4.0,242.0,0
220,4.0,-6.0,242.0,0
221,2.0,-6.0,245.0,0
222,4.0,-7.0,245.0,0
223,2.0,-9.0,241.0,0
224,3.0,-7.0,243.0,0
225,3.0,-10.0,243.0,0
226,5.0,-10.0,242.0,0
227,4.0,-5.0,247.0,0
228,1.0,-7.0,246.0,0
229,5.0,-5.0,244.0,0
230,5.0,-5.0,244.0,0
231,6.0,-8.0,241.0,0
232,7.0,-7.0,244.0,0
233,3.0,-6.0,246.0,0
234,6.0,-5.0,246.0,0
235,7.0,-7.0,243.0,0
236,5.0,-4.0,246.0,0
237,5.0,-6.0,241.0,0
238,2.0,-5.0,244.0,0
239,3.0,-5.0,242.0,0
240,2.0,-7.0,242.0,0
241,4.0,-12.0,246.0,0
242,5.0,-7.0,247.0,0
243,5.0,-6.0,243.0,0
244,4.0,-9.0,243.0,0
245,4.0,-9.0,245.0,0
246,2.0,-10.0,241.0,0
247,6.0,-10.0,241.0,0
248,5.0,-10.0,244.0,0
249,4.0,-11.0,241.0,0
250,3.0,-16.0,239.0,0
251,8.0,-11.0,244.0,0
252,7.0,-15.0,244.0,0
253,5.0,-15.0,242.0,0
254,3.0,-14.0,243.0,0
255,6.0,-15.0,243.0,0
256,7.0,-18.0,242.0,0
257,5.0,-14.0,242.0,0
258,5.0,-17.0,240.0,0
259,4.0,-15.0,246.0,0
260,6.0,-14.0,244.0,0
261,5.0,-13.0,243.0,0
262,4.0,-17.0,242.0,0
263,4.0,-16.0,242.0,0
264,6.0,-16.0,243.0,0
265,4.0,-11.0,244.0,0
266,7.0,-15.0,241.0,0
267,3.0,-16.0,243.0,0
268,4.0,-14.0,243.0,0
269,3.0,-17.0,241.0,0
270,5.0,-17.0,242.0,0
271,5.0,-15.0,245.0,0
272,3.0,-13.0,239.0,0
273,6.0,-16.0,246.0,0
274,6.0,-16.0,241.0,0
275,6.0,-16.0,243.0,0
276,3.0,-17.0,246.0,0
277,8.0,-17.0,243.0,0
278,3.0,-19.0,240.0,0
279,7.0,-21.0,243.0,0
280,5.0,-19.0,243.0,0
281,5.0,-19.0,243.0,0
282,5.0,-20.0,244.0,0
283,6.0,-20.0,241.0,0
284,6.0,-22.0,237.0,0
285,6.0,-20.0,245.0,0
286,7.0,-23.0,238.0,0
287,7.0,-19.0,242.0,0
288,6.0,-24.0,241.0,0
289,5.0,-23.0,244.0,0
290,6.0,-22.0,243.0,0
291,6.0,-21.0,245.0,0
292,7.0,-24.0,244.0,0
293,4.0,-22.0,240.0,0
294,4.0,-26.0,241.0,0
295,5.0,-22.0,239.0,0
296,2.0,-23.0,238.0,0
297,7.0,-21.0,239.0,0
298,6.0,-25.0,244.0,0
299,4.0,-25.0,241.0,0
300,5.0,-25.0,241.0,0
301,6.0,-25.0,238.0,0
302,6.0,-24.0,240.0,0
303,6.0,-26.0,239.0,0
304,9.0,-27.0,241.0,0
305,6.0,-26.0,238.0,0
306,6.0,-29.0,239.0,0
307,7.0,-26.0,235.0,0
308,8.0,-29.0,235.0,0
309,11.0,-29.0,237.0,0
310,6.0,-28.0,237.0,0
311,7.0,-28.0,239.0,0
312,5.0,-28.0,237.0,0
313,5.0,-24.0,237.0,0
314,7.0,-27.0,240.0,0
315,7.0,-26.0,233.0,0
316,6.0,-28.0,236.0,0
317,6.0,-26.0,238.0,0
318,5.0,-26.0,235.0,0
319,8.0,-27.0,237.0,0
320,6.0,-25.0,237.0,0
321,6.0,-25.0,235.0,0
322,8.0,-24.0,235.0,0
323,3.0,-25.0,237.0,0
324,9.0,-25.0,236.0,0
325,10.0,-26.0,233.0,0
326,7.0,-22.0,239.0,0
327,5.0,-25.0,237.0,0
328,4.0,-24.0,239.0,0
329,4.0,-24.0,236.0,0
330,5.0,-27.0,239.0,0
331,5.0,-25.0,241.0,0
332,9.0,-24.0,241.0,0
333,4.0,-24.0,237.0,0
334,7.0,-26.0,240.0,0
335,7.0,-25.0,242.0,0
336,4.0,-23.0,242.0,0
337,5.0,-23.0,242.0,0
338,6.0,-22.0,242.0,0
339,7.0,-19.0,241.0,0
340,4.0,-20.0,245.0,0
341,6.0,-21.0,245.0,0
342,7.0,-19.0,243.0,0
343,9.0,-20.0,242.0,0
344,8.0,-21.0,246.0,0
345,7.0,-18.0,242.0,0
346,4.0,-16.0,240.0,0
347,5.0,-21.0,241.0,0
348,6.0,-19.0,247.0,0
349,6.0,-14.0,243.0,0
350,7.0,-18.0,244.0,0
351,5.0,-17.0,244.0,0
352,5.0,-16.0,239.0,0
353,4.0,-18.0,239.0,0
354,7.0,-16.0,238.0,0
355,7.0,-18.0,244.0,0
356,7.0,-18.0,245.0,0
357,5.0,-18.0,244.0,0
358,5.0,-17.0,243.0,0
359,5.0,-20.0,245.0,0
360,6.0,-20.0,242.0,0
361,5.0,-22.0,240.0,0
362,4.0,-20.0,242.0,0
363,4.0,-21.0,243.0,0
364,5.0,-23.0,242.0,0
365,3.0,-21.0,242.0,0
366,4.0,-22.0,243.0,0
367,6.0,-23.0,243.0,0
368,5.0,-25.0,240.0,0
369,6.0,-23.0,238.0,0
370,4.0,-21.0,241.0,0
371,5.0,-24.0,239.0,0
372,7.0,-23.0,240.0,0
373,3.0,-21.0,238.0,0
374,5.0,-20.0,237.0,0
375,5.0,-22.0,239.0,0
376,4.0,-18.0,242.0,0
377,7.0,-21.0,245.0,0
378,5.0,-19.0,243.0,0
379,7.0,-16.0,242.0,0
380,4.0,-15.0,240.0,0
381,5.0,-15.0,242.0,0
382,20.0,-11.0,253.0,0
383,5.0,-15.0,254.0,0
384,2.0,-16.0,262.0,0
385,2.0,-17.0,264.0,0
386,2.0,-14.0,269.0,0
387,0.0,-14.0,269.0,0
388,1.0,-5.0,268.0,0
389,-2.0,-6.0,272.0,0
390,-2.0,-6.0,279.0,0
391,-2.0,-3.0,281.0,0
392,0.0,0.0,284.0,0
393,2.0,1.0,286.0,0
394,-1.0,2.0,285.0,0
395,1.0,8.0,280.0,0
396,4.0,5.0,276.0,0
397,0.0,2.0,272.0,0
398,6.0,-4.0,271.0,0
399,8.0,-10.0,269.0,0
400,9.0,-18.0,269.0,0
401,12.0,-25.0,268.0,0
402,15.0,-37.0,267.0,0
403,17.0,-47.0,260.0,0
404,15.0,-54.0,259.0,0
405,19.0,-59.0,250.0,0
406,24.0,-60.0,283.0,0
407,11.0,-60.0,224.0,0
408,8.0,-60.0,211.0,0
409,6.0,-67.0,206.0,0
410,2.0,-64.0,201.0,0
411,-3.0,-65.0,190.0,0
412,-3.0,-62.0,186.0,0
413,-6.0,-57.0,183.0,0
414,0.0,-56.0,183.0,0
415,-5.0,-51.0,190.0,0
416,-5.0,-51.0,196.0,0
417,-4.0,-51.0,208.0,0
418,-1.0,-56.0,220.0,0
419,-3.0,-52.0,226.0,0
420,0.0,-51.0,234.0,0
421,2.0,-45.0,240.0,0
422,3.0,-43.0,241.0,0
423,4.0,-41.0,235.0,0
424,4.0,-38.0,232.0,0
425,0.0,-39.0,233.0,0
426,-8.0,-36.0,235.0,0
427,-9.0,-44.0,240.0,0
428,-9.0,-48.0,243.0,0
429,-5.0,-56.0,252.0,0
430,-3.0,-52.0,249.0,0
431,1.0,-54.0,247.0,0
432,4.0,-54.0,242.0,0
433,4.0,-55.0,238.0,0
434,8.0,-52.0,232.0,0
435,8.0,-50.0,235.0,0
436,7.0,-49.0,233.0,0
437,9.0,-53.0,237.0,0
438,10.0,-49.0,231.0,0
439,14.0,-52.0,230.0,0
440,20.0,-57.0,230.0,0
441,29.0,-60.0,230.0,0
442,32.0,-65.0,227.0,0
443,35.0,-66.0,226.0,0
444,39.0,-69.0,224.0,0
445,43.0,-69.0,221.0,0
446,41.0,-68.0,217.0,0
447,44.0,-69.0,220.0,0
448,39.0,-67.0,220.0,0
449,38.0,-67.0,222.0,0
450,39.0,-68.0,228.0,0
451,37.0,-68.0,231.0,0
452,33.0,-69.0,230.0,0
453,32.0,-68.0,226.0,0
454,29.0,-70.0,225.0,0
455,25.0,-68.0,226.0,0
456,23.0,-65.0,229.0,0
457,22.0,-66.0,229.0,0
458,17.0,-64.0,227.0,0
459,16.0,-69.0,226.0,0
460,13.0,-70.0,218.0,0
461,14.0,-73.0,216.0,0
462,13.0,-76.0,220.0,0
463,16.0,-77.0,223.0,0
464,17.0,-77.0,220.0,0
465,16.0,-77.0,219.0,0
466,18.0,-75.0,223.0,0
467,15.0,-73.0,223.0,0
468,16.0,-69.0,228.0,0
469,19.0,-74.0,229.0,0
470,18.0,-70.0,231.0,0
471,14.0,-69.0,235.0,0
472,17.0,-72.0,229.0,0
473,15.0,-76.0,225.0,0
474,14.0,-78.0,223.0,0
475,11.0,-80.0,218.0,0
476,7.0,-84.0,218.0,0
477,7.0,-87.0,216.0,0
478,8.0,-90.0,214.0,0
479,7.0,-93.0,212.0,0
480,8.0,-97.0,209.0,0
481,6.0,-100.0,211.0,0
482,9.0,-106.0,207.0,0
483,7.0,-107.0,206.0,0
484,4.0,-110.0,206.0,0
485,-1.0,-116.0,212.0,0
486,-4.0,-122.0,211.0,0
487,-10.0,-121.0,221.0,0
488,-13.0,-126.0,215.0,0
489,-17.0,-122.0,216.0,0
490,-27.0,-120.0,212.0,0
491,-33.0,-115.0,212.0,0
492,-38.0,-119.0,212.0,0
493,-47.0,-114.0,212.0,0
494,-52.0,-114.0,211.0,0
495,-58.0,-112.0,215.0,0
496,-57.0,-113.0,208.0,0
497,-60.0,-110.0,207.0,0
498,-61.0,-111.0,207.0,0
499,-56.0,-111.0,210.0,0
500,-57.0,-111.0,208.0,0
501,-52.0,-114.0,209.0,0
502,-49.0,-114.0,213.0,0
503,-49.0,-113.0,209.0,0
504,-48.0,-110.0,214.0,0
505,-42.0,-110.0,217.0,0
506,-42.0,-111.0,217.0,0
507,-38.0,-108.0,218.0,0
508,-36.0,-109.0,216.0,0
509,-31.0,-106.0,223.0,0
510,-26.0,-105.0,221.0,0
511,-21.0,-104.0,222.0,0
512,-14.0,-103.0,224.0,0
513,-13.0,-95.0,221.0,0
514,-9.0,-94.0,222.0,0
515,-2.0,-96.0,224.0,0
516,1.0,-86.0,226.0,0
517,4.0,-86.0,225.0,0
518,4.0,-82.0,226.0,0
519,9.0,-80.0,221.0,0
520,10.0,-78.0,227.0,0
521,13.0,-76.0,228.0,0
522,12.0,-71.0,231.0,0
523,18.0,-67.0,233.0,0
524,20.0,-65.0,239.0,0
525,20.0,-60.0,242.0,0
526,13.0,-55.0,238.0,0
527,15.0,-51.0,242.0,0
528,8.0,-50.0,247.0,0
529,11.0,-49.0,248.0,0
530,8.0,-44.0,250.0,0
531,11.0,-50.0,251.0,0
532,10.0,-43.0,249.0,0
533,10.0,-42.0,247.0,0
534,12.0,-45.0,244.0,0
535,14.0,-48.0,250.0,0
536,10.0,-41.0,243.0,0
537,15.0,-45.0,245.0,0
538,17.0,-44.0,248.0,0
539,16.0,-46.0,249.0,0
540,14.0,-47.0,249.0,0
541,13.0,-41.0,253.0,0
542,17.0,-42.0,249.0,0
543,15.0,-37.0,258.0,0
544,16.0,-37.0,253.0,0
545,12.0,-34.0,253.0,0
546,16.0,-31.0,256.0,0
547,17.0,-29.0,256.0,0
548,16.0,-27.0,251.0,0
549,17.0,-23.0,253.0,0
550,23.0,-19.0,251.0,0
551,23.0,-22.0,252.0,0
552,26.0,-19.0,254.0,0
553,31.0,-19.0,255.0,0
554,32.0,-18.0,259.0,0
555,36.0,-21.0,255.0,0
556,41.0,-18.0,262.0,0
557,44.0,-18.0,255.0,0
558,47.0,-20.0,257.0,0
559,50.0,-19.0,256.0,0
560,53.0,-21.0,259.0,0
561,55.0,-24.0,260.0,0
562,57.0,-24.0,263.0,0
563,58.0,-28.0,271.0,0
564,50.0,-31.0,274.0,0
565,47.0,-38.0,275.0,0
566,43.0,-40.0,278.0,0
567,38.0,-44.0,276.0,0
568,28.0,-46.0,274.0,0
569,14.0,-48.0,274.0,0
570,2.0,-50.0,273.0,0
571,-8.0,-52.0,269.0,0
572,-15.0,-52.0,269.0,0
573,-15.0,-49.0,263.0,0
574,-12.0,-44.0,262.0,0
575,-9.0,-41.0,257.0,0
576,-5.0,-37.0,251.0,0
577,1.0,-30.0,249.0,0
578,5.0,-24.0,243.0,0
579,12.0,-21.0,244.0,0
580,16.0,-22.0,240.0,0
581,21.0,-19.0,244.0,0
582,26.0,-19.0,241.0,0
583,28.0,-17.0,242.0,0
584,30.0,-12.0,242.0,0
585,36.0,-7.0,242.0,0
586,43.0,-3.0,246.0,0
587,48.0,0.0,242.0,0
588,52.0,6.0,241.0,0
589,55.0,13.0,239.0,0
590,64.0,20.0,238.0,0
591,73.0,28.0,228.0,0
592,89.0,30.0,216.0,0
593,94.0,34.0,214.0,0
594,96.0,39.0,205.0,0
595,103.0,47.0,202.0,0
596,110.0,40.0,188.0,0
597,114.0,44.0,185.0,0
598,120.0,44.0,174.0,0
599,118.0,42.0,170.0,0
600,118.0,40.0,164.0,0
601,113.0,35.0,167.0,0
602,109.0,26.0,171.0,0
603,102.0,20.0,172.0,0
604,98.0,15.0,170.0,0
605,96.0,13.0,166.0,0
606,95.0,16.0,163.0,0
607,94.0,10.0,157.0,0
608,92.0,16.0,148.0,0
609,92.0,19.0,140.0,0
610,90.0,20.0,138.0,0
611,92.0,25.0,131.0,0
612,89.0,24.0,123.0,0
613,89.0,28.0,126.0,0
614,92.0,28.0,121.0,0
615,95.0,29.0,128.0,0
616,99.0,29.0,130.0,0
617,101.0,32.0,129.0,0
618,107.0,33.0,139.0,0
619,113.0,33.0,136.0,0
620,118.0,39.0,141.0,0
621,125.0,42.0,145.0,0
622,128.0,47.0,142.0,0
623,134.0,50.0,142.0,0
624,139.0,53.0,139.0,0
625,141.0,57.0,137.0,0
626,144.0,53.0,138.0,0
627,147.0,53.0,139.0,0
628,154.0,49.0,141.0,0
629,153.0,47.0,145.0,0
630,155.0,43.0,150.0,0
631,157.0,41.0,154.0,0
632,167.0,33.0,163.0,0
633,173.0,32.0,164.0,0
634,179.0,32.0,166.0,0
635,190.0,33.0,171.0,0
636,196.0,37.0,175.0,0
637,202.0,41.0,180.0,0
638,209.0,46.0,187.0,0
639,214.0,53.0,192.0,0
640,211.0,56.0,193.0,0
641,210.0,57.0,195.0,0
642,198.0,59.0,200.0,0
643,185.0,62.0,200.0,0
644,182.0,63.0,198.0,0
645,181.0,66.0,198.0,0
646,183.0,64.0,197.0,0
647,188.0,65.0,193.0,0
648,188.0,61.0,189.0,0
649,188.0,63.0,182.0,0
650,187.0,58.0,176.0,0
651,186.0,57.0,177.0,0
652,189.0,53.0,175.0,0
653,188.0,52.0,176.0,0
654,189.0,51.0,175.0,0
655,191.0,43.0,177.0,0
656,196.0,42.0,172.0,0
657,196.0,39.0,172.0,0
658,196.0,37.0,178.0,0
659,201.0,34.0,175.0,0
660,207.0,32.0,177.0,0
661,213.0,25.0,178.0,0
662,216.0,19.0,179.0,0
663,223.0,14.0,179.0,0
664,227.0,13.0,183.0,0
665,239.0,3.0,178.0,0
666,239.0,-3.0,171.0,0
667,241.0,-1.0,163.0,0
668,241.0,-4.0,149.0,0
669,237.0,1.0,143.0,0
670,227.0,1.0,132.0,0
671,219.0,1.0,129.0,0
672,211.0,7.0,117.0,0
673,211.0,11.0,108.0,0
674,207.0,12.0,104.0,0
675,212.0,16.0,93.0,0
676,215.0,18.0,93.0,0
677,216.0,23.0,92.0,0
678,216.0,24.0,93.0,0
679,224.0,24.0,93.0,0
680,224.0,27.0,92.0,0
681,227.0,28.0,90.0,0
682,234.0,29.0,93.0,0
683,242.0,32.0,90.0,0
684,244.0,33.0,99.0,0
685,243.0,33.0,94.0,0
686,250.0,32.0,95.0,0
687,249.0,29.0,99.0,0
688,252.0,28.0,98.0,0
689,249.0,33.0,97.0,0
690,254.0,29.0,100.0,0
691,254.0,28.0,100.0,0
692,250.0,30.0,98.0,0
693,255.0,28.0,98.0,0
694,255.0,24.0,101.0,0
695,254.0,26.0,99.0,0
696,255.0,23.0,105.0,0
697,249.0,19.0,104.0,0
698,245.0,19.0,100.0,0
699,244.0,16.0,101.0,0
700,243.0,15.0,105.0,0
701,240.0,12.0,108.0,0
702,242.0,7.0,104.0,0
703,242.0,12.0,104.0,0
704,244.0,8.0,102.0,0
705,245.0,5.0,99.0,0
706,242.0,1.0,96.0,0
707,241.0,2.0,92.0,0
708,240.0,1.0,93.0,0
709,240.0,0.0,90.0,0
710,241.0,0.0,90.0,0
711,241.0,0.0,87.0,0
712,242.0,4.0,85.0,0
713,242.0,5.0,79.0,0
714,241.0,8.0,80.0,0
715,242.0,8.0,85.0,0
716,240.0,15.0,83.0,0
717,241.0,17.0,78.0,0
718,240.0,19.0,79.0,0
719,240.0,25.0,79.0,0
720,240.0,31.0,78.0,0
721,238.0,34.0,76.0,0
722,238.0,38.0,76.0,0
723,238.0,41.0,79.0,0
724,239.0,42.0,80.0,0
725,236.0,44.0,84.0,0
726,236.0,44.0,81.0,0
727,233.0,47.0,85.0,0
728,236.0,49.0,81.0,0
729,234.0,47.0,87.0,0
730,232.0,50.0,86.0,0
731,233.0,54.0,88.0,0
732,237.0,49.0,87.0,0
733,236.0,50.0,87.0,0
734,237.0,49.0,90.0,0
735,235.0,45.0,94.0,0
736,234.0,45.0,93.0,0
737,227.0,45.0,93.0,0
738,225.0,39.0,88.0,0
739,225.0,34.0,89.0,0
740,226.0,35.0,90.0,0
741,228.0,33.0,88.0,0
742,229.0,31.0,85.0,0
743,231.0,31.0,84.0,0
744,235.0,31.0,85.0,0
745,234.0,28.0,76.0,0
746,239.0,28.0,81.0,0
747,234.0,30.0,78.0,0
748,236.0,32.0,75.0,0
749,238.0,34.0,74.0,0
750,237.0,36.0,68.0,0
751,240.0,42.0,64.0,0
752,238.0,44.0,61.0,0
753,241.0,48.0,57.0,0
754,242.0,47.0,56.0,0
755,244.0,52.0,54.0,0
756,241.0,53.0,54.0,0
757,244.0,53.0,55.0,0
758,245.0,52.0,52.0,0
759,242.0,50.0,51.0,0
760,241.0,52.0,50.0,0
761,245.0,50.0,52.0,0
762,242.0,52.0,52.0,0
763,241.0,49.0,55.0,0
764,240.0,47.0,49.0,0
765,241.0,48.0,50.0,0
766,240.0,45.0,49.0,0
767,240.0,47.0,50.0,0
768,242.0,46.0,51.0,0
769,240.0,47.0,48.0,0
770,243.0,51.0,48.0,0
771,247.0,47.0,43.0,0
772,250.0,51.0,42.0,0
773,253.0,52.0,39.0,0
774,257.0,53.0,34.0,0
775,258.0,51.0,30.0,0
776,261.0,55.0,30.0,0
777,261.0,55.0,26.0,0
778,260.0,56.0,29.0,0
779,265.0,54.0,23.0,0
780,267.0,53.0,21.0,0
781,264.0,51.0,25.0,0
782,268.0,51.0,23.0,0
783,266.0,51.0,18.0,0
784,265.0,53.0,22.0,0
785,266.0,53.0,19.0,0
786,266.0,52.0,17.0,0
787,263.0,53.0,16.0,0
788,264.0,52.0,19.0,0
789,261.0,56.0,21.0,0
790,260.0,55.0,18.0,0
791,257.0,55.0,19.0,0
792,258.0,53.0,23.0,0
793,258.0,53.0,24.0,0
794,262.0,55.0,27.0,0
795,254.0,58.0,23.0,0
796,260.0,56.0,27.0,0
797,261.0,58.0,29.0,0
798,259.0,56.0,30.0,0
799,258.0,57.0,27.0,0
800,258.0,56.0,25.0,0
801,259.0,53.0,28.0,0
802,259.0,54.0,29.0,0
803,257.0,53.0,30.0,0
804,261.0,51.0,25.0,0
805,263.0,49.0,27.0,0
806,264.0,46.0,27.0,0
807,263.0,48.0,28.0,0
808,261.0,45.0,26.0,0
809,262.0,41.0,32.0,0
810,258.0,41.0,30.0,0
811,262.0,37.0,29.0,0
812,258.0,42.0,31.0,0
813,261.0,36.0,33.0,0
814,258.0,39.0,28.0,0
815,257.0,35.0,37.0,0
816,257.0,32.0,34.0,0
817,259.0,35.0,38.0,0
818,256.0,34.0,38.0,0
819,250.0,35.0,41.0,0
820,249.0,33.0,43.0,0
821,246.0,36.0,42.0,0
822,246.0,31.0,44.0,0
823,247.0,36.0,45.0,0
824,247.0,32.0,45.0,0
825,246.0,34.0,45.0,0
826,247.0,36.0,46.0,0
827,246.0,34.0,50.0,0
828,251.0,35.0,49.0,0
829,244.0,34.0,46.0,0
830,248.0,32.0,55.0,0
831,246.0,35.0,48.0,0
832,245.0,35.0,51.0,0
833,245.0,33.0,53.0,0
834,246.0,38.0,53.0,0
835,247.0,34.0,57.0,0
836,248.0,38.0,57.0,0
837,244.0,34.0,54.0,0
838,248.0,34.0,59.0,0
839,247.0,39.0,54.0,0
840,247.0,37.0,58.0,0
841,243.0,36.0,59.0,0
842,246.0,39.0,56.0,0
843,247.0,37.0,59.0,0
844,243.0,38.0,60.0,0
845,244.0,38.0,56.0,0
846,246.0,41.0,56.0,0
847,247.0,42.0,54.0,0
848,245.0,44.0,50.0,0
849,246.0,42.0,53.0,0
850,246.0,43.0,48.0,0
851,246.0,44.0,50.0,0
852,245.0,43.0,50.0,0
853,244.0,43.0,49.0,0
854,243.0,44.0,48.0,0
855,244.0,43.0,48.0,0
856,246.0,43.0,44.0,0
857,245.0,43.0,44.0,0
858,241.0,49.0,40.0,0
859,244.0,46.0,42.0,0
860,243.0,49.0,42.0,0
861,242.0,49.0,47.0,0
862,244.0,52.0,45.0,0
863,243.0,54.0,46.0,0
864,246.0,56.0,46.0,0
865,247.0,55.0,44.0,0
866,248.0,61.0,44.0,0
867,251.0,60.0,46.0,0
868,251.0,64.0,42.0,0
869,254.0,63.0,41.0,0
870,251.0,62.0,41.0,0
871,254.0,64.0,42.0,0
872,256.0,63.0,42.0,0
873,254.0,60.0,43.0,0
874,254.0,58.0,39.0,0
875,254.0,59.0,42.0,0
876,254.0,53.0,36.0,0
877,252.0,53.0,38.0,0
878,253.0,53.0,37.0,0
879,253.0,50.0,40.0,0
880,253.0,51.0,37.0,0
881,251.0,47.0,35.0,0
882,255.0,46.0,38.0,0
883,253.0,42.0,41.0,0
884,249.0,44.0,40.0,0
885,250.0,39.0,42.0,0
886,251.0,40.0,40.0,0
887,252.0,43.0,40.0,0
888,251.0,41.0,43.0,0
889,254.0,46.0,38.0,0
890,254.0,46.0,41.0,0
891,259.0,48.0,41.0,0
892,256.0,53.0,40.0,0
893,256.0,55.0,43.0,0
894,254.0,54.0,40.0,0
895,260.0,50.0,44.0,0
896,256.0,54.0,42.0,0
897,255.0,53.0,43.0,0
898,254.0,50.0,44.0,0
899,253.0,48.0,48.0,0
900,251.0,46.0,48.0,0
901,251.0,45.0,53.0,0
902,251.0,46.0,54.0,0
903,246.0,50.0,53.0,0
904,249.0,45.0,55.0,0
905,248.0,45.0,55.0,0
906,244.0,45.0,56.0,0
907,241.0,44.0,60.0,0
908,240.0,44.0,61.0,0
909,239.0,43.0,66.0,0
910,235.0,42.0,63.0,0
911,235.0,41.0,70.0,0
912,233.0,39.0,71.0,0
913,236.0,37.0,70.0,0
914,231.0,37.0,68.0,0
915,234.0,35.0,68.0,0
916,235.0,39.0,69.0,0
917,237.0,39.0,69.0,0
918,240.0,37.0,67.0,0
919,238.0,42.0,68.0,0
920,238.0,43.0,71.0,0
921,240.0,41.0,71.0,0
922,237.0,41.0,68.0,0
923,238.0,42.0,69.0,0
924,238.0,39.0,74.0,0
925,237.0,39.0,74.0,0
926,239.0,37.0,75.0,0
927,236.0,38.0,76.0,0
928,237.0,35.0,77.0,0
929,240.0,31.0,76.0,0
930,239.0,35.0,78.0,0
931,240.0,34.0,77.0,0
932,240.0,36.0,78.0,0
933,238.0,40.0,76.0,0
934,242.0,39.0,76.0,0
935,243.0,40.0,77.0,0
936,240.0,42.0,78.0,0
937,239.0,43.0,81.0,0
938,241.0,42.0,80.0,0
939,241.0,41.0,85.0,0
940,243.0,40.0,78.0,0
941,243.0,42.0,83.0,0
942,240.0,41.0,81.0,0
943,239.0,40.0,79.0,0
944,238.0,38.0,79.0,0
945,240.0,38.0,80.0,0
946,238.0,36.0,78.0,0
947,238.0,42.0,76.0,0
948,240.0,39.0,73.0,0
949,238.0,40.0,72.0,0
950,240.0,39.0,71.0,0
951,240.0,36.0,73.0,0
952,240.0,39.0,73.0,0
953,238.0,36.0,75.0,0
954,240.0,37.0,74.0,0
955,240.0,37.0,80.0,0
956,241.0,41.0,76.0,0
957,246.0,37.0,75.0,0
958,246.0,39.0,77.0,0
959,250.0,40.0,72.0,0
960,254.0,39.0,72.0,0
961,252.0,43.0,68.0,0
962,251.0,40.0,68.0,0
963,253.0,41.0,64.0,0
964,250.0,37.0,67.0,0
965,249.0,33.0,68.0,0
966,245.0,28.0,73.0,0
967,241.0,23.0,71.0,0
968,237.0,19.0,73.0,0
969,236.0,17.0,75.0,0
970,234.0,18.0,73.0,0
971,231.0,16.0,76.0,0
972,233.0,13.0,77.0,0
973,234.0,15.0,74.0,0
974,233.0,15.0,73.0,0
975,235.0,18.0,75.0,0
976,235.0,18.0,75.0,0
977,234.0,17.0,77.0,0
978,234.0,21.0,76.0,0
979,234.0,21.0,75.0,0
980,231.0,24.0,77.0,0
981,232.0,20.0,78.0,0
982,232.0,24.0,79.0,0
983,231.0,25.0,78.0,0
984,230.0,24.0,79.0,0
985,232.0,24.0,80.0,0
986,233.0,25.0,80.0,0
987,232.0,27.0,84.0,0
988,233.0,28.0,82.0,0
989,233.0,31.0,83.0,0
990,233.0,32.0,81.0,0
991,231.0,34.0,80.0,0
992,230.0,34.0,86.0,0
993,229.0,38.0,86.0,0
994,232.0,37.0,87.0,0
995,229.0,38.0,84.0,0
996,232.0,39.0,87.0,0
997,230.0,41.0,86.0,0
998,232.0,43.0,83.0,0
999,237.0,46.0,87.0,0
1000,238.0,46.0,84.0,0
1001,240.0,49.0,82.0,0
1002,242.0,51.0,82.0,0
1003,245.0,55.0,83.0,0
1004,249.0,52.0,83.0,0
1005,249.0,51.0,79.0,0
1006,249.0,54.0,77.0,0
1007,250.0,51.0,77.0,0
1008,247.0,46.0,80.0,0
1009,249.0,48.0,80.0,0
1010,244.0,44.0,78.0,0
1011,242.0,41.0,77.0,0
1012,244.0,36.0,81.0,0
1013,242.0,32.0,77.0,0
1014,239.0,31.0,78.0,0
1015,238.0,29.0,79.0,0
1016,234.0,29.0,79.0,0
1017,235.0,30.0,79.0,0
1018,235.0,30.0,76.0,0
1019,231.0,34.0,79.0,0
1020,233.0,34.0,78.0,0
1021,234.0,37.0,81.0,0
1022,233.0,36.0,77.0,0
1023,233.0,41.0,79.0,0
1024,234.0,41.0,76.0,0
1025,232.0,44.0,79.0,0
1026,234.0,41.0,79.0,0
1027,236.0,43.0,77.0,0
1028,238.0,43.0,81.0,0
1029,237.0,42.0,78.0,0
1030,239.0,43.0,75.0,0
1031,240.0,42.0,77.0,0
1032,242.0,40.0,77.0,0
1033,241.0,39.0,77.0,0
1034,242.0,38.0,74.0,0
1035,242.0,37.0,74.0,0
1036,244.0,35.0,71.0,0
1037,242.0,36.0,74.0,0
1038,241.0,32.0,76.0,0
1039,241.0,33.0,76.0,0
1040,241.0,32.0,76.0,0
1041,241.0,32.0,77.0,0
1042,240.0,32.0,77.0,0
1043,241.0,32.0,77.0,0
1044,241.0,32.0,79.0,0
1045,242.0,30.0,77.0,0
1046,241.0,31.0,79.0,0
1047,240.0,35.0,80.0,0
1048,241.0,35.0,78.0,0
1049,241.0,37.0,78.0,0
1050,240.0,35.0,76.0,0
1051,241.0,32.0,76.0,0
1052,240.0,37.0,76.0,0
1053,241.0,36.0,76.0,0
1054,240.0,38.0,78.0,0
1055,240.0,40.0,75.0,0
1056,240.0,38.0,75.0,0
1057,241.0,38.0,75.0,0
1058,240.0,41.0,74.0,0
1059,242.0,38.0,76.0,0
1060,240.0,37.0,76.0,0
1061,240.0,37.0,76.0,0
1062,244.0,36.0,76.0,0
1063,241.0,37.0,72.0,0
1064,243.0,35.0,73.0,0
1065,243.0,35.0,69.0,0
1066,240.0,37.0,71.0,0
1067,241.0,37.0,68.0,0
1068,241.0,42.0,71.0,0
1069,243.0,38.0,71.0,0
1070,243.0,41.0,73.0,0
1071,241.0,41.0,69.0,0
1072,245.0,42.0,68.0,0
1073,242.0,40.0,71.0,0
1074,238.0,41.0,72.0,0
1075,240.0,45.0,68.0,0
1076,240.0,44.0,69.0,0
1077,243.0,44.0,72.0,0
1078,240.0,46.0,70.0,0
1079,244.0,47.0,70.0,0
1080,244.0,45.0,74.0,0
1081,243.0,42.0,73.0,0
1082,243.0,46.0,67.0,0
1083,242.0,46.0,66.0,0
1084,243.0,48.0,66.0,0
1085,244.0,46.0,66.0,0
1086,246.0,47.0,66.0,0
1087,244.0,47.0,67.0,0
1088,247.0,49.0,65.0,0
1089,245.0,47.0,66.0,0
1090,245.0,46.0,68.0,0
1091,246.0,44.0,66.0,0
1092,244.0,46.0,66.0,0
1093,246.0,46.0,68.0,0
1094,245.0,45.0,64.0,0
1095,245.0,46.0,66.0,0
1096,246.0,44.0,69.0,0
1097,243.0,45.0,69.0,0
1098,243.0,42.0,67.0,0
1099,243.0,48.0,64.0,0
1100,244.0,46.0,70.0,0
1101,244.0,46.0,67.0,0
1102,244.0,46.0,65.0,0
1103,242.0,43.0,68.0,0
1104,243.0,44.0,65.0,0
1105,243.0,43.0,66.0,0
1106,242.0,44.0,69.0,0
1107,245.0,43.0,70.0,0
1108,242.0,44.0,70.0,0
1109,244.0,41.0,68.0,0
1110,240.0,45.0,70.0,0
1111,243.0,40.0,69.0,0
1112,243.0,42.0,68.0,0
1113,242.0,42.0,75.0,0
1114,241.0,41.0,73.0,0
1115,241.0,40.0,73.0,0
1116,242.0,42.0,73.0,0
1117,242.0,41.0,75.0,0
1118,241.0,39.0,74.0,0
1119,242.0,40.0,73.0,0
1120,240.0,41.0,75.0,0
1121,242.0,41.0,75.0,0
1122,242.0,42.0,74.0,0
1123,243.0,39.0,76.0,0
1124,241.0,40.0,76.0,0
1125,241.0,39.0,74.0,0
1126,241.0,39.0,71.0,0
1127,240.0,39.0,75.0,0
1128,241.0,39.0,75.0,0
1129,241.0,39.0,75.0,0
1130,240.0,38.0,73.0,0
1131,240.0,41.0,75.0,0
1132,240.0,41.0,76.0,0
1133,239.0,37.0,77.0,0
1134,240.0,42.0,76.0,0
1135,240.0,39.0,73.0,0
1136,238.0,39.0,74.0,0
1137,236.0,39.0,77.0,0
1138,238.0,40.0,75.0,0
1139,240.0,38.0,79.0,0
1140,241.0,40.0,77.0,0
1141,239.0,40.0,73.0,0
1142,240.0,41.0,75.0,0
1143,239.0,40.0,77.0,0
1144,240.0,37.0,75.0,0
1145,238.0,42.0,78.0,0
1146,241.0,40.0,76.0,0
1147,240.0,40.0,78.0,0
1148,239.0,40.0,78.0,0
1149,238.0,43.0,78.0,0
1150,240.0,39.0,78.0,0
1151,238.0,43.0,79.0,0
1152,243.0,40.0,76.0,0
1153,238.0,41.0,76.0,0
1154,240.0,42.0,82.0,0
1155,239.0,39.0,80.0,0
1156,239.0,42.0,76.0,0
1157,241.0,42.0,81.0,0
1158,240.0,40.0,74.0,0
1159,239.0,42.0,79.0,0
1160,241.0,39.0,78.0,0
1161,238.0,40.0,78.0,0
1162,241.0,40.0,80.0,0
1163,239.0,44.0,79.0,0
1164,241.0,39.0,77.0,0
1165,238.0,44.0,76.0,0
1166,239.0,43.0,79.0,0
1167,239.0,42.0,80.0,0
1168,238.0,41.0,81.0,0
1169,239.0,39.0,82.0,0
1170,235.0,41.0,79.0,0
1171,238.0,39.0,80.0,0
1172,235.0,42.0,83.0,0
1173,238.0,43.0,81.0,0
1174,237.0,42.0,79.0,0
1175,237.0,43.0,79.0,0
1176,239.0,42.0,80.0,0
1177,239.0,43.0,79.0,0
1178,239.0,43.0,80.0,0
1179,238.0,41.0,82.0,0
1180,238.0,43.0,83.0,0
1181,240.0,42.0,85.0,0
1182,239.0,42.0,81.0,0
1183,236.0,40.0,79.0,0
1184,237.0,43.0,79.0,0
1185,237.0,41.0,81.0,0
1186,238.0,40.0,80.0,0
1187,237.0,42.0,84.0,0
1188,238.0,37.0,81.0,0
1189,237.0,37.0,80.0,0
1190,236.0,39.0,82.0,0
1191,238.0,39.0,83.0,0
1192,236.0,40.0,81.0,0
1193,235.0,40.0,83.0,0
1194,239.0,40.0,80.0,0
1195,235.0,42.0,84.0,0
1196,237.0,40.0,83.0,0
1197,236.0,39.0,86.0,0
1198,235.0,41.0,83.0,0
1199,235.0,42.0,82.0,0
1200,233.0,39.0,82.0,0
1201,233.0,39.0,83.0,0
1202,236.0,41.0,85.0,0
1203,235.0,37.0,88.0,0
1204,237.0,39.0,86.0,0
1205,235.0,39.0,87.0,0
1206,234.0,38.0,82.0,0
1207,236.0,40.0,83.0,0
1208,239.0,38.0,85.0,0
1209,238.0,36.0,84.0,0
1210,237.0,37.0,82.0,0
1211,235.0,39.0,85.0,0
1212,237.0,38.0,83.0,0
1213,237.0,39.0,84.0,0
1214,238.0,39.0,81.0,0
1215,234.0,37.0,84.0,0
1216,236.0,37.0,82.0,0
1217,236.0,37.0,83.0,0
1218,235.0,37.0,86.0,0
1219,236.0,37.0,86.0,0
1220,236.0,38.0,90.0,0
1221,236.0,36.0,81.0,0
1222,237.0,36.0,85.0,0
1223,235.0,38.0,81.0,0
1224,235.0,38.0,82.0,0
1225,239.0,36.0,80.0,0
1226,236.0,40.0,81.0,0
1227,238.0,39.0,78.0,0
1228,239.0,40.0,83.0,0
1229,238.0,39.0,82.0,0
1230,237.0,39.0,81.0,0
1231,235.0,40.0,81.0,0
1232,238.0,37.0,85.0,0
1233,238.0,40.0,82.0,0
1234,237.0,41.0,81.0,0
1235,236.0,39.0,83.0,0
1236,238.0,38.0,79.0,0
1237,238.0,39.0,82.0,0
1238,237.0,37.0,82.0,0
1239,237.0,41.0,83.0,0
1240,238.0,38.0,82.0,0
1241,239.0,38.0,79.0,0
1242,236.0,40.0,80.0,0
1243,238.0,38.0,79.0,0
1244,237.0,39.0,78.0,0
1245,240.0,37.0,81.0,0
1246,239.0,37.0,81.0,0
1247,240.0,35.0,82.0,0
1248,237.0,37.0,82.0,0
1249,238.0,39.0,81.0,0
1250,239.0,39.0,78.0,0
1251,239.0,40.0,79.0,0
1252,236.0,41.0,80.0,0
1253,239.0,37.0,82.0,0
1254,239.0,39.0,81.0,0
1255,240.0,36.0,80.0,0
1256,239.0,42.0,80.0,0
1257,241.0,42.0,81.0,0
1258,239.0,43.0,82.0,0
1259,239.0,46.0,82.0,0
1260,239.0,41.0,78.0,0
1261,238.0,46.0,86.0,0
1262,240.0,39.0,78.0,0
1263,239.0,42.0,81.0,0
1264,241.0,40.0,78.0,0
1265,239.0,40.0,79.0,0
1266,238.0,40.0,79.0,0
1267,240.0,37.0,82.0,0
1268,239.0,36.0,80.0,0
1269,241.0,38.0,80.0,0
1270,240.0,37.0,79.0,0
1271,241.0,38.0,79.0,0
1272,240.0,39.0,76.0,0
1273,240.0,36.0,79.0,0
1274,240.0,36.0,79.0,0
1275,240.0,35.0,78.0,0
1276,240.0,37.0,77.0,0
1277,238.0,39.0,77.0,0
1278,239.0,35.0,77.0,0
1279,239.0,37.0,76.0,0
1280,240.0,41.0,75.0,0
1281,240.0,38.0,78.0,0
1282,239.0,39.0,76.0,0
1283,239.0,42.0,76.0,0
1284,240.0,43.0,76.0,0
1285,240.0,39.0,76.0,0
1286,240.0,41.0,79.0,0
1287,238.0,42.0,76.0,0
1288,240.0,42.0,77.0,0
1289,240.0,39.0,78.0,0
1290,239.0,41.0,77.0,0
1291,240.0,39.0,77.0,0
1292,241.0,39.0,75.0,0
1293,240.0,39.0,75.0,0
1294,239.0,40.0,79.0,0
1295,241.0,39.0,76.0,0
1296,241.0,38.0,78.0,0
1297,241.0,35.0,75.0,0
1298,240.0,36.0,76.0,0
1299,240.0,38.0,77.0,0
1300,240.0,34.0,77.0,0
1301,241.0,33.0,75.0,0
1302,240.0,36.0,74.0,0
1303,240.0,37.0,73.0,0
1304,240.0,35.0,78.0,0
1305,239.0,35.0,74.0,0
1306,241.0,34.0,72.0,0
1307,239.0,37.0,72.0,0
1308,241.0,37.0,75.0,0
1309,241.0,37.0,72.0,0
1310,240.0,36.0,74.0,0
1311,241.0,36.0,73.0,0
1312,241.0,36.0,73.0,0
1313,239.0,36.0,73.0,0
1314,240.0,39.0,74.0,0
1315,240.0,40.0,72.0,0
1316,240.0,38.0,69.0,0
1317,240.0,38.0,73.0,0
1318,240.0,36.0,71.0,0
1319,243.0,34.0,74.0,0
1320,240.0,37.0,75.0,0
1321,242.0,39.0,72.0,0
1322,240.0,37.0,75.0,0
1323,241.0,35.0,69.0,0
1324,243.0,36.0,75.0,0
1325,240.0,40.0,74.0,0
1326,242.0,40.0,75.0,0
1327,241.0,37.0,75.0,0
1328,241.0,37.0,75.0,0
1329,243.0,39.0,75.0,0
1330,242.0,38.0,75.0,0
1331,241.0,37.0,72.0,0
1332,239.0,35.0,73.0,0
1333,242.0,37.0,74.0,0
1334,239.0,39.0,72.0,0
1335,239.0,37.0,71.0,0
1336,239.0,38.0,75.0,0
1337,240.0,36.0,76.0,0
1338,240.0,37.0,74.0,0
1339,239.0,37.0,77.0,0
1340,239.0,39.0,76.0,0
1341,241.0,36.0,74.0,0
1342,240.0,39.0,76.0,0
1343,240.0,37.0,75.0,0
1344,239.0,38.0,77.0,0
1345,240.0,37.0,78.0,0
1346,241.0,36.0,78.0,0
1347,241.0,37.0,77.0,0
1348,239.0,38.0,79.0,0
1349,240.0,39.0,76.0,0
1350,242.0,38.0,81.0,0
1351,239.0,41.0,81.0,0
1352,239.0,40.0,78.0,0
1353,239.0,36.0,80.0,0
1354,242.0,37.0,80.0,0
1355,239.0,38.0,79.0,0
1356,238.0,37.0,75.0,0
1357,239.0,37.0,77.0,0
1358,241.0,40.0,77.0,0
1359,239.0,37.0,81.0,0
1360,239.0,39.0,81.0,0
1361,239.0,38.0,79.0,0
1362,240.0,37.0,81.0,0
1363,240.0,36.0,76.0,0
1364,240.0,39.0,75.0,0
1365,237.0,39.0,76.0,0
1366,239.0,36.0,76.0,0
1367,240.0,39.0,75.0,0
1368,240.0,40.0,79.0,0
1369,240.0,37.0,77.0,0
1370,238.0,39.0,76.0,0
1371,240.0,35.0,79.0,0
1372,238.0,37.0,78.0,0
1373,240.0,38.0,78.0,0
1374,240.0,39.0,80.0,0
1375,238.0,40.0,78.0,0
1376,239.0,38.0,77.0,0
1377,239.0,38.0,77.0,0
1378,240.0,35.0,80.0,0
1379,239.0,38.0,77.0,0
1380,241.0,34.0,80.0,0
1381,239.0,40.0,75.0,0
1382,240.0,35.0,77.0,0
1383,239.0,39.0,80.0,0
1384,240.0,38.0,79.0,0
1385,238.0,40.0,81.0,0
1386,239.0,36.0,78.0,0
1387,238.0,39.0,78.0,0
1388,240.0,37.0,79.0,0
1389,239.0,37.0,81.0,0
1390,239.0,37.0,78.0,0
1391,239.0,36.0,81.0,0
1392,239.0,37.0,79.0,0
1393,237.0,38.0,80.0,0
1394,237.0,36.0,79.0,0
1395,239.0,35.0,78.0,0
1396,237.0,37.0,76.0,0
1397,238.0,35.0,77.0,0
1398,241.0,34.0,78.0,0
1399,240.0,37.0,77.0,0
1400,241.0,38.0,80.0,0
1401,240.0,39.0,79.0,0
1402,242.0,35.0,79.0,0
1403,240.0,38.0,80.0,0
1404,239.0,38.0,80.0,0
1405,238.0,39.0,80.0,0
1406,240.0,37.0,76.0,0
1407,240.0,36.0,79.0,0
1408,238.0,36.0,84.0,0
1409,239.0,38.0,82.0,0
1410,239.0,37.0,76.0,0
1411,239.0,36.0,79.0,0
1412,240.0,35.0,80.0,0
1413,239.0,36.0,78.0,0
1414,239.0,37.0,80.0,0
1415,243.0,36.0,78.0,0
1416,242.0,38.0,77.0,0
1417,240.0,41.0,77.0,0
1418,240.0,36.0,75.0,0
1419,239.0,36.0,78.0,0
1420,239.0,34.0,79.0,0
1421,238.0,34.0,77.0,0
1422,239.0,36.0,76.0,0
1423,238.0,36.0,79.0,0
1424,239.0,35.0,80.0,0
1425,237.0,37.0,77.0,0
1426,239.0,36.0,80.0,0
1427,238.0,38.0,78.0,0
1428,240.0,37.0,78.0,0
1429,240.0,38.0,79.0,0
1430,237.0,40.0,79.0,0
1431,238.0,39.0,82.0,0
1432,238.0,42.0,80.0,0
1433,239.0,40.0,79.0,0
1434,238.0,39.0,83.0,0
1435,240.0,39.0,83.0,0
1436,240.0,39.0,79.0,0
1437,239.0,39.0,81.0,0
1438,240.0,40.0,80.0,0
1439,241.0,39.0,80.0,0
1440,240.0,36.0,81.0,0
1441,239.0,35.0,81.0,0
1442,238.0,36.0,81.0,0
1443,239.0,36.0,79.0,0
1444,240.0,36.0,77.0,0
1445,237.0,37.0,79.0,0
1446,241.0,37.0,82.0,0
1447,237.0,39.0,80.0,0
1448,237.0,39.0,77.0,0
1449,237.0,36.0,79.0,0
1450,240.0,40.0,78.0,0
1451,240.0,35.0,79.0,0
1452,237.0,38.0,79.0,0
1453,239.0,37.0,81.0,0
1454,239.0,39.0,81.0,0
1455,239.0,36.0,78.0,0
1456,238.0,39.0,81.0,0
1457,240.0,41.0,82.0,0
1458,233.0,22.0,82.0,0
1459,239.0,37.0,78.0,0
1460,240.0,36.0,81.0,0
1461,239.0,37.0,76.0,0
1462,239.0,39.0,87.0,0
1463,238.0,38.0,76.0,0
1464,240.0,39.0,79.0,0
1465,239.0,39.0,78.0,0
1466,238.0,38.0,79.0,0
1467,239.0,41.0,77.0,0
1468,235.0,39.0,78.0,0
1469,240.0,39.0,82.0,0
1470,236.0,41.0,79.0,0
1471,239.0,38.0,79.0,0
1472,239.0,39.0,78.0,0
1473,240.0,34.0,80.0,0
1474,239.0,40.0,76.0,0
1475,240.0,37.0,78.0,0
1476,239.0,37.0,81.0,0
1477,240.0,37.0,76.0,0
1478,239.0,39.0,80.0,0
1479,239.0,37.0,81.0,0
1480,240.0,39.0,80.0,0
1481,238.0,40.0,83.0,0
1482,240.0,35.0,78.0,0
1483,238.0,37.0,81.0,0
1484,239.0,37.0,81.0,0
1485,239.0,37.0,78.0,0
1486,237.0,38.0,78.0,0
1487,238.0,37.0,83.0,0
1488,238.0,38.0,80.0,0
1489,238.0,37.0,78.0,0
1490,237.0,36.0,80.0,0
1491,239.0,36.0,83.0,0
1492,239.0,40.0,81.0,0
1493,238.0,40.0,81.0,0
1494,238.0,39.0,83.0,0
1495,237.0,40.0,85.0,0
1496,240.0,41.0,81.0,0
1497,239.0,37.0,77.0,0
1498,239.0,40.0,82.0,0
1499,241.0,38.0,79.0,0
1500,239.0,39.0,78.0,0
1501,240.0,41.0,80.0,0
1502,241.0,36.0,76.0,0
1503,239.0,38.0,80.0,0
1504,239.0,39.0,80.0,0
1505,239.0,39.0,80.0,0
1506,240.0,37.0,81.0,0
1507,239.0,40.0,78.0,0
1508,238.0,40.0,82.0,0
1509,238.0,40.0,81.0,0
1510,239.0,39.0,78.0,0
1511,239.0,37.0,80.0,0
1512,238.0,38.0,82.0,0
1513,241.0,36.0,82.0,0
1514,239.0,39.0,84.0,0
1515,239.0,40.0,82.0,0
1516,239.0,37.0,79.0,0
1517,239.0,38.0,77.0,0
1518,238.0,40.0,82.0,0
1519,238.0,39.0,80.0,0
1520,237.0,40.0,80.0,0
1521,238.0,38.0,83.0,0
1522,237.0,38.0,83.0,0
1523,237.0,42.0,79.0,0
1524,237.0,39.0,79.0,0
1525,238.0,39.0,80.0,0
1526,239.0,38.0,87.0,0
1527,237.0,38.0,79.0,0
1528,239.0,40.0,82.0,0
1529,239.0,39.0,79.0,0
1530,239.0,38.0,82.0,0
1531,239.0,37.0,80.0,0
1532,240.0,35.0,81.0,0
1533,237.0,37.0,79.0,0
1534,239.0,40.0,79.0,0
1535,238.0,39.0,81.0,0
1536,236.0,38.0,83.0,0
1537,239.0,38.0,82.0,0
1538,238.0,38.0,78.0,0
1539,240.0,40.0,82.0,0
1540,237.0,39.0,78.0,0
1541,238.0,37.0,80.0,0
1542,238.0,40.0,80.0,0
1543,238.0,39.0,82.0,0
1544,237.0,39.0,79.0,0
1545,239.0,36.0,82.0,0
1546,238.0,40.0,80.0,0
1547,238.0,43.0,79.0,0
1548,240.0,41.0,79.0,0
1549,239.0,40.0,80.0,0
1550,239.0,40.0,82.0,0
1551,239.0,39.0,81.0,0
1552,238.0,40.0,81.0,0
1553,239.0,40.0,81.0,0
1554,239.0,39.0,86.0,0
1555,239.0,39.0,81.0,0
1556,239.0,42.0,86.0,0
1557,236.0,41.0,80.0,0
1558,238.0,39.0,81.0,0
1559,240.0,39.0,82.0,0
1560,240.0,41.0,79.0,0
1561,239.0,39.0,80.0,0
1562,240.0,37.0,81.0,0
1563,238.0,40.0,77.0,0
1564,240.0,38.0,83.0,0
1565,240.0,42.0,77.0,0
1566,239.0,38.0,75.0,0
1567,238.0,39.0,81.0,0
1568,238.0,39.0,81.0,0
1569,239.0,38.0,79.0,0
1570,239.0,39.0,81.0,0
1571,239.0,38.0,79.0,0
1572,239.0,38.0,80.0,0
1573,242.0,34.0,81.0,0
1574,237.0,38.0,79.0,0
1575,237.0,41.0,85.0,0
1576,236.0,38.0,85.0,0
1577,239.0,38.0,82.0,0
1578,238.0,40.0,82.0,0
1579,238.0,43.0,81.0,0
1580,239.0,42.0,84.0,0
1581,239.0,40.0,81.0,0
1582,239.0,40.0,83.0,0
1583,239.0,42.0,85.0,0
1584,237.0,42.0,83.0,0
1585,237.0,42.0,82.0,0
1586,237.0,45.0,82.0,0
1587,239.0,45.0,84.0,0
1588,237.0,43.0,81.0,0
1589,237.0,41.0,85.0,0
1590,237.0,40.0,82.0,0
1591,239.0,40.0,85.0,0
1592,238.0,40.0,81.0,0
1593,238.0,39.0,83.0,0
1594,236.0,43.0,82.0,0
1595,237.0,41.0,81.0,0
1596,238.0,41.0,80.0,0
1597,239.0,37.0,83.0,0
1598,239.0,40.0,84.0,0
1599,235.0,37.0,79.0,0
1600,238.0,40.0,82.0,0
1601,239.0,40.0,80.0,0
1602,237.0,40.0,84.0,0
1603,239.0,40.0,84.0,0
1604,237.0,43.0,83.0,0
1605,238.0,41.0,84.0,0
1606,238.0,44.0,82.0,0
1607,239.0,42.0,83.0,0
1608,238.0,41.0,82.0,0
1609,239.0,39.0,82.0,0
1610,239.0,41.0,83.0,0
1611,237.0,43.0,79.0,0
1612,236.0,41.0,83.0,0
1613,237.0,41.0,87.0,0
1614,238.0,41.0,82.0,0
1615,235.0,39.0,82.0,0
1616,236.0,37.0,81.0,0
1617,238.0,42.0,86.0,0
1618,237.0,40.0,82.0,0
1619,240.0,38.0,84.0,0
1620,238.0,42.0,79.0,0
1621,237.0,40.0,81.0,0
1622,239.0,41.0,84.0,0
1623,239.0,40.0,82.0,0
1624,239.0,40.0,78.0,0
1625,240.0,40.0,80.0,0
1626,239.0,42.0,79.0,0
1627,238.0,40.0,84.0,0
1628,240.0,41.0,86.0,0
1629,238.0,39.0,83.0,0
1630,239.0,40.0,83.0,0
1631,238.0,40.0,82.0,0
1632,238.0,39.0,85.0,0
1633,239.0,41.0,83.0,0
1634,237.0,38.0,80.0,0
1635,237.0,40.0,85.0,0
1636,238.0,41.0,85.0,0
1637,237.0,39.0,82.0,0
1638,237.0,40.0,82.0,0
1639,238.0,40.0,82.0,0
1640,237.0,40.0,82.0,0
1641,236.0,41.0,83.0,0
1642,237.0,40.0,84.0,0
1643,238.0,41.0,83.0,0
1644,239.0,43.0,82.0,0
1645,239.0,41.0,84.0,0
1646,239.0,38.0,86.0,0
1647,240.0,42.0,81.0,0
1648,239.0,40.0,80.0,0
1649,238.0,42.0,82.0,0
1650,239.0,40.0,81.0,0
1651,237.0,45.0,79.0,0
1652,238.0,41.0,83.0,0
1653,240.0,41.0,84.0,0
1654,241.0,40.0,81.0,0
1655,241.0,41.0,81.0,0
1656,240.0,41.0,81.0,0
1657,241.0,41.0,81.0,0
1658,239.0,38.0,82.0,0
1659,240.0,40.0,81.0,0
1660,241.0,42.0,84.0,0
1661,241.0,39.0,84.0,0
1662,241.0,36.0,85.0,0
1663,240.0,41.0,81.0,0
1664,240.0,41.0,81.0,0
1665,238.0,38.0,85.0,0
1666,240.0,38.0,82.0,0
1667,238.0,39.0,80.0,0
1668,239.0,39.0,85.0,0
1669,242.0,38.0,83.0,0
1670,239.0,39.0,82.0,0
1671,239.0,41.0,83.0,0
1672,239.0,40.0,86.0,0
1673,240.0,38.0,76.0,0
1674,240.0,40.0,82.0,0
1675,241.0,40.0,82.0,0
1676,241.0,41.0,84.0,0
1677,240.0,43.0,81.0,0
1678,241.0,39.0,82.0,0
1679,240.0,45.0,80.0,0
1680,241.0,44.0,77.0,0
1681,240.0,48.0,78.0,0
1682,240.0,44.0,79.0,0
1683,243.0,42.0,80.0,0
1684,241.0,45.0,78.0,0
1685,242.0,47.0,77.0,0
1686,241.0,43.0,77.0,0
1687,239.0,46.0,77.0,0
1688,242.0,42.0,78.0,0
1689,240.0,42.0,76.0,0
1690,240.0,42.0,79.0,0
1691,240.0,42.0,80.0,0
1692,239.0,39.0,84.0,0
1693,240.0,39.0,80.0,0
1694,239.0,41.0,82.0,0
1695,237.0,36.0,80.0,0
1696,241.0,36.0,82.0,0
1697,239.0,36.0,84.0,0
1698,239.0,36.0,87.0,0
1699,238.0,35.0,86.0,0
1700,238.0,34.0,86.0,0
1701,242.0,35.0,83.0,0
1702,239.0,35.0,85.0,0
1703,238.0,34.0,81.0,0
1704,239.0,39.0,84.0,0
1705,238.0,39.0,88.0,0
1706,238.0,38.0,87.0,0
1707,239.0,39.0,87.0,0
1708,240.0,40.0,83.0,0
1709,241.0,42.0,84.0,0
1710,241.0,36.0,84.0,0
1711,242.0,41.0,80.0,0
1712,241.0,40.0,84.0,0
1713,244.0,40.0,83.0,0
1714,244.0,38.0,83.0,0
1715,242.0,40.0,86.0,0
1716,242.0,43.0,82.0,0
1717,241.0,39.0,84.0,0
1718,242.0,41.0,81.0,0
1719,241.0,40.0,86.0,0
1720,240.0,39.0,81.0,0
1721,238.0,41.0,82.0,0
1722,237.0,40.0,84.0,0
1723,239.0,37.0,85.0,0
1724,239.0,35.0,85.0,0
1725,238.0,37.0,88.0,0
1726,236.0,39.0,86.0,0
1727,235.0,38.0,85.0,0
1728,235.0,37.0,87.0,0
1729,236.0,37.0,86.0,0
1730,236.0,39.0,90.0,0
1731,235.0,38.0,89.0,0
1732,236.0,38.0,89.0,0
1733,234.0,36.0,90.0,0
1734,239.0,36.0,89.0,0
1735,235.0,37.0,90.0,0
1736,236.0,40.0,85.0,0
1737,239.0,40.0,91.0,0
1738,233.0,42.0,91.0,0
1739,231.0,43.0,91.0,0
1740,229.0,47.0,92.0,0
1741,229.0,44.0,96.0,0
1742,229.0,46.0,98.0,0
1743,228.0,48.0,96.0,0
1744,229.0,49.0,99.0,0
1745,229.0,51.0,96.0,0
1746,229.0,50.0,100.0,0
1747,228.0,51.0,100.0,0
1748,230.0,47.0,104.0,0
1749,228.0,52.0,103.0,0
1750,228.0,51.0,100.0,0
1751,233.0,52.0,104.0,0
1752,237.0,50.0,102.0,0
1753,238.0,51.0,97.0,0
1754,239.0,51.0,101.0,0
1755,241.0,46.0,103.0,0
1756,240.0,50.0,103.0,0
1757,242.0,48.0,104.0,0
1758,239.0,49.0,103.0,0
1759,241.0,49.0,103.0,0
1760,241.0,49.0,109.0,0
1761,241.0,46.0,103.0,0
1762,243.0,47.0,104.0,0
1763,241.0,47.0,105.0,0
1764,239.0,48.0,102.0,0
1765,242.0,41.0,104.0,0
1766,239.0,43.0,103.0,0
1767,238.0,43.0,103.0,0
1768,235.0,42.0,103.0,0
1769,234.0,40.0,109.0,0
1770,231.0,41.0,105.0,0
1771,234.0,36.0,105.0,0
1772,230.0,38.0,109.0,0
1773,230.0,35.0,105.0,0
1774,228.0,36.0,114.0,0
1775,228.0,34.0,115.0,0
1776,223.0,31.0,113.0,0
1777,223.0,25.0,119.0,0
1778,223.0,24.0,114.0,0
1779,223.0,23.0,115.0,0
1780,222.0,19.0,116.0,0
1781,220.0,19.0,115.0,0
1782,223.0,20.0,118.0,0
1783,223.0,16.0,118.0,0
1784,225.0,19.0,116.0,0
1785,224.0,14.0,116.0,0
1786,223.0,16.0,116.0,0
1787,224.0,12.0,122.0,0
1788,224.0,11.0,118.0,0
1789,220.0,10.0,118.0,0
1790,222.0,10.0,118.0,0
1791,218.0,8.0,122.0,0
1792,216.0,10.0,120.0,0
1793,217.0,6.0,126.0,0
1794,209.0,9.0,122.0,0
1795,209.0,7.0,124.0,0
1796,210.0,3.0,126.0,0
1797,201.0,6.0,129.0,0
1798,201.0,4.0,130.0,0
1799,201.0,1.0,129.0,0
1800,203.0,5.0,128.0,0
1801,207.0,4.0,131.0,0
1802,209.0,6.0,127.0,0
1803,210.0,7.0,130.0,0
1804,208.0,8.0,129.0,0
1805,206.0,3.0,128.0,0
1806,196.0,1.0,131.0,0
1807,190.0,-1.0,135.0,0
1808,188.0,-4.0,137.0,0
1809,187.0,-11.0,140.0,0
1810,184.0,-13.0,146.0,0
1811,182.0,-19.0,147.0,0
1812,182.0,-21.0,156.0,0
1813,180.0,-21.0,158.0,0
1814,181.0,-22.0,161.0,0
1815,180.0,-21.0,166.0,0
1816,183.0,-18.0,169.0,0
1817,182.0,-15.0,169.0,0
1818,174.0,-24.0,146.0,0
1819,185.0,-12.0,168.0,0
1820,183.0,-6.0,169.0,0
1821,184.0,-7.0,170.0,0
1822,188.0,-4.0,168.0,0
1823,191.0,-6.0,174.0,0
1824,188.0,-3.0,173.0,0
1825,185.0,-3.0,173.0,0
1826,183.0,-3.0,171.0,0
1827,185.0,-3.0,175.0,0
1828,182.0,-4.0,176.0,0
1829,183.0,-5.0,177.0,0
1830,179.0,-7.0,175.0,0
1831,178.0,-9.0,178.0,0
1832,177.0,-11.0,183.0,0
1833,174.0,-11.0,192.0,0
1834,173.0,-16.0,189.0,0
1835,171.0,-14.0,190.0,0
1836,170.0,-20.0,190.0,0
1837,167.0,-19.0,195.0,0
1838,164.0,-24.0,197.0,0
1839,161.0,-23.0,194.0,0
1840,163.0,-25.0,198.0,0
1841,161.0,-30.0,197.0,0
1842,158.0,-28.0,193.0,0
1843,152.0,-26.0,190.0,0
1844,152.0,-27.0,194.0,0
1845,153.0,-31.0,199.0,0
1846,154.0,-29.0,198.0,0
1847,151.0,-34.0,201.0,0
1848,154.0,-35.0,199.0,0
1849,153.0,-37.0,201.0,0
1850,149.0,-37.0,202.0,0
1851,147.0,-35.0,204.0,0
1852,146.0,-35.0,201.0,0
1853,144.0,-32.0,198.0,0
1854,149.0,-37.0,200.0,0
1855,146.0,-33.0,195.0,0
1856,142.0,-30.0,192.0,0
1857,141.0,-29.0,183.0,0
1858,147.0,-28.0,182.0,0
1859,151.0,-31.0,178.0,0
1860,156.0,-33.0,176.0,0
1861,158.0,-30.0,178.0,0
1862,166.0,-31.0,182.0,0
1863,169.0,-29.0,183.0,0
1864,176.0,-30.0,189.0,0
1865,177.0,-29.0,191.0,0
1866,182.0,-21.0,192.0,0
1867,182.0,-11.0,186.0,0
1868,183.0,-10.0,178.0,0
1869,182.0,-4.0,171.0,0
1870,186.0,-4.0,166.0,0
1871,185.0,-4.0,164.0,0
1872,187.0,-3.0,161.0,0
1873,197.0,-2.0,162.0,0
1874,195.0,-6.0,164.0,0
1875,198.0,-11.0,160.0,0
1876,195.0,-8.0,161.0,0
1877,190.0,-11.0,154.0,0
1878,192.0,-11.0,155.0,0
1879,186.0,-6.0,143.0,0
1880,189.0,-5.0,140.0,0
1881,190.0,-5.0,137.0,0
1882,194.0,-5.0,140.0,0
1883,194.0,-11.0,142.0,0
1884,192.0,-12.0,148.0,0
1885,187.0,-10.0,147.0,0
1886,186.0,-10.0,156.0,0
1887,181.0,-9.0,162.0,0
1888,177.0,-13.0,169.0,0
1889,174.0,-13.0,174.0,0
1890,170.0,-15.0,180.0,0
1891,168.0,-18.0,179.0,0
1892,161.0,-20.0,183.0,0
1893,160.0,-24.0,193.0,0
1894,159.0,-26.0,192.0,0
1895,159.0,-29.0,191.0,0
1896,157.0,-33.0,182.0,0
1897,154.0,-35.0,180.0,0
1898,147.0,-38.0,181.0,0
1899,145.0,-41.0,177.0,0
1900,143.0,-46.0,179.0,0
1901,139.0,-46.0,176.0,0
1902,134.0,-51.0,179.0,0
1903,134.0,-54.0,181.0,0
1904,134.0,-55.0,184.0,0
1905,128.0,-57.0,189.0,0
1906,125.0,-57.0,192.0,0
1907,128.0,-59.0,191.0,0
1908,130.0,-58.0,196.0,0
1909,126.0,-58.0,198.0,0
1910,124.0,-53.0,200.0,0
1911,124.0,-49.0,193.0,0
1912,125.0,-48.0,197.0,0
1913,124.0,-41.0,194.0,0
1914,125.0,-38.0,193.0,0
1915,125.0,-40.0,195.0,0
1916,124.0,-37.0,199.0,0
1917,122.0,-38.0,201.0,0
1918,117.0,-38.0,203.0,0
1919,114.0,-36.0,205.0,0
1920,110.0,-38.0,203.0,0
1921,108.0,-40.0,205.0,0
1922,101.0,-40.0,205.0,0
1923,97.0,-43.0,208.0,0
1924,92.0,-48.0,208.0,0
1925,81.0,-51.0,209.0,0
1926,79.0,-62.0,215.0,0
1927,71.0,-60.0,217.0,0
1928,59.0,-68.0,213.0,0
1929,59.0,-67.0,215.0,0
1930,51.0,-67.0,213.0,0
1931,48.0,-67.0,215.0,0
1932,45.0,-66.0,207.0,0
1933,46.0,-66.0,208.0,0
1934,46.0,-68.0,207.0,0
1935,45.0,-68.0,208.0,0
1936,46.0,-72.0,213.0,0
1937,48.0,-78.0,212.0,0
1938,48.0,-80.0,216.0,0
1939,51.0,-86.0,223.0,0
1940,54.0,-90.0,222.0,0
1941,61.0,-98.0,227.0,0
1942,65.0,-106.0,223.0,0
1943,73.0,-110.0,225.0,0
1944,72.0,-111.0,221.0,0
1945,76.0,-110.0,218.0,0
1946,73.0,-110.0,218.0,0
1947,77.0,-110.0,214.0,0
1948,77.0,-108.0,215.0,0
1949,80.0,-107.0,216.0,0
1950,79.0,-109.0,215.0,0
1951,78.0,-106.0,214.0,0
1952,78.0,-104.0,215.0,0
1953,80.0,-104.0,215.0,0
1954,76.0,-98.0,213.0,0
1955,75.0,-96.0,211.0,0
1956,75.0,-88.0,210.0,0
1957,73.0,-83.0,211.0,0
1958,73.0,-77.0,208.0,0
1959,74.0,-75.0,207.0,0
1960,69.0,-70.0,211.0,0
1961,73.0,-66.0,209.0,0
1962,72.0,-68.0,213.0,0
1963,69.0,-65.0,214.0,0
1964,68.0,-64.0,212.0,0
1965,68.0,-60.0,215.0,0
1966,67.0,-62.0,223.0,0
1967,65.0,-61.0,214.0,0
1968,66.0,-62.0,217.0,0
1969,65.0,-65.0,218.0,0
1970,68.0,-68.0,221.0,0
1971,73.0,-67.0,223.0,0
1972,79.0,-72.0,229.0,0
1973,79.0,-78.0,233.0,0
1974,80.0,-81.0,234.0,0
1975,84.0,-84.0,240.0,0
1976,88.0,-85.0,245.0,0
1977,90.0,-88.0,250.0,0
1978,92.0,-95.0,251.0,0
1979,95.0,-100.0,261.0,0
1980,99.0,-101.0,259.0,0
1981,102.0,-107.0,257.0,0
1982,103.0,-106.0,259.0,0
1983,107.0,-108.0,260.0,0
1984,112.0,-110.0,252.0,0
1985,112.0,-109.0,249.0,0
1986,116.0,-115.0,250.0,0
1987,118.0,-114.0,240.0,0
1988,116.0,-114.0,229.0,0
1989,123.0,-116.0,217.0,0
1990,128.0,-111.0,210.0,0
1991,131.0,-105.0,204.0,0
1992,128.0,-100.0,198.0,0
1993,128.0,-96.0,200.0,0
1994,128.0,-88.0,197.0,0
1995,125.0,-85.0,205.0,0
1996,123.0,-76.0,210.0,0
1997,118.0,-71.0,217.0,0
1998,114.0,-65.0,227.0,0
1999,113.0,-58.0,240.0,0
2000,115.0,-49.0,247.0,0
2001,115.0,-44.0,258.0,0
2002,121.0,-36.0,261.0,0
2003,128.0,-31.0,264.0,0
2004,132.0,-25.0,265.0,0
2005,133.0,-24.0,266.0,0
2006,133.0,-19.0,262.0,0
2007,137.0,-17.0,259.0,0
2008,155.0,-16.0,252.0,0
2009,191.0,-13.0,250.0,0
2010,249.0,-5.0,255.0,0
2011,283.0,-1.0,235.0,0
2012,290.0,10.0,231.0,0
2013,279.0,14.0,222.0,0
2014,256.0,19.0,219.0,0
2015,240.0,25.0,214.0,0
2016,225.0,32.0,199.0,0
2017,212.0,39.0,188.0,0
2018,209.0,40.0,180.0,0
2019,201.0,35.0,167.0,0
2020,194.0,31.0,163.0,0
2021,183.0,31.0,157.0,0
2022,174.0,35.0,155.0,0
2023,173.0,42.0,150.0,0
2024,169.0,43.0,141.0,0
2025,164.0,51.0,137.0,0
2026,153.0,57.0,131.0,0
2027,149.0,59.0,132.0,0
2028,139.0,70.0,122.0,0
2029,123.0,77.0,116.0,0
2030,111.0,88.0,116.0,0
2031,94.0,98.0,108.0,0
2032,82.0,103.0,104.0,0
2033,71.0,109.0,105.0,0
2034,60.0,114.0,105.0,0
2035,52.0,117.0,107.0,0
2036,45.0,117.0,112.0,0
2037,39.0,114.0,113.0,0
2038,29.0,115.0,124.0,0
2039,19.0,111.0,132.0,0
2040,15.0,105.0,139.0,0
2041,5.0,108.0,142.0,0
2042,-3.0,104.0,146.0,0
2043,-15.0,104.0,154.0,0
2044,-27.0,104.0,156.0,0
2045,-48.0,98.0,160.0,0
2046,-65.0,93.0,163.0,0
2047,-77.0,88.0,171.0,0
2048,-98.0,83.0,169.0,0
2049,-116.0,78.0,173.0,0
2050,-123.0,71.0,174.0,0
2051,-143.0,63.0,175.0,0
2052,-156.0,53.0,182.0,0
2053,-169.0,41.0,189.0,0
2054,-163.0,31.0,193.0,0
2055,-158.0,23.0,202.0,0
2056,-151.0,9.0,205.0,0
2057,-135.0,-3.0,210.0,0
2058,-116.0,-10.0,218.0,0
2059,-88.0,-19.0,225.0,0
2060,-58.0,-22.0,226.0,0
2061,-29.0,-26.0,225.0,0
2062,-6.0,-33.0,224.0,0
2063,8.0,-32.0,228.0,0
2064,23.0,-41.0,229.0,0
2065,19.0,-41.0,228.0,0
2066,14.0,-42.0,233.0,0
2067,0.0,-43.0,236.0,0
2068,-23.0,-43.0,253.0,0
2069,-41.0,-51.0,269.0,0
2070,-40.0,-50.0,297.0,0
2071,-43.0,-52.0,316.0,0
2072,-46.0,-51.0,333.0,0
2073,-48.0,-51.0,352.0,0
2074,-50.0,-55.0,365.0,0
2075,-73.0,-59.0,375.0,0
2076,-89.0,-69.0,390.0,0
2077,-115.0,-79.0,397.0,0
2078,-142.0,-84.0,399.0,0
2079,-145.0,-81.0,395.0,0
2080,-130.0,-77.0,376.0,0
2081,-83.0,-68.0,345.0,0
2082,-35.0,-56.0,309.0,0
2083,-7.0,-50.0,273.0,0
2084,9.0,-58.0,248.0,0
2085,17.0,-67.0,228.0,0
2086,15.0,-84.0,213.0,0
2087,14.0,-111.0,206.0,0
2088,12.0,-130.0,204.0,0
2089,3.0,-155.0,206.0,0
2090,-11.0,-172.0,209.0,0
2091,-15.0,-184.0,220.0,0
2092,-29.0,-184.0,218.0,0
2093,-42.0,-174.0,219.0,0
2094,-52.0,-155.0,207.0,0
2095,-56.0,-136.0,201.0,0
2096,-58.0,-114.0,195.0,0
2097,-65.0,-91.0,191.0,0
2098,-60.0,-75.0,189.0,0
2099,-59.0,-66.0,193.0,0
2100,-55.0,-57.0,203.0,0
2101,-53.0,-50.0,207.0,0
2102,-49.0,-46.0,210.0,0
2103,-49.0,-43.0,208.0,0
2104,-49.0,-39.0,212.0,0
2105,-46.0,-38.0,210.0,0
2106,-40.0,-32.0,212.0,0
2107,-35.0,-31.0,215.0,0
2108,-28.0,-35.0,213.0,0
2109,-18.0,-40.0,217.0,0
2110,-16.0,-44.0,224.0,0
2111,-5.0,-53.0,229.0,0
2112,0.0,-59.0,229.0,0
2113,7.0,-67.0,238.0,0
2114,11.0,-77.0,240.0,0
2115,12.0,-85.0,243.0,0
2116,16.0,-89.0,249.0,0
2117,14.0,-90.0,253.0,0
2118,18.0,-93.0,245.0,0
2119,21.0,-90.0,244.0,0
2120,22.0,-89.0,238.0,0
2121,23.0,-84.0,231.0,0
2122,30.0,-89.0,231.0,0
2123,27.0,-86.0,229.0,0
2124,34.0,-88.0,229.0,0
2125,32.0,-87.0,226.0,0
2126,36.0,-88.0,227.0,0
2127,37.0,-90.0,228.0,0
2128,36.0,-92.0,228.0,0
2129,38.0,-95.0,227.0,0
2130,36.0,-95.0,226.0,0
2131,34.0,-95.0,224.0,0
2132,33.0,-93.0,219.0,0
2133,33.0,-92.0,222.0,0
2134,30.0,-87.0,222.0,0
2135,24.0,-83.0,224.0,0
2136,24.0,-79.0,220.0,0
2137,21.0,-74.0,222.0,0
2138,15.0,-74.0,226.0,0
2139,10.0,-72.0,225.0,0
2140,5.0,-70.0,225.0,0
2141,5.0,-72.0,230.0,0
2142,-4.0,-72.0,231.0,0
2143,-5.0,-72.0,235.0,0
2144,-13.0,-74.0,232.0,0
2145,-16.0,-73.0,231.0,0
2146,-18.0,-77.0,232.0,0
2147,-24.0,-79.0,232.0,0
2148,-27.0,-84.0,231.0,0
2149,-34.0,-86.0,224.0,0
2150,-37.0,-92.0,224.0,0
2151,-37.0,-96.0,224.0,0
2152,-39.0,-99.0,222.0,0
2153,-36.0,-101.0,225.0,0
2154,-36.0,-103.0,223.0,0
2155,-33.0,-105.0,226.0,0
2156,-31.0,-102.0,225.0,0
2157,-22.0,-101.0,228.0,0
2158,-18.0,-99.0,226.0,0
2159,-13.0,-96.0,224.0,0
2160,0.0,-94.0,230.0,0
2161,7.0,-91.0,235.0,0
2162,14.0,-88.0,234.0,0
2163,21.0,-85.0,242.0,0
2164,32.0,-84.0,245.0,0
2165,38.0,-80.0,246.0,0
2166,44.0,-74.0,246.0,0
2167,47.0,-71.0,246.0,0
2168,49.0,-66.0,240.0,0
2169,53.0,-63.0,236.0,0
2170,54.0,-63.0,235.0,0
2171,55.0,-61.0,237.0,0
2172,51.0,-61.0,231.0,0
2173,49.0,-64.0,227.0,0
2174,45.0,-60.0,222.0,0
2175,43.0,-62.0,222.0,0
2176,38.0,-63.0,220.0,0
2177,29.0,-59.0,214.0,0
2178,28.0,-63.0,223.0,0
2179,26.0,-65.0,222.0,0
2180,18.0,-61.0,221.0,0
2181,14.0,-60.0,223.0,0
2182,9.0,-58.0,223.0,0
2183,4.0,-57.0,223.0,0
2184,1.0,-55.0,227.0,0
2185,-1.0,-55.0,229.0,0
2186,-6.0,-55.0,231.0,0
2187,-5.0,-55.0,233.0,0
2188,-3.0,-56.0,237.0,0
2189,-3.0,-56.0,235.0,0
2190,1.0,-59.0,235.0,0
2191,2.0,-62.0,239.0,0
2192,5.0,-66.0,238.0,0
2193,10.0,-68.0,241.0,0
2194,13.0,-68.0,241.0,0
2195,18.0,-66.0,238.0,0
2196,24.0,-68.0,238.0,0
2197,28.0,-67.0,236.0,0
2198,33.0,-66.0,234.0,0
2199,34.0,-66.0,233.0,0
2200,36.0,-62.0,236.0,0
2201,36.0,-63.0,231.0,0
2202,35.0,-62.0,230.0,0
2203,35.0,-60.0,230.0,0
2204,36.0,-57.0,227.0,0
2205,31.0,-58.0,230.0,0
2206,32.0,-58.0,231.0,0
2207,29.0,-56.0,227.0,0
2208,25.0,-56.0,228.0,0
2209,24.0,-60.0,227.0,0
2210,21.0,-59.0,224.0,0
2211,18.0,-60.0,225.0,0
2212,18.0,-63.0,225.0,0
2213,16.0,-66.0,228.0,0
2214,18.0,-67.0,229.0,0
2215,16.0,-70.0,223.0,0
2216,14.0,-72.0,231.0,0
2217,12.0,-72.0,229.0,0
2218,14.0,-74.0,234.0,0
2219,13.0,-73.0,235.0,0
2220,13.0,-75.0,234.0,0
2221,9.0,-80.0,234.0,0
2222,10.0,-77.0,238.0,0
2223,9.0,-76.0,237.0,0
2224,5.0,-72.0,234.0,0
2225,2.0,-69.0,234.0,0
2226,2.0,-67.0,236.0,0
2227,-4.0,-64.0,233.0,0
2228,-4.0,-63.0,231.0,0
2229,-9.0,-55.0,230.0,0
2230,-10.0,-53.0,230.0,0
2231,-10.0,-53.0,234.0,0
2232,-12.0,-53.0,237.0,0
2233,-14.0,-50.0,232.0,0
2234,-16.0,-50.0,229.0,0
2235,-16.0,-50.0,226.0,0
2236,-16.0,-48.0,228.0,0
2237,-13.0,-52.0,226.0,0
2238,-13.0,-56.0,229.0,0
2239,-9.0,-55.0,228.0,0
2240,-11.0,-58.0,230.0,0
2241,-8.0,-63.0,225.0,0
2242,-8.0,-69.0,227.0,0
2243,-4.0,-73.0,229.0,0
2244,-4.0,-76.0,229.0,0
2245,-7.0,-78.0,231.0,0
2246,-4.0,-82.0,228.0,0
2247,-7.0,-84.0,231.0,0
2248,-11.0,-85.0,228.0,0
2249,-9.0,-89.0,231.0,0
2250,-5.0,-91.0,232.0,0
2251,-7.0,-86.0,236.0,0
2252,-5.0,-82.0,232.0,0
2253,-5.0,-80.0,233.0,0
2254,-4.0,-79.0,232.0,0
2255,-8.0,-73.0,236.0,0
2256,-3.0,-73.0,238.0,0
2257,-3.0,-70.0,236.0,0
2258,-2.0,-70.0,243.0,0
2259,-3.0,-67.0,240.0,0
2260,-5.0,-64.0,242.0,0
2261,-4.0,-65.0,238.0,0
2262,-1.0,-64.0,240.0,0
2263,-6.0,-60.0,240.0,0
2264,-5.0,-59.0,238.0,0
2265,-5.0,-60.0,241.0,0
2266,-7.0,-58.0,237.0,0
2267,-8.0,-57.0,235.0,0
2268,-11.0,-53.0,235.0,0
2269,-11.0,-51.0,237.0,0
2270,-13.0,-50.0,233.0,0
2271,-16.0,-45.0,232.0,0
2272,-15.0,-46.0,236.0,0
2273,-13.0,-44.0,232.0,0
2274,-15.0,-43.0,234.0,0
2275,-13.0,-40.0,234.0,0
2276,-15.0,-39.0,240.0,0
2277,-11.0,-40.0,237.0,0
2278,-13.0,-35.0,239.0,0
2279,-9.0,-31.0,236.0,0
2280,-9.0,-32.0,245.0,0
2281,-4.0,-29.0,244.0,0
2282,-3.0,-26.0,242.0,0
2283,-1.0,-24.0,242.0,0
2284,4.0,-23.0,244.0,0
2285,3.0,-21.0,244.0,0
2286,9.0,-18.0,245.0,0
2287,14.0,-18.0,242.0,0
2288,15.0,-21.0,242.0,0
2289,21.0,-22.0,241.0,0
2290,21.0,-22.0,241.0,0
2291,21.0,-27.0,243.0,0
2292,18.0,-34.0,240.0,0
2293,13.0,-39.0,239.0,0
2294,9.0,-46.0,235.0,0
2295,2.0,-55.0,239.0,0
2296,-1.0,-63.0,234.0,0
2297,-6.0,-66.0,235.0,0
2298,-9.0,-68.0,235.0,0
2299,-10.0,-71.0,237.0,0
2300,-10.0,-72.0,227.0,0
2301,-9.0,-75.0,230.0,0
2302,-6.0,-74.0,221.0,0
2303,-3.0,-76.0,224.0,0
2304,-1.0,-78.0,222.0,0
2305,0.0,-75.0,221.0,0
2306,0.0,-77.0,230.0,0
2307,7.0,-74.0,227.0,0
2308,9.0,-72.0,225.0,0
2309,12.0,-66.0,229.0,0
2310,17.0,-67.0,229.0,0
2311,21.0,-65.0,230.0,0
2312,24.0,-58.0,236.0,0
2313,30.0,-53.0,232.0,0
2314,32.0,-51.0,234.0,0
2315,38.0,-45.0,237.0,0
2316,37.0,-39.0,243.0,0
2317,37.0,-35.0,247.0,0
2318,40.0,-31.0,248.0,0
2319,41.0,-29.0,250.0,0
2320,36.0,-19.0,254.0,0
2321,40.0,-20.0,250.0,0
2322,37.0,-17.0,251.0,0
2323,34.0,-16.0,257.0,0
2324,31.0,-14.0,250.0,0
2325,32.0,-13.0,244.0,0
2326,28.0,-16.0,247.0,0
2327,26.0,-17.0,244.0,0
2328,23.0,-18.0,246.0,0
2329,22.0,-23.0,240.0,0
2330,17.0,-26.0,236.0,0
2331,17.0,-30.0,235.0,0
2332,15.0,-33.0,233.0,0
2333,14.0,-33.0,234.0,0
2334,10.0,-38.0,227.0,0
2335,10.0,-43.0,228.0,0
2336,7.0,-44.0,228.0,0
2337,3.0,-46.0,227.0,0
2338,2.0,-47.0,232.0,0
2339,-4.0,-50.0,228.0,0
2340,-9.0,-53.0,229.0,0
2341,-8.0,-52.0,232.0,0
2342,-15.0,-53.0,231.0,0
2343,-18.0,-52.0,232.0,0
2344,-16.0,-51.0,234.0,0
2345,-16.0,-52.0,234.0,0
2346,-23.0,-48.0,237.0,0
2347,-25.0,-47.0,236.0,0
2348,-26.0,-47.0,238.0,0
2349,-27.0,-45.0,239.0,0
2350,-23.0,-44.0,241.0,0
2351,-23.0,-42.0,243.0,0
2352,-19.0,-45.0,242.0,0
2353,-16.0,-41.0,246.0,0
2354,-16.0,-39.0,243.0,0
2355,-15.0,-35.0,249.0,0
2356,-10.0,-35.0,246.0,0
2357,-4.0,-31.0,247.0,0
2358,-6.0,-30.0,248.0,0
2359,-2.0,-28.0,251.0,0
2360,-2.0,-23.0,248.0,0
2361,2.0,-22.0,249.0,0
2362,7.0,-17.0,248.0,0
2363,7.0,-12.0,251.0,0
2364,8.0,-12.0,251.0,0
2365,5.0,-4.0,246.0,0
2366,6.0,-4.0,249.0,0
2367,7.0,-2.0,247.0,0
2368,9.0,-2.0,248.0,0
2369,10.0,1.0,247.0,0
2370,9.0,-3.0,246.0,0
2371,7.0,-2.0,251.0,0
2372,7.0,-4.0,248.0,0
2373,7.0,-4.0,245.0,0
2374,8.0,-4.0,246.0,0
2375,3.0,-6.0,245.0,0
2376,3.0,-10.0,246.0,0
2377,3.0,-13.0,244.0,0
2378,0.0,-12.0,241.0,0
2379,-1.0,-13.0,240.0,0
2380,-1.0,-17.0,239.0,0
2381,-8.0,-14.0,243.0,0
2382,-5.0,-16.0,241.0,0
2383,-9.0,-19.0,236.0,0
2384,-8.0,-21.0,237.0,0
2385,-8.0,-22.0,239.0,0
2386,-7.0,-24.0,241.0,0
2387,-4.0,-21.0,239.0,0
2388,-5.0,-20.0,241.0,0
2389,-9.0,-21.0,241.0,0
2390,-4.0,-20.0,239.0,0
2391,-7.0,-16.0,241.0,0
2392,-3.0,-17.0,240.0,0
2393,-3.0,-18.0,237.0,0
2394,-2.0,-15.0,239.0,0
2395,1.0,-14.0,244.0,0
2396,-1.0,-13.0,242.0,0
2397,-1.0,-13.0,244.0,0
2398,0.0,-12.0,245.0,0
2399,1.0,-12.0,244.0,0
