,accelerometer_x,accelerometer_y,accelerometer_z,fall
0,14.0,-246.0,-76.0,0
1,12.0,-245.0,-77.0,0
2,14.0,-247.0,-77.0,0
3,13.0,-249.0,-79.0,0
4,15.0,-251.0,-77.0,0
5,14.0,-251.0,-85.0,0
6,9.0,-246.0,-78.0,0
7,18.0,-248.0,-81.0,0
8,15.0,-247.0,-73.0,0
9,15.0,-245.0,-75.0,0
10,14.0,-244.0,-76.0,0
11,13.0,-245.0,-76.0,0
12,11.0,-243.0,-77.0,0
13,15.0,-246.0,-75.0,0
14,13.0,-246.0,-79.0,0
15,17.0,-244.0,-78.0,0
16,16.0,-246.0,-78.0,0
17,13.0,-247.0,-80.0,0
18,14.0,-246.0,-79.0,0
19,15.0,-247.0,-82.0,0
20,16.0,-248.0,-78.0,0
21,17.0,-250.0,-73.0,0
22,15.0,-247.0,-78.0,0
23,13.0,-245.0,-76.0,0
24,14.0,-245.0,-77.0,0
25,14.0,-246.0,-78.0,0
26,13.0,-246.0,-77.0,0
27,11.0,-247.0,-78.0,0
28,16.0,-249.0,-76.0,0
29,12.0,-246.0,-80.0,0
30,13.0,-245.0,-76.0,0
31,15.0,-246.0,-77.0,0
32,13.0,-244.0,-78.0,0
33,14.0,-248.0,-77.0,0
34,14.0,-247.0,-79.0,0
35,12.0,-245.0,-77.0,0
36,13.0,-246.0,-80.0,0
37,14.0,-246.0,-79.0,0
38,14.0,-248.0,-79.0,0
39,14.0,-246.0,-75.0,0
40,13.0,-247.0,-77.0,0
41,15.0,-247.0,-80.0,0
42,15.0,-246.0,-79.0,0
43,13.0,-246.0,-78.0,0
44,15.0,-247.0,-79.0,0
45,11.0,-247.0,-80.0,0
46,12.0,-248.0,-75.0,0
47,11.0,-249.0,-78.0,0
48,13.0,-245.0,-74.0,0
49,12.0,-248.0,-79.0,0
50,11.0,-244.0,-79.0,0
51,15.0,-247.0,-78.0,0
52,13.0,-248.0,-76.0,0
53,12.0,-243.0,-80.0,0
54,12.0,-245.0,-81.0,0
55,12.0,-246.0,-79.0,0
56,10.0,-242.0,-81.0,0
57,13.0,-246.0,-81.0,0
58,12.0,-245.0,-79.0,0
59,13.0,-244.0,-79.0,0
60,14.0,-244.0,-81.0,0
61,12.0,-243.0,-77.0,0
62,13.0,-247.0,-80.0,0
63,11.0,-243.0,-75.0,0
64,12.0,-244.0,-78.0,0
65,11.0,-245.0,-75.0,0
66,12.0,-243.0,-78.0,0
67,12.0,-249.0,-79.0,0
68,16.0,-250.0,-78.0,0
69,13.0,-247.0,-78.0,0
70,11.0,-249.0,-76.0,0
71,16.0,-248.0,-58.0,0
72,15.0,-248.0,-78.0,0
73,14.0,-247.0,-81.0,0
74,12.0,-246.0,-81.0,0
75,14.0,-247.0,-82.0,0
76,13.0,-246.0,-80.0,0
77,13.0,-245.0,-79.0,0
78,13.0,-246.0,-80.0,0
79,14.0,-247.0,-78.0,0
80,14.0,-244.0,-78.0,0
81,16.0,-245.0,-79.0,0
82,13.0,-243.0,-78.0,0
83,15.0,-247.0,-76.0,0
84,13.0,-243.0,-78.0,0
85,13.0,-243.0,-77.0,0
86,15.0,-245.0,-76.0,0
87,14.0,-245.0,-80.0,0
88,14.0,-246.0,-79.0,0
89,11.0,-245.0,-76.0,0
90,12.0,-244.0,-78.0,0
91,13.0,-245.0,-80.0,0
92,13.0,-245.0,-76.0,0
93,12.0,-249.0,-77.0,0
94,14.0,-246.0,-78.0,0
95,13.0,-245.0,-78.0,0
96,15.0,-245.0,-77.0,0
97,13.0,-245.0,-76.0,0
98,12.0,-243.0,-76.0,0
99,13.0,-246.0,-79.0,0
100,12.0,-247.0,-80.0,0
101,10.0,-245.0,-78.0,0
102,12.0,-247.0,-78.0,0
103,11.0,-248.0,-79.0,0
104,14.0,-249.0,-82.0,0
105,12.0,-248.0,-76.0,0
106,12.0,-250.0,-79.0,0
107,13.0,-247.0,-81.0,0
108,14.0,-249.0,-79.0,0
109,12.0,-249.0,-78.0,0
110,12.0,-247.0,-81.0,0
111,12.0,-249.0,-79.0,0
112,12.0,-248.0,-82.0,0
113,13.0,-248.0,-83.0,0
114,11.0,-247.0,-79.0,0
115,13.0,-246.0,-78.0,0
116,16.0,-247.0,-78.0,0
117,11.0,-248.0,-77.0,0
118,12.0,-243.0,-79.0,0
119,15.0,-245.0,-81.0,0
120,13.0,-245.0,-78.0,0
121,13.0,-242.0,-82.0,0
122,14.0,-245.0,-79.0,0
123,15.0,-244.0,-81.0,0
124,16.0,-245.0,-81.0,0
125,14.0,-243.0,-81.0,0
126,14.0,-244.0,-82.0,0
127,13.0,-246.0,-79.0,0
128,14.0,-245.0,-81.0,0
129,14.0,-242.0,-81.0,0
130,12.0,-244.0,-81.0,0
131,14.0,-246.0,-81.0,0
132,12.0,-247.0,-80.0,0
133,14.0,-246.0,-83.0,0
134,12.0,-245.0,-79.0,0
135,13.0,-246.0,-78.0,0
136,14.0,-248.0,-79.0,0
137,12.0,-250.0,-78.0,0
138,11.0,-246.0,-81.0,0
139,13.0,-246.0,-78.0,0
140,12.0,-248.0,-80.0,0
141,16.0,-247.0,-80.0,0
142,12.0,-244.0,-79.0,0
143,11.0,-244.0,-83.0,0
144,13.0,-244.0,-78.0,0
145,9.0,-241.0,-78.0,0
146,13.0,-245.0,-78.0,0
147,10.0,-246.0,-75.0,0
148,12.0,-246.0,-80.0,0
149,13.0,-245.0,-80.0,0
150,10.0,-247.0,-80.0,0
151,12.0,-247.0,-79.0,0
152,13.0,-247.0,-78.0,0
153,11.0,-247.0,-81.0,0
154,14.0,-247.0,-79.0,0
155,11.0,-247.0,-81.0,0
156,11.0,-247.0,-82.0,0
157,12.0,-247.0,-81.0,0
158,17.0,-248.0,-81.0,0
159,13.0,-247.0,-84.0,0
160,14.0,-246.0,-78.0,0
161,11.0,-245.0,-82.0,0
162,12.0,-246.0,-81.0,0
163,14.0,-244.0,-82.0,0
164,14.0,-245.0,-80.0,0
165,11.0,-247.0,-81.0,0
166,12.0,-246.0,-80.0,0
167,13.0,-243.0,-82.0,0
168,14.0,-247.0,-84.0,0
169,15.0,-245.0,-82.0,0
170,17.0,-244.0,-82.0,0
171,15.0,-245.0,-83.0,0
172,15.0,-243.0,-80.0,0
173,16.0,-246.0,-84.0,0
174,15.0,-243.0,-80.0,0
175,15.0,-245.0,-79.0,0
176,14.0,-243.0,-78.0,0
177,16.0,-245.0,-77.0,0
178,15.0,-245.0,-78.0,0
179,15.0,-245.0,-80.0,0
180,13.0,-244.0,-79.0,0
181,15.0,-245.0,-76.0,0
182,14.0,-245.0,-80.0,0
183,16.0,-248.0,-78.0,0
184,14.0,-248.0,-81.0,0
185,15.0,-249.0,-79.0,0
186,12.0,-248.0,-78.0,0
187,14.0,-250.0,-83.0,0
188,14.0,-247.0,-84.0,0
189,13.0,-249.0,-79.0,0
190,14.0,-248.0,-80.0,0
191,13.0,-248.0,-82.0,0
192,12.0,-245.0,-81.0,0
193,13.0,-244.0,-80.0,0
194,15.0,-247.0,-81.0,0
195,16.0,-245.0,-84.0,0
196,15.0,-244.0,-79.0,0
197,16.0,-246.0,-78.0,0
198,12.0,-245.0,-77.0,0
199,14.0,-244.0,-78.0,0
200,11.0,-245.0,-79.0,0
201,14.0,-244.0,-81.0,0
202,14.0,-245.0,-82.0,0
203,12.0,-245.0,-82.0,0
204,13.0,-244.0,-81.0,0
205,16.0,-246.0,-80.0,0
206,13.0,-246.0,-82.0,0
207,15.0,-244.0,-80.0,0
208,16.0,-247.0,-85.0,0
209,17.0,-244.0,-80.0,0
210,14.0,-245.0,-81.0,0
211,14.0,-244.0,-78.0,0
212,14.0,-246.0,-85.0,0
213,14.0,-245.0,-82.0,0
214,15.0,-243.0,-82.0,0
215,13.0,-244.0,-79.0,0
216,16.0,-245.0,-78.0,0
217,14.0,-246.0,-77.0,0
218,14.0,-247.0,-82.0,0
219,15.0,-246.0,-81.0,0
220,16.0,-247.0,-79.0,0
221,14.0,-247.0,-81.0,0
222,13.0,-244.0,-80.0,0
223,14.0,-246.0,-79.0,0
224,12.0,-246.0,-80.0,0
225,13.0,-244.0,-80.0,0
226,14.0,-246.0,-83.0,0
227,15.0,-247.0,-78.0,0
228,11.0,-246.0,-81.0,0
229,12.0,-241.0,-78.0,0
230,14.0,-247.0,-83.0,0
231,13.0,-243.0,-79.0,0
232,12.0,-248.0,-78.0,0
233,14.0,-243.0,-80.0,0
234,12.0,-245.0,-78.0,0
235,15.0,-245.0,-80.0,0
236,13.0,-244.0,-79.0,0
237,12.0,-245.0,-78.0,0
238,15.0,-244.0,-80.0,0
239,15.0,-244.0,-79.0,0
240,13.0,-245.0,-81.0,0
241,14.0,-245.0,-82.0,0
242,12.0,-241.0,-83.0,0
243,14.0,-244.0,-77.0,0
244,12.0,-247.0,-85.0,0
245,13.0,-247.0,-78.0,0
246,13.0,-246.0,-77.0,0
247,14.0,-247.0,-80.0,0
248,15.0,-248.0,-76.0,0
249,14.0,-249.0,-71.0,0
250,14.0,-249.0,-80.0,0
251,18.0,-248.0,-79.0,0
252,13.0,-246.0,-80.0,0
253,13.0,-251.0,-80.0,0
254,16.0,-249.0,-78.0,0
255,15.0,-249.0,-83.0,0
256,14.0,-245.0,-76.0,0
257,13.0,-246.0,-80.0,0
258,15.0,-247.0,-82.0,0
259,15.0,-244.0,-79.0,0
260,14.0,-242.0,-82.0,0
261,12.0,-244.0,-81.0,0
262,14.0,-247.0,-78.0,0
263,14.0,-244.0,-83.0,0
264,13.0,-245.0,-77.0,0
265,12.0,-245.0,-82.0,0
266,11.0,-246.0,-78.0,0
267,13.0,-245.0,-76.0,0
268,14.0,-247.0,-78.0,0
269,13.0,-244.0,-81.0,0
270,13.0,-244.0,-78.0,0
271,12.0,-245.0,-82.0,0
272,14.0,-247.0,-78.0,0
273,12.0,-244.0,-82.0,0
274,13.0,-247.0,-79.0,0
275,13.0,-247.0,-77.0,0
276,13.0,-245.0,-77.0,0
277,12.0,-246.0,-75.0,0
278,11.0,-244.0,-81.0,0
279,12.0,-247.0,-78.0,0
280,12.0,-248.0,-81.0,0
281,14.0,-246.0,-79.0,0
282,12.0,-246.0,-76.0,0
283,12.0,-245.0,-78.0,0
284,12.0,-245.0,-80.0,0
285,13.0,-245.0,-78.0,0
286,13.0,-243.0,-81.0,0
287,17.0,-244.0,-77.0,0
288,15.0,-246.0,-80.0,0
289,16.0,-246.0,-79.0,0
290,13.0,-246.0,-79.0,0
291,14.0,-245.0,-78.0,0
292,15.0,-245.0,-77.0,0
293,15.0,-245.0,-77.0,0
294,14.0,-246.0,-81.0,0
295,16.0,-248.0,-81.0,0
296,13.0,-244.0,-82.0,0
297,15.0,-248.0,-78.0,0
298,15.0,-245.0,-80.0,0
299,14.0,-244.0,-77.0,0
300,15.0,-246.0,-76.0,0
301,12.0,-246.0,-82.0,0
302,13.0,-247.0,-80.0,0
303,12.0,-245.0,-77.0,0
304,14.0,-246.0,-77.0,0
305,12.0,-246.0,-80.0,0
306,15.0,-247.0,-76.0,0
307,10.0,-246.0,-79.0,0
308,12.0,-246.0,-76.0,0
309,11.0,-244.0,-80.0,0
310,12.0,-244.0,-76.0,0
311,12.0,-245.0,-79.0,0
312,11.0,-245.0,-80.0,0
313,13.0,-247.0,-84.0,0
314,10.0,-245.0,-79.0,0
315,15.0,-249.0,-77.0,0
316,14.0,-247.0,-78.0,0
317,15.0,-246.0,-82.0,0
318,13.0,-246.0,-75.0,0
319,16.0,-247.0,-80.0,0
320,13.0,-247.0,-75.0,0
321,13.0,-246.0,-80.0,0
322,15.0,-250.0,-79.0,0
323,15.0,-246.0,-80.0,0
324,13.0,-245.0,-78.0,0
325,14.0,-245.0,-74.0,0
326,13.0,-248.0,-77.0,0
327,14.0,-248.0,-75.0,0
328,14.0,-245.0,-79.0,0
329,14.0,-245.0,-76.0,0
330,14.0,-246.0,-79.0,0
331,16.0,-246.0,-78.0,0
332,13.0,-245.0,-78.0,0
333,13.0,-246.0,-79.0,0
334,17.0,-246.0,-77.0,0
335,15.0,-247.0,-74.0,0
336,16.0,-244.0,-80.0,0
337,16.0,-246.0,-78.0,0
338,16.0,-245.0,-81.0,0
339,15.0,-246.0,-73.0,0
340,15.0,-245.0,-80.0,0
341,14.0,-243.0,-80.0,0
342,18.0,-248.0,-89.0,0
343,13.0,-248.0,-88.0,0
344,4.0,-244.0,-80.0,0
345,14.0,-247.0,-80.0,0
346,12.0,-245.0,-86.0,0
347,22.0,-241.0,-86.0,0
348,10.0,-243.0,-81.0,0
349,23.0,-247.0,-61.0,0
350,16.0,-247.0,-81.0,0
351,15.0,-246.0,-78.0,0
352,14.0,-244.0,-77.0,0
353,10.0,-244.0,-78.0,0
354,13.0,-245.0,-78.0,0
355,14.0,-244.0,-77.0,0
356,14.0,-245.0,-79.0,0
357,13.0,-244.0,-78.0,0
358,13.0,-244.0,-79.0,0
359,16.0,-245.0,-80.0,0
360,11.0,-246.0,-77.0,0
361,14.0,-247.0,-79.0,0
362,14.0,-244.0,-75.0,0
363,14.0,-248.0,-80.0,0
364,13.0,-246.0,-80.0,0
365,16.0,-251.0,-77.0,0
366,11.0,-244.0,-77.0,0
367,15.0,-247.0,-77.0,0
368,14.0,-248.0,-78.0,0
369,15.0,-250.0,-78.0,0
370,13.0,-250.0,-80.0,0
371,10.0,-248.0,-80.0,0
372,13.0,-248.0,-81.0,0
373,15.0,-247.0,-78.0,0
374,10.0,-245.0,-77.0,0
375,14.0,-246.0,-74.0,0
376,11.0,-246.0,-77.0,0
377,12.0,-247.0,-75.0,0
378,13.0,-244.0,-78.0,0
379,14.0,-246.0,-78.0,0
380,12.0,-246.0,-83.0,0
381,12.0,-247.0,-76.0,0
382,10.0,-246.0,-78.0,0
383,12.0,-248.0,-80.0,0
384,13.0,-246.0,-80.0,0
385,12.0,-248.0,-73.0,0
386,9.0,-246.0,-80.0,0
387,11.0,-245.0,-80.0,0
388,11.0,-248.0,-76.0,0
389,12.0,-247.0,-82.0,0
390,12.0,-249.0,-75.0,0
391,11.0,-247.0,-79.0,0
392,13.0,-247.0,-78.0,0
393,8.0,-243.0,-77.0,0
394,14.0,-247.0,-82.0,0
395,15.0,-248.0,-82.0,0
396,10.0,-242.0,-79.0,0
397,14.0,-248.0,-78.0,0
398,13.0,-247.0,-76.0,0
399,14.0,-247.0,-74.0,0
400,13.0,-245.0,-79.0,0
401,13.0,-244.0,-76.0,0
402,14.0,-249.0,-78.0,0
403,13.0,-247.0,-77.0,0
404,12.0,-247.0,-78.0,0
405,13.0,-250.0,-78.0,0
406,12.0,-248.0,-77.0,0
407,15.0,-247.0,-81.0,0
408,11.0,-247.0,-79.0,0
409,8.0,-248.0,-80.0,0
410,13.0,-246.0,-78.0,0
411,14.0,-246.0,-82.0,0
412,13.0,-248.0,-77.0,0
413,13.0,-248.0,-80.0,0
414,12.0,-247.0,-81.0,0
415,15.0,-243.0,-79.0,0
416,11.0,-244.0,-81.0,0
417,13.0,-245.0,-83.0,0
418,13.0,-245.0,-80.0,0
419,13.0,-247.0,-80.0,0
420,12.0,-243.0,-80.0,0
421,14.0,-245.0,-80.0,0
422,10.0,-243.0,-78.0,0
423,11.0,-244.0,-84.0,0
424,14.0,-248.0,-81.0,0
425,12.0,-246.0,-77.0,0
426,13.0,-247.0,-75.0,0
427,12.0,-246.0,-77.0,0
428,10.0,-247.0,-77.0,0
429,13.0,-247.0,-77.0,0
430,11.0,-246.0,-75.0,0
431,14.0,-247.0,-75.0,0
432,11.0,-246.0,-78.0,0
433,13.0,-246.0,-78.0,0
434,13.0,-249.0,-78.0,0
435,13.0,-245.0,-76.0,0
436,11.0,-245.0,-81.0,0
437,13.0,-247.0,-80.0,0
438,13.0,-247.0,-80.0,0
439,9.0,-246.0,-75.0,0
440,16.0,-247.0,-74.0,0
441,13.0,-248.0,-76.0,0
442,10.0,-244.0,-77.0,0
443,12.0,-245.0,-75.0,0
444,13.0,-246.0,-77.0,0
445,12.0,-244.0,-78.0,0
446,12.0,-244.0,-75.0,0
447,14.0,-249.0,-78.0,0
448,16.0,-245.0,-79.0,0
449,13.0,-245.0,-80.0,0
450,15.0,-247.0,-79.0,0
451,16.0,-246.0,-76.0,0
452,13.0,-247.0,-81.0,0
453,14.0,-247.0,-78.0,0
454,13.0,-245.0,-77.0,0
455,13.0,-249.0,-78.0,0
456,14.0,-248.0,-75.0,0
457,13.0,-250.0,-80.0,0
458,14.0,-250.0,-79.0,0
459,13.0,-248.0,-78.0,0
460,14.0,-245.0,-80.0,0
461,15.0,-246.0,-79.0,0
462,14.0,-245.0,-79.0,0
463,12.0,-241.0,-79.0,0
464,13.0,-241.0,-77.0,0
465,13.0,-242.0,-80.0,0
466,13.0,-243.0,-83.0,0
467,11.0,-243.0,-79.0,0
468,14.0,-248.0,-74.0,0
469,12.0,-245.0,-79.0,0
470,12.0,-245.0,-77.0,0
471,13.0,-243.0,-78.0,0
472,13.0,-248.0,-79.0,0
473,12.0,-250.0,-76.0,0
474,14.0,-249.0,-81.0,0
475,14.0,-251.0,-76.0,0
476,12.0,-248.0,-80.0,0
477,13.0,-249.0,-76.0,0
478,14.0,-249.0,-80.0,0
479,13.0,-248.0,-79.0,0
480,11.0,-249.0,-81.0,0
481,13.0,-249.0,-78.0,0
482,15.0,-248.0,-75.0,0
483,14.0,-247.0,-75.0,0
484,11.0,-245.0,-79.0,0
485,12.0,-247.0,-80.0,0
486,11.0,-245.0,-78.0,0
487,11.0,-248.0,-75.0,0
488,12.0,-247.0,-75.0,0
489,13.0,-248.0,-80.0,0
490,13.0,-246.0,-76.0,0
491,13.0,-247.0,-79.0,0
492,13.0,-247.0,-77.0,0
493,14.0,-246.0,-77.0,0
494,9.0,-245.0,-78.0,0
495,13.0,-249.0,-76.0,0
496,13.0,-246.0,-76.0,0
497,12.0,-248.0,-77.0,0
498,10.0,-247.0,-78.0,0
499,13.0,-250.0,-74.0,0
500,10.0,-247.0,-79.0,0
501,14.0,-248.0,-77.0,0
502,12.0,-246.0,-80.0,0
503,12.0,-247.0,-78.0,0
504,13.0,-249.0,-77.0,0
505,11.0,-247.0,-73.0,0
506,13.0,-249.0,-80.0,0
507,13.0,-249.0,-80.0,0
508,15.0,-246.0,-76.0,0
509,13.0,-248.0,-80.0,0
510,16.0,-248.0,-74.0,0
511,10.0,-246.0,-78.0,0
512,11.0,-246.0,-75.0,0
513,14.0,-247.0,-77.0,0
514,14.0,-247.0,-79.0,0
515,12.0,-246.0,-77.0,0
516,14.0,-248.0,-75.0,0
517,14.0,-246.0,-76.0,0
518,10.0,-245.0,-81.0,0
519,13.0,-246.0,-76.0,0
520,14.0,-248.0,-77.0,0
521,13.0,-250.0,-77.0,0
522,12.0,-247.0,-77.0,0
523,17.0,-249.0,-79.0,0
524,14.0,-246.0,-78.0,0
525,13.0,-247.0,-79.0,0
526,11.0,-246.0,-80.0,0
527,14.0,-246.0,-78.0,0
528,13.0,-246.0,-76.0,0
529,13.0,-243.0,-78.0,0
530,12.0,-242.0,-75.0,0
531,9.0,-245.0,-76.0,0
532,13.0,-246.0,-76.0,0
533,14.0,-245.0,-76.0,0
534,13.0,-245.0,-74.0,0
535,13.0,-247.0,-80.0,0
536,11.0,-244.0,-73.0,0
537,12.0,-244.0,-81.0,0
538,13.0,-243.0,-76.0,0
539,10.0,-247.0,-79.0,0
540,16.0,-248.0,-76.0,0
541,13.0,-247.0,-74.0,0
542,10.0,-248.0,-80.0,0
543,13.0,-249.0,-77.0,0
544,14.0,-249.0,-75.0,0
545,13.0,-252.0,-77.0,0
546,13.0,-250.0,-75.0,0
547,13.0,-248.0,-73.0,0
548,12.0,-247.0,-75.0,0
549,14.0,-246.0,-75.0,0
550,15.0,-243.0,-79.0,0
551,12.0,-246.0,-76.0,0
552,11.0,-246.0,-78.0,0
553,12.0,-245.0,-77.0,0
554,14.0,-248.0,-78.0,0
555,14.0,-246.0,-79.0,0
556,13.0,-245.0,-77.0,0
557,12.0,-247.0,-74.0,0
558,9.0,-245.0,-75.0,0
559,12.0,-247.0,-77.0,0
560,15.0,-250.0,-78.0,0
561,12.0,-248.0,-74.0,0
562,12.0,-247.0,-78.0,0
563,14.0,-250.0,-78.0,0
564,14.0,-250.0,-78.0,0
565,14.0,-247.0,-76.0,0
566,10.0,-244.0,-76.0,0
567,14.0,-243.0,-74.0,0
568,13.0,-244.0,-70.0,0
569,17.0,-244.0,-75.0,0
570,15.0,-244.0,-74.0,0
571,17.0,-247.0,-70.0,0
572,18.0,-243.0,-77.0,0
573,13.0,-244.0,-74.0,0
574,13.0,-245.0,-72.0,0
575,15.0,-245.0,-76.0,0
576,13.0,-244.0,-77.0,0
577,15.0,-247.0,-77.0,0
578,12.0,-247.0,-77.0,0
579,9.0,-244.0,-77.0,0
580,13.0,-249.0,-77.0,0
581,15.0,-250.0,-74.0,0
582,11.0,-247.0,-77.0,0
583,12.0,-249.0,-74.0,0
584,12.0,-250.0,-79.0,0
585,14.0,-252.0,-79.0,0
586,14.0,-252.0,-80.0,0
587,15.0,-250.0,-77.0,0
588,16.0,-251.0,-75.0,0
589,11.0,-247.0,-78.0,0
590,15.0,-247.0,-79.0,0
591,13.0,-247.0,-74.0,0
592,11.0,-245.0,-78.0,0
593,13.0,-247.0,-81.0,0
594,10.0,-247.0,-78.0,0
595,12.0,-246.0,-78.0,0
596,15.0,-246.0,-79.0,0
597,13.0,-241.0,-80.0,0
598,14.0,-246.0,-78.0,0
599,12.0,-245.0,-79.0,0
600,15.0,-245.0,-79.0,0
601,15.0,-246.0,-75.0,0
602,14.0,-248.0,-70.0,0
603,12.0,-248.0,-72.0,0
604,17.0,-253.0,-77.0,0
605,14.0,-254.0,-75.0,0
606,15.0,-259.0,-75.0,0
607,13.0,-259.0,-64.0,0
608,13.0,-264.0,-59.0,0
609,13.0,-266.0,-65.0,0
610,16.0,-267.0,-75.0,0
611,20.0,-271.0,-86.0,0
612,22.0,-264.0,-98.0,0
613,26.0,-256.0,-114.0,0
614,27.0,-247.0,-130.0,0
615,28.0,-231.0,-150.0,0
616,32.0,-215.0,-166.0,0
617,30.0,-204.0,-167.0,0
618,29.0,-197.0,-164.0,0
619,28.0,-198.0,-155.0,0
620,29.0,-201.0,-150.0,0
621,29.0,-198.0,-150.0,0
622,30.0,-206.0,-143.0,0
623,28.0,-210.0,-141.0,0
624,23.0,-219.0,-131.0,0
625,24.0,-224.0,-125.0,0
626,18.0,-229.0,-121.0,0
627,17.0,-229.0,-112.0,0
628,15.0,-229.0,-107.0,0
629,9.0,-224.0,-97.0,0
630,5.0,-221.0,-99.0,0
631,-1.0,-214.0,-97.0,0
632,-2.0,-210.0,-103.0,0
633,-1.0,-202.0,-112.0,0
634,0.0,-201.0,-120.0,0
635,3.0,-197.0,-126.0,0
636,2.0,-198.0,-134.0,0
637,6.0,-198.0,-137.0,0
638,6.0,-197.0,-141.0,0
639,7.0,-195.0,-146.0,0
640,11.0,-194.0,-149.0,0
641,10.0,-193.0,-149.0,0
642,11.0,-188.0,-151.0,0
643,13.0,-185.0,-149.0,0
644,11.0,-183.0,-153.0,0
645,15.0,-183.0,-153.0,0
646,15.0,-176.0,-153.0,0
647,17.0,-168.0,-156.0,0
648,14.0,-162.0,-159.0,0
649,19.0,-155.0,-164.0,0
650,14.0,-149.0,-159.0,0
651,13.0,-142.0,-159.0,0
652,8.0,-135.0,-161.0,0
653,4.0,-132.0,-154.0,0
654,10.0,-132.0,-145.0,0
655,2.0,-131.0,-134.0,0
656,5.0,-130.0,-123.0,0
657,0.0,-130.0,-115.0,0
658,-3.0,-130.0,-106.0,0
659,-8.0,-131.0,-93.0,0
660,-12.0,-129.0,-91.0,0
661,-12.0,-128.0,-91.0,0
662,-17.0,-122.0,-93.0,0
663,-24.0,-119.0,-93.0,0
664,-26.0,-119.0,-87.0,0
665,-30.0,-116.0,-91.0,0
666,-32.0,-117.0,-90.0,0
667,-30.0,-109.0,-90.0,0
668,-27.0,-110.0,-89.0,0
669,-22.0,-108.0,-90.0,0
670,-13.0,-105.0,-91.0,0
671,-11.0,-108.0,-90.0,0
672,-9.0,-106.0,-95.0,0
673,1.0,-105.0,-101.0,0
674,8.0,-102.0,-103.0,0
675,18.0,-98.0,-112.0,0
676,23.0,-94.0,-120.0,0
677,30.0,-96.0,-124.0,0
678,34.0,-101.0,-138.0,0
679,36.0,-103.0,-139.0,0
680,42.0,-121.0,-143.0,0
681,46.0,-131.0,-142.0,0
682,48.0,-141.0,-135.0,0
683,46.0,-156.0,-136.0,0
684,48.0,-168.0,-135.0,0
685,53.0,-181.0,-136.0,0
686,51.0,-187.0,-139.0,0
687,52.0,-197.0,-145.0,0
688,53.0,-198.0,-140.0,0
689,52.0,-198.0,-144.0,0
690,48.0,-198.0,-136.0,0
691,44.0,-202.0,-133.0,0
692,46.0,-198.0,-126.0,0
693,42.0,-197.0,-122.0,0
694,40.0,-197.0,-117.0,0
695,36.0,-195.0,-105.0,0
696,34.0,-195.0,-104.0,0
697,31.0,-193.0,-102.0,0
698,33.0,-197.0,-100.0,0
699,24.0,-193.0,-101.0,0
700,16.0,-191.0,-101.0,0
701,8.0,-183.0,-100.0,0
702,3.0,-183.0,-94.0,0
703,-9.0,-183.0,-89.0,0
704,-15.0,-180.0,-88.0,0
705,-21.0,-178.0,-83.0,0
706,-28.0,-178.0,-88.0,0
707,-29.0,-173.0,-91.0,0
708,-33.0,-171.0,-94.0,0
709,-27.0,-166.0,-105.0,0
710,-24.0,-162.0,-111.0,0
711,-22.0,-163.0,-117.0,0
712,-15.0,-163.0,-120.0,0
713,-18.0,-163.0,-128.0,0
714,-16.0,-166.0,-138.0,0
715,-11.0,-170.0,-141.0,0
716,-10.0,-179.0,-150.0,0
717,-5.0,-190.0,-152.0,0
718,0.0,-205.0,-152.0,0
719,0.0,-219.0,-161.0,0
720,3.0,-224.0,-164.0,0
721,3.0,-232.0,-170.0,0
722,5.0,-239.0,-177.0,0
723,0.0,-241.0,-184.0,0
724,3.0,-239.0,-189.0,0
725,5.0,-230.0,-192.0,0
726,10.0,-224.0,-190.0,0
727,10.0,-215.0,-191.0,0
728,6.0,-214.0,-195.0,0
729,9.0,-203.0,-193.0,0
730,5.0,-193.0,-192.0,0
731,4.0,-194.0,-185.0,0
732,4.0,-195.0,-179.0,0
733,-4.0,-194.0,-178.0,0
734,-6.0,-195.0,-179.0,0
735,-8.0,-199.0,-177.0,0
736,-7.0,-208.0,-177.0,0
737,-2.0,-217.0,-182.0,0
738,7.0,-225.0,-185.0,0
739,10.0,-235.0,-178.0,0
740,10.0,-236.0,-172.0,0
741,12.0,-242.0,-165.0,0
742,16.0,-242.0,-167.0,0
743,15.0,-235.0,-167.0,0
744,13.0,-229.0,-160.0,0
745,12.0,-222.0,-171.0,0
746,1.0,-215.0,-173.0,0
747,-10.0,-208.0,-180.0,0
748,-21.0,-208.0,-185.0,0
749,-32.0,-206.0,-194.0,0
750,-37.0,-214.0,-196.0,0
751,-41.0,-215.0,-207.0,0
752,-47.0,-225.0,-202.0,0
753,-47.0,-225.0,-191.0,0
754,-41.0,-227.0,-208.0,0
755,-27.0,-226.0,-204.0,0
756,-9.0,-228.0,-203.0,0
757,3.0,-228.0,-209.0,0
758,12.0,-236.0,-206.0,0
759,27.0,-237.0,-216.0,0
760,18.0,-237.0,-213.0,0
761,20.0,-237.0,-209.0,0
762,-1.0,-234.0,-196.0,0
763,-14.0,-229.0,-210.0,0
764,-36.0,-220.0,-206.0,0
765,-51.0,-229.0,-197.0,0
766,-60.0,-238.0,-200.0,0
767,-72.0,-238.0,-204.0,0
768,-78.0,-239.0,-192.0,0
769,-74.0,-254.0,-202.0,0
770,-67.0,-249.0,-203.0,0
771,-44.0,-258.0,-219.0,0
772,-22.0,-259.0,-224.0,0
773,-14.0,-255.0,-229.0,0
774,-9.0,-255.0,-230.0,0
775,5.0,-255.0,-238.0,0
776,7.0,-264.0,-228.0,0
777,-1.0,-273.0,-216.0,0
778,-5.0,-283.0,-217.0,0
779,-24.0,-294.0,-209.0,0
780,-35.0,-298.0,-206.0,0
781,-51.0,-297.0,-205.0,0
782,-60.0,-296.0,-200.0,0
783,-64.0,-297.0,-192.0,0
784,-61.0,-296.0,-191.0,0
785,-52.0,-289.0,-186.0,0
786,-35.0,-299.0,-187.0,0
787,-26.0,-297.0,-188.0,0
788,-17.0,-297.0,-179.0,0
789,-11.0,-289.0,-174.0,0
790,-3.0,-287.0,-172.0,0
791,1.0,-283.0,-165.0,0
792,1.0,-276.0,-157.0,0
793,3.0,-276.0,-159.0,0
794,2.0,-276.0,-156.0,0
795,-11.0,-272.0,-150.0,0
796,-12.0,-271.0,-151.0,0
797,-21.0,-268.0,-144.0,0
798,-20.0,-275.0,-150.0,0
799,-21.0,-280.0,-152.0,0
800,-19.0,-287.0,-151.0,0
801,-11.0,-298.0,-153.0,0
802,-9.0,-298.0,-148.0,0
803,-5.0,-300.0,-139.0,0
804,-7.0,-290.0,-139.0,0
805,-11.0,-280.0,-137.0,0
806,-9.0,-272.0,-130.0,0
807,-9.0,-269.0,-121.0,0
808,-10.0,-262.0,-116.0,0
809,-13.0,-258.0,-112.0,0
810,-16.0,-259.0,-114.0,0
811,-19.0,-258.0,-108.0,0
812,-23.0,-256.0,-112.0,0
813,-21.0,-258.0,-112.0,0
814,-15.0,-260.0,-107.0,0
815,-12.0,-260.0,-105.0,0
816,-6.0,-260.0,-95.0,0
817,1.0,-264.0,-92.0,0
818,-5.0,-272.0,-108.0,0
819,-9.0,-276.0,-116.0,0
820,-15.0,-291.0,-136.0,0
821,-23.0,-310.0,-151.0,0
822,-44.0,-330.0,-215.0,0
823,-64.0,-387.0,-278.0,0
824,-31.0,-487.0,-326.0,0
825,-12.0,-564.0,-358.0,0
826,-22.0,-581.0,-314.0,0
827,-10.0,-548.0,-234.0,0
828,-3.0,-480.0,-190.0,0
829,-17.0,-424.0,-174.0,0
830,-43.0,-365.0,-169.0,0
831,-62.0,-303.0,-153.0,0
832,-71.0,-219.0,-120.0,0
833,-83.0,-119.0,-71.0,0
834,-90.0,-59.0,-47.0,0
835,-89.0,-1.0,-28.0,0
836,-76.0,4.0,-26.0,0
837,-57.0,-23.0,-34.0,0
838,-39.0,-70.0,-45.0,0
839,-18.0,-117.0,-55.0,0
840,-7.0,-161.0,-63.0,0
841,7.0,-201.0,-68.0,0
842,13.0,-225.0,-69.0,0
843,18.0,-245.0,-67.0,0
844,20.0,-260.0,-59.0,0
845,20.0,-267.0,-52.0,0
846,20.0,-276.0,-45.0,0
847,17.0,-276.0,-42.0,0
848,20.0,-279.0,-49.0,0
849,17.0,-276.0,-53.0,0
850,19.0,-280.0,-55.0,0
851,16.0,-284.0,-59.0,0
852,15.0,-290.0,-64.0,0
853,15.0,-296.0,-74.0,0
854,15.0,-298.0,-76.0,0
855,10.0,-300.0,-84.0,0
856,11.0,-297.0,-89.0,0
857,8.0,-290.0,-86.0,0
858,4.0,-280.0,-81.0,0
859,2.0,-267.0,-75.0,0
860,-6.0,-252.0,-65.0,0
861,-12.0,-238.0,-61.0,0
862,-17.0,-227.0,-56.0,0
863,-19.0,-211.0,-53.0,0
864,-22.0,-208.0,-47.0,0
865,-24.0,-205.0,-49.0,0
866,-26.0,-202.0,-49.0,0
867,-25.0,-202.0,-51.0,0
868,-25.0,-212.0,-53.0,0
869,-21.0,-218.0,-55.0,0
870,-21.0,-223.0,-54.0,0
871,-18.0,-230.0,-49.0,0
872,-15.0,-238.0,-52.0,0
873,-15.0,-246.0,-50.0,0
874,-15.0,-244.0,-54.0,0
875,-11.0,-258.0,-58.0,0
876,-8.0,-274.0,-43.0,0
877,-5.0,-258.0,-45.0,0
878,-7.0,-264.0,-21.0,0
879,-3.0,-260.0,-49.0,0
880,-15.0,-267.0,-35.0,0
881,-17.0,-259.0,-35.0,0
882,-19.0,-260.0,-34.0,0
883,-13.0,-256.0,-34.0,0
884,-14.0,-251.0,-35.0,0
885,-14.0,-251.0,-32.0,0
886,-13.0,-237.0,-48.0,0
887,-14.0,-245.0,-35.0,0
888,-12.0,-246.0,-34.0,0
889,-12.0,-248.0,-35.0,0
890,-11.0,-248.0,-36.0,0
891,-9.0,-249.0,-36.0,0
892,-7.0,-251.0,-42.0,0
893,-5.0,-254.0,-43.0,0
894,-6.0,-248.0,-48.0,0
895,-5.0,-249.0,-42.0,0
896,-1.0,-248.0,-47.0,0
897,-4.0,-248.0,-44.0,0
898,-3.0,-245.0,-51.0,0
899,-2.0,-248.0,-49.0,0
900,-3.0,-246.0,-49.0,0
901,-4.0,-249.0,-52.0,0
902,-3.0,-249.0,-48.0,0
903,-4.0,-247.0,-40.0,0
904,-6.0,-250.0,-36.0,0
905,-6.0,-251.0,-39.0,0
906,-6.0,-254.0,-35.0,0
907,-5.0,-256.0,-25.0,0
908,-4.0,-257.0,-36.0,0
909,-5.0,-252.0,-38.0,0
910,-4.0,-254.0,-37.0,0
911,-5.0,-257.0,-37.0,0
912,-2.0,-258.0,-40.0,0
913,1.0,-255.0,-35.0,0
914,4.0,-256.0,-39.0,0
915,4.0,-254.0,-34.0,0
916,6.0,-253.0,-33.0,0
917,11.0,-252.0,-36.0,0
918,13.0,-252.0,-33.0,0
919,13.0,-251.0,-36.0,0
920,15.0,-250.0,-34.0,0
921,12.0,-248.0,-30.0,0
922,15.0,-244.0,-29.0,0
923,10.0,-240.0,-25.0,0
924,15.0,-240.0,-17.0,0
925,16.0,-239.0,-14.0,0
926,15.0,-235.0,-13.0,0
927,15.0,-237.0,-8.0,0
928,13.0,-236.0,-4.0,0
929,16.0,-241.0,-4.0,0
930,19.0,-245.0,-5.0,0
931,18.0,-247.0,-7.0,0
932,19.0,-251.0,-5.0,0
933,21.0,-256.0,-7.0,0
934,18.0,-254.0,-7.0,0
935,19.0,-259.0,-9.0,0
936,20.0,-258.0,-13.0,0
937,18.0,-256.0,-7.0,0
938,14.0,-258.0,-10.0,0
939,15.0,-259.0,-15.0,0
940,13.0,-259.0,-10.0,0
941,13.0,-258.0,-13.0,0
942,12.0,-257.0,-13.0,0
943,12.0,-256.0,-12.0,0
944,13.0,-253.0,-14.0,0
945,14.0,-250.0,-17.0,0
946,8.0,-250.0,-13.0,0
947,10.0,-251.0,-11.0,0
948,12.0,-251.0,-12.0,0
949,11.0,-249.0,-13.0,0
950,14.0,-250.0,-12.0,0
951,13.0,-246.0,-19.0,0
952,14.0,-247.0,-17.0,0
953,14.0,-248.0,-14.0,0
954,13.0,-245.0,-20.0,0
955,17.0,-249.0,-20.0,0
956,17.0,-246.0,-24.0,0
957,20.0,-248.0,-23.0,0
958,15.0,-248.0,-23.0,0
959,14.0,-253.0,-15.0,0
960,17.0,-258.0,-19.0,0
961,15.0,-254.0,-19.0,0
962,15.0,-256.0,-19.0,0
963,15.0,-258.0,-19.0,0
964,12.0,-258.0,-22.0,0
965,12.0,-260.0,-21.0,0
966,12.0,-258.0,-25.0,0
967,10.0,-257.0,-19.0,0
968,6.0,-254.0,-25.0,0
969,7.0,-255.0,-25.0,0
970,8.0,-256.0,-22.0,0
971,8.0,-251.0,-22.0,0
972,9.0,-255.0,-20.0,0
973,8.0,-253.0,-22.0,0
974,12.0,-255.0,-18.0,0
975,13.0,-254.0,-13.0,0
976,16.0,-254.0,-13.0,0
977,16.0,-253.0,-9.0,0
978,18.0,-255.0,-11.0,0
979,17.0,-255.0,-11.0,0
980,19.0,-254.0,-12.0,0
981,20.0,-255.0,-10.0,0
982,19.0,-253.0,-9.0,0
983,18.0,-252.0,-10.0,0
984,14.0,-250.0,-13.0,0
985,15.0,-249.0,-12.0,0
986,15.0,-248.0,-8.0,0
987,13.0,-248.0,-6.0,0
988,9.0,-251.0,-5.0,0
989,10.0,-248.0,-6.0,0
990,8.0,-248.0,-7.0,0
991,10.0,-253.0,-11.0,0
992,8.0,-252.0,-11.0,0
993,8.0,-256.0,-9.0,0
994,10.0,-255.0,-10.0,0
995,11.0,-256.0,-12.0,0
996,10.0,-258.0,-16.0,0
997,12.0,-257.0,-16.0,0
998,11.0,-260.0,-12.0,0
999,14.0,-258.0,-10.0,0
1000,15.0,-259.0,-11.0,0
1001,15.0,-256.0,-15.0,0
1002,15.0,-256.0,-11.0,0
1003,14.0,-254.0,-14.0,0
1004,15.0,-256.0,-15.0,0
1005,17.0,-255.0,-15.0,0
1006,14.0,-254.0,-15.0,0
1007,17.0,-256.0,-16.0,0
1008,14.0,-253.0,-15.0,0
1009,16.0,-254.0,-16.0,0
1010,14.0,-254.0,-17.0,0
1011,15.0,-253.0,-19.0,0
1012,16.0,-253.0,-15.0,0
1013,18.0,-251.0,-14.0,0
1014,18.0,-250.0,-14.0,0
1015,19.0,-253.0,-9.0,0
1016,19.0,-252.0,-12.0,0
1017,20.0,-251.0,-9.0,0
1018,19.0,-250.0,-11.0,0
1019,17.0,-252.0,-9.0,0
1020,17.0,-250.0,-7.0,0
1021,20.0,-253.0,-9.0,0
1022,17.0,-253.0,-10.0,0
1023,16.0,-252.0,-10.0,0
1024,20.0,-254.0,-7.0,0
1025,18.0,-256.0,-9.0,0
1026,17.0,-256.0,-9.0,0
1027,18.0,-253.0,-13.0,0
1028,17.0,-255.0,-12.0,0
1029,14.0,-253.0,-13.0,0
1030,15.0,-252.0,-17.0,0
1031,17.0,-253.0,-9.0,0
1032,15.0,-249.0,-13.0,0
1033,14.0,-248.0,-11.0,0
1034,15.0,-251.0,-15.0,0
1035,13.0,-253.0,-13.0,0
1036,11.0,-250.0,-16.0,0
1037,14.0,-251.0,-15.0,0
1038,13.0,-253.0,-18.0,0
1039,10.0,-251.0,-17.0,0
1040,15.0,-257.0,-15.0,0
1041,14.0,-257.0,-19.0,0
1042,13.0,-255.0,-16.0,0
1043,13.0,-259.0,-18.0,0
1044,14.0,-260.0,-20.0,0
1045,11.0,-258.0,-18.0,0
1046,14.0,-260.0,-22.0,0
1047,14.0,-262.0,-21.0,0
1048,16.0,-262.0,-23.0,0
1049,14.0,-260.0,-20.0,0
1050,13.0,-261.0,-23.0,0
1051,9.0,-260.0,-24.0,0
1052,13.0,-260.0,-20.0,0
1053,15.0,-261.0,-21.0,0
1054,14.0,-260.0,-19.0,0
1055,12.0,-258.0,-18.0,0
1056,9.0,-257.0,-21.0,0
1057,11.0,-257.0,-15.0,0
1058,8.0,-253.0,-22.0,0
1059,12.0,-254.0,-23.0,0
1060,9.0,-256.0,-22.0,0
1061,7.0,-253.0,-22.0,0
1062,12.0,-252.0,-23.0,0
1063,12.0,-254.0,-23.0,0
1064,11.0,-250.0,-21.0,0
1065,14.0,-253.0,-21.0,0
1066,14.0,-252.0,-21.0,0
1067,15.0,-254.0,-23.0,0
1068,16.0,-256.0,-21.0,0
1069,15.0,-257.0,-21.0,0
1070,17.0,-259.0,-22.0,0
1071,17.0,-255.0,-21.0,0
1072,17.0,-255.0,-19.0,0
1073,15.0,-253.0,-17.0,0
1074,14.0,-254.0,-18.0,0
1075,16.0,-255.0,-16.0,0
1076,15.0,-256.0,-19.0,0
1077,17.0,-257.0,-17.0,0
1078,14.0,-256.0,-15.0,0
1079,11.0,-253.0,-18.0,0
1080,10.0,-255.0,-19.0,0
1081,11.0,-254.0,-14.0,0
1082,10.0,-256.0,-13.0,0
1083,14.0,-256.0,-16.0,0
1084,12.0,-255.0,-13.0,0
1085,14.0,-257.0,-16.0,0
1086,11.0,-255.0,-18.0,0
1087,11.0,-257.0,-17.0,0
1088,14.0,-257.0,-13.0,0
1089,10.0,-257.0,-16.0,0
1090,11.0,-251.0,-14.0,0
1091,12.0,-255.0,-11.0,0
1092,13.0,-254.0,-15.0,0
1093,14.0,-254.0,-18.0,0
1094,12.0,-256.0,-18.0,0
1095,16.0,-255.0,-16.0,0
1096,14.0,-256.0,-18.0,0
1097,17.0,-256.0,-20.0,0
1098,18.0,-257.0,-18.0,0
1099,18.0,-256.0,-14.0,0
1100,16.0,-258.0,-17.0,0
1101,14.0,-258.0,-18.0,0
1102,17.0,-256.0,-17.0,0
1103,16.0,-257.0,-14.0,0
1104,15.0,-256.0,-15.0,0
1105,13.0,-254.0,-14.0,0
1106,14.0,-255.0,-13.0,0
1107,13.0,-254.0,-14.0,0
1108,10.0,-254.0,-11.0,0
1109,17.0,-256.0,-14.0,0
1110,16.0,-253.0,-15.0,0
1111,13.0,-253.0,-13.0,0
1112,15.0,-255.0,-16.0,0
1113,15.0,-256.0,-12.0,0
1114,16.0,-256.0,-13.0,0
1115,15.0,-257.0,-15.0,0
1116,15.0,-254.0,-15.0,0
1117,17.0,-256.0,-15.0,0
1118,19.0,-257.0,-15.0,0
1119,14.0,-256.0,-14.0,0
1120,13.0,-254.0,-16.0,0
1121,15.0,-254.0,-17.0,0
1122,16.0,-255.0,-13.0,0
1123,18.0,-256.0,-13.0,0
1124,14.0,-256.0,-16.0,0
1125,14.0,-253.0,-16.0,0
1126,16.0,-254.0,-14.0,0
1127,13.0,-251.0,-10.0,0
1128,9.0,-251.0,-17.0,0
1129,9.0,-254.0,-14.0,0
1130,12.0,-254.0,-13.0,0
1131,10.0,-255.0,-12.0,0
1132,14.0,-255.0,-13.0,0
1133,13.0,-259.0,-14.0,0
1134,10.0,-257.0,-12.0,0
1135,11.0,-256.0,-11.0,0
1136,9.0,-256.0,-16.0,0
1137,12.0,-256.0,-13.0,0
1138,13.0,-255.0,-15.0,0
1139,11.0,-258.0,-16.0,0
1140,12.0,-253.0,-13.0,0
1141,12.0,-257.0,-14.0,0
1142,13.0,-255.0,-14.0,0
1143,17.0,-259.0,-11.0,0
1144,14.0,-257.0,-13.0,0
1145,13.0,-255.0,-12.0,0
1146,19.0,-254.0,-14.0,0
1147,16.0,-254.0,-12.0,0
1148,17.0,-253.0,-16.0,0
1149,16.0,-253.0,-16.0,0
1150,14.0,-253.0,-16.0,0
1151,15.0,-253.0,-17.0,0
1152,16.0,-252.0,-11.0,0
1153,14.0,-254.0,-14.0,0
1154,16.0,-252.0,-14.0,0
1155,17.0,-255.0,-17.0,0
1156,19.0,-256.0,-16.0,0
1157,17.0,-255.0,-19.0,0
1158,14.0,-254.0,-16.0,0
1159,15.0,-256.0,-14.0,0
1160,16.0,-254.0,-18.0,0
1161,15.0,-256.0,-14.0,0
1162,15.0,-254.0,-15.0,0
1163,13.0,-254.0,-8.0,0
1164,12.0,-253.0,-12.0,0
1165,13.0,-253.0,-8.0,0
1166,11.0,-253.0,-14.0,0
1167,13.0,-254.0,-9.0,0
1168,16.0,-256.0,-14.0,0
1169,10.0,-253.0,-12.0,0
1170,15.0,-257.0,-8.0,0
1171,13.0,-255.0,-18.0,0
1172,13.0,-254.0,-11.0,0
1173,14.0,-256.0,-14.0,0
1174,16.0,-257.0,-17.0,0
1175,13.0,-258.0,-15.0,0
1176,14.0,-257.0,-17.0,0
1177,15.0,-256.0,-14.0,0
1178,13.0,-255.0,-12.0,0
1179,13.0,-254.0,-11.0,0
1180,12.0,-256.0,-13.0,0
1181,13.0,-255.0,-15.0,0
1182,15.0,-256.0,-10.0,0
1183,13.0,-256.0,-11.0,0
1184,11.0,-253.0,-18.0,0
1185,11.0,-255.0,-13.0,0
1186,14.0,-253.0,-15.0,0
1187,14.0,-256.0,-15.0,0
1188,15.0,-257.0,-13.0,0
1189,16.0,-255.0,-14.0,0
1190,15.0,-256.0,-14.0,0
1191,16.0,-256.0,-13.0,0
1192,12.0,-256.0,-14.0,0
1193,12.0,-256.0,-18.0,0
1194,15.0,-254.0,-15.0,0
1195,13.0,-257.0,-15.0,0
1196,12.0,-257.0,-12.0,0
1197,13.0,-255.0,-13.0,0
1198,13.0,-254.0,-13.0,0
1199,15.0,-256.0,-13.0,0
1200,14.0,-255.0,-13.0,0
1201,13.0,-255.0,-12.0,0
1202,15.0,-255.0,-15.0,0
1203,11.0,-258.0,-12.0,0
1204,13.0,-254.0,-14.0,0
1205,15.0,-257.0,-11.0,0
1206,12.0,-255.0,-15.0,0
1207,14.0,-257.0,-12.0,0
1208,12.0,-256.0,-15.0,0
1209,13.0,-257.0,-16.0,0
1210,12.0,-256.0,-14.0,0
1211,12.0,-256.0,-13.0,0
1212,14.0,-256.0,-11.0,0
1213,11.0,-257.0,-13.0,0
1214,12.0,-253.0,-9.0,0
1215,10.0,-253.0,-11.0,0
1216,14.0,-255.0,-10.0,0
1217,11.0,-253.0,-10.0,0
1218,11.0,-254.0,-10.0,0
1219,14.0,-255.0,-14.0,0
1220,15.0,-253.0,-8.0,0
1221,12.0,-253.0,-9.0,0
1222,13.0,-255.0,-11.0,0
1223,12.0,-254.0,-10.0,0
1224,13.0,-257.0,-12.0,0
1225,14.0,-257.0,-11.0,0
1226,16.0,-257.0,-14.0,0
1227,12.0,-255.0,-12.0,0
1228,14.0,-253.0,-13.0,0
1229,14.0,-254.0,-18.0,0
1230,16.0,-253.0,-14.0,0
1231,17.0,-253.0,-20.0,0
1232,18.0,-254.0,-14.0,0
1233,17.0,-256.0,-14.0,0
1234,17.0,-254.0,-11.0,0
1235,15.0,-255.0,-11.0,0
1236,15.0,-254.0,-9.0,0
1237,15.0,-255.0,-11.0,0
1238,15.0,-256.0,-12.0,0
1239,15.0,-255.0,-16.0,0
1240,11.0,-253.0,-11.0,0
1241,14.0,-255.0,-15.0,0
1242,17.0,-254.0,-19.0,0
1243,14.0,-253.0,-15.0,0
1244,15.0,-254.0,-13.0,0
1245,14.0,-254.0,-16.0,0
1246,16.0,-254.0,-14.0,0
1247,15.0,-256.0,-18.0,0
1248,15.0,-254.0,-13.0,0
1249,13.0,-255.0,-15.0,0
1250,14.0,-256.0,-14.0,0
1251,14.0,-257.0,-13.0,0
1252,16.0,-258.0,-12.0,0
1253,16.0,-255.0,-10.0,0
1254,16.0,-257.0,-11.0,0
1255,13.0,-256.0,-13.0,0
1256,17.0,-257.0,-15.0,0
1257,14.0,-257.0,-9.0,0
1258,16.0,-256.0,-16.0,0
1259,13.0,-253.0,-14.0,0
1260,15.0,-255.0,-13.0,0
1261,17.0,-254.0,-16.0,0
1262,12.0,-253.0,-17.0,0
1263,14.0,-255.0,-10.0,0
1264,14.0,-254.0,-14.0,0
1265,14.0,-253.0,-12.0,0
1266,15.0,-257.0,-8.0,0
1267,16.0,-257.0,-14.0,0
1268,13.0,-252.0,-9.0,0
1269,13.0,-254.0,-16.0,0
1270,11.0,-252.0,-12.0,0
1271,12.0,-253.0,-13.0,0
1272,11.0,-254.0,-11.0,0
1273,14.0,-253.0,-10.0,0
1274,14.0,-256.0,-9.0,0
1275,15.0,-257.0,-11.0,0
1276,12.0,-256.0,-12.0,0
1277,17.0,-255.0,-12.0,0
1278,13.0,-256.0,-11.0,0
1279,11.0,-256.0,-11.0,0
1280,15.0,-257.0,-15.0,0
1281,13.0,-257.0,-13.0,0
1282,16.0,-258.0,-13.0,0
1283,15.0,-256.0,-13.0,0
1284,17.0,-253.0,-7.0,0
1285,16.0,-254.0,-9.0,0
1286,14.0,-256.0,-14.0,0
1287,16.0,-256.0,-11.0,0
1288,14.0,-255.0,-11.0,0
1289,15.0,-256.0,-11.0,0
1290,14.0,-252.0,-12.0,0
1291,15.0,-253.0,-9.0,0
1292,15.0,-254.0,-15.0,0
1293,14.0,-257.0,-13.0,0
1294,13.0,-254.0,-10.0,0
1295,15.0,-254.0,-10.0,0
1296,16.0,-256.0,-10.0,0
1297,14.0,-257.0,-11.0,0
1298,17.0,-257.0,-10.0,0
1299,15.0,-256.0,-11.0,0
1300,13.0,-256.0,-15.0,0
1301,12.0,-255.0,-12.0,0
1302,15.0,-255.0,-14.0,0
1303,14.0,-256.0,-11.0,0
1304,13.0,-256.0,-16.0,0
1305,18.0,-257.0,-14.0,0
1306,14.0,-256.0,-13.0,0
1307,11.0,-255.0,-12.0,0
1308,15.0,-254.0,-8.0,0
1309,13.0,-254.0,-9.0,0
1310,12.0,-255.0,-13.0,0
1311,18.0,-255.0,-12.0,0
1312,15.0,-256.0,-10.0,0
1313,16.0,-258.0,-17.0,0
1314,15.0,-257.0,-13.0,0
1315,15.0,-256.0,-13.0,0
1316,15.0,-257.0,-11.0,0
1317,13.0,-251.0,-16.0,0
1318,12.0,-255.0,-13.0,0
1319,14.0,-256.0,-15.0,0
1320,15.0,-255.0,-15.0,0
1321,13.0,-256.0,-10.0,0
1322,11.0,-255.0,-17.0,0
1323,14.0,-255.0,-12.0,0
1324,13.0,-255.0,-8.0,0
1325,13.0,-254.0,-11.0,0
1326,14.0,-256.0,-10.0,0
1327,11.0,-250.0,-9.0,0
1328,17.0,-252.0,-7.0,0
1329,14.0,-257.0,-10.0,0
1330,15.0,-254.0,-9.0,0
1331,14.0,-256.0,-9.0,0
1332,14.0,-257.0,-8.0,0
1333,14.0,-256.0,-7.0,0
1334,15.0,-254.0,-14.0,0
1335,16.0,-257.0,-11.0,0
1336,13.0,-254.0,-17.0,0
1337,14.0,-255.0,-14.0,0
1338,15.0,-255.0,-15.0,0
1339,13.0,-256.0,-15.0,0
1340,17.0,-256.0,-16.0,0
1341,13.0,-257.0,-15.0,0
1342,13.0,-255.0,-13.0,0
1343,14.0,-255.0,-15.0,0
1344,13.0,-256.0,-11.0,0
1345,17.0,-257.0,-14.0,0
1346,14.0,-257.0,-11.0,0
1347,12.0,-254.0,-12.0,0
1348,14.0,-253.0,-8.0,0
1349,14.0,-255.0,-13.0,0
1350,13.0,-255.0,-7.0,0
1351,14.0,-254.0,-13.0,0
1352,13.0,-252.0,-9.0,0
1353,16.0,-255.0,-11.0,0
1354,15.0,-256.0,-8.0,0
1355,12.0,-253.0,-17.0,0
1356,13.0,-254.0,-13.0,0
1357,13.0,-253.0,-11.0,0
1358,13.0,-252.0,-11.0,0
1359,12.0,-254.0,-12.0,0
1360,16.0,-255.0,-8.0,0
1361,12.0,-255.0,-12.0,0
1362,13.0,-254.0,-12.0,0
1363,16.0,-255.0,-10.0,0
1364,15.0,-257.0,-15.0,0
1365,15.0,-253.0,-14.0,0
1366,16.0,-254.0,-14.0,0
1367,15.0,-255.0,-11.0,0
1368,17.0,-257.0,-16.0,0
1369,15.0,-255.0,-13.0,0
1370,15.0,-256.0,-14.0,0
1371,16.0,-259.0,-13.0,0
1372,17.0,-257.0,-15.0,0
1373,12.0,-257.0,-10.0,0
1374,15.0,-256.0,-16.0,0
1375,16.0,-257.0,-14.0,0
1376,15.0,-254.0,-12.0,0
1377,16.0,-256.0,-16.0,0
1378,17.0,-258.0,-9.0,0
1379,14.0,-253.0,-10.0,0
1380,16.0,-254.0,-14.0,0
1381,14.0,-257.0,-14.0,0
1382,14.0,-254.0,-12.0,0
1383,15.0,-252.0,-12.0,0
1384,15.0,-255.0,-15.0,0
1385,16.0,-249.0,-11.0,0
1386,15.0,-256.0,-16.0,0
1387,21.0,-258.0,-16.0,0
1388,20.0,-261.0,2.0,0
1389,17.0,-247.0,-13.0,0
1390,10.0,-255.0,-9.0,0
1391,10.0,-251.0,-26.0,0
1392,17.0,-260.0,-24.0,0
1393,18.0,-254.0,-26.0,0
1394,13.0,-257.0,-14.0,0
1395,12.0,-256.0,-9.0,0
1396,13.0,-254.0,-12.0,0
1397,15.0,-256.0,-12.0,0
1398,13.0,-255.0,-17.0,0
1399,15.0,-255.0,-11.0,0
1400,14.0,-255.0,-10.0,0
1401,17.0,-259.0,-13.0,0
1402,14.0,-253.0,-9.0,0
1403,13.0,-257.0,-12.0,0
1404,18.0,-257.0,-12.0,0
1405,13.0,-254.0,-7.0,0
1406,13.0,-257.0,-7.0,0
1407,14.0,-254.0,-12.0,0
1408,14.0,-255.0,-16.0,0
1409,12.0,-255.0,-13.0,0
1410,13.0,-255.0,-14.0,0
1411,14.0,-255.0,-13.0,0
1412,13.0,-253.0,-11.0,0
1413,14.0,-256.0,-9.0,0
1414,11.0,-253.0,-12.0,0
1415,14.0,-254.0,-8.0,0
1416,13.0,-253.0,-10.0,0
1417,16.0,-256.0,-11.0,0
1418,15.0,-257.0,-10.0,0
1419,14.0,-253.0,-9.0,0
1420,14.0,-254.0,-11.0,0
1421,16.0,-254.0,-12.0,0
1422,14.0,-254.0,-8.0,0
1423,13.0,-253.0,-13.0,0
1424,13.0,-254.0,-12.0,0
1425,11.0,-255.0,-12.0,0
1426,16.0,-256.0,-11.0,0
1427,11.0,-254.0,-16.0,0
1428,12.0,-254.0,-14.0,0
1429,16.0,-257.0,-13.0,0
1430,16.0,-256.0,-13.0,0
1431,13.0,-254.0,-12.0,0
1432,16.0,-255.0,-14.0,0
1433,15.0,-253.0,-11.0,0
1434,16.0,-254.0,-13.0,0
1435,16.0,-258.0,-9.0,0
1436,13.0,-256.0,-15.0,0
1437,13.0,-251.0,-8.0,0
1438,15.0,-255.0,-9.0,0
1439,14.0,-254.0,-7.0,0
1440,11.0,-252.0,-9.0,0
1441,9.0,-254.0,-11.0,0
1442,12.0,-255.0,-12.0,0
1443,14.0,-257.0,-15.0,0
1444,13.0,-257.0,-9.0,0
1445,17.0,-257.0,-12.0,0
1446,15.0,-257.0,-13.0,0
1447,16.0,-256.0,-10.0,0
1448,13.0,-256.0,-15.0,0
1449,14.0,-258.0,-16.0,0
1450,14.0,-255.0,-11.0,0
1451,15.0,-255.0,-13.0,0
1452,14.0,-255.0,-10.0,0
1453,16.0,-257.0,-12.0,0
1454,13.0,-253.0,-16.0,0
1455,9.0,-254.0,-17.0,0
1456,15.0,-256.0,-9.0,0
1457,14.0,-255.0,-14.0,0
1458,13.0,-253.0,-10.0,0
1459,13.0,-255.0,-11.0,0
1460,12.0,-257.0,-10.0,0
1461,11.0,-254.0,-6.0,0
1462,13.0,-253.0,-16.0,0
1463,14.0,-254.0,-13.0,0
1464,12.0,-254.0,-11.0,0
1465,10.0,-252.0,-14.0,0
1466,12.0,-254.0,-12.0,0
1467,14.0,-252.0,-9.0,0
1468,11.0,-254.0,-13.0,0
1469,14.0,-257.0,-10.0,0
1470,13.0,-253.0,-10.0,0
1471,12.0,-256.0,-8.0,0
1472,12.0,-255.0,-11.0,0
1473,11.0,-252.0,-10.0,0
1474,10.0,-258.0,-14.0,0
1475,11.0,-256.0,-13.0,0
1476,15.0,-256.0,-12.0,0
1477,13.0,-255.0,-9.0,0
1478,14.0,-254.0,-12.0,0
1479,16.0,-256.0,-14.0,0
1480,15.0,-257.0,-16.0,0
1481,14.0,-255.0,-10.0,0
1482,14.0,-253.0,-10.0,0
1483,11.0,-253.0,-12.0,0
1484,13.0,-254.0,-13.0,0
1485,14.0,-252.0,-11.0,0
1486,16.0,-255.0,-10.0,0
1487,15.0,-255.0,-13.0,0
1488,13.0,-255.0,-12.0,0
1489,16.0,-256.0,-13.0,0
1490,15.0,-255.0,-10.0,0
1491,14.0,-253.0,-10.0,0
1492,15.0,-255.0,-10.0,0
1493,12.0,-254.0,-11.0,0
1494,14.0,-254.0,-11.0,0
1495,13.0,-255.0,-10.0,0
1496,15.0,-253.0,-12.0,0
1497,14.0,-257.0,-14.0,0
1498,12.0,-257.0,-12.0,0
1499,12.0,-256.0,-12.0,0
1500,16.0,-257.0,-10.0,0
1501,12.0,-254.0,-9.0,0
1502,13.0,-257.0,-10.0,0
1503,13.0,-255.0,-14.0,0
1504,14.0,-257.0,-12.0,0
1505,16.0,-257.0,-8.0,0
1506,16.0,-256.0,-8.0,0
1507,13.0,-257.0,-6.0,0
1508,15.0,-258.0,-11.0,0
1509,15.0,-255.0,-8.0,0
1510,11.0,-256.0,-15.0,0
1511,13.0,-254.0,-13.0,0
1512,16.0,-256.0,-11.0,0
1513,9.0,-253.0,-13.0,0
1514,17.0,-254.0,-9.0,0
1515,14.0,-254.0,-8.0,0
1516,14.0,-255.0,-12.0,0
1517,13.0,-254.0,-10.0,0
1518,12.0,-257.0,-6.0,0
1519,12.0,-255.0,-9.0,0
1520,12.0,-257.0,-11.0,0
1521,11.0,-254.0,-12.0,0
1522,13.0,-255.0,-10.0,0
1523,12.0,-254.0,-14.0,0
1524,11.0,-251.0,-11.0,0
1525,14.0,-255.0,-7.0,0
1526,13.0,-253.0,-13.0,0
1527,11.0,-255.0,-9.0,0
1528,16.0,-254.0,-12.0,0
1529,13.0,-260.0,-12.0,0
1530,17.0,-257.0,-10.0,0
1531,14.0,-258.0,-11.0,0
1532,15.0,-258.0,-9.0,0
1533,16.0,-259.0,-11.0,0
1534,14.0,-258.0,-15.0,0
1535,12.0,-260.0,-5.0,0
1536,13.0,-257.0,-8.0,0
1537,13.0,-258.0,-11.0,0
1538,12.0,-256.0,-10.0,0
1539,11.0,-254.0,-13.0,0
1540,13.0,-254.0,-10.0,0
1541,11.0,-253.0,-12.0,0
1542,12.0,-254.0,-10.0,0
1543,13.0,-256.0,-13.0,0
1544,14.0,-257.0,-12.0,0
1545,15.0,-258.0,-8.0,0
1546,14.0,-259.0,-8.0,0
1547,13.0,-262.0,-13.0,0
1548,13.0,-263.0,-12.0,0
1549,13.0,-263.0,-7.0,0
1550,12.0,-265.0,-7.0,0
1551,12.0,-267.0,1.0,0
1552,15.0,-270.0,2.0,0
1553,11.0,-268.0,9.0,0
1554,17.0,-266.0,8.0,0
1555,18.0,-263.0,10.0,0
1556,18.0,-261.0,3.0,0
1557,19.0,-260.0,2.0,0
1558,15.0,-252.0,-9.0,0
1559,13.0,-251.0,-16.0,0
1560,15.0,-245.0,-22.0,0
1561,13.0,-238.0,-21.0,0
1562,10.0,-229.0,-32.0,0
1563,12.0,-222.0,-35.0,0
1564,12.0,-212.0,-39.0,0
1565,15.0,-200.0,-43.0,0
1566,15.0,-190.0,-46.0,0
1567,11.0,-183.0,-46.0,0
1568,14.0,-177.0,-45.0,0
1569,11.0,-178.0,-42.0,0
1570,13.0,-183.0,-44.0,0
1571,17.0,-199.0,-49.0,0
1572,15.0,-217.0,-56.0,0
1573,16.0,-246.0,-56.0,0
1574,11.0,-277.0,-54.0,0
1575,7.0,-301.0,-51.0,0
1576,1.0,-313.0,-46.0,0
1577,-2.0,-320.0,-43.0,0
1578,-3.0,-319.0,-45.0,0
1579,-6.0,-307.0,-46.0,0
1580,-9.0,-302.0,-43.0,0
1581,-8.0,-292.0,-31.0,0
1582,-6.0,-278.0,-28.0,0
1583,-8.0,-265.0,-27.0,0
1584,-6.0,-256.0,-25.0,0
1585,-4.0,-246.0,-29.0,0
1586,0.0,-239.0,-35.0,0
1587,1.0,-235.0,-39.0,0
1588,4.0,-236.0,-35.0,0
1589,7.0,-232.0,-34.0,0
1590,11.0,-235.0,-32.0,0
1591,10.0,-238.0,-26.0,0
1592,9.0,-237.0,-29.0,0
1593,10.0,-241.0,-28.0,0
1594,8.0,-244.0,-24.0,0
1595,9.0,-245.0,-23.0,0
1596,8.0,-241.0,-24.0,0
1597,6.0,-242.0,-24.0,0
1598,3.0,-241.0,-23.0,0
1599,-1.0,-239.0,-25.0,0
1600,-3.0,-235.0,-22.0,0
1601,-3.0,-237.0,-17.0,0
1602,-3.0,-235.0,-15.0,0
1603,-3.0,-240.0,-14.0,0
1604,-5.0,-241.0,-2.0,0
1605,-6.0,-239.0,1.0,0
1606,-7.0,-244.0,9.0,0
1607,-9.0,-245.0,14.0,0
1608,-7.0,-241.0,22.0,0
1609,-9.0,-241.0,25.0,0
1610,-9.0,-236.0,23.0,0
1611,-11.0,-235.0,23.0,0
1612,-7.0,-231.0,11.0,0
1613,-7.0,-232.0,5.0,0
1614,-8.0,-232.0,-5.0,0
1615,-5.0,-233.0,-16.0,0
1616,-3.0,-236.0,-21.0,0
1617,-5.0,-235.0,-34.0,0
1618,-4.0,-238.0,-36.0,0
1619,-5.0,-240.0,-44.0,0
1620,-7.0,-239.0,-46.0,0
1621,-5.0,-246.0,-54.0,0
1622,-5.0,-244.0,-63.0,0
1623,0.0,-251.0,-68.0,0
1624,-2.0,-249.0,-73.0,0
1625,3.0,-252.0,-72.0,0
1626,8.0,-253.0,-77.0,0
1627,8.0,-251.0,-77.0,0
1628,16.0,-253.0,-74.0,0
1629,20.0,-250.0,-71.0,0
1630,18.0,-248.0,-69.0,0
1631,18.0,-246.0,-63.0,0
1632,15.0,-244.0,-67.0,0
1633,14.0,-247.0,-67.0,0
1634,13.0,-249.0,-67.0,0
1635,14.0,-252.0,-76.0,0
1636,10.0,-261.0,-79.0,0
1637,6.0,-265.0,-90.0,0
1638,-2.0,-266.0,-101.0,0
1639,-12.0,-262.0,-109.0,0
1640,-15.0,-259.0,-117.0,0
1641,-21.0,-254.0,-133.0,0
1642,-29.0,-241.0,-145.0,0
1643,-40.0,-226.0,-159.0,0
1644,-64.0,-201.0,-168.0,0
1645,-71.0,-191.0,-170.0,0
1646,-75.0,-194.0,-176.0,0
1647,-74.0,-205.0,-162.0,0
1648,-60.0,-217.0,-148.0,0
1649,-39.0,-243.0,-117.0,0
1650,-8.0,-263.0,-98.0,0
1651,16.0,-283.0,-80.0,0
1652,47.0,-296.0,-87.0,0
1653,62.0,-313.0,-93.0,0
1654,71.0,-317.0,-107.0,0
1655,74.0,-321.0,-115.0,0
1656,72.0,-322.0,-123.0,0
1657,53.0,-327.0,-135.0,0
1658,32.0,-330.0,-138.0,0
1659,1.0,-336.0,-149.0,0
1660,-23.0,-334.0,-156.0,0
1661,-42.0,-335.0,-162.0,0
1662,-50.0,-334.0,-172.0,0
1663,-57.0,-333.0,-181.0,0
1664,-50.0,-334.0,-193.0,0
1665,-38.0,-335.0,-203.0,0
1666,-34.0,-326.0,-195.0,0
1667,-22.0,-310.0,-197.0,0
1668,-9.0,-292.0,-186.0,0
1669,-5.0,-280.0,-182.0,0
1670,4.0,-279.0,-178.0,0
1671,5.0,-277.0,-181.0,0
1672,0.0,-276.0,-181.0,0
1673,-7.0,-277.0,-186.0,0
1674,-12.0,-281.0,-195.0,0
1675,-28.0,-279.0,-195.0,0
1676,-38.0,-278.0,-194.0,0
1677,-44.0,-268.0,-191.0,0
1678,-44.0,-261.0,-187.0,0
1679,-42.0,-259.0,-186.0,0
1680,-40.0,-254.0,-184.0,0
1681,-34.0,-252.0,-194.0,0
1682,-31.0,-242.0,-194.0,0
1683,-28.0,-234.0,-209.0,0
1684,-28.0,-227.0,-214.0,0
1685,-28.0,-226.0,-218.0,0
1686,-26.0,-235.0,-218.0,0
1687,-34.0,-239.0,-217.0,0
1688,-35.0,-247.0,-212.0,0
1689,-44.0,-245.0,-206.0,0
1690,-47.0,-240.0,-205.0,0
1691,-52.0,-248.0,-199.0,0
1692,-50.0,-251.0,-201.0,0
1693,-49.0,-257.0,-201.0,0
1694,-42.0,-259.0,-204.0,0
1695,-40.0,-260.0,-201.0,0
1696,-45.0,-250.0,-208.0,0
1697,-42.0,-246.0,-207.0,0
1698,-41.0,-247.0,-208.0,0
1699,-38.0,-242.0,-212.0,0
1700,-34.0,-246.0,-222.0,0
1701,-31.0,-241.0,-220.0,0
1702,-29.0,-238.0,-226.0,0
1703,-19.0,-239.0,-230.0,0
1704,-17.0,-237.0,-233.0,0
1705,-21.0,-236.0,-226.0,0
1706,-16.0,-237.0,-223.0,0
1707,-17.0,-237.0,-230.0,0
1708,-13.0,-230.0,-228.0,0
1709,-19.0,-228.0,-229.0,0
1710,-23.0,-224.0,-229.0,0
1711,-19.0,-218.0,-230.0,0
1712,-22.0,-211.0,-230.0,0
1713,-24.0,-209.0,-222.0,0
1714,-22.0,-203.0,-214.0,0
1715,-24.0,-199.0,-211.0,0
1716,-14.0,-200.0,-213.0,0
1717,-13.0,-200.0,-209.0,0
1718,-8.0,-201.0,-209.0,0
1719,-7.0,-202.0,-204.0,0
1720,-2.0,-207.0,-201.0,0
1721,6.0,-210.0,-200.0,0
1722,7.0,-206.0,-199.0,0
1723,10.0,-205.0,-199.0,0
1724,11.0,-203.0,-197.0,0
1725,16.0,-199.0,-201.0,0
1726,16.0,-199.0,-195.0,0
1727,20.0,-200.0,-205.0,0
1728,18.0,-201.0,-205.0,0
1729,21.0,-206.0,-219.0,0
1730,18.0,-202.0,-221.0,0
1731,16.0,-200.0,-227.0,0
1732,9.0,-197.0,-225.0,0
1733,1.0,-194.0,-230.0,0
1734,-2.0,-192.0,-232.0,0
1735,-11.0,-189.0,-229.0,0
1736,-13.0,-191.0,-228.0,0
1737,-19.0,-196.0,-232.0,0
1738,-21.0,-200.0,-225.0,0
1739,-24.0,-202.0,-225.0,0
1740,-20.0,-204.0,-221.0,0
1741,-20.0,-206.0,-215.0,0
1742,-14.0,-203.0,-227.0,0
1743,-13.0,-200.0,-222.0,0
1744,-10.0,-201.0,-218.0,0
1745,-8.0,-196.0,-224.0,0
1746,1.0,-196.0,-224.0,0
1747,-1.0,-195.0,-224.0,0
1748,-1.0,-193.0,-218.0,0
1749,2.0,-196.0,-214.0,0
1750,5.0,-194.0,-214.0,0
1751,12.0,-190.0,-207.0,0
1752,13.0,-187.0,-201.0,0
1753,15.0,-183.0,-202.0,0
1754,20.0,-176.0,-198.0,0
1755,9.0,-174.0,-195.0,0
1756,10.0,-170.0,-191.0,0
1757,9.0,-171.0,-188.0,0
1758,9.0,-172.0,-185.0,0
1759,4.0,-167.0,-183.0,0
1760,6.0,-170.0,-181.0,0
1761,6.0,-172.0,-184.0,0
1762,12.0,-176.0,-183.0,0
1763,16.0,-177.0,-180.0,0
1764,18.0,-179.0,-180.0,0
1765,19.0,-187.0,-182.0,0
1766,21.0,-189.0,-181.0,0
1767,20.0,-194.0,-175.0,0
1768,18.0,-199.0,-170.0,0
1769,14.0,-206.0,-167.0,0
1770,15.0,-209.0,-169.0,0
1771,10.0,-209.0,-168.0,0
1772,11.0,-213.0,-163.0,0
1773,13.0,-215.0,-167.0,0
1774,16.0,-211.0,-167.0,0
1775,17.0,-213.0,-168.0,0
1776,18.0,-209.0,-165.0,0
1777,18.0,-212.0,-165.0,0
1778,18.0,-208.0,-153.0,0
1779,21.0,-210.0,-155.0,0
1780,23.0,-212.0,-147.0,0
1781,21.0,-205.0,-142.0,0
1782,21.0,-202.0,-134.0,0
1783,19.0,-196.0,-130.0,0
1784,18.0,-194.0,-127.0,0
1785,19.0,-193.0,-121.0,0
1786,20.0,-189.0,-113.0,0
1787,19.0,-185.0,-105.0,0
1788,22.0,-182.0,-98.0,0
1789,23.0,-177.0,-90.0,0
1790,20.0,-174.0,-90.0,0
1791,18.0,-168.0,-90.0,0
1792,17.0,-166.0,-95.0,0
1793,18.0,-159.0,-95.0,0
1794,17.0,-153.0,-98.0,0
1795,16.0,-150.0,-104.0,0
1796,22.0,-145.0,-103.0,0
1797,24.0,-143.0,-104.0,0
1798,23.0,-135.0,-101.0,0
1799,19.0,-132.0,-98.0,0
1800,18.0,-130.0,-94.0,0
1801,19.0,-126.0,-85.0,0
1802,16.0,-122.0,-83.0,0
1803,21.0,-118.0,-74.0,0
1804,19.0,-114.0,-73.0,0
1805,15.0,-110.0,-69.0,0
1806,21.0,-99.0,-71.0,0
1807,20.0,-95.0,-70.0,0
1808,25.0,-89.0,-68.0,0
1809,25.0,-84.0,-64.0,0
1810,22.0,-77.0,-58.0,0
1811,25.0,-72.0,-57.0,0
1812,26.0,-57.0,-63.0,0
1813,26.0,-43.0,-73.0,0
1814,27.0,-28.0,-84.0,0
1815,25.0,-18.0,-93.0,0
1816,18.0,-4.0,-107.0,0
1817,9.0,4.0,-115.0,0
1818,7.0,10.0,-124.0,0
1819,-1.0,13.0,-135.0,0
1820,-7.0,11.0,-145.0,0
1821,-9.0,9.0,-160.0,0
1822,-13.0,-3.0,-169.0,0
1823,-19.0,-7.0,-176.0,0
1824,-25.0,-25.0,-186.0,0
1825,-29.0,-41.0,-179.0,0
1826,-38.0,-72.0,-187.0,0
1827,-41.0,-108.0,-189.0,0
1828,-41.0,-135.0,-187.0,0
1829,-38.0,-173.0,-192.0,0
1830,-35.0,-201.0,-188.0,0
1831,-34.0,-229.0,-189.0,0
1832,-29.0,-254.0,-188.0,0
1833,-20.0,-282.0,-186.0,0
1834,-11.0,-301.0,-184.0,0
1835,3.0,-324.0,-182.0,0
1836,20.0,-340.0,-174.0,0
1837,37.0,-354.0,-166.0,0
1838,51.0,-365.0,-163.0,0
1839,61.0,-371.0,-149.0,0
1840,67.0,-372.0,-148.0,0
1841,69.0,-367.0,-140.0,0
1842,65.0,-356.0,-140.0,0
1843,65.0,-344.0,-136.0,0
1844,61.0,-324.0,-135.0,0
1845,58.0,-301.0,-127.0,0
1846,54.0,-284.0,-126.0,0
1847,50.0,-264.0,-128.0,0
1848,47.0,-239.0,-124.0,0
1849,38.0,-206.0,-120.0,0
1850,34.0,-187.0,-120.0,0
1851,25.0,-167.0,-114.0,0
1852,14.0,-148.0,-103.0,0
1853,10.0,-141.0,-98.0,0
1854,4.0,-133.0,-91.0,0
1855,-2.0,-126.0,-90.0,0
1856,-8.0,-125.0,-83.0,0
1857,-11.0,-128.0,-81.0,0
1858,-14.0,-131.0,-81.0,0
1859,-15.0,-137.0,-84.0,0
1860,-12.0,-149.0,-91.0,0
1861,-12.0,-154.0,-93.0,0
1862,-12.0,-165.0,-99.0,0
1863,-11.0,-177.0,-98.0,0
1864,-6.0,-188.0,-109.0,0
1865,0.0,-198.0,-113.0,0
1866,6.0,-213.0,-118.0,0
1867,17.0,-224.0,-123.0,0
1868,21.0,-241.0,-127.0,0
1869,30.0,-245.0,-132.0,0
1870,36.0,-249.0,-135.0,0
1871,43.0,-257.0,-136.0,0
1872,47.0,-260.0,-137.0,0
1873,51.0,-258.0,-141.0,0
1874,52.0,-260.0,-136.0,0
1875,50.0,-257.0,-132.0,0
1876,52.0,-252.0,-128.0,0
1877,51.0,-249.0,-125.0,0
1878,50.0,-241.0,-121.0,0
1879,45.0,-237.0,-117.0,0
1880,46.0,-235.0,-109.0,0
1881,43.0,-238.0,-101.0,0
1882,47.0,-237.0,-95.0,0
1883,42.0,-242.0,-96.0,0
1884,41.0,-249.0,-95.0,0
1885,40.0,-245.0,-91.0,0
1886,40.0,-253.0,-91.0,0
1887,39.0,-253.0,-78.0,0
1888,42.0,-246.0,-94.0,0
1889,30.0,-250.0,-92.0,0
1890,26.0,-250.0,-99.0,0
1891,21.0,-244.0,-105.0,0
1892,12.0,-248.0,-91.0,0
1893,11.0,-245.0,-90.0,0
1894,8.0,-243.0,-84.0,0
1895,4.0,-241.0,-89.0,0
1896,4.0,-238.0,-89.0,0
1897,2.0,-239.0,-90.0,0
1898,0.0,-237.0,-93.0,0
1899,2.0,-237.0,-87.0,0
1900,3.0,-234.0,-88.0,0
1901,3.0,-236.0,-94.0,0
1902,4.0,-239.0,-92.0,0
1903,6.0,-236.0,-93.0,0
1904,8.0,-239.0,-95.0,0
1905,10.0,-238.0,-100.0,0
1906,12.0,-236.0,-97.0,0
1907,12.0,-233.0,-101.0,0
1908,14.0,-232.0,-102.0,0
1909,15.0,-232.0,-101.0,0
1910,17.0,-230.0,-98.0,0
1911,17.0,-230.0,-98.0,0
1912,18.0,-232.0,-95.0,0
1913,19.0,-231.0,-96.0,0
1914,19.0,-234.0,-98.0,0
1915,21.0,-234.0,-99.0,0
1916,19.0,-235.0,-96.0,0
1917,21.0,-238.0,-99.0,0
1918,19.0,-240.0,-103.0,0
1919,19.0,-239.0,-105.0,0
1920,20.0,-239.0,-105.0,0
1921,19.0,-244.0,-104.0,0
1922,20.0,-244.0,-109.0,0
1923,23.0,-248.0,-113.0,0
1924,21.0,-246.0,-105.0,0
1925,21.0,-243.0,-106.0,0
1926,23.0,-245.0,-108.0,0
1927,24.0,-241.0,-102.0,0
1928,26.0,-242.0,-101.0,0
1929,22.0,-239.0,-102.0,0
1930,19.0,-238.0,-100.0,0
1931,22.0,-240.0,-95.0,0
1932,19.0,-239.0,-94.0,0
1933,22.0,-241.0,-95.0,0
1934,21.0,-239.0,-93.0,0
1935,19.0,-240.0,-91.0,0
1936,19.0,-239.0,-90.0,0
1937,18.0,-237.0,-92.0,0
1938,16.0,-239.0,-93.0,0
1939,19.0,-242.0,-96.0,0
1940,15.0,-238.0,-99.0,0
1941,13.0,-238.0,-101.0,0
1942,16.0,-237.0,-102.0,0
1943,17.0,-241.0,-100.0,0
1944,17.0,-242.0,-103.0,0
1945,15.0,-236.0,-104.0,0
1946,10.0,-236.0,-105.0,0
1947,11.0,-235.0,-99.0,0
1948,11.0,-237.0,-100.0,0
1949,11.0,-234.0,-99.0,0
1950,8.0,-232.0,-95.0,0
1951,11.0,-233.0,-93.0,0
1952,12.0,-231.0,-96.0,0
1953,13.0,-234.0,-96.0,0
1954,12.0,-235.0,-92.0,0
1955,11.0,-231.0,-90.0,0
1956,11.0,-231.0,-92.0,0
1957,12.0,-231.0,-95.0,0
1958,14.0,-236.0,-89.0,0
1959,13.0,-233.0,-92.0,0
1960,16.0,-235.0,-91.0,0
1961,17.0,-236.0,-87.0,0
1962,18.0,-240.0,-88.0,0
1963,17.0,-239.0,-84.0,0
1964,18.0,-246.0,-84.0,0
1965,18.0,-252.0,-85.0,0
1966,15.0,-252.0,-83.0,0
1967,15.0,-255.0,-80.0,0
1968,15.0,-257.0,-84.0,0
1969,12.0,-259.0,-88.0,0
1970,12.0,-261.0,-90.0,0
1971,12.0,-260.0,-91.0,0
1972,8.0,-259.0,-93.0,0
1973,11.0,-258.0,-94.0,0
1974,8.0,-257.0,-94.0,0
1975,7.0,-257.0,-93.0,0
1976,7.0,-254.0,-94.0,0
1977,6.0,-255.0,-94.0,0
1978,9.0,-251.0,-93.0,0
1979,7.0,-245.0,-93.0,0
1980,10.0,-245.0,-86.0,0
1981,10.0,-240.0,-92.0,0
1982,15.0,-242.0,-92.0,0
1983,15.0,-242.0,-91.0,0
1984,13.0,-237.0,-95.0,0
1985,15.0,-237.0,-96.0,0
1986,16.0,-238.0,-91.0,0
1987,17.0,-237.0,-95.0,0
1988,18.0,-238.0,-97.0,0
1989,19.0,-237.0,-93.0,0
1990,18.0,-239.0,-92.0,0
1991,14.0,-234.0,-90.0,0
1992,14.0,-233.0,-90.0,0
1993,15.0,-233.0,-90.0,0
1994,16.0,-235.0,-89.0,0
1995,16.0,-239.0,-83.0,0
1996,14.0,-237.0,-88.0,0
1997,19.0,-238.0,-85.0,0
1998,15.0,-239.0,-87.0,0
1999,18.0,-238.0,-87.0,0
2000,16.0,-242.0,-87.0,0
2001,19.0,-245.0,-88.0,0
2002,17.0,-243.0,-89.0,0
2003,18.0,-245.0,-91.0,0
2004,18.0,-250.0,-86.0,0
2005,14.0,-243.0,-89.0,0
2006,13.0,-245.0,-88.0,0
2007,16.0,-245.0,-91.0,0
2008,13.0,-242.0,-89.0,0
2009,11.0,-243.0,-90.0,0
2010,15.0,-243.0,-90.0,0
2011,15.0,-245.0,-94.0,0
2012,16.0,-247.0,-93.0,0
2013,15.0,-245.0,-94.0,0
2014,16.0,-250.0,-97.0,0
2015,16.0,-248.0,-95.0,0
2016,16.0,-248.0,-98.0,0
2017,15.0,-251.0,-98.0,0
2018,18.0,-250.0,-91.0,0
2019,18.0,-251.0,-95.0,0
2020,13.0,-246.0,-96.0,0
2021,17.0,-247.0,-96.0,0
2022,15.0,-244.0,-93.0,0
2023,18.0,-240.0,-93.0,0
2024,16.0,-239.0,-94.0,0
2025,17.0,-237.0,-95.0,0
2026,14.0,-238.0,-91.0,0
2027,17.0,-232.0,-95.0,0
2028,16.0,-235.0,-87.0,0
2029,17.0,-232.0,-87.0,0
2030,18.0,-235.0,-90.0,0
2031,20.0,-238.0,-87.0,0
2032,16.0,-235.0,-88.0,0
2033,20.0,-239.0,-87.0,0
2034,19.0,-242.0,-87.0,0
2035,18.0,-242.0,-92.0,0
2036,19.0,-244.0,-87.0,0
2037,19.0,-245.0,-90.0,0
2038,15.0,-245.0,-93.0,0
2039,16.0,-244.0,-91.0,0
2040,16.0,-245.0,-95.0,0
2041,18.0,-249.0,-90.0,0
2042,15.0,-243.0,-93.0,0
2043,16.0,-245.0,-95.0,0
2044,15.0,-245.0,-86.0,0
2045,16.0,-243.0,-92.0,0
2046,15.0,-243.0,-89.0,0
2047,14.0,-245.0,-95.0,0
2048,15.0,-245.0,-96.0,0
2049,16.0,-244.0,-92.0,0
2050,15.0,-246.0,-95.0,0
2051,17.0,-244.0,-94.0,0
2052,16.0,-246.0,-97.0,0
2053,17.0,-246.0,-96.0,0
2054,18.0,-242.0,-96.0,0
2055,19.0,-244.0,-98.0,0
2056,18.0,-243.0,-93.0,0
2057,17.0,-239.0,-91.0,0
2058,21.0,-241.0,-91.0,0
2059,18.0,-240.0,-92.0,0
2060,15.0,-239.0,-91.0,0
2061,18.0,-238.0,-91.0,0
2062,18.0,-238.0,-88.0,0
2063,21.0,-238.0,-89.0,0
2064,19.0,-241.0,-91.0,0
2065,20.0,-239.0,-89.0,0
2066,21.0,-240.0,-86.0,0
2067,20.0,-240.0,-90.0,0
2068,19.0,-242.0,-81.0,0
2069,18.0,-240.0,-90.0,0
2070,20.0,-243.0,-84.0,0
2071,20.0,-244.0,-84.0,0
2072,20.0,-246.0,-84.0,0
2073,25.0,-248.0,-83.0,0
2074,22.0,-244.0,-86.0,0
2075,19.0,-244.0,-86.0,0
2076,21.0,-244.0,-84.0,0
2077,20.0,-245.0,-86.0,0
2078,22.0,-245.0,-91.0,0
2079,22.0,-244.0,-88.0,0
2080,20.0,-243.0,-88.0,0
2081,16.0,-239.0,-90.0,0
2082,16.0,-243.0,-87.0,0
2083,20.0,-245.0,-88.0,0
2084,18.0,-243.0,-90.0,0
2085,20.0,-244.0,-91.0,0
2086,19.0,-241.0,-84.0,0
2087,18.0,-244.0,-89.0,0
2088,17.0,-245.0,-90.0,0
2089,20.0,-244.0,-85.0,0
2090,19.0,-241.0,-87.0,0
2091,21.0,-242.0,-88.0,0
2092,19.0,-244.0,-86.0,0
2093,19.0,-242.0,-89.0,0
2094,20.0,-241.0,-88.0,0
2095,19.0,-243.0,-90.0,0
2096,21.0,-242.0,-91.0,0
2097,22.0,-242.0,-88.0,0
2098,23.0,-242.0,-91.0,0
2099,20.0,-239.0,-91.0,0
2100,18.0,-241.0,-86.0,0
2101,19.0,-241.0,-90.0,0
2102,21.0,-243.0,-91.0,0
2103,20.0,-241.0,-87.0,0
2104,16.0,-243.0,-86.0,0
2105,18.0,-241.0,-85.0,0
2106,16.0,-239.0,-85.0,0
2107,16.0,-242.0,-84.0,0
2108,16.0,-243.0,-86.0,0
2109,19.0,-243.0,-87.0,0
2110,19.0,-242.0,-88.0,0
2111,19.0,-244.0,-86.0,0
2112,17.0,-239.0,-87.0,0
2113,18.0,-240.0,-86.0,0
2114,18.0,-241.0,-89.0,0
2115,20.0,-244.0,-83.0,0
2116,19.0,-244.0,-84.0,0
2117,22.0,-243.0,-84.0,0
2118,21.0,-245.0,-88.0,0
2119,18.0,-246.0,-85.0,0
2120,21.0,-243.0,-88.0,0
2121,16.0,-246.0,-86.0,0
2122,20.0,-244.0,-91.0,0
2123,19.0,-244.0,-87.0,0
2124,18.0,-246.0,-86.0,0
2125,19.0,-246.0,-86.0,0
2126,20.0,-244.0,-87.0,0
2127,16.0,-241.0,-87.0,0
2128,20.0,-246.0,-86.0,0
2129,19.0,-240.0,-84.0,0
2130,22.0,-244.0,-87.0,0
2131,16.0,-244.0,-88.0,0
2132,21.0,-245.0,-86.0,0
2133,19.0,-245.0,-87.0,0
2134,16.0,-241.0,-88.0,0
2135,17.0,-242.0,-85.0,0
2136,19.0,-242.0,-81.0,0
2137,17.0,-237.0,-83.0,0
2138,19.0,-242.0,-86.0,0
2139,17.0,-241.0,-83.0,0
2140,16.0,-243.0,-88.0,0
2141,20.0,-243.0,-88.0,0
2142,20.0,-243.0,-85.0,0
2143,19.0,-240.0,-86.0,0
2144,18.0,-242.0,-87.0,0
2145,14.0,-241.0,-89.0,0
2146,19.0,-247.0,-85.0,0
2147,18.0,-243.0,-86.0,0
2148,19.0,-247.0,-84.0,0
2149,17.0,-248.0,-86.0,0
2150,18.0,-247.0,-87.0,0
2151,18.0,-244.0,-81.0,0
2152,17.0,-245.0,-87.0,0
2153,16.0,-244.0,-82.0,0
2154,19.0,-247.0,-81.0,0
2155,16.0,-246.0,-83.0,0
2156,18.0,-245.0,-80.0,0
2157,15.0,-244.0,-80.0,0
2158,17.0,-246.0,-86.0,0
2159,15.0,-243.0,-87.0,0
2160,18.0,-245.0,-82.0,0
2161,17.0,-246.0,-85.0,0
2162,17.0,-246.0,-87.0,0
2163,16.0,-245.0,-83.0,0
2164,18.0,-241.0,-86.0,0
2165,18.0,-244.0,-84.0,0
2166,21.0,-242.0,-87.0,0
2167,19.0,-244.0,-88.0,0
2168,19.0,-246.0,-84.0,0
2169,18.0,-243.0,-87.0,0
2170,19.0,-245.0,-87.0,0
2171,17.0,-243.0,-88.0,0
2172,15.0,-239.0,-86.0,0
2173,13.0,-242.0,-86.0,0
2174,16.0,-247.0,-84.0,0
2175,16.0,-245.0,-85.0,0
2176,15.0,-242.0,-81.0,0
2177,15.0,-245.0,-81.0,0
2178,15.0,-245.0,-84.0,0
2179,13.0,-246.0,-81.0,0
2180,15.0,-246.0,-85.0,0
2181,17.0,-246.0,-88.0,0
2182,14.0,-248.0,-82.0,0
2183,16.0,-248.0,-83.0,0
2184,13.0,-246.0,-81.0,0
2185,18.0,-245.0,-82.0,0
2186,13.0,-243.0,-85.0,0
2187,15.0,-244.0,-83.0,0
2188,13.0,-245.0,-84.0,0
2189,12.0,-241.0,-83.0,0
2190,17.0,-240.0,-86.0,0
2191,18.0,-240.0,-84.0,0
2192,14.0,-241.0,-82.0,0
2193,15.0,-241.0,-85.0,0
2194,15.0,-240.0,-84.0,0
2195,17.0,-242.0,-82.0,0
2196,13.0,-243.0,-86.0,0
2197,12.0,-243.0,-84.0,0
2198,14.0,-244.0,-83.0,0
2199,15.0,-245.0,-84.0,0
2200,15.0,-245.0,-90.0,0
2201,14.0,-243.0,-84.0,0
2202,13.0,-244.0,-85.0,0
2203,16.0,-243.0,-85.0,0
2204,14.0,-244.0,-86.0,0
2205,18.0,-244.0,-80.0,0
2206,17.0,-245.0,-85.0,0
2207,16.0,-245.0,-85.0,0
2208,16.0,-243.0,-80.0,0
2209,17.0,-246.0,-84.0,0
2210,17.0,-247.0,-82.0,0
2211,16.0,-250.0,-81.0,0
2212,17.0,-245.0,-82.0,0
2213,15.0,-247.0,-83.0,0
2214,16.0,-246.0,-83.0,0
2215,14.0,-245.0,-86.0,0
2216,14.0,-244.0,-84.0,0
2217,15.0,-248.0,-89.0,0
2218,15.0,-244.0,-85.0,0
2219,15.0,-246.0,-87.0,0
2220,15.0,-242.0,-86.0,0
2221,13.0,-246.0,-83.0,0
2222,15.0,-241.0,-89.0,0
2223,15.0,-245.0,-86.0,0
2224,16.0,-245.0,-85.0,0
2225,15.0,-242.0,-83.0,0
2226,15.0,-244.0,-85.0,0
2227,18.0,-243.0,-85.0,0
2228,15.0,-245.0,-86.0,0
2229,19.0,-245.0,-84.0,0
2230,15.0,-244.0,-83.0,0
2231,16.0,-243.0,-86.0,0
2232,14.0,-245.0,-89.0,0
2233,17.0,-243.0,-83.0,0
2234,20.0,-247.0,-84.0,0
2235,15.0,-246.0,-84.0,0
2236,19.0,-245.0,-85.0,0
2237,15.0,-247.0,-85.0,0
2238,14.0,-246.0,-79.0,0
2239,16.0,-246.0,-84.0,0
2240,16.0,-244.0,-89.0,0
2241,15.0,-245.0,-85.0,0
2242,18.0,-242.0,-82.0,0
2243,14.0,-240.0,-82.0,0
2244,15.0,-243.0,-84.0,0
2245,15.0,-246.0,-83.0,0
2246,17.0,-243.0,-84.0,0
2247,18.0,-245.0,-80.0,0
2248,16.0,-245.0,-82.0,0
2249,15.0,-245.0,-87.0,0
2250,13.0,-245.0,-84.0,0
2251,15.0,-248.0,-84.0,0
2252,16.0,-247.0,-86.0,0
2253,15.0,-246.0,-87.0,0
2254,16.0,-245.0,-86.0,0
2255,14.0,-243.0,-86.0,0
2256,17.0,-244.0,-87.0,0
2257,16.0,-241.0,-84.0,0
2258,19.0,-243.0,-91.0,0
2259,17.0,-239.0,-84.0,0
2260,17.0,-241.0,-89.0,0
2261,17.0,-237.0,-87.0,0
2262,17.0,-238.0,-81.0,0
2263,19.0,-242.0,-84.0,0
2264,19.0,-238.0,-85.0,0
2265,18.0,-244.0,-85.0,0
2266,19.0,-244.0,-85.0,0
2267,20.0,-243.0,-84.0,0
2268,16.0,-245.0,-85.0,0
2269,18.0,-249.0,-85.0,0
2270,17.0,-247.0,-85.0,0
2271,15.0,-247.0,-86.0,0
2272,12.0,-248.0,-84.0,0
2273,17.0,-249.0,-87.0,0
2274,16.0,-249.0,-86.0,0
2275,14.0,-249.0,-86.0,0
2276,14.0,-249.0,-84.0,0
2277,14.0,-247.0,-85.0,0
2278,12.0,-246.0,-85.0,0
2279,14.0,-243.0,-88.0,0
2280,11.0,-245.0,-79.0,0
2281,16.0,-245.0,-84.0,0
2282,15.0,-244.0,-86.0,0
2283,14.0,-243.0,-86.0,0
2284,16.0,-243.0,-84.0,0
2285,15.0,-243.0,-85.0,0
2286,16.0,-243.0,-88.0,0
2287,15.0,-245.0,-87.0,0
2288,15.0,-243.0,-86.0,0
2289,18.0,-243.0,-85.0,0
2290,16.0,-240.0,-87.0,0
2291,16.0,-241.0,-86.0,0
2292,17.0,-241.0,-85.0,0
2293,18.0,-239.0,-84.0,0
2294,16.0,-242.0,-85.0,0
2295,17.0,-245.0,-84.0,0
2296,18.0,-244.0,-81.0,0
2297,16.0,-245.0,-84.0,0
2298,14.0,-244.0,-83.0,0
2299,16.0,-245.0,-85.0,0
2300,16.0,-248.0,-79.0,0
2301,17.0,-247.0,-79.0,0
2302,15.0,-247.0,-82.0,0
2303,14.0,-246.0,-84.0,0
2304,14.0,-245.0,-83.0,0
2305,16.0,-246.0,-86.0,0
2306,15.0,-245.0,-83.0,0
2307,15.0,-241.0,-87.0,0
2308,16.0,-246.0,-85.0,0
2309,17.0,-244.0,-82.0,0
2310,15.0,-245.0,-82.0,0
2311,11.0,-244.0,-81.0,0
2312,15.0,-243.0,-82.0,0
2313,14.0,-244.0,-84.0,0
2314,14.0,-243.0,-80.0,0
2315,19.0,-247.0,-84.0,0
2316,11.0,-246.0,-85.0,0
2317,15.0,-245.0,-83.0,0
2318,18.0,-245.0,-85.0,0
2319,12.0,-245.0,-82.0,0
2320,14.0,-245.0,-81.0,0
2321,18.0,-248.0,-80.0,0
2322,16.0,-246.0,-84.0,0
2323,18.0,-246.0,-85.0,0
2324,15.0,-245.0,-80.0,0
2325,15.0,-244.0,-82.0,0
2326,14.0,-244.0,-84.0,0
2327,17.0,-247.0,-82.0,0
2328,14.0,-244.0,-80.0,0
2329,17.0,-245.0,-86.0,0
2330,15.0,-246.0,-84.0,0
2331,17.0,-244.0,-77.0,0
2332,16.0,-246.0,-82.0,0
2333,16.0,-248.0,-81.0,0
2334,13.0,-245.0,-84.0,0
2335,17.0,-246.0,-84.0,0
2336,15.0,-245.0,-82.0,0
2337,17.0,-247.0,-82.0,0
2338,16.0,-245.0,-83.0,0
2339,15.0,-246.0,-87.0,0
2340,15.0,-244.0,-82.0,0
2341,17.0,-248.0,-83.0,0
2342,16.0,-244.0,-83.0,0
2343,18.0,-248.0,-82.0,0
2344,16.0,-246.0,-81.0,0
2345,19.0,-244.0,-79.0,0
2346,18.0,-244.0,-80.0,0
2347,18.0,-246.0,-79.0,0
2348,17.0,-243.0,-80.0,0
2349,15.0,-245.0,-84.0,0
2350,16.0,-246.0,-80.0,0
2351,13.0,-245.0,-86.0,0
2352,16.0,-247.0,-81.0,0
2353,19.0,-248.0,-79.0,0
2354,16.0,-242.0,-78.0,0
2355,18.0,-243.0,-82.0,0
2356,19.0,-241.0,-78.0,0
2357,16.0,-246.0,-82.0,0
2358,18.0,-245.0,-78.0,0
2359,16.0,-247.0,-84.0,0
2360,14.0,-244.0,-79.0,0
2361,14.0,-245.0,-80.0,0
2362,17.0,-245.0,-83.0,0
2363,18.0,-238.0,-85.0,0
2364,11.0,-239.0,-91.0,0
2365,22.0,-242.0,-90.0,0
2366,13.0,-248.0,-84.0,0
2367,6.0,-238.0,-104.0,0
2368,21.0,-243.0,-75.0,0
2369,15.0,-245.0,-79.0,0
2370,34.0,-248.0,-83.0,0
2371,15.0,-247.0,-78.0,0
2372,15.0,-247.0,-80.0,0
2373,17.0,-248.0,-79.0,0
2374,17.0,-244.0,-80.0,0
2375,16.0,-244.0,-76.0,0
2376,15.0,-243.0,-79.0,0
2377,17.0,-246.0,-82.0,0
2378,15.0,-241.0,-83.0,0
2379,16.0,-242.0,-83.0,0
2380,12.0,-241.0,-78.0,0
2381,16.0,-241.0,-83.0,0
2382,20.0,-244.0,-86.0,0
2383,17.0,-244.0,-81.0,0
2384,19.0,-245.0,-83.0,0
2385,18.0,-243.0,-83.0,0
2386,18.0,-243.0,-84.0,0
2387,17.0,-245.0,-77.0,0
2388,18.0,-246.0,-79.0,0
2389,18.0,-247.0,-80.0,0
2390,15.0,-247.0,-79.0,0
2391,14.0,-247.0,-77.0,0
2392,18.0,-250.0,-76.0,0
2393,17.0,-247.0,-79.0,0
2394,16.0,-247.0,-76.0,0
2395,17.0,-245.0,-79.0,0
2396,17.0,-246.0,-79.0,0
2397,16.0,-249.0,-79.0,0
2398,17.0,-245.0,-83.0,0
2399,16.0,-241.0,-78.0,0
