,accelerometer_x,accelerometer_y,accelerometer_z,fall
0,12.0,-256.0,-88.0,0
1,11.0,-257.0,-90.0,0
2,11.0,-257.0,-91.0,0
3,14.0,-259.0,-92.0,0
4,9.0,-255.0,-100.0,0
5,16.0,-256.0,-92.0,0
6,15.0,-255.0,-93.0,0
7,14.0,-255.0,-95.0,0
8,17.0,-254.0,-95.0,0
9,14.0,-255.0,-95.0,0
10,12.0,-255.0,-94.0,0
11,13.0,-255.0,-94.0,0
12,15.0,-257.0,-95.0,0
13,15.0,-255.0,-91.0,0
14,18.0,-258.0,-96.0,0
15,17.0,-257.0,-98.0,0
16,16.0,-257.0,-93.0,0
17,17.0,-256.0,-94.0,0
18,17.0,-259.0,-95.0,0
19,18.0,-254.0,-99.0,0
20,20.0,-254.0,-94.0,0
21,20.0,-256.0,-99.0,0
22,23.0,-257.0,-95.0,0
23,22.0,-256.0,-93.0,0
24,22.0,-257.0,-98.0,0
25,24.0,-257.0,-94.0,0
26,26.0,-256.0,-96.0,0
27,24.0,-257.0,-98.0,0
28,24.0,-257.0,-94.0,0
29,25.0,-261.0,-96.0,0
30,25.0,-259.0,-95.0,0
31,26.0,-259.0,-88.0,0
32,28.0,-263.0,-90.0,0
33,25.0,-267.0,-93.0,0
34,26.0,-261.0,-91.0,0
35,25.0,-260.0,-92.0,0
36,23.0,-261.0,-93.0,0
37,23.0,-261.0,-93.0,0
38,24.0,-260.0,-96.0,0
39,20.0,-257.0,-92.0,0
40,20.0,-259.0,-93.0,0
41,20.0,-256.0,-94.0,0
42,23.0,-256.0,-94.0,0
43,20.0,-255.0,-97.0,0
44,19.0,-254.0,-96.0,0
45,22.0,-257.0,-95.0,0
46,20.0,-255.0,-94.0,0
47,22.0,-256.0,-93.0,0
48,18.0,-256.0,-92.0,0
49,21.0,-257.0,-91.0,0
50,20.0,-259.0,-93.0,0
51,22.0,-258.0,-90.0,0
52,23.0,-260.0,-93.0,0
53,20.0,-258.0,-91.0,0
54,23.0,-259.0,-93.0,0
55,23.0,-259.0,-92.0,0
56,20.0,-256.0,-97.0,0
57,23.0,-255.0,-98.0,0
58,22.0,-255.0,-95.0,0
59,22.0,-255.0,-96.0,0
60,21.0,-254.0,-95.0,0
61,22.0,-255.0,-98.0,0
62,22.0,-255.0,-92.0,0
63,25.0,-257.0,-92.0,0
64,25.0,-255.0,-99.0,0
65,23.0,-255.0,-97.0,0
66,26.0,-255.0,-95.0,0
67,23.0,-254.0,-98.0,0
68,23.0,-256.0,-95.0,0
69,22.0,-256.0,-96.0,0
70,22.0,-256.0,-97.0,0
71,20.0,-257.0,-91.0,0
72,27.0,-256.0,-95.0,0
73,26.0,-257.0,-92.0,0
74,26.0,-256.0,-96.0,0
75,26.0,-258.0,-98.0,0
76,28.0,-254.0,-96.0,0
77,28.0,-257.0,-98.0,0
78,27.0,-254.0,-99.0,0
79,30.0,-255.0,-97.0,0
80,31.0,-256.0,-103.0,0
81,30.0,-256.0,-101.0,0
82,28.0,-256.0,-100.0,0
83,29.0,-252.0,-101.0,0
84,27.0,-255.0,-101.0,0
85,28.0,-255.0,-95.0,0
86,25.0,-254.0,-100.0,0
87,32.0,-256.0,-99.0,0
88,33.0,-254.0,-99.0,0
89,33.0,-256.0,-97.0,0
90,30.0,-253.0,-101.0,0
91,30.0,-243.0,-87.0,0
92,33.0,-253.0,-99.0,0
93,34.0,-252.0,-100.0,0
94,35.0,-252.0,-101.0,0
95,37.0,-254.0,-103.0,0
96,38.0,-254.0,-101.0,0
97,40.0,-253.0,-99.0,0
98,41.0,-255.0,-106.0,0
99,43.0,-255.0,-105.0,0
100,40.0,-255.0,-106.0,0
101,43.0,-254.0,-104.0,0
102,45.0,-257.0,-110.0,0
103,43.0,-257.0,-110.0,0
104,43.0,-256.0,-110.0,0
105,45.0,-257.0,-108.0,0
106,45.0,-256.0,-112.0,0
107,41.0,-255.0,-115.0,0
108,38.0,-256.0,-117.0,0
109,37.0,-254.0,-118.0,0
110,38.0,-251.0,-119.0,0
111,36.0,-253.0,-119.0,0
112,35.0,-252.0,-114.0,0
113,31.0,-253.0,-123.0,0
114,32.0,-256.0,-118.0,0
115,31.0,-253.0,-121.0,0
116,32.0,-255.0,-122.0,0
117,30.0,-252.0,-120.0,0
118,32.0,-257.0,-123.0,0
119,37.0,-254.0,-119.0,0
120,36.0,-251.0,-121.0,0
121,39.0,-252.0,-117.0,0
122,42.0,-251.0,-118.0,0
123,43.0,-251.0,-125.0,0
124,46.0,-247.0,-127.0,0
125,44.0,-246.0,-125.0,0
126,46.0,-242.0,-124.0,0
127,47.0,-241.0,-125.0,0
128,46.0,-242.0,-127.0,0
129,47.0,-239.0,-127.0,0
130,49.0,-238.0,-121.0,0
131,49.0,-237.0,-127.0,0
132,51.0,-238.0,-120.0,0
133,56.0,-239.0,-124.0,0
134,57.0,-241.0,-121.0,0
135,59.0,-249.0,-123.0,0
136,58.0,-248.0,-123.0,0
137,59.0,-250.0,-125.0,0
138,61.0,-253.0,-127.0,0
139,60.0,-254.0,-127.0,0
140,62.0,-254.0,-128.0,0
141,60.0,-251.0,-126.0,0
142,63.0,-255.0,-127.0,0
143,62.0,-255.0,-123.0,0
144,58.0,-252.0,-127.0,0
145,61.0,-253.0,-126.0,0
146,60.0,-249.0,-129.0,0
147,58.0,-250.0,-127.0,0
148,57.0,-250.0,-125.0,0
149,54.0,-246.0,-129.0,0
150,49.0,-249.0,-128.0,0
151,49.0,-247.0,-129.0,0
152,49.0,-246.0,-127.0,0
153,49.0,-249.0,-128.0,0
154,50.0,-244.0,-129.0,0
155,50.0,-246.0,-130.0,0
156,52.0,-246.0,-127.0,0
157,53.0,-244.0,-128.0,0
158,58.0,-247.0,-133.0,0
159,56.0,-247.0,-127.0,0
160,55.0,-248.0,-129.0,0
161,57.0,-246.0,-128.0,0
162,61.0,-246.0,-131.0,0
163,59.0,-242.0,-132.0,0
164,57.0,-242.0,-127.0,0
165,57.0,-240.0,-131.0,0
166,58.0,-241.0,-129.0,0
167,60.0,-251.0,-114.0,0
168,58.0,-242.0,-129.0,0
169,57.0,-244.0,-128.0,0
170,61.0,-247.0,-127.0,0
171,58.0,-248.0,-129.0,0
172,58.0,-248.0,-129.0,0
173,59.0,-248.0,-128.0,0
174,57.0,-250.0,-126.0,0
175,58.0,-248.0,-125.0,0
176,62.0,-252.0,-123.0,0
177,59.0,-250.0,-123.0,0
178,62.0,-250.0,-124.0,0
179,58.0,-252.0,-118.0,0
180,62.0,-247.0,-114.0,0
181,61.0,-247.0,-113.0,0
182,61.0,-245.0,-114.0,0
183,60.0,-242.0,-113.0,0
184,63.0,-244.0,-109.0,0
185,61.0,-241.0,-111.0,0
186,62.0,-244.0,-102.0,0
187,60.0,-241.0,-101.0,0
188,60.0,-235.0,-104.0,0
189,57.0,-236.0,-100.0,0
190,59.0,-237.0,-100.0,0
191,57.0,-237.0,-103.0,0
192,56.0,-237.0,-92.0,0
193,55.0,-240.0,-96.0,0
194,58.0,-241.0,-97.0,0
195,56.0,-249.0,-92.0,0
196,59.0,-247.0,-91.0,0
197,59.0,-250.0,-90.0,0
198,61.0,-252.0,-92.0,0
199,62.0,-252.0,-92.0,0
200,62.0,-250.0,-90.0,0
201,62.0,-252.0,-94.0,0
202,63.0,-253.0,-92.0,0
203,62.0,-255.0,-99.0,0
204,66.0,-255.0,-98.0,0
205,63.0,-255.0,-102.0,0
206,65.0,-256.0,-107.0,0
207,62.0,-256.0,-110.0,0
208,63.0,-258.0,-109.0,0
209,56.0,-259.0,-113.0,0
210,53.0,-262.0,-117.0,0
211,46.0,-262.0,-118.0,0
212,40.0,-264.0,-124.0,0
213,32.0,-267.0,-124.0,0
214,24.0,-267.0,-128.0,0
215,17.0,-274.0,-129.0,0
216,12.0,-275.0,-136.0,0
217,5.0,-273.0,-130.0,0
218,0.0,-274.0,-129.0,0
219,1.0,-272.0,-134.0,0
220,0.0,-276.0,-136.0,0
221,1.0,-270.0,-135.0,0
222,2.0,-268.0,-137.0,0
223,3.0,-268.0,-134.0,0
224,3.0,-260.0,-137.0,0
225,6.0,-255.0,-134.0,0
226,6.0,-249.0,-137.0,0
227,12.0,-242.0,-136.0,0
228,9.0,-237.0,-133.0,0
229,8.0,-229.0,-132.0,0
230,8.0,-225.0,-131.0,0
231,5.0,-222.0,-130.0,0
232,4.0,-222.0,-126.0,0
233,0.0,-223.0,-127.0,0
234,3.0,-229.0,-125.0,0
235,-1.0,-234.0,-120.0,0
236,-3.0,-240.0,-113.0,0
237,-2.0,-250.0,-112.0,0
238,-1.0,-265.0,-105.0,0
239,-2.0,-272.0,-107.0,0
240,-2.0,-280.0,-106.0,0
241,-5.0,-284.0,-110.0,0
242,-3.0,-284.0,-105.0,0
243,-13.0,-294.0,-115.0,0
244,-6.0,-285.0,-113.0,0
245,-9.0,-285.0,-113.0,0
246,-13.0,-279.0,-115.0,0
247,-14.0,-279.0,-116.0,0
248,-17.0,-274.0,-119.0,0
249,-21.0,-266.0,-110.0,0
250,-18.0,-266.0,-116.0,0
251,-19.0,-263.0,-118.0,0
252,-21.0,-260.0,-120.0,0
253,-18.0,-257.0,-120.0,0
254,-20.0,-251.0,-130.0,0
255,-18.0,-256.0,-114.0,0
256,-18.0,-255.0,-115.0,0
257,-16.0,-251.0,-112.0,0
258,-14.0,-250.0,-107.0,0
259,-14.0,-250.0,-104.0,0
260,-9.0,-242.0,-103.0,0
261,-3.0,-244.0,-101.0,0
262,-1.0,-240.0,-98.0,0
263,-3.0,-234.0,-92.0,0
264,-4.0,-234.0,-93.0,0
265,-4.0,-233.0,-92.0,0
266,-9.0,-233.0,-89.0,0
267,-11.0,-230.0,-88.0,0
268,-14.0,-233.0,-90.0,0
269,-17.0,-233.0,-90.0,0
270,-18.0,-235.0,-89.0,0
271,-19.0,-236.0,-88.0,0
272,-20.0,-238.0,-85.0,0
273,-23.0,-238.0,-89.0,0
274,-21.0,-246.0,-84.0,0
275,-20.0,-248.0,-86.0,0
276,-23.0,-249.0,-85.0,0
277,19.0,-230.0,-108.0,0
278,-27.0,-256.0,-72.0,0
279,-31.0,-261.0,-80.0,0
280,-25.0,-253.0,-95.0,0
281,-24.0,-250.0,-92.0,0
282,-23.0,-249.0,-86.0,0
283,-17.0,-253.0,-86.0,0
284,-12.0,-253.0,-85.0,0
285,-11.0,-254.0,-81.0,0
286,-14.0,-251.0,-83.0,0
287,-11.0,-253.0,-77.0,0
288,-6.0,-252.0,-77.0,0
289,-9.0,-253.0,-77.0,0
290,-7.0,-255.0,-81.0,0
291,-13.0,-255.0,-82.0,0
292,-7.0,-255.0,-82.0,0
293,-8.0,-254.0,-84.0,0
294,-6.0,-259.0,-83.0,0
295,-9.0,-254.0,-81.0,0
296,-11.0,-254.0,-79.0,0
297,-8.0,-256.0,-79.0,0
298,-10.0,-253.0,-75.0,0
299,-6.0,-254.0,-76.0,0
300,-2.0,-252.0,-79.0,0
301,-4.0,-258.0,-76.0,0
302,-4.0,-261.0,-79.0,0
303,-1.0,-258.0,-75.0,0
304,-3.0,-255.0,-78.0,0
305,2.0,-249.0,-74.0,0
306,1.0,-250.0,-75.0,0
307,3.0,-253.0,-74.0,0
308,1.0,-253.0,-68.0,0
309,5.0,-253.0,-73.0,0
310,7.0,-249.0,-74.0,0
311,11.0,-251.0,-70.0,0
312,8.0,-251.0,-70.0,0
313,11.0,-248.0,-64.0,0
314,9.0,-247.0,-68.0,0
315,9.0,-247.0,-66.0,0
316,13.0,-251.0,-65.0,0
317,10.0,-250.0,-65.0,0
318,12.0,-251.0,-68.0,0
319,10.0,-254.0,-67.0,0
320,16.0,-254.0,-71.0,0
321,16.0,-255.0,-74.0,0
322,17.0,-255.0,-73.0,0
323,20.0,-257.0,-76.0,0
324,23.0,-260.0,-74.0,0
325,25.0,-259.0,-70.0,0
326,29.0,-266.0,-71.0,0
327,30.0,-266.0,-71.0,0
328,30.0,-267.0,-73.0,0
329,32.0,-269.0,-76.0,0
330,24.0,-266.0,-80.0,0
331,34.0,-272.0,-78.0,0
332,37.0,-276.0,-80.0,0
333,37.0,-274.0,-78.0,0
334,39.0,-279.0,-76.0,0
335,39.0,-279.0,-74.0,0
336,39.0,-280.0,-70.0,0
337,35.0,-276.0,-68.0,0
338,38.0,-278.0,-66.0,0
339,35.0,-282.0,-65.0,0
340,35.0,-284.0,-63.0,0
341,32.0,-284.0,-61.0,0
342,38.0,-292.0,-65.0,0
343,35.0,-289.0,-60.0,0
344,35.0,-293.0,-54.0,0
345,38.0,-296.0,-54.0,0
346,41.0,-294.0,-55.0,0
347,41.0,-295.0,-53.0,0
348,47.0,-294.0,-47.0,0
349,48.0,-288.0,-44.0,0
350,52.0,-283.0,-44.0,0
351,54.0,-281.0,-41.0,0
352,55.0,-286.0,-41.0,0
353,48.0,-273.0,-45.0,0
354,46.0,-277.0,-48.0,0
355,37.0,-285.0,-58.0,0
356,31.0,-297.0,-58.0,0
357,28.0,-312.0,-73.0,0
358,18.0,-330.0,-75.0,0
359,6.0,-343.0,-88.0,0
360,-2.0,-347.0,-92.0,0
361,-23.0,-342.0,-97.0,0
362,-33.0,-328.0,-101.0,0
363,-41.0,-306.0,-108.0,0
364,-38.0,-283.0,-107.0,0
365,-40.0,-267.0,-110.0,0
366,-37.0,-256.0,-113.0,0
367,-30.0,-252.0,-114.0,0
368,-14.0,-257.0,-113.0,0
369,0.0,-263.0,-112.0,0
370,10.0,-273.0,-122.0,0
371,15.0,-273.0,-122.0,0
372,18.0,-278.0,-128.0,0
373,22.0,-277.0,-133.0,0
374,17.0,-274.0,-138.0,0
375,17.0,-263.0,-142.0,0
376,16.0,-250.0,-145.0,0
377,17.0,-238.0,-139.0,0
378,19.0,-220.0,-143.0,0
379,20.0,-206.0,-143.0,0
380,20.0,-189.0,-140.0,0
381,24.0,-177.0,-141.0,0
382,23.0,-164.0,-134.0,0
383,25.0,-157.0,-131.0,0
384,24.0,-150.0,-125.0,0
385,28.0,-157.0,-128.0,0
386,21.0,-161.0,-127.0,0
387,18.0,-177.0,-124.0,0
388,16.0,-190.0,-121.0,0
389,13.0,-203.0,-116.0,0
390,12.0,-219.0,-114.0,0
391,6.0,-233.0,-110.0,0
392,5.0,-247.0,-104.0,0
393,5.0,-256.0,-104.0,0
394,2.0,-261.0,-99.0,0
395,4.0,-267.0,-103.0,0
396,8.0,-270.0,-106.0,0
397,9.0,-269.0,-108.0,0
398,8.0,-268.0,-105.0,0
399,5.0,-265.0,-101.0,0
400,4.0,-265.0,-100.0,0
401,4.0,-264.0,-97.0,0
402,3.0,-261.0,-103.0,0
403,0.0,-263.0,-107.0,0
404,0.0,-262.0,-107.0,0
405,5.0,-253.0,-109.0,0
406,0.0,-257.0,-113.0,0
407,0.0,-258.0,-117.0,0
408,4.0,-257.0,-114.0,0
409,8.0,-259.0,-113.0,0
410,6.0,-256.0,-115.0,0
411,10.0,-256.0,-112.0,0
412,7.0,-253.0,-106.0,0
413,9.0,-260.0,-107.0,0
414,3.0,-253.0,-97.0,0
415,7.0,-252.0,-96.0,0
416,7.0,-262.0,-102.0,0
417,10.0,-253.0,-89.0,0
418,9.0,-249.0,-83.0,0
419,9.0,-245.0,-80.0,0
420,9.0,-244.0,-79.0,0
421,8.0,-242.0,-80.0,0
422,12.0,-239.0,-79.0,0
423,13.0,-237.0,-76.0,0
424,13.0,-235.0,-72.0,0
425,8.0,-223.0,-71.0,0
426,7.0,-223.0,-72.0,0
427,18.0,-231.0,-70.0,0
428,20.0,-227.0,-76.0,0
429,18.0,-223.0,-76.0,0
430,15.0,-225.0,-72.0,0
431,13.0,-227.0,-71.0,0
432,12.0,-228.0,-67.0,0
433,10.0,-228.0,-66.0,0
434,13.0,-234.0,-67.0,0
435,15.0,-238.0,-64.0,0
436,7.0,-236.0,-65.0,0
437,15.0,-245.0,-65.0,0
438,18.0,-251.0,-63.0,0
439,16.0,-246.0,-65.0,0
440,21.0,-250.0,-64.0,0
441,21.0,-254.0,-64.0,0
442,25.0,-256.0,-66.0,0
443,19.0,-255.0,-66.0,0
444,20.0,-255.0,-69.0,0
445,16.0,-255.0,-69.0,0
446,21.0,-258.0,-72.0,0
447,17.0,-256.0,-72.0,0
448,14.0,-256.0,-75.0,0
449,15.0,-255.0,-73.0,0
450,19.0,-252.0,-78.0,0
451,20.0,-251.0,-73.0,0
452,18.0,-250.0,-77.0,0
453,17.0,-250.0,-83.0,0
454,17.0,-248.0,-78.0,0
455,18.0,-246.0,-79.0,0
456,20.0,-252.0,-73.0,0
457,21.0,-262.0,-66.0,0
458,26.0,-269.0,-59.0,0
459,30.0,-285.0,-49.0,0
460,38.0,-295.0,-48.0,0
461,44.0,-306.0,-46.0,0
462,54.0,-314.0,-50.0,0
463,62.0,-314.0,-51.0,0
464,71.0,-311.0,-61.0,0
465,78.0,-305.0,-66.0,0
466,78.0,-296.0,-76.0,0
467,82.0,-293.0,-82.0,0
468,77.0,-290.0,-86.0,0
469,76.0,-296.0,-93.0,0
470,71.0,-304.0,-101.0,0
471,67.0,-312.0,-108.0,0
472,60.0,-323.0,-116.0,0
473,53.0,-333.0,-122.0,0
474,40.0,-355.0,-124.0,0
475,29.0,-370.0,-134.0,0
476,19.0,-383.0,-149.0,0
477,13.0,-401.0,-160.0,0
478,3.0,-405.0,-169.0,0
479,0.0,-410.0,-170.0,0
480,-3.0,-399.0,-177.0,0
481,-7.0,-387.0,-176.0,0
482,-14.0,-368.0,-186.0,0
483,-28.0,-338.0,-186.0,0
484,-32.0,-299.0,-180.0,0
485,-36.0,-268.0,-174.0,0
486,-40.0,-236.0,-163.0,0
487,-43.0,-212.0,-155.0,0
488,-49.0,-188.0,-143.0,0
489,-51.0,-164.0,-141.0,0
490,-50.0,-147.0,-136.0,0
491,-37.0,-128.0,-128.0,0
492,-39.0,-115.0,-125.0,0
493,-32.0,-113.0,-126.0,0
494,-23.0,-108.0,-120.0,0
495,-12.0,-115.0,-121.0,0
496,-2.0,-124.0,-121.0,0
497,10.0,-137.0,-121.0,0
498,22.0,-158.0,-120.0,0
499,31.0,-177.0,-121.0,0
500,37.0,-196.0,-121.0,0
501,41.0,-215.0,-123.0,0
502,43.0,-236.0,-120.0,0
503,46.0,-256.0,-117.0,0
504,49.0,-276.0,-119.0,0
505,51.0,-294.0,-115.0,0
506,53.0,-307.0,-112.0,0
507,47.0,-318.0,-105.0,0
508,45.0,-320.0,-106.0,0
509,41.0,-323.0,-102.0,0
510,32.0,-321.0,-105.0,0
511,27.0,-314.0,-107.0,0
512,14.0,-298.0,-110.0,0
513,10.0,-285.0,-112.0,0
514,3.0,-272.0,-109.0,0
515,-3.0,-258.0,-114.0,0
516,-17.0,-243.0,-106.0,0
517,-24.0,-239.0,-104.0,0
518,-34.0,-235.0,-99.0,0
519,-36.0,-226.0,-101.0,0
520,-41.0,-226.0,-96.0,0
521,-39.0,-223.0,-95.0,0
522,-35.0,-221.0,-94.0,0
523,-33.0,-224.0,-100.0,0
524,-28.0,-226.0,-96.0,0
525,-21.0,-226.0,-101.0,0
526,-12.0,-232.0,-102.0,0
527,-6.0,-233.0,-103.0,0
528,0.0,-232.0,-103.0,0
529,0.0,-232.0,-102.0,0
530,3.0,-235.0,-101.0,0
531,10.0,-239.0,-103.0,0
532,9.0,-239.0,-95.0,0
533,9.0,-238.0,-98.0,0
534,6.0,-237.0,-92.0,0
535,2.0,-237.0,-90.0,0
536,3.0,-238.0,-89.0,0
537,1.0,-237.0,-87.0,0
538,1.0,-235.0,-85.0,0
539,-1.0,-230.0,-84.0,0
540,-1.0,-230.0,-84.0,0
541,-6.0,-224.0,-80.0,0
542,-7.0,-223.0,-79.0,0
543,-9.0,-221.0,-76.0,0
544,-11.0,-222.0,-80.0,0
545,-12.0,-220.0,-71.0,0
546,-15.0,-221.0,-71.0,0
547,-12.0,-229.0,-79.0,0
548,-12.0,-230.0,-75.0,0
549,-7.0,-235.0,-75.0,0
550,-3.0,-234.0,-77.0,0
551,-3.0,-239.0,-73.0,0
552,-3.0,-241.0,-70.0,0
553,1.0,-250.0,-72.0,0
554,2.0,-251.0,-68.0,0
555,1.0,-252.0,-64.0,0
556,1.0,-255.0,-66.0,0
557,1.0,-256.0,-62.0,0
558,1.0,-253.0,-61.0,0
559,1.0,-258.0,-60.0,0
560,0.0,-257.0,-60.0,0
561,0.0,-257.0,-58.0,0
562,-4.0,-259.0,-65.0,0
563,-4.0,-258.0,-62.0,0
564,-2.0,-259.0,-59.0,0
565,-5.0,-262.0,-61.0,0
566,-5.0,-265.0,-60.0,0
567,-2.0,-260.0,-61.0,0
568,-4.0,-271.0,-58.0,0
569,-2.0,-275.0,-58.0,0
570,0.0,-280.0,-59.0,0
571,-5.0,-286.0,-56.0,0
572,-7.0,-287.0,-59.0,0
573,-15.0,-296.0,-60.0,0
574,-18.0,-300.0,-57.0,0
575,-21.0,-306.0,-60.0,0
576,-18.0,-314.0,-59.0,0
577,-16.0,-317.0,-59.0,0
578,-13.0,-319.0,-47.0,0
579,-4.0,-318.0,-41.0,0
580,3.0,-320.0,-33.0,0
581,11.0,-319.0,-28.0,0
582,21.0,-317.0,-19.0,0
583,35.0,-314.0,-14.0,0
584,43.0,-313.0,-17.0,0
585,49.0,-307.0,-24.0,0
586,47.0,-308.0,-36.0,0
587,40.0,-309.0,-51.0,0
588,24.0,-315.0,-66.0,0
589,4.0,-320.0,-80.0,0
590,-16.0,-332.0,-97.0,0
591,-40.0,-346.0,-109.0,0
592,-55.0,-361.0,-118.0,0
593,-74.0,-362.0,-125.0,0
594,-90.0,-362.0,-133.0,0
595,-106.0,-346.0,-144.0,0
596,-116.0,-328.0,-153.0,0
597,-120.0,-309.0,-158.0,0
598,-111.0,-290.0,-162.0,0
599,-99.0,-266.0,-166.0,0
600,-79.0,-252.0,-172.0,0
601,-58.0,-230.0,-177.0,0
602,-40.0,-207.0,-187.0,0
603,-21.0,-189.0,-188.0,0
604,-4.0,-175.0,-190.0,0
605,2.0,-164.0,-189.0,0
606,13.0,-161.0,-188.0,0
607,22.0,-162.0,-187.0,0
608,22.0,-173.0,-181.0,0
609,27.0,-190.0,-173.0,0
610,33.0,-204.0,-164.0,0
611,38.0,-222.0,-151.0,0
612,38.0,-237.0,-140.0,0
613,39.0,-249.0,-131.0,0
614,40.0,-258.0,-124.0,0
615,39.0,-266.0,-113.0,0
616,40.0,-270.0,-111.0,0
617,32.0,-280.0,-104.0,0
618,21.0,-283.0,-102.0,0
619,8.0,-281.0,-103.0,0
620,-7.0,-278.0,-103.0,0
621,-26.0,-272.0,-105.0,0
622,-43.0,-265.0,-106.0,0
623,-58.0,-254.0,-112.0,0
624,-67.0,-247.0,-115.0,0
625,-73.0,-238.0,-114.0,0
626,-80.0,-228.0,-116.0,0
627,-80.0,-224.0,-114.0,0
628,-79.0,-217.0,-118.0,0
629,-69.0,-214.0,-115.0,0
630,-61.0,-213.0,-116.0,0
631,-49.0,-215.0,-111.0,0
632,-34.0,-218.0,-110.0,0
633,-20.0,-219.0,-106.0,0
634,1.0,-224.0,-110.0,0
635,6.0,-223.0,-109.0,0
636,18.0,-230.0,-110.0,0
637,28.0,-232.0,-110.0,0
638,33.0,-235.0,-109.0,0
639,41.0,-237.0,-114.0,0
640,43.0,-240.0,-113.0,0
641,45.0,-245.0,-111.0,0
642,46.0,-246.0,-105.0,0
643,41.0,-241.0,-111.0,0
644,41.0,-242.0,-99.0,0
645,38.0,-248.0,-99.0,0
646,40.0,-243.0,-95.0,0
647,33.0,-241.0,-89.0,0
648,34.0,-242.0,-88.0,0
649,32.0,-238.0,-84.0,0
650,27.0,-237.0,-82.0,0
651,31.0,-237.0,-82.0,0
652,30.0,-236.0,-77.0,0
653,30.0,-222.0,-83.0,0
654,32.0,-230.0,-70.0,0
655,37.0,-230.0,-69.0,0
656,38.0,-234.0,-67.0,0
657,42.0,-236.0,-68.0,0
658,41.0,-233.0,-62.0,0
659,42.0,-232.0,-65.0,0
660,44.0,-235.0,-65.0,0
661,42.0,-228.0,-69.0,0
662,42.0,-231.0,-68.0,0
663,39.0,-233.0,-68.0,0
664,37.0,-233.0,-68.0,0
665,32.0,-234.0,-69.0,0
666,29.0,-237.0,-70.0,0
667,24.0,-233.0,-68.0,0
668,21.0,-236.0,-67.0,0
669,19.0,-238.0,-66.0,0
670,17.0,-238.0,-65.0,0
671,11.0,-241.0,-63.0,0
672,10.0,-246.0,-63.0,0
673,8.0,-250.0,-60.0,0
674,12.0,-255.0,-59.0,0
675,16.0,-260.0,-60.0,0
676,12.0,-259.0,-56.0,0
677,20.0,-266.0,-54.0,0
678,25.0,-269.0,-53.0,0
679,32.0,-276.0,-48.0,0
680,32.0,-282.0,-44.0,0
681,37.0,-289.0,-45.0,0
682,35.0,-292.0,-47.0,0
683,28.0,-293.0,-52.0,0
684,21.0,-296.0,-54.0,0
685,16.0,-298.0,-54.0,0
686,7.0,-296.0,-55.0,0
687,2.0,-291.0,-53.0,0
688,2.0,-291.0,-45.0,0
689,9.0,-301.0,-42.0,0
690,11.0,-293.0,-31.0,0
691,12.0,-297.0,-25.0,0
692,13.0,-297.0,-11.0,0
693,11.0,-299.0,-1.0,0
694,9.0,-299.0,-4.0,0
695,0.0,-299.0,-6.0,0
696,-3.0,-299.0,-14.0,0
697,-13.0,-302.0,-25.0,0
698,-22.0,-307.0,-42.0,0
699,-31.0,-314.0,-60.0,0
700,-39.0,-326.0,-79.0,0
701,-41.0,-338.0,-97.0,0
702,-36.0,-353.0,-114.0,0
703,-17.0,-364.0,-119.0,0
704,-1.0,-375.0,-130.0,0
705,15.0,-379.0,-135.0,0
706,30.0,-383.0,-145.0,0
707,45.0,-383.0,-154.0,0
708,53.0,-375.0,-166.0,0
709,55.0,-365.0,-179.0,0
710,46.0,-348.0,-184.0,0
711,38.0,-323.0,-194.0,0
712,29.0,-301.0,-200.0,0
713,17.0,-274.0,-203.0,0
714,15.0,-243.0,-203.0,0
715,9.0,-221.0,-194.0,0
716,-2.0,-194.0,-186.0,0
717,-11.0,-170.0,-181.0,0
718,-18.0,-143.0,-177.0,0
719,-21.0,-125.0,-166.0,0
720,-25.0,-115.0,-161.0,0
721,-26.0,-110.0,-150.0,0
722,-33.0,-110.0,-144.0,0
723,-34.0,-124.0,-129.0,0
724,-29.0,-143.0,-117.0,0
725,-27.0,-165.0,-107.0,0
726,-21.0,-193.0,-94.0,0
727,-12.0,-219.0,-89.0,0
728,-12.0,-228.0,-98.0,0
729,8.0,-260.0,-85.0,0
730,17.0,-277.0,-86.0,0
731,30.0,-291.0,-89.0,0
732,45.0,-304.0,-96.0,0
733,59.0,-307.0,-100.0,0
734,70.0,-317.0,-102.0,0
735,80.0,-318.0,-109.0,0
736,85.0,-315.0,-111.0,0
737,92.0,-307.0,-117.0,0
738,91.0,-295.0,-124.0,0
739,88.0,-279.0,-125.0,0
740,80.0,-260.0,-125.0,0
741,66.0,-250.0,-125.0,0
742,55.0,-236.0,-117.0,0
743,37.0,-227.0,-115.0,0
744,20.0,-218.0,-107.0,0
745,15.0,-213.0,-103.0,0
746,5.0,-210.0,-105.0,0
747,1.0,-212.0,-99.0,0
748,-5.0,-214.0,-98.0,0
749,-10.0,-218.0,-98.0,0
750,-16.0,-223.0,-97.0,0
751,-16.0,-230.0,-97.0,0
752,-19.0,-233.0,-97.0,0
753,-14.0,-235.0,-97.0,0
754,-12.0,-242.0,-93.0,0
755,-12.0,-245.0,-98.0,0
756,-8.0,-245.0,-96.0,0
757,-11.0,-242.0,-93.0,0
758,-4.0,-245.0,-88.0,0
759,-3.0,-245.0,-91.0,0
760,-2.0,-240.0,-86.0,0
761,0.0,-238.0,-82.0,0
762,-1.0,-235.0,-78.0,0
763,-1.0,-237.0,-74.0,0
764,0.0,-233.0,-72.0,0
765,-4.0,-229.0,-67.0,0
766,0.0,-225.0,-65.0,0
767,1.0,-221.0,-63.0,0
768,0.0,-222.0,-59.0,0
769,0.0,-219.0,-58.0,0
770,0.0,-221.0,-56.0,0
771,3.0,-224.0,-51.0,0
772,3.0,-226.0,-50.0,0
773,5.0,-230.0,-47.0,0
774,8.0,-231.0,-51.0,0
775,9.0,-237.0,-48.0,0
776,12.0,-237.0,-48.0,0
777,13.0,-238.0,-49.0,0
778,19.0,-247.0,-53.0,0
779,22.0,-244.0,-55.0,0
780,24.0,-246.0,-56.0,0
781,24.0,-248.0,-56.0,0
782,25.0,-251.0,-60.0,0
783,25.0,-251.0,-61.0,0
784,24.0,-253.0,-57.0,0
785,26.0,-254.0,-54.0,0
786,19.0,-256.0,-50.0,0
787,18.0,-262.0,-53.0,0
788,13.0,-267.0,-49.0,0
789,8.0,-271.0,-50.0,0
790,0.0,-273.0,-48.0,0
791,-4.0,-279.0,-52.0,0
792,-7.0,-288.0,-53.0,0
793,-16.0,-290.0,-55.0,0
794,-16.0,-298.0,-61.0,0
795,-19.0,-303.0,-63.0,0
796,-14.0,-307.0,-59.0,0
797,-9.0,-311.0,-52.0,0
798,-5.0,-316.0,-49.0,0
799,2.0,-314.0,-45.0,0
800,9.0,-309.0,-40.0,0
801,13.0,-305.0,-31.0,0
802,23.0,-297.0,-25.0,0
803,27.0,-292.0,-16.0,0
804,35.0,-289.0,-15.0,0
805,42.0,-287.0,-24.0,0
806,41.0,-286.0,-31.0,0
807,33.0,-298.0,-44.0,0
808,33.0,-313.0,-53.0,0
809,20.0,-330.0,-73.0,0
810,5.0,-353.0,-90.0,0
811,-20.0,-379.0,-107.0,0
812,-45.0,-388.0,-125.0,0
813,-72.0,-392.0,-138.0,0
814,-95.0,-378.0,-153.0,0
815,-124.0,-368.0,-161.0,0
816,-113.0,-335.0,-189.0,0
817,-106.0,-306.0,-191.0,0
818,-86.0,-271.0,-198.0,0
819,-58.0,-241.0,-198.0,0
820,-29.0,-211.0,-199.0,0
821,-10.0,-182.0,-194.0,0
822,9.0,-166.0,-184.0,0
823,26.0,-160.0,-179.0,0
824,33.0,-166.0,-171.0,0
825,46.0,-182.0,-164.0,0
826,53.0,-199.0,-158.0,0
827,57.0,-218.0,-141.0,0
828,62.0,-236.0,-131.0,0
829,63.0,-252.0,-123.0,0
830,59.0,-264.0,-115.0,0
831,54.0,-281.0,-110.0,0
832,45.0,-293.0,-104.0,0
833,36.0,-304.0,-95.0,0
834,21.0,-309.0,-97.0,0
835,9.0,-315.0,-95.0,0
836,-3.0,-314.0,-96.0,0
837,-22.0,-307.0,-99.0,0
838,-36.0,-299.0,-97.0,0
839,-47.0,-282.0,-106.0,0
840,-57.0,-267.0,-107.0,0
841,-64.0,-251.0,-118.0,0
842,-69.0,-235.0,-112.0,0
843,-73.0,-222.0,-117.0,0
844,-73.0,-209.0,-111.0,0
845,-66.0,-203.0,-107.0,0
846,-57.0,-197.0,-104.0,0
847,-48.0,-197.0,-102.0,0
848,-35.0,-194.0,-97.0,0
849,-24.0,-196.0,-98.0,0
850,-11.0,-200.0,-95.0,0
851,1.0,-204.0,-97.0,0
852,12.0,-208.0,-97.0,0
853,22.0,-211.0,-98.0,0
854,27.0,-222.0,-100.0,0
855,34.0,-226.0,-94.0,0
856,40.0,-233.0,-93.0,0
857,48.0,-240.0,-93.0,0
858,46.0,-243.0,-91.0,0
859,52.0,-245.0,-89.0,0
860,48.0,-249.0,-83.0,0
861,44.0,-247.0,-85.0,0
862,38.0,-252.0,-87.0,0
863,34.0,-250.0,-78.0,0
864,30.0,-247.0,-73.0,0
865,30.0,-245.0,-72.0,0
866,28.0,-241.0,-66.0,0
867,22.0,-236.0,-66.0,0
868,20.0,-231.0,-66.0,0
869,23.0,-226.0,-65.0,0
870,20.0,-223.0,-62.0,0
871,21.0,-218.0,-54.0,0
872,19.0,-219.0,-57.0,0
873,21.0,-214.0,-58.0,0
874,18.0,-214.0,-57.0,0
875,21.0,-217.0,-53.0,0
876,20.0,-218.0,-58.0,0
877,22.0,-222.0,-63.0,0
878,26.0,-225.0,-62.0,0
879,22.0,-231.0,-63.0,0
880,24.0,-233.0,-63.0,0
881,23.0,-239.0,-64.0,0
882,23.0,-247.0,-64.0,0
883,19.0,-251.0,-69.0,0
884,18.0,-258.0,-66.0,0
885,15.0,-263.0,-65.0,0
886,21.0,-270.0,-67.0,0
887,16.0,-275.0,-66.0,0
888,20.0,-278.0,-65.0,0
889,24.0,-283.0,-65.0,0
890,28.0,-288.0,-63.0,0
891,26.0,-283.0,-71.0,0
892,34.0,-288.0,-58.0,0
893,40.0,-292.0,-57.0,0
894,45.0,-289.0,-59.0,0
895,48.0,-292.0,-61.0,0
896,53.0,-291.0,-58.0,0
897,57.0,-287.0,-63.0,0
898,59.0,-284.0,-61.0,0
899,59.0,-284.0,-57.0,0
900,58.0,-281.0,-54.0,0
901,57.0,-279.0,-48.0,0
902,56.0,-279.0,-42.0,0
903,52.0,-282.0,-35.0,0
904,40.0,-275.0,-33.0,0
905,38.0,-277.0,-19.0,0
906,30.0,-275.0,-13.0,0
907,27.0,-271.0,-17.0,0
908,18.0,-269.0,-16.0,0
909,12.0,-265.0,-15.0,0
910,2.0,-260.0,-26.0,0
911,-8.0,-257.0,-35.0,0
912,-14.0,-260.0,-42.0,0
913,-24.0,-272.0,-49.0,0
914,-41.0,-285.0,-61.0,0
915,-35.0,-300.0,-78.0,0
916,-34.0,-312.0,-87.0,0
917,-25.0,-322.0,-97.0,0
918,-15.0,-332.0,-103.0,0
919,-1.0,-343.0,-115.0,0
920,11.0,-350.0,-119.0,0
921,22.0,-354.0,-130.0,0
922,29.0,-356.0,-137.0,0
923,37.0,-352.0,-150.0,0
924,35.0,-343.0,-153.0,0
925,36.0,-334.0,-165.0,0
926,34.0,-323.0,-171.0,0
927,31.0,-305.0,-178.0,0
928,24.0,-285.0,-179.0,0
929,17.0,-267.0,-181.0,0
930,8.0,-241.0,-182.0,0
931,0.0,-214.0,-175.0,0
932,-11.0,-186.0,-171.0,0
933,-21.0,-160.0,-165.0,0
934,-30.0,-141.0,-154.0,0
935,-35.0,-126.0,-147.0,0
936,-45.0,-118.0,-136.0,0
937,-49.0,-113.0,-126.0,0
938,-53.0,-122.0,-113.0,0
939,-53.0,-136.0,-105.0,0
940,-48.0,-159.0,-93.0,0
941,-38.0,-182.0,-88.0,0
942,-25.0,-207.0,-84.0,0
943,-10.0,-229.0,-80.0,0
944,3.0,-249.0,-81.0,0
945,18.0,-269.0,-78.0,0
946,30.0,-285.0,-82.0,0
947,47.0,-302.0,-84.0,0
948,62.0,-317.0,-91.0,0
949,71.0,-323.0,-91.0,0
950,80.0,-330.0,-94.0,0
951,85.0,-331.0,-97.0,0
952,86.0,-332.0,-95.0,0
953,85.0,-323.0,-104.0,0
954,73.0,-312.0,-98.0,0
955,65.0,-301.0,-99.0,0
956,53.0,-285.0,-104.0,0
957,40.0,-269.0,-101.0,0
958,28.0,-255.0,-96.0,0
959,11.0,-244.0,-94.0,0
960,2.0,-236.0,-92.0,0
961,-3.0,-231.0,-87.0,0
962,-11.0,-225.0,-86.0,0
963,-13.0,-221.0,-86.0,0
964,-17.0,-228.0,-86.0,0
965,-20.0,-225.0,-85.0,0
966,-15.0,-229.0,-94.0,0
967,-16.0,-231.0,-94.0,0
968,-17.0,-237.0,-96.0,0
969,-16.0,-238.0,-96.0,0
970,-16.0,-237.0,-88.0,0
971,-12.0,-240.0,-88.0,0
972,-13.0,-241.0,-87.0,0
973,-13.0,-237.0,-81.0,0
974,-11.0,-236.0,-78.0,0
975,-11.0,-234.0,-76.0,0
976,-7.0,-245.0,-62.0,0
977,-15.0,-232.0,-67.0,0
978,-14.0,-227.0,-65.0,0
979,-13.0,-228.0,-58.0,0
980,-12.0,-228.0,-60.0,0
981,-16.0,-226.0,-51.0,0
982,-16.0,-229.0,-58.0,0
983,-13.0,-227.0,-51.0,0
984,-10.0,-231.0,-50.0,0
985,-7.0,-231.0,-50.0,0
986,-6.0,-236.0,-51.0,0
987,-3.0,-239.0,-51.0,0
988,0.0,-244.0,-45.0,0
989,1.0,-246.0,-48.0,0
990,6.0,-250.0,-48.0,0
991,10.0,-253.0,-45.0,0
992,13.0,-253.0,-48.0,0
993,21.0,-256.0,-50.0,0
994,20.0,-254.0,-50.0,0
995,22.0,-251.0,-57.0,0
996,24.0,-253.0,-57.0,0
997,20.0,-251.0,-62.0,0
998,21.0,-253.0,-60.0,0
999,16.0,-255.0,-60.0,0
1000,14.0,-258.0,-60.0,0
1001,9.0,-263.0,-54.0,0
1002,7.0,-268.0,-56.0,0
1003,5.0,-271.0,-60.0,0
1004,0.0,-276.0,-51.0,0
1005,-2.0,-279.0,-52.0,0
1006,-9.0,-285.0,-54.0,0
1007,-13.0,-286.0,-55.0,0
1008,-20.0,-297.0,-55.0,0
1009,-28.0,-301.0,-59.0,0
1010,-34.0,-309.0,-58.0,0
1011,-35.0,-308.0,-58.0,0
1012,-29.0,-314.0,-54.0,0
1013,-27.0,-314.0,-49.0,0
1014,-18.0,-311.0,-42.0,0
1015,-9.0,-307.0,-33.0,0
1016,1.0,-304.0,-26.0,0
1017,11.0,-299.0,-18.0,0
1018,20.0,-292.0,-13.0,0
1019,31.0,-288.0,-15.0,0
1020,38.0,-292.0,-15.0,0
1021,43.0,-297.0,-28.0,0
1022,47.0,-310.0,-42.0,0
1023,46.0,-333.0,-57.0,0
1024,37.0,-353.0,-76.0,0
1025,23.0,-372.0,-94.0,0
1026,7.0,-384.0,-110.0,0
1027,-15.0,-385.0,-125.0,0
1028,-37.0,-380.0,-141.0,0
1029,-50.0,-365.0,-151.0,0
1030,-63.0,-344.0,-167.0,0
1031,-69.0,-327.0,-171.0,0
1032,-70.0,-313.0,-184.0,0
1033,-61.0,-293.0,-183.0,0
1034,-48.0,-273.0,-181.0,0
1035,-31.0,-253.0,-181.0,0
1036,-25.0,-230.0,-176.0,0
1037,-15.0,-209.0,-177.0,0
1038,-1.0,-191.0,-170.0,0
1039,10.0,-179.0,-172.0,0
1040,27.0,-169.0,-161.0,0
1041,34.0,-163.0,-158.0,0
1042,43.0,-163.0,-153.0,0
1043,47.0,-166.0,-142.0,0
1044,54.0,-176.0,-130.0,0
1045,58.0,-189.0,-126.0,0
1046,63.0,-204.0,-119.0,0
1047,60.0,-223.0,-112.0,0
1048,59.0,-239.0,-101.0,0
1049,55.0,-256.0,-94.0,0
1050,46.0,-267.0,-87.0,0
1051,31.0,-279.0,-88.0,0
1052,28.0,-286.0,-78.0,0
1053,-2.0,-291.0,-89.0,0
1054,-19.0,-290.0,-86.0,0
1055,-35.0,-289.0,-93.0,0
1056,-48.0,-284.0,-98.0,0
1057,-59.0,-276.0,-96.0,0
1058,-64.0,-269.0,-97.0,0
1059,-68.0,-259.0,-99.0,0
1060,-66.0,-250.0,-103.0,0
1061,-63.0,-240.0,-98.0,0
1062,-50.0,-232.0,-100.0,0
1063,-39.0,-223.0,-86.0,0
1064,-29.0,-218.0,-93.0,0
1065,-13.0,-216.0,-89.0,0
1066,-2.0,-216.0,-92.0,0
1067,7.0,-221.0,-93.0,0
1068,15.0,-215.0,-89.0,0
1069,25.0,-223.0,-86.0,0
1070,31.0,-222.0,-88.0,0
1071,34.0,-228.0,-92.0,0
1072,39.0,-232.0,-92.0,0
1073,43.0,-239.0,-91.0,0
1074,44.0,-240.0,-88.0,0
1075,43.0,-239.0,-86.0,0
1076,43.0,-247.0,-83.0,0
1077,38.0,-247.0,-83.0,0
1078,37.0,-248.0,-78.0,0
1079,29.0,-249.0,-78.0,0
1080,33.0,-249.0,-71.0,0
1081,30.0,-249.0,-69.0,0
1082,26.0,-243.0,-66.0,0
1083,22.0,-244.0,-61.0,0
1084,19.0,-239.0,-58.0,0
1085,23.0,-242.0,-60.0,0
1086,21.0,-234.0,-59.0,0
1087,20.0,-232.0,-60.0,0
1088,25.0,-232.0,-56.0,0
1089,24.0,-229.0,-52.0,0
1090,24.0,-225.0,-56.0,0
1091,24.0,-226.0,-50.0,0
1092,25.0,-227.0,-52.0,0
1093,29.0,-231.0,-54.0,0
1094,34.0,-230.0,-52.0,0
1095,35.0,-236.0,-56.0,0
1096,40.0,-241.0,-52.0,0
1097,37.0,-241.0,-48.0,0
1098,36.0,-244.0,-55.0,0
1099,35.0,-248.0,-50.0,0
1100,36.0,-250.0,-56.0,0
1101,36.0,-250.0,-56.0,0
1102,33.0,-253.0,-53.0,0
1103,34.0,-255.0,-58.0,0
1104,35.0,-257.0,-56.0,0
1105,32.0,-259.0,-57.0,0
1106,34.0,-265.0,-52.0,0
1107,34.0,-263.0,-54.0,0
1108,34.0,-270.0,-52.0,0
1109,33.0,-267.0,-49.0,0
1110,33.0,-265.0,-52.0,0
1111,34.0,-268.0,-51.0,0
1112,41.0,-267.0,-48.0,0
1113,48.0,-267.0,-49.0,0
1114,52.0,-266.0,-52.0,0
1115,58.0,-268.0,-55.0,0
1116,61.0,-270.0,-55.0,0
1117,61.0,-275.0,-50.0,0
1118,61.0,-278.0,-50.0,0
1119,55.0,-280.0,-48.0,0
1120,46.0,-279.0,-40.0,0
1121,39.0,-284.0,-36.0,0
1122,26.0,-282.0,-28.0,0
1123,15.0,-280.0,-29.0,0
1124,3.0,-276.0,-23.0,0
1125,-5.0,-269.0,-19.0,0
1126,-10.0,-273.0,-20.0,0
1127,-20.0,-270.0,-20.0,0
1128,-29.0,-270.0,-29.0,0
1129,-35.0,-277.0,-40.0,0
1130,-37.0,-293.0,-53.0,0
1131,-52.0,-317.0,-64.0,0
1132,-41.0,-331.0,-75.0,0
1133,-34.0,-348.0,-86.0,0
1134,-21.0,-368.0,-96.0,0
1135,-1.0,-376.0,-107.0,0
1136,13.0,-383.0,-112.0,0
1137,30.0,-382.0,-122.0,0
1138,48.0,-387.0,-127.0,0
1139,56.0,-374.0,-147.0,0
1140,64.0,-357.0,-159.0,0
1141,61.0,-339.0,-166.0,0
1142,60.0,-321.0,-170.0,0
1143,51.0,-298.0,-176.0,0
1144,47.0,-279.0,-176.0,0
1145,41.0,-256.0,-176.0,0
1146,27.0,-231.0,-168.0,0
1147,14.0,-208.0,-164.0,0
1148,1.0,-185.0,-160.0,0
1149,0.0,-160.0,-148.0,0
1150,-8.0,-142.0,-141.0,0
1151,-12.0,-132.0,-130.0,0
1152,-10.0,-122.0,-121.0,0
1153,-15.0,-122.0,-112.0,0
1154,-9.0,-134.0,-105.0,0
1155,-5.0,-151.0,-94.0,0
1156,1.0,-175.0,-86.0,0
1157,12.0,-200.0,-73.0,0
1158,22.0,-225.0,-68.0,0
1159,32.0,-247.0,-64.0,0
1160,43.0,-272.0,-61.0,0
1161,53.0,-291.0,-60.0,0
1162,64.0,-308.0,-60.0,0
1163,77.0,-318.0,-71.0,0
1164,86.0,-327.0,-77.0,0
1165,94.0,-329.0,-85.0,0
1166,98.0,-325.0,-92.0,0
1167,95.0,-320.0,-98.0,0
1168,87.0,-311.0,-108.0,0
1169,76.0,-292.0,-116.0,0
1170,64.0,-277.0,-120.0,0
1171,47.0,-261.0,-113.0,0
1172,28.0,-241.0,-114.0,0
1173,13.0,-233.0,-102.0,0
1174,2.0,-221.0,-105.0,0
1175,-9.0,-217.0,-100.0,0
1176,-15.0,-213.0,-97.0,0
1177,-21.0,-212.0,-100.0,0
1178,-25.0,-210.0,-97.0,0
1179,-27.0,-214.0,-102.0,0
1180,-26.0,-218.0,-100.0,0
1181,-19.0,-225.0,-101.0,0
1182,-14.0,-226.0,-101.0,0
1183,-5.0,-233.0,-98.0,0
1184,0.0,-237.0,-101.0,0
1185,7.0,-240.0,-97.0,0
1186,14.0,-242.0,-96.0,0
1187,16.0,-241.0,-96.0,0
1188,22.0,-247.0,-87.0,0
1189,29.0,-248.0,-83.0,0
1190,27.0,-245.0,-76.0,0
1191,26.0,-243.0,-72.0,0
1192,19.0,-237.0,-68.0,0
1193,18.0,-234.0,-66.0,0
1194,15.0,-234.0,-62.0,0
1195,11.0,-228.0,-57.0,0
1196,3.0,-226.0,-59.0,0
1197,2.0,-223.0,-55.0,0
1198,1.0,-226.0,-50.0,0
1199,1.0,-228.0,-55.0,0
1200,0.0,-223.0,-56.0,0
1201,0.0,-226.0,-53.0,0
1202,1.0,-224.0,-56.0,0
1203,1.0,-226.0,-55.0,0
1204,7.0,-230.0,-55.0,0
1205,8.0,-232.0,-55.0,0
1206,11.0,-236.0,-56.0,0
1207,17.0,-238.0,-56.0,0
1208,19.0,-241.0,-56.0,0
1209,19.0,-240.0,-53.0,0
1210,23.0,-245.0,-54.0,0
1211,25.0,-251.0,-56.0,0
1212,24.0,-253.0,-52.0,0
1213,21.0,-257.0,-50.0,0
1214,21.0,-269.0,-37.0,0
1215,18.0,-267.0,-51.0,0
1216,25.0,-272.0,-47.0,0
1217,22.0,-283.0,-47.0,0
1218,21.0,-287.0,-48.0,0
1219,17.0,-293.0,-47.0,0
1220,19.0,-298.0,-46.0,0
1221,24.0,-297.0,-44.0,0
1222,25.0,-296.0,-52.0,0
1223,30.0,-296.0,-53.0,0
1224,33.0,-293.0,-59.0,0
1225,41.0,-292.0,-60.0,0
1226,39.0,-284.0,-54.0,0
1227,38.0,-284.0,-55.0,0
1228,36.0,-281.0,-49.0,0
1229,27.0,-278.0,-37.0,0
1230,27.0,-280.0,-33.0,0
1231,25.0,-283.0,-22.0,0
1232,28.0,-288.0,-12.0,0
1233,32.0,-293.0,-3.0,0
1234,40.0,-301.0,1.0,0
1235,54.0,-306.0,-6.0,0
1236,64.0,-314.0,-20.0,0
1237,83.0,-326.0,-33.0,0
1238,102.0,-343.0,-62.0,0
1239,118.0,-361.0,-82.0,0
1240,124.0,-379.0,-117.0,0
1241,112.0,-396.0,-155.0,0
1242,72.0,-409.0,-190.0,0
1243,27.0,-416.0,-207.0,0
1244,-19.0,-411.0,-220.0,0
1245,-50.0,-397.0,-230.0,0
1246,-61.0,-386.0,-228.0,0
1247,-53.0,-368.0,-223.0,0
1248,-41.0,-341.0,-219.0,0
1249,-35.0,-303.0,-216.0,0
1250,-19.0,-261.0,-223.0,0
1251,-9.0,-222.0,-229.0,0
1252,2.0,-179.0,-230.0,0
1253,18.0,-142.0,-232.0,0
1254,32.0,-114.0,-224.0,0
1255,48.0,-95.0,-218.0,0
1256,59.0,-89.0,-209.0,0
1257,66.0,-97.0,-195.0,0
1258,73.0,-117.0,-181.0,0
1259,73.0,-148.0,-155.0,0
1260,80.0,-187.0,-137.0,0
1261,77.0,-225.0,-118.0,0
1262,77.0,-263.0,-109.0,0
1263,76.0,-293.0,-102.0,0
1264,73.0,-314.0,-102.0,0
1265,72.0,-327.0,-109.0,0
1266,64.0,-328.0,-112.0,0
1267,56.0,-325.0,-124.0,0
1268,40.0,-314.0,-131.0,0
1269,33.0,-302.0,-133.0,0
1270,19.0,-285.0,-139.0,0
1271,10.0,-274.0,-133.0,0
1272,-1.0,-261.0,-130.0,0
1273,-14.0,-253.0,-124.0,0
1274,-30.0,-245.0,-116.0,0
1275,-45.0,-241.0,-105.0,0
1276,-58.0,-238.0,-95.0,0
1277,-63.0,-238.0,-87.0,0
1278,-69.0,-236.0,-78.0,0
1279,-70.0,-240.0,-78.0,0
1280,-66.0,-241.0,-75.0,0
1281,-62.0,-247.0,-76.0,0
1282,-53.0,-248.0,-79.0,0
1283,-43.0,-244.0,-84.0,0
1284,-29.0,-243.0,-86.0,0
1285,-15.0,-243.0,-95.0,0
1286,-5.0,-236.0,-95.0,0
1287,7.0,-235.0,-98.0,0
1288,16.0,-231.0,-99.0,0
1289,28.0,-227.0,-99.0,0
1290,39.0,-227.0,-92.0,0
1291,51.0,-223.0,-91.0,0
1292,57.0,-228.0,-89.0,0
1293,64.0,-229.0,-84.0,0
1294,67.0,-224.0,-77.0,0
1295,68.0,-225.0,-76.0,0
1296,72.0,-225.0,-67.0,0
1297,71.0,-229.0,-72.0,0
1298,71.0,-233.0,-72.0,0
1299,68.0,-227.0,-76.0,0
1300,67.0,-236.0,-71.0,0
1301,65.0,-220.0,-84.0,0
1302,66.0,-214.0,-88.0,0
1303,62.0,-209.0,-89.0,0
1304,58.0,-206.0,-96.0,0
1305,55.0,-201.0,-102.0,0
1306,51.0,-200.0,-105.0,0
1307,45.0,-195.0,-106.0,0
1308,44.0,-193.0,-112.0,0
1309,42.0,-194.0,-113.0,0
1310,42.0,-194.0,-116.0,0
1311,44.0,-196.0,-120.0,0
1312,44.0,-198.0,-121.0,0
1313,45.0,-203.0,-121.0,0
1314,53.0,-204.0,-122.0,0
1315,56.0,-206.0,-123.0,0
1316,58.0,-203.0,-123.0,0
1317,56.0,-194.0,-123.0,0
1318,62.0,-185.0,-123.0,0
1319,64.0,-174.0,-120.0,0
1320,63.0,-161.0,-119.0,0
1321,63.0,-145.0,-115.0,0
1322,61.0,-131.0,-112.0,0
1323,59.0,-120.0,-102.0,0
1324,58.0,-111.0,-98.0,0
1325,55.0,-104.0,-96.0,0
1326,53.0,-102.0,-86.0,0
1327,58.0,-98.0,-76.0,0
1328,52.0,-102.0,-68.0,0
1329,59.0,-101.0,-69.0,0
1330,60.0,-103.0,-63.0,0
1331,64.0,-103.0,-56.0,0
1332,62.0,-111.0,-43.0,0
1333,63.0,-108.0,-41.0,0
1334,62.0,-114.0,-35.0,0
1335,58.0,-113.0,-24.0,0
1336,56.0,-116.0,-19.0,0
1337,51.0,-117.0,-12.0,0
1338,44.0,-119.0,-3.0,0
1339,39.0,-132.0,7.0,0
1340,27.0,-134.0,12.0,0
1341,17.0,-137.0,18.0,0
1342,3.0,-146.0,26.0,0
1343,-8.0,-157.0,21.0,0
1344,-27.0,-171.0,27.0,0
1345,-41.0,-180.0,23.0,0
1346,-52.0,-181.0,13.0,0
1347,-60.0,-173.0,6.0,0
1348,-68.0,-158.0,-11.0,0
1349,-65.0,-137.0,-33.0,0
1350,-63.0,-123.0,-48.0,0
1351,-54.0,-84.0,-88.0,0
1352,-34.0,-58.0,-112.0,0
1353,-22.0,-36.0,-133.0,0
1354,0.0,-25.0,-155.0,0
1355,25.0,-15.0,-173.0,0
1356,38.0,-11.0,-192.0,0
1357,51.0,-15.0,-204.0,0
1358,43.0,-28.0,-213.0,0
1359,41.0,-44.0,-230.0,0
1360,46.0,-63.0,-247.0,0
1361,57.0,-97.0,-256.0,0
1362,71.0,-135.0,-256.0,0
1363,78.0,-169.0,-250.0,0
1364,96.0,-211.0,-243.0,0
1365,107.0,-252.0,-227.0,0
1366,122.0,-288.0,-200.0,0
1367,129.0,-323.0,-167.0,0
1368,132.0,-347.0,-130.0,0
1369,119.0,-366.0,-93.0,0
1370,96.0,-371.0,-60.0,0
1371,68.0,-384.0,-24.0,0
1372,32.0,-361.0,-18.0,0
1373,1.0,-323.0,-10.0,0
1374,-36.0,-299.0,-2.0,0
1375,-71.0,-268.0,3.0,0
1376,-95.0,-221.0,-14.0,0
1377,-115.0,-198.0,-3.0,0
1378,-124.0,-164.0,-8.0,0
1379,-115.0,-142.0,-20.0,0
1380,-108.0,-122.0,-36.0,0
1381,-97.0,-103.0,-42.0,2
1382,-90.0,-90.0,-58.0,2
1383,-79.0,-82.0,-67.0,2
1384,-67.0,-78.0,-87.0,2
1385,-62.0,-78.0,-116.0,2
1386,-52.0,-88.0,-138.0,2
1387,-40.0,-114.0,-138.0,2
1388,-29.0,-144.0,-130.0,2
1389,-15.0,-173.0,-136.0,2
1390,1.0,-198.0,-129.0,2
1391,17.0,-218.0,-120.0,2
1392,37.0,-223.0,-117.0,2
1393,61.0,-232.0,-108.0,2
1394,82.0,-229.0,-96.0,2
1395,90.0,-221.0,-77.0,2
1396,92.0,-200.0,-73.0,2
1397,88.0,-184.0,-67.0,2
1398,76.0,-162.0,-67.0,2
1399,64.0,-139.0,-58.0,2
1400,39.0,-125.0,-41.0,2
1401,9.0,-129.0,-8.0,2
1402,-12.0,-160.0,25.0,2
1403,-41.0,-202.0,44.0,2
1404,-92.0,-251.0,50.0,2
1405,-159.0,-301.0,65.0,2
1406,-214.0,-350.0,60.0,2
1407,-252.0,-373.0,16.0,2
1408,-314.0,-385.0,-23.0,2
1409,-367.0,-411.0,-57.0,2
1410,-403.0,-423.0,-92.0,2
1411,-443.0,-448.0,-115.0,2
1412,-525.0,-502.0,-110.0,2
1413,-636.0,-541.0,-99.0,2
1414,-649.0,-530.0,-115.0,2
1415,-708.0,-516.0,-105.0,2
1416,-728.0,-555.0,-99.0,2
1417,-710.0,-600.0,-100.0,2
1418,-710.0,-650.0,-105.0,2
1419,-712.0,-693.0,-91.0,2
1420,-804.0,-703.0,-45.0,2
1421,-739.0,-676.0,-90.0,2
1422,-581.0,-624.0,-106.0,2
1423,-479.0,-565.0,-100.0,2
1424,-417.0,-522.0,-103.0,2
1425,-424.0,-486.0,-69.0,2
1426,-456.0,-436.0,-15.0,2
1427,-435.0,-387.0,40.0,2
1428,-391.0,-334.0,78.0,2
1429,-354.0,-268.0,97.0,2
1430,-332.0,-188.0,106.0,2
1431,-314.0,-107.0,94.0,2
1432,-299.0,-36.0,77.0,2
1433,-288.0,12.0,63.0,2
1434,-274.0,30.0,54.0,2
1435,-263.0,24.0,42.0,2
1436,-248.0,6.0,17.0,2
1437,-237.0,-18.0,1.0,2
1438,-232.0,-41.0,-12.0,2
1439,-236.0,-63.0,-8.0,2
1440,-235.0,-88.0,-6.0,2
1441,-218.0,-100.0,-5.0,2
1442,-213.0,-102.0,-15.0,2
1443,-215.0,-108.0,0.0,2
1444,-214.0,-115.0,13.0,2
1445,-214.0,-101.0,16.0,2
1446,-209.0,-85.0,30.0,2
1447,-209.0,-55.0,30.0,2
1448,-203.0,-22.0,30.0,2
1449,-198.0,17.0,31.0,2
1450,-199.0,57.0,31.0,2
1451,-175.0,66.0,29.0,2
1452,-138.0,65.0,11.0,2
1453,-127.0,62.0,14.0,2
1454,-110.0,43.0,11.0,2
1455,-93.0,36.0,5.0,2
1456,-96.0,35.0,13.0,2
1457,-81.0,38.0,11.0,2
1458,-73.0,48.0,26.0,2
1459,-59.0,41.0,34.0,2
1460,-59.0,28.0,50.0,2
1461,-49.0,8.0,63.0,2
1462,-37.0,-11.0,74.0,2
1463,-31.0,-34.0,84.0,2
1464,-41.0,-30.0,106.0,2
1465,-38.0,-4.0,128.0,2
1466,-44.0,5.0,130.0,2
1467,-69.0,25.0,143.0,2
1468,-81.0,35.0,151.0,2
1469,-95.0,49.0,168.0,2
1470,-96.0,65.0,174.0,2
1471,-83.0,94.0,172.0,2
1472,-76.0,110.0,181.0,2
1473,-84.0,124.0,172.0,2
1474,-91.0,141.0,178.0,2
1475,-107.0,155.0,191.0,2
1476,-126.0,168.0,219.0,2
1477,-155.0,176.0,258.0,2
1478,-167.0,210.0,271.0,2
1479,-173.0,239.0,267.0,2
1480,-182.0,243.0,267.0,2
1481,-203.0,224.0,265.0,2
1482,-219.0,235.0,253.0,2
1483,-227.0,231.0,239.0,2
1484,-212.0,231.0,216.0,2
1485,-201.0,228.0,190.0,2
1486,-193.0,217.0,177.0,1
1487,-191.0,199.0,178.0,1
1488,-192.0,177.0,184.0,1
1489,-184.0,156.0,195.0,1
1490,-193.0,141.0,214.0,1
1491,-187.0,130.0,205.0,1
1492,-170.0,136.0,193.0,1
1493,-179.0,131.0,187.0,1
1494,-176.0,142.0,178.0,1
1495,-189.0,145.0,193.0,1
1496,-173.0,152.0,189.0,1
1497,-170.0,151.0,174.0,1
1498,-154.0,150.0,150.0,1
1499,-158.0,146.0,141.0,1
1500,-151.0,143.0,127.0,1
1501,-136.0,141.0,125.0,1
1502,-135.0,133.0,128.0,1
1503,-138.0,136.0,133.0,1
1504,-146.0,123.0,144.0,1
1505,-141.0,115.0,144.0,1
1506,-130.0,114.0,138.0,1
1507,-112.0,113.0,127.0,1
1508,-125.0,108.0,129.0,1
1509,-131.0,101.0,132.0,1
1510,-129.0,94.0,126.0,1
1511,-130.0,92.0,124.0,1
1512,-138.0,86.0,131.0,1
1513,-143.0,81.0,126.0,1
1514,-149.0,78.0,127.0,1
1515,-156.0,76.0,129.0,1
1516,-157.0,76.0,129.0,1
1517,-161.0,78.0,126.0,1
1518,-161.0,72.0,125.0,1
1519,-163.0,72.0,126.0,1
1520,-167.0,74.0,118.0,1
1521,-165.0,71.0,119.0,1
1522,-168.0,74.0,122.0,1
1523,-166.0,71.0,123.0,1
1524,-164.0,68.0,123.0,1
1525,-172.0,69.0,127.0,1
1526,-172.0,65.0,128.0,1
1527,-172.0,64.0,127.0,1
1528,-173.0,62.0,123.0,1
1529,-170.0,60.0,118.0,1
1530,-172.0,63.0,117.0,1
1531,-175.0,62.0,109.0,1
1532,-172.0,63.0,113.0,1
1533,-173.0,61.0,115.0,1
1534,-178.0,60.0,110.0,1
1535,-186.0,57.0,111.0,1
1536,-189.0,54.0,110.0,1
1537,-184.0,46.0,114.0,1
1538,-187.0,49.0,103.0,1
1539,-185.0,45.0,96.0,1
1540,-184.0,43.0,94.0,1
1541,-181.0,31.0,88.0,1
1542,-180.0,24.0,92.0,1
1543,-180.0,21.0,92.0,1
1544,-181.0,17.0,101.0,1
1545,-186.0,13.0,105.0,1
1546,-185.0,7.0,102.0,1
1547,-185.0,6.0,99.0,1
1548,-186.0,7.0,107.0,1
1549,-192.0,10.0,106.0,1
1550,-196.0,14.0,110.0,1
1551,-200.0,14.0,113.0,1
1552,-205.0,12.0,112.0,1
1553,-206.0,6.0,114.0,1
1554,-208.0,3.0,116.0,1
1555,-213.0,0.0,120.0,1
1556,-219.0,0.0,120.0,1
1557,-220.0,-8.0,125.0,1
1558,-222.0,-10.0,122.0,1
1559,-223.0,-12.0,123.0,1
1560,-223.0,-13.0,120.0,1
1561,-224.0,-14.0,120.0,1
1562,-224.0,-15.0,116.0,1
1563,-226.0,-11.0,116.0,1
1564,-220.0,-12.0,117.0,1
1565,-223.0,-10.0,114.0,1
1566,-214.0,-11.0,111.0,1
1567,-213.0,-15.0,115.0,1
1568,-207.0,-15.0,115.0,1
1569,-207.0,-12.0,115.0,1
1570,-197.0,-12.0,115.0,1
1571,-196.0,-15.0,114.0,1
1572,-192.0,-16.0,110.0,1
1573,-190.0,-15.0,111.0,1
1574,-192.0,-16.0,113.0,1
1575,-190.0,-21.0,110.0,1
1576,-188.0,-26.0,112.0,1
1577,-186.0,-27.0,111.0,1
1578,-180.0,-31.0,112.0,1
1579,-179.0,-38.0,117.0,1
1580,-179.0,-40.0,116.0,1
1581,-184.0,-40.0,117.0,1
1582,-186.0,-36.0,115.0,1
1583,-183.0,-34.0,114.0,1
1584,-181.0,-33.0,114.0,1
1585,-176.0,-28.0,112.0,1
1586,-172.0,-20.0,115.0,1
1587,-169.0,-15.0,120.0,1
1588,-164.0,-10.0,123.0,1
1589,-164.0,-11.0,125.0,1
1590,-160.0,-7.0,124.0,1
1591,-157.0,-7.0,126.0,1
1592,-157.0,-6.0,125.0,1
1593,-154.0,-12.0,126.0,1
1594,-154.0,-12.0,126.0,1
1595,-152.0,-14.0,126.0,1
1596,-151.0,-19.0,128.0,1
1597,-155.0,-20.0,128.0,1
1598,-151.0,-19.0,132.0,1
1599,-154.0,-20.0,134.0,1
1600,-156.0,-21.0,135.0,1
1601,-154.0,-20.0,139.0,1
1602,-156.0,-23.0,141.0,1
1603,-167.0,-23.0,141.0,1
1604,-155.0,-17.0,142.0,1
1605,-153.0,-13.0,148.0,1
1606,-153.0,-14.0,146.0,1
1607,-152.0,-12.0,152.0,1
1608,-153.0,-11.0,155.0,0
1609,-160.0,-5.0,151.0,0
1610,-154.0,-6.0,151.0,0
1611,-150.0,-5.0,154.0,0
1612,-149.0,-8.0,154.0,0
1613,-145.0,0.0,143.0,0
1614,-157.0,-7.0,155.0,0
1615,-153.0,-10.0,158.0,0
1616,-155.0,-7.0,156.0,0
1617,-154.0,-8.0,155.0,0
1618,-152.0,-7.0,154.0,0
1619,-154.0,-7.0,157.0,0
1620,-156.0,-1.0,159.0,0
1621,-156.0,-3.0,154.0,0
1622,-159.0,0.0,155.0,0
1623,-159.0,1.0,157.0,0
1624,-159.0,2.0,157.0,0
1625,-160.0,1.0,153.0,0
1626,-157.0,0.0,154.0,0
1627,-156.0,0.0,151.0,0
1628,-150.0,0.0,157.0,0
1629,-143.0,0.0,152.0,0
1630,-142.0,-6.0,155.0,0
1631,-142.0,-7.0,152.0,0
1632,-137.0,-9.0,152.0,0
1633,-135.0,-13.0,159.0,0
1634,-138.0,-8.0,152.0,0
1635,-135.0,-8.0,155.0,0
1636,-132.0,-8.0,155.0,0
1637,-133.0,-4.0,157.0,0
1638,-132.0,-8.0,149.0,0
1639,-136.0,-7.0,153.0,0
1640,-134.0,-9.0,156.0,0
1641,-133.0,-8.0,153.0,0
1642,-133.0,-9.0,154.0,0
1643,-134.0,-5.0,157.0,0
1644,-134.0,-8.0,159.0,0
1645,-136.0,-8.0,155.0,0
1646,-138.0,-6.0,158.0,0
1647,-141.0,-6.0,156.0,0
1648,-142.0,-7.0,160.0,0
1649,-141.0,-7.0,160.0,0
1650,-145.0,-3.0,158.0,0
1651,-146.0,-4.0,158.0,0
1652,-147.0,-2.0,162.0,0
1653,-145.0,-3.0,155.0,0
1654,-146.0,-2.0,156.0,0
1655,-146.0,-1.0,160.0,0
1656,-146.0,-2.0,158.0,0
1657,-150.0,-5.0,159.0,0
1658,-150.0,-5.0,165.0,0
1659,-150.0,-8.0,162.0,0
1660,-148.0,-10.0,160.0,0
1661,-150.0,-9.0,166.0,0
1662,-140.0,-14.0,165.0,0
1663,-145.0,-14.0,163.0,0
1664,-143.0,-15.0,167.0,0
1665,-136.0,-19.0,161.0,0
1666,-134.0,-15.0,164.0,0
1667,-135.0,-17.0,162.0,0
1668,-131.0,-19.0,164.0,0
1669,-134.0,-16.0,166.0,0
1670,-130.0,-14.0,165.0,0
1671,-131.0,-14.0,168.0,0
1672,-129.0,-12.0,170.0,0
1673,-129.0,-12.0,173.0,0
1674,-128.0,-11.0,170.0,0
1675,-129.0,-8.0,168.0,0
1676,-127.0,-9.0,172.0,0
1677,-131.0,-4.0,171.0,0
1678,-129.0,-9.0,168.0,0
1679,-130.0,-9.0,170.0,0
1680,-128.0,-9.0,169.0,0
1681,-131.0,-6.0,168.0,0
1682,-127.0,-13.0,170.0,0
1683,-127.0,-12.0,166.0,0
1684,-128.0,-14.0,171.0,0
1685,-121.0,-12.0,167.0,0
1686,-122.0,-15.0,168.0,0
1687,-120.0,-14.0,169.0,0
1688,-118.0,-18.0,171.0,0
1689,-115.0,-15.0,168.0,0
1690,-106.0,-16.0,170.0,0
1691,-117.0,-11.0,172.0,0
1692,-118.0,-11.0,172.0,0
1693,-122.0,-10.0,168.0,0
1694,-119.0,-8.0,168.0,0
1695,-117.0,-10.0,170.0,0
1696,-117.0,-8.0,165.0,0
1697,-119.0,-7.0,168.0,0
1698,-119.0,-9.0,167.0,0
1699,-121.0,-10.0,166.0,0
1700,-122.0,-8.0,170.0,0
1701,-123.0,-10.0,170.0,0
1702,-125.0,-12.0,163.0,0
1703,-123.0,-14.0,169.0,0
1704,-121.0,-16.0,169.0,0
1705,-121.0,-10.0,170.0,0
1706,-120.0,-14.0,161.0,0
1707,-122.0,-13.0,168.0,0
1708,-119.0,-15.0,168.0,0
1709,-120.0,-11.0,171.0,0
1710,-119.0,-13.0,172.0,0
1711,-116.0,-16.0,170.0,0
1712,-116.0,-18.0,178.0,0
1713,-121.0,-16.0,173.0,0
1714,-121.0,-15.0,171.0,0
1715,-124.0,-13.0,174.0,0
1716,-121.0,-12.0,171.0,0
1717,-125.0,-10.0,166.0,0
1718,-122.0,-10.0,171.0,0
1719,-122.0,-6.0,171.0,0
1720,-124.0,-6.0,170.0,0
1721,-125.0,-8.0,171.0,0
1722,-125.0,-8.0,173.0,0
1723,-127.0,-13.0,169.0,0
1724,-127.0,-10.0,169.0,0
1725,-126.0,-10.0,168.0,0
1726,-127.0,-14.0,172.0,0
1727,-130.0,-13.0,173.0,0
1728,-127.0,-18.0,170.0,0
1729,-127.0,-18.0,169.0,0
1730,-127.0,-16.0,170.0,0
1731,-124.0,-14.0,166.0,0
1732,-124.0,-14.0,167.0,0
1733,-122.0,-11.0,166.0,0
1734,-122.0,-13.0,166.0,0
1735,-120.0,-12.0,168.0,0
1736,-120.0,-10.0,162.0,0
1737,-122.0,-11.0,168.0,0
1738,-121.0,-9.0,171.0,0
1739,-122.0,-8.0,168.0,0
1740,-120.0,-7.0,170.0,0
1741,-122.0,-12.0,173.0,0
1742,-120.0,-12.0,171.0,0
1743,-122.0,-13.0,172.0,0
1744,-124.0,-16.0,174.0,0
1745,-123.0,-16.0,172.0,0
1746,-123.0,-19.0,170.0,0
1747,-125.0,-18.0,170.0,0
1748,-128.0,-18.0,170.0,0
1749,-126.0,-18.0,170.0,0
1750,-127.0,-17.0,169.0,0
1751,-127.0,-15.0,169.0,0
1752,-127.0,-13.0,171.0,0
1753,-129.0,-14.0,167.0,0
1754,-128.0,-13.0,170.0,0
1755,-127.0,-8.0,169.0,0
1756,-127.0,-13.0,168.0,0
1757,-122.0,-13.0,171.0,0
1758,-124.0,-13.0,171.0,0
1759,-121.0,-15.0,171.0,0
1760,-124.0,-12.0,173.0,0
1761,-120.0,-14.0,171.0,0
1762,-121.0,-13.0,172.0,0
1763,-124.0,-13.0,174.0,0
1764,-122.0,-16.0,172.0,0
1765,-122.0,-18.0,171.0,0
1766,-126.0,-20.0,171.0,0
1767,-123.0,-23.0,165.0,0
1768,-125.0,-21.0,169.0,0
1769,-126.0,-21.0,167.0,0
1770,-128.0,-20.0,170.0,0
1771,-125.0,-22.0,169.0,0
1772,-126.0,-18.0,167.0,0
1773,-127.0,-22.0,173.0,0
1774,-125.0,-21.0,168.0,0
1775,-124.0,-24.0,170.0,0
1776,-128.0,-18.0,169.0,0
1777,-129.0,-16.0,162.0,0
1778,-127.0,-22.0,169.0,0
1779,-126.0,-20.0,173.0,0
1780,-126.0,-23.0,173.0,0
1781,-124.0,-19.0,169.0,0
1782,-126.0,-20.0,164.0,0
1783,-124.0,-19.0,167.0,0
1784,-121.0,-22.0,169.0,0
1785,-121.0,-19.0,168.0,0
1786,-123.0,-17.0,171.0,0
1787,-125.0,-18.0,170.0,0
1788,-126.0,-18.0,169.0,0
1789,-123.0,-20.0,167.0,0
1790,-122.0,-20.0,169.0,0
1791,-123.0,-19.0,172.0,0
1792,-126.0,-21.0,170.0,0
1793,-123.0,-17.0,168.0,0
1794,-123.0,-18.0,168.0,0
1795,-118.0,-19.0,171.0,0
1796,-124.0,-18.0,172.0,0
1797,-120.0,-18.0,171.0,0
1798,-122.0,-18.0,174.0,0
1799,-123.0,-16.0,174.0,0
1800,-123.0,-14.0,175.0,0
1801,-119.0,-17.0,172.0,0
1802,-120.0,-16.0,170.0,0
1803,-121.0,-18.0,173.0,0
1804,-118.0,-16.0,172.0,0
1805,-122.0,-17.0,172.0,0
1806,-121.0,-15.0,171.0,0
1807,-123.0,-17.0,175.0,0
1808,-122.0,-19.0,174.0,0
1809,-120.0,-16.0,176.0,0
1810,-120.0,-14.0,177.0,0
1811,-120.0,-16.0,175.0,0
1812,-121.0,-15.0,175.0,0
1813,-119.0,-16.0,177.0,0
1814,-116.0,-21.0,177.0,0
1815,-121.0,-17.0,176.0,0
1816,-121.0,-16.0,178.0,0
1817,-98.0,-18.0,175.0,0
1818,-118.0,-17.0,176.0,0
1819,-118.0,-18.0,177.0,0
1820,-118.0,-18.0,176.0,0
1821,-116.0,-15.0,176.0,0
1822,-116.0,-16.0,171.0,0
1823,-115.0,-17.0,178.0,0
1824,-115.0,-17.0,176.0,0
1825,-114.0,-17.0,175.0,0
1826,-115.0,-17.0,181.0,0
1827,-114.0,-19.0,178.0,0
1828,-115.0,-17.0,173.0,0
1829,-114.0,-18.0,176.0,0
1830,-115.0,-18.0,180.0,0
1831,-114.0,-18.0,179.0,0
1832,-114.0,-18.0,179.0,0
1833,-115.0,-18.0,173.0,0
1834,-111.0,-19.0,182.0,0
1835,-113.0,-21.0,180.0,0
1836,-110.0,-22.0,177.0,0
1837,-113.0,-21.0,177.0,0
1838,-112.0,-23.0,177.0,0
1839,-114.0,-23.0,174.0,0
1840,-113.0,-22.0,174.0,0
1841,-112.0,-23.0,179.0,0
1842,-112.0,-19.0,180.0,0
1843,-115.0,-21.0,180.0,0
1844,-112.0,-24.0,181.0,0
1845,-111.0,-22.0,176.0,0
1846,-110.0,-23.0,176.0,0
1847,-110.0,-24.0,176.0,0
1848,-108.0,-23.0,176.0,0
1849,-109.0,-22.0,180.0,0
1850,-104.0,-27.0,175.0,0
1851,-106.0,-26.0,180.0,0
1852,-103.0,-25.0,178.0,0
1853,-119.0,-18.0,185.0,0
1854,-103.0,-27.0,179.0,0
1855,-107.0,-24.0,177.0,0
1856,-107.0,-25.0,179.0,0
1857,-107.0,-25.0,183.0,0
1858,-104.0,-26.0,177.0,0
1859,-108.0,-20.0,177.0,0
1860,-107.0,-19.0,183.0,0
1861,-109.0,-18.0,181.0,0
1862,-107.0,-19.0,177.0,0
1863,-105.0,-19.0,181.0,0
1864,-109.0,-18.0,188.0,0
1865,-109.0,-18.0,176.0,0
1866,-109.0,-20.0,174.0,0
1867,-110.0,-17.0,177.0,0
1868,-111.0,-19.0,176.0,0
1869,-114.0,-16.0,176.0,0
1870,-111.0,-19.0,178.0,0
1871,-111.0,-18.0,177.0,0
1872,-110.0,-25.0,178.0,0
1873,-112.0,-20.0,179.0,0
1874,-114.0,-18.0,179.0,0
1875,-114.0,-22.0,175.0,0
1876,-111.0,-19.0,179.0,0
1877,-113.0,-18.0,175.0,0
1878,-113.0,-18.0,178.0,0
1879,-114.0,-15.0,175.0,0
1880,-114.0,-22.0,177.0,0
1881,-113.0,-19.0,179.0,0
1882,-115.0,-21.0,177.0,0
1883,-116.0,-21.0,177.0,0
1884,-111.0,-24.0,178.0,0
1885,-113.0,-21.0,174.0,0
1886,-113.0,-21.0,179.0,0
1887,-118.0,-18.0,178.0,0
1888,-111.0,-18.0,176.0,0
1889,-112.0,-24.0,176.0,0
1890,-110.0,-24.0,177.0,0
1891,-112.0,-23.0,177.0,0
1892,-110.0,-21.0,177.0,0
1893,-112.0,-22.0,181.0,0
1894,-112.0,-22.0,177.0,0
1895,-110.0,-23.0,177.0,0
1896,-110.0,-21.0,177.0,0
1897,-111.0,-21.0,182.0,0
1898,-111.0,-21.0,178.0,0
1899,-107.0,-23.0,181.0,0
1900,-110.0,-21.0,177.0,0
1901,-110.0,-23.0,179.0,0
1902,-110.0,-21.0,177.0,0
1903,-108.0,-23.0,177.0,0
1904,-110.0,-22.0,179.0,0
1905,-109.0,-22.0,175.0,0
1906,-110.0,-21.0,180.0,0
1907,-109.0,-23.0,178.0,0
1908,-109.0,-22.0,175.0,0
1909,-112.0,-21.0,176.0,0
1910,-111.0,-22.0,177.0,0
1911,-110.0,-20.0,177.0,0
1912,-112.0,-18.0,175.0,0
1913,-110.0,-18.0,178.0,0
1914,-110.0,-20.0,181.0,0
1915,-108.0,-21.0,181.0,0
1916,-111.0,-22.0,182.0,0
1917,-111.0,-19.0,180.0,0
1918,-110.0,-22.0,174.0,0
1919,-112.0,-20.0,179.0,0
1920,-111.0,-22.0,175.0,0
1921,-109.0,-23.0,177.0,0
1922,-108.0,-21.0,177.0,0
1923,-112.0,-24.0,177.0,0
1924,-111.0,-21.0,177.0,0
1925,-109.0,-21.0,178.0,0
1926,-115.0,-21.0,177.0,0
1927,-111.0,-24.0,178.0,0
1928,-112.0,-21.0,177.0,0
1929,-104.0,-32.0,182.0,0
1930,-111.0,-24.0,180.0,0
1931,-110.0,-20.0,180.0,0
1932,-109.0,-25.0,180.0,0
1933,-109.0,-23.0,181.0,0
1934,-114.0,-20.0,180.0,0
1935,-110.0,-28.0,174.0,0
1936,-110.0,-20.0,177.0,0
1937,-112.0,-21.0,173.0,0
1938,-115.0,-23.0,177.0,0
1939,-113.0,-25.0,178.0,0
1940,-113.0,-16.0,167.0,0
1941,-113.0,-21.0,177.0,0
1942,-112.0,-20.0,177.0,0
1943,-109.0,-21.0,179.0,0
1944,-111.0,-22.0,173.0,0
1945,-112.0,-20.0,180.0,0
1946,-114.0,-23.0,174.0,0
1947,-114.0,-19.0,176.0,0
1948,-115.0,-22.0,181.0,0
1949,-111.0,-21.0,177.0,0
1950,-110.0,-21.0,174.0,0
1951,-110.0,-21.0,175.0,0
1952,-112.0,-23.0,181.0,0
1953,-110.0,-22.0,178.0,0
1954,-110.0,-21.0,179.0,0
1955,-109.0,-23.0,180.0,0
1956,-109.0,-24.0,180.0,0
1957,-110.0,-22.0,176.0,0
1958,-108.0,-23.0,172.0,0
1959,-110.0,-21.0,178.0,0
1960,-109.0,-21.0,180.0,0
1961,-112.0,-17.0,177.0,0
1962,-112.0,-22.0,181.0,0
1963,-113.0,-23.0,180.0,0
1964,-107.0,-24.0,177.0,0
1965,-108.0,-23.0,178.0,0
1966,-106.0,-20.0,177.0,0
1967,-109.0,-22.0,178.0,0
1968,-109.0,-19.0,177.0,0
1969,-112.0,-20.0,180.0,0
1970,-107.0,-22.0,177.0,0
1971,-108.0,-20.0,178.0,0
1972,-109.0,-22.0,184.0,0
1973,-106.0,-24.0,181.0,0
1974,-109.0,-22.0,179.0,0
1975,-108.0,-24.0,182.0,0
1976,-108.0,-21.0,178.0,0
1977,-110.0,-23.0,183.0,0
1978,-108.0,-23.0,176.0,0
1979,-110.0,-21.0,182.0,0
1980,-107.0,-24.0,178.0,0
1981,-109.0,-24.0,184.0,0
1982,-107.0,-21.0,176.0,0
1983,-108.0,-23.0,182.0,0
1984,-110.0,-22.0,179.0,0
1985,-111.0,-23.0,180.0,0
1986,-111.0,-23.0,178.0,0
1987,-108.0,-24.0,180.0,0
1988,-109.0,-20.0,178.0,0
1989,-107.0,-23.0,183.0,0
1990,-107.0,-23.0,179.0,0
1991,-110.0,-19.0,174.0,0
1992,-106.0,-21.0,177.0,0
1993,-108.0,-23.0,177.0,0
1994,-109.0,-19.0,178.0,0
1995,-110.0,-19.0,181.0,0
1996,-106.0,-22.0,180.0,0
1997,-107.0,-22.0,181.0,0
1998,-104.0,-24.0,178.0,0
1999,-106.0,-23.0,178.0,0
2000,-105.0,-22.0,182.0,0
2001,-108.0,-20.0,180.0,0
2002,-107.0,-17.0,181.0,0
2003,-105.0,-23.0,181.0,0
2004,-109.0,-22.0,177.0,0
2005,-110.0,-20.0,179.0,0
2006,-108.0,-18.0,179.0,0
2007,-111.0,-19.0,177.0,0
2008,-111.0,-22.0,180.0,0
2009,-111.0,-17.0,177.0,0
2010,-110.0,-22.0,175.0,0
2011,-110.0,-22.0,178.0,0
2012,-113.0,-21.0,177.0,0
2013,-109.0,-20.0,182.0,0
2014,-110.0,-23.0,179.0,0
2015,-108.0,-20.0,176.0,0
2016,-110.0,-23.0,175.0,0
2017,-108.0,-17.0,160.0,0
2018,-108.0,-22.0,176.0,0
2019,-108.0,-23.0,182.0,0
2020,-109.0,-23.0,178.0,0
2021,-109.0,-25.0,176.0,0
2022,-111.0,-19.0,181.0,0
2023,-110.0,-23.0,173.0,0
2024,-111.0,-21.0,178.0,0
2025,-109.0,-21.0,181.0,0
2026,-108.0,-21.0,174.0,0
2027,-109.0,-22.0,179.0,0
2028,-107.0,-24.0,176.0,0
2029,-112.0,-20.0,178.0,0
2030,-110.0,-22.0,177.0,0
2031,-108.0,-22.0,178.0,0
2032,-110.0,-20.0,180.0,0
2033,-109.0,-22.0,175.0,0
2034,-110.0,-22.0,180.0,0
2035,-110.0,-21.0,177.0,0
2036,-109.0,-21.0,178.0,0
2037,-108.0,-21.0,182.0,0
2038,-111.0,-19.0,178.0,0
2039,-108.0,-22.0,181.0,0
2040,-108.0,-18.0,179.0,0
2041,-111.0,-23.0,178.0,0
2042,-110.0,-22.0,179.0,0
2043,-111.0,-21.0,179.0,0
2044,-113.0,-19.0,180.0,0
2045,-110.0,-23.0,181.0,0
2046,-111.0,-20.0,180.0,0
2047,-110.0,-18.0,181.0,0
2048,-109.0,-17.0,181.0,0
2049,-109.0,-20.0,182.0,0
2050,-112.0,-22.0,182.0,0
2051,-109.0,-22.0,177.0,0
2052,-111.0,-19.0,175.0,0
2053,-108.0,-21.0,180.0,0
2054,-106.0,-19.0,179.0,0
2055,-107.0,-21.0,179.0,0
2056,-109.0,-16.0,177.0,0
2057,-104.0,-21.0,181.0,0
2058,-109.0,-21.0,182.0,0
2059,-108.0,-20.0,179.0,0
2060,-109.0,-19.0,178.0,0
2061,-110.0,-20.0,180.0,0
2062,-110.0,-21.0,180.0,0
2063,-106.0,-22.0,181.0,0
2064,-105.0,-18.0,182.0,0
2065,-112.0,-18.0,177.0,0
2066,-107.0,-22.0,179.0,0
2067,-108.0,-20.0,182.0,0
2068,-110.0,-20.0,178.0,0
2069,-103.0,-21.0,181.0,0
2070,-109.0,-19.0,180.0,0
2071,-109.0,-17.0,181.0,0
2072,-107.0,-22.0,181.0,0
2073,-108.0,-22.0,179.0,0
2074,-107.0,-20.0,180.0,0
2075,-105.0,-20.0,180.0,0
2076,-108.0,-19.0,182.0,0
2077,-106.0,-22.0,181.0,0
2078,-106.0,-17.0,183.0,0
2079,-110.0,-21.0,178.0,0
2080,-108.0,-19.0,179.0,0
2081,-107.0,-22.0,179.0,0
2082,-111.0,-24.0,182.0,0
2083,-109.0,-20.0,178.0,0
2084,-111.0,-17.0,177.0,0
2085,-108.0,-21.0,178.0,0
2086,-110.0,-22.0,180.0,0
2087,-107.0,-21.0,181.0,0
2088,-110.0,-21.0,178.0,0
2089,-111.0,-20.0,178.0,0
2090,-111.0,-21.0,179.0,0
2091,-108.0,-22.0,182.0,0
2092,-106.0,-19.0,179.0,0
2093,-114.0,-15.0,183.0,0
2094,-110.0,-17.0,183.0,0
2095,-108.0,-20.0,179.0,0
2096,-108.0,-20.0,176.0,0
2097,-111.0,-15.0,180.0,0
2098,-110.0,-21.0,174.0,0
2099,-107.0,-23.0,178.0,0
2100,-109.0,-21.0,177.0,0
2101,-109.0,-20.0,182.0,0
2102,-108.0,-22.0,178.0,0
2103,-105.0,-21.0,182.0,0
2104,-99.0,-23.0,191.0,0
2105,-109.0,-19.0,180.0,0
2106,-107.0,-22.0,182.0,0
2107,-110.0,-20.0,182.0,0
2108,-110.0,-18.0,177.0,0
2109,-109.0,-23.0,180.0,0
2110,-107.0,-21.0,180.0,0
2111,-111.0,-19.0,178.0,0
2112,-109.0,-20.0,179.0,0
2113,-109.0,-19.0,178.0,0
2114,-108.0,-19.0,181.0,0
2115,-109.0,-22.0,177.0,0
2116,-109.0,-20.0,180.0,0
2117,-106.0,-20.0,177.0,0
2118,-110.0,-26.0,179.0,0
2119,-107.0,-18.0,175.0,0
2120,-110.0,-20.0,177.0,0
2121,-109.0,-20.0,181.0,0
2122,-106.0,-22.0,184.0,0
2123,-106.0,-21.0,179.0,0
2124,-108.0,-23.0,185.0,0
2125,-109.0,-20.0,180.0,0
2126,-107.0,-20.0,183.0,0
2127,-107.0,-22.0,184.0,0
2128,-107.0,-17.0,182.0,0
2129,-107.0,-23.0,178.0,0
2130,-108.0,-21.0,176.0,0
2131,-107.0,-24.0,175.0,0
2132,-107.0,-22.0,179.0,0
2133,-109.0,-21.0,180.0,0
2134,-110.0,-21.0,181.0,0
2135,-108.0,-20.0,176.0,0
2136,-108.0,-22.0,178.0,0
2137,-106.0,-20.0,178.0,0
2138,-109.0,-19.0,179.0,0
2139,-111.0,-22.0,183.0,0
2140,-110.0,-19.0,184.0,0
2141,-108.0,-18.0,183.0,0
2142,-105.0,-21.0,181.0,0
2143,-110.0,-17.0,181.0,0
2144,-109.0,-20.0,187.0,0
2145,-109.0,-17.0,179.0,0
2146,-106.0,-18.0,176.0,0
2147,-110.0,-19.0,175.0,0
2148,-105.0,-20.0,179.0,0
2149,-108.0,-21.0,183.0,0
2150,-108.0,-20.0,172.0,0
2151,-107.0,-21.0,179.0,0
2152,-108.0,-18.0,180.0,0
2153,-108.0,-20.0,175.0,0
2154,-109.0,-19.0,179.0,0
2155,-108.0,-18.0,178.0,0
2156,-106.0,-22.0,184.0,0
2157,-108.0,-19.0,179.0,0
2158,-105.0,-21.0,183.0,0
2159,-109.0,-23.0,178.0,0
2160,-110.0,-19.0,180.0,0
2161,-108.0,-20.0,180.0,0
2162,-109.0,-21.0,182.0,0
2163,-108.0,-21.0,179.0,0
2164,-108.0,-21.0,182.0,0
2165,-107.0,-22.0,180.0,0
2166,-108.0,-21.0,177.0,0
2167,-107.0,-22.0,180.0,0
2168,-108.0,-20.0,178.0,0
2169,-110.0,-19.0,183.0,0
2170,-108.0,-20.0,182.0,0
2171,-111.0,-20.0,181.0,0
2172,-107.0,-21.0,179.0,0
2173,-109.0,-18.0,178.0,0
2174,-107.0,-18.0,180.0,0
2175,-107.0,-22.0,177.0,0
2176,-108.0,-24.0,180.0,0
2177,-106.0,-21.0,182.0,0
2178,-105.0,-24.0,181.0,0
2179,-107.0,-21.0,177.0,0
2180,-108.0,-30.0,197.0,0
2181,-108.0,-19.0,180.0,0
2182,-107.0,-21.0,177.0,0
2183,-107.0,-20.0,180.0,0
2184,-109.0,-19.0,183.0,0
2185,-104.0,-21.0,180.0,0
2186,-109.0,-22.0,179.0,0
2187,-104.0,-20.0,181.0,0
2188,-108.0,-19.0,181.0,0
2189,-109.0,-20.0,179.0,0
2190,-107.0,-21.0,182.0,0
2191,-108.0,-20.0,179.0,0
2192,-109.0,-20.0,179.0,0
2193,-110.0,-18.0,179.0,0
2194,-108.0,-18.0,180.0,0
2195,-110.0,-20.0,180.0,0
2196,-110.0,-18.0,177.0,0
2197,-109.0,-18.0,181.0,0
2198,-105.0,-20.0,181.0,0
2199,-105.0,-20.0,181.0,0
2200,-108.0,-19.0,179.0,0
2201,-106.0,-21.0,183.0,0
2202,-107.0,-18.0,186.0,0
2203,-107.0,-20.0,181.0,0
2204,-105.0,-23.0,186.0,0
2205,-109.0,-19.0,176.0,0
2206,-110.0,-21.0,185.0,0
2207,-108.0,-19.0,179.0,0
2208,-106.0,-23.0,180.0,0
2209,-106.0,-21.0,179.0,0
2210,-107.0,-19.0,179.0,0
2211,-108.0,-23.0,179.0,0
2212,-107.0,-21.0,180.0,0
2213,-105.0,-19.0,180.0,0
2214,-109.0,-17.0,183.0,0
2215,-106.0,-19.0,178.0,0
2216,-109.0,-23.0,179.0,0
2217,-107.0,-23.0,179.0,0
2218,-106.0,-23.0,181.0,0
2219,-108.0,-21.0,178.0,0
2220,-107.0,-21.0,181.0,0
2221,-110.0,-17.0,181.0,0
2222,-106.0,-17.0,182.0,0
2223,-107.0,-18.0,182.0,0
2224,-106.0,-22.0,181.0,0
2225,-108.0,-17.0,179.0,0
2226,-107.0,-23.0,178.0,0
2227,-108.0,-18.0,183.0,0
2228,-107.0,-22.0,180.0,0
2229,-107.0,-20.0,184.0,0
2230,-107.0,-21.0,180.0,0
2231,-108.0,-20.0,179.0,0
2232,-106.0,-23.0,182.0,0
2233,-109.0,-19.0,181.0,0
2234,-107.0,-22.0,181.0,0
2235,-107.0,-21.0,175.0,0
2236,-106.0,-19.0,180.0,0
2237,-105.0,-21.0,180.0,0
2238,-107.0,-21.0,177.0,0
2239,-108.0,-15.0,183.0,0
2240,-106.0,-20.0,179.0,0
2241,-107.0,-21.0,179.0,0
2242,-108.0,-18.0,181.0,0
2243,-106.0,-20.0,178.0,0
2244,-110.0,-21.0,179.0,0
2245,-107.0,-23.0,182.0,0
2246,-106.0,-21.0,179.0,0
2247,-106.0,-20.0,182.0,0
2248,-111.0,-20.0,183.0,0
2249,-106.0,-20.0,184.0,0
2250,-107.0,-18.0,181.0,0
2251,-105.0,-20.0,184.0,0
2252,-107.0,-20.0,178.0,0
2253,-106.0,-22.0,180.0,0
2254,-105.0,-19.0,182.0,0
2255,-106.0,-23.0,181.0,0
2256,-95.0,-20.0,181.0,0
2257,-108.0,-19.0,183.0,0
2258,-106.0,-19.0,179.0,0
2259,-105.0,-21.0,181.0,0
2260,-108.0,-23.0,180.0,0
2261,-108.0,-21.0,181.0,0
2262,-106.0,-19.0,179.0,0
2263,-107.0,-22.0,183.0,0
2264,-108.0,-20.0,184.0,0
2265,-110.0,-20.0,181.0,0
2266,-106.0,-19.0,182.0,0
2267,-100.0,-17.0,182.0,0
2268,-105.0,-23.0,179.0,0
2269,-107.0,-19.0,180.0,0
2270,-108.0,-21.0,179.0,0
2271,-110.0,-16.0,180.0,0
2272,-109.0,-20.0,181.0,0
2273,-107.0,-18.0,176.0,0
2274,-107.0,-17.0,181.0,0
2275,-106.0,-23.0,182.0,0
2276,-105.0,-22.0,181.0,0
2277,-106.0,-24.0,176.0,0
2278,-107.0,-23.0,179.0,0
2279,-107.0,-19.0,180.0,0
2280,-104.0,-22.0,179.0,0
2281,-106.0,-22.0,178.0,0
2282,-106.0,-19.0,182.0,0
2283,-107.0,-21.0,179.0,0
2284,-104.0,-22.0,185.0,0
2285,-106.0,-23.0,185.0,0
2286,-106.0,-20.0,183.0,0
2287,-105.0,-20.0,178.0,0
2288,-106.0,-22.0,178.0,0
2289,-105.0,-21.0,182.0,0
2290,-110.0,-19.0,181.0,0
2291,-107.0,-23.0,179.0,0
2292,-104.0,-22.0,179.0,0
2293,-109.0,-22.0,181.0,0
2294,-108.0,-22.0,183.0,0
2295,-109.0,-19.0,181.0,0
2296,-107.0,-19.0,179.0,0
2297,-108.0,-18.0,180.0,0
2298,-107.0,-20.0,183.0,0
2299,-103.0,-20.0,181.0,0
2300,-106.0,-18.0,185.0,0
2301,-106.0,-18.0,181.0,0
2302,-105.0,-22.0,182.0,0
2303,-107.0,-19.0,179.0,0
2304,-107.0,-20.0,178.0,0
2305,-106.0,-20.0,180.0,0
2306,-104.0,-17.0,180.0,0
2307,-107.0,-19.0,182.0,0
2308,-108.0,-19.0,178.0,0
2309,-104.0,-24.0,180.0,0
2310,-107.0,-23.0,180.0,0
2311,-107.0,-18.0,183.0,0
2312,-106.0,-20.0,183.0,0
2313,-103.0,-19.0,179.0,0
2314,-104.0,-21.0,178.0,0
2315,-107.0,-19.0,182.0,0
2316,-106.0,-17.0,186.0,0
2317,-107.0,-21.0,181.0,0
2318,-105.0,-23.0,183.0,0
2319,-106.0,-19.0,181.0,0
2320,-105.0,-20.0,180.0,0
2321,-106.0,-23.0,183.0,0
2322,-108.0,-24.0,180.0,0
2323,-106.0,-22.0,178.0,0
2324,-105.0,-22.0,179.0,0
2325,-107.0,-21.0,181.0,0
2326,-107.0,-21.0,182.0,0
2327,-107.0,-21.0,179.0,0
2328,-110.0,-18.0,181.0,0
2329,-107.0,-20.0,180.0,0
2330,-108.0,-20.0,180.0,0
2331,-107.0,-18.0,180.0,0
2332,-105.0,-21.0,181.0,0
2333,-104.0,-19.0,181.0,0
2334,-106.0,-12.0,179.0,0
2335,-104.0,-20.0,179.0,0
2336,-107.0,-18.0,180.0,0
2337,-106.0,-20.0,180.0,0
2338,-104.0,-19.0,179.0,0
2339,-103.0,-20.0,180.0,0
2340,-107.0,-19.0,180.0,0
2341,-104.0,-21.0,180.0,0
2342,-108.0,-21.0,180.0,0
2343,-102.0,-9.0,167.0,0
2344,-103.0,-22.0,182.0,0
2345,-109.0,-19.0,178.0,0
2346,-107.0,-21.0,183.0,0
2347,-106.0,-23.0,178.0,0
2348,-106.0,-22.0,180.0,0
2349,-109.0,-18.0,181.0,0
2350,-108.0,-19.0,179.0,0
2351,-106.0,-19.0,179.0,0
2352,-106.0,-19.0,178.0,0
2353,-106.0,-17.0,178.0,0
2354,-107.0,-18.0,192.0,0
2355,-107.0,-21.0,179.0,0
2356,-108.0,-21.0,178.0,0
2357,-108.0,-24.0,178.0,0
2358,-107.0,-20.0,180.0,0
2359,-106.0,-18.0,181.0,0
2360,-106.0,-18.0,180.0,0
2361,-105.0,-22.0,181.0,0
2362,-109.0,-18.0,181.0,0
2363,-104.0,-19.0,183.0,0
2364,-109.0,-21.0,181.0,0
2365,-104.0,-19.0,182.0,0
2366,-106.0,-22.0,181.0,0
2367,-103.0,-22.0,181.0,0
2368,-106.0,-18.0,178.0,0
2369,-105.0,-19.0,181.0,0
2370,-108.0,-19.0,179.0,0
2371,-105.0,-20.0,180.0,0
2372,-107.0,-19.0,180.0,0
2373,-106.0,-18.0,184.0,0
2374,-106.0,-18.0,180.0,0
2375,-108.0,-17.0,183.0,0
2376,-108.0,-19.0,179.0,0
2377,-104.0,-20.0,182.0,0
2378,-104.0,-20.0,182.0,0
2379,-108.0,-19.0,179.0,0
2380,-105.0,-21.0,183.0,0
2381,-108.0,-19.0,183.0,0
2382,-106.0,-21.0,186.0,0
2383,-106.0,-20.0,180.0,0
2384,-105.0,-21.0,180.0,0
2385,-108.0,-17.0,178.0,0
2386,-108.0,-19.0,179.0,0
2387,-104.0,-22.0,182.0,0
2388,-108.0,-19.0,180.0,0
2389,-103.0,-18.0,179.0,0
2390,-107.0,-21.0,181.0,0
2391,-105.0,-19.0,182.0,0
2392,-106.0,-21.0,182.0,0
2393,-107.0,-16.0,186.0,0
2394,-104.0,-20.0,179.0,0
2395,-106.0,-18.0,178.0,0
2396,-105.0,-19.0,182.0,0
2397,-107.0,-18.0,180.0,0
2398,-106.0,-22.0,182.0,0
2399,-104.0,-20.0,184.0,0
2400,-108.0,-20.0,180.0,0
2401,-104.0,-24.0,181.0,0
2402,-106.0,-18.0,181.0,0
2403,-105.0,-18.0,183.0,0
2404,-107.0,-14.0,180.0,0
2405,-108.0,-22.0,177.0,0
2406,-109.0,-19.0,180.0,0
2407,-109.0,-16.0,182.0,0
2408,-107.0,-22.0,182.0,0
2409,-107.0,-18.0,183.0,0
2410,-106.0,-18.0,182.0,0
2411,-107.0,-18.0,185.0,0
2412,-107.0,-17.0,183.0,0
2413,-105.0,-21.0,179.0,0
2414,-108.0,-19.0,181.0,0
2415,-109.0,-18.0,180.0,0
2416,-104.0,-21.0,181.0,0
2417,-108.0,-17.0,184.0,0
2418,-104.0,-19.0,182.0,0
2419,-107.0,-20.0,180.0,0
2420,-105.0,-20.0,185.0,0
2421,-105.0,-18.0,180.0,0
2422,-108.0,-17.0,180.0,0
2423,-107.0,-18.0,179.0,0
2424,-104.0,-17.0,182.0,0
2425,-105.0,-19.0,181.0,0
2426,-107.0,-21.0,179.0,0
2427,-108.0,-18.0,181.0,0
2428,-104.0,-21.0,179.0,0
2429,-108.0,-19.0,182.0,0
2430,-95.0,-17.0,173.0,0
2431,-105.0,-20.0,183.0,0
2432,-105.0,-18.0,182.0,0
2433,-106.0,-18.0,180.0,0
2434,-105.0,-19.0,183.0,0
2435,-108.0,-19.0,180.0,0
2436,-104.0,-19.0,181.0,0
2437,-103.0,-17.0,178.0,0
2438,-108.0,-19.0,179.0,0
2439,-103.0,-24.0,183.0,0
2440,-107.0,-20.0,178.0,0
2441,-106.0,-17.0,180.0,0
2442,-106.0,-20.0,178.0,0
2443,-107.0,-18.0,180.0,0
2444,-106.0,-18.0,184.0,0
2445,-106.0,-18.0,183.0,0
2446,-106.0,-19.0,179.0,0
2447,-110.0,-17.0,180.0,0
2448,-105.0,-20.0,177.0,0
2449,-105.0,-21.0,179.0,0
2450,-105.0,-21.0,180.0,0
2451,-105.0,-17.0,178.0,0
2452,-108.0,-21.0,179.0,0
2453,-103.0,-23.0,179.0,0
2454,-105.0,-19.0,178.0,0
2455,-104.0,-21.0,185.0,0
2456,-104.0,-20.0,178.0,0
2457,-102.0,-21.0,185.0,0
2458,-104.0,-20.0,184.0,0
2459,-106.0,-18.0,181.0,0
2460,-105.0,-18.0,181.0,0
2461,-108.0,-15.0,179.0,0
2462,-103.0,-23.0,181.0,0
2463,-107.0,-21.0,182.0,0
2464,-106.0,-20.0,179.0,0
2465,-109.0,-20.0,179.0,0
2466,-108.0,-20.0,180.0,0
2467,-108.0,-24.0,181.0,0
2468,-106.0,-18.0,178.0,0
2469,-106.0,-19.0,179.0,0
2470,-103.0,-21.0,179.0,0
2471,-105.0,-19.0,184.0,0
2472,-107.0,-19.0,182.0,0
2473,-109.0,-15.0,183.0,0
2474,-106.0,-17.0,178.0,0
2475,-109.0,-18.0,184.0,0
2476,-104.0,-17.0,183.0,0
2477,-108.0,-19.0,181.0,0
2478,-106.0,-21.0,180.0,0
2479,-106.0,-17.0,178.0,0
2480,-107.0,-19.0,184.0,0
2481,-107.0,-17.0,178.0,0
2482,-108.0,-18.0,181.0,0
2483,-106.0,-21.0,178.0,0
2484,-107.0,-22.0,179.0,0
2485,-106.0,-22.0,185.0,0
2486,-106.0,-21.0,180.0,0
2487,-108.0,-22.0,182.0,0
2488,-106.0,-20.0,181.0,0
2489,-107.0,-17.0,182.0,0
2490,-105.0,-21.0,177.0,0
2491,-107.0,-18.0,183.0,0
2492,-109.0,-19.0,176.0,0
2493,-108.0,-20.0,180.0,0
2494,-109.0,-19.0,185.0,0
2495,-105.0,-21.0,178.0,0
2496,-105.0,-19.0,181.0,0
2497,-105.0,-20.0,182.0,0
2498,-105.0,-22.0,180.0,0
2499,-110.0,-18.0,178.0,0
2500,-103.0,-19.0,181.0,0
2501,-108.0,-21.0,180.0,0
2502,-106.0,-22.0,177.0,0
2503,-105.0,-20.0,177.0,0
2504,-109.0,-20.0,181.0,0
2505,-107.0,-21.0,177.0,0
2506,-104.0,-20.0,179.0,0
2507,-115.0,-13.0,187.0,0
2508,-107.0,-20.0,179.0,0
2509,-106.0,-19.0,178.0,0
2510,-105.0,-20.0,181.0,0
2511,-108.0,-21.0,182.0,0
2512,-108.0,-19.0,183.0,0
2513,-110.0,-16.0,176.0,0
2514,-107.0,-23.0,181.0,0
2515,-107.0,-19.0,176.0,0
2516,-105.0,-21.0,180.0,0
2517,-108.0,-19.0,180.0,0
2518,-107.0,-15.0,181.0,0
2519,-107.0,-19.0,179.0,0
2520,-105.0,-21.0,182.0,0
2521,-108.0,-20.0,181.0,0
2522,-108.0,-21.0,181.0,0
2523,-110.0,-17.0,183.0,0
2524,-107.0,-21.0,183.0,0
2525,-107.0,-19.0,182.0,0
2526,-107.0,-19.0,182.0,0
2527,-108.0,-15.0,183.0,0
2528,-108.0,-20.0,178.0,0
2529,-108.0,-19.0,181.0,0
2530,-107.0,-20.0,177.0,0
2531,-105.0,-16.0,182.0,0
2532,-108.0,-17.0,177.0,0
2533,-107.0,-19.0,179.0,0
2534,-109.0,-21.0,179.0,0
2535,-105.0,-20.0,181.0,0
2536,-108.0,-18.0,181.0,0
2537,-107.0,-19.0,178.0,0
2538,-108.0,-21.0,181.0,0
2539,-106.0,-21.0,181.0,0
2540,-110.0,-17.0,178.0,0
2541,-105.0,-18.0,182.0,0
2542,-106.0,-19.0,176.0,0
2543,-105.0,-22.0,181.0,0
2544,-108.0,-18.0,179.0,0
2545,-105.0,-22.0,182.0,0
2546,-105.0,-21.0,179.0,0
2547,-105.0,-21.0,181.0,0
2548,-106.0,-18.0,179.0,0
2549,-108.0,-18.0,183.0,0
2550,-108.0,-18.0,182.0,0
2551,-107.0,-18.0,179.0,0
2552,-108.0,-20.0,181.0,0
2553,-108.0,-19.0,178.0,0
2554,-109.0,-19.0,177.0,0
2555,-107.0,-19.0,181.0,0
2556,-109.0,-18.0,178.0,0
2557,-107.0,-20.0,181.0,0
2558,-106.0,-20.0,182.0,0
2559,-107.0,-15.0,178.0,0
2560,-107.0,-20.0,182.0,0
2561,-105.0,-20.0,179.0,0
2562,-103.0,-19.0,180.0,0
2563,-105.0,-20.0,179.0,0
2564,-102.0,-21.0,181.0,0
2565,-105.0,-21.0,182.0,0
2566,-109.0,-20.0,174.0,0
2567,-104.0,-19.0,184.0,0
2568,-106.0,-18.0,178.0,0
2569,-107.0,-20.0,180.0,0
2570,-107.0,-17.0,181.0,0
2571,-105.0,-21.0,182.0,0
2572,-107.0,-19.0,181.0,0
2573,-105.0,-20.0,178.0,0
2574,-108.0,-17.0,182.0,0
2575,-107.0,-18.0,183.0,0
2576,-108.0,-20.0,178.0,0
2577,-108.0,-17.0,179.0,0
2578,-106.0,-20.0,180.0,0
2579,-105.0,-19.0,182.0,0
2580,-109.0,-19.0,182.0,0
2581,-107.0,-21.0,177.0,0
2582,-108.0,-17.0,180.0,0
2583,-105.0,-20.0,179.0,0
2584,-107.0,-17.0,182.0,0
2585,-105.0,-19.0,180.0,0
2586,-105.0,-20.0,180.0,0
2587,-105.0,-21.0,184.0,0
2588,-106.0,-21.0,178.0,0
2589,-107.0,-20.0,180.0,0
2590,-105.0,-19.0,179.0,0
2591,-107.0,-17.0,179.0,0
2592,-107.0,-17.0,181.0,0
2593,-108.0,-19.0,182.0,0
2594,-109.0,-30.0,194.0,0
2595,-107.0,-19.0,180.0,0
2596,-105.0,-19.0,180.0,0
2597,-106.0,-17.0,180.0,0
2598,-108.0,-19.0,182.0,0
2599,-104.0,-21.0,182.0,0
2600,-108.0,-18.0,180.0,0
2601,-108.0,-21.0,180.0,0
2602,-105.0,-19.0,182.0,0
2603,-109.0,-20.0,178.0,0
2604,-107.0,-20.0,179.0,0
2605,-108.0,-19.0,180.0,0
2606,-105.0,-18.0,178.0,0
2607,-108.0,-17.0,180.0,0
2608,-108.0,-17.0,181.0,0
2609,-106.0,-20.0,179.0,0
2610,-106.0,-18.0,178.0,0
2611,-106.0,-21.0,184.0,0
2612,-108.0,-16.0,180.0,0
2613,-104.0,-16.0,178.0,0
2614,-106.0,-17.0,178.0,0
2615,-106.0,-19.0,181.0,0
2616,-103.0,-23.0,180.0,0
2617,-106.0,-18.0,179.0,0
2618,-106.0,-19.0,179.0,0
2619,-104.0,-19.0,183.0,0
2620,-105.0,-22.0,182.0,0
2621,-108.0,-19.0,185.0,0
2622,-105.0,-21.0,186.0,0
2623,-107.0,-18.0,177.0,0
2624,-108.0,-20.0,182.0,0
2625,-104.0,-20.0,179.0,0
2626,-106.0,-19.0,180.0,0
2627,-106.0,-20.0,183.0,0
2628,-103.0,-21.0,182.0,0
2629,-107.0,-18.0,179.0,0
2630,-108.0,-18.0,179.0,0
2631,-106.0,-20.0,182.0,0
2632,-104.0,-20.0,182.0,0
2633,-104.0,-22.0,178.0,0
2634,-106.0,-22.0,178.0,0
2635,-104.0,-21.0,183.0,0
2636,-105.0,-20.0,178.0,0
2637,-104.0,-24.0,184.0,0
2638,-107.0,-19.0,179.0,0
2639,-107.0,-18.0,183.0,0
2640,-107.0,-21.0,181.0,0
2641,-106.0,-22.0,181.0,0
2642,-105.0,-19.0,182.0,0
2643,-110.0,-17.0,177.0,0
2644,-106.0,-24.0,178.0,0
2645,-107.0,-22.0,179.0,0
2646,-107.0,-19.0,181.0,0
2647,-108.0,-21.0,181.0,0
2648,-106.0,-18.0,180.0,0
2649,-105.0,-23.0,179.0,0
2650,-106.0,-21.0,179.0,0
2651,-102.0,-20.0,183.0,0
2652,-104.0,-19.0,181.0,0
2653,-107.0,-17.0,180.0,0
2654,-106.0,-18.0,178.0,0
2655,-105.0,-19.0,177.0,0
2656,-107.0,-18.0,183.0,0
2657,-107.0,-20.0,180.0,0
2658,-106.0,-18.0,177.0,0
2659,-107.0,-21.0,182.0,0
2660,-109.0,-22.0,179.0,0
2661,-106.0,-20.0,184.0,0
2662,-107.0,-20.0,176.0,0
2663,-108.0,-21.0,178.0,0
2664,-108.0,-22.0,180.0,0
2665,-103.0,-21.0,185.0,0
2666,-109.0,-18.0,182.0,0
2667,-103.0,-21.0,182.0,0
2668,-105.0,-19.0,183.0,0
2669,-106.0,-20.0,180.0,0
2670,-105.0,-23.0,182.0,0
2671,-107.0,-17.0,179.0,0
2672,-108.0,-23.0,178.0,0
2673,-107.0,-17.0,183.0,0
2674,-106.0,-22.0,177.0,0
2675,-105.0,-21.0,178.0,0
2676,-106.0,-22.0,177.0,0
2677,-105.0,-22.0,181.0,0
2678,-107.0,-22.0,180.0,0
2679,-109.0,-21.0,179.0,0
2680,-107.0,-21.0,185.0,0
2681,-104.0,-15.0,180.0,0
2682,-106.0,-21.0,182.0,0
2683,-106.0,-22.0,179.0,0
2684,-107.0,-23.0,180.0,0
2685,-107.0,-21.0,180.0,0
2686,-108.0,-21.0,183.0,0
2687,-104.0,-19.0,184.0,0
2688,-105.0,-21.0,184.0,0
2689,-105.0,-23.0,181.0,0
2690,-108.0,-23.0,186.0,0
2691,-104.0,-24.0,183.0,0
2692,-106.0,-22.0,183.0,0
2693,-105.0,-21.0,180.0,0
2694,-104.0,-21.0,179.0,0
2695,-105.0,-24.0,178.0,0
2696,-103.0,-22.0,180.0,0
2697,-106.0,-26.0,182.0,0
2698,-105.0,-22.0,182.0,0
2699,-109.0,-24.0,179.0,0
2700,-107.0,-21.0,178.0,0
2701,-107.0,-21.0,180.0,0
2702,-105.0,-21.0,181.0,0
2703,-107.0,-21.0,179.0,0
2704,-105.0,-23.0,181.0,0
2705,-104.0,-23.0,179.0,0
2706,-107.0,-21.0,184.0,0
2707,-102.0,-23.0,181.0,0
2708,-108.0,-22.0,180.0,0
2709,-105.0,-24.0,184.0,0
2710,-105.0,-24.0,182.0,0
2711,-106.0,-23.0,182.0,0
2712,-105.0,-22.0,180.0,0
2713,-106.0,-25.0,185.0,0
2714,-104.0,-25.0,180.0,0
2715,-104.0,-22.0,183.0,0
2716,-105.0,-23.0,181.0,0
2717,-105.0,-21.0,184.0,0
2718,-106.0,-23.0,179.0,0
2719,-106.0,-24.0,184.0,0
2720,-108.0,-22.0,183.0,0
2721,-104.0,-28.0,183.0,0
2722,-107.0,-24.0,178.0,0
2723,-106.0,-23.0,184.0,0
2724,-105.0,-22.0,180.0,0
2725,-107.0,-21.0,182.0,0
2726,-106.0,-22.0,182.0,0
2727,-104.0,-26.0,179.0,0
2728,-107.0,-24.0,182.0,0
2729,-106.0,-21.0,183.0,0
2730,-101.0,-22.0,180.0,0
2731,-105.0,-23.0,180.0,0
2732,-102.0,-25.0,179.0,0
2733,-108.0,-25.0,183.0,0
2734,-102.0,-26.0,180.0,0
2735,-104.0,-23.0,180.0,0
2736,-106.0,-25.0,179.0,0
2737,-108.0,-24.0,182.0,0
2738,-107.0,-20.0,182.0,0
2739,-103.0,-25.0,185.0,0
2740,-107.0,-24.0,180.0,0
2741,-105.0,-24.0,179.0,0
2742,-106.0,-26.0,178.0,0
2743,-105.0,-23.0,184.0,0
2744,-104.0,-24.0,183.0,0
2745,-104.0,-24.0,179.0,0
2746,-108.0,-23.0,182.0,0
2747,-105.0,-25.0,181.0,0
2748,-107.0,-25.0,183.0,0
2749,-106.0,-26.0,181.0,0
2750,-105.0,-23.0,183.0,0
2751,-101.0,-26.0,182.0,0
2752,-105.0,-25.0,181.0,0
2753,-105.0,-25.0,181.0,0
2754,-107.0,-26.0,182.0,0
2755,-105.0,-25.0,183.0,0
2756,-105.0,-23.0,183.0,0
2757,-109.0,-36.0,182.0,0
2758,-105.0,-25.0,177.0,0
2759,-102.0,-25.0,184.0,0
2760,-106.0,-24.0,177.0,0
2761,-105.0,-26.0,181.0,0
2762,-100.0,-27.0,182.0,0
2763,-106.0,-26.0,182.0,0
2764,-105.0,-28.0,184.0,0
2765,-103.0,-25.0,179.0,0
2766,-105.0,-25.0,179.0,0
2767,-104.0,-27.0,182.0,0
2768,-107.0,-24.0,192.0,0
2769,-106.0,-26.0,177.0,0
2770,-107.0,-25.0,182.0,0
2771,-106.0,-25.0,180.0,0
2772,-106.0,-26.0,179.0,0
2773,-106.0,-26.0,180.0,0
2774,-106.0,-23.0,181.0,0
2775,-106.0,-28.0,179.0,0
2776,-104.0,-23.0,181.0,0
2777,-106.0,-26.0,180.0,0
2778,-107.0,-23.0,178.0,0
2779,-104.0,-26.0,178.0,0
2780,-103.0,-27.0,179.0,0
2781,-103.0,-26.0,181.0,0
2782,-103.0,-26.0,184.0,0
2783,-106.0,-27.0,181.0,0
2784,-104.0,-23.0,180.0,0
2785,-104.0,-25.0,179.0,0
2786,-105.0,-26.0,178.0,0
2787,-103.0,-26.0,178.0,0
2788,-106.0,-25.0,179.0,0
2789,-106.0,-28.0,179.0,0
2790,-104.0,-27.0,180.0,0
2791,-105.0,-26.0,178.0,0
2792,-106.0,-24.0,178.0,0
2793,-103.0,-27.0,183.0,0
2794,-105.0,-23.0,179.0,0
2795,-108.0,-25.0,184.0,0
2796,-106.0,-25.0,183.0,0
2797,-106.0,-25.0,178.0,0
2798,-106.0,-25.0,177.0,0
2799,-105.0,-26.0,179.0,0
2800,-103.0,-26.0,181.0,0
2801,-107.0,-24.0,181.0,0
2802,-104.0,-26.0,178.0,0
2803,-106.0,-23.0,177.0,0
2804,-105.0,-24.0,181.0,0
2805,-104.0,-26.0,183.0,0
2806,-104.0,-25.0,182.0,0
2807,-104.0,-26.0,186.0,0
2808,-108.0,-26.0,181.0,0
2809,-105.0,-25.0,180.0,0
2810,-105.0,-22.0,182.0,0
2811,-104.0,-25.0,180.0,0
2812,-108.0,-22.0,177.0,0
2813,-104.0,-22.0,186.0,0
2814,-106.0,-26.0,177.0,0
2815,-107.0,-24.0,181.0,0
2816,-103.0,-28.0,178.0,0
2817,-109.0,-24.0,178.0,0
2818,-107.0,-24.0,180.0,0
2819,-107.0,-26.0,180.0,0
2820,-109.0,-26.0,183.0,0
2821,-105.0,-23.0,176.0,0
2822,-106.0,-23.0,182.0,0
2823,-106.0,-23.0,185.0,0
2824,-106.0,-22.0,181.0,0
2825,-104.0,-25.0,182.0,0
2826,-106.0,-22.0,181.0,0
2827,-106.0,-25.0,181.0,0
2828,-106.0,-24.0,185.0,0
2829,-103.0,-21.0,184.0,0
2830,-106.0,-16.0,185.0,0
2831,-105.0,-23.0,180.0,0
2832,-106.0,-25.0,178.0,0
2833,-105.0,-21.0,179.0,0
2834,-106.0,-24.0,181.0,0
2835,-106.0,-24.0,180.0,0
2836,-106.0,-24.0,177.0,0
2837,-104.0,-27.0,186.0,0
2838,-105.0,-21.0,182.0,0
2839,-108.0,-24.0,183.0,0
2840,-105.0,-25.0,182.0,0
2841,-104.0,-26.0,181.0,0
2842,-106.0,-23.0,182.0,0
2843,-106.0,-25.0,180.0,0
2844,-99.0,-26.0,181.0,0
2845,-105.0,-24.0,184.0,0
2846,-107.0,-27.0,181.0,0
2847,-109.0,-23.0,182.0,0
2848,-106.0,-25.0,185.0,0
2849,-107.0,-22.0,179.0,0
2850,-103.0,-24.0,179.0,0
2851,-105.0,-23.0,183.0,0
2852,-105.0,-23.0,181.0,0
2853,-107.0,-21.0,180.0,0
2854,-103.0,-27.0,179.0,0
2855,-105.0,-23.0,182.0,0
2856,-104.0,-23.0,181.0,0
2857,-104.0,-22.0,179.0,0
2858,-105.0,-22.0,180.0,0
2859,-105.0,-23.0,182.0,0
2860,-106.0,-25.0,183.0,0
2861,-105.0,-22.0,182.0,0
2862,-102.0,-24.0,183.0,0
2863,-105.0,-24.0,180.0,0
2864,-105.0,-26.0,180.0,0
2865,-104.0,-25.0,183.0,0
2866,-106.0,-21.0,179.0,0
2867,-105.0,-22.0,179.0,0
2868,-103.0,-25.0,182.0,0
2869,-103.0,-23.0,181.0,0
2870,-103.0,-24.0,180.0,0
2871,-106.0,-22.0,182.0,0
2872,-107.0,-23.0,176.0,0
2873,-104.0,-23.0,178.0,0
2874,-107.0,-22.0,178.0,0
2875,-105.0,-22.0,181.0,0
2876,-105.0,-24.0,180.0,0
2877,-108.0,-24.0,181.0,0
2878,-110.0,-24.0,183.0,0
2879,-105.0,-24.0,182.0,0
2880,-104.0,-24.0,179.0,0
2881,-105.0,-23.0,180.0,0
2882,-108.0,-21.0,183.0,0
2883,-101.0,-23.0,183.0,0
2884,-107.0,-21.0,178.0,0
2885,-105.0,-23.0,182.0,0
2886,-106.0,-21.0,180.0,0
2887,-104.0,-26.0,180.0,0
2888,-107.0,-24.0,179.0,0
2889,-103.0,-25.0,182.0,0
2890,-106.0,-23.0,183.0,0
2891,-104.0,-21.0,182.0,0
2892,-107.0,-24.0,176.0,0
2893,-107.0,-22.0,181.0,0
2894,-104.0,-21.0,180.0,0
2895,-104.0,-22.0,182.0,0
2896,-106.0,-21.0,181.0,0
2897,-106.0,-22.0,181.0,0
2898,-106.0,-23.0,183.0,0
2899,-108.0,-25.0,178.0,0
2900,-109.0,-22.0,178.0,0
2901,-106.0,-23.0,183.0,0
2902,-107.0,-21.0,179.0,0
2903,-106.0,-20.0,181.0,0
2904,-104.0,-25.0,182.0,0
2905,-104.0,-20.0,183.0,0
2906,-106.0,-21.0,183.0,0
2907,-103.0,-20.0,181.0,0
2908,-103.0,-21.0,186.0,0
2909,-104.0,-23.0,184.0,0
2910,-104.0,-23.0,180.0,0
2911,-106.0,-21.0,182.0,0
2912,-105.0,-23.0,181.0,0
2913,-106.0,-20.0,180.0,0
2914,-110.0,-23.0,184.0,0
2915,-107.0,-22.0,180.0,0
2916,-105.0,-23.0,184.0,0
2917,-104.0,-21.0,178.0,0
2918,-108.0,-20.0,181.0,0
2919,-108.0,-23.0,181.0,0
2920,-107.0,-21.0,176.0,0
2921,-120.0,-20.0,185.0,0
2922,-104.0,-23.0,180.0,0
2923,-107.0,-22.0,179.0,0
2924,-104.0,-23.0,180.0,0
2925,-106.0,-21.0,182.0,0
2926,-106.0,-19.0,178.0,0
2927,-104.0,-22.0,184.0,0
2928,-104.0,-20.0,183.0,0
2929,-105.0,-21.0,180.0,0
2930,-107.0,-23.0,182.0,0
2931,-106.0,-24.0,183.0,0
2932,-105.0,-12.0,169.0,0
2933,-107.0,-21.0,185.0,0
2934,-105.0,-24.0,180.0,0
2935,-106.0,-18.0,185.0,0
2936,-102.0,-23.0,179.0,0
2937,-106.0,-19.0,184.0,0
2938,-105.0,-24.0,178.0,0
2939,-105.0,-20.0,181.0,0
2940,-104.0,-21.0,185.0,0
2941,-104.0,-22.0,179.0,0
2942,-104.0,-20.0,181.0,0
2943,-107.0,-22.0,177.0,0
2944,-104.0,-25.0,183.0,0
2945,-105.0,-19.0,183.0,0
2946,-106.0,-21.0,180.0,0
2947,-104.0,-21.0,179.0,0
2948,-106.0,-21.0,183.0,0
2949,-106.0,-21.0,183.0,0
2950,-106.0,-23.0,179.0,0
2951,-107.0,-22.0,175.0,0
2952,-106.0,-22.0,181.0,0
2953,-104.0,-23.0,180.0,0
2954,-102.0,-23.0,177.0,0
2955,-103.0,-20.0,181.0,0
2956,-104.0,-22.0,182.0,0
2957,-105.0,-24.0,179.0,0
2958,-105.0,-23.0,178.0,0
2959,-104.0,-22.0,179.0,0
2960,-104.0,-22.0,181.0,0
2961,-108.0,-21.0,181.0,0
2962,-104.0,-23.0,183.0,0
2963,-107.0,-22.0,183.0,0
2964,-103.0,-21.0,184.0,0
2965,-108.0,-20.0,182.0,0
2966,-107.0,-24.0,177.0,0
2967,-108.0,-20.0,179.0,0
2968,-107.0,-22.0,178.0,0
2969,-105.0,-22.0,179.0,0
2970,-108.0,-20.0,182.0,0
2971,-102.0,-22.0,181.0,0
2972,-108.0,-23.0,180.0,0
2973,-105.0,-19.0,181.0,0
2974,-106.0,-20.0,180.0,0
2975,-107.0,-20.0,181.0,0
2976,-104.0,-20.0,179.0,0
2977,-106.0,-21.0,177.0,0
2978,-104.0,-22.0,184.0,0
2979,-105.0,-21.0,183.0,0
2980,-104.0,-22.0,182.0,0
2981,-105.0,-24.0,182.0,0
2982,-105.0,-19.0,183.0,0
2983,-109.0,-18.0,182.0,0
2984,-107.0,-20.0,182.0,0
2985,-105.0,-20.0,177.0,0
2986,-105.0,-24.0,181.0,0
2987,-105.0,-22.0,182.0,0
2988,-104.0,-23.0,178.0,0
2989,-106.0,-17.0,178.0,0
2990,-107.0,-23.0,181.0,0
2991,-102.0,-24.0,179.0,0
2992,-106.0,-23.0,184.0,0
2993,-104.0,-24.0,180.0,0
2994,-108.0,-22.0,178.0,0
2995,-104.0,-21.0,179.0,0
2996,-103.0,-20.0,179.0,0
2997,-104.0,-22.0,180.0,0
2998,-107.0,-22.0,181.0,0
2999,-107.0,-21.0,180.0,0
