,accelerometer_x,accelerometer_y,accelerometer_z,fall
0,-2.0,-258.0,69.0,0
1,-6.0,-258.0,69.0,0
2,-5.0,-259.0,68.0,0
3,-7.0,-257.0,69.0,0
4,-6.0,-258.0,68.0,0
5,-9.0,-257.0,70.0,0
6,-5.0,-258.0,68.0,0
7,-6.0,-258.0,69.0,0
8,-4.0,-258.0,71.0,0
9,-5.0,-257.0,70.0,0
10,-9.0,-258.0,72.0,0
11,-5.0,-257.0,71.0,0
12,-9.0,-257.0,69.0,0
13,-8.0,-258.0,68.0,0
14,-7.0,-258.0,69.0,0
15,-6.0,-256.0,68.0,0
16,-3.0,-255.0,68.0,0
17,-5.0,-256.0,72.0,0
18,-3.0,-255.0,72.0,0
19,-4.0,-257.0,69.0,0
20,-3.0,-259.0,70.0,0
21,-2.0,-257.0,68.0,0
22,0.0,-258.0,69.0,0
23,0.0,-256.0,65.0,0
24,2.0,-258.0,69.0,0
25,-4.0,-257.0,71.0,0
26,-1.0,-257.0,68.0,0
27,0.0,-256.0,71.0,0
28,1.0,-258.0,68.0,0
29,1.0,-258.0,70.0,0
30,0.0,-257.0,73.0,0
31,0.0,-256.0,71.0,0
32,0.0,-258.0,70.0,0
33,1.0,-256.0,69.0,0
34,1.0,-256.0,72.0,0
35,0.0,-257.0,71.0,0
36,0.0,-257.0,72.0,0
37,2.0,-256.0,67.0,0
38,2.0,-256.0,72.0,0
39,3.0,-256.0,72.0,0
40,1.0,-257.0,77.0,0
41,2.0,-258.0,76.0,0
42,1.0,-257.0,74.0,0
43,1.0,-256.0,74.0,0
44,-1.0,-255.0,73.0,0
45,0.0,-255.0,74.0,0
46,0.0,-256.0,74.0,0
47,-1.0,-255.0,70.0,0
48,-4.0,-255.0,73.0,0
49,0.0,-255.0,78.0,0
50,-3.0,-255.0,77.0,0
51,-2.0,-256.0,75.0,0
52,-1.0,-255.0,75.0,0
53,-3.0,-256.0,70.0,0
54,0.0,-256.0,73.0,0
55,0.0,-256.0,74.0,0
56,-2.0,-254.0,73.0,0
57,0.0,-255.0,76.0,0
58,0.0,-254.0,72.0,0
59,0.0,-254.0,70.0,0
60,-1.0,-255.0,72.0,0
61,-1.0,-256.0,69.0,0
62,0.0,-255.0,72.0,0
63,2.0,-256.0,74.0,0
64,0.0,-255.0,71.0,0
65,1.0,-255.0,73.0,0
66,-1.0,-254.0,75.0,0
67,0.0,-252.0,73.0,0
68,0.0,-254.0,75.0,0
69,2.0,-255.0,80.0,0
70,3.0,-254.0,71.0,0
71,3.0,-255.0,73.0,0
72,2.0,-257.0,73.0,0
73,2.0,-254.0,73.0,0
74,4.0,-257.0,78.0,0
75,5.0,-258.0,75.0,0
76,5.0,-258.0,79.0,0
77,6.0,-256.0,76.0,0
78,7.0,-259.0,77.0,0
79,8.0,-257.0,72.0,0
80,9.0,-256.0,73.0,0
81,8.0,-258.0,73.0,0
82,9.0,-260.0,74.0,0
83,8.0,-257.0,74.0,0
84,9.0,-258.0,75.0,0
85,11.0,-259.0,68.0,0
86,6.0,-261.0,69.0,0
87,8.0,-262.0,68.0,0
88,8.0,-259.0,68.0,0
89,6.0,-259.0,67.0,0
90,6.0,-262.0,66.0,0
91,5.0,-259.0,61.0,0
92,2.0,-260.0,60.0,0
93,3.0,-264.0,63.0,0
94,2.0,-262.0,61.0,0
95,2.0,-263.0,50.0,0
96,0.0,-262.0,49.0,0
97,0.0,-259.0,49.0,0
98,-1.0,-260.0,47.0,0
99,-1.0,-255.0,46.0,0
100,-4.0,-252.0,52.0,0
101,-7.0,-252.0,44.0,0
102,-10.0,-244.0,50.0,0
103,-12.0,-241.0,48.0,0
104,-12.0,-237.0,50.0,0
105,-14.0,-234.0,51.0,0
106,-19.0,-229.0,56.0,0
107,-17.0,-228.0,57.0,0
108,-19.0,-229.0,63.0,0
109,-22.0,-228.0,67.0,0
110,-26.0,-230.0,70.0,0
111,-23.0,-236.0,71.0,0
112,-25.0,-240.0,77.0,0
113,-24.0,-244.0,78.0,0
114,-24.0,-246.0,76.0,0
115,-26.0,-255.0,77.0,0
116,-25.0,-260.0,81.0,0
117,-26.0,-267.0,84.0,0
118,-26.0,-267.0,82.0,0
119,-20.0,-276.0,83.0,0
120,-21.0,-278.0,84.0,0
121,-20.0,-281.0,85.0,0
122,-18.0,-281.0,81.0,0
123,-12.0,-284.0,78.0,0
124,-5.0,-281.0,79.0,0
125,0.0,-276.0,73.0,0
126,2.0,-272.0,70.0,0
127,4.0,-271.0,74.0,0
128,9.0,-267.0,65.0,0
129,9.0,-263.0,66.0,0
130,15.0,-261.0,64.0,0
131,19.0,-258.0,60.0,0
132,18.0,-256.0,64.0,0
133,17.0,-257.0,65.0,0
134,19.0,-258.0,65.0,0
135,20.0,-260.0,65.0,0
136,17.0,-262.0,66.0,0
137,19.0,-270.0,75.0,0
138,16.0,-275.0,75.0,0
139,13.0,-278.0,74.0,0
140,12.0,-281.0,83.0,0
141,8.0,-284.0,83.0,0
142,4.0,-287.0,83.0,0
143,2.0,-287.0,83.0,0
144,0.0,-283.0,86.0,0
145,0.0,-280.0,82.0,0
146,-3.0,-272.0,81.0,0
147,-6.0,-269.0,80.0,0
148,-9.0,-264.0,80.0,0
149,-10.0,-256.0,85.0,0
150,-10.0,-251.0,84.0,0
151,-13.0,-245.0,81.0,0
152,-13.0,-243.0,84.0,0
153,-15.0,-234.0,85.0,0
154,-17.0,-231.0,83.0,0
155,-17.0,-226.0,87.0,0
156,-17.0,-226.0,83.0,0
157,-16.0,-223.0,87.0,0
158,-14.0,-224.0,91.0,0
159,-14.0,-225.0,92.0,0
160,-14.0,-222.0,92.0,0
161,-12.0,-224.0,92.0,0
162,-9.0,-221.0,94.0,0
163,-10.0,-223.0,97.0,0
164,-6.0,-226.0,92.0,0
165,-1.0,-226.0,90.0,0
166,0.0,-232.0,93.0,0
167,0.0,-240.0,92.0,0
168,1.0,-241.0,91.0,0
169,-1.0,-243.0,92.0,0
170,1.0,-249.0,94.0,0
171,1.0,-254.0,93.0,0
172,1.0,-255.0,91.0,0
173,0.0,-254.0,97.0,0
174,0.0,-257.0,90.0,0
175,2.0,-257.0,91.0,0
176,1.0,-255.0,92.0,0
177,0.0,-259.0,92.0,0
178,0.0,-258.0,86.0,0
179,0.0,-257.0,88.0,0
180,0.0,-256.0,88.0,0
181,-1.0,-256.0,90.0,0
182,-6.0,-258.0,89.0,0
183,-4.0,-256.0,91.0,0
184,-6.0,-256.0,92.0,0
185,-8.0,-255.0,87.0,0
186,-6.0,-258.0,92.0,0
187,-9.0,-259.0,89.0,0
188,-11.0,-256.0,89.0,0
189,-9.0,-256.0,85.0,0
190,-11.0,-256.0,92.0,0
191,-10.0,-252.0,93.0,0
192,-11.0,-252.0,91.0,0
193,-15.0,-253.0,95.0,0
194,-15.0,-247.0,98.0,0
195,-12.0,-245.0,99.0,0
196,-10.0,-247.0,100.0,0
197,-11.0,-246.0,106.0,0
198,-8.0,-246.0,100.0,0
199,-15.0,-239.0,105.0,0
200,-13.0,-236.0,108.0,0
201,-17.0,-239.0,102.0,0
202,-28.0,-243.0,95.0,0
203,-49.0,-256.0,78.0,0
204,-59.0,-271.0,59.0,0
205,-52.0,-291.0,37.0,0
206,-36.0,-311.0,29.0,0
207,-28.0,-337.0,36.0,0
208,-34.0,-356.0,56.0,0
209,-38.0,-368.0,67.0,0
210,-52.0,-366.0,78.0,0
211,-62.0,-361.0,69.0,0
212,-58.0,-357.0,65.0,0
213,-55.0,-350.0,57.0,0
214,-45.0,-346.0,59.0,0
215,-54.0,-337.0,64.0,0
216,-49.0,-326.0,67.0,0
217,-46.0,-320.0,73.0,0
218,-47.0,-313.0,72.0,0
219,-40.0,-311.0,69.0,0
220,-43.0,-308.0,54.0,0
221,-45.0,-295.0,53.0,0
222,-51.0,-288.0,44.0,0
223,-53.0,-278.0,41.0,0
224,-58.0,-270.0,39.0,0
225,-59.0,-262.0,34.0,0
226,-60.0,-256.0,31.0,0
227,-58.0,-255.0,31.0,0
228,-52.0,-253.0,29.0,0
229,-46.0,-257.0,22.0,0
230,-37.0,-257.0,24.0,0
231,-36.0,-259.0,26.0,0
232,-31.0,-258.0,17.0,0
233,-24.0,-252.0,17.0,0
234,-23.0,-251.0,13.0,0
235,-19.0,-244.0,5.0,0
236,-17.0,-235.0,1.0,0
237,-20.0,-224.0,3.0,0
238,-22.0,-219.0,1.0,0
239,-20.0,-217.0,4.0,0
240,-19.0,-210.0,7.0,0
241,-22.0,-204.0,8.0,0
242,-18.0,-206.0,17.0,0
243,-14.0,-210.0,19.0,0
244,-14.0,-208.0,21.0,0
245,-15.0,-216.0,31.0,0
246,-13.0,-219.0,28.0,0
247,-16.0,-221.0,33.0,0
248,-18.0,-231.0,35.0,0
249,-19.0,-240.0,38.0,0
250,-15.0,-253.0,36.0,0
251,-18.0,-256.0,40.0,0
252,-17.0,-267.0,35.0,0
253,-17.0,-273.0,34.0,0
254,-16.0,-279.0,34.0,0
255,-16.0,-284.0,41.0,0
256,-10.0,-287.0,42.0,0
257,-8.0,-294.0,42.0,0
258,-7.0,-289.0,45.0,0
259,-5.0,-291.0,47.0,0
260,-4.0,-286.0,43.0,0
261,3.0,-282.0,44.0,0
262,5.0,-277.0,43.0,0
263,4.0,-274.0,47.0,0
264,3.0,-269.0,47.0,0
265,3.0,-266.0,47.0,0
266,7.0,-261.0,48.0,0
267,6.0,-258.0,50.0,0
268,2.0,-256.0,50.0,0
269,3.0,-252.0,47.0,0
270,4.0,-250.0,56.0,0
271,1.0,-249.0,55.0,0
272,2.0,-242.0,57.0,0
273,0.0,-243.0,57.0,0
274,0.0,-236.0,57.0,0
275,0.0,-235.0,60.0,0
276,-2.0,-235.0,65.0,0
277,-4.0,-232.0,65.0,0
278,-7.0,-233.0,67.0,0
279,-6.0,-231.0,71.0,0
280,-10.0,-232.0,70.0,0
281,-7.0,-232.0,68.0,0
282,-7.0,-231.0,72.0,0
283,-8.0,-232.0,74.0,0
284,-6.0,-230.0,68.0,0
285,-6.0,-233.0,67.0,0
286,-2.0,-232.0,72.0,0
287,-4.0,-235.0,68.0,0
288,0.0,-236.0,68.0,0
289,-2.0,-235.0,65.0,0
290,-2.0,-238.0,68.0,0
291,2.0,-241.0,66.0,0
292,0.0,-241.0,72.0,0
293,-1.0,-242.0,72.0,0
294,0.0,-241.0,73.0,0
295,0.0,-245.0,71.0,0
296,-1.0,-241.0,79.0,0
297,-1.0,-237.0,78.0,0
298,1.0,-236.0,81.0,0
299,2.0,-232.0,83.0,0
300,1.0,-228.0,87.0,0
301,1.0,-230.0,86.0,0
302,2.0,-228.0,90.0,0
303,3.0,-231.0,90.0,0
304,1.0,-230.0,86.0,0
305,6.0,-231.0,89.0,0
306,4.0,-237.0,90.0,0
307,10.0,-240.0,88.0,0
308,6.0,-244.0,90.0,0
309,4.0,-248.0,84.0,0
310,9.0,-253.0,93.0,0
311,8.0,-257.0,91.0,0
312,9.0,-258.0,92.0,0
313,7.0,-261.0,98.0,0
314,3.0,-261.0,97.0,0
315,4.0,-262.0,96.0,0
316,3.0,-260.0,94.0,0
317,0.0,-259.0,93.0,0
318,0.0,-259.0,93.0,0
319,3.0,-257.0,95.0,0
320,5.0,-256.0,94.0,0
321,13.0,-255.0,94.0,0
322,19.0,-254.0,96.0,0
323,29.0,-254.0,94.0,0
324,39.0,-255.0,92.0,0
325,46.0,-256.0,88.0,0
326,54.0,-262.0,93.0,0
327,57.0,-264.0,83.0,0
328,63.0,-279.0,85.0,0
329,69.0,-300.0,66.0,0
330,64.0,-318.0,35.0,0
331,60.0,-330.0,19.0,0
332,53.0,-358.0,38.0,0
333,51.0,-381.0,76.0,0
334,58.0,-385.0,100.0,0
335,64.0,-388.0,113.0,0
336,74.0,-389.0,118.0,0
337,73.0,-392.0,116.0,0
338,71.0,-392.0,108.0,0
339,70.0,-389.0,102.0,0
340,65.0,-383.0,99.0,0
341,57.0,-365.0,89.0,0
342,56.0,-351.0,92.0,0
343,55.0,-337.0,84.0,0
344,52.0,-321.0,69.0,0
345,47.0,-307.0,52.0,0
346,47.0,-294.0,32.0,0
347,41.0,-280.0,22.0,0
348,41.0,-275.0,16.0,0
349,40.0,-272.0,19.0,0
350,36.0,-264.0,22.0,0
351,29.0,-256.0,22.0,0
352,24.0,-248.0,16.0,0
353,17.0,-234.0,6.0,0
354,13.0,-223.0,-1.0,0
355,3.0,-213.0,-9.0,0
356,-8.0,-205.0,-20.0,0
357,-19.0,-195.0,-15.0,0
358,-24.0,-187.0,-20.0,0
359,-32.0,-189.0,-19.0,0
360,-41.0,-190.0,-13.0,0
361,-45.0,-186.0,-3.0,0
362,-48.0,-186.0,2.0,0
363,-46.0,-189.0,6.0,0
364,-51.0,-194.0,13.0,0
365,-49.0,-198.0,23.0,0
366,-43.0,-209.0,26.0,0
367,-32.0,-220.0,26.0,0
368,-29.0,-233.0,32.0,0
369,-16.0,-247.0,34.0,0
370,-7.0,-262.0,37.0,0
371,-8.0,-270.0,36.0,0
372,-6.0,-286.0,33.0,0
373,-6.0,-292.0,35.0,0
374,0.0,-302.0,39.0,0
375,-3.0,-300.0,35.0,0
376,-4.0,-303.0,33.0,0
377,-8.0,-303.0,32.0,0
378,-10.0,-296.0,31.0,0
379,-8.0,-290.0,29.0,0
380,-9.0,-276.0,27.0,0
381,-7.0,-270.0,29.0,0
382,-9.0,-258.0,39.0,0
383,-4.0,-252.0,42.0,0
384,-1.0,-249.0,43.0,0
385,-3.0,-244.0,44.0,0
386,0.0,-239.0,40.0,0
387,-2.0,-241.0,43.0,0
388,-3.0,-244.0,44.0,0
389,-2.0,-241.0,42.0,0
390,-2.0,-241.0,45.0,0
391,-1.0,-243.0,48.0,0
392,-7.0,-245.0,46.0,0
393,-3.0,-245.0,47.0,0
394,-10.0,-243.0,53.0,0
395,-7.0,-244.0,58.0,0
396,-3.0,-244.0,59.0,0
397,-4.0,-240.0,58.0,0
398,4.0,-235.0,60.0,0
399,2.0,-237.0,58.0,0
400,0.0,-234.0,62.0,0
401,2.0,-236.0,64.0,0
402,0.0,-229.0,62.0,0
403,0.0,-231.0,68.0,0
404,-5.0,-233.0,73.0,0
405,-8.0,-234.0,74.0,0
406,-4.0,-230.0,71.0,0
407,-4.0,-233.0,77.0,0
408,-8.0,-235.0,79.0,0
409,-13.0,-233.0,86.0,0
410,-8.0,-237.0,85.0,0
411,-13.0,-229.0,87.0,0
412,-11.0,-232.0,87.0,0
413,-13.0,-228.0,87.0,0
414,-12.0,-227.0,88.0,0
415,-10.0,-226.0,91.0,0
416,-8.0,-225.0,93.0,0
417,-7.0,-226.0,92.0,0
418,-7.0,-224.0,94.0,0
419,-5.0,-225.0,97.0,0
420,-5.0,-221.0,94.0,0
421,-6.0,-219.0,91.0,0
422,-5.0,-220.0,92.0,0
423,1.0,-221.0,89.0,0
424,-10.0,-226.0,95.0,0
425,-1.0,-228.0,81.0,0
426,-7.0,-229.0,83.0,0
427,-3.0,-236.0,80.0,0
428,-4.0,-238.0,77.0,0
429,-7.0,-240.0,74.0,0
430,-3.0,-244.0,73.0,0
431,0.0,-249.0,70.0,0
432,0.0,-253.0,73.0,0
433,1.0,-254.0,75.0,0
434,2.0,-254.0,70.0,0
435,2.0,-256.0,77.0,0
436,-3.0,-260.0,79.0,0
437,-12.0,-259.0,81.0,0
438,-16.0,-259.0,84.0,0
439,-27.0,-266.0,83.0,0
440,-34.0,-266.0,87.0,0
441,-37.0,-270.0,91.0,0
442,-42.0,-272.0,100.0,0
443,-43.0,-274.0,105.0,0
444,-48.0,-276.0,115.0,0
445,-50.0,-277.0,120.0,0
446,-49.0,-276.0,125.0,0
447,-47.0,-274.0,131.0,0
448,-47.0,-271.0,132.0,0
449,-63.0,-272.0,127.0,0
450,-90.0,-285.0,102.0,0
451,-97.0,-303.0,63.0,0
452,-72.0,-317.0,29.0,0
453,-44.0,-348.0,18.0,0
454,-33.0,-381.0,49.0,0
455,-31.0,-396.0,80.0,0
456,-17.0,-407.0,95.0,0
457,-29.0,-408.0,111.0,0
458,-40.0,-401.0,109.0,0
459,-47.0,-392.0,102.0,0
460,-47.0,-384.0,96.0,0
461,-53.0,-377.0,95.0,0
462,-43.0,-373.0,83.0,0
463,-58.0,-371.0,81.0,0
464,-68.0,-357.0,67.0,0
465,-79.0,-350.0,58.0,0
466,-84.0,-337.0,44.0,0
467,-81.0,-324.0,33.0,0
468,-74.0,-310.0,24.0,0
469,-75.0,-285.0,19.0,0
470,-70.0,-267.0,15.0,0
471,-64.0,-243.0,8.0,0
472,-54.0,-225.0,0.0,0
473,-39.0,-210.0,-9.0,0
474,-27.0,-197.0,-21.0,0
475,-12.0,-192.0,-25.0,0
476,0.0,-185.0,-34.0,0
477,10.0,-186.0,-35.0,0
478,27.0,-183.0,-31.0,0
479,27.0,-183.0,-31.0,0
480,35.0,-189.0,-26.0,0
481,33.0,-197.0,-19.0,0
482,31.0,-206.0,-7.0,0
483,24.0,-217.0,-1.0,0
484,9.0,-237.0,12.0,0
485,2.0,-256.0,22.0,0
486,-1.0,-274.0,34.0,0
487,-12.0,-288.0,42.0,0
488,-23.0,-297.0,49.0,0
489,-31.0,-303.0,48.0,0
490,-41.0,-307.0,50.0,0
491,-53.0,-307.0,45.0,0
492,-61.0,-312.0,40.0,0
493,-63.0,-307.0,39.0,0
494,-65.0,-306.0,37.0,0
495,-64.0,-298.0,35.0,0
496,-62.0,-286.0,31.0,0
497,-58.0,-278.0,36.0,0
498,-53.0,-268.0,37.0,0
499,-46.0,-255.0,34.0,0
500,-40.0,-243.0,33.0,0
501,-27.0,-222.0,32.0,0
502,-24.0,-214.0,32.0,0
503,-21.0,-206.0,36.0,0
504,-17.0,-208.0,35.0,0
505,-11.0,-207.0,36.0,0
506,-11.0,-207.0,41.0,0
507,-6.0,-214.0,39.0,0
508,0.0,-219.0,45.0,0
509,-3.0,-220.0,46.0,0
510,6.0,-224.0,48.0,0
511,9.0,-224.0,47.0,0
512,10.0,-226.0,50.0,0
513,12.0,-226.0,52.0,0
514,14.0,-231.0,52.0,0
515,16.0,-233.0,50.0,0
516,17.0,-236.0,52.0,0
517,18.0,-240.0,52.0,0
518,17.0,-239.0,53.0,0
519,13.0,-245.0,59.0,0
520,16.0,-248.0,62.0,0
521,19.0,-247.0,60.0,0
522,9.0,-248.0,65.0,0
523,8.0,-242.0,69.0,0
524,8.0,-235.0,66.0,0
525,7.0,-231.0,74.0,0
526,4.0,-231.0,74.0,0
527,1.0,-220.0,75.0,0
528,0.0,-217.0,75.0,0
529,4.0,-210.0,79.0,0
530,3.0,-206.0,84.0,0
531,3.0,-202.0,82.0,0
532,5.0,-197.0,82.0,0
533,6.0,-195.0,84.0,0
534,8.0,-198.0,83.0,0
535,6.0,-201.0,81.0,0
536,7.0,-205.0,83.0,0
537,11.0,-212.0,84.0,0
538,11.0,-220.0,82.0,0
539,8.0,-229.0,84.0,0
540,4.0,-230.0,85.0,0
541,4.0,-237.0,86.0,0
542,3.0,-244.0,82.0,0
543,6.0,-245.0,84.0,0
544,3.0,-252.0,91.0,0
545,2.0,-251.0,93.0,0
546,1.0,-255.0,96.0,0
547,1.0,-256.0,93.0,0
548,3.0,-253.0,88.0,0
549,-1.0,-255.0,87.0,0
550,-3.0,-255.0,82.0,0
551,-8.0,-256.0,83.0,0
552,-7.0,-255.0,79.0,0
553,-9.0,-254.0,83.0,0
554,0.0,-252.0,89.0,0
555,-2.0,-253.0,86.0,0
556,1.0,-254.0,88.0,0
557,5.0,-252.0,94.0,0
558,22.0,-256.0,89.0,0
559,31.0,-256.0,86.0,0
560,41.0,-256.0,85.0,0
561,57.0,-262.0,90.0,0
562,65.0,-268.0,92.0,0
563,75.0,-272.0,97.0,0
564,78.0,-273.0,104.0,0
565,85.0,-282.0,112.0,0
566,86.0,-280.0,121.0,0
567,81.0,-284.0,123.0,0
568,87.0,-317.0,90.0,0
569,85.0,-336.0,38.0,0
570,49.0,-348.0,5.0,0
571,21.0,-384.0,23.0,0
572,17.0,-418.0,82.0,0
573,20.0,-425.0,109.0,0
574,27.0,-416.0,113.0,0
575,32.0,-409.0,114.0,0
576,43.0,-411.0,109.0,0
577,58.0,-404.0,102.0,0
578,70.0,-389.0,85.0,0
579,72.0,-385.0,67.0,0
580,62.0,-371.0,61.0,0
581,61.0,-365.0,56.0,0
582,53.0,-346.0,51.0,0
583,51.0,-334.0,49.0,0
584,50.0,-316.0,40.0,0
585,44.0,-299.0,26.0,0
586,35.0,-279.0,9.0,0
587,17.0,-261.0,-7.0,0
588,7.0,-256.0,-17.0,0
589,-2.0,-245.0,-26.0,0
590,-14.0,-233.0,-28.0,0
591,-25.0,-213.0,-22.0,0
592,-32.0,-200.0,-24.0,0
593,-38.0,-196.0,-17.0,0
594,-49.0,-193.0,-9.0,0
595,-58.0,-190.0,-3.0,0
596,-64.0,-190.0,1.0,0
597,-67.0,-196.0,3.0,0
598,-68.0,-205.0,11.0,0
599,-70.0,-215.0,13.0,0
600,-63.0,-229.0,14.0,0
601,-54.0,-244.0,19.0,0
602,-46.0,-254.0,27.0,0
603,-36.0,-269.0,31.0,0
604,-26.0,-282.0,35.0,0
605,-15.0,-294.0,33.0,0
606,-9.0,-298.0,36.0,0
607,0.0,-306.0,36.0,0
608,9.0,-306.0,35.0,0
609,11.0,-306.0,34.0,0
610,13.0,-304.0,31.0,0
611,12.0,-299.0,35.0,0
612,10.0,-290.0,33.0,0
613,6.0,-281.0,30.0,0
614,0.0,-269.0,25.0,0
615,-2.0,-259.0,26.0,0
616,-8.0,-245.0,21.0,0
617,-7.0,-233.0,21.0,0
618,-7.0,-223.0,22.0,0
619,-3.0,-217.0,22.0,0
620,-6.0,-212.0,26.0,0
621,-4.0,-212.0,26.0,0
622,-6.0,-217.0,29.0,0
623,-5.0,-219.0,28.0,0
624,-5.0,-219.0,35.0,0
625,-8.0,-219.0,39.0,0
626,-8.0,-219.0,40.0,0
627,-11.0,-219.0,43.0,0
628,-12.0,-222.0,47.0,0
629,-17.0,-207.0,48.0,0
630,-19.0,-217.0,51.0,0
631,-24.0,-216.0,55.0,0
632,-24.0,-215.0,59.0,0
633,-24.0,-221.0,61.0,0
634,-28.0,-218.0,60.0,0
635,-29.0,-223.0,63.0,0
636,-33.0,-226.0,62.0,0
637,-32.0,-229.0,63.0,0
638,-29.0,-233.0,63.0,0
639,-24.0,-239.0,66.0,0
640,-34.0,-242.0,64.0,0
641,-30.0,-239.0,67.0,0
642,-30.0,-241.0,67.0,0
643,-27.0,-243.0,70.0,0
644,-23.0,-240.0,70.0,0
645,-19.0,-239.0,79.0,0
646,-20.0,-233.0,74.0,0
647,-18.0,-226.0,79.0,0
648,-12.0,-222.0,73.0,0
649,-7.0,-219.0,74.0,0
650,-12.0,-216.0,69.0,0
651,-3.0,-211.0,66.0,0
652,-6.0,-208.0,70.0,0
653,-7.0,-207.0,72.0,0
654,0.0,-208.0,71.0,0
655,0.0,-210.0,75.0,0
656,-8.0,-209.0,80.0,0
657,-11.0,-215.0,82.0,0
658,-9.0,-214.0,81.0,0
659,-8.0,-220.0,81.0,0
660,-2.0,-226.0,82.0,0
661,-9.0,-234.0,91.0,0
662,-4.0,-244.0,92.0,0
663,-6.0,-247.0,97.0,0
664,-6.0,-253.0,90.0,0
665,-1.0,-257.0,80.0,0
666,2.0,-258.0,78.0,0
667,8.0,-262.0,75.0,0
668,14.0,-266.0,70.0,0
669,14.0,-270.0,69.0,0
670,16.0,-272.0,65.0,0
671,12.0,-273.0,67.0,0
672,9.0,-275.0,68.0,0
673,1.0,-273.0,64.0,0
674,-8.0,-275.0,65.0,0
675,-19.0,-278.0,76.0,0
676,-28.0,-274.0,79.0,0
677,-38.0,-272.0,84.0,0
678,-47.0,-277.0,95.0,0
679,-48.0,-273.0,102.0,0
680,-51.0,-272.0,110.0,0
681,-53.0,-271.0,121.0,0
682,-55.0,-275.0,131.0,0
683,-58.0,-274.0,141.0,0
684,-54.0,-275.0,142.0,0
685,-51.0,-274.0,149.0,0
686,-46.0,-274.0,156.0,0
687,-61.0,-274.0,158.0,0
688,-104.0,-296.0,121.0,0
689,-106.0,-318.0,78.0,0
690,-68.0,-333.0,24.0,0
691,-37.0,-384.0,41.0,0
692,-40.0,-416.0,95.0,0
693,-57.0,-433.0,118.0,0
694,-48.0,-425.0,110.0,0
695,-43.0,-421.0,102.0,0
696,-30.0,-416.0,103.0,0
697,-65.0,-399.0,106.0,0
698,-71.0,-383.0,84.0,0
699,-87.0,-372.0,66.0,0
700,-76.0,-355.0,50.0,0
701,-57.0,-347.0,29.0,0
702,-56.0,-339.0,21.0,0
703,-63.0,-321.0,19.0,0
704,-65.0,-307.0,14.0,0
705,-68.0,-287.0,7.0,0
706,-61.0,-271.0,-3.0,0
707,-50.0,-248.0,-18.0,0
708,-40.0,-235.0,-27.0,0
709,-34.0,-212.0,-32.0,0
710,-27.0,-198.0,-27.0,0
711,-16.0,-185.0,-32.0,0
712,0.0,-179.0,-32.0,0
713,9.0,-176.0,-29.0,0
714,20.0,-178.0,-29.0,0
715,37.0,-183.0,-17.0,0
716,39.0,-197.0,-9.0,0
717,37.0,-213.0,-5.0,0
718,34.0,-227.0,-1.0,0
719,31.0,-245.0,13.0,0
720,31.0,-265.0,13.0,0
721,29.0,-283.0,24.0,0
722,22.0,-299.0,34.0,0
723,19.0,-312.0,37.0,0
724,14.0,-320.0,37.0,0
725,1.0,-327.0,41.0,0
726,0.0,-334.0,40.0,0
727,-15.0,-331.0,40.0,0
728,-30.0,-325.0,40.0,0
729,-38.0,-318.0,37.0,0
730,-52.0,-311.0,34.0,0
731,-59.0,-298.0,32.0,0
732,-60.0,-283.0,30.0,0
733,-66.0,-267.0,30.0,0
734,-64.0,-257.0,29.0,0
735,-59.0,-241.0,31.0,0
736,-54.0,-226.0,34.0,0
737,-53.0,-208.0,37.0,0
738,-50.0,-205.0,32.0,0
739,-47.0,-202.0,34.0,0
740,-46.0,-199.0,36.0,0
741,-38.0,-197.0,37.0,0
742,-31.0,-200.0,35.0,0
743,-22.0,-202.0,37.0,0
744,-13.0,-205.0,40.0,0
745,-6.0,-205.0,39.0,0
746,1.0,-205.0,40.0,0
747,1.0,-210.0,43.0,0
748,8.0,-219.0,46.0,0
749,11.0,-220.0,48.0,0
750,12.0,-222.0,51.0,0
751,15.0,-227.0,52.0,0
752,17.0,-226.0,52.0,0
753,23.0,-233.0,52.0,0
754,22.0,-237.0,55.0,0
755,20.0,-236.0,51.0,0
756,20.0,-243.0,55.0,0
757,18.0,-247.0,53.0,0
758,21.0,-248.0,59.0,0
759,15.0,-246.0,55.0,0
760,14.0,-247.0,62.0,0
761,15.0,-242.0,66.0,0
762,13.0,-241.0,71.0,0
763,7.0,-231.0,76.0,0
764,6.0,-228.0,79.0,0
765,9.0,-216.0,78.0,0
766,6.0,-211.0,86.0,0
767,4.0,-203.0,82.0,0
768,1.0,-200.0,87.0,0
769,1.0,-198.0,88.0,0
770,0.0,-196.0,87.0,0
771,-4.0,-197.0,89.0,0
772,-4.0,-202.0,88.0,0
773,-6.0,-207.0,82.0,0
774,-11.0,-211.0,86.0,0
775,-12.0,-221.0,81.0,0
776,-16.0,-226.0,83.0,0
777,-13.0,-231.0,84.0,0
778,-12.0,-233.0,87.0,0
779,-12.0,-240.0,82.0,0
780,-13.0,-241.0,87.0,0
781,-10.0,-247.0,87.0,0
782,-13.0,-246.0,89.0,0
783,-11.0,-252.0,96.0,0
784,-6.0,-256.0,97.0,0
785,-9.0,-256.0,96.0,0
786,-5.0,-256.0,91.0,0
787,-6.0,-256.0,92.0,0
788,-8.0,-257.0,91.0,0
789,-6.0,-258.0,87.0,0
790,-1.0,-256.0,76.0,0
791,1.0,-252.0,68.0,0
792,4.0,-252.0,64.0,0
793,14.0,-247.0,64.0,0
794,18.0,-250.0,68.0,0
795,27.0,-255.0,71.0,0
796,34.0,-255.0,79.0,0
797,49.0,-262.0,90.0,0
798,55.0,-264.0,106.0,0
799,62.0,-273.0,110.0,0
800,67.0,-281.0,122.0,0
801,73.0,-286.0,129.0,0
802,78.0,-294.0,126.0,0
803,80.0,-294.0,131.0,0
804,77.0,-309.0,129.0,0
805,84.0,-329.0,78.0,0
806,68.0,-346.0,27.0,0
807,48.0,-365.0,17.0,0
808,31.0,-403.0,56.0,0
809,34.0,-434.0,98.0,0
810,44.0,-427.0,107.0,0
811,49.0,-414.0,108.0,0
812,62.0,-420.0,110.0,0
813,65.0,-416.0,109.0,0
814,68.0,-410.0,99.0,0
815,73.0,-395.0,80.0,0
816,70.0,-383.0,73.0,0
817,66.0,-377.0,63.0,0
818,65.0,-367.0,53.0,0
819,65.0,-357.0,35.0,0
820,56.0,-339.0,29.0,0
821,46.0,-321.0,16.0,0
822,35.0,-301.0,3.0,0
823,26.0,-284.0,-4.0,0
824,4.0,-263.0,-12.0,0
825,-10.0,-253.0,-15.0,0
826,-23.0,-240.0,-19.0,0
827,-34.0,-221.0,-21.0,0
828,-47.0,-209.0,-20.0,0
829,-54.0,-192.0,-19.0,0
830,-62.0,-181.0,-21.0,0
831,-71.0,-173.0,-14.0,0
832,-81.0,-173.0,-3.0,0
833,-86.0,-179.0,1.0,0
834,-90.0,-187.0,4.0,0
835,-89.0,-195.0,9.0,0
836,-85.0,-213.0,11.0,0
837,-75.0,-232.0,18.0,0
838,-67.0,-253.0,28.0,0
839,-53.0,-270.0,31.0,0
840,-41.0,-288.0,36.0,0
841,-33.0,-295.0,31.0,0
842,-21.0,-304.0,27.0,0
843,-8.0,-310.0,25.0,0
844,2.0,-306.0,25.0,0
845,13.0,-307.0,20.0,0
846,20.0,-302.0,24.0,0
847,25.0,-292.0,18.0,0
848,31.0,-284.0,22.0,0
849,29.0,-272.0,17.0,0
850,33.0,-264.0,19.0,0
851,31.0,-252.0,18.0,0
852,28.0,-236.0,20.0,0
853,28.0,-234.0,26.0,0
854,26.0,-223.0,24.0,0
855,24.0,-218.0,25.0,0
856,21.0,-216.0,31.0,0
857,18.0,-217.0,31.0,0
858,13.0,-223.0,37.0,0
859,9.0,-221.0,41.0,0
860,7.0,-220.0,44.0,0
861,5.0,-224.0,46.0,0
862,3.0,-226.0,45.0,0
863,5.0,-227.0,49.0,0
864,1.0,-225.0,57.0,0
865,-2.0,-225.0,54.0,0
866,-7.0,-222.0,58.0,0
867,-11.0,-220.0,59.0,0
868,-15.0,-222.0,60.0,0
869,-19.0,-218.0,63.0,0
870,-22.0,-216.0,66.0,0
871,-20.0,-218.0,60.0,0
872,-16.0,-221.0,65.0,0
873,-21.0,-218.0,65.0,0
874,-21.0,-221.0,65.0,0
875,-21.0,-224.0,69.0,0
876,-26.0,-225.0,71.0,0
877,-24.0,-232.0,75.0,0
878,-27.0,-231.0,76.0,0
879,-27.0,-231.0,80.0,0
880,-25.0,-235.0,78.0,0
881,-23.0,-231.0,80.0,0
882,-21.0,-231.0,83.0,0
883,-18.0,-231.0,81.0,0
884,-10.0,-226.0,78.0,0
885,-7.0,-226.0,81.0,0
886,-7.0,-221.0,82.0,0
887,-5.0,-219.0,84.0,0
888,-1.0,-216.0,79.0,0
889,1.0,-215.0,82.0,0
890,3.0,-211.0,86.0,0
891,1.0,-209.0,84.0,0
892,-2.0,-208.0,86.0,0
893,0.0,-209.0,85.0,0
894,-8.0,-212.0,84.0,0
895,0.0,-217.0,78.0,0
896,-15.0,-213.0,91.0,0
897,-11.0,-219.0,88.0,0
898,-8.0,-220.0,87.0,0
899,-8.0,-227.0,86.0,0
900,-7.0,-236.0,84.0,0
901,-1.0,-238.0,84.0,0
902,0.0,-245.0,81.0,0
903,4.0,-246.0,78.0,0
904,10.0,-254.0,81.0,0
905,10.0,-257.0,75.0,0
906,15.0,-263.0,73.0,0
907,17.0,-267.0,68.0,0
908,9.0,-271.0,67.0,0
909,9.0,-276.0,75.0,0
910,-1.0,-278.0,71.0,0
911,-1.0,-282.0,77.0,0
912,-10.0,-284.0,86.0,0
913,-19.0,-286.0,97.0,0
914,-27.0,-289.0,108.0,0
915,-32.0,-293.0,114.0,0
916,-32.0,-289.0,122.0,0
917,-33.0,-287.0,126.0,0
918,-44.0,-287.0,135.0,0
919,-45.0,-283.0,136.0,0
920,-47.0,-282.0,140.0,0
921,-44.0,-269.0,132.0,0
922,-42.0,-256.0,129.0,0
923,-35.0,-254.0,127.0,0
924,-26.0,-248.0,128.0,0
925,-38.0,-248.0,124.0,0
926,-90.0,-255.0,83.0,0
927,-125.0,-267.0,60.0,0
928,-76.0,-292.0,3.0,0
929,-40.0,-340.0,0.0,0
930,-26.0,-396.0,54.0,0
931,-26.0,-434.0,113.0,0
932,-16.0,-449.0,128.0,0
933,-16.0,-458.0,116.0,0
934,-42.0,-454.0,107.0,0
935,-89.0,-447.0,91.0,0
936,-115.0,-438.0,63.0,0
937,-116.0,-426.0,29.0,0
938,-108.0,-413.0,5.0,0
939,-101.0,-389.0,-22.0,0
940,-94.0,-361.0,-34.0,0
941,-92.0,-333.0,-32.0,0
942,-87.0,-305.0,-29.0,0
943,-77.0,-270.0,-35.0,0
944,-63.0,-234.0,-41.0,0
945,-51.0,-208.0,-53.0,0
946,-40.0,-190.0,-55.0,0
947,-32.0,-175.0,-56.0,0
948,-16.0,-167.0,-49.0,0
949,1.0,-172.0,-45.0,0
950,13.0,-176.0,-43.0,0
951,27.0,-190.0,-39.0,0
952,32.0,-205.0,-29.0,0
953,38.0,-229.0,-4.0,0
954,32.0,-250.0,7.0,0
955,33.0,-271.0,16.0,0
956,25.0,-288.0,27.0,0
957,21.0,-303.0,31.0,0
958,9.0,-319.0,33.0,0
959,0.0,-325.0,36.0,0
960,-7.0,-337.0,35.0,0
961,-16.0,-339.0,31.0,0
962,-26.0,-338.0,31.0,0
963,-43.0,-331.0,23.0,0
964,-46.0,-323.0,20.0,0
965,-61.0,-316.0,10.0,0
966,-66.0,-302.0,18.0,0
967,-71.0,-293.0,24.0,0
968,-69.0,-279.0,20.0,0
969,-66.0,-264.0,26.0,0
970,-63.0,-246.0,34.0,0
971,-63.0,-233.0,38.0,0
972,-52.0,-218.0,31.0,0
973,-44.0,-207.0,31.0,0
974,-35.0,-200.0,30.0,0
975,-32.0,-194.0,33.0,0
976,-32.0,-196.0,28.0,0
977,-22.0,-197.0,32.0,0
978,-19.0,-196.0,27.0,0
979,-12.0,-199.0,31.0,0
980,-4.0,-199.0,30.0,0
981,2.0,-201.0,27.0,0
982,4.0,-201.0,34.0,0
983,11.0,-206.0,31.0,0
984,18.0,-214.0,33.0,0
985,22.0,-216.0,34.0,0
986,21.0,-216.0,29.0,0
987,27.0,-224.0,32.0,0
988,30.0,-231.0,33.0,0
989,30.0,-234.0,33.0,0
990,31.0,-241.0,33.0,0
991,33.0,-247.0,41.0,0
992,33.0,-251.0,38.0,0
993,29.0,-253.0,44.0,0
994,29.0,-256.0,50.0,0
995,31.0,-259.0,62.0,0
996,21.0,-255.0,59.0,0
997,21.0,-255.0,65.0,0
998,16.0,-248.0,68.0,0
999,13.0,-240.0,69.0,0
1000,10.0,-231.0,69.0,0
1001,11.0,-225.0,70.0,0
1002,6.0,-218.0,68.0,0
1003,7.0,-212.0,65.0,0
1004,7.0,-209.0,65.0,0
1005,6.0,-204.0,63.0,0
1006,5.0,-203.0,58.0,0
1007,7.0,-200.0,61.0,0
1008,5.0,-203.0,61.0,0
1009,5.0,-208.0,56.0,0
1010,3.0,-212.0,58.0,0
1011,6.0,-219.0,61.0,0
1012,6.0,-225.0,63.0,0
1013,8.0,-230.0,63.0,0
1014,12.0,-237.0,64.0,0
1015,11.0,-242.0,65.0,0
1016,13.0,-248.0,67.0,0
1017,14.0,-246.0,75.0,0
1018,21.0,-251.0,82.0,0
1019,19.0,-253.0,84.0,0
1020,19.0,-253.0,77.0,0
1021,19.0,-255.0,82.0,0
1022,12.0,-255.0,80.0,0
1023,18.0,-258.0,78.0,0
1024,15.0,-263.0,81.0,0
1025,11.0,-262.0,78.0,0
1026,11.0,-265.0,77.0,0
1027,6.0,-262.0,80.0,0
1028,6.0,-268.0,80.0,0
1029,-1.0,-270.0,81.0,0
1030,3.0,-269.0,72.0,0
1031,-3.0,-266.0,79.0,0
1032,-12.0,-264.0,78.0,0
1033,-14.0,-262.0,80.0,0
1034,-16.0,-268.0,90.0,0
1035,-20.0,-267.0,94.0,0
1036,-24.0,-264.0,108.0,0
1037,-15.0,-271.0,120.0,0
1038,-13.0,-275.0,132.0,0
1039,-2.0,-282.0,139.0,0
1040,1.0,-287.0,143.0,0
1041,8.0,-287.0,142.0,0
1042,25.0,-289.0,131.0,0
1043,34.0,-292.0,121.0,0
1044,43.0,-298.0,110.0,0
1045,56.0,-305.0,95.0,0
1046,62.0,-312.0,86.0,0
1047,72.0,-318.0,78.0,0
1048,76.0,-325.0,72.0,0
1049,80.0,-334.0,73.0,0
1050,81.0,-346.0,71.0,0
1051,84.0,-353.0,63.0,0
1052,78.0,-365.0,54.0,0
1053,69.0,-373.0,53.0,0
1054,64.0,-379.0,62.0,0
1055,61.0,-384.0,63.0,0
1056,60.0,-384.0,64.0,0
1057,64.0,-384.0,54.0,0
1058,66.0,-383.0,40.0,0
1059,61.0,-378.0,23.0,0
1060,59.0,-371.0,2.0,0
1061,49.0,-356.0,-22.0,0
1062,45.0,-347.0,-32.0,0
1063,33.0,-323.0,-50.0,0
1064,23.0,-300.0,-61.0,0
1065,10.0,-286.0,-69.0,0
1066,2.0,-268.0,-76.0,0
1067,-3.0,-246.0,-75.0,0
1068,-18.0,-230.0,-72.0,0
1069,-26.0,-215.0,-63.0,0
1070,-40.0,-215.0,-55.0,0
1071,-45.0,-205.0,-49.0,0
1072,-50.0,-208.0,-41.0,0
1073,-52.0,-218.0,-34.0,0
1074,-54.0,-234.0,-21.0,0
1075,-49.0,-255.0,-17.0,0
1076,-52.0,-270.0,-12.0,0
1077,-51.0,-287.0,-2.0,0
1078,-50.0,-301.0,3.0,0
1079,-44.0,-312.0,7.0,0
1080,-44.0,-316.0,7.0,0
1081,-43.0,-316.0,4.0,0
1082,-39.0,-314.0,9.0,0
1083,-39.0,-315.0,3.0,0
1084,-36.0,-308.0,7.0,0
1085,-35.0,-300.0,0.0,0
1086,-32.0,-289.0,1.0,0
1087,-27.0,-282.0,3.0,0
1088,-23.0,-270.0,2.0,0
1089,-18.0,-259.0,5.0,0
1090,-11.0,-252.0,8.0,0
1091,-6.0,-246.0,10.0,0
1092,1.0,-241.0,10.0,0
1093,3.0,-237.0,13.0,0
1094,5.0,-236.0,14.0,0
1095,7.0,-231.0,17.0,0
1096,9.0,-231.0,23.0,0
1097,10.0,-236.0,18.0,0
1098,12.0,-231.0,16.0,0
1099,9.0,-228.0,21.0,0
1100,11.0,-227.0,13.0,0
1101,8.0,-223.0,13.0,0
1102,11.0,-225.0,15.0,0
1103,9.0,-224.0,19.0,0
1104,3.0,-222.0,18.0,0
1105,3.0,-227.0,23.0,0
1106,0.0,-226.0,28.0,0
1107,-3.0,-227.0,24.0,0
1108,-13.0,-228.0,30.0,0
1109,-14.0,-236.0,28.0,0
1110,-19.0,-237.0,34.0,0
1111,-28.0,-235.0,34.0,0
1112,-24.0,-238.0,38.0,0
1113,-27.0,-234.0,47.0,0
1114,-25.0,-243.0,43.0,0
1115,-25.0,-239.0,47.0,0
1116,-24.0,-241.0,48.0,0
1117,-23.0,-237.0,47.0,0
1118,-22.0,-237.0,47.0,0
1119,-22.0,-234.0,44.0,0
1120,-18.0,-231.0,44.0,0
1121,-18.0,-229.0,46.0,0
1122,-19.0,-224.0,39.0,0
1123,-20.0,-218.0,39.0,0
1124,-20.0,-212.0,40.0,0
1125,-31.0,-212.0,40.0,0
1126,-31.0,-208.0,41.0,0
1127,-36.0,-202.0,45.0,0
1128,-40.0,-204.0,43.0,0
1129,-48.0,-207.0,47.0,0
1130,-50.0,-210.0,51.0,0
1131,-56.0,-210.0,55.0,0
1132,-55.0,-216.0,56.0,0
1133,-59.0,-223.0,59.0,0
1134,-63.0,-228.0,65.0,0
1135,-64.0,-230.0,65.0,0
1136,-56.0,-237.0,64.0,0
1137,-51.0,-237.0,64.0,0
1138,-46.0,-245.0,68.0,0
1139,-42.0,-244.0,65.0,0
1140,-32.0,-245.0,65.0,0
1141,-27.0,-244.0,67.0,0
1142,-26.0,-244.0,64.0,0
1143,-18.0,-239.0,63.0,0
1144,-17.0,-240.0,68.0,0
1145,-14.0,-240.0,71.0,0
1146,-13.0,-241.0,78.0,0
1147,-14.0,-239.0,88.0,0
1148,-11.0,-243.0,88.0,0
1149,-11.0,-245.0,86.0,0
1150,-10.0,-243.0,87.0,0
1151,-14.0,-242.0,83.0,0
1152,-11.0,-246.0,83.0,0
1153,-9.0,-246.0,78.0,0
1154,-6.0,-245.0,74.0,0
1155,-4.0,-244.0,74.0,0
1156,0.0,-245.0,71.0,0
1157,4.0,-246.0,78.0,0
1158,5.0,-252.0,60.0,0
1159,4.0,-249.0,62.0,0
1160,8.0,-243.0,77.0,0
1161,12.0,-240.0,74.0,0
1162,9.0,-241.0,70.0,0
1163,10.0,-243.0,65.0,0
1164,8.0,-245.0,66.0,0
1165,3.0,-250.0,72.0,0
1166,1.0,-257.0,77.0,0
1167,-1.0,-267.0,85.0,0
1168,-8.0,-280.0,95.0,0
1169,-9.0,-293.0,98.0,0
1170,-11.0,-300.0,105.0,0
1171,-16.0,-307.0,107.0,0
1172,-21.0,-307.0,108.0,0
1173,-25.0,-310.0,110.0,0
1174,-26.0,-308.0,108.0,0
1175,-31.0,-307.0,107.0,0
1176,-39.0,-303.0,105.0,0
1177,-41.0,-298.0,105.0,0
1178,-48.0,-293.0,106.0,0
1179,-47.0,-284.0,102.0,0
1180,-56.0,-287.0,102.0,0
1181,-63.0,-287.0,96.0,0
1182,-66.0,-290.0,92.0,0
1183,-77.0,-298.0,90.0,0
1184,-84.0,-305.0,87.0,0
1185,-96.0,-319.0,84.0,0
1186,-95.0,-328.0,79.0,0
1187,-86.0,-342.0,73.0,0
1188,-80.0,-360.0,67.0,0
1189,-76.0,-368.0,67.0,0
1190,-73.0,-376.0,53.0,0
1191,-69.0,-378.0,48.0,0
1192,-68.0,-380.0,34.0,0
1193,-71.0,-376.0,26.0,0
1194,-63.0,-372.0,11.0,0
1195,-64.0,-365.0,12.0,0
1196,-61.0,-353.0,1.0,0
1197,-57.0,-336.0,-11.0,0
1198,-51.0,-320.0,-21.0,0
1199,-47.0,-301.0,-28.0,0
1200,-46.0,-286.0,-41.0,0
1201,-38.0,-263.0,-41.0,0
1202,-31.0,-252.0,-52.0,0
1203,-26.0,-238.0,-54.0,0
1204,-22.0,-228.0,-51.0,0
1205,-16.0,-219.0,-52.0,0
1206,-12.0,-214.0,-51.0,0
1207,-9.0,-213.0,-48.0,0
1208,-3.0,-215.0,-43.0,0
1209,-2.0,-225.0,-41.0,0
1210,-2.0,-234.0,-35.0,0
1211,-10.0,-246.0,-30.0,0
1212,-8.0,-264.0,-25.0,0
1213,-19.0,-269.0,-12.0,0
1214,-25.0,-278.0,-5.0,0
1215,-32.0,-288.0,1.0,0
1216,-36.0,-297.0,0.0,0
1217,-45.0,-299.0,-2.0,0
1218,-45.0,-308.0,3.0,0
1219,-53.0,-308.0,2.0,0
1220,-55.0,-309.0,7.0,0
1221,-58.0,-310.0,2.0,0
1222,-59.0,-306.0,4.0,0
1223,-54.0,-303.0,1.0,0
1224,-52.0,-296.0,10.0,0
1225,-45.0,-298.0,11.0,0
1226,-46.0,-283.0,10.0,0
1227,-43.0,-273.0,6.0,0
1228,-33.0,-266.0,12.0,0
1229,-41.0,-258.0,14.0,0
1230,-39.0,-254.0,13.0,0
1231,-31.0,-248.0,14.0,0
1232,-30.0,-246.0,15.0,0
1233,-31.0,-241.0,17.0,0
1234,-29.0,-246.0,25.0,0
1235,-23.0,-237.0,23.0,0
1236,-23.0,-237.0,28.0,0
1237,-15.0,-239.0,28.0,0
1238,-13.0,-236.0,25.0,0
1239,-14.0,-228.0,30.0,0
1240,-11.0,-234.0,29.0,0
1241,-9.0,-229.0,26.0,0
1242,-1.0,-229.0,25.0,0
1243,1.0,-225.0,22.0,0
1244,4.0,-224.0,25.0,0
1245,2.0,-221.0,30.0,0
1246,2.0,-224.0,28.0,0
1247,0.0,-226.0,31.0,0
1248,0.0,-227.0,33.0,0
1249,-5.0,-224.0,38.0,0
1250,-6.0,-225.0,40.0,0
1251,-12.0,-226.0,40.0,0
1252,-14.0,-226.0,46.0,0
1253,-13.0,-227.0,46.0,0
1254,-10.0,-225.0,48.0,0
1255,-8.0,-225.0,49.0,0
1256,-4.0,-224.0,46.0,0
1257,1.0,-223.0,47.0,0
1258,1.0,-218.0,47.0,0
1259,3.0,-215.0,45.0,0
1260,8.0,-213.0,43.0,0
1261,11.0,-210.0,41.0,0
1262,14.0,-210.0,37.0,0
1263,11.0,-209.0,39.0,0
1264,13.0,-210.0,38.0,0
1265,14.0,-212.0,40.0,0
1266,16.0,-213.0,46.0,0
1267,16.0,-217.0,43.0,0
1268,13.0,-220.0,50.0,0
1269,11.0,-227.0,52.0,0
1270,8.0,-228.0,55.0,0
1271,2.0,-229.0,59.0,0
1272,1.0,-234.0,62.0,0
1273,-3.0,-239.0,71.0,0
1274,-8.0,-239.0,70.0,0
1275,-12.0,-244.0,75.0,0
1276,-12.0,-244.0,75.0,0
1277,-14.0,-250.0,74.0,0
1278,-17.0,-252.0,81.0,0
1279,-18.0,-248.0,82.0,0
1280,-18.0,-247.0,84.0,0
1281,-16.0,-250.0,82.0,0
1282,-15.0,-250.0,83.0,0
1283,-14.0,-246.0,81.0,0
1284,-18.0,-241.0,79.0,0
1285,-16.0,-234.0,77.0,0
1286,-15.0,-230.0,77.0,0
1287,-14.0,-231.0,73.0,0
1288,-14.0,-227.0,77.0,0
1289,-18.0,-223.0,76.0,0
1290,0.0,-229.0,88.0,0
1291,-5.0,-229.0,88.0,0
1292,1.0,-234.0,82.0,0
1293,2.0,-237.0,78.0,0
1294,7.0,-245.0,81.0,0
1295,6.0,-245.0,83.0,0
1296,8.0,-254.0,84.0,0
1297,6.0,-257.0,83.0,0
1298,8.0,-260.0,86.0,0
1299,7.0,-255.0,83.0,0
1300,1.0,-264.0,93.0,0
1301,-3.0,-267.0,93.0,0
1302,-12.0,-270.0,100.0,0
1303,-13.0,-270.0,96.0,0
1304,-8.0,-272.0,95.0,0
1305,-11.0,-269.0,93.0,0
1306,-8.0,-265.0,90.0,0
1307,-4.0,-264.0,82.0,0
1308,3.0,-261.0,75.0,0
1309,11.0,-259.0,68.0,0
1310,23.0,-260.0,61.0,0
1311,31.0,-262.0,63.0,0
1312,42.0,-268.0,56.0,0
1313,57.0,-268.0,53.0,0
1314,66.0,-279.0,55.0,0
1315,73.0,-287.0,56.0,0
1316,78.0,-302.0,59.0,0
1317,83.0,-315.0,59.0,0
1318,91.0,-324.0,62.0,0
1319,93.0,-336.0,63.0,0
1320,98.0,-345.0,65.0,0
1321,92.0,-351.0,58.0,0
1322,88.0,-353.0,56.0,0
1323,85.0,-356.0,59.0,0
1324,83.0,-349.0,44.0,0
1325,70.0,-344.0,45.0,0
1326,61.0,-338.0,42.0,0
1327,49.0,-333.0,41.0,0
1328,36.0,-327.0,34.0,0
1329,23.0,-323.0,36.0,0
1330,6.0,-315.0,35.0,0
1331,0.0,-309.0,46.0,0
1332,-6.0,-304.0,51.0,0
1333,-12.0,-298.0,59.0,0
1334,-12.0,-291.0,58.0,0
1335,-9.0,-279.0,52.0,0
1336,-8.0,-272.0,41.0,0
1337,-4.0,-264.0,31.0,0
1338,-6.0,-258.0,22.0,0
1339,-7.0,-251.0,11.0,0
1340,-14.0,-242.0,4.0,0
1341,-6.0,-237.0,-2.0,0
1342,-11.0,-230.0,-10.0,0
1343,-13.0,-227.0,-22.0,0
1344,-14.0,-227.0,-25.0,0
1345,-19.0,-221.0,-36.0,0
1346,-25.0,-216.0,-36.0,0
1347,-25.0,-211.0,-42.0,0
1348,-24.0,-207.0,-46.0,0
1349,-26.0,-199.0,-43.0,0
1350,-23.0,-194.0,-38.0,0
1351,-28.0,-191.0,-29.0,0
1352,-26.0,-187.0,-25.0,0
1353,-28.0,-190.0,-18.0,0
1354,-29.0,-189.0,-18.0,0
1355,-27.0,-191.0,-13.0,0
1356,-26.0,-195.0,-9.0,0
1357,-26.0,-198.0,-8.0,0
1358,-25.0,-201.0,-14.0,0
1359,-25.0,-202.0,-21.0,0
1360,-27.0,-205.0,-32.0,0
1361,-23.0,-211.0,-37.0,0
1362,-23.0,-214.0,-40.0,0
1363,-21.0,-215.0,-54.0,0
1364,-26.0,-224.0,-64.0,0
1365,-26.0,-231.0,-69.0,0
1366,-27.0,-239.0,-67.0,0
1367,-23.0,-252.0,-56.0,0
1368,-17.0,-255.0,-43.0,0
1369,-23.0,-258.0,-36.0,0
1370,-24.0,-261.0,-35.0,0
1371,-28.0,-262.0,-41.0,0
1372,-32.0,-266.0,-41.0,0
1373,-35.0,-265.0,-41.0,0
1374,-35.0,-268.0,-40.0,0
1375,-35.0,-264.0,-45.0,0
1376,-33.0,-256.0,-47.0,0
1377,-31.0,-245.0,-52.0,0
1378,-27.0,-232.0,-61.0,0
1379,-31.0,-221.0,-65.0,0
1380,-29.0,-215.0,-64.0,0
1381,-33.0,-205.0,-64.0,0
1382,-36.0,-201.0,-61.0,0
1383,-35.0,-191.0,-62.0,0
1384,-36.0,-192.0,-61.0,0
1385,-29.0,-190.0,-61.0,0
1386,-29.0,-184.0,-55.0,0
1387,-24.0,-181.0,-48.0,0
1388,-15.0,-175.0,-52.0,0
1389,-8.0,-168.0,-60.0,0
1390,-3.0,-166.0,-69.0,0
1391,-5.0,-169.0,-74.0,0
1392,-7.0,-175.0,-71.0,0
1393,-12.0,-183.0,-73.0,0
1394,-14.0,-194.0,-73.0,0
1395,-23.0,-206.0,-77.0,0
1396,-26.0,-225.0,-76.0,0
1397,-33.0,-244.0,-73.0,0
1398,-34.0,-257.0,-77.0,0
1399,-38.0,-272.0,-76.0,0
1400,-35.0,-284.0,-81.0,0
1401,-36.0,-286.0,-80.0,0
1402,-30.0,-291.0,-81.0,0
1403,-31.0,-290.0,-79.0,0
1404,-35.0,-283.0,-77.0,0
1405,-42.0,-288.0,-68.0,0
1406,-47.0,-290.0,-63.0,0
1407,-49.0,-288.0,-60.0,0
1408,-47.0,-301.0,-46.0,0
1409,-53.0,-302.0,-41.0,0
1410,-50.0,-305.0,-38.0,0
1411,-51.0,-296.0,-35.0,0
1412,-59.0,-295.0,-29.0,0
1413,-58.0,-295.0,-26.0,0
1414,-50.0,-292.0,-29.0,0
1415,-48.0,-288.0,-46.0,0
1416,-47.0,-270.0,-46.0,0
1417,-42.0,-257.0,-61.0,1
1418,-36.0,-233.0,-71.0,1
1419,-31.0,-209.0,-84.0,1
1420,-26.0,-193.0,-96.0,1
1421,-26.0,-178.0,-113.0,1
1422,-25.0,-162.0,-128.0,1
1423,-26.0,-155.0,-145.0,1
1424,-25.0,-147.0,-160.0,1
1425,-27.0,-148.0,-180.0,1
1426,-25.0,-151.0,-190.0,1
1427,-28.0,-165.0,-208.0,1
1428,-29.0,-190.0,-218.0,1
1429,-30.0,-208.0,-212.0,1
1430,-34.0,-225.0,-209.0,1
1431,-42.0,-244.0,-213.0,1
1432,-38.0,-251.0,-213.0,1
1433,-25.0,-261.0,-217.0,1
1434,-1.0,-282.0,-223.0,1
1435,20.0,-293.0,-231.0,1
1436,36.0,-300.0,-228.0,1
1437,45.0,-301.0,-232.0,1
1438,58.0,-313.0,-230.0,1
1439,57.0,-309.0,-224.0,1
1440,59.0,-300.0,-224.0,1
1441,66.0,-287.0,-205.0,1
1442,68.0,-260.0,-174.0,1
1443,63.0,-241.0,-153.0,1
1444,60.0,-223.0,-140.0,1
1445,56.0,-213.0,-116.0,1
1446,42.0,-211.0,-85.0,1
1447,39.0,-213.0,-64.0,1
1448,39.0,-220.0,-38.0,1
1449,21.0,-214.0,-15.0,1
1450,20.0,-208.0,14.0,1
1451,19.0,-191.0,42.0,1
1452,13.0,-189.0,57.0,1
1453,2.0,-183.0,71.0,1
1454,5.0,-177.0,84.0,1
1455,-13.0,-162.0,103.0,1
1456,-33.0,-153.0,107.0,1
1457,-57.0,-133.0,128.0,1
1458,-81.0,-122.0,158.0,1
1459,-113.0,-86.0,206.0,1
1460,-152.0,-54.0,239.0,1
1461,-167.0,-26.0,266.0,1
1462,-180.0,-2.0,288.0,1
1463,-203.0,32.0,306.0,1
1464,-209.0,73.0,336.0,2
1465,-217.0,112.0,369.0,2
1466,-217.0,143.0,362.0,2
1467,-223.0,136.0,323.0,2
1468,-241.0,75.0,280.0,2
1469,-246.0,10.0,232.0,2
1470,-255.0,-60.0,218.0,2
1471,-232.0,-105.0,121.0,2
1472,-159.0,-114.0,29.0,2
1473,-111.0,-66.0,-55.0,2
1474,-75.0,-26.0,-84.0,2
1475,-46.0,13.0,-83.0,2
1476,-24.0,15.0,-116.0,2
1477,2.0,27.0,-136.0,2
1478,19.0,35.0,-165.0,2
1479,48.0,30.0,-157.0,2
1480,70.0,25.0,-146.0,2
1481,89.0,27.0,-143.0,2
1482,127.0,26.0,-143.0,2
1483,193.0,28.0,-119.0,2
1484,291.0,51.0,-108.0,2
1485,376.0,54.0,-130.0,2
1486,460.0,56.0,-188.0,2
1487,514.0,62.0,-265.0,2
1488,538.0,40.0,-339.0,2
1489,518.0,15.0,-406.0,2
1490,487.0,10.0,-463.0,2
1491,439.0,9.0,-494.0,2
1492,390.0,-8.0,-516.0,2
1493,306.0,-38.0,-530.0,2
1494,208.0,-72.0,-528.0,2
1495,132.0,-114.0,-519.0,2
1496,88.0,-133.0,-511.0,2
1497,66.0,-152.0,-478.0,2
1498,64.0,-158.0,-479.0,2
1499,67.0,-157.0,-490.0,2
1500,70.0,-150.0,-514.0,2
1501,63.0,-153.0,-519.0,2
1502,43.0,-142.0,-504.0,2
1503,32.0,-144.0,-467.0,2
1504,9.0,-141.0,-446.0,2
1505,-9.0,-151.0,-413.0,2
1506,-29.0,-158.0,-389.0,2
1507,-45.0,-167.0,-373.0,2
1508,-92.0,-170.0,-335.0,2
1509,-123.0,-153.0,-329.0,2
1510,-113.0,-102.0,-336.0,2
1511,-335.0,-29.0,-349.0,2
1512,-684.0,-40.0,-365.0,2
1513,7.0,-70.0,-330.0,2
1514,98.0,46.0,-210.0,2
1515,-45.0,247.0,-316.0,2
1516,-37.0,388.0,-470.0,2
1517,126.0,399.0,-527.0,2
1518,367.0,358.0,-441.0,2
1519,501.0,342.0,-361.0,2
1520,637.0,349.0,-319.0,2
1521,656.0,376.0,-330.0,2
1522,691.0,399.0,-390.0,2
1523,784.0,445.0,-435.0,2
1524,635.0,443.0,-399.0,2
1525,757.0,553.0,-410.0,2
1526,930.0,672.0,-519.0,2
1527,955.0,674.0,-501.0,2
1528,972.0,589.0,-489.0,2
1529,907.0,450.0,-472.0,2
1530,903.0,336.0,-447.0,2
1531,815.0,251.0,-370.0,2
1532,630.0,177.0,-239.0,2
1533,555.0,119.0,-196.0,2
1534,469.0,125.0,-195.0,2
1535,422.0,140.0,-238.0,2
1536,385.0,106.0,-240.0,2
1537,354.0,106.0,-203.0,2
1538,380.0,112.0,-140.0,2
1539,361.0,135.0,-71.0,2
1540,330.0,144.0,-37.0,2
1541,276.0,152.0,-16.0,2
1542,148.0,159.0,-22.0,2
1543,117.0,142.0,-15.0,2
1544,133.0,140.0,-18.0,2
1545,116.0,139.0,-42.0,2
1546,115.0,117.0,-50.0,2
1547,166.0,102.0,-69.0,2
1548,282.0,102.0,-78.0,2
1549,280.0,122.0,-50.0,2
1550,186.0,87.0,-35.0,2
1551,105.0,87.0,-17.0,2
1552,69.0,48.0,-1.0,2
1553,78.0,18.0,9.0,2
1554,77.0,21.0,27.0,2
1555,76.0,21.0,36.0,2
1556,94.0,31.0,37.0,2
1557,124.0,44.0,38.0,2
1558,141.0,68.0,31.0,1
1559,164.0,114.0,7.0,1
1560,169.0,138.0,0.0,1
1561,180.0,130.0,2.0,1
1562,193.0,109.0,-9.0,1
1563,212.0,98.0,-14.0,1
1564,203.0,71.0,-18.0,1
1565,194.0,47.0,-21.0,1
1566,178.0,19.0,-20.0,1
1567,162.0,-6.0,-11.0,1
1568,144.0,-28.0,-9.0,1
1569,132.0,-37.0,-12.0,1
1570,131.0,-34.0,-12.0,1
1571,128.0,-29.0,-13.0,1
1572,129.0,-6.0,-13.0,1
1573,135.0,5.0,-12.0,1
1574,143.0,20.0,-14.0,1
1575,155.0,33.0,-16.0,1
1576,159.0,36.0,-22.0,1
1577,149.0,47.0,-28.0,1
1578,151.0,61.0,-35.0,1
1579,152.0,68.0,-46.0,1
1580,157.0,80.0,-50.0,1
1581,169.0,93.0,-52.0,1
1582,170.0,102.0,-57.0,1
1583,176.0,95.0,-58.0,1
1584,181.0,96.0,-53.0,1
1585,183.0,92.0,-58.0,1
1586,186.0,86.0,-53.0,1
1587,191.0,77.0,-53.0,1
1588,231.0,75.0,-67.0,1
1589,265.0,79.0,-67.0,1
1590,291.0,70.0,-62.0,1
1591,306.0,57.0,-60.0,1
1592,327.0,44.0,-64.0,1
1593,342.0,34.0,-63.0,1
1594,357.0,37.0,-64.0,1
1595,375.0,31.0,-71.0,1
1596,367.0,37.0,-79.0,1
1597,375.0,48.0,-85.0,1
1598,359.0,55.0,-86.0,1
1599,361.0,58.0,-80.0,1
1600,355.0,64.0,-89.0,1
1601,359.0,67.0,-82.0,1
1602,357.0,66.0,-75.0,1
1603,361.0,64.0,-65.0,1
1604,363.0,65.0,-52.0,1
1605,352.0,60.0,-43.0,1
1606,337.0,61.0,-43.0,1
1607,322.0,55.0,-39.0,1
1608,312.0,51.0,-40.0,1
1609,300.0,45.0,-38.0,1
1610,285.0,43.0,-39.0,1
1611,278.0,39.0,-38.0,1
1612,265.0,30.0,-30.0,1
1613,253.0,27.0,-30.0,1
1614,248.0,29.0,-28.0,1
1615,238.0,29.0,-22.0,1
1616,229.0,30.0,-22.0,1
1617,217.0,27.0,-16.0,1
1618,217.0,26.0,-16.0,1
1619,209.0,28.0,-8.0,1
1620,203.0,30.0,-8.0,1
1621,199.0,29.0,-9.0,1
1622,203.0,31.0,-9.0,1
1623,203.0,30.0,-3.0,1
1624,207.0,29.0,-5.0,1
1625,209.0,28.0,-4.0,1
1626,213.0,27.0,-6.0,1
1627,214.0,27.0,-7.0,1
1628,210.0,30.0,-11.0,1
1629,214.0,26.0,-13.0,1
1630,215.0,24.0,-15.0,1
1631,214.0,22.0,-21.0,1
1632,219.0,24.0,-26.0,1
1633,215.0,29.0,-28.0,1
1634,219.0,28.0,-34.0,1
1635,219.0,33.0,-36.0,1
1636,227.0,32.0,-46.0,1
1637,233.0,30.0,-44.0,1
1638,233.0,30.0,-52.0,1
1639,239.0,30.0,-54.0,1
1640,249.0,31.0,-57.0,1
1641,249.0,31.0,-55.0,1
1642,253.0,30.0,-57.0,1
1643,252.0,30.0,-61.0,1
1644,255.0,22.0,-64.0,1
1645,255.0,23.0,-68.0,1
1646,256.0,17.0,-70.0,0
1647,258.0,16.0,-74.0,0
1648,255.0,17.0,-72.0,0
1649,256.0,14.0,-73.0,0
1650,255.0,14.0,-75.0,0
1651,255.0,17.0,-74.0,0
1652,249.0,20.0,-74.0,0
1653,251.0,16.0,-77.0,0
1654,254.0,18.0,-71.0,0
1655,251.0,14.0,-75.0,0
1656,253.0,19.0,-74.0,0
1657,254.0,19.0,-72.0,0
1658,254.0,20.0,-69.0,0
1659,251.0,22.0,-71.0,0
1660,253.0,23.0,-72.0,0
1661,252.0,27.0,-73.0,0
1662,253.0,25.0,-70.0,0
1663,251.0,26.0,-75.0,0
1664,246.0,30.0,-75.0,0
1665,255.0,27.0,-75.0,0
1666,248.0,30.0,-76.0,0
1667,250.0,26.0,-72.0,0
1668,248.0,27.0,-75.0,0
1669,248.0,25.0,-76.0,0
1670,243.0,31.0,-75.0,0
1671,242.0,28.0,-69.0,0
1672,239.0,26.0,-72.0,0
1673,238.0,25.0,-69.0,0
1674,240.0,30.0,-67.0,0
1675,238.0,30.0,-70.0,0
1676,233.0,32.0,-68.0,0
1677,236.0,29.0,-70.0,0
1678,235.0,30.0,-66.0,0
1679,236.0,26.0,-66.0,0
1680,234.0,27.0,-63.0,0
1681,238.0,25.0,-67.0,0
1682,235.0,26.0,-62.0,0
1683,233.0,29.0,-66.0,0
1684,235.0,26.0,-58.0,0
1685,238.0,24.0,-66.0,0
1686,239.0,26.0,-69.0,0
1687,239.0,25.0,-67.0,0
1688,239.0,25.0,-66.0,0
1689,241.0,28.0,-63.0,0
1690,240.0,27.0,-67.0,0
1691,240.0,29.0,-64.0,0
1692,240.0,26.0,-65.0,0
1693,241.0,28.0,-66.0,0
1694,246.0,24.0,-62.0,0
1695,243.0,27.0,-66.0,0
1696,245.0,26.0,-64.0,0
1697,242.0,27.0,-65.0,0
1698,244.0,29.0,-63.0,0
1699,244.0,27.0,-62.0,0
1700,247.0,30.0,-65.0,0
1701,243.0,30.0,-63.0,0
1702,244.0,27.0,-63.0,0
1703,243.0,27.0,-61.0,0
1704,245.0,29.0,-61.0,0
1705,247.0,30.0,-63.0,0
1706,238.0,29.0,-55.0,0
1707,248.0,27.0,-62.0,0
1708,249.0,30.0,-62.0,0
1709,245.0,32.0,-59.0,0
1710,246.0,29.0,-62.0,0
1711,248.0,32.0,-55.0,0
1712,246.0,30.0,-60.0,0
1713,246.0,33.0,-60.0,0
1714,246.0,34.0,-62.0,0
1715,243.0,31.0,-62.0,0
1716,246.0,30.0,-60.0,0
1717,247.0,29.0,-57.0,0
1718,246.0,29.0,-59.0,0
1719,244.0,28.0,-57.0,0
1720,245.0,29.0,-58.0,0
1721,242.0,30.0,-57.0,0
1722,242.0,27.0,-54.0,0
1723,244.0,28.0,-57.0,0
1724,244.0,28.0,-54.0,0
1725,245.0,28.0,-55.0,0
1726,243.0,29.0,-56.0,0
1727,241.0,29.0,-54.0,0
1728,242.0,27.0,-60.0,0
1729,247.0,31.0,-62.0,0
1730,243.0,31.0,-58.0,0
1731,241.0,30.0,-60.0,0
1732,241.0,32.0,-59.0,0
1733,244.0,30.0,-60.0,0
1734,241.0,31.0,-59.0,0
1735,244.0,31.0,-60.0,0
1736,244.0,30.0,-60.0,0
1737,245.0,29.0,-57.0,0
1738,243.0,29.0,-61.0,0
1739,244.0,30.0,-60.0,0
1740,242.0,29.0,-62.0,0
1741,245.0,30.0,-63.0,0
1742,244.0,30.0,-62.0,0
1743,242.0,31.0,-61.0,0
1744,244.0,30.0,-62.0,0
1745,248.0,28.0,-62.0,0
1746,244.0,32.0,-60.0,0
1747,246.0,27.0,-62.0,0
1748,243.0,30.0,-63.0,0
1749,241.0,30.0,-64.0,0
1750,243.0,28.0,-63.0,0
1751,242.0,30.0,-62.0,0
1752,242.0,28.0,-62.0,0
1753,242.0,28.0,-60.0,0
1754,243.0,28.0,-60.0,0
1755,241.0,33.0,-62.0,0
1756,240.0,31.0,-59.0,0
1757,244.0,31.0,-63.0,0
1758,243.0,31.0,-63.0,0
1759,242.0,30.0,-62.0,0
1760,242.0,30.0,-61.0,0
1761,244.0,30.0,-60.0,0
1762,240.0,31.0,-63.0,0
1763,241.0,32.0,-63.0,0
1764,242.0,33.0,-63.0,0
1765,244.0,31.0,-63.0,0
1766,240.0,32.0,-64.0,0
1767,243.0,31.0,-62.0,0
1768,246.0,32.0,-62.0,0
1769,243.0,31.0,-64.0,0
1770,244.0,31.0,-62.0,0
1771,242.0,27.0,-60.0,0
1772,242.0,32.0,-60.0,0
1773,243.0,31.0,-63.0,0
1774,243.0,30.0,-62.0,0
1775,243.0,28.0,-63.0,0
1776,244.0,29.0,-59.0,0
1777,240.0,30.0,-60.0,0
1778,243.0,30.0,-61.0,0
1779,244.0,30.0,-58.0,0
1780,241.0,32.0,-62.0,0
1781,244.0,30.0,-61.0,0
1782,245.0,31.0,-62.0,0
1783,243.0,31.0,-60.0,0
1784,245.0,28.0,-60.0,0
1785,241.0,33.0,-61.0,0
1786,243.0,33.0,-62.0,0
1787,242.0,29.0,-61.0,0
1788,242.0,31.0,-61.0,0
1789,242.0,31.0,-62.0,0
1790,242.0,30.0,-58.0,0
1791,243.0,30.0,-59.0,0
1792,243.0,30.0,-61.0,0
1793,247.0,31.0,-54.0,0
1794,245.0,31.0,-60.0,0
1795,242.0,31.0,-62.0,0
1796,244.0,29.0,-64.0,0
1797,245.0,32.0,-60.0,0
1798,245.0,29.0,-62.0,0
1799,244.0,32.0,-62.0,0
1800,245.0,31.0,-56.0,0
1801,242.0,31.0,-61.0,0
1802,244.0,31.0,-60.0,0
1803,240.0,29.0,-61.0,0
1804,242.0,33.0,-62.0,0
1805,242.0,31.0,-59.0,0
1806,243.0,29.0,-63.0,0
1807,241.0,30.0,-59.0,0
1808,242.0,29.0,-60.0,0
1809,241.0,29.0,-63.0,0
1810,242.0,31.0,-61.0,0
1811,243.0,30.0,-62.0,0
1812,240.0,30.0,-63.0,0
1813,244.0,30.0,-63.0,0
1814,245.0,27.0,-64.0,0
1815,244.0,29.0,-62.0,0
1816,244.0,30.0,-62.0,0
1817,243.0,32.0,-61.0,0
1818,243.0,28.0,-61.0,0
1819,240.0,33.0,-61.0,0
1820,240.0,32.0,-56.0,0
1821,242.0,31.0,-64.0,0
1822,245.0,29.0,-61.0,0
1823,244.0,31.0,-61.0,0
1824,243.0,30.0,-59.0,0
1825,241.0,35.0,-62.0,0
1826,243.0,34.0,-61.0,0
1827,244.0,33.0,-59.0,0
1828,247.0,32.0,-62.0,0
1829,243.0,29.0,-61.0,0
1830,242.0,29.0,-63.0,0
1831,244.0,30.0,-59.0,0
1832,243.0,29.0,-57.0,0
1833,242.0,30.0,-62.0,0
1834,241.0,34.0,-62.0,0
1835,244.0,35.0,-61.0,0
1836,243.0,32.0,-58.0,0
1837,245.0,33.0,-62.0,0
1838,244.0,32.0,-62.0,0
1839,243.0,31.0,-63.0,0
1840,239.0,32.0,-63.0,0
1841,245.0,31.0,-61.0,0
1842,243.0,31.0,-64.0,0
1843,242.0,33.0,-63.0,0
1844,237.0,31.0,-61.0,0
1845,242.0,30.0,-62.0,0
1846,243.0,28.0,-64.0,0
1847,243.0,30.0,-61.0,0
1848,241.0,32.0,-64.0,0
1849,242.0,30.0,-63.0,0
1850,241.0,31.0,-59.0,0
1851,243.0,29.0,-60.0,0
1852,243.0,29.0,-62.0,0
1853,244.0,31.0,-63.0,0
1854,240.0,28.0,-61.0,0
1855,243.0,30.0,-62.0,0
1856,240.0,28.0,-61.0,0
1857,244.0,27.0,-60.0,0
1858,243.0,26.0,-61.0,0
1859,241.0,29.0,-61.0,0
1860,236.0,30.0,-60.0,0
1861,246.0,28.0,-64.0,0
1862,244.0,33.0,-62.0,0
1863,240.0,30.0,-60.0,0
1864,243.0,29.0,-61.0,0
1865,243.0,29.0,-61.0,0
1866,245.0,29.0,-62.0,0
1867,244.0,31.0,-62.0,0
1868,244.0,28.0,-64.0,0
1869,242.0,30.0,-64.0,0
1870,243.0,31.0,-62.0,0
1871,243.0,27.0,-65.0,0
1872,242.0,26.0,-62.0,0
1873,241.0,31.0,-62.0,0
1874,243.0,32.0,-66.0,0
1875,243.0,31.0,-65.0,0
1876,245.0,32.0,-60.0,0
1877,244.0,31.0,-61.0,0
1878,244.0,33.0,-61.0,0
1879,245.0,26.0,-60.0,0
1880,241.0,31.0,-63.0,0
1881,239.0,33.0,-62.0,0
1882,244.0,33.0,-61.0,0
1883,245.0,30.0,-58.0,0
1884,240.0,30.0,-59.0,0
1885,246.0,31.0,-61.0,0
1886,241.0,29.0,-60.0,0
1887,242.0,31.0,-59.0,0
1888,242.0,31.0,-61.0,0
1889,243.0,31.0,-62.0,0
1890,240.0,33.0,-63.0,0
1891,241.0,30.0,-61.0,0
1892,240.0,34.0,-63.0,0
1893,245.0,32.0,-61.0,0
1894,242.0,31.0,-60.0,0
1895,242.0,31.0,-63.0,0
1896,241.0,30.0,-60.0,0
1897,244.0,30.0,-60.0,0
1898,243.0,31.0,-63.0,0
1899,242.0,28.0,-61.0,0
1900,242.0,32.0,-63.0,0
1901,247.0,29.0,-59.0,0
1902,245.0,37.0,-65.0,0
1903,244.0,30.0,-58.0,0
1904,242.0,30.0,-62.0,0
1905,243.0,32.0,-61.0,0
1906,245.0,30.0,-63.0,0
1907,246.0,28.0,-62.0,0
1908,244.0,30.0,-63.0,0
1909,245.0,29.0,-60.0,0
1910,242.0,32.0,-60.0,0
1911,244.0,32.0,-61.0,0
1912,241.0,32.0,-63.0,0
1913,241.0,29.0,-58.0,0
1914,246.0,29.0,-61.0,0
1915,243.0,32.0,-58.0,0
1916,242.0,33.0,-62.0,0
1917,241.0,31.0,-61.0,0
1918,246.0,29.0,-64.0,0
1919,243.0,30.0,-60.0,0
1920,246.0,30.0,-63.0,0
1921,243.0,32.0,-60.0,0
1922,242.0,32.0,-62.0,0
1923,239.0,30.0,-63.0,0
1924,240.0,27.0,-60.0,0
1925,240.0,32.0,-59.0,0
1926,244.0,29.0,-62.0,0
1927,242.0,30.0,-60.0,0
1928,243.0,31.0,-61.0,0
1929,244.0,29.0,-63.0,0
1930,241.0,31.0,-58.0,0
1931,243.0,34.0,-62.0,0
1932,244.0,28.0,-63.0,0
1933,242.0,30.0,-64.0,0
1934,240.0,31.0,-61.0,0
1935,242.0,31.0,-60.0,0
1936,244.0,32.0,-62.0,0
1937,243.0,31.0,-62.0,0
1938,240.0,33.0,-59.0,0
1939,246.0,30.0,-63.0,0
1940,241.0,35.0,-60.0,0
1941,241.0,35.0,-61.0,0
1942,242.0,33.0,-58.0,0
1943,241.0,32.0,-60.0,0
1944,241.0,34.0,-60.0,0
1945,246.0,30.0,-62.0,0
1946,243.0,32.0,-63.0,0
1947,236.0,13.0,-56.0,0
1948,240.0,37.0,-66.0,0
1949,245.0,27.0,-46.0,0
1950,246.0,22.0,-59.0,0
1951,247.0,29.0,-79.0,0
1952,248.0,25.0,-44.0,0
1953,243.0,24.0,-71.0,0
1954,243.0,29.0,-68.0,0
1955,245.0,51.0,-71.0,0
1956,244.0,30.0,-61.0,0
1957,243.0,35.0,-59.0,0
1958,241.0,33.0,-60.0,0
1959,240.0,31.0,-60.0,0
1960,243.0,24.0,-57.0,0
1961,263.0,28.0,-49.0,0
1962,256.0,38.0,-58.0,0
1963,243.0,18.0,-84.0,0
1964,236.0,30.0,-55.0,0
1965,238.0,29.0,-64.0,0
1966,239.0,25.0,-63.0,0
1967,249.0,21.0,-66.0,0
1968,246.0,36.0,-51.0,0
1969,239.0,34.0,-52.0,0
1970,237.0,35.0,-44.0,0
1971,245.0,36.0,-65.0,0
1972,243.0,31.0,-61.0,0
1973,240.0,33.0,-60.0,0
1974,242.0,30.0,-62.0,0
1975,240.0,32.0,-62.0,0
1976,245.0,31.0,-63.0,0
1977,243.0,35.0,-60.0,0
1978,239.0,36.0,-68.0,0
1979,238.0,32.0,-59.0,0
1980,243.0,33.0,-76.0,0
1981,250.0,36.0,-56.0,0
1982,248.0,26.0,-47.0,0
1983,246.0,34.0,-44.0,0
1984,242.0,35.0,-61.0,0
1985,239.0,31.0,-58.0,0
1986,235.0,32.0,-60.0,0
1987,244.0,30.0,-60.0,0
1988,245.0,32.0,-60.0,0
1989,243.0,30.0,-63.0,0
1990,241.0,33.0,-62.0,0
1991,245.0,40.0,-60.0,0
1992,238.0,28.0,-55.0,0
1993,241.0,39.0,-54.0,0
1994,240.0,34.0,-57.0,0
1995,246.0,35.0,-56.0,0
1996,234.0,26.0,-52.0,0
1997,236.0,31.0,-56.0,0
1998,233.0,19.0,-56.0,0
1999,241.0,33.0,-61.0,0
2000,238.0,28.0,-60.0,0
2001,242.0,20.0,-51.0,0
2002,242.0,31.0,-62.0,0
2003,245.0,34.0,-59.0,0
2004,246.0,31.0,-60.0,0
2005,245.0,33.0,-60.0,0
2006,246.0,31.0,-56.0,0
2007,253.0,33.0,-57.0,0
2008,244.0,28.0,-61.0,0
2009,241.0,30.0,-62.0,0
2010,236.0,35.0,-48.0,0
2011,249.0,40.0,-67.0,0
2012,234.0,45.0,-64.0,0
2013,234.0,36.0,-50.0,0
2014,255.0,24.0,-47.0,0
2015,241.0,30.0,-78.0,0
2016,240.0,34.0,-60.0,0
2017,247.0,25.0,-58.0,0
2018,245.0,29.0,-63.0,0
2019,243.0,34.0,-55.0,0
2020,242.0,34.0,-60.0,0
2021,243.0,33.0,-62.0,0
2022,247.0,33.0,-57.0,0
2023,248.0,30.0,-61.0,0
2024,239.0,28.0,-62.0,0
2025,239.0,33.0,-63.0,0
2026,247.0,38.0,-56.0,0
2027,250.0,25.0,-53.0,0
2028,250.0,37.0,-57.0,0
2029,246.0,31.0,-56.0,0
2030,246.0,31.0,-60.0,0
2031,240.0,34.0,-66.0,0
2032,257.0,29.0,-62.0,0
2033,242.0,31.0,-61.0,0
2034,242.0,33.0,-62.0,0
2035,239.0,34.0,-61.0,0
2036,238.0,33.0,-56.0,0
2037,240.0,30.0,-62.0,0
2038,247.0,28.0,-50.0,0
2039,241.0,29.0,-56.0,0
2040,249.0,34.0,-58.0,0
2041,243.0,34.0,-62.0,0
2042,244.0,32.0,-63.0,0
2043,243.0,32.0,-59.0,0
2044,245.0,26.0,-62.0,0
2045,242.0,30.0,-62.0,0
2046,241.0,32.0,-62.0,0
2047,241.0,33.0,-61.0,0
2048,242.0,30.0,-63.0,0
2049,244.0,30.0,-60.0,0
2050,242.0,30.0,-63.0,0
2051,246.0,28.0,-67.0,0
2052,242.0,32.0,-61.0,0
2053,242.0,32.0,-61.0,0
2054,242.0,33.0,-64.0,0
2055,242.0,32.0,-62.0,0
2056,245.0,43.0,-54.0,0
2057,243.0,33.0,-61.0,0
2058,244.0,35.0,-63.0,0
2059,244.0,34.0,-59.0,0
2060,243.0,33.0,-61.0,0
2061,244.0,37.0,-38.0,0
2062,243.0,30.0,-61.0,0
2063,243.0,32.0,-59.0,0
2064,245.0,29.0,-61.0,0
2065,246.0,36.0,-56.0,0
2066,242.0,33.0,-61.0,0
2067,244.0,30.0,-56.0,0
2068,242.0,34.0,-60.0,0
2069,242.0,32.0,-56.0,0
2070,244.0,31.0,-61.0,0
2071,244.0,34.0,-62.0,0
2072,242.0,32.0,-60.0,0
2073,242.0,32.0,-59.0,0
2074,244.0,35.0,-61.0,0
2075,244.0,33.0,-60.0,0
2076,242.0,33.0,-60.0,0
2077,243.0,34.0,-60.0,0
2078,242.0,32.0,-58.0,0
2079,243.0,31.0,-59.0,0
2080,246.0,30.0,-61.0,0
2081,243.0,32.0,-58.0,0
2082,244.0,32.0,-58.0,0
2083,243.0,33.0,-59.0,0
2084,244.0,30.0,-58.0,0
2085,243.0,31.0,-63.0,0
2086,245.0,33.0,-59.0,0
2087,242.0,31.0,-64.0,0
2088,245.0,30.0,-61.0,0
2089,242.0,31.0,-58.0,0
2090,240.0,31.0,-60.0,0
2091,243.0,32.0,-64.0,0
2092,244.0,30.0,-62.0,0
2093,243.0,32.0,-63.0,0
2094,244.0,32.0,-63.0,0
2095,242.0,34.0,-59.0,0
2096,242.0,30.0,-63.0,0
2097,246.0,32.0,-58.0,0
2098,241.0,33.0,-61.0,0
2099,244.0,31.0,-61.0,0
2100,242.0,36.0,-61.0,0
2101,245.0,32.0,-58.0,0
2102,243.0,30.0,-61.0,0
2103,241.0,36.0,-57.0,0
2104,244.0,29.0,-62.0,0
2105,242.0,32.0,-60.0,0
2106,245.0,30.0,-63.0,0
2107,242.0,28.0,-63.0,0
2108,244.0,31.0,-60.0,0
2109,243.0,33.0,-57.0,0
2110,242.0,30.0,-58.0,0
2111,245.0,30.0,-59.0,0
2112,245.0,31.0,-62.0,0
2113,242.0,32.0,-62.0,0
2114,244.0,31.0,-64.0,0
2115,241.0,35.0,-60.0,0
2116,242.0,32.0,-61.0,0
2117,243.0,31.0,-59.0,0
2118,243.0,31.0,-57.0,0
2119,243.0,30.0,-60.0,0
2120,242.0,27.0,-60.0,0
2121,245.0,32.0,-58.0,0
2122,240.0,31.0,-60.0,0
2123,243.0,33.0,-61.0,0
2124,240.0,31.0,-59.0,0
2125,241.0,32.0,-62.0,0
2126,243.0,31.0,-59.0,0
2127,243.0,31.0,-60.0,0
2128,244.0,31.0,-61.0,0
2129,244.0,31.0,-56.0,0
2130,246.0,30.0,-60.0,0
2131,245.0,30.0,-57.0,0
2132,245.0,32.0,-57.0,0
2133,243.0,32.0,-61.0,0
2134,243.0,33.0,-60.0,0
2135,246.0,31.0,-57.0,0
2136,243.0,31.0,-59.0,0
2137,245.0,31.0,-60.0,0
2138,243.0,35.0,-60.0,0
2139,242.0,35.0,-61.0,0
2140,243.0,34.0,-61.0,0
2141,246.0,32.0,-62.0,0
2142,246.0,32.0,-61.0,0
2143,246.0,31.0,-63.0,0
2144,245.0,31.0,-58.0,0
2145,241.0,32.0,-58.0,0
2146,244.0,33.0,-60.0,0
2147,246.0,32.0,-59.0,0
2148,240.0,34.0,-59.0,0
2149,242.0,34.0,-58.0,0
2150,243.0,30.0,-59.0,0
2151,242.0,32.0,-63.0,0
2152,245.0,30.0,-60.0,0
2153,241.0,32.0,-58.0,0
2154,244.0,32.0,-62.0,0
2155,241.0,34.0,-61.0,0
2156,243.0,30.0,-56.0,0
2157,242.0,31.0,-59.0,0
2158,242.0,30.0,-62.0,0
2159,242.0,34.0,-61.0,0
2160,241.0,34.0,-58.0,0
2161,244.0,33.0,-59.0,0
2162,243.0,32.0,-61.0,0
2163,244.0,32.0,-60.0,0
2164,242.0,32.0,-59.0,0
2165,244.0,33.0,-61.0,0
2166,242.0,36.0,-58.0,0
2167,246.0,33.0,-58.0,0
2168,245.0,33.0,-61.0,0
2169,245.0,32.0,-59.0,0
2170,245.0,31.0,-57.0,0
2171,242.0,33.0,-61.0,0
2172,244.0,28.0,-58.0,0
2173,244.0,29.0,-58.0,0
2174,245.0,33.0,-59.0,0
2175,244.0,33.0,-62.0,0
2176,244.0,33.0,-58.0,0
2177,243.0,34.0,-61.0,0
2178,242.0,32.0,-62.0,0
2179,245.0,34.0,-57.0,0
2180,243.0,31.0,-58.0,0
2181,242.0,31.0,-61.0,0
2182,245.0,31.0,-59.0,0
2183,243.0,35.0,-60.0,0
2184,246.0,33.0,-60.0,0
2185,248.0,32.0,-57.0,0
2186,246.0,32.0,-56.0,0
2187,241.0,31.0,-61.0,0
2188,243.0,37.0,-59.0,0
2189,243.0,36.0,-60.0,0
2190,243.0,33.0,-58.0,0
2191,244.0,34.0,-58.0,0
2192,242.0,33.0,-57.0,0
2193,242.0,33.0,-60.0,0
2194,246.0,31.0,-59.0,0
2195,248.0,31.0,-57.0,0
2196,245.0,34.0,-61.0,0
2197,240.0,36.0,-62.0,0
2198,242.0,32.0,-57.0,0
2199,243.0,32.0,-59.0,0
2200,245.0,32.0,-58.0,0
2201,243.0,30.0,-58.0,0
2202,246.0,32.0,-59.0,0
2203,245.0,30.0,-61.0,0
2204,243.0,32.0,-63.0,0
2205,243.0,33.0,-59.0,0
2206,244.0,33.0,-56.0,0
2207,246.0,31.0,-62.0,0
2208,243.0,31.0,-61.0,0
2209,243.0,31.0,-60.0,0
2210,245.0,32.0,-56.0,0
2211,239.0,35.0,-57.0,0
2212,243.0,33.0,-62.0,0
2213,242.0,33.0,-60.0,0
2214,241.0,32.0,-59.0,0
2215,242.0,36.0,-58.0,0
2216,240.0,32.0,-59.0,0
2217,244.0,32.0,-59.0,0
2218,241.0,33.0,-61.0,0
2219,245.0,32.0,-59.0,0
2220,243.0,33.0,-58.0,0
2221,243.0,34.0,-59.0,0
2222,244.0,33.0,-60.0,0
2223,241.0,34.0,-55.0,0
2224,242.0,32.0,-59.0,0
2225,245.0,33.0,-57.0,0
2226,244.0,31.0,-57.0,0
2227,240.0,34.0,-61.0,0
2228,241.0,32.0,-57.0,0
2229,241.0,33.0,-61.0,0
2230,245.0,34.0,-58.0,0
2231,244.0,32.0,-60.0,0
2232,246.0,31.0,-61.0,0
2233,243.0,34.0,-62.0,0
2234,242.0,34.0,-60.0,0
2235,243.0,31.0,-61.0,0
2236,243.0,33.0,-61.0,0
2237,242.0,35.0,-59.0,0
2238,245.0,32.0,-57.0,0
2239,246.0,34.0,-56.0,0
2240,245.0,31.0,-58.0,0
2241,243.0,30.0,-56.0,0
2242,240.0,31.0,-59.0,0
2243,242.0,35.0,-61.0,0
2244,242.0,31.0,-57.0,0
2245,243.0,31.0,-55.0,0
2246,243.0,33.0,-58.0,0
2247,245.0,35.0,-62.0,0
2248,243.0,31.0,-60.0,0
2249,244.0,33.0,-57.0,0
2250,242.0,34.0,-60.0,0
2251,243.0,34.0,-62.0,0
2252,241.0,34.0,-59.0,0
2253,243.0,30.0,-58.0,0
2254,245.0,31.0,-60.0,0
2255,242.0,34.0,-57.0,0
2256,244.0,31.0,-62.0,0
2257,247.0,33.0,-57.0,0
2258,243.0,33.0,-60.0,0
2259,242.0,33.0,-59.0,0
2260,244.0,31.0,-60.0,0
2261,243.0,32.0,-58.0,0
2262,244.0,33.0,-61.0,0
2263,243.0,31.0,-58.0,0
2264,241.0,34.0,-58.0,0
2265,243.0,35.0,-59.0,0
2266,245.0,32.0,-62.0,0
2267,245.0,30.0,-61.0,0
2268,246.0,32.0,-59.0,0
2269,243.0,33.0,-58.0,0
2270,246.0,34.0,-59.0,0
2271,243.0,32.0,-59.0,0
2272,247.0,36.0,-54.0,0
2273,242.0,32.0,-58.0,0
2274,245.0,33.0,-58.0,0
2275,242.0,34.0,-55.0,0
2276,245.0,31.0,-58.0,0
2277,244.0,33.0,-59.0,0
2278,244.0,34.0,-63.0,0
2279,242.0,34.0,-58.0,0
2280,245.0,31.0,-60.0,0
2281,242.0,34.0,-58.0,0
2282,241.0,36.0,-59.0,0
2283,246.0,32.0,-59.0,0
2284,243.0,32.0,-62.0,0
2285,242.0,34.0,-60.0,0
2286,243.0,34.0,-60.0,0
2287,244.0,33.0,-57.0,0
2288,245.0,33.0,-58.0,0
2289,244.0,33.0,-61.0,0
2290,243.0,37.0,-57.0,0
2291,244.0,34.0,-60.0,0
2292,242.0,31.0,-61.0,0
2293,244.0,32.0,-56.0,0
2294,241.0,34.0,-57.0,0
2295,241.0,32.0,-60.0,0
2296,245.0,32.0,-59.0,0
2297,242.0,33.0,-58.0,0
2298,242.0,33.0,-57.0,0
2299,247.0,31.0,-56.0,0
2300,243.0,35.0,-56.0,0
2301,245.0,33.0,-57.0,0
2302,244.0,31.0,-59.0,0
2303,243.0,35.0,-61.0,0
2304,246.0,32.0,-57.0,0
2305,245.0,32.0,-60.0,0
2306,245.0,31.0,-58.0,0
2307,244.0,34.0,-53.0,0
2308,242.0,32.0,-61.0,0
2309,242.0,35.0,-59.0,0
2310,245.0,31.0,-58.0,0
2311,243.0,32.0,-60.0,0
2312,243.0,35.0,-61.0,0
2313,242.0,36.0,-59.0,0
2314,242.0,35.0,-57.0,0
2315,242.0,31.0,-56.0,0
2316,242.0,41.0,-57.0,0
2317,245.0,33.0,-60.0,0
2318,245.0,34.0,-55.0,0
2319,245.0,32.0,-60.0,0
2320,245.0,31.0,-57.0,0
2321,243.0,32.0,-59.0,0
2322,241.0,35.0,-56.0,0
2323,246.0,33.0,-62.0,0
2324,243.0,32.0,-58.0,0
2325,243.0,35.0,-61.0,0
2326,245.0,35.0,-59.0,0
2327,245.0,31.0,-56.0,0
2328,244.0,32.0,-57.0,0
2329,244.0,33.0,-59.0,0
2330,244.0,37.0,-62.0,0
2331,246.0,33.0,-60.0,0
2332,243.0,33.0,-57.0,0
2333,242.0,35.0,-58.0,0
2334,244.0,33.0,-61.0,0
2335,245.0,35.0,-60.0,0
2336,242.0,31.0,-61.0,0
2337,241.0,33.0,-58.0,0
2338,242.0,31.0,-55.0,0
2339,244.0,31.0,-59.0,0
2340,242.0,32.0,-57.0,0
2341,243.0,33.0,-56.0,0
2342,243.0,33.0,-59.0,0
2343,245.0,30.0,-57.0,0
2344,245.0,33.0,-61.0,0
2345,245.0,34.0,-58.0,0
2346,242.0,34.0,-58.0,0
2347,244.0,33.0,-57.0,0
2348,242.0,32.0,-61.0,0
2349,243.0,32.0,-60.0,0
2350,243.0,31.0,-58.0,0
2351,244.0,35.0,-57.0,0
2352,243.0,34.0,-56.0,0
2353,245.0,33.0,-58.0,0
2354,244.0,32.0,-59.0,0
2355,244.0,34.0,-54.0,0
2356,240.0,32.0,-57.0,0
2357,242.0,30.0,-59.0,0
2358,245.0,30.0,-58.0,0
2359,245.0,33.0,-58.0,0
2360,242.0,35.0,-58.0,0
2361,245.0,34.0,-58.0,0
2362,246.0,32.0,-60.0,0
2363,244.0,34.0,-58.0,0
2364,247.0,33.0,-63.0,0
2365,246.0,31.0,-60.0,0
2366,244.0,34.0,-61.0,0
2367,245.0,33.0,-60.0,0
2368,242.0,30.0,-58.0,0
2369,244.0,32.0,-59.0,0
2370,243.0,34.0,-54.0,0
2371,242.0,36.0,-57.0,0
2372,244.0,33.0,-57.0,0
2373,242.0,32.0,-57.0,0
2374,244.0,33.0,-57.0,0
2375,241.0,33.0,-58.0,0
2376,245.0,33.0,-58.0,0
2377,241.0,32.0,-58.0,0
2378,242.0,33.0,-57.0,0
2379,242.0,30.0,-59.0,0
2380,251.0,32.0,-61.0,0
2381,240.0,34.0,-58.0,0
2382,244.0,34.0,-57.0,0
2383,243.0,34.0,-58.0,0
2384,245.0,33.0,-59.0,0
2385,243.0,35.0,-60.0,0
2386,241.0,34.0,-59.0,0
2387,246.0,34.0,-57.0,0
2388,244.0,35.0,-57.0,0
2389,241.0,34.0,-55.0,0
2390,243.0,32.0,-58.0,0
2391,241.0,36.0,-59.0,0
2392,238.0,34.0,-59.0,0
2393,243.0,33.0,-55.0,0
2394,245.0,34.0,-57.0,0
2395,243.0,34.0,-59.0,0
2396,243.0,35.0,-61.0,0
2397,245.0,32.0,-56.0,0
2398,240.0,35.0,-58.0,0
2399,244.0,35.0,-59.0,0
2400,246.0,34.0,-60.0,0
2401,243.0,37.0,-57.0,0
2402,244.0,35.0,-59.0,0
2403,245.0,30.0,-61.0,0
2404,243.0,34.0,-58.0,0
2405,242.0,37.0,-59.0,0
2406,242.0,34.0,-57.0,0
2407,243.0,38.0,-59.0,0
2408,241.0,36.0,-60.0,0
2409,242.0,33.0,-59.0,0
2410,242.0,33.0,-58.0,0
2411,243.0,32.0,-60.0,0
2412,246.0,28.0,-57.0,0
2413,243.0,37.0,-58.0,0
2414,242.0,36.0,-59.0,0
2415,243.0,34.0,-58.0,0
2416,243.0,35.0,-57.0,0
2417,246.0,34.0,-57.0,0
2418,243.0,34.0,-57.0,0
2419,242.0,36.0,-59.0,0
2420,242.0,31.0,-57.0,0
2421,242.0,31.0,-61.0,0
2422,244.0,31.0,-58.0,0
2423,246.0,31.0,-57.0,0
2424,243.0,35.0,-58.0,0
2425,242.0,32.0,-58.0,0
2426,244.0,33.0,-59.0,0
2427,243.0,31.0,-58.0,0
2428,242.0,35.0,-56.0,0
2429,246.0,32.0,-57.0,0
2430,240.0,35.0,-55.0,0
2431,242.0,37.0,-57.0,0
2432,247.0,34.0,-58.0,0
2433,243.0,30.0,-59.0,0
2434,242.0,32.0,-55.0,0
2435,243.0,31.0,-58.0,0
2436,242.0,34.0,-55.0,0
2437,246.0,33.0,-57.0,0
2438,244.0,32.0,-58.0,0
2439,242.0,34.0,-58.0,0
2440,242.0,35.0,-57.0,0
2441,245.0,36.0,-55.0,0
2442,244.0,33.0,-59.0,0
2443,242.0,35.0,-58.0,0
2444,243.0,32.0,-58.0,0
2445,244.0,38.0,-57.0,0
2446,243.0,31.0,-57.0,0
2447,241.0,33.0,-54.0,0
2448,241.0,34.0,-58.0,0
2449,243.0,35.0,-58.0,0
2450,245.0,36.0,-56.0,0
2451,244.0,33.0,-58.0,0
2452,245.0,35.0,-53.0,0
2453,241.0,35.0,-60.0,0
2454,243.0,31.0,-57.0,0
2455,244.0,32.0,-55.0,0
2456,244.0,30.0,-57.0,0
2457,243.0,36.0,-60.0,0
2458,244.0,34.0,-62.0,0
2459,242.0,32.0,-55.0,0
2460,247.0,32.0,-57.0,0
2461,244.0,33.0,-56.0,0
2462,244.0,32.0,-57.0,0
2463,242.0,33.0,-59.0,0
2464,246.0,33.0,-57.0,0
2465,244.0,34.0,-55.0,0
2466,242.0,36.0,-60.0,0
2467,243.0,33.0,-58.0,0
2468,244.0,34.0,-62.0,0
2469,243.0,32.0,-56.0,0
2470,242.0,35.0,-59.0,0
2471,245.0,32.0,-56.0,0
2472,244.0,36.0,-61.0,0
2473,246.0,33.0,-56.0,0
2474,244.0,35.0,-57.0,0
2475,243.0,35.0,-54.0,0
2476,243.0,34.0,-56.0,0
2477,243.0,34.0,-57.0,0
2478,244.0,33.0,-56.0,0
2479,244.0,30.0,-55.0,0
2480,243.0,34.0,-56.0,0
2481,245.0,35.0,-57.0,0
2482,243.0,34.0,-56.0,0
2483,246.0,30.0,-55.0,0
2484,244.0,34.0,-54.0,0
2485,244.0,32.0,-55.0,0
2486,245.0,31.0,-56.0,0
2487,242.0,32.0,-62.0,0
2488,244.0,33.0,-62.0,0
2489,243.0,32.0,-57.0,0
2490,246.0,33.0,-58.0,0
2491,242.0,33.0,-57.0,0
2492,244.0,32.0,-55.0,0
2493,246.0,33.0,-55.0,0
2494,243.0,32.0,-57.0,0
2495,244.0,36.0,-58.0,0
2496,244.0,33.0,-59.0,0
2497,245.0,33.0,-56.0,0
2498,244.0,33.0,-57.0,0
2499,242.0,39.0,-57.0,0
2500,247.0,35.0,-59.0,0
2501,247.0,33.0,-56.0,0
2502,244.0,36.0,-60.0,0
2503,245.0,34.0,-60.0,0
2504,244.0,34.0,-58.0,0
2505,244.0,34.0,-52.0,0
2506,242.0,31.0,-55.0,0
2507,246.0,31.0,-56.0,0
2508,241.0,34.0,-55.0,0
2509,242.0,33.0,-53.0,0
2510,242.0,34.0,-56.0,0
2511,247.0,40.0,-57.0,0
2512,245.0,34.0,-58.0,0
2513,244.0,34.0,-55.0,0
2514,244.0,35.0,-58.0,0
2515,244.0,35.0,-59.0,0
2516,242.0,33.0,-58.0,0
2517,245.0,33.0,-56.0,0
2518,246.0,37.0,-56.0,0
2519,244.0,35.0,-54.0,0
2520,245.0,33.0,-53.0,0
2521,244.0,33.0,-57.0,0
2522,242.0,33.0,-55.0,0
2523,246.0,33.0,-59.0,0
2524,244.0,32.0,-57.0,0
2525,246.0,35.0,-55.0,0
2526,245.0,35.0,-60.0,0
2527,244.0,34.0,-56.0,0
2528,246.0,37.0,-58.0,0
2529,244.0,36.0,-54.0,0
2530,244.0,33.0,-55.0,0
2531,246.0,35.0,-55.0,0
2532,248.0,36.0,-53.0,0
2533,243.0,32.0,-56.0,0
2534,243.0,35.0,-44.0,0
2535,245.0,32.0,-52.0,0
2536,243.0,37.0,-53.0,0
2537,242.0,32.0,-55.0,0
2538,242.0,34.0,-56.0,0
2539,244.0,30.0,-57.0,0
2540,245.0,34.0,-57.0,0
2541,244.0,32.0,-56.0,0
2542,244.0,34.0,-58.0,0
2543,242.0,34.0,-57.0,0
2544,245.0,32.0,-59.0,0
2545,245.0,35.0,-56.0,0
2546,245.0,34.0,-55.0,0
2547,241.0,34.0,-55.0,0
2548,242.0,34.0,-57.0,0
2549,245.0,34.0,-57.0,0
2550,245.0,31.0,-56.0,0
2551,245.0,32.0,-56.0,0
2552,243.0,33.0,-54.0,0
2553,242.0,35.0,-58.0,0
2554,246.0,33.0,-58.0,0
2555,244.0,32.0,-54.0,0
2556,240.0,35.0,-54.0,0
2557,244.0,32.0,-57.0,0
2558,243.0,32.0,-55.0,0
2559,243.0,34.0,-55.0,0
2560,244.0,34.0,-55.0,0
2561,241.0,36.0,-53.0,0
2562,246.0,33.0,-56.0,0
2563,242.0,34.0,-55.0,0
2564,244.0,34.0,-57.0,0
2565,244.0,34.0,-54.0,0
2566,246.0,35.0,-56.0,0
2567,241.0,37.0,-58.0,0
2568,243.0,34.0,-57.0,0
2569,245.0,33.0,-54.0,0
2570,245.0,35.0,-58.0,0
2571,243.0,32.0,-57.0,0
2572,242.0,35.0,-52.0,0
2573,247.0,32.0,-53.0,0
2574,244.0,37.0,-55.0,0
2575,245.0,34.0,-56.0,0
2576,242.0,36.0,-56.0,0
2577,240.0,39.0,-53.0,0
2578,247.0,34.0,-56.0,0
2579,243.0,33.0,-53.0,0
2580,243.0,38.0,-57.0,0
2581,245.0,34.0,-56.0,0
2582,249.0,36.0,-56.0,0
2583,247.0,33.0,-54.0,0
2584,245.0,32.0,-56.0,0
2585,246.0,32.0,-55.0,0
2586,244.0,33.0,-54.0,0
2587,245.0,33.0,-55.0,0
2588,244.0,33.0,-56.0,0
2589,244.0,33.0,-59.0,0
2590,246.0,36.0,-60.0,0
2591,245.0,33.0,-56.0,0
2592,245.0,31.0,-57.0,0
2593,243.0,35.0,-55.0,0
2594,244.0,33.0,-55.0,0
2595,246.0,35.0,-57.0,0
2596,246.0,36.0,-58.0,0
2597,249.0,34.0,-53.0,0
2598,247.0,33.0,-52.0,0
2599,244.0,35.0,-51.0,0
2600,245.0,33.0,-59.0,0
2601,246.0,35.0,-56.0,0
2602,243.0,33.0,-56.0,0
2603,247.0,38.0,-56.0,0
2604,243.0,35.0,-55.0,0
2605,244.0,34.0,-53.0,0
2606,245.0,36.0,-58.0,0
2607,244.0,34.0,-55.0,0
2608,243.0,32.0,-53.0,0
2609,244.0,33.0,-58.0,0
2610,246.0,35.0,-54.0,0
2611,241.0,34.0,-59.0,0
2612,243.0,37.0,-57.0,0
2613,243.0,34.0,-54.0,0
2614,244.0,32.0,-57.0,0
2615,244.0,34.0,-51.0,0
2616,243.0,35.0,-57.0,0
2617,244.0,33.0,-54.0,0
2618,244.0,36.0,-55.0,0
2619,243.0,36.0,-55.0,0
2620,247.0,34.0,-58.0,0
2621,245.0,31.0,-56.0,0
2622,246.0,35.0,-56.0,0
2623,244.0,34.0,-56.0,0
2624,243.0,32.0,-59.0,0
2625,242.0,33.0,-60.0,0
2626,245.0,31.0,-56.0,0
2627,244.0,32.0,-53.0,0
2628,245.0,33.0,-59.0,0
2629,243.0,32.0,-57.0,0
2630,247.0,34.0,-56.0,0
2631,242.0,36.0,-59.0,0
2632,243.0,37.0,-55.0,0
2633,245.0,35.0,-53.0,0
2634,245.0,35.0,-56.0,0
2635,247.0,33.0,-56.0,0
2636,244.0,35.0,-57.0,0
2637,246.0,33.0,-54.0,0
2638,246.0,35.0,-52.0,0
2639,242.0,30.0,-55.0,0
2640,248.0,33.0,-55.0,0
2641,243.0,32.0,-55.0,0
2642,240.0,33.0,-46.0,0
2643,245.0,31.0,-59.0,0
2644,245.0,35.0,-54.0,0
2645,245.0,35.0,-55.0,0
2646,245.0,30.0,-55.0,0
2647,243.0,36.0,-54.0,0
2648,244.0,37.0,-52.0,0
2649,243.0,34.0,-54.0,0
2650,243.0,36.0,-52.0,0
2651,242.0,37.0,-50.0,0
2652,244.0,36.0,-52.0,0
2653,243.0,34.0,-55.0,0
2654,243.0,34.0,-55.0,0
2655,243.0,36.0,-51.0,0
2656,244.0,36.0,-56.0,0
2657,245.0,36.0,-56.0,0
2658,241.0,34.0,-54.0,0
2659,245.0,35.0,-59.0,0
2660,245.0,34.0,-52.0,0
2661,243.0,35.0,-54.0,0
2662,246.0,36.0,-51.0,0
2663,244.0,36.0,-52.0,0
2664,245.0,33.0,-55.0,0
2665,243.0,29.0,-53.0,0
2666,243.0,35.0,-55.0,0
2667,245.0,35.0,-55.0,0
2668,245.0,36.0,-52.0,0
2669,245.0,34.0,-51.0,0
2670,244.0,35.0,-51.0,0
2671,245.0,34.0,-55.0,0
2672,246.0,37.0,-54.0,0
2673,246.0,35.0,-52.0,0
2674,246.0,33.0,-53.0,0
2675,243.0,31.0,-55.0,0
2676,243.0,33.0,-55.0,0
2677,243.0,33.0,-54.0,0
2678,242.0,36.0,-57.0,0
2679,243.0,37.0,-56.0,0
2680,244.0,33.0,-55.0,0
2681,243.0,33.0,-57.0,0
2682,242.0,33.0,-52.0,0
2683,246.0,31.0,-57.0,0
2684,244.0,34.0,-57.0,0
2685,242.0,31.0,-56.0,0
2686,246.0,29.0,-63.0,0
2687,243.0,37.0,-55.0,0
2688,245.0,31.0,-55.0,0
2689,243.0,34.0,-56.0,0
2690,247.0,32.0,-53.0,0
2691,245.0,30.0,-56.0,0
2692,245.0,30.0,-56.0,0
2693,244.0,31.0,-55.0,0
2694,244.0,30.0,-53.0,0
2695,246.0,33.0,-55.0,0
2696,248.0,42.0,-51.0,0
2697,244.0,35.0,-55.0,0
2698,245.0,37.0,-54.0,0
2699,245.0,33.0,-52.0,0
2700,243.0,31.0,-51.0,0
2701,246.0,31.0,-52.0,0
2702,247.0,35.0,-55.0,0
2703,242.0,35.0,-59.0,0
2704,241.0,38.0,-55.0,0
2705,244.0,35.0,-55.0,0
2706,244.0,33.0,-52.0,0
2707,245.0,34.0,-56.0,0
2708,240.0,34.0,-56.0,0
2709,242.0,37.0,-58.0,0
2710,245.0,34.0,-56.0,0
2711,246.0,35.0,-54.0,0
2712,244.0,35.0,-55.0,0
2713,245.0,37.0,-53.0,0
2714,243.0,37.0,-56.0,0
2715,242.0,35.0,-53.0,0
2716,243.0,34.0,-54.0,0
2717,242.0,34.0,-56.0,0
2718,244.0,37.0,-54.0,0
2719,244.0,37.0,-54.0,0
2720,243.0,33.0,-55.0,0
2721,245.0,34.0,-53.0,0
2722,243.0,37.0,-54.0,0
2723,246.0,34.0,-52.0,0
2724,246.0,31.0,-53.0,0
2725,244.0,35.0,-53.0,0
2726,245.0,37.0,-52.0,0
2727,246.0,34.0,-55.0,0
2728,245.0,32.0,-54.0,0
2729,244.0,35.0,-53.0,0
2730,249.0,37.0,-52.0,0
2731,246.0,33.0,-55.0,0
2732,243.0,36.0,-54.0,0
2733,245.0,36.0,-55.0,0
2734,243.0,30.0,-50.0,0
2735,244.0,33.0,-54.0,0
2736,244.0,34.0,-55.0,0
2737,246.0,35.0,-56.0,0
2738,243.0,34.0,-54.0,0
2739,243.0,34.0,-59.0,0
2740,245.0,31.0,-54.0,0
2741,244.0,33.0,-58.0,0
2742,244.0,33.0,-58.0,0
2743,246.0,33.0,-57.0,0
2744,243.0,32.0,-55.0,0
2745,245.0,35.0,-56.0,0
2746,244.0,34.0,-55.0,0
2747,243.0,32.0,-54.0,0
2748,244.0,32.0,-54.0,0
2749,245.0,37.0,-51.0,0
2750,243.0,33.0,-54.0,0
2751,244.0,32.0,-55.0,0
2752,244.0,34.0,-52.0,0
2753,245.0,33.0,-50.0,0
2754,241.0,34.0,-55.0,0
2755,243.0,33.0,-53.0,0
2756,243.0,36.0,-52.0,0
2757,246.0,34.0,-52.0,0
2758,244.0,33.0,-55.0,0
2759,247.0,32.0,-51.0,0
2760,244.0,36.0,-51.0,0
2761,246.0,35.0,-51.0,0
2762,247.0,35.0,-51.0,0
2763,243.0,36.0,-56.0,0
2764,244.0,35.0,-54.0,0
2765,243.0,35.0,-53.0,0
2766,245.0,34.0,-55.0,0
2767,248.0,34.0,-53.0,0
2768,245.0,32.0,-57.0,0
2769,245.0,33.0,-49.0,0
2770,246.0,32.0,-59.0,0
2771,244.0,32.0,-51.0,0
2772,246.0,35.0,-53.0,0
2773,249.0,31.0,-54.0,0
2774,248.0,33.0,-52.0,0
2775,246.0,33.0,-58.0,0
2776,243.0,36.0,-53.0,0
2777,243.0,34.0,-54.0,0
2778,245.0,35.0,-56.0,0
2779,246.0,34.0,-53.0,0
2780,245.0,35.0,-54.0,0
2781,246.0,36.0,-55.0,0
2782,243.0,36.0,-48.0,0
2783,244.0,34.0,-55.0,0
2784,246.0,36.0,-55.0,0
2785,245.0,33.0,-51.0,0
2786,242.0,33.0,-54.0,0
2787,242.0,36.0,-56.0,0
2788,245.0,33.0,-55.0,0
2789,244.0,28.0,-56.0,0
2790,242.0,34.0,-55.0,0
2791,247.0,34.0,-56.0,0
2792,245.0,34.0,-50.0,0
2793,245.0,35.0,-54.0,0
2794,243.0,35.0,-60.0,0
2795,252.0,41.0,-54.0,0
2796,246.0,31.0,-54.0,0
2797,244.0,35.0,-55.0,0
2798,243.0,32.0,-55.0,0
2799,245.0,35.0,-55.0,0
2800,246.0,32.0,-54.0,0
2801,245.0,36.0,-55.0,0
2802,245.0,33.0,-54.0,0
2803,243.0,34.0,-52.0,0
2804,244.0,32.0,-52.0,0
2805,248.0,33.0,-54.0,0
2806,246.0,35.0,-54.0,0
2807,242.0,34.0,-57.0,0
2808,244.0,34.0,-55.0,0
2809,245.0,36.0,-55.0,0
2810,244.0,32.0,-52.0,0
2811,242.0,34.0,-52.0,0
2812,245.0,35.0,-52.0,0
2813,246.0,35.0,-55.0,0
2814,242.0,34.0,-51.0,0
2815,244.0,31.0,-52.0,0
2816,245.0,35.0,-53.0,0
2817,246.0,34.0,-49.0,0
2818,245.0,36.0,-50.0,0
2819,244.0,35.0,-52.0,0
2820,245.0,34.0,-52.0,0
2821,246.0,36.0,-53.0,0
2822,245.0,32.0,-52.0,0
2823,244.0,35.0,-53.0,0
2824,247.0,31.0,-53.0,0
2825,245.0,34.0,-50.0,0
2826,248.0,35.0,-53.0,0
2827,247.0,33.0,-58.0,0
2828,243.0,35.0,-55.0,0
2829,243.0,33.0,-54.0,0
2830,240.0,36.0,-57.0,0
2831,246.0,35.0,-57.0,0
2832,246.0,32.0,-56.0,0
2833,245.0,32.0,-54.0,0
2834,247.0,33.0,-56.0,0
2835,246.0,36.0,-53.0,0
2836,245.0,33.0,-54.0,0
2837,245.0,35.0,-55.0,0
2838,243.0,37.0,-51.0,0
2839,243.0,35.0,-53.0,0
2840,245.0,34.0,-49.0,0
2841,245.0,36.0,-48.0,0
2842,246.0,36.0,-53.0,0
2843,243.0,33.0,-56.0,0
2844,246.0,34.0,-52.0,0
2845,244.0,34.0,-52.0,0
2846,245.0,34.0,-53.0,0
2847,244.0,35.0,-58.0,0
2848,246.0,34.0,-56.0,0
2849,246.0,33.0,-49.0,0
2850,244.0,33.0,-57.0,0
2851,245.0,33.0,-56.0,0
2852,244.0,34.0,-53.0,0
2853,244.0,36.0,-54.0,0
2854,247.0,37.0,-56.0,0
2855,244.0,34.0,-53.0,0
2856,243.0,33.0,-56.0,0
2857,242.0,34.0,-52.0,0
2858,243.0,35.0,-55.0,0
2859,242.0,37.0,-52.0,0
2860,244.0,35.0,-54.0,0
2861,243.0,36.0,-52.0,0
2862,246.0,35.0,-54.0,0
2863,244.0,35.0,-51.0,0
2864,245.0,35.0,-58.0,0
2865,244.0,34.0,-53.0,0
2866,245.0,34.0,-58.0,0
2867,245.0,33.0,-53.0,0
2868,244.0,35.0,-53.0,0
2869,244.0,35.0,-53.0,0
2870,242.0,35.0,-52.0,0
2871,244.0,36.0,-58.0,0
2872,245.0,36.0,-50.0,0
2873,244.0,34.0,-54.0,0
2874,245.0,34.0,-53.0,0
2875,244.0,36.0,-58.0,0
2876,244.0,34.0,-57.0,0
2877,248.0,36.0,-52.0,0
2878,246.0,34.0,-56.0,0
2879,243.0,34.0,-52.0,0
2880,248.0,32.0,-51.0,0
2881,245.0,34.0,-56.0,0
2882,244.0,36.0,-52.0,0
2883,242.0,33.0,-54.0,0
2884,247.0,35.0,-55.0,0
2885,245.0,33.0,-49.0,0
2886,246.0,35.0,-51.0,0
2887,242.0,34.0,-55.0,0
2888,244.0,36.0,-51.0,0
2889,246.0,34.0,-53.0,0
2890,244.0,33.0,-54.0,0
2891,243.0,37.0,-54.0,0
2892,243.0,37.0,-55.0,0
2893,257.0,33.0,-54.0,0
2894,246.0,36.0,-56.0,0
2895,245.0,33.0,-54.0,0
2896,242.0,35.0,-57.0,0
2897,247.0,35.0,-56.0,0
2898,246.0,37.0,-54.0,0
2899,245.0,35.0,-52.0,0
2900,245.0,35.0,-50.0,0
2901,245.0,37.0,-53.0,0
2902,242.0,36.0,-56.0,0
2903,242.0,34.0,-52.0,0
2904,243.0,33.0,-50.0,0
2905,241.0,36.0,-58.0,0
2906,244.0,35.0,-55.0,0
2907,243.0,36.0,-53.0,0
2908,244.0,31.0,-55.0,0
2909,243.0,35.0,-56.0,0
2910,244.0,35.0,-56.0,0
2911,243.0,35.0,-51.0,0
2912,245.0,33.0,-52.0,0
2913,245.0,35.0,-52.0,0
2914,242.0,34.0,-54.0,0
2915,247.0,35.0,-53.0,0
2916,247.0,38.0,-51.0,0
2917,245.0,35.0,-49.0,0
2918,245.0,34.0,-54.0,0
2919,245.0,35.0,-52.0,0
2920,245.0,37.0,-55.0,0
2921,243.0,35.0,-55.0,0
2922,245.0,34.0,-55.0,0
2923,245.0,35.0,-58.0,0
2924,245.0,34.0,-55.0,0
2925,244.0,38.0,-50.0,0
2926,247.0,40.0,-51.0,0
2927,243.0,37.0,-54.0,0
2928,247.0,33.0,-55.0,0
2929,244.0,35.0,-52.0,0
2930,242.0,38.0,-58.0,0
2931,244.0,34.0,-54.0,0
2932,245.0,33.0,-56.0,0
2933,246.0,35.0,-53.0,0
2934,245.0,32.0,-53.0,0
2935,246.0,33.0,-54.0,0
2936,248.0,33.0,-57.0,0
2937,245.0,36.0,-52.0,0
2938,243.0,35.0,-58.0,0
2939,244.0,34.0,-57.0,0
2940,247.0,35.0,-56.0,0
2941,245.0,34.0,-52.0,0
2942,244.0,31.0,-55.0,0
2943,243.0,34.0,-53.0,0
2944,246.0,37.0,-54.0,0
2945,245.0,33.0,-52.0,0
2946,243.0,37.0,-54.0,0
2947,242.0,31.0,-51.0,0
2948,248.0,36.0,-48.0,0
2949,245.0,33.0,-52.0,0
2950,247.0,30.0,-51.0,0
2951,243.0,34.0,-55.0,0
2952,244.0,34.0,-53.0,0
2953,244.0,31.0,-54.0,0
2954,247.0,33.0,-51.0,0
2955,246.0,31.0,-56.0,0
2956,245.0,34.0,-58.0,0
2957,246.0,35.0,-53.0,0
2958,246.0,33.0,-54.0,0
2959,243.0,36.0,-52.0,0
2960,243.0,35.0,-53.0,0
2961,243.0,38.0,-50.0,0
2962,246.0,36.0,-54.0,0
2963,244.0,37.0,-56.0,0
2964,243.0,39.0,-52.0,0
2965,243.0,36.0,-51.0,0
2966,246.0,36.0,-55.0,0
2967,243.0,36.0,-51.0,0
2968,244.0,35.0,-52.0,0
2969,247.0,39.0,-54.0,0
2970,245.0,41.0,-48.0,0
2971,242.0,38.0,-49.0,0
2972,244.0,37.0,-51.0,0
2973,246.0,35.0,-55.0,0
2974,242.0,37.0,-52.0,0
2975,246.0,35.0,-54.0,0
2976,245.0,35.0,-56.0,0
2977,246.0,36.0,-52.0,0
2978,246.0,35.0,-55.0,0
2979,247.0,34.0,-53.0,0
2980,245.0,35.0,-50.0,0
2981,243.0,35.0,-56.0,0
2982,245.0,33.0,-56.0,0
2983,243.0,34.0,-56.0,0
2984,244.0,34.0,-51.0,0
2985,246.0,33.0,-57.0,0
2986,245.0,37.0,-52.0,0
2987,247.0,34.0,-53.0,0
2988,246.0,32.0,-52.0,0
2989,245.0,34.0,-54.0,0
2990,244.0,34.0,-53.0,0
2991,244.0,33.0,-56.0,0
2992,246.0,36.0,-51.0,0
2993,245.0,33.0,-51.0,0
2994,245.0,30.0,-54.0,0
2995,246.0,34.0,-54.0,0
2996,245.0,37.0,-53.0,0
2997,243.0,32.0,-57.0,0
2998,248.0,34.0,-53.0,0
2999,243.0,37.0,-56.0,0
