,accelerometer_x,accelerometer_y,accelerometer_z,fall
0,-6.0,-216.0,128.0,0
1,-2.0,-219.0,133.0,0
2,-6.0,-218.0,133.0,0
3,-3.0,-218.0,128.0,0
4,-3.0,-219.0,133.0,0
5,-7.0,-216.0,131.0,0
6,-3.0,-217.0,132.0,0
7,-2.0,-222.0,135.0,0
8,-3.0,-218.0,130.0,0
9,-5.0,-217.0,129.0,0
10,-3.0,-218.0,130.0,0
11,-3.0,-217.0,130.0,0
12,-3.0,-218.0,133.0,0
13,-7.0,-215.0,129.0,0
14,-5.0,-218.0,133.0,0
15,-4.0,-218.0,131.0,0
16,-4.0,-217.0,133.0,0
17,-4.0,-218.0,131.0,0
18,-4.0,-216.0,133.0,0
19,-4.0,-214.0,132.0,0
20,-7.0,-213.0,134.0,0
21,-4.0,-218.0,131.0,0
22,-4.0,-216.0,129.0,0
23,-4.0,-219.0,134.0,0
24,-4.0,-216.0,130.0,0
25,-3.0,-222.0,133.0,0
26,-3.0,-216.0,136.0,0
27,-5.0,-216.0,129.0,0
28,-4.0,-216.0,134.0,0
29,-4.0,-216.0,133.0,0
30,-3.0,-217.0,129.0,0
31,-6.0,-219.0,135.0,0
32,-5.0,-218.0,135.0,0
33,-4.0,-219.0,135.0,0
34,-4.0,-220.0,133.0,0
35,-6.0,-215.0,134.0,0
36,-5.0,-215.0,130.0,0
37,-4.0,-216.0,133.0,0
38,-5.0,-215.0,131.0,0
39,-4.0,-217.0,133.0,0
40,0.0,-216.0,134.0,0
41,-4.0,-217.0,136.0,0
42,-3.0,-214.0,132.0,0
43,-4.0,-217.0,134.0,0
44,-4.0,-216.0,135.0,0
45,-5.0,-216.0,136.0,0
46,-7.0,-216.0,135.0,0
47,-4.0,-217.0,136.0,0
48,-3.0,-220.0,136.0,0
49,-4.0,-218.0,134.0,0
50,-6.0,-215.0,134.0,0
51,-6.0,-215.0,134.0,0
52,-4.0,-216.0,130.0,0
53,-5.0,-216.0,134.0,0
54,-4.0,-217.0,132.0,0
55,-4.0,-218.0,135.0,0
56,-6.0,-215.0,132.0,0
57,-6.0,-216.0,131.0,0
58,-4.0,-218.0,134.0,0
59,-3.0,-219.0,133.0,0
60,-4.0,-219.0,134.0,0
61,-4.0,-224.0,132.0,0
62,-4.0,-221.0,133.0,0
63,-4.0,-215.0,133.0,0
64,-6.0,-222.0,132.0,0
65,-5.0,-218.0,132.0,0
66,-3.0,-219.0,133.0,0
67,-7.0,-220.0,133.0,0
68,-4.0,-217.0,128.0,0
69,-8.0,-216.0,134.0,0
70,-4.0,-217.0,125.0,0
71,-5.0,-215.0,130.0,0
72,-5.0,-217.0,127.0,0
73,-9.0,-216.0,130.0,0
74,-6.0,-214.0,128.0,0
75,-2.0,-219.0,132.0,0
76,-2.0,-216.0,131.0,0
77,-6.0,-217.0,135.0,0
78,-3.0,-215.0,130.0,0
79,-2.0,-219.0,133.0,0
80,-3.0,-220.0,128.0,0
81,-3.0,-219.0,128.0,0
82,-4.0,-220.0,132.0,0
83,-4.0,-217.0,133.0,0
84,-4.0,-220.0,132.0,0
85,-4.0,-219.0,132.0,0
86,-4.0,-220.0,133.0,0
87,-3.0,-221.0,133.0,0
88,-4.0,-221.0,131.0,0
89,-5.0,-221.0,131.0,0
90,-6.0,-221.0,128.0,0
91,-6.0,-220.0,128.0,0
92,-7.0,-218.0,129.0,0
93,-4.0,-215.0,129.0,0
94,-4.0,-213.0,128.0,0
95,-6.0,-213.0,131.0,0
96,-4.0,-217.0,135.0,0
97,-7.0,-215.0,135.0,0
98,-4.0,-216.0,133.0,0
99,-8.0,-216.0,131.0,0
100,-4.0,-216.0,130.0,0
101,-5.0,-216.0,135.0,0
102,-4.0,-215.0,136.0,0
103,-4.0,-214.0,134.0,0
104,-4.0,-213.0,135.0,0
105,-4.0,-217.0,137.0,0
106,-6.0,-217.0,134.0,0
107,-4.0,-213.0,135.0,0
108,-4.0,-216.0,135.0,0
109,-3.0,-218.0,135.0,0
110,-3.0,-214.0,133.0,0
111,-4.0,-214.0,136.0,0
112,-6.0,-215.0,135.0,0
113,-4.0,-217.0,134.0,0
114,-4.0,-215.0,135.0,0
115,-3.0,-215.0,135.0,0
116,-5.0,-215.0,135.0,0
117,-7.0,-216.0,136.0,0
118,-5.0,-215.0,136.0,0
119,-5.0,-219.0,136.0,0
120,-6.0,-215.0,130.0,0
121,-4.0,-217.0,133.0,0
122,-6.0,-219.0,133.0,0
123,-4.0,-219.0,134.0,0
124,-4.0,-218.0,132.0,0
125,-6.0,-217.0,135.0,0
126,-5.0,-220.0,133.0,0
127,-2.0,-216.0,135.0,0
128,-7.0,-215.0,134.0,0
129,-4.0,-217.0,133.0,0
130,-7.0,-217.0,133.0,0
131,-6.0,-218.0,131.0,0
132,-4.0,-216.0,130.0,0
133,-5.0,-218.0,128.0,0
134,-4.0,-214.0,131.0,0
135,-4.0,-217.0,131.0,0
136,-5.0,-218.0,130.0,0
137,-4.0,-213.0,129.0,0
138,-4.0,-216.0,134.0,0
139,-4.0,-217.0,132.0,0
140,-4.0,-216.0,127.0,0
141,-4.0,-217.0,131.0,0
142,-2.0,-220.0,134.0,0
143,-4.0,-217.0,131.0,0
144,-5.0,-218.0,133.0,0
145,-5.0,-222.0,133.0,0
146,-5.0,-218.0,132.0,0
147,-4.0,-222.0,131.0,0
148,-5.0,-220.0,131.0,0
149,-4.0,-215.0,132.0,0
150,-5.0,-219.0,132.0,0
151,-7.0,-218.0,132.0,0
152,-4.0,-221.0,133.0,0
153,-6.0,-220.0,134.0,0
154,-3.0,-217.0,136.0,0
155,-5.0,-219.0,134.0,0
156,-4.0,-216.0,132.0,0
157,-5.0,-218.0,135.0,0
158,-6.0,-218.0,133.0,0
159,-4.0,-218.0,136.0,0
160,-4.0,-216.0,134.0,0
161,-5.0,-217.0,133.0,0
162,-4.0,-215.0,135.0,0
163,-6.0,-216.0,135.0,0
164,-4.0,-215.0,132.0,0
165,-4.0,-216.0,133.0,0
166,-3.0,-217.0,132.0,0
167,-4.0,-214.0,131.0,0
168,-5.0,-216.0,134.0,0
169,-4.0,-215.0,132.0,0
170,-4.0,-215.0,133.0,0
171,-4.0,-218.0,132.0,0
172,-6.0,-213.0,132.0,0
173,-4.0,-217.0,135.0,0
174,-5.0,-215.0,130.0,0
175,-4.0,-213.0,134.0,0
176,-4.0,-218.0,131.0,0
177,-4.0,-217.0,130.0,0
178,-7.0,-214.0,132.0,0
179,-6.0,-219.0,133.0,0
180,-4.0,-216.0,137.0,0
181,-6.0,-218.0,135.0,0
182,-4.0,-217.0,130.0,0
183,-4.0,-217.0,129.0,0
184,-5.0,-219.0,133.0,0
185,-6.0,-219.0,132.0,0
186,-4.0,-217.0,132.0,0
187,-5.0,-220.0,135.0,0
188,-4.0,-219.0,131.0,0
189,-4.0,-219.0,135.0,0
190,-4.0,-215.0,132.0,0
191,0.0,-219.0,131.0,0
192,-4.0,-216.0,133.0,0
193,-1.0,-216.0,131.0,0
194,-3.0,-215.0,132.0,0
195,-4.0,-216.0,133.0,0
196,-3.0,-216.0,129.0,0
197,-4.0,-218.0,133.0,0
198,-6.0,-216.0,133.0,0
199,-4.0,-216.0,131.0,0
200,-2.0,-221.0,132.0,0
201,-5.0,-218.0,133.0,0
202,-6.0,-216.0,132.0,0
203,-5.0,-216.0,129.0,0
204,-4.0,-217.0,130.0,0
205,-4.0,-216.0,130.0,0
206,-3.0,-220.0,133.0,0
207,-4.0,-220.0,129.0,0
208,-6.0,-218.0,130.0,0
209,-5.0,-217.0,132.0,0
210,-4.0,-220.0,130.0,0
211,-5.0,-217.0,135.0,0
212,-4.0,-214.0,130.0,0
213,-4.0,-220.0,131.0,0
214,-7.0,-215.0,132.0,0
215,-7.0,-218.0,133.0,0
216,-7.0,-218.0,130.0,0
217,-4.0,-218.0,131.0,0
218,-4.0,-219.0,129.0,0
219,-4.0,-219.0,131.0,0
220,-4.0,-220.0,131.0,0
221,-6.0,-216.0,132.0,0
222,-3.0,-217.0,130.0,0
223,-2.0,-219.0,130.0,0
224,-5.0,-217.0,133.0,0
225,-4.0,-219.0,131.0,0
226,-4.0,-217.0,131.0,0
227,-7.0,-216.0,134.0,0
228,-8.0,-218.0,132.0,0
229,-7.0,-216.0,132.0,0
230,-3.0,-218.0,132.0,0
231,-4.0,-223.0,133.0,0
232,-5.0,-218.0,131.0,0
233,-4.0,-226.0,136.0,0
234,-6.0,-221.0,135.0,0
235,-4.0,-219.0,133.0,0
236,-4.0,-221.0,130.0,0
237,-4.0,-221.0,132.0,0
238,-6.0,-221.0,132.0,0
239,-5.0,-222.0,134.0,0
240,-4.0,-222.0,129.0,0
241,-4.0,-218.0,130.0,0
242,-5.0,-219.0,127.0,0
243,-4.0,-219.0,127.0,0
244,-6.0,-218.0,130.0,0
245,-4.0,-218.0,129.0,0
246,-4.0,-217.0,130.0,0
247,-4.0,-216.0,133.0,0
248,-5.0,-221.0,132.0,0
249,-4.0,-218.0,134.0,0
250,-3.0,-218.0,130.0,0
251,-4.0,-220.0,134.0,0
252,-4.0,-218.0,132.0,0
253,-5.0,-217.0,130.0,0
254,-4.0,-217.0,132.0,0
255,-6.0,-215.0,133.0,0
256,-4.0,-217.0,135.0,0
257,-4.0,-217.0,135.0,0
258,-4.0,-216.0,131.0,0
259,-4.0,-215.0,134.0,0
260,-4.0,-218.0,129.0,0
261,-4.0,-217.0,135.0,0
262,-3.0,-217.0,133.0,0
263,-6.0,-220.0,132.0,0
264,-3.0,-215.0,129.0,0
265,-4.0,-219.0,131.0,0
266,-4.0,-217.0,131.0,0
267,-4.0,-217.0,130.0,0
268,-6.0,-217.0,126.0,0
269,-3.0,-221.0,127.0,0
270,-4.0,-217.0,132.0,0
271,-4.0,-220.0,131.0,0
272,-3.0,-217.0,132.0,0
273,-4.0,-220.0,129.0,0
274,-4.0,-219.0,131.0,0
275,-4.0,-217.0,128.0,0
276,-6.0,-219.0,132.0,0
277,-4.0,-218.0,128.0,0
278,-4.0,-220.0,129.0,0
279,-4.0,-218.0,132.0,0
280,-5.0,-217.0,132.0,0
281,-7.0,-218.0,130.0,0
282,-6.0,-220.0,128.0,0
283,-4.0,-215.0,132.0,0
284,-7.0,-218.0,129.0,0
285,-4.0,-214.0,133.0,0
286,-4.0,-217.0,129.0,0
287,-4.0,-217.0,130.0,0
288,-2.0,-219.0,133.0,0
289,-3.0,-222.0,134.0,0
290,-4.0,-219.0,133.0,0
291,-5.0,-217.0,130.0,0
292,-4.0,-221.0,129.0,0
293,-3.0,-215.0,129.0,0
294,-5.0,-214.0,133.0,0
295,-6.0,-216.0,129.0,0
296,-4.0,-218.0,132.0,0
297,-2.0,-219.0,128.0,0
298,-6.0,-218.0,133.0,0
299,-4.0,-223.0,130.0,0
300,-3.0,-220.0,130.0,0
301,-5.0,-220.0,132.0,0
302,-4.0,-220.0,131.0,0
303,-4.0,-220.0,132.0,0
304,-4.0,-220.0,130.0,0
305,-4.0,-221.0,128.0,0
306,-4.0,-221.0,131.0,0
307,-4.0,-221.0,132.0,0
308,-4.0,-221.0,129.0,0
309,-3.0,-222.0,129.0,0
310,-7.0,-219.0,132.0,0
311,-4.0,-219.0,130.0,0
312,-6.0,-221.0,128.0,0
313,-4.0,-220.0,130.0,0
314,-8.0,-220.0,128.0,0
315,-3.0,-217.0,131.0,0
316,-5.0,-220.0,128.0,0
317,-3.0,-220.0,127.0,0
318,-6.0,-220.0,127.0,0
319,-4.0,-217.0,133.0,0
320,-6.0,-218.0,130.0,0
321,-5.0,-218.0,133.0,0
322,-6.0,-222.0,128.0,0
323,-4.0,-216.0,129.0,0
324,-5.0,-218.0,129.0,0
325,-5.0,-218.0,130.0,0
326,-4.0,-219.0,130.0,0
327,-4.0,-218.0,131.0,0
328,-5.0,-217.0,130.0,0
329,-5.0,-215.0,129.0,0
330,-4.0,-218.0,125.0,0
331,-5.0,-219.0,126.0,0
332,-4.0,-218.0,128.0,0
333,-7.0,-219.0,128.0,0
334,-5.0,-218.0,133.0,0
335,-4.0,-220.0,132.0,0
336,-4.0,-219.0,130.0,0
337,-4.0,-219.0,126.0,0
338,-4.0,-219.0,130.0,0
339,-4.0,-218.0,131.0,0
340,-4.0,-217.0,131.0,0
341,-9.0,-218.0,130.0,0
342,-4.0,-217.0,130.0,0
343,-4.0,-219.0,127.0,0
344,-4.0,-218.0,130.0,0
345,-4.0,-220.0,131.0,0
346,-3.0,-220.0,130.0,0
347,-7.0,-217.0,128.0,0
348,-4.0,-218.0,131.0,0
349,-7.0,-220.0,127.0,0
350,-4.0,-220.0,130.0,0
351,-6.0,-218.0,132.0,0
352,-4.0,-218.0,129.0,0
353,-5.0,-219.0,134.0,0
354,-4.0,-219.0,130.0,0
355,-6.0,-221.0,130.0,0
356,-4.0,-217.0,132.0,0
357,-4.0,-216.0,132.0,0
358,-4.0,-219.0,129.0,0
359,-4.0,-219.0,127.0,0
360,-4.0,-219.0,132.0,0
361,-4.0,-217.0,129.0,0
362,-4.0,-220.0,130.0,0
363,-4.0,-217.0,128.0,0
364,-4.0,-219.0,130.0,0
365,-4.0,-215.0,131.0,0
366,-4.0,-215.0,129.0,0
367,-4.0,-213.0,128.0,0
368,-4.0,-220.0,131.0,0
369,-4.0,-222.0,134.0,0
370,-4.0,-220.0,131.0,0
371,-7.0,-222.0,127.0,0
372,-5.0,-221.0,129.0,0
373,-4.0,-219.0,130.0,0
374,-4.0,-219.0,130.0,0
375,-6.0,-220.0,132.0,0
376,-4.0,-220.0,132.0,0
377,-4.0,-220.0,132.0,0
378,-6.0,-218.0,134.0,0
379,-4.0,-224.0,132.0,0
380,-6.0,-221.0,129.0,0
381,-4.0,-217.0,125.0,0
382,-7.0,-218.0,127.0,0
383,-7.0,-220.0,126.0,0
384,-4.0,-218.0,127.0,0
385,-7.0,-216.0,129.0,0
386,-4.0,-222.0,125.0,0
387,-4.0,-217.0,131.0,0
388,-4.0,-219.0,132.0,0
389,-6.0,-218.0,128.0,0
390,-4.0,-217.0,133.0,0
391,-8.0,-219.0,131.0,0
392,-3.0,-218.0,132.0,0
393,-4.0,-220.0,134.0,0
394,-4.0,-213.0,135.0,0
395,-4.0,-217.0,130.0,0
396,-4.0,-219.0,133.0,0
397,-4.0,-216.0,133.0,0
398,-7.0,-215.0,130.0,0
399,-4.0,-215.0,134.0,0
400,-5.0,-217.0,135.0,0
401,-4.0,-216.0,131.0,0
402,-5.0,-216.0,131.0,0
403,-4.0,-218.0,132.0,0
404,-2.0,-219.0,135.0,0
405,-7.0,-217.0,133.0,0
406,-4.0,-218.0,132.0,0
407,-4.0,-220.0,130.0,0
408,-6.0,-218.0,131.0,0
409,-6.0,-217.0,132.0,0
410,-6.0,-217.0,129.0,0
411,-7.0,-220.0,132.0,0
412,-4.0,-220.0,129.0,0
413,-4.0,-217.0,134.0,0
414,-4.0,-222.0,131.0,0
415,-5.0,-217.0,131.0,0
416,-2.0,-219.0,130.0,0
417,-8.0,-215.0,134.0,0
418,-4.0,-218.0,130.0,0
419,-4.0,-215.0,134.0,0
420,-8.0,-220.0,129.0,0
421,-4.0,-218.0,130.0,0
422,-6.0,-217.0,133.0,0
423,-5.0,-219.0,132.0,0
424,-6.0,-220.0,132.0,0
425,-6.0,-216.0,130.0,0
426,-3.0,-218.0,128.0,0
427,-6.0,-220.0,128.0,0
428,-6.0,-217.0,131.0,0
429,-4.0,-217.0,129.0,0
430,-3.0,-216.0,127.0,0
431,-3.0,-220.0,128.0,0
432,-6.0,-216.0,132.0,0
433,-5.0,-219.0,128.0,0
434,-4.0,-221.0,131.0,0
435,-2.0,-220.0,131.0,0
436,-5.0,-219.0,125.0,0
437,-3.0,-219.0,132.0,0
438,-5.0,-219.0,133.0,0
439,-2.0,-220.0,128.0,0
440,-4.0,-217.0,133.0,0
441,-6.0,-219.0,133.0,0
442,-4.0,-216.0,128.0,0
443,-4.0,-217.0,134.0,0
444,-4.0,-217.0,132.0,0
445,-3.0,-219.0,134.0,0
446,-7.0,-218.0,131.0,0
447,-4.0,-216.0,134.0,0
448,-3.0,-218.0,130.0,0
449,-4.0,-219.0,134.0,0
450,-8.0,-218.0,141.0,0
451,-4.0,-217.0,131.0,0
452,-4.0,-216.0,129.0,0
453,-4.0,-218.0,131.0,0
454,-4.0,-220.0,130.0,0
455,-6.0,-219.0,133.0,0
456,-4.0,-218.0,128.0,0
457,-6.0,-216.0,132.0,0
458,-4.0,-220.0,130.0,0
459,-8.0,-217.0,137.0,0
460,-4.0,-220.0,135.0,0
461,-6.0,-218.0,130.0,0
462,-4.0,-217.0,132.0,0
463,-3.0,-218.0,130.0,0
464,-4.0,-216.0,131.0,0
465,-5.0,-217.0,131.0,0
466,-5.0,-219.0,133.0,0
467,-4.0,-216.0,128.0,0
468,-5.0,-217.0,132.0,0
469,-4.0,-216.0,129.0,0
470,-1.0,-221.0,130.0,0
471,-5.0,-219.0,133.0,0
472,-3.0,-219.0,127.0,0
473,-6.0,-222.0,131.0,0
474,-3.0,-219.0,131.0,0
475,-4.0,-219.0,130.0,0
476,-4.0,-220.0,133.0,0
477,-2.0,-219.0,129.0,0
478,-4.0,-218.0,130.0,0
479,-6.0,-217.0,133.0,0
480,-4.0,-217.0,131.0,0
481,-4.0,-218.0,132.0,0
482,-3.0,-219.0,134.0,0
483,-5.0,-217.0,128.0,0
484,-4.0,-219.0,134.0,0
485,-4.0,-215.0,135.0,0
486,-5.0,-217.0,132.0,0
487,-7.0,-217.0,131.0,0
488,-4.0,-219.0,131.0,0
489,-4.0,-220.0,135.0,0
490,-4.0,-218.0,132.0,0
491,-7.0,-218.0,129.0,0
492,-3.0,-220.0,134.0,0
493,-5.0,-217.0,130.0,0
494,-3.0,-222.0,135.0,0
495,-5.0,-217.0,132.0,0
496,-3.0,-219.0,128.0,0
497,-4.0,-219.0,132.0,0
498,-6.0,-215.0,129.0,0
499,-3.0,-219.0,130.0,0
500,-4.0,-219.0,127.0,0
501,-4.0,-220.0,127.0,0
502,-8.0,-219.0,133.0,0
503,-10.0,-215.0,129.0,0
504,-6.0,-214.0,132.0,0
505,-4.0,-217.0,129.0,0
506,-4.0,-221.0,132.0,0
507,-5.0,-219.0,134.0,0
508,-5.0,-217.0,133.0,0
509,-4.0,-217.0,132.0,0
510,-4.0,-221.0,130.0,0
511,-4.0,-219.0,132.0,0
512,-4.0,-218.0,130.0,0
513,-2.0,-218.0,129.0,0
514,-5.0,-219.0,133.0,0
515,-5.0,-220.0,132.0,0
516,-2.0,-221.0,130.0,0
517,-4.0,-221.0,127.0,0
518,-4.0,-223.0,128.0,0
519,-4.0,-218.0,128.0,0
520,-4.0,-220.0,127.0,0
521,-4.0,-217.0,128.0,0
522,-4.0,-218.0,127.0,0
523,-4.0,-218.0,125.0,0
524,-7.0,-218.0,128.0,0
525,-5.0,-214.0,128.0,0
526,7.0,-216.0,135.0,0
527,-6.0,-216.0,132.0,0
528,-4.0,-218.0,128.0,0
529,-3.0,-220.0,129.0,0
530,-4.0,-220.0,133.0,0
531,-4.0,-216.0,131.0,0
532,-4.0,-213.0,134.0,0
533,-4.0,-218.0,136.0,0
534,-4.0,-218.0,134.0,0
535,-4.0,-217.0,134.0,0
536,-8.0,-218.0,132.0,0
537,-4.0,-215.0,134.0,0
538,-2.0,-217.0,130.0,0
539,-4.0,-218.0,133.0,0
540,-3.0,-219.0,135.0,0
541,-5.0,-214.0,132.0,0
542,-5.0,-219.0,129.0,0
543,-4.0,-218.0,132.0,0
544,-4.0,-217.0,133.0,0
545,-4.0,-218.0,130.0,0
546,-5.0,-219.0,133.0,0
547,-4.0,-218.0,131.0,0
548,-5.0,-219.0,133.0,0
549,-4.0,-221.0,133.0,0
550,-4.0,-219.0,129.0,0
551,-3.0,-216.0,131.0,0
552,-8.0,-217.0,131.0,0
553,-4.0,-217.0,126.0,0
554,-6.0,-216.0,128.0,0
555,-5.0,-219.0,132.0,0
556,-7.0,-220.0,135.0,0
557,-4.0,-218.0,131.0,0
558,-6.0,-215.0,127.0,0
559,-5.0,-215.0,126.0,0
560,-5.0,-216.0,128.0,0
561,-5.0,-217.0,131.0,0
562,-4.0,-218.0,130.0,0
563,-6.0,-216.0,129.0,0
564,-6.0,-216.0,131.0,0
565,-5.0,-216.0,133.0,0
566,-3.0,-215.0,129.0,0
567,-4.0,-220.0,131.0,0
568,-4.0,-216.0,129.0,0
569,-4.0,-213.0,130.0,0
570,-7.0,-218.0,127.0,0
571,-3.0,-217.0,125.0,0
572,-4.0,-219.0,132.0,0
573,-4.0,-220.0,132.0,0
574,-8.0,-220.0,133.0,0
575,-4.0,-218.0,129.0,0
576,-4.0,-220.0,134.0,0
577,-3.0,-219.0,132.0,0
578,-5.0,-217.0,133.0,0
579,-4.0,-217.0,136.0,0
580,-3.0,-217.0,128.0,0
581,-9.0,-216.0,129.0,0
582,-4.0,-216.0,130.0,0
583,-4.0,-219.0,135.0,0
584,-4.0,-220.0,132.0,0
585,-6.0,-218.0,133.0,0
586,-4.0,-220.0,131.0,0
587,-2.0,-217.0,129.0,0
588,-4.0,-219.0,131.0,0
589,-4.0,-219.0,133.0,0
590,-3.0,-220.0,133.0,0
591,-4.0,-218.0,130.0,0
592,-7.0,-219.0,129.0,0
593,-3.0,-219.0,133.0,0
594,-3.0,-213.0,131.0,0
595,-4.0,-220.0,129.0,0
596,-6.0,-215.0,130.0,0
597,-5.0,-215.0,129.0,0
598,-7.0,-218.0,133.0,0
599,-4.0,-217.0,131.0,0
600,-4.0,-219.0,125.0,0
601,-4.0,-220.0,134.0,0
602,-5.0,-220.0,131.0,0
603,-5.0,-224.0,131.0,0
604,-4.0,-220.0,132.0,0
605,-5.0,-220.0,131.0,0
606,-4.0,-221.0,130.0,0
607,-2.0,-219.0,132.0,0
608,-4.0,-217.0,132.0,0
609,-6.0,-221.0,132.0,0
610,-4.0,-216.0,127.0,0
611,-4.0,-219.0,130.0,0
612,-6.0,-218.0,131.0,0
613,-6.0,-218.0,130.0,0
614,-5.0,-220.0,133.0,0
615,-5.0,-219.0,135.0,0
616,-4.0,-215.0,131.0,0
617,-4.0,-219.0,131.0,0
618,-5.0,-218.0,129.0,0
619,-4.0,-223.0,133.0,0
620,-4.0,-217.0,130.0,0
621,-3.0,-219.0,129.0,0
622,-8.0,-218.0,129.0,0
623,-7.0,-216.0,130.0,0
624,-3.0,-223.0,129.0,0
625,-2.0,-218.0,130.0,0
626,-4.0,-217.0,127.0,0
627,-4.0,-218.0,133.0,0
628,-4.0,-218.0,131.0,0
629,-4.0,-217.0,130.0,0
630,-4.0,-218.0,135.0,0
631,-5.0,-220.0,133.0,0
632,-4.0,-219.0,130.0,0
633,-5.0,-219.0,130.0,0
634,-5.0,-219.0,127.0,0
635,-2.0,-216.0,125.0,0
636,-8.0,-219.0,131.0,0
637,-7.0,-217.0,127.0,0
638,-5.0,-217.0,131.0,0
639,-5.0,-220.0,128.0,0
640,-7.0,-218.0,127.0,0
641,-4.0,-219.0,129.0,0
642,-5.0,-219.0,132.0,0
643,-5.0,-218.0,132.0,0
644,-4.0,-217.0,130.0,0
645,-4.0,-219.0,131.0,0
646,-5.0,-216.0,132.0,0
647,-5.0,-221.0,133.0,0
648,-4.0,-215.0,134.0,0
649,-4.0,-216.0,130.0,0
650,-4.0,-218.0,130.0,0
651,-4.0,-220.0,134.0,0
652,-5.0,-219.0,130.0,0
653,-5.0,-220.0,130.0,0
654,-5.0,-218.0,132.0,0
655,-4.0,-222.0,129.0,0
656,-7.0,-220.0,132.0,0
657,-10.0,-217.0,131.0,0
658,-5.0,-220.0,131.0,0
659,-4.0,-222.0,131.0,0
660,-7.0,-216.0,135.0,0
661,-5.0,-216.0,129.0,0
662,-5.0,-216.0,130.0,0
663,-5.0,-216.0,132.0,0
664,-8.0,-211.0,133.0,0
665,-4.0,-214.0,130.0,0
666,-4.0,-216.0,134.0,0
667,-3.0,-216.0,134.0,0
668,-2.0,-204.0,132.0,0
669,-4.0,-218.0,135.0,0
670,-6.0,-215.0,136.0,0
671,-3.0,-217.0,136.0,0
672,-2.0,-214.0,134.0,0
673,-4.0,-217.0,135.0,0
674,-5.0,-213.0,132.0,0
675,-5.0,-215.0,138.0,0
676,-3.0,-217.0,134.0,0
677,-3.0,-218.0,137.0,0
678,-3.0,-215.0,134.0,0
679,-4.0,-217.0,135.0,0
680,-4.0,-217.0,133.0,0
681,-4.0,-217.0,134.0,0
682,-3.0,-218.0,136.0,0
683,-2.0,-219.0,136.0,0
684,-7.0,-212.0,133.0,0
685,-5.0,-217.0,135.0,0
686,-7.0,-215.0,130.0,0
687,-4.0,-219.0,131.0,0
688,-4.0,-218.0,127.0,0
689,-4.0,-219.0,133.0,0
690,-3.0,-217.0,132.0,0
691,-2.0,-220.0,129.0,0
692,-3.0,-220.0,129.0,0
693,-4.0,-216.0,126.0,0
694,-6.0,-219.0,130.0,0
695,-3.0,-222.0,133.0,0
696,-4.0,-220.0,129.0,0
697,-4.0,-219.0,130.0,0
698,-4.0,-218.0,130.0,0
699,-6.0,-218.0,129.0,0
700,-4.0,-218.0,129.0,0
701,-8.0,-212.0,128.0,0
702,-2.0,-221.0,132.0,0
703,-4.0,-221.0,128.0,0
704,-2.0,-223.0,129.0,0
705,-4.0,-220.0,127.0,0
706,-4.0,-222.0,126.0,0
707,-4.0,-217.0,125.0,0
708,-4.0,-218.0,129.0,0
709,-6.0,-222.0,129.0,0
710,-4.0,-224.0,125.0,0
711,-3.0,-220.0,130.0,0
712,-4.0,-217.0,131.0,0
713,-6.0,-218.0,125.0,0
714,-3.0,-220.0,129.0,0
715,-5.0,-218.0,130.0,0
716,-3.0,-220.0,126.0,0
717,-4.0,-218.0,129.0,0
718,-6.0,-218.0,131.0,0
719,-7.0,-211.0,145.0,0
720,-27.0,-208.0,144.0,0
721,-6.0,-214.0,140.0,0
722,-4.0,-220.0,135.0,0
723,-3.0,-220.0,135.0,0
724,-5.0,-216.0,132.0,0
725,-4.0,-219.0,133.0,0
726,-3.0,-219.0,132.0,0
727,-3.0,-219.0,132.0,0
728,-3.0,-216.0,134.0,0
729,-4.0,-219.0,134.0,0
730,-4.0,-220.0,128.0,0
731,-3.0,-217.0,133.0,0
732,-4.0,-221.0,130.0,0
733,-4.0,-218.0,133.0,0
734,-4.0,-219.0,134.0,0
735,-3.0,-221.0,132.0,0
736,-4.0,-219.0,131.0,0
737,-4.0,-217.0,134.0,0
738,-4.0,-217.0,130.0,0
739,-6.0,-217.0,129.0,0
740,-4.0,-213.0,133.0,0
741,-4.0,-217.0,128.0,0
742,-4.0,-217.0,132.0,0
743,-4.0,-217.0,131.0,0
744,3.0,-206.0,124.0,0
745,-6.0,-218.0,132.0,0
746,-7.0,-216.0,129.0,0
747,-4.0,-217.0,131.0,0
748,-7.0,-214.0,129.0,0
749,-4.0,-218.0,127.0,0
750,-4.0,-217.0,129.0,0
751,-5.0,-216.0,127.0,0
752,-7.0,-217.0,129.0,0
753,-8.0,-218.0,132.0,0
754,-5.0,-216.0,132.0,0
755,-5.0,-217.0,130.0,0
756,-4.0,-217.0,129.0,0
757,-5.0,-217.0,132.0,0
758,-6.0,-220.0,129.0,0
759,-3.0,-217.0,132.0,0
760,-4.0,-220.0,128.0,0
761,-2.0,-218.0,127.0,0
762,-3.0,-220.0,131.0,0
763,-2.0,-217.0,130.0,0
764,-5.0,-217.0,133.0,0
765,-5.0,-214.0,131.0,0
766,-6.0,-216.0,131.0,0
767,-4.0,-219.0,127.0,0
768,-1.0,-218.0,128.0,0
769,-3.0,-217.0,129.0,0
770,-4.0,-218.0,132.0,0
771,-3.0,-217.0,130.0,0
772,-6.0,-217.0,128.0,0
773,-3.0,-219.0,128.0,0
774,-5.0,-218.0,126.0,0
775,-7.0,-215.0,130.0,0
776,-7.0,-216.0,128.0,0
777,-5.0,-216.0,134.0,0
778,-3.0,-221.0,129.0,0
779,-5.0,-221.0,126.0,0
780,-5.0,-220.0,125.0,0
781,-3.0,-221.0,128.0,0
782,-3.0,-220.0,128.0,0
783,-3.0,-223.0,129.0,0
784,-4.0,-221.0,126.0,0
785,-3.0,-223.0,123.0,0
786,-3.0,-221.0,125.0,0
787,-4.0,-221.0,129.0,0
788,-3.0,-223.0,127.0,0
789,-4.0,-222.0,128.0,0
790,-4.0,-223.0,128.0,0
791,-3.0,-221.0,128.0,0
792,-4.0,-221.0,127.0,0
793,-4.0,-223.0,128.0,0
794,-4.0,-222.0,127.0,0
795,-4.0,-220.0,126.0,0
796,-5.0,-222.0,124.0,0
797,-7.0,-220.0,129.0,0
798,-4.0,-227.0,131.0,0
799,-6.0,-225.0,123.0,0
800,-4.0,-225.0,126.0,0
801,-5.0,-228.0,120.0,0
802,-9.0,-221.0,128.0,0
803,-6.0,-220.0,120.0,0
804,-4.0,-224.0,120.0,0
805,-4.0,-225.0,121.0,0
806,-4.0,-224.0,121.0,0
807,-4.0,-225.0,121.0,0
808,-4.0,-224.0,122.0,0
809,-4.0,-221.0,122.0,0
810,-5.0,-223.0,122.0,0
811,-5.0,-222.0,120.0,0
812,-4.0,-219.0,121.0,0
813,-7.0,-223.0,125.0,0
814,-10.0,-222.0,124.0,0
815,-8.0,-218.0,125.0,0
816,-9.0,-218.0,118.0,0
817,-7.0,-219.0,123.0,0
818,-9.0,-221.0,124.0,0
819,-5.0,-222.0,124.0,0
820,-5.0,-224.0,124.0,0
821,-6.0,-224.0,123.0,0
822,-4.0,-221.0,127.0,0
823,-5.0,-219.0,124.0,0
824,-6.0,-222.0,122.0,0
825,-6.0,-221.0,124.0,0
826,-5.0,-220.0,124.0,0
827,-4.0,-220.0,122.0,0
828,-5.0,-218.0,120.0,0
829,-5.0,-218.0,123.0,0
830,-4.0,-218.0,122.0,0
831,-4.0,-224.0,121.0,0
832,-4.0,-223.0,121.0,0
833,-4.0,-228.0,120.0,0
834,-3.0,-222.0,123.0,0
835,-4.0,-225.0,119.0,0
836,-5.0,-223.0,122.0,0
837,-4.0,-223.0,118.0,0
838,-4.0,-220.0,124.0,0
839,-5.0,-222.0,120.0,0
840,-3.0,-223.0,124.0,0
841,-5.0,-225.0,121.0,0
842,-4.0,-223.0,120.0,0
843,-8.0,-222.0,118.0,0
844,-4.0,-225.0,122.0,0
845,-4.0,-223.0,121.0,0
846,-6.0,-226.0,121.0,0
847,-6.0,-225.0,118.0,0
848,-3.0,-226.0,120.0,0
849,-4.0,-222.0,120.0,0
850,-4.0,-222.0,118.0,0
851,-2.0,-221.0,115.0,0
852,-2.0,-224.0,116.0,0
853,-4.0,-222.0,119.0,0
854,-6.0,-222.0,114.0,0
855,-5.0,-223.0,112.0,0
856,-4.0,-225.0,115.0,0
857,-3.0,-228.0,117.0,0
858,-3.0,-227.0,111.0,0
859,-4.0,-228.0,112.0,0
860,-4.0,-228.0,111.0,0
861,-4.0,-229.0,110.0,0
862,-4.0,-228.0,112.0,0
863,-4.0,-231.0,104.0,0
864,-2.0,-229.0,109.0,0
865,-3.0,-227.0,108.0,0
866,-2.0,-229.0,109.0,0
867,-3.0,-228.0,105.0,0
868,-4.0,-228.0,108.0,0
869,-1.0,-225.0,110.0,0
870,-3.0,-227.0,107.0,0
871,-3.0,-226.0,106.0,0
872,-2.0,-229.0,105.0,0
873,-2.0,-227.0,106.0,0
874,-3.0,-229.0,103.0,0
875,-2.0,-229.0,105.0,0
876,-3.0,-228.0,103.0,0
877,-1.0,-230.0,102.0,0
878,-1.0,-230.0,103.0,0
879,1.0,-232.0,102.0,0
880,-3.0,-228.0,101.0,0
881,-4.0,-233.0,104.0,0
882,-3.0,-234.0,104.0,0
883,-4.0,-233.0,104.0,0
884,-1.0,-232.0,104.0,0
885,-4.0,-236.0,100.0,0
886,-4.0,-233.0,111.0,0
887,-4.0,-236.0,101.0,0
888,-2.0,-235.0,101.0,0
889,-3.0,-236.0,102.0,0
890,-3.0,-234.0,97.0,0
891,-3.0,-234.0,95.0,0
892,-3.0,-235.0,95.0,0
893,-2.0,-233.0,93.0,0
894,-3.0,-230.0,95.0,0
895,-4.0,-231.0,90.0,0
896,-2.0,-229.0,93.0,0
897,-4.0,-227.0,95.0,0
898,-4.0,-228.0,91.0,0
899,-4.0,-228.0,92.0,0
900,-4.0,-230.0,90.0,0
901,-2.0,-229.0,88.0,0
902,-4.0,-227.0,90.0,0
903,-4.0,-229.0,91.0,0
904,-3.0,-230.0,91.0,0
905,-4.0,-230.0,89.0,0
906,-3.0,-235.0,92.0,0
907,-4.0,-234.0,88.0,0
908,-5.0,-235.0,89.0,0
909,-3.0,-238.0,87.0,0
910,-2.0,-237.0,87.0,0
911,-3.0,-241.0,82.0,0
912,-2.0,-240.0,84.0,0
913,-3.0,-242.0,84.0,0
914,-4.0,-241.0,88.0,0
915,-1.0,-245.0,80.0,0
916,-3.0,-247.0,82.0,0
917,-3.0,-244.0,79.0,0
918,-5.0,-243.0,79.0,0
919,-3.0,-246.0,80.0,0
920,-4.0,-245.0,79.0,0
921,-4.0,-244.0,82.0,0
922,-4.0,-244.0,78.0,0
923,-3.0,-242.0,77.0,0
924,0.0,-242.0,82.0,0
925,-4.0,-240.0,78.0,0
926,-1.0,-246.0,81.0,0
927,-3.0,-241.0,78.0,0
928,-3.0,-243.0,79.0,0
929,3.0,-235.0,84.0,0
930,-1.0,-240.0,79.0,0
931,0.0,-242.0,80.0,0
932,-2.0,-238.0,82.0,0
933,-1.0,-239.0,79.0,0
934,-4.0,-236.0,80.0,0
935,-1.0,-241.0,79.0,0
936,-2.0,-241.0,83.0,0
937,-1.0,-240.0,83.0,0
938,-4.0,-241.0,86.0,0
939,-2.0,-242.0,82.0,0
940,-1.0,-242.0,82.0,0
941,-2.0,-245.0,88.0,0
942,-2.0,-244.0,89.0,0
943,-2.0,-243.0,87.0,0
944,1.0,-243.0,85.0,0
945,3.0,-244.0,89.0,0
946,2.0,-242.0,86.0,0
947,-1.0,-239.0,90.0,0
948,2.0,-240.0,85.0,0
949,2.0,-242.0,83.0,0
950,4.0,-241.0,89.0,0
951,5.0,-241.0,84.0,0
952,3.0,-243.0,86.0,0
953,4.0,-243.0,81.0,0
954,0.0,-237.0,83.0,0
955,6.0,-240.0,81.0,0
956,2.0,-238.0,82.0,0
957,0.0,-239.0,81.0,0
958,-1.0,-236.0,81.0,0
959,1.0,-239.0,83.0,0
960,3.0,-236.0,83.0,0
961,3.0,-239.0,83.0,0
962,1.0,-238.0,86.0,0
963,2.0,-237.0,80.0,0
964,3.0,-237.0,80.0,0
965,-1.0,-242.0,78.0,0
966,1.0,-242.0,80.0,0
967,1.0,-241.0,78.0,0
968,0.0,-242.0,77.0,0
969,-1.0,-241.0,76.0,0
970,0.0,-244.0,79.0,0
971,-2.0,-242.0,76.0,0
972,0.0,-247.0,76.0,0
973,-1.0,-247.0,74.0,0
974,2.0,-246.0,72.0,0
975,0.0,-247.0,71.0,0
976,0.0,-246.0,71.0,0
977,-1.0,-244.0,65.0,0
978,0.0,-244.0,69.0,0
979,1.0,-246.0,69.0,0
980,-2.0,-245.0,63.0,0
981,-2.0,-245.0,63.0,0
982,-2.0,-246.0,60.0,0
983,-1.0,-242.0,58.0,0
984,0.0,-247.0,60.0,0
985,-3.0,-244.0,57.0,0
986,-2.0,-246.0,54.0,0
987,-1.0,-246.0,54.0,0
988,0.0,-247.0,55.0,0
989,0.0,-245.0,55.0,0
990,1.0,-244.0,54.0,0
991,-1.0,-245.0,55.0,0
992,-1.0,-249.0,53.0,0
993,2.0,-248.0,55.0,0
994,5.0,-245.0,50.0,0
995,3.0,-248.0,67.0,0
996,2.0,-248.0,54.0,0
997,4.0,-247.0,53.0,0
998,6.0,-248.0,50.0,0
999,6.0,-249.0,49.0,0
1000,2.0,-251.0,50.0,0
1001,3.0,-248.0,48.0,0
1002,6.0,-249.0,50.0,0
1003,4.0,-250.0,53.0,0
1004,6.0,-249.0,47.0,0
1005,10.0,-239.0,37.0,0
1006,4.0,-249.0,47.0,0
1007,5.0,-247.0,48.0,0
1008,3.0,-244.0,49.0,0
1009,7.0,-244.0,45.0,0
1010,5.0,-247.0,47.0,0
1011,4.0,-245.0,47.0,0
1012,5.0,-245.0,49.0,0
1013,2.0,-248.0,47.0,0
1014,3.0,-245.0,46.0,0
1015,5.0,-247.0,50.0,0
1016,4.0,-249.0,48.0,0
1017,5.0,-252.0,49.0,0
1018,3.0,-247.0,47.0,0
1019,4.0,-250.0,52.0,0
1020,7.0,-250.0,49.0,0
1021,4.0,-248.0,47.0,0
1022,6.0,-249.0,47.0,0
1023,5.0,-252.0,44.0,0
1024,5.0,-250.0,44.0,0
1025,4.0,-254.0,42.0,0
1026,1.0,-249.0,36.0,0
1027,4.0,-257.0,41.0,0
1028,-1.0,-249.0,37.0,0
1029,1.0,-251.0,34.0,0
1030,3.0,-257.0,31.0,0
1031,1.0,-251.0,32.0,0
1032,2.0,-252.0,26.0,0
1033,2.0,-251.0,20.0,0
1034,-3.0,-253.0,26.0,0
1035,-4.0,-247.0,23.0,0
1036,-4.0,-249.0,22.0,0
1037,0.0,-249.0,23.0,0
1038,1.0,-249.0,20.0,0
1039,1.0,-247.0,19.0,0
1040,3.0,-250.0,22.0,0
1041,5.0,-253.0,22.0,0
1042,0.0,-251.0,19.0,0
1043,1.0,-252.0,23.0,0
1044,8.0,-252.0,20.0,0
1045,5.0,-251.0,21.0,0
1046,6.0,-253.0,22.0,0
1047,9.0,-253.0,20.0,0
1048,5.0,-251.0,22.0,0
1049,5.0,-251.0,23.0,0
1050,3.0,-251.0,23.0,0
1051,0.0,-250.0,18.0,0
1052,2.0,-250.0,21.0,0
1053,2.0,-249.0,18.0,0
1054,2.0,-253.0,21.0,0
1055,1.0,-249.0,17.0,0
1056,0.0,-250.0,16.0,0
1057,1.0,-247.0,17.0,0
1058,0.0,-247.0,13.0,0
1059,1.0,-251.0,15.0,0
1060,3.0,-247.0,10.0,0
1061,-1.0,-248.0,9.0,0
1062,0.0,-251.0,11.0,0
1063,2.0,-253.0,11.0,0
1064,4.0,-250.0,8.0,0
1065,2.0,-249.0,5.0,0
1066,2.0,-245.0,9.0,0
1067,2.0,-248.0,2.0,0
1068,3.0,-249.0,4.0,0
1069,4.0,-250.0,3.0,0
1070,4.0,-249.0,-3.0,0
1071,3.0,-250.0,3.0,0
1072,2.0,-249.0,4.0,0
1073,4.0,-250.0,-1.0,0
1074,4.0,-253.0,1.0,0
1075,3.0,-251.0,-2.0,0
1076,3.0,-250.0,-2.0,0
1077,6.0,-251.0,-4.0,0
1078,2.0,-250.0,-6.0,0
1079,6.0,-251.0,-9.0,0
1080,4.0,-249.0,-9.0,0
1081,2.0,-248.0,-8.0,0
1082,4.0,-249.0,-9.0,0
1083,7.0,-248.0,-11.0,0
1084,4.0,-244.0,-10.0,0
1085,8.0,-246.0,-9.0,0
1086,7.0,-249.0,-16.0,0
1087,6.0,-248.0,-16.0,0
1088,6.0,-248.0,-13.0,0
1089,7.0,-248.0,-12.0,0
1090,10.0,-251.0,-17.0,0
1091,4.0,-248.0,-16.0,0
1092,7.0,-248.0,-15.0,0
1093,10.0,-249.0,-19.0,0
1094,6.0,-249.0,-17.0,0
1095,7.0,-250.0,-18.0,0
1096,4.0,-251.0,-19.0,0
1097,2.0,-253.0,-19.0,0
1098,5.0,-254.0,-16.0,0
1099,5.0,-250.0,-22.0,0
1100,2.0,-252.0,-21.0,0
1101,3.0,-253.0,-25.0,0
1102,6.0,-256.0,-21.0,0
1103,5.0,-256.0,-24.0,0
1104,5.0,-253.0,-31.0,0
1105,0.0,-254.0,-31.0,0
1106,2.0,-254.0,-33.0,0
1107,3.0,-255.0,-31.0,0
1108,4.0,-255.0,-30.0,0
1109,2.0,-252.0,-30.0,0
1110,1.0,-251.0,-28.0,0
1111,0.0,-246.0,-31.0,0
1112,4.0,-250.0,-33.0,0
1113,1.0,-247.0,-32.0,0
1114,2.0,-247.0,-31.0,0
1115,3.0,-247.0,-33.0,0
1116,2.0,-243.0,-33.0,0
1117,2.0,-246.0,-35.0,0
1118,3.0,-245.0,-40.0,0
1119,2.0,-244.0,-41.0,0
1120,4.0,-243.0,-40.0,0
1121,4.0,-245.0,-42.0,0
1122,6.0,-244.0,-46.0,0
1123,8.0,-245.0,-46.0,0
1124,6.0,-245.0,-44.0,0
1125,6.0,-242.0,-44.0,0
1126,4.0,-241.0,-48.0,0
1127,5.0,-241.0,-47.0,0
1128,7.0,-240.0,-47.0,0
1129,8.0,-237.0,-50.0,0
1130,6.0,-237.0,-51.0,0
1131,5.0,-237.0,-52.0,0
1132,4.0,-237.0,-53.0,0
1133,6.0,-235.0,-57.0,0
1134,3.0,-234.0,-58.0,0
1135,3.0,-233.0,-55.0,0
1136,4.0,-238.0,-57.0,0
1137,3.0,-237.0,-58.0,0
1138,1.0,-233.0,-59.0,0
1139,2.0,-236.0,-65.0,0
1140,1.0,-235.0,-65.0,0
1141,-1.0,-238.0,-67.0,0
1142,0.0,-239.0,-67.0,0
1143,2.0,-244.0,-69.0,0
1144,1.0,-240.0,-74.0,0
1145,1.0,-241.0,-75.0,0
1146,-1.0,-241.0,-74.0,0
1147,5.0,-242.0,-78.0,0
1148,4.0,-241.0,-73.0,0
1149,4.0,-238.0,-79.0,0
1150,1.0,-235.0,-81.0,0
1151,4.0,-236.0,-81.0,0
1152,1.0,-237.0,-81.0,0
1153,-1.0,-234.0,-84.0,0
1154,-1.0,-233.0,-83.0,0
1155,-3.0,-231.0,-87.0,0
1156,0.0,-232.0,-87.0,0
1157,-1.0,-232.0,-85.0,0
1158,-2.0,-235.0,-86.0,0
1159,-4.0,-232.0,-85.0,0
1160,-4.0,-233.0,-84.0,0
1161,-2.0,-232.0,-90.0,0
1162,-5.0,-233.0,-89.0,0
1163,-2.0,-236.0,-93.0,0
1164,-4.0,-234.0,-92.0,0
1165,-4.0,-234.0,-95.0,0
1166,7.0,-231.0,-97.0,0
1167,-4.0,-233.0,-94.0,0
1168,-3.0,-234.0,-98.0,0
1169,-5.0,-232.0,-103.0,0
1170,-5.0,-233.0,-104.0,0
1171,-6.0,-230.0,-104.0,0
1172,-5.0,-228.0,-111.0,0
1173,-4.0,-229.0,-111.0,0
1174,-4.0,-227.0,-115.0,0
1175,-3.0,-230.0,-110.0,0
1176,-4.0,-225.0,-117.0,0
1177,-2.0,-227.0,-114.0,0
1178,-1.0,-226.0,-118.0,0
1179,-1.0,-226.0,-117.0,0
1180,-2.0,-223.0,-122.0,0
1181,-2.0,-221.0,-122.0,0
1182,1.0,-220.0,-125.0,0
1183,1.0,-222.0,-128.0,0
1184,1.0,-221.0,-131.0,0
1185,2.0,-221.0,-131.0,0
1186,-1.0,-213.0,-135.0,0
1187,2.0,-215.0,-138.0,0
1188,0.0,-214.0,-136.0,0
1189,1.0,-214.0,-138.0,0
1190,4.0,-213.0,-137.0,0
1191,5.0,-210.0,-136.0,0
1192,5.0,-206.0,-142.0,0
1193,4.0,-208.0,-139.0,0
1194,5.0,-210.0,-146.0,0
1195,5.0,-207.0,-148.0,0
1196,4.0,-203.0,-151.0,0
1197,2.0,-204.0,-152.0,0
1198,3.0,-203.0,-156.0,0
1199,-1.0,-201.0,-155.0,0
1200,-1.0,-200.0,-157.0,0
1201,-2.0,-199.0,-158.0,0
1202,-2.0,-197.0,-170.0,0
1203,1.0,-193.0,-168.0,0
1204,0.0,-193.0,-170.0,0
1205,1.0,-189.0,-173.0,0
1206,1.0,-190.0,-175.0,0
1207,-1.0,-188.0,-174.0,0
1208,1.0,-189.0,-175.0,0
1209,1.0,-186.0,-183.0,0
1210,0.0,-183.0,-182.0,0
1211,0.0,-182.0,-186.0,0
1212,1.0,-180.0,-184.0,0
1213,-1.0,-182.0,-182.0,0
1214,7.0,-181.0,-186.0,0
1215,6.0,-177.0,-190.0,0
1216,4.0,-180.0,-187.0,0
1217,4.0,-180.0,-189.0,0
1218,3.0,-177.0,-192.0,0
1219,6.0,-180.0,-194.0,0
1220,3.0,-172.0,-198.0,0
1221,2.0,-173.0,-200.0,0
1222,3.0,-172.0,-203.0,0
1223,3.0,-172.0,-207.0,0
1224,4.0,-171.0,-209.0,0
1225,4.0,-167.0,-208.0,0
1226,3.0,-165.0,-210.0,0
1227,7.0,-163.0,-210.0,0
1228,-1.0,-162.0,-209.0,0
1229,2.0,-164.0,-214.0,0
1230,3.0,-160.0,-214.0,0
1231,-1.0,-159.0,-215.0,0
1232,0.0,-162.0,-212.0,0
1233,0.0,-163.0,-213.0,0
1234,4.0,-158.0,-217.0,0
1235,0.0,-155.0,-214.0,0
1236,-1.0,-157.0,-212.0,0
1237,-3.0,-155.0,-215.0,0
1238,-3.0,-159.0,-209.0,0
1239,-2.0,-158.0,-212.0,0
1240,-3.0,-154.0,-212.0,0
1241,3.0,-153.0,-206.0,0
1242,2.0,-156.0,-208.0,0
1243,3.0,-154.0,-203.0,0
1244,2.0,-150.0,-200.0,0
1245,5.0,-150.0,-203.0,0
1246,7.0,-152.0,-201.0,0
1247,5.0,-147.0,-198.0,0
1248,6.0,-143.0,-197.0,0
1249,6.0,-145.0,-200.0,0
1250,6.0,-142.0,-200.0,0
1251,7.0,-139.0,-201.0,0
1252,9.0,-136.0,-200.0,0
1253,8.0,-135.0,-198.0,0
1254,6.0,-134.0,-199.0,0
1255,7.0,-133.0,-202.0,0
1256,3.0,-131.0,-203.0,0
1257,6.0,-130.0,-204.0,0
1258,7.0,-130.0,-210.0,0
1259,7.0,-131.0,-209.0,0
1260,6.0,-129.0,-212.0,0
1261,4.0,-125.0,-211.0,0
1262,2.0,-127.0,-206.0,0
1263,6.0,-126.0,-211.0,0
1264,7.0,-130.0,-213.0,0
1265,4.0,-129.0,-211.0,0
1266,5.0,-127.0,-210.0,0
1267,8.0,-122.0,-211.0,0
1268,8.0,-115.0,-211.0,0
1269,14.0,-113.0,-212.0,0
1270,17.0,-109.0,-216.0,0
1271,16.0,-104.0,-216.0,0
1272,17.0,-102.0,-210.0,0
1273,16.0,-99.0,-210.0,0
1274,19.0,-98.0,-210.0,0
1275,21.0,-99.0,-216.0,0
1276,19.0,-97.0,-216.0,0
1277,17.0,-93.0,-210.0,0
1278,17.0,-99.0,-215.0,0
1279,16.0,-96.0,-218.0,0
1280,13.0,-96.0,-218.0,0
1281,12.0,-96.0,-219.0,0
1282,9.0,-97.0,-219.0,0
1283,6.0,-99.0,-217.0,0
1284,4.0,-97.0,-217.0,0
1285,3.0,-94.0,-217.0,0
1286,1.0,-94.0,-222.0,0
1287,2.0,-91.0,-223.0,0
1288,3.0,-89.0,-222.0,0
1289,8.0,-93.0,-217.0,0
1290,8.0,-90.0,-216.0,0
1291,10.0,-93.0,-216.0,0
1292,10.0,-93.0,-214.0,0
1293,8.0,-88.0,-221.0,0
1294,14.0,-87.0,-220.0,0
1295,10.0,-83.0,-219.0,0
1296,9.0,-82.0,-218.0,0
1297,10.0,-81.0,-219.0,0
1298,10.0,-79.0,-221.0,0
1299,7.0,-76.0,-220.0,0
1300,9.0,-73.0,-220.0,0
1301,5.0,-76.0,-221.0,0
1302,5.0,-74.0,-222.0,0
1303,10.0,-75.0,-221.0,0
1304,10.0,-75.0,-217.0,0
1305,8.0,-75.0,-221.0,0
1306,5.0,-75.0,-224.0,0
1307,6.0,-74.0,-219.0,0
1308,7.0,-71.0,-217.0,0
1309,3.0,-72.0,-214.0,0
1310,3.0,-71.0,-219.0,0
1311,4.0,-71.0,-217.0,0
1312,5.0,-68.0,-216.0,0
1313,4.0,-68.0,-213.0,0
1314,-1.0,-65.0,-216.0,0
1315,2.0,-65.0,-216.0,0
1316,3.0,-67.0,-214.0,0
1317,2.0,-71.0,-215.0,0
1318,2.0,-69.0,-214.0,0
1319,2.0,-67.0,-214.0,0
1320,1.0,-69.0,-213.0,0
1321,4.0,-68.0,-211.0,0
1322,0.0,-68.0,-210.0,0
1323,-3.0,-64.0,-211.0,0
1324,1.0,-66.0,-205.0,0
1325,0.0,-68.0,-205.0,0
1326,-3.0,-65.0,-208.0,0
1327,0.0,-65.0,-213.0,0
1328,-1.0,-64.0,-212.0,0
1329,-1.0,-58.0,-212.0,0
1330,0.0,-58.0,-212.0,0
1331,0.0,-63.0,-216.0,0
1332,2.0,-62.0,-213.0,0
1333,1.0,-61.0,-216.0,0
1334,2.0,-62.0,-214.0,0
1335,1.0,-63.0,-211.0,0
1336,1.0,-63.0,-215.0,0
1337,3.0,-63.0,-211.0,0
1338,-1.0,-58.0,-213.0,0
1339,2.0,-60.0,-213.0,0
1340,0.0,-57.0,-214.0,0
1341,-2.0,-61.0,-218.0,0
1342,0.0,-58.0,-218.0,0
1343,-2.0,-57.0,-214.0,0
1344,-2.0,-62.0,-218.0,0
1345,-1.0,-67.0,-216.0,0
1346,-1.0,-67.0,-214.0,0
1347,0.0,-71.0,-216.0,0
1348,-3.0,-70.0,-210.0,0
1349,-4.0,-72.0,-208.0,0
1350,-6.0,-67.0,-207.0,0
1351,-4.0,-68.0,-202.0,0
1352,-5.0,-68.0,-197.0,0
1353,-9.0,-68.0,-193.0,0
1354,-5.0,-67.0,-192.0,0
1355,-10.0,-67.0,-189.0,0
1356,-7.0,-66.0,-189.0,0
1357,-4.0,-68.0,-183.0,0
1358,-8.0,-65.0,-177.0,0
1359,-8.0,-68.0,-173.0,0
1360,-11.0,-70.0,-165.0,0
1361,-13.0,-69.0,-160.0,0
1362,-19.0,-72.0,-155.0,0
1363,-14.0,-70.0,-153.0,0
1364,-13.0,-79.0,-150.0,0
1365,-16.0,-77.0,-152.0,0
1366,-13.0,-76.0,-145.0,0
1367,-16.0,-75.0,-141.0,0
1368,-13.0,-75.0,-139.0,0
1369,-13.0,-76.0,-140.0,0
1370,-11.0,-76.0,-139.0,0
1371,-9.0,-79.0,-140.0,0
1372,-7.0,-77.0,-137.0,0
1373,-3.0,-79.0,-133.0,0
1374,5.0,-76.0,-133.0,0
1375,7.0,-74.0,-131.0,0
1376,12.0,-76.0,-127.0,0
1377,14.0,-76.0,-127.0,0
1378,14.0,-76.0,-123.0,0
1379,25.0,-74.0,-128.0,0
1380,22.0,-76.0,-127.0,0
1381,27.0,-77.0,-127.0,0
1382,31.0,-79.0,-131.0,0
1383,33.0,-80.0,-135.0,0
1384,36.0,-76.0,-139.0,0
1385,32.0,-75.0,-138.0,0
1386,36.0,-77.0,-137.0,0
1387,33.0,-79.0,-134.0,0
1388,29.0,-73.0,-134.0,0
1389,25.0,-74.0,-138.0,0
1390,26.0,-76.0,-140.0,0
1391,14.0,-68.0,-143.0,0
1392,9.0,-63.0,-151.0,0
1393,2.0,-65.0,-149.0,0
1394,-2.0,-68.0,-154.0,0
1395,-4.0,-73.0,-154.0,0
1396,-4.0,-78.0,-163.0,0
1397,-5.0,-71.0,-164.0,0
1398,-5.0,-74.0,-162.0,0
1399,-13.0,-74.0,-155.0,0
1400,-12.0,-78.0,-153.0,0
1401,-17.0,-77.0,-150.0,0
1402,-24.0,-82.0,-145.0,0
1403,-28.0,-87.0,-135.0,0
1404,-35.0,-92.0,-133.0,0
1405,-33.0,-88.0,-127.0,0
1406,-36.0,-87.0,-124.0,0
1407,-33.0,-89.0,-118.0,0
1408,-29.0,-84.0,-119.0,0
1409,-25.0,-80.0,-126.0,0
1410,-26.0,-73.0,-125.0,0
1411,-30.0,-74.0,-127.0,0
1412,-33.0,-84.0,-122.0,0
1413,-38.0,-84.0,-123.0,0
1414,-41.0,-83.0,-121.0,0
1415,-45.0,-69.0,-136.0,0
1416,-51.0,-60.0,-153.0,0
1417,-50.0,-62.0,-160.0,0
1418,-49.0,-66.0,-165.0,0
1419,-52.0,-64.0,-178.0,0
1420,-58.0,-47.0,-192.0,0
1421,-71.0,-28.0,-206.0,0
1422,-77.0,-4.0,-224.0,2
1423,-84.0,22.0,-241.0,2
1424,-76.0,49.0,-276.0,2
1425,-76.0,79.0,-307.0,2
1426,-85.0,106.0,-327.0,2
1427,-89.0,120.0,-372.0,2
1428,-91.0,131.0,-411.0,2
1429,-88.0,142.0,-460.0,2
1430,-104.0,161.0,-526.0,2
1431,-106.0,149.0,-568.0,2
1432,-107.0,119.0,-577.0,2
1433,-103.0,44.0,-556.0,2
1434,-85.0,-30.0,-508.0,2
1435,-75.0,-88.0,-443.0,2
1436,-80.0,-113.0,-376.0,2
1437,-89.0,-118.0,-322.0,2
1438,-83.0,-111.0,-260.0,2
1439,-88.0,-114.0,-187.0,2
1440,-112.0,-105.0,-122.0,2
1441,-141.0,-82.0,-77.0,2
1442,-163.0,-59.0,-58.0,2
1443,-204.0,-23.0,-38.0,2
1444,-251.0,0.0,-12.0,2
1445,-295.0,25.0,3.0,2
1446,-349.0,52.0,14.0,2
1447,-351.0,66.0,14.0,2
1448,-345.0,97.0,8.0,2
1449,-299.0,133.0,0.0,2
1450,-248.0,159.0,-2.0,2
1451,-217.0,171.0,-6.0,2
1452,-179.0,165.0,-24.0,2
1453,-169.0,149.0,-29.0,2
1454,-158.0,126.0,-32.0,2
1455,-148.0,101.0,-37.0,2
1456,-154.0,75.0,-30.0,2
1457,-176.0,56.0,-44.0,2
1458,-189.0,26.0,-38.0,2
1459,-201.0,17.0,-61.0,2
1460,-193.0,8.0,-64.0,2
1461,-194.0,14.0,-74.0,2
1462,-201.0,35.0,-65.0,2
1463,-193.0,120.0,-80.0,2
1464,-183.0,113.0,-66.0,2
1465,-208.0,122.0,-65.0,2
1466,-246.0,139.0,-57.0,2
1467,-294.0,218.0,-57.0,2
1468,-331.0,224.0,-47.0,2
1469,-361.0,323.0,-94.0,2
1470,-396.0,421.0,-147.0,2
1471,-655.0,647.0,-289.0,2
1472,-614.0,759.0,-326.0,2
1473,-530.0,709.0,-237.0,2
1474,-404.0,667.0,-244.0,2
1475,-237.0,547.0,-236.0,2
1476,-419.0,633.0,-371.0,2
1477,-339.0,301.0,-434.0,2
1478,-628.0,234.0,-500.0,2
1479,-669.0,159.0,-522.0,2
1480,-587.0,172.0,-562.0,2
1481,-570.0,401.0,-638.0,2
1482,-463.0,346.0,-545.0,2
1483,-477.0,357.0,-471.0,2
1484,-445.0,371.0,-452.0,2
1485,-380.0,285.0,-443.0,2
1486,-354.0,197.0,-412.0,2
1487,-341.0,192.0,-357.0,2
1488,-269.0,158.0,-274.0,2
1489,-248.0,136.0,-219.0,2
1490,-239.0,172.0,-167.0,2
1491,-201.0,198.0,-128.0,2
1492,-173.0,218.0,-87.0,2
1493,-158.0,212.0,-80.0,2
1494,-146.0,201.0,-79.0,2
1495,-133.0,205.0,-72.0,2
1496,-118.0,210.0,-63.0,2
1497,-112.0,220.0,-50.0,2
1498,-111.0,207.0,-46.0,1
1499,-105.0,204.0,-33.0,1
1500,-108.0,185.0,-22.0,1
1501,-123.0,174.0,-21.0,1
1502,-126.0,152.0,-19.0,1
1503,-118.0,139.0,-23.0,1
1504,-110.0,131.0,-31.0,1
1505,-112.0,130.0,-37.0,1
1506,-123.0,132.0,-40.0,1
1507,-121.0,127.0,-46.0,1
1508,-123.0,129.0,-48.0,1
1509,-122.0,127.0,-59.0,1
1510,-131.0,126.0,-62.0,1
1511,-144.0,124.0,-54.0,1
1512,-162.0,116.0,-52.0,1
1513,-159.0,106.0,-50.0,1
1514,-149.0,94.0,-50.0,1
1515,-132.0,93.0,-55.0,1
1516,-95.0,85.0,-75.0,1
1517,-70.0,91.0,-93.0,1
1518,-55.0,92.0,-95.0,1
1519,-54.0,85.0,-98.0,1
1520,-79.0,80.0,-100.0,1
1521,-93.0,69.0,-98.0,1
1522,-92.0,74.0,-95.0,1
1523,-101.0,85.0,-93.0,1
1524,-95.0,80.0,-94.0,1
1525,-104.0,82.0,-105.0,1
1526,-111.0,87.0,-111.0,1
1527,-129.0,91.0,-113.0,1
1528,-135.0,100.0,-121.0,1
1529,-153.0,100.0,-129.0,1
1530,-154.0,88.0,-146.0,1
1531,-160.0,93.0,-156.0,1
1532,-175.0,96.0,-165.0,1
1533,-173.0,93.0,-180.0,1
1534,-180.0,91.0,-194.0,1
1535,-178.0,87.0,-201.0,1
1536,-186.0,85.0,-211.0,1
1537,-187.0,83.0,-220.0,1
1538,-189.0,85.0,-233.0,1
1539,-188.0,84.0,-238.0,1
1540,-193.0,78.0,-250.0,1
1541,-194.0,75.0,-251.0,1
1542,-194.0,75.0,-256.0,1
1543,-198.0,75.0,-260.0,1
1544,-195.0,74.0,-257.0,1
1545,-196.0,70.0,-251.0,1
1546,-194.0,81.0,-263.0,1
1547,-191.0,75.0,-260.0,1
1548,-182.0,81.0,-259.0,1
1549,-185.0,87.0,-257.0,1
1550,-181.0,87.0,-257.0,1
1551,-192.0,126.0,-268.0,1
1552,-178.0,103.0,-248.0,1
1553,-171.0,93.0,-242.0,0
1554,-173.0,83.0,-233.0,0
1555,-170.0,78.0,-224.0,0
1556,-173.0,66.0,-210.0,0
1557,-163.0,58.0,-215.0,0
1558,-155.0,47.0,-203.0,0
1559,-159.0,39.0,-199.0,0
1560,-136.0,27.0,-194.0,0
1561,-140.0,25.0,-195.0,0
1562,-147.0,22.0,-181.0,0
1563,-124.0,3.0,-183.0,0
1564,-128.0,0.0,-187.0,0
1565,-128.0,8.0,-190.0,0
1566,-127.0,5.0,-182.0,0
1567,-120.0,-2.0,-182.0,0
1568,-123.0,0.0,-185.0,0
1569,-127.0,5.0,-184.0,0
1570,-131.0,16.0,-185.0,0
1571,-135.0,33.0,-185.0,0
1572,-132.0,38.0,-184.0,0
1573,-133.0,35.0,-185.0,0
1574,-132.0,39.0,-189.0,0
1575,-132.0,39.0,-189.0,0
1576,-134.0,42.0,-191.0,0
1577,-135.0,43.0,-190.0,0
1578,-133.0,44.0,-193.0,0
1579,-136.0,46.0,-195.0,0
1580,-134.0,46.0,-194.0,0
1581,-134.0,49.0,-194.0,0
1582,-136.0,52.0,-195.0,0
1583,-135.0,49.0,-198.0,0
1584,-139.0,52.0,-194.0,0
1585,-138.0,56.0,-197.0,0
1586,-137.0,53.0,-200.0,0
1587,-141.0,56.0,-199.0,0
1588,-138.0,57.0,-201.0,0
1589,-138.0,60.0,-202.0,0
1590,-138.0,59.0,-202.0,0
1591,-142.0,61.0,-200.0,0
1592,-144.0,59.0,-206.0,0
1593,-143.0,61.0,-205.0,0
1594,-145.0,61.0,-207.0,0
1595,-147.0,60.0,-204.0,0
1596,-149.0,62.0,-204.0,0
1597,-149.0,62.0,-206.0,0
1598,-151.0,61.0,-206.0,0
1599,-147.0,64.0,-202.0,0
1600,-149.0,64.0,-204.0,0
1601,-149.0,62.0,-201.0,0
1602,-153.0,69.0,-196.0,0
1603,-149.0,65.0,-193.0,0
1604,-152.0,63.0,-193.0,0
1605,-149.0,64.0,-190.0,0
1606,-150.0,67.0,-190.0,0
1607,-142.0,71.0,-190.0,0
1608,-150.0,65.0,-186.0,0
1609,-148.0,66.0,-189.0,0
1610,-148.0,65.0,-185.0,0
1611,-146.0,66.0,-185.0,0
1612,-148.0,64.0,-179.0,0
1613,-145.0,64.0,-183.0,0
1614,-144.0,63.0,-182.0,0
1615,-145.0,64.0,-182.0,0
1616,-143.0,61.0,-182.0,0
1617,-145.0,63.0,-174.0,0
1618,-140.0,61.0,-176.0,0
1619,-144.0,62.0,-178.0,0
1620,-146.0,61.0,-180.0,0
1621,-141.0,62.0,-178.0,0
1622,-144.0,62.0,-181.0,0
1623,-148.0,61.0,-180.0,0
1624,-144.0,60.0,-181.0,0
1625,-142.0,60.0,-182.0,0
1626,-148.0,60.0,-181.0,0
1627,-144.0,59.0,-183.0,0
1628,-147.0,59.0,-183.0,0
1629,-149.0,63.0,-185.0,0
1630,-146.0,60.0,-185.0,0
1631,-144.0,60.0,-185.0,0
1632,-150.0,60.0,-186.0,0
1633,-145.0,58.0,-189.0,0
1634,-148.0,60.0,-189.0,0
1635,-149.0,60.0,-189.0,0
1636,-149.0,58.0,-187.0,0
1637,-149.0,59.0,-192.0,0
1638,-148.0,60.0,-194.0,0
1639,-146.0,58.0,-193.0,0
1640,-145.0,61.0,-178.0,0
1641,-148.0,59.0,-193.0,0
1642,-148.0,58.0,-193.0,0
1643,-146.0,59.0,-193.0,0
1644,-147.0,59.0,-195.0,0
1645,-149.0,59.0,-195.0,0
1646,-149.0,56.0,-192.0,0
1647,-147.0,57.0,-193.0,0
1648,-145.0,56.0,-194.0,0
1649,-146.0,59.0,-191.0,0
1650,-145.0,56.0,-196.0,0
1651,-148.0,61.0,-198.0,0
1652,-145.0,60.0,-192.0,0
1653,-145.0,59.0,-194.0,0
1654,-143.0,57.0,-196.0,0
1655,-145.0,56.0,-190.0,0
1656,-144.0,60.0,-192.0,0
1657,-145.0,61.0,-193.0,0
1658,-144.0,60.0,-195.0,0
1659,-146.0,61.0,-188.0,0
1660,-143.0,58.0,-194.0,0
1661,-144.0,60.0,-191.0,0
1662,-142.0,60.0,-195.0,0
1663,-143.0,59.0,-192.0,0
1664,-143.0,60.0,-194.0,0
1665,-142.0,61.0,-193.0,0
1666,-142.0,59.0,-192.0,0
1667,-143.0,59.0,-189.0,0
1668,-141.0,59.0,-193.0,0
1669,-142.0,62.0,-190.0,0
1670,-142.0,61.0,-190.0,0
1671,-138.0,62.0,-193.0,0
1672,-142.0,58.0,-191.0,0
1673,-144.0,63.0,-192.0,0
1674,-146.0,63.0,-189.0,0
1675,-142.0,59.0,-194.0,0
1676,-144.0,61.0,-194.0,0
1677,-144.0,60.0,-191.0,0
1678,-142.0,62.0,-190.0,0
1679,-142.0,62.0,-193.0,0
1680,-142.0,61.0,-192.0,0
1681,-147.0,59.0,-192.0,0
1682,-142.0,60.0,-190.0,0
1683,-143.0,58.0,-190.0,0
1684,-143.0,62.0,-191.0,0
1685,-143.0,59.0,-188.0,0
1686,-142.0,58.0,-191.0,0
1687,-140.0,58.0,-191.0,0
1688,-143.0,59.0,-191.0,0
1689,-142.0,60.0,-191.0,0
1690,-146.0,60.0,-190.0,0
1691,-142.0,59.0,-197.0,0
1692,-144.0,61.0,-191.0,0
1693,-142.0,60.0,-193.0,0
1694,-144.0,58.0,-192.0,0
1695,-144.0,60.0,-194.0,0
1696,-143.0,60.0,-190.0,0
1697,-144.0,60.0,-189.0,0
1698,-142.0,59.0,-191.0,0
1699,-144.0,59.0,-187.0,0
1700,-144.0,61.0,-189.0,0
1701,-147.0,62.0,-190.0,0
1702,-146.0,57.0,-185.0,0
1703,-144.0,59.0,-191.0,0
1704,-147.0,62.0,-188.0,0
1705,-144.0,61.0,-187.0,0
1706,-144.0,58.0,-189.0,0
1707,-142.0,59.0,-192.0,0
1708,-146.0,63.0,-188.0,0
1709,-143.0,60.0,-190.0,0
1710,-146.0,60.0,-188.0,0
1711,-147.0,63.0,-188.0,0
1712,-144.0,60.0,-189.0,0
1713,-141.0,59.0,-190.0,0
1714,-148.0,61.0,-187.0,0
1715,-145.0,60.0,-189.0,0
1716,-143.0,58.0,-185.0,0
1717,-143.0,59.0,-190.0,0
1718,-144.0,60.0,-190.0,0
1719,-143.0,61.0,-192.0,0
1720,-143.0,59.0,-188.0,0
1721,-142.0,59.0,-194.0,0
1722,-143.0,61.0,-191.0,0
1723,-145.0,61.0,-190.0,0
1724,-145.0,61.0,-190.0,0
1725,-143.0,61.0,-192.0,0
1726,-143.0,63.0,-193.0,0
1727,-140.0,59.0,-190.0,0
1728,-141.0,60.0,-190.0,0
1729,-145.0,60.0,-195.0,0
1730,-143.0,60.0,-189.0,0
1731,-144.0,62.0,-190.0,0
1732,-139.0,60.0,-192.0,0
1733,-143.0,60.0,-192.0,0
1734,-144.0,60.0,-192.0,0
1735,-142.0,60.0,-194.0,0
1736,-138.0,58.0,-193.0,0
1737,-142.0,60.0,-192.0,0
1738,-140.0,58.0,-191.0,0
1739,-145.0,60.0,-193.0,0
1740,-144.0,61.0,-194.0,0
1741,-142.0,60.0,-190.0,0
1742,-142.0,60.0,-193.0,0
1743,-141.0,62.0,-195.0,0
1744,-143.0,60.0,-192.0,0
1745,-146.0,63.0,-192.0,0
1746,-144.0,63.0,-193.0,0
1747,-141.0,61.0,-195.0,0
1748,-144.0,59.0,-192.0,0
1749,-147.0,74.0,-189.0,0
1750,-142.0,59.0,-195.0,0
1751,-142.0,60.0,-192.0,0
1752,-143.0,61.0,-193.0,0
1753,-142.0,59.0,-197.0,0
1754,-141.0,61.0,-195.0,0
1755,-140.0,60.0,-191.0,0
1756,-139.0,56.0,-189.0,0
1757,-144.0,58.0,-192.0,0
1758,-143.0,61.0,-191.0,0
1759,-141.0,60.0,-195.0,0
1760,-143.0,61.0,-191.0,0
1761,-142.0,60.0,-191.0,0
1762,-141.0,60.0,-190.0,0
1763,-144.0,60.0,-193.0,0
1764,-142.0,62.0,-186.0,0
1765,-142.0,60.0,-194.0,0
1766,-144.0,60.0,-190.0,0
1767,-143.0,62.0,-193.0,0
1768,-143.0,60.0,-195.0,0
1769,-144.0,59.0,-191.0,0
1770,-140.0,59.0,-193.0,0
1771,-143.0,60.0,-193.0,0
1772,-145.0,61.0,-193.0,0
1773,-140.0,59.0,-189.0,0
1774,-142.0,60.0,-190.0,0
1775,-144.0,61.0,-188.0,0
1776,-142.0,59.0,-190.0,0
1777,-141.0,61.0,-193.0,0
1778,-146.0,61.0,-190.0,0
1779,-144.0,61.0,-192.0,0
1780,-148.0,61.0,-195.0,0
1781,-142.0,60.0,-188.0,0
1782,-140.0,60.0,-193.0,0
1783,-143.0,59.0,-188.0,0
1784,-143.0,60.0,-190.0,0
1785,-141.0,61.0,-192.0,0
1786,-146.0,61.0,-189.0,0
1787,-143.0,62.0,-194.0,0
1788,-142.0,61.0,-195.0,0
1789,-142.0,57.0,-191.0,0
1790,-142.0,61.0,-191.0,0
1791,-149.0,63.0,-190.0,0
1792,-142.0,59.0,-191.0,0
1793,-146.0,59.0,-194.0,0
1794,-144.0,57.0,-191.0,0
1795,-142.0,60.0,-189.0,0
1796,-143.0,63.0,-191.0,0
1797,-144.0,60.0,-189.0,0
1798,-142.0,60.0,-191.0,0
1799,-141.0,61.0,-189.0,0
1800,-145.0,60.0,-194.0,0
1801,-142.0,59.0,-192.0,0
1802,-143.0,58.0,-193.0,0
1803,-142.0,57.0,-191.0,0
1804,-143.0,60.0,-190.0,0
1805,-141.0,60.0,-191.0,0
1806,-143.0,61.0,-196.0,0
1807,-142.0,59.0,-191.0,0
1808,-143.0,62.0,-191.0,0
1809,-141.0,60.0,-191.0,0
1810,-145.0,63.0,-189.0,0
1811,-141.0,60.0,-188.0,0
1812,-145.0,59.0,-192.0,0
1813,-140.0,58.0,-192.0,0
1814,-143.0,60.0,-193.0,0
1815,-142.0,60.0,-192.0,0
1816,-140.0,59.0,-194.0,0
1817,-142.0,61.0,-191.0,0
1818,-142.0,58.0,-193.0,0
1819,-143.0,57.0,-187.0,0
1820,-142.0,62.0,-190.0,0
1821,-139.0,59.0,-194.0,0
1822,-142.0,59.0,-192.0,0
1823,-144.0,59.0,-192.0,0
1824,-143.0,59.0,-191.0,0
1825,-140.0,60.0,-193.0,0
1826,-141.0,60.0,-189.0,0
1827,-141.0,62.0,-193.0,0
1828,-144.0,61.0,-193.0,0
1829,-143.0,60.0,-190.0,0
1830,-141.0,58.0,-191.0,0
1831,-146.0,62.0,-192.0,0
1832,-141.0,61.0,-193.0,0
1833,-142.0,61.0,-190.0,0
1834,-143.0,59.0,-194.0,0
1835,-145.0,61.0,-192.0,0
1836,-142.0,61.0,-192.0,0
1837,-141.0,60.0,-193.0,0
1838,-146.0,62.0,-192.0,0
1839,-141.0,62.0,-194.0,0
1840,-141.0,63.0,-194.0,0
1841,-143.0,61.0,-186.0,0
1842,-143.0,60.0,-192.0,0
1843,-140.0,60.0,-192.0,0
1844,-141.0,61.0,-199.0,0
1845,-141.0,59.0,-190.0,0
1846,-142.0,60.0,-191.0,0
1847,-143.0,62.0,-191.0,0
1848,-143.0,60.0,-187.0,0
1849,-144.0,61.0,-192.0,0
1850,-144.0,61.0,-192.0,0
1851,-142.0,63.0,-192.0,0
1852,-137.0,60.0,-193.0,0
1853,-141.0,63.0,-191.0,0
1854,-143.0,62.0,-191.0,0
1855,-141.0,61.0,-189.0,0
1856,-143.0,60.0,-189.0,0
1857,-140.0,62.0,-194.0,0
1858,-142.0,67.0,-194.0,0
1859,-143.0,60.0,-192.0,0
1860,-143.0,60.0,-188.0,0
1861,-142.0,58.0,-192.0,0
1862,-141.0,59.0,-189.0,0
1863,-145.0,60.0,-190.0,0
1864,-143.0,59.0,-194.0,0
1865,-141.0,63.0,-188.0,0
1866,-144.0,63.0,-191.0,0
1867,-142.0,59.0,-193.0,0
1868,-142.0,60.0,-194.0,0
1869,-142.0,61.0,-191.0,0
1870,-139.0,61.0,-192.0,0
1871,-146.0,61.0,-190.0,0
1872,-143.0,62.0,-189.0,0
1873,-144.0,58.0,-189.0,0
1874,-143.0,60.0,-192.0,0
1875,-144.0,61.0,-191.0,0
1876,-142.0,60.0,-190.0,0
1877,-142.0,59.0,-192.0,0
1878,-145.0,60.0,-195.0,0
1879,-142.0,60.0,-190.0,0
1880,-143.0,59.0,-193.0,0
1881,-142.0,60.0,-193.0,0
1882,-143.0,60.0,-190.0,0
1883,-143.0,61.0,-191.0,0
1884,-140.0,61.0,-192.0,0
1885,-141.0,60.0,-191.0,0
1886,-143.0,62.0,-192.0,0
1887,-143.0,60.0,-193.0,0
1888,-147.0,62.0,-192.0,0
1889,-144.0,60.0,-191.0,0
1890,-144.0,59.0,-192.0,0
1891,-140.0,59.0,-191.0,0
1892,-142.0,62.0,-191.0,0
1893,-142.0,58.0,-193.0,0
1894,-143.0,60.0,-194.0,0
1895,-142.0,60.0,-191.0,0
1896,-145.0,59.0,-192.0,0
1897,-145.0,61.0,-192.0,0
1898,-144.0,62.0,-192.0,0
1899,-142.0,61.0,-195.0,0
1900,-142.0,60.0,-191.0,0
1901,-140.0,60.0,-188.0,0
1902,-144.0,59.0,-192.0,0
1903,-145.0,63.0,-190.0,0
1904,-144.0,62.0,-192.0,0
1905,-143.0,60.0,-192.0,0
1906,-143.0,61.0,-190.0,0
1907,-141.0,60.0,-190.0,0
1908,-143.0,63.0,-190.0,0
1909,-142.0,61.0,-188.0,0
1910,-139.0,59.0,-191.0,0
1911,-141.0,61.0,-194.0,0
1912,-144.0,61.0,-192.0,0
1913,-143.0,60.0,-194.0,0
1914,-146.0,60.0,-192.0,0
1915,-143.0,61.0,-189.0,0
1916,-141.0,62.0,-191.0,0
1917,-141.0,60.0,-193.0,0
1918,-144.0,60.0,-194.0,0
1919,-141.0,59.0,-188.0,0
1920,-144.0,61.0,-189.0,0
1921,-144.0,62.0,-188.0,0
1922,-138.0,60.0,-190.0,0
1923,-141.0,58.0,-192.0,0
1924,-141.0,62.0,-190.0,0
1925,-142.0,58.0,-189.0,0
1926,-142.0,59.0,-191.0,0
1927,-143.0,60.0,-192.0,0
1928,-140.0,59.0,-191.0,0
1929,-143.0,61.0,-189.0,0
1930,-142.0,60.0,-190.0,0
1931,-143.0,61.0,-189.0,0
1932,-146.0,61.0,-191.0,0
1933,-141.0,58.0,-192.0,0
1934,-144.0,62.0,-170.0,0
1935,-142.0,62.0,-195.0,0
1936,-143.0,60.0,-193.0,0
1937,-141.0,62.0,-194.0,0
1938,-142.0,61.0,-197.0,0
1939,-142.0,60.0,-193.0,0
1940,-139.0,59.0,-197.0,0
1941,-142.0,61.0,-195.0,0
1942,-143.0,60.0,-194.0,0
1943,-143.0,61.0,-196.0,0
1944,-143.0,62.0,-192.0,0
1945,-143.0,60.0,-194.0,0
1946,-142.0,60.0,-195.0,0
1947,-139.0,60.0,-193.0,0
1948,-139.0,59.0,-192.0,0
1949,-143.0,59.0,-191.0,0
1950,-142.0,60.0,-191.0,0
1951,-143.0,61.0,-192.0,0
1952,-140.0,59.0,-192.0,0
1953,-142.0,60.0,-190.0,0
1954,-138.0,61.0,-193.0,0
1955,-143.0,60.0,-195.0,0
1956,-143.0,58.0,-196.0,0
1957,-143.0,64.0,-195.0,0
1958,-141.0,60.0,-193.0,0
1959,-147.0,63.0,-195.0,0
1960,-141.0,61.0,-190.0,0
1961,-144.0,61.0,-198.0,0
1962,-142.0,59.0,-195.0,0
1963,-143.0,62.0,-196.0,0
1964,-143.0,56.0,-194.0,0
1965,-146.0,63.0,-192.0,0
1966,-144.0,64.0,-194.0,0
1967,-145.0,63.0,-188.0,0
1968,-145.0,61.0,-190.0,0
1969,-142.0,60.0,-190.0,0
1970,-142.0,60.0,-194.0,0
1971,-142.0,63.0,-191.0,0
1972,-141.0,61.0,-194.0,0
1973,-143.0,61.0,-192.0,0
1974,-144.0,61.0,-192.0,0
1975,-148.0,59.0,-191.0,0
1976,-144.0,60.0,-191.0,0
1977,-143.0,61.0,-187.0,0
1978,-140.0,61.0,-189.0,0
1979,-143.0,60.0,-189.0,0
1980,-145.0,62.0,-189.0,0
1981,-143.0,61.0,-190.0,0
1982,-143.0,62.0,-192.0,0
1983,-145.0,62.0,-189.0,0
1984,-144.0,60.0,-191.0,0
1985,-141.0,60.0,-189.0,0
1986,-140.0,60.0,-192.0,0
1987,-142.0,61.0,-187.0,0
1988,-142.0,59.0,-190.0,0
1989,-141.0,59.0,-188.0,0
1990,-143.0,60.0,-192.0,0
1991,-145.0,60.0,-186.0,0
1992,-145.0,59.0,-188.0,0
1993,-144.0,61.0,-190.0,0
1994,-145.0,60.0,-192.0,0
1995,-145.0,60.0,-191.0,0
1996,-141.0,57.0,-189.0,0
1997,-143.0,60.0,-195.0,0
1998,-145.0,60.0,-194.0,0
1999,-145.0,60.0,-194.0,0
2000,-145.0,76.0,-187.0,0
2001,-147.0,63.0,-194.0,0
2002,-141.0,61.0,-190.0,0
2003,-144.0,60.0,-190.0,0
2004,-144.0,60.0,-192.0,0
2005,-146.0,61.0,-190.0,0
2006,-143.0,60.0,-194.0,0
2007,-142.0,60.0,-192.0,0
2008,-145.0,62.0,-192.0,0
2009,-146.0,60.0,-192.0,0
2010,-147.0,71.0,-178.0,0
2011,-143.0,60.0,-192.0,0
2012,-140.0,58.0,-190.0,0
2013,-144.0,61.0,-190.0,0
2014,-142.0,60.0,-191.0,0
2015,-146.0,62.0,-193.0,0
2016,-142.0,59.0,-191.0,0
2017,-145.0,61.0,-189.0,0
2018,-149.0,61.0,-191.0,0
2019,-145.0,60.0,-188.0,0
2020,-141.0,58.0,-191.0,0
2021,-145.0,58.0,-189.0,0
2022,-143.0,59.0,-189.0,0
2023,-143.0,61.0,-188.0,0
2024,-146.0,60.0,-189.0,0
2025,-145.0,62.0,-191.0,0
2026,-144.0,57.0,-192.0,0
2027,-145.0,63.0,-190.0,0
2028,-146.0,63.0,-191.0,0
2029,-142.0,60.0,-191.0,0
2030,-145.0,60.0,-194.0,0
2031,-142.0,61.0,-192.0,0
2032,-146.0,60.0,-191.0,0
2033,-147.0,63.0,-189.0,0
2034,-145.0,61.0,-194.0,0
2035,-146.0,63.0,-190.0,0
2036,-146.0,58.0,-191.0,0
2037,-145.0,59.0,-192.0,0
2038,-145.0,61.0,-187.0,0
2039,-147.0,60.0,-189.0,0
2040,-148.0,60.0,-190.0,0
2041,-145.0,61.0,-190.0,0
2042,-145.0,62.0,-190.0,0
2043,-141.0,60.0,-188.0,0
2044,-147.0,62.0,-193.0,0
2045,-141.0,59.0,-189.0,0
2046,-148.0,61.0,-189.0,0
2047,-146.0,61.0,-185.0,0
2048,-143.0,60.0,-186.0,0
2049,-145.0,61.0,-189.0,0
2050,-147.0,61.0,-190.0,0
2051,-146.0,61.0,-189.0,0
2052,-148.0,62.0,-191.0,0
2053,-145.0,60.0,-189.0,0
2054,-145.0,60.0,-192.0,0
2055,-147.0,59.0,-188.0,0
2056,-148.0,61.0,-191.0,0
2057,-145.0,60.0,-186.0,0
2058,-148.0,61.0,-188.0,0
2059,-146.0,61.0,-189.0,0
2060,-144.0,60.0,-188.0,0
2061,-144.0,60.0,-189.0,0
2062,-151.0,62.0,-187.0,0
2063,-147.0,60.0,-186.0,0
2064,-148.0,61.0,-189.0,0
2065,-148.0,61.0,-189.0,0
2066,-144.0,59.0,-186.0,0
2067,-146.0,60.0,-189.0,0
2068,-144.0,60.0,-190.0,0
2069,-147.0,60.0,-188.0,0
2070,-146.0,59.0,-193.0,0
2071,-148.0,59.0,-188.0,0
2072,-150.0,63.0,-191.0,0
2073,-147.0,61.0,-187.0,0
2074,-147.0,60.0,-188.0,0
2075,-145.0,60.0,-189.0,0
2076,-147.0,73.0,-196.0,0
2077,-148.0,60.0,-187.0,0
2078,-146.0,62.0,-188.0,0
2079,-146.0,59.0,-189.0,0
2080,-150.0,63.0,-189.0,0
2081,-149.0,59.0,-190.0,0
2082,-148.0,61.0,-188.0,0
2083,-146.0,59.0,-189.0,0
2084,-149.0,60.0,-186.0,0
2085,-146.0,61.0,-185.0,0
2086,-147.0,58.0,-190.0,0
2087,-148.0,59.0,-189.0,0
2088,-149.0,60.0,-187.0,0
2089,-147.0,60.0,-186.0,0
2090,-145.0,60.0,-190.0,0
2091,-149.0,61.0,-189.0,0
2092,-150.0,62.0,-187.0,0
2093,-148.0,62.0,-189.0,0
2094,-147.0,61.0,-188.0,0
2095,-148.0,60.0,-188.0,0
2096,-149.0,60.0,-186.0,0
2097,-149.0,64.0,-191.0,0
2098,-146.0,58.0,-189.0,0
2099,-147.0,60.0,-186.0,0
2100,-147.0,60.0,-190.0,0
2101,-149.0,61.0,-189.0,0
2102,-147.0,60.0,-191.0,0
2103,-149.0,59.0,-192.0,0
2104,-147.0,59.0,-190.0,0
2105,-144.0,52.0,-186.0,0
2106,-133.0,53.0,-192.0,0
2107,-153.0,62.0,-188.0,0
2108,-150.0,60.0,-188.0,0
2109,-149.0,60.0,-194.0,0
2110,-150.0,60.0,-188.0,0
2111,-146.0,59.0,-189.0,0
2112,-147.0,61.0,-186.0,0
2113,-151.0,60.0,-189.0,0
2114,-146.0,60.0,-187.0,0
2115,-147.0,60.0,-189.0,0
2116,-146.0,60.0,-186.0,0
2117,-152.0,59.0,-190.0,0
2118,-148.0,59.0,-186.0,0
2119,-151.0,51.0,-188.0,0
2120,-146.0,59.0,-186.0,0
2121,-148.0,61.0,-185.0,0
2122,-151.0,60.0,-187.0,0
2123,-146.0,61.0,-188.0,0
2124,-149.0,59.0,-185.0,0
2125,-145.0,59.0,-187.0,0
2126,-151.0,61.0,-187.0,0
2127,-147.0,60.0,-189.0,0
2128,-147.0,59.0,-186.0,0
2129,-148.0,59.0,-186.0,0
2130,-148.0,59.0,-191.0,0
2131,-151.0,61.0,-188.0,0
2132,-149.0,61.0,-184.0,0
2133,-150.0,60.0,-186.0,0
2134,-150.0,59.0,-185.0,0
2135,-148.0,60.0,-187.0,0
2136,-150.0,59.0,-187.0,0
2137,-150.0,59.0,-187.0,0
2138,-145.0,56.0,-187.0,0
2139,-148.0,57.0,-187.0,0
2140,-147.0,60.0,-188.0,0
2141,-148.0,61.0,-189.0,0
2142,-148.0,60.0,-191.0,0
2143,-151.0,60.0,-186.0,0
2144,-146.0,59.0,-189.0,0
2145,-150.0,60.0,-190.0,0
2146,-148.0,60.0,-189.0,0
2147,-149.0,60.0,-189.0,0
2148,-150.0,60.0,-192.0,0
2149,-148.0,60.0,-188.0,0
2150,-149.0,59.0,-186.0,0
2151,-152.0,62.0,-188.0,0
2152,-150.0,61.0,-188.0,0
2153,-151.0,63.0,-186.0,0
2154,-147.0,60.0,-186.0,0
2155,-151.0,61.0,-188.0,0
2156,-151.0,60.0,-185.0,0
2157,-151.0,61.0,-186.0,0
2158,-150.0,60.0,-185.0,0
2159,-148.0,59.0,-187.0,0
2160,-150.0,61.0,-186.0,0
2161,-147.0,56.0,-185.0,0
2162,-147.0,60.0,-188.0,0
2163,-149.0,60.0,-191.0,0
2164,-151.0,62.0,-189.0,0
2165,-149.0,60.0,-191.0,0
2166,-148.0,61.0,-186.0,0
2167,-150.0,58.0,-186.0,0
2168,-152.0,60.0,-185.0,0
2169,-151.0,61.0,-187.0,0
2170,-149.0,59.0,-186.0,0
2171,-148.0,59.0,-186.0,0
2172,-152.0,61.0,-185.0,0
2173,-149.0,61.0,-186.0,0
2174,-149.0,60.0,-190.0,0
2175,-149.0,60.0,-187.0,0
2176,-152.0,59.0,-186.0,0
2177,-149.0,60.0,-187.0,0
2178,-148.0,61.0,-184.0,0
2179,-152.0,59.0,-184.0,0
2180,-149.0,60.0,-189.0,0
2181,-148.0,60.0,-186.0,0
2182,-151.0,60.0,-188.0,0
2183,-150.0,61.0,-188.0,0
2184,-149.0,58.0,-187.0,0
2185,-160.0,63.0,-191.0,0
2186,-148.0,61.0,-188.0,0
2187,-151.0,60.0,-186.0,0
2188,-151.0,58.0,-184.0,0
2189,-149.0,59.0,-189.0,0
2190,-153.0,61.0,-186.0,0
2191,-151.0,60.0,-186.0,0
2192,-156.0,62.0,-189.0,0
2193,-150.0,60.0,-185.0,0
2194,-148.0,59.0,-186.0,0
2195,-152.0,60.0,-188.0,0
2196,-152.0,61.0,-185.0,0
2197,-149.0,60.0,-185.0,0
2198,-149.0,58.0,-186.0,0
2199,-151.0,62.0,-186.0,0
2200,-152.0,59.0,-182.0,0
2201,-148.0,61.0,-190.0,0
2202,-149.0,59.0,-187.0,0
2203,-149.0,59.0,-184.0,0
2204,-150.0,61.0,-188.0,0
2205,-151.0,59.0,-185.0,0
2206,-152.0,61.0,-185.0,0
2207,-151.0,60.0,-185.0,0
2208,-149.0,61.0,-185.0,0
2209,-149.0,61.0,-182.0,0
2210,-150.0,59.0,-191.0,0
2211,-154.0,60.0,-188.0,0
2212,-149.0,61.0,-188.0,0
2213,-152.0,60.0,-190.0,0
2214,-153.0,59.0,-188.0,0
2215,-150.0,61.0,-190.0,0
2216,-151.0,59.0,-186.0,0
2217,-151.0,62.0,-189.0,0
2218,-150.0,60.0,-185.0,0
2219,-150.0,61.0,-187.0,0
2220,-149.0,60.0,-187.0,0
2221,-147.0,59.0,-186.0,0
2222,-150.0,60.0,-184.0,0
2223,-152.0,61.0,-187.0,0
2224,-151.0,63.0,-187.0,0
2225,-148.0,61.0,-190.0,0
2226,-149.0,60.0,-185.0,0
2227,-147.0,60.0,-183.0,0
2228,-147.0,59.0,-188.0,0
2229,-153.0,60.0,-187.0,0
2230,-149.0,60.0,-189.0,0
2231,-148.0,59.0,-186.0,0
2232,-151.0,59.0,-188.0,0
2233,-147.0,59.0,-185.0,0
2234,-151.0,60.0,-184.0,0
2235,-149.0,60.0,-186.0,0
2236,-150.0,60.0,-187.0,0
2237,-151.0,60.0,-185.0,0
2238,-153.0,57.0,-187.0,0
2239,-151.0,63.0,-187.0,0
2240,-150.0,59.0,-185.0,0
2241,-154.0,61.0,-185.0,0
2242,-153.0,61.0,-187.0,0
2243,-152.0,60.0,-188.0,0
2244,-150.0,60.0,-186.0,0
2245,-150.0,58.0,-186.0,0
2246,-151.0,59.0,-186.0,0
2247,-152.0,59.0,-186.0,0
2248,-149.0,60.0,-187.0,0
2249,-148.0,58.0,-188.0,0
2250,-151.0,57.0,-187.0,0
2251,-149.0,58.0,-187.0,0
2252,-151.0,59.0,-186.0,0
2253,-150.0,58.0,-185.0,0
2254,-150.0,59.0,-187.0,0
2255,-148.0,60.0,-185.0,0
2256,-150.0,59.0,-185.0,0
2257,-149.0,60.0,-188.0,0
2258,-150.0,59.0,-185.0,0
2259,-154.0,59.0,-186.0,0
2260,-151.0,58.0,-186.0,0
2261,-151.0,57.0,-186.0,0
2262,-149.0,62.0,-187.0,0
2263,-154.0,59.0,-187.0,0
2264,-150.0,58.0,-186.0,0
2265,-149.0,60.0,-188.0,0
2266,-149.0,60.0,-187.0,0
2267,-152.0,61.0,-189.0,0
2268,-149.0,59.0,-185.0,0
2269,-151.0,62.0,-184.0,0
2270,-150.0,56.0,-185.0,0
2271,-150.0,59.0,-187.0,0
2272,-152.0,59.0,-187.0,0
2273,-151.0,60.0,-186.0,0
2274,-150.0,61.0,-186.0,0
2275,-152.0,60.0,-185.0,0
2276,-146.0,59.0,-186.0,0
2277,-149.0,60.0,-187.0,0
2278,-150.0,58.0,-184.0,0
2279,-152.0,60.0,-183.0,0
2280,-153.0,60.0,-185.0,0
2281,-153.0,60.0,-187.0,0
2282,-152.0,59.0,-188.0,0
2283,-149.0,60.0,-185.0,0
2284,-149.0,60.0,-187.0,0
2285,-153.0,63.0,-185.0,0
2286,-150.0,60.0,-186.0,0
2287,-151.0,59.0,-187.0,0
2288,-153.0,57.0,-186.0,0
2289,-151.0,60.0,-186.0,0
2290,-151.0,58.0,-188.0,0
2291,-152.0,61.0,-187.0,0
2292,-149.0,60.0,-186.0,0
2293,-151.0,61.0,-188.0,0
2294,-149.0,55.0,-186.0,0
2295,-149.0,59.0,-188.0,0
2296,-151.0,61.0,-189.0,0
2297,-152.0,60.0,-186.0,0
2298,-149.0,60.0,-189.0,0
2299,-151.0,57.0,-187.0,0
2300,-150.0,58.0,-187.0,0
2301,-149.0,57.0,-184.0,0
2302,-152.0,60.0,-188.0,0
2303,-156.0,60.0,-186.0,0
2304,-151.0,60.0,-188.0,0
2305,-150.0,59.0,-187.0,0
2306,-151.0,58.0,-187.0,0
2307,-153.0,59.0,-185.0,0
2308,-150.0,60.0,-185.0,0
2309,-151.0,59.0,-185.0,0
2310,-152.0,60.0,-184.0,0
2311,-150.0,59.0,-188.0,0
2312,-152.0,59.0,-186.0,0
2313,-151.0,62.0,-187.0,0
2314,-149.0,57.0,-188.0,0
2315,-150.0,60.0,-188.0,0
2316,-150.0,59.0,-189.0,0
2317,-150.0,60.0,-187.0,0
2318,-152.0,60.0,-189.0,0
2319,-150.0,59.0,-184.0,0
2320,-151.0,60.0,-186.0,0
2321,-151.0,59.0,-185.0,0
2322,-150.0,62.0,-189.0,0
2323,-151.0,60.0,-185.0,0
2324,-150.0,61.0,-187.0,0
2325,-153.0,61.0,-189.0,0
2326,-152.0,62.0,-186.0,0
2327,-150.0,60.0,-188.0,0
2328,-152.0,60.0,-186.0,0
2329,-153.0,62.0,-188.0,0
2330,-149.0,59.0,-188.0,0
2331,-149.0,61.0,-189.0,0
2332,-148.0,57.0,-187.0,0
2333,-149.0,57.0,-187.0,0
2334,-155.0,60.0,-185.0,0
2335,-152.0,59.0,-185.0,0
2336,-151.0,59.0,-186.0,0
2337,-146.0,59.0,-188.0,0
2338,-147.0,58.0,-188.0,0
2339,-149.0,61.0,-185.0,0
2340,-152.0,59.0,-188.0,0
2341,-152.0,60.0,-184.0,0
2342,-147.0,60.0,-185.0,0
2343,-149.0,59.0,-184.0,0
2344,-150.0,60.0,-186.0,0
2345,-151.0,58.0,-187.0,0
2346,-152.0,62.0,-189.0,0
2347,-149.0,59.0,-183.0,0
2348,-150.0,59.0,-187.0,0
2349,-151.0,59.0,-188.0,0
2350,-151.0,59.0,-186.0,0
2351,-148.0,60.0,-187.0,0
2352,-149.0,58.0,-183.0,0
2353,-150.0,60.0,-189.0,0
2354,-148.0,59.0,-191.0,0
2355,-151.0,61.0,-189.0,0
2356,-151.0,59.0,-186.0,0
2357,-151.0,61.0,-188.0,0
2358,-154.0,62.0,-189.0,0
2359,-148.0,58.0,-188.0,0
2360,-151.0,60.0,-188.0,0
2361,-149.0,62.0,-188.0,0
2362,-147.0,60.0,-185.0,0
2363,-149.0,60.0,-186.0,0
2364,-146.0,61.0,-185.0,0
2365,-152.0,60.0,-188.0,0
2366,-152.0,60.0,-188.0,0
2367,-152.0,60.0,-189.0,0
2368,-146.0,59.0,-189.0,0
2369,-151.0,60.0,-184.0,0
2370,-152.0,57.0,-187.0,0
2371,-151.0,61.0,-191.0,0
2372,-149.0,60.0,-184.0,0
2373,-151.0,63.0,-189.0,0
2374,-148.0,61.0,-185.0,0
2375,-151.0,61.0,-187.0,0
2376,-150.0,61.0,-188.0,0
2377,-148.0,61.0,-188.0,0
2378,-150.0,60.0,-189.0,0
2379,-149.0,61.0,-184.0,0
2380,-149.0,63.0,-185.0,0
2381,-150.0,60.0,-183.0,0
2382,-148.0,60.0,-187.0,0
2383,-148.0,59.0,-189.0,0
2384,-151.0,60.0,-188.0,0
2385,-151.0,60.0,-186.0,0
2386,-150.0,60.0,-193.0,0
2387,-147.0,58.0,-187.0,0
2388,-147.0,58.0,-189.0,0
2389,-151.0,59.0,-187.0,0
2390,-147.0,62.0,-188.0,0
2391,-149.0,60.0,-190.0,0
2392,-149.0,60.0,-185.0,0
2393,-149.0,60.0,-188.0,0
2394,-147.0,61.0,-190.0,0
2395,-146.0,61.0,-187.0,0
2396,-149.0,60.0,-187.0,0
2397,-146.0,59.0,-186.0,0
2398,-147.0,60.0,-187.0,0
2399,-149.0,58.0,-191.0,0
2400,-149.0,61.0,-187.0,0
2401,-149.0,62.0,-191.0,0
2402,-145.0,59.0,-191.0,0
2403,-145.0,59.0,-193.0,0
2404,-148.0,59.0,-186.0,0
2405,-151.0,62.0,-187.0,0
2406,-147.0,59.0,-185.0,0
2407,-147.0,60.0,-188.0,0
2408,-147.0,60.0,-185.0,0
2409,-151.0,61.0,-188.0,0
2410,-148.0,61.0,-188.0,0
2411,-147.0,61.0,-184.0,0
2412,-147.0,59.0,-188.0,0
2413,-149.0,60.0,-188.0,0
2414,-149.0,61.0,-191.0,0
2415,-147.0,61.0,-186.0,0
2416,-149.0,61.0,-187.0,0
2417,-149.0,61.0,-190.0,0
2418,-149.0,63.0,-191.0,0
2419,-149.0,63.0,-188.0,0
2420,-145.0,60.0,-187.0,0
2421,-148.0,58.0,-188.0,0
2422,-145.0,59.0,-188.0,0
2423,-148.0,59.0,-189.0,0
2424,-145.0,60.0,-189.0,0
2425,-146.0,59.0,-188.0,0
2426,-147.0,60.0,-192.0,0
2427,-145.0,59.0,-187.0,0
2428,-145.0,60.0,-190.0,0
2429,-146.0,62.0,-188.0,0
2430,-149.0,59.0,-188.0,0
2431,-149.0,60.0,-189.0,0
2432,-151.0,62.0,-193.0,0
2433,-144.0,60.0,-187.0,0
2434,-148.0,59.0,-194.0,0
2435,-144.0,61.0,-190.0,0
2436,-148.0,60.0,-190.0,0
2437,-145.0,58.0,-187.0,0
2438,-146.0,61.0,-187.0,0
2439,-145.0,59.0,-192.0,0
2440,-148.0,63.0,-188.0,0
2441,-147.0,58.0,-190.0,0
2442,-145.0,60.0,-188.0,0
2443,-148.0,59.0,-193.0,0
2444,-147.0,60.0,-190.0,0
2445,-147.0,60.0,-190.0,0
2446,-144.0,60.0,-189.0,0
2447,-148.0,60.0,-187.0,0
2448,-149.0,59.0,-190.0,0
2449,-144.0,58.0,-187.0,0
2450,-146.0,60.0,-191.0,0
2451,-146.0,61.0,-193.0,0
2452,-147.0,60.0,-191.0,0
2453,-149.0,60.0,-187.0,0
2454,-144.0,60.0,-187.0,0
2455,-146.0,61.0,-191.0,0
2456,-147.0,61.0,-192.0,0
2457,-144.0,59.0,-191.0,0
2458,-144.0,59.0,-188.0,0
2459,-146.0,61.0,-186.0,0
2460,-147.0,63.0,-192.0,0
2461,-145.0,60.0,-190.0,0
2462,-144.0,62.0,-190.0,0
2463,-148.0,61.0,-189.0,0
2464,-145.0,60.0,-191.0,0
2465,-147.0,60.0,-188.0,0
2466,-146.0,59.0,-190.0,0
2467,-143.0,60.0,-189.0,0
2468,-148.0,59.0,-172.0,0
2469,-144.0,60.0,-190.0,0
2470,-145.0,58.0,-191.0,0
2471,-144.0,61.0,-191.0,0
2472,-146.0,59.0,-189.0,0
2473,-142.0,59.0,-187.0,0
2474,-144.0,62.0,-189.0,0
2475,-147.0,61.0,-188.0,0
2476,-146.0,59.0,-192.0,0
2477,-147.0,57.0,-189.0,0
2478,-148.0,61.0,-190.0,0
2479,-147.0,58.0,-190.0,0
2480,-146.0,61.0,-194.0,0
2481,-147.0,61.0,-191.0,0
2482,-145.0,59.0,-193.0,0
2483,-146.0,61.0,-190.0,0
2484,-145.0,60.0,-189.0,0
2485,-148.0,60.0,-189.0,0
2486,-144.0,60.0,-190.0,0
2487,-147.0,63.0,-195.0,0
2488,-145.0,61.0,-190.0,0
2489,-148.0,62.0,-190.0,0
2490,-146.0,60.0,-189.0,0
2491,-145.0,60.0,-191.0,0
2492,-144.0,58.0,-192.0,0
2493,-147.0,58.0,-187.0,0
2494,-145.0,59.0,-189.0,0
2495,-145.0,60.0,-190.0,0
2496,-141.0,60.0,-191.0,0
2497,-146.0,60.0,-189.0,0
2498,-150.0,61.0,-188.0,0
2499,-145.0,56.0,-191.0,0
2500,-144.0,61.0,-189.0,0
2501,-145.0,61.0,-190.0,0
2502,-146.0,60.0,-184.0,0
2503,-147.0,61.0,-191.0,0
2504,-146.0,59.0,-190.0,0
2505,-144.0,61.0,-187.0,0
2506,-144.0,60.0,-189.0,0
2507,-144.0,61.0,-191.0,0
2508,-146.0,60.0,-188.0,0
2509,-146.0,60.0,-191.0,0
2510,-147.0,60.0,-187.0,0
2511,-144.0,59.0,-190.0,0
2512,-143.0,61.0,-189.0,0
2513,-147.0,60.0,-186.0,0
2514,-144.0,60.0,-186.0,0
2515,-146.0,60.0,-190.0,0
2516,-145.0,61.0,-189.0,0
2517,-145.0,60.0,-190.0,0
2518,-144.0,60.0,-191.0,0
2519,-147.0,62.0,-191.0,0
2520,-145.0,60.0,-192.0,0
2521,-144.0,60.0,-192.0,0
2522,-146.0,60.0,-188.0,0
2523,-147.0,60.0,-190.0,0
2524,-147.0,63.0,-189.0,0
2525,-145.0,57.0,-186.0,0
2526,-146.0,61.0,-189.0,0
2527,-147.0,62.0,-188.0,0
2528,-145.0,59.0,-192.0,0
2529,-146.0,59.0,-189.0,0
2530,-149.0,59.0,-191.0,0
2531,-147.0,61.0,-187.0,0
2532,-148.0,60.0,-195.0,0
2533,-149.0,61.0,-189.0,0
2534,-146.0,60.0,-191.0,0
2535,-149.0,62.0,-189.0,0
2536,-147.0,60.0,-189.0,0
2537,-151.0,59.0,-187.0,0
2538,-146.0,60.0,-189.0,0
2539,-147.0,60.0,-190.0,0
2540,-148.0,59.0,-186.0,0
2541,-145.0,55.0,-191.0,0
2542,-148.0,60.0,-187.0,0
2543,-150.0,60.0,-187.0,0
2544,-147.0,56.0,-169.0,0
2545,-148.0,60.0,-190.0,0
2546,-149.0,60.0,-188.0,0
2547,-148.0,58.0,-188.0,0
2548,-149.0,60.0,-189.0,0
2549,-147.0,60.0,-188.0,0
2550,-144.0,59.0,-190.0,0
2551,-151.0,61.0,-188.0,0
2552,-148.0,60.0,-188.0,0
2553,-143.0,60.0,-189.0,0
2554,-145.0,62.0,-186.0,0
2555,-144.0,64.0,-187.0,0
2556,-143.0,60.0,-184.0,0
2557,-144.0,60.0,-182.0,0
2558,-148.0,62.0,-183.0,0
2559,-144.0,60.0,-185.0,0
2560,-145.0,60.0,-184.0,0
2561,-146.0,60.0,-184.0,0
2562,-148.0,58.0,-184.0,0
2563,-155.0,63.0,-186.0,0
2564,-148.0,59.0,-187.0,0
2565,-145.0,54.0,-186.0,0
2566,-142.0,58.0,-193.0,0
2567,-148.0,60.0,-191.0,0
2568,-149.0,60.0,-191.0,0
2569,-148.0,61.0,-187.0,0
2570,-147.0,60.0,-192.0,0
2571,-143.0,59.0,-189.0,0
2572,-149.0,60.0,-192.0,0
2573,-146.0,57.0,-194.0,0
2574,-147.0,59.0,-195.0,0
2575,-149.0,60.0,-195.0,0
2576,-145.0,59.0,-195.0,0
2577,-147.0,58.0,-187.0,0
2578,-146.0,59.0,-196.0,0
2579,-149.0,59.0,-193.0,0
2580,-148.0,58.0,-194.0,0
2581,-148.0,59.0,-193.0,0
2582,-151.0,60.0,-191.0,0
2583,-147.0,55.0,-187.0,0
2584,-144.0,57.0,-189.0,0
2585,-148.0,56.0,-186.0,0
2586,-147.0,57.0,-186.0,0
2587,-144.0,60.0,-189.0,0
2588,-147.0,59.0,-190.0,0
2589,-144.0,60.0,-185.0,0
2590,-146.0,58.0,-191.0,0
2591,-148.0,60.0,-187.0,0
2592,-142.0,61.0,-187.0,0
2593,-145.0,59.0,-189.0,0
2594,-146.0,60.0,-187.0,0
2595,-147.0,60.0,-185.0,0
2596,-146.0,60.0,-185.0,0
2597,-146.0,60.0,-186.0,0
2598,-148.0,62.0,-185.0,0
2599,-148.0,63.0,-185.0,0
2600,-147.0,62.0,-186.0,0
2601,-147.0,68.0,-188.0,0
2602,-146.0,63.0,-189.0,0
2603,-151.0,66.0,-186.0,0
2604,-149.0,62.0,-186.0,0
2605,-150.0,61.0,-189.0,0
2606,-146.0,61.0,-188.0,0
2607,-146.0,62.0,-188.0,0
2608,-149.0,61.0,-190.0,0
2609,-148.0,62.0,-189.0,0
2610,-150.0,60.0,-191.0,0
2611,-147.0,62.0,-188.0,0
2612,-148.0,61.0,-191.0,0
2613,-151.0,61.0,-193.0,0
2614,-150.0,63.0,-191.0,0
2615,-148.0,59.0,-191.0,0
2616,-150.0,63.0,-187.0,0
2617,-149.0,57.0,-191.0,0
2618,-148.0,59.0,-191.0,0
2619,-145.0,58.0,-193.0,0
2620,-145.0,65.0,-203.0,0
2621,-145.0,59.0,-187.0,0
2622,-147.0,60.0,-187.0,0
2623,-145.0,60.0,-188.0,0
2624,-143.0,60.0,-189.0,0
2625,-146.0,59.0,-190.0,0
2626,-148.0,60.0,-188.0,0
2627,-147.0,61.0,-185.0,0
2628,-143.0,59.0,-184.0,0
2629,-145.0,57.0,-185.0,0
2630,-144.0,60.0,-187.0,0
2631,-143.0,60.0,-185.0,0
2632,-145.0,56.0,-186.0,0
2633,-151.0,59.0,-188.0,0
2634,-146.0,60.0,-186.0,0
2635,-145.0,61.0,-186.0,0
2636,-145.0,62.0,-190.0,0
2637,-143.0,61.0,-193.0,0
2638,-148.0,61.0,-190.0,0
2639,-146.0,59.0,-191.0,0
2640,-150.0,62.0,-191.0,0
2641,-147.0,59.0,-192.0,0
2642,-152.0,61.0,-188.0,0
2643,-149.0,62.0,-190.0,0
2644,-150.0,59.0,-185.0,0
2645,-147.0,58.0,-188.0,0
2646,-151.0,60.0,-188.0,0
2647,-148.0,58.0,-186.0,0
2648,-152.0,61.0,-188.0,0
2649,-148.0,59.0,-189.0,0
2650,-149.0,59.0,-188.0,0
2651,-146.0,59.0,-183.0,0
2652,-151.0,59.0,-189.0,0
2653,-146.0,63.0,-176.0,0
2654,-148.0,60.0,-183.0,0
2655,-143.0,57.0,-185.0,0
2656,-148.0,58.0,-186.0,0
2657,-148.0,60.0,-189.0,0
2658,-151.0,57.0,-186.0,0
2659,-148.0,59.0,-190.0,0
2660,-147.0,59.0,-186.0,0
2661,-150.0,55.0,-184.0,0
2662,-149.0,59.0,-187.0,0
2663,-149.0,57.0,-190.0,0
2664,-147.0,58.0,-191.0,0
2665,-147.0,57.0,-192.0,0
2666,-147.0,59.0,-192.0,0
2667,-148.0,58.0,-189.0,0
2668,-150.0,58.0,-189.0,0
2669,-147.0,60.0,-195.0,0
2670,-147.0,59.0,-195.0,0
2671,-149.0,60.0,-194.0,0
2672,-147.0,59.0,-196.0,0
2673,-150.0,60.0,-197.0,0
2674,-152.0,61.0,-196.0,0
2675,-150.0,60.0,-196.0,0
2676,-154.0,60.0,-194.0,0
2677,-152.0,59.0,-194.0,0
2678,-152.0,60.0,-194.0,0
2679,-152.0,60.0,-195.0,0
2680,-150.0,60.0,-194.0,0
2681,-153.0,61.0,-189.0,0
2682,-151.0,59.0,-188.0,0
2683,-150.0,59.0,-189.0,0
2684,-148.0,60.0,-185.0,0
2685,-146.0,58.0,-188.0,0
2686,-139.0,67.0,-191.0,0
2687,-145.0,61.0,-185.0,0
2688,-146.0,59.0,-182.0,0
2689,-146.0,60.0,-184.0,0
2690,-145.0,57.0,-186.0,0
2691,-148.0,60.0,-186.0,0
2692,-147.0,59.0,-184.0,0
2693,-149.0,60.0,-182.0,0
2694,-146.0,58.0,-184.0,0
2695,-147.0,59.0,-183.0,0
2696,-146.0,57.0,-185.0,0
2697,-147.0,59.0,-186.0,0
2698,-143.0,58.0,-188.0,0
2699,-148.0,60.0,-189.0,0
2700,-148.0,58.0,-187.0,0
2701,-145.0,58.0,-188.0,0
2702,-148.0,59.0,-184.0,0
2703,-144.0,57.0,-186.0,0
2704,-151.0,60.0,-185.0,0
2705,-145.0,57.0,-186.0,0
2706,-148.0,56.0,-188.0,0
2707,-147.0,58.0,-184.0,0
2708,-147.0,55.0,-187.0,0
2709,-148.0,56.0,-191.0,0
2710,-149.0,57.0,-184.0,0
2711,-148.0,55.0,-192.0,0
2712,-151.0,56.0,-192.0,0
2713,-151.0,57.0,-191.0,0
2714,-148.0,59.0,-193.0,0
2715,-152.0,57.0,-194.0,0
2716,-151.0,57.0,-192.0,0
2717,-150.0,59.0,-191.0,0
2718,-153.0,60.0,-189.0,0
2719,-149.0,57.0,-183.0,0
2720,-151.0,59.0,-189.0,0
2721,-149.0,60.0,-189.0,0
2722,-150.0,59.0,-190.0,0
2723,-147.0,57.0,-188.0,0
2724,-147.0,62.0,-187.0,0
2725,-146.0,57.0,-188.0,0
2726,-151.0,59.0,-187.0,0
2727,-147.0,55.0,-191.0,0
2728,-149.0,60.0,-189.0,0
2729,-148.0,56.0,-190.0,0
2730,-149.0,60.0,-189.0,0
2731,-150.0,59.0,-186.0,0
2732,-149.0,59.0,-184.0,0
2733,-148.0,60.0,-187.0,0
2734,-147.0,61.0,-185.0,0
2735,-149.0,59.0,-186.0,0
2736,-148.0,59.0,-186.0,0
2737,-147.0,58.0,-188.0,0
2738,-150.0,59.0,-188.0,0
2739,-147.0,60.0,-188.0,0
2740,-147.0,59.0,-186.0,0
2741,-148.0,61.0,-187.0,0
2742,-147.0,58.0,-187.0,0
2743,-147.0,61.0,-187.0,0
2744,-149.0,61.0,-184.0,0
2745,-148.0,61.0,-187.0,0
2746,-151.0,60.0,-186.0,0
2747,-146.0,60.0,-184.0,0
2748,-147.0,57.0,-184.0,0
2749,-148.0,59.0,-185.0,0
2750,-147.0,58.0,-184.0,0
2751,-144.0,55.0,-185.0,0
2752,-151.0,55.0,-186.0,0
2753,-147.0,57.0,-192.0,0
2754,-149.0,53.0,-191.0,0
2755,-149.0,55.0,-193.0,0
2756,-149.0,56.0,-195.0,0
2757,-152.0,54.0,-197.0,0
2758,-149.0,56.0,-199.0,0
2759,-153.0,57.0,-202.0,0
2760,-157.0,57.0,-202.0,0
2761,-156.0,55.0,-210.0,0
2762,-157.0,63.0,-210.0,0
2763,-152.0,55.0,-202.0,0
2764,-149.0,51.0,-208.0,0
2765,-152.0,50.0,-204.0,0
2766,-150.0,49.0,-207.0,0
2767,-147.0,53.0,-209.0,0
2768,-146.0,50.0,-204.0,0
2769,-154.0,54.0,-201.0,0
2770,-146.0,51.0,-200.0,0
2771,-146.0,47.0,-196.0,0
2772,-145.0,55.0,-198.0,0
2773,-139.0,54.0,-192.0,0
2774,-142.0,52.0,-190.0,0
2775,-146.0,56.0,-190.0,0
2776,-141.0,59.0,-188.0,0
2777,-145.0,54.0,-184.0,0
2778,-141.0,56.0,-178.0,0
2779,-147.0,58.0,-177.0,0
2780,-140.0,69.0,-174.0,0
2781,-145.0,70.0,-172.0,0
2782,-140.0,71.0,-172.0,0
2783,-145.0,60.0,-166.0,0
2784,-145.0,64.0,-171.0,0
2785,-144.0,60.0,-167.0,0
2786,-147.0,60.0,-165.0,0
2787,-148.0,59.0,-169.0,0
2788,-151.0,59.0,-174.0,0
2789,-152.0,62.0,-177.0,0
2790,-153.0,59.0,-177.0,0
2791,-154.0,61.0,-179.0,0
2792,-154.0,58.0,-179.0,0
2793,-154.0,60.0,-181.0,0
2794,-158.0,60.0,-180.0,0
2795,-158.0,67.0,-190.0,0
2796,-156.0,60.0,-179.0,0
2797,-156.0,58.0,-183.0,0
2798,-158.0,59.0,-183.0,0
2799,-158.0,59.0,-181.0,0
2800,-161.0,60.0,-184.0,0
2801,-161.0,60.0,-186.0,0
2802,-159.0,58.0,-181.0,0
2803,-162.0,61.0,-183.0,0
2804,-161.0,58.0,-182.0,0
2805,-161.0,55.0,-185.0,0
2806,-157.0,53.0,-184.0,0
2807,-158.0,58.0,-182.0,0
2808,-158.0,58.0,-182.0,0
2809,-161.0,56.0,-183.0,0
2810,-158.0,55.0,-185.0,0
2811,-157.0,55.0,-178.0,0
2812,-158.0,54.0,-183.0,0
2813,-161.0,57.0,-183.0,0
2814,-155.0,58.0,-186.0,0
2815,-155.0,59.0,-182.0,0
2816,-160.0,58.0,-187.0,0
2817,-154.0,54.0,-187.0,0
2818,-155.0,55.0,-186.0,0
2819,-153.0,56.0,-185.0,0
2820,-155.0,54.0,-185.0,0
2821,-152.0,55.0,-186.0,0
2822,-151.0,55.0,-190.0,0
2823,-151.0,54.0,-190.0,0
2824,-153.0,54.0,-186.0,0
2825,-152.0,55.0,-186.0,0
2826,-153.0,56.0,-188.0,0
2827,-149.0,57.0,-187.0,0
2828,-152.0,58.0,-190.0,0
2829,-150.0,56.0,-188.0,0
2830,-153.0,58.0,-189.0,0
2831,-151.0,57.0,-187.0,0
2832,-151.0,56.0,-188.0,0
2833,-152.0,57.0,-185.0,0
2834,-153.0,56.0,-182.0,0
2835,-150.0,56.0,-181.0,0
2836,-153.0,56.0,-182.0,0
2837,-151.0,54.0,-182.0,0
2838,-154.0,64.0,-184.0,0
2839,-153.0,56.0,-183.0,0
2840,-151.0,56.0,-184.0,0
2841,-150.0,57.0,-186.0,0
2842,-151.0,56.0,-190.0,0
2843,-149.0,57.0,-187.0,0
2844,-152.0,55.0,-190.0,0
2845,-152.0,54.0,-191.0,0
2846,-154.0,58.0,-186.0,0
2847,-151.0,54.0,-189.0,0
2848,-153.0,59.0,-195.0,0
2849,-149.0,58.0,-189.0,0
2850,-154.0,57.0,-192.0,0
2851,-152.0,59.0,-196.0,0
2852,-150.0,56.0,-192.0,0
2853,-150.0,59.0,-194.0,0
2854,-150.0,58.0,-194.0,0
2855,-150.0,59.0,-194.0,0
2856,-152.0,59.0,-193.0,0
2857,-146.0,56.0,-188.0,0
2858,-150.0,58.0,-195.0,0
2859,-149.0,53.0,-193.0,0
2860,-149.0,55.0,-190.0,0
2861,-148.0,57.0,-189.0,0
2862,-148.0,57.0,-191.0,0
2863,-149.0,58.0,-186.0,0
2864,-145.0,55.0,-191.0,0
2865,-146.0,56.0,-187.0,0
2866,-149.0,56.0,-185.0,0
2867,-148.0,52.0,-186.0,0
2868,-149.0,56.0,-187.0,0
2869,-146.0,51.0,-186.0,0
2870,-146.0,54.0,-188.0,0
2871,-148.0,52.0,-183.0,0
2872,-146.0,58.0,-189.0,0
2873,-150.0,57.0,-194.0,0
2874,-149.0,57.0,-190.0,0
2875,-147.0,53.0,-192.0,0
2876,-148.0,52.0,-189.0,0
2877,-150.0,57.0,-195.0,0
2878,-148.0,57.0,-193.0,0
2879,-149.0,56.0,-198.0,0
2880,-151.0,55.0,-192.0,0
2881,-150.0,56.0,-194.0,0
2882,-150.0,56.0,-191.0,0
2883,-152.0,58.0,-191.0,0
2884,-151.0,56.0,-191.0,0
2885,-149.0,55.0,-189.0,0
2886,-150.0,57.0,-185.0,0
2887,-148.0,59.0,-191.0,0
2888,-150.0,59.0,-185.0,0
2889,-149.0,58.0,-186.0,0
2890,-147.0,55.0,-187.0,0
2891,-151.0,57.0,-183.0,0
2892,-148.0,57.0,-179.0,0
2893,-150.0,57.0,-181.0,0
2894,-149.0,54.0,-182.0,0
2895,-148.0,56.0,-183.0,0
2896,-149.0,59.0,-180.0,0
2897,-149.0,59.0,-181.0,0
2898,-151.0,57.0,-183.0,0
2899,-151.0,58.0,-181.0,0
2900,-150.0,60.0,-188.0,0
2901,-152.0,62.0,-185.0,0
2902,-153.0,59.0,-187.0,0
2903,-155.0,58.0,-186.0,0
2904,-141.0,55.0,-178.0,0
2905,-156.0,59.0,-188.0,0
2906,-151.0,58.0,-191.0,0
2907,-153.0,58.0,-188.0,0
2908,-153.0,58.0,-189.0,0
2909,-154.0,54.0,-188.0,0
2910,-149.0,56.0,-191.0,0
2911,-155.0,54.0,-188.0,0
2912,-152.0,56.0,-191.0,0
2913,-152.0,55.0,-194.0,0
2914,-153.0,57.0,-190.0,0
2915,-152.0,54.0,-194.0,0
2916,-147.0,53.0,-195.0,0
2917,-150.0,53.0,-192.0,0
2918,-152.0,57.0,-190.0,0
2919,-150.0,54.0,-187.0,0
2920,-149.0,54.0,-191.0,0
2921,-147.0,54.0,-188.0,0
2922,-147.0,53.0,-189.0,0
2923,-149.0,54.0,-189.0,0
2924,-147.0,55.0,-190.0,0
2925,-146.0,55.0,-191.0,0
2926,-148.0,55.0,-186.0,0
2927,-147.0,54.0,-185.0,0
2928,-149.0,53.0,-187.0,0
2929,-151.0,53.0,-186.0,0
2930,-149.0,55.0,-185.0,0
2931,-148.0,53.0,-186.0,0
2932,-150.0,56.0,-185.0,0
2933,-151.0,54.0,-185.0,0
2934,-149.0,53.0,-186.0,0
2935,-150.0,55.0,-187.0,0
2936,-152.0,52.0,-187.0,0
2937,-146.0,54.0,-182.0,0
2938,-154.0,57.0,-186.0,0
2939,-150.0,57.0,-184.0,0
2940,-149.0,57.0,-185.0,0
2941,-148.0,57.0,-186.0,0
2942,-150.0,57.0,-191.0,0
2943,-150.0,58.0,-190.0,0
2944,-150.0,53.0,-190.0,0
2945,-147.0,57.0,-191.0,0
2946,-152.0,57.0,-195.0,0
2947,-157.0,62.0,-194.0,0
2948,-146.0,57.0,-201.0,0
2949,-145.0,59.0,-199.0,0
2950,-150.0,57.0,-196.0,0
2951,-155.0,60.0,-194.0,0
2952,-145.0,59.0,-191.0,0
2953,-142.0,56.0,-189.0,0
2954,-150.0,60.0,-192.0,0
2955,-149.0,59.0,-189.0,0
2956,-146.0,58.0,-186.0,0
2957,-149.0,57.0,-185.0,0
2958,-145.0,58.0,-184.0,0
2959,-147.0,57.0,-184.0,0
2960,-143.0,56.0,-186.0,0
2961,-148.0,59.0,-186.0,0
2962,-148.0,59.0,-187.0,0
2963,-149.0,57.0,-188.0,0
2964,-147.0,57.0,-188.0,0
2965,-147.0,60.0,-186.0,0
2966,-146.0,55.0,-188.0,0
2967,-150.0,58.0,-187.0,0
2968,-149.0,60.0,-187.0,0
2969,-150.0,59.0,-192.0,0
2970,-145.0,57.0,-188.0,0
2971,-143.0,57.0,-186.0,0
2972,-144.0,56.0,-189.0,0
2973,-145.0,57.0,-187.0,0
2974,-147.0,56.0,-189.0,0
2975,-148.0,55.0,-184.0,0
2976,-148.0,57.0,-186.0,0
2977,-145.0,55.0,-184.0,0
2978,-146.0,55.0,-191.0,0
2979,-148.0,50.0,-188.0,0
2980,-149.0,51.0,-204.0,0
2981,-149.0,56.0,-188.0,0
2982,-150.0,55.0,-191.0,0
2983,-150.0,56.0,-191.0,0
2984,-149.0,57.0,-193.0,0
2985,-153.0,58.0,-193.0,0
2986,-152.0,56.0,-194.0,0
2987,-147.0,56.0,-195.0,0
2988,-150.0,56.0,-195.0,0
2989,-149.0,53.0,-201.0,0
2990,-148.0,57.0,-195.0,0
2991,-147.0,57.0,-194.0,0
2992,-150.0,57.0,-197.0,0
2993,-151.0,58.0,-193.0,0
2994,-147.0,59.0,-191.0,0
2995,-150.0,59.0,-192.0,0
2996,-153.0,58.0,-194.0,0
2997,-151.0,62.0,-194.0,0
2998,-149.0,63.0,-194.0,0
2999,-146.0,57.0,-190.0,0
