,accelerometer_x,accelerometer_y,accelerometer_z,fall
0,6.0,-227.0,-105.0,0
1,7.0,-228.0,-103.0,0
2,3.0,-225.0,-102.0,0
3,6.0,-227.0,-103.0,0
4,6.0,-226.0,-105.0,0
5,10.0,-225.0,-100.0,0
6,7.0,-227.0,-101.0,0
7,8.0,-224.0,-98.0,0
8,4.0,-223.0,-109.0,0
9,8.0,-226.0,-102.0,0
10,8.0,-226.0,-105.0,0
11,8.0,-227.0,-99.0,0
12,5.0,-226.0,-103.0,0
13,11.0,-227.0,-98.0,0
14,4.0,-226.0,-107.0,0
15,7.0,-228.0,-101.0,0
16,0.0,-224.0,-104.0,0
17,8.0,-226.0,-103.0,0
18,6.0,-228.0,-105.0,0
19,8.0,-225.0,-101.0,0
20,8.0,-227.0,-103.0,0
21,9.0,-228.0,-103.0,0
22,7.0,-224.0,-98.0,0
23,5.0,-225.0,-103.0,0
24,6.0,-230.0,-101.0,0
25,6.0,-222.0,-101.0,0
26,7.0,-221.0,-102.0,0
27,7.0,-228.0,-103.0,0
28,4.0,-224.0,-104.0,0
29,7.0,-227.0,-101.0,0
30,9.0,-230.0,-103.0,0
31,9.0,-228.0,-98.0,0
32,8.0,-225.0,-104.0,0
33,7.0,-226.0,-106.0,0
34,8.0,-228.0,-101.0,0
35,10.0,-226.0,-102.0,0
36,8.0,-224.0,-106.0,0
37,7.0,-226.0,-105.0,0
38,12.0,-227.0,-107.0,0
39,8.0,-224.0,-105.0,0
40,11.0,-226.0,-103.0,0
41,6.0,-226.0,-101.0,0
42,9.0,-227.0,-105.0,0
43,10.0,-226.0,-101.0,0
44,10.0,-228.0,-100.0,0
45,9.0,-227.0,-101.0,0
46,9.0,-230.0,-101.0,0
47,5.0,-225.0,-105.0,0
48,10.0,-227.0,-104.0,0
49,8.0,-228.0,-101.0,0
50,8.0,-229.0,-102.0,0
51,11.0,-228.0,-101.0,0
52,7.0,-225.0,-98.0,0
53,8.0,-228.0,-99.0,0
54,7.0,-226.0,-104.0,0
55,11.0,-227.0,-100.0,0
56,6.0,-223.0,-102.0,0
57,7.0,-226.0,-100.0,0
58,11.0,-227.0,-103.0,0
59,13.0,-227.0,-102.0,0
60,7.0,-226.0,-103.0,0
61,9.0,-228.0,-101.0,0
62,7.0,-226.0,-103.0,0
63,8.0,-227.0,-103.0,0
64,7.0,-226.0,-103.0,0
65,7.0,-225.0,-100.0,0
66,7.0,-229.0,-105.0,0
67,6.0,-225.0,-100.0,0
68,5.0,-227.0,-101.0,0
69,7.0,-225.0,-103.0,0
70,8.0,-225.0,-105.0,0
71,6.0,-226.0,-102.0,0
72,5.0,-227.0,-97.0,0
73,8.0,-229.0,-101.0,0
74,8.0,-226.0,-103.0,0
75,7.0,-226.0,-101.0,0
76,8.0,-224.0,-101.0,0
77,5.0,-224.0,-103.0,0
78,8.0,-226.0,-104.0,0
79,7.0,-226.0,-105.0,0
80,4.0,-222.0,-109.0,0
81,7.0,-231.0,-102.0,0
82,5.0,-224.0,-102.0,0
83,5.0,-225.0,-102.0,0
84,7.0,-223.0,-102.0,0
85,5.0,-226.0,-99.0,0
86,8.0,-223.0,-99.0,0
87,9.0,-224.0,-98.0,0
88,8.0,-224.0,-105.0,0
89,6.0,-224.0,-106.0,0
90,9.0,-228.0,-101.0,0
91,7.0,-225.0,-103.0,0
92,5.0,-221.0,-106.0,0
93,9.0,-228.0,-100.0,0
94,4.0,-228.0,-104.0,0
95,8.0,-228.0,-101.0,0
96,9.0,-226.0,-101.0,0
97,8.0,-226.0,-101.0,0
98,9.0,-228.0,-104.0,0
99,5.0,-225.0,-109.0,0
100,9.0,-227.0,-101.0,0
101,7.0,-225.0,-104.0,0
102,7.0,-228.0,-102.0,0
103,6.0,-223.0,-105.0,0
104,7.0,-227.0,-101.0,0
105,7.0,-227.0,-102.0,0
106,7.0,-223.0,-102.0,0
107,8.0,-225.0,-104.0,0
108,8.0,-227.0,-107.0,0
109,5.0,-224.0,-102.0,0
110,9.0,-227.0,-102.0,0
111,9.0,-227.0,-99.0,0
112,10.0,-225.0,-99.0,0
113,4.0,-222.0,-105.0,0
114,11.0,-225.0,-103.0,0
115,5.0,-226.0,-104.0,0
116,6.0,-228.0,-99.0,0
117,9.0,-229.0,-108.0,0
118,5.0,-226.0,-101.0,0
119,9.0,-226.0,-103.0,0
120,5.0,-224.0,-104.0,0
121,4.0,-224.0,-103.0,0
122,10.0,-226.0,-101.0,0
123,12.0,-227.0,-101.0,0
124,8.0,-226.0,-104.0,0
125,4.0,-228.0,-102.0,0
126,5.0,-225.0,-103.0,0
127,7.0,-227.0,-103.0,0
128,5.0,-223.0,-101.0,0
129,7.0,-225.0,-104.0,0
130,8.0,-228.0,-104.0,0
131,7.0,-226.0,-104.0,0
132,8.0,-228.0,-103.0,0
133,4.0,-224.0,-104.0,0
134,6.0,-225.0,-102.0,0
135,15.0,-231.0,-111.0,0
136,8.0,-222.0,-105.0,0
137,6.0,-224.0,-107.0,0
138,8.0,-225.0,-102.0,0
139,7.0,-221.0,-104.0,0
140,10.0,-225.0,-105.0,0
141,7.0,-225.0,-103.0,0
142,7.0,-223.0,-103.0,0
143,12.0,-226.0,-101.0,0
144,8.0,-224.0,-100.0,0
145,4.0,-223.0,-102.0,0
146,11.0,-225.0,-102.0,0
147,7.0,-223.0,-104.0,0
148,7.0,-224.0,-104.0,0
149,4.0,-225.0,-102.0,0
150,6.0,-225.0,-105.0,0
151,5.0,-225.0,-100.0,0
152,5.0,-225.0,-103.0,0
153,8.0,-230.0,-104.0,0
154,6.0,-229.0,-102.0,0
155,7.0,-229.0,-104.0,0
156,8.0,-225.0,-104.0,0
157,5.0,-222.0,-112.0,0
158,7.0,-226.0,-107.0,0
159,9.0,-227.0,-105.0,0
160,8.0,-225.0,-99.0,0
161,9.0,-226.0,-103.0,0
162,7.0,-221.0,-102.0,0
163,8.0,-224.0,-102.0,0
164,6.0,-223.0,-105.0,0
165,5.0,-224.0,-101.0,0
166,10.0,-228.0,-104.0,0
167,11.0,-225.0,-101.0,0
168,6.0,-233.0,-101.0,0
169,8.0,-227.0,-101.0,0
170,4.0,-227.0,-102.0,0
171,7.0,-225.0,-103.0,0
172,6.0,-226.0,-103.0,0
173,8.0,-229.0,-104.0,0
174,8.0,-225.0,-101.0,0
175,6.0,-227.0,-106.0,0
176,9.0,-228.0,-102.0,0
177,11.0,-224.0,-105.0,0
178,8.0,-228.0,-103.0,0
179,7.0,-229.0,-103.0,0
180,8.0,-227.0,-102.0,0
181,8.0,-226.0,-105.0,0
182,5.0,-223.0,-98.0,0
183,9.0,-222.0,-103.0,0
184,7.0,-224.0,-104.0,0
185,6.0,-227.0,-103.0,0
186,3.0,-224.0,-103.0,0
187,9.0,-225.0,-105.0,0
188,9.0,-222.0,-105.0,0
189,7.0,-225.0,-104.0,0
190,5.0,-227.0,-99.0,0
191,7.0,-225.0,-101.0,0
192,7.0,-225.0,-103.0,0
193,9.0,-224.0,-103.0,0
194,7.0,-222.0,-104.0,0
195,6.0,-225.0,-102.0,0
196,7.0,-225.0,-103.0,0
197,7.0,-230.0,-105.0,0
198,4.0,-223.0,-103.0,0
199,7.0,-226.0,-108.0,0
200,12.0,-230.0,-107.0,0
201,7.0,-227.0,-110.0,0
202,8.0,-226.0,-106.0,0
203,7.0,-222.0,-108.0,0
204,8.0,-224.0,-106.0,0
205,9.0,-221.0,-107.0,0
206,7.0,-226.0,-105.0,0
207,7.0,-223.0,-106.0,0
208,10.0,-224.0,-104.0,0
209,7.0,-225.0,-104.0,0
210,9.0,-221.0,-107.0,0
211,4.0,-227.0,-110.0,0
212,9.0,-226.0,-104.0,0
213,4.0,-226.0,-107.0,0
214,6.0,-224.0,-103.0,0
215,9.0,-227.0,-103.0,0
216,5.0,-224.0,-108.0,0
217,7.0,-223.0,-104.0,0
218,8.0,-226.0,-105.0,0
219,7.0,-227.0,-110.0,0
220,8.0,-225.0,-103.0,0
221,12.0,-226.0,-104.0,0
222,5.0,-220.0,-105.0,0
223,8.0,-224.0,-106.0,0
224,8.0,-223.0,-104.0,0
225,7.0,-223.0,-106.0,0
226,6.0,-223.0,-107.0,0
227,8.0,-223.0,-106.0,0
228,8.0,-224.0,-104.0,0
229,7.0,-225.0,-107.0,0
230,6.0,-223.0,-109.0,0
231,8.0,-223.0,-108.0,0
232,7.0,-223.0,-108.0,0
233,7.0,-227.0,-98.0,0
234,11.0,-225.0,-108.0,0
235,10.0,-223.0,-109.0,0
236,6.0,-221.0,-106.0,0
237,7.0,-223.0,-107.0,0
238,6.0,-222.0,-106.0,0
239,10.0,-221.0,-111.0,0
240,9.0,-219.0,-107.0,0
241,7.0,-223.0,-109.0,0
242,9.0,-221.0,-106.0,0
243,6.0,-217.0,-106.0,0
244,10.0,-224.0,-102.0,0
245,5.0,-222.0,-105.0,0
246,6.0,-222.0,-107.0,0
247,8.0,-225.0,-106.0,0
248,8.0,-224.0,-105.0,0
249,8.0,-223.0,-105.0,0
250,7.0,-222.0,-110.0,0
251,8.0,-222.0,-109.0,0
252,7.0,-220.0,-108.0,0
253,8.0,-223.0,-104.0,0
254,9.0,-225.0,-110.0,0
255,8.0,-222.0,-107.0,0
256,9.0,-223.0,-108.0,0
257,6.0,-222.0,-109.0,0
258,8.0,-221.0,-113.0,0
259,8.0,-220.0,-111.0,0
260,7.0,-223.0,-111.0,0
261,8.0,-221.0,-110.0,0
262,6.0,-219.0,-110.0,0
263,10.0,-223.0,-109.0,0
264,8.0,-221.0,-111.0,0
265,8.0,-224.0,-107.0,0
266,13.0,-221.0,-114.0,0
267,10.0,-223.0,-113.0,0
268,8.0,-219.0,-109.0,0
269,10.0,-220.0,-113.0,0
270,11.0,-222.0,-107.0,0
271,11.0,-222.0,-108.0,0
272,8.0,-219.0,-109.0,0
273,12.0,-221.0,-108.0,0
274,12.0,-224.0,-109.0,0
275,10.0,-218.0,-114.0,0
276,14.0,-223.0,-111.0,0
277,9.0,-219.0,-110.0,0
278,11.0,-217.0,-111.0,0
279,9.0,-219.0,-112.0,0
280,10.0,-217.0,-112.0,0
281,7.0,-219.0,-112.0,0
282,8.0,-217.0,-113.0,0
283,10.0,-218.0,-113.0,0
284,10.0,-217.0,-115.0,0
285,6.0,-215.0,-113.0,0
286,9.0,-216.0,-114.0,0
287,12.0,-217.0,-112.0,0
288,8.0,-222.0,-103.0,0
289,10.0,-218.0,-112.0,0
290,9.0,-221.0,-111.0,0
291,13.0,-220.0,-111.0,0
292,10.0,-218.0,-117.0,0
293,7.0,-217.0,-115.0,0
294,8.0,-219.0,-120.0,0
295,8.0,-217.0,-118.0,0
296,6.0,-221.0,-119.0,0
297,8.0,-218.0,-119.0,0
298,9.0,-218.0,-119.0,0
299,9.0,-219.0,-117.0,0
300,9.0,-218.0,-116.0,0
301,9.0,-217.0,-121.0,0
302,7.0,-214.0,-119.0,0
303,6.0,-214.0,-116.0,0
304,12.0,-213.0,-119.0,0
305,7.0,-212.0,-121.0,0
306,10.0,-213.0,-122.0,0
307,10.0,-208.0,-122.0,0
308,10.0,-212.0,-121.0,0
309,8.0,-211.0,-124.0,0
310,9.0,-210.0,-124.0,0
311,7.0,-210.0,-123.0,0
312,7.0,-212.0,-124.0,0
313,6.0,-210.0,-123.0,0
314,3.0,-209.0,-127.0,0
315,4.0,-208.0,-126.0,0
316,1.0,-207.0,-127.0,0
317,4.0,-206.0,-128.0,0
318,1.0,-206.0,-125.0,0
319,0.0,-202.0,-126.0,0
320,3.0,-202.0,-124.0,0
321,0.0,-202.0,-130.0,0
322,0.0,-197.0,-131.0,0
323,0.0,-198.0,-133.0,0
324,0.0,-194.0,-135.0,0
325,1.0,-193.0,-133.0,0
326,-1.0,-193.0,-135.0,0
327,-5.0,-192.0,-133.0,0
328,0.0,-191.0,-133.0,0
329,0.0,-192.0,-136.0,0
330,0.0,-193.0,-136.0,0
331,1.0,-192.0,-137.0,0
332,5.0,-192.0,-130.0,0
333,2.0,-191.0,-140.0,0
334,5.0,-190.0,-138.0,0
335,7.0,-188.0,-140.0,0
336,6.0,-188.0,-145.0,0
337,8.0,-187.0,-148.0,0
338,6.0,-185.0,-157.0,0
339,12.0,-183.0,-148.0,0
340,9.0,-186.0,-152.0,0
341,7.0,-182.0,-152.0,0
342,9.0,-180.0,-158.0,0
343,10.0,-181.0,-154.0,0
344,14.0,-183.0,-153.0,0
345,13.0,-179.0,-160.0,0
346,17.0,-177.0,-160.0,0
347,14.0,-173.0,-162.0,0
348,9.0,-170.0,-161.0,0
349,9.0,-169.0,-164.0,0
350,13.0,-165.0,-169.0,0
351,9.0,-167.0,-172.0,0
352,10.0,-162.0,-174.0,0
353,11.0,-162.0,-171.0,0
354,7.0,-158.0,-176.0,0
355,5.0,-155.0,-178.0,0
356,5.0,-152.0,-184.0,0
357,5.0,-145.0,-181.0,0
358,2.0,-143.0,-179.0,0
359,3.0,-137.0,-180.0,0
360,2.0,-131.0,-170.0,0
361,1.0,-127.0,-166.0,0
362,3.0,-125.0,-168.0,0
363,1.0,-126.0,-153.0,0
364,5.0,-131.0,-146.0,0
365,5.0,-126.0,-146.0,0
366,6.0,-116.0,-144.0,0
367,6.0,-123.0,-154.0,0
368,7.0,-117.0,-151.0,0
369,10.0,-113.0,-151.0,0
370,9.0,-109.0,-157.0,0
371,11.0,-104.0,-161.0,0
372,11.0,-101.0,-156.0,0
373,12.0,-97.0,-153.0,0
374,11.0,-98.0,-161.0,0
375,13.0,-91.0,-153.0,0
376,9.0,-94.0,-155.0,0
377,15.0,-95.0,-146.0,0
378,20.0,-98.0,-137.0,0
379,17.0,-103.0,-133.0,0
380,17.0,-107.0,-137.0,0
381,16.0,-105.0,-129.0,0
382,15.0,-112.0,-132.0,0
383,17.0,-118.0,-132.0,0
384,13.0,-122.0,-134.0,0
385,17.0,-127.0,-136.0,0
386,12.0,-128.0,-135.0,0
387,11.0,-129.0,-151.0,0
388,7.0,-132.0,-158.0,0
389,4.0,-134.0,-160.0,0
390,7.0,-136.0,-160.0,0
391,6.0,-136.0,-163.0,0
392,8.0,-134.0,-171.0,0
393,10.0,-141.0,-177.0,0
394,7.0,-134.0,-180.0,0
395,7.0,-133.0,-181.0,0
396,7.0,-137.0,-191.0,0
397,10.0,-139.0,-190.0,0
398,9.0,-136.0,-193.0,0
399,10.0,-133.0,-195.0,0
400,9.0,-134.0,-198.0,0
401,7.0,-135.0,-196.0,0
402,9.0,-135.0,-192.0,0
403,14.0,-141.0,-193.0,0
404,8.0,-138.0,-193.0,0
405,13.0,-144.0,-191.0,0
406,10.0,-147.0,-195.0,0
407,4.0,-148.0,-193.0,0
408,3.0,-148.0,-201.0,0
409,0.0,-147.0,-200.0,0
410,-3.0,-149.0,-193.0,0
411,-6.0,-144.0,-194.0,0
412,-6.0,-143.0,-193.0,0
413,-17.0,-143.0,-188.0,0
414,-11.0,-146.0,-187.0,0
415,-11.0,-145.0,-184.0,0
416,-18.0,-135.0,-190.0,0
417,-18.0,-138.0,-182.0,0
418,-10.0,-133.0,-189.0,0
419,-9.0,-134.0,-189.0,0
420,-5.0,-133.0,-194.0,0
421,-2.0,-132.0,-197.0,0
422,-3.0,-129.0,-207.0,0
423,0.0,-130.0,-212.0,0
424,4.0,-128.0,-214.0,0
425,5.0,-125.0,-221.0,0
426,6.0,-126.0,-219.0,0
427,2.0,-120.0,-220.0,0
428,-1.0,-126.0,-221.0,0
429,-5.0,-122.0,-215.0,0
430,-4.0,-114.0,-209.0,0
431,-5.0,-118.0,-211.0,0
432,-4.0,-118.0,-204.0,0
433,-5.0,-119.0,-208.0,0
434,-5.0,-121.0,-207.0,0
435,-7.0,-118.0,-213.0,0
436,-5.0,-122.0,-212.0,0
437,-4.0,-120.0,-218.0,0
438,-10.0,-119.0,-218.0,0
439,-9.0,-122.0,-229.0,0
440,-7.0,-120.0,-222.0,0
441,-8.0,-113.0,-225.0,0
442,-7.0,-109.0,-224.0,0
443,-2.0,-108.0,-230.0,0
444,-1.0,-102.0,-228.0,0
445,-4.0,-100.0,-226.0,0
446,-1.0,-93.0,-233.0,0
447,1.0,-96.0,-233.0,0
448,3.0,-90.0,-239.0,0
449,6.0,-96.0,-238.0,0
450,8.0,-101.0,-246.0,0
451,13.0,-99.0,-248.0,0
452,15.0,-103.0,-251.0,0
453,13.0,-105.0,-253.0,0
454,14.0,-104.0,-251.0,0
455,2.0,-105.0,-248.0,0
456,-6.0,-98.0,-242.0,0
457,-1.0,-90.0,-249.0,0
458,0.0,-89.0,-248.0,0
459,-5.0,-80.0,-249.0,0
460,-3.0,-77.0,-250.0,0
461,-5.0,-82.0,-246.0,0
462,-2.0,-77.0,-248.0,0
463,10.0,-80.0,-250.0,0
464,6.0,-80.0,-254.0,0
465,7.0,-73.0,-250.0,0
466,7.0,-80.0,-252.0,0
467,13.0,-86.0,-255.0,0
468,7.0,-90.0,-257.0,0
469,5.0,-88.0,-254.0,0
470,3.0,-84.0,-253.0,0
471,2.0,-85.0,-258.0,0
472,1.0,-81.0,-262.0,0
473,2.0,-80.0,-260.0,0
474,0.0,-81.0,-261.0,0
475,2.0,-79.0,-260.0,0
476,0.0,-74.0,-261.0,0
477,-2.0,-71.0,-258.0,0
478,-3.0,-69.0,-257.0,0
479,-11.0,-66.0,-260.0,0
480,-14.0,-64.0,-261.0,0
481,-13.0,-64.0,-258.0,0
482,-4.0,-60.0,-262.0,0
483,-7.0,-64.0,-255.0,0
484,-10.0,-63.0,-252.0,0
485,-8.0,-62.0,-249.0,0
486,-1.0,-65.0,-250.0,0
487,0.0,-66.0,-246.0,0
488,2.0,-67.0,-241.0,0
489,0.0,-67.0,-237.0,0
490,2.0,-70.0,-239.0,0
491,8.0,-74.0,-238.0,0
492,3.0,-73.0,-238.0,0
493,1.0,-74.0,-245.0,0
494,0.0,-70.0,-242.0,0
495,0.0,-73.0,-245.0,0
496,-1.0,-72.0,-246.0,0
497,-6.0,-67.0,-253.0,0
498,-5.0,-66.0,-256.0,0
499,-10.0,-66.0,-258.0,0
500,-6.0,-67.0,-262.0,0
501,-9.0,-65.0,-269.0,0
502,-7.0,-60.0,-265.0,0
503,-7.0,-58.0,-269.0,0
504,-2.0,-62.0,-266.0,0
505,-8.0,-62.0,-259.0,0
506,-9.0,-62.0,-261.0,0
507,-12.0,-66.0,-257.0,0
508,-12.0,-66.0,-257.0,0
509,-15.0,-68.0,-259.0,0
510,-12.0,-72.0,-260.0,0
511,-12.0,-76.0,-256.0,0
512,-10.0,-83.0,-253.0,0
513,-14.0,-75.0,-254.0,0
514,-15.0,-76.0,-255.0,0
515,-15.0,-72.0,-253.0,0
516,-15.0,-72.0,-252.0,0
517,-15.0,-71.0,-257.0,0
518,-15.0,-69.0,-256.0,0
519,-13.0,-66.0,-256.0,0
520,-12.0,-65.0,-259.0,0
521,-10.0,-66.0,-260.0,0
522,-11.0,-63.0,-259.0,0
523,-4.0,-64.0,-264.0,0
524,-7.0,-65.0,-265.0,0
525,-4.0,-67.0,-270.0,0
526,-7.0,-63.0,-270.0,0
527,-5.0,-65.0,-271.0,0
528,-9.0,-66.0,-270.0,0
529,-14.0,-70.0,-271.0,0
530,-15.0,-69.0,-272.0,0
531,-20.0,-66.0,-275.0,0
532,-18.0,-67.0,-271.0,0
533,-18.0,-61.0,-273.0,0
534,-15.0,-60.0,-278.0,0
535,-15.0,-51.0,-269.0,0
536,-13.0,-52.0,-270.0,0
537,-7.0,-53.0,-269.0,0
538,-10.0,-55.0,-272.0,0
539,-6.0,-55.0,-268.0,0
540,-7.0,-52.0,-272.0,0
541,-3.0,-58.0,-273.0,0
542,-3.0,-56.0,-277.0,0
543,-2.0,-59.0,-278.0,0
544,-5.0,-58.0,-279.0,0
545,-5.0,-58.0,-283.0,0
546,-2.0,-55.0,-284.0,0
547,-3.0,-55.0,-280.0,0
548,-1.0,-55.0,-281.0,0
549,0.0,-55.0,-279.0,0
550,1.0,-54.0,-279.0,0
551,0.0,-53.0,-278.0,0
552,-5.0,-58.0,-281.0,0
553,-6.0,-59.0,-277.0,0
554,-8.0,-56.0,-273.0,0
555,-11.0,-58.0,-273.0,0
556,-11.0,-61.0,-272.0,0
557,-15.0,-62.0,-273.0,0
558,-13.0,-60.0,-270.0,0
559,-14.0,-63.0,-271.0,0
560,-17.0,-60.0,-266.0,0
561,-17.0,-63.0,-264.0,0
562,-15.0,-61.0,-267.0,0
563,-13.0,-60.0,-258.0,0
564,-9.0,-61.0,-262.0,0
565,-4.0,-60.0,-260.0,0
566,-1.0,-60.0,-260.0,0
567,-5.0,-62.0,-259.0,0
568,0.0,-64.0,-261.0,0
569,0.0,-62.0,-264.0,0
570,-7.0,-61.0,-261.0,0
571,-6.0,-62.0,-259.0,0
572,-7.0,-60.0,-258.0,0
573,-4.0,-58.0,-260.0,0
574,-7.0,-57.0,-258.0,0
575,-7.0,-56.0,-258.0,0
576,-2.0,-57.0,-257.0,0
577,-4.0,-58.0,-253.0,0
578,-4.0,-56.0,-252.0,0
579,-1.0,-57.0,-248.0,0
580,-1.0,-58.0,-246.0,0
581,-2.0,-57.0,-247.0,0
582,0.0,-58.0,-242.0,0
583,0.0,-56.0,-244.0,0
584,0.0,-57.0,-246.0,0
585,3.0,-56.0,-245.0,0
586,2.0,-56.0,-241.0,0
587,0.0,-52.0,-240.0,0
588,3.0,-53.0,-238.0,0
589,2.0,-52.0,-248.0,0
590,2.0,-56.0,-241.0,0
591,0.0,-55.0,-245.0,0
592,2.0,-55.0,-240.0,0
593,0.0,-53.0,-241.0,0
594,-1.0,-49.0,-244.0,0
595,-1.0,-46.0,-243.0,0
596,-2.0,-52.0,-238.0,0
597,-1.0,-52.0,-243.0,0
598,-2.0,-48.0,-241.0,0
599,-1.0,-54.0,-238.0,0
600,-4.0,-55.0,-234.0,0
601,-3.0,-48.0,-235.0,0
602,0.0,-50.0,-237.0,0
603,-4.0,-46.0,-238.0,0
604,-9.0,-42.0,-241.0,0
605,-8.0,-47.0,-240.0,0
606,-12.0,-43.0,-240.0,0
607,-5.0,-47.0,-241.0,0
608,-11.0,-44.0,-242.0,0
609,-11.0,-44.0,-241.0,0
610,-15.0,-45.0,-247.0,0
611,-15.0,-48.0,-246.0,0
612,-12.0,-45.0,-249.0,0
613,-16.0,-41.0,-246.0,0
614,-13.0,-42.0,-249.0,0
615,-14.0,-41.0,-244.0,0
616,-13.0,-43.0,-249.0,0
617,-14.0,-40.0,-245.0,0
618,-9.0,-45.0,-247.0,0
619,-11.0,-41.0,-249.0,0
620,-12.0,-43.0,-249.0,0
621,-20.0,-39.0,-247.0,0
622,-12.0,-39.0,-248.0,0
623,-14.0,-38.0,-247.0,0
624,-17.0,-37.0,-252.0,0
625,-11.0,-43.0,-253.0,0
626,-14.0,-45.0,-254.0,0
627,-13.0,-44.0,-253.0,0
628,-11.0,-44.0,-255.0,0
629,-15.0,-46.0,-252.0,0
630,-15.0,-48.0,-253.0,0
631,-13.0,-40.0,-253.0,0
632,-21.0,-40.0,-253.0,0
633,-15.0,-41.0,-251.0,0
634,-14.0,-39.0,-252.0,0
635,-15.0,-39.0,-249.0,0
636,-14.0,-40.0,-253.0,0
637,-14.0,-45.0,-248.0,0
638,-12.0,-46.0,-249.0,0
639,-11.0,-46.0,-252.0,0
640,-14.0,-49.0,-249.0,0
641,-13.0,-49.0,-247.0,0
642,-12.0,-49.0,-248.0,0
643,-15.0,-47.0,-250.0,0
644,-18.0,-49.0,-250.0,0
645,-18.0,-46.0,-252.0,0
646,-21.0,-48.0,-250.0,0
647,-20.0,-48.0,-245.0,0
648,-22.0,-47.0,-241.0,0
649,-21.0,-48.0,-243.0,0
650,-20.0,-45.0,-245.0,0
651,-23.0,-48.0,-243.0,0
652,-18.0,-47.0,-237.0,0
653,-18.0,-48.0,-242.0,0
654,-21.0,-48.0,-233.0,0
655,-24.0,-46.0,-243.0,0
656,-18.0,-50.0,-243.0,0
657,-20.0,-50.0,-239.0,0
658,-19.0,-45.0,-243.0,0
659,-19.0,-46.0,-239.0,0
660,-17.0,-48.0,-243.0,0
661,-14.0,-50.0,-239.0,0
662,-19.0,-45.0,-237.0,0
663,-20.0,-43.0,-238.0,0
664,-18.0,-47.0,-237.0,0
665,-19.0,-43.0,-245.0,0
666,-21.0,-44.0,-241.0,0
667,-19.0,-46.0,-237.0,0
668,-24.0,-42.0,-235.0,0
669,-20.0,-45.0,-237.0,0
670,-21.0,-42.0,-235.0,0
671,-21.0,-48.0,-237.0,0
672,-20.0,-50.0,-238.0,0
673,-17.0,-49.0,-235.0,0
674,-19.0,-47.0,-233.0,0
675,-18.0,-50.0,-234.0,0
676,-15.0,-46.0,-237.0,0
677,-15.0,-47.0,-236.0,0
678,-14.0,-48.0,-238.0,0
679,-12.0,-46.0,-241.0,0
680,-13.0,-49.0,-239.0,0
681,-12.0,-50.0,-238.0,0
682,-14.0,-49.0,-241.0,0
683,-16.0,-50.0,-242.0,0
684,-12.0,-47.0,-243.0,0
685,-16.0,-45.0,-246.0,0
686,-13.0,-45.0,-246.0,0
687,-15.0,-42.0,-245.0,0
688,-15.0,-42.0,-244.0,0
689,-15.0,-42.0,-248.0,0
690,-17.0,-44.0,-248.0,0
691,-18.0,-42.0,-246.0,0
692,-15.0,-42.0,-252.0,0
693,-14.0,-38.0,-253.0,0
694,-11.0,-39.0,-248.0,0
695,-12.0,-41.0,-251.0,0
696,-15.0,-38.0,-248.0,0
697,-13.0,-44.0,-250.0,0
698,-16.0,-41.0,-249.0,0
699,-18.0,-41.0,-251.0,0
700,-19.0,-41.0,-252.0,0
701,-19.0,-42.0,-249.0,0
702,-18.0,-41.0,-255.0,0
703,-21.0,-45.0,-253.0,0
704,-19.0,-44.0,-254.0,0
705,-19.0,-39.0,-254.0,0
706,-18.0,-40.0,-254.0,0
707,-20.0,-47.0,-252.0,0
708,-29.0,-42.0,-254.0,0
709,-19.0,-46.0,-257.0,0
710,-21.0,-43.0,-254.0,0
711,-21.0,-40.0,-255.0,0
712,-20.0,-42.0,-250.0,0
713,-18.0,-40.0,-254.0,0
714,-23.0,-42.0,-254.0,0
715,-17.0,-40.0,-249.0,0
716,-17.0,-43.0,-255.0,0
717,-17.0,-45.0,-247.0,0
718,-18.0,-41.0,-255.0,0
719,-16.0,-45.0,-253.0,0
720,-17.0,-47.0,-249.0,0
721,-15.0,-44.0,-248.0,0
722,-15.0,-44.0,-251.0,0
723,-16.0,-43.0,-250.0,0
724,-15.0,-46.0,-248.0,0
725,-17.0,-41.0,-252.0,0
726,-18.0,-46.0,-243.0,0
727,-16.0,-45.0,-249.0,0
728,-15.0,-43.0,-247.0,0
729,-15.0,-48.0,-245.0,0
730,-13.0,-42.0,-243.0,0
731,-13.0,-42.0,-243.0,0
732,-14.0,-44.0,-242.0,0
733,-14.0,-45.0,-245.0,0
734,-11.0,-46.0,-243.0,0
735,-11.0,-43.0,-243.0,0
736,-15.0,-42.0,-237.0,0
737,-14.0,-45.0,-242.0,0
738,-13.0,-45.0,-238.0,0
739,-13.0,-48.0,-238.0,0
740,-10.0,-48.0,-236.0,0
741,-15.0,-42.0,-237.0,0
742,-13.0,-48.0,-241.0,0
743,-3.0,-46.0,-239.0,0
744,-7.0,-54.0,-248.0,0
745,-17.0,-46.0,-242.0,0
746,-14.0,-42.0,-238.0,0
747,-15.0,-37.0,-245.0,0
748,-9.0,-43.0,-246.0,0
749,-10.0,-46.0,-240.0,0
750,-17.0,-34.0,-249.0,0
751,-3.0,-37.0,-238.0,0
752,-3.0,-36.0,-243.0,0
753,-12.0,-43.0,-243.0,0
754,-5.0,-34.0,-245.0,0
755,-8.0,-45.0,-236.0,0
756,-15.0,-40.0,-236.0,0
757,-13.0,-43.0,-234.0,0
758,-10.0,-46.0,-248.0,0
759,-11.0,-40.0,-243.0,0
760,-7.0,-49.0,-241.0,0
761,-10.0,-53.0,-240.0,0
762,-5.0,-40.0,-239.0,0
763,-10.0,-41.0,-240.0,0
764,-15.0,-46.0,-239.0,0
765,-4.0,-47.0,-243.0,0
766,-10.0,-39.0,-239.0,0
767,-4.0,-40.0,-249.0,0
768,-8.0,-40.0,-248.0,0
769,-4.0,-33.0,-248.0,0
770,-8.0,-37.0,-249.0,0
771,-12.0,-34.0,-246.0,0
772,-9.0,-37.0,-244.0,0
773,-6.0,-39.0,-246.0,0
774,-6.0,-40.0,-247.0,0
775,-4.0,-37.0,-247.0,0
776,-9.0,-35.0,-243.0,0
777,-6.0,-41.0,-245.0,0
778,-6.0,-40.0,-246.0,0
779,-7.0,-36.0,-251.0,0
780,-7.0,-33.0,-248.0,0
781,-11.0,-37.0,-248.0,0
782,-10.0,-36.0,-247.0,0
783,-9.0,-38.0,-249.0,0
784,-6.0,-38.0,-245.0,0
785,-11.0,-35.0,-244.0,0
786,-9.0,-32.0,-247.0,0
787,-8.0,-36.0,-247.0,0
788,-3.0,-30.0,-245.0,0
789,-8.0,-32.0,-248.0,0
790,-7.0,-34.0,-248.0,0
791,-7.0,-33.0,-247.0,0
792,-5.0,-35.0,-247.0,0
793,-7.0,-33.0,-251.0,0
794,-11.0,-33.0,-249.0,0
795,-7.0,-36.0,-253.0,0
796,-7.0,-34.0,-251.0,0
797,-8.0,-32.0,-251.0,0
798,-4.0,-35.0,-246.0,0
799,-6.0,-32.0,-248.0,0
800,-8.0,-31.0,-249.0,0
801,-6.0,-34.0,-246.0,0
802,-6.0,-33.0,-248.0,0
803,-6.0,-32.0,-247.0,0
804,-7.0,-34.0,-246.0,0
805,-11.0,-39.0,-251.0,0
806,-5.0,-36.0,-250.0,0
807,-11.0,-36.0,-246.0,0
808,-4.0,-39.0,-243.0,0
809,-8.0,-37.0,-247.0,0
810,-5.0,-34.0,-246.0,0
811,-9.0,-36.0,-243.0,0
812,-10.0,-33.0,-246.0,0
813,-7.0,-33.0,-246.0,0
814,-6.0,-34.0,-241.0,0
815,-5.0,-36.0,-247.0,0
816,-8.0,-36.0,-245.0,0
817,-6.0,-35.0,-245.0,0
818,-8.0,-36.0,-249.0,0
819,-8.0,-35.0,-246.0,0
820,-10.0,-34.0,-246.0,0
821,-7.0,-35.0,-247.0,0
822,-9.0,-38.0,-246.0,0
823,-11.0,-33.0,-248.0,0
824,-10.0,-29.0,-243.0,0
825,-12.0,-30.0,-248.0,0
826,-10.0,-32.0,-240.0,0
827,-8.0,-30.0,-244.0,0
828,-7.0,-28.0,-245.0,0
829,-11.0,-28.0,-244.0,0
830,-9.0,-35.0,-247.0,0
831,-11.0,-31.0,-246.0,0
832,-8.0,-33.0,-241.0,0
833,-10.0,-35.0,-241.0,0
834,-9.0,-31.0,-243.0,0
835,-11.0,-34.0,-241.0,0
836,-10.0,-33.0,-241.0,0
837,-12.0,-31.0,-243.0,0
838,-8.0,-30.0,-241.0,0
839,-9.0,-34.0,-244.0,0
840,-11.0,-31.0,-241.0,0
841,-14.0,-32.0,-244.0,0
842,-12.0,-32.0,-242.0,0
843,-12.0,-29.0,-242.0,0
844,-9.0,-33.0,-249.0,0
845,-10.0,-35.0,-245.0,0
846,-5.0,-30.0,-248.0,0
847,-6.0,-29.0,-240.0,0
848,-7.0,-29.0,-248.0,0
849,-8.0,-34.0,-244.0,0
850,-12.0,-30.0,-246.0,0
851,-11.0,-29.0,-245.0,0
852,-8.0,-32.0,-248.0,0
853,-10.0,-32.0,-244.0,0
854,-11.0,-30.0,-245.0,0
855,-11.0,-33.0,-244.0,0
856,-16.0,-31.0,-242.0,0
857,-12.0,-31.0,-248.0,0
858,-12.0,-32.0,-249.0,0
859,-13.0,-33.0,-244.0,0
860,-14.0,-34.0,-242.0,0
861,-12.0,-29.0,-243.0,0
862,-12.0,-29.0,-246.0,0
863,-8.0,-29.0,-248.0,0
864,-12.0,-31.0,-244.0,0
865,-11.0,-32.0,-247.0,0
866,-10.0,-28.0,-244.0,0
867,-13.0,-28.0,-244.0,0
868,-12.0,-32.0,-245.0,0
869,-16.0,-32.0,-247.0,0
870,-11.0,-33.0,-246.0,0
871,-12.0,-32.0,-246.0,0
872,-15.0,-31.0,-247.0,0
873,-15.0,-31.0,-247.0,0
874,-15.0,-30.0,-244.0,0
875,-13.0,-32.0,-245.0,0
876,-14.0,-32.0,-249.0,0
877,-13.0,-31.0,-249.0,0
878,-13.0,-32.0,-244.0,0
879,-14.0,-29.0,-246.0,0
880,-12.0,-30.0,-243.0,0
881,-11.0,-32.0,-246.0,0
882,-8.0,-29.0,-247.0,0
883,-11.0,-29.0,-247.0,0
884,-13.0,-30.0,-249.0,0
885,-12.0,-29.0,-249.0,0
886,-11.0,-31.0,-249.0,0
887,-13.0,-30.0,-246.0,0
888,-11.0,-29.0,-246.0,0
889,-11.0,-31.0,-246.0,0
890,-14.0,-26.0,-251.0,0
891,-12.0,-26.0,-246.0,0
892,-8.0,-25.0,-245.0,0
893,-12.0,-25.0,-243.0,0
894,-8.0,-28.0,-242.0,0
895,-9.0,-27.0,-242.0,0
896,-10.0,-28.0,-240.0,0
897,-11.0,-30.0,-245.0,0
898,-12.0,-28.0,-241.0,0
899,-9.0,-31.0,-247.0,0
900,-12.0,-33.0,-249.0,0
901,-14.0,-35.0,-252.0,0
902,-5.0,-35.0,-250.0,0
903,-9.0,-34.0,-251.0,0
904,-7.0,-32.0,-248.0,0
905,-10.0,-32.0,-246.0,0
906,-6.0,-31.0,-249.0,0
907,-9.0,-28.0,-244.0,0
908,-4.0,-32.0,-247.0,0
909,-8.0,-30.0,-246.0,0
910,-8.0,-27.0,-249.0,0
911,-7.0,-32.0,-246.0,0
912,-7.0,-31.0,-249.0,0
913,-7.0,-34.0,-246.0,0
914,-5.0,-31.0,-246.0,0
915,-7.0,-30.0,-248.0,0
916,-8.0,-32.0,-251.0,0
917,-4.0,-33.0,-250.0,0
918,-3.0,-32.0,-251.0,0
919,-4.0,-34.0,-248.0,0
920,-2.0,-35.0,-246.0,0
921,-3.0,-34.0,-245.0,0
922,-11.0,-33.0,-249.0,0
923,-7.0,-30.0,-245.0,0
924,-9.0,-33.0,-248.0,0
925,-8.0,-31.0,-247.0,0
926,-3.0,-33.0,-248.0,0
927,-1.0,-36.0,-248.0,0
928,-5.0,-33.0,-246.0,0
929,-7.0,-35.0,-248.0,0
930,-3.0,-35.0,-247.0,0
931,-1.0,-41.0,-246.0,0
932,-4.0,-38.0,-251.0,0
933,-2.0,-40.0,-249.0,0
934,-3.0,-35.0,-250.0,0
935,-5.0,-33.0,-250.0,0
936,-5.0,-34.0,-252.0,0
937,-6.0,-32.0,-248.0,0
938,-6.0,-31.0,-250.0,0
939,-4.0,-33.0,-250.0,0
940,-2.0,-34.0,-250.0,0
941,-4.0,-34.0,-251.0,0
942,-3.0,-32.0,-249.0,0
943,-6.0,-35.0,-251.0,0
944,-7.0,-26.0,-250.0,0
945,-4.0,-32.0,-246.0,0
946,-4.0,-34.0,-252.0,0
947,-5.0,-36.0,-246.0,0
948,-1.0,-37.0,-251.0,0
949,-3.0,-37.0,-249.0,0
950,-4.0,-33.0,-246.0,0
951,-6.0,-33.0,-251.0,0
952,-5.0,-33.0,-244.0,0
953,-3.0,-35.0,-247.0,0
954,-4.0,-37.0,-248.0,0
955,-7.0,-29.0,-249.0,0
956,-3.0,-37.0,-246.0,0
957,-6.0,-35.0,-248.0,0
958,-8.0,-34.0,-246.0,0
959,-6.0,-34.0,-250.0,0
960,-7.0,-35.0,-245.0,0
961,-1.0,-38.0,-246.0,0
962,-4.0,-34.0,-246.0,0
963,-6.0,-33.0,-241.0,0
964,-8.0,-31.0,-242.0,0
965,-5.0,-29.0,-248.0,0
966,-5.0,-33.0,-246.0,0
967,-3.0,-33.0,-243.0,0
968,-1.0,-35.0,-248.0,0
969,-6.0,-34.0,-245.0,0
970,-4.0,-35.0,-245.0,0
971,-4.0,-36.0,-244.0,0
972,-8.0,-35.0,-242.0,0
973,-4.0,-34.0,-246.0,0
974,-7.0,-37.0,-243.0,0
975,-2.0,-37.0,-247.0,0
976,-1.0,-31.0,-244.0,0
977,-10.0,-36.0,-245.0,0
978,-9.0,-35.0,-247.0,0
979,-6.0,-35.0,-246.0,0
980,-10.0,-33.0,-244.0,0
981,-7.0,-36.0,-246.0,0
982,-11.0,-35.0,-249.0,0
983,-11.0,-33.0,-248.0,0
984,-11.0,-36.0,-244.0,0
985,-11.0,-36.0,-244.0,0
986,-10.0,-34.0,-243.0,0
987,-10.0,-36.0,-245.0,0
988,-8.0,-33.0,-246.0,0
989,-5.0,-31.0,-243.0,0
990,-12.0,-31.0,-245.0,0
991,-6.0,-33.0,-244.0,0
992,-11.0,-32.0,-249.0,0
993,-14.0,-33.0,-247.0,0
994,-9.0,-34.0,-250.0,0
995,-10.0,-40.0,-251.0,0
996,-9.0,-37.0,-246.0,0
997,-8.0,-38.0,-251.0,0
998,-7.0,-35.0,-248.0,0
999,-8.0,-35.0,-249.0,0
1000,-12.0,-35.0,-248.0,0
1001,-9.0,-32.0,-249.0,0
1002,-9.0,-30.0,-246.0,0
1003,-11.0,-33.0,-250.0,0
1004,-14.0,-33.0,-249.0,0
1005,-11.0,-36.0,-245.0,0
1006,-9.0,-31.0,-249.0,0
1007,-8.0,-32.0,-246.0,0
1008,-10.0,-32.0,-248.0,0
1009,-9.0,-33.0,-248.0,0
1010,-10.0,-33.0,-243.0,0
1011,-10.0,-34.0,-246.0,0
1012,-12.0,-32.0,-245.0,0
1013,-12.0,-34.0,-247.0,0
1014,-11.0,-34.0,-247.0,0
1015,-10.0,-35.0,-243.0,0
1016,-9.0,-37.0,-245.0,0
1017,-8.0,-35.0,-245.0,0
1018,-11.0,-34.0,-249.0,0
1019,-11.0,-33.0,-247.0,0
1020,-9.0,-34.0,-246.0,0
1021,-8.0,-33.0,-246.0,0
1022,-10.0,-34.0,-250.0,0
1023,-9.0,-31.0,-245.0,0
1024,-7.0,-34.0,-245.0,0
1025,-10.0,-32.0,-245.0,0
1026,-4.0,-33.0,-244.0,0
1027,-13.0,-33.0,-244.0,0
1028,-11.0,-31.0,-246.0,0
1029,-6.0,-35.0,-243.0,0
1030,-7.0,-35.0,-243.0,0
1031,-9.0,-35.0,-245.0,0
1032,-11.0,-33.0,-246.0,0
1033,-8.0,-33.0,-245.0,0
1034,-9.0,-32.0,-246.0,0
1035,-11.0,-34.0,-245.0,0
1036,-11.0,-36.0,-244.0,0
1037,-8.0,-32.0,-246.0,0
1038,-10.0,-33.0,-251.0,0
1039,-7.0,-35.0,-248.0,0
1040,-9.0,-34.0,-248.0,0
1041,-9.0,-36.0,-242.0,0
1042,-10.0,-32.0,-245.0,0
1043,-12.0,-30.0,-246.0,0
1044,-11.0,-32.0,-243.0,0
1045,-10.0,-31.0,-243.0,0
1046,-10.0,-33.0,-247.0,0
1047,-7.0,-33.0,-245.0,0
1048,-7.0,-32.0,-246.0,0
1049,-8.0,-32.0,-244.0,0
1050,-7.0,-35.0,-246.0,0
1051,-11.0,-37.0,-247.0,0
1052,-8.0,-34.0,-247.0,0
1053,-9.0,-36.0,-243.0,0
1054,-10.0,-33.0,-246.0,0
1055,-9.0,-35.0,-248.0,0
1056,-11.0,-33.0,-247.0,0
1057,-9.0,-36.0,-249.0,0
1058,-6.0,-34.0,-246.0,0
1059,-8.0,-34.0,-247.0,0
1060,-11.0,-29.0,-245.0,0
1061,-8.0,-35.0,-247.0,0
1062,-13.0,-30.0,-249.0,0
1063,-9.0,-32.0,-244.0,0
1064,-7.0,-33.0,-244.0,0
1065,-6.0,-34.0,-249.0,0
1066,-6.0,-34.0,-246.0,0
1067,-11.0,-34.0,-246.0,0
1068,-9.0,-33.0,-250.0,0
1069,-10.0,-31.0,-248.0,0
1070,-10.0,-33.0,-249.0,0
1071,-8.0,-33.0,-245.0,0
1072,-8.0,-32.0,-251.0,0
1073,-4.0,-33.0,-249.0,0
1074,-8.0,-34.0,-250.0,0
1075,-9.0,-33.0,-247.0,0
1076,-9.0,-32.0,-249.0,0
1077,-10.0,-33.0,-248.0,0
1078,-10.0,-30.0,-243.0,0
1079,-7.0,-34.0,-248.0,0
1080,-5.0,-30.0,-246.0,0
1081,-4.0,-36.0,-243.0,0
1082,-5.0,-32.0,-242.0,0
1083,-6.0,-37.0,-252.0,0
1084,-5.0,-33.0,-250.0,0
1085,-5.0,-33.0,-248.0,0
1086,-7.0,-34.0,-248.0,0
1087,-6.0,-34.0,-248.0,0
1088,-10.0,-33.0,-250.0,0
1089,-7.0,-34.0,-248.0,0
1090,-9.0,-33.0,-243.0,0
1091,-7.0,-34.0,-248.0,0
1092,-6.0,-34.0,-244.0,0
1093,-7.0,-33.0,-246.0,0
1094,-12.0,-30.0,-246.0,0
1095,-9.0,-32.0,-242.0,0
1096,-12.0,-32.0,-244.0,0
1097,-6.0,-33.0,-246.0,0
1098,-6.0,-31.0,-244.0,0
1099,-8.0,-32.0,-245.0,0
1100,-6.0,-35.0,-244.0,0
1101,-7.0,-34.0,-247.0,0
1102,-5.0,-34.0,-247.0,0
1103,-6.0,-31.0,-243.0,0
1104,-1.0,-30.0,-249.0,0
1105,-7.0,-37.0,-247.0,0
1106,-7.0,-34.0,-248.0,0
1107,-8.0,-33.0,-251.0,0
1108,-5.0,-32.0,-246.0,0
1109,-12.0,-30.0,-243.0,0
1110,-9.0,-32.0,-247.0,0
1111,-8.0,-32.0,-246.0,0
1112,-8.0,-32.0,-244.0,0
1113,-11.0,-30.0,-247.0,0
1114,-6.0,-30.0,-248.0,0
1115,-8.0,-36.0,-247.0,0
1116,-11.0,-31.0,-250.0,0
1117,-8.0,-34.0,-248.0,0
1118,-11.0,-36.0,-247.0,0
1119,-6.0,-33.0,-245.0,0
1120,-5.0,-36.0,-251.0,0
1121,-5.0,-36.0,-250.0,0
1122,-8.0,-37.0,-248.0,0
1123,-4.0,-36.0,-246.0,0
1124,-11.0,-33.0,-250.0,0
1125,-10.0,-27.0,-244.0,0
1126,-7.0,-33.0,-236.0,0
1127,-8.0,-31.0,-248.0,0
1128,-7.0,-32.0,-243.0,0
1129,-7.0,-33.0,-244.0,0
1130,-8.0,-33.0,-246.0,0
1131,-11.0,-32.0,-250.0,0
1132,-11.0,-30.0,-251.0,0
1133,-9.0,-31.0,-248.0,0
1134,-6.0,-33.0,-248.0,0
1135,-7.0,-33.0,-250.0,0
1136,-11.0,-32.0,-248.0,0
1137,-9.0,-31.0,-248.0,0
1138,-7.0,-31.0,-249.0,0
1139,-9.0,-33.0,-247.0,0
1140,-7.0,-30.0,-246.0,0
1141,-9.0,-31.0,-247.0,0
1142,-8.0,-37.0,-249.0,0
1143,-8.0,-33.0,-249.0,0
1144,-11.0,-32.0,-249.0,0
1145,-9.0,-34.0,-247.0,0
1146,-13.0,-33.0,-245.0,0
1147,-6.0,-26.0,-249.0,0
1148,-6.0,-32.0,-247.0,0
1149,-7.0,-33.0,-248.0,0
1150,-3.0,-30.0,-247.0,0
1151,-7.0,-30.0,-245.0,0
1152,-3.0,-34.0,-247.0,0
1153,-4.0,-34.0,-245.0,0
1154,-7.0,-32.0,-240.0,0
1155,-4.0,-32.0,-244.0,0
1156,-8.0,-32.0,-242.0,0
1157,-5.0,-33.0,-246.0,0
1158,-9.0,-36.0,-247.0,0
1159,-7.0,-33.0,-244.0,0
1160,-8.0,-31.0,-245.0,0
1161,-5.0,-34.0,-245.0,0
1162,-5.0,-36.0,-247.0,0
1163,-7.0,-35.0,-246.0,0
1164,-8.0,-33.0,-248.0,0
1165,-6.0,-37.0,-246.0,0
1166,-8.0,-32.0,-249.0,0
1167,-9.0,-33.0,-249.0,0
1168,-5.0,-34.0,-245.0,0
1169,-10.0,-33.0,-251.0,0
1170,-7.0,-33.0,-252.0,0
1171,-6.0,-32.0,-246.0,0
1172,-7.0,-33.0,-245.0,0
1173,-9.0,-36.0,-249.0,0
1174,-9.0,-35.0,-245.0,0
1175,-9.0,-32.0,-244.0,0
1176,-10.0,-34.0,-246.0,0
1177,-6.0,-38.0,-245.0,0
1178,-11.0,-33.0,-244.0,0
1179,-11.0,-28.0,-242.0,0
1180,-8.0,-33.0,-247.0,0
1181,-7.0,-31.0,-245.0,0
1182,-7.0,-34.0,-245.0,0
1183,-7.0,-35.0,-244.0,0
1184,-9.0,-31.0,-242.0,0
1185,-4.0,-36.0,-246.0,0
1186,-10.0,-32.0,-248.0,0
1187,-7.0,-34.0,-245.0,0
1188,-9.0,-33.0,-247.0,0
1189,-7.0,-28.0,-248.0,0
1190,-15.0,-32.0,-244.0,0
1191,-9.0,-32.0,-247.0,0
1192,-10.0,-30.0,-246.0,0
1193,-11.0,-34.0,-247.0,0
1194,-10.0,-32.0,-250.0,0
1195,-8.0,-33.0,-249.0,0
1196,-9.0,-34.0,-247.0,0
1197,-8.0,-34.0,-249.0,0
1198,-10.0,-36.0,-249.0,0
1199,-6.0,-31.0,-248.0,0
1200,-10.0,-31.0,-249.0,0
1201,-12.0,-38.0,-248.0,0
1202,-7.0,-32.0,-246.0,0
1203,-12.0,-32.0,-247.0,0
1204,-8.0,-33.0,-245.0,0
1205,-10.0,-28.0,-248.0,0
1206,-5.0,-31.0,-245.0,0
1207,-7.0,-29.0,-241.0,0
1208,-6.0,-31.0,-248.0,0
1209,-13.0,-32.0,-247.0,0
1210,-8.0,-36.0,-247.0,0
1211,-12.0,-37.0,-244.0,0
1212,-8.0,-32.0,-251.0,0
1213,-9.0,-31.0,-245.0,0
1214,-10.0,-32.0,-246.0,0
1215,-9.0,-35.0,-248.0,0
1216,-13.0,-30.0,-246.0,0
1217,-11.0,-30.0,-245.0,0
1218,-10.0,-32.0,-243.0,0
1219,-6.0,-35.0,-245.0,0
1220,-7.0,-31.0,-248.0,0
1221,-9.0,-29.0,-247.0,0
1222,-11.0,-33.0,-243.0,0
1223,-9.0,-29.0,-244.0,0
1224,-9.0,-29.0,-244.0,0
1225,-7.0,-33.0,-244.0,0
1226,-9.0,-32.0,-243.0,0
1227,-7.0,-32.0,-244.0,0
1228,-8.0,-27.0,-245.0,0
1229,-7.0,-31.0,-249.0,0
1230,-8.0,-31.0,-244.0,0
1231,-8.0,-32.0,-241.0,0
1232,-12.0,-31.0,-247.0,0
1233,-9.0,-33.0,-246.0,0
1234,-8.0,-33.0,-247.0,0
1235,-9.0,-30.0,-246.0,0
1236,-9.0,-34.0,-246.0,0
1237,-9.0,-30.0,-246.0,0
1238,-8.0,-35.0,-247.0,0
1239,-6.0,-32.0,-245.0,0
1240,-10.0,-32.0,-247.0,0
1241,-12.0,-29.0,-248.0,0
1242,-10.0,-28.0,-242.0,0
1243,-5.0,-28.0,-246.0,0
1244,-10.0,-31.0,-248.0,0
1245,-8.0,-30.0,-250.0,0
1246,-12.0,-29.0,-248.0,0
1247,-8.0,-32.0,-245.0,0
1248,-8.0,-31.0,-249.0,0
1249,-7.0,-30.0,-249.0,0
1250,-9.0,-30.0,-251.0,0
1251,-5.0,-32.0,-250.0,0
1252,-9.0,-30.0,-245.0,0
1253,-10.0,-30.0,-248.0,0
1254,-11.0,-30.0,-247.0,0
1255,-11.0,-28.0,-252.0,0
1256,-8.0,-30.0,-250.0,0
1257,-7.0,-27.0,-249.0,0
1258,-9.0,-28.0,-250.0,0
1259,-13.0,-27.0,-246.0,0
1260,-11.0,-29.0,-245.0,0
1261,-8.0,-29.0,-248.0,0
1262,-7.0,-31.0,-246.0,0
1263,-9.0,-25.0,-245.0,0
1264,-9.0,-28.0,-250.0,0
1265,-12.0,-28.0,-244.0,0
1266,-8.0,-31.0,-246.0,0
1267,-8.0,-32.0,-249.0,0
1268,-7.0,-32.0,-246.0,0
1269,-7.0,-29.0,-248.0,0
1270,-9.0,-30.0,-245.0,0
1271,-7.0,-30.0,-244.0,0
1272,-8.0,-30.0,-244.0,0
1273,-7.0,-31.0,-248.0,0
1274,-4.0,-33.0,-243.0,0
1275,-5.0,-35.0,-249.0,0
1276,-2.0,-32.0,-251.0,0
1277,-10.0,-26.0,-246.0,0
1278,-7.0,-30.0,-248.0,0
1279,-9.0,-26.0,-249.0,0
1280,-6.0,-29.0,-250.0,0
1281,-7.0,-27.0,-246.0,0
1282,-8.0,-30.0,-249.0,0
1283,-8.0,-31.0,-244.0,0
1284,-6.0,-26.0,-244.0,0
1285,-3.0,-29.0,-246.0,0
1286,-12.0,-22.0,-252.0,0
1287,-6.0,-28.0,-245.0,0
1288,-3.0,-28.0,-245.0,0
1289,-6.0,-27.0,-242.0,0
1290,-6.0,-28.0,-247.0,0
1291,-5.0,-31.0,-245.0,0
1292,-5.0,-29.0,-244.0,0
1293,-4.0,-27.0,-248.0,0
1294,-7.0,-27.0,-247.0,0
1295,-8.0,-26.0,-249.0,0
1296,-7.0,-29.0,-248.0,0
1297,-9.0,-26.0,-244.0,0
1298,-8.0,-27.0,-244.0,0
1299,-3.0,-31.0,-245.0,0
1300,-8.0,-29.0,-246.0,0
1301,-8.0,-27.0,-245.0,0
1302,-8.0,-28.0,-247.0,0
1303,-10.0,-32.0,-249.0,0
1304,-8.0,-26.0,-247.0,0
1305,-12.0,-30.0,-246.0,0
1306,-10.0,-26.0,-244.0,0
1307,-6.0,-29.0,-238.0,0
1308,-6.0,-29.0,-246.0,0
1309,-3.0,-28.0,-243.0,0
1310,-7.0,-27.0,-245.0,0
1311,-6.0,-28.0,-248.0,0
1312,-8.0,-25.0,-247.0,0
1313,-6.0,-27.0,-246.0,0
1314,-7.0,-29.0,-247.0,0
1315,-9.0,-25.0,-244.0,0
1316,-5.0,-30.0,-244.0,0
1317,-6.0,-27.0,-246.0,0
1318,-6.0,-34.0,-245.0,0
1319,-4.0,-26.0,-243.0,0
1320,-8.0,-27.0,-244.0,0
1321,-10.0,-25.0,-245.0,0
1322,-7.0,-28.0,-246.0,0
1323,-8.0,-30.0,-243.0,0
1324,-9.0,-26.0,-244.0,0
1325,-8.0,-30.0,-244.0,0
1326,-9.0,-29.0,-242.0,0
1327,-7.0,-28.0,-246.0,0
1328,-7.0,-29.0,-249.0,0
1329,-11.0,-23.0,-249.0,0
1330,-7.0,-29.0,-250.0,0
1331,-5.0,-29.0,-247.0,0
1332,-8.0,-23.0,-244.0,0
1333,-4.0,-27.0,-246.0,0
1334,0.0,-26.0,-245.0,0
1335,-6.0,-26.0,-250.0,0
1336,-2.0,-25.0,-249.0,0
1337,-7.0,-27.0,-248.0,0
1338,-5.0,-26.0,-250.0,0
1339,-15.0,-22.0,-246.0,0
1340,-11.0,-23.0,-254.0,0
1341,-6.0,-23.0,-251.0,0
1342,-10.0,-20.0,-251.0,0
1343,-3.0,-20.0,-256.0,0
1344,-7.0,-21.0,-254.0,0
1345,-7.0,-20.0,-256.0,0
1346,-3.0,-18.0,-260.0,0
1347,-5.0,-15.0,-258.0,0
1348,-7.0,-16.0,-255.0,0
1349,-6.0,-20.0,-265.0,0
1350,0.0,-20.0,-262.0,0
1351,-3.0,-16.0,-268.0,0
1352,-2.0,-14.0,-267.0,0
1353,-2.0,-15.0,-267.0,0
1354,1.0,-17.0,-268.0,0
1355,0.0,-15.0,-274.0,0
1356,-2.0,-12.0,-272.0,0
1357,-4.0,-16.0,-273.0,0
1358,-4.0,-17.0,-267.0,0
1359,-12.0,-13.0,-273.0,0
1360,-12.0,-14.0,-271.0,0
1361,-14.0,-16.0,-266.0,0
1362,-19.0,-7.0,-270.0,0
1363,-20.0,-2.0,-270.0,0
1364,-23.0,-5.0,-270.0,0
1365,-25.0,-5.0,-271.0,0
1366,-17.0,-7.0,-272.0,0
1367,-16.0,-6.0,-273.0,0
1368,-12.0,-6.0,-275.0,0
1369,-14.0,-8.0,-266.0,0
1370,-14.0,-7.0,-270.0,0
1371,-7.0,-6.0,-267.0,0
1372,-11.0,-12.0,-264.0,0
1373,-11.0,-15.0,-264.0,0
1374,-9.0,-17.0,-268.0,0
1375,-13.0,-20.0,-265.0,0
1376,-12.0,-20.0,-259.0,0
1377,-13.0,-16.0,-257.0,0
1378,-11.0,-15.0,-251.0,0
1379,-13.0,-15.0,-249.0,0
1380,-15.0,-14.0,-242.0,0
1381,-15.0,-15.0,-253.0,0
1382,-16.0,-12.0,-250.0,0
1383,-17.0,-11.0,-250.0,0
1384,-13.0,-12.0,-253.0,0
1385,-13.0,-12.0,-258.0,0
1386,-13.0,-12.0,-255.0,0
1387,-8.0,-15.0,-257.0,0
1388,-6.0,-10.0,-258.0,0
1389,-2.0,-10.0,-260.0,0
1390,-5.0,-9.0,-260.0,0
1391,-3.0,-6.0,-259.0,0
1392,0.0,-6.0,-254.0,0
1393,2.0,-2.0,-255.0,0
1394,-2.0,1.0,-254.0,0
1395,0.0,2.0,-254.0,0
1396,-7.0,3.0,-249.0,0
1397,-9.0,3.0,-248.0,0
1398,-8.0,2.0,-250.0,0
1399,-9.0,0.0,-251.0,0
1400,-5.0,-2.0,-252.0,0
1401,-6.0,-1.0,-255.0,0
1402,-2.0,0.0,-257.0,0
1403,4.0,-2.0,-248.0,0
1404,1.0,0.0,-258.0,0
1405,1.0,-1.0,-263.0,0
1406,0.0,-1.0,-259.0,0
1407,-2.0,2.0,-260.0,0
1408,-2.0,4.0,-260.0,0
1409,-9.0,6.0,-262.0,0
1410,-14.0,8.0,-266.0,0
1411,-13.0,11.0,-265.0,0
1412,-14.0,8.0,-270.0,0
1413,-15.0,9.0,-270.0,0
1414,-13.0,10.0,-271.0,0
1415,-10.0,13.0,-279.0,0
1416,-9.0,14.0,-281.0,0
1417,-7.0,16.0,-281.0,0
1418,-5.0,18.0,-283.0,0
1419,-4.0,22.0,-283.0,0
1420,0.0,24.0,-286.0,0
1421,0.0,24.0,-286.0,0
1422,0.0,30.0,-291.0,0
1423,-2.0,36.0,-285.0,0
1424,-8.0,35.0,-284.0,0
1425,-9.0,28.0,-282.0,0
1426,-8.0,28.0,-279.0,0
1427,-8.0,23.0,-279.0,0
1428,-13.0,25.0,-283.0,0
1429,-12.0,23.0,-285.0,0
1430,-9.0,24.0,-287.0,0
1431,-6.0,19.0,-285.0,0
1432,-13.0,22.0,-282.0,0
1433,-10.0,25.0,-286.0,0
1434,-9.0,23.0,-282.0,0
1435,-7.0,20.0,-283.0,0
1436,-8.0,24.0,-280.0,0
1437,-2.0,20.0,-278.0,0
1438,-7.0,18.0,-278.0,0
1439,-1.0,15.0,-272.0,0
1440,-2.0,17.0,-272.0,0
1441,2.0,15.0,-271.0,0
1442,4.0,19.0,-270.0,0
1443,4.0,17.0,-269.0,0
1444,3.0,15.0,-268.0,0
1445,3.0,19.0,-268.0,0
1446,2.0,31.0,-267.0,0
1447,1.0,19.0,-258.0,0
1448,1.0,23.0,-260.0,0
1449,-1.0,23.0,-260.0,0
1450,-2.0,27.0,-262.0,0
1451,-3.0,19.0,-262.0,0
1452,-8.0,20.0,-262.0,0
1453,-18.0,17.0,-260.0,0
1454,-12.0,14.0,-265.0,0
1455,-15.0,17.0,-264.0,0
1456,-13.0,14.0,-265.0,0
1457,-14.0,11.0,-268.0,0
1458,-9.0,16.0,-263.0,0
1459,-7.0,12.0,-263.0,0
1460,-3.0,12.0,-259.0,0
1461,-7.0,32.0,-257.0,0
1462,-3.0,12.0,-256.0,0
1463,-5.0,12.0,-255.0,0
1464,-5.0,14.0,-257.0,0
1465,-8.0,14.0,-253.0,0
1466,-7.0,17.0,-252.0,0
1467,-4.0,15.0,-250.0,0
1468,-5.0,7.0,-250.0,0
1469,-8.0,13.0,-247.0,0
1470,-10.0,16.0,-252.0,0
1471,-10.0,15.0,-248.0,0
1472,-8.0,15.0,-247.0,0
1473,-9.0,16.0,-250.0,0
1474,0.0,15.0,-248.0,0
1475,-5.0,17.0,-246.0,0
1476,-1.0,15.0,-240.0,0
1477,-5.0,17.0,-247.0,0
1478,-1.0,14.0,-243.0,0
1479,1.0,18.0,-246.0,0
1480,1.0,17.0,-242.0,0
1481,1.0,13.0,-247.0,0
1482,4.0,12.0,-251.0,0
1483,3.0,18.0,-247.0,0
1484,4.0,9.0,-250.0,0
1485,7.0,17.0,-252.0,0
1486,6.0,14.0,-254.0,0
1487,15.0,22.0,-259.0,0
1488,11.0,14.0,-256.0,0
1489,8.0,19.0,-254.0,0
1490,14.0,14.0,-254.0,0
1491,8.0,18.0,-256.0,0
1492,15.0,10.0,-255.0,0
1493,10.0,9.0,-255.0,0
1494,9.0,11.0,-262.0,0
1495,4.0,26.0,-264.0,0
1496,11.0,11.0,-266.0,0
1497,6.0,11.0,-261.0,0
1498,3.0,13.0,-262.0,0
1499,8.0,2.0,-259.0,0
1500,0.0,17.0,-265.0,0
1501,-2.0,16.0,-261.0,0
1502,-1.0,21.0,-264.0,0
1503,0.0,25.0,-264.0,0
1504,0.0,18.0,-266.0,0
1505,-4.0,21.0,-259.0,0
1506,0.0,18.0,-260.0,0
1507,-3.0,30.0,-266.0,0
1508,-6.0,20.0,-258.0,0
1509,-6.0,22.0,-264.0,0
1510,-1.0,19.0,-255.0,0
1511,-5.0,14.0,-262.0,0
1512,-7.0,14.0,-263.0,0
1513,-4.0,19.0,-263.0,0
1514,-8.0,14.0,-260.0,0
1515,-2.0,16.0,-267.0,0
1516,-7.0,17.0,-261.0,0
1517,1.0,12.0,-257.0,0
1518,-2.0,12.0,-256.0,0
1519,-2.0,7.0,-256.0,0
1520,-9.0,10.0,-254.0,0
1521,-6.0,7.0,-258.0,0
1522,-4.0,4.0,-253.0,0
1523,-4.0,4.0,-254.0,0
1524,-8.0,0.0,-253.0,0
1525,-4.0,-2.0,-250.0,0
1526,-6.0,0.0,-249.0,0
1527,-6.0,2.0,-248.0,0
1528,-9.0,-4.0,-242.0,0
1529,-9.0,-1.0,-248.0,0
1530,-13.0,-2.0,-244.0,0
1531,-16.0,-4.0,-242.0,0
1532,-12.0,-2.0,-241.0,0
1533,-12.0,-6.0,-235.0,0
1534,-13.0,-9.0,-236.0,0
1535,-13.0,-10.0,-228.0,0
1536,-18.0,-7.0,-228.0,0
1537,-17.0,-13.0,-227.0,0
1538,-16.0,-15.0,-224.0,0
1539,-12.0,-17.0,-226.0,0
1540,-16.0,-14.0,-223.0,0
1541,-14.0,-13.0,-223.0,0
1542,-14.0,-17.0,-227.0,0
1543,-13.0,-16.0,-219.0,0
1544,-12.0,-21.0,-227.0,0
1545,-10.0,-18.0,-221.0,0
1546,-15.0,-19.0,-222.0,0
1547,-13.0,-19.0,-220.0,0
1548,-14.0,-22.0,-219.0,0
1549,-14.0,-19.0,-217.0,0
1550,-11.0,-22.0,-215.0,0
1551,-15.0,-22.0,-217.0,0
1552,-17.0,-18.0,-215.0,0
1553,-16.0,-19.0,-211.0,0
1554,-21.0,-22.0,-214.0,0
1555,-19.0,-28.0,-215.0,0
1556,-21.0,-30.0,-214.0,0
1557,-19.0,-31.0,-211.0,0
1558,-21.0,-31.0,-215.0,0
1559,-19.0,-30.0,-220.0,0
1560,-17.0,-33.0,-215.0,0
1561,-17.0,-34.0,-220.0,0
1562,-17.0,-34.0,-220.0,0
1563,-19.0,-34.0,-218.0,0
1564,-19.0,-38.0,-219.0,0
1565,-17.0,-38.0,-215.0,0
1566,-17.0,-43.0,-216.0,0
1567,-18.0,-49.0,-212.0,0
1568,-19.0,-45.0,-212.0,0
1569,-17.0,-46.0,-217.0,0
1570,-20.0,-47.0,-212.0,0
1571,-16.0,-48.0,-218.0,0
1572,-19.0,-48.0,-215.0,0
1573,-23.0,-45.0,-214.0,0
1574,-20.0,-46.0,-214.0,0
1575,-22.0,-50.0,-219.0,0
1576,-23.0,-51.0,-216.0,0
1577,-22.0,-55.0,-214.0,0
1578,-21.0,-60.0,-211.0,0
1579,-24.0,-63.0,-213.0,0
1580,-24.0,-61.0,-212.0,0
1581,-24.0,-63.0,-216.0,0
1582,-25.0,-65.0,-218.0,0
1583,-22.0,-63.0,-222.0,0
1584,-25.0,-65.0,-226.0,0
1585,-26.0,-62.0,-231.0,0
1586,-29.0,-61.0,-235.0,0
1587,-26.0,-66.0,-234.0,0
1588,-23.0,-62.0,-240.0,0
1589,-24.0,-62.0,-242.0,0
1590,-22.0,-59.0,-241.0,0
1591,-18.0,-61.0,-241.0,0
1592,-18.0,-61.0,-236.0,0
1593,-20.0,-62.0,-233.0,0
1594,-20.0,-66.0,-228.0,0
1595,-23.0,-70.0,-221.0,0
1596,-21.0,-80.0,-214.0,0
1597,-28.0,-94.0,-214.0,0
1598,-25.0,-92.0,-212.0,0
1599,-23.0,-96.0,-211.0,0
1600,-20.0,-100.0,-213.0,0
1601,-18.0,-101.0,-213.0,0
1602,-13.0,-107.0,-218.0,0
1603,-8.0,-111.0,-218.0,0
1604,-12.0,-111.0,-224.0,0
1605,-9.0,-106.0,-225.0,0
1606,-6.0,-111.0,-223.0,0
1607,-9.0,-106.0,-228.0,0
1608,-6.0,-110.0,-222.0,0
1609,-1.0,-109.0,-217.0,0
1610,-1.0,-108.0,-222.0,0
1611,-4.0,-108.0,-222.0,0
1612,0.0,-109.0,-218.0,0
1613,-2.0,-111.0,-216.0,0
1614,1.0,-111.0,-211.0,0
1615,1.0,-111.0,-215.0,0
1616,0.0,-111.0,-212.0,0
1617,2.0,-112.0,-209.0,0
1618,3.0,-116.0,-210.0,0
1619,0.0,-114.0,-213.0,0
1620,0.0,-117.0,-209.0,0
1621,0.0,-123.0,-205.0,0
1622,-1.0,-125.0,-202.0,0
1623,-5.0,-125.0,-200.0,0
1624,-10.0,-128.0,-202.0,0
1625,-4.0,-129.0,-205.0,0
1626,-10.0,-126.0,-200.0,0
1627,-9.0,-130.0,-205.0,0
1628,-9.0,-129.0,-201.0,0
1629,-5.0,-132.0,-201.0,0
1630,-11.0,-130.0,-200.0,0
1631,-14.0,-131.0,-201.0,0
1632,-16.0,-130.0,-196.0,0
1633,-12.0,-135.0,-197.0,0
1634,-15.0,-136.0,-199.0,0
1635,-13.0,-138.0,-195.0,0
1636,-14.0,-141.0,-194.0,0
1637,-12.0,-141.0,-191.0,0
1638,-12.0,-140.0,-189.0,0
1639,-16.0,-140.0,-186.0,0
1640,-13.0,-142.0,-190.0,0
1641,-14.0,-142.0,-189.0,0
1642,-12.0,-143.0,-186.0,0
1643,-11.0,-144.0,-189.0,0
1644,-14.0,-145.0,-189.0,0
1645,-12.0,-145.0,-192.0,0
1646,-12.0,-146.0,-190.0,0
1647,-13.0,-144.0,-191.0,0
1648,-12.0,-145.0,-191.0,0
1649,-6.0,-150.0,-188.0,0
1650,-10.0,-152.0,-180.0,0
1651,-19.0,-153.0,-179.0,0
1652,-8.0,-153.0,-183.0,0
1653,-11.0,-156.0,-183.0,0
1654,-11.0,-157.0,-177.0,0
1655,-9.0,-157.0,-184.0,0
1656,-10.0,-156.0,-177.0,0
1657,-7.0,-160.0,-176.0,0
1658,-10.0,-160.0,-177.0,0
1659,-10.0,-160.0,-171.0,0
1660,-12.0,-160.0,-171.0,0
1661,-7.0,-160.0,-170.0,0
1662,-12.0,-163.0,-167.0,0
1663,-4.0,-163.0,-167.0,0
1664,-4.0,-165.0,-162.0,0
1665,-6.0,-161.0,-159.0,0
1666,-6.0,-165.0,-167.0,0
1667,-10.0,-163.0,-167.0,0
1668,-7.0,-167.0,-162.0,0
1669,-8.0,-167.0,-160.0,0
1670,-7.0,-170.0,-169.0,0
1671,-8.0,-172.0,-166.0,0
1672,-4.0,-166.0,-170.0,0
1673,-5.0,-170.0,-171.0,0
1674,-9.0,-173.0,-165.0,0
1675,-6.0,-176.0,-164.0,0
1676,-8.0,-174.0,-162.0,0
1677,-5.0,-177.0,-164.0,0
1678,-4.0,-180.0,-162.0,0
1679,-5.0,-178.0,-157.0,0
1680,-8.0,-179.0,-158.0,0
1681,1.0,-187.0,-163.0,0
1682,-1.0,-187.0,-155.0,0
1683,-4.0,-185.0,-155.0,0
1684,0.0,-185.0,-151.0,0
1685,0.0,-183.0,-156.0,0
1686,2.0,-185.0,-154.0,0
1687,1.0,-185.0,-156.0,0
1688,1.0,-186.0,-154.0,0
1689,3.0,-190.0,-152.0,0
1690,3.0,-190.0,-143.0,0
1691,4.0,-193.0,-150.0,0
1692,3.0,-192.0,-144.0,0
1693,2.0,-193.0,-146.0,0
1694,1.0,-193.0,-147.0,0
1695,-2.0,-194.0,-144.0,0
1696,0.0,-193.0,-144.0,0
1697,1.0,-193.0,-146.0,0
1698,0.0,-195.0,-142.0,0
1699,-1.0,-193.0,-141.0,0
1700,-3.0,-198.0,-146.0,0
1701,-4.0,-196.0,-145.0,0
1702,-9.0,-195.0,-144.0,0
1703,-6.0,-200.0,-141.0,0
1704,-6.0,-198.0,-145.0,0
1705,-4.0,-196.0,-136.0,0
1706,-4.0,-200.0,-134.0,0
1707,-3.0,-201.0,-135.0,0
1708,-2.0,-202.0,-131.0,0
1709,-4.0,-201.0,-131.0,0
1710,-1.0,-204.0,-129.0,0
1711,-1.0,-205.0,-127.0,0
1712,-5.0,-206.0,-127.0,0
1713,-2.0,-206.0,-124.0,0
1714,-5.0,-210.0,-125.0,0
1715,-1.0,-215.0,-117.0,0
1716,-2.0,-214.0,-127.0,0
1717,0.0,-215.0,-126.0,0
1718,-6.0,-215.0,-128.0,0
1719,2.0,-219.0,-124.0,0
1720,0.0,-216.0,-126.0,0
1721,1.0,-214.0,-129.0,0
1722,0.0,-213.0,-127.0,0
1723,-3.0,-209.0,-123.0,0
1724,1.0,-210.0,-119.0,0
1725,1.0,-212.0,-122.0,0
1726,2.0,-214.0,-119.0,0
1727,0.0,-215.0,-115.0,0
1728,2.0,-217.0,-116.0,0
1729,0.0,-214.0,-120.0,0
1730,1.0,-215.0,-113.0,0
1731,0.0,-213.0,-118.0,0
1732,1.0,-216.0,-118.0,0
1733,-2.0,-210.0,-114.0,0
1734,3.0,-210.0,-119.0,0
1735,3.0,-210.0,-120.0,0
1736,0.0,-211.0,-115.0,0
1737,-1.0,-213.0,-112.0,0
1738,2.0,-212.0,-115.0,0
1739,3.0,-214.0,-112.0,0
1740,0.0,-211.0,-114.0,0
1741,2.0,-210.0,-112.0,0
1742,0.0,-210.0,-113.0,0
1743,-3.0,-212.0,-110.0,0
1744,-3.0,-208.0,-110.0,0
1745,-2.0,-214.0,-107.0,0
1746,-4.0,-217.0,-111.0,0
1747,-7.0,-213.0,-109.0,0
1748,3.0,-214.0,-110.0,0
1749,-2.0,-217.0,-111.0,0
1750,-5.0,-216.0,-112.0,0
1751,-2.0,-219.0,-107.0,0
1752,0.0,-216.0,-112.0,0
1753,-2.0,-217.0,-116.0,0
1754,-1.0,-215.0,-113.0,0
1755,0.0,-217.0,-117.0,0
1756,-2.0,-222.0,-113.0,0
1757,0.0,-220.0,-113.0,0
1758,0.0,-222.0,-114.0,0
1759,0.0,-219.0,-113.0,0
1760,-3.0,-217.0,-109.0,0
1761,1.0,-220.0,-106.0,0
1762,0.0,-220.0,-107.0,0
1763,0.0,-222.0,-109.0,0
1764,0.0,-222.0,-108.0,0
1765,1.0,-228.0,-108.0,0
1766,1.0,-223.0,-109.0,0
1767,1.0,-223.0,-110.0,0
1768,0.0,-222.0,-111.0,0
1769,-4.0,-223.0,-108.0,0
1770,-4.0,-220.0,-108.0,0
1771,1.0,-225.0,-113.0,0
1772,-3.0,-219.0,-108.0,0
1773,0.0,-222.0,-107.0,0
1774,-2.0,-220.0,-104.0,0
1775,0.0,-223.0,-102.0,0
1776,-2.0,-223.0,-108.0,0
1777,0.0,-220.0,-108.0,0
1778,-1.0,-222.0,-110.0,0
1779,-4.0,-218.0,-107.0,0
1780,-1.0,-218.0,-102.0,0
1781,-1.0,-215.0,-103.0,0
1782,-2.0,-218.0,-108.0,0
1783,-2.0,-218.0,-100.0,0
1784,0.0,-218.0,-105.0,0
1785,1.0,-218.0,-100.0,0
1786,-2.0,-218.0,-108.0,0
1787,0.0,-222.0,-108.0,0
1788,1.0,-223.0,-103.0,0
1789,0.0,-217.0,-104.0,0
1790,3.0,-224.0,-98.0,0
1791,0.0,-219.0,-100.0,0
1792,1.0,-221.0,-98.0,0
1793,0.0,-216.0,-100.0,0
1794,2.0,-221.0,-103.0,0
1795,4.0,-221.0,-103.0,0
1796,4.0,-222.0,-99.0,0
1797,-2.0,-222.0,-98.0,0
1798,1.0,-222.0,-106.0,0
1799,2.0,-222.0,-105.0,0
1800,0.0,-222.0,-101.0,0
1801,0.0,-224.0,-105.0,0
1802,-1.0,-224.0,-108.0,0
1803,1.0,-226.0,-101.0,0
1804,0.0,-231.0,-110.0,0
1805,0.0,-223.0,-104.0,0
1806,1.0,-228.0,-107.0,0
1807,0.0,-225.0,-103.0,0
1808,0.0,-226.0,-103.0,0
1809,2.0,-230.0,-101.0,0
1810,2.0,-230.0,-102.0,0
1811,2.0,-227.0,-102.0,0
1812,0.0,-226.0,-100.0,0
1813,0.0,-226.0,-102.0,0
1814,2.0,-232.0,-104.0,0
1815,0.0,-225.0,-102.0,0
1816,0.0,-228.0,-102.0,0
1817,0.0,-227.0,-102.0,0
1818,-1.0,-229.0,-104.0,0
1819,0.0,-229.0,-101.0,0
1820,2.0,-227.0,-97.0,0
1821,0.0,-228.0,-99.0,0
1822,1.0,-230.0,-98.0,0
1823,-2.0,-229.0,-98.0,0
1824,-1.0,-231.0,-97.0,0
1825,1.0,-228.0,-90.0,0
1826,0.0,-229.0,-96.0,0
1827,-1.0,-231.0,-97.0,0
1828,-1.0,-230.0,-96.0,0
1829,0.0,-230.0,-94.0,0
1830,0.0,-230.0,-96.0,0
1831,1.0,-229.0,-100.0,0
1832,3.0,-228.0,-96.0,0
1833,1.0,-230.0,-95.0,0
1834,4.0,-228.0,-97.0,0
1835,2.0,-228.0,-93.0,0
1836,3.0,-230.0,-95.0,0
1837,2.0,-229.0,-92.0,0
1838,4.0,-230.0,-95.0,0
1839,2.0,-230.0,-96.0,0
1840,3.0,-228.0,-96.0,0
1841,4.0,-226.0,-96.0,0
1842,6.0,-228.0,-97.0,0
1843,7.0,-230.0,-96.0,0
1844,4.0,-227.0,-98.0,0
1845,4.0,-231.0,-95.0,0
1846,7.0,-232.0,-99.0,0
1847,3.0,-229.0,-102.0,0
1848,3.0,-229.0,-95.0,0
1849,2.0,-226.0,-95.0,0
1850,3.0,-228.0,-99.0,0
1851,4.0,-226.0,-101.0,0
1852,5.0,-225.0,-103.0,0
1853,8.0,-228.0,-102.0,0
1854,5.0,-225.0,-103.0,0
1855,8.0,-226.0,-99.0,0
1856,3.0,-224.0,-99.0,0
1857,7.0,-228.0,-96.0,0
1858,3.0,-220.0,-103.0,0
1859,3.0,-228.0,-94.0,0
1860,3.0,-229.0,-101.0,0
1861,4.0,-230.0,-96.0,0
1862,6.0,-229.0,-97.0,0
1863,3.0,-228.0,-99.0,0
1864,5.0,-232.0,-99.0,0
1865,5.0,-230.0,-98.0,0
1866,3.0,-228.0,-101.0,0
1867,2.0,-229.0,-94.0,0
1868,0.0,-229.0,-96.0,0
1869,0.0,-225.0,-99.0,0
1870,5.0,-229.0,-97.0,0
1871,0.0,-226.0,-96.0,0
1872,0.0,-227.0,-93.0,0
1873,1.0,-228.0,-93.0,0
1874,-1.0,-229.0,-96.0,0
1875,0.0,-230.0,-97.0,0
1876,0.0,-230.0,-98.0,0
1877,1.0,-231.0,-99.0,0
1878,1.0,-229.0,-94.0,0
1879,0.0,-230.0,-99.0,0
1880,0.0,-233.0,-100.0,0
1881,1.0,-227.0,-95.0,0
1882,0.0,-224.0,-97.0,0
1883,0.0,-230.0,-95.0,0
1884,0.0,-229.0,-90.0,0
1885,0.0,-228.0,-96.0,0
1886,-1.0,-226.0,-98.0,0
1887,1.0,-229.0,-98.0,0
1888,0.0,-227.0,-96.0,0
1889,1.0,-231.0,-96.0,0
1890,2.0,-232.0,-97.0,0
1891,4.0,-231.0,-95.0,0
1892,1.0,-228.0,-94.0,0
1893,2.0,-227.0,-94.0,0
1894,2.0,-231.0,-93.0,0
1895,0.0,-230.0,-93.0,0
1896,1.0,-231.0,-91.0,0
1897,3.0,-231.0,-93.0,0
1898,2.0,-233.0,-93.0,0
1899,4.0,-230.0,-95.0,0
1900,4.0,-230.0,-92.0,0
1901,3.0,-231.0,-95.0,0
1902,-1.0,-229.0,-94.0,0
1903,0.0,-230.0,-98.0,0
1904,3.0,-230.0,-94.0,0
1905,3.0,-231.0,-95.0,0
1906,3.0,-227.0,-96.0,0
1907,6.0,-229.0,-97.0,0
1908,3.0,-229.0,-98.0,0
1909,4.0,-230.0,-95.0,0
1910,4.0,-229.0,-97.0,0
1911,1.0,-228.0,-95.0,0
1912,2.0,-222.0,-100.0,0
1913,5.0,-229.0,-93.0,0
1914,3.0,-226.0,-97.0,0
1915,3.0,-228.0,-94.0,0
1916,3.0,-229.0,-99.0,0
1917,2.0,-230.0,-98.0,0
1918,2.0,-230.0,-94.0,0
1919,4.0,-225.0,-94.0,0
1920,4.0,-227.0,-93.0,0
1921,1.0,-229.0,-95.0,0
1922,1.0,-224.0,-96.0,0
1923,1.0,-231.0,-97.0,0
1924,2.0,-226.0,-96.0,0
1925,0.0,-228.0,-99.0,0
1926,2.0,-232.0,-95.0,0
1927,3.0,-228.0,-95.0,0
1928,2.0,-228.0,-96.0,0
1929,1.0,-230.0,-96.0,0
1930,2.0,-229.0,-96.0,0
1931,3.0,-231.0,-97.0,0
1932,3.0,-229.0,-96.0,0
1933,3.0,-229.0,-96.0,0
1934,3.0,-230.0,-101.0,0
1935,0.0,-228.0,-99.0,0
1936,3.0,-232.0,-99.0,0
1937,2.0,-230.0,-98.0,0
1938,3.0,-227.0,-99.0,0
1939,3.0,-230.0,-98.0,0
1940,2.0,-226.0,-97.0,0
1941,2.0,-229.0,-100.0,0
1942,1.0,-225.0,-99.0,0
1943,3.0,-226.0,-98.0,0
1944,1.0,-226.0,-96.0,0
1945,1.0,-225.0,-99.0,0
1946,5.0,-229.0,-96.0,0
1947,0.0,-229.0,-97.0,0
1948,5.0,-229.0,-97.0,0
1949,6.0,-230.0,-99.0,0
1950,7.0,-228.0,-94.0,0
1951,4.0,-226.0,-94.0,0
1952,3.0,-224.0,-97.0,0
1953,5.0,-229.0,-101.0,0
1954,2.0,-227.0,-97.0,0
1955,5.0,-225.0,-96.0,0
1956,6.0,-227.0,-101.0,0
1957,7.0,-226.0,-96.0,0
1958,6.0,-227.0,-98.0,0
1959,6.0,-227.0,-95.0,0
1960,5.0,-227.0,-99.0,0
1961,4.0,-226.0,-97.0,0
1962,3.0,-227.0,-98.0,0
1963,3.0,-226.0,-98.0,0
1964,2.0,-226.0,-98.0,0
1965,5.0,-228.0,-105.0,0
1966,5.0,-227.0,-98.0,0
1967,5.0,-236.0,-101.0,0
1968,4.0,-229.0,-99.0,0
1969,2.0,-227.0,-97.0,0
1970,2.0,-231.0,-96.0,0
1971,3.0,-228.0,-97.0,0
1972,2.0,-226.0,-94.0,0
1973,3.0,-231.0,-96.0,0
1974,2.0,-226.0,-97.0,0
1975,5.0,-229.0,-101.0,0
1976,2.0,-224.0,-100.0,0
1977,2.0,-229.0,-96.0,0
1978,4.0,-227.0,-100.0,0
1979,3.0,-226.0,-96.0,0
1980,3.0,-227.0,-97.0,0
1981,5.0,-229.0,-94.0,0
1982,4.0,-227.0,-98.0,0
1983,3.0,-229.0,-95.0,0
1984,6.0,-231.0,-97.0,0
1985,3.0,-227.0,-98.0,0
1986,6.0,-229.0,-95.0,0
1987,3.0,-225.0,-95.0,0
1988,2.0,-226.0,-96.0,0
1989,3.0,-231.0,-94.0,0
1990,3.0,-226.0,-99.0,0
1991,4.0,-228.0,-96.0,0
1992,5.0,-228.0,-98.0,0
1993,3.0,-225.0,-97.0,0
1994,2.0,-228.0,-102.0,0
1995,1.0,-228.0,-99.0,0
1996,5.0,-223.0,-99.0,0
1997,1.0,-228.0,-96.0,0
1998,6.0,-229.0,-96.0,0
1999,6.0,-230.0,-98.0,0
2000,11.0,-232.0,-102.0,0
2001,4.0,-229.0,-102.0,0
2002,4.0,-231.0,-98.0,0
2003,5.0,-231.0,-95.0,0
2004,4.0,-228.0,-100.0,0
2005,4.0,-231.0,-97.0,0
2006,4.0,-229.0,-96.0,0
2007,4.0,-229.0,-100.0,0
2008,2.0,-231.0,-96.0,0
2009,6.0,-229.0,-96.0,0
2010,2.0,-226.0,-102.0,0
2011,4.0,-229.0,-98.0,0
2012,3.0,-226.0,-98.0,0
2013,6.0,-228.0,-98.0,0
2014,3.0,-228.0,-99.0,0
2015,2.0,-230.0,-101.0,0
2016,4.0,-228.0,-98.0,0
2017,4.0,-227.0,-101.0,0
2018,6.0,-228.0,-102.0,0
2019,6.0,-232.0,-103.0,0
2020,3.0,-227.0,-101.0,0
2021,5.0,-228.0,-98.0,0
2022,2.0,-223.0,-104.0,0
2023,2.0,-228.0,-102.0,0
2024,2.0,-229.0,-97.0,0
2025,2.0,-230.0,-98.0,0
2026,1.0,-229.0,-101.0,0
2027,2.0,-226.0,-103.0,0
2028,2.0,-227.0,-100.0,0
2029,1.0,-226.0,-96.0,0
2030,2.0,-227.0,-98.0,0
2031,1.0,-225.0,-101.0,0
2032,3.0,-227.0,-98.0,0
2033,2.0,-228.0,-101.0,0
2034,5.0,-229.0,-101.0,0
2035,4.0,-226.0,-100.0,0
2036,4.0,-229.0,-101.0,0
2037,3.0,-228.0,-101.0,0
2038,2.0,-226.0,-104.0,0
2039,1.0,-228.0,-95.0,0
2040,2.0,-225.0,-101.0,0
2041,1.0,-228.0,-102.0,0
2042,3.0,-226.0,-98.0,0
2043,3.0,-230.0,-105.0,0
2044,3.0,-226.0,-99.0,0
2045,1.0,-226.0,-99.0,0
2046,1.0,-228.0,-102.0,0
2047,3.0,-227.0,-99.0,0
2048,2.0,-225.0,-100.0,0
2049,2.0,-226.0,-102.0,0
2050,2.0,-225.0,-103.0,0
2051,6.0,-227.0,-100.0,0
2052,7.0,-225.0,-101.0,0
2053,1.0,-224.0,-101.0,0
2054,0.0,-229.0,-104.0,0
2055,1.0,-224.0,-101.0,0
2056,4.0,-226.0,-100.0,0
2057,2.0,-226.0,-102.0,0
2058,3.0,-230.0,-100.0,0
2059,4.0,-226.0,-100.0,0
2060,3.0,-230.0,-103.0,0
2061,2.0,-225.0,-106.0,0
2062,2.0,-226.0,-96.0,0
2063,6.0,-226.0,-98.0,0
2064,4.0,-224.0,-102.0,0
2065,1.0,-223.0,-101.0,0
2066,4.0,-226.0,-100.0,0
2067,3.0,-225.0,-102.0,0
2068,3.0,-225.0,-105.0,0
2069,5.0,-230.0,-104.0,0
2070,2.0,-224.0,-101.0,0
2071,2.0,-223.0,-102.0,0
2072,5.0,-226.0,-96.0,0
2073,4.0,-227.0,-105.0,0
2074,2.0,-226.0,-100.0,0
2075,1.0,-225.0,-101.0,0
2076,4.0,-229.0,-105.0,0
2077,6.0,-227.0,-99.0,0
2078,4.0,-226.0,-103.0,0
2079,5.0,-226.0,-102.0,0
2080,5.0,-224.0,-101.0,0
2081,5.0,-227.0,-102.0,0
2082,6.0,-226.0,-98.0,0
2083,5.0,-227.0,-104.0,0
2084,5.0,-231.0,-101.0,0
2085,4.0,-228.0,-102.0,0
2086,5.0,-225.0,-100.0,0
2087,2.0,-223.0,-107.0,0
2088,0.0,-227.0,-102.0,0
2089,4.0,-227.0,-100.0,0
2090,2.0,-229.0,-103.0,0
2091,2.0,-226.0,-100.0,0
2092,5.0,-228.0,-101.0,0
2093,5.0,-226.0,-101.0,0
2094,4.0,-225.0,-98.0,0
2095,4.0,-225.0,-101.0,0
2096,6.0,-228.0,-96.0,0
2097,1.0,-223.0,-100.0,0
2098,3.0,-224.0,-105.0,0
2099,5.0,-226.0,-101.0,0
2100,3.0,-227.0,-100.0,0
2101,5.0,-227.0,-101.0,0
2102,2.0,-224.0,-97.0,0
2103,5.0,-226.0,-98.0,0
2104,5.0,-227.0,-98.0,0
2105,3.0,-228.0,-98.0,0
2106,1.0,-227.0,-101.0,0
2107,4.0,-225.0,-101.0,0
2108,1.0,-223.0,-106.0,0
2109,0.0,-226.0,-106.0,0
2110,3.0,-227.0,-102.0,0
2111,4.0,-229.0,-100.0,0
2112,3.0,-226.0,-98.0,0
2113,6.0,-227.0,-102.0,0
2114,3.0,-226.0,-103.0,0
2115,2.0,-227.0,-102.0,0
2116,5.0,-229.0,-100.0,0
2117,2.0,-225.0,-101.0,0
2118,1.0,-229.0,-104.0,0
2119,7.0,-232.0,-100.0,0
2120,3.0,-229.0,-100.0,0
2121,4.0,-225.0,-101.0,0
2122,3.0,-227.0,-99.0,0
2123,5.0,-225.0,-96.0,0
2124,3.0,-226.0,-98.0,0
2125,2.0,-230.0,-97.0,0
2126,4.0,-231.0,-100.0,0
2127,3.0,-229.0,-98.0,0
2128,3.0,-228.0,-98.0,0
2129,2.0,-225.0,-102.0,0
2130,4.0,-218.0,-101.0,0
2131,4.0,-222.0,-99.0,0
2132,4.0,-225.0,-103.0,0
2133,6.0,-225.0,-101.0,0
2134,6.0,-225.0,-101.0,0
2135,8.0,-227.0,-102.0,0
2136,5.0,-222.0,-99.0,0
2137,5.0,-226.0,-97.0,0
2138,4.0,-228.0,-97.0,0
2139,7.0,-230.0,-96.0,0
2140,4.0,-227.0,-100.0,0
2141,8.0,-233.0,-103.0,0
2142,3.0,-227.0,-100.0,0
2143,5.0,-230.0,-102.0,0
2144,5.0,-227.0,-103.0,0
2145,5.0,-227.0,-101.0,0
2146,3.0,-226.0,-101.0,0
2147,3.0,-226.0,-100.0,0
2148,5.0,-223.0,-98.0,0
2149,3.0,-228.0,-98.0,0
2150,2.0,-225.0,-96.0,0
2151,5.0,-223.0,-98.0,0
2152,7.0,-228.0,-90.0,0
2153,6.0,-226.0,-103.0,0
2154,4.0,-228.0,-99.0,0
2155,3.0,-228.0,-100.0,0
2156,3.0,-227.0,-97.0,0
2157,5.0,-228.0,-102.0,0
2158,7.0,-228.0,-100.0,0
2159,7.0,-223.0,-99.0,0
2160,4.0,-229.0,-97.0,0
2161,4.0,-224.0,-103.0,0
2162,6.0,-229.0,-99.0,0
2163,9.0,-231.0,-97.0,0
2164,6.0,-227.0,-99.0,0
2165,5.0,-230.0,-103.0,0
2166,7.0,-226.0,-102.0,0
2167,3.0,-228.0,-97.0,0
2168,5.0,-228.0,-97.0,0
2169,8.0,-231.0,-100.0,0
2170,6.0,-229.0,-101.0,0
2171,5.0,-228.0,-95.0,0
2172,6.0,-226.0,-98.0,0
2173,3.0,-225.0,-100.0,0
2174,5.0,-228.0,-103.0,0
2175,3.0,-226.0,-100.0,0
2176,6.0,-227.0,-99.0,0
2177,5.0,-228.0,-99.0,0
2178,6.0,-226.0,-97.0,0
2179,5.0,-228.0,-100.0,0
2180,6.0,-228.0,-101.0,0
2181,6.0,-225.0,-97.0,0
2182,8.0,-227.0,-100.0,0
2183,3.0,-225.0,-98.0,0
2184,3.0,-224.0,-97.0,0
2185,5.0,-225.0,-96.0,0
2186,4.0,-228.0,-98.0,0
2187,4.0,-229.0,-98.0,0
2188,3.0,-225.0,-101.0,0
2189,3.0,-228.0,-100.0,0
2190,5.0,-227.0,-100.0,0
2191,3.0,-230.0,-100.0,0
2192,4.0,-227.0,-101.0,0
2193,5.0,-228.0,-96.0,0
2194,4.0,-227.0,-100.0,0
2195,6.0,-228.0,-101.0,0
2196,5.0,-228.0,-97.0,0
2197,4.0,-231.0,-99.0,0
2198,6.0,-228.0,-100.0,0
2199,6.0,-228.0,-98.0,0
2200,5.0,-228.0,-100.0,0
2201,3.0,-225.0,-103.0,0
2202,5.0,-230.0,-98.0,0
2203,6.0,-228.0,-100.0,0
2204,6.0,-230.0,-99.0,0
2205,4.0,-229.0,-96.0,0
2206,6.0,-229.0,-99.0,0
2207,2.0,-230.0,-98.0,0
2208,6.0,-229.0,-98.0,0
2209,3.0,-230.0,-97.0,0
2210,1.0,-225.0,-100.0,0
2211,6.0,-226.0,-99.0,0
2212,7.0,-231.0,-99.0,0
2213,5.0,-225.0,-97.0,0
2214,6.0,-228.0,-101.0,0
2215,6.0,-232.0,-99.0,0
2216,7.0,-228.0,-97.0,0
2217,7.0,-229.0,-96.0,0
2218,5.0,-225.0,-102.0,0
2219,5.0,-226.0,-98.0,0
2220,6.0,-229.0,-101.0,0
2221,7.0,-226.0,-99.0,0
2222,5.0,-225.0,-98.0,0
2223,7.0,-227.0,-98.0,0
2224,2.0,-227.0,-97.0,0
2225,5.0,-227.0,-94.0,0
2226,2.0,-225.0,-98.0,0
2227,3.0,-226.0,-98.0,0
2228,4.0,-229.0,-98.0,0
2229,5.0,-231.0,-98.0,0
2230,7.0,-229.0,-99.0,0
2231,5.0,-228.0,-97.0,0
2232,9.0,-228.0,-98.0,0
2233,5.0,-227.0,-102.0,0
2234,3.0,-227.0,-96.0,0
2235,5.0,-226.0,-99.0,0
2236,8.0,-229.0,-100.0,0
2237,3.0,-229.0,-101.0,0
2238,5.0,-224.0,-96.0,0
2239,5.0,-230.0,-103.0,0
2240,7.0,-228.0,-99.0,0
2241,4.0,-228.0,-98.0,0
2242,4.0,-228.0,-103.0,0
2243,3.0,-229.0,-102.0,0
2244,4.0,-227.0,-99.0,0
2245,3.0,-227.0,-101.0,0
2246,5.0,-231.0,-101.0,0
2247,2.0,-226.0,-98.0,0
2248,6.0,-232.0,-100.0,0
2249,4.0,-227.0,-99.0,0
2250,8.0,-229.0,-102.0,0
2251,6.0,-228.0,-100.0,0
2252,2.0,-225.0,-100.0,0
2253,4.0,-227.0,-100.0,0
2254,5.0,-229.0,-102.0,0
2255,1.0,-225.0,-101.0,0
2256,5.0,-229.0,-97.0,0
2257,6.0,-229.0,-100.0,0
2258,2.0,-226.0,-97.0,0
2259,5.0,-227.0,-98.0,0
2260,4.0,-227.0,-98.0,0
2261,9.0,-230.0,-93.0,0
2262,6.0,-227.0,-103.0,0
2263,2.0,-223.0,-100.0,0
2264,6.0,-228.0,-102.0,0
2265,5.0,-223.0,-98.0,0
2266,5.0,-227.0,-100.0,0
2267,5.0,-228.0,-101.0,0
2268,6.0,-229.0,-99.0,0
2269,3.0,-228.0,-100.0,0
2270,3.0,-230.0,-95.0,0
2271,4.0,-229.0,-101.0,0
2272,4.0,-225.0,-99.0,0
2273,2.0,-229.0,-95.0,0
2274,4.0,-226.0,-96.0,0
2275,4.0,-230.0,-101.0,0
2276,3.0,-228.0,-96.0,0
2277,4.0,-229.0,-101.0,0
2278,6.0,-226.0,-102.0,0
2279,3.0,-227.0,-97.0,0
2280,1.0,-226.0,-99.0,0
2281,3.0,-228.0,-96.0,0
2282,3.0,-225.0,-95.0,0
2283,2.0,-232.0,-102.0,0
2284,3.0,-228.0,-100.0,0
2285,5.0,-227.0,-98.0,0
2286,4.0,-229.0,-95.0,0
2287,3.0,-225.0,-98.0,0
2288,1.0,-228.0,-100.0,0
2289,3.0,-228.0,-96.0,0
2290,2.0,-230.0,-101.0,0
2291,2.0,-229.0,-99.0,0
2292,4.0,-229.0,-104.0,0
2293,3.0,-226.0,-101.0,0
2294,1.0,-232.0,-109.0,0
2295,2.0,-227.0,-101.0,0
2296,3.0,-228.0,-100.0,0
2297,2.0,-225.0,-96.0,0
2298,4.0,-222.0,-99.0,0
2299,5.0,-227.0,-102.0,0
2300,4.0,-228.0,-103.0,0
2301,3.0,-228.0,-102.0,0
2302,2.0,-229.0,-100.0,0
2303,3.0,-227.0,-101.0,0
2304,7.0,-228.0,-97.0,0
2305,4.0,-232.0,-98.0,0
2306,1.0,-226.0,-101.0,0
2307,4.0,-227.0,-101.0,0
2308,2.0,-225.0,-99.0,0
2309,5.0,-227.0,-99.0,0
2310,3.0,-229.0,-98.0,0
2311,6.0,-226.0,-98.0,0
2312,4.0,-230.0,-99.0,0
2313,4.0,-226.0,-101.0,0
2314,2.0,-225.0,-107.0,0
2315,2.0,-225.0,-98.0,0
2316,2.0,-221.0,-104.0,0
2317,1.0,-225.0,-102.0,0
2318,2.0,-228.0,-95.0,0
2319,2.0,-225.0,-101.0,0
2320,3.0,-224.0,-98.0,0
2321,4.0,-227.0,-99.0,0
2322,1.0,-227.0,-102.0,0
2323,2.0,-226.0,-97.0,0
2324,4.0,-231.0,-99.0,0
2325,6.0,-231.0,-96.0,0
2326,0.0,-227.0,-95.0,0
2327,2.0,-226.0,-97.0,0
2328,5.0,-231.0,-97.0,0
2329,0.0,-228.0,-99.0,0
2330,2.0,-229.0,-102.0,0
2331,6.0,-229.0,-100.0,0
2332,4.0,-230.0,-98.0,0
2333,0.0,-226.0,-104.0,0
2334,2.0,-227.0,-98.0,0
2335,1.0,-230.0,-98.0,0
2336,3.0,-228.0,-98.0,0
2337,1.0,-234.0,-110.0,0
2338,1.0,-226.0,-100.0,0
2339,3.0,-227.0,-98.0,0
2340,2.0,-228.0,-99.0,0
2341,3.0,-229.0,-99.0,0
2342,4.0,-228.0,-103.0,0
2343,1.0,-227.0,-101.0,0
2344,3.0,-227.0,-98.0,0
2345,4.0,-226.0,-97.0,0
2346,1.0,-225.0,-101.0,0
2347,3.0,-224.0,-100.0,0
2348,3.0,-228.0,-97.0,0
2349,4.0,-228.0,-94.0,0
2350,5.0,-229.0,-100.0,0
2351,2.0,-228.0,-99.0,0
2352,3.0,-227.0,-100.0,0
2353,2.0,-222.0,-99.0,0
2354,3.0,-227.0,-99.0,0
2355,5.0,-229.0,-97.0,0
2356,4.0,-231.0,-100.0,0
2357,2.0,-228.0,-100.0,0
2358,4.0,-225.0,-102.0,0
2359,3.0,-225.0,-102.0,0
2360,5.0,-227.0,-101.0,0
2361,3.0,-227.0,-97.0,0
2362,1.0,-228.0,-100.0,0
2363,3.0,-227.0,-101.0,0
2364,1.0,-226.0,-100.0,0
2365,3.0,-225.0,-104.0,0
2366,4.0,-225.0,-105.0,0
2367,3.0,-228.0,-106.0,0
2368,4.0,-227.0,-100.0,0
2369,3.0,-229.0,-102.0,0
2370,4.0,-230.0,-97.0,0
2371,2.0,-226.0,-98.0,0
2372,2.0,-227.0,-99.0,0
2373,1.0,-224.0,-99.0,0
2374,1.0,-227.0,-98.0,0
2375,3.0,-227.0,-100.0,0
2376,2.0,-226.0,-99.0,0
2377,1.0,-225.0,-102.0,0
2378,4.0,-229.0,-99.0,0
2379,1.0,-223.0,-99.0,0
2380,6.0,-231.0,-101.0,0
2381,2.0,-225.0,-102.0,0
2382,4.0,-227.0,-100.0,0
2383,1.0,-230.0,-101.0,0
2384,2.0,-225.0,-97.0,0
2385,4.0,-227.0,-98.0,0
2386,3.0,-225.0,-96.0,0
2387,3.0,-227.0,-100.0,0
2388,2.0,-224.0,-99.0,0
2389,4.0,-226.0,-96.0,0
2390,1.0,-223.0,-94.0,0
2391,2.0,-225.0,-99.0,0
2392,4.0,-226.0,-98.0,0
2393,3.0,-227.0,-99.0,0
2394,4.0,-229.0,-103.0,0
2395,3.0,-226.0,-99.0,0
2396,2.0,-226.0,-97.0,0
2397,1.0,-226.0,-100.0,0
2398,4.0,-225.0,-102.0,0
2399,3.0,-225.0,-100.0,0
