,accelerometer_x,accelerometer_y,accelerometer_z,fall
0,5.0,-245.0,-71.0,0
1,4.0,-248.0,-68.0,0
2,5.0,-247.0,-70.0,0
3,4.0,-247.0,-66.0,0
4,2.0,-245.0,-68.0,0
5,12.0,-248.0,-66.0,0
6,9.0,-249.0,-69.0,0
7,7.0,-247.0,-69.0,0
8,4.0,-247.0,-67.0,0
9,5.0,-248.0,-69.0,0
10,2.0,-249.0,-69.0,0
11,3.0,-245.0,-71.0,0
12,4.0,-245.0,-67.0,0
13,6.0,-248.0,-65.0,0
14,5.0,-248.0,-65.0,0
15,6.0,-252.0,-63.0,0
16,4.0,-248.0,-67.0,0
17,3.0,-249.0,-62.0,0
18,3.0,-248.0,-62.0,0
19,4.0,-248.0,-61.0,0
20,5.0,-246.0,-61.0,0
21,2.0,-245.0,-61.0,0
22,3.0,-244.0,-62.0,0
23,4.0,-240.0,-61.0,0
24,2.0,-240.0,-61.0,0
25,2.0,-236.0,-61.0,0
26,0.0,-233.0,-61.0,0
27,1.0,-234.0,-60.0,0
28,1.0,-234.0,-61.0,0
29,7.0,-235.0,-62.0,0
30,3.0,-231.0,-63.0,0
31,3.0,-229.0,-60.0,0
32,7.0,-230.0,-61.0,0
33,8.0,-229.0,-66.0,0
34,8.0,-228.0,-62.0,0
35,11.0,-232.0,-65.0,0
36,11.0,-232.0,-62.0,0
37,12.0,-241.0,-62.0,0
38,18.0,-238.0,-64.0,0
39,16.0,-240.0,-65.0,0
40,19.0,-248.0,-64.0,0
41,20.0,-248.0,-65.0,0
42,17.0,-257.0,-66.0,0
43,18.0,-259.0,-64.0,0
44,16.0,-265.0,-67.0,0
45,14.0,-270.0,-69.0,0
46,16.0,-271.0,-65.0,0
47,12.0,-272.0,-70.0,0
48,13.0,-272.0,-69.0,0
49,9.0,-274.0,-71.0,0
50,12.0,-273.0,-71.0,0
51,11.0,-273.0,-70.0,0
52,8.0,-268.0,-70.0,0
53,1.0,-266.0,-70.0,0
54,5.0,-265.0,-68.0,0
55,1.0,-264.0,-70.0,0
56,2.0,-265.0,-65.0,0
57,3.0,-264.0,-62.0,0
58,5.0,-265.0,-63.0,0
59,1.0,-257.0,-67.0,0
60,3.0,-254.0,-65.0,0
61,4.0,-247.0,-65.0,0
62,5.0,-248.0,-66.0,0
63,6.0,-244.0,-61.0,0
64,6.0,-246.0,-62.0,0
65,8.0,-247.0,-56.0,0
66,8.0,-247.0,-61.0,0
67,10.0,-246.0,-60.0,0
68,8.0,-244.0,-62.0,0
69,8.0,-241.0,-67.0,0
70,14.0,-240.0,-71.0,0
71,9.0,-239.0,-68.0,0
72,8.0,-238.0,-69.0,0
73,7.0,-243.0,-65.0,0
74,12.0,-246.0,-60.0,0
75,12.0,-246.0,-58.0,0
76,11.0,-246.0,-64.0,0
77,11.0,-247.0,-63.0,0
78,10.0,-243.0,-64.0,0
79,11.0,-248.0,-66.0,0
80,14.0,-249.0,-69.0,0
81,10.0,-244.0,-67.0,0
82,7.0,-247.0,-66.0,0
83,11.0,-247.0,-74.0,0
84,8.0,-242.0,-68.0,0
85,6.0,-240.0,-71.0,0
86,8.0,-238.0,-71.0,0
87,5.0,-236.0,-68.0,0
88,4.0,-236.0,-74.0,0
89,4.0,-232.0,-72.0,0
90,3.0,-233.0,-74.0,0
91,6.0,-233.0,-78.0,0
92,4.0,-227.0,-79.0,0
93,1.0,-227.0,-82.0,0
94,2.0,-228.0,-81.0,0
95,0.0,-224.0,-82.0,0
96,-3.0,-226.0,-81.0,0
97,-7.0,-219.0,-82.0,0
98,-11.0,-219.0,-78.0,0
99,-18.0,-219.0,-78.0,0
100,-22.0,-215.0,-82.0,0
101,-21.0,-215.0,-83.0,0
102,-21.0,-217.0,-76.0,0
103,-23.0,-219.0,-74.0,0
104,-23.0,-214.0,-73.0,0
105,-20.0,-216.0,-68.0,0
106,-22.0,-216.0,-70.0,0
107,-21.0,-215.0,-67.0,0
108,-20.0,-218.0,-70.0,0
109,-18.0,-223.0,-67.0,0
110,-21.0,-225.0,-63.0,0
111,-16.0,-233.0,-57.0,0
112,-5.0,-244.0,-60.0,0
113,-6.0,-247.0,-57.0,0
114,0.0,-252.0,-61.0,0
115,-2.0,-256.0,-60.0,0
116,0.0,-258.0,-64.0,0
117,1.0,-264.0,-61.0,0
118,3.0,-266.0,-61.0,0
119,5.0,-267.0,-62.0,0
120,4.0,-274.0,-64.0,0
121,3.0,-280.0,-63.0,0
122,4.0,-284.0,-63.0,0
123,1.0,-286.0,-65.0,0
124,3.0,-291.0,-65.0,0
125,1.0,-288.0,-73.0,0
126,2.0,-284.0,-73.0,0
127,3.0,-283.0,-77.0,0
128,4.0,-272.0,-77.0,0
129,-2.0,-262.0,-82.0,0
130,0.0,-252.0,-83.0,0
131,6.0,-247.0,-91.0,0
132,0.0,-242.0,-93.0,0
133,-4.0,-243.0,-96.0,0
134,-12.0,-237.0,-92.0,0
135,-17.0,-237.0,-85.0,0
136,-24.0,-239.0,-83.0,0
137,-30.0,-237.0,-83.0,0
138,-37.0,-236.0,-80.0,0
139,-36.0,-235.0,-78.0,0
140,-39.0,-232.0,-76.0,0
141,-43.0,-227.0,-77.0,0
142,-42.0,-225.0,-75.0,0
143,-44.0,-219.0,-79.0,0
144,-47.0,-216.0,-78.0,0
145,-49.0,-211.0,-92.0,0
146,-46.0,-214.0,-85.0,0
147,-51.0,-208.0,-82.0,0
148,-53.0,-208.0,-80.0,0
149,-50.0,-210.0,-76.0,0
150,-51.0,-205.0,-79.0,0
151,-49.0,-206.0,-78.0,0
152,-47.0,-204.0,-80.0,0
153,-48.0,-203.0,-77.0,0
154,-47.0,-205.0,-79.0,0
155,-50.0,-206.0,-77.0,0
156,-41.0,-209.0,-77.0,0
157,-23.0,-218.0,-78.0,0
158,-25.0,-217.0,-81.0,0
159,-21.0,-217.0,-82.0,0
160,-19.0,-218.0,-77.0,0
161,-26.0,-223.0,-72.0,0
162,-12.0,-223.0,-71.0,0
163,-2.0,-232.0,-67.0,0
164,2.0,-235.0,-62.0,0
165,0.0,-230.0,-60.0,0
166,-1.0,-228.0,-54.0,0
167,11.0,-226.0,-51.0,0
168,15.0,-223.0,-57.0,0
169,9.0,-222.0,-53.0,0
170,7.0,-223.0,-52.0,0
171,0.0,-226.0,-50.0,0
172,-2.0,-227.0,-54.0,0
173,-11.0,-228.0,-46.0,0
174,-7.0,-237.0,-45.0,0
175,-9.0,-242.0,-43.0,0
176,-13.0,-243.0,-39.0,0
177,-14.0,-253.0,-34.0,0
178,-18.0,-266.0,-36.0,0
179,-29.0,-274.0,-45.0,0
180,-32.0,-280.0,-47.0,0
181,-40.0,-282.0,-50.0,0
182,-31.0,-291.0,-56.0,0
183,-34.0,-297.0,-61.0,0
184,-29.0,-299.0,-59.0,0
185,-27.0,-312.0,-56.0,0
186,-18.0,-314.0,-55.0,0
187,-24.0,-316.0,-52.0,0
188,-35.0,-306.0,-48.0,0
189,-51.0,-303.0,-29.0,0
190,-45.0,-303.0,-32.0,0
191,-65.0,-287.0,-34.0,0
192,-92.0,-280.0,-37.0,0
193,-102.0,-282.0,-36.0,0
194,-111.0,-286.0,-43.0,0
195,-111.0,-297.0,-41.0,0
196,-118.0,-318.0,-46.0,0
197,-108.0,-329.0,-52.0,0
198,-112.0,-331.0,-50.0,0
199,-123.0,-318.0,-54.0,0
200,-135.0,-305.0,-54.0,0
201,-137.0,-289.0,-46.0,0
202,-136.0,-265.0,-49.0,0
203,-130.0,-242.0,-56.0,0
204,-120.0,-221.0,-83.0,0
205,-107.0,-202.0,-127.0,0
206,-99.0,-192.0,-188.0,0
207,-85.0,-188.0,-252.0,0
208,-69.0,-200.0,-303.0,0
209,-56.0,-224.0,-313.0,0
210,-50.0,-255.0,-275.0,0
211,-76.0,-287.0,-229.0,0
212,-117.0,-331.0,-148.0,0
213,-143.0,-375.0,-70.0,0
214,-164.0,-402.0,-12.0,0
215,-149.0,-403.0,36.0,0
216,-131.0,-351.0,34.0,0
217,-99.0,-267.0,-10.0,0
218,-54.0,-192.0,-64.0,0
219,-2.0,-122.0,-111.0,0
220,43.0,-60.0,-145.0,0
221,87.0,-33.0,-155.0,0
222,92.0,-29.0,-151.0,0
223,93.0,-58.0,-138.0,0
224,92.0,-103.0,-120.0,0
225,96.0,-150.0,-113.0,0
226,75.0,-180.0,-111.0,0
227,54.0,-220.0,-124.0,0
228,36.0,-265.0,-142.0,0
229,10.0,-298.0,-149.0,0
230,3.0,-313.0,-155.0,0
231,8.0,-329.0,-165.0,0
232,0.0,-329.0,-176.0,0
233,3.0,-331.0,-186.0,0
234,-4.0,-332.0,-183.0,0
235,12.0,-330.0,-187.0,0
236,19.0,-322.0,-184.0,0
237,15.0,-306.0,-186.0,0
238,20.0,-295.0,-191.0,0
239,6.0,-298.0,-183.0,0
240,12.0,-309.0,-178.0,0
241,9.0,-328.0,-174.0,0
242,6.0,-357.0,-164.0,0
243,10.0,-380.0,-170.0,0
244,6.0,-414.0,-173.0,0
245,3.0,-428.0,-186.0,0
246,0.0,-449.0,-189.0,0
247,-16.0,-453.0,-196.0,0
248,-9.0,-454.0,-188.0,0
249,-24.0,-470.0,-192.0,0
250,-25.0,-481.0,-184.0,0
251,-28.0,-490.0,-175.0,0
252,-46.0,-500.0,-162.0,0
253,-30.0,-509.0,-149.0,0
254,-26.0,-499.0,-148.0,0
255,-31.0,-499.0,-150.0,0
256,-27.0,-490.0,-153.0,0
257,-23.0,-477.0,-136.0,0
258,5.0,-453.0,-120.0,0
259,17.0,-433.0,-106.0,0
260,42.0,-398.0,-101.0,0
261,63.0,-361.0,-109.0,0
262,71.0,-341.0,-98.0,0
263,96.0,-287.0,-116.0,0
264,94.0,-251.0,-112.0,0
265,125.0,-248.0,-106.0,0
266,106.0,-242.0,-107.0,0
267,85.0,-204.0,-107.0,0
268,88.0,-199.0,-90.0,0
269,89.0,-200.0,-88.0,0
270,110.0,-217.0,-61.0,0
271,81.0,-231.0,-31.0,0
272,79.0,-233.0,-13.0,0
273,73.0,-239.0,-2.0,0
274,18.0,-232.0,11.0,0
275,48.0,-203.0,-7.0,0
276,43.0,-178.0,-6.0,0
277,35.0,-122.0,-34.0,0
278,13.0,-42.0,-55.0,0
279,-27.0,26.0,-65.0,0
280,-43.0,98.0,-69.0,0
281,-93.0,143.0,-52.0,0
282,-160.0,183.0,-69.0,0
283,-174.0,196.0,-74.0,0
284,-174.0,166.0,-53.0,0
285,-149.0,118.0,-46.0,0
286,-57.0,38.0,-28.0,0
287,0.0,-36.0,-4.0,0
288,6.0,-93.0,2.0,0
289,17.0,-128.0,-5.0,0
290,24.0,-152.0,-16.0,0
291,27.0,-160.0,-24.0,0
292,26.0,-162.0,-33.0,0
293,26.0,-139.0,-59.0,0
294,27.0,-112.0,-107.0,0
295,36.0,-90.0,-152.0,0
296,60.0,-39.0,-215.0,0
297,76.0,43.0,-272.0,0
298,109.0,81.0,-310.0,0
299,132.0,75.0,-323.0,0
300,158.0,50.0,-334.0,0
301,100.0,-29.0,-304.0,0
302,20.0,-112.0,-271.0,0
303,-34.0,-250.0,-185.0,0
304,-44.0,-383.0,-104.0,0
305,-5.0,-471.0,-41.0,0
306,9.0,-469.0,-44.0,0
307,16.0,-405.0,-128.0,0
308,7.0,-300.0,-249.0,0
309,-14.0,-204.0,-339.0,0
310,-35.0,-137.0,-393.0,0
311,-47.0,-101.0,-382.0,0
312,-43.0,-105.0,-334.0,0
313,-35.0,-141.0,-284.0,0
314,-30.0,-181.0,-239.0,0
315,3.0,-245.0,-209.0,0
316,23.0,-310.0,-189.0,0
317,42.0,-377.0,-174.0,0
318,61.0,-429.0,-189.0,0
319,72.0,-476.0,-181.0,0
320,81.0,-527.0,-197.0,0
321,76.0,-583.0,-203.0,0
322,75.0,-648.0,-204.0,0
323,68.0,-663.0,-206.0,0
324,71.0,-688.0,-184.0,0
325,29.0,-660.0,-181.0,0
326,36.0,-628.0,-183.0,0
327,51.0,-582.0,-177.0,0
328,13.0,-519.0,-154.0,0
329,20.0,-477.0,-131.0,0
330,-2.0,-436.0,-115.0,0
331,-13.0,-393.0,-102.0,0
332,-25.0,-356.0,-113.0,0
333,-51.0,-325.0,-101.0,0
334,-83.0,-305.0,-106.0,0
335,-148.0,-279.0,-99.0,0
336,-161.0,-266.0,-98.0,0
337,-168.0,-259.0,-88.0,0
338,-195.0,-233.0,-73.0,0
339,-202.0,-226.0,-75.0,0
340,-228.0,-214.0,-76.0,0
341,-209.0,-221.0,-71.0,0
342,-188.0,-213.0,-78.0,0
343,-160.0,-205.0,-80.0,0
344,-133.0,-175.0,-85.0,0
345,-90.0,-140.0,-108.0,0
346,-29.0,-88.0,-133.0,0
347,39.0,-42.0,-150.0,0
348,107.0,24.0,-161.0,0
349,128.0,71.0,-157.0,0
350,200.0,106.0,-162.0,0
351,175.0,122.0,-125.0,0
352,138.0,121.0,-72.0,0
353,102.0,106.0,-13.0,0
354,88.0,82.0,37.0,0
355,67.0,47.0,74.0,0
356,51.0,-2.0,88.0,0
357,43.0,-52.0,91.0,0
358,31.0,-82.0,79.0,0
359,24.0,-91.0,59.0,0
360,2.0,-86.0,31.0,0
361,-13.0,-59.0,-12.0,0
362,-26.0,-25.0,-56.0,0
363,-28.0,17.0,-99.0,0
364,-23.0,56.0,-144.0,0
365,-23.0,81.0,-170.0,0
366,-29.0,91.0,-179.0,0
367,-28.0,88.0,-164.0,0
368,-19.0,81.0,-156.0,0
369,-3.0,64.0,-177.0,0
370,11.0,45.0,-217.0,0
371,20.0,12.0,-259.0,0
372,29.0,-58.0,-277.0,0
373,43.0,-140.0,-279.0,0
374,55.0,-253.0,-277.0,0
375,80.0,-389.0,-273.0,0
376,131.0,-539.0,-234.0,0
377,171.0,-621.0,-156.0,0
378,139.0,-591.0,-91.0,0
379,98.0,-429.0,-105.0,0
380,63.0,-288.0,-199.0,0
381,13.0,-204.0,-311.0,0
382,-35.0,-153.0,-415.0,0
383,-93.0,-143.0,-468.0,0
384,-185.0,-182.0,-445.0,0
385,-236.0,-263.0,-379.0,0
386,-245.0,-391.0,-314.0,0
387,-221.0,-526.0,-241.0,0
388,-192.0,-631.0,-197.0,0
389,-185.0,-731.0,-198.0,0
390,-166.0,-801.0,-219.0,0
391,-125.0,-790.0,-275.0,0
392,-93.0,-766.0,-308.0,0
393,-52.0,-730.0,-301.0,0
394,-25.0,-718.0,-270.0,0
395,30.0,-683.0,-223.0,0
396,58.0,-647.0,-158.0,0
397,79.0,-575.0,-117.0,0
398,91.0,-492.0,-84.0,0
399,82.0,-420.0,-96.0,0
400,54.0,-356.0,-107.0,0
401,74.0,-319.0,-119.0,0
402,86.0,-298.0,-138.0,0
403,68.0,-264.0,-154.0,0
404,38.0,-226.0,-157.0,0
405,-12.0,-201.0,-149.0,0
406,-31.0,-170.0,-144.0,0
407,-23.0,-165.0,-116.0,0
408,-12.0,-158.0,-82.0,0
409,16.0,-159.0,-54.0,0
410,32.0,-148.0,-31.0,0
411,47.0,-137.0,-10.0,0
412,43.0,-96.0,-11.0,0
413,33.0,-82.0,3.0,0
414,48.0,-91.0,19.0,0
415,51.0,-77.0,25.0,0
416,42.0,-50.0,4.0,0
417,36.0,-9.0,-13.0,0
418,37.0,34.0,-33.0,0
419,25.0,80.0,-56.0,0
420,-21.0,125.0,-73.0,0
421,-45.0,135.0,-74.0,0
422,-40.0,126.0,-60.0,0
423,-59.0,111.0,-46.0,0
424,-66.0,69.0,-28.0,0
425,-50.0,23.0,-16.0,0
426,-10.0,-37.0,8.0,0
427,5.0,-73.0,29.0,0
428,23.0,-94.0,31.0,0
429,35.0,-98.0,13.0,0
430,51.0,-89.0,1.0,0
431,64.0,-73.0,-26.0,0
432,84.0,-52.0,-50.0,0
433,99.0,-25.0,-85.0,0
434,116.0,7.0,-120.0,0
435,128.0,40.0,-145.0,0
436,122.0,73.0,-146.0,0
437,93.0,84.0,-132.0,0
438,60.0,74.0,-102.0,0
439,40.0,59.0,-94.0,0
440,40.0,38.0,-111.0,0
441,50.0,23.0,-139.0,0
442,79.0,0.0,-183.0,0
443,95.0,-63.0,-230.0,0
444,113.0,-140.0,-323.0,0
445,141.0,-221.0,-438.0,0
446,143.0,-335.0,-488.0,0
447,130.0,-475.0,-437.0,0
448,12.0,-634.0,-306.0,0
449,-177.0,-687.0,-270.0,0
450,-212.0,-721.0,-242.0,0
451,-134.0,-660.0,-226.0,0
452,-93.0,-496.0,-355.0,0
453,-118.0,-329.0,-490.0,0
454,-178.0,-259.0,-528.0,0
455,-219.0,-289.0,-418.0,0
456,-216.0,-393.0,-247.0,0
457,-224.0,-472.0,-155.0,0
458,-213.0,-498.0,-147.0,0
459,-185.0,-508.0,-191.0,0
460,-124.0,-523.0,-235.0,0
461,-66.0,-562.0,-226.0,0
462,0.0,-596.0,-195.0,0
463,33.0,-609.0,-156.0,0
464,108.0,-609.0,-129.0,0
465,125.0,-554.0,-99.0,0
466,223.0,-527.0,-79.0,0
467,271.0,-490.0,-75.0,0
468,278.0,-439.0,-74.0,0
469,314.0,-399.0,-73.0,0
470,298.0,-372.0,-48.0,0
471,287.0,-362.0,-43.0,0
472,215.0,-347.0,-31.0,0
473,166.0,-341.0,-44.0,0
474,115.0,-339.0,-45.0,0
475,70.0,-343.0,-38.0,0
476,20.0,-349.0,-38.0,0
477,-28.0,-343.0,-37.0,0
478,-69.0,-336.0,-30.0,0
479,-105.0,-307.0,-23.0,0
480,-121.0,-264.0,-30.0,0
481,-137.0,-198.0,-49.0,0
482,-147.0,-123.0,-59.0,0
483,-138.0,-51.0,-85.0,0
484,-89.0,19.0,-75.0,0
485,-65.0,82.0,-56.0,0
486,-68.0,140.0,-30.0,0
487,-51.0,167.0,-27.0,0
488,-88.0,196.0,-26.0,0
489,-72.0,195.0,-41.0,0
490,-49.0,176.0,-73.0,0
491,-42.0,137.0,-80.0,0
492,-9.0,92.0,-81.0,0
493,38.0,-40.0,-58.0,0
494,55.0,-75.0,-70.0,0
495,81.0,-82.0,-70.0,0
496,118.0,-84.0,-58.0,0
497,134.0,-72.0,-33.0,0
498,141.0,-38.0,-23.0,0
499,118.0,-19.0,-16.0,0
500,74.0,6.0,-32.0,0
501,30.0,18.0,-51.0,0
502,-13.0,24.0,-63.0,0
503,-61.0,28.0,-68.0,0
504,-97.0,35.0,-70.0,0
505,-133.0,34.0,-74.0,0
506,-150.0,28.0,-79.0,0
507,-138.0,24.0,-90.0,0
508,-116.0,23.0,-116.0,0
509,-78.0,9.0,-138.0,0
510,-47.0,-2.0,-149.0,0
511,-38.0,-27.0,-135.0,0
512,-13.0,-49.0,-100.0,0
513,18.0,-81.0,-57.0,0
514,58.0,-108.0,-20.0,0
515,87.0,-117.0,-5.0,0
516,89.0,-119.0,5.0,0
517,67.0,-111.0,7.0,0
518,59.0,-99.0,-62.0,0
519,41.0,-106.0,-192.0,0
520,11.0,-114.0,-342.0,0
521,-52.0,-92.0,-593.0,0
522,-120.0,-92.0,-851.0,0
523,-199.0,-208.0,-791.0,0
524,-221.0,-435.0,-484.0,0
525,-193.0,-765.0,-151.0,0
526,-160.0,-1152.0,59.0,0
527,-89.0,-1314.0,106.0,0
528,15.0,-1107.0,-100.0,0
529,70.0,-804.0,-295.0,0
530,149.0,-599.0,-423.0,0
531,234.0,-532.0,-412.0,0
532,280.0,-506.0,-288.0,0
533,255.0,-509.0,-191.0,0
534,190.0,-515.0,-118.0,0
535,130.0,-512.0,-92.0,0
536,71.0,-501.0,-87.0,0
537,3.0,-491.0,-73.0,0
538,-45.0,-479.0,-65.0,0
539,-73.0,-485.0,-51.0,0
540,-105.0,-501.0,-35.0,0
541,-129.0,-520.0,-32.0,0
542,-151.0,-515.0,-40.0,0
543,-150.0,-502.0,-48.0,0
544,-136.0,-492.0,-42.0,0
545,-109.0,-472.0,-48.0,0
546,-61.0,-460.0,-43.0,0
547,-23.0,-454.0,-34.0,0
548,3.0,-444.0,-27.0,0
549,50.0,-444.0,-20.0,0
550,73.0,-433.0,-23.0,0
551,73.0,-446.0,-14.0,0
552,114.0,-453.0,4.0,0
553,126.0,-411.0,10.0,0
554,105.0,-350.0,12.0,0
555,135.0,-270.0,0.0,0
556,136.0,-195.0,-9.0,0
557,115.0,-125.0,-9.0,0
558,110.0,-56.0,-12.0,0
559,84.0,1.0,-14.0,0
560,71.0,63.0,-20.0,0
561,-23.0,124.0,-28.0,0
562,-55.0,169.0,-30.0,0
563,-148.0,212.0,-25.0,0
564,-175.0,225.0,-1.0,0
565,-225.0,248.0,9.0,0
566,-220.0,234.0,25.0,0
567,-197.0,219.0,9.0,0
568,-183.0,196.0,-6.0,0
569,-190.0,151.0,-12.0,0
570,-167.0,88.0,-9.0,0
571,-88.0,20.0,-12.0,0
572,-13.0,-21.0,-32.0,0
573,41.0,-24.0,-73.0,0
574,75.0,-12.0,-105.0,0
575,111.0,13.0,-148.0,0
576,126.0,29.0,-171.0,0
577,128.0,40.0,-205.0,0
578,105.0,41.0,-225.0,0
579,86.0,25.0,-234.0,0
580,73.0,3.0,-227.0,0
581,65.0,-21.0,-194.0,0
582,49.0,-38.0,-161.0,0
583,16.0,-57.0,-128.0,0
584,6.0,-70.0,-83.0,0
585,19.0,-77.0,-57.0,0
586,61.0,-93.0,-56.0,0
587,114.0,-111.0,-105.0,0
588,172.0,-146.0,-178.0,0
589,241.0,-179.0,-286.0,0
590,271.0,-186.0,-459.0,0
591,290.0,-196.0,-740.0,0
592,224.0,-278.0,-790.0,0
593,116.0,-414.0,-627.0,0
594,63.0,-673.0,-307.0,0
595,7.0,-1131.0,-61.0,0
596,-165.0,-1307.0,-170.0,0
597,-410.0,-1049.0,-339.0,0
598,-386.0,-806.0,-521.0,0
599,-257.0,-710.0,-475.0,0
600,-172.0,-689.0,-305.0,0
601,-120.0,-691.0,-164.0,0
602,-70.0,-662.0,-150.0,0
603,-19.0,-602.0,-151.0,0
604,21.0,-535.0,-124.0,0
605,88.0,-481.0,-94.0,0
606,156.0,-430.0,-80.0,0
607,235.0,-399.0,-67.0,0
608,299.0,-365.0,-58.0,0
609,322.0,-345.0,-33.0,0
610,330.0,-356.0,-36.0,0
611,293.0,-363.0,-53.0,0
612,236.0,-386.0,-65.0,0
613,207.0,-423.0,-75.0,0
614,179.0,-460.0,-71.0,0
615,132.0,-469.0,-60.0,0
616,99.0,-460.0,-61.0,0
617,57.0,-448.0,-41.0,0
618,20.0,-436.0,-48.0,0
619,-20.0,-376.0,-56.0,0
620,-58.0,-308.0,-48.0,0
621,-76.0,-241.0,-38.0,0
622,-75.0,-183.0,-30.0,0
623,-97.0,-124.0,-19.0,0
624,-83.0,-83.0,-16.0,0
625,-55.0,-64.0,-10.0,0
626,-97.0,-16.0,10.0,0
627,-123.0,30.0,22.0,0
628,-128.0,71.0,13.0,0
629,-128.0,108.0,-14.0,0
630,-137.0,145.0,-33.0,0
631,-108.0,158.0,-59.0,0
632,-62.0,157.0,-78.0,0
633,-48.0,141.0,-81.0,0
634,-17.0,110.0,-65.0,0
635,51.0,83.0,-64.0,0
636,115.0,61.0,-61.0,0
637,119.0,46.0,-69.0,0
638,132.0,4.0,-73.0,0
639,127.0,0.0,-83.0,0
640,111.0,-31.0,-60.0,0
641,76.0,-54.0,-29.0,0
642,50.0,-77.0,-8.0,0
643,26.0,-87.0,2.0,0
644,3.0,-70.0,7.0,0
645,-1.0,-58.0,11.0,0
646,-1.0,-41.0,0.0,0
647,-10.0,-13.0,-24.0,0
648,-29.0,10.0,-67.0,0
649,-56.0,27.0,-106.0,0
650,-85.0,40.0,-146.0,0
651,-99.0,43.0,-163.0,0
652,-102.0,33.0,-161.0,0
653,-100.0,21.0,-153.0,0
654,-95.0,6.0,-137.0,0
655,-91.0,-14.0,-108.0,0
656,-80.0,-36.0,-91.0,0
657,-66.0,-49.0,-74.0,0
658,-44.0,-63.0,-47.0,0
659,0.0,-92.0,-23.0,0
660,41.0,-107.0,-24.0,0
661,77.0,-143.0,-28.0,0
662,98.0,-169.0,-72.0,0
663,152.0,-234.0,-95.0,0
664,195.0,-296.0,-189.0,0
665,211.0,-313.0,-435.0,0
666,235.0,-344.0,-522.0,0
667,185.0,-419.0,-376.0,0
668,45.0,-541.0,-271.0,0
669,-64.0,-661.0,-300.0,0
670,-133.0,-811.0,-303.0,0
671,-218.0,-992.0,-247.0,0
672,-220.0,-1082.0,-216.0,0
673,-133.0,-1075.0,-213.0,0
674,73.0,-916.0,-282.0,0
675,191.0,-790.0,-368.0,0
676,257.0,-749.0,-334.0,0
677,297.0,-724.0,-248.0,0
678,331.0,-686.0,-150.0,0
679,341.0,-634.0,-102.0,0
680,330.0,-572.0,-79.0,0
681,285.0,-507.0,-78.0,0
682,218.0,-462.0,-102.0,0
683,142.0,-408.0,-134.0,0
684,63.0,-379.0,-135.0,0
685,0.0,-381.0,-99.0,0
686,-15.0,-400.0,-73.0,0
687,2.0,-444.0,-60.0,0
688,24.0,-488.0,-64.0,0
689,29.0,-534.0,-74.0,0
690,43.0,-571.0,-95.0,0
691,28.0,-590.0,-105.0,0
692,39.0,-578.0,-108.0,0
693,47.0,-541.0,-116.0,0
694,80.0,-471.0,-117.0,0
695,64.0,-389.0,-104.0,0
696,74.0,-328.0,-78.0,0
697,75.0,-266.0,-55.0,0
698,91.0,-213.0,-37.0,0
699,77.0,-162.0,-19.0,0
700,56.0,-110.0,-18.0,0
701,51.0,-89.0,-25.0,0
702,13.0,-14.0,-33.0,0
703,-34.0,35.0,-51.0,0
704,-44.0,58.0,-38.0,0
705,-64.0,73.0,-45.0,0
706,-104.0,97.0,-46.0,0
707,-138.0,118.0,-36.0,0
708,-138.0,126.0,-38.0,0
709,-129.0,127.0,-49.0,0
710,-107.0,127.0,-54.0,0
711,-75.0,121.0,-51.0,0
712,-63.0,107.0,-32.0,0
713,-41.0,76.0,-20.0,0
714,-13.0,42.0,0.0,0
715,6.0,13.0,2.0,0
716,28.0,-8.0,10.0,0
717,52.0,-45.0,16.0,0
718,57.0,-49.0,14.0,0
719,54.0,-36.0,13.0,0
720,54.0,-16.0,6.0,0
721,55.0,3.0,-8.0,0
722,56.0,22.0,-19.0,0
723,54.0,28.0,-37.0,0
724,61.0,33.0,-59.0,0
725,44.0,33.0,-80.0,0
726,31.0,37.0,-99.0,0
727,4.0,35.0,-117.0,0
728,-20.0,18.0,-121.0,0
729,-36.0,3.0,-122.0,0
730,-48.0,-13.0,-109.0,0
731,-62.0,-20.0,-85.0,0
732,-85.0,-32.0,-58.0,0
733,-113.0,-51.0,-23.0,0
734,-132.0,-70.0,3.0,0
735,-141.0,-91.0,18.0,0
736,-126.0,-114.0,12.0,0
737,-85.0,-124.0,-11.0,0
738,-42.0,-139.0,-36.0,0
739,5.0,-155.0,-84.0,0
740,66.0,-181.0,-144.0,0
741,85.0,-237.0,-195.0,0
742,90.0,-266.0,-452.0,0
743,39.0,-301.0,-714.0,0
744,12.0,-366.0,-853.0,0
745,-2.0,-519.0,-754.0,0
746,57.0,-756.0,-527.0,0
747,207.0,-1127.0,-390.0,0
748,133.0,-1166.0,-303.0,0
749,38.0,-948.0,-290.0,0
750,142.0,-810.0,-418.0,0
751,186.0,-733.0,-443.0,0
752,179.0,-711.0,-341.0,0
753,127.0,-708.0,-201.0,0
754,88.0,-691.0,-131.0,0
755,68.0,-660.0,-135.0,0
756,58.0,-605.0,-163.0,0
757,34.0,-561.0,-178.0,0
758,32.0,-523.0,-166.0,0
759,44.0,-468.0,-147.0,0
760,31.0,-387.0,-139.0,0
761,11.0,-312.0,-120.0,0
762,7.0,-260.0,-85.0,0
763,32.0,-242.0,-76.0,0
764,39.0,-248.0,-75.0,0
765,3.0,-253.0,-81.0,0
766,15.0,-281.0,-96.0,0
767,29.0,-323.0,-107.0,0
768,1.0,-326.0,-103.0,0
769,-47.0,-321.0,-88.0,0
770,-28.0,-324.0,-88.0,0
771,-39.0,-309.0,-85.0,0
772,-62.0,-285.0,-70.0,0
773,-69.0,-257.0,-68.0,0
774,-89.0,-238.0,-52.0,0
775,-106.0,-213.0,-44.0,0
776,-90.0,-187.0,-46.0,0
777,-71.0,-180.0,-33.0,0
778,-42.0,-173.0,-40.0,0
779,-28.0,-157.0,-48.0,0
780,-19.0,-136.0,-40.0,0
781,-18.0,-122.0,-27.0,0
782,-2.0,-110.0,-13.0,0
783,-6.0,-94.0,12.0,0
784,-9.0,-75.0,42.0,0
785,-11.0,-47.0,56.0,0
786,17.0,-12.0,55.0,0
787,53.0,25.0,34.0,0
788,67.0,25.0,9.0,0
789,63.0,54.0,-19.0,0
790,64.0,66.0,-44.0,0
791,60.0,66.0,-46.0,0
792,40.0,54.0,-31.0,0
793,25.0,30.0,-5.0,0
794,21.0,-2.0,21.0,0
795,20.0,-29.0,46.0,0
796,25.0,-46.0,49.0,0
797,23.0,-54.0,51.0,0
798,6.0,-46.0,47.0,0
799,-6.0,-30.0,40.0,0
800,-24.0,-7.0,30.0,0
801,-36.0,18.0,21.0,0
802,-51.0,50.0,-3.0,0
803,-67.0,74.0,-33.0,0
804,-81.0,96.0,-67.0,0
805,-88.0,115.0,-110.0,0
806,-81.0,129.0,-162.0,0
807,-55.0,135.0,-209.0,0
808,-23.0,128.0,-212.0,0
809,0.0,101.0,-170.0,0
810,1.0,75.0,-114.0,0
811,6.0,15.0,-72.0,0
812,8.0,-31.0,-70.0,0
813,8.0,-81.0,-115.0,0
814,27.0,-137.0,-224.0,0
815,83.0,-192.0,-375.0,0
816,103.0,-240.0,-460.0,0
817,80.0,-277.0,-484.0,0
818,48.0,-334.0,-471.0,0
819,6.0,-439.0,-386.0,0
820,-17.0,-562.0,-229.0,0
821,-54.0,-698.0,-88.0,0
822,-76.0,-719.0,-86.0,0
823,-92.0,-652.0,-178.0,0
824,-89.0,-593.0,-310.0,0
825,-92.0,-534.0,-375.0,0
826,-57.0,-517.0,-367.0,0
827,-15.0,-531.0,-332.0,0
828,-12.0,-578.0,-283.0,0
829,12.0,-607.0,-276.0,0
830,41.0,-640.0,-254.0,0
831,56.0,-670.0,-252.0,0
832,70.0,-685.0,-263.0,0
833,89.0,-704.0,-270.0,0
834,105.0,-708.0,-301.0,0
835,91.0,-712.0,-306.0,0
836,88.0,-706.0,-295.0,0
837,58.0,-685.0,-252.0,0
838,39.0,-652.0,-196.0,0
839,25.0,-630.0,-162.0,0
840,20.0,-611.0,-146.0,0
841,18.0,-603.0,-135.0,0
842,11.0,-600.0,-139.0,0
843,38.0,-584.0,-152.0,0
844,43.0,-579.0,-147.0,0
845,74.0,-509.0,-168.0,0
846,95.0,-468.0,-133.0,0
847,138.0,-414.0,-144.0,0
848,161.0,-366.0,-144.0,0
849,184.0,-294.0,-139.0,0
850,154.0,-211.0,-150.0,0
851,158.0,-166.0,-124.0,0
852,139.0,-113.0,-108.0,0
853,129.0,-101.0,-86.0,0
854,88.0,-86.0,-76.0,0
855,37.0,-89.0,-72.0,0
856,26.0,-103.0,-95.0,0
857,1.0,-116.0,-104.0,0
858,-57.0,-116.0,-121.0,0
859,-88.0,-134.0,-119.0,0
860,-97.0,-138.0,-121.0,0
861,-74.0,-89.0,-102.0,0
862,-57.0,-28.0,-79.0,0
863,-36.0,13.0,-63.0,0
864,-13.0,43.0,-49.0,0
865,-5.0,64.0,-23.0,0
866,2.0,71.0,-11.0,0
867,6.0,72.0,-1.0,0
868,38.0,63.0,2.0,0
869,58.0,46.0,4.0,0
870,61.0,24.0,-1.0,0
871,47.0,11.0,-21.0,0
872,26.0,-13.0,-40.0,0
873,6.0,-32.0,-55.0,0
874,-17.0,-43.0,-58.0,0
875,-27.0,-39.0,-66.0,0
876,-57.0,-47.0,-51.0,0
877,-92.0,-39.0,-41.0,0
878,-104.0,-37.0,-49.0,0
879,-103.0,-22.0,-50.0,0
880,-130.0,0.0,-31.0,0
881,-125.0,4.0,-12.0,0
882,-119.0,12.0,1.0,0
883,-102.0,16.0,18.0,0
884,-94.0,5.0,35.0,0
885,-85.0,-4.0,34.0,0
886,-82.0,-25.0,36.0,0
887,-82.0,-41.0,29.0,0
888,-77.0,-51.0,-3.0,0
889,-67.0,-44.0,-30.0,0
890,-44.0,-33.0,-73.0,0
891,-6.0,-18.0,-138.0,0
892,48.0,3.0,-212.0,0
893,107.0,21.0,-313.0,0
894,165.0,28.0,-384.0,0
895,238.0,6.0,-432.0,0
896,296.0,-34.0,-447.0,0
897,346.0,-94.0,-433.0,0
898,373.0,-192.0,-372.0,0
899,374.0,-328.0,-288.0,0
900,351.0,-505.0,-238.0,0
901,285.0,-677.0,-243.0,0
902,170.0,-778.0,-276.0,0
903,94.0,-836.0,-310.0,0
904,47.0,-869.0,-313.0,0
905,-19.0,-887.0,-268.0,0
906,-81.0,-874.0,-215.0,0
907,-116.0,-813.0,-211.0,0
908,-148.0,-712.0,-198.0,0
909,-169.0,-652.0,-167.0,0
910,-156.0,-600.0,-126.0,0
911,-114.0,-557.0,-96.0,0
912,-80.0,-472.0,-96.0,0
913,-26.0,-386.0,-101.0,0
914,-25.0,-344.0,-98.0,0
915,-10.0,-348.0,-102.0,0
916,26.0,-408.0,-98.0,0
917,33.0,-468.0,-97.0,0
918,0.0,-515.0,-98.0,0
919,-50.0,-529.0,-107.0,0
920,-59.0,-529.0,-122.0,0
921,-88.0,-502.0,-129.0,0
922,-146.0,-488.0,-106.0,0
923,-175.0,-444.0,-117.0,0
924,-192.0,-403.0,-112.0,0
925,-204.0,-338.0,-107.0,0
926,-187.0,-255.0,-97.0,0
927,-161.0,-173.0,-81.0,0
928,-107.0,-100.0,-59.0,0
929,-42.0,-40.0,-70.0,0
930,59.0,24.0,-89.0,0
931,115.0,86.0,-91.0,0
932,181.0,142.0,-107.0,0
933,180.0,199.0,-109.0,0
934,153.0,223.0,-112.0,0
935,67.0,210.0,-70.0,0
936,15.0,146.0,-31.0,0
937,10.0,82.0,-4.0,0
938,20.0,17.0,14.0,0
939,26.0,-51.0,40.0,0
940,47.0,-97.0,27.0,0
941,33.0,-137.0,11.0,0
942,19.0,-158.0,-6.0,0
943,14.0,-148.0,-38.0,0
944,5.0,-128.0,-48.0,0
945,4.0,-93.0,-42.0,0
946,17.0,-54.0,-37.0,0
947,32.0,6.0,-33.0,0
948,30.0,58.0,-13.0,0
949,29.0,91.0,4.0,0
950,37.0,109.0,15.0,0
951,50.0,107.0,24.0,0
952,64.0,90.0,29.0,0
953,78.0,71.0,10.0,0
954,89.0,46.0,-46.0,0
955,80.0,33.0,-110.0,0
956,47.0,25.0,-213.0,0
957,-1.0,5.0,-326.0,0
958,-55.0,-44.0,-416.0,0
959,-66.0,-129.0,-451.0,0
960,-49.0,-242.0,-415.0,0
961,-27.0,-391.0,-283.0,0
962,-19.0,-597.0,-107.0,0
963,-77.0,-733.0,65.0,0
964,-126.0,-802.0,83.0,0
965,-100.0,-762.0,-33.0,0
966,-54.0,-640.0,-196.0,0
967,-58.0,-494.0,-352.0,0
968,-67.0,-381.0,-445.0,0
969,-43.0,-345.0,-373.0,0
970,-2.0,-409.0,-215.0,0
971,-28.0,-480.0,-68.0,0
972,-63.0,-526.0,-8.0,0
973,-94.0,-548.0,-24.0,0
974,-96.0,-568.0,-43.0,0
975,-99.0,-599.0,-46.0,0
976,-98.0,-625.0,-57.0,0
977,-64.0,-641.0,-80.0,0
978,-34.0,-646.0,-90.0,0
979,17.0,-643.0,-84.0,0
980,83.0,-632.0,-75.0,0
981,132.0,-601.0,-78.0,0
982,153.0,-546.0,-91.0,0
983,167.0,-470.0,-90.0,0
984,181.0,-421.0,-64.0,0
985,201.0,-363.0,-42.0,0
986,202.0,-306.0,-86.0,0
987,203.0,-264.0,-87.0,0
988,210.0,-250.0,-83.0,0
989,182.0,-249.0,-88.0,0
990,189.0,-264.0,-91.0,0
991,167.0,-269.0,-76.0,0
992,161.0,-244.0,-80.0,0
993,125.0,-205.0,-101.0,0
994,88.0,-160.0,-109.0,0
995,52.0,-104.0,-129.0,0
996,3.0,-40.0,-150.0,0
997,-62.0,7.0,-148.0,0
998,-152.0,56.0,-160.0,0
999,-203.0,80.0,-166.0,0
1000,-264.0,112.0,-165.0,0
1001,-265.0,139.0,-160.0,0
1002,-236.0,133.0,-127.0,0
1003,-122.0,80.0,-89.0,0
1004,-58.0,49.0,-48.0,0
1005,-22.0,6.0,-35.0,0
1006,0.0,-43.0,-29.0,0
1007,11.0,-81.0,-39.0,0
1008,34.0,-113.0,-43.0,0
1009,47.0,-118.0,-62.0,0
1010,52.0,-100.0,-77.0,0
1011,49.0,-81.0,-77.0,0
1012,49.0,-78.0,-86.0,0
1013,27.0,-69.0,-73.0,0
1014,8.0,-47.0,-76.0,0
1015,-14.0,-29.0,-67.0,0
1016,-25.0,1.0,-75.0,0
1017,-48.0,33.0,-62.0,0
1018,-67.0,59.0,-54.0,0
1019,-85.0,73.0,-44.0,0
1020,-100.0,82.0,-52.0,0
1021,-93.0,88.0,-94.0,0
1022,-74.0,93.0,-162.0,0
1023,-48.0,94.0,-253.0,0
1024,9.0,87.0,-343.0,0
1025,85.0,41.0,-400.0,0
1026,175.0,-59.0,-389.0,0
1027,258.0,-255.0,-338.0,0
1028,242.0,-448.0,-288.0,0
1029,157.0,-594.0,-217.0,0
1030,135.0,-679.0,-139.0,0
1031,161.0,-726.0,-44.0,0
1032,195.0,-701.0,-25.0,0
1033,168.0,-574.0,-80.0,0
1034,115.0,-429.0,-208.0,0
1035,59.0,-323.0,-326.0,0
1036,3.0,-286.0,-328.0,0
1037,-64.0,-352.0,-239.0,0
1038,-80.0,-451.0,-123.0,0
1039,-51.0,-532.0,-37.0,0
1040,-33.0,-582.0,3.0,0
1041,-22.0,-605.0,-10.0,0
1042,-9.0,-595.0,-31.0,0
1043,2.0,-590.0,-68.0,0
1044,-14.0,-580.0,-79.0,0
1045,-14.0,-584.0,-94.0,0
1046,-22.0,-600.0,-91.0,0
1047,22.0,-645.0,-76.0,0
1048,-7.0,-639.0,-78.0,0
1049,-8.0,-622.0,-87.0,0
1050,-7.0,-609.0,-75.0,0
1051,-56.0,-573.0,-44.0,0
1052,-46.0,-551.0,-47.0,0
1053,-65.0,-521.0,-50.0,0
1054,-79.0,-481.0,-78.0,0
1055,-102.0,-425.0,-102.0,0
1056,-118.0,-361.0,-130.0,0
1057,-147.0,-267.0,-155.0,0
1058,-135.0,-185.0,-190.0,0
1059,-116.0,-116.0,-198.0,0
1060,-72.0,-61.0,-193.0,0
1061,-34.0,-23.0,-170.0,0
1062,-4.0,11.0,-146.0,0
1063,36.0,56.0,-127.0,0
1064,62.0,92.0,-114.0,0
1065,90.0,131.0,-116.0,0
1066,110.0,155.0,-129.0,0
1067,102.0,173.0,-128.0,0
1068,60.0,159.0,-89.0,0
1069,41.0,144.0,-62.0,0
1070,20.0,112.0,-63.0,0
1071,10.0,58.0,-62.0,0
1072,8.0,9.0,-54.0,0
1073,16.0,-21.0,-55.0,0
1074,18.0,-26.0,-58.0,0
1075,10.0,-14.0,-55.0,0
1076,-2.0,6.0,-64.0,0
1077,-19.0,30.0,-73.0,0
1078,-12.0,60.0,-79.0,0
1079,-16.0,85.0,-85.0,0
1080,-23.0,87.0,-79.0,0
1081,-18.0,82.0,-73.0,0
1082,-7.0,68.0,-73.0,0
1083,5.0,43.0,-73.0,0
1084,31.0,18.0,-60.0,0
1085,55.0,-7.0,-50.0,0
1086,76.0,-24.0,-60.0,0
1087,82.0,-33.0,-97.0,0
1088,68.0,-20.0,-144.0,0
1089,18.0,1.0,-189.0,0
1090,-32.0,11.0,-226.0,0
1091,-96.0,7.0,-326.0,0
1092,-176.0,-13.0,-520.0,0
1093,-236.0,-66.0,-621.0,0
1094,-271.0,-198.0,-595.0,0
1095,-251.0,-408.0,-445.0,0
1096,-140.0,-718.0,-185.0,0
1097,32.0,-1100.0,90.0,0
1098,121.0,-1266.0,331.0,0
1099,144.0,-968.0,166.0,0
1100,130.0,-602.0,-155.0,0
1101,189.0,-348.0,-394.0,0
1102,239.0,-161.0,-524.0,0
1103,279.0,-87.0,-506.0,0
1104,310.0,-119.0,-358.0,0
1105,231.0,-244.0,-228.0,0
1106,122.0,-389.0,-181.0,0
1107,60.0,-539.0,-202.0,0
1108,-14.0,-643.0,-180.0,0
1109,-95.0,-688.0,-151.0,0
1110,-149.0,-720.0,-173.0,0
1111,-147.0,-687.0,-221.0,0
1112,-134.0,-609.0,-259.0,0
1113,-120.0,-512.0,-288.0,0
1114,-95.0,-419.0,-277.0,0
1115,-81.0,-332.0,-249.0,0
1116,-69.0,-257.0,-247.0,0
1117,-82.0,-191.0,-268.0,0
1118,-86.0,-147.0,-263.0,0
1119,-83.0,-110.0,-248.0,0
1120,-73.0,-88.0,-239.0,0
1121,-62.0,-68.0,-216.0,0
1122,-49.0,-60.0,-183.0,0
1123,-35.0,-60.0,-137.0,0
1124,-22.0,-63.0,-97.0,0
1125,-7.0,-57.0,-74.0,0
1126,10.0,-30.0,-71.0,0
1127,30.0,6.0,-63.0,0
1128,45.0,53.0,-27.0,0
1129,68.0,74.0,12.0,0
1130,102.0,98.0,34.0,0
1131,125.0,117.0,40.0,0
1132,128.0,139.0,40.0,0
1133,127.0,154.0,18.0,0
1134,117.0,153.0,-9.0,0
1135,94.0,137.0,-30.0,0
1136,66.0,106.0,-56.0,0
1137,39.0,73.0,-75.0,0
1138,28.0,34.0,-83.0,0
1139,23.0,7.0,-89.0,0
1140,17.0,-17.0,-105.0,0
1141,13.0,-35.0,-125.0,0
1142,-9.0,-42.0,-144.0,0
1143,-24.0,-53.0,-143.0,0
1144,-43.0,-62.0,-121.0,0
1145,-51.0,-77.0,-102.0,0
1146,-58.0,-82.0,-88.0,0
1147,-50.0,-80.0,-85.0,0
1148,-33.0,-78.0,-80.0,0
1149,-14.0,-72.0,-70.0,0
1150,0.0,-56.0,-49.0,0
1151,6.0,-37.0,-37.0,0
1152,15.0,-11.0,-39.0,0
1153,21.0,28.0,-50.0,0
1154,33.0,90.0,-80.0,0
1155,37.0,149.0,-130.0,0
1156,72.0,171.0,-171.0,0
1157,135.0,169.0,-165.0,0
1158,207.0,92.0,-162.0,0
1159,241.0,6.0,-141.0,0
1160,246.0,-73.0,-127.0,0
1161,223.0,-160.0,-120.0,0
1162,214.0,-268.0,-124.0,0
1163,154.0,-405.0,-108.0,0
1164,68.0,-472.0,-106.0,0
1165,-30.0,-484.0,-98.0,0
1166,-95.0,-409.0,-117.0,0
1167,-183.0,-287.0,-155.0,0
1168,-253.0,-186.0,-205.0,0
1169,-243.0,-147.0,-239.0,0
1170,-192.0,-123.0,-275.0,0
1171,-95.0,-112.0,-302.0,0
1172,-34.0,-116.0,-318.0,0
1173,-2.0,-142.0,-309.0,0
1174,6.0,-197.0,-269.0,0
1175,-12.0,-241.0,-248.0,0
1176,-25.0,-290.0,-207.0,0
1177,-40.0,-358.0,-162.0,0
1178,-1.0,-390.0,-175.0,0
1179,61.0,-399.0,-195.0,0
1180,90.0,-374.0,-227.0,0
1181,122.0,-347.0,-283.0,0
1182,137.0,-316.0,-324.0,0
1183,128.0,-307.0,-340.0,0
1184,66.0,-299.0,-307.0,0
1185,-8.0,-316.0,-261.0,0
1186,-43.0,-328.0,-235.0,0
1187,-50.0,-320.0,-216.0,0
1188,-49.0,-301.0,-199.0,0
1189,-27.0,-259.0,-191.0,0
1190,-6.0,-210.0,-172.0,0
1191,20.0,-162.0,-161.0,0
1192,35.0,-122.0,-157.0,0
1193,41.0,-105.0,-170.0,0
1194,45.0,-95.0,-183.0,0
1195,20.0,-98.0,-193.0,0
1196,15.0,-114.0,-190.0,0
1197,-4.0,-159.0,-176.0,0
1198,-15.0,-207.0,-156.0,0
1199,-24.0,-246.0,-149.0,0
1200,-26.0,-270.0,-147.0,0
1201,-22.0,-281.0,-146.0,0
1202,-21.0,-279.0,-149.0,0
1203,-17.0,-265.0,-155.0,0
1204,-12.0,-238.0,-168.0,0
1205,0.0,-204.0,-177.0,0
1206,5.0,-170.0,-163.0,0
1207,0.0,-137.0,-153.0,0
1208,-18.0,-106.0,-147.0,0
1209,-28.0,-83.0,-136.0,0
1210,-38.0,-56.0,-149.0,0
1211,-46.0,-42.0,-141.0,0
1212,-47.0,-35.0,-90.0,0
1213,-54.0,-43.0,-24.0,0
1214,-50.0,-63.0,20.0,0
1215,-40.0,-82.0,28.0,0
1216,-29.0,-87.0,22.0,0
1217,-13.0,-82.0,8.0,0
1218,0.0,-75.0,-13.0,0
1219,4.0,-72.0,-32.0,0
1220,-14.0,-64.0,-41.0,0
1221,-40.0,-55.0,-44.0,0
1222,-52.0,-43.0,-45.0,0
1223,-43.0,-23.0,-53.0,0
1224,-41.0,-1.0,-63.0,0
1225,-33.0,29.0,-65.0,0
1226,-22.0,42.0,-44.0,0
1227,-15.0,54.0,-43.0,0
1228,-8.0,61.0,-27.0,0
1229,3.0,51.0,-20.0,0
1230,35.0,17.0,-16.0,0
1231,46.0,-8.0,-15.0,0
1232,49.0,-37.0,-19.0,0
1233,47.0,-57.0,-26.0,0
1234,49.0,-52.0,-28.0,0
1235,49.0,-31.0,-29.0,2
1236,46.0,7.0,-34.0,2
1237,24.0,39.0,-57.0,2
1238,-21.0,76.0,-63.0,2
1239,-56.0,109.0,-58.0,2
1240,-92.0,130.0,-45.0,2
1241,-108.0,128.0,-34.0,2
1242,-135.0,100.0,-41.0,2
1243,-137.0,74.0,-68.0,2
1244,-126.0,53.0,-76.0,2
1245,-115.0,36.0,-34.0,2
1246,-98.0,25.0,14.0,2
1247,-106.0,42.0,3.0,2
1248,-130.0,60.0,-11.0,2
1249,-143.0,64.0,9.0,2
1250,-103.0,89.0,5.0,2
1251,-77.0,78.0,48.0,2
1252,-68.0,98.0,69.0,2
1253,-52.0,128.0,35.0,2
1254,-126.0,144.0,25.0,2
1255,-162.0,135.0,-28.0,2
1256,-226.0,103.0,-32.0,2
1257,-267.0,90.0,-47.0,2
1258,-379.0,121.0,2.0,2
1259,-567.0,134.0,28.0,2
1260,-855.0,177.0,49.0,2
1261,-1102.0,151.0,-19.0,2
1262,-1406.0,91.0,-107.0,2
1263,-1865.0,199.0,-70.0,2
1264,-2450.0,415.0,67.0,2
1265,-2948.0,663.0,43.0,2
1266,-3194.0,898.0,31.0,2
1267,-2968.0,995.0,230.0,2
1268,-1915.0,806.0,388.0,2
1269,-1240.0,586.0,356.0,2
1270,-837.0,331.0,132.0,2
1271,-549.0,6.0,-57.0,2
1272,-197.0,-194.0,-92.0,2
1273,86.0,-407.0,-36.0,2
1274,76.0,-521.0,174.0,2
1275,23.0,-502.0,174.0,2
1276,-195.0,-392.0,28.0,2
1277,-257.0,-212.0,-166.0,2
1278,-296.0,-57.0,-237.0,2
1279,-238.0,132.0,-195.0,2
1280,-164.0,209.0,-55.0,2
1281,-172.0,253.0,21.0,2
1282,-216.0,337.0,46.0,2
1283,-248.0,360.0,49.0,2
1284,-244.0,357.0,23.0,2
1285,-195.0,355.0,-19.0,2
1286,-164.0,332.0,-27.0,2
1287,-147.0,293.0,-18.0,2
1288,-129.0,250.0,13.0,2
1289,-123.0,220.0,60.0,2
1290,-105.0,186.0,112.0,2
1291,-74.0,143.0,163.0,2
1292,-60.0,120.0,185.0,2
1293,0.0,92.0,173.0,2
1294,35.0,65.0,146.0,2
1295,64.0,42.0,88.0,2
1296,49.0,65.0,37.0,2
1297,37.0,114.0,34.0,2
1298,22.0,120.0,23.0,2
1299,8.0,98.0,62.0,2
1300,1.0,32.0,105.0,2
1301,22.0,-41.0,138.0,2
1302,7.0,-56.0,148.0,2
1303,-17.0,-67.0,125.0,2
1304,-36.0,-84.0,102.0,2
1305,-60.0,-81.0,73.0,2
1306,-69.0,-67.0,45.0,2
1307,-82.0,-43.0,15.0,2
1308,-102.0,19.0,-15.0,2
1309,-113.0,80.0,-9.0,2
1310,-128.0,115.0,3.0,1
1311,-141.0,129.0,27.0,1
1312,-155.0,139.0,38.0,1
1313,-171.0,145.0,44.0,1
1314,-195.0,149.0,44.0,1
1315,-209.0,142.0,43.0,1
1316,-213.0,136.0,43.0,1
1317,-216.0,125.0,41.0,1
1318,-225.0,123.0,54.0,1
1319,-242.0,124.0,71.0,1
1320,-246.0,112.0,84.0,1
1321,-239.0,96.0,91.0,1
1322,-233.0,86.0,88.0,1
1323,-221.0,69.0,99.0,1
1324,-224.0,59.0,103.0,1
1325,-242.0,24.0,110.0,1
1326,-276.0,5.0,115.0,1
1327,-278.0,-10.0,118.0,1
1328,-277.0,10.0,120.0,1
1329,-305.0,91.0,133.0,1
1330,-353.0,105.0,158.0,1
1331,-366.0,113.0,149.0,1
1332,-341.0,130.0,149.0,1
1333,-335.0,140.0,152.0,1
1334,-329.0,142.0,156.0,1
1335,-323.0,142.0,168.0,1
1336,-311.0,140.0,168.0,1
1337,-310.0,139.0,169.0,1
1338,-313.0,142.0,166.0,1
1339,-303.0,159.0,166.0,1
1340,-294.0,183.0,157.0,1
1341,-301.0,189.0,166.0,1
1342,-315.0,176.0,173.0,1
1343,-338.0,169.0,174.0,1
1344,-328.0,155.0,181.0,1
1345,-316.0,143.0,189.0,1
1346,-312.0,129.0,199.0,1
1347,-293.0,99.0,197.0,1
1348,-283.0,79.0,196.0,1
1349,-273.0,63.0,195.0,1
1350,-255.0,52.0,188.0,1
1351,-246.0,51.0,176.0,1
1352,-221.0,53.0,178.0,1
1353,-206.0,57.0,171.0,1
1354,-187.0,60.0,164.0,1
1355,-173.0,61.0,151.0,1
1356,-161.0,59.0,142.0,1
1357,-155.0,54.0,137.0,1
1358,-167.0,52.0,147.0,1
1359,-175.0,54.0,148.0,1
1360,-182.0,48.0,152.0,1
1361,-198.0,48.0,150.0,1
1362,-204.0,56.0,147.0,1
1363,-206.0,64.0,152.0,1
1364,-208.0,73.0,153.0,1
1365,-206.0,98.0,158.0,1
1366,-236.0,102.0,168.0,1
1367,-249.0,96.0,165.0,1
1368,-255.0,83.0,156.0,1
1369,-238.0,74.0,132.0,1
1370,-213.0,72.0,122.0,1
1371,-182.0,54.0,110.0,1
1372,-192.0,44.0,107.0,1
1373,-188.0,26.0,104.0,1
1374,-189.0,26.0,102.0,1
1375,-191.0,32.0,97.0,1
1376,-184.0,31.0,101.0,1
1377,-184.0,27.0,103.0,1
1378,-195.0,14.0,103.0,1
1379,-217.0,2.0,107.0,1
1380,-236.0,-14.0,99.0,1
1381,-263.0,-26.0,87.0,1
1382,-279.0,-42.0,86.0,1
1383,-283.0,-47.0,79.0,1
1384,-274.0,-50.0,66.0,1
1385,-258.0,-57.0,56.0,1
1386,-235.0,-45.0,51.0,1
1387,-260.0,-52.0,52.0,1
1388,-261.0,-46.0,51.0,1
1389,-257.0,-36.0,52.0,1
1390,-259.0,-37.0,61.0,1
1391,-264.0,-38.0,61.0,0
1392,-249.0,-46.0,71.0,0
1393,-243.0,-43.0,70.0,0
1394,-249.0,-42.0,78.0,0
1395,-256.0,-46.0,82.0,0
1396,-258.0,-34.0,77.0,0
1397,-261.0,-29.0,70.0,0
1398,-261.0,-30.0,73.0,0
1399,-266.0,-18.0,62.0,0
1400,-257.0,-11.0,52.0,0
1401,-257.0,-16.0,47.0,0
1402,-257.0,-18.0,43.0,0
1403,-257.0,-23.0,39.0,0
1404,-256.0,-37.0,35.0,0
1405,-260.0,-49.0,34.0,0
1406,-259.0,-57.0,31.0,0
1407,-257.0,-59.0,26.0,0
1408,-254.0,-59.0,17.0,0
1409,-251.0,-66.0,14.0,0
1410,-246.0,-64.0,9.0,0
1411,-247.0,-64.0,3.0,0
1412,-249.0,-63.0,-5.0,0
1413,-253.0,-61.0,0.0,0
1414,-242.0,-61.0,5.0,0
1415,-250.0,-57.0,0.0,0
1416,-245.0,-56.0,-1.0,0
1417,-249.0,-57.0,3.0,0
1418,-255.0,-53.0,6.0,0
1419,-256.0,-44.0,8.0,0
1420,-266.0,-41.0,4.0,0
1421,-273.0,-38.0,-1.0,0
1422,-267.0,-36.0,-6.0,0
1423,-268.0,-40.0,-4.0,0
1424,-272.0,-33.0,-6.0,0
1425,-265.0,-34.0,-7.0,0
1426,-261.0,-29.0,-4.0,0
1427,-258.0,-32.0,-4.0,0
1428,-256.0,-36.0,-3.0,0
1429,-253.0,-37.0,3.0,0
1430,-253.0,-36.0,-1.0,0
1431,-249.0,-41.0,-2.0,0
1432,-249.0,-38.0,-6.0,0
1433,-250.0,-44.0,-3.0,0
1434,-249.0,-47.0,-1.0,0
1435,-252.0,-53.0,-3.0,0
1436,-252.0,-56.0,1.0,0
1437,-252.0,-57.0,0.0,0
1438,-252.0,-56.0,-1.0,0
1439,-251.0,-54.0,8.0,0
1440,-254.0,-49.0,10.0,0
1441,-251.0,-41.0,7.0,0
1442,-251.0,-32.0,8.0,0
1443,-254.0,-22.0,7.0,0
1444,-255.0,-13.0,13.0,0
1445,-255.0,-11.0,10.0,0
1446,-257.0,-8.0,12.0,0
1447,-258.0,-4.0,11.0,0
1448,-261.0,-5.0,12.0,0
1449,-256.0,-1.0,13.0,0
1450,-258.0,2.0,9.0,0
1451,-257.0,-1.0,6.0,0
1452,-256.0,3.0,9.0,0
1453,-258.0,0.0,11.0,0
1454,-261.0,-2.0,7.0,0
1455,-259.0,-5.0,5.0,0
1456,-258.0,-3.0,3.0,0
1457,-259.0,2.0,2.0,0
1458,-259.0,4.0,9.0,0
1459,-262.0,5.0,4.0,0
1460,-259.0,3.0,2.0,0
1461,-264.0,-2.0,2.0,0
1462,-266.0,2.0,-2.0,0
1463,-265.0,-2.0,-2.0,0
1464,-266.0,1.0,1.0,0
1465,-266.0,5.0,2.0,0
1466,-271.0,6.0,-4.0,0
1467,-272.0,9.0,-4.0,0
1468,-272.0,10.0,-1.0,0
1469,-270.0,9.0,-4.0,0
1470,-273.0,9.0,-4.0,0
1471,-270.0,8.0,10.0,0
1472,-269.0,14.0,-1.0,0
1473,-273.0,8.0,6.0,0
1474,-273.0,7.0,1.0,0
1475,-269.0,8.0,-1.0,0
1476,-269.0,10.0,0.0,0
1477,-270.0,10.0,-5.0,0
1478,-271.0,9.0,-4.0,0
1479,-270.0,7.0,-5.0,0
1480,-269.0,8.0,-4.0,0
1481,-270.0,8.0,0.0,0
1482,-272.0,8.0,-1.0,0
1483,-272.0,8.0,1.0,0
1484,-272.0,7.0,-7.0,0
1485,-269.0,8.0,0.0,0
1486,-271.0,4.0,-12.0,0
1487,-264.0,5.0,-6.0,0
1488,-262.0,-5.0,-6.0,0
1489,-258.0,-8.0,-5.0,0
1490,-255.0,-11.0,-7.0,0
1491,-255.0,-16.0,-5.0,0
1492,-257.0,-20.0,-2.0,0
1493,-255.0,-15.0,-5.0,0
1494,-260.0,-19.0,-4.0,0
1495,-254.0,-10.0,-4.0,0
1496,-257.0,-10.0,-6.0,0
1497,-255.0,-8.0,-2.0,0
1498,-255.0,-5.0,-4.0,0
1499,-257.0,0.0,-7.0,0
1500,-256.0,0.0,0.0,0
1501,-260.0,4.0,-2.0,0
1502,-258.0,1.0,-1.0,0
1503,-256.0,-2.0,-5.0,0
1504,-256.0,3.0,-6.0,0
1505,-260.0,3.0,-10.0,0
1506,-262.0,5.0,-11.0,0
1507,-263.0,-1.0,-15.0,0
1508,-262.0,-4.0,-16.0,0
1509,-263.0,-7.0,-15.0,0
1510,-263.0,-5.0,-17.0,0
1511,-261.0,-12.0,-17.0,0
1512,-262.0,-10.0,-19.0,0
1513,-263.0,-10.0,-18.0,0
1514,-260.0,-8.0,-17.0,0
1515,-260.0,-12.0,-16.0,0
1516,-260.0,-3.0,-16.0,0
1517,-260.0,-4.0,-18.0,0
1518,-260.0,-6.0,-18.0,0
1519,-259.0,-3.0,-13.0,0
1520,-260.0,-5.0,-16.0,0
1521,-261.0,-3.0,-15.0,0
1522,-257.0,-4.0,-16.0,0
1523,-258.0,-3.0,-10.0,0
1524,-261.0,-6.0,-16.0,0
1525,-261.0,-4.0,-12.0,0
1526,-258.0,-6.0,-13.0,0
1527,-258.0,-6.0,-12.0,0
1528,-261.0,-3.0,-10.0,0
1529,-261.0,-3.0,-10.0,0
1530,-257.0,-1.0,-9.0,0
1531,-259.0,2.0,-10.0,0
1532,-258.0,1.0,-11.0,0
1533,-259.0,2.0,-9.0,0
1534,-260.0,1.0,-8.0,0
1535,-261.0,2.0,-4.0,0
1536,-258.0,1.0,-2.0,0
1537,-258.0,2.0,-5.0,0
1538,-259.0,3.0,-8.0,0
1539,-257.0,0.0,-8.0,0
1540,-258.0,0.0,-5.0,0
1541,-259.0,1.0,-2.0,0
1542,-256.0,-3.0,-3.0,0
1543,-260.0,-4.0,1.0,0
1544,-257.0,-5.0,-2.0,0
1545,-256.0,-1.0,-5.0,0
1546,-258.0,-6.0,-4.0,0
1547,-257.0,-1.0,-1.0,0
1548,-256.0,-6.0,-4.0,0
1549,-260.0,-3.0,0.0,0
1550,-258.0,-2.0,1.0,0
1551,-256.0,1.0,-1.0,0
1552,-255.0,-3.0,-1.0,0
1553,-255.0,-4.0,-3.0,0
1554,-258.0,-3.0,-1.0,0
1555,-255.0,-6.0,-6.0,0
1556,-258.0,-5.0,-6.0,0
1557,-256.0,-8.0,-5.0,0
1558,-256.0,-1.0,-11.0,0
1559,-257.0,-8.0,-7.0,0
1560,-260.0,-6.0,-8.0,0
1561,-259.0,-5.0,-6.0,0
1562,-258.0,-6.0,-6.0,0
1563,-261.0,-7.0,-7.0,0
1564,-260.0,-9.0,-6.0,0
1565,-258.0,-8.0,-7.0,0
1566,-261.0,-7.0,-6.0,0
1567,-259.0,-7.0,-5.0,0
1568,-259.0,-5.0,-8.0,0
1569,-258.0,-14.0,-2.0,0
1570,-258.0,-5.0,-6.0,0
1571,-256.0,-4.0,-9.0,0
1572,-261.0,-3.0,-8.0,0
1573,-259.0,-1.0,-7.0,0
1574,-256.0,-5.0,-10.0,0
1575,-257.0,-5.0,-6.0,0
1576,-257.0,-8.0,-7.0,0
1577,-257.0,-8.0,-8.0,0
1578,-257.0,-7.0,-10.0,0
1579,-253.0,-1.0,-15.0,0
1580,-255.0,-6.0,-6.0,0
1581,-257.0,-6.0,-9.0,0
1582,-255.0,-4.0,-9.0,0
1583,-259.0,-3.0,-6.0,0
1584,-258.0,2.0,-10.0,0
1585,-260.0,5.0,-6.0,0
1586,-259.0,2.0,-8.0,0
1587,-258.0,5.0,-5.0,0
1588,-260.0,3.0,-4.0,0
1589,-259.0,2.0,-7.0,0
1590,-263.0,3.0,-4.0,0
1591,-257.0,5.0,-4.0,0
1592,-258.0,5.0,-3.0,0
1593,-261.0,3.0,-7.0,0
1594,-257.0,-1.0,-7.0,0
1595,-261.0,-6.0,-2.0,0
1596,-259.0,-6.0,-8.0,0
1597,-259.0,-7.0,-8.0,0
1598,-257.0,-6.0,-9.0,0
1599,-257.0,-8.0,-6.0,0
1600,-257.0,-8.0,-3.0,0
1601,-257.0,-4.0,-3.0,0
1602,-257.0,-6.0,-3.0,0
1603,-259.0,0.0,-3.0,0
1604,-257.0,-5.0,2.0,0
1605,-258.0,-2.0,0.0,0
1606,-256.0,-2.0,-3.0,0
1607,-256.0,0.0,-3.0,0
1608,-256.0,-6.0,0.0,0
1609,-256.0,-1.0,-3.0,0
1610,-260.0,1.0,-3.0,0
1611,-257.0,1.0,-5.0,0
1612,-259.0,-3.0,-7.0,0
1613,-257.0,2.0,-10.0,0
1614,-259.0,2.0,-11.0,0
1615,-259.0,1.0,-9.0,0
1616,-261.0,2.0,-9.0,0
1617,-259.0,0.0,-9.0,0
1618,-261.0,0.0,-11.0,0
1619,-259.0,2.0,-9.0,0
1620,-258.0,-1.0,-9.0,0
1621,-260.0,1.0,-11.0,0
1622,-268.0,9.0,-5.0,0
1623,-258.0,1.0,-11.0,0
1624,-258.0,7.0,-12.0,0
1625,-258.0,2.0,-14.0,0
1626,-259.0,4.0,-11.0,0
1627,-258.0,5.0,-9.0,0
1628,-258.0,5.0,-15.0,0
1629,-259.0,2.0,-13.0,0
1630,-259.0,2.0,-16.0,0
1631,-258.0,1.0,-11.0,0
1632,-259.0,4.0,-15.0,0
1633,-258.0,2.0,-14.0,0
1634,-257.0,2.0,-15.0,0
1635,-258.0,0.0,-15.0,0
1636,-258.0,0.0,-12.0,0
1637,-257.0,-1.0,-15.0,0
1638,-259.0,-2.0,-12.0,0
1639,-257.0,-3.0,-13.0,0
1640,-262.0,-2.0,-9.0,0
1641,-262.0,0.0,-9.0,0
1642,-261.0,2.0,-9.0,0
1643,-259.0,2.0,-10.0,0
1644,-262.0,4.0,-10.0,0
1645,-263.0,1.0,-15.0,0
1646,-262.0,7.0,-11.0,0
1647,-266.0,8.0,-11.0,0
1648,-266.0,8.0,-14.0,0
1649,-268.0,9.0,-13.0,0
1650,-268.0,8.0,-13.0,0
1651,-268.0,8.0,-15.0,0
1652,-266.0,8.0,-14.0,0
1653,-267.0,6.0,-13.0,0
1654,-264.0,6.0,-15.0,0
1655,-262.0,4.0,-11.0,0
1656,-260.0,3.0,-15.0,0
1657,-259.0,-1.0,-18.0,0
1658,-259.0,-3.0,-17.0,0
1659,-258.0,-4.0,-13.0,0
1660,-257.0,-4.0,-12.0,0
1661,-256.0,-2.0,-14.0,0
1662,-258.0,0.0,-13.0,0
1663,-256.0,-2.0,-12.0,0
1664,-258.0,1.0,-6.0,0
1665,-255.0,-5.0,-2.0,0
1666,-256.0,4.0,-5.0,0
1667,-256.0,4.0,-7.0,0
1668,-257.0,6.0,-6.0,0
1669,-256.0,4.0,-4.0,0
1670,-257.0,4.0,-5.0,0
1671,-256.0,1.0,-7.0,0
1672,-257.0,0.0,-8.0,0
1673,-256.0,0.0,-5.0,0
1674,-258.0,-5.0,-8.0,0
1675,-257.0,-6.0,-7.0,0
1676,-259.0,-4.0,-8.0,0
1677,-256.0,-4.0,-7.0,0
1678,-257.0,-7.0,-12.0,0
1679,-257.0,-7.0,-11.0,0
1680,-258.0,-5.0,-9.0,0
1681,-259.0,-6.0,-8.0,0
1682,-257.0,-9.0,-8.0,0
1683,-257.0,-6.0,-11.0,0
1684,-257.0,-5.0,-11.0,0
1685,-257.0,-3.0,-11.0,0
1686,-255.0,-3.0,-12.0,0
1687,-258.0,0.0,-12.0,0
1688,-259.0,0.0,-11.0,0
1689,-258.0,4.0,-10.0,0
1690,-256.0,7.0,-6.0,0
1691,-256.0,7.0,-8.0,0
1692,-256.0,4.0,-10.0,0
1693,-258.0,0.0,1.0,0
1694,-258.0,7.0,-4.0,0
1695,-259.0,2.0,-6.0,0
1696,-256.0,-1.0,-8.0,0
1697,-256.0,-1.0,-3.0,0
1698,-256.0,-3.0,-4.0,0
1699,-258.0,-3.0,-1.0,0
1700,-256.0,-4.0,-1.0,0
1701,-255.0,-6.0,3.0,0
1702,-256.0,-6.0,-3.0,0
1703,-258.0,-5.0,2.0,0
1704,-258.0,-7.0,-2.0,0
1705,-256.0,-4.0,3.0,0
1706,-260.0,-2.0,-4.0,0
1707,-257.0,-3.0,2.0,0
1708,-257.0,-4.0,2.0,0
1709,-258.0,-2.0,2.0,0
1710,-258.0,-3.0,3.0,0
1711,-261.0,0.0,2.0,0
1712,-259.0,-2.0,-2.0,0
1713,-259.0,2.0,-1.0,0
1714,-257.0,-2.0,-3.0,0
1715,-255.0,-5.0,2.0,0
1716,-257.0,-4.0,-2.0,0
1717,-255.0,-2.0,0.0,0
1718,-258.0,-3.0,3.0,0
1719,-257.0,-4.0,-3.0,0
1720,-259.0,0.0,0.0,0
1721,-258.0,-1.0,3.0,0
1722,-257.0,1.0,0.0,0
1723,-257.0,2.0,-1.0,0
1724,-258.0,0.0,3.0,0
1725,-256.0,1.0,0.0,0
1726,-256.0,4.0,-2.0,0
1727,-257.0,2.0,2.0,0
1728,-259.0,0.0,3.0,0
1729,-259.0,0.0,2.0,0
1730,-259.0,-4.0,1.0,0
1731,-260.0,-2.0,-7.0,0
1732,-258.0,-1.0,-8.0,0
1733,-260.0,-1.0,-4.0,0
1734,-258.0,-1.0,-8.0,0
1735,-259.0,-5.0,-4.0,0
1736,-257.0,-1.0,-4.0,0
1737,-258.0,-3.0,-3.0,0
1738,-259.0,-6.0,-1.0,0
1739,-256.0,-2.0,-7.0,0
1740,-258.0,0.0,-5.0,0
1741,-259.0,-1.0,-3.0,0
1742,-258.0,0.0,-4.0,0
1743,-261.0,1.0,1.0,0
1744,-257.0,1.0,-5.0,0
1745,-257.0,-2.0,-3.0,0
1746,-258.0,-1.0,-3.0,0
1747,-258.0,3.0,-3.0,0
1748,-258.0,1.0,-6.0,0
1749,-258.0,-1.0,-3.0,0
1750,-257.0,3.0,2.0,0
1751,-256.0,-1.0,-8.0,0
1752,-260.0,-4.0,-3.0,0
1753,-258.0,-2.0,-3.0,0
1754,-258.0,-2.0,-7.0,0
1755,-257.0,-4.0,-4.0,0
1756,-259.0,1.0,-5.0,0
1757,-260.0,-4.0,-2.0,0
1758,-262.0,0.0,-4.0,0
1759,-260.0,-2.0,-4.0,0
1760,-259.0,2.0,-2.0,0
1761,-259.0,1.0,-4.0,0
1762,-259.0,0.0,-3.0,0
1763,-262.0,1.0,-3.0,0
1764,-257.0,0.0,1.0,0
1765,-257.0,-2.0,-3.0,0
1766,-259.0,1.0,-3.0,0
1767,-256.0,-1.0,-1.0,0
1768,-256.0,-1.0,3.0,0
1769,-259.0,-3.0,-1.0,0
1770,-257.0,2.0,2.0,0
1771,-258.0,0.0,5.0,0
1772,-256.0,3.0,-2.0,0
1773,-258.0,0.0,-4.0,0
1774,-258.0,0.0,-4.0,0
1775,-259.0,1.0,-6.0,0
1776,-259.0,3.0,-9.0,0
1777,-259.0,0.0,-3.0,0
1778,-258.0,2.0,-5.0,0
1779,-257.0,1.0,-9.0,0
1780,-259.0,4.0,-8.0,0
1781,-262.0,5.0,-9.0,0
1782,-259.0,-1.0,-9.0,0
1783,-257.0,0.0,-8.0,0
1784,-257.0,1.0,-10.0,0
1785,-259.0,-1.0,-7.0,0
1786,-260.0,3.0,-7.0,0
1787,-258.0,-1.0,-6.0,0
1788,-257.0,-3.0,-5.0,0
1789,-257.0,-2.0,-7.0,0
1790,-255.0,-4.0,-7.0,0
1791,-261.0,-3.0,-9.0,0
1792,-258.0,-3.0,-9.0,0
1793,-256.0,-4.0,-11.0,0
1794,-258.0,-3.0,-10.0,0
1795,-259.0,-1.0,-7.0,0
1796,-260.0,0.0,-7.0,0
1797,-259.0,6.0,-8.0,0
1798,-259.0,4.0,-5.0,0
1799,-258.0,8.0,-9.0,0
1800,-260.0,6.0,-3.0,0
1801,-256.0,8.0,-3.0,0
1802,-260.0,5.0,-3.0,0
1803,-261.0,4.0,-3.0,0
1804,-258.0,3.0,-4.0,0
1805,-258.0,0.0,-9.0,0
1806,-257.0,-2.0,-7.0,0
1807,-258.0,-3.0,-3.0,0
1808,-260.0,1.0,-5.0,0
1809,-258.0,-5.0,-5.0,0
1810,-258.0,-2.0,-2.0,0
1811,-257.0,-3.0,-4.0,0
1812,-257.0,-2.0,-4.0,0
1813,-256.0,-3.0,-2.0,0
1814,-259.0,0.0,-4.0,0
1815,-262.0,4.0,-3.0,0
1816,-260.0,7.0,-3.0,0
1817,-258.0,7.0,-1.0,0
1818,-258.0,4.0,-4.0,0
1819,-258.0,4.0,-3.0,0
1820,-257.0,4.0,0.0,0
1821,-257.0,2.0,0.0,0
1822,-259.0,3.0,-3.0,0
1823,-258.0,2.0,-4.0,0
1824,-259.0,3.0,-6.0,0
1825,-259.0,5.0,-4.0,0
1826,-260.0,6.0,-2.0,0
1827,-257.0,6.0,-5.0,0
1828,-258.0,3.0,-5.0,0
1829,-258.0,2.0,-8.0,0
1830,-258.0,5.0,-8.0,0
1831,-261.0,5.0,-4.0,0
1832,-260.0,3.0,-4.0,0
1833,-258.0,1.0,-6.0,0
1834,-257.0,1.0,-7.0,0
1835,-269.0,1.0,4.0,0
1836,-260.0,0.0,-4.0,0
1837,-258.0,1.0,-9.0,0
1838,-258.0,4.0,-4.0,0
1839,-259.0,-1.0,-6.0,0
1840,-256.0,-1.0,-5.0,0
1841,-259.0,-1.0,-6.0,0
1842,-258.0,-1.0,-7.0,0
1843,-261.0,5.0,-10.0,0
1844,-259.0,3.0,-8.0,0
1845,-260.0,7.0,-7.0,0
1846,-260.0,-1.0,-5.0,0
1847,-257.0,6.0,-6.0,0
1848,-259.0,0.0,-7.0,0
1849,-260.0,2.0,-6.0,0
1850,-258.0,3.0,-5.0,0
1851,-258.0,3.0,-8.0,0
1852,-259.0,5.0,-7.0,0
1853,-258.0,1.0,-8.0,0
1854,-259.0,7.0,-5.0,0
1855,-261.0,5.0,-5.0,0
1856,-260.0,3.0,-5.0,0
1857,-262.0,6.0,-8.0,0
1858,-261.0,5.0,-6.0,0
1859,-259.0,4.0,-6.0,0
1860,-260.0,3.0,-7.0,0
1861,-258.0,4.0,-6.0,0
1862,-261.0,5.0,-8.0,0
1863,-260.0,2.0,-4.0,0
1864,-261.0,0.0,-10.0,0
1865,-257.0,6.0,-7.0,0
1866,-257.0,3.0,-7.0,0
1867,-259.0,3.0,-8.0,0
1868,-257.0,6.0,-7.0,0
1869,-263.0,6.0,-5.0,0
1870,-260.0,5.0,-7.0,0
1871,-259.0,3.0,-7.0,0
1872,-261.0,5.0,-5.0,0
1873,-258.0,6.0,-5.0,0
1874,-259.0,3.0,-8.0,0
1875,-257.0,6.0,-8.0,0
1876,-258.0,5.0,-11.0,0
1877,-258.0,5.0,-10.0,0
1878,-258.0,3.0,-5.0,0
1879,-257.0,4.0,-7.0,0
1880,-257.0,1.0,-9.0,0
1881,-258.0,-1.0,-11.0,0
1882,-259.0,2.0,-7.0,0
1883,-259.0,5.0,-11.0,0
1884,-259.0,1.0,-7.0,0
1885,-259.0,3.0,-10.0,0
1886,-260.0,7.0,-8.0,0
1887,-257.0,2.0,-3.0,0
1888,-258.0,3.0,-6.0,0
1889,-260.0,1.0,-7.0,0
1890,-257.0,2.0,-5.0,0
1891,-260.0,3.0,-7.0,0
1892,-260.0,4.0,-5.0,0
1893,-256.0,-1.0,-7.0,0
1894,-256.0,-1.0,-4.0,0
1895,-258.0,-2.0,-4.0,0
1896,-257.0,-5.0,-3.0,0
1897,-259.0,-7.0,-8.0,0
1898,-257.0,-7.0,-12.0,0
1899,-261.0,3.0,-13.0,0
1900,-259.0,-3.0,-14.0,0
1901,-261.0,-1.0,-10.0,0
1902,-259.0,2.0,-8.0,0
1903,-257.0,2.0,-7.0,0
1904,-257.0,4.0,-8.0,0
1905,-261.0,8.0,-4.0,0
1906,-264.0,8.0,-6.0,0
1907,-259.0,9.0,-3.0,0
1908,-258.0,8.0,-4.0,0
1909,-257.0,7.0,-5.0,0
1910,-259.0,8.0,-4.0,0
1911,-257.0,8.0,-3.0,0
1912,-259.0,8.0,-5.0,0
1913,-257.0,2.0,-6.0,0
1914,-259.0,3.0,-5.0,0
1915,-260.0,3.0,-7.0,0
1916,-258.0,-3.0,-9.0,0
1917,-259.0,-1.0,-5.0,0
1918,-258.0,0.0,-4.0,0
1919,-260.0,4.0,-8.0,0
1920,-259.0,-1.0,-6.0,0
1921,-258.0,1.0,-16.0,0
1922,-256.0,0.0,-6.0,0
1923,-257.0,0.0,-8.0,0
1924,-258.0,2.0,-7.0,0
1925,-259.0,0.0,-7.0,0
1926,-259.0,5.0,-8.0,0
1927,-259.0,3.0,-3.0,0
1928,-260.0,3.0,-5.0,0
1929,-259.0,4.0,-8.0,0
1930,-257.0,0.0,-6.0,0
1931,-258.0,2.0,-6.0,0
1932,-259.0,6.0,-6.0,0
1933,-259.0,3.0,-7.0,0
1934,-258.0,3.0,-7.0,0
1935,-260.0,6.0,-9.0,0
1936,-258.0,6.0,-9.0,0
1937,-261.0,6.0,-8.0,0
1938,-260.0,1.0,-7.0,0
1939,-258.0,1.0,-3.0,0
1940,-258.0,3.0,-3.0,0
1941,-255.0,4.0,-7.0,0
1942,-255.0,-3.0,-3.0,0
1943,-259.0,4.0,-6.0,0
1944,-258.0,3.0,-4.0,0
1945,-256.0,0.0,-1.0,0
1946,-260.0,-2.0,-5.0,0
1947,-260.0,2.0,-3.0,0
1948,-257.0,3.0,-5.0,0
1949,-257.0,4.0,-5.0,0
1950,-259.0,4.0,-9.0,0
1951,-259.0,0.0,-7.0,0
1952,-258.0,3.0,-7.0,0
1953,-259.0,0.0,-6.0,0
1954,-258.0,3.0,-6.0,0
1955,-257.0,3.0,-7.0,0
1956,-257.0,2.0,-8.0,0
1957,-258.0,5.0,-3.0,0
1958,-259.0,2.0,-7.0,0
1959,-256.0,4.0,-7.0,0
1960,-258.0,4.0,-3.0,0
1961,-262.0,-1.0,-4.0,0
1962,-258.0,1.0,-3.0,0
1963,-254.0,8.0,-5.0,0
1964,-258.0,4.0,-5.0,0
1965,-257.0,5.0,-9.0,0
1966,-252.0,0.0,-8.0,0
1967,-258.0,3.0,-6.0,0
1968,-259.0,2.0,-5.0,0
1969,-261.0,2.0,-6.0,0
1970,-256.0,5.0,-9.0,0
1971,-257.0,1.0,-9.0,0
1972,-259.0,5.0,-7.0,0
1973,-260.0,6.0,-11.0,0
1974,-260.0,4.0,-9.0,0
1975,-260.0,2.0,-8.0,0
1976,-256.0,-1.0,-8.0,0
1977,-258.0,1.0,-6.0,0
1978,-260.0,1.0,-5.0,0
1979,-256.0,1.0,-7.0,0
1980,-256.0,3.0,-5.0,0
1981,-257.0,0.0,-4.0,0
1982,-258.0,-1.0,-6.0,0
1983,-257.0,0.0,-8.0,0
1984,-257.0,2.0,-4.0,0
1985,-259.0,5.0,-5.0,0
1986,-258.0,3.0,-5.0,0
1987,-260.0,5.0,-6.0,0
1988,-260.0,4.0,-5.0,0
1989,-254.0,8.0,-2.0,0
1990,-262.0,5.0,-11.0,0
1991,-264.0,6.0,-3.0,0
1992,-261.0,1.0,-5.0,0
1993,-258.0,1.0,-3.0,0
1994,-257.0,3.0,-4.0,0
1995,-263.0,7.0,-4.0,0
1996,-259.0,2.0,-2.0,0
1997,-259.0,3.0,-5.0,0
1998,-256.0,-3.0,-4.0,0
1999,-258.0,1.0,-5.0,0
2000,-257.0,3.0,0.0,0
2001,-257.0,1.0,2.0,0
2002,-257.0,-5.0,-3.0,0
2003,-258.0,-5.0,-7.0,0
2004,-258.0,-2.0,-12.0,0
2005,-257.0,1.0,-15.0,0
2006,-256.0,0.0,-10.0,0
2007,-259.0,1.0,-14.0,0
2008,-260.0,2.0,-9.0,0
2009,-260.0,2.0,-11.0,0
2010,-258.0,2.0,-13.0,0
2011,-258.0,7.0,-8.0,0
2012,-256.0,7.0,-4.0,0
2013,-256.0,5.0,-6.0,0
2014,-258.0,6.0,-6.0,0
2015,-256.0,-1.0,-1.0,0
2016,-257.0,4.0,-1.0,0
2017,-256.0,0.0,-1.0,0
2018,-257.0,3.0,-2.0,0
2019,-257.0,0.0,-5.0,0
2020,-258.0,6.0,0.0,0
2021,-259.0,5.0,-6.0,0
2022,-260.0,3.0,-4.0,0
2023,-257.0,-1.0,-4.0,0
2024,-257.0,4.0,-4.0,0
2025,-258.0,3.0,-4.0,0
2026,-263.0,4.0,-6.0,0
2027,-256.0,6.0,-9.0,0
2028,-260.0,3.0,-6.0,0
2029,-256.0,1.0,-7.0,0
2030,-260.0,5.0,-5.0,0
2031,-259.0,2.0,-5.0,0
2032,-258.0,5.0,-5.0,0
2033,-259.0,3.0,-5.0,0
2034,-259.0,4.0,-4.0,0
2035,-257.0,7.0,-4.0,0
2036,-259.0,8.0,-7.0,0
2037,-258.0,3.0,-5.0,0
2038,-259.0,8.0,-6.0,0
2039,-259.0,5.0,-9.0,0
2040,-260.0,7.0,-7.0,0
2041,-260.0,8.0,-7.0,0
2042,-259.0,3.0,-9.0,0
2043,-259.0,4.0,-6.0,0
2044,-260.0,8.0,-5.0,0
2045,-259.0,3.0,-7.0,0
2046,-257.0,3.0,-7.0,0
2047,-258.0,1.0,-4.0,0
2048,-261.0,2.0,-4.0,0
2049,-256.0,4.0,-4.0,0
2050,-259.0,4.0,-5.0,0
2051,-259.0,2.0,-2.0,0
2052,-260.0,5.0,-9.0,0
2053,-261.0,2.0,-6.0,0
2054,-257.0,-1.0,-5.0,0
2055,-261.0,3.0,-2.0,0
2056,-256.0,0.0,-2.0,0
2057,-259.0,1.0,-3.0,0
2058,-260.0,7.0,-4.0,0
2059,-256.0,1.0,-3.0,0
2060,-258.0,3.0,-4.0,0
2061,-256.0,5.0,-1.0,0
2062,-256.0,3.0,-5.0,0
2063,-260.0,1.0,-2.0,0
2064,-258.0,4.0,-3.0,0
2065,-259.0,7.0,-5.0,0
2066,-259.0,7.0,-8.0,0
2067,-258.0,5.0,-4.0,0
2068,-258.0,2.0,-7.0,0
2069,-260.0,2.0,-2.0,0
2070,-261.0,-6.0,-5.0,0
2071,-261.0,5.0,-5.0,0
2072,-259.0,2.0,-3.0,0
2073,-257.0,4.0,-10.0,0
2074,-259.0,1.0,-8.0,0
2075,-261.0,4.0,-6.0,0
2076,-258.0,3.0,-5.0,0
2077,-258.0,1.0,-6.0,0
2078,-258.0,0.0,-5.0,0
2079,-258.0,1.0,-2.0,0
2080,-257.0,-1.0,-4.0,0
2081,-257.0,3.0,-3.0,0
2082,-257.0,-1.0,-3.0,0
2083,-260.0,5.0,-6.0,0
2084,-257.0,2.0,-2.0,0
2085,-258.0,4.0,-7.0,0
2086,-257.0,4.0,-4.0,0
2087,-258.0,3.0,-5.0,0
2088,-260.0,4.0,-2.0,0
2089,-259.0,1.0,-6.0,0
2090,-259.0,0.0,-3.0,0
2091,-258.0,1.0,-8.0,0
2092,-257.0,-1.0,-8.0,0
2093,-258.0,4.0,-4.0,0
2094,-259.0,5.0,-3.0,0
2095,-259.0,4.0,-9.0,0
2096,-258.0,4.0,-9.0,0
2097,-258.0,5.0,-4.0,0
2098,-259.0,4.0,-8.0,0
2099,-258.0,5.0,-3.0,0
2100,-258.0,1.0,-4.0,0
2101,-259.0,3.0,-4.0,0
2102,-259.0,2.0,-3.0,0
2103,-258.0,0.0,-3.0,0
2104,-256.0,-1.0,-4.0,0
2105,-258.0,0.0,-4.0,0
2106,-257.0,-3.0,-3.0,0
2107,-259.0,-3.0,-6.0,0
2108,-257.0,-3.0,-8.0,0
2109,-260.0,1.0,-8.0,0
2110,-259.0,1.0,-9.0,0
2111,-258.0,0.0,-7.0,0
2112,-258.0,3.0,-7.0,0
2113,-258.0,2.0,-7.0,0
2114,-258.0,7.0,-8.0,0
2115,-260.0,8.0,-8.0,0
2116,-259.0,8.0,-11.0,0
2117,-258.0,8.0,-11.0,0
2118,-258.0,9.0,-12.0,0
2119,-258.0,8.0,-9.0,0
2120,-260.0,8.0,-7.0,0
2121,-260.0,10.0,-4.0,0
2122,-261.0,8.0,-4.0,0
2123,-260.0,7.0,-11.0,0
2124,-260.0,8.0,-8.0,0
2125,-262.0,5.0,-7.0,0
2126,-257.0,3.0,-8.0,0
2127,-258.0,8.0,-6.0,0
2128,-259.0,4.0,-12.0,0
2129,-258.0,0.0,-10.0,0
2130,-259.0,7.0,-9.0,0
2131,-259.0,2.0,-9.0,0
2132,-260.0,1.0,-10.0,0
2133,-258.0,3.0,-7.0,0
2134,-261.0,5.0,-13.0,0
2135,-260.0,2.0,-8.0,0
2136,-259.0,2.0,-9.0,0
2137,-258.0,6.0,-12.0,0
2138,-259.0,7.0,-11.0,0
2139,-259.0,6.0,-8.0,0
2140,-257.0,5.0,-11.0,0
2141,-257.0,8.0,-8.0,0
2142,-259.0,7.0,-11.0,0
2143,-259.0,6.0,-11.0,0
2144,-260.0,4.0,-8.0,0
2145,-260.0,4.0,-8.0,0
2146,-258.0,8.0,-8.0,0
2147,-259.0,5.0,-9.0,0
2148,-257.0,2.0,-10.0,0
2149,-259.0,8.0,-8.0,0
2150,-257.0,4.0,-9.0,0
2151,-256.0,5.0,-3.0,0
2152,-260.0,2.0,-9.0,0
2153,-260.0,5.0,-13.0,0
2154,-261.0,5.0,-8.0,0
2155,-258.0,3.0,-11.0,0
2156,-258.0,3.0,-7.0,0
2157,-258.0,5.0,-8.0,0
2158,-258.0,2.0,-7.0,0
2159,-258.0,1.0,-6.0,0
2160,-258.0,1.0,-10.0,0
2161,-259.0,2.0,-13.0,0
2162,-259.0,3.0,-8.0,0
2163,-259.0,2.0,-6.0,0
2164,-257.0,6.0,-10.0,0
2165,-260.0,7.0,-11.0,0
2166,-258.0,6.0,-9.0,0
2167,-258.0,3.0,-9.0,0
2168,-256.0,4.0,-10.0,0
2169,-258.0,2.0,-10.0,0
2170,-258.0,2.0,-13.0,0
2171,-257.0,5.0,-9.0,0
2172,-256.0,3.0,-6.0,0
2173,-261.0,7.0,-10.0,0
2174,-262.0,3.0,-8.0,0
2175,-261.0,6.0,-7.0,0
2176,-258.0,8.0,-10.0,0
2177,-258.0,2.0,-10.0,0
2178,-257.0,3.0,-13.0,0
2179,-259.0,5.0,-8.0,0
2180,-259.0,8.0,-8.0,0
2181,-262.0,8.0,-7.0,0
2182,-263.0,5.0,-8.0,0
2183,-261.0,7.0,-6.0,0
2184,-261.0,6.0,-6.0,0
2185,-256.0,1.0,-5.0,0
2186,-258.0,6.0,-8.0,0
2187,-260.0,5.0,-9.0,0
2188,-256.0,4.0,-6.0,0
2189,-258.0,5.0,-7.0,0
2190,-258.0,1.0,-3.0,0
2191,-259.0,3.0,-6.0,0
2192,-259.0,1.0,-5.0,0
2193,-259.0,0.0,-7.0,0
2194,-259.0,4.0,-7.0,0
2195,-257.0,2.0,-9.0,0
2196,-257.0,4.0,-6.0,0
2197,-254.0,2.0,-3.0,0
2198,-254.0,4.0,-1.0,0
2199,-257.0,4.0,-10.0,0
2200,-258.0,8.0,-11.0,0
2201,-261.0,5.0,-6.0,0
2202,-260.0,6.0,-10.0,0
2203,-256.0,6.0,-8.0,0
2204,-256.0,7.0,-10.0,0
2205,-261.0,5.0,-10.0,0
2206,-260.0,2.0,-10.0,0
2207,-257.0,6.0,-10.0,0
2208,-259.0,8.0,-12.0,0
2209,-255.0,-3.0,-12.0,0
2210,-258.0,1.0,-13.0,0
2211,-258.0,1.0,-11.0,0
2212,-256.0,-2.0,-11.0,0
2213,-258.0,-2.0,-10.0,0
2214,-256.0,-2.0,-9.0,0
2215,-257.0,-1.0,-12.0,0
2216,-259.0,2.0,-16.0,0
2217,-259.0,2.0,-16.0,0
2218,-258.0,6.0,-17.0,0
2219,-258.0,7.0,-13.0,0
2220,-259.0,7.0,-13.0,0
2221,-259.0,8.0,-14.0,0
2222,-259.0,8.0,-11.0,0
2223,-260.0,9.0,-11.0,0
2224,-259.0,9.0,-11.0,0
2225,-258.0,9.0,-13.0,0
2226,-260.0,7.0,-12.0,0
2227,-257.0,5.0,-7.0,0
2228,-257.0,5.0,-12.0,0
2229,-259.0,5.0,-11.0,0
2230,-259.0,5.0,-8.0,0
2231,-256.0,8.0,-10.0,0
2232,-257.0,6.0,-11.0,0
2233,-258.0,6.0,-12.0,0
2234,-258.0,0.0,-9.0,0
2235,-259.0,5.0,-9.0,0
2236,-258.0,3.0,-10.0,0
2237,-257.0,2.0,-10.0,0
2238,-259.0,5.0,-9.0,0
2239,-259.0,4.0,-12.0,0
2240,-261.0,5.0,-7.0,0
2241,-256.0,12.0,-6.0,0
2242,-259.0,4.0,-9.0,0
2243,-258.0,8.0,-6.0,0
2244,-258.0,8.0,-8.0,0
2245,-259.0,4.0,-10.0,0
2246,-257.0,7.0,-8.0,0
2247,-258.0,5.0,-3.0,0
2248,-257.0,7.0,-8.0,0
2249,-258.0,7.0,-5.0,0
2250,-258.0,6.0,-5.0,0
2251,-258.0,5.0,-9.0,0
2252,-259.0,6.0,-6.0,0
2253,-260.0,7.0,-6.0,0
2254,-258.0,3.0,-5.0,0
2255,-258.0,6.0,-3.0,0
2256,-257.0,4.0,-6.0,0
2257,-258.0,6.0,-7.0,0
2258,-259.0,5.0,-7.0,0
2259,-258.0,2.0,-7.0,0
2260,-257.0,2.0,-7.0,0
2261,-258.0,7.0,-9.0,0
2262,-265.0,-7.0,-6.0,0
2263,-259.0,4.0,-10.0,0
2264,-261.0,5.0,-11.0,0
2265,-256.0,1.0,-11.0,0
2266,-261.0,7.0,-11.0,0
2267,-261.0,7.0,-10.0,0
2268,-257.0,4.0,-9.0,0
2269,-259.0,7.0,-10.0,0
2270,-263.0,8.0,-9.0,0
2271,-259.0,9.0,-8.0,0
2272,-258.0,4.0,-7.0,0
2273,-257.0,6.0,-9.0,0
2274,-258.0,5.0,-7.0,0
2275,-257.0,6.0,-9.0,0
2276,-257.0,6.0,-4.0,0
2277,-257.0,6.0,-7.0,0
2278,-258.0,3.0,-8.0,0
2279,-263.0,5.0,-6.0,0
2280,-259.0,7.0,-7.0,0
2281,-262.0,4.0,-6.0,0
2282,-260.0,5.0,-1.0,0
2283,-258.0,-1.0,-8.0,0
2284,-260.0,5.0,-7.0,0
2285,-259.0,4.0,-4.0,0
2286,-259.0,4.0,-13.0,0
2287,-259.0,6.0,-8.0,0
2288,-259.0,3.0,-6.0,0
2289,-259.0,6.0,-5.0,0
2290,-261.0,7.0,-8.0,0
2291,-258.0,8.0,-6.0,0
2292,-261.0,7.0,-8.0,0
2293,-261.0,5.0,-5.0,0
2294,-258.0,4.0,-4.0,0
2295,-259.0,4.0,-6.0,0
2296,-258.0,6.0,-8.0,0
2297,-257.0,7.0,-4.0,0
2298,-257.0,5.0,-7.0,0
2299,-254.0,3.0,-3.0,0
2300,-256.0,6.0,-1.0,0
2301,-256.0,3.0,-1.0,0
2302,-253.0,0.0,-5.0,0
2303,-254.0,6.0,-7.0,0
2304,-255.0,1.0,-7.0,0
2305,-259.0,0.0,7.0,0
2306,-256.0,0.0,-3.0,0
2307,-257.0,1.0,-2.0,0
2308,-256.0,1.0,-5.0,0
2309,-259.0,6.0,-7.0,0
2310,-257.0,4.0,-6.0,0
2311,-257.0,6.0,-5.0,0
2312,-260.0,8.0,-2.0,0
2313,-259.0,8.0,-5.0,0
2314,-259.0,7.0,-3.0,0
2315,-260.0,6.0,-7.0,0
2316,-261.0,4.0,-2.0,0
2317,-259.0,4.0,-3.0,0
2318,-258.0,4.0,-4.0,0
2319,-257.0,3.0,-9.0,0
2320,-260.0,1.0,-6.0,0
2321,-257.0,-3.0,-3.0,0
2322,-258.0,-2.0,-5.0,0
2323,-256.0,-3.0,-4.0,0
2324,-256.0,-4.0,-10.0,0
2325,-257.0,-5.0,-12.0,0
2326,-261.0,-7.0,-15.0,0
2327,-258.0,-1.0,-6.0,0
2328,-256.0,-1.0,-9.0,0
2329,-258.0,2.0,-9.0,0
2330,-258.0,3.0,-9.0,0
2331,-261.0,6.0,-12.0,0
2332,-258.0,9.0,-8.0,0
2333,-259.0,8.0,-10.0,0
2334,-260.0,10.0,-9.0,0
2335,-261.0,8.0,-6.0,0
2336,-261.0,10.0,-9.0,0
2337,-260.0,10.0,-7.0,0
2338,-259.0,9.0,-10.0,0
2339,-262.0,9.0,-10.0,0
2340,-260.0,10.0,-5.0,0
2341,-261.0,8.0,-7.0,0
2342,-258.0,8.0,-7.0,0
2343,-262.0,8.0,-7.0,0
2344,-262.0,7.0,-6.0,0
2345,-259.0,6.0,-6.0,0
2346,-257.0,12.0,-5.0,0
2347,-259.0,8.0,-3.0,0
2348,-257.0,6.0,-4.0,0
2349,-260.0,4.0,-7.0,0
2350,-259.0,7.0,0.0,0
2351,-257.0,6.0,-8.0,0
2352,-259.0,7.0,-2.0,0
2353,-258.0,7.0,-6.0,0
2354,-258.0,7.0,-3.0,0
2355,-257.0,4.0,-4.0,0
2356,-257.0,4.0,-7.0,0
2357,-261.0,4.0,-6.0,0
2358,-258.0,5.0,-7.0,0
2359,-258.0,4.0,-8.0,0
2360,-259.0,5.0,-6.0,0
2361,-260.0,8.0,-4.0,0
2362,-257.0,5.0,-4.0,0
2363,-259.0,7.0,-3.0,0
2364,-256.0,3.0,-3.0,0
2365,-259.0,7.0,-2.0,0
2366,-258.0,8.0,-4.0,0
2367,-259.0,6.0,-1.0,0
2368,-258.0,8.0,-4.0,0
2369,-259.0,7.0,-8.0,0
2370,-257.0,6.0,-4.0,0
2371,-257.0,6.0,-4.0,0
2372,-258.0,3.0,-8.0,0
2373,-259.0,1.0,-4.0,0
2374,-260.0,6.0,-5.0,0
2375,-260.0,2.0,-9.0,0
2376,-260.0,1.0,-2.0,0
2377,-260.0,2.0,-6.0,0
2378,-253.0,2.0,-4.0,0
2379,-258.0,1.0,-7.0,0
2380,-257.0,5.0,-5.0,0
2381,-258.0,4.0,-6.0,0
2382,-259.0,4.0,-4.0,0
2383,-258.0,6.0,-5.0,0
2384,-258.0,2.0,-5.0,0
2385,-259.0,6.0,-5.0,0
2386,-259.0,5.0,-3.0,0
2387,-258.0,6.0,-4.0,0
2388,-259.0,5.0,-3.0,0
2389,-258.0,4.0,-7.0,0
2390,-259.0,4.0,-6.0,0
2391,-258.0,3.0,-3.0,0
2392,-258.0,5.0,-2.0,0
2393,-259.0,4.0,-6.0,0
2394,-259.0,2.0,-4.0,0
2395,-257.0,-1.0,-4.0,0
2396,-258.0,4.0,-3.0,0
2397,-259.0,1.0,0.0,0
2398,-256.0,0.0,0.0,0
2399,-259.0,4.0,-4.0,0
2400,-257.0,3.0,-7.0,0
2401,-256.0,0.0,-3.0,0
2402,-259.0,2.0,-6.0,0
2403,-259.0,7.0,-2.0,0
2404,-258.0,1.0,-4.0,0
2405,-260.0,7.0,-3.0,0
2406,-259.0,2.0,-7.0,0
2407,-260.0,5.0,-4.0,0
2408,-260.0,3.0,-7.0,0
2409,-258.0,7.0,-6.0,0
2410,-258.0,7.0,-4.0,0
2411,-259.0,5.0,-10.0,0
2412,-256.0,7.0,-4.0,0
2413,-258.0,6.0,-9.0,0
2414,-258.0,6.0,-8.0,0
2415,-256.0,1.0,-7.0,0
2416,-257.0,3.0,-6.0,0
2417,-257.0,5.0,-3.0,0
2418,-258.0,4.0,-5.0,0
2419,-258.0,7.0,-4.0,0
2420,-257.0,7.0,-5.0,0
2421,-261.0,6.0,-5.0,0
2422,-258.0,6.0,-3.0,0
2423,-259.0,5.0,-8.0,0
2424,-259.0,4.0,-9.0,0
2425,-259.0,5.0,-4.0,0
2426,-258.0,2.0,-4.0,0
2427,-261.0,7.0,-6.0,0
2428,-258.0,2.0,-8.0,0
2429,-258.0,4.0,-4.0,0
2430,-261.0,4.0,-9.0,0
2431,-259.0,3.0,-7.0,0
2432,-263.0,8.0,-6.0,0
2433,-256.0,7.0,-5.0,0
2434,-263.0,3.0,-6.0,0
2435,-261.0,3.0,-7.0,0
2436,-260.0,5.0,-8.0,0
2437,-260.0,4.0,-9.0,0
2438,-259.0,5.0,-8.0,0
2439,-257.0,7.0,-7.0,0
2440,-259.0,3.0,-8.0,0
2441,-258.0,-1.0,-8.0,0
2442,-258.0,1.0,-10.0,0
2443,-258.0,-2.0,-10.0,0
2444,-261.0,1.0,-14.0,0
2445,-259.0,-2.0,-11.0,0
2446,-259.0,2.0,-13.0,0
2447,-261.0,6.0,-13.0,0
2448,-260.0,6.0,-7.0,0
2449,-258.0,7.0,-9.0,0
2450,-257.0,8.0,-9.0,0
2451,-258.0,10.0,-3.0,0
2452,-259.0,8.0,-3.0,0
2453,-261.0,9.0,-10.0,0
2454,-259.0,9.0,-2.0,0
2455,-258.0,8.0,-3.0,0
2456,-258.0,8.0,-4.0,0
2457,-259.0,8.0,-5.0,0
2458,-260.0,8.0,-5.0,0
2459,-261.0,8.0,-5.0,0
2460,-261.0,7.0,-8.0,0
2461,-261.0,8.0,-11.0,0
2462,-260.0,2.0,-8.0,0
2463,-259.0,3.0,-9.0,0
2464,-261.0,1.0,-12.0,0
2465,-261.0,1.0,-8.0,0
2466,-258.0,0.0,-8.0,0
2467,-257.0,-2.0,-8.0,0
2468,-261.0,3.0,-7.0,0
2469,-256.0,0.0,-11.0,0
2470,-257.0,2.0,-7.0,0
2471,-258.0,4.0,-8.0,0
2472,-259.0,3.0,-5.0,0
2473,-259.0,8.0,-6.0,0
2474,-261.0,5.0,-5.0,0
2475,-259.0,-3.0,1.0,0
2476,-259.0,5.0,-5.0,0
2477,-257.0,8.0,-6.0,0
2478,-256.0,7.0,-5.0,0
2479,-257.0,7.0,-3.0,0
2480,-256.0,8.0,0.0,0
2481,-256.0,4.0,1.0,0
2482,-256.0,3.0,-3.0,0
2483,-256.0,3.0,-2.0,0
2484,-256.0,2.0,-4.0,0
2485,-257.0,0.0,2.0,0
2486,-256.0,0.0,-1.0,0
2487,-257.0,1.0,-1.0,0
2488,-259.0,6.0,-1.0,0
2489,-255.0,-1.0,-3.0,0
2490,-257.0,4.0,1.0,0
2491,-258.0,-1.0,-3.0,0
2492,-256.0,6.0,-3.0,0
2493,-258.0,3.0,-1.0,0
2494,-257.0,5.0,-5.0,0
2495,-256.0,4.0,-3.0,0
2496,-258.0,4.0,-4.0,0
2497,-259.0,3.0,-7.0,0
2498,-258.0,8.0,2.0,0
2499,-257.0,5.0,-5.0,0
2500,-257.0,6.0,-6.0,0
2501,-258.0,4.0,-3.0,0
2502,-257.0,4.0,-6.0,0
2503,-258.0,5.0,-7.0,0
2504,-259.0,8.0,-8.0,0
2505,-258.0,6.0,-8.0,0
2506,-261.0,4.0,-5.0,0
2507,-259.0,3.0,-6.0,0
2508,-259.0,4.0,-6.0,0
2509,-258.0,5.0,-9.0,0
2510,-259.0,6.0,-10.0,0
2511,-259.0,8.0,-8.0,0
2512,-259.0,7.0,-7.0,0
2513,-258.0,4.0,-9.0,0
2514,-257.0,4.0,-9.0,0
2515,-258.0,5.0,-10.0,0
2516,-258.0,3.0,-12.0,0
2517,-260.0,6.0,-9.0,0
2518,-257.0,2.0,-9.0,0
2519,-260.0,6.0,-10.0,0
2520,-260.0,3.0,-9.0,0
2521,-257.0,1.0,-9.0,0
2522,-259.0,8.0,-8.0,0
2523,-262.0,8.0,-12.0,0
2524,-258.0,4.0,-7.0,0
2525,-260.0,8.0,-9.0,0
2526,-260.0,5.0,-9.0,0
2527,-260.0,7.0,-12.0,0
2528,-259.0,6.0,-13.0,0
2529,-259.0,8.0,-12.0,0
2530,-259.0,8.0,-13.0,0
2531,-257.0,6.0,-12.0,0
2532,-258.0,6.0,-13.0,0
2533,-259.0,5.0,-11.0,0
2534,-257.0,6.0,-13.0,0
2535,-260.0,5.0,-14.0,0
2536,-259.0,6.0,-13.0,0
2537,-257.0,8.0,-14.0,0
2538,-261.0,7.0,-10.0,0
2539,-264.0,9.0,-18.0,0
2540,-259.0,9.0,-13.0,0
2541,-260.0,8.0,-13.0,0
2542,-260.0,8.0,-9.0,0
2543,-262.0,9.0,-13.0,0
2544,-259.0,6.0,-10.0,0
2545,-258.0,8.0,-14.0,0
2546,-258.0,7.0,-14.0,0
2547,-260.0,7.0,-15.0,0
2548,-257.0,1.0,-14.0,0
2549,-263.0,11.0,-15.0,0
2550,-260.0,5.0,-11.0,0
2551,-258.0,5.0,-14.0,0
2552,-259.0,8.0,-12.0,0
2553,-257.0,7.0,-11.0,0
2554,-257.0,5.0,-8.0,0
2555,-257.0,8.0,-14.0,0
2556,-260.0,8.0,-13.0,0
2557,-260.0,9.0,-12.0,0
2558,-262.0,8.0,-14.0,0
2559,-259.0,6.0,-13.0,0
2560,-264.0,8.0,-15.0,0
2561,-262.0,11.0,-10.0,0
2562,-259.0,8.0,-8.0,0
2563,-260.0,8.0,-11.0,0
2564,-260.0,7.0,-13.0,0
2565,-259.0,8.0,-12.0,0
2566,-259.0,8.0,-7.0,0
2567,-260.0,8.0,-9.0,0
2568,-258.0,6.0,-12.0,0
2569,-259.0,7.0,-10.0,0
2570,-260.0,8.0,-7.0,0
2571,-253.0,0.0,-13.0,0
2572,-257.0,5.0,-9.0,0
2573,-257.0,7.0,-9.0,0
2574,-257.0,7.0,-12.0,0
2575,-256.0,6.0,-9.0,0
2576,-257.0,8.0,-8.0,0
2577,-258.0,8.0,-7.0,0
2578,-257.0,4.0,-11.0,0
2579,-259.0,4.0,-10.0,0
2580,-258.0,7.0,-8.0,0
2581,-259.0,3.0,-11.0,0
2582,-257.0,3.0,-12.0,0
2583,-257.0,8.0,-7.0,0
2584,-256.0,4.0,-9.0,0
2585,-257.0,3.0,-9.0,0
2586,-256.0,4.0,-10.0,0
2587,-256.0,6.0,-5.0,0
2588,-256.0,7.0,-7.0,0
2589,-257.0,5.0,-8.0,0
2590,-258.0,7.0,-5.0,0
2591,-260.0,5.0,-10.0,0
2592,-256.0,8.0,-9.0,0
2593,-257.0,5.0,-11.0,0
2594,-258.0,8.0,-10.0,0
2595,-258.0,5.0,-9.0,0
2596,-257.0,6.0,-11.0,0
2597,-258.0,5.0,-13.0,0
2598,-258.0,8.0,-12.0,0
2599,-258.0,5.0,-12.0,0
2600,-257.0,4.0,-10.0,0
2601,-258.0,7.0,-14.0,0
2602,-257.0,5.0,-13.0,0
2603,-257.0,-2.0,-9.0,0
2604,-258.0,5.0,-10.0,0
2605,-257.0,7.0,-11.0,0
2606,-257.0,6.0,-10.0,0
2607,-256.0,6.0,-14.0,0
2608,-258.0,7.0,-11.0,0
2609,-258.0,8.0,-11.0,0
2610,-257.0,8.0,-10.0,0
2611,-257.0,8.0,-9.0,0
2612,-260.0,4.0,-9.0,0
2613,-255.0,7.0,-15.0,0
2614,-260.0,8.0,-10.0,0
2615,-260.0,7.0,-13.0,0
2616,-259.0,9.0,-12.0,0
2617,-258.0,8.0,-11.0,0
2618,-262.0,8.0,-12.0,0
2619,-259.0,8.0,-12.0,0
2620,-259.0,6.0,-11.0,0
2621,-259.0,8.0,-13.0,0
2622,-257.0,6.0,-10.0,0
2623,-256.0,5.0,-14.0,0
2624,-256.0,6.0,-14.0,0
2625,-258.0,7.0,-11.0,0
2626,-258.0,2.0,-7.0,0
2627,-259.0,2.0,-8.0,0
2628,-257.0,-3.0,-12.0,0
2629,-256.0,-2.0,-13.0,0
2630,-258.0,0.0,-14.0,0
2631,-258.0,6.0,-16.0,0
2632,-257.0,9.0,-18.0,0
2633,-257.0,6.0,-18.0,0
2634,-258.0,8.0,-17.0,0
2635,-257.0,8.0,-16.0,0
2636,-261.0,10.0,-14.0,0
2637,-257.0,9.0,-16.0,0
2638,-258.0,11.0,-16.0,0
2639,-256.0,11.0,-17.0,0
2640,-257.0,13.0,-18.0,0
2641,-262.0,10.0,-16.0,0
2642,-263.0,12.0,-16.0,0
2643,-265.0,10.0,-16.0,0
2644,-259.0,13.0,-15.0,0
2645,-260.0,10.0,-15.0,0
2646,-266.0,10.0,-4.0,0
2647,-257.0,9.0,-20.0,0
2648,-261.0,10.0,-17.0,0
2649,-262.0,8.0,-18.0,0
2650,-258.0,5.0,-19.0,0
2651,-260.0,8.0,-17.0,0
2652,-260.0,7.0,-18.0,0
2653,-259.0,7.0,-15.0,0
2654,-259.0,7.0,-19.0,0
2655,-260.0,6.0,-16.0,0
2656,-259.0,10.0,-15.0,0
2657,-260.0,8.0,-15.0,0
2658,-260.0,8.0,-15.0,0
2659,-259.0,8.0,-19.0,0
2660,-259.0,9.0,-15.0,0
2661,-259.0,8.0,-15.0,0
2662,-259.0,10.0,-15.0,0
2663,-259.0,8.0,-16.0,0
2664,-259.0,9.0,-17.0,0
2665,-258.0,8.0,-17.0,0
2666,-258.0,9.0,-17.0,0
2667,-257.0,16.0,-14.0,0
2668,-259.0,7.0,-15.0,0
2669,-258.0,3.0,-14.0,0
2670,-258.0,8.0,-18.0,0
2671,-257.0,5.0,-16.0,0
2672,-257.0,7.0,-13.0,0
2673,-259.0,7.0,-13.0,0
2674,-258.0,5.0,-12.0,0
2675,-259.0,8.0,-16.0,0
2676,-258.0,6.0,-12.0,0
2677,-258.0,7.0,-12.0,0
2678,-257.0,8.0,-12.0,0
2679,-256.0,8.0,-12.0,0
2680,-259.0,8.0,-13.0,0
2681,-256.0,10.0,-11.0,0
2682,-257.0,8.0,-10.0,0
2683,-256.0,7.0,-16.0,0
2684,-259.0,8.0,-12.0,0
2685,-258.0,8.0,-17.0,0
2686,-258.0,6.0,-14.0,0
2687,-259.0,8.0,-11.0,0
2688,-260.0,8.0,-16.0,0
2689,-262.0,9.0,-16.0,0
2690,-256.0,6.0,-15.0,0
2691,-257.0,8.0,-13.0,0
2692,-258.0,8.0,-12.0,0
2693,-260.0,8.0,-11.0,0
2694,-260.0,8.0,-13.0,0
2695,-259.0,7.0,-13.0,0
2696,-258.0,8.0,-15.0,0
2697,-258.0,9.0,-17.0,0
2698,-257.0,6.0,-13.0,0
2699,-260.0,9.0,-11.0,0
2700,-257.0,8.0,-16.0,0
2701,-260.0,5.0,-13.0,0
2702,-258.0,9.0,-13.0,0
2703,-260.0,6.0,-12.0,0
2704,-258.0,5.0,-16.0,0
2705,-257.0,8.0,-13.0,0
2706,-257.0,8.0,-9.0,0
2707,-257.0,8.0,-12.0,0
2708,-257.0,8.0,-12.0,0
2709,-257.0,8.0,-12.0,0
2710,-264.0,15.0,-18.0,0
2711,-259.0,8.0,-12.0,0
2712,-259.0,6.0,-12.0,0
2713,-259.0,8.0,-11.0,0
2714,-257.0,6.0,-16.0,0
2715,-257.0,8.0,-14.0,0
2716,-258.0,6.0,-12.0,0
2717,-257.0,2.0,-12.0,0
2718,-257.0,7.0,-15.0,0
2719,-257.0,6.0,-13.0,0
2720,-259.0,10.0,-16.0,0
2721,-260.0,8.0,-15.0,0
2722,-257.0,8.0,-12.0,0
2723,-257.0,6.0,-14.0,0
2724,-259.0,6.0,-14.0,0
2725,-258.0,7.0,-13.0,0
2726,-259.0,8.0,-16.0,0
2727,-259.0,7.0,-14.0,0
2728,-257.0,8.0,-14.0,0
2729,-258.0,8.0,-15.0,0
2730,-258.0,10.0,-12.0,0
2731,-264.0,7.0,-16.0,0
2732,-258.0,7.0,-17.0,0
2733,-260.0,9.0,-12.0,0
2734,-261.0,8.0,-14.0,0
2735,-259.0,7.0,-18.0,0
2736,-259.0,7.0,-15.0,0
2737,-258.0,8.0,-13.0,0
2738,-258.0,8.0,-15.0,0
2739,-260.0,6.0,-15.0,0
2740,-258.0,7.0,-18.0,0
2741,-258.0,8.0,-13.0,0
2742,-257.0,6.0,-13.0,0
2743,-259.0,7.0,-12.0,0
2744,-259.0,5.0,-11.0,0
2745,-258.0,8.0,-15.0,0
2746,-259.0,5.0,-12.0,0
2747,-257.0,6.0,-13.0,0
2748,-259.0,7.0,-12.0,0
2749,-257.0,5.0,-11.0,0
2750,-258.0,6.0,-11.0,0
2751,-256.0,7.0,-8.0,0
2752,-259.0,8.0,-14.0,0
2753,-259.0,6.0,-17.0,0
2754,-258.0,8.0,-10.0,0
2755,-258.0,8.0,-8.0,0
2756,-259.0,8.0,-14.0,0
2757,-263.0,8.0,-16.0,0
2758,-258.0,8.0,-9.0,0
2759,-260.0,9.0,-14.0,0
2760,-262.0,9.0,-11.0,0
2761,-260.0,9.0,-14.0,0
2762,-260.0,8.0,-12.0,0
2763,-257.0,9.0,-13.0,0
2764,-258.0,7.0,-16.0,0
2765,-258.0,7.0,-10.0,0
2766,-257.0,8.0,-12.0,0
2767,-260.0,8.0,-14.0,0
2768,-257.0,3.0,-11.0,0
2769,-257.0,2.0,-9.0,0
2770,-258.0,1.0,-11.0,0
2771,-258.0,-1.0,-13.0,0
2772,-258.0,-4.0,-16.0,0
2773,-257.0,2.0,-16.0,0
2774,-259.0,5.0,-13.0,0
2775,-256.0,3.0,-19.0,0
2776,-258.0,6.0,-17.0,0
2777,-258.0,4.0,-10.0,0
2778,-257.0,10.0,-12.0,0
2779,-258.0,10.0,-14.0,0
2780,-262.0,9.0,-12.0,0
2781,-259.0,12.0,-13.0,0
2782,-258.0,11.0,-15.0,0
2783,-258.0,10.0,-10.0,0
2784,-260.0,12.0,-4.0,0
2785,-257.0,8.0,-8.0,0
2786,-259.0,8.0,-13.0,0
2787,-259.0,9.0,-10.0,0
2788,-257.0,8.0,-14.0,0
2789,-257.0,6.0,-9.0,0
2790,-260.0,8.0,-14.0,0
2791,-258.0,5.0,-9.0,0
2792,-257.0,8.0,-11.0,0
2793,-260.0,3.0,-11.0,0
2794,-260.0,5.0,-9.0,0
2795,-259.0,5.0,-7.0,0
2796,-260.0,8.0,-13.0,0
2797,-257.0,7.0,-12.0,0
2798,-258.0,8.0,-14.0,0
2799,-257.0,6.0,-7.0,0
2800,-259.0,8.0,-9.0,0
2801,-259.0,7.0,-5.0,0
2802,-258.0,8.0,-14.0,0
2803,-260.0,7.0,-11.0,0
2804,-256.0,5.0,-12.0,0
2805,-258.0,9.0,-12.0,0
2806,-256.0,8.0,-11.0,0
2807,-256.0,8.0,-5.0,0
2808,-258.0,8.0,-5.0,0
2809,-258.0,8.0,-8.0,0
2810,-258.0,7.0,-4.0,0
2811,-257.0,7.0,-5.0,0
2812,-258.0,7.0,-9.0,0
2813,-259.0,8.0,-7.0,0
2814,-256.0,7.0,-8.0,0
2815,-261.0,8.0,-7.0,0
2816,-255.0,4.0,-7.0,0
2817,-258.0,7.0,-9.0,0
2818,-256.0,4.0,-8.0,0
2819,-256.0,0.0,-12.0,0
2820,-257.0,-2.0,-15.0,0
2821,-259.0,2.0,-14.0,0
2822,-259.0,4.0,-13.0,0
2823,-258.0,2.0,-13.0,0
2824,-257.0,1.0,-14.0,0
2825,-256.0,6.0,-14.0,0
2826,-259.0,6.0,-10.0,0
2827,-259.0,8.0,-12.0,0
2828,-258.0,5.0,-12.0,0
2829,-258.0,5.0,-11.0,0
2830,-259.0,8.0,-10.0,0
2831,-259.0,9.0,-11.0,0
2832,-258.0,8.0,-11.0,0
2833,-259.0,8.0,-10.0,0
2834,-259.0,7.0,-15.0,0
2835,-259.0,7.0,-11.0,0
2836,-260.0,8.0,-13.0,0
2837,-260.0,3.0,-13.0,0
2838,-262.0,8.0,-13.0,0
2839,-262.0,8.0,-13.0,0
2840,-258.0,7.0,-15.0,0
2841,-257.0,6.0,-13.0,0
2842,-258.0,8.0,-16.0,0
2843,-258.0,6.0,-13.0,0
2844,-258.0,7.0,-13.0,0
2845,-257.0,4.0,-12.0,0
2846,-259.0,3.0,-14.0,0
2847,-257.0,6.0,-13.0,0
2848,-259.0,6.0,-11.0,0
2849,-258.0,8.0,-12.0,0
2850,-257.0,4.0,-5.0,0
2851,-258.0,5.0,-12.0,0
2852,-258.0,8.0,-7.0,0
2853,-259.0,8.0,-7.0,0
2854,-259.0,7.0,-9.0,0
2855,-256.0,7.0,-6.0,0
2856,-259.0,7.0,-8.0,0
2857,-257.0,8.0,-9.0,0
2858,-260.0,8.0,-7.0,0
2859,-257.0,9.0,-8.0,0
2860,-257.0,9.0,-13.0,0
2861,-259.0,4.0,-7.0,0
2862,-260.0,7.0,-7.0,0
2863,-257.0,5.0,-10.0,0
2864,-259.0,6.0,-8.0,0
2865,-259.0,8.0,-7.0,0
2866,-257.0,6.0,-8.0,0
2867,-257.0,7.0,-11.0,0
2868,-261.0,9.0,-6.0,0
2869,-260.0,6.0,-7.0,0
2870,-257.0,5.0,-10.0,0
2871,-258.0,9.0,-10.0,0
2872,-260.0,7.0,-10.0,0
2873,-258.0,8.0,-5.0,0
2874,-255.0,3.0,-6.0,0
2875,-257.0,8.0,-7.0,0
2876,-257.0,8.0,-10.0,0
2877,-257.0,8.0,-8.0,0
2878,-256.0,4.0,-6.0,0
2879,-256.0,4.0,-5.0,0
2880,-257.0,5.0,-6.0,0
2881,-254.0,3.0,0.0,0
2882,-257.0,4.0,-8.0,0
2883,-256.0,6.0,-7.0,0
2884,-261.0,6.0,-6.0,0
2885,-260.0,4.0,-9.0,0
2886,-261.0,7.0,-10.0,0
2887,-259.0,6.0,-15.0,0
2888,-262.0,7.0,-10.0,0
2889,-258.0,5.0,-12.0,0
2890,-262.0,14.0,-10.0,0
2891,-259.0,6.0,-13.0,0
2892,-259.0,7.0,-10.0,0
2893,-259.0,5.0,-13.0,0
2894,-259.0,7.0,-11.0,0
2895,-259.0,4.0,-13.0,0
2896,-258.0,7.0,-12.0,0
2897,-258.0,7.0,-14.0,0
2898,-260.0,8.0,-10.0,0
2899,-256.0,7.0,-14.0,0
2900,-259.0,8.0,-9.0,0
2901,-257.0,9.0,-11.0,0
2902,-261.0,9.0,-11.0,0
2903,-260.0,7.0,-10.0,0
2904,-256.0,8.0,-9.0,0
2905,-260.0,8.0,-6.0,0
2906,-257.0,6.0,-10.0,0
2907,-261.0,6.0,-12.0,0
2908,-259.0,6.0,-7.0,0
2909,-257.0,7.0,-13.0,0
2910,-259.0,8.0,-10.0,0
2911,-261.0,6.0,-7.0,0
2912,-258.0,4.0,-6.0,0
2913,-259.0,7.0,-8.0,0
2914,-257.0,2.0,-8.0,0
2915,-259.0,-1.0,-13.0,0
2916,-259.0,2.0,-14.0,0
2917,-260.0,8.0,-15.0,0
2918,-259.0,4.0,-16.0,0
2919,-259.0,4.0,-16.0,0
2920,-259.0,8.0,-8.0,0
2921,-258.0,7.0,-10.0,0
2922,-261.0,9.0,-7.0,0
2923,-259.0,9.0,-9.0,0
2924,-257.0,11.0,-9.0,0
2925,-260.0,11.0,-6.0,0
2926,-257.0,10.0,-7.0,0
2927,-258.0,10.0,-4.0,0
2928,-257.0,9.0,-7.0,0
2929,-259.0,8.0,-4.0,0
2930,-258.0,7.0,-6.0,0
2931,-255.0,8.0,0.0,0
2932,-257.0,5.0,-6.0,0
2933,-257.0,9.0,-2.0,0
2934,-256.0,7.0,-6.0,0
2935,-256.0,8.0,-2.0,0
2936,-257.0,8.0,-2.0,0
2937,-257.0,8.0,-5.0,0
2938,-256.0,5.0,-3.0,0
2939,-257.0,7.0,-5.0,0
2940,-256.0,5.0,-5.0,0
2941,-255.0,8.0,-7.0,0
2942,-256.0,4.0,-7.0,0
2943,-257.0,5.0,-8.0,0
2944,-255.0,2.0,-8.0,0
2945,-255.0,9.0,-7.0,0
2946,-258.0,8.0,-8.0,0
2947,-257.0,3.0,-12.0,0
2948,-257.0,2.0,-9.0,0
2949,-258.0,2.0,-15.0,0
2950,-261.0,3.0,-14.0,0
2951,-260.0,4.0,-18.0,0
2952,-260.0,6.0,-16.0,0
2953,-259.0,8.0,-16.0,0
2954,-259.0,6.0,-17.0,0
2955,-261.0,8.0,-14.0,0
2956,-261.0,8.0,-15.0,0
2957,-258.0,10.0,-17.0,0
2958,-262.0,10.0,-16.0,0
2959,-264.0,10.0,-13.0,0
2960,-261.0,9.0,-10.0,0
2961,-261.0,8.0,-16.0,0
2962,-259.0,10.0,-15.0,0
2963,-260.0,8.0,-12.0,0
2964,-260.0,9.0,-12.0,0
2965,-260.0,8.0,-15.0,0
2966,-262.0,6.0,-12.0,0
2967,-257.0,6.0,-14.0,0
2968,-258.0,7.0,-16.0,0
2969,-260.0,7.0,-15.0,0
2970,-259.0,7.0,-19.0,0
2971,-257.0,7.0,-15.0,0
2972,-258.0,8.0,-15.0,0
2973,-257.0,8.0,-15.0,0
2974,-257.0,8.0,-14.0,0
2975,-258.0,9.0,-12.0,0
2976,-259.0,13.0,-13.0,0
2977,-259.0,11.0,-9.0,0
2978,-258.0,10.0,-16.0,0
2979,-258.0,10.0,-12.0,0
2980,-260.0,11.0,-11.0,0
2981,-256.0,8.0,-14.0,0
2982,-261.0,9.0,-11.0,0
2983,-261.0,10.0,-10.0,0
2984,-260.0,9.0,-14.0,0
2985,-260.0,9.0,-15.0,0
2986,-260.0,10.0,-14.0,0
2987,-259.0,8.0,-14.0,0
2988,-259.0,8.0,-12.0,0
2989,-260.0,8.0,-17.0,0
2990,-260.0,7.0,-16.0,0
2991,-261.0,8.0,-17.0,0
2992,-259.0,8.0,-15.0,0
2993,-259.0,9.0,-14.0,0
2994,-258.0,8.0,-17.0,0
2995,-261.0,11.0,-16.0,0
2996,-259.0,10.0,-14.0,0
2997,-261.0,8.0,-11.0,0
2998,-258.0,9.0,-16.0,0
2999,-261.0,9.0,-14.0,0
