,accelerometer_x,accelerometer_y,accelerometer_z,fall
0,9.0,-219.0,104.0,0
1,9.0,-223.0,109.0,0
2,9.0,-221.0,105.0,0
3,11.0,-220.0,106.0,0
4,5.0,-220.0,104.0,0
5,5.0,-225.0,104.0,0
6,4.0,-217.0,105.0,0
7,10.0,-215.0,104.0,0
8,5.0,-217.0,104.0,0
9,7.0,-216.0,103.0,0
10,5.0,-219.0,106.0,0
11,5.0,-216.0,103.0,0
12,8.0,-214.0,103.0,0
13,2.0,-218.0,104.0,0
14,3.0,-216.0,102.0,0
15,4.0,-222.0,100.0,0
16,9.0,-219.0,109.0,0
17,5.0,-221.0,106.0,0
18,0.0,-221.0,102.0,0
19,4.0,-220.0,98.0,0
20,6.0,-222.0,103.0,0
21,3.0,-226.0,102.0,0
22,3.0,-221.0,101.0,0
23,6.0,-226.0,102.0,0
24,7.0,-224.0,102.0,0
25,6.0,-223.0,102.0,0
26,4.0,-220.0,105.0,0
27,6.0,-220.0,107.0,0
28,5.0,-217.0,102.0,0
29,6.0,-220.0,108.0,0
30,7.0,-219.0,105.0,0
31,4.0,-216.0,104.0,0
32,6.0,-217.0,105.0,0
33,6.0,-215.0,100.0,0
34,7.0,-217.0,101.0,0
35,4.0,-215.0,102.0,0
36,5.0,-221.0,102.0,0
37,5.0,-221.0,102.0,0
38,7.0,-224.0,103.0,0
39,6.0,-219.0,103.0,0
40,8.0,-225.0,102.0,0
41,2.0,-221.0,105.0,0
42,5.0,-218.0,105.0,0
43,6.0,-218.0,103.0,0
44,8.0,-220.0,107.0,0
45,10.0,-223.0,107.0,0
46,6.0,-220.0,109.0,0
47,5.0,-221.0,108.0,0
48,3.0,-223.0,108.0,0
49,6.0,-218.0,104.0,0
50,6.0,-215.0,104.0,0
51,4.0,-219.0,101.0,0
52,5.0,-221.0,108.0,0
53,6.0,-218.0,100.0,0
54,6.0,-220.0,104.0,0
55,5.0,-221.0,101.0,0
56,5.0,-217.0,108.0,0
57,7.0,-218.0,103.0,0
58,11.0,-218.0,106.0,0
59,10.0,-223.0,108.0,0
60,5.0,-221.0,102.0,0
61,8.0,-219.0,105.0,0
62,6.0,-219.0,106.0,0
63,7.0,-220.0,105.0,0
64,7.0,-220.0,106.0,0
65,4.0,-220.0,103.0,0
66,5.0,-225.0,107.0,0
67,8.0,-216.0,104.0,0
68,3.0,-222.0,105.0,0
69,4.0,-220.0,106.0,0
70,4.0,-220.0,108.0,0
71,4.0,-222.0,107.0,0
72,1.0,-217.0,104.0,0
73,0.0,-220.0,106.0,0
74,3.0,-220.0,102.0,0
75,3.0,-219.0,106.0,0
76,7.0,-220.0,103.0,0
77,6.0,-219.0,101.0,0
78,3.0,-221.0,107.0,0
79,4.0,-219.0,104.0,0
80,5.0,-220.0,103.0,0
81,4.0,-220.0,100.0,0
82,4.0,-220.0,106.0,0
83,6.0,-220.0,107.0,0
84,3.0,-216.0,108.0,0
85,5.0,-220.0,104.0,0
86,5.0,-219.0,107.0,0
87,6.0,-217.0,107.0,0
88,3.0,-215.0,105.0,0
89,8.0,-222.0,106.0,0
90,2.0,-217.0,105.0,0
91,6.0,-219.0,104.0,0
92,1.0,-220.0,105.0,0
93,3.0,-223.0,104.0,0
94,6.0,-221.0,109.0,0
95,4.0,-220.0,104.0,0
96,5.0,-221.0,107.0,0
97,2.0,-218.0,108.0,0
98,3.0,-219.0,101.0,0
99,5.0,-222.0,104.0,0
100,2.0,-217.0,105.0,0
101,6.0,-220.0,106.0,0
102,4.0,-218.0,104.0,0
103,3.0,-221.0,102.0,0
104,7.0,-221.0,102.0,0
105,3.0,-219.0,105.0,0
106,7.0,-221.0,107.0,0
107,5.0,-219.0,107.0,0
108,3.0,-216.0,106.0,0
109,6.0,-218.0,105.0,0
110,6.0,-216.0,104.0,0
111,3.0,-220.0,109.0,0
112,7.0,-217.0,105.0,0
113,2.0,-219.0,108.0,0
114,4.0,-220.0,108.0,0
115,7.0,-222.0,108.0,0
116,1.0,-218.0,104.0,0
117,2.0,-217.0,106.0,0
118,6.0,-218.0,102.0,0
119,3.0,-216.0,103.0,0
120,7.0,-219.0,105.0,0
121,5.0,-218.0,107.0,0
122,7.0,-216.0,102.0,0
123,6.0,-217.0,105.0,0
124,6.0,-219.0,105.0,0
125,6.0,-216.0,109.0,0
126,7.0,-220.0,109.0,0
127,4.0,-221.0,107.0,0
128,7.0,-217.0,105.0,0
129,5.0,-220.0,109.0,0
130,9.0,-219.0,108.0,0
131,8.0,-219.0,107.0,0
132,9.0,-219.0,109.0,0
133,5.0,-220.0,105.0,0
134,6.0,-220.0,105.0,0
135,7.0,-221.0,102.0,0
136,4.0,-217.0,108.0,0
137,6.0,-221.0,107.0,0
138,3.0,-221.0,108.0,0
139,3.0,-220.0,108.0,0
140,6.0,-220.0,108.0,0
141,5.0,-217.0,108.0,0
142,2.0,-218.0,104.0,0
143,5.0,-218.0,104.0,0
144,6.0,-220.0,102.0,0
145,6.0,-219.0,102.0,0
146,9.0,-215.0,100.0,0
147,7.0,-217.0,104.0,0
148,8.0,-218.0,103.0,0
149,6.0,-218.0,105.0,0
150,7.0,-216.0,104.0,0
151,8.0,-218.0,107.0,0
152,6.0,-216.0,106.0,0
153,5.0,-217.0,105.0,0
154,6.0,-216.0,108.0,0
155,4.0,-213.0,106.0,0
156,6.0,-216.0,109.0,0
157,1.0,-220.0,106.0,0
158,6.0,-218.0,108.0,0
159,5.0,-219.0,105.0,0
160,5.0,-217.0,104.0,0
161,5.0,-218.0,104.0,0
162,10.0,-222.0,107.0,0
163,7.0,-218.0,106.0,0
164,6.0,-218.0,106.0,0
165,5.0,-217.0,109.0,0
166,4.0,-220.0,106.0,0
167,7.0,-219.0,105.0,0
168,8.0,-221.0,111.0,0
169,8.0,-219.0,106.0,0
170,8.0,-221.0,105.0,0
171,6.0,-221.0,108.0,0
172,5.0,-216.0,107.0,0
173,4.0,-218.0,103.0,0
174,7.0,-221.0,106.0,0
175,8.0,-218.0,105.0,0
176,6.0,-219.0,106.0,0
177,9.0,-220.0,106.0,0
178,2.0,-212.0,111.0,0
179,6.0,-216.0,108.0,0
180,6.0,-217.0,107.0,0
181,4.0,-217.0,107.0,0
182,7.0,-221.0,103.0,0
183,8.0,-218.0,103.0,0
184,8.0,-218.0,107.0,0
185,7.0,-222.0,107.0,0
186,7.0,-220.0,106.0,0
187,6.0,-224.0,107.0,0
188,12.0,-221.0,112.0,0
189,8.0,-222.0,104.0,0
190,10.0,-226.0,105.0,0
191,6.0,-223.0,107.0,0
192,3.0,-221.0,107.0,0
193,6.0,-221.0,105.0,0
194,6.0,-221.0,104.0,0
195,6.0,-221.0,107.0,0
196,3.0,-217.0,105.0,0
197,7.0,-222.0,106.0,0
198,7.0,-218.0,107.0,0
199,7.0,-219.0,107.0,0
200,6.0,-217.0,102.0,0
201,5.0,-217.0,104.0,0
202,6.0,-222.0,103.0,0
203,6.0,-218.0,102.0,0
204,6.0,-221.0,105.0,0
205,2.0,-220.0,104.0,0
206,5.0,-219.0,107.0,0
207,8.0,-216.0,105.0,0
208,3.0,-217.0,106.0,0
209,6.0,-220.0,100.0,0
210,6.0,-217.0,103.0,0
211,9.0,-220.0,108.0,0
212,5.0,-217.0,105.0,0
213,7.0,-218.0,108.0,0
214,7.0,-216.0,106.0,0
215,4.0,-215.0,111.0,0
216,10.0,-221.0,107.0,0
217,8.0,-220.0,108.0,0
218,9.0,-220.0,107.0,0
219,10.0,-219.0,107.0,0
220,4.0,-220.0,107.0,0
221,5.0,-218.0,104.0,0
222,2.0,-212.0,93.0,0
223,4.0,-226.0,124.0,0
224,7.0,-219.0,109.0,0
225,5.0,-218.0,104.0,0
226,8.0,-221.0,106.0,0
227,5.0,-218.0,106.0,0
228,5.0,-218.0,108.0,0
229,4.0,-214.0,109.0,0
230,8.0,-221.0,106.0,0
231,4.0,-222.0,108.0,0
232,6.0,-219.0,105.0,0
233,10.0,-222.0,105.0,0
234,9.0,-220.0,106.0,0
235,6.0,-219.0,108.0,0
236,6.0,-219.0,105.0,0
237,8.0,-223.0,105.0,0
238,7.0,-223.0,106.0,0
239,5.0,-220.0,107.0,0
240,9.0,-219.0,105.0,0
241,6.0,-221.0,106.0,0
242,4.0,-219.0,104.0,0
243,4.0,-218.0,106.0,0
244,12.0,-222.0,102.0,0
245,7.0,-219.0,107.0,0
246,5.0,-220.0,109.0,0
247,7.0,-221.0,106.0,0
248,6.0,-218.0,106.0,0
249,7.0,-220.0,107.0,0
250,7.0,-218.0,109.0,0
251,8.0,-215.0,107.0,0
252,6.0,-218.0,102.0,0
253,6.0,-217.0,106.0,0
254,6.0,-217.0,104.0,0
255,3.0,-215.0,106.0,0
256,5.0,-216.0,108.0,0
257,9.0,-220.0,109.0,0
258,8.0,-219.0,106.0,0
259,8.0,-218.0,108.0,0
260,7.0,-216.0,107.0,0
261,11.0,-220.0,109.0,0
262,8.0,-219.0,109.0,0
263,11.0,-218.0,108.0,0
264,7.0,-220.0,108.0,0
265,8.0,-219.0,111.0,0
266,8.0,-221.0,106.0,0
267,5.0,-217.0,109.0,0
268,6.0,-218.0,108.0,0
269,8.0,-220.0,106.0,0
270,8.0,-217.0,110.0,0
271,7.0,-220.0,105.0,0
272,3.0,-217.0,110.0,0
273,7.0,-221.0,107.0,0
274,6.0,-221.0,106.0,0
275,8.0,-222.0,114.0,0
276,9.0,-220.0,105.0,0
277,10.0,-225.0,106.0,0
278,8.0,-218.0,110.0,0
279,8.0,-218.0,108.0,0
280,5.0,-212.0,111.0,0
281,6.0,-218.0,110.0,0
282,8.0,-217.0,106.0,0
283,8.0,-217.0,107.0,0
284,7.0,-220.0,108.0,0
285,9.0,-219.0,109.0,0
286,9.0,-217.0,108.0,0
287,7.0,-216.0,108.0,0
288,9.0,-212.0,108.0,0
289,9.0,-216.0,109.0,0
290,8.0,-216.0,110.0,0
291,8.0,-217.0,106.0,0
292,7.0,-217.0,106.0,0
293,7.0,-215.0,106.0,0
294,8.0,-216.0,105.0,0
295,10.0,-215.0,108.0,0
296,7.0,-218.0,108.0,0
297,8.0,-220.0,111.0,0
298,6.0,-214.0,106.0,0
299,6.0,-219.0,107.0,0
300,9.0,-218.0,105.0,0
301,7.0,-221.0,110.0,0
302,5.0,-219.0,109.0,0
303,6.0,-221.0,107.0,0
304,4.0,-219.0,108.0,0
305,6.0,-220.0,108.0,0
306,7.0,-221.0,108.0,0
307,4.0,-217.0,107.0,0
308,5.0,-220.0,109.0,0
309,3.0,-220.0,107.0,0
310,2.0,-219.0,104.0,0
311,8.0,-216.0,107.0,0
312,7.0,-217.0,105.0,0
313,9.0,-221.0,107.0,0
314,9.0,-218.0,107.0,0
315,6.0,-219.0,106.0,0
316,8.0,-217.0,104.0,0
317,5.0,-220.0,109.0,0
318,7.0,-220.0,108.0,0
319,11.0,-219.0,110.0,0
320,3.0,-219.0,105.0,0
321,2.0,-219.0,107.0,0
322,6.0,-219.0,106.0,0
323,6.0,-220.0,106.0,0
324,8.0,-217.0,102.0,0
325,2.0,-216.0,104.0,0
326,6.0,-217.0,105.0,0
327,6.0,-218.0,103.0,0
328,9.0,-219.0,111.0,0
329,8.0,-222.0,106.0,0
330,11.0,-218.0,106.0,0
331,6.0,-219.0,112.0,0
332,5.0,-217.0,106.0,0
333,5.0,-215.0,103.0,0
334,9.0,-219.0,106.0,0
335,10.0,-217.0,105.0,0
336,8.0,-221.0,105.0,0
337,7.0,-219.0,107.0,0
338,3.0,-221.0,108.0,0
339,6.0,-219.0,107.0,0
340,7.0,-217.0,106.0,0
341,3.0,-214.0,112.0,0
342,6.0,-216.0,103.0,0
343,6.0,-216.0,110.0,0
344,8.0,-216.0,111.0,0
345,6.0,-219.0,109.0,0
346,6.0,-215.0,107.0,0
347,7.0,-217.0,108.0,0
348,9.0,-217.0,110.0,0
349,6.0,-220.0,108.0,0
350,9.0,-218.0,110.0,0
351,4.0,-215.0,106.0,0
352,5.0,-217.0,107.0,0
353,1.0,-217.0,110.0,0
354,5.0,-216.0,108.0,0
355,8.0,-218.0,106.0,0
356,4.0,-219.0,110.0,0
357,6.0,-214.0,107.0,0
358,4.0,-215.0,110.0,0
359,4.0,-216.0,106.0,0
360,3.0,-218.0,111.0,0
361,6.0,-221.0,111.0,0
362,3.0,-218.0,109.0,0
363,10.0,-220.0,109.0,0
364,7.0,-221.0,111.0,0
365,9.0,-219.0,109.0,0
366,10.0,-220.0,108.0,0
367,9.0,-219.0,104.0,0
368,11.0,-221.0,105.0,0
369,7.0,-216.0,110.0,0
370,6.0,-220.0,106.0,0
371,3.0,-218.0,104.0,0
372,8.0,-216.0,105.0,0
373,4.0,-216.0,110.0,0
374,4.0,-217.0,107.0,0
375,4.0,-218.0,103.0,0
376,4.0,-215.0,109.0,0
377,4.0,-221.0,106.0,0
378,7.0,-218.0,107.0,0
379,7.0,-220.0,109.0,0
380,6.0,-223.0,109.0,0
381,6.0,-222.0,107.0,0
382,7.0,-218.0,106.0,0
383,10.0,-219.0,109.0,0
384,10.0,-219.0,110.0,0
385,6.0,-217.0,111.0,0
386,5.0,-218.0,109.0,0
387,7.0,-218.0,105.0,0
388,6.0,-217.0,110.0,0
389,7.0,-217.0,106.0,0
390,6.0,-218.0,106.0,0
391,4.0,-216.0,107.0,0
392,5.0,-214.0,107.0,0
393,7.0,-218.0,111.0,0
394,8.0,-213.0,110.0,0
395,11.0,-218.0,110.0,0
396,8.0,-220.0,111.0,0
397,10.0,-219.0,107.0,0
398,7.0,-218.0,110.0,0
399,8.0,-218.0,115.0,0
400,9.0,-220.0,109.0,0
401,7.0,-215.0,113.0,0
402,4.0,-216.0,113.0,0
403,7.0,-218.0,114.0,0
404,5.0,-216.0,115.0,0
405,5.0,-217.0,108.0,0
406,5.0,-215.0,108.0,0
407,7.0,-216.0,105.0,0
408,4.0,-217.0,109.0,0
409,8.0,-214.0,111.0,0
410,8.0,-215.0,108.0,0
411,8.0,-217.0,110.0,0
412,6.0,-217.0,117.0,0
413,8.0,-217.0,104.0,0
414,6.0,-217.0,111.0,0
415,4.0,-215.0,108.0,0
416,6.0,-220.0,109.0,0
417,5.0,-213.0,108.0,0
418,5.0,-216.0,106.0,0
419,7.0,-220.0,108.0,0
420,4.0,-217.0,109.0,0
421,6.0,-216.0,108.0,0
422,6.0,-218.0,109.0,0
423,10.0,-217.0,112.0,0
424,6.0,-216.0,113.0,0
425,7.0,-220.0,107.0,0
426,10.0,-218.0,110.0,0
427,8.0,-219.0,107.0,0
428,5.0,-216.0,106.0,0
429,7.0,-219.0,104.0,0
430,11.0,-214.0,112.0,0
431,7.0,-215.0,112.0,0
432,9.0,-214.0,108.0,0
433,7.0,-216.0,110.0,0
434,4.0,-214.0,110.0,0
435,8.0,-216.0,110.0,0
436,5.0,-213.0,109.0,0
437,7.0,-217.0,108.0,0
438,5.0,-218.0,111.0,0
439,8.0,-217.0,114.0,0
440,6.0,-219.0,110.0,0
441,7.0,-217.0,114.0,0
442,8.0,-216.0,113.0,0
443,5.0,-219.0,108.0,0
444,6.0,-216.0,112.0,0
445,7.0,-217.0,111.0,0
446,6.0,-213.0,109.0,0
447,6.0,-217.0,109.0,0
448,4.0,-212.0,111.0,0
449,4.0,-217.0,113.0,0
450,9.0,-213.0,112.0,0
451,4.0,-218.0,113.0,0
452,6.0,-217.0,112.0,0
453,3.0,-217.0,110.0,0
454,7.0,-220.0,112.0,0
455,8.0,-218.0,110.0,0
456,7.0,-217.0,112.0,0
457,8.0,-216.0,112.0,0
458,9.0,-213.0,111.0,0
459,6.0,-216.0,107.0,0
460,10.0,-214.0,115.0,0
461,10.0,-217.0,107.0,0
462,8.0,-219.0,111.0,0
463,8.0,-217.0,112.0,0
464,7.0,-216.0,109.0,0
465,6.0,-215.0,112.0,0
466,6.0,-219.0,110.0,0
467,6.0,-215.0,110.0,0
468,8.0,-219.0,110.0,0
469,8.0,-213.0,115.0,0
470,4.0,-216.0,108.0,0
471,8.0,-215.0,111.0,0
472,5.0,-215.0,111.0,0
473,5.0,-219.0,103.0,0
474,7.0,-218.0,110.0,0
475,7.0,-216.0,110.0,0
476,6.0,-217.0,114.0,0
477,7.0,-215.0,110.0,0
478,7.0,-216.0,112.0,0
479,6.0,-215.0,113.0,0
480,6.0,-213.0,113.0,0
481,7.0,-217.0,111.0,0
482,8.0,-218.0,115.0,0
483,10.0,-216.0,112.0,0
484,4.0,-217.0,109.0,0
485,8.0,-218.0,109.0,0
486,7.0,-217.0,109.0,0
487,9.0,-214.0,110.0,0
488,7.0,-215.0,110.0,0
489,6.0,-218.0,107.0,0
490,7.0,-214.0,112.0,0
491,6.0,-218.0,113.0,0
492,6.0,-218.0,109.0,0
493,9.0,-220.0,112.0,0
494,10.0,-216.0,110.0,0
495,6.0,-218.0,112.0,0
496,4.0,-218.0,112.0,0
497,7.0,-219.0,111.0,0
498,8.0,-216.0,106.0,0
499,6.0,-215.0,107.0,0
500,6.0,-216.0,110.0,0
501,5.0,-212.0,112.0,0
502,4.0,-212.0,115.0,0
503,4.0,-213.0,112.0,0
504,5.0,-213.0,112.0,0
505,7.0,-215.0,108.0,0
506,4.0,-217.0,110.0,0
507,6.0,-216.0,110.0,0
508,5.0,-216.0,114.0,0
509,6.0,-217.0,108.0,0
510,7.0,-216.0,108.0,0
511,6.0,-218.0,109.0,0
512,5.0,-216.0,109.0,0
513,6.0,-215.0,112.0,0
514,10.0,-219.0,112.0,0
515,9.0,-217.0,112.0,0
516,9.0,-216.0,110.0,0
517,5.0,-215.0,104.0,0
518,8.0,-217.0,109.0,0
519,5.0,-217.0,109.0,0
520,6.0,-215.0,107.0,0
521,3.0,-217.0,107.0,0
522,6.0,-215.0,110.0,0
523,9.0,-218.0,107.0,0
524,4.0,-213.0,107.0,0
525,5.0,-213.0,110.0,0
526,7.0,-219.0,108.0,0
527,7.0,-219.0,105.0,0
528,6.0,-216.0,110.0,0
529,5.0,-217.0,109.0,0
530,5.0,-219.0,108.0,0
531,7.0,-219.0,110.0,0
532,8.0,-221.0,108.0,0
533,6.0,-221.0,107.0,0
534,7.0,-217.0,104.0,0
535,7.0,-219.0,108.0,0
536,7.0,-220.0,105.0,0
537,6.0,-224.0,111.0,0
538,2.0,-213.0,105.0,0
539,3.0,-216.0,103.0,0
540,5.0,-217.0,104.0,0
541,7.0,-218.0,104.0,0
542,7.0,-220.0,105.0,0
543,9.0,-218.0,110.0,0
544,4.0,-222.0,104.0,0
545,3.0,-218.0,105.0,0
546,8.0,-221.0,108.0,0
547,6.0,-221.0,106.0,0
548,7.0,-218.0,101.0,0
549,7.0,-222.0,106.0,0
550,9.0,-220.0,105.0,0
551,3.0,-218.0,107.0,0
552,6.0,-218.0,108.0,0
553,5.0,-217.0,106.0,0
554,6.0,-218.0,105.0,0
555,4.0,-217.0,103.0,0
556,9.0,-223.0,105.0,0
557,3.0,-218.0,104.0,0
558,3.0,-218.0,107.0,0
559,2.0,-218.0,104.0,0
560,5.0,-220.0,101.0,0
561,6.0,-221.0,104.0,0
562,8.0,-221.0,104.0,0
563,6.0,-221.0,104.0,0
564,5.0,-220.0,106.0,0
565,8.0,-219.0,105.0,0
566,4.0,-218.0,103.0,0
567,7.0,-222.0,104.0,0
568,4.0,-221.0,104.0,0
569,10.0,-219.0,106.0,0
570,5.0,-219.0,105.0,0
571,5.0,-217.0,103.0,0
572,2.0,-214.0,107.0,0
573,7.0,-218.0,105.0,0
574,9.0,-217.0,103.0,0
575,6.0,-216.0,106.0,0
576,3.0,-220.0,104.0,0
577,7.0,-222.0,103.0,0
578,9.0,-218.0,105.0,0
579,5.0,-221.0,104.0,0
580,6.0,-218.0,100.0,0
581,8.0,-219.0,105.0,0
582,11.0,-219.0,112.0,0
583,5.0,-220.0,106.0,0
584,6.0,-220.0,104.0,0
585,4.0,-222.0,103.0,0
586,7.0,-221.0,105.0,0
587,8.0,-221.0,103.0,0
588,7.0,-219.0,105.0,0
589,6.0,-221.0,104.0,0
590,5.0,-223.0,101.0,0
591,8.0,-222.0,102.0,0
592,7.0,-216.0,103.0,0
593,9.0,-217.0,118.0,0
594,6.0,-220.0,107.0,0
595,5.0,-218.0,103.0,0
596,5.0,-218.0,106.0,0
597,5.0,-218.0,105.0,0
598,4.0,-221.0,104.0,0
599,7.0,-221.0,104.0,0
600,6.0,-218.0,106.0,0
601,6.0,-220.0,104.0,0
602,7.0,-217.0,106.0,0
603,9.0,-218.0,104.0,0
604,-1.0,-221.0,99.0,0
605,5.0,-219.0,107.0,0
606,4.0,-219.0,105.0,0
607,6.0,-216.0,106.0,0
608,8.0,-220.0,105.0,0
609,5.0,-217.0,106.0,0
610,6.0,-216.0,105.0,0
611,7.0,-217.0,105.0,0
612,6.0,-219.0,101.0,0
613,1.0,-218.0,100.0,0
614,2.0,-221.0,107.0,0
615,0.0,-222.0,104.0,0
616,2.0,-219.0,106.0,0
617,5.0,-225.0,103.0,0
618,7.0,-222.0,103.0,0
619,9.0,-223.0,102.0,0
620,6.0,-220.0,98.0,0
621,6.0,-218.0,105.0,0
622,6.0,-221.0,103.0,0
623,2.0,-219.0,102.0,0
624,6.0,-222.0,103.0,0
625,1.0,-221.0,101.0,0
626,5.0,-220.0,101.0,0
627,3.0,-219.0,99.0,0
628,3.0,-217.0,99.0,0
629,2.0,-218.0,103.0,0
630,1.0,-219.0,103.0,0
631,4.0,-217.0,101.0,0
632,6.0,-222.0,105.0,0
633,4.0,-220.0,104.0,0
634,4.0,-219.0,102.0,0
635,2.0,-221.0,106.0,0
636,8.0,-222.0,114.0,0
637,5.0,-220.0,105.0,0
638,3.0,-222.0,107.0,0
639,8.0,-222.0,106.0,0
640,4.0,-219.0,103.0,0
641,3.0,-219.0,104.0,0
642,6.0,-223.0,100.0,0
643,4.0,-219.0,100.0,0
644,2.0,-220.0,103.0,0
645,5.0,-222.0,104.0,0
646,6.0,-221.0,103.0,0
647,4.0,-221.0,102.0,0
648,2.0,-218.0,105.0,0
649,7.0,-224.0,104.0,0
650,3.0,-219.0,104.0,0
651,4.0,-217.0,101.0,0
652,1.0,-218.0,105.0,0
653,4.0,-219.0,104.0,0
654,2.0,-224.0,104.0,0
655,4.0,-221.0,103.0,0
656,4.0,-220.0,98.0,0
657,3.0,-217.0,101.0,0
658,2.0,-213.0,97.0,0
659,2.0,-221.0,105.0,0
660,4.0,-220.0,105.0,0
661,4.0,-221.0,101.0,0
662,4.0,-219.0,102.0,0
663,4.0,-223.0,105.0,0
664,3.0,-217.0,105.0,0
665,5.0,-224.0,105.0,0
666,5.0,-223.0,105.0,0
667,9.0,-218.0,105.0,0
668,10.0,-219.0,106.0,0
669,1.0,-216.0,106.0,0
670,5.0,-219.0,107.0,0
671,5.0,-217.0,101.0,0
672,5.0,-216.0,102.0,0
673,3.0,-216.0,103.0,0
674,3.0,-216.0,101.0,0
675,6.0,-221.0,104.0,0
676,4.0,-219.0,104.0,0
677,5.0,-215.0,102.0,0
678,6.0,-219.0,100.0,0
679,3.0,-222.0,108.0,0
680,7.0,-227.0,114.0,0
681,6.0,-224.0,103.0,0
682,8.0,-223.0,105.0,0
683,5.0,-225.0,102.0,0
684,5.0,-218.0,104.0,0
685,4.0,-217.0,102.0,0
686,5.0,-220.0,104.0,0
687,4.0,-218.0,98.0,0
688,6.0,-218.0,107.0,0
689,3.0,-219.0,105.0,0
690,4.0,-219.0,102.0,0
691,3.0,-220.0,108.0,0
692,7.0,-222.0,103.0,0
693,6.0,-220.0,101.0,0
694,3.0,-219.0,107.0,0
695,5.0,-222.0,100.0,0
696,5.0,-221.0,104.0,0
697,3.0,-218.0,106.0,0
698,9.0,-226.0,106.0,0
699,10.0,-223.0,104.0,0
700,5.0,-223.0,103.0,0
701,7.0,-221.0,104.0,0
702,8.0,-225.0,99.0,0
703,4.0,-219.0,106.0,0
704,2.0,-218.0,103.0,0
705,3.0,-217.0,105.0,0
706,5.0,-219.0,108.0,0
707,4.0,-220.0,106.0,0
708,6.0,-222.0,106.0,0
709,8.0,-221.0,106.0,0
710,4.0,-218.0,106.0,0
711,2.0,-220.0,106.0,0
712,6.0,-218.0,107.0,0
713,6.0,-222.0,107.0,0
714,7.0,-217.0,104.0,0
715,7.0,-215.0,106.0,0
716,5.0,-217.0,109.0,0
717,5.0,-217.0,104.0,0
718,3.0,-217.0,103.0,0
719,3.0,-219.0,104.0,0
720,6.0,-222.0,107.0,0
721,5.0,-222.0,103.0,0
722,5.0,-221.0,105.0,0
723,3.0,-224.0,102.0,0
724,5.0,-219.0,103.0,0
725,7.0,-220.0,101.0,0
726,5.0,-221.0,104.0,0
727,5.0,-220.0,106.0,0
728,7.0,-222.0,103.0,0
729,4.0,-222.0,104.0,0
730,4.0,-221.0,106.0,0
731,3.0,-217.0,105.0,0
732,4.0,-220.0,104.0,0
733,3.0,-218.0,107.0,0
734,7.0,-218.0,104.0,0
735,5.0,-218.0,104.0,0
736,3.0,-217.0,102.0,0
737,6.0,-219.0,103.0,0
738,6.0,-217.0,104.0,0
739,8.0,-218.0,106.0,0
740,5.0,-218.0,105.0,0
741,7.0,-217.0,107.0,0
742,4.0,-219.0,104.0,0
743,6.0,-222.0,102.0,0
744,8.0,-220.0,108.0,0
745,2.0,-221.0,104.0,0
746,8.0,-220.0,101.0,0
747,4.0,-220.0,102.0,0
748,4.0,-220.0,105.0,0
749,9.0,-220.0,106.0,0
750,6.0,-220.0,101.0,0
751,7.0,-219.0,105.0,0
752,10.0,-222.0,103.0,0
753,3.0,-218.0,105.0,0
754,5.0,-216.0,102.0,0
755,8.0,-221.0,106.0,0
756,-1.0,-220.0,107.0,0
757,4.0,-218.0,104.0,0
758,7.0,-221.0,103.0,0
759,6.0,-219.0,106.0,0
760,3.0,-219.0,101.0,0
761,8.0,-222.0,105.0,0
762,3.0,-219.0,104.0,0
763,7.0,-220.0,103.0,0
764,6.0,-217.0,104.0,0
765,5.0,-223.0,108.0,0
766,5.0,-218.0,99.0,0
767,6.0,-219.0,96.0,0
768,4.0,-220.0,103.0,0
769,8.0,-219.0,104.0,0
770,5.0,-218.0,107.0,0
771,2.0,-219.0,104.0,0
772,4.0,-220.0,102.0,0
773,6.0,-221.0,107.0,0
774,4.0,-220.0,104.0,0
775,3.0,-219.0,106.0,0
776,5.0,-221.0,101.0,0
777,4.0,-218.0,104.0,0
778,7.0,-218.0,101.0,0
779,5.0,-220.0,103.0,0
780,3.0,-217.0,104.0,0
781,4.0,-218.0,105.0,0
782,6.0,-220.0,107.0,0
783,2.0,-219.0,106.0,0
784,5.0,-219.0,105.0,0
785,5.0,-219.0,104.0,0
786,5.0,-219.0,104.0,0
787,5.0,-219.0,104.0,0
788,7.0,-217.0,101.0,0
789,2.0,-225.0,100.0,0
790,7.0,-220.0,105.0,0
791,5.0,-219.0,107.0,0
792,3.0,-218.0,101.0,0
793,5.0,-218.0,102.0,0
794,5.0,-217.0,102.0,0
795,6.0,-216.0,104.0,0
796,9.0,-220.0,105.0,0
797,6.0,-216.0,101.0,0
798,4.0,-217.0,107.0,0
799,7.0,-217.0,105.0,0
800,3.0,-220.0,106.0,0
801,4.0,-219.0,107.0,0
802,5.0,-220.0,104.0,0
803,6.0,-221.0,104.0,0
804,9.0,-222.0,102.0,0
805,7.0,-223.0,103.0,0
806,5.0,-222.0,102.0,0
807,5.0,-222.0,100.0,0
808,4.0,-222.0,102.0,0
809,6.0,-217.0,101.0,0
810,5.0,-218.0,104.0,0
811,6.0,-218.0,98.0,0
812,6.0,-219.0,105.0,0
813,11.0,-221.0,104.0,0
814,5.0,-219.0,99.0,0
815,8.0,-220.0,102.0,0
816,7.0,-220.0,102.0,0
817,8.0,-220.0,104.0,0
818,6.0,-220.0,102.0,0
819,6.0,-220.0,101.0,0
820,9.0,-219.0,106.0,0
821,8.0,-219.0,101.0,0
822,1.0,-215.0,100.0,0
823,5.0,-219.0,105.0,0
824,6.0,-219.0,105.0,0
825,3.0,-216.0,100.0,0
826,4.0,-221.0,101.0,0
827,4.0,-217.0,104.0,0
828,5.0,-221.0,101.0,0
829,7.0,-221.0,102.0,0
830,4.0,-220.0,98.0,0
831,6.0,-223.0,99.0,0
832,1.0,-218.0,110.0,0
833,5.0,-221.0,104.0,0
834,8.0,-222.0,101.0,0
835,6.0,-222.0,99.0,0
836,3.0,-223.0,100.0,0
837,4.0,-222.0,102.0,0
838,6.0,-220.0,103.0,0
839,8.0,-221.0,103.0,0
840,4.0,-219.0,100.0,0
841,5.0,-221.0,100.0,0
842,3.0,-217.0,102.0,0
843,7.0,-219.0,105.0,0
844,7.0,-221.0,102.0,0
845,3.0,-217.0,101.0,0
846,4.0,-218.0,103.0,0
847,5.0,-220.0,101.0,0
848,7.0,-222.0,99.0,0
849,5.0,-218.0,101.0,0
850,3.0,-217.0,104.0,0
851,5.0,-220.0,107.0,0
852,7.0,-220.0,99.0,0
853,6.0,-218.0,103.0,0
854,6.0,-223.0,108.0,0
855,8.0,-219.0,103.0,0
856,5.0,-221.0,101.0,0
857,7.0,-220.0,101.0,0
858,7.0,-220.0,103.0,0
859,3.0,-221.0,102.0,0
860,9.0,-220.0,99.0,0
861,8.0,-225.0,103.0,0
862,5.0,-220.0,103.0,0
863,4.0,-222.0,99.0,0
864,4.0,-223.0,100.0,0
865,4.0,-220.0,100.0,0
866,3.0,-223.0,98.0,0
867,4.0,-219.0,98.0,0
868,6.0,-222.0,101.0,0
869,6.0,-220.0,96.0,0
870,6.0,-223.0,95.0,0
871,6.0,-223.0,93.0,0
872,9.0,-226.0,100.0,0
873,5.0,-223.0,99.0,0
874,5.0,-222.0,96.0,0
875,5.0,-222.0,94.0,0
876,5.0,-224.0,102.0,0
877,8.0,-226.0,96.0,0
878,6.0,-220.0,100.0,0
879,3.0,-222.0,98.0,0
880,10.0,-222.0,99.0,0
881,7.0,-227.0,99.0,0
882,4.0,-225.0,96.0,0
883,7.0,-223.0,97.0,0
884,9.0,-222.0,99.0,0
885,8.0,-219.0,96.0,0
886,6.0,-224.0,91.0,0
887,0.0,-222.0,96.0,0
888,6.0,-223.0,93.0,0
889,5.0,-220.0,89.0,0
890,3.0,-224.0,94.0,0
891,5.0,-225.0,94.0,0
892,2.0,-223.0,90.0,0
893,5.0,-221.0,93.0,0
894,2.0,-222.0,95.0,0
895,3.0,-223.0,94.0,0
896,8.0,-220.0,93.0,0
897,6.0,-218.0,93.0,0
898,9.0,-225.0,102.0,0
899,10.0,-226.0,97.0,0
900,8.0,-222.0,99.0,0
901,9.0,-223.0,96.0,0
902,11.0,-222.0,97.0,0
903,10.0,-226.0,96.0,0
904,9.0,-225.0,94.0,0
905,7.0,-226.0,97.0,0
906,9.0,-225.0,97.0,0
907,9.0,-222.0,93.0,0
908,5.0,-226.0,90.0,0
909,4.0,-226.0,93.0,0
910,4.0,-222.0,93.0,0
911,6.0,-225.0,92.0,0
912,5.0,-223.0,88.0,0
913,0.0,-223.0,88.0,0
914,2.0,-225.0,88.0,0
915,3.0,-223.0,86.0,0
916,1.0,-223.0,86.0,0
917,2.0,-220.0,82.0,0
918,2.0,-221.0,86.0,0
919,3.0,-225.0,86.0,0
920,1.0,-225.0,89.0,0
921,2.0,-222.0,82.0,0
922,2.0,-225.0,86.0,0
923,4.0,-226.0,85.0,0
924,2.0,-225.0,88.0,0
925,7.0,-228.0,84.0,0
926,7.0,-226.0,83.0,0
927,8.0,-229.0,82.0,0
928,6.0,-228.0,78.0,0
929,10.0,-230.0,85.0,0
930,5.0,-227.0,78.0,0
931,6.0,-229.0,81.0,0
932,4.0,-227.0,79.0,0
933,7.0,-230.0,78.0,0
934,3.0,-229.0,78.0,0
935,4.0,-227.0,79.0,0
936,2.0,-229.0,78.0,0
937,7.0,-229.0,80.0,0
938,1.0,-229.0,82.0,0
939,0.0,-225.0,75.0,0
940,3.0,-225.0,80.0,0
941,6.0,-226.0,86.0,0
942,2.0,-227.0,76.0,0
943,1.0,-223.0,80.0,0
944,3.0,-226.0,82.0,0
945,2.0,-228.0,79.0,0
946,5.0,-226.0,78.0,0
947,2.0,-224.0,77.0,0
948,2.0,-225.0,78.0,0
949,7.0,-228.0,79.0,0
950,2.0,-228.0,75.0,0
951,9.0,-229.0,77.0,0
952,-1.0,-228.0,76.0,0
953,4.0,-227.0,81.0,0
954,7.0,-232.0,81.0,0
955,3.0,-228.0,80.0,0
956,5.0,-230.0,78.0,0
957,6.0,-231.0,79.0,0
958,7.0,-229.0,77.0,0
959,2.0,-229.0,79.0,0
960,3.0,-228.0,82.0,0
961,5.0,-229.0,74.0,0
962,-1.0,-232.0,75.0,0
963,4.0,-230.0,84.0,0
964,1.0,-229.0,77.0,0
965,3.0,-229.0,76.0,0
966,2.0,-230.0,80.0,0
967,1.0,-227.0,77.0,0
968,2.0,-228.0,74.0,0
969,3.0,-226.0,75.0,0
970,4.0,-225.0,73.0,0
971,4.0,-228.0,71.0,0
972,4.0,-224.0,79.0,0
973,8.0,-225.0,73.0,0
974,6.0,-226.0,71.0,0
975,6.0,-223.0,73.0,0
976,6.0,-225.0,75.0,0
977,4.0,-224.0,74.0,0
978,8.0,-226.0,73.0,0
979,2.0,-224.0,75.0,0
980,7.0,-227.0,72.0,0
981,3.0,-225.0,73.0,0
982,5.0,-225.0,76.0,0
983,3.0,-227.0,73.0,0
984,3.0,-223.0,72.0,0
985,7.0,-227.0,81.0,0
986,3.0,-224.0,76.0,0
987,0.0,-224.0,75.0,0
988,4.0,-221.0,75.0,0
989,3.0,-224.0,76.0,0
990,4.0,-225.0,78.0,0
991,1.0,-221.0,74.0,0
992,1.0,-222.0,76.0,0
993,4.0,-220.0,73.0,0
994,2.0,-217.0,72.0,0
995,3.0,-221.0,74.0,0
996,6.0,-223.0,75.0,0
997,5.0,-221.0,73.0,0
998,6.0,-218.0,70.0,0
999,4.0,-216.0,73.0,0
1000,3.0,-218.0,73.0,0
1001,0.0,-212.0,66.0,0
1002,3.0,-215.0,71.0,0
1003,5.0,-211.0,74.0,0
1004,2.0,-211.0,70.0,0
1005,3.0,-209.0,74.0,0
1006,1.0,-209.0,73.0,0
1007,-2.0,-209.0,69.0,0
1008,2.0,-209.0,70.0,0
1009,0.0,-208.0,74.0,0
1010,2.0,-210.0,72.0,0
1011,0.0,-210.0,70.0,0
1012,0.0,-211.0,66.0,0
1013,1.0,-210.0,65.0,0
1014,1.0,-212.0,60.0,0
1015,-1.0,-205.0,53.0,0
1016,1.0,-203.0,51.0,0
1017,1.0,-208.0,49.0,0
1018,-1.0,-204.0,54.0,0
1019,1.0,-204.0,45.0,0
1020,-1.0,-205.0,41.0,0
1021,-2.0,-208.0,50.0,0
1022,-3.0,-207.0,48.0,0
1023,-3.0,-210.0,49.0,0
1024,-1.0,-211.0,46.0,0
1025,-2.0,-208.0,45.0,0
1026,-3.0,-208.0,39.0,0
1027,-3.0,-208.0,36.0,0
1028,-4.0,-207.0,31.0,0
1029,-6.0,-201.0,27.0,0
1030,-4.0,-200.0,24.0,0
1031,-5.0,-194.0,23.0,0
1032,-4.0,-199.0,23.0,0
1033,-4.0,-194.0,19.0,0
1034,-7.0,-193.0,20.0,0
1035,-4.0,-191.0,17.0,0
1036,-4.0,-191.0,12.0,0
1037,-2.0,-188.0,13.0,0
1038,1.0,-191.0,17.0,0
1039,-1.0,-191.0,21.0,0
1040,0.0,-189.0,12.0,0
1041,-2.0,-185.0,13.0,0
1042,0.0,-179.0,12.0,0
1043,-4.0,-183.0,5.0,0
1044,-3.0,-181.0,12.0,0
1045,-4.0,-175.0,7.0,0
1046,-4.0,-174.0,7.0,0
1047,-5.0,-173.0,5.0,0
1048,-4.0,-169.0,6.0,0
1049,-4.0,-172.0,2.0,0
1050,-5.0,-168.0,6.0,0
1051,-5.0,-168.0,-2.0,0
1052,-8.0,-166.0,-1.0,0
1053,-9.0,-167.0,-2.0,0
1054,-12.0,-160.0,-7.0,0
1055,-14.0,-159.0,-5.0,0
1056,-21.0,-155.0,-11.0,0
1057,-20.0,-149.0,-15.0,0
1058,-20.0,-147.0,-14.0,0
1059,-12.0,-146.0,-14.0,0
1060,-18.0,-152.0,-22.0,0
1061,-16.0,-149.0,-17.0,0
1062,-14.0,-149.0,-18.0,0
1063,-13.0,-156.0,-20.0,0
1064,-12.0,-161.0,-23.0,0
1065,-13.0,-169.0,-20.0,0
1066,-15.0,-168.0,-25.0,0
1067,-25.0,-167.0,-28.0,0
1068,-26.0,-179.0,-27.0,0
1069,-27.0,-179.0,-27.0,0
1070,-23.0,-179.0,-28.0,0
1071,-29.0,-182.0,-33.0,0
1072,-30.0,-189.0,-21.0,0
1073,-34.0,-194.0,-19.0,0
1074,-34.0,-201.0,-9.0,0
1075,-33.0,-204.0,-9.0,0
1076,-32.0,-211.0,1.0,0
1077,-28.0,-213.0,10.0,0
1078,-24.0,-214.0,18.0,0
1079,-32.0,-211.0,23.0,0
1080,-34.0,-206.0,24.0,0
1081,-29.0,-196.0,21.0,0
1082,-20.0,-191.0,9.0,0
1083,-13.0,-186.0,-1.0,0
1084,-3.0,-178.0,-11.0,0
1085,2.0,-173.0,-23.0,0
1086,12.0,-181.0,-29.0,0
1087,23.0,-195.0,-38.0,0
1088,39.0,-213.0,-34.0,0
1089,55.0,-240.0,-42.0,0
1090,64.0,-256.0,-48.0,0
1091,59.0,-272.0,-62.0,0
1092,53.0,-281.0,-79.0,0
1093,46.0,-285.0,-107.0,0
1094,35.0,-282.0,-131.0,0
1095,18.0,-274.0,-155.0,0
1096,-3.0,-267.0,-183.0,0
1097,-19.0,-259.0,-194.0,0
1098,-39.0,-257.0,-201.0,0
1099,-44.0,-258.0,-224.0,0
1100,-54.0,-261.0,-232.0,0
1101,-49.0,-260.0,-254.0,0
1102,-48.0,-263.0,-271.0,0
1103,-27.0,-274.0,-298.0,1
1104,-7.0,-276.0,-328.0,1
1105,18.0,-285.0,-357.0,1
1106,34.0,-295.0,-379.0,1
1107,64.0,-303.0,-414.0,1
1108,83.0,-317.0,-450.0,1
1109,98.0,-329.0,-484.0,1
1110,118.0,-347.0,-507.0,1
1111,121.0,-363.0,-527.0,1
1112,116.0,-389.0,-549.0,1
1113,80.0,-411.0,-550.0,1
1114,42.0,-436.0,-531.0,1
1115,-3.0,-447.0,-498.0,1
1116,-34.0,-451.0,-469.0,1
1117,-80.0,-455.0,-423.0,1
1118,-108.0,-443.0,-376.0,1
1119,-127.0,-420.0,-324.0,1
1120,-154.0,-399.0,-287.0,1
1121,-162.0,-374.0,-251.0,1
1122,-171.0,-341.0,-211.0,1
1123,-186.0,-313.0,-181.0,1
1124,-196.0,-288.0,-158.0,1
1125,-190.0,-260.0,-151.0,1
1126,-169.0,-244.0,-131.0,1
1127,-132.0,-216.0,-111.0,1
1128,-102.0,-202.0,-86.0,1
1129,-72.0,-190.0,-67.0,1
1130,-47.0,-180.0,-54.0,1
1131,-16.0,-169.0,-40.0,1
1132,5.0,-162.0,-20.0,1
1133,37.0,-161.0,-9.0,1
1134,57.0,-167.0,4.0,1
1135,75.0,-169.0,19.0,1
1136,84.0,-156.0,18.0,1
1137,82.0,-135.0,29.0,1
1138,72.0,-118.0,34.0,1
1139,63.0,-109.0,39.0,1
1140,43.0,-85.0,41.0,1
1141,25.0,-68.0,39.0,1
1142,12.0,-55.0,42.0,1
1143,-4.0,-46.0,41.0,1
1144,-14.0,-41.0,39.0,1
1145,-21.0,-29.0,36.0,1
1146,-45.0,-28.0,43.0,1
1147,-46.0,-26.0,36.0,1
1148,-51.0,-26.0,40.0,1
1149,-58.0,-30.0,39.0,1
1150,-62.0,-32.0,46.0,1
1151,-53.0,-49.0,36.0,1
1152,-51.0,-67.0,44.0,1
1153,-50.0,-89.0,51.0,1
1154,-36.0,-89.0,45.0,2
1155,-31.0,-83.0,30.0,2
1156,-37.0,-70.0,38.0,2
1157,-50.0,-54.0,53.0,2
1158,-57.0,-48.0,60.0,2
1159,-60.0,-34.0,61.0,2
1160,-68.0,-33.0,67.0,2
1161,-77.0,-33.0,52.0,2
1162,-79.0,-22.0,41.0,2
1163,-91.0,-14.0,26.0,2
1164,-111.0,7.0,28.0,2
1165,-137.0,48.0,14.0,2
1166,-182.0,123.0,33.0,2
1167,-190.0,159.0,4.0,2
1168,-204.0,233.0,-45.0,2
1169,-360.0,358.0,-24.0,2
1170,-397.0,414.0,-366.0,2
1171,-443.0,249.0,-178.0,2
1172,-1096.0,846.0,-512.0,2
1173,-41.0,448.0,-306.0,2
1174,-197.0,722.0,-423.0,2
1175,-1308.0,1185.0,-1001.0,2
1176,-58.0,1042.0,-227.0,2
1177,692.0,956.0,-172.0,2
1178,-474.0,130.0,-456.0,2
1179,-625.0,-233.0,-577.0,2
1180,-829.0,133.0,-1053.0,2
1181,-658.0,328.0,-950.0,2
1182,-638.0,326.0,-1016.0,2
1183,-766.0,253.0,-1069.0,2
1184,-510.0,248.0,-993.0,2
1185,-324.0,136.0,-791.0,2
1186,-246.0,80.0,-716.0,2
1187,-190.0,70.0,-503.0,2
1188,-143.0,-51.0,-403.0,2
1189,-202.0,-92.0,-333.0,2
1190,-156.0,-84.0,-265.0,2
1191,-60.0,-84.0,-226.0,1
1192,8.0,-38.0,-211.0,1
1193,70.0,48.0,-218.0,1
1194,23.0,97.0,-170.0,1
1195,-46.0,120.0,-94.0,1
1196,-125.0,136.0,-33.0,1
1197,-174.0,85.0,1.0,1
1198,-217.0,70.0,-22.0,1
1199,-271.0,101.0,-109.0,1
1200,-267.0,132.0,-155.0,1
1201,-228.0,128.0,-138.0,1
1202,-200.0,128.0,-113.0,1
1203,-202.0,152.0,-122.0,1
1204,-185.0,153.0,-134.0,1
1205,-163.0,128.0,-122.0,1
1206,-96.0,121.0,-125.0,1
1207,-150.0,138.0,-185.0,1
1208,-146.0,165.0,-212.0,1
1209,-114.0,149.0,-203.0,1
1210,-94.0,152.0,-198.0,1
1211,-63.0,121.0,-189.0,1
1212,-67.0,105.0,-172.0,1
1213,-37.0,97.0,-165.0,1
1214,-11.0,86.0,-162.0,1
1215,7.0,70.0,-170.0,1
1216,-58.0,94.0,-180.0,1
1217,-77.0,116.0,-162.0,1
1218,-84.0,143.0,-158.0,1
1219,-105.0,180.0,-189.0,1
1220,-75.0,231.0,-205.0,1
1221,-80.0,112.0,-179.0,1
1222,-115.0,39.0,-201.0,1
1223,-114.0,40.0,-209.0,1
1224,-113.0,65.0,-205.0,1
1225,-107.0,67.0,-198.0,1
1226,-121.0,70.0,-209.0,1
1227,-149.0,69.0,-237.0,0
1228,-164.0,83.0,-236.0,0
1229,-95.0,100.0,-232.0,0
1230,-106.0,90.0,-237.0,0
1231,-93.0,77.0,-262.0,0
1232,-136.0,75.0,-270.0,0
1233,-151.0,65.0,-277.0,0
1234,-133.0,61.0,-296.0,0
1235,-117.0,64.0,-284.0,0
1236,-128.0,69.0,-273.0,0
1237,-132.0,62.0,-272.0,0
1238,-140.0,63.0,-284.0,0
1239,-142.0,61.0,-278.0,0
1240,-137.0,58.0,-276.0,0
1241,-122.0,60.0,-266.0,0
1242,-120.0,58.0,-259.0,0
1243,-114.0,52.0,-259.0,0
1244,-116.0,52.0,-257.0,0
1245,-113.0,46.0,-246.0,0
1246,-116.0,43.0,-239.0,0
1247,-116.0,40.0,-232.0,0
1248,-114.0,43.0,-227.0,0
1249,-114.0,37.0,-226.0,0
1250,-112.0,34.0,-228.0,0
1251,-113.0,38.0,-229.0,0
1252,-112.0,35.0,-228.0,0
1253,-112.0,34.0,-224.0,0
1254,-109.0,34.0,-222.0,0
1255,-108.0,30.0,-213.0,0
1256,-110.0,30.0,-214.0,0
1257,-100.0,23.0,-208.0,0
1258,-96.0,29.0,-205.0,0
1259,-88.0,29.0,-208.0,0
1260,-91.0,27.0,-218.0,0
1261,-101.0,22.0,-225.0,0
1262,-97.0,23.0,-225.0,0
1263,-93.0,22.0,-222.0,0
1264,-99.0,24.0,-221.0,0
1265,-94.0,23.0,-226.0,0
1266,-94.0,22.0,-225.0,0
1267,-97.0,21.0,-230.0,0
1268,-96.0,26.0,-233.0,0
1269,-95.0,27.0,-234.0,0
1270,-104.0,29.0,-236.0,0
1271,-96.0,26.0,-229.0,0
1272,-104.0,18.0,-237.0,0
1273,-98.0,27.0,-234.0,0
1274,-97.0,28.0,-235.0,0
1275,-97.0,24.0,-242.0,0
1276,-103.0,19.0,-240.0,0
1277,-90.0,18.0,-245.0,0
1278,-92.0,20.0,-250.0,0
1279,-93.0,14.0,-251.0,0
1280,-96.0,12.0,-251.0,0
1281,-100.0,17.0,-250.0,0
1282,-98.0,15.0,-254.0,0
1283,-102.0,23.0,-253.0,0
1284,-99.0,21.0,-252.0,0
1285,-95.0,19.0,-247.0,0
1286,-98.0,23.0,-249.0,0
1287,-98.0,28.0,-246.0,0
1288,-96.0,24.0,-250.0,0
1289,-99.0,25.0,-250.0,0
1290,-100.0,25.0,-249.0,0
1291,-102.0,27.0,-248.0,0
1292,-102.0,27.0,-247.0,0
1293,-103.0,24.0,-249.0,0
1294,-102.0,29.0,-241.0,0
1295,-99.0,29.0,-241.0,0
1296,-100.0,28.0,-241.0,0
1297,-101.0,29.0,-239.0,0
1298,-96.0,24.0,-237.0,0
1299,-99.0,28.0,-241.0,0
1300,-97.0,28.0,-243.0,0
1301,-94.0,31.0,-239.0,0
1302,-94.0,28.0,-235.0,0
1303,-95.0,28.0,-236.0,0
1304,-96.0,30.0,-239.0,0
1305,-98.0,23.0,-236.0,0
1306,-94.0,31.0,-236.0,0
1307,-91.0,31.0,-235.0,0
1308,-92.0,35.0,-235.0,0
1309,-93.0,34.0,-236.0,0
1310,-96.0,34.0,-233.0,0
1311,-94.0,32.0,-235.0,0
1312,-94.0,35.0,-239.0,0
1313,-91.0,33.0,-233.0,0
1314,-93.0,31.0,-237.0,0
1315,-93.0,37.0,-235.0,0
1316,-96.0,37.0,-238.0,0
1317,-95.0,36.0,-237.0,0
1318,-95.0,39.0,-239.0,0
1319,-93.0,35.0,-239.0,0
1320,-93.0,37.0,-237.0,0
1321,-93.0,33.0,-235.0,0
1322,-95.0,35.0,-235.0,0
1323,-89.0,37.0,-234.0,0
1324,-89.0,39.0,-238.0,0
1325,-92.0,40.0,-238.0,0
1326,-93.0,42.0,-243.0,0
1327,-94.0,39.0,-236.0,0
1328,-91.0,33.0,-234.0,0
1329,-91.0,38.0,-238.0,0
1330,-91.0,35.0,-242.0,0
1331,-91.0,37.0,-237.0,0
1332,-92.0,35.0,-241.0,0
1333,-91.0,33.0,-239.0,0
1334,-95.0,38.0,-238.0,0
1335,-93.0,34.0,-239.0,0
1336,-92.0,33.0,-236.0,0
1337,-92.0,36.0,-227.0,0
1338,-92.0,36.0,-236.0,0
1339,-92.0,33.0,-242.0,0
1340,-94.0,34.0,-242.0,0
1341,-93.0,35.0,-236.0,0
1342,-94.0,33.0,-238.0,0
1343,-95.0,34.0,-237.0,0
1344,-94.0,29.0,-243.0,0
1345,-94.0,32.0,-238.0,0
1346,-93.0,31.0,-244.0,0
1347,-96.0,33.0,-240.0,0
1348,-88.0,27.0,-246.0,0
1349,-92.0,35.0,-242.0,0
1350,-92.0,34.0,-239.0,0
1351,-96.0,33.0,-241.0,0
1352,-94.0,33.0,-238.0,0
1353,-94.0,31.0,-239.0,0
1354,-94.0,35.0,-240.0,0
1355,-93.0,33.0,-243.0,0
1356,-90.0,30.0,-242.0,0
1357,-91.0,31.0,-234.0,0
1358,-89.0,32.0,-240.0,0
1359,-89.0,40.0,-239.0,0
1360,-92.0,33.0,-240.0,0
1361,-92.0,36.0,-242.0,0
1362,-90.0,32.0,-237.0,0
1363,-90.0,34.0,-241.0,0
1364,-94.0,35.0,-242.0,0
1365,-91.0,31.0,-241.0,0
1366,-96.0,33.0,-242.0,0
1367,-92.0,32.0,-241.0,0
1368,-96.0,35.0,-244.0,0
1369,-93.0,31.0,-244.0,0
1370,-97.0,30.0,-243.0,0
1371,-90.0,36.0,-244.0,0
1372,-93.0,32.0,-240.0,0
1373,-95.0,36.0,-236.0,0
1374,-90.0,35.0,-238.0,0
1375,-90.0,30.0,-239.0,0
1376,-92.0,33.0,-237.0,0
1377,-93.0,36.0,-239.0,0
1378,-92.0,31.0,-233.0,0
1379,-93.0,38.0,-239.0,0
1380,-90.0,34.0,-237.0,0
1381,-92.0,35.0,-241.0,0
1382,-93.0,32.0,-243.0,0
1383,-93.0,37.0,-240.0,0
1384,-91.0,35.0,-240.0,0
1385,-92.0,35.0,-242.0,0
1386,-93.0,38.0,-241.0,0
1387,-92.0,31.0,-239.0,0
1388,-92.0,32.0,-241.0,0
1389,-90.0,35.0,-241.0,0
1390,-92.0,35.0,-238.0,0
1391,-88.0,36.0,-239.0,0
1392,-85.0,33.0,-233.0,0
1393,-91.0,33.0,-238.0,0
1394,-90.0,35.0,-240.0,0
1395,-91.0,35.0,-238.0,0
1396,-89.0,32.0,-238.0,0
1397,-89.0,36.0,-240.0,0
1398,-89.0,36.0,-241.0,0
1399,-92.0,35.0,-242.0,0
1400,-89.0,32.0,-238.0,0
1401,-92.0,35.0,-247.0,0
1402,-86.0,34.0,-241.0,0
1403,-92.0,27.0,-244.0,0
1404,-93.0,36.0,-241.0,0
1405,-91.0,33.0,-240.0,0
1406,-87.0,38.0,-239.0,0
1407,-89.0,34.0,-240.0,0
1408,-90.0,38.0,-241.0,0
1409,-90.0,36.0,-239.0,0
1410,-87.0,33.0,-236.0,0
1411,-83.0,35.0,-235.0,0
1412,-87.0,38.0,-242.0,0
1413,-90.0,33.0,-234.0,0
1414,-90.0,34.0,-243.0,0
1415,-88.0,37.0,-239.0,0
1416,-89.0,36.0,-238.0,0
1417,-89.0,35.0,-240.0,0
1418,-87.0,34.0,-241.0,0
1419,-88.0,36.0,-241.0,0
1420,-91.0,37.0,-240.0,0
1421,-89.0,33.0,-244.0,0
1422,-87.0,33.0,-241.0,0
1423,-89.0,33.0,-241.0,0
1424,-90.0,33.0,-245.0,0
1425,-89.0,34.0,-238.0,0
1426,-89.0,35.0,-239.0,0
1427,-89.0,35.0,-241.0,0
1428,-89.0,36.0,-239.0,0
1429,-89.0,38.0,-238.0,0
1430,-95.0,38.0,-241.0,0
1431,-90.0,37.0,-243.0,0
1432,-89.0,36.0,-241.0,0
1433,-91.0,34.0,-236.0,0
1434,-87.0,37.0,-242.0,0
1435,-86.0,38.0,-240.0,0
1436,-89.0,32.0,-239.0,0
1437,-90.0,35.0,-240.0,0
1438,-88.0,38.0,-240.0,0
1439,-92.0,34.0,-241.0,0
1440,-90.0,36.0,-244.0,0
1441,-91.0,36.0,-240.0,0
1442,-87.0,35.0,-239.0,0
1443,-91.0,35.0,-241.0,0
1444,-91.0,35.0,-236.0,0
1445,-90.0,34.0,-241.0,0
1446,-87.0,34.0,-249.0,0
1447,-90.0,36.0,-241.0,0
1448,-89.0,36.0,-240.0,0
1449,-89.0,37.0,-240.0,0
1450,-88.0,33.0,-239.0,0
1451,-90.0,35.0,-241.0,0
1452,-89.0,35.0,-240.0,0
1453,-89.0,34.0,-240.0,0
1454,-91.0,33.0,-242.0,0
1455,-91.0,33.0,-240.0,0
1456,-91.0,38.0,-239.0,0
1457,-90.0,40.0,-246.0,0
1458,-90.0,35.0,-239.0,0
1459,-89.0,35.0,-239.0,0
1460,-90.0,34.0,-238.0,0
1461,-89.0,39.0,-244.0,0
1462,-87.0,36.0,-239.0,0
1463,-90.0,40.0,-240.0,0
1464,-90.0,31.0,-239.0,0
1465,-93.0,36.0,-243.0,0
1466,-88.0,34.0,-239.0,0
1467,-88.0,34.0,-240.0,0
1468,-92.0,35.0,-243.0,0
1469,-88.0,34.0,-240.0,0
1470,-92.0,39.0,-240.0,0
1471,-88.0,34.0,-242.0,0
1472,-90.0,35.0,-241.0,0
1473,-88.0,34.0,-240.0,0
1474,-90.0,37.0,-240.0,0
1475,-90.0,37.0,-247.0,0
1476,-91.0,36.0,-243.0,0
1477,-86.0,33.0,-241.0,0
1478,-88.0,36.0,-242.0,0
1479,-91.0,30.0,-239.0,0
1480,-88.0,35.0,-243.0,0
1481,-86.0,35.0,-243.0,0
1482,-89.0,37.0,-239.0,0
1483,-88.0,35.0,-242.0,0
1484,-91.0,38.0,-240.0,0
1485,-89.0,36.0,-242.0,0
1486,-91.0,38.0,-241.0,0
1487,-87.0,37.0,-241.0,0
1488,-90.0,33.0,-242.0,0
1489,-84.0,40.0,-244.0,0
1490,-89.0,32.0,-243.0,0
1491,-91.0,34.0,-240.0,0
1492,-90.0,34.0,-242.0,0
1493,-89.0,34.0,-238.0,0
1494,-91.0,35.0,-238.0,0
1495,-88.0,37.0,-241.0,0
1496,-89.0,34.0,-240.0,0
1497,-86.0,36.0,-245.0,0
1498,-90.0,32.0,-240.0,0
1499,-92.0,37.0,-241.0,0
1500,-93.0,36.0,-240.0,0
1501,-88.0,47.0,-243.0,0
1502,-88.0,34.0,-238.0,0
1503,-87.0,35.0,-238.0,0
1504,-90.0,35.0,-239.0,0
1505,-89.0,36.0,-240.0,0
1506,-91.0,35.0,-240.0,0
1507,-88.0,35.0,-241.0,0
1508,-89.0,34.0,-242.0,0
1509,-91.0,37.0,-243.0,0
1510,-94.0,38.0,-240.0,0
1511,-88.0,33.0,-241.0,0
1512,-92.0,37.0,-236.0,0
1513,-91.0,35.0,-241.0,0
1514,-91.0,37.0,-240.0,0
1515,-90.0,35.0,-240.0,0
1516,-91.0,36.0,-243.0,0
1517,-89.0,37.0,-243.0,0
1518,-92.0,38.0,-244.0,0
1519,-89.0,35.0,-240.0,0
1520,-90.0,34.0,-240.0,0
1521,-87.0,37.0,-243.0,0
1522,-88.0,37.0,-242.0,0
1523,-88.0,35.0,-238.0,0
1524,-89.0,38.0,-239.0,0
1525,-89.0,33.0,-242.0,0
1526,-88.0,38.0,-238.0,0
1527,-90.0,35.0,-240.0,0
1528,-89.0,33.0,-241.0,0
1529,-91.0,37.0,-238.0,0
1530,-88.0,38.0,-244.0,0
1531,-91.0,36.0,-240.0,0
1532,-89.0,37.0,-241.0,0
1533,-90.0,27.0,-245.0,0
1534,-89.0,39.0,-236.0,0
1535,-89.0,34.0,-240.0,0
1536,-90.0,36.0,-239.0,0
1537,-87.0,34.0,-239.0,0
1538,-91.0,35.0,-242.0,0
1539,-87.0,35.0,-242.0,0
1540,-86.0,39.0,-241.0,0
1541,-89.0,39.0,-245.0,0
1542,-90.0,35.0,-237.0,0
1543,-88.0,34.0,-241.0,0
1544,-89.0,35.0,-243.0,0
1545,-90.0,35.0,-241.0,0
1546,-93.0,39.0,-242.0,0
1547,-91.0,35.0,-239.0,0
1548,-88.0,36.0,-243.0,0
1549,-87.0,34.0,-241.0,0
1550,-90.0,38.0,-241.0,0
1551,-90.0,35.0,-241.0,0
1552,-89.0,37.0,-237.0,0
1553,-86.0,31.0,-241.0,0
1554,-90.0,36.0,-245.0,0
1555,-92.0,36.0,-246.0,0
1556,-90.0,35.0,-238.0,0
1557,-91.0,34.0,-239.0,0
1558,-89.0,36.0,-240.0,0
1559,-89.0,37.0,-241.0,0
1560,-88.0,35.0,-241.0,0
1561,-91.0,36.0,-240.0,0
1562,-89.0,34.0,-241.0,0
1563,-90.0,33.0,-237.0,0
1564,-91.0,36.0,-246.0,0
1565,-93.0,38.0,-236.0,0
1566,-86.0,33.0,-243.0,0
1567,-91.0,38.0,-235.0,0
1568,-90.0,36.0,-242.0,0
1569,-87.0,33.0,-240.0,0
1570,-91.0,37.0,-240.0,0
1571,-91.0,35.0,-238.0,0
1572,-89.0,35.0,-239.0,0
1573,-89.0,36.0,-245.0,0
1574,-92.0,37.0,-240.0,0
1575,-87.0,36.0,-242.0,0
1576,-93.0,34.0,-235.0,0
1577,-94.0,35.0,-244.0,0
1578,-91.0,35.0,-242.0,0
1579,-90.0,34.0,-239.0,0
1580,-89.0,36.0,-239.0,0
1581,-93.0,36.0,-241.0,0
1582,-92.0,38.0,-239.0,0
1583,-93.0,39.0,-239.0,0
1584,-92.0,39.0,-242.0,0
1585,-90.0,34.0,-235.0,0
1586,-92.0,37.0,-236.0,0
1587,-88.0,37.0,-244.0,0
1588,-93.0,44.0,-237.0,0
1589,-89.0,36.0,-240.0,0
1590,-90.0,38.0,-240.0,0
1591,-92.0,39.0,-241.0,0
1592,-91.0,38.0,-240.0,0
1593,-91.0,38.0,-240.0,0
1594,-91.0,38.0,-239.0,0
1595,-92.0,39.0,-234.0,0
1596,-92.0,37.0,-236.0,0
1597,-93.0,35.0,-242.0,0
1598,-91.0,34.0,-235.0,0
1599,-90.0,37.0,-237.0,0
1600,-94.0,36.0,-237.0,0
1601,-88.0,37.0,-238.0,0
1602,-91.0,38.0,-240.0,0
1603,-90.0,35.0,-238.0,0
1604,-91.0,40.0,-237.0,0
1605,-91.0,37.0,-237.0,0
1606,-92.0,37.0,-238.0,0
1607,-92.0,39.0,-237.0,0
1608,-89.0,38.0,-239.0,0
1609,-91.0,36.0,-233.0,0
1610,-90.0,37.0,-245.0,0
1611,-88.0,40.0,-237.0,0
1612,-89.0,37.0,-239.0,0
1613,-93.0,37.0,-240.0,0
1614,-92.0,36.0,-241.0,0
1615,-89.0,39.0,-238.0,0
1616,-89.0,37.0,-240.0,0
1617,-88.0,36.0,-237.0,0
1618,-91.0,35.0,-240.0,0
1619,-90.0,37.0,-237.0,0
1620,-92.0,31.0,-241.0,0
1621,-91.0,38.0,-240.0,0
1622,-91.0,36.0,-241.0,0
1623,-90.0,38.0,-239.0,0
1624,-91.0,34.0,-239.0,0
1625,-88.0,35.0,-239.0,0
1626,-92.0,35.0,-244.0,0
1627,-91.0,40.0,-241.0,0
1628,-93.0,38.0,-241.0,0
1629,-88.0,34.0,-239.0,0
1630,-91.0,37.0,-240.0,0
1631,-90.0,31.0,-236.0,0
1632,-92.0,39.0,-240.0,0
1633,-90.0,40.0,-240.0,0
1634,-91.0,38.0,-241.0,0
1635,-93.0,37.0,-243.0,0
1636,-91.0,37.0,-241.0,0
1637,-93.0,37.0,-241.0,0
1638,-92.0,35.0,-240.0,0
1639,-93.0,38.0,-239.0,0
1640,-91.0,36.0,-240.0,0
1641,-90.0,39.0,-238.0,0
1642,-95.0,40.0,-244.0,0
1643,-94.0,40.0,-238.0,0
1644,-91.0,36.0,-237.0,0
1645,-91.0,38.0,-237.0,0
1646,-93.0,39.0,-238.0,0
1647,-93.0,38.0,-238.0,0
1648,-92.0,36.0,-235.0,0
1649,-93.0,35.0,-239.0,0
1650,-88.0,37.0,-236.0,0
1651,-91.0,37.0,-239.0,0
1652,-92.0,39.0,-236.0,0
1653,-96.0,37.0,-233.0,0
1654,-94.0,37.0,-238.0,0
1655,-91.0,35.0,-238.0,0
1656,-90.0,36.0,-237.0,0
1657,-90.0,38.0,-240.0,0
1658,-91.0,36.0,-241.0,0
1659,-91.0,36.0,-241.0,0
1660,-87.0,35.0,-235.0,0
1661,-91.0,40.0,-242.0,0
1662,-92.0,34.0,-242.0,0
1663,-90.0,35.0,-239.0,0
1664,-90.0,34.0,-239.0,0
1665,-89.0,35.0,-238.0,0
1666,-89.0,39.0,-241.0,0
1667,-91.0,37.0,-238.0,0
1668,-90.0,35.0,-237.0,0
1669,-91.0,36.0,-239.0,0
1670,-93.0,37.0,-240.0,0
1671,-91.0,37.0,-240.0,0
1672,-93.0,38.0,-237.0,0
1673,-90.0,36.0,-238.0,0
1674,-94.0,39.0,-244.0,0
1675,-89.0,35.0,-230.0,0
1676,-93.0,37.0,-243.0,0
1677,-93.0,38.0,-238.0,0
1678,-91.0,37.0,-238.0,0
1679,-89.0,37.0,-238.0,0
1680,-91.0,40.0,-240.0,0
1681,-87.0,35.0,-240.0,0
1682,-92.0,37.0,-243.0,0
1683,-89.0,37.0,-240.0,0
1684,-89.0,38.0,-237.0,0
1685,-89.0,35.0,-237.0,0
1686,-92.0,36.0,-241.0,0
1687,-91.0,37.0,-238.0,0
1688,-92.0,39.0,-242.0,0
1689,-92.0,39.0,-238.0,0
1690,-93.0,36.0,-241.0,0
1691,-91.0,37.0,-239.0,0
1692,-92.0,40.0,-238.0,0
1693,-91.0,38.0,-241.0,0
1694,-94.0,40.0,-241.0,0
1695,-91.0,37.0,-239.0,0
1696,-88.0,37.0,-243.0,0
1697,-89.0,43.0,-247.0,0
1698,-90.0,35.0,-237.0,0
1699,-93.0,38.0,-238.0,0
1700,-91.0,36.0,-237.0,0
1701,-91.0,38.0,-238.0,0
1702,-91.0,38.0,-238.0,0
1703,-91.0,40.0,-240.0,0
1704,-91.0,37.0,-240.0,0
1705,-93.0,36.0,-240.0,0
1706,-90.0,40.0,-239.0,0
1707,-90.0,33.0,-239.0,0
1708,-98.0,32.0,-240.0,0
1709,-91.0,36.0,-240.0,0
1710,-94.0,37.0,-241.0,0
1711,-90.0,37.0,-242.0,0
1712,-94.0,38.0,-236.0,0
1713,-94.0,38.0,-240.0,0
1714,-93.0,43.0,-237.0,0
1715,-89.0,33.0,-239.0,0
1716,-92.0,40.0,-241.0,0
1717,-90.0,39.0,-237.0,0
1718,-91.0,38.0,-233.0,0
1719,-90.0,37.0,-239.0,0
1720,-94.0,39.0,-241.0,0
1721,-93.0,38.0,-237.0,0
1722,-92.0,37.0,-241.0,0
1723,-93.0,37.0,-239.0,0
1724,-90.0,38.0,-240.0,0
1725,-90.0,40.0,-239.0,0
1726,-93.0,38.0,-237.0,0
1727,-92.0,36.0,-238.0,0
1728,-94.0,39.0,-237.0,0
1729,-89.0,38.0,-239.0,0
1730,-97.0,34.0,-239.0,0
1731,-92.0,36.0,-240.0,0
1732,-93.0,38.0,-238.0,0
1733,-93.0,36.0,-239.0,0
1734,-92.0,35.0,-237.0,0
1735,-92.0,40.0,-237.0,0
1736,-93.0,37.0,-242.0,0
1737,-91.0,41.0,-241.0,0
1738,-89.0,38.0,-235.0,0
1739,-91.0,38.0,-238.0,0
1740,-91.0,40.0,-239.0,0
1741,-92.0,40.0,-241.0,0
1742,-95.0,37.0,-242.0,0
1743,-95.0,39.0,-239.0,0
1744,-96.0,41.0,-237.0,0
1745,-95.0,39.0,-240.0,0
1746,-92.0,39.0,-239.0,0
1747,-91.0,35.0,-240.0,0
1748,-92.0,38.0,-242.0,0
1749,-95.0,38.0,-240.0,0
1750,-93.0,38.0,-239.0,0
1751,-94.0,38.0,-243.0,0
1752,-91.0,36.0,-241.0,0
1753,-93.0,39.0,-241.0,0
1754,-91.0,37.0,-236.0,0
1755,-93.0,40.0,-240.0,0
1756,-93.0,41.0,-241.0,0
1757,-92.0,38.0,-238.0,0
1758,-93.0,36.0,-242.0,0
1759,-93.0,39.0,-241.0,0
1760,-94.0,39.0,-238.0,0
1761,-94.0,41.0,-233.0,0
1762,-97.0,42.0,-243.0,0
1763,-92.0,39.0,-238.0,0
1764,-92.0,39.0,-237.0,0
1765,-92.0,38.0,-239.0,0
1766,-93.0,39.0,-242.0,0
1767,-92.0,37.0,-240.0,0
1768,-87.0,36.0,-239.0,0
1769,-94.0,39.0,-239.0,0
1770,-90.0,41.0,-240.0,0
1771,-93.0,40.0,-241.0,0
1772,-95.0,38.0,-238.0,0
1773,-86.0,38.0,-240.0,0
1774,-92.0,40.0,-239.0,0
1775,-92.0,36.0,-240.0,0
1776,-93.0,40.0,-241.0,0
1777,-94.0,36.0,-241.0,0
1778,-92.0,38.0,-237.0,0
1779,-91.0,37.0,-234.0,0
1780,-91.0,36.0,-236.0,0
1781,-93.0,38.0,-235.0,0
1782,-93.0,39.0,-237.0,0
1783,-82.0,35.0,-233.0,0
1784,-96.0,38.0,-239.0,0
1785,-92.0,38.0,-240.0,0
1786,-94.0,36.0,-240.0,0
1787,-92.0,38.0,-241.0,0
1788,-90.0,39.0,-239.0,0
1789,-94.0,43.0,-242.0,0
1790,-92.0,37.0,-240.0,0
1791,-92.0,39.0,-240.0,0
1792,-92.0,38.0,-235.0,0
1793,-90.0,37.0,-236.0,0
1794,-92.0,40.0,-237.0,0
1795,-98.0,41.0,-236.0,0
1796,-90.0,37.0,-238.0,0
1797,-92.0,39.0,-239.0,0
1798,-90.0,35.0,-238.0,0
1799,-92.0,37.0,-238.0,0
1800,-91.0,40.0,-239.0,0
1801,-90.0,38.0,-236.0,0
1802,-93.0,40.0,-236.0,0
1803,-93.0,39.0,-236.0,0
1804,-93.0,38.0,-238.0,0
1805,-93.0,41.0,-246.0,0
1806,-89.0,36.0,-242.0,0
1807,-93.0,37.0,-239.0,0
1808,-90.0,36.0,-243.0,0
1809,-93.0,39.0,-243.0,0
1810,-91.0,41.0,-241.0,0
1811,-93.0,38.0,-239.0,0
1812,-91.0,37.0,-243.0,0
1813,-94.0,42.0,-237.0,0
1814,-90.0,37.0,-241.0,0
1815,-93.0,38.0,-239.0,0
1816,-93.0,37.0,-239.0,0
1817,-90.0,37.0,-237.0,0
1818,-91.0,38.0,-240.0,0
1819,-92.0,38.0,-238.0,0
1820,-90.0,37.0,-241.0,0
1821,-87.0,34.0,-239.0,0
1822,-44.0,1.0,-237.0,0
1823,-145.0,67.0,-235.0,0
1824,-102.0,45.0,-242.0,0
1825,-85.0,38.0,-242.0,0
1826,-96.0,42.0,-240.0,0
1827,-91.0,39.0,-240.0,0
1828,-92.0,36.0,-240.0,0
1829,-91.0,38.0,-240.0,0
1830,-90.0,37.0,-240.0,0
1831,-87.0,39.0,-241.0,0
1832,-91.0,39.0,-242.0,0
1833,-90.0,40.0,-239.0,0
1834,-88.0,35.0,-235.0,0
1835,-88.0,38.0,-239.0,0
1836,-90.0,36.0,-238.0,0
1837,-91.0,36.0,-239.0,0
1838,-90.0,36.0,-238.0,0
1839,-90.0,39.0,-239.0,0
1840,-91.0,38.0,-236.0,0
1841,-93.0,39.0,-239.0,0
1842,-90.0,38.0,-238.0,0
1843,-91.0,40.0,-236.0,0
1844,-92.0,40.0,-236.0,0
1845,-92.0,40.0,-241.0,0
1846,-90.0,35.0,-240.0,0
1847,-94.0,37.0,-239.0,0
1848,-91.0,38.0,-240.0,0
1849,-93.0,35.0,-236.0,0
1850,-93.0,42.0,-238.0,0
1851,-90.0,37.0,-239.0,0
1852,-88.0,39.0,-237.0,0
1853,-91.0,42.0,-239.0,0
1854,-92.0,41.0,-240.0,0
1855,-92.0,39.0,-240.0,0
1856,-91.0,40.0,-240.0,0
1857,-92.0,39.0,-240.0,0
1858,-92.0,36.0,-237.0,0
1859,-95.0,36.0,-238.0,0
1860,-95.0,49.0,-240.0,0
1861,-93.0,35.0,-238.0,0
1862,-90.0,39.0,-239.0,0
1863,-93.0,40.0,-241.0,0
1864,-91.0,37.0,-236.0,0
1865,-93.0,39.0,-239.0,0
1866,-89.0,36.0,-241.0,0
1867,-87.0,38.0,-238.0,0
1868,-94.0,35.0,-237.0,0
1869,-91.0,36.0,-240.0,0
1870,-92.0,39.0,-238.0,0
1871,-90.0,34.0,-229.0,0
1872,-91.0,37.0,-237.0,0
1873,-92.0,36.0,-235.0,0
1874,-91.0,35.0,-237.0,0
1875,-94.0,38.0,-238.0,0
1876,-90.0,39.0,-240.0,0
1877,-94.0,38.0,-238.0,0
1878,-92.0,40.0,-240.0,0
1879,-94.0,38.0,-240.0,0
1880,-93.0,37.0,-241.0,0
1881,-93.0,38.0,-237.0,0
1882,-92.0,35.0,-241.0,0
1883,-93.0,40.0,-242.0,0
1884,-91.0,38.0,-239.0,0
1885,-91.0,34.0,-237.0,0
1886,-93.0,40.0,-240.0,0
1887,-91.0,37.0,-238.0,0
1888,-92.0,37.0,-239.0,0
1889,-91.0,37.0,-242.0,0
1890,-90.0,37.0,-238.0,0
1891,-92.0,40.0,-241.0,0
1892,-90.0,35.0,-239.0,0
1893,-95.0,39.0,-237.0,0
1894,-92.0,39.0,-239.0,0
1895,-92.0,40.0,-240.0,0
1896,-90.0,34.0,-237.0,0
1897,-92.0,41.0,-238.0,0
1898,-91.0,39.0,-240.0,0
1899,-92.0,41.0,-240.0,0
1900,-91.0,38.0,-242.0,0
1901,-93.0,39.0,-242.0,0
1902,-91.0,39.0,-233.0,0
1903,-93.0,43.0,-240.0,0
1904,-92.0,36.0,-239.0,0
1905,-93.0,37.0,-241.0,0
1906,-93.0,39.0,-237.0,0
1907,-89.0,39.0,-239.0,0
1908,-92.0,40.0,-238.0,0
1909,-93.0,42.0,-239.0,0
1910,-92.0,37.0,-240.0,0
1911,-90.0,39.0,-237.0,0
1912,-92.0,40.0,-240.0,0
1913,-91.0,35.0,-240.0,0
1914,-86.0,41.0,-241.0,0
1915,-89.0,37.0,-240.0,0
1916,-90.0,41.0,-235.0,0
1917,-92.0,38.0,-239.0,0
1918,-90.0,37.0,-241.0,0
1919,-91.0,37.0,-245.0,0
1920,-90.0,40.0,-240.0,0
1921,-91.0,38.0,-241.0,0
1922,-90.0,34.0,-237.0,0
1923,-92.0,36.0,-239.0,0
1924,-91.0,38.0,-244.0,0
1925,-94.0,36.0,-230.0,0
1926,-90.0,40.0,-239.0,0
1927,-89.0,39.0,-238.0,0
1928,-89.0,36.0,-240.0,0
1929,-91.0,40.0,-238.0,0
1930,-91.0,37.0,-238.0,0
1931,-92.0,41.0,-238.0,0
1932,-90.0,36.0,-241.0,0
1933,-86.0,39.0,-240.0,0
1934,-91.0,35.0,-237.0,0
1935,-90.0,37.0,-244.0,0
1936,-88.0,33.0,-239.0,0
1937,-89.0,40.0,-240.0,0
1938,-92.0,39.0,-242.0,0
1939,-90.0,38.0,-242.0,0
1940,-93.0,40.0,-239.0,0
1941,-91.0,39.0,-242.0,0
1942,-88.0,35.0,-242.0,0
1943,-90.0,36.0,-239.0,0
1944,-90.0,36.0,-237.0,0
1945,-91.0,38.0,-239.0,0
1946,-88.0,36.0,-242.0,0
1947,-90.0,40.0,-242.0,0
1948,-90.0,39.0,-235.0,0
1949,-86.0,35.0,-240.0,0
1950,-88.0,37.0,-241.0,0
1951,-92.0,38.0,-238.0,0
1952,-90.0,41.0,-240.0,0
1953,-88.0,35.0,-239.0,0
1954,-89.0,38.0,-242.0,0
1955,-90.0,41.0,-242.0,0
1956,-90.0,37.0,-240.0,0
1957,-85.0,41.0,-242.0,0
1958,-87.0,37.0,-240.0,0
1959,-85.0,37.0,-245.0,0
1960,-86.0,37.0,-239.0,0
1961,-89.0,40.0,-239.0,0
1962,-89.0,36.0,-238.0,0
1963,-88.0,37.0,-239.0,0
1964,-85.0,39.0,-237.0,0
1965,-89.0,36.0,-243.0,0
1966,-89.0,35.0,-242.0,0
1967,-89.0,37.0,-240.0,0
1968,-86.0,36.0,-239.0,0
1969,-86.0,33.0,-243.0,0
1970,-86.0,36.0,-240.0,0
1971,-88.0,40.0,-240.0,0
1972,-90.0,38.0,-235.0,0
1973,-88.0,38.0,-238.0,0
1974,-88.0,35.0,-237.0,0
1975,-87.0,41.0,-237.0,0
1976,-88.0,38.0,-240.0,0
1977,-91.0,39.0,-243.0,0
1978,-87.0,39.0,-241.0,0
1979,-87.0,36.0,-238.0,0
1980,-88.0,33.0,-241.0,0
1981,-87.0,36.0,-237.0,0
1982,-88.0,37.0,-242.0,0
1983,-88.0,39.0,-239.0,0
1984,-89.0,39.0,-240.0,0
1985,-89.0,34.0,-243.0,0
1986,-90.0,34.0,-242.0,0
1987,-85.0,38.0,-243.0,0
1988,-86.0,39.0,-241.0,0
1989,-89.0,37.0,-241.0,0
1990,-88.0,36.0,-233.0,0
1991,-94.0,42.0,-235.0,0
1992,-89.0,38.0,-242.0,0
1993,-88.0,38.0,-240.0,0
1994,-86.0,38.0,-238.0,0
1995,-90.0,36.0,-242.0,0
1996,-87.0,36.0,-242.0,0
1997,-84.0,35.0,-240.0,0
1998,-85.0,37.0,-241.0,0
1999,-90.0,37.0,-237.0,0
2000,-91.0,38.0,-235.0,0
2001,-87.0,38.0,-241.0,0
2002,-85.0,45.0,-243.0,0
2003,-90.0,35.0,-240.0,0
2004,-87.0,37.0,-245.0,0
2005,-89.0,39.0,-242.0,0
2006,-88.0,37.0,-241.0,0
2007,-87.0,38.0,-240.0,0
2008,-86.0,36.0,-244.0,0
2009,-88.0,39.0,-240.0,0
2010,-92.0,37.0,-238.0,0
2011,-83.0,38.0,-242.0,0
2012,-87.0,38.0,-241.0,0
2013,-85.0,35.0,-241.0,0
2014,-86.0,36.0,-238.0,0
2015,-86.0,37.0,-241.0,0
2016,-84.0,37.0,-238.0,0
2017,-87.0,38.0,-239.0,0
2018,-84.0,38.0,-237.0,0
2019,-89.0,38.0,-244.0,0
2020,-92.0,36.0,-241.0,0
2021,-90.0,39.0,-239.0,0
2022,-88.0,38.0,-241.0,0
2023,-90.0,33.0,-244.0,0
2024,-88.0,38.0,-237.0,0
2025,-88.0,38.0,-240.0,0
2026,-89.0,36.0,-242.0,0
2027,-89.0,38.0,-238.0,0
2028,-90.0,36.0,-243.0,0
2029,-87.0,37.0,-241.0,0
2030,-90.0,37.0,-243.0,0
2031,-86.0,35.0,-241.0,0
2032,-86.0,34.0,-241.0,0
2033,-85.0,34.0,-242.0,0
2034,-86.0,35.0,-241.0,0
2035,-84.0,37.0,-242.0,0
2036,-88.0,38.0,-243.0,0
2037,-89.0,37.0,-238.0,0
2038,-86.0,40.0,-244.0,0
2039,-85.0,36.0,-238.0,0
2040,-86.0,38.0,-242.0,0
2041,-89.0,37.0,-240.0,0
2042,-83.0,38.0,-240.0,0
2043,-88.0,34.0,-244.0,0
2044,-89.0,38.0,-244.0,0
2045,-94.0,36.0,-242.0,0
2046,-86.0,34.0,-245.0,0
2047,-86.0,37.0,-241.0,0
2048,-87.0,39.0,-239.0,0
2049,-85.0,37.0,-237.0,0
2050,-87.0,37.0,-239.0,0
2051,-87.0,38.0,-243.0,0
2052,-87.0,34.0,-240.0,0
2053,-89.0,35.0,-240.0,0
2054,-88.0,35.0,-236.0,0
2055,-85.0,38.0,-240.0,0
2056,-91.0,37.0,-243.0,0
2057,-89.0,37.0,-240.0,0
2058,-85.0,37.0,-245.0,0
2059,-87.0,38.0,-240.0,0
2060,-88.0,34.0,-243.0,0
2061,-88.0,34.0,-243.0,0
2062,-88.0,37.0,-241.0,0
2063,-86.0,39.0,-240.0,0
2064,-86.0,37.0,-242.0,0
2065,-84.0,37.0,-239.0,0
2066,-89.0,41.0,-243.0,0
2067,-86.0,40.0,-244.0,0
2068,-88.0,36.0,-241.0,0
2069,-85.0,37.0,-242.0,0
2070,-88.0,39.0,-241.0,0
2071,-90.0,37.0,-242.0,0
2072,-91.0,40.0,-242.0,0
2073,-87.0,36.0,-240.0,0
2074,-87.0,37.0,-241.0,0
2075,-89.0,39.0,-240.0,0
2076,-88.0,39.0,-246.0,0
2077,-86.0,39.0,-237.0,0
2078,-88.0,34.0,-238.0,0
2079,-87.0,36.0,-239.0,0
2080,-88.0,37.0,-241.0,0
2081,-87.0,36.0,-241.0,0
2082,-87.0,35.0,-239.0,0
2083,-87.0,35.0,-240.0,0
2084,-89.0,37.0,-241.0,0
2085,-88.0,33.0,-240.0,0
2086,-87.0,38.0,-245.0,0
2087,-86.0,36.0,-244.0,0
2088,-87.0,34.0,-241.0,0
2089,-89.0,41.0,-240.0,0
2090,-86.0,38.0,-235.0,0
2091,-84.0,35.0,-242.0,0
2092,-89.0,37.0,-237.0,0
2093,-88.0,37.0,-242.0,0
2094,-86.0,35.0,-235.0,0
2095,-85.0,35.0,-244.0,0
2096,-88.0,39.0,-242.0,0
2097,-87.0,36.0,-238.0,0
2098,-86.0,38.0,-243.0,0
2099,-85.0,34.0,-245.0,0
2100,-91.0,43.0,-250.0,0
2101,-86.0,34.0,-242.0,0
2102,-88.0,38.0,-242.0,0
2103,-86.0,35.0,-239.0,0
2104,-89.0,35.0,-238.0,0
2105,-83.0,36.0,-240.0,0
2106,-86.0,35.0,-241.0,0
2107,-88.0,37.0,-245.0,0
2108,-87.0,35.0,-241.0,0
2109,-85.0,38.0,-243.0,0
2110,-87.0,36.0,-246.0,0
2111,-91.0,32.0,-240.0,0
2112,-86.0,34.0,-240.0,0
2113,-89.0,36.0,-238.0,0
2114,-86.0,36.0,-243.0,0
2115,-88.0,36.0,-236.0,0
2116,-88.0,39.0,-239.0,0
2117,-86.0,37.0,-242.0,0
2118,-86.0,37.0,-238.0,0
2119,-88.0,37.0,-244.0,0
2120,-87.0,37.0,-241.0,0
2121,-90.0,32.0,-243.0,0
2122,-87.0,38.0,-236.0,0
2123,-88.0,35.0,-242.0,0
2124,-87.0,38.0,-239.0,0
2125,-89.0,36.0,-242.0,0
2126,-87.0,37.0,-239.0,0
2127,-89.0,39.0,-239.0,0
2128,-87.0,37.0,-241.0,0
2129,-88.0,36.0,-242.0,0
2130,-87.0,37.0,-239.0,0
2131,-87.0,32.0,-242.0,0
2132,-88.0,41.0,-230.0,0
2133,-86.0,37.0,-241.0,0
2134,-88.0,40.0,-239.0,0
2135,-91.0,40.0,-246.0,0
2136,-88.0,38.0,-241.0,0
2137,-90.0,37.0,-239.0,0
2138,-88.0,37.0,-239.0,0
2139,-87.0,39.0,-242.0,0
2140,-89.0,39.0,-242.0,0
2141,-86.0,33.0,-246.0,0
2142,-88.0,36.0,-237.0,0
2143,-85.0,29.0,-245.0,0
2144,-87.0,36.0,-238.0,0
2145,-86.0,37.0,-237.0,0
2146,-90.0,37.0,-242.0,0
2147,-86.0,42.0,-241.0,0
2148,-90.0,38.0,-244.0,0
2149,-87.0,38.0,-242.0,0
2150,-86.0,36.0,-242.0,0
2151,-87.0,38.0,-237.0,0
2152,-88.0,34.0,-240.0,0
2153,-85.0,34.0,-238.0,0
2154,-78.0,41.0,-238.0,0
2155,-87.0,35.0,-238.0,0
2156,-86.0,38.0,-239.0,0
2157,-85.0,38.0,-239.0,0
2158,-88.0,36.0,-245.0,0
2159,-88.0,38.0,-242.0,0
2160,-84.0,38.0,-243.0,0
2161,-85.0,41.0,-243.0,0
2162,-87.0,41.0,-240.0,0
2163,-89.0,39.0,-246.0,0
2164,-87.0,34.0,-239.0,0
2165,-85.0,39.0,-237.0,0
2166,-88.0,39.0,-243.0,0
2167,-87.0,38.0,-239.0,0
2168,-87.0,36.0,-241.0,0
2169,-88.0,39.0,-243.0,0
2170,-87.0,38.0,-242.0,0
2171,-90.0,38.0,-241.0,0
2172,-89.0,41.0,-241.0,0
2173,-85.0,39.0,-245.0,0
2174,-83.0,33.0,-244.0,0
2175,-92.0,37.0,-241.0,0
2176,-91.0,31.0,-238.0,0
2177,-90.0,41.0,-240.0,0
2178,-87.0,38.0,-241.0,0
2179,-89.0,38.0,-240.0,0
2180,-88.0,37.0,-239.0,0
2181,-90.0,37.0,-243.0,0
2182,-88.0,38.0,-238.0,0
2183,-86.0,36.0,-238.0,0
2184,-86.0,35.0,-240.0,0
2185,-88.0,33.0,-240.0,0
2186,-87.0,40.0,-235.0,0
2187,-87.0,32.0,-236.0,0
2188,-88.0,37.0,-240.0,0
2189,-87.0,39.0,-241.0,0
2190,-86.0,35.0,-240.0,0
2191,-88.0,39.0,-247.0,0
2192,-87.0,41.0,-241.0,0
2193,-88.0,38.0,-237.0,0
2194,-87.0,35.0,-241.0,0
2195,-92.0,35.0,-242.0,0
2196,-87.0,38.0,-238.0,0
2197,-86.0,36.0,-238.0,0
2198,-90.0,39.0,-240.0,0
2199,-86.0,38.0,-240.0,0
2200,-89.0,37.0,-240.0,0
2201,-89.0,39.0,-240.0,0
2202,-89.0,35.0,-241.0,0
2203,-89.0,38.0,-239.0,0
2204,-88.0,38.0,-236.0,0
2205,-84.0,39.0,-240.0,0
2206,-88.0,35.0,-236.0,0
2207,-89.0,37.0,-239.0,0
2208,-90.0,37.0,-243.0,0
2209,-82.0,38.0,-245.0,0
2210,-89.0,38.0,-241.0,0
2211,-89.0,35.0,-239.0,0
2212,-88.0,37.0,-239.0,0
2213,-90.0,36.0,-239.0,0
2214,-87.0,35.0,-244.0,0
2215,-86.0,37.0,-241.0,0
2216,-87.0,35.0,-244.0,0
2217,-87.0,39.0,-241.0,0
2218,-90.0,40.0,-238.0,0
2219,-89.0,39.0,-242.0,0
2220,-89.0,39.0,-242.0,0
2221,-87.0,39.0,-240.0,0
2222,-87.0,36.0,-241.0,0
2223,-89.0,37.0,-243.0,0
2224,-86.0,38.0,-240.0,0
2225,-86.0,36.0,-244.0,0
2226,-88.0,34.0,-242.0,0
2227,-87.0,37.0,-236.0,0
2228,-86.0,36.0,-240.0,0
2229,-85.0,35.0,-239.0,0
2230,-89.0,38.0,-241.0,0
2231,-87.0,37.0,-239.0,0
2232,-85.0,36.0,-239.0,0
2233,-89.0,38.0,-236.0,0
2234,-88.0,36.0,-238.0,0
2235,-92.0,36.0,-244.0,0
2236,-88.0,38.0,-245.0,0
2237,-84.0,38.0,-240.0,0
2238,-88.0,37.0,-239.0,0
2239,-88.0,35.0,-239.0,0
2240,-89.0,40.0,-238.0,0
2241,-91.0,43.0,-249.0,0
2242,-85.0,36.0,-242.0,0
2243,-89.0,37.0,-240.0,0
2244,-87.0,39.0,-238.0,0
2245,-87.0,37.0,-241.0,0
2246,-88.0,37.0,-241.0,0
2247,-88.0,38.0,-239.0,0
2248,-88.0,37.0,-237.0,0
2249,-90.0,41.0,-242.0,0
2250,-87.0,36.0,-238.0,0
2251,-87.0,40.0,-243.0,0
2252,-91.0,42.0,-240.0,0
2253,-88.0,39.0,-240.0,0
2254,-87.0,39.0,-240.0,0
2255,-88.0,38.0,-241.0,0
2256,-89.0,39.0,-236.0,0
2257,-87.0,35.0,-242.0,0
2258,-88.0,40.0,-241.0,0
2259,-87.0,38.0,-239.0,0
2260,-86.0,41.0,-238.0,0
2261,-93.0,35.0,-242.0,0
2262,-87.0,35.0,-237.0,0
2263,-83.0,35.0,-234.0,0
2264,-87.0,38.0,-237.0,0
2265,-87.0,38.0,-241.0,0
2266,-87.0,34.0,-239.0,0
2267,-88.0,41.0,-237.0,0
2268,-91.0,38.0,-242.0,0
2269,-91.0,39.0,-240.0,0
2270,-87.0,33.0,-239.0,0
2271,-92.0,36.0,-241.0,0
2272,-93.0,39.0,-241.0,0
2273,-87.0,39.0,-239.0,0
2274,-88.0,30.0,-242.0,0
2275,-85.0,34.0,-241.0,0
2276,-87.0,37.0,-240.0,0
2277,-89.0,39.0,-239.0,0
2278,-90.0,38.0,-239.0,0
2279,-87.0,36.0,-240.0,0
2280,-90.0,38.0,-238.0,0
2281,-86.0,33.0,-237.0,0
2282,-90.0,37.0,-239.0,0
2283,-88.0,40.0,-242.0,0
2284,-87.0,36.0,-240.0,0
2285,-81.0,36.0,-239.0,0
2286,-88.0,36.0,-238.0,0
2287,-85.0,40.0,-238.0,0
2288,-87.0,36.0,-242.0,0
2289,-88.0,37.0,-239.0,0
2290,-88.0,36.0,-239.0,0
2291,-86.0,37.0,-239.0,0
2292,-85.0,36.0,-236.0,0
2293,-85.0,35.0,-236.0,0
2294,-89.0,36.0,-241.0,0
2295,-87.0,36.0,-241.0,0
2296,-87.0,40.0,-239.0,0
2297,-90.0,38.0,-241.0,0
2298,-90.0,37.0,-237.0,0
2299,-90.0,37.0,-240.0,0
2300,-88.0,37.0,-241.0,0
2301,-89.0,40.0,-241.0,0
2302,-89.0,37.0,-244.0,0
2303,-88.0,40.0,-244.0,0
2304,-86.0,36.0,-243.0,0
2305,-90.0,38.0,-240.0,0
2306,-92.0,41.0,-239.0,0
2307,-91.0,38.0,-238.0,0
2308,-89.0,38.0,-237.0,0
2309,-87.0,37.0,-243.0,0
2310,-87.0,37.0,-239.0,0
2311,-90.0,36.0,-240.0,0
2312,-89.0,37.0,-241.0,0
2313,-90.0,35.0,-249.0,0
2314,-91.0,38.0,-238.0,0
2315,-89.0,36.0,-239.0,0
2316,-91.0,37.0,-235.0,0
2317,-89.0,38.0,-237.0,0
2318,-88.0,38.0,-242.0,0
2319,-89.0,38.0,-234.0,0
2320,-88.0,37.0,-238.0,0
2321,-89.0,33.0,-241.0,0
2322,-90.0,38.0,-240.0,0
2323,-89.0,39.0,-240.0,0
2324,-89.0,36.0,-236.0,0
2325,-88.0,36.0,-240.0,0
2326,-87.0,36.0,-241.0,0
2327,-86.0,37.0,-236.0,0
2328,-91.0,34.0,-237.0,0
2329,-89.0,39.0,-242.0,0
2330,-91.0,37.0,-238.0,0
2331,-88.0,36.0,-239.0,0
2332,-88.0,36.0,-236.0,0
2333,-87.0,38.0,-242.0,0
2334,-87.0,37.0,-241.0,0
2335,-88.0,35.0,-242.0,0
2336,-87.0,38.0,-239.0,0
2337,-89.0,36.0,-241.0,0
2338,-87.0,38.0,-244.0,0
2339,-96.0,39.0,-241.0,0
2340,-90.0,38.0,-240.0,0
2341,-88.0,39.0,-240.0,0
2342,-91.0,36.0,-242.0,0
2343,-89.0,39.0,-244.0,0
2344,-88.0,36.0,-238.0,0
2345,-91.0,42.0,-241.0,0
2346,-90.0,39.0,-236.0,0
2347,-92.0,39.0,-241.0,0
2348,-89.0,39.0,-241.0,0
2349,-91.0,36.0,-237.0,0
2350,-95.0,28.0,-240.0,0
2351,-88.0,37.0,-237.0,0
2352,-87.0,39.0,-240.0,0
2353,-88.0,38.0,-238.0,0
2354,-89.0,38.0,-237.0,0
2355,-88.0,38.0,-238.0,0
2356,-89.0,36.0,-245.0,0
2357,-94.0,40.0,-241.0,0
2358,-89.0,39.0,-242.0,0
2359,-91.0,38.0,-237.0,0
2360,-90.0,41.0,-240.0,0
2361,-88.0,34.0,-238.0,0
2362,-88.0,37.0,-240.0,0
2363,-90.0,39.0,-241.0,0
2364,-91.0,41.0,-241.0,0
2365,-90.0,39.0,-239.0,0
2366,-94.0,39.0,-236.0,0
2367,-90.0,38.0,-236.0,0
2368,-92.0,39.0,-240.0,0
2369,-93.0,38.0,-237.0,0
2370,-92.0,40.0,-237.0,0
2371,-91.0,35.0,-243.0,0
2372,-88.0,40.0,-235.0,0
2373,-90.0,39.0,-237.0,0
2374,-90.0,39.0,-239.0,0
2375,-87.0,37.0,-239.0,0
2376,-90.0,38.0,-237.0,0
2377,-90.0,37.0,-239.0,0
2378,-90.0,39.0,-237.0,0
2379,-91.0,39.0,-242.0,0
2380,-88.0,36.0,-242.0,0
2381,-92.0,36.0,-243.0,0
2382,-89.0,39.0,-237.0,0
2383,-91.0,44.0,-242.0,0
2384,-90.0,36.0,-237.0,0
2385,-92.0,39.0,-239.0,0
2386,-91.0,36.0,-240.0,0
2387,-87.0,38.0,-240.0,0
2388,-90.0,41.0,-239.0,0
2389,-91.0,41.0,-239.0,0
2390,-90.0,38.0,-238.0,0
2391,-88.0,38.0,-239.0,0
2392,-93.0,41.0,-242.0,0
2393,-90.0,41.0,-239.0,0
2394,-92.0,40.0,-246.0,0
2395,-89.0,40.0,-241.0,0
2396,-90.0,39.0,-240.0,0
2397,-90.0,41.0,-239.0,0
2398,-91.0,38.0,-241.0,0
2399,-91.0,39.0,-236.0,0
2400,-90.0,39.0,-241.0,0
2401,-91.0,38.0,-239.0,0
2402,-93.0,39.0,-243.0,0
2403,-89.0,38.0,-238.0,0
2404,-92.0,37.0,-243.0,0
2405,-91.0,36.0,-245.0,0
2406,-91.0,38.0,-239.0,0
2407,-90.0,40.0,-240.0,0
2408,-89.0,39.0,-241.0,0
2409,-88.0,37.0,-241.0,0
2410,-90.0,40.0,-238.0,0
2411,-95.0,41.0,-239.0,0
2412,-86.0,35.0,-241.0,0
2413,-90.0,42.0,-241.0,0
2414,-91.0,37.0,-240.0,0
2415,-89.0,37.0,-243.0,0
2416,-93.0,37.0,-244.0,0
2417,-91.0,38.0,-238.0,0
2418,-88.0,40.0,-237.0,0
2419,-95.0,38.0,-240.0,0
2420,-90.0,40.0,-237.0,0
2421,-89.0,40.0,-241.0,0
2422,-92.0,40.0,-238.0,0
2423,-88.0,39.0,-236.0,0
2424,-91.0,44.0,-241.0,0
2425,-89.0,39.0,-239.0,0
2426,-96.0,37.0,-235.0,0
2427,-92.0,42.0,-241.0,0
2428,-91.0,37.0,-238.0,0
2429,-89.0,39.0,-243.0,0
2430,-92.0,40.0,-241.0,0
2431,-90.0,38.0,-240.0,0
2432,-89.0,41.0,-239.0,0
2433,-89.0,40.0,-242.0,0
2434,-94.0,40.0,-240.0,0
2435,-91.0,41.0,-236.0,0
2436,-90.0,37.0,-238.0,0
2437,-87.0,39.0,-244.0,0
2438,-91.0,35.0,-239.0,0
2439,-89.0,39.0,-239.0,0
2440,-94.0,40.0,-239.0,0
2441,-92.0,39.0,-237.0,0
2442,-94.0,38.0,-238.0,0
2443,-91.0,36.0,-238.0,0
2444,-89.0,40.0,-239.0,0
2445,-91.0,37.0,-237.0,0
2446,-93.0,41.0,-240.0,0
2447,-93.0,40.0,-236.0,0
2448,-91.0,42.0,-237.0,0
2449,-90.0,38.0,-242.0,0
2450,-91.0,36.0,-238.0,0
2451,-95.0,38.0,-239.0,0
2452,-89.0,39.0,-238.0,0
2453,-92.0,39.0,-241.0,0
2454,-91.0,38.0,-241.0,0
2455,-89.0,38.0,-237.0,0
2456,-91.0,40.0,-239.0,0
2457,-90.0,37.0,-244.0,0
2458,-91.0,39.0,-240.0,0
2459,-88.0,39.0,-238.0,0
2460,-92.0,41.0,-238.0,0
2461,-92.0,38.0,-239.0,0
2462,-91.0,42.0,-239.0,0
2463,-91.0,38.0,-238.0,0
2464,-92.0,39.0,-237.0,0
2465,-88.0,39.0,-238.0,0
2466,-90.0,38.0,-242.0,0
2467,-89.0,41.0,-236.0,0
2468,-88.0,39.0,-240.0,0
2469,-89.0,38.0,-247.0,0
2470,-87.0,34.0,-239.0,0
2471,-91.0,39.0,-238.0,0
2472,-89.0,37.0,-239.0,0
2473,-91.0,39.0,-239.0,0
2474,-87.0,38.0,-242.0,0
2475,-89.0,41.0,-243.0,0
2476,-93.0,38.0,-241.0,0
2477,-86.0,39.0,-240.0,0
2478,-93.0,37.0,-239.0,0
2479,-92.0,38.0,-241.0,0
2480,-92.0,39.0,-236.0,0
2481,-86.0,39.0,-236.0,0
2482,-93.0,40.0,-235.0,0
2483,-90.0,40.0,-237.0,0
2484,-91.0,38.0,-239.0,0
2485,-91.0,38.0,-242.0,0
2486,-91.0,40.0,-239.0,0
2487,-92.0,36.0,-237.0,0
2488,-92.0,42.0,-237.0,0
2489,-90.0,38.0,-242.0,0
2490,-94.0,37.0,-242.0,0
2491,-93.0,36.0,-236.0,0
2492,-90.0,37.0,-243.0,0
2493,-90.0,38.0,-239.0,0
2494,-90.0,39.0,-240.0,0
2495,-91.0,39.0,-235.0,0
2496,-91.0,37.0,-237.0,0
2497,-91.0,38.0,-235.0,0
2498,-91.0,41.0,-239.0,0
2499,-92.0,38.0,-241.0,0
2500,-91.0,36.0,-234.0,0
2501,-92.0,38.0,-242.0,0
2502,-90.0,41.0,-240.0,0
2503,-89.0,37.0,-239.0,0
2504,-89.0,36.0,-236.0,0
2505,-91.0,38.0,-241.0,0
2506,-93.0,40.0,-238.0,0
2507,-89.0,39.0,-236.0,0
2508,-89.0,40.0,-237.0,0
2509,-91.0,40.0,-238.0,0
2510,-92.0,38.0,-238.0,0
2511,-90.0,39.0,-242.0,0
2512,-91.0,40.0,-243.0,0
2513,-90.0,39.0,-240.0,0
2514,-93.0,32.0,-241.0,0
2515,-90.0,35.0,-241.0,0
2516,-89.0,39.0,-240.0,0
2517,-91.0,36.0,-240.0,0
2518,-90.0,39.0,-239.0,0
2519,-90.0,38.0,-240.0,0
2520,-93.0,40.0,-239.0,0
2521,-92.0,43.0,-235.0,0
2522,-91.0,34.0,-237.0,0
2523,-92.0,37.0,-240.0,0
2524,-90.0,39.0,-245.0,0
2525,-89.0,40.0,-241.0,0
2526,-88.0,38.0,-240.0,0
2527,-92.0,41.0,-237.0,0
2528,-91.0,36.0,-238.0,0
2529,-89.0,40.0,-236.0,0
2530,-91.0,38.0,-241.0,0
2531,-89.0,38.0,-239.0,0
2532,-91.0,38.0,-236.0,0
2533,-93.0,40.0,-239.0,0
2534,-91.0,44.0,-239.0,0
2535,-95.0,40.0,-243.0,0
2536,-94.0,37.0,-240.0,0
2537,-93.0,42.0,-240.0,0
2538,-92.0,39.0,-241.0,0
2539,-90.0,36.0,-239.0,0
2540,-91.0,37.0,-240.0,0
2541,-92.0,39.0,-238.0,0
2542,-89.0,37.0,-237.0,0
2543,-89.0,41.0,-238.0,0
2544,-92.0,38.0,-240.0,0
2545,-92.0,38.0,-236.0,0
2546,-91.0,38.0,-240.0,0
2547,-91.0,39.0,-236.0,0
2548,-92.0,37.0,-240.0,0
2549,-90.0,39.0,-240.0,0
2550,-90.0,35.0,-238.0,0
2551,-94.0,40.0,-241.0,0
2552,-93.0,40.0,-240.0,0
2553,-90.0,37.0,-243.0,0
2554,-92.0,41.0,-237.0,0
2555,-91.0,37.0,-239.0,0
2556,-93.0,40.0,-242.0,0
2557,-83.0,39.0,-246.0,0
2558,-90.0,40.0,-237.0,0
2559,-91.0,38.0,-240.0,0
2560,-90.0,38.0,-240.0,0
2561,-95.0,38.0,-235.0,0
2562,-91.0,40.0,-238.0,0
2563,-90.0,38.0,-240.0,0
2564,-91.0,40.0,-238.0,0
2565,-87.0,37.0,-235.0,0
2566,-94.0,38.0,-242.0,0
2567,-93.0,38.0,-238.0,0
2568,-90.0,39.0,-239.0,0
2569,-90.0,36.0,-244.0,0
2570,-89.0,38.0,-240.0,0
2571,-91.0,40.0,-241.0,0
2572,-90.0,36.0,-243.0,0
2573,-92.0,39.0,-237.0,0
2574,-91.0,36.0,-237.0,0
2575,-92.0,38.0,-241.0,0
2576,-87.0,36.0,-239.0,0
2577,-91.0,38.0,-243.0,0
2578,-89.0,35.0,-239.0,0
2579,-85.0,35.0,-233.0,0
2580,-87.0,38.0,-240.0,0
2581,-91.0,42.0,-242.0,0
2582,-89.0,38.0,-242.0,0
2583,-91.0,39.0,-237.0,0
2584,-94.0,38.0,-239.0,0
2585,-91.0,39.0,-239.0,0
2586,-90.0,36.0,-241.0,0
2587,-90.0,37.0,-241.0,0
2588,-86.0,38.0,-242.0,0
2589,-90.0,40.0,-242.0,0
2590,-85.0,28.0,-238.0,0
2591,-90.0,40.0,-241.0,0
2592,-89.0,35.0,-238.0,0
2593,-90.0,39.0,-240.0,0
2594,-87.0,38.0,-239.0,0
2595,-90.0,35.0,-237.0,0
2596,-90.0,41.0,-238.0,0
2597,-90.0,37.0,-235.0,0
2598,-93.0,36.0,-238.0,0
2599,-90.0,41.0,-238.0,0
2600,-90.0,39.0,-241.0,0
2601,-90.0,38.0,-237.0,0
2602,-87.0,38.0,-238.0,0
2603,-89.0,36.0,-242.0,0
2604,-90.0,38.0,-239.0,0
2605,-88.0,40.0,-239.0,0
2606,-88.0,39.0,-239.0,0
2607,-89.0,38.0,-241.0,0
2608,-87.0,34.0,-236.0,0
2609,-92.0,38.0,-243.0,0
2610,-90.0,42.0,-241.0,0
2611,-89.0,40.0,-242.0,0
2612,-88.0,46.0,-235.0,0
2613,-92.0,38.0,-240.0,0
2614,-92.0,39.0,-239.0,0
2615,-88.0,36.0,-240.0,0
2616,-88.0,36.0,-238.0,0
2617,-89.0,38.0,-245.0,0
2618,-92.0,40.0,-240.0,0
2619,-90.0,41.0,-243.0,0
2620,-93.0,40.0,-242.0,0
2621,-88.0,37.0,-240.0,0
2622,-87.0,34.0,-237.0,0
2623,-90.0,39.0,-241.0,0
2624,-89.0,40.0,-238.0,0
2625,-90.0,40.0,-238.0,0
2626,-91.0,41.0,-239.0,0
2627,-87.0,39.0,-237.0,0
2628,-90.0,39.0,-243.0,0
2629,-92.0,38.0,-241.0,0
2630,-87.0,36.0,-240.0,0
2631,-90.0,40.0,-238.0,0
2632,-89.0,37.0,-240.0,0
2633,-93.0,45.0,-242.0,0
2634,-90.0,36.0,-237.0,0
2635,-89.0,41.0,-239.0,0
2636,-86.0,43.0,-236.0,0
2637,-90.0,38.0,-240.0,0
2638,-88.0,40.0,-240.0,0
2639,-86.0,42.0,-240.0,0
2640,-87.0,36.0,-241.0,0
2641,-90.0,40.0,-242.0,0
2642,-90.0,40.0,-242.0,0
2643,-92.0,39.0,-238.0,0
2644,-89.0,40.0,-240.0,0
2645,-89.0,40.0,-240.0,0
2646,-91.0,38.0,-240.0,0
2647,-90.0,38.0,-238.0,0
2648,-90.0,40.0,-241.0,0
2649,-89.0,38.0,-238.0,0
2650,-88.0,37.0,-245.0,0
2651,-91.0,38.0,-236.0,0
2652,-91.0,41.0,-235.0,0
2653,-88.0,35.0,-242.0,0
2654,-89.0,37.0,-242.0,0
2655,-87.0,42.0,-238.0,0
2656,-89.0,38.0,-241.0,0
2657,-89.0,41.0,-242.0,0
2658,-91.0,38.0,-240.0,0
2659,-91.0,37.0,-237.0,0
2660,-91.0,42.0,-238.0,0
2661,-88.0,39.0,-242.0,0
2662,-87.0,38.0,-242.0,0
2663,-91.0,40.0,-237.0,0
2664,-88.0,38.0,-236.0,0
2665,-88.0,39.0,-240.0,0
2666,-91.0,47.0,-244.0,0
2667,-92.0,40.0,-243.0,0
2668,-86.0,36.0,-240.0,0
2669,-89.0,41.0,-242.0,0
2670,-91.0,38.0,-240.0,0
2671,-90.0,38.0,-239.0,0
2672,-89.0,37.0,-239.0,0
2673,-89.0,42.0,-240.0,0
2674,-89.0,37.0,-246.0,0
2675,-90.0,37.0,-247.0,0
2676,-84.0,33.0,-237.0,0
2677,-94.0,40.0,-240.0,0
2678,-87.0,39.0,-241.0,0
2679,-90.0,39.0,-239.0,0
2680,-89.0,38.0,-241.0,0
2681,-87.0,37.0,-239.0,0
2682,-89.0,38.0,-240.0,0
2683,-92.0,39.0,-241.0,0
2684,-90.0,39.0,-239.0,0
2685,-90.0,38.0,-240.0,0
2686,-92.0,39.0,-235.0,0
2687,-92.0,40.0,-241.0,0
2688,-90.0,41.0,-238.0,0
2689,-88.0,36.0,-238.0,0
2690,-91.0,37.0,-242.0,0
2691,-87.0,40.0,-240.0,0
2692,-86.0,39.0,-242.0,0
2693,-90.0,40.0,-238.0,0
2694,-91.0,41.0,-241.0,0
2695,-88.0,36.0,-241.0,0
2696,-87.0,36.0,-240.0,0
2697,-93.0,42.0,-243.0,0
2698,-91.0,39.0,-240.0,0
2699,-97.0,46.0,-243.0,0
2700,-92.0,40.0,-236.0,0
2701,-87.0,40.0,-241.0,0
2702,-89.0,39.0,-243.0,0
2703,-89.0,40.0,-242.0,0
2704,-88.0,40.0,-237.0,0
2705,-92.0,38.0,-237.0,0
2706,-91.0,38.0,-242.0,0
2707,-89.0,34.0,-240.0,0
2708,-88.0,37.0,-236.0,0
2709,-87.0,37.0,-237.0,0
2710,-89.0,36.0,-241.0,0
2711,-89.0,39.0,-239.0,0
2712,-87.0,39.0,-240.0,0
2713,-92.0,37.0,-243.0,0
2714,-91.0,37.0,-241.0,0
2715,-91.0,38.0,-239.0,0
2716,-90.0,39.0,-239.0,0
2717,-90.0,37.0,-243.0,0
2718,-87.0,38.0,-240.0,0
2719,-89.0,34.0,-241.0,0
2720,-91.0,37.0,-240.0,0
2721,-87.0,38.0,-241.0,0
2722,-93.0,38.0,-238.0,0
2723,-88.0,43.0,-242.0,0
2724,-89.0,36.0,-242.0,0
2725,-90.0,39.0,-239.0,0
2726,-88.0,40.0,-241.0,0
2727,-87.0,38.0,-243.0,0
2728,-90.0,37.0,-244.0,0
2729,-92.0,37.0,-244.0,0
2730,-88.0,39.0,-245.0,0
2731,-92.0,37.0,-240.0,0
2732,-87.0,35.0,-242.0,0
2733,-89.0,39.0,-244.0,0
2734,-90.0,39.0,-239.0,0
2735,-90.0,37.0,-238.0,0
2736,-91.0,40.0,-240.0,0
2737,-89.0,37.0,-240.0,0
2738,-86.0,36.0,-239.0,0
2739,-91.0,38.0,-240.0,0
2740,-91.0,39.0,-232.0,0
2741,-88.0,36.0,-237.0,0
2742,-90.0,40.0,-235.0,0
2743,-88.0,39.0,-243.0,0
2744,-91.0,36.0,-238.0,0
2745,-89.0,38.0,-239.0,0
2746,-88.0,40.0,-237.0,0
2747,-91.0,38.0,-241.0,0
2748,-88.0,38.0,-238.0,0
2749,-89.0,36.0,-242.0,0
2750,-91.0,37.0,-242.0,0
2751,-88.0,39.0,-242.0,0
2752,-89.0,40.0,-238.0,0
2753,-86.0,38.0,-238.0,0
2754,-90.0,38.0,-242.0,0
2755,-90.0,40.0,-240.0,0
2756,-85.0,38.0,-241.0,0
2757,-88.0,45.0,-244.0,0
2758,-92.0,38.0,-237.0,0
2759,-89.0,40.0,-238.0,0
2760,-90.0,38.0,-238.0,0
2761,-90.0,36.0,-242.0,0
2762,-87.0,37.0,-240.0,0
2763,-88.0,37.0,-240.0,0
2764,-93.0,42.0,-240.0,0
2765,-93.0,38.0,-241.0,0
2766,-94.0,40.0,-239.0,0
2767,-91.0,39.0,-240.0,0
2768,-89.0,42.0,-240.0,0
2769,-88.0,39.0,-240.0,0
2770,-89.0,42.0,-243.0,0
2771,-92.0,40.0,-237.0,0
2772,-89.0,41.0,-236.0,0
2773,-92.0,39.0,-237.0,0
2774,-91.0,35.0,-242.0,0
2775,-86.0,37.0,-244.0,0
2776,-90.0,37.0,-239.0,0
2777,-88.0,40.0,-240.0,0
2778,-87.0,38.0,-239.0,0
2779,-89.0,39.0,-240.0,0
2780,-88.0,40.0,-240.0,0
2781,-90.0,41.0,-240.0,0
2782,-88.0,41.0,-241.0,0
2783,-91.0,37.0,-239.0,0
2784,-91.0,37.0,-241.0,0
2785,-90.0,39.0,-237.0,0
2786,-92.0,33.0,-236.0,0
2787,-89.0,36.0,-238.0,0
2788,-92.0,40.0,-239.0,0
2789,-90.0,39.0,-240.0,0
2790,-90.0,38.0,-241.0,0
2791,-93.0,39.0,-240.0,0
2792,-93.0,39.0,-238.0,0
2793,-91.0,40.0,-241.0,0
2794,-88.0,42.0,-239.0,0
2795,-89.0,42.0,-240.0,0
2796,-93.0,37.0,-240.0,0
2797,-91.0,35.0,-239.0,0
2798,-88.0,39.0,-236.0,0
2799,-90.0,37.0,-241.0,0
2800,-89.0,40.0,-239.0,0
2801,-88.0,36.0,-236.0,0
2802,-91.0,39.0,-238.0,0
2803,-94.0,41.0,-238.0,0
2804,-89.0,39.0,-237.0,0
2805,-89.0,38.0,-245.0,0
2806,-90.0,38.0,-235.0,0
2807,-90.0,35.0,-240.0,0
2808,-93.0,44.0,-245.0,0
2809,-90.0,39.0,-237.0,0
2810,-88.0,36.0,-240.0,0
2811,-90.0,39.0,-239.0,0
2812,-93.0,39.0,-239.0,0
2813,-88.0,39.0,-238.0,0
2814,-95.0,38.0,-241.0,0
2815,-92.0,39.0,-237.0,0
2816,-93.0,35.0,-240.0,0
2817,-91.0,41.0,-236.0,0
2818,-91.0,41.0,-242.0,0
2819,-95.0,40.0,-247.0,0
2820,-93.0,40.0,-240.0,0
2821,-91.0,36.0,-240.0,0
2822,-92.0,44.0,-239.0,0
2823,-89.0,38.0,-239.0,0
2824,-90.0,40.0,-237.0,0
2825,-89.0,40.0,-240.0,0
2826,-91.0,38.0,-240.0,0
2827,-88.0,37.0,-240.0,0
2828,-87.0,37.0,-240.0,0
2829,-92.0,45.0,-241.0,0
2830,-87.0,41.0,-242.0,0
2831,-90.0,38.0,-237.0,0
2832,-89.0,41.0,-242.0,0
2833,-89.0,38.0,-237.0,0
2834,-91.0,39.0,-239.0,0
2835,-90.0,42.0,-241.0,0
2836,-91.0,42.0,-239.0,0
2837,-91.0,41.0,-242.0,0
2838,-91.0,40.0,-240.0,0
2839,-92.0,43.0,-237.0,0
2840,-88.0,39.0,-232.0,0
2841,-91.0,41.0,-243.0,0
2842,-87.0,37.0,-239.0,0
2843,-87.0,38.0,-236.0,0
2844,-90.0,39.0,-238.0,0
2845,-89.0,39.0,-242.0,0
2846,-89.0,35.0,-236.0,0
2847,-90.0,39.0,-239.0,0
2848,-86.0,38.0,-238.0,0
2849,-90.0,44.0,-242.0,0
2850,-88.0,38.0,-238.0,0
2851,-93.0,41.0,-241.0,0
2852,-89.0,39.0,-241.0,0
2853,-91.0,42.0,-240.0,0
2854,-90.0,39.0,-240.0,0
2855,-90.0,40.0,-237.0,0
2856,-90.0,40.0,-241.0,0
2857,-93.0,40.0,-237.0,0
2858,-88.0,43.0,-240.0,0
2859,-89.0,39.0,-237.0,0
2860,-89.0,39.0,-245.0,0
2861,-91.0,39.0,-240.0,0
2862,-89.0,36.0,-232.0,0
2863,-91.0,38.0,-239.0,0
2864,-91.0,39.0,-237.0,0
2865,-89.0,39.0,-243.0,0
2866,-90.0,38.0,-237.0,0
2867,-90.0,37.0,-241.0,0
2868,-89.0,38.0,-240.0,0
2869,-88.0,40.0,-243.0,0
2870,-89.0,38.0,-235.0,0
2871,-85.0,39.0,-236.0,0
2872,-91.0,35.0,-244.0,0
2873,-93.0,40.0,-243.0,0
2874,-90.0,39.0,-241.0,0
2875,-89.0,41.0,-243.0,0
2876,-90.0,39.0,-241.0,0
2877,-91.0,38.0,-241.0,0
2878,-92.0,39.0,-242.0,0
2879,-94.0,43.0,-243.0,0
2880,-89.0,40.0,-242.0,0
2881,-90.0,40.0,-238.0,0
2882,-89.0,35.0,-239.0,0
2883,-93.0,35.0,-240.0,0
2884,-90.0,41.0,-245.0,0
2885,-89.0,39.0,-245.0,0
2886,-87.0,40.0,-239.0,0
2887,-92.0,40.0,-241.0,0
2888,-87.0,38.0,-240.0,0
2889,-89.0,39.0,-238.0,0
2890,-89.0,39.0,-241.0,0
2891,-92.0,44.0,-237.0,0
2892,-86.0,38.0,-235.0,0
2893,-89.0,37.0,-240.0,0
2894,-93.0,39.0,-238.0,0
2895,-92.0,40.0,-244.0,0
2896,-89.0,39.0,-235.0,0
2897,-89.0,40.0,-238.0,0
2898,-90.0,40.0,-235.0,0
2899,-89.0,40.0,-240.0,0
2900,-93.0,41.0,-239.0,0
2901,-91.0,42.0,-241.0,0
2902,-88.0,39.0,-244.0,0
2903,-88.0,39.0,-241.0,0
2904,-90.0,41.0,-244.0,0
2905,-91.0,42.0,-243.0,0
2906,-91.0,40.0,-238.0,0
2907,-89.0,38.0,-235.0,0
2908,-90.0,40.0,-239.0,0
2909,-91.0,41.0,-237.0,0
2910,-90.0,42.0,-234.0,0
2911,-89.0,41.0,-238.0,0
2912,-90.0,43.0,-242.0,0
2913,-87.0,39.0,-235.0,0
2914,-88.0,37.0,-239.0,0
2915,-88.0,40.0,-238.0,0
2916,-90.0,43.0,-235.0,0
2917,-94.0,33.0,-248.0,0
2918,-88.0,41.0,-239.0,0
2919,-87.0,38.0,-239.0,0
2920,-92.0,43.0,-235.0,0
2921,-89.0,39.0,-240.0,0
2922,-88.0,40.0,-238.0,0
2923,-91.0,38.0,-241.0,0
2924,-90.0,40.0,-238.0,0
2925,-87.0,39.0,-237.0,0
2926,-92.0,42.0,-239.0,0
2927,-91.0,38.0,-234.0,0
2928,-93.0,40.0,-244.0,0
2929,-90.0,41.0,-241.0,0
2930,-95.0,41.0,-238.0,0
2931,-91.0,41.0,-239.0,0
2932,-91.0,39.0,-239.0,0
2933,-92.0,40.0,-237.0,0
2934,-87.0,36.0,-239.0,0
2935,-91.0,42.0,-239.0,0
2936,-90.0,39.0,-237.0,0
2937,-95.0,41.0,-238.0,0
2938,-88.0,42.0,-244.0,0
2939,-91.0,40.0,-244.0,0
2940,-89.0,40.0,-241.0,0
2941,-92.0,43.0,-242.0,0
2942,-88.0,40.0,-240.0,0
2943,-92.0,40.0,-240.0,0
2944,-91.0,43.0,-237.0,0
2945,-90.0,42.0,-238.0,0
2946,-92.0,43.0,-240.0,0
2947,-93.0,42.0,-237.0,0
2948,-92.0,42.0,-241.0,0
2949,-86.0,40.0,-231.0,0
2950,-93.0,42.0,-239.0,0
2951,-90.0,40.0,-238.0,0
2952,-87.0,41.0,-241.0,0
2953,-90.0,39.0,-240.0,0
2954,-89.0,40.0,-237.0,0
2955,-93.0,42.0,-238.0,0
2956,-89.0,38.0,-235.0,0
2957,-93.0,39.0,-240.0,0
2958,-90.0,40.0,-242.0,0
2959,-89.0,41.0,-239.0,0
2960,-93.0,34.0,-237.0,0
2961,-92.0,40.0,-241.0,0
2962,-91.0,42.0,-238.0,0
2963,-92.0,39.0,-241.0,0
2964,-88.0,39.0,-241.0,0
2965,-91.0,42.0,-242.0,0
2966,-92.0,41.0,-239.0,0
2967,-94.0,41.0,-237.0,0
2968,-90.0,41.0,-243.0,0
2969,-96.0,42.0,-237.0,0
2970,-89.0,41.0,-236.0,0
2971,-91.0,43.0,-238.0,0
2972,-91.0,42.0,-238.0,0
2973,-93.0,42.0,-240.0,0
2974,-89.0,39.0,-238.0,0
2975,-89.0,40.0,-241.0,0
2976,-90.0,38.0,-237.0,0
2977,-92.0,39.0,-237.0,0
2978,-91.0,42.0,-238.0,0
2979,-93.0,38.0,-239.0,0
2980,-92.0,37.0,-239.0,0
2981,-92.0,37.0,-238.0,0
2982,-94.0,31.0,-238.0,0
2983,-91.0,40.0,-238.0,0
2984,-90.0,42.0,-238.0,0
2985,-90.0,37.0,-240.0,0
2986,-92.0,42.0,-240.0,0
2987,-88.0,39.0,-237.0,0
2988,-88.0,40.0,-239.0,0
2989,-91.0,41.0,-236.0,0
2990,-90.0,39.0,-237.0,0
2991,-95.0,44.0,-241.0,0
2992,-91.0,42.0,-240.0,0
2993,-89.0,39.0,-240.0,0
2994,-93.0,40.0,-239.0,0
2995,-95.0,41.0,-238.0,0
2996,-92.0,38.0,-237.0,0
2997,-91.0,39.0,-240.0,0
2998,-93.0,40.0,-241.0,0
2999,-90.0,40.0,-238.0,0
