,accelerometer_x,accelerometer_y,accelerometer_z,fall
0,18.0,-246.0,3.0,0
1,17.0,-250.0,0.0,0
2,14.0,-249.0,0.0,0
3,13.0,-252.0,0.0,0
4,10.0,-252.0,-4.0,0
5,9.0,-245.0,-1.0,0
6,8.0,-252.0,-5.0,0
7,6.0,-251.0,-5.0,0
8,6.0,-248.0,-8.0,0
9,8.0,-251.0,-5.0,0
10,5.0,-247.0,-8.0,0
11,7.0,-240.0,-6.0,0
12,1.0,-229.0,-11.0,0
13,9.0,-239.0,-4.0,0
14,1.0,-241.0,-13.0,0
15,-7.0,-250.0,-2.0,0
16,-3.0,-254.0,-5.0,0
17,-10.0,-248.0,-26.0,0
18,12.0,-246.0,-24.0,0
19,-1.0,-267.0,-13.0,0
20,-20.0,-282.0,-1.0,0
21,-6.0,-275.0,2.0,0
22,-10.0,-277.0,-9.0,0
23,-15.0,-279.0,-8.0,0
24,-9.0,-281.0,-4.0,0
25,-1.0,-295.0,-9.0,0
26,-8.0,-289.0,-6.0,0
27,-19.0,-293.0,-11.0,0
28,-4.0,-289.0,-8.0,0
29,-48.0,-296.0,20.0,0
30,-17.0,-277.0,-17.0,0
31,-10.0,-261.0,-19.0,0
32,-10.0,-274.0,9.0,0
33,-17.0,-262.0,-25.0,0
34,-2.0,-232.0,-25.0,0
35,-16.0,-242.0,-24.0,0
36,-20.0,-245.0,-37.0,0
37,-10.0,-253.0,-25.0,0
38,0.0,-240.0,-23.0,0
39,-4.0,-248.0,-22.0,0
40,3.0,-241.0,-18.0,0
41,3.0,-244.0,-6.0,0
42,16.0,-237.0,-46.0,0
43,18.0,-248.0,-14.0,0
44,28.0,-247.0,8.0,0
45,22.0,-238.0,5.0,0
46,28.0,-248.0,7.0,0
47,14.0,-238.0,-2.0,0
48,34.0,-246.0,5.0,0
49,46.0,-239.0,4.0,0
50,56.0,-229.0,-33.0,0
51,35.0,-250.0,-9.0,0
52,50.0,-260.0,-4.0,0
53,49.0,-257.0,-8.0,0
54,50.0,-262.0,-12.0,0
55,53.0,-264.0,10.0,0
56,53.0,-264.0,-17.0,0
57,53.0,-269.0,-19.0,0
58,54.0,-271.0,-24.0,0
59,53.0,-273.0,-22.0,0
60,55.0,-272.0,-24.0,0
61,51.0,-276.0,-28.0,0
62,51.0,-276.0,-26.0,0
63,46.0,-276.0,-25.0,0
64,46.0,-280.0,-25.0,0
65,42.0,-282.0,-26.0,0
66,40.0,-281.0,-24.0,0
67,40.0,-282.0,-30.0,0
68,39.0,-282.0,-27.0,0
69,42.0,-278.0,-32.0,0
70,37.0,-276.0,-24.0,0
71,40.0,-273.0,-20.0,0
72,43.0,-266.0,-15.0,0
73,48.0,-260.0,-11.0,0
74,44.0,-258.0,-13.0,0
75,58.0,-256.0,-6.0,0
76,61.0,-250.0,-8.0,0
77,63.0,-242.0,-8.0,0
78,65.0,-236.0,-5.0,0
79,67.0,-233.0,-5.0,0
80,68.0,-231.0,-5.0,0
81,66.0,-228.0,-2.0,0
82,70.0,-234.0,1.0,0
83,74.0,-235.0,1.0,0
84,74.0,-242.0,2.0,0
85,76.0,-249.0,6.0,0
86,70.0,-256.0,0.0,0
87,67.0,-265.0,4.0,0
88,64.0,-271.0,7.0,0
89,57.0,-282.0,5.0,0
90,53.0,-290.0,13.0,0
91,50.0,-304.0,16.0,0
92,47.0,-311.0,20.0,0
93,48.0,-318.0,25.0,0
94,46.0,-321.0,33.0,0
95,38.0,-318.0,33.0,0
96,40.0,-320.0,33.0,0
97,40.0,-314.0,30.0,0
98,40.0,-304.0,25.0,0
99,40.0,-295.0,16.0,0
100,45.0,-284.0,9.0,0
101,47.0,-274.0,2.0,0
102,49.0,-266.0,-1.0,0
103,49.0,-260.0,-13.0,0
104,52.0,-255.0,-15.0,0
105,54.0,-251.0,-18.0,0
106,56.0,-245.0,-17.0,0
107,61.0,-249.0,-4.0,0
108,64.0,-246.0,0.0,0
109,65.0,-252.0,3.0,0
110,69.0,-253.0,4.0,0
111,67.0,-253.0,12.0,0
112,69.0,-252.0,11.0,0
113,66.0,-250.0,6.0,0
114,68.0,-254.0,6.0,0
115,67.0,-254.0,2.0,0
116,67.0,-257.0,1.0,0
117,62.0,-255.0,0.0,0
118,62.0,-257.0,0.0,0
119,61.0,-257.0,1.0,0
120,57.0,-255.0,0.0,0
121,58.0,-253.0,1.0,0
122,62.0,-253.0,14.0,0
123,51.0,-251.0,8.0,0
124,50.0,-248.0,10.0,0
125,49.0,-244.0,8.0,0
126,48.0,-245.0,4.0,0
127,50.0,-241.0,10.0,0
128,50.0,-240.0,6.0,0
129,52.0,-239.0,8.0,0
130,51.0,-240.0,2.0,0
131,51.0,-235.0,1.0,0
132,53.0,-233.0,6.0,0
133,60.0,-225.0,-3.0,0
134,54.0,-230.0,2.0,0
135,57.0,-233.0,6.0,0
136,56.0,-230.0,12.0,0
137,60.0,-227.0,9.0,0
138,62.0,-230.0,10.0,0
139,60.0,-230.0,19.0,0
140,63.0,-230.0,17.0,0
141,66.0,-232.0,19.0,0
142,65.0,-230.0,21.0,0
143,63.0,-231.0,23.0,0
144,64.0,-229.0,22.0,0
145,63.0,-234.0,25.0,0
146,62.0,-236.0,28.0,0
147,63.0,-237.0,29.0,0
148,63.0,-240.0,33.0,0
149,64.0,-245.0,31.0,0
150,62.0,-243.0,36.0,0
151,62.0,-247.0,30.0,0
152,64.0,-249.0,35.0,0
153,63.0,-250.0,32.0,0
154,62.0,-255.0,29.0,0
155,64.0,-255.0,30.0,0
156,65.0,-254.0,32.0,0
157,64.0,-253.0,31.0,0
158,64.0,-256.0,31.0,0
159,66.0,-255.0,28.0,0
160,64.0,-254.0,30.0,0
161,68.0,-253.0,30.0,0
162,67.0,-249.0,30.0,0
163,71.0,-251.0,26.0,0
164,75.0,-249.0,27.0,0
165,77.0,-246.0,25.0,0
166,75.0,-244.0,18.0,0
167,81.0,-247.0,15.0,0
168,76.0,-244.0,13.0,0
169,76.0,-246.0,10.0,0
170,73.0,-249.0,9.0,0
171,77.0,-251.0,7.0,0
172,76.0,-253.0,10.0,0
173,77.0,-256.0,5.0,0
174,74.0,-261.0,2.0,0
175,76.0,-262.0,1.0,0
176,76.0,-268.0,0.0,0
177,76.0,-272.0,0.0,0
178,78.0,-277.0,0.0,0
179,83.0,-283.0,1.0,0
180,85.0,-286.0,1.0,0
181,87.0,-293.0,2.0,0
182,94.0,-301.0,3.0,0
183,102.0,-307.0,6.0,0
184,108.0,-316.0,5.0,0
185,111.0,-317.0,4.0,0
186,116.0,-322.0,4.0,0
187,119.0,-325.0,-1.0,0
188,119.0,-331.0,-1.0,0
189,120.0,-332.0,-6.0,0
190,121.0,-339.0,-7.0,0
191,111.0,-345.0,-12.0,0
192,104.0,-345.0,-10.0,0
193,90.0,-348.0,-15.0,0
194,75.0,-348.0,-18.0,0
195,64.0,-347.0,-19.0,0
196,52.0,-350.0,-22.0,0
197,43.0,-348.0,-29.0,0
198,35.0,-339.0,-33.0,0
199,31.0,-331.0,-38.0,0
200,27.0,-328.0,-46.0,0
201,29.0,-324.0,-48.0,0
202,25.0,-319.0,-53.0,0
203,25.0,-314.0,-57.0,0
204,29.0,-312.0,-55.0,0
205,31.0,-310.0,-59.0,0
206,34.0,-313.0,-56.0,0
207,39.0,-310.0,-53.0,0
208,43.0,-310.0,-54.0,0
209,46.0,-309.0,-50.0,0
210,48.0,-311.0,-50.0,0
211,51.0,-307.0,-52.0,0
212,51.0,-307.0,-50.0,0
213,50.0,-301.0,-52.0,0
214,50.0,-296.0,-55.0,0
215,50.0,-289.0,-57.0,0
216,45.0,-287.0,-61.0,0
217,41.0,-277.0,-68.0,0
218,35.0,-270.0,-69.0,0
219,38.0,-251.0,-89.0,0
220,21.0,-258.0,-82.0,0
221,20.0,-256.0,-90.0,0
222,14.0,-253.0,-95.0,0
223,9.0,-252.0,-99.0,0
224,7.0,-252.0,-102.0,0
225,1.0,-251.0,-98.0,0
226,2.0,-253.0,-99.0,0
227,0.0,-254.0,-103.0,0
228,-1.0,-255.0,-98.0,0
229,-3.0,-254.0,-90.0,0
230,5.0,-255.0,-72.0,0
231,-9.0,-255.0,-82.0,0
232,-11.0,-252.0,-77.0,0
233,-8.0,-254.0,-76.0,0
234,-7.0,-252.0,-74.0,0
235,-7.0,-253.0,-72.0,0
236,-9.0,-248.0,-78.0,0
237,-4.0,-250.0,-78.0,0
238,-4.0,-250.0,-83.0,0
239,0.0,-250.0,-85.0,0
240,0.0,-249.0,-85.0,0
241,-2.0,-247.0,-80.0,0
242,1.0,-252.0,-85.0,0
243,0.0,-250.0,-75.0,0
244,0.0,-252.0,-78.0,0
245,1.0,-253.0,-72.0,0
246,1.0,-250.0,-69.0,0
247,1.0,-249.0,-68.0,0
248,-2.0,-249.0,-64.0,0
249,1.0,-249.0,-65.0,0
250,-1.0,-244.0,-68.0,0
251,0.0,-246.0,-66.0,0
252,0.0,-243.0,-63.0,0
253,0.0,-245.0,-62.0,0
254,-2.0,-243.0,-64.0,0
255,-4.0,-244.0,-64.0,0
256,-2.0,-247.0,-64.0,0
257,-6.0,-245.0,-64.0,0
258,-9.0,-247.0,-63.0,0
259,-8.0,-250.0,-63.0,0
260,-10.0,-249.0,-63.0,0
261,-13.0,-248.0,-58.0,0
262,-15.0,-250.0,-58.0,0
263,-12.0,-251.0,-60.0,0
264,-14.0,-250.0,-55.0,0
265,-11.0,-248.0,-57.0,0
266,-14.0,-247.0,-58.0,0
267,-15.0,-248.0,-57.0,0
268,-12.0,-248.0,-61.0,0
269,-13.0,-251.0,-55.0,0
270,-10.0,-253.0,-53.0,0
271,-13.0,-253.0,-55.0,0
272,-14.0,-254.0,-48.0,0
273,-14.0,-254.0,-45.0,0
274,-14.0,-255.0,-49.0,0
275,-15.0,-256.0,-53.0,0
276,-11.0,-254.0,-45.0,0
277,-10.0,-257.0,-50.0,0
278,-9.0,-258.0,-45.0,0
279,-8.0,-257.0,-46.0,0
280,-1.0,-258.0,-49.0,0
281,0.0,-260.0,-49.0,0
282,0.0,-255.0,-47.0,0
283,2.0,-254.0,-47.0,0
284,5.0,-251.0,-46.0,0
285,4.0,-250.0,-42.0,0
286,7.0,-248.0,-38.0,0
287,8.0,-241.0,-40.0,0
288,11.0,-237.0,-36.0,0
289,15.0,-232.0,-38.0,0
290,13.0,-223.0,-38.0,0
291,16.0,-218.0,-39.0,0
292,15.0,-209.0,-37.0,0
293,19.0,-202.0,-39.0,0
294,19.0,-195.0,-39.0,0
295,18.0,-189.0,-35.0,0
296,18.0,-187.0,-40.0,0
297,19.0,-185.0,-42.0,0
298,16.0,-179.0,-43.0,0
299,17.0,-182.0,-34.0,0
300,12.0,-181.0,-38.0,0
301,11.0,-179.0,-34.0,0
302,10.0,-187.0,-34.0,0
303,5.0,-191.0,-29.0,0
304,1.0,-193.0,-28.0,0
305,0.0,-199.0,-26.0,0
306,-7.0,-203.0,-20.0,0
307,-11.0,-212.0,-24.0,0
308,-16.0,-219.0,-22.0,0
309,-22.0,-224.0,-21.0,0
310,-26.0,-229.0,-21.0,0
311,-30.0,-231.0,-15.0,0
312,-34.0,-242.0,-15.0,0
313,-36.0,-249.0,-18.0,0
314,-37.0,-252.0,-18.0,0
315,-37.0,-256.0,-19.0,0
316,-37.0,-262.0,-20.0,0
317,-30.0,-275.0,-21.0,0
318,-33.0,-266.0,-18.0,0
319,-33.0,-267.0,-17.0,0
320,-33.0,-271.0,-19.0,0
321,-31.0,-274.0,-20.0,0
322,-33.0,-272.0,-14.0,0
323,-28.0,-274.0,-15.0,0
324,-33.0,-274.0,-9.0,0
325,-30.0,-270.0,-5.0,0
326,-28.0,-267.0,-9.0,0
327,-30.0,-267.0,-7.0,0
328,-19.0,-264.0,0.0,0
329,-32.0,-261.0,2.0,0
330,-35.0,-261.0,5.0,0
331,-40.0,-257.0,4.0,0
332,-39.0,-257.0,7.0,0
333,-41.0,-257.0,3.0,0
334,-40.0,-255.0,4.0,0
335,-41.0,-255.0,3.0,0
336,-40.0,-253.0,4.0,0
337,-40.0,-256.0,2.0,0
338,-37.0,-256.0,5.0,0
339,-34.0,-255.0,5.0,0
340,-30.0,-259.0,2.0,0
341,-28.0,-258.0,4.0,0
342,-21.0,-257.0,1.0,0
343,-19.0,-257.0,0.0,0
344,-17.0,-260.0,-4.0,0
345,-14.0,-260.0,-10.0,0
346,-13.0,-263.0,-13.0,0
347,-12.0,-269.0,-10.0,0
348,-14.0,-276.0,-15.0,0
349,-14.0,-285.0,-16.0,0
350,-18.0,-295.0,-17.0,0
351,-15.0,-310.0,-14.0,0
352,-13.0,-320.0,-11.0,0
353,-12.0,-330.0,-5.0,0
354,-11.0,-340.0,-5.0,0
355,-13.0,-352.0,-5.0,0
356,-11.0,-359.0,-15.0,0
357,-10.0,-361.0,-24.0,0
358,-12.0,-365.0,-31.0,0
359,-20.0,-366.0,-43.0,0
360,-25.0,-364.0,-56.0,0
361,-32.0,-369.0,-59.0,0
362,-41.0,-370.0,-62.0,0
363,-41.0,-363.0,-61.0,0
364,-41.0,-364.0,-67.0,0
365,-41.0,-359.0,-63.0,0
366,-35.0,-352.0,-58.0,0
367,-34.0,-341.0,-60.0,0
368,-36.0,-331.0,-62.0,0
369,-39.0,-321.0,-64.0,0
370,-37.0,-311.0,-66.0,0
371,-38.0,-296.0,-64.0,0
372,-37.0,-281.0,-68.0,0
373,-30.0,-268.0,-66.0,0
374,-27.0,-257.0,-68.0,0
375,-20.0,-247.0,-62.0,0
376,-15.0,-241.0,-70.0,0
377,-2.0,-238.0,-72.0,0
378,5.0,-234.0,-76.0,0
379,12.0,-233.0,-75.0,0
380,19.0,-242.0,-80.0,0
381,24.0,-245.0,-85.0,0
382,28.0,-255.0,-90.0,0
383,30.0,-262.0,-99.0,0
384,30.0,-272.0,-98.0,0
385,34.0,-280.0,-101.0,0
386,37.0,-290.0,-106.0,0
387,34.0,-294.0,-107.0,0
388,32.0,-301.0,-108.0,0
389,30.0,-301.0,-107.0,0
390,31.0,-304.0,-103.0,0
391,28.0,-304.0,-101.0,0
392,27.0,-302.0,-95.0,0
393,28.0,-298.0,-87.0,0
394,24.0,-290.0,-86.0,0
395,21.0,-285.0,-76.0,0
396,19.0,-277.0,-76.0,0
397,15.0,-270.0,-71.0,0
398,14.0,-262.0,-73.0,0
399,7.0,-256.0,-77.0,0
400,2.0,-254.0,-74.0,0
401,0.0,-252.0,-75.0,0
402,0.0,-247.0,-82.0,0
403,-2.0,-244.0,-80.0,0
404,-1.0,-245.0,-81.0,0
405,-1.0,-248.0,-80.0,0
406,0.0,-248.0,-79.0,0
407,0.0,-251.0,-78.0,0
408,1.0,-254.0,-75.0,0
409,1.0,-252.0,-79.0,0
410,3.0,-256.0,-79.0,0
411,3.0,-256.0,-74.0,0
412,5.0,-255.0,-74.0,0
413,6.0,-254.0,-76.0,0
414,4.0,-260.0,-73.0,0
415,16.0,-251.0,-74.0,0
416,20.0,-248.0,-76.0,0
417,27.0,-244.0,-69.0,0
418,27.0,-241.0,-67.0,0
419,31.0,-238.0,-70.0,0
420,30.0,-231.0,-69.0,0
421,31.0,-230.0,-72.0,0
422,37.0,-228.0,-66.0,0
423,35.0,-225.0,-64.0,0
424,42.0,-226.0,-67.0,0
425,40.0,-221.0,-66.0,0
426,42.0,-222.0,-67.0,0
427,38.0,-223.0,-63.0,0
428,39.0,-223.0,-57.0,0
429,37.0,-226.0,-62.0,0
430,36.0,-226.0,-56.0,0
431,36.0,-231.0,-55.0,0
432,36.0,-234.0,-53.0,0
433,33.0,-235.0,-48.0,0
434,33.0,-241.0,-46.0,0
435,32.0,-240.0,-45.0,0
436,32.0,-242.0,-40.0,0
437,32.0,-242.0,-40.0,0
438,32.0,-243.0,-47.0,0
439,27.0,-241.0,-41.0,0
440,29.0,-241.0,-39.0,0
441,33.0,-238.0,-39.0,0
442,32.0,-232.0,-41.0,0
443,32.0,-233.0,-40.0,0
444,32.0,-227.0,-43.0,0
445,36.0,-224.0,-46.0,0
446,36.0,-220.0,-42.0,0
447,35.0,-215.0,-40.0,0
448,35.0,-214.0,-43.0,0
449,35.0,-208.0,-45.0,0
450,41.0,-207.0,-46.0,0
451,41.0,-205.0,-46.0,0
452,44.0,-202.0,-47.0,0
453,40.0,-197.0,-45.0,0
454,50.0,-196.0,-44.0,0
455,47.0,-197.0,-46.0,0
456,49.0,-195.0,-43.0,0
457,52.0,-195.0,-44.0,0
458,53.0,-193.0,-42.0,0
459,56.0,-197.0,-43.0,0
460,56.0,-194.0,-45.0,0
461,54.0,-198.0,-47.0,0
462,56.0,-201.0,-49.0,0
463,57.0,-201.0,-45.0,0
464,54.0,-205.0,-43.0,0
465,54.0,-207.0,-45.0,0
466,55.0,-215.0,-42.0,0
467,56.0,-219.0,-36.0,0
468,55.0,-222.0,-36.0,0
469,55.0,-222.0,-30.0,0
470,51.0,-232.0,-31.0,0
471,53.0,-235.0,-31.0,0
472,52.0,-240.0,-29.0,0
473,49.0,-242.0,-25.0,0
474,49.0,-245.0,-28.0,0
475,47.0,-247.0,-25.0,0
476,42.0,-245.0,-35.0,0
477,37.0,-247.0,-30.0,0
478,47.0,-256.0,-28.0,0
479,45.0,-251.0,-25.0,0
480,44.0,-253.0,-24.0,0
481,43.0,-252.0,-27.0,0
482,43.0,-253.0,-21.0,0
483,47.0,-251.0,-24.0,0
484,47.0,-254.0,-24.0,0
485,52.0,-255.0,-24.0,0
486,51.0,-258.0,-24.0,0
487,53.0,-257.0,-20.0,0
488,55.0,-259.0,-17.0,0
489,56.0,-260.0,-21.0,0
490,60.0,-267.0,-14.0,0
491,59.0,-277.0,-18.0,0
492,61.0,-280.0,-11.0,0
493,61.0,-288.0,-8.0,0
494,59.0,-291.0,-12.0,0
495,55.0,-299.0,-8.0,0
496,51.0,-307.0,-10.0,0
497,54.0,-311.0,-10.0,0
498,49.0,-314.0,-12.0,0
499,41.0,-316.0,-17.0,0
500,39.0,-317.0,-17.0,0
501,33.0,-319.0,-27.0,0
502,31.0,-317.0,-29.0,0
503,26.0,-316.0,-30.0,0
504,22.0,-317.0,-26.0,0
505,14.0,-316.0,-28.0,0
506,10.0,-319.0,-32.0,0
507,4.0,-316.0,-29.0,0
508,9.0,-319.0,-35.0,0
509,7.0,-320.0,-38.0,0
510,11.0,-319.0,-32.0,0
511,12.0,-319.0,-36.0,0
512,17.0,-319.0,-32.0,0
513,11.0,-320.0,-44.0,0
514,19.0,-318.0,-52.0,0
515,17.0,-318.0,-55.0,0
516,19.0,-320.0,-64.0,0
517,30.0,-321.0,-74.0,0
518,39.0,-324.0,-79.0,0
519,48.0,-331.0,-81.0,0
520,56.0,-339.0,-86.0,0
521,62.0,-350.0,-85.0,0
522,68.0,-355.0,-90.0,0
523,62.0,-358.0,-73.0,0
524,64.0,-361.0,-70.0,0
525,62.0,-357.0,-75.0,0
526,55.0,-345.0,-80.0,0
527,49.0,-338.0,-84.0,0
528,43.0,-329.0,-87.0,0
529,38.0,-319.0,-86.0,0
530,34.0,-308.0,-83.0,0
531,34.0,-296.0,-83.0,0
532,30.0,-281.0,-79.0,0
533,32.0,-273.0,-84.0,0
534,32.0,-258.0,-81.0,0
535,33.0,-255.0,-82.0,0
536,35.0,-245.0,-80.0,0
537,40.0,-238.0,-86.0,0
538,43.0,-232.0,-79.0,0
539,48.0,-227.0,-82.0,0
540,54.0,-225.0,-85.0,0
541,57.0,-223.0,-84.0,0
542,63.0,-226.0,-87.0,0
543,64.0,-223.0,-92.0,0
544,67.0,-228.0,-96.0,0
545,66.0,-233.0,-102.0,0
546,68.0,-238.0,-104.0,0
547,65.0,-244.0,-105.0,0
548,65.0,-252.0,-107.0,0
549,64.0,-257.0,-105.0,0
550,60.0,-261.0,-105.0,0
551,57.0,-261.0,-104.0,0
552,54.0,-264.0,-97.0,0
553,48.0,-268.0,-86.0,0
554,48.0,-267.0,-85.0,0
555,41.0,-267.0,-82.0,0
556,39.0,-263.0,-83.0,0
557,37.0,-262.0,-79.0,0
558,41.0,-263.0,-81.0,0
559,38.0,-262.0,-85.0,0
560,38.0,-261.0,-83.0,0
561,37.0,-259.0,-81.0,0
562,33.0,-258.0,-87.0,0
563,35.0,-263.0,-83.0,0
564,34.0,-258.0,-88.0,0
565,33.0,-261.0,-84.0,0
566,32.0,-259.0,-80.0,0
567,30.0,-257.0,-78.0,0
568,30.0,-255.0,-78.0,0
569,34.0,-255.0,-77.0,0
570,29.0,-253.0,-80.0,0
571,30.0,-245.0,-85.0,0
572,30.0,-248.0,-84.0,0
573,29.0,-242.0,-86.0,0
574,29.0,-242.0,-85.0,0
575,29.0,-239.0,-86.0,0
576,27.0,-238.0,-82.0,0
577,25.0,-238.0,-87.0,0
578,22.0,-234.0,-87.0,0
579,19.0,-231.0,-81.0,0
580,21.0,-236.0,-82.0,0
581,16.0,-233.0,-77.0,0
582,15.0,-235.0,-75.0,0
583,16.0,-236.0,-76.0,0
584,13.0,-237.0,-80.0,0
585,10.0,-240.0,-76.0,0
586,8.0,-239.0,-77.0,0
587,6.0,-239.0,-74.0,0
588,7.0,-243.0,-74.0,0
589,4.0,-242.0,-76.0,0
590,7.0,-242.0,-78.0,0
591,2.0,-245.0,-78.0,0
592,2.0,-246.0,-74.0,0
593,2.0,-245.0,-76.0,0
594,2.0,-245.0,-74.0,0
595,2.0,-246.0,-71.0,0
596,2.0,-244.0,-73.0,0
597,1.0,-238.0,-69.0,0
598,4.0,-240.0,-71.0,0
599,1.0,-237.0,-68.0,0
600,1.0,-238.0,-69.0,0
601,2.0,-231.0,-70.0,0
602,1.0,-229.0,-67.0,0
603,2.0,-228.0,-69.0,0
604,2.0,-227.0,-68.0,0
605,1.0,-222.0,-66.0,0
606,1.0,-218.0,-60.0,0
607,0.0,-216.0,-57.0,0
608,0.0,-214.0,-55.0,0
609,-11.0,-206.0,-66.0,0
610,-1.0,-210.0,-56.0,0
611,-2.0,-209.0,-53.0,0
612,-3.0,-213.0,-54.0,0
613,-3.0,-212.0,-53.0,0
614,-3.0,-215.0,-50.0,0
615,-1.0,-219.0,-51.0,0
616,0.0,-219.0,-51.0,0
617,-1.0,-224.0,-49.0,0
618,0.0,-227.0,-47.0,0
619,-2.0,-228.0,-45.0,0
620,-6.0,-227.0,-43.0,0
621,-1.0,-232.0,-45.0,0
622,-1.0,-233.0,-43.0,0
623,-2.0,-238.0,-48.0,0
624,0.0,-238.0,-46.0,0
625,2.0,-239.0,-43.0,0
626,0.0,-240.0,-47.0,0
627,0.0,-236.0,-44.0,0
628,1.0,-236.0,-44.0,0
629,1.0,-239.0,-43.0,0
630,1.0,-241.0,-45.0,0
631,3.0,-239.0,-45.0,0
632,0.0,-238.0,-40.0,0
633,3.0,-236.0,-38.0,0
634,3.0,-236.0,-34.0,0
635,3.0,-237.0,-33.0,0
636,1.0,-235.0,-31.0,0
637,3.0,-237.0,-29.0,0
638,1.0,-233.0,-27.0,0
639,0.0,-233.0,-26.0,0
640,-2.0,-230.0,-23.0,0
641,-1.0,-229.0,-28.0,0
642,-4.0,-228.0,-22.0,0
643,-4.0,-229.0,-23.0,0
644,-7.0,-232.0,-20.0,0
645,-6.0,-232.0,-19.0,0
646,-2.0,-237.0,-19.0,0
647,-6.0,-237.0,-21.0,0
648,-7.0,-242.0,-15.0,0
649,-8.0,-246.0,-15.0,0
650,-9.0,-252.0,-14.0,0
651,-9.0,-258.0,-13.0,0
652,-7.0,-262.0,-10.0,0
653,-9.0,-265.0,-4.0,0
654,-10.0,-271.0,-7.0,0
655,-10.0,-277.0,-8.0,0
656,-11.0,-279.0,-8.0,0
657,-10.0,-284.0,-5.0,0
658,-11.0,-290.0,-4.0,0
659,-14.0,-293.0,-4.0,0
660,-8.0,-298.0,-11.0,0
661,-10.0,-297.0,-11.0,0
662,-3.0,-298.0,-14.0,0
663,-4.0,-298.0,-12.0,0
664,2.0,-299.0,-19.0,0
665,3.0,-297.0,-17.0,0
666,0.0,-296.0,-17.0,0
667,1.0,-291.0,-14.0,0
668,3.0,-292.0,-15.0,0
669,3.0,-291.0,-10.0,0
670,1.0,-292.0,-13.0,0
671,0.0,-294.0,-9.0,0
672,-5.0,-296.0,-7.0,0
673,-9.0,-296.0,-11.0,0
674,-9.0,-302.0,-10.0,0
675,-10.0,-303.0,-17.0,0
676,-9.0,-308.0,-26.0,0
677,-8.0,-312.0,-28.0,0
678,-13.0,-315.0,-37.0,0
679,-14.0,-320.0,-48.0,0
680,-23.0,-323.0,-58.0,0
681,-32.0,-322.0,-63.0,0
682,-36.0,-330.0,-68.0,0
683,-45.0,-335.0,-69.0,0
684,-51.0,-344.0,-73.0,0
685,-49.0,-354.0,-73.0,0
686,-53.0,-362.0,-68.0,0
687,-57.0,-370.0,-64.0,0
688,-62.0,-373.0,-63.0,0
689,-62.0,-374.0,-60.0,0
690,-61.0,-366.0,-57.0,0
691,-59.0,-354.0,-60.0,0
692,-55.0,-347.0,-65.0,0
693,-56.0,-331.0,-65.0,0
694,-52.0,-318.0,-78.0,0
695,-51.0,-306.0,-78.0,0
696,-41.0,-294.0,-80.0,0
697,-34.0,-282.0,-81.0,0
698,-25.0,-272.0,-87.0,0
699,-18.0,-262.0,-86.0,0
700,-9.0,-257.0,-91.0,0
701,1.0,-251.0,-92.0,0
702,12.0,-244.0,-95.0,0
703,15.0,-242.0,-93.0,0
704,24.0,-241.0,-93.0,0
705,30.0,-244.0,-93.0,0
706,37.0,-246.0,-95.0,0
707,39.0,-246.0,-87.0,0
708,39.0,-250.0,-87.0,0
709,33.0,-252.0,-83.0,0
710,29.0,-254.0,-90.0,0
711,29.0,-259.0,-86.0,0
712,17.0,-263.0,-95.0,0
713,15.0,-268.0,-93.0,0
714,9.0,-269.0,-90.0,0
715,2.0,-270.0,-92.0,0
716,0.0,-272.0,-92.0,0
717,-2.0,-269.0,-93.0,0
718,-1.0,-269.0,-91.0,0
719,-3.0,-260.0,-90.0,0
720,-2.0,-263.0,-85.0,0
721,-1.0,-262.0,-82.0,0
722,-6.0,-256.0,-82.0,0
723,-10.0,-253.0,-79.0,0
724,-11.0,-254.0,-81.0,0
725,-10.0,-251.0,-83.0,0
726,-9.0,-249.0,-86.0,0
727,-6.0,-252.0,-85.0,0
728,0.0,-252.0,-88.0,0
729,2.0,-251.0,-87.0,0
730,7.0,-253.0,-89.0,0
731,14.0,-255.0,-84.0,0
732,18.0,-255.0,-84.0,0
733,25.0,-256.0,-84.0,0
734,26.0,-261.0,-82.0,0
735,29.0,-258.0,-79.0,0
736,34.0,-259.0,-81.0,0
737,36.0,-259.0,-72.0,0
738,36.0,-257.0,-75.0,0
739,37.0,-255.0,-77.0,0
740,34.0,-256.0,-78.0,0
741,36.0,-255.0,-75.0,0
742,37.0,-257.0,-77.0,0
743,35.0,-253.0,-80.0,0
744,34.0,-250.0,-76.0,0
745,31.0,-250.0,-80.0,0
746,32.0,-247.0,-82.0,0
747,29.0,-242.0,-82.0,0
748,33.0,-242.0,-84.0,0
749,31.0,-240.0,-82.0,0
750,29.0,-233.0,-86.0,0
751,32.0,-235.0,-78.0,0
752,30.0,-232.0,-76.0,0
753,27.0,-232.0,-76.0,0
754,32.0,-228.0,-73.0,0
755,30.0,-227.0,-73.0,0
756,32.0,-226.0,-71.0,0
757,32.0,-227.0,-72.0,0
758,28.0,-225.0,-65.0,0
759,28.0,-225.0,-64.0,0
760,29.0,-228.0,-66.0,0
761,31.0,-230.0,-65.0,0
762,30.0,-231.0,-64.0,0
763,34.0,-229.0,-67.0,0
764,33.0,-230.0,-61.0,0
765,36.0,-229.0,-64.0,0
766,34.0,-231.0,-60.0,0
767,32.0,-231.0,-63.0,0
768,35.0,-232.0,-62.0,0
769,33.0,-233.0,-63.0,0
770,35.0,-233.0,-58.0,0
771,35.0,-236.0,-59.0,0
772,36.0,-237.0,-62.0,0
773,36.0,-235.0,-64.0,0
774,38.0,-236.0,-59.0,0
775,37.0,-241.0,-56.0,0
776,37.0,-238.0,-57.0,0
777,37.0,-240.0,-57.0,0
778,29.0,-238.0,-61.0,0
779,33.0,-237.0,-55.0,0
780,34.0,-238.0,-55.0,0
781,32.0,-232.0,-58.0,0
782,30.0,-232.0,-57.0,0
783,31.0,-229.0,-54.0,0
784,29.0,-226.0,-51.0,0
785,30.0,-226.0,-55.0,0
786,25.0,-221.0,-52.0,0
787,34.0,-219.0,-52.0,0
788,27.0,-215.0,-51.0,0
789,32.0,-215.0,-51.0,0
790,37.0,-211.0,-52.0,0
791,38.0,-209.0,-51.0,0
792,40.0,-207.0,-48.0,0
793,42.0,-215.0,-50.0,0
794,45.0,-211.0,-51.0,0
795,49.0,-210.0,-47.0,0
796,51.0,-211.0,-44.0,0
797,55.0,-214.0,-46.0,0
798,58.0,-216.0,-41.0,0
799,58.0,-219.0,-39.0,0
800,57.0,-223.0,-41.0,0
801,58.0,-219.0,-41.0,0
802,58.0,-223.0,-40.0,0
803,61.0,-227.0,-41.0,0
804,58.0,-233.0,-40.0,0
805,62.0,-229.0,-47.0,0
806,57.0,-231.0,-48.0,0
807,56.0,-234.0,-46.0,0
808,61.0,-236.0,-46.0,0
809,60.0,-246.0,-49.0,0
810,61.0,-243.0,-50.0,0
811,60.0,-247.0,-50.0,0
812,64.0,-253.0,-48.0,0
813,60.0,-258.0,-45.0,0
814,62.0,-263.0,-43.0,0
815,61.0,-270.0,-41.0,0
816,61.0,-277.0,-37.0,0
817,61.0,-283.0,-36.0,0
818,61.0,-290.0,-32.0,0
819,62.0,-298.0,-27.0,0
820,58.0,-297.0,-24.0,0
821,58.0,-300.0,-22.0,0
822,60.0,-303.0,-22.0,0
823,53.0,-300.0,-15.0,0
824,54.0,-298.0,-17.0,0
825,52.0,-294.0,-13.0,0
826,46.0,-289.0,-13.0,0
827,45.0,-285.0,-19.0,0
828,45.0,-280.0,-20.0,0
829,45.0,-275.0,-25.0,0
830,40.0,-270.0,-27.0,0
831,43.0,-267.0,-31.0,0
832,41.0,-264.0,-29.0,0
833,39.0,-265.0,-29.0,0
834,41.0,-264.0,-25.0,0
835,37.0,-269.0,-28.0,0
836,42.0,-267.0,-31.0,0
837,48.0,-273.0,-33.0,0
838,50.0,-273.0,-36.0,0
839,55.0,-277.0,-42.0,0
840,65.0,-283.0,-47.0,0
841,68.0,-289.0,-49.0,0
842,74.0,-293.0,-53.0,0
843,80.0,-301.0,-57.0,0
844,81.0,-310.0,-51.0,0
845,87.0,-315.0,-55.0,0
846,82.0,-321.0,-55.0,0
847,80.0,-331.0,-65.0,0
848,73.0,-340.0,-72.0,0
849,64.0,-348.0,-78.0,0
850,62.0,-354.0,-85.0,0
851,54.0,-365.0,-84.0,0
852,48.0,-370.0,-83.0,0
853,50.0,-379.0,-80.0,0
854,49.0,-384.0,-76.0,0
855,57.0,-387.0,-79.0,0
856,62.0,-387.0,-78.0,0
857,62.0,-383.0,-78.0,0
858,60.0,-381.0,-82.0,0
859,50.0,-366.0,-95.0,0
860,53.0,-349.0,-99.0,0
861,54.0,-333.0,-101.0,0
862,58.0,-322.0,-103.0,0
863,61.0,-307.0,-104.0,0
864,57.0,-293.0,-101.0,0
865,62.0,-284.0,-100.0,0
866,63.0,-274.0,-93.0,0
867,63.0,-266.0,-88.0,0
868,64.0,-262.0,-83.0,0
869,59.0,-255.0,-79.0,0
870,58.0,-250.0,-79.0,0
871,55.0,-244.0,-80.0,0
872,49.0,-242.0,-78.0,0
873,47.0,-235.0,-79.0,0
874,47.0,-237.0,-87.0,0
875,44.0,-229.0,-90.0,0
876,40.0,-230.0,-100.0,0
877,39.0,-227.0,-107.0,0
878,38.0,-230.0,-112.0,0
879,32.0,-227.0,-115.0,0
880,29.0,-233.0,-120.0,0
881,24.0,-235.0,-124.0,0
882,19.0,-238.0,-125.0,0
883,20.0,-245.0,-123.0,0
884,16.0,-247.0,-121.0,0
885,12.0,-251.0,-123.0,0
886,12.0,-251.0,-117.0,0
887,12.0,-257.0,-117.0,0
888,8.0,-256.0,-112.0,0
889,8.0,-258.0,-106.0,0
890,20.0,-250.0,-109.0,0
891,5.0,-254.0,-92.0,0
892,6.0,-255.0,-100.0,0
893,4.0,-252.0,-92.0,0
894,0.0,-247.0,-93.0,0
895,0.0,-245.0,-89.0,0
896,1.0,-240.0,-88.0,0
897,3.0,-240.0,-91.0,0
898,1.0,-237.0,-88.0,0
899,2.0,-234.0,-95.0,0
900,4.0,-227.0,-89.0,0
901,3.0,-231.0,-86.0,0
902,5.0,-224.0,-92.0,0
903,8.0,-224.0,-91.0,0
904,9.0,-225.0,-91.0,0
905,10.0,-226.0,-92.0,0
906,13.0,-231.0,-95.0,0
907,14.0,-230.0,-89.0,0
908,14.0,-235.0,-90.0,0
909,15.0,-237.0,-86.0,0
910,15.0,-238.0,-90.0,0
911,17.0,-241.0,-85.0,0
912,15.0,-243.0,-88.0,0
913,16.0,-243.0,-87.0,0
914,17.0,-247.0,-85.0,0
915,15.0,-249.0,-89.0,0
916,11.0,-247.0,-87.0,0
917,7.0,-248.0,-92.0,0
918,5.0,-249.0,-90.0,0
919,2.0,-247.0,-84.0,0
920,0.0,-246.0,-87.0,0
921,-1.0,-248.0,-88.0,0
922,-5.0,-244.0,-89.0,0
923,-10.0,-244.0,-88.0,0
924,-9.0,-240.0,-89.0,0
925,-9.0,-242.0,-87.0,0
926,-11.0,-242.0,-88.0,0
927,-12.0,-242.0,-80.0,0
928,-12.0,-236.0,-82.0,0
929,-9.0,-243.0,-75.0,0
930,-12.0,-239.0,-76.0,0
931,-11.0,-247.0,-76.0,0
932,-13.0,-242.0,-72.0,0
933,-9.0,-247.0,-68.0,0
934,-8.0,-246.0,-72.0,0
935,-11.0,-245.0,-69.0,0
936,-6.0,-250.0,-70.0,0
937,-6.0,-247.0,-72.0,0
938,-2.0,-246.0,-72.0,0
939,-4.0,-248.0,-66.0,0
940,-1.0,-248.0,-68.0,0
941,0.0,-249.0,-69.0,0
942,0.0,-250.0,-69.0,0
943,0.0,-250.0,-67.0,0
944,1.0,-247.0,-64.0,0
945,1.0,-245.0,-62.0,0
946,4.0,-246.0,-63.0,0
947,1.0,-241.0,-64.0,0
948,5.0,-239.0,-58.0,0
949,2.0,-235.0,-58.0,0
950,3.0,-233.0,-63.0,0
951,3.0,-230.0,-61.0,0
952,3.0,-231.0,-65.0,0
953,1.0,-228.0,-62.0,0
954,0.0,-225.0,-54.0,0
955,0.0,-222.0,-58.0,0
956,1.0,-223.0,-57.0,0
957,-2.0,-219.0,-53.0,0
958,0.0,-222.0,-54.0,0
959,0.0,-226.0,-53.0,0
960,-1.0,-225.0,-50.0,0
961,0.0,-225.0,-44.0,0
962,-1.0,-226.0,-45.0,0
963,0.0,-226.0,-46.0,0
964,0.0,-226.0,-45.0,0
965,-1.0,-224.0,-40.0,0
966,-1.0,-226.0,-44.0,0
967,-1.0,-226.0,-41.0,0
968,-1.0,-225.0,-39.0,0
969,0.0,-226.0,-40.0,0
970,0.0,-228.0,-33.0,0
971,0.0,-226.0,-35.0,0
972,-1.0,-224.0,-37.0,0
973,-4.0,-227.0,-31.0,0
974,-4.0,-226.0,-36.0,0
975,-3.0,-229.0,-32.0,0
976,-4.0,-230.0,-32.0,0
977,-9.0,-231.0,-34.0,0
978,-13.0,-228.0,-32.0,0
979,-14.0,-230.0,-32.0,0
980,-14.0,-233.0,-32.0,0
981,-16.0,-233.0,-32.0,0
982,-16.0,-239.0,-31.0,0
983,-15.0,-240.0,-30.0,0
984,-17.0,-243.0,-28.0,0
985,-16.0,-240.0,-31.0,0
986,-13.0,-243.0,-26.0,0
987,-12.0,-250.0,-27.0,0
988,-15.0,-258.0,-18.0,0
989,-11.0,-254.0,-26.0,0
990,-9.0,-257.0,-26.0,0
991,-7.0,-254.0,-22.0,0
992,-8.0,-255.0,-26.0,0
993,-11.0,-255.0,-24.0,0
994,-8.0,-257.0,-20.0,0
995,-8.0,-257.0,-20.0,0
996,-7.0,-258.0,-21.0,0
997,-4.0,-258.0,-21.0,0
998,-2.0,-257.0,-25.0,0
999,-6.0,-249.0,-15.0,0
1000,-5.0,-262.0,-18.0,0
1001,0.0,-262.0,-20.0,0
1002,-6.0,-261.0,-17.0,0
1003,-4.0,-263.0,-17.0,0
1004,-3.0,-265.0,-15.0,0
1005,-6.0,-264.0,-14.0,0
1006,-5.0,-264.0,-12.0,0
1007,-8.0,-264.0,-16.0,0
1008,-6.0,-264.0,-16.0,0
1009,-3.0,-265.0,-16.0,0
1010,-8.0,-264.0,-15.0,0
1011,-7.0,-267.0,-14.0,0
1012,-6.0,-269.0,-21.0,0
1013,-8.0,-270.0,-25.0,0
1014,-9.0,-275.0,-23.0,0
1015,-10.0,-281.0,-32.0,0
1016,-13.0,-287.0,-33.0,0
1017,-16.0,-293.0,-34.0,0
1018,-17.0,-299.0,-30.0,0
1019,-23.0,-305.0,-30.0,0
1020,-30.0,-312.0,-29.0,0
1021,-34.0,-314.0,-25.0,0
1022,-36.0,-317.0,-24.0,0
1023,-40.0,-317.0,-21.0,0
1024,-40.0,-320.0,-23.0,0
1025,-45.0,-322.0,-24.0,0
1026,-37.0,-326.0,-28.0,0
1027,-39.0,-328.0,-34.0,0
1028,-36.0,-328.0,-34.0,0
1029,-35.0,-336.0,-40.0,0
1030,-27.0,-333.0,-44.0,0
1031,-24.0,-331.0,-44.0,0
1032,-15.0,-331.0,-47.0,0
1033,-14.0,-330.0,-52.0,0
1034,-13.0,-333.0,-46.0,0
1035,-10.0,-332.0,-46.0,0
1036,-10.0,-330.0,-49.0,0
1037,-10.0,-330.0,-46.0,0
1038,-9.0,-329.0,-42.0,0
1039,-7.0,-323.0,-47.0,0
1040,-7.0,-319.0,-51.0,0
1041,-8.0,-312.0,-56.0,0
1042,-7.0,-304.0,-57.0,0
1043,-4.0,-296.0,-63.0,0
1044,-6.0,-285.0,-66.0,0
1045,-9.0,-278.0,-66.0,0
1046,-10.0,-272.0,-71.0,0
1047,-11.0,-264.0,-72.0,0
1048,-14.0,-261.0,-76.0,0
1049,-11.0,-256.0,-76.0,0
1050,-15.0,-254.0,-81.0,0
1051,-14.0,-256.0,-82.0,0
1052,-16.0,-259.0,-84.0,0
1053,-11.0,-268.0,-85.0,0
1054,-8.0,-274.0,-89.0,0
1055,-8.0,-280.0,-84.0,0
1056,-1.0,-291.0,-85.0,0
1057,-1.0,-297.0,-86.0,0
1058,-1.0,-302.0,-85.0,0
1059,2.0,-309.0,-91.0,0
1060,2.0,-311.0,-89.0,0
1061,4.0,-309.0,-94.0,0
1062,2.0,-308.0,-96.0,0
1063,0.0,-309.0,-99.0,0
1064,1.0,-304.0,-101.0,0
1065,1.0,-299.0,-110.0,0
1066,-2.0,-292.0,-115.0,0
1067,0.0,-290.0,-109.0,0
1068,0.0,-285.0,-113.0,0
1069,0.0,-276.0,-110.0,0
1070,-1.0,-269.0,-104.0,0
1071,2.0,-269.0,-101.0,0
1072,9.0,-263.0,-96.0,0
1073,10.0,-257.0,-93.0,0
1074,15.0,-251.0,-90.0,0
1075,15.0,-248.0,-89.0,0
1076,19.0,-245.0,-91.0,0
1077,18.0,-240.0,-84.0,0
1078,17.0,-233.0,-80.0,0
1079,16.0,-231.0,-87.0,0
1080,17.0,-227.0,-85.0,0
1081,16.0,-230.0,-76.0,0
1082,17.0,-230.0,-85.0,0
1083,19.0,-232.0,-80.0,0
1084,16.0,-233.0,-77.0,0
1085,10.0,-236.0,-75.0,0
1086,16.0,-236.0,-76.0,0
1087,16.0,-237.0,-70.0,0
1088,13.0,-240.0,-73.0,0
1089,13.0,-243.0,-71.0,0
1090,6.0,-244.0,-72.0,0
1091,7.0,-244.0,-74.0,0
1092,5.0,-246.0,-74.0,0
1093,3.0,-250.0,-79.0,0
1094,2.0,-247.0,-70.0,0
1095,2.0,-249.0,-77.0,0
1096,0.0,-247.0,-75.0,0
1097,5.0,-254.0,-76.0,0
1098,4.0,-251.0,-75.0,0
1099,3.0,-251.0,-76.0,0
1100,9.0,-249.0,-72.0,0
1101,10.0,-250.0,-70.0,0
1102,12.0,-244.0,-76.0,0
1103,14.0,-248.0,-70.0,0
1104,19.0,-238.0,-70.0,0
1105,21.0,-236.0,-69.0,0
1106,22.0,-236.0,-67.0,0
1107,27.0,-236.0,-64.0,0
1108,27.0,-235.0,-63.0,0
1109,31.0,-227.0,-65.0,0
1110,32.0,-227.0,-61.0,0
1111,34.0,-224.0,-62.0,0
1112,36.0,-226.0,-59.0,0
1113,38.0,-223.0,-58.0,0
1114,36.0,-226.0,-55.0,0
1115,38.0,-222.0,-58.0,0
1116,39.0,-222.0,-56.0,0
1117,40.0,-221.0,-56.0,0
1118,39.0,-223.0,-58.0,0
1119,38.0,-225.0,-53.0,0
1120,36.0,-220.0,-54.0,0
1121,35.0,-224.0,-58.0,0
1122,33.0,-225.0,-55.0,0
1123,33.0,-225.0,-52.0,0
1124,30.0,-225.0,-54.0,0
1125,31.0,-226.0,-54.0,0
1126,29.0,-226.0,-50.0,0
1127,29.0,-232.0,-50.0,0
1128,28.0,-228.0,-50.0,0
1129,24.0,-229.0,-49.0,0
1130,24.0,-231.0,-50.0,0
1131,26.0,-234.0,-47.0,0
1132,26.0,-234.0,-45.0,0
1133,26.0,-233.0,-45.0,0
1134,27.0,-235.0,-41.0,0
1135,28.0,-232.0,-40.0,0
1136,29.0,-234.0,-44.0,0
1137,29.0,-233.0,-36.0,0
1138,32.0,-234.0,-34.0,0
1139,30.0,-234.0,-36.0,0
1140,36.0,-231.0,-32.0,0
1141,33.0,-231.0,-35.0,0
1142,34.0,-225.0,-32.0,0
1143,36.0,-226.0,-32.0,0
1144,37.0,-226.0,-32.0,0
1145,41.0,-227.0,-36.0,0
1146,40.0,-226.0,-38.0,0
1147,46.0,-224.0,-41.0,0
1148,45.0,-225.0,-40.0,0
1149,43.0,-227.0,-44.0,0
1150,45.0,-229.0,-43.0,0
1151,44.0,-231.0,-43.0,0
1152,48.0,-231.0,-43.0,0
1153,49.0,-231.0,-43.0,0
1154,48.0,-236.0,-43.0,0
1155,47.0,-235.0,-43.0,0
1156,47.0,-237.0,-41.0,0
1157,47.0,-237.0,-43.0,0
1158,46.0,-238.0,-43.0,0
1159,46.0,-236.0,-42.0,0
1160,50.0,-239.0,-38.0,0
1161,50.0,-237.0,-38.0,0
1162,50.0,-240.0,-38.0,0
1163,53.0,-243.0,-43.0,0
1164,56.0,-247.0,-42.0,0
1165,60.0,-248.0,-37.0,0
1166,61.0,-248.0,-37.0,0
1167,66.0,-257.0,-37.0,0
1168,68.0,-255.0,-31.0,0
1169,70.0,-259.0,-31.0,0
1170,74.0,-263.0,-27.0,0
1171,72.0,-267.0,-22.0,0
1172,75.0,-273.0,-23.0,0
1173,75.0,-270.0,-19.0,0
1174,71.0,-270.0,-14.0,0
1175,73.0,-274.0,-20.0,0
1176,70.0,-270.0,-10.0,0
1177,68.0,-271.0,-11.0,0
1178,65.0,-267.0,-11.0,0
1179,64.0,-262.0,-13.0,0
1180,61.0,-263.0,-20.0,0
1181,57.0,-257.0,-21.0,0
1182,55.0,-256.0,-24.0,0
1183,48.0,-252.0,-29.0,0
1184,50.0,-256.0,-24.0,0
1185,50.0,-254.0,-29.0,0
1186,43.0,-257.0,-25.0,0
1187,42.0,-257.0,-27.0,0
1188,40.0,-259.0,-31.0,0
1189,36.0,-264.0,-29.0,0
1190,33.0,-266.0,-33.0,0
1191,34.0,-270.0,-35.0,0
1192,35.0,-272.0,-32.0,0
1193,35.0,-274.0,-35.0,0
1194,35.0,-279.0,-42.0,0
1195,37.0,-281.0,-43.0,0
1196,41.0,-282.0,-45.0,0
1197,42.0,-288.0,-52.0,0
1198,48.0,-290.0,-54.0,0
1199,50.0,-292.0,-56.0,0
1200,56.0,-296.0,-59.0,0
1201,60.0,-299.0,-62.0,0
1202,61.0,-304.0,-66.0,0
1203,62.0,-306.0,-65.0,0
1204,62.0,-315.0,-61.0,0
1205,64.0,-319.0,-62.0,0
1206,59.0,-327.0,-61.0,0
1207,61.0,-326.0,-58.0,0
1208,58.0,-328.0,-61.0,0
1209,61.0,-332.0,-59.0,0
1210,64.0,-328.0,-62.0,0
1211,67.0,-327.0,-64.0,0
1212,75.0,-327.0,-70.0,0
1213,80.0,-326.0,-72.0,0
1214,82.0,-325.0,-77.0,0
1215,88.0,-329.0,-77.0,0
1216,95.0,-331.0,-72.0,0
1217,95.0,-329.0,-72.0,0
1218,100.0,-331.0,-69.0,0
1219,102.0,-330.0,-65.0,0
1220,103.0,-330.0,-60.0,0
1221,103.0,-330.0,-59.0,0
1222,99.0,-324.0,-57.0,0
1223,97.0,-322.0,-55.0,0
1224,92.0,-316.0,-59.0,0
1225,86.0,-307.0,-64.0,0
1226,78.0,-302.0,-69.0,0
1227,69.0,-292.0,-77.0,0
1228,63.0,-288.0,-80.0,0
1229,55.0,-281.0,-82.0,0
1230,49.0,-279.0,-85.0,0
1231,35.0,-276.0,-84.0,0
1232,32.0,-281.0,-87.0,0
1233,23.0,-280.0,-88.0,0
1234,15.0,-281.0,-90.0,0
1235,13.0,-279.0,-87.0,0
1236,6.0,-275.0,-87.0,0
1237,6.0,-276.0,-92.0,0
1238,8.0,-274.0,-95.0,0
1239,7.0,-271.0,-93.0,0
1240,6.0,-263.0,-95.0,0
1241,10.0,-259.0,-96.0,0
1242,11.0,-255.0,-96.0,0
1243,19.0,-248.0,-97.0,0
1244,21.0,-245.0,-104.0,0
1245,26.0,-238.0,-105.0,0
1246,29.0,-235.0,-106.0,0
1247,35.0,-233.0,-109.0,0
1248,39.0,-232.0,-108.0,0
1249,39.0,-229.0,-110.0,0
1250,42.0,-231.0,-103.0,0
1251,41.0,-231.0,-106.0,0
1252,44.0,-234.0,-104.0,0
1253,42.0,-235.0,-102.0,0
1254,43.0,-238.0,-96.0,0
1255,43.0,-239.0,-91.0,0
1256,42.0,-243.0,-88.0,0
1257,40.0,-243.0,-91.0,0
1258,34.0,-246.0,-88.0,0
1259,29.0,-246.0,-88.0,0
1260,29.0,-245.0,-88.0,0
1261,26.0,-248.0,-90.0,0
1262,24.0,-250.0,-91.0,0
1263,24.0,-252.0,-95.0,0
1264,19.0,-249.0,-94.0,0
1265,17.0,-252.0,-94.0,0
1266,15.0,-249.0,-93.0,0
1267,14.0,-251.0,-91.0,0
1268,15.0,-251.0,-94.0,0
1269,12.0,-251.0,-92.0,0
1270,10.0,-252.0,-94.0,0
1271,14.0,-255.0,-93.0,0
1272,15.0,-256.0,-99.0,0
1273,18.0,-257.0,-93.0,0
1274,18.0,-256.0,-94.0,0
1275,22.0,-260.0,-98.0,0
1276,20.0,-257.0,-101.0,0
1277,21.0,-261.0,-98.0,0
1278,21.0,-256.0,-98.0,0
1279,32.0,-259.0,-89.0,0
1280,24.0,-256.0,-92.0,0
1281,22.0,-258.0,-92.0,0
1282,19.0,-254.0,-93.0,0
1283,18.0,-254.0,-92.0,0
1284,19.0,-252.0,-92.0,0
1285,16.0,-248.0,-86.0,0
1286,15.0,-245.0,-83.0,0
1287,13.0,-240.0,-87.0,0
1288,12.0,-239.0,-80.0,0
1289,9.0,-239.0,-83.0,0
1290,3.0,-239.0,-81.0,0
1291,7.0,-242.0,-80.0,0
1292,2.0,-240.0,-81.0,0
1293,2.0,-243.0,-84.0,0
1294,0.0,-246.0,-82.0,0
1295,2.0,-249.0,-86.0,0
1296,2.0,-251.0,-79.0,0
1297,2.0,-247.0,-86.0,0
1298,0.0,-252.0,-87.0,0
1299,0.0,-251.0,-90.0,0
1300,1.0,-251.0,-92.0,0
1301,-1.0,-246.0,-86.0,0
1302,0.0,-247.0,-86.0,0
1303,0.0,-241.0,-91.0,0
1304,1.0,-239.0,-86.0,0
1305,-4.0,-239.0,-87.0,0
1306,0.0,-236.0,-85.0,0
1307,-3.0,-231.0,-87.0,0
1308,-5.0,-231.0,-90.0,0
1309,-7.0,-228.0,-85.0,0
1310,-6.0,-229.0,-85.0,0
1311,-4.0,-232.0,-87.0,0
1312,-8.0,-233.0,-85.0,0
1313,-7.0,-238.0,-83.0,0
1314,-8.0,-239.0,-81.0,0
1315,-6.0,-244.0,-75.0,0
1316,-9.0,-245.0,-74.0,0
1317,-5.0,-245.0,-72.0,0
1318,-7.0,-247.0,-71.0,0
1319,-4.0,-247.0,-67.0,0
1320,0.0,-248.0,-67.0,0
1321,1.0,-243.0,-67.0,0
1322,0.0,-242.0,-64.0,0
1323,0.0,-238.0,-67.0,0
1324,2.0,-234.0,-65.0,0
1325,1.0,-232.0,-67.0,0
1326,4.0,-230.0,-66.0,0
1327,3.0,-229.0,-68.0,0
1328,9.0,-229.0,-69.0,0
1329,4.0,-229.0,-67.0,0
1330,5.0,-227.0,-66.0,0
1331,5.0,-229.0,-65.0,0
1332,8.0,-230.0,-63.0,0
1333,6.0,-228.0,-65.0,0
1334,6.0,-232.0,-62.0,0
1335,8.0,-231.0,-61.0,0
1336,5.0,-233.0,-62.0,0
1337,3.0,-230.0,-62.0,0
1338,4.0,-233.0,-60.0,0
1339,1.0,-235.0,-58.0,0
1340,1.0,-235.0,-53.0,0
1341,1.0,-237.0,-58.0,0
1342,0.0,-235.0,-55.0,0
1343,0.0,-238.0,-53.0,0
1344,0.0,-237.0,-54.0,0
1345,-2.0,-239.0,-57.0,0
1346,-10.0,-241.0,-55.0,0
1347,-8.0,-242.0,-55.0,0
1348,-9.0,-237.0,-50.0,0
1349,-12.0,-242.0,-50.0,0
1350,-13.0,-242.0,-50.0,0
1351,-10.0,-245.0,-47.0,0
1352,-15.0,-243.0,-48.0,0
1353,-14.0,-246.0,-49.0,0
1354,-15.0,-244.0,-51.0,0
1355,-15.0,-248.0,-46.0,0
1356,-16.0,-246.0,-50.0,0
1357,-13.0,-251.0,-50.0,0
1358,-18.0,-250.0,-49.0,0
1359,-18.0,-252.0,-49.0,0
1360,-18.0,-257.0,-47.0,0
1361,-19.0,-254.0,-46.0,0
1362,-16.0,-257.0,-47.0,0
1363,-15.0,-256.0,-48.0,0
1364,-16.0,-257.0,-39.0,0
1365,-13.0,-258.0,-35.0,0
1366,-15.0,-256.0,-36.0,0
1367,-26.0,-272.0,-28.0,0
1368,-13.0,-253.0,-38.0,0
1369,-13.0,-255.0,-36.0,0
1370,-6.0,-254.0,-37.0,0
1371,-6.0,-250.0,-38.0,0
1372,-4.0,-250.0,-44.0,0
1373,-6.0,-247.0,-38.0,0
1374,-3.0,-247.0,-40.0,0
1375,0.0,-247.0,-39.0,0
1376,0.0,-245.0,-37.0,0
1377,7.0,-236.0,-39.0,0
1378,-5.0,-245.0,-36.0,0
1379,-5.0,-244.0,-35.0,0
1380,-6.0,-243.0,-32.0,0
1381,-8.0,-245.0,-31.0,0
1382,-8.0,-248.0,-33.0,0
1383,-11.0,-247.0,-30.0,0
1384,-10.0,-248.0,-34.0,0
1385,-14.0,-248.0,-38.0,0
1386,-13.0,-249.0,-35.0,0
1387,-14.0,-251.0,-34.0,0
1388,-15.0,-253.0,-42.0,0
1389,-12.0,-253.0,-38.0,0
1390,-17.0,-253.0,-42.0,0
1391,-11.0,-256.0,-39.0,0
1392,-15.0,-256.0,-44.0,0
1393,-12.0,-256.0,-42.0,0
1394,-14.0,-261.0,-37.0,0
1395,-13.0,-262.0,-44.0,0
1396,-16.0,-266.0,-43.0,0
1397,-17.0,-269.0,-41.0,0
1398,-15.0,-271.0,-44.0,0
1399,-18.0,-272.0,-45.0,0
1400,-15.0,-275.0,-48.0,0
1401,-18.0,-280.0,-43.0,0
1402,-22.0,-280.0,-49.0,0
1403,-22.0,-283.0,-47.0,0
1404,-22.0,-288.0,-49.0,0
1405,-23.0,-286.0,-48.0,0
1406,-22.0,-294.0,-52.0,0
1407,-19.0,-295.0,-47.0,0
1408,-19.0,-296.0,-47.0,0
1409,-22.0,-295.0,-44.0,0
1410,-20.0,-296.0,-46.0,0
1411,-22.0,-294.0,-48.0,0
1412,-24.0,-294.0,-56.0,0
1413,-24.0,-291.0,-49.0,0
1414,-31.0,-292.0,-54.0,0
1415,-36.0,-287.0,-55.0,0
1416,-36.0,-284.0,-53.0,0
1417,-39.0,-278.0,-55.0,0
1418,-39.0,-275.0,-52.0,0
1419,-42.0,-274.0,-50.0,0
1420,-43.0,-273.0,-47.0,0
1421,-37.0,-272.0,-44.0,0
1422,-37.0,-268.0,-38.0,0
1423,-35.0,-273.0,-35.0,0
1424,-33.0,-271.0,-36.0,0
1425,-33.0,-276.0,-38.0,0
1426,-30.0,-280.0,-39.0,0
1427,-28.0,-280.0,-33.0,0
1428,-25.0,-284.0,-49.0,0
1429,-20.0,-289.0,-48.0,0
1430,-16.0,-294.0,-53.0,0
1431,-14.0,-297.0,-57.0,0
1432,-12.0,-300.0,-51.0,0
1433,-4.0,-306.0,-57.0,0
1434,-5.0,-306.0,-57.0,0
1435,-4.0,-308.0,-56.0,0
1436,-3.0,-313.0,-54.0,0
1437,-4.0,-311.0,-60.0,0
1438,-7.0,-312.0,-61.0,0
1439,-11.0,-308.0,-64.0,0
1440,-15.0,-307.0,-64.0,0
1441,-20.0,-307.0,-68.0,0
1442,-20.0,-306.0,-67.0,0
1443,-28.0,-302.0,-69.0,0
1444,-28.0,-300.0,-71.0,0
1445,-32.0,-297.0,-73.0,0
1446,-33.0,-296.0,-70.0,0
1447,-33.0,-290.0,-79.0,0
1448,-30.0,-295.0,-75.0,0
1449,-30.0,-293.0,-76.0,0
1450,-28.0,-290.0,-80.0,0
1451,-27.0,-290.0,-83.0,0
1452,-24.0,-291.0,-80.0,0
1453,-21.0,-290.0,-83.0,0
1454,-16.0,-291.0,-89.0,0
1455,-15.0,-292.0,-94.0,0
1456,-12.0,-287.0,-95.0,0
1457,-8.0,-284.0,-92.0,0
1458,0.0,-282.0,-100.0,0
1459,0.0,-282.0,-98.0,0
1460,3.0,-277.0,-99.0,0
1461,5.0,-277.0,-99.0,0
1462,11.0,-275.0,-100.0,0
1463,18.0,-269.0,-110.0,0
1464,11.0,-267.0,-104.0,0
1465,8.0,-262.0,-104.0,0
1466,6.0,-265.0,-108.0,0
1467,6.0,-263.0,-108.0,0
1468,1.0,-263.0,-112.0,0
1469,2.0,-268.0,-111.0,0
1470,1.0,-265.0,-110.0,0
1471,2.0,-269.0,-110.0,0
1472,-1.0,-268.0,-111.0,0
1473,3.0,-273.0,-107.0,0
1474,2.0,-272.0,-106.0,0
1475,2.0,-272.0,-105.0,0
1476,5.0,-274.0,-105.0,0
1477,6.0,-269.0,-102.0,0
1478,6.0,-270.0,-100.0,0
1479,7.0,-269.0,-97.0,0
1480,9.0,-267.0,-101.0,0
1481,8.0,-262.0,-102.0,0
1482,10.0,-263.0,-105.0,0
1483,7.0,-261.0,-103.0,0
1484,7.0,-260.0,-102.0,0
1485,3.0,-260.0,-104.0,0
1486,5.0,-260.0,-95.0,0
1487,4.0,-261.0,-100.0,0
1488,7.0,-260.0,-91.0,0
1489,5.0,-262.0,-88.0,0
1490,6.0,-260.0,-90.0,0
1491,9.0,-261.0,-85.0,0
1492,6.0,-259.0,-80.0,0
1493,9.0,-258.0,-76.0,0
1494,6.0,-256.0,-78.0,0
1495,8.0,-256.0,-79.0,0
1496,7.0,-250.0,-78.0,0
1497,7.0,-251.0,-77.0,0
1498,5.0,-251.0,-82.0,0
1499,6.0,-248.0,-79.0,0
1500,10.0,-248.0,-81.0,0
1501,13.0,-247.0,-82.0,0
1502,14.0,-244.0,-81.0,0
1503,14.0,-245.0,-82.0,0
1504,18.0,-243.0,-85.0,0
1505,21.0,-240.0,-83.0,0
1506,21.0,-241.0,-84.0,0
1507,24.0,-240.0,-81.0,0
1508,27.0,-239.0,-82.0,0
1509,31.0,-239.0,-85.0,0
1510,32.0,-235.0,-79.0,0
1511,36.0,-234.0,-78.0,0
1512,38.0,-235.0,-82.0,0
1513,39.0,-230.0,-76.0,0
1514,38.0,-230.0,-76.0,0
1515,39.0,-232.0,-76.0,0
1516,38.0,-231.0,-76.0,0
1517,39.0,-231.0,-70.0,0
1518,41.0,-231.0,-73.0,0
1519,39.0,-230.0,-72.0,0
1520,36.0,-228.0,-76.0,0
1521,34.0,-232.0,-71.0,0
1522,35.0,-230.0,-67.0,0
1523,30.0,-233.0,-70.0,0
1524,26.0,-230.0,-67.0,0
1525,26.0,-232.0,-69.0,0
1526,25.0,-234.0,-67.0,0
1527,24.0,-236.0,-63.0,0
1528,24.0,-235.0,-64.0,0
1529,20.0,-238.0,-63.0,0
1530,18.0,-237.0,-60.0,0
1531,19.0,-236.0,-58.0,0
1532,19.0,-237.0,-58.0,0
1533,19.0,-238.0,-62.0,0
1534,19.0,-235.0,-55.0,0
1535,17.0,-235.0,-55.0,0
1536,19.0,-237.0,-59.0,0
1537,21.0,-237.0,-60.0,0
1538,20.0,-237.0,-53.0,0
1539,24.0,-238.0,-51.0,0
1540,21.0,-237.0,-51.0,0
1541,24.0,-235.0,-44.0,0
1542,31.0,-237.0,-41.0,0
1543,32.0,-237.0,-35.0,0
1544,35.0,-235.0,-33.0,0
1545,38.0,-232.0,-38.0,0
1546,39.0,-229.0,-33.0,0
1547,44.0,-231.0,-34.0,0
1548,48.0,-228.0,-32.0,0
1549,47.0,-227.0,-37.0,0
1550,52.0,-227.0,-35.0,0
1551,50.0,-223.0,-40.0,0
1552,52.0,-219.0,-41.0,0
1553,52.0,-219.0,-39.0,0
1554,51.0,-219.0,-46.0,0
1555,51.0,-218.0,-41.0,0
1556,50.0,-220.0,-46.0,0
1557,52.0,-221.0,-44.0,0
1558,50.0,-220.0,-44.0,0
1559,54.0,-221.0,-43.0,0
1560,54.0,-226.0,-46.0,0
1561,55.0,-236.0,-33.0,0
1562,52.0,-229.0,-45.0,0
1563,52.0,-232.0,-42.0,0
1564,52.0,-235.0,-40.0,0
1565,49.0,-237.0,-39.0,0
1566,46.0,-238.0,-41.0,0
1567,49.0,-244.0,-40.0,0
1568,50.0,-239.0,-33.0,0
1569,53.0,-244.0,-35.0,0
1570,51.0,-243.0,-31.0,0
1571,50.0,-245.0,-33.0,0
1572,53.0,-250.0,-43.0,0
1573,57.0,-254.0,-27.0,0
1574,55.0,-252.0,-35.0,0
1575,57.0,-256.0,-27.0,0
1576,59.0,-256.0,-31.0,0
1577,62.0,-257.0,-32.0,0
1578,62.0,-262.0,-30.0,0
1579,64.0,-263.0,-25.0,0
1580,64.0,-264.0,-25.0,0
1581,65.0,-265.0,-26.0,0
1582,63.0,-269.0,-23.0,0
1583,65.0,-269.0,-24.0,0
1584,64.0,-267.0,-28.0,0
1585,62.0,-266.0,-28.0,0
1586,63.0,-263.0,-32.0,0
1587,59.0,-263.0,-33.0,0
1588,58.0,-258.0,-36.0,0
1589,55.0,-259.0,-29.0,0
1590,53.0,-254.0,-31.0,0
1591,53.0,-254.0,-27.0,0
1592,50.0,-252.0,-27.0,0
1593,53.0,-251.0,-21.0,0
1594,52.0,-247.0,-23.0,0
1595,51.0,-246.0,-21.0,0
1596,51.0,-248.0,-20.0,0
1597,54.0,-250.0,-21.0,0
1598,52.0,-250.0,-17.0,0
1599,55.0,-253.0,-18.0,0
1600,55.0,-255.0,-22.0,0
1601,55.0,-258.0,-20.0,0
1602,58.0,-262.0,-19.0,0
1603,57.0,-266.0,-22.0,0
1604,58.0,-272.0,-25.0,0
1605,55.0,-276.0,-28.0,0
1606,51.0,-276.0,-26.0,0
1607,50.0,-279.0,-30.0,0
1608,50.0,-282.0,-33.0,0
1609,52.0,-287.0,-32.0,0
1610,52.0,-288.0,-38.0,0
1611,50.0,-292.0,-36.0,0
1612,51.0,-294.0,-36.0,0
1613,50.0,-298.0,-38.0,0
1614,51.0,-298.0,-35.0,0
1615,51.0,-301.0,-37.0,0
1616,55.0,-305.0,-35.0,0
1617,51.0,-311.0,-35.0,0
1618,52.0,-318.0,-33.0,0
1619,46.0,-322.0,-34.0,0
1620,40.0,-331.0,-31.0,0
1621,34.0,-334.0,-37.0,0
1622,28.0,-339.0,-45.0,0
1623,24.0,-336.0,-52.0,0
1624,19.0,-330.0,-57.0,0
1625,20.0,-324.0,-66.0,0
1626,18.0,-315.0,-71.0,0
1627,23.0,-306.0,-75.0,0
1628,27.0,-301.0,-78.0,0
1629,38.0,-298.0,-75.0,0
1630,45.0,-301.0,-72.0,0
1631,55.0,-297.0,-66.0,0
1632,61.0,-301.0,-57.0,0
1633,68.0,-305.0,-50.0,0
1634,70.0,-308.0,-45.0,0
1635,75.0,-311.0,-38.0,0
1636,78.0,-314.0,-37.0,0
1637,82.0,-314.0,-29.0,0
1638,85.0,-316.0,-36.0,0
1639,87.0,-316.0,-38.0,0
1640,88.0,-315.0,-43.0,0
1641,85.0,-319.0,-48.0,0
1642,85.0,-315.0,-59.0,0
1643,78.0,-315.0,-65.0,0
1644,72.0,-312.0,-75.0,0
1645,65.0,-308.0,-79.0,0
1646,59.0,-304.0,-87.0,0
1647,41.0,-303.0,-97.0,0
1648,49.0,-302.0,-94.0,0
1649,46.0,-296.0,-93.0,0
1650,40.0,-292.0,-95.0,0
1651,37.0,-291.0,-96.0,0
1652,30.0,-285.0,-93.0,0
1653,27.0,-282.0,-96.0,0
1654,24.0,-272.0,-94.0,0
1655,23.0,-266.0,-96.0,0
1656,20.0,-257.0,-100.0,0
1657,19.0,-249.0,-105.0,0
1658,24.0,-249.0,-104.0,0
1659,25.0,-242.0,-113.0,0
1660,26.0,-238.0,-118.0,0
1661,29.0,-232.0,-120.0,0
1662,33.0,-231.0,-122.0,0
1663,31.0,-231.0,-120.0,0
1664,34.0,-240.0,-113.0,0
1665,37.0,-243.0,-114.0,0
1666,38.0,-250.0,-107.0,0
1667,31.0,-249.0,-102.0,0
1668,37.0,-254.0,-100.0,0
1669,37.0,-258.0,-93.0,0
1670,30.0,-258.0,-89.0,0
1671,31.0,-265.0,-94.0,0
1672,27.0,-264.0,-94.0,0
1673,22.0,-263.0,-95.0,0
1674,21.0,-264.0,-94.0,0
1675,15.0,-264.0,-100.0,0
1676,14.0,-258.0,-102.0,0
1677,12.0,-256.0,-104.0,0
1678,9.0,-253.0,-103.0,0
1679,11.0,-250.0,-106.0,0
1680,12.0,-249.0,-102.0,0
1681,13.0,-250.0,-101.0,0
1682,12.0,-248.0,-100.0,0
1683,14.0,-248.0,-98.0,0
1684,13.0,-247.0,-96.0,0
1685,17.0,-246.0,-89.0,0
1686,19.0,-246.0,-87.0,0
1687,22.0,-247.0,-85.0,0
1688,23.0,-245.0,-82.0,0
1689,25.0,-244.0,-84.0,0
1690,30.0,-248.0,-82.0,0
1691,27.0,-249.0,-80.0,0
1692,29.0,-247.0,-78.0,0
1693,28.0,-247.0,-75.0,0
1694,30.0,-248.0,-79.0,0
1695,20.0,-242.0,-82.0,0
1696,17.0,-243.0,-81.0,0
1697,17.0,-240.0,-78.0,0
1698,14.0,-237.0,-80.0,0
1699,9.0,-237.0,-80.0,0
1700,6.0,-233.0,-80.0,0
1701,3.0,-234.0,-81.0,0
1702,-2.0,-229.0,-82.0,0
1703,1.0,-232.0,-81.0,0
1704,-1.0,-230.0,-80.0,0
1705,0.0,-231.0,-83.0,0
1706,-2.0,-233.0,-81.0,0
1707,0.0,-235.0,-77.0,0
1708,-5.0,-235.0,-78.0,0
1709,-5.0,-235.0,-81.0,0
1710,-5.0,-234.0,-73.0,0
1711,-4.0,-236.0,-73.0,0
1712,-4.0,-237.0,-73.0,0
1713,-2.0,-237.0,-72.0,0
1714,0.0,-235.0,-72.0,0
1715,-4.0,-237.0,-74.0,0
1716,-1.0,-238.0,-74.0,0
1717,-2.0,-237.0,-71.0,0
1718,0.0,-236.0,-67.0,0
1719,2.0,-239.0,-71.0,0
1720,1.0,-238.0,-68.0,0
1721,0.0,-238.0,-68.0,0
1722,0.0,-240.0,-69.0,0
1723,-1.0,-240.0,-69.0,0
1724,0.0,-238.0,-69.0,0
1725,0.0,-240.0,-71.0,0
1726,-4.0,-238.0,-68.0,0
1727,-4.0,-240.0,-66.0,0
1728,0.0,-242.0,-70.0,0
1729,-2.0,-238.0,-66.0,0
1730,-6.0,-239.0,-66.0,0
1731,-3.0,-235.0,-70.0,0
1732,-5.0,-236.0,-69.0,0
1733,-3.0,-235.0,-67.0,0
1734,-6.0,-233.0,-66.0,0
1735,-2.0,-230.0,-63.0,0
1736,-5.0,-233.0,-64.0,0
1737,-5.0,-232.0,-61.0,0
1738,-5.0,-228.0,-59.0,0
1739,-2.0,-232.0,-59.0,0
1740,-5.0,-232.0,-58.0,0
1741,-6.0,-232.0,-56.0,0
1742,-7.0,-232.0,-59.0,0
1743,-5.0,-235.0,-59.0,0
1744,-8.0,-234.0,-59.0,0
1745,-3.0,-223.0,-40.0,0
1746,-11.0,-238.0,-59.0,0
1747,-11.0,-237.0,-58.0,0
1748,-9.0,-240.0,-51.0,0
1749,-8.0,-239.0,-56.0,0
1750,-6.0,-243.0,-54.0,0
1751,-12.0,-240.0,-56.0,0
1752,-11.0,-243.0,-53.0,0
1753,-10.0,-245.0,-55.0,0
1754,-9.0,-243.0,-56.0,0
1755,-9.0,-245.0,-53.0,0
1756,-6.0,-249.0,-45.0,0
1757,-8.0,-242.0,-53.0,0
1758,-5.0,-243.0,-49.0,0
1759,-2.0,-241.0,-48.0,0
1760,-3.0,-239.0,-43.0,0
1761,-3.0,-239.0,-46.0,0
1762,-4.0,-239.0,-43.0,0
1763,-2.0,-234.0,-43.0,0
1764,-3.0,-237.0,-44.0,0
1765,-4.0,-234.0,-43.0,0
1766,-6.0,-232.0,-44.0,0
1767,-2.0,-234.0,-41.0,0
1768,-6.0,-230.0,-39.0,0
1769,-7.0,-230.0,-35.0,0
1770,-6.0,-231.0,-38.0,0
1771,-2.0,-228.0,-40.0,0
1772,-7.0,-229.0,-37.0,0
1773,-4.0,-230.0,-37.0,0
1774,-6.0,-230.0,-36.0,0
1775,-5.0,-228.0,-36.0,0
1776,-5.0,-233.0,-36.0,0
1777,-5.0,-231.0,-35.0,0
1778,-6.0,-235.0,-35.0,0
1779,-9.0,-240.0,-36.0,0
1780,-9.0,-237.0,-38.0,0
1781,-11.0,-242.0,-36.0,0
1782,-12.0,-247.0,-34.0,0
1783,-11.0,-250.0,-35.0,0
1784,-13.0,-255.0,-34.0,0
1785,-14.0,-255.0,-33.0,0
1786,-15.0,-256.0,-34.0,0
1787,-18.0,-259.0,-34.0,0
1788,-16.0,-262.0,-38.0,0
1789,-19.0,-265.0,-36.0,0
1790,-22.0,-267.0,-37.0,0
1791,-25.0,-267.0,-36.0,0
1792,-26.0,-266.0,-41.0,0
1793,-27.0,-272.0,-40.0,0
1794,-26.0,-272.0,-40.0,0
1795,-25.0,-273.0,-39.0,0
1796,-27.0,-276.0,-44.0,0
1797,-24.0,-280.0,-43.0,0
1798,-26.0,-276.0,-47.0,0
1799,-27.0,-278.0,-44.0,0
1800,-25.0,-280.0,-51.0,0
1801,-24.0,-276.0,-53.0,0
1802,-27.0,-278.0,-50.0,0
1803,-31.0,-277.0,-50.0,0
1804,-30.0,-278.0,-51.0,0
1805,-26.0,-279.0,-50.0,0
1806,-27.0,-279.0,-48.0,0
1807,-30.0,-280.0,-44.0,0
1808,-32.0,-285.0,-45.0,0
1809,-33.0,-287.0,-47.0,0
1810,-31.0,-291.0,-44.0,0
1811,-34.0,-293.0,-44.0,0
1812,-31.0,-301.0,-48.0,0
1813,-31.0,-306.0,-48.0,0
1814,-26.0,-311.0,-47.0,0
1815,-29.0,-318.0,-43.0,0
1816,-26.0,-325.0,-42.0,0
1817,-22.0,-331.0,-46.0,0
1818,-19.0,-335.0,-43.0,0
1819,-18.0,-341.0,-45.0,0
1820,-18.0,-343.0,-46.0,0
1821,-23.0,-339.0,-49.0,0
1822,-30.0,-337.0,-54.0,0
1823,-34.0,-331.0,-58.0,0
1824,-38.0,-326.0,-63.0,0
1825,-38.0,-321.0,-68.0,0
1826,-41.0,-319.0,-69.0,0
1827,-45.0,-316.0,-72.0,0
1828,-44.0,-312.0,-74.0,0
1829,-44.0,-315.0,-79.0,0
1830,-45.0,-314.0,-75.0,0
1831,-47.0,-314.0,-71.0,0
1832,-48.0,-318.0,-66.0,0
1833,-45.0,-319.0,-64.0,0
1834,-42.0,-322.0,-62.0,0
1835,-41.0,-319.0,-61.0,0
1836,-35.0,-318.0,-65.0,0
1837,-35.0,-312.0,-72.0,0
1838,-33.0,-306.0,-72.0,0
1839,-28.0,-299.0,-75.0,0
1840,-26.0,-291.0,-79.0,0
1841,-26.0,-284.0,-77.0,0
1842,-17.0,-283.0,-66.0,0
1843,-22.0,-272.0,-88.0,0
1844,-18.0,-266.0,-86.0,0
1845,-15.0,-259.0,-91.0,0
1846,-14.0,-256.0,-92.0,0
1847,-13.0,-256.0,-87.0,0
1848,-11.0,-257.0,-89.0,0
1849,-5.0,-258.0,-88.0,0
1850,-4.0,-259.0,-86.0,0
1851,-5.0,-260.0,-86.0,0
1852,-7.0,-263.0,-95.0,0
1853,-9.0,-266.0,-85.0,0
1854,-15.0,-264.0,-87.0,0
1855,-13.0,-267.0,-85.0,0
1856,-16.0,-267.0,-88.0,0
1857,-14.0,-270.0,-94.0,0
1858,-14.0,-271.0,-93.0,0
1859,-17.0,-267.0,-96.0,0
1860,-18.0,-269.0,-102.0,0
1861,-20.0,-265.0,-80.0,0
1862,-12.0,-267.0,-92.0,0
1863,-13.0,-267.0,-92.0,0
1864,-13.0,-265.0,-89.0,0
1865,-14.0,-267.0,-89.0,0
1866,-10.0,-264.0,-86.0,0
1867,-10.0,-265.0,-81.0,0
1868,-7.0,-260.0,-80.0,0
1869,-5.0,-263.0,-84.0,0
1870,-3.0,-259.0,-83.0,0
1871,0.0,-257.0,-83.0,0
1872,0.0,-258.0,-83.0,0
1873,-1.0,-256.0,-88.0,0
1874,-3.0,-248.0,-90.0,0
1875,0.0,-250.0,-86.0,0
1876,-2.0,-248.0,-88.0,0
1877,-7.0,-245.0,-89.0,0
1878,-8.0,-244.0,-97.0,0
1879,-9.0,-242.0,-90.0,0
1880,-7.0,-239.0,-92.0,0
1881,-8.0,-238.0,-88.0,0
1882,-10.0,-244.0,-89.0,0
1883,-9.0,-237.0,-87.0,0
1884,-11.0,-240.0,-88.0,0
1885,-9.0,-236.0,-87.0,0
1886,-13.0,-239.0,-84.0,0
1887,-15.0,-238.0,-80.0,0
1888,-12.0,-240.0,-81.0,0
1889,-16.0,-241.0,-78.0,0
1890,-16.0,-243.0,-74.0,0
1891,-17.0,-242.0,-78.0,0
1892,-15.0,-245.0,-72.0,0
1893,-12.0,-248.0,-70.0,0
1894,-11.0,-245.0,-72.0,0
1895,-9.0,-249.0,-69.0,0
1896,-8.0,-249.0,-68.0,0
1897,1.0,-247.0,-72.0,0
1898,-1.0,-251.0,-71.0,0
1899,0.0,-250.0,-74.0,0
1900,5.0,-250.0,-76.0,0
1901,6.0,-246.0,-74.0,0
1902,6.0,-244.0,-79.0,0
1903,9.0,-247.0,-80.0,0
1904,14.0,-245.0,-79.0,0
1905,13.0,-243.0,-78.0,0
1906,16.0,-244.0,-76.0,0
1907,17.0,-244.0,-76.0,0
1908,16.0,-242.0,-73.0,0
1909,19.0,-242.0,-76.0,0
1910,18.0,-243.0,-71.0,0
1911,18.0,-238.0,-70.0,0
1912,17.0,-237.0,-69.0,0
1913,17.0,-239.0,-69.0,0
1914,14.0,-236.0,-71.0,0
1915,13.0,-238.0,-70.0,0
1916,15.0,-235.0,-66.0,0
1917,17.0,-239.0,-65.0,0
1918,14.0,-240.0,-66.0,0
1919,12.0,-238.0,-59.0,0
1920,14.0,-239.0,-61.0,0
1921,8.0,-237.0,-56.0,0
1922,14.0,-239.0,-55.0,0
1923,10.0,-236.0,-56.0,0
1924,12.0,-233.0,-60.0,0
1925,8.0,-232.0,-59.0,0
1926,9.0,-230.0,-58.0,0
1927,6.0,-233.0,-59.0,0
1928,7.0,-228.0,-56.0,0
1929,9.0,-230.0,-51.0,0
1930,5.0,-230.0,-53.0,0
1931,2.0,-229.0,-52.0,0
1932,2.0,-232.0,-53.0,0
1933,3.0,-228.0,-53.0,0
1934,3.0,-230.0,-54.0,0
1935,0.0,-229.0,-52.0,0
1936,0.0,-228.0,-51.0,0
1937,-3.0,-225.0,-51.0,0
1938,-1.0,-226.0,-46.0,0
1939,7.0,-234.0,-45.0,0
1940,0.0,-226.0,-52.0,0
1941,0.0,-223.0,-50.0,0
1942,1.0,-223.0,-54.0,0
1943,0.0,-224.0,-51.0,0
1944,4.0,-223.0,-59.0,0
1945,0.0,-223.0,-58.0,0
1946,2.0,-223.0,-56.0,0
1947,7.0,-223.0,-56.0,0
1948,6.0,-230.0,-60.0,0
1949,9.0,-230.0,-54.0,0
1950,10.0,-228.0,-44.0,0
1951,13.0,-235.0,-60.0,0
1952,12.0,-239.0,-56.0,0
1953,16.0,-242.0,-61.0,0
1954,18.0,-244.0,-60.0,0
1955,17.0,-243.0,-61.0,0
1956,18.0,-245.0,-56.0,0
1957,16.0,-245.0,-54.0,0
1958,15.0,-243.0,-57.0,0
1959,17.0,-248.0,-49.0,0
1960,15.0,-244.0,-46.0,0
1961,14.0,-247.0,-47.0,0
1962,12.0,-249.0,-49.0,0
1963,13.0,-250.0,-43.0,0
1964,15.0,-254.0,-37.0,0
1965,12.0,-251.0,-40.0,0
1966,10.0,-252.0,-37.0,0
1967,11.0,-252.0,-38.0,0
1968,13.0,-251.0,-38.0,0
1969,12.0,-247.0,-42.0,0
1970,16.0,-249.0,-40.0,0
1971,16.0,-247.0,-47.0,0
1972,16.0,-247.0,-48.0,0
1973,18.0,-252.0,-50.0,0
1974,17.0,-254.0,-52.0,0
1975,16.0,-256.0,-48.0,0
1976,19.0,-268.0,-46.0,0
1977,13.0,-270.0,-41.0,0
1978,15.0,-280.0,-39.0,0
1979,17.0,-280.0,-37.0,0
1980,23.0,-287.0,-31.0,0
1981,24.0,-288.0,-34.0,0
1982,33.0,-288.0,-30.0,0
1983,36.0,-286.0,-28.0,0
1984,38.0,-285.0,-34.0,0
1985,46.0,-284.0,-35.0,0
1986,53.0,-275.0,-40.0,0
1987,54.0,-265.0,-50.0,0
1988,50.0,-261.0,-58.0,0
1989,47.0,-258.0,-62.0,0
1990,47.0,-253.0,-67.0,0
1991,43.0,-251.0,-69.0,0
1992,42.0,-252.0,-68.0,0
1993,45.0,-254.0,-65.0,0
1994,43.0,-256.0,-62.0,0
1995,43.0,-260.0,-60.0,0
1996,40.0,-262.0,-56.0,0
1997,40.0,-268.0,-55.0,0
1998,40.0,-268.0,-58.0,0
1999,38.0,-271.0,-60.0,0
2000,33.0,-272.0,-56.0,0
2001,33.0,-272.0,-53.0,0
2002,28.0,-273.0,-49.0,0
2003,27.0,-275.0,-44.0,0
2004,23.0,-272.0,-43.0,0
2005,21.0,-274.0,-37.0,0
2006,15.0,-268.0,-43.0,0
2007,12.0,-267.0,-46.0,0
2008,11.0,-267.0,-50.0,0
2009,3.0,-265.0,-54.0,0
2010,1.0,-268.0,-51.0,0
2011,-5.0,-271.0,-51.0,0
2012,-9.0,-269.0,-51.0,0
2013,-13.0,-274.0,-49.0,0
2014,-22.0,-273.0,-54.0,0
2015,-24.0,-277.0,-46.0,0
2016,-31.0,-279.0,-49.0,0
2017,-35.0,-271.0,-53.0,0
2018,-36.0,-273.0,-51.0,0
2019,-42.0,-269.0,-48.0,0
2020,-42.0,-267.0,-51.0,0
2021,-47.0,-264.0,-56.0,0
2022,-49.0,-260.0,-54.0,0
2023,-54.0,-260.0,-59.0,0
2024,-56.0,-257.0,-52.0,0
2025,-59.0,-256.0,-53.0,0
2026,-59.0,-255.0,-51.0,0
2027,-58.0,-250.0,-49.0,0
2028,-54.0,-253.0,-54.0,0
2029,-54.0,-252.0,-47.0,0
2030,-50.0,-249.0,-48.0,0
2031,-48.0,-247.0,-51.0,0
2032,-41.0,-249.0,-45.0,0
2033,-35.0,-246.0,-47.0,0
2034,-42.0,-244.0,-49.0,0
2035,-23.0,-247.0,-49.0,0
2036,-19.0,-243.0,-49.0,0
2037,-15.0,-241.0,-48.0,0
2038,-13.0,-243.0,-48.0,0
2039,-9.0,-245.0,-53.0,0
2040,-10.0,-243.0,-47.0,0
2041,-5.0,-244.0,-46.0,0
2042,-9.0,-246.0,-45.0,0
2043,-5.0,-245.0,-44.0,0
2044,-6.0,-248.0,-50.0,0
2045,-9.0,-249.0,-42.0,0
2046,-7.0,-251.0,-42.0,0
2047,-8.0,-252.0,-39.0,0
2048,-8.0,-252.0,-34.0,0
2049,-10.0,-255.0,-36.0,0
2050,-4.0,-256.0,-34.0,0
2051,-8.0,-256.0,-36.0,0
2052,-5.0,-259.0,-31.0,0
2053,-1.0,-258.0,-35.0,0
2054,-1.0,-257.0,-33.0,0
2055,1.0,-258.0,-35.0,0
2056,0.0,-262.0,-39.0,0
2057,0.0,-265.0,-38.0,0
2058,3.0,-268.0,-36.0,0
2059,7.0,-270.0,-39.0,0
2060,5.0,-272.0,-35.0,0
2061,8.0,-273.0,-40.0,0
2062,10.0,-273.0,-37.0,0
2063,9.0,-276.0,-37.0,0
2064,11.0,-275.0,-37.0,0
2065,10.0,-272.0,-40.0,0
2066,10.0,-268.0,-44.0,0
2067,13.0,-269.0,-45.0,0
2068,14.0,-270.0,-40.0,0
2069,15.0,-269.0,-41.0,0
2070,12.0,-271.0,-37.0,0
2071,11.0,-262.0,-39.0,0
2072,13.0,-261.0,-38.0,0
2073,8.0,-262.0,-38.0,0
2074,6.0,-261.0,-35.0,0
2075,8.0,-261.0,-33.0,0
2076,6.0,-258.0,-33.0,0
2077,5.0,-258.0,-32.0,0
2078,5.0,-256.0,-33.0,0
2079,5.0,-255.0,-32.0,0
2080,5.0,-253.0,-30.0,0
2081,3.0,-250.0,-33.0,0
2082,2.0,-247.0,-28.0,0
2083,4.0,-249.0,-33.0,0
2084,1.0,-245.0,-34.0,0
2085,4.0,-244.0,-36.0,0
2086,2.0,-245.0,-35.0,0
2087,1.0,-247.0,-39.0,0
2088,2.0,-248.0,-41.0,0
2089,0.0,-248.0,-45.0,0
2090,-1.0,-251.0,-36.0,0
2091,2.0,-253.0,-39.0,0
2092,1.0,-252.0,-41.0,0
2093,0.0,-255.0,-39.0,0
2094,4.0,-255.0,-42.0,0
2095,2.0,-255.0,-39.0,0
2096,4.0,-257.0,-42.0,0
2097,8.0,-263.0,-38.0,0
2098,11.0,-262.0,-40.0,0
2099,10.0,-262.0,-37.0,0
2100,12.0,-268.0,-41.0,0
2101,16.0,-268.0,-37.0,0
2102,19.0,-270.0,-40.0,0
2103,26.0,-270.0,-45.0,0
2104,21.0,-268.0,-42.0,0
2105,26.0,-269.0,-38.0,0
2106,28.0,-272.0,-38.0,0
2107,25.0,-270.0,-33.0,0
2108,28.0,-267.0,-37.0,0
2109,28.0,-268.0,-37.0,0
2110,32.0,-266.0,-37.0,0
2111,34.0,-263.0,-38.0,0
2112,33.0,-268.0,-36.0,0
2113,33.0,-264.0,-39.0,0
2114,29.0,-263.0,-36.0,0
2115,28.0,-262.0,-37.0,0
2116,28.0,-261.0,-35.0,0
2117,28.0,-261.0,-34.0,0
2118,26.0,-262.0,-30.0,0
2119,21.0,-257.0,-28.0,0
2120,23.0,-259.0,-28.0,0
2121,21.0,-263.0,-29.0,0
2122,23.0,-262.0,-29.0,0
2123,22.0,-262.0,-30.0,0
2124,21.0,-260.0,-27.0,0
2125,25.0,-263.0,-29.0,0
2126,26.0,-264.0,-32.0,0
2127,27.0,-262.0,-29.0,0
2128,26.0,-264.0,-32.0,0
2129,28.0,-260.0,-34.0,0
2130,26.0,-261.0,-40.0,0
2131,29.0,-258.0,-31.0,0
2132,29.0,-261.0,-30.0,0
2133,30.0,-262.0,-32.0,0
2134,28.0,-260.0,-29.0,0
2135,31.0,-270.0,-33.0,0
2136,31.0,-266.0,-34.0,0
2137,32.0,-268.0,-37.0,0
2138,29.0,-271.0,-35.0,0
2139,26.0,-273.0,-41.0,0
2140,27.0,-277.0,-45.0,0
2141,27.0,-279.0,-43.0,0
2142,27.0,-276.0,-38.0,0
2143,25.0,-278.0,-33.0,0
2144,24.0,-276.0,-31.0,0
2145,17.0,-269.0,-27.0,0
2146,15.0,-264.0,-16.0,0
2147,13.0,-257.0,-15.0,0
2148,9.0,-254.0,-10.0,0
2149,10.0,-245.0,-6.0,0
2150,7.0,-238.0,-12.0,0
2151,10.0,-232.0,-7.0,0
2152,12.0,-223.0,-11.0,0
2153,15.0,-221.0,-9.0,0
2154,16.0,-218.0,-14.0,0
2155,19.0,-216.0,-16.0,0
2156,21.0,-218.0,-17.0,0
2157,19.0,-220.0,-22.0,0
2158,27.0,-226.0,-15.0,0
2159,27.0,-228.0,-14.0,0
2160,32.0,-238.0,-9.0,0
2161,29.0,-244.0,-8.0,0
2162,35.0,-254.0,-2.0,0
2163,32.0,-255.0,0.0,0
2164,33.0,-259.0,3.0,0
2165,38.0,-264.0,3.0,0
2166,39.0,-269.0,16.0,0
2167,43.0,-268.0,12.0,0
2168,44.0,-270.0,15.0,0
2169,41.0,-268.0,17.0,0
2170,41.0,-270.0,17.0,0
2171,38.0,-269.0,16.0,0
2172,35.0,-270.0,9.0,0
2173,34.0,-279.0,9.0,0
2174,28.0,-281.0,10.0,0
2175,25.0,-287.0,2.0,0
2176,19.0,-295.0,3.0,0
2177,15.0,-301.0,1.0,0
2178,14.0,-306.0,0.0,0
2179,16.0,-309.0,2.0,0
2180,15.0,-312.0,2.0,0
2181,17.0,-307.0,2.0,0
2182,19.0,-306.0,2.0,0
2183,18.0,-301.0,-2.0,0
2184,16.0,-292.0,-4.0,0
2185,18.0,-282.0,0.0,0
2186,16.0,-271.0,-7.0,0
2187,15.0,-260.0,-8.0,0
2188,14.0,-248.0,-10.0,0
2189,17.0,-244.0,-7.0,0
2190,16.0,-240.0,-14.0,0
2191,17.0,-232.0,-14.0,0
2192,19.0,-230.0,-16.0,0
2193,19.0,-228.0,-15.0,0
2194,20.0,-227.0,-17.0,0
2195,23.0,-230.0,-17.0,0
2196,22.0,-232.0,-17.0,0
2197,25.0,-235.0,-16.0,0
2198,26.0,-241.0,-11.0,0
2199,25.0,-243.0,-9.0,0
2200,32.0,-249.0,-5.0,0
2201,31.0,-250.0,-1.0,0
2202,32.0,-253.0,0.0,0
2203,35.0,-255.0,1.0,0
2204,29.0,-257.0,-4.0,0
2205,32.0,-261.0,-6.0,0
2206,31.0,-261.0,0.0,0
2207,27.0,-265.0,3.0,0
2208,32.0,-264.0,0.0,0
2209,32.0,-266.0,0.0,0
2210,29.0,-271.0,-2.0,0
2211,34.0,-276.0,0.0,0
2212,33.0,-275.0,0.0,0
2213,35.0,-280.0,0.0,0
2214,34.0,-283.0,1.0,0
2215,32.0,-284.0,4.0,0
2216,39.0,-292.0,5.0,0
2217,40.0,-296.0,1.0,0
2218,38.0,-289.0,1.0,0
2219,40.0,-288.0,2.0,0
2220,45.0,-288.0,5.0,0
2221,42.0,-286.0,2.0,0
2222,48.0,-287.0,5.0,0
2223,50.0,-284.0,2.0,0
2224,52.0,-278.0,5.0,0
2225,54.0,-276.0,8.0,0
2226,54.0,-268.0,14.0,0
2227,53.0,-266.0,4.0,0
2228,53.0,-261.0,-1.0,0
2229,53.0,-254.0,1.0,0
2230,53.0,-252.0,2.0,0
2231,51.0,-249.0,3.0,0
2232,50.0,-251.0,2.0,0
2233,42.0,-247.0,6.0,0
2234,35.0,-249.0,8.0,0
2235,33.0,-250.0,8.0,0
2236,28.0,-253.0,7.0,0
2237,25.0,-256.0,6.0,0
2238,20.0,-257.0,2.0,0
2239,16.0,-260.0,8.0,0
2240,17.0,-267.0,4.0,0
2241,9.0,-269.0,0.0,0
2242,9.0,-274.0,2.0,0
2243,7.0,-276.0,-2.0,0
2244,4.0,-277.0,-7.0,0
2245,8.0,-278.0,-16.0,0
2246,7.0,-278.0,-24.0,0
2247,8.0,-276.0,-29.0,0
2248,10.0,-272.0,-31.0,0
2249,8.0,-271.0,-35.0,0
2250,16.0,-269.0,-36.0,0
2251,19.0,-264.0,-36.0,0
2252,21.0,-261.0,-36.0,0
2253,25.0,-256.0,-43.0,0
2254,30.0,-254.0,-37.0,0
2255,32.0,-249.0,-37.0,0
2256,32.0,-245.0,-42.0,0
2257,37.0,-247.0,-42.0,0
2258,37.0,-245.0,-42.0,0
2259,31.0,-244.0,-40.0,0
2260,32.0,-249.0,-43.0,0
2261,28.0,-250.0,-37.0,0
2262,28.0,-256.0,-41.0,0
2263,23.0,-260.0,-38.0,0
2264,22.0,-263.0,-41.0,0
2265,16.0,-267.0,-38.0,0
2266,16.0,-269.0,-40.0,0
2267,13.0,-273.0,-41.0,0
2268,11.0,-272.0,-45.0,0
2269,8.0,-277.0,-44.0,0
2270,2.0,-272.0,-48.0,0
2271,1.0,-276.0,-43.0,0
2272,-4.0,-269.0,-42.0,0
2273,-4.0,-266.0,-42.0,0
2274,-9.0,-261.0,-37.0,0
2275,-14.0,-259.0,-34.0,0
2276,-10.0,-250.0,-36.0,0
2277,-13.0,-246.0,-34.0,0
2278,-10.0,-248.0,-34.0,0
2279,-10.0,-241.0,-32.0,0
2280,-6.0,-238.0,-36.0,0
2281,1.0,-239.0,-31.0,0
2282,4.0,-237.0,-27.0,0
2283,7.0,-237.0,-21.0,0
2284,15.0,-239.0,-16.0,0
2285,21.0,-243.0,-17.0,0
2286,23.0,-244.0,-11.0,0
2287,26.0,-249.0,-8.0,0
2288,30.0,-253.0,-1.0,0
2289,38.0,-254.0,2.0,0
2290,38.0,-259.0,5.0,0
2291,41.0,-261.0,6.0,0
2292,40.0,-265.0,1.0,0
2293,38.0,-267.0,6.0,0
2294,35.0,-266.0,1.0,0
2295,31.0,-272.0,2.0,0
2296,25.0,-274.0,0.0,0
2297,17.0,-274.0,2.0,0
2298,14.0,-273.0,-2.0,0
2299,8.0,-274.0,0.0,0
2300,-1.0,-275.0,0.0,0
2301,-7.0,-273.0,-3.0,0
2302,-14.0,-268.0,-2.0,0
2303,-20.0,-267.0,-2.0,0
2304,-22.0,-267.0,-2.0,0
2305,-31.0,-263.0,0.0,0
2306,-34.0,-257.0,-1.0,0
2307,-34.0,-257.0,-5.0,0
2308,-38.0,-248.0,0.0,0
2309,-35.0,-249.0,0.0,0
2310,-33.0,-248.0,-3.0,0
2311,-33.0,-243.0,-2.0,0
2312,-28.0,-240.0,-3.0,0
2313,-23.0,-246.0,13.0,0
2314,-18.0,-239.0,1.0,0
2315,-13.0,-238.0,0.0,0
2316,-6.0,-239.0,4.0,0
2317,0.0,-238.0,7.0,0
2318,6.0,-243.0,6.0,0
2319,9.0,-239.0,4.0,0
2320,17.0,-243.0,3.0,0
2321,16.0,-244.0,4.0,0
2322,18.0,-251.0,4.0,0
2323,24.0,-252.0,7.0,0
2324,23.0,-255.0,2.0,0
2325,24.0,-254.0,0.0,0
2326,22.0,-260.0,0.0,0
2327,20.0,-262.0,-1.0,0
2328,19.0,-266.0,0.0,0
2329,22.0,-270.0,0.0,0
2330,17.0,-273.0,0.0,0
2331,16.0,-270.0,2.0,0
2332,13.0,-268.0,1.0,0
2333,11.0,-268.0,2.0,0
2334,9.0,-268.0,3.0,0
2335,7.0,-260.0,3.0,0
2336,5.0,-260.0,3.0,0
2337,4.0,-256.0,2.0,0
2338,3.0,-254.0,10.0,0
2339,3.0,-247.0,10.0,0
2340,3.0,-248.0,14.0,0
2341,5.0,-244.0,19.0,0
2342,0.0,-239.0,17.0,0
2343,2.0,-233.0,20.0,0
2344,3.0,-234.0,23.0,0
2345,2.0,-232.0,26.0,0
2346,0.0,-233.0,20.0,0
2347,0.0,-238.0,25.0,0
2348,-4.0,-240.0,19.0,0
2349,-8.0,-247.0,21.0,0
2350,-14.0,-252.0,11.0,0
2351,-17.0,-259.0,1.0,0
2352,-23.0,-265.0,-15.0,0
2353,-27.0,-279.0,-37.0,0
2354,-31.0,-291.0,-53.0,0
2355,-33.0,-302.0,-62.0,0
2356,-31.0,-311.0,-64.0,0
2357,-22.0,-320.0,-62.0,0
2358,-18.0,-318.0,-48.0,0
2359,-12.0,-322.0,-37.0,0
2360,-9.0,-316.0,-24.0,0
2361,-7.0,-308.0,-15.0,0
2362,-11.0,-303.0,-12.0,0
2363,-1.0,-296.0,-11.0,0
2364,0.0,-284.0,-10.0,0
2365,3.0,-276.0,-15.0,0
2366,3.0,-264.0,-20.0,0
2367,8.0,-259.0,-22.0,0
2368,12.0,-254.0,-27.0,0
2369,13.0,-248.0,-25.0,0
2370,19.0,-243.0,-24.0,0
2371,22.0,-241.0,-29.0,0
2372,26.0,-238.0,-23.0,0
2373,28.0,-237.0,-21.0,0
2374,29.0,-237.0,-24.0,0
2375,32.0,-238.0,-24.0,0
2376,37.0,-236.0,-24.0,0
2377,37.0,-233.0,-27.0,0
2378,38.0,-235.0,-35.0,0
2379,41.0,-232.0,-36.0,0
2380,41.0,-233.0,-42.0,0
2381,47.0,-232.0,-41.0,0
2382,44.0,-232.0,-44.0,0
2383,42.0,-234.0,-44.0,0
2384,40.0,-237.0,-41.0,0
2385,39.0,-239.0,-37.0,0
2386,36.0,-249.0,-37.0,0
2387,29.0,-253.0,-34.0,0
2388,30.0,-261.0,-31.0,0
2389,27.0,-262.0,-26.0,0
2390,28.0,-271.0,-20.0,0
2391,21.0,-275.0,-17.0,0
2392,20.0,-280.0,-11.0,0
2393,15.0,-284.0,-9.0,0
2394,15.0,-290.0,-4.0,0
2395,19.0,-293.0,0.0,0
2396,14.0,-295.0,1.0,0
2397,15.0,-293.0,-1.0,0
2398,17.0,-293.0,1.0,0
2399,14.0,-293.0,1.0,0
2400,24.0,-291.0,-4.0,0
2401,27.0,-290.0,-9.0,0
2402,32.0,-289.0,-12.0,0
2403,32.0,-287.0,-19.0,0
2404,40.0,-282.0,-19.0,0
2405,39.0,-278.0,-19.0,0
2406,40.0,-278.0,-22.0,0
2407,43.0,-272.0,-24.0,0
2408,44.0,-268.0,-22.0,0
2409,42.0,-263.0,-21.0,0
2410,45.0,-247.0,-40.0,0
2411,40.0,-257.0,-18.0,0
2412,40.0,-256.0,-23.0,0
2413,38.0,-252.0,-17.0,0
2414,36.0,-248.0,-23.0,0
2415,36.0,-247.0,-20.0,0
2416,34.0,-247.0,-19.0,0
2417,30.0,-246.0,-14.0,0
2418,28.0,-242.0,-17.0,0
2419,27.0,-242.0,-13.0,0
2420,26.0,-243.0,-8.0,0
2421,20.0,-239.0,-9.0,0
2422,19.0,-238.0,-7.0,0
2423,19.0,-240.0,-5.0,0
2424,18.0,-242.0,-4.0,0
2425,16.0,-246.0,-4.0,0
2426,16.0,-244.0,-3.0,0
2427,16.0,-247.0,0.0,0
2428,18.0,-246.0,-1.0,0
2429,17.0,-249.0,-1.0,0
2430,22.0,-252.0,0.0,0
2431,19.0,-254.0,2.0,0
2432,21.0,-254.0,0.0,0
2433,22.0,-256.0,1.0,0
2434,22.0,-256.0,0.0,0
2435,28.0,-256.0,0.0,0
2436,28.0,-255.0,2.0,0
2437,29.0,-256.0,-5.0,0
2438,30.0,-255.0,-1.0,0
2439,29.0,-254.0,-1.0,0
2440,31.0,-251.0,-4.0,0
2441,31.0,-250.0,-1.0,0
2442,29.0,-248.0,1.0,0
2443,34.0,-248.0,4.0,0
2444,36.0,-245.0,1.0,0
2445,36.0,-241.0,3.0,0
2446,35.0,-239.0,5.0,0
2447,33.0,-233.0,6.0,0
2448,30.0,-235.0,3.0,0
2449,32.0,-234.0,3.0,0
2450,29.0,-233.0,6.0,0
2451,24.0,-237.0,9.0,0
2452,26.0,-238.0,6.0,0
2453,25.0,-239.0,10.0,0
2454,20.0,-242.0,10.0,0
2455,23.0,-242.0,14.0,0
2456,22.0,-244.0,16.0,0
2457,20.0,-247.0,11.0,0
2458,23.0,-248.0,11.0,0
2459,20.0,-250.0,14.0,0
2460,21.0,-250.0,10.0,0
2461,26.0,-253.0,12.0,0
2462,25.0,-252.0,10.0,0
2463,24.0,-249.0,9.0,0
2464,25.0,-250.0,11.0,0
2465,26.0,-250.0,12.0,0
2466,27.0,-250.0,12.0,0
2467,28.0,-250.0,15.0,0
2468,28.0,-249.0,13.0,0
2469,28.0,-253.0,15.0,0
2470,25.0,-245.0,15.0,0
2471,25.0,-245.0,15.0,0
2472,26.0,-241.0,14.0,0
2473,26.0,-243.0,14.0,0
2474,28.0,-241.0,16.0,0
2475,25.0,-236.0,12.0,0
2476,27.0,-231.0,11.0,0
2477,26.0,-230.0,11.0,0
2478,29.0,-225.0,12.0,0
2479,28.0,-225.0,11.0,0
2480,26.0,-222.0,9.0,0
2481,26.0,-222.0,6.0,0
2482,24.0,-221.0,6.0,0
2483,26.0,-224.0,4.0,0
2484,25.0,-224.0,0.0,0
2485,24.0,-225.0,0.0,0
2486,23.0,-229.0,4.0,0
2487,22.0,-232.0,0.0,0
2488,26.0,-241.0,3.0,0
2489,22.0,-235.0,5.0,0
2490,23.0,-239.0,5.0,0
2491,21.0,-241.0,10.0,0
2492,22.0,-242.0,13.0,0
2493,20.0,-242.0,9.0,0
2494,18.0,-246.0,11.0,0
2495,20.0,-240.0,9.0,0
2496,17.0,-238.0,11.0,0
2497,32.0,-241.0,16.0,0
2498,24.0,-234.0,8.0,0
2499,18.0,-231.0,10.0,0
2500,20.0,-227.0,15.0,0
2501,18.0,-224.0,17.0,0
2502,20.0,-227.0,21.0,0
2503,17.0,-225.0,24.0,0
2504,14.0,-222.0,30.0,0
2505,18.0,-224.0,30.0,0
2506,18.0,-229.0,31.0,0
2507,15.0,-230.0,32.0,0
2508,8.0,-238.0,43.0,0
2509,15.0,-239.0,31.0,0
2510,11.0,-238.0,27.0,0
2511,11.0,-243.0,31.0,0
2512,10.0,-242.0,30.0,0
2513,11.0,-243.0,31.0,0
2514,13.0,-243.0,32.0,0
2515,11.0,-243.0,30.0,0
2516,14.0,-240.0,34.0,0
2517,14.0,-235.0,36.0,0
2518,17.0,-237.0,38.0,0
2519,17.0,-236.0,35.0,0
2520,18.0,-229.0,40.0,0
2521,15.0,-230.0,36.0,0
2522,14.0,-230.0,35.0,0
2523,12.0,-232.0,36.0,0
2524,13.0,-237.0,39.0,0
2525,10.0,-236.0,35.0,0
2526,7.0,-240.0,38.0,0
2527,7.0,-246.0,38.0,0
2528,4.0,-246.0,37.0,0
2529,2.0,-249.0,33.0,0
2530,1.0,-252.0,32.0,0
2531,2.0,-251.0,32.0,0
2532,3.0,-255.0,27.0,0
2533,2.0,-256.0,27.0,0
2534,1.0,-254.0,26.0,0
2535,1.0,-256.0,28.0,0
2536,1.0,-256.0,28.0,0
2537,2.0,-255.0,32.0,0
2538,2.0,-253.0,33.0,0
2539,5.0,-249.0,33.0,0
2540,3.0,-243.0,31.0,0
2541,4.0,-240.0,32.0,0
2542,6.0,-240.0,39.0,0
2543,1.0,-233.0,32.0,0
2544,4.0,-229.0,36.0,0
2545,6.0,-223.0,35.0,0
2546,0.0,-219.0,34.0,0
2547,2.0,-218.0,35.0,0
2548,-2.0,-217.0,33.0,0
2549,-2.0,-217.0,32.0,0
2550,-6.0,-217.0,29.0,0
2551,-8.0,-218.0,26.0,0
2552,-13.0,-221.0,18.0,0
2553,-10.0,-228.0,18.0,0
2554,-7.0,-239.0,19.0,0
2555,-5.0,-248.0,15.0,0
2556,-10.0,-257.0,17.0,0
2557,-12.0,-267.0,24.0,0
2558,-11.0,-279.0,28.0,0
2559,-13.0,-291.0,26.0,0
2560,-18.0,-299.0,26.0,0
2561,-19.0,-306.0,22.0,0
2562,-28.0,-309.0,18.0,0
2563,-31.0,-313.0,9.0,0
2564,-28.0,-325.0,11.0,0
2565,-30.0,-328.0,9.0,0
2566,-25.0,-333.0,9.0,0
2567,-24.0,-334.0,16.0,0
2568,-15.0,-335.0,24.0,0
2569,-15.0,-334.0,31.0,0
2570,-9.0,-330.0,41.0,0
2571,-6.0,-323.0,44.0,0
2572,-4.0,-318.0,47.0,0
2573,-2.0,-310.0,45.0,0
2574,-5.0,-301.0,38.0,0
2575,-8.0,-291.0,35.0,0
2576,-9.0,-282.0,31.0,0
2577,-3.0,-275.0,26.0,0
2578,-8.0,-262.0,22.0,0
2579,0.0,-259.0,19.0,0
2580,0.0,-251.0,21.0,0
2581,0.0,-253.0,17.0,0
2582,-1.0,-249.0,14.0,0
2583,1.0,-249.0,14.0,0
2584,0.0,-245.0,8.0,0
2585,-6.0,-243.0,6.0,0
2586,-5.0,-246.0,1.0,0
2587,-9.0,-249.0,-4.0,0
2588,-11.0,-253.0,-1.0,0
2589,-17.0,-256.0,4.0,0
2590,-17.0,-259.0,5.0,0
2591,-21.0,-263.0,9.0,0
2592,-26.0,-269.0,15.0,0
2593,-34.0,-268.0,16.0,0
2594,-31.0,-268.0,24.0,0
2595,-40.0,-272.0,19.0,0
2596,-43.0,-271.0,22.0,0
2597,-46.0,-278.0,20.0,0
2598,-50.0,-278.0,23.0,0
2599,-51.0,-281.0,25.0,0
2600,-45.0,-290.0,22.0,0
2601,-43.0,-293.0,25.0,0
2602,-41.0,-298.0,30.0,0
2603,-42.0,-304.0,23.0,0
2604,-46.0,-305.0,26.0,0
2605,-47.0,-312.0,20.0,0
2606,-46.0,-316.0,12.0,0
2607,-41.0,-321.0,11.0,0
2608,-38.0,-322.0,7.0,0
2609,-30.0,-322.0,5.0,0
2610,-18.0,-319.0,2.0,0
2611,-8.0,-315.0,6.0,0
2612,0.0,-308.0,2.0,0
2613,6.0,-298.0,8.0,0
2614,14.0,-289.0,5.0,0
2615,15.0,-278.0,4.0,0
2616,24.0,-265.0,5.0,0
2617,21.0,-252.0,6.0,0
2618,25.0,-244.0,5.0,0
2619,26.0,-235.0,2.0,0
2620,26.0,-228.0,8.0,0
2621,26.0,-223.0,10.0,0
2622,23.0,-218.0,20.0,0
2623,21.0,-218.0,15.0,0
2624,15.0,-217.0,21.0,0
2625,9.0,-218.0,28.0,0
2626,2.0,-220.0,33.0,0
2627,0.0,-226.0,32.0,0
2628,0.0,-233.0,33.0,0
2629,-3.0,-242.0,41.0,0
2630,-10.0,-250.0,36.0,0
2631,-10.0,-251.0,31.0,0
2632,-9.0,-257.0,30.0,0
2633,-8.0,-259.0,25.0,0
2634,-6.0,-258.0,19.0,0
2635,-6.0,-263.0,13.0,0
2636,-7.0,-259.0,9.0,0
2637,-3.0,-259.0,4.0,0
2638,-1.0,-258.0,1.0,0
2639,0.0,-256.0,0.0,0
2640,1.0,-253.0,-3.0,0
2641,3.0,-253.0,-2.0,0
2642,3.0,-250.0,-5.0,0
2643,5.0,-252.0,-4.0,0
2644,5.0,-250.0,0.0,0
2645,8.0,-247.0,0.0,0
2646,8.0,-248.0,1.0,0
2647,8.0,-247.0,2.0,0
2648,8.0,-245.0,10.0,0
2649,9.0,-249.0,14.0,0
2650,3.0,-248.0,14.0,0
2651,4.0,-254.0,20.0,0
2652,0.0,-251.0,20.0,0
2653,-2.0,-253.0,26.0,0
2654,-7.0,-254.0,26.0,0
2655,-8.0,-256.0,26.0,0
2656,-9.0,-255.0,28.0,0
2657,-12.0,-258.0,29.0,0
2658,-17.0,-255.0,25.0,0
2659,-15.0,-258.0,30.0,0
2660,-19.0,-261.0,28.0,0
2661,-19.0,-259.0,28.0,0
2662,-23.0,-259.0,30.0,0
2663,-22.0,-257.0,29.0,0
2664,-22.0,-260.0,25.0,0
2665,-19.0,-257.0,28.0,0
2666,-16.0,-257.0,23.0,0
2667,-14.0,-257.0,25.0,0
2668,-11.0,-257.0,25.0,0
2669,-7.0,-257.0,22.0,0
2670,-3.0,-253.0,22.0,0
2671,2.0,-253.0,26.0,0
2672,3.0,-247.0,29.0,0
2673,9.0,-247.0,25.0,0
2674,11.0,-245.0,28.0,0
2675,19.0,-245.0,30.0,0
2676,18.0,-242.0,32.0,0
2677,19.0,-241.0,33.0,0
2678,21.0,-241.0,34.0,0
2679,22.0,-238.0,36.0,0
2680,20.0,-240.0,34.0,0
2681,3.0,-237.0,45.0,0
2682,18.0,-238.0,33.0,0
2683,13.0,-239.0,36.0,0
2684,10.0,-235.0,36.0,0
2685,8.0,-238.0,27.0,0
2686,6.0,-237.0,24.0,0
2687,1.0,-234.0,28.0,0
2688,1.0,-237.0,26.0,0
2689,-2.0,-235.0,25.0,0
2690,0.0,-232.0,26.0,0
2691,-3.0,-231.0,23.0,0
2692,-9.0,-225.0,17.0,0
2693,-8.0,-229.0,23.0,0
2694,-9.0,-226.0,22.0,0
2695,-10.0,-227.0,18.0,0
2696,-8.0,-221.0,21.0,0
2697,-13.0,-216.0,19.0,0
2698,-11.0,-219.0,16.0,0
2699,-8.0,-216.0,20.0,0
2700,-6.0,-220.0,16.0,0
2701,-4.0,-219.0,20.0,0
2702,-2.0,-219.0,20.0,0
2703,3.0,-221.0,24.0,0
2704,6.0,-221.0,23.0,0
2705,3.0,-222.0,26.0,0
2706,5.0,-220.0,28.0,0
2707,9.0,-225.0,34.0,0
2708,9.0,-231.0,34.0,0
2709,10.0,-234.0,42.0,0
2710,15.0,-241.0,39.0,0
2711,13.0,-244.0,47.0,0
2712,15.0,-250.0,48.0,0
2713,12.0,-249.0,54.0,0
2714,18.0,-254.0,60.0,0
2715,14.0,-256.0,60.0,0
2716,22.0,-258.0,62.0,0
2717,25.0,-258.0,61.0,0
2718,28.0,-258.0,54.0,0
2719,31.0,-258.0,48.0,0
2720,31.0,-256.0,33.0,0
2721,31.0,-252.0,21.0,0
2722,37.0,-249.0,16.0,0
2723,40.0,-244.0,15.0,0
2724,38.0,-241.0,16.0,0
2725,40.0,-239.0,13.0,0
2726,40.0,-234.0,18.0,0
2727,39.0,-231.0,27.0,0
2728,37.0,-229.0,26.0,0
2729,37.0,-225.0,28.0,0
2730,33.0,-227.0,34.0,0
2731,27.0,-227.0,36.0,0
2732,19.0,-224.0,35.0,0
2733,11.0,-225.0,43.0,0
2734,4.0,-226.0,49.0,0
2735,0.0,-227.0,47.0,0
2736,-9.0,-235.0,61.0,0
2737,-13.0,-238.0,61.0,0
2738,-17.0,-243.0,64.0,0
2739,-19.0,-247.0,65.0,0
2740,-18.0,-248.0,67.0,0
2741,-15.0,-247.0,65.0,0
2742,-9.0,-246.0,63.0,0
2743,-6.0,-241.0,60.0,0
2744,0.0,-237.0,50.0,0
2745,2.0,-228.0,40.0,0
2746,7.0,-227.0,39.0,0
2747,8.0,-218.0,35.0,0
2748,8.0,-216.0,35.0,0
2749,10.0,-215.0,33.0,0
2750,12.0,-213.0,39.0,0
2751,13.0,-219.0,38.0,0
2752,12.0,-216.0,45.0,0
2753,10.0,-215.0,49.0,0
2754,3.0,-219.0,55.0,0
2755,4.0,-221.0,57.0,0
2756,-3.0,-222.0,62.0,0
2757,-1.0,-227.0,65.0,0
2758,-6.0,-228.0,66.0,0
2759,-10.0,-229.0,66.0,0
2760,-14.0,-227.0,65.0,0
2761,-18.0,-227.0,65.0,0
2762,-11.0,-227.0,63.0,0
2763,-9.0,-232.0,59.0,0
2764,-6.0,-226.0,59.0,0
2765,-1.0,-228.0,58.0,0
2766,0.0,-230.0,53.0,0
2767,0.0,-232.0,55.0,0
2768,1.0,-235.0,55.0,0
2769,2.0,-232.0,56.0,0
2770,9.0,-235.0,55.0,0
2771,11.0,-230.0,53.0,0
2772,11.0,-228.0,56.0,0
2773,11.0,-224.0,59.0,0
2774,14.0,-221.0,59.0,0
2775,6.0,-210.0,59.0,0
2776,10.0,-207.0,65.0,0
2777,7.0,-201.0,64.0,0
2778,6.0,-195.0,61.0,0
2779,18.0,-182.0,75.0,0
2780,5.0,-188.0,56.0,0
2781,4.0,-186.0,54.0,0
2782,4.0,-181.0,49.0,0
2783,5.0,-178.0,54.0,0
2784,6.0,-181.0,51.0,0
2785,4.0,-180.0,48.0,0
2786,4.0,-186.0,49.0,0
2787,10.0,-183.0,47.0,0
2788,6.0,-185.0,50.0,0
2789,5.0,-191.0,54.0,0
2790,3.0,-192.0,41.0,0
2791,9.0,-197.0,49.0,0
2792,11.0,-204.0,50.0,0
2793,17.0,-215.0,58.0,0
2794,17.0,-229.0,59.0,0
2795,23.0,-248.0,65.0,0
2796,21.0,-273.0,64.0,0
2797,19.0,-291.0,64.0,0
2798,25.0,-318.0,60.0,0
2799,25.0,-338.0,50.0,0
2800,29.0,-358.0,41.0,0
2801,41.0,-376.0,29.0,0
2802,49.0,-390.0,11.0,0
2803,60.0,-399.0,2.0,0
2804,66.0,-398.0,-6.0,0
2805,68.0,-386.0,-16.0,0
2806,71.0,-370.0,-29.0,0
2807,69.0,-348.0,-32.0,0
2808,70.0,-329.0,-27.0,0
2809,69.0,-310.0,-26.0,0
2810,64.0,-291.0,-17.0,0
2811,61.0,-272.0,-14.0,0
2812,53.0,-257.0,-14.0,0
2813,52.0,-245.0,-5.0,0
2814,43.0,-231.0,6.0,0
2815,37.0,-226.0,3.0,0
2816,33.0,-219.0,10.0,0
2817,31.0,-223.0,15.0,0
2818,32.0,-232.0,24.0,0
2819,30.0,-249.0,33.0,0
2820,29.0,-264.0,37.0,0
2821,31.0,-284.0,40.0,0
2822,29.0,-301.0,41.0,0
2823,29.0,-319.0,39.0,0
2824,32.0,-330.0,40.0,0
2825,34.0,-339.0,36.0,0
2826,42.0,-349.0,26.0,0
2827,48.0,-346.0,26.0,0
2828,58.0,-348.0,14.0,0
2829,62.0,-338.0,2.0,0
2830,65.0,-331.0,-6.0,0
2831,66.0,-324.0,-15.0,0
2832,70.0,-314.0,-15.0,0
2833,68.0,-304.0,-16.0,0
2834,70.0,-289.0,-12.0,0
2835,70.0,-278.0,-5.0,0
2836,64.0,-270.0,3.0,0
2837,63.0,-258.0,12.0,0
2838,57.0,-250.0,17.0,0
2839,52.0,-240.0,25.0,0
2840,47.0,-236.0,30.0,0
2841,42.0,-237.0,30.0,0
2842,36.0,-240.0,33.0,0
2843,35.0,-240.0,42.0,0
2844,27.0,-249.0,43.0,0
2845,28.0,-252.0,39.0,0
2846,27.0,-260.0,44.0,0
2847,30.0,-269.0,45.0,0
2848,36.0,-277.0,40.0,0
2849,37.0,-281.0,46.0,0
2850,42.0,-288.0,41.0,0
2851,46.0,-293.0,38.0,0
2852,51.0,-296.0,36.0,0
2853,54.0,-295.0,26.0,0
2854,59.0,-295.0,18.0,0
2855,64.0,-291.0,15.0,0
2856,65.0,-288.0,12.0,0
2857,63.0,-278.0,6.0,0
2858,64.0,-271.0,6.0,0
2859,62.0,-263.0,3.0,0
2860,63.0,-260.0,4.0,0
2861,57.0,-256.0,7.0,0
2862,53.0,-253.0,11.0,0
2863,47.0,-251.0,16.0,0
2864,41.0,-249.0,13.0,0
2865,30.0,-245.0,19.0,0
2866,25.0,-250.0,20.0,0
2867,15.0,-247.0,21.0,0
2868,11.0,-248.0,25.0,0
2869,1.0,-248.0,29.0,0
2870,-6.0,-246.0,28.0,0
2871,-6.0,-250.0,32.0,0
2872,-8.0,-250.0,32.0,0
2873,-8.0,-250.0,42.0,0
2874,-6.0,-252.0,38.0,0
2875,-5.0,-249.0,39.0,0
2876,2.0,-243.0,25.0,0
2877,3.0,-248.0,35.0,0
2878,4.0,-246.0,32.0,0
2879,7.0,-246.0,29.0,0
2880,12.0,-245.0,27.0,0
2881,15.0,-244.0,25.0,0
2882,20.0,-245.0,20.0,0
2883,27.0,-245.0,17.0,0
2884,32.0,-244.0,15.0,0
2885,35.0,-241.0,12.0,0
2886,43.0,-244.0,17.0,0
2887,47.0,-245.0,18.0,0
2888,52.0,-245.0,19.0,0
2889,55.0,-248.0,18.0,0
2890,58.0,-248.0,19.0,0
2891,57.0,-255.0,22.0,0
2892,53.0,-255.0,16.0,0
2893,56.0,-257.0,22.0,0
2894,55.0,-259.0,18.0,0
2895,52.0,-262.0,23.0,0
2896,50.0,-264.0,23.0,0
2897,49.0,-266.0,21.0,0
2898,48.0,-266.0,27.0,0
2899,45.0,-263.0,26.0,0
2900,49.0,-264.0,24.0,0
2901,46.0,-262.0,24.0,0
2902,48.0,-262.0,23.0,0
2903,49.0,-260.0,25.0,0
2904,47.0,-256.0,22.0,0
2905,48.0,-256.0,25.0,0
2906,51.0,-256.0,25.0,0
2907,49.0,-254.0,23.0,0
2908,49.0,-256.0,24.0,0
2909,54.0,-255.0,23.0,0
2910,53.0,-255.0,24.0,0
2911,52.0,-259.0,28.0,0
2912,51.0,-255.0,30.0,0
2913,56.0,-261.0,30.0,0
2914,53.0,-256.0,33.0,0
2915,55.0,-258.0,34.0,0
2916,55.0,-256.0,37.0,0
2917,51.0,-256.0,39.0,0
2918,53.0,-255.0,39.0,0
2919,50.0,-256.0,40.0,0
2920,50.0,-254.0,43.0,0
2921,48.0,-253.0,43.0,0
2922,48.0,-252.0,40.0,0
2923,45.0,-253.0,45.0,0
2924,43.0,-249.0,42.0,0
2925,44.0,-252.0,45.0,0
2926,43.0,-254.0,45.0,0
2927,42.0,-252.0,50.0,0
2928,42.0,-250.0,51.0,0
2929,46.0,-255.0,56.0,0
2930,44.0,-252.0,54.0,0
2931,47.0,-255.0,50.0,0
2932,46.0,-254.0,48.0,0
2933,46.0,-252.0,47.0,0
2934,47.0,-251.0,43.0,0
2935,48.0,-248.0,38.0,0
2936,47.0,-247.0,37.0,0
2937,52.0,-240.0,31.0,0
2938,48.0,-241.0,24.0,0
2939,48.0,-237.0,19.0,0
2940,46.0,-233.0,16.0,0
2941,44.0,-230.0,14.0,0
2942,47.0,-227.0,3.0,0
2943,47.0,-223.0,1.0,0
2944,47.0,-222.0,2.0,0
2945,46.0,-220.0,0.0,0
2946,47.0,-218.0,1.0,0
2947,44.0,-218.0,2.0,0
2948,42.0,-214.0,2.0,0
2949,44.0,-214.0,4.0,0
2950,44.0,-215.0,6.0,0
2951,44.0,-218.0,4.0,0
2952,44.0,-213.0,5.0,0
2953,44.0,-214.0,4.0,0
2954,45.0,-214.0,4.0,0
2955,49.0,-217.0,5.0,0
2956,53.0,-218.0,6.0,0
2957,56.0,-217.0,5.0,0
2958,55.0,-216.0,7.0,0
2959,54.0,-218.0,12.0,0
2960,56.0,-217.0,10.0,0
2961,55.0,-218.0,12.0,0
2962,55.0,-214.0,13.0,0
2963,50.0,-215.0,20.0,0
2964,46.0,-217.0,14.0,0
2965,36.0,-213.0,18.0,0
2966,33.0,-215.0,19.0,0
2967,24.0,-218.0,19.0,0
2968,15.0,-221.0,21.0,0
2969,8.0,-223.0,25.0,0
2970,2.0,-223.0,29.0,0
2971,-1.0,-226.0,28.0,0
2972,-9.0,-232.0,31.0,0
2973,-11.0,-232.0,34.0,0
2974,-3.0,-232.0,45.0,0
2975,-15.0,-230.0,42.0,0
2976,-10.0,-232.0,47.0,0
2977,-7.0,-230.0,48.0,0
2978,0.0,-226.0,49.0,0
2979,4.0,-226.0,49.0,0
2980,11.0,-221.0,52.0,0
2981,14.0,-225.0,53.0,0
2982,19.0,-223.0,54.0,0
2983,21.0,-224.0,53.0,0
2984,24.0,-225.0,53.0,0
2985,28.0,-228.0,51.0,0
2986,28.0,-227.0,50.0,0
2987,24.0,-224.0,49.0,0
2988,26.0,-226.0,49.0,0
2989,26.0,-225.0,44.0,0
2990,21.0,-223.0,39.0,0
2991,19.0,-222.0,37.0,0
2992,16.0,-221.0,32.0,0
2993,10.0,-219.0,29.0,0
2994,6.0,-220.0,25.0,0
2995,4.0,-219.0,25.0,0
2996,0.0,-221.0,19.0,0
2997,1.0,-224.0,24.0,0
2998,0.0,-225.0,20.0,0
2999,-2.0,-231.0,21.0,0
3000,0.0,-235.0,23.0,0
3001,-2.0,-235.0,21.0,0
3002,0.0,-237.0,18.0,0
3003,3.0,-239.0,21.0,0
3004,5.0,-239.0,25.0,0
3005,6.0,-238.0,17.0,0
3006,8.0,-236.0,25.0,0
3007,16.0,-235.0,29.0,0
3008,18.0,-235.0,30.0,0
3009,22.0,-237.0,28.0,0
3010,26.0,-241.0,34.0,0
3011,26.0,-241.0,33.0,0
3012,25.0,-244.0,34.0,0
3013,25.0,-246.0,41.0,0
3014,28.0,-254.0,44.0,0
3015,26.0,-254.0,44.0,0
3016,24.0,-258.0,46.0,0
3017,22.0,-259.0,50.0,0
3018,25.0,-256.0,50.0,0
3019,25.0,-257.0,43.0,0
3020,30.0,-254.0,41.0,0
3021,28.0,-251.0,38.0,0
3022,29.0,-247.0,35.0,0
3023,25.0,-240.0,36.0,0
3024,20.0,-239.0,38.0,0
3025,18.0,-233.0,39.0,0
3026,16.0,-224.0,36.0,0
3027,11.0,-226.0,37.0,0
3028,10.0,-231.0,35.0,0
3029,5.0,-241.0,35.0,0
3030,0.0,-252.0,36.0,0
3031,-6.0,-264.0,40.0,0
3032,-14.0,-281.0,37.0,0
3033,-25.0,-299.0,31.0,0
3034,-35.0,-316.0,32.0,0
3035,-48.0,-331.0,23.0,0
3036,-60.0,-350.0,20.0,0
3037,-70.0,-368.0,7.0,0
3038,-79.0,-380.0,5.0,0
3039,-76.0,-391.0,0.0,0
3040,-74.0,-396.0,0.0,0
3041,-63.0,-397.0,5.0,0
3042,-52.0,-388.0,13.0,0
3043,-41.0,-378.0,20.0,0
3044,-29.0,-365.0,29.0,0
3045,-23.0,-345.0,35.0,0
3046,-20.0,-323.0,39.0,0
3047,-15.0,-305.0,35.0,0
3048,-9.0,-284.0,30.0,0
3049,-5.0,-271.0,29.0,0
3050,0.0,-253.0,12.0,0
3051,3.0,-235.0,11.0,0
3052,13.0,-227.0,9.0,0
3053,16.0,-215.0,9.0,0
3054,22.0,-207.0,4.0,0
3055,30.0,-207.0,8.0,0
3056,31.0,-204.0,11.0,0
3057,35.0,-204.0,10.0,0
3058,34.0,-205.0,20.0,0
3059,38.0,-208.0,19.0,0
3060,37.0,-212.0,16.0,0
3061,25.0,-205.0,7.0,0
3062,36.0,-213.0,11.0,0
3063,39.0,-218.0,12.0,0
3064,54.0,-216.0,7.0,0
3065,61.0,-218.0,13.0,0
3066,63.0,-226.0,22.0,0
3067,54.0,-237.0,18.0,0
3068,43.0,-250.0,20.0,0
3069,25.0,-260.0,14.0,0
3070,-1.0,-276.0,2.0,0
3071,-25.0,-294.0,-15.0,0
3072,-57.0,-317.0,-37.0,0
3073,-65.0,-351.0,-26.0,0
3074,-70.0,-382.0,-26.0,0
3075,-68.0,-410.0,-11.0,0
3076,-63.0,-423.0,5.0,0
3077,-49.0,-425.0,22.0,0
3078,-42.0,-413.0,33.0,0
3079,-31.0,-401.0,48.0,0
3080,-30.0,-381.0,61.0,0
3081,-21.0,-359.0,71.0,0
3082,-12.0,-339.0,65.0,0
3083,-7.0,-317.0,61.0,0
3084,-2.0,-293.0,48.0,0
3085,3.0,-274.0,39.0,0
3086,7.0,-255.0,33.0,0
3087,9.0,-234.0,27.0,0
3088,11.0,-216.0,32.0,0
3089,5.0,-199.0,32.0,0
3090,9.0,-199.0,42.0,0
3091,10.0,-197.0,46.0,0
3092,11.0,-199.0,54.0,0
3093,12.0,-203.0,58.0,0
3094,11.0,-210.0,56.0,0
3095,7.0,-216.0,57.0,0
3096,5.0,-222.0,49.0,0
3097,1.0,-231.0,47.0,0
3098,-2.0,-232.0,37.0,0
3099,-1.0,-244.0,36.0,0
3100,-2.0,-246.0,28.0,0
3101,-4.0,-249.0,25.0,0
3102,-5.0,-253.0,20.0,0
3103,-6.0,-256.0,17.0,0
3104,-8.0,-255.0,14.0,0
3105,-1.0,-255.0,18.0,0
3106,1.0,-254.0,17.0,0
3107,4.0,-253.0,20.0,0
3108,8.0,-256.0,23.0,0
3109,9.0,-253.0,26.0,0
3110,14.0,-255.0,24.0,0
3111,16.0,-254.0,33.0,0
3112,16.0,-255.0,30.0,0
3113,22.0,-256.0,33.0,0
3114,20.0,-253.0,37.0,0
3115,22.0,-254.0,38.0,0
3116,21.0,-255.0,38.0,0
3117,20.0,-253.0,41.0,0
3118,18.0,-254.0,42.0,0
3119,17.0,-253.0,47.0,0
3120,15.0,-250.0,43.0,0
3121,16.0,-248.0,44.0,0
3122,12.0,-249.0,44.0,0
3123,10.0,-248.0,40.0,0
3124,5.0,-247.0,43.0,0
3125,2.0,-243.0,44.0,0
3126,0.0,-247.0,38.0,0
3127,-4.0,-242.0,46.0,0
3128,-9.0,-238.0,39.0,0
3129,-15.0,-240.0,36.0,0
3130,-20.0,-238.0,37.0,0
3131,-23.0,-234.0,41.0,0
3132,-27.0,-239.0,36.0,0
3133,-33.0,-232.0,34.0,0
3134,-31.0,-236.0,36.0,0
3135,-27.0,-234.0,34.0,0
3136,-33.0,-235.0,33.0,0
3137,-31.0,-233.0,32.0,0
3138,-28.0,-235.0,30.0,0
3139,-23.0,-237.0,32.0,0
3140,-21.0,-239.0,33.0,0
3141,-14.0,-239.0,34.0,0
3142,-12.0,-242.0,37.0,0
3143,-5.0,-244.0,39.0,0
3144,-2.0,-247.0,42.0,0
3145,0.0,-250.0,45.0,0
3146,1.0,-252.0,47.0,0
3147,4.0,-252.0,53.0,0
3148,7.0,-253.0,53.0,0
3149,8.0,-255.0,53.0,0
3150,11.0,-254.0,51.0,0
3151,6.0,-256.0,53.0,0
3152,12.0,-252.0,46.0,0
3153,13.0,-252.0,48.0,0
3154,9.0,-247.0,49.0,0
3155,12.0,-245.0,50.0,0
3156,13.0,-242.0,46.0,0
3157,19.0,-239.0,50.0,0
3158,14.0,-241.0,53.0,0
3159,17.0,-232.0,49.0,0
3160,15.0,-231.0,54.0,0
3161,17.0,-228.0,43.0,0
3162,14.0,-227.0,47.0,0
3163,14.0,-225.0,47.0,0
3164,15.0,-225.0,51.0,0
3165,11.0,-228.0,48.0,0
3166,13.0,-228.0,48.0,0
3167,8.0,-229.0,47.0,0
3168,8.0,-228.0,37.0,0
3169,11.0,-231.0,55.0,0
3170,8.0,-231.0,40.0,0
3171,7.0,-232.0,38.0,0
3172,7.0,-233.0,33.0,0
3173,1.0,-234.0,37.0,0
3174,2.0,-232.0,35.0,0
3175,1.0,-232.0,36.0,0
3176,0.0,-233.0,39.0,0
3177,-3.0,-232.0,36.0,0
3178,-6.0,-229.0,34.0,0
3179,-8.0,-231.0,33.0,0
3180,-7.0,-234.0,36.0,0
3181,-8.0,-233.0,34.0,0
3182,-11.0,-234.0,37.0,0
3183,-14.0,-232.0,38.0,0
3184,-18.0,-231.0,38.0,0
3185,-21.0,-230.0,33.0,0
3186,-17.0,-235.0,33.0,0
3187,-17.0,-231.0,33.0,0
3188,-16.0,-231.0,30.0,0
3189,-13.0,-229.0,27.0,0
3190,-10.0,-229.0,28.0,0
3191,-8.0,-229.0,28.0,0
3192,1.0,-228.0,25.0,0
3193,5.0,-228.0,28.0,0
3194,5.0,-226.0,30.0,0
3195,14.0,-227.0,32.0,0
3196,13.0,-226.0,36.0,0
3197,20.0,-226.0,37.0,0
3198,17.0,-227.0,42.0,0
3199,23.0,-227.0,46.0,0
3200,23.0,-227.0,52.0,0
3201,22.0,-227.0,53.0,0
3202,23.0,-227.0,56.0,0
3203,20.0,-226.0,57.0,0
3204,21.0,-227.0,59.0,0
3205,20.0,-230.0,55.0,0
3206,16.0,-231.0,60.0,0
3207,15.0,-230.0,55.0,0
3208,15.0,-234.0,52.0,0
3209,15.0,-238.0,48.0,0
3210,16.0,-239.0,45.0,0
3211,12.0,-238.0,45.0,0
3212,18.0,-238.0,40.0,0
3213,18.0,-237.0,42.0,0
3214,16.0,-239.0,38.0,0
3215,16.0,-239.0,40.0,0
3216,17.0,-237.0,36.0,0
3217,16.0,-235.0,37.0,0
3218,18.0,-232.0,41.0,0
3219,17.0,-230.0,42.0,0
3220,17.0,-232.0,43.0,0
3221,18.0,-232.0,45.0,0
3222,12.0,-234.0,51.0,0
3223,12.0,-239.0,58.0,0
3224,14.0,-241.0,61.0,0
3225,11.0,-242.0,66.0,0
3226,12.0,-245.0,64.0,0
3227,10.0,-248.0,67.0,0
3228,10.0,-250.0,62.0,0
3229,11.0,-255.0,64.0,0
3230,11.0,-256.0,63.0,0
3231,12.0,-253.0,62.0,0
3232,10.0,-256.0,60.0,0
3233,13.0,-255.0,56.0,0
3234,14.0,-251.0,50.0,0
3235,15.0,-251.0,46.0,0
3236,17.0,-244.0,36.0,0
3237,12.0,-238.0,39.0,0
3238,12.0,-237.0,36.0,0
3239,8.0,-232.0,33.0,0
3240,8.0,-231.0,28.0,0
3241,3.0,-226.0,34.0,0
3242,-2.0,-220.0,28.0,0
3243,4.0,-221.0,43.0,0
3244,0.0,-223.0,39.0,0
3245,-10.0,-223.0,47.0,0
3246,-8.0,-227.0,48.0,0
3247,-10.0,-230.0,50.0,0
3248,-12.0,-230.0,57.0,0
3249,-6.0,-227.0,61.0,0
3250,-1.0,-225.0,56.0,0
3251,-1.0,-221.0,60.0,0
3252,1.0,-218.0,56.0,0
3253,1.0,-210.0,54.0,0
3254,3.0,-209.0,54.0,0
3255,7.0,-206.0,51.0,0
3256,16.0,-203.0,55.0,0
3257,9.0,-201.0,50.0,0
3258,9.0,-201.0,49.0,0
3259,7.0,-203.0,49.0,0
3260,4.0,-204.0,48.0,0
3261,0.0,-208.0,45.0,0
3262,1.0,-216.0,49.0,0
3263,2.0,-218.0,51.0,0
3264,6.0,-223.0,56.0,0
3265,7.0,-224.0,56.0,0
3266,7.0,-226.0,60.0,0
3267,10.0,-226.0,60.0,0
3268,4.0,-223.0,60.0,0
3269,5.0,-218.0,57.0,0
3270,6.0,-214.0,56.0,0
3271,3.0,-210.0,52.0,0
3272,6.0,-201.0,50.0,0
3273,6.0,-197.0,48.0,0
3274,12.0,-189.0,45.0,0
3275,17.0,-187.0,48.0,0
3276,14.0,-184.0,50.0,0
3277,11.0,-184.0,46.0,0
3278,9.0,-185.0,44.0,0
3279,3.0,-187.0,35.0,0
3280,4.0,-191.0,31.0,0
3281,3.0,-193.0,28.0,0
3282,3.0,-201.0,21.0,0
3283,4.0,-215.0,24.0,0
3284,-2.0,-228.0,34.0,0
3285,0.0,-252.0,38.0,0
3286,2.0,-264.0,40.0,0
3287,11.0,-278.0,33.0,0
3288,16.0,-288.0,25.0,0
3289,23.0,-296.0,13.0,0
3290,30.0,-301.0,-2.0,0
3291,34.0,-319.0,-7.0,0
3292,40.0,-335.0,-4.0,0
3293,43.0,-352.0,0.0,0
3294,46.0,-361.0,5.0,0
3295,49.0,-370.0,9.0,0
3296,50.0,-372.0,9.0,0
3297,53.0,-365.0,15.0,0
3298,52.0,-357.0,14.0,0
3299,50.0,-349.0,17.0,0
3300,48.0,-338.0,16.0,0
3301,50.0,-325.0,18.0,0
3302,48.0,-314.0,16.0,0
3303,49.0,-300.0,17.0,0
3304,41.0,-282.0,20.0,0
3305,42.0,-268.0,26.0,0
3306,37.0,-257.0,26.0,0
3307,32.0,-249.0,24.0,0
3308,28.0,-243.0,23.0,0
3309,25.0,-248.0,14.0,0
3310,24.0,-255.0,11.0,0
3311,28.0,-269.0,9.0,0
3312,31.0,-291.0,20.0,0
3313,34.0,-319.0,25.0,0
3314,41.0,-351.0,34.0,0
3315,48.0,-379.0,38.0,0
3316,57.0,-408.0,36.0,0
3317,62.0,-433.0,27.0,0
3318,65.0,-451.0,13.0,0
3319,61.0,-466.0,12.0,0
3320,54.0,-466.0,11.0,0
3321,46.0,-456.0,29.0,0
3322,34.0,-438.0,38.0,0
3323,22.0,-404.0,46.0,0
3324,8.0,-366.0,57.0,0
3325,4.0,-329.0,57.0,0
3326,-1.0,-292.0,61.0,0
3327,-14.0,-259.0,55.0,0
3328,-30.0,-227.0,52.0,0
3329,-28.0,-202.0,44.0,0
3330,-33.0,-181.0,34.0,0
3331,-36.0,-163.0,30.0,0
3332,-33.0,-151.0,25.0,0
3333,-27.0,-143.0,25.0,0
3334,-21.0,-142.0,28.0,0
3335,-7.0,-147.0,29.0,0
3336,2.0,-161.0,36.0,0
3337,15.0,-172.0,44.0,0
3338,28.0,-193.0,48.0,0
3339,39.0,-210.0,51.0,0
3340,49.0,-230.0,53.0,0
3341,54.0,-246.0,48.0,0
3342,61.0,-255.0,52.0,0
3343,55.0,-258.0,41.0,0
3344,65.0,-269.0,39.0,0
3345,67.0,-274.0,40.0,0
3346,68.0,-281.0,30.0,0
3347,65.0,-283.0,26.0,0
3348,63.0,-286.0,24.0,0
3349,56.0,-282.0,19.0,0
3350,52.0,-279.0,13.0,0
3351,46.0,-280.0,16.0,0
3352,40.0,-274.0,13.0,0
3353,31.0,-265.0,15.0,0
3354,26.0,-262.0,10.0,0
3355,19.0,-255.0,14.0,0
3356,14.0,-249.0,18.0,0
3357,8.0,-241.0,18.0,0
3358,5.0,-241.0,15.0,0
3359,4.0,-234.0,19.0,0
3360,2.0,-230.0,22.0,0
3361,2.0,-228.0,23.0,0
3362,4.0,-229.0,25.0,0
3363,4.0,-232.0,27.0,0
3364,4.0,-233.0,31.0,0
3365,1.0,-234.0,29.0,0
3366,3.0,-240.0,30.0,0
3367,2.0,-239.0,32.0,0
3368,1.0,-244.0,31.0,0
3369,3.0,-245.0,32.0,0
3370,2.0,-246.0,26.0,0
3371,7.0,-248.0,26.0,0
3372,6.0,-248.0,28.0,0
3373,10.0,-245.0,21.0,0
3374,11.0,-246.0,26.0,0
3375,14.0,-248.0,25.0,0
3376,15.0,-248.0,28.0,0
3377,18.0,-248.0,25.0,0
3378,21.0,-254.0,35.0,0
3379,24.0,-251.0,36.0,0
3380,25.0,-254.0,40.0,0
3381,28.0,-255.0,42.0,0
3382,31.0,-257.0,44.0,0
3383,35.0,-257.0,45.0,0
3384,36.0,-261.0,47.0,0
3385,37.0,-260.0,47.0,0
3386,40.0,-259.0,54.0,0
3387,41.0,-263.0,51.0,0
3388,42.0,-261.0,50.0,0
3389,39.0,-258.0,54.0,0
3390,40.0,-260.0,55.0,0
3391,34.0,-256.0,57.0,0
3392,33.0,-254.0,54.0,0
3393,29.0,-253.0,55.0,0
3394,24.0,-246.0,53.0,0
3395,20.0,-242.0,51.0,0
3396,14.0,-237.0,48.0,0
3397,9.0,-235.0,44.0,0
3398,6.0,-231.0,41.0,0
3399,4.0,-233.0,41.0,0
3400,0.0,-228.0,40.0,0
3401,0.0,-232.0,36.0,0
3402,0.0,-231.0,41.0,0
3403,-2.0,-238.0,37.0,0
3404,-1.0,-238.0,35.0,0
3405,0.0,-242.0,34.0,0
3406,2.0,-248.0,36.0,0
3407,1.0,-248.0,35.0,0
3408,6.0,-251.0,37.0,0
3409,10.0,-253.0,40.0,0
3410,12.0,-253.0,42.0,0
3411,16.0,-256.0,37.0,0
3412,18.0,-252.0,39.0,0
3413,22.0,-254.0,33.0,0
3414,24.0,-251.0,42.0,0
3415,26.0,-250.0,43.0,0
3416,27.0,-244.0,42.0,0
3417,31.0,-242.0,48.0,0
3418,32.0,-242.0,46.0,0
3419,30.0,-237.0,46.0,0
3420,33.0,-236.0,48.0,0
3421,33.0,-235.0,44.0,0
3422,35.0,-232.0,46.0,0
3423,34.0,-227.0,45.0,0
3424,35.0,-226.0,44.0,0
3425,34.0,-226.0,47.0,0
3426,36.0,-224.0,46.0,0
3427,36.0,-226.0,50.0,0
3428,35.0,-226.0,47.0,0
3429,33.0,-227.0,42.0,0
3430,34.0,-229.0,40.0,0
3431,30.0,-231.0,39.0,0
3432,36.0,-234.0,36.0,0
3433,30.0,-237.0,34.0,0
3434,29.0,-242.0,38.0,0
3435,29.0,-243.0,37.0,0
3436,27.0,-244.0,41.0,0
3437,27.0,-250.0,36.0,0
3438,26.0,-252.0,35.0,0
3439,27.0,-253.0,35.0,0
3440,15.0,-257.0,44.0,0
3441,22.0,-245.0,32.0,0
3442,22.0,-245.0,33.0,0
3443,14.0,-240.0,31.0,0
3444,14.0,-237.0,26.0,0
3445,13.0,-234.0,26.0,0
3446,12.0,-231.0,28.0,0
3447,9.0,-224.0,27.0,0
3448,7.0,-223.0,28.0,0
3449,5.0,-222.0,29.0,0
3450,4.0,-221.0,35.0,0
3451,6.0,-218.0,36.0,0
3452,6.0,-219.0,35.0,0
3453,8.0,-221.0,37.0,0
3454,5.0,-223.0,37.0,0
3455,7.0,-227.0,40.0,0
3456,8.0,-224.0,36.0,0
3457,8.0,-227.0,38.0,0
3458,11.0,-231.0,34.0,0
3459,11.0,-230.0,37.0,0
3460,14.0,-232.0,37.0,0
3461,11.0,-229.0,37.0,0
3462,15.0,-232.0,35.0,0
3463,14.0,-227.0,33.0,0
3464,9.0,-225.0,33.0,0
3465,15.0,-226.0,31.0,0
3466,13.0,-224.0,32.0,0
3467,18.0,-220.0,31.0,0
3468,16.0,-211.0,28.0,0
3469,21.0,-211.0,28.0,0
3470,19.0,-210.0,27.0,0
3471,20.0,-207.0,32.0,0
3472,23.0,-208.0,27.0,0
3473,27.0,-205.0,33.0,0
3474,29.0,-207.0,33.0,0
3475,31.0,-211.0,35.0,0
3476,35.0,-213.0,38.0,0
3477,36.0,-218.0,38.0,0
3478,41.0,-225.0,39.0,0
3479,40.0,-227.0,45.0,0
3480,38.0,-234.0,48.0,0
3481,36.0,-235.0,50.0,0
3482,37.0,-241.0,55.0,0
3483,35.0,-244.0,53.0,0
3484,37.0,-246.0,58.0,0
3485,34.0,-246.0,60.0,0
3486,32.0,-246.0,55.0,0
3487,29.0,-245.0,56.0,0
3488,27.0,-241.0,48.0,0
3489,26.0,-241.0,49.0,0
3490,28.0,-239.0,43.0,0
3491,23.0,-238.0,43.0,0
3492,25.0,-235.0,37.0,0
3493,22.0,-235.0,39.0,0
3494,22.0,-234.0,43.0,0
3495,22.0,-238.0,46.0,0
3496,20.0,-240.0,42.0,0
3497,21.0,-244.0,41.0,0
3498,22.0,-247.0,40.0,0
3499,22.0,-249.0,37.0,0
3500,21.0,-252.0,41.0,0
3501,21.0,-251.0,42.0,0
3502,20.0,-252.0,40.0,0
3503,18.0,-250.0,45.0,0
3504,23.0,-247.0,45.0,0
3505,25.0,-248.0,41.0,0
3506,26.0,-238.0,50.0,0
3507,25.0,-232.0,48.0,0
3508,22.0,-225.0,53.0,0
3509,24.0,-221.0,51.0,0
3510,22.0,-215.0,52.0,0
3511,18.0,-210.0,50.0,0
3512,19.0,-205.0,56.0,0
3513,19.0,-204.0,56.0,0
3514,19.0,-200.0,56.0,0
3515,20.0,-201.0,58.0,0
3516,21.0,-207.0,58.0,0
3517,17.0,-209.0,61.0,0
3518,16.0,-218.0,62.0,0
3519,14.0,-221.0,60.0,0
3520,8.0,-223.0,59.0,0
3521,5.0,-229.0,59.0,0
3522,7.0,-233.0,62.0,0
3523,3.0,-234.0,58.0,0
3524,0.0,-234.0,57.0,0
3525,1.0,-234.0,58.0,0
3526,1.0,-233.0,57.0,0
3527,1.0,-232.0,52.0,0
3528,1.0,-236.0,61.0,0
3529,6.0,-231.0,45.0,0
3530,4.0,-241.0,48.0,0
3531,5.0,-246.0,45.0,0
3532,3.0,-263.0,46.0,0
3533,-1.0,-275.0,50.0,0
3534,-4.0,-291.0,48.0,0
3535,-16.0,-304.0,45.0,0
3536,-23.0,-317.0,31.0,0
3537,-26.0,-330.0,27.0,0
3538,-29.0,-336.0,13.0,0
3539,-32.0,-355.0,10.0,0
3540,-36.0,-360.0,0.0,0
3541,-37.0,-361.0,0.0,0
3542,-38.0,-354.0,-12.0,0
3543,-32.0,-339.0,-16.0,0
3544,-25.0,-326.0,-14.0,0
3545,-16.0,-310.0,-15.0,0
3546,-12.0,-293.0,-10.0,0
3547,-6.0,-278.0,-4.0,0
3548,0.0,-269.0,1.0,0
3549,-2.0,-261.0,4.0,0
3550,-5.0,-254.0,8.0,0
3551,-6.0,-251.0,14.0,0
3552,-8.0,-253.0,14.0,0
3553,-7.0,-253.0,21.0,0
3554,-6.0,-257.0,21.0,0
3555,-7.0,-257.0,21.0,0
3556,-1.0,-263.0,22.0,0
3557,1.0,-270.0,28.0,0
3558,3.0,-271.0,29.0,0
3559,4.0,-271.0,32.0,0
3560,6.0,-265.0,30.0,0
3561,11.0,-265.0,33.0,0
3562,8.0,-258.0,33.0,0
3563,8.0,-258.0,24.0,0
3564,5.0,-255.0,19.0,0
3565,8.0,-255.0,13.0,0
3566,3.0,-252.0,13.0,0
3567,6.0,-254.0,8.0,0
3568,9.0,-259.0,10.0,0
3569,4.0,-270.0,15.0,0
3570,0.0,-278.0,22.0,0
3571,-8.0,-288.0,27.0,0
3572,-21.0,-302.0,33.0,0
3573,-34.0,-314.0,36.0,0
3574,-45.0,-324.0,33.0,0
3575,-58.0,-335.0,24.0,0
3576,-65.0,-346.0,13.0,0
3577,-63.0,-358.0,7.0,0
3578,-61.0,-360.0,1.0,0
3579,-49.0,-359.0,4.0,0
3580,-37.0,-352.0,6.0,0
3581,-22.0,-339.0,8.0,0
3582,-9.0,-320.0,12.0,0
3583,1.0,-300.0,12.0,0
3584,13.0,-281.0,9.0,0
3585,20.0,-260.0,8.0,0
3586,31.0,-243.0,4.0,0
3587,39.0,-227.0,9.0,0
3588,45.0,-212.0,12.0,0
3589,48.0,-205.0,10.0,0
3590,53.0,-202.0,11.0,0
3591,56.0,-206.0,20.0,0
3592,60.0,-209.0,30.0,0
3593,55.0,-219.0,38.0,0
3594,56.0,-228.0,47.0,0
3595,54.0,-240.0,52.0,0
3596,49.0,-249.0,62.0,0
3597,46.0,-256.0,56.0,0
3598,42.0,-266.0,63.0,0
3599,37.0,-270.0,62.0,0
3600,28.0,-271.0,55.0,0
3601,25.0,-272.0,46.0,0
3602,22.0,-271.0,37.0,0
3603,21.0,-273.0,28.0,0
3604,16.0,-272.0,18.0,0
3605,12.0,-270.0,21.0,0
3606,13.0,-268.0,17.0,0
3607,13.0,-268.0,15.0,0
3608,14.0,-264.0,13.0,0
3609,13.0,-262.0,11.0,0
3610,14.0,-260.0,18.0,0
3611,18.0,-257.0,17.0,0
3612,21.0,-254.0,18.0,0
3613,19.0,-248.0,18.0,0
3614,25.0,-247.0,19.0,0
3615,24.0,-246.0,23.0,0
3616,21.0,-241.0,30.0,0
3617,24.0,-242.0,27.0,0
3618,18.0,-241.0,29.0,0
3619,19.0,-244.0,28.0,0
3620,17.0,-242.0,30.0,0
3621,17.0,-245.0,33.0,0
3622,13.0,-244.0,31.0,0
3623,9.0,-245.0,31.0,0
3624,8.0,-248.0,37.0,0
3625,7.0,-250.0,44.0,0
3626,4.0,-246.0,35.0,0
3627,8.0,-247.0,32.0,0
3628,4.0,-249.0,34.0,0
3629,3.0,-246.0,31.0,0
3630,6.0,-249.0,36.0,0
3631,3.0,-248.0,37.0,0
3632,4.0,-248.0,32.0,0
3633,2.0,-250.0,35.0,0
3634,5.0,-250.0,32.0,0
3635,6.0,-249.0,38.0,0
3636,7.0,-249.0,33.0,0
3637,10.0,-251.0,34.0,0
3638,9.0,-250.0,37.0,0
3639,10.0,-252.0,38.0,0
3640,10.0,-249.0,37.0,0
3641,11.0,-250.0,37.0,0
3642,15.0,-247.0,40.0,0
3643,16.0,-248.0,37.0,0
3644,17.0,-246.0,42.0,0
3645,18.0,-245.0,40.0,0
3646,15.0,-245.0,39.0,0
3647,21.0,-248.0,36.0,0
3648,17.0,-244.0,39.0,0
3649,20.0,-243.0,39.0,0
3650,20.0,-243.0,45.0,0
3651,20.0,-240.0,44.0,0
3652,20.0,-241.0,42.0,0
3653,20.0,-239.0,39.0,0
3654,20.0,-241.0,37.0,0
3655,21.0,-243.0,41.0,0
3656,21.0,-243.0,39.0,0
3657,19.0,-242.0,46.0,0
3658,21.0,-242.0,44.0,0
3659,16.0,-242.0,46.0,0
3660,16.0,-240.0,49.0,0
3661,16.0,-242.0,47.0,0
3662,11.0,-240.0,50.0,0
3663,14.0,-239.0,48.0,0
3664,15.0,-241.0,51.0,0
3665,12.0,-242.0,53.0,0
3666,9.0,-233.0,57.0,0
3667,10.0,-239.0,54.0,0
3668,11.0,-238.0,55.0,0
3669,10.0,-239.0,54.0,0
3670,8.0,-236.0,54.0,0
3671,12.0,-240.0,57.0,0
3672,13.0,-238.0,52.0,0
3673,12.0,-238.0,50.0,0
3674,17.0,-239.0,52.0,0
3675,16.0,-236.0,47.0,0
3676,17.0,-231.0,46.0,0
3677,18.0,-234.0,44.0,0
3678,19.0,-232.0,39.0,0
3679,17.0,-233.0,42.0,0
3680,19.0,-232.0,48.0,0
3681,13.0,-231.0,46.0,0
3682,12.0,-225.0,47.0,0
3683,7.0,-222.0,51.0,0
3684,7.0,-221.0,56.0,0
3685,5.0,-220.0,49.0,0
3686,2.0,-217.0,45.0,0
3687,2.0,-218.0,46.0,0
3688,1.0,-220.0,40.0,0
3689,3.0,-221.0,35.0,0
3690,3.0,-230.0,33.0,0
3691,6.0,-232.0,34.0,0
3692,9.0,-235.0,34.0,0
3693,9.0,-236.0,34.0,0
3694,17.0,-248.0,35.0,0
3695,18.0,-247.0,37.0,0
3696,26.0,-252.0,35.0,0
3697,28.0,-249.0,35.0,0
3698,31.0,-251.0,40.0,0
3699,32.0,-247.0,35.0,0
3700,33.0,-245.0,38.0,0
3701,36.0,-248.0,35.0,0
3702,36.0,-244.0,35.0,0
3703,35.0,-244.0,40.0,0
3704,35.0,-246.0,41.0,0
3705,33.0,-251.0,43.0,0
3706,31.0,-248.0,45.0,0
3707,32.0,-254.0,45.0,0
3708,29.0,-256.0,44.0,0
3709,27.0,-253.0,45.0,0
3710,30.0,-254.0,49.0,0
3711,28.0,-255.0,53.0,0
3712,26.0,-240.0,51.0,0
3713,27.0,-250.0,60.0,0
3714,27.0,-246.0,57.0,0
3715,26.0,-237.0,54.0,0
3716,29.0,-237.0,53.0,0
3717,30.0,-234.0,50.0,0
3718,31.0,-225.0,48.0,0
3719,30.0,-225.0,50.0,0
3720,27.0,-221.0,46.0,0
3721,33.0,-223.0,46.0,0
3722,34.0,-219.0,45.0,0
3723,36.0,-218.0,46.0,0
3724,33.0,-224.0,48.0,0
3725,31.0,-223.0,47.0,0
3726,31.0,-228.0,52.0,0
3727,24.0,-230.0,48.0,0
3728,17.0,-230.0,45.0,0
3729,8.0,-237.0,46.0,0
3730,5.0,-240.0,47.0,0
3731,3.0,-242.0,48.0,0
3732,1.0,-247.0,49.0,0
3733,-3.0,-249.0,51.0,0
3734,-3.0,-254.0,50.0,0
3735,-6.0,-249.0,55.0,0
3736,-2.0,-251.0,55.0,0
3737,0.0,-246.0,48.0,0
3738,0.0,-241.0,46.0,0
3739,2.0,-230.0,46.0,0
3740,11.0,-229.0,42.0,0
3741,14.0,-223.0,44.0,0
3742,16.0,-219.0,48.0,0
3743,20.0,-215.0,52.0,0
3744,21.0,-209.0,53.0,0
3745,24.0,-206.0,59.0,0
3746,26.0,-210.0,58.0,0
3747,25.0,-210.0,61.0,0
3748,21.0,-212.0,61.0,0
3749,21.0,-218.0,66.0,0
3750,17.0,-227.0,66.0,0
3751,14.0,-234.0,67.0,0
3752,9.0,-243.0,71.0,0
3753,7.0,-249.0,76.0,0
3754,5.0,-254.0,72.0,0
3755,4.0,-254.0,68.0,0
3756,4.0,-252.0,73.0,0
3757,6.0,-249.0,68.0,0
3758,4.0,-241.0,62.0,0
3759,4.0,-237.0,61.0,0
3760,3.0,-228.0,59.0,0
3761,2.0,-220.0,47.0,0
3762,7.0,-217.0,47.0,0
3763,4.0,-215.0,42.0,0
3764,5.0,-214.0,41.0,0
3765,4.0,-210.0,50.0,0
3766,6.0,-214.0,48.0,0
3767,9.0,-214.0,53.0,0
3768,8.0,-217.0,64.0,0
3769,7.0,-222.0,69.0,0
3770,3.0,-226.0,72.0,0
3771,5.0,-224.0,70.0,0
3772,1.0,-222.0,72.0,0
3773,3.0,-220.0,71.0,0
3774,2.0,-218.0,66.0,0
3775,2.0,-211.0,63.0,0
3776,6.0,-204.0,61.0,0
3777,9.0,-201.0,59.0,0
3778,9.0,-196.0,50.0,0
3779,8.0,-188.0,48.0,0
3780,11.0,-189.0,43.0,0
3781,6.0,-187.0,45.0,0
3782,5.0,-182.0,40.0,0
3783,4.0,-183.0,44.0,0
3784,6.0,-183.0,43.0,0
3785,7.0,-185.0,46.0,0
3786,11.0,-185.0,52.0,0
3787,12.0,-188.0,61.0,0
3788,13.0,-193.0,64.0,0
3789,9.0,-198.0,62.0,0
3790,4.0,-201.0,62.0,0
3791,8.0,-214.0,61.0,0
3792,10.0,-218.0,62.0,0
3793,11.0,-230.0,65.0,0
3794,13.0,-242.0,63.0,0
3795,10.0,-256.0,67.0,0
3796,18.0,-270.0,68.0,0
3797,24.0,-285.0,65.0,0
3798,42.0,-303.0,57.0,0
3799,55.0,-310.0,35.0,0
3800,67.0,-326.0,41.0,0
3801,73.0,-336.0,27.0,0
3802,83.0,-338.0,16.0,0
3803,88.0,-344.0,4.0,0
3804,88.0,-343.0,-3.0,0
3805,91.0,-338.0,-22.0,0
3806,91.0,-326.0,-25.0,0
3807,91.0,-320.0,-37.0,0
3808,87.0,-310.0,-44.0,0
3809,86.0,-305.0,-44.0,0
3810,81.0,-296.0,-36.0,0
3811,72.0,-291.0,-36.0,0
3812,65.0,-289.0,-31.0,0
3813,62.0,-286.0,-23.0,0
3814,57.0,-287.0,-9.0,0
3815,50.0,-290.0,2.0,0
3816,45.0,-290.0,14.0,0
3817,45.0,-291.0,24.0,0
3818,40.0,-295.0,34.0,0
3819,39.0,-305.0,42.0,0
3820,37.0,-313.0,45.0,0
3821,36.0,-320.0,50.0,0
3822,36.0,-323.0,56.0,0
3823,32.0,-328.0,52.0,0
3824,31.0,-333.0,53.0,0
3825,34.0,-335.0,48.0,0
3826,33.0,-334.0,40.0,0
3827,40.0,-336.0,31.0,0
3828,40.0,-333.0,27.0,0
3829,43.0,-324.0,18.0,0
3830,42.0,-320.0,10.0,0
3831,46.0,-314.0,3.0,0
3832,46.0,-309.0,2.0,0
3833,45.0,-294.0,0.0,0
3834,38.0,-286.0,-3.0,0
3835,39.0,-278.0,-2.0,0
3836,39.0,-271.0,-4.0,0
3837,36.0,-262.0,-1.0,0
3838,34.0,-257.0,-3.0,0
3839,31.0,-252.0,-1.0,0
3840,30.0,-249.0,0.0,0
3841,28.0,-252.0,4.0,0
3842,27.0,-251.0,5.0,0
3843,32.0,-249.0,6.0,0
3844,33.0,-253.0,7.0,0
3845,33.0,-257.0,17.0,0
3846,33.0,-260.0,16.0,0
3847,28.0,-265.0,19.0,0
3848,28.0,-273.0,21.0,0
3849,24.0,-275.0,19.0,0
3850,21.0,-278.0,19.0,0
3851,19.0,-282.0,20.0,0
3852,14.0,-281.0,14.0,0
3853,12.0,-283.0,14.0,0
3854,9.0,-282.0,16.0,0
3855,8.0,-280.0,11.0,0
3856,10.0,-275.0,13.0,0
3857,8.0,-272.0,13.0,0
3858,9.0,-267.0,17.0,0
3859,9.0,-262.0,18.0,0
3860,9.0,-256.0,14.0,0
3861,12.0,-254.0,12.0,0
3862,17.0,-248.0,11.0,0
3863,19.0,-244.0,4.0,0
3864,26.0,-236.0,6.0,0
3865,30.0,-233.0,8.0,0
3866,32.0,-227.0,4.0,0
3867,34.0,-232.0,5.0,0
3868,40.0,-224.0,11.0,0
3869,40.0,-228.0,8.0,0
3870,44.0,-224.0,13.0,0
3871,45.0,-228.0,14.0,0
3872,45.0,-229.0,16.0,0
3873,42.0,-234.0,19.0,0
3874,40.0,-235.0,27.0,0
3875,40.0,-245.0,29.0,0
3876,36.0,-249.0,29.0,0
3877,29.0,-255.0,29.0,0
3878,21.0,-257.0,27.0,0
3879,22.0,-266.0,32.0,0
3880,20.0,-270.0,35.0,0
3881,13.0,-276.0,31.0,0
3882,11.0,-282.0,35.0,0
3883,13.0,-287.0,40.0,0
3884,11.0,-291.0,34.0,0
3885,11.0,-292.0,35.0,0
3886,14.0,-294.0,35.0,0
3887,11.0,-290.0,29.0,0
3888,17.0,-287.0,29.0,0
3889,15.0,-282.0,24.0,0
3890,20.0,-275.0,20.0,0
3891,23.0,-272.0,21.0,0
3892,26.0,-263.0,17.0,0
3893,29.0,-255.0,21.0,0
3894,29.0,-247.0,23.0,0
3895,39.0,-243.0,17.0,0
3896,40.0,-239.0,26.0,0
3897,43.0,-234.0,23.0,0
3898,43.0,-230.0,36.0,0
3899,44.0,-228.0,35.0,0
3900,46.0,-224.0,39.0,0
3901,45.0,-226.0,46.0,0
3902,46.0,-228.0,50.0,0
3903,45.0,-227.0,50.0,0
3904,46.0,-231.0,50.0,0
3905,44.0,-230.0,53.0,0
3906,45.0,-234.0,52.0,0
3907,41.0,-235.0,54.0,0
3908,39.0,-239.0,54.0,0
3909,32.0,-240.0,54.0,0
3910,36.0,-242.0,50.0,0
3911,35.0,-241.0,48.0,0
3912,36.0,-244.0,51.0,0
3913,36.0,-240.0,48.0,0
3914,32.0,-244.0,50.0,0
3915,30.0,-243.0,48.0,0
3916,30.0,-244.0,46.0,0
3917,31.0,-243.0,48.0,0
3918,31.0,-248.0,43.0,0
3919,30.0,-245.0,49.0,0
3920,30.0,-243.0,45.0,0
3921,33.0,-247.0,48.0,0
3922,35.0,-246.0,48.0,0
3923,35.0,-247.0,48.0,0
3924,39.0,-245.0,48.0,0
3925,40.0,-244.0,48.0,0
3926,51.0,-241.0,49.0,0
3927,50.0,-243.0,55.0,0
3928,58.0,-241.0,51.0,0
3929,60.0,-245.0,51.0,0
3930,64.0,-245.0,50.0,0
3931,66.0,-244.0,55.0,0
3932,69.0,-241.0,56.0,0
3933,73.0,-243.0,54.0,0
3934,73.0,-240.0,50.0,0
3935,75.0,-240.0,53.0,0
3936,77.0,-239.0,52.0,0
3937,81.0,-237.0,54.0,0
3938,77.0,-239.0,50.0,0
3939,78.0,-233.0,53.0,0
3940,74.0,-238.0,50.0,0
3941,71.0,-236.0,50.0,0
3942,75.0,-242.0,48.0,0
3943,70.0,-238.0,49.0,0
3944,68.0,-241.0,43.0,0
3945,67.0,-249.0,43.0,0
3946,62.0,-250.0,40.0,0
3947,60.0,-253.0,44.0,0
3948,59.0,-256.0,47.0,0
3949,54.0,-259.0,46.0,0
3950,50.0,-260.0,54.0,0
3951,48.0,-258.0,50.0,0
3952,46.0,-256.0,50.0,0
3953,41.0,-256.0,51.0,0
3954,40.0,-254.0,50.0,0
3955,41.0,-245.0,49.0,0
3956,40.0,-242.0,43.0,0
3957,38.0,-234.0,43.0,0
3958,37.0,-224.0,44.0,0
3959,36.0,-220.0,39.0,0
3960,32.0,-214.0,37.0,0
3961,33.0,-210.0,35.0,0
3962,34.0,-208.0,35.0,0
3963,32.0,-207.0,31.0,0
3964,30.0,-204.0,34.0,0
3965,29.0,-209.0,33.0,0
3966,30.0,-212.0,32.0,0
3967,28.0,-213.0,36.0,0
3968,26.0,-215.0,39.0,0
3969,22.0,-225.0,40.0,0
3970,21.0,-230.0,44.0,0
3971,20.0,-237.0,44.0,0
3972,21.0,-243.0,47.0,0
3973,19.0,-247.0,51.0,0
3974,20.0,-247.0,47.0,0
3975,16.0,-245.0,51.0,0
3976,22.0,-242.0,47.0,0
3977,22.0,-239.0,44.0,0
3978,23.0,-236.0,44.0,0
3979,21.0,-228.0,40.0,0
3980,26.0,-226.0,37.0,0
3981,22.0,-223.0,29.0,0
3982,26.0,-220.0,28.0,0
3983,27.0,-215.0,26.0,0
3984,19.0,-219.0,25.0,0
3985,16.0,-217.0,24.0,0
3986,16.0,-219.0,23.0,0
3987,16.0,-224.0,27.0,0
3988,15.0,-226.0,32.0,0
3989,15.0,-229.0,33.0,0
3990,16.0,-229.0,31.0,0
3991,13.0,-230.0,35.0,0
3992,12.0,-229.0,32.0,0
3993,15.0,-233.0,34.0,0
3994,15.0,-226.0,34.0,0
3995,14.0,-225.0,32.0,0
3996,15.0,-224.0,34.0,0
3997,19.0,-225.0,36.0,0
3998,16.0,-224.0,38.0,0
3999,19.0,-229.0,33.0,0
4000,19.0,-226.0,39.0,0
4001,19.0,-227.0,40.0,0
4002,20.0,-225.0,40.0,0
4003,21.0,-227.0,42.0,0
4004,19.0,-226.0,43.0,0
4005,21.0,-229.0,40.0,0
4006,20.0,-222.0,43.0,0
4007,20.0,-220.0,44.0,0
4008,24.0,-221.0,40.0,0
4009,22.0,-219.0,44.0,0
4010,21.0,-219.0,36.0,0
4011,23.0,-222.0,38.0,0
4012,25.0,-229.0,45.0,0
4013,26.0,-230.0,42.0,0
4014,28.0,-232.0,41.0,0
4015,29.0,-235.0,42.0,0
4016,32.0,-235.0,42.0,0
4017,33.0,-246.0,45.0,0
4018,32.0,-245.0,41.0,0
4019,31.0,-250.0,44.0,0
4020,33.0,-250.0,40.0,0
4021,33.0,-247.0,40.0,0
4022,32.0,-248.0,40.0,0
4023,29.0,-243.0,39.0,0
4024,24.0,-238.0,40.0,0
4025,24.0,-237.0,36.0,0
4026,21.0,-233.0,42.0,0
4027,21.0,-229.0,38.0,0
4028,21.0,-226.0,35.0,0
4029,15.0,-223.0,38.0,0
4030,12.0,-220.0,39.0,0
4031,12.0,-219.0,40.0,0
4032,10.0,-218.0,48.0,0
4033,9.0,-213.0,44.0,0
4034,4.0,-218.0,48.0,0
4035,5.0,-218.0,51.0,0
4036,3.0,-219.0,50.0,0
4037,3.0,-220.0,49.0,0
4038,2.0,-220.0,51.0,0
4039,2.0,-218.0,54.0,0
4040,4.0,-221.0,56.0,0
4041,4.0,-216.0,53.0,0
4042,7.0,-217.0,50.0,0
4043,9.0,-216.0,48.0,0
4044,12.0,-216.0,48.0,0
4045,15.0,-213.0,45.0,0
4046,19.0,-208.0,42.0,0
4047,24.0,-213.0,41.0,0
4048,25.0,-212.0,47.0,0
4049,26.0,-216.0,49.0,0
4050,30.0,-221.0,51.0,0
4051,29.0,-222.0,59.0,0
4052,30.0,-229.0,49.0,0
4053,25.0,-241.0,56.0,0
4054,20.0,-252.0,59.0,0
4055,18.0,-268.0,57.0,0
4056,20.0,-287.0,61.0,0
4057,17.0,-303.0,64.0,0
4058,12.0,-325.0,61.0,0
4059,2.0,-342.0,55.0,0
4060,-10.0,-361.0,40.0,0
4061,-16.0,-378.0,26.0,0
4062,-30.0,-389.0,7.0,0
4063,-37.0,-389.0,2.0,0
4064,-40.0,-385.0,0.0,0
4065,-39.0,-379.0,3.0,0
4066,-27.0,-367.0,7.0,0
4067,-18.0,-347.0,14.0,0
4068,-6.0,-325.0,17.0,0
4069,3.0,-308.0,27.0,0
4070,12.0,-290.0,34.0,0
4071,21.0,-272.0,41.0,0
4072,27.0,-259.0,44.0,0
4073,34.0,-249.0,47.0,0
4074,36.0,-239.0,53.0,0
4075,38.0,-237.0,40.0,0
4076,42.0,-234.0,40.0,0
4077,43.0,-233.0,34.0,0
4078,46.0,-234.0,30.0,0
4079,45.0,-238.0,32.0,0
4080,49.0,-234.0,26.0,0
4081,43.0,-251.0,41.0,0
4082,43.0,-256.0,41.0,0
4083,37.0,-258.0,46.0,0
4084,36.0,-259.0,46.0,0
4085,33.0,-263.0,42.0,0
4086,29.0,-266.0,43.0,0
4087,24.0,-271.0,39.0,0
4088,15.0,-273.0,36.0,0
4089,2.0,-273.0,39.0,0
4090,-5.0,-279.0,37.0,0
4091,-12.0,-274.0,39.0,0
4092,-15.0,-283.0,36.0,0
4093,-20.0,-284.0,35.0,0
4094,-21.0,-284.0,29.0,0
4095,-23.0,-289.0,26.0,0
4096,-25.0,-294.0,24.0,0
4097,-30.0,-295.0,21.0,0
4098,-32.0,-298.0,16.0,0
4099,-38.0,-296.0,17.0,0
4100,-41.0,-298.0,13.0,0
4101,-40.0,-299.0,12.0,0
4102,-37.0,-296.0,13.0,0
4103,-32.0,-294.0,19.0,0
4104,-27.0,-294.0,26.0,0
4105,-21.0,-291.0,29.0,0
4106,-13.0,-292.0,37.0,0
4107,-9.0,-287.0,47.0,0
4108,0.0,-289.0,47.0,0
4109,4.0,-279.0,60.0,0
4110,12.0,-275.0,59.0,0
4111,16.0,-270.0,57.0,0
4112,22.0,-267.0,56.0,0
4113,23.0,-262.0,57.0,0
4114,26.0,-255.0,55.0,0
4115,29.0,-255.0,51.0,0
4116,27.0,-247.0,51.0,0
4117,27.0,-244.0,47.0,0
4118,24.0,-243.0,44.0,0
4119,26.0,-241.0,43.0,0
4120,26.0,-246.0,34.0,0
4121,22.0,-243.0,35.0,0
4122,19.0,-245.0,39.0,0
4123,17.0,-245.0,35.0,0
4124,17.0,-244.0,36.0,0
4125,14.0,-241.0,39.0,0
4126,13.0,-239.0,37.0,0
4127,11.0,-240.0,40.0,0
4128,11.0,-236.0,43.0,0
4129,10.0,-234.0,37.0,0
4130,10.0,-234.0,36.0,0
4131,8.0,-235.0,44.0,0
4132,10.0,-236.0,37.0,0
4133,8.0,-239.0,39.0,0
4134,5.0,-240.0,36.0,0
4135,6.0,-241.0,38.0,0
4136,4.0,-245.0,35.0,0
4137,4.0,-247.0,34.0,0
4138,6.0,-246.0,40.0,0
4139,6.0,-249.0,40.0,0
4140,7.0,-252.0,42.0,0
4141,9.0,-251.0,46.0,0
4142,6.0,-248.0,45.0,0
4143,7.0,-245.0,50.0,0
4144,8.0,-246.0,47.0,0
4145,5.0,-241.0,56.0,0
4146,6.0,-238.0,50.0,0
4147,5.0,-237.0,53.0,0
4148,8.0,-232.0,57.0,0
4149,6.0,-229.0,60.0,0
4150,4.0,-228.0,56.0,0
4151,5.0,-231.0,54.0,0
4152,3.0,-228.0,57.0,0
4153,1.0,-229.0,55.0,0
4154,2.0,-232.0,54.0,0
4155,2.0,-233.0,54.0,0
4156,2.0,-234.0,52.0,0
4157,1.0,-234.0,53.0,0
4158,4.0,-238.0,56.0,0
4159,4.0,-240.0,57.0,0
4160,2.0,-242.0,54.0,0
4161,7.0,-244.0,52.0,0
4162,10.0,-243.0,53.0,0
4163,9.0,-240.0,59.0,0
4164,10.0,-240.0,59.0,0
4165,10.0,-241.0,59.0,0
4166,13.0,-238.0,60.0,0
4167,15.0,-232.0,63.0,0
4168,15.0,-231.0,63.0,0
4169,20.0,-233.0,62.0,0
4170,19.0,-226.0,64.0,0
4171,26.0,-225.0,62.0,0
4172,26.0,-221.0,62.0,0
4173,26.0,-219.0,65.0,0
4174,27.0,-221.0,61.0,0
4175,28.0,-220.0,62.0,0
4176,30.0,-221.0,64.0,0
4177,26.0,-217.0,63.0,0
4178,19.0,-217.0,63.0,0
4179,24.0,-220.0,65.0,0
4180,23.0,-217.0,59.0,0
4181,23.0,-219.0,63.0,0
4182,25.0,-215.0,63.0,0
4183,21.0,-213.0,59.0,0
4184,23.0,-211.0,64.0,0
4185,27.0,-213.0,62.0,0
4186,27.0,-213.0,59.0,0
4187,27.0,-217.0,57.0,0
4188,29.0,-216.0,57.0,0
4189,24.0,-215.0,57.0,0
4190,23.0,-219.0,51.0,0
4191,21.0,-223.0,47.0,0
4192,15.0,-224.0,50.0,0
4193,14.0,-227.0,47.0,0
4194,7.0,-231.0,47.0,0
4195,6.0,-230.0,48.0,0
4196,4.0,-229.0,46.0,0
4197,2.0,-228.0,39.0,0
4198,2.0,-228.0,41.0,0
4199,0.0,-223.0,40.0,0
4200,2.0,-222.0,39.0,0
4201,3.0,-217.0,38.0,0
4202,6.0,-215.0,39.0,0
4203,9.0,-212.0,39.0,0
4204,11.0,-214.0,42.0,0
4205,18.0,-214.0,45.0,0
4206,24.0,-223.0,51.0,0
4207,32.0,-227.0,56.0,0
4208,36.0,-234.0,57.0,0
4209,41.0,-240.0,62.0,0
4210,43.0,-246.0,64.0,0
4211,49.0,-249.0,68.0,0
4212,45.0,-250.0,67.0,0
4213,49.0,-255.0,68.0,0
4214,46.0,-255.0,64.0,0
4215,44.0,-247.0,59.0,0
4216,40.0,-246.0,53.0,0
4217,37.0,-240.0,46.0,0
4218,32.0,-232.0,49.0,0
4219,28.0,-226.0,47.0,0
4220,25.0,-219.0,50.0,0
4221,14.0,-212.0,50.0,0
4222,11.0,-209.0,50.0,0
4223,5.0,-212.0,54.0,0
4224,-5.0,-214.0,56.0,0
4225,-14.0,-216.0,56.0,0
4226,-19.0,-225.0,63.0,0
4227,-22.0,-229.0,66.0,0
4228,-22.0,-237.0,71.0,0
4229,-28.0,-243.0,81.0,0
4230,-30.0,-248.0,80.0,0
4231,-30.0,-247.0,82.0,0
4232,-22.0,-248.0,80.0,0
4233,-17.0,-242.0,72.0,0
4234,-15.0,-230.0,65.0,0
4235,-8.0,-226.0,60.0,0
4236,-7.0,-217.0,53.0,0
4237,0.0,-212.0,45.0,0
4238,1.0,-205.0,42.0,0
4239,5.0,-206.0,43.0,0
4240,6.0,-203.0,45.0,0
4241,6.0,-205.0,48.0,0
4242,5.0,-206.0,52.0,0
4243,1.0,-206.0,55.0,0
4244,0.0,-210.0,53.0,0
4245,0.0,-214.0,59.0,0
4246,-2.0,-215.0,62.0,0
4247,-9.0,-215.0,63.0,0
4248,-10.0,-219.0,64.0,0
4249,-12.0,-222.0,62.0,0
4250,-8.0,-222.0,60.0,0
4251,-13.0,-223.0,53.0,0
4252,-12.0,-220.0,55.0,0
4253,-12.0,-217.0,51.0,0
4254,-9.0,-217.0,50.0,0
4255,-6.0,-213.0,51.0,0
4256,-12.0,-211.0,49.0,0
4257,-8.0,-210.0,53.0,0
4258,-5.0,-200.0,54.0,0
4259,-3.0,-201.0,52.0,0
4260,-1.0,-197.0,53.0,0
4261,2.0,-193.0,57.0,0
4262,6.0,-190.0,59.0,0
4263,9.0,-188.0,60.0,0
4264,13.0,-185.0,65.0,0
4265,13.0,-192.0,80.0,0
4266,28.0,-193.0,64.0,0
4267,36.0,-192.0,66.0,0
4268,46.0,-208.0,67.0,0
4269,51.0,-219.0,75.0,0
4270,60.0,-243.0,87.0,0
4271,62.0,-259.0,91.0,0
4272,62.0,-285.0,94.0,0
4273,61.0,-309.0,88.0,0
4274,56.0,-325.0,72.0,0
4275,59.0,-347.0,58.0,0
4276,68.0,-370.0,31.0,0
4277,70.0,-388.0,2.0,0
4278,64.0,-410.0,-13.0,0
4279,56.0,-416.0,-18.0,0
4280,47.0,-415.0,-14.0,0
4281,46.0,-398.0,-8.0,0
4282,46.0,-384.0,0.0,0
4283,46.0,-355.0,7.0,0
4284,42.0,-333.0,18.0,0
4285,35.0,-305.0,17.0,0
4286,37.0,-285.0,24.0,0
4287,37.0,-267.0,23.0,0
4288,40.0,-244.0,24.0,0
4289,47.0,-226.0,26.0,0
4290,50.0,-210.0,24.0,0
4291,55.0,-196.0,28.0,0
4292,60.0,-193.0,29.0,0
4293,64.0,-192.0,38.0,0
4294,64.0,-197.0,48.0,0
4295,68.0,-206.0,57.0,0
4296,70.0,-219.0,59.0,0
4297,72.0,-235.0,64.0,0
4298,72.0,-251.0,62.0,0
4299,69.0,-266.0,58.0,0
4300,69.0,-286.0,54.0,0
4301,67.0,-302.0,43.0,0
4302,65.0,-316.0,37.0,0
4303,61.0,-324.0,29.0,0
4304,55.0,-330.0,27.0,0
4305,47.0,-329.0,24.0,0
4306,41.0,-329.0,22.0,0
4307,41.0,-324.0,26.0,0
4308,37.0,-318.0,26.0,0
4309,38.0,-311.0,28.0,0
4310,37.0,-297.0,30.0,0
4311,38.0,-282.0,26.0,0
4312,35.0,-267.0,27.0,0
4313,35.0,-255.0,26.0,0
4314,32.0,-242.0,28.0,0
4315,34.0,-232.0,27.0,0
4316,39.0,-227.0,25.0,0
4317,42.0,-220.0,32.0,0
4318,45.0,-219.0,32.0,0
4319,52.0,-225.0,39.0,0
4320,61.0,-227.0,37.0,0
4321,64.0,-236.0,36.0,0
4322,68.0,-247.0,34.0,0
4323,67.0,-255.0,30.0,0
4324,64.0,-272.0,33.0,0
4325,61.0,-284.0,24.0,0
4326,56.0,-301.0,32.0,0
4327,48.0,-311.0,33.0,0
4328,40.0,-318.0,29.0,0
4329,34.0,-323.0,29.0,0
4330,29.0,-323.0,27.0,0
4331,23.0,-319.0,31.0,0
4332,18.0,-316.0,32.0,0
4333,10.0,-308.0,36.0,0
4334,8.0,-298.0,40.0,0
4335,10.0,-288.0,46.0,0
4336,7.0,-275.0,58.0,0
4337,11.0,-261.0,59.0,0
4338,15.0,-248.0,67.0,0
4339,24.0,-238.0,65.0,0
4340,30.0,-226.0,65.0,0
4341,37.0,-221.0,63.0,0
4342,44.0,-220.0,59.0,0
4343,50.0,-217.0,61.0,0
4344,53.0,-221.0,61.0,0
4345,58.0,-222.0,63.0,0
4346,62.0,-226.0,59.0,0
4347,62.0,-230.0,60.0,0
4348,62.0,-236.0,63.0,0
4349,59.0,-242.0,63.0,0
4350,54.0,-244.0,58.0,0
4351,51.0,-247.0,54.0,0
4352,44.0,-247.0,51.0,0
4353,37.0,-250.0,48.0,0
4354,36.0,-247.0,41.0,0
4355,30.0,-242.0,50.0,0
4356,27.0,-240.0,47.0,0
4357,25.0,-233.0,51.0,0
4358,29.0,-236.0,51.0,0
4359,28.0,-227.0,54.0,0
4360,33.0,-230.0,52.0,0
4361,31.0,-226.0,49.0,0
4362,32.0,-232.0,58.0,0
4363,37.0,-225.0,54.0,0
4364,43.0,-226.0,50.0,0
4365,41.0,-227.0,49.0,0
4366,44.0,-229.0,49.0,0
4367,45.0,-231.0,50.0,0
4368,41.0,-234.0,50.0,0
4369,41.0,-239.0,55.0,0
4370,43.0,-241.0,56.0,0
4371,36.0,-244.0,59.0,0
4372,38.0,-245.0,59.0,0
4373,31.0,-244.0,58.0,0
4374,31.0,-246.0,63.0,0
4375,28.0,-247.0,64.0,0
4376,25.0,-245.0,66.0,0
4377,28.0,-247.0,63.0,0
4378,24.0,-245.0,63.0,0
4379,22.0,-245.0,63.0,0
4380,21.0,-241.0,60.0,0
4381,24.0,-241.0,62.0,0
4382,24.0,-242.0,61.0,0
4383,22.0,-241.0,61.0,0
4384,24.0,-240.0,63.0,0
4385,23.0,-239.0,62.0,0
4386,24.0,-238.0,59.0,0
4387,22.0,-236.0,55.0,0
4388,24.0,-231.0,54.0,0
4389,23.0,-232.0,48.0,0
4390,24.0,-232.0,52.0,0
4391,19.0,-231.0,45.0,0
4392,19.0,-228.0,47.0,0
4393,16.0,-231.0,48.0,0
4394,14.0,-230.0,48.0,0
4395,13.0,-230.0,51.0,0
4396,11.0,-230.0,51.0,0
4397,12.0,-234.0,53.0,0
4398,9.0,-232.0,56.0,0
4399,12.0,-234.0,56.0,0
4400,14.0,-236.0,59.0,0
4401,19.0,-236.0,61.0,0
4402,18.0,-236.0,58.0,0
4403,20.0,-239.0,63.0,0
4404,17.0,-237.0,60.0,0
4405,25.0,-239.0,60.0,0
4406,28.0,-236.0,59.0,0
4407,30.0,-238.0,58.0,0
4408,33.0,-236.0,57.0,0
4409,35.0,-236.0,53.0,0
4410,35.0,-234.0,51.0,0
4411,38.0,-232.0,52.0,0
4412,38.0,-231.0,49.0,0
4413,39.0,-228.0,51.0,0
4414,41.0,-233.0,49.0,0
4415,38.0,-230.0,48.0,0
4416,37.0,-232.0,50.0,0
4417,35.0,-230.0,45.0,0
4418,32.0,-236.0,47.0,0
4419,33.0,-234.0,48.0,0
4420,32.0,-233.0,39.0,0
4421,33.0,-237.0,43.0,0
4422,31.0,-235.0,39.0,0
4423,30.0,-238.0,44.0,0
4424,32.0,-238.0,44.0,0
4425,32.0,-236.0,44.0,0
4426,32.0,-233.0,41.0,0
4427,30.0,-231.0,46.0,0
4428,32.0,-231.0,43.0,0
4429,32.0,-228.0,41.0,0
4430,27.0,-225.0,40.0,0
4431,24.0,-223.0,41.0,0
4432,25.0,-224.0,39.0,0
4433,23.0,-226.0,38.0,0
4434,25.0,-227.0,43.0,0
4435,23.0,-229.0,46.0,0
4436,21.0,-232.0,49.0,0
4437,20.0,-235.0,53.0,0
4438,17.0,-237.0,54.0,0
4439,16.0,-242.0,50.0,0
4440,20.0,-244.0,52.0,0
4441,16.0,-242.0,51.0,0
4442,15.0,-249.0,47.0,0
4443,16.0,-251.0,49.0,0
4444,14.0,-251.0,44.0,0
4445,18.0,-253.0,42.0,0
4446,20.0,-251.0,40.0,0
4447,20.0,-253.0,37.0,0
4448,23.0,-251.0,40.0,0
4449,28.0,-266.0,50.0,0
4450,30.0,-247.0,37.0,0
4451,30.0,-240.0,37.0,0
4452,30.0,-237.0,39.0,0
4453,34.0,-233.0,40.0,0
4454,31.0,-224.0,39.0,0
4455,35.0,-223.0,44.0,0
4456,37.0,-221.0,44.0,0
4457,36.0,-216.0,43.0,0
4458,40.0,-212.0,45.0,0
4459,40.0,-215.0,41.0,0
4460,43.0,-208.0,35.0,0
4461,43.0,-218.0,50.0,0
4462,43.0,-221.0,48.0,0
4463,39.0,-221.0,47.0,0
4464,40.0,-225.0,47.0,0
4465,41.0,-226.0,43.0,0
4466,38.0,-224.0,43.0,0
4467,35.0,-224.0,45.0,0
4468,35.0,-219.0,43.0,0
4469,32.0,-223.0,41.0,0
4470,32.0,-220.0,34.0,0
4471,29.0,-217.0,31.0,0
4472,30.0,-218.0,24.0,0
4473,29.0,-213.0,27.0,0
4474,29.0,-219.0,24.0,0
4475,28.0,-217.0,27.0,0
4476,27.0,-216.0,25.0,0
4477,31.0,-225.0,31.0,0
4478,29.0,-224.0,38.0,0
4479,27.0,-225.0,39.0,0
4480,26.0,-227.0,43.0,0
4481,28.0,-227.0,50.0,0
4482,28.0,-229.0,50.0,0
4483,29.0,-226.0,54.0,0
4484,25.0,-228.0,57.0,0
4485,27.0,-224.0,58.0,0
4486,22.0,-224.0,58.0,0
4487,22.0,-222.0,60.0,0
4488,19.0,-224.0,59.0,0
4489,13.0,-221.0,59.0,0
4490,9.0,-222.0,54.0,0
4491,4.0,-224.0,55.0,0
4492,2.0,-226.0,53.0,0
4493,0.0,-226.0,55.0,0
4494,1.0,-226.0,53.0,0
4495,-1.0,-227.0,53.0,0
4496,1.0,-229.0,52.0,0
4497,1.0,-229.0,53.0,0
4498,3.0,-228.0,53.0,0
4499,3.0,-226.0,56.0,0
4500,11.0,-225.0,52.0,0
4501,14.0,-224.0,52.0,0
4502,22.0,-227.0,55.0,0
4503,23.0,-226.0,59.0,0
4504,23.0,-233.0,59.0,0
4505,19.0,-234.0,62.0,0
4506,19.0,-242.0,64.0,0
4507,15.0,-250.0,64.0,0
4508,10.0,-262.0,62.0,0
4509,11.0,-274.0,66.0,0
4510,6.0,-289.0,68.0,0
4511,1.0,-307.0,74.0,0
4512,1.0,-318.0,68.0,0
4513,-11.0,-330.0,65.0,0
4514,-15.0,-343.0,59.0,0
4515,-25.0,-343.0,52.0,0
4516,-31.0,-346.0,45.0,0
4517,-41.0,-346.0,31.0,0
4518,-47.0,-345.0,18.0,0
4519,-50.0,-341.0,10.0,0
4520,-50.0,-335.0,-1.0,0
4521,-46.0,-326.0,-2.0,0
4522,-38.0,-310.0,1.0,0
4523,-33.0,-298.0,0.0,0
4524,-27.0,-285.0,8.0,0
4525,-19.0,-267.0,12.0,0
4526,-14.0,-256.0,18.0,0
4527,-7.0,-241.0,25.0,0
4528,0.0,-234.0,24.0,0
4529,0.0,-222.0,29.0,0
4530,3.0,-215.0,25.0,0
4531,8.0,-215.0,18.0,0
4532,10.0,-215.0,24.0,0
4533,10.0,-220.0,19.0,0
4534,12.0,-228.0,21.0,0
4535,10.0,-238.0,20.0,0
4536,0.0,-253.0,30.0,0
4537,7.0,-258.0,15.0,0
4538,5.0,-268.0,11.0,0
4539,3.0,-270.0,5.0,0
4540,4.0,-281.0,4.0,0
4541,0.0,-282.0,3.0,0
4542,0.0,-281.0,0.0,0
4543,0.0,-278.0,-3.0,0
4544,1.0,-276.0,-9.0,0
4545,4.0,-272.0,-17.0,0
4546,4.0,-263.0,-20.0,0
4547,16.0,-246.0,-30.0,0
4548,10.0,-248.0,-14.0,0
4549,10.0,-243.0,-18.0,0
4550,11.0,-238.0,-16.0,0
4551,6.0,-234.0,-15.0,0
4552,2.0,-236.0,-11.0,0
4553,2.0,-244.0,-13.0,0
4554,-5.0,-243.0,-2.0,0
4555,-9.0,-250.0,-4.0,0
4556,-8.0,-260.0,-5.0,0
4557,-14.0,-271.0,0.0,0
4558,-20.0,-276.0,1.0,0
4559,-20.0,-283.0,3.0,0
4560,-19.0,-286.0,5.0,0
4561,-18.0,-293.0,0.0,0
4562,-17.0,-294.0,7.0,0
4563,-11.0,-291.0,2.0,0
4564,0.0,-282.0,0.0,0
4565,7.0,-287.0,3.0,0
4566,18.0,-282.0,4.0,0
4567,23.0,-283.0,6.0,0
4568,23.0,-281.0,10.0,0
4569,28.0,-290.0,15.0,0
4570,22.0,-292.0,16.0,0
4571,18.0,-301.0,16.0,0
4572,15.0,-307.0,17.0,0
4573,8.0,-319.0,14.0,0
4574,0.0,-331.0,13.0,0
4575,0.0,-347.0,26.0,0
4576,-5.0,-357.0,34.0,0
4577,-10.0,-365.0,48.0,0
4578,-7.0,-363.0,54.0,0
4579,-6.0,-354.0,64.0,0
4580,-3.0,-340.0,72.0,0
4581,-4.0,-320.0,73.0,0
4582,-1.0,-297.0,69.0,0
4583,-4.0,-277.0,65.0,0
4584,-2.0,-255.0,59.0,0
4585,0.0,-239.0,57.0,0
4586,0.0,-221.0,46.0,0
4587,2.0,-210.0,38.0,0
4588,2.0,-204.0,36.0,0
4589,3.0,-198.0,33.0,0
4590,5.0,-197.0,32.0,0
4591,9.0,-204.0,35.0,0
4592,7.0,-211.0,39.0,0
4593,11.0,-219.0,43.0,0
4594,12.0,-228.0,36.0,0
4595,12.0,-236.0,41.0,0
4596,15.0,-240.0,40.0,0
4597,19.0,-243.0,36.0,0
4598,21.0,-245.0,27.0,0
4599,24.0,-242.0,22.0,0
4600,30.0,-243.0,16.0,0
4601,34.0,-239.0,8.0,0
4602,38.0,-236.0,8.0,0
4603,38.0,-232.0,4.0,0
4604,39.0,-230.0,6.0,0
4605,44.0,-230.0,10.0,0
4606,47.0,-227.0,12.0,0
4607,46.0,-228.0,15.0,0
4608,44.0,-229.0,21.0,0
4609,41.0,-234.0,22.0,0
4610,36.0,-237.0,27.0,0
4611,35.0,-241.0,30.0,0
4612,27.0,-244.0,32.0,0
4613,23.0,-246.0,38.0,0
4614,21.0,-249.0,34.0,0
4615,14.0,-246.0,43.0,0
4616,8.0,-245.0,44.0,0
4617,7.0,-240.0,45.0,0
4618,5.0,-240.0,40.0,0
4619,1.0,-237.0,45.0,0
4620,0.0,-236.0,48.0,0
4621,2.0,-233.0,49.0,0
4622,1.0,-234.0,46.0,0
4623,0.0,-232.0,46.0,0
4624,8.0,-236.0,36.0,0
4625,9.0,-238.0,36.0,0
4626,12.0,-236.0,26.0,0
4627,13.0,-234.0,20.0,0
4628,20.0,-236.0,14.0,0
4629,22.0,-231.0,11.0,0
4630,25.0,-237.0,2.0,0
4631,25.0,-226.0,6.0,0
4632,24.0,-223.0,6.0,0
4633,31.0,-225.0,9.0,0
4634,15.0,-216.0,3.0,0
4635,10.0,-208.0,7.0,0
4636,7.0,-206.0,6.0,0
4637,2.0,-202.0,12.0,0
4638,0.0,-193.0,17.0,0
4639,0.0,-193.0,28.0,0
4640,-9.0,-190.0,26.0,0
4641,-12.0,-190.0,32.0,0
4642,-15.0,-193.0,35.0,0
4643,-20.0,-194.0,42.0,0
4644,-25.0,-200.0,49.0,0
4645,-31.0,-207.0,51.0,0
4646,-35.0,-212.0,48.0,0
4647,-38.0,-224.0,46.0,0
4648,-47.0,-230.0,47.0,0
4649,-49.0,-235.0,49.0,0
4650,-47.0,-241.0,47.0,0
4651,-46.0,-247.0,49.0,0
4652,-46.0,-244.0,49.0,0
4653,-41.0,-245.0,37.0,0
4654,-40.0,-238.0,32.0,0
4655,-43.0,-230.0,30.0,0
4656,-42.0,-221.0,20.0,0
4657,-35.0,-218.0,15.0,0
4658,-35.0,-203.0,5.0,0
4659,-33.0,-195.0,8.0,0
4660,-26.0,-190.0,1.0,0
4661,-20.0,-183.0,-2.0,0
4662,-14.0,-178.0,2.0,0
4663,-8.0,-177.0,1.0,0
4664,0.0,-174.0,5.0,0
4665,2.0,-175.0,7.0,0
4666,5.0,-173.0,8.0,0
4667,4.0,-170.0,17.0,0
4668,1.0,-172.0,22.0,0
4669,1.0,-174.0,28.0,0
4670,2.0,-175.0,36.0,0
4671,-4.0,-180.0,41.0,0
4672,-9.0,-183.0,43.0,0
4673,-16.0,-186.0,41.0,0
4674,-22.0,-185.0,42.0,0
4675,-22.0,-189.0,36.0,0
4676,-25.0,-189.0,31.0,0
4677,-33.0,-181.0,29.0,0
4678,-35.0,-179.0,25.0,0
4679,-38.0,-172.0,19.0,0
4680,-43.0,-164.0,18.0,0
4681,-39.0,-160.0,13.0,0
4682,-39.0,-156.0,16.0,0
4683,-40.0,-154.0,17.0,0
4684,-44.0,-150.0,24.0,0
4685,-39.0,-152.0,25.0,0
4686,-35.0,-159.0,25.0,0
4687,-21.0,-171.0,31.0,0
4688,-11.0,-189.0,35.0,0
4689,-7.0,-205.0,36.0,0
4690,0.0,-228.0,35.0,0
4691,4.0,-252.0,29.0,0
4692,8.0,-272.0,21.0,0
4693,14.0,-298.0,3.0,0
4694,30.0,-325.0,-19.0,0
4695,49.0,-355.0,-36.0,0
4696,64.0,-384.0,-56.0,0
4697,75.0,-403.0,-59.0,0
4698,90.0,-414.0,-58.0,0
4699,109.0,-420.0,-52.0,0
4700,123.0,-417.0,-46.0,0
4701,128.0,-405.0,-32.0,0
4702,129.0,-405.0,-7.0,0
4703,128.0,-399.0,18.0,0
4704,127.0,-397.0,47.0,0
4705,118.0,-392.0,63.0,0
4706,112.0,-387.0,78.0,0
4707,100.0,-381.0,88.0,0
4708,92.0,-371.0,90.0,0
4709,80.0,-359.0,96.0,0
4710,73.0,-354.0,97.0,0
4711,69.0,-345.0,100.0,0
4712,50.0,-337.0,96.0,0
4713,44.0,-336.0,87.0,0
4714,37.0,-338.0,76.0,0
4715,36.0,-340.0,75.0,0
4716,39.0,-344.0,61.0,0
4717,45.0,-353.0,54.0,0
4718,49.0,-363.0,53.0,0
4719,48.0,-368.0,50.0,0
4720,47.0,-375.0,48.0,0
4721,45.0,-382.0,44.0,0
4722,43.0,-381.0,40.0,0
4723,41.0,-381.0,41.0,0
4724,43.0,-374.0,38.0,0
4725,43.0,-370.0,38.0,0
4726,42.0,-358.0,39.0,0
4727,40.0,-348.0,41.0,0
4728,44.0,-336.0,42.0,0
4729,49.0,-323.0,38.0,0
4730,58.0,-318.0,51.0,0
4731,62.0,-296.0,40.0,0
4732,67.0,-282.0,42.0,0
4733,70.0,-267.0,44.0,0
4734,76.0,-257.0,40.0,0
4735,75.0,-247.0,40.0,0
4736,75.0,-238.0,42.0,0
4737,75.0,-232.0,39.0,0
4738,75.0,-228.0,38.0,0
4739,72.0,-224.0,36.0,0
4740,70.0,-227.0,32.0,0
4741,66.0,-232.0,29.0,0
4742,63.0,-238.0,23.0,0
4743,54.0,-246.0,21.0,0
4744,49.0,-250.0,15.0,0
4745,46.0,-258.0,9.0,0
4746,40.0,-259.0,7.0,0
4747,38.0,-265.0,3.0,0
4748,33.0,-271.0,1.0,0
4749,29.0,-270.0,2.0,0
4750,26.0,-268.0,0.0,0
4751,26.0,-267.0,3.0,0
4752,26.0,-265.0,7.0,0
4753,22.0,-263.0,10.0,0
4754,27.0,-262.0,10.0,0
4755,24.0,-256.0,15.0,0
4756,26.0,-250.0,17.0,0
4757,33.0,-246.0,17.0,0
4758,32.0,-239.0,12.0,0
4759,35.0,-231.0,20.0,0
4760,40.0,-230.0,21.0,0
4761,45.0,-226.0,22.0,0
4762,49.0,-222.0,24.0,0
4763,51.0,-219.0,21.0,0
4764,54.0,-217.0,26.0,0
4765,56.0,-219.0,27.0,0
4766,56.0,-217.0,26.0,0
4767,52.0,-220.0,30.0,0
4768,51.0,-218.0,25.0,0
4769,49.0,-219.0,26.0,0
4770,49.0,-223.0,22.0,0
4771,40.0,-224.0,18.0,0
4772,40.0,-226.0,18.0,0
4773,41.0,-234.0,11.0,0
4774,36.0,-235.0,13.0,0
4775,36.0,-239.0,10.0,0
4776,38.0,-241.0,9.0,0
4777,41.0,-242.0,7.0,0
4778,34.0,-242.0,7.0,0
4779,38.0,-244.0,8.0,0
4780,42.0,-247.0,11.0,0
4781,43.0,-244.0,12.0,0
4782,45.0,-242.0,13.0,0
4783,50.0,-243.0,20.0,0
4784,51.0,-243.0,16.0,0
4785,56.0,-242.0,18.0,0
4786,50.0,-245.0,19.0,0
4787,51.0,-246.0,26.0,0
4788,49.0,-247.0,26.0,0
4789,44.0,-250.0,32.0,0
4790,39.0,-248.0,30.0,0
4791,33.0,-253.0,31.0,0
4792,29.0,-255.0,32.0,0
4793,25.0,-256.0,37.0,0
4794,25.0,-257.0,33.0,0
4795,16.0,-260.0,29.0,0
4796,13.0,-260.0,30.0,0
4797,7.0,-260.0,30.0,0
4798,4.0,-261.0,29.0,0
4799,5.0,-262.0,27.0,0
4800,3.0,-263.0,31.0,0
4801,3.0,-261.0,31.0,0
4802,4.0,-261.0,31.0,0
4803,6.0,-261.0,32.0,0
4804,10.0,-256.0,28.0,0
4805,14.0,-256.0,32.0,0
4806,16.0,-254.0,34.0,0
4807,20.0,-253.0,33.0,0
4808,22.0,-246.0,30.0,0
4809,25.0,-240.0,33.0,0
4810,28.0,-236.0,34.0,0
4811,33.0,-234.0,35.0,0
4812,36.0,-227.0,28.0,0
4813,37.0,-225.0,30.0,0
4814,36.0,-227.0,29.0,0
4815,35.0,-227.0,23.0,0
4816,37.0,-232.0,28.0,0
4817,45.0,-233.0,14.0,0
4818,35.0,-239.0,21.0,0
4819,40.0,-249.0,22.0,0
4820,43.0,-258.0,26.0,0
4821,47.0,-266.0,22.0,0
4822,50.0,-273.0,20.0,0
4823,54.0,-283.0,18.0,0
4824,53.0,-284.0,20.0,0
4825,55.0,-288.0,17.0,0
4826,53.0,-293.0,20.0,0
4827,51.0,-296.0,20.0,0
4828,47.0,-297.0,21.0,0
4829,44.0,-296.0,23.0,0
4830,42.0,-291.0,27.0,0
4831,45.0,-290.0,34.0,0
4832,44.0,-288.0,32.0,0
4833,47.0,-288.0,35.0,0
4834,52.0,-291.0,40.0,0
4835,53.0,-290.0,43.0,0
4836,57.0,-289.0,38.0,0
4837,52.0,-290.0,25.0,0
4838,47.0,-289.0,11.0,0
4839,42.0,-289.0,0.0,0
4840,37.0,-289.0,-21.0,0
4841,38.0,-291.0,-22.0,0
4842,35.0,-295.0,-20.0,0
4843,34.0,-299.0,-6.0,0
4844,33.0,-302.0,12.0,0
4845,30.0,-303.0,22.0,0
4846,26.0,-301.0,23.0,0
4847,17.0,-301.0,29.0,0
4848,13.0,-295.0,24.0,0
4849,10.0,-291.0,21.0,0
4850,9.0,-286.0,18.0,0
4851,10.0,-280.0,8.0,0
4852,8.0,-274.0,7.0,0
4853,8.0,-269.0,8.0,0
4854,4.0,-257.0,0.0,0
4855,3.0,-251.0,-3.0,0
4856,0.0,-245.0,-6.0,0
4857,0.0,-238.0,-9.0,0
4858,5.0,-233.0,-9.0,0
4859,10.0,-231.0,-11.0,0
4860,13.0,-229.0,-13.0,0
4861,17.0,-227.0,-13.0,0
4862,21.0,-230.0,-4.0,0
4863,22.0,-231.0,-13.0,0
4864,25.0,-232.0,-8.0,0
4865,21.0,-235.0,-13.0,0
4866,25.0,-241.0,-13.0,0
4867,24.0,-242.0,-17.0,0
4868,22.0,-247.0,-25.0,0
4869,25.0,-249.0,-27.0,0
4870,22.0,-253.0,-35.0,0
4871,15.0,-251.0,-39.0,0
4872,12.0,-255.0,-45.0,0
4873,9.0,-257.0,-40.0,0
4874,2.0,-256.0,-46.0,0
4875,-1.0,-259.0,-45.0,0
4876,-4.0,-258.0,-47.0,0
4877,-10.0,-258.0,-47.0,0
4878,-13.0,-261.0,-49.0,0
4879,-16.0,-261.0,-47.0,0
4880,-17.0,-262.0,-46.0,0
4881,-20.0,-261.0,-44.0,0
4882,-21.0,-263.0,-42.0,0
4883,-19.0,-269.0,-38.0,0
4884,-18.0,-260.0,-35.0,0
4885,-15.0,-259.0,-31.0,0
4886,-14.0,-253.0,-35.0,0
4887,-15.0,-255.0,-30.0,0
4888,-13.0,-252.0,-29.0,0
4889,-10.0,-249.0,-27.0,0
4890,-4.0,-247.0,-24.0,0
4891,-3.0,-250.0,-27.0,0
4892,-2.0,-245.0,-24.0,0
4893,3.0,-247.0,-17.0,0
4894,1.0,-246.0,-24.0,0
4895,4.0,-249.0,-20.0,0
4896,9.0,-252.0,-19.0,0
4897,10.0,-253.0,-21.0,0
4898,16.0,-256.0,-20.0,0
4899,16.0,-255.0,-22.0,0
4900,15.0,-257.0,-17.0,0
4901,18.0,-258.0,-13.0,0
4902,18.0,-258.0,-15.0,0
4903,17.0,-259.0,-13.0,0
4904,15.0,-269.0,-4.0,0
4905,8.0,-259.0,-9.0,0
4906,9.0,-261.0,-10.0,0
4907,6.0,-260.0,-4.0,0
4908,3.0,-261.0,-5.0,0
4909,2.0,-262.0,-8.0,0
4910,-1.0,-264.0,0.0,0
4911,-3.0,-264.0,-2.0,0
4912,-5.0,-269.0,-2.0,0
4913,-8.0,-272.0,1.0,0
4914,-5.0,-271.0,-9.0,0
4915,-8.0,-275.0,2.0,0
4916,-10.0,-273.0,2.0,0
4917,-12.0,-275.0,1.0,0
4918,-13.0,-273.0,-1.0,0
4919,-14.0,-270.0,1.0,0
4920,-16.0,-267.0,-1.0,0
4921,-13.0,-265.0,-3.0,0
4922,-19.0,-262.0,-1.0,0
4923,-17.0,-259.0,-1.0,0
4924,-19.0,-257.0,0.0,0
4925,-16.0,-255.0,-3.0,0
4926,-18.0,-251.0,-6.0,0
4927,-19.0,-249.0,-9.0,0
4928,-16.0,-247.0,-1.0,0
4929,-19.0,-245.0,-1.0,0
4930,-18.0,-248.0,-3.0,0
4931,-16.0,-245.0,-1.0,0
4932,-18.0,-245.0,-2.0,0
4933,-16.0,-246.0,1.0,0
4934,-15.0,-246.0,-1.0,0
4935,-16.0,-246.0,1.0,0
4936,-14.0,-246.0,1.0,0
4937,-15.0,-244.0,0.0,0
4938,-12.0,-247.0,2.0,0
4939,-9.0,-249.0,0.0,0
4940,-11.0,-246.0,1.0,0
4941,-10.0,-248.0,2.0,0
4942,-3.0,-249.0,2.0,0
4943,-8.0,-248.0,5.0,0
4944,-8.0,-247.0,6.0,0
4945,-2.0,-252.0,3.0,0
4946,-3.0,-249.0,4.0,0
4947,-2.0,-251.0,6.0,0
4948,0.0,-255.0,3.0,0
4949,-3.0,-255.0,4.0,0
4950,-5.0,-258.0,5.0,0
4951,-1.0,-267.0,4.0,0
4952,-2.0,-266.0,1.0,0
4953,0.0,-269.0,-3.0,0
4954,-3.0,-274.0,7.0,0
4955,-3.0,-275.0,1.0,0
4956,0.0,-280.0,2.0,0
4957,-1.0,-282.0,3.0,0
4958,0.0,-286.0,-2.0,0
4959,-9.0,-287.0,0.0,0
4960,-6.0,-292.0,-10.0,0
4961,-7.0,-290.0,-17.0,0
4962,-5.0,-293.0,-15.0,0
4963,0.0,-294.0,-18.0,0
4964,0.0,-291.0,-18.0,0
4965,-1.0,-290.0,-12.0,0
4966,0.0,-287.0,-3.0,0
4967,-1.0,-280.0,0.0,0
4968,3.0,-271.0,2.0,0
4969,1.0,-261.0,7.0,0
4970,3.0,-254.0,7.0,0
