,accelerometer_x,accelerometer_y,accelerometer_z,fall
0,-1.0,-253.0,28.0,0
1,-2.0,-250.0,25.0,0
2,0.0,-252.0,25.0,0
3,1.0,-253.0,27.0,0
4,-2.0,-249.0,25.0,0
5,-4.0,-252.0,23.0,0
6,-1.0,-254.0,27.0,0
7,0.0,-254.0,26.0,0
8,0.0,-251.0,26.0,0
9,-1.0,-251.0,25.0,0
10,-1.0,-253.0,27.0,0
11,-4.0,-253.0,25.0,0
12,-1.0,-252.0,27.0,0
13,-2.0,-250.0,25.0,0
14,-2.0,-251.0,29.0,0
15,-1.0,-252.0,27.0,0
16,-1.0,-252.0,24.0,0
17,0.0,-251.0,26.0,0
18,1.0,-254.0,23.0,0
19,-1.0,-254.0,25.0,0
20,-3.0,-250.0,27.0,0
21,2.0,-255.0,24.0,0
22,-1.0,-251.0,25.0,0
23,-2.0,-253.0,27.0,0
24,-2.0,-250.0,26.0,0
25,1.0,-255.0,27.0,0
26,1.0,-257.0,28.0,0
27,-2.0,-256.0,25.0,0
28,-1.0,-251.0,28.0,0
29,-3.0,-250.0,31.0,0
30,-4.0,-252.0,25.0,0
31,-2.0,-251.0,28.0,0
32,-2.0,-249.0,26.0,0
33,-1.0,-248.0,30.0,0
34,-5.0,-250.0,28.0,0
35,-2.0,-249.0,26.0,0
36,0.0,-253.0,28.0,0
37,-3.0,-254.0,26.0,0
38,0.0,-253.0,28.0,0
39,-2.0,-250.0,25.0,0
40,0.0,-252.0,27.0,0
41,-3.0,-252.0,30.0,0
42,-4.0,-252.0,24.0,0
43,-2.0,-254.0,20.0,0
44,-3.0,-252.0,27.0,0
45,1.0,-253.0,28.0,0
46,0.0,-255.0,30.0,0
47,-1.0,-252.0,28.0,0
48,-1.0,-249.0,24.0,0
49,1.0,-251.0,29.0,0
50,-2.0,-247.0,28.0,0
51,-3.0,-250.0,27.0,0
52,-2.0,-250.0,28.0,0
53,-4.0,-251.0,25.0,0
54,-2.0,-253.0,29.0,0
55,-2.0,-255.0,28.0,0
56,0.0,-255.0,28.0,0
57,-4.0,-254.0,23.0,0
58,-1.0,-256.0,31.0,0
59,2.0,-254.0,25.0,0
60,0.0,-253.0,27.0,0
61,-2.0,-254.0,23.0,0
62,-3.0,-253.0,26.0,0
63,-2.0,-253.0,29.0,0
64,-1.0,-250.0,31.0,0
65,1.0,-249.0,26.0,0
66,-2.0,-251.0,27.0,0
67,-1.0,-251.0,26.0,0
68,-2.0,-252.0,31.0,0
69,-1.0,-249.0,29.0,0
70,-4.0,-252.0,28.0,0
71,-3.0,-249.0,25.0,0
72,0.0,-251.0,31.0,0
73,0.0,-256.0,27.0,0
74,-3.0,-253.0,28.0,0
75,0.0,-255.0,29.0,0
76,-1.0,-252.0,28.0,0
77,-2.0,-254.0,25.0,0
78,0.0,-251.0,27.0,0
79,0.0,-251.0,26.0,0
80,1.0,-253.0,25.0,0
81,-2.0,-252.0,31.0,0
82,-2.0,-253.0,29.0,0
83,-3.0,-251.0,29.0,0
84,-2.0,-250.0,26.0,0
85,-2.0,-251.0,26.0,0
86,0.0,-250.0,25.0,0
87,-4.0,-251.0,28.0,0
88,-2.0,-250.0,26.0,0
89,0.0,-252.0,23.0,0
90,-2.0,-251.0,26.0,0
91,0.0,-250.0,28.0,0
92,-3.0,-253.0,26.0,0
93,-3.0,-254.0,26.0,0
94,0.0,-252.0,22.0,0
95,-4.0,-250.0,25.0,0
96,-1.0,-253.0,23.0,0
97,-4.0,-250.0,29.0,0
98,0.0,-250.0,28.0,0
99,1.0,-251.0,29.0,0
100,-2.0,-252.0,31.0,0
101,-1.0,-254.0,27.0,0
102,-1.0,-252.0,27.0,0
103,1.0,-252.0,33.0,0
104,0.0,-254.0,29.0,0
105,-2.0,-249.0,25.0,0
106,-2.0,-251.0,25.0,0
107,-2.0,-251.0,30.0,0
108,-2.0,-251.0,27.0,0
109,1.0,-254.0,25.0,0
110,-3.0,-253.0,28.0,0
111,-1.0,-251.0,29.0,0
112,-1.0,-252.0,25.0,0
113,3.0,-256.0,23.0,0
114,2.0,-254.0,29.0,0
115,-1.0,-254.0,25.0,0
116,0.0,-251.0,28.0,0
117,1.0,-250.0,27.0,0
118,-1.0,-250.0,24.0,0
119,-3.0,-252.0,26.0,0
120,-2.0,-251.0,28.0,0
121,-3.0,-256.0,28.0,0
122,-1.0,-255.0,27.0,0
123,0.0,-255.0,24.0,0
124,-1.0,-254.0,33.0,0
125,0.0,-255.0,30.0,0
126,0.0,-252.0,28.0,0
127,-1.0,-254.0,27.0,0
128,0.0,-253.0,28.0,0
129,-1.0,-250.0,27.0,0
130,2.0,-252.0,27.0,0
131,1.0,-255.0,31.0,0
132,0.0,-255.0,31.0,0
133,3.0,-256.0,30.0,0
134,3.0,-255.0,30.0,0
135,4.0,-256.0,28.0,0
136,4.0,-256.0,30.0,0
137,1.0,-256.0,32.0,0
138,4.0,-253.0,35.0,0
139,3.0,-252.0,36.0,0
140,2.0,-253.0,31.0,0
141,2.0,-251.0,33.0,0
142,5.0,-250.0,38.0,0
143,3.0,-251.0,34.0,0
144,3.0,-250.0,36.0,0
145,3.0,-251.0,37.0,0
146,4.0,-251.0,34.0,0
147,0.0,-251.0,37.0,0
148,2.0,-254.0,33.0,0
149,4.0,-254.0,31.0,0
150,5.0,-255.0,32.0,0
151,3.0,-255.0,29.0,0
152,4.0,-256.0,30.0,0
153,4.0,-257.0,27.0,0
154,3.0,-258.0,29.0,0
155,3.0,-260.0,31.0,0
156,3.0,-258.0,34.0,0
157,3.0,-261.0,33.0,0
158,-1.0,-255.0,37.0,0
159,4.0,-258.0,34.0,0
160,2.0,-254.0,30.0,0
161,5.0,-253.0,32.0,0
162,2.0,-247.0,32.0,0
163,1.0,-244.0,29.0,0
164,1.0,-243.0,33.0,0
165,2.0,-244.0,29.0,0
166,4.0,-240.0,31.0,0
167,5.0,-242.0,31.0,0
168,4.0,-243.0,29.0,0
169,2.0,-242.0,32.0,0
170,2.0,-244.0,29.0,0
171,5.0,-242.0,32.0,0
172,4.0,-249.0,32.0,0
173,5.0,-248.0,34.0,0
174,3.0,-247.0,34.0,0
175,0.0,-244.0,34.0,0
176,1.0,-245.0,33.0,0
177,0.0,-245.0,33.0,0
178,-3.0,-248.0,30.0,0
179,-1.0,-247.0,30.0,0
180,-8.0,-252.0,30.0,0
181,-1.0,-248.0,30.0,0
182,-1.0,-249.0,35.0,0
183,-1.0,-249.0,39.0,0
184,-1.0,-251.0,38.0,0
185,1.0,-250.0,34.0,0
186,3.0,-248.0,32.0,0
187,1.0,-249.0,30.0,0
188,3.0,-253.0,28.0,0
189,1.0,-255.0,30.0,0
190,3.0,-248.0,26.0,0
191,2.0,-252.0,30.0,0
192,-3.0,-253.0,32.0,0
193,1.0,-251.0,29.0,0
194,-1.0,-250.0,29.0,0
195,1.0,-247.0,31.0,0
196,1.0,-245.0,27.0,0
197,4.0,-247.0,28.0,0
198,5.0,-241.0,26.0,0
199,10.0,-241.0,29.0,0
200,13.0,-237.0,25.0,0
201,10.0,-237.0,22.0,0
202,14.0,-238.0,22.0,0
203,17.0,-240.0,22.0,0
204,16.0,-242.0,21.0,0
205,18.0,-244.0,23.0,0
206,22.0,-246.0,17.0,0
207,24.0,-251.0,17.0,0
208,23.0,-254.0,14.0,0
209,22.0,-257.0,13.0,0
210,26.0,-260.0,9.0,0
211,25.0,-263.0,5.0,0
212,23.0,-264.0,10.0,0
213,18.0,-262.0,11.0,0
214,17.0,-266.0,9.0,0
215,14.0,-264.0,18.0,0
216,14.0,-263.0,17.0,0
217,18.0,-261.0,15.0,0
218,18.0,-260.0,17.0,0
219,19.0,-260.0,10.0,0
220,22.0,-258.0,10.0,0
221,25.0,-260.0,6.0,0
222,27.0,-259.0,1.0,0
223,31.0,-259.0,2.0,0
224,31.0,-258.0,1.0,0
225,36.0,-257.0,0.0,0
226,39.0,-261.0,-7.0,0
227,43.0,-262.0,-7.0,0
228,49.0,-263.0,-6.0,0
229,49.0,-270.0,-2.0,0
230,49.0,-271.0,-6.0,0
231,52.0,-278.0,-6.0,0
232,51.0,-280.0,-12.0,0
233,51.0,-284.0,-14.0,0
234,51.0,-286.0,-11.0,0
235,50.0,-289.0,-14.0,0
236,52.0,-287.0,-17.0,0
237,52.0,-285.0,-9.0,0
238,52.0,-281.0,-11.0,0
239,58.0,-276.0,-10.0,0
240,59.0,-272.0,-3.0,0
241,59.0,-267.0,-1.0,0
242,60.0,-259.0,-3.0,0
243,65.0,-257.0,2.0,0
244,67.0,-250.0,-4.0,0
245,63.0,-246.0,-6.0,0
246,72.0,-244.0,-6.0,0
247,71.0,-235.0,-6.0,0
248,73.0,-233.0,-6.0,0
249,72.0,-227.0,-2.0,0
250,69.0,-223.0,7.0,0
251,75.0,-220.0,11.0,0
252,74.0,-217.0,7.0,0
253,82.0,-216.0,1.0,0
254,86.0,-215.0,-11.0,0
255,95.0,-213.0,-22.0,0
256,102.0,-214.0,-35.0,0
257,113.0,-213.0,-36.0,0
258,117.0,-226.0,-37.0,0
259,120.0,-231.0,-35.0,0
260,123.0,-236.0,-27.0,0
261,125.0,-245.0,-21.0,0
262,125.0,-243.0,-17.0,0
263,123.0,-236.0,-20.0,0
264,122.0,-226.0,-23.0,0
265,125.0,-218.0,-22.0,0
266,124.0,-207.0,-23.0,0
267,127.0,-201.0,-20.0,0
268,127.0,-194.0,-22.0,0
269,127.0,-189.0,-27.0,0
270,126.0,-185.0,-31.0,0
271,131.0,-185.0,-31.0,0
272,133.0,-187.0,-31.0,0
273,133.0,-191.0,-29.0,0
274,133.0,-200.0,-32.0,0
275,135.0,-205.0,-32.0,0
276,138.0,-217.0,-35.0,0
277,141.0,-228.0,-36.0,0
278,141.0,-233.0,-30.0,0
279,141.0,-236.0,-30.0,0
280,145.0,-234.0,-33.0,0
281,143.0,-232.0,-34.0,0
282,146.0,-227.0,-39.0,0
283,138.0,-218.0,-31.0,0
284,139.0,-205.0,-26.0,0
285,139.0,-195.0,-27.0,0
286,142.0,-186.0,-35.0,0
287,149.0,-182.0,-35.0,0
288,158.0,-173.0,-39.0,0
289,159.0,-177.0,-37.0,0
290,161.0,-179.0,-38.0,0
291,165.0,-183.0,-43.0,0
292,169.0,-192.0,-40.0,0
293,171.0,-196.0,-38.0,0
294,174.0,-200.0,-38.0,0
295,180.0,-203.0,-39.0,0
296,184.0,-210.0,-31.0,0
297,183.0,-210.0,-32.0,0
298,181.0,-205.0,-30.0,0
299,177.0,-202.0,-34.0,0
300,174.0,-197.0,-34.0,0
301,171.0,-195.0,-36.0,0
302,169.0,-183.0,-44.0,0
303,167.0,-180.0,-36.0,0
304,170.0,-178.0,-45.0,0
305,165.0,-171.0,-40.0,0
306,162.0,-166.0,-40.0,0
307,163.0,-163.0,-37.0,0
308,165.0,-161.0,-40.0,0
309,165.0,-156.0,-42.0,0
310,170.0,-156.0,-37.0,0
311,171.0,-160.0,-44.0,0
312,179.0,-158.0,-43.0,0
313,185.0,-160.0,-52.0,0
314,188.0,-159.0,-48.0,0
315,196.0,-152.0,-48.0,0
316,203.0,-142.0,-47.0,0
317,212.0,-132.0,-47.0,0
318,221.0,-126.0,-42.0,0
319,227.0,-118.0,-38.0,0
320,234.0,-120.0,-38.0,0
321,241.0,-123.0,-37.0,0
322,243.0,-132.0,-37.0,0
323,242.0,-143.0,-44.0,0
324,240.0,-148.0,-48.0,0
325,233.0,-152.0,-52.0,0
326,224.0,-152.0,-54.0,0
327,220.0,-150.0,-58.0,0
328,212.0,-146.0,-65.0,0
329,203.0,-142.0,-66.0,0
330,199.0,-142.0,-65.0,0
331,197.0,-140.0,-61.0,0
332,195.0,-136.0,-57.0,0
333,199.0,-130.0,-56.0,0
334,200.0,-127.0,-52.0,0
335,202.0,-121.0,-47.0,0
336,204.0,-117.0,-50.0,0
337,207.0,-109.0,-47.0,0
338,209.0,-105.0,-52.0,0
339,218.0,-104.0,-53.0,0
340,217.0,-95.0,-55.0,0
341,223.0,-95.0,-50.0,0
342,228.0,-92.0,-50.0,0
343,230.0,-95.0,-48.0,0
344,235.0,-93.0,-43.0,0
345,236.0,-92.0,-39.0,0
346,237.0,-92.0,-33.0,0
347,238.0,-92.0,-33.0,0
348,237.0,-94.0,-32.0,0
349,238.0,-91.0,-33.0,0
350,234.0,-88.0,-34.0,0
351,231.0,-86.0,-31.0,0
352,230.0,-83.0,-33.0,0
353,232.0,-81.0,-35.0,0
354,231.0,-73.0,-35.0,0
355,230.0,-72.0,-38.0,0
356,231.0,-67.0,-45.0,0
357,232.0,-62.0,-42.0,0
358,237.0,-64.0,-41.0,0
359,234.0,-58.0,-40.0,0
360,240.0,-60.0,-38.0,0
361,245.0,-64.0,-40.0,0
362,242.0,-62.0,-35.0,0
363,244.0,-61.0,-38.0,0
364,247.0,-61.0,-40.0,0
365,246.0,-60.0,-40.0,0
366,252.0,-58.0,-39.0,0
367,252.0,-54.0,-39.0,0
368,250.0,-47.0,-35.0,0
369,253.0,-40.0,-31.0,0
370,255.0,-34.0,-31.0,0
371,256.0,-29.0,-31.0,0
372,254.0,-25.0,-30.0,0
373,257.0,-24.0,-29.0,0
374,259.0,-22.0,-26.0,0
375,258.0,-26.0,-30.0,0
376,256.0,-22.0,-31.0,0
377,261.0,-24.0,-33.0,0
378,264.0,-25.0,-33.0,0
379,271.0,-26.0,-34.0,0
380,271.0,-19.0,-30.0,0
381,268.0,-19.0,-27.0,0
382,271.0,-24.0,-23.0,0
383,266.0,-20.0,-29.0,0
384,268.0,-22.0,-27.0,0
385,268.0,-18.0,-33.0,0
386,266.0,-17.0,-27.0,0
387,267.0,-12.0,-30.0,0
388,267.0,-7.0,-28.0,0
389,266.0,-4.0,-27.0,0
390,270.0,-3.0,-19.0,0
391,271.0,4.0,-16.0,0
392,271.0,10.0,-20.0,0
393,266.0,17.0,-18.0,0
394,267.0,19.0,-19.0,0
395,271.0,20.0,-23.0,0
396,272.0,21.0,-30.0,0
397,274.0,19.0,-29.0,0
398,272.0,14.0,-37.0,0
399,268.0,13.0,-34.0,0
400,268.0,8.0,-28.0,0
401,266.0,5.0,-25.0,0
402,267.0,1.0,-22.0,0
403,265.0,2.0,-18.0,0
404,265.0,4.0,-16.0,0
405,268.0,11.0,-9.0,0
406,268.0,18.0,-6.0,0
407,268.0,22.0,-5.0,0
408,270.0,32.0,-6.0,0
409,270.0,32.0,-5.0,0
410,273.0,35.0,-5.0,0
411,275.0,38.0,-6.0,0
412,279.0,41.0,-6.0,0
413,284.0,42.0,-3.0,0
414,289.0,42.0,0.0,0
415,294.0,46.0,7.0,0
416,302.0,42.0,12.0,0
417,308.0,42.0,15.0,0
418,307.0,43.0,20.0,0
419,305.0,41.0,28.0,0
420,299.0,42.0,35.0,0
421,290.0,46.0,36.0,0
422,280.0,50.0,41.0,0
423,273.0,50.0,39.0,0
424,264.0,51.0,39.0,0
425,257.0,55.0,41.0,0
426,257.0,54.0,38.0,0
427,256.0,53.0,44.0,0
428,255.0,54.0,43.0,0
429,255.0,50.0,40.0,0
430,253.0,44.0,46.0,0
431,250.0,38.0,46.0,0
432,247.0,30.0,42.0,0
433,247.0,22.0,36.0,0
434,245.0,15.0,33.0,0
435,246.0,15.0,43.0,0
436,248.0,13.0,44.0,0
437,249.0,13.0,51.0,0
438,252.0,11.0,60.0,0
439,251.0,12.0,67.0,0
440,254.0,9.0,70.0,0
441,259.0,12.0,73.0,0
442,264.0,17.0,65.0,0
443,264.0,17.0,70.0,0
444,263.0,21.0,68.0,0
445,266.0,25.0,66.0,0
446,259.0,32.0,62.0,0
447,255.0,30.0,58.0,0
448,250.0,34.0,55.0,0
449,248.0,31.0,55.0,0
450,244.0,29.0,59.0,0
451,236.0,27.0,66.0,0
452,233.0,23.0,71.0,0
453,225.0,22.0,80.0,0
454,223.0,19.0,83.0,0
455,227.0,16.0,84.0,0
456,227.0,16.0,90.0,0
457,229.0,14.0,95.0,0
458,234.0,18.0,93.0,0
459,236.0,20.0,94.0,0
460,244.0,19.0,90.0,0
461,246.0,18.0,80.0,0
462,247.0,20.0,80.0,0
463,247.0,18.0,74.0,0
464,244.0,19.0,67.0,0
465,244.0,19.0,72.0,0
466,241.0,21.0,74.0,0
467,238.0,16.0,75.0,0
468,233.0,17.0,75.0,0
469,226.0,15.0,79.0,0
470,221.0,13.0,82.0,0
471,217.0,11.0,85.0,0
472,217.0,9.0,89.0,0
473,217.0,13.0,93.0,0
474,219.0,15.0,91.0,0
475,222.0,23.0,87.0,0
476,223.0,21.0,88.0,0
477,210.0,26.0,88.0,0
478,206.0,26.0,85.0,0
479,205.0,31.0,78.0,0
480,214.0,35.0,78.0,0
481,225.0,34.0,71.0,0
482,232.0,34.0,69.0,0
483,236.0,34.0,66.0,0
484,233.0,24.0,56.0,0
485,228.0,18.0,61.0,0
486,233.0,16.0,63.0,0
487,237.0,9.0,56.0,0
488,243.0,7.0,57.0,0
489,251.0,0.0,60.0,0
490,257.0,-4.0,64.0,0
491,256.0,-4.0,71.0,0
492,258.0,-9.0,66.0,0
493,254.0,-9.0,67.0,0
494,249.0,-3.0,63.0,0
495,244.0,-4.0,64.0,0
496,241.0,0.0,63.0,0
497,241.0,-2.0,63.0,0
498,242.0,4.0,60.0,0
499,245.0,3.0,57.0,0
500,244.0,7.0,56.0,0
501,245.0,6.0,55.0,0
502,243.0,12.0,51.0,0
503,243.0,13.0,50.0,0
504,244.0,14.0,43.0,0
505,244.0,14.0,41.0,0
506,251.0,13.0,32.0,0
507,264.0,13.0,28.0,0
508,274.0,12.0,24.0,0
509,284.0,7.0,25.0,0
510,288.0,11.0,23.0,0
511,293.0,14.0,23.0,0
512,295.0,14.0,20.0,0
513,300.0,16.0,18.0,0
514,299.0,24.0,16.0,0
515,298.0,30.0,14.0,0
516,303.0,32.0,12.0,0
517,300.0,44.0,8.0,0
518,298.0,43.0,5.0,0
519,297.0,43.0,9.0,0
520,292.0,46.0,8.0,0
521,279.0,39.0,9.0,0
522,269.0,34.0,6.0,0
523,260.0,26.0,13.0,0
524,252.0,16.0,20.0,0
525,246.0,8.0,23.0,0
526,244.0,1.0,20.0,0
527,241.0,-1.0,23.0,0
528,238.0,-5.0,22.0,0
529,242.0,-4.0,21.0,0
530,242.0,-3.0,24.0,0
531,244.0,-2.0,15.0,0
532,251.0,0.0,20.0,0
533,256.0,0.0,20.0,0
534,255.0,3.0,21.0,0
535,256.0,10.0,23.0,0
536,257.0,11.0,20.0,0
537,255.0,13.0,22.0,0
538,261.0,10.0,25.0,0
539,256.0,16.0,21.0,0
540,254.0,13.0,25.0,0
541,253.0,12.0,27.0,0
542,253.0,11.0,26.0,0
543,255.0,8.0,25.0,0
544,255.0,4.0,29.0,0
545,251.0,5.0,29.0,0
546,252.0,1.0,26.0,0
547,251.0,0.0,29.0,0
548,250.0,4.0,29.0,0
549,254.0,4.0,25.0,0
550,253.0,4.0,24.0,0
551,257.0,6.0,25.0,0
552,257.0,9.0,29.0,0
553,263.0,8.0,29.0,0
554,268.0,7.0,32.0,0
555,272.0,12.0,31.0,0
556,275.0,11.0,31.0,0
557,282.0,11.0,31.0,0
558,280.0,13.0,29.0,0
559,283.0,15.0,29.0,0
560,280.0,17.0,27.0,0
561,276.0,22.0,30.0,0
562,265.0,26.0,28.0,0
563,262.0,27.0,27.0,0
564,258.0,29.0,27.0,0
565,257.0,31.0,28.0,0
566,249.0,31.0,31.0,0
567,252.0,29.0,27.0,0
568,247.0,25.0,23.0,0
569,248.0,23.0,30.0,0
570,245.0,17.0,32.0,0
571,249.0,15.0,30.0,0
572,251.0,15.0,26.0,0
573,249.0,13.0,32.0,0
574,252.0,11.0,29.0,0
575,250.0,12.0,28.0,0
576,252.0,10.0,30.0,0
577,253.0,14.0,26.0,0
578,254.0,15.0,22.0,0
579,257.0,15.0,28.0,0
580,257.0,15.0,24.0,0
581,260.0,16.0,25.0,0
582,257.0,18.0,25.0,0
583,260.0,16.0,23.0,0
584,261.0,17.0,32.0,0
585,263.0,18.0,25.0,0
586,261.0,21.0,28.0,0
587,262.0,22.0,26.0,0
588,259.0,25.0,24.0,0
589,258.0,25.0,24.0,0
590,256.0,27.0,20.0,0
591,258.0,25.0,24.0,0
592,257.0,26.0,24.0,0
593,259.0,24.0,19.0,0
594,259.0,24.0,22.0,0
595,257.0,28.0,21.0,0
596,261.0,25.0,15.0,0
597,262.0,28.0,15.0,0
598,261.0,26.0,19.0,0
599,263.0,27.0,18.0,0
600,260.0,30.0,16.0,0
601,261.0,30.0,23.0,0
602,260.0,33.0,20.0,0
603,263.0,30.0,16.0,0
604,263.0,32.0,17.0,0
605,262.0,30.0,17.0,0
606,262.0,29.0,19.0,0
607,266.0,26.0,21.0,0
608,262.0,28.0,20.0,0
609,261.0,31.0,19.0,0
610,261.0,27.0,19.0,0
611,262.0,26.0,19.0,0
612,260.0,25.0,20.0,0
613,260.0,24.0,17.0,0
614,260.0,22.0,17.0,0
615,261.0,21.0,15.0,0
616,256.0,24.0,20.0,0
617,259.0,19.0,19.0,0
618,255.0,19.0,15.0,0
619,256.0,20.0,15.0,0
620,257.0,21.0,20.0,0
621,258.0,22.0,19.0,0
622,263.0,19.0,14.0,0
623,260.0,19.0,18.0,0
624,260.0,18.0,20.0,0
625,260.0,19.0,22.0,0
626,261.0,20.0,20.0,0
627,258.0,24.0,19.0,0
628,259.0,20.0,20.0,0
629,259.0,18.0,23.0,0
630,259.0,22.0,25.0,0
631,256.0,23.0,24.0,0
632,258.0,19.0,23.0,0
633,259.0,21.0,26.0,0
634,259.0,20.0,24.0,0
635,259.0,21.0,23.0,0
636,259.0,22.0,22.0,0
637,259.0,24.0,28.0,0
638,257.0,23.0,27.0,0
639,257.0,19.0,27.0,0
640,256.0,19.0,24.0,0
641,258.0,19.0,25.0,0
642,257.0,20.0,26.0,0
643,257.0,21.0,23.0,0
644,254.0,21.0,24.0,0
645,255.0,18.0,24.0,0
646,256.0,20.0,29.0,0
647,254.0,17.0,31.0,0
648,257.0,17.0,27.0,0
649,255.0,22.0,23.0,0
650,254.0,19.0,25.0,0
651,257.0,21.0,28.0,0
652,255.0,18.0,23.0,0
653,256.0,21.0,29.0,0
654,257.0,16.0,27.0,0
655,255.0,22.0,26.0,0
656,253.0,18.0,27.0,0
657,257.0,18.0,30.0,0
658,257.0,19.0,29.0,0
659,254.0,18.0,28.0,0
660,256.0,18.0,30.0,0
661,258.0,15.0,31.0,0
662,258.0,16.0,28.0,0
663,257.0,16.0,28.0,0
664,254.0,18.0,27.0,0
665,254.0,16.0,26.0,0
666,258.0,15.0,29.0,0
667,257.0,19.0,27.0,0
668,256.0,17.0,21.0,0
669,256.0,20.0,27.0,0
670,255.0,21.0,22.0,0
671,258.0,19.0,28.0,0
672,255.0,24.0,26.0,0
673,257.0,22.0,23.0,0
674,259.0,22.0,23.0,0
675,257.0,24.0,29.0,0
676,257.0,23.0,25.0,0
677,257.0,22.0,28.0,0
678,257.0,22.0,20.0,0
679,255.0,23.0,26.0,0
680,255.0,23.0,27.0,0
681,257.0,20.0,28.0,0
682,259.0,20.0,30.0,0
683,257.0,20.0,29.0,0
684,257.0,21.0,26.0,0
685,258.0,20.0,29.0,0
686,257.0,20.0,22.0,0
687,255.0,19.0,24.0,0
688,256.0,19.0,26.0,0
689,256.0,19.0,25.0,0
690,259.0,19.0,20.0,0
691,258.0,20.0,23.0,0
692,255.0,20.0,23.0,0
693,261.0,22.0,21.0,0
694,261.0,18.0,23.0,0
695,258.0,24.0,20.0,0
696,260.0,22.0,24.0,0
697,256.0,24.0,25.0,0
698,259.0,21.0,23.0,0
699,259.0,20.0,23.0,0
700,258.0,19.0,27.0,0
701,257.0,20.0,27.0,0
702,257.0,21.0,22.0,0
703,256.0,20.0,23.0,0
704,257.0,21.0,26.0,0
705,257.0,22.0,24.0,0
706,255.0,21.0,24.0,0
707,258.0,19.0,24.0,0
708,257.0,19.0,24.0,0
709,257.0,16.0,19.0,0
710,256.0,21.0,24.0,0
711,259.0,19.0,25.0,0
712,256.0,21.0,19.0,0
713,256.0,22.0,24.0,0
714,260.0,17.0,22.0,0
715,258.0,21.0,29.0,0
716,257.0,20.0,21.0,0
717,257.0,20.0,21.0,0
718,258.0,20.0,23.0,0
719,258.0,21.0,20.0,0
720,260.0,19.0,24.0,0
721,258.0,20.0,25.0,0
722,258.0,23.0,25.0,0
723,257.0,23.0,26.0,0
724,258.0,19.0,23.0,0
725,258.0,21.0,25.0,0
726,257.0,17.0,24.0,0
727,256.0,18.0,27.0,0
728,260.0,18.0,28.0,0
729,256.0,17.0,24.0,0
730,260.0,18.0,26.0,0
731,257.0,19.0,22.0,0
732,258.0,16.0,26.0,0
733,256.0,22.0,20.0,0
734,256.0,19.0,21.0,0
735,260.0,18.0,26.0,0
736,257.0,17.0,26.0,0
737,259.0,20.0,22.0,0
738,257.0,24.0,27.0,0
739,255.0,20.0,23.0,0
740,256.0,19.0,21.0,0
741,258.0,19.0,26.0,0
742,256.0,20.0,24.0,0
743,254.0,20.0,26.0,0
744,258.0,17.0,27.0,0
745,257.0,19.0,29.0,0
746,256.0,19.0,26.0,0
747,256.0,20.0,27.0,0
748,257.0,19.0,26.0,0
749,256.0,23.0,30.0,0
750,256.0,18.0,28.0,0
751,254.0,23.0,26.0,0
752,256.0,21.0,27.0,0
753,258.0,19.0,26.0,0
754,258.0,20.0,28.0,0
755,256.0,20.0,31.0,0
756,257.0,21.0,28.0,0
757,258.0,20.0,27.0,0
758,258.0,19.0,25.0,0
759,258.0,19.0,25.0,0
760,254.0,20.0,25.0,0
761,259.0,20.0,27.0,0
762,256.0,18.0,26.0,0
763,256.0,18.0,28.0,0
764,257.0,23.0,30.0,0
765,258.0,19.0,26.0,0
766,258.0,20.0,29.0,0
767,258.0,22.0,22.0,0
768,256.0,23.0,25.0,0
769,257.0,19.0,25.0,0
770,258.0,21.0,25.0,0
771,257.0,19.0,26.0,0
772,255.0,19.0,28.0,0
773,256.0,19.0,25.0,0
774,256.0,19.0,27.0,0
775,259.0,20.0,30.0,0
776,255.0,21.0,26.0,0
777,257.0,19.0,27.0,0
778,258.0,19.0,28.0,0
779,255.0,20.0,28.0,0
780,258.0,20.0,29.0,0
781,260.0,20.0,27.0,0
782,258.0,20.0,25.0,0
783,258.0,16.0,32.0,0
784,259.0,19.0,22.0,0
785,258.0,17.0,30.0,0
786,257.0,18.0,24.0,0
787,258.0,17.0,23.0,0
788,257.0,16.0,26.0,0
789,258.0,17.0,27.0,0
790,258.0,20.0,23.0,0
791,256.0,21.0,29.0,0
792,257.0,20.0,23.0,0
793,258.0,18.0,23.0,0
794,258.0,22.0,26.0,0
795,259.0,18.0,23.0,0
796,255.0,21.0,24.0,0
797,257.0,18.0,27.0,0
798,257.0,18.0,26.0,0
799,257.0,19.0,26.0,0
800,258.0,22.0,31.0,0
801,257.0,20.0,27.0,0
802,257.0,21.0,21.0,0
803,258.0,20.0,27.0,0
804,256.0,19.0,25.0,0
805,259.0,19.0,26.0,0
806,258.0,20.0,25.0,0
807,257.0,20.0,25.0,0
808,255.0,18.0,26.0,0
809,254.0,16.0,28.0,0
810,258.0,18.0,25.0,0
811,259.0,14.0,27.0,0
812,259.0,18.0,29.0,0
813,258.0,19.0,23.0,0
814,259.0,19.0,29.0,0
815,257.0,20.0,29.0,0
816,258.0,17.0,31.0,0
817,256.0,22.0,26.0,0
818,257.0,21.0,23.0,0
819,258.0,19.0,22.0,0
820,259.0,21.0,23.0,0
821,258.0,18.0,22.0,0
822,255.0,21.0,21.0,0
823,257.0,20.0,28.0,0
824,258.0,19.0,24.0,0
825,257.0,21.0,22.0,0
826,259.0,19.0,25.0,0
827,256.0,20.0,23.0,0
828,258.0,19.0,30.0,0
829,256.0,22.0,29.0,0
830,257.0,21.0,29.0,0
831,256.0,22.0,28.0,0
832,257.0,22.0,26.0,0
833,258.0,20.0,28.0,0
834,256.0,22.0,27.0,0
835,257.0,21.0,26.0,0
836,257.0,19.0,25.0,0
837,257.0,18.0,29.0,0
838,256.0,18.0,25.0,0
839,257.0,20.0,24.0,0
840,258.0,18.0,27.0,0
841,257.0,20.0,26.0,0
842,258.0,19.0,26.0,0
843,259.0,22.0,25.0,0
844,256.0,20.0,27.0,0
845,258.0,20.0,24.0,0
846,257.0,21.0,25.0,0
847,258.0,21.0,31.0,0
848,258.0,21.0,28.0,0
849,258.0,21.0,26.0,0
850,255.0,19.0,27.0,0
851,257.0,21.0,26.0,0
852,256.0,23.0,27.0,0
853,258.0,23.0,24.0,0
854,257.0,21.0,30.0,0
855,260.0,18.0,28.0,0
856,259.0,22.0,24.0,0
857,257.0,20.0,24.0,0
858,257.0,20.0,24.0,0
859,256.0,23.0,24.0,0
860,257.0,20.0,28.0,0
861,254.0,19.0,29.0,0
862,259.0,18.0,23.0,0
863,257.0,18.0,25.0,0
864,258.0,17.0,28.0,0
865,256.0,19.0,23.0,0
866,256.0,18.0,23.0,0
867,255.0,19.0,27.0,0
868,254.0,19.0,31.0,0
869,255.0,21.0,29.0,0
870,257.0,20.0,25.0,0
871,256.0,19.0,28.0,0
872,256.0,16.0,29.0,0
873,257.0,20.0,25.0,0
874,259.0,20.0,27.0,0
875,257.0,18.0,22.0,0
876,257.0,19.0,25.0,0
877,259.0,19.0,26.0,0
878,258.0,21.0,26.0,0
879,261.0,20.0,27.0,0
880,257.0,18.0,27.0,0
881,260.0,20.0,25.0,0
882,258.0,19.0,29.0,0
883,257.0,22.0,26.0,0
884,257.0,19.0,27.0,0
885,256.0,23.0,27.0,0
886,258.0,19.0,25.0,0
887,257.0,21.0,32.0,0
888,258.0,21.0,28.0,0
889,256.0,21.0,30.0,0
890,255.0,22.0,28.0,0
891,259.0,18.0,30.0,0
892,261.0,17.0,26.0,0
893,259.0,22.0,23.0,0
894,260.0,18.0,23.0,0
895,259.0,20.0,24.0,0
896,258.0,23.0,26.0,0
897,262.0,21.0,26.0,0
898,263.0,23.0,24.0,0
899,264.0,19.0,22.0,0
900,266.0,20.0,20.0,0
901,266.0,17.0,22.0,0
902,270.0,19.0,22.0,0
903,271.0,21.0,21.0,0
904,269.0,23.0,22.0,0
905,270.0,23.0,24.0,0
906,273.0,23.0,28.0,0
907,272.0,23.0,33.0,0
908,274.0,21.0,30.0,0
909,273.0,19.0,36.0,0
910,278.0,16.0,33.0,0
911,275.0,18.0,32.0,0
912,279.0,17.0,27.0,0
913,282.0,13.0,30.0,0
914,280.0,11.0,30.0,0
915,277.0,9.0,28.0,0
916,275.0,12.0,31.0,0
917,269.0,9.0,32.0,0
918,258.0,13.0,36.0,0
919,255.0,19.0,34.0,0
920,249.0,20.0,35.0,0
921,247.0,23.0,33.0,0
922,245.0,23.0,30.0,0
923,244.0,21.0,27.0,0
924,243.0,22.0,20.0,0
925,241.0,20.0,19.0,0
926,244.0,18.0,12.0,0
927,245.0,16.0,8.0,0
928,246.0,13.0,4.0,0
929,248.0,10.0,0.0,0
930,251.0,3.0,-6.0,0
931,252.0,1.0,-3.0,0
932,254.0,-4.0,2.0,0
933,252.0,-4.0,-1.0,0
934,252.0,-7.0,6.0,0
935,249.0,-6.0,10.0,0
936,247.0,-6.0,15.0,0
937,244.0,-3.0,21.0,0
938,243.0,-4.0,20.0,0
939,245.0,-1.0,20.0,0
940,245.0,2.0,22.0,0
941,243.0,5.0,22.0,0
942,244.0,5.0,17.0,0
943,242.0,9.0,25.0,0
944,242.0,10.0,24.0,0
945,237.0,13.0,27.0,0
946,238.0,10.0,28.0,0
947,236.0,8.0,31.0,0
948,235.0,3.0,27.0,0
949,232.0,3.0,27.0,0
950,236.0,5.0,32.0,0
951,236.0,1.0,34.0,0
952,239.0,7.0,36.0,0
953,232.0,12.0,40.0,0
954,238.0,18.0,39.0,0
955,241.0,14.0,38.0,0
956,244.0,20.0,38.0,0
957,246.0,28.0,38.0,0
958,247.0,32.0,38.0,0
959,252.0,38.0,42.0,0
960,253.0,43.0,41.0,0
961,256.0,51.0,39.0,0
962,255.0,55.0,41.0,0
963,258.0,56.0,38.0,0
964,257.0,61.0,37.0,0
965,254.0,65.0,36.0,0
966,254.0,64.0,33.0,0
967,249.0,67.0,33.0,0
968,247.0,69.0,27.0,0
969,246.0,68.0,29.0,0
970,246.0,67.0,29.0,0
971,246.0,67.0,27.0,0
972,245.0,64.0,26.0,0
973,245.0,64.0,26.0,0
974,244.0,62.0,26.0,0
975,242.0,64.0,24.0,0
976,241.0,62.0,21.0,0
977,241.0,67.0,22.0,0
978,244.0,64.0,19.0,0
979,245.0,67.0,17.0,0
980,252.0,67.0,13.0,0
981,262.0,64.0,14.0,0
982,272.0,59.0,9.0,0
983,283.0,55.0,9.0,0
984,290.0,51.0,5.0,0
985,298.0,49.0,-3.0,0
986,302.0,47.0,-6.0,0
987,305.0,48.0,-8.0,0
988,306.0,51.0,-4.0,0
989,307.0,56.0,-10.0,0
990,307.0,61.0,-8.0,0
991,307.0,67.0,-14.0,0
992,303.0,74.0,-20.0,0
993,303.0,75.0,-27.0,0
994,296.0,76.0,-30.0,0
995,293.0,71.0,-38.0,0
996,292.0,62.0,-43.0,0
997,288.0,57.0,-48.0,0
998,289.0,47.0,-48.0,0
999,287.0,37.0,-51.0,0
1000,287.0,30.0,-58.0,0
1001,285.0,20.0,-58.0,0
1002,286.0,19.0,-60.0,0
1003,281.0,14.0,-71.0,0
1004,274.0,15.0,-75.0,0
1005,270.0,17.0,-81.0,0
1006,271.0,16.0,-88.0,0
1007,263.0,17.0,-86.0,0
1008,267.0,18.0,-85.0,0
1009,267.0,17.0,-80.0,0
1010,265.0,16.0,-82.0,0
1011,271.0,14.0,-83.0,0
1012,279.0,4.0,-89.0,0
1013,278.0,1.0,-99.0,0
1014,283.0,-3.0,-102.0,0
1015,278.0,-9.0,-105.0,0
1016,278.0,-14.0,-104.0,0
1017,274.0,-23.0,-103.0,0
1018,273.0,-27.0,-105.0,0
1019,270.0,-32.0,-95.0,0
1020,269.0,-36.0,-93.0,0
1021,266.0,-40.0,-89.0,0
1022,263.0,-40.0,-87.0,0
1023,259.0,-42.0,-88.0,0
1024,252.0,-41.0,-94.0,0
1025,251.0,-40.0,-93.0,0
1026,249.0,-26.0,-84.0,0
1027,246.0,-41.0,-89.0,0
1028,248.0,-39.0,-84.0,0
1029,248.0,-43.0,-89.0,0
1030,252.0,-46.0,-89.0,0
1031,251.0,-47.0,-85.0,0
1032,252.0,-52.0,-93.0,0
1033,251.0,-53.0,-89.0,0
1034,252.0,-58.0,-87.0,0
1035,250.0,-63.0,-90.0,0
1036,246.0,-60.0,-88.0,0
1037,246.0,-62.0,-87.0,0
1038,244.0,-66.0,-92.0,0
1039,244.0,-66.0,-91.0,0
1040,244.0,-68.0,-94.0,0
1041,237.0,-67.0,-90.0,0
1042,235.0,-68.0,-88.0,0
1043,229.0,-66.0,-81.0,0
1044,226.0,-69.0,-79.0,0
1045,221.0,-71.0,-76.0,0
1046,218.0,-76.0,-80.0,0
1047,217.0,-82.0,-84.0,0
1048,214.0,-85.0,-82.0,0
1049,212.0,-86.0,-85.0,0
1050,214.0,-97.0,-85.0,0
1051,213.0,-101.0,-91.0,0
1052,216.0,-108.0,-90.0,0
1053,212.0,-106.0,-89.0,0
1054,213.0,-104.0,-89.0,0
1055,211.0,-99.0,-86.0,0
1056,211.0,-98.0,-86.0,0
1057,219.0,-95.0,-85.0,0
1058,217.0,-94.0,-86.0,0
1059,219.0,-99.0,-92.0,0
1060,218.0,-97.0,-89.0,0
1061,225.0,-106.0,-86.0,0
1062,223.0,-111.0,-83.0,0
1063,228.0,-116.0,-80.0,0
1064,230.0,-120.0,-77.0,0
1065,230.0,-124.0,-83.0,0
1066,230.0,-127.0,-76.0,0
1067,230.0,-129.0,-79.0,0
1068,226.0,-125.0,-75.0,0
1069,227.0,-125.0,-72.0,0
1070,231.0,-130.0,-73.0,0
1071,229.0,-127.0,-77.0,0
1072,230.0,-130.0,-75.0,0
1073,225.0,-133.0,-74.0,0
1074,222.0,-132.0,-69.0,0
1075,221.0,-137.0,-64.0,0
1076,218.0,-144.0,-64.0,0
1077,217.0,-144.0,-62.0,0
1078,210.0,-146.0,-56.0,0
1079,208.0,-151.0,-55.0,0
1080,203.0,-155.0,-48.0,0
1081,201.0,-156.0,-42.0,0
1082,199.0,-157.0,-43.0,0
1083,196.0,-157.0,-40.0,0
1084,196.0,-156.0,-38.0,0
1085,196.0,-156.0,-31.0,0
1086,194.0,-161.0,-33.0,0
1087,197.0,-161.0,-29.0,0
1088,195.0,-166.0,-23.0,0
1089,192.0,-166.0,-18.0,0
1090,193.0,-168.0,-16.0,0
1091,190.0,-172.0,-5.0,0
1092,190.0,-173.0,-5.0,0
1093,183.0,-175.0,0.0,0
1094,180.0,-175.0,1.0,0
1095,174.0,-178.0,-2.0,0
1096,164.0,-178.0,-1.0,0
1097,158.0,-175.0,-1.0,0
1098,152.0,-179.0,-5.0,0
1099,150.0,-177.0,-4.0,0
1100,147.0,-178.0,-3.0,0
1101,151.0,-183.0,-8.0,0
1102,146.0,-182.0,-3.0,0
1103,147.0,-183.0,-4.0,0
1104,143.0,-190.0,-3.0,0
1105,136.0,-189.0,8.0,0
1106,141.0,-183.0,4.0,0
1107,154.0,-185.0,1.0,0
1108,134.0,-186.0,1.0,0
1109,138.0,-189.0,5.0,0
1110,142.0,-189.0,2.0,0
1111,142.0,-191.0,5.0,0
1112,146.0,-194.0,8.0,0
1113,149.0,-196.0,4.0,0
1114,152.0,-198.0,-2.0,0
1115,153.0,-198.0,-5.0,0
1116,156.0,-199.0,-11.0,0
1117,152.0,-196.0,-7.0,0
1118,150.0,-197.0,-12.0,0
1119,145.0,-196.0,-13.0,0
1120,141.0,-193.0,-7.0,0
1121,138.0,-192.0,-5.0,0
1122,139.0,-194.0,0.0,0
1123,141.0,-194.0,-1.0,0
1124,142.0,-197.0,1.0,0
1125,143.0,-199.0,1.0,0
1126,144.0,-203.0,5.0,0
1127,144.0,-206.0,5.0,0
1128,142.0,-209.0,11.0,0
1129,141.0,-210.0,10.0,0
1130,137.0,-213.0,8.0,0
1131,137.0,-215.0,10.0,0
1132,136.0,-217.0,6.0,0
1133,133.0,-218.0,5.0,0
1134,128.0,-219.0,6.0,0
1135,126.0,-217.0,9.0,0
1136,125.0,-220.0,7.0,0
1137,123.0,-220.0,4.0,0
1138,122.0,-219.0,1.0,0
1139,123.0,-217.0,3.0,0
1140,120.0,-215.0,5.0,0
1141,121.0,-211.0,8.0,0
1142,118.0,-204.0,8.0,0
1143,121.0,-204.0,8.0,0
1144,119.0,-199.0,8.0,0
1145,121.0,-199.0,8.0,0
1146,116.0,-199.0,11.0,0
1147,115.0,-198.0,11.0,0
1148,114.0,-202.0,11.0,0
1149,109.0,-205.0,13.0,0
1150,102.0,-207.0,10.0,0
1151,96.0,-209.0,13.0,0
1152,92.0,-212.0,16.0,0
1153,90.0,-219.0,12.0,0
1154,87.0,-225.0,18.0,0
1155,87.0,-229.0,17.0,0
1156,86.0,-232.0,19.0,0
1157,84.0,-235.0,22.0,0
1158,85.0,-237.0,21.0,0
1159,81.0,-236.0,18.0,0
1160,82.0,-234.0,19.0,0
1161,82.0,-235.0,19.0,0
1162,82.0,-236.0,21.0,0
1163,83.0,-233.0,18.0,0
1164,85.0,-231.0,20.0,0
1165,85.0,-230.0,18.0,0
1166,82.0,-227.0,17.0,0
1167,84.0,-228.0,23.0,0
1168,82.0,-225.0,24.0,0
1169,83.0,-226.0,22.0,0
1170,80.0,-228.0,17.0,0
1171,76.0,-225.0,21.0,0
1172,70.0,-228.0,20.0,0
1173,65.0,-229.0,23.0,0
1174,59.0,-229.0,22.0,0
1175,56.0,-232.0,20.0,0
1176,55.0,-231.0,22.0,0
1177,52.0,-230.0,19.0,0
1178,52.0,-231.0,19.0,0
1179,51.0,-234.0,16.0,0
1180,50.0,-230.0,15.0,0
1181,47.0,-239.0,12.0,0
1182,48.0,-243.0,10.0,0
1183,47.0,-251.0,15.0,0
1184,44.0,-258.0,16.0,0
1185,44.0,-267.0,23.0,0
1186,47.0,-276.0,29.0,0
1187,42.0,-282.0,34.0,0
1188,40.0,-289.0,36.0,0
1189,39.0,-291.0,34.0,0
1190,39.0,-295.0,38.0,0
1191,35.0,-294.0,30.0,0
1192,36.0,-289.0,29.0,0
1193,33.0,-282.0,24.0,0
1194,32.0,-279.0,19.0,0
1195,32.0,-271.0,12.0,0
1196,28.0,-264.0,10.0,0
1197,22.0,-259.0,11.0,0
1198,22.0,-253.0,3.0,0
1199,21.0,-252.0,4.0,0
1200,17.0,-248.0,6.0,0
1201,14.0,-250.0,8.0,0
1202,11.0,-252.0,7.0,0
1203,6.0,-257.0,8.0,0
1204,-2.0,-264.0,11.0,0
1205,-6.0,-273.0,11.0,0
1206,-15.0,-279.0,13.0,0
1207,-24.0,-291.0,21.0,0
1208,-28.0,-304.0,20.0,0
1209,-33.0,-309.0,25.0,0
1210,-38.0,-313.0,28.0,0
1211,-41.0,-317.0,29.0,0
1212,-41.0,-316.0,33.0,0
1213,-41.0,-308.0,37.0,0
1214,-38.0,-296.0,31.0,0
1215,-35.0,-283.0,32.0,0
1216,-35.0,-267.0,31.0,0
1217,-34.0,-258.0,28.0,0
1218,-32.0,-242.0,31.0,0
1219,-26.0,-231.0,25.0,0
1220,-22.0,-219.0,26.0,0
1221,-14.0,-213.0,27.0,0
1222,-10.0,-209.0,33.0,0
1223,-11.0,-203.0,34.0,0
1224,-12.0,-206.0,35.0,0
1225,-10.0,-209.0,34.0,0
1226,-12.0,-219.0,35.0,0
1227,-11.0,-231.0,42.0,0
1228,-15.0,-235.0,38.0,0
1229,-15.0,-240.0,43.0,0
1230,-23.0,-247.0,41.0,0
1231,-27.0,-244.0,41.0,0
1232,-29.0,-246.0,45.0,0
1233,-39.0,-244.0,46.0,0
1234,-41.0,-244.0,46.0,0
1235,-49.0,-246.0,51.0,0
1236,-51.0,-245.0,55.0,0
1237,-56.0,-240.0,59.0,0
1238,-59.0,-241.0,56.0,0
1239,-56.0,-240.0,51.0,0
1240,-51.0,-239.0,48.0,0
1241,-50.0,-240.0,51.0,0
1242,-48.0,-238.0,50.0,0
1243,-43.0,-241.0,52.0,0
1244,-37.0,-242.0,53.0,0
1245,-34.0,-243.0,49.0,0
1246,-32.0,-247.0,50.0,0
1247,-29.0,-249.0,51.0,0
1248,-23.0,-251.0,44.0,0
1249,-20.0,-252.0,49.0,0
1250,-18.0,-256.0,46.0,0
1251,-17.0,-255.0,50.0,0
1252,-14.0,-259.0,45.0,0
1253,-19.0,-259.0,44.0,0
1254,-11.0,-260.0,44.0,0
1255,-11.0,-258.0,46.0,0
1256,-14.0,-254.0,47.0,0
1257,-15.0,-251.0,43.0,0
1258,-17.0,-246.0,38.0,0
1259,-20.0,-243.0,39.0,0
1260,-20.0,-241.0,42.0,0
1261,-22.0,-235.0,42.0,0
1262,-26.0,-232.0,40.0,0
1263,-28.0,-232.0,38.0,0
1264,-35.0,-228.0,38.0,0
1265,-31.0,-227.0,42.0,0
1266,-28.0,-234.0,47.0,0
1267,-29.0,-233.0,49.0,0
1268,-31.0,-233.0,49.0,0
1269,-30.0,-235.0,48.0,0
1270,-31.0,-237.0,49.0,0
1271,-28.0,-240.0,50.0,0
1272,-29.0,-244.0,47.0,0
1273,-29.0,-246.0,46.0,0
1274,-28.0,-247.0,42.0,0
1275,-27.0,-249.0,43.0,0
1276,-22.0,-251.0,40.0,0
1277,-23.0,-250.0,39.0,0
1278,-27.0,-249.0,46.0,0
1279,-23.0,-246.0,39.0,0
1280,-29.0,-245.0,40.0,0
1281,-33.0,-246.0,37.0,0
1282,-21.0,-239.0,43.0,0
1283,-24.0,-240.0,45.0,0
1284,-25.0,-244.0,41.0,0
1285,-23.0,-244.0,47.0,0
1286,-26.0,-241.0,44.0,0
1287,-27.0,-244.0,43.0,0
1288,-26.0,-246.0,44.0,0
1289,-23.0,-247.0,43.0,0
1290,-25.0,-246.0,42.0,0
1291,-25.0,-248.0,41.0,0
1292,-26.0,-249.0,41.0,0
1293,-23.0,-253.0,41.0,0
1294,-21.0,-255.0,39.0,0
1295,-22.0,-253.0,38.0,0
1296,-24.0,-250.0,37.0,0
1297,-23.0,-250.0,35.0,0
1298,-19.0,-249.0,36.0,0
1299,-19.0,-249.0,39.0,0
1300,-19.0,-248.0,35.0,0
1301,-20.0,-247.0,35.0,0
1302,-21.0,-249.0,33.0,0
1303,-19.0,-244.0,34.0,0
1304,-20.0,-245.0,34.0,0
1305,-22.0,-246.0,32.0,0
1306,-22.0,-246.0,34.0,0
1307,-25.0,-242.0,35.0,0
1308,-29.0,-242.0,36.0,0
1309,-28.0,-244.0,35.0,0
1310,-28.0,-244.0,32.0,0
1311,-27.0,-246.0,33.0,0
1312,-27.0,-246.0,35.0,0
1313,-26.0,-247.0,27.0,0
1314,-26.0,-249.0,28.0,0
1315,-25.0,-248.0,29.0,0
1316,-23.0,-253.0,28.0,0
1317,-23.0,-254.0,28.0,0
1318,-23.0,-257.0,28.0,0
1319,-21.0,-260.0,26.0,0
1320,-17.0,-260.0,28.0,0
1321,-17.0,-257.0,27.0,0
1322,-15.0,-259.0,27.0,0
1323,-15.0,-260.0,27.0,0
1324,-15.0,-260.0,28.0,0
1325,-16.0,-259.0,29.0,0
1326,-15.0,-256.0,28.0,0
1327,-18.0,-257.0,25.0,0
1328,-14.0,-252.0,27.0,0
1329,-21.0,-252.0,27.0,0
1330,-21.0,-250.0,27.0,0
1331,-18.0,-254.0,27.0,0
1332,-21.0,-249.0,23.0,0
1333,-18.0,-248.0,26.0,0
1334,-17.0,-252.0,28.0,0
1335,-19.0,-252.0,31.0,0
1336,-16.0,-252.0,30.0,0
1337,-14.0,-254.0,28.0,0
1338,-14.0,-252.0,28.0,0
1339,-13.0,-252.0,31.0,0
1340,-12.0,-253.0,35.0,0
1341,-14.0,-252.0,34.0,0
1342,-12.0,-252.0,33.0,0
1343,-12.0,-250.0,34.0,0
1344,-11.0,-254.0,34.0,0
1345,-11.0,-252.0,33.0,0
1346,-12.0,-246.0,30.0,0
1347,-14.0,-248.0,33.0,0
1348,-13.0,-250.0,33.0,0
1349,-12.0,-246.0,35.0,0
1350,-12.0,-247.0,37.0,0
1351,-11.0,-249.0,31.0,0
1352,-8.0,-248.0,33.0,0
1353,-8.0,-252.0,33.0,0
1354,-9.0,-250.0,34.0,0
1355,-6.0,-253.0,34.0,0
1356,-6.0,-257.0,34.0,0
1357,-8.0,-254.0,37.0,0
1358,-6.0,-257.0,36.0,0
1359,-7.0,-254.0,34.0,0
1360,-4.0,-256.0,35.0,0
1361,-6.0,-255.0,33.0,0
1362,-4.0,-252.0,35.0,0
1363,-5.0,-254.0,34.0,0
1364,-5.0,-252.0,37.0,0
1365,-5.0,-253.0,33.0,0
1366,-5.0,-251.0,33.0,0
1367,-2.0,-249.0,34.0,0
1368,0.0,-251.0,37.0,0
1369,-2.0,-252.0,33.0,0
1370,-4.0,-252.0,34.0,0
1371,-2.0,-248.0,34.0,0
1372,1.0,-248.0,33.0,0
1373,-1.0,-249.0,33.0,0
1374,-2.0,-251.0,33.0,0
1375,1.0,-251.0,29.0,0
1376,-1.0,-251.0,31.0,0
1377,2.0,-253.0,30.0,0
1378,0.0,-250.0,33.0,0
1379,1.0,-255.0,34.0,0
1380,4.0,-254.0,30.0,0
1381,4.0,-250.0,31.0,0
1382,2.0,-252.0,33.0,0
1383,5.0,-252.0,34.0,0
1384,6.0,-249.0,33.0,0
1385,1.0,-248.0,27.0,0
1386,4.0,-249.0,31.0,0
1387,3.0,-251.0,30.0,0
1388,5.0,-247.0,32.0,0
1389,2.0,-245.0,27.0,0
1390,1.0,-246.0,31.0,0
1391,5.0,-249.0,30.0,0
1392,5.0,-248.0,31.0,0
1393,3.0,-248.0,30.0,0
1394,4.0,-251.0,33.0,0
1395,7.0,-251.0,30.0,0
1396,8.0,-253.0,30.0,0
1397,5.0,-253.0,31.0,0
1398,1.0,-251.0,32.0,0
1399,6.0,-253.0,27.0,0
1400,4.0,-250.0,29.0,0
1401,3.0,-253.0,31.0,0
1402,4.0,-255.0,26.0,0
1403,5.0,-253.0,30.0,0
1404,3.0,-253.0,30.0,0
1405,5.0,-250.0,31.0,0
1406,2.0,-251.0,30.0,0
1407,1.0,-248.0,31.0,0
1408,2.0,-248.0,30.0,0
1409,4.0,-248.0,35.0,0
1410,4.0,-251.0,26.0,0
1411,0.0,-246.0,29.0,0
1412,2.0,-250.0,29.0,0
1413,2.0,-248.0,29.0,0
1414,2.0,-251.0,25.0,0
1415,4.0,-250.0,27.0,0
1416,2.0,-253.0,26.0,0
1417,5.0,-255.0,26.0,0
1418,2.0,-252.0,29.0,0
1419,3.0,-253.0,27.0,0
1420,6.0,-252.0,26.0,0
1421,4.0,-250.0,28.0,0
1422,2.0,-252.0,25.0,0
1423,2.0,-255.0,30.0,0
1424,4.0,-252.0,29.0,0
1425,2.0,-253.0,29.0,0
1426,-2.0,-253.0,27.0,0
1427,2.0,-251.0,25.0,0
1428,1.0,-251.0,21.0,0
1429,3.0,-253.0,22.0,0
1430,3.0,-252.0,22.0,0
1431,3.0,-255.0,24.0,0
1432,1.0,-249.0,19.0,0
1433,2.0,-252.0,21.0,0
1434,2.0,-253.0,19.0,0
1435,0.0,-253.0,22.0,0
1436,2.0,-255.0,19.0,0
1437,2.0,-256.0,19.0,0
1438,3.0,-255.0,20.0,0
1439,1.0,-259.0,20.0,0
1440,4.0,-255.0,19.0,0
1441,2.0,-256.0,19.0,0
1442,1.0,-257.0,19.0,0
1443,3.0,-256.0,21.0,0
1444,1.0,-254.0,19.0,0
1445,0.0,-252.0,18.0,0
1446,1.0,-253.0,22.0,0
1447,3.0,-254.0,16.0,0
1448,4.0,-254.0,18.0,0
1449,5.0,-251.0,16.0,0
1450,2.0,-249.0,16.0,0
1451,2.0,-253.0,18.0,0
1452,4.0,-252.0,20.0,0
1453,4.0,-256.0,19.0,0
1454,6.0,-256.0,18.0,0
1455,6.0,-256.0,19.0,0
1456,6.0,-255.0,17.0,0
1457,4.0,-256.0,17.0,0
1458,6.0,-257.0,15.0,0
1459,5.0,-254.0,12.0,0
1460,5.0,-259.0,13.0,0
1461,5.0,-256.0,12.0,0
1462,2.0,-255.0,14.0,0
1463,5.0,-257.0,12.0,0
1464,4.0,-255.0,11.0,0
1465,1.0,-254.0,10.0,0
1466,5.0,-255.0,10.0,0
1467,3.0,-258.0,13.0,0
1468,1.0,-255.0,10.0,0
1469,0.0,-256.0,10.0,0
1470,2.0,-256.0,10.0,0
1471,3.0,-258.0,10.0,0
1472,4.0,-259.0,14.0,0
1473,2.0,-261.0,13.0,0
1474,2.0,-258.0,17.0,0
1475,1.0,-259.0,13.0,0
1476,2.0,-258.0,16.0,0
1477,0.0,-258.0,15.0,0
1478,4.0,-258.0,17.0,0
1479,2.0,-256.0,12.0,0
1480,4.0,-258.0,17.0,0
1481,5.0,-253.0,18.0,0
1482,5.0,-254.0,15.0,0
1483,3.0,-251.0,15.0,0
1484,4.0,-254.0,18.0,0
1485,3.0,-250.0,15.0,0
1486,3.0,-251.0,15.0,0
1487,9.0,-254.0,16.0,0
1488,3.0,-252.0,15.0,0
1489,3.0,-252.0,17.0,0
1490,5.0,-255.0,12.0,0
1491,5.0,-257.0,16.0,0
1492,3.0,-257.0,17.0,0
1493,2.0,-258.0,16.0,0
1494,5.0,-257.0,17.0,0
1495,1.0,-258.0,12.0,0
1496,2.0,-257.0,20.0,0
1497,4.0,-254.0,20.0,0
1498,5.0,-253.0,21.0,0
1499,5.0,-253.0,15.0,0
1500,6.0,-252.0,19.0,0
1501,5.0,-254.0,21.0,0
1502,4.0,-248.0,18.0,0
1503,3.0,-254.0,21.0,0
1504,5.0,-254.0,16.0,0
1505,5.0,-252.0,22.0,0
1506,8.0,-250.0,22.0,0
1507,9.0,-253.0,22.0,0
1508,6.0,-251.0,22.0,0
1509,8.0,-251.0,23.0,0
1510,6.0,-250.0,23.0,0
1511,7.0,-253.0,17.0,0
1512,6.0,-252.0,23.0,0
1513,8.0,-256.0,20.0,0
1514,6.0,-254.0,18.0,0
1515,8.0,-253.0,22.0,0
1516,3.0,-252.0,19.0,0
1517,5.0,-251.0,23.0,0
1518,2.0,-250.0,19.0,0
1519,7.0,-252.0,25.0,0
1520,3.0,-250.0,22.0,0
1521,7.0,-247.0,17.0,0
1522,4.0,-249.0,24.0,0
1523,5.0,-250.0,24.0,0
1524,7.0,-251.0,25.0,0
1525,5.0,-249.0,24.0,0
1526,6.0,-249.0,20.0,0
1527,5.0,-251.0,24.0,0
1528,6.0,-250.0,23.0,0
1529,5.0,-253.0,18.0,0
1530,4.0,-253.0,23.0,0
1531,3.0,-253.0,23.0,0
1532,2.0,-255.0,20.0,0
1533,5.0,-255.0,21.0,0
1534,3.0,-253.0,19.0,0
1535,2.0,-255.0,21.0,0
1536,3.0,-253.0,22.0,0
1537,2.0,-253.0,22.0,0
1538,3.0,-252.0,16.0,0
1539,2.0,-251.0,21.0,0
1540,2.0,-252.0,20.0,0
1541,6.0,-254.0,21.0,0
1542,2.0,-251.0,26.0,0
1543,4.0,-254.0,28.0,0
1544,7.0,-255.0,22.0,0
1545,5.0,-252.0,24.0,0
1546,6.0,-255.0,25.0,0
1547,5.0,-251.0,23.0,0
1548,5.0,-253.0,24.0,0
1549,7.0,-255.0,24.0,0
1550,7.0,-254.0,23.0,0
1551,8.0,-254.0,21.0,0
1552,7.0,-255.0,21.0,0
1553,8.0,-251.0,20.0,0
1554,8.0,-249.0,23.0,0
1555,8.0,-250.0,24.0,0
1556,9.0,-253.0,23.0,0
1557,5.0,-250.0,22.0,0
1558,6.0,-251.0,23.0,0
1559,3.0,-248.0,24.0,0
1560,4.0,-250.0,23.0,0
1561,5.0,-252.0,23.0,0
1562,4.0,-251.0,25.0,0
1563,4.0,-251.0,24.0,0
1564,4.0,-254.0,25.0,0
1565,4.0,-253.0,25.0,0
1566,3.0,-252.0,20.0,0
1567,8.0,-254.0,27.0,0
1568,4.0,-251.0,24.0,0
1569,4.0,-254.0,25.0,0
1570,0.0,-251.0,24.0,0
1571,5.0,-253.0,24.0,0
1572,3.0,-249.0,25.0,0
1573,3.0,-249.0,22.0,0
1574,3.0,-252.0,26.0,0
1575,3.0,-250.0,25.0,0
1576,2.0,-253.0,22.0,0
1577,3.0,-253.0,25.0,0
1578,3.0,-252.0,24.0,0
1579,3.0,-254.0,24.0,0
1580,5.0,-253.0,22.0,0
1581,2.0,-252.0,26.0,0
1582,4.0,-256.0,25.0,0
1583,2.0,-252.0,20.0,0
1584,4.0,-255.0,21.0,0
1585,3.0,-254.0,22.0,0
1586,5.0,-253.0,24.0,0
1587,5.0,-254.0,26.0,0
1588,0.0,-253.0,21.0,0
1589,5.0,-255.0,23.0,0
1590,5.0,-251.0,21.0,0
1591,4.0,-250.0,22.0,0
1592,5.0,-256.0,21.0,0
1593,5.0,-251.0,25.0,0
1594,6.0,-252.0,19.0,0
1595,4.0,-251.0,22.0,0
1596,6.0,-253.0,26.0,0
1597,6.0,-254.0,23.0,0
1598,5.0,-253.0,20.0,0
1599,6.0,-252.0,23.0,0
1600,8.0,-252.0,21.0,0
1601,7.0,-253.0,20.0,0
1602,5.0,-254.0,26.0,0
1603,6.0,-251.0,20.0,0
1604,5.0,-249.0,25.0,0
1605,6.0,-249.0,23.0,0
1606,6.0,-250.0,25.0,0
1607,5.0,-251.0,25.0,0
1608,8.0,-250.0,21.0,0
1609,8.0,-250.0,28.0,0
1610,7.0,-251.0,25.0,0
1611,8.0,-250.0,25.0,0
1612,8.0,-252.0,25.0,0
1613,7.0,-252.0,27.0,0
1614,6.0,-252.0,24.0,0
1615,7.0,-253.0,25.0,0
1616,6.0,-253.0,22.0,0
1617,8.0,-254.0,26.0,0
1618,6.0,-252.0,24.0,0
1619,4.0,-253.0,27.0,0
1620,4.0,-253.0,24.0,0
1621,5.0,-253.0,25.0,0
1622,4.0,-250.0,26.0,0
1623,4.0,-252.0,26.0,0
1624,8.0,-255.0,25.0,0
1625,6.0,-254.0,23.0,0
1626,6.0,-251.0,24.0,0
1627,6.0,-253.0,26.0,0
1628,6.0,-252.0,24.0,0
1629,5.0,-249.0,26.0,0
1630,8.0,-249.0,22.0,0
1631,4.0,-251.0,21.0,0
1632,4.0,-253.0,25.0,0
1633,5.0,-253.0,23.0,0
1634,6.0,-255.0,23.0,0
1635,4.0,-253.0,22.0,0
1636,3.0,-255.0,20.0,0
1637,5.0,-253.0,26.0,0
1638,3.0,-254.0,18.0,0
1639,6.0,-255.0,21.0,0
1640,5.0,-255.0,25.0,0
1641,4.0,-254.0,20.0,0
1642,2.0,-251.0,22.0,0
1643,6.0,-255.0,28.0,0
1644,3.0,-250.0,23.0,0
1645,2.0,-250.0,24.0,0
1646,5.0,-249.0,21.0,0
1647,3.0,-251.0,22.0,0
1648,2.0,-250.0,23.0,0
1649,3.0,-252.0,22.0,0
1650,1.0,-254.0,23.0,0
1651,2.0,-256.0,20.0,0
1652,3.0,-258.0,22.0,0
1653,3.0,-258.0,19.0,0
1654,1.0,-257.0,21.0,0
1655,5.0,-259.0,25.0,0
1656,5.0,-257.0,23.0,0
1657,3.0,-255.0,21.0,0
1658,2.0,-256.0,24.0,0
1659,3.0,-256.0,23.0,0
1660,3.0,-254.0,23.0,0
1661,6.0,-253.0,27.0,0
1662,6.0,-251.0,21.0,0
1663,6.0,-251.0,25.0,0
1664,11.0,-251.0,25.0,0
1665,6.0,-251.0,27.0,0
1666,5.0,-248.0,29.0,0
1667,8.0,-248.0,22.0,0
1668,5.0,-247.0,28.0,0
1669,9.0,-249.0,26.0,0
1670,10.0,-248.0,31.0,0
1671,8.0,-249.0,30.0,0
1672,11.0,-249.0,27.0,0
1673,7.0,-247.0,28.0,0
1674,9.0,-252.0,27.0,0
1675,11.0,-253.0,32.0,0
1676,10.0,-251.0,30.0,0
1677,9.0,-253.0,29.0,0
1678,7.0,-254.0,33.0,0
1679,9.0,-255.0,29.0,0
1680,6.0,-254.0,31.0,0
1681,7.0,-255.0,30.0,0
1682,7.0,-253.0,28.0,0
1683,9.0,-254.0,29.0,0
1684,6.0,-250.0,32.0,0
1685,5.0,-250.0,26.0,0
1686,8.0,-250.0,25.0,0
1687,7.0,-250.0,29.0,0
1688,8.0,-247.0,34.0,0
1689,6.0,-248.0,27.0,0
1690,9.0,-249.0,31.0,0
1691,5.0,-250.0,30.0,0
1692,6.0,-251.0,24.0,0
1693,8.0,-252.0,28.0,0
1694,5.0,-250.0,30.0,0
1695,1.0,-251.0,29.0,0
1696,1.0,-253.0,23.0,0
1697,3.0,-252.0,26.0,0
1698,2.0,-250.0,24.0,0
1699,1.0,-251.0,28.0,0
1700,2.0,-252.0,26.0,0
1701,-1.0,-253.0,31.0,0
1702,15.0,-252.0,37.0,0
1703,-2.0,-249.0,24.0,0
1704,7.0,-236.0,32.0,0
1705,4.0,-244.0,28.0,0
1706,-3.0,-248.0,31.0,0
1707,3.0,-248.0,27.0,0
1708,0.0,-251.0,31.0,0
1709,-2.0,-250.0,27.0,0
1710,-2.0,-250.0,31.0,0
1711,-1.0,-252.0,27.0,0
1712,0.0,-252.0,27.0,0
1713,-1.0,-254.0,28.0,0
1714,-1.0,-255.0,26.0,0
1715,-2.0,-252.0,26.0,0
1716,0.0,-253.0,26.0,0
1717,2.0,-254.0,26.0,0
1718,0.0,-254.0,29.0,0
1719,0.0,-251.0,28.0,0
1720,0.0,-253.0,29.0,0
1721,5.0,-251.0,25.0,0
1722,1.0,-248.0,32.0,0
1723,4.0,-253.0,30.0,0
1724,4.0,-252.0,27.0,0
1725,4.0,-251.0,26.0,0
1726,6.0,-249.0,27.0,0
1727,3.0,-253.0,27.0,0
1728,4.0,-252.0,30.0,0
1729,6.0,-254.0,26.0,0
1730,5.0,-251.0,27.0,0
1731,6.0,-252.0,29.0,0
1732,8.0,-253.0,22.0,0
1733,5.0,-252.0,25.0,0
1734,9.0,-255.0,26.0,0
1735,8.0,-255.0,26.0,0
1736,9.0,-252.0,28.0,0
1737,7.0,-251.0,25.0,0
1738,8.0,-249.0,27.0,0
1739,10.0,-248.0,28.0,0
1740,10.0,-251.0,28.0,0
1741,8.0,-247.0,24.0,0
1742,6.0,-248.0,28.0,0
1743,11.0,-250.0,28.0,0
1744,9.0,-252.0,27.0,0
1745,10.0,-247.0,29.0,0
1746,7.0,-252.0,30.0,0
1747,9.0,-251.0,29.0,0
1748,9.0,-251.0,29.0,0
1749,8.0,-254.0,31.0,0
1750,7.0,-252.0,31.0,0
1751,5.0,-253.0,30.0,0
1752,8.0,-250.0,28.0,0
1753,9.0,-255.0,30.0,0
1754,7.0,-249.0,31.0,0
1755,5.0,-251.0,31.0,0
1756,7.0,-251.0,27.0,0
1757,9.0,-251.0,27.0,0
1758,6.0,-250.0,25.0,0
1759,6.0,-253.0,27.0,0
1760,6.0,-250.0,24.0,0
1761,7.0,-253.0,31.0,0
1762,8.0,-249.0,27.0,0
1763,5.0,-251.0,30.0,0
1764,4.0,-254.0,28.0,0
1765,6.0,-253.0,27.0,0
1766,4.0,-254.0,31.0,0
1767,6.0,-254.0,26.0,0
1768,5.0,-251.0,24.0,0
1769,4.0,-251.0,26.0,0
1770,6.0,-252.0,25.0,0
1771,3.0,-250.0,25.0,0
1772,9.0,-251.0,31.0,0
1773,7.0,-249.0,29.0,0
1774,5.0,-246.0,29.0,0
1775,8.0,-248.0,28.0,0
1776,5.0,-248.0,32.0,0
1777,6.0,-247.0,30.0,0
1778,5.0,-249.0,27.0,0
1779,6.0,-247.0,29.0,0
1780,7.0,-249.0,32.0,0
1781,7.0,-251.0,31.0,0
1782,7.0,-254.0,35.0,0
1783,5.0,-251.0,29.0,0
1784,7.0,-251.0,30.0,0
1785,7.0,-254.0,25.0,0
1786,9.0,-253.0,31.0,0
1787,7.0,-252.0,26.0,0
1788,5.0,-251.0,30.0,0
1789,10.0,-253.0,29.0,0
1790,8.0,-251.0,34.0,0
1791,10.0,-252.0,30.0,0
1792,7.0,-251.0,29.0,0
1793,6.0,-250.0,30.0,0
1794,11.0,-253.0,28.0,0
1795,9.0,-250.0,26.0,0
1796,8.0,-254.0,22.0,0
1797,7.0,-251.0,26.0,0
1798,8.0,-252.0,32.0,0
1799,6.0,-252.0,28.0,0
1800,7.0,-252.0,28.0,0
1801,4.0,-252.0,26.0,0
1802,8.0,-252.0,27.0,0
1803,9.0,-254.0,27.0,0
1804,8.0,-252.0,26.0,0
1805,7.0,-251.0,23.0,0
1806,9.0,-255.0,24.0,0
1807,9.0,-255.0,23.0,0
1808,6.0,-256.0,21.0,0
1809,6.0,-255.0,21.0,0
1810,5.0,-253.0,26.0,0
1811,3.0,-255.0,21.0,0
1812,3.0,-254.0,21.0,0
1813,6.0,-254.0,22.0,0
1814,5.0,-252.0,24.0,0
1815,5.0,-253.0,25.0,0
1816,4.0,-252.0,25.0,0
1817,4.0,-251.0,27.0,0
1818,2.0,-252.0,28.0,0
1819,5.0,-250.0,26.0,0
1820,4.0,-253.0,23.0,0
1821,5.0,-254.0,26.0,0
1822,4.0,-253.0,25.0,0
1823,6.0,-257.0,25.0,0
1824,3.0,-255.0,26.0,0
1825,7.0,-255.0,27.0,0
1826,3.0,-257.0,24.0,0
1827,3.0,-256.0,24.0,0
1828,7.0,-256.0,28.0,0
1829,2.0,-255.0,24.0,0
1830,4.0,-255.0,22.0,0
1831,3.0,-254.0,25.0,0
1832,6.0,-252.0,25.0,0
1833,6.0,-252.0,27.0,0
1834,5.0,-250.0,24.0,0
1835,4.0,-250.0,27.0,0
1836,4.0,-250.0,31.0,0
1837,6.0,-250.0,28.0,0
1838,6.0,-250.0,30.0,0
1839,6.0,-248.0,28.0,0
1840,8.0,-250.0,28.0,0
1841,6.0,-250.0,31.0,0
1842,7.0,-249.0,30.0,0
1843,8.0,-248.0,31.0,0
1844,6.0,-250.0,31.0,0
1845,11.0,-251.0,34.0,0
1846,7.0,-247.0,33.0,0
1847,8.0,-249.0,34.0,0
1848,7.0,-248.0,34.0,0
1849,11.0,-251.0,35.0,0
1850,6.0,-251.0,33.0,0
1851,7.0,-250.0,31.0,0
1852,10.0,-255.0,33.0,0
1853,8.0,-252.0,35.0,0
1854,9.0,-251.0,34.0,0
1855,7.0,-250.0,31.0,0
1856,6.0,-249.0,29.0,0
1857,9.0,-249.0,35.0,0
1858,6.0,-250.0,35.0,0
1859,3.0,-247.0,34.0,0
1860,3.0,-246.0,32.0,0
1861,4.0,-245.0,35.0,0
1862,5.0,-247.0,33.0,0
1863,6.0,-249.0,35.0,0
1864,3.0,-242.0,27.0,0
1865,2.0,-251.0,32.0,0
1866,4.0,-250.0,29.0,0
1867,3.0,-251.0,32.0,0
1868,6.0,-253.0,30.0,0
1869,2.0,-250.0,32.0,0
1870,5.0,-251.0,28.0,0
1871,0.0,-252.0,30.0,0
1872,1.0,-251.0,33.0,0
1873,1.0,-253.0,32.0,0
1874,-3.0,-250.0,29.0,0
1875,2.0,-250.0,30.0,0
1876,0.0,-252.0,30.0,0
1877,-1.0,-251.0,29.0,0
1878,1.0,-252.0,28.0,0
1879,2.0,-250.0,30.0,0
1880,3.0,-252.0,26.0,0
1881,2.0,-252.0,29.0,0
1882,1.0,-252.0,24.0,0
1883,0.0,-252.0,29.0,0
1884,4.0,-251.0,25.0,0
1885,3.0,-252.0,33.0,0
1886,1.0,-254.0,27.0,0
1887,0.0,-251.0,30.0,0
1888,3.0,-252.0,25.0,0
1889,1.0,-249.0,29.0,0
1890,2.0,-252.0,29.0,0
1891,6.0,-251.0,29.0,0
1892,3.0,-254.0,32.0,0
1893,5.0,-250.0,27.0,0
1894,1.0,-253.0,29.0,0
1895,5.0,-250.0,27.0,0
1896,4.0,-253.0,29.0,0
1897,7.0,-253.0,24.0,0
1898,5.0,-253.0,30.0,0
1899,6.0,-255.0,28.0,0
1900,7.0,-254.0,26.0,0
1901,5.0,-255.0,27.0,0
1902,5.0,-255.0,27.0,0
1903,6.0,-258.0,24.0,0
1904,7.0,-252.0,23.0,0
1905,7.0,-252.0,23.0,0
1906,5.0,-249.0,24.0,0
1907,5.0,-247.0,23.0,0
1908,8.0,-252.0,24.0,0
1909,7.0,-251.0,27.0,0
1910,5.0,-248.0,24.0,0
1911,7.0,-250.0,27.0,0
1912,5.0,-253.0,27.0,0
1913,7.0,-252.0,28.0,0
1914,6.0,-250.0,29.0,0
1915,7.0,-252.0,27.0,0
1916,6.0,-252.0,29.0,0
1917,8.0,-255.0,28.0,0
1918,9.0,-254.0,24.0,0
1919,8.0,-253.0,26.0,0
1920,7.0,-253.0,27.0,0
1921,6.0,-256.0,28.0,0
1922,9.0,-257.0,24.0,0
1923,10.0,-255.0,26.0,0
1924,8.0,-253.0,24.0,0
1925,6.0,-251.0,24.0,0
1926,8.0,-254.0,22.0,0
1927,8.0,-249.0,24.0,0
1928,7.0,-253.0,25.0,0
1929,5.0,-250.0,22.0,0
1930,5.0,-249.0,25.0,0
1931,9.0,-251.0,22.0,0
1932,8.0,-251.0,24.0,0
1933,7.0,-247.0,23.0,0
1934,10.0,-253.0,24.0,0
1935,7.0,-249.0,27.0,0
1936,9.0,-252.0,25.0,0
1937,10.0,-252.0,25.0,0
1938,8.0,-249.0,22.0,0
1939,9.0,-253.0,26.0,0
1940,9.0,-252.0,25.0,0
1941,10.0,-249.0,25.0,0
1942,10.0,-252.0,26.0,0
1943,7.0,-252.0,25.0,0
1944,10.0,-252.0,26.0,0
1945,7.0,-250.0,21.0,0
1946,10.0,-253.0,23.0,0
1947,9.0,-253.0,23.0,0
1948,8.0,-253.0,25.0,0
1949,11.0,-254.0,26.0,0
1950,8.0,-250.0,23.0,0
1951,6.0,-251.0,27.0,0
1952,7.0,-253.0,26.0,0
1953,7.0,-250.0,27.0,0
1954,8.0,-254.0,26.0,0
1955,9.0,-251.0,27.0,0
1956,7.0,-253.0,23.0,0
1957,9.0,-251.0,26.0,0
1958,9.0,-253.0,21.0,0
1959,7.0,-252.0,22.0,0
1960,6.0,-248.0,26.0,0
1961,7.0,-248.0,21.0,0
1962,7.0,-251.0,26.0,0
1963,6.0,-253.0,23.0,0
1964,7.0,-255.0,21.0,0
1965,7.0,-254.0,19.0,0
1966,7.0,-254.0,22.0,0
1967,6.0,-251.0,21.0,0
1968,9.0,-255.0,21.0,0
1969,5.0,-254.0,20.0,0
1970,9.0,-254.0,24.0,0
1971,7.0,-253.0,18.0,0
1972,5.0,-253.0,22.0,0
1973,4.0,-255.0,23.0,0
1974,7.0,-254.0,22.0,0
1975,7.0,-255.0,23.0,0
1976,7.0,-254.0,21.0,0
1977,6.0,-250.0,21.0,0
1978,7.0,-253.0,21.0,0
1979,6.0,-253.0,22.0,0
1980,6.0,-251.0,26.0,0
1981,8.0,-254.0,20.0,0
1982,9.0,-252.0,24.0,0
1983,9.0,-252.0,20.0,0
1984,7.0,-253.0,21.0,0
1985,10.0,-256.0,18.0,0
1986,7.0,-254.0,25.0,0
1987,8.0,-254.0,22.0,0
1988,7.0,-251.0,20.0,0
1989,9.0,-252.0,20.0,0
1990,11.0,-257.0,21.0,0
1991,5.0,-252.0,24.0,0
1992,5.0,-254.0,22.0,0
1993,8.0,-252.0,23.0,0
1994,6.0,-253.0,23.0,0
1995,3.0,-250.0,24.0,0
1996,6.0,-253.0,17.0,0
1997,4.0,-251.0,28.0,0
1998,6.0,-254.0,19.0,0
1999,5.0,-254.0,18.0,0
2000,5.0,-251.0,18.0,0
2001,5.0,-251.0,22.0,0
2002,7.0,-253.0,23.0,0
2003,8.0,-254.0,22.0,0
2004,4.0,-252.0,20.0,0
2005,6.0,-252.0,24.0,0
2006,6.0,-254.0,23.0,0
2007,8.0,-255.0,23.0,0
2008,6.0,-255.0,22.0,0
2009,8.0,-254.0,21.0,0
2010,6.0,-255.0,22.0,0
2011,6.0,-256.0,25.0,0
2012,7.0,-255.0,18.0,0
2013,5.0,-256.0,20.0,0
2014,4.0,-254.0,20.0,0
2015,4.0,-255.0,23.0,0
2016,4.0,-257.0,18.0,0
2017,2.0,-255.0,18.0,0
2018,6.0,-257.0,18.0,0
2019,6.0,-255.0,19.0,0
2020,4.0,-252.0,16.0,0
2021,5.0,-254.0,19.0,0
2022,5.0,-255.0,16.0,0
2023,6.0,-256.0,20.0,0
2024,5.0,-253.0,21.0,0
2025,4.0,-257.0,17.0,0
2026,3.0,-258.0,17.0,0
2027,3.0,-256.0,20.0,0
2028,3.0,-256.0,22.0,0
2029,4.0,-257.0,22.0,0
2030,9.0,-255.0,22.0,0
2031,8.0,-253.0,23.0,0
2032,6.0,-252.0,17.0,0
2033,7.0,-254.0,21.0,0
2034,7.0,-250.0,22.0,0
2035,8.0,-251.0,26.0,0
2036,10.0,-249.0,26.0,0
2037,8.0,-250.0,23.0,0
2038,10.0,-250.0,26.0,0
2039,10.0,-251.0,26.0,0
2040,9.0,-250.0,26.0,0
2041,10.0,-250.0,24.0,0
2042,10.0,-251.0,24.0,0
2043,13.0,-250.0,28.0,0
2044,10.0,-251.0,30.0,0
2045,11.0,-253.0,31.0,0
2046,9.0,-250.0,29.0,0
2047,11.0,-252.0,31.0,0
2048,8.0,-253.0,27.0,0
2049,9.0,-250.0,30.0,0
2050,10.0,-254.0,30.0,0
2051,11.0,-252.0,31.0,0
2052,6.0,-252.0,29.0,0
2053,6.0,-250.0,29.0,0
2054,10.0,-249.0,32.0,0
2055,10.0,-250.0,29.0,0
2056,9.0,-247.0,29.0,0
2057,8.0,-249.0,28.0,0
2058,7.0,-246.0,30.0,0
2059,8.0,-248.0,31.0,0
2060,7.0,-246.0,33.0,0
2061,8.0,-247.0,27.0,0
2062,8.0,-248.0,28.0,0
2063,10.0,-248.0,33.0,0
2064,8.0,-250.0,30.0,0
2065,6.0,-251.0,31.0,0
2066,8.0,-249.0,30.0,0
2067,5.0,-250.0,28.0,0
2068,7.0,-253.0,31.0,0
2069,7.0,-250.0,29.0,0
2070,6.0,-251.0,26.0,0
2071,5.0,-251.0,27.0,0
2072,6.0,-254.0,25.0,0
2073,5.0,-254.0,25.0,0
2074,3.0,-251.0,31.0,0
2075,2.0,-252.0,25.0,0
2076,5.0,-252.0,30.0,0
2077,4.0,-251.0,28.0,0
2078,3.0,-251.0,29.0,0
2079,6.0,-253.0,26.0,0
2080,5.0,-254.0,25.0,0
2081,4.0,-255.0,24.0,0
2082,4.0,-254.0,24.0,0
2083,3.0,-253.0,21.0,0
2084,2.0,-255.0,24.0,0
2085,3.0,-254.0,24.0,0
2086,4.0,-252.0,22.0,0
2087,4.0,-253.0,25.0,0
2088,6.0,-252.0,22.0,0
2089,5.0,-250.0,25.0,0
2090,4.0,-249.0,26.0,0
2091,4.0,-249.0,24.0,0
2092,7.0,-250.0,26.0,0
2093,6.0,-253.0,24.0,0
2094,5.0,-251.0,23.0,0
2095,7.0,-254.0,20.0,0
2096,6.0,-253.0,24.0,0
2097,7.0,-254.0,20.0,0
2098,6.0,-254.0,26.0,0
2099,5.0,-252.0,20.0,0
2100,10.0,-255.0,26.0,0
2101,8.0,-256.0,26.0,0
2102,4.0,-251.0,27.0,0
2103,4.0,-252.0,26.0,0
2104,4.0,-253.0,23.0,0
2105,6.0,-250.0,31.0,0
2106,6.0,-250.0,26.0,0
2107,5.0,-250.0,26.0,0
2108,4.0,-252.0,27.0,0
2109,5.0,-253.0,26.0,0
2110,6.0,-253.0,28.0,0
2111,5.0,-251.0,29.0,0
2112,6.0,-253.0,28.0,0
2113,6.0,-252.0,30.0,0
2114,5.0,-252.0,29.0,0
2115,6.0,-255.0,31.0,0
2116,7.0,-251.0,28.0,0
2117,6.0,-253.0,30.0,0
2118,7.0,-254.0,28.0,0
2119,4.0,-252.0,29.0,0
2120,8.0,-251.0,30.0,0
2121,5.0,-250.0,28.0,0
2122,8.0,-249.0,30.0,0
2123,5.0,-251.0,25.0,0
2124,6.0,-252.0,23.0,0
2125,5.0,-252.0,24.0,0
2126,3.0,-249.0,25.0,0
2127,9.0,-254.0,29.0,0
2128,4.0,-254.0,29.0,0
2129,4.0,-252.0,29.0,0
2130,5.0,-252.0,27.0,0
2131,6.0,-252.0,31.0,0
2132,8.0,-251.0,29.0,0
2133,6.0,-250.0,30.0,0
2134,7.0,-252.0,27.0,0
2135,7.0,-252.0,28.0,0
2136,7.0,-252.0,27.0,0
2137,7.0,-252.0,27.0,0
2138,5.0,-253.0,28.0,0
2139,6.0,-250.0,26.0,0
2140,9.0,-254.0,24.0,0
2141,10.0,-255.0,23.0,0
2142,6.0,-252.0,30.0,0
2143,5.0,-252.0,26.0,0
2144,6.0,-252.0,29.0,0
2145,6.0,-250.0,26.0,0
2146,6.0,-251.0,27.0,0
2147,5.0,-249.0,31.0,0
2148,4.0,-247.0,29.0,0
2149,3.0,-246.0,27.0,0
2150,3.0,-250.0,32.0,0
2151,4.0,-249.0,25.0,0
2152,4.0,-252.0,26.0,0
2153,4.0,-253.0,31.0,0
2154,4.0,-255.0,31.0,0
2155,4.0,-254.0,24.0,0
2156,4.0,-253.0,27.0,0
2157,5.0,-254.0,30.0,0
2158,2.0,-253.0,27.0,0
2159,4.0,-253.0,32.0,0
2160,3.0,-249.0,30.0,0
2161,2.0,-248.0,34.0,0
2162,3.0,-246.0,29.0,0
2163,3.0,-244.0,28.0,0
2164,1.0,-245.0,25.0,0
2165,3.0,-248.0,29.0,0
2166,4.0,-249.0,29.0,0
2167,4.0,-249.0,33.0,0
2168,4.0,-250.0,27.0,0
2169,4.0,-253.0,32.0,0
2170,2.0,-249.0,31.0,0
2171,4.0,-252.0,28.0,0
2172,3.0,-251.0,32.0,0
2173,5.0,-255.0,29.0,0
2174,4.0,-253.0,32.0,0
2175,5.0,-250.0,29.0,0
2176,6.0,-254.0,29.0,0
2177,6.0,-256.0,29.0,0
2178,4.0,-254.0,32.0,0
2179,6.0,-251.0,30.0,0
2180,5.0,-253.0,29.0,0
2181,6.0,-251.0,29.0,0
2182,5.0,-250.0,25.0,0
2183,6.0,-248.0,26.0,0
2184,4.0,-250.0,28.0,0
2185,7.0,-251.0,27.0,0
2186,5.0,-249.0,27.0,0
2187,4.0,-252.0,26.0,0
2188,3.0,-249.0,23.0,0
2189,6.0,-251.0,25.0,0
2190,4.0,-254.0,27.0,0
2191,4.0,-250.0,28.0,0
2192,5.0,-253.0,27.0,0
2193,3.0,-251.0,25.0,0
2194,4.0,-253.0,26.0,0
2195,3.0,-252.0,28.0,0
2196,3.0,-253.0,26.0,0
2197,4.0,-254.0,25.0,0
2198,7.0,-254.0,29.0,0
2199,2.0,-251.0,29.0,0
2200,3.0,-252.0,24.0,0
2201,6.0,-253.0,26.0,0
2202,2.0,-250.0,28.0,0
2203,1.0,-252.0,24.0,0
2204,2.0,-253.0,29.0,0
2205,0.0,-253.0,25.0,0
2206,4.0,-257.0,28.0,0
2207,1.0,-250.0,29.0,0
2208,2.0,-252.0,25.0,0
2209,2.0,-255.0,29.0,0
2210,2.0,-255.0,28.0,0
2211,1.0,-251.0,29.0,0
2212,0.0,-252.0,28.0,0
2213,2.0,-252.0,31.0,0
2214,5.0,-256.0,31.0,0
2215,2.0,-255.0,23.0,0
2216,5.0,-254.0,26.0,0
2217,2.0,-249.0,24.0,0
2218,4.0,-254.0,26.0,0
2219,5.0,-254.0,27.0,0
2220,4.0,-248.0,27.0,0
2221,2.0,-251.0,31.0,0
2222,2.0,-250.0,30.0,0
2223,5.0,-251.0,32.0,0
2224,2.0,-250.0,34.0,0
2225,3.0,-248.0,36.0,0
2226,4.0,-248.0,29.0,0
2227,4.0,-254.0,31.0,0
2228,5.0,-250.0,29.0,0
2229,2.0,-252.0,34.0,0
2230,4.0,-251.0,29.0,0
2231,6.0,-249.0,29.0,0
2232,2.0,-248.0,34.0,0
2233,4.0,-253.0,35.0,0
2234,6.0,-248.0,30.0,0
2235,8.0,-251.0,32.0,0
2236,5.0,-251.0,34.0,0
2237,5.0,-249.0,36.0,0
2238,4.0,-248.0,34.0,0
2239,6.0,-251.0,35.0,0
2240,6.0,-249.0,34.0,0
2241,9.0,-252.0,34.0,0
2242,4.0,-249.0,38.0,0
2243,5.0,-251.0,38.0,0
2244,4.0,-250.0,36.0,0
2245,4.0,-250.0,37.0,0
2246,6.0,-249.0,33.0,0
2247,9.0,-253.0,38.0,0
2248,8.0,-253.0,36.0,0
2249,8.0,-252.0,37.0,0
2250,9.0,-249.0,37.0,0
2251,6.0,-250.0,36.0,0
2252,6.0,-249.0,37.0,0
2253,6.0,-248.0,37.0,0
2254,7.0,-246.0,41.0,0
2255,5.0,-249.0,37.0,0
2256,6.0,-248.0,37.0,0
2257,7.0,-247.0,36.0,0
2258,8.0,-247.0,41.0,0
2259,7.0,-244.0,35.0,0
2260,5.0,-245.0,40.0,0
2261,10.0,-247.0,38.0,0
2262,5.0,-246.0,38.0,0
2263,5.0,-246.0,43.0,0
2264,4.0,-247.0,44.0,0
2265,5.0,-248.0,40.0,0
2266,4.0,-248.0,40.0,0
2267,5.0,-251.0,41.0,0
2268,4.0,-249.0,41.0,0
2269,8.0,-253.0,41.0,0
2270,4.0,-249.0,43.0,0
2271,2.0,-247.0,40.0,0
2272,5.0,-247.0,40.0,0
2273,3.0,-246.0,39.0,0
2274,5.0,-246.0,41.0,0
2275,3.0,-245.0,41.0,0
2276,1.0,-244.0,43.0,0
2277,2.0,-244.0,46.0,0
2278,0.0,-243.0,39.0,0
2279,3.0,-247.0,43.0,0
2280,4.0,-247.0,42.0,0
2281,1.0,-251.0,38.0,0
2282,3.0,-253.0,39.0,0
2283,1.0,-253.0,41.0,0
2284,3.0,-253.0,39.0,0
2285,3.0,-253.0,40.0,0
2286,3.0,-253.0,39.0,0
2287,1.0,-253.0,40.0,0
2288,3.0,-249.0,31.0,0
2289,9.0,-250.0,56.0,0
2290,-2.0,-250.0,27.0,0
2291,14.0,-247.0,45.0,0
2292,7.0,-245.0,24.0,0
2293,2.0,-244.0,53.0,0
2294,-6.0,-244.0,33.0,0
2295,16.0,-241.0,38.0,0
2296,2.0,-247.0,37.0,0
2297,1.0,-246.0,38.0,0
2298,3.0,-249.0,36.0,0
2299,6.0,-250.0,35.0,0
2300,3.0,-253.0,37.0,0
2301,1.0,-249.0,35.0,0
2302,4.0,-249.0,36.0,0
2303,3.0,-250.0,40.0,0
2304,3.0,-248.0,39.0,0
2305,5.0,-252.0,38.0,0
2306,3.0,-250.0,38.0,0
2307,3.0,-250.0,39.0,0
2308,3.0,-253.0,36.0,0
2309,2.0,-251.0,36.0,0
2310,4.0,-250.0,34.0,0
2311,1.0,-249.0,40.0,0
2312,2.0,-247.0,40.0,0
2313,3.0,-248.0,41.0,0
2314,2.0,-247.0,42.0,0
2315,3.0,-249.0,33.0,0
2316,0.0,-248.0,41.0,0
2317,0.0,-246.0,38.0,0
2318,0.0,-249.0,39.0,0
2319,1.0,-247.0,34.0,0
2320,2.0,-249.0,31.0,0
2321,0.0,-249.0,37.0,0
2322,2.0,-250.0,35.0,0
2323,2.0,-248.0,35.0,0
2324,0.0,-248.0,35.0,0
2325,1.0,-249.0,38.0,0
2326,0.0,-247.0,40.0,0
2327,1.0,-253.0,34.0,0
2328,1.0,-249.0,33.0,0
2329,-1.0,-248.0,32.0,0
2330,4.0,-249.0,34.0,0
2331,3.0,-250.0,35.0,0
2332,3.0,-250.0,31.0,0
2333,-2.0,-250.0,36.0,0
2334,3.0,-251.0,35.0,0
2335,2.0,-250.0,35.0,0
2336,2.0,-251.0,38.0,0
2337,0.0,-252.0,32.0,0
2338,2.0,-253.0,33.0,0
2339,-1.0,-255.0,36.0,0
2340,0.0,-255.0,35.0,0
2341,0.0,-254.0,34.0,0
2342,-1.0,-252.0,30.0,0
2343,-4.0,-250.0,34.0,0
2344,-2.0,-250.0,33.0,0
2345,1.0,-253.0,34.0,0
2346,-1.0,-251.0,36.0,0
2347,0.0,-249.0,30.0,0
2348,1.0,-251.0,30.0,0
2349,1.0,-250.0,33.0,0
2350,2.0,-248.0,30.0,0
2351,6.0,-253.0,33.0,0
2352,7.0,-247.0,31.0,0
2353,7.0,-250.0,32.0,0
2354,8.0,-248.0,27.0,0
2355,9.0,-250.0,31.0,0
2356,7.0,-248.0,29.0,0
2357,6.0,-251.0,34.0,0
2358,9.0,-250.0,33.0,0
2359,5.0,-250.0,30.0,0
2360,5.0,-251.0,29.0,0
2361,6.0,-252.0,33.0,0
2362,5.0,-253.0,32.0,0
2363,6.0,-252.0,30.0,0
2364,5.0,-254.0,32.0,0
2365,4.0,-254.0,30.0,0
2366,6.0,-253.0,33.0,0
2367,3.0,-252.0,33.0,0
2368,6.0,-253.0,29.0,0
2369,5.0,-253.0,28.0,0
2370,4.0,-252.0,28.0,0
2371,3.0,-252.0,30.0,0
2372,5.0,-252.0,32.0,0
2373,3.0,-253.0,31.0,0
2374,4.0,-251.0,34.0,0
2375,3.0,-248.0,31.0,0
2376,-1.0,-250.0,30.0,0
2377,1.0,-250.0,33.0,0
2378,3.0,-251.0,30.0,0
2379,0.0,-250.0,32.0,0
2380,0.0,-251.0,29.0,0
2381,0.0,-253.0,32.0,0
2382,-1.0,-252.0,33.0,0
2383,1.0,-253.0,29.0,0
2384,0.0,-252.0,29.0,0
2385,-2.0,-251.0,26.0,0
2386,-1.0,-252.0,31.0,0
2387,0.0,-252.0,32.0,0
2388,2.0,-253.0,30.0,0
2389,1.0,-252.0,27.0,0
2390,0.0,-252.0,31.0,0
2391,-1.0,-249.0,29.0,0
2392,-1.0,-252.0,31.0,0
2393,0.0,-251.0,31.0,0
2394,2.0,-250.0,26.0,0
2395,-2.0,-249.0,31.0,0
2396,-4.0,-253.0,30.0,0
2397,0.0,-251.0,28.0,0
2398,2.0,-251.0,27.0,0
2399,0.0,-250.0,26.0,0
