,accelerometer_x,accelerometer_y,accelerometer_z,fall
0,14.0,-258.0,-96.0,0
1,17.0,-254.0,-97.0,0
2,17.0,-258.0,-97.0,0
3,17.0,-255.0,-92.0,0
4,18.0,-255.0,-95.0,0
5,16.0,-260.0,-95.0,0
6,15.0,-258.0,-90.0,0
7,16.0,-256.0,-94.0,0
8,17.0,-258.0,-93.0,0
9,16.0,-256.0,-95.0,0
10,18.0,-256.0,-94.0,0
11,20.0,-256.0,-96.0,0
12,21.0,-254.0,-94.0,0
13,19.0,-255.0,-98.0,0
14,18.0,-256.0,-97.0,0
15,22.0,-249.0,-93.0,0
16,20.0,-253.0,-84.0,0
17,21.0,-255.0,-89.0,0
18,20.0,-249.0,-95.0,0
19,16.0,-251.0,-95.0,0
20,19.0,-253.0,-91.0,0
21,16.0,-255.0,-92.0,0
22,21.0,-255.0,-95.0,0
23,17.0,-252.0,-89.0,0
24,17.0,-257.0,-96.0,0
25,19.0,-261.0,-91.0,0
26,20.0,-257.0,-92.0,0
27,16.0,-256.0,-94.0,0
28,14.0,-258.0,-100.0,0
29,16.0,-259.0,-100.0,0
30,15.0,-261.0,-102.0,0
31,13.0,-257.0,-99.0,0
32,17.0,-262.0,-99.0,0
33,16.0,-257.0,-100.0,0
34,17.0,-259.0,-105.0,0
35,14.0,-256.0,-100.0,0
36,17.0,-257.0,-102.0,0
37,14.0,-263.0,-105.0,0
38,15.0,-257.0,-104.0,0
39,16.0,-256.0,-100.0,0
40,18.0,-258.0,-101.0,0
41,20.0,-256.0,-103.0,0
42,14.0,-255.0,-99.0,0
43,14.0,-256.0,-99.0,0
44,14.0,-259.0,-98.0,0
45,15.0,-259.0,-97.0,0
46,20.0,-259.0,-97.0,0
47,23.0,-258.0,-100.0,0
48,17.0,-255.0,-99.0,0
49,14.0,-259.0,-102.0,0
50,17.0,-257.0,-103.0,0
51,15.0,-259.0,-100.0,0
52,17.0,-257.0,-106.0,0
53,20.0,-257.0,-102.0,0
54,17.0,-255.0,-102.0,0
55,16.0,-257.0,-98.0,0
56,17.0,-253.0,-102.0,0
57,15.0,-252.0,-100.0,0
58,18.0,-253.0,-101.0,0
59,22.0,-256.0,-87.0,0
60,18.0,-255.0,-99.0,0
61,18.0,-255.0,-95.0,0
62,18.0,-255.0,-97.0,0
63,16.0,-255.0,-92.0,0
64,17.0,-256.0,-97.0,0
65,18.0,-257.0,-99.0,0
66,18.0,-257.0,-98.0,0
67,20.0,-255.0,-97.0,0
68,13.0,-254.0,-98.0,0
69,18.0,-256.0,-96.0,0
70,15.0,-253.0,-97.0,0
71,15.0,-254.0,-97.0,0
72,16.0,-254.0,-97.0,0
73,14.0,-253.0,-98.0,0
74,18.0,-255.0,-97.0,0
75,18.0,-256.0,-99.0,0
76,17.0,-255.0,-99.0,0
77,11.0,-255.0,-95.0,0
78,18.0,-256.0,-99.0,0
79,16.0,-257.0,-99.0,0
80,10.0,-259.0,-100.0,0
81,17.0,-257.0,-106.0,0
82,15.0,-256.0,-100.0,0
83,16.0,-258.0,-101.0,0
84,16.0,-257.0,-99.0,0
85,14.0,-258.0,-101.0,0
86,15.0,-256.0,-99.0,0
87,11.0,-255.0,-97.0,0
88,16.0,-256.0,-101.0,0
89,14.0,-254.0,-100.0,0
90,17.0,-257.0,-103.0,0
91,18.0,-254.0,-99.0,0
92,19.0,-254.0,-87.0,0
93,15.0,-255.0,-97.0,0
94,17.0,-256.0,-98.0,0
95,14.0,-253.0,-97.0,0
96,17.0,-255.0,-99.0,0
97,16.0,-258.0,-101.0,0
98,12.0,-255.0,-100.0,0
99,17.0,-257.0,-98.0,0
100,13.0,-256.0,-97.0,0
101,16.0,-255.0,-95.0,0
102,13.0,-254.0,-101.0,0
103,12.0,-258.0,-95.0,0
104,15.0,-256.0,-95.0,0
105,17.0,-256.0,-99.0,0
106,13.0,-256.0,-94.0,0
107,15.0,-255.0,-97.0,0
108,14.0,-257.0,-97.0,0
109,15.0,-256.0,-96.0,0
110,13.0,-256.0,-98.0,0
111,14.0,-255.0,-93.0,0
112,15.0,-256.0,-97.0,0
113,10.0,-256.0,-99.0,0
114,16.0,-260.0,-98.0,0
115,13.0,-256.0,-98.0,0
116,13.0,-256.0,-97.0,0
117,13.0,-256.0,-100.0,0
118,15.0,-259.0,-96.0,0
119,13.0,-256.0,-99.0,0
120,10.0,-257.0,-100.0,0
121,13.0,-256.0,-97.0,0
122,12.0,-256.0,-102.0,0
123,15.0,-257.0,-91.0,0
124,13.0,-257.0,-98.0,0
125,13.0,-256.0,-99.0,0
126,12.0,-255.0,-98.0,0
127,14.0,-257.0,-96.0,0
128,15.0,-256.0,-98.0,0
129,13.0,-256.0,-97.0,0
130,13.0,-255.0,-98.0,0
131,17.0,-255.0,-97.0,0
132,15.0,-254.0,-95.0,0
133,10.0,-254.0,-101.0,0
134,14.0,-254.0,-97.0,0
135,9.0,-253.0,-93.0,0
136,11.0,-254.0,-100.0,0
137,12.0,-254.0,-99.0,0
138,14.0,-257.0,-98.0,0
139,13.0,-256.0,-96.0,0
140,15.0,-258.0,-97.0,0
141,16.0,-256.0,-97.0,0
142,15.0,-255.0,-100.0,0
143,14.0,-255.0,-98.0,0
144,15.0,-258.0,-96.0,0
145,12.0,-256.0,-99.0,0
146,15.0,-256.0,-89.0,0
147,17.0,-255.0,-99.0,0
148,15.0,-258.0,-96.0,0
149,13.0,-257.0,-100.0,0
150,16.0,-256.0,-97.0,0
151,18.0,-256.0,-96.0,0
152,15.0,-256.0,-96.0,0
153,19.0,-256.0,-100.0,0
154,18.0,-256.0,-99.0,0
155,19.0,-255.0,-93.0,0
156,15.0,-256.0,-99.0,0
157,17.0,-256.0,-98.0,0
158,14.0,-256.0,-95.0,0
159,14.0,-256.0,-97.0,0
160,16.0,-256.0,-97.0,0
161,16.0,-256.0,-100.0,0
162,16.0,-255.0,-100.0,0
163,17.0,-256.0,-97.0,0
164,13.0,-254.0,-96.0,0
165,17.0,-255.0,-101.0,0
166,16.0,-258.0,-102.0,0
167,21.0,-258.0,-97.0,0
168,17.0,-256.0,-97.0,0
169,16.0,-254.0,-99.0,0
170,15.0,-256.0,-99.0,0
171,15.0,-257.0,-99.0,0
172,16.0,-256.0,-99.0,0
173,17.0,-256.0,-99.0,0
174,15.0,-256.0,-101.0,0
175,14.0,-254.0,-97.0,0
176,19.0,-257.0,-98.0,0
177,15.0,-258.0,-99.0,0
178,13.0,-256.0,-94.0,0
179,13.0,-254.0,-105.0,0
180,13.0,-256.0,-98.0,0
181,12.0,-256.0,-99.0,0
182,12.0,-256.0,-104.0,0
183,16.0,-256.0,-98.0,0
184,13.0,-254.0,-99.0,0
185,18.0,-257.0,-99.0,0
186,13.0,-255.0,-100.0,0
187,12.0,-254.0,-96.0,0
188,11.0,-255.0,-98.0,0
189,11.0,-253.0,-102.0,0
190,12.0,-253.0,-100.0,0
191,11.0,-258.0,-100.0,0
192,10.0,-255.0,-98.0,0
193,13.0,-256.0,-97.0,0
194,15.0,-258.0,-97.0,0
195,11.0,-254.0,-97.0,0
196,11.0,-258.0,-97.0,0
197,15.0,-254.0,-104.0,0
198,10.0,-257.0,-101.0,0
199,11.0,-255.0,-99.0,0
200,10.0,-258.0,-97.0,0
201,9.0,-256.0,-102.0,0
202,10.0,-256.0,-96.0,0
203,12.0,-255.0,-98.0,0
204,12.0,-255.0,-99.0,0
205,11.0,-256.0,-100.0,0
206,10.0,-257.0,-97.0,0
207,13.0,-256.0,-99.0,0
208,13.0,-253.0,-97.0,0
209,11.0,-256.0,-101.0,0
210,9.0,-253.0,-101.0,0
211,11.0,-263.0,-96.0,0
212,13.0,-256.0,-98.0,0
213,12.0,-255.0,-99.0,0
214,14.0,-257.0,-100.0,0
215,11.0,-256.0,-101.0,0
216,11.0,-255.0,-101.0,0
217,14.0,-257.0,-95.0,0
218,14.0,-255.0,-101.0,0
219,12.0,-254.0,-95.0,0
220,8.0,-254.0,-105.0,0
221,11.0,-255.0,-98.0,0
222,12.0,-260.0,-100.0,0
223,11.0,-257.0,-98.0,0
224,12.0,-255.0,-97.0,0
225,13.0,-255.0,-99.0,0
226,13.0,-255.0,-97.0,0
227,13.0,-256.0,-101.0,0
228,11.0,-256.0,-97.0,0
229,8.0,-255.0,-98.0,0
230,9.0,-255.0,-103.0,0
231,13.0,-256.0,-100.0,0
232,15.0,-257.0,-99.0,0
233,8.0,-254.0,-97.0,0
234,11.0,-256.0,-101.0,0
235,13.0,-258.0,-98.0,0
236,14.0,-258.0,-98.0,0
237,13.0,-258.0,-100.0,0
238,11.0,-257.0,-99.0,0
239,12.0,-256.0,-102.0,0
240,12.0,-257.0,-94.0,0
241,9.0,-256.0,-99.0,0
242,13.0,-256.0,-96.0,0
243,13.0,-257.0,-96.0,0
244,12.0,-256.0,-99.0,0
245,8.0,-255.0,-100.0,0
246,10.0,-254.0,-98.0,0
247,11.0,-255.0,-99.0,0
248,13.0,-255.0,-98.0,0
249,14.0,-255.0,-100.0,0
250,13.0,-255.0,-103.0,0
251,15.0,-256.0,-98.0,0
252,14.0,-256.0,-102.0,0
253,16.0,-254.0,-96.0,0
254,11.0,-253.0,-100.0,0
255,9.0,-256.0,-97.0,0
256,16.0,-256.0,-100.0,0
257,15.0,-254.0,-98.0,0
258,16.0,-255.0,-94.0,0
259,15.0,-254.0,-98.0,0
260,14.0,-256.0,-101.0,0
261,13.0,-256.0,-102.0,0
262,12.0,-255.0,-97.0,0
263,16.0,-255.0,-98.0,0
264,16.0,-257.0,-98.0,0
265,13.0,-256.0,-102.0,0
266,14.0,-256.0,-96.0,0
267,14.0,-255.0,-101.0,0
268,13.0,-254.0,-97.0,0
269,15.0,-256.0,-99.0,0
270,15.0,-256.0,-98.0,0
271,15.0,-256.0,-95.0,0
272,14.0,-255.0,-101.0,0
273,16.0,-260.0,-94.0,0
274,10.0,-256.0,-101.0,0
275,13.0,-258.0,-95.0,0
276,15.0,-255.0,-96.0,0
277,15.0,-258.0,-101.0,0
278,14.0,-257.0,-100.0,0
279,12.0,-255.0,-99.0,0
280,15.0,-257.0,-98.0,0
281,14.0,-258.0,-100.0,0
282,15.0,-257.0,-99.0,0
283,13.0,-256.0,-101.0,0
284,19.0,-259.0,-96.0,0
285,13.0,-257.0,-99.0,0
286,13.0,-255.0,-99.0,0
287,13.0,-255.0,-97.0,0
288,15.0,-256.0,-98.0,0
289,12.0,-252.0,-96.0,0
290,15.0,-255.0,-97.0,0
291,11.0,-255.0,-99.0,0
292,16.0,-256.0,-102.0,0
293,12.0,-254.0,-93.0,0
294,13.0,-254.0,-97.0,0
295,15.0,-255.0,-94.0,0
296,14.0,-254.0,-91.0,0
297,12.0,-256.0,-102.0,0
298,13.0,-256.0,-93.0,0
299,9.0,-256.0,-94.0,0
300,14.0,-256.0,-99.0,0
301,13.0,-254.0,-100.0,0
302,13.0,-257.0,-99.0,0
303,9.0,-255.0,-98.0,0
304,10.0,-256.0,-101.0,0
305,8.0,-255.0,-95.0,0
306,12.0,-257.0,-100.0,0
307,11.0,-255.0,-97.0,0
308,10.0,-256.0,-97.0,0
309,10.0,-256.0,-98.0,0
310,8.0,-261.0,-95.0,0
311,11.0,-257.0,-96.0,0
312,8.0,-256.0,-100.0,0
313,11.0,-258.0,-99.0,0
314,9.0,-258.0,-100.0,0
315,11.0,-256.0,-102.0,0
316,10.0,-256.0,-97.0,0
317,11.0,-256.0,-97.0,0
318,10.0,-255.0,-99.0,0
319,11.0,-256.0,-101.0,0
320,7.0,-262.0,-101.0,0
321,7.0,-255.0,-103.0,0
322,13.0,-256.0,-99.0,0
323,10.0,-256.0,-100.0,0
324,11.0,-254.0,-103.0,0
325,12.0,-255.0,-100.0,0
326,11.0,-256.0,-99.0,0
327,11.0,-255.0,-100.0,0
328,7.0,-254.0,-101.0,0
329,11.0,-255.0,-101.0,0
330,13.0,-254.0,-97.0,0
331,8.0,-256.0,-97.0,0
332,14.0,-257.0,-101.0,0
333,12.0,-254.0,-103.0,0
334,15.0,-255.0,-100.0,0
335,12.0,-254.0,-102.0,0
336,13.0,-255.0,-99.0,0
337,14.0,-255.0,-98.0,0
338,13.0,-255.0,-98.0,0
339,16.0,-255.0,-99.0,0
340,13.0,-253.0,-100.0,0
341,13.0,-253.0,-98.0,0
342,16.0,-252.0,-102.0,0
343,9.0,-252.0,-93.0,0
344,14.0,-255.0,-100.0,0
345,15.0,-255.0,-96.0,0
346,14.0,-255.0,-98.0,0
347,13.0,-254.0,-100.0,0
348,13.0,-257.0,-100.0,0
349,14.0,-257.0,-97.0,0
350,14.0,-256.0,-99.0,0
351,15.0,-254.0,-97.0,0
352,14.0,-257.0,-98.0,0
353,14.0,-258.0,-99.0,0
354,14.0,-257.0,-101.0,0
355,14.0,-257.0,-100.0,0
356,12.0,-254.0,-99.0,0
357,13.0,-256.0,-99.0,0
358,14.0,-257.0,-104.0,0
359,16.0,-257.0,-99.0,0
360,14.0,-254.0,-98.0,0
361,13.0,-256.0,-97.0,0
362,15.0,-257.0,-98.0,0
363,14.0,-254.0,-100.0,0
364,14.0,-256.0,-102.0,0
365,20.0,-257.0,-107.0,0
366,14.0,-256.0,-101.0,0
367,14.0,-253.0,-102.0,0
368,14.0,-256.0,-105.0,0
369,14.0,-255.0,-99.0,0
370,15.0,-257.0,-98.0,0
371,14.0,-256.0,-101.0,0
372,17.0,-257.0,-95.0,0
373,15.0,-258.0,-101.0,0
374,18.0,-255.0,-103.0,0
375,16.0,-256.0,-106.0,0
376,14.0,-254.0,-105.0,0
377,15.0,-254.0,-98.0,0
378,17.0,-256.0,-99.0,0
379,16.0,-256.0,-101.0,0
380,15.0,-256.0,-103.0,0
381,13.0,-254.0,-97.0,0
382,15.0,-250.0,-96.0,0
383,15.0,-255.0,-101.0,0
384,17.0,-256.0,-98.0,0
385,13.0,-256.0,-97.0,0
386,15.0,-254.0,-93.0,0
387,15.0,-254.0,-99.0,0
388,13.0,-255.0,-101.0,0
389,17.0,-255.0,-98.0,0
390,13.0,-256.0,-98.0,0
391,18.0,-257.0,-100.0,0
392,16.0,-256.0,-99.0,0
393,16.0,-256.0,-100.0,0
394,15.0,-255.0,-96.0,0
395,13.0,-256.0,-97.0,0
396,12.0,-252.0,-99.0,0
397,14.0,-259.0,-96.0,0
398,15.0,-256.0,-97.0,0
399,15.0,-256.0,-95.0,0
400,15.0,-254.0,-99.0,0
401,14.0,-256.0,-96.0,0
402,15.0,-254.0,-99.0,0
403,15.0,-256.0,-97.0,0
404,16.0,-256.0,-99.0,0
405,15.0,-257.0,-99.0,0
406,16.0,-257.0,-98.0,0
407,15.0,-256.0,-100.0,0
408,16.0,-259.0,-90.0,0
409,14.0,-256.0,-93.0,0
410,14.0,-257.0,-99.0,0
411,10.0,-255.0,-99.0,0
412,15.0,-257.0,-98.0,0
413,13.0,-257.0,-99.0,0
414,13.0,-257.0,-96.0,0
415,15.0,-257.0,-102.0,0
416,14.0,-256.0,-98.0,0
417,14.0,-256.0,-98.0,0
418,10.0,-257.0,-102.0,0
419,15.0,-257.0,-99.0,0
420,14.0,-256.0,-100.0,0
421,12.0,-258.0,-100.0,0
422,14.0,-255.0,-100.0,0
423,13.0,-256.0,-98.0,0
424,16.0,-257.0,-97.0,0
425,13.0,-255.0,-97.0,0
426,14.0,-255.0,-96.0,0
427,19.0,-259.0,-97.0,0
428,16.0,-256.0,-98.0,0
429,10.0,-254.0,-99.0,0
430,14.0,-255.0,-97.0,0
431,16.0,-256.0,-100.0,0
432,14.0,-257.0,-97.0,0
433,18.0,-258.0,-100.0,0
434,16.0,-255.0,-100.0,0
435,16.0,-255.0,-98.0,0
436,15.0,-256.0,-96.0,0
437,16.0,-254.0,-96.0,0
438,14.0,-256.0,-94.0,0
439,14.0,-256.0,-101.0,0
440,15.0,-252.0,-98.0,0
441,14.0,-255.0,-102.0,0
442,14.0,-255.0,-101.0,0
443,13.0,-254.0,-97.0,0
444,17.0,-256.0,-97.0,0
445,13.0,-255.0,-102.0,0
446,16.0,-255.0,-96.0,0
447,15.0,-257.0,-99.0,0
448,16.0,-255.0,-99.0,0
449,16.0,-254.0,-97.0,0
450,15.0,-255.0,-97.0,0
451,11.0,-252.0,-97.0,0
452,14.0,-254.0,-101.0,0
453,15.0,-254.0,-96.0,0
454,15.0,-256.0,-96.0,0
455,16.0,-255.0,-98.0,0
456,16.0,-256.0,-94.0,0
457,14.0,-256.0,-100.0,0
458,18.0,-255.0,-99.0,0
459,15.0,-256.0,-100.0,0
460,17.0,-259.0,-97.0,0
461,18.0,-254.0,-95.0,0
462,13.0,-255.0,-92.0,0
463,15.0,-255.0,-98.0,0
464,15.0,-256.0,-98.0,0
465,16.0,-255.0,-97.0,0
466,16.0,-257.0,-97.0,0
467,16.0,-256.0,-98.0,0
468,15.0,-255.0,-97.0,0
469,14.0,-258.0,-100.0,0
470,14.0,-256.0,-96.0,0
471,16.0,-256.0,-101.0,0
472,13.0,-258.0,-98.0,0
473,12.0,-257.0,-98.0,0
474,16.0,-258.0,-97.0,0
475,14.0,-257.0,-99.0,0
476,15.0,-256.0,-101.0,0
477,14.0,-255.0,-101.0,0
478,13.0,-256.0,-100.0,0
479,16.0,-256.0,-99.0,0
480,17.0,-259.0,-102.0,0
481,16.0,-257.0,-103.0,0
482,17.0,-255.0,-96.0,0
483,16.0,-257.0,-99.0,0
484,16.0,-256.0,-96.0,0
485,14.0,-255.0,-100.0,0
486,17.0,-255.0,-97.0,0
487,17.0,-255.0,-98.0,0
488,14.0,-256.0,-98.0,0
489,15.0,-256.0,-98.0,0
490,16.0,-256.0,-96.0,0
491,16.0,-257.0,-99.0,0
492,14.0,-255.0,-99.0,0
493,17.0,-253.0,-98.0,0
494,16.0,-257.0,-97.0,0
495,15.0,-251.0,-96.0,0
496,15.0,-255.0,-99.0,0
497,13.0,-255.0,-98.0,0
498,16.0,-256.0,-97.0,0
499,14.0,-256.0,-98.0,0
500,15.0,-257.0,-97.0,0
501,15.0,-258.0,-99.0,0
502,18.0,-255.0,-101.0,0
503,16.0,-258.0,-96.0,0
504,13.0,-256.0,-97.0,0
505,9.0,-258.0,-97.0,0
506,13.0,-257.0,-101.0,0
507,15.0,-258.0,-97.0,0
508,18.0,-256.0,-98.0,0
509,15.0,-256.0,-99.0,0
510,16.0,-255.0,-97.0,0
511,15.0,-255.0,-101.0,0
512,17.0,-256.0,-99.0,0
513,16.0,-254.0,-99.0,0
514,15.0,-255.0,-99.0,0
515,16.0,-256.0,-97.0,0
516,16.0,-257.0,-98.0,0
517,16.0,-255.0,-96.0,0
518,16.0,-258.0,-99.0,0
519,15.0,-255.0,-94.0,0
520,15.0,-255.0,-98.0,0
521,16.0,-256.0,-99.0,0
522,13.0,-256.0,-95.0,0
523,16.0,-257.0,-95.0,0
524,17.0,-258.0,-98.0,0
525,16.0,-256.0,-99.0,0
526,16.0,-255.0,-98.0,0
527,18.0,-252.0,-101.0,0
528,16.0,-256.0,-98.0,0
529,16.0,-255.0,-98.0,0
530,14.0,-256.0,-96.0,0
531,14.0,-254.0,-100.0,0
532,15.0,-255.0,-99.0,0
533,17.0,-257.0,-96.0,0
534,15.0,-254.0,-97.0,0
535,14.0,-256.0,-98.0,0
536,15.0,-254.0,-97.0,0
537,14.0,-257.0,-94.0,0
538,16.0,-260.0,-93.0,0
539,17.0,-257.0,-99.0,0
540,16.0,-256.0,-98.0,0
541,15.0,-256.0,-100.0,0
542,17.0,-257.0,-96.0,0
543,15.0,-257.0,-102.0,0
544,16.0,-257.0,-99.0,0
545,16.0,-258.0,-98.0,0
546,15.0,-254.0,-92.0,0
547,15.0,-257.0,-93.0,0
548,14.0,-257.0,-100.0,0
549,21.0,-257.0,-92.0,0
550,15.0,-256.0,-97.0,0
551,17.0,-252.0,-97.0,0
552,14.0,-254.0,-97.0,0
553,14.0,-256.0,-96.0,0
554,17.0,-254.0,-98.0,0
555,16.0,-257.0,-97.0,0
556,12.0,-255.0,-102.0,0
557,16.0,-254.0,-95.0,0
558,14.0,-257.0,-99.0,0
559,16.0,-255.0,-100.0,0
560,10.0,-257.0,-99.0,0
561,15.0,-255.0,-95.0,0
562,14.0,-257.0,-97.0,0
563,15.0,-256.0,-97.0,0
564,15.0,-255.0,-94.0,0
565,15.0,-255.0,-100.0,0
566,15.0,-256.0,-103.0,0
567,16.0,-257.0,-97.0,0
568,15.0,-257.0,-97.0,0
569,16.0,-255.0,-95.0,0
570,14.0,-257.0,-97.0,0
571,14.0,-256.0,-100.0,0
572,17.0,-254.0,-97.0,0
573,15.0,-257.0,-98.0,0
574,16.0,-255.0,-97.0,0
575,14.0,-257.0,-94.0,0
576,16.0,-257.0,-101.0,0
577,14.0,-255.0,-97.0,0
578,16.0,-256.0,-94.0,0
579,16.0,-256.0,-96.0,0
580,16.0,-257.0,-98.0,0
581,13.0,-256.0,-99.0,0
582,12.0,-260.0,-102.0,0
583,14.0,-257.0,-98.0,0
584,15.0,-257.0,-98.0,0
585,16.0,-257.0,-96.0,0
586,15.0,-256.0,-98.0,0
587,15.0,-258.0,-98.0,0
588,14.0,-256.0,-98.0,0
589,14.0,-255.0,-96.0,0
590,13.0,-258.0,-99.0,0
591,14.0,-256.0,-99.0,0
592,15.0,-256.0,-100.0,0
593,10.0,-254.0,-104.0,0
594,15.0,-258.0,-101.0,0
595,17.0,-257.0,-97.0,0
596,16.0,-256.0,-96.0,0
597,16.0,-255.0,-96.0,0
598,13.0,-254.0,-93.0,0
599,16.0,-256.0,-100.0,0
600,16.0,-256.0,-99.0,0
601,15.0,-256.0,-90.0,0
602,16.0,-256.0,-99.0,0
603,17.0,-255.0,-96.0,0
604,14.0,-256.0,-98.0,0
605,15.0,-254.0,-95.0,0
606,14.0,-255.0,-98.0,0
607,15.0,-257.0,-97.0,0
608,15.0,-255.0,-95.0,0
609,16.0,-256.0,-101.0,0
610,17.0,-255.0,-94.0,0
611,15.0,-256.0,-91.0,0
612,14.0,-255.0,-95.0,0
613,11.0,-256.0,-99.0,0
614,13.0,-251.0,-98.0,0
615,14.0,-255.0,-96.0,0
616,14.0,-256.0,-97.0,0
617,16.0,-256.0,-93.0,0
618,13.0,-254.0,-97.0,0
619,15.0,-254.0,-101.0,0
620,13.0,-254.0,-97.0,0
621,13.0,-257.0,-94.0,0
622,12.0,-258.0,-96.0,0
623,13.0,-257.0,-88.0,0
624,16.0,-257.0,-94.0,0
625,10.0,-258.0,-95.0,0
626,14.0,-258.0,-97.0,0
627,15.0,-257.0,-97.0,0
628,13.0,-256.0,-100.0,0
629,15.0,-257.0,-94.0,0
630,14.0,-257.0,-96.0,0
631,15.0,-257.0,-98.0,0
632,12.0,-254.0,-100.0,0
633,13.0,-257.0,-100.0,0
634,10.0,-256.0,-97.0,0
635,10.0,-258.0,-101.0,0
636,12.0,-260.0,-94.0,0
637,11.0,-256.0,-96.0,0
638,15.0,-257.0,-99.0,0
639,15.0,-256.0,-98.0,0
640,12.0,-254.0,-99.0,0
641,15.0,-256.0,-97.0,0
642,14.0,-256.0,-97.0,0
643,14.0,-256.0,-95.0,0
644,15.0,-257.0,-96.0,0
645,14.0,-255.0,-98.0,0
646,13.0,-255.0,-98.0,0
647,17.0,-249.0,-98.0,0
648,15.0,-256.0,-97.0,0
649,16.0,-255.0,-94.0,0
650,16.0,-256.0,-101.0,0
651,16.0,-256.0,-93.0,0
652,16.0,-257.0,-99.0,0
653,13.0,-256.0,-100.0,0
654,17.0,-256.0,-97.0,0
655,16.0,-256.0,-102.0,0
656,16.0,-257.0,-97.0,0
657,15.0,-257.0,-100.0,0
658,23.0,-257.0,-93.0,0
659,15.0,-256.0,-96.0,0
660,16.0,-257.0,-96.0,0
661,16.0,-256.0,-99.0,0
662,16.0,-256.0,-100.0,0
663,16.0,-258.0,-97.0,0
664,15.0,-257.0,-99.0,0
665,15.0,-256.0,-97.0,0
666,13.0,-254.0,-95.0,0
667,16.0,-258.0,-97.0,0
668,17.0,-256.0,-95.0,0
669,12.0,-257.0,-101.0,0
670,15.0,-257.0,-99.0,0
671,15.0,-256.0,-97.0,0
672,15.0,-255.0,-98.0,0
673,13.0,-255.0,-97.0,0
674,15.0,-256.0,-98.0,0
675,16.0,-257.0,-96.0,0
676,14.0,-254.0,-97.0,0
677,10.0,-256.0,-98.0,0
678,16.0,-255.0,-96.0,0
679,12.0,-252.0,-91.0,0
680,15.0,-258.0,-106.0,0
681,14.0,-254.0,-94.0,0
682,11.0,-256.0,-96.0,0
683,14.0,-258.0,-98.0,0
684,13.0,-255.0,-94.0,0
685,14.0,-255.0,-94.0,0
686,15.0,-257.0,-96.0,0
687,14.0,-256.0,-99.0,0
688,17.0,-253.0,-98.0,0
689,15.0,-255.0,-93.0,0
690,15.0,-256.0,-96.0,0
691,14.0,-253.0,-91.0,0
692,12.0,-255.0,-96.0,0
693,13.0,-255.0,-100.0,0
694,15.0,-255.0,-97.0,0
695,14.0,-256.0,-97.0,0
696,13.0,-259.0,-98.0,0
697,14.0,-255.0,-95.0,0
698,15.0,-258.0,-98.0,0
699,11.0,-255.0,-94.0,0
700,15.0,-255.0,-98.0,0
701,14.0,-256.0,-96.0,0
702,14.0,-255.0,-95.0,0
703,17.0,-256.0,-102.0,0
704,11.0,-254.0,-98.0,0
705,14.0,-256.0,-98.0,0
706,14.0,-259.0,-97.0,0
707,15.0,-258.0,-95.0,0
708,15.0,-255.0,-98.0,0
709,15.0,-259.0,-99.0,0
710,17.0,-255.0,-95.0,0
711,13.0,-255.0,-99.0,0
712,15.0,-255.0,-98.0,0
713,16.0,-257.0,-101.0,0
714,11.0,-259.0,-102.0,0
715,14.0,-257.0,-95.0,0
716,16.0,-259.0,-98.0,0
717,10.0,-256.0,-100.0,0
718,17.0,-256.0,-97.0,0
719,15.0,-257.0,-97.0,0
720,14.0,-257.0,-94.0,0
721,14.0,-257.0,-96.0,0
722,13.0,-253.0,-98.0,0
723,17.0,-258.0,-97.0,0
724,16.0,-255.0,-100.0,0
725,16.0,-256.0,-99.0,0
726,17.0,-257.0,-94.0,0
727,14.0,-257.0,-96.0,0
728,16.0,-256.0,-97.0,0
729,13.0,-255.0,-92.0,0
730,14.0,-256.0,-99.0,0
731,19.0,-260.0,-97.0,0
732,11.0,-256.0,-97.0,0
733,18.0,-256.0,-101.0,0
734,21.0,-256.0,-95.0,0
735,16.0,-256.0,-97.0,0
736,15.0,-258.0,-97.0,0
737,15.0,-256.0,-97.0,0
738,16.0,-253.0,-98.0,0
739,16.0,-257.0,-96.0,0
740,14.0,-257.0,-99.0,0
741,16.0,-255.0,-96.0,0
742,15.0,-255.0,-97.0,0
743,16.0,-256.0,-98.0,0
744,16.0,-257.0,-101.0,0
745,12.0,-263.0,-96.0,0
746,16.0,-257.0,-98.0,0
747,17.0,-256.0,-98.0,0
748,16.0,-256.0,-95.0,0
749,14.0,-256.0,-97.0,0
750,17.0,-257.0,-92.0,0
751,17.0,-257.0,-94.0,0
752,16.0,-258.0,-97.0,0
753,15.0,-256.0,-102.0,0
754,14.0,-259.0,-96.0,0
755,14.0,-258.0,-100.0,0
756,22.0,-257.0,-96.0,0
757,14.0,-256.0,-98.0,0
758,17.0,-256.0,-100.0,0
759,14.0,-257.0,-95.0,0
760,14.0,-256.0,-96.0,0
761,12.0,-256.0,-98.0,0
762,16.0,-256.0,-96.0,0
763,11.0,-255.0,-96.0,0
764,17.0,-255.0,-94.0,0
765,14.0,-257.0,-98.0,0
766,16.0,-257.0,-92.0,0
767,17.0,-250.0,-98.0,0
768,13.0,-256.0,-94.0,0
769,14.0,-258.0,-98.0,0
770,16.0,-255.0,-95.0,0
771,15.0,-257.0,-96.0,0
772,15.0,-256.0,-97.0,0
773,15.0,-255.0,-97.0,0
774,14.0,-256.0,-96.0,0
775,11.0,-257.0,-98.0,0
776,16.0,-256.0,-97.0,0
777,14.0,-256.0,-93.0,0
778,10.0,-251.0,-97.0,0
779,16.0,-255.0,-93.0,0
780,15.0,-253.0,-94.0,0
781,11.0,-256.0,-98.0,0
782,14.0,-256.0,-94.0,0
783,16.0,-257.0,-95.0,0
784,11.0,-254.0,-98.0,0
785,12.0,-254.0,-93.0,0
786,14.0,-257.0,-92.0,0
787,13.0,-256.0,-96.0,0
788,12.0,-257.0,-98.0,0
789,17.0,-256.0,-92.0,0
790,13.0,-257.0,-95.0,0
791,14.0,-256.0,-96.0,0
792,12.0,-258.0,-96.0,0
793,13.0,-259.0,-96.0,0
794,11.0,-256.0,-98.0,0
795,14.0,-256.0,-97.0,0
796,15.0,-256.0,-98.0,0
797,13.0,-257.0,-95.0,0
798,16.0,-255.0,-96.0,0
799,14.0,-255.0,-98.0,0
800,10.0,-256.0,-97.0,0
801,14.0,-255.0,-95.0,0
802,10.0,-250.0,-98.0,0
803,14.0,-254.0,-100.0,0
804,12.0,-255.0,-97.0,0
805,13.0,-256.0,-96.0,0
806,17.0,-256.0,-100.0,0
807,20.0,-259.0,-98.0,0
808,15.0,-257.0,-99.0,0
809,16.0,-255.0,-97.0,0
810,16.0,-256.0,-98.0,0
811,16.0,-257.0,-93.0,0
812,16.0,-255.0,-97.0,0
813,16.0,-255.0,-94.0,0
814,14.0,-255.0,-97.0,0
815,16.0,-255.0,-100.0,0
816,15.0,-257.0,-97.0,0
817,18.0,-258.0,-96.0,0
818,13.0,-255.0,-91.0,0
819,15.0,-253.0,-92.0,0
820,12.0,-252.0,-93.0,0
821,13.0,-251.0,-95.0,0
822,9.0,-254.0,-94.0,0
823,12.0,-256.0,-96.0,0
824,13.0,-252.0,-95.0,0
825,15.0,-254.0,-97.0,0
826,11.0,-255.0,-95.0,0
827,11.0,-257.0,-97.0,0
828,11.0,-258.0,-97.0,0
829,13.0,-255.0,-91.0,0
830,7.0,-258.0,-95.0,0
831,16.0,-259.0,-95.0,0
832,12.0,-258.0,-94.0,0
833,13.0,-257.0,-92.0,0
834,15.0,-258.0,-94.0,0
835,17.0,-257.0,-95.0,0
836,15.0,-257.0,-93.0,0
837,18.0,-258.0,-93.0,0
838,15.0,-256.0,-92.0,0
839,16.0,-256.0,-89.0,0
840,15.0,-257.0,-93.0,0
841,19.0,-255.0,-98.0,0
842,18.0,-256.0,-92.0,0
843,13.0,-250.0,-100.0,0
844,18.0,-255.0,-94.0,0
845,16.0,-254.0,-94.0,0
846,14.0,-252.0,-94.0,0
847,15.0,-251.0,-96.0,0
848,15.0,-252.0,-95.0,0
849,16.0,-253.0,-100.0,0
850,12.0,-253.0,-99.0,0
851,15.0,-252.0,-98.0,0
852,16.0,-253.0,-100.0,0
853,13.0,-250.0,-99.0,0
854,14.0,-251.0,-107.0,0
855,16.0,-252.0,-102.0,0
856,15.0,-251.0,-97.0,0
857,15.0,-251.0,-99.0,0
858,13.0,-252.0,-102.0,0
859,13.0,-250.0,-100.0,0
860,13.0,-251.0,-102.0,0
861,15.0,-253.0,-98.0,0
862,14.0,-253.0,-110.0,0
863,16.0,-253.0,-102.0,0
864,17.0,-252.0,-99.0,0
865,17.0,-251.0,-100.0,0
866,13.0,-253.0,-106.0,0
867,16.0,-253.0,-105.0,0
868,15.0,-255.0,-106.0,0
869,18.0,-255.0,-109.0,0
870,17.0,-254.0,-106.0,0
871,17.0,-257.0,-112.0,0
872,17.0,-259.0,-107.0,0
873,15.0,-257.0,-108.0,0
874,15.0,-255.0,-110.0,0
875,20.0,-254.0,-105.0,0
876,18.0,-254.0,-114.0,0
877,20.0,-254.0,-103.0,0
878,22.0,-253.0,-106.0,0
879,23.0,-251.0,-108.0,0
880,23.0,-252.0,-111.0,0
881,22.0,-248.0,-108.0,0
882,23.0,-253.0,-109.0,0
883,24.0,-252.0,-109.0,0
884,22.0,-253.0,-107.0,0
885,20.0,-252.0,-116.0,0
886,23.0,-256.0,-103.0,0
887,18.0,-249.0,-101.0,0
888,22.0,-250.0,-97.0,0
889,26.0,-251.0,-101.0,0
890,22.0,-252.0,-96.0,0
891,16.0,-252.0,-99.0,0
892,24.0,-254.0,-96.0,0
893,22.0,-251.0,-98.0,0
894,22.0,-252.0,-102.0,0
895,26.0,-248.0,-110.0,0
896,21.0,-247.0,-106.0,0
897,21.0,-245.0,-109.0,0
898,24.0,-251.0,-118.0,0
899,17.0,-245.0,-111.0,0
900,17.0,-248.0,-110.0,0
901,22.0,-251.0,-109.0,0
902,16.0,-253.0,-112.0,0
903,17.0,-256.0,-113.0,0
904,14.0,-257.0,-110.0,0
905,13.0,-254.0,-113.0,0
906,13.0,-254.0,-114.0,0
907,14.0,-253.0,-119.0,0
908,13.0,-252.0,-112.0,0
909,6.0,-253.0,-120.0,0
910,11.0,-251.0,-115.0,0
911,11.0,-250.0,-116.0,0
912,11.0,-246.0,-115.0,0
913,10.0,-244.0,-116.0,0
914,11.0,-241.0,-123.0,0
915,12.0,-244.0,-123.0,0
916,16.0,-237.0,-126.0,0
917,15.0,-233.0,-128.0,0
918,22.0,-237.0,-124.0,0
919,17.0,-240.0,-131.0,0
920,22.0,-230.0,-139.0,0
921,21.0,-233.0,-136.0,0
922,24.0,-235.0,-140.0,0
923,16.0,-232.0,-132.0,0
924,16.0,-239.0,-139.0,0
925,12.0,-245.0,-137.0,0
926,12.0,-242.0,-138.0,0
927,8.0,-250.0,-139.0,0
928,4.0,-251.0,-145.0,0
929,12.0,-251.0,-143.0,0
930,15.0,-255.0,-141.0,0
931,14.0,-256.0,-138.0,0
932,19.0,-264.0,-137.0,0
933,25.0,-262.0,-133.0,0
934,20.0,-258.0,-136.0,0
935,27.0,-257.0,-144.0,0
936,26.0,-253.0,-140.0,0
937,28.0,-246.0,-147.0,0
938,27.0,-246.0,-151.0,0
939,34.0,-236.0,-153.0,0
940,35.0,-239.0,-155.0,0
941,39.0,-234.0,-157.0,0
942,43.0,-233.0,-159.0,0
943,45.0,-230.0,-161.0,0
944,41.0,-227.0,-166.0,0
945,48.0,-230.0,-165.0,0
946,48.0,-228.0,-172.0,0
947,49.0,-229.0,-170.0,0
948,47.0,-229.0,-172.0,0
949,45.0,-227.0,-175.0,0
950,54.0,-236.0,-175.0,0
951,51.0,-230.0,-179.0,0
952,56.0,-235.0,-182.0,0
953,56.0,-236.0,-184.0,0
954,57.0,-235.0,-187.0,0
955,62.0,-239.0,-188.0,0
956,65.0,-241.0,-188.0,0
957,64.0,-244.0,-191.0,0
958,64.0,-245.0,-192.0,0
959,60.0,-245.0,-194.0,0
960,60.0,-248.0,-196.0,0
961,56.0,-249.0,-196.0,0
962,58.0,-248.0,-192.0,0
963,51.0,-253.0,-203.0,0
964,49.0,-254.0,-195.0,0
965,41.0,-254.0,-197.0,0
966,37.0,-250.0,-198.0,0
967,38.0,-255.0,-197.0,0
968,31.0,-252.0,-203.0,0
969,31.0,-255.0,-202.0,0
970,32.0,-255.0,-201.0,0
971,25.0,-250.0,-208.0,0
972,27.0,-253.0,-211.0,0
973,27.0,-256.0,-211.0,0
974,22.0,-248.0,-213.0,0
975,24.0,-257.0,-212.0,0
976,26.0,-255.0,-209.0,0
977,18.0,-251.0,-213.0,0
978,19.0,-250.0,-211.0,0
979,22.0,-252.0,-214.0,0
980,21.0,-249.0,-214.0,0
981,18.0,-250.0,-211.0,0
982,19.0,-249.0,-216.0,0
983,15.0,-246.0,-218.0,0
984,14.0,-248.0,-220.0,0
985,13.0,-249.0,-227.0,0
986,16.0,-250.0,-224.0,0
987,15.0,-251.0,-232.0,0
988,18.0,-252.0,-231.0,0
989,14.0,-247.0,-231.0,0
990,15.0,-250.0,-236.0,0
991,16.0,-247.0,-233.0,0
992,14.0,-242.0,-231.0,0
993,15.0,-239.0,-236.0,0
994,15.0,-239.0,-231.0,0
995,18.0,-233.0,-228.0,0
996,14.0,-231.0,-235.0,0
997,15.0,-231.0,-236.0,0
998,13.0,-229.0,-235.0,0
999,15.0,-222.0,-233.0,0
1000,14.0,-224.0,-234.0,0
1001,15.0,-221.0,-239.0,0
1002,16.0,-219.0,-242.0,0
1003,11.0,-216.0,-240.0,0
1004,10.0,-212.0,-243.0,0
1005,11.0,-208.0,-245.0,0
1006,13.0,-209.0,-254.0,0
1007,8.0,-205.0,-252.0,0
1008,7.0,-205.0,-251.0,0
1009,8.0,-202.0,-253.0,0
1010,8.0,-199.0,-254.0,0
1011,11.0,-195.0,-254.0,0
1012,14.0,-194.0,-257.0,0
1013,17.0,-195.0,-252.0,0
1014,15.0,-190.0,-252.0,0
1015,22.0,-190.0,-259.0,0
1016,20.0,-188.0,-255.0,0
1017,23.0,-184.0,-250.0,0
1018,18.0,-179.0,-252.0,0
1019,21.0,-177.0,-255.0,0
1020,20.0,-173.0,-254.0,0
1021,23.0,-171.0,-251.0,0
1022,21.0,-165.0,-249.0,0
1023,22.0,-163.0,-246.0,0
1024,20.0,-160.0,-249.0,0
1025,20.0,-157.0,-249.0,0
1026,20.0,-154.0,-243.0,0
1027,22.0,-150.0,-238.0,0
1028,24.0,-152.0,-238.0,0
1029,19.0,-141.0,-238.0,0
1030,21.0,-142.0,-233.0,0
1031,20.0,-139.0,-233.0,0
1032,22.0,-135.0,-230.0,0
1033,22.0,-133.0,-235.0,0
1034,23.0,-130.0,-231.0,0
1035,25.0,-131.0,-230.0,0
1036,23.0,-130.0,-228.0,0
1037,26.0,-130.0,-227.0,0
1038,25.0,-128.0,-229.0,0
1039,22.0,-131.0,-229.0,0
1040,27.0,-130.0,-228.0,0
1041,26.0,-128.0,-222.0,0
1042,28.0,-127.0,-223.0,0
1043,28.0,-126.0,-222.0,0
1044,31.0,-125.0,-221.0,0
1045,31.0,-124.0,-222.0,0
1046,31.0,-123.0,-222.0,0
1047,30.0,-118.0,-222.0,0
1048,31.0,-122.0,-220.0,0
1049,36.0,-123.0,-222.0,0
1050,36.0,-118.0,-222.0,0
1051,32.0,-117.0,-224.0,0
1052,35.0,-119.0,-226.0,0
1053,37.0,-116.0,-223.0,0
1054,37.0,-118.0,-227.0,0
1055,40.0,-119.0,-224.0,0
1056,36.0,-120.0,-228.0,0
1057,36.0,-119.0,-225.0,0
1058,40.0,-121.0,-225.0,0
1059,39.0,-120.0,-229.0,0
1060,38.0,-123.0,-227.0,0
1061,34.0,-123.0,-227.0,0
1062,35.0,-124.0,-231.0,0
1063,33.0,-124.0,-232.0,0
1064,32.0,-121.0,-235.0,0
1065,34.0,-121.0,-240.0,0
1066,32.0,-118.0,-236.0,0
1067,31.0,-117.0,-237.0,0
1068,30.0,-114.0,-237.0,0
1069,31.0,-115.0,-234.0,0
1070,30.0,-111.0,-240.0,0
1071,26.0,-110.0,-242.0,0
1072,34.0,-109.0,-234.0,0
1073,29.0,-110.0,-233.0,0
1074,31.0,-110.0,-237.0,0
1075,32.0,-111.0,-232.0,0
1076,31.0,-108.0,-236.0,0
1077,34.0,-108.0,-233.0,0
1078,32.0,-110.0,-234.0,0
1079,33.0,-109.0,-231.0,0
1080,31.0,-106.0,-233.0,0
1081,31.0,-108.0,-236.0,0
1082,31.0,-103.0,-232.0,0
1083,36.0,-103.0,-236.0,0
1084,34.0,-102.0,-234.0,0
1085,35.0,-105.0,-233.0,0
1086,33.0,-104.0,-228.0,0
1087,33.0,-102.0,-226.0,0
1088,36.0,-102.0,-225.0,0
1089,36.0,-106.0,-225.0,0
1090,36.0,-103.0,-220.0,0
1091,35.0,-106.0,-222.0,0
1092,36.0,-110.0,-224.0,0
1093,35.0,-109.0,-215.0,0
1094,40.0,-112.0,-219.0,0
1095,38.0,-110.0,-221.0,0
1096,41.0,-110.0,-219.0,0
1097,39.0,-105.0,-218.0,0
1098,41.0,-104.0,-222.0,0
1099,42.0,-104.0,-222.0,0
1100,40.0,-106.0,-218.0,0
1101,38.0,-96.0,-216.0,0
1102,40.0,-97.0,-209.0,0
1103,42.0,-92.0,-214.0,0
1104,43.0,-90.0,-217.0,0
1105,45.0,-89.0,-212.0,0
1106,46.0,-87.0,-208.0,0
1107,48.0,-87.0,-206.0,0
1108,48.0,-85.0,-205.0,0
1109,45.0,-75.0,-210.0,0
1110,47.0,-77.0,-207.0,0
1111,45.0,-80.0,-207.0,0
1112,50.0,-77.0,-208.0,0
1113,46.0,-78.0,-209.0,0
1114,43.0,-76.0,-208.0,0
1115,44.0,-78.0,-207.0,0
1116,48.0,-77.0,-208.0,0
1117,51.0,-74.0,-206.0,0
1118,52.0,-76.0,-212.0,0
1119,50.0,-79.0,-204.0,0
1120,51.0,-75.0,-204.0,0
1121,49.0,-77.0,-204.0,0
1122,50.0,-76.0,-200.0,0
1123,48.0,-74.0,-203.0,0
1124,47.0,-72.0,-198.0,0
1125,43.0,-75.0,-199.0,0
1126,42.0,-76.0,-202.0,0
1127,40.0,-76.0,-198.0,0
1128,36.0,-77.0,-202.0,0
1129,34.0,-84.0,-205.0,0
1130,29.0,-91.0,-205.0,0
1131,25.0,-90.0,-206.0,0
1132,20.0,-97.0,-207.0,0
1133,16.0,-93.0,-211.0,0
1134,14.0,-95.0,-210.0,0
1135,15.0,-100.0,-211.0,0
1136,14.0,-96.0,-207.0,0
1137,11.0,-91.0,-209.0,0
1138,13.0,-89.0,-204.0,0
1139,19.0,-89.0,-205.0,0
1140,20.0,-80.0,-206.0,0
1141,20.0,-77.0,-201.0,0
1142,20.0,-75.0,-196.0,0
1143,25.0,-77.0,-192.0,0
1144,25.0,-75.0,-191.0,0
1145,28.0,-82.0,-195.0,0
1146,35.0,-81.0,-198.0,0
1147,31.0,-103.0,-203.0,0
1148,40.0,-109.0,-207.0,0
1149,27.0,-115.0,-217.0,0
1150,34.0,-114.0,-223.0,0
1151,37.0,-121.0,-224.0,0
1152,24.0,-115.0,-219.0,0
1153,38.0,-120.0,-221.0,0
1154,22.0,-108.0,-210.0,0
1155,21.0,-117.0,-214.0,0
1156,1.0,-121.0,-204.0,0
1157,16.0,-118.0,-203.0,0
1158,6.0,-118.0,-197.0,0
1159,8.0,-106.0,-199.0,0
1160,19.0,-106.0,-197.0,0
1161,33.0,-71.0,-208.0,0
1162,20.0,-94.0,-201.0,0
1163,23.0,-93.0,-202.0,0
1164,63.0,-80.0,-213.0,0
1165,53.0,-80.0,-210.0,0
1166,64.0,-84.0,-217.0,0
1167,105.0,-70.0,-239.0,0
1168,55.0,-95.0,-209.0,0
1169,57.0,-105.0,-212.0,0
1170,62.0,-111.0,-214.0,0
1171,66.0,-101.0,-223.0,0
1172,60.0,-107.0,-222.0,0
1173,65.0,-101.0,-237.0,0
1174,60.0,-91.0,-230.0,0
1175,72.0,-79.0,-239.0,0
1176,67.0,-67.0,-238.0,0
1177,75.0,-54.0,-239.0,0
1178,71.0,-60.0,-236.0,0
1179,88.0,-61.0,-231.0,0
1180,83.0,-60.0,-225.0,0
1181,97.0,-61.0,-230.0,0
1182,93.0,-66.0,-234.0,0
1183,98.0,-66.0,-236.0,0
1184,96.0,-78.0,-244.0,0
1185,89.0,-99.0,-250.0,0
1186,75.0,-109.0,-242.0,0
1187,86.0,-107.0,-246.0,0
1188,104.0,-121.0,-233.0,0
1189,104.0,-76.0,-267.0,0
1190,133.0,-71.0,-267.0,0
1191,133.0,-70.0,-260.0,0
1192,152.0,-71.0,-251.0,0
1193,148.0,-70.0,-243.0,0
1194,165.0,-69.0,-245.0,0
1195,162.0,-85.0,-238.0,0
1196,173.0,-86.0,-226.0,0
1197,196.0,-99.0,-233.0,0
1198,185.0,-112.0,-224.0,0
1199,201.0,-125.0,-224.0,2
1200,228.0,-134.0,-236.0,2
1201,226.0,-142.0,-226.0,2
1202,228.0,-134.0,-227.0,2
1203,228.0,-131.0,-225.0,2
1204,240.0,-130.0,-229.0,2
1205,246.0,-131.0,-218.0,2
1206,245.0,-108.0,-223.0,2
1207,237.0,-108.0,-227.0,2
1208,236.0,-83.0,-227.0,2
1209,230.0,-71.0,-218.0,2
1210,226.0,-67.0,-221.0,2
1211,230.0,-60.0,-218.0,2
1212,231.0,-62.0,-215.0,2
1213,230.0,-75.0,-214.0,2
1214,232.0,-66.0,-213.0,2
1215,253.0,-76.0,-215.0,2
1216,270.0,-84.0,-210.0,2
1217,293.0,-82.0,-224.0,2
1218,310.0,-86.0,-231.0,2
1219,300.0,-82.0,-237.0,2
1220,375.0,-79.0,-238.0,2
1221,414.0,-68.0,-235.0,2
1222,407.0,-55.0,-254.0,2
1223,414.0,-38.0,-271.0,2
1224,437.0,-30.0,-266.0,2
1225,507.0,-44.0,-253.0,2
1226,632.0,-76.0,-220.0,2
1227,733.0,-118.0,-231.0,2
1228,852.0,-162.0,-243.0,2
1229,938.0,-221.0,-254.0,2
1230,1001.0,-260.0,-251.0,2
1231,1052.0,-280.0,-242.0,2
1232,1046.0,-282.0,-225.0,2
1233,919.0,-262.0,-177.0,2
1234,756.0,-260.0,-105.0,2
1235,564.0,-263.0,-33.0,2
1236,396.0,-261.0,-4.0,2
1237,237.0,-237.0,6.0,2
1238,123.0,-217.0,-15.0,2
1239,53.0,-204.0,-56.0,2
1240,29.0,-196.0,-69.0,2
1241,44.0,-186.0,-75.0,2
1242,72.0,-171.0,-81.0,2
1243,91.0,-163.0,-72.0,2
1244,99.0,-143.0,-56.0,2
1245,112.0,-131.0,-31.0,2
1246,153.0,-94.0,-10.0,2
1247,170.0,-82.0,4.0,2
1248,202.0,-53.0,17.0,2
1249,227.0,-27.0,29.0,2
1250,261.0,-10.0,15.0,2
1251,280.0,5.0,38.0,2
1252,305.0,17.0,42.0,2
1253,306.0,31.0,30.0,2
1254,264.0,35.0,21.0,2
1255,237.0,37.0,24.0,2
1256,187.0,30.0,17.0,2
1257,154.0,14.0,22.0,2
1258,139.0,-2.0,16.0,2
1259,130.0,1.0,22.0,2
1260,138.0,26.0,22.0,2
1261,146.0,45.0,40.0,2
1262,159.0,50.0,56.0,2
1263,164.0,54.0,59.0,2
1264,175.0,59.0,62.0,2
1265,197.0,70.0,65.0,2
1266,215.0,69.0,83.0,2
1267,234.0,77.0,110.0,2
1268,234.0,82.0,121.0,2
1269,252.0,86.0,126.0,2
1270,240.0,90.0,139.0,2
1271,255.0,77.0,142.0,2
1272,265.0,76.0,143.0,2
1273,269.0,91.0,144.0,2
1274,269.0,103.0,146.0,2
1275,281.0,117.0,158.0,2
1276,281.0,127.0,160.0,1
1277,276.0,134.0,167.0,1
1278,275.0,141.0,159.0,1
1279,281.0,145.0,149.0,1
1280,279.0,157.0,149.0,1
1281,263.0,150.0,158.0,1
1282,254.0,148.0,167.0,1
1283,252.0,159.0,154.0,1
1284,227.0,147.0,165.0,1
1285,184.0,155.0,164.0,1
1286,198.0,128.0,173.0,1
1287,195.0,142.0,159.0,1
1288,150.0,120.0,180.0,1
1289,165.0,110.0,170.0,1
1290,137.0,91.0,171.0,1
1291,130.0,79.0,157.0,1
1292,136.0,82.0,137.0,1
1293,128.0,74.0,132.0,1
1294,130.0,66.0,124.0,1
1295,137.0,64.0,115.0,1
1296,142.0,61.0,105.0,1
1297,148.0,59.0,108.0,1
1298,158.0,52.0,100.0,1
1299,166.0,55.0,99.0,1
1300,178.0,54.0,97.0,1
1301,185.0,54.0,101.0,1
1302,193.0,55.0,97.0,1
1303,200.0,58.0,104.0,1
1304,204.0,57.0,107.0,1
1305,211.0,49.0,107.0,1
1306,212.0,54.0,110.0,1
1307,216.0,50.0,117.0,1
1308,227.0,52.0,106.0,1
1309,228.0,57.0,110.0,1
1310,223.0,57.0,109.0,1
1311,232.0,49.0,120.0,1
1312,232.0,48.0,121.0,1
1313,231.0,52.0,125.0,1
1314,229.0,47.0,126.0,1
1315,224.0,42.0,121.0,1
1316,227.0,43.0,126.0,1
1317,217.0,30.0,130.0,1
1318,220.0,37.0,127.0,1
1319,209.0,38.0,135.0,1
1320,198.0,38.0,145.0,1
1321,193.0,45.0,151.0,1
1322,192.0,52.0,150.0,1
1323,187.0,63.0,152.0,1
1324,186.0,64.0,149.0,1
1325,187.0,73.0,142.0,1
1326,191.0,76.0,141.0,1
1327,189.0,77.0,139.0,1
1328,194.0,76.0,138.0,1
1329,191.0,74.0,131.0,1
1330,199.0,77.0,144.0,1
1331,213.0,75.0,138.0,1
1332,211.0,74.0,143.0,1
1333,272.0,64.0,120.0,1
1334,195.0,84.0,136.0,1
1335,209.0,77.0,134.0,1
1336,216.0,72.0,129.0,1
1337,225.0,69.0,116.0,1
1338,229.0,76.0,118.0,1
1339,231.0,79.0,109.0,1
1340,228.0,79.0,106.0,1
1341,233.0,79.0,100.0,1
1342,243.0,83.0,101.0,1
1343,245.0,73.0,100.0,1
1344,245.0,66.0,93.0,1
1345,246.0,57.0,91.0,1
1346,251.0,65.0,88.0,1
1347,253.0,60.0,86.0,1
1348,241.0,60.0,85.0,1
1349,238.0,59.0,77.0,1
1350,235.0,57.0,73.0,1
1351,243.0,63.0,69.0,1
1352,238.0,54.0,69.0,1
1353,238.0,51.0,69.0,1
1354,233.0,48.0,67.0,1
1355,238.0,45.0,63.0,1
1356,244.0,43.0,64.0,1
1357,246.0,40.0,57.0,1
1358,253.0,29.0,56.0,1
1359,253.0,31.0,55.0,1
1360,257.0,33.0,59.0,1
1361,266.0,39.0,52.0,1
1362,267.0,34.0,54.0,1
1363,272.0,39.0,54.0,1
1364,283.0,42.0,48.0,1
1365,291.0,42.0,45.0,1
1366,294.0,36.0,42.0,1
1367,297.0,43.0,46.0,1
1368,295.0,43.0,39.0,1
1369,291.0,48.0,43.0,1
1370,288.0,52.0,37.0,1
1371,285.0,60.0,34.0,1
1372,298.0,53.0,33.0,1
1373,291.0,63.0,31.0,1
1374,288.0,58.0,29.0,1
1375,291.0,64.0,26.0,1
1376,295.0,64.0,22.0,1
1377,289.0,63.0,18.0,1
1378,291.0,59.0,16.0,1
1379,287.0,57.0,18.0,1
1380,287.0,52.0,19.0,1
1381,285.0,45.0,14.0,1
1382,285.0,37.0,18.0,1
1383,288.0,35.0,17.0,1
1384,281.0,29.0,22.0,1
1385,278.0,31.0,23.0,1
1386,286.0,25.0,22.0,1
1387,280.0,28.0,24.0,1
1388,277.0,29.0,22.0,1
1389,274.0,30.0,22.0,1
1390,272.0,30.0,23.0,1
1391,270.0,32.0,21.0,1
1392,271.0,30.0,23.0,1
1393,267.0,31.0,31.0,1
1394,264.0,34.0,29.0,1
1395,270.0,33.0,30.0,1
1396,265.0,29.0,35.0,1
1397,262.0,32.0,37.0,1
1398,259.0,33.0,45.0,1
1399,259.0,33.0,44.0,1
1400,256.0,38.0,53.0,1
1401,255.0,39.0,52.0,1
1402,255.0,42.0,53.0,1
1403,257.0,42.0,54.0,1
1404,255.0,47.0,57.0,1
1405,257.0,47.0,58.0,1
1406,258.0,51.0,57.0,1
1407,257.0,50.0,52.0,1
1408,260.0,51.0,57.0,1
1409,259.0,50.0,57.0,1
1410,258.0,52.0,63.0,1
1411,259.0,51.0,65.0,1
1412,257.0,52.0,65.0,1
1413,256.0,54.0,65.0,1
1414,255.0,53.0,69.0,1
1415,257.0,54.0,70.0,1
1416,256.0,52.0,76.0,1
1417,254.0,49.0,77.0,1
1418,254.0,54.0,73.0,1
1419,252.0,48.0,74.0,1
1420,253.0,50.0,79.0,1
1421,252.0,51.0,73.0,1
1422,251.0,53.0,78.0,1
1423,249.0,49.0,76.0,1
1424,243.0,51.0,75.0,1
1425,246.0,52.0,75.0,1
1426,245.0,48.0,80.0,1
1427,241.0,47.0,76.0,0
1428,244.0,45.0,81.0,0
1429,245.0,44.0,83.0,0
1430,253.0,40.0,89.0,0
1431,245.0,43.0,85.0,0
1432,244.0,44.0,84.0,0
1433,244.0,44.0,82.0,0
1434,245.0,42.0,82.0,0
1435,244.0,40.0,79.0,0
1436,246.0,41.0,78.0,0
1437,250.0,38.0,80.0,0
1438,246.0,38.0,79.0,0
1439,246.0,39.0,75.0,0
1440,250.0,37.0,76.0,0
1441,248.0,38.0,73.0,0
1442,249.0,38.0,75.0,0
1443,249.0,40.0,72.0,0
1444,249.0,38.0,72.0,0
1445,250.0,37.0,71.0,0
1446,251.0,38.0,71.0,0
1447,252.0,36.0,70.0,0
1448,252.0,36.0,70.0,0
1449,250.0,36.0,69.0,0
1450,252.0,35.0,69.0,0
1451,252.0,38.0,69.0,0
1452,249.0,37.0,67.0,0
1453,254.0,35.0,67.0,0
1454,254.0,35.0,64.0,0
1455,254.0,35.0,69.0,0
1456,256.0,39.0,68.0,0
1457,254.0,36.0,68.0,0
1458,254.0,35.0,66.0,0
1459,256.0,36.0,70.0,0
1460,256.0,36.0,68.0,0
1461,258.0,33.0,64.0,0
1462,259.0,28.0,61.0,0
1463,255.0,35.0,66.0,0
1464,256.0,39.0,66.0,0
1465,255.0,37.0,68.0,0
1466,253.0,38.0,64.0,0
1467,254.0,36.0,65.0,0
1468,256.0,34.0,67.0,0
1469,253.0,37.0,65.0,0
1470,253.0,38.0,69.0,0
1471,255.0,36.0,63.0,0
1472,256.0,39.0,67.0,0
1473,253.0,36.0,67.0,0
1474,252.0,35.0,67.0,0
1475,255.0,36.0,67.0,0
1476,254.0,38.0,68.0,0
1477,251.0,41.0,65.0,0
1478,251.0,43.0,67.0,0
1479,252.0,43.0,68.0,0
1480,250.0,43.0,69.0,0
1481,250.0,43.0,69.0,0
1482,252.0,47.0,72.0,0
1483,247.0,48.0,72.0,0
1484,252.0,47.0,74.0,0
1485,252.0,48.0,73.0,0
1486,252.0,46.0,69.0,0
1487,254.0,48.0,68.0,0
1488,253.0,46.0,74.0,0
1489,252.0,49.0,75.0,0
1490,254.0,46.0,70.0,0
1491,249.0,51.0,72.0,0
1492,253.0,50.0,73.0,0
1493,255.0,45.0,72.0,0
1494,253.0,47.0,68.0,0
1495,255.0,47.0,67.0,0
1496,253.0,49.0,72.0,0
1497,251.0,54.0,71.0,0
1498,251.0,48.0,72.0,0
1499,252.0,49.0,73.0,0
1500,250.0,49.0,70.0,0
1501,251.0,48.0,72.0,0
1502,253.0,48.0,71.0,0
1503,254.0,48.0,74.0,0
1504,252.0,50.0,70.0,0
1505,254.0,47.0,70.0,0
1506,251.0,47.0,69.0,0
1507,251.0,46.0,73.0,0
1508,249.0,50.0,72.0,0
1509,251.0,45.0,70.0,0
1510,251.0,49.0,70.0,0
1511,252.0,46.0,70.0,0
1512,251.0,48.0,71.0,0
1513,252.0,44.0,69.0,0
1514,254.0,46.0,71.0,0
1515,253.0,45.0,67.0,0
1516,251.0,48.0,67.0,0
1517,251.0,47.0,58.0,0
1518,253.0,42.0,67.0,0
1519,254.0,45.0,69.0,0
1520,253.0,46.0,70.0,0
1521,254.0,44.0,71.0,0
1522,253.0,45.0,66.0,0
1523,253.0,46.0,69.0,0
1524,252.0,45.0,68.0,0
1525,255.0,41.0,67.0,0
1526,254.0,42.0,68.0,0
1527,253.0,46.0,66.0,0
1528,248.0,39.0,68.0,0
1529,255.0,42.0,68.0,0
1530,256.0,41.0,68.0,0
1531,254.0,45.0,69.0,0
1532,255.0,42.0,69.0,0
1533,256.0,41.0,67.0,0
1534,253.0,41.0,65.0,0
1535,254.0,42.0,71.0,0
1536,253.0,40.0,65.0,0
1537,252.0,42.0,68.0,0
1538,255.0,43.0,66.0,0
1539,257.0,40.0,71.0,0
1540,255.0,41.0,69.0,0
1541,254.0,46.0,65.0,0
1542,251.0,43.0,65.0,0
1543,252.0,45.0,65.0,0
1544,255.0,40.0,71.0,0
1545,252.0,43.0,66.0,0
1546,254.0,42.0,69.0,0
1547,252.0,41.0,68.0,0
1548,255.0,39.0,68.0,0
1549,250.0,41.0,66.0,0
1550,248.0,37.0,72.0,0
1551,250.0,44.0,68.0,0
1552,251.0,44.0,69.0,0
1553,253.0,42.0,72.0,0
1554,255.0,40.0,71.0,0
1555,256.0,43.0,69.0,0
1556,256.0,42.0,73.0,0
1557,256.0,41.0,71.0,0
1558,252.0,40.0,70.0,0
1559,250.0,44.0,66.0,0
1560,250.0,33.0,68.0,0
1561,254.0,41.0,66.0,0
1562,254.0,42.0,68.0,0
1563,254.0,42.0,69.0,0
1564,253.0,45.0,68.0,0
1565,254.0,43.0,71.0,0
1566,254.0,43.0,71.0,0
1567,251.0,44.0,68.0,0
1568,252.0,45.0,69.0,0
1569,256.0,43.0,71.0,0
1570,253.0,45.0,66.0,0
1571,252.0,44.0,71.0,0
1572,256.0,43.0,69.0,0
1573,254.0,45.0,69.0,0
1574,252.0,47.0,64.0,0
1575,254.0,41.0,71.0,0
1576,254.0,43.0,69.0,0
1577,254.0,43.0,66.0,0
1578,255.0,42.0,68.0,0
1579,254.0,42.0,69.0,0
1580,249.0,45.0,68.0,0
1581,252.0,39.0,69.0,0
1582,247.0,39.0,69.0,0
1583,254.0,44.0,70.0,0
1584,254.0,43.0,72.0,0
1585,252.0,42.0,72.0,0
1586,253.0,44.0,73.0,0
1587,253.0,44.0,71.0,0
1588,255.0,39.0,74.0,0
1589,255.0,42.0,68.0,0
1590,249.0,43.0,68.0,0
1591,252.0,43.0,72.0,0
1592,251.0,43.0,68.0,0
1593,249.0,41.0,69.0,0
1594,254.0,42.0,67.0,0
1595,255.0,40.0,70.0,0
1596,251.0,45.0,69.0,0
1597,254.0,44.0,71.0,0
1598,255.0,43.0,69.0,0
1599,253.0,42.0,71.0,0
1600,252.0,42.0,70.0,0
1601,254.0,38.0,68.0,0
1602,253.0,41.0,70.0,0
1603,252.0,44.0,67.0,0
1604,249.0,41.0,76.0,0
1605,255.0,43.0,70.0,0
1606,253.0,42.0,69.0,0
1607,253.0,42.0,69.0,0
1608,253.0,45.0,68.0,0
1609,254.0,43.0,66.0,0
1610,254.0,40.0,72.0,0
1611,254.0,40.0,72.0,0
1612,254.0,42.0,68.0,0
1613,254.0,45.0,74.0,0
1614,255.0,40.0,69.0,0
1615,257.0,41.0,67.0,0
1616,254.0,42.0,69.0,0
1617,253.0,44.0,70.0,0
1618,253.0,42.0,70.0,0
1619,253.0,43.0,72.0,0
1620,255.0,39.0,71.0,0
1621,253.0,40.0,71.0,0
1622,256.0,43.0,70.0,0
1623,254.0,42.0,67.0,0
1624,253.0,39.0,68.0,0
1625,251.0,45.0,72.0,0
1626,252.0,40.0,70.0,0
1627,254.0,42.0,69.0,0
1628,256.0,41.0,66.0,0
1629,252.0,42.0,70.0,0
1630,252.0,44.0,74.0,0
1631,254.0,41.0,69.0,0
1632,251.0,43.0,70.0,0
1633,254.0,41.0,73.0,0
1634,255.0,45.0,73.0,0
1635,252.0,45.0,69.0,0
1636,252.0,40.0,66.0,0
1637,252.0,39.0,68.0,0
1638,254.0,41.0,73.0,0
1639,256.0,41.0,70.0,0
1640,251.0,45.0,69.0,0
1641,251.0,43.0,68.0,0
1642,253.0,40.0,72.0,0
1643,253.0,44.0,70.0,0
1644,254.0,40.0,69.0,0
1645,254.0,42.0,72.0,0
1646,255.0,38.0,70.0,0
1647,251.0,41.0,68.0,0
1648,251.0,45.0,72.0,0
1649,251.0,40.0,70.0,0
1650,250.0,41.0,70.0,0
1651,252.0,42.0,72.0,0
1652,252.0,43.0,73.0,0
1653,251.0,44.0,72.0,0
1654,252.0,42.0,70.0,0
1655,253.0,41.0,71.0,0
1656,253.0,45.0,70.0,0
1657,254.0,41.0,77.0,0
1658,251.0,40.0,67.0,0
1659,248.0,42.0,73.0,0
1660,251.0,46.0,73.0,0
1661,251.0,42.0,69.0,0
1662,251.0,41.0,72.0,0
1663,251.0,41.0,68.0,0
1664,255.0,40.0,72.0,0
1665,255.0,40.0,73.0,0
1666,253.0,39.0,69.0,0
1667,252.0,42.0,68.0,0
1668,256.0,44.0,75.0,0
1669,252.0,51.0,79.0,0
1670,252.0,43.0,66.0,0
1671,255.0,39.0,70.0,0
1672,254.0,42.0,68.0,0
1673,253.0,43.0,70.0,0
1674,254.0,43.0,68.0,0
1675,252.0,42.0,70.0,0
1676,253.0,42.0,67.0,0
1677,253.0,41.0,65.0,0
1678,253.0,44.0,69.0,0
1679,254.0,42.0,71.0,0
1680,253.0,43.0,69.0,0
1681,251.0,46.0,64.0,0
1682,253.0,42.0,69.0,0
1683,255.0,44.0,71.0,0
1684,253.0,42.0,70.0,0
1685,252.0,43.0,72.0,0
1686,252.0,43.0,69.0,0
1687,254.0,46.0,69.0,0
1688,254.0,43.0,74.0,0
1689,250.0,39.0,67.0,0
1690,255.0,39.0,67.0,0
1691,252.0,42.0,70.0,0
1692,253.0,41.0,72.0,0
1693,250.0,42.0,70.0,0
1694,252.0,41.0,70.0,0
1695,255.0,40.0,73.0,0
1696,254.0,41.0,69.0,0
1697,252.0,40.0,69.0,0
1698,255.0,43.0,76.0,0
1699,253.0,41.0,69.0,0
1700,253.0,41.0,70.0,0
1701,256.0,39.0,68.0,0
1702,256.0,40.0,65.0,0
1703,253.0,42.0,71.0,0
1704,254.0,43.0,70.0,0
1705,255.0,44.0,70.0,0
1706,254.0,44.0,66.0,0
1707,254.0,44.0,71.0,0
1708,252.0,45.0,67.0,0
1709,255.0,42.0,67.0,0
1710,249.0,46.0,68.0,0
1711,253.0,44.0,71.0,0
1712,255.0,43.0,73.0,0
1713,257.0,49.0,70.0,0
1714,252.0,41.0,69.0,0
1715,253.0,45.0,72.0,0
1716,253.0,43.0,69.0,0
1717,254.0,42.0,70.0,0
1718,252.0,42.0,68.0,0
1719,254.0,43.0,72.0,0
1720,251.0,44.0,69.0,0
1721,253.0,44.0,73.0,0
1722,251.0,44.0,70.0,0
1723,250.0,42.0,70.0,0
1724,257.0,38.0,74.0,0
1725,253.0,47.0,73.0,0
1726,252.0,43.0,67.0,0
1727,252.0,43.0,69.0,0
1728,251.0,45.0,70.0,0
1729,250.0,46.0,71.0,0
1730,251.0,45.0,69.0,0
1731,251.0,48.0,68.0,0
1732,254.0,40.0,70.0,0
1733,251.0,46.0,74.0,0
1734,251.0,45.0,71.0,0
1735,252.0,41.0,64.0,0
1736,253.0,44.0,68.0,0
1737,252.0,40.0,66.0,0
1738,254.0,40.0,71.0,0
1739,253.0,44.0,67.0,0
1740,250.0,42.0,69.0,0
1741,252.0,44.0,71.0,0
1742,252.0,47.0,74.0,0
1743,253.0,41.0,74.0,0
1744,251.0,44.0,74.0,0
1745,253.0,44.0,74.0,0
1746,251.0,43.0,71.0,0
1747,255.0,42.0,74.0,0
1748,252.0,44.0,71.0,0
1749,252.0,45.0,70.0,0
1750,252.0,43.0,68.0,0
1751,254.0,43.0,70.0,0
1752,251.0,45.0,70.0,0
1753,252.0,44.0,70.0,0
1754,255.0,43.0,75.0,0
1755,253.0,48.0,71.0,0
1756,252.0,45.0,77.0,0
1757,253.0,55.0,74.0,0
1758,254.0,45.0,70.0,0
1759,252.0,45.0,70.0,0
1760,250.0,45.0,72.0,0
1761,255.0,47.0,71.0,0
1762,252.0,45.0,70.0,0
1763,253.0,47.0,71.0,0
1764,251.0,45.0,71.0,0
1765,253.0,45.0,71.0,0
1766,250.0,48.0,76.0,0
1767,251.0,45.0,71.0,0
1768,253.0,44.0,68.0,0
1769,253.0,47.0,75.0,0
1770,251.0,47.0,67.0,0
1771,252.0,49.0,71.0,0
1772,251.0,44.0,72.0,0
1773,254.0,44.0,70.0,0
1774,253.0,42.0,68.0,0
1775,250.0,47.0,67.0,0
1776,251.0,46.0,70.0,0
1777,251.0,41.0,69.0,0
1778,246.0,45.0,65.0,0
1779,255.0,44.0,70.0,0
1780,253.0,45.0,69.0,0
1781,251.0,44.0,69.0,0
1782,253.0,43.0,69.0,0
1783,251.0,45.0,71.0,0
1784,250.0,47.0,74.0,0
1785,253.0,41.0,73.0,0
1786,249.0,43.0,69.0,0
1787,251.0,41.0,71.0,0
1788,251.0,45.0,70.0,0
1789,245.0,46.0,70.0,0
1790,253.0,45.0,71.0,0
1791,253.0,42.0,70.0,0
1792,253.0,44.0,73.0,0
1793,251.0,44.0,69.0,0
1794,252.0,40.0,69.0,0
1795,251.0,44.0,72.0,0
1796,252.0,44.0,77.0,0
1797,252.0,42.0,66.0,0
1798,254.0,40.0,71.0,0
1799,248.0,42.0,70.0,0
1800,251.0,39.0,74.0,0
1801,252.0,38.0,73.0,0
1802,251.0,40.0,74.0,0
1803,254.0,40.0,75.0,0
1804,250.0,42.0,72.0,0
1805,254.0,36.0,68.0,0
1806,252.0,40.0,67.0,0
1807,251.0,39.0,70.0,0
1808,253.0,41.0,67.0,0
1809,252.0,39.0,70.0,0
1810,251.0,38.0,66.0,0
1811,247.0,34.0,73.0,0
1812,252.0,41.0,71.0,0
1813,252.0,42.0,72.0,0
1814,251.0,41.0,70.0,0
1815,251.0,42.0,71.0,0
1816,255.0,41.0,70.0,0
1817,251.0,42.0,72.0,0
1818,251.0,40.0,72.0,0
1819,252.0,41.0,70.0,0
1820,251.0,41.0,73.0,0
1821,254.0,40.0,72.0,0
1822,251.0,37.0,71.0,0
1823,251.0,41.0,69.0,0
1824,254.0,39.0,71.0,0
1825,252.0,38.0,76.0,0
1826,251.0,38.0,71.0,0
1827,251.0,43.0,71.0,0
1828,249.0,42.0,71.0,0
1829,253.0,39.0,74.0,0
1830,253.0,41.0,78.0,0
1831,249.0,43.0,71.0,0
1832,250.0,45.0,73.0,0
1833,254.0,46.0,71.0,0
1834,250.0,40.0,69.0,0
1835,251.0,41.0,72.0,0
1836,252.0,40.0,71.0,0
1837,252.0,38.0,70.0,0
1838,252.0,40.0,71.0,0
1839,252.0,40.0,71.0,0
1840,246.0,41.0,70.0,0
1841,250.0,41.0,74.0,0
1842,252.0,40.0,72.0,0
1843,253.0,41.0,72.0,0
1844,249.0,37.0,73.0,0
1845,253.0,41.0,74.0,0
1846,254.0,41.0,69.0,0
1847,251.0,41.0,75.0,0
1848,251.0,39.0,70.0,0
1849,252.0,40.0,71.0,0
1850,254.0,40.0,69.0,0
1851,252.0,40.0,72.0,0
1852,254.0,40.0,69.0,0
1853,253.0,41.0,69.0,0
1854,252.0,40.0,71.0,0
1855,252.0,45.0,71.0,0
1856,251.0,45.0,72.0,0
1857,251.0,45.0,73.0,0
1858,253.0,41.0,75.0,0
1859,253.0,38.0,67.0,0
1860,252.0,41.0,76.0,0
1861,249.0,42.0,69.0,0
1862,255.0,41.0,67.0,0
1863,252.0,41.0,72.0,0
1864,252.0,41.0,72.0,0
1865,252.0,40.0,69.0,0
1866,255.0,45.0,79.0,0
1867,254.0,40.0,72.0,0
1868,251.0,42.0,73.0,0
1869,253.0,41.0,71.0,0
1870,251.0,42.0,74.0,0
1871,252.0,40.0,72.0,0
1872,252.0,44.0,74.0,0
1873,253.0,45.0,68.0,0
1874,254.0,40.0,66.0,0
1875,254.0,44.0,72.0,0
1876,254.0,44.0,67.0,0
1877,253.0,45.0,69.0,0
1878,250.0,46.0,72.0,0
1879,252.0,48.0,71.0,0
1880,251.0,44.0,75.0,0
1881,255.0,41.0,70.0,0
1882,253.0,46.0,70.0,0
1883,253.0,43.0,73.0,0
1884,250.0,44.0,73.0,0
1885,252.0,44.0,73.0,0
1886,250.0,47.0,73.0,0
1887,254.0,44.0,73.0,0
1888,254.0,43.0,71.0,0
1889,252.0,44.0,75.0,0
1890,251.0,42.0,71.0,0
1891,253.0,42.0,72.0,0
1892,253.0,42.0,70.0,0
1893,251.0,44.0,74.0,0
1894,252.0,42.0,75.0,0
1895,250.0,41.0,70.0,0
1896,249.0,43.0,71.0,0
1897,252.0,41.0,73.0,0
1898,251.0,42.0,62.0,0
1899,252.0,42.0,73.0,0
1900,250.0,42.0,71.0,0
1901,250.0,43.0,72.0,0
1902,253.0,42.0,70.0,0
1903,251.0,43.0,67.0,0
1904,254.0,41.0,70.0,0
1905,251.0,41.0,70.0,0
1906,254.0,42.0,70.0,0
1907,251.0,42.0,70.0,0
1908,251.0,48.0,78.0,0
1909,243.0,39.0,67.0,0
1910,250.0,45.0,74.0,0
1911,253.0,39.0,74.0,0
1912,251.0,39.0,74.0,0
1913,253.0,39.0,70.0,0
1914,252.0,43.0,69.0,0
1915,252.0,40.0,72.0,0
1916,251.0,40.0,69.0,0
1917,253.0,41.0,71.0,0
1918,249.0,43.0,77.0,0
1919,252.0,42.0,71.0,0
1920,252.0,39.0,75.0,0
1921,253.0,41.0,71.0,0
1922,253.0,42.0,74.0,0
1923,251.0,42.0,70.0,0
1924,252.0,44.0,73.0,0
1925,250.0,43.0,75.0,0
1926,250.0,45.0,76.0,0
1927,250.0,44.0,72.0,0
1928,251.0,44.0,69.0,0
1929,252.0,42.0,75.0,0
1930,249.0,45.0,71.0,0
1931,252.0,42.0,78.0,0
1932,252.0,46.0,71.0,0
1933,251.0,45.0,73.0,0
1934,252.0,44.0,70.0,0
1935,252.0,43.0,73.0,0
1936,249.0,47.0,70.0,0
1937,253.0,42.0,72.0,0
1938,248.0,46.0,73.0,0
1939,252.0,44.0,72.0,0
1940,253.0,45.0,76.0,0
1941,250.0,46.0,76.0,0
1942,247.0,46.0,70.0,0
1943,249.0,44.0,70.0,0
1944,252.0,46.0,71.0,0
1945,252.0,39.0,73.0,0
1946,251.0,40.0,72.0,0
1947,250.0,45.0,72.0,0
1948,253.0,41.0,78.0,0
1949,247.0,43.0,74.0,0
1950,253.0,46.0,78.0,0
1951,253.0,43.0,73.0,0
1952,251.0,44.0,73.0,0
1953,252.0,44.0,79.0,0
1954,252.0,43.0,73.0,0
1955,249.0,44.0,72.0,0
1956,253.0,40.0,74.0,0
1957,255.0,41.0,74.0,0
1958,253.0,46.0,71.0,0
1959,251.0,42.0,69.0,0
1960,249.0,45.0,71.0,0
1961,252.0,44.0,73.0,0
1962,251.0,41.0,73.0,0
1963,250.0,45.0,75.0,0
1964,255.0,46.0,78.0,0
1965,252.0,41.0,70.0,0
1966,252.0,42.0,74.0,0
1967,251.0,43.0,73.0,0
1968,252.0,39.0,73.0,0
1969,249.0,43.0,71.0,0
1970,251.0,43.0,74.0,0
1971,250.0,46.0,71.0,0
1972,250.0,44.0,70.0,0
1973,252.0,38.0,69.0,0
1974,249.0,39.0,70.0,0
1975,252.0,42.0,72.0,0
1976,252.0,43.0,72.0,0
1977,252.0,44.0,71.0,0
1978,253.0,44.0,70.0,0
1979,253.0,43.0,74.0,0
1980,250.0,45.0,75.0,0
1981,250.0,45.0,75.0,0
1982,251.0,42.0,71.0,0
1983,248.0,45.0,72.0,0
1984,249.0,46.0,76.0,0
1985,251.0,41.0,77.0,0
1986,250.0,45.0,73.0,0
1987,250.0,44.0,73.0,0
1988,251.0,44.0,70.0,0
1989,253.0,42.0,71.0,0
1990,251.0,42.0,71.0,0
1991,251.0,44.0,75.0,0
1992,249.0,42.0,71.0,0
1993,247.0,43.0,73.0,0
1994,251.0,43.0,72.0,0
1995,251.0,44.0,72.0,0
1996,249.0,43.0,75.0,0
1997,250.0,45.0,72.0,0
1998,251.0,43.0,75.0,0
1999,248.0,44.0,75.0,0
2000,250.0,45.0,77.0,0
2001,251.0,44.0,70.0,0
2002,250.0,43.0,74.0,0
2003,255.0,42.0,76.0,0
2004,248.0,49.0,75.0,0
2005,255.0,45.0,74.0,0
2006,249.0,45.0,71.0,0
2007,255.0,39.0,74.0,0
2008,253.0,42.0,73.0,0
2009,250.0,43.0,71.0,0
2010,253.0,42.0,74.0,0
2011,250.0,43.0,71.0,0
2012,249.0,44.0,74.0,0
2013,250.0,44.0,72.0,0
2014,254.0,41.0,72.0,0
2015,252.0,43.0,72.0,0
2016,250.0,42.0,73.0,0
2017,254.0,40.0,75.0,0
2018,251.0,37.0,78.0,0
2019,253.0,44.0,71.0,0
2020,249.0,46.0,72.0,0
2021,251.0,43.0,74.0,0
2022,249.0,46.0,74.0,0
2023,252.0,43.0,73.0,0
2024,252.0,44.0,76.0,0
2025,254.0,44.0,72.0,0
2026,254.0,41.0,71.0,0
2027,251.0,41.0,71.0,0
2028,249.0,41.0,71.0,0
2029,252.0,42.0,72.0,0
2030,250.0,45.0,73.0,0
2031,252.0,45.0,72.0,0
2032,252.0,43.0,72.0,0
2033,251.0,45.0,68.0,0
2034,252.0,43.0,74.0,0
2035,253.0,42.0,74.0,0
2036,251.0,42.0,72.0,0
2037,250.0,41.0,73.0,0
2038,251.0,47.0,72.0,0
2039,253.0,42.0,74.0,0
2040,252.0,48.0,77.0,0
2041,251.0,46.0,74.0,0
2042,250.0,43.0,72.0,0
2043,251.0,43.0,75.0,0
2044,251.0,45.0,77.0,0
2045,249.0,45.0,75.0,0
2046,251.0,45.0,74.0,0
2047,253.0,42.0,75.0,0
2048,252.0,43.0,74.0,0
2049,251.0,45.0,74.0,0
2050,252.0,46.0,75.0,0
2051,254.0,44.0,72.0,0
2052,254.0,44.0,73.0,0
2053,250.0,43.0,72.0,0
2054,249.0,43.0,76.0,0
2055,251.0,46.0,74.0,0
2056,250.0,44.0,76.0,0
2057,254.0,39.0,78.0,0
2058,246.0,45.0,68.0,0
2059,247.0,46.0,73.0,0
2060,250.0,42.0,75.0,0
2061,250.0,43.0,72.0,0
2062,249.0,40.0,71.0,0
2063,250.0,43.0,78.0,0
2064,252.0,39.0,73.0,0
2065,251.0,44.0,74.0,0
2066,251.0,46.0,75.0,0
2067,253.0,43.0,76.0,0
2068,250.0,43.0,75.0,0
2069,251.0,47.0,74.0,0
2070,250.0,44.0,73.0,0
2071,254.0,42.0,73.0,0
2072,244.0,43.0,68.0,0
2073,252.0,44.0,76.0,0
2074,251.0,40.0,74.0,0
2075,249.0,44.0,74.0,0
2076,251.0,42.0,74.0,0
2077,247.0,44.0,68.0,0
2078,250.0,40.0,70.0,0
2079,251.0,45.0,76.0,0
2080,248.0,44.0,74.0,0
2081,250.0,44.0,74.0,0
2082,250.0,43.0,76.0,0
2083,250.0,38.0,84.0,0
2084,249.0,42.0,75.0,0
2085,251.0,42.0,78.0,0
2086,249.0,42.0,74.0,0
2087,252.0,41.0,75.0,0
2088,251.0,46.0,74.0,0
2089,250.0,46.0,73.0,0
2090,252.0,40.0,74.0,0
2091,251.0,41.0,71.0,0
2092,248.0,41.0,75.0,0
2093,252.0,41.0,75.0,0
2094,248.0,44.0,71.0,0
2095,249.0,41.0,73.0,0
2096,251.0,39.0,75.0,0
2097,252.0,41.0,76.0,0
2098,251.0,43.0,69.0,0
2099,251.0,41.0,76.0,0
2100,249.0,42.0,72.0,0
2101,251.0,45.0,76.0,0
2102,251.0,44.0,76.0,0
2103,248.0,46.0,74.0,0
2104,253.0,42.0,72.0,0
2105,252.0,41.0,76.0,0
2106,253.0,46.0,75.0,0
2107,250.0,45.0,75.0,0
2108,249.0,44.0,74.0,0
2109,251.0,42.0,73.0,0
2110,248.0,42.0,73.0,0
2111,251.0,43.0,73.0,0
2112,252.0,43.0,73.0,0
2113,248.0,39.0,68.0,0
2114,253.0,42.0,76.0,0
2115,251.0,43.0,74.0,0
2116,249.0,41.0,74.0,0
2117,250.0,44.0,72.0,0
2118,251.0,41.0,74.0,0
2119,250.0,40.0,75.0,0
2120,250.0,42.0,75.0,0
2121,252.0,43.0,74.0,0
2122,252.0,43.0,73.0,0
2123,254.0,40.0,77.0,0
2124,248.0,42.0,70.0,0
2125,252.0,40.0,77.0,0
2126,249.0,43.0,70.0,0
2127,251.0,40.0,87.0,0
2128,253.0,41.0,73.0,0
2129,254.0,41.0,73.0,0
2130,250.0,43.0,78.0,0
2131,252.0,42.0,75.0,0
2132,252.0,40.0,73.0,0
2133,250.0,42.0,70.0,0
2134,250.0,43.0,76.0,0
2135,250.0,39.0,74.0,0
2136,248.0,44.0,74.0,0
2137,248.0,45.0,72.0,0
2138,255.0,45.0,81.0,0
2139,249.0,43.0,73.0,0
2140,250.0,40.0,74.0,0
2141,250.0,42.0,75.0,0
2142,251.0,42.0,76.0,0
2143,251.0,41.0,71.0,0
2144,252.0,40.0,72.0,0
2145,250.0,40.0,75.0,0
2146,250.0,38.0,70.0,0
2147,250.0,41.0,73.0,0
2148,249.0,44.0,72.0,0
2149,253.0,39.0,81.0,0
2150,249.0,42.0,73.0,0
2151,250.0,42.0,76.0,0
2152,251.0,42.0,74.0,0
2153,252.0,44.0,75.0,0
2154,251.0,42.0,74.0,0
2155,249.0,43.0,73.0,0
2156,251.0,43.0,72.0,0
2157,251.0,41.0,77.0,0
2158,251.0,42.0,72.0,0
2159,251.0,39.0,73.0,0
2160,256.0,44.0,71.0,0
2161,250.0,41.0,72.0,0
2162,251.0,43.0,74.0,0
2163,249.0,43.0,75.0,0
2164,248.0,41.0,73.0,0
2165,253.0,41.0,70.0,0
2166,249.0,43.0,72.0,0
2167,248.0,42.0,72.0,0
2168,250.0,42.0,72.0,0
2169,251.0,41.0,73.0,0
2170,249.0,40.0,75.0,0
2171,248.0,41.0,73.0,0
2172,251.0,42.0,73.0,0
2173,248.0,42.0,70.0,0
2174,254.0,40.0,73.0,0
2175,252.0,40.0,76.0,0
2176,249.0,41.0,75.0,0
2177,250.0,40.0,73.0,0
2178,253.0,40.0,71.0,0
2179,251.0,40.0,71.0,0
2180,253.0,39.0,74.0,0
2181,253.0,33.0,70.0,0
2182,252.0,40.0,74.0,0
2183,252.0,42.0,74.0,0
2184,253.0,39.0,77.0,0
2185,253.0,40.0,71.0,0
2186,250.0,42.0,74.0,0
2187,252.0,42.0,74.0,0
2188,245.0,42.0,71.0,0
2189,252.0,41.0,69.0,0
2190,248.0,41.0,71.0,0
2191,251.0,43.0,75.0,0
2192,251.0,37.0,73.0,0
2193,253.0,42.0,72.0,0
2194,248.0,42.0,75.0,0
2195,249.0,41.0,75.0,0
2196,249.0,41.0,73.0,0
2197,250.0,43.0,72.0,0
2198,250.0,41.0,74.0,0
2199,250.0,43.0,69.0,0
2200,251.0,39.0,74.0,0
2201,250.0,44.0,76.0,0
2202,249.0,42.0,69.0,0
2203,250.0,46.0,76.0,0
2204,250.0,43.0,72.0,0
2205,250.0,38.0,73.0,0
2206,249.0,41.0,74.0,0
2207,253.0,41.0,71.0,0
2208,248.0,43.0,74.0,0
2209,253.0,43.0,71.0,0
2210,253.0,38.0,76.0,0
2211,254.0,40.0,72.0,0
2212,249.0,42.0,71.0,0
2213,251.0,43.0,72.0,0
2214,251.0,45.0,68.0,0
2215,252.0,41.0,71.0,0
2216,254.0,39.0,72.0,0
2217,250.0,44.0,71.0,0
2218,250.0,44.0,73.0,0
2219,251.0,40.0,76.0,0
2220,251.0,42.0,73.0,0
2221,252.0,42.0,75.0,0
2222,252.0,39.0,72.0,0
2223,249.0,42.0,78.0,0
2224,251.0,48.0,79.0,0
2225,245.0,42.0,72.0,0
2226,252.0,43.0,72.0,0
2227,251.0,43.0,74.0,0
2228,248.0,42.0,73.0,0
2229,252.0,42.0,74.0,0
2230,250.0,43.0,72.0,0
2231,251.0,42.0,76.0,0
2232,247.0,40.0,79.0,0
2233,246.0,44.0,77.0,0
2234,247.0,41.0,77.0,0
2235,253.0,35.0,79.0,0
2236,251.0,42.0,74.0,0
2237,251.0,41.0,74.0,0
2238,252.0,42.0,73.0,0
2239,252.0,42.0,73.0,0
2240,254.0,39.0,72.0,0
2241,253.0,38.0,72.0,0
2242,254.0,38.0,76.0,0
2243,250.0,39.0,69.0,0
2244,251.0,42.0,69.0,0
2245,254.0,39.0,67.0,0
2246,255.0,41.0,71.0,0
2247,253.0,46.0,67.0,0
2248,254.0,44.0,71.0,0
2249,253.0,43.0,75.0,0
2250,251.0,44.0,71.0,0
2251,250.0,45.0,72.0,0
2252,249.0,45.0,71.0,0
2253,253.0,43.0,69.0,0
2254,250.0,42.0,74.0,0
2255,251.0,42.0,74.0,0
2256,251.0,44.0,76.0,0
2257,249.0,41.0,75.0,0
2258,248.0,44.0,76.0,0
2259,252.0,42.0,74.0,0
2260,250.0,44.0,74.0,0
2261,250.0,40.0,75.0,0
2262,251.0,43.0,75.0,0
2263,249.0,41.0,76.0,0
2264,249.0,44.0,74.0,0
2265,250.0,43.0,77.0,0
2266,251.0,39.0,77.0,0
2267,250.0,41.0,75.0,0
2268,249.0,40.0,71.0,0
2269,249.0,44.0,76.0,0
2270,250.0,40.0,78.0,0
2271,251.0,40.0,75.0,0
2272,251.0,39.0,77.0,0
2273,253.0,40.0,75.0,0
2274,249.0,39.0,76.0,0
2275,251.0,41.0,74.0,0
2276,247.0,45.0,74.0,0
2277,250.0,39.0,73.0,0
2278,251.0,38.0,76.0,0
2279,247.0,44.0,82.0,0
2280,249.0,39.0,75.0,0
2281,250.0,41.0,73.0,0
2282,248.0,40.0,78.0,0
2283,249.0,39.0,77.0,0
2284,251.0,40.0,69.0,0
2285,250.0,40.0,76.0,0
2286,246.0,39.0,71.0,0
2287,251.0,37.0,72.0,0
2288,251.0,41.0,77.0,0
2289,251.0,39.0,72.0,0
2290,246.0,38.0,78.0,0
2291,251.0,43.0,73.0,0
2292,250.0,42.0,75.0,0
2293,250.0,42.0,77.0,0
2294,247.0,41.0,75.0,0
2295,251.0,43.0,74.0,0
2296,251.0,42.0,73.0,0
2297,252.0,40.0,75.0,0
2298,251.0,42.0,76.0,0
2299,251.0,41.0,71.0,0
2300,250.0,43.0,78.0,0
2301,252.0,39.0,77.0,0
2302,250.0,40.0,73.0,0
2303,252.0,39.0,76.0,0
2304,250.0,44.0,75.0,0
2305,250.0,41.0,72.0,0
2306,250.0,43.0,70.0,0
2307,250.0,44.0,75.0,0
2308,249.0,43.0,73.0,0
2309,251.0,39.0,75.0,0
2310,250.0,42.0,80.0,0
2311,250.0,42.0,72.0,0
2312,255.0,38.0,74.0,0
2313,252.0,42.0,73.0,0
2314,252.0,42.0,70.0,0
2315,250.0,44.0,72.0,0
2316,249.0,46.0,72.0,0
2317,252.0,44.0,74.0,0
2318,250.0,43.0,72.0,0
2319,251.0,46.0,74.0,0
2320,253.0,45.0,73.0,0
2321,252.0,44.0,80.0,0
2322,250.0,46.0,72.0,0
2323,251.0,46.0,77.0,0
2324,253.0,46.0,72.0,0
2325,252.0,46.0,76.0,0
2326,251.0,47.0,73.0,0
2327,251.0,45.0,72.0,0
2328,250.0,46.0,74.0,0
2329,251.0,43.0,72.0,0
2330,250.0,45.0,74.0,0
2331,247.0,45.0,72.0,0
2332,249.0,43.0,75.0,0
2333,248.0,45.0,74.0,0
2334,255.0,40.0,77.0,0
2335,251.0,44.0,71.0,0
2336,251.0,44.0,77.0,0
2337,251.0,42.0,77.0,0
2338,253.0,44.0,74.0,0
2339,249.0,44.0,74.0,0
2340,251.0,43.0,73.0,0
2341,250.0,41.0,74.0,0
2342,252.0,41.0,72.0,0
2343,250.0,45.0,73.0,0
2344,251.0,43.0,72.0,0
2345,250.0,43.0,75.0,0
2346,252.0,43.0,78.0,0
2347,250.0,40.0,76.0,0
2348,249.0,41.0,73.0,0
2349,249.0,44.0,72.0,0
2350,250.0,43.0,78.0,0
2351,249.0,42.0,74.0,0
2352,251.0,46.0,74.0,0
2353,249.0,45.0,78.0,0
2354,247.0,44.0,70.0,0
2355,250.0,44.0,78.0,0
2356,249.0,43.0,78.0,0
2357,249.0,40.0,74.0,0
2358,249.0,45.0,72.0,0
2359,251.0,39.0,75.0,0
2360,250.0,45.0,77.0,0
2361,250.0,44.0,74.0,0
2362,250.0,43.0,76.0,0
2363,248.0,43.0,74.0,0
2364,251.0,42.0,72.0,0
2365,248.0,45.0,74.0,0
2366,246.0,45.0,78.0,0
2367,246.0,43.0,72.0,0
2368,248.0,44.0,75.0,0
2369,248.0,46.0,77.0,0
2370,250.0,41.0,74.0,0
2371,250.0,41.0,75.0,0
2372,253.0,40.0,72.0,0
2373,247.0,43.0,75.0,0
2374,249.0,44.0,71.0,0
2375,246.0,45.0,73.0,0
2376,253.0,42.0,73.0,0
2377,248.0,45.0,75.0,0
2378,251.0,40.0,72.0,0
2379,250.0,44.0,72.0,0
2380,248.0,46.0,76.0,0
2381,249.0,44.0,76.0,0
2382,252.0,43.0,77.0,0
2383,250.0,43.0,75.0,0
2384,251.0,41.0,75.0,0
2385,252.0,43.0,77.0,0
2386,249.0,43.0,71.0,0
2387,250.0,46.0,76.0,0
2388,246.0,39.0,72.0,0
2389,250.0,44.0,72.0,0
2390,249.0,44.0,78.0,0
2391,249.0,46.0,75.0,0
2392,249.0,43.0,72.0,0
2393,249.0,42.0,73.0,0
2394,251.0,44.0,74.0,0
2395,248.0,45.0,76.0,0
2396,251.0,47.0,78.0,0
2397,248.0,45.0,73.0,0
2398,249.0,45.0,76.0,0
2399,252.0,47.0,74.0,0
2400,250.0,43.0,72.0,0
2401,248.0,47.0,75.0,0
2402,250.0,44.0,75.0,0
2403,249.0,44.0,77.0,0
2404,253.0,45.0,74.0,0
2405,251.0,46.0,75.0,0
2406,248.0,43.0,74.0,0
2407,251.0,42.0,74.0,0
2408,249.0,46.0,74.0,0
2409,250.0,42.0,78.0,0
2410,252.0,39.0,68.0,0
2411,253.0,44.0,72.0,0
2412,249.0,47.0,72.0,0
2413,250.0,45.0,75.0,0
2414,249.0,48.0,75.0,0
2415,249.0,43.0,76.0,0
2416,247.0,48.0,72.0,0
2417,252.0,46.0,75.0,0
2418,253.0,42.0,77.0,0
2419,251.0,46.0,77.0,0
2420,249.0,44.0,77.0,0
2421,254.0,41.0,68.0,0
2422,249.0,42.0,69.0,0
2423,250.0,45.0,79.0,0
2424,248.0,47.0,72.0,0
2425,251.0,42.0,77.0,0
2426,248.0,43.0,78.0,0
2427,249.0,45.0,74.0,0
2428,248.0,47.0,74.0,0
2429,250.0,44.0,75.0,0
2430,248.0,45.0,72.0,0
2431,253.0,45.0,79.0,0
2432,253.0,45.0,80.0,0
2433,248.0,45.0,75.0,0
2434,251.0,42.0,77.0,0
2435,248.0,47.0,72.0,0
2436,250.0,48.0,78.0,0
2437,249.0,43.0,74.0,0
2438,250.0,45.0,78.0,0
2439,249.0,45.0,78.0,0
2440,253.0,43.0,80.0,0
2441,251.0,45.0,77.0,0
2442,250.0,42.0,78.0,0
2443,253.0,41.0,74.0,0
2444,249.0,42.0,77.0,0
2445,251.0,38.0,75.0,0
2446,249.0,43.0,76.0,0
2447,248.0,42.0,76.0,0
2448,248.0,44.0,76.0,0
2449,249.0,42.0,74.0,0
2450,251.0,41.0,76.0,0
2451,248.0,44.0,70.0,0
2452,251.0,40.0,73.0,0
2453,249.0,42.0,72.0,0
2454,251.0,33.0,67.0,0
2455,251.0,41.0,70.0,0
2456,246.0,43.0,74.0,0
2457,251.0,41.0,74.0,0
2458,250.0,44.0,76.0,0
2459,251.0,42.0,72.0,0
2460,249.0,42.0,70.0,0
2461,249.0,43.0,74.0,0
2462,249.0,41.0,75.0,0
2463,252.0,48.0,75.0,0
2464,245.0,43.0,73.0,0
2465,250.0,47.0,74.0,0
2466,250.0,42.0,77.0,0
2467,253.0,42.0,75.0,0
2468,248.0,46.0,80.0,0
2469,249.0,45.0,73.0,0
2470,250.0,42.0,77.0,0
2471,247.0,42.0,79.0,0
2472,250.0,43.0,80.0,0
2473,246.0,43.0,75.0,0
2474,249.0,42.0,76.0,0
2475,250.0,49.0,73.0,0
2476,253.0,43.0,82.0,0
2477,248.0,42.0,80.0,0
2478,250.0,41.0,75.0,0
2479,249.0,41.0,77.0,0
2480,251.0,42.0,77.0,0
2481,248.0,43.0,75.0,0
2482,248.0,44.0,76.0,0
2483,250.0,41.0,78.0,0
2484,251.0,45.0,77.0,0
2485,250.0,41.0,80.0,0
2486,249.0,42.0,80.0,0
2487,252.0,39.0,75.0,0
2488,251.0,41.0,76.0,0
2489,252.0,41.0,75.0,0
2490,250.0,43.0,75.0,0
2491,251.0,41.0,75.0,0
2492,252.0,40.0,73.0,0
2493,250.0,42.0,72.0,0
2494,248.0,42.0,73.0,0
2495,253.0,43.0,76.0,0
2496,248.0,43.0,71.0,0
2497,250.0,40.0,79.0,0
2498,251.0,40.0,74.0,0
2499,253.0,37.0,71.0,0
2500,248.0,45.0,72.0,0
2501,252.0,44.0,74.0,0
2502,248.0,43.0,74.0,0
2503,252.0,43.0,69.0,0
2504,255.0,41.0,71.0,0
2505,249.0,40.0,77.0,0
2506,250.0,45.0,71.0,0
2507,247.0,40.0,74.0,0
2508,242.0,43.0,75.0,0
2509,249.0,42.0,77.0,0
2510,250.0,44.0,74.0,0
2511,249.0,44.0,76.0,0
2512,249.0,43.0,77.0,0
2513,250.0,43.0,76.0,0
2514,250.0,42.0,77.0,0
2515,253.0,44.0,77.0,0
2516,249.0,44.0,79.0,0
2517,247.0,41.0,75.0,0
2518,250.0,42.0,78.0,0
2519,251.0,35.0,73.0,0
2520,250.0,45.0,78.0,0
2521,249.0,43.0,77.0,0
2522,249.0,44.0,75.0,0
2523,251.0,42.0,76.0,0
2524,247.0,46.0,79.0,0
2525,251.0,40.0,74.0,0
2526,250.0,43.0,76.0,0
2527,251.0,42.0,75.0,0
2528,250.0,40.0,75.0,0
2529,251.0,40.0,75.0,0
2530,248.0,45.0,73.0,0
2531,249.0,38.0,74.0,0
2532,249.0,40.0,74.0,0
2533,251.0,40.0,72.0,0
2534,250.0,41.0,75.0,0
2535,250.0,40.0,73.0,0
2536,253.0,38.0,73.0,0
2537,251.0,40.0,71.0,0
2538,253.0,42.0,72.0,0
2539,254.0,38.0,78.0,0
2540,248.0,33.0,71.0,0
2541,248.0,40.0,70.0,0
2542,253.0,40.0,74.0,0
2543,252.0,42.0,73.0,0
2544,252.0,42.0,72.0,0
2545,250.0,39.0,76.0,0
2546,251.0,43.0,74.0,0
2547,250.0,40.0,74.0,0
2548,251.0,41.0,71.0,0
2549,252.0,41.0,76.0,0
2550,247.0,44.0,78.0,0
2551,249.0,42.0,75.0,0
2552,253.0,43.0,73.0,0
2553,251.0,44.0,74.0,0
2554,251.0,45.0,74.0,0
2555,248.0,42.0,75.0,0
2556,250.0,42.0,77.0,0
2557,252.0,39.0,75.0,0
2558,248.0,45.0,76.0,0
2559,249.0,43.0,78.0,0
2560,252.0,40.0,78.0,0
2561,248.0,39.0,72.0,0
2562,247.0,42.0,78.0,0
2563,248.0,34.0,74.0,0
2564,248.0,40.0,77.0,0
2565,251.0,39.0,74.0,0
2566,247.0,41.0,78.0,0
2567,251.0,41.0,78.0,0
2568,251.0,41.0,73.0,0
2569,250.0,39.0,78.0,0
2570,246.0,38.0,77.0,0
2571,249.0,41.0,79.0,0
2572,251.0,41.0,80.0,0
2573,252.0,41.0,77.0,0
2574,252.0,35.0,77.0,0
2575,252.0,41.0,77.0,0
2576,254.0,41.0,75.0,0
2577,251.0,39.0,76.0,0
2578,251.0,41.0,74.0,0
2579,251.0,40.0,71.0,0
2580,252.0,38.0,71.0,0
2581,254.0,37.0,75.0,0
2582,251.0,38.0,79.0,0
2583,253.0,39.0,69.0,0
2584,252.0,40.0,77.0,0
2585,252.0,39.0,73.0,0
2586,253.0,38.0,73.0,0
2587,250.0,39.0,75.0,0
2588,252.0,39.0,73.0,0
2589,248.0,39.0,74.0,0
2590,251.0,39.0,75.0,0
2591,247.0,40.0,74.0,0
2592,252.0,46.0,78.0,0
2593,248.0,41.0,72.0,0
2594,253.0,39.0,73.0,0
2595,248.0,39.0,76.0,0
2596,250.0,40.0,75.0,0
2597,252.0,40.0,75.0,0
2598,251.0,41.0,75.0,0
2599,251.0,42.0,74.0,0
2600,251.0,41.0,73.0,0
2601,251.0,38.0,77.0,0
2602,249.0,47.0,74.0,0
2603,249.0,40.0,77.0,0
2604,249.0,40.0,77.0,0
2605,248.0,38.0,74.0,0
2606,248.0,46.0,79.0,0
2607,250.0,42.0,77.0,0
2608,252.0,44.0,77.0,0
2609,248.0,43.0,75.0,0
2610,250.0,40.0,76.0,0
2611,250.0,43.0,75.0,0
2612,252.0,41.0,77.0,0
2613,247.0,41.0,73.0,0
2614,253.0,41.0,80.0,0
2615,249.0,40.0,78.0,0
2616,248.0,43.0,75.0,0
2617,246.0,31.0,77.0,0
2618,248.0,42.0,75.0,0
2619,250.0,41.0,73.0,0
2620,251.0,41.0,71.0,0
2621,248.0,42.0,77.0,0
2622,252.0,41.0,77.0,0
2623,252.0,42.0,72.0,0
2624,250.0,44.0,71.0,0
2625,249.0,44.0,73.0,0
2626,250.0,42.0,71.0,0
2627,250.0,43.0,78.0,0
2628,253.0,42.0,78.0,0
2629,249.0,44.0,72.0,0
2630,251.0,42.0,74.0,0
2631,251.0,42.0,74.0,0
2632,251.0,44.0,76.0,0
2633,249.0,41.0,72.0,0
2634,249.0,45.0,72.0,0
2635,252.0,41.0,72.0,0
2636,250.0,41.0,77.0,0
2637,253.0,41.0,77.0,0
2638,253.0,45.0,74.0,0
2639,252.0,45.0,81.0,0
2640,249.0,42.0,75.0,0
2641,251.0,39.0,75.0,0
2642,247.0,43.0,77.0,0
2643,251.0,41.0,79.0,0
2644,251.0,41.0,75.0,0
2645,249.0,42.0,73.0,0
2646,251.0,43.0,77.0,0
2647,252.0,42.0,77.0,0
2648,248.0,45.0,77.0,0
2649,250.0,41.0,75.0,0
2650,242.0,43.0,75.0,0
2651,252.0,41.0,74.0,0
2652,249.0,44.0,77.0,0
2653,249.0,42.0,75.0,0
2654,248.0,44.0,77.0,0
2655,250.0,40.0,78.0,0
2656,247.0,40.0,76.0,0
2657,251.0,43.0,75.0,0
2658,252.0,42.0,81.0,0
2659,249.0,44.0,76.0,0
2660,250.0,42.0,76.0,0
2661,245.0,42.0,77.0,0
2662,251.0,40.0,76.0,0
2663,252.0,46.0,72.0,0
2664,250.0,43.0,77.0,0
2665,252.0,41.0,74.0,0
2666,250.0,45.0,75.0,0
2667,254.0,45.0,77.0,0
2668,248.0,41.0,73.0,0
2669,249.0,41.0,78.0,0
2670,252.0,45.0,72.0,0
2671,248.0,46.0,75.0,0
2672,252.0,43.0,71.0,0
2673,251.0,43.0,74.0,0
2674,251.0,43.0,76.0,0
2675,248.0,44.0,73.0,0
2676,251.0,42.0,76.0,0
2677,248.0,45.0,74.0,0
2678,250.0,42.0,79.0,0
2679,250.0,43.0,78.0,0
2680,250.0,41.0,79.0,0
2681,250.0,42.0,77.0,0
2682,249.0,43.0,73.0,0
2683,253.0,43.0,74.0,0
2684,252.0,43.0,73.0,0
2685,250.0,45.0,75.0,0
2686,246.0,46.0,72.0,0
2687,251.0,40.0,74.0,0
2688,251.0,44.0,74.0,0
2689,250.0,42.0,75.0,0
2690,250.0,41.0,76.0,0
2691,251.0,40.0,78.0,0
2692,250.0,41.0,74.0,0
2693,248.0,41.0,72.0,0
2694,251.0,41.0,75.0,0
2695,249.0,41.0,77.0,0
2696,249.0,41.0,72.0,0
2697,249.0,44.0,74.0,0
2698,253.0,40.0,73.0,0
2699,249.0,43.0,75.0,0
2700,252.0,39.0,78.0,0
2701,252.0,38.0,77.0,0
2702,250.0,41.0,76.0,0
2703,245.0,43.0,75.0,0
2704,249.0,42.0,75.0,0
2705,250.0,39.0,80.0,0
2706,249.0,40.0,75.0,0
2707,250.0,40.0,76.0,0
2708,250.0,41.0,74.0,0
2709,250.0,39.0,76.0,0
2710,252.0,42.0,78.0,0
2711,253.0,38.0,78.0,0
2712,251.0,40.0,73.0,0
2713,249.0,44.0,80.0,0
2714,248.0,40.0,76.0,0
2715,250.0,43.0,76.0,0
2716,250.0,41.0,72.0,0
2717,250.0,42.0,78.0,0
2718,251.0,39.0,79.0,0
2719,250.0,39.0,75.0,0
2720,247.0,40.0,75.0,0
2721,250.0,38.0,75.0,0
2722,249.0,39.0,76.0,0
2723,251.0,36.0,78.0,0
2724,247.0,42.0,75.0,0
2725,249.0,43.0,74.0,0
2726,245.0,43.0,75.0,0
2727,252.0,37.0,72.0,0
2728,250.0,41.0,77.0,0
2729,253.0,38.0,75.0,0
2730,250.0,39.0,75.0,0
2731,248.0,43.0,77.0,0
2732,252.0,40.0,77.0,0
2733,251.0,41.0,74.0,0
2734,253.0,39.0,72.0,0
2735,251.0,40.0,78.0,0
2736,249.0,38.0,73.0,0
2737,251.0,41.0,76.0,0
2738,250.0,39.0,75.0,0
2739,252.0,38.0,77.0,0
2740,249.0,39.0,76.0,0
2741,248.0,41.0,73.0,0
2742,250.0,37.0,75.0,0
2743,248.0,40.0,75.0,0
2744,249.0,43.0,75.0,0
2745,250.0,37.0,74.0,0
2746,249.0,38.0,73.0,0
2747,252.0,36.0,77.0,0
2748,246.0,31.0,75.0,0
2749,250.0,42.0,77.0,0
2750,250.0,39.0,76.0,0
2751,251.0,40.0,75.0,0
2752,252.0,40.0,77.0,0
2753,249.0,41.0,74.0,0
2754,250.0,40.0,75.0,0
2755,251.0,43.0,77.0,0
2756,252.0,41.0,73.0,0
2757,248.0,41.0,71.0,0
2758,252.0,40.0,75.0,0
2759,251.0,38.0,74.0,0
2760,250.0,39.0,72.0,0
2761,251.0,40.0,71.0,0
2762,250.0,43.0,72.0,0
2763,251.0,42.0,74.0,0
2764,252.0,41.0,76.0,0
2765,252.0,38.0,77.0,0
2766,251.0,44.0,77.0,0
2767,248.0,38.0,77.0,0
2768,246.0,40.0,76.0,0
2769,252.0,41.0,77.0,0
2770,247.0,43.0,80.0,0
2771,250.0,40.0,77.0,0
2772,251.0,41.0,76.0,0
2773,250.0,39.0,75.0,0
2774,251.0,42.0,77.0,0
2775,251.0,39.0,78.0,0
2776,251.0,42.0,75.0,0
2777,250.0,40.0,76.0,0
2778,248.0,45.0,74.0,0
2779,249.0,42.0,78.0,0
2780,251.0,44.0,79.0,0
2781,251.0,38.0,80.0,0
2782,250.0,43.0,74.0,0
2783,251.0,41.0,73.0,0
2784,250.0,42.0,78.0,0
2785,252.0,45.0,76.0,0
2786,249.0,44.0,72.0,0
2787,249.0,39.0,75.0,0
2788,250.0,43.0,81.0,0
2789,252.0,44.0,79.0,0
2790,253.0,45.0,77.0,0
2791,250.0,41.0,75.0,0
2792,250.0,43.0,76.0,0
2793,248.0,40.0,76.0,0
2794,250.0,43.0,72.0,0
2795,248.0,42.0,77.0,0
2796,251.0,40.0,75.0,0
2797,251.0,44.0,77.0,0
2798,248.0,42.0,77.0,0
2799,248.0,43.0,74.0,0
2800,252.0,42.0,74.0,0
2801,249.0,40.0,72.0,0
2802,251.0,30.0,79.0,0
2803,249.0,38.0,72.0,0
2804,250.0,40.0,74.0,0
2805,250.0,39.0,73.0,0
2806,250.0,37.0,80.0,0
2807,252.0,39.0,74.0,0
2808,250.0,39.0,73.0,0
2809,248.0,40.0,80.0,0
2810,252.0,37.0,76.0,0
2811,250.0,38.0,77.0,0
2812,249.0,41.0,77.0,0
2813,245.0,37.0,69.0,0
2814,249.0,39.0,75.0,0
2815,250.0,40.0,74.0,0
2816,244.0,43.0,78.0,0
2817,250.0,39.0,75.0,0
2818,251.0,41.0,73.0,0
2819,250.0,42.0,78.0,0
2820,246.0,41.0,77.0,0
2821,251.0,38.0,75.0,0
2822,246.0,38.0,78.0,0
2823,246.0,40.0,78.0,0
2824,248.0,39.0,73.0,0
2825,251.0,39.0,79.0,0
2826,250.0,39.0,79.0,0
2827,250.0,38.0,77.0,0
2828,250.0,39.0,76.0,0
2829,249.0,37.0,78.0,0
2830,251.0,37.0,71.0,0
2831,251.0,38.0,77.0,0
2832,249.0,38.0,71.0,0
2833,249.0,38.0,78.0,0
2834,252.0,39.0,74.0,0
2835,245.0,39.0,76.0,0
2836,249.0,39.0,77.0,0
2837,249.0,39.0,77.0,0
2838,250.0,40.0,75.0,0
2839,252.0,39.0,75.0,0
2840,251.0,37.0,79.0,0
2841,251.0,39.0,79.0,0
2842,250.0,38.0,76.0,0
2843,251.0,40.0,75.0,0
2844,251.0,39.0,74.0,0
2845,250.0,42.0,74.0,0
2846,250.0,38.0,70.0,0
2847,251.0,41.0,74.0,0
2848,252.0,39.0,76.0,0
2849,249.0,43.0,73.0,0
2850,252.0,40.0,75.0,0
2851,252.0,41.0,79.0,0
2852,250.0,42.0,72.0,0
2853,249.0,41.0,75.0,0
2854,250.0,42.0,74.0,0
2855,249.0,41.0,73.0,0
2856,251.0,40.0,73.0,0
2857,249.0,45.0,68.0,0
2858,250.0,41.0,75.0,0
2859,250.0,41.0,77.0,0
2860,249.0,42.0,74.0,0
2861,251.0,39.0,71.0,0
2862,249.0,44.0,72.0,0
2863,250.0,39.0,72.0,0
2864,251.0,45.0,73.0,0
2865,249.0,40.0,71.0,0
2866,251.0,39.0,77.0,0
2867,250.0,40.0,74.0,0
2868,248.0,34.0,74.0,0
2869,251.0,40.0,76.0,0
2870,251.0,40.0,75.0,0
2871,251.0,43.0,76.0,0
2872,252.0,40.0,76.0,0
2873,251.0,40.0,73.0,0
2874,250.0,43.0,76.0,0
2875,247.0,42.0,73.0,0
2876,248.0,43.0,78.0,0
2877,251.0,38.0,78.0,0
2878,251.0,39.0,75.0,0
2879,242.0,35.0,74.0,0
2880,252.0,38.0,76.0,0
2881,250.0,39.0,74.0,0
2882,251.0,39.0,77.0,0
2883,249.0,38.0,75.0,0
2884,251.0,38.0,76.0,0
2885,252.0,38.0,78.0,0
2886,251.0,40.0,73.0,0
2887,253.0,38.0,73.0,0
2888,248.0,41.0,77.0,0
2889,251.0,38.0,75.0,0
2890,249.0,43.0,77.0,0
2891,253.0,42.0,74.0,0
2892,249.0,40.0,78.0,0
2893,250.0,41.0,76.0,0
2894,250.0,41.0,77.0,0
2895,249.0,44.0,74.0,0
2896,248.0,39.0,74.0,0
2897,249.0,39.0,77.0,0
2898,252.0,39.0,77.0,0
2899,251.0,40.0,77.0,0
2900,251.0,41.0,82.0,0
2901,250.0,39.0,74.0,0
2902,249.0,42.0,74.0,0
2903,249.0,41.0,76.0,0
2904,248.0,41.0,79.0,0
2905,251.0,41.0,76.0,0
2906,249.0,43.0,75.0,0
2907,254.0,40.0,77.0,0
2908,249.0,40.0,75.0,0
2909,249.0,41.0,75.0,0
2910,252.0,39.0,79.0,0
2911,252.0,38.0,80.0,0
2912,248.0,42.0,74.0,0
2913,249.0,37.0,78.0,0
2914,249.0,40.0,78.0,0
2915,251.0,39.0,75.0,0
2916,249.0,40.0,76.0,0
2917,249.0,42.0,75.0,0
2918,250.0,39.0,78.0,0
2919,248.0,41.0,79.0,0
2920,255.0,37.0,76.0,0
2921,250.0,36.0,76.0,0
2922,247.0,41.0,78.0,0
2923,251.0,37.0,74.0,0
2924,250.0,39.0,75.0,0
2925,250.0,40.0,73.0,0
2926,253.0,37.0,75.0,0
2927,250.0,41.0,78.0,0
2928,252.0,40.0,78.0,0
2929,249.0,43.0,74.0,0
2930,249.0,38.0,78.0,0
2931,252.0,37.0,75.0,0
2932,251.0,36.0,71.0,0
2933,250.0,40.0,81.0,0
2934,248.0,40.0,71.0,0
2935,250.0,39.0,74.0,0
2936,252.0,37.0,79.0,0
2937,249.0,41.0,75.0,0
2938,248.0,38.0,74.0,0
2939,251.0,38.0,74.0,0
2940,251.0,40.0,78.0,0
2941,251.0,39.0,75.0,0
2942,251.0,40.0,74.0,0
2943,250.0,31.0,77.0,0
2944,255.0,42.0,76.0,0
2945,250.0,41.0,78.0,0
2946,250.0,40.0,79.0,0
2947,247.0,38.0,74.0,0
2948,251.0,39.0,72.0,0
2949,249.0,39.0,77.0,0
2950,250.0,39.0,75.0,0
2951,249.0,41.0,79.0,0
2952,249.0,41.0,73.0,0
2953,250.0,36.0,73.0,0
2954,249.0,41.0,77.0,0
2955,245.0,42.0,74.0,0
2956,249.0,39.0,77.0,0
2957,249.0,39.0,79.0,0
2958,248.0,40.0,76.0,0
2959,248.0,40.0,78.0,0
2960,249.0,39.0,74.0,0
2961,248.0,37.0,79.0,0
2962,250.0,42.0,79.0,0
2963,251.0,37.0,79.0,0
2964,248.0,41.0,79.0,0
2965,251.0,36.0,72.0,0
2966,248.0,36.0,74.0,0
2967,248.0,37.0,78.0,0
2968,246.0,41.0,76.0,0
2969,249.0,41.0,77.0,0
2970,249.0,37.0,78.0,0
2971,250.0,39.0,74.0,0
2972,253.0,37.0,80.0,0
2973,249.0,41.0,76.0,0
2974,250.0,40.0,79.0,0
2975,248.0,41.0,77.0,0
2976,253.0,43.0,77.0,0
2977,247.0,42.0,83.0,0
2978,248.0,41.0,77.0,0
2979,248.0,41.0,77.0,0
2980,253.0,41.0,78.0,0
2981,248.0,39.0,79.0,0
2982,250.0,38.0,75.0,0
2983,250.0,40.0,76.0,0
2984,251.0,38.0,77.0,0
2985,249.0,42.0,78.0,0
2986,247.0,38.0,74.0,0
2987,250.0,42.0,74.0,0
2988,248.0,43.0,75.0,0
2989,248.0,40.0,76.0,0
2990,251.0,42.0,76.0,0
2991,250.0,40.0,74.0,0
2992,251.0,38.0,76.0,0
2993,247.0,43.0,75.0,0
2994,253.0,42.0,74.0,0
2995,251.0,41.0,81.0,0
2996,252.0,41.0,75.0,0
2997,249.0,42.0,73.0,0
2998,248.0,43.0,78.0,0
2999,250.0,42.0,74.0,0
