,accelerometer_x,accelerometer_y,accelerometer_z,fall
0,26.0,-262.0,-39.0,0
1,25.0,-260.0,-36.0,0
2,23.0,-259.0,-39.0,0
3,23.0,-260.0,-38.0,0
4,25.0,-262.0,-38.0,0
5,26.0,-261.0,-36.0,0
6,24.0,-258.0,-37.0,0
7,27.0,-264.0,-34.0,0
8,27.0,-261.0,-38.0,0
9,27.0,-263.0,-41.0,0
10,28.0,-264.0,-41.0,0
11,25.0,-261.0,-42.0,0
12,26.0,-260.0,-42.0,0
13,27.0,-258.0,-40.0,0
14,25.0,-264.0,-43.0,0
15,25.0,-261.0,-42.0,0
16,25.0,-263.0,-39.0,0
17,23.0,-260.0,-40.0,0
18,24.0,-262.0,-39.0,0
19,24.0,-260.0,-37.0,0
20,28.0,-263.0,-35.0,0
21,24.0,-265.0,-39.0,0
22,27.0,-263.0,-39.0,0
23,27.0,-262.0,-40.0,0
24,27.0,-261.0,-41.0,0
25,26.0,-262.0,-35.0,0
26,26.0,-264.0,-39.0,0
27,27.0,-265.0,-38.0,0
28,23.0,-262.0,-38.0,0
29,24.0,-262.0,-41.0,0
30,23.0,-260.0,-41.0,0
31,27.0,-264.0,-38.0,0
32,26.0,-260.0,-42.0,0
33,24.0,-260.0,-40.0,0
34,26.0,-263.0,-38.0,0
35,25.0,-258.0,-40.0,0
36,24.0,-260.0,-34.0,0
37,26.0,-261.0,-37.0,0
38,27.0,-265.0,-36.0,0
39,26.0,-264.0,-37.0,0
40,24.0,-260.0,-40.0,0
41,27.0,-262.0,-44.0,0
42,25.0,-261.0,-44.0,0
43,28.0,-264.0,-37.0,0
44,25.0,-261.0,-38.0,0
45,26.0,-262.0,-37.0,0
46,24.0,-262.0,-40.0,0
47,21.0,-261.0,-40.0,0
48,23.0,-260.0,-39.0,0
49,24.0,-263.0,-40.0,0
50,23.0,-262.0,-39.0,0
51,23.0,-261.0,-40.0,0
52,25.0,-261.0,-37.0,0
53,20.0,-259.0,-40.0,0
54,29.0,-262.0,-39.0,0
55,28.0,-261.0,-38.0,0
56,25.0,-258.0,-40.0,0
57,32.0,-261.0,-38.0,0
58,27.0,-263.0,-43.0,0
59,25.0,-261.0,-38.0,0
60,21.0,-258.0,-33.0,0
61,23.0,-261.0,-37.0,0
62,27.0,-259.0,-37.0,0
63,23.0,-261.0,-37.0,0
64,24.0,-264.0,-45.0,0
65,25.0,-263.0,-39.0,0
66,23.0,-258.0,-35.0,0
67,22.0,-263.0,-37.0,0
68,33.0,-259.0,-43.0,0
69,27.0,-264.0,-32.0,0
70,26.0,-262.0,-36.0,0
71,24.0,-260.0,-35.0,0
72,23.0,-262.0,-35.0,0
73,26.0,-266.0,-40.0,0
74,24.0,-264.0,-35.0,0
75,26.0,-263.0,-42.0,0
76,23.0,-261.0,-36.0,0
77,26.0,-259.0,-41.0,0
78,25.0,-259.0,-35.0,0
79,17.0,-258.0,-45.0,0
80,25.0,-257.0,-34.0,0
81,25.0,-259.0,-38.0,0
82,24.0,-259.0,-36.0,0
83,24.0,-260.0,-40.0,0
84,23.0,-260.0,-37.0,0
85,25.0,-259.0,-40.0,0
86,22.0,-259.0,-34.0,0
87,25.0,-263.0,-39.0,0
88,25.0,-260.0,-35.0,0
89,16.0,-269.0,-29.0,0
90,24.0,-262.0,-33.0,0
91,26.0,-262.0,-39.0,0
92,23.0,-261.0,-41.0,0
93,24.0,-258.0,-37.0,0
94,23.0,-261.0,-35.0,0
95,27.0,-259.0,-39.0,0
96,22.0,-259.0,-36.0,0
97,27.0,-261.0,-38.0,0
98,23.0,-261.0,-36.0,0
99,25.0,-259.0,-36.0,0
100,32.0,-260.0,-44.0,0
101,25.0,-263.0,-38.0,0
102,24.0,-261.0,-36.0,0
103,23.0,-263.0,-38.0,0
104,24.0,-260.0,-36.0,0
105,22.0,-261.0,-37.0,0
106,22.0,-264.0,-45.0,0
107,24.0,-265.0,-37.0,0
108,21.0,-265.0,-39.0,0
109,23.0,-264.0,-36.0,0
110,25.0,-262.0,-39.0,0
111,23.0,-262.0,-38.0,0
112,21.0,-263.0,-37.0,0
113,23.0,-263.0,-41.0,0
114,22.0,-261.0,-41.0,0
115,24.0,-261.0,-35.0,0
116,23.0,-260.0,-39.0,0
117,22.0,-257.0,-40.0,0
118,26.0,-262.0,-42.0,0
119,24.0,-265.0,-41.0,0
120,23.0,-264.0,-42.0,0
121,25.0,-266.0,-41.0,0
122,22.0,-263.0,-39.0,0
123,21.0,-263.0,-43.0,0
124,25.0,-265.0,-41.0,0
125,24.0,-265.0,-41.0,0
126,22.0,-264.0,-41.0,0
127,26.0,-265.0,-41.0,0
128,25.0,-266.0,-40.0,0
129,25.0,-266.0,-41.0,0
130,26.0,-262.0,-43.0,0
131,22.0,-268.0,-46.0,0
132,24.0,-263.0,-46.0,0
133,28.0,-262.0,-49.0,0
134,25.0,-261.0,-45.0,0
135,24.0,-264.0,-45.0,0
136,28.0,-265.0,-48.0,0
137,29.0,-263.0,-44.0,0
138,25.0,-263.0,-44.0,0
139,29.0,-264.0,-42.0,0
140,26.0,-264.0,-46.0,0
141,23.0,-263.0,-44.0,0
142,25.0,-263.0,-47.0,0
143,26.0,-262.0,-46.0,0
144,26.0,-262.0,-43.0,0
145,26.0,-260.0,-47.0,0
146,25.0,-265.0,-44.0,0
147,27.0,-265.0,-43.0,0
148,26.0,-259.0,-42.0,0
149,27.0,-262.0,-45.0,0
150,26.0,-259.0,-43.0,0
151,26.0,-261.0,-44.0,0
152,24.0,-260.0,-45.0,0
153,24.0,-260.0,-41.0,0
154,29.0,-262.0,-44.0,0
155,26.0,-261.0,-42.0,0
156,28.0,-260.0,-49.0,0
157,29.0,-262.0,-41.0,0
158,25.0,-265.0,-42.0,0
159,23.0,-262.0,-45.0,0
160,26.0,-265.0,-43.0,0
161,23.0,-264.0,-39.0,0
162,25.0,-264.0,-41.0,0
163,26.0,-261.0,-45.0,0
164,25.0,-260.0,-42.0,0
165,27.0,-262.0,-41.0,0
166,25.0,-256.0,-42.0,0
167,28.0,-259.0,-39.0,0
168,28.0,-257.0,-43.0,0
169,27.0,-254.0,-41.0,0
170,26.0,-258.0,-40.0,0
171,31.0,-255.0,-43.0,0
172,29.0,-257.0,-43.0,0
173,29.0,-257.0,-40.0,0
174,30.0,-256.0,-37.0,0
175,28.0,-257.0,-41.0,0
176,32.0,-258.0,-39.0,0
177,29.0,-259.0,-41.0,0
178,30.0,-259.0,-40.0,0
179,30.0,-259.0,-35.0,0
180,28.0,-259.0,-36.0,0
181,29.0,-258.0,-39.0,0
182,28.0,-259.0,-35.0,0
183,27.0,-260.0,-35.0,0
184,26.0,-259.0,-35.0,0
185,22.0,-260.0,-35.0,0
186,25.0,-259.0,-33.0,0
187,22.0,-262.0,-36.0,0
188,19.0,-257.0,-36.0,0
189,22.0,-260.0,-35.0,0
190,21.0,-259.0,-34.0,0
191,27.0,-261.0,-36.0,0
192,22.0,-257.0,-32.0,0
193,22.0,-260.0,-35.0,0
194,24.0,-264.0,-34.0,0
195,25.0,-263.0,-34.0,0
196,27.0,-263.0,-32.0,0
197,26.0,-264.0,-39.0,0
198,28.0,-265.0,-32.0,0
199,26.0,-266.0,-39.0,0
200,28.0,-262.0,-36.0,0
201,28.0,-264.0,-38.0,0
202,26.0,-262.0,-37.0,0
203,25.0,-261.0,-41.0,0
204,27.0,-262.0,-41.0,0
205,26.0,-263.0,-39.0,0
206,24.0,-262.0,-43.0,0
207,23.0,-260.0,-37.0,0
208,26.0,-262.0,-40.0,0
209,25.0,-263.0,-42.0,0
210,20.0,-263.0,-39.0,0
211,22.0,-259.0,-44.0,0
212,19.0,-262.0,-45.0,0
213,23.0,-260.0,-43.0,0
214,22.0,-262.0,-39.0,0
215,24.0,-262.0,-43.0,0
216,24.0,-262.0,-40.0,0
217,25.0,-261.0,-43.0,0
218,26.0,-261.0,-41.0,0
219,23.0,-260.0,-38.0,0
220,25.0,-265.0,-40.0,0
221,24.0,-262.0,-37.0,0
222,26.0,-260.0,-43.0,0
223,24.0,-261.0,-34.0,0
224,24.0,-257.0,-42.0,0
225,22.0,-260.0,-41.0,0
226,20.0,-259.0,-38.0,0
227,23.0,-261.0,-39.0,0
228,24.0,-262.0,-40.0,0
229,24.0,-260.0,-38.0,0
230,24.0,-258.0,-39.0,0
231,24.0,-262.0,-39.0,0
232,22.0,-262.0,-36.0,0
233,23.0,-258.0,-40.0,0
234,24.0,-263.0,-41.0,0
235,26.0,-263.0,-38.0,0
236,26.0,-262.0,-36.0,0
237,24.0,-259.0,-37.0,0
238,23.0,-260.0,-41.0,0
239,25.0,-259.0,-42.0,0
240,20.0,-258.0,-39.0,0
241,22.0,-259.0,-40.0,0
242,27.0,-263.0,-38.0,0
243,24.0,-260.0,-38.0,0
244,23.0,-261.0,-40.0,0
245,24.0,-259.0,-36.0,0
246,22.0,-258.0,-38.0,0
247,21.0,-257.0,-39.0,0
248,19.0,-258.0,-36.0,0
249,23.0,-260.0,-38.0,0
250,24.0,-260.0,-34.0,0
251,21.0,-261.0,-38.0,0
252,26.0,-263.0,-35.0,0
253,22.0,-263.0,-34.0,0
254,25.0,-263.0,-35.0,0
255,25.0,-261.0,-38.0,0
256,25.0,-265.0,-38.0,0
257,29.0,-261.0,-37.0,0
258,24.0,-261.0,-34.0,0
259,24.0,-261.0,-39.0,0
260,25.0,-260.0,-36.0,0
261,26.0,-260.0,-35.0,0
262,20.0,-259.0,-37.0,0
263,22.0,-260.0,-40.0,0
264,25.0,-259.0,-36.0,0
265,28.0,-262.0,-39.0,0
266,25.0,-264.0,-40.0,0
267,25.0,-261.0,-33.0,0
268,25.0,-260.0,-37.0,0
269,26.0,-261.0,-37.0,0
270,27.0,-261.0,-38.0,0
271,24.0,-260.0,-35.0,0
272,24.0,-262.0,-38.0,0
273,25.0,-263.0,-37.0,0
274,23.0,-259.0,-39.0,0
275,26.0,-259.0,-37.0,0
276,28.0,-262.0,-39.0,0
277,25.0,-259.0,-36.0,0
278,27.0,-264.0,-42.0,0
279,25.0,-260.0,-36.0,0
280,26.0,-262.0,-38.0,0
281,27.0,-264.0,-38.0,0
282,24.0,-264.0,-43.0,0
283,26.0,-264.0,-38.0,0
284,24.0,-261.0,-39.0,0
285,25.0,-261.0,-41.0,0
286,24.0,-263.0,-41.0,0
287,25.0,-261.0,-38.0,0
288,23.0,-258.0,-40.0,0
289,24.0,-262.0,-41.0,0
290,23.0,-262.0,-43.0,0
291,22.0,-263.0,-39.0,0
292,23.0,-262.0,-37.0,0
293,23.0,-260.0,-40.0,0
294,21.0,-262.0,-40.0,0
295,26.0,-261.0,-41.0,0
296,25.0,-263.0,-40.0,0
297,26.0,-263.0,-40.0,0
298,26.0,-261.0,-42.0,0
299,25.0,-263.0,-42.0,0
300,28.0,-263.0,-39.0,0
301,27.0,-261.0,-43.0,0
302,26.0,-263.0,-41.0,0
303,26.0,-259.0,-42.0,0
304,28.0,-259.0,-42.0,0
305,29.0,-261.0,-40.0,0
306,30.0,-257.0,-44.0,0
307,27.0,-260.0,-41.0,0
308,27.0,-260.0,-42.0,0
309,27.0,-260.0,-40.0,0
310,26.0,-260.0,-45.0,0
311,27.0,-261.0,-42.0,0
312,27.0,-262.0,-40.0,0
313,27.0,-261.0,-40.0,0
314,26.0,-262.0,-38.0,0
315,24.0,-261.0,-42.0,0
316,27.0,-263.0,-40.0,0
317,27.0,-262.0,-40.0,0
318,29.0,-265.0,-42.0,0
319,25.0,-261.0,-40.0,0
320,25.0,-263.0,-36.0,0
321,25.0,-263.0,-41.0,0
322,22.0,-260.0,-44.0,0
323,25.0,-256.0,-43.0,0
324,24.0,-259.0,-42.0,0
325,24.0,-258.0,-38.0,0
326,24.0,-259.0,-42.0,0
327,27.0,-262.0,-42.0,0
328,25.0,-264.0,-38.0,0
329,25.0,-259.0,-43.0,0
330,24.0,-260.0,-44.0,0
331,24.0,-260.0,-44.0,0
332,27.0,-261.0,-38.0,0
333,21.0,-258.0,-44.0,0
334,26.0,-261.0,-45.0,0
335,27.0,-258.0,-43.0,0
336,25.0,-260.0,-42.0,0
337,27.0,-262.0,-44.0,0
338,28.0,-261.0,-46.0,0
339,27.0,-257.0,-45.0,0
340,28.0,-256.0,-49.0,0
341,26.0,-257.0,-48.0,0
342,25.0,-256.0,-51.0,0
343,26.0,-254.0,-53.0,0
344,27.0,-257.0,-52.0,0
345,28.0,-259.0,-48.0,0
346,28.0,-258.0,-50.0,0
347,28.0,-256.0,-49.0,0
348,26.0,-256.0,-54.0,0
349,29.0,-260.0,-49.0,0
350,29.0,-259.0,-48.0,0
351,29.0,-257.0,-52.0,0
352,27.0,-257.0,-48.0,0
353,28.0,-256.0,-52.0,0
354,26.0,-258.0,-46.0,0
355,29.0,-258.0,-47.0,0
356,25.0,-262.0,-51.0,0
357,24.0,-261.0,-48.0,0
358,27.0,-261.0,-46.0,0
359,20.0,-260.0,-40.0,0
360,24.0,-263.0,-46.0,0
361,26.0,-262.0,-51.0,0
362,26.0,-264.0,-51.0,0
363,25.0,-261.0,-53.0,0
364,25.0,-260.0,-44.0,0
365,26.0,-260.0,-50.0,0
366,26.0,-259.0,-57.0,0
367,25.0,-258.0,-56.0,0
368,28.0,-257.0,-52.0,0
369,38.0,-263.0,-36.0,0
370,28.0,-256.0,-54.0,0
371,29.0,-258.0,-55.0,0
372,27.0,-257.0,-52.0,0
373,30.0,-260.0,-54.0,0
374,29.0,-258.0,-51.0,0
375,26.0,-259.0,-50.0,0
376,29.0,-260.0,-52.0,0
377,29.0,-260.0,-54.0,0
378,28.0,-260.0,-52.0,0
379,28.0,-258.0,-54.0,0
380,33.0,-266.0,-44.0,0
381,26.0,-257.0,-56.0,0
382,28.0,-259.0,-57.0,0
383,28.0,-259.0,-55.0,0
384,24.0,-257.0,-55.0,0
385,24.0,-260.0,-53.0,0
386,21.0,-257.0,-51.0,0
387,22.0,-258.0,-51.0,0
388,22.0,-259.0,-55.0,0
389,24.0,-259.0,-53.0,0
390,24.0,-259.0,-52.0,0
391,22.0,-258.0,-47.0,0
392,25.0,-261.0,-53.0,0
393,21.0,-259.0,-51.0,0
394,23.0,-258.0,-48.0,0
395,31.0,-262.0,-54.0,0
396,25.0,-258.0,-51.0,0
397,23.0,-259.0,-55.0,0
398,26.0,-259.0,-55.0,0
399,27.0,-257.0,-49.0,0
400,24.0,-260.0,-51.0,0
401,29.0,-264.0,-50.0,0
402,27.0,-265.0,-53.0,0
403,25.0,-265.0,-51.0,0
404,26.0,-267.0,-51.0,0
405,26.0,-264.0,-48.0,0
406,28.0,-264.0,-52.0,0
407,29.0,-262.0,-55.0,0
408,25.0,-265.0,-56.0,0
409,26.0,-259.0,-56.0,0
410,28.0,-259.0,-54.0,0
411,27.0,-261.0,-53.0,0
412,27.0,-262.0,-53.0,0
413,27.0,-260.0,-50.0,0
414,24.0,-257.0,-52.0,0
415,26.0,-259.0,-49.0,0
416,30.0,-261.0,-54.0,0
417,28.0,-264.0,-52.0,0
418,30.0,-262.0,-49.0,0
419,31.0,-265.0,-50.0,0
420,29.0,-268.0,-49.0,0
421,31.0,-264.0,-49.0,0
422,29.0,-265.0,-52.0,0
423,26.0,-263.0,-56.0,0
424,26.0,-264.0,-48.0,0
425,28.0,-266.0,-47.0,0
426,30.0,-265.0,-49.0,0
427,28.0,-265.0,-52.0,0
428,30.0,-269.0,-50.0,0
429,28.0,-267.0,-51.0,0
430,31.0,-271.0,-52.0,0
431,28.0,-270.0,-54.0,0
432,33.0,-269.0,-56.0,0
433,29.0,-267.0,-53.0,0
434,32.0,-270.0,-55.0,0
435,31.0,-265.0,-56.0,0
436,30.0,-264.0,-54.0,0
437,30.0,-265.0,-51.0,0
438,29.0,-261.0,-57.0,0
439,28.0,-262.0,-58.0,0
440,25.0,-264.0,-58.0,0
441,25.0,-260.0,-59.0,0
442,26.0,-264.0,-58.0,0
443,21.0,-260.0,-55.0,0
444,23.0,-258.0,-62.0,0
445,25.0,-261.0,-59.0,0
446,24.0,-260.0,-59.0,0
447,25.0,-262.0,-57.0,0
448,18.0,-259.0,-57.0,0
449,23.0,-261.0,-60.0,0
450,22.0,-261.0,-55.0,0
451,22.0,-259.0,-60.0,0
452,26.0,-260.0,-58.0,0
453,23.0,-261.0,-59.0,0
454,25.0,-261.0,-63.0,0
455,25.0,-260.0,-61.0,0
456,25.0,-257.0,-62.0,0
457,22.0,-256.0,-55.0,0
458,26.0,-262.0,-60.0,0
459,24.0,-261.0,-64.0,0
460,18.0,-257.0,-60.0,0
461,23.0,-259.0,-59.0,0
462,27.0,-260.0,-63.0,0
463,26.0,-260.0,-63.0,0
464,30.0,-259.0,-58.0,0
465,29.0,-258.0,-59.0,0
466,28.0,-259.0,-62.0,0
467,26.0,-257.0,-60.0,0
468,30.0,-257.0,-64.0,0
469,25.0,-253.0,-61.0,0
470,26.0,-256.0,-63.0,0
471,24.0,-259.0,-62.0,0
472,21.0,-258.0,-61.0,0
473,23.0,-260.0,-59.0,0
474,24.0,-259.0,-61.0,0
475,24.0,-261.0,-61.0,0
476,27.0,-259.0,-64.0,0
477,29.0,-260.0,-63.0,0
478,27.0,-259.0,-64.0,0
479,28.0,-258.0,-62.0,0
480,26.0,-258.0,-64.0,0
481,27.0,-256.0,-67.0,0
482,27.0,-258.0,-64.0,0
483,29.0,-257.0,-67.0,0
484,29.0,-257.0,-64.0,0
485,27.0,-257.0,-64.0,0
486,28.0,-259.0,-64.0,0
487,27.0,-259.0,-63.0,0
488,27.0,-258.0,-64.0,0
489,29.0,-257.0,-65.0,0
490,30.0,-258.0,-65.0,0
491,29.0,-259.0,-65.0,0
492,29.0,-258.0,-66.0,0
493,25.0,-257.0,-65.0,0
494,29.0,-258.0,-66.0,0
495,29.0,-256.0,-67.0,0
496,26.0,-257.0,-69.0,0
497,29.0,-257.0,-65.0,0
498,30.0,-256.0,-66.0,0
499,28.0,-261.0,-69.0,0
500,27.0,-259.0,-64.0,0
501,30.0,-258.0,-63.0,0
502,29.0,-262.0,-64.0,0
503,29.0,-261.0,-62.0,0
504,29.0,-263.0,-62.0,0
505,26.0,-261.0,-63.0,0
506,27.0,-260.0,-63.0,0
507,24.0,-257.0,-67.0,0
508,25.0,-257.0,-65.0,0
509,27.0,-259.0,-63.0,0
510,22.0,-257.0,-67.0,0
511,25.0,-259.0,-66.0,0
512,26.0,-256.0,-66.0,0
513,24.0,-258.0,-67.0,0
514,27.0,-255.0,-68.0,0
515,26.0,-256.0,-67.0,0
516,26.0,-256.0,-68.0,0
517,22.0,-258.0,-67.0,0
518,23.0,-253.0,-66.0,0
519,26.0,-253.0,-65.0,0
520,23.0,-254.0,-65.0,0
521,26.0,-254.0,-68.0,0
522,25.0,-254.0,-67.0,0
523,24.0,-253.0,-69.0,0
524,27.0,-254.0,-67.0,0
525,30.0,-253.0,-66.0,0
526,28.0,-255.0,-65.0,0
527,26.0,-255.0,-64.0,0
528,27.0,-256.0,-64.0,0
529,23.0,-255.0,-65.0,0
530,26.0,-257.0,-65.0,0
531,23.0,-257.0,-61.0,0
532,22.0,-255.0,-61.0,0
533,24.0,-256.0,-62.0,0
534,27.0,-256.0,-65.0,0
535,25.0,-255.0,-65.0,0
536,26.0,-254.0,-68.0,0
537,27.0,-255.0,-67.0,0
538,24.0,-254.0,-62.0,0
539,27.0,-252.0,-63.0,0
540,27.0,-255.0,-61.0,0
541,28.0,-260.0,-64.0,0
542,25.0,-258.0,-65.0,0
543,28.0,-255.0,-64.0,0
544,30.0,-258.0,-66.0,0
545,32.0,-261.0,-61.0,0
546,26.0,-256.0,-64.0,0
547,29.0,-259.0,-65.0,0
548,30.0,-255.0,-68.0,0
549,29.0,-255.0,-68.0,0
550,28.0,-254.0,-66.0,0
551,28.0,-250.0,-65.0,0
552,28.0,-250.0,-64.0,0
553,26.0,-249.0,-65.0,0
554,27.0,-250.0,-67.0,0
555,26.0,-250.0,-61.0,0
556,25.0,-250.0,-66.0,0
557,24.0,-246.0,-65.0,0
558,23.0,-249.0,-65.0,0
559,25.0,-251.0,-64.0,0
560,22.0,-252.0,-66.0,0
561,22.0,-252.0,-65.0,0
562,24.0,-254.0,-62.0,0
563,21.0,-258.0,-63.0,0
564,22.0,-256.0,-64.0,0
565,21.0,-255.0,-65.0,0
566,24.0,-255.0,-66.0,0
567,23.0,-251.0,-66.0,0
568,22.0,-253.0,-65.0,0
569,22.0,-251.0,-66.0,0
570,25.0,-248.0,-66.0,0
571,26.0,-249.0,-65.0,0
572,25.0,-246.0,-67.0,0
573,24.0,-246.0,-72.0,0
574,20.0,-245.0,-70.0,0
575,23.0,-245.0,-71.0,0
576,26.0,-243.0,-65.0,0
577,25.0,-242.0,-66.0,0
578,24.0,-249.0,-66.0,0
579,25.0,-250.0,-63.0,0
580,26.0,-253.0,-66.0,0
581,25.0,-252.0,-64.0,0
582,27.0,-252.0,-63.0,0
583,27.0,-255.0,-65.0,0
584,29.0,-255.0,-67.0,0
585,28.0,-257.0,-65.0,0
586,28.0,-255.0,-61.0,0
587,27.0,-257.0,-66.0,0
588,30.0,-256.0,-69.0,0
589,30.0,-254.0,-67.0,0
590,31.0,-256.0,-65.0,0
591,29.0,-257.0,-68.0,0
592,25.0,-259.0,-66.0,0
593,25.0,-259.0,-65.0,0
594,24.0,-258.0,-65.0,0
595,25.0,-256.0,-67.0,0
596,23.0,-261.0,-65.0,0
597,23.0,-259.0,-69.0,0
598,26.0,-260.0,-65.0,0
599,26.0,-262.0,-67.0,0
600,22.0,-257.0,-71.0,0
601,30.0,-259.0,-68.0,0
602,30.0,-259.0,-67.0,0
603,32.0,-259.0,-68.0,0
604,31.0,-257.0,-67.0,0
605,33.0,-256.0,-66.0,0
606,39.0,-260.0,-73.0,0
607,39.0,-260.0,-68.0,0
608,38.0,-261.0,-66.0,0
609,37.0,-266.0,-67.0,0
610,37.0,-265.0,-69.0,0
611,35.0,-268.0,-66.0,0
612,34.0,-270.0,-69.0,0
613,30.0,-269.0,-66.0,0
614,28.0,-273.0,-65.0,0
615,27.0,-272.0,-67.0,0
616,26.0,-275.0,-68.0,0
617,25.0,-272.0,-70.0,0
618,24.0,-272.0,-64.0,0
619,23.0,-274.0,-66.0,0
620,26.0,-274.0,-68.0,0
621,22.0,-271.0,-72.0,0
622,23.0,-271.0,-68.0,0
623,20.0,-267.0,-72.0,0
624,24.0,-269.0,-70.0,0
625,25.0,-263.0,-75.0,0
626,26.0,-263.0,-73.0,0
627,27.0,-258.0,-72.0,0
628,27.0,-259.0,-73.0,0
629,27.0,-253.0,-72.0,0
630,28.0,-255.0,-69.0,0
631,25.0,-253.0,-68.0,0
632,30.0,-255.0,-70.0,0
633,28.0,-255.0,-71.0,0
634,28.0,-257.0,-70.0,0
635,30.0,-256.0,-70.0,0
636,31.0,-255.0,-73.0,0
637,26.0,-253.0,-73.0,0
638,31.0,-254.0,-69.0,0
639,32.0,-253.0,-65.0,0
640,32.0,-251.0,-67.0,0
641,32.0,-249.0,-66.0,0
642,24.0,-247.0,-69.0,0
643,29.0,-246.0,-67.0,0
644,27.0,-251.0,-68.0,0
645,26.0,-247.0,-72.0,0
646,23.0,-247.0,-67.0,0
647,23.0,-247.0,-68.0,0
648,27.0,-249.0,-71.0,0
649,25.0,-255.0,-70.0,0
650,26.0,-254.0,-74.0,0
651,28.0,-258.0,-72.0,0
652,24.0,-255.0,-66.0,0
653,21.0,-256.0,-69.0,0
654,22.0,-257.0,-68.0,0
655,23.0,-257.0,-67.0,0
656,25.0,-258.0,-71.0,0
657,22.0,-256.0,-69.0,0
658,24.0,-255.0,-68.0,0
659,25.0,-254.0,-70.0,0
660,25.0,-253.0,-68.0,0
661,23.0,-254.0,-67.0,0
662,21.0,-252.0,-69.0,0
663,28.0,-256.0,-69.0,0
664,26.0,-254.0,-69.0,0
665,23.0,-253.0,-67.0,0
666,28.0,-256.0,-68.0,0
667,26.0,-254.0,-67.0,0
668,26.0,-257.0,-65.0,0
669,29.0,-257.0,-69.0,0
670,32.0,-260.0,-68.0,0
671,28.0,-257.0,-65.0,0
672,31.0,-258.0,-69.0,0
673,34.0,-267.0,-54.0,0
674,28.0,-259.0,-69.0,0
675,23.0,-262.0,-69.0,0
676,28.0,-259.0,-68.0,0
677,27.0,-260.0,-68.0,0
678,26.0,-263.0,-66.0,0
679,27.0,-263.0,-65.0,0
680,26.0,-263.0,-66.0,0
681,24.0,-264.0,-64.0,0
682,28.0,-261.0,-66.0,0
683,25.0,-261.0,-66.0,0
684,35.0,-262.0,-66.0,0
685,25.0,-259.0,-69.0,0
686,29.0,-260.0,-69.0,0
687,27.0,-261.0,-69.0,0
688,31.0,-259.0,-71.0,0
689,26.0,-262.0,-74.0,0
690,32.0,-265.0,-77.0,0
691,33.0,-264.0,-74.0,0
692,36.0,-266.0,-75.0,0
693,36.0,-265.0,-74.0,0
694,41.0,-270.0,-73.0,0
695,46.0,-278.0,-50.0,0
696,44.0,-268.0,-66.0,0
697,39.0,-264.0,-64.0,0
698,42.0,-265.0,-61.0,0
699,40.0,-265.0,-63.0,0
700,39.0,-266.0,-66.0,0
701,35.0,-265.0,-64.0,0
702,40.0,-270.0,-64.0,0
703,37.0,-266.0,-67.0,0
704,35.0,-269.0,-68.0,0
705,35.0,-269.0,-66.0,0
706,28.0,-263.0,-72.0,0
707,34.0,-270.0,-68.0,0
708,33.0,-270.0,-68.0,0
709,29.0,-268.0,-64.0,0
710,29.0,-271.0,-64.0,0
711,31.0,-269.0,-63.0,0
712,32.0,-271.0,-64.0,0
713,27.0,-269.0,-59.0,0
714,29.0,-269.0,-61.0,0
715,29.0,-269.0,-59.0,0
716,28.0,-265.0,-59.0,0
717,24.0,-266.0,-56.0,0
718,24.0,-260.0,-59.0,0
719,27.0,-263.0,-60.0,0
720,21.0,-257.0,-60.0,0
721,21.0,-258.0,-57.0,0
722,23.0,-257.0,-62.0,0
723,21.0,-257.0,-60.0,0
724,21.0,-257.0,-61.0,0
725,22.0,-259.0,-60.0,0
726,27.0,-265.0,-61.0,0
727,28.0,-265.0,-56.0,0
728,29.0,-266.0,-58.0,0
729,31.0,-265.0,-61.0,0
730,34.0,-267.0,-62.0,0
731,33.0,-266.0,-57.0,0
732,35.0,-266.0,-53.0,0
733,37.0,-267.0,-61.0,0
734,36.0,-268.0,-61.0,0
735,36.0,-268.0,-54.0,0
736,36.0,-265.0,-58.0,0
737,35.0,-266.0,-57.0,0
738,34.0,-267.0,-58.0,0
739,34.0,-269.0,-58.0,0
740,29.0,-268.0,-63.0,0
741,30.0,-268.0,-60.0,0
742,28.0,-268.0,-59.0,0
743,23.0,-271.0,-57.0,0
744,25.0,-267.0,-57.0,0
745,25.0,-268.0,-59.0,0
746,27.0,-267.0,-58.0,0
747,27.0,-263.0,-62.0,0
748,30.0,-262.0,-60.0,0
749,33.0,-262.0,-62.0,0
750,33.0,-263.0,-66.0,0
751,31.0,-261.0,-61.0,0
752,38.0,-260.0,-60.0,0
753,39.0,-259.0,-66.0,0
754,40.0,-258.0,-69.0,0
755,39.0,-259.0,-66.0,0
756,45.0,-257.0,-67.0,0
757,44.0,-257.0,-67.0,0
758,47.0,-256.0,-70.0,0
759,45.0,-256.0,-68.0,0
760,45.0,-254.0,-67.0,0
761,45.0,-252.0,-67.0,0
762,46.0,-252.0,-68.0,0
763,50.0,-253.0,-67.0,0
764,47.0,-254.0,-68.0,0
765,45.0,-253.0,-70.0,0
766,46.0,-255.0,-65.0,0
767,42.0,-253.0,-67.0,0
768,42.0,-255.0,-66.0,0
769,39.0,-256.0,-69.0,0
770,40.0,-255.0,-71.0,0
771,39.0,-252.0,-71.0,0
772,37.0,-250.0,-70.0,0
773,40.0,-247.0,-70.0,0
774,40.0,-253.0,-71.0,0
775,42.0,-253.0,-70.0,0
776,40.0,-249.0,-71.0,0
777,39.0,-249.0,-70.0,0
778,41.0,-245.0,-67.0,0
779,44.0,-247.0,-69.0,0
780,43.0,-245.0,-69.0,0
781,45.0,-245.0,-71.0,0
782,48.0,-244.0,-70.0,0
783,49.0,-243.0,-71.0,0
784,50.0,-242.0,-68.0,0
785,57.0,-245.0,-65.0,0
786,52.0,-240.0,-69.0,0
787,51.0,-243.0,-66.0,0
788,54.0,-245.0,-72.0,0
789,55.0,-247.0,-68.0,0
790,55.0,-247.0,-69.0,0
791,53.0,-248.0,-71.0,0
792,53.0,-246.0,-73.0,0
793,51.0,-247.0,-70.0,0
794,52.0,-248.0,-72.0,0
795,49.0,-245.0,-71.0,0
796,53.0,-244.0,-73.0,0
797,50.0,-242.0,-74.0,0
798,55.0,-240.0,-72.0,0
799,56.0,-240.0,-73.0,0
800,52.0,-236.0,-72.0,0
801,55.0,-236.0,-71.0,0
802,57.0,-235.0,-72.0,0
803,55.0,-234.0,-72.0,0
804,52.0,-238.0,-73.0,0
805,54.0,-239.0,-69.0,0
806,54.0,-236.0,-69.0,0
807,52.0,-231.0,-78.0,0
808,51.0,-231.0,-74.0,0
809,50.0,-229.0,-71.0,0
810,51.0,-227.0,-79.0,0
811,53.0,-228.0,-72.0,0
812,53.0,-228.0,-74.0,0
813,53.0,-225.0,-75.0,0
814,56.0,-226.0,-79.0,0
815,54.0,-227.0,-72.0,0
816,55.0,-227.0,-79.0,0
817,56.0,-227.0,-75.0,0
818,56.0,-229.0,-77.0,0
819,58.0,-232.0,-76.0,0
820,54.0,-232.0,-79.0,0
821,53.0,-231.0,-76.0,0
822,54.0,-231.0,-76.0,0
823,49.0,-230.0,-80.0,0
824,54.0,-229.0,-80.0,0
825,52.0,-222.0,-84.0,0
826,54.0,-220.0,-84.0,0
827,54.0,-217.0,-85.0,0
828,57.0,-213.0,-79.0,0
829,58.0,-208.0,-77.0,0
830,59.0,-204.0,-76.0,0
831,59.0,-201.0,-77.0,0
832,63.0,-196.0,-73.0,0
833,65.0,-194.0,-65.0,0
834,64.0,-193.0,-65.0,0
835,64.0,-192.0,-65.0,0
836,64.0,-193.0,-62.0,0
837,64.0,-193.0,-64.0,0
838,67.0,-197.0,-62.0,0
839,63.0,-201.0,-63.0,0
840,63.0,-204.0,-59.0,0
841,59.0,-203.0,-61.0,0
842,58.0,-206.0,-63.0,0
843,57.0,-209.0,-62.0,0
844,57.0,-215.0,-63.0,0
845,56.0,-215.0,-64.0,0
846,55.0,-215.0,-63.0,0
847,52.0,-214.0,-58.0,0
848,50.0,-216.0,-55.0,0
849,45.0,-216.0,-60.0,0
850,44.0,-213.0,-62.0,0
851,47.0,-214.0,-61.0,0
852,45.0,-215.0,-64.0,0
853,41.0,-209.0,-60.0,0
854,41.0,-209.0,-64.0,0
855,41.0,-210.0,-64.0,0
856,44.0,-210.0,-61.0,0
857,45.0,-208.0,-64.0,0
858,48.0,-208.0,-60.0,0
859,48.0,-214.0,-56.0,0
860,50.0,-213.0,-54.0,0
861,53.0,-219.0,-54.0,0
862,54.0,-222.0,-55.0,0
863,61.0,-220.0,-54.0,0
864,62.0,-224.0,-54.0,0
865,62.0,-225.0,-59.0,0
866,55.0,-223.0,-60.0,0
867,54.0,-223.0,-61.0,0
868,58.0,-220.0,-62.0,0
869,54.0,-215.0,-56.0,0
870,56.0,-216.0,-60.0,0
871,59.0,-213.0,-63.0,0
872,58.0,-208.0,-62.0,0
873,50.0,-202.0,-64.0,0
874,49.0,-196.0,-64.0,0
875,45.0,-189.0,-62.0,0
876,39.0,-186.0,-66.0,0
877,36.0,-183.0,-67.0,0
878,29.0,-174.0,-70.0,0
879,25.0,-167.0,-73.0,0
880,23.0,-164.0,-80.0,0
881,20.0,-159.0,-73.0,0
882,13.0,-156.0,-81.0,0
883,9.0,-154.0,-78.0,0
884,7.0,-153.0,-73.0,0
885,17.0,-148.0,-79.0,0
886,20.0,-141.0,-87.0,0
887,31.0,-143.0,-83.0,0
888,39.0,-149.0,-89.0,0
889,43.0,-153.0,-90.0,0
890,53.0,-156.0,-90.0,0
891,57.0,-159.0,-93.0,0
892,59.0,-162.0,-99.0,0
893,72.0,-161.0,-101.0,0
894,83.0,-162.0,-110.0,0
895,106.0,-152.0,-120.0,0
896,121.0,-150.0,-127.0,0
897,120.0,-145.0,-140.0,2
898,145.0,-157.0,-125.0,2
899,155.0,-157.0,-135.0,2
900,173.0,-152.0,-143.0,2
901,195.0,-156.0,-145.0,2
902,208.0,-164.0,-151.0,2
903,231.0,-179.0,-159.0,2
904,250.0,-204.0,-159.0,2
905,284.0,-237.0,-168.0,2
906,316.0,-269.0,-162.0,2
907,348.0,-310.0,-142.0,2
908,387.0,-344.0,-120.0,2
909,424.0,-365.0,-87.0,2
910,447.0,-357.0,-52.0,2
911,449.0,-331.0,-33.0,2
912,428.0,-278.0,-24.0,2
913,406.0,-210.0,-29.0,2
914,365.0,-162.0,-46.0,2
915,308.0,-127.0,-68.0,2
916,264.0,-121.0,-83.0,2
917,220.0,-125.0,-95.0,2
918,200.0,-143.0,-110.0,2
919,205.0,-177.0,-122.0,2
920,234.0,-213.0,-110.0,2
921,294.0,-251.0,-94.0,2
922,388.0,-275.0,-84.0,2
923,460.0,-275.0,-69.0,2
924,546.0,-257.0,-31.0,2
925,658.0,-237.0,13.0,2
926,711.0,-262.0,68.0,2
927,817.0,-289.0,99.0,2
928,870.0,-335.0,110.0,2
929,865.0,-318.0,133.0,2
930,827.0,-245.0,160.0,2
931,796.0,-215.0,163.0,2
932,688.0,-185.0,153.0,2
933,564.0,-185.0,166.0,2
934,468.0,-177.0,169.0,2
935,382.0,-174.0,133.0,2
936,317.0,-188.0,83.0,2
937,302.0,-158.0,24.0,2
938,267.0,-122.0,6.0,2
939,258.0,-102.0,0.0,2
940,256.0,-89.0,12.0,2
941,236.0,-63.0,19.0,2
942,225.0,-29.0,44.0,2
943,249.0,-9.0,55.0,2
944,199.0,9.0,73.0,2
945,161.0,30.0,95.0,2
946,179.0,35.0,99.0,2
947,165.0,45.0,104.0,2
948,139.0,49.0,122.0,2
949,114.0,42.0,111.0,2
950,159.0,27.0,94.0,2
951,202.0,23.0,84.0,2
952,195.0,43.0,96.0,2
953,220.0,81.0,81.0,2
954,248.0,129.0,68.0,2
955,245.0,179.0,75.0,2
956,225.0,218.0,66.0,2
957,266.0,262.0,51.0,2
958,275.0,300.0,54.0,2
959,269.0,336.0,53.0,2
960,287.0,367.0,62.0,2
961,305.0,395.0,34.0,2
962,286.0,381.0,39.0,2
963,274.0,365.0,49.0,2
964,273.0,339.0,41.0,2
965,243.0,314.0,87.0,2
966,233.0,287.0,121.0,2
967,225.0,264.0,107.0,2
968,208.0,213.0,137.0,2
969,203.0,211.0,126.0,2
970,191.0,194.0,127.0,2
971,163.0,194.0,101.0,2
972,149.0,181.0,93.0,2
973,121.0,172.0,61.0,2
974,93.0,163.0,55.0,2
975,75.0,153.0,43.0,2
976,69.0,137.0,60.0,2
977,63.0,138.0,63.0,2
978,64.0,131.0,68.0,2
979,69.0,121.0,79.0,2
980,87.0,114.0,87.0,2
981,106.0,102.0,99.0,1
982,112.0,99.0,108.0,1
983,118.0,91.0,117.0,1
984,111.0,84.0,117.0,1
985,112.0,81.0,113.0,1
986,133.0,88.0,93.0,1
987,133.0,96.0,101.0,1
988,146.0,101.0,101.0,1
989,158.0,110.0,95.0,1
990,172.0,118.0,96.0,1
991,176.0,124.0,85.0,1
992,181.0,132.0,82.0,1
993,190.0,137.0,78.0,1
994,192.0,146.0,76.0,1
995,195.0,156.0,72.0,1
996,202.0,158.0,67.0,1
997,217.0,162.0,43.0,1
998,216.0,153.0,49.0,1
999,230.0,157.0,38.0,1
1000,242.0,154.0,39.0,1
1001,247.0,149.0,44.0,1
1002,257.0,147.0,43.0,1
1003,264.0,143.0,40.0,1
1004,277.0,138.0,40.0,1
1005,276.0,137.0,41.0,1
1006,281.0,130.0,48.0,1
1007,287.0,128.0,45.0,1
1008,300.0,134.0,47.0,1
1009,289.0,125.0,48.0,1
1010,286.0,118.0,51.0,1
1011,288.0,109.0,55.0,1
1012,288.0,103.0,61.0,1
1013,289.0,99.0,64.0,1
1014,285.0,95.0,65.0,1
1015,286.0,89.0,66.0,1
1016,285.0,85.0,67.0,1
1017,281.0,83.0,73.0,1
1018,280.0,83.0,70.0,1
1019,281.0,80.0,76.0,1
1020,278.0,81.0,71.0,1
1021,269.0,83.0,80.0,1
1022,266.0,89.0,72.0,1
1023,260.0,91.0,66.0,1
1024,250.0,96.0,65.0,1
1025,247.0,98.0,63.0,1
1026,247.0,95.0,58.0,1
1027,235.0,97.0,61.0,1
1028,227.0,97.0,55.0,1
1029,222.0,91.0,51.0,1
1030,224.0,88.0,58.0,1
1031,218.0,88.0,44.0,1
1032,225.0,88.0,52.0,1
1033,225.0,93.0,48.0,1
1034,232.0,96.0,44.0,1
1035,237.0,103.0,42.0,1
1036,238.0,106.0,33.0,1
1037,244.0,104.0,27.0,1
1038,248.0,95.0,24.0,1
1039,250.0,85.0,22.0,1
1040,251.0,69.0,25.0,0
1041,257.0,52.0,28.0,0
1042,261.0,35.0,31.0,0
1043,260.0,22.0,33.0,0
1044,265.0,11.0,38.0,0
1045,272.0,4.0,39.0,0
1046,271.0,2.0,43.0,0
1047,272.0,-1.0,42.0,0
1048,269.0,-7.0,41.0,0
1049,266.0,-12.0,38.0,0
1050,263.0,-11.0,32.0,0
1051,259.0,-12.0,34.0,0
1052,258.0,-8.0,26.0,0
1053,263.0,-9.0,24.0,0
1054,264.0,-5.0,20.0,0
1055,258.0,-15.0,21.0,0
1056,259.0,-12.0,11.0,0
1057,265.0,-10.0,5.0,0
1058,273.0,-12.0,7.0,0
1059,281.0,-5.0,0.0,0
1060,286.0,-1.0,-2.0,0
1061,285.0,2.0,-8.0,0
1062,292.0,4.0,-9.0,0
1063,290.0,6.0,-16.0,0
1064,299.0,5.0,-15.0,0
1065,298.0,1.0,-13.0,0
1066,297.0,-1.0,-14.0,0
1067,299.0,-6.0,-25.0,0
1068,305.0,-8.0,-21.0,0
1069,305.0,-5.0,-25.0,0
1070,310.0,-9.0,-23.0,0
1071,311.0,-9.0,-25.0,0
1072,306.0,-21.0,-27.0,0
1073,305.0,-22.0,-33.0,0
1074,305.0,-25.0,-32.0,0
1075,304.0,-32.0,-38.0,0
1076,300.0,-31.0,-35.0,0
1077,296.0,-36.0,-33.0,0
1078,296.0,-35.0,-37.0,0
1079,299.0,-44.0,-35.0,0
1080,288.0,-43.0,-33.0,0
1081,289.0,-48.0,-34.0,0
1082,289.0,-51.0,-34.0,0
1083,292.0,-48.0,-30.0,0
1084,292.0,-42.0,-29.0,0
1085,292.0,-39.0,-32.0,0
1086,289.0,-30.0,-33.0,0
1087,284.0,-26.0,-39.0,0
1088,279.0,-20.0,-44.0,0
1089,284.0,-25.0,-42.0,0
1090,282.0,-21.0,-42.0,0
1091,287.0,-24.0,-46.0,0
1092,288.0,-26.0,-44.0,0
1093,298.0,-29.0,-45.0,0
1094,299.0,-29.0,-46.0,0
1095,301.0,-27.0,-42.0,0
1096,298.0,-25.0,-38.0,0
1097,301.0,-23.0,-40.0,0
1098,301.0,-19.0,-36.0,0
1099,303.0,-17.0,-28.0,0
1100,302.0,-12.0,-31.0,0
1101,303.0,-11.0,-33.0,0
1102,307.0,-2.0,-31.0,0
1103,300.0,1.0,-26.0,0
1104,297.0,3.0,-25.0,0
1105,294.0,5.0,-26.0,0
1106,295.0,5.0,-29.0,0
1107,291.0,6.0,-20.0,0
1108,288.0,6.0,-28.0,0
1109,285.0,9.0,-24.0,0
1110,284.0,8.0,-23.0,0
1111,283.0,12.0,-23.0,0
1112,281.0,10.0,-19.0,0
1113,278.0,14.0,-14.0,0
1114,275.0,15.0,-13.0,0
1115,278.0,14.0,-11.0,0
1116,274.0,17.0,-8.0,0
1117,272.0,20.0,-4.0,0
1118,275.0,17.0,0.0,0
1119,273.0,24.0,-1.0,0
1120,278.0,22.0,0.0,0
1121,275.0,27.0,-3.0,0
1122,276.0,29.0,-2.0,0
1123,278.0,27.0,-1.0,0
1124,278.0,30.0,1.0,0
1125,278.0,28.0,4.0,0
1126,280.0,29.0,5.0,0
1127,276.0,30.0,6.0,0
1128,280.0,34.0,6.0,0
1129,275.0,34.0,3.0,0
1130,273.0,34.0,1.0,0
1131,277.0,37.0,6.0,0
1132,276.0,35.0,5.0,0
1133,273.0,38.0,5.0,0
1134,267.0,36.0,4.0,0
1135,273.0,41.0,6.0,0
1136,273.0,38.0,8.0,0
1137,274.0,41.0,10.0,0
1138,271.0,41.0,8.0,0
1139,271.0,40.0,11.0,0
1140,271.0,41.0,10.0,0
1141,273.0,42.0,11.0,0
1142,279.0,44.0,12.0,0
1143,273.0,47.0,12.0,0
1144,274.0,45.0,14.0,0
1145,272.0,49.0,13.0,0
1146,274.0,45.0,13.0,0
1147,272.0,46.0,10.0,0
1148,272.0,47.0,14.0,0
1149,271.0,47.0,16.0,0
1150,270.0,46.0,14.0,0
1151,271.0,43.0,13.0,0
1152,270.0,46.0,17.0,0
1153,271.0,43.0,16.0,0
1154,274.0,43.0,14.0,0
1155,274.0,41.0,17.0,0
1156,271.0,38.0,17.0,0
1157,270.0,38.0,16.0,0
1158,270.0,40.0,21.0,0
1159,272.0,37.0,18.0,0
1160,271.0,35.0,17.0,0
1161,268.0,36.0,15.0,0
1162,269.0,37.0,23.0,0
1163,273.0,34.0,15.0,0
1164,269.0,38.0,16.0,0
1165,272.0,35.0,17.0,0
1166,270.0,34.0,18.0,0
1167,270.0,32.0,17.0,0
1168,267.0,35.0,19.0,0
1169,270.0,31.0,20.0,0
1170,270.0,31.0,17.0,0
1171,268.0,31.0,22.0,0
1172,272.0,29.0,18.0,0
1173,267.0,28.0,18.0,0
1174,269.0,27.0,19.0,0
1175,273.0,25.0,15.0,0
1176,271.0,27.0,13.0,0
1177,272.0,26.0,17.0,0
1178,274.0,23.0,17.0,0
1179,272.0,22.0,17.0,0
1180,271.0,25.0,13.0,0
1181,276.0,23.0,10.0,0
1182,276.0,20.0,11.0,0
1183,276.0,20.0,14.0,0
1184,277.0,23.0,9.0,0
1185,277.0,23.0,14.0,0
1186,278.0,24.0,14.0,0
1187,278.0,25.0,7.0,0
1188,278.0,24.0,5.0,0
1189,278.0,23.0,12.0,0
1190,277.0,25.0,9.0,0
1191,277.0,23.0,5.0,0
1192,279.0,23.0,3.0,0
1193,283.0,23.0,6.0,0
1194,281.0,23.0,5.0,0
1195,283.0,23.0,10.0,0
1196,280.0,22.0,5.0,0
1197,279.0,20.0,7.0,0
1198,282.0,21.0,9.0,0
1199,278.0,21.0,5.0,0
1200,278.0,21.0,3.0,0
1201,278.0,19.0,5.0,0
1202,275.0,24.0,10.0,0
1203,277.0,23.0,13.0,0
1204,275.0,25.0,9.0,0
1205,272.0,25.0,10.0,0
1206,276.0,27.0,9.0,0
1207,273.0,27.0,14.0,0
1208,271.0,27.0,12.0,0
1209,270.0,26.0,11.0,0
1210,272.0,31.0,9.0,0
1211,273.0,33.0,10.0,0
1212,273.0,30.0,6.0,0
1213,276.0,27.0,9.0,0
1214,278.0,30.0,9.0,0
1215,274.0,29.0,13.0,0
1216,274.0,28.0,8.0,0
1217,277.0,29.0,10.0,0
1218,278.0,30.0,10.0,0
1219,278.0,28.0,13.0,0
1220,275.0,31.0,11.0,0
1221,277.0,32.0,11.0,0
1222,274.0,29.0,12.0,0
1223,272.0,30.0,14.0,0
1224,272.0,30.0,12.0,0
1225,275.0,31.0,10.0,0
1226,273.0,31.0,8.0,0
1227,274.0,31.0,8.0,0
1228,273.0,32.0,14.0,0
1229,277.0,31.0,11.0,0
1230,273.0,34.0,13.0,0
1231,277.0,30.0,11.0,0
1232,275.0,30.0,10.0,0
1233,275.0,31.0,9.0,0
1234,276.0,30.0,10.0,0
1235,275.0,29.0,9.0,0
1236,274.0,31.0,10.0,0
1237,275.0,28.0,9.0,0
1238,272.0,30.0,12.0,0
1239,275.0,31.0,13.0,0
1240,277.0,29.0,5.0,0
1241,277.0,27.0,12.0,0
1242,275.0,26.0,10.0,0
1243,281.0,27.0,5.0,0
1244,276.0,26.0,9.0,0
1245,275.0,25.0,5.0,0
1246,277.0,26.0,6.0,0
1247,274.0,27.0,9.0,0
1248,276.0,27.0,9.0,0
1249,278.0,24.0,6.0,0
1250,275.0,24.0,3.0,0
1251,278.0,23.0,7.0,0
1252,277.0,23.0,8.0,0
1253,280.0,21.0,10.0,0
1254,278.0,25.0,6.0,0
1255,277.0,25.0,7.0,0
1256,279.0,23.0,6.0,0
1257,277.0,20.0,5.0,0
1258,281.0,20.0,6.0,0
1259,278.0,19.0,11.0,0
1260,278.0,20.0,7.0,0
1261,278.0,22.0,8.0,0
1262,278.0,24.0,9.0,0
1263,274.0,24.0,4.0,0
1264,277.0,23.0,2.0,0
1265,279.0,23.0,4.0,0
1266,278.0,21.0,8.0,0
1267,277.0,22.0,8.0,0
1268,277.0,24.0,4.0,0
1269,275.0,22.0,4.0,0
1270,276.0,21.0,3.0,0
1271,277.0,22.0,5.0,0
1272,279.0,18.0,4.0,0
1273,279.0,20.0,5.0,0
1274,277.0,20.0,3.0,0
1275,277.0,19.0,7.0,0
1276,276.0,19.0,3.0,0
1277,277.0,24.0,3.0,0
1278,279.0,21.0,5.0,0
1279,279.0,21.0,5.0,0
1280,276.0,18.0,7.0,0
1281,278.0,22.0,1.0,0
1282,279.0,20.0,6.0,0
1283,278.0,23.0,4.0,0
1284,280.0,22.0,3.0,0
1285,278.0,20.0,2.0,0
1286,279.0,23.0,9.0,0
1287,277.0,26.0,8.0,0
1288,279.0,24.0,5.0,0
1289,279.0,24.0,7.0,0
1290,276.0,23.0,7.0,0
1291,284.0,34.0,-6.0,0
1292,275.0,29.0,8.0,0
1293,279.0,25.0,5.0,0
1294,276.0,27.0,5.0,0
1295,278.0,27.0,9.0,0
1296,277.0,24.0,8.0,0
1297,274.0,26.0,7.0,0
1298,275.0,25.0,6.0,0
1299,275.0,26.0,5.0,0
1300,277.0,25.0,10.0,0
1301,281.0,23.0,7.0,0
1302,277.0,39.0,-7.0,0
1303,273.0,27.0,9.0,0
1304,277.0,22.0,10.0,0
1305,276.0,23.0,10.0,0
1306,275.0,26.0,8.0,0
1307,276.0,25.0,9.0,0
1308,275.0,28.0,6.0,0
1309,277.0,25.0,3.0,0
1310,279.0,22.0,7.0,0
1311,275.0,27.0,3.0,0
1312,277.0,27.0,6.0,0
1313,275.0,37.0,12.0,0
1314,275.0,24.0,7.0,0
1315,274.0,25.0,6.0,0
1316,276.0,25.0,5.0,0
1317,277.0,26.0,8.0,0
1318,279.0,23.0,6.0,0
1319,278.0,24.0,3.0,0
1320,278.0,23.0,6.0,0
1321,275.0,25.0,6.0,0
1322,278.0,25.0,6.0,0
1323,275.0,25.0,7.0,0
1324,273.0,24.0,16.0,0
1325,273.0,22.0,6.0,0
1326,276.0,25.0,7.0,0
1327,275.0,22.0,6.0,0
1328,273.0,22.0,7.0,0
1329,275.0,21.0,3.0,0
1330,275.0,24.0,9.0,0
1331,278.0,21.0,7.0,0
1332,277.0,20.0,8.0,0
1333,276.0,21.0,7.0,0
1334,279.0,20.0,5.0,0
1335,278.0,22.0,7.0,0
1336,277.0,20.0,7.0,0
1337,278.0,23.0,7.0,0
1338,280.0,19.0,5.0,0
1339,277.0,20.0,2.0,0
1340,277.0,21.0,2.0,0
1341,278.0,21.0,8.0,0
1342,278.0,19.0,7.0,0
1343,276.0,22.0,7.0,0
1344,277.0,22.0,4.0,0
1345,274.0,21.0,9.0,0
1346,276.0,23.0,5.0,0
1347,276.0,22.0,5.0,0
1348,274.0,23.0,8.0,0
1349,274.0,21.0,5.0,0
1350,278.0,22.0,3.0,0
1351,279.0,21.0,6.0,0
1352,276.0,22.0,6.0,0
1353,277.0,24.0,5.0,0
1354,277.0,21.0,7.0,0
1355,276.0,22.0,6.0,0
1356,275.0,24.0,9.0,0
1357,278.0,20.0,7.0,0
1358,276.0,21.0,7.0,0
1359,275.0,25.0,8.0,0
1360,278.0,22.0,10.0,0
1361,275.0,25.0,6.0,0
1362,277.0,20.0,6.0,0
1363,276.0,24.0,9.0,0
1364,275.0,25.0,5.0,0
1365,276.0,25.0,5.0,0
1366,276.0,23.0,5.0,0
1367,277.0,23.0,8.0,0
1368,276.0,25.0,5.0,0
1369,275.0,25.0,5.0,0
1370,280.0,22.0,5.0,0
1371,276.0,24.0,3.0,0
1372,279.0,22.0,7.0,0
1373,279.0,23.0,3.0,0
1374,278.0,25.0,5.0,0
1375,277.0,23.0,4.0,0
1376,279.0,23.0,4.0,0
1377,278.0,21.0,6.0,0
1378,277.0,24.0,6.0,0
1379,277.0,21.0,4.0,0
1380,275.0,25.0,9.0,0
1381,276.0,22.0,7.0,0
1382,279.0,20.0,9.0,0
1383,274.0,22.0,8.0,0
1384,276.0,21.0,6.0,0
1385,277.0,19.0,5.0,0
1386,278.0,20.0,9.0,0
1387,276.0,20.0,9.0,0
1388,277.0,21.0,7.0,0
1389,277.0,23.0,3.0,0
1390,276.0,26.0,4.0,0
1391,275.0,23.0,11.0,0
1392,277.0,22.0,6.0,0
1393,278.0,22.0,7.0,0
1394,276.0,26.0,9.0,0
1395,278.0,20.0,3.0,0
1396,276.0,21.0,7.0,0
1397,278.0,22.0,5.0,0
1398,275.0,24.0,4.0,0
1399,276.0,24.0,6.0,0
1400,276.0,21.0,8.0,0
1401,278.0,20.0,7.0,0
1402,277.0,24.0,6.0,0
1403,278.0,22.0,7.0,0
1404,278.0,22.0,5.0,0
1405,277.0,23.0,5.0,0
1406,277.0,23.0,12.0,0
1407,278.0,23.0,6.0,0
1408,277.0,23.0,10.0,0
1409,280.0,23.0,6.0,0
1410,275.0,25.0,9.0,0
1411,277.0,25.0,3.0,0
1412,278.0,22.0,8.0,0
1413,278.0,21.0,10.0,0
1414,279.0,23.0,7.0,0
1415,277.0,25.0,6.0,0
1416,276.0,25.0,9.0,0
1417,280.0,25.0,6.0,0
1418,276.0,23.0,7.0,0
1419,278.0,22.0,8.0,0
1420,276.0,24.0,7.0,0
1421,274.0,22.0,9.0,0
1422,278.0,22.0,8.0,0
1423,274.0,24.0,9.0,0
1424,277.0,22.0,6.0,0
1425,277.0,24.0,7.0,0
1426,274.0,27.0,12.0,0
1427,278.0,24.0,11.0,0
1428,274.0,24.0,9.0,0
1429,276.0,24.0,13.0,0
1430,274.0,23.0,10.0,0
1431,275.0,24.0,10.0,0
1432,276.0,26.0,11.0,0
1433,276.0,25.0,12.0,0
1434,278.0,24.0,11.0,0
1435,278.0,22.0,10.0,0
1436,276.0,19.0,9.0,0
1437,276.0,23.0,11.0,0
1438,274.0,21.0,11.0,0
1439,276.0,22.0,14.0,0
1440,278.0,22.0,9.0,0
1441,277.0,22.0,9.0,0
1442,276.0,23.0,10.0,0
1443,275.0,24.0,14.0,0
1444,278.0,23.0,10.0,0
1445,275.0,23.0,9.0,0
1446,273.0,24.0,14.0,0
1447,277.0,26.0,10.0,0
1448,275.0,24.0,9.0,0
1449,276.0,24.0,9.0,0
1450,276.0,22.0,9.0,0
1451,277.0,25.0,10.0,0
1452,275.0,25.0,11.0,0
1453,276.0,25.0,12.0,0
1454,272.0,25.0,9.0,0
1455,276.0,25.0,12.0,0
1456,277.0,25.0,14.0,0
1457,275.0,24.0,8.0,0
1458,277.0,24.0,9.0,0
1459,274.0,22.0,10.0,0
1460,275.0,24.0,10.0,0
1461,275.0,24.0,9.0,0
1462,278.0,21.0,10.0,0
1463,275.0,22.0,11.0,0
1464,277.0,22.0,9.0,0
1465,275.0,24.0,11.0,0
1466,275.0,21.0,10.0,0
1467,274.0,24.0,10.0,0
1468,276.0,25.0,5.0,0
1469,273.0,26.0,12.0,0
1470,278.0,26.0,10.0,0
1471,279.0,23.0,8.0,0
1472,276.0,23.0,10.0,0
1473,276.0,23.0,11.0,0
1474,277.0,23.0,8.0,0
1475,276.0,24.0,11.0,0
1476,279.0,22.0,10.0,0
1477,277.0,27.0,6.0,0
1478,276.0,25.0,8.0,0
1479,275.0,25.0,11.0,0
1480,275.0,25.0,7.0,0
1481,274.0,23.0,9.0,0
1482,276.0,26.0,9.0,0
1483,277.0,23.0,11.0,0
1484,277.0,24.0,11.0,0
1485,275.0,23.0,11.0,0
1486,275.0,27.0,9.0,0
1487,277.0,26.0,7.0,0
1488,276.0,22.0,7.0,0
1489,276.0,25.0,9.0,0
1490,278.0,23.0,10.0,0
1491,278.0,25.0,10.0,0
1492,277.0,22.0,12.0,0
1493,275.0,28.0,10.0,0
1494,273.0,26.0,6.0,0
1495,275.0,24.0,12.0,0
1496,275.0,25.0,9.0,0
1497,272.0,25.0,11.0,0
1498,276.0,27.0,13.0,0
1499,276.0,23.0,10.0,0
1500,275.0,27.0,10.0,0
1501,272.0,27.0,10.0,0
1502,273.0,24.0,10.0,0
1503,277.0,26.0,8.0,0
1504,275.0,26.0,13.0,0
1505,272.0,23.0,12.0,0
1506,276.0,23.0,6.0,0
1507,277.0,27.0,9.0,0
1508,279.0,25.0,14.0,0
1509,275.0,27.0,9.0,0
1510,276.0,25.0,8.0,0
1511,274.0,25.0,10.0,0
1512,277.0,24.0,11.0,0
1513,277.0,26.0,10.0,0
1514,278.0,21.0,8.0,0
1515,274.0,24.0,9.0,0
1516,276.0,23.0,10.0,0
1517,277.0,21.0,8.0,0
1518,274.0,21.0,13.0,0
1519,273.0,22.0,16.0,0
1520,275.0,22.0,13.0,0
1521,275.0,24.0,15.0,0
1522,275.0,23.0,12.0,0
1523,277.0,24.0,14.0,0
1524,278.0,22.0,8.0,0
1525,274.0,26.0,12.0,0
1526,276.0,27.0,7.0,0
1527,277.0,26.0,5.0,0
1528,277.0,26.0,4.0,0
1529,277.0,26.0,8.0,0
1530,276.0,25.0,9.0,0
1531,274.0,25.0,11.0,0
1532,275.0,26.0,10.0,0
1533,278.0,27.0,12.0,0
1534,275.0,27.0,12.0,0
1535,275.0,23.0,17.0,0
1536,275.0,24.0,12.0,0
1537,274.0,26.0,13.0,0
1538,276.0,27.0,17.0,0
1539,276.0,25.0,10.0,0
1540,276.0,26.0,13.0,0
1541,275.0,26.0,12.0,0
1542,273.0,28.0,9.0,0
1543,272.0,28.0,11.0,0
1544,275.0,27.0,13.0,0
1545,277.0,24.0,14.0,0
1546,273.0,28.0,12.0,0
1547,274.0,29.0,12.0,0
1548,274.0,26.0,12.0,0
1549,275.0,28.0,12.0,0
1550,274.0,27.0,12.0,0
1551,274.0,25.0,12.0,0
1552,276.0,27.0,13.0,0
1553,275.0,24.0,17.0,0
1554,278.0,24.0,11.0,0
1555,275.0,26.0,12.0,0
1556,276.0,22.0,10.0,0
1557,276.0,28.0,15.0,0
1558,277.0,25.0,10.0,0
1559,276.0,25.0,11.0,0
1560,276.0,27.0,12.0,0
1561,274.0,27.0,11.0,0
1562,275.0,28.0,12.0,0
1563,273.0,27.0,15.0,0
1564,276.0,24.0,13.0,0
1565,274.0,28.0,12.0,0
1566,274.0,26.0,10.0,0
1567,276.0,24.0,13.0,0
1568,277.0,27.0,12.0,0
1569,276.0,25.0,14.0,0
1570,276.0,26.0,12.0,0
1571,276.0,25.0,16.0,0
1572,276.0,26.0,10.0,0
1573,276.0,24.0,14.0,0
1574,276.0,24.0,11.0,0
1575,276.0,26.0,13.0,0
1576,272.0,26.0,10.0,0
1577,272.0,25.0,14.0,0
1578,274.0,25.0,8.0,0
1579,275.0,27.0,11.0,0
1580,275.0,26.0,12.0,0
1581,275.0,29.0,13.0,0
1582,272.0,31.0,7.0,0
1583,274.0,26.0,9.0,0
1584,274.0,26.0,13.0,0
1585,284.0,15.0,24.0,0
1586,274.0,26.0,12.0,0
1587,273.0,28.0,14.0,0
1588,273.0,28.0,11.0,0
1589,275.0,23.0,13.0,0
1590,272.0,24.0,17.0,0
1591,275.0,26.0,11.0,0
1592,275.0,24.0,17.0,0
1593,273.0,24.0,12.0,0
1594,273.0,27.0,16.0,0
1595,275.0,26.0,15.0,0
1596,266.0,26.0,27.0,0
1597,276.0,27.0,15.0,0
1598,274.0,25.0,14.0,0
1599,274.0,28.0,14.0,0
1600,277.0,26.0,13.0,0
1601,273.0,27.0,13.0,0
1602,276.0,28.0,12.0,0
1603,275.0,29.0,15.0,0
1604,274.0,27.0,16.0,0
1605,275.0,26.0,10.0,0
1606,276.0,30.0,12.0,0
1607,263.0,29.0,19.0,0
1608,275.0,26.0,17.0,0
1609,275.0,30.0,13.0,0
1610,272.0,26.0,13.0,0
1611,275.0,28.0,15.0,0
1612,276.0,26.0,16.0,0
1613,272.0,28.0,15.0,0
1614,275.0,24.0,15.0,0
1615,277.0,28.0,13.0,0
1616,274.0,27.0,12.0,0
1617,276.0,27.0,14.0,0
1618,273.0,25.0,22.0,0
1619,275.0,27.0,14.0,0
1620,274.0,23.0,15.0,0
1621,276.0,28.0,13.0,0
1622,275.0,28.0,9.0,0
1623,275.0,20.0,13.0,0
1624,277.0,27.0,16.0,0
1625,275.0,28.0,12.0,0
1626,273.0,26.0,15.0,0
1627,274.0,28.0,12.0,0
1628,276.0,30.0,15.0,0
1629,271.0,31.0,8.0,0
1630,276.0,27.0,14.0,0
1631,274.0,28.0,16.0,0
1632,274.0,28.0,10.0,0
1633,277.0,27.0,16.0,0
1634,273.0,29.0,18.0,0
1635,275.0,25.0,12.0,0
1636,275.0,27.0,13.0,0
1637,276.0,29.0,13.0,0
1638,273.0,29.0,13.0,0
1639,275.0,25.0,16.0,0
1640,277.0,29.0,11.0,0
1641,273.0,29.0,15.0,0
1642,273.0,27.0,14.0,0
1643,272.0,26.0,16.0,0
1644,275.0,27.0,15.0,0
1645,276.0,27.0,10.0,0
1646,276.0,27.0,11.0,0
1647,274.0,29.0,13.0,0
1648,275.0,27.0,14.0,0
1649,276.0,29.0,9.0,0
1650,276.0,28.0,11.0,0
1651,278.0,26.0,11.0,0
1652,275.0,26.0,13.0,0
1653,273.0,27.0,10.0,0
1654,277.0,26.0,12.0,0
1655,277.0,29.0,11.0,0
1656,273.0,25.0,12.0,0
1657,274.0,25.0,16.0,0
1658,274.0,26.0,14.0,0
1659,275.0,29.0,12.0,0
1660,276.0,24.0,11.0,0
1661,277.0,26.0,14.0,0
1662,274.0,26.0,12.0,0
1663,274.0,26.0,14.0,0
1664,275.0,26.0,10.0,0
1665,272.0,30.0,13.0,0
1666,275.0,25.0,12.0,0
1667,271.0,26.0,13.0,0
1668,276.0,27.0,8.0,0
1669,274.0,26.0,8.0,0
1670,273.0,26.0,9.0,0
1671,275.0,26.0,9.0,0
1672,276.0,27.0,15.0,0
1673,276.0,25.0,15.0,0
1674,276.0,26.0,12.0,0
1675,275.0,24.0,12.0,0
1676,275.0,27.0,11.0,0
1677,279.0,22.0,14.0,0
1678,274.0,27.0,12.0,0
1679,279.0,24.0,9.0,0
1680,275.0,23.0,12.0,0
1681,274.0,23.0,11.0,0
1682,272.0,25.0,14.0,0
1683,274.0,25.0,13.0,0
1684,275.0,25.0,11.0,0
1685,280.0,26.0,11.0,0
1686,279.0,28.0,11.0,0
1687,277.0,26.0,9.0,0
1688,279.0,26.0,10.0,0
1689,275.0,25.0,10.0,0
1690,276.0,27.0,15.0,0
1691,277.0,28.0,11.0,0
1692,278.0,26.0,14.0,0
1693,274.0,25.0,11.0,0
1694,275.0,23.0,9.0,0
1695,275.0,24.0,9.0,0
1696,276.0,24.0,11.0,0
1697,275.0,23.0,11.0,0
1698,273.0,22.0,12.0,0
1699,275.0,29.0,14.0,0
1700,274.0,26.0,10.0,0
1701,274.0,24.0,11.0,0
1702,272.0,23.0,13.0,0
1703,275.0,24.0,12.0,0
1704,274.0,26.0,13.0,0
1705,275.0,27.0,12.0,0
1706,275.0,24.0,12.0,0
1707,275.0,28.0,2.0,0
1708,276.0,27.0,8.0,0
1709,275.0,26.0,8.0,0
1710,275.0,25.0,7.0,0
1711,276.0,26.0,13.0,0
1712,273.0,27.0,11.0,0
1713,278.0,25.0,9.0,0
1714,276.0,27.0,10.0,0
1715,276.0,27.0,12.0,0
1716,273.0,25.0,9.0,0
1717,274.0,26.0,10.0,0
1718,276.0,26.0,14.0,0
1719,278.0,25.0,11.0,0
1720,275.0,28.0,11.0,0
1721,278.0,27.0,10.0,0
1722,275.0,27.0,13.0,0
1723,275.0,24.0,9.0,0
1724,275.0,23.0,10.0,0
1725,274.0,25.0,10.0,0
1726,275.0,25.0,13.0,0
1727,275.0,28.0,13.0,0
1728,276.0,25.0,10.0,0
1729,276.0,26.0,11.0,0
1730,278.0,26.0,10.0,0
1731,275.0,27.0,8.0,0
1732,274.0,27.0,12.0,0
1733,276.0,28.0,11.0,0
1734,272.0,27.0,10.0,0
1735,276.0,26.0,8.0,0
1736,273.0,25.0,9.0,0
1737,274.0,27.0,9.0,0
1738,275.0,25.0,10.0,0
1739,278.0,19.0,8.0,0
1740,275.0,24.0,9.0,0
1741,272.0,26.0,10.0,0
1742,276.0,23.0,7.0,0
1743,275.0,24.0,9.0,0
1744,276.0,23.0,8.0,0
1745,278.0,24.0,8.0,0
1746,276.0,25.0,9.0,0
1747,277.0,22.0,8.0,0
1748,275.0,26.0,8.0,0
1749,278.0,24.0,8.0,0
1750,276.0,24.0,6.0,0
1751,275.0,23.0,10.0,0
1752,275.0,23.0,10.0,0
1753,277.0,22.0,9.0,0
1754,276.0,21.0,8.0,0
1755,279.0,22.0,11.0,0
1756,277.0,22.0,8.0,0
1757,277.0,23.0,10.0,0
1758,277.0,22.0,8.0,0
1759,278.0,22.0,11.0,0
1760,276.0,26.0,11.0,0
1761,274.0,26.0,11.0,0
1762,275.0,23.0,11.0,0
1763,278.0,25.0,14.0,0
1764,277.0,24.0,6.0,0
1765,275.0,26.0,9.0,0
1766,274.0,23.0,6.0,0
1767,276.0,21.0,6.0,0
1768,280.0,21.0,6.0,0
1769,274.0,23.0,6.0,0
1770,271.0,25.0,10.0,0
1771,276.0,23.0,12.0,0
1772,276.0,24.0,8.0,0
1773,276.0,24.0,8.0,0
1774,277.0,23.0,10.0,0
1775,275.0,22.0,5.0,0
1776,275.0,23.0,7.0,0
1777,278.0,23.0,7.0,0
1778,277.0,23.0,7.0,0
1779,276.0,25.0,9.0,0
1780,277.0,23.0,8.0,0
1781,273.0,25.0,8.0,0
1782,276.0,25.0,10.0,0
1783,277.0,24.0,7.0,0
1784,278.0,24.0,10.0,0
1785,277.0,22.0,7.0,0
1786,276.0,23.0,9.0,0
1787,276.0,27.0,10.0,0
1788,277.0,25.0,9.0,0
1789,278.0,21.0,7.0,0
1790,275.0,25.0,10.0,0
1791,276.0,22.0,7.0,0
1792,275.0,25.0,8.0,0
1793,274.0,21.0,4.0,0
1794,277.0,23.0,7.0,0
1795,278.0,23.0,3.0,0
1796,274.0,24.0,3.0,0
1797,278.0,25.0,7.0,0
1798,276.0,23.0,8.0,0
1799,278.0,20.0,6.0,0
1800,276.0,24.0,5.0,0
1801,279.0,25.0,7.0,0
1802,276.0,23.0,7.0,0
1803,276.0,25.0,7.0,0
1804,275.0,22.0,8.0,0
1805,275.0,22.0,4.0,0
1806,276.0,22.0,7.0,0
1807,275.0,21.0,8.0,0
1808,277.0,22.0,5.0,0
1809,276.0,23.0,5.0,0
1810,278.0,22.0,6.0,0
1811,275.0,23.0,7.0,0
1812,277.0,20.0,5.0,0
1813,277.0,22.0,9.0,0
1814,276.0,20.0,9.0,0
1815,277.0,19.0,4.0,0
1816,276.0,21.0,5.0,0
1817,276.0,22.0,6.0,0
1818,276.0,24.0,6.0,0
1819,277.0,24.0,5.0,0
1820,279.0,19.0,5.0,0
1821,278.0,21.0,4.0,0
1822,277.0,24.0,5.0,0
1823,276.0,23.0,9.0,0
1824,278.0,20.0,9.0,0
1825,277.0,22.0,7.0,0
1826,278.0,22.0,4.0,0
1827,277.0,22.0,4.0,0
1828,277.0,21.0,5.0,0
1829,282.0,21.0,6.0,0
1830,278.0,20.0,4.0,0
1831,276.0,22.0,4.0,0
1832,278.0,22.0,7.0,0
1833,276.0,22.0,1.0,0
1834,276.0,22.0,4.0,0
1835,276.0,20.0,3.0,0
1836,277.0,22.0,2.0,0
1837,278.0,20.0,1.0,0
1838,277.0,21.0,1.0,0
1839,279.0,21.0,9.0,0
1840,277.0,21.0,8.0,0
1841,280.0,23.0,1.0,0
1842,275.0,21.0,4.0,0
1843,278.0,19.0,5.0,0
1844,276.0,23.0,6.0,0
1845,276.0,23.0,2.0,0
1846,278.0,23.0,9.0,0
1847,276.0,20.0,7.0,0
1848,273.0,21.0,8.0,0
1849,278.0,23.0,10.0,0
1850,277.0,23.0,5.0,0
1851,277.0,21.0,6.0,0
1852,277.0,22.0,6.0,0
1853,274.0,23.0,6.0,0
1854,276.0,21.0,5.0,0
1855,277.0,23.0,4.0,0
1856,279.0,21.0,4.0,0
1857,277.0,20.0,7.0,0
1858,280.0,20.0,7.0,0
1859,277.0,22.0,4.0,0
1860,273.0,22.0,4.0,0
1861,276.0,22.0,8.0,0
1862,277.0,23.0,7.0,0
1863,274.0,23.0,2.0,0
1864,276.0,24.0,6.0,0
1865,277.0,23.0,4.0,0
1866,279.0,23.0,12.0,0
1867,276.0,23.0,8.0,0
1868,277.0,19.0,6.0,0
1869,275.0,21.0,8.0,0
1870,278.0,22.0,8.0,0
1871,277.0,21.0,8.0,0
1872,276.0,23.0,11.0,0
1873,275.0,23.0,6.0,0
1874,274.0,26.0,7.0,0
1875,272.0,26.0,8.0,0
1876,276.0,25.0,5.0,0
1877,275.0,25.0,6.0,0
1878,277.0,27.0,2.0,0
1879,278.0,24.0,5.0,0
1880,280.0,23.0,6.0,0
1881,274.0,28.0,6.0,0
1882,278.0,24.0,6.0,0
1883,277.0,23.0,10.0,0
1884,277.0,24.0,7.0,0
1885,277.0,27.0,9.0,0
1886,276.0,30.0,7.0,0
1887,274.0,27.0,8.0,0
1888,277.0,28.0,10.0,0
1889,276.0,24.0,6.0,0
1890,273.0,26.0,6.0,0
1891,275.0,25.0,9.0,0
1892,274.0,29.0,13.0,0
1893,275.0,22.0,6.0,0
1894,277.0,24.0,6.0,0
1895,275.0,25.0,7.0,0
1896,277.0,25.0,6.0,0
1897,277.0,23.0,3.0,0
1898,275.0,21.0,6.0,0
1899,277.0,25.0,6.0,0
1900,276.0,25.0,11.0,0
1901,284.0,19.0,-1.0,0
1902,276.0,22.0,7.0,0
1903,273.0,22.0,9.0,0
1904,274.0,23.0,8.0,0
1905,274.0,21.0,6.0,0
1906,276.0,23.0,11.0,0
1907,274.0,24.0,5.0,0
1908,275.0,26.0,8.0,0
1909,273.0,28.0,11.0,0
1910,275.0,27.0,9.0,0
1911,275.0,28.0,13.0,0
1912,270.0,21.0,19.0,0
1913,274.0,27.0,9.0,0
1914,277.0,30.0,9.0,0
1915,276.0,27.0,6.0,0
1916,276.0,24.0,8.0,0
1917,278.0,24.0,9.0,0
1918,273.0,21.0,12.0,0
1919,275.0,25.0,16.0,0
1920,277.0,23.0,12.0,0
1921,274.0,25.0,8.0,0
1922,276.0,23.0,11.0,0
1923,272.0,19.0,21.0,0
1924,273.0,24.0,10.0,0
1925,275.0,22.0,12.0,0
1926,274.0,22.0,13.0,0
1927,272.0,23.0,9.0,0
1928,276.0,23.0,11.0,0
1929,273.0,26.0,8.0,0
1930,275.0,23.0,8.0,0
1931,273.0,25.0,12.0,0
1932,274.0,21.0,8.0,0
1933,275.0,20.0,10.0,0
1934,279.0,23.0,15.0,0
1935,277.0,24.0,12.0,0
1936,276.0,27.0,6.0,0
1937,278.0,24.0,7.0,0
1938,276.0,23.0,7.0,0
1939,278.0,25.0,10.0,0
1940,279.0,23.0,10.0,0
1941,278.0,23.0,5.0,0
1942,280.0,26.0,4.0,0
1943,281.0,25.0,11.0,0
1944,281.0,23.0,4.0,0
1945,281.0,23.0,9.0,0
1946,278.0,25.0,7.0,0
1947,278.0,25.0,7.0,0
1948,282.0,23.0,4.0,0
1949,280.0,26.0,3.0,0
1950,279.0,21.0,5.0,0
1951,279.0,23.0,6.0,0
1952,279.0,23.0,7.0,0
1953,278.0,21.0,4.0,0
1954,278.0,23.0,8.0,0
1955,278.0,26.0,10.0,0
1956,279.0,22.0,5.0,0
1957,278.0,23.0,7.0,0
1958,275.0,25.0,11.0,0
1959,285.0,19.0,8.0,0
1960,278.0,22.0,6.0,0
1961,273.0,22.0,12.0,0
1962,276.0,25.0,9.0,0
1963,277.0,24.0,11.0,0
1964,277.0,27.0,10.0,0
1965,277.0,26.0,8.0,0
1966,276.0,23.0,8.0,0
1967,274.0,25.0,10.0,0
1968,277.0,26.0,11.0,0
1969,278.0,23.0,8.0,0
1970,275.0,26.0,11.0,0
1971,271.0,27.0,12.0,0
1972,277.0,27.0,12.0,0
1973,274.0,27.0,11.0,0
1974,273.0,26.0,13.0,0
1975,275.0,26.0,13.0,0
1976,275.0,25.0,11.0,0
1977,275.0,28.0,15.0,0
1978,275.0,26.0,14.0,0
1979,272.0,27.0,11.0,0
1980,273.0,27.0,13.0,0
1981,274.0,29.0,17.0,0
1982,276.0,24.0,14.0,0
1983,276.0,27.0,20.0,0
1984,275.0,25.0,18.0,0
1985,273.0,27.0,14.0,0
1986,273.0,28.0,19.0,0
1987,274.0,27.0,19.0,0
1988,274.0,25.0,17.0,0
1989,276.0,28.0,15.0,0
1990,276.0,26.0,14.0,0
1991,272.0,23.0,12.0,0
1992,276.0,22.0,13.0,0
1993,273.0,24.0,15.0,0
1994,273.0,26.0,13.0,0
1995,275.0,25.0,13.0,0
1996,274.0,27.0,12.0,0
1997,273.0,28.0,9.0,0
1998,274.0,28.0,14.0,0
1999,272.0,29.0,10.0,0
2000,276.0,26.0,10.0,0
2001,276.0,26.0,15.0,0
2002,276.0,27.0,15.0,0
2003,273.0,29.0,16.0,0
2004,273.0,26.0,12.0,0
2005,276.0,25.0,13.0,0
2006,277.0,27.0,17.0,0
2007,275.0,27.0,11.0,0
2008,276.0,25.0,11.0,0
2009,277.0,26.0,15.0,0
2010,276.0,27.0,9.0,0
2011,277.0,28.0,9.0,0
2012,274.0,26.0,10.0,0
2013,276.0,22.0,10.0,0
2014,280.0,25.0,9.0,0
2015,280.0,25.0,10.0,0
2016,275.0,26.0,9.0,0
2017,275.0,29.0,11.0,0
2018,274.0,25.0,9.0,0
2019,274.0,26.0,8.0,0
2020,275.0,26.0,9.0,0
2021,277.0,23.0,6.0,0
2022,276.0,24.0,11.0,0
2023,277.0,27.0,6.0,0
2024,279.0,23.0,12.0,0
2025,276.0,23.0,9.0,0
2026,273.0,23.0,6.0,0
2027,274.0,27.0,8.0,0
2028,277.0,21.0,13.0,0
2029,278.0,25.0,12.0,0
2030,277.0,24.0,13.0,0
2031,275.0,24.0,10.0,0
2032,278.0,23.0,10.0,0
2033,278.0,23.0,6.0,0
2034,276.0,26.0,3.0,0
2035,277.0,28.0,6.0,0
2036,279.0,25.0,4.0,0
2037,278.0,25.0,5.0,0
2038,278.0,23.0,5.0,0
2039,278.0,23.0,3.0,0
2040,277.0,25.0,6.0,0
2041,277.0,25.0,12.0,0
2042,277.0,27.0,11.0,0
2043,277.0,26.0,11.0,0
2044,277.0,27.0,12.0,0
2045,277.0,29.0,16.0,0
2046,273.0,28.0,10.0,0
2047,275.0,32.0,8.0,0
2048,274.0,30.0,13.0,0
2049,275.0,26.0,12.0,0
2050,277.0,28.0,17.0,0
2051,271.0,30.0,12.0,0
2052,274.0,26.0,16.0,0
2053,273.0,28.0,13.0,0
2054,275.0,25.0,17.0,0
2055,277.0,25.0,14.0,0
2056,272.0,27.0,17.0,0
2057,274.0,25.0,16.0,0
2058,275.0,25.0,15.0,0
2059,273.0,29.0,17.0,0
2060,276.0,27.0,15.0,0
2061,275.0,29.0,18.0,0
2062,273.0,29.0,14.0,0
2063,273.0,30.0,16.0,0
2064,274.0,28.0,19.0,0
2065,273.0,31.0,16.0,0
2066,276.0,31.0,13.0,0
2067,276.0,32.0,16.0,0
2068,277.0,31.0,15.0,0
2069,275.0,29.0,14.0,0
2070,272.0,29.0,15.0,0
2071,274.0,30.0,15.0,0
2072,277.0,29.0,17.0,0
2073,273.0,28.0,16.0,0
2074,274.0,30.0,12.0,0
2075,275.0,27.0,14.0,0
2076,273.0,28.0,15.0,0
2077,274.0,26.0,13.0,0
2078,275.0,32.0,17.0,0
2079,276.0,28.0,14.0,0
2080,279.0,27.0,13.0,0
2081,275.0,27.0,15.0,0
2082,272.0,27.0,14.0,0
2083,278.0,21.0,12.0,0
2084,273.0,27.0,15.0,0
2085,274.0,23.0,11.0,0
2086,277.0,21.0,13.0,0
2087,276.0,24.0,15.0,0
2088,275.0,24.0,14.0,0
2089,274.0,25.0,10.0,0
2090,272.0,26.0,13.0,0
2091,276.0,27.0,15.0,0
2092,273.0,29.0,19.0,0
2093,276.0,24.0,11.0,0
2094,275.0,29.0,13.0,0
2095,273.0,26.0,16.0,0
2096,275.0,27.0,16.0,0
2097,276.0,25.0,16.0,0
2098,274.0,27.0,15.0,0
2099,273.0,26.0,14.0,0
2100,273.0,24.0,19.0,0
2101,276.0,28.0,11.0,0
2102,274.0,26.0,13.0,0
2103,276.0,25.0,10.0,0
2104,277.0,27.0,14.0,0
2105,277.0,28.0,6.0,0
2106,274.0,29.0,8.0,0
2107,277.0,27.0,8.0,0
2108,276.0,32.0,11.0,0
2109,275.0,28.0,12.0,0
2110,277.0,28.0,7.0,0
2111,277.0,26.0,11.0,0
2112,276.0,27.0,11.0,0
2113,274.0,31.0,13.0,0
2114,276.0,30.0,14.0,0
2115,275.0,30.0,13.0,0
2116,275.0,30.0,13.0,0
2117,274.0,31.0,12.0,0
2118,278.0,32.0,13.0,0
2119,272.0,27.0,13.0,0
2120,273.0,30.0,14.0,0
2121,276.0,30.0,8.0,0
2122,276.0,26.0,13.0,0
2123,274.0,28.0,17.0,0
2124,275.0,24.0,15.0,0
2125,273.0,27.0,16.0,0
2126,274.0,27.0,12.0,0
2127,278.0,25.0,14.0,0
2128,278.0,27.0,16.0,0
2129,274.0,26.0,12.0,0
2130,277.0,25.0,14.0,0
2131,273.0,23.0,15.0,0
2132,275.0,26.0,13.0,0
2133,273.0,28.0,16.0,0
2134,275.0,24.0,11.0,0
2135,277.0,23.0,17.0,0
2136,274.0,29.0,10.0,0
2137,271.0,28.0,12.0,0
2138,273.0,25.0,10.0,0
2139,274.0,26.0,13.0,0
2140,276.0,27.0,14.0,0
2141,274.0,29.0,10.0,0
2142,276.0,26.0,13.0,0
2143,273.0,26.0,11.0,0
2144,275.0,30.0,10.0,0
2145,273.0,27.0,9.0,0
2146,274.0,24.0,14.0,0
2147,273.0,28.0,13.0,0
2148,275.0,26.0,13.0,0
2149,277.0,27.0,13.0,0
2150,274.0,28.0,12.0,0
2151,276.0,26.0,11.0,0
2152,274.0,29.0,13.0,0
2153,275.0,28.0,11.0,0
2154,271.0,33.0,12.0,0
2155,273.0,28.0,15.0,0
2156,273.0,28.0,12.0,0
2157,276.0,26.0,16.0,0
2158,274.0,29.0,18.0,0
2159,274.0,25.0,14.0,0
2160,276.0,26.0,14.0,0
2161,277.0,24.0,16.0,0
2162,275.0,25.0,18.0,0
2163,273.0,25.0,13.0,0
2164,273.0,26.0,15.0,0
2165,272.0,24.0,13.0,0
2166,274.0,26.0,11.0,0
2167,275.0,25.0,15.0,0
2168,275.0,26.0,14.0,0
2169,275.0,27.0,12.0,0
2170,275.0,30.0,12.0,0
2171,276.0,24.0,12.0,0
2172,276.0,25.0,14.0,0
2173,275.0,26.0,10.0,0
2174,278.0,25.0,13.0,0
2175,279.0,24.0,9.0,0
2176,274.0,28.0,10.0,0
2177,277.0,25.0,9.0,0
2178,273.0,24.0,8.0,0
2179,274.0,24.0,9.0,0
2180,274.0,27.0,12.0,0
2181,274.0,23.0,14.0,0
2182,275.0,25.0,9.0,0
2183,273.0,24.0,10.0,0
2184,276.0,27.0,12.0,0
2185,275.0,25.0,12.0,0
2186,275.0,25.0,6.0,0
2187,276.0,24.0,8.0,0
2188,277.0,27.0,13.0,0
2189,273.0,25.0,8.0,0
2190,274.0,26.0,8.0,0
2191,278.0,27.0,12.0,0
2192,277.0,27.0,8.0,0
2193,277.0,26.0,8.0,0
2194,274.0,28.0,10.0,0
2195,274.0,28.0,12.0,0
2196,276.0,26.0,10.0,0
2197,279.0,24.0,10.0,0
2198,275.0,27.0,10.0,0
2199,279.0,23.0,12.0,0
2200,274.0,24.0,13.0,0
2201,278.0,25.0,15.0,0
2202,274.0,28.0,14.0,0
2203,276.0,27.0,11.0,0
2204,274.0,24.0,12.0,0
2205,272.0,25.0,8.0,0
2206,275.0,27.0,13.0,0
2207,277.0,27.0,7.0,0
2208,274.0,29.0,10.0,0
2209,278.0,28.0,8.0,0
2210,277.0,26.0,11.0,0
2211,276.0,26.0,10.0,0
2212,275.0,30.0,8.0,0
2213,277.0,25.0,12.0,0
2214,273.0,25.0,10.0,0
2215,277.0,24.0,10.0,0
2216,276.0,25.0,13.0,0
2217,276.0,23.0,9.0,0
2218,275.0,27.0,14.0,0
2219,273.0,27.0,12.0,0
2220,277.0,25.0,9.0,0
2221,273.0,26.0,11.0,0
2222,276.0,26.0,5.0,0
2223,272.0,24.0,16.0,0
2224,274.0,26.0,12.0,0
2225,276.0,26.0,5.0,0
2226,274.0,24.0,7.0,0
2227,277.0,24.0,11.0,0
2228,283.0,22.0,17.0,0
2229,275.0,22.0,11.0,0
2230,275.0,27.0,12.0,0
2231,276.0,27.0,11.0,0
2232,275.0,27.0,10.0,0
2233,277.0,23.0,9.0,0
2234,275.0,25.0,9.0,0
2235,276.0,26.0,14.0,0
2236,275.0,25.0,5.0,0
2237,279.0,24.0,7.0,0
2238,274.0,23.0,6.0,0
2239,285.0,28.0,12.0,0
2240,279.0,23.0,5.0,0
2241,280.0,24.0,6.0,0
2242,280.0,25.0,6.0,0
2243,279.0,23.0,6.0,0
2244,277.0,24.0,6.0,0
2245,277.0,22.0,2.0,0
2246,280.0,24.0,5.0,0
2247,278.0,23.0,6.0,0
2248,279.0,23.0,4.0,0
2249,273.0,17.0,16.0,0
2250,273.0,24.0,4.0,0
2251,280.0,21.0,4.0,0
2252,280.0,17.0,5.0,0
2253,280.0,22.0,6.0,0
2254,275.0,22.0,6.0,0
2255,277.0,21.0,6.0,0
2256,278.0,21.0,7.0,0
2257,277.0,21.0,9.0,0
2258,276.0,22.0,9.0,0
2259,276.0,21.0,9.0,0
2260,280.0,15.0,22.0,0
2261,276.0,24.0,7.0,0
2262,278.0,21.0,9.0,0
2263,276.0,25.0,10.0,0
2264,277.0,24.0,5.0,0
2265,277.0,27.0,9.0,0
2266,277.0,22.0,5.0,0
2267,277.0,26.0,5.0,0
2268,276.0,24.0,8.0,0
2269,276.0,25.0,9.0,0
2270,276.0,26.0,6.0,0
2271,275.0,27.0,24.0,0
2272,276.0,25.0,10.0,0
2273,276.0,24.0,4.0,0
2274,274.0,24.0,7.0,0
2275,277.0,26.0,10.0,0
2276,276.0,21.0,6.0,0
2277,274.0,26.0,5.0,0
2278,276.0,25.0,9.0,0
2279,279.0,25.0,11.0,0
2280,275.0,24.0,8.0,0
2281,276.0,25.0,12.0,0
2282,275.0,24.0,15.0,0
2283,275.0,25.0,8.0,0
2284,276.0,26.0,8.0,0
2285,274.0,22.0,10.0,0
2286,278.0,22.0,8.0,0
2287,276.0,22.0,10.0,0
2288,275.0,19.0,10.0,0
2289,274.0,21.0,10.0,0
2290,276.0,21.0,8.0,0
2291,274.0,22.0,7.0,0
2292,276.0,23.0,7.0,0
2293,278.0,23.0,12.0,0
2294,275.0,22.0,9.0,0
2295,277.0,20.0,9.0,0
2296,279.0,19.0,7.0,0
2297,278.0,21.0,8.0,0
2298,276.0,21.0,5.0,0
2299,276.0,22.0,8.0,0
2300,277.0,22.0,5.0,0
2301,278.0,21.0,15.0,0
2302,280.0,18.0,3.0,0
2303,277.0,20.0,7.0,0
2304,278.0,19.0,8.0,0
2305,276.0,21.0,5.0,0
2306,281.0,19.0,5.0,0
2307,277.0,19.0,7.0,0
2308,276.0,20.0,2.0,0
2309,277.0,20.0,3.0,0
2310,281.0,23.0,2.0,0
2311,276.0,21.0,3.0,0
2312,276.0,22.0,3.0,0
2313,280.0,21.0,3.0,0
2314,277.0,23.0,5.0,0
2315,279.0,21.0,3.0,0
2316,278.0,20.0,4.0,0
2317,277.0,22.0,2.0,0
2318,279.0,24.0,0.0,0
2319,276.0,23.0,4.0,0
2320,276.0,24.0,2.0,0
2321,277.0,19.0,5.0,0
2322,279.0,24.0,3.0,0
2323,279.0,22.0,7.0,0
2324,277.0,21.0,7.0,0
2325,277.0,21.0,7.0,0
2326,279.0,22.0,6.0,0
2327,274.0,26.0,5.0,0
2328,275.0,24.0,6.0,0
2329,277.0,22.0,7.0,0
2330,276.0,24.0,9.0,0
2331,275.0,23.0,3.0,0
2332,275.0,23.0,7.0,0
2333,276.0,27.0,8.0,0
2334,275.0,24.0,7.0,0
2335,274.0,23.0,11.0,0
2336,276.0,23.0,7.0,0
2337,276.0,23.0,5.0,0
2338,278.0,22.0,7.0,0
2339,279.0,21.0,7.0,0
2340,278.0,20.0,4.0,0
2341,278.0,22.0,7.0,0
2342,276.0,22.0,6.0,0
2343,275.0,22.0,4.0,0
2344,277.0,21.0,7.0,0
2345,279.0,20.0,9.0,0
2346,276.0,22.0,9.0,0
2347,276.0,23.0,8.0,0
2348,278.0,22.0,8.0,0
2349,277.0,24.0,9.0,0
2350,275.0,22.0,6.0,0
2351,277.0,21.0,9.0,0
2352,275.0,25.0,9.0,0
2353,277.0,22.0,9.0,0
2354,277.0,20.0,9.0,0
2355,275.0,24.0,9.0,0
2356,278.0,24.0,7.0,0
2357,276.0,22.0,5.0,0
2358,276.0,22.0,6.0,0
2359,277.0,22.0,5.0,0
2360,277.0,25.0,10.0,0
2361,280.0,23.0,4.0,0
2362,278.0,27.0,3.0,0
2363,280.0,21.0,2.0,0
2364,280.0,24.0,5.0,0
2365,281.0,22.0,3.0,0
2366,277.0,24.0,5.0,0
2367,278.0,23.0,5.0,0
2368,280.0,25.0,3.0,0
2369,277.0,25.0,5.0,0
2370,276.0,25.0,1.0,0
2371,278.0,25.0,7.0,0
2372,277.0,26.0,7.0,0
2373,278.0,22.0,7.0,0
2374,276.0,25.0,5.0,0
2375,275.0,25.0,6.0,0
2376,274.0,27.0,8.0,0
2377,274.0,24.0,11.0,0
2378,276.0,24.0,5.0,0
2379,276.0,25.0,8.0,0
2380,278.0,25.0,11.0,0
2381,274.0,25.0,7.0,0
2382,276.0,24.0,12.0,0
2383,277.0,24.0,10.0,0
2384,273.0,26.0,11.0,0
2385,278.0,26.0,14.0,0
2386,274.0,25.0,14.0,0
2387,274.0,24.0,11.0,0
2388,276.0,24.0,10.0,0
2389,274.0,25.0,15.0,0
2390,278.0,24.0,10.0,0
2391,276.0,25.0,10.0,0
2392,277.0,24.0,10.0,0
2393,275.0,26.0,10.0,0
2394,278.0,22.0,9.0,0
2395,275.0,23.0,8.0,0
2396,274.0,24.0,8.0,0
2397,275.0,26.0,7.0,0
2398,276.0,25.0,7.0,0
2399,275.0,25.0,11.0,0
2400,274.0,26.0,6.0,0
2401,278.0,23.0,8.0,0
2402,275.0,26.0,13.0,0
2403,274.0,25.0,10.0,0
2404,276.0,23.0,15.0,0
2405,276.0,23.0,10.0,0
2406,274.0,24.0,17.0,0
2407,276.0,23.0,8.0,0
2408,275.0,29.0,11.0,0
2409,276.0,23.0,13.0,0
2410,274.0,25.0,13.0,0
2411,274.0,23.0,11.0,0
2412,277.0,21.0,14.0,0
2413,274.0,26.0,7.0,0
2414,274.0,26.0,9.0,0
2415,275.0,28.0,11.0,0
2416,274.0,27.0,8.0,0
2417,276.0,24.0,13.0,0
2418,280.0,26.0,9.0,0
2419,275.0,26.0,15.0,0
2420,273.0,25.0,12.0,0
2421,277.0,26.0,10.0,0
2422,276.0,27.0,14.0,0
2423,277.0,24.0,8.0,0
2424,276.0,25.0,10.0,0
2425,274.0,27.0,9.0,0
2426,273.0,29.0,8.0,0
2427,275.0,24.0,9.0,0
2428,276.0,29.0,11.0,0
2429,277.0,27.0,11.0,0
2430,272.0,26.0,9.0,0
2431,275.0,25.0,6.0,0
2432,276.0,25.0,13.0,0
2433,275.0,26.0,13.0,0
2434,274.0,25.0,9.0,0
2435,276.0,24.0,8.0,0
2436,276.0,23.0,10.0,0
2437,273.0,26.0,8.0,0
2438,280.0,24.0,12.0,0
2439,275.0,23.0,10.0,0
2440,279.0,23.0,9.0,0
2441,277.0,24.0,8.0,0
2442,273.0,27.0,9.0,0
2443,277.0,26.0,14.0,0
2444,272.0,27.0,5.0,0
2445,275.0,25.0,7.0,0
2446,274.0,21.0,9.0,0
2447,278.0,22.0,8.0,0
2448,274.0,28.0,10.0,0
2449,275.0,22.0,13.0,0
2450,277.0,28.0,9.0,0
2451,275.0,25.0,9.0,0
2452,281.0,27.0,12.0,0
2453,275.0,27.0,8.0,0
2454,273.0,26.0,12.0,0
2455,275.0,26.0,9.0,0
2456,277.0,28.0,10.0,0
2457,274.0,28.0,11.0,0
2458,276.0,25.0,8.0,0
2459,279.0,23.0,10.0,0
2460,275.0,28.0,9.0,0
2461,277.0,28.0,11.0,0
2462,275.0,26.0,9.0,0
2463,277.0,27.0,12.0,0
2464,277.0,26.0,8.0,0
2465,277.0,26.0,10.0,0
2466,276.0,29.0,16.0,0
2467,275.0,27.0,11.0,0
2468,271.0,26.0,12.0,0
2469,275.0,27.0,7.0,0
2470,273.0,27.0,8.0,0
2471,276.0,25.0,14.0,0
2472,275.0,25.0,7.0,0
2473,277.0,27.0,13.0,0
2474,273.0,27.0,8.0,0
2475,278.0,28.0,10.0,0
2476,272.0,26.0,12.0,0
2477,277.0,27.0,8.0,0
2478,277.0,28.0,11.0,0
2479,277.0,25.0,12.0,0
2480,277.0,25.0,11.0,0
2481,273.0,28.0,12.0,0
2482,276.0,25.0,13.0,0
2483,274.0,28.0,8.0,0
2484,276.0,24.0,10.0,0
2485,274.0,25.0,13.0,0
2486,277.0,25.0,15.0,0
2487,275.0,23.0,12.0,0
2488,277.0,25.0,15.0,0
2489,275.0,26.0,13.0,0
2490,275.0,26.0,10.0,0
2491,274.0,24.0,10.0,0
2492,276.0,25.0,6.0,0
2493,276.0,22.0,10.0,0
2494,272.0,26.0,9.0,0
2495,275.0,23.0,15.0,0
2496,273.0,28.0,13.0,0
2497,275.0,22.0,13.0,0
2498,276.0,23.0,11.0,0
2499,276.0,21.0,14.0,0
2500,276.0,24.0,16.0,0
2501,277.0,23.0,12.0,0
2502,276.0,24.0,8.0,0
2503,271.0,26.0,14.0,0
2504,276.0,25.0,7.0,0
2505,274.0,27.0,11.0,0
2506,275.0,25.0,9.0,0
2507,277.0,27.0,8.0,0
2508,278.0,27.0,8.0,0
2509,275.0,28.0,9.0,0
2510,277.0,26.0,8.0,0
2511,277.0,24.0,6.0,0
2512,276.0,26.0,9.0,0
2513,276.0,25.0,10.0,0
2514,276.0,28.0,14.0,0
2515,277.0,24.0,12.0,0
2516,276.0,28.0,12.0,0
2517,276.0,27.0,11.0,0
2518,279.0,29.0,10.0,0
2519,277.0,28.0,17.0,0
2520,274.0,30.0,16.0,0
2521,276.0,30.0,12.0,0
2522,275.0,31.0,14.0,0
2523,274.0,31.0,13.0,0
2524,276.0,30.0,10.0,0
2525,273.0,30.0,15.0,0
2526,274.0,28.0,14.0,0
2527,272.0,30.0,17.0,0
2528,273.0,28.0,14.0,0
2529,270.0,35.0,13.0,0
2530,272.0,27.0,17.0,0
2531,271.0,31.0,17.0,0
2532,273.0,30.0,16.0,0
2533,272.0,28.0,17.0,0
2534,273.0,31.0,18.0,0
2535,268.0,32.0,20.0,0
2536,272.0,32.0,15.0,0
2537,271.0,29.0,18.0,0
2538,273.0,31.0,17.0,0
2539,274.0,28.0,20.0,0
2540,272.0,30.0,16.0,0
2541,273.0,29.0,18.0,0
2542,274.0,30.0,16.0,0
2543,271.0,28.0,16.0,0
2544,274.0,31.0,17.0,0
2545,274.0,32.0,17.0,0
2546,277.0,30.0,19.0,0
2547,278.0,29.0,18.0,0
2548,272.0,30.0,15.0,0
2549,277.0,31.0,16.0,0
2550,274.0,32.0,15.0,0
2551,274.0,29.0,15.0,0
2552,275.0,28.0,15.0,0
2553,274.0,26.0,13.0,0
2554,273.0,26.0,13.0,0
2555,281.0,27.0,16.0,0
2556,275.0,26.0,14.0,0
2557,271.0,28.0,16.0,0
2558,275.0,30.0,15.0,0
2559,276.0,25.0,17.0,0
2560,273.0,27.0,14.0,0
2561,270.0,26.0,18.0,0
2562,273.0,28.0,11.0,0
2563,274.0,27.0,17.0,0
2564,272.0,26.0,16.0,0
2565,255.0,19.0,17.0,0
2566,274.0,25.0,16.0,0
2567,273.0,29.0,12.0,0
2568,275.0,26.0,13.0,0
2569,274.0,31.0,13.0,0
2570,275.0,29.0,14.0,0
2571,276.0,29.0,12.0,0
2572,277.0,30.0,13.0,0
2573,276.0,31.0,8.0,0
2574,275.0,31.0,10.0,0
2575,276.0,29.0,13.0,0
2576,269.0,22.0,25.0,0
2577,276.0,29.0,9.0,0
2578,274.0,30.0,12.0,0
2579,275.0,29.0,13.0,0
2580,279.0,28.0,14.0,0
2581,277.0,28.0,16.0,0
2582,276.0,28.0,9.0,0
2583,274.0,29.0,11.0,0
2584,274.0,29.0,16.0,0
2585,277.0,29.0,15.0,0
2586,275.0,29.0,11.0,0
2587,282.0,30.0,5.0,0
2588,273.0,28.0,12.0,0
2589,276.0,28.0,14.0,0
2590,276.0,29.0,15.0,0
2591,277.0,27.0,11.0,0
2592,275.0,29.0,11.0,0
2593,275.0,27.0,10.0,0
2594,276.0,29.0,16.0,0
2595,277.0,29.0,14.0,0
2596,275.0,26.0,12.0,0
2597,276.0,28.0,14.0,0
2598,279.0,33.0,2.0,0
2599,275.0,29.0,15.0,0
2600,275.0,28.0,13.0,0
2601,272.0,29.0,14.0,0
2602,278.0,25.0,10.0,0
2603,276.0,25.0,12.0,0
2604,277.0,25.0,17.0,0
2605,274.0,27.0,14.0,0
2606,278.0,27.0,17.0,0
2607,275.0,29.0,18.0,0
2608,276.0,28.0,14.0,0
2609,276.0,37.0,9.0,0
2610,274.0,29.0,16.0,0
2611,273.0,28.0,14.0,0
2612,276.0,27.0,15.0,0
2613,274.0,27.0,11.0,0
2614,274.0,27.0,17.0,0
2615,272.0,25.0,16.0,0
2616,274.0,26.0,17.0,0
2617,271.0,28.0,17.0,0
2618,273.0,28.0,13.0,0
2619,273.0,26.0,14.0,0
2620,273.0,28.0,18.0,0
2621,272.0,29.0,19.0,0
2622,272.0,29.0,18.0,0
2623,274.0,27.0,18.0,0
2624,270.0,29.0,15.0,0
2625,275.0,29.0,20.0,0
2626,275.0,27.0,19.0,0
2627,270.0,29.0,17.0,0
2628,273.0,27.0,20.0,0
2629,275.0,31.0,19.0,0
2630,275.0,29.0,19.0,0
2631,275.0,33.0,20.0,0
2632,272.0,32.0,20.0,0
2633,272.0,30.0,15.0,0
2634,273.0,30.0,15.0,0
2635,278.0,30.0,22.0,0
2636,275.0,29.0,13.0,0
2637,275.0,29.0,13.0,0
2638,271.0,31.0,15.0,0
2639,278.0,31.0,15.0,0
2640,272.0,33.0,14.0,0
2641,276.0,33.0,15.0,0
2642,276.0,31.0,14.0,0
2643,273.0,32.0,15.0,0
2644,275.0,27.0,19.0,0
2645,277.0,26.0,15.0,0
2646,275.0,27.0,11.0,0
2647,274.0,25.0,15.0,0
2648,274.0,26.0,13.0,0
2649,271.0,29.0,16.0,0
2650,272.0,28.0,16.0,0
2651,274.0,27.0,19.0,0
2652,273.0,28.0,18.0,0
2653,271.0,28.0,18.0,0
2654,274.0,26.0,14.0,0
2655,274.0,27.0,16.0,0
2656,273.0,29.0,14.0,0
2657,274.0,28.0,11.0,0
2658,274.0,28.0,8.0,0
2659,273.0,29.0,10.0,0
2660,277.0,25.0,8.0,0
2661,276.0,27.0,12.0,0
2662,277.0,26.0,15.0,0
2663,277.0,25.0,13.0,0
2664,277.0,29.0,16.0,0
2665,275.0,29.0,13.0,0
2666,276.0,29.0,13.0,0
2667,275.0,29.0,11.0,0
2668,277.0,30.0,14.0,0
2669,274.0,29.0,14.0,0
2670,276.0,28.0,12.0,0
2671,276.0,28.0,15.0,0
2672,274.0,28.0,14.0,0
2673,276.0,26.0,14.0,0
2674,276.0,27.0,13.0,0
2675,277.0,24.0,13.0,0
2676,274.0,32.0,15.0,0
2677,275.0,25.0,16.0,0
2678,276.0,27.0,13.0,0
2679,275.0,29.0,13.0,0
2680,276.0,27.0,12.0,0
2681,274.0,27.0,13.0,0
2682,275.0,26.0,16.0,0
2683,274.0,27.0,14.0,0
2684,274.0,28.0,13.0,0
2685,274.0,29.0,14.0,0
2686,274.0,26.0,13.0,0
2687,276.0,25.0,8.0,0
2688,277.0,29.0,15.0,0
2689,275.0,28.0,16.0,0
2690,274.0,29.0,14.0,0
2691,272.0,29.0,15.0,0
2692,273.0,26.0,10.0,0
2693,274.0,26.0,13.0,0
2694,274.0,26.0,10.0,0
2695,276.0,28.0,11.0,0
2696,278.0,28.0,7.0,0
2697,275.0,26.0,15.0,0
2698,276.0,26.0,12.0,0
2699,273.0,26.0,13.0,0
2700,275.0,25.0,12.0,0
2701,273.0,25.0,10.0,0
2702,273.0,26.0,12.0,0
2703,276.0,27.0,10.0,0
2704,276.0,23.0,12.0,0
2705,277.0,24.0,11.0,0
2706,274.0,28.0,15.0,0
2707,274.0,25.0,14.0,0
2708,276.0,25.0,13.0,0
2709,275.0,29.0,14.0,0
2710,274.0,25.0,16.0,0
2711,276.0,26.0,13.0,0
2712,273.0,28.0,10.0,0
2713,276.0,29.0,13.0,0
2714,274.0,26.0,10.0,0
2715,274.0,24.0,10.0,0
2716,276.0,25.0,11.0,0
2717,275.0,26.0,13.0,0
2718,276.0,22.0,10.0,0
2719,276.0,22.0,12.0,0
2720,276.0,23.0,13.0,0
2721,276.0,24.0,12.0,0
2722,278.0,24.0,10.0,0
2723,277.0,23.0,8.0,0
2724,279.0,23.0,8.0,0
2725,272.0,26.0,8.0,0
2726,279.0,23.0,9.0,0
2727,276.0,26.0,10.0,0
2728,277.0,26.0,10.0,0
2729,278.0,22.0,13.0,0
2730,278.0,26.0,9.0,0
2731,277.0,24.0,9.0,0
2732,275.0,25.0,10.0,0
2733,276.0,23.0,12.0,0
2734,277.0,24.0,11.0,0
2735,276.0,25.0,9.0,0
2736,278.0,25.0,9.0,0
2737,274.0,20.0,6.0,0
2738,277.0,22.0,6.0,0
2739,279.0,24.0,8.0,0
2740,276.0,24.0,9.0,0
2741,275.0,21.0,6.0,0
2742,276.0,27.0,8.0,0
2743,277.0,23.0,8.0,0
2744,276.0,25.0,6.0,0
2745,280.0,23.0,11.0,0
2746,277.0,26.0,8.0,0
2747,274.0,25.0,8.0,0
2748,275.0,23.0,4.0,0
2749,277.0,24.0,10.0,0
2750,277.0,24.0,8.0,0
2751,277.0,24.0,7.0,0
2752,277.0,22.0,7.0,0
2753,277.0,23.0,4.0,0
2754,275.0,24.0,9.0,0
2755,276.0,24.0,7.0,0
2756,279.0,22.0,2.0,0
2757,277.0,21.0,4.0,0
2758,275.0,22.0,8.0,0
2759,276.0,22.0,7.0,0
2760,280.0,22.0,4.0,0
2761,277.0,22.0,7.0,0
2762,277.0,20.0,3.0,0
2763,277.0,20.0,6.0,0
2764,279.0,23.0,3.0,0
2765,275.0,22.0,9.0,0
2766,276.0,22.0,8.0,0
2767,277.0,25.0,7.0,0
2768,274.0,26.0,4.0,0
2769,276.0,23.0,9.0,0
2770,280.0,22.0,8.0,0
2771,275.0,23.0,7.0,0
2772,279.0,21.0,7.0,0
2773,278.0,24.0,5.0,0
2774,278.0,20.0,4.0,0
2775,279.0,19.0,6.0,0
2776,275.0,21.0,2.0,0
2777,276.0,21.0,2.0,0
2778,278.0,23.0,8.0,0
2779,279.0,19.0,3.0,0
2780,278.0,20.0,8.0,0
2781,278.0,21.0,5.0,0
2782,279.0,22.0,5.0,0
2783,280.0,18.0,6.0,0
2784,274.0,21.0,6.0,0
2785,277.0,21.0,7.0,0
2786,277.0,20.0,8.0,0
2787,276.0,25.0,8.0,0
2788,274.0,24.0,12.0,0
2789,275.0,20.0,11.0,0
2790,278.0,20.0,6.0,0
2791,273.0,24.0,11.0,0
2792,277.0,20.0,10.0,0
2793,273.0,26.0,8.0,0
2794,274.0,24.0,7.0,0
2795,277.0,21.0,4.0,0
2796,277.0,23.0,5.0,0
2797,278.0,21.0,3.0,0
2798,275.0,22.0,1.0,0
2799,277.0,21.0,5.0,0
2800,275.0,18.0,4.0,0
2801,277.0,21.0,4.0,0
2802,278.0,21.0,2.0,0
2803,282.0,20.0,2.0,0
2804,279.0,21.0,6.0,0
2805,278.0,21.0,6.0,0
2806,276.0,21.0,6.0,0
2807,276.0,21.0,6.0,0
2808,277.0,24.0,6.0,0
2809,277.0,22.0,7.0,0
2810,272.0,22.0,7.0,0
2811,278.0,23.0,7.0,0
2812,277.0,22.0,8.0,0
2813,277.0,23.0,2.0,0
2814,276.0,24.0,8.0,0
2815,280.0,22.0,4.0,0
2816,274.0,23.0,2.0,0
2817,270.0,23.0,6.0,0
2818,278.0,22.0,5.0,0
2819,276.0,20.0,5.0,0
2820,279.0,22.0,4.0,0
2821,276.0,24.0,5.0,0
2822,278.0,22.0,6.0,0
2823,277.0,22.0,8.0,0
2824,276.0,20.0,10.0,0
2825,278.0,20.0,2.0,0
2826,278.0,21.0,6.0,0
2827,278.0,21.0,5.0,0
2828,278.0,23.0,5.0,0
2829,279.0,18.0,5.0,0
2830,278.0,23.0,4.0,0
2831,278.0,23.0,3.0,0
2832,275.0,23.0,3.0,0
2833,278.0,19.0,2.0,0
2834,276.0,22.0,2.0,0
2835,277.0,20.0,6.0,0
2836,276.0,20.0,4.0,0
2837,277.0,19.0,4.0,0
2838,275.0,19.0,5.0,0
2839,279.0,20.0,6.0,0
2840,277.0,19.0,4.0,0
2841,280.0,20.0,5.0,0
2842,275.0,20.0,3.0,0
2843,276.0,19.0,7.0,0
2844,275.0,24.0,7.0,0
2845,276.0,21.0,1.0,0
2846,275.0,22.0,8.0,0
2847,276.0,21.0,3.0,0
2848,274.0,25.0,10.0,0
2849,274.0,22.0,10.0,0
2850,278.0,22.0,6.0,0
2851,275.0,23.0,5.0,0
2852,278.0,19.0,8.0,0
2853,277.0,20.0,6.0,0
2854,278.0,21.0,7.0,0
2855,277.0,22.0,4.0,0
2856,276.0,23.0,7.0,0
2857,276.0,23.0,6.0,0
2858,277.0,25.0,6.0,0
2859,278.0,22.0,5.0,0
2860,274.0,24.0,8.0,0
2861,277.0,24.0,5.0,0
2862,279.0,23.0,6.0,0
2863,280.0,22.0,3.0,0
2864,276.0,26.0,10.0,0
2865,278.0,24.0,5.0,0
2866,276.0,24.0,9.0,0
2867,276.0,24.0,7.0,0
2868,277.0,23.0,8.0,0
2869,275.0,24.0,6.0,0
2870,278.0,25.0,8.0,0
2871,278.0,22.0,8.0,0
2872,276.0,22.0,8.0,0
2873,276.0,21.0,8.0,0
2874,277.0,25.0,7.0,0
2875,277.0,24.0,9.0,0
2876,275.0,26.0,3.0,0
2877,274.0,25.0,7.0,0
2878,276.0,27.0,4.0,0
2879,277.0,24.0,9.0,0
2880,277.0,26.0,9.0,0
2881,275.0,23.0,10.0,0
2882,275.0,23.0,6.0,0
2883,276.0,27.0,10.0,0
2884,277.0,23.0,9.0,0
2885,278.0,21.0,6.0,0
2886,277.0,24.0,4.0,0
2887,277.0,21.0,5.0,0
2888,279.0,26.0,10.0,0
2889,276.0,24.0,6.0,0
2890,277.0,22.0,7.0,0
2891,275.0,23.0,7.0,0
2892,275.0,24.0,9.0,0
2893,276.0,24.0,7.0,0
2894,277.0,25.0,8.0,0
2895,276.0,26.0,9.0,0
2896,274.0,22.0,7.0,0
2897,277.0,24.0,3.0,0
2898,278.0,22.0,11.0,0
2899,277.0,24.0,6.0,0
2900,276.0,21.0,7.0,0
2901,278.0,25.0,7.0,0
2902,276.0,23.0,11.0,0
2903,276.0,22.0,4.0,0
2904,273.0,28.0,11.0,0
2905,279.0,25.0,6.0,0
2906,274.0,22.0,6.0,0
2907,274.0,24.0,7.0,0
2908,277.0,22.0,5.0,0
2909,275.0,23.0,7.0,0
2910,281.0,24.0,9.0,0
2911,276.0,24.0,6.0,0
2912,276.0,25.0,10.0,0
2913,279.0,19.0,9.0,0
2914,264.0,28.0,5.0,0
2915,274.0,27.0,6.0,0
2916,278.0,26.0,7.0,0
2917,280.0,22.0,6.0,0
2918,275.0,23.0,5.0,0
2919,277.0,23.0,8.0,0
2920,275.0,28.0,5.0,0
2921,274.0,24.0,11.0,0
2922,277.0,26.0,15.0,0
2923,273.0,25.0,12.0,0
2924,277.0,26.0,8.0,0
2925,271.0,21.0,2.0,0
2926,276.0,23.0,10.0,0
2927,280.0,23.0,8.0,0
2928,274.0,26.0,5.0,0
2929,276.0,24.0,7.0,0
2930,278.0,22.0,5.0,0
2931,275.0,27.0,5.0,0
2932,275.0,26.0,8.0,0
2933,274.0,25.0,6.0,0
2934,276.0,24.0,6.0,0
2935,275.0,26.0,13.0,0
2936,270.0,33.0,7.0,0
2937,275.0,28.0,7.0,0
2938,277.0,26.0,12.0,0
2939,276.0,26.0,12.0,0
2940,276.0,29.0,10.0,0
2941,274.0,28.0,12.0,0
2942,277.0,26.0,14.0,0
2943,277.0,28.0,8.0,0
2944,274.0,27.0,13.0,0
2945,274.0,27.0,10.0,0
2946,276.0,25.0,11.0,0
2947,273.0,38.0,-8.0,0
2948,273.0,26.0,11.0,0
2949,275.0,26.0,5.0,0
2950,276.0,23.0,10.0,0
2951,276.0,24.0,8.0,0
2952,271.0,27.0,7.0,0
2953,276.0,25.0,9.0,0
2954,273.0,28.0,13.0,0
2955,277.0,23.0,11.0,0
2956,277.0,25.0,10.0,0
2957,275.0,30.0,10.0,0
2958,281.0,38.0,1.0,0
2959,275.0,22.0,9.0,0
2960,277.0,23.0,8.0,0
2961,273.0,28.0,9.0,0
2962,276.0,26.0,9.0,0
2963,276.0,26.0,12.0,0
2964,276.0,22.0,9.0,0
2965,276.0,27.0,6.0,0
2966,273.0,28.0,8.0,0
2967,277.0,26.0,10.0,0
2968,276.0,21.0,8.0,0
2969,274.0,27.0,9.0,0
2970,277.0,25.0,8.0,0
2971,278.0,26.0,11.0,0
2972,274.0,26.0,9.0,0
2973,276.0,26.0,9.0,0
2974,275.0,26.0,12.0,0
2975,272.0,23.0,8.0,0
2976,277.0,26.0,13.0,0
2977,276.0,24.0,15.0,0
2978,279.0,21.0,11.0,0
2979,274.0,25.0,13.0,0
2980,276.0,26.0,10.0,0
2981,274.0,23.0,11.0,0
2982,275.0,25.0,13.0,0
2983,275.0,28.0,12.0,0
2984,275.0,26.0,9.0,0
2985,275.0,25.0,10.0,0
2986,276.0,24.0,9.0,0
2987,277.0,25.0,11.0,0
2988,277.0,25.0,10.0,0
2989,274.0,24.0,15.0,0
2990,273.0,25.0,11.0,0
2991,274.0,28.0,10.0,0
2992,276.0,25.0,13.0,0
2993,274.0,27.0,14.0,0
2994,274.0,24.0,15.0,0
2995,276.0,27.0,9.0,0
2996,274.0,27.0,10.0,0
2997,274.0,28.0,11.0,0
2998,277.0,27.0,11.0,0
2999,276.0,29.0,11.0,0
