,accelerometer_x,accelerometer_y,accelerometer_z,fall
0,-13.0,-267.0,5.0,0
1,-19.0,-261.0,7.0,0
2,-19.0,-257.0,10.0,0
3,-16.0,-253.0,10.0,0
4,-16.0,-252.0,4.0,0
5,-12.0,-248.0,2.0,0
6,-11.0,-239.0,3.0,0
7,-8.0,-235.0,6.0,0
8,-2.0,-228.0,11.0,0
9,0.0,-225.0,13.0,0
10,4.0,-221.0,11.0,0
11,13.0,-219.0,16.0,0
12,14.0,-215.0,16.0,0
13,19.0,-215.0,18.0,0
14,26.0,-219.0,15.0,0
15,33.0,-215.0,21.0,0
16,31.0,-223.0,23.0,0
17,36.0,-225.0,27.0,0
18,35.0,-228.0,29.0,0
19,37.0,-231.0,32.0,0
20,40.0,-231.0,30.0,0
21,37.0,-237.0,36.0,0
22,35.0,-234.0,39.0,0
23,31.0,-237.0,41.0,0
24,31.0,-240.0,40.0,0
25,31.0,-239.0,39.0,0
26,27.0,-238.0,42.0,0
27,30.0,-241.0,46.0,0
28,28.0,-243.0,49.0,0
29,26.0,-241.0,47.0,0
30,22.0,-244.0,51.0,0
31,22.0,-241.0,50.0,0
32,19.0,-246.0,55.0,0
33,16.0,-243.0,55.0,0
34,18.0,-245.0,55.0,0
35,15.0,-245.0,56.0,0
36,11.0,-240.0,56.0,0
37,10.0,-240.0,59.0,0
38,9.0,-239.0,55.0,0
39,2.0,-234.0,59.0,0
40,5.0,-236.0,58.0,0
41,4.0,-233.0,62.0,0
42,4.0,-237.0,63.0,0
43,4.0,-240.0,68.0,0
44,4.0,-239.0,68.0,0
45,3.0,-242.0,69.0,0
46,4.0,-248.0,75.0,0
47,12.0,-254.0,84.0,0
48,7.0,-252.0,84.0,0
49,7.0,-256.0,83.0,0
50,6.0,-257.0,84.0,0
51,9.0,-259.0,77.0,0
52,7.0,-261.0,76.0,0
53,4.0,-261.0,76.0,0
54,4.0,-259.0,75.0,0
55,4.0,-257.0,71.0,0
56,8.0,-256.0,62.0,0
57,12.0,-256.0,50.0,0
58,19.0,-261.0,39.0,0
59,22.0,-260.0,37.0,0
60,21.0,-254.0,35.0,0
61,23.0,-257.0,30.0,0
62,26.0,-268.0,32.0,0
63,26.0,-271.0,44.0,0
64,25.0,-270.0,54.0,0
65,19.0,-269.0,51.0,0
66,19.0,-272.0,59.0,0
67,22.0,-272.0,62.0,0
68,27.0,-276.0,63.0,0
69,28.0,-286.0,59.0,0
70,37.0,-287.0,63.0,0
71,39.0,-290.0,58.0,0
72,36.0,-290.0,62.0,0
73,37.0,-294.0,65.0,0
74,32.0,-292.0,65.0,0
75,38.0,-298.0,62.0,0
76,38.0,-298.0,63.0,0
77,39.0,-304.0,64.0,0
78,40.0,-314.0,63.0,0
79,37.0,-315.0,62.0,0
80,39.0,-319.0,61.0,0
81,42.0,-318.0,61.0,0
82,47.0,-322.0,53.0,0
83,51.0,-337.0,47.0,0
84,63.0,-327.0,48.0,0
85,66.0,-328.0,43.0,0
86,84.0,-339.0,39.0,0
87,102.0,-348.0,37.0,0
88,111.0,-356.0,36.0,0
89,115.0,-357.0,34.0,0
90,117.0,-359.0,38.0,0
91,122.0,-354.0,31.0,0
92,123.0,-346.0,26.0,0
93,125.0,-333.0,17.0,0
94,127.0,-320.0,1.0,0
95,125.0,-310.0,-7.0,0
96,110.0,-293.0,-12.0,0
97,96.0,-274.0,-18.0,0
98,85.0,-259.0,-16.0,0
99,68.0,-244.0,-17.0,0
100,53.0,-227.0,-22.0,0
101,40.0,-210.0,-26.0,0
102,25.0,-199.0,-35.0,0
103,9.0,-192.0,-41.0,0
104,-3.0,-182.0,-44.0,0
105,-20.0,-174.0,-47.0,0
106,-36.0,-171.0,-44.0,0
107,-50.0,-173.0,-34.0,0
108,-62.0,-175.0,-29.0,0
109,-71.0,-184.0,-23.0,0
110,-75.0,-192.0,-14.0,0
111,-71.0,-205.0,-9.0,0
112,-63.0,-226.0,-1.0,0
113,-61.0,-248.0,0.0,0
114,-49.0,-269.0,2.0,0
115,-36.0,-290.0,2.0,0
116,-19.0,-308.0,10.0,0
117,-6.0,-320.0,10.0,0
118,2.0,-326.0,11.0,0
119,20.0,-330.0,10.0,0
120,37.0,-324.0,3.0,0
121,49.0,-319.0,-1.0,0
122,59.0,-317.0,-9.0,0
123,65.0,-302.0,-16.0,0
124,62.0,-291.0,-13.0,0
125,55.0,-278.0,-13.0,0
126,50.0,-265.0,-2.0,0
127,39.0,-256.0,0.0,0
128,31.0,-253.0,2.0,0
129,26.0,-256.0,7.0,0
130,21.0,-254.0,12.0,0
131,12.0,-253.0,15.0,0
132,8.0,-253.0,12.0,0
133,9.0,-257.0,18.0,0
134,5.0,-257.0,11.0,0
135,2.0,-257.0,14.0,0
136,0.0,-257.0,14.0,0
137,-4.0,-255.0,14.0,0
138,-1.0,-255.0,7.0,0
139,-1.0,-252.0,8.0,0
140,-1.0,-250.0,9.0,0
141,-2.0,-244.0,12.0,0
142,-2.0,-238.0,19.0,0
143,-3.0,-237.0,13.0,0
144,-1.0,-230.0,8.0,0
145,-3.0,-229.0,10.0,0
146,-2.0,-228.0,10.0,0
147,-2.0,-227.0,14.0,0
148,-2.0,-231.0,16.0,0
149,-4.0,-233.0,19.0,0
150,-7.0,-231.0,22.0,0
151,-12.0,-236.0,26.0,0
152,-15.0,-240.0,29.0,0
153,-9.0,-237.0,32.0,0
154,-10.0,-236.0,27.0,0
155,-8.0,-240.0,21.0,0
156,-7.0,-243.0,31.0,0
157,-8.0,-246.0,34.0,0
158,-10.0,-243.0,36.0,0
159,-11.0,-244.0,40.0,0
160,-8.0,-245.0,45.0,0
161,-8.0,-241.0,45.0,0
162,-12.0,-237.0,48.0,0
163,-10.0,-234.0,48.0,0
164,-12.0,-234.0,47.0,0
165,-15.0,-229.0,49.0,0
166,-16.0,-228.0,52.0,0
167,-18.0,-228.0,54.0,0
168,-21.0,-228.0,56.0,0
169,-22.0,-226.0,57.0,0
170,-23.0,-228.0,56.0,0
171,-22.0,-228.0,54.0,0
172,-22.0,-226.0,58.0,0
173,-25.0,-222.0,60.0,0
174,-21.0,-226.0,65.0,0
175,-19.0,-224.0,69.0,0
176,-17.0,-222.0,71.0,0
177,-19.0,-225.0,66.0,0
178,-11.0,-232.0,78.0,0
179,-11.0,-236.0,80.0,0
180,-10.0,-236.0,83.0,0
181,-9.0,-240.0,79.0,0
182,-7.0,-243.0,70.0,0
183,0.0,-252.0,64.0,0
184,5.0,-259.0,63.0,0
185,4.0,-267.0,64.0,0
186,4.0,-274.0,67.0,0
187,3.0,-279.0,64.0,0
188,-1.0,-282.0,60.0,0
189,-3.0,-280.0,52.0,0
190,-1.0,-281.0,40.0,0
191,-8.0,-283.0,41.0,0
192,-14.0,-280.0,36.0,0
193,-25.0,-276.0,41.0,0
194,-30.0,-276.0,41.0,0
195,-44.0,-275.0,44.0,0
196,-45.0,-278.0,51.0,0
197,-55.0,-279.0,56.0,0
198,-54.0,-285.0,67.0,0
199,-63.0,-291.0,67.0,0
200,-60.0,-299.0,77.0,0
201,-73.0,-288.0,87.0,0
202,-64.0,-301.0,81.0,0
203,-73.0,-291.0,85.0,0
204,-68.0,-291.0,78.0,0
205,-65.0,-286.0,68.0,0
206,-64.0,-281.0,68.0,0
207,-63.0,-281.0,65.0,0
208,-64.0,-284.0,67.0,0
209,-63.0,-289.0,71.0,0
210,-63.0,-292.0,74.0,0
211,-46.0,-310.0,74.0,0
212,-44.0,-316.0,79.0,0
213,-34.0,-319.0,69.0,0
214,-21.0,-322.0,66.0,0
215,-11.0,-320.0,56.0,0
216,-5.0,-318.0,54.0,0
217,-4.0,-305.0,40.0,0
218,-9.0,-304.0,33.0,0
219,-11.0,-300.0,26.0,0
220,-16.0,-297.0,17.0,0
221,-18.0,-306.0,10.0,0
222,-27.0,-311.0,11.0,0
223,-32.0,-313.0,3.0,0
224,-31.0,-325.0,0.0,0
225,-31.0,-333.0,-3.0,0
226,-38.0,-341.0,-13.0,0
227,-55.0,-349.0,-13.0,0
228,-61.0,-348.0,-17.0,0
229,-49.0,-340.0,-18.0,0
230,-45.0,-331.0,-26.0,0
231,-46.0,-315.0,-27.0,0
232,-41.0,-296.0,-33.0,0
233,-39.0,-278.0,-36.0,0
234,-34.0,-258.0,-36.0,0
235,-27.0,-243.0,-50.0,0
236,-19.0,-229.0,-52.0,0
237,0.0,-217.0,-60.0,0
238,4.0,-208.0,-62.0,0
239,9.0,-204.0,-64.0,0
240,18.0,-202.0,-57.0,0
241,32.0,-205.0,-44.0,0
242,34.0,-209.0,-31.0,0
243,40.0,-217.0,-21.0,0
244,44.0,-233.0,-13.0,0
245,42.0,-247.0,-3.0,0
246,39.0,-257.0,0.0,0
247,35.0,-275.0,1.0,0
248,36.0,-292.0,5.0,0
249,24.0,-304.0,8.0,0
250,17.0,-315.0,6.0,0
251,9.0,-319.0,2.0,0
252,-2.0,-319.0,-2.0,0
253,-11.0,-320.0,1.0,0
254,-20.0,-318.0,0.0,0
255,-26.0,-310.0,1.0,0
256,-30.0,-305.0,0.0,0
257,-33.0,-295.0,2.0,0
258,-36.0,-287.0,5.0,0
259,-35.0,-275.0,5.0,0
260,-28.0,-269.0,5.0,0
261,-28.0,-257.0,3.0,0
262,-27.0,-258.0,5.0,0
263,-31.0,-252.0,7.0,0
264,-14.0,-248.0,8.0,0
265,-9.0,-244.0,8.0,0
266,-6.0,-241.0,10.0,0
267,-2.0,-240.0,4.0,0
268,1.0,-238.0,9.0,0
269,4.0,-238.0,8.0,0
270,3.0,-236.0,16.0,0
271,7.0,-233.0,15.0,0
272,12.0,-233.0,17.0,0
273,10.0,-232.0,20.0,0
274,15.0,-232.0,31.0,0
275,11.0,-231.0,27.0,0
276,17.0,-233.0,30.0,0
277,19.0,-235.0,32.0,0
278,18.0,-237.0,29.0,0
279,19.0,-236.0,31.0,0
280,20.0,-239.0,31.0,0
281,20.0,-240.0,31.0,0
282,18.0,-242.0,36.0,0
283,18.0,-239.0,37.0,0
284,13.0,-243.0,38.0,0
285,11.0,-239.0,41.0,0
286,13.0,-241.0,43.0,0
287,11.0,-241.0,43.0,0
288,8.0,-238.0,46.0,0
289,9.0,-236.0,45.0,0
290,10.0,-234.0,44.0,0
291,7.0,-232.0,54.0,0
292,10.0,-236.0,51.0,0
293,11.0,-233.0,54.0,0
294,13.0,-234.0,56.0,0
295,13.0,-231.0,59.0,0
296,15.0,-228.0,64.0,0
297,18.0,-230.0,67.0,0
298,25.0,-235.0,73.0,0
299,28.0,-228.0,71.0,0
300,29.0,-229.0,71.0,0
301,30.0,-226.0,73.0,0
302,28.0,-227.0,80.0,0
303,29.0,-226.0,83.0,0
304,23.0,-227.0,91.0,0
305,22.0,-229.0,91.0,0
306,16.0,-229.0,103.0,0
307,13.0,-232.0,91.0,0
308,6.0,-235.0,108.0,0
309,10.0,-238.0,115.0,0
310,1.0,-241.0,106.0,0
311,1.0,-231.0,106.0,0
312,0.0,-231.0,98.0,0
313,7.0,-230.0,83.0,0
314,11.0,-233.0,73.0,0
315,7.0,-231.0,59.0,0
316,3.0,-231.0,49.0,0
317,-1.0,-232.0,42.0,0
318,-3.0,-251.0,33.0,0
319,-2.0,-245.0,35.0,0
320,-2.0,-248.0,38.0,0
321,11.0,-261.0,41.0,0
322,23.0,-274.0,38.0,0
323,38.0,-286.0,41.0,0
324,52.0,-297.0,44.0,0
325,68.0,-312.0,43.0,0
326,74.0,-318.0,58.0,0
327,85.0,-327.0,64.0,0
328,92.0,-331.0,77.0,0
329,81.0,-322.0,77.0,0
330,71.0,-311.0,81.0,0
331,62.0,-301.0,77.0,0
332,58.0,-289.0,70.0,0
333,42.0,-278.0,66.0,0
334,37.0,-275.0,64.0,0
335,35.0,-288.0,64.0,0
336,22.0,-285.0,65.0,0
337,25.0,-302.0,65.0,0
338,21.0,-316.0,67.0,0
339,14.0,-323.0,65.0,0
340,15.0,-331.0,63.0,0
341,19.0,-332.0,61.0,0
342,25.0,-334.0,57.0,0
343,38.0,-333.0,40.0,0
344,53.0,-352.0,33.0,0
345,68.0,-337.0,33.0,0
346,82.0,-339.0,20.0,0
347,96.0,-345.0,20.0,0
348,110.0,-355.0,12.0,0
349,119.0,-358.0,2.0,0
350,126.0,-359.0,-2.0,0
351,138.0,-356.0,-6.0,0
352,143.0,-351.0,-13.0,0
353,140.0,-342.0,-20.0,0
354,134.0,-329.0,-33.0,0
355,119.0,-314.0,-35.0,0
356,103.0,-293.0,-35.0,0
357,85.0,-273.0,-39.0,0
358,61.0,-253.0,-30.0,0
359,35.0,-231.0,-29.0,0
360,4.0,-211.0,-30.0,0
361,-19.0,-193.0,-31.0,0
362,-33.0,-189.0,-37.0,0
363,-47.0,-180.0,-42.0,0
364,-62.0,-177.0,-44.0,0
365,-76.0,-175.0,-40.0,0
366,-88.0,-181.0,-36.0,0
367,-97.0,-188.0,-33.0,0
368,-100.0,-199.0,-21.0,0
369,-89.0,-215.0,-12.0,0
370,-77.0,-236.0,-8.0,0
371,-65.0,-254.0,-2.0,0
372,-49.0,-272.0,0.0,0
373,-30.0,-289.0,2.0,0
374,-15.0,-299.0,7.0,0
375,-1.0,-307.0,9.0,0
376,14.0,-314.0,9.0,0
377,21.0,-314.0,12.0,0
378,35.0,-311.0,1.0,0
379,46.0,-305.0,-3.0,0
380,55.0,-297.0,-5.0,0
381,60.0,-291.0,-7.0,0
382,63.0,-286.0,-6.0,0
383,57.0,-279.0,-4.0,0
384,50.0,-277.0,0.0,0
385,42.0,-275.0,11.0,0
386,39.0,-275.0,15.0,0
387,29.0,-274.0,20.0,0
388,23.0,-271.0,24.0,0
389,15.0,-267.0,26.0,0
390,10.0,-267.0,25.0,0
391,6.0,-259.0,22.0,0
392,1.0,-251.0,23.0,0
393,1.0,-245.0,23.0,0
394,-2.0,-236.0,21.0,0
395,-3.0,-232.0,18.0,0
396,-6.0,-231.0,18.0,0
397,-11.0,-223.0,18.0,0
398,-8.0,-224.0,22.0,0
399,-11.0,-221.0,19.0,0
400,-9.0,-214.0,25.0,0
401,-14.0,-213.0,23.0,0
402,-15.0,-210.0,21.0,0
403,-13.0,-208.0,20.0,0
404,-14.0,-210.0,26.0,0
405,-16.0,-212.0,25.0,0
406,-16.0,-216.0,30.0,0
407,-21.0,-219.0,31.0,0
408,-15.0,-231.0,32.0,0
409,-19.0,-234.0,35.0,0
410,-18.0,-239.0,46.0,0
411,-14.0,-239.0,45.0,0
412,-9.0,-245.0,43.0,0
413,-8.0,-244.0,49.0,0
414,-9.0,-242.0,53.0,0
415,-9.0,-238.0,51.0,0
416,-3.0,-228.0,57.0,0
417,2.0,-228.0,41.0,0
418,0.0,-223.0,39.0,0
419,0.0,-224.0,39.0,0
420,-1.0,-224.0,36.0,0
421,-9.0,-219.0,38.0,0
422,-8.0,-209.0,41.0,0
423,-11.0,-224.0,37.0,0
424,-20.0,-227.0,45.0,0
425,-24.0,-222.0,49.0,0
426,-29.0,-222.0,55.0,0
427,-27.0,-227.0,54.0,0
428,-28.0,-228.0,60.0,0
429,-29.0,-226.0,63.0,0
430,-29.0,-228.0,68.0,0
431,-27.0,-230.0,70.0,0
432,-27.0,-233.0,72.0,0
433,-17.0,-241.0,73.0,0
434,-16.0,-245.0,83.0,0
435,-15.0,-243.0,87.0,0
436,-7.0,-250.0,83.0,0
437,-2.0,-249.0,77.0,0
438,1.0,-253.0,73.0,0
439,1.0,-256.0,74.0,0
440,0.0,-260.0,66.0,0
441,0.0,-266.0,64.0,0
442,-1.0,-268.0,57.0,0
443,2.0,-271.0,43.0,0
444,0.0,-273.0,29.0,0
445,-5.0,-278.0,21.0,0
446,-15.0,-283.0,12.0,0
447,-23.0,-282.0,11.0,0
448,-31.0,-287.0,10.0,0
449,-34.0,-293.0,13.0,0
450,-41.0,-299.0,23.0,0
451,-48.0,-305.0,33.0,0
452,-49.0,-307.0,48.0,0
453,-50.0,-316.0,56.0,0
454,-53.0,-312.0,56.0,0
455,-38.0,-322.0,72.0,0
456,-43.0,-313.0,84.0,0
457,-39.0,-308.0,87.0,0
458,-39.0,-292.0,83.0,0
459,-29.0,-275.0,87.0,0
460,-28.0,-276.0,88.0,0
461,-32.0,-261.0,88.0,0
462,-30.0,-261.0,78.0,0
463,-29.0,-259.0,73.0,0
464,-24.0,-268.0,66.0,0
465,-22.0,-269.0,66.0,0
466,-23.0,-277.0,66.0,0
467,-24.0,-291.0,61.0,0
468,-17.0,-299.0,58.0,0
469,-13.0,-313.0,56.0,0
470,-1.0,-323.0,52.0,0
471,8.0,-329.0,55.0,0
472,15.0,-334.0,50.0,0
473,25.0,-337.0,50.0,0
474,31.0,-337.0,47.0,0
475,33.0,-335.0,43.0,0
476,27.0,-325.0,41.0,0
477,20.0,-321.0,35.0,0
478,9.0,-318.0,23.0,0
479,-2.0,-323.0,9.0,0
480,-20.0,-329.0,-1.0,0
481,-45.0,-342.0,-17.0,0
482,-65.0,-347.0,-25.0,0
483,-81.0,-352.0,-35.0,0
484,-86.0,-353.0,-50.0,0
485,-84.0,-344.0,-53.0,0
486,-75.0,-330.0,-56.0,0
487,-67.0,-314.0,-51.0,0
488,-61.0,-292.0,-51.0,0
489,-56.0,-262.0,-50.0,0
490,-43.0,-235.0,-57.0,0
491,-33.0,-212.0,-60.0,0
492,-21.0,-191.0,-64.0,0
493,-9.0,-178.0,-66.0,0
494,1.0,-178.0,-66.0,0
495,15.0,-180.0,-63.0,0
496,26.0,-188.0,-57.0,0
497,31.0,-200.0,-47.0,0
498,34.0,-217.0,-27.0,0
499,34.0,-233.0,-16.0,0
500,25.0,-251.0,-7.0,0
501,26.0,-265.0,4.0,0
502,24.0,-279.0,7.0,0
503,21.0,-290.0,11.0,0
504,16.0,-303.0,2.0,0
505,8.0,-303.0,2.0,0
506,0.0,-307.0,-3.0,0
507,-14.0,-306.0,0.0,0
508,-23.0,-308.0,-1.0,0
509,-36.0,-304.0,-2.0,0
510,-44.0,-305.0,-2.0,0
511,-55.0,-300.0,-4.0,0
512,-56.0,-296.0,4.0,0
513,-55.0,-292.0,8.0,0
514,-54.0,-281.0,8.0,0
515,-47.0,-278.0,9.0,0
516,-39.0,-274.0,6.0,0
517,-32.0,-264.0,8.0,0
518,-25.0,-259.0,6.0,0
519,-24.0,-252.0,2.0,0
520,-16.0,-250.0,2.0,0
521,-13.0,-245.0,2.0,0
522,-17.0,-236.0,-5.0,0
523,-1.0,-238.0,5.0,0
524,-1.0,-233.0,4.0,0
525,2.0,-233.0,8.0,0
526,1.0,-233.0,8.0,0
527,4.0,-236.0,11.0,0
528,6.0,-239.0,10.0,0
529,5.0,-235.0,17.0,0
530,8.0,-240.0,21.0,0
531,10.0,-241.0,18.0,0
532,13.0,-237.0,20.0,0
533,11.0,-235.0,19.0,0
534,17.0,-239.0,20.0,0
535,18.0,-235.0,21.0,0
536,18.0,-234.0,24.0,0
537,19.0,-234.0,20.0,0
538,21.0,-238.0,21.0,0
539,21.0,-236.0,21.0,0
540,23.0,-238.0,27.0,0
541,24.0,-237.0,29.0,0
542,19.0,-236.0,30.0,0
543,19.0,-236.0,34.0,0
544,20.0,-229.0,42.0,0
545,16.0,-231.0,42.0,0
546,21.0,-229.0,37.0,0
547,21.0,-232.0,41.0,0
548,19.0,-227.0,44.0,0
549,18.0,-229.0,46.0,0
550,20.0,-225.0,48.0,0
551,18.0,-222.0,49.0,0
552,18.0,-220.0,54.0,0
553,17.0,-220.0,54.0,0
554,18.0,-219.0,58.0,0
555,16.0,-217.0,62.0,0
556,17.0,-214.0,68.0,0
557,16.0,-209.0,72.0,0
558,14.0,-210.0,73.0,0
559,14.0,-212.0,76.0,0
560,9.0,-217.0,84.0,0
561,10.0,-219.0,89.0,0
562,5.0,-224.0,94.0,0
563,0.0,-233.0,100.0,0
564,8.0,-240.0,99.0,0
565,4.0,-235.0,90.0,0
566,12.0,-234.0,88.0,0
567,13.0,-246.0,76.0,0
568,21.0,-250.0,68.0,0
569,23.0,-253.0,61.0,0
570,22.0,-256.0,52.0,0
571,16.0,-254.0,47.0,0
572,12.0,-256.0,40.0,0
573,4.0,-253.0,37.0,0
574,2.0,-253.0,40.0,0
575,4.0,-268.0,34.0,0
576,13.0,-255.0,47.0,0
577,20.0,-257.0,42.0,0
578,40.0,-264.0,40.0,0
579,61.0,-282.0,34.0,0
580,75.0,-296.0,38.0,0
581,90.0,-309.0,48.0,0
582,104.0,-329.0,57.0,0
583,105.0,-342.0,62.0,0
584,99.0,-347.0,62.0,0
585,89.0,-343.0,63.0,0
586,73.0,-332.0,61.0,0
587,58.0,-329.0,56.0,0
588,53.0,-322.0,52.0,0
589,54.0,-329.0,41.0,0
590,52.0,-342.0,40.0,0
591,53.0,-362.0,39.0,0
592,48.0,-379.0,39.0,0
593,47.0,-393.0,46.0,0
594,46.0,-400.0,52.0,0
595,46.0,-398.0,54.0,0
596,62.0,-407.0,44.0,0
597,70.0,-383.0,40.0,0
598,77.0,-363.0,32.0,0
599,96.0,-350.0,21.0,0
600,108.0,-340.0,11.0,0
601,109.0,-329.0,7.0,0
602,105.0,-324.0,12.0,0
603,98.0,-321.0,10.0,0
604,95.0,-321.0,6.0,0
605,92.0,-314.0,-2.0,0
606,88.0,-300.0,-9.0,0
607,80.0,-285.0,-16.0,0
608,69.0,-263.0,-23.0,0
609,54.0,-228.0,-31.0,0
610,33.0,-203.0,-31.0,0
611,12.0,-181.0,-34.0,0
612,0.0,-164.0,-42.0,0
613,-17.0,-147.0,-44.0,0
614,-26.0,-146.0,-50.0,0
615,-45.0,-145.0,-49.0,0
616,-63.0,-147.0,-38.0,0
617,-78.0,-153.0,-33.0,0
618,-86.0,-169.0,-19.0,0
619,-92.0,-185.0,-16.0,0
620,-83.0,-209.0,-9.0,0
621,-70.0,-238.0,-5.0,0
622,-59.0,-257.0,-6.0,0
623,-48.0,-282.0,0.0,0
624,-33.0,-302.0,3.0,0
625,-20.0,-321.0,11.0,0
626,-6.0,-331.0,11.0,0
627,3.0,-338.0,11.0,0
628,21.0,-335.0,12.0,0
629,30.0,-330.0,11.0,0
630,39.0,-320.0,5.0,0
631,47.0,-309.0,0.0,0
632,53.0,-292.0,-2.0,0
633,53.0,-283.0,-2.0,0
634,45.0,-272.0,1.0,0
635,39.0,-259.0,1.0,0
636,32.0,-253.0,7.0,0
637,22.0,-247.0,8.0,0
638,16.0,-246.0,12.0,0
639,10.0,-249.0,8.0,0
640,6.0,-243.0,9.0,0
641,4.0,-245.0,9.0,0
642,6.0,-247.0,4.0,0
643,4.0,-247.0,2.0,0
644,3.0,-243.0,7.0,0
645,0.0,-242.0,10.0,0
646,1.0,-242.0,11.0,0
647,-5.0,-236.0,15.0,0
648,0.0,-237.0,23.0,0
649,0.0,-232.0,19.0,0
650,2.0,-229.0,23.0,0
651,7.0,-225.0,25.0,0
652,3.0,-222.0,25.0,0
653,3.0,-219.0,19.0,0
654,3.0,-216.0,16.0,0
655,0.0,-215.0,20.0,0
656,2.0,-216.0,24.0,0
657,0.0,-219.0,27.0,0
658,-7.0,-227.0,29.0,0
659,-13.0,-230.0,32.0,0
660,-13.0,-231.0,36.0,0
661,-16.0,-239.0,42.0,0
662,-18.0,-242.0,52.0,0
663,-21.0,-242.0,52.0,0
664,-25.0,-247.0,55.0,0
665,-26.0,-248.0,59.0,0
666,-18.0,-247.0,61.0,0
667,-12.0,-246.0,49.0,0
668,-12.0,-243.0,43.0,0
669,-10.0,-238.0,52.0,0
670,-7.0,-234.0,55.0,0
671,-8.0,-228.0,54.0,0
672,-7.0,-227.0,55.0,0
673,-5.0,-219.0,61.0,0
674,-5.0,-222.0,60.0,0
675,-8.0,-211.0,59.0,0
676,-11.0,-213.0,59.0,0
677,-12.0,-211.0,64.0,0
678,-14.0,-210.0,63.0,0
679,-20.0,-206.0,68.0,0
680,-19.0,-208.0,69.0,0
681,-23.0,-208.0,74.0,0
682,-25.0,-212.0,81.0,0
683,-20.0,-215.0,78.0,0
684,-19.0,-220.0,81.0,0
685,-10.0,-231.0,82.0,0
686,-9.0,-242.0,81.0,0
687,-2.0,-243.0,89.0,0
688,-4.0,-245.0,86.0,0
689,-4.0,-249.0,79.0,0
690,0.0,-242.0,65.0,0
691,1.0,-250.0,52.0,0
692,6.0,-253.0,46.0,0
693,6.0,-257.0,34.0,0
694,0.0,-262.0,24.0,0
695,-9.0,-264.0,21.0,0
696,-18.0,-268.0,17.0,0
697,-29.0,-277.0,14.0,0
698,-37.0,-282.0,21.0,0
699,-46.0,-287.0,24.0,0
700,-52.0,-294.0,32.0,0
701,-60.0,-308.0,41.0,0
702,-67.0,-320.0,61.0,0
703,-76.0,-329.0,74.0,0
704,-78.0,-336.0,89.0,0
705,-76.0,-332.0,101.0,0
706,-76.0,-332.0,104.0,0
707,-82.0,-321.0,110.0,0
708,-82.0,-311.0,99.0,0
709,-73.0,-299.0,94.0,0
710,-68.0,-291.0,78.0,0
711,-63.0,-285.0,67.0,0
712,-56.0,-283.0,63.0,0
713,-51.0,-284.0,67.0,0
714,-46.0,-289.0,67.0,0
715,-42.0,-296.0,66.0,0
716,-41.0,-313.0,61.0,0
717,-17.0,-324.0,66.0,0
718,-14.0,-329.0,71.0,0
719,-7.0,-335.0,68.0,0
720,0.0,-337.0,67.0,0
721,5.0,-337.0,62.0,0
722,7.0,-338.0,54.0,0
723,3.0,-329.0,47.0,0
724,4.0,-329.0,40.0,0
725,0.0,-325.0,36.0,0
726,-6.0,-328.0,29.0,0
727,-12.0,-334.0,19.0,0
728,-29.0,-337.0,7.0,0
729,-45.0,-344.0,-3.0,0
730,-62.0,-346.0,-14.0,0
731,-65.0,-350.0,-21.0,0
732,-70.0,-338.0,-31.0,0
733,-73.0,-321.0,-39.0,0
734,-67.0,-304.0,-46.0,0
735,-65.0,-282.0,-52.0,0
736,-63.0,-255.0,-59.0,0
737,-55.0,-229.0,-60.0,0
738,-43.0,-196.0,-62.0,0
739,-25.0,-187.0,-63.0,0
740,-10.0,-172.0,-69.0,0
741,9.0,-168.0,-68.0,0
742,27.0,-174.0,-63.0,0
743,43.0,-184.0,-53.0,0
744,52.0,-198.0,-41.0,0
745,58.0,-218.0,-27.0,0
746,60.0,-237.0,-19.0,0
747,59.0,-253.0,-6.0,0
748,58.0,-275.0,0.0,0
749,52.0,-289.0,7.0,0
750,43.0,-308.0,9.0,0
751,38.0,-319.0,13.0,0
752,25.0,-320.0,12.0,0
753,13.0,-319.0,11.0,0
754,3.0,-316.0,6.0,0
755,-7.0,-309.0,6.0,0
756,-23.0,-303.0,2.0,0
757,-35.0,-298.0,4.0,0
758,-39.0,-288.0,3.0,0
759,-52.0,-283.0,7.0,0
760,-51.0,-275.0,4.0,0
761,-53.0,-267.0,8.0,0
762,-49.0,-263.0,8.0,0
763,-42.0,-260.0,9.0,0
764,-39.0,-256.0,16.0,0
765,-32.0,-256.0,9.0,0
766,-29.0,-255.0,11.0,0
767,-24.0,-257.0,14.0,0
768,-19.0,-259.0,17.0,0
769,-17.0,-255.0,20.0,0
770,-13.0,-255.0,23.0,0
771,-3.0,-255.0,25.0,0
772,-2.0,-254.0,26.0,0
773,-1.0,-247.0,21.0,0
774,1.0,-247.0,15.0,0
775,1.0,-245.0,13.0,0
776,0.0,-240.0,13.0,0
777,3.0,-233.0,13.0,0
778,3.0,-230.0,14.0,0
779,4.0,-228.0,18.0,0
780,4.0,-221.0,19.0,0
781,8.0,-217.0,23.0,0
782,9.0,-219.0,18.0,0
783,14.0,-218.0,21.0,0
784,16.0,-216.0,22.0,0
785,23.0,-221.0,21.0,0
786,27.0,-224.0,24.0,0
787,30.0,-226.0,26.0,0
788,35.0,-232.0,29.0,0
789,38.0,-235.0,31.0,0
790,38.0,-238.0,34.0,0
791,42.0,-242.0,38.0,0
792,39.0,-242.0,35.0,0
793,35.0,-241.0,39.0,0
794,41.0,-242.0,34.0,0
795,37.0,-242.0,41.0,0
796,34.0,-239.0,41.0,0
797,34.0,-242.0,42.0,0
798,30.0,-235.0,46.0,0
799,26.0,-231.0,52.0,0
800,29.0,-230.0,55.0,0
801,26.0,-224.0,59.0,0
802,24.0,-223.0,62.0,0
803,24.0,-223.0,63.0,0
804,20.0,-223.0,66.0,0
805,21.0,-223.0,70.0,0
806,17.0,-222.0,74.0,0
807,14.0,-224.0,82.0,0
808,12.0,-228.0,84.0,0
809,6.0,-228.0,86.0,0
810,2.0,-235.0,92.0,0
811,0.0,-236.0,97.0,0
812,-2.0,-242.0,100.0,0
813,-5.0,-247.0,103.0,0
814,-14.0,-253.0,103.0,0
815,-12.0,-252.0,104.0,0
816,-13.0,-252.0,94.0,0
817,-9.0,-255.0,92.0,0
818,-5.0,-256.0,78.0,0
819,-6.0,-248.0,70.0,0
820,-4.0,-242.0,61.0,0
821,-10.0,-237.0,45.0,0
822,-9.0,-232.0,46.0,0
823,-2.0,-229.0,43.0,0
824,0.0,-228.0,30.0,0
825,9.0,-228.0,26.0,0
826,9.0,-226.0,23.0,0
827,24.0,-229.0,12.0,0
828,48.0,-247.0,7.0,0
829,71.0,-262.0,3.0,0
830,91.0,-281.0,13.0,0
831,104.0,-298.0,32.0,0
832,114.0,-321.0,57.0,0
833,123.0,-332.0,81.0,0
834,117.0,-336.0,93.0,0
835,106.0,-332.0,102.0,0
836,92.0,-329.0,102.0,0
837,72.0,-328.0,102.0,0
838,58.0,-327.0,95.0,0
839,47.0,-335.0,86.0,0
840,36.0,-338.0,68.0,0
841,32.0,-355.0,60.0,0
842,23.0,-366.0,48.0,0
843,20.0,-373.0,42.0,0
844,16.0,-375.0,33.0,0
845,23.0,-382.0,35.0,0
846,34.0,-377.0,28.0,0
847,51.0,-383.0,32.0,0
848,78.0,-375.0,38.0,0
849,85.0,-366.0,25.0,0
850,102.0,-356.0,12.0,0
851,122.0,-355.0,1.0,0
852,125.0,-351.0,-11.0,0
853,122.0,-337.0,-26.0,0
854,120.0,-329.0,-37.0,0
855,117.0,-318.0,-41.0,0
856,112.0,-300.0,-47.0,0
857,105.0,-281.0,-49.0,0
858,95.0,-260.0,-41.0,0
859,78.0,-242.0,-38.0,0
860,59.0,-219.0,-34.0,0
861,33.0,-202.0,-26.0,0
862,11.0,-192.0,-25.0,0
863,-2.0,-183.0,-32.0,0
864,-16.0,-180.0,-35.0,0
865,-32.0,-181.0,-36.0,0
866,-50.0,-187.0,-29.0,0
867,-60.0,-203.0,-32.0,0
868,-81.0,-208.0,-14.0,0
869,-89.0,-222.0,-5.0,0
870,-86.0,-242.0,0.0,0
871,-81.0,-261.0,2.0,0
872,-68.0,-281.0,3.0,0
873,-57.0,-293.0,9.0,0
874,-46.0,-302.0,3.0,0
875,-35.0,-308.0,1.0,0
876,-27.0,-305.0,4.0,0
877,-14.0,-304.0,1.0,0
878,-1.0,-304.0,0.0,0
879,10.0,-292.0,-4.0,0
880,21.0,-284.0,-7.0,0
881,31.0,-272.0,-8.0,0
882,40.0,-264.0,-12.0,0
883,46.0,-258.0,-12.0,0
884,51.0,-253.0,-9.0,0
885,58.0,-250.0,-4.0,0
886,64.0,-250.0,-4.0,0
887,65.0,-247.0,0.0,0
888,63.0,-244.0,0.0,0
889,53.0,-240.0,2.0,0
890,45.0,-243.0,5.0,0
891,35.0,-246.0,5.0,0
892,22.0,-249.0,12.0,0
893,14.0,-250.0,15.0,0
894,3.0,-252.0,19.0,0
895,1.0,-252.0,26.0,0
896,-2.0,-244.0,25.0,0
897,-5.0,-244.0,24.0,0
898,-10.0,-238.0,28.0,0
899,-11.0,-235.0,24.0,0
900,-15.0,-233.0,22.0,0
901,-19.0,-223.0,26.0,0
902,-16.0,-221.0,22.0,0
903,-14.0,-216.0,19.0,0
904,-8.0,-218.0,20.0,0
905,-9.0,-211.0,20.0,0
906,-8.0,-210.0,23.0,0
907,-8.0,-213.0,20.0,0
908,-8.0,-218.0,26.0,0
909,-13.0,-225.0,28.0,0
910,-9.0,-224.0,33.0,0
911,-17.0,-237.0,36.0,0
912,-17.0,-240.0,38.0,0
913,-14.0,-247.0,41.0,0
914,-17.0,-245.0,39.0,0
915,-8.0,-254.0,38.0,0
916,-4.0,-256.0,47.0,0
917,-4.0,-254.0,52.0,0
918,-2.0,-252.0,47.0,0
919,8.0,-244.0,50.0,0
920,9.0,-236.0,42.0,0
921,13.0,-231.0,43.0,0
922,15.0,-226.0,44.0,0
923,7.0,-217.0,49.0,0
924,1.0,-211.0,49.0,0
925,0.0,-203.0,58.0,0
926,-10.0,-202.0,61.0,0
927,-15.0,-205.0,64.0,0
928,-27.0,-202.0,64.0,0
929,-32.0,-202.0,65.0,0
930,-40.0,-205.0,70.0,0
931,-43.0,-210.0,74.0,0
932,-46.0,-213.0,76.0,0
933,-43.0,-229.0,76.0,0
934,-45.0,-244.0,76.0,0
935,-33.0,-254.0,77.0,0
936,-26.0,-263.0,81.0,0
937,-19.0,-277.0,79.0,0
938,-14.0,-286.0,76.0,0
939,-9.0,-284.0,79.0,0
940,-3.0,-286.0,74.0,0
941,8.0,-288.0,68.0,0
942,13.0,-283.0,49.0,0
943,18.0,-281.0,41.0,0
944,13.0,-271.0,32.0,0
945,8.0,-266.0,25.0,0
946,4.0,-263.0,18.0,0
947,-4.0,-257.0,21.0,0
948,-15.0,-258.0,23.0,0
949,-30.0,-259.0,28.0,0
950,-49.0,-262.0,35.0,0
951,-64.0,-269.0,46.0,0
952,-78.0,-278.0,58.0,0
953,-88.0,-301.0,68.0,0
954,-105.0,-309.0,82.0,0
955,-115.0,-318.0,108.0,0
956,-122.0,-305.0,110.0,0
957,-120.0,-315.0,104.0,0
958,-117.0,-305.0,99.0,0
959,-114.0,-299.0,87.0,0
960,-100.0,-295.0,76.0,0
961,-85.0,-296.0,65.0,0
962,-76.0,-296.0,60.0,0
963,-66.0,-298.0,62.0,0
964,-59.0,-310.0,64.0,0
965,-44.0,-318.0,65.0,0
966,-31.0,-328.0,66.0,0
967,-16.0,-337.0,63.0,0
968,-11.0,-345.0,55.0,0
969,-7.0,-344.0,45.0,0
970,-3.0,-349.0,33.0,0
971,-11.0,-352.0,24.0,0
972,-22.0,-350.0,17.0,0
973,-28.0,-351.0,17.0,0
974,-24.0,-354.0,15.0,0
975,-14.0,-355.0,11.0,0
976,-16.0,-354.0,3.0,0
977,-25.0,-357.0,0.0,0
978,-41.0,-359.0,-8.0,0
979,-49.0,-359.0,-20.0,0
980,-45.0,-351.0,-26.0,0
981,-42.0,-343.0,-41.0,0
982,-43.0,-326.0,-52.0,0
983,-44.0,-314.0,-59.0,0
984,-43.0,-297.0,-53.0,0
985,-40.0,-277.0,-47.0,0
986,-36.0,-257.0,-55.0,0
987,-20.0,-238.0,-57.0,0
988,-7.0,-214.0,-58.0,0
989,7.0,-196.0,-65.0,0
990,20.0,-187.0,-72.0,0
991,36.0,-181.0,-65.0,0
992,51.0,-176.0,-59.0,0
993,63.0,-182.0,-49.0,0
994,66.0,-191.0,-37.0,0
995,68.0,-205.0,-29.0,0
996,70.0,-217.0,-23.0,0
997,65.0,-236.0,-9.0,0
998,61.0,-253.0,-7.0,0
999,55.0,-268.0,0.0,0
1000,47.0,-281.0,6.0,0
1001,40.0,-295.0,7.0,0
1002,28.0,-298.0,5.0,0
1003,16.0,-305.0,3.0,0
1004,1.0,-303.0,6.0,0
1005,-11.0,-301.0,8.0,0
1006,-25.0,-293.0,3.0,0
1007,-34.0,-289.0,4.0,0
1008,-45.0,-286.0,-3.0,0
1009,-47.0,-283.0,2.0,0
1010,-51.0,-272.0,3.0,0
1011,-53.0,-271.0,2.0,0
1012,-49.0,-265.0,8.0,0
1013,-45.0,-261.0,7.0,0
1014,-40.0,-257.0,12.0,0
1015,-36.0,-256.0,12.0,0
1016,-30.0,-254.0,14.0,0
1017,-17.0,-258.0,18.0,0
1018,-17.0,-256.0,20.0,0
1019,-13.0,-256.0,24.0,0
1020,-9.0,-257.0,21.0,0
1021,-8.0,-253.0,19.0,0
1022,-10.0,-253.0,22.0,0
1023,-7.0,-249.0,19.0,0
1024,-1.0,-247.0,23.0,0
1025,1.0,-246.0,25.0,0
1026,3.0,-243.0,19.0,0
1027,1.0,-236.0,20.0,0
1028,2.0,-230.0,26.0,0
1029,5.0,-226.0,24.0,0
1030,12.0,-225.0,26.0,0
1031,15.0,-218.0,24.0,0
1032,22.0,-219.0,25.0,0
1033,28.0,-215.0,26.0,0
1034,32.0,-214.0,26.0,0
1035,37.0,-220.0,29.0,0
1036,42.0,-222.0,31.0,0
1037,46.0,-227.0,32.0,0
1038,42.0,-231.0,35.0,0
1039,40.0,-232.0,38.0,0
1040,42.0,-230.0,34.0,0
1041,41.0,-240.0,36.0,0
1042,40.0,-239.0,36.0,0
1043,36.0,-240.0,38.0,0
1044,32.0,-240.0,39.0,0
1045,31.0,-242.0,41.0,0
1046,23.0,-238.0,39.0,0
1047,17.0,-239.0,43.0,0
1048,14.0,-236.0,46.0,0
1049,13.0,-235.0,48.0,0
1050,9.0,-234.0,53.0,0
1051,6.0,-226.0,52.0,0
1052,5.0,-226.0,56.0,0
1053,6.0,-222.0,58.0,0
1054,7.0,-221.0,62.0,0
1055,4.0,-219.0,63.0,0
1056,4.0,-220.0,69.0,0
1057,6.0,-222.0,74.0,0
1058,5.0,-226.0,77.0,0
1059,0.0,-229.0,86.0,0
1060,0.0,-234.0,90.0,0
1061,0.0,-245.0,84.0,0
1062,-5.0,-245.0,99.0,0
1063,-13.0,-243.0,103.0,0
1064,-13.0,-251.0,103.0,0
1065,-13.0,-251.0,97.0,0
1066,-16.0,-250.0,85.0,0
1067,-14.0,-254.0,79.0,0
1068,-14.0,-255.0,69.0,0
1069,-13.0,-256.0,67.0,0
1070,-8.0,-251.0,62.0,0
1071,-2.0,-248.0,51.0,0
1072,5.0,-245.0,41.0,0
1073,14.0,-242.0,30.0,0
1074,18.0,-241.0,23.0,0
1075,31.0,-243.0,18.0,0
1076,27.0,-239.0,14.0,0
1077,37.0,-243.0,1.0,0
1078,59.0,-253.0,-10.0,0
1079,73.0,-265.0,-7.0,0
1080,79.0,-279.0,1.0,0
1081,90.0,-296.0,27.0,0
1082,96.0,-315.0,63.0,0
1083,94.0,-324.0,95.0,0
1084,91.0,-321.0,106.0,0
1085,82.0,-313.0,115.0,0
1086,74.0,-310.0,110.0,0
1087,69.0,-303.0,106.0,0
1088,59.0,-303.0,92.0,0
1089,52.0,-307.0,82.0,0
1090,38.0,-317.0,68.0,0
1091,32.0,-329.0,56.0,0
1092,25.0,-343.0,46.0,0
1093,18.0,-359.0,46.0,0
1094,9.0,-370.0,38.0,0
1095,7.0,-381.0,41.0,0
1096,17.0,-384.0,35.0,0
1097,30.0,-390.0,28.0,0
1098,48.0,-387.0,22.0,0
1099,69.0,-384.0,17.0,0
1100,100.0,-393.0,9.0,0
1101,99.0,-375.0,0.0,0
1102,101.0,-358.0,-4.0,0
1103,115.0,-356.0,-21.0,0
1104,112.0,-347.0,-26.0,0
1105,109.0,-335.0,-34.0,0
1106,103.0,-324.0,-40.0,0
1107,97.0,-310.0,-45.0,0
1108,92.0,-291.0,-46.0,0
1109,78.0,-269.0,-45.0,0
1110,68.0,-265.0,-46.0,0
1111,39.0,-233.0,-37.0,0
1112,15.0,-205.0,-37.0,0
1113,8.0,-195.0,-51.0,0
1114,0.0,-198.0,-56.0,0
1115,-14.0,-193.0,-51.0,0
1116,-34.0,-195.0,-48.0,0
1117,-48.0,-203.0,-34.0,0
1118,-57.0,-219.0,-22.0,0
1119,-62.0,-239.0,-9.0,0
1120,-59.0,-251.0,-7.0,0
1121,-53.0,-260.0,-1.0,0
1122,-47.0,-274.0,-3.0,0
1123,-38.0,-288.0,-8.0,0
1124,-33.0,-294.0,-8.0,0
1125,-28.0,-291.0,-8.0,0
1126,-22.0,-294.0,-16.0,0
1127,-16.0,-292.0,-14.0,0
1128,-6.0,-290.0,-18.0,0
1129,1.0,-280.0,-21.0,0
1130,11.0,-275.0,-21.0,0
1131,23.0,-272.0,-23.0,0
1132,33.0,-259.0,-20.0,0
1133,41.0,-252.0,-18.0,0
1134,52.0,-251.0,-16.0,0
1135,59.0,-246.0,-20.0,0
1136,65.0,-245.0,-8.0,0
1137,65.0,-243.0,-3.0,0
1138,68.0,-246.0,-3.0,0
1139,65.0,-244.0,1.0,0
1140,57.0,-239.0,0.0,0
1141,47.0,-238.0,0.0,0
1142,42.0,-235.0,-3.0,0
1143,31.0,-236.0,0.0,0
1144,28.0,-237.0,0.0,0
1145,19.0,-237.0,1.0,0
1146,11.0,-232.0,-1.0,0
1147,4.0,-225.0,1.0,0
1148,4.0,-221.0,5.0,0
1149,-2.0,-217.0,6.0,0
1150,-2.0,-212.0,1.0,0
1151,-9.0,-204.0,7.0,0
1152,-10.0,-203.0,7.0,0
1153,-15.0,-203.0,5.0,0
1154,-16.0,-205.0,3.0,0
1155,-14.0,-207.0,0.0,0
1156,-13.0,-215.0,3.0,0
1157,-19.0,-224.0,1.0,0
1158,-18.0,-228.0,11.0,0
1159,-17.0,-238.0,13.0,0
1160,-19.0,-245.0,17.0,0
1161,-21.0,-245.0,20.0,0
1162,-15.0,-250.0,18.0,0
1163,-11.0,-253.0,23.0,0
1164,-11.0,-252.0,22.0,0
1165,-11.0,-247.0,20.0,0
1166,-5.0,-257.0,19.0,0
1167,-2.0,-258.0,22.0,0
1168,-7.0,-252.0,26.0,0
1169,1.0,-252.0,26.0,0
1170,-2.0,-245.0,21.0,0
1171,0.0,-238.0,20.0,0
1172,0.0,-231.0,17.0,0
1173,-3.0,-217.0,15.0,0
1174,0.0,-209.0,17.0,0
1175,-3.0,-201.0,20.0,0
1176,-8.0,-201.0,25.0,0
1177,-16.0,-201.0,35.0,0
1178,-24.0,-204.0,41.0,0
1179,-28.0,-211.0,50.0,0
1180,-27.0,-214.0,58.0,0
1181,-26.0,-223.0,59.0,0
1182,-26.0,-235.0,62.0,0
1183,-30.0,-241.0,67.0,0
1184,-33.0,-242.0,76.0,0
1185,-23.0,-252.0,68.0,0
1186,-18.0,-258.0,64.0,0
1187,-16.0,-267.0,61.0,0
1188,-17.0,-272.0,62.0,0
1189,-19.0,-279.0,66.0,0
1190,-11.0,-287.0,62.0,0
1191,-7.0,-293.0,53.0,0
1192,-7.0,-294.0,56.0,0
1193,-2.0,-299.0,60.0,0
1194,-1.0,-297.0,63.0,0
1195,-2.0,-296.0,64.0,0
1196,0.0,-297.0,62.0,0
1197,-1.0,-293.0,57.0,0
1198,-3.0,-288.0,38.0,0
1199,-11.0,-283.0,26.0,0
1200,-26.0,-278.0,19.0,0
1201,-36.0,-277.0,16.0,0
1202,-47.0,-274.0,17.0,0
1203,-52.0,-276.0,25.0,0
1204,-51.0,-259.0,30.0,0
1205,-55.0,-287.0,37.0,0
1206,-67.0,-279.0,61.0,0
1207,-68.0,-284.0,77.0,0
1208,-66.0,-288.0,88.0,0
1209,-64.0,-285.0,90.0,0
1210,-61.0,-279.0,91.0,0
1211,-56.0,-274.0,79.0,0
1212,-54.0,-269.0,78.0,0
1213,-53.0,-267.0,68.0,0
1214,-56.0,-267.0,66.0,0
1215,-53.0,-272.0,69.0,0
1216,-59.0,-276.0,65.0,0
1217,-53.0,-286.0,66.0,0
1218,-44.0,-308.0,61.0,0
1219,-42.0,-320.0,59.0,0
1220,-36.0,-338.0,62.0,0
1221,-29.0,-348.0,53.0,0
1222,-18.0,-355.0,46.0,0
1223,-13.0,-356.0,40.0,0
1224,-13.0,-354.0,28.0,0
1225,-16.0,-349.0,17.0,0
1226,-25.0,-342.0,11.0,0
1227,-32.0,-339.0,3.0,0
1228,-42.0,-341.0,-1.0,0
1229,-58.0,-343.0,-3.0,0
1230,-69.0,-348.0,-18.0,0
1231,-73.0,-348.0,-27.0,0
1232,-65.0,-343.0,-35.0,0
1233,-63.0,-330.0,-47.0,0
1234,-54.0,-315.0,-55.0,0
1235,-46.0,-295.0,-58.0,0
1236,-35.0,-267.0,-56.0,0
1237,-28.0,-246.0,-54.0,0
1238,-15.0,-227.0,-53.0,0
1239,-4.0,-214.0,-60.0,0
1240,5.0,-204.0,-58.0,0
1241,19.0,-203.0,-48.0,0
1242,33.0,-203.0,-43.0,0
1243,40.0,-205.0,-37.0,0
1244,48.0,-213.0,-31.0,0
1245,49.0,-226.0,-27.0,0
1246,53.0,-243.0,-20.0,0
1247,53.0,-258.0,-11.0,0
1248,52.0,-284.0,-4.0,0
1249,49.0,-301.0,7.0,0
1250,43.0,-313.0,8.0,0
1251,41.0,-324.0,13.0,0
1252,34.0,-326.0,9.0,0
1253,31.0,-328.0,4.0,0
1254,21.0,-323.0,0.0,0
1255,13.0,-322.0,3.0,0
1256,4.0,-310.0,-7.0,0
1257,-6.0,-301.0,-7.0,0
1258,-19.0,-289.0,-7.0,0
1259,-30.0,-282.0,-3.0,0
1260,-41.0,-270.0,4.0,0
1261,-45.0,-262.0,4.0,0
1262,-48.0,-260.0,8.0,0
1263,-51.0,-256.0,10.0,0
1264,-50.0,-250.0,17.0,0
1265,-43.0,-249.0,16.0,0
1266,-39.0,-246.0,10.0,0
1267,-32.0,-243.0,5.0,0
1268,-28.0,-238.0,8.0,0
1269,-14.0,-235.0,6.0,0
1270,-6.0,-234.0,10.0,0
1271,-4.0,-229.0,4.0,0
1272,-7.0,-228.0,9.0,0
1273,-10.0,-224.0,18.0,0
1274,-11.0,-225.0,24.0,0
1275,-9.0,-223.0,29.0,0
1276,-3.0,-228.0,28.0,0
1277,4.0,-226.0,22.0,0
1278,11.0,-228.0,29.0,0
1279,15.0,-231.0,29.0,0
1280,17.0,-228.0,30.0,0
1281,16.0,-228.0,33.0,0
1282,22.0,-230.0,38.0,0
1283,27.0,-229.0,43.0,0
1284,31.0,-232.0,40.0,0
1285,36.0,-233.0,42.0,0
1286,39.0,-235.0,42.0,0
1287,41.0,-238.0,48.0,0
1288,38.0,-241.0,45.0,0
1289,36.0,-239.0,39.0,0
1290,34.0,-238.0,47.0,0
1291,32.0,-240.0,42.0,0
1292,29.0,-238.0,44.0,0
1293,24.0,-234.0,50.0,0
1294,21.0,-233.0,46.0,0
1295,14.0,-232.0,49.0,0
1296,11.0,-227.0,53.0,0
1297,8.0,-226.0,61.0,0
1298,5.0,-223.0,58.0,0
1299,5.0,-222.0,67.0,0
1300,3.0,-215.0,65.0,0
1301,5.0,-216.0,65.0,0
1302,4.0,-213.0,69.0,0
1303,4.0,-214.0,73.0,0
1304,4.0,-213.0,74.0,0
1305,2.0,-216.0,81.0,0
1306,1.0,-217.0,83.0,0
1307,-1.0,-217.0,88.0,0
1308,1.0,-221.0,89.0,0
1309,1.0,-234.0,91.0,0
1310,-2.0,-239.0,97.0,0
1311,-8.0,-247.0,107.0,0
1312,-12.0,-256.0,106.0,0
1313,-7.0,-258.0,105.0,0
1314,-4.0,-257.0,86.0,0
1315,2.0,-257.0,67.0,0
1316,9.0,-261.0,50.0,0
1317,10.0,-264.0,40.0,0
1318,4.0,-266.0,35.0,0
1319,-6.0,-264.0,41.0,0
1320,-13.0,-260.0,55.0,0
1321,-7.0,-264.0,51.0,0
1322,1.0,-255.0,54.0,0
1323,15.0,-253.0,46.0,0
1324,39.0,-249.0,32.0,0
1325,63.0,-253.0,19.0,0
1326,92.0,-260.0,15.0,0
1327,114.0,-272.0,22.0,0
1328,128.0,-289.0,28.0,0
1329,137.0,-306.0,44.0,0
1330,140.0,-319.0,58.0,0
1331,135.0,-327.0,71.0,0
1332,125.0,-323.0,72.0,0
1333,112.0,-320.0,67.0,0
1334,103.0,-320.0,57.0,0
1335,96.0,-327.0,40.0,0
1336,91.0,-344.0,30.0,0
1337,93.0,-359.0,21.0,0
1338,88.0,-384.0,10.0,0
1339,91.0,-403.0,14.0,0
1340,88.0,-420.0,14.0,0
1341,92.0,-430.0,14.0,0
1342,102.0,-426.0,18.0,0
1343,98.0,-439.0,12.0,0
1344,109.0,-418.0,15.0,0
1345,89.0,-391.0,13.0,0
1346,74.0,-362.0,14.0,0
1347,66.0,-350.0,23.0,0
1348,52.0,-329.0,26.0,0
1349,38.0,-313.0,37.0,0
1350,32.0,-296.0,42.0,0
1351,22.0,-281.0,31.0,0
1352,23.0,-271.0,17.0,0
1353,18.0,-256.0,6.0,0
1354,17.0,-236.0,-17.0,0
1355,10.0,-212.0,-31.0,0
1356,6.0,-195.0,-47.0,0
1357,0.0,-178.0,-61.0,0
1358,-1.0,-174.0,-64.0,0
1359,-9.0,-169.0,-63.0,0
1360,-25.0,-165.0,-56.0,0
1361,-41.0,-169.0,-42.0,0
1362,-56.0,-173.0,-37.0,0
1363,-64.0,-177.0,-29.0,0
1364,-71.0,-190.0,-22.0,0
1365,-69.0,-205.0,-20.0,0
1366,-64.0,-225.0,-16.0,0
1367,-54.0,-249.0,-12.0,0
1368,-41.0,-268.0,-6.0,0
1369,-31.0,-289.0,-6.0,0
1370,-23.0,-303.0,0.0,0
1371,-8.0,-319.0,3.0,0
1372,4.0,-332.0,5.0,0
1373,14.0,-334.0,5.0,0
1374,26.0,-331.0,-1.0,0
1375,37.0,-334.0,1.0,0
1376,47.0,-326.0,0.0,0
1377,50.0,-315.0,0.0,0
1378,49.0,-299.0,0.0,0
1379,38.0,-277.0,-1.0,0
1380,30.0,-264.0,-6.0,0
1381,23.0,-245.0,1.0,0
1382,22.0,-236.0,2.0,0
1383,15.0,-228.0,5.0,0
1384,7.0,-225.0,13.0,0
1385,1.0,-224.0,9.0,0
1386,1.0,-215.0,0.0,0
1387,7.0,-224.0,6.0,0
1388,9.0,-226.0,5.0,0
1389,2.0,-225.0,6.0,0
1390,8.0,-227.0,6.0,0
1391,2.0,-219.0,12.0,0
1392,-4.0,-222.0,-4.0,0
1393,4.0,-218.0,3.0,0
1394,1.0,-223.0,6.0,0
1395,4.0,-221.0,18.0,0
1396,0.0,-223.0,13.0,0
1397,3.0,-222.0,13.0,0
1398,6.0,-221.0,18.0,0
1399,3.0,-223.0,15.0,0
1400,9.0,-227.0,23.0,0
1401,18.0,-235.0,20.0,0
1402,3.0,-225.0,28.0,0
1403,13.0,-221.0,39.0,0
1404,-1.0,-235.0,25.0,0
1405,-9.0,-241.0,24.0,0
1406,-17.0,-239.0,18.0,0
1407,-17.0,-254.0,39.0,0
1408,-23.0,-253.0,34.0,0
1409,-23.0,-257.0,39.0,0
1410,-21.0,-242.0,45.0,0
1411,-30.0,-253.0,45.0,0
1412,-34.0,-252.0,44.0,0
1413,-26.0,-249.0,47.0,0
1414,-17.0,-245.0,41.0,0
1415,-20.0,-230.0,36.0,0
1416,-31.0,-221.0,41.0,0
1417,-21.0,-223.0,39.0,0
1418,-21.0,-213.0,21.0,0
1419,-16.0,-230.0,37.0,0
1420,-13.0,-223.0,37.0,0
1421,-10.0,-226.0,38.0,0
1422,-10.0,-218.0,44.0,0
1423,-15.0,-222.0,47.0,0
1424,-10.0,-213.0,47.0,0
1425,-5.0,-221.0,44.0,0
1426,-14.0,-214.0,49.0,0
1427,-16.0,-217.0,59.0,0
1428,-17.0,-219.0,61.0,0
1429,-14.0,-224.0,63.0,0
1430,-10.0,-224.0,66.0,0
1431,-10.0,-231.0,68.0,0
1432,-8.0,-237.0,72.0,0
1433,-1.0,-242.0,55.0,0
1434,-2.0,-242.0,71.0,0
1435,3.0,-253.0,63.0,0
1436,3.0,-261.0,57.0,0
1437,9.0,-273.0,52.0,0
1438,16.0,-269.0,51.0,0
1439,11.0,-286.0,58.0,0
1440,10.0,-290.0,49.0,0
1441,8.0,-296.0,41.0,0
1442,0.0,-294.0,33.0,0
1443,-12.0,-295.0,22.0,0
1444,-26.0,-297.0,16.0,0
1445,-18.0,-288.0,3.0,0
1446,-25.0,-306.0,6.0,0
1447,-37.0,-307.0,13.0,0
1448,-45.0,-304.0,9.0,0
1449,-44.0,-312.0,27.0,0
1450,-47.0,-308.0,25.0,0
1451,-43.0,-304.0,45.0,0
1452,-49.0,-307.0,83.0,0
1453,-62.0,-291.0,84.0,0
1454,-51.0,-277.0,99.0,0
1455,-41.0,-280.0,85.0,0
1456,-62.0,-271.0,95.0,0
1457,-53.0,-263.0,82.0,0
1458,-44.0,-261.0,66.0,0
1459,-43.0,-265.0,65.0,0
1460,-39.0,-267.0,64.0,0
1461,-24.0,-269.0,64.0,0
1462,-30.0,-282.0,55.0,0
1463,-20.0,-295.0,39.0,0
1464,-19.0,-315.0,45.0,0
1465,-10.0,-331.0,53.0,0
1466,-4.0,-344.0,46.0,0
1467,11.0,-357.0,41.0,0
1468,15.0,-349.0,27.0,0
1469,27.0,-352.0,29.0,0
1470,21.0,-359.0,26.0,0
1471,2.0,-351.0,3.0,0
1472,-4.0,-345.0,6.0,0
1473,-12.0,-342.0,3.0,0
1474,-19.0,-345.0,-6.0,0
1475,-20.0,-350.0,-10.0,0
1476,-35.0,-355.0,-15.0,0
1477,-54.0,-355.0,-12.0,0
1478,-45.0,-346.0,-16.0,0
1479,-47.0,-335.0,-35.0,0
1480,-38.0,-330.0,-42.0,0
1481,-35.0,-311.0,-52.0,0
1482,-22.0,-289.0,-53.0,0
1483,-30.0,-260.0,-65.0,0
1484,-23.0,-239.0,-66.0,0
1485,-13.0,-214.0,-66.0,0
1486,-8.0,-193.0,-74.0,0
1487,-1.0,-179.0,-74.0,0
1488,8.0,-169.0,-71.0,0
1489,16.0,-173.0,-65.0,0
1490,20.0,-184.0,-51.0,0
1491,26.0,-200.0,-37.0,0
1492,23.0,-216.0,-27.0,0
1493,22.0,-235.0,-20.0,0
1494,17.0,-248.0,-4.0,0
1495,15.0,-275.0,0.0,0
1496,13.0,-287.0,6.0,0
1497,10.0,-301.0,3.0,0
1498,7.0,-307.0,6.0,0
1499,-1.0,-305.0,10.0,0
1500,-8.0,-312.0,4.0,0
1501,-19.0,-307.0,0.0,0
1502,-34.0,-299.0,-6.0,0
1503,-43.0,-295.0,-9.0,0
1504,-48.0,-291.0,-4.0,0
1505,-61.0,-285.0,-3.0,0
1506,-62.0,-284.0,0.0,0
1507,-59.0,-279.0,4.0,0
1508,-49.0,-272.0,17.0,0
1509,-44.0,-270.0,12.0,0
1510,-37.0,-266.0,14.0,0
1511,-30.0,-261.0,14.0,0
1512,-17.0,-259.0,6.0,0
1513,-15.0,-254.0,3.0,0
1514,-4.0,-251.0,3.0,0
1515,4.0,-244.0,3.0,0
1516,3.0,-234.0,-1.0,0
1517,7.0,-234.0,-2.0,0
1518,9.0,-227.0,0.0,0
1519,11.0,-224.0,1.0,0
1520,14.0,-223.0,4.0,0
1521,16.0,-219.0,11.0,0
1522,19.0,-224.0,14.0,0
1523,20.0,-224.0,18.0,0
1524,21.0,-223.0,21.0,0
1525,24.0,-224.0,25.0,0
1526,26.0,-231.0,28.0,0
1527,28.0,-233.0,30.0,0
1528,29.0,-233.0,33.0,0
1529,27.0,-238.0,29.0,0
1530,29.0,-241.0,28.0,0
1531,27.0,-239.0,31.0,0
1532,27.0,-242.0,31.0,0
1533,29.0,-242.0,31.0,0
1534,27.0,-240.0,31.0,0
1535,31.0,-240.0,32.0,0
1536,34.0,-240.0,33.0,0
1537,27.0,-235.0,35.0,0
1538,25.0,-236.0,35.0,0
1539,18.0,-225.0,38.0,0
1540,22.0,-224.0,41.0,0
1541,18.0,-219.0,36.0,0
1542,19.0,-216.0,41.0,0
1543,17.0,-215.0,41.0,0
1544,18.0,-211.0,43.0,0
1545,16.0,-212.0,46.0,0
1546,17.0,-211.0,47.0,0
1547,14.0,-212.0,50.0,0
1548,15.0,-210.0,50.0,0
1549,14.0,-215.0,56.0,0
1550,12.0,-217.0,64.0,0
1551,9.0,-221.0,66.0,0
1552,10.0,-224.0,80.0,0
1553,4.0,-233.0,86.0,0
1554,4.0,-233.0,91.0,0
1555,1.0,-238.0,96.0,0
1556,-3.0,-243.0,98.0,0
1557,-11.0,-247.0,97.0,0
1558,-11.0,-246.0,109.0,0
1559,-15.0,-254.0,110.0,0
1560,-15.0,-253.0,99.0,0
1561,-8.0,-260.0,90.0,0
1562,-6.0,-258.0,75.0,0
1563,0.0,-258.0,62.0,0
1564,4.0,-262.0,43.0,0
1565,6.0,-263.0,38.0,0
1566,5.0,-263.0,35.0,0
1567,8.0,-262.0,36.0,0
1568,8.0,-260.0,37.0,0
1569,12.0,-274.0,33.0,0
1570,16.0,-250.0,35.0,0
1571,31.0,-245.0,29.0,0
1572,55.0,-247.0,21.0,0
1573,84.0,-253.0,12.0,0
1574,110.0,-266.0,14.0,0
1575,130.0,-292.0,27.0,0
1576,145.0,-314.0,49.0,0
1577,145.0,-325.0,73.0,0
1578,130.0,-327.0,90.0,0
1579,121.0,-326.0,105.0,0
1580,103.0,-318.0,102.0,0
1581,84.0,-312.0,100.0,0
1582,73.0,-314.0,93.0,0
1583,60.0,-317.0,82.0,0
1584,49.0,-320.0,70.0,0
1585,38.0,-325.0,65.0,0
1586,27.0,-336.0,62.0,0
1587,15.0,-343.0,61.0,0
1588,10.0,-351.0,63.0,0
1589,6.0,-356.0,63.0,0
1590,8.0,-354.0,65.0,0
1591,17.0,-356.0,66.0,0
1592,28.0,-356.0,65.0,0
1593,44.0,-353.0,61.0,0
1594,57.0,-349.0,59.0,0
1595,66.0,-343.0,47.0,0
1596,82.0,-335.0,24.0,0
1597,90.0,-331.0,1.0,0
1598,104.0,-322.0,-24.0,0
1599,116.0,-315.0,-45.0,0
1600,126.0,-302.0,-69.0,0
1601,126.0,-293.0,-81.0,0
1602,115.0,-279.0,-88.0,0
1603,100.0,-267.0,-88.0,0
1604,76.0,-251.0,-84.0,0
1605,48.0,-235.0,-66.0,0
1606,14.0,-214.0,-45.0,0
1607,-19.0,-196.0,-30.0,0
1608,-44.0,-192.0,-16.0,0
1609,-60.0,-192.0,-14.0,0
1610,-68.0,-193.0,-15.0,0
1611,-78.0,-209.0,-20.0,0
1612,-81.0,-233.0,-17.0,0
1613,-82.0,-256.0,-12.0,0
1614,-78.0,-282.0,-7.0,0
1615,-71.0,-307.0,2.0,0
1616,-63.0,-320.0,1.0,0
1617,-54.0,-331.0,9.0,0
1618,-42.0,-331.0,13.0,0
1619,-31.0,-324.0,7.0,0
1620,-19.0,-317.0,2.0,0
1621,-7.0,-302.0,-6.0,0
1622,6.0,-285.0,-11.0,0
1623,18.0,-273.0,-14.0,0
1624,31.0,-256.0,-13.0,0
1625,40.0,-248.0,-13.0,0
1626,43.0,-237.0,-11.0,0
1627,47.0,-233.0,-7.0,0
1628,54.0,-228.0,-4.0,0
1629,60.0,-230.0,-4.0,0
1630,64.0,-236.0,-3.0,0
1631,66.0,-236.0,-2.0,0
1632,67.0,-233.0,-4.0,0
1633,62.0,-232.0,-3.0,0
1634,62.0,-236.0,-1.0,0
1635,58.0,-240.0,-4.0,0
1636,53.0,-242.0,0.0,0
1637,47.0,-246.0,6.0,0
1638,38.0,-247.0,14.0,0
1639,33.0,-245.0,19.0,0
1640,25.0,-243.0,24.0,0
1641,21.0,-238.0,24.0,0
1642,18.0,-234.0,26.0,0
1643,13.0,-226.0,15.0,0
1644,12.0,-218.0,19.0,0
1645,8.0,-214.0,18.0,0
1646,10.0,-205.0,13.0,0
1647,4.0,-197.0,10.0,0
1648,1.0,-195.0,11.0,0
1649,-3.0,-192.0,14.0,0
1650,-9.0,-191.0,17.0,0
1651,-12.0,-194.0,16.0,0
1652,-23.0,-201.0,21.0,0
1653,-28.0,-208.0,26.0,0
1654,-32.0,-222.0,28.0,0
1655,-35.0,-235.0,33.0,0
1656,-44.0,-246.0,35.0,0
1657,-45.0,-257.0,44.0,0
1658,-48.0,-262.0,47.0,0
1659,-42.0,-271.0,48.0,0
1660,-39.0,-273.0,47.0,0
1661,-38.0,-265.0,46.0,0
1662,-23.0,-261.0,40.0,0
1663,-26.0,-256.0,30.0,0
1664,-20.0,-246.0,33.0,0
1665,-24.0,-233.0,32.0,0
1666,-16.0,-229.0,30.0,0
1667,-15.0,-224.0,37.0,0
1668,-21.0,-214.0,36.0,0
1669,-24.0,-209.0,38.0,0
1670,-25.0,-206.0,44.0,0
1671,-33.0,-205.0,48.0,0
1672,-37.0,-205.0,54.0,0
1673,-37.0,-211.0,62.0,0
1674,-35.0,-219.0,61.0,0
1675,-36.0,-226.0,62.0,0
1676,-34.0,-241.0,69.0,0
1677,-28.0,-254.0,70.0,0
1678,-28.0,-266.0,68.0,0
1679,-26.0,-271.0,75.0,0
1680,-22.0,-280.0,73.0,0
1681,-11.0,-290.0,68.0,0
1682,-8.0,-298.0,69.0,0
1683,-2.0,-299.0,76.0,0
1684,1.0,-303.0,80.0,0
1685,0.0,-301.0,91.0,0
1686,1.0,-300.0,88.0,0
1687,12.0,-288.0,93.0,0
1688,3.0,-283.0,74.0,0
1689,-2.0,-278.0,55.0,0
1690,-16.0,-270.0,39.0,0
1691,-27.0,-270.0,23.0,0
1692,-36.0,-270.0,15.0,0
1693,-45.0,-270.0,10.0,0
1694,-49.0,-280.0,13.0,0
1695,-57.0,-281.0,24.0,0
1696,-58.0,-291.0,38.0,0
1697,-60.0,-296.0,46.0,0
1698,-60.0,-287.0,59.0,0
1699,-60.0,-302.0,65.0,0
1700,-68.0,-296.0,79.0,0
1701,-74.0,-293.0,82.0,0
1702,-68.0,-284.0,82.0,0
1703,-71.0,-275.0,75.0,0
1704,-63.0,-276.0,70.0,0
1705,-66.0,-275.0,68.0,0
1706,-66.0,-281.0,64.0,0
1707,-62.0,-289.0,62.0,0
1708,-55.0,-298.0,66.0,0
1709,-54.0,-319.0,57.0,0
1710,-45.0,-328.0,58.0,0
1711,-31.0,-341.0,63.0,0
1712,-16.0,-348.0,62.0,0
1713,1.0,-346.0,56.0,0
1714,14.0,-346.0,47.0,0
1715,21.0,-338.0,35.0,0
1716,26.0,-336.0,29.0,0
1717,19.0,-336.0,13.0,0
1718,4.0,-341.0,8.0,0
1719,-10.0,-356.0,5.0,0
1720,-30.0,-367.0,1.0,0
1721,-35.0,-371.0,-1.0,0
1722,-36.0,-368.0,-17.0,0
1723,-36.0,-360.0,-27.0,0
1724,-36.0,-341.0,-30.0,0
1725,-35.0,-320.0,-34.0,0
1726,-27.0,-296.0,-33.0,0
1727,-25.0,-266.0,-39.0,0
1728,-22.0,-241.0,-37.0,0
1729,-18.0,-216.0,-41.0,0
1730,-4.0,-200.0,-44.0,0
1731,1.0,-187.0,-43.0,0
1732,13.0,-188.0,-37.0,0
1733,21.0,-191.0,-31.0,0
1734,28.0,-203.0,-26.0,0
1735,32.0,-216.0,-15.0,0
1736,32.0,-232.0,-1.0,0
1737,30.0,-251.0,4.0,0
1738,21.0,-266.0,8.0,0
1739,14.0,-281.0,8.0,0
1740,11.0,-293.0,12.0,0
1741,7.0,-305.0,3.0,0
1742,-1.0,-307.0,0.0,0
1743,-4.0,-310.0,-4.0,0
1744,-16.0,-308.0,-2.0,0
1745,-26.0,-301.0,-5.0,0
1746,-32.0,-295.0,0.0,0
1747,-42.0,-287.0,-3.0,0
1748,-50.0,-276.0,1.0,0
1749,-53.0,-267.0,1.0,0
1750,-51.0,-260.0,3.0,0
1751,-45.0,-255.0,9.0,0
1752,-42.0,-250.0,10.0,0
1753,-35.0,-244.0,7.0,0
1754,-32.0,-245.0,11.0,0
1755,-27.0,-240.0,13.0,0
1756,-23.0,-241.0,13.0,0
1757,-18.0,-244.0,13.0,0
1758,-12.0,-243.0,13.0,0
1759,-9.0,-245.0,9.0,0
1760,-5.0,-247.0,12.0,0
1761,0.0,-249.0,12.0,0
1762,3.0,-254.0,21.0,0
1763,2.0,-250.0,24.0,0
1764,4.0,-251.0,25.0,0
1765,5.0,-249.0,29.0,0
1766,8.0,-246.0,31.0,0
1767,10.0,-242.0,33.0,0
1768,12.0,-244.0,36.0,0
1769,14.0,-239.0,36.0,0
1770,14.0,-237.0,37.0,0
1771,17.0,-236.0,36.0,0
1772,20.0,-239.0,37.0,0
1773,23.0,-234.0,35.0,0
1774,26.0,-232.0,33.0,0
1775,28.0,-231.0,35.0,0
1776,33.0,-232.0,33.0,0
1777,37.0,-234.0,36.0,0
1778,40.0,-230.0,31.0,0
1779,44.0,-230.0,34.0,0
1780,47.0,-230.0,36.0,0
1781,50.0,-226.0,39.0,0
1782,53.0,-229.0,40.0,0
1783,52.0,-226.0,46.0,0
1784,50.0,-225.0,44.0,0
1785,49.0,-227.0,49.0,0
1786,46.0,-227.0,53.0,0
1787,40.0,-227.0,53.0,0
1788,41.0,-229.0,57.0,0
1789,34.0,-223.0,56.0,0
1790,33.0,-227.0,57.0,0
1791,27.0,-225.0,59.0,0
1792,26.0,-223.0,61.0,0
1793,21.0,-216.0,62.0,0
1794,19.0,-221.0,67.0,0
1795,17.0,-216.0,74.0,0
1796,15.0,-217.0,73.0,0
1797,10.0,-219.0,76.0,0
1798,6.0,-222.0,82.0,0
1799,3.0,-228.0,89.0,0
1800,3.0,-229.0,97.0,0
1801,-1.0,-232.0,90.0,0
1802,2.0,-238.0,104.0,0
1803,1.0,-245.0,105.0,0
1804,0.0,-243.0,105.0,0
1805,-3.0,-247.0,102.0,0
1806,0.0,-251.0,96.0,0
1807,-1.0,-254.0,93.0,0
1808,5.0,-256.0,81.0,0
1809,6.0,-257.0,73.0,0
1810,12.0,-257.0,65.0,0
1811,14.0,-255.0,54.0,0
1812,13.0,-247.0,52.0,0
1813,23.0,-246.0,35.0,0
1814,29.0,-230.0,31.0,0
1815,37.0,-229.0,20.0,0
1816,50.0,-226.0,12.0,0
1817,52.0,-233.0,11.0,0
1818,54.0,-233.0,8.0,0
1819,64.0,-258.0,12.0,0
1820,59.0,-257.0,22.0,0
1821,66.0,-279.0,28.0,0
1822,73.0,-304.0,45.0,0
1823,73.0,-323.0,60.0,0
1824,65.0,-329.0,80.0,0
1825,59.0,-326.0,89.0,0
1826,48.0,-318.0,93.0,0
1827,37.0,-305.0,89.0,0
1828,27.0,-293.0,86.0,0
1829,17.0,-288.0,75.0,0
1830,7.0,-287.0,69.0,0
1831,1.0,-299.0,69.0,0
1832,-2.0,-312.0,65.0,0
1833,-12.0,-323.0,66.0,0
1834,-15.0,-339.0,64.0,0
1835,-15.0,-355.0,64.0,0
1836,-15.0,-365.0,64.0,0
1837,-6.0,-368.0,57.0,0
1838,4.0,-365.0,49.0,0
1839,21.0,-361.0,43.0,0
1840,40.0,-356.0,36.0,0
1841,65.0,-352.0,35.0,0
1842,75.0,-366.0,27.0,0
1843,104.0,-346.0,26.0,0
1844,116.0,-340.0,19.0,0
1845,133.0,-348.0,2.0,0
1846,142.0,-352.0,-9.0,0
1847,138.0,-349.0,-16.0,0
1848,133.0,-342.0,-25.0,0
1849,125.0,-339.0,-33.0,0
1850,112.0,-323.0,-43.0,0
1851,83.0,-302.0,-45.0,0
1852,65.0,-280.0,-42.0,0
1853,44.0,-252.0,-48.0,0
1854,26.0,-234.0,-48.0,0
1855,6.0,-210.0,-53.0,0
1856,-11.0,-196.0,-53.0,0
1857,-26.0,-191.0,-60.0,0
1858,-38.0,-183.0,-61.0,0
1859,-49.0,-186.0,-56.0,0
1860,-60.0,-190.0,-54.0,0
1861,-71.0,-197.0,-41.0,0
1862,-74.0,-204.0,-31.0,0
1863,-73.0,-214.0,-22.0,0
1864,-66.0,-231.0,-16.0,0
1865,-48.0,-244.0,-14.0,0
1866,-35.0,-258.0,-18.0,0
1867,-23.0,-278.0,-20.0,0
1868,-15.0,-294.0,-11.0,0
1869,-4.0,-299.0,-10.0,0
1870,4.0,-306.0,-8.0,0
1871,18.0,-310.0,-4.0,0
1872,32.0,-310.0,-9.0,0
1873,42.0,-304.0,-5.0,0
1874,55.0,-295.0,-6.0,0
1875,66.0,-286.0,-9.0,0
1876,74.0,-277.0,-17.0,0
1877,81.0,-274.0,-14.0,0
1878,81.0,-265.0,-10.0,0
1879,75.0,-256.0,0.0,0
1880,70.0,-255.0,0.0,0
1881,62.0,-251.0,1.0,0
1882,57.0,-253.0,4.0,0
1883,49.0,-254.0,4.0,0
1884,41.0,-253.0,5.0,0
1885,33.0,-250.0,2.0,0
1886,30.0,-253.0,7.0,0
1887,17.0,-254.0,5.0,0
1888,11.0,-251.0,13.0,0
1889,6.0,-246.0,13.0,0
1890,0.0,-236.0,17.0,0
1891,-4.0,-228.0,20.0,0
1892,-10.0,-218.0,20.0,0
1893,-12.0,-213.0,20.0,0
1894,-13.0,-206.0,21.0,0
1895,-20.0,-197.0,21.0,0
1896,-22.0,-198.0,22.0,0
1897,-24.0,-197.0,19.0,0
1898,-27.0,-203.0,22.0,0
1899,-35.0,-207.0,23.0,0
1900,-35.0,-216.0,26.0,0
1901,-37.0,-225.0,30.0,0
1902,-36.0,-234.0,29.0,0
1903,-32.0,-246.0,34.0,0
1904,-25.0,-250.0,33.0,0
1905,-22.0,-256.0,41.0,0
1906,-17.0,-257.0,43.0,0
1907,-16.0,-258.0,45.0,0
1908,-13.0,-257.0,48.0,0
1909,-9.0,-255.0,50.0,0
1910,-1.0,-252.0,51.0,0
1911,0.0,-242.0,46.0,0
1912,3.0,-234.0,46.0,0
1913,1.0,-226.0,43.0,0
1914,0.0,-213.0,39.0,0
1915,0.0,-206.0,42.0,0
1916,-9.0,-197.0,40.0,0
1917,-16.0,-189.0,43.0,0
1918,-19.0,-188.0,45.0,0
1919,-26.0,-188.0,49.0,0
1920,-40.0,-188.0,61.0,0
1921,-41.0,-192.0,69.0,0
1922,-42.0,-199.0,69.0,0
1923,-41.0,-209.0,77.0,0
1924,-40.0,-218.0,80.0,0
1925,-34.0,-231.0,86.0,0
1926,-37.0,-244.0,89.0,0
1927,-32.0,-256.0,88.0,0
1928,-29.0,-264.0,86.0,0
1929,-25.0,-274.0,88.0,0
1930,-15.0,-281.0,79.0,0
1931,-7.0,-288.0,65.0,0
1932,0.0,-289.0,67.0,0
1933,2.0,-286.0,58.0,0
1934,2.0,-277.0,54.0,0
1935,4.0,-273.0,46.0,0
1936,12.0,-269.0,47.0,0
1937,13.0,-262.0,44.0,0
1938,15.0,-260.0,39.0,0
1939,14.0,-267.0,37.0,0
1940,7.0,-267.0,37.0,0
1941,-1.0,-270.0,31.0,0
1942,-17.0,-274.0,35.0,0
1943,-31.0,-277.0,31.0,0
1944,-43.0,-279.0,40.0,0
1945,-55.0,-284.0,45.0,0
1946,-62.0,-284.0,55.0,0
1947,-64.0,-304.0,62.0,0
1948,-72.0,-304.0,81.0,0
1949,-81.0,-303.0,101.0,0
1950,-81.0,-292.0,105.0,0
1951,-76.0,-296.0,100.0,0
1952,-74.0,-287.0,93.0,0
1953,-69.0,-282.0,81.0,0
1954,-64.0,-283.0,74.0,0
1955,-65.0,-277.0,67.0,0
1956,-56.0,-286.0,61.0,0
1957,-48.0,-301.0,59.0,0
1958,-46.0,-310.0,63.0,0
1959,-34.0,-322.0,60.0,0
1960,-20.0,-337.0,59.0,0
1961,-1.0,-349.0,55.0,0
1962,0.0,-354.0,45.0,0
1963,-1.0,-357.0,37.0,0
1964,-8.0,-356.0,17.0,0
1965,-20.0,-364.0,10.0,0
1966,-31.0,-362.0,6.0,0
1967,-40.0,-362.0,5.0,0
1968,-46.0,-368.0,-13.0,0
1969,-48.0,-364.0,-23.0,0
1970,-44.0,-369.0,-33.0,0
1971,-37.0,-369.0,-41.0,0
1972,-38.0,-353.0,-46.0,0
1973,-38.0,-339.0,-50.0,0
1974,-34.0,-320.0,-56.0,0
1975,-26.0,-302.0,-59.0,0
1976,-27.0,-279.0,-55.0,0
1977,-21.0,-256.0,-53.0,0
1978,-17.0,-239.0,-57.0,0
1979,-12.0,-227.0,-53.0,0
1980,-1.0,-209.0,-45.0,0
1981,9.0,-199.0,-49.0,0
1982,21.0,-194.0,-43.0,0
1983,28.0,-198.0,-41.0,0
1984,37.0,-199.0,-33.0,0
1985,40.0,-207.0,-24.0,0
1986,43.0,-220.0,-18.0,0
1987,44.0,-239.0,-11.0,0
1988,35.0,-257.0,-4.0,0
1989,33.0,-273.0,1.0,0
1990,27.0,-290.0,0.0,0
1991,26.0,-297.0,2.0,0
1992,23.0,-308.0,1.0,0
1993,14.0,-305.0,-1.0,0
1994,8.0,-310.0,-3.0,0
1995,-1.0,-306.0,-1.0,0
1996,-13.0,-306.0,-2.0,0
1997,-26.0,-302.0,0.0,0
1998,-42.0,-294.0,3.0,0
1999,-50.0,-289.0,6.0,0
2000,-61.0,-281.0,6.0,0
2001,-60.0,-275.0,8.0,0
2002,-63.0,-270.0,10.0,0
2003,-58.0,-257.0,14.0,0
2004,-51.0,-259.0,1.0,0
2005,-41.0,-251.0,1.0,0
2006,-34.0,-245.0,4.0,0
2007,-31.0,-239.0,3.0,0
2008,-23.0,-240.0,3.0,0
2009,-16.0,-237.0,6.0,0
2010,-14.0,-226.0,5.0,0
2011,-11.0,-234.0,8.0,0
2012,-1.0,-237.0,12.0,0
2013,2.0,-234.0,12.0,0
2014,7.0,-235.0,12.0,0
2015,10.0,-225.0,13.0,0
2016,11.0,-225.0,7.0,0
2017,15.0,-223.0,13.0,0
2018,14.0,-220.0,15.0,0
2019,15.0,-220.0,18.0,0
2020,17.0,-219.0,23.0,0
2021,15.0,-221.0,22.0,0
2022,17.0,-226.0,22.0,0
2023,18.0,-225.0,25.0,0
2024,19.0,-231.0,23.0,0
2025,23.0,-238.0,22.0,0
2026,23.0,-239.0,25.0,0
2027,21.0,-244.0,25.0,0
2028,22.0,-244.0,27.0,0
2029,19.0,-245.0,26.0,0
2030,16.0,-239.0,28.0,0
2031,14.0,-240.0,29.0,0
2032,9.0,-242.0,23.0,0
2033,13.0,-242.0,32.0,0
2034,10.0,-234.0,33.0,0
2035,10.0,-234.0,32.0,0
2036,8.0,-237.0,31.0,0
2037,10.0,-234.0,33.0,0
2038,11.0,-229.0,38.0,0
2039,11.0,-228.0,45.0,0
2040,12.0,-224.0,48.0,0
2041,14.0,-223.0,53.0,0
2042,18.0,-218.0,53.0,0
2043,22.0,-221.0,57.0,0
2044,23.0,-216.0,62.0,0
2045,23.0,-216.0,64.0,0
2046,25.0,-218.0,68.0,0
2047,27.0,-226.0,79.0,0
2048,26.0,-229.0,82.0,0
2049,22.0,-232.0,89.0,0
2050,17.0,-239.0,91.0,0
2051,12.0,-247.0,99.0,0
2052,7.0,-251.0,103.0,0
2053,3.0,-255.0,96.0,0
2054,0.0,-258.0,103.0,0
2055,-8.0,-260.0,95.0,0
2056,-8.0,-265.0,88.0,0
2057,-16.0,-266.0,81.0,0
2058,-20.0,-262.0,69.0,0
2059,-21.0,-258.0,58.0,0
2060,-25.0,-253.0,52.0,0
2061,-29.0,-244.0,43.0,0
2062,-30.0,-238.0,34.0,0
2063,-31.0,-242.0,29.0,0
2064,-23.0,-238.0,26.0,0
2065,-17.0,-240.0,18.0,0
2066,5.0,-245.0,4.0,0
2067,13.0,-241.0,-6.0,0
2068,40.0,-255.0,-9.0,0
2069,73.0,-270.0,-8.0,0
2070,94.0,-288.0,9.0,0
2071,114.0,-305.0,36.0,0
2072,126.0,-318.0,71.0,0
2073,130.0,-320.0,102.0,0
2074,130.0,-316.0,121.0,0
2075,127.0,-307.0,119.0,0
2076,120.0,-305.0,113.0,0
2077,110.0,-320.0,103.0,0
2078,94.0,-314.0,98.0,0
2079,77.0,-316.0,83.0,0
2080,68.0,-332.0,72.0,0
2081,62.0,-349.0,63.0,0
2082,45.0,-357.0,56.0,0
2083,39.0,-365.0,49.0,0
2084,30.0,-371.0,51.0,0
2085,28.0,-372.0,49.0,0
2086,35.0,-372.0,49.0,0
2087,46.0,-368.0,48.0,0
2088,62.0,-371.0,43.0,0
2089,73.0,-380.0,41.0,0
2090,96.0,-365.0,36.0,0
2091,101.0,-356.0,29.0,0
2092,113.0,-352.0,26.0,0
2093,121.0,-353.0,18.0,0
2094,108.0,-343.0,16.0,0
2095,92.0,-325.0,20.0,0
2096,96.0,-319.0,18.0,0
2097,94.0,-297.0,2.0,0
2098,97.0,-280.0,-11.0,0
2099,93.0,-264.0,-30.0,0
2100,87.0,-249.0,-39.0,0
2101,72.0,-232.0,-45.0,0
2102,56.0,-209.0,-44.0,0
2103,37.0,-196.0,-41.0,0
2104,15.0,-183.0,-41.0,0
2105,0.0,-172.0,-45.0,0
2106,-13.0,-164.0,-52.0,0
2107,-28.0,-163.0,-54.0,0
2108,-45.0,-166.0,-48.0,0
2109,-65.0,-170.0,-41.0,0
2110,-84.0,-177.0,-25.0,0
2111,-90.0,-192.0,-12.0,0
2112,-97.0,-213.0,-3.0,0
2113,-83.0,-237.0,1.0,0
2114,-74.0,-264.0,4.0,0
2115,-64.0,-284.0,7.0,0
2116,-48.0,-308.0,6.0,0
2117,-39.0,-329.0,9.0,0
2118,-28.0,-341.0,10.0,0
2119,-21.0,-345.0,13.0,0
2120,-11.0,-345.0,11.0,0
2121,0.0,-342.0,2.0,0
2122,11.0,-331.0,0.0,0
2123,28.0,-320.0,-4.0,0
2124,38.0,-307.0,-10.0,0
2125,46.0,-289.0,-14.0,0
2126,52.0,-275.0,-8.0,0
2127,52.0,-260.0,-2.0,0
2128,49.0,-254.0,1.0,0
2129,49.0,-246.0,2.0,0
2130,47.0,-241.0,2.0,0
2131,39.0,-232.0,7.0,0
2132,33.0,-231.0,9.0,0
2133,30.0,-228.0,4.0,0
2134,22.0,-228.0,10.0,0
2135,25.0,-226.0,12.0,0
2136,18.0,-231.0,12.0,0
2137,14.0,-237.0,15.0,0
2138,8.0,-232.0,11.0,0
2139,13.0,-237.0,11.0,0
2140,12.0,-236.0,15.0,0
2141,10.0,-233.0,14.0,0
2142,13.0,-229.0,14.0,0
2143,10.0,-223.0,16.0,0
2144,10.0,-222.0,18.0,0
2145,8.0,-217.0,21.0,0
2146,5.0,-214.0,22.0,0
2147,8.0,-212.0,24.0,0
2148,8.0,-208.0,24.0,0
2149,4.0,-208.0,19.0,0
2150,2.0,-209.0,18.0,0
2151,-2.0,-214.0,20.0,0
2152,-5.0,-224.0,24.0,0
2153,-11.0,-232.0,27.0,0
2154,-15.0,-236.0,28.0,0
2155,-13.0,-250.0,34.0,0
2156,-20.0,-255.0,43.0,0
2157,-22.0,-258.0,46.0,0
2158,-20.0,-258.0,51.0,0
2159,-16.0,-256.0,51.0,0
2160,-15.0,-256.0,46.0,0
2161,-14.0,-249.0,57.0,0
2162,-12.0,-239.0,44.0,0
2163,-9.0,-238.0,51.0,0
2164,-7.0,-230.0,48.0,0
2165,-6.0,-225.0,53.0,0
2166,-13.0,-221.0,53.0,0
2167,-14.0,-217.0,53.0,0
2168,-21.0,-211.0,58.0,0
2169,-27.0,-203.0,61.0,0
2170,-29.0,-201.0,61.0,0
2171,-34.0,-198.0,63.0,0
2172,-38.0,-199.0,65.0,0
2173,-43.0,-199.0,68.0,0
2174,-47.0,-208.0,74.0,0
2175,-47.0,-217.0,77.0,0
2176,-47.0,-225.0,76.0,0
2177,-51.0,-232.0,80.0,0
2178,-40.0,-251.0,72.0,0
2179,-42.0,-265.0,69.0,0
2180,-28.0,-273.0,70.0,0
2181,-23.0,-279.0,62.0,0
2182,-12.0,-284.0,57.0,0
2183,-3.0,-280.0,47.0,0
2184,2.0,-282.0,47.0,0
2185,5.0,-280.0,46.0,0
2186,7.0,-279.0,46.0,0
2187,6.0,-277.0,39.0,0
2188,2.0,-274.0,32.0,0
2189,-8.0,-277.0,23.0,0
2190,-17.0,-280.0,14.0,0
2191,-41.0,-261.0,17.0,0
2192,-44.0,-287.0,9.0,0
2193,-64.0,-296.0,20.0,0
2194,-86.0,-298.0,45.0,0
2195,-92.0,-309.0,57.0,0
2196,-93.0,-316.0,69.0,0
2197,-95.0,-314.0,82.0,0
2198,-99.0,-314.0,92.0,0
2199,-96.0,-302.0,92.0,0
2200,-96.0,-295.0,90.0,0
2201,-86.0,-288.0,86.0,0
2202,-81.0,-287.0,83.0,0
2203,-73.0,-289.0,72.0,0
2204,-74.0,-296.0,71.0,0
2205,-66.0,-298.0,65.0,0
2206,-60.0,-306.0,59.0,0
2207,-44.0,-321.0,52.0,0
2208,-28.0,-341.0,44.0,0
2209,-14.0,-353.0,42.0,0
2210,0.0,-366.0,38.0,0
2211,6.0,-367.0,33.0,0
2212,16.0,-371.0,27.0,0
2213,11.0,-369.0,27.0,0
2214,8.0,-365.0,17.0,0
2215,1.0,-364.0,18.0,0
2216,-3.0,-363.0,7.0,0
2217,-12.0,-361.0,0.0,0
2218,-18.0,-363.0,-9.0,0
2219,-29.0,-356.0,-21.0,0
2220,-35.0,-347.0,-33.0,0
2221,-32.0,-332.0,-48.0,0
2222,-37.0,-315.0,-55.0,0
2223,-31.0,-292.0,-61.0,0
2224,-26.0,-272.0,-60.0,0
2225,-26.0,-249.0,-64.0,0
2226,-25.0,-238.0,-58.0,0
2227,-17.0,-212.0,-64.0,0
2228,-10.0,-193.0,-62.0,0
2229,1.0,-190.0,-57.0,0
2230,12.0,-187.0,-51.0,0
2231,24.0,-188.0,-43.0,0
2232,32.0,-196.0,-31.0,0
2233,37.0,-207.0,-27.0,0
2234,39.0,-224.0,-19.0,0
2235,37.0,-241.0,-9.0,0
2236,29.0,-257.0,-2.0,0
2237,28.0,-283.0,4.0,0
2238,22.0,-297.0,6.0,0
2239,16.0,-303.0,0.0,0
2240,13.0,-305.0,1.0,0
2241,6.0,-304.0,-2.0,0
2242,-2.0,-304.0,-9.0,0
2243,-19.0,-300.0,-6.0,0
2244,-30.0,-299.0,-4.0,0
2245,-44.0,-294.0,0.0,0
2246,-53.0,-289.0,0.0,0
2247,-69.0,-282.0,4.0,0
2248,-66.0,-277.0,6.0,0
2249,-72.0,-270.0,5.0,0
2250,-67.0,-264.0,10.0,0
2251,-65.0,-258.0,3.0,0
2252,-60.0,-256.0,2.0,0
2253,-49.0,-251.0,-1.0,0
2254,-41.0,-248.0,0.0,0
2255,-31.0,-244.0,-8.0,0
2256,-25.0,-243.0,-4.0,0
2257,-16.0,-238.0,-8.0,0
2258,-10.0,-240.0,1.0,0
2259,-7.0,-235.0,0.0,0
2260,1.0,-234.0,3.0,0
2261,2.0,-231.0,5.0,0
2262,3.0,-227.0,7.0,0
2263,4.0,-222.0,12.0,0
2264,5.0,-222.0,10.0,0
2265,7.0,-217.0,9.0,0
2266,13.0,-217.0,14.0,0
2267,14.0,-214.0,15.0,0
2268,20.0,-216.0,16.0,0
2269,19.0,-216.0,21.0,0
2270,25.0,-215.0,25.0,0
2271,30.0,-219.0,23.0,0
2272,35.0,-225.0,29.0,0
2273,35.0,-233.0,24.0,0
2274,26.0,-235.0,25.0,0
2275,18.0,-247.0,28.0,0
2276,19.0,-255.0,33.0,0
2277,20.0,-256.0,33.0,0
2278,22.0,-256.0,36.0,0
2279,21.0,-257.0,31.0,0
2280,21.0,-252.0,33.0,0
2281,28.0,-247.0,31.0,0
2282,28.0,-238.0,34.0,0
2283,27.0,-228.0,36.0,0
2284,30.0,-217.0,41.0,0
2285,29.0,-211.0,41.0,0
2286,33.0,-202.0,44.0,0
2287,33.0,-197.0,51.0,0
2288,33.0,-196.0,51.0,0
2289,31.0,-189.0,57.0,0
2290,35.0,-202.0,61.0,0
2291,35.0,-200.0,63.0,0
2292,31.0,-205.0,64.0,0
2293,24.0,-211.0,72.0,0
2294,24.0,-218.0,74.0,0
2295,15.0,-224.0,79.0,0
2296,12.0,-234.0,84.0,0
2297,5.0,-234.0,90.0,0
2298,1.0,-244.0,95.0,0
2299,0.0,-250.0,98.0,0
2300,-5.0,-256.0,102.0,0
2301,-10.0,-256.0,97.0,0
2302,-8.0,-260.0,88.0,0
2303,-9.0,-262.0,79.0,0
2304,-6.0,-267.0,67.0,0
2305,-10.0,-272.0,60.0,0
2306,-14.0,-277.0,53.0,0
2307,-19.0,-277.0,44.0,0
2308,-20.0,-281.0,46.0,0
2309,-22.0,-273.0,40.0,0
2310,-16.0,-266.0,39.0,0
2311,-4.0,-263.0,41.0,0
2312,17.0,-253.0,31.0,0
2313,48.0,-267.0,25.0,0
2314,75.0,-252.0,22.0,0
2315,110.0,-256.0,13.0,0
2316,150.0,-278.0,12.0,0
2317,173.0,-297.0,17.0,0
2318,176.0,-314.0,39.0,0
2319,170.0,-320.0,70.0,0
2320,151.0,-320.0,90.0,0
2321,134.0,-319.0,103.0,0
2322,115.0,-315.0,109.0,0
2323,95.0,-311.0,100.0,0
2324,80.0,-313.0,92.0,0
2325,67.0,-321.0,82.0,0
2326,57.0,-322.0,70.0,0
2327,47.0,-333.0,60.0,0
2328,37.0,-348.0,52.0,0
2329,26.0,-360.0,49.0,0
2330,21.0,-368.0,49.0,0
2331,21.0,-373.0,46.0,0
2332,24.0,-376.0,44.0,0
2333,38.0,-375.0,42.0,0
2334,51.0,-384.0,45.0,0
2335,67.0,-384.0,47.0,0
2336,82.0,-385.0,36.0,0
2337,104.0,-388.0,25.0,0
2338,83.0,-365.0,14.0,0
2339,73.0,-343.0,1.0,0
2340,89.0,-338.0,-10.0,0
2341,92.0,-322.0,-21.0,0
2342,91.0,-309.0,-31.0,0
2343,93.0,-296.0,-35.0,0
2344,87.0,-280.0,-42.0,0
2345,69.0,-264.0,-45.0,0
2346,56.0,-245.0,-39.0,0
2347,31.0,-222.0,-34.0,0
2348,8.0,-203.0,-24.0,0
2349,-15.0,-188.0,-16.0,0
2350,-39.0,-185.0,-21.0,0
2351,-50.0,-177.0,-27.0,0
2352,-62.0,-172.0,-35.0,0
2353,-77.0,-169.0,-30.0,0
2354,-97.0,-169.0,-31.0,0
2355,-114.0,-176.0,-25.0,0
2356,-123.0,-180.0,-17.0,0
2357,-118.0,-198.0,-15.0,0
2358,-110.0,-223.0,-11.0,0
2359,-96.0,-249.0,-8.0,0
2360,-81.0,-276.0,-8.0,0
2361,-69.0,-298.0,-2.0,0
2362,-58.0,-327.0,6.0,0
2363,-48.0,-334.0,14.0,0
2364,-34.0,-348.0,12.0,0
2365,-22.0,-348.0,21.0,0
2366,-4.0,-348.0,15.0,0
2367,12.0,-335.0,11.0,0
2368,31.0,-322.0,4.0,0
2369,43.0,-309.0,1.0,0
2370,58.0,-297.0,-1.0,0
2371,63.0,-281.0,0.0,0
2372,68.0,-271.0,2.0,0
2373,71.0,-259.0,5.0,0
2374,67.0,-252.0,6.0,0
2375,61.0,-244.0,17.0,0
2376,56.0,-238.0,28.0,0
2377,49.0,-234.0,19.0,0
2378,34.0,-228.0,20.0,0
2379,25.0,-227.0,18.0,0
2380,17.0,-230.0,19.0,0
2381,12.0,-229.0,17.0,0
2382,5.0,-226.0,21.0,0
2383,2.0,-223.0,16.0,0
2384,2.0,-220.0,18.0,0
2385,-2.0,-218.0,23.0,0
2386,-8.0,-212.0,28.0,0
2387,-11.0,-209.0,32.0,0
2388,-9.0,-207.0,35.0,0
2389,-11.0,-205.0,35.0,0
2390,-7.0,-207.0,32.0,0
2391,-6.0,-203.0,29.0,0
2392,-7.0,-202.0,30.0,0
2393,-8.0,-198.0,29.0,0
2394,-10.0,-199.0,33.0,0
2395,-15.0,-205.0,31.0,0
2396,-15.0,-210.0,27.0,0
2397,-14.0,-217.0,32.0,0
2398,-19.0,-222.0,33.0,0
2399,-12.0,-231.0,36.0,0
2400,-9.0,-236.0,37.0,0
2401,-11.0,-242.0,37.0,0
2402,-5.0,-244.0,36.0,0
2403,0.0,-250.0,36.0,0
2404,0.0,-253.0,40.0,0
2405,2.0,-249.0,39.0,0
2406,0.0,-247.0,41.0,0
2407,1.0,-230.0,48.0,0
2408,11.0,-241.0,39.0,0
2409,4.0,-229.0,41.0,0
2410,3.0,-229.0,50.0,0
2411,-2.0,-226.0,55.0,0
2412,-7.0,-229.0,63.0,0
2413,-18.0,-228.0,69.0,0
2414,-22.0,-232.0,70.0,0
2415,-25.0,-242.0,79.0,0
2416,-29.0,-241.0,83.0,0
2417,-30.0,-248.0,84.0,0
2418,-33.0,-251.0,86.0,0
2419,-32.0,-255.0,87.0,0
2420,-32.0,-256.0,83.0,0
2421,-26.0,-258.0,85.0,0
2422,-19.0,-259.0,85.0,0
2423,-18.0,-261.0,84.0,0
2424,-17.0,-264.0,82.0,0
2425,-11.0,-262.0,81.0,0
2426,0.0,-264.0,79.0,0
2427,3.0,-259.0,73.0,0
2428,5.0,-258.0,63.0,0
2429,10.0,-257.0,53.0,0
2430,12.0,-256.0,47.0,0
2431,6.0,-259.0,40.0,0
2432,1.0,-260.0,29.0,0
2433,-5.0,-260.0,14.0,0
2434,-17.0,-261.0,5.0,0
2435,-29.0,-263.0,0.0,0
2436,-44.0,-267.0,-6.0,0
2437,-41.0,-256.0,4.0,0
2438,-63.0,-291.0,7.0,0
2439,-81.0,-300.0,47.0,0
2440,-90.0,-302.0,68.0,0
2441,-98.0,-307.0,93.0,0
2442,-101.0,-301.0,100.0,0
2443,-101.0,-294.0,94.0,0
2444,-90.0,-296.0,87.0,0
2445,-89.0,-286.0,85.0,0
2446,-83.0,-288.0,67.0,0
2447,-66.0,-296.0,61.0,0
2448,-57.0,-308.0,52.0,0
2449,-46.0,-319.0,49.0,0
2450,-33.0,-336.0,47.0,0
2451,-14.0,-350.0,43.0,0
2452,-1.0,-366.0,36.0,0
2453,0.0,-376.0,31.0,0
2454,6.0,-379.0,22.0,0
2455,3.0,-380.0,20.0,0
2456,1.0,-376.0,6.0,0
2457,-2.0,-375.0,1.0,0
2458,-9.0,-368.0,1.0,0
2459,-15.0,-359.0,-3.0,0
2460,-25.0,-356.0,-16.0,0
2461,-30.0,-348.0,-27.0,0
2462,-34.0,-342.0,-38.0,0
2463,-32.0,-328.0,-40.0,0
2464,-33.0,-314.0,-57.0,0
2465,-31.0,-296.0,-60.0,0
2466,-27.0,-279.0,-62.0,0
2467,-23.0,-260.0,-59.0,0
2468,-19.0,-242.0,-62.0,0
2469,-18.0,-228.0,-65.0,0
2470,-8.0,-212.0,-64.0,0
2471,-2.0,-199.0,-62.0,0
2472,-1.0,-194.0,-51.0,0
2473,3.0,-196.0,-47.0,0
2474,10.0,-200.0,-36.0,0
2475,13.0,-210.0,-28.0,0
2476,17.0,-221.0,-20.0,0
2477,18.0,-229.0,-13.0,0
2478,13.0,-245.0,-1.0,0
2479,13.0,-261.0,7.0,0
2480,7.0,-274.0,16.0,0
2481,6.0,-289.0,12.0,0
2482,4.0,-303.0,8.0,0
2483,0.0,-309.0,2.0,0
2484,-1.0,-316.0,5.0,0
2485,-12.0,-315.0,0.0,0
2486,-23.0,-310.0,-2.0,0
2487,-28.0,-307.0,-10.0,0
2488,-41.0,-309.0,-10.0,0
2489,-47.0,-303.0,-11.0,0
2490,-51.0,-297.0,-11.0,0
2491,-59.0,-289.0,-9.0,0
2492,-64.0,-284.0,-10.0,0
2493,-64.0,-278.0,-4.0,0
2494,-62.0,-267.0,-7.0,0
2495,-59.0,-265.0,-11.0,0
2496,-53.0,-259.0,-11.0,0
2497,-42.0,-253.0,-9.0,0
2498,-34.0,-250.0,-10.0,0
2499,-20.0,-249.0,-8.0,0
2500,-15.0,-243.0,-9.0,0
2501,0.0,-245.0,-10.0,0
2502,5.0,-237.0,-7.0,0
2503,10.0,-236.0,-6.0,0
2504,15.0,-231.0,-7.0,0
2505,21.0,-232.0,1.0,0
2506,21.0,-229.0,-1.0,0
2507,20.0,-233.0,4.0,0
2508,19.0,-235.0,6.0,0
2509,18.0,-235.0,6.0,0
2510,16.0,-236.0,9.0,0
2511,15.0,-237.0,6.0,0
2512,17.0,-236.0,15.0,0
2513,18.0,-237.0,17.0,0
2514,20.0,-231.0,20.0,0
2515,34.0,-231.0,27.0,0
2516,36.0,-230.0,25.0,0
2517,34.0,-232.0,22.0,0
2518,27.0,-233.0,25.0,0
2519,18.0,-233.0,29.0,0
2520,12.0,-238.0,34.0,0
2521,9.0,-237.0,33.0,0
2522,12.0,-241.0,38.0,0
2523,15.0,-239.0,37.0,0
2524,19.0,-234.0,37.0,0
2525,19.0,-232.0,30.0,0
2526,23.0,-229.0,31.0,0
2527,27.0,-219.0,41.0,0
2528,28.0,-216.0,43.0,0
2529,31.0,-216.0,49.0,0
2530,29.0,-210.0,55.0,0
2531,30.0,-206.0,55.0,0
2532,29.0,-204.0,63.0,0
2533,33.0,-206.0,66.0,0
2534,32.0,-207.0,67.0,0
2535,30.0,-208.0,70.0,0
2536,28.0,-218.0,72.0,0
2537,23.0,-219.0,78.0,0
2538,24.0,-228.0,80.0,0
2539,12.0,-230.0,83.0,0
2540,10.0,-238.0,91.0,0
2541,12.0,-243.0,89.0,0
2542,6.0,-245.0,89.0,0
2543,9.0,-250.0,90.0,0
2544,13.0,-253.0,82.0,0
2545,19.0,-253.0,68.0,0
2546,29.0,-256.0,67.0,0
2547,30.0,-254.0,65.0,0
2548,26.0,-249.0,51.0,0
2549,26.0,-255.0,52.0,0
2550,20.0,-254.0,55.0,0
2551,18.0,-255.0,53.0,0
2552,18.0,-253.0,52.0,0
2553,22.0,-261.0,39.0,0
2554,36.0,-243.0,34.0,0
2555,50.0,-242.0,22.0,0
2556,79.0,-246.0,6.0,0
2557,111.0,-261.0,-1.0,0
2558,134.0,-275.0,1.0,0
2559,151.0,-304.0,9.0,0
2560,159.0,-328.0,34.0,0
2561,152.0,-344.0,59.0,0
2562,124.0,-338.0,90.0,0
2563,92.0,-326.0,100.0,0
2564,62.0,-302.0,101.0,0
2565,38.0,-285.0,89.0,0
2566,23.0,-267.0,72.0,0
2567,7.0,-261.0,52.0,0
2568,-3.0,-258.0,49.0,0
2569,-19.0,-263.0,50.0,0
2570,-33.0,-274.0,60.0,0
2571,-40.0,-284.0,68.0,0
2572,-47.0,-294.0,77.0,0
2573,-47.0,-302.0,82.0,0
2574,-43.0,-316.0,78.0,0
2575,-35.0,-328.0,75.0,0
2576,-30.0,-338.0,67.0,0
2577,-25.0,-349.0,59.0,0
2578,-13.0,-360.0,56.0,0
2579,-6.0,-365.0,52.0,0
2580,5.0,-367.0,51.0,0
2581,20.0,-364.0,49.0,0
2582,34.0,-361.0,44.0,0
2583,48.0,-358.0,40.0,0
2584,64.0,-353.0,32.0,0
2585,79.0,-350.0,20.0,0
2586,94.0,-345.0,6.0,0
2587,102.0,-339.0,-9.0,0
2588,113.0,-339.0,-22.0,0
2589,121.0,-334.0,-31.0,0
2590,107.0,-319.0,-35.0,0
2591,94.0,-305.0,-37.0,0
2592,70.0,-282.0,-42.0,0
2593,52.0,-257.0,-43.0,0
2594,32.0,-238.0,-36.0,0
2595,12.0,-213.0,-36.0,0
2596,-8.0,-194.0,-41.0,0
2597,-25.0,-176.0,-43.0,0
2598,-42.0,-169.0,-51.0,0
2599,-56.0,-158.0,-52.0,0
2600,-63.0,-154.0,-60.0,0
2601,-72.0,-156.0,-58.0,0
2602,-79.0,-169.0,-53.0,0
2603,-87.0,-183.0,-50.0,0
2604,-86.0,-197.0,-36.0,0
2605,-83.0,-220.0,-23.0,0
2606,-70.0,-246.0,-19.0,0
2607,-63.0,-269.0,-9.0,0
2608,-56.0,-289.0,-4.0,0
2609,-51.0,-314.0,-1.0,0
2610,-42.0,-330.0,2.0,0
2611,-31.0,-340.0,8.0,0
2612,-21.0,-347.0,15.0,0
2613,-8.0,-345.0,11.0,0
2614,7.0,-335.0,8.0,0
2615,22.0,-324.0,2.0,0
2616,38.0,-311.0,-7.0,0
2617,52.0,-306.0,-6.0,0
2618,65.0,-296.0,-10.0,0
2619,76.0,-290.0,-1.0,0
2620,83.0,-281.0,1.0,0
2621,78.0,-275.0,14.0,0
2622,72.0,-269.0,22.0,0
2623,63.0,-261.0,26.0,0
2624,52.0,-256.0,25.0,0
2625,44.0,-252.0,26.0,0
2626,33.0,-243.0,23.0,0
2627,25.0,-238.0,26.0,0
2628,16.0,-233.0,25.0,0
2629,10.0,-228.0,28.0,0
2630,6.0,-225.0,32.0,0
2631,1.0,-220.0,33.0,0
2632,0.0,-214.0,31.0,0
2633,-5.0,-216.0,33.0,0
2634,-8.0,-216.0,30.0,0
2635,-17.0,-214.0,37.0,0
2636,-19.0,-215.0,40.0,0
2637,-24.0,-218.0,39.0,0
2638,-28.0,-222.0,38.0,0
2639,-27.0,-227.0,40.0,0
2640,-28.0,-231.0,40.0,0
2641,-29.0,-233.0,42.0,0
2642,-27.0,-235.0,39.0,0
2643,-24.0,-235.0,40.0,0
2644,-23.0,-237.0,42.0,0
2645,-23.0,-234.0,41.0,0
2646,-18.0,-237.0,41.0,0
2647,-17.0,-237.0,38.0,0
2648,-12.0,-237.0,35.0,0
2649,-9.0,-239.0,29.0,0
2650,-4.0,-237.0,36.0,0
2651,2.0,-238.0,36.0,0
2652,2.0,-236.0,33.0,0
2653,8.0,-231.0,41.0,0
2654,21.0,-230.0,38.0,0
2655,19.0,-220.0,35.0,0
2656,29.0,-212.0,35.0,0
2657,25.0,-219.0,43.0,0
2658,23.0,-220.0,40.0,0
2659,20.0,-223.0,49.0,0
2660,16.0,-226.0,57.0,0
2661,9.0,-225.0,54.0,0
2662,8.0,-226.0,54.0,0
2663,2.0,-224.0,60.0,0
2664,0.0,-221.0,61.0,0
2665,-4.0,-219.0,59.0,0
2666,-7.0,-218.0,65.0,0
2667,-6.0,-203.0,68.0,0
2668,-12.0,-220.0,69.0,0
2669,-14.0,-228.0,74.0,0
2670,-12.0,-237.0,87.0,0
2671,-14.0,-248.0,90.0,0
2672,-7.0,-257.0,92.0,0
2673,-1.0,-268.0,93.0,0
2674,-1.0,-271.0,91.0,0
2675,6.0,-272.0,84.0,0
2676,7.0,-270.0,70.0,0
2677,14.0,-267.0,50.0,0
2678,7.0,-269.0,34.0,0
2679,19.0,-261.0,23.0,0
2680,16.0,-263.0,19.0,0
2681,10.0,-263.0,18.0,0
2682,-5.0,-265.0,10.0,0
2683,-24.0,-268.0,14.0,0
2684,-40.0,-267.0,15.0,0
2685,-63.0,-269.0,17.0,0
2686,-69.0,-292.0,19.0,0
2687,-85.0,-303.0,39.0,0
2688,-99.0,-313.0,57.0,0
2689,-105.0,-321.0,71.0,0
2690,-108.0,-327.0,91.0,0
2691,-109.0,-323.0,98.0,0
2692,-108.0,-318.0,101.0,0
2693,-103.0,-310.0,93.0,0
2694,-95.0,-300.0,89.0,0
2695,-85.0,-293.0,83.0,0
2696,-75.0,-293.0,75.0,0
2697,-64.0,-295.0,66.0,0
2698,-51.0,-291.0,59.0,0
2699,-37.0,-312.0,48.0,0
2700,-26.0,-322.0,58.0,0
2701,-20.0,-335.0,54.0,0
2702,-7.0,-347.0,54.0,0
2703,-7.0,-357.0,54.0,0
2704,0.0,-361.0,52.0,0
2705,-8.0,-361.0,50.0,0
2706,-17.0,-358.0,43.0,0
2707,-30.0,-346.0,41.0,0
2708,-38.0,-343.0,33.0,0
2709,-40.0,-337.0,23.0,0
2710,-43.0,-331.0,7.0,0
2711,-51.0,-324.0,-4.0,0
2712,-57.0,-320.0,-19.0,0
2713,-61.0,-315.0,-34.0,0
2714,-63.0,-298.0,-48.0,0
2715,-63.0,-290.0,-54.0,0
2716,-53.0,-276.0,-60.0,0
2717,-50.0,-264.0,-64.0,0
2718,-44.0,-249.0,-67.0,0
2719,-41.0,-230.0,-72.0,0
2720,-28.0,-218.0,-72.0,0
2721,-23.0,-201.0,-57.0,0
2722,-10.0,-199.0,-60.0,0
2723,4.0,-202.0,-54.0,0
2724,17.0,-206.0,-46.0,0
2725,24.0,-217.0,-39.0,0
2726,33.0,-233.0,-29.0,0
2727,34.0,-246.0,-20.0,0
2728,34.0,-261.0,-11.0,0
2729,31.0,-280.0,-3.0,0
2730,32.0,-295.0,-3.0,0
2731,26.0,-300.0,4.0,0
2732,22.0,-320.0,1.0,0
2733,18.0,-321.0,-3.0,0
2734,9.0,-321.0,-4.0,0
2735,1.0,-321.0,-7.0,0
2736,-10.0,-319.0,-10.0,0
2737,-16.0,-314.0,-4.0,0
2738,-26.0,-309.0,-1.0,0
2739,-42.0,-299.0,-1.0,0
2740,-45.0,-288.0,2.0,0
2741,-54.0,-281.0,8.0,0
2742,-55.0,-271.0,12.0,0
2743,-52.0,-263.0,7.0,0
2744,-49.0,-256.0,-4.0,0
2745,-45.0,-250.0,0.0,0
2746,-39.0,-251.0,-5.0,0
2747,-33.0,-244.0,-9.0,0
2748,-31.0,-244.0,-8.0,0
2749,-21.0,-245.0,-13.0,0
2750,-17.0,-240.0,-6.0,0
2751,-16.0,-242.0,-2.0,0
2752,-10.0,-238.0,4.0,0
2753,-13.0,-240.0,5.0,0
2754,-7.0,-239.0,10.0,0
2755,-4.0,-233.0,7.0,0
2756,0.0,-234.0,3.0,0
2757,-3.0,-228.0,8.0,0
2758,0.0,-230.0,6.0,0
2759,0.0,-228.0,8.0,0
2760,-1.0,-224.0,13.0,0
2761,0.0,-226.0,14.0,0
2762,1.0,-221.0,17.0,0
2763,0.0,-221.0,19.0,0
2764,1.0,-218.0,21.0,0
2765,3.0,-220.0,19.0,0
2766,7.0,-221.0,25.0,0
2767,12.0,-222.0,28.0,0
2768,15.0,-227.0,26.0,0
2769,21.0,-227.0,27.0,0
2770,23.0,-233.0,31.0,0
2771,27.0,-233.0,29.0,0
2772,29.0,-232.0,31.0,0
2773,34.0,-230.0,34.0,0
2774,34.0,-228.0,33.0,0
2775,32.0,-227.0,32.0,0
2776,28.0,-228.0,36.0,0
2777,14.0,-228.0,40.0,0
2778,13.0,-226.0,45.0,0
2779,10.0,-224.0,49.0,0
2780,13.0,-222.0,51.0,0
2781,15.0,-214.0,53.0,0
2782,17.0,-214.0,55.0,0
2783,20.0,-212.0,59.0,0
2784,25.0,-208.0,61.0,0
2785,28.0,-206.0,67.0,0
2786,31.0,-207.0,69.0,0
2787,28.0,-210.0,71.0,0
2788,28.0,-210.0,74.0,0
2789,25.0,-216.0,81.0,0
2790,23.0,-219.0,93.0,0
2791,20.0,-227.0,99.0,0
2792,17.0,-232.0,101.0,0
2793,9.0,-238.0,103.0,0
2794,6.0,-245.0,99.0,0
2795,10.0,-253.0,94.0,0
2796,11.0,-259.0,88.0,0
2797,8.0,-265.0,71.0,0
2798,9.0,-270.0,65.0,0
2799,3.0,-272.0,55.0,0
2800,0.0,-279.0,47.0,0
2801,-4.0,-278.0,47.0,0
2802,-6.0,-275.0,40.0,0
2803,-1.0,-271.0,45.0,0
2804,1.0,-266.0,36.0,0
2805,23.0,-268.0,39.0,0
2806,44.0,-254.0,27.0,0
2807,72.0,-253.0,17.0,0
2808,111.0,-265.0,4.0,0
2809,142.0,-286.0,2.0,0
2810,162.0,-309.0,11.0,0
2811,163.0,-325.0,37.0,0
2812,156.0,-340.0,62.0,0
2813,134.0,-335.0,78.0,0
2814,113.0,-325.0,93.0,0
2815,95.0,-316.0,95.0,0
2816,75.0,-305.0,86.0,0
2817,63.0,-305.0,75.0,0
2818,57.0,-301.0,62.0,0
2819,49.0,-307.0,54.0,0
2820,40.0,-314.0,47.0,0
2821,28.0,-322.0,45.0,0
2822,18.0,-338.0,50.0,0
2823,7.0,-350.0,55.0,0
2824,9.0,-366.0,56.0,0
2825,13.0,-374.0,48.0,0
2826,33.0,-383.0,43.0,0
2827,52.0,-386.0,30.0,0
2828,84.0,-405.0,8.0,0
2829,106.0,-395.0,13.0,0
2830,102.0,-384.0,-4.0,0
2831,92.0,-383.0,-17.0,0
2832,90.0,-377.0,-14.0,0
2833,83.0,-359.0,-5.0,0
2834,81.0,-351.0,-1.0,0
2835,83.0,-333.0,-5.0,0
2836,84.0,-317.0,-16.0,0
2837,78.0,-295.0,-23.0,0
2838,69.0,-277.0,-29.0,0
2839,62.0,-256.0,-35.0,0
2840,44.0,-239.0,-37.0,0
2841,21.0,-221.0,-37.0,0
2842,-2.0,-205.0,-39.0,0
2843,-25.0,-194.0,-36.0,0
2844,-41.0,-187.0,-40.0,0
2845,-54.0,-179.0,-38.0,0
2846,-64.0,-173.0,-46.0,0
2847,-78.0,-168.0,-46.0,0
2848,-91.0,-170.0,-39.0,0
2849,-103.0,-172.0,-37.0,0
2850,-109.0,-176.0,-27.0,0
2851,-107.0,-200.0,-26.0,0
2852,-98.0,-219.0,-18.0,0
2853,-90.0,-241.0,-18.0,0
2854,-71.0,-263.0,-12.0,0
2855,-60.0,-283.0,-5.0,0
2856,-43.0,-299.0,-2.0,0
2857,-30.0,-314.0,1.0,0
2858,-12.0,-319.0,7.0,0
2859,1.0,-318.0,1.0,0
2860,19.0,-316.0,2.0,0
2861,33.0,-310.0,-6.0,0
2862,42.0,-293.0,-6.0,0
2863,53.0,-283.0,-11.0,0
2864,57.0,-271.0,-8.0,0
2865,55.0,-260.0,-3.0,0
2866,58.0,-254.0,0.0,0
2867,57.0,-251.0,4.0,0
2868,49.0,-245.0,10.0,0
2869,43.0,-245.0,17.0,0
2870,31.0,-243.0,23.0,0
2871,12.0,-240.0,25.0,0
2872,5.0,-242.0,26.0,0
2873,-2.0,-235.0,28.0,0
2874,-10.0,-234.0,28.0,0
2875,-21.0,-229.0,33.0,0
2876,-24.0,-229.0,30.0,0
2877,-29.0,-226.0,34.0,0
2878,-38.0,-225.0,33.0,0
2879,-40.0,-222.0,34.0,0
2880,-46.0,-219.0,36.0,0
2881,-52.0,-220.0,39.0,0
2882,-50.0,-222.0,44.0,0
2883,-53.0,-224.0,45.0,0
2884,-46.0,-225.0,45.0,0
2885,-44.0,-231.0,46.0,0
2886,-43.0,-227.0,47.0,0
2887,-38.0,-234.0,45.0,0
2888,-32.0,-236.0,45.0,0
2889,-25.0,-239.0,44.0,0
2890,-28.0,-237.0,43.0,0
2891,-22.0,-242.0,42.0,0
2892,-15.0,-242.0,39.0,0
2893,-13.0,-236.0,37.0,0
2894,-4.0,-234.0,30.0,0
2895,0.0,-228.0,28.0,0
2896,5.0,-225.0,28.0,0
2897,7.0,-217.0,26.0,0
2898,20.0,-206.0,30.0,0
2899,25.0,-200.0,20.0,0
2900,29.0,-194.0,26.0,0
2901,36.0,-192.0,29.0,0
2902,38.0,-191.0,32.0,0
2903,39.0,-194.0,35.0,0
2904,33.0,-200.0,39.0,0
2905,29.0,-206.0,45.0,0
2906,21.0,-218.0,55.0,0
2907,23.0,-227.0,65.0,0
2908,17.0,-235.0,71.0,0
2909,13.0,-245.0,73.0,0
2910,5.0,-251.0,87.0,0
2911,1.0,-256.0,91.0,0
2912,2.0,-270.0,96.0,0
2913,5.0,-279.0,96.0,0
2914,4.0,-290.0,100.0,0
2915,8.0,-295.0,95.0,0
2916,9.0,-303.0,85.0,0
2917,7.0,-304.0,78.0,0
2918,2.0,-295.0,67.0,0
2919,-2.0,-291.0,61.0,0
2920,-4.0,-277.0,47.0,0
2921,-10.0,-269.0,35.0,0
2922,-19.0,-261.0,34.0,0
2923,-22.0,-258.0,27.0,0
2924,-34.0,-250.0,32.0,0
2925,-56.0,-251.0,35.0,0
2926,-77.0,-252.0,34.0,0
2927,-108.0,-252.0,38.0,0
2928,-121.0,-269.0,38.0,0
2929,-139.0,-284.0,41.0,0
2930,-147.0,-301.0,45.0,0
2931,-146.0,-316.0,56.0,0
2932,-142.0,-327.0,64.0,0
2933,-135.0,-321.0,76.0,0
2934,-124.0,-315.0,78.0,0
2935,-111.0,-314.0,77.0,0
2936,-89.0,-303.0,70.0,0
2937,-81.0,-306.0,57.0,0
2938,-65.0,-310.0,47.0,0
2939,-52.0,-313.0,38.0,0
2940,-14.0,-342.0,37.0,0
2941,0.0,-362.0,38.0,0
2942,9.0,-372.0,37.0,0
2943,14.0,-384.0,33.0,0
2944,17.0,-389.0,19.0,0
2945,6.0,-381.0,7.0,0
2946,7.0,-401.0,0.0,0
2947,-10.0,-409.0,-9.0,0
2948,-40.0,-406.0,-16.0,0
2949,-52.0,-405.0,-18.0,0
2950,-54.0,-403.0,-24.0,0
2951,-48.0,-389.0,-32.0,0
2952,-49.0,-370.0,-47.0,0
2953,-47.0,-342.0,-55.0,0
2954,-50.0,-317.0,-58.0,0
2955,-46.0,-290.0,-56.0,0
2956,-39.0,-260.0,-51.0,0
2957,-34.0,-236.0,-52.0,0
2958,-28.0,-202.0,-65.0,0
2959,-14.0,-194.0,-67.0,0
2960,-2.0,-180.0,-65.0,0
2961,17.0,-172.0,-63.0,0
2962,28.0,-171.0,-57.0,0
2963,48.0,-172.0,-48.0,0
2964,62.0,-176.0,-37.0,0
2965,66.0,-190.0,-27.0,0
2966,76.0,-200.0,-14.0,0
2967,81.0,-217.0,-2.0,0
2968,83.0,-235.0,3.0,0
2969,80.0,-254.0,7.0,0
2970,76.0,-264.0,12.0,0
2971,71.0,-276.0,16.0,0
2972,65.0,-285.0,19.0,0
2973,55.0,-288.0,15.0,0
2974,41.0,-290.0,11.0,0
2975,29.0,-293.0,11.0,0
2976,11.0,-287.0,8.0,0
2977,-1.0,-287.0,5.0,0
2978,-14.0,-288.0,6.0,0
2979,-27.0,-283.0,10.0,0
2980,-43.0,-284.0,8.0,0
2981,-50.0,-283.0,8.0,0
2982,-59.0,-282.0,9.0,0
2983,-57.0,-280.0,12.0,0
2984,-53.0,-278.0,14.0,0
2985,-49.0,-275.0,10.0,0
2986,-41.0,-272.0,14.0,0
2987,-35.0,-262.0,12.0,0
2988,-27.0,-254.0,4.0,0
2989,-17.0,-243.0,2.0,0
2990,-11.0,-230.0,1.0,0
2991,-2.0,-227.0,3.0,0
2992,0.0,-217.0,5.0,0
2993,2.0,-213.0,7.0,0
2994,11.0,-213.0,9.0,0
2995,14.0,-210.0,16.0,0
2996,15.0,-208.0,22.0,0
2997,17.0,-210.0,20.0,0
2998,16.0,-208.0,18.0,0
2999,15.0,-208.0,23.0,0
3000,15.0,-205.0,23.0,0
3001,11.0,-204.0,9.0,0
3002,13.0,-199.0,18.0,0
3003,10.0,-198.0,21.0,0
3004,13.0,-201.0,18.0,0
3005,9.0,-203.0,17.0,0
3006,7.0,-209.0,17.0,0
3007,5.0,-216.0,22.0,0
3008,4.0,-226.0,26.0,0
3009,4.0,-234.0,26.0,0
3010,-1.0,-240.0,28.0,0
3011,1.0,-253.0,31.0,0
3012,-1.0,-257.0,27.0,0
3013,-7.0,-260.0,29.0,0
3014,-2.0,-263.0,27.0,0
3015,-1.0,-267.0,31.0,0
3016,0.0,-266.0,33.0,0
3017,1.0,-262.0,28.0,0
3018,2.0,-256.0,37.0,0
3019,4.0,-250.0,43.0,0
3020,10.0,-239.0,51.0,0
3021,14.0,-235.0,59.0,0
3022,20.0,-229.0,63.0,0
3023,22.0,-231.0,74.0,0
3024,29.0,-224.0,75.0,0
3025,32.0,-224.0,78.0,0
3026,34.0,-227.0,80.0,0
3027,34.0,-226.0,82.0,0
3028,30.0,-234.0,86.0,0
3029,25.0,-243.0,93.0,0
3030,19.0,-250.0,99.0,0
3031,11.0,-257.0,103.0,0
3032,4.0,-263.0,106.0,0
3033,-1.0,-268.0,98.0,0
3034,-5.0,-271.0,86.0,0
3035,-9.0,-273.0,77.0,0
3036,-9.0,-274.0,64.0,0
3037,-7.0,-269.0,57.0,0
3038,0.0,-262.0,45.0,0
3039,1.0,-256.0,40.0,0
3040,8.0,-249.0,39.0,0
3041,13.0,-239.0,37.0,0
3042,24.0,-231.0,39.0,0
3043,30.0,-223.0,38.0,0
3044,48.0,-225.0,39.0,0
3045,61.0,-223.0,17.0,0
3046,83.0,-232.0,8.0,0
3047,108.0,-252.0,0.0,0
3048,130.0,-278.0,0.0,0
3049,150.0,-311.0,13.0,0
3050,162.0,-330.0,40.0,0
3051,157.0,-354.0,66.0,0
3052,142.0,-347.0,99.0,0
3053,107.0,-332.0,118.0,0
3054,92.0,-334.0,112.0,0
3055,76.0,-344.0,94.0,0
3056,63.0,-347.0,69.0,0
3057,53.0,-355.0,44.0,0
3058,37.0,-368.0,27.0,0
3059,22.0,-371.0,13.0,0
3060,8.0,-376.0,13.0,0
3061,-2.0,-373.0,24.0,0
3062,-5.0,-370.0,37.0,0
3063,2.0,-368.0,41.0,0
3064,17.0,-368.0,40.0,0
3065,52.0,-371.0,33.0,0
3066,92.0,-391.0,6.0,0
3067,101.0,-381.0,1.0,0
3068,107.0,-379.0,-24.0,0
3069,109.0,-382.0,-39.0,0
3070,110.0,-383.0,-45.0,0
3071,92.0,-374.0,-39.0,0
3072,75.0,-352.0,-40.0,0
3073,66.0,-328.0,-44.0,0
3074,64.0,-302.0,-49.0,0
3075,63.0,-276.0,-53.0,0
3076,56.0,-249.0,-57.0,0
3077,28.0,-209.0,-50.0,0
3078,5.0,-187.0,-50.0,0
3079,-13.0,-174.0,-50.0,0
3080,-29.0,-164.0,-49.0,0
3081,-40.0,-161.0,-54.0,0
3082,-50.0,-162.0,-53.0,0
3083,-58.0,-171.0,-54.0,0
3084,-67.0,-180.0,-52.0,0
3085,-73.0,-191.0,-40.0,0
3086,-74.0,-208.0,-37.0,0
3087,-75.0,-231.0,-29.0,0
3088,-60.0,-246.0,-25.0,0
3089,-51.0,-259.0,-21.0,0
3090,-37.0,-274.0,-24.0,0
3091,-32.0,-280.0,-24.0,0
3092,-20.0,-285.0,-19.0,0
3093,-12.0,-289.0,-14.0,0
3094,-2.0,-288.0,-11.0,0
3095,8.0,-285.0,-14.0,0
3096,22.0,-283.0,-13.0,0
3097,38.0,-280.0,-15.0,0
3098,50.0,-277.0,-13.0,0
3099,54.0,-272.0,-10.0,0
3100,59.0,-264.0,-10.0,0
3101,57.0,-260.0,-7.0,0
3102,57.0,-255.0,-4.0,0
3103,55.0,-254.0,-4.0,0
3104,48.0,-250.0,-3.0,0
3105,43.0,-244.0,-7.0,0
3106,37.0,-247.0,-1.0,0
3107,30.0,-238.0,-1.0,0
3108,24.0,-243.0,0.0,0
3109,18.0,-240.0,1.0,0
3110,14.0,-244.0,3.0,0
3111,4.0,-246.0,8.0,0
3112,4.0,-240.0,10.0,0
3113,0.0,-241.0,12.0,0
3114,-1.0,-240.0,14.0,0
3115,-4.0,-240.0,11.0,0
3116,-10.0,-236.0,8.0,0
3117,-11.0,-233.0,4.0,0
3118,-11.0,-234.0,4.0,0
3119,-10.0,-226.0,6.0,0
3120,-15.0,-220.0,1.0,0
3121,-8.0,-221.0,3.0,0
3122,-12.0,-219.0,8.0,0
3123,-12.0,-215.0,10.0,0
3124,-12.0,-215.0,12.0,0
3125,-13.0,-222.0,12.0,0
3126,-15.0,-230.0,16.0,0
3127,-15.0,-234.0,19.0,0
3128,-10.0,-239.0,25.0,0
3129,-7.0,-249.0,26.0,0
3130,-10.0,-252.0,28.0,0
3131,-8.0,-253.0,30.0,0
3132,-10.0,-251.0,28.0,0
3133,-6.0,-252.0,30.0,0
3134,-9.0,-247.0,28.0,0
3135,-5.0,-242.0,22.0,0
3136,-3.0,-233.0,26.0,0
3137,-9.0,-228.0,27.0,0
3138,-11.0,-218.0,28.0,0
3139,-21.0,-207.0,37.0,0
3140,-16.0,-204.0,37.0,0
3141,-18.0,-202.0,35.0,0
3142,-19.0,-201.0,43.0,0
3143,-22.0,-204.0,53.0,0
3144,-25.0,-208.0,63.0,0
3145,-29.0,-215.0,69.0,0
3146,-30.0,-218.0,72.0,0
3147,-29.0,-224.0,82.0,0
3148,-29.0,-234.0,82.0,0
3149,-27.0,-240.0,89.0,0
3150,-23.0,-244.0,94.0,0
3151,-17.0,-252.0,86.0,0
3152,-15.0,-256.0,84.0,0
3153,-11.0,-263.0,79.0,0
3154,-9.0,-267.0,74.0,0
3155,-4.0,-269.0,61.0,0
3156,2.0,-277.0,50.0,0
3157,10.0,-280.0,44.0,0
3158,12.0,-285.0,40.0,0
3159,4.0,-277.0,20.0,0
3160,-1.0,-275.0,8.0,0
3161,-12.0,-271.0,-2.0,0
3162,-17.0,-267.0,-11.0,0
3163,-20.0,-272.0,-16.0,0
3164,-28.0,-271.0,-13.0,0
3165,-33.0,-277.0,-3.0,0
3166,-50.0,-274.0,6.0,0
3167,-44.0,-295.0,34.0,0
3168,-60.0,-306.0,57.0,0
3169,-69.0,-313.0,76.0,0
3170,-66.0,-324.0,91.0,0
3171,-66.0,-318.0,102.0,0
3172,-63.0,-314.0,107.0,0
3173,-64.0,-299.0,116.0,0
3174,-59.0,-285.0,106.0,0
3175,-60.0,-275.0,98.0,0
3176,-51.0,-270.0,78.0,0
3177,-40.0,-277.0,70.0,0
3178,-43.0,-282.0,66.0,0
3179,-43.0,-288.0,68.0,0
3180,-36.0,-296.0,64.0,0
3181,-28.0,-314.0,62.0,0
3182,-26.0,-323.0,61.0,0
3183,-18.0,-333.0,64.0,0
3184,-10.0,-339.0,58.0,0
3185,1.0,-342.0,52.0,0
3186,5.0,-345.0,41.0,0
3187,10.0,-343.0,31.0,0
3188,10.0,-342.0,19.0,0
3189,7.0,-341.0,8.0,0
3190,2.0,-344.0,4.0,0
3191,-2.0,-354.0,-2.0,0
3192,-19.0,-364.0,-11.0,0
3193,-35.0,-371.0,-15.0,0
3194,-48.0,-369.0,-21.0,0
3195,-45.0,-364.0,-23.0,0
3196,-56.0,-348.0,-35.0,0
3197,-55.0,-336.0,-47.0,0
3198,-55.0,-314.0,-57.0,0
3199,-47.0,-291.0,-59.0,0
3200,-40.0,-267.0,-65.0,0
3201,-36.0,-241.0,-68.0,0
3202,-26.0,-217.0,-69.0,0
3203,-11.0,-201.0,-67.0,0
3204,1.0,-182.0,-74.0,0
3205,11.0,-170.0,-73.0,0
3206,22.0,-168.0,-69.0,0
3207,35.0,-176.0,-59.0,0
3208,43.0,-191.0,-51.0,0
3209,46.0,-206.0,-41.0,0
3210,46.0,-231.0,-23.0,0
3211,42.0,-253.0,-9.0,0
3212,40.0,-277.0,-2.0,0
3213,34.0,-295.0,2.0,0
3214,32.0,-311.0,9.0,0
3215,26.0,-320.0,5.0,0
3216,22.0,-321.0,5.0,0
3217,17.0,-321.0,1.0,0
3218,0.0,-321.0,-5.0,0
3219,-14.0,-311.0,-4.0,0
3220,-29.0,-306.0,-4.0,0
3221,-46.0,-294.0,-4.0,0
3222,-61.0,-285.0,-3.0,0
3223,-68.0,-280.0,1.0,0
3224,-74.0,-280.0,1.0,0
3225,-77.0,-272.0,-1.0,0
3226,-70.0,-270.0,1.0,0
3227,-63.0,-263.0,1.0,0
3228,-56.0,-259.0,0.0,0
3229,-47.0,-256.0,-3.0,0
3230,-35.0,-247.0,-5.0,0
3231,-29.0,-236.0,-4.0,0
3232,-16.0,-229.0,-2.0,0
3233,-8.0,-226.0,1.0,0
3234,0.0,-224.0,8.0,0
3235,5.0,-219.0,10.0,0
3236,15.0,-218.0,15.0,0
3237,15.0,-219.0,15.0,0
3238,21.0,-222.0,20.0,0
3239,23.0,-226.0,24.0,0
3240,25.0,-231.0,27.0,0
3241,23.0,-236.0,28.0,0
3242,24.0,-241.0,28.0,0
3243,16.0,-244.0,32.0,0
3244,16.0,-246.0,32.0,0
3245,15.0,-248.0,35.0,0
3246,14.0,-244.0,33.0,0
3247,11.0,-245.0,32.0,0
3248,11.0,-244.0,37.0,0
3249,11.0,-242.0,32.0,0
3250,11.0,-240.0,35.0,0
3251,14.0,-236.0,36.0,0
3252,12.0,-237.0,33.0,0
3253,13.0,-237.0,39.0,0
3254,13.0,-232.0,39.0,0
3255,15.0,-231.0,41.0,0
3256,13.0,-226.0,42.0,0
3257,14.0,-224.0,43.0,0
3258,15.0,-217.0,43.0,0
3259,18.0,-214.0,44.0,0
3260,14.0,-207.0,43.0,0
3261,16.0,-206.0,46.0,0
3262,19.0,-202.0,51.0,0
3263,18.0,-202.0,52.0,0
3264,19.0,-199.0,58.0,0
3265,24.0,-197.0,60.0,0
3266,23.0,-200.0,61.0,0
3267,23.0,-202.0,68.0,0
3268,22.0,-204.0,74.0,0
3269,19.0,-207.0,82.0,0
3270,18.0,-213.0,87.0,0
3271,13.0,-217.0,92.0,0
3272,10.0,-220.0,94.0,0
3273,3.0,-225.0,106.0,0
3274,-1.0,-233.0,112.0,0
3275,-4.0,-241.0,112.0,0
3276,-7.0,-241.0,108.0,0
3277,-5.0,-251.0,95.0,0
3278,1.0,-254.0,80.0,0
3279,4.0,-256.0,67.0,0
3280,4.0,-257.0,48.0,0
3281,2.0,-257.0,32.0,0
3282,12.0,-263.0,21.0,0
3283,2.0,-250.0,12.0,0
3284,11.0,-250.0,7.0,0
3285,29.0,-251.0,1.0,0
3286,43.0,-254.0,0.0,0
3287,53.0,-258.0,0.0,0
3288,67.0,-273.0,7.0,0
3289,88.0,-289.0,21.0,0
3290,109.0,-315.0,36.0,0
3291,123.0,-331.0,58.0,0
3292,133.0,-354.0,72.0,0
3293,137.0,-364.0,91.0,0
3294,131.0,-347.0,100.0,0
3295,118.0,-331.0,98.0,0
3296,100.0,-316.0,94.0,0
3297,87.0,-310.0,85.0,0
3298,66.0,-297.0,83.0,0
3299,58.0,-304.0,72.0,0
3300,41.0,-304.0,68.0,0
3301,30.0,-315.0,67.0,0
3302,17.0,-323.0,66.0,0
3303,8.0,-338.0,58.0,0
3304,0.0,-344.0,55.0,0
3305,-1.0,-356.0,53.0,0
3306,3.0,-359.0,54.0,0
3307,15.0,-366.0,49.0,0
3308,35.0,-374.0,45.0,0
3309,57.0,-377.0,45.0,0
3310,64.0,-398.0,41.0,0
3311,80.0,-377.0,39.0,0
3312,79.0,-360.0,37.0,0
3313,82.0,-348.0,34.0,0
3314,104.0,-343.0,19.0,0
3315,110.0,-326.0,3.0,0
3316,117.0,-315.0,-16.0,0
3317,126.0,-307.0,-36.0,0
3318,125.0,-299.0,-50.0,0
3319,115.0,-287.0,-51.0,0
3320,97.0,-267.0,-51.0,0
3321,72.0,-250.0,-44.0,0
3322,51.0,-231.0,-46.0,0
3323,13.0,-208.0,-42.0,0
3324,-9.0,-196.0,-33.0,0
3325,-28.0,-188.0,-33.0,0
3326,-45.0,-177.0,-35.0,0
3327,-61.0,-175.0,-43.0,0
3328,-70.0,-179.0,-40.0,0
3329,-82.0,-185.0,-39.0,0
3330,-93.0,-190.0,-31.0,0
3331,-96.0,-210.0,-26.0,0
3332,-91.0,-231.0,-15.0,0
3333,-83.0,-256.0,-6.0,0
3334,-69.0,-277.0,-4.0,0
3335,-55.0,-296.0,0.0,0
3336,-41.0,-311.0,1.0,0
3337,-27.0,-319.0,2.0,0
3338,-14.0,-319.0,-2.0,0
3339,0.0,-319.0,-3.0,0
3340,15.0,-315.0,-9.0,0
3341,29.0,-310.0,-13.0,0
3342,49.0,-299.0,-17.0,0
3343,58.0,-288.0,-21.0,0
3344,68.0,-272.0,-15.0,0
3345,73.0,-257.0,-13.0,0
3346,82.0,-253.0,-11.0,0
3347,82.0,-245.0,-2.0,0
3348,84.0,-242.0,-3.0,0
3349,78.0,-236.0,0.0,0
3350,66.0,-232.0,4.0,0
3351,57.0,-232.0,-1.0,0
3352,44.0,-230.0,-3.0,0
3353,37.0,-235.0,-1.0,0
3354,26.0,-236.0,0.0,0
3355,15.0,-238.0,2.0,0
3356,9.0,-243.0,7.0,0
3357,7.0,-241.0,12.0,0
3358,3.0,-238.0,18.0,0
3359,-2.0,-236.0,22.0,0
3360,-2.0,-231.0,18.0,0
3361,-6.0,-226.0,27.0,0
3362,-5.0,-223.0,25.0,0
3363,-9.0,-219.0,24.0,0
3364,-13.0,-214.0,23.0,0
3365,-11.0,-212.0,23.0,0
3366,-13.0,-207.0,17.0,0
3367,-12.0,-210.0,19.0,0
3368,-17.0,-210.0,12.0,0
3369,-11.0,-207.0,12.0,0
3370,-19.0,-212.0,15.0,0
3371,-25.0,-217.0,17.0,0
3372,-29.0,-226.0,20.0,0
3373,-36.0,-234.0,26.0,0
3374,-37.0,-244.0,29.0,0
3375,-39.0,-249.0,38.0,0
3376,-37.0,-259.0,38.0,0
3377,-33.0,-260.0,38.0,0
3378,-29.0,-261.0,36.0,0
3379,-28.0,-259.0,38.0,0
3380,-21.0,-257.0,36.0,0
3381,-18.0,-255.0,35.0,0
3382,-14.0,-250.0,35.0,0
3383,-17.0,-240.0,33.0,0
3384,-11.0,-232.0,38.0,0
3385,-4.0,-226.0,34.0,0
3386,-12.0,-217.0,34.0,0
3387,-9.0,-220.0,38.0,0
3388,-11.0,-216.0,45.0,0
3389,-20.0,-212.0,46.0,0
3390,-21.0,-216.0,55.0,0
3391,-21.0,-222.0,62.0,0
3392,-23.0,-225.0,69.0,0
3393,-24.0,-234.0,68.0,0
3394,-31.0,-237.0,68.0,0
3395,-29.0,-245.0,73.0,0
3396,-31.0,-250.0,81.0,0
3397,-31.0,-256.0,82.0,0
3398,-28.0,-263.0,83.0,0
3399,-25.0,-264.0,81.0,0
3400,-22.0,-280.0,80.0,0
3401,-17.0,-289.0,81.0,0
3402,-13.0,-299.0,75.0,0
3403,-5.0,-296.0,75.0,0
3404,0.0,-298.0,67.0,0
3405,6.0,-290.0,58.0,0
3406,12.0,-281.0,46.0,0
3407,22.0,-272.0,38.0,0
3408,25.0,-266.0,30.0,0
3409,25.0,-257.0,27.0,0
3410,23.0,-250.0,19.0,0
3411,8.0,-238.0,19.0,0
3412,-1.0,-240.0,19.0,0
3413,-20.0,-243.0,23.0,0
3414,-32.0,-248.0,31.0,0
3415,-45.0,-260.0,34.0,0
3416,-64.0,-278.0,51.0,0
3417,-81.0,-293.0,68.0,0
3418,-93.0,-308.0,83.0,0
3419,-97.0,-313.0,91.0,0
3420,-107.0,-311.0,101.0,0
3421,-105.0,-311.0,101.0,0
3422,-112.0,-301.0,99.0,0
3423,-103.0,-293.0,87.0,0
3424,-99.0,-284.0,78.0,0
3425,-92.0,-280.0,67.0,0
3426,-86.0,-279.0,61.0,0
3427,-80.0,-286.0,59.0,0
3428,-65.0,-297.0,55.0,0
3429,-48.0,-291.0,53.0,0
3430,-34.0,-326.0,48.0,0
3431,-31.0,-334.0,40.0,0
3432,-16.0,-343.0,47.0,0
3433,-8.0,-345.0,39.0,0
3434,-5.0,-343.0,33.0,0
3435,1.0,-340.0,25.0,0
3436,-6.0,-345.0,14.0,0
3437,-13.0,-345.0,5.0,0
3438,-20.0,-353.0,1.0,0
3439,-21.0,-360.0,-17.0,0
3440,-23.0,-367.0,-31.0,0
3441,-30.0,-372.0,-33.0,0
3442,-28.0,-372.0,-39.0,0
3443,-32.0,-358.0,-47.0,0
3444,-28.0,-343.0,-52.0,0
3445,-28.0,-320.0,-61.0,0
3446,-18.0,-297.0,-63.0,0
3447,-16.0,-272.0,-63.0,0
3448,-12.0,-245.0,-65.0,0
3449,-3.0,-223.0,-66.0,0
3450,1.0,-205.0,-65.0,0
3451,11.0,-196.0,-65.0,0
3452,26.0,-196.0,-60.0,0
3453,41.0,-197.0,-58.0,0
3454,52.0,-207.0,-51.0,0
3455,55.0,-216.0,-40.0,0
3456,59.0,-229.0,-38.0,0
3457,58.0,-238.0,-24.0,0
3458,59.0,-257.0,-5.0,0
3459,56.0,-271.0,2.0,0
3460,55.0,-284.0,4.0,0
3461,50.0,-298.0,8.0,0
3462,49.0,-305.0,9.0,0
3463,43.0,-308.0,5.0,0
3464,31.0,-310.0,-2.0,0
3465,22.0,-307.0,-8.0,0
3466,10.0,-302.0,-5.0,0
3467,-5.0,-299.0,-7.0,0
3468,-18.0,-294.0,-2.0,0
3469,-37.0,-283.0,1.0,0
3470,-47.0,-278.0,2.0,0
3471,-51.0,-277.0,8.0,0
3472,-59.0,-273.0,2.0,0
3473,-58.0,-271.0,1.0,0
3474,-57.0,-274.0,5.0,0
3475,-54.0,-265.0,5.0,0
3476,-46.0,-264.0,7.0,0
3477,-41.0,-258.0,2.0,0
3478,-32.0,-257.0,5.0,0
3479,-23.0,-253.0,10.0,0
3480,-13.0,-250.0,16.0,0
3481,-1.0,-245.0,13.0,0
3482,2.0,-238.0,18.0,0
3483,8.0,-230.0,20.0,0
3484,17.0,-231.0,22.0,0
3485,21.0,-225.0,24.0,0
3486,23.0,-226.0,29.0,0
3487,26.0,-227.0,31.0,0
3488,22.0,-230.0,31.0,0
3489,26.0,-234.0,32.0,0
3490,19.0,-233.0,27.0,0
3491,22.0,-235.0,26.0,0
3492,21.0,-237.0,25.0,0
3493,18.0,-237.0,27.0,0
3494,19.0,-236.0,29.0,0
3495,17.0,-234.0,29.0,0
3496,14.0,-229.0,24.0,0
3497,22.0,-226.0,16.0,0
3498,13.0,-222.0,26.0,0
3499,9.0,-215.0,24.0,0
3500,4.0,-213.0,30.0,0
3501,1.0,-210.0,31.0,0
3502,5.0,-207.0,35.0,0
3503,5.0,-206.0,35.0,0
3504,6.0,-207.0,39.0,0
3505,7.0,-202.0,41.0,0
3506,12.0,-201.0,41.0,0
3507,12.0,-201.0,45.0,0
3508,16.0,-202.0,49.0,0
3509,18.0,-201.0,53.0,0
3510,19.0,-204.0,60.0,0
3511,24.0,-207.0,62.0,0
3512,24.0,-213.0,68.0,0
3513,25.0,-214.0,77.0,0
3514,24.0,-224.0,81.0,0
3515,24.0,-229.0,90.0,0
3516,21.0,-234.0,100.0,0
3517,15.0,-238.0,111.0,0
3518,13.0,-241.0,110.0,0
3519,3.0,-250.0,115.0,0
3520,2.0,-251.0,127.0,0
3521,-8.0,-253.0,129.0,0
3522,-10.0,-255.0,128.0,0
3523,-12.0,-249.0,121.0,0
3524,-10.0,-244.0,99.0,0
3525,-6.0,-243.0,74.0,0
3526,-6.0,-234.0,49.0,0
3527,-4.0,-235.0,35.0,0
3528,-8.0,-232.0,25.0,0
3529,-8.0,-234.0,17.0,0
3530,1.0,-236.0,21.0,0
3531,0.0,-228.0,18.0,0
3532,15.0,-222.0,19.0,0
3533,42.0,-225.0,6.0,0
3534,68.0,-235.0,2.0,0
3535,95.0,-247.0,3.0,0
3536,122.0,-265.0,11.0,0
3537,147.0,-306.0,30.0,0
3538,157.0,-332.0,55.0,0
3539,157.0,-349.0,87.0,0
3540,139.0,-350.0,119.0,0
3541,118.0,-337.0,124.0,0
3542,97.0,-326.0,121.0,0
3543,77.0,-320.0,110.0,0
3544,61.0,-313.0,96.0,0
3545,53.0,-316.0,76.0,0
3546,39.0,-320.0,62.0,0
3547,31.0,-330.0,60.0,0
3548,19.0,-339.0,53.0,0
3549,12.0,-356.0,53.0,0
3550,3.0,-364.0,61.0,0
3551,7.0,-367.0,58.0,0
3552,19.0,-375.0,59.0,0
3553,35.0,-380.0,55.0,0
3554,51.0,-379.0,46.0,0
3555,74.0,-394.0,35.0,0
3556,79.0,-376.0,34.0,0
3557,77.0,-365.0,20.0,0
3558,90.0,-362.0,9.0,0
3559,103.0,-365.0,-6.0,0
3560,108.0,-355.0,-22.0,0
3561,114.0,-352.0,-38.0,0
3562,116.0,-354.0,-49.0,0
3563,118.0,-338.0,-49.0,0
3564,108.0,-320.0,-50.0,0
3565,93.0,-300.0,-50.0,0
3566,71.0,-274.0,-49.0,0
3567,47.0,-246.0,-38.0,0
3568,15.0,-221.0,-33.0,0
3569,-10.0,-203.0,-33.0,0
3570,-32.0,-185.0,-39.0,0
3571,-48.0,-176.0,-39.0,0
3572,-63.0,-171.0,-40.0,0
3573,-77.0,-174.0,-38.0,0
3574,-95.0,-187.0,-29.0,0
3575,-104.0,-197.0,-20.0,0
3576,-105.0,-218.0,-12.0,0
3577,-97.0,-244.0,-9.0,0
3578,-81.0,-269.0,-5.0,0
3579,-66.0,-289.0,0.0,0
3580,-55.0,-298.0,0.0,0
3581,-44.0,-309.0,-1.0,0
3582,-29.0,-315.0,0.0,0
3583,-15.0,-312.0,-9.0,0
3584,0.0,-309.0,-9.0,0
3585,15.0,-301.0,-17.0,0
3586,29.0,-292.0,-12.0,0
3587,44.0,-284.0,-17.0,0
3588,54.0,-272.0,-15.0,0
3589,63.0,-258.0,-15.0,0
3590,67.0,-246.0,-11.0,0
3591,72.0,-240.0,-6.0,0
3592,75.0,-240.0,0.0,0
3593,80.0,-242.0,4.0,0
3594,76.0,-242.0,7.0,0
3595,66.0,-237.0,8.0,0
3596,56.0,-235.0,8.0,0
3597,48.0,-236.0,6.0,0
3598,33.0,-238.0,7.0,0
3599,24.0,-242.0,13.0,0
3600,13.0,-241.0,16.0,0
3601,8.0,-241.0,18.0,0
3602,5.0,-240.0,22.0,0
3603,0.0,-238.0,21.0,0
3604,1.0,-231.0,25.0,0
3605,-3.0,-228.0,21.0,0
3606,-7.0,-221.0,31.0,0
3607,-15.0,-212.0,29.0,0
3608,-16.0,-210.0,31.0,0
3609,-21.0,-205.0,37.0,0
3610,-24.0,-203.0,38.0,0
3611,-29.0,-203.0,35.0,0
3612,-30.0,-200.0,36.0,0
3613,-34.0,-199.0,34.0,0
3614,-38.0,-207.0,31.0,0
3615,-39.0,-217.0,31.0,0
3616,-44.0,-223.0,35.0,0
3617,-41.0,-233.0,39.0,0
3618,-42.0,-242.0,40.0,0
3619,-44.0,-252.0,42.0,0
3620,-39.0,-257.0,45.0,0
3621,-33.0,-259.0,48.0,0
3622,-23.0,-257.0,45.0,0
3623,-19.0,-255.0,44.0,0
3624,-12.0,-251.0,40.0,0
3625,-2.0,-244.0,38.0,0
3626,1.0,-234.0,37.0,0
3627,6.0,-231.0,36.0,0
3628,11.0,-223.0,35.0,0
3629,13.0,-217.0,32.0,0
3630,10.0,-211.0,33.0,0
3631,15.0,-205.0,34.0,0
3632,11.0,-203.0,36.0,0
3633,4.0,-201.0,39.0,0
3634,1.0,-204.0,48.0,0
3635,-7.0,-211.0,59.0,0
3636,-9.0,-214.0,66.0,0
3637,-17.0,-225.0,76.0,0
3638,-19.0,-238.0,80.0,0
3639,-20.0,-251.0,86.0,0
3640,-20.0,-262.0,85.0,0
3641,-17.0,-274.0,91.0,0
3642,-16.0,-285.0,97.0,0
3643,-8.0,-296.0,97.0,0
3644,-6.0,-305.0,96.0,0
3645,1.0,-309.0,95.0,0
3646,3.0,-310.0,93.0,0
3647,7.0,-305.0,79.0,0
3648,13.0,-299.0,56.0,0
3649,16.0,-288.0,36.0,0
3650,17.0,-280.0,20.0,0
3651,18.0,-274.0,12.0,0
3652,14.0,-265.0,8.0,0
3653,0.0,-260.0,5.0,0
3654,-13.0,-255.0,7.0,0
3655,-32.0,-252.0,17.0,0
3656,-48.0,-252.0,27.0,0
3657,-65.0,-256.0,29.0,0
3658,-84.0,-251.0,40.0,0
3659,-93.0,-275.0,36.0,0
3660,-115.0,-286.0,61.0,0
3661,-128.0,-292.0,78.0,0
3662,-131.0,-296.0,91.0,0
3663,-134.0,-287.0,98.0,0
3664,-128.0,-287.0,91.0,0
3665,-125.0,-281.0,88.0,0
3666,-118.0,-278.0,80.0,0
3667,-108.0,-277.0,70.0,0
3668,-92.0,-286.0,59.0,0
3669,-80.0,-293.0,51.0,0
3670,-77.0,-315.0,47.0,0
3671,-60.0,-322.0,60.0,0
3672,-31.0,-359.0,56.0,0
3673,-22.0,-381.0,52.0,0
3674,-21.0,-385.0,47.0,0
3675,-16.0,-383.0,33.0,0
3676,-11.0,-375.0,17.0,0
3677,-11.0,-373.0,5.0,0
3678,-8.0,-368.0,0.0,0
3679,-10.0,-361.0,-2.0,0
3680,-14.0,-361.0,-6.0,0
3681,-26.0,-362.0,-17.0,0
3682,-36.0,-356.0,-24.0,0
3683,-34.0,-348.0,-40.0,0
3684,-26.0,-338.0,-51.0,0
3685,-26.0,-320.0,-68.0,0
3686,-28.0,-299.0,-76.0,0
3687,-24.0,-281.0,-74.0,0
3688,-21.0,-264.0,-64.0,0
3689,-19.0,-243.0,-60.0,0
3690,-19.0,-220.0,-58.0,0
3691,-19.0,-201.0,-55.0,0
3692,-2.0,-192.0,-58.0,0
3693,7.0,-187.0,-56.0,0
3694,21.0,-191.0,-48.0,0
3695,35.0,-201.0,-41.0,0
3696,48.0,-212.0,-27.0,0
3697,57.0,-225.0,-22.0,0
3698,65.0,-241.0,-11.0,0
3699,71.0,-256.0,-4.0,0
3700,68.0,-271.0,-2.0,0
3701,67.0,-282.0,3.0,0
3702,63.0,-292.0,1.0,0
3703,57.0,-298.0,0.0,0
3704,50.0,-303.0,2.0,0
3705,46.0,-305.0,4.0,0
3706,34.0,-296.0,1.0,0
3707,26.0,-294.0,2.0,0
3708,9.0,-288.0,3.0,0
3709,-4.0,-283.0,3.0,0
3710,-19.0,-276.0,7.0,0
3711,-29.0,-271.0,6.0,0
3712,-38.0,-264.0,10.0,0
3713,-47.0,-267.0,7.0,0
3714,-51.0,-261.0,3.0,0
3715,-53.0,-256.0,1.0,0
3716,-54.0,-253.0,-2.0,0
3717,-57.0,-251.0,-8.0,0
3718,-55.0,-245.0,-7.0,0
3719,-51.0,-243.0,-7.0,0
3720,-44.0,-244.0,-2.0,0
3721,-40.0,-245.0,4.0,0
3722,-28.0,-242.0,10.0,0
3723,-23.0,-245.0,14.0,0
3724,-13.0,-250.0,24.0,0
3725,-9.0,-247.0,24.0,0
3726,1.0,-245.0,25.0,0
3727,3.0,-248.0,24.0,0
3728,7.0,-243.0,29.0,0
3729,11.0,-237.0,27.0,0
3730,14.0,-236.0,23.0,0
3731,17.0,-226.0,23.0,0
3732,17.0,-226.0,25.0,0
3733,22.0,-222.0,28.0,0
3734,22.0,-223.0,31.0,0
3735,25.0,-218.0,32.0,0
3736,26.0,-220.0,34.0,0
3737,25.0,-227.0,31.0,0
3738,28.0,-228.0,35.0,0
3739,30.0,-232.0,38.0,0
3740,32.0,-234.0,35.0,0
3741,32.0,-238.0,33.0,0
3742,29.0,-239.0,36.0,0
3743,32.0,-246.0,32.0,0
3744,26.0,-246.0,34.0,0
3745,25.0,-242.0,30.0,0
3746,19.0,-240.0,37.0,0
3747,17.0,-233.0,45.0,0
3748,15.0,-229.0,43.0,0
3749,16.0,-227.0,46.0,0
3750,13.0,-224.0,48.0,0
3751,13.0,-218.0,57.0,0
3752,16.0,-218.0,62.0,0
3753,16.0,-213.0,64.0,0
3754,17.0,-210.0,64.0,0
3755,22.0,-206.0,68.0,0
3756,22.0,-209.0,74.0,0
3757,26.0,-202.0,80.0,0
3758,28.0,-211.0,79.0,0
3759,23.0,-207.0,89.0,0
3760,21.0,-217.0,92.0,0
3761,14.0,-223.0,105.0,0
3762,6.0,-233.0,106.0,0
3763,1.0,-239.0,107.0,0
3764,0.0,-249.0,100.0,0
3765,-9.0,-254.0,95.0,0
3766,-11.0,-263.0,81.0,0
3767,-18.0,-266.0,71.0,0
3768,-17.0,-277.0,55.0,0
3769,-21.0,-278.0,47.0,0
3770,-26.0,-279.0,37.0,0
3771,-31.0,-275.0,36.0,0
3772,-26.0,-276.0,36.0,0
3773,-24.0,-274.0,38.0,0
3774,-10.0,-275.0,37.0,0
3775,4.0,-272.0,32.0,0
3776,25.0,-267.0,23.0,0
3777,46.0,-265.0,14.0,0
3778,73.0,-268.0,15.0,0
3779,100.0,-286.0,22.0,0
3780,122.0,-284.0,37.0,0
3781,142.0,-296.0,53.0,0
3782,163.0,-312.0,60.0,0
3783,164.0,-311.0,75.0,0
3784,155.0,-309.0,81.0,0
3785,137.0,-307.0,90.0,0
3786,122.0,-307.0,94.0,0
3787,108.0,-316.0,93.0,0
3788,92.0,-329.0,83.0,0
3789,78.0,-344.0,75.0,0
3790,71.0,-363.0,60.0,0
3791,61.0,-380.0,46.0,0
3792,49.0,-393.0,36.0,0
3793,42.0,-397.0,35.0,0
3794,34.0,-398.0,36.0,0
3795,34.0,-390.0,37.0,0
3796,44.0,-383.0,38.0,0
3797,58.0,-374.0,33.0,0
3798,89.0,-371.0,35.0,0
3799,83.0,-355.0,26.0,0
3800,91.0,-343.0,17.0,0
3801,103.0,-346.0,3.0,0
3802,102.0,-339.0,-13.0,0
3803,93.0,-324.0,-21.0,0
3804,92.0,-314.0,-35.0,0
3805,91.0,-294.0,-40.0,0
3806,86.0,-271.0,-45.0,0
3807,78.0,-252.0,-43.0,0
3808,65.0,-225.0,-42.0,0
3809,46.0,-198.0,-36.0,0
3810,35.0,-181.0,-39.0,0
3811,17.0,-169.0,-47.0,0
3812,-1.0,-165.0,-48.0,0
3813,-21.0,-167.0,-40.0,0
3814,-41.0,-177.0,-37.0,0
3815,-65.0,-188.0,-30.0,0
3816,-76.0,-201.0,-22.0,0
3817,-89.0,-220.0,-16.0,0
3818,-88.0,-244.0,-15.0,0
3819,-83.0,-263.0,-11.0,0
3820,-83.0,-287.0,-9.0,0
3821,-69.0,-304.0,-11.0,0
3822,-61.0,-317.0,-2.0,0
3823,-52.0,-326.0,3.0,0
3824,-42.0,-328.0,9.0,0
3825,-30.0,-324.0,14.0,0
3826,-19.0,-320.0,10.0,0
3827,-4.0,-308.0,5.0,0
3828,15.0,-301.0,-1.0,0
3829,28.0,-284.0,1.0,0
3830,38.0,-268.0,-6.0,0
3831,45.0,-257.0,-4.0,0
3832,44.0,-248.0,-1.0,0
3833,48.0,-238.0,-7.0,0
3834,52.0,-232.0,-6.0,0
3835,52.0,-228.0,3.0,0
3836,47.0,-224.0,0.0,0
3837,40.0,-219.0,4.0,0
3838,36.0,-220.0,0.0,0
3839,33.0,-230.0,-1.0,0
3840,30.0,-229.0,9.0,0
3841,18.0,-232.0,11.0,0
3842,18.0,-231.0,18.0,0
3843,11.0,-241.0,13.0,0
3844,9.0,-242.0,20.0,0
3845,4.0,-239.0,25.0,0
3846,1.0,-237.0,26.0,0
3847,2.0,-238.0,24.0,0
3848,-3.0,-232.0,22.0,0
3849,-1.0,-230.0,30.0,0
3850,-3.0,-222.0,30.0,0
3851,-5.0,-220.0,33.0,0
3852,-5.0,-209.0,31.0,0
3853,-1.0,-205.0,30.0,0
3854,-7.0,-204.0,28.0,0
3855,-9.0,-205.0,24.0,0
3856,-10.0,-206.0,28.0,0
3857,-13.0,-211.0,29.0,0
3858,-13.0,-220.0,35.0,0
3859,-19.0,-226.0,38.0,0
3860,-23.0,-238.0,46.0,0
3861,-23.0,-243.0,49.0,0
3862,-22.0,-252.0,56.0,0
3863,-23.0,-250.0,59.0,0
3864,-23.0,-247.0,56.0,0
3865,-22.0,-249.0,56.0,0
3866,-19.0,-249.0,56.0,0
3867,-21.0,-246.0,55.0,0
3868,-19.0,-243.0,54.0,0
3869,-13.0,-232.0,61.0,0
3870,-10.0,-227.0,45.0,0
3871,-10.0,-218.0,43.0,0
3872,-10.0,-211.0,45.0,0
3873,-11.0,-198.0,48.0,0
3874,-15.0,-200.0,53.0,0
3875,-24.0,-195.0,60.0,0
3876,-26.0,-201.0,66.0,0
3877,-32.0,-204.0,67.0,0
3878,-37.0,-207.0,73.0,0
3879,-42.0,-211.0,82.0,0
3880,-45.0,-225.0,84.0,0
3881,-42.0,-236.0,87.0,0
3882,-36.0,-251.0,87.0,0
3883,-31.0,-259.0,95.0,0
3884,-20.0,-272.0,89.0,0
3885,-12.0,-287.0,92.0,0
3886,-6.0,-292.0,86.0,0
3887,0.0,-294.0,81.0,0
3888,2.0,-291.0,73.0,0
3889,8.0,-285.0,50.0,0
3890,15.0,-274.0,30.0,0
3891,24.0,-271.0,22.0,0
3892,25.0,-269.0,18.0,0
3893,22.0,-263.0,16.0,0
3894,4.0,-265.0,23.0,0
3895,-10.0,-262.0,18.0,0
3896,-25.0,-268.0,28.0,0
3897,-48.0,-278.0,38.0,0
3898,-52.0,-271.0,38.0,0
3899,-68.0,-303.0,51.0,0
3900,-92.0,-308.0,66.0,0
3901,-108.0,-308.0,97.0,0
3902,-121.0,-308.0,110.0,0
3903,-118.0,-301.0,115.0,0
3904,-117.0,-289.0,106.0,0
3905,-109.0,-282.0,100.0,0
3906,-104.0,-273.0,89.0,0
3907,-93.0,-275.0,76.0,0
3908,-84.0,-274.0,78.0,0
3909,-68.0,-276.0,72.0,0
3910,-63.0,-290.0,75.0,0
3911,-51.0,-301.0,75.0,0
3912,-42.0,-318.0,74.0,0
3913,-29.0,-326.0,76.0,0
3914,-13.0,-345.0,70.0,0
3915,1.0,-352.0,66.0,0
3916,12.0,-354.0,62.0,0
3917,17.0,-352.0,57.0,0
3918,16.0,-349.0,47.0,0
3919,11.0,-345.0,37.0,0
3920,8.0,-346.0,29.0,0
3921,2.0,-342.0,23.0,0
3922,-14.0,-347.0,11.0,0
3923,-26.0,-352.0,-5.0,0
3924,-35.0,-346.0,-23.0,0
3925,-33.0,-344.0,-46.0,0
3926,-33.0,-335.0,-59.0,0
3927,-35.0,-319.0,-68.0,0
3928,-47.0,-302.0,-66.0,0
3929,-35.0,-277.0,-64.0,0
3930,-39.0,-255.0,-62.0,0
3931,-29.0,-234.0,-58.0,0
3932,-23.0,-216.0,-58.0,0
3933,-15.0,-201.0,-50.0,0
3934,3.0,-202.0,-45.0,0
3935,17.0,-204.0,-44.0,0
3936,39.0,-218.0,-36.0,0
3937,49.0,-230.0,-23.0,0
3938,58.0,-240.0,-8.0,0
3939,60.0,-256.0,-1.0,0
3940,62.0,-272.0,8.0,0
3941,61.0,-290.0,15.0,0
3942,57.0,-306.0,11.0,0
3943,51.0,-320.0,15.0,0
3944,47.0,-321.0,13.0,0
3945,43.0,-326.0,12.0,0
3946,31.0,-321.0,11.0,0
3947,21.0,-319.0,5.0,0
3948,7.0,-315.0,2.0,0
3949,-7.0,-308.0,4.0,0
3950,-24.0,-292.0,7.0,0
3951,-34.0,-282.0,11.0,0
3952,-49.0,-269.0,11.0,0
3953,-53.0,-267.0,11.0,0
3954,-59.0,-258.0,10.0,0
3955,-65.0,-252.0,9.0,0
3956,-62.0,-249.0,7.0,0
3957,-65.0,-244.0,2.0,0
3958,-65.0,-241.0,2.0,0
3959,-60.0,-238.0,-2.0,0
3960,-53.0,-238.0,-3.0,0
3961,-49.0,-237.0,-6.0,0
3962,-41.0,-234.0,1.0,0
3963,-35.0,-228.0,6.0,0
3964,-26.0,-230.0,14.0,0
3965,-16.0,-228.0,17.0,0
3966,-7.0,-229.0,24.0,0
3967,-1.0,-226.0,25.0,0
3968,1.0,-222.0,29.0,0
3969,6.0,-221.0,28.0,0
3970,6.0,-218.0,25.0,0
3971,16.0,-218.0,25.0,0
3972,10.0,-215.0,31.0,0
3973,12.0,-215.0,29.0,0
3974,12.0,-215.0,29.0,0
3975,13.0,-222.0,31.0,0
3976,14.0,-221.0,31.0,0
3977,16.0,-225.0,30.0,0
3978,18.0,-226.0,33.0,0
3979,22.0,-230.0,29.0,0
3980,23.0,-238.0,31.0,0
3981,25.0,-239.0,36.0,0
3982,25.0,-241.0,38.0,0
3983,25.0,-244.0,39.0,0
3984,25.0,-243.0,42.0,0
3985,19.0,-242.0,48.0,0
3986,23.0,-238.0,46.0,0
3987,21.0,-237.0,51.0,0
3988,21.0,-232.0,52.0,0
3989,21.0,-228.0,54.0,0
3990,24.0,-223.0,56.0,0
3991,24.0,-221.0,54.0,0
3992,26.0,-212.0,58.0,0
3993,28.0,-212.0,61.0,0
3994,32.0,-205.0,61.0,0
3995,30.0,-202.0,64.0,0
3996,31.0,-201.0,72.0,0
3997,32.0,-199.0,77.0,0
3998,27.0,-205.0,85.0,0
3999,29.0,-210.0,92.0,0
4000,21.0,-213.0,105.0,0
4001,18.0,-216.0,107.0,0
4002,9.0,-225.0,112.0,0
4003,5.0,-231.0,113.0,0
4004,2.0,-242.0,118.0,0
4005,0.0,-245.0,117.0,0
4006,1.0,-251.0,107.0,0
4007,2.0,-249.0,90.0,0
4008,4.0,-250.0,67.0,0
4009,13.0,-253.0,38.0,0
4010,23.0,-258.0,19.0,0
4011,23.0,-258.0,-3.0,0
4012,25.0,-265.0,-8.0,0
4013,32.0,-273.0,-13.0,0
4014,32.0,-282.0,-15.0,0
4015,38.0,-290.0,-12.0,0
4016,54.0,-301.0,-17.0,0
4017,66.0,-312.0,-5.0,0
4018,84.0,-325.0,9.0,0
4019,96.0,-339.0,37.0,0
4020,110.0,-357.0,68.0,0
4021,108.0,-362.0,102.0,0
4022,96.0,-350.0,125.0,0
4023,76.0,-322.0,132.0,0
4024,62.0,-297.0,131.0,0
4025,51.0,-276.0,111.0,0
4026,41.0,-264.0,93.0,0
4027,35.0,-260.0,80.0,0
4028,19.0,-258.0,67.0,0
4029,10.0,-266.0,64.0,0
4030,1.0,-278.0,63.0,0
4031,-7.0,-288.0,58.0,0
4032,-11.0,-310.0,60.0,0
4033,-20.0,-327.0,68.0,0
4034,-17.0,-347.0,75.0,0
4035,-16.0,-362.0,78.0,0
4036,-11.0,-370.0,77.0,0
4037,-4.0,-383.0,75.0,0
4038,8.0,-386.0,68.0,0
4039,18.0,-378.0,66.0,0
4040,29.0,-363.0,60.0,0
4041,42.0,-349.0,53.0,0
4042,52.0,-332.0,42.0,0
4043,71.0,-318.0,21.0,0
4044,81.0,-304.0,4.0,0
4045,102.0,-301.0,-24.0,0
4046,117.0,-300.0,-45.0,0
4047,120.0,-292.0,-57.0,0
4048,127.0,-282.0,-62.0,0
4049,125.0,-271.0,-65.0,0
4050,111.0,-257.0,-66.0,0
4051,94.0,-239.0,-64.0,0
4052,73.0,-224.0,-66.0,0
4053,53.0,-205.0,-57.0,0
4054,30.0,-194.0,-53.0,0
4055,7.0,-188.0,-50.0,0
4056,-10.0,-187.0,-40.0,0
4057,-39.0,-187.0,-40.0,0
4058,-43.0,-197.0,-31.0,0
4059,-56.0,-212.0,-28.0,0
4060,-60.0,-228.0,-24.0,0
4061,-57.0,-253.0,-14.0,0
4062,-53.0,-273.0,-10.0,0
4063,-44.0,-292.0,-10.0,0
4064,-37.0,-313.0,-3.0,0
4065,-37.0,-321.0,-2.0,0
4066,-27.0,-331.0,2.0,0
4067,-18.0,-329.0,0.0,0
4068,-6.0,-326.0,-5.0,0
4069,5.0,-320.0,-5.0,0
4070,12.0,-308.0,-6.0,0
4071,24.0,-296.0,-5.0,0
4072,33.0,-281.0,-1.0,0
4073,47.0,-273.0,0.0,0
4074,57.0,-264.0,2.0,0
4075,59.0,-256.0,6.0,0
4076,59.0,-252.0,3.0,0
4077,59.0,-247.0,1.0,0
4078,56.0,-244.0,-6.0,0
4079,52.0,-245.0,-11.0,0
4080,45.0,-243.0,-8.0,0
4081,35.0,-240.0,-9.0,0
4082,28.0,-241.0,-4.0,0
4083,17.0,-243.0,-2.0,0
4084,19.0,-242.0,-1.0,0
4085,14.0,-238.0,1.0,0
4086,12.0,-236.0,9.0,0
4087,11.0,-238.0,13.0,0
4088,7.0,-227.0,15.0,0
4089,5.0,-219.0,17.0,0
4090,2.0,-212.0,14.0,0
4091,0.0,-205.0,12.0,0
4092,0.0,-205.0,12.0,0
4093,-2.0,-201.0,5.0,0
4094,-5.0,-200.0,10.0,0
4095,-3.0,-200.0,10.0,0
4096,-8.0,-199.0,14.0,0
4097,-9.0,-204.0,14.0,0
4098,-12.0,-214.0,19.0,0
4099,-18.0,-218.0,19.0,0
4100,-21.0,-224.0,21.0,0
4101,-23.0,-231.0,31.0,0
4102,-25.0,-239.0,33.0,0
4103,-24.0,-243.0,38.0,0
4104,-20.0,-251.0,38.0,0
4105,-23.0,-255.0,40.0,0
4106,-22.0,-254.0,43.0,0
4107,-19.0,-254.0,43.0,0
4108,-17.0,-249.0,44.0,0
4109,-15.0,-246.0,39.0,0
4110,-13.0,-236.0,35.0,0
4111,-12.0,-230.0,36.0,0
4112,-12.0,-223.0,36.0,0
4113,-19.0,-214.0,39.0,0
4114,-22.0,-206.0,43.0,0
4115,-26.0,-202.0,41.0,0
4116,-32.0,-196.0,46.0,0
4117,-33.0,-194.0,49.0,0
4118,-33.0,-195.0,54.0,0
4119,-34.0,-196.0,60.0,0
4120,-36.0,-203.0,64.0,0
4121,-36.0,-213.0,69.0,0
4122,-39.0,-228.0,80.0,0
4123,-37.0,-239.0,86.0,0
4124,-33.0,-253.0,91.0,0
4125,-29.0,-267.0,91.0,0
4126,-24.0,-280.0,92.0,0
4127,-16.0,-288.0,86.0,0
4128,-11.0,-295.0,79.0,0
4129,-9.0,-293.0,71.0,0
4130,0.0,-292.0,63.0,0
4131,-3.0,-286.0,57.0,0
4132,-1.0,-279.0,47.0,0
4133,0.0,-269.0,33.0,0
4134,-4.0,-265.0,24.0,0
4135,-10.0,-264.0,17.0,0
4136,-20.0,-267.0,12.0,0
4137,-38.0,-270.0,18.0,0
4138,-53.0,-274.0,17.0,0
4139,-65.0,-277.0,28.0,0
4140,-80.0,-289.0,35.0,0
4141,-89.0,-282.0,52.0,0
4142,-98.0,-310.0,55.0,0
4143,-110.0,-315.0,74.0,0
4144,-104.0,-315.0,93.0,0
4145,-121.0,-306.0,113.0,0
4146,-103.0,-308.0,107.0,0
4147,-85.0,-286.0,94.0,0
4148,-74.0,-281.0,80.0,0
4149,-65.0,-270.0,73.0,0
4150,-55.0,-271.0,66.0,0
4151,-46.0,-282.0,72.0,0
4152,-35.0,-282.0,71.0,0
4153,-10.0,-290.0,71.0,0
4154,-14.0,-306.0,69.0,0
4155,-5.0,-313.0,62.0,0
4156,1.0,-330.0,65.0,0
4157,13.0,-332.0,61.0,0
4158,18.0,-356.0,54.0,0
4159,15.0,-363.0,51.0,0
4160,6.0,-370.0,33.0,0
4161,-1.0,-372.0,30.0,0
4162,-15.0,-367.0,6.0,0
4163,-23.0,-362.0,-3.0,0
4164,-31.0,-369.0,-13.0,0
4165,-34.0,-375.0,-29.0,0
4166,-61.0,-379.0,-48.0,0
4167,-53.0,-385.0,-33.0,0
4168,-57.0,-375.0,-41.0,0
4169,-61.0,-365.0,-42.0,0
4170,-52.0,-345.0,-52.0,0
4171,-42.0,-319.0,-52.0,0
4172,-30.0,-291.0,-53.0,0
4173,-28.0,-261.0,-60.0,0
4174,-13.0,-245.0,-57.0,0
4175,-6.0,-218.0,-63.0,0
4176,12.0,-200.0,-55.0,0
4177,21.0,-188.0,-59.0,0
4178,40.0,-185.0,-60.0,0
4179,39.0,-183.0,-59.0,0
4180,56.0,-179.0,-52.0,0
4181,60.0,-189.0,-44.0,0
4182,58.0,-202.0,-28.0,0
4183,57.0,-220.0,-16.0,0
4184,62.0,-242.0,4.0,0
4185,54.0,-268.0,12.0,0
4186,45.0,-287.0,19.0,0
4187,38.0,-299.0,21.0,0
4188,34.0,-308.0,22.0,0
4189,28.0,-308.0,18.0,0
4190,8.0,-306.0,11.0,0
4191,4.0,-302.0,1.0,0
4192,-12.0,-300.0,-2.0,0
4193,-23.0,-289.0,0.0,0
4194,-37.0,-287.0,-7.0,0
4195,-64.0,-270.0,1.0,0
4196,-79.0,-271.0,2.0,0
4197,-83.0,-263.0,5.0,0
4198,-91.0,-269.0,9.0,0
4199,-92.0,-256.0,7.0,0
4200,-76.0,-256.0,13.0,0
4201,-70.0,-251.0,3.0,0
4202,-54.0,-250.0,4.0,0
4203,-46.0,-238.0,0.0,0
4204,-32.0,-238.0,7.0,0
4205,-13.0,-238.0,20.0,0
4206,-13.0,-228.0,5.0,0
4207,-4.0,-236.0,7.0,0
4208,3.0,-212.0,24.0,0
4209,4.0,-223.0,5.0,0
4210,14.0,-223.0,19.0,0
4211,18.0,-225.0,17.0,0
4212,28.0,-215.0,28.0,0
4213,27.0,-225.0,28.0,0
4214,12.0,-216.0,40.0,0
4215,26.0,-224.0,36.0,0
4216,32.0,-221.0,40.0,0
4217,28.0,-220.0,45.0,0
4218,33.0,-228.0,51.0,0
4219,31.0,-227.0,49.0,0
4220,30.0,-224.0,56.0,0
4221,26.0,-241.0,42.0,0
4222,17.0,-243.0,44.0,0
4223,16.0,-246.0,38.0,0
4224,7.0,-242.0,31.0,0
4225,8.0,-248.0,28.0,0
4226,8.0,-240.0,29.0,0
4227,2.0,-239.0,23.0,0
4228,1.0,-232.0,26.0,0
4229,1.0,-228.0,25.0,0
4230,0.0,-217.0,24.0,0
4231,0.0,-215.0,24.0,0
4232,-4.0,-204.0,29.0,0
4233,3.0,-205.0,31.0,0
4234,1.0,-182.0,36.0,0
4235,2.0,-194.0,40.0,0
4236,8.0,-192.0,35.0,0
4237,10.0,-197.0,45.0,0
4238,22.0,-198.0,51.0,0
4239,16.0,-202.0,55.0,0
4240,20.0,-212.0,73.0,0
4241,22.0,-226.0,67.0,0
4242,20.0,-224.0,70.0,0
4243,18.0,-227.0,74.0,0
4244,20.0,-233.0,75.0,0
4245,19.0,-243.0,83.0,0
4246,14.0,-246.0,83.0,0
4247,15.0,-254.0,84.0,0
4248,14.0,-259.0,82.0,0
4249,12.0,-268.0,80.0,0
4250,3.0,-278.0,87.0,0
4251,17.0,-292.0,77.0,0
4252,15.0,-293.0,76.0,0
4253,12.0,-297.0,73.0,0
4254,10.0,-292.0,61.0,0
4255,4.0,-286.0,54.0,0
4256,4.0,-276.0,44.0,0
4257,4.0,-273.0,30.0,0
4258,13.0,-268.0,24.0,0
4259,20.0,-260.0,18.0,0
4260,35.0,-257.0,18.0,0
4261,48.0,-258.0,16.0,0
4262,63.0,-267.0,23.0,0
4263,77.0,-283.0,34.0,0
4264,93.0,-307.0,54.0,0
4265,96.0,-310.0,62.0,0
4266,105.0,-320.0,66.0,0
4267,102.0,-317.0,78.0,0
4268,85.0,-311.0,87.0,0
4269,79.0,-302.0,84.0,0
4270,66.0,-293.0,84.0,0
4271,59.0,-288.0,77.0,0
4272,46.0,-287.0,74.0,0
4273,32.0,-293.0,68.0,0
4274,22.0,-302.0,63.0,0
4275,12.0,-312.0,59.0,0
4276,2.0,-328.0,54.0,0
4277,-1.0,-342.0,49.0,0
4278,-9.0,-352.0,51.0,0
4279,0.0,-364.0,48.0,0
4280,11.0,-371.0,43.0,0
4281,34.0,-379.0,40.0,0
4282,63.0,-383.0,36.0,0
4283,92.0,-386.0,22.0,0
4284,125.0,-408.0,8.0,0
4285,122.0,-394.0,0.0,0
4286,119.0,-384.0,-8.0,0
4287,123.0,-388.0,-20.0,0
4288,116.0,-379.0,-23.0,0
4289,98.0,-361.0,-20.0,0
4290,88.0,-343.0,-27.0,0
4291,76.0,-318.0,-27.0,0
4292,65.0,-293.0,-32.0,0
4293,45.0,-280.0,-42.0,0
4294,33.0,-237.0,-38.0,0
4295,16.0,-204.0,-46.0,0
4296,0.0,-200.0,-52.0,0
4297,-14.0,-189.0,-57.0,0
4298,-34.0,-179.0,-59.0,0
4299,-53.0,-177.0,-51.0,0
4300,-65.0,-180.0,-43.0,0
4301,-73.0,-184.0,-36.0,0
4302,-81.0,-197.0,-27.0,0
4303,-82.0,-208.0,-24.0,0
4304,-80.0,-221.0,-19.0,0
4305,-72.0,-233.0,-19.0,0
4306,-61.0,-255.0,-16.0,0
4307,-49.0,-266.0,-14.0,0
4308,-38.0,-280.0,-9.0,0
4309,-27.0,-287.0,-7.0,0
4310,-18.0,-294.0,-2.0,0
4311,-1.0,-296.0,0.0,0
4312,11.0,-293.0,-4.0,0
4313,24.0,-291.0,-8.0,0
4314,40.0,-282.0,-5.0,0
4315,54.0,-276.0,-6.0,0
4316,69.0,-274.0,-6.0,0
4317,77.0,-274.0,-10.0,0
4318,85.0,-266.0,-2.0,0
4319,85.0,-262.0,-2.0,0
4320,79.0,-256.0,-1.0,0
4321,73.0,-251.0,-2.0,0
4322,66.0,-245.0,-6.0,0
4323,58.0,-242.0,-7.0,0
4324,47.0,-241.0,0.0,0
4325,31.0,-243.0,4.0,0
4326,27.0,-241.0,3.0,0
4327,19.0,-241.0,1.0,0
4328,15.0,-236.0,2.0,0
4329,10.0,-232.0,1.0,0
4330,2.0,-224.0,9.0,0
4331,-5.0,-221.0,6.0,0
4332,-17.0,-214.0,12.0,0
4333,-17.0,-214.0,20.0,0
4334,-21.0,-209.0,15.0,0
4335,-21.0,-209.0,22.0,0
4336,-22.0,-209.0,21.0,0
4337,-20.0,-211.0,22.0,0
4338,-24.0,-214.0,33.0,0
4339,-28.0,-209.0,29.0,0
4340,-23.0,-214.0,32.0,0
4341,-28.0,-217.0,33.0,0
4342,-27.0,-223.0,37.0,0
4343,-27.0,-228.0,39.0,0
4344,-25.0,-234.0,41.0,0
4345,-25.0,-241.0,43.0,0
4346,-18.0,-246.0,47.0,0
4347,-17.0,-250.0,46.0,0
4348,-20.0,-250.0,42.0,0
4349,-10.0,-248.0,50.0,0
4350,-1.0,-249.0,45.0,0
4351,0.0,-246.0,44.0,0
4352,2.0,-239.0,47.0,0
4353,2.0,-231.0,40.0,0
4354,3.0,-229.0,38.0,0
4355,1.0,-222.0,42.0,0
4356,-1.0,-217.0,42.0,0
4357,-5.0,-209.0,49.0,0
4358,-9.0,-201.0,48.0,0
4359,-12.0,-205.0,54.0,0
4360,-26.0,-198.0,56.0,0
4361,-20.0,-204.0,62.0,0
4362,-26.0,-204.0,62.0,0
4363,-28.0,-207.0,69.0,0
4364,-29.0,-212.0,68.0,0
4365,-25.0,-221.0,76.0,0
4366,-25.0,-228.0,83.0,0
4367,-19.0,-241.0,88.0,0
4368,-21.0,-247.0,91.0,0
4369,-18.0,-258.0,95.0,0
4370,-16.0,-269.0,99.0,0
4371,-6.0,-277.0,93.0,0
4372,2.0,-287.0,85.0,0
4373,4.0,-290.0,85.0,0
4374,9.0,-288.0,73.0,0
4375,12.0,-284.0,63.0,0
4376,11.0,-283.0,53.0,0
4377,12.0,-278.0,36.0,0
4378,17.0,-273.0,21.0,0
4379,15.0,-273.0,18.0,0
4380,6.0,-270.0,15.0,0
4381,-3.0,-266.0,18.0,0
4382,-18.0,-261.0,26.0,0
4383,-35.0,-261.0,32.0,0
4384,-53.0,-261.0,33.0,0
4385,-65.0,-268.0,36.0,0
4386,-73.0,-275.0,36.0,0
4387,-89.0,-280.0,48.0,0
4388,-98.0,-297.0,65.0,0
4389,-114.0,-301.0,93.0,0
4390,-125.0,-297.0,107.0,0
4391,-122.0,-292.0,110.0,0
4392,-112.0,-287.0,97.0,0
4393,-98.0,-288.0,91.0,0
4394,-93.0,-280.0,87.0,0
4395,-79.0,-285.0,73.0,0
4396,-66.0,-285.0,75.0,0
4397,-51.0,-291.0,69.0,0
4398,-43.0,-301.0,69.0,0
4399,-35.0,-306.0,65.0,0
4400,-11.0,-332.0,65.0,0
4401,-2.0,-346.0,59.0,0
4402,0.0,-355.0,47.0,0
4403,7.0,-360.0,44.0,0
4404,10.0,-363.0,36.0,0
4405,8.0,-361.0,35.0,0
4406,6.0,-355.0,26.0,0
4407,0.0,-349.0,24.0,0
4408,-2.0,-351.0,20.0,0
4409,-20.0,-350.0,7.0,0
4410,-38.0,-354.0,-1.0,0
4411,-47.0,-359.0,-8.0,0
4412,-45.0,-360.0,-26.0,0
4413,-42.0,-358.0,-42.0,0
4414,-44.0,-347.0,-58.0,0
4415,-44.0,-327.0,-62.0,0
4416,-44.0,-312.0,-64.0,0
4417,-43.0,-289.0,-64.0,0
4418,-43.0,-265.0,-61.0,0
4419,-34.0,-244.0,-55.0,0
4420,-24.0,-222.0,-56.0,0
4421,-10.0,-201.0,-55.0,0
4422,3.0,-190.0,-51.0,0
4423,20.0,-188.0,-49.0,0
4424,37.0,-193.0,-33.0,0
4425,51.0,-205.0,-28.0,0
4426,56.0,-214.0,-23.0,0
4427,63.0,-230.0,-12.0,0
4428,66.0,-247.0,-1.0,0
4429,69.0,-261.0,4.0,0
4430,64.0,-281.0,7.0,0
4431,60.0,-295.0,13.0,0
4432,60.0,-309.0,18.0,0
4433,51.0,-314.0,13.0,0
4434,46.0,-319.0,16.0,0
4435,36.0,-312.0,14.0,0
4436,23.0,-308.0,13.0,0
4437,5.0,-301.0,11.0,0
4438,-4.0,-290.0,8.0,0
4439,-17.0,-284.0,13.0,0
4440,-29.0,-278.0,6.0,0
4441,-48.0,-271.0,9.0,0
4442,-58.0,-263.0,8.0,0
4443,-63.0,-259.0,7.0,0
4444,-69.0,-255.0,3.0,0
4445,-72.0,-258.0,5.0,0
4446,-65.0,-249.0,4.0,0
4447,-64.0,-240.0,1.0,0
4448,-60.0,-238.0,-6.0,0
4449,-52.0,-236.0,-4.0,0
4450,-49.0,-232.0,1.0,0
4451,-37.0,-229.0,4.0,0
4452,-32.0,-231.0,9.0,0
4453,-26.0,-225.0,15.0,0
4454,-16.0,-225.0,10.0,0
4455,-9.0,-223.0,14.0,0
4456,-1.0,-224.0,21.0,0
4457,2.0,-222.0,21.0,0
4458,2.0,-221.0,24.0,0
4459,7.0,-218.0,27.0,0
4460,10.0,-218.0,25.0,0
4461,13.0,-220.0,25.0,0
4462,13.0,-218.0,31.0,0
4463,12.0,-220.0,30.0,0
4464,13.0,-227.0,31.0,0
4465,18.0,-228.0,29.0,0
4466,20.0,-235.0,31.0,0
4467,14.0,-228.0,21.0,0
4468,25.0,-241.0,35.0,0
4469,26.0,-244.0,37.0,0
4470,24.0,-247.0,35.0,0
4471,30.0,-250.0,37.0,0
4472,30.0,-252.0,38.0,0
4473,32.0,-255.0,43.0,0
4474,25.0,-252.0,38.0,0
4475,22.0,-251.0,40.0,0
4476,21.0,-246.0,40.0,0
4477,19.0,-242.0,43.0,0
4478,16.0,-233.0,41.0,0
4479,16.0,-228.0,41.0,0
4480,15.0,-218.0,43.0,0
4481,14.0,-212.0,45.0,0
4482,16.0,-203.0,41.0,0
4483,17.0,-200.0,54.0,0
4484,15.0,-198.0,57.0,0
4485,18.0,-197.0,60.0,0
4486,18.0,-197.0,63.0,0
4487,16.0,-202.0,73.0,0
4488,16.0,-206.0,80.0,0
4489,13.0,-213.0,84.0,0
4490,10.0,-221.0,91.0,0
4491,2.0,-234.0,91.0,0
4492,1.0,-241.0,94.0,0
4493,-3.0,-245.0,96.0,0
4494,-7.0,-255.0,94.0,0
4495,-11.0,-256.0,87.0,0
4496,-4.0,-268.0,82.0,0
4497,-2.0,-266.0,76.0,0
4498,-3.0,-262.0,65.0,0
4499,0.0,-265.0,55.0,0
4500,1.0,-263.0,45.0,0
4501,0.0,-262.0,36.0,0
4502,6.0,-267.0,32.0,0
4503,15.0,-268.0,24.0,0
4504,24.0,-268.0,18.0,0
4505,34.0,-268.0,15.0,0
4506,48.0,-270.0,9.0,0
4507,61.0,-273.0,13.0,0
4508,75.0,-280.0,16.0,0
4509,88.0,-294.0,31.0,0
4510,101.0,-322.0,49.0,0
4511,102.0,-314.0,76.0,0
4512,105.0,-315.0,91.0,0
4513,105.0,-311.0,98.0,0
4514,96.0,-304.0,96.0,0
4515,83.0,-296.0,91.0,0
4516,71.0,-294.0,79.0,0
4517,65.0,-296.0,74.0,0
4518,57.0,-306.0,65.0,0
4519,50.0,-320.0,57.0,0
4520,40.0,-338.0,40.0,0
4521,29.0,-356.0,41.0,0
4522,24.0,-372.0,34.0,0
4523,18.0,-379.0,40.0,0
4524,26.0,-386.0,35.0,0
4525,36.0,-385.0,39.0,0
4526,59.0,-385.0,41.0,0
4527,82.0,-384.0,30.0,0
4528,120.0,-396.0,27.0,0
4529,110.0,-376.0,23.0,0
4530,110.0,-357.0,16.0,0
4531,122.0,-359.0,5.0,0
4532,123.0,-357.0,-7.0,0
4533,124.0,-344.0,-16.0,0
4534,118.0,-332.0,-34.0,0
4535,121.0,-318.0,-44.0,0
4536,118.0,-306.0,-56.0,0
4537,112.0,-290.0,-63.0,0
4538,96.0,-268.0,-63.0,0
4539,76.0,-251.0,-62.0,0
4540,52.0,-226.0,-55.0,0
4541,27.0,-210.0,-55.0,0
4542,11.0,-195.0,-54.0,0
4543,-4.0,-187.0,-57.0,0
4544,-21.0,-183.0,-51.0,0
4545,-48.0,-185.0,-51.0,0
4546,-64.0,-193.0,-45.0,0
4547,-71.0,-204.0,-38.0,0
4548,-78.0,-218.0,-32.0,0
4549,-79.0,-234.0,-30.0,0
4550,-78.0,-245.0,-27.0,0
4551,-67.0,-259.0,-22.0,0
4552,-56.0,-272.0,-20.0,0
4553,-47.0,-282.0,-15.0,0
4554,-35.0,-290.0,-13.0,0
4555,-23.0,-296.0,-12.0,0
4556,-12.0,-296.0,-7.0,0
4557,1.0,-294.0,-11.0,0
4558,15.0,-287.0,-8.0,0
4559,29.0,-284.0,-6.0,0
4560,41.0,-279.0,-10.0,0
4561,50.0,-270.0,-16.0,0
4562,58.0,-266.0,-16.0,0
4563,60.0,-258.0,-18.0,0
4564,62.0,-254.0,-16.0,0
4565,59.0,-246.0,-20.0,0
4566,55.0,-241.0,-13.0,0
4567,49.0,-235.0,-14.0,0
4568,44.0,-233.0,-12.0,0
4569,32.0,-227.0,-10.0,0
4570,24.0,-236.0,-4.0,0
4571,18.0,-238.0,0.0,0
4572,14.0,-241.0,3.0,0
4573,11.0,-244.0,6.0,0
4574,6.0,-246.0,8.0,0
4575,10.0,-243.0,14.0,0
4576,4.0,-244.0,12.0,0
4577,6.0,-244.0,15.0,0
4578,4.0,-242.0,20.0,0
4579,3.0,-241.0,21.0,0
4580,0.0,-240.0,18.0,0
4581,0.0,-237.0,19.0,0
4582,0.0,-234.0,17.0,0
4583,-2.0,-229.0,14.0,0
4584,-1.0,-223.0,13.0,0
4585,-4.0,-221.0,13.0,0
4586,-11.0,-213.0,12.0,0
4587,-14.0,-212.0,17.0,0
4588,-22.0,-213.0,17.0,0
4589,-25.0,-217.0,23.0,0
4590,-27.0,-220.0,24.0,0
4591,-31.0,-228.0,28.0,0
4592,-34.0,-233.0,32.0,0
4593,-36.0,-237.0,32.0,0
4594,-34.0,-250.0,42.0,0
4595,-33.0,-251.0,43.0,0
4596,-34.0,-252.0,43.0,0
4597,-32.0,-254.0,46.0,0
4598,-32.0,-250.0,42.0,0
4599,-35.0,-246.0,42.0,0
4600,-23.0,-239.0,49.0,0
4601,-22.0,-229.0,32.0,0
4602,-19.0,-224.0,39.0,0
4603,-17.0,-218.0,41.0,0
4604,-17.0,-212.0,46.0,0
4605,-19.0,-212.0,52.0,0
4606,-20.0,-211.0,62.0,0
4607,-21.0,-207.0,64.0,0
4608,-18.0,-214.0,68.0,0
4609,-18.0,-217.0,72.0,0
4610,-14.0,-224.0,77.0,0
4611,-11.0,-230.0,82.0,0
4612,-10.0,-233.0,83.0,0
4613,-7.0,-241.0,86.0,0
4614,-9.0,-252.0,87.0,0
4615,0.0,-255.0,85.0,0
4616,1.0,-266.0,76.0,0
4617,5.0,-273.0,74.0,0
4618,17.0,-268.0,72.0,0
4619,8.0,-272.0,53.0,0
4620,15.0,-273.0,39.0,0
4621,21.0,-273.0,35.0,0
4622,26.0,-273.0,34.0,0
4623,28.0,-272.0,27.0,0
4624,15.0,-268.0,24.0,0
4625,6.0,-264.0,21.0,0
4626,0.0,-263.0,18.0,0
4627,-13.0,-258.0,22.0,0
4628,-29.0,-261.0,23.0,0
4629,-44.0,-261.0,33.0,0
4630,-51.0,-270.0,45.0,0
4631,-69.0,-273.0,63.0,0
4632,-79.0,-277.0,76.0,0
4633,-80.0,-287.0,85.0,0
4634,-80.0,-288.0,87.0,0
4635,-80.0,-282.0,90.0,0
4636,-81.0,-280.0,101.0,0
4637,-88.0,-269.0,108.0,0
4638,-95.0,-261.0,104.0,0
4639,-90.0,-253.0,100.0,0
4640,-86.0,-256.0,80.0,0
4641,-87.0,-260.0,85.0,0
4642,-88.0,-267.0,86.0,0
4643,-90.0,-283.0,85.0,0
4644,-83.0,-304.0,93.0,0
4645,-80.0,-320.0,90.0,0
4646,-75.0,-337.0,85.0,0
4647,-61.0,-347.0,77.0,0
4648,-50.0,-354.0,62.0,0
4649,-39.0,-358.0,49.0,0
4650,-28.0,-361.0,36.0,0
4651,-19.0,-358.0,25.0,0
4652,-13.0,-357.0,14.0,0
4653,-10.0,-356.0,8.0,0
4654,-8.0,-362.0,8.0,0
4655,-9.0,-368.0,2.0,0
4656,-8.0,-370.0,-8.0,0
4657,-10.0,-374.0,-22.0,0
4658,-11.0,-370.0,-41.0,0
4659,-11.0,-356.0,-53.0,0
4660,-9.0,-340.0,-63.0,0
4661,-9.0,-309.0,-69.0,0
4662,0.0,-299.0,-76.0,0
4663,3.0,-274.0,-74.0,0
4664,9.0,-252.0,-73.0,0
4665,16.0,-234.0,-76.0,0
4666,24.0,-225.0,-66.0,0
4667,34.0,-222.0,-61.0,0
4668,43.0,-214.0,-49.0,0
4669,48.0,-211.0,-43.0,0
4670,56.0,-213.0,-33.0,0
4671,58.0,-214.0,-28.0,0
4672,56.0,-228.0,-19.0,0
4673,54.0,-239.0,-14.0,0
4674,47.0,-258.0,-5.0,0
4675,41.0,-279.0,3.0,0
4676,37.0,-300.0,5.0,0
4677,32.0,-313.0,8.0,0
4678,21.0,-319.0,9.0,0
4679,15.0,-325.0,9.0,0
4680,6.0,-326.0,10.0,0
4681,-4.0,-320.0,1.0,0
4682,-18.0,-310.0,-1.0,0
4683,-28.0,-301.0,0.0,0
4684,-41.0,-288.0,-3.0,0
4685,-56.0,-279.0,3.0,0
4686,-69.0,-269.0,1.0,0
4687,-80.0,-264.0,3.0,0
4688,-84.0,-262.0,3.0,0
4689,-83.0,-260.0,4.0,0
4690,-88.0,-258.0,6.0,0
4691,-86.0,-255.0,4.0,0
4692,-84.0,-247.0,3.0,0
4693,-74.0,-242.0,5.0,0
4694,-62.0,-239.0,2.0,0
4695,-55.0,-228.0,-2.0,0
4696,-48.0,-221.0,1.0,0
4697,-38.0,-216.0,3.0,0
4698,-31.0,-216.0,8.0,0
4699,-20.0,-209.0,12.0,0
4700,-12.0,-209.0,10.0,0
4701,-8.0,-209.0,15.0,0
4702,0.0,-208.0,11.0,0
4703,2.0,-206.0,18.0,0
4704,3.0,-204.0,21.0,0
4705,7.0,-205.0,25.0,0
4706,12.0,-207.0,25.0,0
4707,17.0,-211.0,28.0,0
4708,21.0,-216.0,34.0,0
4709,23.0,-222.0,33.0,0
4710,31.0,-231.0,38.0,0
4711,33.0,-239.0,40.0,0
4712,36.0,-245.0,41.0,0
4713,37.0,-246.0,44.0,0
4714,38.0,-252.0,45.0,0
4715,41.0,-252.0,39.0,0
4716,37.0,-258.0,43.0,0
4717,34.0,-255.0,42.0,0
4718,33.0,-257.0,36.0,0
4719,30.0,-255.0,39.0,0
4720,28.0,-251.0,36.0,0
4721,25.0,-250.0,42.0,0
4722,22.0,-244.0,44.0,0
4723,19.0,-237.0,48.0,0
4724,18.0,-225.0,53.0,0
4725,20.0,-222.0,55.0,0
4726,24.0,-210.0,61.0,0
4727,19.0,-208.0,60.0,0
4728,23.0,-206.0,65.0,0
4729,24.0,-203.0,68.0,0
4730,22.0,-200.0,75.0,0
4731,24.0,-200.0,77.0,0
4732,19.0,-203.0,80.0,0
4733,19.0,-206.0,86.0,0
4734,13.0,-216.0,94.0,0
4735,12.0,-225.0,101.0,0
4736,5.0,-236.0,110.0,0
4737,0.0,-244.0,114.0,0
4738,0.0,-257.0,115.0,0
4739,-7.0,-260.0,114.0,0
4740,1.0,-271.0,107.0,0
4741,0.0,-274.0,94.0,0
4742,2.0,-278.0,78.0,0
4743,0.0,-279.0,62.0,0
4744,-1.0,-274.0,43.0,0
4745,2.0,-272.0,35.0,0
4746,3.0,-261.0,24.0,0
4747,14.0,-257.0,20.0,0
4748,26.0,-246.0,16.0,0
4749,35.0,-249.0,0.0,0
4750,55.0,-266.0,-10.0,0
4751,63.0,-249.0,-2.0,0
4752,81.0,-254.0,4.0,0
4753,109.0,-274.0,14.0,0
4754,129.0,-299.0,37.0,0
4755,133.0,-314.0,76.0,0
4756,133.0,-319.0,105.0,0
4757,128.0,-317.0,127.0,0
4758,114.0,-308.0,129.0,0
4759,100.0,-300.0,122.0,0
4760,87.0,-291.0,108.0,0
4761,72.0,-293.0,96.0,0
4762,58.0,-297.0,76.0,0
4763,44.0,-315.0,64.0,0
4764,30.0,-329.0,55.0,0
4765,16.0,-347.0,49.0,0
4766,4.0,-371.0,50.0,0
4767,0.0,-381.0,48.0,0
4768,1.0,-384.0,56.0,0
4769,11.0,-385.0,52.0,0
4770,31.0,-380.0,52.0,0
4771,53.0,-378.0,43.0,0
4772,80.0,-377.0,40.0,0
4773,96.0,-372.0,33.0,0
4774,109.0,-371.0,20.0,0
4775,94.0,-340.0,19.0,0
4776,103.0,-327.0,10.0,0
4777,117.0,-328.0,-13.0,0
4778,115.0,-317.0,-30.0,0
4779,113.0,-307.0,-46.0,0
4780,114.0,-298.0,-59.0,0
4781,112.0,-289.0,-61.0,0
4782,98.0,-277.0,-60.0,0
4783,85.0,-260.0,-62.0,0
4784,62.0,-245.0,-57.0,0
4785,38.0,-230.0,-52.0,0
4786,17.0,-216.0,-46.0,0
4787,1.0,-204.0,-48.0,0
4788,-20.0,-197.0,-47.0,0
4789,-36.0,-194.0,-49.0,0
4790,-56.0,-200.0,-40.0,0
4791,-68.0,-202.0,-33.0,0
4792,-80.0,-205.0,-26.0,0
4793,-86.0,-223.0,-22.0,0
4794,-82.0,-239.0,-14.0,0
4795,-77.0,-254.0,-13.0,0
4796,-67.0,-270.0,-10.0,0
4797,-54.0,-291.0,-9.0,0
4798,-41.0,-303.0,-3.0,0
4799,-37.0,-309.0,-2.0,0
4800,-27.0,-312.0,1.0,0
4801,-16.0,-309.0,1.0,0
4802,-1.0,-304.0,-4.0,0
4803,17.0,-298.0,-5.0,0
4804,33.0,-288.0,-4.0,0
4805,40.0,-269.0,-10.0,0
4806,50.0,-261.0,-10.0,0
4807,60.0,-253.0,-14.0,0
4808,65.0,-244.0,-17.0,0
4809,70.0,-242.0,-16.0,0
4810,77.0,-235.0,-9.0,0
4811,72.0,-232.0,-3.0,0
4812,62.0,-227.0,2.0,0
4813,55.0,-222.0,-1.0,0
4814,42.0,-222.0,1.0,0
4815,31.0,-227.0,2.0,0
4816,27.0,-236.0,5.0,0
4817,12.0,-235.0,8.0,0
4818,15.0,-239.0,11.0,0
4819,12.0,-241.0,12.0,0
4820,11.0,-239.0,11.0,0
4821,3.0,-238.0,18.0,0
4822,0.0,-227.0,19.0,0
4823,-5.0,-226.0,19.0,0
4824,-8.0,-219.0,19.0,0
4825,-11.0,-210.0,18.0,0
4826,-10.0,-206.0,20.0,0
4827,-5.0,-200.0,19.0,0
4828,-5.0,-197.0,18.0,0
4829,-8.0,-197.0,16.0,0
4830,-7.0,-197.0,18.0,0
4831,-10.0,-202.0,19.0,0
4832,-14.0,-203.0,20.0,0
4833,-15.0,-211.0,23.0,0
4834,-15.0,-220.0,25.0,0
4835,-18.0,-229.0,27.0,0
4836,-21.0,-240.0,35.0,0
4837,-21.0,-245.0,37.0,0
4838,-21.0,-249.0,42.0,0
4839,-21.0,-255.0,39.0,0
4840,-15.0,-256.0,46.0,0
4841,-15.0,-254.0,45.0,0
4842,-13.0,-255.0,40.0,0
4843,-11.0,-247.0,34.0,0
4844,-3.0,-244.0,33.0,0
4845,-3.0,-235.0,26.0,0
4846,-7.0,-227.0,31.0,0
4847,-14.0,-220.0,39.0,0
4848,-18.0,-214.0,44.0,0
4849,-24.0,-211.0,56.0,0
4850,-30.0,-211.0,66.0,0
4851,-37.0,-217.0,67.0,0
4852,-36.0,-223.0,72.0,0
4853,-36.0,-229.0,79.0,0
4854,-35.0,-239.0,83.0,0
4855,-34.0,-252.0,86.0,0
4856,-30.0,-257.0,88.0,0
4857,-27.0,-268.0,87.0,0
4858,-17.0,-281.0,82.0,0
4859,-19.0,-286.0,77.0,0
4860,-3.0,-296.0,66.0,0
4861,1.0,-302.0,58.0,0
4862,8.0,-300.0,57.0,0
4863,6.0,-287.0,50.0,0
4864,7.0,-283.0,42.0,0
4865,13.0,-266.0,34.0,0
4866,18.0,-266.0,38.0,0
4867,15.0,-261.0,45.0,0
4868,4.0,-259.0,50.0,0
4869,-13.0,-259.0,52.0,0
4870,-32.0,-252.0,51.0,0
4871,-52.0,-251.0,48.0,0
4872,-72.0,-255.0,44.0,0
4873,-96.0,-237.0,44.0,0
4874,-100.0,-256.0,38.0,0
4875,-118.0,-264.0,56.0,0
4876,-129.0,-270.0,69.0,0
4877,-131.0,-277.0,81.0,0
4878,-133.0,-275.0,85.0,0
4879,-127.0,-278.0,90.0,0
4880,-129.0,-273.0,94.0,0
4881,-123.0,-273.0,88.0,0
4882,-119.0,-270.0,74.0,0
4883,-112.0,-278.0,59.0,0
4884,-105.0,-288.0,52.0,0
4885,-102.0,-298.0,49.0,0
4886,-86.0,-319.0,38.0,0
4887,-65.0,-341.0,34.0,0
4888,-41.0,-361.0,33.0,0
4889,-17.0,-376.0,29.0,0
4890,10.0,-388.0,23.0,0
4891,26.0,-390.0,16.0,0
4892,29.0,-389.0,18.0,0
4893,11.0,-397.0,4.0,0
4894,-2.0,-406.0,0.0,0
4895,-10.0,-414.0,-9.0,0
4896,-8.0,-418.0,-19.0,0
4897,-9.0,-416.0,-25.0,0
4898,-17.0,-403.0,-39.0,0
4899,-30.0,-380.0,-46.0,0
4900,-32.0,-353.0,-52.0,0
4901,-35.0,-321.0,-55.0,0
4902,-37.0,-295.0,-55.0,0
4903,-33.0,-264.0,-61.0,0
4904,-32.0,-236.0,-65.0,0
4905,-24.0,-211.0,-63.0,0
4906,-15.0,-191.0,-66.0,0
4907,0.0,-179.0,-65.0,0
4908,10.0,-174.0,-58.0,0
4909,23.0,-176.0,-55.0,0
4910,27.0,-180.0,-48.0,0
4911,45.0,-193.0,-35.0,0
4912,52.0,-205.0,-24.0,0
4913,54.0,-222.0,-17.0,0
4914,61.0,-240.0,-13.0,0
4915,60.0,-257.0,-2.0,0
4916,52.0,-276.0,5.0,0
4917,47.0,-289.0,8.0,0
4918,35.0,-297.0,10.0,0
4919,29.0,-305.0,3.0,0
4920,17.0,-301.0,2.0,0
4921,7.0,-299.0,4.0,0
4922,-7.0,-295.0,3.0,0
4923,-21.0,-285.0,5.0,0
4924,-32.0,-279.0,6.0,0
4925,-46.0,-277.0,8.0,0
4926,-56.0,-273.0,14.0,0
4927,-63.0,-274.0,16.0,0
4928,-61.0,-276.0,17.0,0
4929,-62.0,-278.0,22.0,0
4930,-62.0,-274.0,18.0,0
4931,-56.0,-275.0,18.0,0
4932,-51.0,-267.0,11.0,0
4933,-48.0,-261.0,9.0,0
4934,-42.0,-256.0,10.0,0
4935,-34.0,-251.0,7.0,0
4936,-27.0,-244.0,13.0,0
4937,-22.0,-243.0,15.0,0
4938,-15.0,-239.0,16.0,0
4939,-10.0,-232.0,11.0,0
4940,-3.0,-229.0,16.0,0
4941,1.0,-224.0,17.0,0
4942,5.0,-226.0,15.0,0
4943,7.0,-223.0,17.0,0
4944,10.0,-221.0,18.0,0
4945,14.0,-222.0,20.0,0
4946,17.0,-220.0,23.0,0
4947,14.0,-221.0,25.0,0
4948,20.0,-223.0,28.0,0
4949,21.0,-221.0,28.0,0
4950,32.0,-229.0,30.0,0
4951,35.0,-228.0,27.0,0
4952,39.0,-229.0,31.0,0
4953,43.0,-232.0,31.0,0
4954,47.0,-234.0,29.0,0
4955,53.0,-238.0,28.0,0
4956,50.0,-239.0,35.0,0
4957,51.0,-242.0,32.0,0
4958,53.0,-242.0,32.0,0
4959,51.0,-240.0,37.0,0
4960,48.0,-239.0,35.0,0
4961,43.0,-239.0,40.0,0
4962,40.0,-237.0,41.0,0
4963,33.0,-239.0,45.0,0
4964,28.0,-230.0,40.0,0
4965,25.0,-223.0,39.0,0
