,accelerometer_x,accelerometer_y,accelerometer_z,fall
0,21.0,-254.0,-109.0,0
1,19.0,-255.0,-107.0,0
2,20.0,-253.0,-106.0,0
3,22.0,-255.0,-106.0,0
4,21.0,-256.0,-105.0,0
5,20.0,-255.0,-105.0,0
6,16.0,-253.0,-110.0,0
7,17.0,-255.0,-103.0,0
8,17.0,-256.0,-103.0,0
9,20.0,-254.0,-106.0,0
10,15.0,-253.0,-106.0,0
11,17.0,-254.0,-105.0,0
12,16.0,-251.0,-105.0,0
13,14.0,-253.0,-105.0,0
14,16.0,-255.0,-104.0,0
15,16.0,-255.0,-104.0,0
16,17.0,-255.0,-106.0,0
17,17.0,-253.0,-107.0,0
18,17.0,-252.0,-104.0,0
19,17.0,-252.0,-103.0,0
20,17.0,-252.0,-101.0,0
21,17.0,-253.0,-102.0,0
22,17.0,-255.0,-98.0,0
23,19.0,-255.0,-106.0,0
24,19.0,-255.0,-103.0,0
25,16.0,-252.0,-100.0,0
26,18.0,-253.0,-100.0,0
27,18.0,-254.0,-103.0,0
28,14.0,-252.0,-102.0,0
29,19.0,-256.0,-103.0,0
30,18.0,-251.0,-103.0,0
31,18.0,-253.0,-104.0,0
32,19.0,-254.0,-104.0,0
33,21.0,-252.0,-103.0,0
34,19.0,-252.0,-101.0,0
35,18.0,-254.0,-100.0,0
36,21.0,-255.0,-102.0,0
37,19.0,-255.0,-102.0,0
38,23.0,-255.0,-101.0,0
39,23.0,-256.0,-105.0,0
40,23.0,-255.0,-104.0,0
41,21.0,-253.0,-97.0,0
42,21.0,-255.0,-98.0,0
43,21.0,-252.0,-102.0,0
44,22.0,-252.0,-102.0,0
45,21.0,-253.0,-99.0,0
46,22.0,-253.0,-98.0,0
47,21.0,-253.0,-102.0,0
48,21.0,-254.0,-104.0,0
49,21.0,-252.0,-100.0,0
50,22.0,-253.0,-100.0,0
51,22.0,-254.0,-96.0,0
52,22.0,-253.0,-102.0,0
53,22.0,-255.0,-105.0,0
54,22.0,-255.0,-102.0,0
55,20.0,-251.0,-101.0,0
56,20.0,-252.0,-101.0,0
57,22.0,-252.0,-98.0,0
58,25.0,-254.0,-105.0,0
59,23.0,-253.0,-99.0,0
60,24.0,-254.0,-100.0,0
61,21.0,-254.0,-102.0,0
62,24.0,-255.0,-97.0,0
63,24.0,-254.0,-100.0,0
64,26.0,-254.0,-103.0,0
65,26.0,-253.0,-101.0,0
66,26.0,-255.0,-96.0,0
67,26.0,-254.0,-102.0,0
68,25.0,-255.0,-105.0,0
69,24.0,-254.0,-104.0,0
70,21.0,-256.0,-100.0,0
71,22.0,-254.0,-102.0,0
72,24.0,-256.0,-100.0,0
73,24.0,-257.0,-104.0,0
74,25.0,-255.0,-98.0,0
75,22.0,-251.0,-99.0,0
76,24.0,-255.0,-101.0,0
77,23.0,-253.0,-102.0,0
78,25.0,-251.0,-103.0,0
79,26.0,-249.0,-100.0,0
80,24.0,-251.0,-99.0,0
81,23.0,-250.0,-98.0,0
82,24.0,-251.0,-101.0,0
83,24.0,-253.0,-102.0,0
84,22.0,-253.0,-104.0,0
85,26.0,-254.0,-103.0,0
86,26.0,-255.0,-103.0,0
87,21.0,-253.0,-104.0,0
88,22.0,-252.0,-100.0,0
89,22.0,-254.0,-100.0,0
90,25.0,-253.0,-99.0,0
91,23.0,-255.0,-102.0,0
92,34.0,-245.0,-109.0,0
93,29.0,-245.0,-100.0,0
94,31.0,-253.0,-106.0,0
95,20.0,-252.0,-110.0,0
96,31.0,-249.0,-101.0,0
97,25.0,-237.0,-101.0,0
98,22.0,-254.0,-104.0,0
99,13.0,-248.0,-108.0,0
100,19.0,-252.0,-103.0,0
101,14.0,-249.0,-110.0,0
102,16.0,-254.0,-107.0,0
103,13.0,-255.0,-107.0,0
104,14.0,-258.0,-104.0,0
105,11.0,-259.0,-103.0,0
106,13.0,-261.0,-104.0,0
107,11.0,-262.0,-103.0,0
108,9.0,-260.0,-109.0,0
109,12.0,-261.0,-103.0,0
110,17.0,-260.0,-99.0,0
111,14.0,-257.0,-98.0,0
112,16.0,-256.0,-94.0,0
113,18.0,-255.0,-94.0,0
114,20.0,-253.0,-96.0,0
115,18.0,-248.0,-92.0,0
116,20.0,-247.0,-94.0,0
117,17.0,-244.0,-94.0,0
118,15.0,-242.0,-95.0,0
119,14.0,-241.0,-90.0,0
120,12.0,-238.0,-89.0,0
121,12.0,-235.0,-89.0,0
122,8.0,-234.0,-92.0,0
123,7.0,-236.0,-88.0,0
124,4.0,-240.0,-87.0,0
125,1.0,-245.0,-89.0,0
126,0.0,-250.0,-86.0,0
127,-3.0,-256.0,-90.0,0
128,-9.0,-262.0,-96.0,0
129,-8.0,-271.0,-87.0,0
130,-7.0,-276.0,-91.0,0
131,-10.0,-276.0,-90.0,0
132,-7.0,-276.0,-87.0,0
133,-4.0,-274.0,-90.0,0
134,-2.0,-272.0,-89.0,0
135,-2.0,-269.0,-88.0,0
136,0.0,-265.0,-88.0,0
137,0.0,-263.0,-91.0,0
138,1.0,-256.0,-90.0,0
139,2.0,-254.0,-92.0,0
140,7.0,-253.0,-90.0,0
141,11.0,-247.0,-90.0,0
142,15.0,-244.0,-86.0,0
143,18.0,-241.0,-87.0,0
144,22.0,-245.0,-86.0,0
145,25.0,-247.0,-84.0,0
146,27.0,-250.0,-82.0,0
147,31.0,-253.0,-86.0,0
148,27.0,-256.0,-88.0,0
149,24.0,-257.0,-94.0,0
150,24.0,-261.0,-93.0,0
151,15.0,-257.0,-97.0,0
152,9.0,-258.0,-98.0,0
153,9.0,-262.0,-98.0,0
154,3.0,-261.0,-101.0,0
155,-2.0,-257.0,-95.0,0
156,-10.0,-262.0,-86.0,0
157,-11.0,-262.0,-93.0,0
158,-16.0,-257.0,-89.0,0
159,-18.0,-256.0,-88.0,0
160,-23.0,-254.0,-88.0,0
161,-23.0,-255.0,-88.0,0
162,-23.0,-253.0,-86.0,0
163,-25.0,-248.0,-85.0,0
164,-25.0,-246.0,-84.0,0
165,-24.0,-249.0,-79.0,0
166,-22.0,-247.0,-82.0,0
167,-20.0,-243.0,-81.0,0
168,-21.0,-242.0,-78.0,0
169,-15.0,-247.0,-79.0,0
170,-4.0,-248.0,-78.0,0
171,0.0,-249.0,-74.0,0
172,0.0,-250.0,-74.0,0
173,1.0,-251.0,-77.0,0
174,6.0,-252.0,-72.0,0
175,3.0,-249.0,-77.0,0
176,8.0,-250.0,-72.0,0
177,8.0,-250.0,-76.0,0
178,8.0,-253.0,-76.0,0
179,13.0,-250.0,-73.0,0
180,10.0,-251.0,-69.0,0
181,11.0,-250.0,-70.0,0
182,8.0,-251.0,-69.0,0
183,6.0,-252.0,-67.0,0
184,9.0,-251.0,-72.0,0
185,4.0,-250.0,-63.0,0
186,1.0,-248.0,-66.0,0
187,0.0,-249.0,-69.0,0
188,-1.0,-248.0,-71.0,0
189,0.0,-248.0,-71.0,0
190,-2.0,-247.0,-69.0,0
191,1.0,-253.0,-76.0,0
192,0.0,-250.0,-71.0,0
193,1.0,-253.0,-70.0,0
194,0.0,-255.0,-69.0,0
195,-3.0,-256.0,-69.0,0
196,-3.0,-258.0,-66.0,0
197,-4.0,-259.0,-72.0,0
198,-3.0,-262.0,-70.0,0
199,-4.0,-265.0,-70.0,0
200,0.0,-269.0,-69.0,0
201,0.0,-271.0,-71.0,0
202,0.0,-275.0,-72.0,0
203,-1.0,-275.0,-74.0,0
204,2.0,-276.0,-69.0,0
205,0.0,-278.0,-69.0,0
206,0.0,-283.0,-65.0,0
207,3.0,-284.0,-63.0,0
208,-1.0,-289.0,-59.0,0
209,-1.0,-294.0,-56.0,0
210,-7.0,-296.0,-48.0,0
211,-9.0,-300.0,-45.0,0
212,-13.0,-303.0,-41.0,0
213,-15.0,-304.0,-39.0,0
214,-11.0,-312.0,-41.0,0
215,-16.0,-311.0,-37.0,0
216,-21.0,-305.0,-44.0,0
217,-24.0,-305.0,-54.0,0
218,-24.0,-307.0,-67.0,0
219,-30.0,-304.0,-81.0,0
220,-37.0,-307.0,-98.0,0
221,-43.0,-317.0,-109.0,0
222,-52.0,-323.0,-117.0,0
223,-61.0,-337.0,-119.0,0
224,-65.0,-348.0,-118.0,0
225,-68.0,-358.0,-116.0,0
226,-66.0,-369.0,-105.0,0
227,-64.0,-371.0,-91.0,0
228,-57.0,-368.0,-90.0,0
229,-42.0,-356.0,-92.0,0
230,-25.0,-341.0,-102.0,0
231,-1.0,-327.0,-115.0,0
232,11.0,-309.0,-129.0,0
233,32.0,-295.0,-130.0,0
234,35.0,-283.0,-137.0,0
235,39.0,-271.0,-139.0,0
236,40.0,-265.0,-148.0,0
237,48.0,-259.0,-152.0,0
238,49.0,-250.0,-159.0,0
239,49.0,-242.0,-161.0,0
240,48.0,-229.0,-161.0,0
241,46.0,-222.0,-164.0,0
242,47.0,-214.0,-161.0,0
243,38.0,-203.0,-155.0,0
244,32.0,-195.0,-144.0,0
245,30.0,-190.0,-138.0,0
246,26.0,-184.0,-132.0,0
247,20.0,-188.0,-129.0,0
248,16.0,-199.0,-128.0,0
249,11.0,-206.0,-123.0,0
250,9.0,-209.0,-123.0,0
251,8.0,-216.0,-123.0,0
252,8.0,-224.0,-122.0,0
253,6.0,-226.0,-121.0,0
254,-2.0,-227.0,-115.0,0
255,1.0,-238.0,-119.0,0
256,0.0,-245.0,-114.0,0
257,1.0,-252.0,-110.0,0
258,-3.0,-255.0,-108.0,0
259,0.0,-261.0,-107.0,0
260,6.0,-260.0,-108.0,0
261,7.0,-259.0,-105.0,0
262,18.0,-260.0,-107.0,0
263,21.0,-252.0,-109.0,0
264,23.0,-248.0,-102.0,0
265,26.0,-242.0,-101.0,0
266,37.0,-241.0,-109.0,0
267,38.0,-236.0,-100.0,0
268,42.0,-241.0,-101.0,0
269,39.0,-236.0,-102.0,0
270,40.0,-231.0,-103.0,0
271,41.0,-225.0,-100.0,0
272,34.0,-222.0,-95.0,0
273,29.0,-216.0,-94.0,0
274,21.0,-209.0,-88.0,0
275,14.0,-202.0,-91.0,0
276,14.0,-197.0,-95.0,0
277,14.0,-193.0,-98.0,0
278,9.0,-196.0,-92.0,0
279,0.0,-196.0,-92.0,0
280,0.0,-198.0,-88.0,0
281,0.0,-197.0,-90.0,0
282,0.0,-205.0,-87.0,0
283,0.0,-210.0,-91.0,0
284,2.0,-213.0,-87.0,0
285,6.0,-219.0,-86.0,0
286,15.0,-229.0,-83.0,0
287,21.0,-236.0,-80.0,0
288,20.0,-238.0,-75.0,0
289,24.0,-240.0,-73.0,0
290,31.0,-245.0,-72.0,0
291,39.0,-243.0,-71.0,0
292,42.0,-242.0,-69.0,0
293,42.0,-240.0,-65.0,0
294,46.0,-236.0,-66.0,0
295,43.0,-233.0,-67.0,0
296,46.0,-236.0,-65.0,0
297,46.0,-234.0,-65.0,0
298,44.0,-232.0,-68.0,0
299,45.0,-231.0,-66.0,0
300,46.0,-233.0,-64.0,0
301,45.0,-228.0,-66.0,0
302,43.0,-230.0,-64.0,0
303,41.0,-231.0,-64.0,0
304,40.0,-231.0,-65.0,0
305,43.0,-234.0,-65.0,0
306,37.0,-233.0,-63.0,0
307,34.0,-232.0,-61.0,0
308,31.0,-235.0,-58.0,0
309,34.0,-238.0,-54.0,0
310,30.0,-242.0,-61.0,0
311,31.0,-250.0,-60.0,0
312,31.0,-254.0,-60.0,0
313,30.0,-262.0,-58.0,0
314,31.0,-266.0,-63.0,0
315,31.0,-276.0,-57.0,0
316,35.0,-279.0,-60.0,0
317,39.0,-287.0,-64.0,0
318,44.0,-289.0,-63.0,0
319,48.0,-289.0,-74.0,0
320,56.0,-295.0,-94.0,0
321,59.0,-293.0,-101.0,0
322,52.0,-300.0,-100.0,0
323,48.0,-304.0,-97.0,0
324,45.0,-316.0,-90.0,0
325,46.0,-322.0,-70.0,0
326,46.0,-326.0,-65.0,0
327,49.0,-335.0,-62.0,0
328,56.0,-336.0,-60.0,0
329,60.0,-339.0,-56.0,0
330,63.0,-336.0,-55.0,0
331,70.0,-335.0,-48.0,0
332,68.0,-334.0,-46.0,0
333,65.0,-324.0,-30.0,0
334,67.0,-319.0,-26.0,0
335,56.0,-312.0,-18.0,0
336,49.0,-300.0,-18.0,0
337,37.0,-293.0,-12.0,0
338,26.0,-289.0,-23.0,0
339,15.0,-296.0,-49.0,0
340,-8.0,-299.0,-72.0,0
341,-20.0,-308.0,-94.0,0
342,-14.0,-317.0,-106.0,0
343,4.0,-338.0,-101.0,0
344,14.0,-357.0,-70.0,0
345,33.0,-371.0,-38.0,0
346,52.0,-358.0,-26.0,0
347,68.0,-340.0,-38.0,0
348,83.0,-313.0,-60.0,0
349,86.0,-287.0,-83.0,0
350,86.0,-273.0,-108.0,0
351,72.0,-258.0,-127.0,0
352,69.0,-247.0,-157.0,0
353,70.0,-229.0,-182.0,0
354,70.0,-217.0,-194.0,0
355,62.0,-219.0,-195.0,0
356,54.0,-232.0,-184.0,0
357,47.0,-243.0,-175.0,0
358,32.0,-255.0,-162.0,0
359,7.0,-258.0,-160.0,0
360,-18.0,-258.0,-157.0,0
361,-44.0,-254.0,-153.0,0
362,-62.0,-252.0,-154.0,0
363,-71.0,-245.0,-156.0,0
364,-74.0,-231.0,-155.0,0
365,-69.0,-213.0,-159.0,0
366,-64.0,-209.0,-162.0,0
367,-51.0,-213.0,-151.0,0
368,-25.0,-221.0,-142.0,0
369,0.0,-230.0,-128.0,0
370,21.0,-237.0,-121.0,0
371,44.0,-245.0,-119.0,0
372,59.0,-249.0,-114.0,0
373,78.0,-253.0,-113.0,0
374,91.0,-250.0,-111.0,0
375,110.0,-250.0,-116.0,0
376,116.0,-249.0,-118.0,0
377,114.0,-252.0,-112.0,0
378,109.0,-247.0,-113.0,0
379,103.0,-243.0,-112.0,0
380,85.0,-233.0,-110.0,0
381,70.0,-227.0,-112.0,0
382,61.0,-216.0,-113.0,0
383,51.0,-209.0,-108.0,0
384,41.0,-204.0,-105.0,0
385,27.0,-200.0,-100.0,0
386,24.0,-198.0,-96.0,0
387,14.0,-191.0,-98.0,0
388,8.0,-192.0,-94.0,0
389,3.0,-194.0,-96.0,0
390,-3.0,-200.0,-95.0,0
391,-9.0,-203.0,-91.0,0
392,-4.0,-204.0,-97.0,0
393,-3.0,-205.0,-93.0,0
394,-5.0,-206.0,-98.0,0
395,-3.0,-209.0,-94.0,0
396,-2.0,-208.0,-91.0,0
397,6.0,-212.0,-89.0,0
398,15.0,-211.0,-92.0,0
399,17.0,-210.0,-84.0,0
400,21.0,-212.0,-83.0,0
401,20.0,-216.0,-84.0,0
402,14.0,-216.0,-79.0,0
403,15.0,-223.0,-84.0,0
404,9.0,-227.0,-79.0,0
405,2.0,-233.0,-81.0,0
406,0.0,-239.0,-82.0,0
407,1.0,-244.0,-80.0,0
408,0.0,-245.0,-81.0,0
409,-2.0,-247.0,-82.0,0
410,-4.0,-247.0,-79.0,0
411,-3.0,-244.0,-74.0,0
412,-5.0,-244.0,-81.0,0
413,-2.0,-240.0,-75.0,0
414,-3.0,-233.0,-80.0,0
415,-5.0,-230.0,-75.0,0
416,0.0,-225.0,-73.0,0
417,1.0,-221.0,-73.0,0
418,5.0,-223.0,-68.0,0
419,6.0,-222.0,-60.0,0
420,13.0,-226.0,-60.0,0
421,16.0,-228.0,-59.0,0
422,18.0,-232.0,-59.0,0
423,21.0,-236.0,-53.0,0
424,24.0,-242.0,-59.0,0
425,29.0,-252.0,-58.0,0
426,32.0,-259.0,-60.0,0
427,34.0,-268.0,-50.0,0
428,33.0,-279.0,-50.0,0
429,32.0,-286.0,-45.0,0
430,23.0,-295.0,-47.0,0
431,23.0,-301.0,-54.0,0
432,15.0,-296.0,-63.0,0
433,6.0,-292.0,-79.0,0
434,-9.0,-273.0,-113.0,0
435,-8.0,-267.0,-125.0,0
436,-15.0,-265.0,-134.0,0
437,-25.0,-274.0,-140.0,0
438,-30.0,-283.0,-123.0,0
439,-32.0,-284.0,-91.0,0
440,-31.0,-281.0,-69.0,0
441,-39.0,-284.0,-55.0,0
442,-51.0,-288.0,-46.0,0
443,-62.0,-302.0,-35.0,0
444,-58.0,-316.0,-28.0,0
445,-48.0,-324.0,-21.0,0
446,-38.0,-332.0,-12.0,0
447,-26.0,-339.0,2.0,0
448,-15.0,-338.0,5.0,0
449,-10.0,-342.0,11.0,0
450,-3.0,-337.0,11.0,0
451,10.0,-330.0,1.0,0
452,21.0,-325.0,-35.0,0
453,50.0,-321.0,-70.0,0
454,65.0,-323.0,-103.0,0
455,54.0,-334.0,-129.0,0
456,25.0,-350.0,-122.0,0
457,1.0,-382.0,-76.0,0
458,-7.0,-400.0,-41.0,0
459,-18.0,-394.0,-29.0,0
460,-27.0,-363.0,-39.0,0
461,-37.0,-325.0,-59.0,0
462,-38.0,-292.0,-83.0,0
463,-36.0,-262.0,-119.0,0
464,-34.0,-241.0,-146.0,0
465,-30.0,-227.0,-178.0,0
466,-28.0,-222.0,-208.0,0
467,-29.0,-221.0,-218.0,0
468,-26.0,-230.0,-209.0,0
469,-11.0,-236.0,-203.0,0
470,0.0,-245.0,-193.0,0
471,25.0,-254.0,-181.0,0
472,59.0,-256.0,-163.0,0
473,92.0,-252.0,-160.0,0
474,114.0,-245.0,-158.0,0
475,128.0,-237.0,-169.0,0
476,140.0,-228.0,-169.0,0
477,141.0,-219.0,-175.0,0
478,136.0,-217.0,-173.0,0
479,125.0,-231.0,-163.0,0
480,106.0,-246.0,-152.0,0
481,85.0,-253.0,-144.0,0
482,59.0,-262.0,-134.0,0
483,33.0,-275.0,-131.0,0
484,5.0,-280.0,-129.0,0
485,-16.0,-287.0,-129.0,0
486,-38.0,-284.0,-123.0,0
487,-56.0,-279.0,-127.0,0
488,-68.0,-278.0,-119.0,0
489,-77.0,-276.0,-114.0,0
490,-79.0,-272.0,-107.0,0
491,-82.0,-265.0,-102.0,0
492,-79.0,-256.0,-95.0,0
493,-67.0,-242.0,-89.0,0
494,-63.0,-229.0,-101.0,0
495,-43.0,-209.0,-104.0,0
496,-25.0,-203.0,-105.0,0
497,-17.0,-198.0,-101.0,0
498,-2.0,-194.0,-90.0,0
499,1.0,-193.0,-83.0,0
500,10.0,-189.0,-78.0,0
501,28.0,-186.0,-80.0,0
502,36.0,-185.0,-76.0,0
503,47.0,-186.0,-76.0,0
504,49.0,-183.0,-77.0,0
505,47.0,-183.0,-79.0,0
506,43.0,-179.0,-80.0,0
507,55.0,-180.0,-90.0,0
508,54.0,-186.0,-87.0,0
509,55.0,-194.0,-83.0,0
510,52.0,-202.0,-80.0,0
511,49.0,-211.0,-76.0,0
512,42.0,-214.0,-68.0,0
513,36.0,-223.0,-68.0,0
514,27.0,-223.0,-66.0,0
515,43.0,-217.0,-60.0,0
516,30.0,-239.0,-65.0,0
517,27.0,-235.0,-68.0,0
518,33.0,-232.0,-62.0,0
519,36.0,-232.0,-67.0,0
520,30.0,-245.0,-63.0,0
521,38.0,-239.0,-74.0,0
522,38.0,-227.0,-62.0,0
523,18.0,-224.0,-64.0,0
524,37.0,-215.0,-68.0,0
525,45.0,-214.0,-66.0,0
526,39.0,-211.0,-65.0,0
527,42.0,-213.0,-65.0,0
528,41.0,-217.0,-61.0,0
529,41.0,-221.0,-59.0,0
530,35.0,-227.0,-58.0,0
531,37.0,-233.0,-57.0,0
532,33.0,-239.0,-57.0,0
533,28.0,-242.0,-55.0,0
534,25.0,-247.0,-53.0,0
535,18.0,-256.0,-48.0,0
536,18.0,-262.0,-48.0,0
537,6.0,-265.0,-44.0,0
538,11.0,-272.0,-46.0,0
539,10.0,-277.0,-45.0,0
540,12.0,-277.0,-47.0,0
541,9.0,-279.0,-46.0,0
542,19.0,-281.0,-49.0,0
543,26.0,-279.0,-53.0,0
544,32.0,-276.0,-57.0,0
545,44.0,-268.0,-71.0,0
546,54.0,-259.0,-98.0,0
547,64.0,-248.0,-123.0,0
548,64.0,-238.0,-129.0,0
549,60.0,-242.0,-130.0,0
550,60.0,-255.0,-108.0,0
551,62.0,-273.0,-78.0,0
552,67.0,-293.0,-62.0,0
553,80.0,-308.0,-52.0,0
554,97.0,-316.0,-56.0,0
555,114.0,-322.0,-52.0,0
556,123.0,-328.0,-45.0,0
557,131.0,-332.0,-37.0,0
558,126.0,-341.0,-26.0,0
559,114.0,-342.0,-14.0,0
560,94.0,-339.0,-6.0,0
561,71.0,-331.0,-2.0,0
562,48.0,-320.0,-3.0,0
563,29.0,-315.0,-2.0,0
564,25.0,-318.0,-12.0,0
565,-6.0,-326.0,-39.0,0
566,-56.0,-339.0,-48.0,0
567,-62.0,-332.0,-77.0,0
568,-42.0,-323.0,-118.0,0
569,-26.0,-350.0,-107.0,0
570,-12.0,-393.0,-51.0,0
571,6.0,-414.0,-23.0,0
572,39.0,-407.0,-21.0,0
573,67.0,-377.0,-40.0,0
574,92.0,-349.0,-64.0,0
575,108.0,-322.0,-74.0,0
576,107.0,-301.0,-89.0,0
577,98.0,-272.0,-109.0,0
578,95.0,-232.0,-144.0,0
579,107.0,-193.0,-191.0,0
580,112.0,-191.0,-197.0,0
581,110.0,-205.0,-186.0,0
582,107.0,-233.0,-174.0,0
583,98.0,-254.0,-169.0,0
584,81.0,-270.0,-164.0,0
585,57.0,-279.0,-163.0,0
586,22.0,-276.0,-164.0,0
587,-7.0,-270.0,-162.0,0
588,-44.0,-257.0,-170.0,0
589,-69.0,-246.0,-163.0,0
590,-90.0,-229.0,-166.0,0
591,-106.0,-214.0,-162.0,0
592,-113.0,-205.0,-162.0,0
593,-107.0,-204.0,-150.0,0
594,-94.0,-211.0,-136.0,0
595,-85.0,-220.0,-126.0,0
596,-64.0,-227.0,-121.0,0
597,-42.0,-236.0,-119.0,0
598,-19.0,-240.0,-115.0,0
599,2.0,-246.0,-116.0,0
600,31.0,-250.0,-116.0,0
601,50.0,-253.0,-112.0,0
602,68.0,-257.0,-107.0,0
603,81.0,-264.0,-102.0,0
604,90.0,-265.0,-102.0,0
605,92.0,-264.0,-99.0,0
606,95.0,-262.0,-102.0,0
607,90.0,-251.0,-105.0,0
608,91.0,-241.0,-107.0,0
609,83.0,-228.0,-107.0,0
610,72.0,-218.0,-103.0,0
611,64.0,-207.0,-100.0,0
612,52.0,-199.0,-92.0,0
613,37.0,-198.0,-86.0,0
614,30.0,-196.0,-81.0,0
615,23.0,-195.0,-78.0,0
616,10.0,-200.0,-75.0,0
617,5.0,-204.0,-75.0,0
618,-1.0,-208.0,-75.0,0
619,-16.0,-217.0,-75.0,0
620,-19.0,-223.0,-69.0,0
621,-18.0,-221.0,-73.0,0
622,-14.0,-224.0,-69.0,0
623,-18.0,-225.0,-67.0,0
624,-11.0,-227.0,-66.0,0
625,-3.0,-227.0,-68.0,0
626,-1.0,-222.0,-67.0,0
627,1.0,-223.0,-63.0,0
628,3.0,-221.0,-69.0,0
629,0.0,-223.0,-64.0,0
630,6.0,-222.0,-61.0,0
631,3.0,-217.0,-63.0,0
632,3.0,-219.0,-62.0,0
633,0.0,-220.0,-63.0,0
634,1.0,-227.0,-62.0,0
635,-2.0,-228.0,-62.0,0
636,-2.0,-232.0,-60.0,0
637,-1.0,-236.0,-57.0,0
638,-2.0,-237.0,-61.0,0
639,-6.0,-237.0,-61.0,0
640,-2.0,-234.0,-59.0,0
641,-6.0,-229.0,-59.0,0
642,-3.0,-228.0,-58.0,0
643,0.0,-226.0,-57.0,0
644,3.0,-224.0,-54.0,0
645,3.0,-223.0,-52.0,0
646,8.0,-225.0,-43.0,0
647,12.0,-227.0,-47.0,0
648,16.0,-232.0,-42.0,0
649,18.0,-231.0,-43.0,0
650,24.0,-236.0,-48.0,0
651,25.0,-245.0,-46.0,0
652,28.0,-255.0,-50.0,0
653,33.0,-260.0,-45.0,0
654,36.0,-272.0,-42.0,0
655,32.0,-277.0,-37.0,0
656,26.0,-281.0,-35.0,0
657,19.0,-287.0,-32.0,0
658,11.0,-287.0,-39.0,0
659,0.0,-285.0,-56.0,0
660,-7.0,-279.0,-81.0,0
661,-22.0,-269.0,-112.0,0
662,-20.0,-273.0,-128.0,0
663,-30.0,-276.0,-141.0,0
664,-31.0,-282.0,-130.0,0
665,-28.0,-281.0,-100.0,0
666,-26.0,-275.0,-71.0,0
667,-30.0,-275.0,-51.0,0
668,-44.0,-271.0,-37.0,0
669,-58.0,-282.0,-30.0,0
670,-64.0,-300.0,-29.0,0
671,-61.0,-314.0,-21.0,0
672,-52.0,-322.0,-14.0,0
673,-40.0,-322.0,-13.0,0
674,-19.0,-326.0,-2.0,0
675,-12.0,-327.0,6.0,0
676,-5.0,-326.0,5.0,0
677,3.0,-324.0,4.0,0
678,11.0,-327.0,-31.0,0
679,36.0,-328.0,-63.0,0
680,59.0,-336.0,-98.0,0
681,65.0,-345.0,-130.0,0
682,36.0,-365.0,-133.0,0
683,9.0,-388.0,-95.0,0
684,1.0,-404.0,-65.0,0
685,-17.0,-389.0,-37.0,0
686,-24.0,-365.0,-49.0,0
687,-24.0,-335.0,-57.0,0
688,-22.0,-308.0,-68.0,0
689,-22.0,-284.0,-86.0,0
690,-25.0,-257.0,-119.0,0
691,-25.0,-241.0,-151.0,0
692,-24.0,-223.0,-188.0,0
693,-28.0,-208.0,-210.0,0
694,-25.0,-208.0,-212.0,0
695,-18.0,-215.0,-203.0,0
696,-3.0,-225.0,-188.0,0
697,20.0,-235.0,-165.0,0
698,43.0,-231.0,-165.0,0
699,65.0,-232.0,-160.0,0
700,79.0,-225.0,-164.0,0
701,98.0,-213.0,-176.0,0
702,112.0,-203.0,-180.0,0
703,124.0,-200.0,-186.0,0
704,128.0,-198.0,-173.0,0
705,121.0,-215.0,-164.0,0
706,107.0,-239.0,-147.0,0
707,90.0,-260.0,-135.0,0
708,70.0,-279.0,-130.0,0
709,52.0,-288.0,-126.0,0
710,30.0,-298.0,-127.0,0
711,11.0,-303.0,-127.0,0
712,-9.0,-307.0,-125.0,0
713,-25.0,-305.0,-125.0,0
714,-38.0,-300.0,-125.0,0
715,-50.0,-296.0,-125.0,0
716,-62.0,-285.0,-119.0,0
717,-68.0,-281.0,-113.0,0
718,-58.0,-265.0,-107.0,0
719,-45.0,-259.0,-110.0,0
720,-35.0,-248.0,-104.0,0
721,-28.0,-238.0,-108.0,0
722,-18.0,-230.0,-106.0,0
723,-13.0,-221.0,-106.0,0
724,-4.0,-212.0,-105.0,0
725,2.0,-209.0,-103.0,0
726,4.0,-211.0,-97.0,0
727,9.0,-205.0,-92.0,0
728,9.0,-203.0,-93.0,0
729,12.0,-192.0,-92.0,0
730,28.0,-189.0,-89.0,0
731,32.0,-188.0,-85.0,0
732,32.0,-183.0,-85.0,0
733,36.0,-184.0,-80.0,0
734,31.0,-182.0,-76.0,0
735,29.0,-183.0,-74.0,0
736,32.0,-182.0,-74.0,0
737,43.0,-186.0,-78.0,0
738,38.0,-196.0,-73.0,0
739,36.0,-205.0,-72.0,0
740,40.0,-213.0,-68.0,0
741,40.0,-219.0,-70.0,0
742,37.0,-222.0,-68.0,0
743,39.0,-228.0,-66.0,0
744,36.0,-235.0,-66.0,0
745,38.0,-235.0,-71.0,0
746,41.0,-233.0,-72.0,0
747,36.0,-231.0,-73.0,0
748,41.0,-232.0,-71.0,0
749,39.0,-223.0,-72.0,0
750,41.0,-219.0,-68.0,0
751,38.0,-213.0,-71.0,0
752,37.0,-206.0,-65.0,0
753,37.0,-204.0,-68.0,0
754,38.0,-204.0,-67.0,0
755,31.0,-203.0,-62.0,0
756,35.0,-208.0,-61.0,0
757,38.0,-216.0,-58.0,0
758,31.0,-221.0,-53.0,0
759,31.0,-228.0,-53.0,0
760,32.0,-237.0,-54.0,0
761,31.0,-239.0,-50.0,0
762,34.0,-250.0,-54.0,0
763,29.0,-254.0,-48.0,0
764,28.0,-266.0,-51.0,0
765,27.0,-274.0,-52.0,0
766,23.0,-281.0,-54.0,0
767,28.0,-289.0,-60.0,0
768,30.0,-291.0,-62.0,0
769,36.0,-292.0,-72.0,0
770,48.0,-295.0,-76.0,0
771,56.0,-291.0,-88.0,0
772,66.0,-290.0,-95.0,0
773,73.0,-284.0,-116.0,0
774,71.0,-281.0,-123.0,0
775,66.0,-284.0,-118.0,0
776,56.0,-290.0,-108.0,0
777,49.0,-305.0,-89.0,0
778,52.0,-316.0,-68.0,0
779,54.0,-325.0,-55.0,0
780,61.0,-332.0,-53.0,0
781,64.0,-334.0,-52.0,0
782,74.0,-337.0,-57.0,0
783,83.0,-332.0,-49.0,0
784,79.0,-324.0,-45.0,0
785,79.0,-318.0,-34.0,0
786,71.0,-313.0,-27.0,0
787,61.0,-308.0,-21.0,0
788,56.0,-303.0,-22.0,0
789,54.0,-309.0,-52.0,0
790,11.0,-322.0,-73.0,0
791,-25.0,-330.0,-87.0,0
792,-35.0,-327.0,-117.0,0
793,-28.0,-335.0,-154.0,0
794,-25.0,-376.0,-129.0,0
795,-18.0,-418.0,-84.0,0
796,1.0,-437.0,-56.0,0
797,26.0,-424.0,-66.0,0
798,47.0,-389.0,-95.0,0
799,63.0,-357.0,-124.0,0
800,68.0,-332.0,-129.0,0
801,67.0,-302.0,-142.0,0
802,74.0,-271.0,-154.0,0
803,72.0,-238.0,-171.0,0
804,75.0,-207.0,-184.0,0
805,65.0,-189.0,-188.0,0
806,45.0,-177.0,-188.0,0
807,19.0,-172.0,-181.0,0
808,-4.0,-175.0,-182.0,0
809,-35.0,-172.0,-167.0,0
810,-64.0,-174.0,-160.0,0
811,-83.0,-177.0,-155.0,0
812,-100.0,-189.0,-158.0,0
813,-103.0,-197.0,-155.0,0
814,-102.0,-208.0,-151.0,0
815,-97.0,-222.0,-145.0,0
816,-81.0,-238.0,-136.0,0
817,-63.0,-249.0,-129.0,0
818,-38.0,-257.0,-121.0,0
819,-8.0,-267.0,-120.0,0
820,16.0,-272.0,-112.0,0
821,46.0,-278.0,-118.0,0
822,71.0,-282.0,-116.0,0
823,99.0,-288.0,-114.0,0
824,116.0,-286.0,-120.0,0
825,130.0,-284.0,-120.0,0
826,131.0,-282.0,-115.0,0
827,134.0,-281.0,-113.0,0
828,126.0,-275.0,-109.0,0
829,113.0,-263.0,-106.0,0
830,97.0,-253.0,-101.0,0
831,82.0,-237.0,-97.0,0
832,65.0,-221.0,-100.0,0
833,52.0,-206.0,-95.0,0
834,38.0,-192.0,-87.0,0
835,27.0,-184.0,-89.0,0
836,16.0,-179.0,-86.0,0
837,7.0,-172.0,-82.0,0
838,0.0,-173.0,-81.0,0
839,-10.0,-171.0,-74.0,0
840,-15.0,-175.0,-79.0,0
841,-19.0,-182.0,-80.0,0
842,-19.0,-189.0,-81.0,0
843,-20.0,-192.0,-82.0,0
844,-19.0,-200.0,-81.0,0
845,-10.0,-207.0,-80.0,0
846,-1.0,-212.0,-78.0,0
847,0.0,-217.0,-74.0,0
848,6.0,-223.0,-72.0,0
849,11.0,-223.0,-66.0,0
850,8.0,-224.0,-64.0,0
851,9.0,-225.0,-65.0,0
852,18.0,-226.0,-58.0,0
853,17.0,-222.0,-60.0,0
854,16.0,-220.0,-54.0,0
855,13.0,-224.0,-53.0,0
856,8.0,-221.0,-51.0,0
857,4.0,-221.0,-57.0,0
858,7.0,-226.0,-52.0,0
859,2.0,-231.0,-52.0,0
860,1.0,-235.0,-50.0,0
861,0.0,-239.0,-47.0,0
862,0.0,-243.0,-45.0,0
863,1.0,-240.0,-45.0,0
864,8.0,-243.0,-50.0,0
865,10.0,-243.0,-46.0,0
866,16.0,-241.0,-49.0,0
867,21.0,-241.0,-50.0,0
868,28.0,-242.0,-51.0,0
869,31.0,-245.0,-58.0,0
870,32.0,-243.0,-63.0,0
871,30.0,-243.0,-60.0,0
872,28.0,-242.0,-58.0,0
873,22.0,-242.0,-62.0,0
874,16.0,-242.0,-65.0,0
875,15.0,-242.0,-71.0,0
876,13.0,-239.0,-89.0,0
877,9.0,-233.0,-114.0,0
878,12.0,-235.0,-115.0,0
879,11.0,-246.0,-124.0,0
880,2.0,-255.0,-115.0,0
881,0.0,-268.0,-92.0,0
882,-13.0,-282.0,-72.0,0
883,-22.0,-297.0,-63.0,0
884,-33.0,-303.0,-55.0,0
885,-41.0,-324.0,-46.0,0
886,-53.0,-345.0,-43.0,0
887,-58.0,-355.0,-42.0,0
888,-60.0,-355.0,-40.0,0
889,-51.0,-353.0,-33.0,0
890,-48.0,-344.0,-29.0,0
891,-40.0,-337.0,-17.0,0
892,-29.0,-327.0,-14.0,0
893,-19.0,-319.0,-16.0,0
894,-14.0,-311.0,-37.0,0
895,11.0,-307.0,-86.0,0
896,38.0,-312.0,-141.0,0
897,39.0,-332.0,-192.0,0
898,10.0,-364.0,-187.0,0
899,-12.0,-403.0,-141.0,0
900,-23.0,-427.0,-94.0,0
901,-29.0,-413.0,-67.0,0
902,-22.0,-373.0,-78.0,0
903,-21.0,-322.0,-105.0,0
904,-16.0,-282.0,-137.0,0
905,2.0,-241.0,-173.0,0
906,12.0,-204.0,-210.0,0
907,32.0,-189.0,-247.0,0
908,46.0,-177.0,-259.0,0
909,56.0,-180.0,-250.0,0
910,68.0,-199.0,-225.0,0
911,83.0,-230.0,-191.0,0
912,90.0,-263.0,-149.0,0
913,100.0,-293.0,-127.0,0
914,118.0,-320.0,-120.0,0
915,129.0,-335.0,-125.0,0
916,135.0,-336.0,-138.0,0
917,129.0,-328.0,-154.0,0
918,113.0,-317.0,-167.0,0
919,97.0,-305.0,-176.0,0
920,71.0,-299.0,-176.0,0
921,38.0,-299.0,-164.0,0
922,16.0,-292.0,-155.0,0
923,-7.0,-286.0,-132.0,0
924,-26.0,-275.0,-124.0,0
925,-24.0,-274.0,-124.0,0
926,-35.0,-273.0,-123.0,0
927,-29.0,-260.0,-132.0,0
928,-16.0,-249.0,-138.0,0
929,-11.0,-239.0,-145.0,0
930,-3.0,-241.0,-128.0,0
931,1.0,-238.0,-119.0,0
932,8.0,-219.0,-119.0,0
933,21.0,-225.0,-103.0,0
934,23.0,-219.0,-94.0,0
935,28.0,-211.0,-91.0,0
936,38.0,-206.0,-90.0,0
937,41.0,-197.0,-89.0,0
938,33.0,-203.0,-90.0,0
939,46.0,-196.0,-90.0,0
940,37.0,-192.0,-92.0,0
941,32.0,-185.0,-90.0,0
942,34.0,-188.0,-85.0,0
943,29.0,-184.0,-86.0,0
944,28.0,-192.0,-92.0,0
945,13.0,-192.0,-82.0,0
946,28.0,-192.0,-91.0,0
947,29.0,-196.0,-92.0,0
948,28.0,-200.0,-83.0,0
949,28.0,-209.0,-78.0,0
950,40.0,-208.0,-76.0,0
951,38.0,-217.0,-67.0,0
952,36.0,-223.0,-65.0,0
953,39.0,-222.0,-68.0,0
954,35.0,-226.0,-64.0,0
955,38.0,-235.0,-64.0,0
956,30.0,-232.0,-66.0,0
957,24.0,-234.0,-63.0,0
958,28.0,-246.0,-64.0,0
959,24.0,-243.0,-66.0,0
960,30.0,-240.0,-66.0,0
961,28.0,-238.0,-74.0,0
962,34.0,-229.0,-75.0,0
963,36.0,-224.0,-74.0,0
964,38.0,-218.0,-77.0,0
965,46.0,-211.0,-83.0,0
966,48.0,-210.0,-83.0,0
967,48.0,-204.0,-87.0,0
968,47.0,-205.0,-85.0,0
969,45.0,-204.0,-85.0,0
970,45.0,-206.0,-86.0,0
971,40.0,-203.0,-86.0,0
972,40.0,-206.0,-88.0,0
973,38.0,-208.0,-86.0,0
974,36.0,-211.0,-85.0,0
975,34.0,-211.0,-86.0,0
976,35.0,-213.0,-80.0,0
977,35.0,-215.0,-78.0,0
978,38.0,-217.0,-84.0,0
979,33.0,-218.0,-83.0,0
980,35.0,-221.0,-81.0,0
981,44.0,-227.0,-79.0,0
982,46.0,-229.0,-78.0,0
983,49.0,-233.0,-80.0,0
984,49.0,-242.0,-80.0,0
985,47.0,-248.0,-72.0,0
986,50.0,-256.0,-77.0,0
987,53.0,-264.0,-69.0,0
988,53.0,-274.0,-73.0,0
989,50.0,-282.0,-68.0,0
990,46.0,-290.0,-70.0,0
991,43.0,-294.0,-69.0,0
992,42.0,-289.0,-75.0,0
993,36.0,-287.0,-76.0,0
994,32.0,-280.0,-80.0,0
995,34.0,-279.0,-81.0,0
996,33.0,-273.0,-81.0,0
997,32.0,-267.0,-82.0,0
998,35.0,-265.0,-83.0,0
999,35.0,-272.0,-81.0,0
1000,41.0,-278.0,-74.0,0
1001,45.0,-287.0,-71.0,0
1002,48.0,-296.0,-68.0,0
1003,56.0,-307.0,-66.0,0
1004,61.0,-319.0,-62.0,0
1005,63.0,-321.0,-62.0,0
1006,64.0,-327.0,-63.0,0
1007,64.0,-331.0,-69.0,0
1008,64.0,-332.0,-75.0,0
1009,67.0,-331.0,-79.0,0
1010,63.0,-331.0,-79.0,0
1011,62.0,-328.0,-81.0,0
1012,62.0,-327.0,-84.0,0
1013,62.0,-322.0,-85.0,0
1014,67.0,-321.0,-88.0,0
1015,70.0,-321.0,-85.0,0
1016,75.0,-321.0,-87.0,0
1017,82.0,-323.0,-93.0,0
1018,90.0,-326.0,-95.0,0
1019,94.0,-332.0,-100.0,0
1020,97.0,-338.0,-110.0,0
1021,101.0,-345.0,-110.0,0
1022,102.0,-357.0,-110.0,0
1023,96.0,-358.0,-105.0,0
1024,96.0,-368.0,-101.0,0
1025,100.0,-348.0,-104.0,0
1026,116.0,-336.0,-107.0,0
1027,112.0,-325.0,-109.0,0
1028,101.0,-319.0,-109.0,0
1029,92.0,-305.0,-103.0,0
1030,80.0,-294.0,-103.0,0
1031,70.0,-277.0,-100.0,0
1032,63.0,-256.0,-108.0,0
1033,55.0,-243.0,-116.0,0
1034,48.0,-230.0,-122.0,0
1035,33.0,-216.0,-132.0,0
1036,26.0,-210.0,-142.0,0
1037,18.0,-198.0,-147.0,0
1038,12.0,-195.0,-158.0,0
1039,18.0,-193.0,-166.0,0
1040,20.0,-191.0,-173.0,0
1041,29.0,-186.0,-191.0,0
1042,36.0,-176.0,-195.0,0
1043,42.0,-171.0,-208.0,0
1044,41.0,-168.0,-214.0,0
1045,37.0,-161.0,-224.0,0
1046,37.0,-152.0,-222.0,0
1047,35.0,-152.0,-224.0,0
1048,33.0,-153.0,-222.0,0
1049,39.0,-160.0,-227.0,0
1050,42.0,-171.0,-229.0,0
1051,47.0,-186.0,-229.0,0
1052,45.0,-197.0,-232.0,0
1053,45.0,-215.0,-228.0,0
1054,49.0,-233.0,-227.0,0
1055,40.0,-249.0,-223.0,0
1056,41.0,-261.0,-220.0,0
1057,38.0,-274.0,-220.0,0
1058,38.0,-282.0,-225.0,0
1059,40.0,-285.0,-227.0,0
1060,38.0,-284.0,-224.0,0
1061,45.0,-280.0,-222.0,0
1062,43.0,-272.0,-222.0,0
1063,41.0,-262.0,-218.0,0
1064,43.0,-254.0,-215.0,0
1065,41.0,-247.0,-210.0,0
1066,39.0,-236.0,-199.0,0
1067,42.0,-220.0,-194.0,0
1068,43.0,-215.0,-192.0,0
1069,42.0,-207.0,-190.0,0
1070,40.0,-205.0,-181.0,0
1071,34.0,-209.0,-175.0,0
1072,22.0,-216.0,-170.0,0
1073,18.0,-226.0,-166.0,0
1074,16.0,-233.0,-168.0,0
1075,0.0,-242.0,-165.0,0
1076,-4.0,-252.0,-161.0,0
1077,-6.0,-255.0,-164.0,0
1078,-10.0,-257.0,-154.0,0
1079,-5.0,-255.0,-153.0,0
1080,-2.0,-247.0,-155.0,0
1081,-3.0,-242.0,-151.0,0
1082,2.0,-234.0,-152.0,0
1083,7.0,-226.0,-145.0,0
1084,13.0,-218.0,-140.0,0
1085,10.0,-210.0,-140.0,0
1086,8.0,-203.0,-138.0,0
1087,12.0,-194.0,-138.0,0
1088,16.0,-189.0,-135.0,0
1089,19.0,-187.0,-127.0,0
1090,19.0,-186.0,-127.0,0
1091,24.0,-189.0,-126.0,0
1092,25.0,-184.0,-126.0,0
1093,27.0,-182.0,-122.0,0
1094,34.0,-188.0,-121.0,0
1095,26.0,-193.0,-120.0,0
1096,26.0,-197.0,-109.0,0
1097,24.0,-202.0,-111.0,0
1098,22.0,-208.0,-106.0,0
1099,19.0,-213.0,-101.0,0
1100,15.0,-212.0,-99.0,0
1101,7.0,-214.0,-96.0,0
1102,7.0,-221.0,-101.0,0
1103,0.0,-221.0,-95.0,0
1104,0.0,-223.0,-99.0,0
1105,-1.0,-223.0,-97.0,0
1106,-6.0,-216.0,-96.0,0
1107,-5.0,-214.0,-100.0,0
1108,-15.0,-212.0,-96.0,0
1109,-18.0,-207.0,-97.0,0
1110,-21.0,-199.0,-97.0,0
1111,-26.0,-193.0,-96.0,0
1112,-22.0,-190.0,-96.0,0
1113,-20.0,-183.0,-93.0,0
1114,-18.0,-179.0,-96.0,0
1115,-15.0,-174.0,-95.0,0
1116,-15.0,-171.0,-95.0,0
1117,-14.0,-170.0,-101.0,0
1118,-15.0,-162.0,-98.0,0
1119,-12.0,-162.0,-102.0,0
1120,-8.0,-162.0,-106.0,0
1121,0.0,-169.0,-99.0,0
1122,6.0,-175.0,-95.0,0
1123,14.0,-186.0,-93.0,0
1124,18.0,-194.0,-92.0,0
1125,27.0,-206.0,-94.0,0
1126,30.0,-217.0,-84.0,0
1127,35.0,-231.0,-86.0,0
1128,40.0,-247.0,-81.0,0
1129,37.0,-256.0,-77.0,0
1130,38.0,-271.0,-74.0,0
1131,37.0,-278.0,-71.0,0
1132,36.0,-286.0,-72.0,0
1133,35.0,-290.0,-69.0,0
1134,29.0,-285.0,-67.0,0
1135,28.0,-281.0,-63.0,0
1136,18.0,-269.0,-67.0,0
1137,9.0,-257.0,-74.0,0
1138,8.0,-238.0,-78.0,0
1139,0.0,-224.0,-87.0,0
1140,-11.0,-211.0,-83.0,0
1141,-15.0,-207.0,-82.0,0
1142,-12.0,-206.0,-80.0,0
1143,-9.0,-211.0,-82.0,0
1144,-6.0,-216.0,-83.0,0
1145,-10.0,-221.0,-79.0,0
1146,-14.0,-233.0,-80.0,0
1147,-16.0,-254.0,-79.0,0
1148,-18.0,-272.0,-81.0,0
1149,-28.0,-294.0,-80.0,0
1150,-42.0,-318.0,-74.0,0
1151,-51.0,-332.0,-69.0,0
1152,-48.0,-348.0,-67.0,0
1153,-41.0,-352.0,-62.0,0
1154,-39.0,-353.0,-66.0,0
1155,-30.0,-348.0,-68.0,0
1156,-19.0,-344.0,-68.0,0
1157,-9.0,-334.0,-78.0,0
1158,-3.0,-332.0,-81.0,0
1159,-5.0,-331.0,-82.0,0
1160,-12.0,-332.0,-94.0,0
1161,-22.0,-335.0,-104.0,0
1162,-39.0,-344.0,-109.0,0
1163,-46.0,-356.0,-114.0,0
1164,-60.0,-367.0,-131.0,0
1165,-68.0,-377.0,-139.0,0
1166,-75.0,-382.0,-148.0,0
1167,-88.0,-381.0,-150.0,0
1168,-93.0,-380.0,-155.0,0
1169,-96.0,-373.0,-154.0,0
1170,-94.0,-359.0,-155.0,0
1171,-99.0,-340.0,-149.0,0
1172,-99.0,-318.0,-156.0,0
1173,-96.0,-299.0,-160.0,0
1174,-88.0,-280.0,-171.0,0
1175,-80.0,-264.0,-177.0,0
1176,-68.0,-258.0,-186.0,0
1177,-54.0,-257.0,-190.0,0
1178,-39.0,-257.0,-192.0,0
1179,-21.0,-257.0,-192.0,0
1180,-5.0,-258.0,-190.0,0
1181,13.0,-257.0,-193.0,0
1182,43.0,-254.0,-192.0,0
1183,65.0,-247.0,-192.0,0
1184,89.0,-229.0,-188.0,0
1185,109.0,-207.0,-187.0,0
1186,123.0,-192.0,-197.0,0
1187,128.0,-187.0,-196.0,0
1188,124.0,-186.0,-203.0,0
1189,122.0,-183.0,-201.0,0
1190,119.0,-185.0,-198.0,0
1191,116.0,-182.0,-194.0,0
1192,111.0,-184.0,-193.0,0
1193,102.0,-180.0,-190.0,0
1194,93.0,-186.0,-185.0,0
1195,82.0,-197.0,-177.0,0
1196,63.0,-201.0,-178.0,0
1197,44.0,-207.0,-178.0,0
1198,17.0,-217.0,-178.0,0
1199,-10.0,-230.0,-189.0,0
1200,-29.0,-237.0,-188.0,0
1201,-44.0,-255.0,-186.0,0
1202,-49.0,-268.0,-191.0,0
1203,-48.0,-286.0,-189.0,0
1204,-44.0,-294.0,-186.0,0
1205,-37.0,-297.0,-179.0,0
1206,-33.0,-293.0,-173.0,0
1207,-23.0,-290.0,-164.0,0
1208,-16.0,-276.0,-156.0,0
1209,-21.0,-264.0,-155.0,0
1210,-8.0,-250.0,-155.0,0
1211,-6.0,-244.0,-148.0,0
1212,0.0,-230.0,-151.0,0
1213,2.0,-223.0,-148.0,0
1214,4.0,-208.0,-140.0,0
1215,21.0,-206.0,-144.0,0
1216,22.0,-214.0,-131.0,0
1217,21.0,-218.0,-125.0,0
1218,21.0,-227.0,-120.0,0
1219,21.0,-234.0,-113.0,0
1220,23.0,-239.0,-115.0,0
1221,26.0,-246.0,-113.0,0
1222,27.0,-248.0,-111.0,0
1223,15.0,-252.0,-113.0,0
1224,21.0,-255.0,-111.0,0
1225,16.0,-253.0,-110.0,0
1226,14.0,-250.0,-112.0,0
1227,7.0,-245.0,-109.0,0
1228,8.0,-241.0,-105.0,0
1229,7.0,-225.0,-108.0,0
1230,12.0,-221.0,-103.0,0
1231,21.0,-213.0,-99.0,0
1232,26.0,-209.0,-101.0,0
1233,28.0,-209.0,-103.0,0
1234,29.0,-204.0,-98.0,0
1235,33.0,-202.0,-97.0,0
1236,34.0,-199.0,-91.0,0
1237,37.0,-196.0,-93.0,0
1238,28.0,-194.0,-92.0,0
1239,26.0,-196.0,-89.0,0
1240,18.0,-197.0,-87.0,0
1241,15.0,-200.0,-84.0,0
1242,11.0,-201.0,-84.0,0
1243,7.0,-206.0,-84.0,0
1244,6.0,-210.0,-80.0,0
1245,2.0,-206.0,-76.0,0
1246,-4.0,-207.0,-72.0,0
1247,-12.0,-204.0,-74.0,0
1248,-20.0,-202.0,-67.0,0
1249,-25.0,-200.0,-62.0,0
1250,-35.0,-193.0,-60.0,0
1251,-36.0,-186.0,-57.0,0
1252,-39.0,-180.0,-57.0,0
1253,-45.0,-177.0,-54.0,0
1254,-48.0,-172.0,-50.0,0
1255,-46.0,-173.0,-43.0,0
1256,-41.0,-172.0,-42.0,0
1257,-28.0,-175.0,-41.0,0
1258,-21.0,-177.0,-42.0,0
1259,-4.0,-181.0,-42.0,0
1260,5.0,-186.0,-41.0,0
1261,23.0,-191.0,-36.0,0
1262,36.0,-193.0,-35.0,0
1263,52.0,-191.0,-40.0,0
1264,63.0,-189.0,-43.0,0
1265,74.0,-179.0,-55.0,0
1266,82.0,-168.0,-66.0,0
1267,83.0,-159.0,-72.0,0
1268,81.0,-148.0,-73.0,0
1269,69.0,-137.0,-69.0,0
1270,64.0,-129.0,-68.0,0
1271,57.0,-122.0,-66.0,0
1272,49.0,-116.0,-69.0,0
1273,39.0,-111.0,-68.0,0
1274,28.0,-116.0,-68.0,1
1275,12.0,-119.0,-61.0,1
1276,6.0,-120.0,-62.0,1
1277,5.0,-118.0,-65.0,1
1278,8.0,-116.0,-69.0,1
1279,13.0,-108.0,-81.0,1
1280,23.0,-101.0,-92.0,1
1281,28.0,-95.0,-110.0,1
1282,28.0,-92.0,-124.0,1
1283,34.0,-98.0,-148.0,1
1284,48.0,-100.0,-184.0,1
1285,68.0,-89.0,-241.0,1
1286,85.0,-64.0,-305.0,1
1287,95.0,-37.0,-356.0,1
1288,99.0,-4.0,-390.0,1
1289,105.0,32.0,-400.0,1
1290,101.0,58.0,-382.0,1
1291,101.0,79.0,-371.0,1
1292,103.0,88.0,-391.0,1
1293,93.0,100.0,-420.0,1
1294,87.0,108.0,-458.0,1
1295,75.0,113.0,-501.0,1
1296,65.0,104.0,-527.0,1
1297,59.0,88.0,-531.0,1
1298,50.0,48.0,-495.0,1
1299,56.0,-21.0,-440.0,1
1300,66.0,-125.0,-356.0,1
1301,75.0,-245.0,-270.0,1
1302,88.0,-364.0,-218.0,1
1303,91.0,-445.0,-233.0,1
1304,81.0,-480.0,-240.0,1
1305,43.0,-479.0,-232.0,1
1306,-37.0,-450.0,-180.0,1
1307,-107.0,-414.0,-140.0,1
1308,-202.0,-338.0,-90.0,1
1309,-228.0,-254.0,-59.0,1
1310,-219.0,-110.0,-28.0,1
1311,-229.0,21.0,17.0,1
1312,-132.0,147.0,106.0,1
1313,-76.0,258.0,152.0,1
1314,-41.0,357.0,133.0,1
1315,11.0,441.0,98.0,1
1316,47.0,487.0,73.0,1
1317,44.0,493.0,57.0,1
1318,16.0,433.0,49.0,1
1319,-5.0,274.0,60.0,1
1320,-23.0,106.0,51.0,1
1321,-47.0,-69.0,57.0,1
1322,-69.0,-233.0,86.0,1
1323,-86.0,-363.0,98.0,1
1324,-88.0,-441.0,89.0,1
1325,-66.0,-497.0,57.0,1
1326,-54.0,-477.0,57.0,1
1327,-62.0,-422.0,88.0,1
1328,-81.0,-376.0,125.0,1
1329,-86.0,-307.0,120.0,1
1330,-103.0,-231.0,98.0,1
1331,-83.0,-163.0,52.0,1
1332,-92.0,-95.0,10.0,1
1333,-39.0,-34.0,-51.0,1
1334,18.0,-17.0,-115.0,1
1335,40.0,-7.0,-154.0,1
1336,56.0,-10.0,-192.0,1
1337,57.0,-60.0,-196.0,1
1338,33.0,-147.0,-158.0,1
1339,-2.0,-251.0,-173.0,1
1340,-47.0,-306.0,-219.0,1
1341,-103.0,-313.0,-263.0,1
1342,-166.0,-282.0,-250.0,2
1343,-222.0,-265.0,-195.0,2
1344,-270.0,-242.0,-149.0,2
1345,-294.0,-220.0,-96.0,2
1346,-298.0,-201.0,-65.0,2
1347,-303.0,-202.0,-56.0,2
1348,-277.0,-207.0,-52.0,2
1349,-235.0,-214.0,-45.0,2
1350,-197.0,-217.0,-32.0,2
1351,-152.0,-233.0,6.0,2
1352,-105.0,-250.0,45.0,2
1353,-75.0,-263.0,72.0,2
1354,-68.0,-268.0,105.0,2
1355,-129.0,-299.0,143.0,2
1356,-129.0,-319.0,133.0,2
1357,-195.0,-269.0,94.0,2
1358,-163.0,-226.0,63.0,2
1359,-171.0,-250.0,58.0,2
1360,-219.0,-354.0,82.0,2
1361,-304.0,-480.0,134.0,2
1362,-443.0,-572.0,124.0,2
1363,-648.0,-651.0,62.0,2
1364,-882.0,-857.0,143.0,2
1365,-1191.0,-1239.0,488.0,2
1366,-1469.0,-1610.0,663.0,2
1367,-1759.0,-1649.0,414.0,2
1368,-2101.0,-1583.0,172.0,2
1369,-2214.0,-1583.0,-41.0,2
1370,-1643.0,-1538.0,-81.0,2
1371,-922.0,-1253.0,-39.0,2
1372,-293.0,-870.0,-75.0,2
1373,113.0,-510.0,-33.0,2
1374,312.0,-218.0,19.0,2
1375,324.0,-42.0,21.0,2
1376,224.0,65.0,26.0,2
1377,70.0,71.0,76.0,2
1378,-41.0,73.0,118.0,2
1379,-153.0,77.0,117.0,2
1380,-217.0,72.0,107.0,2
1381,-250.0,94.0,75.0,2
1382,-328.0,28.0,43.0,2
1383,-278.0,-125.0,58.0,2
1384,-613.0,-310.0,-72.0,2
1385,-691.0,-603.0,-227.0,2
1386,140.0,-940.0,-26.0,2
1387,828.0,-883.0,27.0,2
1388,825.0,-510.0,4.0,2
1389,709.0,-195.0,75.0,2
1390,540.0,-6.0,89.0,2
1391,340.0,145.0,77.0,2
1392,143.0,256.0,50.0,2
1393,-48.0,270.0,14.0,2
1394,-114.0,179.0,3.0,2
1395,-90.0,54.0,54.0,2
1396,-145.0,-93.0,102.0,2
1397,-183.0,-226.0,180.0,2
1398,-186.0,-264.0,214.0,2
1399,-229.0,-293.0,188.0,2
1400,-213.0,-290.0,187.0,2
1401,-163.0,-268.0,240.0,2
1402,-125.0,-223.0,244.0,2
1403,-75.0,-175.0,184.0,2
1404,-47.0,-121.0,131.0,2
1405,-49.0,-60.0,101.0,1
1406,-86.0,-5.0,87.0,1
1407,-107.0,28.0,86.0,1
1408,-145.0,-31.0,123.0,1
1409,-88.0,-31.0,122.0,1
1410,-63.0,82.0,120.0,1
1411,-144.0,257.0,108.0,1
1412,-182.0,314.0,145.0,1
1413,-185.0,308.0,171.0,1
1414,-151.0,263.0,174.0,1
1415,-110.0,212.0,186.0,1
1416,-88.0,163.0,248.0,1
1417,-54.0,85.0,315.0,1
1418,2.0,-34.0,356.0,1
1419,69.0,-118.0,316.0,1
1420,134.0,-178.0,266.0,1
1421,191.0,-224.0,248.0,1
1422,220.0,-259.0,208.0,1
1423,212.0,-269.0,196.0,1
1424,168.0,-249.0,195.0,1
1425,115.0,-200.0,186.0,1
1426,61.0,-131.0,180.0,1
1427,29.0,-63.0,197.0,1
1428,-3.0,13.0,211.0,1
1429,-9.0,75.0,203.0,1
1430,-17.0,158.0,219.0,1
1431,-12.0,194.0,245.0,1
1432,-28.0,227.0,259.0,1
1433,-22.0,223.0,249.0,1
1434,-16.0,191.0,260.0,1
1435,6.0,145.0,264.0,1
1436,20.0,91.0,253.0,1
1437,18.0,50.0,240.0,1
1438,19.0,5.0,211.0,1
1439,19.0,-27.0,176.0,1
1440,18.0,-42.0,141.0,1
1441,25.0,-40.0,129.0,1
1442,30.0,-27.0,134.0,1
1443,21.0,-2.0,148.0,1
1444,-10.0,23.0,174.0,1
1445,-17.0,48.0,188.0,1
1446,-31.0,80.0,195.0,1
1447,-40.0,108.0,203.0,1
1448,-47.0,132.0,201.0,1
1449,-45.0,138.0,206.0,1
1450,-36.0,135.0,219.0,1
1451,-17.0,129.0,228.0,1
1452,-3.0,122.0,247.0,1
1453,3.0,105.0,260.0,1
1454,6.0,105.0,262.0,1
1455,19.0,97.0,270.0,1
1456,27.0,89.0,271.0,1
1457,28.0,87.0,262.0,1
1458,22.0,74.0,255.0,1
1459,49.0,61.0,253.0,1
1460,65.0,52.0,248.0,1
1461,69.0,51.0,230.0,1
1462,63.0,42.0,213.0,1
1463,58.0,40.0,205.0,1
1464,53.0,32.0,203.0,1
1465,50.0,17.0,206.0,1
1466,45.0,9.0,212.0,1
1467,34.0,2.0,206.0,1
1468,30.0,-3.0,209.0,1
1469,24.0,-8.0,207.0,1
1470,21.0,-13.0,210.0,1
1471,13.0,-11.0,213.0,1
1472,16.0,-15.0,218.0,1
1473,14.0,-21.0,224.0,1
1474,17.0,-26.0,228.0,1
1475,16.0,-26.0,229.0,1
1476,14.0,-25.0,225.0,1
1477,23.0,-29.0,224.0,1
1478,23.0,-27.0,225.0,1
1479,29.0,-32.0,222.0,1
1480,31.0,-40.0,222.0,1
1481,37.0,-52.0,229.0,1
1482,44.0,-64.0,239.0,1
1483,35.0,-79.0,245.0,1
1484,14.0,-72.0,229.0,1
1485,-1.0,-54.0,192.0,1
1486,-8.0,-30.0,160.0,1
1487,-23.0,-12.0,143.0,1
1488,-24.0,-15.0,138.0,1
1489,-24.0,-29.0,130.0,1
1490,-8.0,-58.0,126.0,1
1491,9.0,-85.0,127.0,1
1492,12.0,-110.0,127.0,1
1493,2.0,-131.0,135.0,1
1494,-23.0,-148.0,149.0,1
1495,-48.0,-165.0,165.0,1
1496,-66.0,-177.0,191.0,1
1497,-82.0,-180.0,212.0,1
1498,-77.0,-177.0,242.0,1
1499,-75.0,-167.0,277.0,1
1500,-63.0,-153.0,290.0,1
1501,-40.0,-135.0,295.0,1
1502,-30.0,-103.0,294.0,1
1503,-14.0,-76.0,283.0,1
1504,-6.0,-55.0,266.0,1
1505,-10.0,-35.0,251.0,1
1506,-18.0,-14.0,237.0,1
1507,-30.0,-4.0,218.0,1
1508,-43.0,1.0,210.0,1
1509,-50.0,-6.0,193.0,1
1510,-56.0,-19.0,186.0,1
1511,-62.0,-39.0,184.0,1
1512,-58.0,-60.0,175.0,1
1513,-52.0,-76.0,171.0,1
1514,-47.0,-88.0,171.0,1
1515,-52.0,-90.0,169.0,1
1516,-52.0,-84.0,167.0,1
1517,-58.0,-76.0,165.0,1
1518,-50.0,-61.0,162.0,1
1519,-64.0,-65.0,163.0,1
1520,-65.0,-58.0,164.0,1
1521,-69.0,-56.0,170.0,1
1522,-68.0,-59.0,171.0,1
1523,-65.0,-63.0,176.0,1
1524,-64.0,-65.0,184.0,1
1525,-59.0,-72.0,190.0,0
1526,-51.0,-72.0,192.0,0
1527,-45.0,-74.0,194.0,0
1528,-38.0,-74.0,193.0,0
1529,-33.0,-68.0,195.0,0
1530,-25.0,-63.0,201.0,0
1531,-24.0,-53.0,203.0,0
1532,-23.0,-45.0,204.0,0
1533,-21.0,-41.0,206.0,0
1534,-18.0,-40.0,200.0,0
1535,-20.0,-33.0,207.0,0
1536,-22.0,-35.0,205.0,0
1537,-23.0,-37.0,207.0,0
1538,-21.0,-41.0,204.0,0
1539,-24.0,-46.0,202.0,0
1540,-30.0,-51.0,203.0,0
1541,-30.0,-57.0,203.0,0
1542,-38.0,-59.0,202.0,0
1543,-39.0,-58.0,203.0,0
1544,-41.0,-56.0,205.0,0
1545,-38.0,-53.0,206.0,0
1546,-34.0,-52.0,211.0,0
1547,-37.0,-48.0,214.0,0
1548,-41.0,-48.0,221.0,0
1549,-39.0,-46.0,228.0,0
1550,-40.0,-41.0,231.0,0
1551,-34.0,-41.0,224.0,0
1552,-35.0,-36.0,222.0,0
1553,-32.0,-38.0,225.0,0
1554,-31.0,-36.0,226.0,0
1555,-29.0,-30.0,218.0,0
1556,-27.0,-32.0,216.0,0
1557,-23.0,-31.0,212.0,0
1558,-25.0,-29.0,206.0,0
1559,-20.0,-29.0,209.0,0
1560,-18.0,-33.0,201.0,0
1561,-23.0,-30.0,205.0,0
1562,-24.0,-27.0,200.0,0
1563,-22.0,-28.0,205.0,0
1564,-23.0,-30.0,200.0,0
1565,-22.0,-28.0,203.0,0
1566,-22.0,-32.0,197.0,0
1567,-23.0,-33.0,204.0,0
1568,-25.0,-35.0,198.0,0
1569,-26.0,-39.0,199.0,0
1570,-22.0,-39.0,204.0,0
1571,-21.0,-43.0,202.0,0
1572,-20.0,-43.0,203.0,0
1573,-17.0,-43.0,201.0,0
1574,-15.0,-47.0,197.0,0
1575,-12.0,-46.0,202.0,0
1576,-14.0,-45.0,203.0,0
1577,-13.0,-47.0,201.0,0
1578,-12.0,-47.0,202.0,0
1579,-10.0,-50.0,201.0,0
1580,-11.0,-46.0,205.0,0
1581,-13.0,-49.0,204.0,0
1582,-13.0,-46.0,202.0,0
1583,-12.0,-47.0,206.0,0
1584,-16.0,-47.0,206.0,0
1585,-17.0,-47.0,207.0,0
1586,-21.0,-47.0,206.0,0
1587,-24.0,-45.0,207.0,0
1588,-24.0,-46.0,207.0,0
1589,-20.0,-45.0,207.0,0
1590,-26.0,-47.0,209.0,0
1591,-27.0,-50.0,201.0,0
1592,-27.0,-54.0,204.0,0
1593,-30.0,-54.0,207.0,0
1594,-31.0,-55.0,201.0,0
1595,-30.0,-56.0,206.0,0
1596,-34.0,-53.0,209.0,0
1597,-32.0,-55.0,208.0,0
1598,-33.0,-51.0,203.0,0
1599,-34.0,-53.0,207.0,0
1600,-33.0,-51.0,205.0,0
1601,-33.0,-50.0,205.0,0
1602,-31.0,-49.0,206.0,0
1603,-33.0,-48.0,209.0,0
1604,-31.0,-48.0,205.0,0
1605,-30.0,-49.0,205.0,0
1606,-28.0,-48.0,202.0,0
1607,-32.0,-47.0,202.0,0
1608,-29.0,-41.0,203.0,0
1609,-29.0,-41.0,201.0,0
1610,-28.0,-39.0,203.0,0
1611,-33.0,-40.0,201.0,0
1612,-32.0,-40.0,197.0,0
1613,-35.0,-43.0,203.0,0
1614,-32.0,-38.0,199.0,0
1615,-32.0,-40.0,202.0,0
1616,-29.0,-41.0,203.0,0
1617,-31.0,-44.0,202.0,0
1618,-32.0,-40.0,205.0,0
1619,-28.0,-45.0,204.0,0
1620,-29.0,-44.0,201.0,0
1621,-26.0,-47.0,205.0,0
1622,-25.0,-42.0,204.0,0
1623,-28.0,-45.0,206.0,0
1624,-24.0,-46.0,202.0,0
1625,-24.0,-43.0,206.0,0
1626,-24.0,-45.0,206.0,0
1627,-22.0,-45.0,205.0,0
1628,-25.0,-46.0,205.0,0
1629,-23.0,-47.0,207.0,0
1630,-26.0,-43.0,208.0,0
1631,-26.0,-44.0,201.0,0
1632,-27.0,-42.0,206.0,0
1633,-26.0,-42.0,208.0,0
1634,-26.0,-42.0,209.0,0
1635,-26.0,-46.0,209.0,0
1636,-24.0,-44.0,208.0,0
1637,-23.0,-46.0,209.0,0
1638,-22.0,-44.0,211.0,0
1639,-30.0,-40.0,205.0,0
1640,-26.0,-40.0,204.0,0
1641,-24.0,-38.0,203.0,0
1642,-28.0,-39.0,204.0,0
1643,-31.0,-38.0,208.0,0
1644,-31.0,-41.0,205.0,0
1645,-28.0,-48.0,207.0,0
1646,-30.0,-49.0,213.0,0
1647,-30.0,-50.0,209.0,0
1648,-31.0,-50.0,210.0,0
1649,-28.0,-54.0,205.0,0
1650,-25.0,-53.0,203.0,0
1651,-24.0,-51.0,199.0,0
1652,-23.0,-47.0,196.0,0
1653,-25.0,-43.0,197.0,0
1654,-29.0,-39.0,194.0,0
1655,-29.0,-37.0,199.0,0
1656,-26.0,-37.0,199.0,0
1657,-24.0,-37.0,198.0,0
1658,-23.0,-43.0,199.0,0
1659,-22.0,-41.0,202.0,0
1660,-27.0,-44.0,205.0,0
1661,-30.0,-43.0,205.0,0
1662,-26.0,-45.0,208.0,0
1663,-27.0,-46.0,210.0,0
1664,-24.0,-44.0,210.0,0
1665,-24.0,-50.0,207.0,0
1666,-26.0,-44.0,209.0,0
1667,-26.0,-43.0,205.0,0
1668,-25.0,-44.0,206.0,0
1669,-23.0,-46.0,205.0,0
1670,-25.0,-41.0,206.0,0
1671,-25.0,-40.0,204.0,0
1672,-24.0,-43.0,205.0,0
1673,-24.0,-43.0,205.0,0
1674,-24.0,-44.0,210.0,0
1675,-26.0,-44.0,211.0,0
1676,-26.0,-40.0,208.0,0
1677,-28.0,-44.0,205.0,0
1678,-30.0,-45.0,206.0,0
1679,-30.0,-41.0,206.0,0
1680,-26.0,-43.0,205.0,0
1681,-25.0,-45.0,204.0,0
1682,-31.0,-43.0,201.0,0
1683,-25.0,-46.0,203.0,0
1684,-25.0,-45.0,207.0,0
1685,-27.0,-43.0,202.0,0
1686,-27.0,-46.0,208.0,0
1687,-27.0,-45.0,205.0,0
1688,-27.0,-43.0,208.0,0
1689,-28.0,-41.0,204.0,0
1690,-26.0,-45.0,205.0,0
1691,-29.0,-42.0,203.0,0
1692,-30.0,-42.0,205.0,0
1693,-29.0,-42.0,206.0,0
1694,-29.0,-42.0,204.0,0
1695,-33.0,-40.0,206.0,0
1696,-28.0,-42.0,206.0,0
1697,-25.0,-44.0,203.0,0
1698,-25.0,-44.0,204.0,0
1699,-26.0,-45.0,203.0,0
1700,-23.0,-47.0,205.0,0
1701,-27.0,-44.0,207.0,0
1702,-26.0,-46.0,206.0,0
1703,-27.0,-46.0,202.0,0
1704,-27.0,-46.0,203.0,0
1705,-28.0,-46.0,204.0,0
1706,-29.0,-44.0,209.0,0
1707,-31.0,-46.0,202.0,0
1708,-29.0,-45.0,203.0,0
1709,-26.0,-45.0,203.0,0
1710,-28.0,-46.0,200.0,0
1711,-30.0,-45.0,206.0,0
1712,-28.0,-45.0,201.0,0
1713,-24.0,-33.0,215.0,0
1714,-28.0,-46.0,205.0,0
1715,-28.0,-44.0,203.0,0
1716,-18.0,-45.0,199.0,0
1717,-29.0,-43.0,208.0,0
1718,-29.0,-52.0,200.0,0
1719,-35.0,-39.0,206.0,0
1720,-27.0,-46.0,204.0,0
1721,-22.0,-49.0,213.0,0
1722,-27.0,-40.0,193.0,0
1723,-34.0,-42.0,208.0,0
1724,-26.0,-41.0,203.0,0
1725,-29.0,-50.0,206.0,0
1726,-22.0,-43.0,200.0,0
1727,-38.0,-49.0,211.0,0
1728,-26.0,-45.0,208.0,0
1729,-32.0,-47.0,201.0,0
1730,-28.0,-41.0,192.0,0
1731,-26.0,-40.0,212.0,0
1732,-25.0,-39.0,198.0,0
1733,-26.0,-40.0,199.0,0
1734,-29.0,-46.0,215.0,0
1735,-28.0,-39.0,201.0,0
1736,-29.0,-50.0,195.0,0
1737,-25.0,-42.0,207.0,0
1738,-26.0,-43.0,200.0,0
1739,-26.0,-43.0,204.0,0
1740,-27.0,-42.0,204.0,0
1741,-25.0,-43.0,204.0,0
1742,-26.0,-45.0,208.0,0
1743,-33.0,-43.0,200.0,0
1744,-33.0,-48.0,215.0,0
1745,-28.0,-47.0,208.0,0
1746,-29.0,-42.0,208.0,0
1747,-27.0,-34.0,198.0,0
1748,-31.0,-62.0,211.0,0
1749,-34.0,-41.0,204.0,0
1750,-24.0,-40.0,212.0,0
1751,-24.0,-46.0,197.0,0
1752,-27.0,-44.0,205.0,0
1753,-46.0,-41.0,209.0,0
1754,-32.0,-47.0,206.0,0
1755,-32.0,-35.0,202.0,0
1756,-23.0,-47.0,200.0,0
1757,-20.0,-51.0,209.0,0
1758,-22.0,-57.0,209.0,0
1759,-16.0,-40.0,205.0,0
1760,-19.0,-58.0,201.0,0
1761,-31.0,-45.0,194.0,0
1762,-19.0,-56.0,205.0,0
1763,-27.0,-40.0,200.0,0
1764,-27.0,-43.0,198.0,0
1765,-31.0,-38.0,198.0,0
1766,-23.0,-39.0,194.0,0
1767,-23.0,-26.0,204.0,0
1768,-32.0,-41.0,201.0,0
1769,-26.0,-39.0,207.0,0
1770,-26.0,-41.0,208.0,0
1771,-26.0,-43.0,204.0,0
1772,-26.0,-43.0,205.0,0
1773,-26.0,-41.0,206.0,0
1774,-33.0,-43.0,212.0,0
1775,-29.0,-37.0,203.0,0
1776,-28.0,-44.0,198.0,0
1777,-23.0,-47.0,199.0,0
1778,-26.0,-39.0,199.0,0
1779,-32.0,-40.0,204.0,0
1780,-24.0,-44.0,207.0,0
1781,-30.0,-44.0,198.0,0
1782,-20.0,-42.0,206.0,0
1783,-19.0,-50.0,211.0,0
1784,-25.0,-32.0,201.0,0
1785,-22.0,-29.0,212.0,0
1786,-27.0,-40.0,208.0,0
1787,-33.0,-35.0,200.0,0
1788,-33.0,-39.0,204.0,0
1789,-16.0,-45.0,198.0,0
1790,-17.0,-42.0,204.0,0
1791,-25.0,-42.0,201.0,0
1792,-22.0,-52.0,209.0,0
1793,-14.0,-41.0,193.0,0
1794,-16.0,-43.0,205.0,0
1795,-26.0,-46.0,195.0,0
1796,-16.0,-40.0,196.0,0
1797,-21.0,-38.0,196.0,0
1798,-19.0,-47.0,204.0,0
1799,-23.0,-45.0,200.0,0
1800,-37.0,-55.0,210.0,0
1801,-26.0,-41.0,212.0,0
1802,-30.0,-42.0,204.0,0
1803,-29.0,-45.0,207.0,0
1804,-28.0,-47.0,203.0,0
1805,-26.0,-46.0,203.0,0
1806,-26.0,-42.0,206.0,0
1807,-28.0,-48.0,215.0,0
1808,-29.0,-49.0,220.0,0
1809,-37.0,-49.0,208.0,0
1810,-25.0,-53.0,212.0,0
1811,-31.0,-45.0,213.0,0
1812,-22.0,-51.0,202.0,0
1813,-24.0,-43.0,201.0,0
1814,-15.0,-39.0,207.0,0
1815,-28.0,-35.0,196.0,0
1816,-26.0,-55.0,208.0,0
1817,-31.0,-36.0,214.0,0
1818,-27.0,-46.0,202.0,0
1819,-24.0,-45.0,201.0,0
1820,-22.0,-46.0,200.0,0
1821,-36.0,-46.0,210.0,0
1822,-31.0,-45.0,205.0,0
1823,-26.0,-50.0,221.0,0
1824,-22.0,-47.0,205.0,0
1825,-33.0,-43.0,208.0,0
1826,-32.0,-39.0,226.0,0
1827,-29.0,-42.0,207.0,0
1828,-30.0,-36.0,202.0,0
1829,-22.0,-39.0,198.0,0
1830,-24.0,-38.0,199.0,0
1831,-22.0,-47.0,205.0,0
1832,-27.0,-39.0,206.0,0
1833,-27.0,-53.0,198.0,0
1834,-25.0,-42.0,206.0,0
1835,-23.0,-45.0,204.0,0
1836,-27.0,-41.0,206.0,0
1837,-26.0,-42.0,209.0,0
1838,-29.0,-30.0,206.0,0
1839,-27.0,-60.0,211.0,0
1840,-32.0,-44.0,202.0,0
1841,-28.0,-40.0,202.0,0
1842,-32.0,-37.0,196.0,0
1843,-25.0,-44.0,210.0,0
1844,-26.0,-44.0,212.0,0
1845,-23.0,-46.0,201.0,0
1846,-23.0,-26.0,203.0,0
1847,-18.0,-44.0,206.0,0
1848,-39.0,-46.0,192.0,0
1849,-28.0,-46.0,200.0,0
1850,-24.0,-46.0,210.0,0
1851,-23.0,-60.0,210.0,0
1852,-30.0,-50.0,207.0,0
1853,-28.0,-47.0,214.0,0
1854,-24.0,-41.0,207.0,0
1855,-38.0,-42.0,206.0,0
1856,-36.0,-42.0,201.0,0
1857,-24.0,-55.0,219.0,0
1858,-34.0,-54.0,206.0,0
1859,-30.0,-45.0,218.0,0
1860,-27.0,-44.0,209.0,0
1861,-32.0,-42.0,207.0,0
1862,-24.0,-43.0,203.0,0
1863,-34.0,-40.0,209.0,0
1864,-24.0,-46.0,198.0,0
1865,-32.0,-38.0,203.0,0
1866,-29.0,-43.0,205.0,0
1867,-25.0,-45.0,205.0,0
1868,-26.0,-46.0,205.0,0
1869,-26.0,-45.0,208.0,0
1870,-24.0,-42.0,208.0,0
1871,-24.0,-39.0,216.0,0
1872,-27.0,-50.0,216.0,0
1873,-21.0,-47.0,180.0,0
1874,-29.0,-50.0,200.0,0
1875,-22.0,-47.0,200.0,0
1876,-25.0,-52.0,202.0,0
1877,-24.0,-41.0,195.0,0
1878,-31.0,-44.0,203.0,0
1879,-29.0,-48.0,208.0,0
1880,-30.0,-36.0,208.0,0
1881,-32.0,-36.0,194.0,0
1882,-29.0,-37.0,201.0,0
1883,-38.0,-39.0,204.0,0
1884,-30.0,-45.0,208.0,0
1885,-19.0,-37.0,200.0,0
1886,-30.0,-46.0,209.0,0
1887,-22.0,-38.0,209.0,0
1888,-32.0,-45.0,214.0,0
1889,-27.0,-41.0,207.0,0
1890,-13.0,-41.0,200.0,0
1891,-22.0,-50.0,209.0,0
1892,-27.0,-33.0,199.0,0
1893,-28.0,-37.0,204.0,0
1894,-25.0,-45.0,207.0,0
1895,-25.0,-37.0,196.0,0
1896,-26.0,-50.0,199.0,0
1897,-27.0,-43.0,204.0,0
1898,-28.0,-39.0,208.0,0
1899,-25.0,-42.0,206.0,0
1900,-27.0,-42.0,204.0,0
1901,-29.0,-42.0,210.0,0
1902,-27.0,-40.0,206.0,0
1903,-28.0,-42.0,202.0,0
1904,-29.0,-42.0,206.0,0
1905,-27.0,-44.0,204.0,0
1906,-26.0,-41.0,204.0,0
1907,-29.0,-40.0,203.0,0
1908,-30.0,-46.0,205.0,0
1909,-28.0,-46.0,207.0,0
1910,-35.0,-37.0,214.0,0
1911,-25.0,-46.0,207.0,0
1912,-26.0,-47.0,207.0,0
1913,-26.0,-46.0,206.0,0
1914,-28.0,-47.0,204.0,0
1915,-29.0,-46.0,206.0,0
1916,-26.0,-46.0,206.0,0
1917,-27.0,-45.0,207.0,0
1918,-27.0,-45.0,203.0,0
1919,-27.0,-46.0,203.0,0
1920,-25.0,-45.0,206.0,0
1921,-30.0,-44.0,202.0,0
1922,-27.0,-45.0,203.0,0
1923,-25.0,-46.0,202.0,0
1924,-18.0,-45.0,212.0,0
1925,-25.0,-46.0,205.0,0
1926,-24.0,-47.0,202.0,0
1927,-25.0,-46.0,205.0,0
1928,-27.0,-47.0,200.0,0
1929,-29.0,-45.0,210.0,0
1930,-27.0,-41.0,209.0,0
1931,-28.0,-44.0,206.0,0
1932,-25.0,-43.0,203.0,0
1933,-28.0,-41.0,205.0,0
1934,-26.0,-45.0,201.0,0
1935,-25.0,-41.0,200.0,0
1936,-26.0,-40.0,203.0,0
1937,-26.0,-43.0,205.0,0
1938,-27.0,-41.0,203.0,0
1939,-22.0,-46.0,203.0,0
1940,-27.0,-41.0,205.0,0
1941,-22.0,-46.0,205.0,0
1942,-24.0,-46.0,206.0,0
1943,-24.0,-46.0,200.0,0
1944,-28.0,-48.0,206.0,0
1945,-28.0,-45.0,210.0,0
1946,-28.0,-44.0,209.0,0
1947,-29.0,-42.0,205.0,0
1948,-26.0,-38.0,208.0,0
1949,-26.0,-44.0,207.0,0
1950,-29.0,-43.0,205.0,0
1951,-29.0,-46.0,206.0,0
1952,-27.0,-43.0,203.0,0
1953,-27.0,-42.0,209.0,0
1954,-23.0,-42.0,207.0,0
1955,-25.0,-41.0,203.0,0
1956,-24.0,-44.0,204.0,0
1957,-25.0,-46.0,200.0,0
1958,-28.0,-48.0,201.0,0
1959,-30.0,-47.0,204.0,0
1960,-27.0,-46.0,204.0,0
1961,-27.0,-46.0,203.0,0
1962,-22.0,-31.0,214.0,0
1963,-27.0,-44.0,206.0,0
1964,-26.0,-44.0,209.0,0
1965,-25.0,-42.0,207.0,0
1966,-26.0,-40.0,205.0,0
1967,-26.0,-44.0,207.0,0
1968,-29.0,-43.0,203.0,0
1969,-27.0,-44.0,202.0,0
1970,-28.0,-47.0,206.0,0
1971,-24.0,-44.0,204.0,0
1972,-27.0,-45.0,203.0,0
1973,-29.0,-45.0,204.0,0
1974,-25.0,-46.0,206.0,0
1975,-26.0,-45.0,208.0,0
1976,-24.0,-51.0,204.0,0
1977,-27.0,-44.0,209.0,0
1978,-27.0,-45.0,207.0,0
1979,-30.0,-42.0,205.0,0
1980,-32.0,-42.0,206.0,0
1981,-34.0,-55.0,204.0,0
1982,-31.0,-43.0,205.0,0
1983,-29.0,-44.0,203.0,0
1984,-27.0,-46.0,202.0,0
1985,-25.0,-44.0,203.0,0
1986,-25.0,-47.0,203.0,0
1987,-20.0,-44.0,212.0,0
1988,-26.0,-44.0,201.0,0
1989,-24.0,-43.0,205.0,0
1990,-28.0,-44.0,202.0,0
1991,-26.0,-44.0,207.0,0
1992,-25.0,-45.0,204.0,0
1993,-27.0,-40.0,207.0,0
1994,-27.0,-43.0,211.0,0
1995,-26.0,-45.0,208.0,0
1996,-26.0,-45.0,207.0,0
1997,-24.0,-49.0,207.0,0
1998,-26.0,-49.0,208.0,0
1999,-26.0,-51.0,204.0,0
2000,-27.0,-51.0,204.0,0
2001,-25.0,-48.0,202.0,0
2002,-27.0,-43.0,195.0,0
2003,-25.0,-40.0,194.0,0
2004,-25.0,-45.0,199.0,0
2005,-27.0,-43.0,201.0,0
2006,-29.0,-42.0,202.0,0
2007,-28.0,-42.0,203.0,0
2008,-27.0,-42.0,208.0,0
2009,-29.0,-40.0,205.0,0
2010,-28.0,-40.0,207.0,0
2011,-27.0,-40.0,209.0,0
2012,-23.0,-44.0,209.0,0
2013,-27.0,-43.0,204.0,0
2014,-25.0,-44.0,209.0,0
2015,-28.0,-44.0,205.0,0
2016,-24.0,-43.0,206.0,0
2017,-30.0,-41.0,206.0,0
2018,-29.0,-41.0,204.0,0
2019,-28.0,-45.0,207.0,0
2020,-27.0,-46.0,202.0,0
2021,-27.0,-42.0,203.0,0
2022,-29.0,-43.0,207.0,0
2023,-28.0,-43.0,205.0,0
2024,-29.0,-42.0,205.0,0
2025,-28.0,-42.0,204.0,0
2026,-27.0,-44.0,204.0,0
2027,-29.0,-42.0,204.0,0
2028,-27.0,-43.0,204.0,0
2029,-28.0,-41.0,201.0,0
2030,-26.0,-47.0,205.0,0
2031,-29.0,-45.0,205.0,0
2032,-28.0,-43.0,206.0,0
2033,-28.0,-46.0,202.0,0
2034,-26.0,-45.0,207.0,0
2035,-27.0,-44.0,202.0,0
2036,-28.0,-46.0,205.0,0
2037,-27.0,-45.0,206.0,0
2038,-27.0,-46.0,205.0,0
2039,-29.0,-43.0,205.0,0
2040,-28.0,-46.0,205.0,0
2041,-28.0,-45.0,208.0,0
2042,-28.0,-43.0,203.0,0
2043,-28.0,-42.0,204.0,0
2044,-28.0,-42.0,203.0,0
2045,-30.0,-46.0,206.0,0
2046,-27.0,-47.0,202.0,0
2047,-30.0,-45.0,202.0,0
2048,-27.0,-46.0,204.0,0
2049,-29.0,-47.0,205.0,0
2050,-25.0,-47.0,203.0,0
2051,-26.0,-46.0,204.0,0
2052,-26.0,-47.0,203.0,0
2053,-26.0,-46.0,203.0,0
2054,-27.0,-48.0,203.0,0
2055,-25.0,-47.0,206.0,0
2056,-29.0,-47.0,202.0,0
2057,-30.0,-43.0,206.0,0
2058,-31.0,-41.0,207.0,0
2059,-28.0,-42.0,207.0,0
2060,-29.0,-41.0,205.0,0
2061,-30.0,-40.0,205.0,0
2062,-25.0,-44.0,204.0,0
2063,-26.0,-43.0,207.0,0
2064,-27.0,-42.0,204.0,0
2065,-25.0,-44.0,200.0,0
2066,-25.0,-44.0,202.0,0
2067,-23.0,-42.0,202.0,0
2068,-24.0,-46.0,207.0,0
2069,-25.0,-45.0,204.0,0
2070,-27.0,-44.0,202.0,0
2071,-29.0,-42.0,208.0,0
2072,-27.0,-45.0,205.0,0
2073,-25.0,-45.0,208.0,0
2074,-29.0,-44.0,205.0,0
2075,-25.0,-41.0,205.0,0
2076,-26.0,-44.0,207.0,0
2077,-27.0,-39.0,205.0,0
2078,-28.0,-44.0,206.0,0
2079,-29.0,-42.0,207.0,0
2080,-26.0,-44.0,208.0,0
2081,-24.0,-44.0,206.0,0
2082,-23.0,-44.0,207.0,0
2083,-27.0,-45.0,205.0,0
2084,-28.0,-44.0,205.0,0
2085,-31.0,-44.0,208.0,0
2086,-33.0,-44.0,203.0,0
2087,-29.0,-44.0,209.0,0
2088,-27.0,-42.0,208.0,0
2089,-31.0,-40.0,202.0,0
2090,-26.0,-43.0,205.0,0
2091,-25.0,-39.0,202.0,0
2092,-27.0,-44.0,203.0,0
2093,-30.0,-42.0,202.0,0
2094,-29.0,-46.0,205.0,0
2095,-26.0,-46.0,204.0,0
2096,-27.0,-45.0,203.0,0
2097,-29.0,-44.0,203.0,0
2098,-27.0,-43.0,202.0,0
2099,-26.0,-44.0,204.0,0
2100,-25.0,-45.0,202.0,0
2101,-28.0,-47.0,206.0,0
2102,-27.0,-45.0,204.0,0
2103,-29.0,-46.0,209.0,0
2104,-28.0,-45.0,203.0,0
2105,-30.0,-39.0,205.0,0
2106,-29.0,-44.0,205.0,0
2107,-30.0,-44.0,204.0,0
2108,-28.0,-46.0,204.0,0
2109,-26.0,-44.0,205.0,0
2110,-28.0,-42.0,201.0,0
2111,-28.0,-42.0,204.0,0
2112,-26.0,-46.0,205.0,0
2113,-28.0,-46.0,207.0,0
2114,-29.0,-43.0,206.0,0
2115,-28.0,-44.0,206.0,0
2116,-27.0,-42.0,206.0,0
2117,-27.0,-45.0,204.0,0
2118,-26.0,-48.0,206.0,0
2119,-28.0,-43.0,203.0,0
2120,-29.0,-44.0,205.0,0
2121,-28.0,-44.0,203.0,0
2122,-28.0,-42.0,207.0,0
2123,-29.0,-43.0,199.0,0
2124,-30.0,-42.0,206.0,0
2125,-28.0,-42.0,206.0,0
2126,-28.0,-43.0,202.0,0
2127,-25.0,-43.0,205.0,0
2128,-28.0,-44.0,206.0,0
2129,-28.0,-45.0,205.0,0
2130,-28.0,-40.0,204.0,0
2131,-26.0,-41.0,206.0,0
2132,-24.0,-43.0,207.0,0
2133,-26.0,-45.0,203.0,0
2134,-27.0,-40.0,211.0,0
2135,-27.0,-45.0,206.0,0
2136,-27.0,-45.0,205.0,0
2137,-27.0,-44.0,202.0,0
2138,-29.0,-44.0,209.0,0
2139,-28.0,-45.0,207.0,0
2140,-27.0,-43.0,204.0,0
2141,-26.0,-42.0,204.0,0
2142,-29.0,-41.0,205.0,0
2143,-29.0,-41.0,205.0,0
2144,-29.0,-44.0,205.0,0
2145,-27.0,-47.0,206.0,0
2146,-26.0,-48.0,204.0,0
2147,-29.0,-48.0,206.0,0
2148,-27.0,-49.0,210.0,0
2149,-26.0,-50.0,206.0,0
2150,-25.0,-49.0,205.0,0
2151,-28.0,-50.0,214.0,0
2152,-25.0,-52.0,204.0,0
2153,-26.0,-49.0,201.0,0
2154,-25.0,-47.0,200.0,0
2155,-27.0,-42.0,199.0,0
2156,-31.0,-40.0,199.0,0
2157,-27.0,-42.0,198.0,0
2158,-28.0,-45.0,201.0,0
2159,-31.0,-42.0,201.0,0
2160,-28.0,-41.0,203.0,0
2161,-27.0,-45.0,203.0,0
2162,-28.0,-46.0,205.0,0
2163,-27.0,-43.0,208.0,0
2164,-31.0,-42.0,207.0,0
2165,-30.0,-43.0,207.0,0
2166,-27.0,-42.0,205.0,0
2167,-29.0,-41.0,210.0,0
2168,-26.0,-44.0,208.0,0
2169,-28.0,-42.0,205.0,0
2170,-30.0,-43.0,205.0,0
2171,-28.0,-40.0,198.0,0
2172,-28.0,-41.0,205.0,0
2173,-28.0,-44.0,204.0,0
2174,-28.0,-40.0,205.0,0
2175,-28.0,-43.0,206.0,0
2176,-27.0,-44.0,204.0,0
2177,-29.0,-43.0,205.0,0
2178,-28.0,-43.0,206.0,0
2179,-28.0,-44.0,206.0,0
2180,-29.0,-43.0,207.0,0
2181,-25.0,-40.0,207.0,0
2182,-26.0,-40.0,207.0,0
2183,-29.0,-44.0,202.0,0
2184,-29.0,-45.0,206.0,0
2185,-28.0,-44.0,206.0,0
2186,-27.0,-42.0,204.0,0
2187,-28.0,-42.0,202.0,0
2188,-26.0,-47.0,206.0,0
2189,-27.0,-44.0,206.0,0
2190,-27.0,-41.0,203.0,0
2191,-27.0,-45.0,202.0,0
2192,-28.0,-42.0,205.0,0
2193,-27.0,-45.0,204.0,0
2194,-31.0,-41.0,202.0,0
2195,-29.0,-45.0,209.0,0
2196,-31.0,-43.0,208.0,0
2197,-29.0,-44.0,208.0,0
2198,-28.0,-45.0,207.0,0
2199,-27.0,-47.0,202.0,0
2200,-29.0,-43.0,206.0,0
2201,-29.0,-43.0,203.0,0
2202,-30.0,-48.0,204.0,0
2203,-28.0,-46.0,205.0,0
2204,-28.0,-43.0,202.0,0
2205,-28.0,-44.0,201.0,0
2206,-26.0,-45.0,204.0,0
2207,-27.0,-44.0,206.0,0
2208,-28.0,-48.0,204.0,0
2209,-28.0,-45.0,204.0,0
2210,-28.0,-43.0,206.0,0
2211,-29.0,-41.0,209.0,0
2212,-26.0,-44.0,207.0,0
2213,-25.0,-43.0,206.0,0
2214,-25.0,-47.0,207.0,0
2215,-28.0,-41.0,205.0,0
2216,-25.0,-46.0,204.0,0
2217,-26.0,-44.0,206.0,0
2218,-27.0,-42.0,207.0,0
2219,-27.0,-42.0,206.0,0
2220,-26.0,-45.0,206.0,0
2221,-28.0,-44.0,202.0,0
2222,-26.0,-45.0,202.0,0
2223,-27.0,-43.0,206.0,0
2224,-24.0,-41.0,206.0,0
2225,-27.0,-45.0,210.0,0
2226,-29.0,-43.0,206.0,0
2227,-29.0,-44.0,202.0,0
2228,-26.0,-39.0,205.0,0
2229,-25.0,-41.0,202.0,0
2230,-28.0,-43.0,200.0,0
2231,-28.0,-43.0,205.0,0
2232,-27.0,-43.0,202.0,0
2233,-27.0,-42.0,204.0,0
2234,-29.0,-44.0,205.0,0
2235,-27.0,-42.0,202.0,0
2236,-28.0,-44.0,204.0,0
2237,-27.0,-44.0,206.0,0
2238,-31.0,-43.0,205.0,0
2239,-26.0,-47.0,204.0,0
2240,-29.0,-46.0,203.0,0
2241,-27.0,-46.0,209.0,0
2242,-30.0,-41.0,202.0,0
2243,-28.0,-43.0,206.0,0
2244,-32.0,-44.0,203.0,0
2245,-26.0,-42.0,206.0,0
2246,-28.0,-45.0,204.0,0
2247,-31.0,-43.0,200.0,0
2248,-29.0,-43.0,205.0,0
2249,-29.0,-44.0,206.0,0
2250,-28.0,-42.0,206.0,0
2251,-26.0,-42.0,205.0,0
2252,-27.0,-46.0,203.0,0
2253,-27.0,-46.0,206.0,0
2254,-30.0,-44.0,202.0,0
2255,-29.0,-46.0,204.0,0
2256,-27.0,-45.0,204.0,0
2257,-28.0,-46.0,205.0,0
2258,-27.0,-45.0,203.0,0
2259,-25.0,-43.0,205.0,0
2260,-25.0,-46.0,209.0,0
2261,-28.0,-44.0,206.0,0
2262,-27.0,-44.0,203.0,0
2263,-29.0,-42.0,204.0,0
2264,-27.0,-43.0,203.0,0
2265,-30.0,-42.0,203.0,0
2266,-28.0,-47.0,204.0,0
2267,-29.0,-48.0,206.0,0
2268,-29.0,-46.0,203.0,0
2269,-29.0,-46.0,203.0,0
2270,-28.0,-43.0,205.0,0
2271,-29.0,-40.0,204.0,0
2272,-27.0,-42.0,204.0,0
2273,-26.0,-45.0,208.0,0
2274,-26.0,-42.0,203.0,0
2275,-27.0,-45.0,204.0,0
2276,-26.0,-43.0,204.0,0
2277,-27.0,-43.0,205.0,0
2278,-29.0,-44.0,204.0,0
2279,-27.0,-47.0,205.0,0
2280,-27.0,-45.0,208.0,0
2281,-25.0,-46.0,206.0,0
2282,-26.0,-46.0,205.0,0
2283,-28.0,-44.0,205.0,0
2284,-27.0,-45.0,205.0,0
2285,-27.0,-45.0,205.0,0
2286,-29.0,-43.0,205.0,0
2287,-26.0,-45.0,207.0,0
2288,-27.0,-43.0,203.0,0
2289,-27.0,-46.0,206.0,0
2290,-28.0,-44.0,203.0,0
2291,-29.0,-43.0,204.0,0
2292,-28.0,-41.0,210.0,0
2293,-28.0,-42.0,206.0,0
2294,-29.0,-43.0,206.0,0
2295,-30.0,-42.0,203.0,0
2296,-27.0,-45.0,207.0,0
2297,-27.0,-47.0,208.0,0
2298,-28.0,-42.0,208.0,0
2299,-27.0,-46.0,209.0,0
2300,-27.0,-42.0,204.0,0
2301,-29.0,-41.0,204.0,0
2302,-29.0,-41.0,202.0,0
2303,-25.0,-42.0,204.0,0
2304,-28.0,-41.0,206.0,0
2305,-30.0,-44.0,203.0,0
2306,-28.0,-46.0,205.0,0
2307,-27.0,-50.0,205.0,0
2308,-30.0,-47.0,209.0,0
2309,-27.0,-50.0,206.0,0
2310,-27.0,-48.0,209.0,0
2311,-27.0,-53.0,208.0,0
2312,-26.0,-50.0,198.0,0
2313,-27.0,-47.0,203.0,0
2314,-27.0,-42.0,197.0,0
2315,-27.0,-41.0,196.0,0
2316,-30.0,-43.0,195.0,0
2317,-28.0,-40.0,200.0,0
2318,-26.0,-44.0,202.0,0
2319,-28.0,-41.0,201.0,0
2320,-30.0,-43.0,207.0,0
2321,-27.0,-40.0,205.0,0
2322,-29.0,-41.0,207.0,0
2323,-29.0,-40.0,205.0,0
2324,-28.0,-45.0,203.0,0
2325,-28.0,-43.0,209.0,0
2326,-25.0,-44.0,203.0,0
2327,-28.0,-44.0,205.0,0
2328,-28.0,-45.0,207.0,0
2329,-29.0,-47.0,205.0,0
2330,-28.0,-43.0,204.0,0
2331,-28.0,-43.0,202.0,0
2332,-28.0,-41.0,206.0,0
2333,-26.0,-43.0,207.0,0
2334,-26.0,-42.0,204.0,0
2335,-27.0,-42.0,206.0,0
2336,-27.0,-41.0,204.0,0
2337,-28.0,-38.0,204.0,0
2338,-30.0,-39.0,205.0,0
2339,-30.0,-41.0,203.0,0
2340,-28.0,-40.0,206.0,0
2341,-26.0,-41.0,206.0,0
2342,-29.0,-44.0,207.0,0
2343,-29.0,-43.0,206.0,0
2344,-30.0,-45.0,203.0,0
2345,-31.0,-42.0,204.0,0
2346,-28.0,-46.0,202.0,0
2347,-28.0,-44.0,205.0,0
2348,-31.0,-44.0,204.0,0
2349,-30.0,-40.0,204.0,0
2350,-29.0,-42.0,208.0,0
2351,-29.0,-42.0,206.0,0
2352,-28.0,-43.0,201.0,0
2353,-29.0,-40.0,206.0,0
2354,-27.0,-46.0,207.0,0
2355,-29.0,-44.0,207.0,0
2356,-28.0,-47.0,207.0,0
2357,-28.0,-46.0,204.0,0
2358,-28.0,-48.0,208.0,0
2359,-30.0,-47.0,200.0,0
2360,-27.0,-48.0,204.0,0
2361,-30.0,-46.0,204.0,0
2362,-28.0,-46.0,206.0,0
2363,-29.0,-43.0,206.0,0
2364,-30.0,-46.0,204.0,0
2365,-26.0,-44.0,202.0,0
2366,-29.0,-45.0,202.0,0
2367,-30.0,-48.0,201.0,0
2368,-29.0,-46.0,205.0,0
2369,-29.0,-47.0,205.0,0
2370,-30.0,-43.0,204.0,0
2371,-26.0,-46.0,204.0,0
2372,-27.0,-44.0,202.0,0
2373,-27.0,-45.0,203.0,0
2374,-25.0,-45.0,205.0,0
2375,-28.0,-43.0,207.0,0
2376,-29.0,-42.0,202.0,0
2377,-29.0,-43.0,207.0,0
2378,-25.0,-45.0,202.0,0
2379,-30.0,-42.0,201.0,0
2380,-28.0,-44.0,206.0,0
2381,-27.0,-45.0,203.0,0
2382,-28.0,-44.0,208.0,0
2383,-28.0,-46.0,205.0,0
2384,-27.0,-42.0,205.0,0
2385,-30.0,-40.0,205.0,0
2386,-26.0,-45.0,204.0,0
2387,-27.0,-44.0,205.0,0
2388,-27.0,-41.0,205.0,0
2389,-28.0,-42.0,203.0,0
2390,-28.0,-42.0,204.0,0
2391,-28.0,-45.0,201.0,0
2392,-32.0,-42.0,202.0,0
2393,-32.0,-43.0,204.0,0
2394,-27.0,-42.0,201.0,0
2395,-29.0,-44.0,205.0,0
2396,-30.0,-46.0,202.0,0
2397,-30.0,-45.0,203.0,0
2398,-28.0,-44.0,208.0,0
2399,-30.0,-44.0,203.0,0
2400,-29.0,-43.0,206.0,0
2401,-28.0,-42.0,206.0,0
2402,-29.0,-49.0,204.0,0
2403,-29.0,-42.0,206.0,0
2404,-27.0,-45.0,204.0,0
2405,-29.0,-43.0,208.0,0
2406,-30.0,-43.0,204.0,0
2407,-30.0,-43.0,208.0,0
2408,-30.0,-42.0,203.0,0
2409,-31.0,-42.0,201.0,0
2410,-29.0,-44.0,205.0,0
2411,-29.0,-45.0,204.0,0
2412,-29.0,-46.0,201.0,0
2413,-28.0,-46.0,205.0,0
2414,-31.0,-44.0,203.0,0
2415,-32.0,-44.0,203.0,0
2416,-32.0,-43.0,207.0,0
2417,-27.0,-42.0,208.0,0
2418,-27.0,-42.0,203.0,0
2419,-29.0,-44.0,205.0,0
2420,-28.0,-41.0,203.0,0
2421,-27.0,-41.0,206.0,0
2422,-28.0,-44.0,204.0,0
2423,-27.0,-45.0,202.0,0
2424,-29.0,-41.0,204.0,0
2425,-28.0,-41.0,202.0,0
2426,-28.0,-44.0,207.0,0
2427,-26.0,-45.0,205.0,0
2428,-27.0,-46.0,206.0,0
2429,-27.0,-49.0,208.0,0
2430,-31.0,-44.0,205.0,0
2431,-26.0,-47.0,205.0,0
2432,-29.0,-44.0,208.0,0
2433,-28.0,-45.0,203.0,0
2434,-28.0,-43.0,203.0,0
2435,-31.0,-41.0,203.0,0
2436,-28.0,-43.0,206.0,0
2437,-27.0,-42.0,203.0,0
2438,-25.0,-42.0,206.0,0
2439,-28.0,-40.0,204.0,0
2440,-26.0,-46.0,204.0,0
2441,-31.0,-41.0,204.0,0
2442,-31.0,-46.0,202.0,0
2443,-29.0,-44.0,205.0,0
2444,-27.0,-43.0,207.0,0
2445,-29.0,-44.0,204.0,0
2446,-27.0,-46.0,206.0,0
2447,-27.0,-46.0,206.0,0
2448,-28.0,-43.0,206.0,0
2449,-31.0,-42.0,209.0,0
2450,-28.0,-41.0,203.0,0
2451,-29.0,-42.0,202.0,0
2452,-30.0,-43.0,203.0,0
2453,-27.0,-44.0,202.0,0
2454,-28.0,-42.0,205.0,0
2455,-29.0,-45.0,206.0,0
2456,-28.0,-47.0,206.0,0
2457,-25.0,-48.0,204.0,0
2458,-29.0,-49.0,210.0,0
2459,-27.0,-45.0,206.0,0
2460,-26.0,-45.0,207.0,0
2461,-25.0,-50.0,206.0,0
2462,-27.0,-48.0,209.0,0
2463,-28.0,-45.0,205.0,0
2464,-27.0,-50.0,201.0,0
2465,-28.0,-41.0,201.0,0
2466,-30.0,-44.0,196.0,0
2467,-30.0,-45.0,197.0,0
2468,-29.0,-44.0,200.0,0
2469,-31.0,-42.0,204.0,0
2470,-31.0,-45.0,204.0,0
2471,-29.0,-41.0,203.0,0
2472,-27.0,-44.0,206.0,0
2473,-29.0,-43.0,205.0,0
2474,-30.0,-41.0,204.0,0
2475,-28.0,-43.0,203.0,0
2476,-31.0,-40.0,205.0,0
2477,-28.0,-40.0,207.0,0
2478,-34.0,-41.0,206.0,0
2479,-30.0,-40.0,205.0,0
2480,-29.0,-43.0,204.0,0
2481,-28.0,-42.0,205.0,0
2482,-27.0,-45.0,206.0,0
2483,-26.0,-43.0,206.0,0
2484,-28.0,-43.0,207.0,0
2485,-29.0,-43.0,204.0,0
2486,-32.0,-40.0,206.0,0
2487,-31.0,-40.0,205.0,0
2488,-29.0,-42.0,206.0,0
2489,-28.0,-44.0,204.0,0
2490,-30.0,-39.0,207.0,0
2491,-31.0,-42.0,202.0,0
2492,-27.0,-42.0,206.0,0
2493,-27.0,-43.0,202.0,0
2494,-28.0,-42.0,204.0,0
2495,-29.0,-43.0,204.0,0
2496,-30.0,-43.0,205.0,0
2497,-31.0,-43.0,207.0,0
2498,-30.0,-42.0,205.0,0
2499,-28.0,-45.0,203.0,0
2500,-31.0,-44.0,205.0,0
2501,-29.0,-47.0,202.0,0
2502,-30.0,-47.0,205.0,0
2503,-31.0,-43.0,205.0,0
2504,-30.0,-42.0,203.0,0
2505,-25.0,-44.0,207.0,0
2506,-31.0,-41.0,206.0,0
2507,-29.0,-44.0,204.0,0
2508,-26.0,-45.0,201.0,0
2509,-27.0,-49.0,203.0,0
2510,-27.0,-46.0,205.0,0
2511,-29.0,-46.0,206.0,0
2512,-27.0,-48.0,206.0,0
2513,-28.0,-48.0,205.0,0
2514,-30.0,-46.0,204.0,0
2515,-32.0,-45.0,206.0,0
2516,-31.0,-41.0,205.0,0
2517,-29.0,-47.0,204.0,0
2518,-31.0,-45.0,202.0,0
2519,-29.0,-46.0,204.0,0
2520,-27.0,-45.0,203.0,0
2521,-28.0,-45.0,203.0,0
2522,-28.0,-45.0,209.0,0
2523,-29.0,-45.0,206.0,0
2524,-29.0,-45.0,205.0,0
2525,-28.0,-45.0,205.0,0
2526,-30.0,-43.0,201.0,0
2527,-26.0,-47.0,204.0,0
2528,-27.0,-43.0,202.0,0
2529,-28.0,-43.0,204.0,0
2530,-29.0,-44.0,204.0,0
2531,-28.0,-47.0,208.0,0
2532,-29.0,-42.0,206.0,0
2533,-27.0,-43.0,204.0,0
2534,-27.0,-46.0,207.0,0
2535,-29.0,-46.0,208.0,0
2536,-28.0,-43.0,207.0,0
2537,-25.0,-44.0,208.0,0
2538,-31.0,-44.0,208.0,0
2539,-29.0,-42.0,205.0,0
2540,-25.0,-45.0,204.0,0
2541,-27.0,-44.0,209.0,0
2542,-26.0,-45.0,206.0,0
2543,-28.0,-43.0,205.0,0
2544,-33.0,-43.0,205.0,0
2545,-30.0,-44.0,203.0,0
2546,-32.0,-42.0,204.0,0
2547,-26.0,-42.0,202.0,0
2548,-26.0,-46.0,206.0,0
2549,-30.0,-44.0,204.0,0
2550,-33.0,-42.0,201.0,0
2551,-29.0,-45.0,200.0,0
2552,-29.0,-45.0,204.0,0
2553,-28.0,-44.0,204.0,0
2554,-28.0,-47.0,200.0,0
2555,-30.0,-43.0,210.0,0
2556,-30.0,-43.0,204.0,0
2557,-31.0,-44.0,203.0,0
2558,-30.0,-42.0,205.0,0
2559,-29.0,-46.0,204.0,0
2560,-30.0,-44.0,206.0,0
2561,-29.0,-45.0,206.0,0
2562,-28.0,-45.0,204.0,0
2563,-28.0,-43.0,198.0,0
2564,-29.0,-44.0,202.0,0
2565,-28.0,-42.0,206.0,0
2566,-26.0,-46.0,202.0,0
2567,-28.0,-45.0,206.0,0
2568,-29.0,-45.0,203.0,0
2569,-30.0,-47.0,205.0,0
2570,-26.0,-47.0,206.0,0
2571,-31.0,-42.0,205.0,0
2572,-30.0,-46.0,209.0,0
2573,-29.0,-44.0,202.0,0
2574,-27.0,-43.0,202.0,0
2575,-28.0,-45.0,207.0,0
2576,-29.0,-44.0,205.0,0
2577,-29.0,-49.0,204.0,0
2578,-28.0,-45.0,205.0,0
2579,-31.0,-44.0,205.0,0
2580,-28.0,-42.0,204.0,0
2581,-29.0,-43.0,203.0,0
2582,-29.0,-44.0,201.0,0
2583,-29.0,-45.0,203.0,0
2584,-28.0,-45.0,204.0,0
2585,-29.0,-44.0,203.0,0
2586,-29.0,-42.0,205.0,0
2587,-30.0,-42.0,205.0,0
2588,-29.0,-43.0,206.0,0
2589,-30.0,-45.0,206.0,0
2590,-26.0,-45.0,205.0,0
2591,-27.0,-44.0,207.0,0
2592,-26.0,-45.0,202.0,0
2593,-28.0,-45.0,206.0,0
2594,-30.0,-44.0,208.0,0
2595,-30.0,-43.0,206.0,0
2596,-27.0,-45.0,204.0,0
2597,-27.0,-48.0,206.0,0
2598,-29.0,-48.0,205.0,0
2599,-27.0,-48.0,207.0,0
2600,-29.0,-44.0,206.0,0
2601,-29.0,-44.0,202.0,0
2602,-31.0,-41.0,205.0,0
2603,-31.0,-41.0,202.0,0
2604,-28.0,-40.0,201.0,0
2605,-28.0,-46.0,207.0,0
2606,-30.0,-43.0,206.0,0
2607,-32.0,-47.0,205.0,0
2608,-29.0,-50.0,208.0,0
2609,-26.0,-51.0,205.0,0
2610,-25.0,-49.0,204.0,0
2611,-27.0,-49.0,208.0,0
2612,-27.0,-50.0,213.0,0
2613,-28.0,-49.0,208.0,0
2614,-29.0,-50.0,201.0,0
2615,-29.0,-46.0,198.0,0
2616,-31.0,-42.0,197.0,0
2617,-32.0,-43.0,199.0,0
2618,-30.0,-40.0,196.0,0
2619,-29.0,-46.0,195.0,0
2620,-31.0,-43.0,205.0,0
2621,-28.0,-45.0,203.0,0
2622,-32.0,-42.0,206.0,0
2623,-31.0,-41.0,206.0,0
2624,-30.0,-42.0,201.0,0
2625,-28.0,-44.0,204.0,0
2626,-30.0,-43.0,204.0,0
2627,-28.0,-43.0,203.0,0
2628,-29.0,-42.0,206.0,0
2629,-29.0,-44.0,205.0,0
2630,-29.0,-43.0,206.0,0
2631,-29.0,-43.0,207.0,0
2632,-27.0,-44.0,204.0,0
2633,-27.0,-46.0,203.0,0
2634,-27.0,-47.0,203.0,0
2635,-29.0,-46.0,205.0,0
2636,-29.0,-43.0,205.0,0
2637,-30.0,-40.0,207.0,0
2638,-30.0,-41.0,207.0,0
2639,-29.0,-39.0,204.0,0
2640,-32.0,-41.0,205.0,0
2641,-30.0,-43.0,205.0,0
2642,-30.0,-41.0,202.0,0
2643,-30.0,-43.0,205.0,0
2644,-30.0,-42.0,207.0,0
2645,-28.0,-43.0,203.0,0
2646,-29.0,-43.0,206.0,0
2647,-27.0,-41.0,203.0,0
2648,-29.0,-44.0,204.0,0
2649,-24.0,-45.0,199.0,0
2650,-26.0,-43.0,204.0,0
2651,-27.0,-42.0,207.0,0
2652,-30.0,-43.0,204.0,0
2653,-34.0,-42.0,208.0,0
2654,-29.0,-42.0,202.0,0
2655,-30.0,-43.0,206.0,0
2656,-31.0,-45.0,204.0,0
2657,-30.0,-44.0,205.0,0
2658,-26.0,-48.0,206.0,0
2659,-29.0,-48.0,203.0,0
2660,-30.0,-48.0,207.0,0
2661,-29.0,-47.0,204.0,0
2662,-29.0,-48.0,204.0,0
2663,-29.0,-46.0,205.0,0
2664,-28.0,-44.0,202.0,0
2665,-29.0,-45.0,202.0,0
2666,-30.0,-44.0,202.0,0
2667,-28.0,-46.0,203.0,0
2668,-30.0,-42.0,206.0,0
2669,-28.0,-44.0,204.0,0
2670,-29.0,-45.0,204.0,0
2671,-29.0,-45.0,203.0,0
2672,-31.0,-45.0,204.0,0
2673,-29.0,-45.0,205.0,0
2674,-28.0,-45.0,209.0,0
2675,-31.0,-41.0,202.0,0
2676,-29.0,-44.0,208.0,0
2677,-31.0,-44.0,204.0,0
2678,-28.0,-44.0,202.0,0
2679,-28.0,-41.0,206.0,0
2680,-28.0,-43.0,203.0,0
2681,-30.0,-43.0,202.0,0
2682,-28.0,-44.0,200.0,0
2683,-30.0,-46.0,206.0,0
2684,-28.0,-42.0,203.0,0
2685,-29.0,-43.0,208.0,0
2686,-27.0,-43.0,201.0,0
2687,-29.0,-43.0,203.0,0
2688,-31.0,-43.0,199.0,0
2689,-28.0,-43.0,205.0,0
2690,-30.0,-44.0,207.0,0
2691,-32.0,-41.0,207.0,0
2692,-31.0,-42.0,207.0,0
2693,-30.0,-41.0,204.0,0
2694,-29.0,-44.0,208.0,0
2695,-29.0,-42.0,206.0,0
2696,-29.0,-45.0,200.0,0
2697,-28.0,-46.0,205.0,0
2698,-28.0,-43.0,206.0,0
2699,-28.0,-45.0,200.0,0
2700,-30.0,-42.0,203.0,0
2701,-30.0,-43.0,206.0,0
2702,-29.0,-42.0,206.0,0
2703,-30.0,-43.0,202.0,0
2704,-30.0,-44.0,202.0,0
2705,-28.0,-44.0,204.0,0
2706,-30.0,-44.0,201.0,0
2707,-29.0,-43.0,204.0,0
2708,-29.0,-42.0,204.0,0
2709,-26.0,-45.0,203.0,0
2710,-31.0,-45.0,203.0,0
2711,-29.0,-42.0,204.0,0
2712,-29.0,-40.0,202.0,0
2713,-28.0,-46.0,203.0,0
2714,-30.0,-43.0,203.0,0
2715,-28.0,-45.0,202.0,0
2716,-30.0,-42.0,204.0,0
2717,-31.0,-43.0,203.0,0
2718,-27.0,-43.0,205.0,0
2719,-32.0,-44.0,207.0,0
2720,-28.0,-45.0,204.0,0
2721,-31.0,-43.0,206.0,0
2722,-29.0,-47.0,203.0,0
2723,-30.0,-43.0,206.0,0
2724,-30.0,-43.0,206.0,0
2725,-31.0,-42.0,207.0,0
2726,-31.0,-42.0,205.0,0
2727,-32.0,-42.0,201.0,0
2728,-31.0,-43.0,205.0,0
2729,-31.0,-44.0,204.0,0
2730,-31.0,-42.0,204.0,0
2731,-30.0,-44.0,204.0,0
2732,-29.0,-42.0,203.0,0
2733,-28.0,-45.0,202.0,0
2734,-29.0,-42.0,201.0,0
2735,-31.0,-41.0,207.0,0
2736,-30.0,-43.0,206.0,0
2737,-27.0,-44.0,202.0,0
2738,-30.0,-43.0,205.0,0
2739,-28.0,-43.0,202.0,0
2740,-30.0,-43.0,202.0,0
2741,-28.0,-43.0,203.0,0
2742,-30.0,-43.0,205.0,0
2743,-28.0,-46.0,205.0,0
2744,-28.0,-44.0,205.0,0
2745,-27.0,-41.0,204.0,0
2746,-32.0,-43.0,207.0,0
2747,-30.0,-44.0,203.0,0
2748,-27.0,-44.0,204.0,0
2749,-28.0,-45.0,206.0,0
2750,-27.0,-42.0,202.0,0
2751,-30.0,-43.0,207.0,0
2752,-30.0,-47.0,202.0,0
2753,-30.0,-47.0,207.0,0
2754,-31.0,-44.0,207.0,0
2755,-28.0,-43.0,204.0,0
2756,-29.0,-42.0,204.0,0
2757,-31.0,-42.0,204.0,0
2758,-32.0,-43.0,205.0,0
2759,-29.0,-44.0,202.0,0
2760,-32.0,-43.0,207.0,0
2761,-31.0,-45.0,203.0,0
2762,-29.0,-45.0,206.0,0
2763,-29.0,-48.0,205.0,0
2764,-29.0,-48.0,206.0,0
2765,-29.0,-47.0,206.0,0
2766,-30.0,-47.0,206.0,0
2767,-29.0,-50.0,205.0,0
2768,-30.0,-47.0,207.0,0
2769,-26.0,-50.0,208.0,0
2770,-30.0,-45.0,202.0,0
2771,-27.0,-43.0,200.0,0
2772,-29.0,-43.0,201.0,0
2773,-31.0,-42.0,199.0,0
2774,-31.0,-40.0,202.0,0
2775,-33.0,-43.0,202.0,0
2776,-30.0,-43.0,206.0,0
2777,-26.0,-45.0,206.0,0
2778,-27.0,-44.0,204.0,0
2779,-32.0,-44.0,206.0,0
2780,-30.0,-45.0,200.0,0
2781,-30.0,-43.0,205.0,0
2782,-32.0,-42.0,200.0,0
2783,-30.0,-43.0,206.0,0
2784,-29.0,-42.0,208.0,0
2785,-28.0,-41.0,207.0,0
2786,-30.0,-40.0,207.0,0
2787,-29.0,-44.0,207.0,0
2788,-29.0,-45.0,200.0,0
2789,-30.0,-42.0,207.0,0
2790,-28.0,-42.0,201.0,0
2791,-32.0,-38.0,207.0,0
2792,-30.0,-40.0,205.0,0
2793,-30.0,-41.0,208.0,0
2794,-31.0,-41.0,199.0,0
2795,-27.0,-42.0,200.0,0
2796,-32.0,-41.0,204.0,0
2797,-31.0,-41.0,206.0,0
2798,-31.0,-43.0,208.0,0
2799,-30.0,-44.0,203.0,0
2800,-30.0,-42.0,205.0,0
2801,-30.0,-44.0,202.0,0
2802,-30.0,-44.0,202.0,0
2803,-30.0,-45.0,206.0,0
2804,-30.0,-42.0,207.0,0
2805,-31.0,-43.0,201.0,0
2806,-31.0,-43.0,205.0,0
2807,-32.0,-43.0,203.0,0
2808,-30.0,-45.0,205.0,0
2809,-29.0,-43.0,207.0,0
2810,-33.0,-43.0,204.0,0
2811,-29.0,-41.0,206.0,0
2812,-27.0,-46.0,201.0,0
2813,-31.0,-44.0,205.0,0
2814,-31.0,-45.0,204.0,0
2815,-33.0,-43.0,204.0,0
2816,-26.0,-44.0,202.0,0
2817,-32.0,-44.0,204.0,0
2818,-32.0,-44.0,203.0,0
2819,-30.0,-47.0,200.0,0
2820,-30.0,-44.0,205.0,0
2821,-31.0,-45.0,207.0,0
2822,-27.0,-47.0,202.0,0
2823,-29.0,-44.0,202.0,0
2824,-29.0,-44.0,206.0,0
2825,-31.0,-41.0,203.0,0
2826,-28.0,-47.0,203.0,0
2827,-29.0,-47.0,204.0,0
2828,-31.0,-43.0,203.0,0
2829,-30.0,-44.0,204.0,0
2830,-32.0,-46.0,203.0,0
2831,-30.0,-45.0,205.0,0
2832,-28.0,-43.0,207.0,0
2833,-28.0,-45.0,203.0,0
2834,-28.0,-44.0,207.0,0
2835,-32.0,-43.0,206.0,0
2836,-26.0,-43.0,206.0,0
2837,-27.0,-46.0,204.0,0
2838,-32.0,-42.0,204.0,0
2839,-30.0,-43.0,206.0,0
2840,-33.0,-43.0,203.0,0
2841,-30.0,-43.0,205.0,0
2842,-31.0,-44.0,204.0,0
2843,-29.0,-46.0,206.0,0
2844,-27.0,-44.0,205.0,0
2845,-33.0,-43.0,208.0,0
2846,-29.0,-46.0,210.0,0
2847,-32.0,-41.0,207.0,0
2848,-33.0,-43.0,208.0,0
2849,-31.0,-44.0,209.0,0
2850,-28.0,-42.0,210.0,0
2851,-30.0,-45.0,208.0,0
2852,-32.0,-43.0,207.0,0
2853,-33.0,-43.0,206.0,0
2854,-30.0,-45.0,202.0,0
2855,-29.0,-43.0,204.0,0
2856,-28.0,-45.0,202.0,0
2857,-29.0,-48.0,204.0,0
2858,-24.0,-37.0,208.0,0
2859,-23.0,-50.0,191.0,0
2860,-30.0,-48.0,199.0,0
2861,-30.0,-48.0,202.0,0
2862,-33.0,-45.0,200.0,0
2863,-30.0,-44.0,200.0,0
2864,-32.0,-43.0,202.0,0
2865,-32.0,-42.0,202.0,0
2866,-30.0,-45.0,203.0,0
2867,-29.0,-44.0,201.0,0
2868,-30.0,-44.0,201.0,0
2869,-32.0,-41.0,198.0,0
2870,-33.0,-44.0,203.0,0
2871,-32.0,-45.0,203.0,0
2872,-32.0,-46.0,202.0,0
2873,-33.0,-44.0,201.0,0
2874,-32.0,-44.0,201.0,0
2875,-34.0,-45.0,199.0,0
2876,-33.0,-43.0,203.0,0
2877,-30.0,-46.0,200.0,0
2878,-34.0,-47.0,203.0,0
2879,-36.0,-44.0,203.0,0
2880,-31.0,-45.0,204.0,0
2881,-30.0,-47.0,207.0,0
2882,-31.0,-47.0,206.0,0
2883,-31.0,-45.0,203.0,0
2884,-32.0,-44.0,203.0,0
2885,-35.0,-46.0,206.0,0
2886,-33.0,-47.0,201.0,0
2887,-33.0,-45.0,205.0,0
2888,-31.0,-46.0,201.0,0
2889,-31.0,-44.0,198.0,0
2890,-31.0,-44.0,198.0,0
2891,-32.0,-45.0,205.0,0
2892,-32.0,-41.0,204.0,0
2893,-33.0,-46.0,206.0,0
2894,-32.0,-46.0,206.0,0
2895,-33.0,-45.0,204.0,0
2896,-34.0,-42.0,204.0,0
2897,-32.0,-46.0,210.0,0
2898,-32.0,-44.0,204.0,0
2899,-30.0,-42.0,202.0,0
2900,-29.0,-43.0,203.0,0
2901,-32.0,-44.0,204.0,0
2902,-30.0,-41.0,203.0,0
2903,-30.0,-44.0,204.0,0
2904,-30.0,-43.0,207.0,0
2905,-32.0,-44.0,206.0,0
2906,-28.0,-44.0,201.0,0
2907,-32.0,-41.0,205.0,0
2908,-31.0,-42.0,207.0,0
2909,-30.0,-43.0,206.0,0
2910,-29.0,-46.0,206.0,0
2911,-30.0,-43.0,208.0,0
2912,-30.0,-43.0,206.0,0
2913,-30.0,-47.0,205.0,0
2914,-31.0,-46.0,206.0,0
2915,-31.0,-43.0,212.0,0
2916,-27.0,-45.0,206.0,0
2917,-31.0,-44.0,203.0,0
2918,-29.0,-44.0,207.0,0
2919,-33.0,-41.0,204.0,0
2920,-33.0,-42.0,205.0,0
2921,-30.0,-41.0,204.0,0
2922,-34.0,-41.0,205.0,0
2923,-32.0,-41.0,205.0,0
2924,-32.0,-43.0,206.0,0
2925,-33.0,-45.0,209.0,0
2926,-30.0,-49.0,208.0,0
2927,-31.0,-49.0,204.0,0
2928,-32.0,-46.0,204.0,0
2929,-32.0,-46.0,204.0,0
2930,-32.0,-47.0,202.0,0
2931,-32.0,-48.0,206.0,0
2932,-34.0,-49.0,208.0,0
2933,-33.0,-49.0,206.0,0
2934,-29.0,-49.0,205.0,0
2935,-32.0,-46.0,200.0,0
2936,-33.0,-43.0,200.0,0
2937,-33.0,-43.0,199.0,0
2938,-32.0,-42.0,198.0,0
2939,-32.0,-45.0,200.0,0
2940,-33.0,-43.0,205.0,0
2941,-31.0,-42.0,204.0,0
2942,-34.0,-39.0,206.0,0
2943,-34.0,-39.0,203.0,0
2944,-35.0,-41.0,204.0,0
2945,-29.0,-41.0,200.0,0
2946,-30.0,-43.0,199.0,0
2947,-33.0,-42.0,202.0,0
2948,-33.0,-46.0,200.0,0
2949,-33.0,-44.0,206.0,0
2950,-36.0,-42.0,202.0,0
2951,-31.0,-43.0,203.0,0
2952,-34.0,-41.0,201.0,0
2953,-32.0,-41.0,202.0,0
2954,-30.0,-44.0,204.0,0
2955,-30.0,-43.0,208.0,0
2956,-34.0,-43.0,205.0,0
2957,-32.0,-40.0,204.0,0
2958,-29.0,-44.0,208.0,0
2959,-32.0,-41.0,205.0,0
2960,-34.0,-41.0,207.0,0
2961,-32.0,-42.0,207.0,0
2962,-30.0,-44.0,207.0,0
2963,-32.0,-44.0,202.0,0
2964,-33.0,-45.0,207.0,0
2965,-34.0,-47.0,207.0,0
2966,-30.0,-48.0,206.0,0
2967,-31.0,-48.0,204.0,0
2968,-32.0,-46.0,204.0,0
2969,-33.0,-46.0,205.0,0
2970,-32.0,-42.0,205.0,0
2971,-32.0,-45.0,204.0,0
2972,-28.0,-49.0,205.0,0
2973,-32.0,-44.0,204.0,0
2974,-32.0,-46.0,199.0,0
2975,-30.0,-44.0,202.0,0
2976,-30.0,-44.0,204.0,0
2977,-32.0,-40.0,202.0,0
2978,-32.0,-43.0,205.0,0
2979,-29.0,-46.0,203.0,0
2980,-30.0,-47.0,200.0,0
2981,-33.0,-44.0,200.0,0
2982,-31.0,-46.0,200.0,0
2983,-31.0,-44.0,204.0,0
2984,-35.0,-40.0,205.0,0
2985,-31.0,-46.0,208.0,0
2986,-30.0,-45.0,205.0,0
2987,-27.0,-48.0,197.0,0
2988,-27.0,-48.0,203.0,0
2989,-31.0,-44.0,207.0,0
2990,-30.0,-47.0,201.0,0
2991,-30.0,-46.0,206.0,0
2992,-33.0,-43.0,204.0,0
2993,-33.0,-44.0,204.0,0
2994,-30.0,-43.0,204.0,0
2995,-28.0,-43.0,203.0,0
2996,-32.0,-45.0,201.0,0
2997,-30.0,-47.0,202.0,0
2998,-33.0,-44.0,204.0,0
2999,-33.0,-46.0,207.0,0
