,accelerometer_x,accelerometer_y,accelerometer_z,fall
0,-3.0,-227.0,75.0,0
1,-5.0,-226.0,75.0,0
2,-4.0,-229.0,71.0,0
3,-1.0,-229.0,74.0,0
4,-2.0,-229.0,77.0,0
5,-2.0,-228.0,75.0,0
6,-3.0,-228.0,78.0,0
7,-3.0,-227.0,72.0,0
8,-3.0,-229.0,73.0,0
9,0.0,-229.0,76.0,0
10,0.0,-228.0,75.0,0
11,-5.0,-225.0,75.0,0
12,-2.0,-226.0,71.0,0
13,-2.0,-226.0,76.0,0
14,-2.0,-230.0,73.0,0
15,-1.0,-226.0,74.0,0
16,-3.0,-228.0,75.0,0
17,-4.0,-227.0,72.0,0
18,-4.0,-226.0,73.0,0
19,-4.0,-228.0,73.0,0
20,-4.0,-226.0,74.0,0
21,-2.0,-227.0,73.0,0
22,-3.0,-228.0,71.0,0
23,-5.0,-230.0,79.0,0
24,-3.0,-233.0,77.0,0
25,-2.0,-230.0,79.0,0
26,-4.0,-227.0,78.0,0
27,-7.0,-227.0,74.0,0
28,-3.0,-231.0,73.0,0
29,-5.0,-230.0,76.0,0
30,-2.0,-228.0,77.0,0
31,-4.0,-224.0,72.0,0
32,-4.0,-228.0,70.0,0
33,-4.0,-230.0,75.0,0
34,-3.0,-225.0,73.0,0
35,-1.0,-230.0,73.0,0
36,-4.0,-227.0,72.0,0
37,-5.0,-227.0,73.0,0
38,-4.0,-227.0,71.0,0
39,-3.0,-230.0,72.0,0
40,-4.0,-232.0,74.0,0
41,-2.0,-230.0,74.0,0
42,-3.0,-231.0,70.0,0
43,-3.0,-225.0,73.0,0
44,-5.0,-225.0,72.0,0
45,-4.0,-227.0,74.0,0
46,-2.0,-228.0,78.0,0
47,-6.0,-227.0,77.0,0
48,-4.0,-227.0,75.0,0
49,-4.0,-231.0,73.0,0
50,-5.0,-229.0,75.0,0
51,-6.0,-229.0,72.0,0
52,-4.0,-227.0,71.0,0
53,-5.0,-228.0,71.0,0
54,-3.0,-227.0,72.0,0
55,-3.0,-226.0,75.0,0
56,-3.0,-230.0,71.0,0
57,-2.0,-229.0,72.0,0
58,-4.0,-228.0,72.0,0
59,-4.0,-229.0,75.0,0
60,-2.0,-230.0,71.0,0
61,-5.0,-228.0,72.0,0
62,-5.0,-227.0,72.0,0
63,-2.0,-231.0,72.0,0
64,-1.0,-231.0,72.0,0
65,-2.0,-227.0,74.0,0
66,-4.0,-231.0,74.0,0
67,-2.0,-228.0,74.0,0
68,-3.0,-231.0,75.0,0
69,-1.0,-232.0,78.0,0
70,-5.0,-230.0,73.0,0
71,-4.0,-230.0,76.0,0
72,-4.0,-229.0,73.0,0
73,-3.0,-230.0,73.0,0
74,-3.0,-232.0,74.0,0
75,-5.0,-227.0,75.0,0
76,-7.0,-228.0,74.0,0
77,-3.0,-227.0,72.0,0
78,-4.0,-226.0,75.0,0
79,-2.0,-229.0,69.0,0
80,-3.0,-227.0,73.0,0
81,-4.0,-227.0,71.0,0
82,-5.0,-227.0,71.0,0
83,-2.0,-229.0,73.0,0
84,1.0,-227.0,72.0,0
85,-3.0,-227.0,75.0,0
86,0.0,-231.0,74.0,0
87,-5.0,-231.0,74.0,0
88,-5.0,-229.0,76.0,0
89,-2.0,-229.0,74.0,0
90,-4.0,-230.0,77.0,0
91,-3.0,-229.0,75.0,0
92,-2.0,-231.0,74.0,0
93,-4.0,-231.0,74.0,0
94,-3.0,-226.0,71.0,0
95,-5.0,-226.0,72.0,0
96,-1.0,-229.0,72.0,0
97,-5.0,-224.0,71.0,0
98,-8.0,-225.0,73.0,0
99,-1.0,-228.0,72.0,0
100,-1.0,-225.0,71.0,0
101,-2.0,-226.0,71.0,0
102,-6.0,-223.0,73.0,0
103,-2.0,-227.0,71.0,0
104,-4.0,-227.0,70.0,0
105,-3.0,-225.0,74.0,0
106,-2.0,-228.0,74.0,0
107,-1.0,-228.0,75.0,0
108,-6.0,-228.0,73.0,0
109,-2.0,-228.0,75.0,0
110,-4.0,-231.0,74.0,0
111,-2.0,-228.0,72.0,0
112,0.0,-230.0,71.0,0
113,-3.0,-228.0,74.0,0
114,-2.0,-227.0,76.0,0
115,-2.0,-228.0,77.0,0
116,-3.0,-228.0,71.0,0
117,-2.0,-229.0,73.0,0
118,-1.0,-227.0,72.0,0
119,-2.0,-224.0,71.0,0
120,-2.0,-225.0,74.0,0
121,0.0,-230.0,72.0,0
122,1.0,-228.0,73.0,0
123,0.0,-231.0,74.0,0
124,-3.0,-227.0,74.0,0
125,-2.0,-229.0,74.0,0
126,-4.0,-230.0,73.0,0
127,0.0,-230.0,74.0,0
128,-1.0,-230.0,72.0,0
129,-2.0,-229.0,73.0,0
130,1.0,-230.0,71.0,0
131,-3.0,-228.0,72.0,0
132,-2.0,-229.0,69.0,0
133,-3.0,-233.0,73.0,0
134,0.0,-231.0,75.0,0
135,-1.0,-229.0,73.0,0
136,-2.0,-230.0,75.0,0
137,-1.0,-233.0,72.0,0
138,-3.0,-227.0,73.0,0
139,-2.0,-228.0,68.0,0
140,-3.0,-229.0,71.0,0
141,-4.0,-229.0,71.0,0
142,-4.0,-230.0,71.0,0
143,-2.0,-230.0,70.0,0
144,-2.0,-231.0,67.0,0
145,-2.0,-230.0,70.0,0
146,0.0,-232.0,70.0,0
147,-4.0,-229.0,72.0,0
148,-3.0,-228.0,70.0,0
149,-2.0,-230.0,70.0,0
150,-5.0,-228.0,73.0,0
151,-2.0,-229.0,72.0,0
152,-2.0,-229.0,74.0,0
153,-2.0,-230.0,72.0,0
154,-2.0,-232.0,72.0,0
155,-7.0,-230.0,75.0,0
156,-6.0,-232.0,77.0,0
157,-4.0,-231.0,72.0,0
158,-3.0,-231.0,69.0,0
159,-3.0,-231.0,71.0,0
160,-2.0,-230.0,70.0,0
161,-5.0,-230.0,68.0,0
162,-4.0,-229.0,71.0,0
163,-4.0,-231.0,70.0,0
164,-2.0,-231.0,70.0,0
165,-6.0,-231.0,69.0,0
166,-5.0,-228.0,69.0,0
167,-5.0,-231.0,69.0,0
168,-5.0,-231.0,64.0,0
169,-3.0,-229.0,70.0,0
170,-3.0,-231.0,72.0,0
171,-3.0,-229.0,70.0,0
172,-2.0,-233.0,72.0,0
173,-4.0,-228.0,70.0,0
174,-5.0,-231.0,70.0,0
175,-7.0,-229.0,71.0,0
176,-4.0,-228.0,71.0,0
177,-3.0,-231.0,68.0,0
178,-3.0,-229.0,70.0,0
179,-2.0,-231.0,71.0,0
180,-1.0,-233.0,68.0,0
181,-2.0,-229.0,65.0,0
182,-4.0,-230.0,69.0,0
183,-4.0,-232.0,70.0,0
184,-4.0,-233.0,67.0,0
185,-3.0,-228.0,70.0,0
186,-2.0,-233.0,69.0,0
187,-2.0,-234.0,69.0,0
188,-4.0,-232.0,72.0,0
189,-5.0,-232.0,72.0,0
190,-6.0,-228.0,71.0,0
191,-4.0,-230.0,71.0,0
192,-2.0,-231.0,71.0,0
193,-7.0,-231.0,69.0,0
194,-5.0,-229.0,69.0,0
195,-4.0,-229.0,69.0,0
196,-8.0,-225.0,71.0,0
197,-5.0,-225.0,69.0,0
198,-4.0,-227.0,64.0,0
199,-6.0,-226.0,66.0,0
200,-8.0,-226.0,64.0,0
201,-8.0,-225.0,64.0,0
202,-6.0,-228.0,66.0,0
203,-4.0,-226.0,64.0,0
204,-9.0,-227.0,64.0,0
205,-6.0,-226.0,65.0,0
206,-8.0,-226.0,65.0,0
207,-8.0,-229.0,67.0,0
208,-5.0,-231.0,65.0,0
209,-7.0,-231.0,64.0,0
210,-8.0,-233.0,63.0,0
211,-8.0,-232.0,62.0,0
212,-9.0,-235.0,65.0,0
213,-5.0,-237.0,61.0,0
214,-5.0,-239.0,63.0,0
215,-4.0,-239.0,61.0,0
216,-6.0,-241.0,63.0,0
217,-1.0,-240.0,62.0,0
218,1.0,-243.0,65.0,0
219,-1.0,-242.0,68.0,0
220,-1.0,-240.0,65.0,0
221,-1.0,-235.0,61.0,0
222,1.0,-237.0,63.0,0
223,1.0,-237.0,65.0,0
224,6.0,-238.0,61.0,0
225,5.0,-239.0,61.0,0
226,9.0,-236.0,56.0,0
227,6.0,-237.0,62.0,0
228,6.0,-237.0,62.0,0
229,8.0,-241.0,58.0,0
230,9.0,-238.0,60.0,0
231,9.0,-236.0,56.0,0
232,9.0,-236.0,62.0,0
233,7.0,-239.0,61.0,0
234,8.0,-238.0,66.0,0
235,8.0,-237.0,64.0,0
236,6.0,-236.0,64.0,0
237,6.0,-236.0,66.0,0
238,7.0,-236.0,62.0,0
239,3.0,-235.0,64.0,0
240,4.0,-236.0,61.0,0
241,-2.0,-235.0,67.0,0
242,-2.0,-235.0,65.0,0
243,1.0,-237.0,65.0,0
244,-2.0,-235.0,63.0,0
245,-3.0,-236.0,64.0,0
246,-5.0,-238.0,62.0,0
247,-7.0,-236.0,60.0,0
248,-9.0,-237.0,62.0,0
249,-11.0,-238.0,62.0,0
250,-11.0,-240.0,61.0,0
251,-10.0,-238.0,65.0,0
252,-8.0,-241.0,64.0,0
253,-14.0,-236.0,62.0,0
254,-13.0,-233.0,61.0,0
255,-11.0,-233.0,69.0,0
256,-12.0,-233.0,61.0,0
257,-15.0,-228.0,63.0,0
258,-14.0,-230.0,67.0,0
259,-16.0,-229.0,63.0,0
260,-13.0,-232.0,65.0,0
261,-16.0,-230.0,66.0,0
262,-15.0,-230.0,63.0,0
263,-12.0,-230.0,66.0,0
264,-15.0,-229.0,65.0,0
265,-14.0,-235.0,65.0,0
266,-12.0,-232.0,66.0,0
267,-13.0,-232.0,67.0,0
268,-14.0,-231.0,67.0,0
269,-12.0,-234.0,61.0,0
270,-13.0,-232.0,61.0,0
271,-11.0,-234.0,60.0,0
272,-12.0,-231.0,60.0,0
273,-14.0,-233.0,61.0,0
274,-10.0,-229.0,57.0,0
275,-11.0,-230.0,61.0,0
276,-8.0,-233.0,59.0,0
277,-4.0,-230.0,51.0,0
278,-5.0,-237.0,66.0,0
279,-7.0,-236.0,62.0,0
280,-1.0,-239.0,64.0,0
281,-5.0,-238.0,63.0,0
282,-4.0,-240.0,67.0,0
283,-5.0,-239.0,65.0,0
284,-5.0,-238.0,65.0,0
285,-3.0,-239.0,68.0,0
286,-4.0,-235.0,68.0,0
287,0.0,-236.0,68.0,0
288,-2.0,-233.0,69.0,0
289,1.0,-233.0,67.0,0
290,-4.0,-230.0,63.0,0
291,-2.0,-229.0,64.0,0
292,-2.0,-227.0,62.0,0
293,2.0,-225.0,64.0,0
294,0.0,-228.0,60.0,0
295,-3.0,-227.0,63.0,0
296,-1.0,-224.0,62.0,0
297,-2.0,-227.0,62.0,0
298,0.0,-229.0,67.0,0
299,-8.0,-231.0,61.0,0
300,-5.0,-233.0,66.0,0
301,-8.0,-233.0,64.0,0
302,-10.0,-235.0,63.0,0
303,-10.0,-235.0,61.0,0
304,-7.0,-238.0,64.0,0
305,-9.0,-240.0,66.0,0
306,-10.0,-242.0,64.0,0
307,-13.0,-240.0,68.0,0
308,-11.0,-237.0,64.0,0
309,-10.0,-241.0,68.0,0
310,-11.0,-238.0,69.0,0
311,-11.0,-241.0,69.0,0
312,-12.0,-240.0,67.0,0
313,-13.0,-237.0,69.0,0
314,-11.0,-237.0,65.0,0
315,-13.0,-237.0,65.0,0
316,-16.0,-233.0,65.0,0
317,-15.0,-234.0,65.0,0
318,-16.0,-230.0,64.0,0
319,-15.0,-231.0,61.0,0
320,-14.0,-235.0,63.0,0
321,-16.0,-228.0,62.0,0
322,-16.0,-230.0,62.0,0
323,-16.0,-229.0,61.0,0
324,-16.0,-226.0,62.0,0
325,-16.0,-226.0,59.0,0
326,-19.0,-224.0,57.0,0
327,-18.0,-227.0,60.0,0
328,-16.0,-230.0,64.0,0
329,-16.0,-229.0,63.0,0
330,-18.0,-229.0,67.0,0
331,-16.0,-229.0,68.0,0
332,-16.0,-232.0,69.0,0
333,-16.0,-230.0,70.0,0
334,-16.0,-234.0,72.0,0
335,-18.0,-234.0,69.0,0
336,-16.0,-233.0,67.0,0
337,-16.0,-232.0,69.0,0
338,-14.0,-236.0,71.0,0
339,-15.0,-235.0,70.0,0
340,-11.0,-236.0,71.0,0
341,-11.0,-234.0,71.0,0
342,-12.0,-232.0,80.0,0
343,-12.0,-234.0,74.0,0
344,-13.0,-232.0,74.0,0
345,-11.0,-233.0,72.0,0
346,-11.0,-234.0,74.0,0
347,-11.0,-229.0,72.0,0
348,-6.0,-231.0,71.0,0
349,-9.0,-228.0,70.0,0
350,-8.0,-227.0,70.0,0
351,-9.0,-225.0,66.0,0
352,-9.0,-228.0,61.0,0
353,-9.0,-226.0,62.0,0
354,-9.0,-222.0,66.0,0
355,-10.0,-223.0,63.0,0
356,-7.0,-225.0,65.0,0
357,-6.0,-225.0,70.0,0
358,-8.0,-223.0,66.0,0
359,-8.0,-226.0,67.0,0
360,-7.0,-232.0,69.0,0
361,-9.0,-229.0,72.0,0
362,-9.0,-235.0,70.0,0
363,-11.0,-237.0,71.0,0
364,-14.0,-239.0,69.0,0
365,-13.0,-235.0,70.0,0
366,-12.0,-237.0,67.0,0
367,-11.0,-237.0,66.0,0
368,-9.0,-237.0,68.0,0
369,-14.0,-232.0,69.0,0
370,-15.0,-235.0,68.0,0
371,-13.0,-232.0,68.0,0
372,-14.0,-229.0,66.0,0
373,-16.0,-230.0,63.0,0
374,-14.0,-227.0,62.0,0
375,-16.0,-223.0,63.0,0
376,-18.0,-223.0,62.0,0
377,-16.0,-225.0,61.0,0
378,-21.0,-227.0,57.0,0
379,-16.0,-227.0,58.0,0
380,-16.0,-231.0,59.0,0
381,-19.0,-233.0,62.0,0
382,-17.0,-237.0,62.0,0
383,-17.0,-242.0,65.0,0
384,-21.0,-245.0,69.0,0
385,-18.0,-247.0,68.0,0
386,-16.0,-245.0,71.0,0
387,-18.0,-248.0,68.0,0
388,-19.0,-247.0,67.0,0
389,-18.0,-248.0,68.0,0
390,-18.0,-248.0,68.0,0
391,-16.0,-247.0,67.0,0
392,-16.0,-245.0,68.0,0
393,-15.0,-239.0,68.0,0
394,-13.0,-240.0,67.0,0
395,-14.0,-237.0,65.0,0
396,-9.0,-236.0,65.0,0
397,-10.0,-235.0,70.0,0
398,-9.0,-233.0,70.0,0
399,-8.0,-231.0,66.0,0
400,-8.0,-234.0,69.0,0
401,-5.0,-232.0,74.0,0
402,-6.0,-235.0,74.0,0
403,-6.0,-233.0,73.0,0
404,-7.0,-234.0,72.0,0
405,-4.0,-230.0,76.0,0
406,-6.0,-231.0,73.0,0
407,-6.0,-231.0,73.0,0
408,-6.0,-227.0,77.0,0
409,-3.0,-224.0,74.0,0
410,-9.0,-221.0,69.0,0
411,-12.0,-220.0,72.0,0
412,-11.0,-219.0,69.0,0
413,-14.0,-220.0,69.0,0
414,-16.0,-221.0,67.0,0
415,-16.0,-222.0,68.0,0
416,-16.0,-225.0,64.0,0
417,-19.0,-224.0,62.0,0
418,-25.0,-227.0,67.0,0
419,-28.0,-229.0,66.0,0
420,-33.0,-231.0,68.0,0
421,-34.0,-231.0,72.0,0
422,-43.0,-230.0,73.0,0
423,-46.0,-230.0,74.0,0
424,-48.0,-232.0,74.0,0
425,-55.0,-231.0,77.0,0
426,-55.0,-230.0,74.0,0
427,-57.0,-229.0,74.0,0
428,-60.0,-226.0,71.0,0
429,-60.0,-226.0,73.0,0
430,-66.0,-220.0,74.0,0
431,-67.0,-223.0,76.0,0
432,-69.0,-220.0,72.0,0
433,-72.0,-218.0,75.0,0
434,-69.0,-218.0,70.0,0
435,-70.0,-216.0,73.0,0
436,-76.0,-218.0,73.0,0
437,-72.0,-215.0,74.0,0
438,-72.0,-216.0,71.0,0
439,-68.0,-216.0,69.0,0
440,-72.0,-213.0,67.0,0
441,-68.0,-212.0,64.0,0
442,-68.0,-211.0,65.0,0
443,-68.0,-212.0,66.0,0
444,-64.0,-215.0,68.0,0
445,-63.0,-219.0,67.0,0
446,-63.0,-217.0,65.0,0
447,-66.0,-213.0,72.0,0
448,-68.0,-216.0,65.0,0
449,-69.0,-218.0,71.0,0
450,-66.0,-217.0,68.0,0
451,-70.0,-225.0,72.0,0
452,-71.0,-220.0,73.0,0
453,-76.0,-216.0,74.0,0
454,-76.0,-217.0,78.0,0
455,-77.0,-214.0,76.0,0
456,-78.0,-216.0,75.0,0
457,-78.0,-213.0,75.0,0
458,-79.0,-212.0,73.0,0
459,-80.0,-210.0,73.0,0
460,-84.0,-210.0,72.0,0
461,-83.0,-211.0,67.0,0
462,-87.0,-209.0,69.0,0
463,-81.0,-214.0,61.0,0
464,-76.0,-215.0,62.0,0
465,-106.0,-206.0,56.0,0
466,-107.0,-208.0,58.0,0
467,-107.0,-206.0,57.0,0
468,-100.0,-212.0,59.0,0
469,-102.0,-213.0,58.0,0
470,-99.0,-217.0,60.0,0
471,-104.0,-216.0,62.0,0
472,-106.0,-213.0,65.0,0
473,-99.0,-212.0,68.0,0
474,-101.0,-212.0,69.0,0
475,-102.0,-208.0,70.0,0
476,-101.0,-205.0,70.0,0
477,-101.0,-210.0,69.0,0
478,-101.0,-209.0,68.0,0
479,-100.0,-208.0,71.0,0
480,-99.0,-209.0,70.0,0
481,-97.0,-210.0,72.0,0
482,-100.0,-210.0,72.0,0
483,-102.0,-211.0,73.0,0
484,-103.0,-207.0,69.0,0
485,-103.0,-208.0,71.0,0
486,-102.0,-207.0,71.0,0
487,-108.0,-206.0,70.0,0
488,-106.0,-204.0,69.0,0
489,-109.0,-204.0,71.0,0
490,-113.0,-198.0,67.0,0
491,-113.0,-197.0,64.0,0
492,-114.0,-196.0,66.0,0
493,-118.0,-194.0,65.0,0
494,-117.0,-194.0,66.0,0
495,-117.0,-195.0,64.0,0
496,-115.0,-193.0,62.0,0
497,-119.0,-194.0,65.0,0
498,-122.0,-197.0,60.0,0
499,-122.0,-196.0,62.0,0
500,-122.0,-196.0,64.0,0
501,-124.0,-197.0,61.0,0
502,-123.0,-198.0,65.0,0
503,-126.0,-199.0,63.0,0
504,-130.0,-202.0,66.0,0
505,-127.0,-200.0,65.0,0
506,-127.0,-201.0,66.0,0
507,-124.0,-202.0,68.0,0
508,-123.0,-200.0,67.0,0
509,-122.0,-198.0,64.0,0
510,-121.0,-197.0,66.0,0
511,-122.0,-198.0,62.0,0
512,-118.0,-197.0,57.0,0
513,-115.0,-194.0,59.0,0
514,-115.0,-193.0,61.0,0
515,-113.0,-193.0,58.0,0
516,-111.0,-197.0,56.0,0
517,-115.0,-194.0,55.0,0
518,-113.0,-194.0,56.0,0
519,-117.0,-195.0,53.0,0
520,-118.0,-196.0,56.0,0
521,-119.0,-195.0,54.0,0
522,-123.0,-197.0,55.0,0
523,-128.0,-199.0,55.0,0
524,-132.0,-200.0,54.0,0
525,-135.0,-199.0,52.0,0
526,-134.0,-199.0,60.0,0
527,-136.0,-201.0,55.0,0
528,-140.0,-198.0,56.0,0
529,-135.0,-203.0,52.0,0
530,-136.0,-201.0,57.0,0
531,-132.0,-200.0,59.0,0
532,-134.0,-198.0,53.0,0
533,-136.0,-194.0,56.0,0
534,-138.0,-190.0,51.0,0
535,-138.0,-188.0,55.0,0
536,-134.0,-189.0,54.0,0
537,-139.0,-186.0,56.0,0
538,-138.0,-186.0,51.0,0
539,-142.0,-184.0,49.0,0
540,-143.0,-188.0,49.0,0
541,-144.0,-188.0,53.0,0
542,-145.0,-187.0,56.0,0
543,-144.0,-191.0,52.0,0
544,-148.0,-190.0,55.0,0
545,-146.0,-192.0,55.0,0
546,-148.0,-192.0,59.0,0
547,-144.0,-191.0,57.0,0
548,-146.0,-192.0,54.0,0
549,-145.0,-191.0,57.0,0
550,-144.0,-189.0,51.0,0
551,-143.0,-192.0,55.0,0
552,-139.0,-193.0,50.0,0
553,-140.0,-192.0,45.0,0
554,-140.0,-189.0,48.0,0
555,-144.0,-192.0,46.0,0
556,-144.0,-191.0,47.0,0
557,-142.0,-192.0,45.0,0
558,-144.0,-191.0,46.0,0
559,-144.0,-193.0,47.0,0
560,-147.0,-191.0,50.0,0
561,-144.0,-192.0,48.0,0
562,-142.0,-189.0,48.0,0
563,-143.0,-189.0,46.0,0
564,-144.0,-187.0,47.0,0
565,-143.0,-184.0,47.0,0
566,-141.0,-185.0,47.0,0
567,-144.0,-181.0,49.0,0
568,-144.0,-184.0,44.0,0
569,-144.0,-182.0,49.0,0
570,-144.0,-183.0,48.0,0
571,-145.0,-185.0,50.0,0
572,-148.0,-183.0,49.0,0
573,-147.0,-184.0,50.0,0
574,-150.0,-182.0,51.0,0
575,-154.0,-184.0,47.0,0
576,-160.0,-181.0,53.0,0
577,-162.0,-181.0,55.0,0
578,-163.0,-181.0,55.0,0
579,-167.0,-178.0,57.0,0
580,-165.0,-179.0,62.0,0
581,-168.0,-174.0,58.0,0
582,-169.0,-176.0,61.0,0
583,-172.0,-172.0,58.0,0
584,-170.0,-169.0,59.0,0
585,-173.0,-171.0,58.0,0
586,-171.0,-168.0,54.0,0
587,-169.0,-166.0,55.0,0
588,-170.0,-166.0,56.0,0
589,-173.0,-162.0,51.0,0
590,-167.0,-165.0,56.0,0
591,-164.0,-164.0,55.0,0
592,-169.0,-162.0,50.0,0
593,-167.0,-165.0,47.0,0
594,-166.0,-164.0,49.0,0
595,-169.0,-168.0,46.0,0
596,-170.0,-168.0,46.0,0
597,-172.0,-168.0,50.0,0
598,-172.0,-169.0,51.0,0
599,-174.0,-170.0,55.0,0
600,-174.0,-169.0,54.0,0
601,-172.0,-167.0,52.0,0
602,-171.0,-167.0,52.0,0
603,-172.0,-163.0,54.0,0
604,-167.0,-166.0,48.0,0
605,-165.0,-162.0,48.0,0
606,-166.0,-160.0,49.0,0
607,-166.0,-162.0,54.0,0
608,-170.0,-157.0,47.0,0
609,-170.0,-156.0,48.0,0
610,-168.0,-153.0,47.0,0
611,-173.0,-150.0,49.0,0
612,-172.0,-153.0,49.0,0
613,-173.0,-153.0,52.0,0
614,-175.0,-153.0,54.0,0
615,-177.0,-155.0,54.0,0
616,-179.0,-155.0,55.0,0
617,-179.0,-155.0,51.0,0
618,-181.0,-149.0,52.0,0
619,-184.0,-148.0,47.0,0
620,-185.0,-151.0,44.0,0
621,-187.0,-147.0,44.0,0
622,-198.0,-146.0,38.0,0
623,-199.0,-140.0,34.0,0
624,-205.0,-139.0,30.0,0
625,-201.0,-140.0,29.0,0
626,-197.0,-143.0,29.0,0
627,-207.0,-141.0,27.0,0
628,-197.0,-145.0,30.0,0
629,-196.0,-143.0,34.0,0
630,-211.0,-143.0,33.0,0
631,-208.0,-146.0,33.0,0
632,-219.0,-142.0,34.0,0
633,-215.0,-142.0,39.0,0
634,-211.0,-145.0,42.0,0
635,-208.0,-147.0,43.0,0
636,-209.0,-145.0,44.0,0
637,-211.0,-142.0,42.0,0
638,-207.0,-140.0,45.0,0
639,-209.0,-137.0,46.0,0
640,-208.0,-133.0,47.0,0
641,-205.0,-131.0,42.0,0
642,-206.0,-128.0,48.0,0
643,-209.0,-125.0,46.0,0
644,-206.0,-124.0,46.0,0
645,-207.0,-121.0,42.0,0
646,-206.0,-125.0,43.0,0
647,-206.0,-127.0,44.0,0
648,-205.0,-129.0,41.0,0
649,-202.0,-131.0,43.0,0
650,-202.0,-131.0,41.0,0
651,-202.0,-134.0,43.0,0
652,-202.0,-135.0,45.0,0
653,-201.0,-138.0,49.0,0
654,-202.0,-137.0,44.0,0
655,-200.0,-140.0,51.0,0
656,-203.0,-137.0,52.0,0
657,-202.0,-132.0,51.0,0
658,-205.0,-134.0,50.0,0
659,-205.0,-133.0,49.0,0
660,-206.0,-129.0,47.0,0
661,-209.0,-121.0,51.0,0
662,-213.0,-119.0,49.0,0
663,-211.0,-119.0,48.0,0
664,-210.0,-115.0,48.0,0
665,-210.0,-112.0,49.0,0
666,-210.0,-109.0,51.0,0
667,-213.0,-108.0,53.0,0
668,-215.0,-108.0,52.0,0
669,-221.0,-108.0,44.0,0
670,-215.0,-116.0,55.0,0
671,-214.0,-115.0,51.0,0
672,-217.0,-118.0,48.0,0
673,-215.0,-121.0,53.0,0
674,-217.0,-120.0,52.0,0
675,-216.0,-122.0,50.0,0
676,-217.0,-124.0,49.0,0
677,-215.0,-121.0,50.0,0
678,-211.0,-122.0,46.0,0
679,-210.0,-120.0,44.0,0
680,-209.0,-118.0,49.0,0
681,-208.0,-118.0,47.0,0
682,-205.0,-117.0,51.0,0
683,-203.0,-115.0,50.0,0
684,-202.0,-117.0,52.0,0
685,-204.0,-119.0,50.0,0
686,-201.0,-117.0,56.0,0
687,-204.0,-119.0,50.0,0
688,-204.0,-119.0,51.0,0
689,-207.0,-118.0,51.0,0
690,-208.0,-119.0,51.0,0
691,-207.0,-120.0,51.0,0
692,-210.0,-115.0,47.0,0
693,-210.0,-110.0,42.0,0
694,-213.0,-108.0,49.0,0
695,-211.0,-104.0,49.0,0
696,-215.0,-103.0,52.0,0
697,-216.0,-104.0,55.0,0
698,-219.0,-99.0,56.0,0
699,-218.0,-100.0,57.0,0
700,-215.0,-101.0,61.0,0
701,-212.0,-106.0,58.0,0
702,-218.0,-108.0,62.0,0
703,-213.0,-110.0,55.0,0
704,-214.0,-114.0,54.0,0
705,-216.0,-114.0,51.0,0
706,-213.0,-116.0,52.0,0
707,-215.0,-113.0,46.0,0
708,-213.0,-111.0,48.0,0
709,-215.0,-109.0,47.0,0
710,-213.0,-103.0,51.0,0
711,-213.0,-104.0,53.0,0
712,-217.0,-99.0,59.0,0
713,-209.0,-101.0,53.0,0
714,-212.0,-98.0,57.0,0
715,-210.0,-95.0,61.0,0
716,-211.0,-96.0,57.0,0
717,-210.0,-99.0,58.0,0
718,-209.0,-102.0,55.0,0
719,-208.0,-101.0,56.0,0
720,-213.0,-102.0,51.0,0
721,-212.0,-102.0,45.0,0
722,-215.0,-103.0,42.0,0
723,-217.0,-96.0,39.0,0
724,-223.0,-93.0,38.0,0
725,-223.0,-89.0,36.0,0
726,-224.0,-84.0,42.0,0
727,-228.0,-78.0,41.0,0
728,-227.0,-75.0,45.0,0
729,-227.0,-79.0,50.0,0
730,-229.0,-77.0,56.0,0
731,-229.0,-78.0,58.0,0
732,-227.0,-81.0,61.0,0
733,-223.0,-90.0,60.0,0
734,-223.0,-95.0,54.0,0
735,-222.0,-103.0,55.0,0
736,-225.0,-99.0,48.0,0
737,-224.0,-103.0,43.0,0
738,-228.0,-98.0,47.0,0
739,-231.0,-95.0,40.0,0
740,-231.0,-89.0,36.0,0
741,-227.0,-89.0,35.0,0
742,-228.0,-82.0,33.0,0
743,-229.0,-78.0,34.0,0
744,-231.0,-74.0,29.0,0
745,-231.0,-70.0,31.0,0
746,-233.0,-68.0,29.0,0
747,-232.0,-67.0,30.0,0
748,-231.0,-70.0,34.0,0
749,-229.0,-69.0,38.0,0
750,-235.0,-73.0,42.0,0
751,-234.0,-80.0,44.0,0
752,-235.0,-83.0,44.0,0
753,-241.0,-84.0,47.0,0
754,-243.0,-86.0,43.0,0
755,-243.0,-83.0,40.0,0
756,-247.0,-82.0,34.0,0
757,-244.0,-73.0,29.0,0
758,-246.0,-68.0,23.0,0
759,-244.0,-60.0,20.0,0
760,-244.0,-56.0,17.0,0
761,-243.0,-54.0,21.0,0
762,-243.0,-54.0,16.0,0
763,-240.0,-53.0,23.0,0
764,-244.0,-56.0,23.0,0
765,-243.0,-58.0,28.0,0
766,-245.0,-62.0,34.0,0
767,-245.0,-68.0,36.0,0
768,-243.0,-76.0,45.0,0
769,-247.0,-78.0,39.0,0
770,-249.0,-79.0,40.0,0
771,-245.0,-79.0,38.0,0
772,-253.0,-74.0,35.0,0
773,-249.0,-69.0,29.0,0
774,-253.0,-64.0,26.0,0
775,-255.0,-58.0,20.0,0
776,-249.0,-55.0,13.0,0
777,-247.0,-52.0,11.0,0
778,-249.0,-53.0,12.0,0
779,-252.0,-48.0,14.0,0
780,-249.0,-46.0,8.0,0
781,-246.0,-45.0,13.0,0
782,-248.0,-45.0,16.0,0
783,-250.0,-44.0,13.0,0
784,-254.0,-43.0,13.0,0
785,-255.0,-43.0,18.0,0
786,-257.0,-41.0,13.0,0
787,-258.0,-42.0,11.0,0
788,-262.0,-39.0,13.0,0
789,-261.0,-38.0,10.0,0
790,-261.0,-35.0,10.0,0
791,-264.0,-32.0,10.0,0
792,-257.0,-30.0,11.0,0
793,-258.0,-29.0,10.0,0
794,-256.0,-29.0,16.0,0
795,-259.0,-26.0,13.0,0
796,-255.0,-29.0,22.0,0
797,-251.0,-27.0,22.0,0
798,-253.0,-30.0,21.0,0
799,-250.0,-31.0,21.0,0
800,-252.0,-34.0,23.0,0
801,-250.0,-36.0,22.0,0
802,-252.0,-32.0,21.0,0
803,-251.0,-33.0,25.0,0
804,-251.0,-33.0,27.0,0
805,-253.0,-30.0,18.0,0
806,-254.0,-30.0,23.0,0
807,-253.0,-28.0,16.0,0
808,-254.0,-27.0,14.0,0
809,-259.0,-27.0,9.0,0
810,-254.0,-29.0,9.0,0
811,-250.0,-27.0,9.0,0
812,-253.0,-30.0,17.0,0
813,-253.0,-30.0,33.0,0
814,-255.0,-33.0,36.0,0
815,-255.0,-34.0,47.0,0
816,-259.0,-39.0,50.0,0
817,-255.0,-39.0,52.0,0
818,-258.0,-37.0,55.0,0
819,-258.0,-32.0,55.0,0
820,-265.0,-29.0,49.0,0
821,-269.0,-31.0,50.0,0
822,-265.0,-12.0,39.0,0
823,-269.0,-6.0,35.0,0
824,-264.0,6.0,31.0,0
825,-256.0,10.0,31.0,0
826,-248.0,11.0,23.0,0
827,-242.0,14.0,25.0,0
828,-240.0,13.0,25.0,0
829,-236.0,11.0,24.0,0
830,-231.0,6.0,26.0,0
831,-227.0,3.0,24.0,0
832,-220.0,-7.0,27.0,0
833,-219.0,-13.0,29.0,0
834,-217.0,-21.0,33.0,0
835,-222.0,-29.0,33.0,0
836,-227.0,-30.0,33.0,0
837,-232.0,-35.0,35.0,0
838,-239.0,-35.0,38.0,0
839,-244.0,-36.0,39.0,0
840,-243.0,-39.0,39.0,0
841,-243.0,-41.0,40.0,0
842,-245.0,-35.0,42.0,0
843,-240.0,-35.0,37.0,0
844,-248.0,-38.0,46.0,0
845,-249.0,-34.0,46.0,0
846,-250.0,-33.0,42.0,0
847,-249.0,-34.0,38.0,0
848,-247.0,-32.0,37.0,0
849,-246.0,-34.0,33.0,0
850,-249.0,-29.0,29.0,0
851,-250.0,-30.0,25.0,0
852,-256.0,-24.0,21.0,0
853,-255.0,-22.0,14.0,0
854,-256.0,-20.0,15.0,0
855,-258.0,-21.0,11.0,0
856,-256.0,-19.0,17.0,0
857,-256.0,-22.0,16.0,0
858,-255.0,-25.0,19.0,0
859,-253.0,-28.0,23.0,0
860,-252.0,-35.0,25.0,0
861,-251.0,-44.0,26.0,0
862,-246.0,-47.0,31.0,0
863,-247.0,-51.0,30.0,0
864,-251.0,-54.0,28.0,0
865,-254.0,-54.0,23.0,0
866,-254.0,-53.0,23.0,0
867,-255.0,-48.0,16.0,0
868,-256.0,-41.0,12.0,0
869,-261.0,-37.0,13.0,0
870,-260.0,-29.0,9.0,0
871,-263.0,-22.0,8.0,0
872,-261.0,-21.0,8.0,0
873,-257.0,-20.0,8.0,0
874,-259.0,-16.0,9.0,0
875,-255.0,-18.0,16.0,0
876,-259.0,-26.0,19.0,0
877,-261.0,-28.0,26.0,0
878,-261.0,-30.0,36.0,0
879,-259.0,-36.0,41.0,0
880,-257.0,-38.0,48.0,0
881,-256.0,-41.0,45.0,0
882,-258.0,-41.0,43.0,0
883,-259.0,-38.0,36.0,0
884,-262.0,-35.0,27.0,0
885,-259.0,-30.0,24.0,0
886,-255.0,-26.0,20.0,0
887,-253.0,-19.0,20.0,0
888,-250.0,-14.0,24.0,0
889,-247.0,-11.0,23.0,0
890,-244.0,-10.0,29.0,0
891,-240.0,-14.0,28.0,0
892,-246.0,-12.0,29.0,0
893,-244.0,-15.0,34.0,0
894,-245.0,-15.0,36.0,0
895,-244.0,-18.0,41.0,0
896,-245.0,-17.0,42.0,0
897,-245.0,-13.0,42.0,0
898,-245.0,-17.0,44.0,0
899,-244.0,-14.0,42.0,0
900,-241.0,-13.0,41.0,0
901,-243.0,-11.0,40.0,0
902,-247.0,-10.0,39.0,0
903,-247.0,-10.0,36.0,0
904,-250.0,-13.0,37.0,0
905,-252.0,-15.0,33.0,0
906,-257.0,-13.0,30.0,0
907,-257.0,-11.0,27.0,0
908,-257.0,-13.0,29.0,0
909,-255.0,-11.0,30.0,0
910,-253.0,-16.0,36.0,0
911,-254.0,-15.0,32.0,0
912,-251.0,-15.0,37.0,0
913,-251.0,-14.0,38.0,0
914,-249.0,-16.0,41.0,0
915,-244.0,-19.0,44.0,0
916,-242.0,-20.0,46.0,0
917,-239.0,-22.0,48.0,0
918,-244.0,-25.0,49.0,0
919,-245.0,-29.0,43.0,0
920,-246.0,-28.0,49.0,0
921,-248.0,-37.0,46.0,0
922,-250.0,-38.0,51.0,0
923,-251.0,-41.0,47.0,0
924,-251.0,-40.0,42.0,0
925,-250.0,-44.0,39.0,0
926,-245.0,-41.0,38.0,0
927,-245.0,-40.0,40.0,0
928,-243.0,-43.0,41.0,0
929,-237.0,-38.0,48.0,0
930,-237.0,-36.0,43.0,0
931,-237.0,-38.0,48.0,0
932,-231.0,-41.0,55.0,0
933,-232.0,-36.0,56.0,0
934,-233.0,-39.0,60.0,0
935,-228.0,-38.0,62.0,0
936,-231.0,-40.0,61.0,0
937,-229.0,-38.0,66.0,0
938,-232.0,-36.0,60.0,0
939,-234.0,-36.0,58.0,0
940,-238.0,-41.0,55.0,0
941,-235.0,-33.0,52.0,0
942,-231.0,-29.0,52.0,0
943,-233.0,-29.0,45.0,0
944,-233.0,-28.0,44.0,0
945,-239.0,-25.0,48.0,0
946,-239.0,-26.0,47.0,0
947,-239.0,-27.0,46.0,0
948,-236.0,-29.0,47.0,0
949,-237.0,-31.0,48.0,0
950,-237.0,-36.0,51.0,0
951,-240.0,-37.0,55.0,0
952,-240.0,-41.0,54.0,0
953,-244.0,-40.0,54.0,0
954,-240.0,-47.0,54.0,0
955,-243.0,-44.0,56.0,0
956,-238.0,-47.0,56.0,0
957,-238.0,-47.0,49.0,0
958,-237.0,-44.0,52.0,0
959,-238.0,-44.0,46.0,0
960,-236.0,-42.0,45.0,0
961,-240.0,-38.0,42.0,0
962,-237.0,-34.0,41.0,0
963,-236.0,-30.0,38.0,0
964,-239.0,-26.0,39.0,0
965,-239.0,-26.0,42.0,0
966,-238.0,-21.0,43.0,0
967,-239.0,-23.0,42.0,0
968,-242.0,-24.0,50.0,0
969,-244.0,-22.0,47.0,0
970,-245.0,-27.0,54.0,0
971,-245.0,-27.0,55.0,0
972,-248.0,-27.0,53.0,0
973,-252.0,-31.0,52.0,0
974,-254.0,-28.0,54.0,0
975,-248.0,-30.0,49.0,0
976,-250.0,-29.0,50.0,0
977,-251.0,-30.0,51.0,0
978,-250.0,-32.0,48.0,0
979,-249.0,-30.0,47.0,0
980,-250.0,-29.0,43.0,0
981,-247.0,-30.0,40.0,0
982,-244.0,-29.0,42.0,0
983,-242.0,-32.0,44.0,0
984,-237.0,-35.0,44.0,0
985,-238.0,-33.0,48.0,0
986,-239.0,-32.0,54.0,0
987,-235.0,-33.0,55.0,0
988,-232.0,-33.0,60.0,0
989,-233.0,-35.0,60.0,0
990,-235.0,-31.0,64.0,0
991,-236.0,-31.0,65.0,0
992,-240.0,-28.0,69.0,0
993,-242.0,-26.0,63.0,0
994,-240.0,-27.0,58.0,0
995,-248.0,-24.0,58.0,0
996,-241.0,-24.0,54.0,0
997,-242.0,-20.0,54.0,0
998,-241.0,-19.0,51.0,0
999,-240.0,-13.0,50.0,0
1000,-236.0,-11.0,43.0,0
1001,-236.0,-4.0,42.0,0
1002,-236.0,-4.0,41.0,0
1003,-234.0,0.0,36.0,0
1004,-233.0,-1.0,38.0,0
1005,-235.0,1.0,35.0,0
1006,-232.0,-1.0,37.0,0
1007,-237.0,-2.0,37.0,0
1008,-231.0,-7.0,33.0,0
1009,-236.0,-8.0,39.0,0
1010,-237.0,-10.0,46.0,0
1011,-239.0,-14.0,43.0,0
1012,-238.0,-15.0,45.0,0
1013,-243.0,-16.0,48.0,0
1014,-245.0,-17.0,52.0,0
1015,-247.0,-18.0,53.0,0
1016,-247.0,-20.0,49.0,0
1017,-252.0,-15.0,47.0,0
1018,-251.0,-21.0,50.0,0
1019,-252.0,-18.0,53.0,0
1020,-257.0,-19.0,49.0,0
1021,-253.0,-22.0,47.0,0
1022,-253.0,-21.0,44.0,0
1023,-256.0,-24.0,41.0,0
1024,-251.0,-26.0,43.0,0
1025,-252.0,-29.0,38.0,0
1026,-250.0,-33.0,36.0,0
1027,-247.0,-36.0,38.0,0
1028,-250.0,-34.0,35.0,0
1029,-252.0,-35.0,35.0,0
1030,-251.0,-37.0,35.0,0
1031,-252.0,-41.0,35.0,0
1032,-249.0,-41.0,36.0,0
1033,-252.0,-41.0,34.0,0
1034,-251.0,-41.0,39.0,0
1035,-253.0,-40.0,43.0,0
1036,-250.0,-40.0,39.0,0
1037,-251.0,-40.0,39.0,0
1038,-255.0,-40.0,42.0,0
1039,-250.0,-38.0,41.0,0
1040,-250.0,-35.0,35.0,0
1041,-253.0,-31.0,33.0,0
1042,-252.0,-29.0,29.0,0
1043,-252.0,-26.0,32.0,0
1044,-250.0,-23.0,31.0,0
1045,-248.0,-23.0,31.0,0
1046,-249.0,-18.0,32.0,0
1047,-245.0,-22.0,32.0,0
1048,-250.0,-21.0,32.0,0
1049,-248.0,-21.0,33.0,0
1050,-248.0,-24.0,31.0,0
1051,-247.0,-22.0,34.0,0
1052,-244.0,-21.0,32.0,0
1053,-244.0,-17.0,28.0,0
1054,-238.0,-19.0,32.0,0
1055,-241.0,-17.0,29.0,0
1056,-245.0,-16.0,24.0,0
1057,-250.0,-21.0,29.0,0
1058,-256.0,-18.0,32.0,0
1059,-261.0,-22.0,28.0,0
1060,-263.0,-26.0,33.0,0
1061,-261.0,-28.0,23.0,0
1062,-261.0,-32.0,27.0,0
1063,-261.0,-37.0,30.0,0
1064,-261.0,-36.0,32.0,0
1065,-260.0,-41.0,32.0,0
1066,-258.0,-41.0,34.0,0
1067,-253.0,-42.0,33.0,0
1068,-249.0,-44.0,26.0,0
1069,-248.0,-45.0,30.0,0
1070,-248.0,-40.0,27.0,0
1071,-245.0,-43.0,32.0,0
1072,-243.0,-46.0,31.0,0
1073,-244.0,-43.0,29.0,0
1074,-245.0,-41.0,34.0,0
1075,-248.0,-39.0,30.0,0
1076,-244.0,-41.0,38.0,0
1077,-243.0,-43.0,32.0,0
1078,-245.0,-41.0,31.0,0
1079,-243.0,-41.0,33.0,0
1080,-244.0,-39.0,32.0,0
1081,-244.0,-36.0,34.0,0
1082,-245.0,-34.0,31.0,0
1083,-245.0,-32.0,32.0,0
1084,-247.0,-31.0,31.0,0
1085,-246.0,-28.0,28.0,0
1086,-246.0,-28.0,27.0,0
1087,-243.0,-27.0,29.0,0
1088,-248.0,-32.0,30.0,0
1089,-248.0,-29.0,34.0,0
1090,-249.0,-28.0,38.0,0
1091,-246.0,-29.0,46.0,0
1092,-248.0,-28.0,50.0,0
1093,-244.0,-34.0,45.0,0
1094,-245.0,-31.0,52.0,0
1095,-241.0,-30.0,49.0,0
1096,-241.0,-33.0,49.0,0
1097,-243.0,-31.0,48.0,0
1098,-244.0,-32.0,48.0,0
1099,-243.0,-30.0,44.0,0
1100,-246.0,-31.0,46.0,0
1101,-245.0,-33.0,43.0,0
1102,-246.0,-33.0,40.0,0
1103,-245.0,-38.0,40.0,0
1104,-244.0,-38.0,37.0,0
1105,-246.0,-41.0,36.0,0
1106,-245.0,-47.0,34.0,0
1107,-245.0,-47.0,37.0,0
1108,-245.0,-50.0,36.0,0
1109,-244.0,-51.0,39.0,0
1110,-246.0,-50.0,34.0,0
1111,-252.0,-47.0,33.0,0
1112,-252.0,-45.0,32.0,0
1113,-252.0,-42.0,31.0,0
1114,-250.0,-38.0,22.0,0
1115,-251.0,-36.0,21.0,0
1116,-250.0,-36.0,19.0,0
1117,-248.0,-33.0,25.0,0
1118,-248.0,-32.0,26.0,0
1119,-250.0,-31.0,21.0,0
1120,-248.0,-28.0,22.0,0
1121,-251.0,-27.0,25.0,0
1122,-246.0,-27.0,24.0,0
1123,-250.0,-27.0,25.0,0
1124,-251.0,-29.0,25.0,0
1125,-254.0,-31.0,21.0,0
1126,-255.0,-30.0,23.0,0
1127,-257.0,-28.0,23.0,0
1128,-255.0,-28.0,20.0,0
1129,-257.0,-32.0,23.0,0
1130,-254.0,-33.0,23.0,0
1131,-252.0,-32.0,26.0,0
1132,-250.0,-35.0,25.0,0
1133,-254.0,-32.0,28.0,0
1134,-252.0,-36.0,28.0,0
1135,-251.0,-38.0,26.0,0
1136,-252.0,-42.0,26.0,0
1137,-254.0,-42.0,27.0,0
1138,-257.0,-44.0,28.0,0
1139,-256.0,-43.0,29.0,0
1140,-253.0,-43.0,30.0,0
1141,-253.0,-43.0,28.0,0
1142,-255.0,-36.0,30.0,0
1143,-253.0,-36.0,26.0,0
1144,-254.0,-36.0,22.0,0
1145,-248.0,-41.0,26.0,0
1146,-248.0,-40.0,27.0,0
1147,-246.0,-39.0,33.0,0
1148,-247.0,-39.0,31.0,0
1149,-242.0,-40.0,35.0,0
1150,-248.0,-39.0,35.0,0
1151,-244.0,-36.0,36.0,0
1152,-243.0,-32.0,39.0,0
1153,-244.0,-30.0,41.0,0
1154,-244.0,-28.0,37.0,0
1155,-246.0,-21.0,38.0,0
1156,-246.0,-20.0,36.0,0
1157,-247.0,-16.0,32.0,0
1158,-249.0,-16.0,35.0,0
1159,-254.0,-15.0,32.0,0
1160,-252.0,-16.0,31.0,0
1161,-250.0,-18.0,32.0,0
1162,-247.0,-21.0,36.0,0
1163,-244.0,-22.0,36.0,0
1164,-246.0,-25.0,36.0,0
1165,-245.0,-29.0,33.0,0
1166,-247.0,-31.0,37.0,0
1167,-246.0,-28.0,39.0,0
1168,-245.0,-31.0,33.0,0
1169,-241.0,-34.0,41.0,0
1170,-241.0,-32.0,37.0,0
1171,-241.0,-31.0,36.0,0
1172,-241.0,-32.0,39.0,0
1173,-239.0,-33.0,37.0,0
1174,-243.0,-28.0,35.0,0
1175,-248.0,-28.0,35.0,0
1176,-248.0,-29.0,37.0,0
1177,-248.0,-22.0,35.0,0
1178,-251.0,-21.0,32.0,0
1179,-251.0,-23.0,35.0,0
1180,-252.0,-23.0,34.0,0
1181,-251.0,-22.0,35.0,0
1182,-250.0,-24.0,35.0,0
1183,-249.0,-23.0,35.0,0
1184,-251.0,-25.0,39.0,0
1185,-250.0,-24.0,40.0,0
1186,-245.0,-28.0,41.0,0
1187,-251.0,-25.0,42.0,0
1188,-248.0,-24.0,45.0,0
1189,-245.0,-25.0,47.0,0
1190,-249.0,-24.0,47.0,0
1191,-255.0,-18.0,37.0,0
1192,-248.0,-17.0,40.0,0
1193,-248.0,-15.0,37.0,0
1194,-250.0,-17.0,34.0,0
1195,-248.0,-15.0,35.0,0
1196,-248.0,-18.0,34.0,0
1197,-248.0,-20.0,27.0,0
1198,-249.0,-27.0,29.0,0
1199,-246.0,-33.0,27.0,0
1200,-245.0,-38.0,26.0,0
1201,-247.0,-45.0,30.0,0
1202,-246.0,-50.0,28.0,0
1203,-242.0,-53.0,31.0,0
1204,-246.0,-55.0,33.0,0
1205,-244.0,-56.0,34.0,0
1206,-248.0,-56.0,35.0,0
1207,-244.0,-56.0,36.0,0
1208,-246.0,-55.0,34.0,0
1209,-246.0,-51.0,31.0,0
1210,-244.0,-50.0,35.0,0
1211,-245.0,-43.0,33.0,0
1212,-242.0,-41.0,33.0,0
1213,-251.0,-35.0,33.0,0
1214,-246.0,-33.0,31.0,0
1215,-248.0,-29.0,31.0,0
1216,-250.0,-25.0,35.0,0
1217,-249.0,-22.0,35.0,0
1218,-246.0,-20.0,33.0,0
1219,-247.0,-21.0,32.0,0
1220,-246.0,-20.0,36.0,0
1221,-245.0,-22.0,37.0,0
1222,-243.0,-28.0,38.0,0
1223,-244.0,-32.0,38.0,0
1224,-245.0,-39.0,39.0,0
1225,-243.0,-42.0,40.0,0
1226,-247.0,-38.0,41.0,0
1227,-243.0,-44.0,40.0,0
1228,-240.0,-43.0,40.0,0
1229,-242.0,-42.0,43.0,0
1230,-242.0,-40.0,44.0,0
1231,-242.0,-38.0,37.0,0
1232,-242.0,-32.0,34.0,0
1233,-245.0,-31.0,34.0,0
1234,-244.0,-28.0,32.0,0
1235,-238.0,-20.0,30.0,0
1236,-244.0,-29.0,35.0,0
1237,-242.0,-28.0,34.0,0
1238,-244.0,-29.0,35.0,0
1239,-245.0,-31.0,36.0,0
1240,-247.0,-33.0,39.0,0
1241,-247.0,-36.0,39.0,0
1242,-244.0,-40.0,43.0,0
1243,-247.0,-43.0,38.0,0
1244,-248.0,-46.0,43.0,0
1245,-245.0,-46.0,43.0,0
1246,-245.0,-46.0,42.0,0
1247,-241.0,-45.0,39.0,0
1248,-240.0,-44.0,40.0,0
1249,-240.0,-42.0,45.0,0
1250,-237.0,-42.0,41.0,0
1251,-237.0,-35.0,43.0,0
1252,-234.0,-33.0,45.0,0
1253,-234.0,-33.0,46.0,0
1254,-236.0,-29.0,46.0,0
1255,-235.0,-25.0,47.0,0
1256,-236.0,-26.0,43.0,0
1257,-238.0,-20.0,51.0,0
1258,-241.0,-20.0,44.0,0
1259,-240.0,-24.0,41.0,0
1260,-242.0,-28.0,40.0,0
1261,-244.0,-28.0,41.0,0
1262,-244.0,-32.0,40.0,0
1263,-246.0,-33.0,39.0,0
1264,-246.0,-36.0,38.0,0
1265,-244.0,-37.0,36.0,0
1266,-246.0,-37.0,38.0,0
1267,-246.0,-41.0,37.0,0
1268,-245.0,-39.0,36.0,0
1269,-248.0,-41.0,32.0,0
1270,-245.0,-45.0,35.0,0
1271,-246.0,-40.0,32.0,0
1272,-245.0,-39.0,33.0,0
1273,-246.0,-38.0,33.0,0
1274,-248.0,-37.0,35.0,0
1275,-248.0,-35.0,37.0,0
1276,-248.0,-35.0,34.0,0
1277,-246.0,-31.0,31.0,0
1278,-248.0,-40.0,32.0,0
1279,-246.0,-27.0,33.0,0
1280,-248.0,-27.0,34.0,0
1281,-246.0,-29.0,29.0,0
1282,-248.0,-29.0,33.0,0
1283,-247.0,-29.0,33.0,0
1284,-247.0,-33.0,31.0,0
1285,-245.0,-33.0,33.0,0
1286,-250.0,-29.0,32.0,0
1287,-246.0,-34.0,27.0,0
1288,-241.0,-35.0,25.0,0
1289,-248.0,-31.0,27.0,0
1290,-249.0,-33.0,25.0,0
1291,-246.0,-38.0,30.0,0
1292,-248.0,-37.0,27.0,0
1293,-248.0,-39.0,24.0,0
1294,-247.0,-41.0,23.0,0
1295,-250.0,-41.0,26.0,0
1296,-249.0,-41.0,25.0,0
1297,-247.0,-43.0,24.0,0
1298,-248.0,-45.0,22.0,0
1299,-249.0,-45.0,25.0,0
1300,-253.0,-50.0,25.0,0
1301,-252.0,-49.0,27.0,0
1302,-251.0,-49.0,25.0,0
1303,-251.0,-46.0,26.0,0
1304,-249.0,-48.0,25.0,0
1305,-249.0,-46.0,22.0,0
1306,-250.0,-46.0,19.0,0
1307,-251.0,-41.0,18.0,0
1308,-254.0,-40.0,17.0,0
1309,-255.0,-40.0,20.0,0
1310,-258.0,-29.0,21.0,0
1311,-259.0,-26.0,18.0,0
1312,-259.0,-24.0,23.0,0
1313,-258.0,-24.0,21.0,0
1314,-258.0,-19.0,23.0,0
1315,-262.0,-17.0,23.0,0
1316,-259.0,-15.0,26.0,0
1317,-258.0,-18.0,23.0,0
1318,-263.0,-14.0,23.0,0
1319,-261.0,-12.0,25.0,0
1320,-262.0,-13.0,19.0,0
1321,-261.0,-15.0,20.0,0
1322,-269.0,-21.0,14.0,0
1323,-263.0,-24.0,12.0,0
1324,-257.0,-27.0,14.0,0
1325,-261.0,-29.0,7.0,0
1326,-256.0,-33.0,5.0,0
1327,-251.0,-34.0,2.0,0
1328,-250.0,-35.0,6.0,0
1329,-251.0,-38.0,8.0,0
1330,-249.0,-38.0,5.0,0
1331,-248.0,-33.0,13.0,0
1332,-250.0,-34.0,17.0,0
1333,-249.0,-37.0,19.0,0
1334,-253.0,-32.0,20.0,0
1335,-255.0,-30.0,12.0,0
1336,-250.0,-31.0,13.0,0
1337,-250.0,-28.0,12.0,0
1338,-252.0,-24.0,5.0,0
1339,-257.0,-24.0,8.0,0
1340,-260.0,-23.0,7.0,0
1341,-262.0,-26.0,6.0,0
1342,-259.0,-28.0,9.0,0
1343,-261.0,-39.0,14.0,0
1344,-261.0,-33.0,14.0,0
1345,-262.0,-40.0,15.0,0
1346,-264.0,-44.0,14.0,0
1347,-264.0,-46.0,20.0,0
1348,-261.0,-44.0,20.0,0
1349,-258.0,-44.0,19.0,0
1350,-258.0,-44.0,19.0,0
1351,-259.0,-40.0,23.0,0
1352,-264.0,-37.0,25.0,0
1353,-263.0,-36.0,24.0,0
1354,-263.0,-33.0,24.0,0
1355,-261.0,-29.0,25.0,0
1356,-262.0,-27.0,19.0,0
1357,-260.0,-23.0,19.0,0
1358,-258.0,-21.0,16.0,0
1359,-254.0,-20.0,17.0,0
1360,-251.0,-21.0,12.0,0
1361,-245.0,-27.0,14.0,0
1362,-245.0,-26.0,12.0,0
1363,-244.0,-32.0,15.0,0
1364,-241.0,-31.0,19.0,0
1365,-236.0,-39.0,21.0,0
1366,-232.0,-44.0,21.0,0
1367,-230.0,-43.0,24.0,0
1368,-231.0,-42.0,29.0,0
1369,-229.0,-44.0,27.0,0
1370,-227.0,-43.0,28.0,0
1371,-233.0,-42.0,27.0,0
1372,-235.0,-46.0,27.0,0
1373,-239.0,-42.0,29.0,0
1374,-239.0,-44.0,25.0,0
1375,-249.0,-43.0,24.0,0
1376,-246.0,-46.0,16.0,0
1377,-249.0,-47.0,19.0,0
1378,-251.0,-48.0,22.0,0
1379,-251.0,-50.0,31.0,0
1380,-251.0,-53.0,28.0,0
1381,-251.0,-54.0,36.0,0
1382,-248.0,-57.0,40.0,0
1383,-249.0,-59.0,42.0,0
1384,-251.0,-58.0,41.0,0
1385,-244.0,-63.0,43.0,0
1386,-250.0,-57.0,47.0,0
1387,-242.0,-58.0,43.0,0
1388,-244.0,-55.0,41.0,0
1389,-246.0,-53.0,40.0,0
1390,-250.0,-53.0,41.0,0
1391,-247.0,-51.0,38.0,0
1392,-250.0,-52.0,37.0,0
1393,-251.0,-51.0,42.0,0
1394,-249.0,-53.0,41.0,0
1395,-246.0,-53.0,38.0,0
1396,-242.0,-55.0,35.0,0
1397,-240.0,-55.0,31.0,0
1398,-238.0,-55.0,35.0,0
1399,-240.0,-51.0,35.0,0
1400,-242.0,-52.0,33.0,0
1401,-239.0,-53.0,34.0,0
1402,-237.0,-54.0,33.0,0
1403,-241.0,-50.0,39.0,0
1404,-242.0,-52.0,39.0,0
1405,-237.0,-55.0,41.0,0
1406,-241.0,-56.0,42.0,0
1407,-244.0,-55.0,43.0,0
1408,-241.0,-59.0,40.0,0
1409,-244.0,-61.0,40.0,0
1410,-238.0,-60.0,48.0,0
1411,-243.0,-62.0,48.0,0
1412,-243.0,-61.0,44.0,0
1413,-241.0,-62.0,47.0,0
1414,-235.0,-63.0,50.0,0
1415,-234.0,-61.0,46.0,0
1416,-236.0,-62.0,46.0,0
1417,-235.0,-59.0,49.0,0
1418,-234.0,-61.0,48.0,0
1419,-242.0,-58.0,50.0,0
1420,-241.0,-58.0,52.0,0
1421,-241.0,-59.0,48.0,0
1422,-240.0,-62.0,49.0,0
1423,-237.0,-65.0,51.0,0
1424,-235.0,-68.0,49.0,0
1425,-234.0,-72.0,45.0,0
1426,-228.0,-75.0,45.0,0
1427,-230.0,-79.0,44.0,0
1428,-227.0,-80.0,47.0,0
1429,-226.0,-77.0,46.0,0
1430,-228.0,-78.0,47.0,0
1431,-225.0,-78.0,46.0,0
1432,-229.0,-78.0,46.0,0
1433,-227.0,-78.0,46.0,0
1434,-228.0,-81.0,49.0,0
1435,-228.0,-76.0,48.0,0
1436,-228.0,-77.0,48.0,0
1437,-226.0,-80.0,46.0,0
1438,-230.0,-78.0,51.0,0
1439,-230.0,-77.0,51.0,0
1440,-227.0,-78.0,51.0,0
1441,-230.0,-76.0,53.0,0
1442,-229.0,-80.0,51.0,0
1443,-230.0,-80.0,53.0,0
1444,-226.0,-80.0,53.0,0
1445,-227.0,-81.0,55.0,0
1446,-228.0,-77.0,53.0,0
1447,-225.0,-80.0,54.0,0
1448,-227.0,-79.0,49.0,0
1449,-225.0,-77.0,53.0,0
1450,-222.0,-81.0,53.0,0
1451,-221.0,-83.0,53.0,0
1452,-222.0,-81.0,53.0,0
1453,-219.0,-81.0,49.0,0
1454,-217.0,-87.0,50.0,0
1455,-218.0,-86.0,50.0,0
1456,-218.0,-84.0,54.0,0
1457,-220.0,-86.0,46.0,0
1458,-225.0,-87.0,46.0,0
1459,-220.0,-89.0,46.0,0
1460,-221.0,-86.0,41.0,0
1461,-225.0,-87.0,42.0,0
1462,-228.0,-84.0,44.0,0
1463,-227.0,-90.0,38.0,0
1464,-229.0,-87.0,35.0,0
1465,-229.0,-86.0,34.0,0
1466,-234.0,-87.0,40.0,0
1467,-230.0,-87.0,39.0,0
1468,-230.0,-90.0,39.0,0
1469,-231.0,-92.0,37.0,0
1470,-233.0,-92.0,42.0,0
1471,-231.0,-91.0,34.0,0
1472,-232.0,-93.0,35.0,0
1473,-232.0,-90.0,33.0,0
1474,-229.0,-90.0,36.0,0
1475,-227.0,-86.0,27.0,0
1476,-226.0,-87.0,34.0,0
1477,-225.0,-85.0,35.0,0
1478,-223.0,-87.0,40.0,0
1479,-220.0,-87.0,40.0,0
1480,-220.0,-88.0,47.0,0
1481,-221.0,-90.0,46.0,0
1482,-225.0,-89.0,46.0,0
1483,-226.0,-95.0,45.0,0
1484,-225.0,-95.0,43.0,0
1485,-227.0,-94.0,46.0,0
1486,-228.0,-97.0,44.0,0
1487,-227.0,-96.0,41.0,0
1488,-225.0,-98.0,42.0,0
1489,-227.0,-96.0,42.0,0
1490,-226.0,-95.0,40.0,0
1491,-225.0,-101.0,40.0,0
1492,-225.0,-99.0,35.0,0
1493,-220.0,-103.0,41.0,0
1494,-218.0,-101.0,37.0,0
1495,-218.0,-102.0,36.0,0
1496,-218.0,-100.0,40.0,0
1497,-221.0,-97.0,35.0,0
1498,-223.0,-97.0,39.0,0
1499,-219.0,-95.0,36.0,0
1500,-221.0,-91.0,38.0,0
1501,-217.0,-96.0,44.0,0
1502,-218.0,-95.0,41.0,0
1503,-217.0,-93.0,48.0,0
1504,-217.0,-94.0,40.0,0
1505,-215.0,-97.0,42.0,0
1506,-216.0,-101.0,43.0,0
1507,-215.0,-103.0,41.0,0
1508,-215.0,-105.0,42.0,0
1509,-221.0,-108.0,36.0,0
1510,-217.0,-111.0,35.0,0
1511,-220.0,-109.0,34.0,0
1512,-219.0,-110.0,34.0,0
1513,-222.0,-113.0,33.0,0
1514,-222.0,-111.0,30.0,0
1515,-222.0,-113.0,31.0,0
1516,-222.0,-112.0,32.0,0
1517,-218.0,-112.0,34.0,0
1518,-219.0,-110.0,35.0,0
1519,-219.0,-110.0,38.0,0
1520,-224.0,-109.0,37.0,0
1521,-225.0,-110.0,34.0,0
1522,-221.0,-112.0,35.0,0
1523,-225.0,-108.0,39.0,0
1524,-224.0,-109.0,34.0,0
1525,-226.0,-110.0,37.0,0
1526,-225.0,-110.0,34.0,0
1527,-226.0,-112.0,34.0,0
1528,-227.0,-109.0,36.0,0
1529,-221.0,-115.0,37.0,0
1530,-221.0,-111.0,35.0,0
1531,-216.0,-117.0,39.0,0
1532,-216.0,-115.0,34.0,0
1533,-214.0,-117.0,33.0,0
1534,-216.0,-118.0,31.0,0
1535,-214.0,-121.0,30.0,0
1536,-211.0,-121.0,29.0,0
1537,-211.0,-121.0,30.0,0
1538,-211.0,-122.0,34.0,0
1539,-213.0,-121.0,36.0,0
1540,-209.0,-122.0,35.0,0
1541,-212.0,-117.0,37.0,0
1542,-209.0,-120.0,38.0,0
1543,-209.0,-120.0,40.0,0
1544,-212.0,-121.0,37.0,0
1545,-211.0,-122.0,37.0,0
1546,-210.0,-121.0,37.0,0
1547,-209.0,-120.0,31.0,0
1548,-207.0,-121.0,31.0,0
1549,-208.0,-121.0,33.0,0
1550,-210.0,-118.0,30.0,0
1551,-212.0,-121.0,29.0,0
1552,-212.0,-124.0,22.0,0
1553,-214.0,-123.0,29.0,0
1554,-213.0,-129.0,26.0,0
1555,-213.0,-131.0,24.0,0
1556,-215.0,-133.0,30.0,0
1557,-214.0,-130.0,27.0,0
1558,-218.0,-134.0,25.0,0
1559,-218.0,-136.0,25.0,0
1560,-217.0,-137.0,22.0,0
1561,-214.0,-138.0,21.0,0
1562,-216.0,-139.0,21.0,0
1563,-216.0,-137.0,19.0,0
1564,-216.0,-139.0,20.0,0
1565,-216.0,-140.0,25.0,0
1566,-212.0,-140.0,25.0,0
1567,-214.0,-143.0,25.0,0
1568,-216.0,-142.0,24.0,0
1569,-210.0,-143.0,29.0,0
1570,-209.0,-148.0,28.0,0
1571,-211.0,-148.0,34.0,0
1572,-211.0,-148.0,30.0,0
1573,-207.0,-152.0,31.0,0
1574,-205.0,-145.0,30.0,0
1575,-201.0,-149.0,30.0,0
1576,-197.0,-151.0,30.0,0
1577,-196.0,-149.0,28.0,0
1578,-195.0,-146.0,30.0,0
1579,-193.0,-150.0,25.0,0
1580,-194.0,-150.0,28.0,0
1581,-188.0,-152.0,23.0,0
1582,-190.0,-152.0,27.0,0
1583,-191.0,-160.0,26.0,0
1584,-185.0,-158.0,31.0,0
1585,-179.0,-162.0,33.0,0
1586,-182.0,-163.0,32.0,0
1587,-178.0,-163.0,30.0,0
1588,-179.0,-159.0,31.0,0
1589,-178.0,-161.0,31.0,0
1590,-177.0,-162.0,31.0,0
1591,-178.0,-161.0,31.0,0
1592,-180.0,-162.0,36.0,0
1593,-177.0,-164.0,33.0,0
1594,-182.0,-162.0,34.0,0
1595,-182.0,-164.0,35.0,0
1596,-183.0,-163.0,31.0,0
1597,-179.0,-165.0,32.0,0
1598,-179.0,-166.0,36.0,0
1599,-179.0,-168.0,30.0,0
1600,-178.0,-166.0,33.0,0
1601,-176.0,-164.0,31.0,0
1602,-174.0,-166.0,27.0,0
1603,-178.0,-163.0,30.0,0
1604,-176.0,-166.0,33.0,0
1605,-176.0,-164.0,30.0,0
1606,-177.0,-166.0,31.0,0
1607,-176.0,-169.0,29.0,0
1608,-175.0,-171.0,32.0,0
1609,-182.0,-168.0,31.0,0
1610,-180.0,-169.0,34.0,0
1611,-179.0,-171.0,32.0,0
1612,-179.0,-172.0,31.0,0
1613,-180.0,-175.0,34.0,0
1614,-176.0,-175.0,37.0,0
1615,-178.0,-173.0,35.0,0
1616,-178.0,-177.0,33.0,0
1617,-177.0,-177.0,35.0,0
1618,-175.0,-173.0,31.0,0
1619,-174.0,-173.0,32.0,0
1620,-171.0,-173.0,35.0,0
1621,-172.0,-171.0,30.0,0
1622,-175.0,-171.0,32.0,0
1623,-175.0,-166.0,36.0,0
1624,-175.0,-168.0,35.0,0
1625,-175.0,-172.0,39.0,0
1626,-170.0,-170.0,42.0,0
1627,-174.0,-174.0,43.0,0
1628,-174.0,-173.0,42.0,0
1629,-171.0,-178.0,46.0,0
1630,-169.0,-177.0,45.0,0
1631,-165.0,-180.0,43.0,0
1632,-165.0,-183.0,42.0,0
1633,-163.0,-183.0,39.0,0
1634,-164.0,-184.0,39.0,0
1635,-162.0,-183.0,38.0,0
1636,-158.0,-185.0,34.0,0
1637,-158.0,-185.0,31.0,0
1638,-156.0,-186.0,31.0,0
1639,-157.0,-187.0,28.0,0
1640,-155.0,-186.0,28.0,0
1641,-157.0,-186.0,26.0,0
1642,-157.0,-187.0,35.0,0
1643,-154.0,-190.0,33.0,0
1644,-155.0,-190.0,35.0,0
1645,-155.0,-190.0,39.0,0
1646,-153.0,-187.0,36.0,0
1647,-153.0,-186.0,41.0,0
1648,-154.0,-180.0,37.0,0
1649,-152.0,-184.0,36.0,0
1650,-151.0,-186.0,33.0,0
1651,-153.0,-185.0,34.0,0
1652,-152.0,-187.0,26.0,0
1653,-152.0,-185.0,24.0,0
1654,-153.0,-186.0,25.0,0
1655,-150.0,-186.0,26.0,0
1656,-152.0,-189.0,28.0,0
1657,-151.0,-190.0,29.0,0
1658,-151.0,-187.0,28.0,0
1659,-149.0,-189.0,34.0,0
1660,-150.0,-189.0,35.0,0
1661,-147.0,-190.0,36.0,0
1662,-147.0,-193.0,34.0,0
1663,-145.0,-191.0,36.0,0
1664,-145.0,-192.0,40.0,0
1665,-145.0,-194.0,37.0,0
1666,-145.0,-194.0,38.0,0
1667,-144.0,-191.0,34.0,0
1668,-145.0,-191.0,35.0,0
1669,-144.0,-194.0,34.0,0
1670,-144.0,-193.0,35.0,0
1671,-143.0,-194.0,33.0,0
1672,-146.0,-194.0,29.0,0
1673,-146.0,-194.0,33.0,0
1674,-145.0,-196.0,32.0,0
1675,-144.0,-196.0,32.0,0
1676,-147.0,-198.0,32.0,0
1677,-144.0,-198.0,35.0,0
1678,-145.0,-196.0,37.0,0
1679,-145.0,-198.0,38.0,0
1680,-142.0,-199.0,37.0,0
1681,-142.0,-202.0,36.0,0
1682,-140.0,-200.0,39.0,0
1683,-140.0,-202.0,35.0,0
1684,-137.0,-200.0,38.0,0
1685,-136.0,-201.0,37.0,0
1686,-134.0,-199.0,37.0,0
1687,-133.0,-201.0,39.0,0
1688,-137.0,-201.0,39.0,0
1689,-139.0,-203.0,34.0,0
1690,-136.0,-203.0,38.0,0
1691,-132.0,-206.0,38.0,0
1692,-134.0,-203.0,30.0,0
1693,-137.0,-209.0,34.0,0
1694,-136.0,-209.0,37.0,0
1695,-136.0,-210.0,39.0,0
1696,-137.0,-211.0,33.0,0
1697,-137.0,-214.0,41.0,0
1698,-138.0,-214.0,37.0,0
1699,-134.0,-215.0,38.0,0
1700,-136.0,-216.0,34.0,0
1701,-135.0,-217.0,36.0,0
1702,-133.0,-216.0,37.0,0
1703,-133.0,-215.0,31.0,0
1704,-132.0,-216.0,32.0,0
1705,-131.0,-216.0,31.0,0
1706,-124.0,-215.0,30.0,0
1707,-126.0,-217.0,32.0,0
1708,-121.0,-216.0,31.0,0
1709,-118.0,-216.0,34.0,0
1710,-117.0,-214.0,33.0,0
1711,-113.0,-218.0,30.0,0
1712,-114.0,-214.0,29.0,0
1713,-109.0,-215.0,33.0,0
1714,-103.0,-221.0,40.0,0
1715,-111.0,-213.0,36.0,0
1716,-109.0,-213.0,31.0,0
1717,-107.0,-211.0,35.0,0
1718,-106.0,-213.0,33.0,0
1719,-106.0,-212.0,30.0,0
1720,-103.0,-211.0,31.0,0
1721,-105.0,-207.0,32.0,0
1722,-106.0,-207.0,36.0,0
1723,-107.0,-211.0,33.0,0
1724,-106.0,-214.0,35.0,0
1725,-108.0,-210.0,36.0,0
1726,-111.0,-212.0,39.0,0
1727,-107.0,-214.0,44.0,0
1728,-108.0,-213.0,45.0,0
1729,-107.0,-214.0,45.0,0
1730,-102.0,-213.0,44.0,0
1731,-104.0,-212.0,41.0,0
1732,-96.0,-212.0,39.0,0
1733,-91.0,-210.0,43.0,0
1734,-94.0,-212.0,40.0,0
1735,-88.0,-214.0,36.0,0
1736,-92.0,-213.0,41.0,0
1737,-91.0,-212.0,39.0,0
1738,-89.0,-213.0,40.0,0
1739,-92.0,-216.0,41.0,0
1740,-94.0,-217.0,40.0,0
1741,-94.0,-217.0,34.0,0
1742,-96.0,-220.0,39.0,0
1743,-94.0,-223.0,40.0,0
1744,-94.0,-222.0,42.0,0
1745,-93.0,-225.0,47.0,0
1746,-96.0,-219.0,43.0,0
1747,-95.0,-223.0,46.0,0
1748,-95.0,-226.0,45.0,0
1749,-96.0,-228.0,47.0,0
1750,-97.0,-227.0,47.0,0
1751,-97.0,-229.0,46.0,0
1752,-96.0,-231.0,46.0,0
1753,-96.0,-229.0,51.0,0
1754,-97.0,-232.0,50.0,0
1755,-90.0,-229.0,48.0,0
1756,-87.0,-230.0,47.0,0
1757,-77.0,-224.0,41.0,0
1758,-83.0,-229.0,46.0,0
1759,-81.0,-232.0,41.0,0
1760,-82.0,-227.0,39.0,0
1761,-82.0,-225.0,38.0,0
1762,-81.0,-224.0,42.0,0
1763,-80.0,-223.0,43.0,0
1764,-79.0,-226.0,43.0,0
1765,-75.0,-226.0,39.0,0
1766,-72.0,-226.0,43.0,0
1767,-68.0,-226.0,42.0,0
1768,-65.0,-225.0,41.0,0
1769,-60.0,-227.0,41.0,0
1770,-57.0,-227.0,36.0,0
1771,-59.0,-226.0,41.0,0
1772,-57.0,-228.0,40.0,0
1773,-55.0,-231.0,39.0,0
1774,-55.0,-233.0,38.0,0
1775,-59.0,-230.0,36.0,0
1776,-56.0,-233.0,35.0,0
1777,-59.0,-235.0,37.0,0
1778,-63.0,-234.0,36.0,0
1779,-69.0,-231.0,37.0,0
1780,-67.0,-230.0,38.0,0
1781,-65.0,-231.0,38.0,0
1782,-71.0,-227.0,38.0,0
1783,-70.0,-227.0,37.0,0
1784,-71.0,-228.0,38.0,0
1785,-76.0,-229.0,42.0,0
1786,-76.0,-231.0,42.0,0
1787,-75.0,-234.0,45.0,0
1788,-77.0,-234.0,41.0,0
1789,-79.0,-233.0,47.0,0
1790,-76.0,-236.0,43.0,0
1791,-76.0,-236.0,41.0,0
1792,-74.0,-237.0,41.0,0
1793,-73.0,-235.0,42.0,0
1794,-72.0,-235.0,45.0,0
1795,-69.0,-237.0,47.0,0
1796,-66.0,-233.0,42.0,0
1797,-64.0,-232.0,43.0,0
1798,-67.0,-233.0,47.0,0
1799,-57.0,-232.0,44.0,0
1800,-57.0,-230.0,54.0,0
1801,-56.0,-236.0,51.0,0
1802,-55.0,-232.0,44.0,0
1803,-51.0,-239.0,44.0,0
1804,-50.0,-235.0,43.0,0
1805,-47.0,-237.0,44.0,0
1806,-46.0,-236.0,41.0,0
1807,-47.0,-238.0,37.0,0
1808,-44.0,-240.0,38.0,0
1809,-48.0,-236.0,35.0,0
1810,-45.0,-240.0,40.0,0
1811,-47.0,-238.0,40.0,0
1812,-44.0,-235.0,31.0,0
1813,-48.0,-236.0,36.0,0
1814,-48.0,-235.0,38.0,0
1815,-52.0,-234.0,35.0,0
1816,-56.0,-231.0,36.0,0
1817,-55.0,-229.0,38.0,0
1818,-55.0,-230.0,44.0,0
1819,-54.0,-229.0,43.0,0
1820,-56.0,-231.0,44.0,0
1821,-56.0,-230.0,48.0,0
1822,-55.0,-229.0,53.0,0
1823,-51.0,-225.0,53.0,0
1824,-50.0,-228.0,51.0,0
1825,-45.0,-227.0,48.0,0
1826,-45.0,-229.0,49.0,0
1827,-45.0,-229.0,47.0,0
1828,-44.0,-230.0,47.0,0
1829,-41.0,-234.0,43.0,0
1830,-40.0,-233.0,45.0,0
1831,-36.0,-239.0,48.0,0
1832,-40.0,-233.0,43.0,0
1833,-32.0,-243.0,50.0,0
1834,-33.0,-242.0,43.0,0
1835,-34.0,-240.0,46.0,0
1836,-35.0,-239.0,46.0,0
1837,-36.0,-245.0,44.0,0
1838,-39.0,-239.0,45.0,0
1839,-34.0,-244.0,48.0,0
1840,-36.0,-244.0,51.0,0
1841,-37.0,-241.0,55.0,0
1842,-39.0,-243.0,55.0,0
1843,-36.0,-243.0,61.0,0
1844,-35.0,-245.0,58.0,0
1845,-31.0,-246.0,55.0,0
1846,-35.0,-243.0,56.0,0
1847,-38.0,-239.0,58.0,0
1848,-37.0,-238.0,55.0,0
1849,-35.0,-236.0,61.0,0
1850,-35.0,-236.0,62.0,0
1851,-33.0,-235.0,62.0,0
1852,-32.0,-235.0,61.0,0
1853,-31.0,-234.0,65.0,0
1854,-29.0,-235.0,61.0,0
1855,-34.0,-234.0,62.0,0
1856,-32.0,-235.0,65.0,0
1857,-25.0,-233.0,60.0,0
1858,-25.0,-231.0,58.0,0
1859,-16.0,-233.0,59.0,0
1860,-16.0,-235.0,66.0,0
1861,-15.0,-236.0,61.0,0
1862,-15.0,-237.0,62.0,0
1863,-16.0,-235.0,63.0,0
1864,-16.0,-238.0,66.0,0
1865,-16.0,-237.0,62.0,0
1866,-16.0,-233.0,66.0,0
1867,-15.0,-234.0,64.0,0
1868,-16.0,-231.0,67.0,0
1869,-15.0,-231.0,65.0,0
1870,-15.0,-234.0,64.0,0
1871,-16.0,-232.0,70.0,0
1872,-14.0,-233.0,67.0,0
1873,-13.0,-231.0,72.0,0
1874,-11.0,-227.0,71.0,0
1875,-13.0,-229.0,73.0,0
1876,-12.0,-231.0,70.0,0
1877,-11.0,-227.0,72.0,0
1878,-9.0,-228.0,70.0,0
1879,-5.0,-229.0,66.0,0
1880,-7.0,-229.0,67.0,0
1881,-5.0,-230.0,69.0,0
1882,-5.0,-232.0,66.0,0
1883,-6.0,-231.0,69.0,0
1884,-3.0,-236.0,68.0,0
1885,-3.0,-238.0,67.0,0
1886,-1.0,-241.0,66.0,0
1887,-2.0,-239.0,67.0,0
1888,-2.0,-240.0,66.0,0
1889,-2.0,-244.0,73.0,0
1890,-1.0,-243.0,71.0,0
1891,0.0,-242.0,71.0,0
1892,-1.0,-240.0,73.0,0
1893,0.0,-239.0,71.0,0
1894,3.0,-237.0,71.0,0
1895,0.0,-237.0,72.0,0
1896,1.0,-235.0,71.0,0
1897,5.0,-234.0,71.0,0
1898,1.0,-232.0,69.0,0
1899,4.0,-231.0,68.0,0
1900,1.0,-228.0,70.0,0
1901,3.0,-226.0,67.0,0
1902,2.0,-223.0,68.0,0
1903,0.0,-224.0,67.0,0
1904,1.0,-219.0,63.0,0
1905,0.0,-223.0,67.0,0
1906,-2.0,-220.0,66.0,0
1907,-2.0,-221.0,66.0,0
1908,-4.0,-222.0,66.0,0
1909,-7.0,-227.0,68.0,0
1910,-5.0,-227.0,68.0,0
1911,-6.0,-225.0,66.0,0
1912,-9.0,-231.0,68.0,0
1913,-8.0,-231.0,66.0,0
1914,-12.0,-233.0,70.0,0
1915,-10.0,-231.0,69.0,0
1916,-8.0,-235.0,67.0,0
1917,-8.0,-236.0,72.0,0
1918,-7.0,-233.0,66.0,0
1919,-11.0,-234.0,68.0,0
1920,-8.0,-235.0,66.0,0
1921,-9.0,-231.0,67.0,0
1922,-7.0,-232.0,67.0,0
1923,-5.0,-232.0,63.0,0
1924,-6.0,-232.0,62.0,0
1925,-5.0,-232.0,64.0,0
1926,-4.0,-235.0,67.0,0
1927,-2.0,-234.0,64.0,0
1928,-4.0,-232.0,68.0,0
1929,-2.0,-233.0,70.0,0
1930,-1.0,-233.0,73.0,0
1931,-1.0,-232.0,68.0,0
1932,3.0,-234.0,72.0,0
1933,0.0,-234.0,70.0,0
1934,1.0,-235.0,71.0,0
1935,1.0,-237.0,72.0,0
1936,3.0,-235.0,74.0,0
1937,4.0,-234.0,73.0,0
1938,2.0,-233.0,73.0,0
1939,7.0,-232.0,72.0,0
1940,8.0,-234.0,74.0,0
1941,7.0,-231.0,73.0,0
1942,8.0,-231.0,72.0,0
1943,9.0,-231.0,74.0,0
1944,7.0,-231.0,72.0,0
1945,9.0,-230.0,75.0,0
1946,7.0,-229.0,75.0,0
1947,8.0,-226.0,77.0,0
1948,9.0,-228.0,77.0,0
1949,8.0,-229.0,74.0,0
1950,10.0,-228.0,76.0,0
1951,9.0,-226.0,74.0,0
1952,10.0,-224.0,76.0,0
1953,9.0,-224.0,75.0,0
1954,6.0,-223.0,72.0,0
1955,7.0,-224.0,73.0,0
1956,12.0,-227.0,73.0,0
1957,11.0,-222.0,73.0,0
1958,10.0,-225.0,74.0,0
1959,6.0,-222.0,74.0,0
1960,14.0,-224.0,74.0,0
1961,11.0,-225.0,76.0,0
1962,12.0,-226.0,74.0,0
1963,13.0,-231.0,80.0,0
1964,9.0,-231.0,79.0,0
1965,8.0,-229.0,74.0,0
1966,8.0,-229.0,78.0,0
1967,7.0,-226.0,76.0,0
1968,5.0,-228.0,73.0,0
1969,5.0,-228.0,73.0,0
1970,5.0,-227.0,69.0,0
1971,7.0,-228.0,70.0,0
1972,7.0,-230.0,70.0,0
1973,8.0,-227.0,72.0,0
1974,5.0,-226.0,73.0,0
1975,11.0,-226.0,72.0,0
1976,2.0,-223.0,71.0,0
1977,4.0,-227.0,72.0,0
1978,5.0,-227.0,73.0,0
1979,3.0,-225.0,72.0,0
1980,4.0,-226.0,72.0,0
1981,5.0,-229.0,68.0,0
1982,7.0,-225.0,66.0,0
1983,5.0,-229.0,69.0,0
1984,8.0,-232.0,70.0,0
1985,4.0,-231.0,71.0,0
1986,3.0,-230.0,69.0,0
1987,3.0,-229.0,67.0,0
1988,4.0,-230.0,68.0,0
1989,1.0,-232.0,71.0,0
1990,7.0,-232.0,70.0,0
1991,4.0,-233.0,70.0,0
1992,1.0,-229.0,70.0,0
1993,1.0,-229.0,68.0,0
1994,4.0,-232.0,70.0,0
1995,7.0,-227.0,72.0,0
1996,6.0,-229.0,69.0,0
1997,4.0,-234.0,70.0,0
1998,4.0,-230.0,71.0,0
1999,5.0,-227.0,74.0,0
2000,7.0,-230.0,73.0,0
2001,6.0,-231.0,76.0,0
2002,4.0,-230.0,73.0,0
2003,4.0,-232.0,72.0,0
2004,5.0,-232.0,71.0,0
2005,5.0,-233.0,78.0,0
2006,3.0,-235.0,75.0,0
2007,2.0,-236.0,74.0,0
2008,4.0,-234.0,76.0,0
2009,6.0,-235.0,79.0,0
2010,5.0,-234.0,78.0,0
2011,6.0,-233.0,77.0,0
2012,5.0,-231.0,75.0,0
2013,7.0,-231.0,78.0,0
2014,5.0,-226.0,77.0,0
2015,5.0,-225.0,77.0,0
2016,4.0,-225.0,75.0,0
2017,5.0,-224.0,73.0,0
2018,5.0,-225.0,70.0,0
2019,1.0,-220.0,70.0,0
2020,0.0,-223.0,71.0,0
2021,0.0,-221.0,70.0,0
2022,-2.0,-220.0,72.0,0
2023,1.0,-220.0,72.0,0
2024,2.0,-222.0,74.0,0
2025,-3.0,-222.0,74.0,0
2026,0.0,-224.0,73.0,0
2027,-2.0,-224.0,77.0,0
2028,0.0,-224.0,72.0,0
2029,0.0,-228.0,75.0,0
2030,0.0,-228.0,75.0,0
2031,3.0,-227.0,77.0,0
2032,2.0,-234.0,77.0,0
2033,0.0,-231.0,75.0,0
2034,5.0,-235.0,76.0,0
2035,5.0,-234.0,76.0,0
2036,6.0,-237.0,73.0,0
2037,4.0,-236.0,77.0,0
2038,2.0,-234.0,77.0,0
2039,2.0,-235.0,74.0,0
2040,-5.0,-227.0,72.0,0
2041,2.0,-233.0,73.0,0
2042,3.0,-231.0,78.0,0
2043,-1.0,-227.0,76.0,0
2044,-1.0,-229.0,76.0,0
2045,-2.0,-225.0,78.0,0
2046,-3.0,-223.0,81.0,0
2047,-3.0,-222.0,84.0,0
2048,-4.0,-221.0,81.0,0
2049,-7.0,-224.0,79.0,0
2050,-6.0,-221.0,78.0,0
2051,-5.0,-222.0,81.0,0
2052,-6.0,-221.0,82.0,0
2053,-8.0,-225.0,80.0,0
2054,-5.0,-224.0,80.0,0
2055,-7.0,-223.0,81.0,0
2056,-6.0,-227.0,79.0,0
2057,-3.0,-224.0,74.0,0
2058,-3.0,-225.0,81.0,0
2059,-3.0,-223.0,83.0,0
2060,-3.0,-225.0,81.0,0
2061,-5.0,-223.0,82.0,0
2062,0.0,-219.0,81.0,0
2063,-2.0,-227.0,84.0,0
2064,-3.0,-228.0,84.0,0
2065,-5.0,-224.0,83.0,0
2066,-1.0,-232.0,85.0,0
2067,-5.0,-226.0,84.0,0
2068,-2.0,-231.0,81.0,0
2069,-5.0,-228.0,84.0,0
2070,-2.0,-230.0,83.0,0
2071,-4.0,-230.0,82.0,0
2072,-2.0,-229.0,83.0,0
2073,-2.0,-230.0,79.0,0
2074,-5.0,-229.0,83.0,0
2075,-6.0,-228.0,76.0,0
2076,-3.0,-227.0,83.0,0
2077,-1.0,-232.0,81.0,0
2078,-1.0,-230.0,78.0,0
2079,-2.0,-231.0,80.0,0
2080,-6.0,-230.0,84.0,0
2081,-5.0,-228.0,85.0,0
2082,-4.0,-229.0,83.0,0
2083,-5.0,-230.0,78.0,0
2084,-1.0,-225.0,86.0,0
2085,-2.0,-226.0,85.0,0
2086,-5.0,-226.0,80.0,0
2087,-4.0,-226.0,84.0,0
2088,-3.0,-223.0,82.0,0
2089,0.0,-224.0,81.0,0
2090,-3.0,-222.0,80.0,0
2091,-4.0,-221.0,80.0,0
2092,-4.0,-217.0,83.0,0
2093,-5.0,-216.0,82.0,0
2094,-6.0,-216.0,87.0,0
2095,-4.0,-217.0,83.0,0
2096,-7.0,-212.0,84.0,0
2097,-2.0,-211.0,85.0,0
2098,-3.0,-214.0,83.0,0
2099,-5.0,-215.0,84.0,0
2100,-4.0,-211.0,82.0,0
2101,-5.0,-210.0,82.0,0
2102,-4.0,-211.0,85.0,0
2103,-5.0,-210.0,80.0,0
2104,-5.0,-213.0,83.0,0
2105,-6.0,-213.0,87.0,0
2106,1.0,-218.0,85.0,0
2107,-7.0,-219.0,78.0,0
2108,-12.0,-224.0,75.0,0
2109,-8.0,-213.0,77.0,0
2110,-5.0,-223.0,87.0,0
2111,-4.0,-223.0,88.0,0
2112,-4.0,-224.0,90.0,0
2113,-9.0,-221.0,92.0,0
2114,-4.0,-229.0,91.0,0
2115,-6.0,-227.0,96.0,0
2116,-3.0,-225.0,93.0,0
2117,-4.0,-229.0,90.0,0
2118,-2.0,-221.0,84.0,0
2119,-1.0,-224.0,89.0,0
2120,-3.0,-221.0,87.0,0
2121,-3.0,-217.0,86.0,0
2122,-4.0,-218.0,89.0,0
2123,-3.0,-216.0,91.0,0
2124,2.0,-213.0,92.0,0
2125,-1.0,-212.0,92.0,0
2126,-2.0,-214.0,93.0,0
2127,-1.0,-213.0,92.0,0
2128,-2.0,-212.0,97.0,0
2129,-6.0,-209.0,93.0,0
2130,-7.0,-207.0,97.0,0
2131,-5.0,-207.0,95.0,0
2132,-4.0,-205.0,94.0,0
2133,-8.0,-205.0,95.0,0
2134,-11.0,-204.0,93.0,0
2135,-10.0,-202.0,96.0,0
2136,-13.0,-205.0,93.0,0
2137,-9.0,-203.0,92.0,0
2138,-14.0,-207.0,91.0,0
2139,-10.0,-211.0,94.0,0
2140,-11.0,-214.0,94.0,0
2141,-12.0,-212.0,91.0,0
2142,-13.0,-218.0,95.0,0
2143,-13.0,-219.0,94.0,0
2144,-13.0,-220.0,97.0,0
2145,-10.0,-223.0,96.0,0
2146,-11.0,-226.0,95.0,0
2147,-11.0,-227.0,98.0,0
2148,-11.0,-225.0,95.0,0
2149,-12.0,-228.0,94.0,0
2150,-11.0,-228.0,92.0,0
2151,-9.0,-228.0,93.0,0
2152,-12.0,-228.0,93.0,0
2153,-13.0,-227.0,91.0,0
2154,-10.0,-224.0,90.0,0
2155,-12.0,-224.0,93.0,0
2156,-13.0,-222.0,88.0,0
2157,-9.0,-221.0,91.0,0
2158,-10.0,-219.0,86.0,0
2159,-7.0,-220.0,83.0,0
2160,-7.0,-222.0,87.0,0
2161,-8.0,-217.0,84.0,0
2162,-6.0,-218.0,83.0,0
2163,-5.0,-219.0,84.0,0
2164,-5.0,-218.0,80.0,0
2165,-5.0,-219.0,86.0,0
2166,-3.0,-219.0,84.0,0
2167,-3.0,-219.0,85.0,0
2168,-4.0,-219.0,85.0,0
2169,-4.0,-218.0,86.0,0
2170,-5.0,-218.0,83.0,0
2171,-3.0,-221.0,86.0,0
2172,-6.0,-220.0,89.0,0
2173,-4.0,-219.0,89.0,0
2174,-2.0,-221.0,91.0,0
2175,1.0,-219.0,90.0,0
2176,-2.0,-220.0,91.0,0
2177,-3.0,-215.0,89.0,0
2178,0.0,-216.0,89.0,0
2179,2.0,-216.0,91.0,0
2180,3.0,-217.0,89.0,0
2181,0.0,-219.0,83.0,0
2182,9.0,-220.0,85.0,0
2183,1.0,-217.0,90.0,0
2184,3.0,-215.0,91.0,0
2185,3.0,-216.0,92.0,0
2186,2.0,-217.0,89.0,0
2187,6.0,-221.0,90.0,0
2188,6.0,-223.0,92.0,0
2189,8.0,-222.0,91.0,0
2190,4.0,-219.0,91.0,0
2191,7.0,-222.0,92.0,0
2192,6.0,-221.0,92.0,0
2193,5.0,-220.0,93.0,0
2194,3.0,-220.0,90.0,0
2195,7.0,-222.0,92.0,0
2196,6.0,-218.0,90.0,0
2197,7.0,-222.0,89.0,0
2198,8.0,-219.0,89.0,0
2199,6.0,-219.0,89.0,0
2200,8.0,-220.0,90.0,0
2201,7.0,-218.0,90.0,0
2202,6.0,-219.0,90.0,0
2203,5.0,-219.0,89.0,0
2204,5.0,-215.0,94.0,0
2205,7.0,-217.0,88.0,0
2206,3.0,-218.0,89.0,0
2207,4.0,-217.0,91.0,0
2208,3.0,-217.0,90.0,0
2209,4.0,-220.0,91.0,0
2210,4.0,-217.0,95.0,0
2211,6.0,-218.0,92.0,0
2212,1.0,-215.0,91.0,0
2213,2.0,-220.0,92.0,0
2214,4.0,-218.0,96.0,0
2215,3.0,-218.0,90.0,0
2216,3.0,-217.0,92.0,0
2217,3.0,-217.0,92.0,0
2218,5.0,-221.0,90.0,0
2219,2.0,-218.0,93.0,0
2220,3.0,-216.0,91.0,0
2221,2.0,-216.0,89.0,0
2222,-1.0,-218.0,89.0,0
2223,3.0,-217.0,92.0,0
2224,3.0,-213.0,92.0,0
2225,4.0,-214.0,94.0,0
2226,6.0,-217.0,97.0,0
2227,2.0,-216.0,90.0,0
2228,4.0,-217.0,91.0,0
2229,3.0,-218.0,91.0,0
2230,2.0,-218.0,92.0,0
2231,3.0,-221.0,94.0,0
2232,1.0,-219.0,92.0,0
2233,-1.0,-218.0,94.0,0
2234,2.0,-217.0,94.0,0
2235,3.0,-220.0,93.0,0
2236,1.0,-216.0,95.0,0
2237,0.0,-218.0,93.0,0
2238,-2.0,-217.0,91.0,0
2239,-3.0,-220.0,91.0,0
2240,3.0,-222.0,92.0,0
2241,0.0,-220.0,90.0,0
2242,-3.0,-218.0,94.0,0
2243,-2.0,-222.0,90.0,0
2244,2.0,-220.0,91.0,0
2245,-2.0,-220.0,94.0,0
2246,0.0,-223.0,91.0,0
2247,0.0,-223.0,91.0,0
2248,-1.0,-217.0,88.0,0
2249,-2.0,-220.0,89.0,0
2250,-1.0,-219.0,87.0,0
2251,-5.0,-218.0,92.0,0
2252,-3.0,-218.0,91.0,0
2253,-3.0,-220.0,89.0,0
2254,-5.0,-218.0,89.0,0
2255,-4.0,-219.0,90.0,0
2256,-4.0,-221.0,92.0,0
2257,-4.0,-221.0,87.0,0
2258,-3.0,-220.0,88.0,0
2259,-3.0,-219.0,86.0,0
2260,2.0,-221.0,87.0,0
2261,-2.0,-219.0,87.0,0
2262,-1.0,-218.0,89.0,0
2263,1.0,-220.0,89.0,0
2264,2.0,-219.0,89.0,0
2265,0.0,-217.0,87.0,0
2266,0.0,-220.0,94.0,0
2267,1.0,-221.0,89.0,0
2268,2.0,-216.0,82.0,0
2269,3.0,-219.0,89.0,0
2270,0.0,-219.0,89.0,0
2271,2.0,-215.0,86.0,0
2272,0.0,-219.0,92.0,0
2273,0.0,-222.0,90.0,0
2274,1.0,-220.0,87.0,0
2275,0.0,-217.0,90.0,0
2276,-1.0,-219.0,88.0,0
2277,1.0,-221.0,90.0,0
2278,-2.0,-219.0,91.0,0
2279,5.0,-217.0,89.0,0
2280,-3.0,-219.0,87.0,0
2281,-1.0,-222.0,92.0,0
2282,1.0,-220.0,92.0,0
2283,1.0,-221.0,93.0,0
2284,-1.0,-223.0,91.0,0
2285,0.0,-218.0,90.0,0
2286,1.0,-223.0,90.0,0
2287,0.0,-220.0,91.0,0
2288,4.0,-221.0,90.0,0
2289,3.0,-220.0,89.0,0
2290,7.0,-221.0,91.0,0
2291,5.0,-215.0,89.0,0
2292,1.0,-216.0,86.0,0
2293,4.0,-217.0,90.0,0
2294,5.0,-218.0,90.0,0
2295,1.0,-216.0,87.0,0
2296,3.0,-217.0,92.0,0
2297,4.0,-219.0,91.0,0
2298,3.0,-217.0,91.0,0
2299,6.0,-218.0,88.0,0
2300,6.0,-221.0,93.0,0
2301,7.0,-219.0,95.0,0
2302,1.0,-219.0,92.0,0
2303,2.0,-219.0,87.0,0
2304,4.0,-222.0,92.0,0
2305,1.0,-217.0,91.0,0
2306,2.0,-220.0,92.0,0
2307,2.0,-220.0,90.0,0
2308,3.0,-218.0,94.0,0
2309,1.0,-218.0,91.0,0
2310,1.0,-219.0,92.0,0
2311,0.0,-216.0,88.0,0
2312,-2.0,-218.0,91.0,0
2313,3.0,-218.0,92.0,0
2314,-1.0,-216.0,88.0,0
2315,1.0,-214.0,89.0,0
2316,1.0,-219.0,86.0,0
2317,0.0,-216.0,89.0,0
2318,3.0,-215.0,89.0,0
2319,3.0,-218.0,89.0,0
2320,1.0,-217.0,92.0,0
2321,3.0,-219.0,91.0,0
2322,0.0,-218.0,89.0,0
2323,1.0,-217.0,88.0,0
2324,2.0,-219.0,94.0,0
2325,-1.0,-219.0,91.0,0
2326,-2.0,-216.0,94.0,0
2327,0.0,-219.0,93.0,0
2328,2.0,-219.0,91.0,0
2329,0.0,-221.0,91.0,0
2330,0.0,-218.0,92.0,0
2331,0.0,-219.0,90.0,0
2332,0.0,-217.0,91.0,0
2333,3.0,-216.0,86.0,0
2334,-2.0,-218.0,90.0,0
2335,1.0,-216.0,94.0,0
2336,1.0,-220.0,89.0,0
2337,0.0,-220.0,94.0,0
2338,1.0,-221.0,87.0,0
2339,-2.0,-215.0,93.0,0
2340,-2.0,-212.0,90.0,0
2341,-1.0,-219.0,90.0,0
2342,-2.0,-214.0,90.0,0
2343,0.0,-219.0,90.0,0
2344,-1.0,-216.0,97.0,0
2345,0.0,-218.0,89.0,0
2346,1.0,-218.0,90.0,0
2347,1.0,-219.0,88.0,0
2348,-3.0,-220.0,92.0,0
2349,-1.0,-217.0,91.0,0
2350,1.0,-221.0,88.0,0
2351,-1.0,-221.0,91.0,0
2352,-5.0,-218.0,88.0,0
2353,-1.0,-220.0,94.0,0
2354,-2.0,-221.0,92.0,0
2355,-3.0,-225.0,95.0,0
2356,-2.0,-219.0,90.0,0
2357,-4.0,-219.0,94.0,0
2358,-2.0,-221.0,91.0,0
2359,-1.0,-221.0,91.0,0
2360,-3.0,-220.0,91.0,0
2361,-2.0,-219.0,89.0,0
2362,-2.0,-217.0,91.0,0
2363,-2.0,-216.0,89.0,0
2364,-2.0,-218.0,88.0,0
2365,0.0,-221.0,86.0,0
2366,1.0,-219.0,86.0,0
2367,2.0,-218.0,89.0,0
2368,3.0,-217.0,87.0,0
2369,2.0,-216.0,87.0,0
2370,3.0,-219.0,91.0,0
2371,5.0,-218.0,94.0,0
2372,2.0,-216.0,95.0,0
2373,1.0,-218.0,94.0,0
2374,4.0,-220.0,91.0,0
2375,-1.0,-219.0,90.0,0
2376,1.0,-221.0,91.0,0
2377,2.0,-222.0,92.0,0
2378,-1.0,-219.0,92.0,0
2379,0.0,-221.0,91.0,0
2380,1.0,-222.0,92.0,0
2381,-1.0,-219.0,89.0,0
2382,-3.0,-217.0,87.0,0
2383,2.0,-218.0,90.0,0
2384,2.0,-219.0,94.0,0
2385,2.0,-219.0,88.0,0
2386,0.0,-219.0,89.0,0
2387,1.0,-220.0,92.0,0
2388,1.0,-219.0,93.0,0
2389,-1.0,-217.0,91.0,0
2390,2.0,-221.0,91.0,0
2391,-1.0,-218.0,89.0,0
2392,-1.0,-218.0,85.0,0
2393,0.0,-219.0,90.0,0
2394,1.0,-219.0,92.0,0
2395,1.0,-219.0,94.0,0
2396,2.0,-218.0,91.0,0
2397,2.0,-218.0,90.0,0
2398,1.0,-220.0,91.0,0
2399,0.0,-223.0,90.0,0
