,accelerometer_x,accelerometer_y,accelerometer_z,fall
0,-1.0,-254.0,-30.0,0
1,1.0,-258.0,-34.0,0
2,-3.0,-254.0,-30.0,0
3,0.0,-254.0,-33.0,0
4,0.0,-254.0,-34.0,0
5,15.0,-255.0,-20.0,0
6,0.0,-259.0,-33.0,0
7,0.0,-257.0,-32.0,0
8,2.0,-257.0,-31.0,0
9,0.0,-260.0,-31.0,0
10,0.0,-256.0,-31.0,0
11,0.0,-257.0,-33.0,0
12,-4.0,-258.0,-32.0,0
13,-1.0,-255.0,-31.0,0
14,0.0,-257.0,-33.0,0
15,-1.0,-261.0,-36.0,0
16,0.0,-256.0,-35.0,0
17,-1.0,-257.0,-35.0,0
18,-2.0,-254.0,-32.0,0
19,-2.0,-255.0,-33.0,0
20,-5.0,-253.0,-34.0,0
21,-3.0,-255.0,-34.0,0
22,0.0,-252.0,-33.0,0
23,0.0,-255.0,-31.0,0
24,0.0,-252.0,-31.0,0
25,0.0,-256.0,-31.0,0
26,-1.0,-253.0,-33.0,0
27,0.0,-252.0,-32.0,0
28,-1.0,-252.0,-31.0,0
29,2.0,-255.0,-33.0,0
30,0.0,-255.0,-31.0,0
31,0.0,-254.0,-29.0,0
32,0.0,-253.0,-30.0,0
33,1.0,-255.0,-23.0,0
34,-2.0,-255.0,-32.0,0
35,0.0,-255.0,-32.0,0
36,-1.0,-257.0,-34.0,0
37,0.0,-254.0,-32.0,0
38,1.0,-256.0,-31.0,0
39,1.0,-257.0,-32.0,0
40,1.0,-255.0,-31.0,0
41,0.0,-253.0,-31.0,0
42,0.0,-253.0,-31.0,0
43,-2.0,-257.0,-31.0,0
44,1.0,-254.0,-30.0,0
45,0.0,-250.0,-30.0,0
46,0.0,-255.0,-33.0,0
47,0.0,-253.0,-27.0,0
48,4.0,-250.0,-27.0,0
49,3.0,-255.0,-28.0,0
50,0.0,-256.0,-32.0,0
51,0.0,-255.0,-28.0,0
52,0.0,-254.0,-31.0,0
53,-2.0,-251.0,-27.0,0
54,0.0,-251.0,-28.0,0
55,1.0,-251.0,-33.0,0
56,-2.0,-250.0,-25.0,0
57,0.0,-252.0,-26.0,0
58,1.0,-252.0,-27.0,0
59,0.0,-253.0,-30.0,0
60,-2.0,-252.0,-25.0,0
61,2.0,-251.0,-26.0,0
62,0.0,-257.0,-21.0,0
63,0.0,-253.0,-26.0,0
64,1.0,-255.0,-25.0,0
65,0.0,-259.0,-23.0,0
66,1.0,-258.0,-29.0,0
67,-3.0,-257.0,-25.0,0
68,3.0,-261.0,-25.0,0
69,1.0,-256.0,-23.0,0
70,-1.0,-255.0,-24.0,0
71,1.0,-260.0,-24.0,0
72,0.0,-257.0,-27.0,0
73,-1.0,-257.0,-25.0,0
74,0.0,-258.0,-24.0,0
75,0.0,-255.0,-24.0,0
76,1.0,-255.0,-23.0,0
77,0.0,-252.0,-22.0,0
78,1.0,-252.0,-21.0,0
79,-1.0,-254.0,-20.0,0
80,-2.0,-255.0,-23.0,0
81,-2.0,-255.0,-21.0,0
82,1.0,-257.0,-21.0,0
83,1.0,-255.0,-22.0,0
84,0.0,-255.0,-20.0,0
85,-2.0,-254.0,-23.0,0
86,0.0,-257.0,-24.0,0
87,0.0,-255.0,-24.0,0
88,0.0,-255.0,-21.0,0
89,2.0,-254.0,-21.0,0
90,2.0,-255.0,-21.0,0
91,-3.0,-257.0,-21.0,0
92,2.0,-260.0,-29.0,0
93,3.0,-258.0,-24.0,0
94,1.0,-258.0,-23.0,0
95,2.0,-257.0,-26.0,0
96,3.0,-256.0,-26.0,0
97,3.0,-256.0,-28.0,0
98,1.0,-257.0,-26.0,0
99,-1.0,-258.0,-27.0,0
100,0.0,-258.0,-26.0,0
101,-1.0,-259.0,-22.0,0
102,-1.0,-262.0,-26.0,0
103,-1.0,-257.0,-26.0,0
104,-1.0,-256.0,-24.0,0
105,-6.0,-258.0,-29.0,0
106,-3.0,-257.0,-28.0,0
107,-5.0,-258.0,-29.0,0
108,-6.0,-261.0,-29.0,0
109,-5.0,-257.0,-28.0,0
110,-6.0,-255.0,-31.0,0
111,-3.0,-256.0,-24.0,0
112,-4.0,-255.0,-26.0,0
113,1.0,-257.0,-32.0,0
114,1.0,-250.0,-26.0,0
115,1.0,-254.0,-24.0,0
116,1.0,-252.0,-27.0,0
117,1.0,-251.0,-26.0,0
118,0.0,-251.0,-29.0,0
119,3.0,-254.0,-26.0,0
120,1.0,-251.0,-30.0,0
121,2.0,-255.0,-25.0,0
122,2.0,-258.0,-23.0,0
123,3.0,-254.0,-24.0,0
124,1.0,-255.0,-21.0,0
125,0.0,-256.0,-26.0,0
126,1.0,-255.0,-22.0,0
127,1.0,-258.0,-26.0,0
128,1.0,-257.0,-23.0,0
129,0.0,-255.0,-24.0,0
130,0.0,-257.0,-26.0,0
131,-3.0,-254.0,-26.0,0
132,0.0,-260.0,-26.0,0
133,0.0,-254.0,-28.0,0
134,0.0,-257.0,-27.0,0
135,1.0,-257.0,-24.0,0
136,1.0,-259.0,-24.0,0
137,0.0,-256.0,-25.0,0
138,0.0,-256.0,-21.0,0
139,0.0,-256.0,-24.0,0
140,0.0,-256.0,-23.0,0
141,0.0,-255.0,-21.0,0
142,1.0,-256.0,-21.0,0
143,2.0,-255.0,-22.0,0
144,0.0,-258.0,-22.0,0
145,0.0,-256.0,-22.0,0
146,2.0,-254.0,-20.0,0
147,2.0,-256.0,-24.0,0
148,2.0,-256.0,-21.0,0
149,1.0,-254.0,-22.0,0
150,0.0,-252.0,-22.0,0
151,1.0,-254.0,-23.0,0
152,0.0,-253.0,-21.0,0
153,0.0,-255.0,-19.0,0
154,0.0,-256.0,-19.0,0
155,0.0,-256.0,-22.0,0
156,1.0,-256.0,-23.0,0
157,0.0,-257.0,-18.0,0
158,-1.0,-256.0,-23.0,0
159,0.0,-257.0,-22.0,0
160,0.0,-256.0,-22.0,0
161,0.0,-257.0,-21.0,0
162,1.0,-256.0,-23.0,0
163,1.0,-255.0,-19.0,0
164,1.0,-256.0,-20.0,0
165,1.0,-257.0,-18.0,0
166,0.0,-254.0,-19.0,0
167,1.0,-255.0,-20.0,0
168,1.0,-255.0,-20.0,0
169,1.0,-258.0,-16.0,0
170,0.0,-259.0,-18.0,0
171,1.0,-256.0,-20.0,0
172,0.0,-259.0,-19.0,0
173,-1.0,-258.0,-19.0,0
174,0.0,-257.0,-21.0,0
175,3.0,-258.0,-19.0,0
176,2.0,-258.0,-17.0,0
177,1.0,-258.0,-19.0,0
178,1.0,-262.0,-20.0,0
179,0.0,-259.0,-20.0,0
180,0.0,-254.0,-20.0,0
181,1.0,-255.0,-23.0,0
182,1.0,-257.0,-22.0,0
183,2.0,-253.0,-18.0,0
184,0.0,-254.0,-18.0,0
185,2.0,-253.0,-19.0,0
186,0.0,-255.0,-20.0,0
187,1.0,-255.0,-18.0,0
188,0.0,-254.0,-19.0,0
189,2.0,-255.0,-22.0,0
190,0.0,-261.0,-18.0,0
191,0.0,-255.0,-16.0,0
192,1.0,-258.0,-20.0,0
193,0.0,-256.0,-14.0,0
194,0.0,-253.0,-16.0,0
195,2.0,-257.0,-19.0,0
196,2.0,-256.0,-20.0,0
197,1.0,-257.0,-18.0,0
198,2.0,-255.0,-16.0,0
199,1.0,-255.0,-20.0,0
200,9.0,-257.0,-23.0,0
201,4.0,-254.0,-18.0,0
202,1.0,-254.0,-18.0,0
203,1.0,-253.0,-20.0,0
204,1.0,-258.0,-19.0,0
205,0.0,-253.0,-17.0,0
206,2.0,-259.0,-17.0,0
207,0.0,-253.0,-16.0,0
208,1.0,-255.0,-19.0,0
209,3.0,-256.0,-19.0,0
210,2.0,-253.0,-19.0,0
211,3.0,-253.0,-20.0,0
212,1.0,-258.0,-17.0,0
213,2.0,-255.0,-19.0,0
214,1.0,-257.0,-22.0,0
215,1.0,-256.0,-20.0,0
216,-1.0,-255.0,-18.0,0
217,2.0,-258.0,-20.0,0
218,-1.0,-256.0,-20.0,0
219,2.0,-262.0,-21.0,0
220,1.0,-255.0,-20.0,0
221,1.0,-255.0,-20.0,0
222,4.0,-257.0,-21.0,0
223,0.0,-254.0,-21.0,0
224,1.0,-256.0,-18.0,0
225,1.0,-258.0,-20.0,0
226,4.0,-258.0,-19.0,0
227,2.0,-257.0,-19.0,0
228,3.0,-257.0,-18.0,0
229,1.0,-254.0,-20.0,0
230,1.0,-258.0,-19.0,0
231,1.0,-257.0,-19.0,0
232,0.0,-255.0,-19.0,0
233,0.0,-255.0,-22.0,0
234,2.0,-257.0,-21.0,0
235,0.0,-252.0,-19.0,0
236,0.0,-252.0,-20.0,0
237,0.0,-252.0,-20.0,0
238,1.0,-254.0,-21.0,0
239,2.0,-257.0,-20.0,0
240,1.0,-255.0,-21.0,0
241,0.0,-253.0,-21.0,0
242,0.0,-256.0,-19.0,0
243,1.0,-256.0,-20.0,0
244,6.0,-261.0,-18.0,0
245,1.0,-257.0,-22.0,0
246,1.0,-254.0,-23.0,0
247,1.0,-259.0,-20.0,0
248,4.0,-258.0,-23.0,0
249,2.0,-256.0,-23.0,0
250,0.0,-256.0,-20.0,0
251,2.0,-256.0,-17.0,0
252,-2.0,-256.0,-18.0,0
253,0.0,-256.0,-18.0,0
254,0.0,-256.0,-21.0,0
255,1.0,-255.0,-21.0,0
256,1.0,-259.0,-18.0,0
257,0.0,-255.0,-19.0,0
258,1.0,-257.0,-21.0,0
259,0.0,-255.0,-18.0,0
260,1.0,-254.0,-20.0,0
261,1.0,-257.0,-20.0,0
262,2.0,-258.0,-20.0,0
263,0.0,-257.0,-20.0,0
264,0.0,-256.0,-21.0,0
265,0.0,-254.0,-20.0,0
266,5.0,-254.0,-18.0,0
267,2.0,-258.0,-19.0,0
268,0.0,-253.0,-19.0,0
269,0.0,-254.0,-21.0,0
270,1.0,-254.0,-19.0,0
271,0.0,-253.0,-20.0,0
272,-2.0,-255.0,-19.0,0
273,1.0,-257.0,-18.0,0
274,1.0,-255.0,-20.0,0
275,-1.0,-253.0,-23.0,0
276,0.0,-257.0,-20.0,0
277,0.0,-258.0,-20.0,0
278,2.0,-255.0,-24.0,0
279,0.0,-254.0,-19.0,0
280,1.0,-254.0,-21.0,0
281,1.0,-255.0,-19.0,0
282,2.0,-257.0,-22.0,0
283,1.0,-256.0,-22.0,0
284,1.0,-256.0,-20.0,0
285,2.0,-256.0,-23.0,0
286,1.0,-256.0,-21.0,0
287,1.0,-252.0,-18.0,0
288,1.0,-256.0,-21.0,0
289,3.0,-256.0,-23.0,0
290,1.0,-257.0,-24.0,0
291,1.0,-253.0,-23.0,0
292,2.0,-257.0,-23.0,0
293,1.0,-253.0,-23.0,0
294,-1.0,-255.0,-22.0,0
295,2.0,-258.0,-25.0,0
296,0.0,-255.0,-26.0,0
297,0.0,-256.0,-22.0,0
298,0.0,-257.0,-26.0,0
299,0.0,-259.0,-22.0,0
300,0.0,-258.0,-26.0,0
301,0.0,-259.0,-24.0,0
302,-1.0,-257.0,-24.0,0
303,2.0,-256.0,-24.0,0
304,2.0,-255.0,-24.0,0
305,1.0,-253.0,-24.0,0
306,2.0,-256.0,-24.0,0
307,1.0,-254.0,-23.0,0
308,0.0,-252.0,-25.0,0
309,5.0,-259.0,-29.0,0
310,0.0,-255.0,-28.0,0
311,0.0,-254.0,-25.0,0
312,0.0,-255.0,-25.0,0
313,0.0,-257.0,-23.0,0
314,2.0,-258.0,-25.0,0
315,0.0,-254.0,-23.0,0
316,0.0,-255.0,-24.0,0
317,0.0,-255.0,-26.0,0
318,3.0,-257.0,-25.0,0
319,-1.0,-252.0,-27.0,0
320,0.0,-252.0,-26.0,0
321,0.0,-254.0,-23.0,0
322,0.0,-256.0,-24.0,0
323,0.0,-256.0,-24.0,0
324,0.0,-254.0,-24.0,0
325,4.0,-257.0,-24.0,0
326,0.0,-256.0,-22.0,0
327,1.0,-252.0,-23.0,0
328,1.0,-255.0,-24.0,0
329,1.0,-258.0,-23.0,0
330,1.0,-255.0,-24.0,0
331,5.0,-242.0,-35.0,0
332,1.0,-258.0,-25.0,0
333,1.0,-259.0,-20.0,0
334,1.0,-260.0,-25.0,0
335,0.0,-255.0,-24.0,0
336,-2.0,-255.0,-23.0,0
337,1.0,-255.0,-27.0,0
338,0.0,-258.0,-24.0,0
339,0.0,-258.0,-26.0,0
340,-1.0,-257.0,-25.0,0
341,0.0,-255.0,-30.0,0
342,0.0,-251.0,-23.0,0
343,-2.0,-252.0,-23.0,0
344,2.0,-256.0,-31.0,0
345,0.0,-254.0,-28.0,0
346,2.0,-256.0,-22.0,0
347,1.0,-255.0,-25.0,0
348,-1.0,-255.0,-23.0,0
349,0.0,-259.0,-26.0,0
350,0.0,-254.0,-24.0,0
351,2.0,-259.0,-25.0,0
352,0.0,-256.0,-22.0,0
353,2.0,-256.0,-30.0,0
354,1.0,-255.0,-27.0,0
355,0.0,-256.0,-25.0,0
356,2.0,-253.0,-22.0,0
357,1.0,-253.0,-29.0,0
358,1.0,-255.0,-25.0,0
359,0.0,-252.0,-28.0,0
360,0.0,-256.0,-22.0,0
361,3.0,-258.0,-28.0,0
362,1.0,-255.0,-27.0,0
363,0.0,-253.0,-30.0,0
364,0.0,-255.0,-28.0,0
365,2.0,-259.0,-25.0,0
366,0.0,-253.0,-28.0,0
367,2.0,-257.0,-29.0,0
368,0.0,-255.0,-28.0,0
369,2.0,-255.0,-28.0,0
370,2.0,-257.0,-29.0,0
371,1.0,-259.0,-29.0,0
372,1.0,-257.0,-32.0,0
373,2.0,-256.0,-25.0,0
374,6.0,-258.0,-29.0,0
375,1.0,-254.0,-29.0,0
376,1.0,-256.0,-28.0,0
377,1.0,-256.0,-29.0,0
378,0.0,-255.0,-29.0,0
379,0.0,-257.0,-28.0,0
380,3.0,-256.0,-27.0,0
381,-1.0,-255.0,-26.0,0
382,0.0,-254.0,-31.0,0
383,-1.0,-254.0,-33.0,0
384,1.0,-258.0,-25.0,0
385,0.0,-256.0,-27.0,0
386,0.0,-256.0,-29.0,0
387,0.0,-253.0,-29.0,0
388,2.0,-253.0,-24.0,0
389,2.0,-255.0,-28.0,0
390,0.0,-253.0,-28.0,0
391,2.0,-253.0,-27.0,0
392,2.0,-257.0,-29.0,0
393,3.0,-256.0,-28.0,0
394,0.0,-256.0,-27.0,0
395,1.0,-254.0,-27.0,0
396,2.0,-254.0,-33.0,0
397,1.0,-256.0,-27.0,0
398,1.0,-254.0,-24.0,0
399,2.0,-257.0,-28.0,0
400,1.0,-255.0,-28.0,0
401,3.0,-260.0,-22.0,0
402,1.0,-257.0,-24.0,0
403,1.0,-254.0,-26.0,0
404,-1.0,-251.0,-28.0,0
405,1.0,-257.0,-29.0,0
406,1.0,-256.0,-30.0,0
407,0.0,-256.0,-28.0,0
408,1.0,-258.0,-24.0,0
409,1.0,-254.0,-26.0,0
410,5.0,-258.0,-27.0,0
411,0.0,-253.0,-24.0,0
412,1.0,-254.0,-26.0,0
413,0.0,-254.0,-24.0,0
414,1.0,-254.0,-24.0,0
415,1.0,-256.0,-25.0,0
416,0.0,-256.0,-23.0,0
417,1.0,-253.0,-24.0,0
418,10.0,-260.0,-23.0,0
419,1.0,-257.0,-25.0,0
420,2.0,-256.0,-23.0,0
421,1.0,-257.0,-26.0,0
422,2.0,-256.0,-24.0,0
423,3.0,-256.0,-25.0,0
424,0.0,-256.0,-26.0,0
425,-1.0,-256.0,-23.0,0
426,2.0,-258.0,-25.0,0
427,3.0,-258.0,-23.0,0
428,1.0,-257.0,-26.0,0
429,2.0,-254.0,-27.0,0
430,1.0,-255.0,-23.0,0
431,0.0,-256.0,-27.0,0
432,1.0,-253.0,-22.0,0
433,1.0,-256.0,-21.0,0
434,0.0,-255.0,-26.0,0
435,0.0,-254.0,-23.0,0
436,-1.0,-253.0,-26.0,0
437,-1.0,-255.0,-25.0,0
438,0.0,-254.0,-21.0,0
439,2.0,-257.0,-21.0,0
440,3.0,-252.0,-22.0,0
441,2.0,-256.0,-20.0,0
442,0.0,-256.0,-23.0,0
443,2.0,-257.0,-29.0,0
444,0.0,-258.0,-20.0,0
445,3.0,-263.0,-23.0,0
446,0.0,-254.0,-20.0,0
447,2.0,-256.0,-25.0,0
448,2.0,-256.0,-24.0,0
449,1.0,-257.0,-25.0,0
450,1.0,-258.0,-26.0,0
451,0.0,-259.0,-23.0,0
452,0.0,-255.0,-26.0,0
453,1.0,-256.0,-26.0,0
454,0.0,-254.0,-26.0,0
455,0.0,-252.0,-23.0,0
456,1.0,-254.0,-25.0,0
457,0.0,-258.0,-23.0,0
458,1.0,-256.0,-27.0,0
459,1.0,-255.0,-25.0,0
460,0.0,-258.0,-24.0,0
461,0.0,-256.0,-24.0,0
462,1.0,-255.0,-20.0,0
463,0.0,-255.0,-22.0,0
464,4.0,-257.0,-21.0,0
465,1.0,-257.0,-21.0,0
466,1.0,-258.0,-21.0,0
467,0.0,-252.0,-25.0,0
468,4.0,-257.0,-22.0,0
469,1.0,-253.0,-22.0,0
470,2.0,-255.0,-21.0,0
471,1.0,-257.0,-24.0,0
472,1.0,-255.0,-19.0,0
473,0.0,-258.0,-20.0,0
474,2.0,-254.0,-22.0,0
475,2.0,-258.0,-20.0,0
476,1.0,-257.0,-23.0,0
477,1.0,-257.0,-20.0,0
478,1.0,-258.0,-21.0,0
479,0.0,-256.0,-20.0,0
480,0.0,-258.0,-20.0,0
481,1.0,-256.0,-20.0,0
482,0.0,-257.0,-21.0,0
483,0.0,-257.0,-20.0,0
484,0.0,-259.0,-18.0,0
485,1.0,-257.0,-22.0,0
486,1.0,-257.0,-21.0,0
487,-1.0,-256.0,-20.0,0
488,-1.0,-254.0,-22.0,0
489,0.0,-253.0,-19.0,0
490,0.0,-256.0,-22.0,0
491,0.0,-253.0,-23.0,0
492,0.0,-258.0,-22.0,0
493,0.0,-254.0,-24.0,0
494,1.0,-255.0,-21.0,0
495,1.0,-252.0,-20.0,0
496,0.0,-257.0,-21.0,0
497,-2.0,-255.0,-21.0,0
498,1.0,-258.0,-21.0,0
499,0.0,-256.0,-21.0,0
500,2.0,-259.0,-22.0,0
501,0.0,-257.0,-20.0,0
502,1.0,-257.0,-21.0,0
503,1.0,-256.0,-23.0,0
504,1.0,-258.0,-19.0,0
505,2.0,-255.0,-13.0,0
506,2.0,-256.0,-19.0,0
507,1.0,-260.0,-19.0,0
508,-2.0,-256.0,-20.0,0
509,0.0,-252.0,-20.0,0
510,0.0,-254.0,-18.0,0
511,1.0,-255.0,-21.0,0
512,1.0,-254.0,-19.0,0
513,0.0,-256.0,-23.0,0
514,0.0,-256.0,-19.0,0
515,2.0,-254.0,-20.0,0
516,2.0,-258.0,-19.0,0
517,0.0,-255.0,-20.0,0
518,0.0,-258.0,-17.0,0
519,0.0,-255.0,-19.0,0
520,1.0,-257.0,-20.0,0
521,-2.0,-253.0,-21.0,0
522,-2.0,-258.0,-21.0,0
523,0.0,-259.0,-21.0,0
524,0.0,-258.0,-20.0,0
525,1.0,-254.0,-20.0,0
526,1.0,-258.0,-19.0,0
527,0.0,-260.0,-27.0,0
528,0.0,-256.0,-20.0,0
529,1.0,-257.0,-19.0,0
530,0.0,-257.0,-20.0,0
531,4.0,-258.0,-20.0,0
532,-1.0,-256.0,-20.0,0
533,-1.0,-256.0,-19.0,0
534,1.0,-257.0,-20.0,0
535,1.0,-258.0,-20.0,0
536,1.0,-258.0,-18.0,0
537,1.0,-258.0,-19.0,0
538,1.0,-257.0,-20.0,0
539,0.0,-256.0,-19.0,0
540,0.0,-257.0,-20.0,0
541,1.0,-257.0,-19.0,0
542,0.0,-254.0,-21.0,0
543,0.0,-255.0,-23.0,0
544,0.0,-253.0,-20.0,0
545,0.0,-253.0,-18.0,0
546,-1.0,-255.0,-23.0,0
547,0.0,-258.0,-19.0,0
548,0.0,-256.0,-18.0,0
549,-9.0,-250.0,-15.0,0
550,0.0,-257.0,-20.0,0
551,0.0,-254.0,-19.0,0
552,0.0,-256.0,-19.0,0
553,1.0,-259.0,-19.0,0
554,1.0,-257.0,-22.0,0
555,1.0,-255.0,-21.0,0
556,2.0,-258.0,-17.0,0
557,2.0,-256.0,-19.0,0
558,3.0,-258.0,-20.0,0
559,3.0,-258.0,-17.0,0
560,1.0,-257.0,-17.0,0
561,1.0,-258.0,-19.0,0
562,1.0,-256.0,-19.0,0
563,0.0,-254.0,-18.0,0
564,1.0,-259.0,-22.0,0
565,1.0,-257.0,-19.0,0
566,0.0,-257.0,-18.0,0
567,1.0,-256.0,-20.0,0
568,0.0,-254.0,-19.0,0
569,0.0,-255.0,-18.0,0
570,0.0,-253.0,-16.0,0
571,0.0,-256.0,-19.0,0
572,2.0,-258.0,-21.0,0
573,1.0,-257.0,-19.0,0
574,1.0,-256.0,-20.0,0
575,1.0,-260.0,-20.0,0
576,-1.0,-256.0,-19.0,0
577,2.0,-258.0,-18.0,0
578,0.0,-258.0,-20.0,0
579,1.0,-258.0,-19.0,0
580,-2.0,-256.0,-19.0,0
581,0.0,-257.0,-19.0,0
582,1.0,-258.0,-22.0,0
583,2.0,-258.0,-16.0,0
584,0.0,-256.0,-19.0,0
585,0.0,-256.0,-19.0,0
586,0.0,-256.0,-20.0,0
587,-1.0,-253.0,-17.0,0
588,-1.0,-253.0,-20.0,0
589,-2.0,-255.0,-18.0,0
590,1.0,-256.0,-22.0,0
591,0.0,-260.0,-20.0,0
592,-4.0,-266.0,-12.0,0
593,0.0,-252.0,-21.0,0
594,1.0,-257.0,-19.0,0
595,0.0,-255.0,-17.0,0
596,0.0,-257.0,-21.0,0
597,1.0,-256.0,-20.0,0
598,2.0,-255.0,-20.0,0
599,2.0,-253.0,-17.0,0
600,3.0,-255.0,-21.0,0
601,0.0,-252.0,-20.0,0
602,-1.0,-255.0,-18.0,0
603,1.0,-257.0,-19.0,0
604,1.0,-257.0,-18.0,0
605,1.0,-259.0,-18.0,0
606,-1.0,-255.0,-18.0,0
607,4.0,-258.0,-19.0,0
608,0.0,-256.0,-22.0,0
609,0.0,-254.0,-18.0,0
610,0.0,-259.0,-20.0,0
611,0.0,-257.0,-18.0,0
612,0.0,-255.0,-18.0,0
613,0.0,-255.0,-17.0,0
614,3.0,-253.0,-12.0,0
615,1.0,-256.0,-20.0,0
616,0.0,-255.0,-18.0,0
617,0.0,-257.0,-17.0,0
618,0.0,-255.0,-17.0,0
619,0.0,-258.0,-18.0,0
620,0.0,-256.0,-20.0,0
621,0.0,-258.0,-18.0,0
622,-1.0,-260.0,-18.0,0
623,0.0,-258.0,-20.0,0
624,2.0,-258.0,-21.0,0
625,0.0,-261.0,-17.0,0
626,1.0,-257.0,-18.0,0
627,0.0,-260.0,-16.0,0
628,0.0,-256.0,-20.0,0
629,1.0,-259.0,-19.0,0
630,1.0,-258.0,-18.0,0
631,0.0,-257.0,-18.0,0
632,-1.0,-256.0,-19.0,0
633,0.0,-255.0,-19.0,0
634,0.0,-255.0,-20.0,0
635,0.0,-255.0,-19.0,0
636,2.0,-258.0,-11.0,0
637,0.0,-260.0,-18.0,0
638,0.0,-258.0,-19.0,0
639,0.0,-256.0,-19.0,0
640,-2.0,-254.0,-20.0,0
641,0.0,-256.0,-21.0,0
642,3.0,-256.0,-18.0,0
643,0.0,-258.0,-19.0,0
644,1.0,-255.0,-20.0,0
645,0.0,-255.0,-19.0,0
646,0.0,-254.0,-19.0,0
647,0.0,-253.0,-19.0,0
648,0.0,-255.0,-20.0,0
649,0.0,-256.0,-20.0,0
650,1.0,-258.0,-18.0,0
651,0.0,-257.0,-21.0,0
652,2.0,-257.0,-22.0,0
653,1.0,-254.0,-20.0,0
654,0.0,-255.0,-20.0,0
655,1.0,-258.0,-19.0,0
656,1.0,-255.0,-19.0,0
657,5.0,-264.0,-21.0,0
658,2.0,-258.0,-22.0,0
659,0.0,-254.0,-18.0,0
660,0.0,-257.0,-20.0,0
661,-2.0,-257.0,-15.0,0
662,0.0,-257.0,-17.0,0
663,0.0,-258.0,-16.0,0
664,0.0,-256.0,-13.0,0
665,0.0,-255.0,-18.0,0
666,1.0,-258.0,-19.0,0
667,0.0,-256.0,-17.0,0
668,0.0,-257.0,-15.0,0
669,0.0,-257.0,-16.0,0
670,1.0,-256.0,-16.0,0
671,0.0,-254.0,-19.0,0
672,1.0,-257.0,-15.0,0
673,0.0,-253.0,-19.0,0
674,0.0,-255.0,-14.0,0
675,0.0,-255.0,-18.0,0
676,-2.0,-256.0,-18.0,0
677,1.0,-259.0,-18.0,0
678,1.0,-257.0,-18.0,0
679,8.0,-251.0,-18.0,0
680,0.0,-257.0,-17.0,0
681,0.0,-257.0,-18.0,0
682,0.0,-258.0,-17.0,0
683,0.0,-256.0,-18.0,0
684,0.0,-258.0,-16.0,0
685,0.0,-257.0,-17.0,0
686,0.0,-256.0,-19.0,0
687,1.0,-256.0,-19.0,0
688,1.0,-259.0,-17.0,0
689,3.0,-258.0,-19.0,0
690,1.0,-255.0,-17.0,0
691,1.0,-256.0,-18.0,0
692,2.0,-259.0,-19.0,0
693,0.0,-256.0,-16.0,0
694,0.0,-255.0,-16.0,0
695,2.0,-258.0,-18.0,0
696,0.0,-255.0,-17.0,0
697,-2.0,-254.0,-19.0,0
698,0.0,-258.0,-19.0,0
699,1.0,-257.0,-17.0,0
700,0.0,-255.0,-20.0,0
701,1.0,-258.0,-29.0,0
702,1.0,-255.0,-16.0,0
703,1.0,-256.0,-19.0,0
704,0.0,-254.0,-17.0,0
705,0.0,-256.0,-20.0,0
706,0.0,-254.0,-19.0,0
707,0.0,-255.0,-16.0,0
708,0.0,-258.0,-22.0,0
709,0.0,-256.0,-20.0,0
710,-2.0,-255.0,-17.0,0
711,0.0,-253.0,-20.0,0
712,-2.0,-257.0,-18.0,0
713,1.0,-255.0,-18.0,0
714,0.0,-256.0,-19.0,0
715,2.0,-258.0,-19.0,0
716,1.0,-254.0,-20.0,0
717,0.0,-258.0,-18.0,0
718,0.0,-253.0,-17.0,0
719,1.0,-256.0,-19.0,0
720,0.0,-256.0,-19.0,0
721,-2.0,-256.0,-19.0,0
722,-1.0,-256.0,-18.0,0
723,-2.0,-255.0,-25.0,0
724,0.0,-254.0,-16.0,0
725,0.0,-257.0,-20.0,0
726,0.0,-256.0,-19.0,0
727,3.0,-257.0,-21.0,0
728,-2.0,-255.0,-20.0,0
729,0.0,-257.0,-19.0,0
730,1.0,-256.0,-18.0,0
731,-2.0,-255.0,-19.0,0
732,0.0,-258.0,-21.0,0
733,0.0,-256.0,-18.0,0
734,0.0,-258.0,-19.0,0
735,0.0,-256.0,-19.0,0
736,0.0,-257.0,-19.0,0
737,0.0,-252.0,-19.0,0
738,0.0,-255.0,-18.0,0
739,0.0,-259.0,-17.0,0
740,1.0,-258.0,-20.0,0
741,0.0,-255.0,-19.0,0
742,0.0,-254.0,-18.0,0
743,1.0,-258.0,-20.0,0
744,0.0,-258.0,-19.0,0
745,-3.0,-251.0,-19.0,0
746,0.0,-253.0,-19.0,0
747,1.0,-255.0,-20.0,0
748,1.0,-255.0,-20.0,0
749,0.0,-258.0,-21.0,0
750,0.0,-253.0,-19.0,0
751,1.0,-255.0,-21.0,0
752,1.0,-256.0,-19.0,0
753,2.0,-257.0,-18.0,0
754,-1.0,-258.0,-20.0,0
755,1.0,-253.0,-21.0,0
756,0.0,-254.0,-29.0,0
757,2.0,-257.0,-12.0,0
758,0.0,-255.0,-18.0,0
759,2.0,-255.0,-20.0,0
760,1.0,-255.0,-20.0,0
761,1.0,-257.0,-20.0,0
762,0.0,-257.0,-22.0,0
763,1.0,-252.0,-19.0,0
764,0.0,-253.0,-19.0,0
765,0.0,-254.0,-20.0,0
766,0.0,-254.0,-31.0,0
767,0.0,-254.0,-23.0,0
768,0.0,-254.0,-21.0,0
769,-3.0,-257.0,-20.0,0
770,1.0,-258.0,-22.0,0
771,0.0,-255.0,-21.0,0
772,5.0,-257.0,-21.0,0
773,-2.0,-256.0,-22.0,0
774,0.0,-256.0,-19.0,0
775,0.0,-257.0,-24.0,0
776,0.0,-257.0,-20.0,0
777,0.0,-258.0,-25.0,0
778,2.0,-256.0,-18.0,0
779,1.0,-256.0,-23.0,0
780,1.0,-260.0,-21.0,0
781,0.0,-255.0,-20.0,0
782,2.0,-258.0,-21.0,0
783,0.0,-255.0,-23.0,0
784,2.0,-255.0,-22.0,0
785,0.0,-260.0,-20.0,0
786,3.0,-261.0,-21.0,0
787,0.0,-255.0,-21.0,0
788,-1.0,-256.0,-23.0,0
789,0.0,-254.0,-21.0,0
790,0.0,-258.0,-20.0,0
791,0.0,-254.0,-24.0,0
792,0.0,-255.0,-25.0,0
793,0.0,-255.0,-25.0,0
794,0.0,-255.0,-20.0,0
795,2.0,-256.0,-22.0,0
796,1.0,-253.0,-21.0,0
797,0.0,-254.0,-21.0,0
798,0.0,-256.0,-21.0,0
799,2.0,-256.0,-22.0,0
800,1.0,-254.0,-23.0,0
801,0.0,-254.0,-22.0,0
802,1.0,-254.0,-23.0,0
803,0.0,-257.0,-22.0,0
804,2.0,-253.0,-22.0,0
805,2.0,-258.0,-20.0,0
806,1.0,-256.0,-22.0,0
807,1.0,-260.0,-21.0,0
808,1.0,-257.0,-20.0,0
809,1.0,-261.0,-23.0,0
810,0.0,-252.0,-27.0,0
811,-3.0,-255.0,-25.0,0
812,-1.0,-258.0,-22.0,0
813,-1.0,-252.0,-25.0,0
814,0.0,-254.0,-24.0,0
815,0.0,-256.0,-24.0,0
816,-1.0,-255.0,-22.0,0
817,1.0,-255.0,-27.0,0
818,0.0,-252.0,-26.0,0
819,0.0,-256.0,-19.0,0
820,0.0,-252.0,-23.0,0
821,1.0,-255.0,-19.0,0
822,0.0,-255.0,-21.0,0
823,0.0,-254.0,-19.0,0
824,0.0,-257.0,-20.0,0
825,0.0,-257.0,-22.0,0
826,2.0,-255.0,-20.0,0
827,2.0,-254.0,-29.0,0
828,0.0,-257.0,-27.0,0
829,0.0,-258.0,-25.0,0
830,0.0,-253.0,-22.0,0
831,1.0,-256.0,-23.0,0
832,3.0,-265.0,-19.0,0
833,2.0,-254.0,-24.0,0
834,1.0,-257.0,-26.0,0
835,2.0,-252.0,-22.0,0
836,1.0,-256.0,-24.0,0
837,-1.0,-256.0,-25.0,0
838,0.0,-255.0,-24.0,0
839,1.0,-253.0,-23.0,0
840,0.0,-255.0,-23.0,0
841,1.0,-258.0,-23.0,0
842,0.0,-257.0,-27.0,0
843,0.0,-259.0,-28.0,0
844,-1.0,-256.0,-26.0,0
845,0.0,-257.0,-29.0,0
846,0.0,-256.0,-26.0,0
847,-1.0,-256.0,-28.0,0
848,3.0,-257.0,-26.0,0
849,0.0,-256.0,-31.0,0
850,1.0,-256.0,-28.0,0
851,0.0,-256.0,-30.0,0
852,0.0,-254.0,-29.0,0
853,-1.0,-253.0,-24.0,0
854,3.0,-254.0,-22.0,0
855,0.0,-256.0,-29.0,0
856,0.0,-254.0,-26.0,0
857,-1.0,-253.0,-25.0,0
858,-4.0,-253.0,-28.0,0
859,1.0,-253.0,-24.0,0
860,-1.0,-255.0,-26.0,0
861,0.0,-255.0,-26.0,0
862,0.0,-257.0,-27.0,0
863,1.0,-254.0,-27.0,0
864,0.0,-255.0,-26.0,0
865,0.0,-255.0,-28.0,0
866,-2.0,-251.0,-29.0,0
867,0.0,-254.0,-27.0,0
868,4.0,-255.0,-25.0,0
869,1.0,-254.0,-30.0,0
870,-2.0,-253.0,-27.0,0
871,0.0,-256.0,-25.0,0
872,0.0,-255.0,-27.0,0
873,0.0,-256.0,-23.0,0
874,-2.0,-256.0,-28.0,0
875,9.0,-249.0,-22.0,0
876,1.0,-256.0,-25.0,0
877,0.0,-256.0,-26.0,0
878,0.0,-253.0,-28.0,0
879,0.0,-255.0,-23.0,0
880,0.0,-255.0,-25.0,0
881,1.0,-257.0,-27.0,0
882,1.0,-253.0,-32.0,0
883,-1.0,-253.0,-30.0,0
884,0.0,-255.0,-30.0,0
885,1.0,-254.0,-24.0,0
886,0.0,-254.0,-30.0,0
887,-1.0,-257.0,-27.0,0
888,0.0,-256.0,-26.0,0
889,1.0,-256.0,-27.0,0
890,0.0,-255.0,-30.0,0
891,1.0,-259.0,-32.0,0
892,1.0,-257.0,-30.0,0
893,0.0,-256.0,-28.0,0
894,-2.0,-257.0,-28.0,0
895,0.0,-255.0,-27.0,0
896,0.0,-255.0,-31.0,0
897,-1.0,-252.0,-47.0,0
898,2.0,-257.0,-33.0,0
899,0.0,-257.0,-29.0,0
900,0.0,-257.0,-30.0,0
901,-1.0,-257.0,-30.0,0
902,0.0,-253.0,-34.0,0
903,1.0,-255.0,-29.0,0
904,-1.0,-256.0,-32.0,0
905,0.0,-257.0,-31.0,0
906,0.0,-253.0,-29.0,0
907,1.0,-257.0,-27.0,0
908,-2.0,-254.0,-27.0,0
909,0.0,-255.0,-32.0,0
910,0.0,-255.0,-28.0,0
911,0.0,-254.0,-29.0,0
912,-2.0,-253.0,-32.0,0
913,2.0,-255.0,-32.0,0
914,1.0,-256.0,-30.0,0
915,0.0,-254.0,-31.0,0
916,-1.0,-255.0,-32.0,0
917,0.0,-256.0,-30.0,0
918,1.0,-256.0,-31.0,0
919,-6.0,-261.0,-25.0,0
920,-2.0,-252.0,-31.0,0
921,0.0,-255.0,-28.0,0
922,0.0,-255.0,-29.0,0
923,1.0,-255.0,-29.0,0
924,0.0,-256.0,-27.0,0
925,0.0,-253.0,-27.0,0
926,0.0,-253.0,-30.0,0
927,0.0,-253.0,-32.0,0
928,1.0,-254.0,-31.0,0
929,0.0,-256.0,-32.0,0
930,0.0,-253.0,-29.0,0
931,0.0,-251.0,-28.0,0
932,-2.0,-255.0,-33.0,0
933,0.0,-259.0,-26.0,0
934,0.0,-255.0,-28.0,0
935,0.0,-253.0,-29.0,0
936,-3.0,-254.0,-28.0,0
937,-1.0,-255.0,-25.0,0
938,0.0,-258.0,-27.0,0
939,0.0,-256.0,-28.0,0
940,0.0,-257.0,-32.0,0
941,-6.0,-261.0,-35.0,0
942,0.0,-256.0,-27.0,0
943,1.0,-254.0,-30.0,0
944,0.0,-253.0,-31.0,0
945,2.0,-256.0,-29.0,0
946,0.0,-255.0,-29.0,0
947,1.0,-256.0,-30.0,0
948,0.0,-254.0,-25.0,0
949,0.0,-254.0,-27.0,0
950,1.0,-255.0,-30.0,0
951,1.0,-255.0,-26.0,0
952,1.0,-257.0,-26.0,0
953,0.0,-253.0,-32.0,0
954,0.0,-256.0,-30.0,0
955,-1.0,-254.0,-28.0,0
956,-1.0,-254.0,-28.0,0
957,-2.0,-255.0,-23.0,0
958,-1.0,-255.0,-26.0,0
959,2.0,-255.0,-28.0,0
960,0.0,-255.0,-28.0,0
961,0.0,-254.0,-31.0,0
962,-5.0,-257.0,-41.0,0
963,0.0,-254.0,-27.0,0
964,-1.0,-253.0,-31.0,0
965,0.0,-253.0,-30.0,0
966,-5.0,-250.0,-31.0,0
967,0.0,-252.0,-30.0,0
968,0.0,-256.0,-31.0,0
969,0.0,-255.0,-33.0,0
970,0.0,-257.0,-29.0,0
971,-1.0,-255.0,-31.0,0
972,0.0,-258.0,-27.0,0
973,-4.0,-255.0,-24.0,0
974,-2.0,-258.0,-23.0,0
975,0.0,-256.0,-27.0,0
976,-1.0,-253.0,-25.0,0
977,-4.0,-256.0,-28.0,0
978,-3.0,-255.0,-26.0,0
979,-1.0,-255.0,-29.0,0
980,-1.0,-253.0,-28.0,0
981,-4.0,-254.0,-30.0,0
982,-1.0,-254.0,-27.0,0
983,-3.0,-256.0,-29.0,0
984,-7.0,-260.0,-26.0,0
985,-2.0,-255.0,-32.0,0
986,-2.0,-253.0,-27.0,0
987,-5.0,-252.0,-30.0,0
988,-1.0,-253.0,-30.0,0
989,-1.0,-253.0,-26.0,0
990,-4.0,-256.0,-31.0,0
991,-1.0,-255.0,-31.0,0
992,-5.0,-251.0,-30.0,0
993,-4.0,-254.0,-31.0,0
994,-2.0,-257.0,-32.0,0
995,-1.0,-253.0,-32.0,0
996,-2.0,-254.0,-34.0,0
997,-1.0,-253.0,-31.0,0
998,-2.0,-253.0,-30.0,0
999,-5.0,-257.0,-31.0,0
1000,-6.0,-254.0,-31.0,0
1001,-7.0,-256.0,-30.0,0
1002,-1.0,-257.0,-36.0,0
1003,-7.0,-254.0,-30.0,0
1004,-6.0,-253.0,-30.0,0
1005,-6.0,-255.0,-33.0,0
1006,-7.0,-257.0,-23.0,0
1007,-5.0,-256.0,-33.0,0
1008,-3.0,-253.0,-35.0,0
1009,-7.0,-257.0,-32.0,0
1010,-2.0,-257.0,-35.0,0
1011,-7.0,-259.0,-34.0,0
1012,-10.0,-255.0,-35.0,0
1013,-10.0,-256.0,-36.0,0
1014,-6.0,-255.0,-34.0,0
1015,-9.0,-253.0,-37.0,0
1016,-10.0,-254.0,-34.0,0
1017,-11.0,-253.0,-33.0,0
1018,-11.0,-255.0,-33.0,0
1019,-9.0,-253.0,-37.0,0
1020,-9.0,-254.0,-32.0,0
1021,-13.0,-252.0,-34.0,0
1022,-12.0,-252.0,-37.0,0
1023,-16.0,-257.0,-35.0,0
1024,-12.0,-254.0,-38.0,0
1025,-14.0,-256.0,-37.0,0
1026,-13.0,-253.0,-39.0,0
1027,-13.0,-254.0,-37.0,0
1028,-16.0,-252.0,-44.0,0
1029,-15.0,-252.0,-38.0,0
1030,-14.0,-254.0,-36.0,0
1031,-15.0,-252.0,-38.0,0
1032,-14.0,-253.0,-37.0,0
1033,-12.0,-254.0,-38.0,0
1034,-17.0,-252.0,-43.0,0
1035,-17.0,-250.0,-39.0,0
1036,-12.0,-255.0,-36.0,0
1037,-14.0,-255.0,-37.0,0
1038,-18.0,-253.0,-35.0,0
1039,-16.0,-253.0,-38.0,0
1040,-17.0,-253.0,-36.0,0
1041,-17.0,-256.0,-38.0,0
1042,-17.0,-253.0,-38.0,0
1043,-18.0,-254.0,-37.0,0
1044,-17.0,-252.0,-42.0,0
1045,-17.0,-252.0,-46.0,0
1046,-20.0,-250.0,-42.0,0
1047,-17.0,-250.0,-40.0,0
1048,-17.0,-252.0,-44.0,0
1049,-22.0,-252.0,-43.0,0
1050,-18.0,-260.0,-38.0,0
1051,-23.0,-252.0,-43.0,0
1052,-22.0,-252.0,-41.0,0
1053,-24.0,-256.0,-42.0,0
1054,-20.0,-256.0,-41.0,0
1055,-23.0,-255.0,-40.0,0
1056,-23.0,-255.0,-45.0,0
1057,-25.0,-253.0,-42.0,0
1058,-25.0,-251.0,-45.0,0
1059,-24.0,-252.0,-46.0,0
1060,-25.0,-253.0,-47.0,0
1061,-28.0,-249.0,-44.0,0
1062,-27.0,-250.0,-44.0,0
1063,-26.0,-252.0,-45.0,0
1064,-27.0,-254.0,-47.0,0
1065,-25.0,-251.0,-48.0,0
1066,-26.0,-252.0,-47.0,0
1067,-27.0,-254.0,-43.0,0
1068,-28.0,-254.0,-46.0,0
1069,-31.0,-254.0,-43.0,0
1070,-33.0,-251.0,-46.0,0
1071,-37.0,-254.0,-42.0,0
1072,-32.0,-248.0,-46.0,0
1073,-30.0,-248.0,-48.0,0
1074,-33.0,-249.0,-45.0,0
1075,-30.0,-248.0,-44.0,0
1076,-33.0,-250.0,-41.0,0
1077,-30.0,-249.0,-43.0,0
1078,-31.0,-252.0,-49.0,0
1079,-35.0,-251.0,-45.0,0
1080,-34.0,-250.0,-47.0,0
1081,-35.0,-248.0,-45.0,0
1082,-35.0,-249.0,-51.0,0
1083,-38.0,-248.0,-47.0,0
1084,-33.0,-247.0,-46.0,0
1085,-27.0,-249.0,-51.0,0
1086,-30.0,-249.0,-47.0,0
1087,-30.0,-249.0,-49.0,0
1088,-34.0,-250.0,-52.0,0
1089,-38.0,-251.0,-53.0,0
1090,-35.0,-251.0,-54.0,0
1091,-36.0,-250.0,-57.0,0
1092,-33.0,-250.0,-54.0,0
1093,-32.0,-250.0,-55.0,0
1094,-36.0,-250.0,-55.0,0
1095,-39.0,-250.0,-53.0,0
1096,-39.0,-249.0,-55.0,0
1097,-36.0,-248.0,-59.0,0
1098,-35.0,-246.0,-58.0,0
1099,-38.0,-247.0,-56.0,0
1100,-35.0,-249.0,-61.0,0
1101,-38.0,-249.0,-57.0,0
1102,-44.0,-248.0,-59.0,0
1103,-45.0,-246.0,-61.0,0
1104,-41.0,-246.0,-61.0,0
1105,-42.0,-244.0,-60.0,0
1106,-41.0,-246.0,-57.0,0
1107,-46.0,-246.0,-60.0,0
1108,-39.0,-243.0,-66.0,0
1109,-42.0,-245.0,-63.0,0
1110,-45.0,-244.0,-61.0,0
1111,-41.0,-247.0,-58.0,0
1112,-45.0,-246.0,-60.0,0
1113,-45.0,-247.0,-65.0,0
1114,-42.0,-244.0,-67.0,0
1115,-39.0,-244.0,-64.0,0
1116,-41.0,-242.0,-66.0,0
1117,-42.0,-243.0,-72.0,0
1118,-42.0,-244.0,-67.0,0
1119,-42.0,-247.0,-72.0,0
1120,-40.0,-242.0,-75.0,0
1121,-43.0,-245.0,-73.0,0
1122,-39.0,-248.0,-69.0,0
1123,-45.0,-247.0,-69.0,0
1124,-42.0,-246.0,-73.0,0
1125,-47.0,-245.0,-74.0,0
1126,-45.0,-245.0,-73.0,0
1127,-49.0,-246.0,-75.0,0
1128,-49.0,-243.0,-74.0,0
1129,-49.0,-241.0,-80.0,0
1130,-49.0,-242.0,-78.0,0
1131,-53.0,-239.0,-80.0,0
1132,-48.0,-239.0,-78.0,0
1133,-47.0,-238.0,-81.0,0
1134,-49.0,-235.0,-79.0,0
1135,-50.0,-237.0,-81.0,0
1136,-50.0,-232.0,-82.0,0
1137,-43.0,-231.0,-85.0,0
1138,-50.0,-233.0,-84.0,0
1139,-51.0,-235.0,-86.0,0
1140,-50.0,-234.0,-90.0,0
1141,-51.0,-233.0,-88.0,0
1142,-53.0,-234.0,-93.0,0
1143,-50.0,-237.0,-88.0,0
1144,-49.0,-237.0,-91.0,0
1145,-50.0,-239.0,-92.0,0
1146,-55.0,-239.0,-90.0,0
1147,-49.0,-238.0,-92.0,0
1148,-54.0,-236.0,-95.0,0
1149,-53.0,-235.0,-96.0,0
1150,-51.0,-229.0,-96.0,0
1151,-48.0,-231.0,-96.0,0
1152,-50.0,-228.0,-97.0,0
1153,-51.0,-227.0,-100.0,0
1154,-52.0,-223.0,-100.0,0
1155,-52.0,-227.0,-103.0,0
1156,-54.0,-227.0,-101.0,0
1157,-49.0,-231.0,-100.0,0
1158,-54.0,-230.0,-107.0,0
1159,-59.0,-231.0,-106.0,0
1160,-54.0,-233.0,-108.0,0
1161,-55.0,-235.0,-108.0,0
1162,-56.0,-233.0,-107.0,0
1163,-53.0,-231.0,-106.0,0
1164,-54.0,-225.0,-109.0,0
1165,-53.0,-225.0,-111.0,0
1166,-54.0,-224.0,-108.0,0
1167,-52.0,-224.0,-107.0,0
1168,-54.0,-222.0,-112.0,0
1169,-53.0,-225.0,-109.0,0
1170,-55.0,-225.0,-117.0,0
1171,-52.0,-228.0,-117.0,0
1172,-53.0,-224.0,-115.0,0
1173,-54.0,-221.0,-118.0,0
1174,-52.0,-221.0,-115.0,0
1175,-53.0,-220.0,-114.0,0
1176,-55.0,-223.0,-117.0,0
1177,-53.0,-224.0,-115.0,0
1178,-54.0,-221.0,-119.0,0
1179,-56.0,-220.0,-120.0,0
1180,-52.0,-224.0,-128.0,0
1181,-50.0,-221.0,-125.0,0
1182,-54.0,-219.0,-123.0,0
1183,-53.0,-216.0,-124.0,0
1184,-53.0,-216.0,-122.0,0
1185,-51.0,-216.0,-119.0,0
1186,-57.0,-215.0,-129.0,0
1187,-58.0,-214.0,-131.0,0
1188,-59.0,-215.0,-127.0,0
1189,-58.0,-211.0,-133.0,0
1190,-59.0,-213.0,-135.0,0
1191,-59.0,-212.0,-134.0,0
1192,-58.0,-213.0,-134.0,0
1193,-59.0,-211.0,-139.0,0
1194,-56.0,-209.0,-139.0,0
1195,-56.0,-211.0,-137.0,0
1196,-58.0,-209.0,-141.0,0
1197,-57.0,-206.0,-145.0,0
1198,-60.0,-203.0,-143.0,0
1199,-57.0,-203.0,-144.0,0
1200,-57.0,-208.0,-147.0,0
1201,-53.0,-206.0,-149.0,0
1202,-54.0,-210.0,-144.0,0
1203,-55.0,-202.0,-150.0,0
1204,-51.0,-201.0,-151.0,0
1205,-61.0,-198.0,-151.0,0
1206,-56.0,-199.0,-155.0,0
1207,-53.0,-194.0,-155.0,0
1208,-55.0,-197.0,-152.0,0
1209,-57.0,-194.0,-154.0,0
1210,-60.0,-194.0,-158.0,0
1211,-64.0,-194.0,-158.0,0
1212,-66.0,-200.0,-159.0,0
1213,-62.0,-197.0,-161.0,0
1214,-69.0,-193.0,-159.0,0
1215,-68.0,-193.0,-167.0,0
1216,-65.0,-193.0,-166.0,0
1217,-69.0,-187.0,-166.0,0
1218,-65.0,-189.0,-161.0,0
1219,-68.0,-189.0,-168.0,0
1220,-67.0,-185.0,-166.0,0
1221,-64.0,-188.0,-166.0,0
1222,-65.0,-183.0,-167.0,0
1223,-63.0,-178.0,-169.0,0
1224,-62.0,-168.0,-174.0,0
1225,-62.0,-177.0,-167.0,0
1226,-63.0,-177.0,-170.0,0
1227,-63.0,-174.0,-171.0,0
1228,-61.0,-171.0,-169.0,0
1229,-64.0,-165.0,-175.0,0
1230,-61.0,-168.0,-175.0,0
1231,-61.0,-167.0,-173.0,0
1232,-62.0,-161.0,-179.0,0
1233,-64.0,-160.0,-178.0,0
1234,-61.0,-159.0,-186.0,0
1235,-56.0,-151.0,-185.0,0
1236,-64.0,-153.0,-178.0,0
1237,-65.0,-167.0,-183.0,0
1238,-63.0,-168.0,-184.0,0
1239,-65.0,-158.0,-188.0,0
1240,-67.0,-157.0,-187.0,0
1241,-64.0,-158.0,-186.0,0
1242,-65.0,-152.0,-189.0,0
1243,-63.0,-145.0,-183.0,0
1244,-69.0,-151.0,-190.0,0
1245,-69.0,-146.0,-189.0,0
1246,-64.0,-141.0,-192.0,0
1247,-69.0,-137.0,-196.0,0
1248,-68.0,-133.0,-199.0,0
1249,-72.0,-137.0,-200.0,0
1250,-74.0,-136.0,-200.0,0
1251,-71.0,-137.0,-200.0,0
1252,-79.0,-138.0,-202.0,0
1253,-74.0,-128.0,-200.0,0
1254,-71.0,-136.0,-199.0,0
1255,-72.0,-131.0,-206.0,0
1256,-68.0,-130.0,-201.0,0
1257,-70.0,-132.0,-205.0,0
1258,-67.0,-127.0,-207.0,0
1259,-68.0,-122.0,-211.0,0
1260,-68.0,-120.0,-208.0,0
1261,-68.0,-121.0,-208.0,0
1262,-70.0,-120.0,-211.0,0
1263,-76.0,-119.0,-212.0,0
1264,-79.0,-119.0,-213.0,0
1265,-77.0,-109.0,-215.0,0
1266,-78.0,-110.0,-216.0,0
1267,-78.0,-103.0,-212.0,0
1268,-76.0,-100.0,-216.0,0
1269,-74.0,-97.0,-219.0,0
1270,-74.0,-98.0,-215.0,0
1271,-68.0,-98.0,-215.0,0
1272,-69.0,-87.0,-212.0,0
1273,-68.0,-92.0,-213.0,0
1274,-63.0,-95.0,-212.0,0
1275,-70.0,-84.0,-212.0,0
1276,-68.0,-80.0,-217.0,0
1277,-68.0,-75.0,-221.0,0
1278,-70.0,-72.0,-225.0,0
1279,-71.0,-69.0,-232.0,0
1280,-73.0,-69.0,-228.0,0
1281,-73.0,-77.0,-232.0,0
1282,-75.0,-76.0,-235.0,0
1283,-71.0,-76.0,-230.0,0
1284,-73.0,-74.0,-224.0,0
1285,-69.0,-75.0,-219.0,0
1286,-65.0,-59.0,-210.0,0
1287,-70.0,-69.0,-208.0,0
1288,-64.0,-67.0,-198.0,0
1289,-68.0,-61.0,-199.0,0
1290,-77.0,-63.0,-197.0,0
1291,-71.0,-56.0,-195.0,0
1292,-68.0,-59.0,-198.0,0
1293,-73.0,-55.0,-196.0,0
1294,-70.0,-56.0,-191.0,0
1295,-64.0,-51.0,-196.0,0
1296,-62.0,-47.0,-197.0,0
1297,-64.0,-47.0,-185.0,0
1298,-55.0,-51.0,-188.0,0
1299,-58.0,-53.0,-186.0,0
1300,-69.0,-52.0,-183.0,0
1301,-69.0,-55.0,-186.0,0
1302,-80.0,-43.0,-171.0,0
1303,-90.0,-33.0,-166.0,0
1304,-112.0,-33.0,-151.0,0
1305,-97.0,-46.0,-160.0,0
1306,-87.0,-61.0,-168.0,0
1307,-66.0,-77.0,-166.0,0
1308,-52.0,-75.0,-168.0,0
1309,-41.0,-80.0,-171.0,0
1310,-38.0,-85.0,-169.0,0
1311,-34.0,-76.0,-171.0,0
1312,-36.0,-73.0,-172.0,0
1313,-35.0,-67.0,-169.0,0
1314,-33.0,-53.0,-176.0,0
1315,-26.0,-49.0,-178.0,0
1316,-26.0,-48.0,-184.0,0
1317,-28.0,-46.0,-181.0,0
1318,-31.0,-44.0,-179.0,0
1319,-35.0,-39.0,-179.0,0
1320,-44.0,-30.0,-180.0,0
1321,-57.0,-21.0,-175.0,0
1322,-67.0,-10.0,-164.0,0
1323,-78.0,-5.0,-161.0,0
1324,-77.0,-10.0,-156.0,0
1325,-77.0,-9.0,-169.0,0
1326,-73.0,-16.0,-179.0,0
1327,-71.0,-16.0,-193.0,0
1328,-66.0,3.0,-197.0,0
1329,-52.0,18.0,-202.0,0
1330,-38.0,41.0,-214.0,0
1331,-24.0,49.0,-217.0,0
1332,-26.0,41.0,-232.0,0
1333,-25.0,44.0,-239.0,0
1334,-35.0,50.0,-239.0,0
1335,-42.0,41.0,-230.0,0
1336,-55.0,40.0,-233.0,0
1337,-62.0,38.0,-221.0,0
1338,-62.0,36.0,-219.0,0
1339,-61.0,23.0,-215.0,0
1340,-71.0,9.0,-213.0,0
1341,-84.0,-7.0,-214.0,0
1342,-101.0,-20.0,-214.0,0
1343,-110.0,-32.0,-207.0,0
1344,-122.0,-34.0,-209.0,0
1345,-111.0,-44.0,-215.0,0
1346,-117.0,-40.0,-215.0,0
1347,-119.0,-34.0,-222.0,0
1348,-114.0,-31.0,-218.0,0
1349,-112.0,-32.0,-218.0,0
1350,-106.0,-20.0,-211.0,0
1351,-97.0,-9.0,-208.0,0
1352,-99.0,-11.0,-195.0,0
1353,-82.0,-1.0,-180.0,0
1354,-73.0,-9.0,-159.0,0
1355,-62.0,7.0,-157.0,0
1356,-54.0,-2.0,-148.0,0
1357,-36.0,6.0,-145.0,0
1358,-12.0,24.0,-135.0,0
1359,-14.0,40.0,-123.0,0
1360,-14.0,45.0,-128.0,0
1361,-17.0,43.0,-126.0,0
1362,-22.0,48.0,-124.0,0
1363,-31.0,64.0,-117.0,0
1364,-35.0,59.0,-110.0,0
1365,-36.0,58.0,-106.0,0
1366,-34.0,55.0,-114.0,0
1367,-38.0,33.0,-111.0,0
1368,-40.0,10.0,-107.0,0
1369,-56.0,-4.0,-95.0,0
1370,-49.0,-19.0,-97.0,0
1371,-44.0,6.0,-86.0,0
1372,-58.0,53.0,-101.0,0
1373,-59.0,58.0,-95.0,0
1374,-58.0,70.0,-80.0,0
1375,-71.0,86.0,-73.0,2
1376,-77.0,97.0,-64.0,2
1377,-99.0,59.0,-38.0,2
1378,-91.0,81.0,-82.0,2
1379,-122.0,109.0,-109.0,2
1380,-143.0,91.0,-121.0,2
1381,-139.0,73.0,-132.0,2
1382,-153.0,69.0,-147.0,2
1383,-180.0,69.0,-141.0,2
1384,-232.0,69.0,-97.0,2
1385,-283.0,70.0,-74.0,2
1386,-285.0,106.0,-79.0,2
1387,-279.0,114.0,-85.0,2
1388,-269.0,118.0,-66.0,2
1389,-313.0,118.0,-28.0,2
1390,-389.0,118.0,-12.0,2
1391,-607.0,124.0,44.0,2
1392,-788.0,146.0,18.0,2
1393,-906.0,189.0,-1.0,2
1394,-951.0,245.0,5.0,2
1395,-1033.0,287.0,44.0,2
1396,-1264.0,328.0,115.0,2
1397,-1425.0,372.0,116.0,2
1398,-1543.0,462.0,108.0,2
1399,-1600.0,562.0,103.0,2
1400,-1530.0,628.0,108.0,2
1401,-1339.0,595.0,123.0,2
1402,-1119.0,548.0,86.0,2
1403,-856.0,416.0,60.0,2
1404,-767.0,299.0,151.0,2
1405,-645.0,191.0,163.0,2
1406,-502.0,136.0,237.0,2
1407,-298.0,66.0,340.0,2
1408,-27.0,2.0,457.0,2
1409,59.0,-54.0,517.0,2
1410,87.0,-89.0,447.0,2
1411,115.0,-85.0,340.0,2
1412,153.0,-81.0,250.0,2
1413,140.0,-87.0,168.0,2
1414,92.0,-77.0,111.0,2
1415,35.0,-59.0,68.0,2
1416,-4.0,-45.0,53.0,2
1417,-47.0,-41.0,56.0,2
1418,-72.0,-35.0,63.0,2
1419,-91.0,-18.0,58.0,2
1420,-91.0,-8.0,64.0,2
1421,-98.0,-14.0,67.0,2
1422,-95.0,-23.0,54.0,2
1423,-88.0,-34.0,50.0,2
1424,-89.0,-32.0,56.0,2
1425,-92.0,-41.0,63.0,2
1426,-95.0,-36.0,69.0,2
1427,-109.0,-33.0,78.0,1
1428,-134.0,-33.0,95.0,1
1429,-153.0,-33.0,111.0,1
1430,-176.0,-27.0,128.0,1
1431,-193.0,-24.0,134.0,1
1432,-162.0,-24.0,118.0,1
1433,-117.0,-20.0,115.0,1
1434,-110.0,-16.0,120.0,1
1435,-110.0,-12.0,123.0,1
1436,-119.0,-5.0,127.0,1
1437,-126.0,0.0,130.0,1
1438,-141.0,-4.0,125.0,1
1439,-151.0,-9.0,128.0,1
1440,-167.0,-16.0,127.0,1
1441,-188.0,-24.0,123.0,1
1442,-205.0,-33.0,119.0,1
1443,-222.0,-39.0,125.0,1
1444,-241.0,-46.0,123.0,1
1445,-242.0,-46.0,117.0,1
1446,-242.0,-50.0,117.0,1
1447,-236.0,-52.0,126.0,1
1448,-243.0,-49.0,133.0,1
1449,-253.0,-45.0,144.0,1
1450,-266.0,-36.0,163.0,1
1451,-274.0,-35.0,172.0,1
1452,-287.0,-27.0,182.0,1
1453,-301.0,-16.0,190.0,1
1454,-304.0,-8.0,192.0,1
1455,-309.0,-5.0,185.0,1
1456,-314.0,-5.0,176.0,1
1457,-308.0,-10.0,161.0,1
1458,-294.0,-24.0,146.0,1
1459,-278.0,-34.0,133.0,1
1460,-265.0,-43.0,126.0,1
1461,-254.0,-56.0,125.0,1
1462,-242.0,-61.0,128.0,1
1463,-232.0,-61.0,123.0,1
1464,-218.0,-54.0,118.0,1
1465,-208.0,-54.0,114.0,1
1466,-201.0,-52.0,116.0,1
1467,-200.0,-48.0,120.0,1
1468,-198.0,-41.0,125.0,1
1469,-202.0,-29.0,121.0,1
1470,-205.0,-22.0,121.0,1
1471,-203.0,-14.0,113.0,1
1472,-201.0,-6.0,116.0,1
1473,-203.0,-4.0,110.0,1
1474,-198.0,-9.0,106.0,1
1475,-197.0,-9.0,107.0,1
1476,-196.0,-15.0,109.0,1
1477,-192.0,-24.0,105.0,1
1478,-191.0,-26.0,101.0,1
1479,-189.0,-23.0,96.0,1
1480,-190.0,-13.0,110.0,1
1481,-187.0,-13.0,102.0,1
1482,-189.0,-11.0,107.0,1
1483,-183.0,-10.0,108.0,1
1484,-182.0,-6.0,108.0,1
1485,-187.0,-3.0,108.0,1
1486,-184.0,-2.0,107.0,1
1487,-190.0,0.0,105.0,1
1488,-197.0,-1.0,106.0,1
1489,-209.0,-8.0,105.0,1
1490,-210.0,-15.0,99.0,1
1491,-219.0,-18.0,97.0,1
1492,-238.0,-9.0,96.0,1
1493,-239.0,-23.0,92.0,1
1494,-247.0,-13.0,91.0,1
1495,-252.0,-2.0,87.0,1
1496,-259.0,7.0,86.0,1
1497,-259.0,5.0,84.0,1
1498,-262.0,5.0,82.0,1
1499,-266.0,1.0,75.0,1
1500,-268.0,7.0,73.0,1
1501,-263.0,7.0,67.0,1
1502,-271.0,7.0,67.0,1
1503,-263.0,8.0,65.0,1
1504,-263.0,8.0,52.0,1
1505,-258.0,8.0,45.0,1
1506,-259.0,8.0,41.0,1
1507,-259.0,3.0,38.0,1
1508,-256.0,-4.0,30.0,1
1509,-255.0,-5.0,30.0,1
1510,-255.0,-3.0,32.0,1
1511,-259.0,-10.0,35.0,1
1512,-262.0,-6.0,34.0,1
1513,-258.0,-6.0,39.0,1
1514,-262.0,-6.0,36.0,1
1515,-259.0,3.0,41.0,1
1516,-258.0,2.0,38.0,1
1517,-255.0,-4.0,35.0,1
1518,-256.0,0.0,22.0,1
1519,-249.0,5.0,18.0,1
1520,-252.0,8.0,7.0,1
1521,-258.0,6.0,13.0,1
1522,-261.0,0.0,6.0,1
1523,-258.0,-4.0,4.0,1
1524,-265.0,4.0,-4.0,1
1525,-257.0,-2.0,-9.0,1
1526,-261.0,3.0,-13.0,1
1527,-256.0,3.0,-14.0,1
1528,-267.0,6.0,-12.0,1
1529,-266.0,10.0,-12.0,1
1530,-263.0,7.0,-14.0,1
1531,-261.0,13.0,-15.0,1
1532,-261.0,10.0,-17.0,1
1533,-263.0,12.0,-15.0,1
1534,-266.0,0.0,-17.0,1
1535,-283.0,6.0,-20.0,1
1536,-278.0,9.0,-16.0,1
1537,-269.0,9.0,-12.0,1
1538,-267.0,7.0,-13.0,1
1539,-268.0,16.0,-24.0,1
1540,-266.0,23.0,-19.0,1
1541,-270.0,24.0,-29.0,1
1542,-267.0,19.0,-36.0,1
1543,-265.0,19.0,-36.0,1
1544,-265.0,23.0,-42.0,1
1545,-259.0,26.0,-35.0,1
1546,-259.0,21.0,-43.0,1
1547,-263.0,28.0,-45.0,1
1548,-262.0,24.0,-46.0,1
1549,-275.0,33.0,-51.0,1
1550,-272.0,26.0,-50.0,1
1551,-282.0,32.0,-54.0,1
1552,-275.0,27.0,-54.0,1
1553,-285.0,32.0,-51.0,1
1554,-287.0,30.0,-58.0,1
1555,-272.0,30.0,-52.0,1
1556,-277.0,30.0,-55.0,1
1557,-278.0,32.0,-53.0,1
1558,-272.0,22.0,-50.0,1
1559,-271.0,19.0,-53.0,1
1560,-276.0,16.0,-55.0,1
1561,-274.0,8.0,-55.0,1
1562,-271.0,12.0,-61.0,1
1563,-257.0,13.0,-65.0,1
1564,-259.0,15.0,-58.0,1
1565,-258.0,11.0,-52.0,1
1566,-260.0,12.0,-52.0,1
1567,-263.0,11.0,-50.0,1
1568,-259.0,9.0,-54.0,1
1569,-258.0,6.0,-57.0,1
1570,-255.0,5.0,-56.0,1
1571,-255.0,2.0,-57.0,1
1572,-256.0,0.0,-56.0,1
1573,-251.0,-2.0,-51.0,1
1574,-257.0,-7.0,-50.0,1
1575,-258.0,-6.0,-47.0,1
1576,-258.0,-8.0,-42.0,1
1577,-257.0,-6.0,-42.0,1
1578,-256.0,-7.0,-36.0,1
1579,-257.0,-3.0,-33.0,0
1580,-252.0,-6.0,-33.0,0
1581,-252.0,-3.0,-31.0,0
1582,-252.0,-3.0,-22.0,0
1583,-251.0,-2.0,-27.0,0
1584,-247.0,1.0,-21.0,0
1585,-255.0,5.0,-20.0,0
1586,-255.0,3.0,-19.0,0
1587,-255.0,4.0,-17.0,0
1588,-265.0,2.0,-15.0,0
1589,-258.0,7.0,-10.0,0
1590,-261.0,6.0,-15.0,0
1591,-259.0,5.0,-13.0,0
1592,-261.0,6.0,-10.0,0
1593,-260.0,8.0,-9.0,0
1594,-257.0,8.0,-9.0,0
1595,-260.0,10.0,-9.0,0
1596,-262.0,14.0,-7.0,0
1597,-262.0,13.0,-4.0,0
1598,-264.0,15.0,-3.0,0
1599,-265.0,15.0,-5.0,0
1600,-260.0,13.0,-5.0,0
1601,-261.0,14.0,-3.0,0
1602,-260.0,14.0,-2.0,0
1603,-259.0,14.0,1.0,0
1604,-260.0,16.0,1.0,0
1605,-258.0,12.0,8.0,0
1606,-254.0,14.0,7.0,0
1607,-256.0,15.0,4.0,0
1608,-255.0,19.0,9.0,0
1609,-257.0,19.0,12.0,0
1610,-255.0,15.0,7.0,0
1611,-257.0,18.0,7.0,0
1612,-255.0,12.0,7.0,0
1613,-255.0,14.0,7.0,0
1614,-255.0,11.0,4.0,0
1615,-253.0,10.0,0.0,0
1616,-253.0,8.0,0.0,0
1617,-253.0,11.0,0.0,0
1618,-256.0,5.0,-3.0,0
1619,-257.0,14.0,-2.0,0
1620,-258.0,11.0,-5.0,0
1621,-262.0,12.0,0.0,0
1622,-262.0,14.0,-2.0,0
1623,-260.0,16.0,-3.0,0
1624,-264.0,17.0,-1.0,0
1625,-261.0,18.0,-6.0,0
1626,-260.0,14.0,-5.0,0
1627,-263.0,18.0,-1.0,0
1628,-262.0,18.0,1.0,0
1629,-261.0,16.0,-3.0,0
1630,-261.0,13.0,-1.0,0
1631,-260.0,17.0,5.0,0
1632,-261.0,18.0,0.0,0
1633,-257.0,15.0,0.0,0
1634,-257.0,12.0,4.0,0
1635,-258.0,15.0,0.0,0
1636,-255.0,15.0,4.0,0
1637,-257.0,14.0,5.0,0
1638,-256.0,15.0,2.0,0
1639,-259.0,15.0,4.0,0
1640,-257.0,12.0,9.0,0
1641,-257.0,13.0,6.0,0
1642,-259.0,15.0,8.0,0
1643,-258.0,14.0,8.0,0
1644,-256.0,12.0,10.0,0
1645,-259.0,14.0,13.0,0
1646,-257.0,12.0,9.0,0
1647,-258.0,13.0,8.0,0
1648,-260.0,14.0,14.0,0
1649,-259.0,15.0,5.0,0
1650,-257.0,14.0,6.0,0
1651,-258.0,10.0,7.0,0
1652,-254.0,10.0,4.0,0
1653,-260.0,13.0,8.0,0
1654,-257.0,11.0,3.0,0
1655,-256.0,11.0,8.0,0
1656,-257.0,9.0,5.0,0
1657,-258.0,12.0,7.0,0
1658,-258.0,12.0,5.0,0
1659,-258.0,9.0,6.0,0
1660,-258.0,12.0,10.0,0
1661,-259.0,10.0,7.0,0
1662,-257.0,9.0,6.0,0
1663,-257.0,10.0,10.0,0
1664,-259.0,9.0,6.0,0
1665,-258.0,9.0,6.0,0
1666,-259.0,11.0,5.0,0
1667,-257.0,9.0,6.0,0
1668,-257.0,10.0,10.0,0
1669,-256.0,10.0,3.0,0
1670,-258.0,9.0,4.0,0
1671,-259.0,11.0,6.0,0
1672,-258.0,12.0,5.0,0
1673,-259.0,15.0,5.0,0
1674,-256.0,10.0,9.0,0
1675,-258.0,9.0,9.0,0
1676,-257.0,9.0,7.0,0
1677,-257.0,8.0,4.0,0
1678,-261.0,11.0,9.0,0
1679,-256.0,9.0,6.0,0
1680,-257.0,10.0,6.0,0
1681,-257.0,8.0,8.0,0
1682,-257.0,9.0,8.0,0
1683,-257.0,8.0,8.0,0
1684,-262.0,3.0,11.0,0
1685,-256.0,7.0,8.0,0
1686,-258.0,8.0,6.0,0
1687,-258.0,8.0,7.0,0
1688,-260.0,8.0,13.0,0
1689,-257.0,9.0,3.0,0
1690,-258.0,9.0,7.0,0
1691,-258.0,8.0,9.0,0
1692,-258.0,9.0,4.0,0
1693,-260.0,8.0,6.0,0
1694,-259.0,9.0,8.0,0
1695,-255.0,4.0,7.0,0
1696,-260.0,9.0,10.0,0
1697,-258.0,8.0,8.0,0
1698,-256.0,6.0,2.0,0
1699,-257.0,9.0,8.0,0
1700,-256.0,8.0,6.0,0
1701,-257.0,8.0,6.0,0
1702,-255.0,8.0,4.0,0
1703,-257.0,8.0,8.0,0
1704,-259.0,9.0,4.0,0
1705,-257.0,8.0,4.0,0
1706,-258.0,9.0,9.0,0
1707,-258.0,8.0,6.0,0
1708,-261.0,6.0,7.0,0
1709,-256.0,5.0,8.0,0
1710,-260.0,9.0,5.0,0
1711,-260.0,8.0,4.0,0
1712,-257.0,9.0,2.0,0
1713,-257.0,7.0,5.0,0
1714,-257.0,5.0,5.0,0
1715,-259.0,7.0,1.0,0
1716,-263.0,11.0,2.0,0
1717,-258.0,9.0,0.0,0
1718,-258.0,9.0,3.0,0
1719,-259.0,9.0,2.0,0
1720,-261.0,9.0,1.0,0
1721,-259.0,8.0,3.0,0
1722,-258.0,11.0,4.0,0
1723,-259.0,9.0,2.0,0
1724,-258.0,9.0,4.0,0
1725,-261.0,10.0,4.0,0
1726,-258.0,9.0,4.0,0
1727,-261.0,12.0,1.0,0
1728,-258.0,9.0,2.0,0
1729,-259.0,10.0,3.0,0
1730,-257.0,10.0,3.0,0
1731,-257.0,10.0,2.0,0
1732,-256.0,8.0,4.0,0
1733,-257.0,9.0,1.0,0
1734,-257.0,8.0,5.0,0
1735,-257.0,9.0,6.0,0
1736,-257.0,9.0,6.0,0
1737,-263.0,11.0,-6.0,0
1738,-258.0,8.0,5.0,0
1739,-255.0,8.0,6.0,0
1740,-259.0,10.0,6.0,0
1741,-257.0,9.0,3.0,0
1742,-260.0,9.0,9.0,0
1743,-258.0,11.0,6.0,0
1744,-257.0,9.0,7.0,0
1745,-257.0,9.0,4.0,0
1746,-256.0,9.0,6.0,0
1747,-259.0,10.0,5.0,0
1748,-259.0,10.0,1.0,0
1749,-261.0,11.0,2.0,0
1750,-261.0,10.0,8.0,0
1751,-257.0,10.0,4.0,0
1752,-259.0,10.0,4.0,0
1753,-259.0,8.0,10.0,0
1754,-258.0,9.0,4.0,0
1755,-258.0,11.0,3.0,0
1756,-260.0,11.0,6.0,0
1757,-259.0,15.0,5.0,0
1758,-257.0,10.0,7.0,0
1759,-262.0,10.0,1.0,0
1760,-256.0,10.0,8.0,0
1761,-258.0,8.0,5.0,0
1762,-258.0,8.0,7.0,0
1763,-256.0,8.0,7.0,0
1764,-256.0,6.0,4.0,0
1765,-255.0,9.0,9.0,0
1766,-256.0,8.0,5.0,0
1767,-257.0,9.0,7.0,0
1768,-257.0,9.0,4.0,0
1769,-259.0,10.0,8.0,0
1770,-257.0,8.0,8.0,0
1771,-258.0,10.0,3.0,0
1772,-261.0,9.0,6.0,0
1773,-257.0,10.0,8.0,0
1774,-261.0,10.0,8.0,0
1775,-258.0,8.0,6.0,0
1776,-259.0,9.0,4.0,0
1777,-257.0,8.0,8.0,0
1778,-258.0,10.0,6.0,0
1779,-258.0,11.0,7.0,0
1780,-257.0,7.0,10.0,0
1781,-257.0,7.0,5.0,0
1782,-256.0,8.0,5.0,0
1783,-257.0,8.0,6.0,0
1784,-258.0,7.0,7.0,0
1785,-259.0,7.0,6.0,0
1786,-260.0,9.0,5.0,0
1787,-261.0,8.0,6.0,0
1788,-260.0,9.0,1.0,0
1789,-257.0,9.0,5.0,0
1790,-260.0,11.0,5.0,0
1791,-259.0,9.0,7.0,0
1792,-259.0,10.0,8.0,0
1793,-258.0,8.0,8.0,0
1794,-258.0,12.0,6.0,0
1795,-256.0,9.0,8.0,0
1796,-259.0,11.0,5.0,0
1797,-258.0,7.0,3.0,0
1798,-257.0,9.0,6.0,0
1799,-259.0,10.0,2.0,0
1800,-260.0,8.0,8.0,0
1801,-259.0,9.0,2.0,0
1802,-257.0,8.0,6.0,0
1803,-258.0,10.0,6.0,0
1804,-258.0,10.0,5.0,0
1805,-258.0,8.0,10.0,0
1806,-259.0,11.0,5.0,0
1807,-258.0,9.0,6.0,0
1808,-258.0,9.0,6.0,0
1809,-257.0,9.0,6.0,0
1810,-259.0,9.0,8.0,0
1811,-264.0,12.0,8.0,0
1812,-258.0,10.0,3.0,0
1813,-258.0,9.0,10.0,0
1814,-258.0,9.0,4.0,0
1815,-258.0,10.0,5.0,0
1816,-259.0,10.0,4.0,0
1817,-258.0,8.0,6.0,0
1818,-259.0,9.0,5.0,0
1819,-257.0,8.0,8.0,0
1820,-261.0,10.0,4.0,0
1821,-258.0,8.0,5.0,0
1822,-258.0,8.0,6.0,0
1823,-255.0,11.0,11.0,0
1824,-258.0,8.0,9.0,0
1825,-259.0,10.0,6.0,0
1826,-257.0,8.0,6.0,0
1827,-257.0,10.0,4.0,0
1828,-256.0,8.0,4.0,0
1829,-258.0,10.0,7.0,0
1830,-257.0,8.0,6.0,0
1831,-257.0,8.0,9.0,0
1832,-258.0,9.0,4.0,0
1833,-256.0,10.0,8.0,0
1834,-258.0,9.0,4.0,0
1835,-259.0,9.0,6.0,0
1836,-258.0,8.0,5.0,0
1837,-258.0,10.0,7.0,0
1838,-258.0,7.0,2.0,0
1839,-259.0,9.0,8.0,0
1840,-258.0,8.0,6.0,0
1841,-256.0,9.0,6.0,0
1842,-256.0,8.0,7.0,0
1843,-259.0,11.0,7.0,0
1844,-259.0,8.0,4.0,0
1845,-257.0,8.0,4.0,0
1846,-259.0,8.0,5.0,0
1847,-260.0,9.0,4.0,0
1848,-257.0,7.0,6.0,0
1849,-254.0,6.0,5.0,0
1850,-259.0,10.0,7.0,0
1851,-257.0,8.0,7.0,0
1852,-260.0,11.0,5.0,0
1853,-257.0,6.0,4.0,0
1854,-257.0,9.0,9.0,0
1855,-262.0,9.0,18.0,0
1856,-249.0,13.0,-13.0,0
1857,-256.0,8.0,-7.0,0
1858,-263.0,7.0,-3.0,0
1859,-258.0,10.0,3.0,0
1860,-260.0,11.0,2.0,0
1861,-258.0,6.0,9.0,0
1862,-264.0,5.0,10.0,0
1863,-259.0,9.0,-6.0,0
1864,-256.0,15.0,-1.0,0
1865,-259.0,10.0,-11.0,0
1866,-257.0,7.0,4.0,0
1867,-258.0,10.0,5.0,0
1868,-259.0,9.0,1.0,0
1869,-257.0,7.0,3.0,0
1870,-257.0,5.0,8.0,0
1871,-257.0,2.0,4.0,0
1872,-255.0,13.0,6.0,0
1873,-260.0,14.0,11.0,0
1874,-261.0,10.0,-1.0,0
1875,-267.0,22.0,1.0,0
1876,-255.0,5.0,19.0,0
1877,-260.0,24.0,4.0,0
1878,-271.0,11.0,12.0,0
1879,-253.0,11.0,27.0,0
1880,-266.0,0.0,26.0,0
1881,-254.0,5.0,11.0,0
1882,-257.0,9.0,1.0,0
1883,-258.0,10.0,7.0,0
1884,-258.0,9.0,5.0,0
1885,-258.0,9.0,5.0,0
1886,-241.0,9.0,1.0,0
1887,-259.0,17.0,9.0,0
1888,-269.0,21.0,-5.0,0
1889,-255.0,2.0,7.0,0
1890,-256.0,9.0,21.0,0
1891,-265.0,7.0,8.0,0
1892,-250.0,7.0,7.0,0
1893,-257.0,8.0,29.0,0
1894,-257.0,7.0,-2.0,0
1895,-243.0,27.0,1.0,0
1896,-259.0,5.0,12.0,0
1897,-258.0,9.0,6.0,0
1898,-260.0,9.0,10.0,0
1899,-259.0,9.0,3.0,0
1900,-257.0,9.0,6.0,0
1901,-260.0,13.0,15.0,0
1902,-257.0,14.0,11.0,0
1903,-256.0,8.0,22.0,0
1904,-265.0,14.0,-4.0,0
1905,-266.0,18.0,7.0,0
1906,-255.0,7.0,15.0,0
1907,-273.0,13.0,1.0,0
1908,-265.0,-1.0,4.0,0
1909,-256.0,18.0,-4.0,0
1910,-247.0,19.0,-6.0,0
1911,-259.0,19.0,7.0,0
1912,-257.0,17.0,4.0,0
1913,-258.0,6.0,6.0,0
1914,-260.0,8.0,8.0,0
1915,-257.0,5.0,1.0,0
1916,-260.0,9.0,7.0,0
1917,-256.0,10.0,3.0,0
1918,-251.0,13.0,5.0,0
1919,-269.0,9.0,5.0,0
1920,-252.0,9.0,-8.0,0
1921,-257.0,17.0,-2.0,0
1922,-255.0,11.0,26.0,0
1923,-278.0,8.0,-3.0,0
1924,-256.0,7.0,5.0,0
1925,-249.0,8.0,15.0,0
1926,-257.0,12.0,4.0,0
1927,-256.0,9.0,4.0,0
1928,-257.0,9.0,6.0,0
1929,-257.0,9.0,5.0,0
1930,-257.0,8.0,10.0,0
1931,-258.0,9.0,8.0,0
1932,-253.0,9.0,12.0,0
1933,-255.0,9.0,6.0,0
1934,-262.0,7.0,-8.0,0
1935,-262.0,6.0,-4.0,0
1936,-257.0,7.0,9.0,0
1937,-258.0,3.0,5.0,0
1938,-257.0,9.0,1.0,0
1939,-258.0,6.0,13.0,0
1940,-258.0,4.0,11.0,0
1941,-255.0,4.0,1.0,0
1942,-260.0,8.0,-1.0,0
1943,-258.0,8.0,7.0,0
1944,-257.0,8.0,11.0,0
1945,-257.0,7.0,7.0,0
1946,-259.0,5.0,5.0,0
1947,-259.0,7.0,7.0,0
1948,-256.0,9.0,5.0,0
1949,-261.0,5.0,8.0,0
1950,-261.0,6.0,4.0,0
1951,-264.0,20.0,7.0,0
1952,-254.0,8.0,8.0,0
1953,-260.0,9.0,6.0,0
1954,-261.0,9.0,10.0,0
1955,-261.0,7.0,6.0,0
1956,-261.0,10.0,11.0,0
1957,-250.0,8.0,5.0,0
1958,-258.0,8.0,8.0,0
1959,-258.0,10.0,10.0,0
1960,-260.0,8.0,10.0,0
1961,-259.0,8.0,7.0,0
1962,-261.0,15.0,25.0,0
1963,-255.0,8.0,9.0,0
1964,-257.0,6.0,6.0,0
1965,-258.0,8.0,8.0,0
1966,-259.0,8.0,9.0,0
1967,-252.0,8.0,16.0,0
1968,-260.0,7.0,9.0,0
1969,-258.0,10.0,9.0,0
1970,-259.0,9.0,3.0,0
1971,-258.0,9.0,9.0,0
1972,-261.0,8.0,10.0,0
1973,-258.0,12.0,8.0,0
1974,-258.0,9.0,7.0,0
1975,-257.0,10.0,6.0,0
1976,-257.0,15.0,2.0,0
1977,-261.0,8.0,7.0,0
1978,-256.0,8.0,7.0,0
1979,-260.0,8.0,9.0,0
1980,-261.0,8.0,6.0,0
1981,-257.0,4.0,7.0,0
1982,-258.0,8.0,4.0,0
1983,-257.0,6.0,8.0,0
1984,-258.0,8.0,9.0,0
1985,-258.0,8.0,9.0,0
1986,-258.0,9.0,8.0,0
1987,-257.0,10.0,8.0,0
1988,-259.0,8.0,8.0,0
1989,-258.0,8.0,6.0,0
1990,-258.0,9.0,6.0,0
1991,-258.0,9.0,6.0,0
1992,-258.0,6.0,9.0,0
1993,-259.0,13.0,12.0,0
1994,-258.0,10.0,6.0,0
1995,-257.0,9.0,8.0,0
1996,-259.0,9.0,6.0,0
1997,-259.0,8.0,8.0,0
1998,-260.0,9.0,8.0,0
1999,-256.0,9.0,7.0,0
2000,-258.0,9.0,9.0,0
2001,-260.0,8.0,6.0,0
2002,-260.0,9.0,12.0,0
2003,-261.0,9.0,8.0,0
2004,-256.0,8.0,7.0,0
2005,-259.0,8.0,8.0,0
2006,-260.0,9.0,9.0,0
2007,-260.0,8.0,8.0,0
2008,-258.0,8.0,5.0,0
2009,-256.0,7.0,4.0,0
2010,-260.0,8.0,9.0,0
2011,-256.0,8.0,7.0,0
2012,-256.0,8.0,9.0,0
2013,-259.0,8.0,9.0,0
2014,-260.0,9.0,8.0,0
2015,-254.0,10.0,-3.0,0
2016,-258.0,8.0,10.0,0
2017,-260.0,7.0,9.0,0
2018,-258.0,8.0,8.0,0
2019,-258.0,8.0,11.0,0
2020,-259.0,9.0,8.0,0
2021,-256.0,8.0,6.0,0
2022,-256.0,8.0,10.0,0
2023,-256.0,6.0,10.0,0
2024,-257.0,8.0,7.0,0
2025,-258.0,8.0,7.0,0
2026,-259.0,10.0,11.0,0
2027,-257.0,8.0,9.0,0
2028,-258.0,9.0,8.0,0
2029,-259.0,8.0,7.0,0
2030,-257.0,7.0,7.0,0
2031,-258.0,9.0,7.0,0
2032,-259.0,8.0,9.0,0
2033,-258.0,7.0,6.0,0
2034,-257.0,8.0,10.0,0
2035,-260.0,11.0,9.0,0
2036,-257.0,7.0,7.0,0
2037,-258.0,9.0,9.0,0
2038,-259.0,9.0,10.0,0
2039,-258.0,8.0,9.0,0
2040,-257.0,6.0,7.0,0
2041,-256.0,9.0,9.0,0
2042,-258.0,8.0,10.0,0
2043,-257.0,9.0,5.0,0
2044,-258.0,8.0,8.0,0
2045,-259.0,9.0,12.0,0
2046,-259.0,8.0,5.0,0
2047,-259.0,8.0,9.0,0
2048,-257.0,9.0,9.0,0
2049,-257.0,8.0,9.0,0
2050,-258.0,8.0,6.0,0
2051,-258.0,8.0,12.0,0
2052,-256.0,8.0,8.0,0
2053,-258.0,7.0,10.0,0
2054,-258.0,8.0,8.0,0
2055,-258.0,8.0,12.0,0
2056,-257.0,8.0,10.0,0
2057,-255.0,0.0,15.0,0
2058,-259.0,9.0,11.0,0
2059,-257.0,8.0,12.0,0
2060,-256.0,5.0,10.0,0
2061,-255.0,6.0,7.0,0
2062,-256.0,5.0,5.0,0
2063,-262.0,8.0,7.0,0
2064,-258.0,8.0,10.0,0
2065,-258.0,8.0,10.0,0
2066,-258.0,9.0,9.0,0
2067,-259.0,9.0,9.0,0
2068,-259.0,12.0,9.0,0
2069,-259.0,11.0,10.0,0
2070,-259.0,10.0,14.0,0
2071,-258.0,11.0,10.0,0
2072,-259.0,8.0,10.0,0
2073,-257.0,6.0,9.0,0
2074,-259.0,8.0,9.0,0
2075,-259.0,8.0,8.0,0
2076,-256.0,6.0,9.0,0
2077,-258.0,8.0,10.0,0
2078,-258.0,9.0,8.0,0
2079,-261.0,9.0,14.0,0
2080,-256.0,9.0,10.0,0
2081,-256.0,8.0,10.0,0
2082,-255.0,8.0,9.0,0
2083,-259.0,8.0,9.0,0
2084,-258.0,7.0,12.0,0
2085,-258.0,8.0,10.0,0
2086,-258.0,8.0,11.0,0
2087,-259.0,8.0,12.0,0
2088,-259.0,6.0,11.0,0
2089,-260.0,7.0,11.0,0
2090,-259.0,10.0,10.0,0
2091,-259.0,10.0,12.0,0
2092,-257.0,10.0,6.0,0
2093,-257.0,12.0,6.0,0
2094,-260.0,10.0,7.0,0
2095,-258.0,10.0,8.0,0
2096,-258.0,10.0,6.0,0
2097,-257.0,8.0,6.0,0
2098,-260.0,9.0,8.0,0
2099,-258.0,8.0,8.0,0
2100,-261.0,10.0,-2.0,0
2101,-261.0,9.0,9.0,0
2102,-257.0,8.0,9.0,0
2103,-256.0,9.0,11.0,0
2104,-256.0,9.0,10.0,0
2105,-257.0,7.0,11.0,0
2106,-258.0,6.0,7.0,0
2107,-258.0,10.0,11.0,0
2108,-259.0,5.0,9.0,0
2109,-260.0,8.0,9.0,0
2110,-259.0,8.0,9.0,0
2111,-258.0,8.0,14.0,0
2112,-258.0,6.0,11.0,0
2113,-260.0,7.0,8.0,0
2114,-258.0,8.0,11.0,0
2115,-258.0,9.0,6.0,0
2116,-260.0,8.0,11.0,0
2117,-259.0,7.0,14.0,0
2118,-258.0,9.0,8.0,0
2119,-259.0,9.0,10.0,0
2120,-257.0,9.0,10.0,0
2121,-258.0,8.0,12.0,0
2122,-257.0,8.0,9.0,0
2123,-255.0,8.0,9.0,0
2124,-257.0,9.0,8.0,0
2125,-258.0,9.0,12.0,0
2126,-262.0,8.0,12.0,0
2127,-261.0,8.0,7.0,0
2128,-258.0,9.0,10.0,0
2129,-261.0,9.0,12.0,0
2130,-259.0,6.0,8.0,0
2131,-258.0,8.0,9.0,0
2132,-257.0,8.0,12.0,0
2133,-256.0,8.0,9.0,0
2134,-259.0,7.0,9.0,0
2135,-259.0,8.0,10.0,0
2136,-258.0,9.0,11.0,0
2137,-257.0,8.0,10.0,0
2138,-257.0,9.0,9.0,0
2139,-256.0,9.0,14.0,0
2140,-259.0,8.0,10.0,0
2141,-257.0,7.0,9.0,0
2142,-258.0,9.0,13.0,0
2143,-257.0,8.0,24.0,0
2144,-256.0,9.0,9.0,0
2145,-258.0,6.0,11.0,0
2146,-256.0,7.0,13.0,0
2147,-256.0,8.0,11.0,0
2148,-257.0,8.0,16.0,0
2149,-257.0,8.0,13.0,0
2150,-256.0,8.0,10.0,0
2151,-258.0,8.0,11.0,0
2152,-258.0,8.0,11.0,0
2153,-257.0,8.0,9.0,0
2154,-256.0,8.0,8.0,0
2155,-258.0,8.0,9.0,0
2156,-257.0,7.0,11.0,0
2157,-258.0,8.0,14.0,0
2158,-258.0,8.0,14.0,0
2159,-258.0,8.0,15.0,0
2160,-258.0,7.0,12.0,0
2161,-257.0,9.0,12.0,0
2162,-258.0,10.0,7.0,0
2163,-257.0,9.0,9.0,0
2164,-257.0,6.0,0.0,0
2165,-259.0,8.0,10.0,0
2166,-258.0,10.0,9.0,0
2167,-258.0,7.0,9.0,0
2168,-257.0,8.0,10.0,0
2169,-258.0,8.0,12.0,0
2170,-258.0,8.0,6.0,0
2171,-257.0,8.0,10.0,0
2172,-258.0,7.0,8.0,0
2173,-261.0,10.0,7.0,0
2174,-258.0,9.0,10.0,0
2175,-259.0,8.0,8.0,0
2176,-257.0,9.0,11.0,0
2177,-258.0,8.0,13.0,0
2178,-257.0,9.0,9.0,0
2179,-258.0,9.0,7.0,0
2180,-257.0,10.0,14.0,0
2181,-259.0,10.0,12.0,0
2182,-257.0,11.0,10.0,0
2183,-257.0,8.0,12.0,0
2184,-258.0,8.0,14.0,0
2185,-255.0,4.0,12.0,0
2186,-259.0,9.0,16.0,0
2187,-258.0,10.0,10.0,0
2188,-257.0,9.0,13.0,0
2189,-258.0,8.0,9.0,0
2190,-257.0,9.0,13.0,0
2191,-257.0,8.0,10.0,0
2192,-258.0,8.0,13.0,0
2193,-259.0,8.0,15.0,0
2194,-258.0,8.0,10.0,0
2195,-257.0,9.0,9.0,0
2196,-258.0,8.0,10.0,0
2197,-256.0,9.0,11.0,0
2198,-260.0,8.0,11.0,0
2199,-256.0,7.0,16.0,0
2200,-258.0,7.0,8.0,0
2201,-257.0,7.0,6.0,0
2202,-258.0,10.0,8.0,0
2203,-260.0,8.0,7.0,0
2204,-258.0,8.0,9.0,0
2205,-261.0,9.0,6.0,0
2206,-258.0,8.0,10.0,0
2207,-260.0,9.0,10.0,0
2208,-257.0,9.0,5.0,0
2209,-259.0,9.0,9.0,0
2210,-257.0,8.0,7.0,0
2211,-258.0,9.0,9.0,0
2212,-258.0,8.0,8.0,0
2213,-258.0,9.0,7.0,0
2214,-257.0,8.0,9.0,0
2215,-257.0,8.0,8.0,0
2216,-261.0,9.0,8.0,0
2217,-258.0,8.0,5.0,0
2218,-257.0,8.0,5.0,0
2219,-258.0,8.0,6.0,0
2220,-260.0,8.0,7.0,0
2221,-259.0,8.0,8.0,0
2222,-258.0,8.0,9.0,0
2223,-258.0,7.0,8.0,0
2224,-258.0,8.0,9.0,0
2225,-258.0,8.0,8.0,0
2226,-258.0,6.0,6.0,0
2227,-260.0,10.0,7.0,0
2228,-259.0,4.0,7.0,0
2229,-257.0,8.0,6.0,0
2230,-257.0,8.0,5.0,0
2231,-257.0,8.0,7.0,0
2232,-256.0,7.0,12.0,0
2233,-258.0,6.0,9.0,0
2234,-256.0,6.0,6.0,0
2235,-259.0,8.0,7.0,0
2236,-259.0,9.0,10.0,0
2237,-262.0,8.0,8.0,0
2238,-257.0,5.0,4.0,0
2239,-258.0,6.0,8.0,0
2240,-260.0,8.0,9.0,0
2241,-257.0,7.0,7.0,0
2242,-256.0,8.0,6.0,0
2243,-257.0,8.0,8.0,0
2244,-258.0,8.0,7.0,0
2245,-257.0,8.0,6.0,0
2246,-256.0,9.0,6.0,0
2247,-257.0,9.0,12.0,0
2248,-258.0,8.0,12.0,0
2249,-261.0,7.0,16.0,0
2250,-257.0,9.0,11.0,0
2251,-256.0,9.0,9.0,0
2252,-258.0,9.0,8.0,0
2253,-259.0,11.0,10.0,0
2254,-257.0,11.0,12.0,0
2255,-261.0,10.0,10.0,0
2256,-258.0,7.0,12.0,0
2257,-261.0,8.0,11.0,0
2258,-259.0,10.0,9.0,0
2259,-257.0,3.0,13.0,0
2260,-256.0,8.0,8.0,0
2261,-260.0,9.0,9.0,0
2262,-259.0,7.0,13.0,0
2263,-258.0,7.0,11.0,0
2264,-256.0,6.0,9.0,0
2265,-260.0,5.0,11.0,0
2266,-259.0,7.0,8.0,0
2267,-257.0,7.0,10.0,0
2268,-257.0,9.0,8.0,0
2269,-255.0,8.0,10.0,0
2270,-257.0,9.0,11.0,0
2271,-258.0,9.0,1.0,0
2272,-256.0,8.0,13.0,0
2273,-257.0,8.0,9.0,0
2274,-259.0,9.0,11.0,0
2275,-256.0,8.0,13.0,0
2276,-257.0,8.0,12.0,0
2277,-258.0,9.0,9.0,0
2278,-258.0,8.0,10.0,0
2279,-257.0,10.0,7.0,0
2280,-259.0,8.0,11.0,0
2281,-258.0,10.0,8.0,0
2282,-257.0,9.0,7.0,0
2283,-260.0,10.0,8.0,0
2284,-259.0,10.0,7.0,0
2285,-258.0,9.0,5.0,0
2286,-261.0,9.0,8.0,0
2287,-258.0,9.0,7.0,0
2288,-258.0,9.0,8.0,0
2289,-259.0,5.0,7.0,0
2290,-259.0,8.0,9.0,0
2291,-260.0,6.0,6.0,0
2292,-254.0,9.0,8.0,0
2293,-261.0,8.0,9.0,0
2294,-258.0,8.0,4.0,0
2295,-261.0,9.0,7.0,0
2296,-256.0,8.0,6.0,0
2297,-259.0,8.0,3.0,0
2298,-261.0,7.0,8.0,0
2299,-258.0,8.0,10.0,0
2300,-258.0,9.0,6.0,0
2301,-256.0,5.0,8.0,0
2302,-260.0,11.0,12.0,0
2303,-257.0,8.0,10.0,0
2304,-257.0,8.0,9.0,0
2305,-256.0,8.0,13.0,0
2306,-257.0,7.0,8.0,0
2307,-257.0,7.0,7.0,0
2308,-258.0,9.0,7.0,0
2309,-257.0,8.0,12.0,0
2310,-257.0,9.0,9.0,0
2311,-258.0,8.0,7.0,0
2312,-260.0,9.0,7.0,0
2313,-270.0,6.0,19.0,0
2314,-259.0,8.0,9.0,0
2315,-260.0,8.0,8.0,0
2316,-260.0,9.0,10.0,0
2317,-259.0,8.0,8.0,0
2318,-258.0,8.0,7.0,0
2319,-260.0,6.0,11.0,0
2320,-258.0,9.0,8.0,0
2321,-259.0,9.0,13.0,0
2322,-258.0,9.0,10.0,0
2323,-258.0,9.0,13.0,0
2324,-257.0,9.0,13.0,0
2325,-258.0,9.0,7.0,0
2326,-259.0,8.0,9.0,0
2327,-257.0,9.0,6.0,0
2328,-257.0,10.0,11.0,0
2329,-258.0,8.0,10.0,0
2330,-257.0,8.0,9.0,0
2331,-260.0,9.0,8.0,0
2332,-259.0,8.0,10.0,0
2333,-259.0,8.0,10.0,0
2334,-258.0,9.0,11.0,0
2335,-265.0,12.0,10.0,0
2336,-259.0,10.0,12.0,0
2337,-258.0,8.0,10.0,0
2338,-257.0,8.0,6.0,0
2339,-259.0,9.0,10.0,0
2340,-259.0,9.0,9.0,0
2341,-258.0,6.0,5.0,0
2342,-258.0,8.0,7.0,0
2343,-255.0,8.0,5.0,0
2344,-256.0,8.0,10.0,0
2345,-258.0,8.0,8.0,0
2346,-256.0,8.0,8.0,0
2347,-260.0,8.0,8.0,0
2348,-260.0,9.0,10.0,0
2349,-257.0,11.0,9.0,0
2350,-256.0,9.0,8.0,0
2351,-259.0,10.0,7.0,0
2352,-262.0,9.0,4.0,0
2353,-264.0,12.0,3.0,0
2354,-261.0,12.0,-2.0,0
2355,-259.0,8.0,-8.0,0
2356,-264.0,-2.0,3.0,0
2357,-262.0,-2.0,2.0,0
2358,-264.0,-1.0,3.0,0
2359,-262.0,3.0,5.0,0
2360,-261.0,6.0,8.0,0
2361,-257.0,8.0,6.0,0
2362,-260.0,8.0,4.0,0
2363,-259.0,8.0,6.0,0
2364,-258.0,7.0,9.0,0
2365,-257.0,2.0,18.0,0
2366,-256.0,-1.0,15.0,0
2367,-255.0,-2.0,14.0,0
2368,-255.0,5.0,17.0,0
2369,-255.0,4.0,19.0,0
2370,-253.0,7.0,18.0,0
2371,-251.0,8.0,19.0,0
2372,-253.0,9.0,17.0,0
2373,-250.0,8.0,14.0,0
2374,-255.0,8.0,15.0,0
2375,-256.0,8.0,15.0,0
2376,-255.0,12.0,17.0,0
2377,-260.0,15.0,13.0,0
2378,-258.0,14.0,12.0,0
2379,-259.0,16.0,12.0,0
2380,-259.0,14.0,8.0,0
2381,-263.0,17.0,8.0,0
2382,-265.0,18.0,9.0,0
2383,-267.0,17.0,7.0,0
2384,-265.0,13.0,3.0,0
2385,-262.0,10.0,6.0,0
2386,-262.0,9.0,1.0,0
2387,-259.0,13.0,5.0,0
2388,-260.0,11.0,2.0,0
2389,-260.0,13.0,1.0,0
2390,-261.0,12.0,5.0,0
2391,-261.0,11.0,4.0,0
2392,-262.0,13.0,2.0,0
2393,-263.0,13.0,6.0,0
2394,-262.0,12.0,7.0,0
2395,-263.0,12.0,2.0,0
2396,-262.0,7.0,3.0,0
2397,-264.0,11.0,0.0,0
2398,-262.0,9.0,3.0,0
2399,-263.0,12.0,11.0,0
2400,-258.0,8.0,1.0,0
2401,-257.0,10.0,4.0,0
2402,-256.0,8.0,6.0,0
2403,-258.0,8.0,9.0,0
2404,-257.0,8.0,11.0,0
2405,-257.0,9.0,12.0,0
2406,-256.0,8.0,16.0,0
2407,-257.0,11.0,17.0,0
2408,-252.0,11.0,16.0,0
2409,-253.0,9.0,16.0,0
2410,-253.0,7.0,16.0,0
2411,-254.0,5.0,13.0,0
2412,-252.0,1.0,16.0,0
2413,-254.0,1.0,9.0,0
2414,-256.0,1.0,12.0,0
2415,-256.0,-1.0,11.0,0
2416,-260.0,6.0,9.0,0
2417,-258.0,4.0,11.0,0
2418,-259.0,8.0,10.0,0
2419,-260.0,7.0,6.0,0
2420,-274.0,16.0,-8.0,0
2421,-262.0,8.0,3.0,0
2422,-264.0,8.0,4.0,0
2423,-262.0,9.0,2.0,0
2424,-263.0,6.0,2.0,0
2425,-260.0,8.0,0.0,0
2426,-259.0,6.0,3.0,0
2427,-257.0,7.0,6.0,0
2428,-256.0,8.0,7.0,0
2429,-258.0,8.0,5.0,0
2430,-254.0,7.0,5.0,0
2431,-255.0,8.0,5.0,0
2432,-255.0,6.0,8.0,0
2433,-252.0,2.0,7.0,0
2434,-254.0,5.0,7.0,0
2435,-253.0,6.0,6.0,0
2436,-255.0,5.0,7.0,0
2437,-256.0,5.0,5.0,0
2438,-257.0,8.0,6.0,0
2439,-258.0,9.0,7.0,0
2440,-262.0,12.0,8.0,0
2441,-258.0,14.0,5.0,0
2442,-272.0,16.0,3.0,0
2443,-264.0,16.0,7.0,0
2444,-263.0,14.0,4.0,0
2445,-263.0,13.0,7.0,0
2446,-264.0,10.0,3.0,0
2447,-263.0,13.0,3.0,0
2448,-262.0,9.0,3.0,0
2449,-262.0,12.0,6.0,0
2450,-262.0,8.0,7.0,0
2451,-259.0,11.0,7.0,0
2452,-258.0,9.0,9.0,0
2453,-258.0,8.0,5.0,0
2454,-258.0,8.0,9.0,0
2455,-256.0,9.0,8.0,0
2456,-259.0,9.0,10.0,0
2457,-258.0,6.0,9.0,0
2458,-256.0,8.0,6.0,0
2459,-254.0,7.0,6.0,0
2460,-256.0,8.0,9.0,0
2461,-257.0,8.0,5.0,0
2462,-260.0,8.0,11.0,0
2463,-251.0,15.0,6.0,0
2464,-257.0,8.0,6.0,0
2465,-258.0,10.0,9.0,0
2466,-260.0,8.0,7.0,0
2467,-260.0,12.0,10.0,0
2468,-258.0,8.0,7.0,0
2469,-258.0,9.0,7.0,0
2470,-259.0,11.0,9.0,0
2471,-259.0,7.0,9.0,0
2472,-257.0,8.0,7.0,0
2473,-259.0,9.0,9.0,0
2474,-259.0,9.0,11.0,0
2475,-259.0,12.0,6.0,0
2476,-258.0,12.0,9.0,0
2477,-259.0,9.0,8.0,0
2478,-259.0,8.0,10.0,0
2479,-258.0,8.0,7.0,0
2480,-259.0,7.0,9.0,0
2481,-258.0,8.0,10.0,0
2482,-258.0,6.0,10.0,0
2483,-259.0,8.0,8.0,0
2484,-256.0,10.0,12.0,0
2485,-256.0,8.0,9.0,0
2486,-255.0,8.0,10.0,0
2487,-256.0,8.0,10.0,0
2488,-260.0,8.0,7.0,0
2489,-257.0,7.0,10.0,0
2490,-258.0,8.0,12.0,0
2491,-257.0,8.0,9.0,0
2492,-260.0,8.0,9.0,0
2493,-257.0,8.0,11.0,0
2494,-258.0,9.0,5.0,0
2495,-258.0,8.0,10.0,0
2496,-257.0,10.0,10.0,0
2497,-256.0,10.0,11.0,0
2498,-261.0,9.0,10.0,0
2499,-259.0,9.0,12.0,0
2500,-258.0,9.0,12.0,0
2501,-259.0,10.0,9.0,0
2502,-260.0,10.0,5.0,0
2503,-259.0,10.0,9.0,0
2504,-260.0,8.0,7.0,0
2505,-260.0,8.0,7.0,0
2506,-256.0,2.0,15.0,0
2507,-259.0,8.0,9.0,0
2508,-258.0,9.0,11.0,0
2509,-256.0,8.0,10.0,0
2510,-257.0,8.0,9.0,0
2511,-256.0,10.0,6.0,0
2512,-256.0,8.0,10.0,0
2513,-257.0,9.0,10.0,0
2514,-258.0,9.0,13.0,0
2515,-258.0,10.0,12.0,0
2516,-258.0,10.0,11.0,0
2517,-257.0,12.0,11.0,0
2518,-257.0,8.0,9.0,0
2519,-258.0,9.0,7.0,0
2520,-258.0,6.0,13.0,0
2521,-258.0,9.0,8.0,0
2522,-259.0,11.0,9.0,0
2523,-257.0,10.0,12.0,0
2524,-261.0,12.0,8.0,0
2525,-256.0,8.0,8.0,0
2526,-258.0,11.0,10.0,0
2527,-255.0,8.0,9.0,0
2528,-258.0,9.0,8.0,0
2529,-261.0,11.0,8.0,0
2530,-258.0,7.0,7.0,0
2531,-258.0,8.0,11.0,0
2532,-257.0,8.0,11.0,0
2533,-259.0,9.0,10.0,0
2534,-257.0,9.0,8.0,0
2535,-259.0,9.0,7.0,0
2536,-257.0,7.0,7.0,0
2537,-259.0,10.0,6.0,0
2538,-256.0,9.0,10.0,0
2539,-258.0,9.0,9.0,0
2540,-257.0,8.0,5.0,0
2541,-257.0,8.0,6.0,0
2542,-256.0,8.0,8.0,0
2543,-261.0,8.0,12.0,0
2544,-257.0,9.0,10.0,0
2545,-256.0,9.0,10.0,0
2546,-257.0,9.0,9.0,0
2547,-255.0,9.0,8.0,0
2548,-252.0,13.0,13.0,0
2549,-257.0,8.0,8.0,0
2550,-257.0,8.0,8.0,0
2551,-259.0,10.0,9.0,0
2552,-258.0,9.0,11.0,0
2553,-257.0,8.0,11.0,0
2554,-260.0,8.0,12.0,0
2555,-258.0,7.0,11.0,0
2556,-257.0,8.0,12.0,0
2557,-257.0,8.0,9.0,0
2558,-259.0,11.0,12.0,0
2559,-259.0,8.0,13.0,0
2560,-258.0,8.0,14.0,0
2561,-258.0,9.0,7.0,0
2562,-258.0,8.0,10.0,0
2563,-259.0,10.0,8.0,0
2564,-257.0,9.0,9.0,0
2565,-257.0,9.0,8.0,0
2566,-258.0,8.0,13.0,0
2567,-257.0,8.0,9.0,0
2568,-257.0,8.0,13.0,0
2569,-259.0,9.0,12.0,0
2570,-257.0,9.0,12.0,0
2571,-256.0,9.0,11.0,0
2572,-254.0,8.0,10.0,0
2573,-256.0,10.0,10.0,0
2574,-258.0,8.0,6.0,0
2575,-257.0,7.0,9.0,0
2576,-255.0,8.0,8.0,0
2577,-258.0,9.0,11.0,0
2578,-258.0,8.0,11.0,0
2579,-257.0,6.0,8.0,0
2580,-258.0,9.0,11.0,0
2581,-261.0,9.0,5.0,0
2582,-260.0,8.0,7.0,0
2583,-257.0,8.0,12.0,0
2584,-257.0,8.0,7.0,0
2585,-257.0,10.0,12.0,0
2586,-258.0,7.0,12.0,0
2587,-259.0,9.0,9.0,0
2588,-259.0,10.0,9.0,0
2589,-260.0,8.0,6.0,0
2590,-258.0,8.0,10.0,0
2591,-254.0,11.0,11.0,0
2592,-260.0,10.0,10.0,0
2593,-258.0,11.0,8.0,0
2594,-259.0,8.0,10.0,0
2595,-260.0,8.0,12.0,0
2596,-257.0,8.0,9.0,0
2597,-256.0,8.0,9.0,0
2598,-256.0,8.0,12.0,0
2599,-259.0,9.0,7.0,0
2600,-258.0,10.0,12.0,0
2601,-259.0,8.0,9.0,0
2602,-259.0,8.0,12.0,0
2603,-257.0,8.0,8.0,0
2604,-258.0,11.0,11.0,0
2605,-259.0,9.0,10.0,0
2606,-259.0,9.0,10.0,0
2607,-258.0,10.0,8.0,0
2608,-259.0,9.0,8.0,0
2609,-256.0,10.0,8.0,0
2610,-257.0,9.0,12.0,0
2611,-256.0,7.0,10.0,0
2612,-266.0,10.0,21.0,0
2613,-258.0,9.0,8.0,0
2614,-257.0,8.0,11.0,0
2615,-257.0,10.0,9.0,0
2616,-259.0,8.0,10.0,0
2617,-259.0,7.0,7.0,0
2618,-257.0,9.0,13.0,0
2619,-258.0,8.0,13.0,0
2620,-258.0,10.0,6.0,0
2621,-258.0,9.0,12.0,0
2622,-257.0,7.0,7.0,0
2623,-258.0,7.0,9.0,0
2624,-258.0,9.0,7.0,0
2625,-257.0,8.0,7.0,0
2626,-258.0,8.0,12.0,0
2627,-257.0,9.0,14.0,0
2628,-260.0,10.0,7.0,0
2629,-259.0,9.0,13.0,0
2630,-258.0,9.0,11.0,0
2631,-257.0,8.0,9.0,0
2632,-257.0,6.0,6.0,0
2633,-258.0,8.0,8.0,0
2634,-254.0,6.0,4.0,0
2635,-258.0,10.0,7.0,0
2636,-258.0,8.0,10.0,0
2637,-257.0,8.0,8.0,0
2638,-256.0,8.0,14.0,0
2639,-257.0,9.0,10.0,0
2640,-259.0,10.0,10.0,0
2641,-260.0,8.0,10.0,0
2642,-261.0,8.0,11.0,0
2643,-258.0,8.0,8.0,0
2644,-257.0,8.0,9.0,0
2645,-259.0,9.0,10.0,0
2646,-257.0,9.0,7.0,0
2647,-258.0,6.0,9.0,0
2648,-260.0,9.0,5.0,0
2649,-256.0,8.0,9.0,0
2650,-255.0,8.0,7.0,0
2651,-257.0,8.0,7.0,0
2652,-259.0,9.0,10.0,0
2653,-256.0,8.0,8.0,0
2654,-258.0,8.0,6.0,0
2655,-256.0,12.0,21.0,0
2656,-259.0,7.0,8.0,0
2657,-258.0,9.0,6.0,0
2658,-256.0,6.0,10.0,0
2659,-258.0,10.0,7.0,0
2660,-256.0,9.0,7.0,0
2661,-257.0,8.0,11.0,0
2662,-257.0,8.0,11.0,0
2663,-259.0,7.0,9.0,0
2664,-258.0,3.0,5.0,0
2665,-255.0,8.0,9.0,0
2666,-257.0,8.0,5.0,0
2667,-262.0,9.0,5.0,0
2668,-260.0,9.0,9.0,0
2669,-259.0,8.0,9.0,0
2670,-256.0,9.0,7.0,0
2671,-258.0,8.0,9.0,0
2672,-258.0,10.0,7.0,0
2673,-255.0,8.0,9.0,0
2674,-256.0,6.0,9.0,0
2675,-258.0,8.0,6.0,0
2676,-260.0,8.0,-1.0,0
2677,-257.0,8.0,9.0,0
2678,-259.0,8.0,6.0,0
2679,-258.0,8.0,8.0,0
2680,-259.0,8.0,7.0,0
2681,-260.0,9.0,7.0,0
2682,-256.0,5.0,8.0,0
2683,-259.0,9.0,7.0,0
2684,-258.0,8.0,8.0,0
2685,-257.0,9.0,7.0,0
2686,-257.0,8.0,8.0,0
2687,-261.0,8.0,6.0,0
2688,-257.0,7.0,7.0,0
2689,-258.0,9.0,8.0,0
2690,-258.0,8.0,11.0,0
2691,-259.0,8.0,7.0,0
2692,-259.0,8.0,7.0,0
2693,-257.0,9.0,10.0,0
2694,-259.0,8.0,12.0,0
2695,-256.0,6.0,9.0,0
2696,-258.0,6.0,5.0,0
2697,-258.0,8.0,4.0,0
2698,-259.0,4.0,8.0,0
2699,-258.0,8.0,7.0,0
2700,-257.0,8.0,6.0,0
2701,-261.0,6.0,9.0,0
2702,-255.0,8.0,9.0,0
2703,-258.0,9.0,8.0,0
2704,-260.0,9.0,8.0,0
2705,-258.0,5.0,9.0,0
2706,-257.0,8.0,5.0,0
2707,-256.0,7.0,8.0,0
2708,-257.0,6.0,6.0,0
2709,-255.0,8.0,7.0,0
2710,-257.0,9.0,7.0,0
2711,-261.0,12.0,10.0,0
2712,-256.0,8.0,11.0,0
2713,-259.0,11.0,9.0,0
2714,-257.0,9.0,4.0,0
2715,-259.0,7.0,10.0,0
2716,-256.0,8.0,10.0,0
2717,-257.0,8.0,10.0,0
2718,-258.0,8.0,7.0,0
2719,-259.0,15.0,3.0,0
2720,-258.0,8.0,8.0,0
2721,-257.0,8.0,14.0,0
2722,-260.0,9.0,8.0,0
2723,-259.0,8.0,6.0,0
2724,-259.0,8.0,5.0,0
2725,-260.0,11.0,10.0,0
2726,-263.0,8.0,8.0,0
2727,-258.0,9.0,5.0,0
2728,-257.0,9.0,9.0,0
2729,-258.0,8.0,5.0,0
2730,-258.0,8.0,8.0,0
2731,-259.0,9.0,10.0,0
2732,-260.0,7.0,9.0,0
2733,-259.0,11.0,11.0,0
2734,-257.0,8.0,7.0,0
2735,-261.0,8.0,9.0,0
2736,-256.0,9.0,5.0,0
2737,-258.0,9.0,7.0,0
2738,-258.0,9.0,8.0,0
2739,-256.0,9.0,9.0,0
2740,-257.0,5.0,19.0,0
2741,-260.0,9.0,9.0,0
2742,-258.0,6.0,5.0,0
2743,-257.0,8.0,7.0,0
2744,-258.0,9.0,6.0,0
2745,-259.0,8.0,7.0,0
2746,-260.0,8.0,4.0,0
2747,-257.0,8.0,5.0,0
2748,-259.0,9.0,8.0,0
2749,-258.0,10.0,9.0,0
2750,-257.0,8.0,8.0,0
2751,-259.0,5.0,6.0,0
2752,-256.0,8.0,7.0,0
2753,-257.0,8.0,5.0,0
2754,-256.0,8.0,1.0,0
2755,-259.0,9.0,8.0,0
2756,-259.0,8.0,9.0,0
2757,-258.0,8.0,5.0,0
2758,-258.0,5.0,5.0,0
2759,-259.0,8.0,8.0,0
2760,-258.0,9.0,10.0,0
2761,-256.0,8.0,7.0,0
2762,-263.0,14.0,9.0,0
2763,-259.0,9.0,6.0,0
2764,-259.0,10.0,10.0,0
2765,-258.0,8.0,5.0,0
2766,-257.0,8.0,9.0,0
2767,-260.0,8.0,9.0,0
2768,-256.0,8.0,10.0,0
2769,-258.0,8.0,11.0,0
2770,-260.0,6.0,10.0,0
2771,-257.0,9.0,5.0,0
2772,-258.0,10.0,10.0,0
2773,-256.0,8.0,10.0,0
2774,-258.0,9.0,11.0,0
2775,-258.0,9.0,11.0,0
2776,-259.0,8.0,9.0,0
2777,-259.0,6.0,9.0,0
2778,-257.0,8.0,9.0,0
2779,-257.0,8.0,9.0,0
2780,-258.0,8.0,7.0,0
2781,-256.0,9.0,8.0,0
2782,-256.0,9.0,7.0,0
2783,-264.0,10.0,10.0,0
2784,-258.0,8.0,11.0,0
2785,-257.0,9.0,10.0,0
2786,-260.0,10.0,9.0,0
2787,-259.0,8.0,8.0,0
2788,-258.0,8.0,6.0,0
2789,-258.0,11.0,6.0,0
2790,-259.0,9.0,6.0,0
2791,-257.0,8.0,8.0,0
2792,-258.0,10.0,10.0,0
2793,-256.0,6.0,6.0,0
2794,-259.0,10.0,6.0,0
2795,-258.0,8.0,13.0,0
2796,-258.0,8.0,9.0,0
2797,-262.0,9.0,9.0,0
2798,-260.0,8.0,7.0,0
2799,-258.0,8.0,8.0,0
2800,-258.0,9.0,9.0,0
2801,-257.0,8.0,10.0,0
2802,-259.0,8.0,9.0,0
2803,-257.0,10.0,7.0,0
2804,-261.0,10.0,7.0,0
2805,-258.0,8.0,6.0,0
2806,-257.0,8.0,8.0,0
2807,-258.0,8.0,8.0,0
2808,-259.0,6.0,8.0,0
2809,-257.0,8.0,7.0,0
2810,-260.0,8.0,5.0,0
2811,-260.0,8.0,8.0,0
2812,-258.0,8.0,10.0,0
2813,-258.0,10.0,4.0,0
2814,-259.0,10.0,8.0,0
2815,-257.0,8.0,9.0,0
2816,-257.0,6.0,8.0,0
2817,-260.0,8.0,3.0,0
2818,-258.0,9.0,7.0,0
2819,-258.0,6.0,8.0,0
2820,-256.0,5.0,7.0,0
2821,-258.0,8.0,10.0,0
2822,-259.0,8.0,10.0,0
2823,-260.0,9.0,8.0,0
2824,-256.0,7.0,11.0,0
2825,-258.0,9.0,10.0,0
2826,-265.0,10.0,3.0,0
2827,-256.0,8.0,6.0,0
2828,-258.0,7.0,12.0,0
2829,-258.0,8.0,7.0,0
2830,-259.0,8.0,6.0,0
2831,-258.0,8.0,8.0,0
2832,-257.0,7.0,10.0,0
2833,-257.0,8.0,10.0,0
2834,-257.0,6.0,7.0,0
2835,-256.0,7.0,10.0,0
2836,-258.0,10.0,8.0,0
2837,-255.0,6.0,11.0,0
2838,-256.0,8.0,15.0,0
2839,-260.0,10.0,11.0,0
2840,-257.0,11.0,13.0,0
2841,-257.0,8.0,11.0,0
2842,-257.0,8.0,12.0,0
2843,-257.0,6.0,9.0,0
2844,-261.0,8.0,13.0,0
2845,-258.0,9.0,9.0,0
2846,-256.0,8.0,11.0,0
2847,-254.0,8.0,6.0,0
2848,-257.0,8.0,9.0,0
2849,-259.0,10.0,10.0,0
2850,-257.0,7.0,9.0,0
2851,-256.0,8.0,7.0,0
2852,-258.0,8.0,10.0,0
2853,-257.0,9.0,11.0,0
2854,-260.0,8.0,11.0,0
2855,-260.0,7.0,11.0,0
2856,-259.0,13.0,10.0,0
2857,-259.0,9.0,6.0,0
2858,-257.0,9.0,9.0,0
2859,-261.0,11.0,12.0,0
2860,-260.0,9.0,10.0,0
2861,-260.0,9.0,14.0,0
2862,-258.0,7.0,12.0,0
2863,-259.0,9.0,7.0,0
2864,-260.0,8.0,12.0,0
2865,-259.0,10.0,9.0,0
2866,-259.0,7.0,9.0,0
2867,-258.0,9.0,7.0,0
2868,-261.0,10.0,10.0,0
2869,-256.0,8.0,10.0,0
2870,-258.0,7.0,6.0,0
2871,-257.0,10.0,8.0,0
2872,-257.0,8.0,8.0,0
2873,-257.0,6.0,7.0,0
2874,-258.0,9.0,7.0,0
2875,-256.0,8.0,12.0,0
2876,-258.0,9.0,11.0,0
2877,-260.0,9.0,12.0,0
2878,-256.0,9.0,6.0,0
2879,-255.0,6.0,6.0,0
2880,-259.0,7.0,7.0,0
2881,-258.0,9.0,10.0,0
2882,-256.0,9.0,5.0,0
2883,-258.0,10.0,10.0,0
2884,-255.0,8.0,12.0,0
2885,-261.0,8.0,9.0,0
2886,-258.0,8.0,10.0,0
2887,-257.0,8.0,12.0,0
2888,-257.0,9.0,9.0,0
2889,-259.0,8.0,9.0,0
2890,-261.0,12.0,11.0,0
2891,-247.0,5.0,20.0,0
2892,-258.0,8.0,12.0,0
2893,-259.0,9.0,13.0,0
2894,-260.0,9.0,8.0,0
2895,-256.0,11.0,10.0,0
2896,-259.0,8.0,8.0,0
2897,-258.0,7.0,12.0,0
2898,-257.0,7.0,10.0,0
2899,-258.0,6.0,5.0,0
2900,-260.0,5.0,10.0,0
2901,-257.0,8.0,9.0,0
2902,-260.0,8.0,10.0,0
2903,-259.0,8.0,13.0,0
2904,-257.0,10.0,9.0,0
2905,-256.0,8.0,10.0,0
2906,-259.0,9.0,10.0,0
2907,-257.0,8.0,9.0,0
2908,-260.0,9.0,9.0,0
2909,-258.0,9.0,14.0,0
2910,-256.0,6.0,7.0,0
2911,-250.0,8.0,14.0,0
2912,-256.0,8.0,8.0,0
2913,-259.0,9.0,7.0,0
2914,-259.0,9.0,15.0,0
2915,-258.0,8.0,13.0,0
2916,-258.0,8.0,9.0,0
2917,-255.0,8.0,14.0,0
2918,-257.0,8.0,12.0,0
2919,-258.0,9.0,13.0,0
2920,-258.0,8.0,11.0,0
2921,-258.0,6.0,7.0,0
2922,-257.0,8.0,6.0,0
2923,-256.0,6.0,11.0,0
2924,-258.0,8.0,9.0,0
2925,-256.0,8.0,9.0,0
2926,-259.0,9.0,13.0,0
2927,-259.0,8.0,13.0,0
2928,-259.0,9.0,11.0,0
2929,-262.0,10.0,9.0,0
2930,-256.0,8.0,10.0,0
2931,-257.0,8.0,9.0,0
2932,-260.0,10.0,2.0,0
2933,-257.0,9.0,12.0,0
2934,-261.0,9.0,7.0,0
2935,-257.0,8.0,11.0,0
2936,-258.0,8.0,12.0,0
2937,-258.0,9.0,13.0,0
2938,-258.0,9.0,11.0,0
2939,-259.0,8.0,9.0,0
2940,-257.0,9.0,10.0,0
2941,-256.0,9.0,10.0,0
2942,-257.0,8.0,13.0,0
2943,-259.0,9.0,14.0,0
2944,-258.0,10.0,13.0,0
2945,-257.0,9.0,11.0,0
2946,-260.0,8.0,12.0,0
2947,-258.0,8.0,12.0,0
2948,-258.0,8.0,11.0,0
2949,-258.0,10.0,10.0,0
2950,-257.0,8.0,12.0,0
2951,-259.0,10.0,9.0,0
2952,-257.0,8.0,9.0,0
2953,-259.0,8.0,9.0,0
2954,-256.0,7.0,16.0,0
2955,-258.0,9.0,8.0,0
2956,-259.0,8.0,13.0,0
2957,-256.0,5.0,11.0,0
2958,-255.0,6.0,12.0,0
2959,-257.0,9.0,12.0,0
2960,-256.0,7.0,12.0,0
2961,-256.0,8.0,14.0,0
2962,-256.0,8.0,12.0,0
2963,-257.0,9.0,12.0,0
2964,-257.0,9.0,9.0,0
2965,-258.0,10.0,9.0,0
2966,-256.0,6.0,10.0,0
2967,-259.0,8.0,10.0,0
2968,-255.0,8.0,14.0,0
2969,-258.0,8.0,10.0,0
2970,-256.0,6.0,9.0,0
2971,-258.0,8.0,9.0,0
2972,-257.0,7.0,10.0,0
2973,-258.0,8.0,13.0,0
2974,-259.0,5.0,10.0,0
2975,-257.0,5.0,15.0,0
2976,-257.0,10.0,10.0,0
2977,-258.0,8.0,11.0,0
2978,-257.0,9.0,12.0,0
2979,-258.0,8.0,16.0,0
2980,-257.0,7.0,12.0,0
2981,-259.0,8.0,12.0,0
2982,-256.0,6.0,15.0,0
2983,-256.0,8.0,14.0,0
2984,-256.0,8.0,9.0,0
2985,-258.0,7.0,15.0,0
2986,-257.0,8.0,14.0,0
2987,-258.0,8.0,13.0,0
2988,-258.0,8.0,9.0,0
2989,-256.0,9.0,13.0,0
2990,-258.0,8.0,16.0,0
2991,-259.0,8.0,13.0,0
2992,-257.0,8.0,15.0,0
2993,-260.0,9.0,15.0,0
2994,-258.0,7.0,18.0,0
2995,-258.0,8.0,12.0,0
2996,-263.0,5.0,8.0,0
2997,-257.0,8.0,11.0,0
2998,-259.0,8.0,10.0,0
2999,-258.0,9.0,10.0,0
