,accelerometer_x,accelerometer_y,accelerometer_z,fall
0,2.0,-250.0,9.0,0
1,3.0,-250.0,10.0,0
2,2.0,-249.0,14.0,0
3,3.0,-249.0,10.0,0
4,2.0,-252.0,9.0,0
5,6.0,-251.0,11.0,0
6,0.0,-251.0,10.0,0
7,2.0,-251.0,11.0,0
8,1.0,-249.0,10.0,0
9,1.0,-252.0,9.0,0
10,-1.0,-250.0,8.0,0
11,3.0,-251.0,7.0,0
12,1.0,-251.0,9.0,0
13,1.0,-251.0,10.0,0
14,1.0,-253.0,5.0,0
15,-2.0,-252.0,8.0,0
16,4.0,-254.0,9.0,0
17,2.0,-253.0,9.0,0
18,2.0,-253.0,10.0,0
19,3.0,-253.0,12.0,0
20,4.0,-253.0,10.0,0
21,3.0,-257.0,11.0,0
22,5.0,-257.0,12.0,0
23,2.0,-255.0,17.0,0
24,4.0,-255.0,11.0,0
25,2.0,-255.0,12.0,0
26,-2.0,-258.0,15.0,0
27,2.0,-255.0,9.0,0
28,2.0,-251.0,11.0,0
29,1.0,-251.0,10.0,0
30,-1.0,-249.0,9.0,0
31,-1.0,-251.0,16.0,0
32,0.0,-249.0,16.0,0
33,-4.0,-250.0,17.0,0
34,-3.0,-250.0,14.0,0
35,-1.0,-251.0,19.0,0
36,-3.0,-252.0,15.0,0
37,0.0,-253.0,14.0,0
38,-3.0,-251.0,17.0,0
39,-4.0,-251.0,14.0,0
40,-4.0,-250.0,15.0,0
41,-2.0,-254.0,12.0,0
42,1.0,-254.0,13.0,0
43,-1.0,-255.0,11.0,0
44,-1.0,-254.0,13.0,0
45,2.0,-253.0,8.0,0
46,-1.0,-255.0,11.0,0
47,3.0,-255.0,9.0,0
48,-2.0,-250.0,13.0,0
49,-5.0,-251.0,8.0,0
50,-6.0,-250.0,5.0,0
51,-4.0,-250.0,4.0,0
52,-6.0,-248.0,2.0,0
53,-5.0,-248.0,2.0,0
54,-9.0,-247.0,2.0,0
55,-9.0,-241.0,4.0,0
56,-8.0,-238.0,-3.0,0
57,-11.0,-235.0,0.0,0
58,-13.0,-236.0,4.0,0
59,-10.0,-234.0,1.0,0
60,-7.0,-235.0,2.0,0
61,-7.0,-233.0,7.0,0
62,-6.0,-236.0,7.0,0
63,-4.0,-239.0,7.0,0
64,0.0,-236.0,10.0,0
65,2.0,-234.0,9.0,0
66,7.0,-233.0,9.0,0
67,9.0,-235.0,11.0,0
68,11.0,-234.0,8.0,0
69,12.0,-239.0,7.0,0
70,11.0,-240.0,11.0,0
71,18.0,-240.0,10.0,0
72,18.0,-244.0,9.0,0
73,24.0,-249.0,11.0,0
74,22.0,-250.0,10.0,0
75,30.0,-252.0,11.0,0
76,29.0,-248.0,6.0,0
77,28.0,-255.0,7.0,0
78,35.0,-259.0,6.0,0
79,32.0,-254.0,4.0,0
80,36.0,-253.0,-3.0,0
81,39.0,-242.0,-12.0,0
82,43.0,-241.0,-20.0,0
83,44.0,-240.0,-21.0,0
84,48.0,-238.0,-14.0,0
85,49.0,-237.0,-24.0,0
86,52.0,-229.0,-18.0,0
87,59.0,-228.0,-14.0,0
88,58.0,-223.0,-12.0,0
89,58.0,-221.0,-5.0,0
90,61.0,-210.0,-3.0,0
91,63.0,-206.0,6.0,0
92,55.0,-199.0,8.0,0
93,47.0,-196.0,11.0,0
94,38.0,-193.0,13.0,0
95,28.0,-194.0,15.0,0
96,17.0,-201.0,17.0,0
97,8.0,-206.0,22.0,0
98,0.0,-212.0,29.0,0
99,-4.0,-222.0,26.0,0
100,-7.0,-229.0,29.0,0
101,-13.0,-242.0,29.0,0
102,-16.0,-251.0,29.0,0
103,-22.0,-262.0,33.0,0
104,-29.0,-269.0,31.0,0
105,-28.0,-279.0,33.0,0
106,-31.0,-289.0,29.0,0
107,-22.0,-305.0,39.0,0
108,-21.0,-311.0,43.0,0
109,-17.0,-312.0,45.0,0
110,-19.0,-318.0,54.0,0
111,-16.0,-319.0,56.0,0
112,-15.0,-322.0,56.0,0
113,-16.0,-318.0,55.0,0
114,-10.0,-312.0,55.0,0
115,-2.0,-302.0,48.0,0
116,8.0,-291.0,51.0,0
117,13.0,-284.0,50.0,0
118,22.0,-275.0,47.0,0
119,24.0,-260.0,48.0,0
120,30.0,-252.0,47.0,0
121,19.0,-247.0,50.0,0
122,24.0,-233.0,41.0,0
123,31.0,-225.0,39.0,0
124,36.0,-221.0,42.0,0
125,39.0,-215.0,39.0,0
126,42.0,-208.0,40.0,0
127,42.0,-196.0,33.0,0
128,45.0,-192.0,36.0,0
129,42.0,-188.0,34.0,0
130,33.0,-186.0,35.0,0
131,23.0,-188.0,28.0,0
132,18.0,-186.0,28.0,0
133,22.0,-192.0,30.0,0
134,37.0,-190.0,26.0,0
135,38.0,-193.0,24.0,0
136,43.0,-191.0,35.0,0
137,40.0,-196.0,41.0,0
138,44.0,-198.0,46.0,0
139,37.0,-199.0,44.0,0
140,37.0,-205.0,45.0,0
141,37.0,-212.0,43.0,0
142,35.0,-219.0,46.0,0
143,36.0,-225.0,40.0,0
144,39.0,-232.0,38.0,0
145,41.0,-243.0,38.0,0
146,46.0,-246.0,40.0,0
147,48.0,-251.0,43.0,0
148,50.0,-255.0,44.0,0
149,53.0,-262.0,46.0,0
150,61.0,-263.0,54.0,0
151,65.0,-267.0,55.0,0
152,63.0,-270.0,58.0,0
153,63.0,-266.0,64.0,0
154,66.0,-270.0,65.0,0
155,69.0,-274.0,68.0,0
156,70.0,-275.0,69.0,0
157,72.0,-276.0,74.0,0
158,68.0,-269.0,66.0,0
159,73.0,-264.0,62.0,0
160,70.0,-263.0,59.0,0
161,67.0,-256.0,60.0,0
162,70.0,-255.0,61.0,0
163,65.0,-248.0,58.0,0
164,63.0,-249.0,56.0,0
165,63.0,-248.0,63.0,0
166,59.0,-239.0,62.0,0
167,57.0,-237.0,57.0,0
168,55.0,-232.0,52.0,0
169,54.0,-235.0,57.0,0
170,52.0,-231.0,49.0,0
171,51.0,-231.0,41.0,0
172,53.0,-232.0,31.0,0
173,52.0,-233.0,17.0,0
174,56.0,-239.0,8.0,0
175,65.0,-245.0,-6.0,0
176,68.0,-251.0,-11.0,0
177,69.0,-263.0,-5.0,0
178,73.0,-270.0,4.0,0
179,76.0,-287.0,16.0,0
180,81.0,-294.0,33.0,0
181,89.0,-308.0,53.0,0
182,98.0,-315.0,70.0,0
183,98.0,-316.0,79.0,0
184,105.0,-320.0,86.0,0
185,106.0,-326.0,86.0,0
186,101.0,-326.0,80.0,0
187,90.0,-318.0,72.0,0
188,77.0,-313.0,60.0,0
189,65.0,-312.0,40.0,0
190,44.0,-309.0,19.0,0
191,26.0,-299.0,5.0,0
192,14.0,-293.0,-18.0,0
193,3.0,-293.0,-33.0,0
194,0.0,-288.0,-44.0,0
195,4.0,-283.0,-54.0,0
196,7.0,-285.0,-52.0,0
197,9.0,-293.0,-39.0,0
198,3.0,-292.0,-32.0,0
199,3.0,-302.0,-38.0,0
200,2.0,-304.0,-35.0,0
201,3.0,-297.0,-34.0,0
202,0.0,-297.0,-41.0,0
203,-2.0,-289.0,-37.0,0
204,-6.0,-285.0,-44.0,0
205,-14.0,-283.0,-39.0,0
206,-16.0,-278.0,-37.0,0
207,-22.0,-273.0,-35.0,0
208,-23.0,-271.0,-30.0,0
209,-25.0,-265.0,-34.0,0
210,-23.0,-262.0,-28.0,0
211,-20.0,-258.0,-21.0,0
212,-21.0,-254.0,-20.0,0
213,-19.0,-252.0,-21.0,0
214,-18.0,-251.0,-18.0,0
215,-17.0,-250.0,-11.0,0
216,-16.0,-250.0,-5.0,0
217,-16.0,-253.0,1.0,0
218,-14.0,-254.0,5.0,0
219,-17.0,-251.0,9.0,0
220,-16.0,-248.0,9.0,0
221,-16.0,-248.0,9.0,0
222,-20.0,-246.0,10.0,0
223,-23.0,-246.0,16.0,0
224,-26.0,-246.0,12.0,0
225,-29.0,-243.0,11.0,0
226,-32.0,-240.0,10.0,0
227,-32.0,-240.0,8.0,0
228,-35.0,-237.0,9.0,0
229,-38.0,-233.0,3.0,0
230,-33.0,-228.0,7.0,0
231,-32.0,-226.0,1.0,0
232,-29.0,-218.0,-8.0,0
233,-28.0,-216.0,-11.0,0
234,-34.0,-210.0,-4.0,0
235,-32.0,-205.0,-7.0,0
236,-23.0,-197.0,-7.0,0
237,-20.0,-192.0,-5.0,0
238,-16.0,-192.0,-2.0,0
239,-15.0,-190.0,-1.0,0
240,-10.0,-189.0,-1.0,0
241,-8.0,-189.0,2.0,0
242,-12.0,-185.0,0.0,0
243,-13.0,-186.0,-3.0,0
244,-10.0,-184.0,-1.0,0
245,-10.0,-183.0,-1.0,0
246,-7.0,-184.0,5.0,0
247,-4.0,-185.0,0.0,0
248,0.0,-193.0,9.0,0
249,-6.0,-195.0,8.0,0
250,-8.0,-195.0,11.0,0
251,-8.0,-197.0,9.0,0
252,-6.0,-196.0,6.0,0
253,-10.0,-199.0,6.0,0
254,-6.0,-201.0,8.0,0
255,1.0,-210.0,10.0,0
256,4.0,-214.0,16.0,0
257,2.0,-220.0,16.0,0
258,4.0,-221.0,21.0,0
259,7.0,-222.0,20.0,0
260,8.0,-228.0,23.0,0
261,11.0,-227.0,30.0,0
262,16.0,-230.0,36.0,0
263,20.0,-235.0,39.0,0
264,20.0,-232.0,45.0,0
265,19.0,-231.0,54.0,0
266,21.0,-233.0,58.0,0
267,23.0,-231.0,57.0,0
268,25.0,-230.0,61.0,0
269,25.0,-226.0,64.0,0
270,24.0,-226.0,66.0,0
271,19.0,-222.0,69.0,0
272,22.0,-228.0,70.0,0
273,20.0,-233.0,71.0,0
274,18.0,-240.0,72.0,0
275,10.0,-244.0,74.0,0
276,4.0,-248.0,79.0,0
277,-7.0,-248.0,74.0,0
278,-13.0,-248.0,75.0,0
279,-19.0,-254.0,73.0,0
280,-29.0,-257.0,74.0,0
281,-40.0,-261.0,70.0,0
282,-49.0,-267.0,70.0,0
283,-56.0,-270.0,72.0,0
284,-60.0,-273.0,71.0,0
285,-67.0,-276.0,70.0,0
286,-68.0,-275.0,85.0,0
287,-76.0,-274.0,81.0,0
288,-79.0,-277.0,90.0,0
289,-82.0,-275.0,98.0,0
290,-85.0,-276.0,106.0,0
291,-85.0,-274.0,113.0,0
292,-80.0,-269.0,114.0,0
293,-77.0,-265.0,114.0,0
294,-73.0,-266.0,110.0,0
295,-64.0,-270.0,97.0,0
296,-55.0,-276.0,75.0,0
297,-51.0,-286.0,56.0,0
298,-48.0,-291.0,30.0,0
299,-46.0,-306.0,2.0,0
300,-49.0,-322.0,-22.0,0
301,-47.0,-347.0,-41.0,0
302,-44.0,-372.0,-39.0,0
303,-35.0,-396.0,-33.0,0
304,-34.0,-411.0,-34.0,0
305,-30.0,-423.0,-24.0,0
306,-36.0,-424.0,-19.0,0
307,-39.0,-412.0,-20.0,0
308,-46.0,-400.0,-17.0,0
309,-45.0,-386.0,-31.0,0
310,-40.0,-368.0,-50.0,0
311,-29.0,-350.0,-59.0,0
312,-17.0,-329.0,-78.0,0
313,-5.0,-310.0,-88.0,0
314,4.0,-281.0,-90.0,0
315,15.0,-255.0,-90.0,0
316,23.0,-228.0,-91.0,0
317,28.0,-210.0,-82.0,0
318,37.0,-189.0,-71.0,0
319,35.0,-180.0,-61.0,0
320,38.0,-177.0,-50.0,0
321,36.0,-183.0,-42.0,0
322,31.0,-191.0,-26.0,0
323,24.0,-207.0,-17.0,0
324,14.0,-219.0,-6.0,0
325,2.0,-232.0,3.0,0
326,-11.0,-244.0,10.0,0
327,-16.0,-255.0,13.0,0
328,-37.0,-265.0,21.0,0
329,-46.0,-269.0,21.0,0
330,-58.0,-288.0,22.0,0
331,-64.0,-297.0,23.0,0
332,-71.0,-301.0,20.0,0
333,-77.0,-307.0,16.0,0
334,-81.0,-306.0,12.0,0
335,-81.0,-308.0,2.0,0
336,-82.0,-302.0,-3.0,0
337,-80.0,-295.0,-4.0,0
338,-79.0,-287.0,-8.0,0
339,-72.0,-279.0,-10.0,0
340,-64.0,-266.0,-13.0,0
341,-56.0,-255.0,-10.0,0
342,-50.0,-242.0,-14.0,0
343,-42.0,-224.0,-10.0,0
344,-33.0,-213.0,-13.0,0
345,-26.0,-196.0,-10.0,0
346,-16.0,-187.0,-11.0,0
347,-9.0,-178.0,-9.0,0
348,4.0,-167.0,-7.0,0
349,8.0,-156.0,-5.0,0
350,12.0,-147.0,-2.0,0
351,17.0,-145.0,-4.0,0
352,23.0,-143.0,0.0,0
353,28.0,-141.0,4.0,0
354,33.0,-143.0,5.0,0
355,34.0,-146.0,8.0,0
356,31.0,-146.0,9.0,0
357,35.0,-148.0,8.0,0
358,30.0,-150.0,11.0,0
359,25.0,-153.0,15.0,0
360,25.0,-159.0,16.0,0
361,22.0,-166.0,18.0,0
362,25.0,-174.0,19.0,0
363,26.0,-182.0,12.0,0
364,23.0,-182.0,12.0,0
365,25.0,-185.0,13.0,0
366,26.0,-193.0,18.0,0
367,28.0,-203.0,21.0,0
368,25.0,-210.0,26.0,0
369,18.0,-215.0,29.0,0
370,16.0,-215.0,34.0,0
371,16.0,-221.0,38.0,0
372,21.0,-222.0,44.0,0
373,17.0,-224.0,50.0,0
374,9.0,-224.0,58.0,0
375,7.0,-225.0,62.0,0
376,4.0,-227.0,70.0,0
377,-1.0,-223.0,73.0,0
378,-1.0,-224.0,75.0,0
379,-3.0,-223.0,76.0,0
380,-3.0,-228.0,70.0,0
381,-2.0,-228.0,68.0,0
382,4.0,-226.0,67.0,0
383,3.0,-229.0,57.0,0
384,10.0,-228.0,51.0,0
385,10.0,-224.0,45.0,0
386,15.0,-223.0,36.0,0
387,20.0,-219.0,36.0,0
388,25.0,-217.0,32.0,0
389,32.0,-217.0,32.0,0
390,38.0,-223.0,39.0,0
391,47.0,-234.0,49.0,0
392,52.0,-247.0,67.0,0
393,57.0,-263.0,77.0,0
394,66.0,-278.0,98.0,0
395,73.0,-289.0,107.0,0
396,91.0,-303.0,125.0,0
397,110.0,-312.0,133.0,0
398,86.0,-309.0,137.0,0
399,70.0,-307.0,140.0,0
400,85.0,-299.0,136.0,0
401,86.0,-285.0,133.0,0
402,96.0,-271.0,127.0,0
403,87.0,-262.0,132.0,0
404,88.0,-253.0,122.0,0
405,82.0,-248.0,114.0,0
406,58.0,-253.0,107.0,0
407,40.0,-262.0,97.0,0
408,30.0,-275.0,77.0,0
409,15.0,-287.0,63.0,0
410,12.0,-305.0,44.0,0
411,5.0,-322.0,30.0,0
412,-2.0,-342.0,13.0,0
413,-5.0,-360.0,12.0,0
414,-10.0,-375.0,6.0,0
415,-2.0,-386.0,5.0,0
416,-5.0,-391.0,-2.0,0
417,-1.0,-387.0,5.0,0
418,0.0,-381.0,0.0,0
419,1.0,-373.0,-9.0,0
420,1.0,-354.0,-32.0,0
421,4.0,-334.0,-52.0,0
422,3.0,-317.0,-59.0,0
423,0.0,-301.0,-72.0,0
424,-5.0,-286.0,-74.0,0
425,-7.0,-273.0,-72.0,0
426,-14.0,-255.0,-68.0,0
427,-18.0,-245.0,-65.0,0
428,-29.0,-227.0,-63.0,0
429,-35.0,-212.0,-59.0,0
430,-41.0,-204.0,-56.0,0
431,-43.0,-197.0,-53.0,0
432,-49.0,-194.0,-49.0,0
433,-49.0,-193.0,-36.0,0
434,-53.0,-196.0,-26.0,0
435,-59.0,-197.0,-18.0,0
436,-57.0,-206.0,-11.0,0
437,-62.0,-215.0,-8.0,0
438,-54.0,-220.0,-12.0,0
439,-47.0,-231.0,-12.0,0
440,-36.0,-245.0,-13.0,0
441,-30.0,-255.0,-9.0,0
442,-27.0,-261.0,-10.0,0
443,-20.0,-269.0,-13.0,0
444,-15.0,-274.0,-11.0,0
445,-8.0,-278.0,-10.0,0
446,0.0,-286.0,-2.0,0
447,4.0,-285.0,2.0,0
448,14.0,-289.0,8.0,0
449,14.0,-285.0,10.0,0
450,21.0,-280.0,9.0,0
451,23.0,-272.0,1.0,0
452,23.0,-259.0,1.0,0
453,23.0,-252.0,-3.0,0
454,21.0,-244.0,-6.0,0
455,21.0,-236.0,-9.0,0
456,13.0,-222.0,-9.0,0
457,16.0,-218.0,-9.0,0
458,23.0,-203.0,-6.0,0
459,26.0,-193.0,0.0,0
460,29.0,-192.0,-9.0,0
461,22.0,-184.0,-13.0,0
462,20.0,-174.0,-8.0,0
463,13.0,-163.0,-11.0,0
464,13.0,-161.0,-8.0,0
465,9.0,-160.0,-8.0,0
466,6.0,-161.0,0.0,0
467,1.0,-158.0,-3.0,0
468,-4.0,-162.0,1.0,0
469,-10.0,-165.0,5.0,0
470,-16.0,-165.0,8.0,0
471,-17.0,-170.0,10.0,0
472,-23.0,-178.0,19.0,0
473,-27.0,-184.0,17.0,0
474,-30.0,-187.0,21.0,0
475,-30.0,-197.0,26.0,0
476,-28.0,-204.0,32.0,0
477,-29.0,-208.0,38.0,0
478,-27.0,-215.0,44.0,0
479,-24.0,-217.0,45.0,0
480,-20.0,-226.0,55.0,0
481,-16.0,-224.0,55.0,0
482,-16.0,-224.0,60.0,0
483,-11.0,-228.0,60.0,0
484,-4.0,-227.0,60.0,0
485,2.0,-222.0,61.0,0
486,8.0,-224.0,66.0,0
487,17.0,-226.0,61.0,0
488,22.0,-223.0,59.0,0
489,26.0,-225.0,59.0,0
490,32.0,-233.0,53.0,0
491,31.0,-229.0,57.0,0
492,24.0,-233.0,59.0,0
493,20.0,-233.0,61.0,0
494,15.0,-237.0,56.0,0
495,5.0,-238.0,59.0,0
496,-7.0,-240.0,58.0,0
497,-13.0,-247.0,54.0,0
498,-19.0,-249.0,56.0,0
499,-30.0,-253.0,58.0,0
500,-40.0,-256.0,64.0,0
501,-53.0,-265.0,69.0,0
502,-60.0,-271.0,73.0,0
503,-70.0,-277.0,81.0,0
504,-79.0,-286.0,89.0,0
505,-85.0,-291.0,100.0,0
506,-83.0,-299.0,101.0,0
507,-89.0,-301.0,105.0,0
508,-81.0,-301.0,105.0,0
509,-74.0,-304.0,106.0,0
510,-63.0,-294.0,105.0,0
511,-51.0,-292.0,104.0,0
512,-33.0,-286.0,98.0,0
513,-17.0,-285.0,89.0,0
514,-8.0,-288.0,76.0,0
515,-5.0,-286.0,55.0,0
516,-9.0,-292.0,31.0,0
517,-19.0,-303.0,8.0,0
518,-28.0,-325.0,-10.0,0
519,-27.0,-351.0,-28.0,0
520,-41.0,-376.0,-39.0,0
521,-48.0,-392.0,-48.0,0
522,-62.0,-401.0,-51.0,0
523,-68.0,-403.0,-57.0,0
524,-69.0,-401.0,-67.0,0
525,-60.0,-387.0,-64.0,0
526,-53.0,-372.0,-63.0,0
527,-36.0,-352.0,-64.0,0
528,-24.0,-327.0,-62.0,0
529,-8.0,-306.0,-53.0,0
530,9.0,-283.0,-48.0,0
531,21.0,-262.0,-49.0,0
532,36.0,-235.0,-50.0,0
533,48.0,-215.0,-54.0,0
534,54.0,-195.0,-55.0,0
535,57.0,-185.0,-53.0,0
536,53.0,-184.0,-49.0,0
537,52.0,-191.0,-41.0,0
538,53.0,-197.0,-37.0,0
539,51.0,-212.0,-28.0,0
540,44.0,-232.0,-15.0,0
541,38.0,-247.0,-2.0,0
542,30.0,-262.0,8.0,0
543,16.0,-277.0,16.0,0
544,5.0,-291.0,19.0,0
545,1.0,-306.0,25.0,0
546,-9.0,-314.0,25.0,0
547,-15.0,-319.0,20.0,0
548,-20.0,-327.0,15.0,0
549,-26.0,-326.0,9.0,0
550,-34.0,-320.0,3.0,0
551,-43.0,-322.0,-2.0,0
552,-51.0,-314.0,-5.0,0
553,-56.0,-304.0,-9.0,0
554,-62.0,-286.0,-9.0,0
555,-68.0,-267.0,-16.0,0
556,-73.0,-247.0,-17.0,0
557,-68.0,-230.0,-21.0,0
558,-65.0,-218.0,-17.0,0
559,-69.0,-203.0,-14.0,0
560,-59.0,-193.0,-12.0,0
561,-55.0,-189.0,-6.0,0
562,-46.0,-183.0,-5.0,0
563,-34.0,-181.0,-1.0,0
564,-26.0,-170.0,1.0,0
565,-17.0,-161.0,-1.0,0
566,-15.0,-158.0,2.0,0
567,-1.0,-157.0,13.0,0
568,-2.0,-156.0,7.0,0
569,0.0,-154.0,2.0,0
570,4.0,-158.0,8.0,0
571,8.0,-161.0,6.0,0
572,10.0,-164.0,10.0,0
573,9.0,-169.0,8.0,0
574,14.0,-173.0,7.0,0
575,14.0,-177.0,12.0,0
576,20.0,-183.0,15.0,0
577,19.0,-184.0,16.0,0
578,23.0,-189.0,19.0,0
579,23.0,-196.0,26.0,0
580,27.0,-202.0,22.0,0
581,25.0,-208.0,25.0,0
582,25.0,-209.0,28.0,0
583,27.0,-215.0,35.0,0
584,27.0,-218.0,35.0,0
585,29.0,-221.0,42.0,0
586,23.0,-219.0,42.0,0
587,24.0,-219.0,48.0,0
588,22.0,-219.0,50.0,0
589,19.0,-212.0,45.0,0
590,19.0,-210.0,49.0,0
591,17.0,-209.0,50.0,0
592,17.0,-204.0,53.0,0
593,14.0,-200.0,44.0,0
594,13.0,-194.0,41.0,0
595,15.0,-196.0,46.0,0
596,14.0,-192.0,46.0,0
597,10.0,-198.0,41.0,0
598,8.0,-196.0,43.0,0
599,4.0,-200.0,41.0,0
600,6.0,-204.0,37.0,0
601,4.0,-210.0,37.0,0
602,10.0,-221.0,37.0,0
603,12.0,-232.0,40.0,0
604,15.0,-243.0,48.0,0
605,26.0,-259.0,56.0,0
606,30.0,-275.0,68.0,0
607,35.0,-289.0,85.0,0
608,40.0,-298.0,92.0,0
609,47.0,-304.0,96.0,0
610,49.0,-309.0,108.0,0
611,61.0,-306.0,111.0,0
612,71.0,-301.0,112.0,0
613,80.0,-299.0,118.0,0
614,55.0,-290.0,120.0,0
615,50.0,-277.0,111.0,0
616,55.0,-267.0,105.0,0
617,52.0,-256.0,93.0,0
618,51.0,-254.0,84.0,0
619,43.0,-250.0,75.0,0
620,37.0,-253.0,67.0,0
621,28.0,-262.0,65.0,0
622,19.0,-281.0,56.0,0
623,14.0,-297.0,47.0,0
624,14.0,-317.0,28.0,0
625,11.0,-339.0,26.0,0
626,9.0,-368.0,23.0,0
627,6.0,-383.0,18.0,0
628,16.0,-401.0,9.0,0
629,36.0,-407.0,7.0,0
630,10.0,-406.0,1.0,0
631,0.0,-400.0,3.0,0
632,2.0,-395.0,-12.0,0
633,2.0,-373.0,-34.0,0
634,3.0,-350.0,-59.0,0
635,-6.0,-328.0,-70.0,0
636,-11.0,-313.0,-79.0,0
637,-18.0,-291.0,-85.0,0
638,-30.0,-266.0,-84.0,0
639,-39.0,-248.0,-82.0,0
640,-44.0,-229.0,-75.0,0
641,-49.0,-213.0,-76.0,0
642,-49.0,-199.0,-63.0,0
643,-50.0,-188.0,-56.0,0
644,-52.0,-183.0,-48.0,0
645,-52.0,-181.0,-38.0,0
646,-52.0,-189.0,-23.0,0
647,-47.0,-202.0,-19.0,0
648,-46.0,-204.0,-14.0,0
649,-42.0,-218.0,-1.0,0
650,-33.0,-224.0,0.0,0
651,-30.0,-235.0,6.0,0
652,-21.0,-244.0,3.0,0
653,-18.0,-248.0,-1.0,0
654,-14.0,-258.0,-3.0,0
655,-4.0,-266.0,0.0,0
656,1.0,-275.0,0.0,0
657,10.0,-285.0,-2.0,0
658,17.0,-288.0,-1.0,0
659,23.0,-295.0,5.0,0
660,29.0,-301.0,7.0,0
661,33.0,-299.0,11.0,0
662,34.0,-294.0,10.0,0
663,38.0,-291.0,13.0,0
664,39.0,-279.0,9.0,0
665,35.0,-276.0,8.0,0
666,39.0,-266.0,8.0,0
667,39.0,-257.0,2.0,0
668,35.0,-250.0,-2.0,0
669,27.0,-239.0,-2.0,0
670,22.0,-228.0,1.0,0
671,18.0,-219.0,2.0,0
672,13.0,-204.0,-4.0,0
673,15.0,-194.0,-7.0,0
674,9.0,-184.0,1.0,0
675,8.0,-180.0,-2.0,0
676,-2.0,-171.0,1.0,0
677,2.0,-170.0,3.0,0
678,-3.0,-165.0,-1.0,0
679,-11.0,-162.0,-3.0,0
680,-13.0,-164.0,-2.0,0
681,-16.0,-166.0,2.0,0
682,-26.0,-167.0,3.0,0
683,-28.0,-169.0,3.0,0
684,-31.0,-175.0,6.0,0
685,-34.0,-178.0,12.0,0
686,-33.0,-183.0,12.0,0
687,-32.0,-189.0,17.0,0
688,-32.0,-194.0,24.0,0
689,-36.0,-200.0,26.0,0
690,-35.0,-205.0,28.0,0
691,-34.0,-212.0,34.0,0
692,-34.0,-215.0,37.0,0
693,-34.0,-214.0,38.0,0
694,-28.0,-218.0,43.0,0
695,-21.0,-222.0,44.0,0
696,-16.0,-220.0,44.0,0
697,-13.0,-220.0,48.0,0
698,-3.0,-220.0,57.0,0
699,1.0,-221.0,57.0,0
700,9.0,-222.0,58.0,0
701,16.0,-220.0,58.0,0
702,18.0,-219.0,58.0,0
703,23.0,-221.0,56.0,0
704,29.0,-222.0,51.0,0
705,29.0,-220.0,55.0,0
706,31.0,-226.0,48.0,0
707,29.0,-229.0,46.0,0
708,29.0,-234.0,42.0,0
709,27.0,-234.0,38.0,0
710,21.0,-239.0,34.0,0
711,14.0,-239.0,34.0,0
712,4.0,-238.0,32.0,0
713,-6.0,-241.0,33.0,0
714,-17.0,-248.0,31.0,0
715,-24.0,-251.0,40.0,0
716,-38.0,-258.0,46.0,0
717,-50.0,-263.0,55.0,0
718,-64.0,-267.0,68.0,0
719,-71.0,-276.0,75.0,0
720,-79.0,-283.0,82.0,0
721,-86.0,-284.0,96.0,0
722,-94.0,-289.0,100.0,0
723,-101.0,-290.0,102.0,0
724,-102.0,-292.0,100.0,0
725,-98.0,-288.0,95.0,0
726,-91.0,-287.0,94.0,0
727,-85.0,-281.0,94.0,0
728,-75.0,-271.0,96.0,0
729,-57.0,-270.0,103.0,0
730,-43.0,-264.0,99.0,0
731,-29.0,-267.0,95.0,0
732,-17.0,-269.0,88.0,0
733,-15.0,-267.0,69.0,0
734,-9.0,-270.0,52.0,0
735,-4.0,-287.0,24.0,0
736,-5.0,-310.0,7.0,0
737,-12.0,-333.0,-11.0,0
738,-16.0,-356.0,-13.0,0
739,-13.0,-374.0,-17.0,0
740,-14.0,-390.0,-18.0,0
741,-19.0,-384.0,-16.0,0
742,-29.0,-377.0,-23.0,0
743,-31.0,-370.0,-29.0,0
744,-26.0,-357.0,-33.0,0
745,-17.0,-342.0,-52.0,0
746,-13.0,-328.0,-62.0,0
747,-12.0,-312.0,-68.0,0
748,1.0,-301.0,-72.0,0
749,7.0,-284.0,-73.0,0
750,11.0,-267.0,-63.0,0
751,19.0,-253.0,-58.0,0
752,22.0,-241.0,-57.0,0
753,26.0,-225.0,-49.0,0
754,33.0,-222.0,-39.0,0
755,36.0,-216.0,-28.0,0
756,41.0,-214.0,-15.0,0
757,46.0,-214.0,3.0,0
758,45.0,-217.0,9.0,0
759,43.0,-224.0,11.0,0
760,44.0,-233.0,22.0,0
761,29.0,-246.0,30.0,0
762,32.0,-249.0,29.0,0
763,29.0,-259.0,32.0,0
764,23.0,-268.0,27.0,0
765,14.0,-272.0,23.0,0
766,5.0,-283.0,16.0,0
767,-1.0,-285.0,10.0,0
768,-13.0,-285.0,8.0,0
769,-13.0,-287.0,7.0,0
770,-25.0,-282.0,1.0,0
771,-35.0,-274.0,-3.0,0
772,-36.0,-271.0,-1.0,0
773,-40.0,-266.0,-4.0,0
774,-48.0,-257.0,0.0,0
775,-48.0,-249.0,-1.0,0
776,-47.0,-237.0,-6.0,0
777,-46.0,-231.0,-5.0,0
778,-42.0,-222.0,-4.0,0
779,-39.0,-217.0,-4.0,0
780,-34.0,-206.0,1.0,0
781,-29.0,-195.0,0.0,0
782,-25.0,-188.0,-1.0,0
783,-20.0,-181.0,4.0,0
784,-13.0,-173.0,-4.0,0
785,-10.0,-166.0,4.0,0
786,-7.0,-161.0,6.0,0
787,-7.0,-159.0,9.0,0
788,-2.0,-160.0,8.0,0
789,-1.0,-161.0,6.0,0
790,-2.0,-168.0,6.0,0
791,0.0,-173.0,9.0,0
792,5.0,-178.0,-3.0,0
793,1.0,-183.0,9.0,0
794,3.0,-189.0,12.0,0
795,6.0,-196.0,14.0,0
796,8.0,-201.0,17.0,0
797,9.0,-209.0,28.0,0
798,12.0,-214.0,27.0,0
799,13.0,-226.0,34.0,0
800,15.0,-227.0,34.0,0
801,16.0,-232.0,41.0,0
802,15.0,-232.0,44.0,0
803,19.0,-233.0,43.0,0
804,18.0,-232.0,42.0,0
805,19.0,-228.0,45.0,0
806,25.0,-223.0,42.0,0
807,24.0,-223.0,43.0,0
808,30.0,-217.0,50.0,0
809,29.0,-212.0,52.0,0
810,30.0,-209.0,54.0,0
811,27.0,-198.0,55.0,0
812,29.0,-194.0,62.0,0
813,25.0,-191.0,62.0,0
814,29.0,-188.0,60.0,0
815,29.0,-189.0,60.0,0
816,30.0,-186.0,61.0,0
817,28.0,-186.0,56.0,0
818,28.0,-192.0,59.0,0
819,25.0,-197.0,56.0,0
820,24.0,-201.0,53.0,0
821,24.0,-209.0,47.0,0
822,21.0,-217.0,38.0,0
823,23.0,-221.0,37.0,0
824,23.0,-230.0,26.0,0
825,27.0,-243.0,31.0,0
826,27.0,-252.0,32.0,0
827,32.0,-267.0,43.0,0
828,36.0,-283.0,56.0,0
829,41.0,-293.0,67.0,0
830,45.0,-308.0,75.0,0
831,45.0,-314.0,89.0,0
832,49.0,-321.0,90.0,0
833,68.0,-318.0,95.0,0
834,45.0,-318.0,103.0,0
835,39.0,-307.0,104.0,0
836,39.0,-299.0,104.0,0
837,43.0,-285.0,100.0,0
838,38.0,-270.0,103.0,0
839,38.0,-262.0,105.0,0
840,34.0,-251.0,104.0,0
841,23.0,-248.0,102.0,0
842,14.0,-249.0,90.0,0
843,1.0,-257.0,84.0,0
844,-15.0,-265.0,75.0,0
845,-24.0,-274.0,70.0,0
846,-27.0,-293.0,52.0,0
847,-24.0,-312.0,35.0,0
848,-19.0,-333.0,23.0,0
849,-12.0,-354.0,8.0,0
850,-13.0,-371.0,9.0,0
851,-4.0,-382.0,2.0,0
852,3.0,-394.0,3.0,0
853,-2.0,-404.0,5.0,0
854,2.0,-393.0,-3.0,0
855,13.0,-376.0,-19.0,0
856,23.0,-356.0,-32.0,0
857,32.0,-339.0,-44.0,0
858,35.0,-321.0,-57.0,0
859,33.0,-305.0,-62.0,0
860,27.0,-289.0,-66.0,0
861,21.0,-273.0,-74.0,0
862,12.0,-249.0,-82.0,0
863,6.0,-233.0,-78.0,0
864,-2.0,-212.0,-80.0,0
865,-11.0,-197.0,-73.0,0
866,-18.0,-184.0,-66.0,0
867,-24.0,-175.0,-61.0,0
868,-34.0,-168.0,-51.0,0
869,-45.0,-169.0,-43.0,0
870,-43.0,-173.0,-28.0,0
871,-42.0,-182.0,-15.0,0
872,-47.0,-188.0,-7.0,0
873,-46.0,-197.0,-1.0,0
874,-42.0,-207.0,-2.0,0
875,-42.0,-213.0,-2.0,0
876,-34.0,-223.0,-1.0,0
877,-30.0,-236.0,-7.0,0
878,-21.0,-250.0,-1.0,0
879,-18.0,-261.0,2.0,0
880,-11.0,-273.0,3.0,0
881,-7.0,-282.0,6.0,0
882,3.0,-292.0,7.0,0
883,6.0,-297.0,6.0,0
884,10.0,-304.0,11.0,0
885,13.0,-304.0,7.0,0
886,16.0,-306.0,9.0,0
887,13.0,-306.0,12.0,0
888,18.0,-300.0,9.0,0
889,18.0,-291.0,6.0,0
890,17.0,-282.0,3.0,0
891,11.0,-272.0,-10.0,0
892,13.0,-255.0,-3.0,0
893,11.0,-244.0,-7.0,0
894,12.0,-230.0,-7.0,0
895,4.0,-215.0,-13.0,0
896,7.0,-205.0,-9.0,0
897,1.0,-190.0,-5.0,0
898,1.0,-184.0,-3.0,0
899,4.0,-182.0,-5.0,0
900,-1.0,-176.0,-4.0,0
901,-3.0,-176.0,0.0,0
902,-6.0,-171.0,6.0,0
903,-14.0,-168.0,8.0,0
904,-16.0,-167.0,4.0,0
905,-16.0,-171.0,7.0,0
906,-18.0,-179.0,11.0,0
907,-22.0,-178.0,13.0,0
908,-27.0,-181.0,15.0,0
909,-29.0,-183.0,17.0,0
910,-29.0,-193.0,22.0,0
911,-29.0,-197.0,24.0,0
912,-29.0,-205.0,29.0,0
913,-26.0,-211.0,30.0,0
914,-19.0,-218.0,36.0,0
915,-16.0,-222.0,38.0,0
916,-11.0,-225.0,40.0,0
917,-5.0,-230.0,43.0,0
918,4.0,-233.0,52.0,0
919,6.0,-233.0,53.0,0
920,16.0,-233.0,57.0,0
921,19.0,-231.0,58.0,0
922,27.0,-230.0,59.0,0
923,29.0,-226.0,59.0,0
924,29.0,-221.0,58.0,0
925,30.0,-224.0,61.0,0
926,30.0,-223.0,59.0,0
927,26.0,-222.0,60.0,0
928,23.0,-220.0,58.0,0
929,18.0,-221.0,61.0,0
930,17.0,-223.0,59.0,0
931,10.0,-227.0,55.0,0
932,8.0,-226.0,53.0,0
933,2.0,-229.0,58.0,0
934,-5.0,-232.0,53.0,0
935,-12.0,-235.0,49.0,0
936,-15.0,-237.0,51.0,0
937,-16.0,-245.0,57.0,0
938,-18.0,-249.0,54.0,0
939,-17.0,-254.0,54.0,0
940,-17.0,-262.0,57.0,0
941,-20.0,-264.0,67.0,0
942,-24.0,-270.0,72.0,0
943,-24.0,-276.0,76.0,0
944,-25.0,-278.0,83.0,0
945,-25.0,-278.0,92.0,0
946,-22.0,-277.0,93.0,0
947,-19.0,-278.0,98.0,0
948,-14.0,-276.0,98.0,0
949,-12.0,-269.0,101.0,0
950,-7.0,-264.0,100.0,0
951,-4.0,-261.0,99.0,0
952,-2.0,-255.0,101.0,0
953,3.0,-251.0,105.0,0
954,3.0,-250.0,108.0,0
955,2.0,-247.0,102.0,0
956,0.0,-248.0,94.0,0
957,-12.0,-251.0,76.0,0
958,-18.0,-257.0,53.0,0
959,-31.0,-277.0,30.0,0
960,-46.0,-296.0,8.0,0
961,-63.0,-319.0,-24.0,0
962,-78.0,-341.0,-56.0,0
963,-88.0,-362.0,-84.0,0
964,-98.0,-372.0,-116.0,0
965,-95.0,-375.0,-121.0,0
966,-85.0,-373.0,-127.0,0
967,-76.0,-365.0,-119.0,0
968,-68.0,-355.0,-111.0,0
969,-51.0,-342.0,-91.0,0
970,-33.0,-323.0,-76.0,0
971,-15.0,-306.0,-57.0,0
972,-3.0,-284.0,-41.0,0
973,10.0,-264.0,-24.0,0
974,18.0,-245.0,-13.0,0
975,25.0,-229.0,-4.0,0
976,24.0,-215.0,-12.0,0
977,14.0,-209.0,-16.0,0
978,14.0,-207.0,-20.0,0
979,9.0,-215.0,-19.0,0
980,-1.0,-227.0,-19.0,0
981,-12.0,-241.0,-21.0,0
982,-19.0,-257.0,-11.0,0
983,-31.0,-273.0,0.0,0
984,-45.0,-285.0,10.0,0
985,-46.0,-297.0,18.0,0
986,-58.0,-303.0,24.0,0
987,-61.0,-307.0,26.0,0
988,-66.0,-310.0,25.0,0
989,-70.0,-310.0,19.0,0
990,-65.0,-311.0,12.0,0
991,-69.0,-309.0,6.0,0
992,-69.0,-304.0,-3.0,0
993,-77.0,-294.0,-10.0,0
994,-79.0,-289.0,-13.0,0
995,-80.0,-274.0,-27.0,0
996,-79.0,-260.0,-34.0,0
997,-79.0,-249.0,-39.0,0
998,-80.0,-243.0,-23.0,0
999,-74.0,-233.0,-35.0,0
1000,-67.0,-230.0,-30.0,0
1001,-55.0,-222.0,-27.0,0
1002,-46.0,-219.0,-28.0,0
1003,-36.0,-215.0,-24.0,0
1004,-31.0,-209.0,-19.0,0
1005,-17.0,-210.0,-18.0,0
1006,-10.0,-206.0,-15.0,0
1007,0.0,-204.0,-17.0,0
1008,8.0,-199.0,-17.0,0
1009,18.0,-201.0,-15.0,0
1010,21.0,-196.0,-15.0,0
1011,24.0,-196.0,-16.0,0
1012,27.0,-197.0,-15.0,0
1013,27.0,-195.0,-14.0,0
1014,27.0,-200.0,-16.0,0
1015,24.0,-201.0,-18.0,0
1016,22.0,-203.0,-8.0,0
1017,15.0,-206.0,-10.0,0
1018,11.0,-205.0,-13.0,0
1019,10.0,-209.0,-5.0,0
1020,4.0,-210.0,-8.0,0
1021,7.0,-215.0,-4.0,0
1022,5.0,-213.0,-2.0,0
1023,1.0,-212.0,2.0,0
1024,2.0,-212.0,0.0,0
1025,3.0,-216.0,6.0,0
1026,-1.0,-206.0,2.0,0
1027,1.0,-206.0,7.0,0
1028,4.0,-202.0,6.0,0
1029,8.0,-207.0,11.0,0
1030,6.0,-204.0,9.0,0
1031,10.0,-210.0,16.0,0
1032,9.0,-211.0,24.0,0
1033,7.0,-214.0,33.0,0
1034,11.0,-218.0,37.0,0
1035,15.0,-224.0,38.0,0
1036,14.0,-223.0,40.0,0
1037,22.0,-232.0,40.0,0
1038,28.0,-239.0,38.0,0
1039,34.0,-241.0,35.0,0
1040,39.0,-244.0,35.0,0
1041,41.0,-247.0,22.0,0
1042,47.0,-247.0,20.0,0
1043,52.0,-252.0,19.0,0
1044,53.0,-254.0,14.0,0
1045,58.0,-255.0,16.0,0
1046,63.0,-258.0,17.0,0
1047,70.0,-262.0,24.0,0
1048,76.0,-266.0,35.0,0
1049,82.0,-265.0,46.0,0
1050,93.0,-272.0,59.0,0
1051,96.0,-274.0,73.0,0
1052,103.0,-277.0,80.0,0
1053,100.0,-278.0,88.0,0
1054,93.0,-275.0,100.0,0
1055,91.0,-273.0,96.0,0
1056,87.0,-268.0,98.0,0
1057,84.0,-265.0,99.0,0
1058,76.0,-259.0,101.0,0
1059,68.0,-250.0,102.0,0
1060,59.0,-248.0,100.0,0
1061,47.0,-245.0,93.0,0
1062,37.0,-242.0,87.0,0
1063,17.0,-241.0,71.0,0
1064,6.0,-248.0,52.0,0
1065,-8.0,-257.0,43.0,0
1066,-27.0,-267.0,36.0,0
1067,-44.0,-285.0,39.0,0
1068,-46.0,-299.0,35.0,0
1069,-48.0,-314.0,30.0,0
1070,-49.0,-331.0,28.0,0
1071,-62.0,-348.0,28.0,0
1072,-66.0,-370.0,21.0,0
1073,-66.0,-378.0,20.0,0
1074,-59.0,-385.0,18.0,0
1075,-52.0,-391.0,14.0,0
1076,-49.0,-389.0,10.0,0
1077,-47.0,-377.0,-4.0,0
1078,-51.0,-359.0,-20.0,0
1079,-58.0,-340.0,-39.0,0
1080,-64.0,-314.0,-56.0,0
1081,-66.0,-294.0,-77.0,0
1082,-70.0,-272.0,-96.0,0
1083,-72.0,-251.0,-100.0,0
1084,-74.0,-240.0,-103.0,0
1085,-75.0,-224.0,-93.0,0
1086,-78.0,-207.0,-84.0,0
1087,-80.0,-192.0,-70.0,0
1088,-79.0,-182.0,-61.0,0
1089,-79.0,-174.0,-49.0,0
1090,-79.0,-170.0,-33.0,0
1091,-79.0,-172.0,-23.0,0
1092,-78.0,-176.0,-21.0,0
1093,-75.0,-183.0,-15.0,0
1094,-65.0,-194.0,-19.0,0
1095,-60.0,-204.0,-21.0,0
1096,-54.0,-217.0,-17.0,0
1097,-51.0,-227.0,-18.0,0
1098,-44.0,-243.0,-15.0,0
1099,-36.0,-250.0,-23.0,0
1100,-32.0,-257.0,-22.0,0
1101,-33.0,-264.0,-22.0,0
1102,-28.0,-275.0,-21.0,0
1103,-28.0,-279.0,-22.0,0
1104,-20.0,-289.0,-27.0,0
1105,-23.0,-289.0,-27.0,0
1106,-24.0,-295.0,-25.0,0
1107,-21.0,-295.0,-23.0,0
1108,-20.0,-292.0,-20.0,0
1109,-17.0,-290.0,-17.0,0
1110,-17.0,-291.0,-10.0,0
1111,-16.0,-282.0,-12.0,0
1112,-16.0,-274.0,-5.0,0
1113,-15.0,-265.0,-5.0,0
1114,-13.0,-256.0,-2.0,0
1115,-13.0,-247.0,-5.0,0
1116,-7.0,-241.0,1.0,0
1117,-4.0,-234.0,-5.0,0
1118,0.0,-225.0,-1.0,0
1119,-1.0,-219.0,-1.0,0
1120,0.0,-210.0,1.0,0
1121,4.0,-203.0,0.0,0
1122,3.0,-199.0,-3.0,0
1123,7.0,-194.0,-5.0,0
1124,11.0,-195.0,-3.0,0
1125,11.0,-194.0,4.0,0
1126,8.0,-195.0,6.0,0
1127,4.0,-194.0,9.0,0
1128,0.0,-199.0,15.0,0
1129,-3.0,-202.0,14.0,0
1130,-9.0,-205.0,18.0,0
1131,-14.0,-205.0,22.0,0
1132,-18.0,-208.0,26.0,0
1133,-21.0,-213.0,29.0,0
1134,-25.0,-219.0,26.0,0
1135,-24.0,-221.0,27.0,0
1136,-24.0,-223.0,26.0,0
1137,-23.0,-230.0,33.0,0
1138,-23.0,-225.0,26.0,0
1139,-20.0,-223.0,25.0,0
1140,-17.0,-225.0,24.0,0
1141,-16.0,-223.0,26.0,0
1142,-15.0,-225.0,28.0,0
1143,-13.0,-229.0,31.0,0
1144,-13.0,-226.0,33.0,0
1145,-6.0,-226.0,34.0,0
1146,-4.0,-227.0,40.0,0
1147,-4.0,-223.0,38.0,0
1148,2.0,-234.0,35.0,0
1149,7.0,-225.0,41.0,0
1150,6.0,-222.0,49.0,0
1151,7.0,-223.0,55.0,0
1152,8.0,-226.0,57.0,0
1153,9.0,-229.0,59.0,0
1154,8.0,-236.0,65.0,0
1155,9.0,-236.0,60.0,0
1156,6.0,-240.0,65.0,0
1157,6.0,-239.0,62.0,0
1158,6.0,-244.0,59.0,0
1159,8.0,-243.0,58.0,0
1160,13.0,-246.0,54.0,0
1161,23.0,-248.0,54.0,0
1162,24.0,-250.0,52.0,0
1163,21.0,-249.0,56.0,0
1164,19.0,-249.0,58.0,0
1165,14.0,-245.0,62.0,0
1166,14.0,-247.0,63.0,0
1167,12.0,-243.0,65.0,0
1168,5.0,-244.0,61.0,0
1169,1.0,-241.0,60.0,0
1170,6.0,-236.0,55.0,0
1171,2.0,-242.0,64.0,0
1172,0.0,-245.0,65.0,0
1173,1.0,-245.0,59.0,0
1174,-3.0,-250.0,51.0,0
1175,-10.0,-254.0,40.0,0
1176,-16.0,-261.0,30.0,0
1177,-16.0,-274.0,14.0,0
1178,-26.0,-301.0,12.0,0
1179,-35.0,-325.0,7.0,0
1180,-50.0,-351.0,1.0,0
1181,-66.0,-373.0,-4.0,0
1182,-81.0,-396.0,0.0,0
1183,-99.0,-412.0,-2.0,0
1184,-117.0,-420.0,-4.0,0
1185,-125.0,-416.0,-2.0,0
1186,-116.0,-406.0,0.0,0
1187,-112.0,-391.0,-11.0,0
1188,-100.0,-371.0,-19.0,0
1189,-85.0,-352.0,-38.0,0
1190,-75.0,-331.0,-48.0,0
1191,-60.0,-308.0,-51.0,0
1192,-53.0,-284.0,-69.0,0
1193,-35.0,-263.0,-76.0,0
1194,-18.0,-246.0,-77.0,0
1195,-12.0,-226.0,-74.0,0
1196,-2.0,-210.0,-64.0,0
1197,2.0,-201.0,-56.0,0
1198,5.0,-192.0,-51.0,0
1199,4.0,-189.0,-44.0,0
1200,-3.0,-184.0,-41.0,0
1201,-6.0,-191.0,-33.0,0
1202,-15.0,-197.0,-26.0,0
1203,-22.0,-208.0,-21.0,0
1204,-33.0,-224.0,-13.0,0
1205,-38.0,-241.0,-8.0,0
1206,-47.0,-255.0,1.0,0
1207,-56.0,-273.0,6.0,0
1208,-66.0,-289.0,9.0,0
1209,-70.0,-301.0,8.0,0
1210,-75.0,-311.0,4.0,0
1211,-77.0,-315.0,5.0,0
1212,-77.0,-315.0,4.0,0
1213,-74.0,-321.0,-3.0,0
1214,-73.0,-318.0,-7.0,0
1215,-67.0,-313.0,-5.0,0
1216,-63.0,-306.0,-14.0,0
1217,-58.0,-300.0,-15.0,0
1218,-53.0,-286.0,-23.0,0
1219,-47.0,-268.0,-26.0,0
1220,-42.0,-257.0,-27.0,0
1221,-36.0,-248.0,-31.0,0
1222,-31.0,-235.0,-25.0,0
1223,-20.0,-223.0,-33.0,0
1224,-15.0,-209.0,-27.0,0
1225,-9.0,-198.0,-32.0,0
1226,0.0,-186.0,-32.0,0
1227,6.0,-179.0,-34.0,0
1228,12.0,-176.0,-30.0,0
1229,15.0,-172.0,-30.0,0
1230,21.0,-170.0,-30.0,0
1231,21.0,-168.0,-26.0,0
1232,20.0,-177.0,-24.0,0
1233,20.0,-174.0,-22.0,0
1234,17.0,-177.0,-23.0,0
1235,19.0,-184.0,-18.0,0
1236,15.0,-189.0,-16.0,0
1237,13.0,-197.0,-12.0,0
1238,12.0,-207.0,-8.0,0
1239,9.0,-213.0,-8.0,0
1240,7.0,-222.0,-6.0,0
1241,7.0,-229.0,-3.0,0
1242,11.0,-237.0,0.0,0
1243,10.0,-241.0,2.0,0
1244,13.0,-244.0,1.0,0
1245,15.0,-247.0,6.0,0
1246,20.0,-249.0,6.0,0
1247,29.0,-250.0,8.0,0
1248,32.0,-250.0,8.0,0
1249,38.0,-245.0,8.0,0
1250,43.0,-241.0,9.0,0
1251,51.0,-239.0,9.0,0
1252,57.0,-233.0,19.0,0
1253,64.0,-232.0,19.0,0
1254,71.0,-227.0,28.0,0
1255,73.0,-226.0,35.0,0
1256,80.0,-218.0,48.0,0
1257,80.0,-220.0,56.0,0
1258,76.0,-218.0,62.0,0
1259,76.0,-218.0,63.0,0
1260,73.0,-218.0,68.0,0
1261,66.0,-217.0,68.0,0
1262,65.0,-219.0,65.0,0
1263,67.0,-223.0,62.0,0
1264,68.0,-220.0,61.0,0
1265,68.0,-218.0,52.0,0
1266,64.0,-220.0,48.0,0
1267,61.0,-219.0,38.0,0
1268,57.0,-222.0,30.0,0
1269,54.0,-226.0,24.0,0
1270,49.0,-230.0,23.0,0
1271,48.0,-236.0,23.0,0
1272,47.0,-244.0,25.0,0
1273,47.0,-254.0,36.0,0
1274,45.0,-260.0,39.0,0
1275,42.0,-265.0,50.0,0
1276,41.0,-271.0,56.0,0
1277,36.0,-275.0,68.0,0
1278,27.0,-281.0,80.0,0
1279,19.0,-281.0,85.0,0
1280,12.0,-283.0,103.0,0
1281,3.0,-285.0,106.0,0
1282,-2.0,-274.0,106.0,0
1283,-15.0,-267.0,105.0,0
1284,-23.0,-264.0,105.0,0
1285,-27.0,-259.0,100.0,0
1286,-24.0,-262.0,94.0,0
1287,-29.0,-262.0,83.0,0
1288,-34.0,-263.0,70.0,0
1289,-42.0,-271.0,59.0,0
1290,-60.0,-280.0,48.0,0
1291,-70.0,-289.0,39.0,0
1292,-70.0,-305.0,32.0,0
1293,-66.0,-323.0,28.0,0
1294,-57.0,-342.0,23.0,0
1295,-40.0,-359.0,18.0,0
1296,-23.0,-375.0,16.0,0
1297,-15.0,-383.0,16.0,0
1298,-14.0,-387.0,11.0,0
1299,-3.0,-390.0,11.0,0
1300,1.0,-385.0,5.0,0
1301,5.0,-378.0,-15.0,0
1302,7.0,-364.0,-40.0,0
1303,-3.0,-352.0,-62.0,0
1304,-11.0,-332.0,-79.0,0
1305,-28.0,-316.0,-98.0,0
1306,-42.0,-294.0,-105.0,0
1307,-53.0,-270.0,-105.0,0
1308,-60.0,-253.0,-112.0,0
1309,-72.0,-233.0,-117.0,0
1310,-69.0,-217.0,-116.0,0
1311,-68.0,-202.0,-113.0,0
1312,-70.0,-195.0,-105.0,0
1313,-66.0,-192.0,-99.0,0
1314,-56.0,-196.0,-84.0,0
1315,-45.0,-205.0,-71.0,0
1316,-41.0,-209.0,-59.0,0
1317,-26.0,-226.0,-50.0,0
1318,-15.0,-235.0,-44.0,0
1319,-2.0,-247.0,-31.0,0
1320,11.0,-261.0,-31.0,0
1321,21.0,-270.0,-28.0,0
1322,23.0,-274.0,-27.0,0
1323,29.0,-282.0,-25.0,0
1324,32.0,-289.0,-17.0,0
1325,34.0,-296.0,-13.0,0
1326,39.0,-301.0,-8.0,0
1327,39.0,-307.0,-6.0,0
1328,37.0,-305.0,-9.0,0
1329,38.0,-302.0,-10.0,0
1330,33.0,-303.0,-15.0,0
1331,25.0,-298.0,-10.0,0
1332,24.0,-290.0,-17.0,0
1333,16.0,-282.0,-10.0,0
1334,14.0,-274.0,-9.0,0
1335,12.0,-263.0,-10.0,0
1336,10.0,-254.0,-12.0,0
1337,5.0,-238.0,-6.0,0
1338,7.0,-227.0,-9.0,0
1339,10.0,-215.0,-8.0,0
1340,3.0,-206.0,-5.0,0
1341,-2.0,-187.0,7.0,0
1342,5.0,-185.0,-3.0,0
1343,19.0,-184.0,1.0,0
1344,21.0,-180.0,0.0,0
1345,15.0,-171.0,4.0,0
1346,15.0,-166.0,2.0,0
1347,16.0,-169.0,2.0,0
1348,8.0,-168.0,7.0,0
1349,6.0,-173.0,9.0,0
1350,6.0,-177.0,3.0,0
1351,2.0,-192.0,13.0,0
1352,-1.0,-196.0,18.0,0
1353,-6.0,-203.0,22.0,0
1354,-12.0,-209.0,24.0,0
1355,-13.0,-214.0,21.0,0
1356,-15.0,-220.0,22.0,0
1357,-15.0,-225.0,20.0,0
1358,-11.0,-229.0,20.0,0
1359,-10.0,-231.0,16.0,0
1360,-6.0,-236.0,16.0,0
1361,-3.0,-240.0,23.0,0
1362,-2.0,-242.0,21.0,0
1363,-4.0,-245.0,25.0,0
1364,-2.0,-250.0,24.0,0
1365,4.0,-249.0,26.0,0
1366,2.0,-250.0,24.0,0
1367,1.0,-244.0,27.0,0
1368,0.0,-244.0,27.0,0
1369,-1.0,-241.0,28.0,0
1370,0.0,-236.0,26.0,0
1371,-7.0,-235.0,24.0,0
1372,-12.0,-232.0,27.0,0
1373,-13.0,-229.0,18.0,0
1374,-16.0,-225.0,23.0,0
1375,-17.0,-225.0,23.0,0
1376,-24.0,-221.0,30.0,0
1377,-24.0,-225.0,38.0,0
1378,-29.0,-221.0,45.0,0
1379,-28.0,-226.0,46.0,0
1380,-32.0,-225.0,52.0,0
1381,-35.0,-228.0,54.0,0
1382,-38.0,-230.0,61.0,0
1383,-43.0,-230.0,65.0,0
1384,-44.0,-231.0,67.0,0
1385,-45.0,-232.0,65.0,0
1386,-48.0,-230.0,62.0,0
1387,-51.0,-228.0,60.0,0
1388,-55.0,-228.0,61.0,0
1389,-57.0,-225.0,58.0,0
1390,-61.0,-228.0,55.0,0
1391,-60.0,-231.0,54.0,0
1392,-60.0,-237.0,54.0,0
1393,-66.0,-238.0,53.0,0
1394,-64.0,-246.0,53.0,0
1395,-61.0,-247.0,56.0,0
1396,-58.0,-251.0,62.0,0
1397,-58.0,-252.0,62.0,0
1398,-51.0,-253.0,66.0,0
1399,-48.0,-257.0,72.0,0
1400,-46.0,-259.0,74.0,0
1401,-46.0,-261.0,73.0,0
1402,-52.0,-263.0,73.0,0
1403,-51.0,-261.0,72.0,0
1404,-53.0,-259.0,65.0,0
1405,-56.0,-256.0,63.0,0
1406,-58.0,-257.0,54.0,0
1407,-66.0,-258.0,55.0,0
1408,-64.0,-261.0,49.0,0
1409,-67.0,-268.0,48.0,0
1410,-71.0,-268.0,48.0,0
1411,-72.0,-269.0,43.0,0
1412,-67.0,-271.0,43.0,0
1413,-70.0,-269.0,48.0,0
1414,-70.0,-273.0,47.0,0
1415,-72.0,-270.0,53.0,0
1416,-65.0,-267.0,42.0,0
1417,-65.0,-266.0,40.0,0
1418,-59.0,-263.0,27.0,0
1419,-52.0,-263.0,21.0,0
1420,-49.0,-265.0,8.0,0
1421,-45.0,-263.0,0.0,0
1422,-42.0,-260.0,-14.0,0
1423,-37.0,-255.0,-29.0,0
1424,-37.0,-250.0,-45.0,0
1425,-37.0,-245.0,-58.0,0
1426,-34.0,-241.0,-75.0,0
1427,-33.0,-241.0,-86.0,0
1428,-33.0,-235.0,-98.0,0
1429,-27.0,-233.0,-109.0,0
1430,-22.0,-237.0,-119.0,0
1431,-21.0,-236.0,-123.0,0
1432,-12.0,-238.0,-131.0,0
1433,-5.0,-239.0,-131.0,0
1434,4.0,-245.0,-127.0,0
1435,12.0,-249.0,-122.0,0
1436,18.0,-255.0,-121.0,0
1437,22.0,-266.0,-110.0,0
1438,24.0,-274.0,-105.0,0
1439,25.0,-286.0,-94.0,0
1440,25.0,-293.0,-86.0,0
1441,27.0,-302.0,-78.0,0
1442,27.0,-309.0,-71.0,0
1443,30.0,-313.0,-61.0,0
1444,28.0,-314.0,-59.0,0
1445,26.0,-321.0,-57.0,0
1446,26.0,-325.0,-55.0,0
1447,29.0,-326.0,-54.0,0
1448,29.0,-330.0,-52.0,0
1449,31.0,-327.0,-47.0,0
1450,29.0,-326.0,-44.0,0
1451,31.0,-322.0,-31.0,0
1452,29.0,-318.0,-29.0,0
1453,32.0,-311.0,-19.0,0
1454,29.0,-303.0,-18.0,0
1455,22.0,-299.0,-12.0,0
1456,24.0,-286.0,-17.0,0
1457,18.0,-279.0,-17.0,0
1458,12.0,-274.0,-19.0,0
1459,8.0,-269.0,-17.0,0
1460,-2.0,-266.0,-21.0,0
1461,-12.0,-252.0,-26.0,0
1462,-13.0,-248.0,-28.0,0
1463,-15.0,-236.0,-31.0,0
1464,-16.0,-231.0,-29.0,0
1465,-14.0,-233.0,-23.0,0
1466,-17.0,-234.0,-16.0,0
1467,-15.0,-237.0,-11.0,0
1468,-15.0,-243.0,1.0,0
1469,-14.0,-243.0,8.0,0
1470,-10.0,-248.0,7.0,0
1471,-16.0,-249.0,13.0,0
1472,-16.0,-252.0,19.0,0
1473,-17.0,-249.0,16.0,0
1474,-15.0,-252.0,20.0,0
1475,-14.0,-251.0,17.0,0
1476,-15.0,-249.0,11.0,0
1477,-12.0,-242.0,11.0,0
1478,-7.0,-245.0,11.0,0
1479,-8.0,-246.0,9.0,0
1480,-4.0,-240.0,5.0,0
1481,-1.0,-237.0,9.0,0
1482,-1.0,-235.0,11.0,0
1483,-4.0,-229.0,5.0,0
1484,-1.0,-224.0,3.0,0
1485,0.0,-220.0,6.0,0
1486,1.0,-208.0,-4.0,0
1487,3.0,-208.0,-3.0,0
1488,4.0,-205.0,4.0,0
1489,5.0,-198.0,3.0,0
1490,4.0,-200.0,8.0,0
1491,-3.0,-192.0,6.0,0
1492,7.0,-189.0,5.0,0
1493,4.0,-190.0,8.0,0
1494,6.0,-187.0,8.0,0
1495,10.0,-184.0,11.0,0
1496,13.0,-182.0,12.0,0
1497,19.0,-182.0,13.0,0
1498,21.0,-180.0,17.0,0
1499,29.0,-185.0,16.0,0
1500,30.0,-185.0,19.0,0
1501,31.0,-184.0,23.0,0
1502,40.0,-190.0,21.0,0
1503,44.0,-195.0,26.0,0
1504,47.0,-195.0,23.0,0
1505,50.0,-201.0,29.0,0
1506,52.0,-203.0,27.0,0
1507,52.0,-203.0,28.0,0
1508,58.0,-209.0,26.0,0
1509,58.0,-212.0,27.0,0
1510,56.0,-213.0,30.0,0
1511,54.0,-214.0,33.0,0
1512,53.0,-217.0,37.0,0
1513,58.0,-225.0,49.0,0
1514,55.0,-226.0,50.0,0
1515,54.0,-233.0,62.0,0
1516,49.0,-236.0,71.0,0
1517,48.0,-241.0,75.0,0
1518,46.0,-243.0,78.0,0
1519,38.0,-247.0,81.0,0
1520,33.0,-248.0,91.0,0
1521,26.0,-247.0,92.0,0
1522,24.0,-243.0,87.0,0
1523,20.0,-238.0,85.0,0
1524,16.0,-225.0,82.0,0
1525,19.0,-217.0,75.0,0
1526,23.0,-206.0,71.0,0
1527,27.0,-200.0,69.0,0
1528,32.0,-194.0,65.0,0
1529,38.0,-187.0,60.0,0
1530,42.0,-183.0,54.0,0
1531,41.0,-183.0,53.0,0
1532,40.0,-183.0,54.0,0
1533,42.0,-185.0,51.0,0
1534,34.0,-186.0,56.0,0
1535,21.0,-202.0,57.0,0
1536,21.0,-204.0,52.0,0
1537,18.0,-220.0,56.0,0
1538,13.0,-233.0,57.0,0
1539,14.0,-245.0,56.0,0
1540,11.0,-264.0,62.0,0
1541,4.0,-276.0,61.0,0
1542,-2.0,-286.0,59.0,0
1543,-7.0,-299.0,58.0,0
1544,-12.0,-300.0,61.0,0
1545,-14.0,-312.0,66.0,0
1546,-16.0,-323.0,69.0,0
1547,-15.0,-326.0,69.0,0
1548,-15.0,-337.0,64.0,0
1549,-12.0,-346.0,61.0,0
1550,-11.0,-342.0,49.0,0
1551,2.0,-349.0,42.0,0
1552,5.0,-346.0,35.0,0
1553,11.0,-336.0,14.0,0
1554,22.0,-340.0,8.0,0
1555,32.0,-332.0,-11.0,0
1556,35.0,-324.0,-23.0,0
1557,47.0,-324.0,-38.0,0
1558,59.0,-318.0,-50.0,0
1559,63.0,-311.0,-63.0,0
1560,77.0,-304.0,-77.0,0
1561,84.0,-302.0,-82.0,0
1562,90.0,-301.0,-90.0,0
1563,99.0,-303.0,-96.0,0
1564,101.0,-301.0,-100.0,0
1565,103.0,-301.0,-104.0,0
1566,96.0,-297.0,-104.0,0
1567,92.0,-295.0,-113.0,0
1568,86.0,-292.0,-103.0,0
1569,75.0,-284.0,-98.0,0
1570,62.0,-282.0,-97.0,0
1571,50.0,-273.0,-87.0,0
1572,38.0,-268.0,-82.0,0
1573,18.0,-257.0,-74.0,0
1574,2.0,-256.0,-62.0,0
1575,-12.0,-253.0,-57.0,0
1576,-22.0,-252.0,-51.0,0
1577,-34.0,-251.0,-42.0,0
1578,-44.0,-252.0,-37.0,0
1579,-55.0,-253.0,-32.0,0
1580,-63.0,-251.0,-30.0,0
1581,-68.0,-257.0,-26.0,0
1582,-71.0,-260.0,-23.0,0
1583,-78.0,-261.0,-19.0,0
1584,-83.0,-263.0,-15.0,0
1585,-78.0,-266.0,-16.0,0
1586,-73.0,-271.0,-13.0,0
1587,-67.0,-275.0,-11.0,0
1588,-61.0,-283.0,-7.0,0
1589,-48.0,-289.0,-7.0,0
1590,-32.0,-296.0,-4.0,0
1591,-20.0,-301.0,-3.0,0
1592,-9.0,-300.0,-4.0,0
1593,0.0,-299.0,-2.0,0
1594,15.0,-292.0,-5.0,0
1595,25.0,-285.0,-6.0,0
1596,27.0,-277.0,-8.0,0
1597,38.0,-268.0,-9.0,0
1598,41.0,-263.0,-5.0,0
1599,44.0,-251.0,-5.0,0
1600,54.0,-241.0,-3.0,0
1601,41.0,-231.0,-11.0,0
1602,37.0,-225.0,-3.0,0
1603,36.0,-215.0,-6.0,0
1604,36.0,-212.0,-9.0,0
1605,46.0,-217.0,-7.0,0
1606,33.0,-217.0,-10.0,0
1607,25.0,-205.0,-12.0,0
1608,13.0,-196.0,-21.0,0
1609,9.0,-195.0,-26.0,0
1610,1.0,-192.0,-26.0,0
1611,-15.0,-180.0,-29.0,0
1612,-4.0,-191.0,-24.0,0
1613,-6.0,-198.0,-22.0,0
1614,-10.0,-201.0,-16.0,0
1615,-14.0,-203.0,-12.0,0
1616,-16.0,-207.0,-13.0,0
1617,-16.0,-205.0,-7.0,0
1618,-16.0,-210.0,-1.0,0
1619,-16.0,-213.0,-5.0,0
1620,-19.0,-215.0,-2.0,0
1621,-22.0,-218.0,0.0,0
1622,-27.0,-214.0,-7.0,0
1623,-28.0,-219.0,2.0,0
1624,-29.0,-218.0,3.0,0
1625,-34.0,-218.0,5.0,0
1626,-38.0,-216.0,3.0,0
1627,-42.0,-213.0,8.0,0
1628,-47.0,-214.0,7.0,0
1629,-48.0,-213.0,8.0,0
1630,-48.0,-207.0,12.0,0
1631,-48.0,-209.0,14.0,0
1632,-48.0,-205.0,16.0,0
1633,-48.0,-205.0,16.0,0
1634,-47.0,-205.0,20.0,0
1635,-43.0,-205.0,18.0,0
1636,-37.0,-203.0,21.0,0
1637,-33.0,-204.0,25.0,0
1638,-28.0,-205.0,24.0,0
1639,-25.0,-207.0,31.0,0
1640,-19.0,-210.0,35.0,0
1641,-18.0,-210.0,40.0,0
1642,-16.0,-214.0,39.0,0
1643,-14.0,-222.0,43.0,0
1644,-14.0,-226.0,53.0,0
1645,-9.0,-229.0,51.0,0
1646,-7.0,-235.0,63.0,0
1647,-5.0,-239.0,65.0,0
1648,-4.0,-242.0,75.0,0
1649,-5.0,-243.0,78.0,0
1650,-6.0,-245.0,81.0,0
1651,-4.0,-246.0,79.0,0
1652,-3.0,-245.0,79.0,0
1653,-7.0,-240.0,73.0,0
1654,-8.0,-239.0,64.0,0
1655,-8.0,-233.0,55.0,0
1656,-5.0,-231.0,53.0,0
1657,-7.0,-226.0,48.0,0
1658,-8.0,-220.0,49.0,0
1659,-5.0,-222.0,47.0,0
1660,-6.0,-226.0,46.0,0
1661,-7.0,-226.0,41.0,0
1662,-13.0,-234.0,43.0,0
1663,-15.0,-239.0,42.0,0
1664,-16.0,-245.0,45.0,0
1665,-24.0,-246.0,43.0,0
1666,-28.0,-257.0,44.0,0
1667,-32.0,-257.0,41.0,0
1668,-32.0,-266.0,37.0,0
1669,-35.0,-277.0,47.0,0
1670,-33.0,-291.0,50.0,0
1671,-36.0,-292.0,51.0,0
1672,-33.0,-296.0,51.0,0
1673,-39.0,-295.0,50.0,0
1674,-36.0,-303.0,51.0,0
1675,-33.0,-305.0,52.0,0
1676,-39.0,-314.0,52.0,0
1677,-34.0,-308.0,40.0,0
1678,-38.0,-307.0,35.0,0
1679,-42.0,-307.0,30.0,0
1680,-43.0,-303.0,13.0,0
1681,-44.0,-298.0,8.0,0
1682,-46.0,-298.0,-4.0,0
1683,-49.0,-296.0,-22.0,0
1684,-54.0,-296.0,-46.0,0
1685,-52.0,-293.0,-67.0,0
1686,-55.0,-297.0,-85.0,0
1687,-58.0,-297.0,-98.0,0
1688,-54.0,-299.0,-115.0,0
1689,-56.0,-296.0,-132.0,0
1690,-52.0,-291.0,-146.0,0
1691,-45.0,-293.0,-150.0,0
1692,-30.0,-294.0,-149.0,0
1693,-18.0,-286.0,-147.0,0
1694,-7.0,-283.0,-139.0,0
1695,6.0,-282.0,-128.0,0
1696,18.0,-276.0,-118.0,0
1697,33.0,-275.0,-108.0,0
1698,37.0,-279.0,-95.0,0
1699,43.0,-276.0,-84.0,0
1700,47.0,-281.0,-73.0,0
1701,45.0,-280.0,-71.0,0
1702,46.0,-283.0,-60.0,0
1703,47.0,-283.0,-58.0,0
1704,46.0,-287.0,-52.0,0
1705,49.0,-291.0,-44.0,0
1706,44.0,-297.0,-37.0,0
1707,43.0,-306.0,-26.0,0
1708,45.0,-310.0,-28.0,0
1709,42.0,-320.0,-17.0,0
1710,33.0,-322.0,-17.0,0
1711,29.0,-323.0,-12.0,0
1712,19.0,-328.0,-16.0,0
1713,9.0,-326.0,-18.0,0
1714,5.0,-325.0,-11.0,0
1715,1.0,-319.0,-15.0,0
1716,8.0,-313.0,-15.0,0
1717,10.0,-306.0,-17.0,0
1718,8.0,-292.0,-23.0,0
1719,11.0,-280.0,-21.0,0
1720,14.0,-272.0,-23.0,0
1721,9.0,-259.0,-19.0,0
1722,10.0,-245.0,-20.0,0
1723,12.0,-236.0,-22.0,0
1724,16.0,-222.0,-18.0,0
1725,20.0,-220.0,-16.0,0
1726,15.0,-214.0,-6.0,0
1727,12.0,-209.0,1.0,0
1728,6.0,-204.0,4.0,0
1729,5.0,-207.0,10.0,0
1730,-1.0,-206.0,11.0,0
1731,-4.0,-206.0,11.0,0
1732,-7.0,-209.0,11.0,0
1733,-10.0,-205.0,9.0,0
1734,-15.0,-203.0,2.0,0
1735,-13.0,-201.0,-4.0,0
1736,-7.0,-204.0,-5.0,0
1737,-11.0,-203.0,-10.0,0
1738,-9.0,-204.0,-12.0,0
1739,-7.0,-201.0,-19.0,0
1740,-4.0,-199.0,-23.0,0
1741,-3.0,-202.0,-17.0,0
1742,5.0,-202.0,-14.0,0
1743,10.0,-209.0,-7.0,0
1744,15.0,-207.0,-4.0,0
1745,16.0,-205.0,5.0,0
1746,16.0,-205.0,7.0,0
1747,20.0,-205.0,9.0,0
1748,27.0,-201.0,6.0,0
1749,32.0,-190.0,4.0,0
1750,39.0,-190.0,8.0,0
1751,40.0,-180.0,7.0,0
1752,43.0,-181.0,8.0,0
1753,48.0,-180.0,9.0,0
1754,49.0,-170.0,6.0,0
1755,56.0,-177.0,13.0,0
1756,66.0,-172.0,11.0,0
1757,68.0,-172.0,10.0,0
1758,75.0,-172.0,15.0,0
1759,83.0,-178.0,13.0,0
1760,88.0,-181.0,18.0,0
1761,92.0,-183.0,13.0,0
1762,91.0,-185.0,17.0,0
1763,93.0,-193.0,16.0,0
1764,91.0,-199.0,18.0,0
1765,90.0,-211.0,20.0,0
1766,86.0,-212.0,20.0,0
1767,82.0,-219.0,24.0,0
1768,75.0,-226.0,24.0,0
1769,71.0,-239.0,37.0,0
1770,63.0,-246.0,40.0,0
1771,56.0,-253.0,52.0,0
1772,42.0,-258.0,65.0,0
1773,38.0,-250.0,71.0,0
1774,39.0,-265.0,80.0,0
1775,36.0,-276.0,97.0,0
1776,29.0,-282.0,108.0,0
1777,23.0,-281.0,110.0,0
1778,14.0,-286.0,120.0,0
1779,6.0,-280.0,109.0,0
1780,2.0,-268.0,107.0,0
1781,-1.0,-249.0,96.0,0
1782,4.0,-239.0,85.0,0
1783,14.0,-237.0,87.0,0
1784,20.0,-234.0,91.0,0
1785,31.0,-241.0,92.0,0
1786,42.0,-244.0,86.0,0
1787,50.0,-250.0,85.0,0
1788,57.0,-254.0,89.0,0
1789,67.0,-265.0,92.0,0
1790,72.0,-271.0,97.0,0
1791,78.0,-282.0,104.0,0
1792,82.0,-292.0,110.0,0
1793,87.0,-300.0,103.0,0
1794,95.0,-302.0,96.0,0
1795,97.0,-310.0,92.0,0
1796,98.0,-312.0,78.0,0
1797,97.0,-311.0,63.0,0
1798,103.0,-317.0,41.0,0
1799,95.0,-325.0,28.0,0
1800,102.0,-325.0,1.0,0
1801,109.0,-335.0,-16.0,0
1802,109.0,-345.0,-31.0,0
1803,112.0,-352.0,-34.0,0
1804,117.0,-369.0,-30.0,0
1805,120.0,-372.0,-25.0,0
1806,118.0,-387.0,-12.0,0
1807,111.0,-398.0,6.0,0
1808,101.0,-401.0,1.0,0
1809,91.0,-397.0,-1.0,0
1810,85.0,-386.0,-14.0,0
1811,66.0,-376.0,-24.0,0
1812,51.0,-362.0,-40.0,0
1813,25.0,-353.0,-58.0,0
1814,-1.0,-337.0,-72.0,0
1815,-23.0,-324.0,-94.0,0
1816,-43.0,-305.0,-111.0,0
1817,-49.0,-294.0,-125.0,0
1818,-53.0,-276.0,-124.0,0
1819,-51.0,-262.0,-130.0,0
1820,-52.0,-248.0,-126.0,0
1821,-48.0,-234.0,-121.0,0
1822,-42.0,-229.0,-113.0,0
1823,-42.0,-211.0,-107.0,0
1824,-29.0,-206.0,-100.0,0
1825,-23.0,-198.0,-97.0,0
1826,-15.0,-193.0,-84.0,0
1827,-13.0,-181.0,-74.0,0
1828,-6.0,-184.0,-63.0,0
1829,-1.0,-186.0,-54.0,0
1830,8.0,-193.0,-39.0,0
1831,14.0,-198.0,-34.0,0
1832,18.0,-197.0,-36.0,0
1833,19.0,-197.0,-30.0,0
1834,18.0,-211.0,-29.0,0
1835,18.0,-222.0,-24.0,0
1836,20.0,-233.0,-30.0,0
1837,19.0,-239.0,-36.0,0
1838,22.0,-244.0,-31.0,0
1839,29.0,-247.0,-32.0,0
1840,32.0,-243.0,-29.0,0
1841,35.0,-244.0,-24.0,0
1842,36.0,-246.0,-27.0,0
1843,38.0,-244.0,-31.0,0
1844,36.0,-247.0,-27.0,0
1845,25.0,-250.0,-26.0,0
1846,22.0,-251.0,-30.0,0
1847,16.0,-246.0,-35.0,0
1848,12.0,-246.0,-30.0,0
1849,5.0,-241.0,-26.0,0
1850,-3.0,-237.0,-21.0,0
1851,-2.0,-236.0,-14.0,0
1852,-7.0,-230.0,-16.0,0
1853,-12.0,-224.0,-14.0,0
1854,-13.0,-224.0,1.0,0
1855,-16.0,-212.0,-2.0,0
1856,-14.0,-205.0,-5.0,0
1857,-15.0,-198.0,-1.0,0
1858,-14.0,-197.0,-5.0,0
1859,-11.0,-198.0,1.0,0
1860,-4.0,-197.0,3.0,0
1861,-8.0,-201.0,2.0,0
1862,-12.0,-196.0,4.0,0
1863,-8.0,-185.0,2.0,0
1864,-5.0,-184.0,3.0,0
1865,1.0,-187.0,6.0,0
1866,7.0,-193.0,10.0,0
1867,11.0,-182.0,9.0,0
1868,14.0,-187.0,15.0,0
1869,7.0,-191.0,20.0,0
1870,9.0,-188.0,17.0,0
1871,11.0,-188.0,25.0,0
1872,10.0,-177.0,19.0,0
1873,16.0,-178.0,17.0,0
1874,15.0,-177.0,15.0,0
1875,13.0,-179.0,27.0,0
1876,14.0,-183.0,20.0,0
1877,17.0,-184.0,28.0,0
1878,13.0,-172.0,22.0,0
1879,17.0,-163.0,17.0,0
1880,24.0,-161.0,22.0,0
1881,18.0,-154.0,26.0,0
1882,22.0,-150.0,33.0,0
1883,14.0,-149.0,42.0,0
1884,10.0,-160.0,56.0,0
1885,7.0,-167.0,70.0,0
1886,1.0,-163.0,74.0,0
1887,-14.0,-154.0,72.0,0
1888,-22.0,-141.0,66.0,0
1889,-28.0,-140.0,68.0,0
1890,-37.0,-133.0,63.0,0
1891,-39.0,-116.0,52.0,0
1892,-36.0,-124.0,56.0,0
1893,-31.0,-136.0,58.0,0
1894,-22.0,-138.0,59.0,0
1895,-15.0,-146.0,62.0,0
1896,-16.0,-135.0,63.0,0
1897,-16.0,-122.0,56.0,0
1898,-7.0,-122.0,56.0,0
1899,4.0,-146.0,72.0,0
1900,-5.0,-164.0,95.0,0
1901,-10.0,-166.0,92.0,0
1902,-5.0,-190.0,102.0,0
1903,-15.0,-210.0,107.0,0
1904,-6.0,-208.0,102.0,0
1905,-21.0,-260.0,131.0,0
1906,-26.0,-222.0,85.0,0
1907,-23.0,-244.0,73.0,0
1908,-33.0,-237.0,48.0,0
1909,-32.0,-239.0,33.0,0
1910,-24.0,-199.0,-10.0,0
1911,-16.0,-170.0,-45.0,0
1912,-15.0,-143.0,-66.0,0
1913,-9.0,-123.0,-78.0,0
1914,-5.0,-110.0,-83.0,0
1915,-3.0,-93.0,-86.0,0
1916,-3.0,-86.0,-88.0,0
1917,-6.0,-75.0,-93.0,0
1918,-3.0,-71.0,-93.0,0
1919,-4.0,-61.0,-83.0,0
1920,6.0,-57.0,-79.0,0
1921,21.0,-56.0,-84.0,0
1922,18.0,-56.0,-112.0,0
1923,15.0,-55.0,-145.0,0
1924,13.0,-49.0,-164.0,0
1925,16.0,-65.0,-193.0,0
1926,23.0,-84.0,-237.0,0
1927,33.0,-120.0,-263.0,0
1928,32.0,-157.0,-274.0,0
1929,22.0,-203.0,-264.0,0
1930,4.0,-272.0,-259.0,0
1931,-21.0,-346.0,-234.0,0
1932,-25.0,-422.0,-196.0,0
1933,-79.0,-495.0,-122.0,0
1934,-95.0,-562.0,-58.0,0
1935,-111.0,-601.0,1.0,0
1936,-86.0,-620.0,65.0,0
1937,-11.0,-624.0,115.0,0
1938,70.0,-592.0,132.0,0
1939,120.0,-546.0,132.0,0
1940,150.0,-488.0,123.0,0
1941,167.0,-419.0,101.0,0
1942,176.0,-334.0,50.0,0
1943,178.0,-256.0,5.0,0
1944,182.0,-183.0,-44.0,0
1945,191.0,-109.0,-99.0,0
1946,172.0,-65.0,-101.0,0
1947,157.0,-10.0,-142.0,0
1948,140.0,29.0,-149.0,0
1949,95.0,41.0,-145.0,0
1950,56.0,40.0,-118.0,0
1951,24.0,30.0,-83.0,0
1952,-6.0,8.0,-48.0,0
1953,-16.0,-16.0,-9.0,0
1954,-25.0,-26.0,39.0,0
1955,-46.0,-39.0,88.0,0
1956,-52.0,-52.0,121.0,0
1957,-57.0,-52.0,144.0,0
1958,-72.0,-57.0,147.0,0
1959,-83.0,-60.0,131.0,0
1960,-105.0,-62.0,116.0,0
1961,-129.0,-57.0,89.0,0
1962,-144.0,-44.0,56.0,0
1963,-157.0,-26.0,14.0,0
1964,-177.0,-14.0,-14.0,0
1965,-182.0,-15.0,-28.0,0
1966,-184.0,-37.0,-45.0,0
1967,-191.0,-59.0,-54.0,0
1968,-176.0,-95.0,-56.0,0
1969,-157.0,-137.0,-43.0,0
1970,-123.0,-179.0,-10.0,0
1971,-90.0,-220.0,22.0,0
1972,-56.0,-252.0,57.0,0
1973,-12.0,-281.0,80.0,0
1974,16.0,-299.0,88.0,0
1975,45.0,-308.0,90.0,0
1976,50.0,-300.0,96.0,0
1977,60.0,-287.0,95.0,0
1978,70.0,-247.0,93.0,0
1979,62.0,-227.0,110.0,0
1980,83.0,-219.0,114.0,0
1981,77.0,-218.0,128.0,0
1982,59.0,-214.0,133.0,0
1983,37.0,-227.0,132.0,0
1984,18.0,-253.0,134.0,0
1985,-10.0,-294.0,124.0,0
1986,-18.0,-317.0,122.0,0
1987,-51.0,-319.0,132.0,0
1988,-43.0,-314.0,106.0,0
1989,-40.0,-291.0,70.0,2
1990,-44.0,-257.0,54.0,2
1991,-59.0,-248.0,51.0,2
1992,-36.0,-230.0,53.0,2
1993,-49.0,-210.0,40.0,2
1994,-46.0,-215.0,46.0,2
1995,-37.0,-203.0,48.0,2
1996,-17.0,-175.0,103.0,2
1997,30.0,-126.0,187.0,2
1998,-7.0,-82.0,380.0,2
1999,247.0,-80.0,646.0,2
2000,492.0,-139.0,1014.0,2
2001,348.0,-377.0,1566.0,2
2002,-908.0,-343.0,2356.0,2
2003,-1667.0,-413.0,2895.0,2
2004,-1669.0,-522.0,2542.0,2
2005,-1395.0,-686.0,1493.0,2
2006,-2061.0,-457.0,501.0,2
2007,-1044.0,-354.0,387.0,2
2008,-572.0,-227.0,536.0,2
2009,-162.0,-137.0,479.0,2
2010,107.0,-175.0,370.0,2
2011,170.0,-195.0,247.0,2
2012,134.0,-147.0,95.0,2
2013,110.0,-149.0,6.0,2
2014,78.0,-175.0,-16.0,2
2015,36.0,-163.0,12.0,2
2016,32.0,-158.0,44.0,1
2017,33.0,-112.0,43.0,1
2018,53.0,-72.0,60.0,1
2019,76.0,-12.0,81.0,1
2020,106.0,70.0,57.0,1
2021,120.0,80.0,33.0,1
2022,210.0,78.0,27.0,1
2023,198.0,77.0,56.0,1
2024,162.0,48.0,120.0,1
2025,107.0,52.0,163.0,1
2026,39.0,131.0,121.0,1
2027,-22.0,151.0,110.0,1
2028,-75.0,163.0,111.0,1
2029,-132.0,195.0,106.0,1
2030,-192.0,227.0,106.0,1
2031,-234.0,255.0,82.0,1
2032,-263.0,280.0,83.0,1
2033,-261.0,333.0,78.0,1
2034,-274.0,391.0,88.0,1
2035,-268.0,444.0,76.0,1
2036,-300.0,498.0,67.0,1
2037,-338.0,531.0,56.0,1
2038,-335.0,517.0,51.0,1
2039,-282.0,480.0,31.0,1
2040,-240.0,451.0,8.0,1
2041,-192.0,426.0,-12.0,1
2042,-129.0,399.0,-32.0,1
2043,-102.0,365.0,-47.0,1
2044,-62.0,305.0,-28.0,1
2045,-22.0,236.0,-8.0,1
2046,8.0,165.0,17.0,1
2047,33.0,105.0,39.0,1
2048,41.0,66.0,56.0,1
2049,45.0,37.0,86.0,1
2050,48.0,22.0,101.0,1
2051,48.0,7.0,115.0,1
2052,46.0,8.0,126.0,1
2053,27.0,14.0,138.0,1
2054,-9.0,45.0,136.0,1
2055,-34.0,61.0,134.0,1
2056,-72.0,80.0,124.0,1
2057,-92.0,99.0,116.0,1
2058,-92.0,116.0,103.0,1
2059,-94.0,135.0,103.0,1
2060,-88.0,161.0,97.0,1
2061,-79.0,195.0,94.0,1
2062,-71.0,228.0,105.0,1
2063,-57.0,262.0,125.0,1
2064,-36.0,285.0,146.0,1
2065,-13.0,298.0,174.0,1
2066,7.0,302.0,205.0,1
2067,23.0,298.0,253.0,1
2068,33.0,286.0,300.0,1
2069,46.0,265.0,337.0,1
2070,56.0,249.0,352.0,0
2071,66.0,217.0,358.0,0
2072,59.0,183.0,355.0,0
2073,57.0,141.0,339.0,0
2074,55.0,104.0,325.0,0
2075,60.0,75.0,293.0,0
2076,63.0,57.0,259.0,0
2077,62.0,53.0,232.0,0
2078,67.0,48.0,210.0,0
2079,71.0,59.0,200.0,0
2080,76.0,64.0,202.0,0
2081,64.0,78.0,210.0,0
2082,59.0,92.0,210.0,0
2083,52.0,102.0,212.0,0
2084,48.0,116.0,216.0,0
2085,45.0,126.0,218.0,0
2086,37.0,127.0,221.0,0
2087,28.0,121.0,210.0,0
2088,10.0,119.0,194.0,0
2089,-6.0,119.0,176.0,0
2090,-14.0,113.0,161.0,0
2091,-16.0,113.0,140.0,0
2092,-14.0,112.0,132.0,0
2093,-9.0,113.0,129.0,0
2094,-15.0,109.0,134.0,0
2095,-22.0,100.0,141.0,0
2096,-50.0,91.0,164.0,0
2097,-40.0,86.0,178.0,0
2098,-49.0,89.0,184.0,0
2099,-53.0,94.0,186.0,0
2100,-53.0,82.0,203.0,0
2101,-79.0,95.0,222.0,0
2102,-59.0,68.0,238.0,0
2103,-79.0,53.0,262.0,0
2104,-93.0,45.0,268.0,0
2105,-99.0,33.0,274.0,0
2106,-97.0,27.0,272.0,0
2107,-88.0,31.0,259.0,0
2108,-89.0,38.0,244.0,0
2109,-86.0,45.0,234.0,0
2110,-87.0,51.0,220.0,0
2111,-82.0,56.0,210.0,0
2112,-75.0,63.0,197.0,0
2113,-72.0,64.0,191.0,0
2114,-64.0,71.0,185.0,0
2115,-56.0,76.0,185.0,0
2116,-45.0,84.0,184.0,0
2117,-40.0,95.0,181.0,0
2118,-39.0,104.0,187.0,0
2119,-39.0,118.0,173.0,0
2120,-45.0,130.0,167.0,0
2121,-45.0,141.0,160.0,0
2122,-54.0,139.0,167.0,0
2123,-60.0,140.0,172.0,0
2124,-58.0,138.0,179.0,0
2125,-55.0,118.0,183.0,0
2126,-58.0,98.0,198.0,0
2127,-68.0,87.0,207.0,0
2128,-59.0,67.0,215.0,0
2129,-75.0,56.0,225.0,0
2130,-75.0,42.0,232.0,0
2131,-73.0,17.0,237.0,0
2132,-69.0,10.0,239.0,0
2133,-77.0,-1.0,241.0,0
2134,-78.0,-2.0,232.0,0
2135,-76.0,-3.0,227.0,0
2136,-75.0,8.0,212.0,0
2137,-78.0,13.0,206.0,0
2138,-79.0,25.0,206.0,0
2139,-79.0,30.0,200.0,0
2140,-82.0,37.0,202.0,0
2141,-81.0,45.0,194.0,0
2142,-81.0,46.0,185.0,0
2143,-74.0,52.0,182.0,0
2144,-71.0,55.0,189.0,0
2145,-58.0,63.0,183.0,0
2146,-64.0,71.0,195.0,0
2147,-62.0,75.0,197.0,0
2148,-53.0,78.0,208.0,0
2149,-65.0,79.0,215.0,0
2150,-74.0,78.0,211.0,0
2151,-67.0,76.0,220.0,0
2152,-77.0,79.0,213.0,0
2153,-71.0,71.0,206.0,0
2154,-79.0,62.0,204.0,0
2155,-81.0,46.0,213.0,0
2156,-83.0,34.0,212.0,0
2157,-86.0,24.0,212.0,0
2158,-88.0,15.0,224.0,0
2159,-84.0,13.0,226.0,0
2160,-80.0,11.0,224.0,0
2161,-80.0,13.0,224.0,0
2162,-76.0,12.0,222.0,0
2163,-66.0,26.0,212.0,0
2164,-73.0,29.0,217.0,0
2165,-65.0,41.0,212.0,0
2166,-66.0,45.0,209.0,0
2167,-70.0,36.0,208.0,0
2168,-68.0,28.0,202.0,0
2169,-65.0,28.0,187.0,0
2170,-61.0,31.0,178.0,0
2171,-57.0,25.0,177.0,0
2172,-55.0,18.0,189.0,0
2173,-47.0,5.0,196.0,0
2174,-46.0,-2.0,200.0,0
2175,-41.0,-8.0,211.0,0
2176,-39.0,-12.0,220.0,0
2177,-37.0,-13.0,226.0,0
2178,-36.0,-7.0,224.0,0
2179,-35.0,4.0,230.0,0
2180,-33.0,17.0,236.0,0
2181,-33.0,33.0,235.0,0
2182,-31.0,48.0,236.0,0
2183,-40.0,64.0,232.0,0
2184,-47.0,75.0,227.0,0
2185,-64.0,88.0,214.0,0
2186,-75.0,96.0,205.0,0
2187,-81.0,99.0,188.0,0
2188,-83.0,100.0,178.0,0
2189,-79.0,90.0,172.0,0
2190,-69.0,76.0,166.0,0
2191,-56.0,55.0,173.0,0
2192,-40.0,30.0,187.0,0
2193,-25.0,12.0,199.0,0
2194,-14.0,4.0,207.0,0
2195,0.0,-6.0,219.0,0
2196,4.0,-11.0,230.0,0
2197,5.0,-9.0,242.0,0
2198,9.0,-9.0,248.0,0
2199,10.0,-8.0,252.0,0
2200,10.0,0.0,253.0,0
2201,6.0,8.0,252.0,0
2202,4.0,11.0,250.0,0
2203,-3.0,16.0,243.0,0
2204,-5.0,29.0,233.0,0
2205,-10.0,36.0,226.0,0
2206,-10.0,39.0,214.0,0
2207,-16.0,51.0,213.0,0
2208,-15.0,58.0,213.0,0
2209,-15.0,63.0,210.0,0
2210,-13.0,64.0,206.0,0
2211,-14.0,65.0,210.0,0
2212,-12.0,62.0,214.0,0
2213,-9.0,57.0,218.0,0
2214,-8.0,53.0,217.0,0
2215,-6.0,50.0,223.0,0
2216,1.0,46.0,221.0,0
2217,0.0,46.0,218.0,0
2218,-2.0,44.0,221.0,0
2219,2.0,42.0,215.0,0
2220,0.0,39.0,212.0,0
2221,-1.0,38.0,210.0,0
2222,-6.0,40.0,208.0,0
2223,-8.0,42.0,202.0,0
2224,-8.0,43.0,199.0,0
2225,-6.0,40.0,196.0,0
2226,-10.0,46.0,196.0,0
2227,-10.0,44.0,196.0,0
2228,-15.0,43.0,199.0,0
2229,-15.0,50.0,201.0,0
2230,-16.0,47.0,201.0,0
2231,-16.0,51.0,204.0,0
2232,-19.0,49.0,209.0,0
2233,-18.0,49.0,212.0,0
2234,-25.0,49.0,219.0,0
2235,-23.0,49.0,224.0,0
2236,-19.0,49.0,227.0,0
2237,-26.0,47.0,226.0,0
2238,-26.0,47.0,226.0,0
2239,-30.0,46.0,228.0,0
2240,-26.0,47.0,229.0,0
2241,-29.0,45.0,222.0,0
2242,-28.0,48.0,221.0,0
2243,-26.0,46.0,217.0,0
2244,-26.0,46.0,219.0,0
2245,-26.0,46.0,216.0,0
2246,-26.0,46.0,214.0,0
2247,-28.0,45.0,215.0,0
2248,-28.0,46.0,215.0,0
2249,-20.0,48.0,207.0,0
2250,-23.0,51.0,211.0,0
2251,-20.0,46.0,212.0,0
2252,-25.0,53.0,208.0,0
2253,-24.0,50.0,210.0,0
2254,-19.0,55.0,214.0,0
2255,-14.0,49.0,211.0,0
2256,-17.0,52.0,213.0,0
2257,-16.0,55.0,211.0,0
2258,-15.0,53.0,214.0,0
2259,-14.0,53.0,217.0,0
2260,-14.0,54.0,212.0,0
2261,-10.0,50.0,215.0,0
2262,-9.0,52.0,214.0,0
2263,-13.0,51.0,216.0,0
2264,-14.0,48.0,214.0,0
2265,-14.0,50.0,216.0,0
2266,-11.0,48.0,219.0,0
2267,-13.0,47.0,219.0,0
2268,-12.0,47.0,216.0,0
2269,-12.0,44.0,220.0,0
2270,-9.0,47.0,216.0,0
2271,-13.0,46.0,220.0,0
2272,-12.0,50.0,217.0,0
2273,-13.0,48.0,215.0,0
2274,-14.0,49.0,215.0,0
2275,-14.0,49.0,215.0,0
2276,-15.0,49.0,212.0,0
2277,-16.0,50.0,212.0,0
2278,-16.0,51.0,214.0,0
2279,-16.0,52.0,210.0,0
2280,-16.0,50.0,209.0,0
2281,-16.0,52.0,210.0,0
2282,-17.0,57.0,209.0,0
2283,-19.0,53.0,209.0,0
2284,-19.0,53.0,213.0,0
2285,-23.0,54.0,211.0,0
2286,-25.0,51.0,212.0,0
2287,-29.0,52.0,215.0,0
2288,-28.0,50.0,213.0,0
2289,-28.0,51.0,213.0,0
2290,-29.0,52.0,210.0,0
2291,-28.0,50.0,212.0,0
2292,-30.0,47.0,211.0,0
2293,-30.0,51.0,216.0,0
2294,-32.0,50.0,214.0,0
2295,-33.0,47.0,217.0,0
2296,-31.0,48.0,212.0,0
2297,-32.0,50.0,212.0,0
2298,-30.0,50.0,214.0,0
2299,-29.0,51.0,209.0,0
2300,-29.0,50.0,210.0,0
2301,-27.0,52.0,212.0,0
2302,-28.0,54.0,213.0,0
2303,-27.0,52.0,212.0,0
2304,-26.0,48.0,218.0,0
2305,-25.0,51.0,211.0,0
2306,-29.0,47.0,212.0,0
2307,-25.0,52.0,215.0,0
2308,-34.0,55.0,204.0,0
2309,-24.0,53.0,216.0,0
2310,-33.0,58.0,227.0,0
2311,-26.0,60.0,219.0,0
2312,-28.0,57.0,206.0,0
2313,-34.0,56.0,217.0,0
2314,-26.0,56.0,205.0,0
2315,-31.0,52.0,211.0,0
2316,-29.0,53.0,214.0,0
2317,-30.0,50.0,216.0,0
2318,-29.0,52.0,207.0,0
2319,-28.0,62.0,206.0,0
2320,-28.0,42.0,209.0,0
2321,-32.0,53.0,214.0,0
2322,-34.0,60.0,214.0,0
2323,-39.0,54.0,203.0,0
2324,-36.0,53.0,210.0,0
2325,-28.0,51.0,219.0,0
2326,-26.0,55.0,210.0,0
2327,-29.0,55.0,218.0,0
2328,-32.0,45.0,215.0,0
2329,-47.0,54.0,203.0,0
2330,-25.0,51.0,214.0,0
2331,-27.0,49.0,211.0,0
2332,-24.0,51.0,213.0,0
2333,-24.0,52.0,215.0,0
2334,-22.0,49.0,214.0,0
2335,-26.0,49.0,214.0,0
2336,-20.0,55.0,213.0,0
2337,-17.0,49.0,208.0,0
2338,-20.0,51.0,216.0,0
2339,-13.0,55.0,220.0,0
2340,-19.0,57.0,210.0,0
2341,-21.0,56.0,217.0,0
2342,-18.0,59.0,219.0,0
2343,-17.0,43.0,209.0,0
2344,-15.0,52.0,200.0,0
2345,-16.0,52.0,211.0,0
2346,-18.0,56.0,214.0,0
2347,-21.0,55.0,215.0,0
2348,-16.0,53.0,216.0,0
2349,-15.0,51.0,209.0,0
2350,-16.0,52.0,214.0,0
2351,-10.0,47.0,210.0,0
2352,-16.0,59.0,217.0,0
2353,-22.0,57.0,210.0,0
2354,-16.0,56.0,226.0,0
2355,-15.0,50.0,212.0,0
2356,-20.0,61.0,219.0,0
2357,-19.0,58.0,217.0,0
2358,-17.0,60.0,218.0,0
2359,-35.0,53.0,219.0,0
2360,-16.0,52.0,207.0,0
2361,-16.0,52.0,210.0,0
2362,-16.0,52.0,210.0,0
2363,-22.0,54.0,208.0,0
2364,-11.0,54.0,206.0,0
2365,-17.0,38.0,229.0,0
2366,-16.0,40.0,211.0,0
2367,-9.0,58.0,198.0,0
2368,-17.0,48.0,210.0,0
2369,-11.0,67.0,190.0,0
2370,-9.0,29.0,236.0,0
2371,-14.0,53.0,236.0,0
2372,-40.0,53.0,219.0,0
2373,-6.0,62.0,201.0,0
2374,-10.0,45.0,214.0,0
2375,-23.0,53.0,211.0,0
2376,-21.0,54.0,210.0,0
2377,-15.0,54.0,210.0,0
2378,-19.0,57.0,214.0,0
2379,-17.0,57.0,212.0,0
2380,-11.0,52.0,214.0,0
2381,-24.0,40.0,206.0,0
2382,-21.0,47.0,229.0,0
2383,-20.0,52.0,214.0,0
2384,-24.0,42.0,203.0,0
2385,-21.0,49.0,203.0,0
2386,-7.0,55.0,217.0,0
2387,-31.0,47.0,218.0,0
2388,-24.0,48.0,212.0,0
2389,-11.0,75.0,208.0,0
2390,-31.0,48.0,223.0,0
2391,-22.0,59.0,210.0,0
2392,-22.0,56.0,207.0,0
2393,-19.0,57.0,209.0,0
2394,-20.0,55.0,209.0,0
2395,-13.0,61.0,205.0,0
2396,-12.0,52.0,216.0,0
2397,-27.0,51.0,224.0,0
2398,-26.0,56.0,217.0,0
2399,-26.0,54.0,211.0,0
2400,-16.0,54.0,211.0,0
2401,-20.0,52.0,220.0,0
2402,-18.0,62.0,217.0,0
2403,-19.0,56.0,213.0,0
2404,-24.0,57.0,212.0,0
2405,-24.0,57.0,216.0,0
2406,-24.0,56.0,209.0,0
2407,-7.0,47.0,205.0,0
2408,-21.0,57.0,210.0,0
2409,-24.0,57.0,214.0,0
2410,-20.0,56.0,214.0,0
2411,-16.0,56.0,213.0,0
2412,-22.0,53.0,212.0,0
2413,-22.0,54.0,213.0,0
2414,-19.0,52.0,211.0,0
2415,-22.0,55.0,214.0,0
2416,-22.0,52.0,212.0,0
2417,-24.0,57.0,218.0,0
2418,-22.0,55.0,209.0,0
2419,-23.0,59.0,214.0,0
2420,-23.0,56.0,211.0,0
2421,-24.0,65.0,212.0,0
2422,-25.0,56.0,213.0,0
2423,-20.0,57.0,211.0,0
2424,-18.0,54.0,211.0,0
2425,-21.0,56.0,209.0,0
2426,-24.0,43.0,207.0,0
2427,-20.0,57.0,215.0,0
2428,-23.0,58.0,211.0,0
2429,-20.0,55.0,217.0,0
2430,-17.0,53.0,212.0,0
2431,-24.0,58.0,213.0,0
2432,-17.0,55.0,210.0,0
2433,-37.0,62.0,215.0,0
2434,-21.0,59.0,213.0,0
2435,-22.0,58.0,214.0,0
2436,-21.0,60.0,213.0,0
2437,-20.0,59.0,214.0,0
2438,-20.0,59.0,215.0,0
2439,-19.0,58.0,209.0,0
2440,-17.0,59.0,212.0,0
2441,-19.0,56.0,211.0,0
2442,-20.0,58.0,212.0,0
2443,-17.0,55.0,211.0,0
2444,-16.0,56.0,211.0,0
2445,-19.0,59.0,213.0,0
2446,-20.0,56.0,214.0,0
2447,-20.0,59.0,214.0,0
2448,-20.0,56.0,211.0,0
2449,-16.0,59.0,212.0,0
2450,-16.0,60.0,212.0,0
2451,-16.0,58.0,216.0,0
2452,-19.0,59.0,211.0,0
2453,-17.0,59.0,217.0,0
2454,-17.0,59.0,214.0,0
2455,-18.0,58.0,214.0,0
2456,-16.0,57.0,216.0,0
2457,-17.0,57.0,211.0,0
2458,-17.0,59.0,211.0,0
2459,-18.0,56.0,214.0,0
2460,-17.0,56.0,214.0,0
2461,-17.0,54.0,210.0,0
2462,-16.0,54.0,208.0,0
2463,-16.0,55.0,215.0,0
2464,-17.0,56.0,213.0,0
2465,-18.0,57.0,214.0,0
2466,-17.0,55.0,209.0,0
2467,-16.0,54.0,212.0,0
2468,-17.0,58.0,214.0,0
2469,-20.0,59.0,210.0,0
2470,-19.0,58.0,213.0,0
2471,-17.0,57.0,208.0,0
2472,-19.0,61.0,213.0,0
2473,-17.0,60.0,214.0,0
2474,-21.0,64.0,210.0,0
2475,-18.0,63.0,215.0,0
2476,-16.0,60.0,217.0,0
2477,-19.0,62.0,210.0,0
2478,-19.0,62.0,212.0,0
2479,-17.0,63.0,214.0,0
2480,-16.0,62.0,213.0,0
2481,-18.0,60.0,210.0,0
2482,-18.0,58.0,218.0,0
2483,-18.0,58.0,213.0,0
2484,-18.0,60.0,211.0,0
2485,-19.0,57.0,215.0,0
2486,-19.0,56.0,210.0,0
2487,-19.0,58.0,212.0,0
2488,-18.0,57.0,209.0,0
2489,-17.0,59.0,208.0,0
2490,-21.0,60.0,212.0,0
2491,-20.0,60.0,211.0,0
2492,-21.0,58.0,213.0,0
2493,-16.0,57.0,211.0,0
2494,-22.0,59.0,211.0,0
2495,-16.0,57.0,205.0,0
2496,-20.0,59.0,213.0,0
2497,-19.0,58.0,211.0,0
2498,-16.0,55.0,212.0,0
2499,-19.0,59.0,213.0,0
2500,-16.0,58.0,213.0,0
2501,-21.0,58.0,211.0,0
2502,-18.0,60.0,215.0,0
2503,-25.0,60.0,213.0,0
2504,-20.0,57.0,212.0,0
2505,-22.0,57.0,215.0,0
2506,-18.0,58.0,211.0,0
2507,-18.0,59.0,212.0,0
2508,-21.0,60.0,212.0,0
2509,-18.0,58.0,216.0,0
2510,-18.0,60.0,213.0,0
2511,-16.0,56.0,209.0,0
2512,-19.0,59.0,211.0,0
2513,-22.0,56.0,213.0,0
2514,-20.0,59.0,213.0,0
2515,-17.0,59.0,213.0,0
2516,-21.0,58.0,211.0,0
2517,-20.0,60.0,210.0,0
2518,-19.0,56.0,213.0,0
2519,-19.0,58.0,214.0,0
2520,-20.0,61.0,208.0,0
2521,-21.0,59.0,208.0,0
2522,-20.0,60.0,208.0,0
2523,-16.0,57.0,209.0,0
2524,-22.0,63.0,208.0,0
2525,-18.0,60.0,208.0,0
2526,-16.0,63.0,212.0,0
2527,-17.0,62.0,213.0,0
2528,-16.0,62.0,211.0,0
2529,-16.0,62.0,212.0,0
2530,-16.0,61.0,210.0,0
2531,-16.0,58.0,211.0,0
2532,-16.0,59.0,217.0,0
2533,-19.0,52.0,207.0,0
2534,-15.0,58.0,214.0,0
2535,-16.0,60.0,217.0,0
2536,-16.0,60.0,213.0,0
2537,-17.0,57.0,212.0,0
2538,-23.0,62.0,216.0,0
2539,-26.0,66.0,216.0,0
2540,-25.0,63.0,211.0,0
2541,-25.0,62.0,217.0,0
2542,-26.0,65.0,216.0,0
2543,-20.0,64.0,214.0,0
2544,-22.0,64.0,209.0,0
2545,-19.0,62.0,211.0,0
2546,-16.0,59.0,209.0,0
2547,-16.0,58.0,208.0,0
2548,-16.0,54.0,209.0,0
2549,-16.0,56.0,206.0,0
2550,-16.0,54.0,211.0,0
2551,-6.0,56.0,208.0,0
2552,-16.0,63.0,218.0,0
2553,-16.0,65.0,218.0,0
2554,-16.0,62.0,217.0,0
2555,-20.0,58.0,218.0,0
2556,-16.0,57.0,215.0,0
2557,-17.0,58.0,209.0,0
2558,-18.0,62.0,211.0,0
2559,-16.0,62.0,209.0,0
2560,-16.0,60.0,211.0,0
2561,-16.0,60.0,210.0,0
2562,-16.0,60.0,211.0,0
2563,-19.0,62.0,215.0,0
2564,-15.0,61.0,211.0,0
2565,-17.0,58.0,216.0,0
2566,-18.0,63.0,213.0,0
2567,-16.0,60.0,211.0,0
2568,-16.0,62.0,215.0,0
2569,-20.0,60.0,213.0,0
2570,-17.0,57.0,215.0,0
2571,-18.0,61.0,213.0,0
2572,-16.0,59.0,216.0,0
2573,-22.0,62.0,216.0,0
2574,-20.0,62.0,210.0,0
2575,-17.0,63.0,211.0,0
2576,-17.0,63.0,208.0,0
2577,-17.0,62.0,215.0,0
2578,-22.0,66.0,211.0,0
2579,-18.0,60.0,209.0,0
2580,-16.0,62.0,209.0,0
2581,-17.0,61.0,211.0,0
2582,-17.0,62.0,211.0,0
2583,-16.0,57.0,214.0,0
2584,-16.0,61.0,211.0,0
2585,-16.0,60.0,211.0,0
2586,-19.0,60.0,207.0,0
2587,-16.0,60.0,214.0,0
2588,-17.0,58.0,210.0,0
2589,-22.0,58.0,214.0,0
2590,-16.0,61.0,211.0,0
2591,-21.0,62.0,215.0,0
2592,-18.0,61.0,209.0,0
2593,-17.0,60.0,212.0,0
2594,-17.0,63.0,210.0,0
2595,-17.0,59.0,208.0,0
2596,-20.0,61.0,208.0,0
2597,-18.0,59.0,214.0,0
2598,-15.0,62.0,213.0,0
2599,-20.0,59.0,212.0,0
2600,-20.0,63.0,214.0,0
2601,-18.0,59.0,215.0,0
2602,-18.0,62.0,213.0,0
2603,-16.0,60.0,216.0,0
2604,-17.0,58.0,213.0,0
2605,-16.0,59.0,214.0,0
2606,-20.0,62.0,214.0,0
2607,-15.0,59.0,214.0,0
2608,-17.0,61.0,207.0,0
2609,-17.0,64.0,212.0,0
2610,-16.0,59.0,213.0,0
2611,-16.0,61.0,210.0,0
2612,-16.0,61.0,213.0,0
2613,-16.0,58.0,210.0,0
2614,-17.0,62.0,208.0,0
2615,-16.0,58.0,212.0,0
2616,-16.0,58.0,215.0,0
2617,-16.0,58.0,209.0,0
2618,-16.0,61.0,212.0,0
2619,-17.0,61.0,208.0,0
2620,-18.0,59.0,211.0,0
2621,-15.0,59.0,210.0,0
2622,-18.0,62.0,214.0,0
2623,-18.0,61.0,217.0,0
2624,-16.0,59.0,212.0,0
2625,-18.0,62.0,214.0,0
2626,-19.0,61.0,215.0,0
2627,-20.0,62.0,214.0,0
2628,-19.0,60.0,210.0,0
2629,-17.0,60.0,213.0,0
2630,-19.0,61.0,213.0,0
2631,-17.0,63.0,210.0,0
2632,-16.0,62.0,212.0,0
2633,-17.0,60.0,214.0,0
2634,-19.0,58.0,218.0,0
2635,-16.0,56.0,211.0,0
2636,-16.0,58.0,211.0,0
2637,-16.0,59.0,207.0,0
2638,-20.0,61.0,211.0,0
2639,-16.0,57.0,213.0,0
2640,-16.0,56.0,212.0,0
2641,-15.0,57.0,210.0,0
2642,-19.0,66.0,211.0,0
2643,-16.0,58.0,211.0,0
2644,-16.0,58.0,207.0,0
2645,-19.0,63.0,212.0,0
2646,-19.0,60.0,212.0,0
2647,-19.0,61.0,209.0,0
2648,-16.0,59.0,213.0,0
2649,-16.0,60.0,211.0,0
2650,-17.0,60.0,211.0,0
2651,-18.0,60.0,213.0,0
2652,-19.0,62.0,215.0,0
2653,-20.0,60.0,214.0,0
2654,-16.0,59.0,219.0,0
2655,-16.0,59.0,212.0,0
2656,-16.0,60.0,210.0,0
2657,-16.0,56.0,213.0,0
2658,-17.0,59.0,211.0,0
2659,-19.0,57.0,211.0,0
2660,-18.0,57.0,210.0,0
2661,-16.0,58.0,207.0,0
2662,-19.0,56.0,209.0,0
2663,-16.0,56.0,209.0,0
2664,-22.0,62.0,206.0,0
2665,-17.0,59.0,210.0,0
2666,-20.0,56.0,209.0,0
2667,-19.0,59.0,210.0,0
2668,-21.0,60.0,213.0,0
2669,-20.0,62.0,211.0,0
2670,-19.0,61.0,212.0,0
2671,-17.0,61.0,211.0,0
2672,-16.0,58.0,214.0,0
2673,-20.0,58.0,214.0,0
2674,-18.0,63.0,213.0,0
2675,-18.0,57.0,213.0,0
2676,-19.0,64.0,214.0,0
2677,-17.0,64.0,213.0,0
2678,-16.0,61.0,211.0,0
2679,-17.0,63.0,214.0,0
2680,-21.0,62.0,214.0,0
2681,-18.0,62.0,212.0,0
2682,-19.0,60.0,213.0,0
2683,-18.0,60.0,213.0,0
2684,-17.0,59.0,214.0,0
2685,-15.0,60.0,223.0,0
2686,-17.0,58.0,210.0,0
2687,-16.0,58.0,208.0,0
2688,-20.0,59.0,212.0,0
2689,-17.0,57.0,208.0,0
2690,-18.0,60.0,211.0,0
2691,-17.0,58.0,213.0,0
2692,-16.0,59.0,215.0,0
2693,-18.0,58.0,210.0,0
2694,-19.0,56.0,212.0,0
2695,-17.0,57.0,204.0,0
2696,-16.0,59.0,212.0,0
2697,-18.0,58.0,209.0,0
2698,-16.0,59.0,211.0,0
2699,-16.0,60.0,208.0,0
2700,-16.0,57.0,213.0,0
2701,-17.0,60.0,212.0,0
2702,-20.0,60.0,212.0,0
2703,-21.0,60.0,214.0,0
2704,-16.0,57.0,213.0,0
2705,-17.0,58.0,217.0,0
2706,-14.0,59.0,217.0,0
2707,-20.0,62.0,212.0,0
2708,-16.0,59.0,211.0,0
2709,-16.0,60.0,214.0,0
2710,-17.0,58.0,212.0,0
2711,-16.0,57.0,212.0,0
2712,-16.0,55.0,210.0,0
2713,-16.0,56.0,210.0,0
2714,-18.0,59.0,214.0,0
2715,-16.0,56.0,210.0,0
2716,-16.0,58.0,209.0,0
2717,-16.0,58.0,210.0,0
2718,-18.0,59.0,211.0,0
2719,-18.0,59.0,211.0,0
2720,-16.0,57.0,211.0,0
2721,-17.0,59.0,213.0,0
2722,-17.0,58.0,213.0,0
2723,-17.0,60.0,208.0,0
2724,-16.0,59.0,213.0,0
2725,-18.0,57.0,210.0,0
2726,-17.0,58.0,211.0,0
2727,-16.0,61.0,214.0,0
2728,-17.0,60.0,213.0,0
2729,-18.0,58.0,212.0,0
2730,-16.0,59.0,214.0,0
2731,-19.0,60.0,215.0,0
2732,-20.0,60.0,210.0,0
2733,-16.0,58.0,214.0,0
2734,-22.0,62.0,214.0,0
2735,-19.0,61.0,212.0,0
2736,-18.0,62.0,211.0,0
2737,-16.0,61.0,213.0,0
2738,-19.0,59.0,215.0,0
2739,-16.0,60.0,213.0,0
2740,-16.0,59.0,212.0,0
2741,-16.0,59.0,214.0,0
2742,-18.0,64.0,216.0,0
2743,-18.0,57.0,213.0,0
2744,-15.0,56.0,211.0,0
2745,-16.0,58.0,210.0,0
2746,-15.0,58.0,216.0,0
2747,-16.0,58.0,211.0,0
2748,-16.0,61.0,211.0,0
2749,-17.0,61.0,211.0,0
2750,-16.0,60.0,214.0,0
2751,-19.0,59.0,209.0,0
2752,-16.0,60.0,212.0,0
2753,-21.0,62.0,212.0,0
2754,-17.0,60.0,212.0,0
2755,-17.0,60.0,211.0,0
2756,-19.0,64.0,216.0,0
2757,-19.0,60.0,213.0,0
2758,-16.0,62.0,217.0,0
2759,-18.0,60.0,216.0,0
2760,-19.0,62.0,215.0,0
2761,-18.0,59.0,212.0,0
2762,-17.0,54.0,208.0,0
2763,-16.0,55.0,209.0,0
2764,-16.0,57.0,210.0,0
2765,-16.0,58.0,214.0,0
2766,-17.0,53.0,211.0,0
2767,-18.0,55.0,213.0,0
2768,-19.0,56.0,209.0,0
2769,-16.0,59.0,208.0,0
2770,-19.0,57.0,213.0,0
2771,-16.0,58.0,212.0,0
2772,-18.0,61.0,210.0,0
2773,-16.0,61.0,207.0,0
2774,-17.0,60.0,213.0,0
2775,-17.0,62.0,210.0,0
2776,-16.0,64.0,211.0,0
2777,-19.0,64.0,213.0,0
2778,-16.0,63.0,216.0,0
2779,-17.0,64.0,212.0,0
2780,-17.0,63.0,215.0,0
2781,-17.0,59.0,215.0,0
2782,-16.0,64.0,213.0,0
2783,-18.0,62.0,214.0,0
2784,-20.0,62.0,213.0,0
2785,-18.0,60.0,209.0,0
2786,-16.0,60.0,215.0,0
2787,-16.0,60.0,215.0,0
2788,-17.0,61.0,211.0,0
2789,-16.0,61.0,213.0,0
2790,-15.0,58.0,210.0,0
2791,-16.0,60.0,208.0,0
2792,-18.0,60.0,212.0,0
2793,-20.0,61.0,211.0,0
2794,-14.0,50.0,210.0,0
2795,-18.0,58.0,211.0,0
2796,-20.0,59.0,210.0,0
2797,-22.0,61.0,211.0,0
2798,-18.0,58.0,213.0,0
2799,-23.0,61.0,214.0,0
2800,-16.0,60.0,211.0,0
2801,-19.0,62.0,211.0,0
2802,-16.0,62.0,212.0,0
2803,-16.0,60.0,211.0,0
2804,-20.0,62.0,213.0,0
2805,-19.0,59.0,211.0,0
2806,-18.0,59.0,212.0,0
2807,-17.0,60.0,215.0,0
2808,-20.0,60.0,212.0,0
2809,-16.0,57.0,212.0,0
2810,-16.0,59.0,215.0,0
2811,-17.0,57.0,214.0,0
2812,-16.0,60.0,210.0,0
2813,-16.0,59.0,210.0,0
2814,-16.0,63.0,218.0,0
2815,-16.0,62.0,213.0,0
2816,-15.0,54.0,208.0,0
2817,-16.0,62.0,210.0,0
2818,-17.0,62.0,212.0,0
2819,-16.0,60.0,209.0,0
2820,-16.0,59.0,208.0,0
2821,-17.0,60.0,212.0,0
2822,-16.0,61.0,209.0,0
2823,-16.0,61.0,209.0,0
2824,-16.0,56.0,209.0,0
2825,-18.0,60.0,215.0,0
2826,-16.0,59.0,212.0,0
2827,-16.0,61.0,208.0,0
2828,-16.0,59.0,208.0,0
2829,-18.0,61.0,208.0,0
2830,-17.0,61.0,209.0,0
2831,-16.0,61.0,209.0,0
2832,-15.0,62.0,211.0,0
2833,-17.0,64.0,211.0,0
2834,-17.0,63.0,210.0,0
2835,-17.0,65.0,212.0,0
2836,-17.0,63.0,212.0,0
2837,-18.0,60.0,213.0,0
2838,-17.0,62.0,224.0,0
2839,-16.0,59.0,214.0,0
2840,-18.0,62.0,212.0,0
2841,-17.0,62.0,212.0,0
2842,-16.0,63.0,211.0,0
2843,-16.0,61.0,210.0,0
2844,-16.0,60.0,213.0,0
2845,-16.0,60.0,220.0,0
2846,-17.0,62.0,213.0,0
2847,-16.0,62.0,211.0,0
2848,-16.0,60.0,215.0,0
2849,-19.0,61.0,212.0,0
2850,-16.0,60.0,211.0,0
2851,-16.0,60.0,211.0,0
2852,-18.0,63.0,215.0,0
2853,-18.0,59.0,211.0,0
2854,-18.0,62.0,214.0,0
2855,-16.0,62.0,212.0,0
2856,-16.0,63.0,212.0,0
2857,-18.0,64.0,211.0,0
2858,-19.0,61.0,214.0,0
2859,-13.0,67.0,214.0,0
2860,-18.0,64.0,214.0,0
2861,-16.0,62.0,212.0,0
2862,-16.0,62.0,217.0,0
2863,-16.0,61.0,217.0,0
2864,-15.0,61.0,216.0,0
2865,-15.0,58.0,208.0,0
2866,-16.0,64.0,212.0,0
2867,-17.0,60.0,208.0,0
2868,-16.0,59.0,211.0,0
2869,-19.0,58.0,210.0,0
2870,-21.0,60.0,211.0,0
2871,-23.0,60.0,211.0,0
2872,-19.0,59.0,209.0,0
2873,-19.0,60.0,209.0,0
2874,-19.0,62.0,208.0,0
2875,-16.0,60.0,206.0,0
2876,-16.0,62.0,210.0,0
2877,-16.0,62.0,214.0,0
2878,-19.0,65.0,211.0,0
2879,-14.0,65.0,213.0,0
2880,-17.0,67.0,211.0,0
2881,-16.0,63.0,209.0,0
2882,-16.0,64.0,214.0,0
2883,-16.0,64.0,215.0,0
2884,-16.0,64.0,212.0,0
2885,-16.0,64.0,211.0,0
2886,-16.0,65.0,213.0,0
2887,-17.0,63.0,215.0,0
2888,-16.0,65.0,217.0,0
2889,-16.0,64.0,211.0,0
2890,-18.0,64.0,214.0,0
2891,-16.0,64.0,211.0,0
2892,-18.0,64.0,211.0,0
2893,-16.0,65.0,205.0,0
2894,-18.0,65.0,210.0,0
2895,-18.0,63.0,209.0,0
2896,-20.0,66.0,212.0,0
2897,-17.0,63.0,209.0,0
2898,-22.0,66.0,208.0,0
2899,-18.0,63.0,215.0,0
2900,-17.0,65.0,213.0,0
2901,-20.0,63.0,210.0,0
2902,-16.0,65.0,212.0,0
2903,-17.0,61.0,215.0,0
2904,-17.0,62.0,208.0,0
2905,-16.0,63.0,214.0,0
2906,-16.0,62.0,211.0,0
2907,-17.0,62.0,211.0,0
2908,-17.0,63.0,208.0,0
2909,-15.0,63.0,208.0,0
2910,-16.0,65.0,210.0,0
2911,-16.0,65.0,212.0,0
2912,-16.0,63.0,211.0,0
2913,-16.0,63.0,213.0,0
2914,-15.0,65.0,210.0,0
2915,-16.0,67.0,212.0,0
2916,-15.0,63.0,215.0,0
2917,-14.0,61.0,213.0,0
2918,-16.0,64.0,212.0,0
2919,-16.0,66.0,213.0,0
2920,-16.0,63.0,211.0,0
2921,-17.0,64.0,212.0,0
2922,-16.0,63.0,210.0,0
2923,-16.0,63.0,213.0,0
2924,-17.0,61.0,208.0,0
2925,-18.0,65.0,212.0,0
2926,-16.0,66.0,214.0,0
2927,-15.0,65.0,211.0,0
2928,-17.0,63.0,210.0,0
2929,-16.0,64.0,213.0,0
2930,-16.0,64.0,209.0,0
2931,-18.0,64.0,212.0,0
2932,-17.0,62.0,213.0,0
2933,-16.0,65.0,209.0,0
2934,-16.0,66.0,211.0,0
2935,-16.0,66.0,207.0,0
2936,-16.0,63.0,205.0,0
2937,-16.0,61.0,210.0,0
2938,-18.0,64.0,214.0,0
2939,-19.0,65.0,212.0,0
2940,-18.0,66.0,211.0,0
2941,-16.0,66.0,214.0,0
2942,-16.0,65.0,214.0,0
2943,-15.0,64.0,213.0,0
2944,-15.0,64.0,211.0,0
2945,-16.0,65.0,209.0,0
2946,-2.0,62.0,210.0,0
2947,-21.0,69.0,219.0,0
2948,-18.0,66.0,213.0,0
2949,-17.0,66.0,211.0,0
2950,-19.0,65.0,210.0,0
2951,-18.0,70.0,218.0,0
2952,-33.0,65.0,213.0,0
2953,-17.0,66.0,210.0,0
2954,-16.0,65.0,211.0,0
2955,-15.0,60.0,208.0,0
2956,-16.0,66.0,212.0,0
2957,-16.0,67.0,212.0,0
2958,-16.0,67.0,210.0,0
2959,-17.0,66.0,216.0,0
2960,-18.0,69.0,216.0,0
2961,-16.0,66.0,214.0,0
2962,-16.0,68.0,212.0,0
2963,-16.0,63.0,214.0,0
2964,-19.0,66.0,212.0,0
2965,-16.0,65.0,214.0,0
2966,-18.0,64.0,212.0,0
2967,-16.0,68.0,211.0,0
2968,-16.0,66.0,214.0,0
2969,-16.0,62.0,213.0,0
2970,-17.0,68.0,211.0,0
2971,-18.0,67.0,213.0,0
2972,-16.0,66.0,212.0,0
2973,-16.0,61.0,213.0,0
2974,-16.0,62.0,209.0,0
2975,-17.0,63.0,209.0,0
2976,-16.0,64.0,216.0,0
2977,-16.0,62.0,211.0,0
2978,-16.0,63.0,214.0,0
2979,-15.0,62.0,209.0,0
2980,-18.0,62.0,213.0,0
2981,-18.0,61.0,211.0,0
2982,-15.0,61.0,210.0,0
2983,-16.0,62.0,210.0,0
2984,-16.0,63.0,211.0,0
2985,-16.0,66.0,211.0,0
2986,-18.0,67.0,211.0,0
2987,-16.0,66.0,214.0,0
2988,-16.0,66.0,211.0,0
2989,-16.0,68.0,210.0,0
2990,-18.0,66.0,216.0,0
2991,-15.0,64.0,217.0,0
2992,-16.0,68.0,211.0,0
2993,-16.0,70.0,211.0,0
2994,-15.0,70.0,210.0,0
2995,-18.0,69.0,214.0,0
2996,-17.0,65.0,213.0,0
2997,-16.0,67.0,209.0,0
2998,-15.0,64.0,215.0,0
2999,-16.0,62.0,213.0,0
