,accelerometer_x,accelerometer_y,accelerometer_z,fall
0,-51.0,-8.0,258.0,0
1,-50.0,-7.0,262.0,0
2,-53.0,-6.0,260.0,0
3,-49.0,-8.0,261.0,0
4,-51.0,-7.0,259.0,0
5,-54.0,-8.0,257.0,0
6,-50.0,-6.0,258.0,0
7,-49.0,-7.0,255.0,0
8,-50.0,-9.0,257.0,0
9,-50.0,-6.0,258.0,0
10,-50.0,-9.0,261.0,0
11,-51.0,-9.0,260.0,0
12,-50.0,-9.0,260.0,0
13,-48.0,-7.0,258.0,0
14,-51.0,-10.0,258.0,0
15,-53.0,-10.0,258.0,0
16,-51.0,-8.0,259.0,0
17,-48.0,-10.0,259.0,0
18,-48.0,-10.0,260.0,0
19,-50.0,-8.0,256.0,0
20,-50.0,-10.0,260.0,0
21,-51.0,-9.0,258.0,0
22,-51.0,-10.0,259.0,0
23,-50.0,-7.0,260.0,0
24,-51.0,-9.0,259.0,0
25,-51.0,-6.0,257.0,0
26,-44.0,-4.0,266.0,0
27,-48.0,-7.0,257.0,0
28,-49.0,-7.0,262.0,0
29,-50.0,-7.0,261.0,0
30,-51.0,-7.0,258.0,0
31,-52.0,-8.0,263.0,0
32,-50.0,-7.0,258.0,0
33,-49.0,-8.0,256.0,0
34,-53.0,-7.0,260.0,0
35,-52.0,-7.0,261.0,0
36,-51.0,-10.0,260.0,0
37,-50.0,-10.0,260.0,0
38,-52.0,-9.0,258.0,0
39,-51.0,-6.0,262.0,0
40,-52.0,-9.0,257.0,0
41,-52.0,-7.0,259.0,0
42,-52.0,-8.0,258.0,0
43,-50.0,-11.0,259.0,0
44,-51.0,-12.0,259.0,0
45,-53.0,-9.0,257.0,0
46,-50.0,-8.0,258.0,0
47,-50.0,-11.0,257.0,0
48,-54.0,-9.0,260.0,0
49,-50.0,-8.0,257.0,0
50,-49.0,-12.0,258.0,0
51,-49.0,-12.0,257.0,0
52,-52.0,-11.0,258.0,0
53,-54.0,-12.0,256.0,0
54,-51.0,-13.0,259.0,0
55,-52.0,-12.0,260.0,0
56,-51.0,-12.0,256.0,0
57,-53.0,-10.0,259.0,0
58,-47.0,-16.0,258.0,0
59,-51.0,-10.0,259.0,0
60,-50.0,-13.0,255.0,0
61,-52.0,-12.0,261.0,0
62,-50.0,-13.0,264.0,0
63,-51.0,-14.0,257.0,0
64,-51.0,-10.0,257.0,0
65,-50.0,-14.0,259.0,0
66,-50.0,-15.0,260.0,0
67,-50.0,-14.0,257.0,0
68,-49.0,-17.0,259.0,0
69,-50.0,-16.0,255.0,0
70,-50.0,-14.0,260.0,0
71,-50.0,-14.0,263.0,0
72,-51.0,-17.0,257.0,0
73,-56.0,-15.0,258.0,0
74,-49.0,-18.0,259.0,0
75,-50.0,-17.0,256.0,0
76,-52.0,-18.0,258.0,0
77,-52.0,-16.0,258.0,0
78,-50.0,-15.0,258.0,0
79,-50.0,-19.0,258.0,0
80,-51.0,-19.0,258.0,0
81,-51.0,-18.0,259.0,0
82,-52.0,-19.0,257.0,0
83,-52.0,-17.0,257.0,0
84,-50.0,-22.0,257.0,0
85,-52.0,-18.0,257.0,0
86,-50.0,-22.0,258.0,0
87,-54.0,-17.0,256.0,0
88,-51.0,-17.0,263.0,0
89,-50.0,-20.0,256.0,0
90,-50.0,-20.0,258.0,0
91,-49.0,-25.0,264.0,0
92,-53.0,-20.0,257.0,0
93,-55.0,-22.0,260.0,0
94,-51.0,-22.0,258.0,0
95,-52.0,-20.0,259.0,0
96,-51.0,-20.0,258.0,0
97,-50.0,-22.0,257.0,0
98,-52.0,-22.0,259.0,0
99,-52.0,-21.0,260.0,0
100,-51.0,-24.0,256.0,0
101,-53.0,-22.0,257.0,0
102,-51.0,-23.0,257.0,0
103,-55.0,-20.0,256.0,0
104,-49.0,-22.0,260.0,0
105,-50.0,-21.0,257.0,0
106,-53.0,-23.0,259.0,0
107,-51.0,-24.0,256.0,0
108,-52.0,-26.0,261.0,0
109,-52.0,-24.0,259.0,0
110,-52.0,-24.0,256.0,0
111,-53.0,-24.0,258.0,0
112,-52.0,-24.0,260.0,0
113,-47.0,-23.0,265.0,0
114,-55.0,-24.0,256.0,0
115,-51.0,-26.0,255.0,0
116,-51.0,-26.0,259.0,0
117,-50.0,-27.0,259.0,0
118,-49.0,-25.0,260.0,0
119,-52.0,-26.0,257.0,0
120,-55.0,-27.0,259.0,0
121,-52.0,-28.0,257.0,0
122,-52.0,-29.0,260.0,0
123,-50.0,-32.0,259.0,0
124,-56.0,-27.0,259.0,0
125,-52.0,-31.0,256.0,0
126,-50.0,-32.0,257.0,0
127,-53.0,-28.0,256.0,0
128,-53.0,-30.0,258.0,0
129,-52.0,-30.0,256.0,0
130,-53.0,-27.0,254.0,0
131,-51.0,-25.0,254.0,0
132,-51.0,-27.0,256.0,0
133,-52.0,-30.0,256.0,0
134,-54.0,-28.0,256.0,0
135,-49.0,-30.0,258.0,0
136,-55.0,-25.0,253.0,0
137,-54.0,-30.0,256.0,0
138,-52.0,-28.0,257.0,0
139,-52.0,-29.0,258.0,0
140,-53.0,-29.0,259.0,0
141,-49.0,-30.0,257.0,0
142,-54.0,-29.0,257.0,0
143,-51.0,-29.0,256.0,0
144,-53.0,-30.0,256.0,0
145,-53.0,-29.0,257.0,0
146,-52.0,-30.0,256.0,0
147,-50.0,-35.0,259.0,0
148,-52.0,-33.0,257.0,0
149,-51.0,-30.0,258.0,0
150,-51.0,-30.0,257.0,0
151,-52.0,-33.0,258.0,0
152,-53.0,-31.0,255.0,0
153,-52.0,-32.0,258.0,0
154,-53.0,-33.0,256.0,0
155,-52.0,-32.0,255.0,0
156,-50.0,-31.0,255.0,0
157,-53.0,-34.0,255.0,0
158,-50.0,-35.0,256.0,0
159,-52.0,-34.0,259.0,0
160,-55.0,-33.0,258.0,0
161,-50.0,-34.0,256.0,0
162,-49.0,-33.0,257.0,0
163,-54.0,-37.0,256.0,0
164,-52.0,-38.0,259.0,0
165,-53.0,-36.0,255.0,0
166,-52.0,-33.0,258.0,0
167,-50.0,-38.0,259.0,0
168,-52.0,-36.0,256.0,0
169,-54.0,-37.0,256.0,0
170,-54.0,-37.0,256.0,0
171,-54.0,-37.0,255.0,0
172,-52.0,-38.0,256.0,0
173,-53.0,-37.0,252.0,0
174,-51.0,-41.0,258.0,0
175,-52.0,-40.0,258.0,0
176,-53.0,-38.0,257.0,0
177,-53.0,-38.0,254.0,0
178,-55.0,-37.0,252.0,0
179,-53.0,-40.0,258.0,0
180,-54.0,-38.0,257.0,0
181,-54.0,-43.0,256.0,0
182,-52.0,-38.0,255.0,0
183,-55.0,-39.0,255.0,0
184,-52.0,-37.0,257.0,0
185,-54.0,-41.0,255.0,0
186,-53.0,-37.0,258.0,0
187,-52.0,-42.0,256.0,0
188,-52.0,-40.0,254.0,0
189,-52.0,-36.0,253.0,0
190,-53.0,-39.0,255.0,0
191,-53.0,-36.0,258.0,0
192,-54.0,-40.0,252.0,0
193,-52.0,-40.0,252.0,0
194,-52.0,-39.0,256.0,0
195,-52.0,-43.0,256.0,0
196,-55.0,-41.0,255.0,0
197,-54.0,-44.0,255.0,0
198,-52.0,-40.0,254.0,0
199,-52.0,-41.0,255.0,0
200,-51.0,-40.0,256.0,0
201,-50.0,-43.0,257.0,0
202,-53.0,-41.0,258.0,0
203,-54.0,-41.0,257.0,0
204,-54.0,-43.0,257.0,0
205,-52.0,-42.0,256.0,0
206,-55.0,-42.0,257.0,0
207,-53.0,-42.0,258.0,0
208,-50.0,-45.0,256.0,0
209,-56.0,-40.0,251.0,0
210,-53.0,-42.0,256.0,0
211,-55.0,-40.0,256.0,0
212,-53.0,-42.0,257.0,0
213,-52.0,-42.0,256.0,0
214,-53.0,-42.0,255.0,0
215,-52.0,-42.0,254.0,0
216,-54.0,-41.0,254.0,0
217,-53.0,-42.0,254.0,0
218,-56.0,-39.0,255.0,0
219,-53.0,-44.0,259.0,0
220,-55.0,-43.0,256.0,0
221,-52.0,-43.0,256.0,0
222,-45.0,-47.0,259.0,0
223,-51.0,-45.0,254.0,0
224,-54.0,-41.0,256.0,0
225,-52.0,-44.0,255.0,0
226,-53.0,-45.0,254.0,0
227,-54.0,-44.0,256.0,0
228,-54.0,-45.0,257.0,0
229,-52.0,-46.0,257.0,0
230,-50.0,-46.0,252.0,0
231,-51.0,-45.0,256.0,0
232,-53.0,-46.0,251.0,0
233,-53.0,-47.0,254.0,0
234,-52.0,-45.0,252.0,0
235,-50.0,-47.0,253.0,0
236,-54.0,-45.0,254.0,0
237,-52.0,-44.0,257.0,0
238,-56.0,-46.0,255.0,0
239,-53.0,-44.0,253.0,0
240,-52.0,-45.0,255.0,0
241,-56.0,-45.0,255.0,0
242,-52.0,-47.0,256.0,0
243,-51.0,-45.0,256.0,0
244,-52.0,-49.0,254.0,0
245,-54.0,-44.0,254.0,0
246,-56.0,-44.0,251.0,0
247,-54.0,-46.0,257.0,0
248,-53.0,-45.0,250.0,0
249,-55.0,-46.0,255.0,0
250,-54.0,-46.0,254.0,0
251,-52.0,-44.0,254.0,0
252,-52.0,-46.0,256.0,0
253,-55.0,-47.0,251.0,0
254,-57.0,-45.0,255.0,0
255,-52.0,-44.0,254.0,0
256,-55.0,-43.0,253.0,0
257,-54.0,-45.0,255.0,0
258,-54.0,-44.0,252.0,0
259,-53.0,-44.0,254.0,0
260,-52.0,-47.0,252.0,0
261,-53.0,-44.0,257.0,0
262,-54.0,-42.0,252.0,0
263,-54.0,-41.0,255.0,0
264,-54.0,-45.0,256.0,0
265,-50.0,-42.0,255.0,0
266,-50.0,-45.0,253.0,0
267,-52.0,-43.0,257.0,0
268,-54.0,-43.0,261.0,0
269,-53.0,-44.0,255.0,0
270,-53.0,-42.0,257.0,0
271,-54.0,-45.0,256.0,0
272,-55.0,-47.0,255.0,0
273,-54.0,-44.0,256.0,0
274,-49.0,-45.0,255.0,0
275,-51.0,-45.0,255.0,0
276,-53.0,-46.0,257.0,0
277,-51.0,-43.0,253.0,0
278,-53.0,-42.0,256.0,0
279,-55.0,-40.0,254.0,0
280,-51.0,-43.0,255.0,0
281,-55.0,-39.0,253.0,0
282,-51.0,-44.0,254.0,0
283,-54.0,-44.0,257.0,0
284,-53.0,-43.0,254.0,0
285,-51.0,-42.0,255.0,0
286,-54.0,-39.0,257.0,0
287,-53.0,-40.0,255.0,0
288,-58.0,-40.0,255.0,0
289,-52.0,-38.0,258.0,0
290,-54.0,-39.0,254.0,0
291,-52.0,-41.0,257.0,0
292,-55.0,-37.0,254.0,0
293,-54.0,-37.0,255.0,0
294,-53.0,-40.0,255.0,0
295,-53.0,-38.0,257.0,0
296,-53.0,-35.0,256.0,0
297,-52.0,-39.0,258.0,0
298,-48.0,-38.0,257.0,0
299,-52.0,-37.0,258.0,0
300,-51.0,-40.0,254.0,0
301,-56.0,-37.0,256.0,0
302,-55.0,-41.0,258.0,0
303,-52.0,-37.0,257.0,0
304,-54.0,-38.0,255.0,0
305,-54.0,-38.0,256.0,0
306,-54.0,-38.0,258.0,0
307,-54.0,-41.0,257.0,0
308,-54.0,-40.0,260.0,0
309,-56.0,-40.0,257.0,0
310,-53.0,-41.0,262.0,0
311,-54.0,-40.0,258.0,0
312,-55.0,-40.0,258.0,0
313,-57.0,-41.0,258.0,0
314,-56.0,-37.0,256.0,0
315,-56.0,-39.0,258.0,0
316,-57.0,-41.0,263.0,0
317,-59.0,-36.0,265.0,0
318,-58.0,-41.0,262.0,0
319,-59.0,-38.0,261.0,0
320,-58.0,-38.0,261.0,0
321,-59.0,-35.0,259.0,0
322,-59.0,-38.0,265.0,0
323,-60.0,-39.0,264.0,0
324,-62.0,-36.0,269.0,0
325,-61.0,-41.0,268.0,0
326,-66.0,-40.0,267.0,0
327,-64.0,-40.0,266.0,0
328,-68.0,-41.0,264.0,0
329,-69.0,-42.0,265.0,0
330,-70.0,-41.0,264.0,0
331,-71.0,-41.0,265.0,0
332,-78.0,-39.0,260.0,0
333,-78.0,-42.0,262.0,0
334,-79.0,-42.0,263.0,0
335,-80.0,-41.0,260.0,0
336,-84.0,-45.0,262.0,0
337,-81.0,-44.0,259.0,0
338,-81.0,-42.0,260.0,0
339,-80.0,-44.0,262.0,0
340,-80.0,-40.0,257.0,0
341,-76.0,-43.0,256.0,0
342,-82.0,-41.0,255.0,0
343,-77.0,-47.0,259.0,0
344,-78.0,-48.0,256.0,0
345,-78.0,-45.0,255.0,0
346,-76.0,-50.0,257.0,0
347,-76.0,-47.0,258.0,0
348,-76.0,-47.0,257.0,0
349,-79.0,-50.0,260.0,0
350,-72.0,-48.0,263.0,0
351,-68.0,-51.0,261.0,0
352,-68.0,-49.0,261.0,0
353,-68.0,-51.0,265.0,0
354,-57.0,-47.0,260.0,0
355,-48.0,-45.0,268.0,0
356,-40.0,-39.0,269.0,0
357,-34.0,-38.0,265.0,0
358,-23.0,-37.0,269.0,0
359,-22.0,-34.0,267.0,0
360,-30.0,-31.0,268.0,0
361,-34.0,-26.0,269.0,0
362,-37.0,-29.0,273.0,0
363,-39.0,-28.0,272.0,0
364,-40.0,-25.0,274.0,0
365,-47.0,-24.0,270.0,0
366,-49.0,-20.0,273.0,0
367,-51.0,-18.0,271.0,0
368,-49.0,-16.0,271.0,0
369,-47.0,-13.0,263.0,0
370,-46.0,-9.0,262.0,0
371,-45.0,-7.0,261.0,0
372,-50.0,-4.0,259.0,0
373,-53.0,-1.0,259.0,0
374,-56.0,0.0,259.0,0
375,-56.0,3.0,257.0,0
376,-61.0,0.0,258.0,0
377,-61.0,0.0,260.0,0
378,-61.0,-1.0,262.0,0
379,-68.0,1.0,260.0,0
380,-66.0,-2.0,266.0,0
381,-64.0,1.0,265.0,0
382,-71.0,-3.0,266.0,0
383,-75.0,-2.0,268.0,0
384,-79.0,-4.0,265.0,0
385,-82.0,-1.0,259.0,0
386,-87.0,-2.0,256.0,0
387,-92.0,-2.0,254.0,0
388,-91.0,-6.0,249.0,0
389,-97.0,-6.0,242.0,0
390,-101.0,-3.0,240.0,0
391,-107.0,-6.0,233.0,0
392,-113.0,-8.0,229.0,0
393,-120.0,-10.0,218.0,0
394,-124.0,-18.0,212.0,0
395,-126.0,-15.0,208.0,0
396,-120.0,-20.0,200.0,0
397,-122.0,-22.0,198.0,0
398,-122.0,-19.0,189.0,0
399,-110.0,-20.0,193.0,0
400,-107.0,-15.0,195.0,0
401,-107.0,-13.0,193.0,0
402,-103.0,-16.0,197.0,0
403,-94.0,-9.0,200.0,0
404,-94.0,-8.0,203.0,0
405,-92.0,1.0,207.0,0
406,-82.0,-2.0,202.0,0
407,-83.0,3.0,203.0,0
408,-76.0,4.0,201.0,0
409,-78.0,3.0,203.0,0
410,-67.0,-1.0,202.0,0
411,-72.0,0.0,199.0,0
412,-69.0,-3.0,200.0,0
413,-70.0,-4.0,194.0,0
414,-65.0,-8.0,193.0,0
415,-68.0,-10.0,190.0,0
416,-74.0,-11.0,193.0,0
417,-74.0,-14.0,193.0,0
418,-76.0,-14.0,191.0,0
419,-83.0,-12.0,189.0,0
420,-87.0,-8.0,191.0,0
421,-94.0,-6.0,192.0,0
422,-94.0,-5.0,190.0,0
423,-107.0,-6.0,191.0,0
424,-109.0,-5.0,190.0,0
425,-123.0,-2.0,192.0,0
426,-123.0,-3.0,189.0,0
427,-125.0,-4.0,182.0,0
428,-130.0,-6.0,182.0,0
429,-125.0,-5.0,183.0,0
430,-126.0,-2.0,175.0,0
431,-123.0,-4.0,182.0,0
432,-119.0,-4.0,179.0,0
433,-122.0,-5.0,183.0,0
434,-116.0,-8.0,192.0,0
435,-116.0,-13.0,195.0,0
436,-121.0,-8.0,204.0,0
437,-118.0,-3.0,216.0,0
438,-133.0,-11.0,225.0,0
439,-129.0,-14.0,234.0,0
440,-106.0,-15.0,251.0,0
441,-130.0,-23.0,250.0,0
442,-158.0,-30.0,264.0,0
443,-165.0,-36.0,271.0,0
444,-169.0,-50.0,286.0,0
445,-190.0,-61.0,292.0,0
446,-188.0,-68.0,294.0,0
447,-223.0,-76.0,295.0,0
448,-226.0,-88.0,293.0,0
449,-227.0,-86.0,285.0,0
450,-237.0,-87.0,278.0,0
451,-243.0,-90.0,273.0,0
452,-235.0,-87.0,263.0,0
453,-223.0,-82.0,255.0,0
454,-206.0,-73.0,248.0,0
455,-191.0,-65.0,241.0,0
456,-176.0,-57.0,239.0,0
457,-162.0,-50.0,240.0,0
458,-149.0,-45.0,238.0,0
459,-126.0,-25.0,243.0,0
460,-114.0,-27.0,228.0,0
461,-127.0,-26.0,234.0,0
462,-143.0,-26.0,227.0,0
463,-125.0,-20.0,231.0,0
464,-116.0,-18.0,228.0,0
465,-128.0,-20.0,234.0,0
466,-88.0,-28.0,236.0,0
467,-82.0,-31.0,232.0,0
468,-81.0,-16.0,232.0,0
469,-109.0,-31.0,230.0,0
470,-132.0,-45.0,236.0,0
471,-135.0,-39.0,228.0,0
472,-131.0,-31.0,226.0,0
473,-139.0,-30.0,221.0,0
474,-139.0,-31.0,212.0,0
475,-149.0,-26.0,204.0,0
476,-152.0,-21.0,199.0,0
477,-154.0,-30.0,197.0,0
478,-175.0,-28.0,196.0,0
479,-194.0,-47.0,191.0,0
480,-191.0,-41.0,189.0,0
481,-185.0,-24.0,178.0,0
482,-181.0,-11.0,181.0,0
483,-180.0,-4.0,179.0,0
484,-190.0,2.0,190.0,0
485,-199.0,-2.0,189.0,0
486,-202.0,-3.0,188.0,0
487,-195.0,-8.0,186.0,0
488,-193.0,-10.0,186.0,0
489,-189.0,-13.0,179.0,0
490,-183.0,-14.0,181.0,0
491,-183.0,-13.0,175.0,0
492,-183.0,-14.0,180.0,0
493,-198.0,-23.0,190.0,0
494,-233.0,-37.0,194.0,0
495,-193.0,-23.0,178.0,0
496,-149.0,-20.0,176.0,0
497,-154.0,-20.0,186.0,0
498,-161.0,-20.0,194.0,0
499,-163.0,-20.0,200.0,0
500,-138.0,-22.0,207.0,0
501,-166.0,-32.0,214.0,0
502,-145.0,-28.0,204.0,0
503,-151.0,-38.0,214.0,0
504,-184.0,-56.0,213.0,0
505,-160.0,-49.0,205.0,0
506,-157.0,-46.0,198.0,0
507,-161.0,-49.0,192.0,0
508,-167.0,-42.0,187.0,0
509,-169.0,-41.0,181.0,0
510,-177.0,-41.0,176.0,0
511,-177.0,-37.0,176.0,0
512,-179.0,-42.0,178.0,0
513,-186.0,-46.0,177.0,0
514,-187.0,-48.0,175.0,0
515,-191.0,-48.0,167.0,0
516,-186.0,-49.0,167.0,0
517,-190.0,-45.0,158.0,0
518,-197.0,-43.0,155.0,0
519,-202.0,-42.0,154.0,0
520,-202.0,-45.0,151.0,0
521,-202.0,-38.0,149.0,0
522,-207.0,-40.0,150.0,0
523,-205.0,-44.0,145.0,0
524,-205.0,-46.0,143.0,0
525,-209.0,-47.0,148.0,0
526,-209.0,-41.0,150.0,0
527,-213.0,-39.0,147.0,0
528,-205.0,-45.0,153.0,0
529,-205.0,-47.0,153.0,0
530,-202.0,-49.0,154.0,0
531,-199.0,-47.0,150.0,0
532,-195.0,-49.0,156.0,0
533,-199.0,-50.0,153.0,0
534,-196.0,-52.0,152.0,0
535,-192.0,-48.0,154.0,0
536,-194.0,-50.0,156.0,0
537,-193.0,-49.0,156.0,0
538,-192.0,-50.0,157.0,0
539,-196.0,-50.0,156.0,0
540,-195.0,-47.0,155.0,0
541,-196.0,-51.0,157.0,0
542,-198.0,-49.0,153.0,0
543,-195.0,-44.0,150.0,0
544,-197.0,-45.0,148.0,0
545,-203.0,-43.0,149.0,0
546,-201.0,-45.0,145.0,0
547,-205.0,-44.0,144.0,0
548,-209.0,-43.0,141.0,0
549,-209.0,-43.0,147.0,0
550,-212.0,-41.0,139.0,0
551,-211.0,-45.0,139.0,0
552,-216.0,-43.0,140.0,0
553,-216.0,-42.0,141.0,0
554,-214.0,-42.0,139.0,0
555,-221.0,-41.0,137.0,0
556,-225.0,-37.0,137.0,0
557,-225.0,-35.0,137.0,0
558,-225.0,-33.0,132.0,0
559,-229.0,-32.0,126.0,0
560,-231.0,-30.0,127.0,0
561,-230.0,-29.0,128.0,0
562,-232.0,-24.0,124.0,0
563,-233.0,-26.0,126.0,0
564,-233.0,-27.0,119.0,0
565,-231.0,-30.0,121.0,0
566,-232.0,-28.0,116.0,0
567,-232.0,-27.0,115.0,0
568,-238.0,-26.0,112.0,0
569,-230.0,-25.0,109.0,0
570,-232.0,-21.0,114.0,0
571,-233.0,-19.0,114.0,0
572,-235.0,-19.0,109.0,0
573,-240.0,-21.0,110.0,0
574,-236.0,-21.0,112.0,0
575,-241.0,-17.0,112.0,0
576,-241.0,-22.0,112.0,0
577,-242.0,-20.0,116.0,0
578,-241.0,-26.0,116.0,0
579,-241.0,-22.0,116.0,0
580,-239.0,-29.0,113.0,0
581,-238.0,-27.0,116.0,0
582,-239.0,-25.0,114.0,0
583,-241.0,-23.0,114.0,0
584,-240.0,-25.0,113.0,0
585,-240.0,-25.0,114.0,0
586,-238.0,-27.0,111.0,0
587,-239.0,-21.0,108.0,0
588,-244.0,-25.0,109.0,0
589,-244.0,-21.0,109.0,0
590,-243.0,-24.0,108.0,0
591,-242.0,-23.0,108.0,0
592,-243.0,-32.0,105.0,0
593,-243.0,-27.0,103.0,0
594,-242.0,-30.0,106.0,0
595,-242.0,-28.0,108.0,0
596,-239.0,-33.0,101.0,0
597,-240.0,-35.0,102.0,0
598,-245.0,-35.0,102.0,0
599,-243.0,-38.0,108.0,0
600,-240.0,-35.0,110.0,0
601,-242.0,-42.0,110.0,0
602,-243.0,-40.0,112.0,0
603,-244.0,-42.0,113.0,0
604,-246.0,-41.0,109.0,0
605,-240.0,-36.0,108.0,0
606,-243.0,-35.0,106.0,0
607,-243.0,-36.0,106.0,0
608,-247.0,-33.0,104.0,0
609,-244.0,-34.0,102.0,0
610,-245.0,-35.0,99.0,0
611,-246.0,-34.0,100.0,0
612,-246.0,-39.0,102.0,0
613,-244.0,-44.0,103.0,0
614,-251.0,-41.0,97.0,0
615,-251.0,-43.0,105.0,0
616,-247.0,-42.0,99.0,0
617,-248.0,-45.0,96.0,0
618,-246.0,-48.0,97.0,0
619,-250.0,-43.0,97.0,0
620,-247.0,-44.0,99.0,0
621,-252.0,-40.0,93.0,0
622,-247.0,-44.0,97.0,0
623,-246.0,-42.0,96.0,0
624,-249.0,-43.0,94.0,0
625,-249.0,-46.0,93.0,0
626,-246.0,-47.0,90.0,0
627,-249.0,-45.0,93.0,0
628,-246.0,-45.0,92.0,0
629,-249.0,-43.0,98.0,0
630,-248.0,-43.0,94.0,0
631,-246.0,-43.0,94.0,0
632,-246.0,-39.0,91.0,0
633,-244.0,-39.0,93.0,0
634,-244.0,-41.0,91.0,0
635,-244.0,-38.0,94.0,0
636,-246.0,-37.0,94.0,0
637,-240.0,-38.0,99.0,0
638,-241.0,-37.0,92.0,0
639,-244.0,-39.0,93.0,0
640,-240.0,-37.0,94.0,0
641,-242.0,-34.0,91.0,0
642,-243.0,-33.0,94.0,0
643,-243.0,-30.0,96.0,0
644,-240.0,-28.0,94.0,0
645,-240.0,-30.0,95.0,0
646,-238.0,-27.0,101.0,0
647,-242.0,-24.0,99.0,0
648,-237.0,-29.0,102.0,0
649,-237.0,-26.0,100.0,0
650,-241.0,-25.0,107.0,0
651,-242.0,-23.0,104.0,0
652,-240.0,-20.0,109.0,0
653,-240.0,-24.0,109.0,0
654,-238.0,-20.0,106.0,0
655,-241.0,-22.0,108.0,0
656,-239.0,-17.0,111.0,0
657,-235.0,-20.0,107.0,0
658,-236.0,-20.0,110.0,0
659,-234.0,-16.0,114.0,0
660,-234.0,-17.0,112.0,0
661,-233.0,-15.0,114.0,0
662,-235.0,-15.0,114.0,0
663,-231.0,-18.0,120.0,0
664,-234.0,-16.0,116.0,0
665,-231.0,-19.0,116.0,0
666,-232.0,-17.0,114.0,0
667,-234.0,-15.0,116.0,0
668,-232.0,-20.0,115.0,0
669,-228.0,-15.0,115.0,0
670,-227.0,-19.0,116.0,0
671,-230.0,-19.0,114.0,0
672,-228.0,-19.0,114.0,0
673,-233.0,-17.0,111.0,0
674,-228.0,-15.0,112.0,0
675,-229.0,-15.0,112.0,0
676,-233.0,-11.0,112.0,0
677,-233.0,-13.0,115.0,0
678,-231.0,-13.0,111.0,0
679,-229.0,-15.0,114.0,0
680,-232.0,-14.0,115.0,0
681,-231.0,-14.0,116.0,0
682,-231.0,-18.0,119.0,0
683,-232.0,-17.0,123.0,0
684,-230.0,-16.0,121.0,0
685,-227.0,-16.0,121.0,0
686,-230.0,-18.0,123.0,0
687,-228.0,-20.0,119.0,0
688,-231.0,-19.0,118.0,0
689,-229.0,-19.0,123.0,0
690,-228.0,-20.0,120.0,0
691,-228.0,-21.0,121.0,0
692,-228.0,-20.0,122.0,0
693,-226.0,-16.0,119.0,0
694,-225.0,-17.0,122.0,0
695,-225.0,-19.0,124.0,0
696,-224.0,-21.0,121.0,0
697,-225.0,-24.0,124.0,0
698,-224.0,-21.0,121.0,0
699,-222.0,-25.0,123.0,0
700,-225.0,-24.0,127.0,0
701,-228.0,-26.0,124.0,0
702,-225.0,-29.0,124.0,0
703,-226.0,-31.0,122.0,0
704,-228.0,-31.0,124.0,0
705,-224.0,-32.0,118.0,0
706,-225.0,-31.0,118.0,0
707,-223.0,-34.0,118.0,0
708,-226.0,-30.0,113.0,0
709,-223.0,-28.0,113.0,0
710,-225.0,-28.0,114.0,0
711,-226.0,-29.0,113.0,0
712,-225.0,-27.0,111.0,0
713,-228.0,-27.0,112.0,0
714,-225.0,-25.0,112.0,0
715,-226.0,-30.0,109.0,0
716,-229.0,-29.0,109.0,0
717,-232.0,-27.0,108.0,0
718,-230.0,-28.0,112.0,0
719,-234.0,-27.0,109.0,0
720,-231.0,-28.0,110.0,0
721,-232.0,-27.0,112.0,0
722,-235.0,-29.0,111.0,0
723,-234.0,-31.0,109.0,0
724,-236.0,-29.0,113.0,0
725,-240.0,-31.0,111.0,0
726,-233.0,-33.0,108.0,0
727,-237.0,-31.0,111.0,0
728,-236.0,-31.0,109.0,0
729,-235.0,-31.0,107.0,0
730,-236.0,-30.0,106.0,0
731,-233.0,-30.0,107.0,0
732,-234.0,-31.0,107.0,0
733,-233.0,-30.0,102.0,0
734,-235.0,-30.0,101.0,0
735,-237.0,-29.0,104.0,0
736,-237.0,-33.0,105.0,0
737,-237.0,-32.0,105.0,0
738,-232.0,-33.0,107.0,0
739,-235.0,-32.0,108.0,0
740,-233.0,-32.0,106.0,0
741,-233.0,-29.0,106.0,0
742,-235.0,-28.0,102.0,0
743,-235.0,-28.0,102.0,0
744,-235.0,-26.0,106.0,0
745,-236.0,-28.0,103.0,0
746,-237.0,-27.0,103.0,0
747,-238.0,-26.0,101.0,0
748,-235.0,-24.0,105.0,0
749,-234.0,-26.0,102.0,0
750,-238.0,-28.0,103.0,0
751,-240.0,-25.0,104.0,0
752,-238.0,-24.0,101.0,0
753,-237.0,-28.0,103.0,0
754,-239.0,-28.0,99.0,0
755,-238.0,-31.0,101.0,0
756,-241.0,-29.0,100.0,0
757,-241.0,-32.0,99.0,0
758,-241.0,-29.0,97.0,0
759,-239.0,-28.0,100.0,0
760,-240.0,-34.0,96.0,0
761,-241.0,-33.0,99.0,0
762,-238.0,-36.0,98.0,0
763,-239.0,-34.0,98.0,0
764,-241.0,-36.0,97.0,0
765,-243.0,-37.0,97.0,0
766,-245.0,-37.0,96.0,0
767,-244.0,-38.0,99.0,0
768,-241.0,-38.0,98.0,0
769,-246.0,-36.0,95.0,0
770,-249.0,-34.0,93.0,0
771,-249.0,-34.0,94.0,0
772,-246.0,-36.0,88.0,0
773,-248.0,-32.0,91.0,0
774,-249.0,-33.0,91.0,0
775,-252.0,-29.0,86.0,0
776,-251.0,-30.0,85.0,0
777,-249.0,-25.0,85.0,0
778,-251.0,-27.0,84.0,0
779,-251.0,-28.0,83.0,0
780,-253.0,-22.0,82.0,0
781,-247.0,-27.0,82.0,0
782,-245.0,-24.0,83.0,0
783,-245.0,-25.0,83.0,0
784,-249.0,-26.0,82.0,0
785,-249.0,-26.0,82.0,0
786,-252.0,-24.0,81.0,0
787,-250.0,-23.0,83.0,0
788,-248.0,-28.0,82.0,0
789,-252.0,-29.0,79.0,0
790,-252.0,-31.0,75.0,0
791,-248.0,-32.0,75.0,0
792,-251.0,-32.0,70.0,0
793,-249.0,-31.0,72.0,0
794,-251.0,-34.0,69.0,0
795,-256.0,-36.0,69.0,0
796,-256.0,-33.0,69.0,0
797,-258.0,-36.0,70.0,0
798,-256.0,-35.0,68.0,0
799,-256.0,-34.0,64.0,0
800,-260.0,-35.0,65.0,0
801,-258.0,-39.0,60.0,0
802,-266.0,-39.0,63.0,0
803,-268.0,-42.0,59.0,0
804,-265.0,-41.0,59.0,0
805,-266.0,-41.0,56.0,0
806,-267.0,-39.0,54.0,0
807,-266.0,-38.0,52.0,0
808,-264.0,-35.0,50.0,0
809,-263.0,-36.0,49.0,0
810,-261.0,-35.0,48.0,0
811,-260.0,-31.0,48.0,0
812,-261.0,-31.0,47.0,0
813,-259.0,-33.0,49.0,0
814,-262.0,-30.0,49.0,0
815,-257.0,-31.0,45.0,0
816,-252.0,-28.0,46.0,0
817,-251.0,-32.0,50.0,0
818,-247.0,-28.0,51.0,0
819,-244.0,-23.0,51.0,0
820,-244.0,-22.0,50.0,0
821,-242.0,-16.0,54.0,0
822,-249.0,-14.0,51.0,0
823,-248.0,-9.0,51.0,0
824,-244.0,-8.0,47.0,0
825,-240.0,-8.0,47.0,0
826,-239.0,-5.0,49.0,0
827,-232.0,-7.0,46.0,0
828,-238.0,-5.0,43.0,0
829,-238.0,-6.0,41.0,0
830,-239.0,-9.0,43.0,0
831,-237.0,-8.0,42.0,0
832,-237.0,-14.0,36.0,0
833,-237.0,-10.0,37.0,0
834,-237.0,-17.0,33.0,0
835,-237.0,-21.0,36.0,0
836,-237.0,-27.0,35.0,0
837,-237.0,-29.0,37.0,0
838,-239.0,-32.0,39.0,0
839,-237.0,-35.0,40.0,0
840,-240.0,-42.0,39.0,0
841,-240.0,-41.0,44.0,0
842,-236.0,-43.0,46.0,0
843,-242.0,-45.0,43.0,0
844,-245.0,-49.0,44.0,0
845,-250.0,-47.0,40.0,0
846,-252.0,-45.0,37.0,0
847,-252.0,-46.0,31.0,0
848,-254.0,-41.0,29.0,0
849,-255.0,-42.0,30.0,0
850,-256.0,-42.0,28.0,0
851,-257.0,-38.0,24.0,0
852,-261.0,-41.0,31.0,0
853,-264.0,-37.0,28.0,0
854,-260.0,-35.0,29.0,0
855,-257.0,-32.0,32.0,0
856,-254.0,-32.0,35.0,0
857,-252.0,-29.0,27.0,0
858,-247.0,-30.0,22.0,0
859,-244.0,-32.0,20.0,0
860,-242.0,-33.0,12.0,0
861,-244.0,-27.0,5.0,0
862,-242.0,-27.0,-5.0,0
863,-239.0,-37.0,-12.0,0
864,-239.0,-36.0,-9.0,0
865,-237.0,-34.0,-12.0,0
866,-238.0,-38.0,-11.0,0
867,-246.0,-39.0,-15.0,0
868,-246.0,-37.0,-22.0,0
869,-243.0,-42.0,-25.0,0
870,-246.0,-46.0,-25.0,0
871,-246.0,-47.0,-27.0,0
872,-244.0,-52.0,-19.0,0
873,-244.0,-60.0,-20.0,0
874,-253.0,-54.0,-17.0,0
875,-259.0,-56.0,-20.0,0
876,-265.0,-52.0,-16.0,0
877,-274.0,-52.0,-6.0,0
878,-278.0,-48.0,4.0,0
879,-287.0,-48.0,10.0,0
880,-294.0,-43.0,16.0,0
881,-301.0,-38.0,23.0,0
882,-309.0,-31.0,28.0,0
883,-316.0,-29.0,32.0,0
884,-316.0,-25.0,32.0,0
885,-319.0,-19.0,38.0,0
886,-318.0,-19.0,35.0,0
887,-320.0,-17.0,30.0,0
888,-317.0,-16.0,30.0,0
889,-317.0,-16.0,29.0,0
890,-317.0,-17.0,27.0,0
891,-308.0,-18.0,22.0,0
892,-302.0,-26.0,18.0,0
893,-296.0,-27.0,16.0,0
894,-292.0,-33.0,20.0,0
895,-290.0,-34.0,19.0,0
896,-285.0,-38.0,21.0,0
897,-279.0,-41.0,26.0,0
898,-276.0,-42.0,33.0,0
899,-272.0,-47.0,39.0,0
900,-267.0,-49.0,41.0,0
901,-265.0,-51.0,43.0,0
902,-263.0,-53.0,49.0,0
903,-258.0,-54.0,51.0,0
904,-256.0,-57.0,59.0,0
905,-251.0,-55.0,58.0,0
906,-252.0,-53.0,59.0,0
907,-252.0,-53.0,62.0,0
908,-250.0,-49.0,62.0,0
909,-250.0,-47.0,63.0,0
910,-249.0,-42.0,56.0,0
911,-248.0,-37.0,62.0,0
912,-250.0,-35.0,61.0,0
913,-250.0,-32.0,64.0,0
914,-245.0,-32.0,70.0,0
915,-247.0,-32.0,73.0,0
916,-245.0,-27.0,75.0,0
917,-241.0,-27.0,73.0,0
918,-241.0,-27.0,79.0,0
919,-248.0,-20.0,82.0,0
920,-247.0,-15.0,85.0,0
921,-249.0,-17.0,84.0,0
922,-247.0,-15.0,85.0,0
923,-246.0,-15.0,88.0,0
924,-246.0,-14.0,88.0,0
925,-248.0,-13.0,91.0,0
926,-247.0,-16.0,89.0,0
927,-244.0,-16.0,92.0,0
928,-245.0,-24.0,101.0,0
929,-239.0,-22.0,101.0,0
930,-241.0,-24.0,98.0,0
931,-244.0,-22.0,98.0,0
932,-245.0,-20.0,95.0,0
933,-243.0,-16.0,93.0,0
934,-242.0,-15.0,92.0,0
935,-234.0,-20.0,90.0,0
936,-231.0,-18.0,95.0,0
937,-227.0,-18.0,98.0,0
938,-225.0,-17.0,110.0,0
939,-227.0,-16.0,125.0,0
940,-222.0,-19.0,122.0,0
941,-217.0,-19.0,128.0,0
942,-220.0,-19.0,137.0,0
943,-218.0,-16.0,140.0,0
944,-217.0,-16.0,143.0,0
945,-220.0,-12.0,147.0,0
946,-220.0,-13.0,149.0,0
947,-222.0,-9.0,150.0,0
948,-223.0,-9.0,150.0,0
949,-225.0,-11.0,149.0,0
950,-228.0,-9.0,145.0,0
951,-226.0,-13.0,149.0,0
952,-221.0,-21.0,150.0,0
953,-214.0,-24.0,155.0,0
954,-207.0,-28.0,158.0,0
955,-200.0,-36.0,161.0,0
956,-197.0,-40.0,164.0,0
957,-196.0,-43.0,167.0,0
958,-195.0,-46.0,172.0,0
959,-194.0,-49.0,172.0,0
960,-190.0,-55.0,180.0,0
961,-187.0,-60.0,185.0,0
962,-185.0,-58.0,184.0,0
963,-178.0,-60.0,184.0,0
964,-175.0,-60.0,194.0,0
965,-169.0,-64.0,192.0,0
966,-167.0,-61.0,194.0,0
967,-172.0,-59.0,192.0,0
968,-172.0,-54.0,193.0,0
969,-173.0,-47.0,191.0,0
970,-161.0,-44.0,183.0,0
971,-156.0,-38.0,174.0,0
972,-140.0,-27.0,166.0,0
973,-130.0,-15.0,156.0,0
974,-127.0,-5.0,148.0,0
975,-136.0,1.0,148.0,0
976,-143.0,5.0,137.0,0
977,-123.0,13.0,127.0,0
978,-106.0,17.0,116.0,0
979,-99.0,22.0,110.0,0
980,-101.0,21.0,110.0,0
981,-107.0,22.0,115.0,0
982,-108.0,23.0,116.0,0
983,-115.0,24.0,114.0,0
984,-120.0,24.0,107.0,0
985,-121.0,25.0,98.0,0
986,-125.0,25.0,89.0,0
987,-127.0,30.0,89.0,0
988,-131.0,25.0,87.0,0
989,-132.0,26.0,83.0,0
990,-133.0,26.0,88.0,0
991,-133.0,24.0,96.0,0
992,-133.0,22.0,101.0,0
993,-145.0,20.0,102.0,0
994,-151.0,19.0,106.0,0
995,-158.0,17.0,101.0,0
996,-167.0,18.0,95.0,0
997,-176.0,18.0,87.0,0
998,-183.0,16.0,78.0,0
999,-189.0,13.0,68.0,0
1000,-198.0,10.0,65.0,0
1001,-201.0,4.0,69.0,0
1002,-208.0,1.0,69.0,0
1003,-209.0,0.0,65.0,0
1004,-206.0,-13.0,64.0,0
1005,-218.0,-16.0,67.0,0
1006,-226.0,-22.0,69.0,0
1007,-235.0,-26.0,72.0,0
1008,-247.0,-28.0,74.0,0
1009,-252.0,-27.0,82.0,0
1010,-256.0,-24.0,78.0,0
1011,-274.0,-22.0,77.0,0
1012,-294.0,-16.0,81.0,0
1013,-305.0,-11.0,86.0,0
1014,-320.0,-6.0,97.0,0
1015,-329.0,-2.0,101.0,0
1016,-323.0,-6.0,110.0,0
1017,-319.0,-6.0,120.0,0
1018,-321.0,-8.0,135.0,0
1019,-324.0,-13.0,142.0,0
1020,-305.0,-16.0,139.0,0
1021,-335.0,-11.0,142.0,0
1022,-326.0,-16.0,148.0,0
1023,-335.0,-26.0,159.0,0
1024,-347.0,-30.0,162.0,0
1025,-351.0,-31.0,147.0,0
1026,-350.0,-20.0,118.0,0
1027,-353.0,-3.0,90.0,0
1028,-362.0,17.0,62.0,0
1029,-372.0,35.0,38.0,0
1030,-365.0,58.0,19.0,0
1031,-337.0,64.0,7.0,0
1032,-306.0,71.0,1.0,0
1033,-274.0,65.0,10.0,0
1034,-252.0,60.0,30.0,0
1035,-242.0,41.0,56.0,0
1036,-231.0,27.0,76.0,0
1037,-218.0,14.0,99.0,0
1038,-208.0,1.0,111.0,0
1039,-197.0,-12.0,116.0,0
1040,-188.0,-19.0,115.0,0
1041,-186.0,-24.0,117.0,0
1042,-185.0,-29.0,113.0,0
1043,-183.0,-36.0,110.0,0
1044,-181.0,-37.0,107.0,0
1045,-183.0,-39.0,100.0,0
1046,-183.0,-39.0,101.0,0
1047,-185.0,-35.0,93.0,0
1048,-189.0,-34.0,88.0,0
1049,-191.0,-32.0,86.0,0
1050,-201.0,-30.0,78.0,0
1051,-209.0,-20.0,76.0,0
1052,-218.0,-21.0,70.0,0
1053,-219.0,-16.0,67.0,0
1054,-236.0,-5.0,59.0,0
1055,-236.0,2.0,49.0,0
1056,-246.0,13.0,40.0,0
1057,-250.0,20.0,34.0,0
1058,-256.0,25.0,27.0,0
1059,-259.0,32.0,15.0,0
1060,-259.0,30.0,7.0,0
1061,-263.0,33.0,2.0,0
1062,-269.0,36.0,-4.0,0
1063,-283.0,37.0,-11.0,0
1064,-277.0,36.0,-9.0,0
1065,-282.0,31.0,-14.0,0
1066,-278.0,27.0,-16.0,0
1067,-273.0,21.0,-16.0,0
1068,-270.0,21.0,-16.0,0
1069,-272.0,10.0,-22.0,0
1070,-267.0,15.0,-14.0,0
1071,-263.0,8.0,-13.0,0
1072,-259.0,4.0,-7.0,0
1073,-272.0,4.0,-7.0,0
1074,-262.0,0.0,0.0,0
1075,-260.0,2.0,-1.0,0
1076,-275.0,2.0,-3.0,0
1077,-269.0,1.0,-3.0,0
1078,-262.0,1.0,-2.0,0
1079,-270.0,-2.0,-10.0,0
1080,-277.0,1.0,-15.0,0
1081,-269.0,1.0,-19.0,0
1082,-270.0,2.0,-21.0,0
1083,-274.0,0.0,-29.0,0
1084,-279.0,6.0,-36.0,0
1085,-280.0,5.0,-35.0,0
1086,-266.0,7.0,-41.0,0
1087,-267.0,2.0,-38.0,0
1088,-274.0,0.0,-38.0,0
1089,-279.0,6.0,-37.0,0
1090,-265.0,2.0,-33.0,0
1091,-266.0,5.0,-34.0,0
1092,-271.0,5.0,-38.0,0
1093,-267.0,3.0,-34.0,0
1094,-273.0,5.0,-36.0,0
1095,-281.0,1.0,-36.0,0
1096,-265.0,8.0,-28.0,0
1097,-257.0,12.0,-31.0,0
1098,-256.0,9.0,-28.0,0
1099,-257.0,6.0,-27.0,0
1100,-259.0,7.0,-31.0,0
1101,-258.0,5.0,-32.0,0
1102,-251.0,6.0,-26.0,0
1103,-249.0,4.0,-29.0,0
1104,-246.0,0.0,-29.0,0
1105,-250.0,1.0,-24.0,0
1106,-253.0,0.0,-30.0,0
1107,-245.0,8.0,-25.0,0
1108,-241.0,5.0,-28.0,0
1109,-239.0,7.0,-32.0,0
1110,-250.0,10.0,-36.0,0
1111,-251.0,14.0,-40.0,0
1112,-253.0,19.0,-43.0,0
1113,-251.0,19.0,-40.0,0
1114,-252.0,21.0,-45.0,0
1115,-254.0,27.0,-47.0,0
1116,-254.0,27.0,-52.0,0
1117,-255.0,29.0,-52.0,0
1118,-257.0,30.0,-54.0,0
1119,-255.0,34.0,-59.0,0
1120,-254.0,34.0,-58.0,0
1121,-256.0,35.0,-58.0,0
1122,-257.0,35.0,-59.0,0
1123,-254.0,36.0,-64.0,0
1124,-255.0,33.0,-61.0,0
1125,-253.0,31.0,-62.0,0
1126,-259.0,32.0,-62.0,0
1127,-256.0,36.0,-62.0,0
1128,-254.0,30.0,-63.0,0
1129,-254.0,31.0,-63.0,0
1130,-256.0,31.0,-63.0,0
1131,-255.0,26.0,-65.0,0
1132,-252.0,24.0,-67.0,0
1133,-256.0,18.0,-66.0,0
1134,-256.0,23.0,-66.0,0
1135,-251.0,22.0,-69.0,0
1136,-254.0,20.0,-68.0,0
1137,-251.0,18.0,-68.0,0
1138,-252.0,20.0,-68.0,0
1139,-253.0,18.0,-73.0,0
1140,-252.0,18.0,-69.0,0
1141,-248.0,15.0,-69.0,0
1142,-251.0,18.0,-76.0,0
1143,-246.0,17.0,-73.0,0
1144,-252.0,22.0,-75.0,0
1145,-252.0,20.0,-77.0,0
1146,-250.0,23.0,-76.0,0
1147,-251.0,22.0,-74.0,0
1148,-251.0,22.0,-77.0,0
1149,-252.0,24.0,-75.0,0
1150,-250.0,25.0,-75.0,0
1151,-251.0,27.0,-77.0,0
1152,-250.0,25.0,-78.0,0
1153,-252.0,28.0,-77.0,0
1154,-250.0,27.0,-76.0,0
1155,-256.0,23.0,-74.0,0
1156,-251.0,25.0,-72.0,0
1157,-252.0,22.0,-71.0,0
1158,-252.0,19.0,-70.0,0
1159,-253.0,21.0,-69.0,0
1160,-253.0,21.0,-69.0,0
1161,-252.0,21.0,-65.0,0
1162,-252.0,20.0,-65.0,0
1163,-252.0,23.0,-64.0,0
1164,-251.0,22.0,-63.0,0
1165,-248.0,30.0,-69.0,0
1166,-248.0,23.0,-62.0,0
1167,-253.0,25.0,-63.0,0
1168,-252.0,25.0,-63.0,0
1169,-249.0,30.0,-62.0,0
1170,-248.0,30.0,-62.0,0
1171,-250.0,32.0,-58.0,0
1172,-248.0,32.0,-57.0,0
1173,-248.0,31.0,-57.0,0
1174,-247.0,31.0,-51.0,0
1175,-247.0,30.0,-54.0,0
1176,-249.0,29.0,-53.0,0
1177,-247.0,28.0,-48.0,0
1178,-244.0,26.0,-47.0,0
1179,-246.0,24.0,-51.0,0
1180,-248.0,28.0,-49.0,0
1181,-247.0,25.0,-50.0,0
1182,-245.0,19.0,-47.0,0
1183,-245.0,24.0,-46.0,0
1184,-246.0,23.0,-50.0,0
1185,-248.0,22.0,-55.0,0
1186,-248.0,26.0,-48.0,0
1187,-248.0,23.0,-53.0,0
1188,-246.0,22.0,-49.0,0
1189,-248.0,22.0,-47.0,0
1190,-248.0,20.0,-53.0,0
1191,-248.0,21.0,-50.0,0
1192,-251.0,21.0,-53.0,0
1193,-248.0,20.0,-51.0,0
1194,-250.0,20.0,-53.0,0
1195,-247.0,20.0,-51.0,0
1196,-250.0,21.0,-54.0,0
1197,-250.0,20.0,-54.0,0
1198,-247.0,21.0,-51.0,0
1199,-252.0,23.0,-52.0,0
1200,-250.0,21.0,-52.0,0
1201,-251.0,15.0,-53.0,0
1202,-250.0,17.0,-52.0,0
1203,-251.0,15.0,-50.0,0
1204,-249.0,16.0,-52.0,0
1205,-251.0,18.0,-48.0,0
1206,-251.0,18.0,-53.0,0
1207,-248.0,16.0,-46.0,0
1208,-250.0,14.0,-47.0,0
1209,-247.0,16.0,-47.0,0
1210,-249.0,16.0,-45.0,0
1211,-250.0,13.0,-48.0,0
1212,-246.0,12.0,-45.0,0
1213,-247.0,14.0,-44.0,0
1214,-248.0,17.0,-41.0,0
1215,-248.0,15.0,-45.0,0
1216,-248.0,11.0,-43.0,0
1217,-249.0,15.0,-41.0,0
1218,-246.0,16.0,-36.0,0
1219,-248.0,12.0,-40.0,0
1220,-245.0,13.0,-39.0,0
1221,-242.0,14.0,-35.0,0
1222,-242.0,13.0,-35.0,0
1223,-244.0,15.0,-37.0,0
1224,-245.0,14.0,-36.0,0
1225,-243.0,15.0,-30.0,0
1226,-243.0,13.0,-35.0,0
1227,-245.0,18.0,-31.0,0
1228,-244.0,15.0,-34.0,0
1229,-242.0,16.0,-33.0,0
1230,-244.0,17.0,-32.0,0
1231,-245.0,17.0,-32.0,0
1232,-243.0,15.0,-33.0,0
1233,-245.0,18.0,-29.0,0
1234,-245.0,19.0,-29.0,0
1235,-244.0,17.0,-31.0,0
1236,-248.0,18.0,-29.0,0
1237,-241.0,16.0,-31.0,0
1238,-247.0,17.0,-28.0,0
1239,-245.0,18.0,-33.0,0
1240,-242.0,18.0,-36.0,0
1241,-249.0,20.0,-35.0,0
1242,-240.0,19.0,-38.0,0
1243,-245.0,17.0,-37.0,0
1244,-246.0,18.0,-41.0,0
1245,-246.0,22.0,-37.0,0
1246,-247.0,22.0,-37.0,0
1247,-246.0,19.0,-37.0,0
1248,-248.0,21.0,-42.0,0
1249,-246.0,21.0,-39.0,0
1250,-248.0,19.0,-37.0,0
1251,-246.0,24.0,-38.0,0
1252,-244.0,23.0,-42.0,0
1253,-249.0,23.0,-38.0,0
1254,-246.0,23.0,-41.0,0
1255,-250.0,25.0,-43.0,0
1256,-249.0,26.0,-44.0,0
1257,-249.0,23.0,-40.0,0
1258,-249.0,22.0,-41.0,0
1259,-248.0,22.0,-45.0,0
1260,-247.0,27.0,-43.0,0
1261,-246.0,26.0,-43.0,0
1262,-248.0,25.0,-43.0,0
1263,-249.0,25.0,-44.0,0
1264,-249.0,27.0,-47.0,0
1265,-249.0,22.0,-43.0,0
1266,-246.0,23.0,-48.0,0
1267,-247.0,22.0,-43.0,0
1268,-248.0,24.0,-45.0,0
1269,-245.0,23.0,-48.0,0
1270,-247.0,24.0,-49.0,0
1271,-248.0,22.0,-48.0,0
1272,-249.0,23.0,-50.0,0
1273,-248.0,26.0,-51.0,0
1274,-249.0,26.0,-45.0,0
1275,-249.0,27.0,-48.0,0
1276,-250.0,24.0,-50.0,0
1277,-245.0,22.0,-50.0,0
1278,-248.0,28.0,-49.0,0
1279,-249.0,24.0,-51.0,0
1280,-245.0,24.0,-51.0,0
1281,-246.0,24.0,-54.0,0
1282,-246.0,25.0,-48.0,0
1283,-247.0,25.0,-55.0,0
1284,-249.0,28.0,-53.0,0
1285,-249.0,29.0,-55.0,0
1286,-249.0,24.0,-52.0,0
1287,-246.0,26.0,-52.0,0
1288,-250.0,26.0,-52.0,0
1289,-246.0,24.0,-56.0,0
1290,-246.0,22.0,-54.0,0
1291,-248.0,23.0,-57.0,0
1292,-246.0,26.0,-53.0,0
1293,-246.0,22.0,-53.0,0
1294,-248.0,27.0,-54.0,0
1295,-245.0,24.0,-55.0,0
1296,-245.0,21.0,-54.0,0
1297,-248.0,23.0,-54.0,0
1298,-248.0,22.0,-53.0,0
1299,-248.0,19.0,-56.0,0
1300,-250.0,22.0,-54.0,0
1301,-247.0,25.0,-60.0,0
1302,-248.0,26.0,-56.0,0
1303,-250.0,24.0,-57.0,0
1304,-249.0,24.0,-56.0,0
1305,-247.0,23.0,-57.0,0
1306,-247.0,25.0,-56.0,0
1307,-249.0,24.0,-53.0,0
1308,-248.0,26.0,-64.0,0
1309,-249.0,21.0,-55.0,0
1310,-249.0,22.0,-54.0,0
1311,-246.0,20.0,-56.0,0
1312,-245.0,19.0,-55.0,0
1313,-250.0,23.0,-56.0,0
1314,-249.0,22.0,-55.0,0
1315,-245.0,21.0,-56.0,0
1316,-246.0,24.0,-54.0,0
1317,-248.0,24.0,-54.0,0
1318,-247.0,21.0,-52.0,0
1319,-245.0,23.0,-49.0,0
1320,-246.0,22.0,-50.0,0
1321,-247.0,20.0,-48.0,0
1322,-248.0,24.0,-53.0,0
1323,-249.0,23.0,-49.0,0
1324,-249.0,27.0,-50.0,0
1325,-247.0,26.0,-53.0,0
1326,-247.0,26.0,-51.0,0
1327,-246.0,23.0,-49.0,0
1328,-246.0,23.0,-50.0,0
1329,-249.0,25.0,-57.0,0
1330,-248.0,21.0,-47.0,0
1331,-243.0,20.0,-52.0,0
1332,-245.0,22.0,-47.0,0
1333,-248.0,20.0,-47.0,0
1334,-247.0,25.0,-51.0,0
1335,-247.0,25.0,-51.0,0
1336,-247.0,23.0,-45.0,0
1337,-247.0,25.0,-47.0,0
1338,-247.0,20.0,-46.0,0
1339,-247.0,26.0,-49.0,0
1340,-245.0,23.0,-48.0,0
1341,-248.0,24.0,-45.0,0
1342,-245.0,26.0,-47.0,0
1343,-247.0,24.0,-48.0,0
1344,-248.0,25.0,-43.0,0
1345,-248.0,23.0,-44.0,0
1346,-249.0,23.0,-44.0,0
1347,-248.0,25.0,-46.0,0
1348,-249.0,26.0,-49.0,0
1349,-246.0,23.0,-49.0,0
1350,-249.0,25.0,-46.0,0
1351,-244.0,22.0,-45.0,0
1352,-248.0,23.0,-47.0,0
1353,-247.0,26.0,-44.0,0
1354,-247.0,25.0,-47.0,0
1355,-245.0,25.0,-47.0,0
1356,-248.0,25.0,-47.0,0
1357,-249.0,21.0,-43.0,0
1358,-247.0,20.0,-46.0,0
1359,-246.0,22.0,-49.0,0
1360,-247.0,23.0,-46.0,0
1361,-247.0,22.0,-44.0,0
1362,-246.0,26.0,-46.0,0
1363,-247.0,24.0,-48.0,0
1364,-247.0,23.0,-48.0,0
1365,-246.0,21.0,-46.0,0
1366,-248.0,21.0,-43.0,0
1367,-247.0,24.0,-46.0,0
1368,-249.0,24.0,-46.0,0
1369,-246.0,24.0,-45.0,0
1370,-248.0,21.0,-42.0,0
1371,-250.0,21.0,-44.0,0
1372,-248.0,24.0,-47.0,0
1373,-248.0,23.0,-48.0,0
1374,-246.0,18.0,-49.0,0
1375,-245.0,21.0,-50.0,0
1376,-246.0,23.0,-44.0,0
1377,-253.0,24.0,-47.0,0
1378,-250.0,24.0,-45.0,0
1379,-245.0,21.0,-43.0,0
1380,-247.0,23.0,-46.0,0
1381,-246.0,19.0,-47.0,0
1382,-247.0,22.0,-45.0,0
1383,-246.0,23.0,-47.0,0
1384,-247.0,22.0,-45.0,0
1385,-249.0,22.0,-48.0,0
1386,-246.0,19.0,-46.0,0
1387,-247.0,21.0,-43.0,0
1388,-246.0,19.0,-45.0,0
1389,-249.0,24.0,-46.0,0
1390,-249.0,20.0,-52.0,0
1391,-249.0,22.0,-48.0,0
1392,-247.0,20.0,-44.0,0
1393,-249.0,19.0,-49.0,0
1394,-248.0,20.0,-46.0,0
1395,-247.0,20.0,-47.0,0
1396,-247.0,22.0,-45.0,0
1397,-250.0,20.0,-47.0,0
1398,-250.0,22.0,-46.0,0
1399,-246.0,20.0,-44.0,0
1400,-249.0,22.0,-47.0,0
1401,-249.0,22.0,-44.0,0
1402,-248.0,22.0,-46.0,0
1403,-244.0,21.0,-47.0,0
1404,-247.0,22.0,-46.0,0
1405,-250.0,23.0,-50.0,0
1406,-249.0,22.0,-48.0,0
1407,-249.0,23.0,-45.0,0
1408,-248.0,22.0,-48.0,0
1409,-249.0,23.0,-47.0,0
1410,-247.0,21.0,-46.0,0
1411,-249.0,21.0,-47.0,0
1412,-249.0,22.0,-45.0,0
1413,-248.0,24.0,-48.0,0
1414,-250.0,25.0,-46.0,0
1415,-248.0,23.0,-47.0,0
1416,-246.0,22.0,-48.0,0
1417,-249.0,23.0,-47.0,0
1418,-245.0,23.0,-46.0,0
1419,-247.0,23.0,-44.0,0
1420,-249.0,21.0,-45.0,0
1421,-250.0,21.0,-45.0,0
1422,-247.0,23.0,-44.0,0
1423,-248.0,22.0,-45.0,0
1424,-249.0,22.0,-45.0,0
1425,-248.0,22.0,-44.0,0
1426,-248.0,21.0,-42.0,0
1427,-250.0,22.0,-46.0,0
1428,-249.0,23.0,-50.0,0
1429,-246.0,22.0,-44.0,0
1430,-248.0,20.0,-46.0,0
1431,-247.0,23.0,-45.0,0
1432,-249.0,22.0,-45.0,0
1433,-249.0,23.0,-46.0,0
1434,-249.0,21.0,-46.0,0
1435,-247.0,23.0,-43.0,0
1436,-247.0,21.0,-42.0,0
1437,-249.0,29.0,-49.0,0
1438,-248.0,22.0,-47.0,0
1439,-247.0,22.0,-46.0,0
1440,-251.0,21.0,-44.0,0
1441,-250.0,22.0,-44.0,0
1442,-248.0,22.0,-41.0,0
1443,-246.0,22.0,-44.0,0
1444,-250.0,22.0,-46.0,0
1445,-249.0,20.0,-46.0,0
1446,-249.0,24.0,-47.0,0
1447,-250.0,19.0,-44.0,0
1448,-251.0,23.0,-48.0,0
1449,-248.0,19.0,-43.0,0
1450,-248.0,20.0,-40.0,0
1451,-248.0,19.0,-44.0,0
1452,-251.0,24.0,-44.0,0
1453,-247.0,19.0,-42.0,0
1454,-248.0,19.0,-42.0,0
1455,-251.0,23.0,-44.0,0
1456,-251.0,22.0,-45.0,0
1457,-246.0,22.0,-42.0,0
1458,-249.0,22.0,-41.0,0
1459,-248.0,22.0,-44.0,0
1460,-250.0,18.0,-39.0,0
1461,-248.0,22.0,-45.0,0
1462,-248.0,21.0,-39.0,0
1463,-249.0,21.0,-43.0,0
1464,-249.0,22.0,-46.0,0
1465,-248.0,22.0,-42.0,0
1466,-250.0,19.0,-48.0,0
1467,-250.0,20.0,-44.0,0
1468,-251.0,23.0,-46.0,0
1469,-250.0,22.0,-43.0,0
1470,-246.0,23.0,-43.0,0
1471,-248.0,22.0,-43.0,0
1472,-250.0,22.0,-42.0,0
1473,-252.0,21.0,-43.0,0
1474,-248.0,23.0,-45.0,0
1475,-248.0,16.0,-45.0,0
1476,-251.0,19.0,-43.0,0
1477,-248.0,21.0,-46.0,0
1478,-247.0,20.0,-47.0,0
1479,-247.0,20.0,-45.0,0
1480,-248.0,19.0,-44.0,0
1481,-248.0,20.0,-43.0,0
1482,-248.0,21.0,-40.0,0
1483,-249.0,17.0,-42.0,0
1484,-250.0,19.0,-46.0,0
1485,-249.0,23.0,-43.0,0
1486,-249.0,21.0,-44.0,0
1487,-247.0,20.0,-45.0,0
1488,-248.0,22.0,-45.0,0
1489,-246.0,20.0,-42.0,0
1490,-247.0,22.0,-42.0,0
1491,-248.0,21.0,-42.0,0
1492,-249.0,24.0,-42.0,0
1493,-250.0,25.0,-40.0,0
1494,-252.0,22.0,-46.0,0
1495,-251.0,25.0,-45.0,0
1496,-250.0,20.0,-40.0,0
1497,-248.0,22.0,-42.0,0
1498,-250.0,19.0,-41.0,0
1499,-246.0,21.0,-43.0,0
1500,-249.0,21.0,-42.0,0
1501,-250.0,21.0,-43.0,0
1502,-249.0,22.0,-38.0,0
1503,-250.0,20.0,-43.0,0
1504,-250.0,21.0,-46.0,0
1505,-249.0,19.0,-38.0,0
1506,-248.0,20.0,-41.0,0
1507,-249.0,20.0,-43.0,0
1508,-252.0,22.0,-48.0,0
1509,-248.0,23.0,-43.0,0
1510,-251.0,19.0,-44.0,0
1511,-250.0,22.0,-41.0,0
1512,-250.0,20.0,-41.0,0
1513,-250.0,23.0,-43.0,0
1514,-252.0,24.0,-41.0,0
1515,-251.0,23.0,-46.0,0
1516,-250.0,22.0,-42.0,0
1517,-252.0,23.0,-46.0,0
1518,-252.0,24.0,-46.0,0
1519,-253.0,27.0,-45.0,0
1520,-252.0,22.0,-47.0,0
1521,-254.0,27.0,-49.0,0
1522,-253.0,26.0,-48.0,0
1523,-254.0,25.0,-49.0,0
1524,-253.0,28.0,-48.0,0
1525,-257.0,21.0,-56.0,0
1526,-256.0,24.0,-53.0,0
1527,-255.0,22.0,-54.0,0
1528,-259.0,22.0,-52.0,0
1529,-255.0,22.0,-52.0,0
1530,-255.0,25.0,-55.0,0
1531,-259.0,22.0,-51.0,0
1532,-258.0,23.0,-54.0,0
1533,-255.0,24.0,-56.0,0
1534,-257.0,25.0,-56.0,0
1535,-257.0,22.0,-57.0,0
1536,-258.0,25.0,-57.0,0
1537,-257.0,23.0,-60.0,0
1538,-260.0,27.0,-57.0,0
1539,-259.0,24.0,-59.0,0
1540,-261.0,24.0,-55.0,0
1541,-259.0,25.0,-55.0,0
1542,-259.0,25.0,-58.0,0
1543,-258.0,26.0,-56.0,0
1544,-259.0,24.0,-55.0,0
1545,-261.0,28.0,-55.0,0
1546,-256.0,26.0,-59.0,0
1547,-254.0,26.0,-57.0,0
1548,-262.0,23.0,-54.0,0
1549,-257.0,23.0,-55.0,0
1550,-258.0,23.0,-53.0,0
1551,-257.0,20.0,-53.0,0
1552,-256.0,20.0,-48.0,0
1553,-256.0,20.0,-50.0,0
1554,-257.0,20.0,-50.0,0
1555,-258.0,17.0,-48.0,0
1556,-254.0,13.0,-45.0,0
1557,-256.0,17.0,-45.0,0
1558,-256.0,13.0,-43.0,0
1559,-251.0,12.0,-42.0,0
1560,-250.0,9.0,-38.0,0
1561,-251.0,10.0,-33.0,0
1562,-250.0,15.0,-37.0,0
1563,-251.0,7.0,-32.0,0
1564,-252.0,11.0,-27.0,0
1565,-246.0,8.0,-32.0,0
1566,-248.0,7.0,-29.0,0
1567,-249.0,7.0,-26.0,0
1568,-247.0,11.0,-26.0,0
1569,-248.0,3.0,-31.0,0
1570,-247.0,3.0,-28.0,0
1571,-246.0,4.0,-24.0,0
1572,-246.0,3.0,-27.0,0
1573,-246.0,4.0,-25.0,0
1574,-248.0,1.0,-26.0,0
1575,-247.0,1.0,-26.0,0
1576,-246.0,1.0,-22.0,0
1577,-250.0,0.0,-23.0,0
1578,-251.0,1.0,-27.0,0
1579,-252.0,1.0,-24.0,0
1580,-252.0,0.0,-26.0,0
1581,-251.0,0.0,-27.0,0
1582,-252.0,-2.0,-28.0,0
1583,-253.0,0.0,-27.0,0
1584,-253.0,-2.0,-26.0,0
1585,-256.0,-2.0,-25.0,0
1586,-255.0,-3.0,-24.0,0
1587,-256.0,0.0,-25.0,0
1588,-257.0,-1.0,-23.0,0
1589,-258.0,0.0,-19.0,0
1590,-257.0,0.0,-25.0,0
1591,-260.0,2.0,-21.0,0
1592,-258.0,0.0,-24.0,0
1593,-262.0,2.0,-24.0,0
1594,-261.0,1.0,-24.0,0
1595,-260.0,2.0,-18.0,0
1596,-260.0,4.0,-18.0,0
1597,-262.0,4.0,-13.0,0
1598,-258.0,3.0,-14.0,0
1599,-259.0,3.0,-16.0,0
1600,-257.0,5.0,-17.0,0
1601,-257.0,4.0,-13.0,0
1602,-258.0,5.0,-15.0,0
1603,-258.0,5.0,-13.0,0
1604,-259.0,8.0,-6.0,0
1605,-255.0,7.0,-12.0,0
1606,-256.0,7.0,-10.0,0
1607,-256.0,3.0,-11.0,0
1608,-259.0,2.0,-9.0,0
1609,-256.0,3.0,-6.0,0
1610,-254.0,4.0,-7.0,0
1611,-255.0,-1.0,-12.0,0
1612,-254.0,-1.0,-3.0,0
1613,-254.0,-1.0,-2.0,0
1614,-253.0,0.0,-3.0,0
1615,-254.0,0.0,0.0,0
1616,-256.0,-1.0,2.0,0
1617,-252.0,0.0,1.0,0
1618,-253.0,0.0,8.0,0
1619,-252.0,0.0,4.0,0
1620,-255.0,3.0,6.0,0
1621,-252.0,-4.0,9.0,0
1622,-255.0,-2.0,8.0,0
1623,-252.0,0.0,14.0,0
1624,-253.0,-1.0,13.0,0
1625,-251.0,-1.0,16.0,0
1626,-251.0,0.0,13.0,0
1627,-251.0,-2.0,18.0,0
1628,-252.0,-1.0,13.0,0
1629,-248.0,-7.0,16.0,0
1630,-250.0,-8.0,19.0,0
1631,-251.0,-6.0,22.0,0
1632,-251.0,-6.0,25.0,0
1633,-250.0,-7.0,25.0,0
1634,-250.0,-11.0,22.0,0
1635,-252.0,-9.0,28.0,0
1636,-249.0,-9.0,27.0,0
1637,-251.0,-9.0,28.0,0
1638,-252.0,-7.0,30.0,0
1639,-251.0,-12.0,31.0,0
1640,-252.0,-4.0,32.0,0
1641,-250.0,-5.0,29.0,0
1642,-251.0,-7.0,32.0,0
1643,-251.0,-9.0,32.0,0
1644,-251.0,-7.0,34.0,0
1645,-255.0,-4.0,29.0,0
1646,-255.0,-5.0,31.0,0
1647,-256.0,-5.0,32.0,0
1648,-257.0,-5.0,33.0,0
1649,-259.0,-10.0,35.0,0
1650,-257.0,-9.0,35.0,0
1651,-264.0,-7.0,37.0,0
1652,-260.0,-8.0,39.0,0
1653,-264.0,-3.0,39.0,0
1654,-263.0,-1.0,44.0,0
1655,-263.0,-2.0,45.0,0
1656,-261.0,-5.0,45.0,0
1657,-260.0,-5.0,43.0,0
1658,-260.0,0.0,44.0,0
1659,-258.0,0.0,41.0,0
1660,-262.0,1.0,43.0,0
1661,-259.0,0.0,40.0,0
1662,-259.0,-2.0,40.0,0
1663,-260.0,-3.0,35.0,0
1664,-264.0,-6.0,34.0,0
1665,-260.0,-8.0,29.0,0
1666,-261.0,-9.0,32.0,0
1667,-257.0,-8.0,30.0,0
1668,-260.0,-8.0,37.0,0
1669,-256.0,-3.0,34.0,0
1670,-254.0,-1.0,37.0,0
1671,-254.0,-1.0,41.0,0
1672,-258.0,1.0,48.0,0
1673,-257.0,-2.0,54.0,0
1674,-261.0,0.0,56.0,0
1675,-260.0,0.0,59.0,0
1676,-269.0,-5.0,44.0,0
1677,-266.0,-4.0,40.0,0
1678,-277.0,-14.0,35.0,0
1679,-280.0,-21.0,39.0,0
1680,-283.0,-27.0,39.0,0
1681,-278.0,-28.0,34.0,0
1682,-281.0,-28.0,38.0,0
1683,-277.0,-33.0,42.0,0
1684,-274.0,-35.0,42.0,0
1685,-273.0,-35.0,42.0,0
1686,-270.0,-39.0,46.0,0
1687,-273.0,-39.0,48.0,0
1688,-273.0,-40.0,52.0,0
1689,-267.0,-39.0,48.0,0
1690,-264.0,-41.0,50.0,0
1691,-263.0,-36.0,47.0,0
1692,-257.0,-38.0,52.0,0
1693,-247.0,-37.0,52.0,0
1694,-239.0,-34.0,55.0,0
1695,-231.0,-32.0,51.0,0
1696,-225.0,-33.0,48.0,0
1697,-220.0,-24.0,47.0,0
1698,-225.0,-21.0,44.0,0
1699,-228.0,-20.0,47.0,0
1700,-211.0,-26.0,48.0,0
1701,-213.0,-17.0,31.0,0
1702,-217.0,-13.0,34.0,0
1703,-212.0,-8.0,33.0,0
1704,-211.0,-14.0,34.0,0
1705,-210.0,-9.0,33.0,0
1706,-210.0,-14.0,39.0,0
1707,-205.0,-18.0,42.0,0
1708,-206.0,-22.0,46.0,0
1709,-206.0,-28.0,50.0,0
1710,-210.0,-32.0,49.0,0
1711,-213.0,-36.0,51.0,0
1712,-222.0,-35.0,47.0,0
1713,-223.0,-41.0,51.0,0
1714,-223.0,-42.0,53.0,0
1715,-229.0,-48.0,46.0,0
1716,-228.0,-47.0,49.0,0
1717,-243.0,-50.0,46.0,0
1718,-243.0,-49.0,40.0,0
1719,-240.0,-53.0,44.0,0
1720,-249.0,-53.0,39.0,0
1721,-246.0,-57.0,36.0,0
1722,-246.0,-55.0,41.0,0
1723,-242.0,-58.0,41.0,0
1724,-246.0,-58.0,43.0,0
1725,-247.0,-63.0,41.0,0
1726,-245.0,-65.0,44.0,0
1727,-234.0,-69.0,53.0,0
1728,-242.0,-72.0,54.0,0
1729,-251.0,-68.0,59.0,0
1730,-238.0,-77.0,59.0,0
1731,-236.0,-76.0,53.0,0
1732,-239.0,-75.0,55.0,0
1733,-238.0,-75.0,57.0,0
1734,-223.0,-81.0,58.0,0
1735,-245.0,-73.0,61.0,0
1736,-240.0,-67.0,62.0,0
1737,-231.0,-64.0,49.0,0
1738,-227.0,-63.0,41.0,0
1739,-231.0,-63.0,32.0,0
1740,-244.0,-68.0,30.0,0
1741,-240.0,-65.0,21.0,0
1742,-253.0,-65.0,15.0,0
1743,-255.0,-67.0,14.0,0
1744,-270.0,-64.0,6.0,0
1745,-261.0,-66.0,1.0,0
1746,-254.0,-70.0,3.0,0
1747,-251.0,-73.0,1.0,0
1748,-253.0,-79.0,6.0,0
1749,-253.0,-80.0,6.0,0
1750,-254.0,-82.0,11.0,0
1751,-253.0,-79.0,10.0,0
1752,-249.0,-79.0,11.0,0
1753,-248.0,-75.0,9.0,0
1754,-248.0,-70.0,13.0,0
1755,-249.0,-65.0,17.0,0
1756,-246.0,-61.0,24.0,0
1757,-243.0,-61.0,24.0,0
1758,-244.0,-53.0,33.0,0
1759,-242.0,-50.0,37.0,0
1760,-243.0,-45.0,42.0,0
1761,-241.0,-40.0,46.0,0
1762,-240.0,-41.0,46.0,0
1763,-242.0,-37.0,52.0,0
1764,-247.0,-36.0,58.0,0
1765,-248.0,-37.0,63.0,0
1766,-251.0,-40.0,64.0,0
1767,-252.0,-39.0,64.0,0
1768,-253.0,-37.0,68.0,0
1769,-257.0,-42.0,69.0,0
1770,-259.0,-39.0,67.0,0
1771,-262.0,-37.0,68.0,0
1772,-264.0,-39.0,66.0,0
1773,-267.0,-34.0,62.0,0
1774,-267.0,-39.0,60.0,0
1775,-269.0,-43.0,61.0,0
1776,-277.0,-44.0,62.0,0
1777,-274.0,-47.0,62.0,0
1778,-278.0,-52.0,56.0,0
1779,-275.0,-52.0,61.0,0
1780,-276.0,-52.0,59.0,0
1781,-277.0,-49.0,62.0,0
1782,-271.0,-49.0,62.0,0
1783,-272.0,-50.0,59.0,0
1784,-264.0,-46.0,55.0,0
1785,-262.0,-47.0,59.0,0
1786,-256.0,-44.0,60.0,0
1787,-256.0,-42.0,56.0,0
1788,-255.0,-41.0,64.0,0
1789,-253.0,-38.0,64.0,0
1790,-251.0,-31.0,68.0,0
1791,-251.0,-30.0,70.0,0
1792,-248.0,-28.0,76.0,0
1793,-250.0,-26.0,77.0,0
1794,-244.0,-24.0,78.0,0
1795,-237.0,-24.0,87.0,0
1796,-237.0,-23.0,90.0,0
1797,-236.0,-23.0,93.0,0
1798,-232.0,-23.0,97.0,0
1799,-232.0,-24.0,99.0,0
1800,-226.0,-27.0,103.0,0
1801,-226.0,-30.0,98.0,0
1802,-226.0,-29.0,103.0,0
1803,-224.0,-34.0,104.0,0
1804,-222.0,-35.0,107.0,0
1805,-223.0,-37.0,107.0,0
1806,-224.0,-43.0,107.0,0
1807,-222.0,-45.0,109.0,0
1808,-222.0,-53.0,109.0,0
1809,-226.0,-53.0,108.0,0
1810,-229.0,-57.0,106.0,0
1811,-228.0,-58.0,109.0,0
1812,-229.0,-61.0,107.0,0
1813,-229.0,-62.0,111.0,0
1814,-232.0,-62.0,110.0,0
1815,-233.0,-64.0,112.0,0
1816,-234.0,-63.0,111.0,0
1817,-236.0,-61.0,108.0,0
1818,-233.0,-59.0,108.0,0
1819,-235.0,-59.0,108.0,0
1820,-235.0,-62.0,103.0,0
1821,-231.0,-61.0,104.0,0
1822,-231.0,-59.0,101.0,0
1823,-231.0,-60.0,101.0,0
1824,-233.0,-59.0,99.0,0
1825,-232.0,-60.0,100.0,0
1826,-230.0,-61.0,98.0,0
1827,-234.0,-57.0,98.0,0
1828,-229.0,-59.0,99.0,0
1829,-227.0,-58.0,98.0,0
1830,-228.0,-53.0,94.0,0
1831,-227.0,-55.0,94.0,0
1832,-228.0,-51.0,98.0,0
1833,-222.0,-55.0,102.0,0
1834,-229.0,-52.0,104.0,0
1835,-230.0,-49.0,99.0,0
1836,-233.0,-50.0,104.0,0
1837,-236.0,-50.0,106.0,0
1838,-234.0,-49.0,107.0,0
1839,-235.0,-49.0,110.0,0
1840,-239.0,-49.0,111.0,0
1841,-237.0,-46.0,111.0,0
1842,-238.0,-49.0,114.0,0
1843,-238.0,-44.0,113.0,0
1844,-236.0,-48.0,115.0,0
1845,-238.0,-38.0,115.0,0
1846,-238.0,-43.0,118.0,0
1847,-238.0,-45.0,114.0,0
1848,-236.0,-45.0,115.0,0
1849,-237.0,-45.0,114.0,0
1850,-239.0,-49.0,109.0,0
1851,-239.0,-47.0,113.0,0
1852,-237.0,-49.0,112.0,0
1853,-238.0,-46.0,112.0,0
1854,-236.0,-49.0,112.0,0
1855,-237.0,-46.0,116.0,0
1856,-242.0,-46.0,118.0,0
1857,-240.0,-45.0,110.0,0
1858,-243.0,-47.0,112.0,0
1859,-245.0,-46.0,117.0,0
1860,-247.0,-46.0,113.0,0
1861,-248.0,-45.0,116.0,0
1862,-246.0,-48.0,120.0,0
1863,-251.0,-44.0,116.0,0
1864,-251.0,-47.0,118.0,0
1865,-251.0,-46.0,117.0,0
1866,-251.0,-47.0,120.0,0
1867,-249.0,-47.0,120.0,0
1868,-245.0,-46.0,125.0,0
1869,-246.0,-52.0,124.0,0
1870,-249.0,-50.0,129.0,0
1871,-252.0,-55.0,131.0,0
1872,-250.0,-59.0,135.0,0
1873,-252.0,-56.0,141.0,0
1874,-252.0,-57.0,140.0,0
1875,-252.0,-54.0,142.0,0
1876,-252.0,-53.0,143.0,0
1877,-257.0,-52.0,148.0,0
1878,-258.0,-50.0,147.0,0
1879,-262.0,-48.0,148.0,0
1880,-269.0,-41.0,152.0,0
1881,-249.0,-48.0,152.0,0
1882,-244.0,-46.0,146.0,0
1883,-235.0,-50.0,143.0,0
1884,-238.0,-48.0,141.0,0
1885,-225.0,-53.0,147.0,0
1886,-223.0,-54.0,148.0,0
1887,-221.0,-57.0,151.0,0
1888,-217.0,-53.0,154.0,0
1889,-223.0,-47.0,155.0,0
1890,-218.0,-49.0,155.0,0
1891,-212.0,-51.0,162.0,0
1892,-217.0,-45.0,160.0,0
1893,-217.0,-37.0,156.0,0
1894,-207.0,-39.0,161.0,0
1895,-212.0,-34.0,164.0,0
1896,-210.0,-29.0,165.0,0
1897,-212.0,-27.0,164.0,0
1898,-213.0,-20.0,165.0,0
1899,-208.0,-21.0,167.0,0
1900,-209.0,-20.0,171.0,0
1901,-207.0,-13.0,169.0,0
1902,-208.0,-14.0,175.0,0
1903,-204.0,-10.0,174.0,0
1904,-205.0,-9.0,180.0,0
1905,-204.0,-7.0,180.0,0
1906,-198.0,-5.0,186.0,0
1907,-190.0,-8.0,186.0,0
1908,-188.0,-6.0,184.0,0
1909,-187.0,-8.0,191.0,0
1910,-189.0,-6.0,190.0,0
1911,-186.0,-5.0,192.0,0
1912,-184.0,-11.0,193.0,0
1913,-179.0,-8.0,193.0,0
1914,-180.0,-12.0,201.0,0
1915,-178.0,-7.0,196.0,0
1916,-176.0,-7.0,193.0,0
1917,-171.0,-4.0,198.0,0
1918,-172.0,-3.0,194.0,0
1919,-166.0,-6.0,195.0,0
1920,-166.0,-6.0,195.0,0
1921,-165.0,-3.0,196.0,0
1922,-161.0,0.0,197.0,0
1923,-159.0,0.0,198.0,0
1924,-162.0,2.0,195.0,0
1925,-151.0,1.0,196.0,0
1926,-150.0,2.0,198.0,0
1927,-150.0,1.0,198.0,0
1928,-148.0,2.0,196.0,0
1929,-145.0,6.0,197.0,0
1930,-140.0,5.0,202.0,0
1931,-140.0,8.0,203.0,0
1932,-139.0,10.0,200.0,0
1933,-137.0,12.0,200.0,0
1934,-132.0,11.0,201.0,0
1935,-130.0,14.0,202.0,0
1936,-128.0,18.0,197.0,0
1937,-125.0,14.0,203.0,0
1938,-124.0,15.0,200.0,0
1939,-121.0,15.0,197.0,0
1940,-121.0,19.0,195.0,0
1941,-121.0,20.0,192.0,0
1942,-117.0,21.0,193.0,0
1943,-121.0,24.0,193.0,0
1944,-122.0,25.0,190.0,0
1945,-114.0,26.0,186.0,0
1946,-109.0,21.0,187.0,0
1947,-107.0,26.0,184.0,0
1948,-107.0,26.0,184.0,0
1949,-103.0,29.0,184.0,0
1950,-99.0,32.0,184.0,0
1951,-92.0,32.0,177.0,0
1952,-91.0,36.0,176.0,0
1953,-89.0,37.0,175.0,0
1954,-81.0,35.0,175.0,0
1955,-75.0,32.0,173.0,0
1956,-76.0,37.0,179.0,0
1957,-65.0,41.0,188.0,0
1958,-68.0,36.0,175.0,0
1959,-67.0,34.0,182.0,0
1960,-66.0,30.0,183.0,0
1961,-61.0,29.0,183.0,0
1962,-60.0,28.0,185.0,0
1963,-59.0,24.0,184.0,0
1964,-57.0,18.0,188.0,0
1965,-56.0,18.0,188.0,0
1966,-55.0,17.0,189.0,0
1967,-51.0,12.0,191.0,0
1968,-55.0,15.0,191.0,0
1969,-58.0,11.0,194.0,0
1970,-64.0,8.0,198.0,0
1971,-70.0,2.0,207.0,0
1972,-79.0,2.0,212.0,0
1973,-81.0,-1.0,212.0,0
1974,-85.0,0.0,219.0,0
1975,-90.0,-8.0,221.0,0
1976,-91.0,-13.0,221.0,0
1977,-98.0,-19.0,231.0,0
1978,-101.0,-32.0,235.0,0
1979,-105.0,-29.0,243.0,0
1980,-109.0,-40.0,250.0,0
1981,-113.0,-46.0,262.0,0
1982,-117.0,-55.0,271.0,0
1983,-125.0,-64.0,290.0,0
1984,-137.0,-81.0,315.0,0
1985,-152.0,-88.0,333.0,0
1986,-167.0,-102.0,354.0,0
1987,-175.0,-114.0,369.0,0
1988,-186.0,-119.0,377.0,0
1989,-195.0,-123.0,383.0,0
1990,-196.0,-123.0,377.0,0
1991,-188.0,-125.0,370.0,0
1992,-177.0,-118.0,354.0,0
1993,-166.0,-113.0,338.0,0
1994,-155.0,-103.0,320.0,0
1995,-136.0,-95.0,302.0,0
1996,-120.0,-85.0,287.0,0
1997,-100.0,-81.0,273.0,0
1998,-85.0,-73.0,255.0,0
1999,-64.0,-65.0,243.0,0
2000,-52.0,-57.0,239.0,0
2001,-44.0,-46.0,226.0,0
2002,-35.0,-37.0,223.0,0
2003,-31.0,-30.0,214.0,0
2004,-20.0,-24.0,212.0,0
2005,-20.0,-18.0,207.0,0
2006,-18.0,-16.0,206.0,0
2007,-17.0,-6.0,209.0,0
2008,-17.0,0.0,210.0,0
2009,-14.0,0.0,215.0,0
2010,-19.0,4.0,215.0,0
2011,-21.0,1.0,220.0,0
2012,-23.0,2.0,229.0,0
2013,-29.0,1.0,234.0,0
2014,-35.0,-2.0,248.0,0
2015,-39.0,-8.0,252.0,0
2016,-44.0,-14.0,260.0,0
2017,-51.0,-19.0,268.0,0
2018,-60.0,-24.0,276.0,0
2019,-66.0,-29.0,278.0,0
2020,-77.0,-32.0,280.0,0
2021,-84.0,-35.0,283.0,0
2022,-88.0,-41.0,277.0,0
2023,-100.0,-37.0,274.0,0
2024,-103.0,-38.0,269.0,0
2025,-104.0,-40.0,265.0,0
2026,-106.0,-43.0,267.0,0
2027,-105.0,-40.0,265.0,0
2028,-99.0,-38.0,260.0,0
2029,-97.0,-32.0,257.0,0
2030,-93.0,-33.0,256.0,0
2031,-94.0,-33.0,253.0,0
2032,-92.0,-32.0,250.0,0
2033,-89.0,-37.0,249.0,0
2034,-84.0,-40.0,253.0,0
2035,-81.0,-46.0,251.0,0
2036,-76.0,-46.0,249.0,0
2037,-73.0,-50.0,247.0,0
2038,-68.0,-55.0,247.0,0
2039,-63.0,-56.0,245.0,0
2040,-63.0,-54.0,244.0,0
2041,-60.0,-57.0,243.0,0
2042,-58.0,-55.0,237.0,0
2043,-55.0,-54.0,235.0,0
2044,-57.0,-52.0,232.0,0
2045,-56.0,-54.0,232.0,0
2046,-62.0,-52.0,228.0,0
2047,-61.0,-57.0,229.0,0
2048,-64.0,-57.0,230.0,0
2049,-67.0,-62.0,234.0,0
2050,-71.0,-64.0,232.0,0
2051,-71.0,-66.0,234.0,0
2052,-76.0,-69.0,241.0,0
2053,-80.0,-64.0,236.0,0
2054,-81.0,-65.0,238.0,0
2055,-86.0,-61.0,233.0,0
2056,-87.0,-62.0,234.0,0
2057,-89.0,-63.0,237.0,0
2058,-93.0,-61.0,240.0,0
2059,-94.0,-61.0,237.0,0
2060,-100.0,-59.0,238.0,0
2061,-100.0,-63.0,242.0,0
2062,-99.0,-65.0,244.0,0
2063,-103.0,-64.0,237.0,0
2064,-107.0,-64.0,237.0,0
2065,-101.0,-71.0,235.0,0
2066,-107.0,-64.0,237.0,0
2067,-105.0,-66.0,239.0,0
2068,-107.0,-65.0,235.0,0
2069,-108.0,-66.0,236.0,0
2070,-107.0,-67.0,238.0,0
2071,-112.0,-68.0,238.0,0
2072,-108.0,-69.0,237.0,0
2073,-104.0,-72.0,238.0,0
2074,-105.0,-76.0,237.0,0
2075,-105.0,-77.0,240.0,0
2076,-106.0,-74.0,233.0,0
2077,-103.0,-77.0,232.0,0
2078,-106.0,-73.0,235.0,0
2079,-104.0,-72.0,235.0,0
2080,-106.0,-72.0,231.0,0
2081,-108.0,-73.0,232.0,0
2082,-108.0,-70.0,230.0,0
2083,-109.0,-67.0,231.0,0
2084,-108.0,-68.0,228.0,0
2085,-108.0,-66.0,228.0,0
2086,-108.0,-64.0,230.0,0
2087,-111.0,-65.0,224.0,0
2088,-112.0,-64.0,228.0,0
2089,-107.0,-65.0,225.0,0
2090,-112.0,-64.0,233.0,0
2091,-111.0,-60.0,228.0,0
2092,-112.0,-64.0,229.0,0
2093,-113.0,-65.0,229.0,0
2094,-115.0,-65.0,225.0,0
2095,-116.0,-69.0,229.0,0
2096,-119.0,-63.0,233.0,0
2097,-118.0,-66.0,228.0,0
2098,-117.0,-64.0,230.0,0
2099,-119.0,-65.0,228.0,0
2100,-119.0,-68.0,227.0,0
2101,-124.0,-68.0,224.0,0
2102,-124.0,-67.0,221.0,0
2103,-129.0,-65.0,218.0,0
2104,-127.0,-65.0,219.0,0
2105,-127.0,-66.0,219.0,0
2106,-129.0,-63.0,211.0,0
2107,-131.0,-64.0,209.0,0
2108,-133.0,-62.0,212.0,0
2109,-137.0,-64.0,204.0,0
2110,-139.0,-66.0,210.0,0
2111,-141.0,-65.0,205.0,0
2112,-140.0,-59.0,202.0,0
2113,-141.0,-61.0,202.0,0
2114,-145.0,-59.0,204.0,0
2115,-147.0,-56.0,205.0,0
2116,-149.0,-57.0,204.0,0
2117,-151.0,-55.0,207.0,0
2118,-146.0,-56.0,205.0,0
2119,-152.0,-58.0,203.0,0
2120,-156.0,-54.0,215.0,0
2121,-152.0,-49.0,214.0,0
2122,-153.0,-55.0,211.0,0
2123,-153.0,-50.0,214.0,0
2124,-149.0,-49.0,219.0,0
2125,-151.0,-54.0,225.0,0
2126,-151.0,-52.0,229.0,0
2127,-147.0,-53.0,225.0,0
2128,-146.0,-49.0,229.0,0
2129,-143.0,-52.0,230.0,0
2130,-140.0,-46.0,233.0,0
2131,-144.0,-49.0,232.0,0
2132,-138.0,-46.0,237.0,0
2133,-133.0,-49.0,238.0,0
2134,-131.0,-46.0,238.0,0
2135,-129.0,-48.0,239.0,0
2136,-129.0,-51.0,237.0,0
2137,-125.0,-50.0,245.0,0
2138,-124.0,-50.0,244.0,0
2139,-123.0,-48.0,242.0,0
2140,-120.0,-51.0,244.0,0
2141,-114.0,-57.0,245.0,0
2142,-113.0,-55.0,247.0,0
2143,-115.0,-52.0,243.0,0
2144,-110.0,-51.0,247.0,0
2145,-109.0,-52.0,241.0,0
2146,-104.0,-52.0,245.0,0
2147,-105.0,-52.0,244.0,0
2148,-102.0,-51.0,241.0,0
2149,-100.0,-46.0,243.0,0
2150,-94.0,-46.0,243.0,0
2151,-94.0,-49.0,241.0,0
2152,-94.0,-47.0,243.0,0
2153,-94.0,-44.0,239.0,0
2154,-91.0,-45.0,244.0,0
2155,-94.0,-44.0,243.0,0
2156,-90.0,-43.0,243.0,0
2157,-89.0,-40.0,244.0,0
2158,-89.0,-42.0,242.0,0
2159,-90.0,-38.0,241.0,0
2160,-90.0,-38.0,242.0,0
2161,-91.0,-36.0,245.0,0
2162,-89.0,-39.0,237.0,0
2163,-93.0,-40.0,239.0,0
2164,-91.0,-48.0,241.0,0
2165,-94.0,-43.0,239.0,0
2166,-95.0,-46.0,238.0,0
2167,-93.0,-42.0,239.0,0
2168,-92.0,-42.0,241.0,0
2169,-92.0,-46.0,239.0,0
2170,-91.0,-49.0,242.0,0
2171,-93.0,-47.0,239.0,0
2172,-90.0,-43.0,246.0,0
2173,-93.0,-47.0,249.0,0
2174,-91.0,-41.0,247.0,0
2175,-85.0,-45.0,251.0,0
2176,-91.0,-43.0,248.0,0
2177,-86.0,-40.0,252.0,0
2178,-84.0,-35.0,254.0,0
2179,-83.0,-39.0,251.0,0
2180,-84.0,-37.0,255.0,0
2181,-83.0,-33.0,252.0,0
2182,-83.0,-31.0,253.0,0
2183,-78.0,-31.0,256.0,0
2184,-79.0,-30.0,251.0,0
2185,-77.0,-32.0,251.0,0
2186,-75.0,-29.0,251.0,0
2187,-70.0,-35.0,249.0,0
2188,-75.0,-31.0,248.0,0
2189,-74.0,-36.0,251.0,0
2190,-73.0,-34.0,252.0,0
2191,-72.0,-35.0,250.0,0
2192,-73.0,-39.0,250.0,0
2193,-69.0,-37.0,249.0,0
2194,-74.0,-37.0,252.0,0
2195,-69.0,-43.0,251.0,0
2196,-72.0,-37.0,248.0,0
2197,-71.0,-37.0,253.0,0
2198,-71.0,-40.0,251.0,0
2199,-71.0,-38.0,252.0,0
2200,-70.0,-39.0,253.0,0
2201,-71.0,-41.0,253.0,0
2202,-69.0,-39.0,250.0,0
2203,-74.0,-40.0,253.0,0
2204,-70.0,-37.0,252.0,0
2205,-68.0,-37.0,251.0,0
2206,-68.0,-37.0,249.0,0
2207,-70.0,-40.0,251.0,0
2208,-70.0,-39.0,250.0,0
2209,-67.0,-40.0,250.0,0
2210,-67.0,-38.0,251.0,0
2211,-66.0,-41.0,250.0,0
2212,-65.0,-38.0,253.0,0
2213,-65.0,-36.0,251.0,0
2214,-68.0,-31.0,255.0,0
2215,-67.0,-32.0,253.0,0
2216,-63.0,-32.0,253.0,0
2217,-64.0,-28.0,253.0,0
2218,-62.0,-22.0,255.0,0
2219,-66.0,-27.0,254.0,0
2220,-65.0,-30.0,256.0,0
2221,-64.0,-27.0,253.0,0
2222,-66.0,-24.0,250.0,0
2223,-67.0,-24.0,249.0,0
2224,-66.0,-24.0,253.0,0
2225,-67.0,-23.0,250.0,0
2226,-66.0,-24.0,254.0,0
2227,-69.0,-24.0,250.0,0
2228,-68.0,-24.0,250.0,0
2229,-68.0,-26.0,246.0,0
2230,-64.0,-30.0,247.0,0
2231,-68.0,-30.0,249.0,0
2232,-68.0,-34.0,250.0,0
2233,-68.0,-36.0,249.0,0
2234,-67.0,-33.0,249.0,0
2235,-66.0,-33.0,245.0,0
2236,-66.0,-32.0,247.0,0
2237,-68.0,-37.0,247.0,0
2238,-69.0,-32.0,251.0,0
2239,-68.0,-33.0,254.0,0
2240,-64.0,-35.0,248.0,0
2241,-68.0,-30.0,253.0,0
2242,-66.0,-32.0,249.0,0
2243,-66.0,-33.0,252.0,0
2244,-67.0,-35.0,255.0,0
2245,-65.0,-33.0,250.0,0
2246,-66.0,-35.0,254.0,0
2247,-67.0,-33.0,253.0,0
2248,-68.0,-32.0,252.0,0
2249,-66.0,-33.0,249.0,0
2250,-71.0,-31.0,246.0,0
2251,-72.0,-27.0,252.0,0
2252,-67.0,-33.0,254.0,0
2253,-69.0,-31.0,248.0,0
2254,-69.0,-31.0,250.0,0
2255,-77.0,-22.0,240.0,0
2256,-81.0,-18.0,235.0,0
2257,-93.0,-19.0,219.0,0
2258,-111.0,-4.0,189.0,0
2259,-110.0,36.0,129.0,0
2260,-199.0,100.0,-29.0,0
2261,-197.0,96.0,227.0,0
2262,-108.0,18.0,277.0,0
2263,-43.0,-42.0,342.0,0
2264,-17.0,-86.0,377.0,0
2265,5.0,-107.0,371.0,0
2266,11.0,-106.0,350.0,0
2267,4.0,-95.0,324.0,0
2268,-18.0,-89.0,304.0,0
2269,-44.0,-91.0,286.0,0
2270,-63.0,-97.0,271.0,0
2271,-74.0,-112.0,260.0,0
2272,-85.0,-117.0,250.0,0
2273,-87.0,-117.0,238.0,0
2274,-82.0,-113.0,235.0,0
2275,-77.0,-111.0,236.0,0
2276,-85.0,-129.0,262.0,0
2277,-99.0,-130.0,316.0,0
2278,-66.0,-96.0,234.0,0
2279,-60.0,-81.0,244.0,0
2280,-68.0,-61.0,239.0,0
2281,-63.0,-47.0,224.0,0
2282,-69.0,-24.0,222.0,0
2283,-74.0,-14.0,222.0,0
2284,-77.0,-7.0,230.0,0
2285,-80.0,0.0,228.0,0
2286,-80.0,-5.0,229.0,0
2287,-81.0,-7.0,233.0,0
2288,-80.0,-21.0,242.0,0
2289,-72.0,-27.0,249.0,0
2290,-78.0,-28.0,246.0,0
2291,-75.0,-32.0,250.0,0
2292,-76.0,-37.0,255.0,0
2293,-76.0,-36.0,255.0,0
2294,-78.0,-42.0,251.0,0
2295,-77.0,-39.0,253.0,0
2296,-78.0,-37.0,251.0,0
2297,-77.0,-28.0,252.0,0
2298,-78.0,-36.0,254.0,0
2299,-81.0,-31.0,254.0,0
2300,-77.0,-23.0,258.0,0
2301,-82.0,-22.0,252.0,0
2302,-78.0,-18.0,252.0,0
2303,-79.0,-13.0,255.0,0
2304,-75.0,-15.0,254.0,0
2305,-80.0,-11.0,246.0,0
2306,-78.0,-16.0,251.0,0
2307,-79.0,-16.0,247.0,0
2308,-78.0,-17.0,247.0,0
2309,-79.0,-19.0,245.0,0
2310,-77.0,-21.0,240.0,0
2311,-80.0,-22.0,237.0,0
2312,-76.0,-21.0,236.0,0
2313,-76.0,-21.0,233.0,0
2314,-70.0,-27.0,237.0,0
2315,-70.0,-25.0,233.0,0
2316,-72.0,-28.0,237.0,0
2317,-71.0,-29.0,237.0,0
2318,-74.0,-29.0,238.0,0
2319,-76.0,-32.0,241.0,0
2320,-75.0,-33.0,240.0,0
2321,-83.0,-34.0,245.0,0
2322,-92.0,-35.0,246.0,0
2323,-92.0,-41.0,249.0,0
2324,-97.0,-44.0,253.0,0
2325,-98.0,-44.0,254.0,0
2326,-106.0,-42.0,261.0,0
2327,-108.0,-44.0,259.0,0
2328,-110.0,-42.0,262.0,0
2329,-109.0,-38.0,266.0,0
2330,-109.0,-36.0,262.0,0
2331,-109.0,-37.0,265.0,0
2332,-109.0,-36.0,261.0,0
2333,-108.0,-38.0,262.0,0
2334,-108.0,-33.0,258.0,0
2335,-104.0,-38.0,260.0,0
2336,-103.0,-35.0,256.0,0
2337,-98.0,-37.0,255.0,0
2338,-100.0,-35.0,252.0,0
2339,-96.0,-37.0,255.0,0
2340,-96.0,-35.0,253.0,0
2341,-96.0,-37.0,251.0,0
2342,-91.0,-35.0,249.0,0
2343,-90.0,-35.0,249.0,0
2344,-90.0,-35.0,245.0,0
2345,-86.0,-34.0,247.0,0
2346,-88.0,-34.0,242.0,0
2347,-84.0,-30.0,246.0,0
2348,-86.0,-29.0,242.0,0
2349,-83.0,-29.0,243.0,0
2350,-82.0,-27.0,245.0,0
2351,-86.0,-21.0,244.0,0
2352,-81.0,-23.0,248.0,0
2353,-85.0,-23.0,249.0,0
2354,-84.0,-22.0,247.0,0
2355,-85.0,-22.0,251.0,0
2356,-82.0,-21.0,254.0,0
2357,-86.0,-21.0,253.0,0
2358,-84.0,-21.0,253.0,0
2359,-89.0,-21.0,255.0,0
2360,-89.0,-18.0,258.0,0
2361,-87.0,-21.0,259.0,0
2362,-88.0,-21.0,260.0,0
2363,-90.0,-17.0,259.0,0
2364,-93.0,-20.0,258.0,0
2365,-99.0,-16.0,258.0,0
2366,-96.0,-17.0,257.0,0
2367,-95.0,-12.0,259.0,0
2368,-96.0,-11.0,257.0,0
2369,-96.0,-12.0,253.0,0
2370,-98.0,-9.0,255.0,0
2371,-95.0,-12.0,256.0,0
2372,-98.0,-11.0,246.0,0
2373,-100.0,-9.0,251.0,0
2374,-99.0,-9.0,252.0,0
2375,-106.0,-8.0,253.0,0
2376,-103.0,-8.0,247.0,0
2377,-104.0,-13.0,250.0,0
2378,-106.0,-11.0,252.0,0
2379,-110.0,-14.0,251.0,0
2380,-115.0,-13.0,252.0,0
2381,-117.0,-13.0,252.0,0
2382,-112.0,-14.0,252.0,0
2383,-107.0,-13.0,249.0,0
2384,-103.0,-11.0,248.0,0
2385,-96.0,-8.0,251.0,0
2386,-101.0,-7.0,246.0,0
2387,-97.0,-4.0,249.0,0
2388,-96.0,-3.0,247.0,0
2389,-92.0,0.0,244.0,0
2390,-92.0,1.0,244.0,0
2391,-88.0,2.0,246.0,0
2392,-88.0,3.0,246.0,0
2393,-87.0,3.0,251.0,0
2394,-84.0,2.0,256.0,0
2395,-83.0,2.0,255.0,0
2396,-81.0,2.0,255.0,0
2397,-80.0,1.0,255.0,0
2398,-80.0,0.0,254.0,0
2399,-79.0,1.0,261.0,0
