,accelerometer_x,accelerometer_y,accelerometer_z,fall
0,-13.0,-237.0,-39.0,0
1,-15.0,-238.0,-36.0,0
2,-12.0,-241.0,-34.0,0
3,-11.0,-242.0,-33.0,0
4,-10.0,-243.0,-37.0,0
5,-19.0,-248.0,-43.0,0
6,-13.0,-247.0,-39.0,0
7,-14.0,-246.0,-30.0,0
8,-20.0,-241.0,-29.0,0
9,-14.0,-243.0,-37.0,0
10,-13.0,-245.0,-37.0,0
11,-15.0,-244.0,-40.0,0
12,-14.0,-242.0,-41.0,0
13,-13.0,-247.0,-37.0,0
14,-12.0,-247.0,-38.0,0
15,-16.0,-244.0,-29.0,0
16,-16.0,-241.0,-36.0,0
17,-13.0,-241.0,-35.0,0
18,-12.0,-244.0,-37.0,0
19,-13.0,-243.0,-32.0,0
20,-14.0,-242.0,-34.0,0
21,-14.0,-246.0,-36.0,0
22,-12.0,-245.0,-38.0,0
23,-13.0,-245.0,-39.0,0
24,-15.0,-242.0,-36.0,0
25,-18.0,-242.0,-38.0,0
26,-11.0,-248.0,-32.0,0
27,-14.0,-243.0,-35.0,0
28,-13.0,-243.0,-36.0,0
29,-14.0,-244.0,-36.0,0
30,-15.0,-248.0,-39.0,0
31,-12.0,-246.0,-36.0,0
32,-14.0,-248.0,-42.0,0
33,-12.0,-250.0,-41.0,0
34,-13.0,-250.0,-42.0,0
35,-10.0,-249.0,-36.0,0
36,-10.0,-248.0,-34.0,0
37,-16.0,-250.0,-43.0,0
38,-15.0,-250.0,-38.0,0
39,-14.0,-251.0,-39.0,0
40,-12.0,-246.0,-39.0,0
41,-8.0,-248.0,-44.0,0
42,-7.0,-248.0,-42.0,0
43,-12.0,-245.0,-44.0,0
44,-4.0,-244.0,-41.0,0
45,-8.0,-242.0,-41.0,0
46,-8.0,-244.0,-40.0,0
47,-12.0,-242.0,-46.0,0
48,-8.0,-242.0,-40.0,0
49,-10.0,-243.0,-38.0,0
50,-4.0,-247.0,-42.0,0
51,-8.0,-246.0,-38.0,0
52,-9.0,-243.0,-41.0,0
53,-10.0,-246.0,-38.0,0
54,-9.0,-243.0,-39.0,0
55,-14.0,-246.0,-38.0,0
56,-15.0,-242.0,-40.0,0
57,-13.0,-234.0,-36.0,0
58,-13.0,-243.0,-41.0,0
59,-11.0,-244.0,-39.0,0
60,-11.0,-243.0,-37.0,0
61,-13.0,-244.0,-41.0,0
62,-12.0,-240.0,-37.0,0
63,-11.0,-242.0,-34.0,0
64,-10.0,-243.0,-38.0,0
65,-11.0,-237.0,-44.0,0
66,-13.0,-243.0,-37.0,0
67,-15.0,-240.0,-45.0,0
68,-12.0,-239.0,-43.0,0
69,-19.0,-240.0,-48.0,0
70,-17.0,-238.0,-48.0,0
71,-15.0,-241.0,-55.0,0
72,-15.0,-242.0,-51.0,0
73,-17.0,-243.0,-60.0,0
74,-20.0,-246.0,-57.0,0
75,-21.0,-244.0,-62.0,0
76,-19.0,-248.0,-63.0,0
77,-14.0,-248.0,-63.0,0
78,-18.0,-249.0,-60.0,0
79,-18.0,-250.0,-64.0,0
80,-20.0,-250.0,-65.0,0
81,-16.0,-249.0,-60.0,0
82,-18.0,-246.0,-56.0,0
83,-17.0,-245.0,-59.0,0
84,-20.0,-244.0,-55.0,0
85,-20.0,-243.0,-57.0,0
86,-19.0,-242.0,-51.0,0
87,-18.0,-240.0,-49.0,0
88,-26.0,-241.0,-50.0,0
89,-24.0,-243.0,-51.0,0
90,-30.0,-241.0,-60.0,0
91,-29.0,-239.0,-53.0,0
92,-30.0,-241.0,-48.0,0
93,-28.0,-240.0,-49.0,0
94,-31.0,-240.0,-49.0,0
95,-29.0,-243.0,-47.0,0
96,-31.0,-240.0,-55.0,0
97,-30.0,-243.0,-54.0,0
98,-32.0,-239.0,-50.0,0
99,-33.0,-239.0,-53.0,0
100,-32.0,-240.0,-52.0,0
101,-31.0,-237.0,-57.0,0
102,-25.0,-241.0,-49.0,0
103,-25.0,-239.0,-54.0,0
104,-23.0,-238.0,-47.0,0
105,-20.0,-238.0,-49.0,0
106,-18.0,-241.0,-46.0,0
107,-19.0,-237.0,-46.0,0
108,-23.0,-240.0,-41.0,0
109,-19.0,-242.0,-47.0,0
110,-19.0,-245.0,-44.0,0
111,-19.0,-244.0,-39.0,0
112,-22.0,-245.0,-41.0,0
113,-19.0,-245.0,-39.0,0
114,-20.0,-244.0,-40.0,0
115,-18.0,-246.0,-38.0,0
116,-19.0,-244.0,-37.0,0
117,-16.0,-244.0,-43.0,0
118,-18.0,-244.0,-42.0,0
119,-18.0,-241.0,-38.0,0
120,-17.0,-247.0,-41.0,0
121,-15.0,-243.0,-43.0,0
122,-11.0,-246.0,-44.0,0
123,-14.0,-244.0,-43.0,0
124,-13.0,-245.0,-43.0,0
125,-12.0,-249.0,-46.0,0
126,-21.0,-248.0,-49.0,0
127,-21.0,-245.0,-50.0,0
128,-18.0,-248.0,-47.0,0
129,-15.0,-243.0,-47.0,0
130,-15.0,-246.0,-43.0,0
131,-17.0,-246.0,-49.0,0
132,-17.0,-236.0,-47.0,0
133,-17.0,-235.0,-45.0,0
134,-16.0,-236.0,-36.0,0
135,-19.0,-227.0,-43.0,0
136,-19.0,-226.0,-41.0,0
137,-17.0,-225.0,-42.0,0
138,-12.0,-228.0,-39.0,0
139,-13.0,-228.0,-40.0,0
140,-8.0,-236.0,-41.0,0
141,-2.0,-243.0,-46.0,0
142,0.0,-247.0,-44.0,0
143,2.0,-250.0,-48.0,0
144,7.0,-248.0,-54.0,0
145,4.0,-253.0,-55.0,0
146,3.0,-254.0,-50.0,0
147,1.0,-253.0,-54.0,0
148,0.0,-253.0,-53.0,0
149,0.0,-257.0,-53.0,0
150,-4.0,-257.0,-56.0,0
151,-7.0,-255.0,-56.0,0
152,-4.0,-259.0,-58.0,0
153,-6.0,-253.0,-59.0,0
154,-6.0,-256.0,-54.0,0
155,-7.0,-252.0,-54.0,0
156,-2.0,-244.0,-49.0,0
157,0.0,-244.0,-57.0,0
158,0.0,-247.0,-53.0,0
159,0.0,-243.0,-56.0,0
160,2.0,-242.0,-52.0,0
161,2.0,-240.0,-46.0,0
162,0.0,-240.0,-44.0,0
163,1.0,-238.0,-42.0,0
164,0.0,-241.0,-40.0,0
165,-5.0,-234.0,-37.0,0
166,-10.0,-236.0,-36.0,0
167,-2.0,-237.0,-37.0,0
168,-3.0,-236.0,-37.0,0
169,-6.0,-240.0,-43.0,0
170,-8.0,-240.0,-40.0,0
171,-9.0,-243.0,-45.0,0
172,-8.0,-246.0,-39.0,0
173,-7.0,-251.0,-43.0,0
174,-7.0,-252.0,-49.0,0
175,-8.0,-249.0,-44.0,0
176,-9.0,-247.0,-41.0,0
177,-5.0,-250.0,-42.0,0
178,-3.0,-249.0,-47.0,0
179,-6.0,-251.0,-49.0,0
180,-6.0,-248.0,-46.0,0
181,-5.0,-245.0,-41.0,0
182,-6.0,-245.0,-45.0,0
183,-5.0,-243.0,-45.0,0
184,-7.0,-240.0,-42.0,0
185,-5.0,-243.0,-43.0,0
186,-9.0,-242.0,-43.0,0
187,-8.0,-243.0,-44.0,0
188,-5.0,-241.0,-39.0,0
189,-5.0,-241.0,-40.0,0
190,-8.0,-242.0,-44.0,0
191,-6.0,-243.0,-41.0,0
192,-7.0,-244.0,-41.0,0
193,-9.0,-246.0,-43.0,0
194,-10.0,-245.0,-47.0,0
195,-11.0,-244.0,-40.0,0
196,-14.0,-249.0,-42.0,0
197,-10.0,-241.0,-45.0,0
198,-13.0,-243.0,-49.0,0
199,-12.0,-244.0,-40.0,0
200,-12.0,-247.0,-46.0,0
201,-13.0,-244.0,-44.0,0
202,-11.0,-245.0,-45.0,0
203,-14.0,-243.0,-47.0,0
204,-12.0,-244.0,-44.0,0
205,-12.0,-239.0,-48.0,0
206,-12.0,-243.0,-47.0,0
207,-17.0,-240.0,-43.0,0
208,-13.0,-244.0,-49.0,0
209,-11.0,-242.0,-52.0,0
210,-11.0,-240.0,-49.0,0
211,-11.0,-241.0,-47.0,0
212,-12.0,-245.0,-43.0,0
213,-11.0,-244.0,-47.0,0
214,-11.0,-245.0,-43.0,0
215,-12.0,-243.0,-41.0,0
216,-14.0,-242.0,-45.0,0
217,-12.0,-244.0,-42.0,0
218,-10.0,-245.0,-45.0,0
219,-7.0,-247.0,-42.0,0
220,-6.0,-249.0,-38.0,0
221,-13.0,-246.0,-44.0,0
222,-11.0,-248.0,-43.0,0
223,-7.0,-247.0,-43.0,0
224,-6.0,-244.0,-43.0,0
225,-11.0,-243.0,-38.0,0
226,-8.0,-243.0,-34.0,0
227,-7.0,-241.0,-43.0,0
228,-10.0,-241.0,-39.0,0
229,-12.0,-244.0,-39.0,0
230,-16.0,-241.0,-35.0,0
231,-10.0,-246.0,-34.0,0
232,-13.0,-246.0,-35.0,0
233,-16.0,-244.0,-38.0,0
234,-13.0,-246.0,-37.0,0
235,-13.0,-245.0,-36.0,0
236,-15.0,-245.0,-36.0,0
237,-15.0,-249.0,-39.0,0
238,-17.0,-246.0,-40.0,0
239,-14.0,-246.0,-39.0,0
240,-15.0,-247.0,-39.0,0
241,-12.0,-248.0,-26.0,0
242,-17.0,-244.0,-36.0,0
243,-16.0,-247.0,-37.0,0
244,-15.0,-248.0,-37.0,0
245,-17.0,-243.0,-37.0,0
246,-13.0,-248.0,-34.0,0
247,-12.0,-245.0,-35.0,0
248,-12.0,-243.0,-31.0,0
249,-15.0,-245.0,-29.0,0
250,-13.0,-246.0,-39.0,0
251,-15.0,-248.0,-35.0,0
252,-17.0,-245.0,-34.0,0
253,-17.0,-243.0,-40.0,0
254,-16.0,-247.0,-38.0,0
255,-17.0,-240.0,-38.0,0
256,-16.0,-240.0,-40.0,0
257,-18.0,-242.0,-35.0,0
258,-17.0,-243.0,-40.0,0
259,-20.0,-238.0,-37.0,0
260,-19.0,-240.0,-35.0,0
261,-15.0,-243.0,-36.0,0
262,-14.0,-244.0,-40.0,0
263,-14.0,-243.0,-35.0,0
264,-12.0,-244.0,-39.0,0
265,-14.0,-243.0,-40.0,0
266,-13.0,-248.0,-40.0,0
267,-12.0,-248.0,-39.0,0
268,-16.0,-249.0,-39.0,0
269,-15.0,-245.0,-40.0,0
270,-12.0,-247.0,-40.0,0
271,-10.0,-250.0,-44.0,0
272,-8.0,-244.0,-45.0,0
273,-10.0,-245.0,-36.0,0
274,-12.0,-245.0,-44.0,0
275,-10.0,-245.0,-43.0,0
276,-9.0,-245.0,-42.0,0
277,-9.0,-246.0,-39.0,0
278,-11.0,-244.0,-41.0,0
279,-12.0,-243.0,-41.0,0
280,-14.0,-245.0,-40.0,0
281,-9.0,-245.0,-35.0,0
282,-11.0,-242.0,-39.0,0
283,-10.0,-243.0,-36.0,0
284,-16.0,-243.0,-35.0,0
285,-10.0,-242.0,-39.0,0
286,-11.0,-243.0,-39.0,0
287,-12.0,-240.0,-41.0,0
288,-10.0,-242.0,-39.0,0
289,-14.0,-242.0,-42.0,0
290,-9.0,-244.0,-42.0,0
291,-12.0,-244.0,-44.0,0
292,-12.0,-244.0,-37.0,0
293,-12.0,-247.0,-46.0,0
294,-13.0,-247.0,-41.0,0
295,-15.0,-248.0,-41.0,0
296,-11.0,-244.0,-40.0,0
297,-11.0,-248.0,-41.0,0
298,-12.0,-246.0,-40.0,0
299,-10.0,-247.0,-40.0,0
300,-11.0,-248.0,-38.0,0
301,-13.0,-247.0,-36.0,0
302,-13.0,-247.0,-41.0,0
303,-15.0,-244.0,-41.0,0
304,-9.0,-247.0,-34.0,0
305,-13.0,-249.0,-44.0,0
306,-10.0,-247.0,-38.0,0
307,-11.0,-242.0,-39.0,0
308,-10.0,-243.0,-37.0,0
309,-11.0,-242.0,-37.0,0
310,-11.0,-244.0,-39.0,0
311,-10.0,-245.0,-37.0,0
312,-14.0,-240.0,-36.0,0
313,-10.0,-245.0,-32.0,0
314,-16.0,-241.0,-36.0,0
315,-12.0,-246.0,-36.0,0
316,-15.0,-244.0,-40.0,0
317,-10.0,-248.0,-39.0,0
318,-12.0,-242.0,-35.0,0
319,-15.0,-244.0,-40.0,0
320,-16.0,-245.0,-34.0,0
321,-14.0,-244.0,-33.0,0
322,-12.0,-244.0,-35.0,0
323,-10.0,-248.0,-33.0,0
324,-14.0,-245.0,-37.0,0
325,-12.0,-247.0,-33.0,0
326,-15.0,-245.0,-33.0,0
327,-14.0,-246.0,-39.0,0
328,-10.0,-247.0,-35.0,0
329,-14.0,-248.0,-37.0,0
330,-13.0,-245.0,-38.0,0
331,-12.0,-246.0,-34.0,0
332,-11.0,-246.0,-37.0,0
333,-14.0,-244.0,-41.0,0
334,-10.0,-244.0,-38.0,0
335,-10.0,-246.0,-35.0,0
336,-12.0,-250.0,-39.0,0
337,-11.0,-245.0,-41.0,0
338,-12.0,-242.0,-39.0,0
339,-10.0,-245.0,-36.0,0
340,-11.0,-244.0,-38.0,0
341,-11.0,-244.0,-37.0,0
342,-11.0,-247.0,-35.0,0
343,-10.0,-246.0,-36.0,0
344,-8.0,-249.0,-36.0,0
345,-11.0,-244.0,-31.0,0
346,-8.0,-244.0,-37.0,0
347,-7.0,-244.0,-36.0,0
348,-11.0,-247.0,-40.0,0
349,-11.0,-247.0,-41.0,0
350,-11.0,-245.0,-38.0,0
351,-12.0,-244.0,-42.0,0
352,-12.0,-247.0,-39.0,0
353,-13.0,-241.0,-39.0,0
354,-9.0,-245.0,-40.0,0
355,-11.0,-251.0,-37.0,0
356,-11.0,-246.0,-33.0,0
357,-10.0,-247.0,-34.0,0
358,-13.0,-244.0,-35.0,0
359,-12.0,-247.0,-35.0,0
360,-13.0,-243.0,-32.0,0
361,-9.0,-244.0,-35.0,0
362,-14.0,-244.0,-35.0,0
363,-14.0,-242.0,-39.0,0
364,-12.0,-243.0,-40.0,0
365,-16.0,-245.0,-41.0,0
366,-10.0,-247.0,-42.0,0
367,-10.0,-245.0,-37.0,0
368,-10.0,-243.0,-33.0,0
369,-16.0,-246.0,-46.0,0
370,-9.0,-247.0,-36.0,0
371,-7.0,-246.0,-36.0,0
372,-9.0,-246.0,-37.0,0
373,-5.0,-247.0,-37.0,0
374,-7.0,-247.0,-31.0,0
375,-8.0,-243.0,-34.0,0
376,-7.0,-247.0,-35.0,0
377,-9.0,-245.0,-36.0,0
378,-13.0,-245.0,-40.0,0
379,-10.0,-245.0,-33.0,0
380,-16.0,-246.0,-42.0,0
381,-13.0,-247.0,-33.0,0
382,-9.0,-242.0,-32.0,0
383,-10.0,-243.0,-34.0,0
384,-7.0,-244.0,-39.0,0
385,-12.0,-245.0,-33.0,0
386,-10.0,-245.0,-36.0,0
387,-10.0,-240.0,-38.0,0
388,-13.0,-238.0,-40.0,0
389,-14.0,-241.0,-33.0,0
390,-10.0,-246.0,-34.0,0
391,-7.0,-247.0,-28.0,0
392,-11.0,-247.0,-36.0,0
393,-10.0,-247.0,-37.0,0
394,-14.0,-244.0,-33.0,0
395,-11.0,-247.0,-33.0,0
396,-13.0,-247.0,-35.0,0
397,-13.0,-246.0,-32.0,0
398,-11.0,-246.0,-33.0,0
399,-11.0,-246.0,-36.0,0
400,-11.0,-248.0,-37.0,0
401,-13.0,-242.0,-34.0,0
402,-12.0,-240.0,-33.0,0
403,-12.0,-244.0,-37.0,0
404,-11.0,-243.0,-35.0,0
405,-10.0,-243.0,-36.0,0
406,-8.0,-246.0,-36.0,0
407,-12.0,-243.0,-31.0,0
408,-14.0,-239.0,-40.0,0
409,-8.0,-243.0,-37.0,0
410,-12.0,-246.0,-36.0,0
411,-13.0,-242.0,-37.0,0
412,-15.0,-245.0,-36.0,0
413,-12.0,-242.0,-34.0,0
414,-10.0,-246.0,-35.0,0
415,-11.0,-244.0,-38.0,0
416,-12.0,-248.0,-39.0,0
417,-13.0,-245.0,-36.0,0
418,-9.0,-245.0,-35.0,0
419,-11.0,-244.0,-36.0,0
420,-13.0,-246.0,-40.0,0
421,-10.0,-246.0,-37.0,0
422,-11.0,-243.0,-40.0,0
423,-13.0,-245.0,-31.0,0
424,-13.0,-247.0,-36.0,0
425,-12.0,-245.0,-36.0,0
426,-11.0,-247.0,-38.0,0
427,-16.0,-248.0,-34.0,0
428,-14.0,-245.0,-40.0,0
429,-16.0,-244.0,-36.0,0
430,-17.0,-248.0,-39.0,0
431,-14.0,-247.0,-34.0,0
432,-14.0,-243.0,-37.0,0
433,-17.0,-244.0,-37.0,0
434,-15.0,-246.0,-39.0,0
435,-17.0,-246.0,-38.0,0
436,-16.0,-247.0,-34.0,0
437,-17.0,-240.0,-36.0,0
438,-16.0,-243.0,-37.0,0
439,-13.0,-242.0,-34.0,0
440,-13.0,-241.0,-32.0,0
441,-14.0,-243.0,-33.0,0
442,-13.0,-242.0,-30.0,0
443,-9.0,-243.0,-27.0,0
444,-14.0,-244.0,-21.0,0
445,-12.0,-244.0,-30.0,0
446,-12.0,-248.0,-29.0,0
447,-11.0,-246.0,-34.0,0
448,-13.0,-250.0,-32.0,0
449,-13.0,-250.0,-32.0,0
450,-13.0,-250.0,-38.0,0
451,-12.0,-247.0,-32.0,0
452,-9.0,-248.0,-33.0,0
453,-11.0,-250.0,-36.0,0
454,-13.0,-249.0,-34.0,0
455,-16.0,-243.0,-30.0,0
456,-9.0,-244.0,-35.0,0
457,-10.0,-247.0,-35.0,0
458,-11.0,-245.0,-36.0,0
459,-12.0,-244.0,-36.0,0
460,-10.0,-248.0,-35.0,0
461,-12.0,-247.0,-37.0,0
462,-10.0,-246.0,-34.0,0
463,-11.0,-244.0,-32.0,0
464,-12.0,-242.0,-34.0,0
465,-13.0,-247.0,-33.0,0
466,-7.0,-247.0,-34.0,0
467,-8.0,-244.0,-37.0,0
468,-9.0,-246.0,-35.0,0
469,-10.0,-244.0,-38.0,0
470,-10.0,-242.0,-34.0,0
471,-10.0,-245.0,-34.0,0
472,-10.0,-241.0,-32.0,0
473,-9.0,-242.0,-36.0,0
474,-11.0,-242.0,-33.0,0
475,-9.0,-241.0,-35.0,0
476,-16.0,-253.0,-30.0,0
477,-10.0,-247.0,-36.0,0
478,-11.0,-246.0,-32.0,0
479,-10.0,-244.0,-32.0,0
480,-13.0,-243.0,-34.0,0
481,-11.0,-248.0,-38.0,0
482,-8.0,-248.0,-40.0,0
483,-9.0,-247.0,-39.0,0
484,-12.0,-245.0,-38.0,0
485,-13.0,-248.0,-39.0,0
486,-14.0,-247.0,-38.0,0
487,-12.0,-251.0,-40.0,0
488,-10.0,-245.0,-39.0,0
489,-12.0,-248.0,-40.0,0
490,-9.0,-243.0,-43.0,0
491,-12.0,-244.0,-35.0,0
492,-12.0,-244.0,-40.0,0
493,-9.0,-247.0,-38.0,0
494,-13.0,-245.0,-36.0,0
495,-8.0,-247.0,-34.0,0
496,-10.0,-245.0,-38.0,0
497,-8.0,-248.0,-36.0,0
498,-11.0,-249.0,-35.0,0
499,-10.0,-248.0,-39.0,0
500,-11.0,-247.0,-42.0,0
501,-12.0,-244.0,-41.0,0
502,-8.0,-245.0,-42.0,0
503,-9.0,-245.0,-36.0,0
504,-12.0,-245.0,-45.0,0
505,-11.0,-244.0,-36.0,0
506,-11.0,-245.0,-39.0,0
507,-8.0,-245.0,-38.0,0
508,-11.0,-249.0,-47.0,0
509,-9.0,-246.0,-33.0,0
510,-10.0,-247.0,-34.0,0
511,-12.0,-245.0,-38.0,0
512,-10.0,-247.0,-37.0,0
513,-12.0,-244.0,-37.0,0
514,-11.0,-244.0,-35.0,0
515,-14.0,-239.0,-39.0,0
516,-11.0,-244.0,-38.0,0
517,-7.0,-242.0,-33.0,0
518,-9.0,-243.0,-34.0,0
519,-11.0,-245.0,-33.0,0
520,-10.0,-241.0,-36.0,0
521,-6.0,-244.0,-35.0,0
522,-10.0,-244.0,-37.0,0
523,-10.0,-245.0,-38.0,0
524,-10.0,-244.0,-34.0,0
525,-11.0,-241.0,-37.0,0
526,-9.0,-240.0,-39.0,0
527,-11.0,-240.0,-36.0,0
528,-8.0,-244.0,-36.0,0
529,-10.0,-247.0,-37.0,0
530,-10.0,-243.0,-46.0,0
531,-12.0,-245.0,-39.0,0
532,-11.0,-244.0,-42.0,0
533,-12.0,-245.0,-41.0,0
534,-9.0,-246.0,-36.0,0
535,-12.0,-246.0,-36.0,0
536,-18.0,-242.0,-40.0,0
537,-14.0,-242.0,-45.0,0
538,-8.0,-246.0,-42.0,0
539,-11.0,-244.0,-38.0,0
540,-8.0,-246.0,-31.0,0
541,-11.0,-246.0,-40.0,0
542,-11.0,-247.0,-40.0,0
543,-12.0,-242.0,-41.0,0
544,-16.0,-244.0,-39.0,0
545,-11.0,-242.0,-39.0,0
546,-12.0,-244.0,-41.0,0
547,-11.0,-245.0,-43.0,0
548,-14.0,-244.0,-44.0,0
549,-14.0,-239.0,-41.0,0
550,-13.0,-242.0,-46.0,0
551,-9.0,-242.0,-43.0,0
552,-14.0,-245.0,-43.0,0
553,-13.0,-246.0,-46.0,0
554,-13.0,-245.0,-46.0,0
555,-11.0,-242.0,-45.0,0
556,-10.0,-246.0,-43.0,0
557,-13.0,-246.0,-44.0,0
558,-13.0,-243.0,-38.0,0
559,-14.0,-241.0,-44.0,0
560,-14.0,-245.0,-41.0,0
561,-16.0,-246.0,-43.0,0
562,-11.0,-243.0,-42.0,0
563,-11.0,-245.0,-40.0,0
564,-14.0,-246.0,-42.0,0
565,-12.0,-242.0,-43.0,0
566,-13.0,-243.0,-44.0,0
567,-12.0,-242.0,-42.0,0
568,-9.0,-242.0,-44.0,0
569,-12.0,-244.0,-36.0,0
570,-10.0,-245.0,-41.0,0
571,-10.0,-241.0,-44.0,0
572,-9.0,-242.0,-46.0,0
573,-11.0,-242.0,-44.0,0
574,-13.0,-242.0,-44.0,0
575,-12.0,-243.0,-43.0,0
576,-12.0,-242.0,-43.0,0
577,-10.0,-242.0,-46.0,0
578,-10.0,-243.0,-42.0,0
579,-10.0,-246.0,-44.0,0
580,-7.0,-245.0,-44.0,0
581,-5.0,-244.0,-46.0,0
582,-8.0,-247.0,-46.0,0
583,-11.0,-239.0,-40.0,0
584,-10.0,-241.0,-43.0,0
585,-11.0,-245.0,-42.0,0
586,-11.0,-244.0,-41.0,0
587,-12.0,-244.0,-43.0,0
588,-9.0,-245.0,-43.0,0
589,-10.0,-245.0,-41.0,0
590,-9.0,-249.0,-44.0,0
591,-10.0,-244.0,-45.0,0
592,-10.0,-244.0,-45.0,0
593,-9.0,-243.0,-45.0,0
594,-12.0,-251.0,-45.0,0
595,-13.0,-248.0,-45.0,0
596,-11.0,-249.0,-41.0,0
597,-6.0,-247.0,-48.0,0
598,-11.0,-245.0,-44.0,0
599,-12.0,-245.0,-47.0,0
600,-10.0,-243.0,-43.0,0
601,-10.0,-241.0,-43.0,0
602,-12.0,-240.0,-50.0,0
603,-9.0,-243.0,-43.0,0
604,-12.0,-238.0,-42.0,0
605,-11.0,-243.0,-42.0,0
606,-10.0,-247.0,-41.0,0
607,-11.0,-243.0,-44.0,0
608,-11.0,-244.0,-41.0,0
609,-10.0,-245.0,-44.0,0
610,-10.0,-247.0,-44.0,0
611,-10.0,-247.0,-41.0,0
612,-10.0,-247.0,-44.0,0
613,-14.0,-247.0,-46.0,0
614,-9.0,-243.0,-50.0,0
615,-10.0,-247.0,-49.0,0
616,-9.0,-245.0,-47.0,0
617,-8.0,-243.0,-49.0,0
618,-14.0,-245.0,-46.0,0
619,-10.0,-246.0,-44.0,0
620,-14.0,-244.0,-45.0,0
621,-9.0,-242.0,-44.0,0
622,-10.0,-247.0,-46.0,0
623,-11.0,-243.0,-45.0,0
624,-14.0,-244.0,-44.0,0
625,-11.0,-245.0,-45.0,0
626,-11.0,-245.0,-54.0,0
627,-12.0,-240.0,-45.0,0
628,-9.0,-244.0,-44.0,0
629,-9.0,-244.0,-42.0,0
630,-11.0,-237.0,-46.0,0
631,-9.0,-240.0,-45.0,0
632,-11.0,-240.0,-43.0,0
633,-15.0,-239.0,-43.0,0
634,-8.0,-238.0,-37.0,0
635,-13.0,-239.0,-42.0,0
636,-11.0,-239.0,-45.0,0
637,-14.0,-240.0,-44.0,0
638,-13.0,-242.0,-42.0,0
639,-12.0,-244.0,-43.0,0
640,-14.0,-246.0,-44.0,0
641,-12.0,-241.0,-47.0,0
642,-11.0,-244.0,-46.0,0
643,-9.0,-245.0,-39.0,0
644,-11.0,-245.0,-46.0,0
645,-9.0,-248.0,-45.0,0
646,-12.0,-247.0,-40.0,0
647,-14.0,-247.0,-39.0,0
648,-7.0,-244.0,-53.0,0
649,-9.0,-249.0,-42.0,0
650,-5.0,-251.0,-41.0,0
651,-6.0,-253.0,-41.0,0
652,-7.0,-251.0,-41.0,0
653,-9.0,-248.0,-41.0,0
654,-12.0,-247.0,-41.0,0
655,-8.0,-249.0,-42.0,0
656,-9.0,-247.0,-42.0,0
657,-11.0,-244.0,-40.0,0
658,-4.0,-244.0,-42.0,0
659,-7.0,-243.0,-41.0,0
660,-4.0,-246.0,-41.0,0
661,-5.0,-243.0,-42.0,0
662,-4.0,-243.0,-43.0,0
663,-2.0,-242.0,-41.0,0
664,-2.0,-242.0,-41.0,0
665,1.0,-243.0,-41.0,0
666,-5.0,-245.0,-39.0,0
667,-4.0,-242.0,-45.0,0
668,-3.0,-242.0,-38.0,0
669,-2.0,-243.0,-43.0,0
670,-6.0,-241.0,-43.0,0
671,-4.0,-243.0,-45.0,0
672,0.0,-242.0,-41.0,0
673,-1.0,-244.0,-43.0,0
674,0.0,-246.0,-42.0,0
675,-1.0,-244.0,-45.0,0
676,-4.0,-242.0,-44.0,0
677,0.0,-244.0,-47.0,0
678,-2.0,-246.0,-40.0,0
679,-7.0,-246.0,-44.0,0
680,-5.0,-244.0,-40.0,0
681,-2.0,-244.0,-47.0,0
682,-3.0,-246.0,-43.0,0
683,-3.0,-247.0,-46.0,0
684,-6.0,-245.0,-44.0,0
685,-6.0,-245.0,-43.0,0
686,-5.0,-244.0,-43.0,0
687,-7.0,-245.0,-45.0,0
688,-7.0,-245.0,-42.0,0
689,-8.0,-247.0,-43.0,0
690,-11.0,-243.0,-46.0,0
691,-9.0,-242.0,-47.0,0
692,-8.0,-244.0,-44.0,0
693,-8.0,-243.0,-42.0,0
694,-13.0,-242.0,-43.0,0
695,-10.0,-241.0,-42.0,0
696,-12.0,-245.0,-41.0,0
697,-10.0,-245.0,-44.0,0
698,-8.0,-243.0,-41.0,0
699,-10.0,-243.0,-44.0,0
700,-8.0,-246.0,-46.0,0
701,-7.0,-245.0,-30.0,0
702,-8.0,-244.0,-39.0,0
703,-9.0,-244.0,-42.0,0
704,-6.0,-242.0,-43.0,0
705,-5.0,-244.0,-39.0,0
706,-6.0,-250.0,-43.0,0
707,-4.0,-245.0,-42.0,0
708,-6.0,-246.0,-41.0,0
709,-4.0,-245.0,-45.0,0
710,-3.0,-246.0,-44.0,0
711,-1.0,-249.0,-41.0,0
712,-5.0,-254.0,-35.0,0
713,-7.0,-248.0,-43.0,0
714,-4.0,-246.0,-40.0,0
715,-4.0,-245.0,-40.0,0
716,-7.0,-245.0,-39.0,0
717,-3.0,-246.0,-43.0,0
718,-2.0,-247.0,-42.0,0
719,-4.0,-245.0,-40.0,0
720,1.0,-247.0,-40.0,0
721,-3.0,-247.0,-39.0,0
722,-1.0,-242.0,-44.0,0
723,-9.0,-242.0,-35.0,0
724,-4.0,-247.0,-39.0,0
725,-6.0,-246.0,-37.0,0
726,-6.0,-249.0,-39.0,0
727,-6.0,-247.0,-40.0,0
728,-5.0,-250.0,-41.0,0
729,-8.0,-247.0,-37.0,0
730,-2.0,-248.0,-45.0,0
731,-2.0,-248.0,-37.0,0
732,-3.0,-242.0,-49.0,0
733,-4.0,-233.0,-37.0,0
734,-6.0,-243.0,-45.0,0
735,-4.0,-242.0,-42.0,0
736,-2.0,-244.0,-41.0,0
737,-2.0,-244.0,-45.0,0
738,-5.0,-241.0,-38.0,0
739,-5.0,-243.0,-41.0,0
740,-2.0,-241.0,-41.0,0
741,-4.0,-242.0,-40.0,0
742,-8.0,-238.0,-42.0,0
743,-6.0,-239.0,-40.0,0
744,-1.0,-250.0,-42.0,0
745,-9.0,-241.0,-43.0,0
746,-8.0,-244.0,-40.0,0
747,-6.0,-243.0,-42.0,0
748,-5.0,-244.0,-44.0,0
749,-4.0,-247.0,-39.0,0
750,-4.0,-244.0,-41.0,0
751,-6.0,-245.0,-42.0,0
752,-9.0,-244.0,-44.0,0
753,-8.0,-245.0,-44.0,0
754,-3.0,-246.0,-42.0,0
755,-11.0,-246.0,-36.0,0
756,-6.0,-245.0,-42.0,0
757,-3.0,-248.0,-45.0,0
758,-8.0,-246.0,-39.0,0
759,-4.0,-244.0,-43.0,0
760,-6.0,-244.0,-45.0,0
761,-7.0,-246.0,-42.0,0
762,-7.0,-249.0,-42.0,0
763,0.0,-248.0,-42.0,0
764,-11.0,-243.0,-35.0,0
765,-1.0,-243.0,-38.0,0
766,-1.0,-248.0,-44.0,0
767,-8.0,-247.0,-40.0,0
768,-8.0,-242.0,-39.0,0
769,-7.0,-245.0,-42.0,0
770,-3.0,-243.0,-40.0,0
771,-2.0,-245.0,-39.0,0
772,-4.0,-248.0,-41.0,0
773,-6.0,-241.0,-39.0,0
774,-5.0,-244.0,-39.0,0
775,-3.0,-244.0,-43.0,0
776,-3.0,-244.0,-44.0,0
777,-7.0,-245.0,-44.0,0
778,-5.0,-243.0,-45.0,0
779,-5.0,-244.0,-42.0,0
780,-1.0,-242.0,-44.0,0
781,-5.0,-244.0,-43.0,0
782,-3.0,-247.0,-43.0,0
783,-4.0,-244.0,-42.0,0
784,-5.0,-240.0,-40.0,0
785,-2.0,-247.0,-38.0,0
786,-4.0,-245.0,-40.0,0
787,-11.0,-246.0,-38.0,0
788,-2.0,-246.0,-39.0,0
789,-3.0,-246.0,-42.0,0
790,-6.0,-242.0,-39.0,0
791,-2.0,-246.0,-38.0,0
792,-3.0,-246.0,-41.0,0
793,-3.0,-244.0,-42.0,0
794,-1.0,-247.0,-41.0,0
795,-2.0,-247.0,-45.0,0
796,-4.0,-246.0,-42.0,0
797,-5.0,-242.0,-42.0,0
798,-4.0,-245.0,-45.0,0
799,0.0,-246.0,-35.0,0
800,-4.0,-241.0,-38.0,0
801,-4.0,-242.0,-40.0,0
802,-5.0,-244.0,-40.0,0
803,-1.0,-242.0,-41.0,0
804,-3.0,-245.0,-40.0,0
805,-3.0,-241.0,-42.0,0
806,-2.0,-243.0,-37.0,0
807,0.0,-241.0,-37.0,0
808,0.0,-247.0,-37.0,0
809,2.0,-246.0,-44.0,0
810,0.0,-244.0,-44.0,0
811,-1.0,-246.0,-41.0,0
812,0.0,-249.0,-41.0,0
813,3.0,-251.0,-43.0,0
814,-2.0,-245.0,-42.0,0
815,-1.0,-249.0,-45.0,0
816,-5.0,-244.0,-48.0,0
817,-7.0,-246.0,-48.0,0
818,-7.0,-244.0,-50.0,0
819,-3.0,-251.0,-54.0,0
820,-6.0,-248.0,-50.0,0
821,-7.0,-241.0,-49.0,0
822,-6.0,-243.0,-48.0,0
823,-3.0,-243.0,-47.0,0
824,-6.0,-242.0,-46.0,0
825,-6.0,-240.0,-46.0,0
826,-6.0,-247.0,-43.0,0
827,-7.0,-244.0,-46.0,0
828,-3.0,-248.0,-46.0,0
829,-8.0,-244.0,-48.0,0
830,-3.0,-248.0,-43.0,0
831,-4.0,-244.0,-50.0,0
832,-6.0,-245.0,-46.0,0
833,-3.0,-246.0,-49.0,0
834,0.0,-244.0,-45.0,0
835,1.0,-247.0,-46.0,0
836,-5.0,-245.0,-48.0,0
837,-2.0,-245.0,-49.0,0
838,-1.0,-245.0,-44.0,0
839,1.0,-249.0,-41.0,0
840,-5.0,-240.0,-51.0,0
841,-4.0,-247.0,-40.0,0
842,0.0,-244.0,-44.0,0
843,2.0,-251.0,-45.0,0
844,-1.0,-250.0,-44.0,0
845,2.0,-249.0,-47.0,0
846,5.0,-248.0,-47.0,0
847,1.0,-250.0,-46.0,0
848,2.0,-251.0,-48.0,0
849,5.0,-248.0,-49.0,0
850,10.0,-250.0,-47.0,0
851,8.0,-255.0,-41.0,0
852,7.0,-247.0,-48.0,0
853,8.0,-248.0,-45.0,0
854,9.0,-250.0,-43.0,0
855,11.0,-252.0,-40.0,0
856,7.0,-248.0,-40.0,0
857,7.0,-248.0,-43.0,0
858,9.0,-249.0,-40.0,0
859,10.0,-250.0,-41.0,0
860,8.0,-245.0,-36.0,0
861,10.0,-248.0,-39.0,0
862,10.0,-244.0,-33.0,0
863,7.0,-245.0,-37.0,0
864,8.0,-247.0,-37.0,0
865,9.0,-245.0,-35.0,0
866,10.0,-246.0,-32.0,0
867,11.0,-245.0,-33.0,0
868,10.0,-242.0,-34.0,0
869,11.0,-246.0,-34.0,0
870,10.0,-243.0,-36.0,0
871,9.0,-244.0,-33.0,0
872,12.0,-244.0,-37.0,0
873,10.0,-247.0,-34.0,0
874,13.0,-246.0,-28.0,0
875,6.0,-246.0,-33.0,0
876,6.0,-246.0,-32.0,0
877,12.0,-242.0,-35.0,0
878,10.0,-248.0,-34.0,0
879,11.0,-245.0,-34.0,0
880,10.0,-244.0,-33.0,0
881,12.0,-246.0,-33.0,0
882,12.0,-246.0,-34.0,0
883,11.0,-250.0,-31.0,0
884,11.0,-245.0,-35.0,0
885,7.0,-249.0,-30.0,0
886,10.0,-248.0,-29.0,0
887,15.0,-246.0,-34.0,0
888,12.0,-246.0,-29.0,0
889,15.0,-245.0,-30.0,0
890,12.0,-245.0,-29.0,0
891,17.0,-247.0,-28.0,0
892,11.0,-243.0,-28.0,0
893,18.0,-243.0,-28.0,0
894,17.0,-245.0,-22.0,0
895,14.0,-246.0,-26.0,0
896,18.0,-248.0,-21.0,0
897,17.0,-248.0,-26.0,0
898,15.0,-247.0,-26.0,0
899,19.0,-249.0,-25.0,0
900,18.0,-247.0,-22.0,0
901,18.0,-249.0,-23.0,0
902,19.0,-245.0,-21.0,0
903,17.0,-242.0,-19.0,0
904,21.0,-248.0,-21.0,0
905,21.0,-249.0,-22.0,0
906,19.0,-249.0,-21.0,0
907,19.0,-246.0,-22.0,0
908,16.0,-242.0,-20.0,0
909,16.0,-244.0,-20.0,0
910,17.0,-243.0,-16.0,0
911,17.0,-242.0,-20.0,0
912,14.0,-243.0,-18.0,0
913,15.0,-240.0,-20.0,0
914,19.0,-242.0,-19.0,0
915,24.0,-245.0,-18.0,0
916,19.0,-243.0,-18.0,0
917,17.0,-245.0,-17.0,0
918,16.0,-243.0,-16.0,0
919,20.0,-244.0,-14.0,0
920,21.0,-244.0,-14.0,0
921,21.0,-246.0,-14.0,0
922,19.0,-242.0,-12.0,0
923,22.0,-247.0,-13.0,0
924,20.0,-243.0,-10.0,0
925,22.0,-247.0,-20.0,0
926,15.0,-249.0,-10.0,0
927,23.0,-248.0,-16.0,0
928,23.0,-247.0,-16.0,0
929,23.0,-251.0,-16.0,0
930,22.0,-249.0,-14.0,0
931,22.0,-251.0,-14.0,0
932,22.0,-247.0,-13.0,0
933,22.0,-250.0,-13.0,0
934,20.0,-248.0,-15.0,0
935,22.0,-242.0,-13.0,0
936,23.0,-241.0,-14.0,0
937,26.0,-246.0,-10.0,0
938,24.0,-242.0,-14.0,0
939,28.0,-244.0,-19.0,0
940,24.0,-241.0,-16.0,0
941,25.0,-243.0,-17.0,0
942,25.0,-248.0,-12.0,0
943,26.0,-243.0,-13.0,0
944,28.0,-244.0,-9.0,0
945,28.0,-242.0,-6.0,0
946,33.0,-247.0,-6.0,0
947,33.0,-247.0,-8.0,0
948,32.0,-252.0,-2.0,0
949,30.0,-252.0,0.0,0
950,30.0,-251.0,-5.0,0
951,25.0,-253.0,-3.0,0
952,25.0,-250.0,-4.0,0
953,23.0,-253.0,-9.0,0
954,22.0,-248.0,-8.0,0
955,23.0,-250.0,-7.0,0
956,20.0,-254.0,-6.0,0
957,22.0,-254.0,-9.0,0
958,22.0,-247.0,-2.0,0
959,22.0,-249.0,-9.0,0
960,20.0,-249.0,-1.0,0
961,24.0,-247.0,-8.0,0
962,24.0,-247.0,-8.0,0
963,26.0,-248.0,0.0,0
964,28.0,-249.0,-3.0,0
965,30.0,-249.0,-8.0,0
966,33.0,-249.0,-7.0,0
967,35.0,-246.0,-5.0,0
968,39.0,-253.0,-11.0,0
969,30.0,-239.0,-13.0,0
970,39.0,-247.0,-9.0,0
971,39.0,-243.0,-13.0,0
972,38.0,-243.0,-14.0,0
973,36.0,-241.0,-16.0,0
974,40.0,-243.0,-14.0,0
975,39.0,-240.0,-15.0,0
976,45.0,-242.0,-11.0,0
977,42.0,-241.0,-14.0,0
978,45.0,-241.0,-12.0,0
979,44.0,-244.0,-13.0,0
980,47.0,-239.0,-6.0,0
981,44.0,-238.0,-9.0,0
982,47.0,-241.0,-10.0,0
983,49.0,-240.0,-4.0,0
984,49.0,-241.0,-7.0,0
985,52.0,-242.0,-11.0,0
986,47.0,-239.0,-5.0,0
987,51.0,-241.0,-4.0,0
988,52.0,-239.0,-8.0,0
989,57.0,-244.0,-5.0,0
990,48.0,-241.0,-2.0,0
991,53.0,-242.0,-3.0,0
992,55.0,-248.0,-1.0,0
993,58.0,-246.0,-3.0,0
994,54.0,-244.0,-1.0,0
995,59.0,-241.0,-1.0,0
996,57.0,-242.0,-3.0,0
997,60.0,-243.0,-2.0,0
998,63.0,-242.0,-4.0,0
999,63.0,-239.0,0.0,0
1000,64.0,-240.0,0.0,0
1001,64.0,-243.0,-2.0,0
1002,69.0,-242.0,0.0,0
1003,72.0,-239.0,-3.0,0
1004,68.0,-238.0,-2.0,0
1005,71.0,-239.0,-2.0,0
1006,75.0,-240.0,-4.0,0
1007,74.0,-238.0,1.0,0
1008,77.0,-237.0,-3.0,0
1009,80.0,-236.0,-3.0,0
1010,81.0,-234.0,1.0,0
1011,79.0,-237.0,6.0,0
1012,75.0,-234.0,-3.0,0
1013,81.0,-236.0,6.0,0
1014,77.0,-237.0,8.0,0
1015,83.0,-235.0,4.0,0
1016,81.0,-237.0,4.0,0
1017,87.0,-237.0,8.0,0
1018,89.0,-237.0,8.0,0
1019,95.0,-237.0,8.0,0
1020,100.0,-232.0,6.0,0
1021,102.0,-228.0,8.0,0
1022,104.0,-227.0,9.0,0
1023,101.0,-223.0,4.0,0
1024,103.0,-225.0,8.0,0
1025,101.0,-222.0,13.0,0
1026,98.0,-228.0,8.0,0
1027,99.0,-228.0,13.0,0
1028,95.0,-229.0,14.0,0
1029,89.0,-230.0,14.0,0
1030,89.0,-233.0,19.0,0
1031,84.0,-233.0,18.0,0
1032,84.0,-230.0,15.0,0
1033,81.0,-232.0,14.0,0
1034,81.0,-231.0,15.0,0
1035,80.0,-226.0,15.0,0
1036,81.0,-227.0,16.0,0
1037,87.0,-228.0,13.0,0
1038,82.0,-224.0,10.0,0
1039,78.0,-221.0,7.0,0
1040,85.0,-222.0,5.0,0
1041,81.0,-224.0,4.0,0
1042,87.0,-221.0,2.0,0
1043,92.0,-228.0,3.0,0
1044,96.0,-232.0,6.0,0
1045,107.0,-224.0,4.0,0
1046,99.0,-221.0,1.0,0
1047,114.0,-222.0,1.0,0
1048,120.0,-217.0,1.0,0
1049,120.0,-216.0,4.0,0
1050,124.0,-221.0,12.0,0
1051,125.0,-217.0,18.0,0
1052,125.0,-213.0,20.0,0
1053,114.0,-211.0,12.0,0
1054,109.0,-204.0,20.0,0
1055,106.0,-200.0,7.0,0
1056,104.0,-188.0,11.0,0
1057,102.0,-177.0,7.0,0
1058,96.0,-165.0,11.0,0
1059,101.0,-155.0,13.0,0
1060,99.0,-149.0,5.0,0
1061,104.0,-144.0,8.0,0
1062,116.0,-151.0,15.0,0
1063,119.0,-154.0,21.0,0
1064,127.0,-159.0,27.0,0
1065,135.0,-166.0,32.0,0
1066,147.0,-169.0,38.0,0
1067,138.0,-177.0,44.0,0
1068,149.0,-178.0,43.0,0
1069,134.0,-177.0,40.0,0
1070,131.0,-179.0,33.0,0
1071,126.0,-176.0,28.0,0
1072,120.0,-174.0,27.0,0
1073,119.0,-174.0,15.0,0
1074,113.0,-172.0,10.0,0
1075,112.0,-170.0,-3.0,0
1076,113.0,-175.0,-1.0,0
1077,124.0,-171.0,-1.0,0
1078,125.0,-167.0,-2.0,0
1079,122.0,-164.0,-2.0,0
1080,109.0,-158.0,-2.0,0
1081,103.0,-156.0,0.0,0
1082,104.0,-153.0,-5.0,0
1083,97.0,-153.0,-5.0,0
1084,89.0,-143.0,-5.0,0
1085,82.0,-135.0,-14.0,0
1086,68.0,-121.0,-14.0,0
1087,59.0,-106.0,-28.0,0
1088,57.0,-93.0,-25.0,0
1089,61.0,-82.0,-29.0,0
1090,51.0,-65.0,-23.0,2
1091,54.0,-52.0,-19.0,2
1092,48.0,-33.0,-4.0,2
1093,46.0,-20.0,-4.0,2
1094,31.0,-3.0,4.0,2
1095,20.0,6.0,5.0,2
1096,16.0,14.0,17.0,2
1097,14.0,27.0,31.0,2
1098,5.0,41.0,35.0,2
1099,3.0,59.0,38.0,2
1100,17.0,73.0,45.0,2
1101,47.0,96.0,50.0,2
1102,68.0,118.0,43.0,2
1103,73.0,130.0,41.0,2
1104,87.0,136.0,33.0,2
1105,89.0,125.0,34.0,2
1106,72.0,108.0,19.0,2
1107,63.0,80.0,2.0,2
1108,42.0,48.0,-18.0,2
1109,40.0,9.0,-36.0,2
1110,58.0,-32.0,-47.0,2
1111,57.0,-58.0,-50.0,2
1112,43.0,-66.0,-45.0,2
1113,44.0,-67.0,-36.0,2
1114,5.0,-49.0,-39.0,2
1115,-14.0,-31.0,-43.0,2
1116,-54.0,0.0,-56.0,2
1117,-63.0,2.0,-47.0,2
1118,-60.0,9.0,-43.0,2
1119,-48.0,4.0,-18.0,2
1120,-61.0,20.0,-27.0,2
1121,39.0,7.0,0.0,2
1122,199.0,-1.0,49.0,2
1123,298.0,1.0,62.0,2
1124,403.0,7.0,59.0,2
1125,522.0,6.0,69.0,2
1126,647.0,-14.0,91.0,2
1127,833.0,-47.0,141.0,2
1128,1046.0,-67.0,163.0,2
1129,1290.0,-105.0,181.0,2
1130,1593.0,-100.0,213.0,2
1131,1791.0,-33.0,191.0,2
1132,1641.0,82.0,73.0,2
1133,1416.0,142.0,-22.0,2
1134,1187.0,90.0,-75.0,2
1135,1045.0,-47.0,-50.0,2
1136,930.0,-198.0,45.0,2
1137,790.0,-305.0,146.0,2
1138,708.0,-301.0,188.0,2
1139,615.0,-255.0,215.0,2
1140,527.0,-188.0,198.0,2
1141,448.0,-131.0,143.0,2
1142,359.0,-109.0,128.0,2
1143,296.0,-91.0,153.0,2
1144,242.0,-65.0,159.0,2
1145,189.0,-37.0,179.0,2
1146,162.0,2.0,197.0,2
1147,147.0,40.0,216.0,2
1148,132.0,80.0,212.0,2
1149,128.0,102.0,202.0,2
1150,131.0,108.0,168.0,2
1151,181.0,99.0,137.0,2
1152,200.0,93.0,113.0,2
1153,234.0,69.0,69.0,2
1154,239.0,48.0,29.0,1
1155,232.0,19.0,3.0,1
1156,220.0,-12.0,-11.0,1
1157,206.0,-35.0,-5.0,1
1158,191.0,-63.0,0.0,1
1159,188.0,-89.0,22.0,1
1160,181.0,-104.0,33.0,1
1161,176.0,-112.0,42.0,1
1162,173.0,-112.0,36.0,1
1163,151.0,-98.0,34.0,1
1164,139.0,-85.0,30.0,1
1165,131.0,-69.0,25.0,1
1166,130.0,-55.0,25.0,1
1167,128.0,-39.0,25.0,1
1168,128.0,-25.0,34.0,1
1169,129.0,-13.0,49.0,1
1170,140.0,-9.0,54.0,1
1171,124.0,1.0,58.0,1
1172,111.0,10.0,54.0,1
1173,96.0,15.0,62.0,1
1174,79.0,29.0,59.0,1
1175,65.0,34.0,64.0,1
1176,53.0,43.0,64.0,1
1177,52.0,44.0,67.0,1
1178,56.0,45.0,70.0,1
1179,62.0,52.0,75.0,1
1180,83.0,45.0,69.0,1
1181,102.0,39.0,67.0,1
1182,125.0,46.0,71.0,1
1183,161.0,40.0,57.0,1
1184,184.0,42.0,46.0,1
1185,215.0,41.0,44.0,1
1186,252.0,44.0,33.0,1
1187,278.0,49.0,31.0,1
1188,307.0,53.0,24.0,1
1189,328.0,63.0,10.0,1
1190,349.0,68.0,2.0,1
1191,368.0,73.0,-2.0,1
1192,373.0,82.0,-12.0,1
1193,385.0,86.0,-9.0,1
1194,382.0,88.0,-20.0,1
1195,384.0,87.0,-20.0,1
1196,382.0,82.0,-23.0,1
1197,382.0,73.0,-18.0,1
1198,382.0,67.0,-19.0,1
1199,375.0,62.0,-16.0,1
1200,381.0,52.0,-18.0,1
1201,382.0,47.0,-19.0,1
1202,382.0,34.0,-15.0,0
1203,387.0,28.0,-20.0,0
1204,388.0,29.0,-19.0,0
1205,377.0,21.0,-25.0,0
1206,376.0,23.0,-14.0,0
1207,369.0,19.0,-9.0,0
1208,348.0,6.0,-1.0,0
1209,326.0,0.0,10.0,0
1210,305.0,-16.0,14.0,0
1211,284.0,-32.0,24.0,0
1212,267.0,-43.0,31.0,0
1213,247.0,-56.0,36.0,0
1214,234.0,-67.0,36.0,0
1215,224.0,-81.0,36.0,0
1216,221.0,-81.0,24.0,0
1217,219.0,-87.0,26.0,0
1218,223.0,-83.0,16.0,0
1219,231.0,-83.0,8.0,0
1220,237.0,-80.0,3.0,0
1221,239.0,-76.0,5.0,0
1222,246.0,-69.0,3.0,0
1223,245.0,-64.0,9.0,0
1224,243.0,-54.0,13.0,0
1225,250.0,-40.0,9.0,0
1226,260.0,-29.0,9.0,0
1227,262.0,-9.0,2.0,0
1228,274.0,8.0,-3.0,0
1229,286.0,23.0,-14.0,0
1230,296.0,36.0,-27.0,0
1231,301.0,48.0,-36.0,0
1232,309.0,57.0,-51.0,0
1233,319.0,65.0,-65.0,0
1234,319.0,71.0,-76.0,0
1235,321.0,83.0,-94.0,0
1236,320.0,84.0,-90.0,0
1237,311.0,77.0,-84.0,0
1238,310.0,72.0,-78.0,0
1239,291.0,74.0,-95.0,0
1240,293.0,100.0,-138.0,0
1241,309.0,74.0,-112.0,0
1242,290.0,53.0,-110.0,0
1243,264.0,21.0,-126.0,0
1244,234.0,-19.0,-130.0,0
1245,198.0,-54.0,-114.0,0
1246,172.0,-71.0,-94.0,0
1247,169.0,-83.0,-97.0,0
1248,182.0,-89.0,-112.0,0
1249,192.0,-104.0,-117.0,0
1250,190.0,-106.0,-118.0,0
1251,206.0,-116.0,-112.0,0
1252,209.0,-122.0,-95.0,0
1253,227.0,-127.0,-97.0,0
1254,240.0,-129.0,-88.0,0
1255,244.0,-126.0,-87.0,0
1256,248.0,-127.0,-86.0,0
1257,258.0,-119.0,-81.0,0
1258,250.0,-123.0,-69.0,0
1259,240.0,-120.0,-60.0,0
1260,243.0,-116.0,-65.0,0
1261,229.0,-113.0,-48.0,0
1262,231.0,-87.0,-43.0,0
1263,228.0,-95.0,-40.0,0
1264,221.0,-95.0,-35.0,0
1265,229.0,-86.0,-31.0,0
1266,240.0,-79.0,-26.0,0
1267,223.0,-78.0,-20.0,0
1268,240.0,-68.0,-7.0,0
1269,236.0,-64.0,-16.0,0
1270,229.0,-62.0,-2.0,0
1271,241.0,-58.0,-7.0,0
1272,243.0,-54.0,6.0,0
1273,239.0,-48.0,-3.0,0
1274,242.0,-39.0,-17.0,0
1275,244.0,-39.0,-17.0,0
1276,251.0,-40.0,-7.0,0
1277,250.0,-42.0,-15.0,0
1278,252.0,-47.0,-12.0,0
1279,252.0,-49.0,-22.0,0
1280,255.0,-49.0,-22.0,0
1281,257.0,-57.0,-25.0,0
1282,259.0,-60.0,-24.0,0
1283,258.0,-61.0,-24.0,0
1284,256.0,-62.0,-20.0,0
1285,258.0,-62.0,-21.0,0
1286,256.0,-61.0,-18.0,0
1287,255.0,-54.0,-15.0,0
1288,257.0,-49.0,-12.0,0
1289,255.0,-51.0,-11.0,0
1290,259.0,-43.0,0.0,0
1291,260.0,-43.0,-1.0,0
1292,264.0,-40.0,0.0,0
1293,271.0,-43.0,7.0,0
1294,274.0,-32.0,8.0,0
1295,283.0,-33.0,11.0,0
1296,283.0,-34.0,13.0,0
1297,283.0,-29.0,22.0,0
1298,281.0,-36.0,21.0,0
1299,284.0,-38.0,25.0,0
1300,282.0,-40.0,27.0,0
1301,274.0,-45.0,29.0,0
1302,270.0,-49.0,42.0,0
1303,264.0,-55.0,45.0,0
1304,260.0,-55.0,40.0,0
1305,256.0,-59.0,46.0,0
1306,246.0,-58.0,48.0,0
1307,239.0,-60.0,50.0,0
1308,242.0,-62.0,52.0,0
1309,238.0,-59.0,50.0,0
1310,236.0,-60.0,53.0,0
1311,229.0,-51.0,50.0,0
1312,228.0,-53.0,51.0,0
1313,228.0,-50.0,49.0,0
1314,223.0,-41.0,47.0,0
1315,230.0,-42.0,43.0,0
1316,232.0,-37.0,45.0,0
1317,234.0,-33.0,40.0,0
1318,234.0,-32.0,37.0,0
1319,237.0,-30.0,35.0,0
1320,240.0,-28.0,33.0,0
1321,245.0,-33.0,26.0,0
1322,247.0,-29.0,27.0,0
1323,251.0,-31.0,22.0,0
1324,251.0,-30.0,19.0,0
1325,254.0,-35.0,15.0,0
1326,257.0,-31.0,13.0,0
1327,256.0,-29.0,13.0,0
1328,261.0,-31.0,13.0,0
1329,261.0,-31.0,12.0,0
1330,264.0,-31.0,9.0,0
1331,266.0,-34.0,8.0,0
1332,260.0,-33.0,4.0,0
1333,265.0,-33.0,7.0,0
1334,262.0,-33.0,7.0,0
1335,264.0,-34.0,0.0,0
1336,266.0,-44.0,1.0,0
1337,264.0,-41.0,1.0,0
1338,265.0,-39.0,-4.0,0
1339,265.0,-42.0,-9.0,0
1340,261.0,-45.0,-10.0,0
1341,262.0,-43.0,-10.0,0
1342,260.0,-48.0,-13.0,0
1343,260.0,-42.0,-15.0,0
1344,262.0,-47.0,-20.0,0
1345,259.0,-44.0,-15.0,0
1346,259.0,-42.0,-14.0,0
1347,259.0,-42.0,-20.0,0
1348,258.0,-39.0,-18.0,0
1349,258.0,-38.0,-18.0,0
1350,259.0,-38.0,-18.0,0
1351,256.0,-38.0,-19.0,0
1352,255.0,-37.0,-20.0,0
1353,255.0,-38.0,-19.0,0
1354,256.0,-41.0,-22.0,0
1355,257.0,-44.0,-23.0,0
1356,255.0,-41.0,-18.0,0
1357,253.0,-42.0,-28.0,0
1358,258.0,-47.0,-18.0,0
1359,255.0,-40.0,-19.0,0
1360,257.0,-43.0,-13.0,0
1361,258.0,-40.0,-17.0,0
1362,258.0,-39.0,-12.0,0
1363,259.0,-37.0,-12.0,0
1364,257.0,-35.0,-10.0,0
1365,258.0,-34.0,-10.0,0
1366,260.0,-36.0,-8.0,0
1367,261.0,-34.0,-6.0,0
1368,259.0,-33.0,-2.0,0
1369,260.0,-35.0,-5.0,0
1370,261.0,-31.0,-2.0,0
1371,258.0,-30.0,-1.0,0
1372,259.0,-31.0,1.0,0
1373,259.0,-30.0,0.0,0
1374,264.0,-30.0,-1.0,0
1375,266.0,-24.0,-3.0,0
1376,260.0,-29.0,-1.0,0
1377,260.0,-29.0,2.0,0
1378,258.0,-27.0,1.0,0
1379,258.0,-30.0,-1.0,0
1380,258.0,-25.0,0.0,0
1381,258.0,-27.0,0.0,0
1382,260.0,-27.0,0.0,0
1383,259.0,-28.0,2.0,0
1384,259.0,-27.0,6.0,0
1385,258.0,-28.0,6.0,0
1386,260.0,-29.0,6.0,0
1387,261.0,-32.0,6.0,0
1388,263.0,-32.0,3.0,0
1389,263.0,-33.0,2.0,0
1390,261.0,-33.0,4.0,0
1391,254.0,-33.0,7.0,0
1392,259.0,-34.0,3.0,0
1393,258.0,-35.0,1.0,0
1394,262.0,-33.0,-1.0,0
1395,259.0,-38.0,3.0,0
1396,260.0,-36.0,1.0,0
1397,260.0,-38.0,2.0,0
1398,258.0,-35.0,-2.0,0
1399,255.0,-37.0,3.0,0
1400,258.0,-37.0,-2.0,0
1401,256.0,-42.0,-1.0,0
1402,260.0,-39.0,0.0,0
1403,258.0,-40.0,-3.0,0
1404,258.0,-41.0,-1.0,0
1405,259.0,-42.0,0.0,0
1406,262.0,-45.0,-1.0,0
1407,257.0,-42.0,0.0,0
1408,258.0,-44.0,-3.0,0
1409,261.0,-41.0,-3.0,0
1410,261.0,-42.0,-6.0,0
1411,258.0,-41.0,0.0,0
1412,257.0,-39.0,-8.0,0
1413,259.0,-40.0,-2.0,0
1414,259.0,-40.0,-4.0,0
1415,257.0,-37.0,-1.0,0
1416,256.0,-37.0,-5.0,0
1417,254.0,-36.0,-3.0,0
1418,256.0,-36.0,-4.0,0
1419,257.0,-33.0,-6.0,0
1420,257.0,-34.0,-4.0,0
1421,258.0,-37.0,-3.0,0
1422,261.0,-34.0,0.0,0
1423,259.0,-36.0,4.0,0
1424,260.0,-35.0,-8.0,0
1425,259.0,-37.0,-4.0,0
1426,256.0,-38.0,-6.0,0
1427,259.0,-38.0,-4.0,0
1428,260.0,-37.0,-3.0,0
1429,256.0,-36.0,-1.0,0
1430,257.0,-33.0,-6.0,0
1431,257.0,-36.0,-7.0,0
1432,257.0,-31.0,1.0,0
1433,257.0,-35.0,0.0,0
1434,255.0,-32.0,-1.0,0
1435,256.0,-35.0,0.0,0
1436,256.0,-35.0,-4.0,0
1437,259.0,-34.0,0.0,0
1438,259.0,-34.0,-3.0,0
1439,258.0,-33.0,0.0,0
1440,258.0,-33.0,0.0,0
1441,259.0,-33.0,-5.0,0
1442,256.0,-32.0,1.0,0
1443,257.0,-35.0,1.0,0
1444,258.0,-33.0,0.0,0
1445,253.0,-29.0,-6.0,0
1446,256.0,-33.0,-1.0,0
1447,259.0,-30.0,-2.0,0
1448,256.0,-34.0,2.0,0
1449,257.0,-32.0,0.0,0
1450,256.0,-31.0,-3.0,0
1451,257.0,-33.0,0.0,0
1452,256.0,-32.0,-2.0,0
1453,257.0,-35.0,-1.0,0
1454,259.0,-35.0,-1.0,0
1455,260.0,-30.0,-2.0,0
1456,257.0,-32.0,-10.0,0
1457,256.0,-25.0,0.0,0
1458,259.0,-30.0,-3.0,0
1459,260.0,-33.0,-8.0,0
1460,259.0,-34.0,-3.0,0
1461,259.0,-32.0,-3.0,0
1462,261.0,-31.0,-1.0,0
1463,260.0,-34.0,-1.0,0
1464,259.0,-32.0,-1.0,0
1465,256.0,-27.0,-2.0,0
1466,259.0,-31.0,-4.0,0
1467,257.0,-36.0,-3.0,0
1468,257.0,-32.0,-6.0,0
1469,257.0,-34.0,-3.0,0
1470,259.0,-35.0,-6.0,0
1471,260.0,-34.0,0.0,0
1472,257.0,-34.0,0.0,0
1473,259.0,-36.0,-5.0,0
1474,254.0,-32.0,-6.0,0
1475,258.0,-34.0,0.0,0
1476,257.0,-33.0,0.0,0
1477,260.0,-36.0,-5.0,0
1478,258.0,-27.0,-6.0,0
1479,257.0,-35.0,-3.0,0
1480,257.0,-33.0,-4.0,0
1481,259.0,-34.0,-5.0,0
1482,257.0,-32.0,-4.0,0
1483,256.0,-35.0,-7.0,0
1484,258.0,-30.0,-6.0,0
1485,259.0,-33.0,-8.0,0
1486,259.0,-33.0,-6.0,0
1487,257.0,-30.0,-9.0,0
1488,262.0,-31.0,-12.0,0
1489,259.0,-32.0,-5.0,0
1490,260.0,-32.0,-7.0,0
1491,259.0,-29.0,-11.0,0
1492,258.0,-31.0,-6.0,0
1493,257.0,-33.0,-6.0,0
1494,258.0,-31.0,-8.0,0
1495,255.0,-28.0,-8.0,0
1496,261.0,-31.0,-10.0,0
1497,258.0,-30.0,-5.0,0
1498,258.0,-30.0,-9.0,0
1499,257.0,-29.0,-9.0,0
1500,256.0,-31.0,-13.0,0
1501,258.0,-32.0,-7.0,0
1502,257.0,-30.0,-10.0,0
1503,261.0,-32.0,-8.0,0
1504,261.0,-32.0,-9.0,0
1505,259.0,-30.0,-7.0,0
1506,256.0,-29.0,-11.0,0
1507,258.0,-31.0,-15.0,0
1508,262.0,-32.0,-11.0,0
1509,258.0,-32.0,-14.0,0
1510,256.0,-31.0,-7.0,0
1511,258.0,-32.0,-15.0,0
1512,257.0,-30.0,-14.0,0
1513,259.0,-30.0,-13.0,0
1514,259.0,-32.0,-11.0,0
1515,258.0,-31.0,-13.0,0
1516,261.0,-32.0,-12.0,0
1517,260.0,-36.0,-9.0,0
1518,258.0,-35.0,-6.0,0
1519,257.0,-33.0,-18.0,0
1520,259.0,-31.0,-10.0,0
1521,258.0,-36.0,-11.0,0
1522,258.0,-34.0,-14.0,0
1523,261.0,-31.0,-14.0,0
1524,262.0,-31.0,-15.0,0
1525,264.0,-32.0,-10.0,0
1526,260.0,-32.0,-15.0,0
1527,261.0,-33.0,-14.0,0
1528,258.0,-33.0,-12.0,0
1529,261.0,-31.0,-11.0,0
1530,258.0,-28.0,-11.0,0
1531,260.0,-29.0,-10.0,0
1532,253.0,-25.0,-6.0,0
1533,257.0,-28.0,-13.0,0
1534,260.0,-29.0,-12.0,0
1535,260.0,-31.0,-10.0,0
1536,257.0,-27.0,-11.0,0
1537,260.0,-32.0,-11.0,0
1538,257.0,-32.0,-9.0,0
1539,261.0,-31.0,-9.0,0
1540,259.0,-34.0,-5.0,0
1541,257.0,-30.0,-5.0,0
1542,256.0,-32.0,-13.0,0
1543,256.0,-26.0,-13.0,0
1544,258.0,-31.0,-8.0,0
1545,259.0,-29.0,-10.0,0
1546,257.0,-29.0,-12.0,0
1547,259.0,-32.0,-9.0,0
1548,257.0,-29.0,-9.0,0
1549,257.0,-33.0,-12.0,0
1550,259.0,-30.0,-11.0,0
1551,260.0,-32.0,-12.0,0
1552,261.0,-29.0,-11.0,0
1553,258.0,-30.0,-15.0,0
1554,259.0,-36.0,-10.0,0
1555,260.0,-29.0,-13.0,0
1556,257.0,-28.0,-11.0,0
1557,259.0,-30.0,-9.0,0
1558,260.0,-31.0,-12.0,0
1559,258.0,-28.0,-13.0,0
1560,259.0,-32.0,-12.0,0
1561,259.0,-31.0,-8.0,0
1562,257.0,-27.0,-10.0,0
1563,258.0,-32.0,-10.0,0
1564,257.0,-31.0,-6.0,0
1565,258.0,-34.0,-10.0,0
1566,256.0,-30.0,-10.0,0
1567,257.0,-31.0,-12.0,0
1568,258.0,-31.0,-10.0,0
1569,256.0,-31.0,-6.0,0
1570,260.0,-30.0,-8.0,0
1571,256.0,-34.0,-8.0,0
1572,260.0,-32.0,-8.0,0
1573,259.0,-32.0,-9.0,0
1574,259.0,-33.0,-5.0,0
1575,257.0,-32.0,-7.0,0
1576,256.0,-26.0,-13.0,0
1577,259.0,-34.0,-4.0,0
1578,257.0,-32.0,-8.0,0
1579,259.0,-30.0,-6.0,0
1580,257.0,-33.0,-10.0,0
1581,257.0,-32.0,-8.0,0
1582,259.0,-33.0,-4.0,0
1583,259.0,-34.0,-11.0,0
1584,258.0,-39.0,-7.0,0
1585,258.0,-29.0,-8.0,0
1586,257.0,-34.0,-10.0,0
1587,256.0,-34.0,-12.0,0
1588,260.0,-33.0,-6.0,0
1589,260.0,-32.0,-8.0,0
1590,259.0,-34.0,-9.0,0
1591,262.0,-31.0,-9.0,0
1592,260.0,-32.0,-6.0,0
1593,259.0,-33.0,-9.0,0
1594,261.0,-31.0,-1.0,0
1595,260.0,-30.0,-4.0,0
1596,257.0,-32.0,-5.0,0
1597,262.0,-31.0,-6.0,0
1598,259.0,-32.0,-6.0,0
1599,256.0,-32.0,-7.0,0
1600,256.0,-34.0,-4.0,0
1601,256.0,-32.0,-8.0,0
1602,256.0,-32.0,-2.0,0
1603,257.0,-29.0,-4.0,0
1604,255.0,-33.0,-4.0,0
1605,260.0,-32.0,-4.0,0
1606,259.0,-31.0,-8.0,0
1607,259.0,-35.0,-6.0,0
1608,254.0,-35.0,-4.0,0
1609,259.0,-32.0,-4.0,0
1610,257.0,-33.0,-4.0,0
1611,256.0,-30.0,-3.0,0
1612,258.0,-33.0,-5.0,0
1613,258.0,-32.0,-1.0,0
1614,259.0,-32.0,-2.0,0
1615,258.0,-31.0,-8.0,0
1616,259.0,-33.0,-5.0,0
1617,256.0,-27.0,-9.0,0
1618,259.0,-34.0,-2.0,0
1619,258.0,-31.0,-11.0,0
1620,259.0,-32.0,-5.0,0
1621,260.0,-33.0,-1.0,0
1622,256.0,-31.0,-7.0,0
1623,259.0,-33.0,-6.0,0
1624,259.0,-31.0,-6.0,0
1625,259.0,-33.0,-5.0,0
1626,257.0,-30.0,-7.0,0
1627,258.0,-33.0,-7.0,0
1628,258.0,-30.0,-9.0,0
1629,259.0,-29.0,-7.0,0
1630,251.0,-33.0,-9.0,0
1631,257.0,-31.0,-7.0,0
1632,257.0,-32.0,-4.0,0
1633,259.0,-33.0,-3.0,0
1634,257.0,-31.0,-2.0,0
1635,258.0,-32.0,-4.0,0
1636,260.0,-34.0,-4.0,0
1637,258.0,-33.0,-4.0,0
1638,256.0,-33.0,-1.0,0
1639,260.0,-30.0,0.0,0
1640,257.0,-36.0,-4.0,0
1641,250.0,-38.0,-4.0,0
1642,259.0,-32.0,-4.0,0
1643,258.0,-33.0,-3.0,0
1644,257.0,-33.0,-5.0,0
1645,258.0,-35.0,-2.0,0
1646,260.0,-32.0,-1.0,0
1647,258.0,-33.0,-1.0,0
1648,257.0,-30.0,-2.0,0
1649,258.0,-28.0,-3.0,0
1650,258.0,-31.0,-5.0,0
1651,261.0,-36.0,-3.0,0
1652,258.0,-35.0,-6.0,0
1653,258.0,-32.0,0.0,0
1654,258.0,-33.0,-2.0,0
1655,259.0,-31.0,-1.0,0
1656,257.0,-32.0,-2.0,0
1657,259.0,-31.0,-4.0,0
1658,257.0,-32.0,-7.0,0
1659,257.0,-34.0,-3.0,0
1660,258.0,-28.0,0.0,0
1661,256.0,-33.0,-3.0,0
1662,258.0,-32.0,0.0,0
1663,258.0,-35.0,-6.0,0
1664,261.0,-35.0,-2.0,0
1665,257.0,-31.0,0.0,0
1666,257.0,-33.0,-2.0,0
1667,258.0,-31.0,-2.0,0
1668,258.0,-33.0,-3.0,0
1669,257.0,-31.0,-1.0,0
1670,259.0,-36.0,-5.0,0
1671,259.0,-35.0,1.0,0
1672,255.0,-33.0,-1.0,0
1673,260.0,-36.0,-1.0,0
1674,260.0,-37.0,-1.0,0
1675,258.0,-33.0,-1.0,0
1676,259.0,-32.0,2.0,0
1677,259.0,-34.0,-2.0,0
1678,258.0,-32.0,1.0,0
1679,262.0,-36.0,0.0,0
1680,259.0,-35.0,2.0,0
1681,258.0,-34.0,0.0,0
1682,255.0,-34.0,0.0,0
1683,260.0,-33.0,-4.0,0
1684,260.0,-32.0,-1.0,0
1685,262.0,-35.0,5.0,0
1686,256.0,-29.0,-1.0,0
1687,258.0,-34.0,0.0,0
1688,261.0,-33.0,1.0,0
1689,260.0,-32.0,0.0,0
1690,258.0,-31.0,1.0,0
1691,258.0,-33.0,2.0,0
1692,258.0,-33.0,2.0,0
1693,258.0,-33.0,1.0,0
1694,258.0,-31.0,2.0,0
1695,255.0,-34.0,3.0,0
1696,257.0,-31.0,1.0,0
1697,258.0,-31.0,2.0,0
1698,261.0,-35.0,1.0,0
1699,259.0,-32.0,5.0,0
1700,259.0,-34.0,2.0,0
1701,258.0,-35.0,2.0,0
1702,255.0,-35.0,3.0,0
1703,256.0,-33.0,5.0,0
1704,260.0,-37.0,1.0,0
1705,261.0,-36.0,3.0,0
1706,260.0,-35.0,3.0,0
1707,258.0,-37.0,1.0,0
1708,257.0,-31.0,2.0,0
1709,260.0,-34.0,-2.0,0
1710,257.0,-32.0,1.0,0
1711,257.0,-34.0,0.0,0
1712,258.0,-36.0,1.0,0
1713,260.0,-34.0,-4.0,0
1714,258.0,-31.0,1.0,0
1715,258.0,-32.0,1.0,0
1716,257.0,-33.0,2.0,0
1717,260.0,-30.0,-2.0,0
1718,259.0,-36.0,0.0,0
1719,260.0,-34.0,1.0,0
1720,257.0,-32.0,1.0,0
1721,257.0,-35.0,4.0,0
1722,259.0,-36.0,3.0,0
1723,258.0,-35.0,2.0,0
1724,257.0,-39.0,2.0,0
1725,261.0,-36.0,2.0,0
1726,256.0,-36.0,1.0,0
1727,257.0,-34.0,5.0,0
1728,257.0,-39.0,0.0,0
1729,259.0,-35.0,2.0,0
1730,257.0,-34.0,-2.0,0
1731,257.0,-34.0,2.0,0
1732,257.0,-37.0,0.0,0
1733,257.0,-34.0,3.0,0
1734,256.0,-35.0,2.0,0
1735,256.0,-34.0,6.0,0
1736,259.0,-35.0,5.0,0
1737,257.0,-34.0,2.0,0
1738,258.0,-36.0,7.0,0
1739,256.0,-32.0,3.0,0
1740,249.0,-27.0,-2.0,0
1741,259.0,-35.0,7.0,0
1742,260.0,-33.0,3.0,0
1743,260.0,-32.0,1.0,0
1744,260.0,-35.0,5.0,0
1745,259.0,-34.0,3.0,0
1746,260.0,-34.0,2.0,0
1747,259.0,-32.0,6.0,0
1748,261.0,-34.0,4.0,0
1749,259.0,-32.0,0.0,0
1750,257.0,-32.0,6.0,0
1751,257.0,-32.0,3.0,0
1752,256.0,-34.0,2.0,0
1753,257.0,-33.0,1.0,0
1754,257.0,-35.0,2.0,0
1755,257.0,-35.0,5.0,0
1756,259.0,-34.0,5.0,0
1757,257.0,-33.0,2.0,0
1758,256.0,-31.0,2.0,0
1759,259.0,-32.0,6.0,0
1760,259.0,-31.0,2.0,0
1761,262.0,-35.0,3.0,0
1762,258.0,-34.0,1.0,0
1763,258.0,-32.0,0.0,0
1764,257.0,-34.0,3.0,0
1765,259.0,-32.0,-1.0,0
1766,259.0,-33.0,1.0,0
1767,258.0,-32.0,0.0,0
1768,259.0,-34.0,-2.0,0
1769,258.0,-33.0,5.0,0
1770,258.0,-34.0,5.0,0
1771,264.0,-38.0,1.0,0
1772,255.0,-33.0,-5.0,0
1773,259.0,-34.0,1.0,0
1774,258.0,-32.0,4.0,0
1775,257.0,-34.0,1.0,0
1776,259.0,-36.0,4.0,0
1777,258.0,-32.0,4.0,0
1778,260.0,-35.0,3.0,0
1779,257.0,-34.0,3.0,0
1780,260.0,-33.0,0.0,0
1781,259.0,-36.0,4.0,0
1782,258.0,-35.0,1.0,0
1783,256.0,-35.0,1.0,0
1784,259.0,-38.0,2.0,0
1785,259.0,-35.0,2.0,0
1786,256.0,-34.0,3.0,0
1787,258.0,-37.0,1.0,0
1788,257.0,-33.0,5.0,0
1789,259.0,-35.0,6.0,0
1790,255.0,-32.0,6.0,0
1791,259.0,-36.0,2.0,0
1792,258.0,-35.0,7.0,0
1793,257.0,-30.0,6.0,0
1794,258.0,-34.0,3.0,0
1795,258.0,-36.0,5.0,0
1796,258.0,-33.0,1.0,0
1797,257.0,-33.0,5.0,0
1798,257.0,-35.0,6.0,0
1799,256.0,-35.0,4.0,0
1800,260.0,-36.0,4.0,0
1801,256.0,-32.0,4.0,0
1802,261.0,-36.0,7.0,0
1803,259.0,-35.0,5.0,0
1804,257.0,-38.0,4.0,0
1805,256.0,-33.0,7.0,0
1806,258.0,-34.0,7.0,0
1807,258.0,-37.0,5.0,0
1808,256.0,-34.0,9.0,0
1809,257.0,-35.0,4.0,0
1810,258.0,-37.0,3.0,0
1811,256.0,-35.0,4.0,0
1812,256.0,-32.0,1.0,0
1813,255.0,-35.0,4.0,0
1814,256.0,-36.0,8.0,0
1815,256.0,-37.0,9.0,0
1816,258.0,-33.0,9.0,0
1817,259.0,-32.0,2.0,0
1818,259.0,-32.0,3.0,0
1819,258.0,-33.0,5.0,0
1820,258.0,-33.0,7.0,0
1821,257.0,-35.0,4.0,0
1822,260.0,-35.0,9.0,0
1823,257.0,-29.0,4.0,0
1824,256.0,-31.0,8.0,0
1825,257.0,-37.0,5.0,0
1826,261.0,-36.0,2.0,0
1827,260.0,-37.0,6.0,0
1828,256.0,-37.0,7.0,0
1829,258.0,-35.0,7.0,0
1830,259.0,-35.0,8.0,0
1831,259.0,-35.0,11.0,0
1832,257.0,-34.0,11.0,0
1833,256.0,-32.0,5.0,0
1834,256.0,-34.0,9.0,0
1835,258.0,-30.0,10.0,0
1836,256.0,-34.0,4.0,0
1837,255.0,-35.0,8.0,0
1838,259.0,-34.0,7.0,0
1839,258.0,-36.0,8.0,0
1840,261.0,-34.0,0.0,0
1841,258.0,-31.0,4.0,0
1842,258.0,-31.0,11.0,0
1843,257.0,-31.0,4.0,0
1844,258.0,-32.0,3.0,0
1845,254.0,-31.0,5.0,0
1846,256.0,-32.0,3.0,0
1847,261.0,-36.0,8.0,0
1848,256.0,-32.0,0.0,0
1849,258.0,-36.0,4.0,0
1850,261.0,-34.0,4.0,0
1851,256.0,-35.0,0.0,0
1852,261.0,-35.0,2.0,0
1853,257.0,-33.0,1.0,0
1854,261.0,-38.0,6.0,0
1855,259.0,-34.0,5.0,0
1856,256.0,-35.0,1.0,0
1857,258.0,-34.0,1.0,0
1858,257.0,-34.0,2.0,0
1859,261.0,-33.0,2.0,0
1860,257.0,-33.0,1.0,0
1861,258.0,-34.0,1.0,0
1862,256.0,-34.0,4.0,0
1863,258.0,-32.0,4.0,0
1864,258.0,-35.0,4.0,0
1865,256.0,-33.0,1.0,0
1866,258.0,-35.0,6.0,0
1867,258.0,-35.0,2.0,0
1868,255.0,-35.0,1.0,0
1869,258.0,-35.0,2.0,0
1870,259.0,-29.0,3.0,0
1871,258.0,-33.0,1.0,0
1872,257.0,-32.0,0.0,0
1873,257.0,-34.0,-2.0,0
1874,254.0,-32.0,0.0,0
1875,257.0,-32.0,1.0,0
1876,256.0,-34.0,2.0,0
1877,260.0,-34.0,0.0,0
1878,258.0,-31.0,1.0,0
1879,257.0,-32.0,1.0,0
1880,259.0,-36.0,-1.0,0
1881,258.0,-36.0,-3.0,0
1882,257.0,-34.0,1.0,0
1883,260.0,-35.0,1.0,0
1884,257.0,-33.0,-1.0,0
1885,257.0,-33.0,-1.0,0
1886,257.0,-31.0,-1.0,0
1887,260.0,-35.0,-4.0,0
1888,258.0,-34.0,0.0,0
1889,257.0,-32.0,1.0,0
1890,261.0,-32.0,2.0,0
1891,258.0,-34.0,-1.0,0
1892,258.0,-30.0,-2.0,0
1893,256.0,-30.0,2.0,0
1894,258.0,-31.0,0.0,0
1895,256.0,-32.0,0.0,0
1896,259.0,-31.0,-1.0,0
1897,256.0,-31.0,-2.0,0
1898,258.0,-34.0,1.0,0
1899,257.0,-33.0,-1.0,0
1900,261.0,-35.0,0.0,0
1901,263.0,-37.0,1.0,0
1902,255.0,-29.0,2.0,0
1903,259.0,-32.0,1.0,0
1904,257.0,-31.0,0.0,0
1905,259.0,-32.0,-1.0,0
1906,259.0,-36.0,-2.0,0
1907,255.0,-29.0,1.0,0
1908,257.0,-30.0,-1.0,0
1909,257.0,-33.0,0.0,0
1910,261.0,-34.0,1.0,0
1911,262.0,-34.0,-4.0,0
1912,258.0,-31.0,-1.0,0
1913,260.0,-34.0,-8.0,0
1914,259.0,-31.0,0.0,0
1915,261.0,-33.0,-2.0,0
1916,258.0,-32.0,-2.0,0
1917,258.0,-33.0,-2.0,0
1918,262.0,-31.0,0.0,0
1919,257.0,-30.0,-4.0,0
1920,260.0,-33.0,-3.0,0
1921,256.0,-33.0,-3.0,0
1922,259.0,-36.0,-2.0,0
1923,258.0,-34.0,-1.0,0
1924,258.0,-31.0,1.0,0
1925,259.0,-34.0,-4.0,0
1926,257.0,-35.0,-8.0,0
1927,257.0,-35.0,1.0,0
1928,257.0,-33.0,-1.0,0
1929,260.0,-32.0,-6.0,0
1930,259.0,-38.0,-4.0,0
1931,258.0,-32.0,-6.0,0
1932,259.0,-30.0,-4.0,0
1933,257.0,-27.0,-9.0,0
1934,258.0,-29.0,-3.0,0
1935,256.0,-31.0,-9.0,0
1936,259.0,-28.0,-5.0,0
1937,258.0,-27.0,-7.0,0
1938,259.0,-29.0,-5.0,0
1939,260.0,-30.0,-3.0,0
1940,259.0,-28.0,-6.0,0
1941,260.0,-28.0,-5.0,0
1942,260.0,-33.0,-12.0,0
1943,257.0,-30.0,-10.0,0
1944,260.0,-28.0,-5.0,0
1945,258.0,-25.0,-7.0,0
1946,258.0,-29.0,-11.0,0
1947,257.0,-26.0,-8.0,0
1948,261.0,-31.0,-11.0,0
1949,259.0,-25.0,-7.0,0
1950,257.0,-29.0,-9.0,0
1951,261.0,-30.0,-8.0,0
1952,261.0,-30.0,-11.0,0
1953,258.0,-30.0,-5.0,0
1954,256.0,-28.0,-8.0,0
1955,258.0,-31.0,-10.0,0
1956,261.0,-33.0,-6.0,0
1957,255.0,-35.0,-13.0,0
1958,256.0,-28.0,-12.0,0
1959,256.0,-32.0,-7.0,0
1960,259.0,-31.0,-8.0,0
1961,258.0,-34.0,-9.0,0
1962,261.0,-33.0,-13.0,0
1963,257.0,-30.0,-9.0,0
1964,257.0,-32.0,-6.0,0
1965,260.0,-34.0,-10.0,0
1966,258.0,-29.0,-10.0,0
1967,260.0,-32.0,-14.0,0
1968,259.0,-31.0,-21.0,0
1969,259.0,-30.0,-13.0,0
1970,259.0,-29.0,-13.0,0
1971,258.0,-29.0,-11.0,0
1972,258.0,-30.0,-10.0,0
1973,260.0,-31.0,-10.0,0
1974,259.0,-33.0,-15.0,0
1975,260.0,-28.0,-13.0,0
1976,261.0,-31.0,-13.0,0
1977,262.0,-35.0,-16.0,0
1978,257.0,-25.0,-11.0,0
1979,258.0,-29.0,-19.0,0
1980,259.0,-31.0,-13.0,0
1981,260.0,-31.0,-12.0,0
1982,259.0,-31.0,-10.0,0
1983,260.0,-31.0,-10.0,0
1984,257.0,-29.0,-11.0,0
1985,258.0,-31.0,-11.0,0
1986,257.0,-31.0,-12.0,0
1987,258.0,-31.0,-8.0,0
1988,259.0,-34.0,-8.0,0
1989,258.0,-32.0,-10.0,0
1990,256.0,-31.0,-7.0,0
1991,257.0,-32.0,-6.0,0
1992,258.0,-28.0,-4.0,0
1993,257.0,-30.0,-3.0,0
1994,256.0,-27.0,-7.0,0
1995,259.0,-29.0,-6.0,0
1996,261.0,-33.0,-2.0,0
1997,257.0,-30.0,-4.0,0
1998,261.0,-31.0,-2.0,0
1999,258.0,-29.0,-7.0,0
2000,258.0,-32.0,-4.0,0
2001,258.0,-31.0,-5.0,0
2002,256.0,-28.0,-3.0,0
2003,260.0,-29.0,-7.0,0
2004,256.0,-29.0,-2.0,0
2005,260.0,-33.0,-9.0,0
2006,257.0,-30.0,-10.0,0
2007,256.0,-30.0,-3.0,0
2008,257.0,-31.0,-4.0,0
2009,257.0,-31.0,-5.0,0
2010,258.0,-33.0,-5.0,0
2011,256.0,-23.0,-5.0,0
2012,260.0,-31.0,-3.0,0
2013,258.0,-28.0,-2.0,0
2014,258.0,-33.0,-6.0,0
2015,260.0,-32.0,-4.0,0
2016,260.0,-30.0,-8.0,0
2017,258.0,-30.0,-4.0,0
2018,256.0,-30.0,-4.0,0
2019,256.0,-26.0,-8.0,0
2020,260.0,-33.0,-2.0,0
2021,257.0,-34.0,-8.0,0
2022,258.0,-32.0,-10.0,0
2023,259.0,-31.0,-4.0,0
2024,257.0,-28.0,-3.0,0
2025,260.0,-31.0,-4.0,0
2026,255.0,-29.0,-2.0,0
2027,257.0,-32.0,-6.0,0
2028,260.0,-32.0,-1.0,0
2029,258.0,-29.0,-4.0,0
2030,259.0,-30.0,-2.0,0
2031,256.0,-34.0,-5.0,0
2032,260.0,-34.0,-8.0,0
2033,259.0,-31.0,-5.0,0
2034,259.0,-28.0,-4.0,0
2035,257.0,-30.0,-6.0,0
2036,260.0,-31.0,-4.0,0
2037,258.0,-30.0,-7.0,0
2038,259.0,-30.0,-2.0,0
2039,257.0,-30.0,-9.0,0
2040,260.0,-33.0,-9.0,0
2041,258.0,-33.0,-6.0,0
2042,258.0,-35.0,-4.0,0
2043,255.0,-30.0,-10.0,0
2044,257.0,-29.0,-13.0,0
2045,260.0,-34.0,-5.0,0
2046,256.0,-33.0,-4.0,0
2047,259.0,-34.0,-2.0,0
2048,259.0,-31.0,-6.0,0
2049,255.0,-33.0,-4.0,0
2050,262.0,-32.0,-2.0,0
2051,258.0,-31.0,-8.0,0
2052,257.0,-28.0,-2.0,0
2053,257.0,-31.0,-1.0,0
2054,260.0,-34.0,-4.0,0
2055,256.0,-31.0,2.0,0
2056,257.0,-31.0,-2.0,0
2057,257.0,-33.0,-3.0,0
2058,261.0,-33.0,-2.0,0
2059,258.0,-32.0,-2.0,0
2060,259.0,-31.0,-4.0,0
2061,258.0,-32.0,0.0,0
2062,262.0,-33.0,0.0,0
2063,257.0,-32.0,0.0,0
2064,257.0,-29.0,-4.0,0
2065,257.0,-32.0,1.0,0
2066,261.0,-33.0,0.0,0
2067,257.0,-34.0,-1.0,0
2068,261.0,-34.0,0.0,0
2069,255.0,-31.0,0.0,0
2070,257.0,-29.0,1.0,0
2071,257.0,-33.0,1.0,0
2072,260.0,-31.0,-2.0,0
2073,259.0,-31.0,3.0,0
2074,258.0,-30.0,1.0,0
2075,258.0,-29.0,2.0,0
2076,257.0,-33.0,-1.0,0
2077,258.0,-32.0,0.0,0
2078,261.0,-33.0,0.0,0
2079,257.0,-33.0,1.0,0
2080,261.0,-30.0,-2.0,0
2081,258.0,-32.0,1.0,0
2082,257.0,-32.0,0.0,0
2083,257.0,-33.0,-1.0,0
2084,257.0,-33.0,1.0,0
2085,255.0,-31.0,1.0,0
2086,258.0,-28.0,-1.0,0
2087,257.0,-31.0,-3.0,0
2088,253.0,-32.0,-7.0,0
2089,257.0,-34.0,-2.0,0
2090,259.0,-30.0,0.0,0
2091,260.0,-36.0,-2.0,0
2092,259.0,-34.0,-2.0,0
2093,260.0,-36.0,0.0,0
2094,259.0,-33.0,-4.0,0
2095,257.0,-35.0,-3.0,0
2096,256.0,-37.0,-2.0,0
2097,258.0,-31.0,-1.0,0
2098,258.0,-29.0,4.0,0
2099,257.0,-34.0,2.0,0
2100,256.0,-30.0,-2.0,0
2101,257.0,-32.0,-2.0,0
2102,256.0,-30.0,2.0,0
2103,258.0,-35.0,4.0,0
2104,256.0,-31.0,2.0,0
2105,257.0,-32.0,2.0,0
2106,258.0,-35.0,3.0,0
2107,257.0,-32.0,4.0,0
2108,258.0,-34.0,-2.0,0
2109,259.0,-32.0,-9.0,0
2110,258.0,-35.0,1.0,0
2111,259.0,-36.0,0.0,0
2112,260.0,-31.0,0.0,0
2113,257.0,-32.0,0.0,0
2114,257.0,-32.0,0.0,0
2115,259.0,-34.0,-3.0,0
2116,258.0,-30.0,1.0,0
2117,258.0,-30.0,-1.0,0
2118,259.0,-36.0,1.0,0
2119,260.0,-33.0,1.0,0
2120,265.0,-29.0,0.0,0
2121,258.0,-31.0,2.0,0
2122,257.0,-31.0,0.0,0
2123,256.0,-34.0,1.0,0
2124,259.0,-31.0,-2.0,0
2125,259.0,-33.0,-2.0,0
2126,259.0,-34.0,1.0,0
2127,259.0,-36.0,1.0,0
2128,256.0,-33.0,-2.0,0
2129,260.0,-35.0,-2.0,0
2130,258.0,-31.0,5.0,0
2131,257.0,-27.0,-5.0,0
2132,257.0,-32.0,1.0,0
2133,258.0,-33.0,1.0,0
2134,256.0,-33.0,-1.0,0
2135,256.0,-33.0,3.0,0
2136,259.0,-32.0,0.0,0
2137,259.0,-35.0,1.0,0
2138,258.0,-34.0,-1.0,0
2139,258.0,-31.0,1.0,0
2140,258.0,-33.0,3.0,0
2141,258.0,-35.0,3.0,0
2142,262.0,-34.0,13.0,0
2143,262.0,-33.0,2.0,0
2144,258.0,-34.0,4.0,0
2145,259.0,-33.0,3.0,0
2146,256.0,-32.0,2.0,0
2147,257.0,-33.0,2.0,0
2148,259.0,-33.0,2.0,0
2149,258.0,-35.0,2.0,0
2150,258.0,-38.0,3.0,0
2151,257.0,-35.0,4.0,0
2152,261.0,-36.0,4.0,0
2153,260.0,-31.0,2.0,0
2154,257.0,-32.0,0.0,0
2155,256.0,-33.0,0.0,0
2156,258.0,-32.0,4.0,0
2157,257.0,-32.0,3.0,0
2158,256.0,-34.0,4.0,0
2159,259.0,-32.0,1.0,0
2160,259.0,-35.0,3.0,0
2161,258.0,-31.0,1.0,0
2162,257.0,-35.0,0.0,0
2163,257.0,-32.0,3.0,0
2164,269.0,-32.0,0.0,0
2165,258.0,-31.0,2.0,0
2166,258.0,-35.0,2.0,0
2167,257.0,-32.0,1.0,0
2168,256.0,-32.0,2.0,0
2169,255.0,-32.0,1.0,0
2170,261.0,-35.0,4.0,0
2171,259.0,-33.0,4.0,0
2172,259.0,-33.0,7.0,0
2173,258.0,-32.0,5.0,0
2174,260.0,-36.0,5.0,0
2175,259.0,-39.0,2.0,0
2176,258.0,-33.0,3.0,0
2177,260.0,-35.0,4.0,0
2178,258.0,-32.0,5.0,0
2179,258.0,-31.0,2.0,0
2180,259.0,-32.0,5.0,0
2181,258.0,-33.0,4.0,0
2182,261.0,-36.0,2.0,0
2183,258.0,-32.0,0.0,0
2184,259.0,-31.0,1.0,0
2185,258.0,-31.0,0.0,0
2186,263.0,-27.0,0.0,0
2187,262.0,-33.0,1.0,0
2188,260.0,-34.0,4.0,0
2189,258.0,-34.0,3.0,0
2190,257.0,-32.0,1.0,0
2191,257.0,-30.0,2.0,0
2192,257.0,-33.0,1.0,0
2193,262.0,-31.0,4.0,0
2194,259.0,-30.0,4.0,0
2195,257.0,-31.0,-2.0,0
2196,258.0,-34.0,1.0,0
2197,258.0,-35.0,1.0,0
2198,255.0,-32.0,2.0,0
2199,257.0,-33.0,4.0,0
2200,258.0,-35.0,2.0,0
2201,259.0,-34.0,4.0,0
2202,259.0,-34.0,6.0,0
2203,259.0,-30.0,4.0,0
2204,260.0,-32.0,7.0,0
2205,259.0,-32.0,8.0,0
2206,257.0,-34.0,3.0,0
2207,262.0,-39.0,13.0,0
2208,262.0,-34.0,4.0,0
2209,260.0,-35.0,7.0,0
2210,260.0,-32.0,5.0,0
2211,260.0,-35.0,8.0,0
2212,259.0,-35.0,8.0,0
2213,257.0,-30.0,9.0,0
2214,257.0,-34.0,9.0,0
2215,255.0,-34.0,6.0,0
2216,258.0,-33.0,3.0,0
2217,258.0,-35.0,7.0,0
2218,260.0,-37.0,11.0,0
2219,259.0,-35.0,10.0,0
2220,257.0,-36.0,8.0,0
2221,257.0,-37.0,5.0,0
2222,255.0,-34.0,5.0,0
2223,256.0,-32.0,8.0,0
2224,259.0,-39.0,8.0,0
2225,261.0,-32.0,8.0,0
2226,258.0,-34.0,6.0,0
2227,256.0,-34.0,7.0,0
2228,258.0,-34.0,9.0,0
2229,254.0,-33.0,4.0,0
2230,258.0,-33.0,8.0,0
2231,258.0,-35.0,7.0,0
2232,259.0,-33.0,9.0,0
2233,259.0,-35.0,5.0,0
2234,258.0,-35.0,7.0,0
2235,256.0,-33.0,6.0,0
2236,258.0,-30.0,4.0,0
2237,257.0,-36.0,6.0,0
2238,254.0,-32.0,6.0,0
2239,259.0,-36.0,14.0,0
2240,256.0,-35.0,14.0,0
2241,258.0,-34.0,9.0,0
2242,258.0,-33.0,10.0,0
2243,259.0,-36.0,11.0,0
2244,257.0,-33.0,7.0,0
2245,256.0,-36.0,11.0,0
2246,256.0,-34.0,10.0,0
2247,258.0,-37.0,14.0,0
2248,257.0,-34.0,11.0,0
2249,259.0,-33.0,8.0,0
2250,260.0,-34.0,10.0,0
2251,252.0,-37.0,8.0,0
2252,256.0,-33.0,6.0,0
2253,256.0,-34.0,8.0,0
2254,258.0,-33.0,9.0,0
2255,257.0,-36.0,4.0,0
2256,259.0,-34.0,7.0,0
2257,258.0,-36.0,7.0,0
2258,258.0,-34.0,6.0,0
2259,256.0,-34.0,12.0,0
2260,257.0,-38.0,11.0,0
2261,261.0,-37.0,11.0,0
2262,258.0,-36.0,8.0,0
2263,257.0,-36.0,12.0,0
2264,258.0,-36.0,9.0,0
2265,255.0,-35.0,9.0,0
2266,258.0,-35.0,9.0,0
2267,259.0,-37.0,8.0,0
2268,258.0,-37.0,12.0,0
2269,257.0,-37.0,11.0,0
2270,258.0,-36.0,10.0,0
2271,257.0,-32.0,5.0,0
2272,258.0,-33.0,7.0,0
2273,256.0,-38.0,5.0,0
2274,258.0,-33.0,6.0,0
2275,258.0,-36.0,11.0,0
2276,257.0,-32.0,9.0,0
2277,255.0,-31.0,11.0,0
2278,258.0,-33.0,10.0,0
2279,257.0,-33.0,10.0,0
2280,256.0,-32.0,8.0,0
2281,259.0,-34.0,10.0,0
2282,256.0,-37.0,11.0,0
2283,255.0,-32.0,9.0,0
2284,256.0,-30.0,5.0,0
2285,261.0,-36.0,5.0,0
2286,257.0,-34.0,7.0,0
2287,260.0,-31.0,6.0,0
2288,260.0,-35.0,9.0,0
2289,260.0,-33.0,9.0,0
2290,258.0,-33.0,8.0,0
2291,258.0,-38.0,7.0,0
2292,259.0,-35.0,9.0,0
2293,260.0,-34.0,8.0,0
2294,258.0,-31.0,4.0,0
2295,257.0,-33.0,8.0,0
2296,261.0,-34.0,8.0,0
2297,259.0,-33.0,5.0,0
2298,256.0,-33.0,6.0,0
2299,258.0,-34.0,6.0,0
2300,258.0,-36.0,6.0,0
2301,256.0,-32.0,7.0,0
2302,258.0,-37.0,6.0,0
2303,256.0,-33.0,8.0,0
2304,253.0,-35.0,7.0,0
2305,255.0,-35.0,10.0,0
2306,258.0,-34.0,4.0,0
2307,257.0,-35.0,3.0,0
2308,258.0,-33.0,4.0,0
2309,258.0,-33.0,4.0,0
2310,257.0,-35.0,7.0,0
2311,259.0,-34.0,5.0,0
2312,258.0,-38.0,5.0,0
2313,258.0,-34.0,7.0,0
2314,260.0,-38.0,6.0,0
2315,256.0,-31.0,7.0,0
2316,258.0,-33.0,13.0,0
2317,256.0,-32.0,4.0,0
2318,258.0,-34.0,4.0,0
2319,260.0,-33.0,2.0,0
2320,258.0,-32.0,5.0,0
2321,257.0,-36.0,6.0,0
2322,257.0,-32.0,8.0,0
2323,259.0,-32.0,5.0,0
2324,260.0,-38.0,7.0,0
2325,257.0,-35.0,4.0,0
2326,256.0,-32.0,3.0,0
2327,261.0,-33.0,0.0,0
2328,256.0,-37.0,7.0,0
2329,258.0,-37.0,1.0,0
2330,256.0,-35.0,7.0,0
2331,256.0,-35.0,6.0,0
2332,257.0,-35.0,2.0,0
2333,258.0,-36.0,9.0,0
2334,257.0,-34.0,6.0,0
2335,255.0,-30.0,3.0,0
2336,256.0,-32.0,5.0,0
2337,258.0,-33.0,0.0,0
2338,255.0,-34.0,8.0,0
2339,257.0,-33.0,3.0,0
2340,258.0,-34.0,2.0,0
2341,257.0,-34.0,4.0,0
2342,260.0,-35.0,3.0,0
2343,259.0,-30.0,1.0,0
2344,261.0,-33.0,4.0,0
2345,259.0,-32.0,0.0,0
2346,258.0,-34.0,2.0,0
2347,261.0,-35.0,4.0,0
2348,261.0,-30.0,3.0,0
2349,257.0,-32.0,1.0,0
2350,257.0,-32.0,3.0,0
2351,261.0,-35.0,4.0,0
2352,259.0,-34.0,5.0,0
2353,259.0,-31.0,3.0,0
2354,260.0,-32.0,5.0,0
2355,260.0,-31.0,5.0,0
2356,261.0,-34.0,6.0,0
2357,258.0,-34.0,4.0,0
2358,260.0,-31.0,4.0,0
2359,260.0,-33.0,0.0,0
2360,258.0,-32.0,-1.0,0
2361,256.0,-32.0,2.0,0
2362,255.0,-30.0,3.0,0
2363,258.0,-33.0,-1.0,0
2364,257.0,-33.0,3.0,0
2365,256.0,-31.0,-3.0,0
2366,257.0,-33.0,1.0,0
2367,259.0,-32.0,1.0,0
2368,259.0,-25.0,-3.0,0
2369,260.0,-33.0,1.0,0
2370,259.0,-33.0,3.0,0
2371,257.0,-31.0,1.0,0
2372,255.0,-29.0,-1.0,0
2373,261.0,-34.0,1.0,0
2374,260.0,-32.0,0.0,0
2375,260.0,-32.0,0.0,0
2376,258.0,-31.0,-2.0,0
2377,259.0,-32.0,-1.0,0
2378,255.0,-31.0,1.0,0
2379,258.0,-28.0,-5.0,0
2380,262.0,-34.0,-2.0,0
2381,258.0,-28.0,-2.0,0
2382,268.0,-34.0,-9.0,0
2383,259.0,-33.0,-1.0,0
2384,255.0,-29.0,0.0,0
2385,257.0,-29.0,0.0,0
2386,257.0,-31.0,1.0,0
2387,258.0,-31.0,2.0,0
2388,257.0,-32.0,0.0,0
2389,258.0,-32.0,3.0,0
2390,261.0,-33.0,0.0,0
2391,257.0,-30.0,0.0,0
2392,258.0,-30.0,1.0,0
2393,257.0,-34.0,-6.0,0
2394,258.0,-31.0,0.0,0
2395,256.0,-31.0,-2.0,0
2396,257.0,-32.0,-3.0,0
2397,257.0,-31.0,-4.0,0
2398,258.0,-36.0,1.0,0
2399,256.0,-35.0,-5.0,0
2400,260.0,-33.0,-2.0,0
2401,259.0,-34.0,-6.0,0
2402,258.0,-36.0,0.0,0
2403,258.0,-37.0,3.0,0
2404,257.0,-33.0,1.0,0
2405,257.0,-32.0,0.0,0
2406,258.0,-34.0,-2.0,0
2407,260.0,-33.0,-1.0,0
2408,257.0,-30.0,-3.0,0
2409,261.0,-33.0,0.0,0
2410,258.0,-27.0,-2.0,0
2411,260.0,-33.0,-3.0,0
2412,262.0,-28.0,-4.0,0
2413,259.0,-30.0,-4.0,0
2414,258.0,-32.0,-3.0,0
2415,256.0,-31.0,-5.0,0
2416,260.0,-33.0,1.0,0
2417,259.0,-28.0,-6.0,0
2418,257.0,-30.0,-3.0,0
2419,257.0,-33.0,-2.0,0
2420,259.0,-31.0,-2.0,0
2421,255.0,-32.0,-1.0,0
2422,257.0,-32.0,-3.0,0
2423,259.0,-29.0,-4.0,0
2424,257.0,-28.0,-4.0,0
2425,259.0,-31.0,-7.0,0
2426,257.0,-30.0,-6.0,0
2427,260.0,-34.0,0.0,0
2428,259.0,-33.0,0.0,0
2429,258.0,-31.0,-5.0,0
2430,257.0,-31.0,-7.0,0
2431,258.0,-32.0,-4.0,0
2432,259.0,-32.0,-1.0,0
2433,259.0,-31.0,-5.0,0
2434,264.0,-32.0,-6.0,0
2435,260.0,-31.0,-3.0,0
2436,262.0,-30.0,-7.0,0
2437,259.0,-36.0,-8.0,0
2438,258.0,-29.0,-5.0,0
2439,260.0,-28.0,-6.0,0
2440,260.0,-30.0,-9.0,0
2441,260.0,-31.0,-9.0,0
2442,259.0,-28.0,-14.0,0
2443,258.0,-31.0,-6.0,0
2444,257.0,-31.0,-5.0,0
2445,262.0,-33.0,-10.0,0
2446,257.0,-32.0,-7.0,0
2447,260.0,-30.0,-15.0,0
2448,259.0,-33.0,-5.0,0
2449,258.0,-34.0,-9.0,0
2450,258.0,-34.0,-8.0,0
2451,260.0,-33.0,-8.0,0
2452,255.0,-32.0,-12.0,0
2453,260.0,-31.0,-6.0,0
2454,257.0,-29.0,-10.0,0
2455,263.0,-32.0,-9.0,0
2456,257.0,-28.0,-9.0,0
2457,257.0,-33.0,-8.0,0
2458,254.0,-28.0,-7.0,0
2459,258.0,-28.0,-2.0,0
2460,257.0,-30.0,-9.0,0
2461,258.0,-30.0,-9.0,0
2462,260.0,-31.0,-10.0,0
2463,257.0,-31.0,-7.0,0
2464,262.0,-30.0,-9.0,0
2465,261.0,-32.0,-6.0,0
2466,257.0,-28.0,-7.0,0
2467,257.0,-28.0,-7.0,0
2468,257.0,-29.0,-3.0,0
2469,255.0,-27.0,-8.0,0
2470,261.0,-27.0,-12.0,0
2471,260.0,-28.0,-5.0,0
2472,256.0,-29.0,-6.0,0
2473,258.0,-30.0,-5.0,0
2474,259.0,-28.0,-2.0,0
2475,257.0,-30.0,-4.0,0
2476,262.0,-28.0,-3.0,0
2477,258.0,-31.0,-1.0,0
2478,258.0,-31.0,-5.0,0
2479,258.0,-31.0,-2.0,0
2480,256.0,-21.0,-6.0,0
2481,258.0,-34.0,-3.0,0
2482,256.0,-30.0,-1.0,0
2483,258.0,-31.0,-2.0,0
2484,257.0,-29.0,-4.0,0
2485,256.0,-33.0,-3.0,0
2486,258.0,-35.0,-5.0,0
2487,257.0,-30.0,-1.0,0
2488,258.0,-31.0,-5.0,0
2489,254.0,-29.0,-9.0,0
2490,258.0,-33.0,-4.0,0
2491,263.0,-33.0,-8.0,0
2492,258.0,-32.0,-3.0,0
2493,258.0,-29.0,-5.0,0
2494,260.0,-30.0,-2.0,0
2495,259.0,-30.0,-1.0,0
2496,258.0,-31.0,-5.0,0
2497,258.0,-32.0,-3.0,0
2498,261.0,-32.0,-3.0,0
2499,263.0,-35.0,-4.0,0
2500,256.0,-25.0,-5.0,0
2501,258.0,-28.0,0.0,0
2502,259.0,-28.0,7.0,0
2503,259.0,-30.0,-4.0,0
2504,256.0,-30.0,-1.0,0
2505,257.0,-31.0,-3.0,0
2506,260.0,-31.0,-2.0,0
2507,256.0,-31.0,-3.0,0
2508,257.0,-30.0,0.0,0
2509,261.0,-34.0,-6.0,0
2510,258.0,-34.0,-2.0,0
2511,259.0,-31.0,-3.0,0
2512,267.0,-32.0,-1.0,0
2513,255.0,-32.0,0.0,0
2514,256.0,-33.0,0.0,0
2515,256.0,-32.0,-2.0,0
2516,258.0,-33.0,0.0,0
2517,257.0,-33.0,1.0,0
2518,258.0,-34.0,-2.0,0
2519,260.0,-30.0,-3.0,0
2520,259.0,-32.0,0.0,0
2521,261.0,-32.0,-2.0,0
2522,258.0,-32.0,-2.0,0
2523,260.0,-38.0,1.0,0
2524,261.0,-31.0,-1.0,0
2525,258.0,-33.0,0.0,0
2526,261.0,-30.0,-3.0,0
2527,258.0,-32.0,1.0,0
2528,258.0,-31.0,0.0,0
2529,257.0,-31.0,0.0,0
2530,257.0,-29.0,-1.0,0
2531,260.0,-33.0,-3.0,0
2532,262.0,-33.0,-1.0,0
2533,258.0,-29.0,-4.0,0
2534,258.0,-32.0,5.0,0
2535,259.0,-33.0,-2.0,0
2536,258.0,-31.0,-6.0,0
2537,262.0,-34.0,-4.0,0
2538,258.0,-30.0,-7.0,0
2539,257.0,-32.0,0.0,0
2540,259.0,-31.0,0.0,0
2541,259.0,-32.0,1.0,0
2542,257.0,-33.0,2.0,0
2543,260.0,-36.0,-1.0,0
2544,256.0,-31.0,-1.0,0
2545,256.0,-32.0,-2.0,0
2546,260.0,-33.0,0.0,0
2547,261.0,-33.0,2.0,0
2548,260.0,-33.0,1.0,0
2549,257.0,-31.0,0.0,0
2550,259.0,-32.0,1.0,0
2551,260.0,-32.0,1.0,0
2552,260.0,-33.0,-1.0,0
2553,258.0,-34.0,0.0,0
2554,260.0,-34.0,-1.0,0
2555,258.0,-33.0,-2.0,0
2556,258.0,-37.0,-2.0,0
2557,256.0,-30.0,-1.0,0
2558,258.0,-32.0,1.0,0
2559,257.0,-32.0,0.0,0
2560,259.0,-28.0,-2.0,0
2561,262.0,-34.0,-1.0,0
2562,260.0,-33.0,-1.0,0
2563,257.0,-32.0,-1.0,0
2564,260.0,-33.0,-2.0,0
2565,257.0,-31.0,1.0,0
2566,256.0,-30.0,-5.0,0
2567,258.0,-34.0,-1.0,0
2568,258.0,-32.0,1.0,0
2569,258.0,-33.0,-2.0,0
2570,257.0,-31.0,1.0,0
2571,259.0,-30.0,1.0,0
2572,261.0,-35.0,1.0,0
2573,260.0,-31.0,-2.0,0
2574,262.0,-34.0,2.0,0
2575,258.0,-34.0,1.0,0
2576,260.0,-30.0,3.0,0
2577,261.0,-35.0,-1.0,0
2578,259.0,-31.0,-4.0,0
2579,258.0,-33.0,4.0,0
2580,258.0,-30.0,1.0,0
2581,259.0,-33.0,0.0,0
2582,257.0,-34.0,0.0,0
2583,259.0,-32.0,2.0,0
2584,259.0,-33.0,2.0,0
2585,258.0,-28.0,4.0,0
2586,260.0,-36.0,4.0,0
2587,255.0,-32.0,2.0,0
2588,257.0,-29.0,1.0,0
2589,259.0,-33.0,1.0,0
2590,260.0,-32.0,2.0,0
2591,261.0,-35.0,0.0,0
2592,257.0,-34.0,1.0,0
2593,258.0,-33.0,-1.0,0
2594,258.0,-36.0,-2.0,0
2595,257.0,-35.0,0.0,0
2596,259.0,-33.0,1.0,0
2597,257.0,-37.0,-1.0,0
2598,255.0,-31.0,2.0,0
2599,258.0,-36.0,2.0,0
2600,263.0,-37.0,0.0,0
2601,256.0,-31.0,1.0,0
2602,254.0,-32.0,3.0,0
2603,259.0,-32.0,0.0,0
2604,257.0,-34.0,1.0,0
2605,258.0,-33.0,1.0,0
2606,257.0,-32.0,2.0,0
2607,256.0,-31.0,-1.0,0
2608,257.0,-34.0,8.0,0
2609,261.0,-34.0,2.0,0
2610,262.0,-33.0,-7.0,0
2611,258.0,-35.0,8.0,0
2612,259.0,-36.0,4.0,0
2613,258.0,-36.0,5.0,0
2614,258.0,-37.0,5.0,0
2615,259.0,-33.0,4.0,0
2616,258.0,-35.0,2.0,0
2617,256.0,-36.0,2.0,0
2618,256.0,-33.0,2.0,0
2619,257.0,-34.0,-2.0,0
2620,257.0,-30.0,0.0,0
2621,253.0,-33.0,-5.0,0
2622,257.0,-31.0,0.0,0
2623,256.0,-33.0,4.0,0
2624,257.0,-33.0,-1.0,0
2625,257.0,-32.0,1.0,0
2626,258.0,-31.0,3.0,0
2627,258.0,-32.0,1.0,0
2628,257.0,-32.0,3.0,0
2629,258.0,-32.0,2.0,0
2630,257.0,-32.0,2.0,0
2631,255.0,-31.0,4.0,0
2632,256.0,-31.0,4.0,0
2633,258.0,-31.0,6.0,0
2634,258.0,-30.0,6.0,0
2635,256.0,-32.0,6.0,0
2636,259.0,-33.0,8.0,0
2637,257.0,-33.0,4.0,0
2638,259.0,-32.0,5.0,0
2639,257.0,-33.0,3.0,0
2640,256.0,-35.0,6.0,0
2641,259.0,-34.0,8.0,0
2642,261.0,-31.0,7.0,0
2643,258.0,-30.0,1.0,0
2644,257.0,-34.0,10.0,0
2645,259.0,-35.0,6.0,0
2646,257.0,-33.0,8.0,0
2647,259.0,-35.0,8.0,0
2648,258.0,-35.0,7.0,0
2649,258.0,-35.0,7.0,0
2650,259.0,-36.0,7.0,0
2651,254.0,-36.0,6.0,0
2652,257.0,-34.0,4.0,0
2653,259.0,-36.0,5.0,0
2654,257.0,-33.0,3.0,0
2655,257.0,-31.0,3.0,0
2656,258.0,-34.0,10.0,0
2657,258.0,-35.0,3.0,0
2658,258.0,-35.0,2.0,0
2659,257.0,-36.0,6.0,0
2660,257.0,-34.0,3.0,0
2661,258.0,-34.0,5.0,0
2662,260.0,-36.0,6.0,0
2663,257.0,-34.0,7.0,0
2664,259.0,-31.0,8.0,0
2665,258.0,-30.0,2.0,0
2666,258.0,-33.0,4.0,0
2667,258.0,-33.0,11.0,0
2668,257.0,-33.0,9.0,0
2669,261.0,-37.0,7.0,0
2670,258.0,-34.0,9.0,0
2671,258.0,-34.0,11.0,0
2672,258.0,-34.0,12.0,0
2673,258.0,-36.0,9.0,0
2674,258.0,-36.0,10.0,0
2675,257.0,-37.0,13.0,0
2676,258.0,-25.0,9.0,0
2677,256.0,-36.0,12.0,0
2678,253.0,-38.0,11.0,0
2679,256.0,-34.0,8.0,0
2680,257.0,-36.0,7.0,0
2681,257.0,-36.0,9.0,0
2682,256.0,-35.0,9.0,0
2683,260.0,-37.0,11.0,0
2684,258.0,-39.0,11.0,0
2685,256.0,-36.0,8.0,0
2686,256.0,-36.0,16.0,0
2687,258.0,-38.0,12.0,0
2688,256.0,-37.0,11.0,0
2689,256.0,-36.0,8.0,0
2690,257.0,-35.0,9.0,0
2691,258.0,-34.0,7.0,0
2692,258.0,-36.0,11.0,0
2693,258.0,-35.0,8.0,0
2694,259.0,-34.0,12.0,0
2695,257.0,-32.0,7.0,0
2696,257.0,-34.0,7.0,0
2697,258.0,-32.0,9.0,0
2698,260.0,-41.0,7.0,0
2699,259.0,-33.0,15.0,0
2700,256.0,-36.0,11.0,0
2701,258.0,-34.0,9.0,0
2702,262.0,-34.0,12.0,0
2703,257.0,-35.0,12.0,0
2704,256.0,-38.0,10.0,0
2705,261.0,-36.0,10.0,0
2706,256.0,-35.0,8.0,0
2707,258.0,-34.0,11.0,0
2708,258.0,-38.0,10.0,0
2709,257.0,-37.0,8.0,0
2710,258.0,-36.0,9.0,0
2711,257.0,-33.0,13.0,0
2712,257.0,-36.0,16.0,0
2713,258.0,-36.0,9.0,0
2714,257.0,-36.0,7.0,0
2715,257.0,-33.0,10.0,0
2716,255.0,-34.0,9.0,0
2717,257.0,-36.0,13.0,0
2718,259.0,-37.0,13.0,0
2719,257.0,-37.0,9.0,0
2720,259.0,-37.0,13.0,0
2721,256.0,-34.0,11.0,0
2722,257.0,-34.0,11.0,0
2723,259.0,-37.0,10.0,0
2724,259.0,-38.0,7.0,0
2725,258.0,-34.0,7.0,0
2726,257.0,-33.0,10.0,0
2727,257.0,-35.0,9.0,0
2728,256.0,-33.0,12.0,0
2729,258.0,-35.0,14.0,0
2730,257.0,-32.0,15.0,0
2731,259.0,-36.0,10.0,0
2732,259.0,-34.0,8.0,0
2733,259.0,-34.0,8.0,0
2734,258.0,-33.0,11.0,0
2735,260.0,-34.0,9.0,0
2736,260.0,-34.0,8.0,0
2737,257.0,-37.0,8.0,0
2738,256.0,-34.0,12.0,0
2739,255.0,-32.0,11.0,0
2740,259.0,-32.0,8.0,0
2741,262.0,-34.0,14.0,0
2742,257.0,-38.0,6.0,0
2743,258.0,-34.0,10.0,0
2744,256.0,-34.0,11.0,0
2745,258.0,-38.0,7.0,0
2746,258.0,-35.0,9.0,0
2747,257.0,-31.0,12.0,0
2748,256.0,-36.0,9.0,0
2749,258.0,-38.0,12.0,0
2750,257.0,-36.0,13.0,0
2751,260.0,-35.0,11.0,0
2752,267.0,-38.0,6.0,0
2753,257.0,-34.0,9.0,0
2754,257.0,-36.0,7.0,0
2755,259.0,-38.0,8.0,0
2756,259.0,-35.0,4.0,0
2757,259.0,-33.0,11.0,0
2758,256.0,-35.0,7.0,0
2759,259.0,-36.0,8.0,0
2760,260.0,-36.0,3.0,0
2761,256.0,-35.0,7.0,0
2762,257.0,-34.0,5.0,0
2763,255.0,-40.0,5.0,0
2764,258.0,-36.0,4.0,0
2765,259.0,-34.0,5.0,0
2766,258.0,-32.0,3.0,0
2767,259.0,-33.0,3.0,0
2768,259.0,-33.0,2.0,0
2769,259.0,-34.0,8.0,0
2770,257.0,-32.0,5.0,0
2771,257.0,-34.0,5.0,0
2772,258.0,-37.0,5.0,0
2773,255.0,-34.0,5.0,0
2774,261.0,-35.0,9.0,0
2775,259.0,-32.0,9.0,0
2776,257.0,-33.0,7.0,0
2777,260.0,-34.0,5.0,0
2778,257.0,-33.0,1.0,0
2779,260.0,-30.0,8.0,0
2780,257.0,-35.0,4.0,0
2781,263.0,-34.0,5.0,0
2782,258.0,-31.0,8.0,0
2783,260.0,-32.0,6.0,0
2784,257.0,-29.0,0.0,0
2785,256.0,-29.0,-1.0,0
2786,269.0,-43.0,2.0,0
2787,257.0,-30.0,2.0,0
2788,258.0,-30.0,1.0,0
2789,259.0,-33.0,1.0,0
2790,259.0,-32.0,4.0,0
2791,256.0,-33.0,0.0,0
2792,258.0,-36.0,0.0,0
2793,259.0,-35.0,3.0,0
2794,255.0,-33.0,1.0,0
2795,259.0,-35.0,1.0,0
2796,255.0,-35.0,1.0,0
2797,257.0,-30.0,3.0,0
2798,261.0,-34.0,-1.0,0
2799,259.0,-33.0,1.0,0
2800,257.0,-33.0,-2.0,0
2801,257.0,-30.0,-1.0,0
2802,258.0,-32.0,0.0,0
2803,259.0,-31.0,3.0,0
2804,260.0,-30.0,4.0,0
2805,257.0,-32.0,3.0,0
2806,257.0,-32.0,1.0,0
2807,259.0,-35.0,-2.0,0
2808,257.0,-30.0,0.0,0
2809,257.0,-28.0,1.0,0
2810,256.0,-31.0,1.0,0
2811,257.0,-31.0,0.0,0
2812,257.0,-30.0,2.0,0
2813,258.0,-30.0,0.0,0
2814,259.0,-30.0,-1.0,0
2815,259.0,-30.0,-5.0,0
2816,259.0,-32.0,-3.0,0
2817,258.0,-35.0,2.0,0
2818,258.0,-30.0,-2.0,0
2819,259.0,-31.0,-2.0,0
2820,256.0,-33.0,-5.0,0
2821,256.0,-32.0,1.0,0
2822,258.0,-29.0,-2.0,0
2823,260.0,-31.0,-1.0,0
2824,255.0,-30.0,-3.0,0
2825,257.0,-29.0,-4.0,0
2826,258.0,-32.0,-2.0,0
2827,255.0,-33.0,1.0,0
2828,260.0,-31.0,-1.0,0
2829,258.0,-30.0,-3.0,0
2830,256.0,-31.0,0.0,0
2831,257.0,-31.0,-4.0,0
2832,258.0,-31.0,0.0,0
2833,259.0,-30.0,-1.0,0
2834,260.0,-33.0,-4.0,0
2835,260.0,-31.0,-4.0,0
2836,261.0,-35.0,-2.0,0
2837,258.0,-35.0,-3.0,0
2838,259.0,-29.0,-5.0,0
2839,259.0,-35.0,-9.0,0
2840,258.0,-29.0,-5.0,0
2841,258.0,-30.0,-3.0,0
2842,258.0,-34.0,-3.0,0
2843,260.0,-30.0,-4.0,0
2844,258.0,-29.0,-5.0,0
2845,260.0,-29.0,-11.0,0
2846,258.0,-31.0,-8.0,0
2847,258.0,-28.0,-7.0,0
2848,260.0,-30.0,-5.0,0
2849,258.0,-32.0,-8.0,0
2850,261.0,-34.0,1.0,0
2851,260.0,-32.0,-9.0,0
2852,258.0,-32.0,-7.0,0
2853,257.0,-28.0,-8.0,0
2854,257.0,-31.0,-7.0,0
2855,257.0,-28.0,-3.0,0
2856,258.0,-30.0,-2.0,0
2857,254.0,-32.0,-7.0,0
2858,257.0,-36.0,-8.0,0
2859,258.0,-32.0,-4.0,0
2860,260.0,-30.0,-4.0,0
2861,257.0,-36.0,-5.0,0
2862,256.0,-30.0,-4.0,0
2863,259.0,-29.0,-4.0,0
2864,259.0,-31.0,0.0,0
2865,258.0,-35.0,0.0,0
2866,259.0,-32.0,0.0,0
2867,258.0,-31.0,2.0,0
2868,259.0,-30.0,-1.0,0
2869,259.0,-30.0,-3.0,0
2870,261.0,-30.0,1.0,0
2871,262.0,-33.0,-2.0,0
2872,260.0,-33.0,0.0,0
2873,261.0,-28.0,-3.0,0
2874,260.0,-30.0,-2.0,0
2875,259.0,-31.0,0.0,0
2876,258.0,-29.0,-8.0,0
2877,259.0,-31.0,-5.0,0
2878,258.0,-28.0,-11.0,0
2879,256.0,-29.0,-2.0,0
2880,256.0,-28.0,-13.0,0
2881,259.0,-30.0,-8.0,0
2882,256.0,-29.0,-13.0,0
2883,266.0,-30.0,-18.0,0
2884,260.0,-28.0,-15.0,0
2885,259.0,-30.0,-13.0,0
2886,256.0,-30.0,-11.0,0
2887,259.0,-31.0,-12.0,0
2888,258.0,-29.0,-9.0,0
2889,257.0,-29.0,-12.0,0
2890,257.0,-26.0,-12.0,0
2891,258.0,-30.0,-14.0,0
2892,255.0,-26.0,-9.0,0
2893,260.0,-29.0,-11.0,0
2894,259.0,-26.0,-10.0,0
2895,260.0,-27.0,-8.0,0
2896,260.0,-29.0,-9.0,0
2897,258.0,-31.0,-5.0,0
2898,259.0,-28.0,-12.0,0
2899,259.0,-29.0,-7.0,0
2900,262.0,-26.0,-12.0,0
2901,261.0,-32.0,-9.0,0
2902,260.0,-28.0,-12.0,0
2903,260.0,-28.0,-6.0,0
2904,260.0,-32.0,-14.0,0
2905,259.0,-33.0,-4.0,0
2906,258.0,-29.0,-13.0,0
2907,259.0,-32.0,-9.0,0
2908,259.0,-27.0,-12.0,0
2909,259.0,-32.0,-14.0,0
2910,258.0,-27.0,-11.0,0
2911,259.0,-27.0,-8.0,0
2912,258.0,-29.0,-13.0,0
2913,259.0,-33.0,-10.0,0
2914,260.0,-27.0,-6.0,0
2915,256.0,-27.0,-12.0,0
2916,257.0,-28.0,-8.0,0
2917,257.0,-26.0,-9.0,0
2918,258.0,-31.0,-10.0,0
2919,260.0,-30.0,-9.0,0
2920,258.0,-30.0,-11.0,0
2921,260.0,-30.0,-13.0,0
2922,257.0,-29.0,-5.0,0
2923,259.0,-28.0,-14.0,0
2924,257.0,-28.0,-12.0,0
2925,260.0,-27.0,-18.0,0
2926,261.0,-30.0,-5.0,0
2927,260.0,-26.0,-14.0,0
2928,258.0,-28.0,-9.0,0
2929,258.0,-27.0,-14.0,0
2930,259.0,-29.0,-14.0,0
2931,256.0,-28.0,-12.0,0
2932,258.0,-32.0,-12.0,0
2933,261.0,-30.0,-12.0,0
2934,259.0,-31.0,-10.0,0
2935,259.0,-29.0,-15.0,0
2936,258.0,-32.0,-12.0,0
2937,261.0,-26.0,-12.0,0
2938,259.0,-30.0,-10.0,0
2939,258.0,-30.0,-7.0,0
2940,259.0,-28.0,-6.0,0
2941,256.0,-30.0,-12.0,0
2942,256.0,-27.0,-10.0,0
2943,259.0,-33.0,-10.0,0
2944,259.0,-30.0,-12.0,0
2945,258.0,-31.0,-6.0,0
2946,261.0,-30.0,-13.0,0
2947,257.0,-31.0,-10.0,0
2948,258.0,-30.0,-6.0,0
2949,257.0,-28.0,-11.0,0
2950,259.0,-28.0,-11.0,0
2951,257.0,-28.0,-10.0,0
2952,260.0,-29.0,-12.0,0
2953,258.0,-28.0,-11.0,0
2954,259.0,-27.0,-12.0,0
2955,259.0,-23.0,-11.0,0
2956,256.0,-24.0,-11.0,0
2957,259.0,-30.0,-11.0,0
2958,259.0,-26.0,-13.0,0
2959,260.0,-25.0,-10.0,0
2960,257.0,-29.0,-12.0,0
2961,257.0,-33.0,-9.0,0
2962,257.0,-31.0,-11.0,0
2963,258.0,-32.0,-9.0,0
2964,258.0,-32.0,-10.0,0
2965,257.0,-30.0,-7.0,0
2966,261.0,-33.0,-9.0,0
2967,257.0,-30.0,-11.0,0
2968,257.0,-31.0,-10.0,0
2969,257.0,-27.0,-6.0,0
2970,255.0,-29.0,-8.0,0
2971,260.0,-27.0,-11.0,0
2972,260.0,-26.0,-5.0,0
2973,262.0,-32.0,-8.0,0
2974,256.0,-26.0,-7.0,0
2975,258.0,-28.0,-10.0,0
2976,260.0,-29.0,-8.0,0
2977,262.0,-27.0,-13.0,0
2978,261.0,-28.0,-7.0,0
2979,258.0,-27.0,-11.0,0
2980,259.0,-30.0,-12.0,0
2981,260.0,-32.0,-13.0,0
2982,261.0,-29.0,-9.0,0
2983,259.0,-29.0,-9.0,0
2984,258.0,-30.0,-12.0,0
2985,259.0,-30.0,-8.0,0
2986,257.0,-30.0,-10.0,0
2987,256.0,-29.0,-10.0,0
2988,260.0,-31.0,-8.0,0
2989,257.0,-29.0,-6.0,0
2990,260.0,-27.0,-12.0,0
2991,257.0,-28.0,-7.0,0
2992,255.0,-34.0,-11.0,0
2993,257.0,-29.0,-8.0,0
2994,260.0,-29.0,-11.0,0
2995,258.0,-28.0,-7.0,0
2996,258.0,-28.0,-10.0,0
2997,259.0,-32.0,-6.0,0
2998,258.0,-28.0,-7.0,0
2999,257.0,-27.0,-10.0,0
