,accelerometer_x,accelerometer_y,accelerometer_z,fall
0,2.0,-231.0,93.0,0
1,6.0,-228.0,96.0,0
2,2.0,-223.0,95.0,0
3,5.0,-231.0,97.0,0
4,4.0,-229.0,93.0,0
5,6.0,-222.0,92.0,0
6,6.0,-231.0,92.0,0
7,3.0,-232.0,96.0,0
8,5.0,-229.0,94.0,0
9,3.0,-228.0,94.0,0
10,5.0,-230.0,98.0,0
11,5.0,-234.0,91.0,0
12,6.0,-232.0,97.0,0
13,4.0,-230.0,96.0,0
14,8.0,-234.0,94.0,0
15,1.0,-231.0,99.0,0
16,12.0,-235.0,90.0,0
17,5.0,-230.0,92.0,0
18,3.0,-226.0,93.0,0
19,5.0,-228.0,92.0,0
20,3.0,-230.0,89.0,0
21,5.0,-227.0,94.0,0
22,3.0,-222.0,91.0,0
23,5.0,-232.0,96.0,0
24,3.0,-227.0,94.0,0
25,8.0,-224.0,92.0,0
26,1.0,-228.0,90.0,0
27,7.0,-230.0,95.0,0
28,6.0,-232.0,96.0,0
29,5.0,-231.0,100.0,0
30,6.0,-231.0,98.0,0
31,6.0,-230.0,94.0,0
32,4.0,-229.0,93.0,0
33,4.0,-231.0,96.0,0
34,6.0,-230.0,90.0,0
35,1.0,-229.0,90.0,0
36,1.0,-225.0,93.0,0
37,7.0,-234.0,100.0,0
38,4.0,-227.0,94.0,0
39,2.0,-227.0,91.0,0
40,2.0,-227.0,93.0,0
41,3.0,-229.0,94.0,0
42,3.0,-228.0,92.0,0
43,4.0,-227.0,94.0,0
44,5.0,-232.0,94.0,0
45,5.0,-228.0,95.0,0
46,3.0,-225.0,90.0,0
47,2.0,-229.0,97.0,0
48,5.0,-226.0,86.0,0
49,4.0,-224.0,94.0,0
50,3.0,-227.0,94.0,0
51,4.0,-228.0,93.0,0
52,3.0,-226.0,90.0,0
53,3.0,-225.0,95.0,0
54,5.0,-229.0,96.0,0
55,6.0,-229.0,91.0,0
56,3.0,-225.0,95.0,0
57,5.0,-229.0,94.0,0
58,5.0,-233.0,92.0,0
59,6.0,-228.0,89.0,0
60,2.0,-229.0,90.0,0
61,3.0,-229.0,95.0,0
62,3.0,-227.0,97.0,0
63,4.0,-229.0,97.0,0
64,2.0,-227.0,93.0,0
65,6.0,-228.0,94.0,0
66,4.0,-224.0,90.0,0
67,3.0,-231.0,93.0,0
68,3.0,-227.0,88.0,0
69,3.0,-226.0,90.0,0
70,2.0,-220.0,97.0,0
71,2.0,-228.0,93.0,0
72,6.0,-227.0,90.0,0
73,3.0,-229.0,95.0,0
74,3.0,-227.0,91.0,0
75,4.0,-229.0,95.0,0
76,3.0,-230.0,95.0,0
77,6.0,-231.0,96.0,0
78,6.0,-232.0,92.0,0
79,5.0,-230.0,103.0,0
80,6.0,-225.0,100.0,0
81,6.0,-234.0,99.0,0
82,3.0,-228.0,97.0,0
83,5.0,-231.0,92.0,0
84,3.0,-227.0,92.0,0
85,5.0,-228.0,96.0,0
86,3.0,-228.0,92.0,0
87,3.0,-226.0,93.0,0
88,2.0,-228.0,93.0,0
89,7.0,-227.0,98.0,0
90,5.0,-227.0,88.0,0
91,2.0,-228.0,96.0,0
92,1.0,-230.0,89.0,0
93,4.0,-230.0,96.0,0
94,3.0,-227.0,96.0,0
95,4.0,-224.0,93.0,0
96,2.0,-229.0,96.0,0
97,3.0,-227.0,94.0,0
98,6.0,-227.0,92.0,0
99,6.0,-226.0,99.0,0
100,3.0,-225.0,96.0,0
101,1.0,-224.0,93.0,0
102,5.0,-228.0,95.0,0
103,6.0,-232.0,95.0,0
104,5.0,-229.0,99.0,0
105,4.0,-227.0,96.0,0
106,4.0,-230.0,96.0,0
107,2.0,-226.0,96.0,0
108,4.0,-227.0,93.0,0
109,3.0,-228.0,92.0,0
110,2.0,-228.0,92.0,0
111,5.0,-227.0,93.0,0
112,1.0,-227.0,90.0,0
113,0.0,-221.0,87.0,0
114,4.0,-230.0,93.0,0
115,4.0,-231.0,91.0,0
116,2.0,-224.0,90.0,0
117,6.0,-228.0,95.0,0
118,3.0,-228.0,96.0,0
119,1.0,-227.0,91.0,0
120,1.0,-224.0,89.0,0
121,3.0,-224.0,99.0,0
122,2.0,-227.0,97.0,0
123,7.0,-228.0,94.0,0
124,5.0,-233.0,87.0,0
125,2.0,-226.0,96.0,0
126,2.0,-227.0,96.0,0
127,2.0,-229.0,97.0,0
128,3.0,-227.0,94.0,0
129,4.0,-228.0,93.0,0
130,4.0,-230.0,95.0,0
131,4.0,-232.0,98.0,0
132,3.0,-227.0,93.0,0
133,2.0,-228.0,91.0,0
134,6.0,-228.0,96.0,0
135,7.0,-227.0,86.0,0
136,2.0,-225.0,90.0,0
137,7.0,-230.0,94.0,0
138,2.0,-228.0,92.0,0
139,2.0,-229.0,94.0,0
140,5.0,-229.0,93.0,0
141,3.0,-228.0,93.0,0
142,5.0,-229.0,94.0,0
143,7.0,-229.0,98.0,0
144,3.0,-224.0,91.0,0
145,5.0,-229.0,94.0,0
146,2.0,-232.0,94.0,0
147,2.0,-227.0,97.0,0
148,2.0,-227.0,98.0,0
149,4.0,-229.0,96.0,0
150,5.0,-230.0,95.0,0
151,1.0,-228.0,94.0,0
152,3.0,-229.0,94.0,0
153,1.0,-226.0,93.0,0
154,2.0,-225.0,94.0,0
155,3.0,-224.0,93.0,0
156,4.0,-228.0,97.0,0
157,9.0,-230.0,96.0,0
158,3.0,-230.0,95.0,0
159,2.0,-229.0,95.0,0
160,3.0,-229.0,91.0,0
161,3.0,-228.0,95.0,0
162,2.0,-225.0,95.0,0
163,1.0,-224.0,92.0,0
164,4.0,-224.0,95.0,0
165,6.0,-227.0,93.0,0
166,3.0,-226.0,95.0,0
167,5.0,-228.0,94.0,0
168,5.0,-226.0,96.0,0
169,2.0,-226.0,91.0,0
170,5.0,-230.0,96.0,0
171,6.0,-231.0,97.0,0
172,5.0,-229.0,96.0,0
173,6.0,-232.0,92.0,0
174,3.0,-229.0,95.0,0
175,3.0,-231.0,97.0,0
176,3.0,-227.0,91.0,0
177,5.0,-231.0,93.0,0
178,7.0,-233.0,92.0,0
179,7.0,-234.0,101.0,0
180,5.0,-230.0,93.0,0
181,5.0,-228.0,92.0,0
182,4.0,-231.0,94.0,0
183,4.0,-226.0,98.0,0
184,3.0,-226.0,92.0,0
185,1.0,-226.0,94.0,0
186,4.0,-227.0,92.0,0
187,3.0,-227.0,95.0,0
188,3.0,-229.0,95.0,0
189,7.0,-229.0,99.0,0
190,8.0,-219.0,95.0,0
191,7.0,-225.0,95.0,0
192,7.0,-228.0,97.0,0
193,6.0,-228.0,99.0,0
194,5.0,-227.0,94.0,0
195,2.0,-226.0,99.0,0
196,7.0,-231.0,92.0,0
197,1.0,-227.0,97.0,0
198,3.0,-227.0,92.0,0
199,3.0,-228.0,97.0,0
200,2.0,-224.0,94.0,0
201,1.0,-224.0,94.0,0
202,2.0,-227.0,95.0,0
203,3.0,-228.0,98.0,0
204,6.0,-229.0,96.0,0
205,2.0,-227.0,97.0,0
206,1.0,-225.0,97.0,0
207,2.0,-227.0,95.0,0
208,2.0,-224.0,92.0,0
209,1.0,-221.0,91.0,0
210,8.0,-226.0,95.0,0
211,5.0,-233.0,97.0,0
212,3.0,-227.0,95.0,0
213,4.0,-229.0,93.0,0
214,1.0,-226.0,94.0,0
215,2.0,-226.0,93.0,0
216,4.0,-229.0,93.0,0
217,3.0,-227.0,92.0,0
218,1.0,-225.0,96.0,0
219,4.0,-227.0,93.0,0
220,4.0,-230.0,95.0,0
221,3.0,-228.0,95.0,0
222,1.0,-228.0,92.0,0
223,4.0,-227.0,98.0,0
224,3.0,-229.0,94.0,0
225,2.0,-227.0,95.0,0
226,4.0,-228.0,96.0,0
227,1.0,-227.0,96.0,0
228,3.0,-231.0,97.0,0
229,5.0,-230.0,95.0,0
230,4.0,-229.0,96.0,0
231,3.0,-229.0,95.0,0
232,5.0,-229.0,89.0,0
233,5.0,-227.0,93.0,0
234,5.0,-226.0,93.0,0
235,4.0,-229.0,97.0,0
236,3.0,-227.0,95.0,0
237,2.0,-229.0,97.0,0
238,3.0,-226.0,98.0,0
239,1.0,-225.0,93.0,0
240,5.0,-226.0,97.0,0
241,3.0,-227.0,92.0,0
242,6.0,-230.0,97.0,0
243,5.0,-228.0,93.0,0
244,0.0,-224.0,98.0,0
245,6.0,-231.0,97.0,0
246,3.0,-227.0,96.0,0
247,1.0,-227.0,97.0,0
248,4.0,-226.0,97.0,0
249,2.0,-230.0,98.0,0
250,4.0,-229.0,96.0,0
251,4.0,-227.0,100.0,0
252,9.0,-231.0,100.0,0
253,7.0,-228.0,96.0,0
254,2.0,-226.0,97.0,0
255,2.0,-230.0,92.0,0
256,4.0,-228.0,96.0,0
257,2.0,-229.0,95.0,0
258,3.0,-228.0,97.0,0
259,6.0,-229.0,96.0,0
260,3.0,-226.0,97.0,0
261,0.0,-227.0,93.0,0
262,7.0,-228.0,98.0,0
263,1.0,-225.0,94.0,0
264,4.0,-226.0,96.0,0
265,5.0,-227.0,95.0,0
266,2.0,-228.0,88.0,0
267,1.0,-227.0,95.0,0
268,4.0,-228.0,94.0,0
269,5.0,-227.0,93.0,0
270,5.0,-231.0,99.0,0
271,3.0,-227.0,96.0,0
272,6.0,-226.0,94.0,0
273,4.0,-229.0,96.0,0
274,3.0,-227.0,95.0,0
275,2.0,-227.0,99.0,0
276,5.0,-227.0,89.0,0
277,1.0,-228.0,89.0,0
278,2.0,-225.0,97.0,0
279,4.0,-229.0,94.0,0
280,4.0,-226.0,94.0,0
281,4.0,-227.0,98.0,0
282,4.0,-228.0,93.0,0
283,4.0,-226.0,95.0,0
284,2.0,-226.0,98.0,0
285,2.0,-230.0,97.0,0
286,5.0,-231.0,89.0,0
287,3.0,-228.0,96.0,0
288,6.0,-230.0,94.0,0
289,5.0,-230.0,96.0,0
290,4.0,-227.0,95.0,0
291,3.0,-226.0,93.0,0
292,4.0,-230.0,98.0,0
293,4.0,-227.0,92.0,0
294,5.0,-222.0,95.0,0
295,6.0,-230.0,97.0,0
296,6.0,-226.0,94.0,0
297,6.0,-229.0,100.0,0
298,2.0,-227.0,96.0,0
299,1.0,-222.0,91.0,0
300,3.0,-226.0,91.0,0
301,4.0,-227.0,99.0,0
302,2.0,-228.0,96.0,0
303,5.0,-229.0,98.0,0
304,2.0,-228.0,95.0,0
305,0.0,-228.0,100.0,0
306,3.0,-230.0,94.0,0
307,3.0,-226.0,92.0,0
308,6.0,-226.0,91.0,0
309,2.0,-231.0,91.0,0
310,2.0,-226.0,99.0,0
311,2.0,-226.0,98.0,0
312,2.0,-227.0,98.0,0
313,4.0,-228.0,91.0,0
314,1.0,-225.0,97.0,0
315,4.0,-226.0,99.0,0
316,5.0,-223.0,95.0,0
317,4.0,-228.0,96.0,0
318,2.0,-227.0,94.0,0
319,5.0,-230.0,96.0,0
320,2.0,-224.0,90.0,0
321,4.0,-229.0,95.0,0
322,5.0,-230.0,101.0,0
323,4.0,-229.0,95.0,0
324,5.0,-229.0,99.0,0
325,6.0,-230.0,96.0,0
326,3.0,-228.0,92.0,0
327,6.0,-226.0,97.0,0
328,4.0,-227.0,93.0,0
329,5.0,-226.0,95.0,0
330,6.0,-226.0,100.0,0
331,2.0,-225.0,97.0,0
332,3.0,-223.0,91.0,0
333,2.0,-225.0,95.0,0
334,2.0,-225.0,95.0,0
335,2.0,-228.0,98.0,0
336,2.0,-224.0,98.0,0
337,4.0,-227.0,100.0,0
338,5.0,-226.0,89.0,0
339,2.0,-227.0,99.0,0
340,3.0,-230.0,98.0,0
341,4.0,-227.0,95.0,0
342,3.0,-233.0,96.0,0
343,4.0,-229.0,96.0,0
344,3.0,-227.0,95.0,0
345,3.0,-228.0,94.0,0
346,3.0,-229.0,95.0,0
347,2.0,-228.0,94.0,0
348,5.0,-226.0,96.0,0
349,3.0,-227.0,98.0,0
350,4.0,-225.0,96.0,0
351,3.0,-229.0,96.0,0
352,6.0,-228.0,90.0,0
353,0.0,-229.0,94.0,0
354,3.0,-228.0,96.0,0
355,3.0,-230.0,93.0,0
356,2.0,-227.0,95.0,0
357,2.0,-229.0,95.0,0
358,3.0,-226.0,97.0,0
359,2.0,-224.0,92.0,0
360,2.0,-226.0,94.0,0
361,5.0,-228.0,92.0,0
362,6.0,-228.0,91.0,0
363,-1.0,-226.0,90.0,0
364,4.0,-229.0,95.0,0
365,4.0,-230.0,94.0,0
366,2.0,-225.0,95.0,0
367,5.0,-229.0,95.0,0
368,5.0,-226.0,95.0,0
369,3.0,-229.0,95.0,0
370,6.0,-227.0,93.0,0
371,3.0,-227.0,97.0,0
372,2.0,-222.0,94.0,0
373,6.0,-229.0,93.0,0
374,7.0,-230.0,94.0,0
375,3.0,-224.0,95.0,0
376,2.0,-223.0,93.0,0
377,3.0,-228.0,96.0,0
378,5.0,-230.0,97.0,0
379,3.0,-227.0,96.0,0
380,3.0,-227.0,96.0,0
381,6.0,-230.0,99.0,0
382,4.0,-230.0,95.0,0
383,1.0,-228.0,96.0,0
384,2.0,-227.0,96.0,0
385,3.0,-228.0,96.0,0
386,-2.0,-225.0,92.0,0
387,4.0,-229.0,95.0,0
388,3.0,-228.0,99.0,0
389,3.0,-229.0,96.0,0
390,5.0,-225.0,95.0,0
391,1.0,-226.0,97.0,0
392,2.0,-227.0,99.0,0
393,0.0,-226.0,101.0,0
394,4.0,-226.0,99.0,0
395,6.0,-228.0,96.0,0
396,6.0,-228.0,95.0,0
397,6.0,-223.0,92.0,0
398,3.0,-228.0,96.0,0
399,3.0,-228.0,94.0,0
400,3.0,-225.0,94.0,0
401,5.0,-231.0,94.0,0
402,5.0,-229.0,94.0,0
403,4.0,-229.0,100.0,0
404,4.0,-231.0,96.0,0
405,6.0,-228.0,96.0,0
406,3.0,-228.0,98.0,0
407,4.0,-228.0,96.0,0
408,4.0,-233.0,97.0,0
409,5.0,-231.0,93.0,0
410,2.0,-224.0,96.0,0
411,3.0,-228.0,95.0,0
412,2.0,-226.0,92.0,0
413,3.0,-228.0,91.0,0
414,4.0,-227.0,96.0,0
415,5.0,-225.0,93.0,0
416,4.0,-228.0,94.0,0
417,5.0,-227.0,94.0,0
418,4.0,-232.0,95.0,0
419,2.0,-223.0,96.0,0
420,1.0,-227.0,95.0,0
421,4.0,-227.0,93.0,0
422,1.0,-229.0,98.0,0
423,5.0,-227.0,97.0,0
424,4.0,-229.0,98.0,0
425,1.0,-228.0,97.0,0
426,1.0,-224.0,99.0,0
427,4.0,-226.0,98.0,0
428,2.0,-228.0,97.0,0
429,6.0,-227.0,94.0,0
430,3.0,-228.0,97.0,0
431,3.0,-229.0,95.0,0
432,6.0,-227.0,96.0,0
433,3.0,-230.0,95.0,0
434,4.0,-227.0,96.0,0
435,4.0,-226.0,95.0,0
436,5.0,-228.0,96.0,0
437,10.0,-232.0,100.0,0
438,8.0,-226.0,97.0,0
439,6.0,-232.0,96.0,0
440,2.0,-223.0,86.0,0
441,4.0,-226.0,95.0,0
442,4.0,-228.0,95.0,0
443,4.0,-228.0,97.0,0
444,6.0,-227.0,94.0,0
445,3.0,-225.0,96.0,0
446,6.0,-226.0,94.0,0
447,2.0,-224.0,91.0,0
448,7.0,-227.0,96.0,0
449,3.0,-226.0,99.0,0
450,4.0,-224.0,93.0,0
451,6.0,-232.0,89.0,0
452,4.0,-229.0,95.0,0
453,4.0,-226.0,98.0,0
454,3.0,-227.0,93.0,0
455,3.0,-228.0,91.0,0
456,1.0,-226.0,96.0,0
457,4.0,-229.0,95.0,0
458,3.0,-230.0,98.0,0
459,4.0,-228.0,95.0,0
460,7.0,-229.0,97.0,0
461,1.0,-229.0,95.0,0
462,1.0,-228.0,94.0,0
463,1.0,-226.0,95.0,0
464,3.0,-226.0,96.0,0
465,0.0,-223.0,98.0,0
466,1.0,-225.0,97.0,0
467,3.0,-225.0,95.0,0
468,5.0,-226.0,96.0,0
469,4.0,-229.0,95.0,0
470,5.0,-227.0,98.0,0
471,3.0,-226.0,99.0,0
472,2.0,-227.0,93.0,0
473,5.0,-230.0,97.0,0
474,2.0,-230.0,97.0,0
475,3.0,-231.0,95.0,0
476,5.0,-229.0,93.0,0
477,4.0,-228.0,97.0,0
478,1.0,-228.0,97.0,0
479,3.0,-228.0,95.0,0
480,2.0,-229.0,97.0,0
481,0.0,-224.0,92.0,0
482,3.0,-228.0,98.0,0
483,3.0,-224.0,90.0,0
484,3.0,-232.0,98.0,0
485,4.0,-228.0,92.0,0
486,1.0,-224.0,97.0,0
487,4.0,-225.0,96.0,0
488,1.0,-224.0,93.0,0
489,0.0,-227.0,101.0,0
490,3.0,-225.0,94.0,0
491,1.0,-226.0,95.0,0
492,4.0,-229.0,97.0,0
493,4.0,-225.0,94.0,0
494,5.0,-227.0,98.0,0
495,9.0,-231.0,98.0,0
496,4.0,-227.0,95.0,0
497,1.0,-226.0,91.0,0
498,3.0,-226.0,96.0,0
499,5.0,-228.0,95.0,0
500,3.0,-228.0,98.0,0
501,3.0,-227.0,94.0,0
502,5.0,-226.0,98.0,0
503,4.0,-230.0,93.0,0
504,4.0,-228.0,95.0,0
505,1.0,-228.0,95.0,0
506,7.0,-225.0,100.0,0
507,7.0,-229.0,100.0,0
508,5.0,-228.0,99.0,0
509,5.0,-228.0,95.0,0
510,6.0,-230.0,94.0,0
511,7.0,-231.0,94.0,0
512,7.0,-232.0,94.0,0
513,5.0,-228.0,94.0,0
514,6.0,-226.0,96.0,0
515,5.0,-229.0,93.0,0
516,6.0,-224.0,89.0,0
517,3.0,-230.0,98.0,0
518,3.0,-225.0,92.0,0
519,5.0,-223.0,94.0,0
520,2.0,-224.0,94.0,0
521,3.0,-224.0,91.0,0
522,4.0,-225.0,89.0,0
523,7.0,-231.0,96.0,0
524,5.0,-230.0,98.0,0
525,3.0,-227.0,96.0,0
526,6.0,-233.0,96.0,0
527,1.0,-230.0,90.0,0
528,2.0,-231.0,96.0,0
529,3.0,-229.0,101.0,0
530,2.0,-232.0,107.0,0
531,3.0,-233.0,110.0,0
532,2.0,-231.0,110.0,0
533,4.0,-231.0,104.0,0
534,6.0,-227.0,102.0,0
535,4.0,-228.0,93.0,0
536,4.0,-220.0,88.0,0
537,3.0,-222.0,91.0,0
538,0.0,-218.0,77.0,0
539,0.0,-213.0,79.0,0
540,-1.0,-214.0,87.0,0
541,-2.0,-212.0,84.0,0
542,-4.0,-216.0,88.0,0
543,0.0,-219.0,93.0,0
544,-2.0,-222.0,91.0,0
545,2.0,-227.0,89.0,0
546,3.0,-229.0,93.0,0
547,2.0,-229.0,93.0,0
548,2.0,-233.0,93.0,0
549,7.0,-236.0,97.0,0
550,3.0,-232.0,84.0,0
551,3.0,-236.0,86.0,0
552,1.0,-231.0,86.0,0
553,5.0,-231.0,88.0,0
554,1.0,-233.0,89.0,0
555,3.0,-234.0,90.0,0
556,3.0,-235.0,90.0,0
557,2.0,-236.0,93.0,0
558,2.0,-236.0,86.0,0
559,3.0,-236.0,87.0,0
560,0.0,-239.0,90.0,0
561,2.0,-237.0,90.0,0
562,6.0,-237.0,87.0,0
563,4.0,-234.0,86.0,0
564,8.0,-234.0,88.0,0
565,6.0,-234.0,90.0,0
566,7.0,-231.0,95.0,0
567,5.0,-228.0,86.0,0
568,5.0,-228.0,85.0,0
569,4.0,-224.0,79.0,0
570,3.0,-221.0,81.0,0
571,7.0,-227.0,80.0,0
572,3.0,-224.0,81.0,0
573,3.0,-223.0,82.0,0
574,4.0,-227.0,83.0,0
575,2.0,-230.0,84.0,0
576,4.0,-231.0,86.0,0
577,5.0,-232.0,84.0,0
578,0.0,-231.0,83.0,0
579,2.0,-233.0,85.0,0
580,7.0,-236.0,86.0,0
581,6.0,-238.0,90.0,0
582,7.0,-236.0,85.0,0
583,7.0,-235.0,88.0,0
584,5.0,-237.0,90.0,0
585,9.0,-236.0,86.0,0
586,6.0,-231.0,85.0,0
587,9.0,-233.0,85.0,0
588,14.0,-230.0,82.0,0
589,14.0,-228.0,82.0,0
590,11.0,-228.0,80.0,0
591,12.0,-225.0,85.0,0
592,13.0,-227.0,86.0,0
593,7.0,-227.0,84.0,0
594,11.0,-238.0,85.0,0
595,14.0,-239.0,82.0,0
596,10.0,-243.0,81.0,0
597,8.0,-243.0,81.0,0
598,11.0,-247.0,84.0,0
599,10.0,-245.0,82.0,0
600,7.0,-242.0,79.0,0
601,11.0,-241.0,80.0,0
602,12.0,-240.0,79.0,0
603,10.0,-238.0,76.0,0
604,8.0,-236.0,77.0,0
605,6.0,-231.0,76.0,0
606,8.0,-232.0,78.0,0
607,10.0,-230.0,74.0,0
608,8.0,-233.0,73.0,0
609,7.0,-227.0,71.0,0
610,8.0,-226.0,72.0,0
611,11.0,-226.0,73.0,0
612,8.0,-226.0,69.0,0
613,12.0,-229.0,72.0,0
614,11.0,-234.0,69.0,0
615,9.0,-229.0,67.0,0
616,9.0,-230.0,69.0,0
617,4.0,-232.0,69.0,0
618,4.0,-234.0,66.0,0
619,3.0,-233.0,67.0,0
620,2.0,-238.0,67.0,0
621,0.0,-237.0,67.0,0
622,3.0,-236.0,65.0,0
623,3.0,-240.0,71.0,0
624,4.0,-240.0,66.0,0
625,2.0,-239.0,66.0,0
626,2.0,-237.0,71.0,0
627,5.0,-241.0,69.0,0
628,7.0,-236.0,69.0,0
629,3.0,-237.0,65.0,0
630,6.0,-237.0,65.0,0
631,5.0,-235.0,63.0,0
632,4.0,-231.0,65.0,0
633,4.0,-234.0,66.0,0
634,2.0,-233.0,63.0,0
635,4.0,-230.0,70.0,0
636,7.0,-231.0,64.0,0
637,6.0,-232.0,68.0,0
638,6.0,-233.0,69.0,0
639,9.0,-232.0,66.0,0
640,12.0,-233.0,68.0,0
641,7.0,-233.0,67.0,0
642,9.0,-234.0,68.0,0
643,14.0,-234.0,70.0,0
644,11.0,-234.0,68.0,0
645,13.0,-232.0,69.0,0
646,12.0,-233.0,66.0,0
647,10.0,-232.0,63.0,0
648,8.0,-231.0,66.0,0
649,10.0,-231.0,66.0,0
650,6.0,-231.0,63.0,0
651,3.0,-231.0,62.0,0
652,4.0,-236.0,61.0,0
653,5.0,-235.0,61.0,0
654,7.0,-237.0,60.0,0
655,10.0,-242.0,61.0,0
656,7.0,-241.0,57.0,0
657,12.0,-241.0,63.0,0
658,5.0,-233.0,51.0,0
659,14.0,-246.0,60.0,0
660,14.0,-243.0,56.0,0
661,15.0,-241.0,53.0,0
662,16.0,-239.0,51.0,0
663,17.0,-241.0,49.0,0
664,18.0,-239.0,51.0,0
665,15.0,-239.0,56.0,0
666,22.0,-242.0,59.0,0
667,17.0,-239.0,57.0,0
668,17.0,-241.0,53.0,0
669,21.0,-245.0,54.0,0
670,25.0,-242.0,52.0,0
671,20.0,-239.0,56.0,0
672,22.0,-236.0,50.0,0
673,21.0,-236.0,48.0,0
674,24.0,-236.0,51.0,0
675,22.0,-236.0,48.0,0
676,26.0,-234.0,39.0,0
677,32.0,-240.0,35.0,0
678,28.0,-238.0,33.0,0
679,24.0,-240.0,28.0,0
680,26.0,-240.0,33.0,0
681,27.0,-241.0,33.0,0
682,29.0,-244.0,36.0,0
683,28.0,-248.0,33.0,0
684,22.0,-244.0,34.0,0
685,26.0,-249.0,33.0,0
686,20.0,-244.0,27.0,0
687,25.0,-244.0,26.0,0
688,24.0,-246.0,28.0,0
689,21.0,-250.0,25.0,0
690,20.0,-245.0,21.0,0
691,16.0,-243.0,28.0,0
692,13.0,-243.0,17.0,0
693,14.0,-240.0,23.0,0
694,5.0,-241.0,24.0,0
695,14.0,-241.0,21.0,0
696,14.0,-243.0,22.0,0
697,5.0,-237.0,21.0,0
698,21.0,-244.0,22.0,0
699,-1.0,-239.0,19.0,0
700,18.0,-240.0,22.0,0
701,11.0,-238.0,17.0,0
702,29.0,-245.0,10.0,0
703,15.0,-242.0,12.0,0
704,20.0,-246.0,8.0,0
705,22.0,-251.0,5.0,0
706,12.0,-247.0,5.0,0
707,20.0,-249.0,3.0,0
708,12.0,-247.0,0.0,0
709,29.0,-249.0,-2.0,0
710,22.0,-250.0,-4.0,0
711,8.0,-244.0,3.0,0
712,25.0,-245.0,-2.0,0
713,17.0,-252.0,-14.0,0
714,16.0,-252.0,-1.0,0
715,28.0,-252.0,-6.0,0
716,32.0,-257.0,-9.0,0
717,20.0,-258.0,-14.0,0
718,20.0,-258.0,-13.0,0
719,18.0,-255.0,-23.0,0
720,15.0,-259.0,-23.0,0
721,15.0,-256.0,-21.0,0
722,8.0,-252.0,-23.0,0
723,7.0,-251.0,-16.0,0
724,10.0,-250.0,-20.0,0
725,9.0,-244.0,-24.0,0
726,21.0,-242.0,-22.0,0
727,25.0,-241.0,-24.0,0
728,24.0,-239.0,-17.0,0
729,28.0,-241.0,-13.0,0
730,30.0,-246.0,-21.0,0
731,32.0,-253.0,-19.0,0
732,27.0,-255.0,-25.0,0
733,23.0,-258.0,-27.0,0
734,21.0,-268.0,-37.0,0
735,16.0,-263.0,-35.0,0
736,18.0,-264.0,-35.0,0
737,14.0,-262.0,-34.0,0
738,18.0,-264.0,-34.0,0
739,18.0,-258.0,-35.0,0
740,17.0,-259.0,-37.0,0
741,22.0,-256.0,-40.0,0
742,24.0,-256.0,-40.0,0
743,21.0,-257.0,-46.0,0
744,22.0,-252.0,-45.0,0
745,18.0,-256.0,-49.0,0
746,13.0,-256.0,-47.0,0
747,12.0,-258.0,-49.0,0
748,11.0,-258.0,-51.0,0
749,11.0,-257.0,-53.0,0
750,9.0,-257.0,-46.0,0
751,14.0,-261.0,-51.0,0
752,17.0,-265.0,-50.0,0
753,17.0,-271.0,-52.0,0
754,22.0,-268.0,-58.0,0
755,27.0,-281.0,-61.0,0
756,27.0,-275.0,-67.0,0
757,22.0,-275.0,-69.0,0
758,25.0,-279.0,-72.0,0
759,24.0,-281.0,-72.0,0
760,19.0,-282.0,-79.0,0
761,15.0,-277.0,-78.0,0
762,10.0,-281.0,-80.0,0
763,9.0,-275.0,-81.0,0
764,8.0,-277.0,-82.0,0
765,13.0,-276.0,-78.0,0
766,7.0,-272.0,-82.0,0
767,12.0,-270.0,-80.0,0
768,8.0,-268.0,-78.0,0
769,18.0,-273.0,-78.0,0
770,11.0,-273.0,-81.0,0
771,10.0,-266.0,-89.0,0
772,16.0,-269.0,-89.0,0
773,13.0,-270.0,-89.0,0
774,12.0,-267.0,-85.0,0
775,16.0,-264.0,-82.0,0
776,19.0,-271.0,-89.0,0
777,20.0,-269.0,-90.0,0
778,19.0,-267.0,-90.0,0
779,21.0,-269.0,-88.0,0
780,20.0,-269.0,-88.0,0
781,23.0,-267.0,-93.0,0
782,24.0,-266.0,-92.0,0
783,23.0,-268.0,-93.0,0
784,26.0,-266.0,-95.0,0
785,28.0,-261.0,-89.0,0
786,25.0,-253.0,-98.0,0
787,28.0,-246.0,-92.0,0
788,25.0,-237.0,-99.0,0
789,25.0,-230.0,-103.0,0
790,25.0,-222.0,-101.0,0
791,30.0,-220.0,-98.0,0
792,25.0,-217.0,-95.0,0
793,27.0,-213.0,-93.0,0
794,23.0,-216.0,-99.0,0
795,24.0,-220.0,-101.0,0
796,22.0,-224.0,-100.0,0
797,13.0,-224.0,-95.0,0
798,12.0,-218.0,-90.0,0
799,8.0,-230.0,-93.0,0
800,8.0,-235.0,-100.0,0
801,11.0,-237.0,-106.0,0
802,11.0,-237.0,-101.0,0
803,9.0,-236.0,-102.0,0
804,13.0,-235.0,-99.0,0
805,8.0,-238.0,-100.0,0
806,8.0,-237.0,-102.0,0
807,9.0,-235.0,-103.0,0
808,19.0,-239.0,-100.0,0
809,16.0,-231.0,-98.0,0
810,20.0,-223.0,-97.0,0
811,18.0,-223.0,-97.0,0
812,15.0,-222.0,-94.0,0
813,14.0,-224.0,-91.0,0
814,6.0,-227.0,-92.0,0
815,1.0,-230.0,-92.0,0
816,-4.0,-231.0,-91.0,0
817,-10.0,-231.0,-91.0,0
818,-14.0,-230.0,-94.0,0
819,-13.0,-241.0,-101.0,0
820,-7.0,-240.0,-92.0,0
821,-4.0,-243.0,-91.0,0
822,-1.0,-244.0,-88.0,0
823,1.0,-248.0,-90.0,0
824,1.0,-249.0,-94.0,0
825,8.0,-254.0,-97.0,0
826,14.0,-259.0,-98.0,0
827,14.0,-261.0,-94.0,0
828,22.0,-261.0,-94.0,0
829,15.0,-262.0,-92.0,0
830,18.0,-262.0,-93.0,0
831,17.0,-263.0,-88.0,0
832,12.0,-259.0,-81.0,0
833,9.0,-260.0,-86.0,0
834,9.0,-256.0,-92.0,0
835,8.0,-248.0,-100.0,0
836,8.0,-246.0,-104.0,0
837,4.0,-239.0,-110.0,0
838,4.0,-230.0,-106.0,0
839,7.0,-227.0,-108.0,0
840,8.0,-214.0,-112.0,0
841,8.0,-215.0,-116.0,0
842,17.0,-209.0,-116.0,0
843,20.0,-204.0,-116.0,0
844,24.0,-197.0,-109.0,0
845,24.0,-192.0,-111.0,0
846,25.0,-187.0,-113.0,0
847,24.0,-188.0,-107.0,0
848,21.0,-184.0,-104.0,0
849,14.0,-182.0,-100.0,0
850,2.0,-175.0,-97.0,0
851,-3.0,-172.0,-104.0,0
852,-10.0,-166.0,-96.0,0
853,-16.0,-171.0,-103.0,0
854,-22.0,-179.0,-106.0,0
855,-25.0,-180.0,-109.0,0
856,-26.0,-185.0,-109.0,0
857,-24.0,-184.0,-114.0,0
858,-22.0,-188.0,-117.0,0
859,-16.0,-191.0,-120.0,0
860,-11.0,-192.0,-116.0,0
861,0.0,-187.0,-122.0,0
862,3.0,-184.0,-115.0,0
863,20.0,-184.0,-119.0,0
864,24.0,-181.0,-113.0,0
865,27.0,-181.0,-113.0,0
866,27.0,-173.0,-113.0,0
867,29.0,-172.0,-119.0,0
868,30.0,-168.0,-118.0,0
869,21.0,-169.0,-117.0,0
870,19.0,-173.0,-114.0,0
871,9.0,-181.0,-120.0,0
872,5.0,-189.0,-117.0,0
873,5.0,-191.0,-116.0,0
874,0.0,-192.0,-118.0,0
875,1.0,-193.0,-118.0,0
876,0.0,-195.0,-114.0,0
877,-2.0,-194.0,-120.0,0
878,-4.0,-195.0,-117.0,0
879,-5.0,-192.0,-116.0,0
880,-4.0,-191.0,-113.0,0
881,-1.0,-189.0,-115.0,0
882,-3.0,-188.0,-115.0,0
883,0.0,-183.0,-115.0,0
884,-1.0,-178.0,-120.0,0
885,-1.0,-181.0,-116.0,0
886,1.0,-181.0,-115.0,0
887,0.0,-175.0,-115.0,0
888,0.0,-174.0,-119.0,0
889,2.0,-168.0,-119.0,0
890,0.0,-170.0,-116.0,0
891,0.0,-172.0,-115.0,0
892,-2.0,-167.0,-116.0,0
893,-6.0,-166.0,-117.0,0
894,-1.0,-170.0,-119.0,0
895,-1.0,-165.0,-116.0,0
896,-2.0,-168.0,-117.0,0
897,0.0,-164.0,-119.0,0
898,-2.0,-161.0,-119.0,0
899,0.0,-158.0,-123.0,0
900,3.0,-161.0,-124.0,0
901,3.0,-152.0,-125.0,0
902,5.0,-146.0,-130.0,0
903,10.0,-152.0,-131.0,0
904,10.0,-149.0,-130.0,0
905,6.0,-144.0,-130.0,0
906,7.0,-144.0,-126.0,0
907,9.0,-147.0,-129.0,0
908,11.0,-144.0,-132.0,0
909,11.0,-147.0,-134.0,0
910,8.0,-146.0,-139.0,0
911,8.0,-144.0,-137.0,0
912,3.0,-143.0,-139.0,0
913,1.0,-145.0,-144.0,0
914,1.0,-141.0,-146.0,0
915,1.0,-144.0,-150.0,0
916,0.0,-142.0,-151.0,0
917,-2.0,-152.0,-153.0,0
918,1.0,-149.0,-149.0,0
919,0.0,-147.0,-152.0,0
920,0.0,-148.0,-146.0,0
921,0.0,-153.0,-149.0,0
922,0.0,-157.0,-150.0,0
923,2.0,-159.0,-154.0,0
924,2.0,-167.0,-149.0,0
925,-3.0,-171.0,-156.0,0
926,1.0,-174.0,-159.0,0
927,-1.0,-175.0,-161.0,0
928,-5.0,-183.0,-162.0,0
929,-1.0,-186.0,-165.0,0
930,-6.0,-184.0,-165.0,0
931,-9.0,-182.0,-170.0,0
932,-11.0,-183.0,-169.0,0
933,-9.0,-181.0,-170.0,0
934,-9.0,-183.0,-170.0,0
935,-13.0,-174.0,-162.0,0
936,-11.0,-176.0,-157.0,0
937,-9.0,-169.0,-155.0,0
938,-3.0,-170.0,-151.0,0
939,-9.0,-168.0,-158.0,0
940,-6.0,-167.0,-151.0,0
941,-2.0,-171.0,-153.0,0
942,-5.0,-171.0,-150.0,0
943,0.0,-172.0,-144.0,0
944,1.0,-173.0,-145.0,0
945,1.0,-175.0,-145.0,0
946,0.0,-177.0,-148.0,0
947,1.0,-178.0,-148.0,0
948,-1.0,-178.0,-147.0,0
949,-1.0,-178.0,-139.0,0
950,-8.0,-177.0,-142.0,0
951,-7.0,-179.0,-146.0,0
952,-4.0,-179.0,-143.0,0
953,-7.0,-183.0,-141.0,0
954,-16.0,-180.0,-140.0,0
955,-19.0,-182.0,-141.0,0
956,-17.0,-183.0,-138.0,0
957,-20.0,-179.0,-140.0,0
958,-20.0,-179.0,-147.0,0
959,-20.0,-174.0,-146.0,0
960,-19.0,-177.0,-146.0,0
961,-12.0,-175.0,-143.0,0
962,-8.0,-176.0,-139.0,0
963,0.0,-175.0,-139.0,0
964,3.0,-177.0,-140.0,0
965,6.0,-174.0,-136.0,0
966,12.0,-174.0,-137.0,0
967,19.0,-174.0,-132.0,0
968,24.0,-174.0,-131.0,0
969,26.0,-170.0,-131.0,0
970,33.0,-173.0,-135.0,0
971,32.0,-171.0,-134.0,0
972,33.0,-174.0,-137.0,0
973,28.0,-174.0,-133.0,0
974,29.0,-173.0,-133.0,0
975,27.0,-176.0,-126.0,0
976,20.0,-176.0,-124.0,0
977,11.0,-181.0,-120.0,0
978,7.0,-185.0,-114.0,0
979,-5.0,-181.0,-113.0,0
980,-12.0,-183.0,-112.0,0
981,-22.0,-186.0,-104.0,0
982,-32.0,-184.0,-95.0,0
983,-35.0,-186.0,-101.0,0
984,-50.0,-187.0,-99.0,0
985,-55.0,-182.0,-100.0,0
986,-59.0,-186.0,-99.0,0
987,-56.0,-179.0,-99.0,0
988,-54.0,-179.0,-94.0,0
989,-51.0,-172.0,-96.0,0
990,-49.0,-171.0,-101.0,0
991,-52.0,-168.0,-93.0,0
992,-46.0,-168.0,-95.0,0
993,-53.0,-172.0,-92.0,0
994,-83.0,-160.0,-87.0,0
995,-56.0,-167.0,-89.0,0
996,-59.0,-169.0,-87.0,0
997,-71.0,-167.0,-78.0,0
998,-78.0,-165.0,-73.0,0
999,-84.0,-162.0,-72.0,0
1000,-79.0,-165.0,-69.0,0
1001,-71.0,-161.0,-64.0,0
1002,-63.0,-162.0,-65.0,0
1003,-60.0,-162.0,-65.0,0
1004,-60.0,-163.0,-64.0,0
1005,-54.0,-160.0,-69.0,0
1006,-54.0,-160.0,-73.0,0
1007,-57.0,-155.0,-72.0,0
1008,-59.0,-150.0,-70.0,0
1009,-58.0,-146.0,-69.0,0
1010,-55.0,-142.0,-65.0,0
1011,-56.0,-131.0,-57.0,0
1012,-58.0,-127.0,-47.0,0
1013,-57.0,-123.0,-36.0,0
1014,-56.0,-121.0,-44.0,0
1015,-45.0,-111.0,-37.0,0
1016,-36.0,-105.0,-37.0,0
1017,-26.0,-106.0,-45.0,0
1018,-24.0,-101.0,-55.0,0
1019,-32.0,-96.0,-59.0,0
1020,-30.0,-88.0,-75.0,0
1021,-29.0,-83.0,-84.0,0
1022,-31.0,-75.0,-93.0,0
1023,-39.0,-65.0,-87.0,0
1024,-46.0,-54.0,-77.0,0
1025,-34.0,-49.0,-69.0,0
1026,-36.0,-43.0,-78.0,0
1027,-45.0,-39.0,-84.0,0
1028,-46.0,-41.0,-95.0,0
1029,-52.0,-36.0,-98.0,0
1030,-58.0,-38.0,-106.0,0
1031,-67.0,-45.0,-118.0,0
1032,-77.0,-54.0,-126.0,0
1033,-84.0,-59.0,-135.0,0
1034,-83.0,-66.0,-134.0,0
1035,-82.0,-78.0,-140.0,0
1036,-84.0,-96.0,-145.0,0
1037,-89.0,-114.0,-157.0,2
1038,-105.0,-112.0,-166.0,2
1039,-92.0,-148.0,-145.0,2
1040,-111.0,-159.0,-148.0,2
1041,-127.0,-169.0,-137.0,2
1042,-150.0,-164.0,-112.0,2
1043,-162.0,-164.0,-74.0,2
1044,-161.0,-184.0,1.0,2
1045,-183.0,-157.0,40.0,2
1046,-188.0,-140.0,67.0,2
1047,-194.0,-112.0,76.0,2
1048,-181.0,-96.0,89.0,2
1049,-167.0,-50.0,86.0,2
1050,-162.0,5.0,76.0,2
1051,-144.0,41.0,73.0,2
1052,-137.0,64.0,20.0,2
1053,-131.0,78.0,-31.0,2
1054,-111.0,128.0,-102.0,2
1055,-32.0,166.0,-166.0,2
1056,33.0,220.0,-227.0,2
1057,-1120.0,882.0,146.0,2
1058,-91.0,148.0,-284.0,2
1059,-914.0,400.0,-642.0,2
1060,-1305.0,363.0,-720.0,2
1061,-1880.0,490.0,-901.0,2
1062,-1811.0,728.0,-645.0,2
1063,-92.0,922.0,-608.0,2
1064,-109.0,447.0,-706.0,2
1065,-357.0,61.0,-935.0,2
1066,-723.0,142.0,-834.0,2
1067,-837.0,89.0,-666.0,2
1068,-750.0,32.0,-642.0,2
1069,-605.0,-73.0,-561.0,2
1070,-545.0,-103.0,-550.0,2
1071,-434.0,-10.0,-508.0,2
1072,-309.0,34.0,-399.0,2
1073,-227.0,100.0,-293.0,2
1074,-269.0,135.0,-295.0,2
1075,-344.0,141.0,-303.0,2
1076,-261.0,29.0,-234.0,2
1077,-180.0,-23.0,-236.0,2
1078,-180.0,-39.0,-149.0,2
1079,-181.0,-29.0,-180.0,2
1080,-128.0,-13.0,-218.0,2
1081,-121.0,37.0,-229.0,2
1082,-80.0,-3.0,-204.0,2
1083,-101.0,1.0,-190.0,2
1084,-111.0,38.0,-151.0,1
1085,-85.0,81.0,-158.0,1
1086,-82.0,93.0,-157.0,1
1087,-108.0,133.0,-167.0,1
1088,-99.0,178.0,-169.0,1
1089,-212.0,174.0,-117.0,1
1090,-20.0,123.0,-133.0,1
1091,-103.0,197.0,-184.0,1
1092,-79.0,141.0,-158.0,1
1093,-231.0,190.0,-166.0,1
1094,-104.0,92.0,-146.0,1
1095,-211.0,102.0,-179.0,1
1096,-157.0,52.0,-175.0,1
1097,-218.0,109.0,-188.0,1
1098,-297.0,125.0,-254.0,1
1099,-300.0,114.0,-227.0,1
1100,-265.0,83.0,-190.0,1
1101,-216.0,55.0,-191.0,1
1102,-265.0,49.0,-171.0,1
1103,-233.0,54.0,-179.0,1
1104,-216.0,78.0,-205.0,1
1105,-188.0,73.0,-200.0,1
1106,-150.0,79.0,-193.0,1
1107,-127.0,68.0,-186.0,1
1108,-115.0,101.0,-188.0,1
1109,-80.0,102.0,-158.0,1
1110,-89.0,118.0,-160.0,1
1111,-68.0,109.0,-138.0,1
1112,-65.0,119.0,-142.0,1
1113,-61.0,136.0,-155.0,1
1114,-76.0,134.0,-162.0,1
1115,-67.0,135.0,-166.0,1
1116,-88.0,122.0,-159.0,1
1117,-89.0,105.0,-153.0,1
1118,-105.0,129.0,-160.0,1
1119,-98.0,143.0,-174.0,1
1120,-94.0,147.0,-187.0,1
1121,-97.0,133.0,-170.0,1
1122,-102.0,134.0,-173.0,1
1123,-85.0,134.0,-167.0,1
1124,-92.0,155.0,-169.0,1
1125,-85.0,145.0,-163.0,1
1126,-64.0,188.0,-178.0,1
1127,-67.0,142.0,-175.0,1
1128,-94.0,142.0,-192.0,1
1129,-83.0,161.0,-225.0,1
1130,-45.0,108.0,-207.0,1
1131,-49.0,142.0,-271.0,1
1132,-2.0,180.0,-263.0,1
1133,-45.0,199.0,-242.0,1
1134,-34.0,-33.0,-149.0,1
1135,-105.0,168.0,-257.0,0
1136,-59.0,141.0,-247.0,0
1137,-66.0,107.0,-246.0,0
1138,-68.0,82.0,-254.0,0
1139,-64.0,94.0,-258.0,0
1140,-64.0,87.0,-257.0,0
1141,-28.0,79.0,-258.0,0
1142,-46.0,83.0,-267.0,0
1143,-61.0,81.0,-261.0,0
1144,-62.0,87.0,-256.0,0
1145,-89.0,90.0,-260.0,0
1146,-92.0,86.0,-262.0,0
1147,-104.0,64.0,-263.0,0
1148,-109.0,32.0,-270.0,0
1149,-98.0,19.0,-270.0,0
1150,-102.0,17.0,-270.0,0
1151,-110.0,26.0,-260.0,0
1152,-108.0,34.0,-258.0,0
1153,-96.0,42.0,-257.0,0
1154,-90.0,56.0,-253.0,0
1155,-91.0,70.0,-243.0,0
1156,-88.0,66.0,-230.0,0
1157,-83.0,52.0,-229.0,0
1158,-78.0,58.0,-226.0,0
1159,-81.0,68.0,-226.0,0
1160,-81.0,69.0,-215.0,0
1161,-78.0,74.0,-215.0,0
1162,-86.0,70.0,-214.0,0
1163,-80.0,65.0,-223.0,0
1164,-83.0,64.0,-226.0,0
1165,-82.0,58.0,-223.0,0
1166,-84.0,45.0,-230.0,0
1167,-86.0,35.0,-223.0,0
1168,-76.0,39.0,-222.0,0
1169,-83.0,25.0,-217.0,0
1170,-97.0,24.0,-235.0,0
1171,-105.0,35.0,-241.0,0
1172,-101.0,26.0,-240.0,0
1173,-102.0,28.0,-237.0,0
1174,-92.0,8.0,-221.0,0
1175,-90.0,-2.0,-216.0,0
1176,-97.0,8.0,-207.0,0
1177,-91.0,18.0,-202.0,0
1178,-92.0,22.0,-192.0,0
1179,-95.0,24.0,-188.0,0
1180,-93.0,29.0,-190.0,0
1181,-99.0,29.0,-194.0,0
1182,-95.0,32.0,-197.0,0
1183,-90.0,37.0,-204.0,0
1184,-84.0,34.0,-210.0,0
1185,-89.0,35.0,-216.0,0
1186,-91.0,31.0,-225.0,0
1187,-95.0,32.0,-228.0,0
1188,-103.0,35.0,-232.0,0
1189,-103.0,34.0,-238.0,0
1190,-102.0,37.0,-242.0,0
1191,-102.0,35.0,-247.0,0
1192,-98.0,33.0,-248.0,0
1193,-96.0,31.0,-249.0,0
1194,-98.0,31.0,-251.0,0
1195,-96.0,31.0,-245.0,0
1196,-96.0,32.0,-243.0,0
1197,-100.0,32.0,-239.0,0
1198,-96.0,30.0,-238.0,0
1199,-96.0,34.0,-243.0,0
1200,-94.0,27.0,-239.0,0
1201,-93.0,33.0,-240.0,0
1202,-93.0,37.0,-236.0,0
1203,-93.0,40.0,-233.0,0
1204,-89.0,39.0,-237.0,0
1205,-89.0,39.0,-233.0,0
1206,-92.0,42.0,-236.0,0
1207,-99.0,37.0,-238.0,0
1208,-95.0,40.0,-234.0,0
1209,-94.0,41.0,-237.0,0
1210,-92.0,43.0,-233.0,0
1211,-95.0,43.0,-233.0,0
1212,-96.0,41.0,-237.0,0
1213,-97.0,40.0,-233.0,0
1214,-94.0,38.0,-229.0,0
1215,-95.0,49.0,-233.0,0
1216,-96.0,43.0,-233.0,0
1217,-96.0,37.0,-237.0,0
1218,-91.0,44.0,-236.0,0
1219,-97.0,46.0,-230.0,0
1220,-94.0,44.0,-235.0,0
1221,-96.0,48.0,-231.0,0
1222,-90.0,45.0,-225.0,0
1223,-91.0,46.0,-227.0,0
1224,-93.0,47.0,-226.0,0
1225,-89.0,46.0,-226.0,0
1226,-90.0,48.0,-224.0,0
1227,-89.0,44.0,-222.0,0
1228,-87.0,46.0,-221.0,0
1229,-87.0,49.0,-224.0,0
1230,-90.0,51.0,-219.0,0
1231,-87.0,50.0,-221.0,0
1232,-88.0,51.0,-223.0,0
1233,-88.0,51.0,-227.0,0
1234,-84.0,50.0,-222.0,0
1235,-87.0,51.0,-229.0,0
1236,-87.0,46.0,-227.0,0
1237,-88.0,53.0,-228.0,0
1238,-90.0,52.0,-229.0,0
1239,-93.0,49.0,-228.0,0
1240,-88.0,48.0,-235.0,0
1241,-86.0,51.0,-228.0,0
1242,-88.0,51.0,-230.0,0
1243,-90.0,52.0,-233.0,0
1244,-91.0,50.0,-230.0,0
1245,-91.0,52.0,-231.0,0
1246,-93.0,48.0,-233.0,0
1247,-93.0,47.0,-232.0,0
1248,-91.0,47.0,-231.0,0
1249,-89.0,43.0,-233.0,0
1250,-91.0,46.0,-226.0,0
1251,-82.0,52.0,-231.0,0
1252,-91.0,47.0,-229.0,0
1253,-89.0,47.0,-228.0,0
1254,-88.0,45.0,-227.0,0
1255,-92.0,47.0,-223.0,0
1256,-90.0,42.0,-227.0,0
1257,-92.0,47.0,-224.0,0
1258,-90.0,42.0,-220.0,0
1259,-92.0,48.0,-226.0,0
1260,-95.0,51.0,-229.0,0
1261,-95.0,46.0,-230.0,0
1262,-96.0,54.0,-230.0,0
1263,-94.0,48.0,-226.0,0
1264,-88.0,43.0,-227.0,0
1265,-92.0,45.0,-232.0,0
1266,-89.0,42.0,-229.0,0
1267,-94.0,46.0,-232.0,0
1268,-90.0,46.0,-229.0,0
1269,-94.0,45.0,-235.0,0
1270,-90.0,43.0,-233.0,0
1271,-90.0,42.0,-225.0,0
1272,-93.0,40.0,-235.0,0
1273,-89.0,47.0,-227.0,0
1274,-90.0,42.0,-229.0,0
1275,-89.0,47.0,-230.0,0
1276,-89.0,45.0,-230.0,0
1277,-90.0,45.0,-227.0,0
1278,-88.0,37.0,-229.0,0
1279,-91.0,44.0,-231.0,0
1280,-91.0,41.0,-226.0,0
1281,-92.0,41.0,-227.0,0
1282,-89.0,40.0,-229.0,0
1283,-92.0,51.0,-231.0,0
1284,-97.0,41.0,-232.0,0
1285,-90.0,42.0,-231.0,0
1286,-92.0,41.0,-227.0,0
1287,-94.0,45.0,-227.0,0
1288,-89.0,41.0,-231.0,0
1289,-91.0,42.0,-232.0,0
1290,-90.0,38.0,-233.0,0
1291,-91.0,42.0,-229.0,0
1292,-93.0,45.0,-229.0,0
1293,-88.0,40.0,-227.0,0
1294,-93.0,41.0,-223.0,0
1295,-91.0,44.0,-228.0,0
1296,-92.0,43.0,-232.0,0
1297,-88.0,41.0,-227.0,0
1298,-88.0,43.0,-230.0,0
1299,-94.0,44.0,-231.0,0
1300,-91.0,40.0,-227.0,0
1301,-92.0,45.0,-232.0,0
1302,-87.0,45.0,-230.0,0
1303,-90.0,42.0,-229.0,0
1304,-88.0,44.0,-233.0,0
1305,-97.0,40.0,-236.0,0
1306,-92.0,43.0,-229.0,0
1307,-88.0,43.0,-228.0,0
1308,-93.0,46.0,-228.0,0
1309,-90.0,43.0,-229.0,0
1310,-91.0,46.0,-229.0,0
1311,-89.0,42.0,-228.0,0
1312,-90.0,44.0,-229.0,0
1313,-89.0,46.0,-231.0,0
1314,-88.0,44.0,-231.0,0
1315,-88.0,45.0,-229.0,0
1316,-84.0,43.0,-233.0,0
1317,-89.0,46.0,-232.0,0
1318,-88.0,44.0,-229.0,0
1319,-90.0,44.0,-228.0,0
1320,-87.0,47.0,-229.0,0
1321,-88.0,47.0,-229.0,0
1322,-89.0,45.0,-228.0,0
1323,-87.0,46.0,-228.0,0
1324,-86.0,40.0,-233.0,0
1325,-87.0,45.0,-232.0,0
1326,-89.0,45.0,-235.0,0
1327,-91.0,46.0,-231.0,0
1328,-86.0,44.0,-231.0,0
1329,-86.0,44.0,-231.0,0
1330,-87.0,45.0,-232.0,0
1331,-89.0,42.0,-233.0,0
1332,-90.0,45.0,-228.0,0
1333,-88.0,43.0,-233.0,0
1334,-87.0,42.0,-225.0,0
1335,-84.0,45.0,-232.0,0
1336,-86.0,43.0,-231.0,0
1337,-87.0,48.0,-229.0,0
1338,-84.0,41.0,-228.0,0
1339,-87.0,45.0,-233.0,0
1340,-85.0,44.0,-229.0,0
1341,-88.0,45.0,-232.0,0
1342,-88.0,45.0,-230.0,0
1343,-86.0,39.0,-231.0,0
1344,-88.0,43.0,-229.0,0
1345,-88.0,44.0,-225.0,0
1346,-89.0,45.0,-228.0,0
1347,-83.0,47.0,-225.0,0
1348,-90.0,48.0,-234.0,0
1349,-92.0,38.0,-230.0,0
1350,-86.0,43.0,-229.0,0
1351,-88.0,43.0,-228.0,0
1352,-87.0,45.0,-230.0,0
1353,-89.0,46.0,-232.0,0
1354,-88.0,46.0,-232.0,0
1355,-86.0,43.0,-233.0,0
1356,-90.0,41.0,-231.0,0
1357,-88.0,48.0,-232.0,0
1358,-91.0,45.0,-234.0,0
1359,-85.0,42.0,-232.0,0
1360,-87.0,42.0,-236.0,0
1361,-89.0,44.0,-230.0,0
1362,-87.0,45.0,-230.0,0
1363,-90.0,44.0,-233.0,0
1364,-88.0,42.0,-230.0,0
1365,-87.0,43.0,-231.0,0
1366,-86.0,45.0,-231.0,0
1367,-88.0,47.0,-235.0,0
1368,-88.0,46.0,-231.0,0
1369,-89.0,43.0,-234.0,0
1370,-82.0,41.0,-232.0,0
1371,-93.0,46.0,-229.0,0
1372,-88.0,44.0,-233.0,0
1373,-86.0,43.0,-231.0,0
1374,-87.0,43.0,-231.0,0
1375,-87.0,46.0,-228.0,0
1376,-87.0,44.0,-232.0,0
1377,-91.0,46.0,-231.0,0
1378,-88.0,46.0,-221.0,0
1379,-89.0,45.0,-232.0,0
1380,-88.0,42.0,-234.0,0
1381,-85.0,46.0,-230.0,0
1382,-88.0,40.0,-233.0,0
1383,-87.0,43.0,-231.0,0
1384,-87.0,43.0,-230.0,0
1385,-86.0,42.0,-230.0,0
1386,-87.0,43.0,-234.0,0
1387,-88.0,45.0,-230.0,0
1388,-88.0,40.0,-233.0,0
1389,-86.0,42.0,-229.0,0
1390,-83.0,40.0,-229.0,0
1391,-82.0,42.0,-230.0,0
1392,-87.0,46.0,-230.0,0
1393,-87.0,45.0,-232.0,0
1394,-87.0,42.0,-228.0,0
1395,-86.0,45.0,-229.0,0
1396,-84.0,44.0,-230.0,0
1397,-86.0,45.0,-227.0,0
1398,-87.0,46.0,-233.0,0
1399,-87.0,40.0,-228.0,0
1400,-86.0,47.0,-227.0,0
1401,-87.0,40.0,-230.0,0
1402,-84.0,43.0,-229.0,0
1403,-91.0,43.0,-227.0,0
1404,-87.0,44.0,-239.0,0
1405,-84.0,42.0,-229.0,0
1406,-88.0,45.0,-233.0,0
1407,-88.0,41.0,-234.0,0
1408,-89.0,47.0,-233.0,0
1409,-86.0,44.0,-235.0,0
1410,-88.0,46.0,-229.0,0
1411,-87.0,45.0,-230.0,0
1412,-83.0,41.0,-230.0,0
1413,-81.0,41.0,-236.0,0
1414,-96.0,39.0,-233.0,0
1415,-88.0,44.0,-230.0,0
1416,-84.0,44.0,-232.0,0
1417,-85.0,45.0,-231.0,0
1418,-88.0,48.0,-233.0,0
1419,-89.0,44.0,-232.0,0
1420,-85.0,44.0,-230.0,0
1421,-86.0,46.0,-228.0,0
1422,-85.0,43.0,-230.0,0
1423,-84.0,44.0,-227.0,0
1424,-83.0,45.0,-229.0,0
1425,-86.0,43.0,-231.0,0
1426,-85.0,44.0,-232.0,0
1427,-87.0,45.0,-230.0,0
1428,-87.0,46.0,-232.0,0
1429,-87.0,46.0,-231.0,0
1430,-85.0,45.0,-231.0,0
1431,-86.0,45.0,-231.0,0
1432,-85.0,42.0,-230.0,0
1433,-85.0,44.0,-231.0,0
1434,-85.0,43.0,-229.0,0
1435,-83.0,43.0,-230.0,0
1436,-82.0,48.0,-225.0,0
1437,-89.0,45.0,-231.0,0
1438,-85.0,41.0,-231.0,0
1439,-86.0,45.0,-230.0,0
1440,-87.0,45.0,-230.0,0
1441,-86.0,44.0,-230.0,0
1442,-87.0,44.0,-228.0,0
1443,-89.0,46.0,-230.0,0
1444,-81.0,44.0,-233.0,0
1445,-90.0,47.0,-231.0,0
1446,-88.0,43.0,-227.0,0
1447,-85.0,40.0,-230.0,0
1448,-83.0,41.0,-227.0,0
1449,-89.0,46.0,-232.0,0
1450,-85.0,43.0,-230.0,0
1451,-87.0,47.0,-230.0,0
1452,-85.0,43.0,-236.0,0
1453,-87.0,44.0,-233.0,0
1454,-84.0,41.0,-229.0,0
1455,-88.0,43.0,-230.0,0
1456,-86.0,41.0,-234.0,0
1457,-87.0,45.0,-234.0,0
1458,-92.0,39.0,-235.0,0
1459,-84.0,44.0,-231.0,0
1460,-87.0,46.0,-230.0,0
1461,-85.0,43.0,-234.0,0
1462,-86.0,46.0,-233.0,0
1463,-86.0,46.0,-231.0,0
1464,-84.0,45.0,-234.0,0
1465,-90.0,48.0,-233.0,0
1466,-85.0,44.0,-233.0,0
1467,-85.0,40.0,-233.0,0
1468,-87.0,42.0,-229.0,0
1469,-88.0,43.0,-236.0,0
1470,-87.0,43.0,-232.0,0
1471,-87.0,47.0,-227.0,0
1472,-87.0,47.0,-229.0,0
1473,-89.0,41.0,-232.0,0
1474,-85.0,43.0,-229.0,0
1475,-85.0,41.0,-229.0,0
1476,-83.0,39.0,-233.0,0
1477,-86.0,41.0,-228.0,0
1478,-90.0,44.0,-227.0,0
1479,-88.0,41.0,-235.0,0
1480,-89.0,45.0,-230.0,0
1481,-86.0,45.0,-230.0,0
1482,-89.0,44.0,-233.0,0
1483,-86.0,44.0,-233.0,0
1484,-85.0,44.0,-232.0,0
1485,-87.0,45.0,-232.0,0
1486,-85.0,42.0,-234.0,0
1487,-88.0,44.0,-235.0,0
1488,-85.0,44.0,-232.0,0
1489,-87.0,45.0,-232.0,0
1490,-87.0,47.0,-242.0,0
1491,-90.0,42.0,-230.0,0
1492,-85.0,44.0,-231.0,0
1493,-85.0,41.0,-231.0,0
1494,-88.0,45.0,-237.0,0
1495,-86.0,47.0,-231.0,0
1496,-83.0,46.0,-233.0,0
1497,-88.0,44.0,-232.0,0
1498,-86.0,45.0,-229.0,0
1499,-86.0,41.0,-229.0,0
1500,-88.0,45.0,-231.0,0
1501,-87.0,37.0,-230.0,0
1502,-87.0,45.0,-232.0,0
1503,-85.0,43.0,-234.0,0
1504,-86.0,43.0,-231.0,0
1505,-86.0,44.0,-228.0,0
1506,-86.0,40.0,-233.0,0
1507,-87.0,41.0,-232.0,0
1508,-82.0,46.0,-230.0,0
1509,-87.0,43.0,-231.0,0
1510,-86.0,46.0,-225.0,0
1511,-85.0,44.0,-236.0,0
1512,-86.0,47.0,-231.0,0
1513,-86.0,44.0,-230.0,0
1514,-86.0,46.0,-233.0,0
1515,-87.0,43.0,-228.0,0
1516,-85.0,43.0,-232.0,0
1517,-85.0,44.0,-231.0,0
1518,-87.0,47.0,-232.0,0
1519,-86.0,46.0,-230.0,0
1520,-87.0,44.0,-231.0,0
1521,-87.0,42.0,-233.0,0
1522,-85.0,45.0,-233.0,0
1523,-92.0,41.0,-236.0,0
1524,-85.0,45.0,-232.0,0
1525,-87.0,47.0,-231.0,0
1526,-88.0,43.0,-229.0,0
1527,-86.0,49.0,-231.0,0
1528,-85.0,43.0,-230.0,0
1529,-85.0,45.0,-228.0,0
1530,-84.0,43.0,-227.0,0
1531,-83.0,43.0,-227.0,0
1532,-86.0,45.0,-232.0,0
1533,-87.0,43.0,-232.0,0
1534,-86.0,37.0,-226.0,0
1535,-88.0,41.0,-229.0,0
1536,-89.0,44.0,-231.0,0
1537,-89.0,48.0,-233.0,0
1538,-85.0,44.0,-235.0,0
1539,-86.0,44.0,-229.0,0
1540,-87.0,45.0,-230.0,0
1541,-86.0,45.0,-232.0,0
1542,-87.0,42.0,-237.0,0
1543,-83.0,45.0,-231.0,0
1544,-87.0,43.0,-232.0,0
1545,-85.0,51.0,-242.0,0
1546,-85.0,45.0,-232.0,0
1547,-88.0,44.0,-229.0,0
1548,-84.0,40.0,-234.0,0
1549,-85.0,46.0,-230.0,0
1550,-85.0,43.0,-233.0,0
1551,-87.0,44.0,-231.0,0
1552,-84.0,42.0,-234.0,0
1553,-85.0,46.0,-233.0,0
1554,-85.0,48.0,-232.0,0
1555,-83.0,42.0,-231.0,0
1556,-80.0,39.0,-229.0,0
1557,-85.0,42.0,-229.0,0
1558,-84.0,43.0,-231.0,0
1559,-87.0,45.0,-231.0,0
1560,-88.0,47.0,-232.0,0
1561,-83.0,40.0,-227.0,0
1562,-86.0,44.0,-228.0,0
1563,-89.0,46.0,-233.0,0
1564,-84.0,43.0,-231.0,0
1565,-89.0,41.0,-228.0,0
1566,-85.0,42.0,-233.0,0
1567,-88.0,43.0,-234.0,0
1568,-84.0,45.0,-232.0,0
1569,-87.0,45.0,-230.0,0
1570,-87.0,45.0,-235.0,0
1571,-85.0,45.0,-232.0,0
1572,-86.0,45.0,-233.0,0
1573,-89.0,45.0,-230.0,0
1574,-88.0,44.0,-230.0,0
1575,-87.0,47.0,-233.0,0
1576,-86.0,45.0,-229.0,0
1577,-85.0,45.0,-229.0,0
1578,-85.0,44.0,-234.0,0
1579,-85.0,45.0,-231.0,0
1580,-85.0,43.0,-234.0,0
1581,-87.0,43.0,-231.0,0
1582,-89.0,45.0,-232.0,0
1583,-86.0,43.0,-231.0,0
1584,-89.0,47.0,-231.0,0
1585,-86.0,46.0,-227.0,0
1586,-86.0,44.0,-230.0,0
1587,-87.0,42.0,-236.0,0
1588,-85.0,43.0,-233.0,0
1589,-83.0,45.0,-226.0,0
1590,-87.0,43.0,-233.0,0
1591,-85.0,46.0,-228.0,0
1592,-88.0,47.0,-230.0,0
1593,-85.0,43.0,-229.0,0
1594,-85.0,45.0,-234.0,0
1595,-86.0,40.0,-232.0,0
1596,-87.0,43.0,-231.0,0
1597,-91.0,47.0,-228.0,0
1598,-89.0,44.0,-235.0,0
1599,-85.0,43.0,-215.0,0
1600,-87.0,43.0,-227.0,0
1601,-90.0,43.0,-233.0,0
1602,-84.0,46.0,-232.0,0
1603,-89.0,43.0,-231.0,0
1604,-87.0,45.0,-231.0,0
1605,-88.0,47.0,-233.0,0
1606,-86.0,44.0,-233.0,0
1607,-84.0,44.0,-231.0,0
1608,-88.0,43.0,-230.0,0
1609,-88.0,45.0,-236.0,0
1610,-94.0,46.0,-228.0,0
1611,-87.0,44.0,-232.0,0
1612,-87.0,43.0,-229.0,0
1613,-87.0,44.0,-230.0,0
1614,-85.0,44.0,-229.0,0
1615,-91.0,46.0,-231.0,0
1616,-86.0,43.0,-229.0,0
1617,-87.0,40.0,-234.0,0
1618,-90.0,45.0,-231.0,0
1619,-87.0,47.0,-229.0,0
1620,-86.0,42.0,-227.0,0
1621,-89.0,50.0,-230.0,0
1622,-86.0,42.0,-230.0,0
1623,-89.0,45.0,-233.0,0
1624,-86.0,43.0,-228.0,0
1625,-90.0,44.0,-235.0,0
1626,-85.0,45.0,-234.0,0
1627,-86.0,43.0,-236.0,0
1628,-88.0,45.0,-231.0,0
1629,-88.0,43.0,-230.0,0
1630,-87.0,47.0,-233.0,0
1631,-90.0,47.0,-230.0,0
1632,-86.0,43.0,-230.0,0
1633,-89.0,46.0,-231.0,0
1634,-89.0,45.0,-230.0,0
1635,-88.0,41.0,-227.0,0
1636,-89.0,45.0,-226.0,0
1637,-87.0,44.0,-231.0,0
1638,-87.0,43.0,-231.0,0
1639,-86.0,41.0,-228.0,0
1640,-85.0,46.0,-231.0,0
1641,-89.0,44.0,-233.0,0
1642,-93.0,46.0,-238.0,0
1643,-83.0,42.0,-234.0,0
1644,-88.0,43.0,-232.0,0
1645,-88.0,45.0,-227.0,0
1646,-86.0,46.0,-231.0,0
1647,-89.0,46.0,-230.0,0
1648,-87.0,41.0,-232.0,0
1649,-90.0,44.0,-228.0,0
1650,-90.0,45.0,-229.0,0
1651,-91.0,46.0,-230.0,0
1652,-87.0,42.0,-234.0,0
1653,-85.0,42.0,-234.0,0
1654,-90.0,43.0,-232.0,0
1655,-88.0,46.0,-231.0,0
1656,-90.0,42.0,-230.0,0
1657,-86.0,43.0,-228.0,0
1658,-88.0,44.0,-228.0,0
1659,-89.0,43.0,-227.0,0
1660,-88.0,44.0,-230.0,0
1661,-88.0,46.0,-232.0,0
1662,-86.0,44.0,-230.0,0
1663,-88.0,48.0,-232.0,0
1664,-84.0,41.0,-229.0,0
1665,-82.0,43.0,-225.0,0
1666,-85.0,43.0,-232.0,0
1667,-89.0,44.0,-230.0,0
1668,-91.0,46.0,-229.0,0
1669,-89.0,46.0,-227.0,0
1670,-87.0,43.0,-231.0,0
1671,-86.0,42.0,-228.0,0
1672,-86.0,44.0,-226.0,0
1673,-84.0,41.0,-230.0,0
1674,-91.0,49.0,-233.0,0
1675,-89.0,49.0,-228.0,0
1676,-86.0,37.0,-229.0,0
1677,-85.0,41.0,-232.0,0
1678,-87.0,44.0,-230.0,0
1679,-86.0,44.0,-231.0,0
1680,-87.0,45.0,-231.0,0
1681,-90.0,43.0,-231.0,0
1682,-85.0,45.0,-231.0,0
1683,-88.0,45.0,-229.0,0
1684,-87.0,43.0,-231.0,0
1685,-89.0,45.0,-226.0,0
1686,-89.0,43.0,-231.0,0
1687,-89.0,50.0,-235.0,0
1688,-87.0,42.0,-229.0,0
1689,-88.0,44.0,-231.0,0
1690,-87.0,45.0,-229.0,0
1691,-87.0,44.0,-230.0,0
1692,-89.0,44.0,-233.0,0
1693,-86.0,45.0,-231.0,0
1694,-90.0,45.0,-230.0,0
1695,-89.0,47.0,-233.0,0
1696,-87.0,46.0,-226.0,0
1697,-86.0,41.0,-232.0,0
1698,-90.0,47.0,-235.0,0
1699,-87.0,47.0,-233.0,0
1700,-88.0,44.0,-232.0,0
1701,-86.0,43.0,-226.0,0
1702,-89.0,45.0,-232.0,0
1703,-87.0,43.0,-231.0,0
1704,-89.0,45.0,-227.0,0
1705,-89.0,45.0,-232.0,0
1706,-88.0,42.0,-228.0,0
1707,-85.0,43.0,-228.0,0
1708,-92.0,39.0,-233.0,0
1709,-88.0,46.0,-232.0,0
1710,-91.0,45.0,-234.0,0
1711,-89.0,43.0,-232.0,0
1712,-88.0,45.0,-229.0,0
1713,-89.0,46.0,-227.0,0
1714,-89.0,44.0,-231.0,0
1715,-88.0,43.0,-231.0,0
1716,-89.0,46.0,-230.0,0
1717,-84.0,47.0,-223.0,0
1718,-85.0,47.0,-231.0,0
1719,-86.0,41.0,-227.0,0
1720,-89.0,44.0,-229.0,0
1721,-87.0,46.0,-231.0,0
1722,-88.0,46.0,-230.0,0
1723,-89.0,44.0,-229.0,0
1724,-87.0,47.0,-233.0,0
1725,-88.0,44.0,-234.0,0
1726,-85.0,44.0,-228.0,0
1727,-88.0,43.0,-229.0,0
1728,-89.0,49.0,-227.0,0
1729,-88.0,47.0,-235.0,0
1730,-86.0,40.0,-224.0,0
1731,-90.0,42.0,-234.0,0
1732,-85.0,45.0,-229.0,0
1733,-91.0,46.0,-231.0,0
1734,-88.0,43.0,-229.0,0
1735,-89.0,46.0,-227.0,0
1736,-86.0,45.0,-228.0,0
1737,-89.0,47.0,-233.0,0
1738,-87.0,46.0,-228.0,0
1739,-90.0,45.0,-231.0,0
1740,-90.0,44.0,-229.0,0
1741,-91.0,44.0,-231.0,0
1742,-86.0,44.0,-232.0,0
1743,-85.0,46.0,-231.0,0
1744,-86.0,46.0,-232.0,0
1745,-88.0,49.0,-227.0,0
1746,-89.0,47.0,-232.0,0
1747,-88.0,47.0,-231.0,0
1748,-88.0,41.0,-231.0,0
1749,-87.0,43.0,-232.0,0
1750,-91.0,43.0,-232.0,0
1751,-84.0,42.0,-228.0,0
1752,-85.0,42.0,-232.0,0
1753,-88.0,42.0,-230.0,0
1754,-89.0,46.0,-230.0,0
1755,-89.0,45.0,-230.0,0
1756,-88.0,45.0,-231.0,0
1757,-86.0,45.0,-231.0,0
1758,-90.0,50.0,-227.0,0
1759,-87.0,47.0,-229.0,0
1760,-88.0,47.0,-227.0,0
1761,-87.0,47.0,-235.0,0
1762,-88.0,44.0,-233.0,0
1763,-86.0,42.0,-230.0,0
1764,-90.0,45.0,-231.0,0
1765,-87.0,45.0,-232.0,0
1766,-85.0,43.0,-230.0,0
1767,-91.0,47.0,-230.0,0
1768,-89.0,44.0,-229.0,0
1769,-88.0,44.0,-236.0,0
1770,-84.0,47.0,-234.0,0
1771,-86.0,45.0,-230.0,0
1772,-90.0,45.0,-234.0,0
1773,-87.0,46.0,-235.0,0
1774,-89.0,44.0,-235.0,0
1775,-88.0,44.0,-228.0,0
1776,-88.0,44.0,-233.0,0
1777,-87.0,48.0,-232.0,0
1778,-90.0,46.0,-228.0,0
1779,-88.0,43.0,-231.0,0
1780,-87.0,43.0,-232.0,0
1781,-88.0,47.0,-234.0,0
1782,-89.0,51.0,-233.0,0
1783,-86.0,40.0,-232.0,0
1784,-87.0,47.0,-228.0,0
1785,-87.0,39.0,-226.0,0
1786,-90.0,45.0,-227.0,0
1787,-88.0,46.0,-230.0,0
1788,-88.0,45.0,-226.0,0
1789,-85.0,42.0,-229.0,0
1790,-85.0,43.0,-231.0,0
1791,-86.0,48.0,-234.0,0
1792,-85.0,44.0,-230.0,0
1793,-84.0,43.0,-232.0,0
1794,-89.0,47.0,-232.0,0
1795,-84.0,43.0,-232.0,0
1796,-85.0,43.0,-229.0,0
1797,-87.0,44.0,-229.0,0
1798,-88.0,44.0,-231.0,0
1799,-87.0,43.0,-232.0,0
1800,-86.0,42.0,-231.0,0
1801,-89.0,44.0,-228.0,0
1802,-87.0,40.0,-229.0,0
1803,-85.0,46.0,-228.0,0
1804,-90.0,47.0,-230.0,0
1805,-86.0,43.0,-227.0,0
1806,-95.0,47.0,-233.0,0
1807,-87.0,43.0,-228.0,0
1808,-90.0,45.0,-229.0,0
1809,-87.0,46.0,-226.0,0
1810,-89.0,45.0,-230.0,0
1811,-90.0,45.0,-231.0,0
1812,-87.0,45.0,-230.0,0
1813,-92.0,46.0,-230.0,0
1814,-88.0,47.0,-232.0,0
1815,-84.0,38.0,-233.0,0
1816,-87.0,43.0,-231.0,0
1817,-85.0,46.0,-238.0,0
1818,-89.0,44.0,-232.0,0
1819,-85.0,43.0,-230.0,0
1820,-86.0,43.0,-232.0,0
1821,-88.0,46.0,-228.0,0
1822,-88.0,44.0,-228.0,0
1823,-88.0,43.0,-230.0,0
1824,-88.0,48.0,-230.0,0
1825,-84.0,44.0,-226.0,0
1826,-89.0,46.0,-233.0,0
1827,-88.0,45.0,-228.0,0
1828,-94.0,46.0,-236.0,0
1829,-86.0,43.0,-228.0,0
1830,-87.0,44.0,-229.0,0
1831,-89.0,43.0,-229.0,0
1832,-89.0,43.0,-229.0,0
1833,-87.0,45.0,-228.0,0
1834,-85.0,46.0,-232.0,0
1835,-85.0,44.0,-232.0,0
1836,-87.0,44.0,-234.0,0
1837,-88.0,47.0,-231.0,0
1838,-87.0,45.0,-227.0,0
1839,-87.0,43.0,-230.0,0
1840,-87.0,43.0,-232.0,0
1841,-87.0,44.0,-229.0,0
1842,-89.0,43.0,-229.0,0
1843,-89.0,42.0,-230.0,0
1844,-89.0,45.0,-233.0,0
1845,-89.0,47.0,-229.0,0
1846,-88.0,44.0,-233.0,0
1847,-88.0,44.0,-230.0,0
1848,-88.0,43.0,-228.0,0
1849,-84.0,46.0,-228.0,0
1850,-88.0,49.0,-220.0,0
1851,-90.0,48.0,-231.0,0
1852,-88.0,46.0,-231.0,0
1853,-87.0,45.0,-230.0,0
1854,-89.0,46.0,-232.0,0
1855,-87.0,45.0,-229.0,0
1856,-85.0,45.0,-230.0,0
1857,-86.0,44.0,-225.0,0
1858,-86.0,43.0,-231.0,0
1859,-83.0,43.0,-225.0,0
1860,-85.0,44.0,-228.0,0
1861,-86.0,47.0,-232.0,0
1862,-86.0,44.0,-232.0,0
1863,-85.0,47.0,-232.0,0
1864,-87.0,44.0,-232.0,0
1865,-85.0,45.0,-229.0,0
1866,-85.0,44.0,-229.0,0
1867,-87.0,44.0,-230.0,0
1868,-85.0,43.0,-236.0,0
1869,-84.0,45.0,-228.0,0
1870,-84.0,43.0,-224.0,0
1871,-88.0,42.0,-232.0,0
1872,-88.0,45.0,-227.0,0
1873,-88.0,43.0,-231.0,0
1874,-84.0,45.0,-232.0,0
1875,-86.0,45.0,-231.0,0
1876,-86.0,43.0,-229.0,0
1877,-87.0,46.0,-231.0,0
1878,-84.0,42.0,-229.0,0
1879,-86.0,47.0,-233.0,0
1880,-86.0,43.0,-230.0,0
1881,-87.0,42.0,-225.0,0
1882,-86.0,45.0,-230.0,0
1883,-86.0,35.0,-235.0,0
1884,-87.0,48.0,-232.0,0
1885,-89.0,47.0,-231.0,0
1886,-86.0,46.0,-226.0,0
1887,-87.0,48.0,-232.0,0
1888,-88.0,43.0,-231.0,0
1889,-89.0,47.0,-231.0,0
1890,-89.0,46.0,-233.0,0
1891,-85.0,43.0,-233.0,0
1892,-87.0,43.0,-234.0,0
1893,-86.0,45.0,-226.0,0
1894,-89.0,41.0,-234.0,0
1895,-86.0,44.0,-231.0,0
1896,-83.0,43.0,-230.0,0
1897,-86.0,46.0,-234.0,0
1898,-89.0,46.0,-232.0,0
1899,-88.0,46.0,-231.0,0
1900,-84.0,43.0,-232.0,0
1901,-83.0,48.0,-233.0,0
1902,-84.0,46.0,-229.0,0
1903,-90.0,46.0,-228.0,0
1904,-85.0,45.0,-230.0,0
1905,-83.0,48.0,-231.0,0
1906,-86.0,47.0,-229.0,0
1907,-87.0,43.0,-232.0,0
1908,-86.0,45.0,-231.0,0
1909,-88.0,46.0,-228.0,0
1910,-86.0,45.0,-232.0,0
1911,-85.0,44.0,-229.0,0
1912,-88.0,44.0,-227.0,0
1913,-84.0,45.0,-230.0,0
1914,-89.0,47.0,-229.0,0
1915,-88.0,43.0,-235.0,0
1916,-87.0,44.0,-230.0,0
1917,-85.0,45.0,-229.0,0
1918,-85.0,46.0,-236.0,0
1919,-82.0,42.0,-232.0,0
1920,-84.0,45.0,-232.0,0
1921,-85.0,46.0,-235.0,0
1922,-86.0,43.0,-231.0,0
1923,-86.0,46.0,-234.0,0
1924,-81.0,41.0,-232.0,0
1925,-86.0,44.0,-236.0,0
1926,-84.0,42.0,-223.0,0
1927,-83.0,44.0,-232.0,0
1928,-86.0,43.0,-233.0,0
1929,-88.0,44.0,-234.0,0
1930,-88.0,47.0,-234.0,0
1931,-85.0,44.0,-236.0,0
1932,-87.0,46.0,-229.0,0
1933,-87.0,42.0,-238.0,0
1934,-87.0,45.0,-233.0,0
1935,-82.0,39.0,-229.0,0
1936,-86.0,45.0,-226.0,0
1937,-88.0,45.0,-232.0,0
1938,-85.0,47.0,-230.0,0
1939,-87.0,43.0,-233.0,0
1940,-86.0,44.0,-230.0,0
1941,-84.0,44.0,-231.0,0
1942,-85.0,45.0,-232.0,0
1943,-88.0,45.0,-230.0,0
1944,-85.0,45.0,-230.0,0
1945,-86.0,42.0,-227.0,0
1946,-88.0,46.0,-228.0,0
1947,-82.0,40.0,-234.0,0
1948,-89.0,40.0,-234.0,0
1949,-87.0,45.0,-229.0,0
1950,-84.0,44.0,-232.0,0
1951,-84.0,45.0,-231.0,0
1952,-86.0,44.0,-234.0,0
1953,-84.0,42.0,-228.0,0
1954,-84.0,44.0,-234.0,0
1955,-84.0,42.0,-229.0,0
1956,-84.0,45.0,-230.0,0
1957,-86.0,47.0,-228.0,0
1958,-87.0,46.0,-235.0,0
1959,-84.0,39.0,-233.0,0
1960,-86.0,41.0,-221.0,0
1961,-86.0,46.0,-234.0,0
1962,-86.0,44.0,-235.0,0
1963,-86.0,47.0,-233.0,0
1964,-87.0,43.0,-231.0,0
1965,-84.0,44.0,-231.0,0
1966,-85.0,42.0,-234.0,0
1967,-86.0,45.0,-231.0,0
1968,-87.0,45.0,-231.0,0
1969,-85.0,44.0,-229.0,0
1970,-81.0,42.0,-234.0,0
1971,-90.0,45.0,-234.0,0
1972,-86.0,43.0,-232.0,0
1973,-85.0,42.0,-233.0,0
1974,-84.0,45.0,-229.0,0
1975,-86.0,46.0,-232.0,0
1976,-85.0,44.0,-231.0,0
1977,-84.0,46.0,-230.0,0
1978,-90.0,48.0,-229.0,0
1979,-83.0,41.0,-228.0,0
1980,-87.0,46.0,-228.0,0
1981,-90.0,40.0,-232.0,0
1982,-87.0,45.0,-229.0,0
1983,-86.0,44.0,-232.0,0
1984,-85.0,42.0,-231.0,0
1985,-86.0,45.0,-232.0,0
1986,-87.0,44.0,-237.0,0
1987,-86.0,45.0,-230.0,0
1988,-88.0,47.0,-228.0,0
1989,-86.0,44.0,-233.0,0
1990,-86.0,43.0,-232.0,0
1991,-84.0,47.0,-228.0,0
1992,-88.0,43.0,-234.0,0
1993,-86.0,43.0,-231.0,0
1994,-86.0,46.0,-230.0,0
1995,-87.0,47.0,-231.0,0
1996,-83.0,42.0,-228.0,0
1997,-85.0,47.0,-230.0,0
1998,-87.0,47.0,-233.0,0
1999,-82.0,45.0,-232.0,0
2000,-89.0,50.0,-233.0,0
2001,-83.0,43.0,-232.0,0
2002,-84.0,42.0,-230.0,0
2003,-88.0,52.0,-240.0,0
2004,-85.0,43.0,-229.0,0
2005,-84.0,44.0,-230.0,0
2006,-87.0,47.0,-230.0,0
2007,-85.0,45.0,-232.0,0
2008,-85.0,43.0,-232.0,0
2009,-89.0,47.0,-234.0,0
2010,-87.0,46.0,-233.0,0
2011,-88.0,44.0,-230.0,0
2012,-86.0,47.0,-230.0,0
2013,-88.0,40.0,-225.0,0
2014,-84.0,44.0,-234.0,0
2015,-88.0,46.0,-230.0,0
2016,-89.0,42.0,-234.0,0
2017,-87.0,45.0,-229.0,0
2018,-87.0,42.0,-233.0,0
2019,-84.0,42.0,-233.0,0
2020,-88.0,45.0,-230.0,0
2021,-82.0,46.0,-226.0,0
2022,-86.0,44.0,-234.0,0
2023,-82.0,44.0,-231.0,0
2024,-86.0,39.0,-237.0,0
2025,-86.0,45.0,-230.0,0
2026,-84.0,45.0,-231.0,0
2027,-84.0,43.0,-232.0,0
2028,-86.0,45.0,-230.0,0
2029,-84.0,45.0,-233.0,0
2030,-86.0,44.0,-233.0,0
2031,-85.0,47.0,-233.0,0
2032,-84.0,42.0,-233.0,0
2033,-83.0,42.0,-231.0,0
2034,-83.0,47.0,-233.0,0
2035,-92.0,39.0,-230.0,0
2036,-83.0,44.0,-231.0,0
2037,-85.0,47.0,-233.0,0
2038,-84.0,42.0,-235.0,0
2039,-89.0,45.0,-233.0,0
2040,-86.0,47.0,-232.0,0
2041,-84.0,46.0,-233.0,0
2042,-83.0,41.0,-229.0,0
2043,-87.0,48.0,-230.0,0
2044,-82.0,45.0,-238.0,0
2045,-87.0,44.0,-234.0,0
2046,-84.0,43.0,-234.0,0
2047,-87.0,45.0,-233.0,0
2048,-86.0,46.0,-229.0,0
2049,-86.0,42.0,-227.0,0
2050,-86.0,47.0,-229.0,0
2051,-87.0,46.0,-226.0,0
2052,-84.0,44.0,-230.0,0
2053,-90.0,50.0,-229.0,0
2054,-81.0,44.0,-228.0,0
2055,-88.0,45.0,-227.0,0
2056,-84.0,44.0,-226.0,0
2057,-89.0,42.0,-229.0,0
2058,-84.0,44.0,-231.0,0
2059,-85.0,45.0,-231.0,0
2060,-85.0,47.0,-233.0,0
2061,-87.0,42.0,-233.0,0
2062,-84.0,43.0,-230.0,0
2063,-85.0,46.0,-232.0,0
2064,-83.0,47.0,-228.0,0
2065,-87.0,44.0,-230.0,0
2066,-88.0,45.0,-233.0,0
2067,-84.0,45.0,-232.0,0
2068,-88.0,44.0,-230.0,0
2069,-87.0,46.0,-231.0,0
2070,-84.0,44.0,-233.0,0
2071,-90.0,45.0,-232.0,0
2072,-86.0,43.0,-230.0,0
2073,-85.0,42.0,-232.0,0
2074,-87.0,45.0,-235.0,0
2075,-89.0,47.0,-236.0,0
2076,-85.0,42.0,-229.0,0
2077,-85.0,44.0,-227.0,0
2078,-84.0,42.0,-231.0,0
2079,-90.0,45.0,-235.0,0
2080,-85.0,41.0,-234.0,0
2081,-86.0,44.0,-235.0,0
2082,-84.0,48.0,-230.0,0
2083,-87.0,45.0,-231.0,0
2084,-85.0,44.0,-227.0,0
2085,-88.0,45.0,-232.0,0
2086,-84.0,44.0,-228.0,0
2087,-88.0,46.0,-228.0,0
2088,-84.0,47.0,-225.0,0
2089,-81.0,44.0,-227.0,0
2090,-84.0,45.0,-229.0,0
2091,-84.0,43.0,-228.0,0
2092,-87.0,47.0,-230.0,0
2093,-87.0,44.0,-232.0,0
2094,-87.0,45.0,-232.0,0
2095,-87.0,46.0,-232.0,0
2096,-86.0,46.0,-227.0,0
2097,-84.0,45.0,-231.0,0
2098,-89.0,45.0,-235.0,0
2099,-86.0,41.0,-234.0,0
2100,-88.0,44.0,-228.0,0
2101,-82.0,48.0,-228.0,0
2102,-89.0,39.0,-231.0,0
2103,-84.0,46.0,-229.0,0
2104,-86.0,44.0,-230.0,0
2105,-85.0,42.0,-232.0,0
2106,-88.0,45.0,-231.0,0
2107,-87.0,43.0,-231.0,0
2108,-86.0,46.0,-231.0,0
2109,-87.0,46.0,-231.0,0
2110,-86.0,42.0,-229.0,0
2111,-88.0,43.0,-230.0,0
2112,-86.0,43.0,-231.0,0
2113,-85.0,45.0,-229.0,0
2114,-84.0,43.0,-228.0,0
2115,-85.0,45.0,-231.0,0
2116,-87.0,47.0,-232.0,0
2117,-86.0,46.0,-233.0,0
2118,-85.0,46.0,-234.0,0
2119,-86.0,47.0,-234.0,0
2120,-82.0,41.0,-236.0,0
2121,-80.0,46.0,-230.0,0
2122,-90.0,47.0,-235.0,0
2123,-88.0,45.0,-231.0,0
2124,-83.0,43.0,-231.0,0
2125,-87.0,46.0,-233.0,0
2126,-86.0,43.0,-229.0,0
2127,-88.0,47.0,-232.0,0
2128,-85.0,41.0,-229.0,0
2129,-88.0,48.0,-233.0,0
2130,-83.0,41.0,-228.0,0
2131,-87.0,41.0,-230.0,0
2132,-85.0,48.0,-231.0,0
2133,-85.0,43.0,-230.0,0
2134,-88.0,48.0,-233.0,0
2135,-87.0,48.0,-230.0,0
2136,-87.0,45.0,-232.0,0
2137,-84.0,45.0,-230.0,0
2138,-89.0,51.0,-234.0,0
2139,-86.0,46.0,-228.0,0
2140,-84.0,45.0,-233.0,0
2141,-84.0,45.0,-231.0,0
2142,-86.0,44.0,-232.0,0
2143,-85.0,43.0,-230.0,0
2144,-84.0,42.0,-223.0,0
2145,-87.0,45.0,-232.0,0
2146,-81.0,42.0,-232.0,0
2147,-84.0,44.0,-232.0,0
2148,-83.0,46.0,-235.0,0
2149,-82.0,43.0,-229.0,0
2150,-84.0,42.0,-232.0,0
2151,-87.0,46.0,-237.0,0
2152,-84.0,42.0,-229.0,0
2153,-91.0,44.0,-233.0,0
2154,-86.0,47.0,-225.0,0
2155,-84.0,39.0,-233.0,0
2156,-86.0,42.0,-235.0,0
2157,-86.0,45.0,-233.0,0
2158,-86.0,43.0,-232.0,0
2159,-85.0,43.0,-231.0,0
2160,-84.0,43.0,-236.0,0
2161,-87.0,44.0,-235.0,0
2162,-89.0,44.0,-228.0,0
2163,-84.0,46.0,-231.0,0
2164,-88.0,48.0,-232.0,0
2165,-84.0,41.0,-229.0,0
2166,-92.0,48.0,-236.0,0
2167,-85.0,45.0,-226.0,0
2168,-84.0,43.0,-226.0,0
2169,-87.0,44.0,-231.0,0
2170,-85.0,43.0,-230.0,0
2171,-87.0,44.0,-236.0,0
2172,-84.0,42.0,-229.0,0
2173,-90.0,47.0,-233.0,0
2174,-83.0,42.0,-234.0,0
2175,-86.0,46.0,-232.0,0
2176,-89.0,47.0,-232.0,0
2177,-89.0,49.0,-227.0,0
2178,-91.0,46.0,-230.0,0
2179,-85.0,45.0,-228.0,0
2180,-85.0,43.0,-230.0,0
2181,-87.0,44.0,-231.0,0
2182,-86.0,45.0,-235.0,0
2183,-88.0,45.0,-236.0,0
2184,-84.0,42.0,-230.0,0
2185,-85.0,45.0,-234.0,0
2186,-87.0,43.0,-234.0,0
2187,-84.0,44.0,-233.0,0
2188,-89.0,44.0,-229.0,0
2189,-88.0,48.0,-229.0,0
2190,-85.0,45.0,-233.0,0
2191,-85.0,44.0,-232.0,0
2192,-86.0,42.0,-232.0,0
2193,-86.0,43.0,-229.0,0
2194,-86.0,43.0,-234.0,0
2195,-86.0,40.0,-230.0,0
2196,-89.0,40.0,-232.0,0
2197,-87.0,40.0,-231.0,0
2198,-84.0,45.0,-233.0,0
2199,-82.0,47.0,-223.0,0
2200,-86.0,44.0,-230.0,0
2201,-85.0,44.0,-230.0,0
2202,-85.0,46.0,-229.0,0
2203,-87.0,44.0,-231.0,0
2204,-84.0,43.0,-230.0,0
2205,-86.0,45.0,-228.0,0
2206,-87.0,47.0,-228.0,0
2207,-90.0,45.0,-231.0,0
2208,-88.0,47.0,-228.0,0
2209,-85.0,42.0,-229.0,0
2210,-82.0,40.0,-226.0,0
2211,-88.0,44.0,-231.0,0
2212,-82.0,41.0,-231.0,0
2213,-88.0,45.0,-232.0,0
2214,-87.0,44.0,-230.0,0
2215,-86.0,43.0,-234.0,0
2216,-84.0,46.0,-233.0,0
2217,-83.0,46.0,-231.0,0
2218,-81.0,44.0,-233.0,0
2219,-84.0,42.0,-228.0,0
2220,-87.0,51.0,-228.0,0
2221,-84.0,44.0,-235.0,0
2222,-88.0,45.0,-234.0,0
2223,-86.0,43.0,-228.0,0
2224,-87.0,43.0,-229.0,0
2225,-86.0,46.0,-231.0,0
2226,-85.0,45.0,-235.0,0
2227,-86.0,45.0,-229.0,0
2228,-87.0,47.0,-228.0,0
2229,-89.0,42.0,-233.0,0
2230,-88.0,42.0,-237.0,0
2231,-87.0,46.0,-229.0,0
2232,-87.0,45.0,-231.0,0
2233,-87.0,43.0,-231.0,0
2234,-82.0,42.0,-232.0,0
2235,-84.0,46.0,-231.0,0
2236,-86.0,44.0,-233.0,0
2237,-84.0,45.0,-230.0,0
2238,-83.0,43.0,-232.0,0
2239,-89.0,47.0,-233.0,0
2240,-85.0,44.0,-232.0,0
2241,-88.0,45.0,-227.0,0
2242,-86.0,41.0,-232.0,0
2243,-88.0,45.0,-238.0,0
2244,-88.0,46.0,-231.0,0
2245,-89.0,44.0,-234.0,0
2246,-87.0,44.0,-233.0,0
2247,-85.0,44.0,-233.0,0
2248,-87.0,45.0,-231.0,0
2249,-91.0,44.0,-234.0,0
2250,-84.0,42.0,-229.0,0
2251,-83.0,41.0,-232.0,0
2252,-87.0,45.0,-235.0,0
2253,-86.0,44.0,-231.0,0
2254,-86.0,44.0,-228.0,0
2255,-88.0,43.0,-227.0,0
2256,-86.0,44.0,-227.0,0
2257,-88.0,42.0,-228.0,0
2258,-86.0,47.0,-230.0,0
2259,-88.0,43.0,-231.0,0
2260,-86.0,42.0,-229.0,0
2261,-84.0,42.0,-225.0,0
2262,-88.0,46.0,-229.0,0
2263,-81.0,41.0,-233.0,0
2264,-93.0,43.0,-232.0,0
2265,-85.0,42.0,-234.0,0
2266,-87.0,47.0,-231.0,0
2267,-84.0,45.0,-232.0,0
2268,-86.0,44.0,-228.0,0
2269,-84.0,46.0,-230.0,0
2270,-85.0,44.0,-232.0,0
2271,-84.0,43.0,-235.0,0
2272,-86.0,47.0,-226.0,0
2273,-90.0,46.0,-231.0,0
2274,-87.0,44.0,-233.0,0
2275,-89.0,48.0,-233.0,0
2276,-86.0,44.0,-228.0,0
2277,-87.0,46.0,-232.0,0
2278,-87.0,43.0,-232.0,0
2279,-89.0,45.0,-231.0,0
2280,-87.0,46.0,-230.0,0
2281,-87.0,43.0,-233.0,0
2282,-86.0,41.0,-232.0,0
2283,-86.0,42.0,-234.0,0
2284,-86.0,45.0,-231.0,0
2285,-85.0,47.0,-230.0,0
2286,-89.0,47.0,-238.0,0
2287,-88.0,44.0,-233.0,0
2288,-85.0,43.0,-228.0,0
2289,-86.0,47.0,-229.0,0
2290,-84.0,44.0,-230.0,0
2291,-85.0,45.0,-232.0,0
2292,-84.0,45.0,-231.0,0
2293,-84.0,43.0,-229.0,0
2294,-84.0,45.0,-229.0,0
2295,-84.0,46.0,-232.0,0
2296,-84.0,41.0,-230.0,0
2297,-88.0,47.0,-228.0,0
2298,-87.0,44.0,-230.0,0
2299,-87.0,47.0,-232.0,0
2300,-85.0,42.0,-233.0,0
2301,-86.0,46.0,-229.0,0
2302,-87.0,45.0,-232.0,0
2303,-89.0,44.0,-232.0,0
2304,-85.0,41.0,-232.0,0
2305,-86.0,46.0,-232.0,0
2306,-86.0,44.0,-231.0,0
2307,-86.0,46.0,-230.0,0
2308,-88.0,44.0,-229.0,0
2309,-84.0,44.0,-232.0,0
2310,-86.0,46.0,-234.0,0
2311,-86.0,47.0,-232.0,0
2312,-84.0,42.0,-232.0,0
2313,-85.0,43.0,-233.0,0
2314,-85.0,42.0,-231.0,0
2315,-88.0,46.0,-231.0,0
2316,-85.0,40.0,-232.0,0
2317,-84.0,43.0,-230.0,0
2318,-86.0,42.0,-235.0,0
2319,-86.0,42.0,-231.0,0
2320,-87.0,46.0,-232.0,0
2321,-84.0,45.0,-229.0,0
2322,-86.0,44.0,-230.0,0
2323,-84.0,44.0,-229.0,0
2324,-89.0,46.0,-234.0,0
2325,-87.0,44.0,-232.0,0
2326,-85.0,41.0,-231.0,0
2327,-87.0,47.0,-232.0,0
2328,-87.0,46.0,-231.0,0
2329,-80.0,49.0,-230.0,0
2330,-88.0,44.0,-230.0,0
2331,-85.0,48.0,-229.0,0
2332,-87.0,47.0,-226.0,0
2333,-88.0,45.0,-229.0,0
2334,-86.0,43.0,-230.0,0
2335,-87.0,45.0,-229.0,0
2336,-83.0,41.0,-230.0,0
2337,-82.0,42.0,-232.0,0
2338,-85.0,42.0,-229.0,0
2339,-89.0,48.0,-242.0,0
2340,-86.0,46.0,-225.0,0
2341,-85.0,43.0,-231.0,0
2342,-85.0,44.0,-231.0,0
2343,-85.0,45.0,-229.0,0
2344,-86.0,41.0,-228.0,0
2345,-85.0,45.0,-233.0,0
2346,-87.0,42.0,-232.0,0
2347,-88.0,46.0,-234.0,0
2348,-86.0,50.0,-231.0,0
2349,-87.0,44.0,-227.0,0
2350,-88.0,43.0,-230.0,0
2351,-90.0,42.0,-230.0,0
2352,-87.0,47.0,-229.0,0
2353,-86.0,43.0,-234.0,0
2354,-85.0,43.0,-230.0,0
2355,-85.0,44.0,-231.0,0
2356,-84.0,46.0,-233.0,0
2357,-83.0,44.0,-230.0,0
2358,-86.0,43.0,-229.0,0
2359,-85.0,40.0,-226.0,0
2360,-86.0,45.0,-234.0,0
2361,-87.0,45.0,-231.0,0
2362,-86.0,44.0,-231.0,0
2363,-85.0,41.0,-229.0,0
2364,-87.0,47.0,-232.0,0
2365,-86.0,42.0,-230.0,0
2366,-85.0,44.0,-232.0,0
2367,-87.0,46.0,-232.0,0
2368,-87.0,46.0,-234.0,0
2369,-88.0,47.0,-230.0,0
2370,-90.0,49.0,-234.0,0
2371,-88.0,47.0,-229.0,0
2372,-86.0,44.0,-234.0,0
2373,-89.0,38.0,-234.0,0
2374,-91.0,48.0,-235.0,0
2375,-88.0,43.0,-230.0,0
2376,-88.0,44.0,-230.0,0
2377,-89.0,48.0,-233.0,0
2378,-87.0,44.0,-230.0,0
2379,-88.0,45.0,-229.0,0
2380,-86.0,43.0,-230.0,0
2381,-85.0,44.0,-230.0,0
2382,-80.0,46.0,-227.0,0
2383,-84.0,42.0,-225.0,0
2384,-89.0,45.0,-232.0,0
2385,-85.0,44.0,-232.0,0
2386,-86.0,46.0,-229.0,0
2387,-88.0,44.0,-229.0,0
2388,-89.0,45.0,-231.0,0
2389,-86.0,45.0,-235.0,0
2390,-87.0,42.0,-231.0,0
2391,-82.0,41.0,-229.0,0
2392,-88.0,47.0,-227.0,0
2393,-82.0,40.0,-229.0,0
2394,-84.0,46.0,-230.0,0
2395,-83.0,41.0,-227.0,0
2396,-84.0,44.0,-229.0,0
2397,-86.0,48.0,-232.0,0
2398,-85.0,46.0,-231.0,0
2399,-85.0,41.0,-232.0,0
2400,-83.0,43.0,-234.0,0
2401,-87.0,44.0,-229.0,0
2402,-89.0,45.0,-236.0,0
2403,-88.0,48.0,-231.0,0
2404,-86.0,45.0,-232.0,0
2405,-88.0,46.0,-228.0,0
2406,-80.0,43.0,-239.0,0
2407,-86.0,46.0,-230.0,0
2408,-88.0,45.0,-225.0,0
2409,-87.0,44.0,-232.0,0
2410,-87.0,45.0,-227.0,0
2411,-85.0,44.0,-228.0,0
2412,-89.0,47.0,-234.0,0
2413,-90.0,45.0,-230.0,0
2414,-84.0,45.0,-230.0,0
2415,-85.0,42.0,-229.0,0
2416,-87.0,45.0,-229.0,0
2417,-86.0,37.0,-234.0,0
2418,-88.0,45.0,-232.0,0
2419,-85.0,43.0,-232.0,0
2420,-84.0,44.0,-229.0,0
2421,-84.0,44.0,-231.0,0
2422,-85.0,43.0,-236.0,0
2423,-86.0,45.0,-232.0,0
2424,-85.0,43.0,-233.0,0
2425,-80.0,43.0,-234.0,0
2426,-84.0,43.0,-232.0,0
2427,-79.0,48.0,-236.0,0
2428,-85.0,45.0,-233.0,0
2429,-85.0,43.0,-227.0,0
2430,-84.0,43.0,-227.0,0
2431,-88.0,47.0,-231.0,0
2432,-88.0,43.0,-232.0,0
2433,-87.0,44.0,-230.0,0
2434,-85.0,45.0,-232.0,0
2435,-84.0,45.0,-232.0,0
2436,-86.0,45.0,-229.0,0
2437,-83.0,42.0,-227.0,0
2438,-85.0,45.0,-232.0,0
2439,-88.0,44.0,-230.0,0
2440,-88.0,47.0,-229.0,0
2441,-88.0,44.0,-231.0,0
2442,-87.0,44.0,-231.0,0
2443,-88.0,46.0,-227.0,0
2444,-86.0,46.0,-231.0,0
2445,-87.0,45.0,-230.0,0
2446,-83.0,49.0,-231.0,0
2447,-90.0,44.0,-229.0,0
2448,-87.0,42.0,-235.0,0
2449,-88.0,52.0,-238.0,0
2450,-85.0,41.0,-231.0,0
2451,-89.0,45.0,-230.0,0
2452,-86.0,41.0,-230.0,0
2453,-88.0,44.0,-232.0,0
2454,-84.0,43.0,-234.0,0
2455,-86.0,45.0,-233.0,0
2456,-87.0,44.0,-228.0,0
2457,-86.0,42.0,-228.0,0
2458,-87.0,46.0,-232.0,0
2459,-86.0,41.0,-226.0,0
2460,-89.0,45.0,-236.0,0
2461,-86.0,45.0,-233.0,0
2462,-89.0,43.0,-233.0,0
2463,-88.0,45.0,-232.0,0
2464,-86.0,44.0,-234.0,0
2465,-87.0,44.0,-228.0,0
2466,-87.0,48.0,-229.0,0
2467,-90.0,44.0,-232.0,0
2468,-85.0,47.0,-227.0,0
2469,-91.0,44.0,-227.0,0
2470,-91.0,47.0,-228.0,0
2471,-92.0,44.0,-232.0,0
2472,-88.0,45.0,-231.0,0
2473,-87.0,45.0,-230.0,0
2474,-86.0,43.0,-229.0,0
2475,-87.0,41.0,-233.0,0
2476,-86.0,44.0,-226.0,0
2477,-88.0,45.0,-231.0,0
2478,-90.0,46.0,-231.0,0
2479,-85.0,43.0,-230.0,0
2480,-88.0,45.0,-230.0,0
2481,-82.0,45.0,-229.0,0
2482,-86.0,38.0,-229.0,0
2483,-85.0,43.0,-233.0,0
2484,-85.0,41.0,-228.0,0
2485,-88.0,44.0,-232.0,0
2486,-86.0,48.0,-233.0,0
2487,-88.0,44.0,-232.0,0
2488,-86.0,46.0,-233.0,0
2489,-88.0,45.0,-228.0,0
2490,-87.0,46.0,-232.0,0
2491,-86.0,45.0,-230.0,0
2492,-87.0,46.0,-226.0,0
2493,-87.0,39.0,-236.0,0
2494,-87.0,43.0,-233.0,0
2495,-86.0,46.0,-233.0,0
2496,-87.0,44.0,-231.0,0
2497,-85.0,45.0,-235.0,0
2498,-88.0,45.0,-234.0,0
2499,-85.0,44.0,-232.0,0
2500,-86.0,41.0,-231.0,0
2501,-87.0,42.0,-235.0,0
2502,-90.0,44.0,-233.0,0
2503,-86.0,42.0,-230.0,0
2504,-85.0,40.0,-229.0,0
2505,-86.0,44.0,-231.0,0
2506,-85.0,44.0,-229.0,0
2507,-86.0,41.0,-228.0,0
2508,-87.0,44.0,-231.0,0
2509,-87.0,48.0,-227.0,0
2510,-90.0,43.0,-232.0,0
2511,-87.0,43.0,-228.0,0
2512,-87.0,44.0,-229.0,0
2513,-85.0,46.0,-229.0,0
2514,-89.0,46.0,-231.0,0
2515,-87.0,41.0,-229.0,0
2516,-88.0,43.0,-231.0,0
2517,-86.0,44.0,-231.0,0
2518,-85.0,43.0,-233.0,0
2519,-89.0,47.0,-231.0,0
2520,-86.0,43.0,-232.0,0
2521,-87.0,44.0,-230.0,0
2522,-90.0,48.0,-225.0,0
2523,-90.0,44.0,-232.0,0
2524,-87.0,49.0,-228.0,0
2525,-88.0,43.0,-239.0,0
2526,-89.0,44.0,-237.0,0
2527,-86.0,45.0,-230.0,0
2528,-86.0,43.0,-229.0,0
2529,-82.0,44.0,-231.0,0
2530,-86.0,45.0,-231.0,0
2531,-86.0,45.0,-231.0,0
2532,-85.0,44.0,-238.0,0
2533,-87.0,45.0,-232.0,0
2534,-81.0,40.0,-231.0,0
2535,-89.0,44.0,-227.0,0
2536,-88.0,40.0,-230.0,0
2537,-88.0,43.0,-232.0,0
2538,-88.0,47.0,-232.0,0
2539,-86.0,47.0,-231.0,0
2540,-90.0,44.0,-229.0,0
2541,-88.0,47.0,-232.0,0
2542,-84.0,45.0,-229.0,0
2543,-86.0,44.0,-229.0,0
2544,-90.0,51.0,-234.0,0
2545,-88.0,45.0,-227.0,0
2546,-90.0,48.0,-232.0,0
2547,-86.0,40.0,-231.0,0
2548,-88.0,45.0,-230.0,0
2549,-86.0,44.0,-233.0,0
2550,-89.0,47.0,-230.0,0
2551,-88.0,48.0,-229.0,0
2552,-87.0,43.0,-231.0,0
2553,-85.0,44.0,-229.0,0
2554,-86.0,44.0,-227.0,0
2555,-88.0,43.0,-227.0,0
2556,-85.0,37.0,-232.0,0
2557,-86.0,45.0,-235.0,0
2558,-91.0,45.0,-226.0,0
2559,-86.0,46.0,-229.0,0
2560,-87.0,45.0,-232.0,0
2561,-86.0,42.0,-234.0,0
2562,-88.0,44.0,-226.0,0
2563,-87.0,42.0,-230.0,0
2564,-87.0,44.0,-229.0,0
2565,-87.0,45.0,-229.0,0
2566,-84.0,43.0,-233.0,0
2567,-88.0,46.0,-228.0,0
2568,-80.0,46.0,-230.0,0
2569,-91.0,50.0,-234.0,0
2570,-87.0,42.0,-233.0,0
2571,-86.0,47.0,-230.0,0
2572,-89.0,42.0,-229.0,0
2573,-88.0,46.0,-227.0,0
2574,-85.0,41.0,-229.0,0
2575,-87.0,44.0,-227.0,0
2576,-85.0,42.0,-238.0,0
2577,-83.0,43.0,-230.0,0
2578,-89.0,44.0,-234.0,0
2579,-91.0,47.0,-226.0,0
2580,-86.0,46.0,-232.0,0
2581,-86.0,47.0,-234.0,0
2582,-88.0,45.0,-233.0,0
2583,-85.0,44.0,-231.0,0
2584,-89.0,43.0,-225.0,0
2585,-90.0,44.0,-231.0,0
2586,-88.0,46.0,-230.0,0
2587,-87.0,44.0,-229.0,0
2588,-85.0,42.0,-235.0,0
2589,-86.0,48.0,-231.0,0
2590,-88.0,45.0,-228.0,0
2591,-95.0,46.0,-230.0,0
2592,-84.0,42.0,-227.0,0
2593,-85.0,45.0,-232.0,0
2594,-88.0,43.0,-227.0,0
2595,-84.0,43.0,-230.0,0
2596,-88.0,46.0,-231.0,0
2597,-87.0,43.0,-230.0,0
2598,-85.0,45.0,-232.0,0
2599,-87.0,48.0,-226.0,0
2600,-90.0,43.0,-230.0,0
2601,-82.0,45.0,-227.0,0
2602,-83.0,32.0,-223.0,0
2603,-88.0,46.0,-230.0,0
2604,-88.0,45.0,-232.0,0
2605,-85.0,45.0,-231.0,0
2606,-86.0,47.0,-233.0,0
2607,-88.0,44.0,-231.0,0
2608,-85.0,45.0,-231.0,0
2609,-87.0,46.0,-230.0,0
2610,-87.0,45.0,-235.0,0
2611,-87.0,45.0,-229.0,0
2612,-84.0,41.0,-230.0,0
2613,-84.0,44.0,-229.0,0
2614,-86.0,44.0,-229.0,0
2615,-83.0,44.0,-229.0,0
2616,-85.0,45.0,-230.0,0
2617,-86.0,46.0,-229.0,0
2618,-86.0,41.0,-231.0,0
2619,-85.0,45.0,-228.0,0
2620,-86.0,42.0,-229.0,0
2621,-86.0,44.0,-232.0,0
2622,-84.0,43.0,-231.0,0
2623,-86.0,44.0,-228.0,0
2624,-86.0,45.0,-233.0,0
2625,-87.0,44.0,-233.0,0
2626,-85.0,44.0,-230.0,0
2627,-85.0,45.0,-230.0,0
2628,-84.0,41.0,-229.0,0
2629,-86.0,46.0,-229.0,0
2630,-83.0,45.0,-228.0,0
2631,-88.0,42.0,-230.0,0
2632,-82.0,43.0,-230.0,0
2633,-87.0,46.0,-228.0,0
2634,-90.0,44.0,-231.0,0
2635,-86.0,46.0,-230.0,0
2636,-86.0,45.0,-232.0,0
2637,-86.0,44.0,-232.0,0
2638,-88.0,46.0,-231.0,0
2639,-84.0,45.0,-234.0,0
2640,-85.0,45.0,-234.0,0
2641,-86.0,42.0,-224.0,0
2642,-87.0,47.0,-233.0,0
2643,-84.0,41.0,-230.0,0
2644,-84.0,48.0,-233.0,0
2645,-89.0,45.0,-229.0,0
2646,-87.0,44.0,-232.0,0
2647,-86.0,44.0,-230.0,0
2648,-84.0,43.0,-231.0,0
2649,-84.0,43.0,-229.0,0
2650,-85.0,45.0,-229.0,0
2651,-86.0,43.0,-232.0,0
2652,-87.0,41.0,-228.0,0
2653,-84.0,44.0,-228.0,0
2654,-83.0,41.0,-229.0,0
2655,-86.0,46.0,-230.0,0
2656,-83.0,45.0,-236.0,0
2657,-86.0,45.0,-232.0,0
2658,-85.0,44.0,-229.0,0
2659,-86.0,45.0,-233.0,0
2660,-87.0,47.0,-232.0,0
2661,-83.0,42.0,-232.0,0
2662,-86.0,43.0,-230.0,0
2663,-86.0,45.0,-230.0,0
2664,-85.0,40.0,-235.0,0
2665,-89.0,44.0,-228.0,0
2666,-84.0,45.0,-229.0,0
2667,-81.0,46.0,-236.0,0
2668,-84.0,44.0,-233.0,0
2669,-86.0,46.0,-230.0,0
2670,-85.0,45.0,-230.0,0
2671,-84.0,45.0,-231.0,0
2672,-86.0,45.0,-234.0,0
2673,-87.0,43.0,-228.0,0
2674,-87.0,45.0,-229.0,0
2675,-88.0,44.0,-226.0,0
2676,-89.0,45.0,-230.0,0
2677,-83.0,44.0,-233.0,0
2678,-87.0,41.0,-234.0,0
2679,-85.0,43.0,-230.0,0
2680,-85.0,43.0,-232.0,0
2681,-86.0,44.0,-231.0,0
2682,-85.0,44.0,-233.0,0
2683,-85.0,45.0,-229.0,0
2684,-87.0,44.0,-233.0,0
2685,-85.0,46.0,-225.0,0
2686,-86.0,45.0,-233.0,0
2687,-91.0,48.0,-233.0,0
2688,-85.0,48.0,-230.0,0
2689,-84.0,33.0,-233.0,0
2690,-84.0,47.0,-230.0,0
2691,-85.0,46.0,-230.0,0
2692,-87.0,44.0,-228.0,0
2693,-84.0,46.0,-231.0,0
2694,-88.0,46.0,-233.0,0
2695,-85.0,44.0,-237.0,0
2696,-87.0,50.0,-230.0,0
2697,-83.0,46.0,-230.0,0
2698,-87.0,48.0,-234.0,0
2699,-84.0,45.0,-232.0,0
2700,-87.0,49.0,-231.0,0
2701,-85.0,46.0,-236.0,0
2702,-87.0,41.0,-229.0,0
2703,-82.0,44.0,-232.0,0
2704,-85.0,42.0,-234.0,0
2705,-85.0,44.0,-232.0,0
2706,-84.0,43.0,-235.0,0
2707,-85.0,46.0,-230.0,0
2708,-82.0,44.0,-238.0,0
2709,-89.0,45.0,-236.0,0
2710,-86.0,45.0,-228.0,0
2711,-80.0,45.0,-233.0,0
2712,-88.0,46.0,-231.0,0
2713,-85.0,46.0,-233.0,0
2714,-84.0,42.0,-231.0,0
2715,-84.0,44.0,-230.0,0
2716,-86.0,44.0,-232.0,0
2717,-84.0,44.0,-230.0,0
2718,-82.0,41.0,-231.0,0
2719,-80.0,40.0,-229.0,0
2720,-90.0,43.0,-230.0,0
2721,-83.0,43.0,-233.0,0
2722,-85.0,45.0,-232.0,0
2723,-83.0,42.0,-232.0,0
2724,-83.0,44.0,-236.0,0
2725,-86.0,47.0,-236.0,0
2726,-85.0,46.0,-229.0,0
2727,-84.0,44.0,-230.0,0
2728,-88.0,45.0,-235.0,0
2729,-84.0,44.0,-229.0,0
2730,-80.0,46.0,-232.0,0
2731,-83.0,47.0,-235.0,0
2732,-87.0,41.0,-234.0,0
2733,-87.0,43.0,-233.0,0
2734,-84.0,45.0,-231.0,0
2735,-83.0,44.0,-232.0,0
2736,-84.0,45.0,-232.0,0
2737,-85.0,43.0,-230.0,0
2738,-85.0,47.0,-233.0,0
2739,-81.0,42.0,-231.0,0
2740,-82.0,45.0,-230.0,0
2741,-87.0,47.0,-232.0,0
2742,-86.0,46.0,-229.0,0
2743,-90.0,47.0,-231.0,0
2744,-84.0,43.0,-230.0,0
2745,-85.0,44.0,-233.0,0
2746,-84.0,45.0,-233.0,0
2747,-85.0,46.0,-233.0,0
2748,-82.0,43.0,-231.0,0
2749,-84.0,46.0,-234.0,0
2750,-86.0,43.0,-237.0,0
2751,-82.0,43.0,-235.0,0
2752,-84.0,41.0,-233.0,0
2753,-82.0,44.0,-234.0,0
2754,-82.0,41.0,-230.0,0
2755,-84.0,45.0,-233.0,0
2756,-83.0,45.0,-233.0,0
2757,-84.0,43.0,-233.0,0
2758,-83.0,46.0,-230.0,0
2759,-86.0,42.0,-231.0,0
2760,-84.0,45.0,-230.0,0
2761,-85.0,48.0,-231.0,0
2762,-80.0,43.0,-229.0,0
2763,-81.0,43.0,-229.0,0
2764,-89.0,47.0,-236.0,0
2765,-84.0,43.0,-231.0,0
2766,-85.0,45.0,-232.0,0
2767,-84.0,43.0,-233.0,0
2768,-83.0,45.0,-232.0,0
2769,-82.0,45.0,-232.0,0
2770,-85.0,42.0,-232.0,0
2771,-85.0,42.0,-233.0,0
2772,-84.0,44.0,-229.0,0
2773,-82.0,43.0,-226.0,0
2774,-80.0,43.0,-236.0,0
2775,-82.0,43.0,-233.0,0
2776,-88.0,39.0,-230.0,0
2777,-83.0,43.0,-232.0,0
2778,-83.0,44.0,-229.0,0
2779,-84.0,41.0,-234.0,0
2780,-85.0,43.0,-232.0,0
2781,-83.0,42.0,-233.0,0
2782,-83.0,42.0,-231.0,0
2783,-88.0,42.0,-230.0,0
2784,-81.0,43.0,-230.0,0
2785,-82.0,39.0,-235.0,0
2786,-82.0,45.0,-231.0,0
2787,-85.0,42.0,-232.0,0
2788,-86.0,47.0,-231.0,0
2789,-85.0,42.0,-235.0,0
2790,-81.0,43.0,-234.0,0
2791,-84.0,42.0,-230.0,0
2792,-83.0,45.0,-236.0,0
2793,-84.0,44.0,-232.0,0
2794,-84.0,45.0,-232.0,0
2795,-82.0,42.0,-236.0,0
2796,-84.0,42.0,-232.0,0
2797,-81.0,43.0,-232.0,0
2798,-86.0,47.0,-232.0,0
2799,-85.0,43.0,-233.0,0
2800,-86.0,46.0,-229.0,0
2801,-82.0,43.0,-232.0,0
2802,-84.0,44.0,-230.0,0
2803,-82.0,41.0,-233.0,0
2804,-84.0,44.0,-232.0,0
2805,-82.0,41.0,-232.0,0
2806,-84.0,42.0,-233.0,0
2807,-82.0,45.0,-231.0,0
2808,-80.0,41.0,-230.0,0
2809,-85.0,45.0,-231.0,0
2810,-82.0,46.0,-233.0,0
2811,-84.0,43.0,-232.0,0
2812,-82.0,42.0,-232.0,0
2813,-82.0,45.0,-230.0,0
2814,-82.0,42.0,-233.0,0
2815,-81.0,44.0,-232.0,0
2816,-82.0,40.0,-232.0,0
2817,-86.0,46.0,-234.0,0
2818,-84.0,47.0,-233.0,0
2819,-84.0,46.0,-236.0,0
2820,-84.0,44.0,-230.0,0
2821,-87.0,47.0,-233.0,0
2822,-85.0,44.0,-227.0,0
2823,-84.0,45.0,-234.0,0
2824,-84.0,46.0,-227.0,0
2825,-83.0,45.0,-232.0,0
2826,-90.0,44.0,-230.0,0
2827,-82.0,43.0,-226.0,0
2828,-84.0,42.0,-227.0,0
2829,-83.0,44.0,-234.0,0
2830,-84.0,49.0,-222.0,0
2831,-80.0,43.0,-232.0,0
2832,-85.0,42.0,-231.0,0
2833,-84.0,45.0,-233.0,0
2834,-84.0,44.0,-234.0,0
2835,-83.0,43.0,-234.0,0
2836,-80.0,43.0,-235.0,0
2837,-81.0,41.0,-235.0,0
2838,-81.0,46.0,-234.0,0
2839,-79.0,40.0,-238.0,0
2840,-83.0,46.0,-234.0,0
2841,-83.0,37.0,-231.0,0
2842,-84.0,46.0,-235.0,0
2843,-81.0,40.0,-232.0,0
2844,-83.0,42.0,-235.0,0
2845,-83.0,43.0,-236.0,0
2846,-81.0,45.0,-231.0,0
2847,-84.0,44.0,-235.0,0
2848,-85.0,50.0,-228.0,0
2849,-84.0,40.0,-233.0,0
2850,-82.0,43.0,-231.0,0
2851,-82.0,47.0,-234.0,0
2852,-81.0,38.0,-226.0,0
2853,-84.0,43.0,-231.0,0
2854,-81.0,41.0,-230.0,0
2855,-83.0,43.0,-231.0,0
2856,-83.0,47.0,-231.0,0
2857,-83.0,43.0,-229.0,0
2858,-82.0,43.0,-234.0,0
2859,-82.0,43.0,-236.0,0
2860,-80.0,44.0,-230.0,0
2861,-84.0,43.0,-227.0,0
2862,-84.0,42.0,-231.0,0
2863,-82.0,46.0,-230.0,0
2864,-83.0,43.0,-231.0,0
2865,-83.0,44.0,-233.0,0
2866,-84.0,41.0,-233.0,0
2867,-83.0,43.0,-232.0,0
2868,-82.0,41.0,-230.0,0
2869,-82.0,41.0,-232.0,0
2870,-80.0,43.0,-235.0,0
2871,-81.0,42.0,-233.0,0
2872,-82.0,42.0,-232.0,0
2873,-83.0,44.0,-232.0,0
2874,-92.0,51.0,-233.0,0
2875,-81.0,41.0,-235.0,0
2876,-80.0,43.0,-234.0,0
2877,-84.0,42.0,-233.0,0
2878,-82.0,42.0,-233.0,0
2879,-81.0,41.0,-232.0,0
2880,-81.0,41.0,-232.0,0
2881,-84.0,43.0,-233.0,0
2882,-82.0,41.0,-235.0,0
2883,-82.0,43.0,-234.0,0
2884,-82.0,42.0,-226.0,0
2885,-80.0,46.0,-226.0,0
2886,-82.0,42.0,-232.0,0
2887,-83.0,44.0,-235.0,0
2888,-81.0,45.0,-230.0,0
2889,-82.0,41.0,-233.0,0
2890,-82.0,41.0,-226.0,0
2891,-78.0,41.0,-234.0,0
2892,-85.0,43.0,-229.0,0
2893,-83.0,44.0,-229.0,0
2894,-85.0,42.0,-231.0,0
2895,-81.0,41.0,-236.0,0
2896,-86.0,40.0,-231.0,0
2897,-82.0,41.0,-236.0,0
2898,-80.0,43.0,-238.0,0
2899,-82.0,46.0,-234.0,0
2900,-84.0,42.0,-232.0,0
2901,-82.0,46.0,-233.0,0
2902,-82.0,42.0,-230.0,0
2903,-87.0,42.0,-235.0,0
2904,-84.0,43.0,-235.0,0
2905,-83.0,47.0,-230.0,0
2906,-82.0,44.0,-233.0,0
2907,-81.0,40.0,-236.0,0
2908,-83.0,43.0,-232.0,0
2909,-82.0,44.0,-228.0,0
2910,-83.0,44.0,-232.0,0
2911,-86.0,44.0,-228.0,0
2912,-86.0,44.0,-234.0,0
2913,-83.0,43.0,-231.0,0
2914,-79.0,42.0,-228.0,0
2915,-83.0,43.0,-234.0,0
2916,-80.0,41.0,-232.0,0
2917,-84.0,47.0,-229.0,0
2918,-84.0,41.0,-229.0,0
2919,-81.0,41.0,-232.0,0
2920,-83.0,44.0,-231.0,0
2921,-85.0,46.0,-230.0,0
2922,-83.0,44.0,-231.0,0
2923,-83.0,42.0,-233.0,0
2924,-83.0,45.0,-233.0,0
2925,-85.0,42.0,-231.0,0
2926,-86.0,42.0,-233.0,0
2927,-86.0,48.0,-231.0,0
2928,-76.0,43.0,-227.0,0
2929,-89.0,42.0,-237.0,0
2930,-83.0,47.0,-230.0,0
2931,-80.0,44.0,-232.0,0
2932,-83.0,42.0,-231.0,0
2933,-84.0,43.0,-236.0,0
2934,-83.0,43.0,-234.0,0
2935,-81.0,42.0,-226.0,0
2936,-87.0,46.0,-231.0,0
2937,-83.0,42.0,-228.0,0
2938,-75.0,41.0,-224.0,0
2939,-85.0,40.0,-232.0,0
2940,-84.0,42.0,-233.0,0
2941,-86.0,41.0,-235.0,0
2942,-82.0,41.0,-233.0,0
2943,-86.0,45.0,-233.0,0
2944,-82.0,43.0,-229.0,0
2945,-84.0,44.0,-236.0,0
2946,-83.0,40.0,-230.0,0
2947,-80.0,41.0,-234.0,0
2948,-85.0,48.0,-236.0,0
2949,-82.0,47.0,-235.0,0
2950,-86.0,41.0,-234.0,0
2951,-80.0,44.0,-230.0,0
2952,-81.0,45.0,-232.0,0
2953,-80.0,44.0,-231.0,0
2954,-85.0,44.0,-227.0,0
2955,-84.0,44.0,-234.0,0
2956,-84.0,41.0,-235.0,0
2957,-80.0,44.0,-227.0,0
2958,-82.0,41.0,-235.0,0
2959,-82.0,41.0,-235.0,0
2960,-81.0,43.0,-229.0,0
2961,-88.0,41.0,-236.0,0
2962,-82.0,39.0,-232.0,0
2963,-83.0,41.0,-233.0,0
2964,-82.0,44.0,-231.0,0
2965,-84.0,44.0,-230.0,0
2966,-82.0,44.0,-234.0,0
2967,-81.0,43.0,-230.0,0
2968,-83.0,41.0,-232.0,0
2969,-83.0,43.0,-232.0,0
2970,-84.0,41.0,-230.0,0
2971,-82.0,45.0,-229.0,0
2972,-78.0,45.0,-231.0,0
2973,-82.0,41.0,-230.0,0
2974,-86.0,42.0,-233.0,0
2975,-84.0,46.0,-229.0,0
2976,-83.0,41.0,-233.0,0
2977,-83.0,42.0,-235.0,0
2978,-83.0,43.0,-233.0,0
2979,-86.0,45.0,-234.0,0
2980,-81.0,41.0,-233.0,0
2981,-83.0,42.0,-238.0,0
2982,-80.0,42.0,-235.0,0
2983,-80.0,40.0,-240.0,0
2984,-84.0,44.0,-233.0,0
2985,-83.0,46.0,-234.0,0
2986,-84.0,47.0,-234.0,0
2987,-82.0,42.0,-235.0,0
2988,-87.0,46.0,-231.0,0
2989,-83.0,44.0,-230.0,0
2990,-81.0,41.0,-227.0,0
2991,-86.0,44.0,-226.0,0
2992,-84.0,45.0,-232.0,0
2993,-86.0,45.0,-231.0,0
2994,-83.0,36.0,-228.0,0
2995,-85.0,47.0,-230.0,0
2996,-83.0,44.0,-230.0,0
2997,-86.0,46.0,-233.0,0
2998,-81.0,42.0,-233.0,0
2999,-84.0,43.0,-232.0,0
