,accelerometer_x,accelerometer_y,accelerometer_z,fall
0,11.0,-254.0,-45.0,0
1,9.0,-254.0,-41.0,0
2,9.0,-252.0,-37.0,0
3,7.0,-253.0,-44.0,0
4,8.0,-252.0,-43.0,0
5,7.0,-254.0,-46.0,0
6,10.0,-252.0,-46.0,0
7,6.0,-250.0,-41.0,0
8,5.0,-253.0,-44.0,0
9,4.0,-250.0,-43.0,0
10,3.0,-251.0,-49.0,0
11,5.0,-253.0,-46.0,0
12,3.0,-255.0,-47.0,0
13,3.0,-253.0,-46.0,0
14,3.0,-254.0,-47.0,0
15,4.0,-251.0,-43.0,0
16,3.0,-254.0,-46.0,0
17,4.0,-253.0,-49.0,0
18,1.0,-252.0,-48.0,0
19,1.0,-252.0,-46.0,0
20,7.0,-254.0,-46.0,0
21,4.0,-255.0,-47.0,0
22,4.0,-253.0,-51.0,0
23,2.0,-254.0,-47.0,0
24,4.0,-254.0,-45.0,0
25,4.0,-250.0,-46.0,0
26,4.0,-252.0,-42.0,0
27,6.0,-254.0,-47.0,0
28,7.0,-250.0,-48.0,0
29,6.0,-252.0,-46.0,0
30,7.0,-252.0,-48.0,0
31,5.0,-251.0,-46.0,0
32,8.0,-252.0,-44.0,0
33,6.0,-253.0,-44.0,0
34,7.0,-253.0,-48.0,0
35,7.0,-254.0,-45.0,0
36,5.0,-253.0,-48.0,0
37,5.0,-253.0,-49.0,0
38,4.0,-251.0,-48.0,0
39,5.0,-253.0,-47.0,0
40,2.0,-252.0,-44.0,0
41,3.0,-254.0,-48.0,0
42,3.0,-253.0,-46.0,0
43,5.0,-254.0,-50.0,0
44,2.0,-252.0,-50.0,0
45,3.0,-254.0,-45.0,0
46,5.0,-253.0,-47.0,0
47,2.0,-253.0,-47.0,0
48,6.0,-252.0,-47.0,0
49,6.0,-256.0,-48.0,0
50,3.0,-252.0,-47.0,0
51,2.0,-252.0,-47.0,0
52,2.0,-253.0,-44.0,0
53,7.0,-257.0,-45.0,0
54,5.0,-255.0,-47.0,0
55,7.0,-255.0,-49.0,0
56,3.0,-255.0,-47.0,0
57,4.0,-251.0,-47.0,0
58,4.0,-256.0,-44.0,0
59,4.0,-255.0,-50.0,0
60,4.0,-253.0,-47.0,0
61,6.0,-250.0,-46.0,0
62,5.0,-255.0,-46.0,0
63,3.0,-253.0,-49.0,0
64,5.0,-253.0,-45.0,0
65,3.0,-252.0,-45.0,0
66,4.0,-254.0,-46.0,0
67,1.0,-253.0,-44.0,0
68,3.0,-251.0,-44.0,0
69,5.0,-254.0,-45.0,0
70,5.0,-252.0,-47.0,0
71,4.0,-254.0,-47.0,0
72,5.0,-254.0,-46.0,0
73,1.0,-255.0,-48.0,0
74,2.0,-252.0,-47.0,0
75,4.0,-253.0,-46.0,0
76,3.0,-251.0,-40.0,0
77,5.0,-252.0,-42.0,0
78,3.0,-254.0,-47.0,0
79,2.0,-251.0,-47.0,0
80,5.0,-254.0,-44.0,0
81,4.0,-252.0,-41.0,0
82,3.0,-251.0,-43.0,0
83,7.0,-252.0,-48.0,0
84,5.0,-254.0,-45.0,0
85,4.0,-253.0,-44.0,0
86,5.0,-254.0,-47.0,0
87,5.0,-253.0,-47.0,0
88,4.0,-255.0,-48.0,0
89,5.0,-251.0,-44.0,0
90,4.0,-250.0,-47.0,0
91,3.0,-251.0,-48.0,0
92,4.0,-255.0,-44.0,0
93,2.0,-250.0,-49.0,0
94,4.0,-252.0,-45.0,0
95,3.0,-250.0,-46.0,0
96,2.0,-251.0,-42.0,0
97,3.0,-254.0,-43.0,0
98,2.0,-251.0,-42.0,0
99,2.0,-254.0,-44.0,0
100,4.0,-254.0,-41.0,0
101,3.0,-255.0,-44.0,0
102,6.0,-255.0,-43.0,0
103,6.0,-257.0,-42.0,0
104,5.0,-253.0,-40.0,0
105,5.0,-254.0,-40.0,0
106,6.0,-252.0,-43.0,0
107,3.0,-251.0,-43.0,0
108,2.0,-253.0,-38.0,0
109,3.0,-254.0,-44.0,0
110,2.0,-253.0,-44.0,0
111,3.0,-252.0,-47.0,0
112,4.0,-255.0,-42.0,0
113,5.0,-256.0,-41.0,0
114,3.0,-254.0,-44.0,0
115,5.0,-256.0,-42.0,0
116,3.0,-255.0,-41.0,0
117,5.0,-254.0,-47.0,0
118,3.0,-255.0,-42.0,0
119,1.0,-254.0,-41.0,0
120,5.0,-255.0,-45.0,0
121,6.0,-255.0,-41.0,0
122,3.0,-256.0,-42.0,0
123,4.0,-253.0,-37.0,0
124,7.0,-253.0,-51.0,0
125,3.0,-250.0,-39.0,0
126,6.0,-253.0,-40.0,0
127,4.0,-254.0,-40.0,0
128,4.0,-255.0,-44.0,0
129,4.0,-252.0,-39.0,0
130,3.0,-254.0,-43.0,0
131,3.0,-251.0,-44.0,0
132,2.0,-251.0,-42.0,0
133,4.0,-252.0,-41.0,0
134,4.0,-255.0,-38.0,0
135,9.0,-251.0,-43.0,0
136,4.0,-255.0,-43.0,0
137,4.0,-252.0,-43.0,0
138,6.0,-258.0,-45.0,0
139,3.0,-251.0,-38.0,0
140,4.0,-252.0,-42.0,0
141,4.0,-259.0,-42.0,0
142,3.0,-255.0,-43.0,0
143,4.0,-251.0,-42.0,0
144,5.0,-254.0,-41.0,0
145,4.0,-253.0,-43.0,0
146,2.0,-252.0,-43.0,0
147,5.0,-251.0,-45.0,0
148,5.0,-253.0,-40.0,0
149,2.0,-251.0,-43.0,0
150,2.0,-254.0,-41.0,0
151,2.0,-254.0,-45.0,0
152,4.0,-253.0,-39.0,0
153,1.0,-249.0,-45.0,0
154,7.0,-255.0,-45.0,0
155,5.0,-254.0,-41.0,0
156,3.0,-253.0,-40.0,0
157,7.0,-252.0,-47.0,0
158,5.0,-253.0,-43.0,0
159,6.0,-252.0,-46.0,0
160,5.0,-253.0,-44.0,0
161,5.0,-252.0,-42.0,0
162,2.0,-256.0,-43.0,0
163,4.0,-251.0,-41.0,0
164,3.0,-252.0,-42.0,0
165,5.0,-254.0,-41.0,0
166,2.0,-253.0,-46.0,0
167,5.0,-254.0,-43.0,0
168,4.0,-255.0,-42.0,0
169,5.0,-255.0,-42.0,0
170,5.0,-255.0,-43.0,0
171,3.0,-252.0,-41.0,0
172,6.0,-252.0,-44.0,0
173,4.0,-255.0,-41.0,0
174,4.0,-252.0,-41.0,0
175,5.0,-251.0,-42.0,0
176,3.0,-255.0,-40.0,0
177,4.0,-254.0,-41.0,0
178,4.0,-254.0,-41.0,0
179,6.0,-254.0,-47.0,0
180,2.0,-254.0,-47.0,0
181,3.0,-252.0,-45.0,0
182,2.0,-253.0,-42.0,0
183,5.0,-255.0,-42.0,0
184,5.0,-256.0,-42.0,0
185,5.0,-255.0,-43.0,0
186,3.0,-253.0,-42.0,0
187,3.0,-255.0,-44.0,0
188,4.0,-254.0,-43.0,0
189,2.0,-253.0,-42.0,0
190,5.0,-253.0,-44.0,0
191,4.0,-253.0,-41.0,0
192,2.0,-251.0,-41.0,0
193,4.0,-251.0,-42.0,0
194,4.0,-254.0,-44.0,0
195,3.0,-253.0,-42.0,0
196,2.0,-252.0,-45.0,0
197,5.0,-255.0,-41.0,0
198,5.0,-253.0,-41.0,0
199,5.0,-253.0,-41.0,0
200,5.0,-254.0,-42.0,0
201,12.0,-252.0,-34.0,0
202,5.0,-251.0,-40.0,0
203,4.0,-255.0,-43.0,0
204,4.0,-255.0,-43.0,0
205,4.0,-253.0,-40.0,0
206,3.0,-252.0,-43.0,0
207,7.0,-253.0,-43.0,0
208,6.0,-252.0,-43.0,0
209,5.0,-253.0,-41.0,0
210,4.0,-252.0,-41.0,0
211,5.0,-252.0,-47.0,0
212,5.0,-252.0,-42.0,0
213,7.0,-254.0,-40.0,0
214,7.0,-253.0,-40.0,0
215,6.0,-254.0,-39.0,0
216,6.0,-253.0,-44.0,0
217,7.0,-255.0,-40.0,0
218,6.0,-252.0,-42.0,0
219,8.0,-254.0,-44.0,0
220,5.0,-254.0,-42.0,0
221,8.0,-253.0,-48.0,0
222,6.0,-251.0,-46.0,0
223,8.0,-253.0,-43.0,0
224,8.0,-255.0,-42.0,0
225,10.0,-253.0,-44.0,0
226,9.0,-255.0,-41.0,0
227,4.0,-253.0,-38.0,0
228,4.0,-253.0,-38.0,0
229,5.0,-255.0,-41.0,0
230,6.0,-258.0,-44.0,0
231,6.0,-257.0,-41.0,0
232,4.0,-257.0,-41.0,0
233,5.0,-254.0,-42.0,0
234,3.0,-255.0,-40.0,0
235,8.0,-254.0,-41.0,0
236,5.0,-256.0,-46.0,0
237,5.0,-254.0,-45.0,0
238,3.0,-254.0,-45.0,0
239,6.0,-256.0,-45.0,0
240,8.0,-256.0,-42.0,0
241,5.0,-254.0,-44.0,0
242,3.0,-254.0,-45.0,0
243,2.0,-254.0,-41.0,0
244,-3.0,-257.0,-47.0,0
245,3.0,-253.0,-43.0,0
246,4.0,-255.0,-44.0,0
247,4.0,-253.0,-44.0,0
248,2.0,-253.0,-48.0,0
249,1.0,-253.0,-42.0,0
250,3.0,-253.0,-44.0,0
251,2.0,-254.0,-47.0,0
252,0.0,-253.0,-44.0,0
253,4.0,-252.0,-43.0,0
254,3.0,-252.0,-40.0,0
255,2.0,-253.0,-44.0,0
256,5.0,-253.0,-45.0,0
257,3.0,-253.0,-42.0,0
258,2.0,-254.0,-46.0,0
259,2.0,-253.0,-43.0,0
260,6.0,-252.0,-44.0,0
261,3.0,-255.0,-45.0,0
262,2.0,-248.0,-44.0,0
263,5.0,-253.0,-41.0,0
264,6.0,-252.0,-40.0,0
265,1.0,-249.0,-40.0,0
266,1.0,-253.0,-39.0,0
267,6.0,-254.0,-42.0,0
268,2.0,-252.0,-40.0,0
269,4.0,-252.0,-39.0,0
270,2.0,-256.0,-42.0,0
271,3.0,-259.0,-41.0,0
272,2.0,-254.0,-40.0,0
273,3.0,-257.0,-41.0,0
274,9.0,-256.0,-42.0,0
275,4.0,-256.0,-42.0,0
276,5.0,-254.0,-40.0,0
277,6.0,-255.0,-44.0,0
278,4.0,-254.0,-39.0,0
279,6.0,-258.0,-44.0,0
280,4.0,-253.0,-43.0,0
281,6.0,-251.0,-39.0,0
282,5.0,-253.0,-42.0,0
283,3.0,-254.0,-40.0,0
284,5.0,-253.0,-38.0,0
285,2.0,-250.0,-42.0,0
286,1.0,-253.0,-38.0,0
287,4.0,-255.0,-36.0,0
288,5.0,-255.0,-32.0,0
289,4.0,-256.0,-38.0,0
290,3.0,-257.0,-40.0,0
291,4.0,-261.0,-41.0,0
292,2.0,-254.0,-43.0,0
293,4.0,-253.0,-45.0,0
294,3.0,-254.0,-40.0,0
295,3.0,-253.0,-44.0,0
296,4.0,-257.0,-43.0,0
297,3.0,-255.0,-43.0,0
298,5.0,-254.0,-49.0,0
299,6.0,-252.0,-44.0,0
300,3.0,-254.0,-46.0,0
301,4.0,-251.0,-47.0,0
302,2.0,-252.0,-45.0,0
303,5.0,-252.0,-46.0,0
304,4.0,-252.0,-45.0,0
305,4.0,-252.0,-45.0,0
306,8.0,-253.0,-48.0,0
307,6.0,-254.0,-43.0,0
308,5.0,-256.0,-41.0,0
309,6.0,-253.0,-40.0,0
310,4.0,-251.0,-46.0,0
311,7.0,-256.0,-43.0,0
312,5.0,-252.0,-45.0,0
313,5.0,-252.0,-45.0,0
314,8.0,-253.0,-48.0,0
315,6.0,-253.0,-44.0,0
316,10.0,-257.0,-43.0,0
317,8.0,-251.0,-42.0,0
318,7.0,-256.0,-43.0,0
319,6.0,-253.0,-46.0,0
320,6.0,-254.0,-45.0,0
321,7.0,-258.0,-44.0,0
322,8.0,-257.0,-46.0,0
323,8.0,-256.0,-45.0,0
324,7.0,-258.0,-45.0,0
325,6.0,-253.0,-46.0,0
326,7.0,-253.0,-43.0,0
327,7.0,-252.0,-43.0,0
328,6.0,-255.0,-41.0,0
329,9.0,-253.0,-43.0,0
330,6.0,-250.0,-44.0,0
331,7.0,-251.0,-34.0,0
332,7.0,-254.0,-38.0,0
333,7.0,-253.0,-44.0,0
334,7.0,-251.0,-40.0,0
335,6.0,-253.0,-41.0,0
336,4.0,-254.0,-40.0,0
337,6.0,-252.0,-37.0,0
338,4.0,-252.0,-42.0,0
339,3.0,-254.0,-41.0,0
340,5.0,-250.0,-42.0,0
341,2.0,-255.0,-41.0,0
342,4.0,-254.0,-44.0,0
343,4.0,-255.0,-40.0,0
344,4.0,-252.0,-41.0,0
345,3.0,-254.0,-44.0,0
346,2.0,-250.0,-40.0,0
347,2.0,-250.0,-40.0,0
348,2.0,-252.0,-44.0,0
349,0.0,-250.0,-44.0,0
350,2.0,-253.0,-43.0,0
351,2.0,-253.0,-44.0,0
352,6.0,-252.0,-46.0,0
353,4.0,-254.0,-45.0,0
354,2.0,-252.0,-50.0,0
355,3.0,-256.0,-49.0,0
356,3.0,-252.0,-52.0,0
357,3.0,-255.0,-46.0,0
358,3.0,-252.0,-44.0,0
359,4.0,-252.0,-49.0,0
360,5.0,-254.0,-45.0,0
361,4.0,-252.0,-51.0,0
362,4.0,-250.0,-50.0,0
363,4.0,-252.0,-47.0,0
364,8.0,-252.0,-46.0,0
365,6.0,-253.0,-47.0,0
366,2.0,-251.0,-52.0,0
367,7.0,-255.0,-49.0,0
368,3.0,-250.0,-50.0,0
369,6.0,-254.0,-53.0,0
370,8.0,-249.0,-53.0,0
371,6.0,-252.0,-51.0,0
372,3.0,-252.0,-48.0,0
373,4.0,-254.0,-50.0,0
374,2.0,-252.0,-47.0,0
375,4.0,-251.0,-48.0,0
376,5.0,-256.0,-48.0,0
377,5.0,-253.0,-48.0,0
378,2.0,-253.0,-48.0,0
379,4.0,-256.0,-48.0,0
380,4.0,-254.0,-45.0,0
381,3.0,-254.0,-45.0,0
382,3.0,-252.0,-51.0,0
383,2.0,-253.0,-47.0,0
384,6.0,-250.0,-49.0,0
385,4.0,-252.0,-51.0,0
386,7.0,-251.0,-50.0,0
387,6.0,-249.0,-47.0,0
388,7.0,-252.0,-50.0,0
389,5.0,-251.0,-47.0,0
390,9.0,-254.0,-51.0,0
391,4.0,-250.0,-49.0,0
392,8.0,-253.0,-47.0,0
393,6.0,-255.0,-48.0,0
394,5.0,-254.0,-50.0,0
395,5.0,-253.0,-49.0,0
396,2.0,-251.0,-52.0,0
397,5.0,-253.0,-53.0,0
398,1.0,-253.0,-51.0,0
399,1.0,-252.0,-52.0,0
400,3.0,-259.0,-55.0,0
401,3.0,-251.0,-54.0,0
402,2.0,-255.0,-57.0,0
403,1.0,-251.0,-55.0,0
404,4.0,-252.0,-51.0,0
405,1.0,-255.0,-56.0,0
406,2.0,-253.0,-53.0,0
407,3.0,-251.0,-56.0,0
408,7.0,-251.0,-55.0,0
409,4.0,-254.0,-52.0,0
410,4.0,-250.0,-54.0,0
411,3.0,-250.0,-52.0,0
412,3.0,-253.0,-55.0,0
413,4.0,-250.0,-53.0,0
414,8.0,-250.0,-52.0,0
415,7.0,-251.0,-48.0,0
416,7.0,-253.0,-52.0,0
417,4.0,-252.0,-50.0,0
418,5.0,-248.0,-49.0,0
419,8.0,-252.0,-50.0,0
420,6.0,-250.0,-52.0,0
421,4.0,-250.0,-51.0,0
422,6.0,-250.0,-52.0,0
423,7.0,-252.0,-53.0,0
424,5.0,-248.0,-49.0,0
425,6.0,-250.0,-54.0,0
426,7.0,-254.0,-55.0,0
427,5.0,-251.0,-52.0,0
428,7.0,-250.0,-51.0,0
429,6.0,-252.0,-58.0,0
430,5.0,-250.0,-55.0,0
431,4.0,-249.0,-58.0,0
432,8.0,-256.0,-57.0,0
433,5.0,-253.0,-55.0,0
434,8.0,-252.0,-57.0,0
435,4.0,-252.0,-57.0,0
436,6.0,-251.0,-53.0,0
437,5.0,-252.0,-57.0,0
438,6.0,-251.0,-52.0,0
439,4.0,-254.0,-50.0,0
440,7.0,-253.0,-52.0,0
441,6.0,-250.0,-54.0,0
442,6.0,-251.0,-59.0,0
443,6.0,-253.0,-54.0,0
444,10.0,-251.0,-52.0,0
445,5.0,-250.0,-51.0,0
446,7.0,-251.0,-52.0,0
447,4.0,-251.0,-54.0,0
448,7.0,-252.0,-57.0,0
449,9.0,-253.0,-57.0,0
450,5.0,-249.0,-58.0,0
451,6.0,-250.0,-55.0,0
452,8.0,-251.0,-56.0,0
453,7.0,-252.0,-60.0,0
454,8.0,-250.0,-57.0,0
455,13.0,-258.0,-54.0,0
456,0.0,-251.0,-56.0,0
457,0.0,-252.0,-57.0,0
458,3.0,-254.0,-59.0,0
459,6.0,-254.0,-61.0,0
460,0.0,-253.0,-57.0,0
461,7.0,-253.0,-63.0,0
462,0.0,-250.0,-63.0,0
463,3.0,-250.0,-62.0,0
464,6.0,-251.0,-59.0,0
465,5.0,-250.0,-63.0,0
466,6.0,-252.0,-64.0,0
467,3.0,-248.0,-60.0,0
468,5.0,-248.0,-62.0,0
469,6.0,-251.0,-57.0,0
470,4.0,-251.0,-61.0,0
471,5.0,-250.0,-60.0,0
472,6.0,-248.0,-59.0,0
473,5.0,-251.0,-58.0,0
474,6.0,-251.0,-57.0,0
475,3.0,-248.0,-62.0,0
476,5.0,-252.0,-57.0,0
477,4.0,-249.0,-60.0,0
478,3.0,-251.0,-55.0,0
479,4.0,-250.0,-64.0,0
480,1.0,-249.0,-60.0,0
481,4.0,-248.0,-61.0,0
482,2.0,-248.0,-61.0,0
483,8.0,-251.0,-60.0,0
484,6.0,-250.0,-63.0,0
485,1.0,-250.0,-63.0,0
486,6.0,-249.0,-64.0,0
487,1.0,-249.0,-67.0,0
488,4.0,-250.0,-59.0,0
489,7.0,-249.0,-61.0,0
490,5.0,-248.0,-64.0,0
491,3.0,-250.0,-67.0,0
492,5.0,-252.0,-64.0,0
493,4.0,-249.0,-64.0,0
494,5.0,-252.0,-62.0,0
495,2.0,-252.0,-68.0,0
496,3.0,-248.0,-64.0,0
497,8.0,-253.0,-62.0,0
498,2.0,-250.0,-62.0,0
499,5.0,-250.0,-64.0,0
500,2.0,-249.0,-63.0,0
501,5.0,-249.0,-64.0,0
502,4.0,-249.0,-66.0,0
503,4.0,-250.0,-62.0,0
504,4.0,-252.0,-62.0,0
505,4.0,-249.0,-62.0,0
506,3.0,-249.0,-66.0,0
507,5.0,-251.0,-64.0,0
508,6.0,-248.0,-61.0,0
509,4.0,-250.0,-63.0,0
510,3.0,-250.0,-62.0,0
511,5.0,-252.0,-62.0,0
512,4.0,-248.0,-64.0,0
513,4.0,-249.0,-61.0,0
514,4.0,-246.0,-65.0,0
515,8.0,-249.0,-63.0,0
516,3.0,-248.0,-61.0,0
517,6.0,-251.0,-62.0,0
518,2.0,-251.0,-63.0,0
519,2.0,-250.0,-62.0,0
520,5.0,-251.0,-64.0,0
521,2.0,-251.0,-61.0,0
522,3.0,-251.0,-64.0,0
523,3.0,-250.0,-62.0,0
524,3.0,-250.0,-62.0,0
525,3.0,-251.0,-67.0,0
526,4.0,-250.0,-62.0,0
527,7.0,-254.0,-64.0,0
528,5.0,-250.0,-64.0,0
529,7.0,-248.0,-59.0,0
530,9.0,-251.0,-60.0,0
531,5.0,-250.0,-57.0,0
532,4.0,-247.0,-64.0,0
533,5.0,-249.0,-62.0,0
534,5.0,-249.0,-61.0,0
535,3.0,-248.0,-62.0,0
536,4.0,-251.0,-59.0,0
537,7.0,-251.0,-61.0,0
538,6.0,-252.0,-59.0,0
539,4.0,-253.0,-62.0,0
540,5.0,-250.0,-61.0,0
541,3.0,-251.0,-62.0,0
542,5.0,-252.0,-60.0,0
543,6.0,-251.0,-63.0,0
544,5.0,-252.0,-59.0,0
545,4.0,-249.0,-62.0,0
546,7.0,-251.0,-60.0,0
547,4.0,-251.0,-66.0,0
548,4.0,-251.0,-61.0,0
549,8.0,-248.0,-61.0,0
550,6.0,-248.0,-62.0,0
551,4.0,-250.0,-60.0,0
552,4.0,-251.0,-60.0,0
553,7.0,-251.0,-61.0,0
554,5.0,-249.0,-63.0,0
555,7.0,-251.0,-62.0,0
556,6.0,-249.0,-61.0,0
557,3.0,-249.0,-60.0,0
558,6.0,-249.0,-67.0,0
559,7.0,-249.0,-61.0,0
560,5.0,-252.0,-63.0,0
561,7.0,-250.0,-63.0,0
562,4.0,-251.0,-61.0,0
563,2.0,-250.0,-61.0,0
564,3.0,-251.0,-60.0,0
565,5.0,-248.0,-60.0,0
566,5.0,-251.0,-60.0,0
567,2.0,-252.0,-65.0,0
568,3.0,-250.0,-61.0,0
569,4.0,-253.0,-61.0,0
570,6.0,-255.0,-61.0,0
571,6.0,-249.0,-61.0,0
572,3.0,-252.0,-62.0,0
573,4.0,-252.0,-57.0,0
574,6.0,-249.0,-59.0,0
575,5.0,-251.0,-57.0,0
576,5.0,-249.0,-57.0,0
577,3.0,-252.0,-56.0,0
578,2.0,-250.0,-55.0,0
579,4.0,-252.0,-57.0,0
580,3.0,-249.0,-57.0,0
581,5.0,-249.0,-52.0,0
582,4.0,-255.0,-56.0,0
583,4.0,-252.0,-54.0,0
584,3.0,-250.0,-54.0,0
585,4.0,-252.0,-58.0,0
586,1.0,-253.0,-56.0,0
587,3.0,-253.0,-56.0,0
588,3.0,-253.0,-53.0,0
589,9.0,-255.0,-51.0,0
590,2.0,-251.0,-54.0,0
591,4.0,-252.0,-54.0,0
592,5.0,-253.0,-51.0,0
593,7.0,-254.0,-56.0,0
594,3.0,-250.0,-55.0,0
595,4.0,-250.0,-57.0,0
596,6.0,-253.0,-56.0,0
597,4.0,-251.0,-53.0,0
598,5.0,-253.0,-52.0,0
599,5.0,-250.0,-52.0,0
600,4.0,-251.0,-55.0,0
601,5.0,-252.0,-56.0,0
602,5.0,-252.0,-52.0,0
603,3.0,-253.0,-51.0,0
604,9.0,-253.0,-51.0,0
605,6.0,-255.0,-54.0,0
606,4.0,-251.0,-48.0,0
607,4.0,-253.0,-49.0,0
608,8.0,-254.0,-52.0,0
609,7.0,-255.0,-53.0,0
610,5.0,-257.0,-53.0,0
611,7.0,-252.0,-49.0,0
612,7.0,-253.0,-49.0,0
613,5.0,-254.0,-51.0,0
614,7.0,-253.0,-51.0,0
615,3.0,-257.0,-61.0,0
616,4.0,-255.0,-50.0,0
617,4.0,-256.0,-48.0,0
618,3.0,-255.0,-50.0,0
619,6.0,-250.0,-49.0,0
620,10.0,-251.0,-47.0,0
621,7.0,-253.0,-48.0,0
622,7.0,-253.0,-50.0,0
623,7.0,-252.0,-48.0,0
624,8.0,-252.0,-49.0,0
625,9.0,-252.0,-49.0,0
626,7.0,-253.0,-49.0,0
627,5.0,-251.0,-43.0,0
628,5.0,-252.0,-45.0,0
629,5.0,-253.0,-45.0,0
630,1.0,-252.0,-40.0,0
631,5.0,-255.0,-44.0,0
632,5.0,-254.0,-42.0,0
633,4.0,-253.0,-41.0,0
634,2.0,-254.0,-45.0,0
635,3.0,-253.0,-42.0,0
636,4.0,-255.0,-45.0,0
637,3.0,-255.0,-44.0,0
638,4.0,-257.0,-43.0,0
639,5.0,-258.0,-40.0,0
640,4.0,-254.0,-40.0,0
641,4.0,-258.0,-42.0,0
642,4.0,-258.0,-44.0,0
643,4.0,-257.0,-38.0,0
644,4.0,-256.0,-37.0,0
645,2.0,-256.0,-35.0,0
646,0.0,-255.0,-38.0,0
647,2.0,-258.0,-37.0,0
648,2.0,-253.0,-38.0,0
649,0.0,-255.0,-41.0,0
650,2.0,-255.0,-36.0,0
651,2.0,-251.0,-34.0,0
652,0.0,-253.0,-35.0,0
653,0.0,-256.0,-35.0,0
654,0.0,-254.0,-32.0,0
655,0.0,-255.0,-28.0,0
656,0.0,-257.0,-34.0,0
657,0.0,-258.0,-30.0,0
658,5.0,-256.0,-30.0,0
659,0.0,-256.0,-28.0,0
660,1.0,-260.0,-27.0,0
661,1.0,-254.0,-24.0,0
662,2.0,-256.0,-29.0,0
663,2.0,-255.0,-22.0,0
664,2.0,-258.0,-28.0,0
665,2.0,-255.0,-26.0,0
666,2.0,-255.0,-22.0,0
667,2.0,-259.0,-23.0,0
668,2.0,-258.0,-20.0,0
669,2.0,-258.0,-20.0,0
670,4.0,-258.0,-20.0,0
671,2.0,-257.0,-22.0,0
672,1.0,-257.0,-20.0,0
673,0.0,-260.0,-20.0,0
674,0.0,-257.0,-20.0,0
675,0.0,-256.0,-23.0,0
676,0.0,-259.0,-19.0,0
677,0.0,-259.0,-21.0,0
678,0.0,-261.0,-18.0,0
679,0.0,-261.0,-18.0,0
680,-1.0,-258.0,-16.0,0
681,0.0,-259.0,-19.0,0
682,1.0,-259.0,-14.0,0
683,0.0,-257.0,-18.0,0
684,1.0,-259.0,-14.0,0
685,1.0,-259.0,-15.0,0
686,0.0,-258.0,-13.0,0
687,3.0,-258.0,-14.0,0
688,3.0,-260.0,-11.0,0
689,0.0,-257.0,-12.0,0
690,0.0,-258.0,-12.0,0
691,1.0,-257.0,-14.0,0
692,1.0,-256.0,-12.0,0
693,0.0,-260.0,-10.0,0
694,2.0,-261.0,-12.0,0
695,1.0,-261.0,-6.0,0
696,1.0,-261.0,-4.0,0
697,1.0,-259.0,-7.0,0
698,3.0,-256.0,-5.0,0
699,2.0,-255.0,-3.0,0
700,1.0,-255.0,-5.0,0
701,2.0,-253.0,-6.0,0
702,2.0,-255.0,-8.0,0
703,4.0,-257.0,-6.0,0
704,1.0,-258.0,-6.0,0
705,5.0,-259.0,0.0,0
706,3.0,-258.0,-4.0,0
707,3.0,-255.0,0.0,0
708,2.0,-254.0,-2.0,0
709,2.0,-260.0,-1.0,0
710,2.0,-254.0,-2.0,0
711,3.0,-251.0,-5.0,0
712,2.0,-253.0,3.0,0
713,1.0,-254.0,2.0,0
714,-2.0,-256.0,0.0,0
715,4.0,-259.0,5.0,0
716,1.0,-257.0,6.0,0
717,-1.0,-258.0,6.0,0
718,1.0,-259.0,4.0,0
719,0.0,-257.0,3.0,0
720,1.0,-262.0,12.0,0
721,0.0,-261.0,8.0,0
722,-1.0,-262.0,9.0,0
723,0.0,-261.0,9.0,0
724,-1.0,-260.0,9.0,0
725,1.0,-263.0,13.0,0
726,-1.0,-261.0,12.0,0
727,1.0,-254.0,12.0,0
728,-1.0,-256.0,16.0,0
729,-1.0,-256.0,17.0,0
730,0.0,-255.0,19.0,0
731,1.0,-252.0,17.0,0
732,0.0,-252.0,18.0,0
733,-2.0,-251.0,17.0,0
734,0.0,-249.0,22.0,0
735,0.0,-248.0,22.0,0
736,0.0,-249.0,25.0,0
737,0.0,-249.0,26.0,0
738,-3.0,-250.0,27.0,0
739,0.0,-248.0,29.0,0
740,-2.0,-250.0,29.0,0
741,-2.0,-255.0,35.0,0
742,0.0,-254.0,32.0,0
743,-5.0,-253.0,32.0,0
744,-10.0,-256.0,28.0,0
745,-5.0,-253.0,33.0,0
746,-4.0,-257.0,33.0,0
747,-8.0,-253.0,38.0,0
748,-5.0,-252.0,39.0,0
749,-8.0,-248.0,40.0,0
750,-4.0,-244.0,33.0,0
751,-3.0,-243.0,28.0,0
752,-5.0,-239.0,31.0,0
753,-7.0,-240.0,35.0,0
754,-2.0,-245.0,35.0,0
755,1.0,-242.0,34.0,0
756,1.0,-246.0,39.0,0
757,1.0,-250.0,42.0,0
758,-5.0,-248.0,40.0,0
759,0.0,-251.0,37.0,0
760,-2.0,-249.0,36.0,0
761,-1.0,-248.0,33.0,0
762,-1.0,-251.0,37.0,0
763,-5.0,-253.0,33.0,0
764,-1.0,-254.0,34.0,0
765,-6.0,-254.0,33.0,0
766,-5.0,-257.0,36.0,0
767,-9.0,-258.0,38.0,0
768,-11.0,-258.0,38.0,0
769,-15.0,-258.0,40.0,0
770,-11.0,-256.0,41.0,0
771,-11.0,-253.0,39.0,0
772,-13.0,-252.0,40.0,0
773,-15.0,-251.0,39.0,0
774,-10.0,-252.0,41.0,0
775,-10.0,-254.0,43.0,0
776,-8.0,-253.0,45.0,0
777,-8.0,-255.0,46.0,0
778,-3.0,-250.0,48.0,0
779,0.0,-251.0,48.0,0
780,-2.0,-249.0,45.0,0
781,0.0,-248.0,45.0,0
782,-1.0,-245.0,44.0,0
783,-1.0,-245.0,45.0,0
784,-4.0,-246.0,44.0,0
785,3.0,-251.0,43.0,0
786,-11.0,-246.0,45.0,0
787,-15.0,-247.0,43.0,0
788,-12.0,-247.0,45.0,0
789,-9.0,-250.0,45.0,0
790,-9.0,-257.0,47.0,0
791,-12.0,-256.0,55.0,0
792,-7.0,-255.0,52.0,0
793,-4.0,-257.0,53.0,0
794,-3.0,-256.0,53.0,0
795,1.0,-255.0,56.0,0
796,1.0,-250.0,55.0,0
797,0.0,-247.0,56.0,0
798,0.0,-243.0,59.0,0
799,-6.0,-238.0,61.0,0
800,-7.0,-239.0,61.0,0
801,-11.0,-239.0,64.0,0
802,-15.0,-241.0,66.0,0
803,-16.0,-241.0,64.0,0
804,-22.0,-240.0,65.0,0
805,-21.0,-237.0,64.0,0
806,-20.0,-242.0,70.0,0
807,-21.0,-242.0,68.0,0
808,-19.0,-245.0,70.0,0
809,-21.0,-246.0,72.0,0
810,-22.0,-248.0,72.0,0
811,-21.0,-246.0,79.0,0
812,-18.0,-243.0,83.0,0
813,-14.0,-240.0,79.0,0
814,-16.0,-236.0,80.0,0
815,-11.0,-233.0,79.0,0
816,-9.0,-236.0,80.0,0
817,-11.0,-236.0,80.0,0
818,-12.0,-234.0,82.0,0
819,-10.0,-235.0,82.0,0
820,-12.0,-239.0,88.0,0
821,-10.0,-236.0,87.0,0
822,-9.0,-242.0,94.0,0
823,-7.0,-245.0,91.0,0
824,-13.0,-243.0,86.0,0
825,-11.0,-242.0,78.0,0
826,-11.0,-235.0,78.0,0
827,-11.0,-232.0,90.0,0
828,-9.0,-231.0,89.0,0
829,-9.0,-232.0,88.0,0
830,-12.0,-224.0,88.0,0
831,-16.0,-219.0,94.0,0
832,-17.0,-222.0,96.0,0
833,-22.0,-223.0,97.0,0
834,-21.0,-228.0,99.0,0
835,-24.0,-226.0,101.0,0
836,-21.0,-229.0,100.0,0
837,-17.0,-232.0,105.0,0
838,-16.0,-231.0,100.0,0
839,-11.0,-227.0,104.0,0
840,-9.0,-228.0,102.0,0
841,-11.0,-225.0,101.0,0
842,-3.0,-228.0,102.0,0
843,1.0,-233.0,99.0,0
844,-1.0,-231.0,101.0,0
845,-3.0,-225.0,104.0,0
846,-2.0,-224.0,106.0,0
847,-4.0,-226.0,106.0,0
848,-3.0,-224.0,106.0,0
849,0.0,-217.0,105.0,0
850,-2.0,-220.0,103.0,0
851,-6.0,-210.0,106.0,0
852,-9.0,-210.0,111.0,0
853,-10.0,-218.0,107.0,0
854,-14.0,-217.0,113.0,0
855,-13.0,-218.0,120.0,0
856,-17.0,-216.0,118.0,0
857,-19.0,-214.0,111.0,0
858,-17.0,-216.0,113.0,0
859,-21.0,-214.0,112.0,0
860,-23.0,-213.0,116.0,0
861,-20.0,-209.0,117.0,0
862,-19.0,-210.0,118.0,0
863,-15.0,-209.0,120.0,0
864,-9.0,-209.0,117.0,0
865,-13.0,-202.0,112.0,0
866,-9.0,-201.0,115.0,0
867,-6.0,-200.0,113.0,0
868,0.0,-202.0,124.0,0
869,0.0,-204.0,116.0,0
870,-4.0,-200.0,120.0,0
871,-4.0,-201.0,119.0,0
872,-9.0,-198.0,121.0,0
873,-9.0,-195.0,120.0,0
874,-12.0,-197.0,115.0,0
875,-19.0,-191.0,126.0,0
876,-26.0,-195.0,122.0,0
877,-29.0,-200.0,117.0,0
878,-28.0,-197.0,119.0,0
879,-25.0,-197.0,121.0,0
880,-28.0,-195.0,125.0,0
881,-30.0,-188.0,122.0,0
882,-37.0,-184.0,123.0,0
883,-37.0,-183.0,123.0,0
884,-38.0,-177.0,126.0,0
885,-34.0,-178.0,124.0,0
886,-33.0,-175.0,124.0,0
887,-27.0,-175.0,125.0,0
888,-22.0,-172.0,126.0,0
889,-16.0,-173.0,123.0,0
890,-14.0,-167.0,128.0,0
891,-12.0,-167.0,126.0,0
892,-9.0,-168.0,130.0,0
893,-6.0,-168.0,130.0,0
894,-1.0,-168.0,133.0,0
895,0.0,-169.0,130.0,0
896,-2.0,-173.0,140.0,0
897,-7.0,-168.0,134.0,0
898,-13.0,-171.0,132.0,0
899,-15.0,-170.0,138.0,0
900,-22.0,-170.0,133.0,0
901,-18.0,-167.0,130.0,0
902,-18.0,-156.0,119.0,0
903,-20.0,-143.0,111.0,0
904,-29.0,-133.0,109.0,0
905,-30.0,-128.0,115.0,0
906,-27.0,-130.0,120.0,0
907,-21.0,-128.0,119.0,0
908,-20.0,-131.0,120.0,0
909,-24.0,-129.0,120.0,0
910,-17.0,-129.0,122.0,0
911,-11.0,-126.0,118.0,0
912,-9.0,-122.0,113.0,0
913,-5.0,-117.0,113.0,0
914,-10.0,-109.0,110.0,0
915,-8.0,-103.0,109.0,0
916,-16.0,-100.0,119.0,0
917,-16.0,-107.0,129.0,0
918,-24.0,-102.0,133.0,0
919,-16.0,-91.0,124.0,0
920,-5.0,-83.0,139.0,0
921,-8.0,-78.0,139.0,0
922,-15.0,-74.0,143.0,0
923,-25.0,-71.0,142.0,0
924,-29.0,-67.0,142.0,0
925,-33.0,-62.0,139.0,0
926,-32.0,-63.0,139.0,0
927,-33.0,-60.0,138.0,0
928,-36.0,-57.0,145.0,0
929,-30.0,-54.0,146.0,0
930,-25.0,-50.0,143.0,0
931,-20.0,-53.0,139.0,0
932,-20.0,-52.0,136.0,0
933,-17.0,-49.0,135.0,0
934,-19.0,-47.0,139.0,0
935,-18.0,-37.0,143.0,0
936,-15.0,-27.0,134.0,0
937,-11.0,-14.0,129.0,0
938,-1.0,-4.0,121.0,0
939,-1.0,-2.0,109.0,0
940,7.0,3.0,87.0,0
941,22.0,3.0,68.0,0
942,32.0,6.0,58.0,0
943,35.0,8.0,50.0,0
944,39.0,-2.0,43.0,0
945,18.0,-3.0,35.0,0
946,12.0,-16.0,22.0,2
947,14.0,-26.0,19.0,2
948,19.0,-49.0,21.0,2
949,22.0,-58.0,14.0,2
950,26.0,-77.0,1.0,2
951,30.0,-87.0,-2.0,2
952,32.0,-96.0,3.0,2
953,46.0,-92.0,13.0,2
954,34.0,-90.0,21.0,2
955,23.0,-87.0,15.0,2
956,10.0,-77.0,9.0,2
957,15.0,-69.0,9.0,2
958,2.0,-54.0,15.0,2
959,0.0,-48.0,3.0,2
960,-3.0,-33.0,-20.0,2
961,-7.0,-2.0,-37.0,2
962,-13.0,27.0,-19.0,2
963,-30.0,69.0,0.0,2
964,-41.0,117.0,24.0,2
965,-51.0,179.0,37.0,2
966,-51.0,250.0,63.0,2
967,-40.0,327.0,131.0,2
968,-55.0,442.0,281.0,2
969,-87.0,569.0,477.0,2
970,-149.0,767.0,706.0,2
971,-226.0,1032.0,1029.0,2
972,-324.0,1482.0,1398.0,2
973,-436.0,1912.0,1477.0,2
974,-433.0,2003.0,1346.0,2
975,-298.0,1732.0,1118.0,2
976,-107.0,1175.0,819.0,2
977,-80.0,472.0,371.0,2
978,-226.0,-33.0,39.0,2
979,-297.0,-90.0,36.0,2
980,-254.0,-337.0,74.0,2
981,-217.0,-580.0,194.0,2
982,-169.0,-747.0,299.0,2
983,-13.0,-789.0,264.0,2
984,120.0,-712.0,173.0,2
985,196.0,-596.0,171.0,2
986,144.0,-436.0,185.0,2
987,65.0,-286.0,221.0,2
988,41.0,-146.0,260.0,2
989,28.0,-18.0,291.0,2
990,10.0,71.0,333.0,2
991,1.0,158.0,361.0,2
992,9.0,240.0,368.0,2
993,-32.0,297.0,380.0,2
994,-27.0,358.0,351.0,2
995,-27.0,392.0,321.0,2
996,-5.0,403.0,291.0,2
997,20.0,339.0,275.0,2
998,16.0,214.0,278.0,2
999,-14.0,69.0,282.0,2
1000,-17.0,-49.0,272.0,2
1001,2.0,-90.0,260.0,2
1002,-19.0,-77.0,250.0,2
1003,-15.0,-66.0,232.0,2
1004,-51.0,-44.0,219.0,2
1005,-86.0,-30.0,223.0,2
1006,-126.0,-22.0,237.0,1
1007,-129.0,-11.0,252.0,1
1008,-133.0,7.0,264.0,1
1009,-121.0,15.0,277.0,1
1010,-102.0,27.0,278.0,1
1011,-91.0,31.0,275.0,1
1012,-79.0,39.0,280.0,1
1013,-73.0,47.0,284.0,1
1014,-66.0,45.0,292.0,1
1015,-66.0,37.0,289.0,1
1016,-68.0,24.0,288.0,1
1017,-69.0,3.0,307.0,1
1018,-75.0,-29.0,334.0,1
1019,-86.0,-66.0,352.0,1
1020,-92.0,-85.0,360.0,1
1021,-92.0,-100.0,351.0,1
1022,-91.0,-96.0,329.0,1
1023,-78.0,-99.0,311.0,1
1024,-71.0,-100.0,290.0,1
1025,-63.0,-109.0,270.0,1
1026,-64.0,-110.0,247.0,1
1027,-62.0,-106.0,232.0,1
1028,-64.0,-100.0,218.0,1
1029,-65.0,-83.0,210.0,1
1030,-63.0,-73.0,205.0,1
1031,-71.0,-52.0,202.0,1
1032,-69.0,-43.0,201.0,1
1033,-76.0,-33.0,208.0,1
1034,-68.0,-26.0,210.0,1
1035,-63.0,-18.0,214.0,1
1036,-57.0,-21.0,214.0,1
1037,-51.0,-20.0,218.0,1
1038,-46.0,-19.0,214.0,1
1039,-41.0,-23.0,212.0,1
1040,-39.0,-29.0,208.0,1
1041,-37.0,-38.0,207.0,1
1042,-35.0,-52.0,211.0,1
1043,-36.0,-58.0,215.0,1
1044,-35.0,-70.0,215.0,1
1045,-30.0,-76.0,219.0,1
1046,-26.0,-78.0,220.0,1
1047,-20.0,-82.0,217.0,1
1048,-19.0,-82.0,213.0,1
1049,-21.0,-72.0,213.0,1
1050,-22.0,-64.0,211.0,1
1051,-26.0,-58.0,205.0,1
1052,-24.0,-56.0,210.0,1
1053,-34.0,-47.0,212.0,1
1054,-36.0,-48.0,215.0,1
1055,-38.0,-45.0,221.0,1
1056,-44.0,-42.0,226.0,1
1057,-40.0,-45.0,224.0,1
1058,-41.0,-49.0,228.0,1
1059,-45.0,-52.0,229.0,1
1060,-42.0,-58.0,228.0,1
1061,-41.0,-66.0,231.0,1
1062,-37.0,-77.0,226.0,1
1063,-32.0,-84.0,226.0,1
1064,-27.0,-89.0,227.0,1
1065,-25.0,-92.0,232.0,1
1066,-29.0,-90.0,235.0,1
1067,-30.0,-86.0,238.0,1
1068,-31.0,-77.0,246.0,1
1069,-33.0,-72.0,245.0,1
1070,-39.0,-65.0,256.0,1
1071,-33.0,-56.0,255.0,1
1072,-33.0,-53.0,259.0,1
1073,-33.0,-51.0,258.0,1
1074,-31.0,-52.0,265.0,1
1075,-31.0,-49.0,276.0,1
1076,-28.0,-47.0,271.0,1
1077,194.0,-260.0,414.0,1
1078,-197.0,67.0,244.0,1
1079,117.0,-23.0,147.0,1
1080,55.0,248.0,5.0,1
1081,-22.0,209.0,227.0,1
1082,-94.0,-110.0,428.0,1
1083,-155.0,-215.0,540.0,1
1084,-72.0,-183.0,462.0,1
1085,-44.0,-185.0,408.0,1
1086,-47.0,-167.0,295.0,1
1087,-22.0,-158.0,184.0,1
1088,-50.0,23.0,42.0,1
1089,-67.0,131.0,24.0,1
1090,-85.0,153.0,134.0,1
1091,-42.0,148.0,234.0,1
1092,-27.0,149.0,299.0,1
1093,-38.0,155.0,323.0,1
1094,-41.0,153.0,335.0,1
1095,-39.0,123.0,336.0,1
1096,-43.0,70.0,323.0,1
1097,-49.0,19.0,296.0,1
1098,-66.0,-6.0,248.0,1
1099,-64.0,-31.0,209.0,1
1100,-63.0,-52.0,180.0,1
1101,-66.0,-82.0,178.0,1
1102,-67.0,-106.0,184.0,1
1103,-51.0,-120.0,198.0,1
1104,-64.0,-130.0,217.0,1
1105,-73.0,-115.0,218.0,1
1106,-73.0,-87.0,223.0,1
1107,-68.0,-75.0,226.0,1
1108,-68.0,-61.0,232.0,1
1109,-67.0,-49.0,236.0,1
1110,-65.0,-33.0,238.0,1
1111,-62.0,-23.0,241.0,1
1112,-63.0,-18.0,246.0,1
1113,-61.0,-15.0,260.0,1
1114,-64.0,-10.0,251.0,1
1115,-62.0,-10.0,251.0,1
1116,-58.0,-15.0,250.0,1
1117,-49.0,-24.0,246.0,1
1118,-57.0,-31.0,242.0,0
1119,-61.0,-30.0,235.0,0
1120,-64.0,-32.0,234.0,0
1121,-61.0,-41.0,234.0,0
1122,-61.0,-38.0,235.0,0
1123,-54.0,-44.0,233.0,0
1124,-50.0,-45.0,236.0,0
1125,-48.0,-45.0,238.0,0
1126,-47.0,-50.0,236.0,0
1127,-50.0,-48.0,234.0,0
1128,-50.0,-46.0,234.0,0
1129,-53.0,-45.0,232.0,0
1130,-50.0,-43.0,234.0,0
1131,-52.0,-42.0,235.0,0
1132,-46.0,-44.0,239.0,0
1133,-44.0,-46.0,237.0,0
1134,-40.0,-47.0,236.0,0
1135,-40.0,-50.0,230.0,0
1136,-43.0,-53.0,232.0,0
1137,-41.0,-54.0,232.0,0
1138,-41.0,-56.0,233.0,0
1139,-37.0,-56.0,230.0,0
1140,-42.0,-54.0,230.0,0
1141,-44.0,-53.0,231.0,0
1142,-41.0,-55.0,236.0,0
1143,-42.0,-54.0,235.0,0
1144,-44.0,-51.0,236.0,0
1145,-43.0,-52.0,237.0,0
1146,-45.0,-46.0,238.0,0
1147,-46.0,-43.0,233.0,0
1148,-44.0,-44.0,236.0,0
1149,-49.0,-40.0,236.0,0
1150,-46.0,-39.0,241.0,0
1151,-50.0,-40.0,239.0,0
1152,-50.0,-38.0,241.0,0
1153,-49.0,-37.0,240.0,0
1154,-50.0,-38.0,237.0,0
1155,-53.0,-34.0,238.0,0
1156,-53.0,-37.0,238.0,0
1157,-59.0,-36.0,237.0,0
1158,-52.0,-32.0,239.0,0
1159,-55.0,-32.0,237.0,0
1160,-57.0,-30.0,236.0,0
1161,-52.0,-33.0,235.0,0
1162,-52.0,-29.0,238.0,0
1163,-52.0,-31.0,240.0,0
1164,-56.0,-32.0,240.0,0
1165,-57.0,-32.0,240.0,0
1166,-59.0,-31.0,239.0,0
1167,-56.0,-28.0,239.0,0
1168,-58.0,-31.0,241.0,0
1169,-57.0,-31.0,239.0,0
1170,-59.0,-30.0,243.0,0
1171,-55.0,-30.0,242.0,0
1172,-57.0,-31.0,237.0,0
1173,-56.0,-29.0,243.0,0
1174,-54.0,-33.0,244.0,0
1175,-56.0,-31.0,241.0,0
1176,-58.0,-33.0,238.0,0
1177,-56.0,-36.0,242.0,0
1178,-54.0,-34.0,241.0,0
1179,-54.0,-36.0,242.0,0
1180,-51.0,-38.0,238.0,0
1181,-54.0,-40.0,238.0,0
1182,-55.0,-36.0,236.0,0
1183,-54.0,-38.0,241.0,0
1184,-54.0,-36.0,239.0,0
1185,-53.0,-36.0,238.0,0
1186,-51.0,-36.0,239.0,0
1187,-52.0,-36.0,235.0,0
1188,-51.0,-41.0,235.0,0
1189,-50.0,-38.0,237.0,0
1190,-54.0,-38.0,237.0,0
1191,-50.0,-41.0,235.0,0
1192,-53.0,-35.0,237.0,0
1193,-48.0,-38.0,236.0,0
1194,-49.0,-43.0,237.0,0
1195,-51.0,-38.0,237.0,0
1196,-49.0,-39.0,239.0,0
1197,-46.0,-39.0,236.0,0
1198,-51.0,-37.0,237.0,0
1199,-50.0,-39.0,240.0,0
1200,-48.0,-32.0,239.0,0
1201,-49.0,-43.0,240.0,0
1202,-47.0,-41.0,237.0,0
1203,-47.0,-41.0,235.0,0
1204,-48.0,-42.0,240.0,0
1205,-47.0,-42.0,238.0,0
1206,-50.0,-40.0,239.0,0
1207,-49.0,-40.0,235.0,0
1208,-47.0,-41.0,237.0,0
1209,-45.0,-42.0,236.0,0
1210,-47.0,-37.0,236.0,0
1211,-49.0,-43.0,236.0,0
1212,-47.0,-39.0,237.0,0
1213,-49.0,-37.0,234.0,0
1214,-50.0,-38.0,237.0,0
1215,-48.0,-36.0,237.0,0
1216,-54.0,-37.0,240.0,0
1217,-48.0,-44.0,240.0,0
1218,-52.0,-38.0,237.0,0
1219,-51.0,-34.0,238.0,0
1220,-51.0,-37.0,237.0,0
1221,-55.0,-35.0,240.0,0
1222,-52.0,-36.0,239.0,0
1223,-50.0,-36.0,238.0,0
1224,-54.0,-32.0,236.0,0
1225,-54.0,-34.0,239.0,0
1226,-55.0,-31.0,238.0,0
1227,-57.0,-32.0,237.0,0
1228,-58.0,-32.0,237.0,0
1229,-53.0,-33.0,240.0,0
1230,-54.0,-33.0,240.0,0
1231,-54.0,-35.0,238.0,0
1232,-54.0,-32.0,238.0,0
1233,-58.0,-31.0,240.0,0
1234,-52.0,-34.0,235.0,0
1235,-54.0,-33.0,237.0,0
1236,-56.0,-35.0,236.0,0
1237,-57.0,-37.0,242.0,0
1238,-59.0,-39.0,242.0,0
1239,-58.0,-33.0,238.0,0
1240,-57.0,-36.0,234.0,0
1241,-55.0,-37.0,237.0,0
1242,-60.0,-36.0,239.0,0
1243,-57.0,-37.0,236.0,0
1244,-53.0,-32.0,247.0,0
1245,-56.0,-35.0,239.0,0
1246,-56.0,-37.0,235.0,0
1247,-57.0,-36.0,238.0,0
1248,-56.0,-36.0,240.0,0
1249,-56.0,-34.0,237.0,0
1250,-53.0,-35.0,237.0,0
1251,-54.0,-36.0,239.0,0
1252,-53.0,-37.0,237.0,0
1253,-51.0,-37.0,236.0,0
1254,-50.0,-38.0,238.0,0
1255,-52.0,-40.0,239.0,0
1256,-56.0,-39.0,237.0,0
1257,-54.0,-36.0,237.0,0
1258,-53.0,-36.0,238.0,0
1259,-53.0,-40.0,236.0,0
1260,-54.0,-38.0,236.0,0
1261,-55.0,-40.0,237.0,0
1262,-52.0,-41.0,235.0,0
1263,-50.0,-41.0,239.0,0
1264,-54.0,-39.0,238.0,0
1265,-55.0,-41.0,233.0,0
1266,-59.0,-37.0,237.0,0
1267,-53.0,-42.0,238.0,0
1268,-58.0,-38.0,235.0,0
1269,-53.0,-41.0,234.0,0
1270,-58.0,-41.0,236.0,0
1271,-55.0,-42.0,237.0,0
1272,-54.0,-39.0,235.0,0
1273,-56.0,-39.0,236.0,0
1274,-52.0,-40.0,234.0,0
1275,-56.0,-38.0,234.0,0
1276,-53.0,-41.0,236.0,0
1277,-54.0,-42.0,240.0,0
1278,-56.0,-38.0,238.0,0
1279,-57.0,-40.0,236.0,0
1280,-60.0,-37.0,235.0,0
1281,-57.0,-40.0,238.0,0
1282,-57.0,-41.0,236.0,0
1283,-54.0,-40.0,237.0,0
1284,-53.0,-42.0,237.0,0
1285,-51.0,-43.0,240.0,0
1286,-50.0,-45.0,235.0,0
1287,-51.0,-43.0,236.0,0
1288,-51.0,-50.0,233.0,0
1289,-50.0,-42.0,235.0,0
1290,-52.0,-42.0,236.0,0
1291,-51.0,-40.0,235.0,0
1292,-53.0,-36.0,234.0,0
1293,-56.0,-39.0,235.0,0
1294,-55.0,-36.0,235.0,0
1295,-50.0,-37.0,238.0,0
1296,-49.0,-41.0,237.0,0
1297,-58.0,-37.0,237.0,0
1298,-54.0,-35.0,236.0,0
1299,-50.0,-37.0,237.0,0
1300,-53.0,-34.0,236.0,0
1301,-50.0,-40.0,235.0,0
1302,-56.0,-35.0,236.0,0
1303,-52.0,-34.0,235.0,0
1304,-55.0,-37.0,236.0,0
1305,-51.0,-38.0,237.0,0
1306,-56.0,-38.0,236.0,0
1307,-52.0,-38.0,237.0,0
1308,-54.0,-37.0,237.0,0
1309,-51.0,-34.0,235.0,0
1310,-52.0,-35.0,240.0,0
1311,-51.0,-38.0,240.0,0
1312,-52.0,-38.0,236.0,0
1313,-51.0,-38.0,237.0,0
1314,-54.0,-36.0,240.0,0
1315,-51.0,-39.0,237.0,0
1316,-53.0,-39.0,238.0,0
1317,-53.0,-39.0,236.0,0
1318,-52.0,-38.0,239.0,0
1319,-54.0,-38.0,236.0,0
1320,-54.0,-39.0,238.0,0
1321,-54.0,-39.0,235.0,0
1322,-54.0,-39.0,238.0,0
1323,-55.0,-39.0,237.0,0
1324,-53.0,-37.0,237.0,0
1325,-54.0,-40.0,239.0,0
1326,-54.0,-35.0,239.0,0
1327,-52.0,-39.0,234.0,0
1328,-53.0,-35.0,240.0,0
1329,-53.0,-38.0,238.0,0
1330,-53.0,-37.0,236.0,0
1331,-52.0,-47.0,231.0,0
1332,-53.0,-41.0,234.0,0
1333,-53.0,-40.0,235.0,0
1334,-53.0,-40.0,233.0,0
1335,-53.0,-39.0,239.0,0
1336,-56.0,-39.0,237.0,0
1337,-54.0,-38.0,236.0,0
1338,-57.0,-42.0,235.0,0
1339,-55.0,-41.0,239.0,0
1340,-58.0,-41.0,236.0,0
1341,-56.0,-45.0,237.0,0
1342,-55.0,-41.0,239.0,0
1343,-56.0,-40.0,235.0,0
1344,-56.0,-45.0,235.0,0
1345,-56.0,-41.0,231.0,0
1346,-55.0,-40.0,235.0,0
1347,-56.0,-40.0,234.0,0
1348,-58.0,-39.0,234.0,0
1349,-55.0,-39.0,233.0,0
1350,-57.0,-36.0,231.0,0
1351,-51.0,-39.0,232.0,0
1352,-51.0,-39.0,233.0,0
1353,-53.0,-40.0,239.0,0
1354,-55.0,-37.0,235.0,0
1355,-53.0,-39.0,236.0,0
1356,-54.0,-39.0,241.0,0
1357,-56.0,-35.0,235.0,0
1358,-55.0,-38.0,237.0,0
1359,-54.0,-40.0,238.0,0
1360,-56.0,-40.0,238.0,0
1361,-57.0,-39.0,242.0,0
1362,-56.0,-41.0,237.0,0
1363,-57.0,-39.0,239.0,0
1364,-56.0,-41.0,239.0,0
1365,-58.0,-37.0,238.0,0
1366,-59.0,-36.0,236.0,0
1367,-55.0,-39.0,240.0,0
1368,-54.0,-36.0,236.0,0
1369,-56.0,-40.0,237.0,0
1370,-57.0,-38.0,236.0,0
1371,-57.0,-37.0,239.0,0
1372,-56.0,-38.0,233.0,0
1373,-54.0,-34.0,239.0,0
1374,-54.0,-38.0,236.0,0
1375,-55.0,-34.0,228.0,0
1376,-54.0,-39.0,239.0,0
1377,-54.0,-39.0,238.0,0
1378,-55.0,-39.0,236.0,0
1379,-56.0,-38.0,235.0,0
1380,-53.0,-35.0,235.0,0
1381,-52.0,-39.0,236.0,0
1382,-55.0,-39.0,236.0,0
1383,-50.0,-39.0,234.0,0
1384,-52.0,-35.0,235.0,0
1385,-47.0,-37.0,236.0,0
1386,-53.0,-35.0,235.0,0
1387,-53.0,-37.0,241.0,0
1388,-57.0,-35.0,239.0,0
1389,-56.0,-38.0,236.0,0
1390,-57.0,-38.0,237.0,0
1391,-55.0,-38.0,239.0,0
1392,-57.0,-40.0,237.0,0
1393,-56.0,-37.0,239.0,0
1394,-56.0,-35.0,236.0,0
1395,-53.0,-35.0,238.0,0
1396,-56.0,-36.0,237.0,0
1397,-58.0,-36.0,241.0,0
1398,-58.0,-36.0,236.0,0
1399,-55.0,-36.0,237.0,0
1400,-55.0,-36.0,237.0,0
1401,-56.0,-36.0,241.0,0
1402,-56.0,-36.0,240.0,0
1403,-55.0,-40.0,238.0,0
1404,-55.0,-36.0,238.0,0
1405,-56.0,-36.0,239.0,0
1406,-56.0,-36.0,238.0,0
1407,-55.0,-39.0,235.0,0
1408,-58.0,-36.0,234.0,0
1409,-55.0,-37.0,235.0,0
1410,-55.0,-35.0,233.0,0
1411,-52.0,-35.0,234.0,0
1412,-54.0,-35.0,235.0,0
1413,-58.0,-35.0,236.0,0
1414,-56.0,-34.0,235.0,0
1415,-57.0,-34.0,237.0,0
1416,-56.0,-37.0,239.0,0
1417,-53.0,-37.0,239.0,0
1418,-51.0,-28.0,234.0,0
1419,-54.0,-35.0,236.0,0
1420,-57.0,-37.0,237.0,0
1421,-57.0,-34.0,238.0,0
1422,-53.0,-36.0,239.0,0
1423,-59.0,-34.0,238.0,0
1424,-56.0,-36.0,235.0,0
1425,-56.0,-37.0,238.0,0
1426,-54.0,-34.0,241.0,0
1427,-55.0,-34.0,239.0,0
1428,-55.0,-35.0,240.0,0
1429,-53.0,-35.0,236.0,0
1430,-51.0,-37.0,238.0,0
1431,-53.0,-35.0,236.0,0
1432,-55.0,-32.0,239.0,0
1433,-53.0,-33.0,240.0,0
1434,-54.0,-34.0,237.0,0
1435,-52.0,-37.0,235.0,0
1436,-54.0,-36.0,237.0,0
1437,-56.0,-36.0,236.0,0
1438,-55.0,-37.0,237.0,0
1439,-54.0,-34.0,236.0,0
1440,-56.0,-35.0,236.0,0
1441,-58.0,-33.0,238.0,0
1442,-57.0,-32.0,238.0,0
1443,-56.0,-35.0,242.0,0
1444,-57.0,-36.0,237.0,0
1445,-55.0,-34.0,243.0,0
1446,-57.0,-37.0,236.0,0
1447,-59.0,-32.0,240.0,0
1448,-56.0,-34.0,237.0,0
1449,-58.0,-34.0,237.0,0
1450,-55.0,-36.0,235.0,0
1451,-57.0,-33.0,238.0,0
1452,-57.0,-34.0,237.0,0
1453,-57.0,-34.0,237.0,0
1454,-55.0,-36.0,237.0,0
1455,-59.0,-35.0,238.0,0
1456,-60.0,-32.0,235.0,0
1457,-55.0,-36.0,234.0,0
1458,-55.0,-35.0,238.0,0
1459,-56.0,-34.0,235.0,0
1460,-58.0,-38.0,237.0,0
1461,-57.0,-35.0,238.0,0
1462,-53.0,-41.0,235.0,0
1463,-58.0,-35.0,240.0,0
1464,-57.0,-36.0,238.0,0
1465,-57.0,-38.0,238.0,0
1466,-56.0,-35.0,240.0,0
1467,-55.0,-37.0,240.0,0
1468,-58.0,-32.0,241.0,0
1469,-55.0,-34.0,240.0,0
1470,-57.0,-33.0,237.0,0
1471,-56.0,-34.0,240.0,0
1472,-59.0,-29.0,240.0,0
1473,-51.0,-35.0,238.0,0
1474,-58.0,-32.0,239.0,0
1475,-56.0,-35.0,237.0,0
1476,-54.0,-35.0,238.0,0
1477,-55.0,-35.0,240.0,0
1478,-56.0,-33.0,238.0,0
1479,-57.0,-34.0,238.0,0
1480,-57.0,-35.0,237.0,0
1481,-53.0,-35.0,237.0,0
1482,-55.0,-35.0,238.0,0
1483,-54.0,-33.0,236.0,0
1484,-61.0,-29.0,235.0,0
1485,-57.0,-34.0,240.0,0
1486,-55.0,-37.0,235.0,0
1487,-57.0,-38.0,236.0,0
1488,-59.0,-34.0,238.0,0
1489,-55.0,-35.0,235.0,0
1490,-55.0,-36.0,235.0,0
1491,-54.0,-38.0,238.0,0
1492,-52.0,-38.0,239.0,0
1493,-53.0,-35.0,238.0,0
1494,-53.0,-35.0,236.0,0
1495,-54.0,-33.0,234.0,0
1496,-51.0,-37.0,238.0,0
1497,-57.0,-35.0,236.0,0
1498,-54.0,-36.0,236.0,0
1499,-53.0,-36.0,238.0,0
1500,-54.0,-36.0,236.0,0
1501,-55.0,-36.0,233.0,0
1502,-54.0,-40.0,236.0,0
1503,-55.0,-36.0,235.0,0
1504,-57.0,-37.0,238.0,0
1505,-59.0,-39.0,229.0,0
1506,-54.0,-38.0,235.0,0
1507,-54.0,-37.0,235.0,0
1508,-56.0,-36.0,238.0,0
1509,-57.0,-35.0,237.0,0
1510,-57.0,-32.0,237.0,0
1511,-54.0,-33.0,234.0,0
1512,-55.0,-35.0,235.0,0
1513,-56.0,-35.0,234.0,0
1514,-55.0,-37.0,236.0,0
1515,-58.0,-35.0,237.0,0
1516,-57.0,-37.0,235.0,0
1517,-56.0,-37.0,239.0,0
1518,-56.0,-35.0,241.0,0
1519,-54.0,-38.0,236.0,0
1520,-54.0,-38.0,238.0,0
1521,-54.0,-40.0,237.0,0
1522,-57.0,-37.0,236.0,0
1523,-57.0,-35.0,238.0,0
1524,-56.0,-33.0,241.0,0
1525,-60.0,-38.0,234.0,0
1526,-58.0,-29.0,234.0,0
1527,-58.0,-35.0,238.0,0
1528,-57.0,-33.0,238.0,0
1529,-55.0,-32.0,235.0,0
1530,-53.0,-38.0,236.0,0
1531,-56.0,-35.0,242.0,0
1532,-53.0,-33.0,235.0,0
1533,-58.0,-32.0,237.0,0
1534,-58.0,-32.0,236.0,0
1535,-56.0,-35.0,236.0,0
1536,-58.0,-31.0,239.0,0
1537,-56.0,-33.0,235.0,0
1538,-56.0,-33.0,236.0,0
1539,-58.0,-31.0,237.0,0
1540,-54.0,-34.0,239.0,0
1541,-55.0,-34.0,238.0,0
1542,-58.0,-31.0,239.0,0
1543,-57.0,-33.0,235.0,0
1544,-59.0,-29.0,237.0,0
1545,-58.0,-34.0,236.0,0
1546,-55.0,-33.0,239.0,0
1547,-54.0,-34.0,239.0,0
1548,-56.0,-34.0,237.0,0
1549,-53.0,-31.0,241.0,0
1550,-58.0,-35.0,240.0,0
1551,-55.0,-36.0,237.0,0
1552,-57.0,-34.0,238.0,0
1553,-55.0,-31.0,237.0,0
1554,-56.0,-34.0,240.0,0
1555,-58.0,-31.0,238.0,0
1556,-57.0,-34.0,237.0,0
1557,-56.0,-33.0,237.0,0
1558,-57.0,-31.0,239.0,0
1559,-55.0,-35.0,237.0,0
1560,-55.0,-34.0,240.0,0
1561,-56.0,-37.0,239.0,0
1562,-56.0,-34.0,238.0,0
1563,-54.0,-33.0,235.0,0
1564,-54.0,-34.0,237.0,0
1565,-54.0,-34.0,236.0,0
1566,-54.0,-31.0,235.0,0
1567,-57.0,-34.0,238.0,0
1568,-53.0,-35.0,240.0,0
1569,-54.0,-34.0,237.0,0
1570,-58.0,-29.0,233.0,0
1571,-56.0,-31.0,239.0,0
1572,-52.0,-33.0,237.0,0
1573,-57.0,-33.0,237.0,0
1574,-56.0,-35.0,239.0,0
1575,-52.0,-39.0,238.0,0
1576,-55.0,-37.0,239.0,0
1577,-53.0,-35.0,238.0,0
1578,-56.0,-34.0,237.0,0
1579,-54.0,-36.0,235.0,0
1580,-55.0,-34.0,240.0,0
1581,-55.0,-36.0,238.0,0
1582,-52.0,-36.0,237.0,0
1583,-53.0,-36.0,237.0,0
1584,-54.0,-32.0,241.0,0
1585,-54.0,-32.0,234.0,0
1586,-55.0,-34.0,236.0,0
1587,-56.0,-34.0,237.0,0
1588,-59.0,-35.0,238.0,0
1589,-54.0,-36.0,236.0,0
1590,-55.0,-35.0,239.0,0
1591,-55.0,-33.0,237.0,0
1592,-55.0,-33.0,239.0,0
1593,-60.0,-31.0,223.0,0
1594,-58.0,-32.0,238.0,0
1595,-59.0,-34.0,239.0,0
1596,-56.0,-33.0,237.0,0
1597,-59.0,-32.0,236.0,0
1598,-56.0,-34.0,236.0,0
1599,-53.0,-36.0,238.0,0
1600,-59.0,-29.0,237.0,0
1601,-58.0,-32.0,237.0,0
1602,-56.0,-33.0,237.0,0
1603,-60.0,-31.0,237.0,0
1604,-57.0,-33.0,239.0,0
1605,-56.0,-34.0,237.0,0
1606,-58.0,-33.0,238.0,0
1607,-57.0,-35.0,238.0,0
1608,-56.0,-32.0,236.0,0
1609,-58.0,-35.0,236.0,0
1610,-57.0,-30.0,238.0,0
1611,-58.0,-29.0,236.0,0
1612,-56.0,-33.0,238.0,0
1613,-56.0,-31.0,237.0,0
1614,-56.0,-34.0,235.0,0
1615,-56.0,-35.0,237.0,0
1616,-56.0,-34.0,236.0,0
1617,-54.0,-35.0,235.0,0
1618,-56.0,-34.0,233.0,0
1619,-55.0,-33.0,237.0,0
1620,-56.0,-33.0,236.0,0
1621,-57.0,-32.0,237.0,0
1622,-56.0,-33.0,236.0,0
1623,-56.0,-34.0,237.0,0
1624,-54.0,-35.0,238.0,0
1625,-55.0,-34.0,239.0,0
1626,-54.0,-34.0,234.0,0
1627,-57.0,-33.0,235.0,0
1628,-56.0,-36.0,236.0,0
1629,-57.0,-35.0,237.0,0
1630,-55.0,-34.0,239.0,0
1631,-55.0,-33.0,238.0,0
1632,-57.0,-37.0,240.0,0
1633,-54.0,-36.0,238.0,0
1634,-56.0,-31.0,237.0,0
1635,-58.0,-33.0,240.0,0
1636,-56.0,-43.0,238.0,0
1637,-53.0,-34.0,235.0,0
1638,-57.0,-33.0,237.0,0
1639,-54.0,-37.0,241.0,0
1640,-59.0,-33.0,236.0,0
1641,-57.0,-35.0,242.0,0
1642,-56.0,-34.0,237.0,0
1643,-57.0,-33.0,238.0,0
1644,-58.0,-34.0,237.0,0
1645,-55.0,-32.0,236.0,0
1646,-56.0,-33.0,236.0,0
1647,-56.0,-32.0,236.0,0
1648,-53.0,-32.0,235.0,0
1649,-54.0,-34.0,237.0,0
1650,-56.0,-33.0,234.0,0
1651,-56.0,-33.0,238.0,0
1652,-58.0,-34.0,238.0,0
1653,-58.0,-34.0,239.0,0
1654,-55.0,-35.0,237.0,0
1655,-54.0,-36.0,234.0,0
1656,-58.0,-32.0,236.0,0
1657,-56.0,-30.0,236.0,0
1658,-56.0,-33.0,237.0,0
1659,-56.0,-35.0,239.0,0
1660,-56.0,-33.0,236.0,0
1661,-58.0,-32.0,235.0,0
1662,-54.0,-33.0,236.0,0
1663,-54.0,-32.0,239.0,0
1664,-57.0,-30.0,237.0,0
1665,-55.0,-30.0,236.0,0
1666,-57.0,-31.0,237.0,0
1667,-58.0,-30.0,240.0,0
1668,-58.0,-29.0,237.0,0
1669,-57.0,-30.0,235.0,0
1670,-56.0,-30.0,236.0,0
1671,-54.0,-29.0,239.0,0
1672,-57.0,-33.0,238.0,0
1673,-58.0,-33.0,236.0,0
1674,-55.0,-37.0,237.0,0
1675,-52.0,-38.0,236.0,0
1676,-55.0,-34.0,237.0,0
1677,-56.0,-34.0,240.0,0
1678,-55.0,-36.0,239.0,0
1679,-58.0,-35.0,239.0,0
1680,-53.0,-34.0,240.0,0
1681,-54.0,-32.0,235.0,0
1682,-57.0,-34.0,232.0,0
1683,-57.0,-34.0,237.0,0
1684,-56.0,-32.0,233.0,0
1685,-60.0,-28.0,233.0,0
1686,-55.0,-28.0,234.0,0
1687,-56.0,-30.0,234.0,0
1688,-57.0,-30.0,234.0,0
1689,-55.0,-29.0,238.0,0
1690,-57.0,-28.0,236.0,0
1691,-55.0,-28.0,236.0,0
1692,-58.0,-29.0,237.0,0
1693,-58.0,-31.0,235.0,0
1694,-55.0,-28.0,236.0,0
1695,-56.0,-30.0,238.0,0
1696,-55.0,-28.0,238.0,0
1697,-57.0,-31.0,237.0,0
1698,-55.0,-30.0,239.0,0
1699,-55.0,-28.0,237.0,0
1700,-55.0,-29.0,239.0,0
1701,-56.0,-29.0,239.0,0
1702,-57.0,-29.0,237.0,0
1703,-60.0,-27.0,237.0,0
1704,-55.0,-32.0,239.0,0
1705,-57.0,-33.0,238.0,0
1706,-59.0,-33.0,238.0,0
1707,-53.0,-31.0,238.0,0
1708,-55.0,-29.0,237.0,0
1709,-55.0,-30.0,240.0,0
1710,-56.0,-26.0,235.0,0
1711,-55.0,-29.0,240.0,0
1712,-56.0,-30.0,237.0,0
1713,-57.0,-28.0,238.0,0
1714,-56.0,-30.0,239.0,0
1715,-55.0,-27.0,238.0,0
1716,-56.0,-26.0,237.0,0
1717,-55.0,-29.0,240.0,0
1718,-57.0,-30.0,240.0,0
1719,-56.0,-31.0,240.0,0
1720,-57.0,-27.0,237.0,0
1721,-56.0,-29.0,236.0,0
1722,-57.0,-29.0,241.0,0
1723,-56.0,-29.0,236.0,0
1724,-58.0,-30.0,236.0,0
1725,-58.0,-29.0,237.0,0
1726,-54.0,-28.0,240.0,0
1727,-54.0,-30.0,237.0,0
1728,-55.0,-30.0,238.0,0
1729,-55.0,-27.0,237.0,0
1730,-53.0,-31.0,238.0,0
1731,-52.0,-30.0,238.0,0
1732,-58.0,-33.0,241.0,0
1733,-56.0,-30.0,237.0,0
1734,-56.0,-34.0,237.0,0
1735,-56.0,-32.0,236.0,0
1736,-55.0,-31.0,234.0,0
1737,-58.0,-28.0,236.0,0
1738,-55.0,-29.0,236.0,0
1739,-55.0,-30.0,237.0,0
1740,-55.0,-30.0,238.0,0
1741,-59.0,-29.0,237.0,0
1742,-53.0,-29.0,238.0,0
1743,-59.0,-28.0,240.0,0
1744,-56.0,-28.0,240.0,0
1745,-54.0,-29.0,239.0,0
1746,-56.0,-26.0,237.0,0
1747,-57.0,-32.0,237.0,0
1748,-57.0,-30.0,241.0,0
1749,-56.0,-27.0,239.0,0
1750,-59.0,-25.0,237.0,0
1751,-56.0,-29.0,238.0,0
1752,-58.0,-29.0,237.0,0
1753,-58.0,-30.0,236.0,0
1754,-57.0,-30.0,237.0,0
1755,-60.0,-29.0,237.0,0
1756,-59.0,-27.0,237.0,0
1757,-60.0,-30.0,240.0,0
1758,-58.0,-27.0,240.0,0
1759,-56.0,-33.0,241.0,0
1760,-58.0,-26.0,236.0,0
1761,-57.0,-30.0,237.0,0
1762,-57.0,-27.0,240.0,0
1763,-58.0,-28.0,235.0,0
1764,-58.0,-30.0,237.0,0
1765,-56.0,-27.0,237.0,0
1766,-54.0,-28.0,237.0,0
1767,-54.0,-27.0,244.0,0
1768,-57.0,-28.0,237.0,0
1769,-56.0,-27.0,237.0,0
1770,-53.0,-28.0,236.0,0
1771,-58.0,-25.0,241.0,0
1772,-54.0,-27.0,235.0,0
1773,-55.0,-29.0,236.0,0
1774,-56.0,-26.0,236.0,0
1775,-55.0,-30.0,237.0,0
1776,-53.0,-29.0,240.0,0
1777,-55.0,-28.0,239.0,0
1778,-53.0,-27.0,237.0,0
1779,-54.0,-28.0,239.0,0
1780,-55.0,-31.0,243.0,0
1781,-52.0,-29.0,238.0,0
1782,-57.0,-28.0,237.0,0
1783,-59.0,-28.0,238.0,0
1784,-60.0,-27.0,239.0,0
1785,-57.0,-29.0,243.0,0
1786,-55.0,-28.0,242.0,0
1787,-59.0,-27.0,237.0,0
1788,-58.0,-29.0,239.0,0
1789,-58.0,-29.0,233.0,0
1790,-53.0,-28.0,239.0,0
1791,-56.0,-29.0,238.0,0
1792,-55.0,-31.0,241.0,0
1793,-55.0,-30.0,236.0,0
1794,-54.0,-31.0,238.0,0
1795,-54.0,-27.0,237.0,0
1796,-55.0,-28.0,239.0,0
1797,-57.0,-29.0,239.0,0
1798,-53.0,-30.0,237.0,0
1799,-56.0,-30.0,236.0,0
1800,-56.0,-27.0,236.0,0
1801,-54.0,-29.0,238.0,0
1802,-56.0,-28.0,239.0,0
1803,-55.0,-30.0,243.0,0
1804,-56.0,-30.0,240.0,0
1805,-56.0,-32.0,235.0,0
1806,-57.0,-30.0,236.0,0
1807,-56.0,-27.0,235.0,0
1808,-58.0,-29.0,240.0,0
1809,-59.0,-28.0,237.0,0
1810,-55.0,-28.0,238.0,0
1811,-55.0,-29.0,237.0,0
1812,-56.0,-34.0,238.0,0
1813,-56.0,-33.0,236.0,0
1814,-56.0,-27.0,239.0,0
1815,-55.0,-32.0,239.0,0
1816,-56.0,-32.0,238.0,0
1817,-57.0,-33.0,237.0,0
1818,-51.0,-33.0,240.0,0
1819,-56.0,-35.0,240.0,0
1820,-56.0,-36.0,243.0,0
1821,-55.0,-32.0,236.0,0
1822,-58.0,-32.0,235.0,0
1823,-56.0,-32.0,238.0,0
1824,-57.0,-33.0,233.0,0
1825,-57.0,-32.0,234.0,0
1826,-55.0,-32.0,241.0,0
1827,-56.0,-30.0,239.0,0
1828,-57.0,-32.0,237.0,0
1829,-57.0,-33.0,236.0,0
1830,-56.0,-29.0,236.0,0
1831,-58.0,-29.0,239.0,0
1832,-50.0,-23.0,245.0,0
1833,-51.0,-32.0,241.0,0
1834,-54.0,-30.0,240.0,0
1835,-53.0,-30.0,236.0,0
1836,-54.0,-34.0,235.0,0
1837,-54.0,-32.0,237.0,0
1838,-56.0,-30.0,238.0,0
1839,-57.0,-30.0,238.0,0
1840,-59.0,-32.0,236.0,0
1841,-56.0,-31.0,241.0,0
1842,-56.0,-37.0,239.0,0
1843,-56.0,-32.0,239.0,0
1844,-59.0,-31.0,237.0,0
1845,-57.0,-30.0,239.0,0
1846,-55.0,-35.0,237.0,0
1847,-55.0,-34.0,241.0,0
1848,-57.0,-33.0,239.0,0
1849,-57.0,-33.0,239.0,0
1850,-57.0,-32.0,240.0,0
1851,-57.0,-36.0,241.0,0
1852,-57.0,-33.0,236.0,0
1853,-58.0,-36.0,238.0,0
1854,-55.0,-35.0,239.0,0
1855,-56.0,-35.0,236.0,0
1856,-60.0,-32.0,239.0,0
1857,-59.0,-32.0,238.0,0
1858,-57.0,-39.0,238.0,0
1859,-58.0,-33.0,240.0,0
1860,-59.0,-34.0,231.0,0
1861,-57.0,-36.0,238.0,0
1862,-58.0,-38.0,234.0,0
1863,-59.0,-35.0,237.0,0
1864,-60.0,-34.0,235.0,0
1865,-58.0,-36.0,234.0,0
1866,-60.0,-34.0,237.0,0
1867,-57.0,-35.0,236.0,0
1868,-57.0,-33.0,237.0,0
1869,-60.0,-32.0,240.0,0
1870,-57.0,-35.0,236.0,0
1871,-57.0,-35.0,236.0,0
1872,-57.0,-38.0,238.0,0
1873,-57.0,-38.0,237.0,0
1874,-58.0,-35.0,239.0,0
1875,-57.0,-38.0,238.0,0
1876,-61.0,-39.0,228.0,0
1877,-57.0,-38.0,235.0,0
1878,-58.0,-40.0,238.0,0
1879,-59.0,-37.0,236.0,0
1880,-59.0,-36.0,236.0,0
1881,-58.0,-36.0,236.0,0
1882,-56.0,-36.0,236.0,0
1883,-57.0,-38.0,237.0,0
1884,-59.0,-36.0,238.0,0
1885,-57.0,-40.0,238.0,0
1886,-56.0,-34.0,236.0,0
1887,-58.0,-37.0,235.0,0
1888,-55.0,-38.0,233.0,0
1889,-57.0,-36.0,234.0,0
1890,-59.0,-38.0,233.0,0
1891,-55.0,-41.0,234.0,0
1892,-59.0,-43.0,238.0,0
1893,-56.0,-34.0,234.0,0
1894,-60.0,-40.0,237.0,0
1895,-58.0,-36.0,239.0,0
1896,-58.0,-38.0,236.0,0
1897,-57.0,-39.0,238.0,0
1898,-59.0,-38.0,235.0,0
1899,-57.0,-38.0,237.0,0
1900,-56.0,-40.0,236.0,0
1901,-57.0,-39.0,236.0,0
1902,-57.0,-38.0,239.0,0
1903,-56.0,-41.0,236.0,0
1904,-57.0,-36.0,236.0,0
1905,-56.0,-39.0,237.0,0
1906,-55.0,-40.0,235.0,0
1907,-59.0,-39.0,235.0,0
1908,-60.0,-39.0,237.0,0
1909,-57.0,-38.0,237.0,0
1910,-59.0,-36.0,236.0,0
1911,-55.0,-38.0,235.0,0
1912,-58.0,-41.0,236.0,0
1913,-58.0,-41.0,236.0,0
1914,-58.0,-37.0,236.0,0
1915,-56.0,-43.0,236.0,0
1916,-61.0,-36.0,236.0,0
1917,-57.0,-40.0,238.0,0
1918,-59.0,-42.0,236.0,0
1919,-61.0,-47.0,227.0,0
1920,-58.0,-43.0,235.0,0
1921,-58.0,-41.0,238.0,0
1922,-59.0,-42.0,235.0,0
1923,-58.0,-43.0,237.0,0
1924,-55.0,-40.0,235.0,0
1925,-56.0,-41.0,238.0,0
1926,-59.0,-39.0,236.0,0
1927,-59.0,-37.0,232.0,0
1928,-57.0,-41.0,234.0,0
1929,-58.0,-39.0,236.0,0
1930,-59.0,-42.0,235.0,0
1931,-55.0,-42.0,233.0,0
1932,-60.0,-41.0,237.0,0
1933,-59.0,-39.0,236.0,0
1934,-58.0,-39.0,233.0,0
1935,-55.0,-41.0,235.0,0
1936,-61.0,-40.0,235.0,0
1937,-58.0,-40.0,236.0,0
1938,-60.0,-39.0,238.0,0
1939,-56.0,-44.0,233.0,0
1940,-58.0,-43.0,233.0,0
1941,-57.0,-44.0,238.0,0
1942,-59.0,-42.0,236.0,0
1943,-59.0,-42.0,232.0,0
1944,-58.0,-37.0,233.0,0
1945,-56.0,-42.0,234.0,0
1946,-58.0,-40.0,236.0,0
1947,-58.0,-40.0,233.0,0
1948,-60.0,-38.0,237.0,0
1949,-55.0,-43.0,233.0,0
1950,-54.0,-41.0,235.0,0
1951,-58.0,-42.0,232.0,0
1952,-57.0,-42.0,235.0,0
1953,-58.0,-42.0,234.0,0
1954,-58.0,-39.0,232.0,0
1955,-59.0,-42.0,229.0,0
1956,-54.0,-45.0,234.0,0
1957,-57.0,-43.0,235.0,0
1958,-59.0,-43.0,233.0,0
1959,-56.0,-42.0,235.0,0
1960,-57.0,-43.0,235.0,0
1961,-57.0,-41.0,236.0,0
1962,-58.0,-39.0,231.0,0
1963,-49.0,-37.0,231.0,0
1964,-57.0,-38.0,236.0,0
1965,-56.0,-41.0,235.0,0
1966,-57.0,-43.0,236.0,0
1967,-59.0,-42.0,235.0,0
1968,-56.0,-39.0,236.0,0
1969,-59.0,-40.0,234.0,0
1970,-56.0,-42.0,234.0,0
1971,-61.0,-43.0,236.0,0
1972,-57.0,-40.0,236.0,0
1973,-59.0,-41.0,236.0,0
1974,-60.0,-41.0,234.0,0
1975,-60.0,-42.0,235.0,0
1976,-59.0,-41.0,234.0,0
1977,-59.0,-39.0,237.0,0
1978,-57.0,-41.0,235.0,0
1979,-58.0,-40.0,237.0,0
1980,-58.0,-42.0,237.0,0
1981,-57.0,-40.0,238.0,0
1982,-58.0,-44.0,237.0,0
1983,-58.0,-42.0,236.0,0
1984,-59.0,-36.0,234.0,0
1985,-61.0,-41.0,234.0,0
1986,-60.0,-40.0,234.0,0
1987,-59.0,-41.0,234.0,0
1988,-57.0,-38.0,231.0,0
1989,-58.0,-38.0,234.0,0
1990,-59.0,-37.0,236.0,0
1991,-55.0,-39.0,236.0,0
1992,-58.0,-36.0,237.0,0
1993,-55.0,-35.0,237.0,0
1994,-56.0,-38.0,235.0,0
1995,-59.0,-40.0,235.0,0
1996,-58.0,-38.0,237.0,0
1997,-59.0,-37.0,236.0,0
1998,-55.0,-37.0,235.0,0
1999,-57.0,-38.0,235.0,0
2000,-59.0,-36.0,237.0,0
2001,-58.0,-37.0,235.0,0
2002,-56.0,-38.0,237.0,0
2003,-55.0,-40.0,238.0,0
2004,-60.0,-38.0,236.0,0
2005,-59.0,-35.0,239.0,0
2006,-58.0,-39.0,242.0,0
2007,-54.0,-38.0,245.0,0
2008,-59.0,-35.0,236.0,0
2009,-60.0,-37.0,241.0,0
2010,-58.0,-38.0,237.0,0
2011,-56.0,-37.0,239.0,0
2012,-58.0,-36.0,238.0,0
2013,-58.0,-38.0,238.0,0
2014,-57.0,-36.0,236.0,0
2015,-60.0,-36.0,239.0,0
2016,-59.0,-39.0,235.0,0
2017,-59.0,-38.0,240.0,0
2018,-59.0,-36.0,234.0,0
2019,-58.0,-36.0,236.0,0
2020,-57.0,-37.0,235.0,0
2021,-59.0,-38.0,238.0,0
2022,-58.0,-36.0,237.0,0
2023,-60.0,-39.0,238.0,0
2024,-60.0,-39.0,235.0,0
2025,-59.0,-38.0,236.0,0
2026,-60.0,-39.0,238.0,0
2027,-58.0,-38.0,239.0,0
2028,-59.0,-37.0,236.0,0
2029,-59.0,-35.0,237.0,0
2030,-58.0,-38.0,237.0,0
2031,-58.0,-33.0,237.0,0
2032,-58.0,-35.0,240.0,0
2033,-59.0,-35.0,239.0,0
2034,-56.0,-39.0,237.0,0
2035,-55.0,-39.0,236.0,0
2036,-56.0,-38.0,236.0,0
2037,-57.0,-38.0,236.0,0
2038,-55.0,-39.0,235.0,0
2039,-55.0,-38.0,235.0,0
2040,-58.0,-38.0,237.0,0
2041,-56.0,-38.0,234.0,0
2042,-58.0,-38.0,238.0,0
2043,-58.0,-38.0,236.0,0
2044,-57.0,-36.0,236.0,0
2045,-55.0,-40.0,238.0,0
2046,-60.0,-37.0,238.0,0
2047,-58.0,-37.0,237.0,0
2048,-57.0,-38.0,238.0,0
2049,-59.0,-35.0,238.0,0
2050,-52.0,-36.0,237.0,0
2051,-56.0,-37.0,237.0,0
2052,-58.0,-35.0,237.0,0
2053,-57.0,-34.0,235.0,0
2054,-59.0,-35.0,238.0,0
2055,-59.0,-38.0,236.0,0
2056,-62.0,-33.0,235.0,0
2057,-59.0,-38.0,238.0,0
2058,-58.0,-37.0,235.0,0
2059,-59.0,-35.0,237.0,0
2060,-60.0,-37.0,241.0,0
2061,-56.0,-41.0,233.0,0
2062,-55.0,-39.0,237.0,0
2063,-58.0,-35.0,237.0,0
2064,-55.0,-39.0,238.0,0
2065,-61.0,-32.0,239.0,0
2066,-59.0,-38.0,240.0,0
2067,-56.0,-35.0,237.0,0
2068,-58.0,-36.0,236.0,0
2069,-60.0,-37.0,236.0,0
2070,-61.0,-36.0,238.0,0
2071,-58.0,-33.0,238.0,0
2072,-61.0,-36.0,237.0,0
2073,-58.0,-34.0,233.0,0
2074,-59.0,-37.0,235.0,0
2075,-58.0,-36.0,236.0,0
2076,-57.0,-33.0,237.0,0
2077,-56.0,-36.0,234.0,0
2078,-58.0,-36.0,236.0,0
2079,-57.0,-36.0,236.0,0
2080,-57.0,-36.0,241.0,0
2081,-59.0,-37.0,237.0,0
2082,-56.0,-39.0,236.0,0
2083,-60.0,-36.0,237.0,0
2084,-57.0,-36.0,237.0,0
2085,-57.0,-37.0,236.0,0
2086,-55.0,-37.0,238.0,0
2087,-57.0,-40.0,237.0,0
2088,-52.0,-38.0,238.0,0
2089,-58.0,-34.0,238.0,0
2090,-55.0,-35.0,236.0,0
2091,-58.0,-37.0,235.0,0
2092,-57.0,-43.0,238.0,0
2093,-56.0,-37.0,238.0,0
2094,-59.0,-36.0,236.0,0
2095,-55.0,-40.0,236.0,0
2096,-56.0,-38.0,235.0,0
2097,-56.0,-36.0,238.0,0
2098,-56.0,-35.0,235.0,0
2099,-57.0,-39.0,239.0,0
2100,-59.0,-37.0,236.0,0
2101,-57.0,-38.0,238.0,0
2102,-56.0,-37.0,241.0,0
2103,-58.0,-38.0,238.0,0
2104,-57.0,-38.0,235.0,0
2105,-55.0,-38.0,236.0,0
2106,-58.0,-37.0,236.0,0
2107,-58.0,-37.0,237.0,0
2108,-58.0,-38.0,237.0,0
2109,-58.0,-35.0,239.0,0
2110,-60.0,-38.0,237.0,0
2111,-60.0,-34.0,236.0,0
2112,-60.0,-37.0,241.0,0
2113,-59.0,-35.0,239.0,0
2114,-59.0,-38.0,235.0,0
2115,-59.0,-35.0,237.0,0
2116,-55.0,-40.0,237.0,0
2117,-56.0,-38.0,236.0,0
2118,-58.0,-36.0,235.0,0
2119,-55.0,-36.0,237.0,0
2120,-55.0,-40.0,237.0,0
2121,-57.0,-37.0,239.0,0
2122,-57.0,-37.0,241.0,0
2123,-59.0,-34.0,239.0,0
2124,-60.0,-38.0,235.0,0
2125,-56.0,-37.0,237.0,0
2126,-58.0,-35.0,239.0,0
2127,-59.0,-38.0,236.0,0
2128,-58.0,-36.0,237.0,0
2129,-58.0,-36.0,235.0,0
2130,-59.0,-33.0,235.0,0
2131,-58.0,-35.0,238.0,0
2132,-58.0,-39.0,238.0,0
2133,-60.0,-38.0,237.0,0
2134,-56.0,-36.0,236.0,0
2135,-59.0,-39.0,237.0,0
2136,-56.0,-38.0,236.0,0
2137,-57.0,-37.0,234.0,0
2138,-58.0,-34.0,238.0,0
2139,-58.0,-37.0,239.0,0
2140,-57.0,-36.0,236.0,0
2141,-58.0,-36.0,236.0,0
2142,-58.0,-35.0,238.0,0
2143,-57.0,-36.0,235.0,0
2144,-57.0,-33.0,238.0,0
2145,-58.0,-37.0,235.0,0
2146,-58.0,-37.0,237.0,0
2147,-54.0,-37.0,234.0,0
2148,-58.0,-34.0,235.0,0
2149,-55.0,-39.0,237.0,0
2150,-57.0,-35.0,239.0,0
2151,-58.0,-35.0,236.0,0
2152,-56.0,-31.0,237.0,0
2153,-61.0,-35.0,236.0,0
2154,-58.0,-35.0,237.0,0
2155,-60.0,-33.0,236.0,0
2156,-62.0,-32.0,237.0,0
2157,-59.0,-33.0,237.0,0
2158,-56.0,-36.0,241.0,0
2159,-54.0,-34.0,240.0,0
2160,-53.0,-39.0,236.0,0
2161,-57.0,-32.0,238.0,0
2162,-59.0,-37.0,241.0,0
2163,-59.0,-36.0,236.0,0
2164,-57.0,-41.0,237.0,0
2165,-59.0,-40.0,239.0,0
2166,-55.0,-39.0,240.0,0
2167,-56.0,-38.0,236.0,0
2168,-55.0,-36.0,236.0,0
2169,-59.0,-33.0,233.0,0
2170,-58.0,-33.0,235.0,0
2171,-59.0,-34.0,235.0,0
2172,-56.0,-32.0,234.0,0
2173,-53.0,-36.0,235.0,0
2174,-57.0,-32.0,235.0,0
2175,-56.0,-30.0,235.0,0
2176,-56.0,-33.0,236.0,0
2177,-58.0,-32.0,237.0,0
2178,-55.0,-32.0,237.0,0
2179,-55.0,-33.0,240.0,0
2180,-54.0,-32.0,239.0,0
2181,-57.0,-33.0,235.0,0
2182,-57.0,-31.0,239.0,0
2183,-59.0,-34.0,238.0,0
2184,-58.0,-32.0,237.0,0
2185,-58.0,-31.0,237.0,0
2186,-58.0,-31.0,238.0,0
2187,-60.0,-31.0,235.0,0
2188,-56.0,-34.0,239.0,0
2189,-57.0,-34.0,234.0,0
2190,-58.0,-33.0,236.0,0
2191,-56.0,-34.0,237.0,0
2192,-56.0,-30.0,235.0,0
2193,-58.0,-32.0,237.0,0
2194,-58.0,-36.0,238.0,0
2195,-57.0,-33.0,238.0,0
2196,-58.0,-31.0,237.0,0
2197,-58.0,-31.0,235.0,0
2198,-59.0,-32.0,238.0,0
2199,-59.0,-33.0,237.0,0
2200,-57.0,-31.0,236.0,0
2201,-58.0,-33.0,237.0,0
2202,-59.0,-32.0,239.0,0
2203,-61.0,-30.0,235.0,0
2204,-60.0,-33.0,238.0,0
2205,-58.0,-33.0,237.0,0
2206,-59.0,-32.0,239.0,0
2207,-58.0,-33.0,236.0,0
2208,-57.0,-32.0,238.0,0
2209,-57.0,-33.0,236.0,0
2210,-59.0,-35.0,237.0,0
2211,-57.0,-32.0,237.0,0
2212,-58.0,-32.0,237.0,0
2213,-55.0,-34.0,245.0,0
2214,-55.0,-33.0,237.0,0
2215,-57.0,-28.0,237.0,0
2216,-55.0,-34.0,238.0,0
2217,-59.0,-28.0,239.0,0
2218,-58.0,-29.0,237.0,0
2219,-56.0,-33.0,243.0,0
2220,-56.0,-33.0,238.0,0
2221,-56.0,-38.0,240.0,0
2222,-54.0,-34.0,238.0,0
2223,-58.0,-33.0,238.0,0
2224,-57.0,-36.0,239.0,0
2225,-56.0,-34.0,237.0,0
2226,-56.0,-33.0,239.0,0
2227,-57.0,-32.0,237.0,0
2228,-55.0,-36.0,238.0,0
2229,-55.0,-33.0,238.0,0
2230,-58.0,-30.0,238.0,0
2231,-60.0,-32.0,239.0,0
2232,-56.0,-31.0,236.0,0
2233,-55.0,-31.0,239.0,0
2234,-58.0,-33.0,236.0,0
2235,-58.0,-29.0,238.0,0
2236,-54.0,-31.0,241.0,0
2237,-57.0,-32.0,239.0,0
2238,-55.0,-31.0,237.0,0
2239,-55.0,-31.0,236.0,0
2240,-54.0,-32.0,238.0,0
2241,-57.0,-32.0,236.0,0
2242,-55.0,-29.0,237.0,0
2243,-57.0,-31.0,239.0,0
2244,-58.0,-29.0,242.0,0
2245,-57.0,-31.0,237.0,0
2246,-60.0,-32.0,234.0,0
2247,-57.0,-32.0,236.0,0
2248,-56.0,-34.0,238.0,0
2249,-57.0,-32.0,236.0,0
2250,-57.0,-32.0,236.0,0
2251,-55.0,-33.0,236.0,0
2252,-53.0,-34.0,239.0,0
2253,-58.0,-29.0,235.0,0
2254,-55.0,-30.0,236.0,0
2255,-59.0,-32.0,241.0,0
2256,-59.0,-30.0,236.0,0
2257,-53.0,-30.0,236.0,0
2258,-57.0,-32.0,233.0,0
2259,-58.0,-28.0,235.0,0
2260,-56.0,-30.0,236.0,0
2261,-57.0,-30.0,236.0,0
2262,-58.0,-31.0,239.0,0
2263,-58.0,-31.0,234.0,0
2264,-55.0,-31.0,235.0,0
2265,-58.0,-31.0,237.0,0
2266,-58.0,-31.0,239.0,0
2267,-58.0,-30.0,237.0,0
2268,-54.0,-32.0,238.0,0
2269,-57.0,-32.0,238.0,0
2270,-58.0,-30.0,242.0,0
2271,-57.0,-32.0,242.0,0
2272,-54.0,-31.0,238.0,0
2273,-55.0,-32.0,238.0,0
2274,-54.0,-31.0,238.0,0
2275,-55.0,-33.0,238.0,0
2276,-52.0,-33.0,236.0,0
2277,-55.0,-31.0,236.0,0
2278,-57.0,-27.0,238.0,0
2279,-56.0,-34.0,239.0,0
2280,-59.0,-33.0,237.0,0
2281,-53.0,-32.0,235.0,0
2282,-58.0,-30.0,238.0,0
2283,-56.0,-30.0,239.0,0
2284,-59.0,-31.0,235.0,0
2285,-53.0,-33.0,236.0,0
2286,-55.0,-30.0,236.0,0
2287,-55.0,-29.0,237.0,0
2288,-53.0,-32.0,236.0,0
2289,-56.0,-28.0,240.0,0
2290,-51.0,-29.0,232.0,0
2291,-56.0,-30.0,240.0,0
2292,-57.0,-30.0,239.0,0
2293,-55.0,-30.0,238.0,0
2294,-56.0,-30.0,237.0,0
2295,-57.0,-29.0,237.0,0
2296,-57.0,-31.0,236.0,0
2297,-54.0,-33.0,237.0,0
2298,-57.0,-31.0,238.0,0
2299,-57.0,-31.0,239.0,0
2300,-57.0,-31.0,241.0,0
2301,-58.0,-29.0,238.0,0
2302,-54.0,-31.0,237.0,0
2303,-55.0,-32.0,238.0,0
2304,-56.0,-29.0,236.0,0
2305,-57.0,-31.0,237.0,0
2306,-57.0,-32.0,236.0,0
2307,-53.0,-31.0,238.0,0
2308,-55.0,-28.0,239.0,0
2309,-53.0,-32.0,235.0,0
2310,-56.0,-32.0,237.0,0
2311,-52.0,-33.0,241.0,0
2312,-54.0,-28.0,239.0,0
2313,-56.0,-29.0,235.0,0
2314,-58.0,-30.0,238.0,0
2315,-51.0,-32.0,238.0,0
2316,-57.0,-29.0,239.0,0
2317,-55.0,-28.0,235.0,0
2318,-55.0,-29.0,240.0,0
2319,-54.0,-34.0,239.0,0
2320,-55.0,-29.0,239.0,0
2321,-56.0,-30.0,238.0,0
2322,-59.0,-29.0,238.0,0
2323,-53.0,-29.0,238.0,0
2324,-55.0,-30.0,237.0,0
2325,-56.0,-33.0,238.0,0
2326,-54.0,-29.0,237.0,0
2327,-54.0,-31.0,238.0,0
2328,-55.0,-34.0,240.0,0
2329,-55.0,-31.0,236.0,0
2330,-57.0,-31.0,237.0,0
2331,-60.0,-30.0,237.0,0
2332,-56.0,-33.0,238.0,0
2333,-57.0,-29.0,239.0,0
2334,-57.0,-29.0,236.0,0
2335,-58.0,-29.0,238.0,0
2336,-57.0,-28.0,240.0,0
2337,-57.0,-31.0,237.0,0
2338,-57.0,-29.0,238.0,0
2339,-56.0,-29.0,237.0,0
2340,-57.0,-30.0,240.0,0
2341,-55.0,-28.0,238.0,0
2342,-57.0,-30.0,238.0,0
2343,-57.0,-29.0,240.0,0
2344,-52.0,-29.0,249.0,0
2345,-58.0,-27.0,237.0,0
2346,-55.0,-31.0,237.0,0
2347,-55.0,-29.0,240.0,0
2348,-56.0,-27.0,237.0,0
2349,-57.0,-28.0,238.0,0
2350,-55.0,-30.0,237.0,0
2351,-57.0,-27.0,235.0,0
2352,-57.0,-29.0,237.0,0
2353,-54.0,-27.0,236.0,0
2354,-57.0,-30.0,241.0,0
2355,-58.0,-29.0,245.0,0
2356,-53.0,-31.0,235.0,0
2357,-57.0,-32.0,247.0,0
2358,-58.0,-33.0,233.0,0
2359,-54.0,-28.0,239.0,0
2360,-60.0,-25.0,239.0,0
2361,-48.0,-31.0,238.0,0
2362,-47.0,-36.0,246.0,0
2363,-53.0,-32.0,241.0,0
2364,-58.0,-22.0,244.0,0
2365,-61.0,-28.0,234.0,0
2366,-55.0,-34.0,237.0,0
2367,-55.0,-32.0,238.0,0
2368,-56.0,-30.0,238.0,0
2369,-57.0,-31.0,238.0,0
2370,-68.0,-26.0,232.0,0
2371,-61.0,-36.0,230.0,0
2372,-54.0,-36.0,244.0,0
2373,-68.0,-34.0,246.0,0
2374,-63.0,-21.0,233.0,0
2375,-57.0,-25.0,235.0,0
2376,-63.0,-34.0,231.0,0
2377,-59.0,-22.0,241.0,0
2378,-59.0,-32.0,237.0,0
2379,-54.0,-29.0,241.0,0
2380,-61.0,-35.0,242.0,0
2381,-57.0,-27.0,237.0,0
2382,-57.0,-32.0,237.0,0
2383,-54.0,-32.0,238.0,0
2384,-56.0,-32.0,241.0,0
2385,-64.0,-33.0,247.0,0
2386,-42.0,-48.0,230.0,0
2387,-70.0,-38.0,239.0,0
2388,-49.0,-30.0,239.0,0
2389,-52.0,-34.0,232.0,0
2390,-54.0,-22.0,231.0,0
2391,-56.0,-25.0,227.0,0
2392,-53.0,-44.0,218.0,0
2393,-62.0,-32.0,230.0,0
2394,-58.0,-29.0,227.0,0
2395,-48.0,-32.0,234.0,0
2396,-70.0,-37.0,232.0,0
2397,-55.0,-33.0,237.0,0
2398,-55.0,-33.0,238.0,0
2399,-57.0,-34.0,237.0,0
2400,-54.0,-33.0,239.0,0
2401,-57.0,-31.0,246.0,0
2402,-54.0,-39.0,233.0,0
2403,-56.0,-24.0,234.0,0
2404,-58.0,-30.0,239.0,0
2405,-55.0,-32.0,237.0,0
2406,-50.0,-30.0,234.0,0
2407,-53.0,-27.0,247.0,0
2408,-55.0,-31.0,244.0,0
2409,-49.0,-41.0,236.0,0
2410,-55.0,-38.0,244.0,0
2411,-55.0,-37.0,244.0,0
2412,-57.0,-38.0,242.0,0
2413,-57.0,-36.0,241.0,0
2414,-57.0,-38.0,238.0,0
2415,-61.0,-40.0,239.0,0
2416,-63.0,-44.0,232.0,0
2417,-59.0,-33.0,235.0,0
2418,-47.0,-27.0,230.0,0
2419,-34.0,-30.0,235.0,0
2420,-55.0,-48.0,239.0,0
2421,-51.0,-22.0,223.0,0
2422,-61.0,-27.0,219.0,0
2423,-56.0,-31.0,210.0,0
2424,-58.0,-22.0,236.0,0
2425,-44.0,-30.0,236.0,0
2426,-57.0,-36.0,247.0,0
2427,-58.0,-35.0,235.0,0
2428,-59.0,-36.0,236.0,0
2429,-59.0,-33.0,237.0,0
2430,-58.0,-29.0,239.0,0
2431,-57.0,-42.0,246.0,0
2432,-55.0,-37.0,251.0,0
2433,-56.0,-44.0,240.0,0
2434,-62.0,-35.0,223.0,0
2435,-59.0,-26.0,231.0,0
2436,-56.0,-44.0,234.0,0
2437,-57.0,-43.0,240.0,0
2438,-50.0,-40.0,234.0,0
2439,-55.0,-25.0,256.0,0
2440,-85.0,-40.0,231.0,0
2441,-64.0,-39.0,238.0,0
2442,-58.0,-36.0,237.0,0
2443,-57.0,-39.0,236.0,0
2444,-54.0,-37.0,238.0,0
2445,-59.0,-37.0,237.0,0
2446,-54.0,-29.0,232.0,0
2447,-60.0,-40.0,232.0,0
2448,-62.0,-36.0,230.0,0
2449,-51.0,-36.0,241.0,0
2450,-50.0,-43.0,237.0,0
2451,-55.0,-37.0,238.0,0
2452,-61.0,-37.0,238.0,0
2453,-58.0,-36.0,236.0,0
2454,-56.0,-38.0,240.0,0
2455,-59.0,-44.0,236.0,0
2456,-58.0,-38.0,233.0,0
2457,-58.0,-34.0,237.0,0
2458,-58.0,-38.0,235.0,0
2459,-58.0,-37.0,236.0,0
2460,-56.0,-34.0,239.0,0
2461,-57.0,-36.0,236.0,0
2462,-54.0,-35.0,235.0,0
2463,-56.0,-34.0,236.0,0
2464,-54.0,-35.0,236.0,0
2465,-57.0,-36.0,239.0,0
2466,-58.0,-38.0,237.0,0
2467,-57.0,-39.0,237.0,0
2468,-55.0,-39.0,238.0,0
2469,-55.0,-36.0,243.0,0
2470,-56.0,-36.0,238.0,0
2471,-57.0,-41.0,237.0,0
2472,-56.0,-41.0,236.0,0
2473,-57.0,-39.0,239.0,0
2474,-56.0,-37.0,235.0,0
2475,-59.0,-38.0,234.0,0
2476,-60.0,-39.0,239.0,0
2477,-58.0,-38.0,234.0,0
2478,-55.0,-40.0,239.0,0
2479,-56.0,-37.0,236.0,0
2480,-57.0,-39.0,234.0,0
2481,-55.0,-36.0,236.0,0
2482,-59.0,-35.0,238.0,0
2483,-58.0,-37.0,238.0,0
2484,-58.0,-37.0,237.0,0
2485,-57.0,-37.0,237.0,0
2486,-56.0,-34.0,228.0,0
2487,-57.0,-38.0,238.0,0
2488,-58.0,-37.0,239.0,0
2489,-58.0,-39.0,238.0,0
2490,-57.0,-39.0,236.0,0
2491,-60.0,-38.0,238.0,0
2492,-57.0,-38.0,235.0,0
2493,-60.0,-36.0,235.0,0
2494,-58.0,-39.0,235.0,0
2495,-58.0,-42.0,240.0,0
2496,-56.0,-40.0,239.0,0
2497,-57.0,-40.0,236.0,0
2498,-55.0,-37.0,234.0,0
2499,-59.0,-41.0,236.0,0
2500,-58.0,-41.0,234.0,0
2501,-57.0,-40.0,237.0,0
2502,-56.0,-39.0,236.0,0
2503,-60.0,-39.0,235.0,0
2504,-60.0,-37.0,236.0,0
2505,-55.0,-40.0,235.0,0
2506,-56.0,-39.0,236.0,0
2507,-57.0,-40.0,237.0,0
2508,-55.0,-37.0,235.0,0
2509,-58.0,-37.0,237.0,0
2510,-58.0,-38.0,237.0,0
2511,-56.0,-43.0,238.0,0
2512,-56.0,-41.0,236.0,0
2513,-58.0,-41.0,237.0,0
2514,-56.0,-40.0,236.0,0
2515,-56.0,-41.0,236.0,0
2516,-54.0,-39.0,237.0,0
2517,-55.0,-40.0,237.0,0
2518,-55.0,-41.0,232.0,0
2519,-56.0,-40.0,239.0,0
2520,-57.0,-41.0,236.0,0
2521,-59.0,-41.0,238.0,0
2522,-60.0,-39.0,236.0,0
2523,-57.0,-41.0,236.0,0
2524,-57.0,-40.0,236.0,0
2525,-57.0,-40.0,236.0,0
2526,-58.0,-41.0,239.0,0
2527,-55.0,-42.0,238.0,0
2528,-60.0,-41.0,236.0,0
2529,-59.0,-40.0,234.0,0
2530,-58.0,-40.0,234.0,0
2531,-58.0,-40.0,234.0,0
2532,-56.0,-40.0,237.0,0
2533,-59.0,-38.0,236.0,0
2534,-62.0,-39.0,236.0,0
2535,-58.0,-43.0,235.0,0
2536,-57.0,-40.0,235.0,0
2537,-59.0,-39.0,236.0,0
2538,-57.0,-40.0,238.0,0
2539,-59.0,-41.0,236.0,0
2540,-58.0,-41.0,237.0,0
2541,-58.0,-41.0,237.0,0
2542,-60.0,-42.0,238.0,0
2543,-58.0,-44.0,236.0,0
2544,-57.0,-39.0,239.0,0
2545,-58.0,-41.0,237.0,0
2546,-61.0,-40.0,234.0,0
2547,-60.0,-41.0,236.0,0
2548,-60.0,-42.0,236.0,0
2549,-57.0,-42.0,235.0,0
2550,-60.0,-40.0,231.0,0
2551,-57.0,-40.0,235.0,0
2552,-57.0,-43.0,235.0,0
2553,-58.0,-42.0,236.0,0
2554,-58.0,-43.0,232.0,0
2555,-59.0,-42.0,236.0,0
2556,-56.0,-41.0,238.0,0
2557,-55.0,-45.0,235.0,0
2558,-58.0,-41.0,236.0,0
2559,-59.0,-39.0,237.0,0
2560,-58.0,-43.0,235.0,0
2561,-55.0,-44.0,235.0,0
2562,-55.0,-43.0,236.0,0
2563,-57.0,-40.0,233.0,0
2564,-54.0,-42.0,236.0,0
2565,-56.0,-41.0,238.0,0
2566,-57.0,-43.0,235.0,0
2567,-59.0,-42.0,237.0,0
2568,-56.0,-42.0,236.0,0
2569,-60.0,-38.0,233.0,0
2570,-57.0,-41.0,235.0,0
2571,-59.0,-42.0,233.0,0
2572,-59.0,-39.0,236.0,0
2573,-57.0,-42.0,237.0,0
2574,-57.0,-45.0,237.0,0
2575,-52.0,-42.0,236.0,0
2576,-58.0,-42.0,237.0,0
2577,-59.0,-39.0,237.0,0
2578,-57.0,-44.0,236.0,0
2579,-58.0,-42.0,234.0,0
2580,-56.0,-42.0,236.0,0
2581,-57.0,-41.0,235.0,0
2582,-59.0,-43.0,237.0,0
2583,-57.0,-46.0,238.0,0
2584,-57.0,-42.0,231.0,0
2585,-59.0,-39.0,235.0,0
2586,-60.0,-41.0,236.0,0
2587,-57.0,-41.0,235.0,0
2588,-60.0,-43.0,233.0,0
2589,-58.0,-41.0,234.0,0
2590,-60.0,-40.0,236.0,0
2591,-57.0,-44.0,238.0,0
2592,-61.0,-40.0,236.0,0
2593,-57.0,-41.0,235.0,0
2594,-58.0,-41.0,236.0,0
2595,-51.0,-47.0,236.0,0
2596,-57.0,-40.0,236.0,0
2597,-59.0,-43.0,236.0,0
2598,-60.0,-40.0,235.0,0
2599,-61.0,-41.0,239.0,0
2600,-57.0,-41.0,235.0,0
2601,-58.0,-42.0,238.0,0
2602,-56.0,-44.0,236.0,0
2603,-58.0,-41.0,236.0,0
2604,-59.0,-41.0,236.0,0
2605,-57.0,-44.0,239.0,0
2606,-56.0,-43.0,236.0,0
2607,-58.0,-42.0,236.0,0
2608,-55.0,-43.0,237.0,0
2609,-59.0,-40.0,234.0,0
2610,-60.0,-43.0,235.0,0
2611,-56.0,-41.0,232.0,0
2612,-57.0,-38.0,236.0,0
2613,-57.0,-39.0,234.0,0
2614,-57.0,-40.0,236.0,0
2615,-55.0,-44.0,236.0,0
2616,-57.0,-40.0,237.0,0
2617,-57.0,-41.0,230.0,0
2618,-58.0,-41.0,237.0,0
2619,-57.0,-41.0,235.0,0
2620,-58.0,-40.0,235.0,0
2621,-56.0,-41.0,236.0,0
2622,-59.0,-46.0,236.0,0
2623,-57.0,-43.0,238.0,0
2624,-58.0,-40.0,235.0,0
2625,-56.0,-39.0,239.0,0
2626,-57.0,-37.0,241.0,0
2627,-57.0,-40.0,236.0,0
2628,-57.0,-38.0,234.0,0
2629,-55.0,-42.0,237.0,0
2630,-58.0,-42.0,234.0,0
2631,-58.0,-39.0,237.0,0
2632,-59.0,-37.0,239.0,0
2633,-59.0,-42.0,240.0,0
2634,-59.0,-44.0,239.0,0
2635,-56.0,-43.0,238.0,0
2636,-59.0,-43.0,236.0,0
2637,-59.0,-42.0,237.0,0
2638,-61.0,-41.0,243.0,0
2639,-58.0,-43.0,235.0,0
2640,-60.0,-40.0,238.0,0
2641,-59.0,-42.0,234.0,0
2642,-58.0,-39.0,230.0,0
2643,-59.0,-40.0,237.0,0
2644,-58.0,-39.0,234.0,0
2645,-57.0,-41.0,236.0,0
2646,-59.0,-38.0,237.0,0
2647,-57.0,-37.0,234.0,0
2648,-60.0,-41.0,236.0,0
2649,-58.0,-38.0,239.0,0
2650,-58.0,-38.0,234.0,0
2651,-59.0,-38.0,239.0,0
2652,-57.0,-34.0,236.0,0
2653,-57.0,-38.0,235.0,0
2654,-55.0,-39.0,241.0,0
2655,-56.0,-42.0,238.0,0
2656,-56.0,-40.0,238.0,0
2657,-58.0,-40.0,236.0,0
2658,-60.0,-38.0,238.0,0
2659,-57.0,-39.0,237.0,0
2660,-57.0,-42.0,234.0,0
2661,-59.0,-40.0,238.0,0
2662,-57.0,-39.0,235.0,0
2663,-59.0,-39.0,238.0,0
2664,-57.0,-37.0,235.0,0
2665,-55.0,-39.0,237.0,0
2666,-58.0,-41.0,241.0,0
2667,-56.0,-37.0,239.0,0
2668,-57.0,-38.0,234.0,0
2669,-56.0,-41.0,236.0,0
2670,-60.0,-37.0,236.0,0
2671,-56.0,-38.0,234.0,0
2672,-57.0,-42.0,238.0,0
2673,-53.0,-41.0,234.0,0
2674,-59.0,-37.0,236.0,0
2675,-59.0,-38.0,236.0,0
2676,-55.0,-37.0,235.0,0
2677,-58.0,-38.0,233.0,0
2678,-57.0,-41.0,234.0,0
2679,-57.0,-39.0,235.0,0
2680,-55.0,-40.0,236.0,0
2681,-57.0,-41.0,237.0,0
2682,-57.0,-48.0,235.0,0
2683,-60.0,-36.0,233.0,0
2684,-55.0,-40.0,236.0,0
2685,-56.0,-35.0,234.0,0
2686,-56.0,-37.0,234.0,0
2687,-56.0,-37.0,237.0,0
2688,-57.0,-35.0,235.0,0
2689,-58.0,-38.0,234.0,0
2690,-55.0,-38.0,237.0,0
2691,-56.0,-41.0,239.0,0
2692,-60.0,-35.0,237.0,0
2693,-57.0,-38.0,238.0,0
2694,-58.0,-41.0,236.0,0
2695,-57.0,-43.0,235.0,0
2696,-57.0,-40.0,235.0,0
2697,-58.0,-42.0,237.0,0
2698,-57.0,-40.0,236.0,0
2699,-58.0,-41.0,235.0,0
2700,-56.0,-41.0,235.0,0
2701,-58.0,-39.0,238.0,0
2702,-57.0,-40.0,235.0,0
2703,-59.0,-39.0,236.0,0
2704,-61.0,-41.0,234.0,0
2705,-59.0,-38.0,236.0,0
2706,-59.0,-40.0,236.0,0
2707,-60.0,-40.0,235.0,0
2708,-57.0,-36.0,239.0,0
2709,-59.0,-38.0,236.0,0
2710,-58.0,-42.0,237.0,0
2711,-58.0,-38.0,236.0,0
2712,-56.0,-38.0,236.0,0
2713,-57.0,-37.0,238.0,0
2714,-58.0,-38.0,236.0,0
2715,-58.0,-39.0,236.0,0
2716,-58.0,-41.0,235.0,0
2717,-60.0,-37.0,237.0,0
2718,-57.0,-40.0,239.0,0
2719,-60.0,-37.0,237.0,0
2720,-60.0,-39.0,236.0,0
2721,-62.0,-34.0,235.0,0
2722,-62.0,-36.0,239.0,0
2723,-56.0,-39.0,236.0,0
2724,-61.0,-37.0,238.0,0
2725,-58.0,-39.0,238.0,0
2726,-56.0,-43.0,234.0,0
2727,-57.0,-37.0,238.0,0
2728,-60.0,-39.0,235.0,0
2729,-59.0,-38.0,233.0,0
2730,-61.0,-36.0,236.0,0
2731,-56.0,-39.0,235.0,0
2732,-57.0,-39.0,236.0,0
2733,-58.0,-38.0,236.0,0
2734,-57.0,-37.0,238.0,0
2735,-57.0,-40.0,235.0,0
2736,-58.0,-40.0,237.0,0
2737,-56.0,-37.0,238.0,0
2738,-56.0,-40.0,240.0,0
2739,-57.0,-37.0,236.0,0
2740,-56.0,-41.0,236.0,0
2741,-55.0,-41.0,236.0,0
2742,-59.0,-39.0,236.0,0
2743,-55.0,-41.0,237.0,0
2744,-57.0,-39.0,237.0,0
2745,-57.0,-40.0,236.0,0
2746,-54.0,-36.0,237.0,0
2747,-60.0,-39.0,234.0,0
2748,-58.0,-38.0,236.0,0
2749,-55.0,-40.0,234.0,0
2750,-58.0,-39.0,233.0,0
2751,-57.0,-40.0,238.0,0
2752,-57.0,-41.0,236.0,0
2753,-57.0,-38.0,237.0,0
2754,-55.0,-38.0,236.0,0
2755,-61.0,-39.0,238.0,0
2756,-55.0,-41.0,233.0,0
2757,-59.0,-38.0,238.0,0
2758,-61.0,-40.0,236.0,0
2759,-60.0,-37.0,237.0,0
2760,-59.0,-39.0,234.0,0
2761,-57.0,-38.0,235.0,0
2762,-57.0,-37.0,234.0,0
2763,-56.0,-40.0,236.0,0
2764,-57.0,-41.0,235.0,0
2765,-57.0,-38.0,235.0,0
2766,-58.0,-35.0,237.0,0
2767,-56.0,-42.0,237.0,0
2768,-57.0,-40.0,235.0,0
2769,-55.0,-38.0,237.0,0
2770,-60.0,-38.0,234.0,0
2771,-57.0,-39.0,236.0,0
2772,-57.0,-40.0,237.0,0
2773,-59.0,-39.0,239.0,0
2774,-60.0,-40.0,236.0,0
2775,-58.0,-39.0,234.0,0
2776,-59.0,-35.0,237.0,0
2777,-56.0,-38.0,235.0,0
2778,-61.0,-38.0,234.0,0
2779,-59.0,-37.0,236.0,0
2780,-59.0,-39.0,235.0,0
2781,-57.0,-40.0,236.0,0
2782,-57.0,-38.0,237.0,0
2783,-62.0,-37.0,235.0,0
2784,-58.0,-36.0,235.0,0
2785,-59.0,-38.0,237.0,0
2786,-60.0,-38.0,237.0,0
2787,-60.0,-38.0,237.0,0
2788,-58.0,-35.0,235.0,0
2789,-59.0,-38.0,239.0,0
2790,-57.0,-34.0,238.0,0
2791,-60.0,-36.0,237.0,0
2792,-61.0,-36.0,236.0,0
2793,-56.0,-38.0,236.0,0
2794,-59.0,-36.0,234.0,0
2795,-60.0,-38.0,234.0,0
2796,-58.0,-36.0,236.0,0
2797,-60.0,-36.0,234.0,0
2798,-59.0,-36.0,239.0,0
2799,-58.0,-35.0,231.0,0
2800,-62.0,-34.0,234.0,0
2801,-59.0,-36.0,236.0,0
2802,-57.0,-36.0,235.0,0
2803,-60.0,-35.0,234.0,0
2804,-56.0,-35.0,233.0,0
2805,-57.0,-36.0,235.0,0
2806,-57.0,-35.0,236.0,0
2807,-60.0,-37.0,232.0,0
2808,-57.0,-37.0,239.0,0
2809,-56.0,-35.0,239.0,0
2810,-58.0,-33.0,236.0,0
2811,-57.0,-34.0,239.0,0
2812,-60.0,-36.0,236.0,0
2813,-53.0,-21.0,235.0,0
2814,-60.0,-33.0,236.0,0
2815,-56.0,-35.0,236.0,0
2816,-59.0,-35.0,236.0,0
2817,-59.0,-32.0,239.0,0
2818,-56.0,-35.0,236.0,0
2819,-59.0,-34.0,238.0,0
2820,-59.0,-31.0,237.0,0
2821,-61.0,-33.0,236.0,0
2822,-56.0,-37.0,238.0,0
2823,-58.0,-31.0,237.0,0
2824,-59.0,-32.0,239.0,0
2825,-57.0,-33.0,237.0,0
2826,-55.0,-31.0,237.0,0
2827,-58.0,-32.0,238.0,0
2828,-59.0,-29.0,237.0,0
2829,-55.0,-30.0,238.0,0
2830,-58.0,-29.0,236.0,0
2831,-60.0,-30.0,243.0,0
2832,-56.0,-29.0,236.0,0
2833,-60.0,-29.0,234.0,0
2834,-60.0,-28.0,236.0,0
2835,-58.0,-33.0,236.0,0
2836,-59.0,-30.0,239.0,0
2837,-57.0,-32.0,237.0,0
2838,-55.0,-32.0,236.0,0
2839,-56.0,-32.0,237.0,0
2840,-57.0,-31.0,236.0,0
2841,-55.0,-31.0,238.0,0
2842,-55.0,-32.0,237.0,0
2843,-56.0,-34.0,239.0,0
2844,-59.0,-33.0,238.0,0
2845,-58.0,-33.0,238.0,0
2846,-58.0,-30.0,239.0,0
2847,-58.0,-34.0,235.0,0
2848,-57.0,-32.0,238.0,0
2849,-58.0,-31.0,237.0,0
2850,-57.0,-29.0,238.0,0
2851,-58.0,-33.0,239.0,0
2852,-58.0,-30.0,237.0,0
2853,-59.0,-32.0,236.0,0
2854,-56.0,-34.0,239.0,0
2855,-57.0,-30.0,236.0,0
2856,-54.0,-34.0,241.0,0
2857,-54.0,-34.0,236.0,0
2858,-56.0,-36.0,240.0,0
2859,-58.0,-35.0,238.0,0
2860,-61.0,-34.0,238.0,0
2861,-59.0,-36.0,235.0,0
2862,-60.0,-36.0,239.0,0
2863,-57.0,-35.0,238.0,0
2864,-58.0,-33.0,239.0,0
2865,-57.0,-35.0,238.0,0
2866,-60.0,-34.0,236.0,0
2867,-58.0,-31.0,236.0,0
2868,-57.0,-32.0,234.0,0
2869,-58.0,-30.0,234.0,0
2870,-58.0,-34.0,236.0,0
2871,-55.0,-31.0,235.0,0
2872,-59.0,-33.0,237.0,0
2873,-56.0,-32.0,238.0,0
2874,-55.0,-30.0,238.0,0
2875,-53.0,-31.0,239.0,0
2876,-57.0,-31.0,240.0,0
2877,-55.0,-32.0,240.0,0
2878,-59.0,-33.0,238.0,0
2879,-56.0,-33.0,235.0,0
2880,-56.0,-31.0,238.0,0
2881,-57.0,-31.0,237.0,0
2882,-61.0,-35.0,240.0,0
2883,-59.0,-32.0,239.0,0
2884,-56.0,-33.0,240.0,0
2885,-58.0,-31.0,239.0,0
2886,-56.0,-35.0,239.0,0
2887,-57.0,-34.0,244.0,0
2888,-57.0,-33.0,237.0,0
2889,-59.0,-35.0,242.0,0
2890,-58.0,-34.0,239.0,0
2891,-56.0,-36.0,241.0,0
2892,-57.0,-35.0,236.0,0
2893,-56.0,-36.0,238.0,0
2894,-57.0,-34.0,237.0,0
2895,-57.0,-32.0,239.0,0
2896,-58.0,-35.0,238.0,0
2897,-58.0,-33.0,238.0,0
2898,-61.0,-34.0,235.0,0
2899,-56.0,-32.0,239.0,0
2900,-60.0,-35.0,238.0,0
2901,-56.0,-37.0,236.0,0
2902,-56.0,-35.0,237.0,0
2903,-59.0,-36.0,237.0,0
2904,-58.0,-37.0,236.0,0
2905,-57.0,-39.0,237.0,0
2906,-58.0,-34.0,239.0,0
2907,-58.0,-36.0,234.0,0
2908,-54.0,-36.0,236.0,0
2909,-58.0,-37.0,239.0,0
2910,-58.0,-38.0,236.0,0
2911,-59.0,-37.0,237.0,0
2912,-59.0,-34.0,234.0,0
2913,-59.0,-36.0,236.0,0
2914,-57.0,-37.0,239.0,0
2915,-59.0,-36.0,235.0,0
2916,-55.0,-36.0,234.0,0
2917,-57.0,-38.0,235.0,0
2918,-56.0,-39.0,235.0,0
2919,-57.0,-39.0,237.0,0
2920,-57.0,-40.0,235.0,0
2921,-59.0,-40.0,237.0,0
2922,-55.0,-40.0,247.0,0
2923,-58.0,-40.0,237.0,0
2924,-59.0,-41.0,236.0,0
2925,-61.0,-40.0,235.0,0
2926,-57.0,-37.0,236.0,0
2927,-60.0,-36.0,234.0,0
2928,-58.0,-37.0,236.0,0
2929,-58.0,-39.0,237.0,0
2930,-59.0,-37.0,236.0,0
2931,-56.0,-38.0,235.0,0
2932,-60.0,-39.0,236.0,0
2933,-59.0,-41.0,237.0,0
2934,-55.0,-41.0,235.0,0
2935,-60.0,-37.0,239.0,0
2936,-58.0,-40.0,236.0,0
2937,-56.0,-38.0,238.0,0
2938,-56.0,-38.0,236.0,0
2939,-59.0,-35.0,236.0,0
2940,-57.0,-38.0,235.0,0
2941,-57.0,-38.0,237.0,0
2942,-58.0,-40.0,237.0,0
2943,-57.0,-40.0,238.0,0
2944,-57.0,-39.0,236.0,0
2945,-56.0,-43.0,237.0,0
2946,-58.0,-39.0,238.0,0
2947,-60.0,-42.0,234.0,0
2948,-57.0,-39.0,236.0,0
2949,-58.0,-40.0,235.0,0
2950,-60.0,-43.0,234.0,0
2951,-60.0,-39.0,234.0,0
2952,-56.0,-40.0,233.0,0
2953,-59.0,-39.0,239.0,0
2954,-55.0,-42.0,233.0,0
2955,-60.0,-42.0,234.0,0
2956,-59.0,-40.0,232.0,0
2957,-61.0,-39.0,235.0,0
2958,-60.0,-39.0,232.0,0
2959,-57.0,-40.0,234.0,0
2960,-59.0,-36.0,237.0,0
2961,-59.0,-39.0,235.0,0
2962,-55.0,-41.0,236.0,0
2963,-59.0,-38.0,238.0,0
2964,-57.0,-41.0,237.0,0
2965,-56.0,-43.0,233.0,0
2966,-56.0,-40.0,237.0,0
2967,-58.0,-40.0,236.0,0
2968,-58.0,-41.0,236.0,0
2969,-59.0,-40.0,233.0,0
2970,-59.0,-41.0,233.0,0
2971,-57.0,-42.0,233.0,0
2972,-58.0,-41.0,239.0,0
2973,-58.0,-41.0,233.0,0
2974,-58.0,-39.0,237.0,0
2975,-58.0,-44.0,236.0,0
2976,-60.0,-40.0,235.0,0
2977,-59.0,-43.0,236.0,0
2978,-58.0,-41.0,236.0,0
2979,-56.0,-42.0,238.0,0
2980,-58.0,-41.0,235.0,0
2981,-56.0,-42.0,236.0,0
2982,-58.0,-43.0,237.0,0
2983,-58.0,-43.0,235.0,0
2984,-60.0,-41.0,238.0,0
2985,-59.0,-39.0,238.0,0
2986,-57.0,-39.0,232.0,0
2987,-61.0,-43.0,235.0,0
2988,-59.0,-42.0,235.0,0
2989,-56.0,-39.0,235.0,0
2990,-60.0,-39.0,236.0,0
2991,-58.0,-39.0,238.0,0
2992,-58.0,-40.0,235.0,0
2993,-58.0,-41.0,237.0,0
2994,-56.0,-42.0,238.0,0
2995,-59.0,-41.0,240.0,0
2996,-56.0,-39.0,234.0,0
2997,-57.0,-41.0,238.0,0
2998,-59.0,-39.0,235.0,0
2999,-59.0,-41.0,235.0,0
