,accelerometer_x,accelerometer_y,accelerometer_z,fall
0,6.0,-258.0,35.0,0
1,10.0,-255.0,35.0,0
2,5.0,-252.0,31.0,0
3,8.0,-254.0,32.0,0
4,11.0,-254.0,35.0,0
5,11.0,-258.0,40.0,0
6,8.0,-255.0,36.0,0
7,8.0,-255.0,36.0,0
8,5.0,-252.0,35.0,0
9,5.0,-253.0,35.0,0
10,8.0,-254.0,41.0,0
11,6.0,-253.0,38.0,0
12,6.0,-254.0,37.0,0
13,9.0,-254.0,34.0,0
14,10.0,-257.0,33.0,0
15,3.0,-253.0,36.0,0
16,7.0,-256.0,36.0,0
17,7.0,-256.0,34.0,0
18,7.0,-255.0,41.0,0
19,7.0,-256.0,31.0,0
20,10.0,-255.0,34.0,0
21,8.0,-253.0,34.0,0
22,10.0,-256.0,36.0,0
23,6.0,-250.0,37.0,0
24,6.0,-254.0,32.0,0
25,3.0,-252.0,38.0,0
26,9.0,-256.0,37.0,0
27,8.0,-255.0,36.0,0
28,7.0,-254.0,35.0,0
29,4.0,-254.0,37.0,0
30,8.0,-253.0,36.0,0
31,4.0,-256.0,40.0,0
32,8.0,-255.0,36.0,0
33,3.0,-255.0,36.0,0
34,6.0,-258.0,31.0,0
35,7.0,-255.0,39.0,0
36,8.0,-257.0,37.0,0
37,6.0,-252.0,35.0,0
38,7.0,-254.0,35.0,0
39,7.0,-253.0,36.0,0
40,7.0,-254.0,34.0,0
41,6.0,-253.0,37.0,0
42,5.0,-254.0,37.0,0
43,4.0,-256.0,37.0,0
44,7.0,-254.0,39.0,0
45,5.0,-253.0,38.0,0
46,7.0,-256.0,32.0,0
47,7.0,-251.0,39.0,0
48,3.0,-249.0,39.0,0
49,9.0,-256.0,36.0,0
50,7.0,-254.0,40.0,0
51,9.0,-255.0,35.0,0
52,7.0,-256.0,38.0,0
53,4.0,-254.0,38.0,0
54,10.0,-253.0,38.0,0
55,4.0,-254.0,36.0,0
56,8.0,-252.0,36.0,0
57,4.0,-254.0,38.0,0
58,8.0,-254.0,39.0,0
59,11.0,-252.0,38.0,0
60,5.0,-255.0,35.0,0
61,8.0,-255.0,38.0,0
62,7.0,-254.0,40.0,0
63,9.0,-255.0,35.0,0
64,7.0,-256.0,37.0,0
65,7.0,-254.0,35.0,0
66,11.0,-256.0,39.0,0
67,9.0,-255.0,40.0,0
68,11.0,-254.0,39.0,0
69,6.0,-254.0,41.0,0
70,7.0,-255.0,39.0,0
71,10.0,-254.0,37.0,0
72,7.0,-254.0,40.0,0
73,10.0,-255.0,35.0,0
74,7.0,-255.0,39.0,0
75,9.0,-254.0,39.0,0
76,9.0,-256.0,39.0,0
77,7.0,-254.0,38.0,0
78,8.0,-256.0,38.0,0
79,5.0,-255.0,38.0,0
80,7.0,-251.0,39.0,0
81,5.0,-256.0,38.0,0
82,8.0,-255.0,37.0,0
83,8.0,-257.0,39.0,0
84,9.0,-254.0,38.0,0
85,10.0,-254.0,40.0,0
86,10.0,-252.0,35.0,0
87,6.0,-254.0,39.0,0
88,4.0,-255.0,37.0,0
89,8.0,-253.0,41.0,0
90,6.0,-253.0,37.0,0
91,6.0,-254.0,36.0,0
92,9.0,-256.0,42.0,0
93,6.0,-255.0,40.0,0
94,7.0,-253.0,40.0,0
95,6.0,-254.0,37.0,0
96,9.0,-255.0,42.0,0
97,8.0,-255.0,39.0,0
98,7.0,-254.0,37.0,0
99,8.0,-254.0,39.0,0
100,7.0,-252.0,37.0,0
101,7.0,-252.0,35.0,0
102,7.0,-255.0,36.0,0
103,6.0,-253.0,35.0,0
104,7.0,-252.0,39.0,0
105,8.0,-253.0,36.0,0
106,8.0,-252.0,32.0,0
107,6.0,-252.0,39.0,0
108,8.0,-256.0,37.0,0
109,4.0,-254.0,36.0,0
110,7.0,-250.0,39.0,0
111,7.0,-253.0,34.0,0
112,8.0,-253.0,42.0,0
113,8.0,-252.0,38.0,0
114,10.0,-254.0,36.0,0
115,7.0,-254.0,40.0,0
116,8.0,-255.0,36.0,0
117,10.0,-256.0,36.0,0
118,5.0,-251.0,42.0,0
119,8.0,-255.0,36.0,0
120,7.0,-252.0,39.0,0
121,6.0,-251.0,40.0,0
122,6.0,-254.0,38.0,0
123,7.0,-253.0,40.0,0
124,9.0,-245.0,38.0,0
125,6.0,-255.0,43.0,0
126,8.0,-254.0,37.0,0
127,8.0,-255.0,37.0,0
128,5.0,-254.0,37.0,0
129,7.0,-254.0,38.0,0
130,9.0,-255.0,40.0,0
131,4.0,-253.0,40.0,0
132,8.0,-255.0,39.0,0
133,3.0,-253.0,41.0,0
134,7.0,-255.0,35.0,0
135,7.0,-254.0,34.0,0
136,7.0,-256.0,38.0,0
137,8.0,-254.0,35.0,0
138,8.0,-255.0,36.0,0
139,7.0,-254.0,39.0,0
140,8.0,-252.0,36.0,0
141,7.0,-254.0,39.0,0
142,8.0,-253.0,37.0,0
143,2.0,-254.0,40.0,0
144,7.0,-256.0,36.0,0
145,4.0,-255.0,38.0,0
146,-2.0,-252.0,34.0,0
147,7.0,-252.0,40.0,0
148,11.0,-256.0,38.0,0
149,4.0,-253.0,38.0,0
150,6.0,-254.0,37.0,0
151,5.0,-255.0,38.0,0
152,7.0,-253.0,40.0,0
153,8.0,-255.0,42.0,0
154,5.0,-253.0,34.0,0
155,6.0,-254.0,38.0,0
156,7.0,-253.0,39.0,0
157,4.0,-256.0,43.0,0
158,7.0,-255.0,36.0,0
159,6.0,-252.0,41.0,0
160,6.0,-252.0,37.0,0
161,8.0,-256.0,38.0,0
162,7.0,-252.0,38.0,0
163,6.0,-254.0,35.0,0
164,6.0,-253.0,40.0,0
165,9.0,-254.0,41.0,0
166,6.0,-254.0,36.0,0
167,3.0,-254.0,38.0,0
168,10.0,-251.0,35.0,0
169,5.0,-256.0,38.0,0
170,7.0,-255.0,39.0,0
171,6.0,-254.0,39.0,0
172,6.0,-256.0,38.0,0
173,7.0,-253.0,38.0,0
174,8.0,-255.0,39.0,0
175,8.0,-251.0,34.0,0
176,6.0,-257.0,39.0,0
177,8.0,-252.0,40.0,0
178,8.0,-253.0,36.0,0
179,8.0,-256.0,31.0,0
180,10.0,-254.0,39.0,0
181,6.0,-251.0,38.0,0
182,9.0,-254.0,37.0,0
183,6.0,-255.0,40.0,0
184,5.0,-252.0,35.0,0
185,9.0,-253.0,35.0,0
186,6.0,-252.0,35.0,0
187,6.0,-252.0,39.0,0
188,3.0,-251.0,38.0,0
189,7.0,-252.0,35.0,0
190,0.0,-254.0,38.0,0
191,9.0,-257.0,38.0,0
192,4.0,-254.0,38.0,0
193,5.0,-254.0,36.0,0
194,6.0,-253.0,38.0,0
195,7.0,-254.0,40.0,0
196,8.0,-255.0,39.0,0
197,4.0,-254.0,33.0,0
198,4.0,-252.0,38.0,0
199,7.0,-254.0,41.0,0
200,6.0,-255.0,39.0,0
201,8.0,-249.0,34.0,0
202,4.0,-255.0,35.0,0
203,6.0,-252.0,36.0,0
204,6.0,-253.0,38.0,0
205,8.0,-254.0,40.0,0
206,6.0,-254.0,36.0,0
207,10.0,-255.0,36.0,0
208,6.0,-254.0,43.0,0
209,6.0,-253.0,39.0,0
210,6.0,-252.0,43.0,0
211,9.0,-251.0,42.0,0
212,6.0,-254.0,37.0,0
213,6.0,-253.0,36.0,0
214,8.0,-257.0,37.0,0
215,7.0,-254.0,37.0,0
216,6.0,-255.0,38.0,0
217,6.0,-256.0,36.0,0
218,11.0,-255.0,34.0,0
219,8.0,-258.0,33.0,0
220,8.0,-256.0,34.0,0
221,10.0,-255.0,37.0,0
222,6.0,-252.0,40.0,0
223,6.0,-254.0,34.0,0
224,6.0,-254.0,38.0,0
225,8.0,-253.0,35.0,0
226,7.0,-254.0,39.0,0
227,7.0,-253.0,38.0,0
228,8.0,-253.0,40.0,0
229,8.0,-254.0,36.0,0
230,9.0,-254.0,34.0,0
231,6.0,-251.0,38.0,0
232,6.0,-252.0,35.0,0
233,7.0,-256.0,41.0,0
234,8.0,-255.0,38.0,0
235,8.0,-255.0,36.0,0
236,5.0,-254.0,39.0,0
237,8.0,-252.0,38.0,0
238,5.0,-253.0,42.0,0
239,9.0,-255.0,39.0,0
240,2.0,-253.0,38.0,0
241,8.0,-256.0,36.0,0
242,6.0,-255.0,34.0,0
243,4.0,-254.0,40.0,0
244,3.0,-254.0,39.0,0
245,8.0,-255.0,38.0,0
246,8.0,-255.0,33.0,0
247,8.0,-252.0,39.0,0
248,5.0,-254.0,35.0,0
249,6.0,-252.0,38.0,0
250,7.0,-255.0,36.0,0
251,5.0,-254.0,39.0,0
252,8.0,-252.0,39.0,0
253,5.0,-254.0,41.0,0
254,8.0,-255.0,38.0,0
255,7.0,-254.0,40.0,0
256,5.0,-254.0,40.0,0
257,6.0,-256.0,39.0,0
258,8.0,-254.0,40.0,0
259,4.0,-253.0,38.0,0
260,6.0,-255.0,37.0,0
261,7.0,-254.0,41.0,0
262,8.0,-254.0,38.0,0
263,7.0,-253.0,36.0,0
264,4.0,-252.0,41.0,0
265,8.0,-253.0,37.0,0
266,11.0,-254.0,38.0,0
267,7.0,-255.0,38.0,0
268,15.0,-254.0,41.0,0
269,1.0,-255.0,38.0,0
270,4.0,-255.0,41.0,0
271,4.0,-254.0,38.0,0
272,11.0,-255.0,36.0,0
273,7.0,-252.0,38.0,0
274,9.0,-254.0,38.0,0
275,6.0,-253.0,35.0,0
276,4.0,-254.0,31.0,0
277,7.0,-255.0,37.0,0
278,6.0,-254.0,34.0,0
279,7.0,-254.0,41.0,0
280,6.0,-251.0,39.0,0
281,6.0,-253.0,40.0,0
282,8.0,-253.0,39.0,0
283,7.0,-255.0,37.0,0
284,7.0,-255.0,40.0,0
285,6.0,-251.0,37.0,0
286,5.0,-255.0,39.0,0
287,3.0,-253.0,38.0,0
288,9.0,-254.0,38.0,0
289,6.0,-255.0,37.0,0
290,7.0,-255.0,40.0,0
291,9.0,-255.0,37.0,0
292,6.0,-255.0,38.0,0
293,10.0,-254.0,40.0,0
294,9.0,-256.0,37.0,0
295,7.0,-255.0,36.0,0
296,8.0,-253.0,35.0,0
297,7.0,-251.0,40.0,0
298,7.0,-255.0,39.0,0
299,8.0,-254.0,39.0,0
300,7.0,-256.0,39.0,0
301,8.0,-254.0,40.0,0
302,6.0,-253.0,36.0,0
303,6.0,-253.0,35.0,0
304,5.0,-253.0,37.0,0
305,8.0,-255.0,38.0,0
306,7.0,-255.0,40.0,0
307,6.0,-254.0,41.0,0
308,4.0,-255.0,41.0,0
309,7.0,-254.0,36.0,0
310,10.0,-256.0,39.0,0
311,7.0,-255.0,38.0,0
312,5.0,-254.0,37.0,0
313,6.0,-250.0,36.0,0
314,7.0,-254.0,39.0,0
315,7.0,-252.0,43.0,0
316,7.0,-256.0,40.0,0
317,8.0,-253.0,39.0,0
318,5.0,-254.0,39.0,0
319,8.0,-255.0,40.0,0
320,9.0,-253.0,38.0,0
321,5.0,-252.0,40.0,0
322,8.0,-254.0,40.0,0
323,7.0,-254.0,37.0,0
324,6.0,-252.0,42.0,0
325,6.0,-254.0,39.0,0
326,8.0,-255.0,41.0,0
327,8.0,-252.0,38.0,0
328,8.0,-252.0,40.0,0
329,7.0,-253.0,38.0,0
330,5.0,-253.0,42.0,0
331,12.0,-248.0,40.0,0
332,6.0,-255.0,41.0,0
333,5.0,-255.0,40.0,0
334,5.0,-253.0,40.0,0
335,6.0,-251.0,39.0,0
336,7.0,-251.0,37.0,0
337,8.0,-253.0,37.0,0
338,7.0,-255.0,37.0,0
339,6.0,-255.0,38.0,0
340,7.0,-250.0,38.0,0
341,7.0,-252.0,36.0,0
342,0.0,-256.0,40.0,0
343,6.0,-253.0,43.0,0
344,5.0,-255.0,40.0,0
345,6.0,-253.0,37.0,0
346,5.0,-255.0,39.0,0
347,9.0,-256.0,39.0,0
348,8.0,-254.0,36.0,0
349,7.0,-254.0,40.0,0
350,6.0,-253.0,38.0,0
351,11.0,-255.0,40.0,0
352,6.0,-251.0,39.0,0
353,7.0,-253.0,37.0,0
354,9.0,-253.0,40.0,0
355,9.0,-254.0,35.0,0
356,6.0,-255.0,40.0,0
357,8.0,-252.0,38.0,0
358,4.0,-254.0,39.0,0
359,7.0,-253.0,43.0,0
360,6.0,-255.0,39.0,0
361,8.0,-255.0,36.0,0
362,6.0,-256.0,41.0,0
363,4.0,-253.0,37.0,0
364,10.0,-249.0,38.0,0
365,8.0,-251.0,42.0,0
366,6.0,-252.0,41.0,0
367,8.0,-254.0,40.0,0
368,6.0,-253.0,39.0,0
369,8.0,-256.0,40.0,0
370,4.0,-254.0,41.0,0
371,5.0,-256.0,41.0,0
372,7.0,-252.0,44.0,0
373,7.0,-252.0,42.0,0
374,6.0,-256.0,40.0,0
375,3.0,-250.0,41.0,0
376,8.0,-254.0,41.0,0
377,6.0,-256.0,38.0,0
378,5.0,-254.0,41.0,0
379,9.0,-254.0,41.0,0
380,7.0,-252.0,40.0,0
381,6.0,-254.0,37.0,0
382,5.0,-254.0,38.0,0
383,9.0,-255.0,40.0,0
384,8.0,-252.0,35.0,0
385,9.0,-252.0,34.0,0
386,16.0,-254.0,42.0,0
387,8.0,-255.0,39.0,0
388,7.0,-255.0,34.0,0
389,3.0,-252.0,39.0,0
390,6.0,-251.0,36.0,0
391,6.0,-254.0,38.0,0
392,5.0,-253.0,35.0,0
393,7.0,-256.0,40.0,0
394,8.0,-250.0,40.0,0
395,4.0,-252.0,36.0,0
396,7.0,-254.0,38.0,0
397,6.0,-248.0,38.0,0
398,9.0,-255.0,40.0,0
399,5.0,-254.0,41.0,0
400,4.0,-255.0,35.0,0
401,6.0,-252.0,39.0,0
402,7.0,-254.0,38.0,0
403,6.0,-254.0,35.0,0
404,4.0,-255.0,41.0,0
405,7.0,-253.0,40.0,0
406,9.0,-253.0,40.0,0
407,13.0,-253.0,37.0,0
408,20.0,-256.0,38.0,0
409,9.0,-254.0,40.0,0
410,7.0,-252.0,40.0,0
411,8.0,-252.0,40.0,0
412,3.0,-251.0,35.0,0
413,9.0,-255.0,43.0,0
414,7.0,-254.0,39.0,0
415,6.0,-254.0,36.0,0
416,4.0,-253.0,40.0,0
417,10.0,-253.0,43.0,0
418,7.0,-254.0,40.0,0
419,6.0,-254.0,41.0,0
420,6.0,-256.0,41.0,0
421,6.0,-256.0,39.0,0
422,6.0,-254.0,38.0,0
423,7.0,-253.0,39.0,0
424,6.0,-252.0,41.0,0
425,8.0,-254.0,39.0,0
426,7.0,-253.0,38.0,0
427,8.0,-253.0,40.0,0
428,10.0,-257.0,49.0,0
429,7.0,-255.0,41.0,0
430,8.0,-254.0,41.0,0
431,6.0,-253.0,34.0,0
432,7.0,-253.0,38.0,0
433,5.0,-253.0,38.0,0
434,9.0,-252.0,34.0,0
435,8.0,-253.0,39.0,0
436,4.0,-251.0,41.0,0
437,9.0,-254.0,39.0,0
438,8.0,-251.0,39.0,0
439,6.0,-253.0,37.0,0
440,11.0,-251.0,40.0,0
441,6.0,-253.0,43.0,0
442,7.0,-253.0,42.0,0
443,9.0,-256.0,39.0,0
444,7.0,-255.0,37.0,0
445,8.0,-252.0,38.0,0
446,5.0,-255.0,40.0,0
447,8.0,-255.0,40.0,0
448,5.0,-250.0,37.0,0
449,8.0,-255.0,37.0,0
450,7.0,-255.0,41.0,0
451,7.0,-256.0,46.0,0
452,3.0,-254.0,41.0,0
453,9.0,-253.0,41.0,0
454,7.0,-255.0,38.0,0
455,8.0,-255.0,41.0,0
456,8.0,-254.0,40.0,0
457,9.0,-256.0,39.0,0
458,8.0,-253.0,37.0,0
459,6.0,-256.0,38.0,0
460,7.0,-252.0,38.0,0
461,1.0,-254.0,40.0,0
462,15.0,-245.0,39.0,0
463,7.0,-254.0,37.0,0
464,7.0,-255.0,38.0,0
465,7.0,-252.0,38.0,0
466,6.0,-252.0,39.0,0
467,5.0,-253.0,41.0,0
468,7.0,-252.0,39.0,0
469,7.0,-253.0,37.0,0
470,2.0,-252.0,37.0,0
471,7.0,-256.0,41.0,0
472,5.0,-252.0,42.0,0
473,-1.0,-251.0,36.0,0
474,8.0,-254.0,39.0,0
475,6.0,-255.0,37.0,0
476,5.0,-252.0,37.0,0
477,7.0,-253.0,37.0,0
478,8.0,-255.0,40.0,0
479,5.0,-255.0,42.0,0
480,7.0,-251.0,40.0,0
481,7.0,-252.0,39.0,0
482,7.0,-253.0,41.0,0
483,6.0,-253.0,42.0,0
484,14.0,-257.0,29.0,0
485,6.0,-254.0,42.0,0
486,5.0,-253.0,38.0,0
487,6.0,-254.0,37.0,0
488,7.0,-255.0,36.0,0
489,5.0,-252.0,40.0,0
490,6.0,-253.0,38.0,0
491,6.0,-253.0,36.0,0
492,6.0,-256.0,42.0,0
493,7.0,-254.0,38.0,0
494,13.0,-257.0,37.0,0
495,8.0,-249.0,44.0,0
496,10.0,-253.0,45.0,0
497,8.0,-254.0,37.0,0
498,4.0,-254.0,39.0,0
499,5.0,-253.0,39.0,0
500,7.0,-253.0,38.0,0
501,8.0,-253.0,40.0,0
502,7.0,-253.0,42.0,0
503,7.0,-252.0,41.0,0
504,4.0,-251.0,39.0,0
505,7.0,-256.0,40.0,0
506,10.0,-249.0,39.0,0
507,5.0,-252.0,42.0,0
508,5.0,-253.0,40.0,0
509,7.0,-254.0,39.0,0
510,8.0,-253.0,39.0,0
511,5.0,-253.0,41.0,0
512,6.0,-253.0,42.0,0
513,6.0,-255.0,41.0,0
514,6.0,-256.0,39.0,0
515,7.0,-252.0,41.0,0
516,7.0,-254.0,38.0,0
517,6.0,-257.0,43.0,0
518,8.0,-254.0,37.0,0
519,8.0,-254.0,40.0,0
520,3.0,-254.0,38.0,0
521,8.0,-253.0,39.0,0
522,8.0,-251.0,36.0,0
523,9.0,-254.0,42.0,0
524,9.0,-254.0,40.0,0
525,6.0,-254.0,42.0,0
526,8.0,-252.0,39.0,0
527,1.0,-251.0,46.0,0
528,7.0,-254.0,41.0,0
529,7.0,-255.0,40.0,0
530,6.0,-254.0,41.0,0
531,6.0,-254.0,40.0,0
532,7.0,-253.0,41.0,0
533,7.0,-255.0,42.0,0
534,7.0,-253.0,39.0,0
535,6.0,-253.0,41.0,0
536,5.0,-252.0,40.0,0
537,6.0,-253.0,41.0,0
538,10.0,-257.0,44.0,0
539,5.0,-252.0,37.0,0
540,7.0,-256.0,40.0,0
541,6.0,-255.0,39.0,0
542,5.0,-250.0,42.0,0
543,9.0,-255.0,38.0,0
544,5.0,-254.0,36.0,0
545,4.0,-252.0,36.0,0
546,9.0,-253.0,38.0,0
547,5.0,-252.0,43.0,0
548,7.0,-255.0,39.0,0
549,5.0,-251.0,37.0,0
550,9.0,-253.0,41.0,0
551,7.0,-254.0,42.0,0
552,4.0,-252.0,40.0,0
553,8.0,-254.0,40.0,0
554,8.0,-252.0,39.0,0
555,8.0,-254.0,39.0,0
556,7.0,-256.0,42.0,0
557,8.0,-254.0,37.0,0
558,9.0,-256.0,39.0,0
559,6.0,-251.0,43.0,0
560,8.0,-253.0,39.0,0
561,8.0,-254.0,42.0,0
562,5.0,-254.0,39.0,0
563,5.0,-253.0,37.0,0
564,5.0,-252.0,38.0,0
565,8.0,-255.0,39.0,0
566,8.0,-251.0,41.0,0
567,9.0,-254.0,38.0,0
568,7.0,-253.0,40.0,0
569,6.0,-253.0,38.0,0
570,6.0,-251.0,39.0,0
571,10.0,-255.0,48.0,0
572,4.0,-254.0,38.0,0
573,7.0,-253.0,40.0,0
574,8.0,-253.0,39.0,0
575,7.0,-253.0,39.0,0
576,8.0,-256.0,44.0,0
577,7.0,-254.0,38.0,0
578,6.0,-254.0,40.0,0
579,4.0,-250.0,39.0,0
580,6.0,-254.0,41.0,0
581,9.0,-252.0,36.0,0
582,8.0,-253.0,39.0,0
583,6.0,-253.0,40.0,0
584,8.0,-253.0,40.0,0
585,8.0,-255.0,38.0,0
586,5.0,-255.0,39.0,0
587,3.0,-251.0,43.0,0
588,7.0,-255.0,39.0,0
589,4.0,-251.0,37.0,0
590,7.0,-256.0,41.0,0
591,12.0,-255.0,35.0,0
592,2.0,-254.0,37.0,0
593,9.0,-252.0,37.0,0
594,8.0,-255.0,36.0,0
595,8.0,-254.0,39.0,0
596,7.0,-252.0,38.0,0
597,3.0,-253.0,42.0,0
598,8.0,-256.0,40.0,0
599,8.0,-253.0,40.0,0
600,7.0,-254.0,38.0,0
601,7.0,-254.0,42.0,0
602,4.0,-253.0,43.0,0
603,6.0,-253.0,33.0,0
604,6.0,-251.0,39.0,0
605,6.0,-251.0,40.0,0
606,8.0,-252.0,39.0,0
607,8.0,-254.0,38.0,0
608,7.0,-252.0,37.0,0
609,9.0,-255.0,39.0,0
610,6.0,-254.0,38.0,0
611,7.0,-254.0,36.0,0
612,7.0,-252.0,38.0,0
613,4.0,-254.0,36.0,0
614,4.0,-252.0,39.0,0
615,10.0,-252.0,38.0,0
616,8.0,-255.0,39.0,0
617,5.0,-254.0,40.0,0
618,4.0,-255.0,41.0,0
619,5.0,-252.0,37.0,0
620,6.0,-256.0,39.0,0
621,5.0,-253.0,43.0,0
622,5.0,-254.0,38.0,0
623,3.0,-252.0,40.0,0
624,4.0,-253.0,39.0,0
625,3.0,-253.0,40.0,0
626,7.0,-254.0,39.0,0
627,5.0,-256.0,40.0,0
628,5.0,-252.0,41.0,0
629,7.0,-254.0,44.0,0
630,7.0,-255.0,45.0,0
631,7.0,-256.0,39.0,0
632,7.0,-253.0,37.0,0
633,6.0,-255.0,38.0,0
634,7.0,-254.0,35.0,0
635,6.0,-256.0,39.0,0
636,8.0,-253.0,38.0,0
637,10.0,-255.0,42.0,0
638,9.0,-255.0,41.0,0
639,10.0,-256.0,40.0,0
640,8.0,-255.0,43.0,0
641,9.0,-253.0,36.0,0
642,8.0,-255.0,41.0,0
643,8.0,-256.0,38.0,0
644,8.0,-253.0,38.0,0
645,6.0,-253.0,43.0,0
646,8.0,-254.0,42.0,0
647,8.0,-252.0,46.0,0
648,7.0,-252.0,40.0,0
649,7.0,-254.0,43.0,0
650,4.0,-250.0,43.0,0
651,6.0,-249.0,42.0,0
652,6.0,-251.0,39.0,0
653,8.0,-249.0,39.0,0
654,6.0,-250.0,40.0,0
655,8.0,-250.0,39.0,0
656,5.0,-250.0,40.0,0
657,3.0,-251.0,40.0,0
658,5.0,-251.0,42.0,0
659,6.0,-248.0,41.0,0
660,9.0,-250.0,44.0,0
661,6.0,-245.0,45.0,0
662,6.0,-248.0,40.0,0
663,9.0,-249.0,43.0,0
664,7.0,-249.0,38.0,0
665,5.0,-248.0,38.0,0
666,7.0,-251.0,34.0,0
667,6.0,-248.0,33.0,0
668,-7.0,-245.0,39.0,0
669,3.0,-253.0,40.0,0
670,7.0,-248.0,43.0,0
671,8.0,-250.0,40.0,0
672,9.0,-248.0,39.0,0
673,5.0,-249.0,39.0,0
674,7.0,-249.0,39.0,0
675,7.0,-252.0,38.0,0
676,7.0,-251.0,38.0,0
677,8.0,-253.0,39.0,0
678,5.0,-253.0,32.0,0
679,6.0,-250.0,40.0,0
680,8.0,-252.0,30.0,0
681,6.0,-253.0,37.0,0
682,8.0,-252.0,34.0,0
683,4.0,-251.0,35.0,0
684,8.0,-250.0,40.0,0
685,7.0,-248.0,38.0,0
686,4.0,-249.0,37.0,0
687,7.0,-248.0,40.0,0
688,7.0,-247.0,37.0,0
689,5.0,-245.0,36.0,0
690,6.0,-244.0,40.0,0
691,6.0,-239.0,34.0,0
692,8.0,-244.0,40.0,0
693,8.0,-245.0,34.0,0
694,8.0,-241.0,43.0,0
695,6.0,-243.0,42.0,0
696,7.0,-246.0,44.0,0
697,8.0,-245.0,42.0,0
698,6.0,-249.0,44.0,0
699,8.0,-250.0,40.0,0
700,5.0,-249.0,42.0,0
701,5.0,-248.0,40.0,0
702,5.0,-247.0,41.0,0
703,7.0,-251.0,43.0,0
704,7.0,-247.0,37.0,0
705,9.0,-252.0,36.0,0
706,4.0,-248.0,38.0,0
707,10.0,-250.0,36.0,0
708,9.0,-246.0,33.0,0
709,13.0,-250.0,37.0,0
710,10.0,-241.0,37.0,0
711,9.0,-246.0,33.0,0
712,10.0,-247.0,31.0,0
713,16.0,-249.0,27.0,0
714,14.0,-249.0,31.0,0
715,13.0,-249.0,29.0,0
716,13.0,-250.0,27.0,0
717,9.0,-250.0,28.0,0
718,11.0,-252.0,29.0,0
719,9.0,-253.0,25.0,0
720,10.0,-251.0,25.0,0
721,11.0,-255.0,24.0,0
722,7.0,-253.0,20.0,0
723,9.0,-252.0,22.0,0
724,8.0,-252.0,24.0,0
725,8.0,-255.0,18.0,0
726,8.0,-254.0,16.0,0
727,11.0,-252.0,18.0,0
728,10.0,-252.0,14.0,0
729,7.0,-253.0,16.0,0
730,5.0,-254.0,19.0,0
731,8.0,-257.0,15.0,0
732,8.0,-255.0,15.0,0
733,13.0,-258.0,13.0,0
734,10.0,-258.0,18.0,0
735,13.0,-253.0,16.0,0
736,15.0,-257.0,14.0,0
737,10.0,-254.0,15.0,0
738,12.0,-257.0,9.0,0
739,13.0,-257.0,15.0,0
740,14.0,-258.0,15.0,0
741,10.0,-256.0,16.0,0
742,14.0,-253.0,12.0,0
743,20.0,-256.0,10.0,0
744,26.0,-255.0,8.0,0
745,17.0,-260.0,11.0,0
746,13.0,-253.0,13.0,0
747,16.0,-253.0,9.0,0
748,18.0,-254.0,9.0,0
749,23.0,-254.0,8.0,0
750,29.0,-258.0,9.0,0
751,22.0,-252.0,9.0,0
752,19.0,-255.0,5.0,0
753,16.0,-262.0,6.0,0
754,14.0,-259.0,1.0,0
755,27.0,-263.0,11.0,0
756,34.0,-266.0,8.0,0
757,25.0,-266.0,-4.0,0
758,15.0,-275.0,-4.0,0
759,14.0,-283.0,2.0,0
760,11.0,-287.0,-6.0,0
761,14.0,-283.0,-5.0,0
762,15.0,-284.0,-9.0,0
763,18.0,-290.0,-10.0,0
764,23.0,-292.0,-17.0,0
765,27.0,-289.0,-20.0,0
766,33.0,-296.0,-15.0,0
767,31.0,-298.0,-17.0,0
768,44.0,-296.0,-29.0,0
769,45.0,-298.0,-35.0,0
770,49.0,-302.0,-33.0,0
771,51.0,-303.0,-39.0,0
772,49.0,-303.0,-40.0,0
773,44.0,-304.0,-46.0,0
774,35.0,-306.0,-51.0,0
775,24.0,-306.0,-55.0,0
776,12.0,-306.0,-65.0,0
777,-2.0,-317.0,-68.0,0
778,-14.0,-323.0,-73.0,0
779,-23.0,-332.0,-76.0,0
780,-27.0,-340.0,-80.0,0
781,-31.0,-339.0,-89.0,0
782,-42.0,-337.0,-95.0,0
783,-34.0,-338.0,-98.0,0
784,-32.0,-333.0,-98.0,0
785,-30.0,-328.0,-104.0,0
786,-21.0,-324.0,-108.0,0
787,-11.0,-318.0,-116.0,0
788,-1.0,-313.0,-110.0,0
789,1.0,-307.0,-109.0,0
790,13.0,-305.0,-108.0,0
791,24.0,-299.0,-107.0,0
792,23.0,-295.0,-107.0,0
793,28.0,-292.0,-108.0,0
794,33.0,-290.0,-104.0,0
795,34.0,-287.0,-102.0,0
796,33.0,-283.0,-103.0,0
797,32.0,-282.0,-100.0,0
798,31.0,-281.0,-101.0,0
799,33.0,-273.0,-105.0,0
800,26.0,-267.0,-102.0,0
801,26.0,-265.0,-102.0,0
802,25.0,-265.0,-105.0,0
803,18.0,-264.0,-107.0,0
804,17.0,-261.0,-107.0,0
805,15.0,-260.0,-109.0,0
806,20.0,-260.0,-109.0,0
807,13.0,-256.0,-112.0,0
808,14.0,-254.0,-115.0,0
809,22.0,-254.0,-113.0,0
810,10.0,-249.0,-112.0,0
811,16.0,-250.0,-112.0,0
812,16.0,-251.0,-112.0,0
813,17.0,-248.0,-112.0,0
814,17.0,-247.0,-115.0,0
815,18.0,-244.0,-115.0,0
816,21.0,-242.0,-116.0,0
817,22.0,-241.0,-116.0,0
818,21.0,-239.0,-116.0,0
819,27.0,-238.0,-121.0,0
820,28.0,-241.0,-120.0,0
821,29.0,-242.0,-120.0,0
822,28.0,-241.0,-125.0,0
823,24.0,-243.0,-126.0,0
824,28.0,-241.0,-130.0,0
825,25.0,-242.0,-132.0,0
826,30.0,-245.0,-131.0,0
827,28.0,-244.0,-133.0,0
828,24.0,-242.0,-130.0,0
829,27.0,-241.0,-135.0,0
830,29.0,-239.0,-130.0,0
831,28.0,-243.0,-134.0,0
832,25.0,-243.0,-136.0,0
833,29.0,-246.0,-131.0,0
834,24.0,-243.0,-135.0,0
835,27.0,-243.0,-136.0,0
836,24.0,-245.0,-138.0,0
837,24.0,-243.0,-136.0,0
838,26.0,-244.0,-136.0,0
839,23.0,-241.0,-136.0,0
840,24.0,-239.0,-138.0,0
841,20.0,-239.0,-135.0,0
842,25.0,-239.0,-139.0,0
843,23.0,-236.0,-141.0,0
844,25.0,-236.0,-139.0,0
845,28.0,-237.0,-140.0,0
846,30.0,-235.0,-140.0,0
847,27.0,-233.0,-142.0,0
848,30.0,-235.0,-140.0,0
849,26.0,-229.0,-141.0,0
850,31.0,-232.0,-141.0,0
851,28.0,-233.0,-141.0,0
852,29.0,-236.0,-148.0,0
853,31.0,-234.0,-141.0,0
854,29.0,-233.0,-145.0,0
855,29.0,-235.0,-146.0,0
856,30.0,-235.0,-143.0,0
857,26.0,-233.0,-150.0,0
858,28.0,-237.0,-150.0,0
859,31.0,-235.0,-154.0,0
860,23.0,-232.0,-155.0,0
861,24.0,-230.0,-154.0,0
862,20.0,-226.0,-153.0,0
863,28.0,-228.0,-157.0,0
864,22.0,-224.0,-153.0,0
865,21.0,-224.0,-154.0,0
866,21.0,-221.0,-152.0,0
867,19.0,-220.0,-156.0,0
868,18.0,-217.0,-154.0,0
869,17.0,-213.0,-155.0,0
870,18.0,-213.0,-154.0,0
871,12.0,-215.0,-154.0,0
872,15.0,-213.0,-153.0,0
873,14.0,-207.0,-155.0,0
874,12.0,-210.0,-149.0,0
875,11.0,-208.0,-155.0,0
876,12.0,-204.0,-154.0,0
877,13.0,-205.0,-153.0,0
878,12.0,-199.0,-155.0,0
879,12.0,-200.0,-150.0,0
880,14.0,-193.0,-157.0,0
881,13.0,-193.0,-158.0,0
882,10.0,-191.0,-156.0,0
883,14.0,-191.0,-155.0,0
884,17.0,-192.0,-148.0,0
885,17.0,-183.0,-147.0,0
886,14.0,-186.0,-149.0,0
887,16.0,-181.0,-146.0,0
888,15.0,-183.0,-143.0,0
889,17.0,-180.0,-145.0,0
890,19.0,-180.0,-141.0,0
891,22.0,-179.0,-140.0,0
892,20.0,-176.0,-139.0,0
893,18.0,-174.0,-143.0,0
894,15.0,-169.0,-139.0,0
895,18.0,-169.0,-138.0,0
896,21.0,-167.0,-140.0,0
897,13.0,-164.0,-137.0,0
898,14.0,-164.0,-136.0,0
899,16.0,-167.0,-132.0,0
900,13.0,-161.0,-137.0,0
901,13.0,-160.0,-133.0,0
902,11.0,-159.0,-131.0,0
903,11.0,-157.0,-130.0,0
904,12.0,-154.0,-133.0,0
905,13.0,-158.0,-136.0,0
906,8.0,-153.0,-133.0,0
907,8.0,-152.0,-129.0,0
908,9.0,-151.0,-130.0,0
909,8.0,-151.0,-130.0,0
910,10.0,-149.0,-128.0,0
911,10.0,-148.0,-127.0,0
912,9.0,-145.0,-125.0,0
913,12.0,-147.0,-125.0,0
914,12.0,-146.0,-119.0,0
915,8.0,-143.0,-120.0,0
916,10.0,-144.0,-117.0,0
917,15.0,-145.0,-117.0,0
918,9.0,-145.0,-116.0,0
919,9.0,-145.0,-111.0,0
920,11.0,-145.0,-113.0,0
921,11.0,-143.0,-112.0,0
922,12.0,-144.0,-113.0,0
923,8.0,-143.0,-111.0,0
924,10.0,-145.0,-112.0,0
925,8.0,-147.0,-113.0,0
926,10.0,-144.0,-113.0,0
927,17.0,-150.0,-112.0,0
928,11.0,-148.0,-115.0,0
929,9.0,-146.0,-113.0,0
930,11.0,-150.0,-115.0,0
931,8.0,-147.0,-110.0,0
932,10.0,-151.0,-115.0,0
933,8.0,-153.0,-117.0,0
934,6.0,-149.0,-112.0,0
935,5.0,-151.0,-110.0,0
936,4.0,-157.0,-114.0,0
937,6.0,-158.0,-112.0,0
938,7.0,-161.0,-114.0,0
939,4.0,-168.0,-109.0,0
940,4.0,-166.0,-108.0,0
941,4.0,-168.0,-108.0,0
942,4.0,-173.0,-107.0,0
943,3.0,-174.0,-104.0,0
944,2.0,-175.0,-101.0,0
945,1.0,-181.0,-102.0,0
946,2.0,-183.0,-98.0,0
947,4.0,-190.0,-97.0,0
948,4.0,-193.0,-97.0,0
949,9.0,-198.0,-90.0,0
950,12.0,-200.0,-95.0,0
951,13.0,-206.0,-86.0,0
952,15.0,-210.0,-85.0,0
953,18.0,-210.0,-84.0,0
954,18.0,-215.0,-87.0,0
955,20.0,-212.0,-92.0,0
956,22.0,-214.0,-88.0,0
957,16.0,-211.0,-82.0,0
958,19.0,-209.0,-77.0,1
959,19.0,-211.0,-76.0,1
960,19.0,-211.0,-59.0,1
961,13.0,-216.0,-46.0,1
962,15.0,-228.0,-27.0,1
963,12.0,-252.0,13.0,1
964,20.0,-287.0,61.0,1
965,20.0,-340.0,154.0,1
966,2.0,-470.0,432.0,1
967,-94.0,-917.0,534.0,1
968,16.0,-1502.0,760.0,1
969,175.0,-2020.0,700.0,1
970,286.0,-1528.0,-118.0,1
971,-9.0,-847.0,-427.0,1
972,-358.0,-450.0,-649.0,1
973,-572.0,-301.0,-734.0,1
974,-578.0,-306.0,-632.0,1
975,-237.0,-464.0,-421.0,1
976,-72.0,-719.0,-245.0,1
977,-62.0,-780.0,-67.0,1
978,-77.0,-674.0,64.0,1
979,-57.0,-518.0,158.0,1
980,-77.0,-347.0,245.0,1
981,-69.0,-225.0,296.0,1
982,42.0,-179.0,282.0,1
983,190.0,-143.0,235.0,1
984,303.0,-31.0,167.0,1
985,364.0,131.0,141.0,1
986,367.0,289.0,147.0,1
987,279.0,401.0,146.0,1
988,221.0,403.0,128.0,1
989,185.0,327.0,82.0,1
990,128.0,237.0,45.0,1
991,72.0,120.0,46.0,1
992,6.0,-23.0,101.0,1
993,-10.0,-128.0,112.0,1
994,-19.0,-237.0,138.0,1
995,-49.0,-354.0,175.0,1
996,-80.0,-491.0,223.0,1
997,-89.0,-609.0,265.0,1
998,-83.0,-667.0,280.0,1
999,-62.0,-659.0,269.0,1
1000,-48.0,-589.0,211.0,1
1001,-47.0,-513.0,142.0,1
1002,-32.0,-422.0,84.0,1
1003,-19.0,-337.0,40.0,1
1004,-9.0,-258.0,14.0,1
1005,0.0,-203.0,-8.0,1
1006,5.0,-165.0,-26.0,1
1007,6.0,-141.0,-36.0,1
1008,9.0,-132.0,-16.0,1
1009,17.0,-135.0,20.0,1
1010,11.0,-140.0,42.0,1
1011,13.0,-150.0,61.0,1
1012,12.0,-162.0,66.0,1
1013,13.0,-178.0,61.0,1
1014,16.0,-196.0,52.0,1
1015,15.0,-214.0,45.0,0
1016,17.0,-227.0,41.0,0
1017,19.0,-233.0,43.0,0
1018,18.0,-237.0,42.0,0
1019,17.0,-237.0,38.0,0
1020,20.0,-242.0,35.0,0
1021,17.0,-247.0,31.0,0
1022,14.0,-250.0,26.0,0
1023,12.0,-256.0,22.0,0
1024,13.0,-264.0,21.0,0
1025,16.0,-269.0,18.0,0
1026,11.0,-282.0,24.0,0
1027,10.0,-289.0,30.0,0
1028,8.0,-292.0,29.0,0
1029,13.0,-293.0,32.0,0
1030,15.0,-284.0,33.0,0
1031,14.0,-278.0,36.0,0
1032,14.0,-266.0,36.0,0
1033,17.0,-259.0,35.0,0
1034,8.0,-248.0,35.0,0
1035,14.0,-243.0,36.0,0
1036,8.0,-240.0,42.0,0
1037,15.0,-230.0,42.0,0
1038,12.0,-227.0,44.0,0
1039,7.0,-223.0,41.0,0
1040,4.0,-225.0,42.0,0
1041,4.0,-226.0,39.0,0
1042,9.0,-226.0,42.0,0
1043,6.0,-232.0,39.0,0
1044,6.0,-235.0,45.0,0
1045,7.0,-237.0,47.0,0
1046,5.0,-245.0,44.0,0
1047,8.0,-245.0,44.0,0
1048,7.0,-248.0,43.0,0
1049,9.0,-251.0,43.0,0
1050,11.0,-252.0,45.0,0
1051,11.0,-253.0,44.0,0
1052,13.0,-254.0,48.0,0
1053,16.0,-254.0,48.0,0
1054,16.0,-255.0,50.0,0
1055,17.0,-255.0,48.0,0
1056,17.0,-253.0,45.0,0
1057,15.0,-253.0,50.0,0
1058,18.0,-246.0,49.0,0
1059,13.0,-252.0,48.0,0
1060,18.0,-247.0,47.0,0
1061,16.0,-241.0,46.0,0
1062,13.0,-241.0,48.0,0
1063,13.0,-240.0,45.0,0
1064,13.0,-238.0,52.0,0
1065,14.0,-239.0,46.0,0
1066,14.0,-237.0,51.0,0
1067,16.0,-240.0,50.0,0
1068,10.0,-239.0,44.0,0
1069,14.0,-242.0,51.0,0
1070,11.0,-242.0,48.0,0
1071,13.0,-245.0,53.0,0
1072,17.0,-249.0,53.0,0
1073,17.0,-251.0,52.0,0
1074,19.0,-251.0,52.0,0
1075,15.0,-247.0,47.0,0
1076,18.0,-252.0,50.0,0
1077,16.0,-247.0,48.0,0
1078,18.0,-251.0,48.0,0
1079,15.0,-236.0,45.0,0
1080,19.0,-250.0,48.0,0
1081,18.0,-247.0,47.0,0
1082,17.0,-247.0,47.0,0
1083,13.0,-248.0,50.0,0
1084,16.0,-247.0,48.0,0
1085,14.0,-246.0,46.0,0
1086,13.0,-247.0,43.0,0
1087,18.0,-247.0,44.0,0
1088,19.0,-247.0,48.0,0
1089,17.0,-251.0,37.0,0
1090,17.0,-252.0,34.0,0
1091,16.0,-251.0,37.0,0
1092,15.0,-253.0,38.0,0
1093,16.0,-258.0,33.0,0
1094,16.0,-261.0,30.0,0
1095,13.0,-261.0,34.0,0
1096,17.0,-267.0,31.0,0
1097,12.0,-267.0,29.0,0
1098,16.0,-270.0,29.0,0
1099,13.0,-271.0,28.0,0
1100,11.0,-270.0,33.0,0
1101,9.0,-267.0,34.0,0
1102,15.0,-265.0,36.0,0
1103,14.0,-265.0,41.0,0
1104,14.0,-258.0,40.0,0
1105,14.0,-261.0,36.0,0
1106,12.0,-257.0,34.0,0
1107,7.0,-257.0,35.0,0
1108,8.0,-254.0,29.0,0
1109,7.0,-251.0,31.0,0
1110,8.0,-250.0,29.0,0
1111,3.0,-250.0,27.0,0
1112,5.0,-253.0,35.0,0
1113,3.0,-249.0,25.0,0
1114,2.0,-248.0,24.0,0
1115,0.0,-249.0,30.0,0
1116,6.0,-254.0,25.0,0
1117,3.0,-253.0,26.0,0
1118,4.0,-255.0,24.0,0
1119,2.0,-256.0,31.0,0
1120,-1.0,-254.0,24.0,0
1121,2.0,-258.0,25.0,0
1122,7.0,-262.0,20.0,0
1123,1.0,-259.0,33.0,0
1124,-1.0,-259.0,22.0,0
1125,0.0,-259.0,20.0,0
1126,1.0,-259.0,23.0,0
1127,0.0,-261.0,19.0,0
1128,0.0,-260.0,23.0,0
1129,6.0,-258.0,25.0,0
1130,0.0,-256.0,20.0,0
1131,7.0,-256.0,24.0,0
1132,8.0,-254.0,27.0,0
1133,9.0,-256.0,30.0,0
1134,13.0,-256.0,33.0,0
1135,12.0,-254.0,35.0,0
1136,14.0,-256.0,33.0,0
1137,13.0,-256.0,38.0,0
1138,14.0,-253.0,42.0,0
1139,15.0,-255.0,39.0,0
1140,15.0,-254.0,37.0,0
1141,15.0,-254.0,37.0,0
1142,19.0,-255.0,42.0,0
1143,14.0,-254.0,38.0,0
1144,12.0,-252.0,38.0,0
1145,13.0,-253.0,38.0,0
1146,15.0,-255.0,43.0,0
1147,12.0,-252.0,39.0,0
1148,13.0,-255.0,39.0,0
1149,11.0,-253.0,40.0,0
1150,11.0,-254.0,39.0,0
1151,14.0,-255.0,39.0,0
1152,11.0,-255.0,38.0,0
1153,13.0,-255.0,42.0,0
1154,9.0,-254.0,39.0,0
1155,11.0,-249.0,38.0,0
1156,11.0,-254.0,41.0,0
1157,12.0,-253.0,36.0,0
1158,12.0,-256.0,37.0,0
1159,12.0,-254.0,38.0,0
1160,10.0,-255.0,33.0,0
1161,9.0,-255.0,34.0,0
1162,11.0,-256.0,35.0,0
1163,11.0,-255.0,33.0,0
1164,11.0,-255.0,34.0,0
1165,11.0,-255.0,30.0,0
1166,9.0,-250.0,26.0,0
1167,13.0,-255.0,33.0,0
1168,9.0,-257.0,29.0,0
1169,8.0,-255.0,28.0,0
1170,9.0,-256.0,29.0,0
1171,12.0,-258.0,28.0,0
1172,10.0,-256.0,28.0,0
1173,12.0,-256.0,30.0,0
1174,10.0,-258.0,36.0,0
1175,11.0,-256.0,31.0,0
1176,12.0,-257.0,32.0,0
1177,3.0,-256.0,34.0,0
1178,10.0,-256.0,29.0,0
1179,7.0,-257.0,32.0,0
1180,11.0,-257.0,32.0,0
1181,10.0,-256.0,34.0,0
1182,9.0,-255.0,35.0,0
1183,8.0,-256.0,36.0,0
1184,8.0,-257.0,35.0,0
1185,8.0,-257.0,36.0,0
1186,7.0,-256.0,34.0,0
1187,10.0,-256.0,34.0,0
1188,9.0,-255.0,33.0,0
1189,5.0,-256.0,36.0,0
1190,9.0,-254.0,37.0,0
1191,12.0,-256.0,32.0,0
1192,7.0,-256.0,34.0,0
1193,8.0,-255.0,31.0,0
1194,9.0,-256.0,34.0,0
1195,10.0,-259.0,33.0,0
1196,8.0,-256.0,34.0,0
1197,9.0,-257.0,35.0,0
1198,8.0,-255.0,37.0,0
1199,12.0,-259.0,41.0,0
1200,10.0,-255.0,32.0,0
1201,8.0,-256.0,34.0,0
1202,10.0,-256.0,36.0,0
1203,9.0,-256.0,36.0,0
1204,10.0,-254.0,36.0,0
1205,9.0,-255.0,35.0,0
1206,8.0,-256.0,33.0,0
1207,10.0,-254.0,36.0,0
1208,11.0,-255.0,32.0,0
1209,12.0,-254.0,34.0,0
1210,5.0,-255.0,34.0,0
1211,12.0,-257.0,34.0,0
1212,10.0,-252.0,34.0,0
1213,11.0,-256.0,37.0,0
1214,13.0,-255.0,33.0,0
1215,11.0,-256.0,37.0,0
1216,13.0,-261.0,35.0,0
1217,9.0,-255.0,36.0,0
1218,11.0,-254.0,36.0,0
1219,14.0,-256.0,33.0,0
1220,12.0,-253.0,29.0,0
1221,10.0,-256.0,37.0,0
1222,10.0,-254.0,34.0,0
1223,9.0,-254.0,32.0,0
1224,11.0,-256.0,35.0,0
1225,10.0,-256.0,35.0,0
1226,10.0,-255.0,36.0,0
1227,13.0,-255.0,36.0,0
1228,8.0,-255.0,37.0,0
1229,8.0,-254.0,33.0,0
1230,7.0,-253.0,35.0,0
1231,9.0,-253.0,31.0,0
1232,10.0,-254.0,35.0,0
1233,8.0,-253.0,34.0,0
1234,8.0,-253.0,34.0,0
1235,9.0,-252.0,33.0,0
1236,12.0,-253.0,34.0,0
1237,10.0,-254.0,34.0,0
1238,10.0,-254.0,37.0,0
1239,12.0,-253.0,37.0,0
1240,13.0,-256.0,35.0,0
1241,12.0,-253.0,39.0,0
1242,6.0,-254.0,30.0,0
1243,12.0,-254.0,36.0,0
1244,13.0,-256.0,31.0,0
1245,13.0,-257.0,34.0,0
1246,13.0,-254.0,31.0,0
1247,10.0,-255.0,32.0,0
1248,10.0,-255.0,33.0,0
1249,14.0,-252.0,34.0,0
1250,13.0,-254.0,35.0,0
1251,15.0,-257.0,31.0,0
1252,9.0,-257.0,30.0,0
1253,14.0,-261.0,32.0,0
1254,13.0,-254.0,34.0,0
1255,11.0,-256.0,31.0,0
1256,12.0,-257.0,38.0,0
1257,12.0,-252.0,38.0,0
1258,12.0,-252.0,33.0,0
1259,12.0,-255.0,38.0,0
1260,11.0,-251.0,33.0,0
1261,11.0,-253.0,36.0,0
1262,10.0,-251.0,38.0,0
1263,13.0,-260.0,39.0,0
1264,11.0,-251.0,29.0,0
1265,10.0,-255.0,29.0,0
1266,13.0,-254.0,35.0,0
1267,10.0,-252.0,36.0,0
1268,10.0,-252.0,33.0,0
1269,13.0,-254.0,36.0,0
1270,13.0,-255.0,36.0,0
1271,12.0,-256.0,32.0,0
1272,13.0,-257.0,38.0,0
1273,10.0,-255.0,37.0,0
1274,9.0,-254.0,38.0,0
1275,13.0,-258.0,40.0,0
1276,11.0,-257.0,36.0,0
1277,12.0,-255.0,37.0,0
1278,10.0,-253.0,34.0,0
1279,13.0,-255.0,36.0,0
1280,12.0,-256.0,34.0,0
1281,12.0,-255.0,36.0,0
1282,13.0,-251.0,38.0,0
1283,11.0,-253.0,34.0,0
1284,14.0,-254.0,36.0,0
1285,13.0,-253.0,42.0,0
1286,14.0,-257.0,38.0,0
1287,10.0,-255.0,39.0,0
1288,12.0,-255.0,37.0,0
1289,11.0,-256.0,36.0,0
1290,12.0,-253.0,36.0,0
1291,11.0,-256.0,35.0,0
1292,13.0,-256.0,36.0,0
1293,14.0,-257.0,36.0,0
1294,10.0,-256.0,37.0,0
1295,8.0,-254.0,35.0,0
1296,9.0,-254.0,37.0,0
1297,8.0,-250.0,32.0,0
1298,12.0,-252.0,33.0,0
1299,11.0,-256.0,34.0,0
1300,12.0,-253.0,31.0,0
1301,13.0,-254.0,36.0,0
1302,13.0,-254.0,40.0,0
1303,10.0,-254.0,36.0,0
1304,10.0,-253.0,34.0,0
1305,13.0,-253.0,40.0,0
1306,10.0,-252.0,34.0,0
1307,12.0,-254.0,34.0,0
1308,10.0,-260.0,31.0,0
1309,8.0,-252.0,37.0,0
1310,11.0,-255.0,36.0,0
1311,11.0,-252.0,36.0,0
1312,11.0,-256.0,35.0,0
1313,7.0,-254.0,39.0,0
1314,14.0,-257.0,39.0,0
1315,10.0,-254.0,33.0,0
1316,13.0,-255.0,36.0,0
1317,15.0,-257.0,36.0,0
1318,9.0,-257.0,33.0,0
1319,13.0,-255.0,36.0,0
1320,13.0,-255.0,35.0,0
1321,10.0,-254.0,38.0,0
1322,11.0,-253.0,36.0,0
1323,14.0,-255.0,32.0,0
1324,13.0,-254.0,33.0,0
1325,13.0,-251.0,37.0,0
1326,12.0,-252.0,38.0,0
1327,12.0,-256.0,38.0,0
1328,10.0,-254.0,40.0,0
1329,13.0,-250.0,38.0,0
1330,13.0,-256.0,32.0,0
1331,10.0,-254.0,35.0,0
1332,13.0,-255.0,32.0,0
1333,13.0,-255.0,36.0,0
1334,12.0,-257.0,37.0,0
1335,14.0,-254.0,34.0,0
1336,11.0,-254.0,38.0,0
1337,8.0,-255.0,35.0,0
1338,13.0,-255.0,37.0,0
1339,11.0,-253.0,39.0,0
1340,9.0,-250.0,36.0,0
1341,10.0,-253.0,35.0,0
1342,9.0,-254.0,35.0,0
1343,9.0,-255.0,36.0,0
1344,11.0,-255.0,36.0,0
1345,9.0,-254.0,38.0,0
1346,12.0,-256.0,36.0,0
1347,10.0,-254.0,35.0,0
1348,12.0,-255.0,35.0,0
1349,7.0,-254.0,35.0,0
1350,12.0,-254.0,34.0,0
1351,13.0,-249.0,36.0,0
1352,11.0,-255.0,36.0,0
1353,11.0,-253.0,33.0,0
1354,12.0,-255.0,37.0,0
1355,13.0,-254.0,35.0,0
1356,13.0,-254.0,38.0,0
1357,10.0,-255.0,32.0,0
1358,13.0,-257.0,37.0,0
1359,11.0,-254.0,38.0,0
1360,13.0,-256.0,36.0,0
1361,10.0,-253.0,39.0,0
1362,9.0,-250.0,37.0,0
1363,13.0,-256.0,40.0,0
1364,11.0,-255.0,36.0,0
1365,11.0,-254.0,37.0,0
1366,10.0,-255.0,37.0,0
1367,10.0,-254.0,40.0,0
1368,11.0,-255.0,35.0,0
1369,8.0,-254.0,37.0,0
1370,13.0,-253.0,34.0,0
1371,9.0,-254.0,36.0,0
1372,9.0,-253.0,40.0,0
1373,14.0,-259.0,39.0,0
1374,12.0,-253.0,38.0,0
1375,9.0,-255.0,38.0,0
1376,8.0,-252.0,40.0,0
1377,11.0,-254.0,39.0,0
1378,11.0,-254.0,38.0,0
1379,9.0,-253.0,38.0,0
1380,10.0,-251.0,42.0,0
1381,10.0,-254.0,35.0,0
1382,9.0,-254.0,42.0,0
1383,10.0,-253.0,39.0,0
1384,9.0,-251.0,35.0,0
1385,9.0,-254.0,36.0,0
1386,9.0,-255.0,39.0,0
1387,11.0,-253.0,40.0,0
1388,10.0,-254.0,38.0,0
1389,9.0,-253.0,39.0,0
1390,8.0,-252.0,36.0,0
1391,10.0,-254.0,38.0,0
1392,10.0,-255.0,35.0,0
1393,11.0,-256.0,39.0,0
1394,11.0,-254.0,40.0,0
1395,9.0,-256.0,37.0,0
1396,9.0,-253.0,33.0,0
1397,9.0,-252.0,37.0,0
1398,11.0,-255.0,40.0,0
1399,12.0,-251.0,39.0,0
1400,11.0,-254.0,39.0,0
1401,7.0,-254.0,43.0,0
1402,9.0,-255.0,34.0,0
1403,11.0,-256.0,39.0,0
1404,9.0,-254.0,34.0,0
1405,9.0,-252.0,36.0,0
1406,13.0,-253.0,43.0,0
1407,7.0,-254.0,42.0,0
1408,10.0,-253.0,39.0,0
1409,11.0,-254.0,37.0,0
1410,12.0,-254.0,37.0,0
1411,12.0,-254.0,38.0,0
1412,10.0,-253.0,42.0,0
1413,13.0,-253.0,40.0,0
1414,8.0,-253.0,38.0,0
1415,10.0,-253.0,36.0,0
1416,15.0,-246.0,38.0,0
1417,11.0,-253.0,36.0,0
1418,10.0,-253.0,38.0,0
1419,12.0,-251.0,30.0,0
1420,13.0,-253.0,37.0,0
1421,13.0,-255.0,37.0,0
1422,12.0,-254.0,41.0,0
1423,11.0,-252.0,42.0,0
1424,13.0,-256.0,35.0,0
1425,9.0,-256.0,36.0,0
1426,10.0,-250.0,42.0,0
1427,7.0,-257.0,38.0,0
1428,10.0,-253.0,38.0,0
1429,12.0,-255.0,40.0,0
1430,10.0,-253.0,42.0,0
1431,10.0,-255.0,39.0,0
1432,10.0,-253.0,39.0,0
1433,8.0,-255.0,40.0,0
1434,9.0,-254.0,40.0,0
1435,10.0,-256.0,37.0,0
1436,12.0,-254.0,41.0,0
1437,10.0,-250.0,44.0,0
1438,7.0,-252.0,39.0,0
1439,8.0,-255.0,42.0,0
1440,8.0,-254.0,37.0,0
1441,8.0,-255.0,38.0,0
1442,7.0,-252.0,39.0,0
1443,8.0,-254.0,37.0,0
1444,9.0,-254.0,40.0,0
1445,8.0,-252.0,34.0,0
1446,14.0,-253.0,41.0,0
1447,9.0,-252.0,40.0,0
1448,13.0,-254.0,39.0,0
1449,8.0,-251.0,36.0,0
1450,9.0,-255.0,37.0,0
1451,8.0,-251.0,39.0,0
1452,10.0,-254.0,40.0,0
1453,12.0,-254.0,39.0,0
1454,7.0,-253.0,41.0,0
1455,9.0,-254.0,42.0,0
1456,5.0,-250.0,38.0,0
1457,10.0,-253.0,37.0,0
1458,8.0,-254.0,33.0,0
1459,12.0,-254.0,39.0,0
1460,10.0,-256.0,33.0,0
1461,7.0,-254.0,39.0,0
1462,7.0,-255.0,40.0,0
1463,10.0,-254.0,42.0,0
1464,10.0,-255.0,38.0,0
1465,9.0,-254.0,38.0,0
1466,9.0,-253.0,41.0,0
1467,8.0,-251.0,40.0,0
1468,6.0,-253.0,42.0,0
1469,9.0,-251.0,37.0,0
1470,10.0,-253.0,44.0,0
1471,15.0,-252.0,41.0,0
1472,9.0,-254.0,41.0,0
1473,9.0,-254.0,40.0,0
1474,12.0,-252.0,38.0,0
1475,7.0,-255.0,39.0,0
1476,10.0,-255.0,39.0,0
1477,11.0,-253.0,35.0,0
1478,11.0,-254.0,40.0,0
1479,9.0,-253.0,38.0,0
1480,7.0,-252.0,40.0,0
1481,7.0,-254.0,39.0,0
1482,8.0,-256.0,33.0,0
1483,8.0,-253.0,39.0,0
1484,11.0,-252.0,37.0,0
1485,9.0,-252.0,41.0,0
1486,12.0,-255.0,40.0,0
1487,7.0,-252.0,42.0,0
1488,9.0,-254.0,38.0,0
1489,12.0,-254.0,39.0,0
1490,12.0,-254.0,45.0,0
1491,10.0,-253.0,39.0,0
1492,12.0,-253.0,41.0,0
1493,5.0,-254.0,31.0,0
1494,14.0,-255.0,38.0,0
1495,10.0,-251.0,38.0,0
1496,12.0,-255.0,41.0,0
1497,11.0,-253.0,38.0,0
1498,10.0,-252.0,40.0,0
1499,9.0,-255.0,40.0,0
1500,9.0,-255.0,37.0,0
1501,8.0,-253.0,37.0,0
1502,8.0,-253.0,42.0,0
1503,12.0,-255.0,41.0,0
1504,9.0,-252.0,41.0,0
1505,9.0,-250.0,38.0,0
1506,10.0,-252.0,39.0,0
1507,9.0,-254.0,38.0,0
1508,8.0,-252.0,39.0,0
1509,10.0,-255.0,41.0,0
1510,10.0,-254.0,40.0,0
1511,9.0,-251.0,38.0,0
1512,7.0,-252.0,35.0,0
1513,9.0,-254.0,40.0,0
1514,8.0,-254.0,40.0,0
1515,17.0,-253.0,44.0,0
1516,9.0,-254.0,40.0,0
1517,10.0,-251.0,38.0,0
1518,8.0,-253.0,39.0,0
1519,11.0,-256.0,40.0,0
1520,10.0,-256.0,41.0,0
1521,10.0,-255.0,39.0,0
1522,13.0,-255.0,42.0,0
1523,12.0,-253.0,45.0,0
1524,10.0,-254.0,40.0,0
1525,14.0,-253.0,44.0,0
1526,11.0,-254.0,41.0,0
1527,7.0,-255.0,41.0,0
1528,9.0,-254.0,40.0,0
1529,7.0,-254.0,45.0,0
1530,7.0,-253.0,39.0,0
1531,8.0,-254.0,39.0,0
1532,7.0,-254.0,42.0,0
1533,9.0,-251.0,42.0,0
1534,9.0,-254.0,38.0,0
1535,11.0,-255.0,43.0,0
1536,6.0,-255.0,36.0,0
1537,10.0,-254.0,44.0,0
1538,7.0,-254.0,42.0,0
1539,10.0,-255.0,41.0,0
1540,7.0,-252.0,40.0,0
1541,6.0,-250.0,40.0,0
1542,9.0,-249.0,39.0,0
1543,10.0,-255.0,39.0,0
1544,8.0,-252.0,39.0,0
1545,10.0,-253.0,44.0,0
1546,8.0,-253.0,38.0,0
1547,12.0,-256.0,41.0,0
1548,11.0,-254.0,39.0,0
1549,4.0,-252.0,44.0,0
1550,8.0,-254.0,43.0,0
1551,5.0,-254.0,33.0,0
1552,14.0,-245.0,44.0,0
1553,3.0,-258.0,36.0,0
1554,11.0,-244.0,37.0,0
1555,15.0,-250.0,44.0,0
1556,11.0,-256.0,31.0,0
1557,16.0,-252.0,34.0,0
1558,11.0,-255.0,41.0,0
1559,15.0,-255.0,39.0,0
1560,11.0,-253.0,42.0,0
1561,25.0,-255.0,43.0,0
1562,11.0,-255.0,33.0,0
1563,7.0,-252.0,37.0,0
1564,13.0,-256.0,42.0,0
1565,8.0,-245.0,44.0,0
1566,9.0,-254.0,43.0,0
1567,22.0,-254.0,41.0,0
1568,7.0,-250.0,44.0,0
1569,9.0,-255.0,33.0,0
1570,5.0,-254.0,39.0,0
1571,10.0,-254.0,48.0,0
1572,11.0,-253.0,41.0,0
1573,6.0,-253.0,42.0,0
1574,5.0,-251.0,30.0,0
1575,7.0,-249.0,46.0,0
1576,7.0,-254.0,40.0,0
1577,8.0,-253.0,40.0,0
1578,13.0,-253.0,41.0,0
1579,9.0,-253.0,42.0,0
1580,4.0,-254.0,36.0,0
1581,12.0,-254.0,43.0,0
1582,14.0,-255.0,38.0,0
1583,8.0,-252.0,39.0,0
1584,3.0,-251.0,40.0,0
1585,9.0,-256.0,42.0,0
1586,8.0,-254.0,44.0,0
1587,12.0,-254.0,43.0,0
1588,9.0,-255.0,42.0,0
1589,9.0,-254.0,40.0,0
1590,7.0,-255.0,36.0,0
1591,10.0,-254.0,40.0,0
1592,8.0,-251.0,42.0,0
1593,7.0,-253.0,40.0,0
1594,13.0,-252.0,36.0,0
1595,10.0,-256.0,40.0,0
1596,10.0,-254.0,39.0,0
1597,10.0,-254.0,39.0,0
1598,8.0,-252.0,39.0,0
1599,12.0,-253.0,41.0,0
1600,9.0,-254.0,41.0,0
1601,13.0,-252.0,41.0,0
1602,10.0,-253.0,38.0,0
1603,10.0,-253.0,41.0,0
1604,8.0,-254.0,46.0,0
1605,7.0,-254.0,41.0,0
1606,11.0,-256.0,40.0,0
1607,9.0,-252.0,41.0,0
1608,12.0,-251.0,41.0,0
1609,10.0,-254.0,39.0,0
1610,10.0,-251.0,40.0,0
1611,9.0,-253.0,40.0,0
1612,9.0,-252.0,44.0,0
1613,7.0,-251.0,42.0,0
1614,9.0,-253.0,45.0,0
1615,10.0,-254.0,38.0,0
1616,10.0,-253.0,39.0,0
1617,7.0,-252.0,41.0,0
1618,9.0,-254.0,41.0,0
1619,8.0,-254.0,40.0,0
1620,7.0,-255.0,39.0,0
1621,8.0,-251.0,36.0,0
1622,8.0,-253.0,40.0,0
1623,6.0,-250.0,42.0,0
1624,11.0,-254.0,38.0,0
1625,8.0,-254.0,42.0,0
1626,7.0,-254.0,39.0,0
1627,12.0,-255.0,37.0,0
1628,11.0,-254.0,40.0,0
1629,8.0,-253.0,40.0,0
1630,11.0,-253.0,44.0,0
1631,10.0,-252.0,41.0,0
1632,8.0,-252.0,42.0,0
1633,10.0,-253.0,37.0,0
1634,7.0,-254.0,39.0,0
1635,9.0,-253.0,38.0,0
1636,12.0,-255.0,39.0,0
1637,10.0,-253.0,40.0,0
1638,8.0,-252.0,40.0,0
1639,9.0,-253.0,40.0,0
1640,7.0,-253.0,41.0,0
1641,10.0,-255.0,39.0,0
1642,10.0,-250.0,39.0,0
1643,9.0,-252.0,41.0,0
1644,10.0,-254.0,37.0,0
1645,8.0,-253.0,40.0,0
1646,9.0,-253.0,41.0,0
1647,11.0,-254.0,42.0,0
1648,9.0,-254.0,41.0,0
1649,10.0,-255.0,40.0,0
1650,10.0,-253.0,41.0,0
1651,11.0,-254.0,39.0,0
1652,11.0,-254.0,42.0,0
1653,10.0,-254.0,38.0,0
1654,11.0,-254.0,42.0,0
1655,8.0,-251.0,46.0,0
1656,12.0,-255.0,42.0,0
1657,9.0,-254.0,41.0,0
1658,10.0,-253.0,41.0,0
1659,10.0,-254.0,43.0,0
1660,12.0,-254.0,45.0,0
1661,10.0,-255.0,41.0,0
1662,7.0,-252.0,39.0,0
1663,10.0,-251.0,37.0,0
1664,11.0,-252.0,38.0,0
1665,10.0,-255.0,42.0,0
1666,10.0,-251.0,44.0,0
1667,8.0,-247.0,36.0,0
1668,10.0,-254.0,42.0,0
1669,11.0,-255.0,40.0,0
1670,11.0,-255.0,40.0,0
1671,11.0,-255.0,39.0,0
1672,11.0,-253.0,43.0,0
1673,12.0,-255.0,42.0,0
1674,13.0,-254.0,37.0,0
1675,10.0,-256.0,42.0,0
1676,9.0,-254.0,41.0,0
1677,8.0,-256.0,39.0,0
1678,6.0,-255.0,39.0,0
1679,11.0,-254.0,40.0,0
1680,7.0,-252.0,37.0,0
1681,8.0,-253.0,44.0,0
1682,7.0,-251.0,42.0,0
1683,8.0,-253.0,41.0,0
1684,9.0,-254.0,35.0,0
1685,10.0,-253.0,43.0,0
1686,10.0,-255.0,35.0,0
1687,12.0,-253.0,43.0,0
1688,9.0,-253.0,44.0,0
1689,10.0,-252.0,39.0,0
1690,9.0,-253.0,38.0,0
1691,7.0,-253.0,46.0,0
1692,8.0,-252.0,43.0,0
1693,8.0,-253.0,41.0,0
1694,7.0,-254.0,44.0,0
1695,11.0,-254.0,44.0,0
1696,11.0,-252.0,41.0,0
1697,7.0,-253.0,42.0,0
1698,11.0,-253.0,44.0,0
1699,9.0,-252.0,44.0,0
1700,11.0,-253.0,38.0,0
1701,12.0,-254.0,39.0,0
1702,11.0,-252.0,38.0,0
1703,9.0,-250.0,37.0,0
1704,6.0,-251.0,41.0,0
1705,9.0,-253.0,37.0,0
1706,9.0,-251.0,40.0,0
1707,8.0,-250.0,36.0,0
1708,9.0,-254.0,37.0,0
1709,10.0,-253.0,43.0,0
1710,7.0,-254.0,37.0,0
1711,6.0,-256.0,41.0,0
1712,12.0,-254.0,45.0,0
1713,9.0,-254.0,41.0,0
1714,9.0,-253.0,40.0,0
1715,8.0,-252.0,43.0,0
1716,10.0,-252.0,42.0,0
1717,8.0,-252.0,41.0,0
1718,10.0,-253.0,39.0,0
1719,-1.0,-253.0,42.0,0
1720,8.0,-250.0,42.0,0
1721,12.0,-255.0,37.0,0
1722,5.0,-251.0,44.0,0
1723,10.0,-252.0,40.0,0
1724,9.0,-253.0,41.0,0
1725,8.0,-253.0,42.0,0
1726,11.0,-254.0,43.0,0
1727,7.0,-253.0,38.0,0
1728,8.0,-250.0,39.0,0
1729,7.0,-253.0,36.0,0
1730,7.0,-252.0,40.0,0
1731,9.0,-252.0,42.0,0
1732,7.0,-255.0,48.0,0
1733,10.0,-251.0,40.0,0
1734,12.0,-254.0,39.0,0
1735,12.0,-252.0,43.0,0
1736,9.0,-253.0,42.0,0
1737,7.0,-253.0,43.0,0
1738,10.0,-253.0,41.0,0
1739,7.0,-253.0,39.0,0
1740,9.0,-254.0,41.0,0
1741,9.0,-255.0,41.0,0
1742,8.0,-248.0,43.0,0
1743,8.0,-252.0,43.0,0
1744,10.0,-253.0,42.0,0
1745,9.0,-252.0,44.0,0
1746,9.0,-256.0,42.0,0
1747,11.0,-255.0,40.0,0
1748,7.0,-254.0,43.0,0
1749,9.0,-254.0,40.0,0
1750,7.0,-254.0,39.0,0
1751,10.0,-252.0,39.0,0
1752,13.0,-253.0,39.0,0
1753,11.0,-253.0,37.0,0
1754,17.0,-256.0,44.0,0
1755,9.0,-250.0,41.0,0
1756,11.0,-253.0,42.0,0
1757,10.0,-253.0,38.0,0
1758,10.0,-253.0,44.0,0
1759,9.0,-252.0,42.0,0
1760,9.0,-251.0,42.0,0
1761,9.0,-254.0,40.0,0
1762,10.0,-252.0,44.0,0
1763,9.0,-250.0,38.0,0
1764,5.0,-253.0,41.0,0
1765,5.0,-256.0,40.0,0
1766,10.0,-251.0,43.0,0
1767,11.0,-254.0,39.0,0
1768,10.0,-254.0,34.0,0
1769,10.0,-252.0,34.0,0
1770,8.0,-253.0,43.0,0
1771,9.0,-254.0,38.0,0
1772,10.0,-255.0,41.0,0
1773,7.0,-253.0,40.0,0
1774,7.0,-254.0,38.0,0
1775,10.0,-254.0,44.0,0
1776,3.0,-250.0,44.0,0
1777,10.0,-253.0,41.0,0
1778,10.0,-255.0,41.0,0
1779,9.0,-251.0,42.0,0
1780,7.0,-252.0,41.0,0
1781,11.0,-253.0,43.0,0
1782,11.0,-253.0,41.0,0
1783,12.0,-251.0,46.0,0
1784,11.0,-255.0,41.0,0
1785,6.0,-251.0,41.0,0
1786,9.0,-256.0,40.0,0
1787,10.0,-261.0,41.0,0
1788,10.0,-253.0,37.0,0
1789,10.0,-253.0,40.0,0
1790,10.0,-253.0,40.0,0
1791,7.0,-252.0,42.0,0
1792,12.0,-254.0,43.0,0
1793,10.0,-254.0,40.0,0
1794,6.0,-253.0,40.0,0
1795,14.0,-254.0,43.0,0
1796,6.0,-251.0,44.0,0
1797,8.0,-251.0,43.0,0
1798,10.0,-260.0,41.0,0
1799,9.0,-252.0,42.0,0
1800,10.0,-255.0,43.0,0
1801,9.0,-254.0,42.0,0
1802,8.0,-252.0,43.0,0
1803,10.0,-251.0,41.0,0
1804,10.0,-253.0,45.0,0
1805,5.0,-251.0,40.0,0
1806,10.0,-253.0,43.0,0
1807,10.0,-254.0,45.0,0
1808,12.0,-252.0,44.0,0
1809,5.0,-254.0,34.0,0
1810,10.0,-253.0,42.0,0
1811,10.0,-255.0,41.0,0
1812,7.0,-251.0,39.0,0
1813,10.0,-255.0,39.0,0
1814,9.0,-252.0,41.0,0
1815,6.0,-253.0,43.0,0
1816,7.0,-250.0,44.0,0
1817,13.0,-254.0,42.0,0
1818,8.0,-251.0,42.0,0
1819,13.0,-254.0,39.0,0
1820,9.0,-250.0,41.0,0
1821,7.0,-253.0,42.0,0
1822,12.0,-255.0,43.0,0
1823,8.0,-255.0,41.0,0
1824,9.0,-253.0,41.0,0
1825,8.0,-254.0,41.0,0
1826,7.0,-251.0,42.0,0
1827,5.0,-251.0,45.0,0
1828,9.0,-253.0,40.0,0
1829,6.0,-251.0,42.0,0
1830,8.0,-249.0,39.0,0
1831,9.0,-254.0,46.0,0
1832,9.0,-255.0,39.0,0
1833,7.0,-251.0,42.0,0
1834,8.0,-251.0,42.0,0
1835,8.0,-254.0,42.0,0
1836,11.0,-255.0,41.0,0
1837,13.0,-253.0,42.0,0
1838,12.0,-254.0,42.0,0
1839,8.0,-252.0,42.0,0
1840,7.0,-248.0,47.0,0
1841,7.0,-250.0,36.0,0
1842,8.0,-251.0,42.0,0
1843,10.0,-255.0,39.0,0
1844,12.0,-254.0,40.0,0
1845,10.0,-251.0,41.0,0
1846,7.0,-252.0,41.0,0
1847,8.0,-253.0,41.0,0
1848,9.0,-251.0,40.0,0
1849,7.0,-253.0,45.0,0
1850,7.0,-253.0,40.0,0
1851,8.0,-251.0,45.0,0
1852,7.0,-244.0,45.0,0
1853,9.0,-253.0,41.0,0
1854,9.0,-254.0,40.0,0
1855,9.0,-254.0,44.0,0
1856,11.0,-252.0,40.0,0
1857,8.0,-250.0,38.0,0
1858,10.0,-251.0,42.0,0
1859,9.0,-252.0,40.0,0
1860,11.0,-252.0,39.0,0
1861,10.0,-252.0,45.0,0
1862,11.0,-255.0,40.0,0
1863,7.0,-253.0,39.0,0
1864,12.0,-253.0,40.0,0
1865,10.0,-255.0,40.0,0
1866,10.0,-254.0,41.0,0
1867,9.0,-254.0,41.0,0
1868,10.0,-255.0,37.0,0
1869,9.0,-253.0,39.0,0
1870,8.0,-253.0,44.0,0
1871,9.0,-255.0,41.0,0
1872,10.0,-253.0,39.0,0
1873,7.0,-252.0,41.0,0
1874,8.0,-251.0,44.0,0
1875,6.0,-253.0,41.0,0
1876,7.0,-254.0,41.0,0
1877,6.0,-251.0,41.0,0
1878,10.0,-250.0,44.0,0
1879,8.0,-251.0,41.0,0
1880,9.0,-255.0,42.0,0
1881,10.0,-250.0,43.0,0
1882,8.0,-254.0,40.0,0
1883,9.0,-252.0,42.0,0
1884,7.0,-253.0,40.0,0
1885,10.0,-250.0,42.0,0
1886,9.0,-254.0,42.0,0
1887,7.0,-252.0,41.0,0
1888,9.0,-252.0,42.0,0
1889,9.0,-252.0,40.0,0
1890,11.0,-256.0,41.0,0
1891,8.0,-254.0,40.0,0
1892,12.0,-255.0,40.0,0
1893,7.0,-252.0,43.0,0
1894,10.0,-255.0,40.0,0
1895,10.0,-253.0,41.0,0
1896,9.0,-255.0,42.0,0
1897,10.0,-255.0,43.0,0
1898,12.0,-254.0,41.0,0
1899,8.0,-252.0,40.0,0
1900,6.0,-249.0,42.0,0
1901,8.0,-254.0,43.0,0
1902,8.0,-251.0,41.0,0
1903,13.0,-255.0,46.0,0
1904,7.0,-253.0,44.0,0
1905,8.0,-251.0,43.0,0
1906,8.0,-253.0,42.0,0
1907,8.0,-248.0,38.0,0
1908,8.0,-253.0,44.0,0
1909,9.0,-254.0,42.0,0
1910,9.0,-256.0,44.0,0
1911,10.0,-255.0,44.0,0
1912,8.0,-254.0,40.0,0
1913,12.0,-253.0,41.0,0
1914,6.0,-253.0,40.0,0
1915,9.0,-251.0,41.0,0
1916,9.0,-250.0,40.0,0
1917,11.0,-252.0,43.0,0
1918,7.0,-248.0,45.0,0
1919,8.0,-253.0,39.0,0
1920,10.0,-253.0,47.0,0
1921,10.0,-253.0,38.0,0
1922,8.0,-252.0,38.0,0
1923,9.0,-254.0,41.0,0
1924,11.0,-252.0,42.0,0
1925,13.0,-253.0,43.0,0
1926,9.0,-253.0,42.0,0
1927,11.0,-255.0,47.0,0
1928,9.0,-252.0,41.0,0
1929,9.0,-254.0,43.0,0
1930,11.0,-252.0,44.0,0
1931,11.0,-255.0,44.0,0
1932,7.0,-252.0,41.0,0
1933,9.0,-252.0,41.0,0
1934,10.0,-254.0,42.0,0
1935,8.0,-252.0,44.0,0
1936,7.0,-251.0,42.0,0
1937,12.0,-250.0,42.0,0
1938,7.0,-247.0,44.0,0
1939,9.0,-252.0,38.0,0
1940,10.0,-254.0,45.0,0
1941,9.0,-254.0,40.0,0
1942,12.0,-254.0,39.0,0
1943,9.0,-251.0,41.0,0
1944,5.0,-253.0,40.0,0
1945,9.0,-253.0,44.0,0
1946,8.0,-253.0,39.0,0
1947,8.0,-253.0,41.0,0
1948,6.0,-250.0,43.0,0
1949,12.0,-253.0,47.0,0
1950,10.0,-253.0,44.0,0
1951,11.0,-253.0,43.0,0
1952,7.0,-250.0,41.0,0
1953,12.0,-254.0,43.0,0
1954,10.0,-252.0,45.0,0
1955,9.0,-252.0,42.0,0
1956,11.0,-253.0,45.0,0
1957,9.0,-248.0,41.0,0
1958,7.0,-248.0,47.0,0
1959,9.0,-252.0,38.0,0
1960,10.0,-252.0,39.0,0
1961,3.0,-252.0,44.0,0
1962,11.0,-255.0,41.0,0
1963,8.0,-253.0,44.0,0
1964,7.0,-251.0,41.0,0
1965,6.0,-250.0,41.0,0
1966,6.0,-251.0,43.0,0
1967,8.0,-252.0,43.0,0
1968,8.0,-253.0,42.0,0
1969,9.0,-252.0,42.0,0
1970,8.0,-253.0,41.0,0
1971,8.0,-253.0,45.0,0
1972,13.0,-252.0,40.0,0
1973,10.0,-253.0,41.0,0
1974,8.0,-251.0,43.0,0
1975,10.0,-253.0,43.0,0
1976,9.0,-254.0,40.0,0
1977,6.0,-252.0,39.0,0
1978,7.0,-252.0,41.0,0
1979,8.0,-252.0,45.0,0
1980,9.0,-256.0,44.0,0
1981,8.0,-251.0,40.0,0
1982,10.0,-250.0,46.0,0
1983,11.0,-248.0,47.0,0
1984,9.0,-251.0,41.0,0
1985,8.0,-254.0,38.0,0
1986,8.0,-253.0,39.0,0
1987,9.0,-252.0,40.0,0
1988,11.0,-254.0,41.0,0
1989,12.0,-254.0,45.0,0
1990,8.0,-252.0,45.0,0
1991,11.0,-251.0,44.0,0
1992,11.0,-253.0,41.0,0
1993,14.0,-250.0,42.0,0
1994,10.0,-247.0,38.0,0
1995,9.0,-254.0,45.0,0
1996,9.0,-254.0,40.0,0
1997,9.0,-251.0,41.0,0
1998,12.0,-253.0,42.0,0
1999,10.0,-251.0,44.0,0
2000,8.0,-252.0,42.0,0
2001,8.0,-254.0,44.0,0
2002,11.0,-255.0,45.0,0
2003,11.0,-254.0,39.0,0
2004,11.0,-251.0,46.0,0
2005,7.0,-249.0,40.0,0
2006,9.0,-251.0,42.0,0
2007,12.0,-254.0,39.0,0
2008,8.0,-253.0,41.0,0
2009,9.0,-254.0,43.0,0
2010,11.0,-249.0,41.0,0
2011,9.0,-253.0,41.0,0
2012,8.0,-250.0,41.0,0
2013,9.0,-251.0,41.0,0
2014,9.0,-250.0,45.0,0
2015,9.0,-252.0,41.0,0
2016,14.0,-247.0,38.0,0
2017,10.0,-254.0,43.0,0
2018,10.0,-253.0,44.0,0
2019,9.0,-253.0,40.0,0
2020,9.0,-251.0,40.0,0
2021,12.0,-255.0,39.0,0
2022,9.0,-253.0,47.0,0
2023,10.0,-254.0,47.0,0
2024,13.0,-254.0,42.0,0
2025,8.0,-254.0,43.0,0
2026,12.0,-257.0,45.0,0
2027,6.0,-250.0,40.0,0
2028,9.0,-255.0,45.0,0
2029,8.0,-253.0,44.0,0
2030,9.0,-252.0,42.0,0
2031,6.0,-252.0,40.0,0
2032,6.0,-251.0,41.0,0
2033,9.0,-253.0,38.0,0
2034,9.0,-255.0,40.0,0
2035,9.0,-251.0,41.0,0
2036,11.0,-254.0,40.0,0
2037,7.0,-250.0,36.0,0
2038,10.0,-253.0,43.0,0
2039,12.0,-255.0,42.0,0
2040,9.0,-252.0,40.0,0
2041,10.0,-253.0,42.0,0
2042,9.0,-252.0,42.0,0
2043,11.0,-253.0,39.0,0
2044,10.0,-254.0,41.0,0
2045,10.0,-254.0,41.0,0
2046,7.0,-255.0,38.0,0
2047,8.0,-254.0,43.0,0
2048,3.0,-255.0,42.0,0
2049,8.0,-253.0,43.0,0
2050,8.0,-254.0,40.0,0
2051,11.0,-255.0,43.0,0
2052,9.0,-253.0,43.0,0
2053,9.0,-253.0,45.0,0
2054,8.0,-252.0,41.0,0
2055,11.0,-251.0,40.0,0
2056,11.0,-251.0,41.0,0
2057,9.0,-252.0,46.0,0
2058,7.0,-254.0,43.0,0
2059,2.0,-254.0,43.0,0
2060,10.0,-252.0,45.0,0
2061,10.0,-254.0,42.0,0
2062,9.0,-253.0,42.0,0
2063,8.0,-251.0,40.0,0
2064,10.0,-254.0,40.0,0
2065,9.0,-250.0,39.0,0
2066,8.0,-253.0,39.0,0
2067,10.0,-251.0,42.0,0
2068,7.0,-249.0,46.0,0
2069,34.0,-256.0,47.0,0
2070,1.0,-255.0,35.0,0
2071,10.0,-254.0,42.0,0
2072,7.0,-249.0,43.0,0
2073,7.0,-253.0,39.0,0
2074,7.0,-250.0,40.0,0
2075,8.0,-251.0,43.0,0
2076,10.0,-251.0,43.0,0
2077,12.0,-253.0,44.0,0
2078,13.0,-256.0,43.0,0
2079,8.0,-252.0,45.0,0
2080,8.0,-252.0,41.0,0
2081,9.0,-256.0,40.0,0
2082,11.0,-251.0,41.0,0
2083,11.0,-253.0,44.0,0
2084,10.0,-252.0,47.0,0
2085,9.0,-252.0,41.0,0
2086,10.0,-253.0,40.0,0
2087,9.0,-252.0,39.0,0
2088,10.0,-253.0,40.0,0
2089,7.0,-251.0,41.0,0
2090,12.0,-255.0,34.0,0
2091,10.0,-253.0,43.0,0
2092,10.0,-252.0,39.0,0
2093,8.0,-254.0,41.0,0
2094,9.0,-254.0,37.0,0
2095,10.0,-255.0,44.0,0
2096,8.0,-251.0,43.0,0
2097,9.0,-252.0,42.0,0
2098,10.0,-255.0,46.0,0
2099,8.0,-254.0,41.0,0
2100,9.0,-254.0,41.0,0
2101,10.0,-254.0,43.0,0
2102,9.0,-252.0,40.0,0
2103,11.0,-249.0,44.0,0
2104,9.0,-250.0,46.0,0
2105,11.0,-253.0,42.0,0
2106,8.0,-251.0,41.0,0
2107,11.0,-254.0,44.0,0
2108,9.0,-251.0,45.0,0
2109,9.0,-250.0,40.0,0
2110,8.0,-251.0,45.0,0
2111,8.0,-255.0,43.0,0
2112,9.0,-251.0,41.0,0
2113,11.0,-254.0,43.0,0
2114,7.0,-253.0,40.0,0
2115,11.0,-251.0,42.0,0
2116,12.0,-253.0,44.0,0
2117,10.0,-252.0,41.0,0
2118,11.0,-252.0,43.0,0
2119,10.0,-250.0,47.0,0
2120,8.0,-251.0,42.0,0
2121,9.0,-253.0,42.0,0
2122,7.0,-250.0,45.0,0
2123,7.0,-253.0,44.0,0
2124,8.0,-252.0,48.0,0
2125,7.0,-249.0,40.0,0
2126,8.0,-250.0,43.0,0
2127,10.0,-254.0,44.0,0
2128,11.0,-254.0,43.0,0
2129,8.0,-252.0,41.0,0
2130,12.0,-253.0,44.0,0
2131,9.0,-250.0,47.0,0
2132,10.0,-253.0,41.0,0
2133,11.0,-253.0,44.0,0
2134,9.0,-257.0,38.0,0
2135,10.0,-254.0,42.0,0
2136,10.0,-253.0,40.0,0
2137,11.0,-252.0,45.0,0
2138,10.0,-254.0,38.0,0
2139,7.0,-253.0,42.0,0
2140,11.0,-254.0,42.0,0
2141,9.0,-254.0,42.0,0
2142,8.0,-255.0,42.0,0
2143,11.0,-251.0,39.0,0
2144,11.0,-253.0,41.0,0
2145,9.0,-250.0,43.0,0
2146,10.0,-250.0,48.0,0
2147,12.0,-255.0,42.0,0
2148,10.0,-254.0,40.0,0
2149,7.0,-252.0,46.0,0
2150,9.0,-252.0,44.0,0
2151,8.0,-249.0,43.0,0
2152,9.0,-253.0,43.0,0
2153,6.0,-251.0,43.0,0
2154,10.0,-252.0,43.0,0
2155,9.0,-254.0,44.0,0
2156,9.0,-256.0,43.0,0
2157,4.0,-255.0,41.0,0
2158,10.0,-253.0,44.0,0
2159,7.0,-250.0,43.0,0
2160,11.0,-254.0,44.0,0
2161,10.0,-251.0,43.0,0
2162,7.0,-252.0,40.0,0
2163,11.0,-253.0,42.0,0
2164,13.0,-253.0,42.0,0
2165,11.0,-251.0,46.0,0
2166,10.0,-254.0,44.0,0
2167,8.0,-252.0,37.0,0
2168,16.0,-252.0,45.0,0
2169,9.0,-253.0,42.0,0
2170,9.0,-254.0,43.0,0
2171,7.0,-251.0,41.0,0
2172,6.0,-252.0,42.0,0
2173,11.0,-251.0,44.0,0
2174,9.0,-255.0,42.0,0
2175,9.0,-253.0,42.0,0
2176,12.0,-251.0,46.0,0
2177,9.0,-252.0,41.0,0
2178,8.0,-254.0,42.0,0
2179,9.0,-254.0,37.0,0
2180,11.0,-252.0,46.0,0
2181,7.0,-251.0,44.0,0
2182,10.0,-254.0,44.0,0
2183,7.0,-250.0,45.0,0
2184,11.0,-255.0,45.0,0
2185,11.0,-252.0,42.0,0
2186,8.0,-252.0,41.0,0
2187,11.0,-254.0,42.0,0
2188,14.0,-254.0,39.0,0
2189,9.0,-254.0,46.0,0
2190,8.0,-250.0,44.0,0
2191,8.0,-251.0,43.0,0
2192,9.0,-252.0,44.0,0
2193,11.0,-251.0,41.0,0
2194,11.0,-254.0,43.0,0
2195,11.0,-252.0,42.0,0
2196,10.0,-255.0,41.0,0
2197,13.0,-254.0,44.0,0
2198,11.0,-254.0,43.0,0
2199,11.0,-250.0,42.0,0
2200,8.0,-249.0,47.0,0
2201,6.0,-251.0,42.0,0
2202,10.0,-253.0,42.0,0
2203,12.0,-250.0,43.0,0
2204,8.0,-252.0,43.0,0
2205,8.0,-250.0,44.0,0
2206,9.0,-253.0,44.0,0
2207,11.0,-250.0,49.0,0
2208,6.0,-251.0,43.0,0
2209,7.0,-251.0,45.0,0
2210,8.0,-249.0,45.0,0
2211,10.0,-255.0,47.0,0
2212,12.0,-254.0,41.0,0
2213,8.0,-254.0,41.0,0
2214,10.0,-253.0,44.0,0
2215,10.0,-251.0,41.0,0
2216,10.0,-254.0,44.0,0
2217,9.0,-254.0,41.0,0
2218,10.0,-253.0,41.0,0
2219,8.0,-255.0,43.0,0
2220,6.0,-251.0,42.0,0
2221,12.0,-253.0,46.0,0
2222,8.0,-253.0,41.0,0
2223,16.0,-255.0,40.0,0
2224,12.0,-252.0,45.0,0
2225,10.0,-253.0,44.0,0
2226,9.0,-250.0,46.0,0
2227,11.0,-255.0,42.0,0
2228,8.0,-251.0,42.0,0
2229,9.0,-250.0,46.0,0
2230,9.0,-252.0,42.0,0
2231,9.0,-252.0,39.0,0
2232,9.0,-251.0,45.0,0
2233,12.0,-251.0,42.0,0
2234,9.0,-252.0,42.0,0
2235,8.0,-251.0,42.0,0
2236,9.0,-251.0,38.0,0
2237,11.0,-253.0,40.0,0
2238,10.0,-255.0,41.0,0
2239,12.0,-253.0,42.0,0
2240,6.0,-252.0,42.0,0
2241,13.0,-253.0,44.0,0
2242,8.0,-254.0,44.0,0
2243,9.0,-252.0,41.0,0
2244,10.0,-250.0,49.0,0
2245,9.0,-253.0,43.0,0
2246,8.0,-249.0,42.0,0
2247,11.0,-254.0,42.0,0
2248,9.0,-253.0,42.0,0
2249,8.0,-252.0,43.0,0
2250,8.0,-251.0,43.0,0
2251,10.0,-251.0,40.0,0
2252,8.0,-252.0,44.0,0
2253,12.0,-252.0,37.0,0
2254,10.0,-251.0,44.0,0
2255,10.0,-251.0,45.0,0
2256,13.0,-255.0,43.0,0
2257,9.0,-251.0,42.0,0
2258,10.0,-251.0,44.0,0
2259,10.0,-253.0,45.0,0
2260,9.0,-251.0,47.0,0
2261,11.0,-255.0,45.0,0
2262,10.0,-253.0,46.0,0
2263,7.0,-252.0,43.0,0
2264,12.0,-254.0,44.0,0
2265,9.0,-254.0,39.0,0
2266,11.0,-252.0,45.0,0
2267,7.0,-251.0,42.0,0
2268,9.0,-250.0,44.0,0
2269,9.0,-253.0,41.0,0
2270,8.0,-253.0,43.0,0
2271,10.0,-254.0,42.0,0
2272,10.0,-252.0,42.0,0
2273,10.0,-251.0,39.0,0
2274,6.0,-251.0,43.0,0
2275,10.0,-253.0,44.0,0
2276,11.0,-252.0,43.0,0
2277,11.0,-249.0,43.0,0
2278,8.0,-252.0,41.0,0
2279,9.0,-253.0,42.0,0
2280,10.0,-250.0,45.0,0
2281,9.0,-253.0,41.0,0
2282,10.0,-253.0,40.0,0
2283,10.0,-252.0,41.0,0
2284,8.0,-252.0,41.0,0
2285,10.0,-253.0,45.0,0
2286,11.0,-253.0,41.0,0
2287,10.0,-253.0,44.0,0
2288,10.0,-252.0,44.0,0
2289,9.0,-251.0,44.0,0
2290,5.0,-252.0,39.0,0
2291,9.0,-249.0,41.0,0
2292,10.0,-253.0,42.0,0
2293,11.0,-255.0,40.0,0
2294,8.0,-255.0,46.0,0
2295,10.0,-253.0,41.0,0
2296,9.0,-252.0,41.0,0
2297,9.0,-253.0,45.0,0
2298,13.0,-255.0,41.0,0
2299,9.0,-253.0,49.0,0
2300,8.0,-253.0,45.0,0
2301,11.0,-252.0,41.0,0
2302,9.0,-252.0,43.0,0
2303,9.0,-252.0,42.0,0
2304,9.0,-253.0,46.0,0
2305,8.0,-251.0,44.0,0
2306,9.0,-252.0,44.0,0
2307,10.0,-253.0,41.0,0
2308,8.0,-251.0,41.0,0
2309,10.0,-251.0,46.0,0
2310,13.0,-259.0,41.0,0
2311,8.0,-251.0,44.0,0
2312,8.0,-250.0,44.0,0
2313,6.0,-254.0,44.0,0
2314,10.0,-255.0,43.0,0
2315,11.0,-254.0,43.0,0
2316,8.0,-251.0,43.0,0
2317,7.0,-250.0,42.0,0
2318,10.0,-251.0,40.0,0
2319,8.0,-255.0,44.0,0
2320,13.0,-254.0,43.0,0
2321,9.0,-251.0,42.0,0
2322,10.0,-254.0,45.0,0
2323,9.0,-252.0,42.0,0
2324,6.0,-252.0,43.0,0
2325,11.0,-253.0,42.0,0
2326,9.0,-253.0,42.0,0
2327,13.0,-253.0,38.0,0
2328,9.0,-252.0,43.0,0
2329,9.0,-251.0,43.0,0
2330,12.0,-253.0,42.0,0
2331,10.0,-253.0,44.0,0
2332,11.0,-255.0,42.0,0
2333,11.0,-253.0,45.0,0
2334,10.0,-254.0,43.0,0
2335,9.0,-249.0,42.0,0
2336,9.0,-251.0,45.0,0
2337,10.0,-253.0,42.0,0
2338,9.0,-250.0,43.0,0
2339,8.0,-252.0,40.0,0
2340,6.0,-250.0,43.0,0
2341,10.0,-253.0,47.0,0
2342,12.0,-250.0,39.0,0
2343,10.0,-250.0,43.0,0
2344,9.0,-253.0,44.0,0
2345,8.0,-252.0,46.0,0
2346,11.0,-252.0,47.0,0
2347,12.0,-254.0,43.0,0
2348,11.0,-253.0,43.0,0
2349,8.0,-253.0,42.0,0
2350,9.0,-254.0,46.0,0
2351,9.0,-255.0,45.0,0
2352,9.0,-250.0,43.0,0
2353,7.0,-253.0,39.0,0
2354,10.0,-252.0,39.0,0
2355,10.0,-254.0,42.0,0
2356,9.0,-253.0,43.0,0
2357,9.0,-251.0,46.0,0
2358,11.0,-251.0,44.0,0
2359,10.0,-252.0,44.0,0
2360,11.0,-252.0,38.0,0
2361,10.0,-254.0,44.0,0
2362,9.0,-253.0,43.0,0
2363,8.0,-253.0,45.0,0
2364,15.0,-246.0,37.0,0
2365,9.0,-253.0,45.0,0
2366,10.0,-252.0,41.0,0
2367,9.0,-253.0,40.0,0
2368,10.0,-252.0,41.0,0
2369,10.0,-253.0,41.0,0
2370,9.0,-255.0,45.0,0
2371,8.0,-254.0,42.0,0
2372,10.0,-253.0,44.0,0
2373,7.0,-253.0,44.0,0
2374,13.0,-251.0,42.0,0
2375,3.0,-251.0,43.0,0
2376,10.0,-255.0,43.0,0
2377,10.0,-252.0,44.0,0
2378,9.0,-254.0,42.0,0
2379,9.0,-254.0,46.0,0
2380,12.0,-255.0,43.0,0
2381,12.0,-253.0,44.0,0
2382,11.0,-252.0,40.0,0
2383,11.0,-252.0,43.0,0
2384,9.0,-251.0,43.0,0
2385,9.0,-253.0,45.0,0
2386,14.0,-248.0,47.0,0
2387,9.0,-252.0,44.0,0
2388,9.0,-254.0,44.0,0
2389,8.0,-250.0,47.0,0
2390,11.0,-253.0,41.0,0
2391,10.0,-256.0,42.0,0
2392,9.0,-253.0,42.0,0
2393,8.0,-252.0,44.0,0
2394,11.0,-253.0,41.0,0
2395,11.0,-251.0,44.0,0
2396,10.0,-250.0,46.0,0
2397,4.0,-252.0,32.0,0
2398,7.0,-250.0,42.0,0
2399,10.0,-251.0,45.0,0
