,accelerometer_x,accelerometer_y,accelerometer_z,fall
0,34.0,-256.0,-89.0,0
1,33.0,-255.0,-87.0,0
2,34.0,-257.0,-92.0,0
3,34.0,-256.0,-90.0,0
4,36.0,-259.0,-89.0,0
5,38.0,-267.0,-85.0,0
6,33.0,-257.0,-89.0,0
7,34.0,-254.0,-93.0,0
8,35.0,-257.0,-93.0,0
9,33.0,-258.0,-91.0,0
10,36.0,-256.0,-91.0,0
11,35.0,-255.0,-92.0,0
12,34.0,-256.0,-88.0,0
13,35.0,-257.0,-89.0,0
14,37.0,-260.0,-90.0,0
15,33.0,-257.0,-88.0,0
16,38.0,-257.0,-89.0,0
17,35.0,-256.0,-89.0,0
18,33.0,-258.0,-89.0,0
19,33.0,-257.0,-89.0,0
20,35.0,-256.0,-91.0,0
21,34.0,-255.0,-91.0,0
22,37.0,-258.0,-94.0,0
23,36.0,-256.0,-89.0,0
24,35.0,-256.0,-88.0,0
25,36.0,-257.0,-90.0,0
26,36.0,-257.0,-86.0,0
27,35.0,-258.0,-90.0,0
28,38.0,-258.0,-87.0,0
29,37.0,-254.0,-89.0,0
30,37.0,-256.0,-89.0,0
31,33.0,-255.0,-88.0,0
32,37.0,-257.0,-88.0,0
33,34.0,-255.0,-86.0,0
34,35.0,-257.0,-92.0,0
35,40.0,-258.0,-86.0,0
36,33.0,-256.0,-87.0,0
37,38.0,-256.0,-88.0,0
38,34.0,-254.0,-91.0,0
39,35.0,-257.0,-91.0,0
40,34.0,-256.0,-89.0,0
41,38.0,-257.0,-86.0,0
42,33.0,-258.0,-91.0,0
43,36.0,-258.0,-89.0,0
44,33.0,-259.0,-89.0,0
45,35.0,-258.0,-89.0,0
46,34.0,-261.0,-88.0,0
47,37.0,-258.0,-90.0,0
48,36.0,-257.0,-91.0,0
49,39.0,-258.0,-88.0,0
50,34.0,-256.0,-89.0,0
51,37.0,-259.0,-90.0,0
52,36.0,-252.0,-89.0,0
53,36.0,-257.0,-92.0,0
54,35.0,-255.0,-90.0,0
55,37.0,-257.0,-87.0,0
56,35.0,-256.0,-88.0,0
57,37.0,-256.0,-88.0,0
58,28.0,-255.0,-104.0,0
59,37.0,-256.0,-87.0,0
60,35.0,-258.0,-94.0,0
61,35.0,-257.0,-90.0,0
62,34.0,-259.0,-90.0,0
63,33.0,-256.0,-88.0,0
64,35.0,-260.0,-90.0,0
65,35.0,-258.0,-91.0,0
66,36.0,-258.0,-92.0,0
67,36.0,-255.0,-88.0,0
68,38.0,-260.0,-90.0,0
69,34.0,-266.0,-93.0,0
70,31.0,-256.0,-87.0,0
71,35.0,-258.0,-94.0,0
72,34.0,-258.0,-87.0,0
73,37.0,-258.0,-83.0,0
74,34.0,-256.0,-88.0,0
75,36.0,-258.0,-88.0,0
76,35.0,-257.0,-89.0,0
77,36.0,-255.0,-88.0,0
78,35.0,-257.0,-87.0,0
79,34.0,-257.0,-87.0,0
80,33.0,-248.0,-92.0,0
81,36.0,-259.0,-85.0,0
82,38.0,-257.0,-87.0,0
83,34.0,-252.0,-87.0,0
84,34.0,-256.0,-88.0,0
85,37.0,-257.0,-89.0,0
86,35.0,-255.0,-88.0,0
87,35.0,-259.0,-87.0,0
88,34.0,-257.0,-90.0,0
89,35.0,-256.0,-88.0,0
90,36.0,-261.0,-86.0,0
91,38.0,-246.0,-102.0,0
92,35.0,-259.0,-90.0,0
93,34.0,-257.0,-89.0,0
94,37.0,-257.0,-87.0,0
95,37.0,-256.0,-91.0,0
96,35.0,-260.0,-85.0,0
97,35.0,-254.0,-89.0,0
98,36.0,-259.0,-84.0,0
99,36.0,-257.0,-85.0,0
100,36.0,-258.0,-86.0,0
101,35.0,-259.0,-89.0,0
102,24.0,-256.0,-89.0,0
103,32.0,-258.0,-88.0,0
104,34.0,-257.0,-88.0,0
105,34.0,-257.0,-86.0,0
106,35.0,-256.0,-88.0,0
107,34.0,-257.0,-89.0,0
108,31.0,-255.0,-87.0,0
109,32.0,-255.0,-90.0,0
110,38.0,-257.0,-91.0,0
111,31.0,-258.0,-88.0,0
112,26.0,-256.0,-86.0,0
113,37.0,-256.0,-86.0,0
114,34.0,-256.0,-91.0,0
115,33.0,-259.0,-91.0,0
116,36.0,-258.0,-87.0,0
117,32.0,-256.0,-90.0,0
118,39.0,-257.0,-86.0,0
119,37.0,-256.0,-85.0,0
120,36.0,-257.0,-87.0,0
121,33.0,-256.0,-88.0,0
122,34.0,-254.0,-90.0,0
123,34.0,-257.0,-73.0,0
124,37.0,-258.0,-90.0,0
125,32.0,-256.0,-90.0,0
126,35.0,-258.0,-91.0,0
127,34.0,-256.0,-86.0,0
128,36.0,-257.0,-90.0,0
129,37.0,-257.0,-89.0,0
130,32.0,-256.0,-85.0,0
131,38.0,-257.0,-90.0,0
132,34.0,-256.0,-86.0,0
133,33.0,-255.0,-87.0,0
134,35.0,-257.0,-87.0,0
135,34.0,-256.0,-86.0,0
136,35.0,-257.0,-86.0,0
137,34.0,-257.0,-86.0,0
138,34.0,-257.0,-85.0,0
139,37.0,-256.0,-88.0,0
140,36.0,-258.0,-90.0,0
141,35.0,-255.0,-87.0,0
142,32.0,-256.0,-87.0,0
143,36.0,-257.0,-89.0,0
144,35.0,-256.0,-91.0,0
145,34.0,-254.0,-88.0,0
146,37.0,-258.0,-88.0,0
147,34.0,-256.0,-87.0,0
148,33.0,-259.0,-88.0,0
149,37.0,-259.0,-88.0,0
150,37.0,-256.0,-84.0,0
151,35.0,-258.0,-89.0,0
152,35.0,-257.0,-85.0,0
153,36.0,-258.0,-89.0,0
154,35.0,-257.0,-88.0,0
155,36.0,-256.0,-86.0,0
156,36.0,-257.0,-87.0,0
157,33.0,-257.0,-87.0,0
158,35.0,-256.0,-87.0,0
159,36.0,-259.0,-89.0,0
160,33.0,-257.0,-87.0,0
161,36.0,-257.0,-88.0,0
162,38.0,-258.0,-86.0,0
163,32.0,-258.0,-89.0,0
164,34.0,-256.0,-91.0,0
165,39.0,-257.0,-88.0,0
166,37.0,-255.0,-92.0,0
167,36.0,-258.0,-94.0,0
168,34.0,-256.0,-89.0,0
169,37.0,-256.0,-91.0,0
170,35.0,-256.0,-92.0,0
171,33.0,-256.0,-90.0,0
172,35.0,-257.0,-89.0,0
173,33.0,-256.0,-91.0,0
174,33.0,-257.0,-95.0,0
175,33.0,-259.0,-92.0,0
176,35.0,-257.0,-90.0,0
177,33.0,-257.0,-90.0,0
178,35.0,-256.0,-92.0,0
179,36.0,-257.0,-91.0,0
180,34.0,-257.0,-87.0,0
181,35.0,-256.0,-91.0,0
182,38.0,-254.0,-88.0,0
183,35.0,-256.0,-91.0,0
184,37.0,-256.0,-90.0,0
185,39.0,-258.0,-92.0,0
186,37.0,-256.0,-90.0,0
187,36.0,-255.0,-88.0,0
188,35.0,-257.0,-91.0,0
189,35.0,-257.0,-88.0,0
190,36.0,-257.0,-90.0,0
191,36.0,-257.0,-92.0,0
192,35.0,-255.0,-89.0,0
193,35.0,-258.0,-90.0,0
194,33.0,-256.0,-91.0,0
195,35.0,-256.0,-90.0,0
196,34.0,-257.0,-89.0,0
197,36.0,-255.0,-89.0,0
198,36.0,-256.0,-89.0,0
199,35.0,-256.0,-91.0,0
200,35.0,-258.0,-91.0,0
201,35.0,-257.0,-92.0,0
202,38.0,-257.0,-87.0,0
203,34.0,-257.0,-88.0,0
204,33.0,-257.0,-85.0,0
205,34.0,-256.0,-90.0,0
206,34.0,-256.0,-87.0,0
207,36.0,-258.0,-85.0,0
208,36.0,-258.0,-88.0,0
209,37.0,-256.0,-88.0,0
210,37.0,-257.0,-92.0,0
211,36.0,-255.0,-96.0,0
212,33.0,-253.0,-92.0,0
213,35.0,-255.0,-90.0,0
214,37.0,-255.0,-86.0,0
215,36.0,-256.0,-89.0,0
216,39.0,-257.0,-92.0,0
217,38.0,-256.0,-90.0,0
218,33.0,-256.0,-91.0,0
219,35.0,-254.0,-92.0,0
220,36.0,-255.0,-91.0,0
221,36.0,-254.0,-90.0,0
222,37.0,-258.0,-89.0,0
223,37.0,-253.0,-94.0,0
224,37.0,-256.0,-94.0,0
225,35.0,-256.0,-91.0,0
226,37.0,-257.0,-96.0,0
227,35.0,-256.0,-95.0,0
228,37.0,-256.0,-91.0,0
229,35.0,-255.0,-91.0,0
230,35.0,-256.0,-94.0,0
231,34.0,-257.0,-95.0,0
232,34.0,-257.0,-95.0,0
233,33.0,-257.0,-93.0,0
234,33.0,-257.0,-92.0,0
235,35.0,-257.0,-92.0,0
236,38.0,-258.0,-96.0,0
237,33.0,-254.0,-96.0,0
238,34.0,-255.0,-93.0,0
239,34.0,-256.0,-90.0,0
240,36.0,-256.0,-94.0,0
241,34.0,-255.0,-95.0,0
242,33.0,-256.0,-95.0,0
243,33.0,-253.0,-94.0,0
244,33.0,-255.0,-92.0,0
245,35.0,-256.0,-94.0,0
246,31.0,-256.0,-95.0,0
247,33.0,-257.0,-96.0,0
248,36.0,-256.0,-97.0,0
249,35.0,-256.0,-97.0,0
250,32.0,-256.0,-91.0,0
251,35.0,-256.0,-98.0,0
252,31.0,-256.0,-98.0,0
253,37.0,-257.0,-97.0,0
254,32.0,-256.0,-95.0,0
255,33.0,-256.0,-97.0,0
256,36.0,-257.0,-91.0,0
257,32.0,-257.0,-94.0,0
258,36.0,-256.0,-93.0,0
259,35.0,-256.0,-93.0,0
260,33.0,-255.0,-95.0,0
261,32.0,-256.0,-96.0,0
262,32.0,-254.0,-95.0,0
263,33.0,-257.0,-95.0,0
264,34.0,-254.0,-93.0,0
265,33.0,-255.0,-97.0,0
266,36.0,-253.0,-98.0,0
267,34.0,-257.0,-97.0,0
268,32.0,-257.0,-100.0,0
269,37.0,-256.0,-100.0,0
270,34.0,-257.0,-99.0,0
271,29.0,-256.0,-97.0,0
272,34.0,-256.0,-99.0,0
273,35.0,-255.0,-97.0,0
274,34.0,-257.0,-94.0,0
275,37.0,-258.0,-97.0,0
276,32.0,-256.0,-97.0,0
277,33.0,-256.0,-99.0,0
278,32.0,-256.0,-101.0,0
279,31.0,-255.0,-100.0,0
280,34.0,-255.0,-94.0,0
281,34.0,-255.0,-96.0,0
282,35.0,-253.0,-97.0,0
283,34.0,-255.0,-98.0,0
284,32.0,-253.0,-97.0,0
285,36.0,-253.0,-97.0,0
286,33.0,-255.0,-101.0,0
287,32.0,-254.0,-97.0,0
288,33.0,-254.0,-97.0,0
289,33.0,-257.0,-95.0,0
290,33.0,-256.0,-98.0,0
291,32.0,-255.0,-99.0,0
292,29.0,-257.0,-101.0,0
293,34.0,-256.0,-102.0,0
294,33.0,-257.0,-97.0,0
295,36.0,-257.0,-99.0,0
296,34.0,-256.0,-101.0,0
297,33.0,-255.0,-98.0,0
298,33.0,-255.0,-100.0,0
299,33.0,-255.0,-102.0,0
300,31.0,-254.0,-103.0,0
301,33.0,-256.0,-101.0,0
302,31.0,-254.0,-101.0,0
303,31.0,-254.0,-104.0,0
304,32.0,-257.0,-98.0,0
305,34.0,-258.0,-104.0,0
306,32.0,-255.0,-102.0,0
307,32.0,-256.0,-99.0,0
308,32.0,-255.0,-99.0,0
309,32.0,-256.0,-96.0,0
310,34.0,-256.0,-101.0,0
311,33.0,-256.0,-96.0,0
312,34.0,-255.0,-100.0,0
313,36.0,-255.0,-99.0,0
314,36.0,-255.0,-101.0,0
315,34.0,-255.0,-100.0,0
316,34.0,-255.0,-99.0,0
317,32.0,-255.0,-100.0,0
318,33.0,-255.0,-96.0,0
319,32.0,-254.0,-100.0,0
320,34.0,-255.0,-103.0,0
321,35.0,-257.0,-102.0,0
322,32.0,-258.0,-105.0,0
323,33.0,-256.0,-103.0,0
324,33.0,-256.0,-101.0,0
325,33.0,-257.0,-102.0,0
326,35.0,-257.0,-102.0,0
327,29.0,-256.0,-103.0,0
328,33.0,-257.0,-101.0,0
329,32.0,-257.0,-105.0,0
330,31.0,-257.0,-99.0,0
331,29.0,-253.0,-105.0,0
332,33.0,-256.0,-102.0,0
333,34.0,-256.0,-99.0,0
334,32.0,-254.0,-100.0,0
335,30.0,-255.0,-98.0,0
336,34.0,-257.0,-102.0,0
337,31.0,-253.0,-103.0,0
338,34.0,-256.0,-101.0,0
339,34.0,-254.0,-98.0,0
340,33.0,-256.0,-98.0,0
341,34.0,-253.0,-101.0,0
342,33.0,-256.0,-101.0,0
343,38.0,-256.0,-99.0,0
344,33.0,-256.0,-101.0,0
345,30.0,-257.0,-104.0,0
346,34.0,-256.0,-101.0,0
347,32.0,-254.0,-97.0,0
348,32.0,-256.0,-98.0,0
349,33.0,-257.0,-100.0,0
350,30.0,-256.0,-98.0,0
351,37.0,-255.0,-100.0,0
352,33.0,-257.0,-101.0,0
353,33.0,-256.0,-101.0,0
354,31.0,-256.0,-103.0,0
355,33.0,-256.0,-101.0,0
356,32.0,-255.0,-94.0,0
357,31.0,-256.0,-100.0,0
358,32.0,-256.0,-99.0,0
359,34.0,-257.0,-101.0,0
360,32.0,-257.0,-99.0,0
361,34.0,-256.0,-103.0,0
362,32.0,-255.0,-105.0,0
363,30.0,-255.0,-100.0,0
364,33.0,-256.0,-100.0,0
365,31.0,-256.0,-99.0,0
366,30.0,-255.0,-97.0,0
367,33.0,-257.0,-102.0,0
368,32.0,-256.0,-103.0,0
369,32.0,-255.0,-101.0,0
370,31.0,-255.0,-101.0,0
371,32.0,-255.0,-105.0,0
372,33.0,-256.0,-98.0,0
373,34.0,-256.0,-104.0,0
374,34.0,-255.0,-100.0,0
375,35.0,-254.0,-104.0,0
376,35.0,-256.0,-101.0,0
377,31.0,-256.0,-100.0,0
378,32.0,-256.0,-104.0,0
379,31.0,-255.0,-99.0,0
380,30.0,-254.0,-106.0,0
381,28.0,-255.0,-100.0,0
382,33.0,-258.0,-100.0,0
383,32.0,-256.0,-102.0,0
384,32.0,-259.0,-102.0,0
385,33.0,-256.0,-98.0,0
386,34.0,-257.0,-100.0,0
387,33.0,-259.0,-98.0,0
388,32.0,-257.0,-101.0,0
389,35.0,-256.0,-100.0,0
390,34.0,-254.0,-102.0,0
391,35.0,-257.0,-101.0,0
392,32.0,-258.0,-100.0,0
393,32.0,-255.0,-99.0,0
394,33.0,-254.0,-101.0,0
395,33.0,-255.0,-94.0,0
396,35.0,-251.0,-94.0,0
397,34.0,-253.0,-93.0,0
398,31.0,-251.0,-91.0,0
399,31.0,-247.0,-89.0,0
400,32.0,-253.0,-88.0,0
401,28.0,-248.0,-90.0,0
402,30.0,-252.0,-87.0,0
403,28.0,-250.0,-87.0,0
404,27.0,-249.0,-88.0,0
405,30.0,-252.0,-86.0,0
406,30.0,-253.0,-87.0,0
407,28.0,-253.0,-86.0,0
408,29.0,-255.0,-88.0,0
409,33.0,-258.0,-87.0,0
410,35.0,-257.0,-90.0,0
411,38.0,-255.0,-92.0,0
412,40.0,-255.0,-95.0,0
413,44.0,-256.0,-104.0,0
414,43.0,-256.0,-103.0,0
415,42.0,-256.0,-101.0,0
416,43.0,-257.0,-107.0,0
417,39.0,-255.0,-107.0,0
418,44.0,-256.0,-107.0,0
419,41.0,-253.0,-110.0,0
420,41.0,-256.0,-112.0,0
421,41.0,-255.0,-112.0,0
422,39.0,-255.0,-112.0,0
423,39.0,-255.0,-116.0,0
424,37.0,-254.0,-115.0,0
425,37.0,-254.0,-117.0,0
426,36.0,-257.0,-115.0,0
427,33.0,-257.0,-116.0,0
428,31.0,-257.0,-118.0,0
429,26.0,-255.0,-121.0,0
430,27.0,-257.0,-118.0,0
431,23.0,-256.0,-119.0,0
432,21.0,-255.0,-119.0,0
433,20.0,-256.0,-119.0,0
434,22.0,-256.0,-117.0,0
435,22.0,-256.0,-120.0,0
436,20.0,-256.0,-116.0,0
437,21.0,-254.0,-114.0,0
438,21.0,-253.0,-111.0,0
439,25.0,-253.0,-111.0,0
440,30.0,-255.0,-119.0,0
441,29.0,-254.0,-104.0,0
442,34.0,-253.0,-102.0,0
443,35.0,-251.0,-98.0,0
444,34.0,-251.0,-100.0,0
445,40.0,-252.0,-101.0,0
446,42.0,-253.0,-97.0,0
447,41.0,-253.0,-100.0,0
448,41.0,-253.0,-100.0,0
449,40.0,-257.0,-97.0,0
450,40.0,-254.0,-95.0,0
451,40.0,-256.0,-96.0,0
452,38.0,-256.0,-93.0,0
453,38.0,-258.0,-98.0,0
454,34.0,-259.0,-93.0,0
455,34.0,-261.0,-91.0,0
456,35.0,-260.0,-93.0,0
457,36.0,-256.0,-92.0,0
458,33.0,-259.0,-91.0,0
459,35.0,-256.0,-95.0,0
460,35.0,-255.0,-95.0,0
461,38.0,-256.0,-90.0,0
462,36.0,-255.0,-94.0,0
463,37.0,-253.0,-92.0,0
464,35.0,-254.0,-93.0,0
465,36.0,-253.0,-95.0,0
466,40.0,-254.0,-98.0,0
467,32.0,-251.0,-98.0,0
468,30.0,-255.0,-96.0,0
469,32.0,-254.0,-100.0,0
470,29.0,-252.0,-102.0,0
471,26.0,-254.0,-104.0,0
472,26.0,-251.0,-101.0,0
473,27.0,-254.0,-100.0,0
474,21.0,-254.0,-103.0,0
475,23.0,-254.0,-100.0,0
476,16.0,-254.0,-96.0,0
477,19.0,-254.0,-97.0,0
478,19.0,-254.0,-102.0,0
479,20.0,-254.0,-101.0,0
480,13.0,-252.0,-100.0,0
481,16.0,-251.0,-98.0,0
482,14.0,-255.0,-100.0,0
483,19.0,-255.0,-101.0,0
484,17.0,-255.0,-101.0,0
485,17.0,-255.0,-103.0,0
486,20.0,-256.0,-106.0,0
487,20.0,-256.0,-103.0,0
488,22.0,-256.0,-107.0,0
489,27.0,-257.0,-109.0,0
490,27.0,-255.0,-105.0,0
491,27.0,-257.0,-108.0,0
492,28.0,-256.0,-104.0,0
493,31.0,-257.0,-111.0,0
494,33.0,-257.0,-109.0,0
495,31.0,-253.0,-105.0,0
496,31.0,-253.0,-112.0,0
497,31.0,-255.0,-112.0,0
498,34.0,-254.0,-111.0,0
499,36.0,-254.0,-111.0,0
500,38.0,-256.0,-110.0,0
501,37.0,-255.0,-107.0,0
502,36.0,-253.0,-107.0,0
503,39.0,-253.0,-110.0,0
504,39.0,-251.0,-108.0,0
505,35.0,-252.0,-109.0,0
506,38.0,-250.0,-105.0,0
507,39.0,-252.0,-105.0,0
508,37.0,-250.0,-104.0,0
509,35.0,-253.0,-106.0,0
510,35.0,-253.0,-106.0,0
511,33.0,-252.0,-103.0,0
512,34.0,-253.0,-102.0,0
513,34.0,-256.0,-107.0,0
514,35.0,-256.0,-104.0,0
515,36.0,-255.0,-102.0,0
516,32.0,-256.0,-102.0,0
517,35.0,-258.0,-105.0,0
518,34.0,-256.0,-102.0,0
519,33.0,-256.0,-107.0,0
520,33.0,-256.0,-106.0,0
521,30.0,-256.0,-103.0,0
522,30.0,-254.0,-102.0,0
523,30.0,-255.0,-106.0,0
524,28.0,-257.0,-100.0,0
525,29.0,-255.0,-105.0,0
526,29.0,-255.0,-100.0,0
527,28.0,-255.0,-102.0,0
528,29.0,-255.0,-104.0,0
529,26.0,-252.0,-106.0,0
530,30.0,-253.0,-103.0,0
531,29.0,-252.0,-104.0,0
532,29.0,-250.0,-104.0,0
533,22.0,-247.0,-106.0,0
534,26.0,-245.0,-108.0,0
535,29.0,-250.0,-109.0,0
536,27.0,-253.0,-106.0,0
537,25.0,-253.0,-107.0,0
538,24.0,-251.0,-107.0,0
539,26.0,-248.0,-108.0,0
540,26.0,-249.0,-105.0,0
541,25.0,-249.0,-106.0,0
542,27.0,-251.0,-108.0,0
543,23.0,-251.0,-109.0,0
544,28.0,-256.0,-105.0,0
545,25.0,-254.0,-110.0,0
546,27.0,-260.0,-110.0,0
547,26.0,-265.0,-108.0,0
548,28.0,-267.0,-109.0,0
549,27.0,-272.0,-109.0,0
550,26.0,-272.0,-108.0,0
551,32.0,-268.0,-111.0,0
552,35.0,-265.0,-104.0,0
553,33.0,-259.0,-106.0,0
554,34.0,-251.0,-110.0,0
555,35.0,-244.0,-112.0,0
556,35.0,-239.0,-111.0,0
557,36.0,-236.0,-110.0,0
558,33.0,-237.0,-113.0,0
559,33.0,-236.0,-111.0,0
560,28.0,-237.0,-111.0,0
561,30.0,-238.0,-116.0,0
562,27.0,-245.0,-113.0,0
563,26.0,-248.0,-115.0,0
564,25.0,-252.0,-115.0,0
565,24.0,-255.0,-113.0,0
566,27.0,-257.0,-115.0,0
567,28.0,-259.0,-114.0,0
568,29.0,-263.0,-113.0,0
569,27.0,-260.0,-110.0,0
570,29.0,-261.0,-112.0,0
571,28.0,-260.0,-111.0,0
572,27.0,-258.0,-116.0,0
573,29.0,-257.0,-115.0,0
574,29.0,-254.0,-113.0,0
575,28.0,-255.0,-110.0,0
576,27.0,-252.0,-114.0,0
577,31.0,-253.0,-114.0,0
578,27.0,-247.0,-112.0,0
579,26.0,-247.0,-115.0,0
580,27.0,-247.0,-119.0,0
581,30.0,-251.0,-117.0,0
582,25.0,-250.0,-117.0,0
583,28.0,-251.0,-116.0,0
584,23.0,-252.0,-118.0,0
585,27.0,-251.0,-116.0,0
586,29.0,-248.0,-120.0,0
587,26.0,-252.0,-117.0,0
588,28.0,-250.0,-115.0,0
589,25.0,-250.0,-116.0,0
590,27.0,-248.0,-113.0,0
591,28.0,-252.0,-111.0,0
592,28.0,-252.0,-112.0,0
593,27.0,-254.0,-114.0,0
594,26.0,-252.0,-111.0,0
595,30.0,-254.0,-108.0,0
596,26.0,-255.0,-110.0,0
597,27.0,-255.0,-111.0,0
598,26.0,-254.0,-111.0,0
599,24.0,-255.0,-111.0,0
600,25.0,-258.0,-109.0,0
601,26.0,-252.0,-114.0,0
602,24.0,-255.0,-112.0,0
603,24.0,-255.0,-112.0,0
604,26.0,-254.0,-111.0,0
605,28.0,-255.0,-113.0,0
606,26.0,-253.0,-116.0,0
607,28.0,-253.0,-114.0,0
608,29.0,-255.0,-113.0,0
609,27.0,-253.0,-114.0,0
610,29.0,-253.0,-113.0,0
611,29.0,-256.0,-111.0,0
612,28.0,-252.0,-113.0,0
613,24.0,-252.0,-114.0,0
614,27.0,-255.0,-111.0,0
615,25.0,-252.0,-112.0,0
616,25.0,-254.0,-114.0,0
617,26.0,-249.0,-114.0,0
618,25.0,-251.0,-115.0,0
619,25.0,-255.0,-114.0,0
620,23.0,-252.0,-116.0,0
621,25.0,-249.0,-116.0,0
622,25.0,-252.0,-114.0,0
623,24.0,-252.0,-116.0,0
624,27.0,-254.0,-118.0,0
625,26.0,-253.0,-115.0,0
626,29.0,-254.0,-116.0,0
627,27.0,-252.0,-119.0,0
628,27.0,-253.0,-116.0,0
629,28.0,-251.0,-123.0,0
630,27.0,-254.0,-118.0,0
631,28.0,-251.0,-117.0,0
632,26.0,-254.0,-124.0,0
633,26.0,-251.0,-120.0,0
634,27.0,-255.0,-122.0,0
635,31.0,-257.0,-122.0,0
636,29.0,-256.0,-117.0,0
637,34.0,-259.0,-122.0,0
638,32.0,-257.0,-121.0,0
639,32.0,-256.0,-122.0,0
640,34.0,-257.0,-119.0,0
641,35.0,-257.0,-123.0,0
642,35.0,-255.0,-117.0,0
643,29.0,-256.0,-118.0,0
644,35.0,-256.0,-115.0,0
645,33.0,-254.0,-114.0,0
646,25.0,-260.0,-106.0,0
647,30.0,-252.0,-118.0,0
648,31.0,-248.0,-115.0,0
649,30.0,-248.0,-113.0,0
650,29.0,-247.0,-109.0,0
651,28.0,-247.0,-106.0,0
652,30.0,-245.0,-108.0,0
653,30.0,-247.0,-107.0,0
654,30.0,-244.0,-104.0,0
655,26.0,-247.0,-103.0,0
656,29.0,-251.0,-102.0,0
657,29.0,-248.0,-101.0,0
658,28.0,-251.0,-102.0,0
659,28.0,-252.0,-100.0,0
660,28.0,-254.0,-99.0,0
661,27.0,-254.0,-103.0,0
662,26.0,-252.0,-103.0,0
663,27.0,-253.0,-99.0,0
664,29.0,-256.0,-105.0,0
665,28.0,-255.0,-100.0,0
666,26.0,-256.0,-99.0,0
667,29.0,-255.0,-103.0,0
668,20.0,-249.0,-91.0,0
669,25.0,-255.0,-102.0,0
670,28.0,-254.0,-100.0,0
671,29.0,-255.0,-97.0,0
672,26.0,-254.0,-102.0,0
673,24.0,-254.0,-101.0,0
674,24.0,-252.0,-106.0,0
675,24.0,-254.0,-101.0,0
676,24.0,-253.0,-105.0,0
677,23.0,-255.0,-103.0,0
678,22.0,-255.0,-104.0,0
679,28.0,-263.0,-86.0,0
680,18.0,-253.0,-105.0,0
681,21.0,-256.0,-107.0,0
682,19.0,-256.0,-109.0,0
683,20.0,-254.0,-110.0,0
684,18.0,-255.0,-108.0,0
685,21.0,-256.0,-110.0,0
686,25.0,-254.0,-114.0,0
687,20.0,-255.0,-108.0,0
688,22.0,-255.0,-111.0,0
689,24.0,-255.0,-114.0,0
690,19.0,-246.0,-130.0,0
691,23.0,-254.0,-116.0,0
692,25.0,-252.0,-116.0,0
693,26.0,-252.0,-112.0,0
694,22.0,-253.0,-116.0,0
695,26.0,-252.0,-115.0,0
696,27.0,-254.0,-112.0,0
697,24.0,-254.0,-115.0,0
698,23.0,-255.0,-111.0,0
699,26.0,-251.0,-114.0,0
700,27.0,-251.0,-113.0,0
701,31.0,-245.0,-122.0,0
702,25.0,-256.0,-107.0,0
703,25.0,-253.0,-113.0,0
704,22.0,-252.0,-111.0,0
705,25.0,-255.0,-113.0,0
706,25.0,-252.0,-114.0,0
707,27.0,-250.0,-112.0,0
708,31.0,-252.0,-112.0,0
709,32.0,-255.0,-109.0,0
710,31.0,-253.0,-112.0,0
711,33.0,-257.0,-103.0,0
712,33.0,-257.0,-109.0,0
713,39.0,-256.0,-106.0,0
714,41.0,-255.0,-104.0,0
715,45.0,-255.0,-107.0,0
716,41.0,-256.0,-108.0,0
717,44.0,-254.0,-106.0,0
718,45.0,-254.0,-109.0,0
719,49.0,-254.0,-105.0,0
720,48.0,-254.0,-104.0,0
721,48.0,-255.0,-103.0,0
722,60.0,-245.0,-112.0,0
723,47.0,-251.0,-104.0,0
724,49.0,-252.0,-100.0,0
725,50.0,-253.0,-102.0,0
726,52.0,-256.0,-101.0,0
727,45.0,-252.0,-101.0,0
728,46.0,-252.0,-97.0,0
729,49.0,-252.0,-99.0,0
730,49.0,-255.0,-101.0,0
731,49.0,-253.0,-97.0,0
732,46.0,-254.0,-97.0,0
733,50.0,-254.0,-99.0,0
734,50.0,-255.0,-99.0,0
735,47.0,-255.0,-98.0,0
736,47.0,-254.0,-105.0,0
737,43.0,-252.0,-104.0,0
738,43.0,-252.0,-101.0,0
739,44.0,-253.0,-105.0,0
740,46.0,-252.0,-105.0,0
741,47.0,-259.0,-99.0,0
742,46.0,-255.0,-98.0,0
743,42.0,-252.0,-101.0,0
744,42.0,-255.0,-101.0,0
745,42.0,-258.0,-101.0,0
746,40.0,-258.0,-99.0,0
747,42.0,-256.0,-102.0,0
748,43.0,-255.0,-105.0,0
749,39.0,-254.0,-100.0,0
750,37.0,-257.0,-100.0,0
751,32.0,-255.0,-100.0,0
752,34.0,-254.0,-99.0,0
753,30.0,-257.0,-98.0,0
754,27.0,-255.0,-100.0,0
755,25.0,-255.0,-98.0,0
756,28.0,-256.0,-96.0,0
757,24.0,-255.0,-98.0,0
758,22.0,-255.0,-98.0,0
759,19.0,-254.0,-97.0,0
760,17.0,-253.0,-97.0,0
761,17.0,-254.0,-99.0,0
762,18.0,-251.0,-95.0,0
763,16.0,-250.0,-97.0,0
764,17.0,-252.0,-99.0,0
765,17.0,-255.0,-95.0,0
766,23.0,-255.0,-96.0,0
767,18.0,-254.0,-98.0,0
768,20.0,-256.0,-102.0,0
769,23.0,-254.0,-99.0,0
770,23.0,-256.0,-94.0,0
771,24.0,-256.0,-98.0,0
772,28.0,-257.0,-98.0,0
773,30.0,-261.0,-100.0,0
774,29.0,-257.0,-106.0,0
775,29.0,-257.0,-102.0,0
776,30.0,-256.0,-102.0,0
777,31.0,-257.0,-104.0,0
778,30.0,-257.0,-107.0,0
779,31.0,-256.0,-105.0,0
780,32.0,-254.0,-102.0,0
781,29.0,-256.0,-108.0,0
782,30.0,-253.0,-103.0,0
783,33.0,-255.0,-104.0,0
784,33.0,-251.0,-106.0,0
785,36.0,-256.0,-104.0,0
786,31.0,-250.0,-103.0,0
787,33.0,-252.0,-106.0,0
788,31.0,-252.0,-104.0,0
789,37.0,-257.0,-103.0,0
790,31.0,-252.0,-105.0,0
791,34.0,-253.0,-102.0,0
792,39.0,-253.0,-106.0,0
793,35.0,-254.0,-104.0,0
794,35.0,-254.0,-105.0,0
795,35.0,-254.0,-100.0,0
796,35.0,-256.0,-102.0,0
797,34.0,-256.0,-99.0,0
798,35.0,-254.0,-102.0,0
799,36.0,-256.0,-97.0,0
800,33.0,-257.0,-101.0,0
801,34.0,-257.0,-99.0,0
802,38.0,-258.0,-102.0,0
803,36.0,-255.0,-101.0,0
804,32.0,-257.0,-102.0,0
805,31.0,-258.0,-100.0,0
806,31.0,-258.0,-101.0,0
807,34.0,-256.0,-101.0,0
808,32.0,-256.0,-100.0,0
809,30.0,-256.0,-102.0,0
810,32.0,-254.0,-100.0,0
811,30.0,-254.0,-103.0,0
812,32.0,-250.0,-106.0,0
813,31.0,-253.0,-106.0,0
814,30.0,-252.0,-100.0,0
815,31.0,-252.0,-105.0,0
816,32.0,-254.0,-98.0,0
817,33.0,-252.0,-100.0,0
818,38.0,-254.0,-101.0,0
819,34.0,-255.0,-96.0,0
820,37.0,-254.0,-97.0,0
821,36.0,-253.0,-103.0,0
822,38.0,-254.0,-106.0,0
823,39.0,-256.0,-101.0,0
824,37.0,-254.0,-99.0,0
825,37.0,-256.0,-102.0,0
826,37.0,-257.0,-102.0,0
827,35.0,-255.0,-98.0,0
828,38.0,-256.0,-97.0,0
829,35.0,-254.0,-95.0,0
830,33.0,-255.0,-95.0,0
831,32.0,-258.0,-96.0,0
832,31.0,-256.0,-98.0,0
833,32.0,-258.0,-94.0,0
834,30.0,-255.0,-98.0,0
835,28.0,-256.0,-91.0,0
836,28.0,-254.0,-96.0,0
837,29.0,-253.0,-96.0,0
838,27.0,-250.0,-93.0,0
839,27.0,-254.0,-93.0,0
840,28.0,-252.0,-96.0,0
841,28.0,-253.0,-97.0,0
842,30.0,-255.0,-97.0,0
843,27.0,-252.0,-94.0,0
844,30.0,-254.0,-92.0,0
845,29.0,-255.0,-97.0,0
846,31.0,-257.0,-101.0,0
847,32.0,-256.0,-97.0,0
848,33.0,-256.0,-97.0,0
849,35.0,-256.0,-103.0,0
850,34.0,-255.0,-101.0,0
851,32.0,-256.0,-98.0,0
852,36.0,-259.0,-106.0,0
853,41.0,-257.0,-106.0,0
854,40.0,-256.0,-107.0,0
855,38.0,-254.0,-110.0,0
856,41.0,-250.0,-107.0,0
857,39.0,-251.0,-114.0,0
858,41.0,-252.0,-107.0,0
859,42.0,-250.0,-109.0,0
860,42.0,-248.0,-111.0,0
861,43.0,-252.0,-107.0,0
862,43.0,-250.0,-107.0,0
863,42.0,-255.0,-108.0,0
864,45.0,-251.0,-110.0,0
865,42.0,-252.0,-105.0,0
866,46.0,-255.0,-103.0,0
867,44.0,-253.0,-104.0,0
868,43.0,-256.0,-102.0,0
869,43.0,-255.0,-99.0,0
870,41.0,-256.0,-102.0,0
871,42.0,-256.0,-101.0,0
872,39.0,-256.0,-105.0,0
873,41.0,-258.0,-101.0,0
874,35.0,-256.0,-105.0,0
875,30.0,-257.0,-105.0,0
876,32.0,-257.0,-106.0,0
877,30.0,-255.0,-111.0,0
878,30.0,-257.0,-107.0,0
879,28.0,-256.0,-103.0,0
880,26.0,-254.0,-107.0,0
881,29.0,-257.0,-112.0,0
882,29.0,-254.0,-109.0,0
883,34.0,-254.0,-106.0,0
884,32.0,-253.0,-104.0,0
885,35.0,-255.0,-107.0,0
886,38.0,-255.0,-106.0,0
887,34.0,-255.0,-103.0,0
888,39.0,-253.0,-100.0,0
889,43.0,-256.0,-102.0,0
890,42.0,-256.0,-104.0,0
891,41.0,-255.0,-103.0,0
892,40.0,-256.0,-100.0,0
893,37.0,-257.0,-103.0,0
894,37.0,-253.0,-99.0,0
895,34.0,-255.0,-101.0,0
896,35.0,-254.0,-102.0,0
897,33.0,-255.0,-105.0,0
898,32.0,-255.0,-103.0,0
899,31.0,-252.0,-104.0,0
900,30.0,-252.0,-103.0,0
901,32.0,-251.0,-100.0,0
902,27.0,-249.0,-101.0,0
903,27.0,-249.0,-98.0,0
904,29.0,-251.0,-96.0,0
905,28.0,-248.0,-96.0,0
906,28.0,-251.0,-97.0,0
907,29.0,-250.0,-98.0,0
908,33.0,-252.0,-96.0,0
909,33.0,-257.0,-98.0,0
910,36.0,-255.0,-102.0,0
911,36.0,-256.0,-99.0,0
912,35.0,-256.0,-100.0,0
913,37.0,-257.0,-99.0,0
914,40.0,-258.0,-102.0,0
915,35.0,-256.0,-103.0,0
916,36.0,-255.0,-102.0,0
917,39.0,-259.0,-101.0,0
918,38.0,-257.0,-103.0,0
919,39.0,-257.0,-103.0,0
920,35.0,-256.0,-104.0,0
921,36.0,-256.0,-106.0,0
922,35.0,-254.0,-103.0,0
923,34.0,-255.0,-112.0,0
924,38.0,-252.0,-106.0,0
925,36.0,-251.0,-113.0,0
926,35.0,-247.0,-109.0,0
927,40.0,-249.0,-113.0,0
928,40.0,-249.0,-110.0,0
929,37.0,-248.0,-111.0,0
930,39.0,-246.0,-113.0,0
931,43.0,-253.0,-115.0,0
932,42.0,-250.0,-113.0,0
933,45.0,-254.0,-115.0,0
934,43.0,-255.0,-114.0,0
935,41.0,-257.0,-114.0,0
936,44.0,-256.0,-112.0,0
937,44.0,-259.0,-109.0,0
938,43.0,-256.0,-115.0,0
939,43.0,-257.0,-110.0,0
940,45.0,-255.0,-110.0,0
941,41.0,-257.0,-113.0,0
942,43.0,-257.0,-112.0,0
943,38.0,-258.0,-109.0,0
944,39.0,-255.0,-105.0,0
945,36.0,-253.0,-109.0,0
946,36.0,-256.0,-106.0,0
947,34.0,-252.0,-102.0,0
948,32.0,-253.0,-103.0,0
949,32.0,-253.0,-107.0,0
950,31.0,-253.0,-109.0,0
951,32.0,-250.0,-107.0,0
952,29.0,-250.0,-112.0,0
953,26.0,-247.0,-114.0,0
954,26.0,-248.0,-112.0,0
955,29.0,-247.0,-113.0,0
956,33.0,-252.0,-114.0,0
957,34.0,-253.0,-111.0,0
958,38.0,-251.0,-109.0,0
959,35.0,-253.0,-110.0,0
960,41.0,-256.0,-108.0,0
961,40.0,-254.0,-110.0,0
962,40.0,-256.0,-106.0,0
963,46.0,-258.0,-104.0,0
964,45.0,-257.0,-105.0,0
965,39.0,-257.0,-107.0,0
966,42.0,-256.0,-107.0,0
967,39.0,-258.0,-105.0,0
968,39.0,-255.0,-104.0,0
969,35.0,-256.0,-107.0,0
970,32.0,-255.0,-110.0,0
971,33.0,-255.0,-108.0,0
972,28.0,-254.0,-108.0,0
973,27.0,-251.0,-108.0,0
974,30.0,-252.0,-108.0,0
975,28.0,-251.0,-108.0,0
976,25.0,-253.0,-109.0,0
977,26.0,-253.0,-103.0,0
978,27.0,-249.0,-109.0,0
979,28.0,-253.0,-109.0,0
980,27.0,-250.0,-107.0,0
981,32.0,-254.0,-103.0,0
982,34.0,-252.0,-108.0,0
983,35.0,-252.0,-112.0,0
984,38.0,-256.0,-107.0,0
985,39.0,-255.0,-107.0,0
986,40.0,-255.0,-105.0,0
987,40.0,-256.0,-107.0,0
988,40.0,-255.0,-108.0,0
989,38.0,-252.0,-106.0,0
990,37.0,-253.0,-105.0,0
991,37.0,-254.0,-107.0,0
992,37.0,-252.0,-108.0,0
993,35.0,-255.0,-108.0,0
994,35.0,-248.0,-110.0,0
995,36.0,-252.0,-113.0,0
996,34.0,-250.0,-112.0,0
997,35.0,-250.0,-117.0,0
998,38.0,-248.0,-112.0,0
999,40.0,-250.0,-113.0,0
1000,38.0,-248.0,-113.0,0
1001,35.0,-252.0,-116.0,0
1002,38.0,-251.0,-114.0,0
1003,39.0,-253.0,-116.0,0
1004,40.0,-251.0,-114.0,0
1005,41.0,-254.0,-113.0,0
1006,42.0,-255.0,-117.0,0
1007,41.0,-253.0,-113.0,0
1008,42.0,-255.0,-115.0,0
1009,43.0,-256.0,-112.0,0
1010,45.0,-256.0,-113.0,0
1011,43.0,-254.0,-111.0,0
1012,40.0,-256.0,-111.0,0
1013,41.0,-255.0,-114.0,0
1014,40.0,-255.0,-111.0,0
1015,40.0,-253.0,-111.0,0
1016,41.0,-253.0,-107.0,0
1017,40.0,-253.0,-110.0,0
1018,38.0,-252.0,-112.0,0
1019,34.0,-248.0,-111.0,0
1020,35.0,-249.0,-109.0,0
1021,30.0,-250.0,-113.0,0
1022,34.0,-250.0,-115.0,0
1023,26.0,-247.0,-119.0,0
1024,27.0,-246.0,-119.0,0
1025,28.0,-248.0,-115.0,0
1026,27.0,-248.0,-119.0,0
1027,32.0,-249.0,-120.0,0
1028,31.0,-250.0,-117.0,0
1029,37.0,-251.0,-121.0,0
1030,37.0,-253.0,-121.0,0
1031,38.0,-256.0,-121.0,0
1032,35.0,-253.0,-115.0,0
1033,39.0,-255.0,-116.0,0
1034,40.0,-253.0,-117.0,0
1035,36.0,-255.0,-116.0,0
1036,37.0,-255.0,-116.0,0
1037,36.0,-255.0,-116.0,0
1038,34.0,-256.0,-114.0,0
1039,26.0,-251.0,-117.0,0
1040,31.0,-253.0,-115.0,0
1041,25.0,-254.0,-114.0,0
1042,27.0,-254.0,-112.0,0
1043,25.0,-253.0,-116.0,0
1044,23.0,-254.0,-109.0,0
1045,21.0,-254.0,-112.0,0
1046,19.0,-252.0,-112.0,0
1047,19.0,-253.0,-115.0,0
1048,21.0,-252.0,-110.0,0
1049,25.0,-251.0,-109.0,0
1050,26.0,-252.0,-113.0,0
1051,29.0,-252.0,-110.0,0
1052,33.0,-255.0,-112.0,0
1053,35.0,-250.0,-110.0,0
1054,32.0,-252.0,-107.0,0
1055,41.0,-253.0,-108.0,0
1056,41.0,-256.0,-110.0,0
1057,45.0,-254.0,-110.0,0
1058,43.0,-250.0,-108.0,0
1059,47.0,-253.0,-106.0,0
1060,47.0,-252.0,-109.0,0
1061,44.0,-253.0,-113.0,0
1062,42.0,-254.0,-107.0,0
1063,40.0,-251.0,-109.0,0
1064,37.0,-251.0,-108.0,0
1065,39.0,-251.0,-111.0,0
1066,34.0,-247.0,-111.0,0
1067,33.0,-247.0,-110.0,0
1068,30.0,-247.0,-114.0,0
1069,31.0,-243.0,-114.0,0
1070,33.0,-247.0,-115.0,0
1071,34.0,-248.0,-115.0,0
1072,34.0,-251.0,-115.0,0
1073,34.0,-245.0,-117.0,0
1074,35.0,-248.0,-117.0,0
1075,39.0,-250.0,-123.0,0
1076,37.0,-249.0,-121.0,0
1077,40.0,-251.0,-117.0,0
1078,41.0,-253.0,-120.0,0
1079,42.0,-253.0,-120.0,0
1080,41.0,-252.0,-114.0,0
1081,44.0,-253.0,-120.0,0
1082,39.0,-255.0,-121.0,0
1083,39.0,-256.0,-121.0,0
1084,37.0,-254.0,-120.0,0
1085,39.0,-254.0,-119.0,0
1086,39.0,-255.0,-120.0,0
1087,33.0,-251.0,-120.0,0
1088,32.0,-250.0,-120.0,0
1089,34.0,-253.0,-117.0,0
1090,30.0,-253.0,-114.0,0
1091,31.0,-251.0,-117.0,0
1092,31.0,-249.0,-120.0,0
1093,26.0,-249.0,-118.0,0
1094,29.0,-248.0,-119.0,0
1095,27.0,-248.0,-119.0,0
1096,29.0,-249.0,-118.0,0
1097,27.0,-246.0,-126.0,0
1098,27.0,-249.0,-120.0,0
1099,26.0,-247.0,-124.0,0
1100,29.0,-252.0,-126.0,0
1101,30.0,-252.0,-125.0,0
1102,31.0,-252.0,-123.0,0
1103,32.0,-253.0,-123.0,0
1104,33.0,-254.0,-121.0,0
1105,34.0,-255.0,-123.0,0
1106,34.0,-256.0,-122.0,0
1107,35.0,-255.0,-122.0,0
1108,37.0,-257.0,-120.0,0
1109,35.0,-255.0,-121.0,0
1110,32.0,-254.0,-119.0,0
1111,34.0,-256.0,-119.0,0
1112,32.0,-253.0,-118.0,0
1113,31.0,-253.0,-116.0,0
1114,31.0,-249.0,-112.0,0
1115,30.0,-251.0,-112.0,0
1116,31.0,-252.0,-114.0,0
1117,28.0,-251.0,-114.0,0
1118,31.0,-251.0,-102.0,0
1119,30.0,-250.0,-110.0,0
1120,28.0,-246.0,-109.0,0
1121,30.0,-247.0,-111.0,0
1122,32.0,-250.0,-111.0,0
1123,34.0,-247.0,-115.0,0
1124,38.0,-253.0,-113.0,0
1125,39.0,-250.0,-110.0,0
1126,40.0,-252.0,-113.0,0
1127,38.0,-253.0,-114.0,0
1128,39.0,-253.0,-105.0,0
1129,41.0,-254.0,-110.0,0
1130,40.0,-249.0,-113.0,0
1131,38.0,-252.0,-112.0,0
1132,36.0,-252.0,-114.0,0
1133,37.0,-252.0,-112.0,0
1134,35.0,-249.0,-114.0,0
1135,35.0,-249.0,-114.0,0
1136,32.0,-248.0,-112.0,0
1137,25.0,-247.0,-115.0,0
1138,30.0,-246.0,-112.0,0
1139,30.0,-246.0,-117.0,0
1140,29.0,-249.0,-114.0,0
1141,26.0,-247.0,-117.0,0
1142,29.0,-245.0,-114.0,0
1143,26.0,-243.0,-120.0,0
1144,27.0,-245.0,-115.0,0
1145,29.0,-245.0,-120.0,0
1146,30.0,-247.0,-117.0,0
1147,29.0,-248.0,-116.0,0
1148,29.0,-246.0,-113.0,0
1149,25.0,-248.0,-119.0,0
1150,29.0,-252.0,-121.0,0
1151,30.0,-251.0,-119.0,0
1152,34.0,-253.0,-120.0,0
1153,34.0,-254.0,-120.0,0
1154,34.0,-256.0,-116.0,0
1155,39.0,-254.0,-117.0,0
1156,33.0,-255.0,-119.0,0
1157,36.0,-253.0,-118.0,0
1158,36.0,-254.0,-116.0,0
1159,32.0,-255.0,-115.0,0
1160,31.0,-254.0,-118.0,0
1161,30.0,-253.0,-122.0,0
1162,29.0,-248.0,-122.0,0
1163,28.0,-251.0,-122.0,0
1164,29.0,-249.0,-122.0,0
1165,31.0,-247.0,-125.0,0
1166,30.0,-246.0,-126.0,0
1167,30.0,-243.0,-124.0,0
1168,33.0,-242.0,-122.0,0
1169,33.0,-242.0,-125.0,0
1170,37.0,-242.0,-125.0,0
1171,38.0,-241.0,-122.0,0
1172,36.0,-237.0,-121.0,0
1173,40.0,-240.0,-120.0,0
1174,42.0,-240.0,-122.0,0
1175,38.0,-240.0,-122.0,0
1176,46.0,-243.0,-121.0,0
1177,44.0,-238.0,-120.0,0
1178,44.0,-240.0,-120.0,0
1179,44.0,-244.0,-123.0,0
1180,41.0,-243.0,-122.0,0
1181,44.0,-244.0,-128.0,0
1182,44.0,-244.0,-123.0,0
1183,41.0,-243.0,-124.0,0
1184,39.0,-247.0,-131.0,0
1185,38.0,-245.0,-128.0,0
1186,36.0,-243.0,-130.0,0
1187,34.0,-244.0,-128.0,0
1188,32.0,-245.0,-129.0,0
1189,32.0,-240.0,-128.0,0
1190,32.0,-244.0,-128.0,0
1191,31.0,-243.0,-130.0,0
1192,35.0,-244.0,-123.0,0
1193,33.0,-243.0,-133.0,0
1194,32.0,-241.0,-129.0,0
1195,32.0,-241.0,-132.0,0
1196,34.0,-240.0,-133.0,0
1197,34.0,-239.0,-139.0,0
1198,31.0,-233.0,-136.0,0
1199,32.0,-235.0,-136.0,0
1200,31.0,-233.0,-138.0,0
1201,34.0,-234.0,-137.0,0
1202,28.0,-233.0,-139.0,0
1203,28.0,-233.0,-137.0,0
1204,30.0,-232.0,-139.0,0
1205,30.0,-234.0,-140.0,0
1206,28.0,-232.0,-141.0,0
1207,27.0,-233.0,-141.0,0
1208,27.0,-233.0,-141.0,0
1209,28.0,-231.0,-143.0,0
1210,24.0,-234.0,-138.0,0
1211,27.0,-235.0,-143.0,0
1212,26.0,-233.0,-145.0,0
1213,26.0,-233.0,-139.0,0
1214,24.0,-232.0,-147.0,0
1215,26.0,-231.0,-146.0,0
1216,27.0,-233.0,-149.0,0
1217,23.0,-227.0,-146.0,0
1218,26.0,-231.0,-149.0,0
1219,25.0,-228.0,-153.0,0
1220,29.0,-228.0,-154.0,0
1221,28.0,-227.0,-154.0,0
1222,27.0,-225.0,-155.0,0
1223,26.0,-225.0,-157.0,0
1224,25.0,-227.0,-159.0,0
1225,26.0,-226.0,-162.0,0
1226,25.0,-227.0,-166.0,0
1227,24.0,-224.0,-161.0,0
1228,23.0,-224.0,-158.0,0
1229,23.0,-223.0,-162.0,0
1230,24.0,-224.0,-165.0,0
1231,20.0,-220.0,-168.0,0
1232,21.0,-217.0,-171.0,0
1233,20.0,-216.0,-167.0,0
1234,19.0,-214.0,-171.0,0
1235,20.0,-214.0,-171.0,0
1236,22.0,-214.0,-168.0,0
1237,21.0,-214.0,-169.0,0
1238,19.0,-210.0,-172.0,0
1239,20.0,-210.0,-170.0,0
1240,21.0,-209.0,-184.0,0
1241,17.0,-208.0,-178.0,0
1242,22.0,-204.0,-177.0,0
1243,22.0,-206.0,-176.0,0
1244,18.0,-200.0,-179.0,0
1245,21.0,-200.0,-184.0,0
1246,19.0,-201.0,-182.0,0
1247,20.0,-202.0,-185.0,0
1248,19.0,-200.0,-187.0,0
1249,19.0,-197.0,-189.0,0
1250,22.0,-197.0,-189.0,0
1251,25.0,-195.0,-191.0,0
1252,24.0,-199.0,-192.0,0
1253,21.0,-195.0,-199.0,0
1254,22.0,-198.0,-193.0,0
1255,23.0,-198.0,-199.0,0
1256,17.0,-190.0,-213.0,0
1257,16.0,-194.0,-199.0,0
1258,20.0,-198.0,-198.0,0
1259,21.0,-196.0,-205.0,0
1260,16.0,-196.0,-207.0,0
1261,19.0,-202.0,-212.0,0
1262,11.0,-197.0,-216.0,0
1263,18.0,-200.0,-220.0,0
1264,18.0,-199.0,-228.0,0
1265,17.0,-199.0,-229.0,0
1266,20.0,-208.0,-224.0,0
1267,18.0,-203.0,-236.0,0
1268,22.0,-200.0,-238.0,0
1269,23.0,-204.0,-245.0,0
1270,22.0,-199.0,-249.0,0
1271,25.0,-203.0,-256.0,0
1272,25.0,-201.0,-257.0,0
1273,21.0,-199.0,-265.0,0
1274,20.0,-196.0,-271.0,0
1275,16.0,-194.0,-277.0,0
1276,13.0,-193.0,-286.0,0
1277,18.0,-183.0,-302.0,0
1278,16.0,-192.0,-296.0,0
1279,6.0,-189.0,-302.0,0
1280,3.0,-185.0,-313.0,0
1281,4.0,-180.0,-314.0,0
1282,2.0,-176.0,-320.0,0
1283,3.0,-169.0,-323.0,0
1284,2.0,-166.0,-323.0,0
1285,0.0,-160.0,-331.0,0
1286,0.0,-152.0,-333.0,0
1287,-2.0,-148.0,-333.0,0
1288,-4.0,-152.0,-328.0,0
1289,-3.0,-138.0,-340.0,0
1290,0.0,-131.0,-338.0,0
1291,1.0,-128.0,-338.0,0
1292,2.0,-127.0,-335.0,0
1293,5.0,-125.0,-331.0,0
1294,8.0,-121.0,-327.0,0
1295,12.0,-120.0,-326.0,0
1296,11.0,-115.0,-318.0,0
1297,15.0,-114.0,-310.0,0
1298,16.0,-113.0,-315.0,0
1299,17.0,-109.0,-302.0,0
1300,16.0,-105.0,-302.0,0
1301,21.0,-107.0,-298.0,0
1302,16.0,-101.0,-292.0,0
1303,13.0,-103.0,-289.0,0
1304,15.0,-102.0,-293.0,0
1305,15.0,-101.0,-286.0,0
1306,11.0,-100.0,-289.0,0
1307,11.0,-98.0,-279.0,0
1308,9.0,-98.0,-281.0,0
1309,5.0,-92.0,-288.0,0
1310,5.0,-94.0,-278.0,0
1311,3.0,-92.0,-282.0,0
1312,1.0,-87.0,-279.0,0
1313,0.0,-89.0,-278.0,0
1314,0.0,-82.0,-281.0,0
1315,1.0,-85.0,-285.0,0
1316,0.0,-79.0,-285.0,0
1317,2.0,-78.0,-285.0,0
1318,0.0,-78.0,-282.0,0
1319,0.0,-75.0,-297.0,0
1320,0.0,-71.0,-283.0,0
1321,-1.0,-70.0,-284.0,0
1322,2.0,-73.0,-286.0,0
1323,-1.0,-72.0,-286.0,0
1324,-1.0,-74.0,-288.0,0
1325,0.0,-75.0,-285.0,0
1326,-3.0,-74.0,-282.0,0
1327,1.0,-74.0,-283.0,0
1328,-3.0,-74.0,-281.0,0
1329,1.0,-77.0,-282.0,0
1330,-2.0,-73.0,-286.0,0
1331,-2.0,-76.0,-284.0,0
1332,0.0,-73.0,-287.0,0
1333,-5.0,-72.0,-281.0,0
1334,-1.0,-74.0,-283.0,0
1335,-3.0,-72.0,-285.0,0
1336,-6.0,-74.0,-285.0,0
1337,-8.0,-67.0,-289.0,0
1338,-8.0,-67.0,-290.0,0
1339,-9.0,-66.0,-291.0,0
1340,-10.0,-67.0,-292.0,0
1341,-12.0,-65.0,-292.0,0
1342,-10.0,-64.0,-294.0,0
1343,-10.0,-59.0,-292.0,0
1344,-14.0,-57.0,-297.0,0
1345,-12.0,-57.0,-294.0,0
1346,-12.0,-55.0,-299.0,0
1347,-9.0,-56.0,-294.0,0
1348,-13.0,-54.0,-295.0,0
1349,-12.0,-51.0,-291.0,0
1350,-10.0,-54.0,-294.0,0
1351,-6.0,-55.0,-294.0,0
1352,-6.0,-56.0,-293.0,0
1353,-7.0,-56.0,-295.0,0
1354,-9.0,-58.0,-291.0,0
1355,-8.0,-57.0,-293.0,0
1356,-5.0,-60.0,-290.0,0
1357,-6.0,-60.0,-286.0,0
1358,-3.0,-63.0,-287.0,0
1359,-9.0,-56.0,-286.0,0
1360,-8.0,-59.0,-285.0,0
1361,-8.0,-58.0,-285.0,0
1362,-9.0,-54.0,-283.0,0
1363,-11.0,-55.0,-282.0,0
1364,-11.0,-53.0,-280.0,0
1365,-8.0,-52.0,-279.0,0
1366,-8.0,-53.0,-276.0,0
1367,-11.0,-51.0,-272.0,0
1368,-5.0,-50.0,-270.0,0
1369,-5.0,-50.0,-269.0,0
1370,-5.0,-48.0,-273.0,0
1371,-5.0,-51.0,-267.0,0
1372,-9.0,-48.0,-264.0,0
1373,-2.0,-52.0,-263.0,0
1374,-1.0,-52.0,-265.0,0
1375,0.0,-54.0,-258.0,0
1376,0.0,-54.0,-260.0,0
1377,0.0,-58.0,-258.0,0
1378,-2.0,-61.0,-256.0,0
1379,0.0,-64.0,-257.0,0
1380,-3.0,-63.0,-253.0,0
1381,0.0,-65.0,-251.0,0
1382,0.0,-66.0,-250.0,0
1383,0.0,-66.0,-248.0,0
1384,0.0,-66.0,-246.0,0
1385,-1.0,-67.0,-249.0,0
1386,0.0,-67.0,-243.0,0
1387,2.0,-70.0,-246.0,0
1388,0.0,-66.0,-244.0,0
1389,0.0,-66.0,-243.0,0
1390,1.0,-64.0,-241.0,0
1391,5.0,-66.0,-246.0,0
1392,0.0,-63.0,-244.0,0
1393,0.0,-63.0,-244.0,0
1394,0.0,-59.0,-245.0,0
1395,1.0,-59.0,-241.0,0
1396,1.0,-61.0,-239.0,0
1397,0.0,-64.0,-240.0,0
1398,1.0,-57.0,-242.0,0
1399,0.0,-57.0,-237.0,0
1400,0.0,-56.0,-240.0,0
1401,1.0,-59.0,-240.0,0
1402,0.0,-59.0,-233.0,0
1403,0.0,-61.0,-235.0,0
1404,1.0,-60.0,-231.0,0
1405,1.0,-60.0,-236.0,0
1406,1.0,-62.0,-236.0,0
1407,3.0,-61.0,-237.0,0
1408,0.0,-60.0,-235.0,0
1409,0.0,-61.0,-237.0,0
1410,-3.0,-61.0,-232.0,0
1411,0.0,-63.0,-236.0,0
1412,0.0,-64.0,-239.0,0
1413,3.0,-66.0,-240.0,0
1414,0.0,-67.0,-239.0,0
1415,-2.0,-66.0,-234.0,0
1416,-2.0,-67.0,-238.0,0
1417,-1.0,-66.0,-240.0,0
1418,0.0,-69.0,-236.0,0
1419,-2.0,-69.0,-238.0,0
1420,1.0,-71.0,-242.0,0
1421,0.0,-70.0,-237.0,0
1422,0.0,-75.0,-239.0,0
1423,1.0,-73.0,-239.0,0
1424,1.0,-72.0,-238.0,0
1425,2.0,-73.0,-237.0,0
1426,1.0,-72.0,-235.0,0
1427,2.0,-72.0,-228.0,0
1428,2.0,-72.0,-228.0,0
1429,6.0,-70.0,-225.0,0
1430,4.0,-66.0,-228.0,0
1431,8.0,-70.0,-221.0,0
1432,7.0,-70.0,-221.0,0
1433,10.0,-74.0,-223.0,0
1434,7.0,-69.0,-219.0,0
1435,10.0,-72.0,-220.0,0
1436,9.0,-71.0,-216.0,0
1437,10.0,-75.0,-219.0,0
1438,8.0,-77.0,-219.0,1
1439,10.0,-78.0,-223.0,1
1440,8.0,-75.0,-222.0,1
1441,9.0,-79.0,-222.0,1
1442,5.0,-79.0,-224.0,1
1443,8.0,-85.0,-226.0,1
1444,2.0,-89.0,-229.0,1
1445,7.0,-99.0,-235.0,1
1446,5.0,-101.0,-237.0,1
1447,4.0,-109.0,-238.0,1
1448,0.0,-114.0,-243.0,1
1449,2.0,-121.0,-249.0,1
1450,0.0,-123.0,-252.0,1
1451,-2.0,-128.0,-255.0,1
1452,0.0,-129.0,-256.0,1
1453,0.0,-132.0,-261.0,1
1454,0.0,-136.0,-263.0,1
1455,3.0,-142.0,-272.0,1
1456,3.0,-143.0,-276.0,1
1457,5.0,-150.0,-281.0,1
1458,7.0,-152.0,-283.0,1
1459,8.0,-158.0,-279.0,1
1460,15.0,-167.0,-274.0,1
1461,18.0,-180.0,-258.0,1
1462,25.0,-198.0,-243.0,1
1463,30.0,-222.0,-218.0,1
1464,33.0,-248.0,-194.0,1
1465,38.0,-281.0,-172.0,1
1466,40.0,-310.0,-156.0,1
1467,45.0,-341.0,-145.0,1
1468,51.0,-374.0,-135.0,1
1469,55.0,-394.0,-125.0,1
1470,48.0,-408.0,-112.0,1
1471,47.0,-410.0,-120.0,1
1472,63.0,-427.0,-137.0,1
1473,85.0,-458.0,-195.0,1
1474,105.0,-501.0,-243.0,1
1475,104.0,-528.0,-258.0,1
1476,108.0,-548.0,-257.0,1
1477,110.0,-606.0,-250.0,1
1478,55.0,-661.0,-295.0,1
1479,-48.0,-668.0,-407.0,1
1480,-155.0,-611.0,-445.0,1
1481,-133.0,-553.0,-417.0,1
1482,-106.0,-517.0,-387.0,1
1483,-73.0,-508.0,-348.0,1
1484,-51.0,-486.0,-294.0,1
1485,-15.0,-451.0,-241.0,1
1486,21.0,-398.0,-207.0,1
1487,44.0,-352.0,-169.0,1
1488,44.0,-295.0,-121.0,1
1489,35.0,-216.0,-74.0,1
1490,28.0,-144.0,-37.0,1
1491,11.0,-79.0,-2.0,1
1492,0.0,-15.0,8.0,1
1493,-2.0,45.0,14.0,1
1494,9.0,100.0,3.0,1
1495,22.0,137.0,-9.0,1
1496,23.0,165.0,-24.0,1
1497,15.0,164.0,-35.0,1
1498,-1.0,128.0,-32.0,1
1499,-14.0,83.0,-20.0,1
1500,-8.0,23.0,-3.0,1
1501,9.0,-45.0,8.0,1
1502,39.0,-121.0,23.0,1
1503,67.0,-198.0,27.0,1
1504,86.0,-274.0,30.0,1
1505,101.0,-342.0,17.0,1
1506,100.0,-393.0,-1.0,1
1507,95.0,-438.0,-27.0,1
1508,76.0,-458.0,-63.0,1
1509,62.0,-471.0,-82.0,1
1510,35.0,-469.0,-108.0,1
1511,21.0,-464.0,-124.0,1
1512,2.0,-453.0,-127.0,1
1513,4.0,-439.0,-118.0,1
1514,9.0,-417.0,-118.0,1
1515,20.0,-398.0,-109.0,1
1516,19.0,-374.0,-96.0,1
1517,20.0,-344.0,-75.0,1
1518,21.0,-321.0,-68.0,1
1519,23.0,-291.0,-67.0,1
1520,24.0,-257.0,-61.0,1
1521,26.0,-223.0,-59.0,1
1522,28.0,-190.0,-58.0,1
1523,27.0,-153.0,-59.0,1
1524,30.0,-124.0,-60.0,1
1525,33.0,-99.0,-60.0,1
1526,32.0,-85.0,-61.0,1
1527,33.0,-85.0,-63.0,1
1528,29.0,-97.0,-62.0,1
1529,29.0,-121.0,-66.0,1
1530,30.0,-144.0,-64.0,1
1531,26.0,-176.0,-67.0,1
1532,27.0,-210.0,-67.0,1
1533,20.0,-237.0,-71.0,1
1534,21.0,-261.0,-75.0,1
1535,15.0,-284.0,-80.0,1
1536,14.0,-305.0,-86.0,1
1537,17.0,-320.0,-88.0,1
1538,15.0,-328.0,-87.0,1
1539,15.0,-334.0,-93.0,1
1540,17.0,-331.0,-92.0,1
1541,20.0,-328.0,-92.0,1
1542,22.0,-320.0,-96.0,1
1543,26.0,-310.0,-91.0,1
1544,29.0,-299.0,-85.0,1
1545,31.0,-284.0,-79.0,1
1546,32.0,-272.0,-72.0,1
1547,34.0,-263.0,-67.0,1
1548,33.0,-250.0,-65.0,1
1549,37.0,-240.0,-62.0,1
1550,37.0,-231.0,-61.0,1
1551,35.0,-224.0,-56.0,1
1552,41.0,-218.0,-52.0,1
1553,38.0,-212.0,-49.0,1
1554,35.0,-209.0,-50.0,1
1555,38.0,-207.0,-45.0,1
1556,40.0,-210.0,-49.0,1
1557,37.0,-211.0,-43.0,1
1558,36.0,-217.0,-42.0,1
1559,35.0,-221.0,-40.0,1
1560,36.0,-230.0,-41.0,1
1561,34.0,-238.0,-44.0,1
1562,30.0,-244.0,-50.0,1
1563,27.0,-250.0,-57.0,1
1564,27.0,-261.0,-60.0,1
1565,29.0,-268.0,-60.0,1
1566,29.0,-275.0,-65.0,1
1567,31.0,-288.0,-68.0,1
1568,31.0,-289.0,-74.0,1
1569,28.0,-293.0,-75.0,1
1570,30.0,-298.0,-71.0,1
1571,30.0,-299.0,-75.0,1
1572,32.0,-295.0,-85.0,1
1573,30.0,-289.0,-80.0,1
1574,34.0,-284.0,-84.0,1
1575,33.0,-275.0,-80.0,1
1576,33.0,-270.0,-83.0,1
1577,32.0,-264.0,-80.0,1
1578,32.0,-253.0,-77.0,1
1579,34.0,-244.0,-77.0,1
1580,34.0,-238.0,-77.0,1
1581,32.0,-232.0,-78.0,1
1582,31.0,-228.0,-76.0,1
1583,31.0,-221.0,-79.0,1
1584,27.0,-222.0,-85.0,1
1585,28.0,-225.0,-83.0,1
1586,25.0,-227.0,-84.0,1
1587,23.0,-235.0,-84.0,1
1588,19.0,-236.0,-92.0,1
1589,19.0,-234.0,-90.0,1
1590,17.0,-244.0,-98.0,1
1591,14.0,-246.0,-103.0,1
1592,17.0,-253.0,-103.0,1
1593,13.0,-255.0,-107.0,1
1594,15.0,-260.0,-105.0,1
1595,17.0,-262.0,-104.0,1
1596,18.0,-267.0,-104.0,1
1597,22.0,-266.0,-103.0,1
1598,22.0,-269.0,-106.0,1
1599,24.0,-269.0,-109.0,1
1600,26.0,-266.0,-106.0,1
1601,29.0,-263.0,-110.0,1
1602,31.0,-263.0,-112.0,0
1603,33.0,-260.0,-111.0,0
1604,35.0,-259.0,-109.0,0
1605,35.0,-257.0,-116.0,0
1606,35.0,-254.0,-109.0,0
1607,39.0,-251.0,-114.0,0
1608,35.0,-251.0,-115.0,0
1609,37.0,-249.0,-117.0,0
1610,35.0,-247.0,-120.0,0
1611,34.0,-247.0,-119.0,0
1612,29.0,-244.0,-119.0,0
1613,28.0,-245.0,-124.0,0
1614,29.0,-245.0,-124.0,0
1615,27.0,-245.0,-124.0,0
1616,24.0,-245.0,-123.0,0
1617,21.0,-243.0,-125.0,0
1618,21.0,-243.0,-125.0,0
1619,24.0,-243.0,-128.0,0
1620,25.0,-244.0,-125.0,0
1621,23.0,-246.0,-128.0,0
1622,28.0,-248.0,-128.0,0
1623,25.0,-246.0,-131.0,0
1624,28.0,-245.0,-131.0,0
1625,30.0,-247.0,-132.0,0
1626,34.0,-250.0,-132.0,0
1627,29.0,-248.0,-131.0,0
1628,31.0,-247.0,-133.0,0
1629,28.0,-249.0,-131.0,0
1630,27.0,-247.0,-135.0,0
1631,27.0,-253.0,-138.0,0
1632,26.0,-249.0,-140.0,0
1633,23.0,-251.0,-139.0,0
1634,21.0,-252.0,-140.0,0
1635,20.0,-252.0,-145.0,0
1636,18.0,-252.0,-137.0,0
1637,22.0,-255.0,-144.0,0
1638,16.0,-257.0,-142.0,0
1639,21.0,-256.0,-141.0,0
1640,17.0,-254.0,-146.0,0
1641,19.0,-255.0,-146.0,0
1642,18.0,-251.0,-140.0,0
1643,22.0,-255.0,-141.0,0
1644,18.0,-247.0,-141.0,0
1645,19.0,-250.0,-139.0,0
1646,18.0,-249.0,-141.0,0
1647,22.0,-249.0,-139.0,0
1648,21.0,-249.0,-140.0,0
1649,25.0,-247.0,-138.0,0
1650,26.0,-244.0,-138.0,0
1651,26.0,-249.0,-139.0,0
1652,23.0,-246.0,-143.0,0
1653,23.0,-245.0,-135.0,0
1654,26.0,-246.0,-137.0,0
1655,23.0,-247.0,-138.0,0
1656,24.0,-238.0,-139.0,0
1657,27.0,-246.0,-140.0,0
1658,24.0,-245.0,-140.0,0
1659,27.0,-246.0,-141.0,0
1660,26.0,-245.0,-139.0,0
1661,24.0,-247.0,-141.0,0
1662,26.0,-248.0,-138.0,0
1663,27.0,-247.0,-136.0,0
1664,25.0,-247.0,-138.0,0
1665,23.0,-242.0,-142.0,0
1666,27.0,-249.0,-139.0,0
1667,28.0,-244.0,-140.0,0
1668,29.0,-245.0,-145.0,0
1669,26.0,-246.0,-143.0,0
1670,24.0,-247.0,-139.0,0
1671,28.0,-245.0,-146.0,0
1672,28.0,-250.0,-142.0,0
1673,28.0,-246.0,-140.0,0
1674,27.0,-250.0,-143.0,0
1675,22.0,-245.0,-142.0,0
1676,27.0,-249.0,-144.0,0
1677,27.0,-246.0,-141.0,0
1678,26.0,-248.0,-141.0,0
1679,29.0,-249.0,-135.0,0
1680,26.0,-247.0,-140.0,0
1681,26.0,-244.0,-139.0,0
1682,26.0,-245.0,-143.0,0
1683,25.0,-243.0,-141.0,0
1684,26.0,-244.0,-137.0,0
1685,28.0,-245.0,-145.0,0
1686,24.0,-243.0,-139.0,0
1687,25.0,-241.0,-143.0,0
1688,23.0,-242.0,-142.0,0
1689,25.0,-244.0,-143.0,0
1690,28.0,-241.0,-139.0,0
1691,25.0,-244.0,-139.0,0
1692,27.0,-243.0,-143.0,0
1693,26.0,-244.0,-142.0,0
1694,26.0,-243.0,-141.0,0
1695,25.0,-242.0,-143.0,0
1696,25.0,-244.0,-144.0,0
1697,24.0,-243.0,-140.0,0
1698,23.0,-244.0,-139.0,0
1699,23.0,-243.0,-140.0,0
1700,27.0,-246.0,-143.0,0
1701,25.0,-243.0,-140.0,0
1702,22.0,-244.0,-139.0,0
1703,23.0,-243.0,-136.0,0
1704,22.0,-242.0,-141.0,0
1705,20.0,-242.0,-140.0,0
1706,22.0,-243.0,-139.0,0
1707,20.0,-244.0,-141.0,0
1708,19.0,-243.0,-140.0,0
1709,20.0,-244.0,-137.0,0
1710,20.0,-247.0,-145.0,0
1711,20.0,-244.0,-141.0,0
1712,16.0,-246.0,-141.0,0
1713,20.0,-246.0,-141.0,0
1714,20.0,-245.0,-139.0,0
1715,18.0,-244.0,-144.0,0
1716,21.0,-244.0,-140.0,0
1717,19.0,-242.0,-137.0,0
1718,19.0,-243.0,-140.0,0
1719,19.0,-243.0,-137.0,0
1720,20.0,-244.0,-138.0,0
1721,18.0,-243.0,-137.0,0
1722,20.0,-243.0,-139.0,0
1723,18.0,-242.0,-137.0,0
1724,18.0,-243.0,-138.0,0
1725,18.0,-241.0,-138.0,0
1726,19.0,-242.0,-138.0,0
1727,19.0,-241.0,-139.0,0
1728,18.0,-242.0,-139.0,0
1729,16.0,-242.0,-141.0,0
1730,21.0,-242.0,-139.0,0
1731,17.0,-242.0,-137.0,0
1732,19.0,-242.0,-137.0,0
1733,20.0,-245.0,-139.0,0
1734,20.0,-244.0,-139.0,0
1735,17.0,-243.0,-137.0,0
1736,21.0,-249.0,-138.0,0
1737,19.0,-246.0,-138.0,0
1738,20.0,-246.0,-141.0,0
1739,21.0,-245.0,-141.0,0
1740,23.0,-244.0,-138.0,0
1741,21.0,-241.0,-138.0,0
1742,21.0,-243.0,-142.0,0
1743,20.0,-243.0,-136.0,0
1744,22.0,-245.0,-137.0,0
1745,20.0,-246.0,-135.0,0
1746,19.0,-244.0,-136.0,0
1747,20.0,-243.0,-140.0,0
1748,21.0,-246.0,-132.0,0
1749,21.0,-242.0,-137.0,0
1750,21.0,-248.0,-133.0,0
1751,23.0,-246.0,-136.0,0
1752,23.0,-245.0,-137.0,0
1753,20.0,-244.0,-133.0,0
1754,25.0,-243.0,-135.0,0
1755,24.0,-245.0,-137.0,0
1756,23.0,-243.0,-140.0,0
1757,22.0,-240.0,-138.0,0
1758,20.0,-244.0,-139.0,0
1759,21.0,-244.0,-139.0,0
1760,20.0,-245.0,-135.0,0
1761,22.0,-248.0,-138.0,0
1762,22.0,-246.0,-137.0,0
1763,26.0,-250.0,-138.0,0
1764,24.0,-247.0,-140.0,0
1765,23.0,-246.0,-138.0,0
1766,23.0,-246.0,-139.0,0
1767,24.0,-244.0,-137.0,0
1768,24.0,-245.0,-136.0,0
1769,27.0,-245.0,-136.0,0
1770,27.0,-244.0,-133.0,0
1771,25.0,-244.0,-136.0,0
1772,24.0,-240.0,-135.0,0
1773,23.0,-242.0,-134.0,0
1774,24.0,-242.0,-135.0,0
1775,23.0,-242.0,-133.0,0
1776,25.0,-243.0,-135.0,0
1777,23.0,-243.0,-136.0,0
1778,24.0,-246.0,-135.0,0
1779,20.0,-240.0,-134.0,0
1780,26.0,-244.0,-135.0,0
1781,27.0,-246.0,-138.0,0
1782,26.0,-246.0,-136.0,0
1783,26.0,-244.0,-134.0,0
1784,22.0,-244.0,-133.0,0
1785,24.0,-246.0,-134.0,0
1786,24.0,-242.0,-134.0,0
1787,23.0,-244.0,-132.0,0
1788,25.0,-243.0,-137.0,0
1789,29.0,-244.0,-137.0,0
1790,24.0,-245.0,-133.0,0
1791,25.0,-247.0,-134.0,0
1792,28.0,-248.0,-136.0,0
1793,20.0,-244.0,-135.0,0
1794,25.0,-245.0,-135.0,0
1795,25.0,-245.0,-132.0,0
1796,24.0,-245.0,-135.0,0
1797,24.0,-243.0,-133.0,0
1798,24.0,-245.0,-131.0,0
1799,26.0,-246.0,-132.0,0
1800,25.0,-244.0,-133.0,0
1801,29.0,-242.0,-133.0,0
1802,25.0,-243.0,-136.0,0
1803,28.0,-243.0,-137.0,0
1804,24.0,-245.0,-140.0,0
1805,26.0,-242.0,-133.0,0
1806,25.0,-244.0,-135.0,0
1807,22.0,-244.0,-133.0,0
1808,28.0,-243.0,-132.0,0
1809,25.0,-244.0,-136.0,0
1810,26.0,-243.0,-135.0,0
1811,23.0,-243.0,-135.0,0
1812,27.0,-246.0,-136.0,0
1813,27.0,-245.0,-137.0,0
1814,27.0,-245.0,-136.0,0
1815,25.0,-241.0,-127.0,0
1816,26.0,-244.0,-138.0,0
1817,24.0,-244.0,-134.0,0
1818,27.0,-245.0,-135.0,0
1819,24.0,-243.0,-135.0,0
1820,25.0,-244.0,-135.0,0
1821,26.0,-245.0,-133.0,0
1822,25.0,-245.0,-139.0,0
1823,23.0,-244.0,-133.0,0
1824,24.0,-243.0,-135.0,0
1825,24.0,-245.0,-136.0,0
1826,30.0,-244.0,-134.0,0
1827,25.0,-247.0,-132.0,0
1828,25.0,-244.0,-133.0,0
1829,25.0,-245.0,-132.0,0
1830,24.0,-243.0,-132.0,0
1831,25.0,-246.0,-137.0,0
1832,23.0,-244.0,-132.0,0
1833,27.0,-249.0,-131.0,0
1834,24.0,-247.0,-136.0,0
1835,24.0,-241.0,-132.0,0
1836,25.0,-244.0,-136.0,0
1837,25.0,-242.0,-135.0,0
1838,25.0,-245.0,-135.0,0
1839,25.0,-246.0,-134.0,0
1840,24.0,-243.0,-137.0,0
1841,25.0,-246.0,-133.0,0
1842,20.0,-243.0,-134.0,0
1843,22.0,-243.0,-133.0,0
1844,23.0,-243.0,-134.0,0
1845,25.0,-245.0,-133.0,0
1846,25.0,-244.0,-132.0,0
1847,23.0,-245.0,-133.0,0
1848,25.0,-242.0,-135.0,0
1849,24.0,-245.0,-134.0,0
1850,24.0,-243.0,-134.0,0
1851,27.0,-241.0,-136.0,0
1852,26.0,-244.0,-140.0,0
1853,26.0,-243.0,-130.0,0
1854,25.0,-245.0,-138.0,0
1855,25.0,-244.0,-137.0,0
1856,24.0,-244.0,-134.0,0
1857,26.0,-243.0,-138.0,0
1858,27.0,-242.0,-137.0,0
1859,26.0,-248.0,-136.0,0
1860,27.0,-244.0,-135.0,0
1861,26.0,-243.0,-133.0,0
1862,27.0,-246.0,-136.0,0
1863,24.0,-248.0,-135.0,0
1864,25.0,-245.0,-132.0,0
1865,25.0,-243.0,-135.0,0
1866,26.0,-249.0,-136.0,0
1867,23.0,-247.0,-135.0,0
1868,22.0,-247.0,-134.0,0
1869,24.0,-245.0,-137.0,0
1870,25.0,-246.0,-136.0,0
1871,23.0,-244.0,-130.0,0
1872,24.0,-245.0,-136.0,0
1873,27.0,-244.0,-134.0,0
1874,27.0,-240.0,-139.0,0
1875,24.0,-242.0,-136.0,0
1876,25.0,-241.0,-139.0,0
1877,27.0,-243.0,-137.0,0
1878,27.0,-244.0,-134.0,0
1879,24.0,-238.0,-132.0,0
1880,22.0,-243.0,-136.0,0
1881,27.0,-246.0,-131.0,0
1882,24.0,-244.0,-130.0,0
1883,23.0,-246.0,-132.0,0
1884,34.0,-257.0,-136.0,0
1885,26.0,-243.0,-132.0,0
1886,25.0,-245.0,-135.0,0
1887,25.0,-241.0,-137.0,0
1888,23.0,-244.0,-131.0,0
1889,25.0,-248.0,-133.0,0
1890,26.0,-245.0,-136.0,0
1891,23.0,-243.0,-134.0,0
1892,27.0,-243.0,-137.0,0
1893,26.0,-242.0,-136.0,0
1894,22.0,-243.0,-133.0,0
1895,22.0,-248.0,-126.0,0
1896,24.0,-245.0,-140.0,0
1897,27.0,-244.0,-136.0,0
1898,26.0,-245.0,-137.0,0
1899,26.0,-243.0,-137.0,0
1900,25.0,-244.0,-138.0,0
1901,24.0,-244.0,-138.0,0
1902,24.0,-241.0,-133.0,0
1903,24.0,-243.0,-135.0,0
1904,24.0,-243.0,-139.0,0
1905,24.0,-245.0,-136.0,0
1906,32.0,-246.0,-135.0,0
1907,26.0,-245.0,-138.0,0
1908,28.0,-245.0,-136.0,0
1909,25.0,-243.0,-135.0,0
1910,27.0,-248.0,-138.0,0
1911,25.0,-244.0,-138.0,0
1912,25.0,-243.0,-140.0,0
1913,25.0,-246.0,-133.0,0
1914,27.0,-246.0,-139.0,0
1915,24.0,-246.0,-134.0,0
1916,26.0,-247.0,-136.0,0
1917,17.0,-249.0,-127.0,0
1918,24.0,-244.0,-138.0,0
1919,25.0,-245.0,-139.0,0
1920,25.0,-242.0,-140.0,0
1921,26.0,-245.0,-136.0,0
1922,23.0,-244.0,-138.0,0
1923,24.0,-244.0,-140.0,0
1924,25.0,-243.0,-139.0,0
1925,28.0,-244.0,-140.0,0
1926,25.0,-244.0,-137.0,0
1927,19.0,-243.0,-138.0,0
1928,27.0,-246.0,-139.0,0
1929,24.0,-242.0,-138.0,0
1930,30.0,-240.0,-135.0,0
1931,27.0,-247.0,-132.0,0
1932,25.0,-244.0,-134.0,0
1933,24.0,-245.0,-138.0,0
1934,28.0,-241.0,-133.0,0
1935,24.0,-240.0,-136.0,0
1936,25.0,-245.0,-134.0,0
1937,26.0,-242.0,-133.0,0
1938,37.0,-244.0,-125.0,0
1939,27.0,-246.0,-137.0,0
1940,27.0,-247.0,-135.0,0
1941,26.0,-244.0,-131.0,0
1942,27.0,-246.0,-135.0,0
1943,19.0,-244.0,-132.0,0
1944,23.0,-246.0,-139.0,0
1945,24.0,-243.0,-134.0,0
1946,25.0,-246.0,-139.0,0
1947,24.0,-244.0,-134.0,0
1948,24.0,-246.0,-135.0,0
1949,20.0,-237.0,-145.0,0
1950,25.0,-243.0,-136.0,0
1951,27.0,-247.0,-137.0,0
1952,26.0,-245.0,-138.0,0
1953,24.0,-244.0,-137.0,0
1954,25.0,-243.0,-136.0,0
1955,24.0,-240.0,-135.0,0
1956,25.0,-245.0,-136.0,0
1957,24.0,-242.0,-138.0,0
1958,26.0,-246.0,-136.0,0
1959,26.0,-246.0,-137.0,0
1960,19.0,-238.0,-144.0,0
1961,22.0,-243.0,-134.0,0
1962,24.0,-244.0,-135.0,0
1963,25.0,-245.0,-133.0,0
1964,25.0,-239.0,-136.0,0
1965,26.0,-244.0,-135.0,0
1966,27.0,-244.0,-135.0,0
1967,26.0,-245.0,-135.0,0
1968,27.0,-244.0,-136.0,0
1969,25.0,-242.0,-136.0,0
1970,24.0,-245.0,-138.0,0
1971,19.0,-243.0,-141.0,0
1972,24.0,-246.0,-135.0,0
1973,25.0,-246.0,-137.0,0
1974,26.0,-244.0,-139.0,0
1975,28.0,-243.0,-138.0,0
1976,25.0,-245.0,-130.0,0
1977,25.0,-246.0,-136.0,0
1978,27.0,-246.0,-137.0,0
1979,27.0,-244.0,-138.0,0
1980,26.0,-243.0,-137.0,0
1981,27.0,-244.0,-137.0,0
1982,28.0,-239.0,-132.0,0
1983,25.0,-246.0,-132.0,0
1984,25.0,-244.0,-131.0,0
1985,26.0,-243.0,-135.0,0
1986,27.0,-245.0,-140.0,0
1987,25.0,-245.0,-133.0,0
1988,23.0,-241.0,-135.0,0
1989,28.0,-243.0,-133.0,0
1990,27.0,-246.0,-137.0,0
1991,28.0,-243.0,-136.0,0
1992,26.0,-243.0,-138.0,0
1993,24.0,-241.0,-132.0,0
1994,28.0,-246.0,-138.0,0
1995,26.0,-243.0,-136.0,0
1996,26.0,-242.0,-134.0,0
1997,25.0,-246.0,-133.0,0
1998,27.0,-246.0,-133.0,0
1999,26.0,-246.0,-130.0,0
2000,28.0,-249.0,-130.0,0
2001,26.0,-247.0,-135.0,0
2002,27.0,-246.0,-136.0,0
2003,27.0,-245.0,-135.0,0
2004,22.0,-243.0,-137.0,0
2005,29.0,-244.0,-143.0,0
2006,24.0,-245.0,-139.0,0
2007,23.0,-242.0,-136.0,0
2008,27.0,-244.0,-143.0,0
2009,23.0,-243.0,-133.0,0
2010,26.0,-245.0,-135.0,0
2011,23.0,-243.0,-134.0,0
2012,25.0,-243.0,-135.0,0
2013,27.0,-244.0,-130.0,0
2014,27.0,-244.0,-134.0,0
2015,26.0,-246.0,-131.0,0
2016,27.0,-248.0,-129.0,0
2017,27.0,-244.0,-132.0,0
2018,29.0,-245.0,-131.0,0
2019,29.0,-246.0,-134.0,0
2020,27.0,-245.0,-135.0,0
2021,26.0,-244.0,-133.0,0
2022,29.0,-243.0,-135.0,0
2023,27.0,-243.0,-133.0,0
2024,27.0,-244.0,-135.0,0
2025,29.0,-244.0,-133.0,0
2026,24.0,-244.0,-137.0,0
2027,30.0,-244.0,-135.0,0
2028,23.0,-244.0,-132.0,0
2029,25.0,-245.0,-132.0,0
2030,26.0,-243.0,-136.0,0
2031,29.0,-247.0,-134.0,0
2032,29.0,-246.0,-131.0,0
2033,28.0,-247.0,-131.0,0
2034,27.0,-247.0,-136.0,0
2035,25.0,-245.0,-133.0,0
2036,28.0,-247.0,-135.0,0
2037,26.0,-247.0,-133.0,0
2038,25.0,-246.0,-133.0,0
2039,30.0,-245.0,-134.0,0
2040,26.0,-245.0,-130.0,0
2041,25.0,-250.0,-130.0,0
2042,28.0,-249.0,-132.0,0
2043,25.0,-246.0,-130.0,0
2044,28.0,-246.0,-130.0,0
2045,27.0,-244.0,-133.0,0
2046,26.0,-248.0,-129.0,0
2047,27.0,-244.0,-130.0,0
2048,26.0,-242.0,-131.0,0
2049,28.0,-244.0,-131.0,0
2050,28.0,-248.0,-133.0,0
2051,30.0,-247.0,-134.0,0
2052,33.0,-250.0,-132.0,0
2053,32.0,-246.0,-134.0,0
2054,29.0,-244.0,-131.0,0
2055,31.0,-245.0,-136.0,0
2056,28.0,-247.0,-136.0,0
2057,29.0,-246.0,-135.0,0
2058,26.0,-245.0,-139.0,0
2059,26.0,-246.0,-134.0,0
2060,23.0,-245.0,-136.0,0
2061,27.0,-246.0,-136.0,0
2062,27.0,-248.0,-136.0,0
2063,25.0,-247.0,-136.0,0
2064,25.0,-248.0,-138.0,0
2065,24.0,-249.0,-138.0,0
2066,19.0,-250.0,-136.0,0
2067,23.0,-250.0,-131.0,0
2068,21.0,-253.0,-134.0,0
2069,19.0,-251.0,-133.0,0
2070,20.0,-251.0,-130.0,0
2071,18.0,-250.0,-130.0,0
2072,22.0,-252.0,-128.0,0
2073,24.0,-251.0,-131.0,0
2074,24.0,-249.0,-129.0,0
2075,23.0,-251.0,-131.0,0
2076,18.0,-245.0,-129.0,0
2077,23.0,-245.0,-130.0,0
2078,23.0,-242.0,-128.0,0
2079,28.0,-247.0,-130.0,0
2080,30.0,-242.0,-129.0,0
2081,26.0,-244.0,-127.0,0
2082,26.0,-246.0,-129.0,0
2083,28.0,-241.0,-126.0,0
2084,26.0,-243.0,-127.0,0
2085,29.0,-246.0,-126.0,0
2086,28.0,-247.0,-125.0,0
2087,25.0,-245.0,-125.0,0
2088,29.0,-248.0,-125.0,0
2089,29.0,-247.0,-126.0,0
2090,27.0,-247.0,-122.0,0
2091,30.0,-250.0,-125.0,0
2092,32.0,-251.0,-126.0,0
2093,29.0,-245.0,-123.0,0
2094,26.0,-248.0,-127.0,0
2095,28.0,-251.0,-124.0,0
2096,28.0,-250.0,-124.0,0
2097,30.0,-251.0,-121.0,0
2098,31.0,-248.0,-122.0,0
2099,30.0,-251.0,-121.0,0
2100,30.0,-248.0,-124.0,0
2101,31.0,-252.0,-120.0,0
2102,30.0,-248.0,-125.0,0
2103,31.0,-247.0,-122.0,0
2104,32.0,-249.0,-120.0,0
2105,32.0,-247.0,-120.0,0
2106,30.0,-249.0,-122.0,0
2107,31.0,-249.0,-121.0,0
2108,28.0,-246.0,-120.0,0
2109,32.0,-248.0,-122.0,0
2110,32.0,-249.0,-123.0,0
2111,30.0,-247.0,-119.0,0
2112,31.0,-245.0,-120.0,0
2113,33.0,-251.0,-119.0,0
2114,33.0,-251.0,-120.0,0
2115,33.0,-251.0,-126.0,0
2116,35.0,-248.0,-118.0,0
2117,34.0,-244.0,-120.0,0
2118,37.0,-250.0,-124.0,0
2119,35.0,-251.0,-119.0,0
2120,32.0,-251.0,-117.0,0
2121,35.0,-251.0,-120.0,0
2122,33.0,-250.0,-119.0,0
2123,33.0,-248.0,-121.0,0
2124,33.0,-249.0,-115.0,0
2125,33.0,-249.0,-113.0,0
2126,34.0,-250.0,-117.0,0
2127,31.0,-252.0,-115.0,0
2128,33.0,-249.0,-115.0,0
2129,31.0,-248.0,-116.0,0
2130,32.0,-249.0,-115.0,0
2131,34.0,-245.0,-112.0,0
2132,36.0,-248.0,-114.0,0
2133,32.0,-243.0,-111.0,0
2134,39.0,-250.0,-108.0,0
2135,33.0,-244.0,-111.0,0
2136,32.0,-246.0,-115.0,0
2137,35.0,-248.0,-114.0,0
2138,33.0,-246.0,-116.0,0
2139,35.0,-251.0,-119.0,0
2140,35.0,-249.0,-119.0,0
2141,34.0,-248.0,-115.0,0
2142,32.0,-251.0,-118.0,0
2143,34.0,-251.0,-116.0,0
2144,34.0,-252.0,-116.0,0
2145,34.0,-252.0,-116.0,0
2146,34.0,-249.0,-122.0,0
2147,31.0,-250.0,-124.0,0
2148,32.0,-251.0,-118.0,0
2149,33.0,-250.0,-122.0,0
2150,30.0,-248.0,-121.0,0
2151,31.0,-248.0,-126.0,0
2152,33.0,-249.0,-124.0,0
2153,31.0,-249.0,-126.0,0
2154,30.0,-248.0,-126.0,0
2155,34.0,-248.0,-124.0,0
2156,30.0,-248.0,-130.0,0
2157,31.0,-248.0,-125.0,0
2158,35.0,-249.0,-128.0,0
2159,32.0,-252.0,-129.0,0
2160,33.0,-250.0,-131.0,0
2161,28.0,-245.0,-130.0,0
2162,30.0,-248.0,-127.0,0
2163,30.0,-247.0,-134.0,0
2164,30.0,-250.0,-130.0,0
2165,29.0,-247.0,-134.0,0
2166,26.0,-246.0,-132.0,0
2167,27.0,-248.0,-134.0,0
2168,27.0,-250.0,-130.0,0
2169,22.0,-247.0,-131.0,0
2170,25.0,-249.0,-130.0,0
2171,23.0,-249.0,-134.0,0
2172,24.0,-249.0,-131.0,0
2173,22.0,-248.0,-131.0,0
2174,24.0,-251.0,-128.0,0
2175,23.0,-248.0,-127.0,0
2176,25.0,-249.0,-129.0,0
2177,23.0,-248.0,-128.0,0
2178,26.0,-246.0,-126.0,0
2179,24.0,-252.0,-127.0,0
2180,24.0,-252.0,-127.0,0
2181,23.0,-249.0,-125.0,0
2182,25.0,-246.0,-127.0,0
2183,26.0,-250.0,-128.0,0
2184,27.0,-253.0,-125.0,0
2185,25.0,-251.0,-129.0,0
2186,24.0,-249.0,-128.0,0
2187,26.0,-251.0,-123.0,0
2188,27.0,-251.0,-125.0,0
2189,27.0,-250.0,-126.0,0
2190,23.0,-252.0,-123.0,0
2191,29.0,-248.0,-128.0,0
2192,28.0,-249.0,-127.0,0
2193,29.0,-252.0,-125.0,0
2194,27.0,-247.0,-127.0,0
2195,28.0,-247.0,-125.0,0
2196,27.0,-250.0,-124.0,0
2197,28.0,-248.0,-124.0,0
2198,33.0,-250.0,-119.0,0
2199,30.0,-247.0,-121.0,0
2200,31.0,-247.0,-122.0,0
2201,35.0,-247.0,-126.0,0
2202,35.0,-246.0,-125.0,0
2203,32.0,-246.0,-121.0,0
2204,33.0,-247.0,-123.0,0
2205,32.0,-245.0,-124.0,0
2206,35.0,-247.0,-122.0,0
2207,37.0,-248.0,-124.0,0
2208,37.0,-249.0,-121.0,0
2209,38.0,-247.0,-123.0,0
2210,40.0,-248.0,-126.0,0
2211,38.0,-248.0,-124.0,0
2212,40.0,-247.0,-126.0,0
2213,40.0,-247.0,-124.0,0
2214,42.0,-247.0,-123.0,0
2215,38.0,-247.0,-124.0,0
2216,40.0,-245.0,-122.0,0
2217,40.0,-248.0,-126.0,0
2218,39.0,-246.0,-126.0,0
2219,40.0,-249.0,-126.0,0
2220,39.0,-243.0,-127.0,0
2221,38.0,-244.0,-124.0,0
2222,37.0,-243.0,-125.0,0
2223,38.0,-243.0,-125.0,0
2224,36.0,-247.0,-127.0,0
2225,37.0,-246.0,-127.0,0
2226,39.0,-244.0,-127.0,0
2227,34.0,-247.0,-130.0,0
2228,36.0,-248.0,-128.0,0
2229,36.0,-251.0,-128.0,0
2230,35.0,-250.0,-128.0,0
2231,33.0,-250.0,-128.0,0
2232,32.0,-249.0,-129.0,0
2233,32.0,-249.0,-132.0,0
2234,34.0,-251.0,-127.0,0
2235,32.0,-250.0,-129.0,0
2236,29.0,-246.0,-127.0,0
2237,27.0,-245.0,-129.0,0
2238,29.0,-248.0,-127.0,0
2239,28.0,-246.0,-126.0,0
2240,27.0,-245.0,-125.0,0
2241,27.0,-246.0,-124.0,0
2242,27.0,-246.0,-128.0,0
2243,28.0,-244.0,-126.0,0
2244,26.0,-245.0,-129.0,0
2245,28.0,-246.0,-126.0,0
2246,30.0,-248.0,-122.0,0
2247,31.0,-250.0,-126.0,0
2248,28.0,-246.0,-126.0,0
2249,31.0,-247.0,-124.0,0
2250,33.0,-247.0,-127.0,0
2251,30.0,-247.0,-127.0,0
2252,34.0,-248.0,-125.0,0
2253,32.0,-247.0,-125.0,0
2254,30.0,-251.0,-125.0,0
2255,32.0,-249.0,-124.0,0
2256,32.0,-248.0,-125.0,0
2257,29.0,-250.0,-125.0,0
2258,30.0,-250.0,-124.0,0
2259,32.0,-250.0,-121.0,0
2260,28.0,-247.0,-123.0,0
2261,32.0,-246.0,-123.0,0
2262,28.0,-244.0,-122.0,0
2263,30.0,-247.0,-126.0,0
2264,31.0,-249.0,-121.0,0
2265,32.0,-248.0,-122.0,0
2266,33.0,-249.0,-126.0,0
2267,32.0,-243.0,-126.0,0
2268,32.0,-249.0,-127.0,0
2269,33.0,-250.0,-130.0,0
2270,31.0,-245.0,-126.0,0
2271,34.0,-247.0,-128.0,0
2272,34.0,-248.0,-131.0,0
2273,32.0,-247.0,-128.0,0
2274,35.0,-251.0,-125.0,0
2275,32.0,-250.0,-127.0,0
2276,34.0,-251.0,-128.0,0
2277,32.0,-251.0,-128.0,0
2278,33.0,-250.0,-128.0,0
2279,32.0,-247.0,-126.0,0
2280,29.0,-250.0,-126.0,0
2281,28.0,-250.0,-130.0,0
2282,27.0,-245.0,-127.0,0
2283,32.0,-249.0,-131.0,0
2284,28.0,-247.0,-133.0,0
2285,31.0,-251.0,-132.0,0
2286,28.0,-250.0,-133.0,0
2287,29.0,-249.0,-135.0,0
2288,29.0,-246.0,-129.0,0
2289,30.0,-246.0,-131.0,0
2290,25.0,-246.0,-129.0,0
2291,29.0,-246.0,-129.0,0
2292,30.0,-246.0,-128.0,0
2293,32.0,-246.0,-129.0,0
2294,28.0,-245.0,-127.0,0
2295,33.0,-244.0,-129.0,0
2296,34.0,-248.0,-127.0,0
2297,34.0,-249.0,-128.0,0
2298,32.0,-245.0,-126.0,0
2299,34.0,-248.0,-128.0,0
2300,37.0,-250.0,-129.0,0
2301,32.0,-244.0,-128.0,0
2302,37.0,-249.0,-125.0,0
2303,38.0,-252.0,-127.0,0
2304,38.0,-252.0,-125.0,0
2305,31.0,-246.0,-126.0,0
2306,35.0,-249.0,-125.0,0
2307,37.0,-249.0,-126.0,0
2308,34.0,-251.0,-126.0,0
2309,32.0,-247.0,-126.0,0
2310,32.0,-250.0,-126.0,0
2311,31.0,-246.0,-126.0,0
2312,34.0,-249.0,-125.0,0
2313,32.0,-245.0,-124.0,0
2314,33.0,-248.0,-126.0,0
2315,30.0,-246.0,-126.0,0
2316,30.0,-244.0,-127.0,0
2317,34.0,-247.0,-126.0,0
2318,35.0,-247.0,-122.0,0
2319,30.0,-249.0,-129.0,0
2320,34.0,-247.0,-127.0,0
2321,34.0,-248.0,-127.0,0
2322,32.0,-250.0,-129.0,0
2323,33.0,-249.0,-125.0,0
2324,32.0,-245.0,-128.0,0
2325,30.0,-251.0,-128.0,0
2326,28.0,-247.0,-130.0,0
2327,30.0,-248.0,-129.0,0
2328,30.0,-250.0,-127.0,0
2329,26.0,-250.0,-127.0,0
2330,28.0,-248.0,-129.0,0
2331,28.0,-247.0,-128.0,0
2332,24.0,-247.0,-127.0,0
2333,27.0,-248.0,-129.0,0
2334,25.0,-248.0,-127.0,0
2335,27.0,-247.0,-128.0,0
2336,28.0,-250.0,-127.0,0
2337,27.0,-249.0,-131.0,0
2338,26.0,-249.0,-130.0,0
2339,25.0,-246.0,-129.0,0
2340,24.0,-248.0,-126.0,0
2341,28.0,-249.0,-131.0,0
2342,28.0,-249.0,-128.0,0
2343,25.0,-246.0,-127.0,0
2344,28.0,-248.0,-126.0,0
2345,29.0,-246.0,-127.0,0
2346,28.0,-245.0,-127.0,0
2347,27.0,-246.0,-125.0,0
2348,32.0,-247.0,-125.0,0
2349,33.0,-247.0,-127.0,0
2350,32.0,-246.0,-124.0,0
2351,33.0,-248.0,-123.0,0
2352,35.0,-250.0,-125.0,0
2353,34.0,-248.0,-127.0,0
2354,35.0,-250.0,-125.0,0
2355,36.0,-249.0,-125.0,0
2356,36.0,-248.0,-127.0,0
2357,39.0,-250.0,-127.0,0
2358,34.0,-248.0,-126.0,0
2359,34.0,-248.0,-124.0,0
2360,37.0,-247.0,-128.0,0
2361,34.0,-246.0,-126.0,0
2362,33.0,-247.0,-124.0,0
2363,31.0,-248.0,-125.0,0
2364,33.0,-246.0,-127.0,0
2365,33.0,-246.0,-122.0,0
2366,35.0,-247.0,-125.0,0
2367,37.0,-247.0,-126.0,0
2368,34.0,-247.0,-126.0,0
2369,30.0,-245.0,-125.0,0
2370,35.0,-246.0,-124.0,0
2371,35.0,-248.0,-125.0,0
2372,35.0,-246.0,-123.0,0
2373,34.0,-247.0,-124.0,0
2374,37.0,-246.0,-125.0,0
2375,27.0,-246.0,-127.0,0
2376,34.0,-248.0,-124.0,0
2377,34.0,-247.0,-127.0,0
2378,34.0,-250.0,-124.0,0
2379,29.0,-248.0,-126.0,0
2380,32.0,-249.0,-126.0,0
2381,30.0,-247.0,-125.0,0
2382,32.0,-252.0,-128.0,0
2383,31.0,-249.0,-130.0,0
2384,29.0,-250.0,-125.0,0
2385,31.0,-251.0,-131.0,0
2386,29.0,-252.0,-126.0,0
2387,28.0,-252.0,-128.0,0
2388,27.0,-250.0,-125.0,0
2389,30.0,-249.0,-129.0,0
2390,29.0,-248.0,-133.0,0
2391,30.0,-249.0,-129.0,0
2392,29.0,-247.0,-131.0,0
2393,28.0,-248.0,-128.0,0
2394,32.0,-247.0,-127.0,0
2395,30.0,-249.0,-126.0,0
2396,31.0,-245.0,-126.0,0
2397,28.0,-249.0,-127.0,0
2398,30.0,-246.0,-125.0,0
