,accelerometer_x,accelerometer_y,accelerometer_z,fall
0,-12.0,-255.0,-28.0,0
1,-16.0,-253.0,-26.0,0
2,-13.0,-254.0,-28.0,0
3,-14.0,-254.0,-28.0,0
4,-11.0,-254.0,-30.0,0
5,-14.0,-253.0,-34.0,0
6,-15.0,-253.0,-24.0,0
7,-13.0,-256.0,-30.0,0
8,-15.0,-252.0,-28.0,0
9,-15.0,-254.0,-30.0,0
10,-15.0,-251.0,-28.0,0
11,-14.0,-251.0,-30.0,0
12,-14.0,-253.0,-27.0,0
13,-16.0,-248.0,-26.0,0
14,-13.0,-251.0,-24.0,0
15,-14.0,-250.0,-32.0,0
16,-14.0,-249.0,-32.0,0
17,-14.0,-251.0,-31.0,0
18,-14.0,-249.0,-28.0,0
19,-13.0,-251.0,-28.0,0
20,-13.0,-250.0,-29.0,0
21,-11.0,-249.0,-26.0,0
22,-12.0,-250.0,-30.0,0
23,-10.0,-251.0,-27.0,0
24,-12.0,-251.0,-26.0,0
25,-13.0,-251.0,-26.0,0
26,-11.0,-253.0,-29.0,0
27,-12.0,-250.0,-29.0,0
28,-12.0,-251.0,-28.0,0
29,-14.0,-252.0,-26.0,0
30,-13.0,-251.0,-33.0,0
31,-11.0,-252.0,-30.0,0
32,-11.0,-256.0,-28.0,0
33,-13.0,-254.0,-29.0,0
34,-11.0,-254.0,-32.0,0
35,-11.0,-254.0,-34.0,0
36,-14.0,-252.0,-34.0,0
37,-12.0,-257.0,-34.0,0
38,-14.0,-252.0,-34.0,0
39,-14.0,-251.0,-35.0,0
40,-14.0,-251.0,-34.0,0
41,-7.0,-254.0,-37.0,0
42,-11.0,-254.0,-37.0,0
43,-11.0,-255.0,-39.0,0
44,-11.0,-257.0,-37.0,0
45,-11.0,-258.0,-39.0,0
46,-8.0,-258.0,-40.0,0
47,-10.0,-262.0,-31.0,0
48,-7.0,-261.0,-37.0,0
49,-9.0,-266.0,-35.0,0
50,-10.0,-260.0,-38.0,0
51,-9.0,-263.0,-38.0,0
52,-9.0,-263.0,-39.0,0
53,-6.0,-259.0,-37.0,0
54,-12.0,-255.0,-41.0,0
55,-9.0,-254.0,-35.0,0
56,-7.0,-256.0,-32.0,0
57,-10.0,-251.0,-34.0,0
58,-10.0,-250.0,-33.0,0
59,-8.0,-250.0,-31.0,0
60,-12.0,-250.0,-32.0,0
61,-8.0,-249.0,-27.0,0
62,-7.0,-249.0,-27.0,0
63,-7.0,-250.0,-32.0,0
64,-13.0,-247.0,-30.0,0
65,-7.0,-248.0,-29.0,0
66,-6.0,-250.0,-32.0,0
67,-6.0,-250.0,-29.0,0
68,-5.0,-251.0,-28.0,0
69,-9.0,-251.0,-33.0,0
70,-6.0,-248.0,-32.0,0
71,-10.0,-251.0,-32.0,0
72,-11.0,-249.0,-33.0,0
73,-4.0,-251.0,-31.0,0
74,-8.0,-248.0,-31.0,0
75,-7.0,-249.0,-28.0,0
76,-8.0,-249.0,-30.0,0
77,-10.0,-247.0,-32.0,0
78,-11.0,-248.0,-31.0,0
79,-9.0,-248.0,-33.0,0
80,-8.0,-250.0,-30.0,0
81,-10.0,-249.0,-29.0,0
82,-8.0,-249.0,-32.0,0
83,-11.0,-246.0,-29.0,0
84,-10.0,-250.0,-36.0,0
85,-8.0,-250.0,-31.0,0
86,-10.0,-251.0,-32.0,0
87,-12.0,-250.0,-32.0,0
88,-14.0,-251.0,-32.0,0
89,-12.0,-251.0,-31.0,0
90,-13.0,-251.0,-32.0,0
91,-13.0,-254.0,-33.0,0
92,-16.0,-253.0,-34.0,0
93,-15.0,-252.0,-37.0,0
94,-16.0,-251.0,-36.0,0
95,-16.0,-250.0,-39.0,0
96,-16.0,-251.0,-37.0,0
97,-16.0,-251.0,-41.0,0
98,-15.0,-251.0,-45.0,0
99,-15.0,-255.0,-45.0,0
100,-16.0,-250.0,-45.0,0
101,-12.0,-253.0,-45.0,0
102,-14.0,-253.0,-42.0,0
103,-12.0,-253.0,-40.0,0
104,-10.0,-256.0,-46.0,0
105,-7.0,-258.0,-43.0,0
106,-10.0,-252.0,-45.0,0
107,-6.0,-254.0,-40.0,0
108,-6.0,-253.0,-43.0,0
109,-6.0,-254.0,-44.0,0
110,-5.0,-252.0,-43.0,0
111,-7.0,-251.0,-41.0,0
112,-6.0,-252.0,-48.0,0
113,-7.0,-254.0,-46.0,0
114,-8.0,-256.0,-43.0,0
115,-10.0,-253.0,-44.0,0
116,-8.0,-254.0,-47.0,0
117,-11.0,-257.0,-45.0,0
118,-12.0,-256.0,-47.0,0
119,-13.0,-258.0,-47.0,0
120,-12.0,-255.0,-48.0,0
121,-13.0,-256.0,-46.0,0
122,-12.0,-256.0,-49.0,0
123,-14.0,-256.0,-46.0,0
124,-12.0,-260.0,-51.0,0
125,-13.0,-253.0,-47.0,0
126,-14.0,-254.0,-50.0,0
127,-15.0,-256.0,-47.0,0
128,-16.0,-257.0,-49.0,0
129,-15.0,-260.0,-50.0,0
130,-14.0,-258.0,-47.0,0
131,-15.0,-258.0,-44.0,0
132,-15.0,-257.0,-49.0,0
133,-13.0,-255.0,-51.0,0
134,-5.0,-254.0,-38.0,0
135,-10.0,-252.0,-42.0,0
136,-10.0,-252.0,-51.0,0
137,-8.0,-251.0,-45.0,0
138,-7.0,-250.0,-46.0,0
139,-8.0,-251.0,-45.0,0
140,-6.0,-248.0,-49.0,0
141,-5.0,-246.0,-45.0,0
142,-4.0,-247.0,-47.0,0
143,-5.0,-248.0,-45.0,0
144,-6.0,-250.0,-45.0,0
145,0.0,-246.0,-55.0,0
146,-7.0,-255.0,-49.0,0
147,-7.0,-253.0,-49.0,0
148,-11.0,-252.0,-45.0,0
149,-8.0,-255.0,-43.0,0
150,-10.0,-258.0,-47.0,0
151,-10.0,-256.0,-46.0,0
152,-12.0,-254.0,-42.0,0
153,-14.0,-253.0,-46.0,0
154,-15.0,-254.0,-43.0,0
155,-16.0,-254.0,-44.0,0
156,-16.0,-263.0,-36.0,0
157,-16.0,-254.0,-46.0,0
158,-17.0,-256.0,-52.0,0
159,-16.0,-259.0,-49.0,0
160,-15.0,-255.0,-50.0,0
161,-17.0,-256.0,-55.0,0
162,-15.0,-255.0,-53.0,0
163,-16.0,-254.0,-54.0,0
164,-17.0,-255.0,-55.0,0
165,-16.0,-255.0,-52.0,0
166,-14.0,-252.0,-52.0,0
167,-14.0,-254.0,-52.0,0
168,-11.0,-254.0,-47.0,0
169,-15.0,-251.0,-55.0,0
170,-8.0,-253.0,-50.0,0
171,-9.0,-251.0,-52.0,0
172,-6.0,-251.0,-46.0,0
173,-6.0,-250.0,-55.0,0
174,-7.0,-251.0,-51.0,0
175,-8.0,-251.0,-53.0,0
176,-8.0,-251.0,-50.0,0
177,-8.0,-248.0,-50.0,0
178,-10.0,-250.0,-51.0,0
179,-8.0,-251.0,-56.0,0
180,-12.0,-251.0,-49.0,0
181,-12.0,-251.0,-53.0,0
182,-12.0,-250.0,-55.0,0
183,-15.0,-252.0,-56.0,0
184,-16.0,-250.0,-57.0,0
185,-15.0,-247.0,-56.0,0
186,-15.0,-251.0,-58.0,0
187,-18.0,-248.0,-58.0,0
188,-15.0,-250.0,-55.0,0
189,-14.0,-251.0,-57.0,0
190,-12.0,-250.0,-60.0,0
191,-15.0,-250.0,-58.0,0
192,-18.0,-247.0,-59.0,0
193,-16.0,-247.0,-58.0,0
194,-15.0,-248.0,-57.0,0
195,-18.0,-246.0,-58.0,0
196,-15.0,-247.0,-60.0,0
197,-13.0,-249.0,-59.0,0
198,-11.0,-248.0,-57.0,0
199,-16.0,-248.0,-57.0,0
200,-16.0,-249.0,-56.0,0
201,-18.0,-251.0,-52.0,0
202,-19.0,-252.0,-45.0,0
203,-15.0,-259.0,-50.0,0
204,-16.0,-260.0,-48.0,0
205,-16.0,-261.0,-52.0,0
206,-15.0,-259.0,-52.0,0
207,-17.0,-262.0,-54.0,0
208,-20.0,-259.0,-55.0,0
209,-20.0,-253.0,-65.0,0
210,-20.0,-247.0,-70.0,0
211,-25.0,-247.0,-66.0,0
212,-27.0,-244.0,-65.0,0
213,-32.0,-241.0,-59.0,0
214,-37.0,-242.0,-56.0,0
215,-45.0,-239.0,-54.0,0
216,-56.0,-249.0,-56.0,0
217,-50.0,-239.0,-52.0,0
218,-56.0,-240.0,-48.0,0
219,-56.0,-242.0,-48.0,0
220,-56.0,-245.0,-45.0,0
221,-58.0,-243.0,-45.0,0
222,-56.0,-247.0,-42.0,0
223,-58.0,-248.0,-35.0,0
224,-54.0,-250.0,-39.0,0
225,-53.0,-255.0,-36.0,0
226,-49.0,-258.0,-41.0,0
227,-48.0,-258.0,-38.0,0
228,-40.0,-258.0,-41.0,0
229,-36.0,-257.0,-40.0,0
230,-32.0,-257.0,-42.0,0
231,-29.0,-261.0,-37.0,0
232,-25.0,-262.0,-33.0,0
233,-26.0,-267.0,-39.0,0
234,-29.0,-269.0,-42.0,0
235,-30.0,-271.0,-45.0,0
236,-33.0,-267.0,-51.0,0
237,-34.0,-274.0,-52.0,0
238,-41.0,-273.0,-49.0,0
239,-42.0,-273.0,-49.0,0
240,-43.0,-272.0,-47.0,0
241,-45.0,-271.0,-44.0,0
242,-48.0,-273.0,-39.0,0
243,-47.0,-272.0,-40.0,0
244,-49.0,-273.0,-39.0,0
245,-50.0,-267.0,-40.0,0
246,-53.0,-268.0,-45.0,0
247,-55.0,-265.0,-48.0,0
248,-54.0,-260.0,-50.0,0
249,-57.0,-257.0,-48.0,0
250,-56.0,-254.0,-46.0,0
251,-56.0,-252.0,-48.0,0
252,-48.0,-253.0,-48.0,0
253,-47.0,-248.0,-51.0,0
254,-49.0,-246.0,-50.0,0
255,-44.0,-246.0,-51.0,0
256,-45.0,-244.0,-50.0,0
257,-41.0,-246.0,-50.0,0
258,-38.0,-247.0,-47.0,0
259,-37.0,-243.0,-49.0,0
260,-37.0,-241.0,-49.0,0
261,-39.0,-241.0,-48.0,0
262,-40.0,-241.0,-48.0,0
263,-44.0,-242.0,-47.0,0
264,-46.0,-238.0,-49.0,0
265,-49.0,-237.0,-51.0,0
266,-51.0,-232.0,-55.0,0
267,-53.0,-229.0,-60.0,0
268,-55.0,-227.0,-57.0,0
269,-57.0,-227.0,-58.0,0
270,-60.0,-221.0,-59.0,0
271,-58.0,-223.0,-60.0,0
272,-57.0,-228.0,-59.0,0
273,-56.0,-227.0,-57.0,0
274,-53.0,-232.0,-57.0,0
275,-55.0,-234.0,-59.0,0
276,-48.0,-238.0,-55.0,0
277,-49.0,-238.0,-52.0,0
278,-53.0,-239.0,-51.0,0
279,-52.0,-242.0,-52.0,0
280,-51.0,-242.0,-47.0,0
281,-48.0,-241.0,-53.0,0
282,-47.0,-245.0,-50.0,0
283,-50.0,-244.0,-50.0,0
284,-48.0,-244.0,-54.0,0
285,-49.0,-242.0,-51.0,0
286,-50.0,-240.0,-49.0,0
287,-52.0,-240.0,-50.0,0
288,-53.0,-241.0,-55.0,0
289,-49.0,-240.0,-52.0,0
290,-54.0,-236.0,-54.0,0
291,-51.0,-234.0,-53.0,0
292,-50.0,-236.0,-51.0,0
293,-52.0,-236.0,-52.0,0
294,-50.0,-273.0,-62.0,0
295,-56.0,-241.0,-55.0,0
296,-61.0,-237.0,-52.0,0
297,-56.0,-244.0,-49.0,0
298,-57.0,-244.0,-45.0,0
299,-53.0,-249.0,-49.0,0
300,-52.0,-249.0,-52.0,0
301,-52.0,-252.0,-52.0,0
302,-54.0,-253.0,-48.0,0
303,-51.0,-255.0,-52.0,0
304,-48.0,-258.0,-49.0,0
305,-54.0,-255.0,-49.0,0
306,-52.0,-252.0,-47.0,0
307,-53.0,-250.0,-42.0,0
308,-53.0,-250.0,-45.0,0
309,-53.0,-249.0,-43.0,0
310,-56.0,-243.0,-40.0,0
311,-56.0,-243.0,-42.0,0
312,-60.0,-240.0,-47.0,0
313,-60.0,-240.0,-49.0,0
314,-61.0,-244.0,-53.0,0
315,-65.0,-245.0,-54.0,0
316,-61.0,-243.0,-58.0,0
317,-63.0,-243.0,-59.0,0
318,-63.0,-246.0,-64.0,0
319,-59.0,-250.0,-66.0,0
320,-55.0,-256.0,-65.0,0
321,-58.0,-255.0,-65.0,0
322,-55.0,-261.0,-66.0,0
323,-58.0,-262.0,-69.0,0
324,-57.0,-263.0,-68.0,0
325,-56.0,-265.0,-70.0,0
326,-52.0,-263.0,-75.0,0
327,-50.0,-260.0,-78.0,0
328,-47.0,-259.0,-75.0,0
329,-45.0,-257.0,-74.0,0
330,-41.0,-255.0,-72.0,0
331,-43.0,-255.0,-73.0,0
332,-48.0,-252.0,-74.0,0
333,-49.0,-255.0,-78.0,0
334,-55.0,-258.0,-75.0,0
335,-58.0,-263.0,-76.0,0
336,-61.0,-266.0,-75.0,0
337,-63.0,-277.0,-71.0,0
338,-67.0,-283.0,-68.0,0
339,-68.0,-293.0,-67.0,0
340,-65.0,-298.0,-64.0,0
341,-64.0,-304.0,-62.0,0
342,-57.0,-310.0,-64.0,0
343,-58.0,-308.0,-67.0,0
344,-58.0,-304.0,-66.0,0
345,-58.0,-301.0,-69.0,0
346,-51.0,-294.0,-68.0,0
347,-53.0,-285.0,-71.0,0
348,-51.0,-280.0,-71.0,0
349,-49.0,-268.0,-77.0,0
350,-46.0,-263.0,-78.0,0
351,-47.0,-261.0,-81.0,0
352,-46.0,-258.0,-82.0,0
353,-42.0,-263.0,-88.0,0
354,-39.0,-264.0,-87.0,0
355,-38.0,-268.0,-91.0,0
356,-41.0,-274.0,-96.0,0
357,-37.0,-281.0,-94.0,0
358,-44.0,-283.0,-96.0,0
359,-44.0,-286.0,-96.0,0
360,-46.0,-287.0,-101.0,0
361,-50.0,-292.0,-101.0,0
362,-54.0,-295.0,-97.0,0
363,-58.0,-297.0,-103.0,0
364,-59.0,-299.0,-104.0,0
365,-61.0,-303.0,-103.0,0
366,-63.0,-301.0,-103.0,0
367,-63.0,-304.0,-103.0,0
368,-63.0,-301.0,-104.0,0
369,-65.0,-301.0,-107.0,0
370,-63.0,-293.0,-106.0,0
371,-60.0,-287.0,-110.0,0
372,-58.0,-280.0,-122.0,0
373,-58.0,-268.0,-112.0,0
374,-51.0,-257.0,-119.0,0
375,-47.0,-249.0,-117.0,0
376,-46.0,-246.0,-115.0,0
377,-42.0,-240.0,-119.0,0
378,-37.0,-238.0,-110.0,0
379,-35.0,-238.0,-105.0,0
380,-32.0,-246.0,-107.0,0
381,-31.0,-243.0,-104.0,0
382,-26.0,-245.0,-106.0,0
383,-23.0,-256.0,-93.0,0
384,-29.0,-251.0,-114.0,0
385,-25.0,-257.0,-120.0,0
386,-28.0,-261.0,-125.0,0
387,-32.0,-266.0,-128.0,0
388,-28.0,-268.0,-139.0,0
389,-25.0,-270.0,-142.0,0
390,-24.0,-273.0,-148.0,0
391,-22.0,-271.0,-142.0,0
392,-15.0,-271.0,-148.0,0
393,-13.0,-268.0,-143.0,0
394,-9.0,-261.0,-138.0,0
395,-2.0,-259.0,-140.0,0
396,-1.0,-259.0,-134.0,0
397,2.0,-253.0,-134.0,0
398,5.0,-252.0,-129.0,0
399,5.0,-252.0,-128.0,0
400,5.0,-246.0,-127.0,0
401,2.0,-246.0,-130.0,0
402,7.0,-244.0,-134.0,0
403,5.0,-240.0,-127.0,0
404,4.0,-241.0,-130.0,0
405,-4.0,-241.0,-119.0,0
406,0.0,-245.0,-126.0,0
407,-3.0,-244.0,-120.0,0
408,-1.0,-245.0,-121.0,0
409,-1.0,-245.0,-123.0,0
410,8.0,-246.0,-127.0,0
411,-8.0,-240.0,-126.0,0
412,-5.0,-236.0,-125.0,0
413,0.0,-236.0,-122.0,0
414,3.0,-238.0,-122.0,0
415,9.0,-233.0,-119.0,0
416,12.0,-233.0,-115.0,0
417,13.0,-234.0,-114.0,0
418,18.0,-231.0,-114.0,0
419,19.0,-231.0,-112.0,0
420,18.0,-226.0,-113.0,0
421,13.0,-225.0,-112.0,0
422,16.0,-218.0,-109.0,0
423,16.0,-217.0,-109.0,0
424,20.0,-209.0,-104.0,0
425,23.0,-208.0,-101.0,0
426,37.0,-217.0,-103.0,0
427,19.0,-212.0,-88.0,0
428,20.0,-218.0,-84.0,0
429,21.0,-224.0,-85.0,0
430,16.0,-228.0,-86.0,0
431,13.0,-232.0,-87.0,0
432,9.0,-233.0,-93.0,0
433,10.0,-235.0,-93.0,0
434,6.0,-229.0,-91.0,0
435,4.0,-230.0,-97.0,0
436,1.0,-221.0,-100.0,0
437,-1.0,-215.0,-103.0,0
438,-3.0,-208.0,-102.0,0
439,-1.0,-202.0,-107.0,0
440,0.0,-202.0,-100.0,0
441,0.0,-197.0,-96.0,0
442,-2.0,-197.0,-94.0,0
443,-1.0,-198.0,-92.0,0
444,-5.0,-198.0,-99.0,0
445,-3.0,-197.0,-94.0,0
446,-4.0,-196.0,-96.0,0
447,-7.0,-195.0,-102.0,0
448,-6.0,-195.0,-109.0,0
449,0.0,-199.0,-108.0,0
450,0.0,-200.0,-113.0,0
451,3.0,-204.0,-110.0,0
452,5.0,-208.0,-111.0,0
453,5.0,-215.0,-112.0,0
454,11.0,-220.0,-103.0,0
455,8.0,-221.0,-109.0,0
456,7.0,-219.0,-109.0,0
457,6.0,-218.0,-107.0,0
458,2.0,-217.0,-105.0,0
459,7.0,-213.0,-106.0,0
460,8.0,-211.0,-107.0,0
461,9.0,-208.0,-107.0,0
462,11.0,-209.0,-100.0,0
463,12.0,-206.0,-101.0,0
464,15.0,-209.0,-95.0,0
465,13.0,-205.0,-95.0,0
466,17.0,-207.0,-93.0,0
467,12.0,-205.0,-90.0,0
468,12.0,-209.0,-90.0,0
469,7.0,-210.0,-89.0,0
470,16.0,-219.0,-95.0,0
471,17.0,-220.0,-87.0,0
472,20.0,-224.0,-92.0,0
473,24.0,-225.0,-87.0,0
474,27.0,-228.0,-86.0,0
475,26.0,-228.0,-84.0,0
476,27.0,-233.0,-82.0,0
477,26.0,-237.0,-83.0,0
478,29.0,-237.0,-88.0,0
479,25.0,-238.0,-85.0,0
480,22.0,-237.0,-90.0,0
481,22.0,-238.0,-95.0,0
482,20.0,-237.0,-98.0,0
483,19.0,-232.0,-100.0,0
484,22.0,-230.0,-99.0,0
485,20.0,-231.0,-103.0,0
486,17.0,-229.0,-99.0,0
487,15.0,-228.0,-102.0,0
488,14.0,-226.0,-103.0,0
489,18.0,-231.0,-100.0,0
490,19.0,-237.0,-94.0,0
491,18.0,-241.0,-98.0,0
492,20.0,-236.0,-99.0,0
493,18.0,-236.0,-100.0,0
494,16.0,-244.0,-94.0,0
495,21.0,-252.0,-94.0,0
496,18.0,-250.0,-98.0,0
497,21.0,-254.0,-98.0,0
498,18.0,-254.0,-94.0,0
499,21.0,-258.0,-94.0,0
500,22.0,-258.0,-94.0,0
501,27.0,-266.0,-89.0,0
502,32.0,-263.0,-92.0,0
503,35.0,-260.0,-97.0,0
504,36.0,-259.0,-99.0,0
505,38.0,-253.0,-101.0,0
506,39.0,-247.0,-104.0,0
507,38.0,-242.0,-107.0,0
508,34.0,-240.0,-106.0,0
509,31.0,-235.0,-102.0,0
510,31.0,-243.0,-90.0,0
511,29.0,-243.0,-85.0,0
512,30.0,-248.0,-84.0,0
513,28.0,-248.0,-79.0,0
514,26.0,-246.0,-77.0,0
515,18.0,-248.0,-79.0,0
516,17.0,-248.0,-74.0,0
517,16.0,-250.0,-72.0,0
518,20.0,-249.0,-68.0,0
519,13.0,-248.0,-66.0,0
520,8.0,-248.0,-67.0,0
521,6.0,-249.0,-61.0,0
522,7.0,-255.0,-59.0,0
523,1.0,-260.0,-58.0,0
524,1.0,-270.0,-64.0,0
525,3.0,-276.0,-67.0,0
526,9.0,-283.0,-78.0,0
527,12.0,-287.0,-90.0,0
528,12.0,-288.0,-102.0,0
529,11.0,-289.0,-107.0,0
530,10.0,-288.0,-116.0,0
531,7.0,-292.0,-113.0,0
532,3.0,-292.0,-119.0,0
533,2.0,-291.0,-122.0,0
534,-1.0,-295.0,-125.0,0
535,2.0,-295.0,-126.0,0
536,14.0,-310.0,-121.0,0
537,23.0,-318.0,-121.0,0
538,37.0,-329.0,-123.0,0
539,40.0,-336.0,-123.0,0
540,43.0,-349.0,-122.0,0
541,48.0,-359.0,-127.0,0
542,45.0,-370.0,-125.0,0
543,41.0,-376.0,-130.0,0
544,31.0,-378.0,-130.0,0
545,18.0,-371.0,-130.0,0
546,8.0,-362.0,-138.0,0
547,-5.0,-351.0,-141.0,0
548,-15.0,-335.0,-150.0,0
549,-16.0,-329.0,-152.0,0
550,-19.0,-312.0,-155.0,0
551,-20.0,-307.0,-159.0,0
552,-17.0,-296.0,-160.0,0
553,-10.0,-288.0,-165.0,0
554,-1.0,-281.0,-166.0,0
555,5.0,-273.0,-154.0,0
556,7.0,-263.0,-156.0,0
557,13.0,-258.0,-148.0,0
558,12.0,-252.0,-139.0,0
559,17.0,-246.0,-132.0,0
560,29.0,-246.0,-124.0,0
561,32.0,-244.0,-119.0,0
562,32.0,-247.0,-116.0,0
563,33.0,-245.0,-117.0,0
564,28.0,-245.0,-119.0,0
565,27.0,-245.0,-119.0,0
566,22.0,-246.0,-125.0,0
567,16.0,-244.0,-130.0,0
568,12.0,-245.0,-136.0,0
569,6.0,-246.0,-134.0,0
570,-4.0,-247.0,-137.0,0
571,-6.0,-250.0,-135.0,0
572,-13.0,-248.0,-138.0,0
573,-11.0,-248.0,-143.0,0
574,-12.0,-246.0,-136.0,0
575,-10.0,-248.0,-142.0,0
576,-10.0,-244.0,-143.0,0
577,-5.0,-245.0,-138.0,0
578,-6.0,-237.0,-138.0,0
579,-8.0,-237.0,-135.0,0
580,-8.0,-233.0,-122.0,0
581,-10.0,-233.0,-123.0,0
582,-10.0,-233.0,-118.0,0
583,-10.0,-225.0,-116.0,0
584,-12.0,-225.0,-117.0,0
585,-10.0,-222.0,-111.0,0
586,-6.0,-219.0,-110.0,0
587,-2.0,-215.0,-115.0,0
588,-2.0,-210.0,-115.0,0
589,-3.0,-205.0,-112.0,0
590,1.0,-204.0,-103.0,0
591,0.0,-205.0,-107.0,0
592,-1.0,-202.0,-101.0,0
593,-4.0,-201.0,-105.0,0
594,-5.0,-200.0,-107.0,0
595,-11.0,-201.0,-103.0,0
596,-14.0,-199.0,-103.0,0
597,-14.0,-201.0,-104.0,0
598,-15.0,-201.0,-108.0,0
599,-13.0,-202.0,-107.0,0
600,-16.0,-203.0,-109.0,0
601,-15.0,-198.0,-109.0,0
602,-15.0,-197.0,-107.0,0
603,-15.0,-194.0,-106.0,0
604,-16.0,-190.0,-102.0,0
605,-13.0,-193.0,-105.0,0
606,-15.0,-187.0,-105.0,0
607,-14.0,-186.0,-105.0,0
608,-18.0,-183.0,-108.0,0
609,-19.0,-181.0,-105.0,0
610,-16.0,-179.0,-103.0,0
611,-14.0,-159.0,-108.0,0
612,-16.0,-166.0,-107.0,0
613,-19.0,-164.0,-100.0,0
614,-15.0,-162.0,-101.0,0
615,-16.0,-161.0,-99.0,0
616,-14.0,-161.0,-99.0,0
617,-13.0,-169.0,-103.0,0
618,-12.0,-171.0,-101.0,0
619,-12.0,-173.0,-98.0,0
620,-16.0,-175.0,-97.0,0
621,-14.0,-179.0,-98.0,0
622,9.0,-164.0,-75.0,0
623,-11.0,-184.0,-101.0,0
624,-16.0,-183.0,-97.0,0
625,-15.0,-181.0,-103.0,0
626,-16.0,-182.0,-109.0,0
627,-18.0,-182.0,-107.0,0
628,-24.0,-181.0,-109.0,0
629,-26.0,-180.0,-105.0,0
630,-25.0,-181.0,-109.0,0
631,-31.0,-182.0,-109.0,0
632,-35.0,-181.0,-114.0,0
633,-36.0,-194.0,-105.0,0
634,-33.0,-203.0,-111.0,0
635,-36.0,-193.0,-114.0,0
636,-40.0,-202.0,-115.0,0
637,-44.0,-207.0,-110.0,0
638,-38.0,-217.0,-114.0,0
639,-42.0,-225.0,-118.0,0
640,-39.0,-227.0,-118.0,0
641,-39.0,-232.0,-122.0,0
642,-39.0,-235.0,-120.0,0
643,-35.0,-233.0,-119.0,0
644,-36.0,-233.0,-119.0,0
645,-32.0,-235.0,-115.0,0
646,-29.0,-236.0,-115.0,0
647,-34.0,-232.0,-112.0,0
648,-30.0,-230.0,-120.0,0
649,-33.0,-233.0,-116.0,0
650,-33.0,-237.0,-119.0,0
651,-33.0,-239.0,-120.0,0
652,-34.0,-244.0,-118.0,0
653,-37.0,-247.0,-119.0,0
654,-39.0,-246.0,-116.0,0
655,-41.0,-247.0,-118.0,0
656,-43.0,-246.0,-120.0,0
657,-43.0,-243.0,-119.0,0
658,-38.0,-241.0,-117.0,0
659,-37.0,-237.0,-121.0,0
660,-37.0,-235.0,-116.0,0
661,-37.0,-227.0,-109.0,0
662,-37.0,-227.0,-111.0,0
663,-33.0,-228.0,-107.0,0
664,-37.0,-226.0,-109.0,0
665,-35.0,-228.0,-107.0,0
666,-35.0,-226.0,-107.0,0
667,-36.0,-228.0,-109.0,0
668,-32.0,-226.0,-110.0,0
669,-31.0,-230.0,-108.0,0
670,-32.0,-228.0,-113.0,0
671,-30.0,-228.0,-114.0,0
672,-27.0,-231.0,-114.0,0
673,-26.0,-230.0,-110.0,0
674,-24.0,-231.0,-108.0,0
675,-25.0,-236.0,-108.0,0
676,-25.0,-239.0,-102.0,0
677,-26.0,-239.0,-101.0,0
678,-25.0,-246.0,-105.0,0
679,-26.0,-247.0,-96.0,0
680,-29.0,-249.0,-97.0,0
681,-31.0,-246.0,-99.0,0
682,-30.0,-247.0,-103.0,0
683,-32.0,-247.0,-101.0,0
684,-34.0,-245.0,-101.0,0
685,-37.0,-248.0,-104.0,0
686,-41.0,-248.0,-105.0,0
687,-43.0,-249.0,-107.0,0
688,-43.0,-248.0,-111.0,0
689,-45.0,-250.0,-113.0,0
690,-40.0,-252.0,-114.0,0
691,-40.0,-254.0,-114.0,0
692,-34.0,-255.0,-113.0,0
693,-32.0,-258.0,-109.0,0
694,-27.0,-259.0,-113.0,0
695,-28.0,-262.0,-110.0,0
696,-25.0,-271.0,-109.0,0
697,-21.0,-275.0,-113.0,0
698,-20.0,-282.0,-117.0,0
699,-17.0,-286.0,-115.0,0
700,-16.0,-289.0,-118.0,0
701,-16.0,-292.0,-124.0,0
702,-21.0,-289.0,-129.0,0
703,-17.0,-292.0,-136.0,0
704,-27.0,-298.0,-132.0,0
705,-31.0,-300.0,-137.0,0
706,-33.0,-305.0,-140.0,0
707,-37.0,-311.0,-140.0,0
708,-41.0,-313.0,-146.0,0
709,-42.0,-317.0,-150.0,0
710,-44.0,-323.0,-153.0,0
711,-45.0,-327.0,-157.0,0
712,-49.0,-325.0,-154.0,0
713,-47.0,-325.0,-155.0,0
714,-46.0,-324.0,-157.0,0
715,-39.0,-321.0,-153.0,0
716,-36.0,-317.0,-151.0,0
717,-31.0,-319.0,-149.0,0
718,-30.0,-315.0,-146.0,0
719,-33.0,-312.0,-149.0,0
720,-37.0,-307.0,-149.0,0
721,-41.0,-297.0,-152.0,0
722,-47.0,-295.0,-149.0,0
723,-48.0,-291.0,-149.0,0
724,-54.0,-282.0,-154.0,0
725,-51.0,-279.0,-153.0,0
726,-46.0,-275.0,-161.0,0
727,-45.0,-272.0,-160.0,0
728,-43.0,-269.0,-161.0,0
729,-40.0,-262.0,-164.0,0
730,-36.0,-262.0,-161.0,0
731,-33.0,-255.0,-159.0,0
732,-30.0,-252.0,-166.0,0
733,-21.0,-248.0,-162.0,0
734,-15.0,-247.0,-158.0,0
735,-7.0,-241.0,-158.0,0
736,2.0,-242.0,-157.0,0
737,6.0,-239.0,-152.0,0
738,9.0,-238.0,-147.0,0
739,17.0,-239.0,-147.0,0
740,15.0,-240.0,-147.0,0
741,19.0,-242.0,-142.0,0
742,19.0,-240.0,-141.0,0
743,15.0,-242.0,-145.0,0
744,13.0,-239.0,-145.0,0
745,10.0,-237.0,-148.0,0
746,4.0,-236.0,-147.0,0
747,0.0,-238.0,-147.0,0
748,-3.0,-238.0,-153.0,0
749,-5.0,-235.0,-149.0,0
750,-9.0,-233.0,-153.0,0
751,-8.0,-226.0,-152.0,0
752,-6.0,-232.0,-149.0,0
753,-7.0,-234.0,-146.0,0
754,-5.0,-232.0,-143.0,0
755,-2.0,-234.0,-139.0,0
756,-4.0,-235.0,-132.0,0
757,-4.0,-235.0,-128.0,0
758,-6.0,-239.0,-124.0,0
759,-8.0,-237.0,-124.0,0
760,-9.0,-238.0,-120.0,0
761,-3.0,-235.0,-124.0,0
762,-2.0,-234.0,-125.0,0
763,2.0,-232.0,-126.0,0
764,4.0,-231.0,-129.0,0
765,9.0,-228.0,-127.0,0
766,9.0,-226.0,-127.0,0
767,9.0,-224.0,-124.0,0
768,11.0,-222.0,-122.0,0
769,14.0,-223.0,-124.0,0
770,11.0,-220.0,-118.0,0
771,7.0,-221.0,-115.0,0
772,6.0,-215.0,-115.0,0
773,8.0,-214.0,-114.0,0
774,5.0,-212.0,-111.0,0
775,2.0,-207.0,-114.0,0
776,4.0,-205.0,-116.0,0
777,6.0,-200.0,-113.0,0
778,5.0,-200.0,-116.0,0
779,2.0,-197.0,-113.0,0
780,2.0,-194.0,-111.0,0
781,5.0,-192.0,-109.0,0
782,4.0,-194.0,-104.0,0
783,3.0,-197.0,-101.0,0
784,4.0,-198.0,-101.0,0
785,3.0,-202.0,-100.0,0
786,2.0,-202.0,-99.0,0
787,0.0,-196.0,-99.0,0
788,-4.0,-194.0,-105.0,0
789,-4.0,-185.0,-108.0,0
790,-6.0,-181.0,-110.0,0
791,-6.0,-179.0,-107.0,0
792,-9.0,-178.0,-103.0,0
793,-8.0,-173.0,-107.0,0
794,-8.0,-172.0,-108.0,0
795,-7.0,-175.0,-106.0,0
796,-5.0,-174.0,-107.0,0
797,-6.0,-181.0,-105.0,0
798,-5.0,-181.0,-108.0,0
799,-7.0,-183.0,-106.0,0
800,-3.0,-185.0,-104.0,0
801,-3.0,-184.0,-103.0,0
802,-2.0,-183.0,-99.0,0
803,-1.0,-185.0,-101.0,0
804,5.0,-185.0,-106.0,0
805,7.0,-184.0,-104.0,0
806,16.0,-187.0,-101.0,0
807,21.0,-190.0,-107.0,0
808,22.0,-191.0,-104.0,0
809,25.0,-189.0,-108.0,0
810,29.0,-189.0,-111.0,0
811,29.0,-194.0,-114.0,0
812,30.0,-188.0,-114.0,0
813,31.0,-195.0,-114.0,0
814,35.0,-200.0,-110.0,0
815,33.0,-203.0,-111.0,0
816,30.0,-207.0,-111.0,0
817,27.0,-209.0,-110.0,0
818,26.0,-212.0,-105.0,0
819,23.0,-213.0,-118.0,0
820,20.0,-209.0,-117.0,0
821,24.0,-214.0,-121.0,0
822,19.0,-214.0,-119.0,0
823,20.0,-218.0,-117.0,0
824,15.0,-219.0,-117.0,0
825,12.0,-224.0,-116.0,0
826,10.0,-232.0,-113.0,0
827,7.0,-236.0,-117.0,0
828,4.0,-241.0,-116.0,0
829,2.0,-247.0,-108.0,0
830,0.0,-249.0,-113.0,0
831,-1.0,-248.0,-108.0,0
832,0.0,-246.0,-110.0,0
833,2.0,-246.0,-106.0,0
834,6.0,-245.0,-104.0,0
835,5.0,-244.0,-105.0,0
836,5.0,-238.0,-101.0,0
837,7.0,-239.0,-100.0,0
838,10.0,-237.0,-102.0,0
839,15.0,-226.0,-127.0,0
840,14.0,-233.0,-97.0,0
841,16.0,-233.0,-96.0,0
842,17.0,-235.0,-94.0,0
843,20.0,-238.0,-95.0,0
844,21.0,-238.0,-101.0,0
845,22.0,-240.0,-97.0,0
846,24.0,-244.0,-97.0,0
847,24.0,-244.0,-97.0,0
848,22.0,-248.0,-96.0,0
849,16.0,-246.0,-96.0,0
850,12.0,-234.0,-103.0,0
851,17.0,-245.0,-93.0,0
852,15.0,-244.0,-96.0,0
853,13.0,-243.0,-94.0,0
854,13.0,-239.0,-96.0,0
855,15.0,-244.0,-97.0,0
856,15.0,-239.0,-101.0,0
857,14.0,-243.0,-101.0,0
858,13.0,-246.0,-101.0,0
859,11.0,-241.0,-103.0,0
860,11.0,-240.0,-109.0,0
861,16.0,-236.0,-105.0,0
862,10.0,-248.0,-104.0,0
863,8.0,-249.0,-103.0,0
864,10.0,-254.0,-98.0,0
865,7.0,-254.0,-91.0,0
866,11.0,-255.0,-88.0,0
867,13.0,-266.0,-92.0,0
868,13.0,-264.0,-89.0,0
869,15.0,-260.0,-87.0,0
870,12.0,-261.0,-87.0,0
871,10.0,-253.0,-90.0,0
872,13.0,-254.0,-92.0,0
873,16.0,-253.0,-87.0,0
874,18.0,-251.0,-88.0,0
875,19.0,-252.0,-88.0,0
876,19.0,-249.0,-86.0,0
877,25.0,-253.0,-88.0,0
878,25.0,-255.0,-92.0,0
879,21.0,-254.0,-93.0,0
880,25.0,-254.0,-91.0,0
881,24.0,-255.0,-96.0,0
882,23.0,-253.0,-98.0,0
883,19.0,-257.0,-95.0,0
884,16.0,-259.0,-98.0,0
885,10.0,-262.0,-99.0,0
886,6.0,-259.0,-104.0,0
887,3.0,-265.0,-107.0,0
888,5.0,-269.0,-108.0,0
889,2.0,-269.0,-107.0,0
890,5.0,-269.0,-115.0,0
891,5.0,-277.0,-114.0,0
892,8.0,-281.0,-116.0,0
893,10.0,-288.0,-120.0,0
894,14.0,-299.0,-120.0,0
895,11.0,-308.0,-119.0,0
896,12.0,-314.0,-121.0,0
897,9.0,-326.0,-118.0,0
898,9.0,-333.0,-117.0,0
899,7.0,-343.0,-120.0,0
900,8.0,-346.0,-118.0,0
901,5.0,-352.0,-123.0,0
902,4.0,-353.0,-124.0,0
903,-1.0,-352.0,-130.0,0
904,4.0,-352.0,-126.0,0
905,5.0,-343.0,-130.0,0
906,8.0,-333.0,-130.0,0
907,10.0,-331.0,-133.0,0
908,15.0,-323.0,-128.0,0
909,15.0,-312.0,-134.0,0
910,16.0,-305.0,-137.0,0
911,18.0,-297.0,-140.0,0
912,18.0,-290.0,-139.0,0
913,18.0,-285.0,-134.0,0
914,14.0,-277.0,-136.0,0
915,19.0,-273.0,-139.0,0
916,22.0,-278.0,-137.0,0
917,28.0,-283.0,-134.0,0
918,30.0,-287.0,-134.0,0
919,30.0,-295.0,-129.0,0
920,35.0,-297.0,-132.0,0
921,32.0,-303.0,-134.0,0
922,32.0,-305.0,-136.0,0
923,35.0,-303.0,-136.0,0
924,31.0,-301.0,-140.0,0
925,32.0,-296.0,-140.0,0
926,34.0,-287.0,-137.0,0
927,39.0,-280.0,-138.0,0
928,39.0,-268.0,-140.0,0
929,42.0,-260.0,-135.0,0
930,44.0,-248.0,-138.0,0
931,41.0,-237.0,-132.0,0
932,42.0,-226.0,-125.0,0
933,43.0,-218.0,-122.0,0
934,41.0,-212.0,-121.0,0
935,37.0,-210.0,-119.0,0
936,34.0,-206.0,-124.0,0
937,30.0,-202.0,-122.0,0
938,26.0,-206.0,-127.0,0
939,25.0,-206.0,-132.0,0
940,18.0,-214.0,-139.0,0
941,12.0,-216.0,-140.0,0
942,9.0,-220.0,-136.0,0
943,3.0,-227.0,-141.0,0
944,-5.0,-231.0,-142.0,0
945,-9.0,-237.0,-144.0,0
946,-12.0,-240.0,-142.0,0
947,-16.0,-242.0,-140.0,0
948,-15.0,-246.0,-136.0,0
949,-16.0,-244.0,-138.0,0
950,-16.0,-243.0,-134.0,0
951,-14.0,-244.0,-131.0,0
952,-15.0,-243.0,-127.0,0
953,-13.0,-235.0,-130.0,0
954,-7.0,-237.0,-130.0,0
955,-8.0,-230.0,-126.0,0
956,-4.0,-226.0,-129.0,0
957,0.0,-216.0,-123.0,0
958,4.0,-215.0,-121.0,0
959,6.0,-207.0,-112.0,0
960,11.0,-205.0,-113.0,0
961,9.0,-205.0,-106.0,0
962,13.0,-202.0,-105.0,0
963,30.0,-191.0,-118.0,0
964,16.0,-199.0,-103.0,0
965,13.0,-202.0,-100.0,0
966,12.0,-198.0,-106.0,0
967,10.0,-198.0,-105.0,0
968,10.0,-197.0,-104.0,0
969,11.0,-197.0,-107.0,0
970,11.0,-197.0,-105.0,0
971,12.0,-200.0,-105.0,0
972,3.0,-198.0,-115.0,0
973,4.0,-197.0,-94.0,0
974,2.0,-201.0,-98.0,0
975,-4.0,-198.0,-94.0,0
976,-8.0,-202.0,-97.0,0
977,-12.0,-199.0,-94.0,0
978,-10.0,-201.0,-94.0,0
979,-15.0,-199.0,-96.0,0
980,-19.0,-200.0,-95.0,0
981,-21.0,-198.0,-99.0,0
982,-17.0,-200.0,-100.0,0
983,-18.0,-195.0,-108.0,0
984,-21.0,-193.0,-104.0,0
985,-21.0,-187.0,-102.0,0
986,-16.0,-185.0,-102.0,0
987,-12.0,-181.0,-103.0,0
988,-11.0,-181.0,-102.0,0
989,-9.0,-176.0,-102.0,0
990,-5.0,-171.0,-99.0,0
991,0.0,-167.0,-102.0,0
992,-3.0,-166.0,-96.0,0
993,-1.0,-165.0,-99.0,0
994,0.0,-171.0,-102.0,0
995,10.0,-165.0,-116.0,0
996,-1.0,-190.0,-107.0,0
997,-4.0,-174.0,-99.0,0
998,-11.0,-180.0,-99.0,0
999,-12.0,-185.0,-96.0,0
1000,-13.0,-185.0,-96.0,0
1001,-15.0,-186.0,-100.0,0
1002,-16.0,-192.0,-99.0,0
1003,-23.0,-197.0,-103.0,0
1004,-23.0,-206.0,-98.0,0
1005,-29.0,-209.0,-94.0,0
1006,-29.0,-213.0,-96.0,0
1007,-31.0,-218.0,-95.0,0
1008,-28.0,-227.0,-98.0,0
1009,-31.0,-221.0,-100.0,0
1010,-32.0,-220.0,-102.0,0
1011,-33.0,-220.0,-109.0,0
1012,-33.0,-226.0,-117.0,0
1013,-37.0,-219.0,-117.0,0
1014,-37.0,-217.0,-120.0,0
1015,-36.0,-216.0,-124.0,0
1016,-43.0,-215.0,-121.0,0
1017,-41.0,-216.0,-122.0,0
1018,-40.0,-223.0,-117.0,0
1019,-42.0,-220.0,-117.0,0
1020,-39.0,-223.0,-116.0,0
1021,-36.0,-233.0,-112.0,0
1022,-30.0,-236.0,-113.0,0
1023,-28.0,-240.0,-107.0,0
1024,-28.0,-242.0,-107.0,0
1025,-26.0,-249.0,-113.0,0
1026,-20.0,-249.0,-110.0,0
1027,-23.0,-247.0,-111.0,0
1028,-23.0,-251.0,-111.0,0
1029,-25.0,-248.0,-108.0,0
1030,-28.0,-254.0,-107.0,0
1031,-36.0,-247.0,-104.0,0
1032,-43.0,-249.0,-105.0,0
1033,-43.0,-249.0,-107.0,0
1034,-47.0,-251.0,-109.0,0
1035,-47.0,-249.0,-108.0,0
1036,-46.0,-244.0,-108.0,0
1037,-46.0,-244.0,-110.0,0
1038,-42.0,-241.0,-105.0,0
1039,-41.0,-236.0,-110.0,0
1040,-37.0,-228.0,-104.0,0
1041,-35.0,-229.0,-102.0,0
1042,-30.0,-228.0,-99.0,0
1043,-30.0,-226.0,-93.0,0
1044,-28.0,-227.0,-91.0,0
1045,-24.0,-227.0,-92.0,0
1046,-21.0,-233.0,-90.0,0
1047,-20.0,-238.0,-87.0,0
1048,-22.0,-235.0,-85.0,0
1049,-22.0,-236.0,-85.0,0
1050,-24.0,-230.0,-89.0,0
1051,-23.0,-246.0,-84.0,0
1052,-29.0,-247.0,-89.0,0
1053,-30.0,-252.0,-92.0,0
1054,-36.0,-252.0,-95.0,0
1055,-34.0,-255.0,-93.0,0
1056,-40.0,-254.0,-98.0,0
1057,-40.0,-256.0,-102.0,0
1058,-40.0,-254.0,-96.0,0
1059,-39.0,-255.0,-101.0,0
1060,-40.0,-256.0,-104.0,0
1061,-30.0,-269.0,-105.0,0
1062,-43.0,-251.0,-101.0,0
1063,-38.0,-242.0,-109.0,0
1064,-31.0,-258.0,-100.0,0
1065,-34.0,-263.0,-99.0,0
1066,-35.0,-255.0,-94.0,0
1067,-27.0,-260.0,-89.0,0
1068,-26.0,-264.0,-87.0,0
1069,-22.0,-276.0,-98.0,0
1070,-29.0,-271.0,-98.0,0
1071,-28.0,-266.0,-98.0,0
1072,-27.0,-270.0,-106.0,0
1073,-24.0,-276.0,-118.0,0
1074,-27.0,-273.0,-123.0,0
1075,-31.0,-266.0,-129.0,0
1076,-30.0,-271.0,-139.0,0
1077,-32.0,-270.0,-142.0,0
1078,-35.0,-278.0,-149.0,0
1079,-33.0,-287.0,-154.0,0
1080,-39.0,-292.0,-150.0,0
1081,-42.0,-305.0,-150.0,0
1082,-51.0,-317.0,-148.0,0
1083,-54.0,-327.0,-149.0,0
1084,-76.0,-370.0,-156.0,0
1085,-63.0,-344.0,-169.0,0
1086,-68.0,-348.0,-170.0,0
1087,-65.0,-357.0,-176.0,0
1088,-61.0,-362.0,-171.0,0
1089,-52.0,-370.0,-176.0,0
1090,-51.0,-372.0,-175.0,0
1091,-45.0,-372.0,-174.0,0
1092,-43.0,-374.0,-173.0,0
1093,-41.0,-376.0,-172.0,0
1094,-43.0,-362.0,-178.0,0
1095,-40.0,-353.0,-178.0,0
1096,-33.0,-341.0,-179.0,0
1097,-28.0,-325.0,-181.0,0
1098,-24.0,-312.0,-184.0,0
1099,-22.0,-307.0,-169.0,0
1100,-15.0,-285.0,-178.0,0
1101,-9.0,-275.0,-176.0,0
1102,-6.0,-265.0,-179.0,0
1103,-6.0,-252.0,-171.0,0
1104,-3.0,-249.0,-171.0,0
1105,-6.0,-240.0,-167.0,0
1106,-2.0,-235.0,-166.0,0
1107,-1.0,-234.0,-166.0,0
1108,-1.0,-233.0,-168.0,0
1109,2.0,-229.0,-163.0,0
1110,2.0,-232.0,-163.0,0
1111,0.0,-231.0,-165.0,0
1112,1.0,-228.0,-166.0,0
1113,1.0,-231.0,-168.0,0
1114,0.0,-227.0,-168.0,0
1115,-1.0,-230.0,-165.0,0
1116,-2.0,-227.0,-168.0,0
1117,1.0,-227.0,-161.0,0
1118,3.0,-229.0,-158.0,0
1119,2.0,-227.0,-159.0,0
1120,-1.0,-227.0,-155.0,0
1121,2.0,-227.0,-150.0,0
1122,-1.0,-224.0,-148.0,0
1123,-1.0,-224.0,-152.0,0
1124,-6.0,-220.0,-152.0,0
1125,-9.0,-217.0,-153.0,0
1126,-12.0,-213.0,-157.0,0
1127,-14.0,-209.0,-150.0,0
1128,-15.0,-206.0,-155.0,0
1129,-15.0,-201.0,-154.0,0
1130,-14.0,-201.0,-147.0,0
1131,-13.0,-201.0,-149.0,0
1132,-5.0,-209.0,-137.0,0
1133,-8.0,-200.0,-133.0,0
1134,-2.0,-198.0,-124.0,0
1135,0.0,-200.0,-122.0,0
1136,-2.0,-203.0,-120.0,0
1137,0.0,-199.0,-119.0,0
1138,-2.0,-198.0,-119.0,0
1139,-3.0,-195.0,-116.0,0
1140,-4.0,-193.0,-118.0,0
1141,1.0,-190.0,-117.0,0
1142,0.0,-188.0,-116.0,0
1143,2.0,-187.0,-112.0,0
1144,2.0,-186.0,-107.0,0
1145,-3.0,-182.0,-102.0,0
1146,0.0,-181.0,-106.0,0
1147,-3.0,-173.0,-103.0,0
1148,1.0,-169.0,-107.0,0
1149,6.0,-164.0,-107.0,0
1150,7.0,-153.0,-111.0,0
1151,10.0,-148.0,-107.0,0
1152,12.0,-145.0,-107.0,0
1153,20.0,-147.0,-110.0,0
1154,20.0,-148.0,-105.0,0
1155,22.0,-150.0,-107.0,0
1156,27.0,-158.0,-105.0,0
1157,30.0,-165.0,-104.0,0
1158,27.0,-167.0,-105.0,0
1159,22.0,-174.0,-101.0,0
1160,20.0,-176.0,-102.0,0
1161,8.0,-180.0,-101.0,0
1162,0.0,-184.0,-105.0,0
1163,-2.0,-182.0,-114.0,0
1164,-2.0,-184.0,-116.0,0
1165,-2.0,-183.0,-118.0,0
1166,0.0,-181.0,-120.0,0
1167,3.0,-181.0,-122.0,0
1168,6.0,-180.0,-122.0,0
1169,10.0,-183.0,-118.0,0
1170,10.0,-185.0,-113.0,0
1171,9.0,-189.0,-108.0,0
1172,9.0,-191.0,-104.0,0
1173,12.0,-193.0,-105.0,0
1174,14.0,-196.0,-106.0,0
1175,16.0,-200.0,-102.0,0
1176,15.0,-205.0,-109.0,0
1177,14.0,-203.0,-111.0,0
1178,12.0,-209.0,-111.0,0
1179,8.0,-205.0,-116.0,0
1180,8.0,-208.0,-114.0,0
1181,9.0,-211.0,-105.0,0
1182,7.0,-211.0,-111.0,0
1183,6.0,-215.0,-112.0,0
1184,6.0,-221.0,-108.0,0
1185,0.0,-219.0,-108.0,0
1186,-1.0,-221.0,-106.0,0
1187,-3.0,-225.0,-113.0,0
1188,0.0,-230.0,-114.0,0
1189,0.0,-230.0,-117.0,0
1190,4.0,-236.0,-120.0,0
1191,3.0,-232.0,-119.0,0
1192,3.0,-235.0,-117.0,0
1193,7.0,-240.0,-118.0,0
1194,9.0,-244.0,-111.0,0
1195,14.0,-247.0,-113.0,0
1196,10.0,-249.0,-106.0,0
1197,8.0,-246.0,-102.0,0
1198,7.0,-242.0,-107.0,0
1199,9.0,-241.0,-109.0,0
1200,13.0,-235.0,-112.0,0
1201,9.0,-235.0,-113.0,0
1202,10.0,-238.0,-113.0,0
1203,8.0,-237.0,-109.0,0
1204,14.0,-239.0,-111.0,0
1205,11.0,-237.0,-112.0,0
1206,15.0,-240.0,-116.0,0
1207,14.0,-241.0,-118.0,0
1208,15.0,-243.0,-122.0,0
1209,19.0,-242.0,-121.0,0
1210,24.0,-243.0,-125.0,0
1211,25.0,-246.0,-122.0,0
1212,33.0,-248.0,-122.0,0
1213,30.0,-249.0,-120.0,0
1214,34.0,-253.0,-119.0,0
1215,34.0,-253.0,-116.0,0
1216,34.0,-257.0,-116.0,0
1217,37.0,-259.0,-110.0,0
1218,33.0,-260.0,-111.0,0
1219,27.0,-259.0,-108.0,0
1220,27.0,-256.0,-103.0,0
1221,25.0,-257.0,-101.0,0
1222,18.0,-253.0,-97.0,0
1223,24.0,-247.0,-96.0,0
1224,22.0,-244.0,-98.0,0
1225,16.0,-240.0,-102.0,0
1226,13.0,-238.0,-98.0,0
1227,17.0,-241.0,-100.0,0
1228,20.0,-243.0,-99.0,0
1229,18.0,-245.0,-97.0,0
1230,26.0,-244.0,-101.0,0
1231,24.0,-246.0,-99.0,0
1232,20.0,-247.0,-98.0,0
1233,20.0,-249.0,-98.0,0
1234,20.0,-250.0,-100.0,0
1235,22.0,-253.0,-106.0,0
1236,20.0,-252.0,-104.0,0
1237,17.0,-257.0,-105.0,0
1238,12.0,-258.0,-105.0,0
1239,7.0,-254.0,-108.0,0
1240,5.0,-258.0,-111.0,0
1241,-4.0,-256.0,-108.0,0
1242,-6.0,-262.0,-109.0,0
1243,-8.0,-263.0,-110.0,0
1244,-6.0,-264.0,-110.0,0
1245,-7.0,-266.0,-115.0,0
1246,-6.0,-269.0,-117.0,0
1247,-1.0,-273.0,-116.0,0
1248,4.0,-276.0,-111.0,0
1249,6.0,-277.0,-116.0,0
1250,12.0,-282.0,-118.0,0
1251,14.0,-282.0,-121.0,0
1252,12.0,-285.0,-127.0,0
1253,17.0,-287.0,-136.0,0
1254,20.0,-289.0,-140.0,0
1255,24.0,-288.0,-142.0,0
1256,32.0,-295.0,-139.0,0
1257,34.0,-304.0,-140.0,0
1258,37.0,-311.0,-130.0,0
1259,30.0,-317.0,-124.0,0
1260,22.0,-324.0,-122.0,0
1261,14.0,-332.0,-120.0,0
1262,6.0,-331.0,-120.0,0
1263,4.0,-333.0,-125.0,0
1264,1.0,-333.0,-131.0,0
1265,4.0,-332.0,-142.0,0
1266,8.0,-328.0,-146.0,0
1267,13.0,-324.0,-153.0,0
1268,14.0,-319.0,-158.0,0
1269,12.0,-313.0,-161.0,0
1270,11.0,-311.0,-163.0,0
1271,17.0,-310.0,-162.0,0
1272,17.0,-308.0,-160.0,0
1273,18.0,-310.0,-157.0,0
1274,23.0,-311.0,-152.0,0
1275,37.0,-316.0,-149.0,0
1276,35.0,-314.0,-145.0,0
1277,36.0,-311.0,-140.0,0
1278,34.0,-312.0,-137.0,0
1279,32.0,-308.0,-135.0,0
1280,28.0,-298.0,-138.0,0
1281,21.0,-289.0,-144.0,0
1282,21.0,-278.0,-145.0,0
1283,19.0,-272.0,-146.0,0
1284,16.0,-259.0,-145.0,0
1285,17.0,-248.0,-142.0,0
1286,14.0,-243.0,-140.0,0
1287,9.0,-238.0,-137.0,0
1288,12.0,-236.0,-141.0,0
1289,10.0,-233.0,-143.0,0
1290,7.0,-233.0,-146.0,0
1291,10.0,-233.0,-141.0,0
1292,6.0,-234.0,-148.0,0
1293,9.0,-234.0,-150.0,0
1294,9.0,-232.0,-148.0,0
1295,5.0,-230.0,-148.0,0
1296,5.0,-229.0,-147.0,0
1297,10.0,-227.0,-144.0,0
1298,11.0,-224.0,-142.0,0
1299,11.0,-217.0,-137.0,0
1300,14.0,-216.0,-130.0,0
1301,16.0,-212.0,-125.0,0
1302,16.0,-210.0,-124.0,0
1303,15.0,-208.0,-126.0,0
1304,14.0,-205.0,-128.0,0
1305,15.0,-200.0,-118.0,0
1306,13.0,-206.0,-122.0,0
1307,13.0,-207.0,-120.0,0
1308,11.0,-205.0,-123.0,0
1309,10.0,-208.0,-121.0,0
1310,7.0,-208.0,-121.0,0
1311,9.0,-205.0,-120.0,0
1312,3.0,-202.0,-117.0,0
1313,-1.0,-204.0,-118.0,0
1314,-3.0,-201.0,-113.0,0
1315,-6.0,-211.0,-131.0,0
1316,-6.0,-199.0,-111.0,0
1317,-9.0,-196.0,-108.0,0
1318,-9.0,-196.0,-109.0,0
1319,-8.0,-190.0,-111.0,0
1320,-10.0,-188.0,-102.0,0
1321,-13.0,-183.0,-103.0,0
1322,-14.0,-182.0,-101.0,0
1323,-14.0,-179.0,-100.0,0
1324,-12.0,-179.0,-102.0,0
1325,-9.0,-177.0,-99.0,0
1326,-9.0,-178.0,-100.0,0
1327,-11.0,-178.0,-99.0,0
1328,-9.0,-180.0,-97.0,0
1329,-10.0,-178.0,-100.0,0
1330,-14.0,-175.0,-102.0,0
1331,-14.0,-180.0,-98.0,0
1332,-13.0,-175.0,-104.0,0
1333,-13.0,-173.0,-100.0,0
1334,-11.0,-175.0,-101.0,0
1335,-11.0,-171.0,-97.0,0
1336,-12.0,-176.0,-103.0,0
1337,-12.0,-170.0,-92.0,0
1338,-5.0,-170.0,-98.0,0
1339,0.0,-172.0,-96.0,0
1340,-5.0,-170.0,-101.0,0
1341,-10.0,-169.0,-101.0,0
1342,-4.0,-172.0,-98.0,0
1343,-10.0,-172.0,-97.0,0
1344,-5.0,-173.0,-100.0,0
1345,-11.0,-176.0,-94.0,0
1346,-13.0,-180.0,-95.0,0
1347,-16.0,-184.0,-93.0,0
1348,-16.0,-188.0,-92.0,0
1349,-19.0,-191.0,-96.0,0
1350,-20.0,-193.0,-97.0,0
1351,-26.0,-202.0,-89.0,0
1352,-26.0,-203.0,-91.0,0
1353,-28.0,-209.0,-91.0,0
1354,-27.0,-214.0,-93.0,0
1355,-30.0,-217.0,-93.0,0
1356,-32.0,-219.0,-99.0,0
1357,-34.0,-223.0,-109.0,0
1358,-36.0,-224.0,-111.0,0
1359,-36.0,-225.0,-117.0,0
1360,-31.0,-231.0,-122.0,0
1361,-31.0,-230.0,-123.0,0
1362,-30.0,-234.0,-122.0,0
1363,-29.0,-239.0,-122.0,0
1364,-29.0,-243.0,-120.0,0
1365,-27.0,-244.0,-127.0,0
1366,-29.0,-244.0,-118.0,0
1367,-26.0,-246.0,-119.0,0
1368,-22.0,-249.0,-115.0,0
1369,-21.0,-248.0,-116.0,0
1370,-22.0,-248.0,-119.0,0
1371,-20.0,-246.0,-115.0,0
1372,-22.0,-245.0,-115.0,0
1373,-22.0,-247.0,-114.0,0
1374,-24.0,-243.0,-115.0,0
1375,-24.0,-241.0,-111.0,0
1376,-28.0,-236.0,-112.0,0
1377,-26.0,-239.0,-111.0,0
1378,-30.0,-231.0,-107.0,0
1379,-27.0,-231.0,-107.0,0
1380,-30.0,-227.0,-108.0,0
1381,-31.0,-227.0,-110.0,0
1382,-31.0,-226.0,-103.0,0
1383,-33.0,-222.0,-100.0,0
1384,-35.0,-224.0,-101.0,0
1385,-35.0,-222.0,-104.0,0
1386,-35.0,-223.0,-102.0,0
1387,-37.0,-221.0,-102.0,0
1388,-42.0,-222.0,-103.0,0
1389,-41.0,-223.0,-99.0,0
1390,-39.0,-223.0,-105.0,0
1391,-41.0,-225.0,-101.0,0
1392,-37.0,-225.0,-108.0,0
1393,-39.0,-227.0,-107.0,0
1394,-36.0,-229.0,-112.0,0
1395,-35.0,-236.0,-116.0,0
1396,-33.0,-236.0,-116.0,0
1397,-29.0,-239.0,-113.0,0
1398,-26.0,-243.0,-111.0,0
1399,-27.0,-245.0,-103.0,0
1400,-30.0,-246.0,-96.0,0
1401,-31.0,-248.0,-93.0,0
1402,-30.0,-250.0,-89.0,0
1403,-31.0,-252.0,-88.0,0
1404,-28.0,-254.0,-91.0,0
1405,-27.0,-255.0,-90.0,0
1406,-30.0,-250.0,-90.0,0
1407,-32.0,-252.0,-89.0,0
1408,-31.0,-254.0,-89.0,0
1409,-35.0,-249.0,-94.0,0
1410,-36.0,-248.0,-94.0,0
1411,-39.0,-247.0,-96.0,0
1412,-37.0,-245.0,-100.0,0
1413,-33.0,-244.0,-101.0,0
1414,-28.0,-246.0,-101.0,0
1415,-23.0,-244.0,-97.0,0
1416,-23.0,-243.0,-100.0,0
1417,-24.0,-246.0,-97.0,0
1418,-23.0,-246.0,-95.0,0
1419,-22.0,-251.0,-87.0,0
1420,-22.0,-258.0,-84.0,0
1421,-21.0,-268.0,-83.0,0
1422,-19.0,-271.0,-79.0,0
1423,-16.0,-276.0,-82.0,0
1424,-17.0,-277.0,-88.0,0
1425,-17.0,-280.0,-88.0,0
1426,-16.0,-279.0,-93.0,0
1427,-12.0,-281.0,-107.0,0
1428,-14.0,-277.0,-117.0,0
1429,-11.0,-274.0,-125.0,0
1430,-12.0,-277.0,-130.0,0
1431,-9.0,-280.0,-130.0,0
1432,-15.0,-284.0,-139.0,0
1433,-16.0,-290.0,-140.0,0
1434,-16.0,-306.0,-141.0,0
1435,-18.0,-318.0,-140.0,0
1436,-22.0,-326.0,-142.0,0
1437,-24.0,-337.0,-141.0,0
1438,-29.0,-348.0,-140.0,0
1439,-31.0,-351.0,-141.0,0
1440,-38.0,-354.0,-148.0,0
1441,-39.0,-353.0,-144.0,0
1442,-36.0,-350.0,-145.0,0
1443,-42.0,-345.0,-147.0,0
1444,-49.0,-346.0,-146.0,0
1445,-52.0,-350.0,-148.0,0
1446,-63.0,-349.0,-152.0,0
1447,-64.0,-351.0,-159.0,0
1448,-66.0,-353.0,-169.0,0
1449,-72.0,-348.0,-174.0,0
1450,-75.0,-349.0,-177.0,0
1451,-73.0,-342.0,-175.0,0
1452,-71.0,-331.0,-170.0,0
1453,-64.0,-324.0,-161.0,0
1454,-56.0,-317.0,-159.0,0
1455,-48.0,-308.0,-154.0,0
1456,-39.0,-298.0,-153.0,0
1457,-37.0,-287.0,-156.0,0
1458,-29.0,-275.0,-152.0,0
1459,-25.0,-264.0,-154.0,0
1460,-19.0,-249.0,-154.0,0
1461,-14.0,-246.0,-151.0,0
1462,-15.0,-234.0,-147.0,0
1463,-15.0,-225.0,-148.0,0
1464,-9.0,-218.0,-144.0,0
1465,-11.0,-216.0,-140.0,0
1466,-6.0,-213.0,-138.0,0
1467,-6.0,-212.0,-142.0,0
1468,-8.0,-212.0,-143.0,0
1469,-6.0,-214.0,-150.0,0
1470,-6.0,-218.0,-155.0,0
1471,-5.0,-220.0,-161.0,0
1472,-7.0,-224.0,-161.0,0
1473,-8.0,-224.0,-162.0,0
1474,-5.0,-228.0,-163.0,0
1475,-7.0,-228.0,-161.0,0
1476,-7.0,-228.0,-160.0,0
1477,-10.0,-226.0,-158.0,0
1478,-12.0,-226.0,-156.0,0
1479,-4.0,-223.0,-149.0,0
1480,-16.0,-223.0,-150.0,0
1481,-16.0,-221.0,-150.0,0
1482,-16.0,-221.0,-144.0,0
1483,-16.0,-221.0,-143.0,0
1484,-14.0,-222.0,-143.0,0
1485,-16.0,-222.0,-140.0,0
1486,-15.0,-219.0,-139.0,0
1487,-15.0,-218.0,-142.0,0
1488,-13.0,-218.0,-138.0,0
1489,-13.0,-216.0,-132.0,0
1490,-8.0,-214.0,-129.0,0
1491,-12.0,-209.0,-126.0,0
1492,-11.0,-207.0,-127.0,0
1493,-9.0,-210.0,-122.0,0
1494,-10.0,-202.0,-123.0,0
1495,-8.0,-202.0,-123.0,0
1496,-5.0,-199.0,-119.0,0
1497,-1.0,-199.0,-120.0,0
1498,-4.0,-195.0,-117.0,0
1499,-4.0,-190.0,-112.0,0
1500,-3.0,-188.0,-105.0,0
1501,-5.0,-187.0,-104.0,0
1502,-3.0,-185.0,-98.0,0
1503,-4.0,-184.0,-94.0,0
1504,0.0,-185.0,-99.0,0
1505,2.0,-182.0,-101.0,0
1506,2.0,-176.0,-97.0,0
1507,0.0,-175.0,-94.0,0
1508,3.0,-172.0,-90.0,0
1509,3.0,-171.0,-98.0,0
1510,5.0,-174.0,-95.0,0
1511,4.0,-175.0,-98.0,0
1512,4.0,-179.0,-106.0,0
1513,4.0,-182.0,-101.0,0
1514,7.0,-184.0,-97.0,0
1515,6.0,-184.0,-94.0,0
1516,7.0,-186.0,-93.0,0
1517,11.0,-190.0,-93.0,0
1518,12.0,-187.0,-92.0,0
1519,12.0,-193.0,-91.0,0
1520,12.0,-192.0,-88.0,0
1521,16.0,-194.0,-89.0,0
1522,19.0,-195.0,-88.0,0
1523,19.0,-196.0,-93.0,0
1524,14.0,-193.0,-105.0,0
1525,11.0,-190.0,-113.0,0
1526,9.0,-189.0,-124.0,0
1527,6.0,-184.0,-123.0,0
1528,3.0,-183.0,-124.0,0
1529,-1.0,-182.0,-120.0,0
1530,1.0,-186.0,-117.0,0
1531,2.0,-190.0,-117.0,0
1532,5.0,-194.0,-115.0,0
1533,6.0,-200.0,-110.0,0
1534,11.0,-206.0,-103.0,0
1535,11.0,-207.0,-97.0,0
1536,10.0,-209.0,-94.0,0
1537,17.0,-211.0,-95.0,0
1538,19.0,-211.0,-95.0,0
1539,15.0,-211.0,-97.0,0
1540,18.0,-210.0,-100.0,0
1541,13.0,-205.0,-107.0,0
1542,11.0,-202.0,-101.0,0
1543,8.0,-206.0,-105.0,0
1544,7.0,-205.0,-108.0,0
1545,7.0,-212.0,-110.0,0
1546,5.0,-214.0,-113.0,0
1547,2.0,-218.0,-113.0,0
1548,-1.0,-220.0,-112.0,0
1549,-1.0,-226.0,-110.0,0
1550,-1.0,-228.0,-114.0,0
1551,-1.0,-230.0,-111.0,0
1552,1.0,-234.0,-114.0,0
1553,-1.0,-234.0,-111.0,0
1554,9.0,-243.0,-103.0,0
1555,0.0,-237.0,-110.0,0
1556,4.0,-238.0,-110.0,0
1557,0.0,-234.0,-112.0,0
1558,5.0,-237.0,-112.0,0
1559,4.0,-245.0,-108.0,0
1560,3.0,-244.0,-108.0,0
1561,7.0,-246.0,-105.0,0
1562,8.0,-248.0,-111.0,0
1563,8.0,-250.0,-107.0,0
1564,7.0,-248.0,-109.0,0
1565,17.0,-246.0,-109.0,0
1566,6.0,-250.0,-108.0,0
1567,4.0,-248.0,-108.0,0
1568,3.0,-246.0,-107.0,0
1569,2.0,-247.0,-111.0,0
1570,0.0,-247.0,-112.0,0
1571,5.0,-249.0,-111.0,0
1572,3.0,-254.0,-111.0,0
1573,4.0,-255.0,-105.0,0
1574,6.0,-258.0,-101.0,0
1575,3.0,-257.0,-105.0,0
1576,5.0,-256.0,-104.0,0
1577,3.0,-254.0,-98.0,0
1578,6.0,-253.0,-95.0,0
1579,7.0,-254.0,-97.0,0
1580,5.0,-249.0,-90.0,0
1581,6.0,-247.0,-95.0,0
1582,8.0,-248.0,-94.0,0
1583,12.0,-247.0,-90.0,0
1584,11.0,-248.0,-94.0,0
1585,13.0,-250.0,-94.0,0
1586,14.0,-248.0,-91.0,0
1587,14.0,-247.0,-97.0,0
1588,10.0,-252.0,-96.0,0
1589,10.0,-252.0,-98.0,0
1590,9.0,-255.0,-96.0,0
1591,8.0,-263.0,-94.0,0
1592,4.0,-263.0,-93.0,0
1593,2.0,-267.0,-95.0,0
1594,1.0,-275.0,-94.0,0
1595,-4.0,-279.0,-89.0,0
1596,-9.0,-278.0,-93.0,0
1597,-1.0,-278.0,-97.0,0
1598,-3.0,-273.0,-100.0,0
1599,2.0,-273.0,-117.0,0
1600,3.0,-264.0,-118.0,0
1601,9.0,-260.0,-122.0,0
1602,11.0,-258.0,-126.0,0
1603,13.0,-257.0,-123.0,0
1604,19.0,-263.0,-128.0,0
1605,27.0,-267.0,-127.0,0
1606,32.0,-275.0,-133.0,0
1607,31.0,-282.0,-131.0,0
1608,34.0,-293.0,-138.0,0
1609,33.0,-303.0,-137.0,0
1610,29.0,-312.0,-137.0,0
1611,21.0,-319.0,-135.0,0
1612,20.0,-325.0,-137.0,0
1613,14.0,-336.0,-136.0,0
1614,13.0,-345.0,-134.0,0
1615,15.0,-355.0,-135.0,0
1616,14.0,-360.0,-136.0,0
1617,17.0,-362.0,-135.0,0
1618,14.0,-357.0,-149.0,0
1619,9.0,-353.0,-155.0,0
1620,3.0,-348.0,-153.0,0
1621,3.0,-343.0,-153.0,0
1622,7.0,-339.0,-155.0,0
1623,12.0,-331.0,-155.0,0
1624,11.0,-322.0,-147.0,0
1625,9.0,-317.0,-151.0,0
1626,13.0,-309.0,-151.0,0
1627,16.0,-305.0,-152.0,0
1628,18.0,-297.0,-152.0,0
1629,25.0,-293.0,-159.0,0
1630,26.0,-287.0,-160.0,0
1631,23.0,-283.0,-149.0,0
1632,26.0,-278.0,-150.0,0
1633,30.0,-280.0,-146.0,0
1634,38.0,-279.0,-139.0,0
1635,36.0,-277.0,-133.0,0
1636,40.0,-278.0,-129.0,0
1637,34.0,-274.0,-125.0,0
1638,38.0,-269.0,-121.0,0
1639,36.0,-266.0,-119.0,0
1640,40.0,-258.0,-113.0,0
1641,36.0,-248.0,-116.0,0
1642,38.0,-241.0,-111.0,0
1643,39.0,-236.0,-112.0,0
1644,30.0,-225.0,-113.0,0
1645,28.0,-223.0,-108.0,0
1646,13.0,-212.0,-116.0,0
1647,4.0,-205.0,-122.0,0
1648,-5.0,-203.0,-129.0,0
1649,-8.0,-200.0,-132.0,0
1650,-13.0,-196.0,-140.0,0
1651,-17.0,-199.0,-140.0,0
1652,-17.0,-204.0,-133.0,0
1653,-17.0,-207.0,-143.0,0
1654,-16.0,-217.0,-147.0,0
1655,-22.0,-223.0,-147.0,0
1656,-21.0,-232.0,-144.0,0
1657,-24.0,-234.0,-148.0,0
1658,-22.0,-237.0,-149.0,0
1659,-21.0,-234.0,-150.0,0
1660,-16.0,-233.0,-148.0,0
1661,-13.0,-225.0,-136.0,0
1662,-13.0,-219.0,-135.0,0
1663,-10.0,-216.0,-126.0,0
1664,-11.0,-214.0,-126.0,0
1665,-14.0,-207.0,-119.0,0
1666,-14.0,-204.0,-120.0,0
1667,-14.0,-201.0,-118.0,0
1668,-14.0,-197.0,-116.0,0
1669,-14.0,-196.0,-117.0,0
1670,-16.0,-192.0,-115.0,0
1671,-16.0,-191.0,-115.0,0
1672,-16.0,-187.0,-115.0,0
1673,-16.0,-186.0,-115.0,0
1674,-15.0,-184.0,-119.0,0
1675,-15.0,-183.0,-115.0,0
1676,-12.0,-179.0,-120.0,0
1677,-13.0,-179.0,-118.0,0
1678,-12.0,-176.0,-117.0,0
1679,-11.0,-176.0,-119.0,0
1680,-15.0,-169.0,-122.0,0
1681,-13.0,-169.0,-118.0,0
1682,-16.0,-169.0,-116.0,0
1683,-17.0,-170.0,-105.0,0
1684,-17.0,-170.0,-103.0,0
1685,-17.0,-171.0,-102.0,0
1686,-22.0,-172.0,-96.0,0
1687,-21.0,-176.0,-94.0,0
1688,-26.0,-173.0,-98.0,0
1689,-24.0,-179.0,-96.0,0
1690,-24.0,-175.0,-100.0,0
1691,-22.0,-174.0,-102.0,0
1692,-17.0,-173.0,-103.0,0
1693,-16.0,-174.0,-107.0,0
1694,-17.0,-174.0,-107.0,0
1695,-11.0,-171.0,-108.0,0
1696,-12.0,-170.0,-106.0,0
1697,-9.0,-172.0,-107.0,0
1698,-10.0,-172.0,-99.0,0
1699,-5.0,-174.0,-102.0,0
1700,-6.0,-177.0,-99.0,0
1701,-9.0,-181.0,-98.0,0
1702,-9.0,-180.0,-101.0,0
1703,-11.0,-184.0,-102.0,0
1704,-13.0,-188.0,-103.0,0
1705,-15.0,-188.0,-106.0,0
1706,-19.0,-189.0,-101.0,0
1707,-22.0,-194.0,-107.0,0
1708,-28.0,-194.0,-116.0,0
1709,-31.0,-194.0,-116.0,0
1710,-34.0,-200.0,-119.0,0
1711,-39.0,-204.0,-118.0,0
1712,-42.0,-209.0,-123.0,0
1713,-41.0,-210.0,-125.0,0
1714,-38.0,-214.0,-124.0,0
1715,-36.0,-220.0,-128.0,0
1716,-36.0,-225.0,-124.0,0
1717,-37.0,-238.0,-129.0,0
1718,-41.0,-244.0,-132.0,0
1719,-43.0,-251.0,-137.0,0
1720,-47.0,-253.0,-133.0,0
1721,-46.0,-260.0,-138.0,0
1722,-47.0,-260.0,-134.0,0
1723,-45.0,-260.0,-128.0,0
1724,-45.0,-254.0,-125.0,0
1725,-42.0,-253.0,-125.0,0
1726,-42.0,-248.0,-125.0,0
1727,-44.0,-247.0,-120.0,0
1728,-39.0,-244.0,-110.0,0
1729,-36.0,-244.0,-108.0,0
1730,-36.0,-242.0,-101.0,0
1731,-35.0,-241.0,-106.0,0
1732,-35.0,-242.0,-101.0,0
1733,-35.0,-245.0,-101.0,0
1734,-33.0,-245.0,-99.0,0
1735,-37.0,-244.0,-102.0,0
1736,-34.0,-242.0,-103.0,0
1737,-42.0,-238.0,-103.0,0
1738,-36.0,-235.0,-100.0,0
1739,-38.0,-232.0,-100.0,0
1740,-36.0,-229.0,-100.0,0
1741,-38.0,-225.0,-92.0,0
1742,-35.0,-221.0,-91.0,0
1743,-39.0,-223.0,-88.0,0
1744,-42.0,-219.0,-92.0,0
1745,-44.0,-218.0,-93.0,0
1746,-41.0,-220.0,-89.0,0
1747,-43.0,-219.0,-89.0,0
1748,-44.0,-225.0,-88.0,0
1749,-41.0,-224.0,-100.0,0
1750,-41.0,-227.0,-92.0,0
1751,-45.0,-226.0,-90.0,0
1752,-38.0,-232.0,-91.0,0
1753,-41.0,-235.0,-92.0,0
1754,-40.0,-236.0,-96.0,0
1755,-40.0,-235.0,-99.0,0
1756,-39.0,-236.0,-101.0,0
1757,-39.0,-236.0,-101.0,0
1758,-35.0,-239.0,-109.0,0
1759,-34.0,-237.0,-104.0,0
1760,-32.0,-234.0,-103.0,0
1761,-35.0,-238.0,-105.0,0
1762,-32.0,-239.0,-100.0,0
1763,-34.0,-240.0,-101.0,0
1764,-36.0,-244.0,-102.0,0
1765,-46.0,-243.0,-100.0,0
1766,-42.0,-244.0,-101.0,0
1767,-41.0,-243.0,-96.0,0
1768,-44.0,-243.0,-103.0,0
1769,-44.0,-241.0,-100.0,0
1770,-46.0,-240.0,-103.0,0
1771,-47.0,-241.0,-104.0,0
1772,-43.0,-240.0,-109.0,0
1773,-46.0,-240.0,-116.0,0
1774,-44.0,-243.0,-119.0,0
1775,-42.0,-243.0,-122.0,0
1776,-39.0,-248.0,-124.0,0
1777,-40.0,-253.0,-120.0,0
1778,-37.0,-259.0,-114.0,0
1779,-34.0,-266.0,-110.0,0
1780,-32.0,-268.0,-109.0,0
1781,-27.0,-275.0,-109.0,0
1782,-23.0,-276.0,-115.0,0
1783,-22.0,-280.0,-111.0,0
1784,-26.0,-277.0,-118.0,0
1785,-29.0,-278.0,-123.0,0
1786,-29.0,-270.0,-123.0,0
1787,-32.0,-265.0,-129.0,0
1788,-38.0,-265.0,-131.0,0
1789,-42.0,-262.0,-135.0,0
1790,-51.0,-262.0,-132.0,0
1791,-51.0,-270.0,-132.0,0
1792,-58.0,-269.0,-130.0,0
1793,-54.0,-264.0,-140.0,0
1794,-60.0,-278.0,-129.0,0
1795,-56.0,-285.0,-131.0,0
1796,-56.0,-287.0,-132.0,0
1797,-53.0,-295.0,-129.0,0
1798,-48.0,-295.0,-133.0,0
1799,-50.0,-300.0,-135.0,0
1800,-49.0,-306.0,-134.0,0
1801,-47.0,-311.0,-136.0,0
1802,-50.0,-316.0,-145.0,0
1803,-62.0,-329.0,-148.0,0
1804,-58.0,-324.0,-155.0,0
1805,-61.0,-325.0,-164.0,0
1806,-67.0,-322.0,-170.0,0
1807,-63.0,-326.0,-176.0,0
1808,-66.0,-323.0,-180.0,0
1809,-64.0,-321.0,-183.0,0
1810,-62.0,-326.0,-175.0,0
1811,-63.0,-324.0,-178.0,0
1812,-64.0,-318.0,-175.0,0
1813,-64.0,-318.0,-171.0,0
1814,-72.0,-316.0,-175.0,0
1815,-51.0,-310.0,-169.0,0
1816,-44.0,-303.0,-165.0,0
1817,-40.0,-293.0,-157.0,0
1818,-33.0,-281.0,-161.0,0
1819,-28.0,-275.0,-159.0,0
1820,-19.0,-264.0,-153.0,0
1821,-21.0,-254.0,-156.0,0
1822,-17.0,-248.0,-156.0,0
1823,-15.0,-241.0,-162.0,0
1824,-15.0,-236.0,-167.0,0
1825,-11.0,-225.0,-176.0,0
1826,-7.0,-235.0,-168.0,0
1827,-4.0,-241.0,-159.0,0
1828,-2.0,-244.0,-161.0,0
1829,2.0,-248.0,-163.0,0
1830,4.0,-250.0,-159.0,0
1831,1.0,-252.0,-166.0,0
1832,5.0,-252.0,-173.0,0
1833,5.0,-253.0,-171.0,0
1834,9.0,-250.0,-177.0,0
1835,7.0,-248.0,-174.0,0
1836,5.0,-248.0,-176.0,0
1837,3.0,-243.0,-176.0,0
1838,-2.0,-242.0,-171.0,0
1839,-7.0,-237.0,-170.0,0
1840,-10.0,-239.0,-165.0,0
1841,-12.0,-234.0,-165.0,0
1842,-13.0,-236.0,-157.0,0
1843,-16.0,-235.0,-155.0,0
1844,-22.0,-239.0,-147.0,0
1845,-24.0,-240.0,-145.0,0
1846,-26.0,-242.0,-147.0,0
1847,-26.0,-241.0,-146.0,0
1848,-25.0,-240.0,-143.0,0
1849,-27.0,-235.0,-150.0,0
1850,-21.0,-233.0,-145.0,0
1851,-24.0,-223.0,-142.0,0
1852,-23.0,-214.0,-143.0,0
1853,-18.0,-208.0,-140.0,0
1854,-15.0,-200.0,-137.0,0
1855,-8.0,-194.0,-132.0,0
1856,-2.0,-187.0,-126.0,0
1857,1.0,-184.0,-121.0,0
1858,6.0,-181.0,-120.0,0
1859,9.0,-180.0,-115.0,0
1860,13.0,-182.0,-119.0,0
1861,12.0,-176.0,-115.0,0
1862,12.0,-178.0,-111.0,0
1863,12.0,-181.0,-109.0,0
1864,13.0,-175.0,-109.0,0
1865,15.0,-175.0,-106.0,0
1866,13.0,-171.0,-110.0,0
1867,13.0,-168.0,-112.0,0
1868,9.0,-164.0,-110.0,0
1869,6.0,-158.0,-109.0,0
1870,6.0,-155.0,-112.0,0
1871,8.0,-160.0,-105.0,0
1872,7.0,-162.0,-104.0,0
1873,7.0,-165.0,-96.0,0
1874,10.0,-169.0,-95.0,0
1875,11.0,-175.0,-90.0,0
1876,12.0,-175.0,-90.0,0
1877,15.0,-182.0,-92.0,0
1878,16.0,-183.0,-94.0,0
1879,18.0,-185.0,-102.0,0
1880,19.0,-184.0,-105.0,0
1881,18.0,-182.0,-105.0,0
1882,18.0,-184.0,-110.0,0
1883,18.0,-184.0,-110.0,0
1884,13.0,-181.0,-113.0,0
1885,13.0,-177.0,-113.0,0
1886,11.0,-173.0,-114.0,0
1887,8.0,-172.0,-113.0,0
1888,7.0,-170.0,-115.0,0
1889,3.0,-170.0,-119.0,0
1890,2.0,-172.0,-114.0,0
1891,-4.0,-174.0,-109.0,0
1892,-4.0,-175.0,-108.0,0
1893,-4.0,-183.0,-103.0,0
1894,-6.0,-185.0,-105.0,0
1895,-8.0,-188.0,-107.0,0
1896,-7.0,-190.0,-114.0,0
1897,-7.0,-193.0,-113.0,0
1898,-4.0,-194.0,-114.0,0
1899,-3.0,-196.0,-115.0,0
1900,3.0,-201.0,-114.0,0
1901,11.0,-200.0,-118.0,0
1902,12.0,-209.0,-120.0,0
1903,18.0,-211.0,-115.0,0
1904,17.0,-213.0,-113.0,0
1905,22.0,-222.0,-111.0,0
1906,19.0,-228.0,-109.0,0
1907,21.0,-234.0,-99.0,0
1908,20.0,-242.0,-104.0,0
1909,21.0,-245.0,-102.0,0
1910,16.0,-247.0,-105.0,0
1911,15.0,-246.0,-106.0,0
1912,14.0,-251.0,-109.0,0
1913,9.0,-249.0,-114.0,0
1914,3.0,-248.0,-115.0,0
1915,2.0,-250.0,-113.0,0
1916,-4.0,-244.0,-116.0,0
1917,3.0,-247.0,-112.0,0
1918,1.0,-246.0,-119.0,0
1919,1.0,-247.0,-115.0,0
1920,2.0,-248.0,-112.0,0
1921,4.0,-246.0,-112.0,0
1922,11.0,-248.0,-110.0,0
1923,8.0,-246.0,-103.0,0
1924,8.0,-246.0,-101.0,0
1925,12.0,-248.0,-97.0,0
1926,11.0,-247.0,-97.0,0
1927,12.0,-245.0,-100.0,0
1928,15.0,-242.0,-99.0,0
1929,17.0,-241.0,-103.0,0
1930,15.0,-236.0,-106.0,0
1931,16.0,-230.0,-105.0,0
1932,18.0,-227.0,-104.0,0
1933,21.0,-228.0,-110.0,0
1934,25.0,-225.0,-112.0,0
1935,24.0,-230.0,-108.0,0
1936,26.0,-233.0,-107.0,0
1937,23.0,-234.0,-101.0,0
1938,23.0,-235.0,-103.0,0
1939,21.0,-243.0,-101.0,0
1940,24.0,-245.0,-99.0,0
1941,20.0,-247.0,-98.0,0
1942,17.0,-249.0,-94.0,0
1943,16.0,-246.0,-96.0,0
1944,17.0,-249.0,-90.0,0
1945,17.0,-250.0,-91.0,0
1946,17.0,-247.0,-96.0,0
1947,16.0,-246.0,-93.0,0
1948,16.0,-246.0,-95.0,0
1949,17.0,-243.0,-94.0,0
1950,16.0,-245.0,-98.0,0
1951,14.0,-240.0,-98.0,0
1952,23.0,-238.0,-95.0,0
1953,24.0,-240.0,-98.0,0
1954,19.0,-239.0,-99.0,0
1955,15.0,-238.0,-94.0,0
1956,17.0,-234.0,-93.0,0
1957,18.0,-238.0,-95.0,0
1958,17.0,-235.0,-93.0,0
1959,7.0,-236.0,-95.0,0
1960,5.0,-240.0,-92.0,0
1961,5.0,-245.0,-88.0,0
1962,10.0,-244.0,-90.0,0
1963,12.0,-249.0,-93.0,0
1964,16.0,-250.0,-92.0,0
1965,19.0,-251.0,-98.0,0
1966,21.0,-255.0,-104.0,0
1967,29.0,-258.0,-115.0,0
1968,25.0,-255.0,-117.0,0
1969,26.0,-256.0,-123.0,0
1970,24.0,-256.0,-129.0,0
1971,28.0,-253.0,-136.0,0
1972,28.0,-253.0,-144.0,0
1973,28.0,-253.0,-146.0,0
1974,32.0,-254.0,-147.0,0
1975,35.0,-252.0,-146.0,0
1976,37.0,-250.0,-150.0,0
1977,40.0,-252.0,-147.0,0
1978,40.0,-258.0,-143.0,0
1979,44.0,-264.0,-135.0,0
1980,42.0,-269.0,-133.0,0
1981,41.0,-274.0,-127.0,0
1982,34.0,-282.0,-128.0,0
1983,27.0,-280.0,-129.0,0
1984,21.0,-291.0,-129.0,0
1985,19.0,-291.0,-132.0,0
1986,14.0,-293.0,-138.0,0
1987,14.0,-296.0,-140.0,0
1988,18.0,-303.0,-141.0,0
1989,21.0,-303.0,-150.0,0
1990,24.0,-307.0,-152.0,0
1991,24.0,-311.0,-154.0,0
1992,22.0,-313.0,-159.0,0
1993,26.0,-314.0,-164.0,0
1994,28.0,-317.0,-164.0,0
1995,25.0,-319.0,-164.0,0
1996,27.0,-318.0,-173.0,0
1997,27.0,-312.0,-175.0,0
1998,29.0,-311.0,-177.0,0
1999,32.0,-309.0,-174.0,0
2000,25.0,-301.0,-174.0,0
2001,27.0,-303.0,-163.0,0
2002,27.0,-301.0,-166.0,0
2003,27.0,-300.0,-165.0,0
2004,25.0,-298.0,-168.0,0
2005,23.0,-293.0,-162.0,0
2006,22.0,-294.0,-161.0,0
2007,22.0,-295.0,-161.0,0
2008,19.0,-297.0,-159.0,0
2009,18.0,-301.0,-153.0,0
2010,16.0,-302.0,-154.0,0
2011,10.0,-303.0,-156.0,0
2012,8.0,-301.0,-153.0,0
2013,12.0,-295.0,-154.0,0
2014,10.0,-287.0,-152.0,0
2015,6.0,-281.0,-158.0,0
2016,5.0,-272.0,-165.0,0
2017,7.0,-262.0,-170.0,0
2018,7.0,-253.0,-167.0,0
2019,8.0,-245.0,-162.0,0
2020,4.0,-240.0,-163.0,0
2021,5.0,-234.0,-159.0,0
2022,6.0,-229.0,-150.0,0
2023,5.0,-225.0,-147.0,0
2024,2.0,-221.0,-144.0,0
2025,0.0,-217.0,-142.0,0
2026,-1.0,-212.0,-144.0,0
2027,-2.0,-209.0,-144.0,0
2028,-2.0,-206.0,-151.0,0
2029,-7.0,-198.0,-148.0,0
2030,-11.0,-194.0,-155.0,0
2031,-14.0,-208.0,-159.0,0
2032,-14.0,-188.0,-170.0,0
2033,-12.0,-181.0,-180.0,0
2034,-14.0,-183.0,-186.0,0
2035,-14.0,-182.0,-186.0,0
2036,-12.0,-184.0,-187.0,0
2037,-13.0,-189.0,-181.0,0
2038,-16.0,-193.0,-180.0,0
2039,-16.0,-201.0,-183.0,0
2040,-16.0,-206.0,-180.0,0
2041,-16.0,-212.0,-177.0,0
2042,-17.0,-207.0,-186.0,0
2043,-19.0,-215.0,-172.0,0
2044,-15.0,-219.0,-169.0,0
2045,-11.0,-216.0,-170.0,0
2046,-14.0,-213.0,-163.0,0
2047,-16.0,-214.0,-164.0,0
2048,-16.0,-212.0,-157.0,0
2049,-18.0,-211.0,-157.0,0
2050,-19.0,-208.0,-152.0,0
2051,-26.0,-204.0,-153.0,0
2052,-25.0,-199.0,-150.0,0
2053,-27.0,-195.0,-161.0,0
2054,-23.0,-192.0,-152.0,0
2055,-24.0,-191.0,-152.0,0
2056,-15.0,-196.0,-148.0,0
2057,-14.0,-196.0,-143.0,0
2058,-12.0,-196.0,-138.0,0
2059,-15.0,-194.0,-126.0,0
2060,-16.0,-194.0,-129.0,0
2061,-16.0,-197.0,-125.0,0
2062,-18.0,-195.0,-125.0,0
2063,-16.0,-197.0,-127.0,0
2064,-15.0,-193.0,-130.0,0
2065,-16.0,-191.0,-135.0,0
2066,-15.0,-190.0,-138.0,0
2067,-13.0,-186.0,-136.0,0
2068,-10.0,-188.0,-136.0,0
2069,-13.0,-188.0,-126.0,0
2070,-12.0,-187.0,-126.0,0
2071,-12.0,-186.0,-121.0,0
2072,-9.0,-186.0,-115.0,0
2073,-9.0,-187.0,-116.0,0
2074,-8.0,-188.0,-110.0,0
2075,-9.0,-186.0,-110.0,0
2076,-11.0,-185.0,-105.0,0
2077,-12.0,-183.0,-102.0,0
2078,-14.0,-183.0,-107.0,0
2079,-15.0,-181.0,-109.0,0
2080,-13.0,-179.0,-111.0,0
2081,-21.0,-175.0,-113.0,0
2082,-18.0,-167.0,-116.0,0
2083,-17.0,-166.0,-118.0,0
2084,-23.0,-161.0,-117.0,0
2085,-26.0,-164.0,-122.0,0
2086,-24.0,-164.0,-122.0,0
2087,-23.0,-170.0,-125.0,0
2088,-28.0,-173.0,-123.0,0
2089,-30.0,-178.0,-122.0,0
2090,-32.0,-183.0,-123.0,0
2091,-35.0,-187.0,-120.0,0
2092,-38.0,-186.0,-119.0,0
2093,-40.0,-188.0,-119.0,0
2094,-42.0,-192.0,-121.0,0
2095,-50.0,-188.0,-119.0,0
2096,-51.0,-189.0,-118.0,0
2097,-53.0,-190.0,-117.0,0
2098,-49.0,-194.0,-115.0,0
2099,-52.0,-190.0,-121.0,0
2100,-54.0,-193.0,-116.0,0
2101,-58.0,-194.0,-114.0,0
2102,-49.0,-197.0,-118.0,0
2103,-48.0,-199.0,-116.0,0
2104,-47.0,-196.0,-118.0,0
2105,-42.0,-204.0,-122.0,0
2106,-59.0,-224.0,-117.0,0
2107,-46.0,-212.0,-120.0,0
2108,-29.0,-214.0,-121.0,0
2109,-28.0,-214.0,-120.0,0
2110,-28.0,-214.0,-137.0,0
2111,-32.0,-220.0,-138.0,0
2112,-36.0,-217.0,-143.0,0
2113,-43.0,-215.0,-145.0,0
2114,-39.0,-221.0,-147.0,0
2115,-42.0,-218.0,-136.0,0
2116,-15.0,-227.0,-125.0,0
2117,-15.0,-234.0,-119.0,0
2118,-14.0,-237.0,-112.0,0
2119,-19.0,-240.0,-103.0,0
2120,-22.0,-239.0,-109.0,0
2121,-24.0,-241.0,-113.0,0
2122,-26.0,-238.0,-118.0,0
2123,-32.0,-235.0,-124.0,0
2124,-35.0,-233.0,-127.0,0
2125,-35.0,-232.0,-127.0,0
2126,-40.0,-232.0,-134.0,0
2127,-44.0,-231.0,-132.0,0
2128,-50.0,-231.0,-130.0,0
2129,-46.0,-236.0,-134.0,0
2130,-66.0,-222.0,-131.0,0
2131,-44.0,-220.0,-143.0,0
2132,-45.0,-223.0,-144.0,0
2133,-47.0,-221.0,-147.0,0
2134,-50.0,-222.0,-147.0,0
2135,-54.0,-221.0,-147.0,0
2136,-53.0,-224.0,-143.0,0
2137,-51.0,-227.0,-137.0,0
2138,-51.0,-231.0,-138.0,0
2139,-51.0,-232.0,-131.0,0
2140,-50.0,-237.0,-133.0,0
2141,-45.0,-239.0,-131.0,0
2142,-45.0,-241.0,-130.0,0
2143,-45.0,-239.0,-134.0,0
2144,-41.0,-240.0,-131.0,0
2145,-39.0,-239.0,-131.0,0
2146,-40.0,-237.0,-129.0,0
2147,-35.0,-241.0,-132.0,0
2148,-37.0,-239.0,-124.0,0
2149,-36.0,-241.0,-126.0,0
2150,-31.0,-249.0,-126.0,0
2151,-29.0,-248.0,-123.0,0
2152,-27.0,-252.0,-123.0,0
2153,-24.0,-253.0,-125.0,0
2154,-21.0,-255.0,-120.0,0
2155,-16.0,-257.0,-122.0,0
2156,-13.0,-263.0,-124.0,0
2157,-11.0,-258.0,-120.0,0
2158,-11.0,-258.0,-121.0,0
2159,-10.0,-257.0,-117.0,0
2160,-7.0,-257.0,-118.0,0
2161,-8.0,-255.0,-117.0,0
2162,-7.0,-252.0,-118.0,0
2163,-3.0,-252.0,-119.0,0
2164,-2.0,-254.0,-119.0,0
2165,-5.0,-253.0,-111.0,0
2166,-3.0,-255.0,-103.0,0
2167,-3.0,-255.0,-101.0,0
2168,-5.0,-254.0,-97.0,0
2169,-2.0,-252.0,-98.0,0
2170,-6.0,-253.0,-98.0,0
2171,-7.0,-251.0,-97.0,0
2172,-7.0,-254.0,-95.0,0
2173,-12.0,-247.0,-91.0,0
2174,-15.0,-257.0,-96.0,0
2175,-17.0,-261.0,-94.0,0
2176,-18.0,-259.0,-103.0,0
2177,-27.0,-257.0,-106.0,0
2178,-32.0,-258.0,-114.0,0
2179,-34.0,-259.0,-118.0,0
2180,-36.0,-258.0,-123.0,0
2181,-41.0,-257.0,-131.0,0
2182,-47.0,-254.0,-140.0,0
2183,-51.0,-251.0,-145.0,0
2184,-57.0,-248.0,-153.0,0
2185,-57.0,-243.0,-155.0,0
2186,-58.0,-237.0,-155.0,0
2187,-61.0,-237.0,-151.0,0
2188,-64.0,-235.0,-144.0,0
2189,-67.0,-234.0,-135.0,0
2190,-65.0,-236.0,-132.0,0
2191,-62.0,-240.0,-126.0,0
2192,-63.0,-240.0,-125.0,0
2193,-64.0,-238.0,-121.0,0
2194,-62.0,-237.0,-117.0,0
2195,-65.0,-235.0,-114.0,0
2196,-63.0,-229.0,-114.0,0
2197,-57.0,-227.0,-120.0,0
2198,-56.0,-221.0,-124.0,0
2199,-55.0,-215.0,-127.0,0
2200,-49.0,-212.0,-126.0,0
2201,-43.0,-208.0,-128.0,0
2202,-38.0,-206.0,-132.0,0
2203,-32.0,-200.0,-134.0,0
2204,-29.0,-197.0,-136.0,0
2205,-21.0,-199.0,-131.0,0
2206,-14.0,-200.0,-132.0,0
2207,-7.0,-199.0,-129.0,0
2208,-3.0,-200.0,-125.0,0
2209,1.0,-204.0,-120.0,0
2210,6.0,-203.0,-117.0,0
2211,7.0,-201.0,-114.0,0
2212,7.0,-205.0,-115.0,0
2213,8.0,-209.0,-115.0,0
2214,6.0,-209.0,-114.0,0
2215,7.0,-213.0,-112.0,0
2216,2.0,-213.0,-115.0,0
2217,4.0,-218.0,-117.0,0
2218,-1.0,-219.0,-120.0,0
2219,-2.0,-220.0,-120.0,0
2220,-5.0,-222.0,-122.0,0
2221,-8.0,-226.0,-124.0,0
2222,-10.0,-228.0,-120.0,0
2223,-15.0,-235.0,-124.0,0
2224,-18.0,-234.0,-125.0,0
2225,-22.0,-236.0,-127.0,0
2226,-18.0,-239.0,-124.0,0
2227,-25.0,-246.0,-132.0,0
2228,-27.0,-246.0,-129.0,0
2229,-27.0,-249.0,-130.0,0
2230,-28.0,-249.0,-133.0,0
2231,-30.0,-248.0,-137.0,0
2232,-25.0,-248.0,-137.0,0
2233,-24.0,-246.0,-135.0,0
2234,-24.0,-246.0,-139.0,0
2235,-20.0,-248.0,-139.0,0
2236,-20.0,-248.0,-139.0,0
2237,-17.0,-248.0,-136.0,0
2238,-15.0,-252.0,-135.0,0
2239,-13.0,-251.0,-132.0,0
2240,-8.0,-252.0,-136.0,0
2241,-6.0,-251.0,-135.0,0
2242,1.0,-253.0,-132.0,0
2243,2.0,-250.0,-129.0,0
2244,5.0,-249.0,-131.0,0
2245,8.0,-249.0,-133.0,0
2246,7.0,-246.0,-130.0,0
2247,7.0,-242.0,-134.0,0
2248,4.0,-237.0,-134.0,0
2249,3.0,-237.0,-135.0,0
2250,0.0,-235.0,-139.0,0
2251,1.0,-239.0,-141.0,0
2252,0.0,-237.0,-143.0,0
2253,0.0,-236.0,-137.0,0
2254,-1.0,-233.0,-143.0,0
2255,-5.0,-231.0,-145.0,0
2256,-7.0,-228.0,-148.0,0
2257,-6.0,-224.0,-149.0,0
2258,-8.0,-221.0,-146.0,0
2259,-11.0,-222.0,-144.0,0
2260,-12.0,-221.0,-144.0,0
2261,-13.0,-228.0,-139.0,0
2262,-13.0,-226.0,-141.0,0
2263,-11.0,-220.0,-140.0,0
2264,-9.0,-221.0,-142.0,0
2265,-9.0,-217.0,-139.0,0
2266,-5.0,-217.0,-143.0,0
2267,2.0,-217.0,-137.0,0
2268,2.0,-214.0,-143.0,0
2269,7.0,-225.0,-121.0,0
2270,13.0,-220.0,-138.0,0
2271,15.0,-218.0,-136.0,0
2272,16.0,-224.0,-132.0,0
2273,15.0,-221.0,-130.0,0
2274,15.0,-226.0,-134.0,0
2275,12.0,-226.0,-133.0,0
2276,8.0,-230.0,-133.0,0
2277,12.0,-231.0,-138.0,0
2278,9.0,-230.0,-140.0,0
2279,7.0,-219.0,-146.0,0
2280,-3.0,-225.0,-146.0,0
2281,-2.0,-226.0,-148.0,0
2282,-3.0,-223.0,-149.0,0
2283,-4.0,-222.0,-149.0,0
2284,-9.0,-219.0,-150.0,0
2285,-8.0,-218.0,-150.0,0
2286,-7.0,-222.0,-146.0,0
2287,-5.0,-222.0,-145.0,0
2288,-3.0,-226.0,-143.0,0
2289,2.0,-229.0,-135.0,0
2290,5.0,-233.0,-133.0,0
2291,4.0,-235.0,-141.0,0
2292,8.0,-234.0,-139.0,0
2293,11.0,-236.0,-141.0,0
2294,12.0,-233.0,-144.0,0
2295,17.0,-230.0,-152.0,0
2296,14.0,-226.0,-153.0,0
2297,12.0,-225.0,-163.0,0
2298,4.0,-222.0,-167.0,0
2299,6.0,-225.0,-168.0,0
2300,13.0,-227.0,-165.0,0
2301,15.0,-227.0,-169.0,0
2302,13.0,-227.0,-163.0,0
2303,13.0,-225.0,-156.0,0
2304,12.0,-226.0,-148.0,0
2305,15.0,-228.0,-137.0,0
2306,17.0,-226.0,-126.0,0
2307,20.0,-225.0,-117.0,0
2308,23.0,-229.0,-109.0,0
2309,24.0,-228.0,-109.0,0
2310,21.0,-233.0,-103.0,0
2311,22.0,-234.0,-103.0,0
2312,18.0,-232.0,-106.0,0
2313,16.0,-233.0,-111.0,0
2314,10.0,-236.0,-115.0,0
2315,-2.0,-234.0,-120.0,0
2316,-4.0,-234.0,-127.0,0
2317,-11.0,-237.0,-130.0,0
2318,-15.0,-235.0,-133.0,0
2319,-23.0,-232.0,-139.0,0
2320,-28.0,-239.0,-139.0,0
2321,-37.0,-238.0,-141.0,0
2322,-45.0,-240.0,-137.0,0
2323,-53.0,-241.0,-139.0,0
2324,-52.0,-248.0,-140.0,0
2325,-53.0,-250.0,-133.0,0
2326,-52.0,-253.0,-139.0,0
2327,-51.0,-252.0,-139.0,0
2328,-51.0,-256.0,-135.0,0
2329,-47.0,-254.0,-139.0,0
2330,-43.0,-256.0,-132.0,0
2331,-42.0,-254.0,-128.0,0
2332,-36.0,-253.0,-125.0,0
2333,-32.0,-256.0,-120.0,0
2334,-31.0,-257.0,-118.0,0
2335,-30.0,-256.0,-114.0,0
2336,-31.0,-253.0,-115.0,0
2337,-30.0,-250.0,-119.0,0
2338,-33.0,-249.0,-119.0,0
2339,-29.0,-246.0,-128.0,0
2340,-24.0,-246.0,-122.0,0
2341,-16.0,-242.0,-128.0,0
2342,-20.0,-238.0,-128.0,0
2343,-22.0,-233.0,-123.0,0
2344,-21.0,-230.0,-124.0,0
2345,-18.0,-225.0,-123.0,0
2346,-15.0,-223.0,-126.0,0
2347,-16.0,-220.0,-124.0,0
2348,-16.0,-218.0,-131.0,0
2349,-13.0,-219.0,-130.0,0
2350,-13.0,-215.0,-124.0,0
2351,-10.0,-220.0,-125.0,0
2352,-13.0,-222.0,-124.0,0
2353,-12.0,-226.0,-122.0,0
2354,-15.0,-229.0,-118.0,0
2355,-18.0,-232.0,-116.0,0
2356,-16.0,-234.0,-115.0,0
2357,-23.0,-237.0,-115.0,0
2358,-22.0,-242.0,-115.0,0
2359,-24.0,-239.0,-109.0,0
2360,-26.0,-243.0,-110.0,0
2361,-27.0,-244.0,-108.0,0
2362,-27.0,-244.0,-114.0,0
2363,-30.0,-246.0,-113.0,0
2364,-29.0,-247.0,-113.0,0
2365,-30.0,-248.0,-110.0,0
2366,-30.0,-247.0,-110.0,0
2367,-32.0,-246.0,-112.0,0
2368,-31.0,-245.0,-111.0,0
2369,-29.0,-236.0,-111.0,0
2370,-27.0,-241.0,-119.0,0
2371,-27.0,-232.0,-118.0,0
2372,-25.0,-231.0,-120.0,0
2373,-19.0,-230.0,-120.0,0
2374,-21.0,-227.0,-120.0,0
2375,-19.0,-226.0,-120.0,0
2376,-19.0,-225.0,-116.0,0
2377,-19.0,-227.0,-118.0,0
2378,-22.0,-227.0,-118.0,0
2379,-21.0,-229.0,-110.0,0
2380,-22.0,-233.0,-107.0,0
2381,-25.0,-239.0,-104.0,0
2382,-26.0,-241.0,-104.0,0
2383,-24.0,-248.0,-100.0,0
2384,-26.0,-252.0,-94.0,0
2385,-27.0,-252.0,-93.0,0
2386,-28.0,-254.0,-87.0,0
2387,-27.0,-256.0,-92.0,0
2388,-27.0,-254.0,-92.0,0
2389,-29.0,-250.0,-93.0,0
2390,-28.0,-250.0,-96.0,0
2391,-29.0,-248.0,-93.0,0
2392,-27.0,-245.0,-97.0,0
2393,-26.0,-246.0,-96.0,0
2394,-31.0,-241.0,-98.0,0
2395,-26.0,-244.0,-100.0,0
2396,-31.0,-245.0,-96.0,0
2397,-29.0,-247.0,-94.0,0
2398,-23.0,-249.0,-96.0,0
2399,-26.0,-250.0,-100.0,0
2400,-29.0,-252.0,-101.0,0
2401,-27.0,-255.0,-103.0,0
2402,-28.0,-256.0,-102.0,0
2403,-30.0,-255.0,-99.0,0
2404,-31.0,-257.0,-98.0,0
2405,-31.0,-256.0,-99.0,0
2406,-31.0,-255.0,-93.0,0
2407,-33.0,-252.0,-94.0,0
2408,-37.0,-249.0,-97.0,0
2409,-33.0,-249.0,-93.0,0
2410,-38.0,-250.0,-83.0,0
2411,-33.0,-249.0,-92.0,0
2412,-35.0,-249.0,-88.0,0
2413,-34.0,-248.0,-93.0,0
2414,-35.0,-251.0,-95.0,0
2415,-40.0,-250.0,-100.0,0
2416,-42.0,-252.0,-105.0,0
2417,-43.0,-254.0,-108.0,0
2418,-47.0,-255.0,-107.0,0
2419,-47.0,-261.0,-107.0,0
2420,-47.0,-263.0,-109.0,0
2421,-42.0,-269.0,-101.0,0
2422,-45.0,-270.0,-102.0,0
2423,-37.0,-268.0,-105.0,0
2424,-35.0,-266.0,-96.0,0
2425,-39.0,-259.0,-98.0,0
2426,-36.0,-252.0,-99.0,0
2427,-35.0,-249.0,-100.0,0
2428,-33.0,-248.0,-98.0,0
2429,-34.0,-244.0,-97.0,0
2430,-30.0,-241.0,-103.0,0
2431,-30.0,-239.0,-107.0,0
2432,-25.0,-242.0,-105.0,0
2433,-22.0,-239.0,-111.0,0
2434,-21.0,-239.0,-118.0,0
2435,-16.0,-230.0,-125.0,0
2436,-12.0,-231.0,-129.0,0
2437,-2.0,-230.0,-131.0,0
2438,6.0,-227.0,-137.0,0
2439,12.0,-224.0,-131.0,0
2440,17.0,-227.0,-129.0,0
2441,23.0,-225.0,-125.0,0
2442,23.0,-224.0,-118.0,0
2443,22.0,-224.0,-112.0,0
2444,19.0,-226.0,-114.0,0
2445,18.0,-227.0,-115.0,0
2446,16.0,-227.0,-112.0,0
2447,14.0,-228.0,-113.0,0
2448,8.0,-229.0,-114.0,0
2449,8.0,-231.0,-112.0,0
2450,1.0,-233.0,-112.0,0
2451,0.0,-235.0,-108.0,0
2452,2.0,-239.0,-103.0,0
2453,0.0,-241.0,-102.0,0
2454,-2.0,-248.0,-99.0,0
2455,1.0,-249.0,-100.0,0
2456,0.0,-246.0,-95.0,0
2457,2.0,-249.0,-104.0,0
2458,2.0,-248.0,-102.0,0
2459,1.0,-250.0,-106.0,0
2460,0.0,-249.0,-108.0,0
2461,2.0,-254.0,-105.0,0
2462,5.0,-253.0,-102.0,0
2463,6.0,-255.0,-100.0,0
2464,13.0,-258.0,-98.0,0
2465,15.0,-262.0,-96.0,0
2466,16.0,-261.0,-89.0,0
2467,13.0,-258.0,-84.0,0
2468,17.0,-261.0,-84.0,0
2469,16.0,-256.0,-82.0,0
2470,16.0,-250.0,-88.0,0
2471,18.0,-248.0,-93.0,0
2472,18.0,-245.0,-93.0,0
2473,19.0,-243.0,-101.0,0
2474,15.0,-237.0,-103.0,0
2475,14.0,-234.0,-106.0,0
2476,14.0,-239.0,-112.0,0
2477,13.0,-236.0,-108.0,0
2478,9.0,-235.0,-108.0,0
2479,12.0,-242.0,-104.0,0
2480,12.0,-246.0,-94.0,0
2481,16.0,-244.0,-95.0,0
2482,12.0,-248.0,-90.0,0
2483,11.0,-252.0,-88.0,0
2484,9.0,-249.0,-89.0,0
2485,7.0,-248.0,-88.0,0
2486,12.0,-245.0,-82.0,0
2487,9.0,-244.0,-74.0,0
2488,14.0,-242.0,-81.0,0
2489,13.0,-237.0,-77.0,0
2490,15.0,-232.0,-78.0,0
2491,20.0,-231.0,-77.0,0
2492,20.0,-229.0,-73.0,0
2493,20.0,-226.0,-73.0,0
2494,21.0,-226.0,-72.0,0
2495,23.0,-220.0,-95.0,0
2496,21.0,-230.0,-78.0,0
2497,14.0,-229.0,-80.0,0
2498,14.0,-234.0,-79.0,0
2499,15.0,-239.0,-76.0,0
2500,15.0,-238.0,-79.0,0
2501,13.0,-242.0,-74.0,0
2502,6.0,-242.0,-78.0,0
2503,8.0,-241.0,-79.0,0
2504,11.0,-241.0,-83.0,0
2505,6.0,-237.0,-83.0,0
2506,9.0,-235.0,-82.0,0
2507,8.0,-230.0,-83.0,0
2508,8.0,-232.0,-81.0,0
2509,11.0,-233.0,-80.0,0
2510,10.0,-234.0,-76.0,0
2511,13.0,-236.0,-79.0,0
2512,15.0,-239.0,-76.0,0
2513,12.0,-238.0,-74.0,0
2514,11.0,-240.0,-70.0,0
2515,11.0,-242.0,-74.0,0
2516,12.0,-242.0,-72.0,0
2517,7.0,-239.0,-70.0,0
2518,0.0,-235.0,-70.0,0
2519,1.0,-233.0,-70.0,0
2520,-4.0,-228.0,-72.0,0
2521,-5.0,-226.0,-73.0,0
2522,-10.0,-221.0,-76.0,0
2523,-7.0,-221.0,-73.0,0
2524,-11.0,-211.0,-74.0,0
2525,-14.0,-208.0,-73.0,0
2526,-13.0,-201.0,-71.0,0
2527,-9.0,-194.0,-73.0,0
2528,-9.0,-186.0,-72.0,0
2529,-8.0,-182.0,-72.0,0
2530,-8.0,-173.0,-66.0,0
2531,-9.0,-162.0,-74.0,0
2532,-8.0,-155.0,-73.0,0
2533,-1.0,-146.0,-75.0,0
2534,7.0,-143.0,-80.0,0
2535,15.0,-145.0,-75.0,0
2536,24.0,-147.0,-72.0,0
2537,25.0,-153.0,-73.0,0
2538,25.0,-158.0,-68.0,0
2539,29.0,-170.0,-64.0,0
2540,33.0,-180.0,-64.0,0
2541,39.0,-189.0,-63.0,0
2542,40.0,-196.0,-67.0,0
2543,42.0,-203.0,-72.0,0
2544,45.0,-204.0,-75.0,0
2545,40.0,-203.0,-78.0,0
2546,39.0,-203.0,-87.0,0
2547,25.0,-201.0,-91.0,0
2548,13.0,-202.0,-89.0,0
2549,1.0,-200.0,-97.0,0
2550,-4.0,-203.0,-97.0,0
2551,-12.0,-205.0,-104.0,0
2552,-8.0,-212.0,-107.0,0
2553,-5.0,-219.0,-104.0,0
2554,-7.0,-225.0,-103.0,0
2555,-3.0,-228.0,-105.0,0
2556,-1.0,-237.0,-104.0,0
2557,-1.0,-239.0,-110.0,0
2558,1.0,-244.0,-103.0,0
2559,1.0,-243.0,-101.0,0
2560,-3.0,-247.0,-93.0,0
2561,-1.0,-250.0,-85.0,0
2562,1.0,-251.0,-78.0,0
2563,2.0,-255.0,-70.0,0
2564,6.0,-260.0,-69.0,0
2565,10.0,-261.0,-65.0,0
2566,16.0,-263.0,-66.0,0
2567,14.0,-259.0,-69.0,0
2568,17.0,-258.0,-62.0,0
2569,17.0,-253.0,-61.0,0
2570,14.0,-249.0,-57.0,0
2571,13.0,-246.0,-57.0,0
2572,15.0,-245.0,-53.0,0
2573,14.0,-248.0,-54.0,0
2574,10.0,-246.0,-55.0,0
2575,14.0,-247.0,-52.0,0
2576,15.0,-249.0,-58.0,0
2577,14.0,-256.0,-60.0,0
2578,12.0,-256.0,-65.0,0
2579,11.0,-256.0,-61.0,0
2580,5.0,-257.0,-63.0,0
2581,7.0,-258.0,-63.0,0
2582,6.0,-255.0,-69.0,0
2583,8.0,-254.0,-66.0,0
2584,13.0,-257.0,-73.0,0
2585,18.0,-262.0,-79.0,0
2586,18.0,-264.0,-83.0,0
2587,15.0,-267.0,-70.0,0
2588,2.0,-273.0,-56.0,0
2589,-4.0,-285.0,-42.0,0
2590,-9.0,-294.0,-27.0,0
2591,-6.0,-303.0,-34.0,0
2592,-6.0,-305.0,-52.0,0
2593,-4.0,-297.0,-77.0,0
2594,2.0,-297.0,-98.0,0
2595,1.0,-288.0,-109.0,0
2596,6.0,-283.0,-111.0,0
2597,12.0,-280.0,-118.0,0
2598,22.0,-280.0,-120.0,0
2599,23.0,-280.0,-130.0,0
2600,28.0,-282.0,-137.0,0
2601,27.0,-284.0,-145.0,0
2602,14.0,-283.0,-153.0,0
2603,4.0,-284.0,-164.0,0
2604,-7.0,-287.0,-166.0,0
2605,-16.0,-290.0,-166.0,0
2606,-20.0,-297.0,-156.0,0
2607,-23.0,-303.0,-145.0,0
2608,-15.0,-310.0,-139.0,0
2609,-16.0,-314.0,-126.0,0
2610,-8.0,-324.0,-117.0,0
2611,-4.0,-329.0,-112.0,0
2612,-5.0,-340.0,-97.0,0
2613,-5.0,-354.0,-93.0,0
2614,-7.0,-362.0,-99.0,0
2615,-3.0,-372.0,-118.0,0
2616,-16.0,-374.0,-136.0,0
2617,-31.0,-373.0,-154.0,0
2618,-53.0,-367.0,-160.0,0
2619,-73.0,-364.0,-169.0,0
2620,-87.0,-363.0,-167.0,0
2621,-101.0,-360.0,-158.0,0
2622,-104.0,-359.0,-152.0,0
2623,-96.0,-360.0,-150.0,0
2624,-78.0,-354.0,-138.0,0
2625,-59.0,-349.0,-128.0,0
2626,-51.0,-334.0,-118.0,0
2627,-41.0,-322.0,-106.0,0
2628,-33.0,-306.0,-104.0,0
2629,-23.0,-296.0,-100.0,0
2630,-20.0,-284.0,-88.0,0
2631,-14.0,-275.0,-80.0,0
2632,-11.0,-263.0,-72.0,0
2633,-6.0,-253.0,-68.0,0
2634,-6.0,-244.0,-68.0,0
2635,-7.0,-233.0,-67.0,0
2636,-11.0,-214.0,-65.0,0
2637,-11.0,-202.0,-70.0,0
2638,-11.0,-188.0,-68.0,0
2639,-15.0,-181.0,-75.0,0
2640,-18.0,-175.0,-87.0,0
2641,-21.0,-169.0,-94.0,0
2642,-27.0,-165.0,-103.0,0
2643,-32.0,-172.0,-113.0,0
2644,-34.0,-183.0,-114.0,0
2645,-38.0,-194.0,-119.0,0
2646,-39.0,-213.0,-115.0,0
2647,-41.0,-226.0,-112.0,0
2648,-38.0,-241.0,-112.0,0
2649,-38.0,-247.0,-106.0,0
2650,-36.0,-248.0,-107.0,0
2651,-30.0,-248.0,-104.0,0
2652,-29.0,-246.0,-100.0,0
2653,-27.0,-235.0,-99.0,0
2654,-26.0,-231.0,-101.0,0
2655,-22.0,-221.0,-101.0,0
2656,-22.0,-216.0,-98.0,0
2657,-25.0,-212.0,-99.0,0
2658,-26.0,-212.0,-91.0,0
2659,-27.0,-212.0,-85.0,0
2660,-30.0,-219.0,-84.0,0
2661,-35.0,-224.0,-82.0,0
2662,-37.0,-230.0,-80.0,0
2663,-39.0,-238.0,-87.0,0
2664,-40.0,-241.0,-89.0,0
2665,-44.0,-245.0,-90.0,0
2666,-43.0,-247.0,-95.0,0
2667,-46.0,-249.0,-96.0,0
2668,-44.0,-248.0,-103.0,0
2669,-45.0,-247.0,-105.0,0
2670,-40.0,-243.0,-106.0,0
2671,-42.0,-241.0,-106.0,0
2672,-39.0,-238.0,-98.0,0
2673,-36.0,-234.0,-95.0,0
2674,-33.0,-232.0,-91.0,0
2675,-36.0,-227.0,-88.0,0
2676,-30.0,-225.0,-90.0,0
2677,-32.0,-221.0,-82.0,0
2678,-30.0,-223.0,-81.0,0
2679,-29.0,-223.0,-83.0,0
2680,-28.0,-219.0,-81.0,0
2681,-27.0,-220.0,-72.0,0
2682,-29.0,-223.0,-73.0,0
2683,-30.0,-225.0,-69.0,0
2684,-32.0,-229.0,-68.0,0
2685,-35.0,-232.0,-70.0,0
2686,-37.0,-233.0,-70.0,0
2687,-41.0,-234.0,-74.0,0
2688,-42.0,-230.0,-75.0,0
2689,-38.0,-229.0,-84.0,0
2690,-35.0,-227.0,-84.0,0
2691,-40.0,-227.0,-85.0,0
2692,-38.0,-224.0,-82.0,0
2693,-34.0,-223.0,-84.0,0
2694,-35.0,-226.0,-81.0,0
2695,-36.0,-222.0,-81.0,0
2696,-36.0,-222.0,-73.0,0
2697,-31.0,-219.0,-70.0,0
2698,-32.0,-223.0,-68.0,0
2699,-38.0,-217.0,-66.0,0
2700,-43.0,-211.0,-70.0,0
2701,-43.0,-208.0,-77.0,0
2702,-42.0,-207.0,-83.0,0
2703,-47.0,-200.0,-80.0,0
2704,-44.0,-202.0,-91.0,0
2705,-46.0,-197.0,-96.0,0
2706,-47.0,-198.0,-105.0,0
2707,-44.0,-196.0,-110.0,0
2708,-41.0,-196.0,-110.0,0
2709,-34.0,-197.0,-115.0,0
2710,-30.0,-202.0,-107.0,0
2711,-23.0,-204.0,-106.0,0
2712,-18.0,-209.0,-96.0,0
2713,-15.0,-213.0,-84.0,0
2714,-8.0,-218.0,-72.0,0
2715,-7.0,-222.0,-57.0,0
2716,-1.0,-227.0,-44.0,0
2717,0.0,-227.0,-33.0,0
2718,5.0,-235.0,-17.0,0
2719,1.0,-239.0,-10.0,0
2720,0.0,-241.0,-7.0,0
2721,-10.0,-240.0,-7.0,0
2722,-19.0,-239.0,-5.0,0
2723,-29.0,-236.0,-8.0,0
2724,-38.0,-235.0,-13.0,0
2725,-42.0,-225.0,-30.0,0
2726,-49.0,-211.0,-53.0,0
2727,-55.0,-194.0,-80.0,0
2728,-56.0,-184.0,-101.0,0
2729,-57.0,-169.0,-112.0,0
2730,-60.0,-157.0,-128.0,0
2731,-62.0,-143.0,-137.0,0
2732,-56.0,-138.0,-137.0,0
2733,-46.0,-138.0,-141.0,0
2734,-36.0,-138.0,-160.0,0
2735,-25.0,-156.0,-136.0,0
2736,-14.0,-175.0,-121.0,0
2737,-10.0,-203.0,-103.0,0
2738,-12.0,-237.0,-71.0,0
2739,-11.0,-276.0,-44.0,0
2740,-14.0,-307.0,-19.0,0
2741,-14.0,-333.0,-11.0,0
2742,-22.0,-339.0,-11.0,0
2743,-36.0,-336.0,-17.0,0
2744,-42.0,-325.0,-29.0,0
2745,-57.0,-299.0,-49.0,0
2746,-62.0,-269.0,-59.0,0
2747,-68.0,-243.0,-76.0,0
2748,-72.0,-214.0,-83.0,0
2749,-67.0,-192.0,-86.0,0
2750,-61.0,-169.0,-90.0,0
2751,-51.0,-154.0,-91.0,0
2752,-42.0,-148.0,-96.0,0
2753,-32.0,-144.0,-105.0,0
2754,-21.0,-149.0,-111.0,0
2755,-16.0,-154.0,-126.0,0
2756,-10.0,-179.0,-105.0,0
2757,-8.0,-208.0,-84.0,0
2758,-10.0,-240.0,-64.0,0
2759,-16.0,-272.0,-48.0,0
2760,-16.0,-298.0,-36.0,0
2761,-17.0,-310.0,-40.0,0
2762,-23.0,-315.0,-45.0,0
2763,-27.0,-312.0,-43.0,0
2764,-36.0,-307.0,-47.0,0
2765,-44.0,-291.0,-47.0,0
2766,-52.0,-279.0,-51.0,0
2767,-53.0,-261.0,-60.0,0
2768,-47.0,-252.0,-71.0,0
2769,-36.0,-243.0,-74.0,0
2770,-30.0,-236.0,-82.0,0
2771,-21.0,-232.0,-83.0,0
2772,-13.0,-232.0,-88.0,0
2773,-10.0,-234.0,-90.0,0
2774,-10.0,-237.0,-99.0,0
2775,-8.0,-245.0,-117.0,0
2776,-5.0,-249.0,-140.0,0
2777,2.0,-252.0,-166.0,0
2778,11.0,-263.0,-178.0,0
2779,18.0,-272.0,-192.0,0
2780,25.0,-286.0,-192.0,0
2781,26.0,-303.0,-181.0,0
2782,20.0,-316.0,-173.0,0
2783,14.0,-326.0,-161.0,0
2784,4.0,-335.0,-151.0,0
2785,-5.0,-338.0,-151.0,0
2786,-14.0,-338.0,-141.0,0
2787,-24.0,-338.0,-134.0,0
2788,-36.0,-333.0,-121.0,0
2789,-36.0,-328.0,-116.0,0
2790,-36.0,-320.0,-114.0,0
2791,-32.0,-319.0,-101.0,0
2792,-33.0,-318.0,-97.0,0
2793,-28.0,-321.0,-96.0,0
2794,-24.0,-318.0,-100.0,0
2795,-18.0,-322.0,-105.0,0
2796,-15.0,-325.0,-109.0,0
2797,-10.0,-329.0,-107.0,0
2798,-12.0,-329.0,-104.0,0
2799,-8.0,-333.0,-111.0,0
2800,-4.0,-335.0,-112.0,0
2801,-6.0,-341.0,-113.0,0
2802,-6.0,-353.0,-104.0,0
2803,-7.0,-360.0,-104.0,0
2804,-7.0,-372.0,-91.0,0
2805,-14.0,-378.0,-85.0,0
2806,-16.0,-381.0,-82.0,0
2807,-22.0,-379.0,-80.0,0
2808,-27.0,-374.0,-82.0,0
2809,-27.0,-370.0,-81.0,0
2810,-23.0,-358.0,-85.0,0
2811,-21.0,-348.0,-86.0,0
2812,-18.0,-334.0,-85.0,0
2813,-15.0,-316.0,-85.0,0
2814,-13.0,-299.0,-87.0,0
2815,-8.0,-284.0,-87.0,0
2816,-1.0,-261.0,-87.0,0
2817,2.0,-247.0,-86.0,0
2818,7.0,-231.0,-78.0,0
2819,10.0,-215.0,-79.0,0
2820,12.0,-207.0,-79.0,0
2821,14.0,-201.0,-81.0,0
2822,14.0,-200.0,-83.0,0
2823,17.0,-193.0,-86.0,0
2824,18.0,-195.0,-93.0,0
2825,15.0,-199.0,-97.0,0
2826,19.0,-204.0,-102.0,0
2827,10.0,-209.0,-104.0,0
2828,11.0,-218.0,-103.0,0
2829,6.0,-225.0,-99.0,0
2830,1.0,-235.0,-97.0,0
2831,-1.0,-243.0,-92.0,0
2832,-2.0,-245.0,-88.0,0
2833,-3.0,-247.0,-91.0,0
2834,-7.0,-246.0,-95.0,0
2835,-2.0,-236.0,-96.0,0
2836,-3.0,-230.0,-100.0,0
2837,-2.0,-225.0,-102.0,0
2838,-1.0,-216.0,-106.0,0
2839,0.0,-206.0,-111.0,0
2840,7.0,-199.0,-105.0,0
2841,10.0,-197.0,-106.0,0
2842,12.0,-198.0,-105.0,0
2843,18.0,-197.0,-99.0,0
2844,22.0,-198.0,-95.0,0
2845,22.0,-204.0,-95.0,0
2846,30.0,-210.0,-91.0,0
2847,34.0,-214.0,-87.0,0
2848,36.0,-221.0,-84.0,0
2849,38.0,-223.0,-82.0,0
2850,41.0,-226.0,-86.0,0
2851,38.0,-226.0,-80.0,0
2852,34.0,-222.0,-82.0,0
2853,29.0,-223.0,-88.0,0
2854,26.0,-221.0,-91.0,0
2855,21.0,-212.0,-93.0,0
2856,13.0,-214.0,-94.0,0
2857,11.0,-215.0,-91.0,0
2858,4.0,-209.0,-88.0,0
2859,-1.0,-211.0,-87.0,0
2860,-4.0,-206.0,-88.0,0
2861,-8.0,-205.0,-85.0,0
2862,-12.0,-198.0,-88.0,0
2863,-13.0,-192.0,-89.0,0
2864,-16.0,-188.0,-89.0,0
2865,-18.0,-182.0,-88.0,0
2866,-17.0,-181.0,-85.0,0
2867,-13.0,-176.0,-81.0,0
2868,-10.0,-173.0,-75.0,0
2869,-5.0,-167.0,-70.0,0
2870,5.0,-167.0,-70.0,0
2871,10.0,-161.0,-67.0,0
2872,20.0,-160.0,-67.0,0
2873,17.0,-151.0,-69.0,0
2874,19.0,-152.0,-68.0,0
2875,18.0,-148.0,-63.0,0
2876,16.0,-151.0,-61.0,0
2877,10.0,-156.0,-55.0,0
2878,8.0,-158.0,-53.0,0
2879,8.0,-166.0,-56.0,0
2880,9.0,-169.0,-55.0,0
2881,6.0,-170.0,-60.0,0
2882,11.0,-170.0,-70.0,0
2883,15.0,-176.0,-81.0,0
2884,15.0,-173.0,-87.0,0
2885,14.0,-174.0,-90.0,0
2886,15.0,-173.0,-97.0,0
2887,14.0,-176.0,-98.0,0
2888,12.0,-178.0,-96.0,0
2889,15.0,-185.0,-97.0,0
2890,12.0,-188.0,-90.0,0
2891,10.0,-199.0,-89.0,0
2892,10.0,-210.0,-85.0,0
2893,10.0,-221.0,-76.0,0
2894,9.0,-229.0,-73.0,0
2895,9.0,-238.0,-61.0,0
2896,7.0,-243.0,-67.0,0
2897,5.0,-246.0,-73.0,0
2898,1.0,-243.0,-79.0,0
2899,-2.0,-243.0,-87.0,0
2900,-9.0,-242.0,-84.0,0
2901,-11.0,-242.0,-80.0,0
2902,-12.0,-245.0,-77.0,0
2903,-8.0,-251.0,-76.0,0
2904,-6.0,-257.0,-71.0,0
2905,-7.0,-259.0,-71.0,0
2906,-7.0,-264.0,-71.0,0
2907,-5.0,-269.0,-65.0,0
2908,-13.0,-270.0,-69.0,0
2909,-10.0,-271.0,-66.0,0
2910,-10.0,-273.0,-72.0,0
2911,-12.0,-274.0,-74.0,0
2912,-9.0,-271.0,-77.0,0
2913,-6.0,-274.0,-80.0,0
2914,5.0,-277.0,-92.0,0
2915,20.0,-280.0,-104.0,0
2916,26.0,-286.0,-114.0,0
2917,26.0,-282.0,-117.0,0
2918,13.0,-279.0,-114.0,0
2919,-3.0,-282.0,-105.0,0
2920,-7.0,-282.0,-101.0,0
2921,-1.0,-285.0,-118.0,0
2922,4.0,-286.0,-123.0,0
2923,6.0,-289.0,-129.0,0
2924,0.0,-293.0,-124.0,0
2925,-2.0,-306.0,-112.0,0
2926,-1.0,-315.0,-102.0,0
2927,4.0,-323.0,-107.0,0
2928,14.0,-331.0,-113.0,0
2929,14.0,-333.0,-132.0,0
2930,20.0,-333.0,-145.0,0
2931,23.0,-332.0,-144.0,0
2932,23.0,-330.0,-150.0,0
2933,22.0,-328.0,-144.0,0
2934,26.0,-331.0,-135.0,0
2935,22.0,-334.0,-129.0,0
2936,21.0,-334.0,-127.0,0
2937,21.0,-331.0,-131.0,0
2938,17.0,-327.0,-138.0,0
2939,11.0,-323.0,-150.0,0
2940,3.0,-320.0,-156.0,0
2941,-9.0,-316.0,-153.0,0
2942,-17.0,-312.0,-159.0,0
2943,-29.0,-313.0,-161.0,0
2944,-36.0,-317.0,-162.0,0
2945,-44.0,-317.0,-160.0,0
2946,-50.0,-317.0,-160.0,0
2947,-52.0,-322.0,-148.0,0
2948,-58.0,-319.0,-144.0,0
2949,-58.0,-318.0,-129.0,0
2950,-52.0,-318.0,-125.0,0
2951,-49.0,-315.0,-108.0,0
2952,-47.0,-307.0,-105.0,0
2953,-40.0,-299.0,-101.0,0
2954,-40.0,-286.0,-101.0,0
2955,-29.0,-275.0,-102.0,0
2956,-29.0,-265.0,-97.0,0
2957,-28.0,-254.0,-103.0,0
2958,-24.0,-242.0,-104.0,0
2959,-22.0,-240.0,-103.0,0
2960,-16.0,-234.0,-100.0,0
2961,-21.0,-231.0,-116.0,0
2962,-23.0,-230.0,-112.0,0
2963,-25.0,-236.0,-116.0,0
2964,-24.0,-240.0,-113.0,0
2965,-24.0,-241.0,-115.0,0
2966,-27.0,-250.0,-114.0,0
2967,-31.0,-254.0,-115.0,0
2968,-36.0,-260.0,-116.0,0
2969,-40.0,-265.0,-120.0,0
2970,-38.0,-272.0,-121.0,0
2971,-36.0,-265.0,-128.0,0
2972,-41.0,-276.0,-122.0,0
2973,-40.0,-278.0,-117.0,0
2974,-39.0,-275.0,-117.0,0
2975,-37.0,-273.0,-116.0,0
2976,-36.0,-266.0,-114.0,0
2977,-34.0,-259.0,-107.0,0
2978,-34.0,-252.0,-108.0,0
2979,-31.0,-246.0,-110.0,0
2980,-31.0,-241.0,-109.0,0
2981,-29.0,-235.0,-107.0,0
2982,-31.0,-233.0,-110.0,0
2983,-23.0,-233.0,-108.0,0
2984,-23.0,-227.0,-113.0,0
2985,-23.0,-226.0,-115.0,0
2986,-24.0,-222.0,-111.0,0
2987,-27.0,-226.0,-107.0,0
2988,-27.0,-224.0,-107.0,0
2989,-27.0,-225.0,-102.0,0
2990,-31.0,-226.0,-98.0,0
2991,-26.0,-224.0,-99.0,0
2992,-31.0,-222.0,-98.0,0
2993,-30.0,-223.0,-100.0,0
2994,-28.0,-222.0,-102.0,0
2995,-28.0,-225.0,-100.0,0
2996,-27.0,-226.0,-100.0,0
2997,-29.0,-220.0,-102.0,0
2998,-31.0,-223.0,-97.0,0
2999,-34.0,-224.0,-97.0,0
3000,-35.0,-229.0,-93.0,0
3001,-37.0,-229.0,-97.0,0
3002,-37.0,-227.0,-94.0,0
3003,-39.0,-223.0,-95.0,0
3004,-37.0,-224.0,-94.0,0
3005,-35.0,-224.0,-95.0,0
3006,-33.0,-220.0,-95.0,0
3007,-33.0,-218.0,-94.0,0
3008,-33.0,-216.0,-90.0,0
3009,-26.0,-213.0,-90.0,0
3010,-29.0,-213.0,-91.0,0
3011,-25.0,-211.0,-92.0,0
3012,-18.0,-211.0,-94.0,0
3013,-19.0,-209.0,-93.0,0
3014,-19.0,-208.0,-94.0,0
3015,-18.0,-202.0,-99.0,0
3016,-17.0,-207.0,-96.0,0
3017,-17.0,-204.0,-93.0,0
3018,-18.0,-203.0,-92.0,0
3019,-22.0,-202.0,-91.0,0
3020,-22.0,-203.0,-90.0,0
3021,-24.0,-204.0,-92.0,0
3022,-20.0,-203.0,-90.0,0
3023,-20.0,-201.0,-90.0,0
3024,-20.0,-198.0,-91.0,0
3025,-19.0,-195.0,-93.0,0
3026,-16.0,-196.0,-90.0,0
3027,-16.0,-193.0,-88.0,0
3028,-19.0,-190.0,-85.0,0
3029,-19.0,-193.0,-80.0,0
3030,-16.0,-189.0,-77.0,0
3031,-16.0,-188.0,-72.0,0
3032,-16.0,-187.0,-77.0,0
3033,-11.0,-189.0,-73.0,0
3034,-11.0,-188.0,-69.0,0
3035,-9.0,-188.0,-70.0,0
3036,-6.0,-191.0,-70.0,0
3037,-4.0,-193.0,-69.0,0
3038,-11.0,-185.0,-80.0,0
3039,-9.0,-185.0,-83.0,0
3040,-9.0,-181.0,-91.0,0
3041,-11.0,-183.0,-95.0,0
3042,-13.0,-182.0,-98.0,0
3043,-13.0,-183.0,-102.0,0
3044,-14.0,-184.0,-100.0,0
3045,-12.0,-186.0,-107.0,0
3046,-10.0,-192.0,-106.0,0
3047,-12.0,-197.0,-100.0,0
3048,-13.0,-201.0,-96.0,0
3049,-13.0,-208.0,-86.0,0
3050,-13.0,-217.0,-80.0,0
3051,-10.0,-222.0,-75.0,0
3052,-7.0,-227.0,-72.0,0
3053,-8.0,-238.0,-64.0,0
3054,-11.0,-237.0,-68.0,0
3055,-13.0,-240.0,-72.0,0
3056,-15.0,-237.0,-72.0,0
3057,-18.0,-233.0,-77.0,0
3058,-16.0,-234.0,-86.0,0
3059,-19.0,-226.0,-96.0,0
3060,-19.0,-223.0,-110.0,0
3061,-20.0,-219.0,-110.0,0
3062,-20.0,-220.0,-111.0,0
3063,-25.0,-218.0,-101.0,0
3064,-23.0,-225.0,-89.0,0
3065,-23.0,-231.0,-82.0,0
3066,-24.0,-235.0,-71.0,0
3067,-26.0,-243.0,-60.0,0
3068,-24.0,-251.0,-53.0,0
3069,-25.0,-255.0,-53.0,0
3070,-27.0,-262.0,-55.0,0
3071,-25.0,-268.0,-55.0,0
3072,-31.0,-271.0,-60.0,0
3073,-34.0,-266.0,-64.0,0
3074,-36.0,-263.0,-75.0,0
3075,-35.0,-260.0,-87.0,0
3076,-39.0,-252.0,-90.0,0
3077,-46.0,-241.0,-95.0,0
3078,-47.0,-236.0,-98.0,0
3079,-46.0,-227.0,-112.0,0
3080,-33.0,-221.0,-125.0,0
3081,-16.0,-222.0,-135.0,0
3082,5.0,-232.0,-132.0,0
3083,12.0,-240.0,-120.0,0
3084,16.0,-249.0,-107.0,0
3085,24.0,-262.0,-89.0,0
3086,27.0,-273.0,-84.0,0
3087,24.0,-287.0,-89.0,0
3088,11.0,-296.0,-90.0,0
3089,-3.0,-307.0,-92.0,0
3090,-29.0,-311.0,-101.0,0
3091,-48.0,-310.0,-114.0,0
3092,-54.0,-311.0,-133.0,0
3093,-60.0,-305.0,-156.0,0
3094,-60.0,-301.0,-173.0,0
3095,-66.0,-300.0,-180.0,0
3096,-64.0,-298.0,-171.0,0
3097,-55.0,-304.0,-160.0,0
3098,-35.0,-309.0,-150.0,0
3099,-16.0,-312.0,-147.0,0
3100,0.0,-317.0,-139.0,0
3101,15.0,-328.0,-134.0,0
3102,32.0,-335.0,-131.0,0
3103,42.0,-340.0,-148.0,0
3104,48.0,-339.0,-166.0,0
3105,45.0,-336.0,-189.0,0
3106,37.0,-334.0,-199.0,0
3107,25.0,-339.0,-195.0,0
3108,20.0,-346.0,-178.0,0
3109,11.0,-352.0,-153.0,0
3110,20.0,-369.0,-129.0,0
3111,25.0,-375.0,-118.0,0
3112,26.0,-373.0,-106.0,0
3113,30.0,-366.0,-103.0,0
3114,28.0,-356.0,-99.0,0
3115,23.0,-340.0,-100.0,0
3116,17.0,-328.0,-100.0,0
3117,16.0,-319.0,-95.0,0
3118,16.0,-311.0,-97.0,0
3119,16.0,-307.0,-89.0,0
3120,19.0,-300.0,-86.0,0
3121,18.0,-297.0,-80.0,0
3122,17.0,-286.0,-80.0,0
3123,21.0,-279.0,-80.0,0
3124,22.0,-267.0,-90.0,0
3125,27.0,-255.0,-95.0,0
3126,28.0,-246.0,-105.0,0
3127,31.0,-238.0,-104.0,0
3128,32.0,-229.0,-105.0,0
3129,29.0,-224.0,-102.0,0
3130,26.0,-222.0,-99.0,0
3131,19.0,-225.0,-101.0,0
3132,16.0,-230.0,-107.0,0
3133,17.0,-241.0,-105.0,0
3134,16.0,-244.0,-105.0,0
3135,18.0,-251.0,-109.0,0
3136,16.0,-255.0,-108.0,0
3137,18.0,-260.0,-107.0,0
3138,20.0,-262.0,-109.0,0
3139,22.0,-263.0,-105.0,0
3140,23.0,-257.0,-102.0,0
3141,26.0,-248.0,-101.0,0
3142,33.0,-247.0,-99.0,0
3143,38.0,-234.0,-101.0,0
3144,42.0,-225.0,-102.0,0
3145,44.0,-213.0,-102.0,0
3146,47.0,-204.0,-98.0,0
3147,46.0,-197.0,-103.0,0
3148,44.0,-188.0,-103.0,0
3149,46.0,-184.0,-100.0,0
3150,45.0,-182.0,-96.0,0
3151,47.0,-184.0,-93.0,0
3152,46.0,-184.0,-96.0,0
3153,46.0,-190.0,-96.0,0
3154,47.0,-193.0,-98.0,0
3155,43.0,-197.0,-98.0,0
3156,41.0,-204.0,-99.0,0
3157,44.0,-210.0,-102.0,0
3158,38.0,-212.0,-97.0,0
3159,38.0,-219.0,-98.0,0
3160,36.0,-223.0,-100.0,0
3161,33.0,-223.0,-101.0,0
3162,29.0,-223.0,-101.0,0
3163,31.0,-224.0,-99.0,0
3164,31.0,-226.0,-95.0,0
3165,32.0,-225.0,-92.0,0
3166,36.0,-225.0,-98.0,0
3167,35.0,-223.0,-85.0,0
3168,32.0,-225.0,-92.0,0
3169,35.0,-224.0,-83.0,0
3170,30.0,-223.0,-84.0,0
3171,28.0,-219.0,-83.0,0
3172,24.0,-216.0,-83.0,0
3173,25.0,-217.0,-87.0,0
3174,19.0,-216.0,-87.0,0
3175,19.0,-214.0,-84.0,0
3176,20.0,-212.0,-80.0,0
3177,17.0,-225.0,-85.0,0
3178,16.0,-211.0,-82.0,0
3179,19.0,-207.0,-85.0,0
3180,20.0,-205.0,-90.0,0
3181,23.0,-202.0,-91.0,0
3182,26.0,-204.0,-90.0,0
3183,28.0,-204.0,-88.0,0
3184,26.0,-200.0,-84.0,0
3185,28.0,-199.0,-84.0,0
3186,26.0,-197.0,-80.0,0
3187,26.0,-192.0,-78.0,0
3188,31.0,-196.0,-56.0,0
3189,16.0,-187.0,-70.0,0
3190,15.0,-185.0,-64.0,0
3191,10.0,-182.0,-64.0,0
3192,13.0,-179.0,-67.0,0
3193,11.0,-178.0,-68.0,0
3194,10.0,-175.0,-65.0,0
3195,11.0,-172.0,-71.0,0
3196,16.0,-170.0,-70.0,0
3197,15.0,-171.0,-83.0,0
3198,18.0,-170.0,-88.0,0
3199,25.0,-169.0,-101.0,0
3200,17.0,-171.0,-106.0,0
3201,15.0,-170.0,-114.0,0
3202,16.0,-172.0,-118.0,0
3203,19.0,-173.0,-128.0,0
3204,20.0,-176.0,-129.0,0
3205,24.0,-183.0,-133.0,0
3206,28.0,-191.0,-137.0,0
3207,31.0,-199.0,-131.0,0
3208,35.0,-211.0,-122.0,0
3209,35.0,-221.0,-114.0,0
3210,36.0,-234.0,-105.0,0
3211,35.0,-244.0,-93.0,0
3212,34.0,-256.0,-78.0,0
3213,31.0,-257.0,-69.0,0
3214,26.0,-265.0,-65.0,0
3215,22.0,-264.0,-70.0,0
3216,14.0,-262.0,-65.0,0
3217,8.0,-258.0,-67.0,0
3218,1.0,-255.0,-73.0,0
3219,-2.0,-249.0,-81.0,0
3220,-6.0,-246.0,-89.0,0
3221,-13.0,-243.0,-93.0,0
3222,-16.0,-239.0,-94.0,0
3223,-18.0,-238.0,-95.0,0
3224,-26.0,-242.0,-93.0,0
3225,-32.0,-248.0,-90.0,0
3226,-32.0,-257.0,-81.0,0
3227,-33.0,-265.0,-74.0,0
3228,-35.0,-272.0,-67.0,0
3229,-35.0,-277.0,-71.0,0
3230,-28.0,-282.0,-69.0,0
3231,-25.0,-281.0,-74.0,0
3232,-14.0,-281.0,-75.0,0
3233,-8.0,-282.0,-67.0,0
3234,1.0,-284.0,-60.0,0
3235,10.0,-282.0,-64.0,0
3236,16.0,-285.0,-58.0,0
3237,22.0,-283.0,-60.0,0
3238,26.0,-279.0,-62.0,0
3239,28.0,-271.0,-64.0,0
3240,33.0,-260.0,-68.0,0
3241,34.0,-253.0,-74.0,0
3242,41.0,-248.0,-75.0,0
3243,40.0,-242.0,-72.0,0
3244,37.0,-241.0,-73.0,0
3245,30.0,-239.0,-56.0,0
3246,27.0,-243.0,-46.0,0
3247,30.0,-249.0,-44.0,0
3248,34.0,-259.0,-49.0,0
3249,29.0,-260.0,-70.0,0
3250,25.0,-257.0,-92.0,0
3251,20.0,-260.0,-105.0,0
3252,17.0,-259.0,-116.0,0
3253,13.0,-264.0,-125.0,0
3254,9.0,-275.0,-126.0,0
3255,9.0,-290.0,-133.0,0
3256,11.0,-297.0,-138.0,0
3257,13.0,-312.0,-146.0,0
3258,15.0,-324.0,-156.0,0
3259,19.0,-336.0,-164.0,0
3260,19.0,-348.0,-163.0,0
3261,11.0,-357.0,-164.0,0
3262,9.0,-362.0,-157.0,0
3263,3.0,-367.0,-149.0,0
3264,-2.0,-370.0,-135.0,0
3265,-6.0,-372.0,-129.0,0
3266,-5.0,-369.0,-122.0,0
3267,-7.0,-364.0,-122.0,0
3268,-11.0,-359.0,-132.0,0
3269,-15.0,-349.0,-139.0,0
3270,-22.0,-345.0,-146.0,0
3271,-28.0,-333.0,-150.0,0
3272,-33.0,-323.0,-148.0,0
3273,-38.0,-317.0,-140.0,0
3274,-44.0,-316.0,-134.0,0
3275,-43.0,-315.0,-123.0,0
3276,-28.0,-314.0,-112.0,0
3277,-22.0,-314.0,-108.0,0
3278,-18.0,-320.0,-104.0,0
3279,-16.0,-315.0,-100.0,0
3280,-17.0,-309.0,-92.0,0
3281,-16.0,-307.0,-82.0,0
3282,-16.0,-300.0,-80.0,0
3283,-23.0,-292.0,-70.0,0
3284,-22.0,-285.0,-67.0,0
3285,-26.0,-274.0,-68.0,0
3286,-34.0,-261.0,-63.0,0
3287,-38.0,-255.0,-69.0,0
3288,-39.0,-246.0,-74.0,0
3289,-43.0,-238.0,-82.0,0
3290,-41.0,-233.0,-82.0,0
3291,-40.0,-229.0,-92.0,0
3292,-36.0,-227.0,-96.0,0
3293,-34.0,-228.0,-94.0,0
3294,-36.0,-235.0,-100.0,0
3295,-37.0,-236.0,-103.0,0
3296,-37.0,-243.0,-108.0,0
3297,-34.0,-250.0,-105.0,0
3298,-34.0,-255.0,-107.0,0
3299,-33.0,-264.0,-106.0,0
3300,-31.0,-268.0,-103.0,0
3301,-30.0,-270.0,-98.0,0
3302,-21.0,-275.0,-98.0,0
3303,-19.0,-273.0,-91.0,0
3304,-16.0,-268.0,-93.0,0
3305,-18.0,-261.0,-87.0,0
3306,-16.0,-254.0,-85.0,0
3307,-11.0,-250.0,-84.0,0
3308,-9.0,-243.0,-81.0,0
3309,-8.0,-235.0,-76.0,0
3310,-3.0,-228.0,-78.0,0
3311,1.0,-224.0,-76.0,0
3312,3.0,-214.0,-77.0,0
3313,3.0,-207.0,-83.0,0
3314,5.0,-201.0,-86.0,0
3315,3.0,-195.0,-91.0,0
3316,-1.0,-192.0,-99.0,0
3317,-5.0,-190.0,-101.0,0
3318,-10.0,-187.0,-106.0,0
3319,-16.0,-189.0,-106.0,0
3320,-20.0,-196.0,-106.0,0
3321,-25.0,-203.0,-107.0,0
3322,-36.0,-213.0,-105.0,0
3323,-34.0,-224.0,-98.0,0
3324,-38.0,-232.0,-99.0,0
3325,-37.0,-241.0,-99.0,0
3326,-40.0,-245.0,-97.0,0
3327,-34.0,-252.0,-94.0,0
3328,-33.0,-252.0,-94.0,0
3329,-33.0,-255.0,-95.0,0
3330,-31.0,-252.0,-90.0,0
3331,-27.0,-248.0,-90.0,0
3332,-26.0,-245.0,-88.0,0
3333,-25.0,-242.0,-87.0,0
3334,-23.0,-240.0,-88.0,0
3335,-23.0,-237.0,-85.0,0
3336,-27.0,-235.0,-83.0,0
3337,-27.0,-228.0,-88.0,0
3338,-31.0,-226.0,-91.0,0
3339,-26.0,-225.0,-85.0,0
3340,-28.0,-224.0,-87.0,0
3341,-29.0,-223.0,-81.0,0
3342,-24.0,-223.0,-80.0,0
3343,-23.0,-222.0,-84.0,0
3344,-27.0,-218.0,-80.0,0
3345,-29.0,-222.0,-80.0,0
3346,-29.0,-219.0,-78.0,0
3347,-27.0,-217.0,-81.0,0
3348,-27.0,-219.0,-79.0,0
3349,-28.0,-217.0,-79.0,0
3350,-27.0,-220.0,-77.0,0
3351,-29.0,-216.0,-73.0,0
3352,-29.0,-219.0,-74.0,0
3353,-33.0,-216.0,-69.0,0
3354,-33.0,-219.0,-74.0,0
3355,-40.0,-217.0,-72.0,0
3356,-46.0,-214.0,-78.0,0
3357,-51.0,-214.0,-84.0,0
3358,-47.0,-211.0,-86.0,0
3359,-43.0,-213.0,-90.0,0
3360,-40.0,-211.0,-92.0,0
3361,-36.0,-211.0,-93.0,0
3362,-27.0,-209.0,-94.0,0
3363,-19.0,-206.0,-99.0,0
3364,-13.0,-202.0,-97.0,0
3365,-7.0,-202.0,-94.0,0
3366,-2.0,-200.0,-88.0,0
3367,1.0,-200.0,-88.0,0
3368,3.0,-201.0,-87.0,0
3369,3.0,-197.0,-83.0,0
3370,-2.0,-200.0,-78.0,0
3371,-5.0,-204.0,-78.0,0
3372,-12.0,-205.0,-75.0,0
3373,-10.0,-215.0,-75.0,0
3374,-16.0,-220.0,-74.0,0
3375,-17.0,-227.0,-76.0,0
3376,-21.0,-233.0,-75.0,0
3377,-27.0,-236.0,-76.0,0
3378,-33.0,-234.0,-82.0,0
3379,-37.0,-234.0,-85.0,0
3380,-37.0,-233.0,-83.0,0
3381,-38.0,-225.0,-78.0,0
3382,-40.0,-221.0,-78.0,0
3383,-38.0,-219.0,-71.0,0
3384,-39.0,-218.0,-70.0,0
3385,-37.0,-211.0,-66.0,0
3386,-37.0,-210.0,-64.0,0
3387,-37.0,-203.0,-68.0,0
3388,-36.0,-202.0,-65.0,0
3389,-30.0,-198.0,-68.0,0
3390,-25.0,-199.0,-70.0,0
3391,-25.0,-197.0,-69.0,0
3392,-19.0,-198.0,-69.0,0
3393,-33.0,-208.0,-84.0,0
3394,-14.0,-198.0,-67.0,0
3395,-10.0,-198.0,-62.0,0
3396,-6.0,-201.0,-66.0,0
3397,-7.0,-204.0,-58.0,0
3398,-9.0,-207.0,-57.0,0
3399,-9.0,-210.0,-53.0,0
3400,-10.0,-212.0,-51.0,0
3401,-10.0,-214.0,-50.0,0
3402,-13.0,-214.0,-50.0,0
3403,-11.0,-211.0,-47.0,0
3404,-2.0,-223.0,-30.0,0
3405,-15.0,-216.0,-41.0,0
3406,-17.0,-214.0,-38.0,0
3407,-24.0,-213.0,-30.0,0
3408,-29.0,-211.0,-30.0,0
3409,-36.0,-212.0,-30.0,0
3410,-35.0,-213.0,-38.0,0
3411,-37.0,-204.0,-41.0,0
3412,-34.0,-199.0,-49.0,0
3413,-26.0,-194.0,-56.0,0
3414,-22.0,-192.0,-59.0,0
3415,-35.0,-195.0,-46.0,0
3416,-32.0,-198.0,-65.0,0
3417,-36.0,-202.0,-67.0,0
3418,-27.0,-211.0,-75.0,0
3419,-19.0,-213.0,-92.0,0
3420,-6.0,-214.0,-108.0,0
3421,13.0,-219.0,-117.0,0
3422,26.0,-226.0,-112.0,0
3423,35.0,-241.0,-105.0,0
3424,37.0,-250.0,-96.0,0
3425,37.0,-254.0,-93.0,0
3426,41.0,-264.0,-103.0,0
3427,47.0,-265.0,-120.0,0
3428,48.0,-265.0,-137.0,0
3429,47.0,-270.0,-148.0,0
3430,46.0,-273.0,-150.0,0
3431,39.0,-281.0,-151.0,0
3432,34.0,-291.0,-154.0,0
3433,20.0,-300.0,-157.0,0
3434,7.0,-313.0,-150.0,0
3435,3.0,-323.0,-150.0,0
3436,6.0,-341.0,-147.0,0
3437,21.0,-355.0,-149.0,0
3438,39.0,-372.0,-159.0,0
3439,32.0,-387.0,-152.0,0
3440,26.0,-410.0,-148.0,0
3441,6.0,-432.0,-136.0,0
3442,-20.0,-450.0,-140.0,0
3443,-43.0,-460.0,-157.0,0
3444,-74.0,-465.0,-159.0,0
3445,-79.0,-472.0,-163.0,0
3446,-78.0,-473.0,-153.0,0
3447,-83.0,-469.0,-128.0,0
3448,-80.0,-459.0,-110.0,0
3449,-67.0,-445.0,-93.0,0
3450,-49.0,-432.0,-76.0,0
3451,-43.0,-419.0,-68.0,0
3452,-33.0,-402.0,-55.0,0
3453,-17.0,-393.0,-53.0,0
3454,-12.0,-380.0,-47.0,0
3455,2.0,-369.0,-46.0,0
3456,15.0,-357.0,-50.0,0
3457,33.0,-337.0,-55.0,0
3458,50.0,-320.0,-58.0,0
3459,55.0,-300.0,-61.0,0
3460,62.0,-277.0,-68.0,0
3461,75.0,-251.0,-81.0,0
3462,77.0,-231.0,-89.0,0
3463,74.0,-209.0,-100.0,0
3464,69.0,-187.0,-115.0,0
3465,65.0,-173.0,-117.0,0
3466,58.0,-165.0,-113.0,0
3467,53.0,-166.0,-112.0,0
3468,50.0,-179.0,-102.0,0
3469,43.0,-189.0,-101.0,0
3470,39.0,-214.0,-97.0,0
3471,32.0,-240.0,-99.0,0
3472,28.0,-260.0,-91.0,0
3473,18.0,-279.0,-93.0,0
3474,6.0,-292.0,-93.0,0
3475,-2.0,-299.0,-94.0,0
3476,-8.0,-298.0,-94.0,0
3477,-15.0,-288.0,-88.0,0
3478,-15.0,-279.0,-86.0,0
3479,-16.0,-263.0,-92.0,0
3480,-14.0,-249.0,-92.0,0
3481,-10.0,-232.0,-91.0,0
3482,-3.0,-216.0,-94.0,0
3483,3.0,-199.0,-93.0,0
3484,8.0,-188.0,-93.0,0
3485,13.0,-180.0,-99.0,0
3486,19.0,-169.0,-101.0,0
3487,25.0,-168.0,-93.0,0
3488,28.0,-165.0,-93.0,0
3489,36.0,-160.0,-94.0,0
3490,41.0,-161.0,-95.0,0
3491,45.0,-167.0,-96.0,0
3492,46.0,-165.0,-100.0,0
3493,47.0,-171.0,-96.0,0
3494,48.0,-178.0,-92.0,0
3495,47.0,-179.0,-90.0,0
3496,48.0,-183.0,-89.0,0
3497,41.0,-193.0,-83.0,0
3498,42.0,-205.0,-79.0,0
3499,37.0,-212.0,-72.0,0
3500,32.0,-218.0,-71.0,0
3501,29.0,-226.0,-72.0,0
3502,24.0,-224.0,-75.0,0
3503,23.0,-229.0,-77.0,0
3504,18.0,-218.0,-81.0,0
3505,14.0,-214.0,-87.0,0
3506,10.0,-207.0,-88.0,0
3507,4.0,-198.0,-88.0,0
3508,-1.0,-192.0,-85.0,0
3509,-4.0,-192.0,-84.0,0
3510,-7.0,-186.0,-79.0,0
3511,-15.0,-184.0,-76.0,0
3512,-14.0,-181.0,-76.0,0
3513,-13.0,-183.0,-70.0,0
3514,-6.0,-185.0,-69.0,0
3515,-6.0,-184.0,-59.0,0
3516,-1.0,-185.0,-50.0,0
3517,5.0,-190.0,-56.0,0
3518,9.0,-196.0,-56.0,0
3519,21.0,-201.0,-56.0,0
3520,25.0,-211.0,-60.0,0
3521,20.0,-211.0,-67.0,0
3522,21.0,-205.0,-72.0,0
3523,18.0,-200.0,-76.0,0
3524,17.0,-193.0,-78.0,0
3525,14.0,-189.0,-81.0,0
3526,11.0,-187.0,-84.0,0
3527,8.0,-187.0,-85.0,0
3528,7.0,-193.0,-85.0,0
3529,8.0,-200.0,-81.0,0
3530,7.0,-207.0,-79.0,0
3531,3.0,-212.0,-79.0,0
3532,5.0,-216.0,-78.0,0
3533,8.0,-216.0,-77.0,0
3534,10.0,-221.0,-79.0,0
3535,9.0,-219.0,-79.0,0
3536,18.0,-219.0,-70.0,0
3537,20.0,-217.0,-63.0,0
3538,21.0,-213.0,-61.0,0
3539,25.0,-206.0,-58.0,0
3540,20.0,-202.0,-62.0,0
3541,20.0,-197.0,-64.0,0
3542,17.0,-193.0,-71.0,0
3543,13.0,-190.0,-68.0,0
3544,9.0,-191.0,-76.0,0
3545,6.0,-197.0,-77.0,0
3546,7.0,-199.0,-81.0,0
3547,13.0,-209.0,-79.0,0
3548,12.0,-216.0,-84.0,0
3549,11.0,-229.0,-79.0,0
3550,10.0,-237.0,-81.0,0
3551,7.0,-249.0,-78.0,0
3552,3.0,-257.0,-75.0,0
3553,6.0,-269.0,-76.0,0
3554,3.0,-272.0,-76.0,0
3555,7.0,-276.0,-74.0,0
3556,11.0,-273.0,-75.0,0
3557,18.0,-266.0,-72.0,0
3558,23.0,-266.0,-62.0,0
3559,28.0,-264.0,-55.0,0
3560,30.0,-263.0,-48.0,0
3561,30.0,-261.0,-39.0,0
3562,34.0,-262.0,-38.0,0
3563,24.0,-261.0,-38.0,0
3564,24.0,-262.0,-34.0,0
3565,27.0,-265.0,-44.0,0
3566,32.0,-267.0,-47.0,0
3567,31.0,-267.0,-57.0,0
3568,38.0,-269.0,-72.0,0
3569,27.0,-258.0,-72.0,0
3570,19.0,-254.0,-67.0,0
3571,14.0,-253.0,-70.0,0
3572,13.0,-261.0,-69.0,0
3573,16.0,-273.0,-77.0,0
3574,21.0,-284.0,-89.0,0
3575,29.0,-294.0,-103.0,0
3576,25.0,-300.0,-111.0,0
3577,24.0,-311.0,-114.0,0
3578,16.0,-323.0,-113.0,0
3579,9.0,-339.0,-122.0,0
3580,8.0,-353.0,-136.0,0
3581,8.0,-365.0,-152.0,0
3582,6.0,-371.0,-165.0,0
3583,2.0,-372.0,-175.0,0
3584,-3.0,-374.0,-173.0,0
3585,-12.0,-370.0,-164.0,0
3586,-13.0,-363.0,-142.0,0
3587,-14.0,-354.0,-126.0,0
3588,-15.0,-350.0,-102.0,0
3589,-17.0,-344.0,-94.0,0
3590,-17.0,-345.0,-92.0,0
3591,-20.0,-349.0,-108.0,0
3592,-30.0,-355.0,-128.0,0
3593,-43.0,-351.0,-159.0,0
3594,-61.0,-342.0,-188.0,0
3595,-77.0,-336.0,-203.0,0
3596,-93.0,-326.0,-210.0,0
3597,-104.0,-322.0,-193.0,0
3598,-101.0,-330.0,-164.0,0
3599,-85.0,-339.0,-133.0,0
3600,-69.0,-350.0,-108.0,0
3601,-58.0,-350.0,-79.0,0
3602,-46.0,-351.0,-65.0,0
3603,-38.0,-340.0,-56.0,0
3604,-32.0,-321.0,-56.0,0
3605,-23.0,-311.0,-55.0,0
3606,-2.0,-295.0,-73.0,0
3607,-11.0,-292.0,-57.0,0
3608,-3.0,-278.0,-56.0,0
3609,-7.0,-276.0,-60.0,0
3610,-8.0,-266.0,-72.0,0
3611,-15.0,-258.0,-72.0,0
3612,-15.0,-246.0,-82.0,0
3613,-16.0,-243.0,-88.0,0
3614,-21.0,-230.0,-95.0,0
3615,-25.0,-222.0,-98.0,0
3616,-28.0,-214.0,-102.0,0
3617,-31.0,-213.0,-111.0,0
3618,-35.0,-210.0,-109.0,0
3619,-36.0,-218.0,-109.0,0
3620,-52.0,-232.0,-101.0,0
3621,-49.0,-235.0,-102.0,0
3622,-51.0,-242.0,-93.0,0
3623,-51.0,-249.0,-94.0,0
3624,-49.0,-255.0,-92.0,0
3625,-49.0,-258.0,-89.0,0
3626,-40.0,-257.0,-87.0,0
3627,-38.0,-253.0,-86.0,0
3628,-33.0,-252.0,-84.0,0
3629,-30.0,-245.0,-84.0,0
3630,-27.0,-237.0,-81.0,0
3631,-17.0,-225.0,-81.0,0
3632,-21.0,-219.0,-76.0,0
3633,-17.0,-209.0,-71.0,0
3634,-21.0,-203.0,-74.0,0
3635,-16.0,-198.0,-78.0,0
3636,-20.0,-197.0,-74.0,0
3637,-19.0,-192.0,-68.0,0
3638,-24.0,-190.0,-74.0,0
3639,-27.0,-194.0,-73.0,0
3640,-31.0,-197.0,-73.0,0
3641,-37.0,-200.0,-80.0,0
3642,-40.0,-208.0,-92.0,0
3643,-46.0,-209.0,-88.0,0
3644,-45.0,-220.0,-97.0,0
3645,-50.0,-228.0,-98.0,0
3646,-50.0,-234.0,-99.0,0
3647,-53.0,-238.0,-98.0,0
3648,-53.0,-243.0,-95.0,0
3649,-51.0,-242.0,-102.0,0
3650,-47.0,-244.0,-98.0,0
3651,-47.0,-244.0,-95.0,0
3652,-46.0,-237.0,-96.0,0
3653,-42.0,-238.0,-92.0,0
3654,-43.0,-231.0,-91.0,0
3655,-41.0,-231.0,-88.0,0
3656,-37.0,-234.0,-89.0,0
3657,-41.0,-228.0,-87.0,0
3658,-38.0,-233.0,-87.0,0
3659,-36.0,-233.0,-83.0,0
3660,-35.0,-233.0,-81.0,0
3661,-37.0,-235.0,-82.0,0
3662,-39.0,-232.0,-84.0,0
3663,-40.0,-234.0,-79.0,0
3664,-43.0,-233.0,-79.0,0
3665,-43.0,-238.0,-83.0,0
3666,-41.0,-233.0,-89.0,0
3667,-42.0,-234.0,-87.0,0
3668,-38.0,-233.0,-88.0,0
3669,-41.0,-231.0,-91.0,0
3670,-40.0,-228.0,-89.0,0
3671,-38.0,-225.0,-88.0,0
3672,-33.0,-223.0,-92.0,0
3673,-37.0,-217.0,-91.0,0
3674,-35.0,-210.0,-85.0,0
3675,-34.0,-212.0,-89.0,0
3676,-28.0,-206.0,-81.0,0
3677,-25.0,-203.0,-79.0,0
3678,-24.0,-205.0,-77.0,0
3679,-20.0,-202.0,-79.0,0
3680,-15.0,-202.0,-74.0,0
3681,-15.0,-199.0,-73.0,0
3682,-15.0,-195.0,-72.0,0
3683,-12.0,-193.0,-77.0,0
3684,-14.0,-193.0,-78.0,0
3685,-16.0,-195.0,-79.0,0
3686,-18.0,-191.0,-81.0,0
3687,-18.0,-193.0,-82.0,0
3688,-22.0,-191.0,-81.0,0
3689,-20.0,-190.0,-91.0,0
3690,-24.0,-186.0,-90.0,0
3691,-26.0,-188.0,-94.0,0
3692,-21.0,-186.0,-97.0,0
3693,-23.0,-184.0,-96.0,0
3694,-16.0,-183.0,-99.0,0
3695,-16.0,-179.0,-96.0,0
3696,-16.0,-182.0,-91.0,0
3697,-16.0,-185.0,-96.0,0
3698,-17.0,-182.0,-91.0,0
3699,-21.0,-182.0,-92.0,0
3700,-20.0,-182.0,-88.0,0
3701,-23.0,-184.0,-86.0,0
3702,-29.0,-182.0,-82.0,0
3703,-30.0,-185.0,-79.0,0
3704,-34.0,-185.0,-74.0,0
3705,-37.0,-185.0,-74.0,0
3706,-38.0,-189.0,-78.0,0
3707,-43.0,-184.0,-82.0,0
3708,-44.0,-187.0,-89.0,0
3709,-42.0,-186.0,-91.0,0
3710,-41.0,-185.0,-94.0,0
3711,-34.0,-188.0,-89.0,0
3712,-28.0,-190.0,-94.0,0
3713,-18.0,-191.0,-94.0,0
3714,-13.0,-191.0,-95.0,0
3715,-3.0,-191.0,-99.0,0
3716,3.0,-189.0,-107.0,0
3717,3.0,-193.0,-106.0,0
3718,4.0,-190.0,-107.0,0
3719,3.0,-189.0,-107.0,0
3720,6.0,-193.0,-100.0,0
3721,2.0,-201.0,-96.0,0
3722,6.0,-209.0,-93.0,0
3723,6.0,-221.0,-87.0,0
3724,0.0,-234.0,-79.0,0
3725,-1.0,-247.0,-69.0,0
3726,-6.0,-255.0,-64.0,0
3727,-15.0,-268.0,-55.0,0
3728,-16.0,-280.0,-55.0,0
3729,-30.0,-288.0,-54.0,0
3730,-35.0,-285.0,-50.0,0
3731,-37.0,-298.0,-64.0,0
3732,-46.0,-294.0,-76.0,0
3733,-53.0,-290.0,-81.0,0
3734,-60.0,-284.0,-86.0,0
3735,-64.0,-276.0,-96.0,0
3736,-64.0,-271.0,-93.0,0
3737,-60.0,-264.0,-92.0,0
3738,-51.0,-260.0,-91.0,0
3739,-44.0,-260.0,-84.0,0
3740,-42.0,-256.0,-76.0,0
3741,-40.0,-259.0,-66.0,0
3742,-43.0,-258.0,-68.0,0
3743,-47.0,-265.0,-73.0,0
3744,-55.0,-263.0,-83.0,0
3745,-47.0,-267.0,-95.0,0
3746,-35.0,-266.0,-112.0,0
3747,-20.0,-276.0,-129.0,0
3748,-14.0,-287.0,-137.0,0
3749,-16.0,-294.0,-140.0,0
3750,-14.0,-307.0,-132.0,0
3751,-13.0,-307.0,-127.0,0
3752,-11.0,-303.0,-141.0,0
3753,-7.0,-303.0,-162.0,0
3754,-11.0,-299.0,-182.0,0
3755,-16.0,-298.0,-188.0,0
3756,-30.0,-302.0,-182.0,0
3757,-41.0,-313.0,-166.0,0
3758,-44.0,-326.0,-144.0,0
3759,-40.0,-336.0,-130.0,0
3760,-30.0,-346.0,-117.0,0
3761,-7.0,-349.0,-105.0,0
3762,11.0,-346.0,-94.0,0
3763,23.0,-339.0,-97.0,0
3764,38.0,-329.0,-95.0,0
3765,50.0,-330.0,-112.0,0
3766,53.0,-325.0,-138.0,0
3767,50.0,-331.0,-168.0,0
3768,34.0,-335.0,-185.0,0
3769,12.0,-345.0,-195.0,0
3770,-7.0,-351.0,-203.0,0
3771,-16.0,-366.0,-195.0,0
3772,-25.0,-373.0,-174.0,0
3773,-31.0,-380.0,-148.0,0
3774,-29.0,-382.0,-121.0,0
3775,-26.0,-382.0,-94.0,0
3776,-26.0,-375.0,-82.0,0
3777,-29.0,-363.0,-71.0,0
3778,-29.0,-356.0,-80.0,0
3779,-30.0,-344.0,-88.0,0
3780,-30.0,-340.0,-98.0,0
3781,-25.0,-333.0,-97.0,0
3782,-22.0,-337.0,-88.0,0
3783,-15.0,-342.0,-74.0,0
3784,-13.0,-343.0,-64.0,0
3785,-3.0,-341.0,-61.0,0
3786,3.0,-334.0,-59.0,0
3787,12.0,-319.0,-75.0,0
3788,19.0,-301.0,-86.0,0
3789,20.0,-275.0,-100.0,0
3790,20.0,-253.0,-106.0,0
3791,20.0,-230.0,-112.0,0
3792,15.0,-212.0,-115.0,0
3793,15.0,-195.0,-116.0,0
3794,12.0,-187.0,-112.0,0
3795,11.0,-185.0,-107.0,0
3796,9.0,-186.0,-105.0,0
3797,8.0,-196.0,-95.0,0
3798,4.0,-204.0,-91.0,0
3799,2.0,-212.0,-82.0,0
3800,0.0,-219.0,-84.0,0
3801,4.0,-228.0,-84.0,0
3802,0.0,-232.0,-93.0,0
3803,-3.0,-225.0,-95.0,0
3804,-6.0,-220.0,-99.0,0
3805,-5.0,-216.0,-97.0,0
3806,-7.0,-209.0,-88.0,0
3807,-8.0,-201.0,-91.0,0
3808,-6.0,-196.0,-88.0,0
3809,-5.0,-190.0,-89.0,0
3810,1.0,-183.0,-96.0,0
3811,5.0,-178.0,-98.0,0
3812,9.0,-172.0,-100.0,0
3813,9.0,-174.0,-102.0,0
3814,14.0,-175.0,-98.0,0
3815,19.0,-178.0,-101.0,0
3816,25.0,-179.0,-103.0,0
3817,28.0,-186.0,-105.0,0
3818,31.0,-190.0,-105.0,0
3819,32.0,-193.0,-109.0,0
3820,29.0,-198.0,-108.0,0
3821,30.0,-201.0,-108.0,0
3822,31.0,-204.0,-108.0,0
3823,27.0,-208.0,-107.0,0
3824,28.0,-212.0,-103.0,0
3825,27.0,-218.0,-95.0,0
3826,25.0,-224.0,-86.0,0
3827,20.0,-232.0,-87.0,0
3828,15.0,-235.0,-88.0,0
3829,9.0,-233.0,-85.0,0
3830,1.0,-231.0,-90.0,0
3831,0.0,-231.0,-83.0,0
3832,-7.0,-233.0,-79.0,0
3833,-4.0,-232.0,-86.0,0
3834,-8.0,-227.0,-79.0,0
3835,-1.0,-228.0,-80.0,0
3836,-2.0,-224.0,-77.0,0
3837,-1.0,-210.0,-89.0,0
3838,-5.0,-224.0,-76.0,0
3839,-4.0,-227.0,-71.0,0
3840,-4.0,-220.0,-74.0,0
3841,-5.0,-221.0,-72.0,0
3842,-5.0,-217.0,-70.0,0
3843,-8.0,-214.0,-77.0,0
3844,-7.0,-210.0,-80.0,0
3845,-8.0,-206.0,-79.0,0
3846,-4.0,-207.0,-83.0,0
3847,-9.0,-205.0,-88.0,0
3848,-7.0,-199.0,-82.0,0
3849,-9.0,-194.0,-81.0,0
3850,-9.0,-190.0,-68.0,0
3851,-9.0,-189.0,-71.0,0
3852,-6.0,-183.0,-66.0,0
3853,-1.0,-180.0,-67.0,0
3854,-3.0,-184.0,-69.0,0
3855,-7.0,-182.0,-70.0,0
3856,-7.0,-180.0,-80.0,0
3857,-8.0,-172.0,-86.0,0
3858,0.0,-177.0,-102.0,0
3859,1.0,-168.0,-106.0,0
3860,8.0,-166.0,-107.0,0
3861,12.0,-169.0,-109.0,0
3862,19.0,-171.0,-107.0,0
3863,19.0,-173.0,-101.0,0
3864,23.0,-179.0,-91.0,0
3865,22.0,-183.0,-84.0,0
3866,22.0,-186.0,-86.0,0
3867,23.0,-186.0,-89.0,0
3868,22.0,-189.0,-89.0,0
3869,27.0,-191.0,-89.0,0
3870,28.0,-192.0,-91.0,0
3871,28.0,-194.0,-92.0,0
3872,27.0,-197.0,-91.0,0
3873,25.0,-195.0,-90.0,0
3874,28.0,-204.0,-90.0,0
3875,29.0,-207.0,-89.0,0
3876,22.0,-208.0,-87.0,0
3877,15.0,-215.0,-75.0,0
3878,11.0,-220.0,-73.0,0
3879,6.0,-227.0,-66.0,0
3880,0.0,-232.0,-56.0,0
3881,-2.0,-241.0,-53.0,0
3882,-1.0,-243.0,-48.0,0
3883,-1.0,-247.0,-48.0,0
3884,3.0,-252.0,-58.0,0
3885,0.0,-251.0,-66.0,0
3886,-7.0,-250.0,-68.0,0
3887,-13.0,-244.0,-74.0,0
3888,-15.0,-247.0,-80.0,0
3889,-17.0,-249.0,-84.0,0
3890,-15.0,-251.0,-92.0,0
3891,-13.0,-254.0,-89.0,0
3892,-13.0,-263.0,-85.0,0
3893,-14.0,-272.0,-71.0,0
3894,-16.0,-276.0,-59.0,0
3895,-14.0,-278.0,-51.0,0
3896,-12.0,-282.0,-49.0,0
3897,-7.0,-281.0,-52.0,0
3898,3.0,-284.0,-52.0,0
3899,9.0,-279.0,-51.0,0
3900,18.0,-280.0,-53.0,0
3901,22.0,-278.0,-54.0,0
3902,22.0,-282.0,-56.0,0
3903,18.0,-286.0,-40.0,0
3904,3.0,-289.0,-42.0,0
3905,-3.0,-300.0,-42.0,0
3906,-7.0,-311.0,-58.0,0
3907,-10.0,-314.0,-85.0,0
3908,-13.0,-315.0,-109.0,0
3909,-16.0,-317.0,-123.0,0
3910,-16.0,-315.0,-131.0,0
3911,-16.0,-312.0,-131.0,0
3912,-12.0,-309.0,-133.0,0
3913,0.0,-311.0,-139.0,0
3914,2.0,-314.0,-147.0,0
3915,2.0,-315.0,-153.0,0
3916,4.0,-328.0,-153.0,0
3917,6.0,-335.0,-149.0,0
3918,11.0,-345.0,-144.0,0
3919,15.0,-354.0,-135.0,0
3920,15.0,-367.0,-125.0,0
3921,12.0,-378.0,-127.0,0
3922,6.0,-386.0,-138.0,0
3923,-4.0,-389.0,-164.0,0
3924,-23.0,-394.0,-182.0,0
3925,-41.0,-396.0,-188.0,0
3926,-65.0,-399.0,-186.0,0
3927,-90.0,-401.0,-174.0,0
3928,-101.0,-394.0,-165.0,0
3929,-110.0,-385.0,-156.0,0
3930,-103.0,-374.0,-152.0,0
3931,-79.0,-356.0,-143.0,0
3932,-66.0,-334.0,-135.0,0
3933,-54.0,-315.0,-121.0,0
3934,-42.0,-304.0,-115.0,0
3935,-29.0,-287.0,-107.0,0
3936,-19.0,-281.0,-97.0,0
3937,-14.0,-279.0,-83.0,0
3938,-13.0,-275.0,-75.0,0
3939,-8.0,-276.0,-77.0,0
3940,-15.0,-274.0,-78.0,0
3941,-16.0,-271.0,-78.0,0
3942,-17.0,-270.0,-84.0,0
3943,-18.0,-267.0,-86.0,0
3944,-23.0,-261.0,-92.0,0
3945,-26.0,-256.0,-97.0,0
3946,-29.0,-248.0,-98.0,0
3947,-33.0,-242.0,-102.0,0
3948,-30.0,-235.0,-109.0,0
3949,-33.0,-227.0,-114.0,0
3950,-38.0,-223.0,-116.0,0
3951,-39.0,-218.0,-113.0,0
3952,-37.0,-219.0,-113.0,0
3953,-33.0,-223.0,-111.0,0
3954,-34.0,-223.0,-114.0,0
3955,-27.0,-233.0,-114.0,0
3956,-22.0,-236.0,-114.0,0
3957,-16.0,-243.0,-115.0,0
3958,-14.0,-243.0,-115.0,0
3959,-12.0,-246.0,-114.0,0
3960,-12.0,-241.0,-113.0,0
3961,-11.0,-241.0,-110.0,0
3962,-11.0,-236.0,-112.0,0
3963,-26.0,-222.0,-104.0,0
3964,-41.0,-215.0,-98.0,0
3965,-70.0,-203.0,-101.0,0
3966,-44.0,-205.0,-107.0,0
3967,-33.0,-206.0,-110.0,0
3968,-40.0,-205.0,-104.0,0
3969,-61.0,-201.0,-99.0,0
3970,-86.0,-196.0,-95.0,0
3971,-107.0,-188.0,-100.0,0
3972,-106.0,-189.0,-112.0,0
3973,-98.0,-193.0,-111.0,0
3974,-94.0,-191.0,-108.0,0
3975,-88.0,-188.0,-106.0,0
3976,-79.0,-182.0,-106.0,0
3977,-65.0,-185.0,-106.0,0
3978,-54.0,-185.0,-103.0,0
3979,-60.0,-187.0,-104.0,0
3980,-51.0,-199.0,-103.0,0
3981,-48.0,-205.0,-108.0,0
3982,-46.0,-214.0,-112.0,0
3983,-43.0,-224.0,-110.0,0
3984,-42.0,-232.0,-114.0,0
3985,-36.0,-245.0,-113.0,0
3986,-34.0,-250.0,-113.0,0
3987,-30.0,-254.0,-110.0,0
3988,-29.0,-261.0,-111.0,0
3989,-23.0,-261.0,-113.0,0
3990,-18.0,-261.0,-115.0,0
3991,-24.0,-256.0,-113.0,0
3992,-28.0,-253.0,-116.0,0
3993,-27.0,-258.0,-117.0,0
3994,-25.0,-255.0,-120.0,0
3995,-27.0,-259.0,-115.0,0
3996,-32.0,-255.0,-117.0,0
3997,-29.0,-256.0,-114.0,0
3998,-30.0,-251.0,-116.0,0
3999,-30.0,-250.0,-110.0,0
4000,-34.0,-242.0,-113.0,0
4001,-36.0,-243.0,-109.0,0
4002,-43.0,-235.0,-105.0,0
4003,-46.0,-226.0,-103.0,0
4004,-48.0,-220.0,-103.0,0
4005,-49.0,-214.0,-100.0,0
4006,-49.0,-208.0,-97.0,0
4007,-43.0,-208.0,-94.0,0
4008,-41.0,-211.0,-96.0,0
4009,-35.0,-218.0,-91.0,0
4010,-32.0,-231.0,-92.0,0
4011,-29.0,-240.0,-92.0,0
4012,-26.0,-247.0,-91.0,0
4013,-33.0,-250.0,-89.0,0
4014,-35.0,-254.0,-90.0,0
4015,-34.0,-252.0,-92.0,0
4016,-34.0,-246.0,-95.0,0
4017,-36.0,-243.0,-97.0,0
4018,-42.0,-236.0,-98.0,0
4019,-43.0,-232.0,-98.0,0
4020,-43.0,-228.0,-101.0,0
4021,-43.0,-228.0,-97.0,0
4022,-47.0,-229.0,-94.0,0
4023,-45.0,-230.0,-96.0,0
4024,-48.0,-231.0,-98.0,0
4025,-46.0,-233.0,-93.0,0
4026,-47.0,-234.0,-94.0,0
4027,-41.0,-239.0,-98.0,0
4028,-40.0,-242.0,-91.0,0
4029,-38.0,-244.0,-95.0,0
4030,-34.0,-244.0,-91.0,0
4031,-30.0,-248.0,-90.0,0
4032,-30.0,-247.0,-89.0,0
4033,-24.0,-246.0,-93.0,0
4034,-22.0,-252.0,-91.0,0
4035,-24.0,-247.0,-98.0,0
4036,-28.0,-247.0,-98.0,0
4037,-34.0,-244.0,-100.0,0
4038,-45.0,-241.0,-98.0,0
4039,-44.0,-241.0,-102.0,0
4040,-45.0,-236.0,-103.0,0
4041,-43.0,-234.0,-103.0,0
4042,-39.0,-232.0,-106.0,0
4043,-34.0,-229.0,-109.0,0
4044,-26.0,-233.0,-103.0,0
4045,-19.0,-232.0,-106.0,0
4046,-16.0,-238.0,-105.0,0
4047,-16.0,-234.0,-101.0,0
4048,-13.0,-237.0,-97.0,0
4049,-11.0,-235.0,-103.0,0
4050,-9.0,-237.0,-103.0,0
4051,-10.0,-234.0,-109.0,0
4052,-9.0,-232.0,-114.0,0
4053,-11.0,-225.0,-109.0,0
4054,-11.0,-223.0,-111.0,0
4055,-12.0,-222.0,-111.0,0
4056,-12.0,-217.0,-105.0,0
4057,-5.0,-215.0,-103.0,0
4058,-4.0,-212.0,-100.0,0
4059,-2.0,-206.0,-98.0,0
4060,0.0,-200.0,-94.0,0
4061,1.0,-200.0,-90.0,0
4062,3.0,-198.0,-84.0,0
4063,4.0,-190.0,-82.0,0
4064,4.0,-195.0,-73.0,0
4065,-3.0,-194.0,-76.0,0
4066,-3.0,-193.0,-78.0,0
4067,-2.0,-194.0,-80.0,0
4068,0.0,-190.0,-82.0,0
4069,-2.0,-188.0,-81.0,0
4070,0.0,-187.0,-88.0,0
4071,5.0,-189.0,-80.0,0
4072,9.0,-188.0,-77.0,0
4073,9.0,-186.0,-77.0,0
4074,13.0,-193.0,-70.0,0
4075,19.0,-188.0,-91.0,0
4076,13.0,-194.0,-62.0,0
4077,13.0,-193.0,-65.0,0
4078,18.0,-190.0,-62.0,0
4079,17.0,-192.0,-63.0,0
4080,14.0,-191.0,-66.0,0
4081,11.0,-191.0,-71.0,0
4082,5.0,-190.0,-67.0,0
4083,4.0,-195.0,-71.0,0
4084,2.0,-204.0,-65.0,0
4085,1.0,-210.0,-60.0,0
4086,4.0,-235.0,-67.0,0
4087,-5.0,-229.0,-55.0,0
4088,-8.0,-230.0,-56.0,0
4089,-14.0,-232.0,-64.0,0
4090,-15.0,-230.0,-68.0,0
4091,-15.0,-228.0,-72.0,0
4092,-16.0,-223.0,-83.0,0
4093,-16.0,-221.0,-84.0,0
4094,-15.0,-210.0,-84.0,0
4095,-11.0,-209.0,-85.0,0
4096,-8.0,-205.0,-86.0,0
4097,-8.0,-202.0,-87.0,0
4098,-3.0,-201.0,-88.0,0
4099,-3.0,-199.0,-87.0,0
4100,-2.0,-200.0,-85.0,0
4101,-1.0,-202.0,-79.0,0
4102,1.0,-203.0,-77.0,0
4103,0.0,-204.0,-70.0,0
4104,0.0,-210.0,-61.0,0
4105,-5.0,-214.0,-55.0,0
4106,-13.0,-220.0,-50.0,0
4107,-19.0,-220.0,-42.0,0
4108,-23.0,-223.0,-41.0,0
4109,-33.0,-223.0,-42.0,0
4110,-43.0,-225.0,-43.0,0
4111,-53.0,-224.0,-48.0,0
4112,-56.0,-225.0,-51.0,0
4113,-53.0,-230.0,-56.0,0
4114,-48.0,-231.0,-67.0,0
4115,-50.0,-234.0,-77.0,0
4116,-44.0,-244.0,-86.0,0
4117,-39.0,-249.0,-95.0,0
4118,-35.0,-259.0,-99.0,0
4119,-30.0,-267.0,-116.0,0
4120,-24.0,-272.0,-127.0,0
4121,-13.0,-276.0,-160.0,0
4122,-5.0,-279.0,-184.0,0
4123,2.0,-286.0,-205.0,0
4124,-2.0,-289.0,-225.0,0
4125,-9.0,-302.0,-240.0,0
4126,-6.0,-316.0,-244.0,0
4127,5.0,-348.0,-242.0,0
4128,19.0,-384.0,-225.0,0
4129,38.0,-424.0,-211.0,0
4130,49.0,-460.0,-196.0,0
4131,45.0,-500.0,-182.0,0
4132,20.0,-519.0,-177.0,0
4133,-10.0,-526.0,-189.0,0
4134,-35.0,-523.0,-209.0,0
4135,-56.0,-512.0,-221.0,0
4136,-54.0,-502.0,-215.0,0
4137,-42.0,-486.0,-178.0,0
4138,-17.0,-469.0,-140.0,0
4139,-6.0,-448.0,-108.0,0
4140,5.0,-418.0,-96.0,0
4141,11.0,-383.0,-94.0,0
4142,13.0,-342.0,-106.0,0
4143,18.0,-298.0,-109.0,0
4144,18.0,-254.0,-98.0,0
4145,19.0,-209.0,-92.0,0
4146,22.0,-184.0,-89.0,0
4147,23.0,-172.0,-90.0,0
4148,37.0,-176.0,-111.0,0
4149,40.0,-187.0,-127.0,0
4150,38.0,-193.0,-135.0,0
4151,35.0,-197.0,-139.0,0
4152,37.0,-203.0,-122.0,0
4153,35.0,-211.0,-106.0,0
4154,40.0,-217.0,-86.0,0
4155,48.0,-220.0,-80.0,0
4156,52.0,-220.0,-74.0,0
4157,58.0,-220.0,-73.0,0
4158,54.0,-218.0,-77.0,0
4159,49.0,-217.0,-88.0,0
4160,43.0,-219.0,-99.0,0
4161,31.0,-222.0,-113.0,0
4162,17.0,-234.0,-114.0,0
4163,5.0,-239.0,-118.0,0
4164,3.0,-242.0,-119.0,0
4165,-3.0,-248.0,-117.0,0
4166,-5.0,-247.0,-119.0,0
4167,-9.0,-245.0,-117.0,0
4168,-7.0,-238.0,-115.0,0
4169,-3.0,-229.0,-111.0,0
4170,3.0,-217.0,-118.0,0
4171,10.0,-206.0,-117.0,0
4172,14.0,-200.0,-113.0,0
4173,22.0,-195.0,-119.0,0
4174,30.0,-189.0,-117.0,0
4175,34.0,-190.0,-119.0,0
4176,42.0,-194.0,-119.0,0
4177,46.0,-196.0,-118.0,0
4178,52.0,-208.0,-117.0,0
4179,53.0,-216.0,-115.0,0
4180,53.0,-220.0,-107.0,0
4181,53.0,-231.0,-109.0,0
4182,55.0,-239.0,-106.0,0
4183,56.0,-239.0,-106.0,0
4184,55.0,-247.0,-109.0,0
4185,53.0,-248.0,-101.0,0
4186,49.0,-247.0,-101.0,0
4187,43.0,-249.0,-96.0,0
4188,39.0,-249.0,-88.0,0
4189,32.0,-251.0,-93.0,0
4190,29.0,-249.0,-92.0,0
4191,26.0,-250.0,-91.0,0
4192,23.0,-248.0,-93.0,0
4193,26.0,-248.0,-96.0,0
4194,28.0,-247.0,-98.0,0
4195,33.0,-247.0,-96.0,0
4196,41.0,-248.0,-99.0,0
4197,41.0,-247.0,-98.0,0
4198,45.0,-247.0,-99.0,0
4199,48.0,-251.0,-99.0,0
4200,44.0,-249.0,-99.0,0
4201,44.0,-250.0,-93.0,0
4202,36.0,-252.0,-95.0,0
4203,33.0,-260.0,-90.0,0
4204,24.0,-257.0,-89.0,0
4205,16.0,-256.0,-89.0,0
4206,10.0,-254.0,-86.0,0
4207,9.0,-251.0,-83.0,0
4208,5.0,-248.0,-84.0,0
4209,0.0,-239.0,-77.0,0
4210,2.0,-235.0,-76.0,0
4211,7.0,-229.0,-75.0,0
4212,9.0,-225.0,-72.0,0
4213,8.0,-222.0,-69.0,0
4214,14.0,-232.0,-75.0,0
4215,34.0,-244.0,-89.0,0
4216,52.0,-253.0,-122.0,0
4217,66.0,-257.0,-179.0,0
4218,74.0,-258.0,-227.0,0
4219,71.0,-244.0,-248.0,0
4220,67.0,-240.0,-240.0,0
4221,72.0,-244.0,-209.0,0
4222,78.0,-253.0,-174.0,0
4223,91.0,-280.0,-155.0,0
4224,87.0,-291.0,-145.0,0
4225,86.0,-296.0,-143.0,0
4226,81.0,-285.0,-151.0,0
4227,70.0,-273.0,-150.0,0
4228,55.0,-255.0,-152.0,0
4229,44.0,-237.0,-146.0,0
4230,34.0,-224.0,-139.0,0
4231,13.0,-214.0,-127.0,0
4232,-1.0,-207.0,-122.0,0
4233,-11.0,-199.0,-107.0,0
4234,-16.0,-193.0,-98.0,0
4235,-22.0,-191.0,-91.0,0
4236,-21.0,-185.0,-79.0,0
4237,-16.0,-188.0,-75.0,0
4238,-10.0,-188.0,-71.0,0
4239,-2.0,-191.0,-70.0,0
4240,5.0,-195.0,-66.0,0
4241,13.0,-201.0,-66.0,0
4242,19.0,-214.0,-70.0,0
4243,22.0,-221.0,-75.0,0
4244,22.0,-233.0,-77.0,0
4245,25.0,-243.0,-78.0,0
4246,22.0,-255.0,-76.0,0
4247,19.0,-268.0,-80.0,0
4248,15.0,-280.0,-75.0,0
4249,10.0,-277.0,-72.0,0
4250,7.0,-293.0,-74.0,0
4251,2.0,-294.0,-77.0,0
4252,-3.0,-293.0,-78.0,0
4253,-9.0,-289.0,-84.0,0
4254,-7.0,-284.0,-89.0,0
4255,-9.0,-283.0,-100.0,0
4256,-5.0,-275.0,-101.0,0
4257,-4.0,-267.0,-102.0,0
4258,2.0,-262.0,-107.0,0
4259,2.0,-259.0,-102.0,0
4260,9.0,-253.0,-103.0,0
4261,16.0,-249.0,-104.0,0
4262,18.0,-249.0,-105.0,0
4263,26.0,-250.0,-102.0,0
4264,26.0,-249.0,-105.0,0
4265,31.0,-248.0,-105.0,0
4266,30.0,-249.0,-107.0,0
4267,31.0,-245.0,-103.0,0
4268,32.0,-246.0,-105.0,0
4269,40.0,-250.0,-105.0,0
4270,44.0,-248.0,-107.0,0
4271,45.0,-248.0,-108.0,0
4272,47.0,-249.0,-108.0,0
4273,48.0,-251.0,-107.0,0
4274,42.0,-249.0,-101.0,0
4275,40.0,-256.0,-96.0,0
4276,35.0,-258.0,-89.0,0
4277,30.0,-262.0,-84.0,0
4278,25.0,-261.0,-86.0,0
4279,19.0,-259.0,-84.0,0
4280,14.0,-256.0,-79.0,0
4281,5.0,-254.0,-80.0,0
4282,2.0,-248.0,-86.0,0
4283,-2.0,-245.0,-79.0,0
4284,-6.0,-236.0,-83.0,0
4285,-10.0,-232.0,-80.0,0
4286,-5.0,-230.0,-86.0,0
4287,-9.0,-219.0,-86.0,0
4288,-8.0,-215.0,-85.0,0
4289,-7.0,-212.0,-83.0,0
4290,-2.0,-214.0,-82.0,0
4291,1.0,-213.0,-82.0,0
4292,4.0,-212.0,-80.0,0
4293,6.0,-212.0,-78.0,0
4294,9.0,-214.0,-78.0,0
4295,4.0,-211.0,-80.0,0
4296,5.0,-215.0,-89.0,0
4297,3.0,-216.0,-92.0,0
4298,3.0,-219.0,-92.0,0
4299,3.0,-218.0,-105.0,0
4300,-1.0,-217.0,-104.0,0
4301,-3.0,-221.0,-106.0,0
4302,-11.0,-215.0,-111.0,0
4303,-8.0,-222.0,-107.0,0
4304,-12.0,-221.0,-108.0,0
4305,-11.0,-224.0,-107.0,0
4306,-13.0,-228.0,-117.0,0
4307,-8.0,-230.0,-117.0,0
4308,-7.0,-233.0,-116.0,0
4309,-4.0,-237.0,-115.0,0
4310,-6.0,-240.0,-116.0,0
4311,-1.0,-246.0,-116.0,0
4312,2.0,-249.0,-117.0,0
4313,-3.0,-260.0,-112.0,0
4314,1.0,-249.0,-118.0,0
4315,2.0,-249.0,-116.0,0
4316,7.0,-253.0,-123.0,0
4317,9.0,-252.0,-124.0,0
4318,15.0,-257.0,-130.0,0
4319,16.0,-263.0,-133.0,0
4320,18.0,-269.0,-140.0,0
4321,15.0,-275.0,-146.0,0
4322,12.0,-275.0,-150.0,0
4323,10.0,-280.0,-157.0,0
4324,10.0,-291.0,-145.0,0
4325,9.0,-290.0,-152.0,0
4326,6.0,-290.0,-153.0,0
4327,6.0,-292.0,-148.0,0
4328,8.0,-291.0,-137.0,0
4329,13.0,-291.0,-139.0,0
4330,6.0,-287.0,-128.0,0
4331,5.0,-276.0,-128.0,0
4332,4.0,-269.0,-125.0,0
4333,2.0,-259.0,-119.0,0
4334,-2.0,-252.0,-118.0,0
4335,-2.0,-247.0,-116.0,0
4336,-4.0,-240.0,-114.0,0
4337,-6.0,-236.0,-113.0,0
4338,-7.0,-232.0,-107.0,0
4339,-6.0,-231.0,-107.0,0
4340,-5.0,-229.0,-98.0,0
4341,-6.0,-226.0,-94.0,0
4342,-7.0,-224.0,-91.0,0
4343,-7.0,-222.0,-85.0,0
4344,-4.0,-224.0,-84.0,0
4345,-4.0,-225.0,-83.0,0
4346,-4.0,-230.0,-84.0,0
4347,-5.0,-229.0,-79.0,0
4348,-3.0,-229.0,-80.0,0
4349,-2.0,-232.0,-82.0,0
4350,-1.0,-234.0,-78.0,0
4351,-2.0,-235.0,-75.0,0
4352,1.0,-240.0,-77.0,0
4353,1.0,-239.0,-83.0,0
4354,3.0,-237.0,-86.0,0
4355,7.0,-240.0,-87.0,0
4356,9.0,-243.0,-92.0,0
4357,5.0,-242.0,-90.0,0
4358,9.0,-246.0,-93.0,0
4359,11.0,-248.0,-95.0,0
4360,9.0,-245.0,-95.0,0
4361,10.0,-248.0,-92.0,0
4362,10.0,-247.0,-99.0,0
4363,8.0,-249.0,-101.0,0
4364,10.0,-247.0,-96.0,0
4365,9.0,-246.0,-97.0,0
4366,10.0,-243.0,-99.0,0
4367,11.0,-244.0,-99.0,0
4368,11.0,-245.0,-105.0,0
4369,5.0,-242.0,-109.0,0
4370,5.0,-241.0,-109.0,0
4371,6.0,-239.0,-104.0,0
4372,3.0,-242.0,-110.0,0
4373,5.0,-242.0,-111.0,0
4374,2.0,-244.0,-109.0,0
4375,-4.0,-245.0,-110.0,0
4376,-2.0,-247.0,-110.0,0
4377,-1.0,-247.0,-105.0,0
4378,-4.0,-249.0,-110.0,0
4379,-9.0,-248.0,-112.0,0
4380,-8.0,-248.0,-107.0,0
4381,-7.0,-251.0,-111.0,0
4382,-8.0,-247.0,-109.0,0
4383,-4.0,-250.0,-108.0,0
4384,-5.0,-250.0,-110.0,0
4385,-3.0,-250.0,-111.0,0
4386,-1.0,-252.0,-109.0,0
4387,-4.0,-250.0,-112.0,0
4388,-2.0,-253.0,-113.0,0
4389,-3.0,-250.0,-114.0,0
4390,-2.0,-251.0,-114.0,0
4391,-5.0,-251.0,-111.0,0
4392,-5.0,-249.0,-114.0,0
4393,-2.0,-247.0,-116.0,0
4394,3.0,-247.0,-118.0,0
4395,6.0,-247.0,-113.0,0
4396,8.0,-245.0,-114.0,0
4397,7.0,-243.0,-108.0,0
4398,8.0,-243.0,-108.0,0
4399,7.0,-242.0,-107.0,0
4400,9.0,-242.0,-110.0,0
4401,7.0,-245.0,-109.0,0
4402,6.0,-243.0,-105.0,0
4403,7.0,-244.0,-105.0,0
4404,6.0,-245.0,-108.0,0
4405,11.0,-243.0,-105.0,0
4406,11.0,-245.0,-101.0,0
4407,14.0,-248.0,-104.0,0
4408,12.0,-247.0,-103.0,0
4409,10.0,-246.0,-103.0,0
4410,10.0,-245.0,-101.0,0
4411,10.0,-247.0,-106.0,0
4412,13.0,-247.0,-104.0,0
4413,8.0,-246.0,-108.0,0
4414,10.0,-245.0,-105.0,0
4415,10.0,-246.0,-109.0,0
4416,7.0,-243.0,-114.0,0
4417,10.0,-244.0,-107.0,0
4418,6.0,-243.0,-112.0,0
4419,5.0,-240.0,-111.0,0
4420,7.0,-238.0,-112.0,0
4421,12.0,-240.0,-113.0,0
4422,9.0,-238.0,-108.0,0
4423,11.0,-234.0,-104.0,0
4424,14.0,-237.0,-110.0,0
4425,14.0,-239.0,-107.0,0
4426,14.0,-238.0,-114.0,0
4427,12.0,-241.0,-110.0,0
4428,16.0,-241.0,-111.0,0
4429,15.0,-245.0,-114.0,0
4430,14.0,-242.0,-111.0,0
4431,15.0,-243.0,-111.0,0
4432,17.0,-245.0,-114.0,0
4433,14.0,-246.0,-109.0,0
4434,6.0,-244.0,-110.0,0
4435,1.0,-245.0,-109.0,0
4436,-6.0,-246.0,-104.0,0
4437,0.0,-247.0,-106.0,0
4438,2.0,-245.0,-108.0,0
4439,-2.0,-244.0,-104.0,0
4440,-4.0,-245.0,-104.0,0
4441,-3.0,-245.0,-103.0,0
4442,-5.0,-245.0,-102.0,0
4443,1.0,-246.0,-100.0,0
4444,4.0,-246.0,-103.0,0
4445,4.0,-248.0,-105.0,0
4446,2.0,-248.0,-102.0,0
4447,-3.0,-244.0,-105.0,0
4448,-5.0,-243.0,-104.0,0
4449,-5.0,-243.0,-103.0,0
4450,-2.0,-242.0,-107.0,0
4451,-4.0,-240.0,-101.0,0
4452,-9.0,-236.0,-105.0,0
4453,-6.0,-237.0,-102.0,0
4454,-10.0,-235.0,-100.0,0
4455,-9.0,-235.0,-99.0,0
4456,-7.0,-239.0,-102.0,0
4457,-8.0,-238.0,-102.0,0
4458,-1.0,-241.0,-98.0,0
4459,1.0,-241.0,-96.0,0
4460,3.0,-245.0,-98.0,0
4461,7.0,-245.0,-99.0,0
4462,6.0,-247.0,-99.0,0
4463,9.0,-248.0,-99.0,0
4464,10.0,-249.0,-101.0,0
4465,8.0,-250.0,-102.0,0
4466,5.0,-250.0,-104.0,0
4467,5.0,-250.0,-105.0,0
4468,6.0,-249.0,-103.0,0
4469,4.0,-249.0,-103.0,0
4470,5.0,-251.0,-111.0,0
4471,3.0,-249.0,-111.0,0
4472,0.0,-248.0,-111.0,0
4473,2.0,-248.0,-110.0,0
4474,3.0,-245.0,-111.0,0
4475,1.0,-252.0,-114.0,0
4476,-1.0,-250.0,-115.0,0
4477,1.0,-252.0,-108.0,0
4478,2.0,-251.0,-110.0,0
4479,7.0,-251.0,-110.0,0
4480,4.0,-247.0,-109.0,0
4481,6.0,-248.0,-105.0,0
4482,9.0,-249.0,-110.0,0
4483,13.0,-246.0,-109.0,0
4484,9.0,-244.0,-105.0,0
4485,7.0,-240.0,-111.0,0
4486,9.0,-243.0,-108.0,0
4487,11.0,-239.0,-109.0,0
4488,15.0,-241.0,-110.0,0
4489,13.0,-240.0,-109.0,0
4490,16.0,-242.0,-116.0,0
4491,17.0,-235.0,-111.0,0
4492,16.0,-240.0,-112.0,0
4493,14.0,-236.0,-110.0,0
4494,19.0,-237.0,-112.0,0
4495,15.0,-238.0,-113.0,0
4496,14.0,-239.0,-112.0,0
4497,16.0,-242.0,-106.0,0
4498,12.0,-242.0,-108.0,0
4499,10.0,-242.0,-104.0,0
4500,9.0,-243.0,-106.0,0
4501,7.0,-242.0,-104.0,0
4502,4.0,-249.0,-107.0,0
4503,-10.0,-250.0,-98.0,0
4504,-14.0,-236.0,-97.0,0
4505,-1.0,-229.0,-102.0,0
4506,-7.0,-230.0,-106.0,0
4507,-5.0,-231.0,-105.0,0
4508,1.0,-237.0,-103.0,0
4509,10.0,-237.0,-102.0,0
4510,6.0,-240.0,-100.0,0
4511,-2.0,-241.0,-98.0,0
4512,-4.0,-243.0,-97.0,0
4513,-4.0,-241.0,-92.0,0
4514,-4.0,-241.0,-90.0,0
4515,-8.0,-239.0,-90.0,0
4516,-2.0,-240.0,-92.0,0
4517,1.0,-246.0,-92.0,0
4518,7.0,-246.0,-91.0,0
4519,14.0,-248.0,-96.0,0
4520,16.0,-250.0,-96.0,0
4521,11.0,-250.0,-97.0,0
4522,10.0,-249.0,-97.0,0
4523,9.0,-249.0,-95.0,0
4524,7.0,-249.0,-103.0,0
4525,5.0,-247.0,-106.0,0
4526,2.0,-248.0,-104.0,0
4527,0.0,-249.0,-110.0,0
4528,-2.0,-254.0,-110.0,0
4529,-7.0,-254.0,-105.0,0
4530,-14.0,-256.0,-107.0,0
4531,-21.0,-245.0,-111.0,0
4532,-13.0,-253.0,-107.0,0
4533,-10.0,-255.0,-107.0,0
4534,-12.0,-254.0,-106.0,0
4535,-7.0,-249.0,-101.0,0
4536,-3.0,-251.0,-103.0,0
4537,2.0,-249.0,-104.0,0
4538,4.0,-247.0,-107.0,0
4539,6.0,-248.0,-105.0,0
4540,10.0,-247.0,-107.0,0
4541,13.0,-247.0,-108.0,0
4542,15.0,-254.0,-102.0,0
4543,14.0,-244.0,-106.0,0
4544,15.0,-242.0,-108.0,0
4545,15.0,-242.0,-106.0,0
4546,11.0,-241.0,-101.0,0
4547,12.0,-242.0,-105.0,0
4548,8.0,-241.0,-101.0,0
4549,7.0,-242.0,-102.0,0
4550,5.0,-242.0,-101.0,0
4551,5.0,-242.0,-102.0,0
4552,5.0,-243.0,-100.0,0
4553,-1.0,-244.0,-98.0,0
4554,3.0,-243.0,-96.0,0
4555,5.0,-243.0,-98.0,0
4556,5.0,-246.0,-94.0,0
4557,5.0,-241.0,-92.0,0
4558,4.0,-243.0,-91.0,0
4559,2.0,-238.0,-92.0,0
4560,2.0,-239.0,-94.0,0
4561,1.0,-244.0,-92.0,0
4562,6.0,-241.0,-92.0,0
4563,1.0,-244.0,-92.0,0
4564,16.0,-233.0,-102.0,0
4565,3.0,-248.0,-89.0,0
4566,2.0,-247.0,-91.0,0
4567,5.0,-250.0,-93.0,0
4568,4.0,-251.0,-94.0,0
4569,8.0,-252.0,-95.0,0
4570,3.0,-254.0,-95.0,0
4571,3.0,-251.0,-98.0,0
4572,7.0,-250.0,-95.0,0
4573,6.0,-246.0,-93.0,0
4574,7.0,-244.0,-96.0,0
4575,8.0,-246.0,-95.0,0
4576,4.0,-244.0,-98.0,0
4577,8.0,-247.0,-97.0,0
4578,7.0,-246.0,-95.0,0
4579,6.0,-247.0,-92.0,0
4580,3.0,-248.0,-101.0,0
4581,6.0,-247.0,-96.0,0
4582,3.0,-246.0,-95.0,0
4583,1.0,-246.0,-97.0,0
4584,6.0,-245.0,-96.0,0
4585,2.0,-243.0,-96.0,0
4586,4.0,-246.0,-96.0,0
4587,3.0,-245.0,-97.0,0
4588,-3.0,-246.0,-101.0,0
4589,-1.0,-246.0,-101.0,0
4590,0.0,-249.0,-104.0,0
4591,-1.0,-248.0,-100.0,0
4592,0.0,-247.0,-103.0,0
4593,0.0,-248.0,-101.0,0
4594,-3.0,-248.0,-97.0,0
4595,1.0,-250.0,-101.0,0
4596,0.0,-252.0,-98.0,0
4597,3.0,-251.0,-102.0,0
4598,1.0,-251.0,-94.0,0
4599,2.0,-252.0,-95.0,0
4600,0.0,-249.0,-93.0,0
4601,-1.0,-247.0,-96.0,0
4602,1.0,-248.0,-94.0,0
4603,2.0,-248.0,-96.0,0
4604,4.0,-247.0,-92.0,0
4605,4.0,-244.0,-90.0,0
4606,5.0,-245.0,-96.0,0
4607,4.0,-247.0,-93.0,0
4608,2.0,-246.0,-90.0,0
4609,2.0,-245.0,-94.0,0
4610,2.0,-246.0,-95.0,0
4611,-2.0,-246.0,-92.0,0
4612,2.0,-248.0,-91.0,0
4613,0.0,-247.0,-98.0,0
4614,1.0,-246.0,-95.0,0
4615,3.0,-248.0,-96.0,0
4616,1.0,-246.0,-98.0,0
4617,2.0,-247.0,-94.0,0
4618,2.0,-248.0,-94.0,0
4619,-3.0,-246.0,-95.0,0
4620,-1.0,-248.0,-92.0,0
4621,0.0,-246.0,-96.0,0
4622,0.0,-245.0,-95.0,0
4623,-1.0,-246.0,-97.0,0
4624,0.0,-246.0,-92.0,0
4625,0.0,-246.0,-93.0,0
4626,1.0,-247.0,-94.0,0
4627,1.0,-250.0,-94.0,0
4628,-1.0,-248.0,-96.0,0
4629,0.0,-249.0,-89.0,0
4630,2.0,-249.0,-92.0,0
4631,4.0,-248.0,-82.0,0
4632,2.0,-248.0,-88.0,0
4633,0.0,-248.0,-88.0,0
4634,-2.0,-246.0,-88.0,0
4635,-2.0,-244.0,-89.0,0
4636,-1.0,-246.0,-85.0,0
4637,0.0,-246.0,-92.0,0
4638,1.0,-245.0,-93.0,0
4639,-3.0,-245.0,-95.0,0
4640,-3.0,-244.0,-92.0,0
4641,0.0,-248.0,-91.0,0
4642,1.0,-245.0,-94.0,0
4643,0.0,-248.0,-90.0,0
4644,1.0,-247.0,-92.0,0
4645,-3.0,-247.0,-92.0,0
4646,-1.0,-250.0,-93.0,0
4647,0.0,-248.0,-93.0,0
4648,-1.0,-247.0,-95.0,0
4649,0.0,-248.0,-94.0,0
4650,0.0,-245.0,-95.0,0
4651,-1.0,-245.0,-97.0,0
4652,-3.0,-245.0,-93.0,0
4653,-2.0,-246.0,-93.0,0
4654,-2.0,-249.0,-92.0,0
4655,1.0,-248.0,-94.0,0
4656,-2.0,-248.0,-95.0,0
4657,0.0,-248.0,-95.0,0
4658,-2.0,-246.0,-95.0,0
4659,-4.0,-247.0,-94.0,0
4660,-3.0,-246.0,-89.0,0
4661,1.0,-247.0,-92.0,0
4662,0.0,-249.0,-88.0,0
4663,0.0,-248.0,-91.0,0
4664,2.0,-247.0,-94.0,0
4665,1.0,-247.0,-91.0,0
4666,-2.0,-246.0,-93.0,0
4667,0.0,-246.0,-92.0,0
4668,2.0,-247.0,-92.0,0
4669,0.0,-247.0,-91.0,0
4670,2.0,-249.0,-87.0,0
4671,0.0,-247.0,-88.0,0
4672,1.0,-249.0,-93.0,0
4673,-1.0,-252.0,-92.0,0
4674,0.0,-249.0,-88.0,0
4675,-1.0,-247.0,-93.0,0
4676,0.0,-249.0,-91.0,0
4677,-1.0,-244.0,-92.0,0
4678,-3.0,-245.0,-92.0,0
4679,0.0,-242.0,-92.0,0
4680,-3.0,-243.0,-91.0,0
4681,-1.0,-248.0,-91.0,0
