,accelerometer_x,accelerometer_y,accelerometer_z,fall
0,0.0,-257.0,6.0,0
1,0.0,-254.0,3.0,0
2,0.0,-260.0,2.0,0
3,2.0,-256.0,2.0,0
4,0.0,-253.0,5.0,0
5,1.0,-256.0,4.0,0
6,1.0,-254.0,7.0,0
7,1.0,-257.0,0.0,0
8,1.0,-255.0,3.0,0
9,2.0,-257.0,1.0,0
10,1.0,-257.0,2.0,0
11,0.0,-255.0,1.0,0
12,0.0,-259.0,6.0,0
13,1.0,-257.0,3.0,0
14,2.0,-253.0,0.0,0
15,0.0,-252.0,1.0,0
16,2.0,-253.0,0.0,0
17,0.0,-253.0,0.0,0
18,3.0,-255.0,-3.0,0
19,2.0,-255.0,-6.0,0
20,0.0,-257.0,-7.0,0
21,1.0,-256.0,-3.0,0
22,3.0,-258.0,-4.0,0
23,0.0,-259.0,-3.0,0
24,1.0,-254.0,0.0,0
25,2.0,-263.0,-5.0,0
26,2.0,-267.0,1.0,0
27,1.0,-258.0,-1.0,0
28,1.0,-260.0,-7.0,0
29,0.0,-257.0,-2.0,0
30,4.0,-260.0,-2.0,0
31,1.0,-257.0,0.0,0
32,1.0,-259.0,-3.0,0
33,1.0,-259.0,-4.0,0
34,0.0,-258.0,-5.0,0
35,1.0,-258.0,-4.0,0
36,0.0,-258.0,-4.0,0
37,2.0,-259.0,-4.0,0
38,2.0,-260.0,-5.0,0
39,1.0,-255.0,-5.0,0
40,0.0,-255.0,-4.0,0
41,0.0,-256.0,-2.0,0
42,1.0,-253.0,-2.0,0
43,3.0,-255.0,-8.0,0
44,5.0,-252.0,-2.0,0
45,2.0,-253.0,-7.0,0
46,2.0,-252.0,-4.0,0
47,8.0,-257.0,-3.0,0
48,3.0,-255.0,4.0,0
49,3.0,-257.0,-4.0,0
50,3.0,-256.0,-2.0,0
51,0.0,-255.0,-6.0,0
52,4.0,-257.0,-8.0,0
53,2.0,-256.0,-5.0,0
54,2.0,-261.0,-7.0,0
55,4.0,-259.0,-8.0,0
56,4.0,-257.0,-5.0,0
57,1.0,-259.0,-9.0,0
58,0.0,-256.0,-7.0,0
59,2.0,-257.0,-9.0,0
60,2.0,-257.0,-8.0,0
61,0.0,-254.0,-5.0,0
62,3.0,-257.0,-5.0,0
63,0.0,-256.0,-5.0,0
64,1.0,-253.0,-9.0,0
65,0.0,-254.0,-6.0,0
66,1.0,-255.0,-7.0,0
67,1.0,-253.0,-8.0,0
68,0.0,-251.0,-8.0,0
69,6.0,-252.0,-9.0,0
70,1.0,-253.0,-7.0,0
71,0.0,-252.0,-7.0,0
72,2.0,-256.0,-8.0,0
73,1.0,-258.0,-3.0,0
74,0.0,-256.0,-5.0,0
75,4.0,-255.0,-4.0,0
76,1.0,-256.0,-5.0,0
77,2.0,-258.0,-5.0,0
78,3.0,-254.0,-5.0,0
79,0.0,-256.0,-7.0,0
80,2.0,-257.0,-2.0,0
81,1.0,-254.0,-7.0,0
82,2.0,-258.0,-7.0,0
83,3.0,-254.0,-6.0,0
84,4.0,-255.0,-5.0,0
85,1.0,-254.0,-6.0,0
86,4.0,-255.0,-5.0,0
87,4.0,-255.0,-8.0,0
88,0.0,-256.0,-2.0,0
89,1.0,-258.0,-7.0,0
90,1.0,-257.0,-5.0,0
91,1.0,-261.0,-3.0,0
92,1.0,-257.0,-6.0,0
93,3.0,-258.0,-9.0,0
94,1.0,-258.0,-6.0,0
95,1.0,-259.0,-1.0,0
96,0.0,-258.0,-9.0,0
97,0.0,-257.0,-6.0,0
98,1.0,-258.0,-4.0,0
99,1.0,-257.0,-4.0,0
100,2.0,-260.0,-5.0,0
101,1.0,-258.0,-5.0,0
102,4.0,-261.0,-3.0,0
103,2.0,-261.0,-3.0,0
104,2.0,-256.0,-1.0,0
105,3.0,-259.0,0.0,0
106,3.0,-256.0,-5.0,0
107,5.0,-257.0,-1.0,0
108,4.0,-258.0,-2.0,0
109,0.0,-256.0,-4.0,0
110,2.0,-258.0,-3.0,0
111,3.0,-257.0,-1.0,0
112,2.0,-254.0,-5.0,0
113,0.0,-258.0,-7.0,0
114,2.0,-255.0,-5.0,0
115,3.0,-255.0,-2.0,0
116,2.0,-253.0,-2.0,0
117,4.0,-254.0,0.0,0
118,2.0,-257.0,-4.0,0
119,2.0,-255.0,-3.0,0
120,1.0,-252.0,-1.0,0
121,1.0,-257.0,-2.0,0
122,2.0,-256.0,-1.0,0
123,2.0,-254.0,-1.0,0
124,3.0,-257.0,-7.0,0
125,1.0,-256.0,0.0,0
126,3.0,-258.0,-3.0,0
127,2.0,-256.0,-4.0,0
128,3.0,-255.0,-3.0,0
129,0.0,-256.0,-1.0,0
130,0.0,-254.0,-4.0,0
131,0.0,-253.0,-3.0,0
132,3.0,-255.0,0.0,0
133,4.0,-257.0,-4.0,0
134,5.0,-255.0,-6.0,0
135,5.0,-255.0,-6.0,0
136,1.0,-252.0,-3.0,0
137,3.0,-257.0,-5.0,0
138,3.0,-254.0,0.0,0
139,1.0,-256.0,-3.0,0
140,1.0,-257.0,-2.0,0
141,0.0,-253.0,-3.0,0
142,-2.0,-255.0,-2.0,0
143,3.0,-258.0,1.0,0
144,2.0,-256.0,-3.0,0
145,2.0,-253.0,-1.0,0
146,0.0,-257.0,0.0,0
147,1.0,-256.0,-1.0,0
148,2.0,-257.0,-4.0,0
149,1.0,-254.0,-2.0,0
150,1.0,-256.0,0.0,0
151,0.0,-257.0,-1.0,0
152,1.0,-256.0,-3.0,0
153,1.0,-256.0,-2.0,0
154,2.0,-255.0,-3.0,0
155,0.0,-255.0,0.0,0
156,2.0,-257.0,-3.0,0
157,0.0,-255.0,0.0,0
158,1.0,-256.0,1.0,0
159,2.0,-253.0,-3.0,0
160,0.0,-255.0,-1.0,0
161,3.0,-255.0,-3.0,0
162,2.0,-257.0,-4.0,0
163,1.0,-256.0,-2.0,0
164,0.0,-254.0,2.0,0
165,3.0,-259.0,-3.0,0
166,3.0,-255.0,-2.0,0
167,1.0,-254.0,-1.0,0
168,1.0,-253.0,-8.0,0
169,3.0,-254.0,1.0,0
170,1.0,-255.0,-2.0,0
171,1.0,-256.0,1.0,0
172,1.0,-255.0,4.0,0
173,0.0,-256.0,-1.0,0
174,1.0,-255.0,-3.0,0
175,1.0,-256.0,1.0,0
176,1.0,-252.0,-2.0,0
177,2.0,-257.0,-3.0,0
178,7.0,-255.0,-1.0,0
179,1.0,-255.0,1.0,0
180,2.0,-257.0,0.0,0
181,1.0,-257.0,-1.0,0
182,1.0,-254.0,1.0,0
183,1.0,-257.0,1.0,0
184,0.0,-250.0,-1.0,0
185,0.0,-254.0,-2.0,0
186,2.0,-258.0,2.0,0
187,2.0,-258.0,-3.0,0
188,2.0,-258.0,2.0,0
189,1.0,-255.0,-3.0,0
190,2.0,-254.0,-2.0,0
191,3.0,-260.0,-4.0,0
192,1.0,-258.0,-3.0,0
193,1.0,-259.0,-3.0,0
194,4.0,-257.0,0.0,0
195,1.0,-258.0,-1.0,0
196,0.0,-257.0,1.0,0
197,2.0,-260.0,0.0,0
198,1.0,-259.0,0.0,0
199,1.0,-256.0,-3.0,0
200,2.0,-257.0,-4.0,0
201,2.0,-257.0,-4.0,0
202,2.0,-257.0,-4.0,0
203,2.0,-257.0,2.0,0
204,2.0,-255.0,-3.0,0
205,2.0,-257.0,-6.0,0
206,3.0,-255.0,-1.0,0
207,3.0,-255.0,-2.0,0
208,2.0,-256.0,-5.0,0
209,1.0,-257.0,-1.0,0
210,1.0,-253.0,-1.0,0
211,1.0,-255.0,-4.0,0
212,3.0,-253.0,-1.0,0
213,1.0,-253.0,-5.0,0
214,2.0,-255.0,-2.0,0
215,1.0,-254.0,1.0,0
216,2.0,-254.0,0.0,0
217,2.0,-254.0,-2.0,0
218,1.0,-254.0,-4.0,0
219,2.0,-252.0,-3.0,0
220,1.0,-253.0,1.0,0
221,0.0,-255.0,-1.0,0
222,4.0,-258.0,-2.0,0
223,2.0,-253.0,-3.0,0
224,3.0,-253.0,-3.0,0
225,4.0,-255.0,-4.0,0
226,6.0,-257.0,-1.0,0
227,4.0,-257.0,0.0,0
228,1.0,-256.0,-1.0,0
229,2.0,-254.0,-4.0,0
230,0.0,-258.0,-1.0,0
231,2.0,-258.0,1.0,0
232,1.0,-255.0,-2.0,0
233,2.0,-257.0,-2.0,0
234,4.0,-256.0,-4.0,0
235,2.0,-255.0,-3.0,0
236,1.0,-258.0,-5.0,0
237,5.0,-258.0,-2.0,0
238,1.0,-255.0,-4.0,0
239,3.0,-253.0,-6.0,0
240,3.0,-255.0,-4.0,0
241,3.0,-258.0,-6.0,0
242,5.0,-256.0,-4.0,0
243,3.0,-258.0,-3.0,0
244,6.0,-257.0,-3.0,0
245,3.0,-259.0,-2.0,0
246,4.0,-259.0,-2.0,0
247,3.0,-257.0,3.0,0
248,4.0,-257.0,3.0,0
249,0.0,-256.0,-1.0,0
250,3.0,-258.0,4.0,0
251,3.0,-255.0,1.0,0
252,2.0,-256.0,-5.0,0
253,2.0,-254.0,-2.0,0
254,4.0,-256.0,-1.0,0
255,2.0,-257.0,-2.0,0
256,2.0,-256.0,-3.0,0
257,3.0,-256.0,-3.0,0
258,1.0,-256.0,-1.0,0
259,2.0,-257.0,-4.0,0
260,3.0,-255.0,-5.0,0
261,2.0,-256.0,1.0,0
262,3.0,-255.0,-2.0,0
263,4.0,-254.0,-3.0,0
264,3.0,-253.0,1.0,0
265,1.0,-253.0,-7.0,0
266,1.0,-257.0,1.0,0
267,3.0,-255.0,2.0,0
268,1.0,-253.0,-2.0,0
269,3.0,-254.0,0.0,0
270,2.0,-256.0,-1.0,0
271,3.0,-256.0,-4.0,0
272,1.0,-256.0,-3.0,0
273,2.0,-256.0,-3.0,0
274,1.0,-258.0,-1.0,0
275,1.0,-256.0,0.0,0
276,2.0,-255.0,1.0,0
277,1.0,-256.0,1.0,0
278,3.0,-257.0,-4.0,0
279,3.0,-257.0,0.0,0
280,3.0,-255.0,-2.0,0
281,3.0,-257.0,-2.0,0
282,3.0,-257.0,0.0,0
283,4.0,-258.0,1.0,0
284,3.0,-257.0,-2.0,0
285,2.0,-256.0,-3.0,0
286,3.0,-255.0,-3.0,0
287,5.0,-257.0,1.0,0
288,3.0,-254.0,0.0,0
289,2.0,-259.0,1.0,0
290,3.0,-258.0,-3.0,0
291,3.0,-256.0,0.0,0
292,2.0,-259.0,-2.0,0
293,1.0,-256.0,-1.0,0
294,4.0,-258.0,-2.0,0
295,4.0,-255.0,-2.0,0
296,1.0,-259.0,-1.0,0
297,4.0,-257.0,1.0,0
298,2.0,-254.0,0.0,0
299,3.0,-259.0,1.0,0
300,4.0,-256.0,1.0,0
301,4.0,-257.0,-3.0,0
302,2.0,-255.0,3.0,0
303,4.0,-257.0,1.0,0
304,2.0,-258.0,0.0,0
305,1.0,-256.0,1.0,0
306,2.0,-260.0,0.0,0
307,1.0,-257.0,-5.0,0
308,2.0,-256.0,-2.0,0
309,3.0,-257.0,-4.0,0
310,0.0,-254.0,-3.0,0
311,1.0,-255.0,-6.0,0
312,2.0,-251.0,-4.0,0
313,2.0,-257.0,-4.0,0
314,2.0,-257.0,-5.0,0
315,2.0,-259.0,-5.0,0
316,3.0,-259.0,-6.0,0
317,3.0,-257.0,-2.0,0
318,0.0,-256.0,-6.0,0
319,2.0,-258.0,-5.0,0
320,2.0,-259.0,-8.0,0
321,1.0,-257.0,-8.0,0
322,2.0,-259.0,-8.0,0
323,1.0,-259.0,-6.0,0
324,0.0,-259.0,-9.0,0
325,0.0,-259.0,-9.0,0
326,0.0,-261.0,-10.0,0
327,2.0,-258.0,-9.0,0
328,1.0,-257.0,-9.0,0
329,4.0,-260.0,-10.0,0
330,0.0,-257.0,-13.0,0
331,1.0,-259.0,-10.0,0
332,1.0,-258.0,-13.0,0
333,0.0,-262.0,-11.0,0
334,0.0,-258.0,-13.0,0
335,0.0,-258.0,-11.0,0
336,0.0,-257.0,-10.0,0
337,0.0,-256.0,-7.0,0
338,-1.0,-257.0,-11.0,0
339,0.0,-259.0,-9.0,0
340,-1.0,-255.0,-9.0,0
341,-2.0,-254.0,-11.0,0
342,-1.0,-257.0,-7.0,0
343,1.0,-253.0,-9.0,0
344,1.0,-254.0,-11.0,0
345,1.0,-258.0,-11.0,0
346,2.0,-255.0,-11.0,0
347,0.0,-256.0,-8.0,0
348,3.0,-257.0,-10.0,0
349,2.0,-257.0,-6.0,0
350,0.0,-256.0,-4.0,0
351,2.0,-258.0,-10.0,0
352,-1.0,-256.0,-9.0,0
353,3.0,-253.0,-5.0,0
354,1.0,-253.0,-9.0,0
355,2.0,-253.0,-10.0,0
356,2.0,-250.0,-8.0,0
357,1.0,-250.0,-7.0,0
358,0.0,-251.0,-8.0,0
359,1.0,-254.0,-4.0,0
360,0.0,-255.0,-6.0,0
361,-1.0,-251.0,-7.0,0
362,1.0,-249.0,1.0,0
363,0.0,-252.0,-2.0,0
364,1.0,-252.0,-3.0,0
365,1.0,-254.0,-7.0,0
366,1.0,-251.0,-4.0,0
367,0.0,-252.0,-5.0,0
368,4.0,-253.0,-2.0,0
369,1.0,-249.0,-4.0,0
370,4.0,-256.0,-4.0,0
371,6.0,-254.0,-3.0,0
372,2.0,-254.0,1.0,0
373,3.0,-253.0,-3.0,0
374,2.0,-253.0,7.0,0
375,3.0,-255.0,-5.0,0
376,4.0,-258.0,-5.0,0
377,2.0,-253.0,-14.0,0
378,4.0,-255.0,-11.0,0
379,1.0,-255.0,-15.0,0
380,0.0,-257.0,-11.0,0
381,0.0,-254.0,-14.0,0
382,1.0,-257.0,-12.0,0
383,2.0,-257.0,-18.0,0
384,0.0,-258.0,-22.0,0
385,1.0,-262.0,-23.0,0
386,1.0,-264.0,-29.0,0
387,0.0,-263.0,-26.0,0
388,4.0,-265.0,-33.0,0
389,2.0,-264.0,-32.0,0
390,2.0,-260.0,-32.0,0
391,3.0,-257.0,-33.0,0
392,2.0,-259.0,-35.0,0
393,2.0,-257.0,-41.0,0
394,5.0,-256.0,-41.0,0
395,9.0,-252.0,-53.0,0
396,9.0,-255.0,-52.0,0
397,11.0,-258.0,-51.0,0
398,11.0,-254.0,-53.0,0
399,9.0,-256.0,-54.0,0
400,8.0,-256.0,-57.0,0
401,10.0,-256.0,-58.0,0
402,9.0,-253.0,-61.0,0
403,8.0,-248.0,-73.0,0
404,7.0,-249.0,-71.0,0
405,-2.0,-246.0,-73.0,0
406,5.0,-244.0,-75.0,0
407,3.0,-240.0,-81.0,0
408,1.0,-238.0,-77.0,0
409,1.0,-237.0,-79.0,0
410,5.0,-242.0,-80.0,0
411,1.0,-239.0,-83.0,0
412,3.0,-237.0,-82.0,0
413,4.0,-235.0,-84.0,0
414,2.0,-235.0,-88.0,0
415,1.0,-228.0,-91.0,0
416,6.0,-228.0,-94.0,0
417,5.0,-213.0,-98.0,0
418,5.0,-214.0,-98.0,0
419,6.0,-210.0,-96.0,0
420,5.0,-201.0,-102.0,0
421,7.0,-192.0,-99.0,0
422,7.0,-190.0,-102.0,0
423,7.0,-181.0,-107.0,0
424,8.0,-173.0,-101.0,0
425,8.0,-167.0,-109.0,0
426,6.0,-158.0,-105.0,0
427,11.0,-150.0,-99.0,0
428,9.0,-139.0,-104.0,0
429,10.0,-130.0,-105.0,0
430,10.0,-121.0,-106.0,0
431,9.0,-110.0,-99.0,0
432,12.0,-104.0,-98.0,0
433,12.0,-98.0,-94.0,0
434,14.0,-88.0,-88.0,0
435,12.0,-83.0,-88.0,0
436,11.0,-72.0,-81.0,0
437,13.0,-65.0,-76.0,0
438,8.0,-61.0,-68.0,0
439,3.0,-54.0,-65.0,0
440,3.0,-56.0,-56.0,0
441,-1.0,-54.0,-50.0,0
442,-3.0,-49.0,-50.0,0
443,-11.0,-52.0,-49.0,0
444,-13.0,-50.0,-42.0,0
445,-14.0,-54.0,-37.0,0
446,-15.0,-56.0,-47.0,0
447,-19.0,-58.0,-46.0,0
448,-21.0,-64.0,-45.0,0
449,-23.0,-74.0,-43.0,0
450,-20.0,-82.0,-46.0,0
451,-19.0,-96.0,-52.0,0
452,-15.0,-106.0,-54.0,0
453,-15.0,-116.0,-56.0,0
454,-15.0,-123.0,-59.0,0
455,-11.0,-136.0,-57.0,0
456,-9.0,-150.0,-58.0,0
457,-6.0,-159.0,-52.0,0
458,-3.0,-172.0,-53.0,0
459,-3.0,-180.0,-50.0,0
460,-2.0,-185.0,-45.0,0
461,3.0,-186.0,-44.0,0
462,6.0,-187.0,-41.0,0
463,14.0,-183.0,-48.0,0
464,19.0,-185.0,-47.0,0
465,26.0,-184.0,-45.0,0
466,31.0,-185.0,-40.0,0
467,35.0,-195.0,-33.0,0
468,34.0,-204.0,-24.0,0
469,30.0,-215.0,-25.0,0
470,28.0,-221.0,-27.0,0
471,27.0,-248.0,-42.0,0
472,11.0,-271.0,-39.0,0
473,11.0,-269.0,-62.0,0
474,4.0,-280.0,-90.0,0
475,-2.0,-283.0,-110.0,0
476,-1.0,-292.0,-129.0,0
477,-12.0,-301.0,-143.0,0
478,-3.0,-309.0,-143.0,0
479,-14.0,-313.0,-139.0,0
480,-20.0,-310.0,-134.0,0
481,-14.0,-289.0,-121.0,0
482,-8.0,-288.0,-106.0,0
483,-5.0,-279.0,-101.0,0
484,-10.0,-271.0,-102.0,0
485,-14.0,-267.0,-108.0,0
486,-18.0,-265.0,-124.0,0
487,-16.0,-264.0,-147.0,0
488,-26.0,-270.0,-165.0,0
489,-27.0,-281.0,-185.0,0
490,-27.0,-297.0,-203.0,0
491,-19.0,-311.0,-209.0,0
492,-5.0,-318.0,-211.0,0
493,2.0,-333.0,-214.0,0
494,19.0,-349.0,-212.0,0
495,30.0,-345.0,-219.0,0
496,41.0,-343.0,-217.0,0
497,50.0,-343.0,-217.0,0
498,44.0,-337.0,-208.0,0
499,41.0,-338.0,-204.0,0
500,33.0,-340.0,-205.0,0
501,26.0,-340.0,-198.0,0
502,26.0,-341.0,-200.0,0
503,18.0,-338.0,-198.0,0
504,24.0,-333.0,-204.0,0
505,26.0,-327.0,-206.0,0
506,28.0,-323.0,-213.0,0
507,39.0,-329.0,-217.0,0
508,54.0,-328.0,-224.0,0
509,49.0,-332.0,-228.0,0
510,53.0,-344.0,-229.0,0
511,54.0,-352.0,-234.0,0
512,50.0,-359.0,-233.0,0
513,49.0,-375.0,-230.0,0
514,43.0,-385.0,-224.0,0
515,36.0,-411.0,-225.0,0
516,27.0,-435.0,-234.0,0
517,28.0,-470.0,-245.0,0
518,31.0,-498.0,-274.0,0
519,26.0,-528.0,-318.0,0
520,25.0,-512.0,-379.0,0
521,18.0,-509.0,-399.0,0
522,29.0,-467.0,-382.0,0
523,-8.0,-434.0,-341.0,0
524,-23.0,-397.0,-281.0,0
525,-22.0,-377.0,-234.0,0
526,-20.0,-359.0,-194.0,0
527,-12.0,-336.0,-163.0,0
528,-11.0,-312.0,-134.0,0
529,-10.0,-291.0,-106.0,0
530,-4.0,-276.0,-80.0,0
531,0.0,-263.0,-64.0,0
532,-2.0,-249.0,-59.0,0
533,2.0,-234.0,-53.0,0
534,1.0,-219.0,-52.0,0
535,1.0,-200.0,-57.0,0
536,3.0,-183.0,-67.0,0
537,6.0,-166.0,-66.0,0
538,11.0,-156.0,-62.0,0
539,10.0,-146.0,-55.0,0
540,15.0,-141.0,-52.0,0
541,10.0,-142.0,-48.0,0
542,16.0,-141.0,-37.0,0
543,7.0,-143.0,-30.0,0
544,6.0,-149.0,-28.0,0
545,1.0,-155.0,-31.0,0
546,3.0,-162.0,-20.0,0
547,-2.0,-172.0,-24.0,0
548,1.0,-183.0,-31.0,0
549,-2.0,-186.0,-39.0,0
550,-4.0,-196.0,-39.0,0
551,-6.0,-207.0,-52.0,0
552,-12.0,-211.0,-56.0,0
553,-12.0,-219.0,-69.0,0
554,-15.0,-238.0,-74.0,0
555,-16.0,-245.0,-84.0,0
556,-16.0,-261.0,-93.0,0
557,-12.0,-277.0,-93.0,0
558,-7.0,-289.0,-99.0,0
559,-7.0,-300.0,-102.0,0
560,-5.0,-304.0,-103.0,0
561,0.0,-307.0,-108.0,0
562,2.0,-307.0,-109.0,0
563,4.0,-301.0,-108.0,0
564,5.0,-297.0,-113.0,0
565,10.0,-288.0,-112.0,0
566,11.0,-285.0,-113.0,0
567,6.0,-281.0,-117.0,0
568,14.0,-282.0,-104.0,0
569,12.0,-275.0,-99.0,0
570,7.0,-271.0,-89.0,0
571,12.0,-266.0,-82.0,0
572,11.0,-267.0,-73.0,0
573,11.0,-263.0,-72.0,0
574,11.0,-259.0,-73.0,0
575,16.0,-257.0,-65.0,0
576,16.0,-257.0,-68.0,0
577,16.0,-257.0,-59.0,0
578,21.0,-257.0,-52.0,0
579,22.0,-255.0,-46.0,0
580,19.0,-250.0,-42.0,0
581,21.0,-246.0,-37.0,0
582,20.0,-243.0,-36.0,0
583,20.0,-239.0,-37.0,0
584,15.0,-234.0,-40.0,0
585,12.0,-224.0,-35.0,0
586,8.0,-221.0,-36.0,0
587,5.0,-221.0,-30.0,0
588,2.0,-225.0,-41.0,0
589,-1.0,-222.0,-22.0,0
590,-4.0,-224.0,-22.0,0
591,-12.0,-230.0,-16.0,0
592,-15.0,-234.0,-17.0,0
593,-22.0,-240.0,-12.0,0
594,-24.0,-244.0,-7.0,0
595,-30.0,-242.0,-8.0,0
596,-34.0,-243.0,-4.0,0
597,-36.0,-249.0,-2.0,0
598,-35.0,-251.0,3.0,0
599,-41.0,-257.0,4.0,0
600,-38.0,-264.0,0.0,0
601,-35.0,-266.0,5.0,0
602,-30.0,-273.0,0.0,0
603,-27.0,-273.0,5.0,0
604,-24.0,-275.0,5.0,0
605,-17.0,-277.0,1.0,0
606,-12.0,-277.0,1.0,0
607,-2.0,-279.0,2.0,0
608,3.0,-280.0,6.0,0
609,7.0,-283.0,8.0,0
610,7.0,-279.0,11.0,0
611,13.0,-279.0,18.0,0
612,15.0,-277.0,19.0,0
613,21.0,-274.0,19.0,0
614,18.0,-264.0,21.0,0
615,19.0,-259.0,21.0,0
616,16.0,-251.0,22.0,0
617,13.0,-243.0,28.0,0
618,11.0,-241.0,28.0,0
619,9.0,-235.0,31.0,0
620,6.0,-232.0,32.0,0
621,4.0,-230.0,33.0,0
622,1.0,-228.0,33.0,0
623,-2.0,-229.0,36.0,0
624,-4.0,-232.0,40.0,0
625,-8.0,-235.0,38.0,0
626,-10.0,-230.0,35.0,0
627,-16.0,-233.0,35.0,0
628,-22.0,-234.0,24.0,0
629,-21.0,-239.0,22.0,0
630,-24.0,-239.0,16.0,0
631,-27.0,-245.0,18.0,0
632,-23.0,-251.0,8.0,0
633,-24.0,-254.0,23.0,0
634,-23.0,-258.0,27.0,0
635,-21.0,-262.0,25.0,0
636,-19.0,-264.0,25.0,0
637,-17.0,-265.0,25.0,0
638,-16.0,-265.0,26.0,0
639,-10.0,-263.0,30.0,0
640,-3.0,-262.0,30.0,0
641,4.0,-260.0,28.0,0
642,-3.0,-254.0,26.0,0
643,1.0,-250.0,27.0,0
644,-1.0,-249.0,23.0,0
645,1.0,-248.0,21.0,0
646,1.0,-246.0,27.0,0
647,2.0,-246.0,21.0,0
648,3.0,-243.0,26.0,0
649,0.0,-245.0,20.0,0
650,0.0,-244.0,25.0,0
651,0.0,-246.0,23.0,0
652,0.0,-247.0,26.0,0
653,-1.0,-244.0,27.0,0
654,-7.0,-246.0,31.0,0
655,-7.0,-248.0,30.0,0
656,-3.0,-251.0,35.0,0
657,-3.0,-249.0,35.0,0
658,-7.0,-248.0,32.0,0
659,-4.0,-251.0,33.0,0
660,-7.0,-249.0,30.0,0
661,-9.0,-248.0,34.0,0
662,-8.0,-249.0,34.0,0
663,-4.0,-250.0,34.0,0
664,-5.0,-251.0,34.0,0
665,-2.0,-253.0,32.0,0
666,-5.0,-251.0,31.0,0
667,-2.0,-253.0,31.0,0
668,-4.0,-252.0,33.0,0
669,-2.0,-254.0,30.0,0
670,-1.0,-253.0,33.0,0
671,1.0,-255.0,32.0,0
672,-1.0,-256.0,33.0,0
673,0.0,-256.0,38.0,0
674,0.0,-252.0,34.0,0
675,-2.0,-251.0,33.0,0
676,1.0,-254.0,36.0,0
677,0.0,-250.0,34.0,0
678,-1.0,-250.0,35.0,0
679,-2.0,-251.0,36.0,0
680,-1.0,-251.0,34.0,0
681,-4.0,-249.0,36.0,0
682,-1.0,-250.0,37.0,0
683,-7.0,-248.0,34.0,0
684,-6.0,-247.0,38.0,0
685,0.0,-246.0,33.0,0
686,-4.0,-246.0,34.0,0
687,-4.0,-248.0,39.0,0
688,-7.0,-247.0,35.0,0
689,-4.0,-249.0,33.0,0
690,-6.0,-249.0,31.0,0
691,-5.0,-250.0,33.0,0
692,-3.0,-249.0,36.0,0
693,-5.0,-250.0,34.0,0
694,-7.0,-249.0,36.0,0
695,-1.0,-254.0,36.0,0
696,-5.0,-250.0,40.0,0
697,-3.0,-249.0,36.0,0
698,-8.0,-248.0,38.0,0
699,-6.0,-246.0,39.0,0
700,-3.0,-250.0,37.0,0
701,-7.0,-249.0,38.0,0
702,-9.0,-251.0,37.0,0
703,-1.0,-254.0,36.0,0
704,-7.0,-255.0,37.0,0
705,-8.0,-258.0,36.0,0
706,-9.0,-254.0,39.0,0
707,-5.0,-258.0,41.0,0
708,-6.0,-259.0,43.0,0
709,-7.0,-256.0,45.0,0
710,-8.0,-255.0,46.0,0
711,-7.0,-253.0,43.0,0
712,-5.0,-252.0,45.0,0
713,-6.0,-251.0,47.0,0
714,-4.0,-250.0,45.0,0
715,-6.0,-249.0,45.0,0
716,-7.0,-247.0,44.0,0
717,-3.0,-250.0,46.0,0
718,-2.0,-247.0,45.0,0
719,-6.0,-251.0,49.0,0
720,-3.0,-249.0,46.0,0
721,-8.0,-248.0,43.0,0
722,-3.0,-251.0,46.0,0
723,-4.0,-249.0,45.0,0
724,-7.0,-251.0,45.0,0
725,-3.0,-251.0,46.0,0
726,-9.0,-250.0,46.0,0
727,-8.0,-251.0,43.0,0
728,-4.0,-249.0,45.0,0
729,-6.0,-252.0,46.0,0
730,-5.0,-254.0,45.0,0
731,-4.0,-253.0,44.0,0
732,-3.0,-257.0,49.0,0
733,-5.0,-257.0,45.0,0
734,-3.0,-256.0,44.0,0
735,0.0,-255.0,40.0,0
736,-5.0,-256.0,43.0,0
737,0.0,-256.0,42.0,0
738,-2.0,-252.0,40.0,0
739,-4.0,-253.0,42.0,0
740,-1.0,-254.0,41.0,0
741,-1.0,-253.0,40.0,0
742,-6.0,-251.0,41.0,0
743,0.0,-249.0,41.0,0
744,-3.0,-252.0,38.0,0
745,-2.0,-250.0,37.0,0
746,-2.0,-253.0,39.0,0
747,-4.0,-249.0,36.0,0
748,-5.0,-250.0,37.0,0
749,-4.0,-252.0,41.0,0
750,-9.0,-249.0,37.0,0
751,-8.0,-250.0,40.0,0
752,-9.0,-253.0,37.0,0
753,-8.0,-255.0,35.0,0
754,-7.0,-255.0,37.0,0
755,-8.0,-255.0,36.0,0
756,-6.0,-255.0,35.0,0
757,-4.0,-253.0,34.0,0
758,-2.0,-253.0,35.0,0
759,-7.0,-254.0,35.0,0
760,-1.0,-256.0,33.0,0
761,-3.0,-251.0,34.0,0
762,-7.0,-258.0,37.0,0
763,-4.0,-255.0,36.0,0
764,-6.0,-253.0,35.0,0
765,-7.0,-252.0,38.0,0
766,-8.0,-252.0,35.0,0
767,-7.0,-253.0,40.0,0
768,-5.0,-251.0,39.0,0
769,-9.0,-250.0,42.0,0
770,-10.0,-252.0,37.0,0
771,-8.0,-250.0,40.0,0
772,-9.0,-253.0,40.0,0
773,-7.0,-249.0,40.0,0
774,-7.0,-250.0,41.0,0
775,-5.0,-252.0,37.0,0
776,-5.0,-252.0,41.0,0
777,-1.0,-250.0,37.0,0
778,-5.0,-252.0,40.0,0
779,-3.0,-253.0,40.0,0
780,-3.0,-252.0,35.0,0
781,-2.0,-252.0,35.0,0
782,-4.0,-251.0,33.0,0
783,0.0,-250.0,37.0,0
784,-5.0,-250.0,40.0,0
785,-2.0,-250.0,41.0,0
786,-8.0,-251.0,37.0,0
787,-3.0,-251.0,38.0,0
788,-1.0,-251.0,38.0,0
789,-4.0,-249.0,35.0,0
790,-3.0,-249.0,40.0,0
791,-3.0,-251.0,40.0,0
792,-3.0,-250.0,37.0,0
793,-5.0,-250.0,40.0,0
794,-2.0,-248.0,37.0,0
795,-2.0,-249.0,42.0,0
796,-2.0,-253.0,38.0,0
797,-3.0,-250.0,43.0,0
798,-4.0,-251.0,41.0,0
799,-1.0,-255.0,42.0,0
800,-1.0,-253.0,42.0,0
801,-1.0,-256.0,40.0,0
802,0.0,-254.0,37.0,0
803,0.0,-254.0,42.0,0
804,-1.0,-255.0,40.0,0
805,-1.0,-255.0,40.0,0
806,-6.0,-259.0,40.0,0
807,-6.0,-257.0,38.0,0
808,-4.0,-259.0,40.0,0
809,-5.0,-255.0,41.0,0
810,-2.0,-255.0,38.0,0
811,-4.0,-256.0,33.0,0
812,-7.0,-252.0,38.0,0
813,-4.0,-251.0,37.0,0
814,-9.0,-249.0,36.0,0
815,-8.0,-251.0,36.0,0
816,-10.0,-251.0,37.0,0
817,-8.0,-251.0,35.0,0
818,-8.0,-249.0,34.0,0
819,-8.0,-253.0,33.0,0
820,-11.0,-250.0,32.0,0
821,-9.0,-249.0,33.0,0
822,-5.0,-252.0,30.0,0
823,-8.0,-251.0,33.0,0
824,-10.0,-252.0,30.0,0
825,-8.0,-254.0,32.0,0
826,-8.0,-253.0,31.0,0
827,-14.0,-258.0,32.0,0
828,-11.0,-250.0,34.0,0
829,-8.0,-254.0,34.0,0
830,-9.0,-255.0,33.0,0
831,-7.0,-254.0,33.0,0
832,-8.0,-253.0,32.0,0
833,-7.0,-251.0,32.0,0
834,-9.0,-252.0,35.0,0
835,-10.0,-252.0,31.0,0
836,-10.0,-250.0,34.0,0
837,-9.0,-251.0,36.0,0
838,-11.0,-252.0,31.0,0
839,-7.0,-250.0,35.0,0
840,-5.0,-249.0,32.0,0
841,-8.0,-253.0,36.0,0
842,-8.0,-252.0,35.0,0
843,-4.0,-251.0,33.0,0
844,-6.0,-252.0,37.0,0
845,0.0,-250.0,37.0,0
846,-5.0,-250.0,39.0,0
847,-1.0,-251.0,39.0,0
848,-2.0,-249.0,38.0,0
849,0.0,-255.0,43.0,0
850,-1.0,-253.0,36.0,0
851,0.0,-249.0,40.0,0
852,0.0,-254.0,43.0,0
853,-2.0,-254.0,43.0,0
854,0.0,-255.0,39.0,0
855,1.0,-252.0,40.0,0
856,-1.0,-252.0,39.0,0
857,1.0,-254.0,42.0,0
858,-3.0,-253.0,40.0,0
859,0.0,-250.0,39.0,0
860,-2.0,-251.0,40.0,0
861,0.0,-250.0,40.0,0
862,0.0,-252.0,38.0,0
863,0.0,-249.0,40.0,0
864,0.0,-254.0,41.0,0
865,-4.0,-251.0,39.0,0
866,-4.0,-253.0,37.0,0
867,-4.0,-252.0,37.0,0
868,-3.0,-255.0,37.0,0
869,-4.0,-255.0,40.0,0
870,-5.0,-255.0,35.0,0
871,-11.0,-249.0,29.0,0
872,-7.0,-254.0,35.0,0
873,-6.0,-252.0,35.0,0
874,-6.0,-252.0,30.0,0
875,-6.0,-251.0,31.0,0
876,-9.0,-248.0,31.0,0
877,-11.0,-248.0,30.0,0
878,-7.0,-248.0,31.0,0
879,-7.0,-248.0,30.0,0
880,-8.0,-251.0,35.0,0
881,-7.0,-251.0,33.0,0
882,-8.0,-250.0,30.0,0
883,-6.0,-252.0,33.0,0
884,-5.0,-251.0,30.0,0
885,-1.0,-255.0,28.0,0
886,-3.0,-253.0,29.0,0
887,-1.0,-255.0,30.0,0
888,-2.0,-256.0,27.0,0
889,-2.0,-257.0,28.0,0
890,-1.0,-258.0,27.0,0
891,-1.0,-253.0,29.0,0
892,-1.0,-254.0,31.0,0
893,4.0,-243.0,35.0,0
894,6.0,-261.0,47.0,0
895,-6.0,-247.0,24.0,0
896,-6.0,-248.0,39.0,0
897,-3.0,-242.0,57.0,0
898,-7.0,-260.0,47.0,0
899,10.0,-241.0,57.0,0
900,-9.0,-254.0,46.0,0
901,-8.0,-243.0,45.0,0
902,-4.0,-246.0,39.0,0
903,-11.0,-237.0,33.0,0
904,0.0,-236.0,16.0,0
905,0.0,-236.0,6.0,0
906,-3.0,-239.0,8.0,0
907,-5.0,-242.0,14.0,0
908,-8.0,-240.0,28.0,0
909,1.0,-237.0,21.0,0
910,4.0,-235.0,13.0,0
911,-1.0,-240.0,14.0,0
912,-5.0,-250.0,7.0,0
913,-9.0,-250.0,18.0,0
914,-2.0,-251.0,27.0,0
915,-12.0,-236.0,50.0,0
916,-12.0,-252.0,24.0,0
917,-13.0,-238.0,7.0,0
918,-2.0,-246.0,27.0,0
919,-3.0,-245.0,14.0,0
920,-1.0,-246.0,10.0,0
921,-2.0,-246.0,9.0,0
922,-3.0,-249.0,7.0,0
923,-7.0,-255.0,1.0,0
924,3.0,-246.0,7.0,0
925,-1.0,-249.0,10.0,0
926,0.0,-253.0,-4.0,0
927,-2.0,-252.0,-4.0,0
928,9.0,-257.0,2.0,0
929,-21.0,-250.0,-12.0,0
930,-9.0,-247.0,-5.0,0
931,-4.0,-253.0,0.0,0
932,-4.0,-246.0,-3.0,0
933,-8.0,-250.0,-2.0,0
934,-6.0,-242.0,-8.0,0
935,-9.0,-239.0,-14.0,0
936,-7.0,-237.0,-14.0,0
937,-8.0,-241.0,-19.0,0
938,-8.0,-246.0,-15.0,0
939,-7.0,-249.0,-15.0,0
940,-10.0,-247.0,-23.0,0
941,-6.0,-244.0,-26.0,0
942,-3.0,-238.0,-36.0,0
943,-13.0,-248.0,-34.0,0
944,1.0,-246.0,-37.0,0
945,1.0,-243.0,-33.0,0
946,-3.0,-246.0,-38.0,0
947,9.0,-245.0,-42.0,0
948,-1.0,-252.0,-29.0,0
949,3.0,-230.0,-52.0,0
950,1.0,-239.0,-36.0,0
951,4.0,-240.0,-40.0,0
952,1.0,-242.0,-35.0,0
953,3.0,-243.0,-34.0,0
954,9.0,-246.0,-28.0,0
955,8.0,-245.0,-32.0,0
956,14.0,-248.0,-47.0,0
957,12.0,-252.0,-38.0,0
958,10.0,-240.0,-39.0,0
959,8.0,-250.0,-45.0,0
960,12.0,-258.0,-39.0,0
961,17.0,-249.0,-48.0,0
962,17.0,-257.0,-35.0,0
963,11.0,-262.0,-35.0,0
964,14.0,-250.0,-47.0,0
965,15.0,-259.0,-33.0,0
966,11.0,-259.0,-38.0,0
967,11.0,-276.0,-48.0,0
968,2.0,-295.0,-52.0,0
969,-2.0,-318.0,-50.0,0
970,-3.0,-340.0,-65.0,0
971,-17.0,-354.0,-56.0,0
972,-27.0,-391.0,-72.0,0
973,-33.0,-397.0,-78.0,0
974,-28.0,-409.0,-91.0,0
975,-24.0,-408.0,-116.0,0
976,-21.0,-390.0,-137.0,0
977,-14.0,-361.0,-153.0,0
978,-18.0,-348.0,-158.0,0
979,-22.0,-345.0,-156.0,0
980,-30.0,-339.0,-152.0,0
981,-31.0,-347.0,-136.0,0
982,-28.0,-356.0,-114.0,0
983,-20.0,-371.0,-105.0,0
984,-18.0,-384.0,-94.0,0
985,-22.0,-399.0,-97.0,0
986,-19.0,-409.0,-103.0,0
987,-15.0,-421.0,-108.0,0
988,-9.0,-416.0,-104.0,0
989,0.0,-404.0,-107.0,0
990,2.0,-390.0,-109.0,0
991,8.0,-381.0,-110.0,0
992,8.0,-373.0,-113.0,0
993,14.0,-372.0,-112.0,0
994,14.0,-356.0,-134.0,0
995,10.0,-353.0,-153.0,0
996,15.0,-357.0,-171.0,0
997,16.0,-352.0,-192.0,0
998,11.0,-360.0,-196.0,0
999,12.0,-372.0,-193.0,0
1000,12.0,-377.0,-197.0,0
1001,9.0,-380.0,-185.0,0
1002,12.0,-382.0,-165.0,0
1003,10.0,-383.0,-176.0,0
1004,9.0,-381.0,-166.0,0
1005,3.0,-378.0,-157.0,0
1006,4.0,-380.0,-154.0,0
1007,-10.0,-377.0,-145.0,0
1008,-3.0,-375.0,-147.0,0
1009,0.0,-374.0,-145.0,0
1010,0.0,-373.0,-144.0,0
1011,-2.0,-371.0,-138.0,0
1012,3.0,-368.0,-135.0,0
1013,-4.0,-370.0,-132.0,0
1014,0.0,-371.0,-125.0,0
1015,-2.0,-375.0,-123.0,0
1016,-5.0,-375.0,-122.0,0
1017,-7.0,-375.0,-117.0,0
1018,-1.0,-373.0,-114.0,0
1019,-1.0,-374.0,-108.0,0
1020,1.0,-371.0,-111.0,0
1021,4.0,-367.0,-101.0,0
1022,1.0,-356.0,-106.0,0
1023,2.0,-342.0,-108.0,0
1024,1.0,-328.0,-107.0,0
1025,0.0,-314.0,-107.0,0
1026,0.0,-302.0,-106.0,0
1027,-10.0,-283.0,-106.0,0
1028,-8.0,-269.0,-103.0,0
1029,-15.0,-251.0,-101.0,0
1030,-17.0,-238.0,-100.0,0
1031,-16.0,-219.0,-100.0,0
1032,-21.0,-207.0,-94.0,0
1033,-16.0,-189.0,-92.0,0
1034,-19.0,-182.0,-93.0,0
1035,-24.0,-167.0,-92.0,0
1036,-19.0,-155.0,-84.0,0
1037,-20.0,-150.0,-82.0,0
1038,-24.0,-142.0,-77.0,0
1039,-17.0,-139.0,-76.0,0
1040,-15.0,-132.0,-71.0,0
1041,-16.0,-134.0,-63.0,0
1042,-12.0,-139.0,-56.0,0
1043,-13.0,-136.0,-55.0,0
1044,-13.0,-138.0,-52.0,0
1045,-10.0,-145.0,-48.0,0
1046,-11.0,-150.0,-46.0,0
1047,0.0,-154.0,-45.0,0
1048,-4.0,-152.0,-44.0,0
1049,-1.0,-158.0,-43.0,0
1050,1.0,-159.0,-40.0,0
1051,3.0,-153.0,-45.0,0
1052,5.0,-156.0,-45.0,0
1053,9.0,-150.0,-45.0,0
1054,8.0,-143.0,-44.0,0
1055,15.0,-140.0,-47.0,0
1056,10.0,-132.0,-48.0,0
1057,18.0,-122.0,-51.0,0
1058,16.0,-113.0,-57.0,0
1059,17.0,-104.0,-56.0,0
1060,18.0,-95.0,-65.0,0
1061,17.0,-81.0,-66.0,0
1062,17.0,-72.0,-68.0,0
1063,19.0,-65.0,-66.0,0
1064,22.0,-62.0,-64.0,0
1065,16.0,-58.0,-61.0,0
1066,17.0,-57.0,-53.0,0
1067,16.0,-58.0,-45.0,0
1068,9.0,-60.0,-46.0,0
1069,7.0,-61.0,-47.0,0
1070,10.0,-57.0,-48.0,0
1071,12.0,-54.0,-50.0,0
1072,13.0,-51.0,-59.0,0
1073,14.0,-48.0,-66.0,0
1074,19.0,-43.0,-73.0,0
1075,25.0,-45.0,-83.0,0
1076,24.0,-47.0,-85.0,0
1077,28.0,-44.0,-79.0,0
1078,33.0,-46.0,-77.0,0
1079,36.0,-56.0,-71.0,0
1080,47.0,-78.0,-65.0,0
1081,48.0,-96.0,-57.0,0
1082,53.0,-115.0,-42.0,0
1083,54.0,-134.0,-37.0,0
1084,55.0,-157.0,-29.0,0
1085,58.0,-176.0,-21.0,0
1086,53.0,-198.0,-22.0,0
1087,58.0,-212.0,-25.0,0
1088,52.0,-232.0,-34.0,0
1089,41.0,-248.0,-32.0,0
1090,33.0,-269.0,-42.0,0
1091,19.0,-285.0,-45.0,0
1092,9.0,-304.0,-46.0,0
1093,-1.0,-317.0,-52.0,0
1094,-12.0,-330.0,-58.0,0
1095,-21.0,-335.0,-61.0,0
1096,-28.0,-337.0,-72.0,0
1097,-34.0,-336.0,-74.0,0
1098,-35.0,-337.0,-72.0,0
1099,-37.0,-336.0,-68.0,0
1100,-33.0,-330.0,-55.0,0
1101,-16.0,-325.0,-47.0,0
1102,3.0,-313.0,-33.0,0
1103,25.0,-304.0,-23.0,0
1104,34.0,-294.0,-14.0,0
1105,36.0,-284.0,-10.0,0
1106,37.0,-269.0,-15.0,0
1107,46.0,-267.0,-20.0,0
1108,44.0,-257.0,-17.0,0
1109,45.0,-250.0,-34.0,0
1110,44.0,-247.0,-40.0,0
1111,42.0,-242.0,-42.0,0
1112,38.0,-242.0,-41.0,0
1113,28.0,-241.0,-35.0,0
1114,16.0,-242.0,-29.0,0
1115,7.0,-242.0,-28.0,0
1116,0.0,-245.0,-19.0,0
1117,-8.0,-248.0,-16.0,0
1118,-15.0,-252.0,-13.0,0
1119,-18.0,-256.0,-9.0,0
1120,-21.0,-258.0,-6.0,0
1121,-20.0,-263.0,-8.0,0
1122,-18.0,-261.0,-2.0,0
1123,-5.0,-266.0,-4.0,0
1124,0.0,-266.0,-2.0,0
1125,1.0,-262.0,2.0,0
1126,7.0,-259.0,4.0,0
1127,8.0,-259.0,11.0,0
1128,11.0,-256.0,11.0,0
1129,13.0,-250.0,15.0,0
1130,11.0,-246.0,16.0,0
1131,16.0,-241.0,14.0,0
1132,15.0,-234.0,18.0,0
1133,16.0,-230.0,11.0,0
1134,17.0,-225.0,9.0,0
1135,14.0,-217.0,7.0,0
1136,9.0,-217.0,6.0,0
1137,5.0,-213.0,0.0,0
1138,0.0,-217.0,-6.0,0
1139,-5.0,-216.0,-2.0,0
1140,-11.0,-220.0,-9.0,0
1141,-14.0,-229.0,-10.0,0
1142,-13.0,-236.0,-9.0,0
1143,-13.0,-243.0,-8.0,0
1144,-6.0,-250.0,-9.0,0
1145,-3.0,-262.0,-7.0,0
1146,1.0,-269.0,0.0,0
1147,2.0,-277.0,-3.0,0
1148,5.0,-285.0,0.0,0
1149,15.0,-291.0,-1.0,0
1150,16.0,-295.0,-1.0,0
1151,18.0,-298.0,2.0,0
1152,21.0,-293.0,-3.0,0
1153,22.0,-291.0,-7.0,0
1154,24.0,-286.0,-6.0,0
1155,25.0,-281.0,-5.0,0
1156,21.0,-273.0,-10.0,0
1157,20.0,-270.0,-6.0,0
1158,21.0,-265.0,-3.0,0
1159,15.0,-260.0,-5.0,0
1160,10.0,-253.0,-7.0,0
1161,5.0,-249.0,-6.0,0
1162,6.0,-248.0,-1.0,0
1163,5.0,-250.0,-5.0,0
1164,5.0,-251.0,-3.0,0
1165,5.0,-252.0,-2.0,0
1166,8.0,-256.0,0.0,0
1167,8.0,-257.0,-3.0,0
1168,7.0,-259.0,2.0,0
1169,9.0,-263.0,4.0,0
1170,9.0,-259.0,9.0,0
1171,9.0,-260.0,7.0,0
1172,10.0,-260.0,4.0,0
1173,10.0,-259.0,5.0,0
1174,6.0,-260.0,4.0,0
1175,8.0,-255.0,1.0,0
1176,8.0,-254.0,4.0,0
1177,7.0,-253.0,5.0,0
1178,7.0,-249.0,4.0,0
1179,4.0,-248.0,5.0,0
1180,2.0,-246.0,5.0,0
1181,1.0,-244.0,6.0,0
1182,-1.0,-243.0,9.0,0
1183,0.0,-246.0,6.0,0
1184,-1.0,-248.0,6.0,0
1185,0.0,-252.0,11.0,0
1186,-2.0,-255.0,11.0,0
1187,0.0,-257.0,12.0,0
1188,2.0,-254.0,10.0,0
1189,0.0,-256.0,12.0,0
1190,0.0,-259.0,10.0,0
1191,-2.0,-257.0,11.0,0
1192,1.0,-254.0,7.0,0
1193,0.0,-254.0,8.0,0
1194,4.0,-252.0,9.0,0
1195,4.0,-253.0,7.0,0
1196,2.0,-248.0,4.0,0
1197,7.0,-249.0,2.0,0
1198,6.0,-249.0,5.0,0
1199,7.0,-249.0,1.0,0
1200,3.0,-253.0,4.0,0
1201,4.0,-253.0,4.0,0
1202,6.0,-256.0,7.0,0
1203,6.0,-257.0,3.0,0
1204,4.0,-262.0,5.0,0
1205,2.0,-261.0,8.0,0
1206,1.0,-264.0,8.0,0
1207,2.0,-269.0,4.0,0
1208,2.0,-266.0,2.0,0
1209,0.0,-267.0,3.0,0
1210,2.0,-264.0,4.0,0
1211,5.0,-262.0,4.0,0
1212,0.0,-262.0,1.0,0
1213,3.0,-260.0,-2.0,0
1214,4.0,-254.0,2.0,0
1215,7.0,-259.0,4.0,0
1216,6.0,-255.0,-1.0,0
1217,8.0,-258.0,0.0,0
1218,7.0,-255.0,-1.0,0
1219,5.0,-256.0,0.0,0
1220,5.0,-255.0,2.0,0
1221,7.0,-255.0,-1.0,0
1222,8.0,-260.0,2.0,0
1223,12.0,-256.0,1.0,0
1224,9.0,-255.0,-1.0,0
1225,11.0,-259.0,-3.0,0
1226,8.0,-255.0,0.0,0
1227,6.0,-254.0,-2.0,0
1228,5.0,-253.0,-5.0,0
1229,8.0,-252.0,-6.0,0
1230,5.0,-253.0,-7.0,0
1231,4.0,-256.0,-6.0,0
1232,2.0,-256.0,-5.0,0
1233,1.0,-255.0,-8.0,0
1234,4.0,-255.0,-10.0,0
1235,4.0,-257.0,-7.0,0
1236,3.0,-258.0,-5.0,0
1237,7.0,-258.0,-8.0,0
1238,7.0,-260.0,-7.0,0
1239,6.0,-259.0,-7.0,0
1240,7.0,-257.0,-9.0,0
1241,8.0,-259.0,-6.0,0
1242,6.0,-259.0,-7.0,0
1243,12.0,-263.0,-7.0,0
1244,10.0,-262.0,-4.0,0
1245,8.0,-262.0,-7.0,0
1246,8.0,-259.0,-7.0,0
1247,10.0,-259.0,-8.0,0
1248,5.0,-261.0,-8.0,0
1249,6.0,-262.0,-6.0,0
1250,4.0,-257.0,-9.0,0
1251,4.0,-261.0,-10.0,0
1252,5.0,-261.0,-5.0,0
1253,4.0,-258.0,-6.0,0
1254,3.0,-257.0,-5.0,0
1255,3.0,-258.0,-6.0,0
1256,5.0,-258.0,-5.0,0
1257,2.0,-257.0,-8.0,0
1258,2.0,-256.0,-4.0,0
1259,5.0,-260.0,-9.0,0
1260,3.0,-258.0,-6.0,0
1261,6.0,-257.0,-5.0,0
1262,6.0,-256.0,-2.0,0
1263,5.0,-257.0,-5.0,0
1264,6.0,-257.0,-4.0,0
1265,4.0,-256.0,-5.0,0
1266,3.0,-258.0,-6.0,0
1267,4.0,-253.0,-5.0,0
1268,3.0,-255.0,-5.0,0
1269,2.0,-252.0,-9.0,0
1270,1.0,-252.0,-12.0,0
1271,1.0,-251.0,-13.0,0
1272,2.0,-254.0,-9.0,0
1273,1.0,-256.0,-8.0,0
1274,1.0,-258.0,-10.0,0
1275,2.0,-258.0,-9.0,0
1276,-1.0,-259.0,-2.0,0
1277,0.0,-261.0,-8.0,0
1278,0.0,-262.0,-6.0,0
1279,4.0,-261.0,-10.0,0
1280,3.0,-261.0,-8.0,0
1281,1.0,-255.0,-7.0,0
1282,1.0,-254.0,-7.0,0
1283,3.0,-253.0,-8.0,0
1284,1.0,-254.0,-4.0,0
1285,2.0,-251.0,-10.0,0
1286,2.0,-253.0,-7.0,0
1287,3.0,-251.0,-5.0,0
1288,4.0,-256.0,-8.0,0
1289,2.0,-257.0,-7.0,0
1290,4.0,-258.0,-4.0,0
1291,2.0,-259.0,-9.0,0
1292,1.0,-259.0,-8.0,0
1293,1.0,-261.0,-7.0,0
1294,0.0,-258.0,-8.0,0
1295,2.0,-256.0,-9.0,0
1296,1.0,-256.0,-11.0,0
1297,1.0,-257.0,-9.0,0
1298,0.0,-254.0,-7.0,0
1299,0.0,-255.0,-10.0,0
1300,1.0,-254.0,-11.0,0
1301,1.0,-256.0,-11.0,0
1302,0.0,-254.0,-13.0,0
1303,1.0,-257.0,-9.0,0
1304,0.0,-259.0,-11.0,0
1305,1.0,-257.0,-9.0,0
1306,-1.0,-252.0,-10.0,0
1307,2.0,-255.0,-9.0,0
1308,0.0,-256.0,-11.0,0
1309,2.0,-257.0,-8.0,0
1310,0.0,-257.0,-6.0,0
1311,1.0,-256.0,-8.0,0
1312,2.0,-257.0,-7.0,0
1313,-1.0,-257.0,-7.0,0
1314,2.0,-258.0,-9.0,0
1315,2.0,-258.0,-7.0,0
1316,5.0,-258.0,-3.0,0
1317,2.0,-257.0,-6.0,0
1318,2.0,-257.0,-9.0,0
1319,2.0,-257.0,-8.0,0
1320,5.0,-255.0,-6.0,0
1321,3.0,-256.0,-7.0,0
1322,3.0,-252.0,-9.0,0
1323,2.0,-251.0,-10.0,0
1324,5.0,-259.0,-1.0,0
1325,2.0,-256.0,-11.0,0
1326,1.0,-256.0,-7.0,0
1327,3.0,-256.0,-6.0,0
1328,1.0,-258.0,-8.0,0
1329,3.0,-256.0,-7.0,0
1330,0.0,-258.0,-7.0,0
1331,4.0,-261.0,-10.0,0
1332,2.0,-256.0,-10.0,0
1333,2.0,-259.0,-9.0,0
1334,-1.0,-257.0,-6.0,0
1335,0.0,-255.0,-8.0,0
1336,-2.0,-257.0,-10.0,0
1337,-2.0,-258.0,-13.0,0
1338,0.0,-254.0,-16.0,0
1339,0.0,-256.0,-10.0,0
1340,0.0,-253.0,-11.0,0
1341,0.0,-255.0,-12.0,0
1342,0.0,-254.0,-11.0,0
1343,-2.0,-252.0,-10.0,0
1344,0.0,-253.0,-11.0,0
1345,-1.0,-256.0,-13.0,0
1346,0.0,-256.0,-9.0,0
1347,1.0,-255.0,-8.0,0
1348,0.0,-256.0,-8.0,0
1349,2.0,-260.0,-9.0,0
1350,1.0,-258.0,-10.0,0
1351,0.0,-256.0,-9.0,0
1352,0.0,-256.0,-11.0,0
1353,0.0,-257.0,-8.0,0
1354,-1.0,-256.0,-7.0,0
1355,1.0,-258.0,-4.0,0
1356,1.0,-258.0,-8.0,0
1357,1.0,-257.0,-5.0,0
1358,1.0,-255.0,-7.0,0
1359,0.0,-257.0,-7.0,0
1360,1.0,-255.0,-5.0,0
1361,1.0,-254.0,-5.0,0
1362,1.0,-256.0,-9.0,0
1363,1.0,-253.0,-4.0,0
1364,1.0,-256.0,-5.0,0
1365,1.0,-258.0,-3.0,0
1366,0.0,-257.0,-4.0,0
1367,-3.0,-250.0,-12.0,0
1368,1.0,-256.0,-7.0,0
1369,3.0,-257.0,-4.0,0
1370,5.0,-258.0,-7.0,0
1371,3.0,-256.0,-8.0,0
1372,2.0,-255.0,-8.0,0
1373,3.0,-252.0,-12.0,0
1374,2.0,-254.0,-10.0,0
1375,3.0,-256.0,-11.0,0
1376,3.0,-257.0,-7.0,0
1377,1.0,-260.0,-7.0,0
1378,3.0,-259.0,-10.0,0
1379,1.0,-260.0,-9.0,0
1380,4.0,-263.0,-8.0,0
1381,-1.0,-258.0,-6.0,0
1382,1.0,-260.0,-6.0,0
1383,4.0,-257.0,-8.0,0
1384,4.0,-253.0,-6.0,0
1385,0.0,-257.0,-6.0,0
1386,2.0,-257.0,-7.0,0
1387,3.0,-253.0,-4.0,0
1388,1.0,-253.0,-3.0,0
1389,4.0,-253.0,-7.0,0
1390,3.0,-252.0,-5.0,0
1391,3.0,-255.0,-8.0,0
1392,1.0,-255.0,-8.0,0
1393,1.0,-258.0,-9.0,0
1394,1.0,-252.0,-8.0,0
1395,1.0,-254.0,-8.0,0
1396,4.0,-259.0,-7.0,0
1397,3.0,-257.0,-8.0,0
1398,4.0,-257.0,-7.0,0
1399,2.0,-259.0,-2.0,0
1400,1.0,-257.0,-5.0,0
1401,3.0,-255.0,-10.0,0
1402,5.0,-255.0,-9.0,0
1403,3.0,-256.0,-5.0,0
1404,4.0,-255.0,-5.0,0
1405,1.0,-256.0,-6.0,0
1406,3.0,-259.0,-2.0,0
1407,2.0,-257.0,-8.0,0
1408,3.0,-256.0,-5.0,0
1409,1.0,-257.0,-6.0,0
1410,3.0,-259.0,-1.0,0
1411,2.0,-257.0,-3.0,0
1412,2.0,-258.0,-2.0,0
1413,1.0,-259.0,-7.0,0
1414,3.0,-260.0,-9.0,0
1415,2.0,-257.0,-4.0,0
1416,2.0,-259.0,-5.0,0
1417,2.0,-257.0,-14.0,0
1418,3.0,-258.0,-7.0,0
1419,3.0,-253.0,-8.0,0
1420,2.0,-256.0,-11.0,0
1421,1.0,-251.0,-9.0,0
1422,0.0,-250.0,-8.0,0
1423,1.0,-251.0,-10.0,0
1424,2.0,-256.0,-11.0,0
1425,0.0,-253.0,-8.0,0
1426,3.0,-258.0,-7.0,0
1427,2.0,-259.0,-8.0,0
1428,0.0,-257.0,-12.0,0
1429,3.0,-258.0,-9.0,0
1430,2.0,-257.0,-11.0,0
1431,0.0,-257.0,-10.0,0
1432,3.0,-262.0,-6.0,0
1433,1.0,-263.0,-8.0,0
1434,2.0,-260.0,-9.0,0
1435,4.0,-260.0,-8.0,0
1436,3.0,-259.0,-6.0,0
1437,3.0,-258.0,-8.0,0
1438,1.0,-257.0,-8.0,0
1439,2.0,-256.0,-8.0,0
1440,6.0,-256.0,-10.0,0
1441,4.0,-255.0,-9.0,0
1442,4.0,-255.0,-7.0,0
1443,3.0,-257.0,-12.0,0
1444,0.0,-257.0,-7.0,0
1445,0.0,-254.0,-9.0,0
1446,2.0,-257.0,-8.0,0
1447,3.0,-258.0,-8.0,0
1448,2.0,-255.0,-7.0,0
1449,1.0,-255.0,-12.0,0
1450,0.0,-255.0,-8.0,0
1451,1.0,-256.0,-10.0,0
1452,2.0,-254.0,-9.0,0
1453,1.0,-254.0,-8.0,0
1454,3.0,-262.0,-7.0,0
1455,1.0,-255.0,-8.0,0
1456,3.0,-260.0,-7.0,0
1457,1.0,-257.0,-8.0,0
1458,4.0,-260.0,-13.0,0
1459,2.0,-258.0,-10.0,0
1460,2.0,-257.0,-13.0,0
1461,2.0,-256.0,-6.0,0
1462,1.0,-256.0,-11.0,0
1463,4.0,-256.0,-6.0,0
1464,2.0,-254.0,-12.0,0
1465,0.0,-257.0,-9.0,0
1466,0.0,-256.0,-7.0,0
1467,3.0,-256.0,-9.0,0
1468,0.0,-260.0,-2.0,0
1469,1.0,-259.0,-6.0,0
1470,0.0,-260.0,-7.0,0
1471,1.0,-262.0,-10.0,0
1472,0.0,-257.0,-7.0,0
1473,-3.0,-255.0,-8.0,0
1474,1.0,-259.0,-6.0,0
1475,1.0,-254.0,-9.0,0
1476,1.0,-254.0,-11.0,0
1477,6.0,-256.0,-8.0,0
1478,1.0,-251.0,-11.0,0
1479,4.0,-256.0,-13.0,0
1480,2.0,-257.0,-11.0,0
1481,3.0,-255.0,-8.0,0
1482,1.0,-254.0,-4.0,0
1483,3.0,-253.0,-5.0,0
1484,2.0,-255.0,-4.0,0
1485,2.0,-257.0,-4.0,0
1486,1.0,-256.0,-6.0,0
1487,2.0,-255.0,-3.0,0
1488,1.0,-257.0,-4.0,0
1489,0.0,-254.0,-4.0,0
1490,2.0,-257.0,-4.0,0
1491,1.0,-253.0,-2.0,0
1492,2.0,-257.0,-4.0,0
1493,0.0,-252.0,-5.0,0
1494,3.0,-254.0,-5.0,0
1495,3.0,-253.0,-7.0,0
1496,3.0,-254.0,-5.0,0
1497,4.0,-256.0,-5.0,0
1498,5.0,-256.0,-12.0,0
1499,1.0,-255.0,-4.0,0
1500,2.0,-257.0,-6.0,0
1501,4.0,-256.0,-6.0,0
1502,1.0,-257.0,-3.0,0
1503,6.0,-257.0,-7.0,0
1504,1.0,-256.0,-6.0,0
1505,1.0,-253.0,-5.0,0
1506,1.0,-259.0,-7.0,0
1507,2.0,-259.0,-2.0,0
1508,4.0,-260.0,-6.0,0
1509,1.0,-258.0,-6.0,0
1510,1.0,-256.0,-2.0,0
1511,1.0,-255.0,-4.0,0
1512,2.0,-257.0,-7.0,0
1513,3.0,-255.0,-3.0,0
1514,2.0,-253.0,-6.0,0
1515,2.0,-255.0,-3.0,0
1516,1.0,-254.0,-4.0,0
1517,3.0,-254.0,-5.0,0
1518,2.0,-256.0,-3.0,0
1519,4.0,-256.0,-3.0,0
1520,4.0,-255.0,-5.0,0
1521,6.0,-257.0,-7.0,0
1522,2.0,-260.0,-2.0,0
1523,6.0,-257.0,-4.0,0
1524,5.0,-257.0,-6.0,0
1525,2.0,-257.0,-4.0,0
1526,2.0,-255.0,0.0,0
1527,6.0,-257.0,-2.0,0
1528,4.0,-258.0,-7.0,0
1529,2.0,-257.0,-6.0,0
1530,2.0,-255.0,-8.0,0
1531,2.0,-258.0,-5.0,0
1532,2.0,-255.0,-5.0,0
1533,4.0,-257.0,-4.0,0
1534,1.0,-255.0,-3.0,0
1535,1.0,-257.0,-4.0,0
1536,1.0,-257.0,-5.0,0
1537,1.0,-258.0,0.0,0
1538,2.0,-257.0,-4.0,0
1539,5.0,-256.0,-3.0,0
1540,2.0,-254.0,0.0,0
1541,1.0,-256.0,-3.0,0
1542,3.0,-258.0,-6.0,0
1543,2.0,-255.0,-7.0,0
1544,4.0,-257.0,-2.0,0
1545,1.0,-257.0,0.0,0
1546,4.0,-256.0,-5.0,0
1547,6.0,-260.0,-4.0,0
1548,1.0,-257.0,-2.0,0
1549,3.0,-258.0,-4.0,0
1550,2.0,-252.0,-4.0,0
1551,1.0,-254.0,-8.0,0
1552,2.0,-256.0,-5.0,0
1553,1.0,-255.0,-2.0,0
1554,1.0,-255.0,-6.0,0
1555,1.0,-258.0,-2.0,0
1556,2.0,-255.0,-4.0,0
1557,-1.0,-257.0,-3.0,0
1558,2.0,-257.0,1.0,0
1559,1.0,-255.0,-5.0,0
1560,3.0,-259.0,-4.0,0
1561,1.0,-258.0,-3.0,0
1562,1.0,-255.0,-2.0,0
1563,1.0,-256.0,-4.0,0
1564,2.0,-257.0,-3.0,0
1565,1.0,-255.0,-4.0,0
1566,4.0,-255.0,-6.0,0
1567,2.0,-252.0,-4.0,0
1568,5.0,-256.0,-7.0,0
1569,3.0,-254.0,-9.0,0
1570,3.0,-257.0,-4.0,0
1571,4.0,-256.0,-8.0,0
1572,3.0,-253.0,-2.0,0
1573,2.0,-259.0,-4.0,0
1574,1.0,-260.0,-1.0,0
1575,0.0,-257.0,-2.0,0
1576,0.0,-259.0,-4.0,0
1577,2.0,-260.0,-3.0,0
1578,3.0,-256.0,-3.0,0
1579,2.0,-256.0,-2.0,0
1580,3.0,-253.0,-8.0,0
1581,3.0,-256.0,-8.0,0
1582,1.0,-255.0,-2.0,0
1583,5.0,-254.0,-9.0,0
1584,14.0,-250.0,-2.0,0
1585,4.0,-256.0,-5.0,0
1586,3.0,-256.0,-5.0,0
1587,2.0,-256.0,-3.0,0
1588,3.0,-259.0,-5.0,0
1589,4.0,-261.0,-5.0,0
1590,2.0,-257.0,-3.0,0
1591,2.0,-262.0,-4.0,0
1592,2.0,-258.0,-2.0,0
1593,2.0,-257.0,-2.0,0
1594,1.0,-256.0,-5.0,0
1595,0.0,-255.0,-6.0,0
1596,4.0,-255.0,-4.0,0
1597,1.0,-256.0,-4.0,0
1598,2.0,-255.0,-6.0,0
1599,1.0,-257.0,-2.0,0
1600,2.0,-257.0,-3.0,0
1601,1.0,-254.0,-7.0,0
1602,2.0,-255.0,-5.0,0
1603,1.0,-254.0,-6.0,0
1604,1.0,-257.0,-5.0,0
1605,3.0,-256.0,-1.0,0
1606,3.0,-263.0,-10.0,0
1607,2.0,-255.0,-2.0,0
1608,2.0,-254.0,-6.0,0
1609,0.0,-255.0,-4.0,0
1610,1.0,-254.0,-5.0,0
1611,0.0,-255.0,-6.0,0
1612,4.0,-256.0,-4.0,0
1613,5.0,-259.0,-5.0,0
1614,2.0,-256.0,-5.0,0
1615,3.0,-258.0,-5.0,0
1616,4.0,-261.0,-3.0,0
1617,4.0,-257.0,-8.0,0
1618,3.0,-256.0,-3.0,0
1619,2.0,-255.0,-7.0,0
1620,2.0,-257.0,-3.0,0
1621,0.0,-260.0,-5.0,0
1622,2.0,-256.0,-5.0,0
1623,1.0,-255.0,-4.0,0
1624,2.0,-257.0,-3.0,0
1625,1.0,-254.0,-5.0,0
1626,1.0,-254.0,-4.0,0
1627,1.0,-250.0,-9.0,0
1628,1.0,-256.0,-2.0,0
1629,4.0,-255.0,-4.0,0
1630,2.0,-255.0,-1.0,0
1631,5.0,-256.0,-2.0,0
1632,2.0,-253.0,-1.0,0
1633,5.0,-257.0,0.0,0
1634,3.0,-255.0,2.0,0
1635,2.0,-257.0,-3.0,0
1636,5.0,-256.0,-5.0,0
1637,1.0,-256.0,-5.0,0
1638,3.0,-257.0,-3.0,0
1639,4.0,-256.0,-6.0,0
1640,2.0,-254.0,-1.0,0
1641,0.0,-256.0,0.0,0
1642,3.0,-257.0,-3.0,0
1643,2.0,-255.0,3.0,0
1644,1.0,-253.0,2.0,0
1645,3.0,-258.0,-1.0,0
1646,3.0,-259.0,-2.0,0
1647,3.0,-259.0,-4.0,0
1648,3.0,-255.0,-5.0,0
1649,8.0,-255.0,-6.0,0
1650,5.0,-258.0,-2.0,0
1651,2.0,-254.0,-6.0,0
1652,3.0,-256.0,-5.0,0
1653,4.0,-254.0,-3.0,0
1654,3.0,-255.0,-2.0,0
1655,8.0,-257.0,-3.0,0
1656,3.0,-256.0,-1.0,0
1657,1.0,-257.0,0.0,0
1658,3.0,-257.0,-1.0,0
1659,1.0,-254.0,-3.0,0
1660,2.0,-258.0,0.0,0
1661,2.0,-255.0,1.0,0
1662,1.0,-255.0,-6.0,0
1663,3.0,-256.0,-1.0,0
1664,2.0,-255.0,1.0,0
1665,4.0,-258.0,0.0,0
1666,1.0,-255.0,0.0,0
1667,2.0,-256.0,-1.0,0
1668,3.0,-255.0,0.0,0
1669,1.0,-256.0,-2.0,0
1670,3.0,-257.0,0.0,0
1671,4.0,-254.0,-5.0,0
1672,3.0,-257.0,-5.0,0
1673,3.0,-252.0,-4.0,0
1674,5.0,-257.0,1.0,0
1675,3.0,-254.0,-2.0,0
1676,3.0,-251.0,-2.0,0
1677,3.0,-254.0,-2.0,0
1678,3.0,-253.0,-1.0,0
1679,3.0,-255.0,-2.0,0
1680,4.0,-255.0,-4.0,0
1681,6.0,-253.0,-4.0,0
1682,3.0,-254.0,0.0,0
1683,4.0,-254.0,-1.0,0
1684,3.0,-258.0,-2.0,0
1685,1.0,-262.0,-1.0,0
1686,4.0,-262.0,-1.0,0
1687,2.0,-259.0,-4.0,0
1688,1.0,-260.0,-3.0,0
1689,3.0,-258.0,-4.0,0
1690,4.0,-258.0,-6.0,0
1691,3.0,-259.0,-3.0,0
1692,0.0,-253.0,-4.0,0
1693,5.0,-249.0,-5.0,0
1694,3.0,-253.0,-3.0,0
1695,3.0,-255.0,-5.0,0
1696,4.0,-258.0,1.0,0
1697,2.0,-254.0,-5.0,0
1698,1.0,-257.0,-3.0,0
1699,5.0,-261.0,-4.0,0
1700,1.0,-258.0,-2.0,0
1701,4.0,-260.0,0.0,0
1702,3.0,-259.0,-3.0,0
1703,1.0,-258.0,-3.0,0
1704,1.0,-253.0,-2.0,0
1705,-1.0,-255.0,-2.0,0
1706,1.0,-254.0,-2.0,0
1707,0.0,-254.0,-5.0,0
1708,-1.0,-254.0,-2.0,0
1709,3.0,-255.0,-6.0,0
1710,3.0,-253.0,-1.0,0
1711,2.0,-254.0,0.0,0
1712,3.0,-254.0,-5.0,0
1713,2.0,-256.0,-5.0,0
1714,3.0,-252.0,-5.0,0
1715,3.0,-255.0,-6.0,0
1716,5.0,-257.0,-2.0,0
1717,4.0,-257.0,-3.0,0
1718,5.0,-256.0,-1.0,0
1719,5.0,-255.0,-4.0,0
1720,3.0,-255.0,-7.0,0
1721,1.0,-255.0,-5.0,0
1722,2.0,-257.0,-5.0,0
1723,4.0,-259.0,-4.0,0
1724,2.0,-258.0,-4.0,0
1725,3.0,-256.0,-4.0,0
1726,1.0,-257.0,-3.0,0
1727,1.0,-255.0,-8.0,0
1728,1.0,-255.0,-5.0,0
1729,1.0,-256.0,-1.0,0
1730,-2.0,-256.0,-5.0,0
1731,0.0,-255.0,-4.0,0
1732,2.0,-255.0,-5.0,0
1733,2.0,-255.0,-2.0,0
1734,2.0,-255.0,-6.0,0
1735,0.0,-253.0,-8.0,0
1736,2.0,-256.0,-7.0,0
1737,2.0,-253.0,-5.0,0
1738,3.0,-258.0,-5.0,0
1739,4.0,-259.0,-5.0,0
1740,4.0,-260.0,-7.0,0
1741,5.0,-257.0,-7.0,0
1742,5.0,-260.0,-6.0,0
1743,4.0,-258.0,-3.0,0
1744,4.0,-259.0,-6.0,0
1745,4.0,-258.0,-7.0,0
1746,3.0,-255.0,-4.0,0
1747,5.0,-256.0,-7.0,0
1748,3.0,-258.0,-6.0,0
1749,1.0,-252.0,-3.0,0
1750,1.0,-255.0,-4.0,0
1751,5.0,-255.0,-4.0,0
1752,3.0,-257.0,-2.0,0
1753,2.0,-258.0,-4.0,0
1754,3.0,-261.0,-4.0,0
1755,3.0,-257.0,-3.0,0
1756,2.0,-259.0,-10.0,0
1757,5.0,-258.0,0.0,0
1758,3.0,-257.0,-6.0,0
1759,3.0,-254.0,-9.0,0
1760,3.0,-258.0,-7.0,0
1761,3.0,-256.0,-4.0,0
1762,6.0,-254.0,-5.0,0
1763,5.0,-254.0,-3.0,0
1764,4.0,-254.0,-6.0,0
1765,4.0,-256.0,-7.0,0
1766,2.0,-257.0,-2.0,0
1767,3.0,-256.0,-9.0,0
1768,3.0,-258.0,0.0,0
1769,2.0,-254.0,-2.0,0
1770,2.0,-256.0,-1.0,0
1771,6.0,-258.0,-3.0,0
1772,3.0,-256.0,-4.0,0
1773,3.0,-254.0,-7.0,0
1774,3.0,-258.0,-7.0,0
1775,1.0,-254.0,-7.0,0
1776,1.0,-251.0,-4.0,0
1777,1.0,-255.0,-5.0,0
1778,3.0,-255.0,-7.0,0
1779,4.0,-255.0,-11.0,0
1780,4.0,-257.0,-4.0,0
1781,1.0,-259.0,-5.0,0
1782,1.0,-258.0,-5.0,0
1783,3.0,-260.0,-7.0,0
1784,1.0,-258.0,-2.0,0
1785,1.0,-259.0,-7.0,0
1786,0.0,-261.0,-3.0,0
1787,3.0,-258.0,-3.0,0
1788,1.0,-259.0,-6.0,0
1789,2.0,-256.0,-8.0,0
1790,1.0,-256.0,-6.0,0
1791,4.0,-257.0,-6.0,0
1792,3.0,-256.0,-5.0,0
1793,2.0,-255.0,-5.0,0
1794,1.0,-254.0,-2.0,0
1795,2.0,-256.0,-3.0,0
1796,1.0,-255.0,-3.0,0
1797,3.0,-255.0,-2.0,0
1798,1.0,-254.0,-1.0,0
1799,1.0,-253.0,-2.0,0
1800,3.0,-254.0,-5.0,0
1801,6.0,-259.0,-1.0,0
1802,1.0,-253.0,-4.0,0
1803,3.0,-256.0,-6.0,0
1804,3.0,-255.0,-6.0,0
1805,0.0,-252.0,-8.0,0
1806,1.0,-254.0,-6.0,0
1807,3.0,-256.0,-2.0,0
1808,1.0,-255.0,-5.0,0
1809,0.0,-255.0,-5.0,0
1810,0.0,-254.0,-4.0,0
1811,1.0,-259.0,-7.0,0
1812,0.0,-258.0,-1.0,0
1813,1.0,-262.0,-3.0,0
1814,1.0,-258.0,3.0,0
1815,-1.0,-258.0,-1.0,0
1816,1.0,-259.0,-3.0,0
1817,2.0,-259.0,1.0,0
1818,1.0,-261.0,-4.0,0
1819,0.0,-257.0,1.0,0
1820,3.0,-254.0,-2.0,0
1821,2.0,-255.0,-1.0,0
1822,4.0,-255.0,-4.0,0
1823,6.0,-253.0,2.0,0
1824,1.0,-253.0,-8.0,0
1825,2.0,-254.0,-3.0,0
1826,3.0,-254.0,-5.0,0
1827,1.0,-254.0,-4.0,0
1828,2.0,-255.0,2.0,0
1829,2.0,-257.0,-2.0,0
1830,3.0,-259.0,-4.0,0
1831,3.0,-257.0,-2.0,0
1832,3.0,-255.0,1.0,0
1833,4.0,-259.0,-4.0,0
1834,0.0,-256.0,-2.0,0
1835,2.0,-257.0,-2.0,0
1836,2.0,-258.0,-4.0,0
1837,2.0,-256.0,-4.0,0
1838,3.0,-255.0,-3.0,0
1839,0.0,-253.0,-3.0,0
1840,3.0,-253.0,-1.0,0
1841,2.0,-254.0,-2.0,0
1842,1.0,-253.0,-1.0,0
1843,1.0,-252.0,-5.0,0
1844,0.0,-253.0,-4.0,0
1845,7.0,-254.0,-6.0,0
1846,2.0,-257.0,-4.0,0
1847,3.0,-255.0,-5.0,0
1848,1.0,-254.0,-5.0,0
1849,3.0,-255.0,-3.0,0
1850,2.0,-258.0,-2.0,0
1851,4.0,-257.0,-6.0,0
1852,2.0,-256.0,-2.0,0
1853,3.0,-256.0,0.0,0
1854,2.0,-255.0,-5.0,0
1855,3.0,-257.0,-6.0,0
1856,2.0,-257.0,-6.0,0
1857,4.0,-256.0,-11.0,0
1858,2.0,-253.0,-7.0,0
1859,6.0,-257.0,-7.0,0
1860,1.0,-254.0,-3.0,0
1861,1.0,-253.0,-1.0,0
1862,4.0,-253.0,0.0,0
1863,2.0,-255.0,-6.0,0
1864,2.0,-253.0,-2.0,0
1865,4.0,-254.0,-8.0,0
1866,4.0,-254.0,-10.0,0
1867,0.0,-252.0,-6.0,0
1868,5.0,-254.0,-6.0,0
1869,0.0,-255.0,-7.0,0
1870,0.0,-255.0,-7.0,0
1871,4.0,-256.0,-6.0,0
1872,3.0,-258.0,-5.0,0
1873,1.0,-258.0,-7.0,0
1874,3.0,-258.0,-4.0,0
1875,1.0,-258.0,-6.0,0
1876,0.0,-260.0,-5.0,0
1877,3.0,-256.0,-8.0,0
1878,2.0,-257.0,-4.0,0
1879,2.0,-255.0,-2.0,0
1880,3.0,-257.0,-5.0,0
1881,3.0,-259.0,-6.0,0
1882,6.0,-256.0,-3.0,0
1883,3.0,-255.0,-4.0,0
1884,5.0,-256.0,-3.0,0
1885,3.0,-252.0,-8.0,0
1886,5.0,-258.0,-4.0,0
1887,2.0,-258.0,-4.0,0
1888,2.0,-250.0,-8.0,0
1889,2.0,-255.0,-5.0,0
1890,1.0,-254.0,-8.0,0
1891,2.0,-255.0,-6.0,0
1892,3.0,-259.0,-6.0,0
1893,2.0,-256.0,-6.0,0
1894,3.0,-258.0,-6.0,0
1895,3.0,-257.0,-4.0,0
1896,1.0,-254.0,-3.0,0
1897,4.0,-259.0,-9.0,0
1898,3.0,-259.0,-4.0,0
1899,3.0,-258.0,-6.0,0
1900,4.0,-256.0,-3.0,0
1901,4.0,-259.0,-6.0,0
1902,4.0,-256.0,-10.0,0
1903,5.0,-256.0,-8.0,0
1904,3.0,-256.0,-6.0,0
1905,4.0,-259.0,-8.0,0
1906,4.0,-257.0,-7.0,0
1907,1.0,-253.0,-2.0,0
1908,3.0,-258.0,-9.0,0
1909,4.0,-257.0,-9.0,0
1910,2.0,-255.0,-5.0,0
1911,2.0,-253.0,-4.0,0
1912,2.0,-254.0,-2.0,0
1913,1.0,-255.0,-6.0,0
1914,1.0,-253.0,-9.0,0
1915,3.0,-254.0,-8.0,0
1916,1.0,-254.0,-6.0,0
1917,2.0,-253.0,-6.0,0
1918,3.0,-255.0,-4.0,0
1919,1.0,-256.0,-5.0,0
1920,0.0,-260.0,-11.0,0
1921,2.0,-260.0,-7.0,0
1922,2.0,-257.0,-9.0,0
1923,2.0,-260.0,-8.0,0
1924,3.0,-259.0,-6.0,0
1925,4.0,-259.0,-10.0,0
1926,0.0,-257.0,-4.0,0
1927,3.0,-254.0,-5.0,0
1928,2.0,-255.0,-5.0,0
1929,3.0,-257.0,-9.0,0
1930,2.0,-253.0,-7.0,0
1931,1.0,-258.0,-10.0,0
1932,2.0,-254.0,-6.0,0
1933,1.0,-256.0,-5.0,0
1934,2.0,-256.0,-3.0,0
1935,2.0,-256.0,-3.0,0
1936,3.0,-257.0,-3.0,0
1937,1.0,-261.0,-3.0,0
1938,3.0,-259.0,-6.0,0
1939,3.0,-257.0,-5.0,0
1940,4.0,-258.0,-6.0,0
1941,4.0,-257.0,-6.0,0
1942,5.0,-260.0,-8.0,0
1943,3.0,-256.0,-5.0,0
1944,3.0,-257.0,-9.0,0
1945,4.0,-254.0,-7.0,0
1946,3.0,-254.0,-7.0,0
1947,3.0,-255.0,-5.0,0
1948,3.0,-257.0,-3.0,0
1949,7.0,-252.0,-7.0,0
1950,4.0,-253.0,-3.0,0
1951,6.0,-255.0,-7.0,0
1952,6.0,-258.0,-3.0,0
1953,4.0,-258.0,-4.0,0
1954,3.0,-254.0,-2.0,0
1955,4.0,-255.0,-5.0,0
1956,3.0,-254.0,-5.0,0
1957,2.0,-253.0,-9.0,0
1958,7.0,-258.0,-5.0,0
1959,5.0,-254.0,-8.0,0
1960,6.0,-253.0,-9.0,0
1961,4.0,-256.0,-7.0,0
1962,4.0,-255.0,-5.0,0
1963,2.0,-254.0,-6.0,0
1964,2.0,-258.0,-6.0,0
1965,1.0,-256.0,-4.0,0
1966,5.0,-255.0,-3.0,0
1967,5.0,-257.0,-1.0,0
1968,6.0,-256.0,-6.0,0
1969,5.0,-258.0,-5.0,0
1970,3.0,-255.0,-2.0,0
1971,4.0,-259.0,-7.0,0
1972,2.0,-258.0,-3.0,0
1973,3.0,-256.0,-4.0,0
1974,2.0,-259.0,3.0,0
1975,6.0,-255.0,-3.0,0
1976,2.0,-255.0,0.0,0
1977,3.0,-258.0,-5.0,0
1978,4.0,-255.0,-6.0,0
1979,4.0,-256.0,-3.0,0
1980,4.0,-256.0,-6.0,0
1981,4.0,-256.0,-2.0,0
1982,7.0,-254.0,-2.0,0
1983,1.0,-254.0,-6.0,0
1984,4.0,-256.0,-3.0,0
1985,1.0,-254.0,-4.0,0
1986,9.0,-252.0,4.0,0
1987,2.0,-257.0,-6.0,0
1988,5.0,-259.0,-4.0,0
1989,7.0,-258.0,0.0,0
1990,4.0,-255.0,0.0,0
1991,5.0,-257.0,-4.0,0
1992,3.0,-255.0,-3.0,0
1993,4.0,-255.0,-1.0,0
1994,4.0,-254.0,6.0,0
1995,6.0,-256.0,-1.0,0
1996,3.0,-254.0,4.0,0
1997,7.0,-256.0,-1.0,0
1998,6.0,-256.0,0.0,0
1999,3.0,-255.0,0.0,0
2000,4.0,-255.0,-1.0,0
2001,3.0,-255.0,-1.0,0
2002,4.0,-254.0,2.0,0
2003,3.0,-256.0,-2.0,0
2004,4.0,-255.0,-3.0,0
2005,4.0,-257.0,-3.0,0
2006,3.0,-256.0,0.0,0
2007,3.0,-253.0,1.0,0
2008,4.0,-258.0,-2.0,0
2009,5.0,-256.0,-1.0,0
2010,6.0,-256.0,-3.0,0
2011,5.0,-257.0,-6.0,0
2012,3.0,-255.0,-2.0,0
2013,5.0,-257.0,-5.0,0
2014,4.0,-259.0,1.0,0
2015,4.0,-255.0,2.0,0
2016,1.0,-254.0,3.0,0
2017,3.0,-259.0,3.0,0
2018,6.0,-258.0,6.0,0
2019,1.0,-256.0,2.0,0
2020,3.0,-256.0,0.0,0
2021,5.0,-253.0,-1.0,0
2022,5.0,-258.0,1.0,0
2023,7.0,-255.0,-2.0,0
2024,6.0,-253.0,0.0,0
2025,4.0,-250.0,-3.0,0
2026,4.0,-253.0,0.0,0
2027,5.0,-255.0,-1.0,0
2028,6.0,-253.0,-3.0,0
2029,5.0,-255.0,1.0,0
2030,4.0,-255.0,3.0,0
2031,3.0,-257.0,4.0,0
2032,2.0,-258.0,2.0,0
2033,3.0,-257.0,0.0,0
2034,4.0,-260.0,2.0,0
2035,1.0,-255.0,0.0,0
2036,0.0,-255.0,1.0,0
2037,2.0,-257.0,-1.0,0
2038,2.0,-254.0,4.0,0
2039,1.0,-255.0,2.0,0
2040,5.0,-263.0,5.0,0
2041,1.0,-252.0,3.0,0
2042,2.0,-252.0,1.0,0
2043,3.0,-252.0,2.0,0
2044,4.0,-254.0,3.0,0
2045,3.0,-257.0,3.0,0
2046,3.0,-254.0,1.0,0
2047,1.0,-254.0,1.0,0
2048,5.0,-258.0,0.0,0
2049,3.0,-256.0,0.0,0
2050,3.0,-256.0,0.0,0
2051,3.0,-259.0,3.0,0
2052,4.0,-256.0,3.0,0
2053,1.0,-258.0,2.0,0
2054,1.0,-256.0,3.0,0
2055,2.0,-256.0,4.0,0
2056,1.0,-256.0,2.0,0
2057,1.0,-255.0,1.0,0
2058,2.0,-258.0,4.0,0
2059,2.0,-256.0,3.0,0
2060,1.0,-256.0,1.0,0
2061,4.0,-256.0,2.0,0
2062,6.0,-257.0,-1.0,0
2063,1.0,-256.0,2.0,0
2064,2.0,-258.0,1.0,0
2065,2.0,-254.0,1.0,0
2066,4.0,-254.0,2.0,0
2067,3.0,-255.0,1.0,0
2068,1.0,-254.0,0.0,0
2069,3.0,-254.0,3.0,0
2070,1.0,-252.0,2.0,0
2071,2.0,-253.0,3.0,0
2072,5.0,-256.0,3.0,0
2073,2.0,-254.0,3.0,0
2074,2.0,-255.0,3.0,0
2075,2.0,-257.0,-1.0,0
2076,6.0,-256.0,3.0,0
2077,3.0,-256.0,1.0,0
2078,3.0,-260.0,3.0,0
2079,2.0,-255.0,1.0,0
2080,2.0,-254.0,2.0,0
2081,2.0,-255.0,1.0,0
2082,1.0,-257.0,3.0,0
2083,2.0,-255.0,-1.0,0
2084,3.0,-255.0,1.0,0
2085,1.0,-257.0,3.0,0
2086,3.0,-257.0,6.0,0
2087,2.0,-256.0,3.0,0
2088,4.0,-257.0,2.0,0
2089,2.0,-260.0,5.0,0
2090,5.0,-260.0,1.0,0
2091,5.0,-260.0,2.0,0
2092,3.0,-260.0,-3.0,0
2093,6.0,-257.0,-1.0,0
2094,4.0,-259.0,3.0,0
2095,6.0,-258.0,-1.0,0
2096,1.0,-256.0,2.0,0
2097,4.0,-256.0,1.0,0
2098,1.0,-255.0,1.0,0
2099,1.0,-256.0,3.0,0
2100,5.0,-257.0,1.0,0
2101,0.0,-257.0,4.0,0
2102,1.0,-259.0,4.0,0
2103,2.0,-255.0,4.0,0
2104,1.0,-253.0,4.0,0
2105,1.0,-258.0,2.0,0
2106,2.0,-256.0,2.0,0
2107,2.0,-256.0,4.0,0
2108,1.0,-254.0,-1.0,0
2109,2.0,-258.0,4.0,0
2110,2.0,-254.0,4.0,0
2111,1.0,-255.0,4.0,0
2112,2.0,-255.0,1.0,0
2113,1.0,-257.0,5.0,0
2114,3.0,-256.0,4.0,0
2115,1.0,-255.0,4.0,0
2116,3.0,-256.0,5.0,0
2117,3.0,-255.0,7.0,0
2118,0.0,-255.0,5.0,0
2119,3.0,-258.0,8.0,0
2120,4.0,-258.0,5.0,0
2121,3.0,-251.0,6.0,0
2122,4.0,-256.0,2.0,0
2123,2.0,-253.0,3.0,0
2124,3.0,-255.0,6.0,0
2125,4.0,-252.0,3.0,0
2126,4.0,-254.0,4.0,0
2127,2.0,-254.0,2.0,0
2128,1.0,-256.0,2.0,0
2129,0.0,-254.0,5.0,0
2130,3.0,-258.0,9.0,0
2131,3.0,-259.0,8.0,0
2132,3.0,-256.0,5.0,0
2133,3.0,-254.0,6.0,0
2134,2.0,-256.0,7.0,0
2135,2.0,-255.0,3.0,0
2136,3.0,-255.0,2.0,0
2137,4.0,-252.0,5.0,0
2138,3.0,-252.0,0.0,0
2139,5.0,-252.0,3.0,0
2140,5.0,-256.0,2.0,0
2141,5.0,-254.0,4.0,0
2142,4.0,-258.0,1.0,0
2143,5.0,-261.0,3.0,0
2144,5.0,-259.0,2.0,0
2145,1.0,-258.0,1.0,0
2146,4.0,-258.0,4.0,0
2147,5.0,-258.0,1.0,0
2148,3.0,-255.0,4.0,0
2149,1.0,-259.0,5.0,0
2150,2.0,-257.0,3.0,0
2151,5.0,-258.0,2.0,0
2152,4.0,-258.0,4.0,0
2153,0.0,-257.0,3.0,0
2154,1.0,-252.0,3.0,0
2155,4.0,-259.0,5.0,0
2156,2.0,-254.0,2.0,0
2157,2.0,-253.0,4.0,0
2158,4.0,-258.0,2.0,0
2159,2.0,-257.0,3.0,0
2160,1.0,-256.0,4.0,0
2161,1.0,-255.0,2.0,0
2162,2.0,-256.0,8.0,0
2163,1.0,-258.0,5.0,0
2164,2.0,-256.0,4.0,0
2165,1.0,-257.0,1.0,0
2166,1.0,-255.0,4.0,0
2167,0.0,-256.0,3.0,0
2168,-1.0,-256.0,1.0,0
2169,1.0,-254.0,-1.0,0
2170,2.0,-252.0,4.0,0
2171,3.0,-255.0,4.0,0
2172,1.0,-256.0,4.0,0
2173,2.0,-259.0,3.0,0
2174,1.0,-259.0,4.0,0
2175,-2.0,-258.0,8.0,0
2176,2.0,-255.0,3.0,0
2177,0.0,-257.0,7.0,0
2178,3.0,-255.0,4.0,0
2179,2.0,-256.0,3.0,0
2180,3.0,-257.0,5.0,0
2181,1.0,-254.0,0.0,0
2182,0.0,-255.0,0.0,0
2183,3.0,-258.0,-1.0,0
2184,2.0,-256.0,0.0,0
2185,3.0,-255.0,4.0,0
2186,3.0,-257.0,7.0,0
2187,1.0,-256.0,2.0,0
2188,2.0,-254.0,5.0,0
2189,2.0,-256.0,4.0,0
2190,1.0,-255.0,2.0,0
2191,3.0,-255.0,3.0,0
2192,2.0,-258.0,5.0,0
2193,3.0,-257.0,3.0,0
2194,2.0,-258.0,2.0,0
2195,3.0,-259.0,3.0,0
2196,0.0,-261.0,3.0,0
2197,0.0,-259.0,1.0,0
2198,5.0,-258.0,4.0,0
2199,3.0,-258.0,2.0,0
2200,3.0,-257.0,5.0,0
2201,1.0,-254.0,7.0,0
2202,4.0,-255.0,4.0,0
2203,4.0,-256.0,6.0,0
2204,1.0,-257.0,5.0,0
2205,2.0,-256.0,7.0,0
2206,1.0,-253.0,4.0,0
2207,2.0,-254.0,4.0,0
2208,1.0,-255.0,4.0,0
2209,2.0,-254.0,2.0,0
2210,4.0,-253.0,3.0,0
2211,3.0,-257.0,2.0,0
2212,5.0,-257.0,5.0,0
2213,5.0,-255.0,3.0,0
2214,4.0,-255.0,3.0,0
2215,4.0,-257.0,5.0,0
2216,4.0,-253.0,4.0,0
2217,1.0,-258.0,10.0,0
2218,6.0,-256.0,4.0,0
2219,2.0,-256.0,5.0,0
2220,2.0,-257.0,3.0,0
2221,5.0,-257.0,4.0,0
2222,3.0,-254.0,5.0,0
2223,4.0,-257.0,6.0,0
2224,3.0,-260.0,1.0,0
2225,0.0,-257.0,0.0,0
2226,2.0,-256.0,5.0,0
2227,2.0,-255.0,-1.0,0
2228,0.0,-255.0,-2.0,0
2229,1.0,-254.0,0.0,0
2230,3.0,-255.0,-3.0,0
2231,2.0,-257.0,-1.0,0
2232,2.0,-256.0,-1.0,0
2233,2.0,-255.0,-1.0,0
2234,7.0,-260.0,4.0,0
2235,3.0,-254.0,-2.0,0
2236,5.0,-256.0,1.0,0
2237,3.0,-254.0,7.0,0
2238,4.0,-257.0,1.0,0
2239,2.0,-256.0,4.0,0
2240,5.0,-255.0,-3.0,0
2241,4.0,-254.0,-1.0,0
2242,1.0,-251.0,2.0,0
2243,3.0,-253.0,2.0,0
2244,1.0,-257.0,4.0,0
2245,2.0,-256.0,1.0,0
2246,1.0,-258.0,2.0,0
2247,4.0,-262.0,4.0,0
2248,1.0,-258.0,3.0,0
2249,4.0,-257.0,0.0,0
2250,4.0,-258.0,-1.0,0
2251,3.0,-255.0,-2.0,0
2252,4.0,-259.0,-2.0,0
2253,5.0,-253.0,1.0,0
2254,3.0,-254.0,-1.0,0
2255,1.0,-254.0,-1.0,0
2256,2.0,-254.0,1.0,0
2257,2.0,-251.0,3.0,0
2258,4.0,-255.0,5.0,0
2259,2.0,-252.0,3.0,0
2260,2.0,-255.0,1.0,0
2261,2.0,-253.0,5.0,0
2262,1.0,-256.0,3.0,0
2263,2.0,-254.0,2.0,0
2264,0.0,-256.0,5.0,0
2265,5.0,-256.0,2.0,0
2266,2.0,-255.0,6.0,0
2267,2.0,-253.0,3.0,0
2268,5.0,-255.0,0.0,0
2269,2.0,-253.0,2.0,0
2270,2.0,-252.0,2.0,0
2271,1.0,-254.0,1.0,0
2272,2.0,-255.0,0.0,0
2273,0.0,-254.0,0.0,0
2274,2.0,-256.0,1.0,0
2275,0.0,-255.0,-2.0,0
2276,-2.0,-255.0,0.0,0
2277,1.0,-257.0,1.0,0
2278,0.0,-253.0,1.0,0
2279,1.0,-257.0,-1.0,0
2280,0.0,-257.0,0.0,0
2281,4.0,-258.0,3.0,0
2282,2.0,-257.0,4.0,0
2283,1.0,-256.0,1.0,0
2284,1.0,-259.0,-2.0,0
2285,1.0,-257.0,6.0,0
2286,0.0,-255.0,3.0,0
2287,2.0,-255.0,2.0,0
2288,1.0,-255.0,5.0,0
2289,0.0,-256.0,1.0,0
2290,3.0,-253.0,-1.0,0
2291,3.0,-256.0,0.0,0
2292,4.0,-253.0,1.0,0
2293,2.0,-254.0,-1.0,0
2294,2.0,-256.0,2.0,0
2295,2.0,-255.0,1.0,0
2296,2.0,-257.0,1.0,0
2297,4.0,-255.0,-1.0,0
2298,5.0,-259.0,1.0,0
2299,1.0,-255.0,-2.0,0
2300,0.0,-254.0,3.0,0
2301,2.0,-255.0,5.0,0
2302,2.0,-257.0,-2.0,0
2303,2.0,-254.0,-2.0,0
2304,2.0,-256.0,-2.0,0
2305,3.0,-257.0,-2.0,0
2306,2.0,-253.0,-5.0,0
2307,1.0,-254.0,0.0,0
2308,1.0,-253.0,-2.0,0
2309,2.0,-256.0,-2.0,0
2310,2.0,-254.0,-1.0,0
2311,3.0,-257.0,-2.0,0
2312,1.0,-254.0,-4.0,0
2313,4.0,-256.0,0.0,0
2314,3.0,-254.0,-2.0,0
2315,1.0,-259.0,-1.0,0
2316,1.0,-257.0,-1.0,0
2317,3.0,-256.0,-2.0,0
2318,2.0,-255.0,-4.0,0
2319,2.0,-259.0,-2.0,0
2320,2.0,-256.0,-2.0,0
2321,2.0,-256.0,-2.0,0
2322,2.0,-256.0,-4.0,0
2323,5.0,-256.0,-8.0,0
2324,4.0,-257.0,-3.0,0
2325,2.0,-254.0,-3.0,0
2326,3.0,-257.0,-1.0,0
2327,3.0,-257.0,0.0,0
2328,6.0,-258.0,-4.0,0
2329,6.0,-257.0,-7.0,0
2330,1.0,-257.0,0.0,0
2331,4.0,-256.0,-1.0,0
2332,3.0,-261.0,-3.0,0
2333,3.0,-257.0,-3.0,0
2334,4.0,-258.0,-1.0,0
2335,0.0,-254.0,-3.0,0
2336,1.0,-254.0,-3.0,0
2337,1.0,-258.0,-2.0,0
2338,4.0,-255.0,-2.0,0
2339,5.0,-254.0,-2.0,0
2340,3.0,-254.0,1.0,0
2341,2.0,-254.0,0.0,0
2342,3.0,-255.0,-1.0,0
2343,4.0,-256.0,-3.0,0
2344,7.0,-259.0,-5.0,0
2345,3.0,-253.0,-2.0,0
2346,3.0,-254.0,-4.0,0
2347,2.0,-255.0,-1.0,0
2348,3.0,-254.0,-1.0,0
2349,2.0,-255.0,0.0,0
2350,2.0,-258.0,-3.0,0
2351,1.0,-254.0,-2.0,0
2352,2.0,-258.0,-4.0,0
2353,2.0,-259.0,1.0,0
2354,2.0,-257.0,0.0,0
2355,3.0,-256.0,-6.0,0
2356,0.0,-258.0,-1.0,0
2357,4.0,-257.0,-3.0,0
2358,5.0,-261.0,-8.0,0
2359,3.0,-254.0,-5.0,0
2360,3.0,-256.0,-1.0,0
2361,4.0,-258.0,-6.0,0
2362,2.0,-256.0,-9.0,0
2363,1.0,-258.0,1.0,0
2364,2.0,-255.0,0.0,0
2365,3.0,-260.0,-3.0,0
2366,4.0,-264.0,3.0,0
2367,1.0,-259.0,-2.0,0
2368,2.0,-258.0,-4.0,0
2369,1.0,-258.0,-3.0,0
2370,1.0,-259.0,-1.0,0
2371,1.0,-261.0,1.0,0
2372,2.0,-256.0,-1.0,0
2373,3.0,-256.0,1.0,0
2374,1.0,-255.0,-3.0,0
2375,1.0,-256.0,-1.0,0
2376,3.0,-258.0,-1.0,0
2377,1.0,-252.0,-2.0,0
2378,3.0,-257.0,-1.0,0
2379,3.0,-254.0,-1.0,0
2380,1.0,-254.0,-1.0,0
2381,3.0,-255.0,-2.0,0
2382,2.0,-255.0,0.0,0
2383,4.0,-256.0,0.0,0
2384,2.0,-252.0,-4.0,0
2385,2.0,-255.0,0.0,0
2386,1.0,-256.0,-5.0,0
2387,-3.0,-255.0,-3.0,0
2388,-1.0,-259.0,-4.0,0
2389,-1.0,-254.0,0.0,0
2390,0.0,-257.0,0.0,0
2391,1.0,-255.0,-3.0,0
2392,2.0,-260.0,1.0,0
2393,0.0,-259.0,-2.0,0
2394,3.0,-257.0,-5.0,0
2395,1.0,-259.0,0.0,0
2396,1.0,-258.0,-1.0,0
2397,1.0,-258.0,-4.0,0
2398,0.0,-254.0,-1.0,0
2399,2.0,-253.0,0.0,0
