,accelerometer_x,accelerometer_y,accelerometer_z,fall
0,11.0,-254.0,18.0,0
1,12.0,-258.0,14.0,0
2,11.0,-253.0,18.0,0
3,12.0,-257.0,18.0,0
4,13.0,-255.0,13.0,0
5,6.0,-249.0,19.0,0
6,10.0,-256.0,17.0,0
7,11.0,-255.0,15.0,0
8,11.0,-252.0,19.0,0
9,11.0,-257.0,16.0,0
10,12.0,-256.0,19.0,0
11,12.0,-258.0,13.0,0
12,13.0,-258.0,16.0,0
13,10.0,-256.0,17.0,0
14,10.0,-253.0,16.0,0
15,9.0,-253.0,18.0,0
16,10.0,-253.0,15.0,0
17,10.0,-257.0,16.0,0
18,12.0,-255.0,15.0,0
19,11.0,-253.0,15.0,0
20,10.0,-252.0,15.0,0
21,11.0,-254.0,17.0,0
22,11.0,-251.0,15.0,0
23,10.0,-252.0,17.0,0
24,10.0,-254.0,17.0,0
25,10.0,-257.0,15.0,0
26,10.0,-260.0,17.0,0
27,10.0,-255.0,20.0,0
28,8.0,-253.0,17.0,0
29,11.0,-257.0,18.0,0
30,11.0,-256.0,19.0,0
31,8.0,-250.0,16.0,0
32,9.0,-251.0,15.0,0
33,11.0,-255.0,18.0,0
34,11.0,-253.0,16.0,0
35,8.0,-251.0,19.0,0
36,11.0,-251.0,16.0,0
37,12.0,-251.0,15.0,0
38,11.0,-256.0,17.0,0
39,11.0,-255.0,17.0,0
40,11.0,-256.0,18.0,0
41,11.0,-252.0,13.0,0
42,10.0,-257.0,13.0,0
43,9.0,-255.0,18.0,0
44,13.0,-255.0,19.0,0
45,12.0,-255.0,17.0,0
46,11.0,-254.0,14.0,0
47,12.0,-253.0,17.0,0
48,10.0,-255.0,13.0,0
49,11.0,-253.0,17.0,0
50,11.0,-252.0,14.0,0
51,8.0,-251.0,15.0,0
52,13.0,-252.0,15.0,0
53,11.0,-252.0,17.0,0
54,10.0,-254.0,18.0,0
55,11.0,-252.0,20.0,0
56,11.0,-256.0,18.0,0
57,9.0,-253.0,20.0,0
58,13.0,-256.0,16.0,0
59,9.0,-254.0,18.0,0
60,13.0,-252.0,19.0,0
61,11.0,-256.0,15.0,0
62,12.0,-253.0,14.0,0
63,12.0,-251.0,17.0,0
64,11.0,-254.0,17.0,0
65,12.0,-254.0,12.0,0
66,14.0,-253.0,15.0,0
67,14.0,-251.0,16.0,0
68,13.0,-253.0,14.0,0
69,11.0,-253.0,18.0,0
70,12.0,-255.0,18.0,0
71,11.0,-256.0,15.0,0
72,13.0,-257.0,20.0,0
73,10.0,-254.0,16.0,0
74,13.0,-254.0,16.0,0
75,10.0,-254.0,19.0,0
76,10.0,-257.0,20.0,0
77,12.0,-254.0,18.0,0
78,12.0,-254.0,19.0,0
79,12.0,-255.0,18.0,0
80,12.0,-253.0,17.0,0
81,13.0,-256.0,17.0,0
82,10.0,-253.0,17.0,0
83,14.0,-255.0,17.0,0
84,13.0,-255.0,18.0,0
85,9.0,-257.0,14.0,0
86,11.0,-257.0,12.0,0
87,12.0,-256.0,17.0,0
88,11.0,-255.0,13.0,0
89,9.0,-254.0,17.0,0
90,8.0,-258.0,14.0,0
91,9.0,-257.0,13.0,0
92,8.0,-257.0,13.0,0
93,10.0,-252.0,12.0,0
94,9.0,-256.0,12.0,0
95,11.0,-255.0,12.0,0
96,11.0,-258.0,13.0,0
97,12.0,-255.0,16.0,0
98,11.0,-254.0,13.0,0
99,8.0,-254.0,13.0,0
100,9.0,-256.0,13.0,0
101,12.0,-257.0,12.0,0
102,11.0,-257.0,14.0,0
103,7.0,-256.0,17.0,0
104,10.0,-253.0,15.0,0
105,12.0,-254.0,14.0,0
106,10.0,-257.0,13.0,0
107,9.0,-256.0,11.0,0
108,8.0,-253.0,12.0,0
109,12.0,-255.0,13.0,0
110,13.0,-254.0,12.0,0
111,11.0,-256.0,8.0,0
112,10.0,-256.0,13.0,0
113,9.0,-255.0,10.0,0
114,11.0,-256.0,10.0,0
115,10.0,-255.0,11.0,0
116,8.0,-255.0,11.0,0
117,8.0,-254.0,8.0,0
118,10.0,-257.0,10.0,0
119,12.0,-258.0,10.0,0
120,14.0,-256.0,12.0,0
121,11.0,-258.0,11.0,0
122,13.0,-258.0,11.0,0
123,9.0,-257.0,12.0,0
124,13.0,-256.0,10.0,0
125,13.0,-256.0,14.0,0
126,13.0,-254.0,9.0,0
127,11.0,-257.0,16.0,0
128,14.0,-255.0,13.0,0
129,12.0,-256.0,11.0,0
130,12.0,-253.0,12.0,0
131,14.0,-254.0,10.0,0
132,9.0,-254.0,12.0,0
133,12.0,-253.0,15.0,0
134,13.0,-253.0,12.0,0
135,11.0,-255.0,10.0,0
136,12.0,-256.0,10.0,0
137,11.0,-253.0,14.0,0
138,12.0,-256.0,12.0,0
139,11.0,-255.0,9.0,0
140,13.0,-259.0,14.0,0
141,11.0,-256.0,10.0,0
142,12.0,-256.0,9.0,0
143,15.0,-255.0,12.0,0
144,14.0,-258.0,12.0,0
145,11.0,-253.0,10.0,0
146,10.0,-257.0,11.0,0
147,12.0,-255.0,13.0,0
148,10.0,-259.0,7.0,0
149,11.0,-257.0,10.0,0
150,12.0,-255.0,9.0,0
151,11.0,-255.0,10.0,0
152,12.0,-253.0,11.0,0
153,16.0,-255.0,9.0,0
154,14.0,-251.0,8.0,0
155,14.0,-252.0,10.0,0
156,14.0,-254.0,10.0,0
157,14.0,-254.0,11.0,0
158,9.0,-253.0,12.0,0
159,12.0,-251.0,15.0,0
160,12.0,-251.0,12.0,0
161,13.0,-254.0,15.0,0
162,8.0,-254.0,14.0,0
163,10.0,-253.0,11.0,0
164,11.0,-252.0,13.0,0
165,13.0,-254.0,9.0,0
166,9.0,-254.0,9.0,0
167,11.0,-255.0,10.0,0
168,10.0,-255.0,9.0,0
169,13.0,-257.0,11.0,0
170,9.0,-257.0,8.0,0
171,14.0,-257.0,10.0,0
172,11.0,-256.0,15.0,0
173,10.0,-255.0,9.0,0
174,12.0,-255.0,10.0,0
175,17.0,-255.0,10.0,0
176,14.0,-255.0,9.0,0
177,14.0,-253.0,8.0,0
178,12.0,-251.0,7.0,0
179,16.0,-257.0,6.0,0
180,11.0,-254.0,10.0,0
181,12.0,-259.0,5.0,0
182,13.0,-258.0,9.0,0
183,9.0,-254.0,9.0,0
184,10.0,-256.0,7.0,0
185,10.0,-257.0,4.0,0
186,10.0,-255.0,7.0,0
187,9.0,-258.0,9.0,0
188,11.0,-254.0,9.0,0
189,12.0,-257.0,6.0,0
190,10.0,-257.0,9.0,0
191,10.0,-257.0,5.0,0
192,10.0,-257.0,5.0,0
193,14.0,-253.0,8.0,0
194,8.0,-253.0,7.0,0
195,10.0,-255.0,9.0,0
196,12.0,-252.0,11.0,0
197,11.0,-254.0,8.0,0
198,12.0,-256.0,7.0,0
199,12.0,-254.0,8.0,0
200,11.0,-251.0,7.0,0
201,11.0,-257.0,12.0,0
202,10.0,-253.0,6.0,0
203,7.0,-251.0,6.0,0
204,7.0,-254.0,4.0,0
205,10.0,-254.0,6.0,0
206,8.0,-254.0,5.0,0
207,8.0,-255.0,7.0,0
208,11.0,-257.0,7.0,0
209,10.0,-255.0,4.0,0
210,13.0,-255.0,5.0,0
211,9.0,-254.0,-9.0,0
212,10.0,-256.0,1.0,0
213,13.0,-256.0,3.0,0
214,10.0,-253.0,7.0,0
215,12.0,-256.0,1.0,0
216,9.0,-257.0,2.0,0
217,7.0,-254.0,4.0,0
218,14.0,-256.0,1.0,0
219,9.0,-254.0,9.0,0
220,15.0,-255.0,4.0,0
221,11.0,-255.0,6.0,0
222,13.0,-258.0,2.0,0
223,10.0,-256.0,5.0,0
224,12.0,-257.0,3.0,0
225,12.0,-256.0,1.0,0
226,9.0,-254.0,4.0,0
227,10.0,-257.0,4.0,0
228,10.0,-254.0,5.0,0
229,8.0,-255.0,6.0,0
230,8.0,-255.0,2.0,0
231,10.0,-259.0,8.0,0
232,9.0,-254.0,7.0,0
233,9.0,-256.0,9.0,0
234,11.0,-257.0,2.0,0
235,10.0,-256.0,7.0,0
236,11.0,-255.0,2.0,0
237,10.0,-255.0,3.0,0
238,9.0,-256.0,6.0,0
239,11.0,-258.0,5.0,0
240,11.0,-258.0,7.0,0
241,11.0,-258.0,2.0,0
242,8.0,-256.0,-4.0,0
243,12.0,-258.0,3.0,0
244,10.0,-265.0,-3.0,0
245,11.0,-255.0,1.0,0
246,7.0,-252.0,0.0,0
247,7.0,-253.0,2.0,0
248,9.0,-254.0,4.0,0
249,8.0,-255.0,3.0,0
250,9.0,-255.0,3.0,0
251,10.0,-257.0,4.0,0
252,8.0,-256.0,3.0,0
253,8.0,-253.0,3.0,0
254,15.0,-251.0,1.0,0
255,9.0,-257.0,2.0,0
256,12.0,-257.0,3.0,0
257,10.0,-254.0,1.0,0
258,11.0,-256.0,3.0,0
259,12.0,-257.0,1.0,0
260,9.0,-256.0,-1.0,0
261,10.0,-255.0,3.0,0
262,8.0,-257.0,2.0,0
263,10.0,-254.0,0.0,0
264,10.0,-259.0,1.0,0
265,7.0,-256.0,2.0,0
266,12.0,-259.0,3.0,0
267,12.0,-256.0,-1.0,0
268,10.0,-258.0,3.0,0
269,11.0,-257.0,5.0,0
270,12.0,-257.0,3.0,0
271,8.0,-256.0,1.0,0
272,8.0,-259.0,2.0,0
273,13.0,-257.0,3.0,0
274,10.0,-256.0,-2.0,0
275,11.0,-255.0,5.0,0
276,16.0,-261.0,1.0,0
277,11.0,-258.0,-2.0,0
278,10.0,-257.0,-4.0,0
279,11.0,-258.0,-3.0,0
280,8.0,-258.0,5.0,0
281,11.0,-258.0,1.0,0
282,7.0,-258.0,2.0,0
283,11.0,-253.0,0.0,0
284,12.0,-258.0,2.0,0
285,10.0,-253.0,6.0,0
286,7.0,-252.0,1.0,0
287,14.0,-258.0,2.0,0
288,11.0,-257.0,2.0,0
289,13.0,-253.0,2.0,0
290,12.0,-257.0,5.0,0
291,13.0,-256.0,2.0,0
292,11.0,-256.0,-4.0,0
293,11.0,-256.0,1.0,0
294,11.0,-255.0,0.0,0
295,9.0,-255.0,-1.0,0
296,12.0,-259.0,-2.0,0
297,10.0,-254.0,3.0,0
298,12.0,-255.0,6.0,0
299,11.0,-255.0,5.0,0
300,11.0,-256.0,-1.0,0
301,9.0,-257.0,1.0,0
302,9.0,-256.0,4.0,0
303,8.0,-256.0,1.0,0
304,9.0,-254.0,5.0,0
305,12.0,-254.0,1.0,0
306,6.0,-253.0,3.0,0
307,8.0,-256.0,1.0,0
308,10.0,-256.0,-1.0,0
309,7.0,-252.0,-2.0,0
310,7.0,-256.0,-1.0,0
311,8.0,-253.0,-1.0,0
312,9.0,-256.0,1.0,0
313,10.0,-257.0,2.0,0
314,12.0,-259.0,5.0,0
315,10.0,-256.0,1.0,0
316,9.0,-258.0,1.0,0
317,9.0,-256.0,2.0,0
318,10.0,-256.0,4.0,0
319,6.0,-256.0,-1.0,0
320,9.0,-261.0,-4.0,0
321,8.0,-256.0,3.0,0
322,7.0,-257.0,3.0,0
323,9.0,-257.0,2.0,0
324,11.0,-258.0,0.0,0
325,8.0,-256.0,2.0,0
326,8.0,-254.0,0.0,0
327,13.0,-256.0,8.0,0
328,11.0,-256.0,5.0,0
329,12.0,-257.0,4.0,0
330,10.0,-255.0,3.0,0
331,14.0,-257.0,1.0,0
332,14.0,-257.0,5.0,0
333,11.0,-257.0,6.0,0
334,11.0,-255.0,3.0,0
335,9.0,-255.0,2.0,0
336,10.0,-255.0,3.0,0
337,9.0,-256.0,2.0,0
338,9.0,-254.0,4.0,0
339,11.0,-255.0,5.0,0
340,8.0,-256.0,4.0,0
341,9.0,-252.0,2.0,0
342,11.0,-253.0,1.0,0
343,11.0,-254.0,0.0,0
344,11.0,-254.0,5.0,0
345,8.0,-253.0,2.0,0
346,10.0,-255.0,7.0,0
347,10.0,-253.0,5.0,0
348,10.0,-255.0,5.0,0
349,11.0,-259.0,5.0,0
350,10.0,-259.0,4.0,0
351,13.0,-257.0,5.0,0
352,13.0,-258.0,7.0,0
353,13.0,-258.0,1.0,0
354,11.0,-256.0,4.0,0
355,11.0,-255.0,2.0,0
356,11.0,-257.0,2.0,0
357,10.0,-256.0,5.0,0
358,9.0,-257.0,1.0,0
359,11.0,-257.0,5.0,0
360,13.0,-257.0,2.0,0
361,12.0,-256.0,7.0,0
362,11.0,-257.0,3.0,0
363,12.0,-254.0,3.0,0
364,10.0,-255.0,7.0,0
365,10.0,-255.0,3.0,0
366,13.0,-257.0,3.0,0
367,10.0,-253.0,4.0,0
368,11.0,-256.0,7.0,0
369,13.0,-255.0,2.0,0
370,11.0,-252.0,1.0,0
371,11.0,-250.0,0.0,0
372,10.0,-252.0,2.0,0
373,14.0,-257.0,0.0,0
374,12.0,-254.0,-1.0,0
375,11.0,-256.0,5.0,0
376,10.0,-253.0,4.0,0
377,9.0,-253.0,4.0,0
378,12.0,-255.0,2.0,0
379,10.0,-258.0,5.0,0
380,11.0,-255.0,5.0,0
381,11.0,-255.0,3.0,0
382,12.0,-257.0,2.0,0
383,12.0,-256.0,9.0,0
384,9.0,-256.0,3.0,0
385,10.0,-257.0,3.0,0
386,12.0,-257.0,7.0,0
387,14.0,-256.0,1.0,0
388,8.0,-255.0,4.0,0
389,10.0,-255.0,3.0,0
390,9.0,-251.0,4.0,0
391,14.0,-255.0,2.0,0
392,12.0,-255.0,3.0,0
393,11.0,-255.0,5.0,0
394,12.0,-252.0,5.0,0
395,13.0,-253.0,2.0,0
396,13.0,-254.0,2.0,0
397,20.0,-256.0,8.0,0
398,13.0,-258.0,3.0,0
399,11.0,-256.0,1.0,0
400,12.0,-256.0,0.0,0
401,13.0,-255.0,-1.0,0
402,14.0,-254.0,2.0,0
403,11.0,-256.0,-3.0,0
404,12.0,-252.0,0.0,0
405,14.0,-256.0,2.0,0
406,12.0,-257.0,0.0,0
407,9.0,-257.0,3.0,0
408,13.0,-259.0,0.0,0
409,7.0,-256.0,3.0,0
410,10.0,-259.0,5.0,0
411,8.0,-256.0,5.0,0
412,11.0,-256.0,3.0,0
413,12.0,-257.0,8.0,0
414,9.0,-253.0,3.0,0
415,11.0,-255.0,7.0,0
416,9.0,-254.0,1.0,0
417,10.0,-253.0,4.0,0
418,19.0,-253.0,7.0,0
419,16.0,-257.0,1.0,0
420,8.0,-253.0,3.0,0
421,11.0,-256.0,4.0,0
422,13.0,-254.0,4.0,0
423,14.0,-255.0,4.0,0
424,13.0,-254.0,6.0,0
425,12.0,-257.0,3.0,0
426,13.0,-257.0,1.0,0
427,9.0,-253.0,3.0,0
428,12.0,-255.0,3.0,0
429,12.0,-257.0,4.0,0
430,13.0,-256.0,2.0,0
431,9.0,-257.0,7.0,0
432,13.0,-254.0,3.0,0
433,7.0,-255.0,5.0,0
434,10.0,-256.0,5.0,0
435,11.0,-255.0,8.0,0
436,6.0,-255.0,4.0,0
437,8.0,-257.0,8.0,0
438,10.0,-257.0,7.0,0
439,11.0,-254.0,2.0,0
440,9.0,-257.0,1.0,0
441,11.0,-252.0,9.0,0
442,10.0,-253.0,3.0,0
443,8.0,-254.0,5.0,0
444,10.0,-256.0,1.0,0
445,8.0,-253.0,3.0,0
446,8.0,-257.0,4.0,0
447,11.0,-256.0,6.0,0
448,9.0,-252.0,6.0,0
449,9.0,-255.0,8.0,0
450,6.0,-257.0,10.0,0
451,7.0,-256.0,4.0,0
452,11.0,-258.0,9.0,0
453,9.0,-256.0,5.0,0
454,13.0,-256.0,9.0,0
455,9.0,-256.0,9.0,0
456,9.0,-254.0,9.0,0
457,12.0,-253.0,4.0,0
458,8.0,-254.0,7.0,0
459,8.0,-254.0,5.0,0
460,9.0,-256.0,6.0,0
461,9.0,-255.0,3.0,0
462,11.0,-259.0,8.0,0
463,12.0,-254.0,5.0,0
464,11.0,-255.0,5.0,0
465,9.0,-256.0,8.0,0
466,9.0,-254.0,4.0,0
467,9.0,-257.0,7.0,0
468,12.0,-258.0,5.0,0
469,12.0,-256.0,2.0,0
470,10.0,-255.0,5.0,0
471,10.0,-255.0,1.0,0
472,9.0,-252.0,4.0,0
473,10.0,-254.0,3.0,0
474,11.0,-253.0,4.0,0
475,11.0,-256.0,4.0,0
476,13.0,-257.0,3.0,0
477,10.0,-257.0,5.0,0
478,11.0,-256.0,5.0,0
479,11.0,-258.0,4.0,0
480,10.0,-256.0,3.0,0
481,12.0,-255.0,8.0,0
482,12.0,-259.0,5.0,0
483,10.0,-256.0,2.0,0
484,11.0,-259.0,1.0,0
485,12.0,-257.0,7.0,0
486,11.0,-258.0,6.0,0
487,9.0,-255.0,4.0,0
488,8.0,-257.0,6.0,0
489,7.0,-257.0,1.0,0
490,11.0,-254.0,3.0,0
491,8.0,-255.0,4.0,0
492,8.0,-254.0,1.0,0
493,11.0,-256.0,3.0,0
494,9.0,-257.0,0.0,0
495,10.0,-258.0,1.0,0
496,9.0,-256.0,1.0,0
497,13.0,-254.0,4.0,0
498,9.0,-256.0,5.0,0
499,9.0,-255.0,4.0,0
500,9.0,-258.0,8.0,0
501,9.0,-255.0,8.0,0
502,7.0,-254.0,2.0,0
503,10.0,-255.0,5.0,0
504,11.0,-255.0,2.0,0
505,12.0,-255.0,5.0,0
506,9.0,-254.0,4.0,0
507,11.0,-254.0,3.0,0
508,10.0,-255.0,3.0,0
509,11.0,-254.0,6.0,0
510,8.0,-255.0,2.0,0
511,8.0,-257.0,2.0,0
512,12.0,-256.0,4.0,0
513,11.0,-255.0,1.0,0
514,9.0,-253.0,4.0,0
515,11.0,-253.0,7.0,0
516,10.0,-254.0,6.0,0
517,9.0,-256.0,3.0,0
518,14.0,-257.0,1.0,0
519,12.0,-255.0,1.0,0
520,13.0,-255.0,5.0,0
521,14.0,-255.0,3.0,0
522,12.0,-255.0,4.0,0
523,10.0,-258.0,4.0,0
524,14.0,-257.0,3.0,0
525,13.0,-256.0,7.0,0
526,15.0,-258.0,7.0,0
527,12.0,-259.0,0.0,0
528,12.0,-258.0,6.0,0
529,13.0,-258.0,7.0,0
530,14.0,-257.0,7.0,0
531,8.0,-255.0,5.0,0
532,13.0,-256.0,2.0,0
533,9.0,-255.0,4.0,0
534,9.0,-259.0,2.0,0
535,11.0,-255.0,3.0,0
536,13.0,-259.0,3.0,0
537,12.0,-257.0,3.0,0
538,13.0,-256.0,1.0,0
539,12.0,-259.0,6.0,0
540,16.0,-255.0,2.0,0
541,13.0,-257.0,0.0,0
542,12.0,-260.0,2.0,0
543,11.0,-258.0,4.0,0
544,11.0,-257.0,3.0,0
545,10.0,-257.0,6.0,0
546,11.0,-256.0,4.0,0
547,8.0,-256.0,4.0,0
548,16.0,-260.0,4.0,0
549,11.0,-252.0,3.0,0
550,12.0,-258.0,6.0,0
551,9.0,-256.0,7.0,0
552,10.0,-254.0,8.0,0
553,9.0,-254.0,4.0,0
554,12.0,-253.0,9.0,0
555,10.0,-255.0,5.0,0
556,9.0,-251.0,2.0,0
557,14.0,-253.0,6.0,0
558,11.0,-252.0,5.0,0
559,13.0,-253.0,10.0,0
560,14.0,-254.0,2.0,0
561,11.0,-253.0,6.0,0
562,11.0,-253.0,8.0,0
563,11.0,-256.0,5.0,0
564,9.0,-252.0,5.0,0
565,14.0,-253.0,8.0,0
566,11.0,-252.0,6.0,0
567,12.0,-254.0,5.0,0
568,10.0,-254.0,4.0,0
569,12.0,-255.0,8.0,0
570,8.0,-252.0,6.0,0
571,8.0,-255.0,9.0,0
572,10.0,-256.0,8.0,0
573,9.0,-255.0,6.0,0
574,10.0,-256.0,8.0,0
575,8.0,-258.0,9.0,0
576,7.0,-255.0,4.0,0
577,8.0,-254.0,5.0,0
578,11.0,-254.0,5.0,0
579,9.0,-253.0,9.0,0
580,9.0,-254.0,5.0,0
581,8.0,-252.0,5.0,0
582,8.0,-254.0,6.0,0
583,9.0,-255.0,7.0,0
584,9.0,-249.0,8.0,0
585,12.0,-255.0,7.0,0
586,12.0,-258.0,4.0,0
587,11.0,-257.0,7.0,0
588,10.0,-257.0,3.0,0
589,12.0,-255.0,7.0,0
590,9.0,-252.0,6.0,0
591,8.0,-256.0,5.0,0
592,17.0,-254.0,7.0,0
593,12.0,-254.0,4.0,0
594,12.0,-256.0,10.0,0
595,10.0,-255.0,7.0,0
596,10.0,-252.0,6.0,0
597,11.0,-254.0,5.0,0
598,10.0,-256.0,3.0,0
599,9.0,-256.0,7.0,0
600,9.0,-259.0,1.0,0
601,10.0,-257.0,4.0,0
602,8.0,-256.0,5.0,0
603,8.0,-256.0,5.0,0
604,13.0,-255.0,4.0,0
605,10.0,-254.0,6.0,0
606,10.0,-256.0,5.0,0
607,11.0,-257.0,3.0,0
608,12.0,-257.0,5.0,0
609,10.0,-256.0,7.0,0
610,13.0,-257.0,2.0,0
611,10.0,-257.0,5.0,0
612,12.0,-254.0,2.0,0
613,12.0,-256.0,4.0,0
614,8.0,-257.0,1.0,0
615,12.0,-256.0,5.0,0
616,12.0,-258.0,4.0,0
617,10.0,-253.0,1.0,0
618,12.0,-251.0,2.0,0
619,10.0,-252.0,0.0,0
620,8.0,-254.0,0.0,0
621,13.0,-255.0,-2.0,0
622,14.0,-253.0,-1.0,0
623,14.0,-255.0,5.0,0
624,10.0,-256.0,2.0,0
625,9.0,-255.0,1.0,0
626,11.0,-257.0,3.0,0
627,11.0,-257.0,2.0,0
628,10.0,-257.0,4.0,0
629,8.0,-257.0,2.0,0
630,12.0,-258.0,1.0,0
631,8.0,-258.0,0.0,0
632,12.0,-260.0,2.0,0
633,10.0,-255.0,3.0,0
634,7.0,-253.0,3.0,0
635,12.0,-252.0,-2.0,0
636,11.0,-245.0,-1.0,0
637,12.0,-254.0,0.0,0
638,12.0,-252.0,3.0,0
639,13.0,-253.0,-2.0,0
640,14.0,-253.0,3.0,0
641,12.0,-257.0,1.0,0
642,12.0,-258.0,1.0,0
643,10.0,-255.0,-3.0,0
644,10.0,-256.0,1.0,0
645,10.0,-256.0,1.0,0
646,9.0,-256.0,2.0,0
647,12.0,-256.0,0.0,0
648,9.0,-257.0,2.0,0
649,13.0,-255.0,-2.0,0
650,13.0,-257.0,0.0,0
651,8.0,-255.0,1.0,0
652,7.0,-253.0,1.0,0
653,9.0,-256.0,1.0,0
654,8.0,-256.0,-4.0,0
655,11.0,-257.0,0.0,0
656,11.0,-256.0,0.0,0
657,11.0,-259.0,0.0,0
658,11.0,-261.0,-9.0,0
659,11.0,-254.0,-3.0,0
660,10.0,-256.0,-1.0,0
661,11.0,-257.0,-1.0,0
662,10.0,-256.0,0.0,0
663,10.0,-256.0,-1.0,0
664,11.0,-256.0,-3.0,0
665,11.0,-256.0,1.0,0
666,11.0,-254.0,1.0,0
667,12.0,-256.0,-4.0,0
668,9.0,-259.0,3.0,0
669,11.0,-253.0,0.0,0
670,11.0,-257.0,2.0,0
671,8.0,-255.0,-2.0,0
672,10.0,-256.0,-2.0,0
673,9.0,-254.0,0.0,0
674,9.0,-253.0,1.0,0
675,11.0,-256.0,-1.0,0
676,10.0,-257.0,-1.0,0
677,10.0,-253.0,0.0,0
678,9.0,-256.0,-1.0,0
679,11.0,-255.0,0.0,0
680,14.0,-257.0,-1.0,0
681,12.0,-254.0,1.0,0
682,12.0,-258.0,1.0,0
683,12.0,-260.0,-2.0,0
684,10.0,-258.0,4.0,0
685,10.0,-257.0,-2.0,0
686,13.0,-256.0,-1.0,0
687,11.0,-255.0,0.0,0
688,12.0,-257.0,-2.0,0
689,11.0,-257.0,-1.0,0
690,9.0,-253.0,-2.0,0
691,9.0,-252.0,-2.0,0
692,12.0,-254.0,0.0,0
693,14.0,-256.0,1.0,0
694,10.0,-256.0,-1.0,0
695,10.0,-257.0,0.0,0
696,15.0,-260.0,0.0,0
697,11.0,-260.0,-2.0,0
698,9.0,-252.0,2.0,0
699,12.0,-257.0,-1.0,0
700,11.0,-257.0,-1.0,0
701,5.0,-255.0,-1.0,0
702,11.0,-259.0,-1.0,0
703,12.0,-258.0,-1.0,0
704,8.0,-255.0,-1.0,0
705,8.0,-255.0,0.0,0
706,9.0,-257.0,1.0,0
707,13.0,-254.0,0.0,0
708,11.0,-257.0,0.0,0
709,14.0,-255.0,-4.0,0
710,12.0,-257.0,0.0,0
711,14.0,-258.0,-2.0,0
712,9.0,-259.0,2.0,0
713,14.0,-257.0,0.0,0
714,8.0,-252.0,1.0,0
715,9.0,-254.0,3.0,0
716,8.0,-254.0,3.0,0
717,12.0,-258.0,0.0,0
718,9.0,-258.0,-2.0,0
719,10.0,-257.0,2.0,0
720,7.0,-253.0,3.0,0
721,8.0,-254.0,1.0,0
722,7.0,-256.0,0.0,0
723,7.0,-258.0,-2.0,0
724,7.0,-257.0,1.0,0
725,11.0,-258.0,0.0,0
726,7.0,-255.0,-1.0,0
727,11.0,-259.0,-3.0,0
728,11.0,-255.0,0.0,0
729,15.0,-260.0,0.0,0
730,8.0,-254.0,1.0,0
731,14.0,-255.0,-1.0,0
732,9.0,-257.0,-7.0,0
733,11.0,-257.0,-1.0,0
734,13.0,-259.0,3.0,0
735,12.0,-253.0,0.0,0
736,10.0,-258.0,-4.0,0
737,10.0,-254.0,-2.0,0
738,11.0,-254.0,-2.0,0
739,10.0,-257.0,4.0,0
740,10.0,-254.0,0.0,0
741,12.0,-260.0,2.0,0
742,10.0,-255.0,3.0,0
743,9.0,-256.0,1.0,0
744,10.0,-254.0,1.0,0
745,8.0,-253.0,1.0,0
746,9.0,-255.0,0.0,0
747,9.0,-254.0,4.0,0
748,11.0,-252.0,1.0,0
749,9.0,-253.0,-2.0,0
750,10.0,-256.0,3.0,0
751,9.0,-256.0,0.0,0
752,12.0,-254.0,3.0,0
753,9.0,-257.0,0.0,0
754,11.0,-258.0,3.0,0
755,9.0,-255.0,0.0,0
756,7.0,-257.0,2.0,0
757,9.0,-259.0,3.0,0
758,10.0,-259.0,3.0,0
759,7.0,-255.0,2.0,0
760,11.0,-255.0,-4.0,0
761,9.0,-257.0,0.0,0
762,11.0,-258.0,-6.0,0
763,11.0,-258.0,-3.0,0
764,13.0,-261.0,-3.0,0
765,13.0,-261.0,-5.0,0
766,14.0,-261.0,-7.0,0
767,16.0,-259.0,-4.0,0
768,13.0,-259.0,-5.0,0
769,17.0,-258.0,-7.0,0
770,14.0,-257.0,-7.0,0
771,13.0,-259.0,-12.0,0
772,13.0,-259.0,-8.0,0
773,12.0,-257.0,-11.0,0
774,14.0,-259.0,-9.0,0
775,12.0,-258.0,-9.0,0
776,13.0,-256.0,-11.0,0
777,12.0,-256.0,-11.0,0
778,13.0,-261.0,-7.0,0
779,14.0,-261.0,-11.0,0
780,13.0,-261.0,-9.0,0
781,12.0,-260.0,-8.0,0
782,8.0,-258.0,-10.0,0
783,11.0,-255.0,-9.0,0
784,11.0,-258.0,-11.0,0
785,12.0,-254.0,-12.0,0
786,12.0,-254.0,-11.0,0
787,9.0,-252.0,-12.0,0
788,17.0,-246.0,-18.0,0
789,11.0,-253.0,-13.0,0
790,11.0,-251.0,-17.0,0
791,9.0,-250.0,-19.0,0
792,7.0,-255.0,-24.0,0
793,10.0,-255.0,-19.0,0
794,7.0,-260.0,-21.0,0
795,8.0,-263.0,-18.0,0
796,8.0,-264.0,-20.0,0
797,10.0,-270.0,-21.0,0
798,10.0,-268.0,-22.0,0
799,11.0,-273.0,-21.0,0
800,11.0,-271.0,-24.0,0
801,8.0,-271.0,-32.0,0
802,10.0,-271.0,-31.0,0
803,12.0,-273.0,-31.0,0
804,10.0,-270.0,-30.0,0
805,5.0,-267.0,-31.0,0
806,6.0,-267.0,-31.0,0
807,8.0,-264.0,-31.0,0
808,11.0,-266.0,-27.0,0
809,7.0,-266.0,-31.0,0
810,11.0,-258.0,-30.0,0
811,9.0,-262.0,-25.0,0
812,8.0,-260.0,-28.0,0
813,4.0,-263.0,-23.0,0
814,4.0,-258.0,-23.0,0
815,3.0,-256.0,-25.0,0
816,3.0,-254.0,-24.0,0
817,3.0,-252.0,-28.0,0
818,2.0,-252.0,-27.0,0
819,8.0,-240.0,-35.0,0
820,6.0,-246.0,-33.0,0
821,2.0,-240.0,-32.0,0
822,4.0,-236.0,-30.0,0
823,4.0,-235.0,-36.0,0
824,5.0,-233.0,-37.0,0
825,3.0,-234.0,-37.0,0
826,7.0,-233.0,-39.0,0
827,8.0,-232.0,-42.0,0
828,5.0,-237.0,-44.0,0
829,5.0,-237.0,-41.0,0
830,5.0,-243.0,-40.0,0
831,4.0,-244.0,-47.0,0
832,4.0,-247.0,-43.0,0
833,7.0,-251.0,-49.0,0
834,5.0,-251.0,-45.0,0
835,9.0,-253.0,-47.0,0
836,6.0,-252.0,-49.0,0
837,10.0,-253.0,-52.0,0
838,8.0,-256.0,-50.0,0
839,12.0,-253.0,-60.0,0
840,13.0,-250.0,-58.0,0
841,12.0,-248.0,-61.0,0
842,15.0,-250.0,-63.0,0
843,13.0,-249.0,-58.0,0
844,12.0,-246.0,-68.0,0
845,12.0,-247.0,-71.0,0
846,7.0,-240.0,-68.0,0
847,6.0,-242.0,-72.0,0
848,7.0,-240.0,-73.0,0
849,4.0,-236.0,-75.0,0
850,4.0,-230.0,-77.0,0
851,6.0,-233.0,-81.0,0
852,5.0,-232.0,-85.0,0
853,3.0,-226.0,-89.0,0
854,4.0,-222.0,-87.0,0
855,5.0,-218.0,-92.0,0
856,3.0,-213.0,-96.0,0
857,1.0,-208.0,-95.0,0
858,4.0,-202.0,-98.0,0
859,3.0,-190.0,-99.0,0
860,5.0,-185.0,-99.0,0
861,5.0,-178.0,-97.0,0
862,7.0,-167.0,-96.0,0
863,0.0,-157.0,-97.0,0
864,5.0,-145.0,-91.0,0
865,0.0,-135.0,-85.0,0
866,0.0,-121.0,-82.0,0
867,0.0,-113.0,-77.0,0
868,-1.0,-104.0,-72.0,0
869,1.0,-96.0,-63.0,0
870,0.0,-85.0,-60.0,0
871,3.0,-79.0,-55.0,0
872,2.0,-74.0,-54.0,0
873,2.0,-67.0,-43.0,0
874,1.0,-61.0,-38.0,0
875,4.0,-62.0,-35.0,0
876,3.0,-59.0,-32.0,0
877,6.0,-64.0,-33.0,0
878,6.0,-61.0,-28.0,0
879,4.0,-66.0,-26.0,0
880,11.0,-68.0,-29.0,0
881,9.0,-70.0,-26.0,0
882,13.0,-71.0,-24.0,0
883,15.0,-74.0,-34.0,0
884,18.0,-76.0,-38.0,0
885,19.0,-83.0,-44.0,0
886,22.0,-85.0,-51.0,0
887,19.0,-94.0,-56.0,0
888,22.0,-101.0,-62.0,0
889,20.0,-112.0,-68.0,0
890,19.0,-121.0,-66.0,0
891,11.0,-128.0,-69.0,0
892,8.0,-134.0,-68.0,0
893,8.0,-149.0,-69.0,0
894,8.0,-160.0,-61.0,0
895,11.0,-170.0,-60.0,0
896,6.0,-175.0,-52.0,0
897,6.0,-186.0,-46.0,0
898,10.0,-191.0,-39.0,0
899,13.0,-196.0,-34.0,0
900,12.0,-202.0,-23.0,0
901,12.0,-205.0,-21.0,0
902,13.0,-212.0,-21.0,0
903,12.0,-212.0,-23.0,0
904,15.0,-216.0,-26.0,0
905,19.0,-220.0,-33.0,0
906,18.0,-229.0,-37.0,0
907,17.0,-236.0,-52.0,0
908,9.0,-266.0,-80.0,0
909,-9.0,-252.0,-65.0,0
910,-18.0,-249.0,-86.0,0
911,-13.0,-252.0,-101.0,0
912,-18.0,-263.0,-118.0,0
913,-25.0,-270.0,-134.0,0
914,-35.0,-275.0,-142.0,0
915,-36.0,-297.0,-140.0,0
916,-36.0,-313.0,-130.0,0
917,-28.0,-327.0,-130.0,0
918,-30.0,-334.0,-134.0,0
919,-35.0,-326.0,-145.0,0
920,-30.0,-319.0,-155.0,0
921,-18.0,-309.0,-161.0,0
922,-5.0,-301.0,-164.0,0
923,16.0,-284.0,-170.0,0
924,36.0,-276.0,-171.0,0
925,52.0,-275.0,-171.0,0
926,52.0,-269.0,-176.0,0
927,54.0,-273.0,-172.0,0
928,58.0,-284.0,-166.0,0
929,61.0,-297.0,-172.0,0
930,62.0,-311.0,-172.0,0
931,54.0,-317.0,-184.0,0
932,49.0,-322.0,-193.0,0
933,43.0,-325.0,-200.0,0
934,36.0,-319.0,-209.0,0
935,33.0,-324.0,-216.0,0
936,30.0,-326.0,-220.0,0
937,26.0,-330.0,-225.0,0
938,30.0,-320.0,-223.0,0
939,20.0,-324.0,-229.0,0
940,19.0,-320.0,-228.0,0
941,14.0,-319.0,-224.0,0
942,15.0,-323.0,-226.0,0
943,8.0,-307.0,-221.0,0
944,5.0,-305.0,-218.0,0
945,11.0,-303.0,-216.0,0
946,17.0,-300.0,-213.0,0
947,19.0,-299.0,-210.0,0
948,27.0,-302.0,-204.0,0
949,28.0,-302.0,-201.0,0
950,31.0,-302.0,-198.0,0
951,33.0,-310.0,-201.0,0
952,32.0,-314.0,-199.0,0
953,29.0,-321.0,-205.0,0
954,32.0,-340.0,-197.0,0
955,34.0,-356.0,-200.0,0
956,35.0,-393.0,-202.0,0
957,34.0,-427.0,-211.0,0
958,36.0,-475.0,-218.0,0
959,35.0,-502.0,-283.0,0
960,40.0,-519.0,-341.0,0
961,27.0,-515.0,-390.0,0
962,50.0,-507.0,-396.0,0
963,49.0,-469.0,-379.0,0
964,39.0,-429.0,-319.0,0
965,15.0,-385.0,-255.0,0
966,-7.0,-348.0,-196.0,0
967,-27.0,-315.0,-147.0,0
968,-42.0,-291.0,-88.0,0
969,-50.0,-260.0,-50.0,0
970,-46.0,-244.0,-13.0,0
971,-40.0,-226.0,4.0,0
972,-33.0,-209.0,9.0,0
973,-29.0,-192.0,6.0,0
974,-13.0,-185.0,-10.0,0
975,0.0,-185.0,-23.0,0
976,9.0,-184.0,-39.0,0
977,6.0,-189.0,-49.0,0
978,8.0,-197.0,-44.0,0
979,8.0,-210.0,-39.0,0
980,10.0,-215.0,-32.0,0
981,6.0,-220.0,-24.0,0
982,2.0,-223.0,-20.0,0
983,-3.0,-220.0,-16.0,0
984,-8.0,-221.0,-12.0,0
985,-8.0,-222.0,-7.0,0
986,-11.0,-227.0,3.0,0
987,-9.0,-235.0,7.0,0
988,-8.0,-244.0,11.0,0
989,-6.0,-253.0,3.0,0
990,1.0,-267.0,1.0,0
991,2.0,-276.0,-8.0,0
992,3.0,-284.0,-16.0,0
993,4.0,-281.0,-27.0,0
994,6.0,-283.0,-40.0,0
995,5.0,-280.0,-54.0,0
996,5.0,-274.0,-64.0,0
997,10.0,-272.0,-75.0,0
998,11.0,-270.0,-84.0,0
999,15.0,-269.0,-87.0,0
1000,15.0,-262.0,-94.0,0
1001,15.0,-260.0,-95.0,0
1002,18.0,-260.0,-99.0,0
1003,22.0,-257.0,-99.0,0
1004,19.0,-258.0,-102.0,0
1005,17.0,-257.0,-96.0,0
1006,20.0,-252.0,-94.0,0
1007,21.0,-251.0,-89.0,0
1008,17.0,-249.0,-88.0,0
1009,17.0,-249.0,-84.0,0
1010,21.0,-242.0,-87.0,0
1011,23.0,-241.0,-87.0,0
1012,25.0,-238.0,-89.0,0
1013,26.0,-236.0,-86.0,0
1014,28.0,-233.0,-87.0,0
1015,32.0,-237.0,-84.0,0
1016,28.0,-234.0,-82.0,0
1017,32.0,-240.0,-80.0,0
1018,32.0,-245.0,-72.0,0
1019,37.0,-247.0,-66.0,0
1020,35.0,-245.0,-60.0,0
1021,33.0,-248.0,-58.0,0
1022,33.0,-252.0,-47.0,0
1023,28.0,-255.0,-40.0,0
1024,23.0,-255.0,-31.0,0
1025,22.0,-251.0,-33.0,0
1026,20.0,-250.0,-29.0,0
1027,17.0,-252.0,-30.0,0
1028,14.0,-247.0,-29.0,0
1029,7.0,-248.0,-25.0,0
1030,8.0,-245.0,-22.0,0
1031,3.0,-246.0,-18.0,0
1032,3.0,-247.0,-17.0,0
1033,1.0,-246.0,-13.0,0
1034,0.0,-245.0,-13.0,0
1035,1.0,-249.0,-8.0,0
1036,2.0,-252.0,-5.0,0
1037,3.0,-251.0,0.0,0
1038,0.0,-254.0,-2.0,0
1039,0.0,-253.0,4.0,0
1040,4.0,-256.0,8.0,0
1041,-1.0,-252.0,13.0,0
1042,-2.0,-253.0,14.0,0
1043,0.0,-256.0,14.0,0
1044,1.0,-253.0,17.0,0
1045,0.0,-251.0,19.0,0
1046,0.0,-249.0,19.0,0
1047,-4.0,-249.0,19.0,0
1048,1.0,-254.0,21.0,0
1049,0.0,-255.0,17.0,0
1050,-2.0,-254.0,21.0,0
1051,0.0,-260.0,26.0,0
1052,0.0,-262.0,21.0,0
1053,0.0,-262.0,21.0,0
1054,1.0,-262.0,19.0,0
1055,2.0,-262.0,21.0,0
1056,0.0,-259.0,21.0,0
1057,1.0,-260.0,16.0,0
1058,0.0,-258.0,23.0,0
1059,4.0,-258.0,20.0,0
1060,3.0,-252.0,25.0,0
1061,4.0,-246.0,26.0,0
1062,3.0,-245.0,21.0,0
1063,3.0,-244.0,21.0,0
1064,3.0,-239.0,20.0,0
1065,5.0,-233.0,19.0,0
1066,4.0,-235.0,18.0,0
1067,8.0,-235.0,22.0,0
1068,5.0,-235.0,9.0,0
1069,8.0,-239.0,18.0,0
1070,10.0,-241.0,16.0,0
1071,9.0,-247.0,11.0,0
1072,5.0,-248.0,11.0,0
1073,11.0,-250.0,10.0,0
1074,8.0,-253.0,10.0,0
1075,9.0,-256.0,11.0,0
1076,8.0,-259.0,9.0,0
1077,6.0,-258.0,10.0,0
1078,5.0,-258.0,11.0,0
1079,6.0,-259.0,8.0,0
1080,4.0,-258.0,11.0,0
1081,5.0,-260.0,11.0,0
1082,3.0,-257.0,13.0,0
1083,0.0,-258.0,10.0,0
1084,2.0,-254.0,14.0,0
1085,2.0,-258.0,14.0,0
1086,4.0,-254.0,13.0,0
1087,1.0,-256.0,10.0,0
1088,1.0,-251.0,8.0,0
1089,1.0,-257.0,6.0,0
1090,1.0,-253.0,4.0,0
1091,2.0,-251.0,7.0,0
1092,3.0,-253.0,7.0,0
1093,-2.0,-253.0,7.0,0
1094,5.0,-255.0,4.0,0
1095,3.0,-254.0,6.0,0
1096,3.0,-252.0,6.0,0
1097,4.0,-252.0,7.0,0
1098,2.0,-249.0,11.0,0
1099,7.0,-251.0,15.0,0
1100,4.0,-250.0,19.0,0
1101,4.0,-250.0,13.0,0
1102,3.0,-250.0,18.0,0
1103,6.0,-252.0,18.0,0
1104,8.0,-253.0,17.0,0
1105,5.0,-254.0,17.0,0
1106,7.0,-254.0,19.0,0
1107,6.0,-258.0,16.0,0
1108,5.0,-257.0,19.0,0
1109,4.0,-261.0,15.0,0
1110,7.0,-259.0,19.0,0
1111,5.0,-257.0,20.0,0
1112,4.0,-257.0,19.0,0
1113,4.0,-258.0,21.0,0
1114,1.0,-254.0,22.0,0
1115,2.0,-253.0,17.0,0
1116,0.0,-252.0,18.0,0
1117,1.0,-254.0,18.0,0
1118,1.0,-252.0,21.0,0
1119,0.0,-252.0,20.0,0
1120,0.0,-250.0,23.0,0
1121,-1.0,-254.0,22.0,0
1122,0.0,-253.0,23.0,0
1123,0.0,-253.0,24.0,0
1124,0.0,-251.0,24.0,0
1125,0.0,-254.0,27.0,0
1126,-1.0,-251.0,27.0,0
1127,1.0,-258.0,25.0,0
1128,-2.0,-252.0,23.0,0
1129,1.0,-251.0,23.0,0
1130,1.0,-252.0,22.0,0
1131,1.0,-252.0,27.0,0
1132,2.0,-252.0,23.0,0
1133,2.0,-253.0,21.0,0
1134,2.0,-253.0,23.0,0
1135,1.0,-252.0,22.0,0
1136,1.0,-253.0,22.0,0
1137,1.0,-253.0,20.0,0
1138,0.0,-251.0,25.0,0
1139,2.0,-255.0,20.0,0
1140,3.0,-254.0,26.0,0
1141,2.0,-252.0,25.0,0
1142,2.0,-254.0,25.0,0
1143,2.0,-252.0,26.0,0
1144,0.0,-257.0,22.0,0
1145,0.0,-256.0,25.0,0
1146,3.0,-254.0,21.0,0
1147,3.0,-254.0,23.0,0
1148,3.0,-255.0,23.0,0
1149,0.0,-254.0,25.0,0
1150,1.0,-254.0,23.0,0
1151,1.0,-254.0,21.0,0
1152,3.0,-255.0,19.0,0
1153,2.0,-255.0,24.0,0
1154,3.0,-255.0,20.0,0
1155,1.0,-252.0,23.0,0
1156,3.0,-255.0,21.0,0
1157,2.0,-257.0,20.0,0
1158,1.0,-254.0,22.0,0
1159,1.0,-257.0,17.0,0
1160,3.0,-256.0,20.0,0
1161,5.0,-256.0,23.0,0
1162,3.0,-252.0,21.0,0
1163,2.0,-254.0,22.0,0
1164,4.0,-255.0,23.0,0
1165,4.0,-256.0,22.0,0
1166,5.0,-254.0,20.0,0
1167,3.0,-256.0,24.0,0
1168,2.0,-257.0,18.0,0
1169,4.0,-256.0,21.0,0
1170,3.0,-259.0,19.0,0
1171,3.0,-253.0,20.0,0
1172,5.0,-259.0,19.0,0
1173,4.0,-257.0,17.0,0
1174,2.0,-258.0,18.0,0
1175,4.0,-258.0,17.0,0
1176,2.0,-257.0,19.0,0
1177,3.0,-255.0,18.0,0
1178,1.0,-256.0,17.0,0
1179,0.0,-255.0,16.0,0
1180,1.0,-252.0,22.0,0
1181,4.0,-254.0,24.0,0
1182,1.0,-250.0,19.0,0
1183,1.0,-251.0,25.0,0
1184,0.0,-249.0,25.0,0
1185,2.0,-252.0,21.0,0
1186,1.0,-252.0,30.0,0
1187,1.0,-253.0,23.0,0
1188,0.0,-254.0,28.0,0
1189,1.0,-253.0,25.0,0
1190,0.0,-255.0,27.0,0
1191,2.0,-256.0,28.0,0
1192,1.0,-257.0,26.0,0
1193,1.0,-254.0,29.0,0
1194,0.0,-255.0,27.0,0
1195,2.0,-255.0,28.0,0
1196,1.0,-252.0,29.0,0
1197,0.0,-248.0,34.0,0
1198,1.0,-251.0,31.0,0
1199,0.0,-252.0,29.0,0
1200,1.0,-251.0,31.0,0
1201,1.0,-253.0,32.0,0
1202,0.0,-251.0,29.0,0
1203,1.0,-251.0,28.0,0
1204,1.0,-252.0,29.0,0
1205,3.0,-251.0,31.0,0
1206,1.0,-251.0,27.0,0
1207,2.0,-255.0,28.0,0
1208,3.0,-250.0,30.0,0
1209,1.0,-254.0,27.0,0
1210,2.0,-255.0,27.0,0
1211,1.0,-253.0,28.0,0
1212,0.0,-254.0,30.0,0
1213,2.0,-256.0,26.0,0
1214,2.0,-256.0,25.0,0
1215,1.0,-252.0,27.0,0
1216,0.0,-256.0,27.0,0
1217,0.0,-255.0,30.0,0
1218,1.0,-254.0,27.0,0
1219,-1.0,-256.0,27.0,0
1220,0.0,-254.0,28.0,0
1221,0.0,-258.0,31.0,0
1222,1.0,-256.0,27.0,0
1223,0.0,-256.0,25.0,0
1224,0.0,-253.0,21.0,0
1225,0.0,-254.0,24.0,0
1226,0.0,-251.0,24.0,0
1227,1.0,-253.0,23.0,0
1228,0.0,-251.0,23.0,0
1229,1.0,-254.0,23.0,0
1230,2.0,-254.0,24.0,0
1231,1.0,-253.0,22.0,0
1232,2.0,-251.0,21.0,0
1233,0.0,-253.0,22.0,0
1234,1.0,-253.0,25.0,0
1235,1.0,-254.0,24.0,0
1236,0.0,-251.0,25.0,0
1237,2.0,-254.0,24.0,0
1238,0.0,-252.0,21.0,0
1239,1.0,-253.0,23.0,0
1240,1.0,-253.0,22.0,0
1241,2.0,-254.0,18.0,0
1242,-6.0,-252.0,29.0,0
1243,1.0,-254.0,20.0,0
1244,2.0,-256.0,22.0,0
1245,2.0,-255.0,24.0,0
1246,1.0,-256.0,22.0,0
1247,0.0,-256.0,25.0,0
1248,1.0,-254.0,27.0,0
1249,1.0,-257.0,25.0,0
1250,1.0,-254.0,21.0,0
1251,2.0,-256.0,22.0,0
1252,0.0,-256.0,20.0,0
1253,0.0,-252.0,25.0,0
1254,1.0,-254.0,22.0,0
1255,1.0,-257.0,27.0,0
1256,0.0,-253.0,21.0,0
1257,2.0,-255.0,24.0,0
1258,2.0,-256.0,22.0,0
1259,2.0,-255.0,27.0,0
1260,2.0,-254.0,25.0,0
1261,1.0,-249.0,28.0,0
1262,2.0,-252.0,27.0,0
1263,0.0,-255.0,24.0,0
1264,0.0,-254.0,34.0,0
1265,1.0,-254.0,26.0,0
1266,0.0,-252.0,25.0,0
1267,3.0,-252.0,26.0,0
1268,3.0,-254.0,27.0,0
1269,1.0,-254.0,27.0,0
1270,3.0,-252.0,28.0,0
1271,1.0,-255.0,30.0,0
1272,5.0,-252.0,27.0,0
1273,2.0,-253.0,25.0,0
1274,2.0,-253.0,26.0,0
1275,0.0,-253.0,23.0,0
1276,3.0,-254.0,28.0,0
1277,4.0,-256.0,28.0,0
1278,3.0,-254.0,31.0,0
1279,3.0,-257.0,27.0,0
1280,4.0,-255.0,22.0,0
1281,1.0,-255.0,23.0,0
1282,2.0,-254.0,23.0,0
1283,2.0,-254.0,27.0,0
1284,0.0,-254.0,27.0,0
1285,8.0,-251.0,29.0,0
1286,0.0,-255.0,27.0,0
1287,2.0,-255.0,27.0,0
1288,1.0,-252.0,26.0,0
1289,1.0,-253.0,28.0,0
1290,0.0,-253.0,27.0,0
1291,-1.0,-252.0,23.0,0
1292,1.0,-251.0,24.0,0
1293,2.0,-253.0,26.0,0
1294,1.0,-253.0,29.0,0
1295,1.0,-254.0,27.0,0
1296,1.0,-254.0,27.0,0
1297,0.0,-253.0,27.0,0
1298,2.0,-255.0,28.0,0
1299,0.0,-251.0,28.0,0
1300,1.0,-252.0,27.0,0
1301,1.0,-255.0,28.0,0
1302,2.0,-256.0,27.0,0
1303,1.0,-254.0,28.0,0
1304,2.0,-255.0,26.0,0
1305,3.0,-254.0,23.0,0
1306,1.0,-253.0,29.0,0
1307,1.0,-252.0,25.0,0
1308,4.0,-255.0,28.0,0
1309,3.0,-252.0,26.0,0
1310,1.0,-255.0,26.0,0
1311,2.0,-251.0,28.0,0
1312,3.0,-254.0,24.0,0
1313,2.0,-253.0,27.0,0
1314,2.0,-256.0,28.0,0
1315,4.0,-252.0,27.0,0
1316,3.0,-256.0,27.0,0
1317,3.0,-255.0,29.0,0
1318,0.0,-253.0,30.0,0
1319,0.0,-251.0,24.0,0
1320,4.0,-253.0,27.0,0
1321,3.0,-251.0,23.0,0
1322,1.0,-250.0,24.0,0
1323,2.0,-251.0,26.0,0
1324,0.0,-251.0,26.0,0
1325,0.0,-253.0,29.0,0
1326,1.0,-252.0,28.0,0
1327,1.0,-250.0,28.0,0
1328,1.0,-254.0,28.0,0
1329,1.0,-251.0,29.0,0
1330,0.0,-253.0,25.0,0
1331,0.0,-253.0,26.0,0
1332,0.0,-256.0,28.0,0
1333,0.0,-252.0,28.0,0
1334,-3.0,-255.0,26.0,0
1335,0.0,-256.0,21.0,0
1336,0.0,-253.0,21.0,0
1337,0.0,-258.0,21.0,0
1338,0.0,-257.0,25.0,0
1339,1.0,-258.0,24.0,0
1340,1.0,-257.0,25.0,0
1341,1.0,-255.0,20.0,0
1342,2.0,-256.0,21.0,0
1343,1.0,-251.0,26.0,0
1344,1.0,-254.0,22.0,0
1345,1.0,-253.0,19.0,0
1346,0.0,-253.0,22.0,0
1347,0.0,-253.0,23.0,0
1348,3.0,-253.0,22.0,0
1349,0.0,-254.0,23.0,0
1350,0.0,-254.0,25.0,0
1351,1.0,-253.0,21.0,0
1352,1.0,-253.0,23.0,0
1353,0.0,-255.0,24.0,0
1354,1.0,-254.0,20.0,0
1355,0.0,-254.0,22.0,0
1356,1.0,-257.0,25.0,0
1357,0.0,-254.0,23.0,0
1358,1.0,-256.0,24.0,0
1359,2.0,-255.0,20.0,0
1360,2.0,-255.0,22.0,0
1361,4.0,-255.0,18.0,0
1362,3.0,-257.0,18.0,0
1363,5.0,-258.0,20.0,0
1364,2.0,-256.0,23.0,0
1365,3.0,-252.0,27.0,0
1366,2.0,-255.0,23.0,0
1367,1.0,-258.0,26.0,0
1368,4.0,-256.0,21.0,0
1369,3.0,-255.0,25.0,0
1370,1.0,-255.0,22.0,0
1371,1.0,-254.0,25.0,0
1372,0.0,-253.0,21.0,0
1373,0.0,-255.0,22.0,0
1374,0.0,-251.0,23.0,0
1375,1.0,-254.0,26.0,0
1376,0.0,-253.0,25.0,0
1377,0.0,-255.0,27.0,0
1378,2.0,-255.0,23.0,0
1379,2.0,-253.0,27.0,0
1380,0.0,-254.0,24.0,0
1381,2.0,-255.0,26.0,0
1382,1.0,-254.0,20.0,0
1383,1.0,-254.0,25.0,0
1384,2.0,-256.0,25.0,0
1385,0.0,-255.0,23.0,0
1386,1.0,-253.0,22.0,0
1387,2.0,-254.0,23.0,0
1388,2.0,-256.0,22.0,0
1389,0.0,-255.0,21.0,0
1390,2.0,-256.0,24.0,0
1391,1.0,-252.0,23.0,0
1392,1.0,-254.0,22.0,0
1393,0.0,-253.0,23.0,0
1394,7.0,-253.0,25.0,0
1395,1.0,-253.0,22.0,0
1396,2.0,-254.0,23.0,0
1397,3.0,-254.0,24.0,0
1398,0.0,-252.0,26.0,0
1399,1.0,-253.0,22.0,0
1400,2.0,-253.0,21.0,0
1401,0.0,-254.0,22.0,0
1402,1.0,-257.0,24.0,0
1403,1.0,-255.0,23.0,0
1404,2.0,-257.0,24.0,0
1405,4.0,-255.0,22.0,0
1406,1.0,-253.0,24.0,0
1407,1.0,-256.0,20.0,0
1408,3.0,-256.0,24.0,0
1409,1.0,-255.0,19.0,0
1410,2.0,-256.0,19.0,0
1411,-1.0,-252.0,24.0,0
1412,3.0,-250.0,22.0,0
1413,3.0,-253.0,17.0,0
1414,2.0,-255.0,20.0,0
1415,2.0,-254.0,19.0,0
1416,-3.0,-256.0,16.0,0
1417,3.0,-255.0,23.0,0
1418,1.0,-254.0,23.0,0
1419,0.0,-254.0,19.0,0
1420,1.0,-253.0,19.0,0
1421,2.0,-254.0,21.0,0
1422,0.0,-253.0,21.0,0
1423,0.0,-255.0,17.0,0
1424,1.0,-256.0,22.0,0
1425,0.0,-254.0,24.0,0
1426,1.0,-255.0,20.0,0
1427,0.0,-255.0,20.0,0
1428,0.0,-255.0,21.0,0
1429,0.0,-253.0,23.0,0
1430,3.0,-255.0,19.0,0
1431,2.0,-253.0,21.0,0
1432,5.0,-255.0,16.0,0
1433,3.0,-256.0,20.0,0
1434,3.0,-257.0,21.0,0
1435,3.0,-257.0,21.0,0
1436,3.0,-256.0,20.0,0
1437,2.0,-258.0,21.0,0
1438,3.0,-253.0,19.0,0
1439,2.0,-255.0,22.0,0
1440,0.0,-254.0,22.0,0
1441,1.0,-257.0,17.0,0
1442,1.0,-257.0,22.0,0
1443,1.0,-252.0,22.0,0
1444,1.0,-254.0,20.0,0
1445,0.0,-256.0,25.0,0
1446,0.0,-256.0,18.0,0
1447,-1.0,-251.0,21.0,0
1448,1.0,-253.0,23.0,0
1449,0.0,-254.0,23.0,0
1450,0.0,-254.0,22.0,0
1451,0.0,-254.0,18.0,0
1452,1.0,-256.0,17.0,0
1453,2.0,-256.0,23.0,0
1454,1.0,-255.0,19.0,0
1455,0.0,-252.0,21.0,0
1456,2.0,-254.0,20.0,0
1457,4.0,-259.0,19.0,0
1458,2.0,-253.0,20.0,0
1459,1.0,-253.0,20.0,0
1460,2.0,-255.0,18.0,0
1461,2.0,-255.0,23.0,0
1462,2.0,-253.0,22.0,0
1463,1.0,-251.0,19.0,0
1464,2.0,-253.0,21.0,0
1465,2.0,-255.0,21.0,0
1466,0.0,-252.0,21.0,0
1467,1.0,-251.0,22.0,0
1468,-1.0,-252.0,23.0,0
1469,0.0,-252.0,15.0,0
1470,1.0,-253.0,23.0,0
1471,0.0,-253.0,22.0,0
1472,2.0,-255.0,15.0,0
1473,0.0,-252.0,18.0,0
1474,-1.0,-253.0,21.0,0
1475,1.0,-252.0,20.0,0
1476,3.0,-255.0,16.0,0
1477,1.0,-253.0,16.0,0
1478,3.0,-256.0,19.0,0
1479,0.0,-256.0,21.0,0
1480,1.0,-252.0,17.0,0
1481,2.0,-250.0,19.0,0
1482,0.0,-253.0,23.0,0
1483,0.0,-254.0,19.0,0
1484,1.0,-255.0,19.0,0
1485,0.0,-255.0,24.0,0
1486,1.0,-256.0,24.0,0
1487,0.0,-253.0,24.0,0
1488,0.0,-254.0,25.0,0
1489,1.0,-256.0,22.0,0
1490,0.0,-253.0,20.0,0
1491,4.0,-254.0,22.0,0
1492,2.0,-255.0,20.0,0
1493,1.0,-254.0,21.0,0
1494,0.0,-257.0,21.0,0
1495,2.0,-255.0,23.0,0
1496,2.0,-253.0,22.0,0
1497,1.0,-253.0,25.0,0
1498,3.0,-254.0,26.0,0
1499,1.0,-252.0,28.0,0
1500,3.0,-254.0,26.0,0
1501,2.0,-253.0,27.0,0
1502,3.0,-252.0,29.0,0
1503,2.0,-255.0,26.0,0
1504,-1.0,-254.0,29.0,0
1505,0.0,-254.0,28.0,0
1506,2.0,-256.0,28.0,0
1507,2.0,-254.0,27.0,0
1508,0.0,-255.0,26.0,0
1509,3.0,-257.0,30.0,0
1510,2.0,-254.0,28.0,0
1511,2.0,-257.0,27.0,0
1512,0.0,-254.0,28.0,0
1513,1.0,-256.0,28.0,0
1514,3.0,-256.0,26.0,0
1515,1.0,-256.0,26.0,0
1516,1.0,-257.0,28.0,0
1517,2.0,-256.0,22.0,0
1518,1.0,-256.0,22.0,0
1519,1.0,-253.0,25.0,0
1520,1.0,-254.0,25.0,0
1521,1.0,-252.0,25.0,0
1522,1.0,-252.0,23.0,0
1523,0.0,-252.0,22.0,0
1524,2.0,-252.0,27.0,0
1525,1.0,-250.0,22.0,0
1526,3.0,-255.0,25.0,0
1527,3.0,-252.0,28.0,0
1528,3.0,-252.0,26.0,0
1529,5.0,-255.0,30.0,0
1530,7.0,-256.0,27.0,0
1531,1.0,-253.0,24.0,0
1532,3.0,-252.0,25.0,0
1533,5.0,-255.0,22.0,0
1534,4.0,-253.0,27.0,0
1535,4.0,-257.0,25.0,0
1536,2.0,-252.0,26.0,0
1537,1.0,-257.0,22.0,0
1538,4.0,-254.0,26.0,0
1539,2.0,-254.0,23.0,0
1540,1.0,-253.0,25.0,0
1541,-2.0,-253.0,27.0,0
1542,0.0,-255.0,29.0,0
1543,-1.0,-253.0,29.0,0
1544,0.0,-254.0,27.0,0
1545,0.0,-252.0,28.0,0
1546,3.0,-250.0,32.0,0
1547,-1.0,-253.0,27.0,0
1548,0.0,-253.0,27.0,0
1549,-1.0,-254.0,29.0,0
1550,0.0,-252.0,29.0,0
1551,1.0,-251.0,33.0,0
1552,0.0,-255.0,30.0,0
1553,1.0,-253.0,29.0,0
1554,1.0,-255.0,30.0,0
1555,0.0,-251.0,27.0,0
1556,4.0,-250.0,31.0,0
1557,2.0,-254.0,34.0,0
1558,3.0,-263.0,27.0,0
1559,2.0,-254.0,29.0,0
1560,4.0,-254.0,30.0,0
1561,1.0,-251.0,29.0,0
1562,1.0,-252.0,25.0,0
1563,4.0,-252.0,29.0,0
1564,3.0,-255.0,29.0,0
1565,3.0,-252.0,24.0,0
1566,1.0,-253.0,30.0,0
1567,2.0,-251.0,29.0,0
1568,16.0,-261.0,25.0,0
1569,2.0,-253.0,24.0,0
1570,2.0,-255.0,27.0,0
1571,0.0,-255.0,27.0,0
1572,1.0,-257.0,28.0,0
1573,1.0,-255.0,26.0,0
1574,1.0,-255.0,27.0,0
1575,3.0,-256.0,26.0,0
1576,1.0,-254.0,22.0,0
1577,2.0,-253.0,26.0,0
1578,0.0,-249.0,28.0,0
1579,0.0,-253.0,28.0,0
1580,2.0,-253.0,27.0,0
1581,1.0,-251.0,25.0,0
1582,1.0,-252.0,27.0,0
1583,2.0,-252.0,29.0,0
1584,3.0,-253.0,29.0,0
1585,4.0,-252.0,27.0,0
1586,3.0,-255.0,28.0,0
1587,4.0,-252.0,27.0,0
1588,1.0,-252.0,30.0,0
1589,4.0,-256.0,33.0,0
1590,1.0,-255.0,32.0,0
1591,1.0,-253.0,32.0,0
1592,2.0,-253.0,33.0,0
1593,0.0,-252.0,30.0,0
1594,1.0,-254.0,31.0,0
1595,-2.0,-251.0,32.0,0
1596,-1.0,-254.0,30.0,0
1597,-1.0,-251.0,26.0,0
1598,-1.0,-253.0,27.0,0
1599,1.0,-254.0,26.0,0
1600,0.0,-254.0,28.0,0
1601,0.0,-251.0,26.0,0
1602,2.0,-256.0,26.0,0
1603,0.0,-255.0,28.0,0
1604,0.0,-255.0,32.0,0
1605,2.0,-251.0,31.0,0
1606,2.0,-251.0,30.0,0
1607,1.0,-253.0,32.0,0
1608,3.0,-252.0,31.0,0
1609,2.0,-252.0,30.0,0
1610,1.0,-254.0,31.0,0
1611,2.0,-253.0,33.0,0
1612,3.0,-252.0,25.0,0
1613,2.0,-251.0,28.0,0
1614,2.0,-251.0,28.0,0
1615,1.0,-252.0,28.0,0
1616,5.0,-253.0,28.0,0
1617,1.0,-252.0,34.0,0
1618,2.0,-249.0,32.0,0
1619,1.0,-252.0,31.0,0
1620,1.0,-255.0,31.0,0
1621,1.0,-251.0,32.0,0
1622,1.0,-254.0,33.0,0
1623,3.0,-253.0,29.0,0
1624,0.0,-257.0,29.0,0
1625,1.0,-256.0,29.0,0
1626,0.0,-254.0,29.0,0
1627,1.0,-252.0,34.0,0
1628,2.0,-255.0,29.0,0
1629,2.0,-254.0,28.0,0
1630,1.0,-253.0,29.0,0
1631,2.0,-252.0,26.0,0
1632,2.0,-252.0,30.0,0
1633,2.0,-250.0,28.0,0
1634,-5.0,-253.0,25.0,0
1635,1.0,-252.0,30.0,0
1636,4.0,-255.0,33.0,0
1637,0.0,-254.0,32.0,0
1638,2.0,-251.0,31.0,0
1639,0.0,-251.0,33.0,0
1640,1.0,-252.0,34.0,0
1641,2.0,-254.0,31.0,0
1642,0.0,-256.0,34.0,0
1643,2.0,-255.0,30.0,0
1644,5.0,-255.0,34.0,0
1645,0.0,-251.0,29.0,0
1646,1.0,-251.0,28.0,0
1647,0.0,-253.0,28.0,0
1648,1.0,-253.0,34.0,0
1649,0.0,-251.0,28.0,0
1650,1.0,-254.0,31.0,0
1651,0.0,-250.0,30.0,0
1652,2.0,-253.0,29.0,0
1653,1.0,-252.0,27.0,0
1654,0.0,-253.0,29.0,0
1655,2.0,-251.0,29.0,0
1656,2.0,-257.0,38.0,0
1657,2.0,-256.0,30.0,0
1658,0.0,-252.0,34.0,0
1659,2.0,-255.0,31.0,0
1660,1.0,-254.0,32.0,0
1661,3.0,-253.0,29.0,0
1662,0.0,-253.0,30.0,0
1663,1.0,-253.0,33.0,0
1664,0.0,-254.0,32.0,0
1665,1.0,-252.0,30.0,0
1666,0.0,-252.0,31.0,0
1667,0.0,-253.0,32.0,0
1668,0.0,-252.0,30.0,0
1669,2.0,-251.0,30.0,0
1670,2.0,-255.0,30.0,0
1671,0.0,-251.0,32.0,0
1672,0.0,-253.0,33.0,0
1673,2.0,-253.0,28.0,0
1674,1.0,-252.0,28.0,0
1675,0.0,-252.0,28.0,0
1676,1.0,-252.0,31.0,0
1677,5.0,-251.0,26.0,0
1678,4.0,-253.0,30.0,0
1679,2.0,-256.0,27.0,0
1680,5.0,-254.0,31.0,0
1681,1.0,-252.0,30.0,0
1682,4.0,-255.0,34.0,0
1683,4.0,-251.0,32.0,0
1684,3.0,-255.0,29.0,0
1685,4.0,-256.0,30.0,0
1686,1.0,-252.0,27.0,0
1687,3.0,-254.0,31.0,0
1688,1.0,-254.0,29.0,0
1689,1.0,-253.0,32.0,0
1690,1.0,-249.0,29.0,0
1691,2.0,-253.0,28.0,0
1692,0.0,-250.0,28.0,0
1693,0.0,-251.0,30.0,0
1694,3.0,-253.0,29.0,0
1695,1.0,-254.0,31.0,0
1696,2.0,-255.0,32.0,0
1697,2.0,-254.0,33.0,0
1698,1.0,-253.0,34.0,0
1699,3.0,-254.0,30.0,0
1700,2.0,-254.0,28.0,0
1701,2.0,-254.0,30.0,0
1702,0.0,-256.0,30.0,0
1703,1.0,-257.0,29.0,0
1704,1.0,-252.0,33.0,0
1705,1.0,-253.0,30.0,0
1706,4.0,-254.0,29.0,0
1707,4.0,-256.0,31.0,0
1708,1.0,-258.0,32.0,0
1709,2.0,-254.0,30.0,0
1710,2.0,-256.0,30.0,0
1711,4.0,-256.0,31.0,0
1712,1.0,-254.0,26.0,0
1713,2.0,-252.0,29.0,0
1714,5.0,-255.0,30.0,0
1715,2.0,-253.0,29.0,0
1716,0.0,-253.0,30.0,0
1717,0.0,-251.0,33.0,0
1718,1.0,-254.0,30.0,0
1719,0.0,-251.0,32.0,0
1720,-2.0,-250.0,30.0,0
1721,2.0,-255.0,32.0,0
1722,0.0,-252.0,34.0,0
1723,0.0,-251.0,32.0,0
1724,1.0,-252.0,32.0,0
1725,2.0,-251.0,36.0,0
1726,1.0,-253.0,30.0,0
1727,2.0,-252.0,31.0,0
1728,1.0,-253.0,32.0,0
1729,1.0,-256.0,27.0,0
1730,3.0,-253.0,30.0,0
1731,3.0,-254.0,31.0,0
1732,1.0,-253.0,33.0,0
1733,3.0,-255.0,31.0,0
1734,1.0,-256.0,32.0,0
1735,1.0,-254.0,31.0,0
1736,2.0,-252.0,29.0,0
1737,2.0,-255.0,28.0,0
1738,3.0,-255.0,27.0,0
1739,4.0,-255.0,28.0,0
1740,2.0,-253.0,30.0,0
1741,0.0,-253.0,30.0,0
1742,2.0,-254.0,29.0,0
1743,2.0,-251.0,31.0,0
1744,2.0,-249.0,29.0,0
1745,-1.0,-250.0,30.0,0
1746,0.0,-253.0,30.0,0
1747,1.0,-254.0,29.0,0
1748,0.0,-253.0,32.0,0
1749,1.0,-252.0,27.0,0
1750,1.0,-255.0,31.0,0
1751,0.0,-252.0,31.0,0
1752,2.0,-255.0,28.0,0
1753,3.0,-255.0,28.0,0
1754,1.0,-254.0,30.0,0
1755,2.0,-252.0,32.0,0
1756,3.0,-255.0,29.0,0
1757,1.0,-251.0,29.0,0
1758,1.0,-254.0,30.0,0
1759,1.0,-252.0,29.0,0
1760,1.0,-254.0,31.0,0
1761,1.0,-252.0,27.0,0
1762,3.0,-251.0,27.0,0
1763,1.0,-251.0,33.0,0
1764,3.0,-252.0,30.0,0
1765,-8.0,-256.0,28.0,0
1766,1.0,-253.0,31.0,0
1767,1.0,-254.0,29.0,0
1768,2.0,-253.0,32.0,0
1769,4.0,-256.0,32.0,0
1770,3.0,-253.0,31.0,0
1771,1.0,-253.0,28.0,0
1772,0.0,-250.0,29.0,0
1773,1.0,-249.0,30.0,0
1774,0.0,-249.0,33.0,0
1775,1.0,-251.0,31.0,0
1776,1.0,-254.0,32.0,0
1777,1.0,-249.0,40.0,0
1778,3.0,-246.0,36.0,0
1779,4.0,-241.0,37.0,0
1780,3.0,-233.0,30.0,0
1781,3.0,-233.0,28.0,0
1782,1.0,-233.0,29.0,0
1783,2.0,-232.0,21.0,0
1784,1.0,-232.0,19.0,0
1785,5.0,-234.0,15.0,0
1786,1.0,-234.0,17.0,0
1787,1.0,-239.0,21.0,0
1788,1.0,-245.0,20.0,0
1789,6.0,-246.0,25.0,0
1790,6.0,-248.0,18.0,0
1791,7.0,-247.0,18.0,0
1792,10.0,-249.0,12.0,0
1793,7.0,-247.0,8.0,0
1794,6.0,-243.0,2.0,0
1795,6.0,-242.0,3.0,0
1796,4.0,-238.0,7.0,0
1797,4.0,-239.0,2.0,0
1798,4.0,-236.0,4.0,0
1799,3.0,-243.0,1.0,0
1800,4.0,-247.0,-2.0,0
1801,2.0,-246.0,-10.0,0
1802,-3.0,-245.0,-17.0,0
1803,-9.0,-241.0,-20.0,0
1804,-10.0,-239.0,-21.0,0
1805,-9.0,-246.0,-26.0,0
1806,-3.0,-248.0,-26.0,0
1807,-4.0,-250.0,-25.0,0
1808,0.0,-251.0,-18.0,0
1809,0.0,-257.0,-20.0,0
1810,0.0,-257.0,-24.0,0
1811,-1.0,-254.0,-28.0,0
1812,2.0,-257.0,-23.0,0
1813,2.0,-255.0,-28.0,0
1814,3.0,-253.0,-23.0,0
1815,2.0,-250.0,-29.0,0
1816,3.0,-249.0,-30.0,0
1817,8.0,-248.0,-30.0,0
1818,6.0,-246.0,-32.0,0
1819,11.0,-244.0,-33.0,0
1820,9.0,-247.0,-33.0,0
1821,11.0,-247.0,-35.0,0
1822,14.0,-243.0,-31.0,0
1823,9.0,-241.0,-25.0,0
1824,11.0,-239.0,-23.0,0
1825,14.0,-242.0,-24.0,0
1826,11.0,-239.0,-25.0,0
1827,6.0,-234.0,-22.0,0
1828,14.0,-238.0,-23.0,0
1829,7.0,-238.0,-27.0,0
1830,9.0,-235.0,-22.0,0
1831,9.0,-238.0,-21.0,0
1832,11.0,-233.0,-22.0,0
1833,14.0,-226.0,-30.0,0
1834,7.0,-227.0,-35.0,0
1835,8.0,-234.0,-39.0,0
1836,7.0,-234.0,-50.0,0
1837,8.0,-242.0,-46.0,0
1838,7.0,-253.0,-40.0,0
1839,15.0,-268.0,-38.0,0
1840,8.0,-280.0,-45.0,0
1841,10.0,-293.0,-54.0,0
1842,7.0,-311.0,-48.0,0
1843,8.0,-331.0,-55.0,0
1844,5.0,-355.0,-65.0,0
1845,12.0,-374.0,-74.0,0
1846,15.0,-389.0,-99.0,0
1847,17.0,-382.0,-141.0,0
1848,17.0,-375.0,-175.0,0
1849,10.0,-364.0,-208.0,0
1850,-10.0,-348.0,-217.0,0
1851,-24.0,-360.0,-203.0,0
1852,-37.0,-374.0,-179.0,0
1853,-44.0,-395.0,-151.0,0
1854,-35.0,-411.0,-125.0,0
1855,-31.0,-426.0,-106.0,0
1856,-12.0,-439.0,-103.0,0
1857,1.0,-444.0,-105.0,0
1858,12.0,-449.0,-116.0,0
1859,16.0,-449.0,-124.0,0
1860,20.0,-437.0,-127.0,0
1861,18.0,-423.0,-138.0,0
1862,19.0,-402.0,-144.0,0
1863,14.0,-381.0,-140.0,0
1864,16.0,-372.0,-132.0,0
1865,6.0,-363.0,-129.0,0
1866,-1.0,-363.0,-129.0,0
1867,-1.0,-361.0,-130.0,0
1868,0.0,-362.0,-137.0,0
1869,0.0,-364.0,-140.0,0
1870,6.0,-368.0,-147.0,0
1871,5.0,-377.0,-159.0,0
1872,11.0,-379.0,-155.0,0
1873,15.0,-384.0,-156.0,0
1874,16.0,-387.0,-161.0,0
1875,17.0,-385.0,-158.0,0
1876,22.0,-388.0,-154.0,0
1877,22.0,-387.0,-146.0,0
1878,18.0,-386.0,-137.0,0
1879,22.0,-387.0,-127.0,0
1880,21.0,-385.0,-122.0,0
1881,24.0,-385.0,-121.0,0
1882,26.0,-386.0,-110.0,0
1883,24.0,-382.0,-102.0,0
1884,23.0,-379.0,-93.0,0
1885,24.0,-380.0,-84.0,0
1886,18.0,-377.0,-85.0,0
1887,11.0,-374.0,-85.0,0
1888,13.0,-370.0,-85.0,0
1889,7.0,-362.0,-89.0,0
1890,5.0,-356.0,-88.0,0
1891,4.0,-354.0,-87.0,0
1892,0.0,-343.0,-85.0,0
1893,1.0,-335.0,-85.0,0
1894,3.0,-326.0,-92.0,0
1895,2.0,-314.0,-86.0,0
1896,5.0,-311.0,-87.0,0
1897,7.0,-297.0,-86.0,0
1898,11.0,-286.0,-81.0,0
1899,13.0,-275.0,-77.0,0
1900,16.0,-269.0,-69.0,0
1901,17.0,-257.0,-68.0,0
1902,22.0,-250.0,-68.0,0
1903,27.0,-247.0,-55.0,0
1904,22.0,-237.0,-52.0,0
1905,24.0,-233.0,-50.0,0
1906,27.0,-224.0,-54.0,0
1907,23.0,-213.0,-50.0,0
1908,22.0,-203.0,-50.0,0
1909,21.0,-194.0,-50.0,0
1910,14.0,-186.0,-51.0,0
1911,14.0,-183.0,-50.0,0
1912,13.0,-175.0,-50.0,0
1913,9.0,-165.0,-55.0,0
1914,6.0,-165.0,-53.0,0
1915,1.0,-155.0,-51.0,0
1916,-4.0,-151.0,-45.0,0
1917,-10.0,-153.0,-44.0,0
1918,-12.0,-153.0,-44.0,0
1919,-11.0,-157.0,-34.0,0
1920,-11.0,-159.0,-31.0,0
1921,-9.0,-161.0,-28.0,0
1922,-12.0,-165.0,-27.0,0
1923,-6.0,-174.0,-25.0,0
1924,-1.0,-171.0,-32.0,0
1925,-4.0,-172.0,-15.0,0
1926,0.0,-173.0,-20.0,0
1927,2.0,-162.0,-19.0,0
1928,3.0,-154.0,-24.0,0
1929,9.0,-147.0,-27.0,0
1930,6.0,-136.0,-29.0,0
1931,0.0,-119.0,-33.0,0
1932,-1.0,-106.0,-37.0,0
1933,-5.0,-89.0,-35.0,0
1934,-6.0,-72.0,-36.0,0
1935,-3.0,-60.0,-31.0,0
1936,-3.0,-49.0,-34.0,0
1937,0.0,-31.0,-44.0,0
1938,0.0,-20.0,-50.0,0
1939,-2.0,-2.0,-57.0,0
1940,-2.0,12.0,-66.0,0
1941,-6.0,25.0,-72.0,0
1942,-12.0,35.0,-83.0,0
1943,-17.0,37.0,-88.0,0
1944,-11.0,30.0,-95.0,0
1945,1.0,16.0,-98.0,0
1946,3.0,-2.0,-105.0,0
1947,5.0,-21.0,-115.0,0
1948,11.0,-38.0,-115.0,0
1949,14.0,-52.0,-118.0,0
1950,16.0,-60.0,-109.0,0
1951,17.0,-70.0,-105.0,0
1952,20.0,-75.0,-94.0,0
1953,14.0,-85.0,-84.0,0
1954,11.0,-95.0,-77.0,0
1955,9.0,-103.0,-64.0,0
1956,5.0,-110.0,-57.0,0
1957,4.0,-121.0,-49.0,0
1958,0.0,-131.0,-53.0,0
1959,2.0,-152.0,-54.0,0
1960,-1.0,-167.0,-59.0,0
1961,-10.0,-184.0,-64.0,0
1962,-14.0,-205.0,-73.0,0
1963,-15.0,-232.0,-79.0,0
1964,-16.0,-260.0,-83.0,0
1965,-8.0,-300.0,-88.0,0
1966,5.0,-347.0,-85.0,0
1967,11.0,-390.0,-95.0,0
1968,23.0,-434.0,-97.0,0
1969,30.0,-463.0,-97.0,0
1970,32.0,-477.0,-97.0,0
1971,35.0,-479.0,-90.0,0
1972,52.0,-465.0,-84.0,0
1973,64.0,-436.0,-72.0,0
1974,40.0,-385.0,-60.0,0
1975,29.0,-344.0,-55.0,0
1976,22.0,-306.0,-60.0,0
1977,16.0,-271.0,-61.0,0
1978,13.0,-241.0,-67.0,0
1979,17.0,-220.0,-78.0,0
1980,14.0,-211.0,-81.0,0
1981,6.0,-211.0,-72.0,0
1982,1.0,-220.0,-70.0,0
1983,-4.0,-235.0,-59.0,0
1984,-7.0,-249.0,-46.0,0
1985,-10.0,-266.0,-37.0,0
1986,-13.0,-279.0,-35.0,0
1987,-10.0,-288.0,-24.0,0
1988,-8.0,-299.0,-22.0,0
1989,-3.0,-298.0,-19.0,0
1990,3.0,-292.0,-16.0,0
1991,7.0,-285.0,-19.0,0
1992,13.0,-267.0,-20.0,0
1993,25.0,-258.0,-20.0,0
1994,31.0,-246.0,-22.0,0
1995,39.0,-235.0,-24.0,0
1996,43.0,-227.0,-22.0,0
1997,44.0,-219.0,-20.0,0
1998,50.0,-213.0,-19.0,0
1999,46.0,-207.0,-17.0,0
2000,49.0,-201.0,-18.0,0
2001,46.0,-206.0,-11.0,0
2002,41.0,-200.0,-7.0,0
2003,33.0,-196.0,-9.0,0
2004,26.0,-199.0,-9.0,0
2005,25.0,-199.0,-9.0,0
2006,20.0,-201.0,-11.0,0
2007,17.0,-208.0,-12.0,0
2008,9.0,-212.0,-11.0,0
2009,8.0,-222.0,-14.0,0
2010,3.0,-231.0,-13.0,0
2011,3.0,-241.0,-10.0,0
2012,3.0,-248.0,-13.0,0
2013,3.0,-257.0,-16.0,0
2014,6.0,-265.0,-17.0,0
2015,5.0,-265.0,-20.0,0
2016,5.0,-269.0,-21.0,0
2017,10.0,-271.0,-22.0,0
2018,17.0,-267.0,-24.0,0
2019,19.0,-266.0,-29.0,0
2020,26.0,-264.0,-31.0,0
2021,26.0,-259.0,-35.0,0
2022,32.0,-261.0,-39.0,0
2023,33.0,-259.0,-39.0,0
2024,31.0,-262.0,-36.0,0
2025,29.0,-267.0,-36.0,0
2026,28.0,-275.0,-35.0,0
2027,20.0,-276.0,-33.0,0
2028,14.0,-283.0,-30.0,0
2029,11.0,-285.0,-28.0,0
2030,6.0,-288.0,-24.0,0
2031,4.0,-292.0,-28.0,0
2032,2.0,-289.0,-24.0,0
2033,0.0,-293.0,-22.0,0
2034,1.0,-295.0,-17.0,0
2035,-2.0,-294.0,-16.0,0
2036,-3.0,-295.0,-11.0,0
2037,-3.0,-291.0,-7.0,0
2038,0.0,-289.0,-7.0,0
2039,-7.0,-278.0,-10.0,0
2040,-3.0,-272.0,-7.0,0
2041,-5.0,-264.0,-8.0,0
2042,-2.0,-257.0,-11.0,0
2043,-1.0,-245.0,-8.0,0
2044,0.0,-236.0,-11.0,0
2045,-1.0,-231.0,-12.0,0
2046,0.0,-224.0,-14.0,0
2047,1.0,-223.0,-12.0,0
2048,2.0,-217.0,-13.0,0
2049,3.0,-215.0,-10.0,0
2050,4.0,-224.0,-15.0,0
2051,7.0,-228.0,-14.0,0
2052,9.0,-236.0,-11.0,0
2053,7.0,-240.0,-17.0,0
2054,9.0,-249.0,-16.0,0
2055,11.0,-255.0,-17.0,0
2056,6.0,-259.0,-17.0,0
2057,9.0,-264.0,-19.0,0
2058,8.0,-266.0,-15.0,0
2059,7.0,-272.0,-14.0,0
2060,9.0,-271.0,-11.0,0
2061,8.0,-268.0,-10.0,0
2062,12.0,-271.0,-11.0,0
2063,10.0,-273.0,-8.0,0
2064,9.0,-272.0,-8.0,0
2065,9.0,-271.0,-6.0,0
2066,7.0,-264.0,-6.0,0
2067,8.0,-271.0,-14.0,0
2068,6.0,-270.0,-10.0,0
2069,5.0,-265.0,-13.0,0
2070,7.0,-263.0,-12.0,0
2071,8.0,-262.0,-12.0,0
2072,5.0,-258.0,-13.0,0
2073,6.0,-255.0,-19.0,0
2074,8.0,-252.0,-14.0,0
2075,10.0,-251.0,-13.0,0
2076,8.0,-250.0,-18.0,0
2077,9.0,-253.0,-15.0,0
2078,12.0,-255.0,-17.0,0
2079,12.0,-260.0,-11.0,0
2080,11.0,-266.0,-13.0,0
2081,9.0,-265.0,-12.0,0
2082,7.0,-268.0,-11.0,0
2083,13.0,-271.0,-10.0,0
2084,8.0,-273.0,-6.0,0
2085,10.0,-266.0,-8.0,0
2086,12.0,-265.0,-10.0,0
2087,13.0,-264.0,-11.0,0
2088,12.0,-261.0,-7.0,0
2089,13.0,-255.0,-5.0,0
2090,11.0,-255.0,-3.0,0
2091,13.0,-250.0,-4.0,0
2092,11.0,-252.0,-3.0,0
2093,13.0,-248.0,-4.0,0
2094,11.0,-250.0,-3.0,0
2095,7.0,-248.0,0.0,0
2096,12.0,-253.0,1.0,0
2097,9.0,-251.0,4.0,0
2098,8.0,-251.0,3.0,0
2099,9.0,-252.0,3.0,0
2100,11.0,-251.0,-1.0,0
2101,10.0,-252.0,1.0,0
2102,11.0,-252.0,-2.0,0
2103,13.0,-247.0,4.0,0
2104,12.0,-250.0,2.0,0
2105,12.0,-249.0,3.0,0
2106,11.0,-249.0,-2.0,0
2107,11.0,-250.0,2.0,0
2108,14.0,-250.0,-2.0,0
2109,9.0,-249.0,-5.0,0
2110,10.0,-252.0,-5.0,0
2111,8.0,-252.0,-6.0,0
2112,4.0,-254.0,-3.0,0
2113,7.0,-254.0,-7.0,0
2114,8.0,-256.0,-6.0,0
2115,10.0,-254.0,-6.0,0
2116,7.0,-255.0,-7.0,0
2117,8.0,-257.0,-4.0,0
2118,11.0,-257.0,-5.0,0
2119,10.0,-256.0,-5.0,0
2120,12.0,-258.0,-3.0,0
2121,10.0,-259.0,-5.0,0
2122,13.0,-258.0,-4.0,0
2123,16.0,-262.0,-1.0,0
2124,13.0,-260.0,0.0,0
2125,12.0,-259.0,-6.0,0
2126,11.0,-260.0,-4.0,0
2127,9.0,-259.0,-4.0,0
2128,13.0,-257.0,-6.0,0
2129,9.0,-253.0,-4.0,0
2130,13.0,-255.0,-6.0,0
2131,10.0,-254.0,-3.0,0
2132,10.0,-255.0,-6.0,0
2133,11.0,-254.0,-5.0,0
2134,10.0,-254.0,-7.0,0
2135,11.0,-256.0,-6.0,0
2136,11.0,-254.0,-8.0,0
2137,12.0,-256.0,-6.0,0
2138,13.0,-257.0,-7.0,0
2139,10.0,-258.0,-7.0,0
2140,10.0,-258.0,-6.0,0
2141,12.0,-259.0,-7.0,0
2142,15.0,-262.0,-5.0,0
2143,14.0,-262.0,-7.0,0
2144,12.0,-259.0,-9.0,0
2145,13.0,-262.0,1.0,0
2146,13.0,-257.0,-4.0,0
2147,15.0,-257.0,-9.0,0
2148,16.0,-254.0,-6.0,0
2149,14.0,-252.0,-1.0,0
2150,16.0,-249.0,-5.0,0
2151,16.0,-252.0,-11.0,0
2152,15.0,-249.0,-9.0,0
2153,13.0,-252.0,-7.0,0
2154,14.0,-251.0,-10.0,0
2155,13.0,-250.0,-9.0,0
2156,11.0,-252.0,-6.0,0
2157,14.0,-256.0,-8.0,0
2158,12.0,-256.0,-4.0,0
2159,13.0,-256.0,-7.0,0
2160,10.0,-261.0,-4.0,0
2161,10.0,-259.0,-7.0,0
2162,12.0,-262.0,-7.0,0
2163,11.0,-258.0,-10.0,0
2164,12.0,-256.0,-8.0,0
2165,11.0,-256.0,-9.0,0
2166,10.0,-256.0,-10.0,0
2167,13.0,-255.0,-9.0,0
2168,13.0,-257.0,-9.0,0
2169,11.0,-255.0,-11.0,0
2170,10.0,-254.0,-8.0,0
2171,15.0,-253.0,-9.0,0
2172,11.0,-254.0,-9.0,0
2173,12.0,-255.0,-13.0,0
2174,14.0,-252.0,-6.0,0
2175,12.0,-255.0,-8.0,0
2176,13.0,-254.0,-6.0,0
2177,15.0,-258.0,-11.0,0
2178,13.0,-257.0,-8.0,0
2179,9.0,-256.0,-5.0,0
2180,11.0,-253.0,-5.0,0
2181,15.0,-257.0,-3.0,0
2182,12.0,-259.0,-8.0,0
2183,13.0,-257.0,-5.0,0
2184,10.0,-254.0,-8.0,0
2185,12.0,-254.0,-9.0,0
2186,10.0,-251.0,-9.0,0
2187,11.0,-253.0,-9.0,0
2188,13.0,-254.0,-8.0,0
2189,14.0,-256.0,-9.0,0
2190,9.0,-254.0,-7.0,0
2191,11.0,-255.0,-7.0,0
2192,7.0,-254.0,-6.0,0
2193,7.0,-255.0,-9.0,0
2194,11.0,-258.0,-9.0,0
2195,9.0,-252.0,-4.0,0
2196,9.0,-256.0,-9.0,0
2197,9.0,-255.0,-9.0,0
2198,8.0,-254.0,-5.0,0
2199,6.0,-254.0,-7.0,0
2200,7.0,-254.0,-8.0,0
2201,8.0,-258.0,-9.0,0
2202,6.0,-255.0,-5.0,0
2203,6.0,-255.0,-3.0,0
2204,8.0,-258.0,-7.0,0
2205,4.0,-257.0,-3.0,0
2206,7.0,-257.0,-8.0,0
2207,6.0,-259.0,-4.0,0
2208,6.0,-256.0,-5.0,0
2209,7.0,-254.0,-6.0,0
2210,4.0,-256.0,-6.0,0
2211,8.0,-261.0,-6.0,0
2212,9.0,-262.0,-6.0,0
2213,8.0,-259.0,-10.0,0
2214,9.0,-262.0,-12.0,0
2215,7.0,-262.0,-11.0,0
2216,10.0,-263.0,-12.0,0
2217,12.0,-253.0,-12.0,0
2218,7.0,-258.0,-14.0,0
2219,10.0,-256.0,-13.0,0
2220,6.0,-256.0,-10.0,0
2221,7.0,-256.0,-8.0,0
2222,8.0,-258.0,-11.0,0
2223,9.0,-250.0,-12.0,0
2224,9.0,-255.0,-9.0,0
2225,9.0,-256.0,-8.0,0
2226,10.0,-258.0,-3.0,0
2227,9.0,-257.0,-1.0,0
2228,12.0,-256.0,-4.0,0
2229,5.0,-254.0,-4.0,0
2230,5.0,-254.0,-7.0,0
2231,8.0,-254.0,-5.0,0
2232,11.0,-256.0,-6.0,0
2233,9.0,-254.0,-6.0,0
2234,14.0,-257.0,-6.0,0
2235,11.0,-255.0,-7.0,0
2236,13.0,-253.0,-6.0,0
2237,9.0,-255.0,-8.0,0
2238,14.0,-254.0,-8.0,0
2239,14.0,-255.0,-5.0,0
2240,12.0,-256.0,-7.0,0
2241,12.0,-254.0,-11.0,0
2242,15.0,-262.0,-11.0,0
2243,13.0,-259.0,-9.0,0
2244,12.0,-253.0,-7.0,0
2245,9.0,-258.0,-10.0,0
2246,12.0,-257.0,-6.0,0
2247,13.0,-259.0,-7.0,0
2248,14.0,-256.0,-3.0,0
2249,18.0,-256.0,-9.0,0
2250,15.0,-259.0,-10.0,0
2251,14.0,-256.0,-8.0,0
2252,12.0,-252.0,-8.0,0
2253,12.0,-253.0,-9.0,0
2254,15.0,-254.0,-9.0,0
2255,13.0,-250.0,-7.0,0
2256,15.0,-253.0,-8.0,0
2257,13.0,-256.0,-4.0,0
2258,13.0,-254.0,-7.0,0
2259,11.0,-254.0,-5.0,0
2260,16.0,-262.0,-9.0,0
2261,13.0,-261.0,-6.0,0
2262,13.0,-257.0,-3.0,0
2263,16.0,-259.0,-2.0,0
2264,10.0,-256.0,-4.0,0
2265,14.0,-255.0,-9.0,0
2266,13.0,-258.0,-6.0,0
2267,15.0,-254.0,-4.0,0
2268,15.0,-256.0,-7.0,0
2269,14.0,-254.0,-6.0,0
2270,16.0,-256.0,-4.0,0
2271,15.0,-254.0,-8.0,0
2272,10.0,-255.0,-7.0,0
2273,11.0,-255.0,-5.0,0
2274,11.0,-254.0,-9.0,0
2275,11.0,-252.0,-2.0,0
2276,13.0,-251.0,-7.0,0
2277,13.0,-257.0,-7.0,0
2278,9.0,-256.0,-5.0,0
2279,8.0,-255.0,-7.0,0
2280,10.0,-253.0,-10.0,0
2281,8.0,-255.0,-9.0,0
2282,10.0,-253.0,-11.0,0
2283,10.0,-256.0,-7.0,0
2284,10.0,-253.0,-9.0,0
2285,13.0,-261.0,-7.0,0
2286,12.0,-259.0,-7.0,0
2287,9.0,-263.0,-8.0,0
2288,13.0,-259.0,-12.0,0
2289,12.0,-258.0,-10.0,0
2290,7.0,-256.0,-8.0,0
2291,11.0,-255.0,-11.0,0
2292,11.0,-254.0,-10.0,0
2293,9.0,-255.0,-11.0,0
2294,10.0,-252.0,-13.0,0
2295,10.0,-250.0,-9.0,0
2296,9.0,-253.0,-8.0,0
2297,12.0,-253.0,-12.0,0
2298,12.0,-256.0,-10.0,0
2299,5.0,-253.0,-7.0,0
2300,13.0,-257.0,-10.0,0
2301,9.0,-258.0,-9.0,0
2302,8.0,-260.0,-11.0,0
2303,9.0,-258.0,-13.0,0
2304,8.0,-260.0,-8.0,0
2305,10.0,-257.0,-8.0,0
2306,12.0,-260.0,-12.0,0
2307,11.0,-255.0,-12.0,0
2308,12.0,-257.0,-13.0,0
2309,12.0,-253.0,-9.0,0
2310,10.0,-252.0,-15.0,0
2311,12.0,-253.0,-8.0,0
2312,13.0,-251.0,-8.0,0
2313,9.0,-251.0,-13.0,0
2314,10.0,-253.0,-16.0,0
2315,13.0,-254.0,-12.0,0
2316,12.0,-255.0,-12.0,0
2317,11.0,-256.0,-10.0,0
2318,12.0,-258.0,-9.0,0
2319,10.0,-259.0,-9.0,0
2320,12.0,-259.0,-11.0,0
2321,12.0,-258.0,-11.0,0
2322,12.0,-260.0,-14.0,0
2323,14.0,-258.0,-8.0,0
2324,12.0,-254.0,-14.0,0
2325,13.0,-256.0,-14.0,0
2326,11.0,-252.0,-15.0,0
2327,12.0,-255.0,-14.0,0
2328,16.0,-252.0,-12.0,0
2329,12.0,-254.0,-12.0,0
2330,15.0,-254.0,-11.0,0
2331,9.0,-255.0,-8.0,0
2332,13.0,-256.0,-9.0,0
2333,11.0,-254.0,-12.0,0
2334,11.0,-253.0,-10.0,0
2335,10.0,-256.0,-8.0,0
2336,13.0,-255.0,-12.0,0
2337,14.0,-258.0,-8.0,0
2338,12.0,-257.0,-11.0,0
2339,10.0,-255.0,-12.0,0
2340,9.0,-254.0,-10.0,0
2341,6.0,-254.0,-15.0,0
2342,10.0,-254.0,-9.0,0
2343,10.0,-254.0,-8.0,0
2344,13.0,-253.0,-14.0,0
2345,14.0,-257.0,-14.0,0
2346,14.0,-256.0,-13.0,0
2347,9.0,-253.0,-12.0,0
2348,12.0,-259.0,-14.0,0
2349,15.0,-257.0,-15.0,0
2350,14.0,-254.0,-10.0,0
2351,11.0,-256.0,-17.0,0
2352,10.0,-256.0,-13.0,0
2353,9.0,-256.0,-12.0,0
2354,12.0,-257.0,-14.0,0
2355,11.0,-256.0,-13.0,0
2356,12.0,-257.0,-13.0,0
2357,12.0,-255.0,-13.0,0
2358,13.0,-258.0,-14.0,0
2359,13.0,-257.0,-13.0,0
2360,9.0,-257.0,-17.0,0
2361,11.0,-256.0,-15.0,0
2362,11.0,-258.0,-13.0,0
2363,12.0,-257.0,-15.0,0
2364,7.0,-255.0,-14.0,0
2365,11.0,-257.0,-13.0,0
2366,9.0,-256.0,-13.0,0
2367,13.0,-257.0,-13.0,0
2368,10.0,-254.0,-16.0,0
2369,8.0,-244.0,-12.0,0
2370,5.0,-253.0,-20.0,0
2371,12.0,-244.0,-6.0,0
2372,7.0,-255.0,-19.0,0
2373,10.0,-253.0,-10.0,0
2374,9.0,-252.0,3.0,0
2375,9.0,-253.0,-18.0,0
2376,12.0,-263.0,-15.0,0
2377,6.0,-264.0,-15.0,0
2378,9.0,-263.0,-4.0,0
2379,16.0,-262.0,-12.0,0
2380,10.0,-257.0,-11.0,0
2381,9.0,-259.0,-10.0,0
2382,10.0,-253.0,-10.0,0
2383,8.0,-256.0,-13.0,0
2384,9.0,-255.0,-18.0,0
2385,12.0,-252.0,-7.0,0
2386,10.0,-255.0,-9.0,0
2387,2.0,-253.0,-20.0,0
2388,9.0,-253.0,-14.0,0
2389,12.0,-258.0,-9.0,0
2390,12.0,-258.0,-20.0,0
2391,18.0,-257.0,-5.0,0
2392,13.0,-257.0,-18.0,0
2393,11.0,-257.0,-9.0,0
2394,14.0,-244.0,-13.0,0
2395,14.0,-260.0,-11.0,0
2396,13.0,-257.0,-16.0,0
2397,10.0,-257.0,-10.0,0
2398,11.0,-257.0,-10.0,0
2399,19.0,-254.0,-12.0,0
