,accelerometer_x,accelerometer_y,accelerometer_z,fall
0,2.0,-221.0,-109.0,0
1,1.0,-222.0,-109.0,0
2,7.0,-227.0,-103.0,0
3,8.0,-230.0,-104.0,0
4,8.0,-224.0,-102.0,0
5,4.0,-226.0,-96.0,0
6,1.0,-222.0,-105.0,0
7,6.0,-227.0,-102.0,0
8,7.0,-224.0,-104.0,0
9,9.0,-226.0,-107.0,0
10,6.0,-223.0,-106.0,0
11,9.0,-229.0,-102.0,0
12,2.0,-226.0,-103.0,0
13,7.0,-224.0,-107.0,0
14,7.0,-223.0,-106.0,0
15,5.0,-222.0,-103.0,0
16,10.0,-230.0,-101.0,0
17,4.0,-223.0,-104.0,0
18,4.0,-224.0,-106.0,0
19,7.0,-224.0,-104.0,0
20,6.0,-223.0,-105.0,0
21,6.0,-225.0,-102.0,0
22,6.0,-224.0,-105.0,0
23,8.0,-229.0,-104.0,0
24,4.0,-224.0,-104.0,0
25,7.0,-226.0,-107.0,0
26,6.0,-225.0,-113.0,0
27,6.0,-224.0,-106.0,0
28,6.0,-226.0,-103.0,0
29,6.0,-228.0,-103.0,0
30,5.0,-224.0,-109.0,0
31,3.0,-223.0,-106.0,0
32,1.0,-226.0,-106.0,0
33,7.0,-226.0,-108.0,0
34,7.0,-225.0,-105.0,0
35,5.0,-224.0,-107.0,0
36,5.0,-227.0,-104.0,0
37,3.0,-225.0,-103.0,0
38,3.0,-226.0,-105.0,0
39,6.0,-224.0,-104.0,0
40,5.0,-225.0,-105.0,0
41,5.0,-224.0,-102.0,0
42,8.0,-224.0,-102.0,0
43,6.0,-224.0,-103.0,0
44,4.0,-221.0,-102.0,0
45,8.0,-223.0,-104.0,0
46,7.0,-223.0,-103.0,0
47,5.0,-225.0,-105.0,0
48,6.0,-224.0,-115.0,0
49,5.0,-224.0,-106.0,0
50,5.0,-224.0,-107.0,0
51,6.0,-225.0,-106.0,0
52,4.0,-222.0,-104.0,0
53,3.0,-222.0,-104.0,0
54,5.0,-222.0,-105.0,0
55,8.0,-223.0,-107.0,0
56,6.0,-223.0,-104.0,0
57,8.0,-223.0,-103.0,0
58,7.0,-225.0,-105.0,0
59,6.0,-227.0,-110.0,0
60,8.0,-225.0,-104.0,0
61,9.0,-223.0,-103.0,0
62,6.0,-222.0,-107.0,0
63,9.0,-223.0,-109.0,0
64,6.0,-220.0,-108.0,0
65,7.0,-221.0,-103.0,0
66,8.0,-223.0,-104.0,0
67,11.0,-225.0,-103.0,0
68,8.0,-224.0,-108.0,0
69,8.0,-224.0,-101.0,0
70,3.0,-226.0,-108.0,0
71,8.0,-229.0,-106.0,0
72,12.0,-231.0,-106.0,0
73,8.0,-229.0,-105.0,0
74,9.0,-230.0,-106.0,0
75,5.0,-224.0,-108.0,0
76,10.0,-229.0,-106.0,0
77,12.0,-230.0,-106.0,0
78,10.0,-225.0,-107.0,0
79,7.0,-227.0,-109.0,0
80,11.0,-231.0,-107.0,0
81,8.0,-229.0,-113.0,0
82,11.0,-227.0,-110.0,0
83,9.0,-229.0,-110.0,0
84,11.0,-227.0,-102.0,0
85,13.0,-225.0,-109.0,0
86,10.0,-224.0,-106.0,0
87,9.0,-224.0,-109.0,0
88,8.0,-222.0,-107.0,0
89,9.0,-223.0,-108.0,0
90,8.0,-223.0,-107.0,0
91,5.0,-224.0,-107.0,0
92,6.0,-223.0,-105.0,0
93,4.0,-221.0,-106.0,0
94,5.0,-221.0,-104.0,0
95,6.0,-221.0,-106.0,0
96,3.0,-223.0,-107.0,0
97,6.0,-223.0,-106.0,0
98,3.0,-218.0,-107.0,0
99,5.0,-222.0,-103.0,0
100,4.0,-223.0,-106.0,0
101,7.0,-224.0,-107.0,0
102,6.0,-224.0,-108.0,0
103,11.0,-225.0,-109.0,0
104,2.0,-224.0,-103.0,0
105,4.0,-222.0,-108.0,0
106,5.0,-223.0,-107.0,0
107,1.0,-223.0,-109.0,0
108,4.0,-221.0,-106.0,0
109,3.0,-220.0,-106.0,0
110,4.0,-222.0,-106.0,0
111,6.0,-223.0,-105.0,0
112,6.0,-220.0,-106.0,0
113,14.0,-228.0,-104.0,0
114,8.0,-222.0,-108.0,0
115,7.0,-222.0,-106.0,0
116,7.0,-221.0,-104.0,0
117,4.0,-221.0,-108.0,0
118,6.0,-224.0,-106.0,0
119,6.0,-225.0,-107.0,0
120,7.0,-224.0,-107.0,0
121,7.0,-223.0,-108.0,0
122,7.0,-222.0,-107.0,0
123,7.0,-225.0,-106.0,0
124,4.0,-225.0,-114.0,0
125,7.0,-224.0,-106.0,0
126,7.0,-223.0,-108.0,0
127,4.0,-225.0,-106.0,0
128,3.0,-224.0,-108.0,0
129,6.0,-224.0,-106.0,0
130,4.0,-224.0,-107.0,0
131,1.0,-223.0,-108.0,0
132,5.0,-222.0,-107.0,0
133,3.0,-222.0,-111.0,0
134,4.0,-226.0,-106.0,0
135,6.0,-223.0,-106.0,0
136,3.0,-224.0,-110.0,0
137,5.0,-223.0,-107.0,0
138,6.0,-225.0,-106.0,0
139,5.0,-223.0,-107.0,0
140,7.0,-225.0,-108.0,0
141,5.0,-225.0,-106.0,0
142,5.0,-221.0,-110.0,0
143,2.0,-222.0,-110.0,0
144,7.0,-224.0,-107.0,0
145,7.0,-229.0,-104.0,0
146,6.0,-229.0,-109.0,0
147,3.0,-223.0,-110.0,0
148,8.0,-222.0,-106.0,0
149,7.0,-221.0,-108.0,0
150,5.0,-224.0,-107.0,0
151,3.0,-223.0,-111.0,0
152,4.0,-222.0,-110.0,0
153,9.0,-227.0,-111.0,0
154,7.0,-224.0,-109.0,0
155,5.0,-224.0,-106.0,0
156,5.0,-225.0,-105.0,0
157,6.0,-223.0,-112.0,0
158,4.0,-223.0,-111.0,0
159,6.0,-225.0,-108.0,0
160,11.0,-224.0,-111.0,0
161,7.0,-225.0,-109.0,0
162,6.0,-222.0,-107.0,0
163,4.0,-224.0,-109.0,0
164,8.0,-223.0,-111.0,0
165,10.0,-228.0,-106.0,0
166,9.0,-225.0,-109.0,0
167,8.0,-222.0,-112.0,0
168,13.0,-224.0,-111.0,0
169,11.0,-224.0,-108.0,0
170,6.0,-223.0,-110.0,0
171,6.0,-220.0,-107.0,0
172,5.0,-222.0,-106.0,0
173,7.0,-221.0,-107.0,0
174,7.0,-222.0,-112.0,0
175,8.0,-224.0,-104.0,0
176,7.0,-224.0,-108.0,0
177,6.0,-223.0,-106.0,0
178,6.0,-221.0,-103.0,0
179,8.0,-224.0,-115.0,0
180,5.0,-224.0,-108.0,0
181,8.0,-221.0,-111.0,0
182,4.0,-222.0,-108.0,0
183,3.0,-221.0,-107.0,0
184,6.0,-223.0,-108.0,0
185,8.0,-223.0,-110.0,0
186,6.0,-220.0,-108.0,0
187,4.0,-219.0,-104.0,0
188,5.0,-221.0,-104.0,0
189,7.0,-221.0,-113.0,0
190,6.0,-214.0,-110.0,0
191,6.0,-219.0,-111.0,0
192,8.0,-219.0,-108.0,0
193,10.0,-216.0,-111.0,0
194,7.0,-220.0,-111.0,0
195,13.0,-220.0,-114.0,0
196,10.0,-214.0,-112.0,0
197,6.0,-216.0,-120.0,0
198,10.0,-216.0,-115.0,0
199,9.0,-216.0,-115.0,0
200,9.0,-213.0,-114.0,0
201,9.0,-217.0,-117.0,0
202,9.0,-212.0,-117.0,0
203,9.0,-212.0,-120.0,0
204,9.0,-211.0,-120.0,0
205,10.0,-208.0,-117.0,0
206,9.0,-208.0,-119.0,0
207,12.0,-211.0,-123.0,0
208,13.0,-211.0,-117.0,0
209,9.0,-209.0,-118.0,0
210,12.0,-211.0,-112.0,0
211,15.0,-203.0,-122.0,0
212,9.0,-212.0,-113.0,0
213,12.0,-211.0,-106.0,0
214,12.0,-217.0,-112.0,0
215,13.0,-220.0,-116.0,0
216,12.0,-222.0,-113.0,0
217,14.0,-222.0,-114.0,0
218,15.0,-220.0,-116.0,0
219,13.0,-224.0,-115.0,0
220,9.0,-218.0,-121.0,0
221,7.0,-217.0,-125.0,0
222,8.0,-218.0,-126.0,0
223,12.0,-216.0,-126.0,0
224,13.0,-219.0,-122.0,0
225,10.0,-221.0,-126.0,0
226,12.0,-219.0,-124.0,0
227,13.0,-221.0,-125.0,0
228,13.0,-221.0,-126.0,0
229,12.0,-218.0,-123.0,0
230,13.0,-219.0,-126.0,0
231,13.0,-222.0,-127.0,0
232,8.0,-217.0,-123.0,0
233,16.0,-217.0,-122.0,0
234,10.0,-217.0,-122.0,0
235,10.0,-219.0,-126.0,0
236,11.0,-219.0,-120.0,0
237,11.0,-217.0,-119.0,0
238,11.0,-219.0,-120.0,0
239,9.0,-219.0,-117.0,0
240,6.0,-217.0,-118.0,0
241,12.0,-219.0,-116.0,0
242,8.0,-216.0,-113.0,0
243,8.0,-218.0,-111.0,0
244,8.0,-223.0,-114.0,0
245,9.0,-222.0,-111.0,0
246,9.0,-221.0,-116.0,0
247,10.0,-220.0,-115.0,0
248,10.0,-220.0,-113.0,0
249,9.0,-222.0,-119.0,0
250,5.0,-219.0,-116.0,0
251,8.0,-222.0,-113.0,0
252,6.0,-217.0,-119.0,0
253,5.0,-223.0,-116.0,0
254,6.0,-222.0,-119.0,0
255,11.0,-227.0,-111.0,0
256,6.0,-221.0,-122.0,0
257,6.0,-218.0,-123.0,0
258,5.0,-219.0,-124.0,0
259,7.0,-220.0,-121.0,0
260,3.0,-215.0,-123.0,0
261,7.0,-217.0,-123.0,0
262,4.0,-217.0,-124.0,0
263,7.0,-214.0,-126.0,0
264,13.0,-217.0,-126.0,0
265,10.0,-219.0,-124.0,0
266,8.0,-217.0,-127.0,0
267,8.0,-213.0,-126.0,0
268,10.0,-214.0,-130.0,0
269,7.0,-214.0,-128.0,0
270,8.0,-210.0,-125.0,0
271,7.0,-213.0,-129.0,0
272,9.0,-212.0,-127.0,0
273,8.0,-214.0,-126.0,0
274,8.0,-215.0,-127.0,0
275,3.0,-214.0,-125.0,0
276,7.0,-216.0,-129.0,0
277,7.0,-211.0,-127.0,0
278,8.0,-216.0,-128.0,0
279,11.0,-210.0,-122.0,0
280,7.0,-212.0,-126.0,0
281,7.0,-210.0,-128.0,0
282,7.0,-209.0,-130.0,0
283,6.0,-205.0,-128.0,0
284,9.0,-206.0,-130.0,0
285,5.0,-208.0,-130.0,0
286,8.0,-204.0,-128.0,0
287,7.0,-204.0,-131.0,0
288,9.0,-204.0,-133.0,0
289,7.0,-206.0,-131.0,0
290,6.0,-205.0,-131.0,0
291,5.0,-205.0,-128.0,0
292,6.0,-207.0,-129.0,0
293,5.0,-205.0,-129.0,0
294,6.0,-206.0,-132.0,0
295,4.0,-207.0,-133.0,0
296,3.0,-207.0,-134.0,0
297,5.0,-206.0,-140.0,0
298,5.0,-204.0,-135.0,0
299,1.0,-203.0,-140.0,0
300,0.0,-202.0,-134.0,0
301,1.0,-201.0,-134.0,0
302,4.0,-203.0,-136.0,0
303,1.0,-199.0,-136.0,0
304,2.0,-200.0,-135.0,0
305,2.0,-201.0,-136.0,0
306,0.0,-197.0,-138.0,0
307,2.0,-197.0,-140.0,0
308,0.0,-195.0,-139.0,0
309,3.0,-192.0,-141.0,0
310,2.0,-192.0,-149.0,0
311,-3.0,-192.0,-143.0,0
312,-1.0,-191.0,-142.0,0
313,-3.0,-189.0,-138.0,0
314,-6.0,-191.0,-143.0,0
315,-5.0,-190.0,-141.0,0
316,-10.0,-189.0,-137.0,0
317,-10.0,-190.0,-140.0,0
318,-6.0,-187.0,-141.0,0
319,-5.0,-188.0,-149.0,0
320,-9.0,-182.0,-151.0,0
321,-2.0,-191.0,-143.0,0
322,-5.0,-185.0,-146.0,0
323,-1.0,-185.0,-149.0,0
324,1.0,-184.0,-146.0,0
325,5.0,-181.0,-147.0,0
326,7.0,-178.0,-150.0,0
327,6.0,-178.0,-151.0,0
328,10.0,-182.0,-143.0,0
329,7.0,-183.0,-145.0,0
330,3.0,-179.0,-143.0,0
331,1.0,-186.0,-135.0,0
332,3.0,-188.0,-134.0,0
333,0.0,-190.0,-132.0,0
334,-1.0,-193.0,-128.0,0
335,0.0,-197.0,-128.0,0
336,3.0,-201.0,-127.0,0
337,6.0,-207.0,-128.0,0
338,8.0,-208.0,-133.0,0
339,16.0,-208.0,-136.0,0
340,20.0,-206.0,-143.0,0
341,20.0,-207.0,-145.0,0
342,31.0,-205.0,-147.0,0
343,32.0,-202.0,-147.0,0
344,32.0,-202.0,-146.0,0
345,28.0,-199.0,-149.0,0
346,28.0,-194.0,-143.0,0
347,21.0,-192.0,-148.0,0
348,21.0,-189.0,-150.0,0
349,17.0,-186.0,-143.0,0
350,13.0,-182.0,-142.0,0
351,8.0,-182.0,-131.0,0
352,1.0,-180.0,-132.0,0
353,-2.0,-182.0,-129.0,0
354,-6.0,-181.0,-129.0,0
355,-9.0,-180.0,-132.0,0
356,-10.0,-177.0,-134.0,0
357,-15.0,-175.0,-138.0,0
358,-15.0,-168.0,-143.0,0
359,-11.0,-166.0,-149.0,0
360,-14.0,-160.0,-146.0,0
361,-13.0,-155.0,-152.0,0
362,-10.0,-155.0,-147.0,0
363,-13.0,-151.0,-149.0,0
364,-7.0,-141.0,-153.0,0
365,-10.0,-140.0,-141.0,0
366,-9.0,-139.0,-141.0,0
367,-12.0,-135.0,-134.0,0
368,-10.0,-130.0,-130.0,0
369,-8.0,-130.0,-129.0,0
370,-11.0,-132.0,-126.0,0
371,-16.0,-130.0,-128.0,0
372,-13.0,-127.0,-128.0,0
373,-16.0,-121.0,-133.0,0
374,-14.0,-121.0,-139.0,0
375,-18.0,-116.0,-144.0,0
376,-11.0,-115.0,-145.0,0
377,-10.0,-113.0,-150.0,0
378,-13.0,-116.0,-145.0,0
379,-14.0,-118.0,-143.0,0
380,-15.0,-120.0,-141.0,0
381,-17.0,-120.0,-141.0,0
382,-20.0,-123.0,-143.0,0
383,-19.0,-123.0,-147.0,0
384,-24.0,-119.0,-147.0,0
385,-25.0,-116.0,-151.0,0
386,-28.0,-111.0,-165.0,0
387,-17.0,-114.0,-159.0,0
388,-12.0,-111.0,-162.0,0
389,-10.0,-108.0,-172.0,0
390,-4.0,-103.0,-172.0,0
391,3.0,-102.0,-174.0,0
392,9.0,-97.0,-180.0,0
393,12.0,-99.0,-185.0,0
394,14.0,-99.0,-185.0,0
395,16.0,-101.0,-180.0,0
396,17.0,-107.0,-176.0,0
397,20.0,-115.0,-171.0,0
398,18.0,-121.0,-165.0,0
399,23.0,-127.0,-167.0,0
400,26.0,-130.0,-165.0,0
401,15.0,-129.0,-174.0,0
402,7.0,-130.0,-176.0,0
403,0.0,-132.0,-188.0,0
404,-8.0,-130.0,-189.0,0
405,-17.0,-126.0,-194.0,0
406,-18.0,-126.0,-202.0,0
407,-12.0,-130.0,-197.0,0
408,-21.0,-131.0,-200.0,0
409,-21.0,-137.0,-195.0,0
410,-23.0,-134.0,-196.0,0
411,-21.0,-134.0,-201.0,0
412,-19.0,-135.0,-199.0,0
413,-10.0,-138.0,-198.0,0
414,-9.0,-136.0,-198.0,0
415,3.0,-153.0,-198.0,0
416,6.0,-152.0,-190.0,0
417,11.0,-159.0,-194.0,0
418,14.0,-160.0,-189.0,0
419,20.0,-165.0,-192.0,0
420,24.0,-165.0,-192.0,0
421,30.0,-167.0,-194.0,0
422,33.0,-163.0,-201.0,0
423,36.0,-158.0,-202.0,0
424,33.0,-156.0,-211.0,0
425,26.0,-152.0,-212.0,0
426,17.0,-144.0,-213.0,0
427,15.0,-145.0,-219.0,0
428,10.0,-145.0,-220.0,0
429,9.0,-143.0,-214.0,0
430,-1.0,-143.0,-212.0,0
431,-8.0,-143.0,-212.0,0
432,-12.0,-143.0,-209.0,0
433,-21.0,-140.0,-213.0,0
434,-22.0,-139.0,-213.0,0
435,-28.0,-136.0,-213.0,0
436,-27.0,-132.0,-209.0,0
437,-23.0,-136.0,-212.0,0
438,-22.0,-135.0,-204.0,0
439,-15.0,-136.0,-206.0,0
440,1.0,-139.0,-201.0,0
441,2.0,-136.0,-208.0,0
442,6.0,-135.0,-211.0,0
443,17.0,-131.0,-215.0,0
444,21.0,-132.0,-219.0,0
445,24.0,-133.0,-215.0,0
446,24.0,-129.0,-219.0,0
447,26.0,-133.0,-221.0,0
448,30.0,-135.0,-220.0,0
449,24.0,-131.0,-219.0,0
450,29.0,-127.0,-224.0,0
451,29.0,-119.0,-228.0,0
452,24.0,-114.0,-232.0,0
453,9.0,-115.0,-227.0,0
454,5.0,-113.0,-233.0,0
455,0.0,-115.0,-230.0,0
456,-2.0,-116.0,-228.0,0
457,-8.0,-119.0,-228.0,0
458,-10.0,-120.0,-227.0,0
459,-10.0,-122.0,-231.0,0
460,-14.0,-125.0,-232.0,0
461,-14.0,-125.0,-223.0,0
462,-14.0,-127.0,-234.0,0
463,-15.0,-126.0,-222.0,0
464,-15.0,-129.0,-221.0,0
465,-15.0,-128.0,-221.0,0
466,-11.0,-124.0,-215.0,0
467,-12.0,-123.0,-221.0,0
468,-8.0,-120.0,-225.0,0
469,-1.0,-124.0,-225.0,0
470,-10.0,-121.0,-226.0,0
471,-6.0,-120.0,-229.0,0
472,-12.0,-114.0,-233.0,0
473,-6.0,-121.0,-227.0,0
474,-10.0,-121.0,-233.0,0
475,-8.0,-122.0,-234.0,0
476,-13.0,-126.0,-230.0,0
477,-17.0,-122.0,-232.0,0
478,-20.0,-118.0,-228.0,0
479,-13.0,-122.0,-229.0,0
480,-15.0,-126.0,-229.0,0
481,-16.0,-126.0,-229.0,0
482,-7.0,-126.0,-233.0,0
483,-8.0,-125.0,-236.0,0
484,-5.0,-126.0,-237.0,0
485,-6.0,-125.0,-239.0,0
486,-4.0,-124.0,-239.0,0
487,-3.0,-123.0,-240.0,0
488,-5.0,-119.0,-239.0,0
489,-8.0,-117.0,-234.0,0
490,-10.0,-122.0,-240.0,0
491,-7.0,-123.0,-241.0,0
492,-6.0,-127.0,-237.0,0
493,-11.0,-126.0,-241.0,0
494,-8.0,-129.0,-236.0,0
495,-7.0,-131.0,-233.0,0
496,-13.0,-133.0,-232.0,0
497,-18.0,-129.0,-232.0,0
498,-16.0,-131.0,-232.0,0
499,-13.0,-129.0,-230.0,0
500,-11.0,-129.0,-233.0,0
501,-10.0,-126.0,-238.0,0
502,-4.0,-128.0,-237.0,0
503,-9.0,-127.0,-236.0,0
504,-11.0,-124.0,-237.0,0
505,-12.0,-126.0,-237.0,0
506,-11.0,-128.0,-236.0,0
507,-14.0,-129.0,-235.0,0
508,-17.0,-128.0,-239.0,0
509,-16.0,-127.0,-243.0,0
510,-15.0,-127.0,-242.0,0
511,-17.0,-125.0,-243.0,0
512,-18.0,-125.0,-247.0,0
513,-16.0,-121.0,-246.0,0
514,-12.0,-122.0,-248.0,0
515,-15.0,-123.0,-241.0,0
516,-17.0,-123.0,-243.0,0
517,-13.0,-123.0,-243.0,0
518,-18.0,-122.0,-241.0,0
519,-18.0,-123.0,-245.0,0
520,-20.0,-125.0,-247.0,0
521,-23.0,-124.0,-242.0,0
522,-24.0,-126.0,-248.0,0
523,-24.0,-130.0,-241.0,0
524,-30.0,-130.0,-242.0,0
525,-31.0,-130.0,-240.0,0
526,-34.0,-129.0,-235.0,0
527,-34.0,-130.0,-234.0,0
528,-34.0,-128.0,-236.0,0
529,-38.0,-125.0,-238.0,0
530,-33.0,-127.0,-239.0,0
531,-33.0,-121.0,-240.0,0
532,-31.0,-120.0,-246.0,0
533,-28.0,-113.0,-242.0,0
534,-29.0,-114.0,-243.0,0
535,-27.0,-112.0,-243.0,0
536,-27.0,-113.0,-244.0,0
537,-27.0,-112.0,-243.0,0
538,-33.0,-119.0,-244.0,0
539,-36.0,-116.0,-244.0,0
540,-42.0,-120.0,-240.0,0
541,-43.0,-116.0,-240.0,0
542,-42.0,-116.0,-246.0,0
543,-38.0,-115.0,-242.0,0
544,-35.0,-117.0,-240.0,0
545,-32.0,-110.0,-244.0,0
546,-27.0,-117.0,-240.0,0
547,-21.0,-116.0,-242.0,0
548,-21.0,-114.0,-235.0,0
549,-23.0,-122.0,-236.0,0
550,-21.0,-116.0,-238.0,0
551,-27.0,-116.0,-239.0,0
552,-32.0,-118.0,-237.0,0
553,-35.0,-121.0,-237.0,0
554,-37.0,-122.0,-235.0,0
555,-36.0,-120.0,-235.0,0
556,-35.0,-120.0,-240.0,0
557,-34.0,-120.0,-237.0,0
558,-27.0,-123.0,-239.0,0
559,-32.0,-126.0,-238.0,0
560,-30.0,-124.0,-241.0,0
561,-29.0,-126.0,-238.0,0
562,-28.0,-127.0,-238.0,0
563,-28.0,-122.0,-240.0,0
564,-30.0,-123.0,-240.0,0
565,-31.0,-122.0,-239.0,0
566,-33.0,-123.0,-235.0,0
567,-32.0,-124.0,-236.0,0
568,-28.0,-123.0,-235.0,0
569,-27.0,-126.0,-235.0,0
570,-31.0,-125.0,-235.0,0
571,-20.0,-121.0,-231.0,0
572,-16.0,-121.0,-233.0,0
573,-20.0,-119.0,-231.0,0
574,-25.0,-117.0,-233.0,0
575,-23.0,-116.0,-231.0,0
576,-29.0,-118.0,-226.0,0
577,-29.0,-118.0,-231.0,0
578,-27.0,-120.0,-227.0,0
579,-27.0,-118.0,-231.0,0
580,-30.0,-118.0,-235.0,0
581,-38.0,-124.0,-237.0,0
582,-41.0,-118.0,-231.0,0
583,-39.0,-124.0,-231.0,0
584,-43.0,-117.0,-229.0,0
585,-45.0,-120.0,-231.0,0
586,-45.0,-120.0,-227.0,0
587,-46.0,-116.0,-229.0,0
588,-44.0,-113.0,-229.0,0
589,-42.0,-114.0,-226.0,0
590,-39.0,-112.0,-224.0,0
591,-35.0,-113.0,-227.0,0
592,-40.0,-111.0,-232.0,0
593,-36.0,-110.0,-225.0,0
594,-35.0,-110.0,-223.0,0
595,-34.0,-108.0,-216.0,0
596,-35.0,-108.0,-223.0,0
597,-40.0,-114.0,-225.0,0
598,-40.0,-110.0,-223.0,0
599,-39.0,-112.0,-226.0,0
600,-43.0,-113.0,-225.0,0
601,-43.0,-117.0,-224.0,0
602,-47.0,-115.0,-226.0,0
603,-36.0,-112.0,-226.0,0
604,-40.0,-119.0,-227.0,0
605,-40.0,-120.0,-230.0,0
606,-34.0,-119.0,-228.0,0
607,-36.0,-121.0,-227.0,0
608,-34.0,-118.0,-227.0,0
609,-37.0,-124.0,-229.0,0
610,-38.0,-123.0,-233.0,0
611,-34.0,-126.0,-237.0,0
612,-34.0,-128.0,-231.0,0
613,-35.0,-128.0,-234.0,0
614,-33.0,-127.0,-229.0,0
615,-30.0,-126.0,-229.0,0
616,-28.0,-124.0,-226.0,0
617,-32.0,-122.0,-226.0,0
618,-33.0,-120.0,-226.0,0
619,-38.0,-121.0,-224.0,0
620,-40.0,-119.0,-225.0,0
621,-44.0,-124.0,-216.0,0
622,-48.0,-123.0,-219.0,0
623,-51.0,-122.0,-217.0,0
624,-47.0,-125.0,-216.0,0
625,-49.0,-122.0,-211.0,0
626,-50.0,-123.0,-214.0,0
627,-48.0,-121.0,-221.0,0
628,-50.0,-120.0,-218.0,0
629,-44.0,-120.0,-217.0,0
630,-48.0,-118.0,-217.0,0
631,-50.0,-116.0,-216.0,0
632,-49.0,-113.0,-216.0,0
633,-49.0,-112.0,-213.0,0
634,-47.0,-117.0,-213.0,0
635,-49.0,-113.0,-214.0,0
636,-57.0,-106.0,-223.0,0
637,-49.0,-105.0,-218.0,0
638,-49.0,-106.0,-220.0,0
639,-53.0,-101.0,-217.0,0
640,-52.0,-105.0,-219.0,0
641,-52.0,-105.0,-218.0,0
642,-57.0,-105.0,-222.0,0
643,-60.0,-105.0,-223.0,0
644,-59.0,-110.0,-220.0,0
645,-57.0,-108.0,-222.0,0
646,-58.0,-104.0,-218.0,0
647,-57.0,-110.0,-220.0,0
648,-56.0,-105.0,-223.0,0
649,-52.0,-104.0,-220.0,0
650,-48.0,-104.0,-222.0,0
651,-45.0,-100.0,-221.0,0
652,-45.0,-101.0,-226.0,0
653,-47.0,-100.0,-225.0,0
654,-43.0,-102.0,-224.0,0
655,-46.0,-98.0,-226.0,0
656,-40.0,-102.0,-225.0,0
657,-43.0,-95.0,-222.0,0
658,-42.0,-98.0,-222.0,0
659,-42.0,-96.0,-220.0,0
660,-41.0,-92.0,-222.0,0
661,-43.0,-93.0,-219.0,0
662,-41.0,-90.0,-223.0,0
663,-40.0,-94.0,-225.0,0
664,-42.0,-91.0,-216.0,0
665,-43.0,-91.0,-225.0,0
666,-42.0,-92.0,-219.0,0
667,-41.0,-93.0,-222.0,0
668,-42.0,-92.0,-219.0,0
669,-38.0,-93.0,-220.0,0
670,-41.0,-92.0,-221.0,0
671,-39.0,-91.0,-220.0,0
672,-39.0,-90.0,-221.0,0
673,-39.0,-93.0,-219.0,0
674,-41.0,-91.0,-222.0,0
675,-41.0,-93.0,-218.0,0
676,-40.0,-94.0,-218.0,0
677,-43.0,-92.0,-219.0,0
678,-39.0,-92.0,-220.0,0
679,-47.0,-91.0,-224.0,0
680,-41.0,-94.0,-221.0,0
681,-40.0,-91.0,-216.0,0
682,-41.0,-91.0,-220.0,0
683,-44.0,-95.0,-216.0,0
684,-43.0,-95.0,-217.0,0
685,-43.0,-93.0,-221.0,0
686,-42.0,-95.0,-218.0,0
687,-45.0,-90.0,-220.0,0
688,-45.0,-90.0,-218.0,0
689,-48.0,-90.0,-217.0,0
690,-44.0,-95.0,-220.0,0
691,-46.0,-92.0,-220.0,0
692,-45.0,-96.0,-220.0,0
693,-44.0,-96.0,-221.0,0
694,-42.0,-96.0,-222.0,0
695,-43.0,-98.0,-221.0,0
696,-42.0,-95.0,-222.0,0
697,-44.0,-102.0,-223.0,0
698,-42.0,-97.0,-221.0,0
699,-48.0,-99.0,-221.0,0
700,-43.0,-97.0,-218.0,0
701,-47.0,-99.0,-220.0,0
702,-48.0,-95.0,-217.0,0
703,-47.0,-102.0,-226.0,0
704,-48.0,-99.0,-219.0,0
705,-51.0,-98.0,-219.0,0
706,-47.0,-98.0,-224.0,0
707,-49.0,-99.0,-227.0,0
708,-50.0,-103.0,-227.0,0
709,-47.0,-101.0,-228.0,0
710,-48.0,-101.0,-230.0,0
711,-47.0,-98.0,-230.0,0
712,-46.0,-102.0,-225.0,0
713,-49.0,-98.0,-227.0,0
714,-48.0,-99.0,-225.0,0
715,-48.0,-100.0,-226.0,0
716,-47.0,-101.0,-226.0,0
717,-50.0,-99.0,-231.0,0
718,-50.0,-102.0,-224.0,0
719,-46.0,-100.0,-230.0,0
720,-47.0,-99.0,-231.0,0
721,-50.0,-99.0,-231.0,0
722,-47.0,-105.0,-228.0,0
723,-48.0,-96.0,-230.0,0
724,-45.0,-104.0,-229.0,0
725,-47.0,-102.0,-229.0,0
726,-48.0,-103.0,-229.0,0
727,-47.0,-104.0,-230.0,0
728,-44.0,-103.0,-231.0,0
729,-44.0,-106.0,-232.0,0
730,-46.0,-102.0,-228.0,0
731,-49.0,-101.0,-232.0,0
732,-43.0,-102.0,-231.0,0
733,-44.0,-100.0,-226.0,0
734,-43.0,-103.0,-226.0,0
735,-44.0,-102.0,-227.0,0
736,-43.0,-100.0,-228.0,0
737,-45.0,-96.0,-218.0,0
738,-42.0,-101.0,-221.0,0
739,-43.0,-100.0,-223.0,0
740,-42.0,-101.0,-220.0,0
741,-47.0,-101.0,-221.0,0
742,-42.0,-99.0,-219.0,0
743,-43.0,-98.0,-217.0,0
744,-43.0,-101.0,-222.0,0
745,-36.0,-101.0,-220.0,0
746,-42.0,-100.0,-221.0,0
747,-40.0,-103.0,-221.0,0
748,-45.0,-100.0,-225.0,0
749,-48.0,-101.0,-222.0,0
750,-40.0,-100.0,-224.0,0
751,-42.0,-103.0,-221.0,0
752,-43.0,-101.0,-223.0,0
753,-43.0,-101.0,-218.0,0
754,-45.0,-102.0,-216.0,0
755,-47.0,-99.0,-221.0,0
756,-41.0,-102.0,-214.0,0
757,-40.0,-103.0,-220.0,0
758,-42.0,-104.0,-219.0,0
759,-39.0,-102.0,-218.0,0
760,-36.0,-106.0,-220.0,0
761,-40.0,-102.0,-217.0,0
762,-40.0,-105.0,-222.0,0
763,-38.0,-106.0,-221.0,0
764,-41.0,-100.0,-219.0,0
765,-39.0,-102.0,-219.0,0
766,-43.0,-102.0,-219.0,0
767,-39.0,-102.0,-218.0,0
768,-38.0,-99.0,-220.0,0
769,-39.0,-104.0,-221.0,0
770,-39.0,-100.0,-222.0,0
771,-38.0,-105.0,-220.0,0
772,-35.0,-104.0,-221.0,0
773,-42.0,-105.0,-223.0,0
774,-39.0,-105.0,-224.0,0
775,-38.0,-105.0,-223.0,0
776,-39.0,-100.0,-222.0,0
777,-39.0,-106.0,-223.0,0
778,-37.0,-104.0,-220.0,0
779,-40.0,-102.0,-222.0,0
780,-41.0,-102.0,-221.0,0
781,-39.0,-105.0,-223.0,0
782,-40.0,-102.0,-225.0,0
783,-39.0,-101.0,-221.0,0
784,-39.0,-101.0,-224.0,0
785,-36.0,-105.0,-224.0,0
786,-36.0,-102.0,-216.0,0
787,-43.0,-99.0,-223.0,0
788,-46.0,-101.0,-222.0,0
789,-39.0,-100.0,-223.0,0
790,-37.0,-104.0,-218.0,0
791,-38.0,-101.0,-225.0,0
792,-37.0,-103.0,-219.0,0
793,-40.0,-104.0,-224.0,0
794,-36.0,-105.0,-220.0,0
795,-39.0,-105.0,-225.0,0
796,-38.0,-107.0,-225.0,0
797,-40.0,-105.0,-226.0,0
798,-44.0,-101.0,-225.0,0
799,-34.0,-100.0,-229.0,0
800,-39.0,-99.0,-225.0,0
801,-38.0,-102.0,-223.0,0
802,-39.0,-101.0,-227.0,0
803,-38.0,-98.0,-223.0,0
804,-39.0,-103.0,-222.0,0
805,-39.0,-100.0,-223.0,0
806,-39.0,-100.0,-223.0,0
807,-41.0,-101.0,-223.0,0
808,-37.0,-103.0,-220.0,0
809,-37.0,-102.0,-219.0,0
810,-43.0,-107.0,-225.0,0
811,-38.0,-103.0,-222.0,0
812,-39.0,-102.0,-221.0,0
813,-40.0,-100.0,-221.0,0
814,-36.0,-103.0,-221.0,0
815,-41.0,-98.0,-222.0,0
816,-38.0,-101.0,-225.0,0
817,-41.0,-98.0,-221.0,0
818,-37.0,-101.0,-218.0,0
819,-38.0,-99.0,-227.0,0
820,-36.0,-101.0,-221.0,0
821,-39.0,-101.0,-227.0,0
822,-37.0,-101.0,-222.0,0
823,-37.0,-100.0,-223.0,0
824,-36.0,-102.0,-216.0,0
825,-38.0,-98.0,-219.0,0
826,-39.0,-101.0,-222.0,0
827,-37.0,-99.0,-222.0,0
828,-37.0,-103.0,-218.0,0
829,-37.0,-100.0,-221.0,0
830,-34.0,-105.0,-221.0,0
831,-35.0,-99.0,-223.0,0
832,-42.0,-105.0,-220.0,0
833,-39.0,-101.0,-221.0,0
834,-41.0,-101.0,-222.0,0
835,-39.0,-101.0,-220.0,0
836,-38.0,-102.0,-219.0,0
837,-43.0,-101.0,-218.0,0
838,-42.0,-102.0,-220.0,0
839,-44.0,-99.0,-220.0,0
840,-39.0,-102.0,-219.0,0
841,-41.0,-100.0,-220.0,0
842,-38.0,-102.0,-223.0,0
843,-39.0,-99.0,-222.0,0
844,-38.0,-102.0,-221.0,0
845,-37.0,-103.0,-220.0,0
846,-37.0,-102.0,-221.0,0
847,-37.0,-101.0,-220.0,0
848,-40.0,-99.0,-218.0,0
849,-34.0,-103.0,-221.0,0
850,-39.0,-104.0,-222.0,0
851,-38.0,-99.0,-222.0,0
852,-39.0,-101.0,-223.0,0
853,-39.0,-102.0,-223.0,0
854,-40.0,-102.0,-225.0,0
855,-40.0,-99.0,-224.0,0
856,-37.0,-101.0,-223.0,0
857,-37.0,-101.0,-224.0,0
858,-37.0,-103.0,-226.0,0
859,-38.0,-104.0,-220.0,0
860,-38.0,-102.0,-225.0,0
861,-37.0,-104.0,-223.0,0
862,-36.0,-101.0,-223.0,0
863,-37.0,-96.0,-229.0,0
864,-37.0,-101.0,-225.0,0
865,-40.0,-101.0,-219.0,0
866,-38.0,-99.0,-223.0,0
867,-37.0,-102.0,-224.0,0
868,-37.0,-103.0,-221.0,0
869,-37.0,-101.0,-225.0,0
870,-39.0,-99.0,-224.0,0
871,-39.0,-98.0,-225.0,0
872,-40.0,-100.0,-223.0,0
873,-41.0,-99.0,-228.0,0
874,-39.0,-103.0,-225.0,0
875,-34.0,-100.0,-217.0,0
876,-36.0,-101.0,-228.0,0
877,-40.0,-98.0,-225.0,0
878,-36.0,-103.0,-226.0,0
879,-37.0,-99.0,-225.0,0
880,-37.0,-102.0,-220.0,0
881,-36.0,-104.0,-221.0,0
882,-40.0,-100.0,-224.0,0
883,-40.0,-101.0,-220.0,0
884,-39.0,-101.0,-223.0,0
885,-39.0,-97.0,-225.0,0
886,-31.0,-94.0,-231.0,0
887,-38.0,-102.0,-220.0,0
888,-40.0,-100.0,-219.0,0
889,-39.0,-99.0,-222.0,0
890,-41.0,-98.0,-223.0,0
891,-35.0,-99.0,-225.0,0
892,-41.0,-99.0,-218.0,0
893,-36.0,-101.0,-225.0,0
894,-39.0,-103.0,-225.0,0
895,-37.0,-103.0,-222.0,0
896,-38.0,-104.0,-216.0,0
897,-37.0,-99.0,-225.0,0
898,-42.0,-99.0,-223.0,0
899,-39.0,-99.0,-222.0,0
900,-37.0,-101.0,-223.0,0
901,-36.0,-103.0,-222.0,0
902,-40.0,-102.0,-220.0,0
903,-38.0,-98.0,-225.0,0
904,-37.0,-98.0,-220.0,0
905,-38.0,-100.0,-222.0,0
906,-37.0,-100.0,-224.0,0
907,-39.0,-101.0,-222.0,0
908,-38.0,-104.0,-218.0,0
909,-39.0,-102.0,-219.0,0
910,-37.0,-103.0,-224.0,0
911,-36.0,-102.0,-222.0,0
912,-37.0,-103.0,-222.0,0
913,-37.0,-104.0,-224.0,0
914,-38.0,-101.0,-229.0,0
915,-34.0,-106.0,-222.0,0
916,-38.0,-101.0,-225.0,0
917,-38.0,-103.0,-223.0,0
918,-36.0,-101.0,-222.0,0
919,-41.0,-101.0,-226.0,0
920,-39.0,-100.0,-223.0,0
921,-40.0,-101.0,-226.0,0
922,-37.0,-100.0,-222.0,0
923,-41.0,-99.0,-224.0,0
924,-36.0,-102.0,-221.0,0
925,-39.0,-100.0,-223.0,0
926,-39.0,-97.0,-221.0,0
927,-40.0,-96.0,-221.0,0
928,-39.0,-96.0,-218.0,0
929,-37.0,-97.0,-224.0,0
930,-41.0,-96.0,-227.0,0
931,-37.0,-98.0,-221.0,0
932,-37.0,-95.0,-223.0,0
933,-38.0,-100.0,-222.0,0
934,-36.0,-100.0,-222.0,0
935,-38.0,-101.0,-224.0,0
936,-40.0,-98.0,-222.0,0
937,-38.0,-96.0,-219.0,0
938,-39.0,-99.0,-218.0,0
939,-38.0,-99.0,-224.0,0
940,-37.0,-100.0,-216.0,0
941,-39.0,-103.0,-226.0,0
942,-39.0,-102.0,-223.0,0
943,-39.0,-97.0,-224.0,0
944,-39.0,-97.0,-224.0,0
945,-40.0,-102.0,-224.0,0
946,-38.0,-99.0,-223.0,0
947,-37.0,-99.0,-225.0,0
948,-39.0,-97.0,-220.0,0
949,-38.0,-101.0,-220.0,0
950,-39.0,-98.0,-223.0,0
951,-36.0,-98.0,-227.0,0
952,-41.0,-102.0,-221.0,0
953,-38.0,-99.0,-225.0,0
954,-39.0,-100.0,-225.0,0
955,-38.0,-100.0,-224.0,0
956,-36.0,-99.0,-226.0,0
957,-39.0,-99.0,-223.0,0
958,-39.0,-99.0,-229.0,0
959,-40.0,-99.0,-228.0,0
960,-37.0,-97.0,-227.0,0
961,-37.0,-100.0,-220.0,0
962,-42.0,-98.0,-225.0,0
963,-36.0,-99.0,-223.0,0
964,-38.0,-98.0,-220.0,0
965,-36.0,-104.0,-221.0,0
966,-40.0,-98.0,-224.0,0
967,-37.0,-103.0,-220.0,0
968,-39.0,-104.0,-222.0,0
969,-37.0,-100.0,-227.0,0
970,-39.0,-98.0,-221.0,0
971,-41.0,-100.0,-225.0,0
972,-38.0,-105.0,-224.0,0
973,-43.0,-96.0,-225.0,0
974,-36.0,-98.0,-228.0,0
975,-38.0,-101.0,-221.0,0
976,-42.0,-99.0,-222.0,0
977,-39.0,-98.0,-222.0,0
978,-39.0,-100.0,-222.0,0
979,-37.0,-102.0,-223.0,0
980,-37.0,-103.0,-224.0,0
981,-40.0,-99.0,-226.0,0
982,-37.0,-100.0,-222.0,0
983,-37.0,-103.0,-223.0,0
984,-31.0,-104.0,-216.0,0
985,-40.0,-101.0,-218.0,0
986,-38.0,-100.0,-222.0,0
987,-35.0,-101.0,-220.0,0
988,-39.0,-101.0,-223.0,0
989,-37.0,-101.0,-223.0,0
990,-37.0,-100.0,-224.0,0
991,-36.0,-100.0,-223.0,0
992,-40.0,-100.0,-227.0,0
993,-38.0,-101.0,-223.0,0
994,-37.0,-99.0,-219.0,0
995,-40.0,-99.0,-228.0,0
996,-40.0,-100.0,-225.0,0
997,-37.0,-101.0,-222.0,0
998,-39.0,-102.0,-222.0,0
999,-38.0,-99.0,-220.0,0
1000,-37.0,-99.0,-222.0,0
1001,-39.0,-100.0,-221.0,0
1002,-37.0,-101.0,-223.0,0
1003,-38.0,-98.0,-223.0,0
1004,-39.0,-103.0,-224.0,0
1005,-36.0,-100.0,-221.0,0
1006,-29.0,-99.0,-230.0,0
1007,-38.0,-99.0,-220.0,0
1008,-40.0,-98.0,-225.0,0
1009,-38.0,-102.0,-220.0,0
1010,-37.0,-101.0,-221.0,0
1011,-35.0,-101.0,-222.0,0
1012,-37.0,-100.0,-221.0,0
1013,-37.0,-102.0,-222.0,0
1014,-38.0,-102.0,-219.0,0
1015,-41.0,-97.0,-225.0,0
1016,-39.0,-101.0,-220.0,0
1017,-39.0,-99.0,-221.0,0
1018,-37.0,-100.0,-222.0,0
1019,-36.0,-102.0,-222.0,0
1020,-40.0,-100.0,-224.0,0
1021,-40.0,-103.0,-220.0,0
1022,-36.0,-103.0,-223.0,0
1023,-36.0,-103.0,-226.0,0
1024,-37.0,-99.0,-219.0,0
1025,-34.0,-105.0,-222.0,0
1026,-40.0,-99.0,-225.0,0
1027,-35.0,-102.0,-225.0,0
1028,-40.0,-98.0,-222.0,0
1029,-39.0,-100.0,-224.0,0
1030,-39.0,-102.0,-224.0,0
1031,-38.0,-102.0,-221.0,0
1032,-38.0,-106.0,-227.0,0
1033,-37.0,-103.0,-224.0,0
1034,-39.0,-105.0,-224.0,0
1035,-39.0,-100.0,-227.0,0
1036,-35.0,-106.0,-223.0,0
1037,-38.0,-102.0,-227.0,0
1038,-38.0,-106.0,-225.0,0
1039,-38.0,-92.0,-231.0,0
1040,-40.0,-99.0,-224.0,0
1041,-39.0,-98.0,-222.0,0
1042,-37.0,-99.0,-224.0,0
1043,-37.0,-98.0,-223.0,0
1044,-39.0,-99.0,-222.0,0
1045,-37.0,-102.0,-221.0,0
1046,-36.0,-98.0,-220.0,0
1047,-35.0,-102.0,-219.0,0
1048,-37.0,-103.0,-221.0,0
1049,-38.0,-99.0,-220.0,0
1050,-38.0,-100.0,-221.0,0
1051,-40.0,-102.0,-222.0,0
1052,-39.0,-103.0,-221.0,0
1053,-38.0,-101.0,-220.0,0
1054,-38.0,-102.0,-221.0,0
1055,-38.0,-102.0,-221.0,0
1056,-39.0,-101.0,-228.0,0
1057,-38.0,-103.0,-216.0,0
1058,-37.0,-101.0,-225.0,0
1059,-40.0,-101.0,-223.0,0
1060,-38.0,-97.0,-224.0,0
1061,-36.0,-103.0,-217.0,0
1062,-18.0,-109.0,-223.0,0
1063,-37.0,-101.0,-222.0,0
1064,-38.0,-101.0,-219.0,0
1065,-36.0,-101.0,-225.0,0
1066,-38.0,-102.0,-225.0,0
1067,-39.0,-100.0,-223.0,0
1068,-37.0,-101.0,-223.0,0
1069,-38.0,-102.0,-223.0,0
1070,-35.0,-99.0,-225.0,0
1071,-32.0,-95.0,-218.0,0
1072,-36.0,-102.0,-223.0,0
1073,-39.0,-100.0,-222.0,0
1074,-37.0,-101.0,-223.0,0
1075,-38.0,-99.0,-223.0,0
1076,-39.0,-96.0,-221.0,0
1077,-36.0,-100.0,-224.0,0
1078,-37.0,-99.0,-221.0,0
1079,-37.0,-102.0,-217.0,0
1080,-34.0,-99.0,-220.0,0
1081,-39.0,-102.0,-224.0,0
1082,-38.0,-104.0,-216.0,0
1083,-38.0,-101.0,-223.0,0
1084,-40.0,-101.0,-224.0,0
1085,-38.0,-103.0,-222.0,0
1086,-39.0,-104.0,-224.0,0
1087,-38.0,-101.0,-224.0,0
1088,-36.0,-105.0,-222.0,0
1089,-37.0,-101.0,-224.0,0
1090,-35.0,-102.0,-226.0,0
1091,-39.0,-101.0,-223.0,0
1092,-38.0,-102.0,-223.0,0
1093,-38.0,-103.0,-223.0,0
1094,-35.0,-99.0,-224.0,0
1095,-38.0,-99.0,-222.0,0
1096,-35.0,-101.0,-225.0,0
1097,-39.0,-99.0,-222.0,0
1098,-35.0,-102.0,-221.0,0
1099,-35.0,-101.0,-219.0,0
1100,-39.0,-104.0,-221.0,0
1101,-37.0,-101.0,-225.0,0
1102,-38.0,-104.0,-223.0,0
1103,-40.0,-101.0,-223.0,0
1104,-37.0,-106.0,-227.0,0
1105,-36.0,-103.0,-223.0,0
1106,-36.0,-100.0,-225.0,0
1107,-39.0,-101.0,-226.0,0
1108,-36.0,-102.0,-225.0,0
1109,-39.0,-101.0,-222.0,0
1110,-37.0,-104.0,-223.0,0
1111,-38.0,-105.0,-228.0,0
1112,-39.0,-106.0,-226.0,0
1113,-39.0,-101.0,-223.0,0
1114,-39.0,-102.0,-225.0,0
1115,-35.0,-103.0,-221.0,0
1116,-41.0,-101.0,-224.0,0
1117,-36.0,-103.0,-223.0,0
1118,-38.0,-102.0,-225.0,0
1119,-41.0,-103.0,-227.0,0
1120,-40.0,-100.0,-223.0,0
1121,-44.0,-100.0,-225.0,0
1122,-35.0,-101.0,-227.0,0
1123,-39.0,-102.0,-228.0,0
1124,-43.0,-101.0,-226.0,0
1125,-45.0,-99.0,-228.0,0
1126,-38.0,-101.0,-218.0,0
1127,-44.0,-99.0,-226.0,0
1128,-44.0,-99.0,-224.0,0
1129,-48.0,-95.0,-230.0,0
1130,-54.0,-97.0,-231.0,0
1131,-50.0,-95.0,-235.0,0
1132,-48.0,-99.0,-241.0,0
1133,-53.0,-98.0,-244.0,0
1134,-54.0,-98.0,-254.0,0
1135,-49.0,-96.0,-255.0,0
1136,-47.0,-93.0,-258.0,0
1137,-40.0,-102.0,-262.0,0
1138,-44.0,-94.0,-262.0,0
1139,-45.0,-97.0,-260.0,0
1140,-49.0,-93.0,-267.0,0
1141,-51.0,-91.0,-259.0,0
1142,-59.0,-89.0,-264.0,0
1143,-65.0,-84.0,-268.0,0
1144,-68.0,-82.0,-276.0,0
1145,-69.0,-81.0,-274.0,0
1146,-72.0,-78.0,-277.0,0
1147,-76.0,-82.0,-294.0,0
1148,-65.0,-82.0,-280.0,0
1149,-64.0,-81.0,-278.0,0
1150,-62.0,-82.0,-277.0,0
1151,-59.0,-80.0,-281.0,0
1152,-56.0,-81.0,-281.0,0
1153,-54.0,-88.0,-289.0,0
1154,-56.0,-90.0,-297.0,0
1155,-57.0,-89.0,-297.0,0
1156,-60.0,-89.0,-302.0,0
1157,-62.0,-88.0,-303.0,0
1158,-65.0,-89.0,-303.0,0
1159,-57.0,-91.0,-295.0,0
1160,-58.0,-87.0,-298.0,0
1161,-60.0,-87.0,-301.0,0
1162,-55.0,-84.0,-300.0,0
1163,-58.0,-81.0,-299.0,0
1164,-56.0,-85.0,-298.0,0
1165,-58.0,-81.0,-303.0,0
1166,-61.0,-82.0,-293.0,0
1167,-59.0,-84.0,-290.0,0
1168,-59.0,-84.0,-282.0,0
1169,-53.0,-90.0,-276.0,0
1170,-51.0,-87.0,-274.0,0
1171,-51.0,-84.0,-268.0,0
1172,-51.0,-83.0,-268.0,0
1173,-53.0,-81.0,-268.0,0
1174,-54.0,-78.0,-259.0,0
1175,-52.0,-77.0,-258.0,0
1176,-45.0,-79.0,-256.0,0
1177,-40.0,-80.0,-255.0,0
1178,-37.0,-80.0,-255.0,0
1179,-36.0,-85.0,-249.0,0
1180,-31.0,-87.0,-246.0,0
1181,-30.0,-87.0,-249.0,0
1182,-26.0,-86.0,-242.0,0
1183,-22.0,-83.0,-245.0,0
1184,-21.0,-80.0,-241.0,0
1185,-22.0,-80.0,-240.0,0
1186,-22.0,-76.0,-237.0,0
1187,-19.0,-81.0,-235.0,0
1188,-19.0,-78.0,-228.0,0
1189,-20.0,-74.0,-232.0,0
1190,-17.0,-83.0,-232.0,0
1191,-18.0,-72.0,-231.0,0
1192,-18.0,-73.0,-228.0,0
1193,-21.0,-73.0,-228.0,0
1194,-14.0,-71.0,-232.0,0
1195,-16.0,-69.0,-226.0,0
1196,-16.0,-69.0,-226.0,0
1197,-17.0,-68.0,-233.0,0
1198,-11.0,-67.0,-229.0,0
1199,-13.0,-67.0,-225.0,0
1200,-11.0,-67.0,-231.0,0
1201,-11.0,-63.0,-226.0,0
1202,-12.0,-60.0,-230.0,0
1203,-14.0,-59.0,-229.0,0
1204,-13.0,-59.0,-232.0,0
1205,-10.0,-56.0,-231.0,0
1206,-5.0,-61.0,-233.0,0
1207,-8.0,-56.0,-228.0,0
1208,-5.0,-56.0,-223.0,0
1209,-8.0,-58.0,-229.0,0
1210,-5.0,-58.0,-229.0,0
1211,-9.0,-58.0,-230.0,0
1212,-10.0,-53.0,-231.0,0
1213,-7.0,-60.0,-227.0,0
1214,-6.0,-58.0,-227.0,0
1215,0.0,-55.0,-230.0,0
1216,0.0,-58.0,-232.0,0
1217,0.0,-57.0,-235.0,0
1218,-2.0,-61.0,-237.0,0
1219,-2.0,-62.0,-241.0,0
1220,0.0,-62.0,-242.0,0
1221,-2.0,-59.0,-244.0,0
1222,0.0,-57.0,-248.0,0
1223,-6.0,-57.0,-250.0,0
1224,0.0,-56.0,-255.0,0
1225,-2.0,-55.0,-256.0,0
1226,0.0,-52.0,-256.0,0
1227,-2.0,-53.0,-258.0,0
1228,0.0,-52.0,-258.0,0
1229,5.0,-53.0,-261.0,0
1230,5.0,-56.0,-259.0,0
1231,1.0,-57.0,-262.0,0
1232,2.0,-36.0,-264.0,0
1233,6.0,-58.0,-263.0,0
1234,3.0,-58.0,-258.0,0
1235,6.0,-58.0,-259.0,0
1236,11.0,-29.0,-274.0,0
1237,1.0,-58.0,-257.0,0
1238,3.0,-57.0,-260.0,0
1239,2.0,-54.0,-258.0,0
1240,4.0,-37.0,-261.0,0
1241,-1.0,-55.0,-253.0,0
1242,4.0,-52.0,-255.0,0
1243,3.0,-51.0,-260.0,0
1244,4.0,-41.0,-265.0,0
1245,3.0,-50.0,-254.0,0
1246,1.0,-48.0,-257.0,0
1247,3.0,-48.0,-258.0,0
1248,2.0,-49.0,-260.0,0
1249,7.0,-49.0,-258.0,0
1250,1.0,-50.0,-261.0,0
1251,3.0,-53.0,-263.0,0
1252,2.0,-57.0,-262.0,0
1253,1.0,-42.0,-270.0,0
1254,0.0,-53.0,-266.0,0
1255,-3.0,-60.0,-266.0,0
1256,5.0,-54.0,-263.0,0
1257,1.0,-50.0,-262.0,0
1258,5.0,-56.0,-260.0,0
1259,4.0,-54.0,-260.0,0
1260,3.0,-56.0,-259.0,0
1261,1.0,-50.0,-259.0,0
1262,8.0,-57.0,-256.0,0
1263,2.0,-57.0,-255.0,0
1264,4.0,-59.0,-255.0,0
1265,7.0,-60.0,-252.0,0
1266,4.0,-63.0,-252.0,0
1267,8.0,-61.0,-247.0,0
1268,5.0,-62.0,-250.0,0
1269,8.0,-60.0,-247.0,0
1270,4.0,-61.0,-244.0,0
1271,3.0,-61.0,-244.0,0
1272,8.0,-63.0,-245.0,0
1273,3.0,-64.0,-240.0,0
1274,5.0,-61.0,-241.0,0
1275,2.0,-64.0,-242.0,0
1276,1.0,-60.0,-243.0,0
1277,1.0,-63.0,-242.0,0
1278,0.0,-63.0,-246.0,0
1279,1.0,-62.0,-245.0,0
1280,0.0,-63.0,-234.0,0
1281,2.0,-63.0,-235.0,0
1282,4.0,-62.0,-238.0,0
1283,4.0,-69.0,-230.0,0
1284,3.0,-67.0,-231.0,0
1285,2.0,-67.0,-224.0,0
1286,4.0,-72.0,-227.0,0
1287,2.0,-74.0,-226.0,0
1288,5.0,-67.0,-231.0,0
1289,-1.0,-73.0,-228.0,0
1290,1.0,-75.0,-225.0,0
1291,0.0,-74.0,-224.0,0
1292,2.0,-74.0,-227.0,0
1293,2.0,-74.0,-219.0,0
1294,2.0,-73.0,-217.0,0
1295,6.0,-77.0,-216.0,0
1296,5.0,-77.0,-217.0,0
1297,5.0,-78.0,-218.0,0
1298,9.0,-75.0,-218.0,0
1299,10.0,-67.0,-210.0,0
1300,14.0,-76.0,-206.0,0
1301,4.0,-72.0,-204.0,0
1302,13.0,-79.0,-218.0,0
1303,5.0,-80.0,-210.0,0
1304,4.0,-70.0,-207.0,0
1305,8.0,-82.0,-202.0,0
1306,1.0,-71.0,-210.0,0
1307,10.0,-77.0,-210.0,0
1308,2.0,-79.0,-212.0,0
1309,4.0,-79.0,-208.0,0
1310,5.0,-78.0,-207.0,0
1311,3.0,-82.0,-215.0,0
1312,-7.0,-77.0,-204.0,0
1313,4.0,-75.0,-211.0,0
1314,4.0,-80.0,-199.0,0
1315,7.0,-78.0,-206.0,0
1316,7.0,-82.0,-205.0,0
1317,9.0,-81.0,-213.0,0
1318,8.0,-86.0,-209.0,0
1319,14.0,-92.0,-197.0,0
1320,18.0,-89.0,-212.0,0
1321,16.0,-89.0,-214.0,0
1322,13.0,-95.0,-209.0,0
1323,10.0,-91.0,-206.0,0
1324,9.0,-88.0,-215.0,0
1325,24.0,-88.0,-210.0,0
1326,15.0,-82.0,-211.0,0
1327,16.0,-92.0,-205.0,0
1328,17.0,-92.0,-205.0,0
1329,15.0,-92.0,-207.0,0
1330,13.0,-93.0,-213.0,0
1331,13.0,-94.0,-203.0,0
1332,13.0,-94.0,-201.0,0
1333,14.0,-95.0,-212.0,0
1334,17.0,-95.0,-207.0,0
1335,16.0,-99.0,-212.0,0
1336,20.0,-103.0,-209.0,0
1337,25.0,-111.0,-206.0,0
1338,22.0,-106.0,-207.0,0
1339,22.0,-103.0,-201.0,0
1340,25.0,-111.0,-207.0,0
1341,28.0,-105.0,-205.0,0
1342,22.0,-103.0,-204.0,0
1343,28.0,-105.0,-204.0,0
1344,25.0,-106.0,-203.0,0
1345,25.0,-105.0,-201.0,0
1346,18.0,-98.0,-208.0,0
1347,22.0,-104.0,-205.0,0
1348,25.0,-109.0,-198.0,0
1349,27.0,-109.0,-193.0,0
1350,27.0,-111.0,-200.0,0
1351,28.0,-114.0,-198.0,0
1352,25.0,-119.0,-202.0,0
1353,26.0,-119.0,-192.0,0
1354,26.0,-122.0,-196.0,0
1355,30.0,-121.0,-196.0,0
1356,27.0,-125.0,-190.0,0
1357,28.0,-127.0,-188.0,0
1358,30.0,-128.0,-191.0,0
1359,28.0,-130.0,-185.0,0
1360,32.0,-129.0,-193.0,0
1361,29.0,-128.0,-195.0,0
1362,29.0,-127.0,-195.0,0
1363,29.0,-121.0,-195.0,0
1364,26.0,-128.0,-196.0,0
1365,25.0,-127.0,-193.0,0
1366,28.0,-130.0,-193.0,0
1367,28.0,-128.0,-195.0,0
1368,33.0,-134.0,-190.0,0
1369,29.0,-137.0,-190.0,0
1370,29.0,-138.0,-188.0,0
1371,28.0,-137.0,-191.0,0
1372,29.0,-141.0,-190.0,0
1373,32.0,-142.0,-190.0,0
1374,29.0,-140.0,-189.0,0
1375,27.0,-137.0,-187.0,0
1376,28.0,-137.0,-189.0,0
1377,24.0,-139.0,-193.0,0
1378,28.0,-138.0,-186.0,0
1379,28.0,-140.0,-186.0,0
1380,27.0,-140.0,-182.0,0
1381,28.0,-140.0,-180.0,0
1382,24.0,-145.0,-187.0,0
1383,25.0,-145.0,-186.0,0
1384,22.0,-153.0,-179.0,0
1385,18.0,-150.0,-190.0,0
1386,23.0,-149.0,-181.0,0
1387,21.0,-151.0,-182.0,0
1388,19.0,-151.0,-183.0,0
1389,17.0,-151.0,-184.0,0
1390,17.0,-149.0,-184.0,0
1391,17.0,-153.0,-183.0,0
1392,14.0,-154.0,-185.0,0
1393,13.0,-155.0,-188.0,0
1394,8.0,-153.0,-184.0,0
1395,8.0,-155.0,-180.0,0
1396,8.0,-153.0,-183.0,0
1397,7.0,-153.0,-183.0,0
1398,8.0,-156.0,-183.0,0
1399,3.0,-159.0,-177.0,0
1400,1.0,-161.0,-177.0,0
1401,-2.0,-160.0,-176.0,0
1402,-2.0,-162.0,-174.0,0
1403,-6.0,-163.0,-169.0,0
1404,-6.0,-165.0,-172.0,0
1405,-7.0,-168.0,-168.0,0
1406,-8.0,-169.0,-165.0,0
1407,-18.0,-169.0,-170.0,0
1408,-27.0,-165.0,-172.0,0
1409,-16.0,-159.0,-167.0,0
1410,-23.0,-157.0,-169.0,0
1411,-27.0,-159.0,-164.0,0
1412,-28.0,-163.0,-167.0,0
1413,-30.0,-163.0,-159.0,0
1414,-33.0,-171.0,-155.0,0
1415,-31.0,-173.0,-157.0,0
1416,-33.0,-175.0,-150.0,0
1417,-36.0,-178.0,-149.0,0
1418,-32.0,-186.0,-152.0,0
1419,-34.0,-180.0,-157.0,0
1420,-28.0,-188.0,-154.0,0
1421,-25.0,-186.0,-155.0,0
1422,-25.0,-190.0,-155.0,0
1423,-22.0,-191.0,-149.0,0
1424,-21.0,-195.0,-147.0,0
1425,-18.0,-197.0,-147.0,0
1426,-16.0,-200.0,-148.0,0
1427,-17.0,-197.0,-152.0,0
1428,-13.0,-201.0,-148.0,0
1429,-10.0,-203.0,-152.0,0
1430,-6.0,-203.0,-139.0,0
1431,-1.0,-205.0,-143.0,0
1432,0.0,-205.0,-153.0,0
1433,1.0,-209.0,-143.0,0
1434,0.0,-209.0,-143.0,0
1435,1.0,-211.0,-142.0,0
1436,2.0,-211.0,-137.0,0
1437,-1.0,-206.0,-141.0,0
1438,0.0,-207.0,-143.0,0
1439,2.0,-203.0,-138.0,0
1440,-4.0,-201.0,-145.0,0
1441,2.0,-199.0,-141.0,0
1442,0.0,-201.0,-137.0,0
1443,1.0,-199.0,-135.0,0
1444,0.0,-198.0,-132.0,0
1445,-3.0,-198.0,-126.0,0
1446,-4.0,-199.0,-129.0,0
1447,-4.0,-196.0,-126.0,0
1448,-5.0,-199.0,-123.0,0
1449,-8.0,-201.0,-125.0,0
1450,-10.0,-202.0,-129.0,0
1451,-12.0,-206.0,-129.0,0
1452,-14.0,-204.0,-122.0,0
1453,-13.0,-205.0,-123.0,0
1454,-12.0,-210.0,-120.0,0
1455,-14.0,-211.0,-118.0,0
1456,-19.0,-214.0,-117.0,0
1457,-16.0,-212.0,-113.0,0
1458,-17.0,-213.0,-117.0,0
1459,-23.0,-212.0,-114.0,0
1460,-18.0,-213.0,-113.0,0
1461,-18.0,-212.0,-118.0,0
1462,-19.0,-217.0,-115.0,0
1463,-19.0,-217.0,-113.0,0
1464,-17.0,-220.0,-116.0,0
1465,-14.0,-216.0,-119.0,0
1466,-10.0,-220.0,-114.0,0
1467,-6.0,-217.0,-120.0,0
1468,-9.0,-216.0,-119.0,0
1469,-4.0,-219.0,-125.0,0
1470,-3.0,-213.0,-122.0,0
1471,-1.0,-206.0,-117.0,0
1472,-2.0,-206.0,-120.0,0
1473,1.0,-206.0,-121.0,0
1474,2.0,-207.0,-119.0,0
1475,2.0,-208.0,-118.0,0
1476,-2.0,-202.0,-121.0,0
1477,-5.0,-202.0,-122.0,0
1478,-4.0,-203.0,-119.0,0
1479,-7.0,-202.0,-124.0,0
1480,-8.0,-204.0,-122.0,0
1481,-9.0,-208.0,-125.0,0
1482,-5.0,-205.0,-134.0,0
1483,-9.0,-212.0,-130.0,0
1484,-2.0,-215.0,-130.0,0
1485,-1.0,-216.0,-135.0,0
1486,0.0,-215.0,-144.0,0
1487,0.0,-213.0,-146.0,0
1488,0.0,-212.0,-149.0,0
1489,-4.0,-209.0,-151.0,0
1490,-10.0,-207.0,-152.0,0
1491,-12.0,-208.0,-157.0,0
1492,-15.0,-208.0,-144.0,0
1493,-18.0,-209.0,-146.0,0
1494,-23.0,-209.0,-144.0,0
1495,-28.0,-205.0,-137.0,0
1496,-28.0,-206.0,-137.0,0
1497,-32.0,-203.0,-139.0,0
1498,-31.0,-201.0,-131.0,0
1499,-34.0,-199.0,-129.0,0
1500,-29.0,-202.0,-127.0,0
1501,-24.0,-206.0,-121.0,0
1502,-20.0,-204.0,-119.0,0
1503,-18.0,-204.0,-115.0,0
1504,-13.0,-201.0,-119.0,0
1505,-10.0,-199.0,-122.0,0
1506,0.0,-204.0,-121.0,0
1507,1.0,-201.0,-116.0,0
1508,6.0,-202.0,-120.0,0
1509,11.0,-204.0,-124.0,0
1510,19.0,-203.0,-122.0,0
1511,18.0,-204.0,-125.0,0
1512,23.0,-208.0,-117.0,0
1513,25.0,-210.0,-122.0,0
1514,27.0,-215.0,-117.0,0
1515,23.0,-213.0,-119.0,0
1516,26.0,-215.0,-121.0,0
1517,19.0,-222.0,-117.0,0
1518,21.0,-225.0,-118.0,0
1519,19.0,-223.0,-118.0,0
1520,18.0,-224.0,-118.0,0
1521,15.0,-225.0,-113.0,0
1522,15.0,-224.0,-115.0,0
1523,12.0,-221.0,-112.0,0
1524,11.0,-221.0,-109.0,0
1525,11.0,-222.0,-113.0,0
1526,8.0,-219.0,-111.0,0
1527,2.0,-216.0,-110.0,0
1528,5.0,-213.0,-109.0,0
1529,6.0,-213.0,-104.0,0
1530,6.0,-217.0,-101.0,0
1531,2.0,-214.0,-105.0,0
1532,6.0,-212.0,-105.0,0
1533,2.0,-212.0,-105.0,0
1534,4.0,-213.0,-106.0,0
1535,2.0,-212.0,-105.0,0
1536,4.0,-213.0,-109.0,0
1537,4.0,-213.0,-111.0,0
1538,0.0,-216.0,-108.0,0
1539,1.0,-219.0,-109.0,0
1540,1.0,-220.0,-111.0,0
1541,2.0,-222.0,-110.0,0
1542,0.0,-223.0,-110.0,0
1543,-1.0,-222.0,-111.0,0
1544,-2.0,-224.0,-113.0,0
1545,-3.0,-226.0,-110.0,0
1546,-6.0,-225.0,-113.0,0
1547,-8.0,-223.0,-114.0,0
1548,-7.0,-222.0,-114.0,0
1549,-15.0,-220.0,-120.0,0
1550,-6.0,-225.0,-107.0,0
1551,-8.0,-224.0,-107.0,0
1552,-8.0,-223.0,-105.0,0
1553,-9.0,-223.0,-105.0,0
1554,-6.0,-225.0,-108.0,0
1555,-4.0,-223.0,-111.0,0
1556,-3.0,-222.0,-109.0,0
1557,0.0,-227.0,-110.0,0
1558,0.0,-222.0,-110.0,0
1559,-2.0,-220.0,-111.0,0
1560,0.0,-225.0,-109.0,0
1561,1.0,-223.0,-109.0,0
1562,3.0,-220.0,-109.0,0
1563,2.0,-221.0,-108.0,0
1564,4.0,-220.0,-107.0,0
1565,7.0,-220.0,-111.0,0
1566,5.0,-219.0,-111.0,0
1567,3.0,-220.0,-110.0,0
1568,5.0,-220.0,-111.0,0
1569,6.0,-223.0,-112.0,0
1570,10.0,-227.0,-112.0,0
1571,8.0,-226.0,-107.0,0
1572,8.0,-223.0,-108.0,0
1573,10.0,-223.0,-107.0,0
1574,11.0,-229.0,-104.0,0
1575,8.0,-228.0,-101.0,0
1576,12.0,-226.0,-104.0,0
1577,7.0,-229.0,-104.0,0
1578,11.0,-225.0,-104.0,0
1579,11.0,-223.0,-105.0,0
1580,9.0,-224.0,-108.0,0
1581,9.0,-225.0,-100.0,0
1582,8.0,-222.0,-102.0,0
1583,9.0,-224.0,-101.0,0
1584,10.0,-221.0,-100.0,0
1585,9.0,-224.0,-105.0,0
1586,11.0,-226.0,-99.0,0
1587,10.0,-227.0,-98.0,0
1588,13.0,-226.0,-98.0,0
1589,7.0,-227.0,-99.0,0
1590,9.0,-224.0,-96.0,0
1591,7.0,-222.0,-102.0,0
1592,5.0,-224.0,-103.0,0
1593,6.0,-222.0,-99.0,0
1594,11.0,-225.0,-98.0,0
1595,11.0,-226.0,-101.0,0
1596,8.0,-224.0,-101.0,0
1597,7.0,-222.0,-97.0,0
1598,5.0,-224.0,-103.0,0
1599,5.0,-226.0,-102.0,0
1600,5.0,-227.0,-104.0,0
1601,5.0,-225.0,-101.0,0
1602,3.0,-231.0,-101.0,0
1603,-2.0,-224.0,-99.0,0
1604,2.0,-230.0,-103.0,0
1605,1.0,-226.0,-104.0,0
1606,1.0,-226.0,-101.0,0
1607,0.0,-226.0,-99.0,0
1608,0.0,-225.0,-101.0,0
1609,1.0,-227.0,-103.0,0
1610,-3.0,-224.0,-106.0,0
1611,1.0,-227.0,-101.0,0
1612,-5.0,-225.0,-100.0,0
1613,2.0,-226.0,-96.0,0
1614,3.0,-226.0,-102.0,0
1615,2.0,-226.0,-97.0,0
1616,2.0,-228.0,-99.0,0
1617,4.0,-229.0,-98.0,0
1618,2.0,-224.0,-95.0,0
1619,2.0,-228.0,-97.0,0
1620,7.0,-230.0,-99.0,0
1621,5.0,-229.0,-97.0,0
1622,4.0,-227.0,-99.0,0
1623,1.0,-226.0,-98.0,0
1624,7.0,-227.0,-103.0,0
1625,9.0,-234.0,-98.0,0
1626,7.0,-227.0,-102.0,0
1627,5.0,-229.0,-101.0,0
1628,9.0,-227.0,-96.0,0
1629,8.0,-226.0,-102.0,0
1630,6.0,-225.0,-98.0,0
1631,9.0,-226.0,-99.0,0
1632,9.0,-227.0,-103.0,0
1633,9.0,-224.0,-96.0,0
1634,10.0,-227.0,-100.0,0
1635,6.0,-228.0,-102.0,0
1636,2.0,-219.0,-104.0,0
1637,4.0,-225.0,-102.0,0
1638,6.0,-224.0,-101.0,0
1639,5.0,-221.0,-100.0,0
1640,3.0,-221.0,-106.0,0
1641,7.0,-224.0,-104.0,0
1642,3.0,-222.0,-104.0,0
1643,3.0,-221.0,-103.0,0
1644,3.0,-223.0,-101.0,0
1645,5.0,-227.0,-102.0,0
1646,3.0,-226.0,-99.0,0
1647,1.0,-230.0,-102.0,0
1648,6.0,-227.0,-104.0,0
1649,5.0,-225.0,-103.0,0
1650,4.0,-227.0,-104.0,0
1651,6.0,-226.0,-102.0,0
1652,5.0,-225.0,-103.0,0
1653,3.0,-227.0,-102.0,0
1654,4.0,-229.0,-100.0,0
1655,4.0,-226.0,-101.0,0
1656,5.0,-225.0,-99.0,0
1657,7.0,-229.0,-99.0,0
1658,2.0,-229.0,-101.0,0
1659,4.0,-227.0,-102.0,0
1660,7.0,-227.0,-98.0,0
1661,7.0,-227.0,-99.0,0
1662,8.0,-230.0,-101.0,0
1663,6.0,-227.0,-100.0,0
1664,7.0,-225.0,-98.0,0
1665,5.0,-225.0,-103.0,0
1666,9.0,-227.0,-105.0,0
1667,6.0,-225.0,-98.0,0
1668,11.0,-231.0,-99.0,0
1669,7.0,-226.0,-100.0,0
1670,4.0,-225.0,-96.0,0
1671,9.0,-229.0,-97.0,0
1672,6.0,-225.0,-98.0,0
1673,6.0,-226.0,-94.0,0
1674,5.0,-226.0,-97.0,0
1675,7.0,-226.0,-96.0,0
1676,8.0,-227.0,-96.0,0
1677,4.0,-224.0,-103.0,0
1678,6.0,-228.0,-102.0,0
1679,5.0,-229.0,-103.0,0
1680,6.0,-227.0,-103.0,0
1681,5.0,-228.0,-102.0,0
1682,7.0,-228.0,-105.0,0
1683,4.0,-225.0,-103.0,0
1684,7.0,-225.0,-101.0,0
1685,6.0,-225.0,-101.0,0
1686,4.0,-222.0,-100.0,0
1687,5.0,-225.0,-101.0,0
1688,6.0,-227.0,-102.0,0
1689,8.0,-227.0,-105.0,0
1690,2.0,-224.0,-110.0,0
1691,5.0,-228.0,-104.0,0
1692,6.0,-227.0,-102.0,0
1693,3.0,-228.0,-99.0,0
1694,6.0,-227.0,-102.0,0
1695,8.0,-230.0,-99.0,0
1696,6.0,-227.0,-101.0,0
1697,4.0,-228.0,-99.0,0
1698,6.0,-227.0,-104.0,0
1699,4.0,-227.0,-108.0,0
1700,8.0,-225.0,-102.0,0
1701,5.0,-221.0,-99.0,0
1702,5.0,-227.0,-102.0,0
1703,8.0,-224.0,-98.0,0
1704,2.0,-229.0,-103.0,0
1705,7.0,-230.0,-104.0,0
1706,6.0,-230.0,-99.0,0
1707,5.0,-228.0,-98.0,0
1708,5.0,-227.0,-102.0,0
1709,3.0,-228.0,-103.0,0
1710,7.0,-228.0,-100.0,0
1711,5.0,-232.0,-101.0,0
1712,7.0,-230.0,-100.0,0
1713,8.0,-228.0,-103.0,0
1714,5.0,-228.0,-102.0,0
1715,4.0,-224.0,-103.0,0
1716,3.0,-227.0,-103.0,0
1717,6.0,-221.0,-103.0,0
1718,3.0,-226.0,-105.0,0
1719,5.0,-224.0,-103.0,0
1720,5.0,-229.0,-105.0,0
1721,5.0,-229.0,-103.0,0
1722,5.0,-227.0,-101.0,0
1723,4.0,-224.0,-103.0,0
1724,6.0,-230.0,-100.0,0
1725,5.0,-230.0,-100.0,0
1726,4.0,-231.0,-101.0,0
1727,6.0,-229.0,-101.0,0
1728,3.0,-228.0,-104.0,0
1729,7.0,-228.0,-102.0,0
1730,5.0,-230.0,-101.0,0
1731,7.0,-228.0,-100.0,0
1732,5.0,-227.0,-104.0,0
1733,3.0,-225.0,-103.0,0
1734,6.0,-223.0,-103.0,0
1735,5.0,-224.0,-103.0,0
1736,3.0,-226.0,-104.0,0
1737,6.0,-225.0,-105.0,0
1738,3.0,-226.0,-102.0,0
1739,3.0,-226.0,-101.0,0
1740,8.0,-227.0,-104.0,0
1741,2.0,-221.0,-104.0,0
1742,7.0,-227.0,-98.0,0
1743,3.0,-225.0,-98.0,0
1744,6.0,-226.0,-104.0,0
1745,6.0,-227.0,-102.0,0
1746,7.0,-228.0,-101.0,0
1747,8.0,-228.0,-103.0,0
1748,4.0,-230.0,-100.0,0
1749,5.0,-229.0,-103.0,0
1750,4.0,-227.0,-101.0,0
1751,5.0,-229.0,-104.0,0
1752,5.0,-227.0,-103.0,0
1753,2.0,-226.0,-100.0,0
1754,7.0,-229.0,-98.0,0
1755,1.0,-226.0,-100.0,0
1756,3.0,-222.0,-97.0,0
1757,4.0,-228.0,-101.0,0
1758,5.0,-223.0,-99.0,0
1759,5.0,-226.0,-104.0,0
1760,5.0,-229.0,-98.0,0
1761,4.0,-227.0,-98.0,0
1762,4.0,-224.0,-98.0,0
1763,5.0,-222.0,-100.0,0
1764,3.0,-225.0,-101.0,0
1765,4.0,-224.0,-102.0,0
1766,5.0,-227.0,-108.0,0
1767,2.0,-223.0,-109.0,0
1768,3.0,-228.0,-102.0,0
1769,2.0,-225.0,-101.0,0
1770,2.0,-226.0,-102.0,0
1771,3.0,-226.0,-104.0,0
1772,4.0,-225.0,-99.0,0
1773,4.0,-228.0,-100.0,0
1774,7.0,-226.0,-101.0,0
1775,3.0,-226.0,-100.0,0
1776,3.0,-226.0,-103.0,0
1777,7.0,-224.0,-95.0,0
1778,5.0,-227.0,-101.0,0
1779,4.0,-227.0,-103.0,0
1780,4.0,-226.0,-99.0,0
1781,6.0,-226.0,-99.0,0
1782,6.0,-225.0,-101.0,0
1783,4.0,-227.0,-101.0,0
1784,5.0,-228.0,-102.0,0
1785,5.0,-228.0,-98.0,0
1786,2.0,-223.0,-101.0,0
1787,4.0,-230.0,-103.0,0
1788,9.0,-228.0,-104.0,0
1789,4.0,-224.0,-102.0,0
1790,4.0,-229.0,-101.0,0
1791,4.0,-227.0,-100.0,0
1792,4.0,-227.0,-104.0,0
1793,8.0,-228.0,-101.0,0
1794,6.0,-225.0,-101.0,0
1795,4.0,-226.0,-99.0,0
1796,6.0,-227.0,-100.0,0
1797,5.0,-227.0,-97.0,0
1798,2.0,-228.0,-101.0,0
1799,1.0,-226.0,-101.0,0
1800,3.0,-226.0,-100.0,0
1801,5.0,-227.0,-102.0,0
1802,2.0,-228.0,-96.0,0
1803,3.0,-229.0,-97.0,0
1804,3.0,-224.0,-99.0,0
1805,3.0,-228.0,-98.0,0
1806,2.0,-225.0,-102.0,0
1807,5.0,-227.0,-100.0,0
1808,5.0,-229.0,-100.0,0
1809,4.0,-225.0,-104.0,0
1810,4.0,-228.0,-98.0,0
1811,2.0,-229.0,-101.0,0
1812,5.0,-225.0,-103.0,0
1813,3.0,-226.0,-102.0,0
1814,3.0,-225.0,-102.0,0
1815,4.0,-227.0,-101.0,0
1816,5.0,-228.0,-99.0,0
1817,3.0,-227.0,-102.0,0
1818,4.0,-226.0,-98.0,0
1819,4.0,-228.0,-101.0,0
1820,5.0,-231.0,-98.0,0
1821,5.0,-232.0,-100.0,0
1822,5.0,-228.0,-102.0,0
1823,3.0,-227.0,-103.0,0
1824,1.0,-228.0,-99.0,0
1825,2.0,-226.0,-99.0,0
1826,5.0,-231.0,-99.0,0
1827,2.0,-229.0,-98.0,0
1828,3.0,-227.0,-103.0,0
1829,2.0,-224.0,-98.0,0
1830,4.0,-222.0,-95.0,0
1831,4.0,-225.0,-99.0,0
1832,1.0,-224.0,-105.0,0
1833,5.0,-228.0,-102.0,0
1834,2.0,-227.0,-101.0,0
1835,4.0,-227.0,-103.0,0
1836,0.0,-227.0,-100.0,0
1837,0.0,-226.0,-98.0,0
1838,2.0,-229.0,-103.0,0
1839,3.0,-228.0,-97.0,0
1840,3.0,-230.0,-99.0,0
1841,3.0,-231.0,-98.0,0
1842,2.0,-224.0,-102.0,0
1843,3.0,-228.0,-96.0,0
1844,5.0,-229.0,-100.0,0
1845,3.0,-228.0,-96.0,0
1846,1.0,-229.0,-98.0,0
1847,3.0,-228.0,-99.0,0
1848,2.0,-229.0,-99.0,0
1849,3.0,-225.0,-97.0,0
1850,4.0,-225.0,-103.0,0
1851,5.0,-226.0,-99.0,0
1852,2.0,-223.0,-104.0,0
1853,5.0,-226.0,-101.0,0
1854,3.0,-221.0,-101.0,0
1855,5.0,-228.0,-99.0,0
1856,0.0,-225.0,-101.0,0
1857,2.0,-225.0,-98.0,0
1858,3.0,-228.0,-101.0,0
1859,3.0,-229.0,-99.0,0
1860,4.0,-228.0,-99.0,0
1861,1.0,-225.0,-100.0,0
1862,5.0,-228.0,-99.0,0
1863,4.0,-228.0,-104.0,0
1864,3.0,-228.0,-98.0,0
1865,5.0,-231.0,-91.0,0
1866,3.0,-227.0,-100.0,0
1867,3.0,-229.0,-95.0,0
1868,1.0,-223.0,-94.0,0
1869,4.0,-228.0,-97.0,0
1870,4.0,-227.0,-100.0,0
1871,2.0,-226.0,-97.0,0
1872,4.0,-229.0,-96.0,0
1873,4.0,-229.0,-99.0,0
1874,2.0,-229.0,-98.0,0
1875,0.0,-230.0,-103.0,0
1876,2.0,-227.0,-101.0,0
1877,7.0,-226.0,-100.0,0
1878,4.0,-229.0,-100.0,0
1879,5.0,-231.0,-104.0,0
1880,2.0,-228.0,-97.0,0
1881,7.0,-228.0,-98.0,0
1882,7.0,-231.0,-99.0,0
1883,3.0,-229.0,-98.0,0
1884,3.0,-225.0,-100.0,0
1885,2.0,-226.0,-102.0,0
1886,4.0,-224.0,-103.0,0
1887,4.0,-225.0,-102.0,0
1888,4.0,-229.0,-100.0,0
1889,3.0,-227.0,-100.0,0
1890,3.0,-228.0,-102.0,0
1891,5.0,-224.0,-101.0,0
1892,7.0,-226.0,-99.0,0
1893,4.0,-230.0,-101.0,0
1894,3.0,-227.0,-100.0,0
1895,7.0,-226.0,-102.0,0
1896,5.0,-225.0,-104.0,0
1897,6.0,-227.0,-103.0,0
1898,3.0,-227.0,-102.0,0
1899,4.0,-225.0,-103.0,0
1900,1.0,-224.0,-99.0,0
1901,5.0,-227.0,-100.0,0
1902,5.0,-229.0,-99.0,0
1903,2.0,-224.0,-98.0,0
1904,2.0,-229.0,-99.0,0
1905,3.0,-229.0,-97.0,0
1906,4.0,-228.0,-100.0,0
1907,3.0,-225.0,-100.0,0
1908,5.0,-228.0,-101.0,0
1909,3.0,-227.0,-98.0,0
1910,4.0,-228.0,-100.0,0
1911,4.0,-226.0,-101.0,0
1912,5.0,-226.0,-98.0,0
1913,5.0,-227.0,-100.0,0
1914,4.0,-226.0,-96.0,0
1915,3.0,-228.0,-102.0,0
1916,6.0,-231.0,-101.0,0
1917,6.0,-231.0,-97.0,0
1918,5.0,-226.0,-100.0,0
1919,14.0,-228.0,-88.0,0
1920,5.0,-226.0,-97.0,0
1921,3.0,-230.0,-100.0,0
1922,6.0,-229.0,-98.0,0
1923,2.0,-228.0,-105.0,0
1924,4.0,-227.0,-104.0,0
1925,5.0,-225.0,-102.0,0
1926,5.0,-230.0,-98.0,0
1927,4.0,-225.0,-102.0,0
1928,4.0,-225.0,-99.0,0
1929,7.0,-224.0,-100.0,0
1930,5.0,-226.0,-97.0,0
1931,3.0,-224.0,-100.0,0
1932,4.0,-228.0,-106.0,0
1933,5.0,-227.0,-100.0,0
1934,3.0,-226.0,-100.0,0
1935,4.0,-225.0,-101.0,0
1936,3.0,-227.0,-97.0,0
1937,5.0,-228.0,-98.0,0
1938,5.0,-229.0,-100.0,0
1939,4.0,-225.0,-104.0,0
1940,4.0,-229.0,-100.0,0
1941,5.0,-227.0,-99.0,0
1942,5.0,-226.0,-98.0,0
1943,4.0,-223.0,-103.0,0
1944,2.0,-226.0,-97.0,0
1945,2.0,-226.0,-100.0,0
1946,5.0,-226.0,-103.0,0
1947,3.0,-227.0,-98.0,0
1948,4.0,-225.0,-100.0,0
1949,4.0,-223.0,-100.0,0
1950,3.0,-226.0,-99.0,0
1951,7.0,-228.0,-98.0,0
1952,3.0,-226.0,-103.0,0
1953,3.0,-225.0,-101.0,0
1954,6.0,-227.0,-97.0,0
1955,4.0,-226.0,-98.0,0
1956,5.0,-225.0,-97.0,0
1957,5.0,-228.0,-103.0,0
1958,5.0,-226.0,-101.0,0
1959,6.0,-228.0,-103.0,0
1960,5.0,-229.0,-102.0,0
1961,5.0,-228.0,-99.0,0
1962,5.0,-228.0,-99.0,0
1963,3.0,-230.0,-98.0,0
1964,3.0,-229.0,-99.0,0
1965,4.0,-226.0,-102.0,0
1966,5.0,-228.0,-100.0,0
1967,5.0,-226.0,-99.0,0
1968,3.0,-227.0,-104.0,0
1969,5.0,-230.0,-102.0,0
1970,4.0,-228.0,-103.0,0
1971,4.0,-227.0,-102.0,0
1972,3.0,-227.0,-102.0,0
1973,4.0,-229.0,-102.0,0
1974,5.0,-229.0,-99.0,0
1975,2.0,-229.0,-102.0,0
1976,8.0,-229.0,-99.0,0
1977,5.0,-225.0,-105.0,0
1978,5.0,-225.0,-102.0,0
1979,2.0,-224.0,-101.0,0
1980,3.0,-224.0,-102.0,0
1981,5.0,-226.0,-100.0,0
1982,5.0,-229.0,-94.0,0
1983,4.0,-230.0,-100.0,0
1984,4.0,-228.0,-100.0,0
1985,2.0,-227.0,-101.0,0
1986,2.0,-229.0,-104.0,0
1987,7.0,-225.0,-104.0,0
1988,6.0,-225.0,-102.0,0
1989,6.0,-224.0,-103.0,0
1990,5.0,-222.0,-97.0,0
1991,2.0,-226.0,-102.0,0
1992,4.0,-226.0,-104.0,0
1993,3.0,-223.0,-104.0,0
1994,6.0,-229.0,-102.0,0
1995,9.0,-226.0,-98.0,0
1996,5.0,-228.0,-101.0,0
1997,5.0,-230.0,-101.0,0
1998,6.0,-228.0,-99.0,0
1999,5.0,-231.0,-100.0,0
2000,5.0,-232.0,-99.0,0
2001,6.0,-231.0,-103.0,0
2002,4.0,-225.0,-100.0,0
2003,4.0,-225.0,-100.0,0
2004,5.0,-226.0,-102.0,0
2005,7.0,-228.0,-99.0,0
2006,0.0,-226.0,-108.0,0
2007,6.0,-226.0,-100.0,0
2008,4.0,-224.0,-106.0,0
2009,8.0,-224.0,-100.0,0
2010,5.0,-228.0,-101.0,0
2011,6.0,-227.0,-99.0,0
2012,5.0,-228.0,-102.0,0
2013,6.0,-224.0,-100.0,0
2014,5.0,-226.0,-101.0,0
2015,2.0,-227.0,-98.0,0
2016,5.0,-228.0,-100.0,0
2017,5.0,-229.0,-104.0,0
2018,5.0,-231.0,-101.0,0
2019,6.0,-226.0,-101.0,0
2020,4.0,-227.0,-102.0,0
2021,3.0,-227.0,-98.0,0
2022,6.0,-225.0,-100.0,0
2023,2.0,-223.0,-98.0,0
2024,3.0,-226.0,-98.0,0
2025,6.0,-228.0,-98.0,0
2026,4.0,-226.0,-100.0,0
2027,2.0,-225.0,-100.0,0
2028,6.0,-230.0,-95.0,0
2029,6.0,-228.0,-103.0,0
2030,3.0,-225.0,-101.0,0
2031,4.0,-227.0,-101.0,0
2032,6.0,-226.0,-105.0,0
2033,5.0,-223.0,-101.0,0
2034,2.0,-225.0,-103.0,0
2035,6.0,-229.0,-107.0,0
2036,8.0,-227.0,-99.0,0
2037,6.0,-229.0,-102.0,0
2038,5.0,-226.0,-97.0,0
2039,8.0,-232.0,-98.0,0
2040,5.0,-229.0,-101.0,0
2041,3.0,-228.0,-100.0,0
2042,3.0,-227.0,-99.0,0
2043,7.0,-227.0,-101.0,0
2044,2.0,-227.0,-100.0,0
2045,3.0,-227.0,-99.0,0
2046,3.0,-227.0,-104.0,0
2047,3.0,-226.0,-103.0,0
2048,5.0,-225.0,-97.0,0
2049,5.0,-225.0,-99.0,0
2050,1.0,-229.0,-99.0,0
2051,6.0,-229.0,-99.0,0
2052,2.0,-230.0,-101.0,0
2053,4.0,-227.0,-100.0,0
2054,5.0,-225.0,-99.0,0
2055,3.0,-224.0,-100.0,0
2056,4.0,-223.0,-100.0,0
2057,6.0,-226.0,-103.0,0
2058,5.0,-227.0,-101.0,0
2059,4.0,-226.0,-100.0,0
2060,6.0,-224.0,-96.0,0
2061,3.0,-228.0,-97.0,0
2062,4.0,-227.0,-101.0,0
2063,6.0,-229.0,-100.0,0
2064,5.0,-226.0,-99.0,0
2065,5.0,-227.0,-101.0,0
2066,3.0,-226.0,-101.0,0
2067,5.0,-226.0,-101.0,0
2068,5.0,-226.0,-98.0,0
2069,4.0,-226.0,-98.0,0
2070,7.0,-228.0,-105.0,0
2071,3.0,-224.0,-101.0,0
2072,5.0,-222.0,-102.0,0
2073,3.0,-228.0,-101.0,0
2074,7.0,-227.0,-100.0,0
2075,3.0,-228.0,-102.0,0
2076,3.0,-225.0,-101.0,0
2077,3.0,-225.0,-102.0,0
2078,8.0,-229.0,-100.0,0
2079,6.0,-225.0,-101.0,0
2080,6.0,-226.0,-98.0,0
2081,7.0,-227.0,-103.0,0
2082,7.0,-231.0,-105.0,0
2083,2.0,-228.0,-98.0,0
2084,6.0,-227.0,-104.0,0
2085,5.0,-225.0,-102.0,0
2086,5.0,-223.0,-100.0,0
2087,1.0,-225.0,-102.0,0
2088,3.0,-226.0,-103.0,0
2089,6.0,-226.0,-102.0,0
2090,3.0,-225.0,-100.0,0
2091,7.0,-228.0,-101.0,0
2092,8.0,-224.0,-98.0,0
2093,4.0,-228.0,-104.0,0
2094,4.0,-226.0,-99.0,0
2095,6.0,-226.0,-100.0,0
2096,5.0,-224.0,-105.0,0
2097,5.0,-227.0,-98.0,0
2098,7.0,-230.0,-102.0,0
2099,2.0,-227.0,-103.0,0
2100,5.0,-225.0,-102.0,0
2101,4.0,-225.0,-98.0,0
2102,5.0,-225.0,-101.0,0
2103,5.0,-227.0,-99.0,0
2104,5.0,-227.0,-107.0,0
2105,6.0,-228.0,-103.0,0
2106,4.0,-225.0,-101.0,0
2107,2.0,-225.0,-99.0,0
2108,6.0,-229.0,-102.0,0
2109,7.0,-230.0,-102.0,0
2110,7.0,-226.0,-105.0,0
2111,2.0,-225.0,-100.0,0
2112,7.0,-230.0,-103.0,0
2113,3.0,-227.0,-100.0,0
2114,6.0,-229.0,-103.0,0
2115,0.0,-226.0,-99.0,0
2116,3.0,-225.0,-105.0,0
2117,4.0,-227.0,-101.0,0
2118,4.0,-227.0,-104.0,0
2119,6.0,-226.0,-101.0,0
2120,2.0,-225.0,-100.0,0
2121,5.0,-225.0,-101.0,0
2122,3.0,-226.0,-103.0,0
2123,6.0,-229.0,-104.0,0
2124,5.0,-223.0,-106.0,0
2125,4.0,-222.0,-102.0,0
2126,10.0,-225.0,-104.0,0
2127,5.0,-224.0,-103.0,0
2128,5.0,-226.0,-102.0,0
2129,5.0,-224.0,-105.0,0
2130,6.0,-227.0,-102.0,0
2131,5.0,-227.0,-100.0,0
2132,4.0,-227.0,-105.0,0
2133,4.0,-225.0,-105.0,0
2134,4.0,-230.0,-103.0,0
2135,3.0,-226.0,-101.0,0
2136,6.0,-231.0,-100.0,0
2137,12.0,-219.0,-102.0,0
2138,3.0,-226.0,-102.0,0
2139,4.0,-228.0,-106.0,0
2140,6.0,-224.0,-103.0,0
2141,2.0,-225.0,-102.0,0
2142,5.0,-225.0,-106.0,0
2143,3.0,-225.0,-101.0,0
2144,3.0,-225.0,-103.0,0
2145,4.0,-225.0,-101.0,0
2146,2.0,-223.0,-99.0,0
2147,4.0,-226.0,-103.0,0
2148,4.0,-229.0,-103.0,0
2149,6.0,-228.0,-101.0,0
2150,3.0,-225.0,-102.0,0
2151,5.0,-224.0,-102.0,0
2152,3.0,-226.0,-102.0,0
2153,6.0,-225.0,-107.0,0
2154,2.0,-227.0,-102.0,0
2155,5.0,-227.0,-102.0,0
2156,6.0,-224.0,-101.0,0
2157,5.0,-230.0,-106.0,0
2158,3.0,-226.0,-101.0,0
2159,10.0,-229.0,-100.0,0
2160,3.0,-225.0,-102.0,0
2161,3.0,-223.0,-102.0,0
2162,3.0,-223.0,-104.0,0
2163,2.0,-226.0,-104.0,0
2164,4.0,-229.0,-104.0,0
2165,3.0,-226.0,-101.0,0
2166,2.0,-225.0,-103.0,0
2167,6.0,-226.0,-100.0,0
2168,3.0,-227.0,-104.0,0
2169,3.0,-225.0,-103.0,0
2170,1.0,-224.0,-105.0,0
2171,4.0,-227.0,-103.0,0
2172,3.0,-225.0,-102.0,0
2173,3.0,-224.0,-106.0,0
2174,4.0,-225.0,-106.0,0
2175,5.0,-225.0,-101.0,0
2176,5.0,-222.0,-106.0,0
2177,8.0,-224.0,-97.0,0
2178,6.0,-228.0,-99.0,0
2179,2.0,-227.0,-98.0,0
2180,9.0,-224.0,-103.0,0
2181,3.0,-227.0,-99.0,0
2182,6.0,-226.0,-105.0,0
2183,6.0,-226.0,-107.0,0
2184,6.0,-223.0,-102.0,0
2185,3.0,-227.0,-106.0,0
2186,5.0,-226.0,-102.0,0
2187,3.0,-225.0,-109.0,0
2188,2.0,-225.0,-100.0,0
2189,5.0,-225.0,-104.0,0
2190,3.0,-230.0,-103.0,0
2191,9.0,-228.0,-106.0,0
2192,2.0,-226.0,-102.0,0
2193,3.0,-227.0,-101.0,0
2194,3.0,-226.0,-108.0,0
2195,6.0,-225.0,-109.0,0
2196,5.0,-225.0,-103.0,0
2197,4.0,-226.0,-101.0,0
2198,3.0,-227.0,-100.0,0
2199,8.0,-227.0,-107.0,0
2200,4.0,-226.0,-102.0,0
2201,7.0,-230.0,-105.0,0
2202,2.0,-218.0,-102.0,0
2203,6.0,-224.0,-105.0,0
2204,5.0,-228.0,-106.0,0
2205,5.0,-225.0,-105.0,0
2206,4.0,-228.0,-104.0,0
2207,6.0,-224.0,-105.0,0
2208,4.0,-224.0,-104.0,0
2209,4.0,-224.0,-102.0,0
2210,4.0,-227.0,-103.0,0
2211,4.0,-225.0,-104.0,0
2212,5.0,-223.0,-107.0,0
2213,2.0,-224.0,-99.0,0
2214,5.0,-225.0,-103.0,0
2215,4.0,-227.0,-106.0,0
2216,5.0,-226.0,-101.0,0
2217,3.0,-224.0,-103.0,0
2218,4.0,-227.0,-106.0,0
2219,4.0,-227.0,-103.0,0
2220,5.0,-225.0,-101.0,0
2221,5.0,-225.0,-106.0,0
2222,3.0,-222.0,-108.0,0
2223,6.0,-225.0,-98.0,0
2224,0.0,-216.0,-102.0,0
2225,5.0,-226.0,-102.0,0
2226,3.0,-224.0,-102.0,0
2227,7.0,-227.0,-104.0,0
2228,3.0,-223.0,-107.0,0
2229,6.0,-226.0,-104.0,0
2230,4.0,-226.0,-105.0,0
2231,2.0,-223.0,-105.0,0
2232,6.0,-223.0,-103.0,0
2233,4.0,-220.0,-104.0,0
2234,3.0,-227.0,-101.0,0
2235,11.0,-233.0,-100.0,0
2236,6.0,-226.0,-105.0,0
2237,5.0,-229.0,-103.0,0
2238,4.0,-226.0,-105.0,0
2239,5.0,-226.0,-105.0,0
2240,5.0,-227.0,-104.0,0
2241,5.0,-226.0,-102.0,0
2242,8.0,-228.0,-106.0,0
2243,2.0,-223.0,-104.0,0
2244,3.0,-228.0,-102.0,0
2245,4.0,-224.0,-104.0,0
2246,1.0,-222.0,-104.0,0
2247,4.0,-223.0,-103.0,0
2248,4.0,-223.0,-106.0,0
2249,4.0,-224.0,-103.0,0
2250,4.0,-222.0,-103.0,0
2251,3.0,-224.0,-103.0,0
2252,4.0,-226.0,-104.0,0
2253,5.0,-226.0,-104.0,0
2254,2.0,-223.0,-103.0,0
2255,4.0,-223.0,-99.0,0
2256,3.0,-227.0,-96.0,0
2257,5.0,-222.0,-102.0,0
2258,3.0,-228.0,-103.0,0
2259,3.0,-227.0,-106.0,0
2260,4.0,-222.0,-103.0,0
2261,8.0,-224.0,-105.0,0
2262,4.0,-223.0,-106.0,0
2263,5.0,-224.0,-107.0,0
2264,6.0,-221.0,-106.0,0
2265,6.0,-223.0,-103.0,0
2266,6.0,-223.0,-101.0,0
2267,3.0,-221.0,-101.0,0
2268,9.0,-222.0,-97.0,0
2269,5.0,-226.0,-104.0,0
2270,7.0,-226.0,-105.0,0
2271,4.0,-230.0,-103.0,0
2272,3.0,-227.0,-104.0,0
2273,6.0,-229.0,-107.0,0
2274,3.0,-226.0,-102.0,0
2275,5.0,-228.0,-106.0,0
2276,3.0,-228.0,-101.0,0
2277,5.0,-224.0,-104.0,0
2278,4.0,-226.0,-105.0,0
2279,2.0,-228.0,-101.0,0
2280,3.0,-226.0,-105.0,0
2281,5.0,-227.0,-102.0,0
2282,4.0,-228.0,-99.0,0
2283,2.0,-226.0,-105.0,0
2284,5.0,-225.0,-100.0,0
2285,4.0,-226.0,-97.0,0
2286,3.0,-226.0,-103.0,0
2287,4.0,-224.0,-105.0,0
2288,4.0,-222.0,-104.0,0
2289,7.0,-221.0,-99.0,0
2290,8.0,-229.0,-103.0,0
2291,2.0,-227.0,-103.0,0
2292,2.0,-225.0,-103.0,0
2293,6.0,-226.0,-106.0,0
2294,0.0,-227.0,-101.0,0
2295,7.0,-227.0,-101.0,0
2296,6.0,-223.0,-101.0,0
2297,8.0,-228.0,-104.0,0
2298,3.0,-225.0,-107.0,0
2299,3.0,-226.0,-103.0,0
2300,2.0,-224.0,-102.0,0
2301,3.0,-225.0,-101.0,0
2302,4.0,-225.0,-105.0,0
2303,5.0,-227.0,-103.0,0
2304,4.0,-224.0,-101.0,0
2305,5.0,-224.0,-99.0,0
2306,3.0,-227.0,-103.0,0
2307,3.0,-222.0,-108.0,0
2308,3.0,-225.0,-103.0,0
2309,7.0,-223.0,-105.0,0
2310,6.0,-227.0,-99.0,0
2311,4.0,-223.0,-101.0,0
2312,6.0,-226.0,-104.0,0
2313,3.0,-224.0,-107.0,0
2314,4.0,-225.0,-102.0,0
2315,5.0,-227.0,-104.0,0
2316,1.0,-223.0,-103.0,0
2317,4.0,-226.0,-103.0,0
2318,4.0,-223.0,-103.0,0
2319,4.0,-228.0,-109.0,0
2320,4.0,-224.0,-100.0,0
2321,4.0,-227.0,-105.0,0
2322,3.0,-228.0,-108.0,0
2323,6.0,-226.0,-106.0,0
2324,4.0,-224.0,-107.0,0
2325,4.0,-224.0,-106.0,0
2326,3.0,-225.0,-105.0,0
2327,4.0,-224.0,-106.0,0
2328,7.0,-225.0,-102.0,0
2329,3.0,-228.0,-104.0,0
2330,5.0,-223.0,-110.0,0
2331,6.0,-227.0,-103.0,0
2332,3.0,-227.0,-106.0,0
2333,8.0,-222.0,-99.0,0
2334,6.0,-226.0,-105.0,0
2335,1.0,-225.0,-104.0,0
2336,3.0,-227.0,-102.0,0
2337,3.0,-227.0,-105.0,0
2338,4.0,-225.0,-106.0,0
2339,4.0,-225.0,-103.0,0
2340,4.0,-225.0,-107.0,0
2341,5.0,-227.0,-106.0,0
2342,4.0,-225.0,-103.0,0
2343,5.0,-225.0,-107.0,0
2344,1.0,-224.0,-109.0,0
2345,5.0,-225.0,-105.0,0
2346,5.0,-226.0,-103.0,0
2347,5.0,-224.0,-104.0,0
2348,8.0,-226.0,-105.0,0
2349,3.0,-224.0,-103.0,0
2350,2.0,-224.0,-105.0,0
2351,4.0,-225.0,-106.0,0
2352,2.0,-222.0,-108.0,0
2353,5.0,-225.0,-104.0,0
2354,4.0,-224.0,-103.0,0
2355,4.0,-225.0,-108.0,0
2356,6.0,-225.0,-102.0,0
2357,3.0,-225.0,-105.0,0
2358,4.0,-225.0,-104.0,0
2359,5.0,-225.0,-107.0,0
2360,3.0,-224.0,-102.0,0
2361,6.0,-227.0,-104.0,0
2362,5.0,-225.0,-104.0,0
2363,6.0,-227.0,-107.0,0
2364,5.0,-228.0,-105.0,0
2365,5.0,-230.0,-102.0,0
2366,12.0,-231.0,-101.0,0
2367,5.0,-226.0,-105.0,0
2368,3.0,-223.0,-102.0,0
2369,3.0,-225.0,-105.0,0
2370,2.0,-225.0,-108.0,0
2371,5.0,-225.0,-106.0,0
2372,5.0,-226.0,-102.0,0
2373,2.0,-226.0,-105.0,0
2374,4.0,-225.0,-104.0,0
2375,8.0,-229.0,-107.0,0
2376,5.0,-225.0,-102.0,0
2377,4.0,-228.0,-98.0,0
2378,6.0,-223.0,-106.0,0
2379,4.0,-223.0,-101.0,0
2380,4.0,-223.0,-102.0,0
2381,3.0,-224.0,-106.0,0
2382,6.0,-224.0,-105.0,0
2383,3.0,-221.0,-104.0,0
2384,4.0,-226.0,-101.0,0
2385,2.0,-229.0,-100.0,0
2386,1.0,-223.0,-107.0,0
2387,5.0,-226.0,-106.0,0
2388,4.0,-225.0,-101.0,0
2389,5.0,-225.0,-102.0,0
2390,2.0,-229.0,-102.0,0
2391,3.0,-224.0,-105.0,0
2392,4.0,-227.0,-99.0,0
2393,4.0,-229.0,-100.0,0
2394,4.0,-226.0,-107.0,0
2395,7.0,-226.0,-102.0,0
2396,2.0,-228.0,-106.0,0
2397,7.0,-230.0,-110.0,0
2398,4.0,-223.0,-103.0,0
2399,5.0,-220.0,-105.0,0
