,accelerometer_x,accelerometer_y,accelerometer_z,fall
0,0.0,-255.0,-37.0,0
1,0.0,-254.0,-39.0,0
2,0.0,-254.0,-35.0,0
3,-2.0,-253.0,-40.0,0
4,1.0,-254.0,-42.0,0
5,2.0,-255.0,-35.0,0
6,1.0,-255.0,-36.0,0
7,4.0,-256.0,-40.0,0
8,1.0,-255.0,-38.0,0
9,0.0,-258.0,-36.0,0
10,1.0,-256.0,-40.0,0
11,3.0,-253.0,-37.0,0
12,4.0,-253.0,-38.0,0
13,8.0,-252.0,-40.0,0
14,10.0,-254.0,-37.0,0
15,11.0,-254.0,-43.0,0
16,12.0,-255.0,-38.0,0
17,21.0,-261.0,-35.0,0
18,23.0,-263.0,-35.0,0
19,20.0,-267.0,-23.0,0
20,20.0,-269.0,-23.0,0
21,17.0,-273.0,-23.0,0
22,12.0,-272.0,-23.0,0
23,9.0,-271.0,-24.0,0
24,7.0,-267.0,-22.0,0
25,6.0,-266.0,-24.0,0
26,3.0,-261.0,-32.0,0
27,2.0,-258.0,-28.0,0
28,1.0,-251.0,-35.0,0
29,0.0,-251.0,-30.0,0
30,0.0,-249.0,-30.0,0
31,0.0,-248.0,-25.0,0
32,-1.0,-249.0,-18.0,0
33,1.0,-247.0,-20.0,0
34,-6.0,-247.0,-18.0,0
35,1.0,-246.0,-16.0,0
36,0.0,-245.0,-20.0,0
37,2.0,-245.0,-16.0,0
38,0.0,-242.0,-18.0,0
39,0.0,-245.0,-17.0,0
40,1.0,-246.0,-19.0,0
41,3.0,-251.0,-20.0,0
42,4.0,-253.0,-22.0,0
43,4.0,-253.0,-19.0,0
44,8.0,-258.0,-19.0,0
45,9.0,-259.0,-18.0,0
46,10.0,-257.0,-18.0,0
47,11.0,-258.0,-17.0,0
48,16.0,-254.0,-18.0,0
49,17.0,-253.0,-19.0,0
50,19.0,-254.0,-18.0,0
51,17.0,-252.0,-20.0,0
52,18.0,-251.0,-26.0,0
53,18.0,-251.0,-22.0,0
54,17.0,-246.0,-28.0,0
55,15.0,-247.0,-26.0,0
56,16.0,-244.0,-27.0,0
57,18.0,-245.0,-24.0,0
58,14.0,-241.0,-24.0,0
59,14.0,-242.0,-23.0,0
60,13.0,-244.0,-21.0,0
61,13.0,-244.0,-20.0,0
62,4.0,-242.0,-17.0,0
63,2.0,-244.0,-19.0,0
64,-1.0,-242.0,-18.0,0
65,-5.0,-244.0,-20.0,0
66,-12.0,-240.0,-26.0,0
67,-12.0,-239.0,-33.0,0
68,-14.0,-238.0,-37.0,0
69,-17.0,-239.0,-37.0,0
70,-23.0,-231.0,-48.0,0
71,-21.0,-227.0,-48.0,0
72,-17.0,-226.0,-50.0,0
73,-15.0,-228.0,-59.0,0
74,-15.0,-228.0,-61.0,0
75,-12.0,-229.0,-68.0,0
76,-13.0,-228.0,-71.0,0
77,-8.0,-235.0,-78.0,0
78,-5.0,-242.0,-78.0,0
79,-3.0,-247.0,-80.0,0
80,-3.0,-251.0,-79.0,0
81,2.0,-261.0,-81.0,0
82,3.0,-265.0,-80.0,0
83,3.0,-272.0,-80.0,0
84,4.0,-277.0,-80.0,0
85,5.0,-280.0,-79.0,0
86,5.0,-284.0,-74.0,0
87,4.0,-292.0,-72.0,0
88,4.0,-293.0,-63.0,0
89,-3.0,-294.0,-60.0,0
90,-6.0,-291.0,-57.0,0
91,-18.0,-300.0,-50.0,0
92,-15.0,-290.0,-56.0,0
93,-24.0,-283.0,-56.0,0
94,-32.0,-275.0,-51.0,0
95,-33.0,-274.0,-50.0,0
96,-41.0,-269.0,-47.0,0
97,-45.0,-266.0,-45.0,0
98,-45.0,-259.0,-48.0,0
99,-42.0,-254.0,-42.0,0
100,-39.0,-249.0,-40.0,0
101,-36.0,-246.0,-38.0,0
102,-26.0,-246.0,-38.0,0
103,-16.0,-241.0,-36.0,0
104,-9.0,-241.0,-32.0,0
105,1.0,-241.0,-30.0,0
106,7.0,-247.0,-26.0,0
107,12.0,-244.0,-26.0,0
108,20.0,-248.0,-23.0,0
109,24.0,-247.0,-26.0,0
110,35.0,-253.0,-24.0,0
111,34.0,-251.0,-20.0,0
112,35.0,-255.0,-22.0,0
113,36.0,-261.0,-21.0,0
114,35.0,-262.0,-26.0,0
115,28.0,-262.0,-27.0,0
116,23.0,-264.0,-32.0,0
117,15.0,-265.0,-36.0,0
118,9.0,-263.0,-30.0,0
119,1.0,-261.0,-30.0,0
120,0.0,-261.0,-32.0,0
121,-7.0,-259.0,-30.0,0
122,-12.0,-260.0,-28.0,0
123,-18.0,-262.0,-27.0,0
124,-23.0,-261.0,-26.0,0
125,-27.0,-259.0,-22.0,0
126,-29.0,-259.0,-25.0,0
127,-29.0,-257.0,-21.0,0
128,-33.0,-257.0,-24.0,0
129,-30.0,-257.0,-21.0,0
130,-33.0,-260.0,-22.0,0
131,-31.0,-257.0,-26.0,0
132,-26.0,-255.0,-23.0,0
133,-25.0,-255.0,-28.0,0
134,-15.0,-255.0,-22.0,0
135,-19.0,-249.0,-23.0,0
136,-15.0,-250.0,-26.0,0
137,-10.0,-248.0,-26.0,0
138,-7.0,-245.0,-26.0,0
139,-1.0,-247.0,-25.0,0
140,4.0,-245.0,-22.0,0
141,8.0,-247.0,-22.0,0
142,11.0,-246.0,-21.0,0
143,8.0,-247.0,-20.0,0
144,15.0,-252.0,-22.0,0
145,11.0,-251.0,-27.0,0
146,15.0,-253.0,-24.0,0
147,11.0,-253.0,-20.0,0
148,11.0,-257.0,-22.0,0
149,13.0,-257.0,-20.0,0
150,10.0,-259.0,-19.0,0
151,8.0,-256.0,-20.0,0
152,7.0,-255.0,-22.0,0
153,4.0,-252.0,-17.0,0
154,5.0,-251.0,-20.0,0
155,2.0,-247.0,-22.0,0
156,8.0,-240.0,-22.0,0
157,0.0,-244.0,-23.0,0
158,2.0,-246.0,-27.0,0
159,1.0,-245.0,-29.0,0
160,2.0,-245.0,-29.0,0
161,4.0,-242.0,-32.0,0
162,3.0,-246.0,-30.0,0
163,1.0,-242.0,-32.0,0
164,2.0,-244.0,-29.0,0
165,0.0,-246.0,-30.0,0
166,0.0,-247.0,-23.0,0
167,-3.0,-248.0,-21.0,0
168,-3.0,-250.0,-21.0,0
169,-5.0,-253.0,-26.0,0
170,-5.0,-255.0,-23.0,0
171,-9.0,-257.0,-22.0,0
172,-10.0,-261.0,-21.0,0
173,-16.0,-259.0,-24.0,0
174,-18.0,-261.0,-28.0,0
175,-23.0,-262.0,-28.0,0
176,-25.0,-260.0,-30.0,0
177,-24.0,-263.0,-29.0,0
178,-33.0,-265.0,-27.0,0
179,-26.0,-259.0,-30.0,0
180,-21.0,-264.0,-28.0,0
181,-22.0,-259.0,-29.0,0
182,-19.0,-258.0,-31.0,0
183,-16.0,-255.0,-27.0,0
184,-12.0,-254.0,-23.0,0
185,-9.0,-255.0,-20.0,0
186,-4.0,-251.0,-19.0,0
187,-5.0,-245.0,-15.0,0
188,-1.0,-249.0,-15.0,0
189,0.0,-248.0,-12.0,0
190,0.0,-250.0,-11.0,0
191,-4.0,-246.0,-13.0,0
192,-3.0,-252.0,-13.0,0
193,-7.0,-255.0,-11.0,0
194,-12.0,-255.0,-14.0,0
195,-14.0,-256.0,-12.0,0
196,-19.0,-264.0,-17.0,0
197,-23.0,-263.0,-19.0,0
198,-31.0,-265.0,-18.0,0
199,-34.0,-267.0,-12.0,0
200,-43.0,-270.0,-19.0,0
201,-46.0,-272.0,-19.0,0
202,-53.0,-274.0,-16.0,0
203,-53.0,-278.0,-14.0,0
204,-56.0,-276.0,-14.0,0
205,-56.0,-284.0,-13.0,0
206,-59.0,-284.0,-15.0,0
207,-58.0,-288.0,-14.0,0
208,-52.0,-292.0,-12.0,0
209,-55.0,-293.0,-9.0,0
210,-50.0,-295.0,-12.0,0
211,-44.0,-298.0,-13.0,0
212,-41.0,-297.0,-19.0,0
213,-37.0,-295.0,-20.0,0
214,-36.0,-292.0,-20.0,0
215,-32.0,-292.0,-23.0,0
216,-32.0,-287.0,-26.0,0
217,-39.0,-289.0,-24.0,0
218,-45.0,-293.0,-31.0,0
219,-44.0,-305.0,-42.0,0
220,-32.0,-318.0,-50.0,0
221,-35.0,-333.0,-59.0,0
222,-35.0,-345.0,-51.0,0
223,-39.0,-357.0,-45.0,0
224,-43.0,-366.0,-32.0,0
225,-43.0,-367.0,-21.0,0
226,-39.0,-363.0,-23.0,0
227,-39.0,-354.0,-25.0,0
228,-39.0,-337.0,-28.0,0
229,-43.0,-324.0,-35.0,0
230,-43.0,-314.0,-34.0,0
231,-42.0,-303.0,-48.0,0
232,-39.0,-291.0,-57.0,0
233,-35.0,-279.0,-60.0,0
234,-28.0,-272.0,-70.0,0
235,-22.0,-261.0,-75.0,0
236,-19.0,-249.0,-79.0,0
237,-14.0,-241.0,-83.0,0
238,-7.0,-235.0,-85.0,0
239,-1.0,-223.0,-87.0,0
240,4.0,-216.0,-92.0,0
241,12.0,-209.0,-94.0,0
242,17.0,-204.0,-96.0,0
243,21.0,-191.0,-97.0,0
244,23.0,-185.0,-97.0,0
245,22.0,-173.0,-101.0,0
246,27.0,-156.0,-102.0,0
247,27.0,-143.0,-94.0,0
248,34.0,-137.0,-94.0,0
249,42.0,-129.0,-85.0,0
250,45.0,-134.0,-80.0,0
251,46.0,-130.0,-79.0,0
252,49.0,-139.0,-79.0,0
253,54.0,-157.0,-75.0,0
254,48.0,-175.0,-75.0,0
255,45.0,-191.0,-75.0,0
256,43.0,-210.0,-66.0,0
257,38.0,-232.0,-64.0,0
258,30.0,-250.0,-57.0,0
259,24.0,-273.0,-54.0,0
260,16.0,-291.0,-48.0,0
261,10.0,-310.0,-49.0,0
262,1.0,-320.0,-50.0,0
263,-7.0,-330.0,-54.0,0
264,-18.0,-335.0,-60.0,0
265,-25.0,-336.0,-69.0,0
266,-32.0,-334.0,-72.0,0
267,-39.0,-329.0,-77.0,0
268,-43.0,-322.0,-77.0,0
269,-43.0,-312.0,-74.0,0
270,-44.0,-295.0,-62.0,0
271,-45.0,-279.0,-66.0,0
272,-40.0,-265.0,-57.0,0
273,-41.0,-249.0,-56.0,0
274,-38.0,-239.0,-55.0,0
275,-38.0,-226.0,-50.0,0
276,-33.0,-216.0,-47.0,0
277,-28.0,-214.0,-40.0,0
278,-26.0,-210.0,-40.0,0
279,-21.0,-211.0,-41.0,0
280,-19.0,-208.0,-39.0,0
281,-14.0,-209.0,-40.0,0
282,-4.0,-212.0,-43.0,0
283,0.0,-212.0,-39.0,0
284,-1.0,-215.0,-41.0,0
285,2.0,-216.0,-39.0,0
286,5.0,-215.0,-35.0,0
287,7.0,-220.0,-35.0,0
288,13.0,-217.0,-34.0,0
289,13.0,-218.0,-32.0,0
290,12.0,-216.0,-31.0,0
291,14.0,-216.0,-29.0,0
292,19.0,-216.0,-32.0,0
293,22.0,-212.0,-30.0,0
294,25.0,-212.0,-32.0,0
295,20.0,-211.0,-31.0,0
296,24.0,-210.0,-25.0,0
297,29.0,-215.0,-27.0,0
298,25.0,-213.0,-23.0,0
299,26.0,-215.0,-21.0,0
300,27.0,-219.0,-23.0,0
301,29.0,-218.0,-17.0,0
302,29.0,-223.0,-18.0,0
303,22.0,-221.0,-14.0,0
304,23.0,-225.0,-15.0,0
305,16.0,-228.0,-12.0,0
306,19.0,-233.0,-16.0,0
307,15.0,-233.0,-14.0,0
308,13.0,-237.0,-10.0,0
309,9.0,-236.0,-10.0,0
310,13.0,-239.0,-16.0,0
311,11.0,-237.0,-13.0,0
312,12.0,-240.0,-18.0,0
313,10.0,-235.0,-19.0,0
314,12.0,-234.0,-22.0,0
315,12.0,-236.0,-20.0,0
316,14.0,-238.0,-18.0,0
317,14.0,-238.0,-19.0,0
318,13.0,-237.0,-17.0,0
319,12.0,-242.0,-20.0,0
320,10.0,-241.0,-20.0,0
321,12.0,-243.0,-22.0,0
322,12.0,-242.0,-22.0,0
323,3.0,-243.0,-25.0,0
324,8.0,-246.0,-25.0,0
325,2.0,-246.0,-20.0,0
326,0.0,-248.0,-19.0,0
327,-8.0,-250.0,-17.0,0
328,-10.0,-256.0,-14.0,0
329,-14.0,-261.0,-8.0,0
330,-15.0,-270.0,-15.0,0
331,-16.0,-279.0,-10.0,0
332,-13.0,-294.0,0.0,0
333,-12.0,-303.0,5.0,0
334,-13.0,-313.0,11.0,0
335,-10.0,-323.0,18.0,0
336,-5.0,-332.0,24.0,0
337,-1.0,-338.0,25.0,0
338,4.0,-341.0,29.0,0
339,8.0,-340.0,35.0,0
340,14.0,-337.0,38.0,0
341,18.0,-331.0,41.0,0
342,28.0,-330.0,44.0,0
343,26.0,-326.0,48.0,0
344,28.0,-326.0,52.0,0
345,31.0,-323.0,55.0,0
346,31.0,-320.0,47.0,0
347,34.0,-326.0,20.0,0
348,45.0,-336.0,-2.0,0
349,48.0,-346.0,-38.0,0
350,42.0,-342.0,-85.0,0
351,33.0,-353.0,-98.0,0
352,29.0,-382.0,-93.0,0
353,18.0,-420.0,-77.0,0
354,6.0,-428.0,-52.0,0
355,10.0,-420.0,-38.0,0
356,20.0,-397.0,-34.0,0
357,31.0,-380.0,-37.0,0
358,37.0,-354.0,-54.0,0
359,39.0,-328.0,-74.0,0
360,48.0,-300.0,-87.0,0
361,51.0,-270.0,-113.0,0
362,58.0,-243.0,-130.0,0
363,63.0,-227.0,-130.0,0
364,64.0,-215.0,-123.0,0
365,61.0,-214.0,-103.0,0
366,54.0,-211.0,-96.0,0
367,40.0,-201.0,-87.0,0
368,21.0,-194.0,-87.0,0
369,7.0,-183.0,-78.0,0
370,-8.0,-176.0,-88.0,0
371,-25.0,-166.0,-97.0,0
372,-40.0,-155.0,-110.0,0
373,-57.0,-152.0,-116.0,0
374,-67.0,-154.0,-117.0,0
375,-69.0,-162.0,-118.0,0
376,-71.0,-170.0,-116.0,0
377,-63.0,-183.0,-109.0,0
378,-57.0,-196.0,-100.0,0
379,-53.0,-213.0,-92.0,0
380,-42.0,-225.0,-86.0,0
381,-32.0,-238.0,-81.0,0
382,-18.0,-254.0,-79.0,0
383,-5.0,-262.0,-75.0,0
384,6.0,-271.0,-79.0,0
385,16.0,-277.0,-78.0,0
386,28.0,-279.0,-81.0,0
387,44.0,-282.0,-83.0,0
388,53.0,-281.0,-84.0,0
389,63.0,-271.0,-76.0,0
390,68.0,-268.0,-76.0,0
391,73.0,-253.0,-74.0,0
392,75.0,-244.0,-66.0,0
393,75.0,-235.0,-60.0,0
394,80.0,-225.0,-49.0,0
395,76.0,-221.0,-49.0,0
396,68.0,-215.0,-40.0,0
397,63.0,-207.0,-39.0,0
398,58.0,-204.0,-36.0,0
399,51.0,-204.0,-32.0,0
400,41.0,-205.0,-34.0,0
401,29.0,-208.0,-32.0,0
402,23.0,-210.0,-35.0,0
403,13.0,-216.0,-35.0,0
404,3.0,-218.0,-32.0,0
405,-6.0,-224.0,-30.0,0
406,-7.0,-230.0,-34.0,0
407,-17.0,-234.0,-35.0,0
408,-24.0,-238.0,-39.0,0
409,-24.0,-241.0,-43.0,0
410,-28.0,-238.0,-45.0,0
411,-30.0,-235.0,-43.0,0
412,-29.0,-233.0,-44.0,0
413,-24.0,-233.0,-44.0,0
414,-24.0,-221.0,-46.0,0
415,-19.0,-214.0,-47.0,0
416,-16.0,-208.0,-48.0,0
417,-10.0,-204.0,-44.0,0
418,-1.0,-200.0,-44.0,0
419,0.0,-195.0,-38.0,0
420,7.0,-194.0,-38.0,0
421,9.0,-193.0,-35.0,0
422,14.0,-195.0,-26.0,0
423,16.0,-196.0,-30.0,0
424,18.0,-203.0,-18.0,0
425,22.0,-205.0,-19.0,0
426,21.0,-207.0,-20.0,0
427,24.0,-213.0,-23.0,0
428,25.0,-218.0,-20.0,0
429,19.0,-222.0,-22.0,0
430,18.0,-226.0,-19.0,0
431,13.0,-234.0,-18.0,0
432,13.0,-242.0,-19.0,0
433,8.0,-248.0,-18.0,0
434,3.0,-251.0,-14.0,0
435,1.0,-258.0,-16.0,0
436,-2.0,-260.0,-14.0,0
437,-5.0,-263.0,-13.0,0
438,-15.0,-264.0,-15.0,0
439,-20.0,-264.0,-18.0,0
440,-24.0,-265.0,-15.0,0
441,-28.0,-266.0,-14.0,0
442,-32.0,-268.0,-13.0,0
443,-38.0,-273.0,-13.0,0
444,-42.0,-280.0,-8.0,0
445,-37.0,-285.0,-3.0,0
446,-36.0,-289.0,0.0,0
447,-39.0,-290.0,4.0,0
448,-39.0,-289.0,3.0,0
449,-35.0,-288.0,1.0,0
450,-34.0,-284.0,-1.0,0
451,-34.0,-279.0,-3.0,0
452,-33.0,-277.0,-12.0,0
453,-27.0,-274.0,-10.0,0
454,-28.0,-278.0,-5.0,0
455,-32.0,-281.0,-5.0,0
456,-36.0,-284.0,6.0,0
457,-41.0,-286.0,10.0,0
458,-49.0,-290.0,14.0,0
459,-56.0,-296.0,21.0,0
460,-64.0,-299.0,32.0,0
461,-72.0,-305.0,36.0,0
462,-76.0,-312.0,47.0,0
463,-82.0,-313.0,52.0,0
464,-85.0,-316.0,60.0,0
465,-83.0,-316.0,65.0,0
466,-82.0,-318.0,71.0,0
467,-80.0,-316.0,52.0,0
468,-71.0,-312.0,9.0,0
469,-56.0,-315.0,-30.0,0
470,-48.0,-341.0,-53.0,0
471,-38.0,-360.0,-84.0,0
472,-27.0,-363.0,-115.0,0
473,-18.0,-379.0,-101.0,0
474,0.0,-395.0,-73.0,0
475,-2.0,-397.0,-49.0,0
476,-28.0,-375.0,-42.0,0
477,-45.0,-352.0,-57.0,0
478,-57.0,-330.0,-79.0,0
479,-49.0,-313.0,-103.0,0
480,-25.0,-289.0,-126.0,0
481,-14.0,-245.0,-143.0,0
482,8.0,-254.0,-164.0,0
483,16.0,-224.0,-167.0,0
484,15.0,-201.0,-173.0,0
485,26.0,-193.0,-152.0,0
486,49.0,-185.0,-140.0,0
487,62.0,-177.0,-138.0,0
488,71.0,-164.0,-116.0,0
489,82.0,-164.0,-116.0,0
490,81.0,-163.0,-113.0,0
491,100.0,-178.0,-106.0,0
492,108.0,-192.0,-99.0,0
493,114.0,-209.0,-91.0,0
494,107.0,-229.0,-79.0,0
495,96.0,-241.0,-68.0,0
496,81.0,-270.0,-67.0,0
497,59.0,-276.0,-58.0,0
498,40.0,-294.0,-66.0,0
499,19.0,-306.0,-73.0,0
500,-1.0,-318.0,-81.0,0
501,-14.0,-330.0,-64.0,0
502,-35.0,-323.0,-84.0,0
503,-51.0,-324.0,-80.0,0
504,-63.0,-313.0,-70.0,0
505,-66.0,-314.0,-63.0,0
506,-64.0,-284.0,-60.0,0
507,-67.0,-267.0,-60.0,0
508,-64.0,-246.0,-55.0,0
509,-59.0,-228.0,-63.0,0
510,-45.0,-214.0,-45.0,0
511,-54.0,-197.0,-55.0,0
512,-43.0,-181.0,-49.0,0
513,-43.0,-170.0,-53.0,0
514,-34.0,-167.0,-37.0,0
515,-37.0,-164.0,-45.0,0
516,-23.0,-165.0,-34.0,0
517,-21.0,-167.0,-36.0,0
518,-11.0,-163.0,-39.0,0
519,-14.0,-176.0,-28.0,0
520,-9.0,-181.0,-16.0,0
521,5.0,-188.0,-39.0,0
522,5.0,-190.0,-29.0,0
523,7.0,-193.0,-28.0,0
524,13.0,-200.0,-26.0,0
525,16.0,-203.0,-24.0,0
526,15.0,-214.0,-17.0,0
527,25.0,-219.0,-22.0,0
528,38.0,-222.0,-20.0,0
529,40.0,-225.0,-16.0,0
530,39.0,-234.0,-14.0,0
531,43.0,-236.0,-16.0,0
532,43.0,-242.0,-11.0,0
533,45.0,-242.0,-7.0,0
534,49.0,-240.0,-13.0,0
535,44.0,-232.0,-11.0,0
536,33.0,-236.0,-7.0,0
537,41.0,-231.0,-10.0,0
538,36.0,-231.0,-13.0,0
539,33.0,-222.0,-11.0,0
540,30.0,-222.0,-7.0,0
541,42.0,-211.0,-16.0,0
542,31.0,-230.0,-2.0,0
543,12.0,-202.0,-10.0,0
544,4.0,-198.0,-6.0,0
545,7.0,-210.0,-4.0,0
546,-1.0,-215.0,13.0,0
547,2.0,-214.0,1.0,0
548,7.0,-226.0,12.0,0
549,-12.0,-211.0,-7.0,0
550,-17.0,-220.0,2.0,0
551,-1.0,-217.0,-7.0,0
552,-13.0,-222.0,-3.0,0
553,-13.0,-223.0,-5.0,0
554,-17.0,-226.0,-4.0,0
555,-17.0,-233.0,-1.0,0
556,-13.0,-235.0,3.0,0
557,-19.0,-249.0,2.0,0
558,-18.0,-250.0,3.0,0
559,-22.0,-264.0,5.0,0
560,-32.0,-271.0,5.0,0
561,-32.0,-275.0,-8.0,0
562,-29.0,-284.0,-11.0,0
563,-35.0,-290.0,-10.0,0
564,-33.0,-293.0,-18.0,0
565,-18.0,-300.0,-11.0,0
566,-16.0,-300.0,-20.0,0
567,1.0,-306.0,-13.0,0
568,12.0,-315.0,4.0,0
569,16.0,-319.0,10.0,0
570,24.0,-329.0,25.0,0
571,27.0,-337.0,22.0,0
572,23.0,-326.0,48.0,0
573,33.0,-342.0,49.0,0
574,34.0,-336.0,56.0,0
575,39.0,-347.0,65.0,0
576,23.0,-328.0,60.0,0
577,32.0,-342.0,68.0,0
578,28.0,-337.0,64.0,0
579,20.0,-329.0,61.0,0
580,16.0,-327.0,54.0,0
581,19.0,-332.0,24.0,0
582,32.0,-346.0,-15.0,0
583,10.0,-350.0,-56.0,0
584,9.0,-350.0,-102.0,0
585,23.0,-365.0,-122.0,0
586,23.0,-414.0,-150.0,0
587,9.0,-440.0,-150.0,0
588,12.0,-438.0,-132.0,0
589,28.0,-425.0,-115.0,0
590,29.0,-402.0,-111.0,0
591,42.0,-378.0,-101.0,0
592,58.0,-350.0,-115.0,0
593,65.0,-316.0,-132.0,0
594,67.0,-271.0,-149.0,0
595,67.0,-225.0,-139.0,0
596,79.0,-192.0,-152.0,0
597,80.0,-170.0,-149.0,0
598,72.0,-154.0,-133.0,0
599,59.0,-142.0,-124.0,0
600,51.0,-132.0,-114.0,0
601,44.0,-133.0,-101.0,0
602,22.0,-136.0,-89.0,0
603,2.0,-144.0,-87.0,0
604,-22.0,-160.0,-87.0,0
605,-40.0,-177.0,-90.0,0
606,-57.0,-196.0,-92.0,0
607,-64.0,-212.0,-98.0,0
608,-70.0,-242.0,-94.0,0
609,-75.0,-261.0,-95.0,0
610,-65.0,-291.0,-90.0,0
611,-56.0,-304.0,-92.0,0
612,-46.0,-306.0,-90.0,0
613,-27.0,-311.0,-88.0,0
614,-11.0,-309.0,-82.0,0
615,7.0,-306.0,-83.0,0
616,23.0,-298.0,-79.0,0
617,40.0,-285.0,-79.0,0
618,49.0,-267.0,-78.0,0
619,58.0,-258.0,-77.0,0
620,64.0,-246.0,-71.0,0
621,70.0,-232.0,-67.0,0
622,72.0,-217.0,-63.0,0
623,70.0,-209.0,-57.0,0
624,71.0,-194.0,-55.0,0
625,71.0,-190.0,-53.0,0
626,64.0,-185.0,-48.0,0
627,56.0,-179.0,-50.0,0
628,49.0,-176.0,-51.0,0
629,37.0,-176.0,-51.0,0
630,27.0,-177.0,-55.0,0
631,20.0,-180.0,-60.0,0
632,15.0,-186.0,-56.0,0
633,6.0,-189.0,-58.0,0
634,0.0,-194.0,-54.0,0
635,0.0,-201.0,-57.0,0
636,-5.0,-207.0,-54.0,0
637,-14.0,-211.0,-50.0,0
638,-17.0,-217.0,-48.0,0
639,-18.0,-221.0,-51.0,0
640,-21.0,-228.0,-43.0,0
641,-23.0,-233.0,-41.0,0
642,-23.0,-237.0,-36.0,0
643,-23.0,-239.0,-39.0,0
644,-29.0,-240.0,-29.0,0
645,-30.0,-242.0,-25.0,0
646,-28.0,-242.0,-27.0,0
647,-33.0,-233.0,-21.0,0
648,-32.0,-233.0,-20.0,0
649,-33.0,-230.0,-20.0,0
650,-30.0,-227.0,-17.0,0
651,-27.0,-224.0,-20.0,0
652,-24.0,-218.0,-16.0,0
653,-20.0,-214.0,-18.0,0
654,-20.0,-211.0,-18.0,0
655,-14.0,-211.0,-17.0,0
656,-15.0,-208.0,-18.0,0
657,-12.0,-208.0,-18.0,0
658,-14.0,-204.0,-19.0,0
659,-12.0,-206.0,-22.0,0
660,-3.0,-208.0,-20.0,0
661,1.0,-212.0,-23.0,0
662,6.0,-213.0,-22.0,0
663,12.0,-214.0,-24.0,0
664,15.0,-216.0,-21.0,0
665,22.0,-226.0,-18.0,0
666,19.0,-223.0,-15.0,0
667,16.0,-227.0,-12.0,0
668,16.0,-229.0,-14.0,0
669,16.0,-233.0,-16.0,0
670,12.0,-235.0,-16.0,0
671,7.0,-235.0,-19.0,0
672,5.0,-243.0,-20.0,0
673,0.0,-248.0,-20.0,0
674,-3.0,-255.0,-17.0,0
675,-8.0,-269.0,-4.0,0
676,-15.0,-278.0,8.0,0
677,-21.0,-283.0,8.0,0
678,-24.0,-293.0,9.0,0
679,-26.0,-304.0,11.0,0
680,-31.0,-309.0,4.0,0
681,-29.0,-317.0,9.0,0
682,-37.0,-320.0,11.0,0
683,-38.0,-324.0,5.0,0
684,-41.0,-327.0,4.0,0
685,-41.0,-327.0,-3.0,0
686,-41.0,-323.0,-4.0,0
687,-36.0,-320.0,-3.0,0
688,-39.0,-316.0,0.0,0
689,-44.0,-311.0,-1.0,0
690,-48.0,-307.0,10.0,0
691,-54.0,-304.0,14.0,0
692,-58.0,-304.0,20.0,0
693,-70.0,-300.0,25.0,0
694,-77.0,-297.0,28.0,0
695,-86.0,-302.0,34.0,0
696,-98.0,-309.0,38.0,0
697,-106.0,-310.0,42.0,0
698,-117.0,-313.0,47.0,0
699,-118.0,-322.0,39.0,0
700,-127.0,-324.0,35.0,0
701,-122.0,-328.0,24.0,0
702,-118.0,-329.0,15.0,0
703,-110.0,-330.0,4.0,0
704,-100.0,-329.0,-6.0,0
705,-91.0,-324.0,-10.0,0
706,-76.0,-326.0,-18.0,0
707,-65.0,-324.0,-19.0,0
708,-48.0,-329.0,-21.0,0
709,-32.0,-330.0,-30.0,0
710,-18.0,-327.0,-36.0,0
711,-3.0,-327.0,-44.0,0
712,-1.0,-323.0,-55.0,0
713,3.0,-312.0,-74.0,0
714,4.0,-292.0,-89.0,0
715,11.0,-273.0,-112.0,0
716,8.0,-252.0,-132.0,0
717,11.0,-239.0,-139.0,0
718,20.0,-222.0,-154.0,0
719,26.0,-209.0,-148.0,0
720,36.0,-201.0,-148.0,0
721,42.0,-195.0,-134.0,0
722,50.0,-196.0,-130.0,0
723,59.0,-201.0,-129.0,0
724,64.0,-208.0,-130.0,0
725,72.0,-224.0,-130.0,0
726,82.0,-237.0,-128.0,0
727,89.0,-251.0,-125.0,0
728,92.0,-259.0,-117.0,0
729,92.0,-266.0,-111.0,0
730,84.0,-274.0,-108.0,0
731,77.0,-280.0,-99.0,0
732,64.0,-287.0,-100.0,0
733,49.0,-292.0,-96.0,0
734,33.0,-299.0,-100.0,0
735,18.0,-304.0,-96.0,0
736,0.0,-310.0,-90.0,0
737,-12.0,-315.0,-89.0,0
738,-25.0,-316.0,-86.0,0
739,-46.0,-319.0,-84.0,0
740,-42.0,-314.0,-82.0,0
741,-46.0,-308.0,-79.0,0
742,-44.0,-301.0,-78.0,0
743,-39.0,-289.0,-67.0,0
744,-33.0,-271.0,-58.0,0
745,-29.0,-256.0,-56.0,0
746,-20.0,-248.0,-46.0,0
747,-17.0,-232.0,-44.0,0
748,-12.0,-221.0,-36.0,0
749,-10.0,-207.0,-37.0,0
750,-7.0,-196.0,-37.0,0
751,-3.0,-188.0,-28.0,0
752,-3.0,-186.0,-31.0,0
753,-4.0,-182.0,-29.0,0
754,-4.0,-182.0,-25.0,0
755,-5.0,-183.0,-25.0,0
756,-8.0,-185.0,-20.0,0
757,-10.0,-188.0,-26.0,0
758,-7.0,-191.0,-22.0,0
759,-4.0,-194.0,-20.0,0
760,0.0,-194.0,-18.0,0
761,0.0,-202.0,-19.0,0
762,3.0,-205.0,-17.0,0
763,6.0,-203.0,-18.0,0
764,16.0,-206.0,-19.0,0
765,16.0,-202.0,-19.0,0
766,19.0,-203.0,-19.0,0
767,22.0,-200.0,-21.0,0
768,26.0,-198.0,-21.0,0
769,27.0,-198.0,-21.0,0
770,24.0,-200.0,-19.0,0
771,21.0,-198.0,-16.0,0
772,18.0,-197.0,-17.0,0
773,14.0,-201.0,-12.0,0
774,13.0,-203.0,-7.0,0
775,6.0,-201.0,-9.0,0
776,3.0,-204.0,-9.0,0
777,3.0,-205.0,-9.0,0
778,-4.0,-208.0,-13.0,0
779,-2.0,-208.0,-12.0,0
780,-5.0,-212.0,-11.0,0
781,-7.0,-214.0,-16.0,0
782,-6.0,-217.0,-13.0,0
783,-10.0,-219.0,-14.0,0
784,-7.0,-229.0,-9.0,0
785,-6.0,-235.0,-9.0,0
786,-8.0,-242.0,-5.0,0
787,-7.0,-245.0,-2.0,0
788,-5.0,-246.0,3.0,0
789,-3.0,-246.0,3.0,0
790,0.0,-250.0,9.0,0
791,0.0,-251.0,8.0,0
792,4.0,-249.0,4.0,0
793,2.0,-248.0,1.0,0
794,6.0,-243.0,2.0,0
795,7.0,-240.0,-6.0,0
796,6.0,-234.0,-5.0,0
797,3.0,-228.0,-3.0,0
798,1.0,-227.0,-9.0,0
799,0.0,-223.0,-7.0,0
800,-4.0,-221.0,-7.0,0
801,-8.0,-218.0,-6.0,0
802,-10.0,-219.0,-8.0,0
803,-10.0,-222.0,-4.0,0
804,-14.0,-230.0,-7.0,0
805,-8.0,-230.0,-6.0,0
806,-2.0,-240.0,-8.0,0
807,3.0,-247.0,-9.0,0
808,11.0,-257.0,-13.0,0
809,20.0,-262.0,-6.0,0
810,31.0,-276.0,-8.0,0
811,41.0,-283.0,-5.0,0
812,49.0,-287.0,2.0,0
813,58.0,-296.0,6.0,0
814,65.0,-302.0,7.0,0
815,63.0,-312.0,12.0,0
816,61.0,-317.0,18.0,0
817,57.0,-324.0,25.0,0
818,52.0,-327.0,23.0,0
819,42.0,-323.0,22.0,0
820,28.0,-324.0,24.0,0
821,17.0,-314.0,27.0,0
822,6.0,-312.0,31.0,0
823,-2.0,-304.0,34.0,0
824,-11.0,-303.0,40.0,0
825,-15.0,-305.0,47.0,0
826,-21.0,-307.0,47.0,0
827,-25.0,-313.0,48.0,0
828,-19.0,-319.0,48.0,0
829,-23.0,-325.0,41.0,0
830,-17.0,-333.0,35.0,0
831,-11.0,-343.0,13.0,0
832,2.0,-355.0,1.0,0
833,7.0,-362.0,-15.0,0
834,17.0,-369.0,-36.0,0
835,25.0,-373.0,-57.0,0
836,33.0,-370.0,-78.0,0
837,56.0,-362.0,-101.0,0
838,69.0,-357.0,-115.0,0
839,89.0,-344.0,-133.0,0
840,102.0,-331.0,-147.0,0
841,116.0,-317.0,-158.0,0
842,126.0,-308.0,-169.0,0
843,136.0,-293.0,-177.0,0
844,132.0,-280.0,-185.0,0
845,126.0,-264.0,-178.0,0
846,117.0,-256.0,-171.0,0
847,97.0,-249.0,-160.0,0
848,77.0,-241.0,-147.0,0
849,56.0,-236.0,-136.0,0
850,32.0,-226.0,-125.0,0
851,3.0,-216.0,-117.0,0
852,-29.0,-204.0,-111.0,0
853,-59.0,-201.0,-108.0,0
854,-85.0,-195.0,-110.0,0
855,-106.0,-195.0,-112.0,0
856,-120.0,-198.0,-108.0,0
857,-127.0,-198.0,-106.0,0
858,-122.0,-202.0,-106.0,0
859,-121.0,-206.0,-104.0,0
860,-103.0,-222.0,-102.0,0
861,-85.0,-235.0,-89.0,0
862,-62.0,-246.0,-84.0,0
863,-37.0,-257.0,-77.0,0
864,-11.0,-269.0,-76.0,0
865,7.0,-279.0,-81.0,0
866,24.0,-280.0,-83.0,0
867,44.0,-281.0,-83.0,0
868,54.0,-282.0,-88.0,0
869,66.0,-279.0,-86.0,0
870,76.0,-270.0,-84.0,0
871,83.0,-264.0,-76.0,0
872,89.0,-259.0,-70.0,0
873,89.0,-252.0,-56.0,0
874,84.0,-245.0,-49.0,0
875,76.0,-238.0,-47.0,0
876,64.0,-223.0,-46.0,0
877,53.0,-214.0,-47.0,0
878,35.0,-208.0,-46.0,0
879,27.0,-209.0,-53.0,0
880,15.0,-211.0,-52.0,0
881,1.0,-214.0,-49.0,0
882,-5.0,-220.0,-47.0,0
883,-19.0,-223.0,-46.0,0
884,-30.0,-234.0,-38.0,0
885,-34.0,-236.0,-40.0,0
886,-42.0,-233.0,-37.0,0
887,-40.0,-238.0,-41.0,0
888,-36.0,-236.0,-44.0,0
889,-32.0,-227.0,-49.0,0
890,-20.0,-224.0,-53.0,0
891,-18.0,-221.0,-58.0,0
892,-2.0,-215.0,-55.0,0
893,5.0,-211.0,-50.0,0
894,15.0,-199.0,-40.0,0
895,22.0,-194.0,-38.0,0
896,32.0,-184.0,-35.0,0
897,30.0,-179.0,-30.0,0
898,35.0,-174.0,-31.0,0
899,34.0,-170.0,-23.0,0
900,25.0,-167.0,-26.0,0
901,19.0,-162.0,-29.0,0
902,5.0,-159.0,-31.0,0
903,0.0,-158.0,-31.0,0
904,-9.0,-160.0,-35.0,0
905,-14.0,-167.0,-34.0,0
906,-22.0,-169.0,-34.0,0
907,-18.0,-181.0,-29.0,0
908,-17.0,-192.0,-30.0,0
909,-18.0,-201.0,-33.0,0
910,-13.0,-212.0,-44.0,0
911,-10.0,-224.0,-49.0,0
912,-5.0,-231.0,-57.0,0
913,0.0,-238.0,-54.0,0
914,7.0,-248.0,-50.0,0
915,8.0,-259.0,-45.0,0
916,11.0,-266.0,-37.0,0
917,15.0,-274.0,-36.0,0
918,14.0,-283.0,-29.0,0
919,12.0,-290.0,-21.0,0
920,6.0,-292.0,-12.0,0
921,3.0,-288.0,-10.0,0
922,1.0,-285.0,-13.0,0
923,0.0,-278.0,-17.0,0
924,-2.0,-270.0,-18.0,0
925,2.0,-262.0,-23.0,0
926,0.0,-256.0,-23.0,0
927,0.0,-245.0,-24.0,0
928,1.0,-236.0,-31.0,0
929,7.0,-231.0,-33.0,0
930,10.0,-220.0,-35.0,0
931,19.0,-219.0,-31.0,0
932,20.0,-216.0,-37.0,0
933,24.0,-220.0,-37.0,0
934,23.0,-220.0,-39.0,0
935,22.0,-225.0,-35.0,0
936,19.0,-234.0,-33.0,0
937,17.0,-239.0,-30.0,0
938,11.0,-249.0,-35.0,0
939,4.0,-262.0,-35.0,0
940,-2.0,-269.0,-35.0,0
941,-10.0,-282.0,-34.0,0
942,-16.0,-291.0,-35.0,0
943,-20.0,-294.0,-29.0,0
944,-28.0,-297.0,-37.0,0
945,-29.0,-293.0,-41.0,0
946,-30.0,-292.0,-43.0,0
947,-30.0,-281.0,-41.0,0
948,-31.0,-273.0,-40.0,0
949,-33.0,-264.0,-36.0,0
950,-38.0,-261.0,-35.0,0
951,-45.0,-255.0,-32.0,0
952,-48.0,-259.0,-19.0,0
953,-53.0,-259.0,-14.0,0
954,-54.0,-269.0,-5.0,0
955,-61.0,-278.0,3.0,0
956,-56.0,-288.0,6.0,0
957,-56.0,-293.0,11.0,0
958,-55.0,-299.0,8.0,0
959,-55.0,-302.0,14.0,0
960,-45.0,-304.0,14.0,0
961,-41.0,-303.0,14.0,0
962,-39.0,-300.0,12.0,0
963,-34.0,-295.0,10.0,0
964,-30.0,-290.0,5.0,0
965,-29.0,-284.0,0.0,0
966,-29.0,-274.0,1.0,0
967,-26.0,-268.0,0.0,0
968,-23.0,-270.0,-2.0,0
969,-24.0,-268.0,-4.0,0
970,-23.0,-269.0,-8.0,0
971,-26.0,-267.0,-16.0,0
972,-24.0,-268.0,-31.0,0
973,-22.0,-270.0,-43.0,0
974,-19.0,-280.0,-56.0,0
975,-8.0,-285.0,-77.0,0
976,-7.0,-289.0,-92.0,0
977,0.0,-292.0,-106.0,0
978,4.0,-293.0,-116.0,0
979,11.0,-293.0,-130.0,0
980,20.0,-294.0,-138.0,0
981,12.0,-289.0,-151.0,0
982,14.0,-286.0,-163.0,0
983,11.0,-280.0,-171.0,0
984,16.0,-269.0,-178.0,0
985,20.0,-257.0,-178.0,0
986,37.0,-252.0,-182.0,0
987,44.0,-245.0,-175.0,0
988,54.0,-233.0,-171.0,0
989,57.0,-223.0,-161.0,0
990,54.0,-208.0,-156.0,0
991,53.0,-195.0,-148.0,0
992,43.0,-177.0,-135.0,0
993,38.0,-166.0,-126.0,0
994,31.0,-156.0,-116.0,0
995,25.0,-153.0,-103.0,0
996,14.0,-152.0,-99.0,0
997,3.0,-167.0,-87.0,0
998,-9.0,-174.0,-91.0,0
999,-11.0,-196.0,-89.0,0
1000,-23.0,-217.0,-88.0,0
1001,-31.0,-236.0,-87.0,0
1002,-42.0,-251.0,-86.0,0
1003,-44.0,-264.0,-85.0,0
1004,-46.0,-270.0,-87.0,0
1005,-53.0,-274.0,-89.0,0
1006,-55.0,-280.0,-88.0,0
1007,-50.0,-280.0,-89.0,0
1008,-40.0,-278.0,-90.0,0
1009,-27.0,-272.0,-91.0,0
1010,-16.0,-265.0,-93.0,0
1011,-3.0,-259.0,-93.0,0
1012,9.0,-248.0,-89.0,0
1013,16.0,-238.0,-84.0,0
1014,24.0,-233.0,-82.0,0
1015,28.0,-218.0,-74.0,0
1016,30.0,-208.0,-64.0,0
1017,28.0,-203.0,-66.0,0
1018,24.0,-195.0,-59.0,0
1019,16.0,-187.0,-45.0,0
1020,10.0,-180.0,-50.0,0
1021,5.0,-180.0,-41.0,0
1022,-1.0,-180.0,-37.0,0
1023,0.0,-184.0,-29.0,0
1024,11.0,-185.0,-35.0,0
1025,26.0,-186.0,-28.0,0
1026,48.0,-192.0,-35.0,0
1027,67.0,-198.0,-39.0,0
1028,85.0,-199.0,-45.0,0
1029,96.0,-203.0,-34.0,0
1030,102.0,-205.0,-20.0,0
1031,111.0,-208.0,-1.0,0
1032,120.0,-203.0,25.0,0
1033,116.0,-191.0,44.0,0
1034,91.0,-177.0,58.0,0
1035,64.0,-163.0,60.0,0
1036,40.0,-148.0,41.0,0
1037,18.0,-129.0,18.0,0
1038,-2.0,-122.0,-5.0,0
1039,-31.0,-127.0,-12.0,0
1040,-57.0,-136.0,-8.0,0
1041,-80.0,-150.0,-7.0,0
1042,-107.0,-169.0,-20.0,0
1043,-107.0,-178.0,-44.0,0
1044,-98.0,-183.0,-89.0,0
1045,-73.0,-182.0,-129.0,0
1046,-63.0,-186.0,-140.0,0
1047,-53.0,-194.0,-132.0,0
1048,-39.0,-204.0,-106.0,0
1049,-31.0,-220.0,-84.0,0
1050,-34.0,-226.0,-61.0,0
1051,-21.0,-241.0,-29.0,0
1052,-16.0,-243.0,8.0,0
1053,1.0,-237.0,43.0,0
1054,7.0,-216.0,48.0,0
1055,5.0,-192.0,37.0,0
1056,-1.0,-171.0,0.0,0
1057,-3.0,-153.0,-38.0,0
1058,-8.0,-137.0,-72.0,0
1059,-4.0,-118.0,-103.0,0
1060,-1.0,-106.0,-112.0,0
1061,11.0,-87.0,-112.0,0
1062,23.0,-72.0,-89.0,0
1063,25.0,-67.0,-93.0,0
1064,28.0,-51.0,-91.0,0
1065,29.0,-35.0,-81.0,0
1066,25.0,-34.0,-60.0,0
1067,13.0,-33.0,-37.0,0
1068,-6.0,-38.0,-35.0,0
1069,-25.0,-42.0,-32.0,0
1070,-49.0,-43.0,-41.0,0
1071,-56.0,-45.0,-54.0,0
1072,-59.0,-44.0,-53.0,0
1073,-60.0,-41.0,-54.0,0
1074,-59.0,-44.0,-54.0,0
1075,-55.0,-44.0,-61.0,0
1076,-46.0,-49.0,-65.0,0
1077,-33.0,-50.0,-70.0,0
1078,-7.0,-43.0,-79.0,0
1079,8.0,-36.0,-93.0,0
1080,33.0,-26.0,-110.0,0
1081,41.0,-21.0,-111.0,0
1082,56.0,-18.0,-127.0,0
1083,61.0,-11.0,-133.0,0
1084,63.0,-9.0,-134.0,0
1085,59.0,-16.0,-121.0,2
1086,60.0,-25.0,-101.0,2
1087,57.0,-29.0,-85.0,2
1088,56.0,-26.0,-85.0,2
1089,57.0,-18.0,-102.0,2
1090,62.0,-8.0,-119.0,2
1091,67.0,1.0,-134.0,2
1092,68.0,0.0,-148.0,2
1093,60.0,-3.0,-150.0,2
1094,49.0,-9.0,-147.0,2
1095,43.0,-26.0,-134.0,2
1096,36.0,-30.0,-124.0,2
1097,34.0,-33.0,-122.0,2
1098,45.0,-47.0,-129.0,2
1099,62.0,-62.0,-159.0,2
1100,86.0,-77.0,-191.0,2
1101,112.0,-95.0,-260.0,2
1102,145.0,-105.0,-351.0,2
1103,181.0,-108.0,-501.0,2
1104,199.0,-91.0,-777.0,2
1105,192.0,-53.0,-1132.0,2
1106,176.0,-45.0,-1411.0,2
1107,140.0,-227.0,-1417.0,2
1108,-180.0,-569.0,-897.0,2
1109,-612.0,-873.0,-534.0,2
1110,-607.0,-1052.0,-498.0,2
1111,-475.0,-1111.0,-470.0,2
1112,-277.0,-1087.0,-515.0,2
1113,6.0,-1028.0,-540.0,2
1114,184.0,-952.0,-469.0,2
1115,245.0,-806.0,-326.0,2
1116,338.0,-675.0,-233.0,2
1117,413.0,-497.0,-156.0,2
1118,501.0,-351.0,-55.0,2
1119,571.0,-193.0,40.0,2
1120,601.0,-51.0,102.0,2
1121,656.0,58.0,151.0,2
1122,711.0,142.0,176.0,2
1123,680.0,189.0,185.0,2
1124,620.0,179.0,159.0,2
1125,533.0,142.0,100.0,2
1126,443.0,122.0,52.0,2
1127,343.0,99.0,2.0,2
1128,250.0,83.0,-21.0,2
1129,179.0,52.0,-51.0,2
1130,113.0,18.0,-106.0,2
1131,86.0,-18.0,-164.0,2
1132,52.0,-64.0,-237.0,2
1133,9.0,-89.0,-276.0,2
1134,12.0,-85.0,-296.0,2
1135,-14.0,-96.0,-284.0,2
1136,-18.0,-102.0,-276.0,2
1137,-20.0,-97.0,-277.0,2
1138,17.0,-106.0,-281.0,2
1139,65.0,-106.0,-291.0,2
1140,116.0,-78.0,-317.0,2
1141,167.0,-52.0,-316.0,2
1142,198.0,-9.0,-308.0,2
1143,214.0,42.0,-293.0,2
1144,218.0,77.0,-275.0,2
1145,219.0,96.0,-277.0,2
1146,207.0,128.0,-300.0,2
1147,182.0,173.0,-318.0,2
1148,165.0,204.0,-327.0,2
1149,157.0,221.0,-314.0,2
1150,144.0,229.0,-296.0,2
1151,125.0,227.0,-293.0,2
1152,99.0,220.0,-281.0,1
1153,74.0,203.0,-266.0,1
1154,48.0,192.0,-251.0,1
1155,-3.0,202.0,-222.0,1
1156,-47.0,209.0,-204.0,1
1157,-85.0,204.0,-200.0,1
1158,-105.0,207.0,-213.0,1
1159,-76.0,267.0,-272.0,1
1160,-97.0,278.0,-281.0,1
1161,-148.0,193.0,-249.0,1
1162,-55.0,152.0,-276.0,1
1163,0.0,163.0,-292.0,1
1164,36.0,178.0,-250.0,1
1165,225.0,369.0,-315.0,1
1166,418.0,554.0,-333.0,1
1167,394.0,771.0,-412.0,1
1168,167.0,790.0,-341.0,1
1169,333.0,668.0,-304.0,1
1170,574.0,337.0,-224.0,1
1171,908.0,266.0,-247.0,1
1172,743.0,264.0,-381.0,1
1173,754.0,453.0,-456.0,1
1174,708.0,517.0,-544.0,1
1175,754.0,532.0,-665.0,1
1176,693.0,404.0,-819.0,1
1177,512.0,328.0,-889.0,1
1178,384.0,286.0,-832.0,1
1179,271.0,136.0,-691.0,1
1180,117.0,18.0,-527.0,1
1181,-25.0,-60.0,-310.0,1
1182,-15.0,-132.0,-106.0,1
1183,68.0,-116.0,-62.0,1
1184,85.0,-5.0,-66.0,1
1185,71.0,98.0,-81.0,1
1186,83.0,177.0,-81.0,1
1187,62.0,207.0,-45.0,1
1188,111.0,253.0,-3.0,1
1189,151.0,298.0,42.0,1
1190,164.0,295.0,45.0,1
1191,181.0,292.0,11.0,1
1192,201.0,291.0,-18.0,1
1193,240.0,298.0,-55.0,1
1194,291.0,294.0,-88.0,1
1195,321.0,294.0,-120.0,1
1196,338.0,276.0,-129.0,1
1197,333.0,248.0,-135.0,1
1198,320.0,203.0,-123.0,1
1199,311.0,131.0,-81.0,1
1200,292.0,77.0,-59.0,1
1201,276.0,39.0,-44.0,1
1202,255.0,25.0,-32.0,1
1203,231.0,16.0,-21.0,1
1204,210.0,22.0,-23.0,1
1205,189.0,25.0,-22.0,1
1206,169.0,23.0,-31.0,1
1207,144.0,30.0,-41.0,1
1208,127.0,40.0,-45.0,1
1209,116.0,55.0,-46.0,1
1210,92.0,62.0,-49.0,1
1211,92.0,63.0,-59.0,1
1212,83.0,68.0,-67.0,1
1213,67.0,74.0,-78.0,1
1214,48.0,75.0,-87.0,1
1215,38.0,72.0,-86.0,1
1216,41.0,65.0,-84.0,1
1217,39.0,71.0,-86.0,0
1218,58.0,83.0,-101.0,0
1219,80.0,97.0,-111.0,0
1220,73.0,115.0,-114.0,0
1221,88.0,122.0,-122.0,0
1222,162.0,127.0,-155.0,0
1223,191.0,119.0,-157.0,0
1224,204.0,105.0,-160.0,0
1225,196.0,98.0,-166.0,0
1226,206.0,83.0,-170.0,0
1227,241.0,74.0,-176.0,0
1228,267.0,65.0,-191.0,0
1229,287.0,49.0,-206.0,0
1230,274.0,40.0,-228.0,0
1231,254.0,35.0,-245.0,0
1232,242.0,36.0,-257.0,0
1233,243.0,27.0,-262.0,0
1234,247.0,27.0,-258.0,0
1235,240.0,22.0,-250.0,0
1236,234.0,16.0,-244.0,0
1237,240.0,22.0,-239.0,0
1238,233.0,16.0,-226.0,0
1239,238.0,25.0,-221.0,0
1240,228.0,34.0,-219.0,0
1241,223.0,35.0,-211.0,0
1242,209.0,38.0,-208.0,0
1243,209.0,48.0,-202.0,0
1244,213.0,67.0,-194.0,0
1245,204.0,77.0,-184.0,0
1246,198.0,73.0,-171.0,0
1247,189.0,65.0,-153.0,0
1248,188.0,50.0,-148.0,0
1249,179.0,34.0,-142.0,0
1250,182.0,25.0,-140.0,0
1251,171.0,13.0,-138.0,0
1252,178.0,3.0,-148.0,0
1253,174.0,-8.0,-147.0,0
1254,176.0,-31.0,-151.0,0
1255,183.0,-23.0,-158.0,0
1256,174.0,-33.0,-162.0,0
1257,185.0,-46.0,-160.0,0
1258,180.0,-54.0,-158.0,0
1259,187.0,-41.0,-185.0,0
1260,183.0,-6.0,-197.0,0
1261,185.0,-37.0,-173.0,0
1262,186.0,-29.0,-172.0,0
1263,199.0,-14.0,-175.0,0
1264,193.0,-13.0,-171.0,0
1265,193.0,4.0,-182.0,0
1266,195.0,29.0,-192.0,0
1267,180.0,10.0,-178.0,0
1268,188.0,1.0,-184.0,0
1269,182.0,9.0,-199.0,0
1270,193.0,0.0,-196.0,0
1271,196.0,2.0,-193.0,0
1272,190.0,16.0,-202.0,0
1273,190.0,57.0,-208.0,0
1274,184.0,9.0,-199.0,0
1275,195.0,-22.0,-173.0,0
1276,209.0,-20.0,-167.0,0
1277,196.0,4.0,-174.0,0
1278,191.0,17.0,-176.0,0
1279,187.0,23.0,-176.0,0
1280,184.0,24.0,-172.0,0
1281,183.0,22.0,-177.0,0
1282,179.0,23.0,-180.0,0
1283,181.0,25.0,-178.0,0
1284,180.0,23.0,-180.0,0
1285,179.0,23.0,-182.0,0
1286,180.0,23.0,-182.0,0
1287,181.0,21.0,-180.0,0
1288,188.0,21.0,-180.0,0
1289,191.0,20.0,-181.0,0
1290,192.0,20.0,-185.0,0
1291,195.0,21.0,-186.0,0
1292,193.0,18.0,-186.0,0
1293,193.0,16.0,-186.0,0
1294,192.0,16.0,-180.0,0
1295,192.0,17.0,-182.0,0
1296,190.0,20.0,-183.0,0
1297,186.0,19.0,-188.0,0
1298,186.0,19.0,-186.0,0
1299,187.0,18.0,-186.0,0
1300,180.0,20.0,-181.0,0
1301,179.0,18.0,-175.0,0
1302,181.0,17.0,-171.0,0
1303,178.0,21.0,-168.0,0
1304,181.0,23.0,-169.0,0
1305,179.0,25.0,-174.0,0
1306,183.0,25.0,-174.0,0
1307,185.0,24.0,-182.0,0
1308,184.0,25.0,-181.0,0
1309,187.0,28.0,-177.0,0
1310,182.0,26.0,-180.0,0
1311,185.0,25.0,-174.0,0
1312,185.0,23.0,-178.0,0
1313,186.0,23.0,-178.0,0
1314,201.0,38.0,-197.0,0
1315,177.0,25.0,-186.0,0
1316,189.0,19.0,-191.0,0
1317,187.0,16.0,-195.0,0
1318,188.0,22.0,-201.0,0
1319,183.0,18.0,-197.0,0
1320,187.0,10.0,-195.0,0
1321,188.0,11.0,-188.0,0
1322,181.0,5.0,-184.0,0
1323,192.0,8.0,-177.0,0
1324,193.0,8.0,-177.0,0
1325,187.0,6.0,-169.0,0
1326,190.0,9.0,-169.0,0
1327,191.0,11.0,-177.0,0
1328,188.0,15.0,-172.0,0
1329,189.0,28.0,-182.0,0
1330,169.0,31.0,-181.0,0
1331,186.0,9.0,-171.0,0
1332,191.0,8.0,-164.0,0
1333,188.0,9.0,-172.0,0
1334,186.0,11.0,-173.0,0
1335,183.0,15.0,-179.0,0
1336,184.0,19.0,-180.0,0
1337,187.0,19.0,-179.0,0
1338,192.0,21.0,-185.0,0
1339,188.0,40.0,-203.0,0
1340,206.0,54.0,-205.0,0
1341,170.0,61.0,-200.0,0
1342,183.0,22.0,-181.0,0
1343,190.0,10.0,-168.0,0
1344,191.0,8.0,-167.0,0
1345,198.0,1.0,-159.0,0
1346,196.0,10.0,-158.0,0
1347,201.0,14.0,-165.0,0
1348,188.0,56.0,-181.0,0
1349,183.0,25.0,-167.0,0
1350,208.0,-2.0,-161.0,0
1351,208.0,-9.0,-153.0,0
1352,210.0,-1.0,-161.0,0
1353,202.0,8.0,-161.0,0
1354,199.0,10.0,-159.0,0
1355,194.0,13.0,-158.0,0
1356,201.0,14.0,-159.0,0
1357,199.0,13.0,-150.0,0
1358,196.0,17.0,-154.0,0
1359,196.0,19.0,-146.0,0
1360,193.0,18.0,-144.0,0
1361,191.0,22.0,-139.0,0
1362,187.0,23.0,-147.0,0
1363,190.0,23.0,-139.0,0
1364,188.0,23.0,-138.0,0
1365,191.0,24.0,-141.0,0
1366,194.0,23.0,-144.0,0
1367,191.0,25.0,-149.0,0
1368,194.0,24.0,-149.0,0
1369,194.0,22.0,-153.0,0
1370,196.0,19.0,-152.0,0
1371,196.0,22.0,-159.0,0
1372,194.0,22.0,-159.0,0
1373,195.0,22.0,-154.0,0
1374,195.0,20.0,-160.0,0
1375,198.0,19.0,-161.0,0
1376,198.0,21.0,-159.0,0
1377,189.0,26.0,-156.0,0
1378,207.0,11.0,-150.0,0
1379,208.0,10.0,-148.0,0
1380,206.0,15.0,-155.0,0
1381,198.0,13.0,-151.0,0
1382,197.0,21.0,-153.0,0
1383,198.0,17.0,-152.0,0
1384,197.0,18.0,-154.0,0
1385,196.0,19.0,-153.0,0
1386,197.0,17.0,-158.0,0
1387,192.0,18.0,-156.0,0
1388,192.0,19.0,-154.0,0
1389,192.0,24.0,-162.0,0
1390,191.0,21.0,-160.0,0
1391,192.0,21.0,-158.0,0
1392,190.0,26.0,-160.0,0
1393,188.0,22.0,-160.0,0
1394,191.0,21.0,-160.0,0
1395,190.0,23.0,-162.0,0
1396,191.0,23.0,-165.0,0
1397,192.0,22.0,-164.0,0
1398,192.0,22.0,-174.0,0
1399,193.0,27.0,-177.0,0
1400,191.0,27.0,-176.0,0
1401,194.0,25.0,-176.0,0
1402,194.0,20.0,-179.0,0
1403,196.0,26.0,-182.0,0
1404,193.0,22.0,-181.0,0
1405,193.0,25.0,-185.0,0
1406,194.0,21.0,-182.0,0
1407,192.0,20.0,-180.0,0
1408,189.0,21.0,-182.0,0
1409,192.0,23.0,-184.0,0
1410,192.0,25.0,-182.0,0
1411,190.0,22.0,-184.0,0
1412,191.0,21.0,-180.0,0
1413,188.0,23.0,-176.0,0
1414,189.0,24.0,-182.0,0
1415,189.0,21.0,-181.0,0
1416,190.0,21.0,-177.0,0
1417,189.0,21.0,-178.0,0
1418,186.0,24.0,-177.0,0
1419,182.0,26.0,-178.0,0
1420,188.0,27.0,-180.0,0
1421,190.0,23.0,-175.0,0
1422,187.0,26.0,-181.0,0
1423,187.0,24.0,-180.0,0
1424,187.0,24.0,-174.0,0
1425,186.0,21.0,-177.0,0
1426,185.0,22.0,-174.0,0
1427,188.0,20.0,-178.0,0
1428,186.0,19.0,-176.0,0
1429,189.0,21.0,-175.0,0
1430,191.0,19.0,-174.0,0
1431,185.0,21.0,-176.0,0
1432,188.0,23.0,-177.0,0
1433,182.0,22.0,-175.0,0
1434,187.0,22.0,-174.0,0
1435,185.0,26.0,-170.0,0
1436,184.0,23.0,-171.0,0
1437,186.0,25.0,-172.0,0
1438,185.0,26.0,-175.0,0
1439,187.0,23.0,-174.0,0
1440,188.0,26.0,-172.0,0
1441,190.0,25.0,-178.0,0
1442,190.0,26.0,-178.0,0
1443,189.0,27.0,-175.0,0
1444,191.0,24.0,-176.0,0
1445,190.0,26.0,-178.0,0
1446,190.0,26.0,-178.0,0
1447,187.0,24.0,-178.0,0
1448,189.0,22.0,-178.0,0
1449,188.0,26.0,-176.0,0
1450,187.0,21.0,-180.0,0
1451,190.0,24.0,-176.0,0
1452,190.0,23.0,-174.0,0
1453,186.0,26.0,-173.0,0
1454,188.0,29.0,-174.0,0
1455,186.0,25.0,-172.0,0
1456,186.0,25.0,-174.0,0
1457,187.0,26.0,-172.0,0
1458,184.0,27.0,-170.0,0
1459,186.0,25.0,-170.0,0
1460,187.0,24.0,-168.0,0
1461,188.0,26.0,-171.0,0
1462,183.0,26.0,-175.0,0
1463,189.0,26.0,-172.0,0
1464,189.0,22.0,-170.0,0
1465,187.0,23.0,-172.0,0
1466,186.0,21.0,-174.0,0
1467,188.0,23.0,-169.0,0
1468,189.0,22.0,-172.0,0
1469,189.0,23.0,-173.0,0
1470,192.0,22.0,-171.0,0
1471,188.0,23.0,-174.0,0
1472,187.0,26.0,-167.0,0
1473,189.0,24.0,-171.0,0
1474,187.0,26.0,-173.0,0
1475,186.0,23.0,-173.0,0
1476,186.0,25.0,-169.0,0
1477,189.0,25.0,-170.0,0
1478,187.0,24.0,-171.0,0
1479,187.0,22.0,-172.0,0
1480,185.0,23.0,-168.0,0
1481,188.0,21.0,-172.0,0
1482,190.0,20.0,-173.0,0
1483,188.0,18.0,-169.0,0
1484,187.0,20.0,-172.0,0
1485,189.0,20.0,-173.0,0
1486,189.0,22.0,-173.0,0
1487,189.0,23.0,-173.0,0
1488,190.0,22.0,-177.0,0
1489,188.0,23.0,-176.0,0
1490,188.0,24.0,-174.0,0
1491,186.0,26.0,-170.0,0
1492,187.0,25.0,-176.0,0
1493,186.0,32.0,-171.0,0
1494,184.0,24.0,-170.0,0
1495,186.0,26.0,-171.0,0
1496,190.0,22.0,-170.0,0
1497,186.0,23.0,-172.0,0
1498,185.0,23.0,-172.0,0
1499,188.0,21.0,-167.0,0
1500,190.0,23.0,-170.0,0
1501,189.0,22.0,-168.0,0
1502,185.0,23.0,-171.0,0
1503,188.0,25.0,-169.0,0
1504,187.0,23.0,-171.0,0
1505,189.0,24.0,-173.0,0
1506,187.0,24.0,-172.0,0
1507,184.0,25.0,-174.0,0
1508,186.0,25.0,-177.0,0
1509,189.0,20.0,-177.0,0
1510,185.0,28.0,-173.0,0
1511,185.0,25.0,-175.0,0
1512,183.0,27.0,-174.0,0
1513,187.0,21.0,-179.0,0
1514,183.0,24.0,-178.0,0
1515,184.0,25.0,-189.0,0
1516,184.0,24.0,-177.0,0
1517,187.0,25.0,-176.0,0
1518,186.0,26.0,-177.0,0
1519,186.0,27.0,-178.0,0
1520,184.0,26.0,-181.0,0
1521,183.0,25.0,-181.0,0
1522,183.0,27.0,-177.0,0
1523,186.0,23.0,-177.0,0
1524,183.0,25.0,-176.0,0
1525,183.0,24.0,-176.0,0
1526,182.0,27.0,-178.0,0
1527,184.0,29.0,-180.0,0
1528,183.0,25.0,-178.0,0
1529,182.0,24.0,-179.0,0
1530,182.0,26.0,-174.0,0
1531,185.0,25.0,-178.0,0
1532,182.0,27.0,-174.0,0
1533,186.0,25.0,-176.0,0
1534,182.0,24.0,-174.0,0
1535,183.0,26.0,-177.0,0
1536,184.0,29.0,-178.0,0
1537,179.0,23.0,-177.0,0
1538,183.0,26.0,-175.0,0
1539,185.0,26.0,-181.0,0
1540,179.0,27.0,-178.0,0
1541,181.0,27.0,-176.0,0
1542,181.0,25.0,-180.0,0
1543,182.0,24.0,-179.0,0
1544,178.0,27.0,-179.0,0
1545,182.0,25.0,-177.0,0
1546,183.0,24.0,-180.0,0
1547,182.0,25.0,-182.0,0
1548,185.0,25.0,-181.0,0
1549,183.0,21.0,-184.0,0
1550,182.0,23.0,-183.0,0
1551,184.0,25.0,-182.0,0
1552,182.0,27.0,-184.0,0
1553,180.0,24.0,-182.0,0
1554,182.0,23.0,-183.0,0
1555,181.0,28.0,-185.0,0
1556,181.0,26.0,-181.0,0
1557,179.0,29.0,-184.0,0
1558,182.0,25.0,-188.0,0
1559,173.0,30.0,-188.0,0
1560,181.0,28.0,-185.0,0
1561,178.0,26.0,-187.0,0
1562,176.0,24.0,-184.0,0
1563,179.0,25.0,-186.0,0
1564,178.0,25.0,-188.0,0
1565,178.0,25.0,-183.0,0
1566,178.0,28.0,-186.0,0
1567,179.0,24.0,-188.0,0
1568,180.0,24.0,-186.0,0
1569,179.0,23.0,-185.0,0
1570,181.0,25.0,-186.0,0
1571,178.0,26.0,-183.0,0
1572,179.0,23.0,-186.0,0
1573,176.0,28.0,-182.0,0
1574,176.0,28.0,-184.0,0
1575,177.0,28.0,-185.0,0
1576,177.0,24.0,-185.0,0
1577,177.0,26.0,-185.0,0
1578,176.0,25.0,-185.0,0
1579,178.0,23.0,-185.0,0
1580,177.0,26.0,-185.0,0
1581,183.0,17.0,-186.0,0
1582,175.0,24.0,-183.0,0
1583,179.0,22.0,-185.0,0
1584,177.0,24.0,-183.0,0
1585,180.0,27.0,-186.0,0
1586,176.0,25.0,-186.0,0
1587,180.0,22.0,-188.0,0
1588,177.0,26.0,-183.0,0
1589,180.0,24.0,-180.0,0
1590,178.0,26.0,-178.0,0
1591,179.0,23.0,-183.0,0
1592,175.0,26.0,-183.0,0
1593,180.0,24.0,-184.0,0
1594,177.0,27.0,-187.0,0
1595,177.0,23.0,-183.0,0
1596,178.0,23.0,-184.0,0
1597,179.0,23.0,-182.0,0
1598,178.0,23.0,-183.0,0
1599,177.0,23.0,-185.0,0
1600,178.0,22.0,-179.0,0
1601,179.0,23.0,-188.0,0
1602,171.0,25.0,-189.0,0
1603,177.0,24.0,-184.0,0
1604,179.0,26.0,-185.0,0
1605,178.0,23.0,-184.0,0
1606,177.0,27.0,-186.0,0
1607,178.0,24.0,-185.0,0
1608,179.0,28.0,-186.0,0
1609,179.0,24.0,-188.0,0
1610,178.0,28.0,-187.0,0
1611,173.0,27.0,-188.0,0
1612,183.0,25.0,-178.0,0
1613,176.0,23.0,-183.0,0
1614,180.0,23.0,-183.0,0
1615,175.0,25.0,-184.0,0
1616,176.0,25.0,-182.0,0
1617,179.0,26.0,-183.0,0
1618,176.0,28.0,-183.0,0
1619,177.0,23.0,-187.0,0
1620,178.0,28.0,-186.0,0
1621,177.0,26.0,-187.0,0
1622,176.0,26.0,-185.0,0
1623,175.0,25.0,-182.0,0
1624,178.0,27.0,-176.0,0
1625,176.0,28.0,-184.0,0
1626,174.0,30.0,-187.0,0
1627,175.0,28.0,-188.0,0
1628,177.0,25.0,-184.0,0
1629,173.0,29.0,-189.0,0
1630,177.0,25.0,-184.0,0
1631,174.0,25.0,-184.0,0
1632,174.0,27.0,-183.0,0
1633,174.0,25.0,-184.0,0
1634,176.0,27.0,-183.0,0
1635,176.0,23.0,-186.0,0
1636,174.0,24.0,-184.0,0
1637,174.0,25.0,-183.0,0
1638,175.0,24.0,-182.0,0
1639,172.0,26.0,-185.0,0
1640,174.0,27.0,-183.0,0
1641,176.0,23.0,-190.0,0
1642,177.0,27.0,-194.0,0
1643,175.0,26.0,-195.0,0
1644,173.0,26.0,-197.0,0
1645,177.0,27.0,-193.0,0
1646,177.0,22.0,-189.0,0
1647,173.0,24.0,-193.0,0
1648,173.0,25.0,-189.0,0
1649,153.0,22.0,-183.0,0
1650,185.0,29.0,-194.0,0
1651,187.0,21.0,-184.0,0
1652,176.0,21.0,-187.0,0
1653,176.0,23.0,-188.0,0
1654,178.0,22.0,-188.0,0
1655,177.0,22.0,-193.0,0
1656,175.0,27.0,-189.0,0
1657,174.0,26.0,-190.0,0
1658,175.0,25.0,-193.0,0
1659,176.0,26.0,-192.0,0
1660,175.0,26.0,-192.0,0
1661,174.0,26.0,-189.0,0
1662,175.0,28.0,-195.0,0
1663,173.0,29.0,-191.0,0
1664,176.0,29.0,-191.0,0
1665,173.0,27.0,-188.0,0
1666,173.0,26.0,-189.0,0
1667,173.0,26.0,-184.0,0
1668,174.0,22.0,-187.0,0
1669,173.0,25.0,-185.0,0
1670,176.0,25.0,-186.0,0
1671,174.0,24.0,-187.0,0
1672,174.0,26.0,-187.0,0
1673,176.0,22.0,-180.0,0
1674,173.0,24.0,-185.0,0
1675,172.0,23.0,-184.0,0
1676,173.0,27.0,-184.0,0
1677,174.0,26.0,-184.0,0
1678,173.0,27.0,-182.0,0
1679,174.0,24.0,-182.0,0
1680,173.0,27.0,-186.0,0
1681,171.0,24.0,-186.0,0
1682,174.0,24.0,-187.0,0
1683,174.0,21.0,-184.0,0
1684,173.0,23.0,-187.0,0
1685,173.0,21.0,-185.0,0
1686,173.0,25.0,-184.0,0
1687,175.0,27.0,-188.0,0
1688,174.0,24.0,-184.0,0
1689,174.0,23.0,-185.0,0
1690,173.0,27.0,-189.0,0
1691,175.0,25.0,-185.0,0
1692,175.0,27.0,-187.0,0
1693,177.0,21.0,-190.0,0
1694,176.0,25.0,-192.0,0
1695,178.0,25.0,-187.0,0
1696,176.0,24.0,-192.0,0
1697,174.0,25.0,-189.0,0
1698,172.0,23.0,-187.0,0
1699,167.0,23.0,-186.0,0
1700,165.0,33.0,-197.0,0
1701,192.0,24.0,-186.0,0
1702,183.0,21.0,-187.0,0
1703,174.0,22.0,-186.0,0
1704,171.0,24.0,-190.0,0
1705,174.0,24.0,-190.0,0
1706,175.0,24.0,-192.0,0
1707,177.0,23.0,-190.0,0
1708,176.0,27.0,-191.0,0
1709,177.0,23.0,-189.0,0
1710,175.0,23.0,-187.0,0
1711,176.0,21.0,-183.0,0
1712,173.0,24.0,-188.0,0
1713,174.0,25.0,-188.0,0
1714,173.0,26.0,-187.0,0
1715,170.0,25.0,-190.0,0
1716,174.0,26.0,-188.0,0
1717,171.0,27.0,-186.0,0
1718,172.0,24.0,-189.0,0
1719,170.0,26.0,-188.0,0
1720,175.0,23.0,-189.0,0
1721,171.0,25.0,-189.0,0
1722,174.0,24.0,-190.0,0
1723,173.0,24.0,-184.0,0
1724,171.0,23.0,-188.0,0
1725,173.0,23.0,-189.0,0
1726,170.0,28.0,-186.0,0
1727,173.0,23.0,-184.0,0
1728,173.0,22.0,-185.0,0
1729,173.0,24.0,-186.0,0
1730,173.0,27.0,-185.0,0
1731,173.0,24.0,-189.0,0
1732,172.0,26.0,-189.0,0
1733,171.0,27.0,-190.0,0
1734,175.0,25.0,-189.0,0
1735,175.0,25.0,-185.0,0
1736,173.0,31.0,-182.0,0
1737,171.0,26.0,-184.0,0
1738,172.0,23.0,-184.0,0
1739,169.0,26.0,-182.0,0
1740,175.0,23.0,-185.0,0
1741,175.0,24.0,-188.0,0
1742,170.0,24.0,-190.0,0
1743,174.0,25.0,-189.0,0
1744,172.0,25.0,-192.0,0
1745,168.0,25.0,-189.0,0
1746,166.0,20.0,-191.0,0
1747,102.0,10.0,-160.0,0
1748,192.0,32.0,-190.0,0
1749,180.0,25.0,-179.0,0
1750,173.0,23.0,-184.0,0
1751,171.0,24.0,-190.0,0
1752,173.0,20.0,-188.0,0
1753,171.0,24.0,-191.0,0
1754,168.0,25.0,-195.0,0
1755,168.0,25.0,-191.0,0
1756,174.0,25.0,-193.0,0
1757,174.0,23.0,-190.0,0
1758,168.0,22.0,-193.0,0
1759,170.0,23.0,-193.0,0
1760,167.0,25.0,-193.0,0
1761,169.0,23.0,-191.0,0
1762,168.0,26.0,-191.0,0
1763,171.0,22.0,-192.0,0
1764,170.0,24.0,-194.0,0
1765,166.0,25.0,-193.0,0
1766,166.0,25.0,-192.0,0
1767,169.0,25.0,-191.0,0
1768,169.0,23.0,-195.0,0
1769,168.0,23.0,-197.0,0
1770,169.0,23.0,-194.0,0
1771,168.0,24.0,-197.0,0
1772,168.0,23.0,-193.0,0
1773,169.0,22.0,-197.0,0
1774,167.0,24.0,-197.0,0
1775,169.0,24.0,-195.0,0
1776,168.0,22.0,-196.0,0
1777,165.0,26.0,-193.0,0
1778,166.0,26.0,-195.0,0
1779,169.0,22.0,-195.0,0
1780,163.0,25.0,-196.0,0
1781,167.0,23.0,-193.0,0
1782,167.0,23.0,-197.0,0
1783,166.0,21.0,-191.0,0
1784,165.0,23.0,-189.0,0
1785,165.0,24.0,-190.0,0
1786,165.0,22.0,-189.0,0
1787,164.0,23.0,-195.0,0
1788,162.0,22.0,-194.0,0
1789,164.0,24.0,-193.0,0
1790,173.0,26.0,-195.0,0
1791,170.0,27.0,-199.0,0
1792,166.0,25.0,-196.0,0
1793,163.0,24.0,-198.0,0
1794,167.0,25.0,-198.0,0
1795,167.0,26.0,-197.0,0
1796,166.0,22.0,-196.0,0
1797,163.0,24.0,-198.0,0
1798,163.0,25.0,-197.0,0
1799,166.0,21.0,-196.0,0
1800,162.0,25.0,-194.0,0
1801,165.0,24.0,-199.0,0
1802,164.0,23.0,-198.0,0
1803,163.0,23.0,-198.0,0
1804,165.0,23.0,-199.0,0
1805,166.0,26.0,-197.0,0
1806,163.0,27.0,-197.0,0
1807,164.0,25.0,-200.0,0
1808,165.0,25.0,-203.0,0
1809,163.0,28.0,-200.0,0
1810,164.0,26.0,-196.0,0
1811,162.0,25.0,-192.0,0
1812,160.0,25.0,-198.0,0
1813,164.0,26.0,-197.0,0
1814,164.0,28.0,-198.0,0
1815,160.0,26.0,-197.0,0
1816,163.0,25.0,-197.0,0
1817,162.0,27.0,-194.0,0
1818,163.0,28.0,-197.0,0
1819,162.0,28.0,-196.0,0
1820,164.0,27.0,-195.0,0
1821,162.0,27.0,-199.0,0
1822,162.0,23.0,-196.0,0
1823,163.0,23.0,-198.0,0
1824,164.0,24.0,-199.0,0
1825,162.0,27.0,-196.0,0
1826,162.0,25.0,-195.0,0
1827,166.0,25.0,-201.0,0
1828,167.0,23.0,-195.0,0
1829,161.0,25.0,-196.0,0
1830,163.0,26.0,-198.0,0
1831,161.0,23.0,-199.0,0
1832,162.0,24.0,-198.0,0
1833,163.0,25.0,-193.0,0
1834,165.0,23.0,-193.0,0
1835,162.0,26.0,-195.0,0
1836,163.0,25.0,-192.0,0
1837,162.0,26.0,-191.0,0
1838,162.0,24.0,-196.0,0
1839,161.0,24.0,-193.0,0
1840,162.0,28.0,-194.0,0
1841,161.0,33.0,-193.0,0
1842,166.0,26.0,-197.0,0
1843,164.0,29.0,-201.0,0
1844,163.0,26.0,-201.0,0
1845,164.0,25.0,-198.0,0
1846,161.0,27.0,-199.0,0
1847,162.0,25.0,-194.0,0
1848,163.0,23.0,-198.0,0
1849,162.0,23.0,-198.0,0
1850,163.0,26.0,-194.0,0
1851,160.0,28.0,-199.0,0
1852,160.0,25.0,-197.0,0
1853,161.0,22.0,-197.0,0
1854,161.0,20.0,-197.0,0
1855,163.0,24.0,-199.0,0
1856,160.0,28.0,-198.0,0
1857,162.0,25.0,-201.0,0
1858,160.0,24.0,-198.0,0
1859,162.0,24.0,-200.0,0
1860,159.0,27.0,-202.0,0
1861,160.0,26.0,-202.0,0
1862,161.0,27.0,-197.0,0
1863,161.0,22.0,-198.0,0
1864,161.0,24.0,-202.0,0
1865,160.0,26.0,-202.0,0
1866,160.0,26.0,-199.0,0
1867,162.0,25.0,-200.0,0
1868,159.0,23.0,-198.0,0
1869,161.0,24.0,-197.0,0
1870,162.0,26.0,-198.0,0
1871,160.0,25.0,-195.0,0
1872,160.0,28.0,-201.0,0
1873,159.0,25.0,-200.0,0
1874,157.0,23.0,-198.0,0
1875,158.0,24.0,-199.0,0
1876,161.0,24.0,-199.0,0
1877,160.0,25.0,-196.0,0
1878,161.0,26.0,-201.0,0
1879,159.0,23.0,-196.0,0
1880,158.0,23.0,-196.0,0
1881,160.0,24.0,-198.0,0
1882,162.0,26.0,-195.0,0
1883,160.0,24.0,-202.0,0
1884,162.0,25.0,-196.0,0
1885,160.0,25.0,-201.0,0
1886,160.0,33.0,-205.0,0
1887,157.0,27.0,-195.0,0
1888,160.0,23.0,-200.0,0
1889,161.0,24.0,-203.0,0
1890,159.0,22.0,-200.0,0
1891,161.0,24.0,-203.0,0
1892,161.0,23.0,-198.0,0
1893,160.0,24.0,-202.0,0
1894,158.0,26.0,-200.0,0
1895,158.0,24.0,-201.0,0
1896,164.0,23.0,-202.0,0
1897,161.0,25.0,-201.0,0
1898,160.0,25.0,-201.0,0
1899,157.0,25.0,-201.0,0
1900,159.0,25.0,-199.0,0
1901,161.0,26.0,-203.0,0
1902,154.0,29.0,-202.0,0
1903,161.0,24.0,-200.0,0
1904,161.0,23.0,-202.0,0
1905,157.0,26.0,-196.0,0
1906,157.0,23.0,-199.0,0
1907,160.0,26.0,-194.0,0
1908,157.0,25.0,-200.0,0
1909,157.0,24.0,-202.0,0
1910,158.0,28.0,-202.0,0
1911,158.0,26.0,-199.0,0
1912,157.0,26.0,-200.0,0
1913,158.0,24.0,-201.0,0
1914,159.0,25.0,-205.0,0
1915,160.0,25.0,-202.0,0
1916,156.0,23.0,-198.0,0
1917,158.0,25.0,-202.0,0
1918,156.0,25.0,-198.0,0
1919,159.0,21.0,-197.0,0
1920,159.0,23.0,-201.0,0
1921,161.0,23.0,-200.0,0
1922,159.0,23.0,-201.0,0
1923,158.0,23.0,-199.0,0
1924,158.0,25.0,-199.0,0
1925,158.0,27.0,-197.0,0
1926,160.0,26.0,-198.0,0
1927,157.0,25.0,-197.0,0
1928,159.0,23.0,-198.0,0
1929,158.0,25.0,-205.0,0
1930,161.0,26.0,-201.0,0
1931,157.0,27.0,-198.0,0
1932,157.0,27.0,-199.0,0
1933,160.0,27.0,-199.0,0
1934,159.0,23.0,-200.0,0
1935,157.0,28.0,-204.0,0
1936,157.0,27.0,-205.0,0
1937,156.0,25.0,-203.0,0
1938,156.0,24.0,-202.0,0
1939,154.0,27.0,-201.0,0
1940,155.0,26.0,-206.0,0
1941,157.0,21.0,-200.0,0
1942,157.0,23.0,-201.0,0
1943,156.0,23.0,-201.0,0
1944,157.0,23.0,-201.0,0
1945,157.0,23.0,-201.0,0
1946,155.0,26.0,-201.0,0
1947,155.0,22.0,-196.0,0
1948,157.0,22.0,-198.0,0
1949,158.0,25.0,-204.0,0
1950,155.0,28.0,-201.0,0
1951,163.0,33.0,-200.0,0
1952,157.0,24.0,-205.0,0
1953,156.0,25.0,-199.0,0
1954,153.0,27.0,-200.0,0
1955,152.0,24.0,-200.0,0
1956,156.0,25.0,-205.0,0
1957,156.0,27.0,-206.0,0
1958,153.0,29.0,-206.0,0
1959,155.0,29.0,-198.0,0
1960,154.0,27.0,-204.0,0
1961,154.0,27.0,-205.0,0
1962,151.0,27.0,-205.0,0
1963,153.0,27.0,-204.0,0
1964,155.0,29.0,-204.0,0
1965,154.0,27.0,-205.0,0
1966,155.0,24.0,-205.0,0
1967,149.0,29.0,-206.0,0
1968,155.0,24.0,-206.0,0
1969,157.0,24.0,-205.0,0
1970,155.0,25.0,-203.0,0
1971,155.0,24.0,-203.0,0
1972,154.0,24.0,-201.0,0
1973,148.0,24.0,-191.0,0
1974,156.0,26.0,-199.0,0
1975,154.0,25.0,-206.0,0
1976,153.0,26.0,-207.0,0
1977,155.0,26.0,-205.0,0
1978,152.0,22.0,-203.0,0
1979,152.0,27.0,-205.0,0
1980,153.0,28.0,-206.0,0
1981,154.0,28.0,-207.0,0
1982,151.0,26.0,-206.0,0
1983,156.0,23.0,-204.0,0
1984,153.0,25.0,-205.0,0
1985,152.0,25.0,-208.0,0
1986,153.0,27.0,-205.0,0
1987,148.0,28.0,-208.0,0
1988,154.0,25.0,-210.0,0
1989,155.0,23.0,-201.0,0
1990,151.0,27.0,-206.0,0
1991,153.0,24.0,-204.0,0
1992,154.0,22.0,-205.0,0
1993,152.0,23.0,-201.0,0
1994,153.0,26.0,-207.0,0
1995,155.0,21.0,-200.0,0
1996,153.0,26.0,-203.0,0
1997,155.0,27.0,-206.0,0
1998,154.0,25.0,-205.0,0
1999,152.0,28.0,-206.0,0
2000,151.0,25.0,-208.0,0
2001,153.0,26.0,-207.0,0
2002,155.0,25.0,-208.0,0
2003,153.0,25.0,-199.0,0
2004,153.0,28.0,-211.0,0
2005,152.0,25.0,-210.0,0
2006,155.0,28.0,-208.0,0
2007,153.0,26.0,-209.0,0
2008,153.0,25.0,-208.0,0
2009,152.0,23.0,-206.0,0
2010,150.0,26.0,-206.0,0
2011,152.0,23.0,-207.0,0
2012,150.0,24.0,-206.0,0
2013,153.0,26.0,-204.0,0
2014,151.0,25.0,-207.0,0
2015,154.0,24.0,-205.0,0
2016,156.0,25.0,-209.0,0
2017,153.0,24.0,-198.0,0
2018,153.0,22.0,-204.0,0
2019,153.0,27.0,-204.0,0
2020,154.0,23.0,-204.0,0
2021,151.0,24.0,-200.0,0
2022,153.0,24.0,-203.0,0
2023,151.0,25.0,-202.0,0
2024,148.0,28.0,-203.0,0
2025,154.0,24.0,-200.0,0
2026,154.0,25.0,-205.0,0
2027,154.0,25.0,-205.0,0
2028,153.0,25.0,-207.0,0
2029,151.0,22.0,-202.0,0
2030,150.0,25.0,-207.0,0
2031,156.0,21.0,-204.0,0
2032,154.0,24.0,-206.0,0
2033,152.0,24.0,-206.0,0
2034,151.0,23.0,-208.0,0
2035,156.0,22.0,-205.0,0
2036,156.0,25.0,-208.0,0
2037,155.0,22.0,-208.0,0
2038,149.0,19.0,-207.0,0
2039,151.0,23.0,-205.0,0
2040,150.0,26.0,-206.0,0
2041,152.0,28.0,-209.0,0
2042,152.0,25.0,-204.0,0
2043,153.0,24.0,-204.0,0
2044,153.0,25.0,-204.0,0
2045,151.0,27.0,-204.0,0
2046,152.0,25.0,-206.0,0
2047,152.0,28.0,-205.0,0
2048,153.0,24.0,-204.0,0
2049,154.0,25.0,-198.0,0
2050,152.0,23.0,-201.0,0
2051,155.0,26.0,-201.0,0
2052,152.0,24.0,-198.0,0
2053,154.0,24.0,-198.0,0
2054,151.0,28.0,-206.0,0
2055,153.0,27.0,-204.0,0
2056,151.0,26.0,-206.0,0
2057,153.0,23.0,-206.0,0
2058,151.0,23.0,-208.0,0
2059,152.0,27.0,-208.0,0
2060,145.0,26.0,-203.0,0
2061,152.0,25.0,-207.0,0
2062,151.0,23.0,-207.0,0
2063,153.0,23.0,-208.0,0
2064,154.0,22.0,-209.0,0
2065,150.0,27.0,-205.0,0
2066,154.0,24.0,-207.0,0
2067,152.0,26.0,-208.0,0
2068,151.0,25.0,-211.0,0
2069,152.0,24.0,-210.0,0
2070,152.0,26.0,-209.0,0
2071,153.0,26.0,-207.0,0
2072,151.0,28.0,-207.0,0
2073,150.0,27.0,-205.0,0
2074,153.0,23.0,-208.0,0
2075,153.0,25.0,-208.0,0
2076,150.0,27.0,-208.0,0
2077,155.0,25.0,-205.0,0
2078,156.0,25.0,-207.0,0
2079,151.0,25.0,-204.0,0
2080,152.0,24.0,-203.0,0
2081,152.0,25.0,-204.0,0
2082,154.0,21.0,-202.0,0
2083,149.0,26.0,-209.0,0
2084,150.0,27.0,-209.0,0
2085,152.0,24.0,-208.0,0
2086,151.0,24.0,-208.0,0
2087,153.0,21.0,-209.0,0
2088,152.0,25.0,-209.0,0
2089,152.0,25.0,-207.0,0
2090,152.0,25.0,-208.0,0
2091,155.0,26.0,-205.0,0
2092,155.0,27.0,-209.0,0
2093,153.0,25.0,-206.0,0
2094,156.0,27.0,-204.0,0
2095,152.0,26.0,-203.0,0
2096,154.0,24.0,-205.0,0
2097,155.0,24.0,-203.0,0
2098,156.0,26.0,-206.0,0
2099,155.0,22.0,-200.0,0
2100,157.0,25.0,-201.0,0
2101,153.0,26.0,-199.0,0
2102,158.0,25.0,-203.0,0
2103,155.0,26.0,-204.0,0
2104,155.0,28.0,-203.0,0
2105,156.0,28.0,-201.0,0
2106,154.0,26.0,-206.0,0
2107,157.0,25.0,-203.0,0
2108,157.0,27.0,-204.0,0
2109,157.0,25.0,-200.0,0
2110,158.0,25.0,-199.0,0
2111,157.0,26.0,-200.0,0
2112,155.0,29.0,-200.0,0
2113,156.0,28.0,-196.0,0
2114,157.0,27.0,-203.0,0
2115,155.0,30.0,-201.0,0
2116,156.0,27.0,-199.0,0
2117,157.0,25.0,-199.0,0
2118,154.0,27.0,-198.0,0
2119,157.0,28.0,-201.0,0
2120,158.0,27.0,-204.0,0
2121,158.0,26.0,-200.0,0
2122,157.0,27.0,-204.0,0
2123,157.0,28.0,-201.0,0
2124,156.0,28.0,-203.0,0
2125,157.0,27.0,-201.0,0
2126,157.0,27.0,-199.0,0
2127,158.0,27.0,-201.0,0
2128,158.0,30.0,-202.0,0
2129,158.0,26.0,-196.0,0
2130,157.0,25.0,-198.0,0
2131,157.0,28.0,-200.0,0
2132,158.0,26.0,-201.0,0
2133,159.0,25.0,-196.0,0
2134,158.0,24.0,-197.0,0
2135,157.0,29.0,-203.0,0
2136,160.0,25.0,-199.0,0
2137,160.0,21.0,-195.0,0
2138,160.0,25.0,-203.0,0
2139,159.0,28.0,-199.0,0
2140,160.0,22.0,-201.0,0
2141,158.0,24.0,-201.0,0
2142,160.0,27.0,-199.0,0
2143,161.0,25.0,-199.0,0
2144,157.0,27.0,-204.0,0
2145,159.0,27.0,-201.0,0
2146,160.0,24.0,-197.0,0
2147,160.0,26.0,-202.0,0
2148,159.0,25.0,-204.0,0
2149,158.0,27.0,-201.0,0
2150,156.0,23.0,-199.0,0
2151,159.0,26.0,-207.0,0
2152,158.0,23.0,-202.0,0
2153,156.0,27.0,-199.0,0
2154,160.0,25.0,-203.0,0
2155,158.0,27.0,-206.0,0
2156,158.0,23.0,-200.0,0
2157,158.0,26.0,-202.0,0
2158,160.0,27.0,-201.0,0
2159,157.0,24.0,-200.0,0
2160,157.0,26.0,-200.0,0
2161,159.0,24.0,-198.0,0
2162,156.0,25.0,-198.0,0
2163,159.0,26.0,-194.0,0
2164,159.0,27.0,-196.0,0
2165,161.0,28.0,-197.0,0
2166,162.0,25.0,-201.0,0
2167,157.0,28.0,-203.0,0
2168,165.0,26.0,-197.0,0
2169,156.0,26.0,-200.0,0
2170,159.0,26.0,-198.0,0
2171,159.0,27.0,-202.0,0
2172,158.0,24.0,-198.0,0
2173,159.0,24.0,-198.0,0
2174,159.0,24.0,-198.0,0
2175,160.0,27.0,-199.0,0
2176,160.0,24.0,-199.0,0
2177,150.0,24.0,-196.0,0
2178,159.0,31.0,-204.0,0
2179,185.0,36.0,-207.0,0
2180,168.0,27.0,-199.0,0
2181,157.0,27.0,-199.0,0
2182,156.0,29.0,-197.0,0
2183,158.0,28.0,-201.0,0
2184,161.0,25.0,-200.0,0
2185,158.0,28.0,-201.0,0
2186,156.0,24.0,-199.0,0
2187,156.0,27.0,-203.0,0
2188,152.0,25.0,-198.0,0
2189,160.0,28.0,-198.0,0
2190,160.0,28.0,-200.0,0
2191,162.0,28.0,-202.0,0
2192,157.0,28.0,-203.0,0
2193,158.0,26.0,-202.0,0
2194,159.0,28.0,-201.0,0
2195,159.0,25.0,-198.0,0
2196,157.0,27.0,-196.0,0
2197,160.0,29.0,-194.0,0
2198,158.0,29.0,-200.0,0
2199,157.0,27.0,-202.0,0
2200,159.0,28.0,-197.0,0
2201,160.0,26.0,-199.0,0
2202,157.0,30.0,-200.0,0
2203,161.0,28.0,-196.0,0
2204,158.0,27.0,-202.0,0
2205,159.0,25.0,-201.0,0
2206,159.0,27.0,-198.0,0
2207,157.0,29.0,-201.0,0
2208,160.0,26.0,-196.0,0
2209,160.0,26.0,-199.0,0
2210,158.0,26.0,-199.0,0
2211,156.0,30.0,-203.0,0
2212,158.0,16.0,-197.0,0
2213,158.0,29.0,-201.0,0
2214,158.0,28.0,-200.0,0
2215,159.0,25.0,-201.0,0
2216,159.0,28.0,-205.0,0
2217,157.0,28.0,-200.0,0
2218,157.0,25.0,-200.0,0
2219,155.0,29.0,-203.0,0
2220,158.0,26.0,-203.0,0
2221,160.0,25.0,-206.0,0
2222,158.0,25.0,-200.0,0
2223,160.0,24.0,-206.0,0
2224,158.0,25.0,-200.0,0
2225,156.0,27.0,-197.0,0
2226,160.0,24.0,-201.0,0
2227,159.0,25.0,-201.0,0
2228,159.0,26.0,-203.0,0
2229,156.0,28.0,-202.0,0
2230,155.0,27.0,-202.0,0
2231,160.0,26.0,-201.0,0
2232,156.0,26.0,-203.0,0
2233,157.0,28.0,-200.0,0
2234,166.0,26.0,-196.0,0
2235,158.0,26.0,-200.0,0
2236,157.0,29.0,-203.0,0
2237,158.0,26.0,-202.0,0
2238,156.0,29.0,-202.0,0
2239,156.0,29.0,-203.0,0
2240,158.0,25.0,-200.0,0
2241,156.0,25.0,-203.0,0
2242,155.0,27.0,-202.0,0
2243,158.0,24.0,-202.0,0
2244,158.0,27.0,-199.0,0
2245,159.0,25.0,-199.0,0
2246,158.0,24.0,-201.0,0
2247,155.0,27.0,-198.0,0
2248,154.0,29.0,-199.0,0
2249,157.0,24.0,-201.0,0
2250,159.0,25.0,-202.0,0
2251,154.0,29.0,-197.0,0
2252,159.0,30.0,-203.0,0
2253,154.0,30.0,-198.0,0
2254,160.0,24.0,-201.0,0
2255,157.0,27.0,-200.0,0
2256,157.0,18.0,-193.0,0
2257,159.0,24.0,-203.0,0
2258,156.0,25.0,-203.0,0
2259,159.0,28.0,-200.0,0
2260,156.0,27.0,-201.0,0
2261,152.0,28.0,-201.0,0
2262,156.0,23.0,-197.0,0
2263,137.0,23.0,-195.0,0
2264,178.0,37.0,-206.0,0
2265,160.0,27.0,-199.0,0
2266,153.0,28.0,-202.0,0
2267,158.0,28.0,-201.0,0
2268,159.0,29.0,-205.0,0
2269,158.0,26.0,-202.0,0
2270,158.0,26.0,-202.0,0
2271,156.0,24.0,-202.0,0
2272,158.0,24.0,-199.0,0
2273,153.0,27.0,-199.0,0
2274,156.0,25.0,-197.0,0
2275,156.0,28.0,-197.0,0
2276,155.0,27.0,-199.0,0
2277,160.0,24.0,-202.0,0
2278,152.0,26.0,-191.0,0
2279,158.0,27.0,-204.0,0
2280,157.0,25.0,-206.0,0
2281,158.0,26.0,-203.0,0
2282,158.0,25.0,-203.0,0
2283,155.0,27.0,-200.0,0
2284,154.0,25.0,-202.0,0
2285,156.0,26.0,-201.0,0
2286,156.0,25.0,-201.0,0
2287,156.0,24.0,-204.0,0
2288,155.0,29.0,-202.0,0
2289,156.0,26.0,-201.0,0
2290,157.0,28.0,-203.0,0
2291,155.0,26.0,-204.0,0
2292,156.0,26.0,-201.0,0
2293,160.0,23.0,-201.0,0
2294,160.0,24.0,-203.0,0
2295,156.0,27.0,-202.0,0
2296,155.0,25.0,-204.0,0
2297,156.0,24.0,-204.0,0
2298,158.0,25.0,-204.0,0
2299,155.0,25.0,-203.0,0
2300,159.0,32.0,-197.0,0
2301,157.0,29.0,-200.0,0
2302,158.0,29.0,-204.0,0
2303,157.0,29.0,-200.0,0
2304,154.0,30.0,-201.0,0
2305,158.0,28.0,-202.0,0
2306,159.0,29.0,-197.0,0
2307,156.0,26.0,-200.0,0
2308,157.0,28.0,-203.0,0
2309,155.0,29.0,-201.0,0
2310,155.0,29.0,-198.0,0
2311,154.0,29.0,-202.0,0
2312,159.0,24.0,-202.0,0
2313,154.0,27.0,-201.0,0
2314,153.0,28.0,-204.0,0
2315,155.0,27.0,-202.0,0
2316,154.0,27.0,-200.0,0
2317,157.0,25.0,-201.0,0
2318,156.0,26.0,-198.0,0
2319,154.0,28.0,-200.0,0
2320,156.0,25.0,-200.0,0
2321,163.0,27.0,-197.0,0
2322,160.0,27.0,-200.0,0
2323,154.0,24.0,-205.0,0
2324,152.0,27.0,-204.0,0
2325,154.0,24.0,-203.0,0
2326,157.0,26.0,-205.0,0
2327,157.0,24.0,-204.0,0
2328,155.0,27.0,-205.0,0
2329,156.0,27.0,-201.0,0
2330,157.0,27.0,-203.0,0
2331,157.0,29.0,-206.0,0
2332,154.0,28.0,-205.0,0
2333,157.0,28.0,-205.0,0
2334,155.0,25.0,-203.0,0
2335,155.0,27.0,-207.0,0
2336,157.0,27.0,-200.0,0
2337,156.0,25.0,-203.0,0
2338,156.0,23.0,-202.0,0
2339,156.0,29.0,-204.0,0
2340,156.0,26.0,-203.0,0
2341,153.0,27.0,-203.0,0
2342,155.0,27.0,-204.0,0
2343,159.0,27.0,-204.0,0
2344,158.0,26.0,-204.0,0
2345,155.0,26.0,-198.0,0
2346,154.0,26.0,-207.0,0
2347,152.0,28.0,-202.0,0
2348,156.0,26.0,-200.0,0
2349,155.0,27.0,-201.0,0
2350,154.0,27.0,-201.0,0
2351,154.0,26.0,-200.0,0
2352,157.0,25.0,-202.0,0
2353,155.0,24.0,-203.0,0
2354,155.0,27.0,-201.0,0
2355,153.0,28.0,-198.0,0
2356,154.0,29.0,-207.0,0
2357,155.0,33.0,-199.0,0
2358,155.0,27.0,-204.0,0
2359,157.0,28.0,-200.0,0
2360,154.0,27.0,-201.0,0
2361,158.0,27.0,-198.0,0
2362,155.0,25.0,-202.0,0
2363,155.0,29.0,-200.0,0
2364,155.0,28.0,-204.0,0
2365,168.0,26.0,-201.0,0
2366,156.0,28.0,-203.0,0
2367,154.0,30.0,-202.0,0
2368,157.0,28.0,-206.0,0
2369,155.0,29.0,-201.0,0
2370,156.0,25.0,-201.0,0
2371,153.0,26.0,-205.0,0
2372,155.0,27.0,-203.0,0
2373,154.0,29.0,-205.0,0
2374,156.0,28.0,-202.0,0
2375,159.0,23.0,-202.0,0
2376,156.0,26.0,-207.0,0
2377,152.0,27.0,-202.0,0
2378,154.0,25.0,-203.0,0
2379,153.0,28.0,-205.0,0
2380,156.0,28.0,-203.0,0
2381,155.0,25.0,-198.0,0
2382,152.0,30.0,-202.0,0
2383,155.0,26.0,-205.0,0
2384,152.0,26.0,-204.0,0
2385,152.0,27.0,-202.0,0
2386,154.0,26.0,-203.0,0
2387,149.0,26.0,-203.0,0
2388,155.0,22.0,-202.0,0
2389,153.0,26.0,-203.0,0
2390,151.0,27.0,-200.0,0
2391,155.0,22.0,-196.0,0
2392,157.0,25.0,-198.0,0
2393,155.0,26.0,-204.0,0
2394,155.0,26.0,-206.0,0
2395,155.0,27.0,-206.0,0
2396,153.0,27.0,-205.0,0
2397,156.0,25.0,-205.0,0
2398,150.0,28.0,-208.0,0
2399,154.0,26.0,-203.0,0
2400,152.0,27.0,-207.0,0
2401,152.0,26.0,-206.0,0
2402,153.0,27.0,-208.0,0
2403,150.0,27.0,-204.0,0
2404,153.0,29.0,-205.0,0
2405,154.0,24.0,-208.0,0
2406,155.0,30.0,-202.0,0
2407,155.0,26.0,-208.0,0
2408,150.0,27.0,-205.0,0
2409,151.0,34.0,-211.0,0
2410,152.0,26.0,-209.0,0
2411,152.0,26.0,-204.0,0
2412,151.0,27.0,-208.0,0
2413,154.0,31.0,-204.0,0
2414,154.0,26.0,-206.0,0
2415,151.0,25.0,-204.0,0
2416,154.0,25.0,-204.0,0
2417,153.0,24.0,-203.0,0
2418,150.0,26.0,-204.0,0
2419,153.0,26.0,-205.0,0
2420,153.0,28.0,-205.0,0
2421,149.0,26.0,-205.0,0
2422,151.0,24.0,-206.0,0
2423,152.0,24.0,-209.0,0
2424,150.0,25.0,-207.0,0
2425,152.0,26.0,-206.0,0
2426,150.0,29.0,-206.0,0
2427,149.0,26.0,-204.0,0
2428,153.0,29.0,-206.0,0
2429,153.0,27.0,-207.0,0
2430,150.0,28.0,-207.0,0
2431,156.0,28.0,-207.0,0
2432,152.0,29.0,-205.0,0
2433,149.0,30.0,-204.0,0
2434,149.0,26.0,-204.0,0
2435,152.0,25.0,-206.0,0
2436,149.0,29.0,-204.0,0
2437,150.0,28.0,-206.0,0
2438,151.0,28.0,-207.0,0
2439,149.0,26.0,-205.0,0
2440,151.0,26.0,-204.0,0
2441,151.0,26.0,-205.0,0
2442,151.0,28.0,-207.0,0
2443,155.0,26.0,-205.0,0
2444,150.0,29.0,-203.0,0
2445,152.0,27.0,-205.0,0
2446,152.0,25.0,-206.0,0
2447,153.0,26.0,-206.0,0
2448,153.0,26.0,-208.0,0
2449,149.0,29.0,-210.0,0
2450,152.0,28.0,-210.0,0
2451,149.0,27.0,-207.0,0
2452,150.0,27.0,-208.0,0
2453,148.0,30.0,-206.0,0
2454,151.0,26.0,-205.0,0
2455,151.0,27.0,-207.0,0
2456,148.0,26.0,-207.0,0
2457,148.0,28.0,-203.0,0
2458,151.0,28.0,-207.0,0
2459,151.0,28.0,-206.0,0
2460,151.0,27.0,-206.0,0
2461,152.0,27.0,-206.0,0
2462,149.0,28.0,-206.0,0
2463,151.0,28.0,-209.0,0
2464,150.0,27.0,-209.0,0
2465,152.0,21.0,-206.0,0
2466,150.0,27.0,-211.0,0
2467,150.0,27.0,-210.0,0
2468,151.0,24.0,-208.0,0
2469,151.0,24.0,-208.0,0
2470,149.0,27.0,-210.0,0
2471,150.0,30.0,-208.0,0
2472,151.0,25.0,-206.0,0
2473,152.0,26.0,-208.0,0
2474,151.0,26.0,-204.0,0
2475,149.0,24.0,-206.0,0
2476,153.0,25.0,-205.0,0
2477,148.0,25.0,-206.0,0
2478,152.0,28.0,-207.0,0
2479,149.0,25.0,-207.0,0
2480,150.0,25.0,-210.0,0
2481,149.0,25.0,-209.0,0
2482,148.0,25.0,-209.0,0
2483,149.0,29.0,-207.0,0
2484,149.0,26.0,-207.0,0
2485,150.0,24.0,-207.0,0
2486,147.0,27.0,-204.0,0
2487,150.0,28.0,-206.0,0
2488,150.0,26.0,-207.0,0
2489,150.0,26.0,-207.0,0
2490,150.0,27.0,-209.0,0
2491,151.0,25.0,-204.0,0
2492,150.0,24.0,-205.0,0
2493,149.0,25.0,-205.0,0
2494,152.0,27.0,-206.0,0
2495,151.0,27.0,-204.0,0
2496,150.0,29.0,-203.0,0
2497,152.0,27.0,-208.0,0
2498,149.0,26.0,-205.0,0
2499,151.0,24.0,-206.0,0
2500,150.0,23.0,-204.0,0
2501,147.0,28.0,-201.0,0
2502,151.0,26.0,-205.0,0
2503,149.0,28.0,-203.0,0
2504,148.0,26.0,-202.0,0
2505,150.0,27.0,-202.0,0
2506,149.0,26.0,-201.0,0
2507,150.0,23.0,-212.0,0
2508,151.0,27.0,-208.0,0
2509,151.0,26.0,-209.0,0
2510,151.0,29.0,-207.0,0
2511,148.0,30.0,-209.0,0
2512,151.0,23.0,-209.0,0
2513,150.0,24.0,-207.0,0
2514,151.0,23.0,-209.0,0
2515,149.0,26.0,-205.0,0
2516,151.0,25.0,-209.0,0
2517,149.0,28.0,-207.0,0
2518,150.0,24.0,-209.0,0
2519,151.0,27.0,-208.0,0
2520,152.0,26.0,-209.0,0
2521,150.0,28.0,-206.0,0
2522,150.0,24.0,-205.0,0
2523,150.0,28.0,-205.0,0
2524,152.0,27.0,-206.0,0
2525,151.0,24.0,-206.0,0
2526,149.0,26.0,-206.0,0
2527,148.0,27.0,-202.0,0
2528,150.0,26.0,-208.0,0
2529,151.0,25.0,-205.0,0
2530,148.0,29.0,-202.0,0
2531,154.0,26.0,-206.0,0
2532,152.0,24.0,-208.0,0
2533,153.0,23.0,-204.0,0
2534,148.0,28.0,-205.0,0
2535,149.0,24.0,-208.0,0
2536,150.0,25.0,-207.0,0
2537,149.0,25.0,-209.0,0
2538,149.0,29.0,-210.0,0
2539,154.0,24.0,-207.0,0
2540,148.0,28.0,-205.0,0
2541,149.0,27.0,-205.0,0
2542,148.0,26.0,-205.0,0
2543,152.0,23.0,-208.0,0
2544,151.0,25.0,-208.0,0
2545,149.0,25.0,-207.0,0
2546,147.0,27.0,-208.0,0
2547,149.0,26.0,-208.0,0
2548,149.0,27.0,-209.0,0
2549,150.0,25.0,-206.0,0
2550,150.0,26.0,-205.0,0
2551,151.0,26.0,-199.0,0
2552,152.0,27.0,-208.0,0
2553,151.0,25.0,-206.0,0
2554,150.0,26.0,-206.0,0
2555,148.0,26.0,-207.0,0
2556,152.0,24.0,-205.0,0
2557,149.0,28.0,-210.0,0
2558,151.0,25.0,-208.0,0
2559,151.0,25.0,-202.0,0
2560,153.0,32.0,-210.0,0
2561,150.0,26.0,-206.0,0
2562,150.0,23.0,-209.0,0
2563,148.0,26.0,-210.0,0
2564,148.0,25.0,-206.0,0
2565,151.0,25.0,-209.0,0
2566,150.0,27.0,-206.0,0
2567,150.0,26.0,-208.0,0
2568,151.0,26.0,-208.0,0
2569,149.0,25.0,-207.0,0
2570,152.0,28.0,-207.0,0
2571,151.0,26.0,-206.0,0
2572,147.0,27.0,-205.0,0
2573,149.0,27.0,-205.0,0
2574,150.0,25.0,-203.0,0
2575,151.0,25.0,-207.0,0
2576,154.0,25.0,-204.0,0
2577,150.0,26.0,-205.0,0
2578,150.0,21.0,-208.0,0
2579,148.0,27.0,-205.0,0
2580,149.0,24.0,-206.0,0
2581,150.0,25.0,-206.0,0
2582,152.0,30.0,-203.0,0
2583,152.0,27.0,-205.0,0
2584,150.0,27.0,-208.0,0
2585,150.0,27.0,-208.0,0
2586,152.0,25.0,-207.0,0
2587,149.0,28.0,-207.0,0
2588,152.0,25.0,-206.0,0
2589,150.0,27.0,-207.0,0
2590,151.0,26.0,-205.0,0
2591,148.0,25.0,-206.0,0
2592,148.0,25.0,-207.0,0
2593,149.0,29.0,-211.0,0
2594,152.0,26.0,-205.0,0
2595,150.0,27.0,-204.0,0
2596,152.0,25.0,-204.0,0
2597,149.0,29.0,-208.0,0
2598,153.0,27.0,-207.0,0
2599,151.0,27.0,-208.0,0
2600,150.0,27.0,-207.0,0
2601,153.0,25.0,-207.0,0
2602,151.0,24.0,-204.0,0
2603,152.0,27.0,-209.0,0
2604,151.0,29.0,-205.0,0
2605,152.0,28.0,-204.0,0
2606,150.0,21.0,-205.0,0
2607,152.0,27.0,-203.0,0
2608,152.0,27.0,-204.0,0
2609,150.0,23.0,-202.0,0
2610,151.0,25.0,-207.0,0
2611,151.0,25.0,-206.0,0
2612,148.0,25.0,-206.0,0
2613,150.0,25.0,-205.0,0
2614,151.0,24.0,-208.0,0
2615,151.0,23.0,-206.0,0
2616,151.0,26.0,-205.0,0
2617,147.0,27.0,-205.0,0
2618,149.0,27.0,-203.0,0
2619,152.0,27.0,-204.0,0
2620,153.0,25.0,-210.0,0
2621,153.0,25.0,-206.0,0
2622,152.0,25.0,-212.0,0
2623,152.0,26.0,-206.0,0
2624,150.0,24.0,-206.0,0
2625,151.0,27.0,-207.0,0
2626,144.0,27.0,-206.0,0
2627,151.0,29.0,-204.0,0
2628,149.0,27.0,-207.0,0
2629,152.0,26.0,-206.0,0
2630,150.0,27.0,-208.0,0
2631,152.0,26.0,-208.0,0
2632,150.0,29.0,-207.0,0
2633,151.0,27.0,-207.0,0
2634,153.0,25.0,-206.0,0
2635,151.0,23.0,-206.0,0
2636,152.0,28.0,-206.0,0
2637,152.0,26.0,-205.0,0
2638,152.0,24.0,-204.0,0
2639,156.0,24.0,-201.0,0
2640,150.0,28.0,-204.0,0
2641,150.0,30.0,-205.0,0
2642,149.0,26.0,-204.0,0
2643,153.0,27.0,-204.0,0
2644,149.0,24.0,-208.0,0
2645,152.0,26.0,-203.0,0
2646,151.0,26.0,-200.0,0
2647,150.0,26.0,-202.0,0
2648,153.0,25.0,-203.0,0
2649,150.0,24.0,-205.0,0
2650,152.0,25.0,-204.0,0
2651,154.0,24.0,-206.0,0
2652,151.0,26.0,-201.0,0
2653,150.0,26.0,-206.0,0
2654,153.0,25.0,-209.0,0
2655,151.0,26.0,-205.0,0
2656,155.0,25.0,-202.0,0
2657,153.0,28.0,-204.0,0
2658,153.0,24.0,-208.0,0
2659,152.0,26.0,-206.0,0
2660,153.0,26.0,-205.0,0
2661,153.0,24.0,-209.0,0
2662,153.0,25.0,-204.0,0
2663,151.0,26.0,-206.0,0
2664,155.0,26.0,-207.0,0
2665,152.0,25.0,-204.0,0
2666,151.0,23.0,-204.0,0
2667,153.0,26.0,-208.0,0
2668,152.0,28.0,-204.0,0
2669,153.0,26.0,-204.0,0
2670,149.0,24.0,-194.0,0
2671,153.0,23.0,-204.0,0
2672,150.0,26.0,-207.0,0
2673,153.0,24.0,-205.0,0
2674,154.0,24.0,-203.0,0
2675,154.0,25.0,-205.0,0
2676,151.0,26.0,-207.0,0
2677,152.0,23.0,-209.0,0
2678,154.0,26.0,-206.0,0
2679,150.0,29.0,-204.0,0
2680,153.0,26.0,-206.0,0
2681,151.0,24.0,-201.0,0
2682,151.0,26.0,-205.0,0
2683,156.0,26.0,-204.0,0
2684,151.0,26.0,-205.0,0
2685,154.0,23.0,-206.0,0
2686,153.0,27.0,-204.0,0
2687,151.0,25.0,-202.0,0
2688,150.0,25.0,-205.0,0
2689,153.0,27.0,-204.0,0
2690,152.0,26.0,-202.0,0
2691,151.0,28.0,-201.0,0
2692,156.0,31.0,-206.0,0
2693,154.0,24.0,-202.0,0
2694,153.0,27.0,-202.0,0
2695,152.0,27.0,-205.0,0
2696,155.0,24.0,-203.0,0
2697,153.0,29.0,-205.0,0
2698,155.0,23.0,-206.0,0
2699,155.0,24.0,-204.0,0
2700,154.0,28.0,-202.0,0
2701,154.0,28.0,-206.0,0
2702,150.0,25.0,-200.0,0
2703,152.0,25.0,-203.0,0
2704,151.0,25.0,-207.0,0
2705,151.0,27.0,-207.0,0
2706,154.0,28.0,-205.0,0
2707,154.0,25.0,-207.0,0
2708,152.0,28.0,-206.0,0
2709,151.0,24.0,-205.0,0
2710,152.0,24.0,-207.0,0
2711,153.0,26.0,-205.0,0
2712,154.0,24.0,-204.0,0
2713,153.0,25.0,-205.0,0
2714,145.0,31.0,-215.0,0
2715,154.0,23.0,-203.0,0
2716,151.0,25.0,-204.0,0
2717,153.0,26.0,-198.0,0
2718,152.0,27.0,-202.0,0
2719,154.0,27.0,-205.0,0
2720,153.0,28.0,-203.0,0
2721,154.0,27.0,-206.0,0
2722,151.0,29.0,-204.0,0
2723,152.0,23.0,-208.0,0
2724,154.0,26.0,-208.0,0
2725,152.0,28.0,-204.0,0
2726,154.0,27.0,-205.0,0
2727,155.0,23.0,-205.0,0
2728,154.0,27.0,-205.0,0
2729,150.0,27.0,-206.0,0
2730,156.0,24.0,-205.0,0
2731,154.0,24.0,-206.0,0
2732,155.0,25.0,-205.0,0
2733,152.0,25.0,-201.0,0
2734,155.0,27.0,-200.0,0
2735,152.0,25.0,-205.0,0
2736,154.0,27.0,-206.0,0
2737,156.0,27.0,-209.0,0
2738,152.0,28.0,-204.0,0
2739,153.0,25.0,-206.0,0
2740,154.0,25.0,-207.0,0
2741,152.0,27.0,-206.0,0
2742,149.0,29.0,-206.0,0
2743,153.0,25.0,-206.0,0
2744,155.0,27.0,-207.0,0
2745,156.0,26.0,-202.0,0
2746,154.0,23.0,-204.0,0
2747,154.0,25.0,-207.0,0
2748,151.0,27.0,-203.0,0
2749,154.0,25.0,-206.0,0
2750,157.0,27.0,-205.0,0
2751,153.0,27.0,-203.0,0
2752,153.0,26.0,-205.0,0
2753,152.0,28.0,-209.0,0
2754,149.0,29.0,-206.0,0
2755,155.0,28.0,-202.0,0
2756,154.0,27.0,-203.0,0
2757,149.0,25.0,-205.0,0
2758,156.0,27.0,-202.0,0
2759,153.0,26.0,-208.0,0
2760,152.0,24.0,-209.0,0
2761,151.0,24.0,-207.0,0
2762,153.0,24.0,-204.0,0
2763,151.0,24.0,-206.0,0
2764,155.0,26.0,-205.0,0
2765,152.0,25.0,-202.0,0
2766,153.0,27.0,-205.0,0
2767,155.0,26.0,-205.0,0
2768,154.0,24.0,-205.0,0
2769,148.0,26.0,-203.0,0
2770,153.0,24.0,-203.0,0
2771,151.0,27.0,-204.0,0
2772,156.0,21.0,-204.0,0
2773,155.0,25.0,-201.0,0
2774,154.0,23.0,-202.0,0
2775,154.0,24.0,-202.0,0
2776,155.0,27.0,-202.0,0
2777,154.0,23.0,-203.0,0
2778,151.0,27.0,-202.0,0
2779,153.0,26.0,-205.0,0
2780,151.0,25.0,-203.0,0
2781,151.0,24.0,-205.0,0
2782,154.0,26.0,-204.0,0
2783,152.0,23.0,-202.0,0
2784,152.0,23.0,-206.0,0
2785,153.0,24.0,-203.0,0
2786,154.0,24.0,-203.0,0
2787,153.0,25.0,-205.0,0
2788,156.0,22.0,-204.0,0
2789,155.0,26.0,-207.0,0
2790,155.0,26.0,-208.0,0
2791,154.0,26.0,-206.0,0
2792,154.0,26.0,-205.0,0
2793,155.0,26.0,-206.0,0
2794,154.0,25.0,-204.0,0
2795,152.0,24.0,-204.0,0
2796,154.0,28.0,-206.0,0
2797,155.0,23.0,-202.0,0
2798,152.0,28.0,-202.0,0
2799,154.0,24.0,-206.0,0
2800,152.0,28.0,-202.0,0
2801,153.0,25.0,-203.0,0
2802,154.0,23.0,-207.0,0
2803,155.0,24.0,-205.0,0
2804,153.0,27.0,-204.0,0
2805,150.0,26.0,-205.0,0
2806,152.0,25.0,-207.0,0
2807,153.0,23.0,-205.0,0
2808,151.0,25.0,-203.0,0
2809,151.0,25.0,-207.0,0
2810,153.0,23.0,-204.0,0
2811,154.0,22.0,-206.0,0
2812,153.0,26.0,-204.0,0
2813,153.0,27.0,-206.0,0
2814,153.0,28.0,-203.0,0
2815,150.0,25.0,-204.0,0
2816,152.0,26.0,-206.0,0
2817,150.0,26.0,-209.0,0
2818,151.0,26.0,-206.0,0
2819,151.0,22.0,-204.0,0
2820,156.0,27.0,-206.0,0
2821,155.0,26.0,-206.0,0
2822,152.0,25.0,-200.0,0
2823,149.0,24.0,-207.0,0
2824,154.0,24.0,-204.0,0
2825,153.0,23.0,-205.0,0
2826,156.0,25.0,-205.0,0
2827,155.0,22.0,-208.0,0
2828,154.0,25.0,-209.0,0
2829,154.0,27.0,-207.0,0
2830,152.0,25.0,-205.0,0
2831,155.0,23.0,-207.0,0
2832,156.0,26.0,-208.0,0
2833,153.0,24.0,-207.0,0
2834,154.0,24.0,-205.0,0
2835,153.0,25.0,-211.0,0
2836,154.0,25.0,-206.0,0
2837,152.0,28.0,-204.0,0
2838,154.0,28.0,-204.0,0
2839,155.0,26.0,-202.0,0
2840,154.0,27.0,-205.0,0
2841,154.0,24.0,-208.0,0
2842,156.0,23.0,-206.0,0
2843,153.0,24.0,-203.0,0
2844,153.0,28.0,-202.0,0
2845,153.0,26.0,-202.0,0
2846,155.0,29.0,-202.0,0
2847,155.0,28.0,-203.0,0
2848,155.0,26.0,-201.0,0
2849,151.0,30.0,-199.0,0
2850,152.0,29.0,-204.0,0
2851,153.0,23.0,-204.0,0
2852,153.0,27.0,-202.0,0
2853,153.0,27.0,-199.0,0
2854,152.0,27.0,-202.0,0
2855,152.0,25.0,-203.0,0
2856,153.0,26.0,-197.0,0
2857,156.0,23.0,-200.0,0
2858,152.0,28.0,-199.0,0
2859,155.0,27.0,-201.0,0
2860,153.0,25.0,-204.0,0
2861,151.0,26.0,-203.0,0
2862,155.0,25.0,-203.0,0
2863,151.0,24.0,-201.0,0
2864,156.0,23.0,-206.0,0
2865,153.0,24.0,-201.0,0
2866,151.0,30.0,-202.0,0
2867,152.0,22.0,-196.0,0
2868,156.0,26.0,-206.0,0
2869,154.0,25.0,-207.0,0
2870,158.0,25.0,-200.0,0
2871,153.0,28.0,-204.0,0
2872,154.0,24.0,-204.0,0
2873,158.0,22.0,-203.0,0
2874,158.0,24.0,-202.0,0
2875,155.0,24.0,-200.0,0
2876,156.0,22.0,-206.0,0
2877,156.0,22.0,-201.0,0
2878,156.0,23.0,-205.0,0
2879,154.0,23.0,-202.0,0
2880,154.0,25.0,-207.0,0
2881,157.0,23.0,-204.0,0
2882,156.0,25.0,-204.0,0
2883,155.0,25.0,-203.0,0
2884,153.0,25.0,-205.0,0
2885,155.0,26.0,-203.0,0
2886,153.0,28.0,-204.0,0
2887,154.0,25.0,-201.0,0
2888,155.0,23.0,-202.0,0
2889,154.0,24.0,-201.0,0
2890,155.0,24.0,-205.0,0
2891,152.0,25.0,-202.0,0
2892,155.0,24.0,-202.0,0
2893,154.0,28.0,-208.0,0
2894,154.0,24.0,-204.0,0
2895,157.0,23.0,-202.0,0
2896,155.0,25.0,-201.0,0
2897,154.0,28.0,-202.0,0
2898,153.0,25.0,-204.0,0
2899,156.0,23.0,-200.0,0
2900,154.0,26.0,-204.0,0
2901,155.0,27.0,-200.0,0
2902,157.0,25.0,-203.0,0
2903,152.0,27.0,-201.0,0
2904,153.0,26.0,-201.0,0
2905,154.0,26.0,-203.0,0
2906,155.0,27.0,-203.0,0
2907,153.0,28.0,-203.0,0
2908,155.0,26.0,-201.0,0
2909,154.0,30.0,-205.0,0
2910,154.0,27.0,-205.0,0
2911,154.0,27.0,-202.0,0
2912,153.0,28.0,-204.0,0
2913,155.0,22.0,-200.0,0
2914,154.0,24.0,-204.0,0
2915,155.0,24.0,-202.0,0
2916,153.0,27.0,-201.0,0
2917,153.0,26.0,-203.0,0
2918,155.0,25.0,-202.0,0
2919,157.0,25.0,-204.0,0
2920,152.0,25.0,-202.0,0
2921,117.0,29.0,-201.0,0
2922,193.0,32.0,-211.0,0
2923,169.0,23.0,-205.0,0
2924,153.0,22.0,-206.0,0
2925,153.0,26.0,-202.0,0
2926,157.0,24.0,-201.0,0
2927,155.0,26.0,-202.0,0
2928,152.0,25.0,-203.0,0
2929,157.0,28.0,-206.0,0
2930,155.0,21.0,-196.0,0
2931,154.0,25.0,-205.0,0
2932,152.0,28.0,-204.0,0
2933,154.0,21.0,-200.0,0
2934,152.0,26.0,-204.0,0
2935,152.0,26.0,-205.0,0
2936,156.0,22.0,-200.0,0
2937,156.0,24.0,-203.0,0
2938,154.0,22.0,-203.0,0
2939,154.0,25.0,-199.0,0
2940,151.0,26.0,-200.0,0
2941,153.0,24.0,-203.0,0
2942,156.0,22.0,-206.0,0
2943,152.0,26.0,-204.0,0
2944,152.0,29.0,-203.0,0
2945,154.0,25.0,-206.0,0
2946,155.0,26.0,-206.0,0
2947,154.0,22.0,-205.0,0
2948,155.0,24.0,-206.0,0
2949,150.0,27.0,-208.0,0
2950,154.0,25.0,-204.0,0
2951,152.0,24.0,-205.0,0
2952,157.0,28.0,-199.0,0
2953,153.0,26.0,-204.0,0
2954,155.0,24.0,-201.0,0
2955,153.0,26.0,-200.0,0
2956,154.0,26.0,-205.0,0
2957,153.0,23.0,-203.0,0
2958,151.0,28.0,-203.0,0
2959,152.0,28.0,-205.0,0
2960,156.0,26.0,-203.0,0
2961,153.0,23.0,-203.0,0
2962,156.0,23.0,-206.0,0
2963,151.0,28.0,-201.0,0
2964,155.0,24.0,-206.0,0
2965,153.0,24.0,-205.0,0
2966,153.0,25.0,-204.0,0
2967,155.0,26.0,-207.0,0
2968,153.0,24.0,-201.0,0
2969,155.0,25.0,-206.0,0
2970,154.0,24.0,-206.0,0
2971,154.0,25.0,-206.0,0
2972,155.0,25.0,-207.0,0
2973,153.0,21.0,-204.0,0
2974,155.0,23.0,-209.0,0
2975,152.0,28.0,-208.0,0
2976,151.0,26.0,-204.0,0
2977,151.0,26.0,-203.0,0
2978,152.0,26.0,-204.0,0
2979,152.0,25.0,-200.0,0
2980,150.0,28.0,-199.0,0
2981,151.0,25.0,-201.0,0
2982,156.0,27.0,-199.0,0
2983,154.0,28.0,-208.0,0
2984,154.0,27.0,-208.0,0
2985,154.0,26.0,-205.0,0
2986,149.0,27.0,-206.0,0
2987,148.0,26.0,-208.0,0
2988,151.0,27.0,-208.0,0
2989,155.0,24.0,-204.0,0
2990,153.0,28.0,-210.0,0
2991,150.0,25.0,-206.0,0
2992,152.0,24.0,-208.0,0
2993,153.0,25.0,-203.0,0
2994,153.0,25.0,-203.0,0
2995,152.0,24.0,-206.0,0
2996,156.0,22.0,-204.0,0
2997,146.0,26.0,-206.0,0
2998,151.0,25.0,-209.0,0
2999,152.0,25.0,-210.0,0
