,accelerometer_x,accelerometer_y,accelerometer_z,fall
0,17.0,-233.0,-71.0,0
1,23.0,-239.0,-72.0,0
2,21.0,-236.0,-72.0,0
3,23.0,-238.0,-71.0,0
4,22.0,-237.0,-70.0,0
5,15.0,-233.0,-73.0,0
6,22.0,-235.0,-72.0,0
7,21.0,-235.0,-68.0,0
8,21.0,-237.0,-70.0,0
9,22.0,-235.0,-70.0,0
10,21.0,-238.0,-70.0,0
11,20.0,-236.0,-68.0,0
12,20.0,-235.0,-71.0,0
13,18.0,-234.0,-65.0,0
14,18.0,-237.0,-69.0,0
15,19.0,-233.0,-70.0,0
16,22.0,-235.0,-70.0,0
17,20.0,-237.0,-71.0,0
18,22.0,-236.0,-66.0,0
19,21.0,-236.0,-68.0,0
20,20.0,-233.0,-70.0,0
21,22.0,-237.0,-71.0,0
22,24.0,-237.0,-69.0,0
23,22.0,-236.0,-69.0,0
24,25.0,-234.0,-73.0,0
25,22.0,-236.0,-73.0,0
26,26.0,-263.0,-61.0,0
27,25.0,-243.0,-72.0,0
28,30.0,-243.0,-59.0,0
29,21.0,-233.0,-67.0,0
30,21.0,-234.0,-66.0,0
31,19.0,-235.0,-68.0,0
32,17.0,-236.0,-68.0,0
33,20.0,-234.0,-70.0,0
34,22.0,-234.0,-69.0,0
35,18.0,-235.0,-69.0,0
36,18.0,-235.0,-68.0,0
37,20.0,-235.0,-69.0,0
38,21.0,-235.0,-70.0,0
39,18.0,-232.0,-68.0,0
40,20.0,-236.0,-67.0,0
41,23.0,-234.0,-67.0,0
42,20.0,-233.0,-72.0,0
43,20.0,-236.0,-72.0,0
44,19.0,-236.0,-69.0,0
45,17.0,-238.0,-74.0,0
46,18.0,-235.0,-67.0,0
47,19.0,-240.0,-71.0,0
48,21.0,-240.0,-69.0,0
49,18.0,-240.0,-68.0,0
50,21.0,-241.0,-71.0,0
51,21.0,-239.0,-69.0,0
52,22.0,-240.0,-68.0,0
53,24.0,-239.0,-67.0,0
54,22.0,-241.0,-73.0,0
55,23.0,-237.0,-65.0,0
56,19.0,-236.0,-67.0,0
57,24.0,-237.0,-71.0,0
58,23.0,-236.0,-69.0,0
59,21.0,-233.0,-66.0,0
60,24.0,-237.0,-68.0,0
61,24.0,-237.0,-66.0,0
62,20.0,-234.0,-70.0,0
63,22.0,-235.0,-67.0,0
64,18.0,-235.0,-68.0,0
65,17.0,-235.0,-68.0,0
66,20.0,-238.0,-70.0,0
67,21.0,-237.0,-65.0,0
68,20.0,-235.0,-67.0,0
69,19.0,-232.0,-68.0,0
70,19.0,-235.0,-70.0,0
71,17.0,-235.0,-67.0,0
72,18.0,-237.0,-67.0,0
73,19.0,-235.0,-67.0,0
74,17.0,-235.0,-66.0,0
75,16.0,-234.0,-68.0,0
76,16.0,-237.0,-67.0,0
77,15.0,-237.0,-69.0,0
78,19.0,-236.0,-66.0,0
79,16.0,-234.0,-65.0,0
80,18.0,-237.0,-71.0,0
81,20.0,-235.0,-70.0,0
82,16.0,-236.0,-68.0,0
83,15.0,-237.0,-68.0,0
84,20.0,-237.0,-70.0,0
85,15.0,-239.0,-68.0,0
86,17.0,-236.0,-68.0,0
87,20.0,-237.0,-70.0,0
88,19.0,-239.0,-68.0,0
89,19.0,-239.0,-65.0,0
90,18.0,-236.0,-68.0,0
91,17.0,-239.0,-65.0,0
92,19.0,-235.0,-67.0,0
93,21.0,-238.0,-67.0,0
94,23.0,-235.0,-67.0,0
95,20.0,-236.0,-68.0,0
96,19.0,-232.0,-68.0,0
97,19.0,-234.0,-66.0,0
98,21.0,-234.0,-68.0,0
99,22.0,-232.0,-67.0,0
100,21.0,-234.0,-68.0,0
101,19.0,-236.0,-67.0,0
102,18.0,-235.0,-66.0,0
103,19.0,-233.0,-67.0,0
104,20.0,-236.0,-67.0,0
105,18.0,-234.0,-70.0,0
106,21.0,-236.0,-71.0,0
107,19.0,-234.0,-67.0,0
108,23.0,-238.0,-73.0,0
109,21.0,-239.0,-70.0,0
110,20.0,-238.0,-70.0,0
111,22.0,-239.0,-70.0,0
112,22.0,-236.0,-69.0,0
113,23.0,-238.0,-68.0,0
114,20.0,-236.0,-70.0,0
115,19.0,-234.0,-70.0,0
116,22.0,-234.0,-73.0,0
117,21.0,-235.0,-68.0,0
118,23.0,-234.0,-70.0,0
119,25.0,-233.0,-69.0,0
120,25.0,-231.0,-68.0,0
121,28.0,-233.0,-71.0,0
122,27.0,-232.0,-69.0,0
123,30.0,-233.0,-69.0,0
124,31.0,-236.0,-71.0,0
125,35.0,-237.0,-72.0,0
126,30.0,-235.0,-74.0,0
127,34.0,-235.0,-72.0,0
128,34.0,-238.0,-72.0,0
129,35.0,-237.0,-72.0,0
130,32.0,-237.0,-76.0,0
131,34.0,-238.0,-73.0,0
132,33.0,-239.0,-72.0,0
133,32.0,-241.0,-75.0,0
134,35.0,-239.0,-76.0,0
135,34.0,-240.0,-72.0,0
136,32.0,-237.0,-76.0,0
137,30.0,-238.0,-75.0,0
138,31.0,-238.0,-76.0,0
139,31.0,-236.0,-75.0,0
140,33.0,-239.0,-70.0,0
141,27.0,-238.0,-74.0,0
142,31.0,-234.0,-70.0,0
143,28.0,-236.0,-70.0,0
144,26.0,-237.0,-69.0,0
145,27.0,-235.0,-69.0,0
146,23.0,-243.0,-73.0,0
147,29.0,-240.0,-65.0,0
148,26.0,-234.0,-68.0,0
149,21.0,-228.0,-74.0,0
150,23.0,-230.0,-72.0,0
151,23.0,-234.0,-72.0,0
152,22.0,-240.0,-69.0,0
153,28.0,-242.0,-65.0,0
154,29.0,-238.0,-66.0,0
155,27.0,-242.0,-69.0,0
156,28.0,-235.0,-65.0,0
157,25.0,-240.0,-65.0,0
158,25.0,-237.0,-66.0,0
159,22.0,-239.0,-66.0,0
160,24.0,-235.0,-67.0,0
161,25.0,-237.0,-70.0,0
162,24.0,-240.0,-69.0,0
163,23.0,-238.0,-72.0,0
164,23.0,-236.0,-69.0,0
165,22.0,-236.0,-66.0,0
166,25.0,-233.0,-67.0,0
167,28.0,-229.0,-67.0,0
168,27.0,-230.0,-65.0,0
169,25.0,-229.0,-63.0,0
170,28.0,-229.0,-66.0,0
171,25.0,-227.0,-67.0,0
172,26.0,-227.0,-67.0,0
173,28.0,-226.0,-68.0,0
174,30.0,-224.0,-67.0,0
175,29.0,-225.0,-67.0,0
176,28.0,-227.0,-65.0,0
177,29.0,-225.0,-67.0,0
178,29.0,-226.0,-65.0,0
179,29.0,-223.0,-67.0,0
180,28.0,-227.0,-68.0,0
181,33.0,-231.0,-68.0,0
182,29.0,-227.0,-67.0,0
183,30.0,-231.0,-69.0,0
184,32.0,-234.0,-71.0,0
185,30.0,-234.0,-68.0,0
186,27.0,-233.0,-73.0,0
187,28.0,-232.0,-72.0,0
188,28.0,-230.0,-68.0,0
189,27.0,-233.0,-71.0,0
190,23.0,-227.0,-74.0,0
191,25.0,-229.0,-73.0,0
192,22.0,-230.0,-75.0,0
193,22.0,-233.0,-78.0,0
194,19.0,-231.0,-71.0,0
195,20.0,-232.0,-72.0,0
196,17.0,-230.0,-71.0,0
197,18.0,-233.0,-74.0,0
198,15.0,-231.0,-73.0,0
199,14.0,-232.0,-75.0,0
200,19.0,-233.0,-70.0,0
201,18.0,-237.0,-72.0,0
202,18.0,-233.0,-70.0,0
203,20.0,-238.0,-70.0,0
204,18.0,-237.0,-71.0,0
205,23.0,-235.0,-70.0,0
206,23.0,-233.0,-70.0,0
207,22.0,-236.0,-71.0,0
208,24.0,-235.0,-69.0,0
209,24.0,-234.0,-68.0,0
210,26.0,-233.0,-69.0,0
211,25.0,-231.0,-70.0,0
212,23.0,-232.0,-71.0,0
213,28.0,-232.0,-72.0,0
214,24.0,-232.0,-67.0,0
215,23.0,-236.0,-69.0,0
216,23.0,-236.0,-69.0,0
217,22.0,-233.0,-68.0,0
218,25.0,-235.0,-68.0,0
219,25.0,-235.0,-69.0,0
220,24.0,-237.0,-66.0,0
221,23.0,-235.0,-67.0,0
222,24.0,-235.0,-67.0,0
223,23.0,-236.0,-64.0,0
224,24.0,-238.0,-69.0,0
225,22.0,-234.0,-64.0,0
226,25.0,-235.0,-69.0,0
227,25.0,-236.0,-68.0,0
228,28.0,-233.0,-66.0,0
229,28.0,-235.0,-67.0,0
230,30.0,-238.0,-69.0,0
231,32.0,-235.0,-72.0,0
232,33.0,-236.0,-67.0,0
233,32.0,-233.0,-65.0,0
234,34.0,-233.0,-69.0,0
235,33.0,-237.0,-68.0,0
236,36.0,-237.0,-65.0,0
237,33.0,-239.0,-63.0,0
238,33.0,-236.0,-62.0,0
239,35.0,-237.0,-63.0,0
240,38.0,-236.0,-62.0,0
241,36.0,-234.0,-65.0,0
242,38.0,-235.0,-65.0,0
243,35.0,-236.0,-67.0,0
244,35.0,-235.0,-69.0,0
245,40.0,-241.0,-69.0,0
246,38.0,-241.0,-64.0,0
247,38.0,-243.0,-64.0,0
248,36.0,-243.0,-64.0,0
249,37.0,-250.0,-62.0,0
250,33.0,-249.0,-62.0,0
251,34.0,-246.0,-63.0,0
252,31.0,-250.0,-63.0,0
253,26.0,-250.0,-61.0,0
254,28.0,-251.0,-54.0,0
255,34.0,-252.0,-62.0,0
256,36.0,-252.0,-63.0,0
257,38.0,-253.0,-65.0,0
258,38.0,-253.0,-69.0,0
259,41.0,-252.0,-78.0,0
260,45.0,-252.0,-85.0,0
261,53.0,-254.0,-100.0,0
262,59.0,-257.0,-113.0,0
263,61.0,-259.0,-124.0,0
264,72.0,-264.0,-137.0,0
265,76.0,-270.0,-139.0,0
266,89.0,-281.0,-139.0,0
267,95.0,-288.0,-135.0,0
268,103.0,-292.0,-131.0,0
269,109.0,-299.0,-130.0,0
270,113.0,-310.0,-126.0,0
271,119.0,-317.0,-119.0,0
272,116.0,-313.0,-104.0,0
273,105.0,-304.0,-101.0,0
274,94.0,-295.0,-98.0,0
275,76.0,-290.0,-93.0,0
276,63.0,-287.0,-80.0,0
277,54.0,-283.0,-83.0,0
278,44.0,-279.0,-84.0,0
279,36.0,-270.0,-83.0,0
280,31.0,-263.0,-92.0,0
281,28.0,-252.0,-102.0,0
282,17.0,-236.0,-109.0,0
283,16.0,-224.0,-118.0,0
284,15.0,-211.0,-116.0,0
285,18.0,-206.0,-118.0,0
286,10.0,-197.0,-126.0,0
287,6.0,-194.0,-129.0,0
288,6.0,-188.0,-131.0,0
289,4.0,-185.0,-129.0,0
290,0.0,-184.0,-129.0,0
291,-11.0,-184.0,-134.0,0
292,-21.0,-176.0,-146.0,0
293,-21.0,-176.0,-148.0,0
294,-23.0,-181.0,-144.0,0
295,-18.0,-181.0,-141.0,0
296,-17.0,-187.0,-140.0,0
297,-13.0,-186.0,-132.0,0
298,-14.0,-188.0,-127.0,0
299,-9.0,-187.0,-124.0,0
300,2.0,-189.0,-124.0,0
301,0.0,-183.0,-126.0,0
302,-3.0,-185.0,-130.0,0
303,0.0,-186.0,-135.0,0
304,11.0,-188.0,-128.0,0
305,25.0,-192.0,-122.0,0
306,33.0,-197.0,-118.0,0
307,40.0,-204.0,-112.0,0
308,39.0,-209.0,-114.0,0
309,45.0,-209.0,-110.0,0
310,55.0,-215.0,-112.0,0
311,53.0,-218.0,-115.0,0
312,57.0,-219.0,-113.0,0
313,60.0,-221.0,-109.0,0
314,58.0,-219.0,-115.0,0
315,60.0,-224.0,-108.0,0
316,48.0,-224.0,-112.0,0
317,41.0,-224.0,-112.0,0
318,37.0,-225.0,-115.0,0
319,23.0,-221.0,-120.0,0
320,21.0,-224.0,-115.0,0
321,18.0,-224.0,-118.0,0
322,15.0,-223.0,-115.0,0
323,13.0,-225.0,-117.0,0
324,8.0,-221.0,-114.0,0
325,9.0,-216.0,-113.0,0
326,3.0,-214.0,-108.0,0
327,1.0,-210.0,-110.0,0
328,0.0,-205.0,-111.0,0
329,0.0,-199.0,-111.0,0
330,-1.0,-198.0,-109.0,0
331,-11.0,-192.0,-106.0,0
332,-9.0,-192.0,-105.0,0
333,-12.0,-187.0,-113.0,0
334,-14.0,-187.0,-108.0,0
335,-17.0,-189.0,-107.0,0
336,-18.0,-188.0,-106.0,0
337,-14.0,-188.0,-99.0,0
338,-19.0,-188.0,-97.0,0
339,-20.0,-187.0,-91.0,0
340,-19.0,-191.0,-89.0,0
341,-17.0,-190.0,-85.0,0
342,-16.0,-192.0,-85.0,0
343,-17.0,-193.0,-89.0,0
344,-16.0,-196.0,-87.0,0
345,-16.0,-198.0,-87.0,0
346,-13.0,-201.0,-88.0,0
347,-12.0,-207.0,-88.0,0
348,-11.0,-212.0,-92.0,0
349,-5.0,-209.0,-88.0,0
350,-6.0,-212.0,-89.0,0
351,-6.0,-214.0,-79.0,0
352,-4.0,-214.0,-78.0,0
353,-6.0,-213.0,-78.0,0
354,-9.0,-213.0,-78.0,0
355,-3.0,-212.0,-77.0,0
356,-5.0,-210.0,-75.0,0
357,-6.0,-215.0,-74.0,0
358,-6.0,-211.0,-80.0,0
359,-7.0,-217.0,-70.0,0
360,-2.0,-213.0,-69.0,0
361,-6.0,-212.0,-67.0,0
362,-4.0,-212.0,-70.0,0
363,-7.0,-209.0,-65.0,0
364,-5.0,-213.0,-66.0,0
365,-8.0,-212.0,-63.0,0
366,-8.0,-213.0,-64.0,0
367,-1.0,-215.0,-66.0,0
368,-3.0,-217.0,-61.0,0
369,-7.0,-217.0,-58.0,0
370,-2.0,-216.0,-58.0,0
371,-6.0,-221.0,-47.0,0
372,0.0,-217.0,-56.0,0
373,-4.0,-221.0,-51.0,0
374,-3.0,-223.0,-48.0,0
375,-5.0,-225.0,-51.0,0
376,-5.0,-222.0,-51.0,0
377,-5.0,-222.0,-47.0,0
378,-5.0,-228.0,-48.0,0
379,-7.0,-225.0,-53.0,0
380,-9.0,-231.0,-51.0,0
381,-9.0,-234.0,-53.0,0
382,-12.0,-237.0,-56.0,0
383,-16.0,-238.0,-57.0,0
384,-15.0,-247.0,-59.0,0
385,-15.0,-254.0,-59.0,0
386,-13.0,-255.0,-61.0,0
387,-11.0,-258.0,-60.0,0
388,-7.0,-264.0,-58.0,0
389,-4.0,-266.0,-63.0,0
390,-7.0,-264.0,-62.0,0
391,1.0,-269.0,-67.0,0
392,4.0,-271.0,-65.0,0
393,8.0,-276.0,-69.0,0
394,7.0,-279.0,-67.0,0
395,8.0,-285.0,-65.0,0
396,0.0,-290.0,-61.0,0
397,0.0,-289.0,-52.0,0
398,-10.0,-296.0,-49.0,0
399,-11.0,-290.0,-45.0,0
400,-11.0,-289.0,-41.0,0
401,-19.0,-288.0,-40.0,0
402,-26.0,-285.0,-44.0,0
403,-25.0,-278.0,-40.0,0
404,-25.0,-274.0,-51.0,0
405,-24.0,-263.0,-60.0,0
406,-23.0,-262.0,-74.0,0
407,-24.0,-266.0,-81.0,0
408,-22.0,-272.0,-90.0,0
409,-30.0,-287.0,-94.0,0
410,-36.0,-306.0,-106.0,0
411,-32.0,-328.0,-113.0,0
412,-38.0,-337.0,-123.0,0
413,-36.0,-350.0,-130.0,0
414,-51.0,-355.0,-138.0,0
415,-61.0,-353.0,-140.0,0
416,-65.0,-338.0,-146.0,0
417,-77.0,-321.0,-142.0,0
418,-74.0,-303.0,-136.0,0
419,-73.0,-286.0,-123.0,0
420,-66.0,-271.0,-120.0,0
421,-60.0,-258.0,-116.0,0
422,-50.0,-240.0,-110.0,0
423,-32.0,-214.0,-118.0,0
424,-13.0,-193.0,-121.0,0
425,9.0,-165.0,-124.0,0
426,31.0,-154.0,-125.0,0
427,56.0,-138.0,-126.0,0
428,83.0,-133.0,-116.0,0
429,90.0,-131.0,-115.0,0
430,112.0,-134.0,-102.0,0
431,112.0,-140.0,-98.0,0
432,118.0,-149.0,-93.0,0
433,112.0,-154.0,-98.0,0
434,105.0,-168.0,-98.0,0
435,95.0,-178.0,-103.0,0
436,79.0,-202.0,-111.0,0
437,66.0,-227.0,-107.0,0
438,58.0,-251.0,-105.0,0
439,26.0,-260.0,-101.0,0
440,17.0,-264.0,-103.0,0
441,3.0,-266.0,-105.0,0
442,-1.0,-273.0,-109.0,0
443,-8.0,-275.0,-120.0,0
444,-19.0,-271.0,-115.0,0
445,-22.0,-268.0,-118.0,0
446,-26.0,-260.0,-116.0,0
447,-32.0,-249.0,-118.0,0
448,-37.0,-238.0,-117.0,0
449,-32.0,-232.0,-117.0,0
450,-30.0,-219.0,-109.0,0
451,-23.0,-217.0,-104.0,0
452,-16.0,-216.0,-105.0,0
453,-21.0,-210.0,-108.0,0
454,-39.0,-203.0,-107.0,0
455,-1.0,-206.0,-95.0,0
456,23.0,-206.0,-86.0,0
457,17.0,-204.0,-85.0,0
458,10.0,-207.0,-82.0,0
459,14.0,-202.0,-86.0,0
460,20.0,-200.0,-91.0,0
461,22.0,-192.0,-83.0,0
462,27.0,-191.0,-84.0,0
463,30.0,-188.0,-82.0,0
464,33.0,-188.0,-81.0,0
465,38.0,-184.0,-79.0,0
466,42.0,-179.0,-83.0,0
467,44.0,-176.0,-77.0,0
468,46.0,-178.0,-78.0,0
469,54.0,-175.0,-79.0,0
470,57.0,-175.0,-79.0,0
471,57.0,-176.0,-74.0,0
472,57.0,-173.0,-78.0,0
473,60.0,-176.0,-81.0,0
474,60.0,-177.0,-77.0,0
475,52.0,-175.0,-80.0,0
476,29.0,-175.0,-88.0,0
477,48.0,-176.0,-81.0,0
478,70.0,-182.0,-67.0,0
479,65.0,-191.0,-66.0,0
480,56.0,-193.0,-67.0,0
481,48.0,-198.0,-66.0,0
482,43.0,-194.0,-70.0,0
483,38.0,-192.0,-69.0,0
484,36.0,-191.0,-70.0,0
485,34.0,-194.0,-71.0,0
486,33.0,-197.0,-66.0,0
487,35.0,-198.0,-68.0,0
488,33.0,-204.0,-65.0,0
489,30.0,-207.0,-64.0,0
490,27.0,-211.0,-68.0,0
491,28.0,-210.0,-60.0,0
492,23.0,-216.0,-62.0,0
493,23.0,-216.0,-60.0,0
494,20.0,-216.0,-55.0,0
495,18.0,-214.0,-57.0,0
496,23.0,-214.0,-56.0,0
497,21.0,-214.0,-55.0,0
498,17.0,-213.0,-61.0,0
499,15.0,-215.0,-63.0,0
500,15.0,-221.0,-65.0,0
501,9.0,-223.0,-65.0,0
502,10.0,-224.0,-71.0,0
503,5.0,-234.0,-71.0,0
504,5.0,-236.0,-71.0,0
505,1.0,-244.0,-70.0,0
506,0.0,-245.0,-71.0,0
507,2.0,-255.0,-70.0,0
508,4.0,-259.0,-71.0,0
509,3.0,-266.0,-70.0,0
510,3.0,-269.0,-75.0,0
511,5.0,-269.0,-77.0,0
512,1.0,-276.0,-82.0,0
513,20.0,-279.0,-74.0,0
514,24.0,-284.0,-70.0,0
515,26.0,-285.0,-70.0,0
516,33.0,-290.0,-65.0,0
517,39.0,-294.0,-62.0,0
518,41.0,-304.0,-47.0,0
519,43.0,-309.0,-40.0,0
520,41.0,-311.0,-32.0,0
521,40.0,-314.0,-28.0,0
522,35.0,-316.0,-24.0,0
523,38.0,-314.0,-23.0,0
524,40.0,-310.0,-31.0,0
525,65.0,-312.0,-53.0,0
526,42.0,-294.0,-81.0,0
527,44.0,-283.0,-116.0,0
528,60.0,-286.0,-139.0,0
529,74.0,-287.0,-155.0,0
530,83.0,-295.0,-175.0,0
531,85.0,-307.0,-178.0,0
532,85.0,-317.0,-171.0,0
533,95.0,-322.0,-163.0,0
534,108.0,-317.0,-158.0,0
535,114.0,-311.0,-161.0,0
536,105.0,-299.0,-168.0,0
537,96.0,-291.0,-173.0,0
538,88.0,-280.0,-170.0,0
539,67.0,-261.0,-166.0,0
540,49.0,-246.0,-168.0,0
541,33.0,-234.0,-161.0,0
542,22.0,-221.0,-163.0,0
543,-11.0,-199.0,-170.0,0
544,-17.0,-182.0,-164.0,0
545,-18.0,-170.0,-153.0,0
546,-21.0,-165.0,-145.0,0
547,-30.0,-157.0,-142.0,0
548,-51.0,-158.0,-136.0,0
549,-64.0,-156.0,-134.0,0
550,-70.0,-152.0,-141.0,0
551,-54.0,-160.0,-138.0,0
552,-33.0,-166.0,-129.0,0
553,-59.0,-172.0,-137.0,0
554,-62.0,-173.0,-142.0,0
555,-32.0,-194.0,-137.0,0
556,-1.0,-205.0,-119.0,0
557,26.0,-223.0,-100.0,0
558,40.0,-232.0,-93.0,0
559,47.0,-243.0,-97.0,0
560,59.0,-247.0,-106.0,0
561,85.0,-249.0,-107.0,0
562,83.0,-246.0,-106.0,0
563,79.0,-240.0,-117.0,0
564,78.0,-231.0,-125.0,0
565,75.0,-229.0,-127.0,0
566,70.0,-232.0,-134.0,0
567,66.0,-230.0,-127.0,0
568,61.0,-228.0,-125.0,0
569,58.0,-223.0,-120.0,0
570,48.0,-220.0,-119.0,0
571,43.0,-210.0,-118.0,0
572,39.0,-206.0,-121.0,0
573,31.0,-193.0,-109.0,0
574,26.0,-185.0,-117.0,0
575,20.0,-176.0,-106.0,0
576,17.0,-169.0,-99.0,0
577,9.0,-166.0,-100.0,0
578,9.0,-159.0,-92.0,0
579,1.0,-150.0,-93.0,0
580,1.0,-149.0,-87.0,0
581,3.0,-146.0,-90.0,0
582,5.0,-149.0,-83.0,0
583,11.0,-160.0,-79.0,0
584,13.0,-163.0,-80.0,0
585,11.0,-169.0,-79.0,0
586,6.0,-174.0,-87.0,0
587,3.0,-177.0,-85.0,0
588,2.0,-184.0,-87.0,0
589,1.0,-189.0,-84.0,0
590,0.0,-191.0,-82.0,0
591,0.0,-195.0,-80.0,0
592,-6.0,-200.0,-79.0,0
593,-7.0,-207.0,-78.0,0
594,-5.0,-209.0,-75.0,0
595,-13.0,-214.0,-78.0,0
596,-14.0,-210.0,-78.0,0
597,-9.0,-207.0,-79.0,0
598,-14.0,-207.0,-77.0,0
599,-21.0,-205.0,-74.0,0
600,-26.0,-199.0,-75.0,0
601,-31.0,-198.0,-74.0,0
602,-34.0,-195.0,-74.0,0
603,-37.0,-189.0,-73.0,0
604,-24.0,-193.0,-64.0,0
605,-28.0,-193.0,-64.0,0
606,-29.0,-192.0,-63.0,0
607,-23.0,-197.0,-56.0,0
608,-36.0,-195.0,-60.0,0
609,-34.0,-198.0,-59.0,0
610,-29.0,-202.0,-51.0,0
611,-27.0,-203.0,-51.0,0
612,-21.0,-206.0,-53.0,0
613,-19.0,-211.0,-52.0,0
614,-19.0,-217.0,-48.0,0
615,-20.0,-218.0,-48.0,0
616,-13.0,-223.0,-50.0,0
617,-13.0,-229.0,-49.0,0
618,-7.0,-230.0,-51.0,0
619,-2.0,-237.0,-56.0,0
620,0.0,-238.0,-54.0,0
621,3.0,-246.0,-53.0,0
622,10.0,-254.0,-56.0,0
623,8.0,-256.0,-56.0,0
624,4.0,-258.0,-55.0,0
625,1.0,-261.0,-57.0,0
626,-5.0,-266.0,-68.0,0
627,-7.0,-257.0,-84.0,0
628,-15.0,-257.0,-92.0,0
629,-26.0,-257.0,-94.0,0
630,-36.0,-267.0,-95.0,0
631,-42.0,-277.0,-88.0,0
632,-44.0,-287.0,-83.0,0
633,-51.0,-292.0,-76.0,0
634,-54.0,-297.0,-65.0,0
635,-58.0,-305.0,-57.0,0
636,-62.0,-308.0,-52.0,0
637,-61.0,-310.0,-43.0,0
638,-63.0,-307.0,-34.0,0
639,-58.0,-305.0,-29.0,0
640,-53.0,-304.0,-31.0,0
641,-53.0,-294.0,-38.0,0
642,-46.0,-289.0,-61.0,0
643,-33.0,-273.0,-85.0,0
644,-19.0,-268.0,-117.0,0
645,-12.0,-268.0,-133.0,0
646,-5.0,-283.0,-156.0,0
647,-10.0,-306.0,-174.0,0
648,-15.0,-331.0,-178.0,0
649,-23.0,-354.0,-179.0,0
650,-31.0,-358.0,-183.0,0
651,-49.0,-352.0,-189.0,0
652,-66.0,-333.0,-198.0,0
653,-73.0,-313.0,-192.0,0
654,-70.0,-299.0,-192.0,0
655,-55.0,-285.0,-173.0,0
656,-36.0,-277.0,-159.0,0
657,-7.0,-262.0,-156.0,0
658,22.0,-250.0,-154.0,0
659,40.0,-228.0,-161.0,0
660,67.0,-198.0,-155.0,0
661,91.0,-168.0,-157.0,0
662,114.0,-142.0,-145.0,0
663,125.0,-129.0,-141.0,0
664,135.0,-127.0,-131.0,0
665,130.0,-128.0,-125.0,0
666,128.0,-136.0,-120.0,0
667,126.0,-146.0,-120.0,0
668,116.0,-155.0,-117.0,0
669,104.0,-173.0,-113.0,0
670,84.0,-191.0,-113.0,0
671,66.0,-201.0,-109.0,0
672,53.0,-207.0,-102.0,0
673,30.0,-216.0,-111.0,0
674,7.0,-229.0,-108.0,0
675,-13.0,-242.0,-107.0,0
676,-23.0,-248.0,-104.0,0
677,-34.0,-254.0,-109.0,0
678,-45.0,-254.0,-110.0,0
679,-53.0,-248.0,-109.0,0
680,-58.0,-241.0,-110.0,0
681,-63.0,-232.0,-110.0,0
682,-59.0,-228.0,-114.0,0
683,-58.0,-221.0,-113.0,0
684,-48.0,-207.0,-115.0,0
685,-43.0,-205.0,-118.0,0
686,-36.0,-200.0,-119.0,0
687,-25.0,-194.0,-119.0,0
688,-12.0,-194.0,-114.0,0
689,-2.0,-193.0,-118.0,0
690,3.0,-196.0,-115.0,0
691,15.0,-189.0,-108.0,0
692,25.0,-188.0,-102.0,0
693,33.0,-187.0,-101.0,0
694,35.0,-186.0,-99.0,0
695,38.0,-180.0,-98.0,0
696,43.0,-173.0,-97.0,0
697,44.0,-173.0,-98.0,0
698,46.0,-171.0,-99.0,0
699,54.0,-177.0,-95.0,0
700,49.0,-164.0,-99.0,0
701,49.0,-165.0,-92.0,0
702,50.0,-169.0,-88.0,0
703,48.0,-171.0,-91.0,0
704,49.0,-176.0,-90.0,0
705,46.0,-177.0,-89.0,0
706,44.0,-182.0,-88.0,0
707,47.0,-186.0,-89.0,0
708,47.0,-186.0,-86.0,0
709,46.0,-186.0,-87.0,0
710,45.0,-191.0,-84.0,0
711,48.0,-192.0,-84.0,0
712,47.0,-192.0,-82.0,0
713,50.0,-193.0,-80.0,0
714,50.0,-196.0,-76.0,0
715,51.0,-198.0,-76.0,0
716,54.0,-199.0,-76.0,0
717,55.0,-203.0,-73.0,0
718,53.0,-202.0,-70.0,0
719,54.0,-208.0,-68.0,0
720,54.0,-210.0,-63.0,0
721,51.0,-212.0,-62.0,0
722,49.0,-214.0,-60.0,0
723,46.0,-217.0,-62.0,0
724,45.0,-220.0,-57.0,0
725,43.0,-221.0,-54.0,0
726,39.0,-223.0,-59.0,0
727,38.0,-224.0,-54.0,0
728,33.0,-227.0,-59.0,0
729,31.0,-230.0,-56.0,0
730,27.0,-232.0,-59.0,0
731,21.0,-232.0,-63.0,0
732,14.0,-231.0,-58.0,0
733,8.0,-233.0,-62.0,0
734,7.0,-234.0,-60.0,0
735,4.0,-237.0,-63.0,0
736,2.0,-236.0,-64.0,0
737,5.0,-242.0,-69.0,0
738,12.0,-242.0,-71.0,0
739,16.0,-245.0,-75.0,0
740,28.0,-239.0,-89.0,0
741,27.0,-234.0,-103.0,0
742,28.0,-230.0,-107.0,0
743,27.0,-232.0,-107.0,0
744,26.0,-236.0,-99.0,0
745,28.0,-248.0,-89.0,0
746,31.0,-259.0,-73.0,0
747,28.0,-274.0,-53.0,0
748,33.0,-289.0,-33.0,0
749,33.0,-303.0,-19.0,0
750,44.0,-313.0,-20.0,0
751,53.0,-315.0,-37.0,0
752,55.0,-313.0,-62.0,0
753,48.0,-307.0,-95.0,0
754,39.0,-306.0,-124.0,0
755,37.0,-308.0,-148.0,0
756,44.0,-313.0,-164.0,0
757,48.0,-322.0,-173.0,0
758,55.0,-336.0,-178.0,0
759,59.0,-346.0,-170.0,0
760,67.0,-352.0,-160.0,0
761,76.0,-348.0,-158.0,0
762,93.0,-339.0,-160.0,0
763,84.0,-322.0,-166.0,0
764,69.0,-298.0,-160.0,0
765,50.0,-276.0,-157.0,0
766,42.0,-260.0,-153.0,0
767,30.0,-241.0,-151.0,0
768,24.0,-224.0,-153.0,0
769,10.0,-208.0,-158.0,0
770,-5.0,-196.0,-160.0,0
771,-25.0,-180.0,-158.0,0
772,-48.0,-166.0,-155.0,0
773,-73.0,-145.0,-149.0,0
774,-93.0,-128.0,-149.0,0
775,-103.0,-124.0,-144.0,0
776,-107.0,-125.0,-141.0,0
777,-97.0,-135.0,-147.0,0
778,-77.0,-151.0,-141.0,0
779,-63.0,-161.0,-141.0,0
780,-39.0,-179.0,-129.0,0
781,-14.0,-196.0,-126.0,0
782,3.0,-214.0,-117.0,0
783,23.0,-226.0,-105.0,0
784,41.0,-236.0,-99.0,0
785,58.0,-240.0,-93.0,0
786,71.0,-245.0,-87.0,0
787,80.0,-239.0,-79.0,0
788,83.0,-237.0,-86.0,0
789,87.0,-235.0,-87.0,0
790,89.0,-231.0,-91.0,0
791,91.0,-227.0,-90.0,0
792,87.0,-219.0,-96.0,0
793,87.0,-221.0,-100.0,0
794,79.0,-222.0,-103.0,0
795,66.0,-218.0,-107.0,0
796,53.0,-215.0,-108.0,0
797,39.0,-212.0,-110.0,0
798,25.0,-212.0,-112.0,0
799,7.0,-209.0,-111.0,0
800,1.0,-207.0,-113.0,0
801,-7.0,-201.0,-111.0,0
802,-8.0,-198.0,-107.0,0
803,-16.0,-192.0,-100.0,0
804,-17.0,-192.0,-107.0,0
805,-19.0,-195.0,-104.0,0
806,-24.0,-195.0,-102.0,0
807,-24.0,-186.0,-96.0,0
808,-29.0,-186.0,-97.0,0
809,-28.0,-179.0,-99.0,0
810,-33.0,-177.0,-86.0,0
811,-34.0,-172.0,-84.0,0
812,-34.0,-174.0,-77.0,0
813,-30.0,-174.0,-67.0,0
814,-27.0,-173.0,-73.0,0
815,-23.0,-177.0,-67.0,0
816,-22.0,-181.0,-64.0,0
817,-18.0,-187.0,-66.0,0
818,-10.0,-191.0,-69.0,0
819,-17.0,-194.0,-67.0,0
820,-15.0,-200.0,-72.0,0
821,-24.0,-204.0,-60.0,0
822,-24.0,-196.0,-71.0,0
823,-24.0,-198.0,-66.0,0
824,-23.0,-197.0,-69.0,0
825,-25.0,-193.0,-70.0,0
826,-26.0,-192.0,-70.0,0
827,-29.0,-191.0,-70.0,0
828,-32.0,-189.0,-71.0,0
829,-34.0,-190.0,-70.0,0
830,-36.0,-191.0,-61.0,0
831,-37.0,-193.0,-58.0,0
832,-40.0,-195.0,-57.0,0
833,-40.0,-198.0,-51.0,0
834,-41.0,-204.0,-50.0,0
835,-41.0,-212.0,-44.0,0
836,-41.0,-216.0,-41.0,0
837,-37.0,-223.0,-41.0,0
838,-33.0,-225.0,-38.0,0
839,-26.0,-233.0,-36.0,0
840,-19.0,-237.0,-34.0,0
841,-16.0,-240.0,-31.0,0
842,-13.0,-245.0,-33.0,0
843,-5.0,-247.0,-37.0,0
844,-1.0,-252.0,-45.0,0
845,1.0,-257.0,-42.0,0
846,-2.0,-259.0,-46.0,0
847,0.0,-265.0,-51.0,0
848,0.0,-268.0,-55.0,0
849,1.0,-266.0,-65.0,0
850,-2.0,-256.0,-77.0,0
851,-5.0,-258.0,-90.0,0
852,-13.0,-257.0,-89.0,0
853,-22.0,-267.0,-91.0,0
854,-32.0,-272.0,-81.0,0
855,-37.0,-281.0,-74.0,0
856,-44.0,-288.0,-59.0,0
857,-49.0,-293.0,-45.0,0
858,-57.0,-294.0,-32.0,0
859,-63.0,-293.0,-20.0,0
860,-64.0,-286.0,-13.0,0
861,-68.0,-277.0,-17.0,0
862,-77.0,-265.0,-30.0,0
863,-66.0,-257.0,-47.0,0
864,-57.0,-255.0,-59.0,0
865,-41.0,-256.0,-81.0,0
866,-34.0,-264.0,-106.0,0
867,-33.0,-280.0,-127.0,0
868,-30.0,-305.0,-153.0,0
869,-31.0,-324.0,-163.0,0
870,-37.0,-362.0,-173.0,0
871,-41.0,-386.0,-181.0,0
872,-55.0,-394.0,-191.0,0
873,-64.0,-393.0,-195.0,0
874,-64.0,-378.0,-199.0,0
875,-56.0,-357.0,-181.0,0
876,-42.0,-334.0,-162.0,0
877,-15.0,-317.0,-147.0,0
878,1.0,-299.0,-144.0,0
879,28.0,-274.0,-135.0,0
880,60.0,-248.0,-135.0,0
881,87.0,-212.0,-140.0,0
882,109.0,-191.0,-136.0,0
883,131.0,-165.0,-138.0,0
884,145.0,-146.0,-136.0,0
885,156.0,-139.0,-134.0,0
886,165.0,-139.0,-125.0,0
887,161.0,-142.0,-122.0,0
888,148.0,-141.0,-118.0,0
889,130.0,-148.0,-118.0,0
890,122.0,-168.0,-115.0,0
891,105.0,-182.0,-112.0,0
892,80.0,-200.0,-105.0,0
893,64.0,-217.0,-102.0,0
894,37.0,-227.0,-94.0,0
895,24.0,-240.0,-92.0,0
896,9.0,-240.0,-92.0,0
897,-3.0,-236.0,-97.0,0
898,-22.0,-230.0,-93.0,0
899,-35.0,-225.0,-96.0,0
900,-50.0,-219.0,-100.0,0
901,-59.0,-213.0,-103.0,0
902,-65.0,-214.0,-107.0,0
903,-72.0,-214.0,-105.0,0
904,-71.0,-214.0,-100.0,0
905,-70.0,-217.0,-99.0,0
906,-63.0,-212.0,-104.0,0
907,-56.0,-208.0,-103.0,0
908,-42.0,-204.0,-107.0,0
909,-28.0,-204.0,-112.0,0
910,-15.0,-200.0,-112.0,0
911,-3.0,-193.0,-106.0,0
912,9.0,-195.0,-110.0,0
913,19.0,-190.0,-108.0,0
914,30.0,-190.0,-101.0,0
915,32.0,-187.0,-101.0,0
916,38.0,-183.0,-97.0,0
917,42.0,-181.0,-94.0,0
918,49.0,-179.0,-97.0,0
919,57.0,-178.0,-96.0,0
920,57.0,-173.0,-91.0,0
921,57.0,-171.0,-91.0,0
922,56.0,-177.0,-82.0,0
923,56.0,-177.0,-79.0,0
924,57.0,-180.0,-77.0,0
925,59.0,-190.0,-81.0,0
926,59.0,-192.0,-79.0,0
927,52.0,-195.0,-76.0,0
928,53.0,-199.0,-73.0,0
929,55.0,-204.0,-74.0,0
930,55.0,-206.0,-70.0,0
931,57.0,-204.0,-69.0,0
932,59.0,-203.0,-70.0,0
933,59.0,-205.0,-68.0,0
934,60.0,-203.0,-67.0,0
935,62.0,-200.0,-70.0,0
936,68.0,-200.0,-65.0,0
937,66.0,-200.0,-64.0,0
938,67.0,-203.0,-64.0,0
939,67.0,-205.0,-64.0,0
940,70.0,-204.0,-62.0,0
941,66.0,-205.0,-61.0,0
942,66.0,-207.0,-61.0,0
943,64.0,-210.0,-56.0,0
944,64.0,-213.0,-56.0,0
945,59.0,-213.0,-56.0,0
946,57.0,-215.0,-58.0,0
947,54.0,-217.0,-56.0,0
948,48.0,-221.0,-55.0,0
949,42.0,-221.0,-57.0,0
950,37.0,-224.0,-58.0,0
951,29.0,-225.0,-60.0,0
952,22.0,-228.0,-61.0,0
953,17.0,-235.0,-61.0,0
954,11.0,-240.0,-59.0,0
955,10.0,-243.0,-58.0,0
956,4.0,-247.0,-57.0,0
957,4.0,-251.0,-61.0,0
958,1.0,-250.0,-57.0,0
959,1.0,-254.0,-57.0,0
960,3.0,-257.0,-60.0,0
961,13.0,-256.0,-65.0,0
962,18.0,-256.0,-76.0,0
963,25.0,-252.0,-87.0,0
964,30.0,-253.0,-91.0,0
965,36.0,-254.0,-95.0,0
966,38.0,-260.0,-82.0,0
967,31.0,-264.0,-77.0,0
968,32.0,-266.0,-67.0,0
969,28.0,-273.0,-54.0,0
970,27.0,-283.0,-40.0,0
971,34.0,-291.0,-30.0,0
972,38.0,-290.0,-34.0,0
973,38.0,-287.0,-51.0,0
974,45.0,-292.0,-70.0,0
975,46.0,-289.0,-94.0,0
976,53.0,-295.0,-118.0,0
977,59.0,-297.0,-137.0,0
978,60.0,-302.0,-166.0,0
979,58.0,-315.0,-179.0,0
980,57.0,-320.0,-190.0,0
981,65.0,-328.0,-196.0,0
982,77.0,-336.0,-192.0,0
983,96.0,-341.0,-192.0,0
984,104.0,-334.0,-187.0,0
985,92.0,-326.0,-179.0,0
986,72.0,-309.0,-161.0,0
987,60.0,-287.0,-149.0,0
988,59.0,-272.0,-145.0,0
989,49.0,-250.0,-147.0,0
990,40.0,-237.0,-143.0,0
991,21.0,-221.0,-144.0,0
992,-8.0,-205.0,-136.0,0
993,-36.0,-192.0,-130.0,0
994,-56.0,-180.0,-129.0,0
995,-72.0,-164.0,-131.0,0
996,-93.0,-150.0,-135.0,0
997,-100.0,-141.0,-135.0,0
998,-102.0,-142.0,-140.0,0
999,-103.0,-142.0,-135.0,0
1000,-87.0,-154.0,-137.0,0
1001,-74.0,-163.0,-131.0,0
1002,-52.0,-171.0,-135.0,0
1003,-38.0,-180.0,-133.0,0
1004,-16.0,-192.0,-127.0,0
1005,1.0,-208.0,-121.0,0
1006,15.0,-215.0,-114.0,0
1007,33.0,-223.0,-104.0,0
1008,41.0,-224.0,-103.0,0
1009,54.0,-223.0,-103.0,0
1010,61.0,-220.0,-101.0,0
1011,69.0,-220.0,-100.0,0
1012,71.0,-213.0,-97.0,0
1013,75.0,-212.0,-96.0,0
1014,83.0,-210.0,-99.0,0
1015,81.0,-208.0,-96.0,0
1016,73.0,-207.0,-99.0,0
1017,72.0,-214.0,-102.0,0
1018,64.0,-212.0,-102.0,0
1019,58.0,-214.0,-96.0,0
1020,54.0,-215.0,-104.0,0
1021,41.0,-211.0,-103.0,0
1022,38.0,-210.0,-107.0,0
1023,27.0,-213.0,-108.0,0
1024,19.0,-212.0,-105.0,0
1025,11.0,-205.0,-105.0,0
1026,8.0,-204.0,-108.0,0
1027,5.0,-206.0,-104.0,0
1028,1.0,-194.0,-104.0,0
1029,-5.0,-193.0,-100.0,0
1030,-6.0,-194.0,-97.0,0
1031,-16.0,-192.0,-95.0,0
1032,-22.0,-180.0,-92.0,0
1033,-25.0,-184.0,-92.0,0
1034,-28.0,-181.0,-95.0,0
1035,-27.0,-181.0,-98.0,0
1036,-32.0,-176.0,-89.0,0
1037,-35.0,-174.0,-88.0,0
1038,-34.0,-177.0,-82.0,0
1039,-32.0,-180.0,-80.0,0
1040,-30.0,-182.0,-85.0,0
1041,-33.0,-183.0,-82.0,0
1042,-33.0,-191.0,-80.0,0
1043,-34.0,-188.0,-82.0,0
1044,-35.0,-192.0,-81.0,0
1045,-32.0,-189.0,-81.0,0
1046,-29.0,-193.0,-83.0,0
1047,-29.0,-193.0,-81.0,0
1048,-25.0,-193.0,-81.0,0
1049,-21.0,-192.0,-81.0,0
1050,-20.0,-191.0,-84.0,0
1051,-18.0,-191.0,-84.0,0
1052,-15.0,-190.0,-82.0,0
1053,-16.0,-193.0,-81.0,0
1054,-17.0,-193.0,-77.0,0
1055,-20.0,-194.0,-75.0,0
1056,-21.0,-201.0,-73.0,0
1057,-24.0,-201.0,-72.0,0
1058,-29.0,-212.0,-65.0,0
1059,-35.0,-213.0,-62.0,0
1060,-40.0,-219.0,-61.0,0
1061,-44.0,-225.0,-61.0,0
1062,-45.0,-227.0,-59.0,0
1063,-44.0,-228.0,-59.0,0
1064,-43.0,-231.0,-55.0,0
1065,-35.0,-232.0,-58.0,0
1066,-30.0,-236.0,-59.0,0
1067,-25.0,-235.0,-54.0,0
1068,-16.0,-237.0,-55.0,0
1069,-11.0,-239.0,-58.0,0
1070,-4.0,-243.0,-55.0,0
1071,1.0,-244.0,-59.0,0
1072,10.0,-242.0,-56.0,0
1073,16.0,-250.0,-53.0,0
1074,17.0,-252.0,-52.0,0
1075,16.0,-252.0,-59.0,0
1076,9.0,-249.0,-70.0,0
1077,7.0,-249.0,-70.0,0
1078,0.0,-248.0,-72.0,0
1079,-2.0,-253.0,-74.0,0
1080,-12.0,-254.0,-68.0,0
1081,-15.0,-259.0,-64.0,0
1082,-23.0,-259.0,-61.0,0
1083,-29.0,-266.0,-54.0,0
1084,-34.0,-270.0,-45.0,0
1085,-44.0,-270.0,-37.0,0
1086,-43.0,-277.0,-32.0,0
1087,-46.0,-272.0,-25.0,0
1088,-48.0,-268.0,-25.0,0
1089,-45.0,-263.0,-28.0,0
1090,-48.0,-258.0,-43.0,0
1091,-38.0,-249.0,-62.0,0
1092,-15.0,-249.0,-82.0,0
1093,-8.0,-247.0,-102.0,0
1094,1.0,-255.0,-127.0,0
1095,-4.0,-265.0,-168.0,0
1096,-11.0,-283.0,-197.0,0
1097,-8.0,-311.0,-217.0,0
1098,-7.0,-344.0,-222.0,0
1099,-12.0,-382.0,-225.0,0
1100,-39.0,-400.0,-222.0,0
1101,-62.0,-393.0,-216.0,0
1102,-63.0,-381.0,-213.0,0
1103,-67.0,-351.0,-192.0,0
1104,-59.0,-324.0,-176.0,0
1105,-38.0,-302.0,-158.0,0
1106,-19.0,-286.0,-151.0,0
1107,0.0,-262.0,-154.0,0
1108,28.0,-230.0,-159.0,0
1109,60.0,-201.0,-153.0,0
1110,87.0,-180.0,-135.0,0
1111,94.0,-165.0,-131.0,0
1112,113.0,-153.0,-120.0,0
1113,126.0,-145.0,-111.0,0
1114,135.0,-144.0,-111.0,0
1115,133.0,-151.0,-112.0,0
1116,125.0,-161.0,-110.0,0
1117,110.0,-180.0,-105.0,0
1118,101.0,-199.0,-99.0,0
1119,87.0,-219.0,-95.0,0
1120,69.0,-232.0,-102.0,0
1121,53.0,-245.0,-107.0,0
1122,35.0,-250.0,-106.0,0
1123,25.0,-254.0,-106.0,0
1124,17.0,-248.0,-118.0,0
1125,9.0,-241.0,-119.0,0
1126,-3.0,-229.0,-120.0,0
1127,-16.0,-213.0,-119.0,0
1128,-18.0,-201.0,-116.0,0
1129,-19.0,-194.0,-116.0,0
1130,-20.0,-189.0,-120.0,0
1131,-21.0,-183.0,-114.0,0
1132,-23.0,-176.0,-115.0,0
1133,-20.0,-171.0,-116.0,0
1134,-10.0,-172.0,-113.0,0
1135,-3.0,-168.0,-109.0,0
1136,3.0,-168.0,-106.0,0
1137,7.0,-170.0,-99.0,0
1138,11.0,-176.0,-96.0,0
1139,17.0,-176.0,-92.0,0
1140,24.0,-180.0,-82.0,0
1141,31.0,-186.0,-85.0,0
1142,36.0,-190.0,-81.0,0
1143,39.0,-188.0,-80.0,0
1144,41.0,-185.0,-76.0,0
1145,48.0,-186.0,-74.0,0
1146,48.0,-189.0,-79.0,0
1147,47.0,-185.0,-79.0,0
1148,48.0,-187.0,-77.0,0
1149,46.0,-182.0,-75.0,0
1150,45.0,-184.0,-73.0,0
1151,42.0,-182.0,-70.0,0
1152,42.0,-184.0,-71.0,0
1153,41.0,-189.0,-76.0,0
1154,32.0,-188.0,-78.0,0
1155,31.0,-193.0,-75.0,0
1156,28.0,-195.0,-76.0,0
1157,20.0,-196.0,-78.0,0
1158,19.0,-202.0,-80.0,0
1159,14.0,-202.0,-84.0,0
1160,15.0,-202.0,-77.0,0
1161,7.0,-206.0,-80.0,0
1162,7.0,-212.0,-79.0,0
1163,10.0,-212.0,-82.0,0
1164,7.0,-212.0,-81.0,0
1165,11.0,-215.0,-82.0,0
1166,10.0,-214.0,-81.0,0
1167,6.0,-219.0,-74.0,0
1168,5.0,-218.0,-73.0,0
1169,5.0,-218.0,-76.0,0
1170,6.0,-213.0,-79.0,0
1171,4.0,-214.0,-80.0,0
1172,6.0,-204.0,-96.0,0
1173,7.0,-204.0,-113.0,0
1174,0.0,-200.0,-132.0,0
1175,-2.0,-197.0,-137.0,0
1176,-4.0,-200.0,-138.0,0
1177,1.0,-204.0,-126.0,0
1178,5.0,-211.0,-113.0,0
1179,11.0,-224.0,-89.0,0
1180,14.0,-243.0,-62.0,0
1181,19.0,-255.0,-44.0,0
1182,12.0,-259.0,-37.0,0
1183,8.0,-266.0,-36.0,0
1184,0.0,-264.0,-43.0,0
1185,-11.0,-256.0,-64.0,0
1186,-11.0,-243.0,-87.0,0
1187,-2.0,-233.0,-103.0,0
1188,-3.0,-214.0,-124.0,0
1189,3.0,-208.0,-132.0,0
1190,16.0,-206.0,-137.0,0
1191,27.0,-208.0,-137.0,0
1192,43.0,-217.0,-134.0,0
1193,56.0,-221.0,-133.0,0
1194,68.0,-228.0,-134.0,0
1195,71.0,-232.0,-130.0,0
1196,75.0,-230.0,-131.0,0
1197,81.0,-227.0,-127.0,0
1198,79.0,-225.0,-125.0,0
1199,79.0,-218.0,-124.0,0
1200,69.0,-214.0,-121.0,0
1201,59.0,-205.0,-120.0,0
1202,50.0,-203.0,-121.0,0
1203,43.0,-208.0,-119.0,0
1204,30.0,-211.0,-119.0,0
1205,22.0,-213.0,-119.0,0
1206,12.0,-212.0,-113.0,0
1207,10.0,-213.0,-107.0,0
1208,5.0,-216.0,-102.0,0
1209,2.0,-216.0,-103.0,0
1210,0.0,-213.0,-96.0,0
1211,-3.0,-206.0,-95.0,0
1212,-5.0,-200.0,-99.0,0
1213,-2.0,-192.0,-97.0,0
1214,0.0,-192.0,-95.0,0
1215,8.0,-188.0,-100.0,0
1216,15.0,-189.0,-102.0,0
1217,27.0,-193.0,-103.0,0
1218,34.0,-191.0,-105.0,0
1219,47.0,-192.0,-100.0,0
1220,58.0,-192.0,-103.0,0
1221,71.0,-191.0,-99.0,0
1222,87.0,-192.0,-96.0,0
1223,99.0,-190.0,-94.0,0
1224,114.0,-188.0,-94.0,0
1225,122.0,-182.0,-92.0,0
1226,129.0,-175.0,-94.0,0
1227,136.0,-178.0,-93.0,0
1228,142.0,-176.0,-94.0,0
1229,146.0,-173.0,-97.0,0
1230,150.0,-168.0,-96.0,0
1231,149.0,-165.0,-101.0,0
1232,150.0,-160.0,-102.0,0
1233,139.0,-154.0,-108.0,0
1234,133.0,-149.0,-117.0,0
1235,124.0,-146.0,-123.0,0
1236,112.0,-145.0,-126.0,0
1237,98.0,-149.0,-133.0,0
1238,88.0,-151.0,-133.0,0
1239,77.0,-153.0,-136.0,0
1240,72.0,-152.0,-134.0,0
1241,65.0,-159.0,-138.0,0
1242,64.0,-164.0,-143.0,0
1243,58.0,-166.0,-147.0,0
1244,55.0,-167.0,-143.0,0
1245,52.0,-167.0,-143.0,0
1246,48.0,-171.0,-136.0,0
1247,41.0,-172.0,-138.0,0
1248,41.0,-183.0,-139.0,0
1249,41.0,-183.0,-139.0,0
1250,37.0,-186.0,-139.0,0
1251,38.0,-190.0,-143.0,0
1252,42.0,-192.0,-142.0,0
1253,41.0,-191.0,-146.0,0
1254,42.0,-193.0,-146.0,0
1255,43.0,-193.0,-152.0,0
1256,37.0,-196.0,-154.0,0
1257,32.0,-198.0,-155.0,0
1258,30.0,-200.0,-158.0,0
1259,25.0,-201.0,-163.0,0
1260,23.0,-202.0,-167.0,0
1261,31.0,-205.0,-167.0,0
1262,18.0,-194.0,-170.0,0
1263,13.0,-189.0,-173.0,0
1264,8.0,-187.0,-170.0,0
1265,4.0,-185.0,-174.0,0
1266,2.0,-187.0,-172.0,0
1267,0.0,-195.0,-166.0,0
1268,0.0,-204.0,-165.0,0
1269,-3.0,-215.0,-165.0,0
1270,-7.0,-225.0,-168.0,0
1271,-1.0,-239.0,-186.0,0
1272,-3.0,-244.0,-193.0,0
1273,0.0,-254.0,-201.0,0
1274,0.0,-263.0,-196.0,0
1275,7.0,-272.0,-196.0,0
1276,10.0,-273.0,-200.0,0
1277,18.0,-272.0,-203.0,0
1278,23.0,-273.0,-209.0,0
1279,24.0,-271.0,-216.0,0
1280,31.0,-256.0,-223.0,0
1281,36.0,-242.0,-231.0,0
1282,35.0,-224.0,-237.0,0
1283,40.0,-211.0,-237.0,0
1284,39.0,-201.0,-231.0,0
1285,40.0,-194.0,-229.0,0
1286,40.0,-192.0,-227.0,0
1287,38.0,-185.0,-223.0,0
1288,39.0,-186.0,-220.0,0
1289,40.0,-182.0,-212.0,0
1290,42.0,-179.0,-204.0,0
1291,52.0,-166.0,-194.0,0
1292,64.0,-152.0,-185.0,0
1293,73.0,-136.0,-171.0,0
1294,82.0,-130.0,-167.0,0
1295,101.0,-122.0,-164.0,0
1296,114.0,-119.0,-160.0,0
1297,117.0,-116.0,-147.0,0
1298,124.0,-113.0,-142.0,0
1299,122.0,-111.0,-136.0,0
1300,125.0,-109.0,-132.0,0
1301,123.0,-106.0,-136.0,0
1302,125.0,-104.0,-131.0,0
1303,116.0,-104.0,-133.0,0
1304,110.0,-101.0,-135.0,0
1305,108.0,-105.0,-140.0,0
1306,99.0,-109.0,-141.0,0
1307,93.0,-106.0,-141.0,0
1308,88.0,-109.0,-141.0,0
1309,87.0,-115.0,-146.0,0
1310,83.0,-115.0,-155.0,0
1311,85.0,-116.0,-151.0,0
1312,80.0,-114.0,-158.0,0
1313,82.0,-114.0,-158.0,0
1314,84.0,-109.0,-162.0,0
1315,83.0,-108.0,-159.0,0
1316,82.0,-102.0,-158.0,0
1317,87.0,-101.0,-154.0,0
1318,94.0,-97.0,-156.0,0
1319,101.0,-91.0,-161.0,0
1320,108.0,-85.0,-163.0,0
1321,106.0,-78.0,-167.0,0
1322,107.0,-75.0,-166.0,0
1323,108.0,-75.0,-163.0,0
1324,114.0,-77.0,-161.0,0
1325,116.0,-81.0,-161.0,0
1326,118.0,-84.0,-160.0,0
1327,122.0,-86.0,-151.0,0
1328,123.0,-92.0,-141.0,0
1329,117.0,-93.0,-129.0,0
1330,114.0,-93.0,-124.0,0
1331,111.0,-91.0,-128.0,0
1332,107.0,-85.0,-133.0,0
1333,104.0,-77.0,-131.0,0
1334,109.0,-75.0,-129.0,0
1335,107.0,-66.0,-127.0,0
1336,113.0,-55.0,-127.0,0
1337,111.0,-53.0,-136.0,0
1338,111.0,-47.0,-135.0,0
1339,107.0,-45.0,-131.0,0
1340,107.0,-36.0,-125.0,0
1341,111.0,-38.0,-126.0,0
1342,113.0,-39.0,-123.0,0
1343,117.0,-43.0,-121.0,0
1344,114.0,-52.0,-117.0,0
1345,114.0,-55.0,-115.0,0
1346,114.0,-64.0,-110.0,0
1347,115.0,-66.0,-105.0,0
1348,113.0,-67.0,-93.0,1
1349,126.0,-65.0,-92.0,1
1350,142.0,-64.0,-91.0,1
1351,158.0,-55.0,-90.0,1
1352,166.0,-48.0,-92.0,1
1353,184.0,-42.0,-92.0,1
1354,188.0,-37.0,-91.0,1
1355,193.0,-35.0,-86.0,1
1356,198.0,-42.0,-75.0,1
1357,203.0,-48.0,-74.0,1
1358,202.0,-61.0,-69.0,1
1359,200.0,-69.0,-67.0,1
1360,205.0,-72.0,-67.0,1
1361,206.0,-73.0,-65.0,1
1362,200.0,-70.0,-68.0,1
1363,197.0,-68.0,-69.0,1
1364,197.0,-63.0,-71.0,1
1365,195.0,-60.0,-80.0,1
1366,198.0,-61.0,-84.0,1
1367,190.0,-63.0,-90.0,1
1368,187.0,-63.0,-101.0,1
1369,182.0,-66.0,-122.0,1
1370,180.0,-69.0,-115.0,1
1371,173.0,-94.0,-102.0,1
1372,155.0,-121.0,-85.0,1
1373,133.0,-148.0,-74.0,1
1374,127.0,-160.0,-80.0,1
1375,111.0,-171.0,-96.0,1
1376,119.0,-177.0,-116.0,1
1377,119.0,-183.0,-126.0,1
1378,137.0,-192.0,-127.0,1
1379,155.0,-194.0,-133.0,1
1380,177.0,-203.0,-146.0,1
1381,184.0,-210.0,-144.0,2
1382,194.0,-233.0,-129.0,2
1383,197.0,-247.0,-114.0,2
1384,208.0,-271.0,-89.0,2
1385,210.0,-289.0,-66.0,2
1386,211.0,-299.0,-46.0,2
1387,207.0,-298.0,-45.0,2
1388,204.0,-291.0,-41.0,2
1389,197.0,-272.0,-34.0,2
1390,188.0,-250.0,-35.0,2
1391,178.0,-227.0,-47.0,2
1392,174.0,-210.0,-56.0,2
1393,174.0,-200.0,-63.0,2
1394,177.0,-195.0,-64.0,2
1395,186.0,-199.0,-61.0,2
1396,191.0,-205.0,-51.0,2
1397,196.0,-216.0,-37.0,2
1398,195.0,-216.0,-10.0,2
1399,209.0,-229.0,4.0,2
1400,236.0,-228.0,8.0,2
1401,244.0,-223.0,18.0,2
1402,248.0,-222.0,24.0,2
1403,268.0,-217.0,31.0,2
1404,277.0,-215.0,26.0,2
1405,265.0,-205.0,24.0,2
1406,279.0,-195.0,-10.0,2
1407,267.0,-192.0,-15.0,2
1408,279.0,-185.0,-15.0,2
1409,285.0,-167.0,-5.0,2
1410,283.0,-167.0,2.0,2
1411,262.0,-160.0,12.0,2
1412,266.0,-151.0,3.0,2
1413,283.0,-142.0,8.0,2
1414,308.0,-140.0,11.0,2
1415,349.0,-140.0,9.0,2
1416,391.0,-144.0,23.0,2
1417,425.0,-153.0,28.0,2
1418,431.0,-155.0,24.0,2
1419,450.0,-153.0,14.0,2
1420,436.0,-168.0,44.0,2
1421,492.0,-153.0,42.0,2
1422,506.0,-195.0,81.0,2
1423,558.0,-212.0,120.0,2
1424,550.0,-207.0,127.0,2
1425,557.0,-193.0,154.0,2
1426,488.0,-231.0,173.0,2
1427,524.0,-176.0,132.0,2
1428,484.0,-166.0,143.0,2
1429,466.0,-126.0,137.0,2
1430,444.0,-81.0,136.0,2
1431,391.0,-52.0,139.0,2
1432,392.0,-36.0,142.0,2
1433,386.0,-30.0,141.0,2
1434,363.0,-50.0,135.0,2
1435,346.0,-77.0,130.0,2
1436,308.0,-87.0,129.0,2
1437,288.0,-95.0,129.0,2
1438,281.0,-97.0,145.0,2
1439,292.0,-96.0,159.0,2
1440,304.0,-92.0,168.0,2
1441,289.0,-86.0,148.0,2
1442,290.0,-83.0,138.0,2
1443,297.0,-84.0,130.0,2
1444,293.0,-70.0,134.0,2
1445,272.0,-80.0,143.0,2
1446,262.0,-81.0,162.0,2
1447,249.0,-86.0,157.0,2
1448,252.0,-86.0,154.0,2
1449,250.0,-79.0,142.0,2
1450,255.0,-67.0,142.0,2
1451,251.0,-61.0,144.0,2
1452,252.0,-34.0,139.0,2
1453,263.0,-19.0,139.0,2
1454,255.0,10.0,130.0,2
1455,246.0,35.0,132.0,2
1456,236.0,59.0,129.0,2
1457,199.0,63.0,133.0,2
1458,217.0,97.0,121.0,2
1459,205.0,105.0,137.0,2
1460,204.0,115.0,153.0,2
1461,181.0,123.0,169.0,2
1462,190.0,108.0,190.0,2
1463,196.0,97.0,210.0,2
1464,172.0,99.0,211.0,1
1465,174.0,95.0,215.0,1
1466,143.0,94.0,206.0,1
1467,144.0,78.0,194.0,1
1468,137.0,69.0,186.0,1
1469,134.0,51.0,171.0,1
1470,150.0,43.0,158.0,1
1471,158.0,47.0,154.0,1
1472,150.0,58.0,148.0,1
1473,155.0,71.0,150.0,1
1474,142.0,83.0,148.0,1
1475,145.0,99.0,141.0,1
1476,145.0,106.0,152.0,1
1477,140.0,111.0,157.0,1
1478,144.0,106.0,163.0,1
1479,151.0,102.0,168.0,1
1480,156.0,91.0,164.0,1
1481,160.0,70.0,169.0,1
1482,164.0,59.0,172.0,1
1483,171.0,43.0,167.0,1
1484,175.0,37.0,160.0,1
1485,175.0,39.0,144.0,1
1486,169.0,42.0,134.0,1
1487,163.0,53.0,127.0,1
1488,153.0,68.0,118.0,1
1489,153.0,72.0,119.0,1
1490,149.0,83.0,119.0,1
1491,147.0,89.0,127.0,1
1492,142.0,93.0,139.0,1
1493,143.0,93.0,145.0,1
1494,145.0,89.0,155.0,1
1495,148.0,81.0,162.0,1
1496,150.0,68.0,177.0,1
1497,158.0,60.0,184.0,1
1498,150.0,58.0,189.0,1
1499,160.0,55.0,189.0,1
1500,164.0,42.0,194.0,1
1501,165.0,39.0,194.0,1
1502,167.0,40.0,190.0,1
1503,171.0,45.0,192.0,1
1504,182.0,49.0,194.0,1
1505,192.0,54.0,191.0,1
1506,207.0,55.0,190.0,1
1507,213.0,55.0,190.0,1
1508,223.0,56.0,188.0,1
1509,229.0,60.0,181.0,1
1510,226.0,60.0,185.0,1
1511,224.0,64.0,179.0,1
1512,219.0,70.0,176.0,1
1513,220.0,73.0,174.0,1
1514,214.0,76.0,170.0,1
1515,210.0,75.0,175.0,1
1516,203.0,70.0,171.0,1
1517,219.0,63.0,181.0,1
1518,192.0,64.0,183.0,1
1519,191.0,56.0,190.0,1
1520,193.0,48.0,193.0,1
1521,178.0,50.0,201.0,1
1522,169.0,49.0,198.0,1
1523,155.0,45.0,201.0,1
1524,151.0,42.0,198.0,1
1525,154.0,40.0,196.0,1
1526,153.0,37.0,200.0,1
1527,153.0,36.0,198.0,1
1528,153.0,36.0,201.0,1
1529,150.0,43.0,198.0,1
1530,160.0,42.0,200.0,1
1531,156.0,45.0,196.0,1
1532,161.0,56.0,189.0,1
1533,172.0,54.0,187.0,1
1534,179.0,56.0,185.0,1
1535,187.0,55.0,185.0,1
1536,193.0,56.0,180.0,1
1537,194.0,56.0,177.0,1
1538,202.0,51.0,180.0,1
1539,204.0,49.0,180.0,1
1540,204.0,47.0,180.0,1
1541,207.0,42.0,178.0,1
1542,211.0,38.0,173.0,1
1543,203.0,42.0,169.0,1
1544,215.0,31.0,168.0,1
1545,232.0,26.0,169.0,1
1546,229.0,25.0,168.0,1
1547,220.0,18.0,165.0,1
1548,200.0,18.0,167.0,1
1549,188.0,11.0,157.0,1
1550,190.0,9.0,157.0,1
1551,187.0,6.0,156.0,1
1552,194.0,5.0,149.0,1
1553,197.0,4.0,147.0,1
1554,205.0,3.0,146.0,1
1555,206.0,5.0,142.0,1
1556,213.0,6.0,135.0,1
1557,219.0,5.0,140.0,1
1558,229.0,6.0,134.0,1
1559,231.0,0.0,133.0,1
1560,229.0,-2.0,133.0,1
1561,226.0,0.0,136.0,1
1562,231.0,-4.0,132.0,1
1563,231.0,-6.0,134.0,1
1564,228.0,-12.0,138.0,1
1565,229.0,-11.0,138.0,1
1566,226.0,-12.0,133.0,1
1567,230.0,-10.0,131.0,1
1568,231.0,-14.0,129.0,1
1569,228.0,-15.0,128.0,1
1570,227.0,-14.0,127.0,1
1571,228.0,-19.0,123.0,1
1572,227.0,-20.0,124.0,1
1573,238.0,-27.0,124.0,1
1574,233.0,-26.0,121.0,1
1575,231.0,-28.0,118.0,1
1576,236.0,-28.0,117.0,1
1577,237.0,-25.0,114.0,1
1578,236.0,-21.0,117.0,1
1579,237.0,-13.0,116.0,1
1580,240.0,-8.0,112.0,1
1581,237.0,-7.0,114.0,1
1582,236.0,0.0,116.0,1
1583,238.0,3.0,110.0,1
1584,234.0,4.0,111.0,1
1585,245.0,4.0,112.0,1
1586,250.0,4.0,107.0,1
1587,260.0,16.0,105.0,1
1588,263.0,8.0,115.0,1
1589,264.0,11.0,104.0,1
1590,263.0,9.0,108.0,1
1591,251.0,14.0,101.0,1
1592,253.0,5.0,99.0,1
1593,245.0,7.0,104.0,1
1594,246.0,5.0,97.0,1
1595,249.0,4.0,96.0,1
1596,256.0,0.0,99.0,1
1597,254.0,1.0,93.0,1
1598,258.0,1.0,95.0,1
1599,258.0,5.0,91.0,1
1600,257.0,5.0,95.0,0
1601,257.0,5.0,92.0,0
1602,259.0,11.0,93.0,0
1603,258.0,11.0,93.0,0
1604,256.0,14.0,89.0,0
1605,255.0,16.0,93.0,0
1606,255.0,18.0,87.0,0
1607,256.0,21.0,93.0,0
1608,258.0,21.0,88.0,0
1609,257.0,27.0,92.0,0
1610,255.0,28.0,93.0,0
1611,254.0,29.0,94.0,0
1612,256.0,32.0,94.0,0
1613,257.0,30.0,90.0,0
1614,257.0,36.0,91.0,0
1615,257.0,36.0,91.0,0
1616,255.0,34.0,97.0,0
1617,256.0,39.0,94.0,0
1618,255.0,34.0,95.0,0
1619,256.0,33.0,100.0,0
1620,252.0,33.0,99.0,0
1621,249.0,31.0,95.0,0
1622,247.0,31.0,100.0,0
1623,247.0,29.0,99.0,0
1624,248.0,29.0,97.0,0
1625,246.0,32.0,98.0,0
1626,247.0,31.0,100.0,0
1627,245.0,30.0,98.0,0
1628,246.0,31.0,97.0,0
1629,246.0,32.0,98.0,0
1630,247.0,33.0,94.0,0
1631,247.0,34.0,96.0,0
1632,250.0,35.0,95.0,0
1633,250.0,33.0,95.0,0
1634,253.0,37.0,92.0,0
1635,248.0,39.0,96.0,0
1636,263.0,37.0,95.0,0
1637,248.0,41.0,97.0,0
1638,250.0,40.0,99.0,0
1639,251.0,35.0,96.0,0
1640,253.0,38.0,95.0,0
1641,249.0,33.0,97.0,0
1642,251.0,34.0,98.0,0
1643,251.0,37.0,97.0,0
1644,252.0,34.0,93.0,0
1645,251.0,36.0,96.0,0
1646,255.0,33.0,97.0,0
1647,250.0,34.0,94.0,0
1648,250.0,37.0,93.0,0
1649,249.0,33.0,94.0,0
1650,252.0,31.0,94.0,0
1651,252.0,33.0,95.0,0
1652,251.0,32.0,96.0,0
1653,255.0,34.0,93.0,0
1654,254.0,33.0,94.0,0
1655,254.0,33.0,94.0,0
1656,254.0,33.0,98.0,0
1657,250.0,36.0,95.0,0
1658,253.0,33.0,92.0,0
1659,254.0,33.0,96.0,0
1660,254.0,31.0,91.0,0
1661,252.0,32.0,93.0,0
1662,253.0,33.0,94.0,0
1663,251.0,32.0,94.0,0
1664,253.0,27.0,95.0,0
1665,249.0,29.0,95.0,0
1666,249.0,27.0,95.0,0
1667,250.0,28.0,92.0,0
1668,251.0,28.0,93.0,0
1669,252.0,28.0,93.0,0
1670,250.0,24.0,97.0,0
1671,249.0,26.0,92.0,0
1672,248.0,24.0,94.0,0
1673,247.0,25.0,96.0,0
1674,244.0,25.0,95.0,0
1675,247.0,23.0,95.0,0
1676,246.0,19.0,96.0,0
1677,246.0,20.0,97.0,0
1678,244.0,21.0,98.0,0
1679,243.0,22.0,97.0,0
1680,246.0,21.0,98.0,0
1681,244.0,21.0,97.0,0
1682,246.0,21.0,98.0,0
1683,248.0,20.0,98.0,0
1684,250.0,21.0,100.0,0
1685,243.0,24.0,98.0,0
1686,243.0,22.0,98.0,0
1687,244.0,23.0,99.0,0
1688,245.0,23.0,100.0,0
1689,243.0,25.0,102.0,0
1690,244.0,24.0,100.0,0
1691,246.0,24.0,101.0,0
1692,242.0,23.0,101.0,0
1693,244.0,25.0,101.0,0
1694,241.0,22.0,102.0,0
1695,240.0,26.0,107.0,0
1696,244.0,24.0,101.0,0
1697,242.0,24.0,105.0,0
1698,243.0,24.0,101.0,0
1699,244.0,22.0,104.0,0
1700,244.0,22.0,104.0,0
1701,242.0,23.0,106.0,0
1702,241.0,24.0,105.0,0
1703,240.0,22.0,103.0,0
1704,242.0,25.0,106.0,0
1705,239.0,26.0,108.0,0
1706,241.0,27.0,105.0,0
1707,243.0,24.0,106.0,0
1708,241.0,26.0,110.0,0
1709,242.0,23.0,106.0,0
1710,239.0,25.0,112.0,0
1711,239.0,23.0,109.0,0
1712,240.0,22.0,108.0,0
1713,239.0,25.0,109.0,0
1714,240.0,25.0,112.0,0
1715,238.0,26.0,110.0,0
1716,238.0,23.0,110.0,0
1717,242.0,21.0,106.0,0
1718,244.0,26.0,107.0,0
1719,239.0,28.0,106.0,0
1720,240.0,28.0,107.0,0
1721,240.0,24.0,106.0,0
1722,241.0,26.0,107.0,0
1723,242.0,24.0,107.0,0
1724,243.0,26.0,107.0,0
1725,242.0,22.0,105.0,0
1726,242.0,23.0,104.0,0
1727,242.0,25.0,108.0,0
1728,241.0,26.0,110.0,0
1729,243.0,26.0,104.0,0
1730,243.0,24.0,106.0,0
1731,240.0,27.0,105.0,0
1732,240.0,24.0,107.0,0
1733,242.0,24.0,103.0,0
1734,252.0,24.0,105.0,0
1735,245.0,23.0,102.0,0
1736,244.0,25.0,102.0,0
1737,241.0,25.0,105.0,0
1738,242.0,25.0,105.0,0
1739,246.0,24.0,104.0,0
1740,247.0,24.0,100.0,0
1741,243.0,25.0,104.0,0
1742,245.0,26.0,101.0,0
1743,245.0,28.0,102.0,0
1744,242.0,26.0,104.0,0
1745,251.0,24.0,104.0,0
1746,243.0,26.0,102.0,0
1747,244.0,23.0,105.0,0
1748,247.0,23.0,101.0,0
1749,245.0,22.0,102.0,0
1750,245.0,24.0,101.0,0
1751,244.0,25.0,105.0,0
1752,244.0,24.0,103.0,0
1753,244.0,21.0,105.0,0
1754,240.0,24.0,101.0,0
1755,249.0,19.0,101.0,0
1756,247.0,24.0,101.0,0
1757,247.0,24.0,101.0,0
1758,243.0,24.0,104.0,0
1759,246.0,25.0,105.0,0
1760,246.0,26.0,101.0,0
1761,245.0,26.0,99.0,0
1762,242.0,21.0,99.0,0
1763,245.0,24.0,96.0,0
1764,241.0,25.0,100.0,0
1765,246.0,26.0,99.0,0
1766,248.0,24.0,97.0,0
1767,246.0,25.0,99.0,0
1768,248.0,25.0,101.0,0
1769,241.0,26.0,100.0,0
1770,241.0,28.0,101.0,0
1771,245.0,31.0,101.0,0
1772,245.0,24.0,104.0,0
1773,249.0,23.0,99.0,0
1774,245.0,26.0,99.0,0
1775,245.0,24.0,102.0,0
1776,246.0,27.0,99.0,0
1777,248.0,25.0,103.0,0
1778,246.0,24.0,103.0,0
1779,245.0,23.0,103.0,0
1780,247.0,27.0,98.0,0
1781,247.0,25.0,102.0,0
1782,246.0,27.0,101.0,0
1783,246.0,27.0,101.0,0
1784,250.0,22.0,99.0,0
1785,244.0,26.0,101.0,0
1786,243.0,27.0,102.0,0
1787,247.0,26.0,100.0,0
1788,245.0,27.0,97.0,0
1789,245.0,29.0,102.0,0
1790,244.0,26.0,98.0,0
1791,249.0,23.0,101.0,0
1792,245.0,26.0,100.0,0
1793,245.0,22.0,100.0,0
1794,245.0,22.0,101.0,0
1795,242.0,25.0,100.0,0
1796,243.0,26.0,105.0,0
1797,249.0,26.0,101.0,0
1798,247.0,28.0,100.0,0
1799,245.0,27.0,100.0,0
1800,246.0,26.0,101.0,0
1801,245.0,26.0,103.0,0
1802,246.0,22.0,99.0,0
1803,245.0,28.0,101.0,0
1804,245.0,25.0,100.0,0
1805,247.0,25.0,99.0,0
1806,245.0,26.0,97.0,0
1807,247.0,28.0,99.0,0
1808,247.0,27.0,96.0,0
1809,246.0,25.0,103.0,0
1810,248.0,27.0,102.0,0
1811,247.0,25.0,102.0,0
1812,248.0,24.0,100.0,0
1813,244.0,26.0,99.0,0
1814,244.0,25.0,98.0,0
1815,248.0,28.0,98.0,0
1816,245.0,26.0,100.0,0
1817,244.0,29.0,103.0,0
1818,246.0,25.0,97.0,0
1819,247.0,28.0,100.0,0
1820,248.0,26.0,103.0,0
1821,249.0,26.0,101.0,0
1822,246.0,25.0,106.0,0
1823,245.0,27.0,101.0,0
1824,246.0,27.0,99.0,0
1825,248.0,27.0,102.0,0
1826,245.0,28.0,101.0,0
1827,246.0,27.0,98.0,0
1828,247.0,27.0,103.0,0
1829,246.0,28.0,103.0,0
1830,248.0,25.0,103.0,0
1831,249.0,26.0,103.0,0
1832,247.0,25.0,100.0,0
1833,246.0,24.0,99.0,0
1834,247.0,28.0,96.0,0
1835,247.0,24.0,97.0,0
1836,247.0,25.0,99.0,0
1837,244.0,25.0,100.0,0
1838,244.0,24.0,101.0,0
1839,246.0,23.0,105.0,0
1840,243.0,26.0,102.0,0
1841,247.0,24.0,102.0,0
1842,244.0,28.0,98.0,0
1843,240.0,25.0,101.0,0
1844,242.0,24.0,102.0,0
1845,243.0,24.0,101.0,0
1846,244.0,25.0,103.0,0
1847,241.0,22.0,102.0,0
1848,241.0,28.0,103.0,0
1849,244.0,22.0,101.0,0
1850,246.0,26.0,102.0,0
1851,245.0,20.0,104.0,0
1852,243.0,23.0,100.0,0
1853,243.0,22.0,100.0,0
1854,246.0,23.0,104.0,0
1855,243.0,22.0,102.0,0
1856,243.0,21.0,102.0,0
1857,243.0,25.0,104.0,0
1858,248.0,22.0,106.0,0
1859,244.0,24.0,105.0,0
1860,246.0,20.0,102.0,0
1861,243.0,22.0,100.0,0
1862,244.0,21.0,102.0,0
1863,245.0,21.0,101.0,0
1864,245.0,24.0,102.0,0
1865,244.0,25.0,102.0,0
1866,248.0,18.0,100.0,0
1867,246.0,22.0,101.0,0
1868,246.0,23.0,100.0,0
1869,244.0,21.0,100.0,0
1870,247.0,23.0,102.0,0
1871,245.0,24.0,102.0,0
1872,243.0,25.0,101.0,0
1873,243.0,24.0,101.0,0
1874,243.0,25.0,104.0,0
1875,243.0,26.0,107.0,0
1876,242.0,24.0,103.0,0
1877,244.0,20.0,106.0,0
1878,245.0,25.0,105.0,0
1879,243.0,24.0,107.0,0
1880,243.0,22.0,103.0,0
1881,244.0,22.0,101.0,0
1882,246.0,24.0,106.0,0
1883,245.0,21.0,103.0,0
1884,244.0,23.0,102.0,0
1885,248.0,22.0,103.0,0
1886,242.0,27.0,102.0,0
1887,246.0,19.0,102.0,0
1888,245.0,22.0,102.0,0
1889,244.0,21.0,102.0,0
1890,245.0,23.0,105.0,0
1891,244.0,22.0,102.0,0
1892,245.0,26.0,105.0,0
1893,245.0,26.0,106.0,0
1894,245.0,22.0,103.0,0
1895,244.0,23.0,104.0,0
1896,247.0,21.0,102.0,0
1897,246.0,21.0,104.0,0
1898,246.0,22.0,105.0,0
1899,244.0,26.0,102.0,0
1900,249.0,22.0,100.0,0
1901,245.0,23.0,105.0,0
1902,244.0,24.0,103.0,0
1903,249.0,21.0,102.0,0
1904,247.0,25.0,104.0,0
1905,244.0,24.0,101.0,0
1906,243.0,22.0,102.0,0
1907,245.0,22.0,100.0,0
1908,241.0,23.0,102.0,0
1909,245.0,20.0,101.0,0
1910,243.0,21.0,103.0,0
1911,242.0,23.0,101.0,0
1912,245.0,23.0,104.0,0
1913,242.0,22.0,105.0,0
1914,243.0,23.0,105.0,0
1915,244.0,20.0,103.0,0
1916,240.0,25.0,108.0,0
1917,245.0,19.0,102.0,0
1918,241.0,22.0,104.0,0
1919,240.0,21.0,105.0,0
1920,247.0,16.0,101.0,0
1921,245.0,21.0,102.0,0
1922,243.0,22.0,99.0,0
1923,246.0,19.0,105.0,0
1924,244.0,24.0,101.0,0
1925,246.0,20.0,100.0,0
1926,245.0,22.0,97.0,0
1927,244.0,20.0,98.0,0
1928,246.0,21.0,100.0,0
1929,248.0,23.0,99.0,0
1930,245.0,25.0,96.0,0
1931,244.0,23.0,101.0,0
1932,245.0,21.0,102.0,0
1933,246.0,23.0,99.0,0
1934,248.0,18.0,103.0,0
1935,247.0,19.0,104.0,0
1936,246.0,23.0,100.0,0
1937,244.0,24.0,98.0,0
1938,246.0,22.0,104.0,0
1939,244.0,23.0,95.0,0
1940,246.0,25.0,101.0,0
1941,246.0,23.0,104.0,0
1942,247.0,21.0,102.0,0
1943,244.0,22.0,104.0,0
1944,246.0,23.0,103.0,0
1945,244.0,24.0,102.0,0
1946,247.0,21.0,100.0,0
1947,242.0,23.0,99.0,0
1948,245.0,21.0,101.0,0
1949,241.0,26.0,104.0,0
1950,244.0,22.0,100.0,0
1951,242.0,22.0,100.0,0
1952,245.0,23.0,103.0,0
1953,242.0,22.0,101.0,0
1954,247.0,21.0,101.0,0
1955,245.0,21.0,99.0,0
1956,245.0,21.0,98.0,0
1957,247.0,25.0,100.0,0
1958,246.0,22.0,95.0,0
1959,242.0,21.0,99.0,0
1960,246.0,23.0,101.0,0
1961,249.0,21.0,101.0,0
1962,245.0,25.0,101.0,0
1963,244.0,25.0,102.0,0
1964,244.0,22.0,100.0,0
1965,248.0,21.0,102.0,0
1966,246.0,22.0,102.0,0
1967,247.0,21.0,98.0,0
1968,243.0,19.0,101.0,0
1969,248.0,20.0,104.0,0
1970,247.0,22.0,103.0,0
1971,247.0,19.0,102.0,0
1972,247.0,21.0,102.0,0
1973,246.0,22.0,97.0,0
1974,247.0,22.0,102.0,0
1975,246.0,23.0,101.0,0
1976,245.0,22.0,102.0,0
1977,246.0,24.0,100.0,0
1978,244.0,23.0,100.0,0
1979,245.0,20.0,104.0,0
1980,245.0,23.0,96.0,0
1981,242.0,25.0,99.0,0
1982,245.0,21.0,96.0,0
1983,245.0,22.0,103.0,0
1984,246.0,21.0,103.0,0
1985,249.0,23.0,97.0,0
1986,245.0,25.0,103.0,0
1987,248.0,22.0,103.0,0
1988,248.0,26.0,102.0,0
1989,247.0,26.0,107.0,0
1990,245.0,22.0,106.0,0
1991,244.0,24.0,105.0,0
1992,246.0,23.0,103.0,0
1993,245.0,25.0,106.0,0
1994,245.0,24.0,101.0,0
1995,243.0,22.0,101.0,0
1996,246.0,23.0,100.0,0
1997,242.0,24.0,99.0,0
1998,245.0,21.0,100.0,0
1999,248.0,24.0,103.0,0
2000,246.0,25.0,102.0,0
2001,246.0,23.0,102.0,0
2002,243.0,24.0,102.0,0
2003,245.0,21.0,100.0,0
2004,245.0,20.0,100.0,0
2005,245.0,20.0,100.0,0
2006,244.0,21.0,101.0,0
2007,243.0,19.0,100.0,0
2008,242.0,23.0,97.0,0
2009,243.0,18.0,103.0,0
2010,245.0,18.0,103.0,0
2011,244.0,19.0,104.0,0
2012,244.0,22.0,105.0,0
2013,247.0,20.0,102.0,0
2014,247.0,21.0,104.0,0
2015,245.0,21.0,105.0,0
2016,242.0,24.0,104.0,0
2017,245.0,23.0,103.0,0
2018,244.0,18.0,102.0,0
2019,241.0,23.0,106.0,0
2020,242.0,23.0,106.0,0
2021,241.0,19.0,109.0,0
2022,239.0,21.0,103.0,0
2023,245.0,21.0,105.0,0
2024,241.0,20.0,103.0,0
2025,245.0,19.0,107.0,0
2026,245.0,17.0,106.0,0
2027,242.0,19.0,106.0,0
2028,243.0,15.0,104.0,0
2029,244.0,20.0,102.0,0
2030,242.0,20.0,102.0,0
2031,243.0,18.0,104.0,0
2032,242.0,19.0,104.0,0
2033,243.0,20.0,107.0,0
2034,244.0,18.0,103.0,0
2035,243.0,21.0,105.0,0
2036,242.0,22.0,102.0,0
2037,243.0,18.0,105.0,0
2038,244.0,17.0,105.0,0
2039,242.0,17.0,107.0,0
2040,245.0,16.0,103.0,0
2041,241.0,19.0,107.0,0
2042,241.0,19.0,108.0,0
2043,241.0,13.0,107.0,0
2044,247.0,17.0,108.0,0
2045,245.0,15.0,103.0,0
2046,244.0,19.0,106.0,0
2047,242.0,19.0,102.0,0
2048,243.0,19.0,101.0,0
2049,244.0,18.0,103.0,0
2050,244.0,17.0,104.0,0
2051,242.0,19.0,102.0,0
2052,244.0,19.0,102.0,0
2053,245.0,20.0,104.0,0
2054,245.0,22.0,101.0,0
2055,242.0,23.0,100.0,0
2056,242.0,25.0,100.0,0
2057,247.0,20.0,102.0,0
2058,247.0,24.0,105.0,0
2059,245.0,23.0,104.0,0
2060,247.0,23.0,104.0,0
2061,260.0,17.0,104.0,0
2062,239.0,19.0,101.0,0
2063,241.0,23.0,102.0,0
2064,243.0,23.0,100.0,0
2065,249.0,24.0,100.0,0
2066,248.0,20.0,101.0,0
2067,244.0,23.0,103.0,0
2068,244.0,24.0,100.0,0
2069,245.0,24.0,103.0,0
2070,247.0,22.0,98.0,0
2071,247.0,24.0,100.0,0
2072,246.0,22.0,99.0,0
2073,246.0,23.0,100.0,0
2074,247.0,20.0,99.0,0
2075,244.0,19.0,100.0,0
2076,244.0,20.0,98.0,0
2077,244.0,21.0,102.0,0
2078,246.0,22.0,104.0,0
2079,246.0,19.0,103.0,0
2080,244.0,21.0,103.0,0
2081,242.0,23.0,97.0,0
2082,244.0,20.0,101.0,0
2083,242.0,22.0,105.0,0
2084,246.0,23.0,105.0,0
2085,244.0,20.0,105.0,0
2086,244.0,24.0,104.0,0
2087,247.0,22.0,102.0,0
2088,244.0,23.0,107.0,0
2089,247.0,24.0,104.0,0
2090,244.0,22.0,102.0,0
2091,245.0,24.0,104.0,0
2092,243.0,22.0,104.0,0
2093,241.0,21.0,103.0,0
2094,246.0,21.0,100.0,0
2095,242.0,20.0,100.0,0
2096,246.0,18.0,105.0,0
2097,243.0,20.0,106.0,0
2098,244.0,21.0,108.0,0
2099,244.0,18.0,104.0,0
2100,244.0,22.0,104.0,0
2101,246.0,19.0,103.0,0
2102,244.0,21.0,102.0,0
2103,241.0,20.0,105.0,0
2104,245.0,17.0,103.0,0
2105,245.0,23.0,103.0,0
2106,244.0,17.0,104.0,0
2107,246.0,22.0,106.0,0
2108,244.0,18.0,102.0,0
2109,245.0,21.0,102.0,0
2110,244.0,20.0,106.0,0
2111,247.0,20.0,104.0,0
2112,247.0,21.0,104.0,0
2113,245.0,19.0,105.0,0
2114,242.0,21.0,107.0,0
2115,243.0,22.0,106.0,0
2116,240.0,19.0,102.0,0
2117,241.0,21.0,104.0,0
2118,245.0,20.0,108.0,0
2119,245.0,23.0,103.0,0
2120,243.0,20.0,104.0,0
2121,243.0,22.0,104.0,0
2122,240.0,18.0,105.0,0
2123,242.0,16.0,100.0,0
2124,244.0,21.0,104.0,0
2125,245.0,19.0,102.0,0
2126,245.0,24.0,107.0,0
2127,245.0,18.0,108.0,0
2128,249.0,18.0,106.0,0
2129,244.0,22.0,106.0,0
2130,244.0,18.0,106.0,0
2131,243.0,22.0,104.0,0
2132,245.0,19.0,105.0,0
2133,244.0,22.0,108.0,0
2134,242.0,21.0,103.0,0
2135,242.0,21.0,104.0,0
2136,244.0,19.0,103.0,0
2137,243.0,22.0,102.0,0
2138,244.0,20.0,103.0,0
2139,243.0,21.0,102.0,0
2140,245.0,20.0,106.0,0
2141,247.0,21.0,101.0,0
2142,245.0,19.0,108.0,0
2143,241.0,21.0,106.0,0
2144,244.0,21.0,103.0,0
2145,242.0,23.0,107.0,0
2146,243.0,21.0,105.0,0
2147,246.0,23.0,104.0,0
2148,240.0,18.0,104.0,0
2149,244.0,22.0,102.0,0
2150,244.0,23.0,105.0,0
2151,243.0,22.0,108.0,0
2152,245.0,22.0,103.0,0
2153,246.0,23.0,104.0,0
2154,244.0,21.0,101.0,0
2155,247.0,20.0,105.0,0
2156,245.0,20.0,106.0,0
2157,245.0,19.0,103.0,0
2158,245.0,20.0,101.0,0
2159,244.0,19.0,104.0,0
2160,243.0,17.0,105.0,0
2161,245.0,16.0,103.0,0
2162,247.0,19.0,101.0,0
2163,246.0,19.0,110.0,0
2164,245.0,18.0,106.0,0
2165,245.0,19.0,108.0,0
2166,242.0,17.0,105.0,0
2167,244.0,20.0,105.0,0
2168,243.0,19.0,110.0,0
2169,244.0,22.0,110.0,0
2170,243.0,15.0,106.0,0
2171,244.0,20.0,106.0,0
2172,244.0,21.0,106.0,0
2173,243.0,19.0,104.0,0
2174,245.0,19.0,106.0,0
2175,244.0,21.0,102.0,0
2176,243.0,19.0,110.0,0
2177,242.0,21.0,105.0,0
2178,243.0,22.0,108.0,0
2179,244.0,20.0,107.0,0
2180,244.0,20.0,105.0,0
2181,243.0,19.0,103.0,0
2182,242.0,19.0,107.0,0
2183,238.0,18.0,104.0,0
2184,243.0,17.0,108.0,0
2185,241.0,19.0,108.0,0
2186,239.0,14.0,108.0,0
2187,244.0,14.0,107.0,0
2188,240.0,17.0,109.0,0
2189,242.0,16.0,103.0,0
2190,242.0,17.0,103.0,0
2191,244.0,17.0,104.0,0
2192,244.0,17.0,105.0,0
2193,242.0,17.0,105.0,0
2194,241.0,19.0,107.0,0
2195,246.0,16.0,107.0,0
2196,242.0,19.0,106.0,0
2197,247.0,15.0,109.0,0
2198,244.0,19.0,107.0,0
2199,246.0,16.0,106.0,0
2200,242.0,17.0,104.0,0
2201,240.0,21.0,108.0,0
2202,244.0,19.0,109.0,0
2203,243.0,17.0,108.0,0
2204,243.0,19.0,108.0,0
2205,243.0,20.0,103.0,0
2206,243.0,21.0,105.0,0
2207,245.0,15.0,102.0,0
2208,245.0,22.0,105.0,0
2209,244.0,19.0,105.0,0
2210,242.0,18.0,107.0,0
2211,241.0,19.0,106.0,0
2212,242.0,19.0,108.0,0
2213,242.0,20.0,103.0,0
2214,244.0,19.0,105.0,0
2215,244.0,19.0,104.0,0
2216,248.0,18.0,106.0,0
2217,246.0,20.0,103.0,0
2218,245.0,17.0,105.0,0
2219,245.0,21.0,104.0,0
2220,246.0,18.0,105.0,0
2221,242.0,21.0,107.0,0
2222,242.0,18.0,103.0,0
2223,245.0,19.0,108.0,0
2224,241.0,19.0,105.0,0
2225,242.0,20.0,103.0,0
2226,242.0,17.0,104.0,0
2227,241.0,19.0,105.0,0
2228,244.0,22.0,102.0,0
2229,247.0,20.0,107.0,0
2230,244.0,20.0,104.0,0
2231,246.0,17.0,106.0,0
2232,243.0,16.0,104.0,0
2233,244.0,18.0,105.0,0
2234,242.0,19.0,105.0,0
2235,242.0,20.0,104.0,0
2236,245.0,20.0,106.0,0
2237,246.0,20.0,105.0,0
2238,246.0,17.0,107.0,0
2239,247.0,18.0,105.0,0
2240,244.0,18.0,106.0,0
2241,244.0,16.0,105.0,0
2242,246.0,21.0,101.0,0
2243,243.0,19.0,106.0,0
2244,244.0,16.0,106.0,0
2245,243.0,16.0,105.0,0
2246,245.0,15.0,102.0,0
2247,243.0,14.0,103.0,0
2248,245.0,17.0,101.0,0
2249,242.0,16.0,102.0,0
2250,247.0,18.0,103.0,0
2251,245.0,16.0,102.0,0
2252,243.0,16.0,98.0,0
2253,244.0,16.0,105.0,0
2254,245.0,15.0,104.0,0
2255,245.0,16.0,107.0,0
2256,243.0,19.0,102.0,0
2257,246.0,15.0,104.0,0
2258,244.0,15.0,102.0,0
2259,245.0,17.0,102.0,0
2260,242.0,21.0,103.0,0
2261,243.0,19.0,104.0,0
2262,244.0,17.0,103.0,0
2263,245.0,18.0,104.0,0
2264,246.0,19.0,104.0,0
2265,243.0,18.0,106.0,0
2266,243.0,19.0,103.0,0
2267,241.0,17.0,102.0,0
2268,245.0,14.0,103.0,0
2269,245.0,17.0,103.0,0
2270,246.0,16.0,105.0,0
2271,242.0,16.0,105.0,0
2272,242.0,16.0,104.0,0
2273,244.0,12.0,107.0,0
2274,246.0,18.0,104.0,0
2275,245.0,18.0,104.0,0
2276,246.0,15.0,102.0,0
2277,246.0,14.0,102.0,0
2278,244.0,16.0,105.0,0
2279,242.0,15.0,101.0,0
2280,244.0,16.0,103.0,0
2281,243.0,16.0,102.0,0
2282,245.0,17.0,104.0,0
2283,244.0,17.0,103.0,0
2284,243.0,15.0,102.0,0
2285,244.0,18.0,104.0,0
2286,243.0,15.0,105.0,0
2287,243.0,14.0,102.0,0
2288,247.0,15.0,105.0,0
2289,244.0,15.0,103.0,0
2290,243.0,13.0,104.0,0
2291,245.0,15.0,105.0,0
2292,243.0,18.0,102.0,0
2293,247.0,16.0,106.0,0
2294,243.0,15.0,106.0,0
2295,243.0,16.0,103.0,0
2296,242.0,18.0,102.0,0
2297,242.0,16.0,101.0,0
2298,242.0,18.0,105.0,0
2299,245.0,19.0,102.0,0
2300,241.0,19.0,101.0,0
2301,245.0,16.0,101.0,0
2302,243.0,16.0,106.0,0
2303,242.0,18.0,103.0,0
2304,243.0,14.0,104.0,0
2305,248.0,13.0,100.0,0
2306,244.0,17.0,102.0,0
2307,245.0,15.0,106.0,0
2308,247.0,18.0,105.0,0
2309,243.0,15.0,104.0,0
2310,244.0,13.0,103.0,0
2311,244.0,12.0,105.0,0
2312,243.0,13.0,106.0,0
2313,244.0,14.0,105.0,0
2314,243.0,13.0,103.0,0
2315,242.0,12.0,104.0,0
2316,246.0,17.0,104.0,0
2317,247.0,11.0,106.0,0
2318,243.0,17.0,100.0,0
2319,242.0,16.0,102.0,0
2320,244.0,15.0,104.0,0
2321,245.0,13.0,102.0,0
2322,244.0,16.0,102.0,0
2323,245.0,20.0,103.0,0
2324,244.0,16.0,100.0,0
2325,244.0,16.0,100.0,0
2326,244.0,19.0,104.0,0
2327,247.0,23.0,103.0,0
2328,242.0,16.0,105.0,0
2329,244.0,14.0,105.0,0
2330,244.0,13.0,101.0,0
2331,246.0,14.0,103.0,0
2332,246.0,17.0,105.0,0
2333,246.0,14.0,105.0,0
2334,247.0,13.0,102.0,0
2335,242.0,12.0,104.0,0
2336,242.0,8.0,104.0,0
2337,243.0,11.0,103.0,0
2338,244.0,16.0,103.0,0
2339,242.0,16.0,105.0,0
2340,225.0,9.0,86.0,0
2341,244.0,17.0,96.0,0
2342,251.0,22.0,100.0,0
2343,244.0,16.0,100.0,0
2344,243.0,19.0,100.0,0
2345,244.0,15.0,102.0,0
2346,246.0,17.0,102.0,0
2347,246.0,15.0,101.0,0
2348,247.0,19.0,103.0,0
2349,248.0,18.0,105.0,0
2350,245.0,16.0,104.0,0
2351,243.0,18.0,101.0,0
2352,246.0,15.0,104.0,0
2353,246.0,17.0,104.0,0
2354,245.0,13.0,101.0,0
2355,242.0,18.0,100.0,0
2356,247.0,15.0,102.0,0
2357,244.0,13.0,104.0,0
2358,243.0,14.0,100.0,0
2359,245.0,16.0,104.0,0
2360,244.0,16.0,105.0,0
2361,261.0,27.0,105.0,0
2362,244.0,16.0,102.0,0
2363,243.0,19.0,101.0,0
2364,240.0,15.0,101.0,0
2365,244.0,17.0,100.0,0
2366,246.0,13.0,100.0,0
2367,244.0,14.0,101.0,0
2368,245.0,13.0,101.0,0
2369,245.0,11.0,97.0,0
2370,242.0,15.0,104.0,0
2371,244.0,15.0,100.0,0
2372,247.0,10.0,99.0,0
2373,244.0,14.0,100.0,0
2374,242.0,14.0,101.0,0
2375,246.0,10.0,100.0,0
2376,242.0,13.0,98.0,0
2377,244.0,12.0,103.0,0
2378,245.0,11.0,96.0,0
2379,245.0,15.0,101.0,0
2380,246.0,14.0,103.0,0
2381,244.0,12.0,102.0,0
2382,245.0,14.0,101.0,0
2383,246.0,15.0,101.0,0
2384,246.0,14.0,101.0,0
2385,247.0,12.0,105.0,0
2386,246.0,16.0,101.0,0
2387,245.0,17.0,105.0,0
2388,246.0,15.0,101.0,0
2389,248.0,13.0,106.0,0
2390,245.0,13.0,102.0,0
2391,246.0,13.0,101.0,0
2392,244.0,16.0,100.0,0
2393,245.0,15.0,101.0,0
2394,244.0,15.0,106.0,0
2395,244.0,13.0,104.0,0
2396,245.0,12.0,104.0,0
2397,246.0,13.0,101.0,0
2398,245.0,13.0,100.0,0
2399,243.0,12.0,104.0,0
2400,246.0,12.0,103.0,0
2401,244.0,15.0,106.0,0
2402,244.0,14.0,104.0,0
2403,241.0,15.0,101.0,0
2404,244.0,15.0,104.0,0
2405,246.0,15.0,103.0,0
2406,247.0,13.0,104.0,0
2407,244.0,15.0,102.0,0
2408,244.0,16.0,101.0,0
2409,244.0,15.0,101.0,0
2410,244.0,15.0,101.0,0
2411,243.0,18.0,103.0,0
2412,244.0,13.0,100.0,0
2413,246.0,14.0,101.0,0
2414,246.0,14.0,104.0,0
2415,247.0,16.0,103.0,0
2416,245.0,16.0,103.0,0
2417,243.0,17.0,103.0,0
2418,247.0,14.0,101.0,0
2419,246.0,15.0,104.0,0
2420,246.0,17.0,103.0,0
2421,247.0,15.0,101.0,0
2422,246.0,15.0,99.0,0
2423,245.0,15.0,102.0,0
2424,245.0,17.0,102.0,0
2425,249.0,16.0,106.0,0
2426,246.0,17.0,103.0,0
2427,245.0,17.0,102.0,0
2428,244.0,17.0,102.0,0
2429,243.0,18.0,105.0,0
2430,247.0,15.0,103.0,0
2431,244.0,13.0,102.0,0
2432,248.0,17.0,104.0,0
2433,243.0,14.0,102.0,0
2434,247.0,14.0,102.0,0
2435,246.0,16.0,106.0,0
2436,243.0,16.0,103.0,0
2437,246.0,16.0,100.0,0
2438,243.0,15.0,104.0,0
2439,251.0,9.0,96.0,0
2440,241.0,17.0,106.0,0
2441,246.0,15.0,105.0,0
2442,245.0,16.0,103.0,0
2443,244.0,19.0,104.0,0
2444,245.0,14.0,104.0,0
2445,244.0,19.0,103.0,0
2446,244.0,20.0,103.0,0
2447,243.0,18.0,102.0,0
2448,243.0,22.0,103.0,0
2449,246.0,20.0,103.0,0
2450,247.0,20.0,102.0,0
2451,245.0,21.0,103.0,0
2452,243.0,18.0,102.0,0
2453,243.0,20.0,97.0,0
2454,249.0,18.0,101.0,0
2455,246.0,19.0,98.0,0
2456,248.0,20.0,105.0,0
2457,242.0,23.0,100.0,0
2458,245.0,16.0,104.0,0
2459,246.0,18.0,99.0,0
2460,243.0,18.0,98.0,0
2461,244.0,16.0,104.0,0
2462,244.0,16.0,99.0,0
2463,244.0,18.0,103.0,0
2464,246.0,20.0,103.0,0
2465,245.0,20.0,104.0,0
2466,247.0,19.0,106.0,0
2467,242.0,21.0,102.0,0
2468,245.0,17.0,102.0,0
2469,244.0,18.0,104.0,0
2470,244.0,19.0,101.0,0
2471,240.0,21.0,105.0,0
2472,245.0,24.0,101.0,0
2473,245.0,24.0,103.0,0
2474,244.0,22.0,101.0,0
2475,247.0,17.0,104.0,0
2476,246.0,18.0,105.0,0
2477,245.0,21.0,105.0,0
2478,246.0,18.0,103.0,0
2479,245.0,18.0,103.0,0
2480,246.0,18.0,104.0,0
2481,247.0,17.0,100.0,0
2482,247.0,21.0,102.0,0
2483,245.0,18.0,97.0,0
2484,247.0,21.0,97.0,0
2485,249.0,20.0,100.0,0
2486,246.0,19.0,102.0,0
2487,248.0,23.0,97.0,0
2488,246.0,21.0,102.0,0
2489,245.0,23.0,102.0,0
2490,246.0,21.0,105.0,0
2491,247.0,23.0,103.0,0
2492,247.0,21.0,98.0,0
2493,244.0,24.0,100.0,0
2494,249.0,18.0,103.0,0
2495,248.0,19.0,99.0,0
2496,247.0,20.0,104.0,0
2497,245.0,22.0,103.0,0
2498,244.0,17.0,104.0,0
2499,248.0,20.0,99.0,0
2500,246.0,19.0,104.0,0
2501,245.0,18.0,102.0,0
2502,245.0,20.0,104.0,0
2503,243.0,23.0,102.0,0
2504,244.0,19.0,106.0,0
2505,245.0,18.0,104.0,0
2506,246.0,22.0,101.0,0
2507,246.0,19.0,103.0,0
2508,246.0,21.0,104.0,0
2509,245.0,20.0,100.0,0
2510,244.0,20.0,102.0,0
2511,243.0,19.0,100.0,0
2512,246.0,18.0,99.0,0
2513,246.0,20.0,101.0,0
2514,245.0,20.0,100.0,0
2515,245.0,18.0,101.0,0
2516,245.0,22.0,101.0,0
2517,243.0,17.0,100.0,0
2518,245.0,19.0,103.0,0
2519,248.0,18.0,102.0,0
2520,246.0,22.0,102.0,0
2521,243.0,21.0,100.0,0
2522,244.0,21.0,102.0,0
2523,245.0,22.0,103.0,0
2524,248.0,23.0,97.0,0
2525,245.0,23.0,101.0,0
2526,249.0,21.0,103.0,0
2527,250.0,18.0,101.0,0
2528,244.0,19.0,100.0,0
2529,245.0,19.0,104.0,0
2530,244.0,22.0,102.0,0
2531,245.0,24.0,100.0,0
2532,248.0,20.0,103.0,0
2533,248.0,18.0,101.0,0
2534,245.0,20.0,103.0,0
2535,243.0,20.0,104.0,0
2536,244.0,20.0,101.0,0
2537,240.0,21.0,102.0,0
2538,244.0,21.0,103.0,0
2539,246.0,21.0,105.0,0
2540,243.0,21.0,102.0,0
2541,243.0,20.0,103.0,0
2542,246.0,18.0,102.0,0
2543,243.0,21.0,104.0,0
2544,246.0,20.0,108.0,0
2545,245.0,18.0,104.0,0
2546,244.0,21.0,98.0,0
2547,244.0,22.0,105.0,0
2548,246.0,20.0,106.0,0
2549,244.0,20.0,104.0,0
2550,244.0,21.0,106.0,0
2551,243.0,21.0,104.0,0
2552,246.0,20.0,106.0,0
2553,244.0,20.0,106.0,0
2554,245.0,19.0,103.0,0
2555,245.0,18.0,106.0,0
2556,245.0,19.0,102.0,0
2557,244.0,21.0,106.0,0
2558,244.0,21.0,104.0,0
2559,241.0,20.0,105.0,0
2560,243.0,20.0,103.0,0
2561,244.0,21.0,103.0,0
2562,245.0,18.0,105.0,0
2563,241.0,22.0,107.0,0
2564,245.0,21.0,104.0,0
2565,249.0,17.0,104.0,0
2566,243.0,22.0,104.0,0
2567,245.0,20.0,103.0,0
2568,243.0,21.0,105.0,0
2569,241.0,21.0,102.0,0
2570,244.0,19.0,105.0,0
2571,244.0,19.0,104.0,0
2572,244.0,19.0,107.0,0
2573,245.0,21.0,101.0,0
2574,242.0,19.0,104.0,0
2575,243.0,20.0,104.0,0
2576,243.0,22.0,104.0,0
2577,245.0,25.0,109.0,0
2578,242.0,21.0,105.0,0
2579,243.0,18.0,107.0,0
2580,246.0,22.0,103.0,0
2581,243.0,22.0,105.0,0
2582,244.0,19.0,108.0,0
2583,240.0,20.0,104.0,0
2584,245.0,20.0,105.0,0
2585,242.0,19.0,104.0,0
2586,244.0,21.0,103.0,0
2587,244.0,23.0,105.0,0
2588,243.0,21.0,106.0,0
2589,241.0,21.0,104.0,0
2590,244.0,18.0,107.0,0
2591,241.0,24.0,105.0,0
2592,244.0,22.0,101.0,0
2593,244.0,21.0,101.0,0
2594,247.0,21.0,102.0,0
2595,248.0,17.0,102.0,0
2596,243.0,18.0,105.0,0
2597,244.0,19.0,102.0,0
2598,245.0,20.0,105.0,0
2599,244.0,18.0,107.0,0
2600,245.0,19.0,105.0,0
2601,246.0,15.0,108.0,0
2602,245.0,20.0,107.0,0
2603,246.0,19.0,110.0,0
2604,244.0,19.0,105.0,0
2605,247.0,19.0,106.0,0
2606,242.0,19.0,106.0,0
2607,242.0,19.0,107.0,0
2608,244.0,20.0,107.0,0
2609,243.0,21.0,106.0,0
2610,244.0,23.0,108.0,0
2611,244.0,18.0,105.0,0
2612,239.0,21.0,106.0,0
2613,244.0,16.0,107.0,0
2614,243.0,21.0,104.0,0
2615,242.0,22.0,108.0,0
2616,243.0,18.0,107.0,0
2617,243.0,21.0,106.0,0
2618,243.0,17.0,107.0,0
2619,240.0,17.0,110.0,0
2620,243.0,17.0,106.0,0
2621,244.0,18.0,103.0,0
2622,242.0,22.0,105.0,0
2623,243.0,19.0,104.0,0
2624,246.0,16.0,106.0,0
2625,243.0,17.0,106.0,0
2626,246.0,19.0,100.0,0
2627,242.0,19.0,104.0,0
2628,246.0,19.0,103.0,0
2629,245.0,21.0,106.0,0
2630,244.0,19.0,105.0,0
2631,244.0,19.0,107.0,0
2632,247.0,19.0,107.0,0
2633,242.0,17.0,107.0,0
2634,243.0,16.0,108.0,0
2635,242.0,20.0,109.0,0
2636,243.0,18.0,105.0,0
2637,244.0,17.0,108.0,0
2638,242.0,19.0,108.0,0
2639,245.0,21.0,106.0,0
2640,243.0,20.0,108.0,0
2641,243.0,19.0,108.0,0
2642,243.0,18.0,105.0,0
2643,243.0,18.0,108.0,0
2644,239.0,19.0,112.0,0
2645,243.0,19.0,106.0,0
2646,244.0,18.0,107.0,0
2647,243.0,17.0,111.0,0
2648,242.0,18.0,106.0,0
2649,243.0,20.0,107.0,0
2650,242.0,19.0,109.0,0
2651,243.0,18.0,106.0,0
2652,239.0,20.0,108.0,0
2653,243.0,18.0,105.0,0
2654,241.0,19.0,110.0,0
2655,244.0,20.0,107.0,0
2656,242.0,19.0,105.0,0
2657,242.0,16.0,106.0,0
2658,244.0,21.0,107.0,0
2659,242.0,22.0,109.0,0
2660,245.0,18.0,106.0,0
2661,242.0,21.0,106.0,0
2662,242.0,22.0,107.0,0
2663,243.0,19.0,107.0,0
2664,243.0,21.0,106.0,0
2665,245.0,20.0,104.0,0
2666,243.0,24.0,109.0,0
2667,244.0,17.0,106.0,0
2668,245.0,20.0,107.0,0
2669,243.0,22.0,107.0,0
2670,244.0,19.0,108.0,0
2671,243.0,19.0,109.0,0
2672,244.0,19.0,106.0,0
2673,246.0,21.0,107.0,0
2674,242.0,18.0,105.0,0
2675,241.0,18.0,104.0,0
2676,242.0,16.0,105.0,0
2677,241.0,19.0,105.0,0
2678,243.0,18.0,108.0,0
2679,242.0,19.0,105.0,0
2680,245.0,17.0,104.0,0
2681,245.0,17.0,105.0,0
2682,243.0,21.0,102.0,0
2683,242.0,20.0,107.0,0
2684,243.0,19.0,106.0,0
2685,243.0,17.0,106.0,0
2686,244.0,19.0,106.0,0
2687,243.0,20.0,111.0,0
2688,244.0,17.0,108.0,0
2689,244.0,18.0,106.0,0
2690,243.0,23.0,106.0,0
2691,247.0,19.0,105.0,0
2692,244.0,21.0,109.0,0
2693,243.0,21.0,107.0,0
2694,241.0,18.0,104.0,0
2695,244.0,17.0,108.0,0
2696,244.0,19.0,105.0,0
2697,243.0,20.0,106.0,0
2698,244.0,18.0,104.0,0
2699,246.0,19.0,103.0,0
2700,244.0,21.0,105.0,0
2701,243.0,19.0,106.0,0
2702,243.0,17.0,105.0,0
2703,242.0,19.0,103.0,0
2704,244.0,18.0,106.0,0
2705,243.0,18.0,108.0,0
2706,246.0,18.0,109.0,0
2707,244.0,19.0,109.0,0
2708,242.0,19.0,107.0,0
2709,243.0,20.0,109.0,0
2710,240.0,20.0,106.0,0
2711,241.0,17.0,102.0,0
2712,243.0,20.0,106.0,0
2713,245.0,19.0,103.0,0
2714,242.0,20.0,106.0,0
2715,242.0,18.0,110.0,0
2716,244.0,19.0,104.0,0
2717,242.0,21.0,107.0,0
2718,242.0,18.0,106.0,0
2719,241.0,17.0,107.0,0
2720,242.0,17.0,108.0,0
2721,240.0,19.0,106.0,0
2722,243.0,15.0,110.0,0
2723,243.0,20.0,106.0,0
2724,243.0,20.0,105.0,0
2725,244.0,16.0,106.0,0
2726,241.0,17.0,104.0,0
2727,247.0,17.0,108.0,0
2728,240.0,17.0,107.0,0
2729,243.0,14.0,106.0,0
2730,243.0,18.0,103.0,0
2731,241.0,19.0,107.0,0
2732,241.0,21.0,106.0,0
2733,243.0,19.0,109.0,0
2734,242.0,18.0,105.0,0
2735,243.0,19.0,106.0,0
2736,244.0,18.0,108.0,0
2737,246.0,18.0,102.0,0
2738,244.0,19.0,108.0,0
2739,245.0,20.0,106.0,0
2740,245.0,16.0,107.0,0
2741,246.0,19.0,104.0,0
2742,243.0,15.0,104.0,0
2743,245.0,18.0,108.0,0
2744,244.0,19.0,106.0,0
2745,242.0,19.0,104.0,0
2746,242.0,15.0,111.0,0
2747,243.0,20.0,102.0,0
2748,244.0,17.0,109.0,0
2749,244.0,19.0,108.0,0
2750,243.0,17.0,105.0,0
2751,243.0,18.0,107.0,0
2752,244.0,17.0,106.0,0
2753,244.0,19.0,104.0,0
2754,241.0,21.0,107.0,0
2755,243.0,17.0,109.0,0
2756,241.0,15.0,106.0,0
2757,240.0,18.0,108.0,0
2758,242.0,17.0,108.0,0
2759,242.0,20.0,105.0,0
2760,243.0,17.0,106.0,0
2761,241.0,18.0,107.0,0
2762,243.0,16.0,106.0,0
2763,245.0,13.0,108.0,0
2764,243.0,15.0,106.0,0
2765,245.0,14.0,106.0,0
2766,245.0,14.0,106.0,0
2767,248.0,15.0,105.0,0
2768,243.0,16.0,105.0,0
2769,243.0,17.0,106.0,0
2770,244.0,17.0,105.0,0
2771,246.0,19.0,106.0,0
2772,247.0,16.0,104.0,0
2773,242.0,20.0,104.0,0
2774,244.0,17.0,103.0,0
2775,245.0,17.0,102.0,0
2776,243.0,18.0,109.0,0
2777,242.0,17.0,110.0,0
2778,244.0,21.0,105.0,0
2779,243.0,18.0,106.0,0
2780,246.0,16.0,106.0,0
2781,245.0,16.0,108.0,0
2782,241.0,20.0,111.0,0
2783,242.0,14.0,108.0,0
2784,242.0,18.0,108.0,0
2785,241.0,15.0,108.0,0
2786,243.0,15.0,105.0,0
2787,243.0,17.0,113.0,0
2788,239.0,17.0,106.0,0
2789,243.0,17.0,104.0,0
2790,242.0,14.0,106.0,0
2791,244.0,14.0,105.0,0
2792,242.0,17.0,107.0,0
2793,241.0,18.0,104.0,0
2794,245.0,17.0,107.0,0
2795,242.0,19.0,104.0,0
2796,245.0,15.0,106.0,0
2797,240.0,18.0,105.0,0
2798,244.0,15.0,103.0,0
2799,243.0,14.0,109.0,0
2800,246.0,16.0,103.0,0
2801,245.0,17.0,101.0,0
2802,243.0,16.0,104.0,0
2803,243.0,18.0,104.0,0
2804,246.0,21.0,104.0,0
2805,242.0,17.0,106.0,0
2806,244.0,16.0,104.0,0
2807,246.0,16.0,102.0,0
2808,246.0,16.0,105.0,0
2809,247.0,17.0,104.0,0
2810,247.0,17.0,105.0,0
2811,243.0,15.0,102.0,0
2812,245.0,16.0,103.0,0
2813,245.0,17.0,101.0,0
2814,248.0,18.0,105.0,0
2815,246.0,15.0,103.0,0
2816,245.0,17.0,104.0,0
2817,243.0,17.0,103.0,0
2818,245.0,14.0,102.0,0
2819,246.0,15.0,103.0,0
2820,243.0,17.0,101.0,0
2821,245.0,16.0,106.0,0
2822,243.0,14.0,103.0,0
2823,242.0,15.0,104.0,0
2824,243.0,17.0,100.0,0
2825,243.0,16.0,104.0,0
2826,244.0,16.0,100.0,0
2827,247.0,15.0,99.0,0
2828,243.0,19.0,104.0,0
2829,242.0,17.0,102.0,0
2830,242.0,16.0,102.0,0
2831,248.0,16.0,101.0,0
2832,246.0,20.0,106.0,0
2833,244.0,19.0,101.0,0
2834,244.0,16.0,103.0,0
2835,247.0,14.0,102.0,0
2836,244.0,15.0,106.0,0
2837,245.0,12.0,105.0,0
2838,244.0,17.0,105.0,0
2839,244.0,15.0,105.0,0
2840,247.0,14.0,104.0,0
2841,245.0,15.0,103.0,0
2842,243.0,16.0,101.0,0
2843,243.0,14.0,100.0,0
2844,245.0,14.0,105.0,0
2845,245.0,14.0,102.0,0
2846,245.0,14.0,101.0,0
2847,246.0,14.0,101.0,0
2848,246.0,14.0,104.0,0
2849,242.0,15.0,99.0,0
2850,244.0,13.0,103.0,0
2851,248.0,16.0,103.0,0
2852,247.0,15.0,106.0,0
2853,242.0,17.0,106.0,0
2854,242.0,14.0,99.0,0
2855,245.0,14.0,101.0,0
2856,245.0,16.0,104.0,0
2857,244.0,15.0,104.0,0
2858,246.0,13.0,103.0,0
2859,247.0,16.0,101.0,0
2860,244.0,15.0,102.0,0
2861,245.0,11.0,105.0,0
2862,240.0,16.0,106.0,0
2863,243.0,13.0,106.0,0
2864,244.0,11.0,102.0,0
2865,245.0,13.0,106.0,0
2866,241.0,16.0,103.0,0
2867,245.0,12.0,102.0,0
2868,245.0,15.0,100.0,0
2869,241.0,10.0,101.0,0
2870,244.0,10.0,99.0,0
2871,245.0,6.0,103.0,0
2872,244.0,15.0,98.0,0
2873,244.0,11.0,102.0,0
2874,245.0,13.0,105.0,0
2875,245.0,12.0,102.0,0
2876,246.0,10.0,102.0,0
2877,243.0,16.0,103.0,0
2878,243.0,15.0,100.0,0
2879,246.0,11.0,104.0,0
2880,244.0,13.0,104.0,0
2881,245.0,16.0,101.0,0
2882,244.0,12.0,101.0,0
2883,241.0,14.0,103.0,0
2884,241.0,16.0,103.0,0
2885,244.0,15.0,102.0,0
2886,243.0,17.0,104.0,0
2887,243.0,16.0,99.0,0
2888,243.0,15.0,104.0,0
2889,247.0,14.0,102.0,0
2890,245.0,12.0,101.0,0
2891,243.0,11.0,101.0,0
2892,242.0,12.0,105.0,0
2893,241.0,13.0,101.0,0
2894,244.0,13.0,102.0,0
2895,242.0,15.0,103.0,0
2896,245.0,11.0,102.0,0
2897,245.0,14.0,107.0,0
2898,245.0,13.0,108.0,0
2899,242.0,12.0,103.0,0
2900,241.0,14.0,107.0,0
2901,245.0,11.0,105.0,0
2902,246.0,10.0,106.0,0
2903,241.0,13.0,103.0,0
2904,242.0,12.0,105.0,0
2905,245.0,15.0,103.0,0
2906,245.0,10.0,103.0,0
2907,243.0,17.0,105.0,0
2908,242.0,16.0,104.0,0
2909,243.0,17.0,105.0,0
2910,244.0,16.0,103.0,0
2911,242.0,14.0,104.0,0
2912,243.0,13.0,105.0,0
2913,244.0,17.0,102.0,0
2914,241.0,17.0,105.0,0
2915,244.0,21.0,106.0,0
2916,246.0,19.0,104.0,0
2917,245.0,16.0,101.0,0
2918,242.0,17.0,106.0,0
2919,246.0,17.0,105.0,0
2920,245.0,13.0,103.0,0
2921,244.0,17.0,105.0,0
2922,244.0,16.0,107.0,0
2923,246.0,15.0,103.0,0
2924,244.0,14.0,101.0,0
2925,244.0,15.0,105.0,0
2926,246.0,15.0,105.0,0
2927,246.0,18.0,106.0,0
2928,244.0,15.0,105.0,0
2929,243.0,16.0,106.0,0
2930,243.0,14.0,106.0,0
2931,245.0,16.0,101.0,0
2932,245.0,15.0,101.0,0
2933,242.0,16.0,104.0,0
2934,243.0,16.0,106.0,0
2935,244.0,12.0,103.0,0
2936,246.0,11.0,106.0,0
2937,245.0,13.0,105.0,0
2938,246.0,13.0,103.0,0
2939,241.0,13.0,103.0,0
2940,245.0,12.0,106.0,0
2941,243.0,12.0,105.0,0
2942,242.0,16.0,107.0,0
2943,242.0,13.0,105.0,0
2944,244.0,15.0,106.0,0
2945,244.0,15.0,103.0,0
2946,244.0,15.0,102.0,0
2947,243.0,15.0,104.0,0
2948,244.0,13.0,104.0,0
2949,245.0,15.0,103.0,0
2950,244.0,16.0,108.0,0
2951,246.0,13.0,104.0,0
2952,248.0,15.0,104.0,0
2953,244.0,14.0,106.0,0
2954,242.0,15.0,104.0,0
2955,242.0,15.0,104.0,0
2956,244.0,14.0,107.0,0
2957,245.0,15.0,105.0,0
2958,245.0,14.0,101.0,0
2959,245.0,15.0,105.0,0
2960,246.0,14.0,107.0,0
2961,243.0,10.0,105.0,0
2962,242.0,15.0,108.0,0
2963,245.0,13.0,107.0,0
2964,243.0,14.0,105.0,0
2965,245.0,14.0,106.0,0
2966,242.0,14.0,103.0,0
2967,243.0,14.0,106.0,0
2968,244.0,17.0,108.0,0
2969,242.0,13.0,108.0,0
2970,242.0,15.0,104.0,0
2971,240.0,17.0,107.0,0
2972,243.0,14.0,103.0,0
2973,241.0,17.0,106.0,0
2974,245.0,19.0,108.0,0
2975,244.0,16.0,107.0,0
2976,246.0,15.0,107.0,0
2977,242.0,17.0,100.0,0
2978,242.0,17.0,103.0,0
2979,244.0,12.0,107.0,0
2980,243.0,19.0,106.0,0
2981,245.0,16.0,105.0,0
2982,242.0,16.0,103.0,0
2983,243.0,15.0,109.0,0
2984,241.0,13.0,106.0,0
2985,241.0,16.0,106.0,0
2986,242.0,13.0,107.0,0
2987,244.0,16.0,108.0,0
2988,239.0,16.0,107.0,0
2989,245.0,13.0,106.0,0
2990,246.0,13.0,107.0,0
2991,245.0,18.0,110.0,0
2992,245.0,19.0,108.0,0
2993,245.0,16.0,107.0,0
2994,245.0,14.0,108.0,0
2995,242.0,19.0,106.0,0
2996,243.0,16.0,107.0,0
2997,241.0,14.0,104.0,0
2998,243.0,17.0,103.0,0
2999,243.0,16.0,108.0,0
