,accelerometer_x,accelerometer_y,accelerometer_z,fall
0,13.0,-251.0,12.0,0
1,14.0,-253.0,9.0,0
2,12.0,-251.0,12.0,0
3,13.0,-250.0,9.0,0
4,13.0,-254.0,11.0,0
5,10.0,-252.0,13.0,0
6,14.0,-256.0,13.0,0
7,13.0,-252.0,9.0,0
8,13.0,-252.0,12.0,0
9,14.0,-253.0,12.0,0
10,15.0,-250.0,12.0,0
11,15.0,-250.0,8.0,0
12,12.0,-253.0,11.0,0
13,16.0,-253.0,10.0,0
14,13.0,-252.0,11.0,0
15,12.0,-252.0,10.0,0
16,15.0,-251.0,9.0,0
17,13.0,-251.0,11.0,0
18,15.0,-252.0,11.0,0
19,12.0,-250.0,9.0,0
20,12.0,-253.0,8.0,0
21,13.0,-249.0,11.0,0
22,15.0,-250.0,12.0,0
23,17.0,-254.0,8.0,0
24,12.0,-249.0,8.0,0
25,13.0,-251.0,10.0,0
26,18.0,-251.0,10.0,0
27,17.0,-253.0,10.0,0
28,15.0,-250.0,9.0,0
29,17.0,-252.0,10.0,0
30,13.0,-250.0,11.0,0
31,15.0,-251.0,8.0,0
32,13.0,-253.0,8.0,0
33,15.0,-254.0,10.0,0
34,13.0,-250.0,10.0,0
35,13.0,-253.0,9.0,0
36,15.0,-254.0,9.0,0
37,17.0,-253.0,9.0,0
38,12.0,-252.0,7.0,0
39,14.0,-255.0,10.0,0
40,16.0,-255.0,13.0,0
41,14.0,-252.0,12.0,0
42,14.0,-251.0,14.0,0
43,11.0,-253.0,12.0,0
44,10.0,-255.0,11.0,0
45,15.0,-256.0,12.0,0
46,13.0,-256.0,10.0,0
47,12.0,-254.0,9.0,0
48,14.0,-254.0,7.0,0
49,14.0,-251.0,8.0,0
50,13.0,-250.0,5.0,0
51,15.0,-252.0,9.0,0
52,13.0,-253.0,7.0,0
53,12.0,-246.0,9.0,0
54,14.0,-254.0,12.0,0
55,16.0,-252.0,11.0,0
56,15.0,-250.0,14.0,0
57,3.0,-260.0,14.0,0
58,12.0,-250.0,9.0,0
59,15.0,-251.0,9.0,0
60,16.0,-252.0,10.0,0
61,14.0,-252.0,10.0,0
62,13.0,-252.0,8.0,0
63,14.0,-251.0,8.0,0
64,15.0,-250.0,8.0,0
65,13.0,-251.0,8.0,0
66,13.0,-249.0,7.0,0
67,11.0,-251.0,9.0,0
68,16.0,-251.0,10.0,0
69,14.0,-248.0,7.0,0
70,12.0,-251.0,9.0,0
71,10.0,-253.0,5.0,0
72,12.0,-251.0,5.0,0
73,11.0,-252.0,9.0,0
74,10.0,-253.0,9.0,0
75,12.0,-250.0,10.0,0
76,13.0,-249.0,9.0,0
77,16.0,-254.0,7.0,0
78,12.0,-254.0,8.0,0
79,13.0,-251.0,8.0,0
80,14.0,-253.0,8.0,0
81,11.0,-249.0,8.0,0
82,10.0,-252.0,8.0,0
83,10.0,-254.0,6.0,0
84,13.0,-252.0,8.0,0
85,13.0,-250.0,6.0,0
86,15.0,-252.0,8.0,0
87,12.0,-250.0,5.0,0
88,10.0,-253.0,7.0,0
89,15.0,-251.0,3.0,0
90,14.0,-253.0,5.0,0
91,11.0,-253.0,8.0,0
92,12.0,-247.0,8.0,0
93,13.0,-248.0,7.0,0
94,12.0,-251.0,8.0,0
95,13.0,-248.0,6.0,0
96,16.0,-253.0,10.0,0
97,13.0,-252.0,8.0,0
98,18.0,-255.0,7.0,0
99,13.0,-253.0,8.0,0
100,11.0,-251.0,6.0,0
101,14.0,-255.0,6.0,0
102,14.0,-254.0,4.0,0
103,12.0,-255.0,6.0,0
104,14.0,-254.0,5.0,0
105,13.0,-253.0,5.0,0
106,15.0,-252.0,6.0,0
107,13.0,-253.0,6.0,0
108,15.0,-252.0,5.0,0
109,11.0,-251.0,8.0,0
110,14.0,-252.0,7.0,0
111,16.0,-253.0,7.0,0
112,14.0,-252.0,7.0,0
113,11.0,-251.0,4.0,0
114,14.0,-251.0,8.0,0
115,12.0,-246.0,7.0,0
116,14.0,-251.0,7.0,0
117,9.0,-254.0,8.0,0
118,11.0,-251.0,6.0,0
119,12.0,-250.0,9.0,0
120,13.0,-252.0,4.0,0
121,12.0,-254.0,5.0,0
122,11.0,-249.0,8.0,0
123,12.0,-251.0,3.0,0
124,11.0,-250.0,5.0,0
125,8.0,-251.0,3.0,0
126,14.0,-253.0,8.0,0
127,7.0,-248.0,1.0,0
128,11.0,-255.0,6.0,0
129,11.0,-255.0,4.0,0
130,12.0,-254.0,5.0,0
131,13.0,-251.0,7.0,0
132,13.0,-249.0,0.0,0
133,11.0,-252.0,3.0,0
134,11.0,-254.0,7.0,0
135,15.0,-254.0,6.0,0
136,14.0,-255.0,8.0,0
137,12.0,-248.0,3.0,0
138,15.0,-252.0,9.0,0
139,12.0,-251.0,8.0,0
140,10.0,-250.0,4.0,0
141,11.0,-254.0,5.0,0
142,12.0,-253.0,8.0,0
143,12.0,-253.0,8.0,0
144,14.0,-252.0,7.0,0
145,14.0,-254.0,4.0,0
146,13.0,-254.0,6.0,0
147,17.0,-252.0,8.0,0
148,13.0,-253.0,6.0,0
149,12.0,-254.0,6.0,0
150,10.0,-255.0,7.0,0
151,13.0,-251.0,7.0,0
152,12.0,-253.0,8.0,0
153,14.0,-251.0,8.0,0
154,13.0,-253.0,6.0,0
155,14.0,-255.0,7.0,0
156,11.0,-254.0,5.0,0
157,9.0,-251.0,5.0,0
158,13.0,-256.0,5.0,0
159,13.0,-253.0,10.0,0
160,14.0,-256.0,3.0,0
161,12.0,-253.0,5.0,0
162,12.0,-253.0,8.0,0
163,9.0,-253.0,8.0,0
164,12.0,-254.0,12.0,0
165,12.0,-253.0,4.0,0
166,12.0,-254.0,6.0,0
167,14.0,-252.0,7.0,0
168,12.0,-253.0,7.0,0
169,12.0,-252.0,7.0,0
170,14.0,-251.0,5.0,0
171,10.0,-252.0,3.0,0
172,12.0,-252.0,7.0,0
173,14.0,-254.0,6.0,0
174,15.0,-254.0,5.0,0
175,13.0,-252.0,7.0,0
176,12.0,-252.0,6.0,0
177,13.0,-255.0,6.0,0
178,16.0,-252.0,8.0,0
179,13.0,-252.0,7.0,0
180,15.0,-254.0,2.0,0
181,15.0,-252.0,6.0,0
182,14.0,-252.0,7.0,0
183,13.0,-254.0,7.0,0
184,15.0,-255.0,6.0,0
185,11.0,-254.0,8.0,0
186,12.0,-250.0,8.0,0
187,13.0,-250.0,9.0,0
188,13.0,-254.0,5.0,0
189,15.0,-254.0,7.0,0
190,11.0,-251.0,6.0,0
191,11.0,-252.0,8.0,0
192,12.0,-254.0,7.0,0
193,13.0,-254.0,6.0,0
194,13.0,-251.0,5.0,0
195,12.0,-255.0,5.0,0
196,13.0,-252.0,5.0,0
197,12.0,-251.0,4.0,0
198,10.0,-251.0,5.0,0
199,13.0,-252.0,7.0,0
200,12.0,-251.0,6.0,0
201,12.0,-251.0,9.0,0
202,11.0,-254.0,5.0,0
203,9.0,-250.0,8.0,0
204,9.0,-251.0,4.0,0
205,14.0,-253.0,8.0,0
206,13.0,-245.0,4.0,0
207,13.0,-255.0,5.0,0
208,13.0,-253.0,6.0,0
209,15.0,-251.0,5.0,0
210,11.0,-249.0,4.0,0
211,12.0,-249.0,8.0,0
212,12.0,-249.0,6.0,0
213,12.0,-255.0,8.0,0
214,8.0,-249.0,7.0,0
215,10.0,-248.0,7.0,0
216,11.0,-254.0,8.0,0
217,9.0,-253.0,8.0,0
218,14.0,-250.0,4.0,0
219,11.0,-253.0,6.0,0
220,12.0,-253.0,8.0,0
221,9.0,-252.0,6.0,0
222,11.0,-254.0,8.0,0
223,9.0,-253.0,8.0,0
224,14.0,-253.0,8.0,0
225,12.0,-254.0,9.0,0
226,13.0,-254.0,7.0,0
227,15.0,-257.0,7.0,0
228,12.0,-256.0,5.0,0
229,14.0,-256.0,5.0,0
230,13.0,-255.0,4.0,0
231,13.0,-251.0,4.0,0
232,10.0,-254.0,4.0,0
233,14.0,-253.0,5.0,0
234,11.0,-252.0,9.0,0
235,13.0,-250.0,8.0,0
236,13.0,-254.0,9.0,0
237,16.0,-255.0,7.0,0
238,12.0,-254.0,6.0,0
239,13.0,-253.0,8.0,0
240,15.0,-250.0,8.0,0
241,12.0,-249.0,6.0,0
242,12.0,-252.0,6.0,0
243,13.0,-251.0,9.0,0
244,15.0,-253.0,7.0,0
245,14.0,-252.0,8.0,0
246,13.0,-254.0,8.0,0
247,11.0,-250.0,8.0,0
248,12.0,-252.0,8.0,0
249,17.0,-254.0,8.0,0
250,13.0,-250.0,8.0,0
251,17.0,-252.0,8.0,0
252,12.0,-251.0,6.0,0
253,13.0,-250.0,8.0,0
254,14.0,-252.0,6.0,0
255,13.0,-251.0,8.0,0
256,14.0,-250.0,5.0,0
257,13.0,-249.0,8.0,0
258,13.0,-252.0,6.0,0
259,13.0,-250.0,4.0,0
260,11.0,-254.0,5.0,0
261,13.0,-250.0,5.0,0
262,11.0,-253.0,6.0,0
263,14.0,-255.0,5.0,0
264,13.0,-254.0,4.0,0
265,12.0,-251.0,2.0,0
266,10.0,-250.0,5.0,0
267,13.0,-249.0,5.0,0
268,13.0,-249.0,3.0,0
269,14.0,-249.0,8.0,0
270,12.0,-250.0,2.0,0
271,13.0,-247.0,3.0,0
272,14.0,-251.0,6.0,0
273,12.0,-250.0,4.0,0
274,13.0,-250.0,5.0,0
275,9.0,-249.0,8.0,0
276,12.0,-244.0,7.0,0
277,10.0,-248.0,6.0,0
278,13.0,-248.0,6.0,0
279,12.0,-251.0,7.0,0
280,13.0,-252.0,5.0,0
281,6.0,-245.0,1.0,0
282,13.0,-249.0,8.0,0
283,10.0,-251.0,9.0,0
284,10.0,-251.0,6.0,0
285,11.0,-251.0,8.0,0
286,10.0,-251.0,6.0,0
287,12.0,-251.0,8.0,0
288,11.0,-251.0,9.0,0
289,12.0,-249.0,7.0,0
290,14.0,-256.0,9.0,0
291,12.0,-254.0,9.0,0
292,12.0,-252.0,9.0,0
293,14.0,-254.0,11.0,0
294,6.0,-251.0,10.0,0
295,11.0,-253.0,6.0,0
296,9.0,-251.0,10.0,0
297,11.0,-250.0,9.0,0
298,13.0,-255.0,6.0,0
299,12.0,-254.0,8.0,0
300,12.0,-255.0,8.0,0
301,12.0,-255.0,7.0,0
302,14.0,-254.0,8.0,0
303,13.0,-257.0,8.0,0
304,14.0,-255.0,9.0,0
305,15.0,-256.0,10.0,0
306,13.0,-256.0,9.0,0
307,13.0,-253.0,10.0,0
308,11.0,-253.0,8.0,0
309,15.0,-253.0,7.0,0
310,11.0,-251.0,10.0,0
311,15.0,-255.0,10.0,0
312,13.0,-254.0,8.0,0
313,11.0,-251.0,13.0,0
314,13.0,-253.0,9.0,0
315,12.0,-255.0,10.0,0
316,9.0,-252.0,8.0,0
317,11.0,-255.0,10.0,0
318,10.0,-252.0,12.0,0
319,11.0,-255.0,12.0,0
320,12.0,-255.0,9.0,0
321,13.0,-253.0,9.0,0
322,12.0,-253.0,10.0,0
323,9.0,-250.0,9.0,0
324,13.0,-250.0,7.0,0
325,9.0,-249.0,8.0,0
326,14.0,-252.0,10.0,0
327,10.0,-249.0,8.0,0
328,13.0,-252.0,7.0,0
329,10.0,-251.0,7.0,0
330,8.0,-250.0,8.0,0
331,7.0,-251.0,6.0,0
332,11.0,-253.0,8.0,0
333,8.0,-249.0,6.0,0
334,12.0,-251.0,8.0,0
335,10.0,-251.0,6.0,0
336,11.0,-252.0,5.0,0
337,8.0,-252.0,6.0,0
338,9.0,-249.0,4.0,0
339,13.0,-253.0,7.0,0
340,10.0,-250.0,4.0,0
341,10.0,-252.0,4.0,0
342,11.0,-254.0,3.0,0
343,10.0,-252.0,3.0,0
344,13.0,-252.0,2.0,0
345,12.0,-251.0,2.0,0
346,10.0,-251.0,0.0,0
347,13.0,-253.0,2.0,0
348,12.0,-253.0,3.0,0
349,7.0,-248.0,4.0,0
350,13.0,-253.0,5.0,0
351,10.0,-252.0,6.0,0
352,9.0,-248.0,3.0,0
353,11.0,-250.0,1.0,0
354,16.0,-252.0,3.0,0
355,12.0,-254.0,3.0,0
356,11.0,-252.0,4.0,0
357,8.0,-252.0,7.0,0
358,10.0,-252.0,8.0,0
359,10.0,-252.0,7.0,0
360,13.0,-251.0,5.0,0
361,12.0,-250.0,5.0,0
362,10.0,-249.0,6.0,0
363,11.0,-250.0,5.0,0
364,7.0,-248.0,6.0,0
365,12.0,-248.0,1.0,0
366,11.0,-252.0,5.0,0
367,11.0,-253.0,2.0,0
368,12.0,-253.0,3.0,0
369,13.0,-250.0,7.0,0
370,9.0,-249.0,8.0,0
371,13.0,-250.0,8.0,0
372,11.0,-253.0,3.0,0
373,11.0,-251.0,6.0,0
374,11.0,-253.0,8.0,0
375,11.0,-252.0,3.0,0
376,12.0,-256.0,5.0,0
377,11.0,-250.0,7.0,0
378,14.0,-253.0,6.0,0
379,15.0,-254.0,8.0,0
380,10.0,-252.0,7.0,0
381,14.0,-254.0,5.0,0
382,13.0,-250.0,9.0,0
383,12.0,-251.0,7.0,0
384,11.0,-250.0,8.0,0
385,14.0,-254.0,8.0,0
386,12.0,-253.0,3.0,0
387,11.0,-252.0,8.0,0
388,16.0,-249.0,13.0,0
389,11.0,-253.0,8.0,0
390,12.0,-253.0,7.0,0
391,10.0,-256.0,5.0,0
392,15.0,-255.0,8.0,0
393,15.0,-255.0,3.0,0
394,15.0,-254.0,6.0,0
395,10.0,-249.0,9.0,0
396,14.0,-256.0,5.0,0
397,15.0,-253.0,4.0,0
398,15.0,-251.0,1.0,0
399,13.0,-255.0,7.0,0
400,12.0,-252.0,8.0,0
401,14.0,-253.0,4.0,0
402,13.0,-251.0,3.0,0
403,13.0,-251.0,8.0,0
404,17.0,-250.0,6.0,0
405,12.0,-255.0,6.0,0
406,14.0,-252.0,5.0,0
407,11.0,-252.0,7.0,0
408,10.0,-251.0,8.0,0
409,14.0,-255.0,8.0,0
410,11.0,-253.0,5.0,0
411,14.0,-255.0,6.0,0
412,13.0,-254.0,4.0,0
413,14.0,-254.0,6.0,0
414,10.0,-251.0,8.0,0
415,14.0,-251.0,6.0,0
416,14.0,-256.0,2.0,0
417,13.0,-255.0,1.0,0
418,13.0,-257.0,6.0,0
419,10.0,-255.0,4.0,0
420,13.0,-255.0,5.0,0
421,10.0,-254.0,3.0,0
422,11.0,-253.0,0.0,0
423,13.0,-248.0,-2.0,0
424,12.0,-248.0,0.0,0
425,9.0,-250.0,5.0,0
426,11.0,-247.0,1.0,0
427,14.0,-246.0,3.0,0
428,13.0,-249.0,4.0,0
429,10.0,-249.0,7.0,0
430,11.0,-251.0,-3.0,0
431,13.0,-251.0,3.0,0
432,12.0,-251.0,7.0,0
433,9.0,-250.0,5.0,0
434,12.0,-253.0,2.0,0
435,14.0,-254.0,6.0,0
436,10.0,-252.0,4.0,0
437,9.0,-253.0,3.0,0
438,11.0,-250.0,7.0,0
439,14.0,-252.0,2.0,0
440,11.0,-253.0,1.0,0
441,10.0,-249.0,4.0,0
442,10.0,-249.0,4.0,0
443,14.0,-254.0,4.0,0
444,11.0,-249.0,3.0,0
445,13.0,-250.0,1.0,0
446,14.0,-250.0,1.0,0
447,14.0,-251.0,3.0,0
448,14.0,-250.0,7.0,0
449,13.0,-252.0,6.0,0
450,12.0,-248.0,6.0,0
451,9.0,-251.0,4.0,0
452,13.0,-252.0,5.0,0
453,12.0,-252.0,4.0,0
454,16.0,-250.0,5.0,0
455,14.0,-250.0,6.0,0
456,12.0,-251.0,3.0,0
457,12.0,-249.0,3.0,0
458,13.0,-249.0,2.0,0
459,13.0,-251.0,3.0,0
460,10.0,-251.0,4.0,0
461,12.0,-251.0,4.0,0
462,13.0,-249.0,9.0,0
463,11.0,-248.0,6.0,0
464,12.0,-249.0,7.0,0
465,12.0,-252.0,7.0,0
466,11.0,-253.0,2.0,0
467,11.0,-250.0,8.0,0
468,11.0,-252.0,3.0,0
469,10.0,-250.0,3.0,0
470,11.0,-249.0,1.0,0
471,10.0,-251.0,3.0,0
472,12.0,-248.0,6.0,0
473,11.0,-251.0,6.0,0
474,13.0,-254.0,5.0,0
475,15.0,-252.0,4.0,0
476,10.0,-251.0,5.0,0
477,15.0,-255.0,8.0,0
478,11.0,-251.0,6.0,0
479,12.0,-252.0,5.0,0
480,12.0,-253.0,7.0,0
481,13.0,-252.0,6.0,0
482,14.0,-252.0,4.0,0
483,11.0,-253.0,2.0,0
484,15.0,-254.0,2.0,0
485,13.0,-253.0,7.0,0
486,10.0,-251.0,5.0,0
487,15.0,-255.0,7.0,0
488,12.0,-252.0,6.0,0
489,11.0,-254.0,2.0,0
490,14.0,-252.0,5.0,0
491,11.0,-250.0,7.0,0
492,10.0,-254.0,6.0,0
493,12.0,-250.0,6.0,0
494,10.0,-252.0,6.0,0
495,13.0,-257.0,7.0,0
496,11.0,-255.0,7.0,0
497,9.0,-255.0,2.0,0
498,11.0,-255.0,3.0,0
499,10.0,-254.0,2.0,0
500,11.0,-255.0,-1.0,0
501,11.0,-254.0,2.0,0
502,10.0,-253.0,-1.0,0
503,12.0,-252.0,0.0,0
504,11.0,-250.0,1.0,0
505,12.0,-253.0,2.0,0
506,9.0,-249.0,0.0,0
507,15.0,-252.0,0.0,0
508,11.0,-248.0,5.0,0
509,10.0,-250.0,1.0,0
510,11.0,-248.0,-1.0,0
511,13.0,-249.0,2.0,0
512,7.0,-250.0,5.0,0
513,13.0,-255.0,1.0,0
514,11.0,-252.0,2.0,0
515,13.0,-252.0,-3.0,0
516,12.0,-251.0,3.0,0
517,12.0,-250.0,0.0,0
518,13.0,-255.0,4.0,0
519,13.0,-250.0,-1.0,0
520,11.0,-254.0,0.0,0
521,10.0,-247.0,-1.0,0
522,14.0,-253.0,2.0,0
523,13.0,-250.0,-1.0,0
524,10.0,-252.0,-3.0,0
525,14.0,-253.0,-1.0,0
526,11.0,-253.0,-1.0,0
527,9.0,-251.0,0.0,0
528,10.0,-250.0,3.0,0
529,7.0,-250.0,0.0,0
530,11.0,-251.0,-4.0,0
531,12.0,-251.0,0.0,0
532,10.0,-250.0,-3.0,0
533,11.0,-251.0,-2.0,0
534,12.0,-252.0,-2.0,0
535,10.0,-252.0,0.0,0
536,10.0,-249.0,6.0,0
537,21.0,-252.0,5.0,0
538,12.0,-254.0,-1.0,0
539,13.0,-253.0,1.0,0
540,13.0,-252.0,5.0,0
541,14.0,-252.0,-1.0,0
542,10.0,-252.0,-3.0,0
543,10.0,-252.0,0.0,0
544,12.0,-254.0,-3.0,0
545,13.0,-252.0,-1.0,0
546,9.0,-251.0,-5.0,0
547,10.0,-249.0,-1.0,0
548,11.0,-251.0,-3.0,0
549,14.0,-255.0,2.0,0
550,14.0,-252.0,0.0,0
551,10.0,-252.0,0.0,0
552,12.0,-252.0,-2.0,0
553,13.0,-249.0,0.0,0
554,15.0,-251.0,-2.0,0
555,14.0,-249.0,1.0,0
556,12.0,-249.0,-2.0,0
557,12.0,-253.0,4.0,0
558,12.0,-249.0,0.0,0
559,13.0,-252.0,-2.0,0
560,12.0,-252.0,1.0,0
561,11.0,-251.0,2.0,0
562,13.0,-254.0,1.0,0
563,7.0,-251.0,0.0,0
564,11.0,-251.0,-2.0,0
565,10.0,-252.0,1.0,0
566,12.0,-253.0,1.0,0
567,7.0,-247.0,0.0,0
568,10.0,-254.0,-5.0,0
569,9.0,-251.0,-1.0,0
570,13.0,-252.0,0.0,0
571,11.0,-252.0,-3.0,0
572,10.0,-250.0,0.0,0
573,9.0,-250.0,0.0,0
574,11.0,-253.0,-1.0,0
575,10.0,-251.0,0.0,0
576,11.0,-250.0,1.0,0
577,12.0,-250.0,-3.0,0
578,13.0,-252.0,-1.0,0
579,15.0,-248.0,4.0,0
580,9.0,-251.0,-3.0,0
581,15.0,-250.0,-2.0,0
582,13.0,-254.0,-1.0,0
583,10.0,-252.0,-1.0,0
584,10.0,-253.0,-2.0,0
585,11.0,-254.0,-1.0,0
586,10.0,-252.0,1.0,0
587,11.0,-253.0,-2.0,0
588,9.0,-253.0,-1.0,0
589,7.0,-253.0,-2.0,0
590,9.0,-250.0,-4.0,0
591,12.0,-253.0,-2.0,0
592,9.0,-250.0,3.0,0
593,12.0,-252.0,2.0,0
594,10.0,-250.0,1.0,0
595,14.0,-253.0,0.0,0
596,13.0,-253.0,-2.0,0
597,13.0,-252.0,-4.0,0
598,13.0,-253.0,-2.0,0
599,10.0,-248.0,-3.0,0
600,12.0,-254.0,-5.0,0
601,11.0,-250.0,-3.0,0
602,10.0,-250.0,-3.0,0
603,11.0,-252.0,-1.0,0
604,9.0,-251.0,-4.0,0
605,12.0,-251.0,-3.0,0
606,12.0,-251.0,-2.0,0
607,9.0,-245.0,-3.0,0
608,8.0,-252.0,-5.0,0
609,8.0,-252.0,-5.0,0
610,12.0,-251.0,-7.0,0
611,13.0,-254.0,-6.0,0
612,9.0,-253.0,-5.0,0
613,11.0,-247.0,-4.0,0
614,10.0,-252.0,-2.0,0
615,12.0,-256.0,-3.0,0
616,9.0,-253.0,-3.0,0
617,11.0,-253.0,-5.0,0
618,11.0,-253.0,0.0,0
619,11.0,-254.0,1.0,0
620,13.0,-252.0,-4.0,0
621,8.0,-249.0,-5.0,0
622,13.0,-256.0,-3.0,0
623,13.0,-251.0,-8.0,0
624,11.0,-249.0,-5.0,0
625,13.0,-253.0,-3.0,0
626,12.0,-252.0,-5.0,0
627,10.0,-253.0,-6.0,0
628,13.0,-252.0,-5.0,0
629,11.0,-254.0,-5.0,0
630,11.0,-251.0,-3.0,0
631,11.0,-250.0,-4.0,0
632,13.0,-252.0,-5.0,0
633,9.0,-250.0,-3.0,0
634,11.0,-253.0,-5.0,0
635,12.0,-252.0,-6.0,0
636,11.0,-251.0,-4.0,0
637,10.0,-251.0,-2.0,0
638,10.0,-252.0,-3.0,0
639,10.0,-250.0,-3.0,0
640,9.0,-252.0,-2.0,0
641,11.0,-250.0,-7.0,0
642,15.0,-256.0,-4.0,0
643,12.0,-251.0,-5.0,0
644,11.0,-248.0,-9.0,0
645,9.0,-253.0,-6.0,0
646,8.0,-252.0,-5.0,0
647,9.0,-251.0,-5.0,0
648,10.0,-251.0,-3.0,0
649,9.0,-250.0,-2.0,0
650,9.0,-251.0,-5.0,0
651,11.0,-253.0,-6.0,0
652,11.0,-252.0,-6.0,0
653,8.0,-254.0,-7.0,0
654,8.0,-252.0,-7.0,0
655,9.0,-250.0,-7.0,0
656,11.0,-251.0,-3.0,0
657,10.0,-253.0,-10.0,0
658,13.0,-254.0,-7.0,0
659,12.0,-252.0,-7.0,0
660,11.0,-250.0,-7.0,0
661,11.0,-252.0,-7.0,0
662,12.0,-254.0,-4.0,0
663,14.0,-256.0,-2.0,0
664,12.0,-250.0,-4.0,0
665,10.0,-250.0,-10.0,0
666,10.0,-251.0,-3.0,0
667,11.0,-252.0,-5.0,0
668,10.0,-250.0,-4.0,0
669,12.0,-252.0,-8.0,0
670,8.0,-253.0,-6.0,0
671,11.0,-254.0,-7.0,0
672,12.0,-254.0,-7.0,0
673,13.0,-254.0,-11.0,0
674,12.0,-253.0,-6.0,0
675,12.0,-254.0,-5.0,0
676,12.0,-251.0,-8.0,0
677,11.0,-250.0,-4.0,0
678,13.0,-252.0,-7.0,0
679,9.0,-248.0,-7.0,0
680,8.0,-248.0,-3.0,0
681,12.0,-254.0,-5.0,0
682,10.0,-250.0,-4.0,0
683,11.0,-254.0,1.0,0
684,14.0,-254.0,-2.0,0
685,8.0,-248.0,-3.0,0
686,14.0,-252.0,-7.0,0
687,9.0,-251.0,-4.0,0
688,13.0,-252.0,-1.0,0
689,11.0,-252.0,-2.0,0
690,9.0,-248.0,-3.0,0
691,11.0,-254.0,-1.0,0
692,13.0,-251.0,-3.0,0
693,12.0,-255.0,-4.0,0
694,10.0,-252.0,-5.0,0
695,13.0,-250.0,-2.0,0
696,12.0,-252.0,-3.0,0
697,8.0,-250.0,-3.0,0
698,13.0,-252.0,-5.0,0
699,9.0,-250.0,-6.0,0
700,11.0,-249.0,-7.0,0
701,16.0,-255.0,-8.0,0
702,9.0,-252.0,-9.0,0
703,11.0,-254.0,-6.0,0
704,10.0,-252.0,-4.0,0
705,11.0,-252.0,-6.0,0
706,14.0,-252.0,-2.0,0
707,6.0,-251.0,-6.0,0
708,13.0,-256.0,-4.0,0
709,9.0,-249.0,-4.0,0
710,10.0,-253.0,-4.0,0
711,10.0,-251.0,-7.0,0
712,15.0,-254.0,-4.0,0
713,11.0,-252.0,-5.0,0
714,11.0,-253.0,-3.0,0
715,10.0,-252.0,-8.0,0
716,13.0,-252.0,-6.0,0
717,13.0,-255.0,-6.0,0
718,13.0,-254.0,-5.0,0
719,9.0,-250.0,-6.0,0
720,14.0,-253.0,-3.0,0
721,11.0,-252.0,-6.0,0
722,13.0,-250.0,-6.0,0
723,12.0,-250.0,-6.0,0
724,12.0,-254.0,-1.0,0
725,13.0,-251.0,-5.0,0
726,13.0,-251.0,-4.0,0
727,11.0,-255.0,0.0,0
728,12.0,-254.0,-5.0,0
729,10.0,-253.0,-1.0,0
730,11.0,-250.0,-2.0,0
731,13.0,-254.0,-6.0,0
732,13.0,-253.0,-3.0,0
733,11.0,-251.0,1.0,0
734,13.0,-251.0,-4.0,0
735,13.0,-251.0,-5.0,0
736,10.0,-249.0,-1.0,0
737,8.0,-251.0,-3.0,0
738,14.0,-252.0,-1.0,0
739,14.0,-253.0,-5.0,0
740,14.0,-253.0,-3.0,0
741,12.0,-250.0,-1.0,0
742,14.0,-249.0,-8.0,0
743,14.0,-251.0,-4.0,0
744,12.0,-253.0,-2.0,0
745,12.0,-251.0,-5.0,0
746,10.0,-253.0,-3.0,0
747,11.0,-253.0,-1.0,0
748,10.0,-248.0,5.0,0
749,13.0,-252.0,2.0,0
750,10.0,-251.0,-3.0,0
751,11.0,-252.0,1.0,0
752,9.0,-253.0,-3.0,0
753,11.0,-254.0,-1.0,0
754,12.0,-253.0,0.0,0
755,11.0,-252.0,-2.0,0
756,15.0,-255.0,-1.0,0
757,11.0,-252.0,-2.0,0
758,12.0,-250.0,0.0,0
759,14.0,-250.0,-1.0,0
760,13.0,-252.0,1.0,0
761,12.0,-255.0,0.0,0
762,12.0,-252.0,-2.0,0
763,11.0,-253.0,4.0,0
764,12.0,-253.0,-1.0,0
765,12.0,-252.0,1.0,0
766,11.0,-251.0,4.0,0
767,12.0,-253.0,0.0,0
768,10.0,-251.0,2.0,0
769,13.0,-252.0,0.0,0
770,12.0,-254.0,-1.0,0
771,12.0,-249.0,1.0,0
772,14.0,-253.0,4.0,0
773,11.0,-253.0,0.0,0
774,11.0,-251.0,-2.0,0
775,14.0,-250.0,-1.0,0
776,11.0,-251.0,3.0,0
777,13.0,-254.0,3.0,0
778,12.0,-255.0,3.0,0
779,11.0,-251.0,1.0,0
780,13.0,-250.0,0.0,0
781,15.0,-254.0,-2.0,0
782,14.0,-252.0,5.0,0
783,11.0,-251.0,2.0,0
784,10.0,-252.0,2.0,0
785,15.0,-251.0,4.0,0
786,13.0,-254.0,3.0,0
787,12.0,-250.0,3.0,0
788,13.0,-252.0,6.0,0
789,12.0,-251.0,5.0,0
790,9.0,-250.0,5.0,0
791,14.0,-253.0,3.0,0
792,13.0,-254.0,2.0,0
793,9.0,-249.0,-6.0,0
794,14.0,-255.0,7.0,0
795,11.0,-256.0,5.0,0
796,11.0,-252.0,7.0,0
797,14.0,-255.0,2.0,0
798,13.0,-253.0,1.0,0
799,12.0,-254.0,2.0,0
800,12.0,-250.0,3.0,0
801,15.0,-251.0,4.0,0
802,11.0,-251.0,3.0,0
803,13.0,-252.0,3.0,0
804,13.0,-251.0,1.0,0
805,12.0,-250.0,5.0,0
806,14.0,-252.0,7.0,0
807,12.0,-251.0,6.0,0
808,12.0,-251.0,6.0,0
809,11.0,-249.0,4.0,0
810,12.0,-253.0,5.0,0
811,11.0,-251.0,7.0,0
812,14.0,-249.0,8.0,0
813,14.0,-252.0,7.0,0
814,14.0,-252.0,10.0,0
815,16.0,-253.0,8.0,0
816,15.0,-253.0,7.0,0
817,14.0,-253.0,6.0,0
818,11.0,-249.0,6.0,0
819,11.0,-252.0,9.0,0
820,15.0,-253.0,9.0,0
821,13.0,-252.0,8.0,0
822,13.0,-254.0,9.0,0
823,12.0,-250.0,7.0,0
824,13.0,-251.0,7.0,0
825,13.0,-251.0,5.0,0
826,12.0,-249.0,8.0,0
827,11.0,-253.0,9.0,0
828,13.0,-251.0,9.0,0
829,11.0,-253.0,7.0,0
830,13.0,-253.0,9.0,0
831,10.0,-252.0,7.0,0
832,14.0,-253.0,5.0,0
833,16.0,-253.0,7.0,0
834,13.0,-250.0,7.0,0
835,13.0,-250.0,9.0,0
836,13.0,-253.0,9.0,0
837,15.0,-252.0,3.0,0
838,13.0,-250.0,6.0,0
839,12.0,-250.0,8.0,0
840,11.0,-251.0,8.0,0
841,14.0,-250.0,8.0,0
842,14.0,-251.0,8.0,0
843,13.0,-252.0,9.0,0
844,11.0,-250.0,9.0,0
845,15.0,-251.0,8.0,0
846,14.0,-250.0,7.0,0
847,14.0,-250.0,8.0,0
848,16.0,-256.0,5.0,0
849,13.0,-251.0,9.0,0
850,13.0,-252.0,8.0,0
851,13.0,-251.0,8.0,0
852,14.0,-251.0,12.0,0
853,12.0,-252.0,7.0,0
854,15.0,-253.0,8.0,0
855,14.0,-250.0,8.0,0
856,12.0,-253.0,10.0,0
857,13.0,-251.0,9.0,0
858,11.0,-253.0,10.0,0
859,15.0,-254.0,5.0,0
860,15.0,-251.0,11.0,0
861,12.0,-252.0,9.0,0
862,13.0,-252.0,8.0,0
863,16.0,-252.0,9.0,0
864,18.0,-253.0,9.0,0
865,12.0,-250.0,10.0,0
866,16.0,-251.0,9.0,0
867,15.0,-253.0,9.0,0
868,25.0,-256.0,-8.0,0
869,13.0,-250.0,12.0,0
870,11.0,-251.0,6.0,0
871,13.0,-250.0,12.0,0
872,16.0,-255.0,8.0,0
873,16.0,-254.0,8.0,0
874,13.0,-253.0,11.0,0
875,14.0,-253.0,7.0,0
876,14.0,-256.0,10.0,0
877,12.0,-250.0,11.0,0
878,16.0,-252.0,10.0,0
879,12.0,-254.0,14.0,0
880,11.0,-247.0,9.0,0
881,15.0,-253.0,11.0,0
882,12.0,-252.0,10.0,0
883,12.0,-253.0,8.0,0
884,15.0,-255.0,8.0,0
885,12.0,-249.0,8.0,0
886,16.0,-252.0,10.0,0
887,13.0,-251.0,9.0,0
888,14.0,-252.0,9.0,0
889,13.0,-253.0,9.0,0
890,14.0,-250.0,9.0,0
891,15.0,-253.0,11.0,0
892,12.0,-254.0,12.0,0
893,14.0,-252.0,9.0,0
894,15.0,-253.0,12.0,0
895,18.0,-254.0,9.0,0
896,16.0,-252.0,11.0,0
897,18.0,-252.0,13.0,0
898,16.0,-254.0,9.0,0
899,15.0,-253.0,8.0,0
900,17.0,-252.0,10.0,0
901,15.0,-250.0,10.0,0
902,16.0,-251.0,15.0,0
903,16.0,-252.0,8.0,0
904,17.0,-252.0,11.0,0
905,15.0,-249.0,10.0,0
906,15.0,-254.0,10.0,0
907,14.0,-252.0,11.0,0
908,17.0,-252.0,10.0,0
909,16.0,-252.0,10.0,0
910,19.0,-254.0,-3.0,0
911,15.0,-255.0,12.0,0
912,13.0,-251.0,9.0,0
913,10.0,-245.0,10.0,0
914,15.0,-252.0,9.0,0
915,15.0,-254.0,8.0,0
916,16.0,-250.0,10.0,0
917,17.0,-255.0,10.0,0
918,14.0,-250.0,10.0,0
919,13.0,-252.0,12.0,0
920,16.0,-251.0,11.0,0
921,15.0,-252.0,9.0,0
922,13.0,-251.0,9.0,0
923,16.0,-251.0,10.0,0
924,12.0,-251.0,11.0,0
925,14.0,-250.0,9.0,0
926,15.0,-250.0,10.0,0
927,15.0,-252.0,13.0,0
928,15.0,-249.0,14.0,0
929,12.0,-254.0,14.0,0
930,17.0,-255.0,12.0,0
931,14.0,-252.0,12.0,0
932,14.0,-251.0,10.0,0
933,12.0,-250.0,13.0,0
934,13.0,-253.0,11.0,0
935,14.0,-251.0,14.0,0
936,12.0,-251.0,13.0,0
937,14.0,-251.0,13.0,0
938,14.0,-250.0,15.0,0
939,15.0,-252.0,10.0,0
940,17.0,-251.0,10.0,0
941,14.0,-252.0,12.0,0
942,18.0,-241.0,12.0,0
943,13.0,-250.0,11.0,0
944,15.0,-253.0,11.0,0
945,18.0,-252.0,15.0,0
946,14.0,-251.0,15.0,0
947,13.0,-252.0,12.0,0
948,17.0,-252.0,14.0,0
949,16.0,-249.0,11.0,0
950,19.0,-254.0,12.0,0
951,15.0,-253.0,9.0,0
952,15.0,-250.0,10.0,0
953,15.0,-253.0,15.0,0
954,14.0,-251.0,12.0,0
955,18.0,-253.0,16.0,0
956,15.0,-250.0,14.0,0
957,15.0,-249.0,14.0,0
958,12.0,-251.0,15.0,0
959,14.0,-248.0,16.0,0
960,13.0,-249.0,12.0,0
961,14.0,-252.0,12.0,0
962,15.0,-250.0,12.0,0
963,12.0,-249.0,14.0,0
964,13.0,-247.0,18.0,0
965,15.0,-251.0,14.0,0
966,15.0,-252.0,17.0,0
967,18.0,-250.0,17.0,0
968,13.0,-251.0,18.0,0
969,14.0,-248.0,16.0,0
970,14.0,-252.0,17.0,0
971,14.0,-252.0,13.0,0
972,16.0,-250.0,15.0,0
973,19.0,-251.0,17.0,0
974,17.0,-250.0,13.0,0
975,19.0,-251.0,9.0,0
976,19.0,-250.0,14.0,0
977,20.0,-253.0,15.0,0
978,20.0,-251.0,14.0,0
979,16.0,-250.0,19.0,0
980,15.0,-247.0,12.0,0
981,18.0,-246.0,14.0,0
982,16.0,-249.0,20.0,0
983,16.0,-249.0,12.0,0
984,18.0,-251.0,15.0,0
985,16.0,-249.0,16.0,0
986,15.0,-252.0,17.0,0
987,17.0,-252.0,14.0,0
988,18.0,-251.0,17.0,0
989,17.0,-251.0,15.0,0
990,14.0,-252.0,14.0,0
991,14.0,-251.0,19.0,0
992,17.0,-254.0,18.0,0
993,16.0,-257.0,20.0,0
994,17.0,-257.0,19.0,0
995,17.0,-257.0,16.0,0
996,18.0,-258.0,13.0,0
997,13.0,-254.0,16.0,0
998,18.0,-252.0,13.0,0
999,18.0,-253.0,16.0,0
1000,17.0,-254.0,18.0,0
1001,20.0,-254.0,15.0,0
1002,18.0,-251.0,18.0,0
1003,19.0,-252.0,17.0,0
1004,15.0,-249.0,18.0,0
1005,19.0,-250.0,17.0,0
1006,17.0,-253.0,22.0,0
1007,15.0,-246.0,19.0,0
1008,18.0,-250.0,21.0,0
1009,21.0,-250.0,20.0,0
1010,17.0,-248.0,20.0,0
1011,16.0,-249.0,19.0,0
1012,17.0,-252.0,19.0,0
1013,17.0,-252.0,19.0,0
1014,17.0,-249.0,22.0,0
1015,17.0,-248.0,21.0,0
1016,16.0,-250.0,19.0,0
1017,17.0,-241.0,14.0,0
1018,15.0,-253.0,19.0,0
1019,21.0,-251.0,16.0,0
1020,17.0,-254.0,18.0,0
1021,14.0,-253.0,20.0,0
1022,17.0,-252.0,19.0,0
1023,19.0,-254.0,18.0,0
1024,18.0,-256.0,16.0,0
1025,22.0,-252.0,16.0,0
1026,19.0,-250.0,17.0,0
1027,15.0,-253.0,18.0,0
1028,14.0,-251.0,16.0,0
1029,18.0,-251.0,18.0,0
1030,18.0,-251.0,20.0,0
1031,19.0,-252.0,20.0,0
1032,18.0,-251.0,19.0,0
1033,17.0,-250.0,18.0,0
1034,21.0,-251.0,18.0,0
1035,19.0,-254.0,18.0,0
1036,20.0,-251.0,19.0,0
1037,18.0,-250.0,17.0,0
1038,19.0,-251.0,18.0,0
1039,15.0,-250.0,18.0,0
1040,18.0,-250.0,20.0,0
1041,17.0,-250.0,25.0,0
1042,18.0,-247.0,18.0,0
1043,16.0,-248.0,19.0,0
1044,16.0,-247.0,23.0,0
1045,17.0,-247.0,21.0,0
1046,19.0,-248.0,22.0,0
1047,15.0,-253.0,22.0,0
1048,22.0,-250.0,18.0,0
1049,17.0,-252.0,22.0,0
1050,18.0,-248.0,19.0,0
1051,15.0,-249.0,21.0,0
1052,21.0,-254.0,22.0,0
1053,20.0,-252.0,22.0,0
1054,22.0,-254.0,21.0,0
1055,22.0,-250.0,19.0,0
1056,21.0,-254.0,14.0,0
1057,23.0,-253.0,19.0,0
1058,18.0,-253.0,20.0,0
1059,21.0,-253.0,17.0,0
1060,21.0,-252.0,22.0,0
1061,22.0,-252.0,20.0,0
1062,19.0,-252.0,19.0,0
1063,21.0,-253.0,14.0,0
1064,18.0,-252.0,18.0,0
1065,19.0,-253.0,21.0,0
1066,19.0,-251.0,20.0,0
1067,20.0,-253.0,20.0,0
1068,21.0,-255.0,20.0,0
1069,23.0,-253.0,22.0,0
1070,23.0,-252.0,20.0,0
1071,20.0,-253.0,21.0,0
1072,20.0,-253.0,22.0,0
1073,22.0,-253.0,23.0,0
1074,17.0,-247.0,22.0,0
1075,21.0,-252.0,22.0,0
1076,18.0,-253.0,20.0,0
1077,20.0,-250.0,22.0,0
1078,19.0,-254.0,26.0,0
1079,20.0,-253.0,20.0,0
1080,19.0,-254.0,19.0,0
1081,18.0,-250.0,24.0,0
1082,19.0,-252.0,23.0,0
1083,17.0,-253.0,23.0,0
1084,18.0,-250.0,23.0,0
1085,19.0,-249.0,20.0,0
1086,18.0,-251.0,23.0,0
1087,16.0,-248.0,25.0,0
1088,21.0,-250.0,24.0,0
1089,17.0,-247.0,26.0,0
1090,20.0,-247.0,20.0,0
1091,21.0,-249.0,25.0,0
1092,15.0,-248.0,26.0,0
1093,18.0,-246.0,26.0,0
1094,17.0,-247.0,27.0,0
1095,17.0,-247.0,25.0,0
1096,21.0,-248.0,25.0,0
1097,19.0,-251.0,25.0,0
1098,19.0,-247.0,26.0,0
1099,19.0,-246.0,29.0,0
1100,23.0,-250.0,31.0,0
1101,18.0,-250.0,23.0,0
1102,21.0,-252.0,30.0,0
1103,19.0,-251.0,28.0,0
1104,17.0,-251.0,26.0,0
1105,19.0,-250.0,25.0,0
1106,20.0,-251.0,28.0,0
1107,19.0,-254.0,25.0,0
1108,18.0,-252.0,29.0,0
1109,21.0,-253.0,26.0,0
1110,21.0,-252.0,26.0,0
1111,19.0,-252.0,28.0,0
1112,18.0,-254.0,28.0,0
1113,18.0,-251.0,28.0,0
1114,20.0,-253.0,28.0,0
1115,19.0,-257.0,28.0,0
1116,20.0,-253.0,30.0,0
1117,22.0,-252.0,30.0,0
1118,23.0,-254.0,28.0,0
1119,19.0,-252.0,31.0,0
1120,21.0,-254.0,34.0,0
1121,20.0,-251.0,32.0,0
1122,20.0,-251.0,29.0,0
1123,19.0,-248.0,34.0,0
1124,19.0,-253.0,39.0,0
1125,22.0,-253.0,31.0,0
1126,22.0,-252.0,29.0,0
1127,25.0,-251.0,33.0,0
1128,22.0,-249.0,38.0,0
1129,22.0,-254.0,33.0,0
1130,26.0,-252.0,33.0,0
1131,23.0,-251.0,36.0,0
1132,22.0,-254.0,36.0,0
1133,24.0,-249.0,35.0,0
1134,21.0,-251.0,34.0,0
1135,24.0,-253.0,35.0,0
1136,22.0,-251.0,37.0,0
1137,18.0,-253.0,36.0,0
1138,23.0,-252.0,38.0,0
1139,24.0,-254.0,39.0,0
1140,25.0,-256.0,40.0,0
1141,22.0,-253.0,38.0,0
1142,21.0,-253.0,38.0,0
1143,23.0,-255.0,42.0,0
1144,23.0,-254.0,36.0,0
1145,25.0,-256.0,40.0,0
1146,25.0,-256.0,41.0,0
1147,20.0,-253.0,37.0,0
1148,27.0,-257.0,41.0,0
1149,29.0,-256.0,41.0,0
1150,21.0,-252.0,41.0,0
1151,25.0,-253.0,35.0,0
1152,21.0,-254.0,37.0,0
1153,19.0,-253.0,41.0,0
1154,21.0,-250.0,42.0,0
1155,21.0,-250.0,42.0,0
1156,19.0,-247.0,40.0,0
1157,24.0,-248.0,39.0,0
1158,21.0,-245.0,36.0,0
1159,19.0,-243.0,40.0,0
1160,19.0,-239.0,40.0,0
1161,22.0,-244.0,39.0,0
1162,20.0,-238.0,38.0,0
1163,23.0,-241.0,45.0,0
1164,23.0,-238.0,39.0,0
1165,24.0,-240.0,43.0,0
1166,24.0,-240.0,35.0,0
1167,24.0,-239.0,41.0,0
1168,27.0,-237.0,43.0,0
1169,22.0,-238.0,42.0,0
1170,21.0,-239.0,45.0,0
1171,26.0,-236.0,47.0,0
1172,25.0,-237.0,50.0,0
1173,20.0,-233.0,54.0,0
1174,24.0,-238.0,54.0,0
1175,18.0,-237.0,49.0,0
1176,21.0,-241.0,50.0,0
1177,21.0,-247.0,50.0,0
1178,24.0,-251.0,59.0,0
1179,21.0,-248.0,51.0,0
1180,24.0,-246.0,53.0,0
1181,23.0,-248.0,52.0,0
1182,21.0,-246.0,53.0,0
1183,20.0,-247.0,52.0,0
1184,25.0,-249.0,53.0,0
1185,20.0,-247.0,51.0,0
1186,19.0,-247.0,54.0,0
1187,17.0,-251.0,52.0,0
1188,17.0,-253.0,54.0,0
1189,16.0,-253.0,54.0,0
1190,17.0,-255.0,59.0,0
1191,16.0,-253.0,55.0,0
1192,20.0,-256.0,57.0,0
1193,20.0,-256.0,59.0,0
1194,21.0,-252.0,60.0,0
1195,20.0,-253.0,58.0,0
1196,16.0,-255.0,59.0,0
1197,17.0,-255.0,57.0,0
1198,18.0,-254.0,54.0,0
1199,18.0,-253.0,56.0,0
1200,17.0,-250.0,56.0,0
1201,16.0,-251.0,58.0,0
1202,14.0,-249.0,53.0,0
1203,13.0,-247.0,61.0,0
1204,16.0,-245.0,58.0,0
1205,10.0,-243.0,59.0,0
1206,12.0,-243.0,57.0,0
1207,13.0,-241.0,57.0,0
1208,13.0,-238.0,63.0,0
1209,14.0,-239.0,61.0,0
1210,16.0,-236.0,64.0,0
1211,18.0,-236.0,60.0,0
1212,14.0,-239.0,65.0,0
1213,11.0,-239.0,63.0,0
1214,8.0,-234.0,61.0,0
1215,11.0,-239.0,62.0,0
1216,10.0,-238.0,59.0,0
1217,10.0,-238.0,65.0,0
1218,11.0,-238.0,68.0,0
1219,12.0,-238.0,62.0,0
1220,12.0,-241.0,66.0,0
1221,14.0,-244.0,70.0,0
1222,14.0,-241.0,69.0,0
1223,14.0,-240.0,64.0,0
1224,15.0,-241.0,68.0,0
1225,16.0,-236.0,67.0,0
1226,13.0,-241.0,67.0,0
1227,19.0,-244.0,72.0,0
1228,18.0,-241.0,67.0,0
1229,19.0,-242.0,67.0,0
1230,22.0,-241.0,67.0,0
1231,20.0,-241.0,71.0,0
1232,22.0,-242.0,71.0,0
1233,25.0,-239.0,72.0,0
1234,28.0,-242.0,74.0,0
1235,24.0,-240.0,75.0,0
1236,24.0,-243.0,74.0,0
1237,25.0,-242.0,73.0,0
1238,25.0,-243.0,72.0,0
1239,26.0,-244.0,72.0,0
1240,24.0,-243.0,73.0,0
1241,26.0,-243.0,77.0,0
1242,23.0,-242.0,75.0,0
1243,26.0,-241.0,75.0,0
1244,29.0,-245.0,79.0,0
1245,31.0,-242.0,78.0,0
1246,31.0,-241.0,80.0,0
1247,30.0,-239.0,83.0,0
1248,32.0,-239.0,78.0,0
1249,36.0,-242.0,80.0,0
1250,32.0,-237.0,87.0,0
1251,33.0,-238.0,83.0,0
1252,35.0,-239.0,83.0,0
1253,39.0,-241.0,85.0,0
1254,34.0,-238.0,88.0,0
1255,36.0,-239.0,86.0,0
1256,62.0,-239.0,97.0,0
1257,31.0,-239.0,89.0,0
1258,32.0,-237.0,90.0,0
1259,37.0,-235.0,88.0,0
1260,34.0,-234.0,88.0,0
1261,37.0,-237.0,89.0,0
1262,36.0,-234.0,88.0,0
1263,32.0,-236.0,90.0,0
1264,31.0,-230.0,92.0,0
1265,32.0,-234.0,88.0,0
1266,34.0,-235.0,93.0,0
1267,30.0,-230.0,89.0,0
1268,36.0,-232.0,93.0,0
1269,32.0,-232.0,93.0,0
1270,36.0,-228.0,94.0,0
1271,38.0,-228.0,92.0,0
1272,41.0,-229.0,94.0,0
1273,45.0,-229.0,95.0,0
1274,46.0,-231.0,100.0,0
1275,46.0,-228.0,97.0,0
1276,44.0,-229.0,97.0,0
1277,46.0,-228.0,94.0,0
1278,47.0,-230.0,94.0,0
1279,48.0,-230.0,95.0,0
1280,47.0,-233.0,91.0,0
1281,54.0,-235.0,86.0,0
1282,57.0,-232.0,87.0,0
1283,59.0,-233.0,89.0,0
1284,59.0,-230.0,86.0,0
1285,60.0,-226.0,87.0,0
1286,62.0,-228.0,89.0,0
1287,61.0,-226.0,90.0,0
1288,63.0,-225.0,92.0,0
1289,65.0,-226.0,93.0,0
1290,59.0,-224.0,89.0,0
1291,60.0,-226.0,94.0,0
1292,62.0,-222.0,96.0,0
1293,59.0,-220.0,101.0,0
1294,57.0,-220.0,108.0,0
1295,54.0,-217.0,115.0,0
1296,52.0,-212.0,119.0,0
1297,46.0,-213.0,123.0,0
1298,43.0,-203.0,125.0,0
1299,41.0,-200.0,126.0,0
1300,37.0,-196.0,132.0,0
1301,31.0,-194.0,135.0,0
1302,33.0,-193.0,132.0,0
1303,30.0,-194.0,133.0,0
1304,33.0,-191.0,135.0,0
1305,32.0,-191.0,136.0,0
1306,34.0,-193.0,137.0,0
1307,34.0,-194.0,138.0,0
1308,40.0,-196.0,142.0,0
1309,43.0,-196.0,141.0,0
1310,43.0,-194.0,145.0,0
1311,50.0,-195.0,146.0,0
1312,56.0,-197.0,146.0,0
1313,59.0,-197.0,150.0,0
1314,59.0,-197.0,153.0,0
1315,58.0,-196.0,152.0,0
1316,59.0,-200.0,154.0,0
1317,58.0,-191.0,148.0,0
1318,54.0,-195.0,146.0,0
1319,55.0,-193.0,152.0,0
1320,51.0,-185.0,155.0,0
1321,50.0,-184.0,153.0,0
1322,53.0,-180.0,154.0,0
1323,56.0,-181.0,156.0,0
1324,54.0,-182.0,150.0,0
1325,57.0,-182.0,149.0,0
1326,53.0,-187.0,151.0,0
1327,51.0,-186.0,151.0,0
1328,45.0,-180.0,152.0,0
1329,34.0,-177.0,145.0,0
1330,21.0,-174.0,141.0,0
1331,17.0,-163.0,136.0,0
1332,10.0,-159.0,131.0,0
1333,7.0,-157.0,136.0,0
1334,3.0,-150.0,136.0,0
1335,11.0,-149.0,137.0,0
1336,18.0,-142.0,135.0,0
1337,25.0,-133.0,135.0,0
1338,35.0,-122.0,134.0,0
1339,42.0,-121.0,129.0,0
1340,52.0,-122.0,120.0,0
1341,58.0,-121.0,124.0,0
1342,65.0,-128.0,133.0,0
1343,65.0,-131.0,140.0,0
1344,72.0,-133.0,135.0,0
1345,69.0,-134.0,122.0,0
1346,76.0,-132.0,109.0,0
1347,73.0,-131.0,101.0,0
1348,74.0,-129.0,96.0,0
1349,68.0,-129.0,99.0,0
1350,53.0,-127.0,97.0,0
1351,45.0,-126.0,81.0,0
1352,46.0,-121.0,75.0,0
1353,43.0,-118.0,62.0,0
1354,64.0,-120.0,62.0,0
1355,63.0,-112.0,66.0,0
1356,87.0,-108.0,72.0,0
1357,97.0,-110.0,75.0,0
1358,99.0,-111.0,81.0,2
1359,93.0,-109.0,72.0,2
1360,81.0,-114.0,88.0,2
1361,71.0,-117.0,82.0,2
1362,64.0,-118.0,68.0,2
1363,56.0,-123.0,69.0,2
1364,48.0,-125.0,68.0,2
1365,29.0,-136.0,52.0,2
1366,15.0,-122.0,34.0,2
1367,4.0,-126.0,23.0,2
1368,-12.0,-126.0,4.0,2
1369,-30.0,-127.0,4.0,2
1370,-31.0,-126.0,0.0,2
1371,-66.0,-120.0,9.0,2
1372,-76.0,-122.0,8.0,2
1373,-123.0,-116.0,15.0,2
1374,-152.0,-125.0,18.0,2
1375,-140.0,-128.0,38.0,2
1376,-141.0,-133.0,52.0,2
1377,-132.0,-128.0,67.0,2
1378,-105.0,-124.0,74.0,2
1379,-58.0,-122.0,95.0,2
1380,-35.0,-105.0,134.0,2
1381,-18.0,-89.0,153.0,2
1382,-7.0,-79.0,186.0,2
1383,38.0,-70.0,220.0,2
1384,123.0,-60.0,247.0,2
1385,204.0,-13.0,293.0,2
1386,298.0,24.0,345.0,2
1387,409.0,98.0,418.0,2
1388,445.0,148.0,507.0,2
1389,455.0,172.0,600.0,2
1390,477.0,187.0,700.0,2
1391,559.0,211.0,841.0,2
1392,659.0,265.0,950.0,2
1393,808.0,358.0,974.0,2
1394,910.0,473.0,996.0,2
1395,942.0,552.0,992.0,2
1396,903.0,607.0,946.0,2
1397,756.0,627.0,871.0,2
1398,575.0,616.0,775.0,2
1399,432.0,586.0,656.0,2
1400,310.0,555.0,580.0,2
1401,156.0,520.0,474.0,2
1402,110.0,462.0,409.0,2
1403,66.0,369.0,414.0,2
1404,50.0,286.0,410.0,2
1405,9.0,154.0,372.0,2
1406,15.0,-4.0,323.0,2
1407,-25.0,-111.0,276.0,2
1408,-56.0,-173.0,221.0,2
1409,-75.0,-191.0,187.0,2
1410,-87.0,-153.0,154.0,2
1411,-79.0,-85.0,140.0,2
1412,-62.0,-21.0,150.0,2
1413,-56.0,35.0,182.0,2
1414,-52.0,61.0,202.0,2
1415,-50.0,81.0,200.0,2
1416,-72.0,88.0,183.0,2
1417,-83.0,83.0,146.0,2
1418,-86.0,71.0,114.0,2
1419,-71.0,44.0,61.0,2
1420,-44.0,-4.0,27.0,2
1421,-5.0,-24.0,5.0,2
1422,30.0,-23.0,3.0,2
1423,55.0,-25.0,8.0,2
1424,91.0,-26.0,27.0,2
1425,118.0,-19.0,34.0,1
1426,148.0,-5.0,45.0,1
1427,166.0,26.0,46.0,1
1428,177.0,51.0,50.0,1
1429,187.0,96.0,50.0,1
1430,189.0,154.0,45.0,1
1431,181.0,209.0,49.0,1
1432,174.0,250.0,43.0,1
1433,146.0,289.0,36.0,1
1434,123.0,312.0,20.0,1
1435,106.0,302.0,5.0,1
1436,83.0,288.0,7.0,1
1437,66.0,273.0,10.0,1
1438,46.0,248.0,22.0,1
1439,35.0,218.0,34.0,1
1440,33.0,189.0,47.0,1
1441,30.0,166.0,62.0,1
1442,30.0,148.0,77.0,1
1443,18.0,133.0,83.0,1
1444,15.0,126.0,92.0,1
1445,13.0,117.0,110.0,1
1446,9.0,110.0,123.0,1
1447,5.0,95.0,139.0,1
1448,0.0,87.0,164.0,1
1449,-4.0,83.0,185.0,1
1450,10.0,77.0,203.0,1
1451,20.0,74.0,218.0,1
1452,33.0,72.0,243.0,1
1453,58.0,69.0,258.0,1
1454,79.0,61.0,276.0,1
1455,96.0,56.0,296.0,1
1456,97.0,54.0,306.0,1
1457,117.0,39.0,329.0,1
1458,138.0,20.0,358.0,1
1459,160.0,2.0,387.0,1
1460,181.0,-6.0,409.0,1
1461,205.0,-19.0,437.0,1
1462,184.0,-18.0,464.0,1
1463,173.0,-19.0,484.0,1
1464,161.0,-10.0,495.0,1
1465,144.0,-4.0,502.0,1
1466,138.0,4.0,502.0,1
1467,122.0,6.0,497.0,1
1468,117.0,4.0,486.0,1
1469,102.0,-3.0,469.0,1
1470,92.0,-8.0,456.0,1
1471,67.0,-21.0,433.0,1
1472,64.0,-40.0,400.0,0
1473,48.0,-58.0,377.0,0
1474,45.0,-70.0,354.0,0
1475,36.0,-84.0,330.0,0
1476,40.0,-92.0,309.0,0
1477,33.0,-97.0,283.0,0
1478,32.0,-92.0,258.0,0
1479,33.0,-86.0,246.0,0
1480,33.0,-78.0,230.0,0
1481,35.0,-65.0,219.0,0
1482,34.0,-55.0,199.0,0
1483,38.0,-38.0,191.0,0
1484,37.0,-28.0,190.0,0
1485,46.0,-14.0,186.0,0
1486,57.0,-10.0,179.0,0
1487,57.0,-4.0,187.0,0
1488,61.0,-6.0,188.0,0
1489,64.0,-5.0,186.0,0
1490,66.0,-11.0,192.0,0
1491,63.0,-17.0,193.0,0
1492,65.0,-21.0,195.0,0
1493,62.0,-23.0,197.0,0
1494,59.0,-29.0,199.0,0
1495,57.0,-33.0,201.0,0
1496,53.0,-41.0,198.0,0
1497,52.0,-45.0,203.0,0
1498,54.0,-47.0,201.0,0
1499,56.0,-50.0,202.0,0
1500,59.0,-59.0,211.0,0
1501,66.0,-60.0,211.0,0
1502,75.0,-56.0,211.0,0
1503,84.0,-54.0,216.0,0
1504,91.0,-54.0,221.0,0
1505,101.0,-51.0,231.0,0
1506,109.0,-49.0,231.0,0
1507,117.0,-52.0,233.0,0
1508,121.0,-49.0,234.0,0
1509,125.0,-52.0,240.0,0
1510,128.0,-54.0,242.0,0
1511,132.0,-56.0,247.0,0
1512,134.0,-62.0,244.0,0
1513,135.0,-61.0,247.0,0
1514,132.0,-64.0,248.0,0
1515,127.0,-65.0,254.0,0
1516,126.0,-67.0,253.0,0
1517,126.0,-68.0,250.0,0
1518,117.0,-64.0,251.0,0
1519,116.0,-65.0,251.0,0
1520,112.0,-61.0,249.0,0
1521,107.0,-58.0,247.0,0
1522,102.0,-56.0,244.0,0
1523,101.0,-49.0,242.0,0
1524,100.0,-46.0,239.0,0
1525,98.0,-46.0,237.0,0
1526,98.0,-37.0,235.0,0
1527,94.0,-33.0,240.0,0
1528,91.0,-26.0,236.0,0
1529,93.0,-23.0,237.0,0
1530,93.0,-18.0,235.0,0
1531,95.0,-17.0,235.0,0
1532,95.0,-14.0,235.0,0
1533,91.0,-12.0,242.0,0
1534,90.0,-7.0,238.0,0
1535,83.0,-2.0,245.0,0
1536,87.0,-2.0,248.0,0
1537,90.0,-2.0,248.0,0
1538,88.0,0.0,251.0,0
1539,84.0,4.0,252.0,0
1540,85.0,2.0,255.0,0
1541,80.0,7.0,254.0,0
1542,80.0,5.0,260.0,0
1543,81.0,3.0,258.0,0
1544,74.0,8.0,258.0,0
1545,76.0,6.0,257.0,0
1546,73.0,7.0,260.0,0
1547,73.0,6.0,258.0,0
1548,69.0,4.0,251.0,0
1549,73.0,6.0,256.0,0
1550,70.0,6.0,253.0,0
1551,71.0,7.0,250.0,0
1552,70.0,7.0,256.0,0
1553,65.0,6.0,253.0,0
1554,68.0,10.0,253.0,0
1555,70.0,8.0,252.0,0
1556,64.0,12.0,250.0,0
1557,68.0,9.0,252.0,0
1558,68.0,10.0,253.0,0
1559,67.0,7.0,251.0,0
1560,72.0,7.0,247.0,0
1561,68.0,5.0,250.0,0
1562,69.0,7.0,253.0,0
1563,67.0,5.0,249.0,0
1564,68.0,2.0,253.0,0
1565,73.0,2.0,250.0,0
1566,72.0,-3.0,248.0,0
1567,73.0,0.0,253.0,0
1568,69.0,0.0,250.0,0
1569,74.0,-3.0,248.0,0
1570,75.0,-4.0,248.0,0
1571,81.0,-5.0,252.0,0
1572,79.0,-4.0,248.0,0
1573,77.0,-5.0,252.0,0
1574,77.0,-12.0,252.0,0
1575,79.0,-12.0,249.0,0
1576,77.0,-9.0,255.0,0
1577,76.0,-10.0,252.0,0
1578,79.0,-11.0,253.0,0
1579,78.0,-12.0,251.0,0
1580,79.0,-14.0,249.0,0
1581,77.0,-13.0,250.0,0
1582,81.0,-15.0,248.0,0
1583,82.0,-15.0,249.0,0
1584,83.0,-18.0,249.0,0
1585,83.0,-16.0,254.0,0
1586,85.0,-17.0,249.0,0
1587,83.0,-16.0,243.0,0
1588,81.0,-17.0,245.0,0
1589,80.0,-19.0,243.0,0
1590,85.0,-16.0,230.0,0
1591,83.0,-19.0,247.0,0
1592,84.0,-25.0,248.0,0
1593,80.0,-20.0,247.0,0
1594,79.0,-22.0,245.0,0
1595,82.0,-23.0,241.0,0
1596,82.0,-25.0,244.0,0
1597,82.0,-26.0,244.0,0
1598,82.0,-26.0,244.0,0
1599,83.0,-27.0,248.0,0
1600,81.0,-26.0,243.0,0
1601,84.0,-31.0,241.0,0
1602,81.0,-26.0,241.0,0
1603,84.0,-29.0,241.0,0
1604,82.0,-30.0,239.0,0
1605,81.0,-28.0,240.0,0
1606,82.0,-27.0,243.0,0
1607,82.0,-28.0,241.0,0
1608,81.0,-26.0,242.0,0
1609,83.0,-29.0,236.0,0
1610,81.0,-26.0,241.0,0
1611,85.0,-25.0,242.0,0
1612,82.0,-24.0,240.0,0
1613,81.0,-25.0,241.0,0
1614,81.0,-24.0,241.0,0
1615,80.0,-22.0,243.0,0
1616,80.0,-21.0,241.0,0
1617,79.0,-23.0,243.0,0
1618,80.0,-22.0,242.0,0
1619,79.0,-22.0,244.0,0
1620,79.0,-23.0,243.0,0
1621,80.0,-24.0,246.0,0
1622,76.0,-20.0,247.0,0
1623,77.0,-15.0,246.0,0
1624,79.0,-19.0,244.0,0
1625,80.0,-18.0,246.0,0
1626,78.0,-18.0,247.0,0
1627,84.0,-18.0,245.0,0
1628,80.0,-14.0,249.0,0
1629,76.0,-16.0,248.0,0
1630,80.0,-13.0,244.0,0
1631,79.0,-12.0,249.0,0
1632,74.0,-12.0,251.0,0
1633,78.0,-14.0,247.0,0
1634,74.0,-14.0,245.0,0
1635,76.0,-12.0,250.0,0
1636,77.0,-13.0,250.0,0
1637,78.0,-10.0,247.0,0
1638,77.0,-11.0,249.0,0
1639,76.0,-13.0,249.0,0
1640,76.0,-13.0,249.0,0
1641,79.0,-10.0,248.0,0
1642,81.0,-14.0,244.0,0
1643,76.0,-11.0,247.0,0
1644,79.0,-11.0,247.0,0
1645,83.0,-10.0,253.0,0
1646,79.0,-11.0,246.0,0
1647,78.0,-16.0,244.0,0
1648,79.0,-13.0,248.0,0
1649,81.0,-12.0,250.0,0
1650,78.0,-15.0,248.0,0
1651,77.0,-12.0,251.0,0
1652,78.0,-15.0,247.0,0
1653,81.0,-13.0,247.0,0
1654,80.0,-16.0,247.0,0
1655,79.0,-13.0,245.0,0
1656,82.0,-18.0,244.0,0
1657,81.0,-16.0,244.0,0
1658,81.0,-16.0,245.0,0
1659,78.0,-18.0,245.0,0
1660,77.0,-15.0,242.0,0
1661,82.0,-15.0,243.0,0
1662,81.0,-19.0,245.0,0
1663,83.0,-18.0,240.0,0
1664,81.0,-17.0,244.0,0
1665,83.0,-16.0,245.0,0
1666,84.0,-20.0,247.0,0
1667,79.0,-17.0,245.0,0
1668,86.0,-20.0,245.0,0
1669,85.0,-20.0,246.0,0
1670,83.0,-17.0,244.0,0
1671,84.0,-22.0,243.0,0
1672,83.0,-20.0,244.0,0
1673,83.0,-21.0,246.0,0
1674,81.0,-23.0,240.0,0
1675,86.0,-25.0,245.0,0
1676,83.0,-24.0,243.0,0
1677,81.0,-23.0,244.0,0
1678,88.0,-15.0,243.0,0
1679,83.0,-21.0,243.0,0
1680,82.0,-23.0,240.0,0
1681,83.0,-24.0,244.0,0
1682,84.0,-23.0,245.0,0
1683,82.0,-26.0,239.0,0
1684,81.0,-23.0,244.0,0
1685,83.0,-25.0,241.0,0
1686,84.0,-22.0,239.0,0
1687,80.0,-25.0,243.0,0
1688,81.0,-24.0,243.0,0
1689,81.0,-25.0,244.0,0
1690,78.0,-23.0,239.0,0
1691,80.0,-24.0,247.0,0
1692,80.0,-22.0,242.0,0
1693,82.0,-26.0,241.0,0
1694,85.0,-25.0,243.0,0
1695,78.0,-22.0,245.0,0
1696,81.0,-27.0,242.0,0
1697,80.0,-27.0,241.0,0
1698,80.0,-23.0,247.0,0
1699,79.0,-25.0,242.0,0
1700,80.0,-26.0,243.0,0
1701,78.0,-24.0,243.0,0
1702,78.0,-21.0,244.0,0
1703,80.0,-24.0,242.0,0
1704,80.0,-23.0,243.0,0
1705,82.0,-23.0,245.0,0
1706,77.0,-25.0,245.0,0
1707,80.0,-26.0,242.0,0
1708,75.0,-27.0,245.0,0
1709,78.0,-26.0,250.0,0
1710,79.0,-20.0,246.0,0
1711,77.0,-21.0,247.0,0
1712,81.0,-22.0,243.0,0
1713,78.0,-22.0,247.0,0
1714,79.0,-23.0,247.0,0
1715,80.0,-23.0,246.0,0
1716,81.0,-22.0,243.0,0
1717,80.0,-22.0,244.0,0
1718,80.0,-19.0,243.0,0
1719,79.0,-19.0,240.0,0
1720,81.0,-18.0,243.0,0
1721,80.0,-19.0,244.0,0
1722,83.0,-23.0,246.0,0
1723,83.0,-21.0,243.0,0
1724,82.0,-22.0,241.0,0
1725,82.0,-19.0,242.0,0
1726,83.0,-18.0,242.0,0
1727,81.0,-21.0,244.0,0
1728,83.0,-20.0,246.0,0
1729,80.0,-21.0,246.0,0
1730,83.0,-19.0,246.0,0
1731,83.0,-20.0,243.0,0
1732,82.0,-22.0,247.0,0
1733,81.0,-20.0,244.0,0
1734,83.0,-22.0,244.0,0
1735,80.0,-20.0,239.0,0
1736,83.0,-21.0,243.0,0
1737,82.0,-19.0,243.0,0
1738,83.0,-22.0,245.0,0
1739,81.0,-23.0,245.0,0
1740,81.0,-24.0,245.0,0
1741,83.0,-23.0,246.0,0
1742,81.0,-20.0,244.0,0
1743,80.0,-27.0,245.0,0
1744,83.0,-23.0,244.0,0
1745,81.0,-23.0,247.0,0
1746,81.0,-23.0,245.0,0
1747,82.0,-25.0,245.0,0
1748,84.0,-24.0,243.0,0
1749,81.0,-22.0,243.0,0
1750,82.0,-22.0,244.0,0
1751,80.0,-25.0,243.0,0
1752,82.0,-26.0,240.0,0
1753,84.0,-26.0,246.0,0
1754,79.0,-24.0,240.0,0
1755,82.0,-24.0,244.0,0
1756,82.0,-26.0,242.0,0
1757,79.0,-24.0,241.0,0
1758,82.0,-25.0,244.0,0
1759,83.0,-23.0,242.0,0
1760,84.0,-24.0,241.0,0
1761,77.0,-23.0,241.0,0
1762,80.0,-24.0,241.0,0
1763,83.0,-24.0,240.0,0
1764,81.0,-23.0,238.0,0
1765,83.0,-25.0,243.0,0
1766,81.0,-22.0,244.0,0
1767,80.0,-26.0,242.0,0
1768,79.0,-29.0,242.0,0
1769,79.0,-27.0,244.0,0
1770,81.0,-27.0,245.0,0
1771,80.0,-28.0,243.0,0
1772,82.0,-25.0,245.0,0
1773,82.0,-27.0,243.0,0
1774,81.0,-24.0,246.0,0
1775,78.0,-25.0,244.0,0
1776,87.0,-18.0,235.0,0
1777,80.0,-24.0,240.0,0
1778,79.0,-24.0,242.0,0
1779,78.0,-24.0,241.0,0
1780,79.0,-23.0,242.0,0
1781,78.0,-21.0,244.0,0
1782,79.0,-21.0,243.0,0
1783,80.0,-21.0,242.0,0
1784,79.0,-24.0,245.0,0
1785,82.0,-22.0,240.0,0
1786,79.0,-23.0,244.0,0
1787,79.0,-25.0,244.0,0
1788,80.0,-22.0,244.0,0
1789,82.0,-23.0,244.0,0
1790,85.0,-23.0,243.0,0
1791,79.0,-22.0,243.0,0
1792,81.0,-24.0,243.0,0
1793,81.0,-23.0,246.0,0
1794,79.0,-20.0,239.0,0
1795,80.0,-18.0,245.0,0
1796,81.0,-19.0,244.0,0
1797,80.0,-19.0,246.0,0
1798,80.0,-22.0,244.0,0
1799,82.0,-21.0,242.0,0
1800,81.0,-19.0,245.0,0
1801,79.0,-20.0,243.0,0
1802,79.0,-21.0,246.0,0
1803,81.0,-19.0,241.0,0
1804,81.0,-19.0,244.0,0
1805,80.0,-17.0,245.0,0
1806,79.0,-20.0,246.0,0
1807,82.0,-20.0,243.0,0
1808,81.0,-20.0,244.0,0
1809,78.0,-17.0,247.0,0
1810,81.0,-18.0,247.0,0
1811,80.0,-21.0,250.0,0
1812,81.0,-20.0,243.0,0
1813,79.0,-20.0,245.0,0
1814,79.0,-18.0,242.0,0
1815,83.0,-21.0,244.0,0
1816,79.0,-22.0,244.0,0
1817,80.0,-21.0,244.0,0
1818,82.0,-21.0,247.0,0
1819,79.0,-20.0,247.0,0
1820,77.0,-18.0,244.0,0
1821,81.0,-18.0,242.0,0
1822,80.0,-18.0,248.0,0
1823,79.0,-18.0,241.0,0
1824,81.0,-17.0,242.0,0
1825,80.0,-16.0,245.0,0
1826,80.0,-18.0,242.0,0
1827,79.0,-18.0,244.0,0
1828,80.0,-20.0,241.0,0
1829,77.0,-15.0,245.0,0
1830,77.0,-19.0,244.0,0
1831,76.0,-15.0,246.0,0
1832,79.0,-20.0,249.0,0
1833,81.0,-20.0,250.0,0
1834,80.0,-17.0,248.0,0
1835,81.0,-16.0,250.0,0
1836,77.0,-14.0,246.0,0
1837,78.0,-17.0,249.0,0
1838,80.0,-18.0,247.0,0
1839,79.0,-19.0,245.0,0
1840,78.0,-19.0,244.0,0
1841,81.0,-19.0,244.0,0
1842,80.0,-16.0,246.0,0
1843,79.0,-19.0,246.0,0
1844,78.0,-15.0,250.0,0
1845,76.0,-16.0,246.0,0
1846,79.0,-16.0,244.0,0
1847,80.0,-17.0,245.0,0
1848,78.0,-16.0,247.0,0
1849,77.0,-16.0,246.0,0
1850,77.0,-17.0,246.0,0
1851,78.0,-15.0,245.0,0
1852,78.0,-14.0,247.0,0
1853,77.0,-18.0,247.0,0
1854,78.0,-15.0,246.0,0
1855,81.0,-14.0,243.0,0
1856,79.0,-18.0,243.0,0
1857,77.0,-13.0,244.0,0
1858,80.0,-15.0,245.0,0
1859,81.0,-14.0,244.0,0
1860,77.0,-13.0,246.0,0
1861,79.0,-16.0,250.0,0
1862,80.0,-12.0,245.0,0
1863,78.0,-13.0,247.0,0
1864,78.0,-15.0,245.0,0
1865,79.0,-18.0,247.0,0
1866,77.0,-13.0,244.0,0
1867,78.0,-14.0,248.0,0
1868,77.0,-13.0,246.0,0
1869,81.0,-16.0,249.0,0
1870,76.0,-16.0,246.0,0
1871,77.0,-9.0,242.0,0
1872,76.0,-14.0,246.0,0
1873,78.0,-13.0,246.0,0
1874,77.0,-16.0,245.0,0
1875,77.0,-15.0,245.0,0
1876,76.0,-13.0,248.0,0
1877,80.0,-15.0,249.0,0
1878,81.0,-16.0,248.0,0
1879,81.0,-15.0,250.0,0
1880,81.0,-18.0,248.0,0
1881,78.0,-15.0,247.0,0
1882,77.0,-17.0,249.0,0
1883,77.0,-17.0,246.0,0
1884,76.0,-14.0,243.0,0
1885,74.0,-13.0,243.0,0
1886,79.0,-15.0,245.0,0
1887,78.0,-14.0,244.0,0
1888,80.0,-13.0,241.0,0
1889,76.0,-13.0,248.0,0
1890,76.0,-6.0,242.0,0
1891,80.0,-11.0,246.0,0
1892,77.0,-14.0,240.0,0
1893,80.0,-11.0,245.0,0
1894,76.0,-8.0,244.0,0
1895,76.0,-13.0,248.0,0
1896,78.0,-13.0,248.0,0
1897,78.0,-8.0,247.0,0
1898,80.0,-10.0,247.0,0
1899,77.0,-10.0,248.0,0
1900,77.0,-6.0,243.0,0
1901,76.0,-11.0,249.0,0
1902,76.0,-13.0,249.0,0
1903,78.0,-11.0,245.0,0
1904,80.0,-12.0,247.0,0
1905,77.0,-9.0,250.0,0
1906,87.0,-4.0,254.0,0
1907,77.0,-10.0,247.0,0
1908,78.0,-8.0,245.0,0
1909,78.0,-9.0,247.0,0
1910,79.0,-9.0,246.0,0
1911,76.0,-10.0,248.0,0
1912,77.0,-10.0,246.0,0
1913,75.0,-8.0,250.0,0
1914,76.0,-7.0,248.0,0
1915,75.0,-13.0,248.0,0
1916,78.0,-11.0,248.0,0
1917,75.0,-5.0,252.0,0
1918,75.0,-9.0,247.0,0
1919,77.0,-6.0,249.0,0
1920,74.0,-6.0,255.0,0
1921,76.0,-9.0,251.0,0
1922,75.0,-11.0,246.0,0
1923,75.0,-8.0,245.0,0
1924,78.0,-9.0,248.0,0
1925,77.0,-10.0,247.0,0
1926,80.0,-9.0,244.0,0
1927,78.0,-9.0,247.0,0
1928,75.0,-7.0,247.0,0
1929,78.0,-12.0,245.0,0
1930,76.0,-6.0,246.0,0
1931,77.0,-10.0,247.0,0
1932,76.0,-6.0,246.0,0
1933,79.0,-10.0,246.0,0
1934,75.0,-7.0,250.0,0
1935,76.0,-8.0,245.0,0
1936,77.0,-4.0,245.0,0
1937,77.0,-8.0,246.0,0
1938,76.0,-10.0,249.0,0
1939,79.0,-11.0,227.0,0
1940,76.0,-12.0,247.0,0
1941,77.0,-7.0,247.0,0
1942,76.0,-12.0,248.0,0
1943,75.0,-14.0,250.0,0
1944,75.0,-13.0,254.0,0
1945,73.0,-7.0,243.0,0
1946,73.0,-10.0,249.0,0
1947,78.0,-11.0,246.0,0
1948,75.0,-9.0,243.0,0
1949,76.0,-10.0,244.0,0
1950,77.0,-9.0,245.0,0
1951,76.0,-10.0,246.0,0
1952,73.0,-4.0,247.0,0
1953,73.0,-9.0,249.0,0
1954,73.0,-5.0,251.0,0
1955,75.0,-9.0,248.0,0
1956,78.0,-8.0,249.0,0
1957,74.0,-7.0,243.0,0
1958,78.0,-8.0,244.0,0
1959,76.0,-7.0,248.0,0
1960,73.0,-7.0,246.0,0
1961,75.0,-7.0,248.0,0
1962,76.0,-8.0,249.0,0
1963,76.0,-6.0,247.0,0
1964,74.0,-7.0,246.0,0
1965,76.0,-12.0,249.0,0
1966,78.0,-9.0,248.0,0
1967,77.0,-5.0,248.0,0
1968,77.0,-10.0,244.0,0
1969,75.0,-6.0,249.0,0
1970,75.0,-10.0,252.0,0
1971,74.0,-5.0,249.0,0
1972,73.0,-5.0,249.0,0
1973,76.0,-5.0,250.0,0
1974,75.0,-5.0,247.0,0
1975,76.0,-4.0,248.0,0
1976,75.0,-7.0,248.0,0
1977,75.0,-7.0,247.0,0
1978,78.0,-11.0,249.0,0
1979,75.0,-10.0,245.0,0
1980,77.0,-8.0,249.0,0
1981,74.0,-6.0,249.0,0
1982,75.0,-5.0,249.0,0
1983,74.0,-8.0,250.0,0
1984,77.0,-8.0,242.0,0
1985,78.0,-9.0,249.0,0
1986,74.0,-4.0,246.0,0
1987,77.0,-5.0,247.0,0
1988,76.0,-8.0,244.0,0
1989,77.0,-8.0,246.0,0
1990,76.0,-10.0,248.0,0
1991,79.0,-8.0,247.0,0
1992,77.0,-8.0,249.0,0
1993,75.0,-9.0,247.0,0
1994,76.0,-9.0,245.0,0
1995,79.0,-9.0,248.0,0
1996,79.0,-9.0,247.0,0
1997,76.0,-7.0,248.0,0
1998,75.0,-9.0,245.0,0
1999,78.0,-8.0,249.0,0
2000,77.0,-10.0,249.0,0
2001,76.0,-9.0,249.0,0
2002,74.0,-8.0,249.0,0
2003,75.0,-13.0,253.0,0
2004,79.0,-23.0,256.0,0
2005,77.0,-11.0,247.0,0
2006,75.0,-6.0,246.0,0
2007,78.0,-11.0,246.0,0
2008,75.0,-6.0,248.0,0
2009,75.0,-7.0,248.0,0
2010,78.0,-7.0,249.0,0
2011,76.0,-9.0,245.0,0
2012,78.0,-9.0,251.0,0
2013,74.0,-6.0,246.0,0
2014,74.0,-6.0,246.0,0
2015,72.0,-8.0,246.0,0
2016,77.0,-8.0,244.0,0
2017,77.0,-9.0,247.0,0
2018,75.0,-6.0,247.0,0
2019,78.0,-8.0,244.0,0
2020,77.0,-9.0,245.0,0
2021,76.0,-7.0,251.0,0
2022,75.0,-8.0,250.0,0
2023,78.0,-12.0,249.0,0
2024,73.0,-8.0,251.0,0
2025,73.0,-10.0,248.0,0
2026,75.0,-11.0,248.0,0
2027,74.0,-11.0,249.0,0
2028,75.0,-9.0,246.0,0
2029,77.0,-12.0,251.0,0
2030,76.0,-6.0,244.0,0
2031,76.0,-9.0,248.0,0
2032,76.0,-11.0,246.0,0
2033,75.0,-10.0,251.0,0
2034,77.0,-11.0,246.0,0
2035,76.0,-6.0,245.0,0
2036,75.0,-9.0,248.0,0
2037,75.0,-7.0,248.0,0
2038,76.0,-7.0,247.0,0
2039,78.0,-7.0,251.0,0
2040,76.0,-6.0,249.0,0
2041,78.0,-12.0,246.0,0
2042,76.0,-10.0,251.0,0
2043,77.0,-11.0,246.0,0
2044,75.0,-12.0,246.0,0
2045,78.0,-12.0,248.0,0
2046,79.0,-13.0,244.0,0
2047,78.0,-11.0,244.0,0
2048,79.0,-9.0,245.0,0
2049,78.0,-11.0,248.0,0
2050,76.0,-14.0,244.0,0
2051,77.0,-8.0,248.0,0
2052,77.0,-14.0,249.0,0
2053,80.0,-11.0,247.0,0
2054,78.0,-11.0,246.0,0
2055,80.0,-13.0,243.0,0
2056,79.0,-13.0,249.0,0
2057,79.0,-11.0,243.0,0
2058,79.0,-14.0,249.0,0
2059,78.0,-13.0,248.0,0
2060,77.0,-9.0,247.0,0
2061,77.0,-15.0,248.0,0
2062,80.0,-13.0,247.0,0
2063,77.0,-13.0,243.0,0
2064,79.0,-14.0,251.0,0
2065,77.0,-15.0,243.0,0
2066,78.0,-13.0,243.0,0
2067,81.0,-15.0,242.0,0
2068,79.0,-16.0,249.0,0
2069,78.0,-10.0,247.0,0
2070,76.0,-17.0,247.0,0
2071,77.0,-14.0,244.0,0
2072,77.0,-16.0,243.0,0
2073,76.0,-15.0,244.0,0
2074,76.0,-16.0,246.0,0
2075,75.0,-19.0,243.0,0
2076,77.0,-14.0,249.0,0
2077,80.0,-19.0,246.0,0
2078,79.0,-19.0,244.0,0
2079,77.0,-16.0,251.0,0
2080,77.0,-16.0,247.0,0
2081,80.0,-20.0,248.0,0
2082,77.0,-19.0,247.0,0
2083,75.0,-14.0,243.0,0
2084,78.0,-15.0,239.0,0
2085,77.0,-14.0,245.0,0
2086,77.0,-18.0,246.0,0
2087,78.0,-15.0,245.0,0
2088,79.0,-11.0,245.0,0
2089,78.0,-14.0,245.0,0
2090,83.0,-14.0,245.0,0
2091,79.0,-16.0,246.0,0
2092,77.0,-7.0,247.0,0
2093,77.0,-13.0,247.0,0
2094,80.0,-15.0,243.0,0
2095,78.0,-16.0,244.0,0
2096,80.0,-15.0,244.0,0
2097,80.0,-16.0,247.0,0
2098,78.0,-12.0,245.0,0
2099,83.0,-16.0,246.0,0
2100,80.0,-15.0,243.0,0
2101,76.0,-17.0,242.0,0
2102,79.0,-14.0,248.0,0
2103,79.0,-14.0,244.0,0
2104,79.0,-14.0,245.0,0
2105,80.0,-14.0,248.0,0
2106,79.0,-16.0,247.0,0
2107,78.0,-15.0,245.0,0
2108,78.0,-13.0,246.0,0
2109,80.0,-17.0,243.0,0
2110,81.0,-19.0,248.0,0
2111,80.0,-17.0,245.0,0
2112,78.0,-14.0,247.0,0
2113,80.0,-16.0,248.0,0
2114,78.0,-12.0,249.0,0
2115,80.0,-14.0,249.0,0
2116,78.0,-15.0,246.0,0
2117,78.0,-19.0,247.0,0
2118,79.0,-18.0,246.0,0
2119,80.0,-17.0,247.0,0
2120,81.0,-16.0,246.0,0
2121,81.0,-20.0,246.0,0
2122,82.0,-21.0,247.0,0
2123,79.0,-18.0,243.0,0
2124,77.0,-19.0,245.0,0
2125,80.0,-22.0,245.0,0
2126,81.0,-20.0,247.0,0
2127,82.0,-17.0,241.0,0
2128,78.0,-18.0,245.0,0
2129,80.0,-18.0,243.0,0
2130,77.0,-16.0,242.0,0
2131,78.0,-17.0,244.0,0
2132,77.0,-20.0,244.0,0
2133,79.0,-18.0,243.0,0
2134,82.0,-19.0,245.0,0
2135,82.0,-18.0,241.0,0
2136,78.0,-18.0,248.0,0
2137,81.0,-20.0,247.0,0
2138,80.0,-18.0,240.0,0
2139,77.0,-21.0,246.0,0
2140,80.0,-21.0,247.0,0
2141,77.0,-23.0,245.0,0
2142,80.0,-21.0,245.0,0
2143,78.0,-22.0,245.0,0
2144,80.0,-21.0,242.0,0
2145,77.0,-19.0,244.0,0
2146,79.0,-21.0,244.0,0
2147,82.0,-20.0,245.0,0
2148,78.0,-17.0,247.0,0
2149,79.0,-17.0,245.0,0
2150,79.0,-18.0,244.0,0
2151,80.0,-19.0,244.0,0
2152,78.0,-21.0,242.0,0
2153,79.0,-19.0,247.0,0
2154,79.0,-21.0,246.0,0
2155,79.0,-20.0,249.0,0
2156,81.0,-23.0,245.0,0
2157,76.0,-17.0,249.0,0
2158,79.0,-21.0,247.0,0
2159,78.0,-21.0,245.0,0
2160,81.0,-23.0,244.0,0
2161,81.0,-23.0,246.0,0
2162,78.0,-19.0,244.0,0
2163,82.0,-19.0,244.0,0
2164,76.0,-18.0,245.0,0
2165,80.0,-22.0,244.0,0
2166,80.0,-18.0,241.0,0
2167,78.0,-22.0,246.0,0
2168,77.0,-18.0,248.0,0
2169,78.0,-19.0,241.0,0
2170,80.0,-20.0,245.0,0
2171,83.0,-22.0,242.0,0
2172,79.0,-20.0,246.0,0
2173,85.0,-22.0,245.0,0
2174,79.0,-21.0,245.0,0
2175,82.0,-21.0,243.0,0
2176,79.0,-24.0,244.0,0
2177,77.0,-18.0,247.0,0
2178,79.0,-18.0,247.0,0
2179,79.0,-22.0,247.0,0
2180,81.0,-21.0,242.0,0
2181,81.0,-24.0,244.0,0
2182,81.0,-23.0,241.0,0
2183,80.0,-18.0,245.0,0
2184,81.0,-24.0,244.0,0
2185,79.0,-22.0,247.0,0
2186,79.0,-23.0,243.0,0
2187,82.0,-21.0,245.0,0
2188,79.0,-19.0,246.0,0
2189,80.0,-23.0,242.0,0
2190,81.0,-21.0,246.0,0
2191,81.0,-21.0,241.0,0
2192,78.0,-24.0,244.0,0
2193,80.0,-23.0,247.0,0
2194,80.0,-22.0,243.0,0
2195,80.0,-21.0,241.0,0
2196,80.0,-22.0,242.0,0
2197,79.0,-21.0,245.0,0
2198,79.0,-24.0,245.0,0
2199,78.0,-23.0,243.0,0
2200,82.0,-24.0,246.0,0
2201,79.0,-22.0,246.0,0
2202,80.0,-25.0,246.0,0
2203,78.0,-23.0,242.0,0
2204,81.0,-19.0,246.0,0
2205,80.0,-23.0,249.0,0
2206,79.0,-22.0,238.0,0
2207,82.0,-23.0,244.0,0
2208,78.0,-22.0,247.0,0
2209,80.0,-21.0,246.0,0
2210,81.0,-26.0,245.0,0
2211,80.0,-24.0,243.0,0
2212,80.0,-20.0,241.0,0
2213,81.0,-21.0,246.0,0
2214,79.0,-21.0,243.0,0
2215,81.0,-23.0,243.0,0
2216,78.0,-21.0,245.0,0
2217,81.0,-25.0,248.0,0
2218,80.0,-24.0,247.0,0
2219,81.0,-24.0,244.0,0
2220,81.0,-20.0,244.0,0
2221,78.0,-23.0,243.0,0
2222,81.0,-22.0,248.0,0
2223,77.0,-19.0,242.0,0
2224,80.0,-24.0,243.0,0
2225,80.0,-22.0,244.0,0
2226,82.0,-23.0,246.0,0
2227,81.0,-20.0,244.0,0
2228,81.0,-15.0,243.0,0
2229,81.0,-19.0,243.0,0
2230,78.0,-22.0,246.0,0
2231,78.0,-20.0,244.0,0
2232,80.0,-24.0,246.0,0
2233,80.0,-23.0,244.0,0
2234,82.0,-20.0,244.0,0
2235,77.0,-18.0,247.0,0
2236,82.0,-22.0,245.0,0
2237,77.0,-20.0,243.0,0
2238,78.0,-19.0,245.0,0
2239,82.0,-22.0,243.0,0
2240,78.0,-20.0,243.0,0
2241,77.0,-19.0,249.0,0
2242,78.0,-21.0,244.0,0
2243,80.0,-21.0,243.0,0
2244,83.0,-24.0,244.0,0
2245,81.0,-21.0,243.0,0
2246,78.0,-22.0,243.0,0
2247,82.0,-26.0,241.0,0
2248,81.0,-22.0,244.0,0
2249,80.0,-21.0,244.0,0
2250,79.0,-19.0,244.0,0
2251,78.0,-20.0,242.0,0
2252,79.0,-21.0,242.0,0
2253,82.0,-22.0,242.0,0
2254,76.0,-20.0,246.0,0
2255,91.0,-25.0,255.0,0
2256,79.0,-21.0,243.0,0
2257,80.0,-21.0,241.0,0
2258,83.0,-21.0,245.0,0
2259,81.0,-19.0,242.0,0
2260,79.0,-24.0,240.0,0
2261,82.0,-21.0,244.0,0
2262,82.0,-18.0,241.0,0
2263,81.0,-20.0,243.0,0
2264,80.0,-23.0,245.0,0
2265,81.0,-19.0,245.0,0
2266,77.0,-19.0,241.0,0
2267,77.0,-22.0,244.0,0
2268,77.0,-22.0,244.0,0
2269,79.0,-20.0,247.0,0
2270,82.0,-24.0,244.0,0
2271,78.0,-23.0,248.0,0
2272,80.0,-24.0,244.0,0
2273,81.0,-24.0,249.0,0
2274,79.0,-23.0,247.0,0
2275,78.0,-20.0,247.0,0
2276,77.0,-22.0,246.0,0
2277,79.0,-19.0,249.0,0
2278,80.0,-21.0,246.0,0
2279,77.0,-24.0,246.0,0
2280,79.0,-20.0,246.0,0
2281,80.0,-21.0,242.0,0
2282,79.0,-17.0,244.0,0
2283,81.0,-23.0,247.0,0
2284,80.0,-17.0,243.0,0
2285,82.0,-19.0,243.0,0
2286,79.0,-17.0,241.0,0
2287,77.0,-19.0,242.0,0
2288,76.0,-17.0,249.0,0
2289,81.0,-19.0,247.0,0
2290,81.0,-18.0,247.0,0
2291,80.0,-18.0,244.0,0
2292,81.0,-19.0,242.0,0
2293,77.0,-17.0,242.0,0
2294,80.0,-15.0,243.0,0
2295,77.0,-16.0,246.0,0
2296,80.0,-17.0,241.0,0
2297,78.0,-19.0,245.0,0
2298,80.0,-18.0,242.0,0
2299,81.0,-18.0,246.0,0
2300,79.0,-15.0,248.0,0
2301,79.0,-18.0,247.0,0
2302,81.0,-19.0,246.0,0
2303,78.0,-17.0,244.0,0
2304,80.0,-16.0,251.0,0
2305,77.0,-15.0,243.0,0
2306,77.0,-18.0,246.0,0
2307,79.0,-17.0,245.0,0
2308,77.0,-14.0,242.0,0
2309,80.0,-17.0,249.0,0
2310,79.0,-17.0,248.0,0
2311,78.0,-13.0,246.0,0
2312,79.0,-16.0,244.0,0
2313,82.0,-17.0,247.0,0
2314,79.0,-16.0,245.0,0
2315,81.0,-19.0,246.0,0
2316,81.0,-17.0,246.0,0
2317,80.0,-18.0,244.0,0
2318,75.0,-16.0,244.0,0
2319,77.0,-19.0,246.0,0
2320,75.0,-16.0,244.0,0
2321,77.0,-17.0,249.0,0
2322,79.0,-18.0,246.0,0
2323,82.0,-19.0,248.0,0
2324,79.0,-17.0,246.0,0
2325,79.0,-18.0,249.0,0
2326,79.0,-16.0,244.0,0
2327,80.0,-16.0,247.0,0
2328,80.0,-19.0,243.0,0
2329,80.0,-20.0,244.0,0
2330,82.0,-18.0,242.0,0
2331,80.0,-19.0,244.0,0
2332,78.0,-19.0,250.0,0
2333,79.0,-18.0,245.0,0
2334,79.0,-18.0,244.0,0
2335,80.0,-19.0,244.0,0
2336,79.0,-16.0,247.0,0
2337,77.0,-17.0,245.0,0
2338,76.0,-17.0,244.0,0
2339,79.0,-19.0,245.0,0
2340,78.0,-16.0,246.0,0
2341,77.0,-16.0,246.0,0
2342,78.0,-18.0,246.0,0
2343,78.0,-17.0,247.0,0
2344,80.0,-19.0,245.0,0
2345,78.0,-17.0,242.0,0
2346,82.0,-17.0,245.0,0
2347,78.0,-16.0,244.0,0
2348,78.0,-13.0,246.0,0
2349,79.0,-15.0,245.0,0
2350,79.0,-18.0,247.0,0
2351,80.0,-18.0,246.0,0
2352,79.0,-20.0,244.0,0
2353,80.0,-14.0,239.0,0
2354,75.0,-12.0,243.0,0
2355,77.0,-16.0,245.0,0
2356,76.0,-15.0,248.0,0
2357,78.0,-16.0,243.0,0
2358,78.0,-14.0,246.0,0
2359,76.0,-12.0,245.0,0
2360,79.0,-15.0,247.0,0
2361,79.0,-14.0,246.0,0
2362,80.0,-13.0,243.0,0
2363,76.0,-14.0,249.0,0
2364,79.0,-17.0,246.0,0
2365,79.0,-12.0,243.0,0
2366,80.0,-16.0,245.0,0
2367,77.0,-15.0,246.0,0
2368,79.0,-15.0,246.0,0
2369,78.0,-12.0,242.0,0
2370,79.0,-17.0,248.0,0
2371,78.0,-14.0,245.0,0
2372,78.0,-19.0,251.0,0
2373,77.0,-12.0,247.0,0
2374,78.0,-12.0,244.0,0
2375,78.0,-14.0,244.0,0
2376,79.0,-13.0,247.0,0
2377,79.0,-14.0,245.0,0
2378,77.0,-15.0,245.0,0
2379,81.0,-16.0,241.0,0
2380,79.0,-14.0,246.0,0
2381,81.0,-17.0,247.0,0
2382,80.0,-13.0,249.0,0
2383,78.0,-13.0,246.0,0
2384,79.0,-14.0,248.0,0
2385,80.0,-16.0,250.0,0
2386,79.0,-16.0,231.0,0
2387,78.0,-15.0,246.0,0
2388,79.0,-14.0,243.0,0
2389,78.0,-15.0,247.0,0
2390,80.0,-15.0,246.0,0
2391,77.0,-12.0,245.0,0
2392,81.0,-17.0,248.0,0
2393,78.0,-13.0,245.0,0
2394,79.0,-16.0,248.0,0
2395,75.0,-13.0,245.0,0
2396,79.0,-19.0,249.0,0
2397,79.0,-14.0,247.0,0
2398,79.0,-17.0,245.0,0
2399,79.0,-17.0,245.0,0
2400,79.0,-15.0,247.0,0
2401,80.0,-16.0,242.0,0
2402,79.0,-15.0,246.0,0
2403,78.0,-15.0,249.0,0
2404,80.0,-15.0,246.0,0
2405,80.0,-16.0,243.0,0
2406,78.0,-13.0,245.0,0
2407,80.0,-16.0,246.0,0
2408,80.0,-14.0,245.0,0
2409,80.0,-18.0,246.0,0
2410,80.0,-16.0,242.0,0
2411,75.0,-15.0,243.0,0
2412,83.0,-18.0,246.0,0
2413,81.0,-17.0,243.0,0
2414,82.0,-15.0,245.0,0
2415,83.0,-15.0,247.0,0
2416,80.0,-14.0,246.0,0
2417,79.0,-20.0,247.0,0
2418,82.0,-16.0,245.0,0
2419,80.0,-18.0,245.0,0
2420,79.0,-16.0,248.0,0
2421,79.0,-16.0,247.0,0
2422,80.0,-15.0,248.0,0
2423,79.0,-16.0,249.0,0
2424,77.0,-12.0,248.0,0
2425,79.0,-14.0,247.0,0
2426,76.0,-15.0,245.0,0
2427,81.0,-17.0,245.0,0
2428,81.0,-16.0,243.0,0
2429,81.0,-18.0,247.0,0
2430,80.0,-16.0,245.0,0
2431,79.0,-16.0,247.0,0
2432,76.0,-11.0,248.0,0
2433,81.0,-17.0,247.0,0
2434,80.0,-15.0,247.0,0
2435,80.0,-15.0,248.0,0
2436,75.0,-15.0,247.0,0
2437,81.0,-16.0,244.0,0
2438,79.0,-15.0,252.0,0
2439,79.0,-14.0,244.0,0
2440,80.0,-16.0,245.0,0
2441,81.0,-14.0,247.0,0
2442,75.0,-17.0,244.0,0
2443,77.0,-15.0,242.0,0
2444,76.0,-13.0,246.0,0
2445,77.0,-16.0,244.0,0
2446,80.0,-17.0,246.0,0
2447,80.0,-16.0,246.0,0
2448,78.0,-18.0,244.0,0
2449,78.0,-14.0,247.0,0
2450,78.0,-16.0,246.0,0
2451,79.0,-13.0,243.0,0
2452,79.0,-18.0,247.0,0
2453,79.0,-17.0,249.0,0
2454,81.0,-15.0,248.0,0
2455,77.0,-14.0,246.0,0
2456,78.0,-17.0,244.0,0
2457,81.0,-16.0,245.0,0
2458,79.0,-15.0,245.0,0
2459,78.0,-19.0,246.0,0
2460,79.0,-18.0,247.0,0
2461,81.0,-17.0,244.0,0
2462,77.0,-16.0,245.0,0
2463,79.0,-15.0,244.0,0
2464,80.0,-16.0,246.0,0
2465,78.0,-11.0,247.0,0
2466,81.0,-14.0,246.0,0
2467,84.0,-18.0,245.0,0
2468,80.0,-15.0,244.0,0
2469,82.0,-17.0,246.0,0
2470,80.0,-15.0,248.0,0
2471,80.0,-14.0,245.0,0
2472,78.0,-16.0,244.0,0
2473,80.0,-18.0,243.0,0
2474,78.0,-18.0,247.0,0
2475,79.0,-16.0,245.0,0
2476,75.0,-18.0,243.0,0
2477,77.0,-13.0,243.0,0
2478,78.0,-16.0,249.0,0
2479,79.0,-17.0,245.0,0
2480,77.0,-17.0,245.0,0
2481,78.0,-16.0,247.0,0
2482,76.0,-17.0,249.0,0
2483,79.0,-18.0,250.0,0
2484,79.0,-15.0,248.0,0
2485,78.0,-16.0,244.0,0
2486,79.0,-17.0,244.0,0
2487,77.0,-16.0,241.0,0
2488,82.0,-14.0,245.0,0
2489,78.0,-14.0,242.0,0
2490,78.0,-17.0,247.0,0
2491,79.0,-11.0,245.0,0
2492,80.0,-15.0,248.0,0
2493,80.0,-14.0,247.0,0
2494,79.0,-15.0,247.0,0
2495,79.0,-18.0,243.0,0
2496,78.0,-14.0,247.0,0
2497,82.0,-14.0,244.0,0
2498,79.0,-14.0,245.0,0
2499,77.0,-11.0,245.0,0
2500,79.0,-16.0,248.0,0
2501,80.0,-15.0,248.0,0
2502,79.0,-16.0,249.0,0
2503,79.0,-20.0,245.0,0
2504,79.0,-17.0,243.0,0
2505,81.0,-17.0,244.0,0
2506,82.0,-15.0,244.0,0
2507,79.0,-13.0,246.0,0
2508,78.0,-16.0,248.0,0
2509,81.0,-14.0,244.0,0
2510,83.0,-16.0,245.0,0
2511,76.0,-11.0,243.0,0
2512,83.0,-15.0,252.0,0
2513,80.0,-15.0,244.0,0
2514,80.0,-15.0,247.0,0
2515,78.0,-14.0,246.0,0
2516,78.0,-12.0,238.0,0
2517,77.0,-11.0,248.0,0
2518,79.0,-14.0,244.0,0
2519,77.0,-11.0,244.0,0
2520,76.0,-14.0,243.0,0
2521,81.0,-14.0,249.0,0
2522,81.0,-16.0,245.0,0
2523,77.0,-14.0,245.0,0
2524,80.0,-18.0,244.0,0
2525,78.0,-17.0,244.0,0
2526,77.0,-15.0,249.0,0
2527,80.0,-19.0,244.0,0
2528,77.0,-15.0,244.0,0
2529,79.0,-15.0,243.0,0
2530,76.0,-13.0,244.0,0
2531,81.0,-12.0,246.0,0
2532,77.0,-10.0,245.0,0
2533,79.0,-13.0,243.0,0
2534,79.0,-15.0,246.0,0
2535,79.0,-17.0,244.0,0
2536,80.0,-17.0,244.0,0
2537,78.0,-17.0,244.0,0
2538,78.0,-15.0,243.0,0
2539,82.0,-14.0,247.0,0
2540,79.0,-17.0,242.0,0
2541,80.0,-16.0,247.0,0
2542,79.0,-13.0,245.0,0
2543,78.0,-14.0,244.0,0
2544,82.0,-13.0,243.0,0
2545,78.0,-14.0,244.0,0
2546,78.0,-15.0,244.0,0
2547,79.0,-14.0,245.0,0
2548,78.0,-14.0,245.0,0
2549,79.0,-13.0,246.0,0
2550,79.0,-14.0,246.0,0
2551,78.0,-12.0,248.0,0
2552,77.0,-13.0,243.0,0
2553,78.0,-11.0,249.0,0
2554,79.0,-13.0,250.0,0
2555,76.0,-17.0,242.0,0
2556,79.0,-13.0,245.0,0
2557,79.0,-14.0,249.0,0
2558,81.0,-13.0,245.0,0
2559,79.0,-11.0,244.0,0
2560,78.0,-10.0,245.0,0
2561,79.0,-15.0,244.0,0
2562,80.0,-13.0,246.0,0
2563,78.0,-15.0,247.0,0
2564,76.0,-12.0,246.0,0
2565,76.0,-12.0,249.0,0
2566,80.0,-14.0,248.0,0
2567,78.0,-13.0,247.0,0
2568,78.0,-15.0,248.0,0
2569,79.0,-13.0,247.0,0
2570,76.0,-13.0,246.0,0
2571,77.0,-14.0,248.0,0
2572,78.0,-12.0,245.0,0
2573,78.0,-11.0,246.0,0
2574,80.0,-11.0,246.0,0
2575,81.0,-13.0,245.0,0
2576,79.0,-13.0,245.0,0
2577,78.0,-13.0,244.0,0
2578,79.0,-15.0,248.0,0
2579,79.0,-15.0,245.0,0
2580,77.0,-13.0,244.0,0
2581,78.0,-15.0,240.0,0
2582,78.0,-16.0,249.0,0
2583,82.0,-15.0,249.0,0
2584,80.0,-12.0,245.0,0
2585,78.0,-9.0,246.0,0
2586,79.0,-12.0,246.0,0
2587,80.0,-12.0,242.0,0
2588,84.0,-14.0,253.0,0
2589,80.0,-14.0,243.0,0
2590,78.0,-14.0,247.0,0
2591,78.0,-12.0,243.0,0
2592,79.0,-14.0,243.0,0
2593,77.0,-14.0,247.0,0
2594,76.0,-16.0,243.0,0
2595,80.0,-15.0,246.0,0
2596,80.0,-16.0,247.0,0
2597,79.0,-14.0,247.0,0
2598,79.0,-14.0,240.0,0
2599,79.0,-9.0,247.0,0
2600,80.0,-14.0,248.0,0
2601,80.0,-16.0,246.0,0
2602,80.0,-13.0,245.0,0
2603,78.0,-15.0,251.0,0
2604,83.0,-17.0,252.0,0
2605,83.0,-14.0,245.0,0
2606,77.0,-12.0,247.0,0
2607,76.0,-12.0,247.0,0
2608,80.0,-14.0,242.0,0
2609,78.0,-9.0,251.0,0
2610,80.0,-13.0,245.0,0
2611,76.0,-10.0,249.0,0
2612,76.0,-15.0,246.0,0
2613,76.0,-14.0,251.0,0
2614,80.0,-14.0,243.0,0
2615,80.0,-13.0,247.0,0
2616,79.0,-16.0,247.0,0
2617,80.0,-10.0,247.0,0
2618,80.0,-14.0,249.0,0
2619,78.0,-13.0,247.0,0
2620,78.0,-14.0,247.0,0
2621,79.0,-16.0,246.0,0
2622,77.0,-11.0,247.0,0
2623,81.0,-15.0,246.0,0
2624,77.0,-10.0,246.0,0
2625,83.0,-14.0,240.0,0
2626,79.0,-12.0,249.0,0
2627,77.0,-13.0,248.0,0
2628,79.0,-12.0,248.0,0
2629,76.0,-13.0,241.0,0
2630,79.0,-11.0,245.0,0
2631,80.0,-17.0,240.0,0
2632,78.0,-14.0,242.0,0
2633,80.0,-14.0,245.0,0
2634,80.0,-18.0,246.0,0
2635,81.0,-15.0,248.0,0
2636,77.0,-15.0,245.0,0
2637,83.0,-14.0,244.0,0
2638,77.0,-13.0,245.0,0
2639,78.0,-11.0,246.0,0
2640,76.0,-13.0,247.0,0
2641,81.0,-14.0,246.0,0
2642,81.0,-14.0,246.0,0
2643,79.0,-13.0,241.0,0
2644,79.0,-14.0,246.0,0
2645,80.0,-10.0,245.0,0
2646,76.0,-13.0,246.0,0
2647,77.0,-11.0,245.0,0
2648,84.0,-17.0,246.0,0
2649,77.0,-13.0,244.0,0
2650,77.0,-13.0,246.0,0
2651,80.0,-7.0,248.0,0
2652,81.0,-13.0,247.0,0
2653,79.0,-9.0,246.0,0
2654,78.0,-14.0,245.0,0
2655,76.0,-17.0,246.0,0
2656,78.0,-15.0,246.0,0
2657,80.0,-11.0,245.0,0
2658,79.0,-15.0,244.0,0
2659,81.0,-13.0,247.0,0
2660,81.0,-15.0,245.0,0
2661,78.0,-14.0,245.0,0
2662,79.0,-14.0,245.0,0
2663,77.0,-13.0,245.0,0
2664,82.0,-13.0,248.0,0
2665,82.0,-14.0,248.0,0
2666,76.0,-10.0,247.0,0
2667,81.0,-14.0,244.0,0
2668,80.0,-14.0,247.0,0
2669,81.0,-7.0,242.0,0
2670,82.0,-13.0,247.0,0
2671,79.0,-14.0,250.0,0
2672,81.0,-13.0,245.0,0
2673,78.0,-14.0,246.0,0
2674,80.0,-16.0,241.0,0
2675,76.0,-11.0,242.0,0
2676,76.0,-13.0,249.0,0
2677,79.0,-11.0,246.0,0
2678,80.0,-15.0,244.0,0
2679,81.0,-15.0,245.0,0
2680,82.0,-11.0,248.0,0
2681,76.0,-14.0,244.0,0
2682,81.0,-9.0,244.0,0
2683,81.0,-14.0,247.0,0
2684,77.0,-15.0,244.0,0
2685,80.0,-17.0,245.0,0
2686,80.0,-15.0,249.0,0
2687,77.0,-16.0,248.0,0
2688,78.0,-17.0,245.0,0
2689,77.0,-15.0,247.0,0
2690,80.0,-16.0,249.0,0
2691,77.0,-17.0,250.0,0
2692,78.0,-17.0,247.0,0
2693,78.0,-14.0,244.0,0
2694,76.0,-17.0,246.0,0
2695,81.0,-16.0,239.0,0
2696,79.0,-14.0,246.0,0
2697,80.0,-11.0,242.0,0
2698,79.0,-10.0,243.0,0
2699,81.0,-16.0,243.0,0
2700,79.0,-13.0,248.0,0
2701,79.0,-11.0,242.0,0
2702,66.0,-18.0,251.0,0
2703,80.0,-12.0,244.0,0
2704,78.0,-11.0,247.0,0
2705,79.0,-8.0,246.0,0
2706,79.0,-10.0,243.0,0
2707,77.0,-10.0,249.0,0
2708,79.0,-12.0,248.0,0
2709,80.0,-12.0,246.0,0
2710,78.0,-8.0,250.0,0
2711,81.0,-11.0,246.0,0
2712,81.0,-16.0,247.0,0
2713,80.0,-12.0,246.0,0
2714,80.0,-10.0,247.0,0
2715,80.0,-11.0,246.0,0
2716,80.0,-10.0,251.0,0
2717,81.0,-11.0,246.0,0
2718,77.0,-11.0,248.0,0
2719,79.0,-12.0,248.0,0
2720,81.0,-13.0,244.0,0
2721,77.0,-13.0,245.0,0
2722,79.0,-6.0,247.0,0
2723,78.0,-16.0,244.0,0
2724,79.0,-11.0,248.0,0
2725,80.0,-11.0,248.0,0
2726,79.0,-12.0,250.0,0
2727,77.0,-13.0,243.0,0
2728,79.0,-11.0,246.0,0
2729,80.0,-14.0,244.0,0
2730,81.0,-11.0,248.0,0
2731,79.0,-10.0,245.0,0
2732,79.0,-12.0,244.0,0
2733,76.0,-11.0,246.0,0
2734,77.0,-9.0,238.0,0
2735,79.0,-17.0,247.0,0
2736,79.0,-14.0,247.0,0
2737,79.0,-12.0,242.0,0
2738,80.0,-13.0,245.0,0
2739,79.0,-11.0,247.0,0
2740,80.0,-10.0,243.0,0
2741,79.0,-13.0,247.0,0
2742,78.0,-12.0,247.0,0
2743,79.0,-13.0,250.0,0
2744,77.0,-16.0,246.0,0
2745,80.0,-15.0,245.0,0
2746,78.0,-17.0,245.0,0
2747,78.0,-15.0,244.0,0
2748,80.0,-14.0,248.0,0
2749,80.0,-15.0,244.0,0
2750,79.0,-13.0,245.0,0
2751,81.0,-15.0,249.0,0
2752,78.0,-16.0,247.0,0
2753,80.0,-17.0,247.0,0
2754,77.0,-16.0,245.0,0
2755,80.0,-16.0,247.0,0
2756,78.0,-13.0,247.0,0
2757,78.0,-12.0,244.0,0
2758,78.0,-12.0,240.0,0
2759,77.0,-14.0,245.0,0
2760,76.0,-13.0,249.0,0
2761,80.0,-15.0,242.0,0
2762,83.0,-14.0,243.0,0
2763,79.0,-14.0,247.0,0
2764,86.0,-5.0,242.0,0
2765,78.0,-11.0,248.0,0
2766,77.0,-12.0,245.0,0
2767,81.0,-4.0,244.0,0
2768,78.0,-14.0,242.0,0
2769,77.0,-13.0,244.0,0
2770,77.0,-15.0,245.0,0
2771,79.0,-15.0,248.0,0
2772,79.0,-13.0,249.0,0
2773,78.0,-12.0,245.0,0
2774,80.0,-15.0,245.0,0
2775,76.0,-11.0,246.0,0
2776,79.0,-12.0,244.0,0
2777,76.0,-14.0,247.0,0
2778,78.0,-14.0,244.0,0
2779,79.0,-13.0,246.0,0
2780,78.0,-13.0,242.0,0
2781,79.0,-8.0,247.0,0
2782,80.0,-12.0,245.0,0
2783,80.0,-10.0,248.0,0
2784,80.0,-12.0,243.0,0
2785,81.0,-9.0,243.0,0
2786,77.0,-14.0,244.0,0
2787,78.0,-14.0,250.0,0
2788,79.0,-13.0,247.0,0
2789,76.0,-12.0,249.0,0
2790,78.0,-7.0,245.0,0
2791,80.0,-11.0,246.0,0
2792,79.0,-10.0,247.0,0
2793,77.0,-14.0,247.0,0
2794,76.0,-12.0,247.0,0
2795,78.0,-10.0,248.0,0
2796,78.0,-11.0,247.0,0
2797,79.0,-12.0,248.0,0
2798,79.0,-13.0,248.0,0
2799,79.0,-15.0,248.0,0
2800,80.0,-12.0,244.0,0
2801,79.0,-12.0,247.0,0
2802,77.0,-12.0,244.0,0
2803,78.0,-10.0,247.0,0
2804,77.0,-9.0,246.0,0
2805,79.0,-11.0,247.0,0
2806,78.0,-9.0,249.0,0
2807,77.0,-12.0,245.0,0
2808,76.0,-7.0,254.0,0
2809,77.0,-12.0,249.0,0
2810,76.0,-11.0,244.0,0
2811,81.0,-10.0,252.0,0
2812,78.0,-12.0,249.0,0
2813,76.0,-9.0,247.0,0
2814,75.0,-11.0,247.0,0
2815,79.0,-9.0,242.0,0
2816,78.0,-11.0,249.0,0
2817,77.0,-10.0,248.0,0
2818,74.0,-8.0,246.0,0
2819,75.0,-11.0,248.0,0
2820,76.0,-12.0,250.0,0
2821,77.0,-13.0,247.0,0
2822,78.0,-6.0,247.0,0
2823,76.0,-8.0,247.0,0
2824,74.0,-8.0,244.0,0
2825,77.0,-8.0,250.0,0
2826,78.0,-11.0,249.0,0
2827,76.0,-8.0,245.0,0
2828,78.0,-13.0,245.0,0
2829,78.0,-12.0,246.0,0
2830,79.0,-9.0,246.0,0
2831,77.0,-11.0,245.0,0
2832,80.0,-8.0,244.0,0
2833,76.0,-8.0,248.0,0
2834,78.0,-13.0,244.0,0
2835,76.0,-12.0,246.0,0
2836,78.0,-11.0,248.0,0
2837,78.0,-14.0,246.0,0
2838,78.0,-11.0,249.0,0
2839,76.0,-12.0,246.0,0
2840,77.0,-12.0,248.0,0
2841,77.0,-11.0,247.0,0
2842,75.0,-8.0,246.0,0
2843,77.0,-12.0,242.0,0
2844,76.0,-10.0,245.0,0
2845,76.0,-9.0,243.0,0
2846,77.0,-11.0,249.0,0
2847,75.0,-8.0,245.0,0
2848,80.0,-10.0,249.0,0
2849,75.0,-8.0,252.0,0
2850,77.0,-11.0,246.0,0
2851,77.0,-10.0,248.0,0
2852,78.0,-10.0,249.0,0
2853,80.0,-9.0,245.0,0
2854,76.0,-11.0,246.0,0
2855,77.0,-8.0,247.0,0
2856,77.0,-13.0,244.0,0
2857,77.0,-7.0,246.0,0
2858,80.0,-10.0,247.0,0
2859,79.0,-10.0,247.0,0
2860,77.0,-10.0,247.0,0
2861,78.0,-9.0,245.0,0
2862,74.0,-4.0,246.0,0
2863,77.0,-10.0,246.0,0
2864,76.0,-10.0,248.0,0
2865,77.0,-12.0,247.0,0
2866,77.0,-11.0,246.0,0
2867,78.0,-11.0,249.0,0
2868,72.0,-9.0,251.0,0
2869,75.0,-11.0,247.0,0
2870,78.0,-11.0,246.0,0
2871,76.0,-9.0,250.0,0
2872,76.0,-10.0,248.0,0
2873,75.0,-11.0,242.0,0
2874,75.0,-6.0,246.0,0
2875,77.0,-12.0,247.0,0
2876,76.0,-5.0,250.0,0
2877,74.0,-9.0,249.0,0
2878,75.0,-12.0,248.0,0
2879,76.0,-5.0,244.0,0
2880,78.0,-9.0,248.0,0
2881,76.0,-8.0,248.0,0
2882,79.0,-8.0,246.0,0
2883,76.0,-8.0,250.0,0
2884,79.0,-9.0,244.0,0
2885,78.0,-11.0,249.0,0
2886,78.0,-10.0,251.0,0
2887,79.0,-8.0,245.0,0
2888,77.0,-7.0,246.0,0
2889,74.0,-8.0,245.0,0
2890,77.0,-7.0,249.0,0
2891,77.0,-10.0,248.0,0
2892,75.0,-6.0,251.0,0
2893,77.0,-10.0,243.0,0
2894,78.0,-12.0,249.0,0
2895,73.0,-8.0,248.0,0
2896,77.0,-11.0,248.0,0
2897,74.0,-8.0,244.0,0
2898,72.0,-12.0,246.0,0
2899,75.0,-9.0,244.0,0
2900,75.0,-10.0,249.0,0
2901,77.0,-9.0,251.0,0
2902,75.0,-9.0,250.0,0
2903,79.0,-11.0,252.0,0
2904,76.0,-12.0,250.0,0
2905,75.0,-12.0,244.0,0
2906,75.0,-11.0,248.0,0
2907,76.0,-11.0,246.0,0
2908,75.0,-7.0,246.0,0
2909,77.0,-8.0,245.0,0
2910,77.0,-5.0,247.0,0
2911,76.0,-8.0,248.0,0
2912,77.0,-8.0,242.0,0
2913,75.0,-4.0,247.0,0
2914,77.0,-8.0,246.0,0
2915,76.0,-6.0,249.0,0
2916,78.0,-10.0,246.0,0
2917,76.0,-9.0,247.0,0
2918,79.0,-7.0,245.0,0
2919,78.0,-11.0,247.0,0
2920,79.0,-3.0,248.0,0
2921,74.0,-10.0,244.0,0
2922,75.0,-7.0,250.0,0
2923,77.0,-6.0,244.0,0
2924,77.0,-11.0,247.0,0
2925,78.0,-8.0,247.0,0
2926,76.0,-7.0,249.0,0
2927,73.0,-7.0,247.0,0
2928,74.0,-9.0,247.0,0
2929,77.0,-7.0,248.0,0
2930,78.0,-7.0,248.0,0
2931,78.0,-6.0,245.0,0
2932,74.0,-5.0,248.0,0
2933,74.0,-4.0,247.0,0
2934,75.0,-7.0,248.0,0
2935,77.0,-5.0,249.0,0
2936,77.0,-9.0,247.0,0
2937,75.0,-8.0,249.0,0
2938,75.0,-7.0,249.0,0
2939,76.0,-6.0,249.0,0
2940,75.0,-11.0,251.0,0
2941,76.0,-7.0,251.0,0
2942,78.0,-12.0,246.0,0
2943,74.0,-6.0,248.0,0
2944,72.0,-6.0,246.0,0
2945,76.0,-11.0,250.0,0
2946,76.0,-5.0,246.0,0
2947,74.0,-7.0,244.0,0
2948,75.0,-11.0,248.0,0
2949,77.0,-9.0,244.0,0
2950,73.0,-7.0,247.0,0
2951,75.0,-8.0,247.0,0
2952,74.0,-6.0,245.0,0
2953,77.0,-6.0,251.0,0
2954,77.0,-5.0,252.0,0
2955,76.0,-9.0,244.0,0
2956,75.0,-7.0,244.0,0
2957,75.0,-8.0,247.0,0
2958,77.0,-10.0,247.0,0
2959,79.0,-7.0,244.0,0
2960,77.0,-10.0,251.0,0
2961,76.0,-12.0,249.0,0
2962,75.0,-11.0,246.0,0
2963,78.0,-10.0,247.0,0
2964,75.0,-11.0,250.0,0
2965,74.0,-6.0,247.0,0
2966,76.0,-12.0,245.0,0
2967,74.0,-9.0,247.0,0
2968,76.0,-11.0,246.0,0
2969,77.0,-9.0,245.0,0
2970,74.0,-10.0,244.0,0
2971,78.0,-9.0,248.0,0
2972,76.0,-9.0,247.0,0
2973,74.0,-10.0,247.0,0
2974,76.0,-4.0,247.0,0
2975,76.0,-6.0,245.0,0
2976,76.0,-9.0,246.0,0
2977,75.0,-7.0,247.0,0
2978,76.0,-6.0,245.0,0
2979,76.0,-9.0,245.0,0
2980,75.0,-7.0,246.0,0
2981,75.0,-8.0,248.0,0
2982,79.0,-9.0,246.0,0
2983,79.0,-10.0,250.0,0
2984,77.0,-9.0,250.0,0
2985,71.0,-10.0,250.0,0
2986,77.0,-9.0,249.0,0
2987,75.0,-9.0,250.0,0
2988,77.0,-10.0,244.0,0
2989,77.0,-7.0,247.0,0
2990,79.0,-5.0,250.0,0
2991,76.0,-8.0,244.0,0
2992,76.0,-14.0,247.0,0
2993,72.0,-6.0,245.0,0
2994,76.0,-9.0,246.0,0
2995,75.0,-11.0,246.0,0
2996,77.0,-7.0,251.0,0
2997,76.0,-9.0,245.0,0
2998,77.0,-5.0,245.0,0
2999,78.0,-10.0,246.0,0
