,accelerometer_x,accelerometer_y,accelerometer_z,fall
0,9.0,-255.0,-43.0,0
1,8.0,-255.0,-41.0,0
2,8.0,-255.0,-43.0,0
3,9.0,-255.0,-41.0,0
4,11.0,-256.0,-45.0,0
5,3.0,-259.0,-40.0,0
6,9.0,-253.0,-42.0,0
7,12.0,-255.0,-40.0,0
8,12.0,-254.0,-41.0,0
9,11.0,-253.0,-39.0,0
10,12.0,-252.0,-41.0,0
11,10.0,-255.0,-42.0,0
12,10.0,-256.0,-42.0,0
13,12.0,-252.0,-45.0,0
14,11.0,-253.0,-42.0,0
15,11.0,-252.0,-41.0,0
16,10.0,-255.0,-41.0,0
17,9.0,-254.0,-41.0,0
18,8.0,-254.0,-41.0,0
19,10.0,-253.0,-41.0,0
20,11.0,-252.0,-43.0,0
21,11.0,-254.0,-43.0,0
22,11.0,-248.0,-38.0,0
23,17.0,-246.0,-54.0,0
24,15.0,-256.0,-37.0,0
25,15.0,-259.0,-43.0,0
26,13.0,-252.0,-37.0,0
27,20.0,-252.0,-31.0,0
28,9.0,-252.0,-47.0,0
29,8.0,-254.0,-33.0,0
30,20.0,-252.0,-41.0,0
31,12.0,-254.0,-36.0,0
32,16.0,-258.0,-44.0,0
33,15.0,-251.0,-51.0,0
34,8.0,-252.0,-46.0,0
35,18.0,-257.0,-43.0,0
36,7.0,-255.0,-40.0,0
37,13.0,-249.0,-45.0,0
38,14.0,-246.0,-30.0,0
39,3.0,-275.0,-30.0,0
40,10.0,-254.0,-40.0,0
41,10.0,-252.0,-39.0,0
42,12.0,-253.0,-42.0,0
43,12.0,-253.0,-39.0,0
44,10.0,-253.0,-37.0,0
45,15.0,-254.0,-40.0,0
46,14.0,-256.0,-42.0,0
47,15.0,-255.0,-44.0,0
48,14.0,-257.0,-40.0,0
49,17.0,-257.0,-40.0,0
50,14.0,-255.0,-42.0,0
51,12.0,-254.0,-37.0,0
52,12.0,-252.0,-38.0,0
53,9.0,-250.0,-41.0,0
54,13.0,-253.0,-41.0,0
55,16.0,-257.0,-37.0,0
56,13.0,-251.0,-39.0,0
57,11.0,-251.0,-39.0,0
58,13.0,-254.0,-43.0,0
59,14.0,-251.0,-39.0,0
60,11.0,-253.0,-40.0,0
61,11.0,-252.0,-34.0,0
62,13.0,-255.0,-39.0,0
63,12.0,-252.0,-41.0,0
64,13.0,-256.0,-41.0,0
65,12.0,-256.0,-40.0,0
66,8.0,-255.0,-44.0,0
67,12.0,-257.0,-40.0,0
68,10.0,-258.0,-38.0,0
69,13.0,-252.0,-44.0,0
70,11.0,-255.0,-39.0,0
71,10.0,-252.0,-41.0,0
72,14.0,-254.0,-40.0,0
73,11.0,-254.0,-41.0,0
74,11.0,-249.0,-37.0,0
75,12.0,-252.0,-46.0,0
76,15.0,-254.0,-38.0,0
77,13.0,-254.0,-40.0,0
78,16.0,-257.0,-40.0,0
79,14.0,-254.0,-39.0,0
80,12.0,-255.0,-43.0,0
81,13.0,-255.0,-41.0,0
82,11.0,-256.0,-36.0,0
83,9.0,-253.0,-38.0,0
84,10.0,-257.0,-38.0,0
85,9.0,-257.0,-37.0,0
86,13.0,-256.0,-39.0,0
87,13.0,-255.0,-42.0,0
88,13.0,-255.0,-43.0,0
89,11.0,-253.0,-45.0,0
90,12.0,-254.0,-41.0,0
91,15.0,-252.0,-42.0,0
92,14.0,-252.0,-45.0,0
93,14.0,-252.0,-39.0,0
94,17.0,-255.0,-40.0,0
95,10.0,-250.0,-42.0,0
96,13.0,-252.0,-42.0,0
97,12.0,-256.0,-37.0,0
98,13.0,-253.0,-38.0,0
99,13.0,-255.0,-43.0,0
100,12.0,-256.0,-41.0,0
101,15.0,-256.0,-42.0,0
102,12.0,-254.0,-38.0,0
103,12.0,-255.0,-39.0,0
104,11.0,-253.0,-44.0,0
105,12.0,-255.0,-39.0,0
106,13.0,-253.0,-37.0,0
107,15.0,-255.0,-44.0,0
108,14.0,-257.0,-39.0,0
109,12.0,-255.0,-40.0,0
110,12.0,-253.0,-35.0,0
111,10.0,-258.0,-41.0,0
112,12.0,-253.0,-39.0,0
113,12.0,-255.0,-39.0,0
114,12.0,-253.0,-40.0,0
115,12.0,-252.0,-44.0,0
116,11.0,-253.0,-43.0,0
117,11.0,-253.0,-44.0,0
118,12.0,-255.0,-42.0,0
119,12.0,-255.0,-43.0,0
120,11.0,-252.0,-43.0,0
121,11.0,-252.0,-43.0,0
122,10.0,-255.0,-42.0,0
123,11.0,-253.0,-42.0,0
124,11.0,-252.0,-36.0,0
125,9.0,-253.0,-41.0,0
126,13.0,-254.0,-39.0,0
127,11.0,-254.0,-41.0,0
128,11.0,-254.0,-40.0,0
129,10.0,-254.0,-41.0,0
130,13.0,-254.0,-40.0,0
131,13.0,-252.0,-40.0,0
132,12.0,-254.0,-38.0,0
133,8.0,-253.0,-38.0,0
134,10.0,-254.0,-42.0,0
135,9.0,-256.0,-38.0,0
136,12.0,-253.0,-39.0,0
137,13.0,-254.0,-41.0,0
138,11.0,-255.0,-39.0,0
139,11.0,-250.0,-42.0,0
140,12.0,-253.0,-44.0,0
141,13.0,-252.0,-40.0,0
142,12.0,-250.0,-42.0,0
143,12.0,-252.0,-41.0,0
144,11.0,-256.0,-40.0,0
145,12.0,-254.0,-41.0,0
146,13.0,-252.0,-41.0,0
147,10.0,-253.0,-42.0,0
148,10.0,-251.0,-41.0,0
149,10.0,-253.0,-42.0,0
150,9.0,-254.0,-42.0,0
151,10.0,-252.0,-43.0,0
152,10.0,-253.0,-39.0,0
153,8.0,-253.0,-40.0,0
154,10.0,-252.0,-39.0,0
155,14.0,-254.0,-39.0,0
156,12.0,-255.0,-46.0,0
157,11.0,-253.0,-42.0,0
158,14.0,-255.0,-40.0,0
159,12.0,-255.0,-41.0,0
160,13.0,-252.0,-44.0,0
161,13.0,-254.0,-42.0,0
162,12.0,-256.0,-47.0,0
163,12.0,-255.0,-45.0,0
164,15.0,-256.0,-45.0,0
165,10.0,-253.0,-42.0,0
166,15.0,-256.0,-39.0,0
167,14.0,-256.0,-44.0,0
168,11.0,-252.0,-40.0,0
169,11.0,-252.0,-43.0,0
170,12.0,-254.0,-44.0,0
171,13.0,-254.0,-43.0,0
172,14.0,-253.0,-40.0,0
173,11.0,-255.0,-41.0,0
174,11.0,-255.0,-39.0,0
175,10.0,-252.0,-44.0,0
176,15.0,-254.0,-39.0,0
177,12.0,-254.0,-43.0,0
178,12.0,-255.0,-42.0,0
179,11.0,-249.0,-42.0,0
180,14.0,-252.0,-41.0,0
181,13.0,-252.0,-40.0,0
182,13.0,-251.0,-47.0,0
183,14.0,-250.0,-45.0,0
184,13.0,-254.0,-42.0,0
185,13.0,-256.0,-43.0,0
186,11.0,-257.0,-44.0,0
187,10.0,-255.0,-46.0,0
188,9.0,-257.0,-43.0,0
189,10.0,-259.0,-43.0,0
190,11.0,-255.0,-43.0,0
191,11.0,-256.0,-42.0,0
192,12.0,-255.0,-46.0,0
193,9.0,-251.0,-47.0,0
194,14.0,-255.0,-45.0,0
195,13.0,-251.0,-46.0,0
196,9.0,-251.0,-47.0,0
197,9.0,-248.0,-42.0,0
198,9.0,-249.0,-42.0,0
199,12.0,-250.0,-43.0,0
200,12.0,-251.0,-41.0,0
201,11.0,-251.0,-42.0,0
202,12.0,-255.0,-43.0,0
203,14.0,-254.0,-43.0,0
204,11.0,-256.0,-43.0,0
205,13.0,-254.0,-45.0,0
206,10.0,-254.0,-44.0,0
207,12.0,-253.0,-46.0,0
208,11.0,-250.0,-48.0,0
209,12.0,-254.0,-48.0,0
210,11.0,-254.0,-49.0,0
211,12.0,-254.0,-41.0,0
212,12.0,-253.0,-44.0,0
213,11.0,-254.0,-43.0,0
214,13.0,-255.0,-46.0,0
215,14.0,-256.0,-45.0,0
216,14.0,-254.0,-49.0,0
217,11.0,-251.0,-50.0,0
218,13.0,-251.0,-51.0,0
219,14.0,-251.0,-44.0,0
220,13.0,-252.0,-46.0,0
221,12.0,-251.0,-41.0,0
222,13.0,-254.0,-42.0,0
223,12.0,-251.0,-41.0,0
224,12.0,-254.0,-41.0,0
225,9.0,-253.0,-42.0,0
226,13.0,-254.0,-43.0,0
227,8.0,-251.0,-47.0,0
228,11.0,-254.0,-46.0,0
229,10.0,-255.0,-45.0,0
230,13.0,-253.0,-47.0,0
231,11.0,-249.0,-50.0,0
232,11.0,-254.0,-46.0,0
233,10.0,-253.0,-45.0,0
234,13.0,-252.0,-44.0,0
235,13.0,-254.0,-45.0,0
236,11.0,-254.0,-47.0,0
237,11.0,-255.0,-40.0,0
238,15.0,-257.0,-46.0,0
239,13.0,-259.0,-47.0,0
240,13.0,-255.0,-48.0,0
241,13.0,-253.0,-44.0,0
242,13.0,-254.0,-44.0,0
243,13.0,-252.0,-48.0,0
244,12.0,-252.0,-43.0,0
245,10.0,-251.0,-47.0,0
246,11.0,-255.0,-45.0,0
247,7.0,-249.0,-45.0,0
248,14.0,-252.0,-44.0,0
249,10.0,-253.0,-45.0,0
250,7.0,-252.0,-41.0,0
251,9.0,-252.0,-46.0,0
252,11.0,-251.0,-45.0,0
253,12.0,-254.0,-44.0,0
254,11.0,-253.0,-44.0,0
255,11.0,-252.0,-46.0,0
256,11.0,-252.0,-46.0,0
257,12.0,-255.0,-48.0,0
258,13.0,-254.0,-47.0,0
259,12.0,-252.0,-45.0,0
260,14.0,-253.0,-43.0,0
261,15.0,-253.0,-45.0,0
262,16.0,-258.0,-43.0,0
263,14.0,-254.0,-45.0,0
264,12.0,-253.0,-46.0,0
265,15.0,-257.0,-47.0,0
266,13.0,-251.0,-48.0,0
267,12.0,-253.0,-47.0,0
268,13.0,-252.0,-47.0,0
269,9.0,-252.0,-48.0,0
270,10.0,-251.0,-48.0,0
271,12.0,-251.0,-48.0,0
272,8.0,-255.0,-47.0,0
273,11.0,-253.0,-45.0,0
274,12.0,-256.0,-45.0,0
275,11.0,-256.0,-46.0,0
276,11.0,-252.0,-45.0,0
277,12.0,-251.0,-46.0,0
278,12.0,-253.0,-45.0,0
279,10.0,-256.0,-45.0,0
280,15.0,-255.0,-46.0,0
281,12.0,-254.0,-44.0,0
282,12.0,-255.0,-47.0,0
283,14.0,-257.0,-45.0,0
284,14.0,-254.0,-49.0,0
285,13.0,-254.0,-46.0,0
286,16.0,-253.0,-46.0,0
287,13.0,-254.0,-46.0,0
288,12.0,-251.0,-46.0,0
289,12.0,-253.0,-43.0,0
290,15.0,-252.0,-50.0,0
291,11.0,-250.0,-46.0,0
292,12.0,-252.0,-46.0,0
293,11.0,-252.0,-47.0,0
294,9.0,-252.0,-47.0,0
295,12.0,-252.0,-44.0,0
296,10.0,-249.0,-44.0,0
297,11.0,-252.0,-47.0,0
298,7.0,-254.0,-47.0,0
299,10.0,-252.0,-47.0,0
300,12.0,-256.0,-44.0,0
301,14.0,-254.0,-47.0,0
302,14.0,-257.0,-45.0,0
303,12.0,-251.0,-47.0,0
304,12.0,-253.0,-49.0,0
305,12.0,-255.0,-51.0,0
306,15.0,-256.0,-44.0,0
307,13.0,-253.0,-47.0,0
308,15.0,-253.0,-49.0,0
309,14.0,-254.0,-52.0,0
310,15.0,-254.0,-48.0,0
311,15.0,-253.0,-49.0,0
312,16.0,-256.0,-48.0,0
313,13.0,-253.0,-50.0,0
314,12.0,-253.0,-48.0,0
315,12.0,-254.0,-45.0,0
316,12.0,-252.0,-45.0,0
317,11.0,-252.0,-48.0,0
318,10.0,-251.0,-49.0,0
319,10.0,-251.0,-51.0,0
320,11.0,-251.0,-54.0,0
321,10.0,-249.0,-53.0,0
322,9.0,-251.0,-50.0,0
323,13.0,-249.0,-49.0,0
324,11.0,-250.0,-49.0,0
325,14.0,-252.0,-48.0,0
326,12.0,-253.0,-49.0,0
327,10.0,-256.0,-51.0,0
328,11.0,-257.0,-51.0,0
329,12.0,-255.0,-52.0,0
330,12.0,-255.0,-49.0,0
331,12.0,-255.0,-52.0,0
332,10.0,-254.0,-52.0,0
333,12.0,-254.0,-56.0,0
334,8.0,-253.0,-54.0,0
335,9.0,-249.0,-53.0,0
336,10.0,-249.0,-53.0,0
337,11.0,-251.0,-54.0,0
338,10.0,-249.0,-52.0,0
339,8.0,-247.0,-50.0,0
340,10.0,-251.0,-51.0,0
341,9.0,-251.0,-53.0,0
342,12.0,-250.0,-54.0,0
343,12.0,-251.0,-49.0,0
344,9.0,-248.0,-53.0,0
345,9.0,-251.0,-50.0,0
346,9.0,-252.0,-50.0,0
347,13.0,-254.0,-52.0,0
348,9.0,-254.0,-45.0,0
349,13.0,-257.0,-50.0,0
350,10.0,-255.0,-47.0,0
351,11.0,-255.0,-46.0,0
352,16.0,-255.0,-49.0,0
353,14.0,-251.0,-45.0,0
354,10.0,-252.0,-49.0,0
355,9.0,-253.0,-49.0,0
356,12.0,-251.0,-46.0,0
357,12.0,-249.0,-49.0,0
358,13.0,-251.0,-52.0,0
359,11.0,-251.0,-49.0,0
360,12.0,-250.0,-50.0,0
361,10.0,-249.0,-50.0,0
362,12.0,-253.0,-51.0,0
363,14.0,-253.0,-50.0,0
364,13.0,-253.0,-50.0,0
365,10.0,-255.0,-46.0,0
366,13.0,-255.0,-48.0,0
367,13.0,-257.0,-46.0,0
368,12.0,-255.0,-47.0,0
369,12.0,-255.0,-49.0,0
370,13.0,-253.0,-51.0,0
371,9.0,-257.0,-51.0,0
372,12.0,-252.0,-51.0,0
373,13.0,-254.0,-48.0,0
374,13.0,-255.0,-51.0,0
375,12.0,-252.0,-53.0,0
376,13.0,-253.0,-51.0,0
377,11.0,-250.0,-50.0,0
378,10.0,-250.0,-50.0,0
379,13.0,-253.0,-50.0,0
380,12.0,-251.0,-49.0,0
381,11.0,-254.0,-51.0,0
382,0.0,-257.0,-63.0,0
383,12.0,-252.0,-49.0,0
384,10.0,-253.0,-46.0,0
385,9.0,-253.0,-47.0,0
386,12.0,-255.0,-44.0,0
387,10.0,-254.0,-48.0,0
388,14.0,-252.0,-44.0,0
389,13.0,-250.0,-47.0,0
390,10.0,-249.0,-49.0,0
391,13.0,-250.0,-48.0,0
392,13.0,-250.0,-52.0,0
393,13.0,-253.0,-46.0,0
394,13.0,-252.0,-44.0,0
395,12.0,-251.0,-49.0,0
396,13.0,-254.0,-47.0,0
397,11.0,-254.0,-44.0,0
398,14.0,-253.0,-52.0,0
399,13.0,-255.0,-48.0,0
400,13.0,-255.0,-50.0,0
401,11.0,-253.0,-50.0,0
402,11.0,-253.0,-49.0,0
403,11.0,-250.0,-50.0,0
404,10.0,-254.0,-48.0,0
405,10.0,-254.0,-47.0,0
406,11.0,-254.0,-51.0,0
407,12.0,-253.0,-53.0,0
408,11.0,-250.0,-45.0,0
409,10.0,-255.0,-47.0,0
410,12.0,-257.0,-46.0,0
411,12.0,-253.0,-50.0,0
412,12.0,-254.0,-50.0,0
413,10.0,-255.0,-47.0,0
414,10.0,-255.0,-50.0,0
415,10.0,-254.0,-48.0,0
416,10.0,-256.0,-50.0,0
417,10.0,-253.0,-46.0,0
418,11.0,-254.0,-45.0,0
419,11.0,-256.0,-46.0,0
420,10.0,-255.0,-48.0,0
421,13.0,-255.0,-45.0,0
422,10.0,-256.0,-47.0,0
423,9.0,-255.0,-46.0,0
424,10.0,-255.0,-48.0,0
425,10.0,-257.0,-45.0,0
426,11.0,-255.0,-43.0,0
427,10.0,-253.0,-49.0,0
428,6.0,-255.0,-52.0,0
429,8.0,-253.0,-49.0,0
430,8.0,-255.0,-48.0,0
431,10.0,-257.0,-47.0,0
432,11.0,-256.0,-49.0,0
433,10.0,-256.0,-44.0,0
434,11.0,-256.0,-47.0,0
435,11.0,-251.0,-45.0,0
436,9.0,-255.0,-45.0,0
437,8.0,-251.0,-43.0,0
438,11.0,-252.0,-46.0,0
439,14.0,-254.0,-45.0,0
440,11.0,-251.0,-44.0,0
441,12.0,-250.0,-44.0,0
442,13.0,-253.0,-41.0,0
443,13.0,-252.0,-43.0,0
444,10.0,-251.0,-44.0,0
445,12.0,-251.0,-47.0,0
446,14.0,-250.0,-47.0,0
447,16.0,-248.0,-48.0,0
448,15.0,-248.0,-50.0,0
449,13.0,-250.0,-49.0,0
450,15.0,-249.0,-48.0,0
451,14.0,-252.0,-45.0,0
452,15.0,-252.0,-49.0,0
453,13.0,-253.0,-44.0,0
454,14.0,-250.0,-46.0,0
455,12.0,-250.0,-45.0,0
456,14.0,-250.0,-48.0,0
457,11.0,-252.0,-44.0,0
458,15.0,-251.0,-41.0,0
459,10.0,-252.0,-45.0,0
460,9.0,-253.0,-49.0,0
461,12.0,-253.0,-45.0,0
462,9.0,-253.0,-45.0,0
463,6.0,-253.0,-49.0,0
464,8.0,-253.0,-47.0,0
465,10.0,-250.0,-48.0,0
466,8.0,-252.0,-47.0,0
467,8.0,-249.0,-46.0,0
468,9.0,-254.0,-42.0,0
469,8.0,-254.0,-47.0,0
470,9.0,-254.0,-43.0,0
471,9.0,-255.0,-46.0,0
472,9.0,-255.0,-44.0,0
473,8.0,-252.0,-46.0,0
474,12.0,-251.0,-49.0,0
475,9.0,-249.0,-48.0,0
476,13.0,-252.0,-50.0,0
477,13.0,-253.0,-50.0,0
478,13.0,-251.0,-48.0,0
479,9.0,-252.0,-42.0,0
480,10.0,-255.0,-43.0,0
481,12.0,-254.0,-45.0,0
482,15.0,-256.0,-44.0,0
483,12.0,-256.0,-42.0,0
484,16.0,-257.0,-40.0,0
485,14.0,-253.0,-44.0,0
486,16.0,-249.0,-49.0,0
487,13.0,-250.0,-43.0,0
488,12.0,-249.0,-46.0,0
489,12.0,-248.0,-46.0,0
490,12.0,-252.0,-47.0,0
491,13.0,-252.0,-46.0,0
492,10.0,-253.0,-48.0,0
493,10.0,-253.0,-46.0,0
494,11.0,-253.0,-48.0,0
495,8.0,-253.0,-51.0,0
496,6.0,-253.0,-51.0,0
497,7.0,-253.0,-46.0,0
498,6.0,-254.0,-46.0,0
499,10.0,-253.0,-46.0,0
500,11.0,-256.0,-41.0,0
501,11.0,-254.0,-43.0,0
502,8.0,-252.0,-43.0,0
503,10.0,-250.0,-44.0,0
504,10.0,-251.0,-50.0,0
505,12.0,-251.0,-50.0,0
506,11.0,-250.0,-48.0,0
507,10.0,-249.0,-48.0,0
508,12.0,-249.0,-49.0,0
509,12.0,-248.0,-49.0,0
510,10.0,-246.0,-53.0,0
511,9.0,-246.0,-53.0,0
512,9.0,-246.0,-55.0,0
513,11.0,-249.0,-52.0,0
514,11.0,-247.0,-54.0,0
515,11.0,-253.0,-54.0,0
516,14.0,-249.0,-53.0,0
517,12.0,-252.0,-53.0,0
518,13.0,-253.0,-52.0,0
519,11.0,-252.0,-56.0,0
520,11.0,-252.0,-52.0,0
521,11.0,-250.0,-56.0,0
522,10.0,-253.0,-56.0,0
523,8.0,-251.0,-55.0,0
524,5.0,-247.0,-56.0,0
525,12.0,-243.0,-52.0,0
526,12.0,-246.0,-54.0,0
527,9.0,-244.0,-50.0,0
528,10.0,-247.0,-52.0,0
529,8.0,-243.0,-55.0,0
530,11.0,-243.0,-55.0,0
531,9.0,-239.0,-57.0,0
532,9.0,-241.0,-56.0,0
533,12.0,-245.0,-55.0,0
534,8.0,-239.0,-55.0,0
535,9.0,-239.0,-52.0,0
536,12.0,-237.0,-56.0,0
537,10.0,-236.0,-56.0,0
538,9.0,-237.0,-51.0,0
539,8.0,-236.0,-55.0,0
540,11.0,-239.0,-58.0,0
541,8.0,-234.0,-54.0,0
542,7.0,-238.0,-56.0,0
543,8.0,-241.0,-55.0,0
544,6.0,-241.0,-55.0,0
545,9.0,-238.0,-55.0,0
546,5.0,-241.0,-54.0,0
547,5.0,-243.0,-52.0,0
548,7.0,-240.0,-55.0,0
549,7.0,-240.0,-54.0,0
550,7.0,-243.0,-53.0,0
551,9.0,-239.0,-54.0,0
552,8.0,-238.0,-58.0,0
553,10.0,-242.0,-54.0,0
554,10.0,-237.0,-55.0,0
555,12.0,-239.0,-57.0,0
556,13.0,-244.0,-51.0,0
557,13.0,-240.0,-54.0,0
558,10.0,-242.0,-54.0,0
559,6.0,-243.0,-55.0,0
560,11.0,-244.0,-54.0,0
561,13.0,-246.0,-55.0,0
562,12.0,-246.0,-60.0,0
563,14.0,-244.0,-61.0,0
564,9.0,-244.0,-66.0,0
565,4.0,-240.0,-60.0,0
566,4.0,-242.0,-63.0,0
567,1.0,-244.0,-60.0,0
568,-2.0,-243.0,-59.0,0
569,-2.0,-245.0,-56.0,0
570,0.0,-247.0,-56.0,0
571,-2.0,-245.0,-57.0,0
572,0.0,-245.0,-64.0,0
573,2.0,-243.0,-62.0,0
574,5.0,-243.0,-63.0,0
575,7.0,-243.0,-60.0,0
576,6.0,-243.0,-62.0,0
577,6.0,-238.0,-60.0,0
578,6.0,-237.0,-65.0,0
579,4.0,-234.0,-61.0,0
580,1.0,-232.0,-65.0,0
581,-3.0,-234.0,-64.0,0
582,-1.0,-234.0,-66.0,0
583,0.0,-231.0,-65.0,0
584,-4.0,-232.0,-62.0,0
585,-4.0,-231.0,-65.0,0
586,-2.0,-237.0,-67.0,0
587,-1.0,-234.0,-67.0,0
588,-4.0,-234.0,-70.0,0
589,-4.0,-236.0,-68.0,0
590,-7.0,-235.0,-68.0,0
591,-5.0,-235.0,-64.0,0
592,-5.0,-235.0,-66.0,0
593,-7.0,-237.0,-62.0,0
594,-6.0,-239.0,-62.0,0
595,-3.0,-239.0,-63.0,0
596,3.0,-242.0,-67.0,0
597,5.0,-237.0,-74.0,0
598,3.0,-231.0,-71.0,0
599,5.0,-232.0,-75.0,0
600,3.0,-228.0,-74.0,0
601,2.0,-232.0,-74.0,0
602,4.0,-226.0,-78.0,0
603,3.0,-223.0,-75.0,0
604,1.0,-223.0,-74.0,0
605,-1.0,-221.0,-69.0,0
606,1.0,-224.0,-66.0,0
607,-2.0,-223.0,-67.0,0
608,-2.0,-220.0,-66.0,0
609,-2.0,-219.0,-63.0,0
610,-3.0,-222.0,-63.0,0
611,-5.0,-218.0,-64.0,0
612,-9.0,-221.0,-67.0,0
613,-7.0,-219.0,-69.0,0
614,-7.0,-220.0,-71.0,0
615,-9.0,-222.0,-78.0,0
616,-6.0,-224.0,-78.0,0
617,-4.0,-220.0,-84.0,0
618,-5.0,-217.0,-85.0,0
619,-5.0,-211.0,-85.0,0
620,-2.0,-213.0,-85.0,0
621,-4.0,-213.0,-84.0,0
622,-2.0,-211.0,-87.0,0
623,-4.0,-207.0,-89.0,0
624,-2.0,-210.0,-93.0,0
625,-5.0,-212.0,-92.0,0
626,-5.0,-213.0,-94.0,0
627,-7.0,-213.0,-99.0,0
628,-6.0,-214.0,-99.0,0
629,-4.0,-215.0,-96.0,0
630,-1.0,-213.0,-93.0,0
631,0.0,-217.0,-87.0,0
632,3.0,-224.0,-87.0,0
633,3.0,-218.0,-85.0,0
634,6.0,-222.0,-82.0,0
635,6.0,-223.0,-82.0,0
636,4.0,-223.0,-81.0,0
637,4.0,-220.0,-85.0,0
638,3.0,-222.0,-80.0,0
639,-3.0,-223.0,-82.0,0
640,-3.0,-222.0,-79.0,0
641,-3.0,-227.0,-78.0,0
642,-9.0,-226.0,-77.0,0
643,-7.0,-227.0,-82.0,0
644,-9.0,-226.0,-81.0,0
645,-8.0,-226.0,-81.0,0
646,-9.0,-228.0,-80.0,0
647,-10.0,-226.0,-84.0,0
648,-12.0,-222.0,-84.0,0
649,-10.0,-222.0,-83.0,0
650,-9.0,-226.0,-86.0,0
651,-11.0,-221.0,-85.0,0
652,-7.0,-221.0,-90.0,0
653,-7.0,-224.0,-90.0,0
654,-9.0,-226.0,-91.0,0
655,-8.0,-225.0,-91.0,0
656,-9.0,-231.0,-94.0,0
657,-5.0,-230.0,-104.0,0
658,-9.0,-230.0,-102.0,0
659,-9.0,-229.0,-105.0,0
660,-7.0,-233.0,-106.0,0
661,-9.0,-228.0,-110.0,0
662,-5.0,-229.0,-116.0,0
663,-2.0,-229.0,-111.0,0
664,2.0,-231.0,-115.0,0
665,7.0,-228.0,-117.0,0
666,14.0,-227.0,-116.0,0
667,17.0,-227.0,-115.0,0
668,17.0,-221.0,-111.0,0
669,15.0,-221.0,-109.0,0
670,17.0,-224.0,-112.0,0
671,14.0,-224.0,-107.0,0
672,10.0,-223.0,-110.0,0
673,9.0,-226.0,-112.0,0
674,9.0,-229.0,-108.0,0
675,6.0,-232.0,-114.0,0
676,4.0,-232.0,-109.0,0
677,5.0,-231.0,-105.0,0
678,-2.0,-232.0,-108.0,0
679,-6.0,-233.0,-107.0,0
680,-10.0,-231.0,-112.0,0
681,-9.0,-234.0,-108.0,0
682,-12.0,-229.0,-110.0,0
683,-12.0,-232.0,-108.0,0
684,-12.0,-233.0,-112.0,0
685,-12.0,-232.0,-105.0,0
686,-12.0,-233.0,-103.0,0
687,-12.0,-235.0,-103.0,0
688,-10.0,-237.0,-107.0,0
689,-10.0,-236.0,-108.0,0
690,-7.0,-235.0,-109.0,0
691,-5.0,-231.0,-109.0,0
692,-3.0,-225.0,-103.0,0
693,0.0,-216.0,-107.0,0
694,2.0,-217.0,-105.0,0
695,4.0,-211.0,-111.0,0
696,4.0,-212.0,-111.0,0
697,7.0,-212.0,-111.0,0
698,8.0,-212.0,-114.0,0
699,9.0,-212.0,-115.0,0
700,13.0,-214.0,-119.0,0
701,15.0,-215.0,-118.0,0
702,19.0,-217.0,-115.0,0
703,25.0,-220.0,-112.0,0
704,26.0,-222.0,-106.0,0
705,22.0,-224.0,-108.0,0
706,25.0,-224.0,-103.0,0
707,23.0,-221.0,-104.0,0
708,23.0,-219.0,-103.0,0
709,23.0,-221.0,-106.0,0
710,17.0,-217.0,-111.0,0
711,10.0,-216.0,-114.0,0
712,11.0,-217.0,-114.0,0
713,7.0,-218.0,-119.0,0
714,-2.0,-216.0,-117.0,0
715,-5.0,-214.0,-120.0,0
716,-5.0,-218.0,-121.0,0
717,-9.0,-217.0,-120.0,0
718,-8.0,-220.0,-117.0,0
719,-4.0,-223.0,-115.0,0
720,-3.0,-217.0,-114.0,0
721,4.0,-220.0,-110.0,0
722,10.0,-217.0,-110.0,0
723,13.0,-214.0,-105.0,0
724,20.0,-210.0,-104.0,0
725,23.0,-208.0,-107.0,0
726,24.0,-210.0,-104.0,0
727,21.0,-210.0,-108.0,0
728,25.0,-214.0,-108.0,0
729,22.0,-214.0,-104.0,0
730,23.0,-220.0,-107.0,0
731,18.0,-223.0,-105.0,0
732,12.0,-230.0,-104.0,0
733,7.0,-234.0,-104.0,0
734,9.0,-236.0,-106.0,0
735,3.0,-240.0,-102.0,0
736,1.0,-244.0,-102.0,0
737,-1.0,-242.0,-100.0,0
738,2.0,-246.0,-106.0,0
739,3.0,-249.0,-107.0,0
740,-1.0,-243.0,-104.0,0
741,5.0,-249.0,-101.0,0
742,5.0,-236.0,-110.0,0
743,8.0,-233.0,-112.0,0
744,1.0,-227.0,-117.0,0
745,-3.0,-228.0,-117.0,0
746,2.0,-230.0,-121.0,0
747,4.0,-229.0,-117.0,0
748,2.0,-230.0,-119.0,0
749,3.0,-234.0,-116.0,0
750,1.0,-233.0,-116.0,0
751,-2.0,-231.0,-115.0,0
752,0.0,-239.0,-112.0,0
753,-3.0,-239.0,-111.0,0
754,-4.0,-238.0,-107.0,0
755,-4.0,-236.0,-105.0,0
756,-7.0,-228.0,-105.0,0
757,-4.0,-230.0,-107.0,0
758,-5.0,-224.0,-110.0,0
759,6.0,-226.0,-112.0,0
760,4.0,-223.0,-109.0,0
761,8.0,-227.0,-114.0,0
762,8.0,-229.0,-115.0,0
763,12.0,-232.0,-119.0,0
764,13.0,-239.0,-108.0,0
765,7.0,-243.0,-109.0,0
766,1.0,-244.0,-108.0,0
767,1.0,-248.0,-107.0,0
768,3.0,-253.0,-106.0,0
769,1.0,-253.0,-104.0,0
770,2.0,-256.0,-110.0,0
771,2.0,-256.0,-104.0,0
772,3.0,-261.0,-101.0,0
773,4.0,-260.0,-99.0,0
774,2.0,-260.0,-100.0,0
775,3.0,-255.0,-97.0,0
776,9.0,-255.0,-104.0,0
777,5.0,-254.0,-103.0,0
778,3.0,-248.0,-104.0,0
779,5.0,-245.0,-103.0,0
780,7.0,-245.0,-102.0,0
781,4.0,-244.0,-100.0,0
782,-4.0,-243.0,-97.0,0
783,-6.0,-244.0,-93.0,0
784,-10.0,-249.0,-87.0,0
785,-9.0,-246.0,-85.0,0
786,-12.0,-249.0,-89.0,0
787,-8.0,-249.0,-80.0,0
788,-5.0,-244.0,-85.0,0
789,-9.0,-247.0,-88.0,0
790,-5.0,-237.0,-84.0,0
791,-1.0,-241.0,-85.0,0
792,6.0,-240.0,-83.0,0
793,12.0,-235.0,-85.0,0
794,14.0,-238.0,-83.0,0
795,16.0,-240.0,-83.0,0
796,13.0,-239.0,-80.0,0
797,5.0,-247.0,-78.0,0
798,-3.0,-250.0,-75.0,0
799,-9.0,-255.0,-79.0,0
800,-12.0,-263.0,-78.0,0
801,-16.0,-265.0,-75.0,0
802,-16.0,-271.0,-77.0,0
803,-18.0,-271.0,-79.0,0
804,-17.0,-268.0,-79.0,0
805,-21.0,-270.0,-84.0,0
806,-15.0,-269.0,-85.0,0
807,-11.0,-267.0,-82.0,0
808,-7.0,-270.0,-83.0,0
809,3.0,-268.0,-80.0,0
810,5.0,-276.0,-80.0,0
811,12.0,-276.0,-81.0,0
812,16.0,-278.0,-80.0,0
813,12.0,-279.0,-77.0,0
814,16.0,-279.0,-79.0,0
815,14.0,-277.0,-78.0,0
816,6.0,-276.0,-76.0,0
817,7.0,-278.0,-75.0,0
818,2.0,-277.0,-85.0,0
819,-2.0,-273.0,-82.0,0
820,-3.0,-274.0,-84.0,0
821,-7.0,-271.0,-84.0,0
822,-11.0,-271.0,-78.0,0
823,-12.0,-272.0,-83.0,0
824,-12.0,-274.0,-82.0,0
825,-11.0,-276.0,-83.0,0
826,-8.0,-276.0,-81.0,0
827,-11.0,-277.0,-82.0,0
828,-8.0,-282.0,-82.0,0
829,-4.0,-280.0,-80.0,0
830,-2.0,-277.0,-82.0,0
831,0.0,-278.0,-80.0,0
832,6.0,-277.0,-80.0,0
833,12.0,-275.0,-76.0,0
834,7.0,-276.0,-71.0,0
835,7.0,-271.0,-61.0,0
836,3.0,-269.0,-61.0,0
837,-1.0,-269.0,-68.0,0
838,-5.0,-267.0,-68.0,0
839,-8.0,-266.0,-67.0,0
840,-7.0,-262.0,-64.0,0
841,-14.0,-266.0,-63.0,0
842,-12.0,-263.0,-63.0,0
843,-13.0,-261.0,-59.0,0
844,-12.0,-266.0,-60.0,0
845,-12.0,-265.0,-56.0,0
846,-7.0,-264.0,-55.0,0
847,-1.0,-264.0,-53.0,0
848,1.0,-262.0,-51.0,0
849,5.0,-263.0,-49.0,0
850,9.0,-260.0,-44.0,0
851,9.0,-267.0,-42.0,0
852,10.0,-264.0,-45.0,0
853,6.0,-261.0,-41.0,0
854,5.0,-266.0,-48.0,0
855,1.0,-265.0,-43.0,0
856,-7.0,-267.0,-43.0,0
857,-11.0,-268.0,-37.0,0
858,-12.0,-267.0,-26.0,0
859,-12.0,-267.0,-35.0,0
860,-9.0,-267.0,-31.0,0
861,-9.0,-269.0,-23.0,0
862,-5.0,-264.0,-19.0,0
863,-7.0,-263.0,-24.0,0
864,1.0,-262.0,-19.0,0
865,8.0,-266.0,-14.0,0
866,11.0,-265.0,-17.0,0
867,11.0,-265.0,-18.0,0
868,12.0,-264.0,-21.0,0
869,12.0,-261.0,-20.0,0
870,7.0,-262.0,-25.0,0
871,7.0,-260.0,-26.0,0
872,1.0,-259.0,-24.0,0
873,-3.0,-260.0,-20.0,0
874,-6.0,-259.0,-20.0,0
875,-10.0,-257.0,-25.0,0
876,-9.0,-254.0,-28.0,0
877,-3.0,-253.0,-29.0,0
878,2.0,-252.0,-29.0,0
879,6.0,-252.0,-28.0,0
880,9.0,-244.0,-28.0,0
881,13.0,-250.0,-25.0,0
882,20.0,-256.0,-24.0,0
883,22.0,-256.0,-24.0,0
884,23.0,-259.0,-18.0,0
885,28.0,-264.0,-17.0,0
886,28.0,-268.0,-17.0,0
887,22.0,-268.0,-15.0,0
888,19.0,-273.0,-14.0,0
889,18.0,-274.0,-16.0,0
890,12.0,-280.0,-16.0,0
891,7.0,-283.0,-17.0,0
892,10.0,-286.0,-25.0,0
893,3.0,-288.0,-18.0,0
894,2.0,-293.0,-24.0,0
895,-1.0,-297.0,-28.0,0
896,3.0,-301.0,-27.0,0
897,5.0,-304.0,-25.0,0
898,4.0,-301.0,-28.0,0
899,5.0,-308.0,-27.0,0
900,9.0,-303.0,-26.0,0
901,11.0,-305.0,-28.0,0
902,14.0,-305.0,-24.0,0
903,11.0,-302.0,-24.0,0
904,12.0,-305.0,-22.0,0
905,9.0,-301.0,-23.0,0
906,12.0,-302.0,-25.0,0
907,15.0,-301.0,-22.0,0
908,14.0,-300.0,-24.0,0
909,17.0,-300.0,-22.0,0
910,17.0,-306.0,-21.0,0
911,13.0,-306.0,-23.0,0
912,11.0,-311.0,-17.0,0
913,12.0,-311.0,-17.0,0
914,11.0,-312.0,-18.0,0
915,8.0,-313.0,-15.0,0
916,10.0,-312.0,-15.0,0
917,14.0,-312.0,-17.0,0
918,12.0,-308.0,-19.0,0
919,11.0,-309.0,-18.0,0
920,9.0,-307.0,-19.0,0
921,3.0,-307.0,-15.0,0
922,5.0,-303.0,-12.0,0
923,9.0,-300.0,-10.0,0
924,11.0,-299.0,-15.0,0
925,7.0,-295.0,-15.0,0
926,6.0,-290.0,-14.0,0
927,9.0,-289.0,-12.0,0
928,12.0,-285.0,-15.0,0
929,13.0,-284.0,-14.0,0
930,12.0,-278.0,-14.0,0
931,10.0,-274.0,-14.0,0
932,11.0,-271.0,-16.0,0
933,10.0,-268.0,-12.0,0
934,4.0,-264.0,-14.0,0
935,2.0,-256.0,-10.0,0
936,1.0,-252.0,-12.0,0
937,-1.0,-245.0,-16.0,0
938,0.0,-245.0,-17.0,0
939,3.0,-244.0,-15.0,0
940,-1.0,-239.0,-18.0,0
941,-3.0,-242.0,-22.0,0
942,-2.0,-238.0,-18.0,0
943,0.0,-239.0,-21.0,0
944,3.0,-242.0,-18.0,0
945,5.0,-239.0,-22.0,0
946,6.0,-236.0,-17.0,0
947,7.0,-233.0,-16.0,0
948,6.0,-231.0,-17.0,0
949,2.0,-235.0,-22.0,0
950,2.0,-231.0,-20.0,0
951,3.0,-239.0,-19.0,0
952,5.0,-235.0,-25.0,0
953,3.0,-233.0,-25.0,0
954,2.0,-231.0,-25.0,0
955,1.0,-229.0,-29.0,0
956,-1.0,-227.0,-29.0,0
957,-3.0,-222.0,-31.0,0
958,-4.0,-221.0,-33.0,0
959,-2.0,-222.0,-29.0,0
960,-2.0,-218.0,-27.0,0
961,-2.0,-220.0,-30.0,0
962,-5.0,-220.0,-27.0,0
963,-6.0,-222.0,-30.0,0
964,-6.0,-221.0,-27.0,0
965,-1.0,-227.0,-27.0,0
966,-3.0,-225.0,-25.0,0
967,-3.0,-223.0,-23.0,0
968,1.0,-225.0,-24.0,0
969,5.0,-228.0,-22.0,0
970,0.0,-222.0,-25.0,0
971,1.0,-225.0,-22.0,0
972,1.0,-224.0,-24.0,0
973,2.0,-229.0,-26.0,0
974,3.0,-228.0,-21.0,0
975,4.0,-229.0,-24.0,0
976,4.0,-226.0,-29.0,0
977,6.0,-229.0,-32.0,0
978,6.0,-230.0,-28.0,0
979,8.0,-230.0,-25.0,0
980,9.0,-236.0,-24.0,0
981,8.0,-234.0,-22.0,0
982,8.0,-237.0,-25.0,0
983,6.0,-240.0,-23.0,0
984,9.0,-244.0,-20.0,0
985,7.0,-247.0,-19.0,0
986,6.0,-253.0,-21.0,0
987,7.0,-255.0,-23.0,0
988,3.0,-256.0,-25.0,0
989,7.0,-258.0,-22.0,0
990,2.0,-260.0,-26.0,0
991,0.0,-260.0,-25.0,0
992,-3.0,-260.0,-31.0,0
993,-2.0,-261.0,-26.0,0
994,-1.0,-267.0,-24.0,0
995,-4.0,-266.0,-28.0,0
996,-2.0,-268.0,-29.0,0
997,-4.0,-269.0,-30.0,0
998,-4.0,-271.0,-31.0,0
999,-2.0,-266.0,-31.0,0
1000,0.0,-272.0,-31.0,0
1001,-4.0,-272.0,-35.0,0
1002,-2.0,-278.0,-36.0,0
1003,-3.0,-281.0,-35.0,0
1004,-1.0,-287.0,-38.0,0
1005,1.0,-287.0,-34.0,0
1006,4.0,-291.0,-35.0,0
1007,2.0,-289.0,-36.0,0
1008,8.0,-292.0,-35.0,0
1009,3.0,-291.0,-37.0,0
1010,4.0,-288.0,-36.0,0
1011,6.0,-288.0,-38.0,0
1012,0.0,-285.0,-36.0,0
1013,1.0,-285.0,-37.0,0
1014,3.0,-283.0,-36.0,0
1015,4.0,-277.0,-37.0,0
1016,4.0,-280.0,-38.0,0
1017,3.0,-278.0,-40.0,0
1018,2.0,-275.0,-41.0,0
1019,4.0,-277.0,-34.0,0
1020,4.0,-276.0,-40.0,0
1021,6.0,-273.0,-39.0,0
1022,6.0,-270.0,-34.0,0
1023,8.0,-270.0,-41.0,0
1024,7.0,-264.0,-40.0,0
1025,9.0,-264.0,-38.0,0
1026,9.0,-259.0,-37.0,0
1027,10.0,-260.0,-37.0,0
1028,8.0,-260.0,-35.0,0
1029,10.0,-260.0,-40.0,0
1030,8.0,-260.0,-35.0,0
1031,10.0,-257.0,-34.0,0
1032,6.0,-257.0,-32.0,0
1033,8.0,-256.0,-27.0,0
1034,6.0,-254.0,-30.0,0
1035,4.0,-257.0,-29.0,0
1036,3.0,-251.0,-28.0,0
1037,7.0,-254.0,-29.0,0
1038,3.0,-249.0,-31.0,0
1039,3.0,-249.0,-29.0,0
1040,3.0,-247.0,-29.0,0
1041,3.0,-242.0,-28.0,0
1042,2.0,-244.0,-29.0,0
1043,3.0,-244.0,-28.0,0
1044,7.0,-241.0,-23.0,0
1045,8.0,-238.0,-28.0,0
1046,8.0,-238.0,-27.0,0
1047,10.0,-237.0,-27.0,0
1048,14.0,-240.0,-28.0,0
1049,9.0,-234.0,-29.0,0
1050,7.0,-231.0,-30.0,0
1051,10.0,-234.0,-29.0,0
1052,4.0,-233.0,-28.0,0
1053,6.0,-231.0,-31.0,0
1054,5.0,-231.0,-29.0,0
1055,6.0,-231.0,-30.0,0
1056,5.0,-232.0,-29.0,0
1057,5.0,-231.0,-30.0,0
1058,7.0,-228.0,-27.0,0
1059,13.0,-234.0,-25.0,0
1060,12.0,-235.0,-32.0,0
1061,12.0,-235.0,-30.0,0
1062,13.0,-237.0,-33.0,0
1063,11.0,-236.0,-29.0,0
1064,18.0,-243.0,-28.0,0
1065,12.0,-243.0,-29.0,0
1066,11.0,-248.0,-25.0,0
1067,5.0,-251.0,-28.0,0
1068,5.0,-251.0,-25.0,0
1069,3.0,-251.0,-29.0,0
1070,0.0,-250.0,-29.0,0
1071,-2.0,-254.0,-28.0,0
1072,-2.0,-253.0,-31.0,0
1073,5.0,-256.0,-36.0,0
1074,-2.0,-258.0,-31.0,0
1075,2.0,-256.0,-36.0,0
1076,5.0,-255.0,-34.0,0
1077,4.0,-256.0,-36.0,0
1078,7.0,-255.0,-35.0,0
1079,8.0,-254.0,-38.0,0
1080,9.0,-254.0,-37.0,0
1081,10.0,-257.0,-37.0,0
1082,8.0,-259.0,-35.0,0
1083,7.0,-256.0,-35.0,0
1084,6.0,-256.0,-32.0,0
1085,4.0,-257.0,-30.0,0
1086,1.0,-258.0,-31.0,0
1087,3.0,-258.0,-33.0,0
1088,1.0,-263.0,-32.0,0
1089,-1.0,-260.0,-32.0,0
1090,0.0,-260.0,-29.0,0
1091,0.0,-260.0,-29.0,0
1092,5.0,-263.0,-34.0,0
1093,2.0,-261.0,-31.0,0
1094,-1.0,-263.0,-34.0,0
1095,-1.0,-264.0,-33.0,0
1096,2.0,-265.0,-34.0,0
1097,-9.0,-271.0,-35.0,0
1098,6.0,-267.0,-34.0,0
1099,7.0,-270.0,-36.0,0
1100,9.0,-270.0,-35.0,0
1101,11.0,-269.0,-36.0,0
1102,11.0,-268.0,-33.0,0
1103,12.0,-268.0,-31.0,0
1104,13.0,-269.0,-33.0,0
1105,9.0,-264.0,-34.0,0
1106,9.0,-263.0,-34.0,0
1107,8.0,-263.0,-34.0,0
1108,8.0,-260.0,-30.0,0
1109,4.0,-260.0,-31.0,0
1110,5.0,-261.0,-31.0,0
1111,3.0,-260.0,-31.0,0
1112,8.0,-263.0,-32.0,0
1113,7.0,-259.0,-31.0,0
1114,5.0,-259.0,-32.0,0
1115,10.0,-261.0,-30.0,0
1116,8.0,-259.0,-28.0,0
1117,12.0,-259.0,-32.0,0
1118,11.0,-258.0,-30.0,0
1119,9.0,-255.0,-32.0,0
1120,8.0,-253.0,-33.0,0
1121,10.0,-253.0,-31.0,0
1122,13.0,-251.0,-30.0,0
1123,14.0,-255.0,-28.0,0
1124,9.0,-253.0,-29.0,0
1125,8.0,-251.0,-27.0,0
1126,11.0,-251.0,-24.0,0
1127,11.0,-251.0,-25.0,0
1128,9.0,-249.0,-25.0,0
1129,10.0,-250.0,-25.0,0
1130,11.0,-250.0,-26.0,0
1131,8.0,-245.0,-26.0,0
1132,12.0,-248.0,-22.0,0
1133,12.0,-244.0,-19.0,0
1134,13.0,-244.0,-25.0,0
1135,12.0,-244.0,-21.0,0
1136,13.0,-243.0,-23.0,0
1137,10.0,-241.0,-22.0,0
1138,11.0,-244.0,-22.0,0
1139,11.0,-244.0,-20.0,0
1140,12.0,-246.0,-26.0,0
1141,10.0,-244.0,-27.0,0
1142,12.0,-246.0,-25.0,0
1143,10.0,-247.0,-26.0,0
1144,9.0,-245.0,-22.0,0
1145,6.0,-244.0,-26.0,0
1146,6.0,-246.0,-25.0,0
1147,7.0,-250.0,-25.0,0
1148,9.0,-250.0,-32.0,0
1149,11.0,-253.0,-26.0,0
1150,14.0,-252.0,-29.0,0
1151,17.0,-253.0,-28.0,0
1152,16.0,-254.0,-28.0,0
1153,14.0,-254.0,-33.0,0
1154,15.0,-255.0,-33.0,0
1155,14.0,-255.0,-36.0,0
1156,12.0,-255.0,-33.0,0
1157,14.0,-256.0,-31.0,0
1158,15.0,-258.0,-30.0,0
1159,13.0,-257.0,-34.0,0
1160,8.0,-255.0,-31.0,0
1161,9.0,-254.0,-33.0,0
1162,7.0,-255.0,-34.0,0
1163,10.0,-252.0,-35.0,0
1164,7.0,-249.0,-31.0,0
1165,7.0,-252.0,-35.0,0
1166,9.0,-254.0,-30.0,0
1167,9.0,-253.0,-33.0,0
1168,10.0,-255.0,-31.0,0
1169,9.0,-257.0,-33.0,0
1170,8.0,-257.0,-40.0,0
1171,7.0,-256.0,-36.0,0
1172,7.0,-254.0,-35.0,0
1173,4.0,-258.0,-38.0,0
1174,3.0,-260.0,-39.0,0
1175,6.0,-259.0,-36.0,0
1176,5.0,-259.0,-36.0,0
1177,4.0,-257.0,-36.0,0
1178,5.0,-258.0,-34.0,0
1179,5.0,-255.0,-37.0,0
1180,9.0,-258.0,-36.0,0
1181,10.0,-259.0,-41.0,0
1182,12.0,-260.0,-32.0,0
1183,9.0,-259.0,-35.0,0
1184,10.0,-259.0,-35.0,0
1185,11.0,-260.0,-39.0,0
1186,12.0,-261.0,-34.0,0
1187,12.0,-262.0,-37.0,0
1188,10.0,-261.0,-34.0,0
1189,12.0,-260.0,-36.0,0
1190,12.0,-263.0,-35.0,0
1191,10.0,-259.0,-33.0,0
1192,11.0,-260.0,-34.0,0
1193,8.0,-259.0,-38.0,0
1194,6.0,-254.0,-37.0,0
1195,9.0,-255.0,-34.0,0
1196,9.0,-254.0,-36.0,0
1197,9.0,-255.0,-39.0,0
1198,14.0,-253.0,-41.0,0
1199,11.0,-256.0,-37.0,0
1200,13.0,-255.0,-33.0,0
1201,12.0,-255.0,-36.0,0
1202,14.0,-258.0,-33.0,0
1203,12.0,-260.0,-40.0,0
1204,9.0,-257.0,-38.0,0
1205,8.0,-258.0,-43.0,0
1206,9.0,-260.0,-42.0,0
1207,7.0,-259.0,-39.0,0
1208,12.0,-258.0,-44.0,0
1209,9.0,-255.0,-45.0,0
1210,10.0,-255.0,-42.0,0
1211,8.0,-251.0,-46.0,0
1212,7.0,-251.0,-47.0,0
1213,6.0,-248.0,-46.0,0
1214,5.0,-246.0,-45.0,0
1215,9.0,-250.0,-46.0,0
1216,11.0,-247.0,-46.0,0
1217,9.0,-246.0,-43.0,0
1218,8.0,-246.0,-46.0,0
1219,5.0,-244.0,-49.0,0
1220,9.0,-246.0,-47.0,0
1221,8.0,-243.0,-43.0,0
1222,9.0,-248.0,-44.0,0
1223,8.0,-244.0,-46.0,0
1224,6.0,-243.0,-45.0,0
1225,7.0,-244.0,-48.0,0
1226,6.0,-244.0,-45.0,0
1227,6.0,-243.0,-40.0,0
1228,4.0,-248.0,-41.0,0
1229,5.0,-244.0,-37.0,0
1230,6.0,-245.0,-39.0,0
1231,8.0,-247.0,-37.0,0
1232,8.0,-246.0,-41.0,0
1233,5.0,-248.0,-35.0,0
1234,6.0,-250.0,-30.0,0
1235,8.0,-252.0,-33.0,0
1236,11.0,-255.0,-31.0,0
1237,5.0,-253.0,-32.0,0
1238,8.0,-259.0,-30.0,0
1239,8.0,-259.0,-27.0,0
1240,9.0,-258.0,-28.0,0
1241,10.0,-260.0,-26.0,0
1242,8.0,-262.0,-32.0,0
1243,8.0,-262.0,-31.0,0
1244,7.0,-260.0,-34.0,0
1245,8.0,-259.0,-32.0,0
1246,8.0,-255.0,-34.0,0
1247,7.0,-255.0,-39.0,0
1248,6.0,-254.0,-39.0,0
1249,3.0,-252.0,-34.0,0
1250,6.0,-253.0,-36.0,0
1251,7.0,-250.0,-38.0,0
1252,9.0,-251.0,-37.0,0
1253,7.0,-255.0,-36.0,0
1254,11.0,-256.0,-36.0,0
1255,12.0,-257.0,-41.0,0
1256,11.0,-256.0,-39.0,0
1257,13.0,-260.0,-40.0,0
1258,14.0,-261.0,-41.0,0
1259,13.0,-260.0,-40.0,0
1260,11.0,-262.0,-43.0,0
1261,10.0,-260.0,-37.0,0
1262,11.0,-260.0,-42.0,0
1263,6.0,-259.0,-40.0,0
1264,10.0,-259.0,-42.0,0
1265,8.0,-261.0,-44.0,0
1266,11.0,-262.0,-42.0,0
1267,9.0,-260.0,-42.0,0
1268,10.0,-260.0,-43.0,0
1269,9.0,-259.0,-41.0,0
1270,10.0,-260.0,-45.0,0
1271,12.0,-259.0,-47.0,0
1272,12.0,-258.0,-48.0,0
1273,11.0,-257.0,-45.0,0
1274,9.0,-260.0,-46.0,0
1275,12.0,-260.0,-45.0,0
1276,11.0,-255.0,-45.0,0
1277,7.0,-256.0,-47.0,0
1278,7.0,-257.0,-42.0,0
1279,9.0,-255.0,-49.0,0
1280,7.0,-257.0,-43.0,0
1281,7.0,-254.0,-44.0,0
1282,7.0,-253.0,-42.0,0
1283,10.0,-252.0,-43.0,0
1284,11.0,-251.0,-50.0,0
1285,10.0,-251.0,-42.0,0
1286,9.0,-252.0,-47.0,0
1287,11.0,-252.0,-45.0,0
1288,10.0,-255.0,-46.0,0
1289,10.0,-253.0,-40.0,0
1290,9.0,-257.0,-39.0,0
1291,9.0,-255.0,-38.0,0
1292,8.0,-255.0,-39.0,0
1293,9.0,-252.0,-41.0,0
1294,7.0,-249.0,-38.0,0
1295,9.0,-251.0,-41.0,0
1296,7.0,-248.0,-43.0,0
1297,9.0,-249.0,-40.0,0
1298,8.0,-247.0,-39.0,0
1299,9.0,-248.0,-39.0,0
1300,11.0,-248.0,-38.0,0
1301,10.0,-249.0,-41.0,0
1302,9.0,-249.0,-38.0,0
1303,8.0,-246.0,-37.0,0
1304,9.0,-249.0,-36.0,0
1305,9.0,-249.0,-39.0,0
1306,8.0,-253.0,-33.0,0
1307,6.0,-252.0,-35.0,0
1308,9.0,-249.0,-35.0,0
1309,8.0,-252.0,-40.0,0
1310,6.0,-250.0,-36.0,0
1311,3.0,-253.0,-36.0,0
1312,6.0,-250.0,-37.0,0
1313,7.0,-250.0,-34.0,0
1314,8.0,-254.0,-34.0,0
1315,8.0,-253.0,-33.0,0
1316,8.0,-253.0,-40.0,0
1317,7.0,-251.0,-39.0,0
1318,6.0,-249.0,-39.0,0
1319,10.0,-251.0,-41.0,0
1320,9.0,-251.0,-37.0,0
1321,8.0,-254.0,-34.0,0
1322,7.0,-251.0,-39.0,0
1323,8.0,-254.0,-40.0,0
1324,8.0,-254.0,-34.0,0
1325,8.0,-257.0,-38.0,0
1326,8.0,-256.0,-34.0,0
1327,7.0,-256.0,-33.0,0
1328,5.0,-259.0,-38.0,0
1329,4.0,-256.0,-36.0,0
1330,6.0,-259.0,-37.0,0
1331,5.0,-256.0,-38.0,0
1332,6.0,-254.0,-40.0,0
1333,8.0,-256.0,-37.0,0
1334,9.0,-254.0,-39.0,0
1335,8.0,-254.0,-43.0,0
1336,9.0,-257.0,-40.0,0
1337,7.0,-254.0,-42.0,0
1338,7.0,-256.0,-41.0,0
1339,5.0,-259.0,-38.0,0
1340,6.0,-257.0,-39.0,0
1341,7.0,-256.0,-42.0,0
1342,4.0,-258.0,-39.0,0
1343,7.0,-258.0,-41.0,0
1344,6.0,-257.0,-40.0,0
1345,5.0,-256.0,-42.0,0
1346,7.0,-259.0,-42.0,0
1347,9.0,-258.0,-44.0,0
1348,5.0,-257.0,-41.0,0
1349,8.0,-256.0,-41.0,0
1350,9.0,-257.0,-40.0,0
1351,6.0,-256.0,-41.0,0
1352,8.0,-256.0,-43.0,0
1353,9.0,-254.0,-43.0,0
1354,12.0,-257.0,-37.0,0
1355,9.0,-256.0,-43.0,0
1356,7.0,-257.0,-41.0,0
1357,10.0,-257.0,-39.0,0
1358,9.0,-255.0,-39.0,0
1359,9.0,-256.0,-40.0,0
1360,7.0,-253.0,-40.0,0
1361,5.0,-256.0,-36.0,0
1362,6.0,-253.0,-34.0,0
1363,6.0,-253.0,-41.0,0
1364,5.0,-253.0,-39.0,0
1365,7.0,-254.0,-36.0,0
1366,6.0,-252.0,-31.0,0
1367,8.0,-250.0,-37.0,0
1368,10.0,-253.0,-38.0,0
1369,5.0,-251.0,-41.0,0
1370,9.0,-250.0,-38.0,0
1371,10.0,-251.0,-36.0,0
1372,8.0,-252.0,-41.0,0
1373,6.0,-251.0,-37.0,0
1374,5.0,-251.0,-37.0,0
1375,6.0,-248.0,-31.0,0
1376,8.0,-251.0,-38.0,0
1377,5.0,-252.0,-36.0,0
1378,3.0,-253.0,-33.0,0
1379,3.0,-251.0,-33.0,0
1380,7.0,-251.0,-34.0,0
1381,3.0,-251.0,-37.0,0
1382,5.0,-250.0,-30.0,0
1383,9.0,-253.0,-33.0,0
1384,7.0,-250.0,-37.0,0
1385,6.0,-252.0,-34.0,0
1386,6.0,-248.0,-35.0,0
1387,6.0,-252.0,-34.0,0
1388,7.0,-253.0,-37.0,0
1389,3.0,-253.0,-33.0,0
1390,7.0,-254.0,-35.0,0
1391,4.0,-254.0,-35.0,0
1392,4.0,-254.0,-35.0,0
1393,4.0,-255.0,-32.0,0
1394,3.0,-256.0,-35.0,0
1395,4.0,-255.0,-34.0,0
1396,8.0,-253.0,-36.0,0
1397,5.0,-257.0,-34.0,0
1398,6.0,-256.0,-35.0,0
1399,3.0,-251.0,-34.0,0
1400,4.0,-252.0,-39.0,0
1401,3.0,-248.0,-38.0,0
1402,2.0,-250.0,-41.0,0
1403,3.0,-249.0,-37.0,0
1404,2.0,-249.0,-37.0,0
1405,3.0,-252.0,-34.0,0
1406,1.0,-252.0,-35.0,0
1407,7.0,-249.0,-30.0,0
1408,5.0,-253.0,-28.0,0
1409,5.0,-252.0,-35.0,0
1410,6.0,-254.0,-29.0,0
1411,3.0,-256.0,-31.0,0
1412,4.0,-257.0,-30.0,0
1413,6.0,-257.0,-31.0,0
1414,4.0,-257.0,-32.0,0
1415,3.0,-257.0,-31.0,0
1416,4.0,-255.0,-31.0,0
1417,7.0,-255.0,-32.0,0
1418,7.0,-256.0,-29.0,0
1419,6.0,-254.0,-33.0,0
1420,5.0,-251.0,-35.0,0
1421,5.0,-250.0,-34.0,0
1422,5.0,-253.0,-33.0,0
1423,9.0,-254.0,-33.0,0
1424,6.0,-253.0,-32.0,0
1425,5.0,-254.0,-33.0,0
1426,5.0,-255.0,-33.0,0
1427,9.0,-257.0,-31.0,0
1428,7.0,-257.0,-34.0,0
1429,3.0,-259.0,-36.0,0
1430,2.0,-257.0,-35.0,0
1431,3.0,-259.0,-37.0,0
1432,2.0,-258.0,-32.0,0
1433,2.0,-256.0,-30.0,0
1434,2.0,-257.0,-29.0,0
1435,0.0,-256.0,-32.0,0
1436,1.0,-256.0,-27.0,0
1437,2.0,-255.0,-32.0,0
1438,4.0,-256.0,-32.0,0
1439,2.0,-255.0,-32.0,0
1440,4.0,-254.0,-32.0,0
1441,2.0,-252.0,-32.0,0
1442,7.0,-253.0,-29.0,0
1443,5.0,-253.0,-33.0,0
1444,4.0,-254.0,-34.0,0
1445,5.0,-255.0,-32.0,0
1446,7.0,-258.0,-31.0,0
1447,6.0,-258.0,-32.0,0
1448,4.0,-255.0,-33.0,0
1449,6.0,-258.0,-30.0,0
1450,4.0,-257.0,-32.0,0
1451,5.0,-258.0,-30.0,0
1452,6.0,-259.0,-32.0,0
1453,5.0,-259.0,-33.0,0
1454,-2.0,-269.0,-46.0,0
1455,5.0,-258.0,-30.0,0
1456,5.0,-260.0,-28.0,0
1457,0.0,-258.0,-27.0,0
1458,6.0,-258.0,-26.0,0
1459,2.0,-257.0,-26.0,0
1460,4.0,-258.0,-29.0,0
1461,4.0,-257.0,-31.0,0
1462,8.0,-257.0,-33.0,0
1463,6.0,-256.0,-28.0,0
1464,5.0,-256.0,-28.0,0
1465,4.0,-252.0,-32.0,0
1466,5.0,-254.0,-34.0,0
1467,3.0,-255.0,-33.0,0
1468,3.0,-257.0,-33.0,0
1469,0.0,-257.0,-32.0,0
1470,6.0,-257.0,-32.0,0
1471,4.0,-254.0,-33.0,0
1472,5.0,-252.0,-28.0,0
1473,3.0,-250.0,-30.0,0
1474,7.0,-254.0,-30.0,0
1475,5.0,-252.0,-32.0,0
1476,7.0,-252.0,-29.0,0
1477,6.0,-251.0,-29.0,0
1478,9.0,-256.0,-28.0,0
1479,6.0,-256.0,-28.0,0
1480,4.0,-255.0,-27.0,0
1481,4.0,-254.0,-33.0,0
1482,2.0,-254.0,-29.0,0
1483,0.0,-257.0,-31.0,0
1484,1.0,-253.0,-31.0,0
1485,3.0,-256.0,-28.0,0
1486,4.0,-253.0,-27.0,0
1487,7.0,-254.0,-31.0,0
1488,6.0,-252.0,-31.0,0
1489,5.0,-253.0,-30.0,0
1490,5.0,-252.0,-30.0,0
1491,6.0,-255.0,-29.0,0
1492,3.0,-253.0,-33.0,0
1493,5.0,-253.0,-31.0,0
1494,6.0,-254.0,-31.0,0
1495,7.0,-253.0,-33.0,0
1496,5.0,-253.0,-33.0,0
1497,5.0,-253.0,-31.0,0
1498,8.0,-255.0,-28.0,0
1499,6.0,-255.0,-30.0,0
1500,8.0,-257.0,-31.0,0
1501,5.0,-257.0,-27.0,0
1502,5.0,-259.0,-31.0,0
1503,4.0,-259.0,-33.0,0
1504,5.0,-260.0,-34.0,0
1505,5.0,-263.0,-30.0,0
1506,3.0,-261.0,-31.0,0
1507,2.0,-262.0,-32.0,0
1508,2.0,-260.0,-33.0,0
1509,3.0,-264.0,-31.0,0
1510,3.0,-263.0,-36.0,0
1511,5.0,-265.0,-34.0,0
1512,6.0,-265.0,-38.0,0
1513,5.0,-270.0,-41.0,0
1514,5.0,-274.0,-42.0,0
1515,7.0,-279.0,-43.0,0
1516,8.0,-283.0,-40.0,0
1517,4.0,-283.0,-38.0,0
1518,6.0,-288.0,-45.0,0
1519,5.0,-292.0,-43.0,0
1520,2.0,-294.0,-45.0,0
1521,0.0,-297.0,-48.0,0
1522,-3.0,-302.0,-49.0,0
1523,-4.0,-305.0,-48.0,0
1524,-2.0,-308.0,-53.0,0
1525,3.0,-307.0,-53.0,0
1526,8.0,-313.0,-54.0,0
1527,6.0,-314.0,-52.0,0
1528,5.0,-316.0,-55.0,0
1529,7.0,-321.0,-57.0,0
1530,4.0,-317.0,-54.0,0
1531,3.0,-319.0,-56.0,0
1532,0.0,-317.0,-57.0,0
1533,0.0,-320.0,-55.0,0
1534,-1.0,-323.0,-58.0,0
1535,1.0,-319.0,-55.0,0
1536,3.0,-319.0,-55.0,0
1537,4.0,-318.0,-57.0,0
1538,8.0,-321.0,-58.0,0
1539,9.0,-320.0,-56.0,0
1540,8.0,-318.0,-60.0,0
1541,10.0,-318.0,-56.0,0
1542,7.0,-318.0,-57.0,0
1543,3.0,-318.0,-60.0,0
1544,-1.0,-315.0,-59.0,0
1545,-2.0,-316.0,-56.0,0
1546,-2.0,-316.0,-63.0,0
1547,-4.0,-312.0,-65.0,0
1548,-6.0,-311.0,-63.0,0
1549,-2.0,-307.0,-63.0,0
1550,-3.0,-304.0,-65.0,0
1551,1.0,-301.0,-68.0,0
1552,1.0,-294.0,-61.0,0
1553,2.0,-292.0,-66.0,0
1554,6.0,-288.0,-62.0,0
1555,5.0,-282.0,-67.0,0
1556,8.0,-282.0,-64.0,0
1557,6.0,-279.0,-62.0,0
1558,5.0,-279.0,-67.0,0
1559,7.0,-281.0,-57.0,0
1560,2.0,-275.0,-67.0,0
1561,3.0,-271.0,-65.0,0
1562,2.0,-270.0,-65.0,0
1563,-3.0,-268.0,-67.0,0
1564,-1.0,-262.0,-66.0,0
1565,-6.0,-260.0,-60.0,0
1566,-3.0,-258.0,-60.0,0
1567,-9.0,-254.0,-56.0,0
1568,-9.0,-254.0,-53.0,0
1569,-10.0,-248.0,-54.0,0
1570,-15.0,-247.0,-51.0,0
1571,-8.0,-241.0,-48.0,0
1572,-9.0,-237.0,-51.0,0
1573,-13.0,-226.0,-54.0,0
1574,-11.0,-226.0,-55.0,0
1575,-11.0,-220.0,-54.0,0
1576,-12.0,-216.0,-53.0,0
1577,-11.0,-216.0,-54.0,0
1578,-7.0,-217.0,-55.0,0
1579,-7.0,-215.0,-56.0,0
1580,-6.0,-218.0,-58.0,0
1581,-3.0,-218.0,-60.0,0
1582,-5.0,-219.0,-62.0,0
1583,-1.0,-224.0,-64.0,0
1584,-4.0,-225.0,-68.0,0
1585,-2.0,-224.0,-74.0,0
1586,0.0,-229.0,-71.0,0
1587,0.0,-232.0,-75.0,0
1588,3.0,-236.0,-79.0,0
1589,0.0,-240.0,-80.0,0
1590,1.0,-244.0,-77.0,0
1591,-1.0,-248.0,-81.0,0
1592,0.0,-253.0,-86.0,0
1593,-3.0,-252.0,-84.0,0
1594,-6.0,-251.0,-91.0,0
1595,2.0,-252.0,-97.0,0
1596,0.0,-248.0,-99.0,0
1597,-1.0,-252.0,-99.0,0
1598,-4.0,-252.0,-105.0,0
1599,-7.0,-251.0,-105.0,0
1600,-11.0,-254.0,-104.0,0
1601,-8.0,-253.0,-104.0,0
1602,-11.0,-253.0,-101.0,0
1603,-9.0,-255.0,-105.0,0
1604,-5.0,-255.0,-107.0,0
1605,-9.0,-254.0,-98.0,0
1606,-4.0,-255.0,-100.0,0
1607,-5.0,-258.0,-102.0,0
1608,-3.0,-260.0,-99.0,0
1609,-4.0,-259.0,-102.0,0
1610,-2.0,-261.0,-102.0,0
1611,-2.0,-268.0,-105.0,0
1612,-3.0,-265.0,-100.0,0
1613,-4.0,-261.0,-112.0,0
1614,-1.0,-264.0,-104.0,0
1615,-2.0,-262.0,-106.0,0
1616,-1.0,-258.0,-110.0,0
1617,0.0,-256.0,-110.0,0
1618,-1.0,-260.0,-110.0,0
1619,-3.0,-258.0,-110.0,0
1620,-4.0,-258.0,-110.0,0
1621,-4.0,-262.0,-111.0,0
1622,-3.0,-262.0,-110.0,0
1623,-2.0,-264.0,-109.0,0
1624,-4.0,-260.0,-109.0,0
1625,-3.0,-257.0,-105.0,0
1626,-1.0,-256.0,-108.0,0
1627,-1.0,-253.0,-104.0,0
1628,1.0,-252.0,-109.0,0
1629,-1.0,-249.0,-108.0,0
1630,-4.0,-249.0,-111.0,0
1631,-5.0,-247.0,-105.0,0
1632,-7.0,-249.0,-109.0,0
1633,-9.0,-244.0,-114.0,0
1634,-11.0,-244.0,-113.0,0
1635,-10.0,-238.0,-117.0,0
1636,-7.0,-242.0,-120.0,0
1637,-4.0,-234.0,-116.0,0
1638,0.0,-241.0,-119.0,0
1639,-5.0,-237.0,-116.0,0
1640,1.0,-238.0,-117.0,0
1641,-2.0,-234.0,-119.0,0
1642,-2.0,-238.0,-117.0,0
1643,-2.0,-241.0,-112.0,0
1644,-2.0,-243.0,-113.0,0
1645,-4.0,-247.0,-112.0,0
1646,-2.0,-244.0,-112.0,0
1647,-4.0,-245.0,-114.0,0
1648,-3.0,-244.0,-116.0,0
1649,-5.0,-244.0,-118.0,0
1650,-5.0,-242.0,-118.0,0
1651,-10.0,-240.0,-119.0,0
1652,-7.0,-240.0,-119.0,0
1653,-8.0,-238.0,-117.0,0
1654,-6.0,-241.0,-118.0,0
1655,-7.0,-239.0,-119.0,0
1656,-7.0,-237.0,-119.0,0
1657,-4.0,-236.0,-116.0,0
1658,-6.0,-233.0,-115.0,0
1659,0.0,-233.0,-115.0,0
1660,-2.0,-231.0,-111.0,0
1661,-2.0,-227.0,-112.0,0
1662,0.0,-224.0,-110.0,0
1663,2.0,-223.0,-108.0,0
1664,3.0,-223.0,-115.0,0
1665,5.0,-221.0,-113.0,0
1666,2.0,-220.0,-110.0,0
1667,-1.0,-222.0,-111.0,0
1668,-6.0,-224.0,-113.0,0
1669,-3.0,-223.0,-116.0,0
1670,-8.0,-223.0,-117.0,0
1671,-7.0,-225.0,-112.0,0
1672,-10.0,-225.0,-117.0,0
1673,-8.0,-230.0,-114.0,0
1674,-11.0,-230.0,-115.0,0
1675,-10.0,-230.0,-112.0,0
1676,-12.0,-231.0,-111.0,0
1677,-15.0,-230.0,-111.0,0
1678,-12.0,-230.0,-114.0,0
1679,-10.0,-230.0,-117.0,0
1680,-11.0,-227.0,-116.0,0
1681,-12.0,-228.0,-118.0,0
1682,-9.0,-226.0,-117.0,0
1683,-10.0,-226.0,-119.0,0
1684,-8.0,-230.0,-120.0,0
1685,-7.0,-229.0,-115.0,0
1686,-5.0,-232.0,-119.0,0
1687,-1.0,-235.0,-113.0,0
1688,0.0,-235.0,-117.0,0
1689,2.0,-240.0,-115.0,0
1690,1.0,-240.0,-115.0,0
1691,2.0,-241.0,-111.0,0
1692,0.0,-242.0,-114.0,0
1693,-3.0,-245.0,-111.0,0
1694,-8.0,-248.0,-110.0,0
1695,-8.0,-246.0,-115.0,0
1696,-10.0,-246.0,-111.0,0
1697,-11.0,-243.0,-110.0,0
1698,-11.0,-243.0,-112.0,0
1699,-12.0,-242.0,-109.0,0
1700,-10.0,-242.0,-117.0,0
1701,-11.0,-240.0,-110.0,0
1702,-10.0,-237.0,-113.0,0
1703,-11.0,-232.0,-117.0,0
1704,-10.0,-234.0,-114.0,0
1705,-9.0,-232.0,-115.0,0
1706,-4.0,-230.0,-112.0,0
1707,1.0,-228.0,-115.0,0
1708,3.0,-227.0,-118.0,0
1709,4.0,-225.0,-118.0,0
1710,2.0,-225.0,-114.0,0
1711,3.0,-222.0,-115.0,0
1712,1.0,-222.0,-118.0,0
1713,1.0,-221.0,-116.0,0
1714,1.0,-225.0,-112.0,0
1715,4.0,-224.0,-109.0,0
1716,5.0,-223.0,-103.0,0
1717,1.0,-228.0,-105.0,0
1718,0.0,-224.0,-108.0,0
1719,1.0,-228.0,-106.0,0
1720,-3.0,-229.0,-101.0,0
1721,-2.0,-231.0,-101.0,0
1722,-9.0,-231.0,-98.0,0
1723,-10.0,-235.0,-97.0,0
1724,-5.0,-236.0,-93.0,0
1725,-5.0,-238.0,-95.0,0
1726,-6.0,-236.0,-89.0,0
1727,-1.0,-236.0,-94.0,0
1728,0.0,-232.0,-96.0,0
1729,-3.0,-232.0,-94.0,0
1730,-1.0,-227.0,-95.0,0
1731,-4.0,-223.0,-98.0,0
1732,-1.0,-222.0,-96.0,0
1733,-2.0,-216.0,-92.0,0
1734,-3.0,-214.0,-93.0,0
1735,-1.0,-215.0,-95.0,0
1736,-2.0,-211.0,-94.0,0
1737,-2.0,-211.0,-92.0,0
1738,2.0,-212.0,-89.0,0
1739,1.0,-213.0,-88.0,0
1740,3.0,-211.0,-84.0,0
1741,3.0,-211.0,-82.0,0
1742,4.0,-212.0,-86.0,0
1743,2.0,-211.0,-83.0,0
1744,3.0,-213.0,-87.0,0
1745,0.0,-214.0,-88.0,0
1746,-3.0,-214.0,-88.0,0
1747,-6.0,-215.0,-86.0,0
1748,-8.0,-214.0,-84.0,0
1749,-5.0,-217.0,-84.0,0
1750,-8.0,-217.0,-76.0,0
1751,-6.0,-221.0,-70.0,0
1752,-2.0,-224.0,-73.0,0
1753,-2.0,-223.0,-66.0,0
1754,-4.0,-226.0,-72.0,0
1755,-6.0,-226.0,-75.0,0
1756,1.0,-227.0,-69.0,0
1757,5.0,-235.0,-70.0,0
1758,7.0,-231.0,-75.0,0
1759,5.0,-234.0,-79.0,0
1760,8.0,-232.0,-86.0,0
1761,7.0,-228.0,-86.0,0
1762,9.0,-227.0,-86.0,0
1763,13.0,-221.0,-87.0,0
1764,15.0,-224.0,-84.0,0
1765,17.0,-220.0,-78.0,0
1766,16.0,-220.0,-74.0,0
1767,11.0,-221.0,-70.0,0
1768,10.0,-224.0,-68.0,0
1769,10.0,-224.0,-61.0,0
1770,7.0,-227.0,-62.0,0
1771,7.0,-233.0,-63.0,0
1772,0.0,-233.0,-69.0,0
1773,0.0,-239.0,-69.0,0
1774,-2.0,-240.0,-66.0,0
1775,0.0,-243.0,-63.0,0
1776,0.0,-246.0,-67.0,0
1777,-6.0,-242.0,-72.0,0
1778,-3.0,-241.0,-74.0,0
1779,0.0,-244.0,-75.0,0
1780,-1.0,-240.0,-78.0,0
1781,4.0,-237.0,-76.0,0
1782,2.0,-236.0,-72.0,0
1783,8.0,-238.0,-70.0,0
1784,6.0,-238.0,-71.0,0
1785,4.0,-237.0,-61.0,0
1786,9.0,-242.0,-61.0,0
1787,7.0,-238.0,-60.0,0
1788,10.0,-241.0,-63.0,0
1789,9.0,-241.0,-62.0,0
1790,7.0,-242.0,-62.0,0
1791,6.0,-236.0,-63.0,0
1792,4.0,-238.0,-62.0,0
1793,0.0,-236.0,-63.0,0
1794,-4.0,-233.0,-63.0,0
1795,-2.0,-236.0,-65.0,0
1796,-1.0,-232.0,-62.0,0
1797,-4.0,-231.0,-54.0,0
1798,-8.0,-231.0,-55.0,0
1799,-9.0,-228.0,-56.0,0
1800,-7.0,-226.0,-58.0,0
1801,-8.0,-223.0,-56.0,0
1802,-6.0,-220.0,-64.0,0
1803,-2.0,-217.0,-59.0,0
1804,0.0,-211.0,-67.0,0
1805,-2.0,-211.0,-63.0,0
1806,0.0,-210.0,-64.0,0
1807,0.0,-210.0,-63.0,0
1808,1.0,-214.0,-62.0,0
1809,3.0,-215.0,-61.0,0
1810,2.0,-217.0,-63.0,0
1811,3.0,-218.0,-62.0,0
1812,-2.0,-229.0,-68.0,0
1813,-1.0,-220.0,-66.0,0
1814,0.0,-221.0,-66.0,0
1815,0.0,-221.0,-66.0,0
1816,2.0,-225.0,-64.0,0
1817,3.0,-223.0,-65.0,0
1818,-1.0,-220.0,-64.0,0
1819,-1.0,-218.0,-63.0,0
1820,0.0,-217.0,-64.0,0
1821,2.0,-217.0,-61.0,0
1822,-2.0,-217.0,-63.0,0
1823,0.0,-218.0,-65.0,0
1824,0.0,-221.0,-65.0,0
1825,-3.0,-220.0,-65.0,0
1826,-4.0,-222.0,-65.0,0
1827,-5.0,-225.0,-71.0,0
1828,-2.0,-228.0,-67.0,0
1829,3.0,-230.0,-67.0,0
1830,2.0,-229.0,-67.0,0
1831,4.0,-229.0,-63.0,0
1832,7.0,-229.0,-60.0,0
1833,10.0,-233.0,-63.0,0
1834,4.0,-231.0,-66.0,0
1835,7.0,-231.0,-58.0,0
1836,7.0,-236.0,-60.0,0
1837,9.0,-236.0,-56.0,0
1838,11.0,-237.0,-59.0,0
1839,12.0,-237.0,-62.0,0
1840,13.0,-236.0,-60.0,0
1841,10.0,-238.0,-60.0,0
1842,12.0,-236.0,-58.0,0
1843,13.0,-236.0,-58.0,0
1844,11.0,-232.0,-60.0,0
1845,12.0,-236.0,-58.0,0
1846,12.0,-233.0,-64.0,0
1847,16.0,-233.0,-64.0,0
1848,12.0,-234.0,-61.0,0
1849,16.0,-231.0,-63.0,0
1850,11.0,-232.0,-64.0,0
1851,16.0,-232.0,-65.0,0
1852,12.0,-231.0,-65.0,0
1853,12.0,-231.0,-65.0,0
1854,14.0,-233.0,-63.0,0
1855,15.0,-233.0,-60.0,0
1856,16.0,-236.0,-55.0,0
1857,21.0,-238.0,-54.0,0
1858,25.0,-241.0,-55.0,0
1859,20.0,-244.0,-59.0,0
1860,26.0,-245.0,-65.0,0
1861,29.0,-246.0,-56.0,0
1862,24.0,-246.0,-64.0,0
1863,18.0,-241.0,-54.0,0
1864,16.0,-245.0,-59.0,0
1865,20.0,-242.0,-65.0,0
1866,16.0,-239.0,-63.0,0
1867,11.0,-237.0,-68.0,0
1868,9.0,-235.0,-67.0,0
1869,7.0,-232.0,-78.0,0
1870,12.0,-235.0,-79.0,0
1871,8.0,-238.0,-79.0,0
1872,7.0,-238.0,-77.0,0
1873,9.0,-240.0,-71.0,0
1874,9.0,-242.0,-78.0,0
1875,8.0,-242.0,-76.0,0
1876,5.0,-251.0,-70.0,0
1877,2.0,-250.0,-60.0,0
1878,4.0,-255.0,-57.0,0
1879,7.0,-260.0,-52.0,0
1880,7.0,-263.0,-53.0,0
1881,7.0,-263.0,-51.0,0
1882,7.0,-261.0,-54.0,0
1883,11.0,-258.0,-56.0,0
1884,15.0,-255.0,-59.0,0
1885,13.0,-253.0,-58.0,0
1886,13.0,-250.0,-67.0,0
1887,14.0,-246.0,-64.0,0
1888,18.0,-243.0,-70.0,0
1889,17.0,-242.0,-66.0,0
1890,18.0,-241.0,-66.0,0
1891,18.0,-239.0,-66.0,0
1892,21.0,-241.0,-71.0,0
1893,23.0,-244.0,-71.0,0
1894,24.0,-253.0,-64.0,0
1895,24.0,-254.0,-67.0,0
1896,27.0,-258.0,-67.0,0
1897,26.0,-260.0,-67.0,0
1898,26.0,-261.0,-64.0,0
1899,26.0,-261.0,-64.0,0
1900,29.0,-264.0,-60.0,0
1901,25.0,-262.0,-58.0,0
1902,21.0,-261.0,-55.0,0
1903,21.0,-258.0,-52.0,0
1904,16.0,-259.0,-47.0,0
1905,11.0,-258.0,-51.0,0
1906,7.0,-258.0,-49.0,0
1907,6.0,-257.0,-46.0,0
1908,4.0,-255.0,-49.0,0
1909,-1.0,-252.0,-51.0,0
1910,-5.0,-251.0,-53.0,0
1911,-6.0,-250.0,-51.0,0
1912,-5.0,-249.0,-56.0,0
1913,-6.0,-247.0,-54.0,0
1914,0.0,-247.0,-54.0,0
1915,0.0,-245.0,-55.0,0
1916,-1.0,-248.0,-55.0,0
1917,0.0,-248.0,-52.0,0
1918,4.0,-247.0,-50.0,0
1919,6.0,-244.0,-45.0,0
1920,3.0,-243.0,-47.0,0
1921,5.0,-241.0,-50.0,0
1922,9.0,-247.0,-50.0,0
1923,13.0,-249.0,-49.0,0
1924,13.0,-250.0,-47.0,0
1925,12.0,-254.0,-51.0,0
1926,15.0,-257.0,-52.0,0
1927,10.0,-256.0,-55.0,0
1928,9.0,-257.0,-54.0,0
1929,6.0,-254.0,-52.0,0
1930,8.0,-251.0,-53.0,0
1931,10.0,-254.0,-57.0,0
1932,12.0,-248.0,-58.0,0
1933,14.0,-248.0,-54.0,0
1934,15.0,-246.0,-57.0,0
1935,14.0,-247.0,-57.0,0
1936,16.0,-248.0,-56.0,0
1937,11.0,-249.0,-53.0,0
1938,15.0,-255.0,-50.0,0
1939,13.0,-257.0,-44.0,0
1940,10.0,-255.0,-44.0,0
1941,13.0,-256.0,-46.0,0
1942,13.0,-254.0,-51.0,0
1943,16.0,-255.0,-53.0,0
1944,12.0,-252.0,-52.0,0
1945,14.0,-253.0,-52.0,0
1946,14.0,-252.0,-54.0,0
1947,19.0,-256.0,-54.0,0
1948,18.0,-254.0,-52.0,0
1949,14.0,-257.0,-55.0,0
1950,14.0,-256.0,-50.0,0
1951,13.0,-258.0,-52.0,0
1952,11.0,-256.0,-51.0,0
1953,9.0,-260.0,-47.0,0
1954,8.0,-260.0,-44.0,0
1955,8.0,-260.0,-38.0,0
1956,4.0,-258.0,-43.0,0
1957,8.0,-257.0,-41.0,0
1958,12.0,-253.0,-44.0,0
1959,11.0,-247.0,-45.0,0
1960,16.0,-247.0,-43.0,0
1961,11.0,-245.0,-45.0,0
1962,12.0,-244.0,-48.0,0
1963,12.0,-242.0,-51.0,0
1964,9.0,-245.0,-47.0,0
1965,9.0,-249.0,-44.0,0
1966,13.0,-252.0,-46.0,0
1967,7.0,-254.0,-40.0,0
1968,5.0,-259.0,-37.0,0
1969,5.0,-256.0,-43.0,0
1970,3.0,-260.0,-37.0,0
1971,6.0,-256.0,-36.0,0
1972,5.0,-255.0,-41.0,0
1973,7.0,-253.0,-44.0,0
1974,6.0,-253.0,-45.0,0
1975,7.0,-252.0,-43.0,0
1976,9.0,-254.0,-43.0,0
1977,8.0,-250.0,-49.0,0
1978,7.0,-254.0,-43.0,0
1979,9.0,-255.0,-45.0,0
1980,13.0,-257.0,-42.0,0
1981,13.0,-255.0,-48.0,0
1982,13.0,-254.0,-46.0,0
1983,15.0,-253.0,-44.0,0
1984,14.0,-250.0,-50.0,0
1985,16.0,-247.0,-51.0,0
1986,16.0,-250.0,-51.0,0
1987,15.0,-251.0,-50.0,0
1988,19.0,-250.0,-49.0,0
1989,17.0,-252.0,-48.0,0
1990,15.0,-255.0,-44.0,0
1991,13.0,-258.0,-45.0,0
1992,12.0,-258.0,-46.0,0
1993,12.0,-260.0,-43.0,0
1994,14.0,-259.0,-41.0,0
1995,11.0,-257.0,-39.0,0
1996,7.0,-256.0,-44.0,0
1997,9.0,-252.0,-48.0,0
1998,7.0,-251.0,-46.0,0
1999,7.0,-247.0,-46.0,0
2000,9.0,-246.0,-49.0,0
2001,9.0,-247.0,-44.0,0
2002,7.0,-250.0,-46.0,0
2003,11.0,-249.0,-42.0,0
2004,13.0,-250.0,-44.0,0
2005,12.0,-254.0,-44.0,0
2006,10.0,-254.0,-43.0,0
2007,11.0,-256.0,-41.0,0
2008,11.0,-254.0,-43.0,0
2009,11.0,-254.0,-43.0,0
2010,13.0,-254.0,-43.0,0
2011,12.0,-255.0,-44.0,0
2012,10.0,-252.0,-45.0,0
2013,14.0,-250.0,-46.0,0
2014,16.0,-252.0,-43.0,0
2015,17.0,-252.0,-46.0,0
2016,15.0,-256.0,-43.0,0
2017,13.0,-256.0,-42.0,0
2018,14.0,-256.0,-44.0,0
2019,15.0,-254.0,-42.0,0
2020,14.0,-256.0,-46.0,0
2021,13.0,-254.0,-43.0,0
2022,11.0,-252.0,-39.0,0
2023,13.0,-253.0,-42.0,0
2024,14.0,-253.0,-43.0,0
2025,12.0,-250.0,-45.0,0
2026,13.0,-247.0,-46.0,0
2027,11.0,-247.0,-45.0,0
2028,11.0,-247.0,-43.0,0
2029,13.0,-252.0,-47.0,0
2030,14.0,-254.0,-43.0,0
2031,12.0,-256.0,-39.0,0
2032,14.0,-257.0,-43.0,0
2033,13.0,-257.0,-40.0,0
2034,12.0,-256.0,-43.0,0
2035,11.0,-254.0,-41.0,0
2036,13.0,-256.0,-40.0,0
2037,14.0,-252.0,-48.0,0
2038,12.0,-254.0,-42.0,0
2039,12.0,-255.0,-45.0,0
2040,13.0,-255.0,-37.0,0
2041,15.0,-252.0,-41.0,0
2042,13.0,-254.0,-41.0,0
2043,10.0,-253.0,-40.0,0
2044,14.0,-258.0,-41.0,0
2045,9.0,-255.0,-39.0,0
2046,9.0,-254.0,-41.0,0
2047,11.0,-252.0,-39.0,0
2048,9.0,-252.0,-36.0,0
2049,10.0,-249.0,-46.0,0
2050,10.0,-247.0,-46.0,0
2051,14.0,-251.0,-45.0,0
2052,15.0,-253.0,-44.0,0
2053,11.0,-250.0,-44.0,0
2054,14.0,-252.0,-42.0,0
2055,11.0,-249.0,-43.0,0
2056,14.0,-254.0,-42.0,0
2057,10.0,-255.0,-40.0,0
2058,12.0,-251.0,-38.0,0
2059,10.0,-253.0,-44.0,0
2060,12.0,-254.0,-34.0,0
2061,12.0,-252.0,-39.0,0
2062,12.0,-256.0,-40.0,0
2063,13.0,-251.0,-44.0,0
2064,11.0,-253.0,-46.0,0
2065,15.0,-254.0,-47.0,0
2066,13.0,-253.0,-45.0,0
2067,12.0,-254.0,-41.0,0
2068,12.0,-254.0,-39.0,0
2069,12.0,-254.0,-41.0,0
2070,12.0,-254.0,-42.0,0
2071,12.0,-254.0,-43.0,0
2072,14.0,-255.0,-40.0,0
2073,13.0,-256.0,-47.0,0
2074,11.0,-255.0,-44.0,0
2075,13.0,-252.0,-43.0,0
2076,13.0,-251.0,-42.0,0
2077,12.0,-253.0,-43.0,0
2078,9.0,-255.0,-44.0,0
2079,10.0,-257.0,-45.0,0
2080,12.0,-256.0,-41.0,0
2081,7.0,-252.0,-42.0,0
2082,9.0,-256.0,-39.0,0
2083,8.0,-256.0,-40.0,0
2084,8.0,-256.0,-44.0,0
2085,8.0,-252.0,-40.0,0
2086,8.0,-251.0,-43.0,0
2087,10.0,-251.0,-37.0,0
2088,10.0,-249.0,-46.0,0
2089,10.0,-251.0,-46.0,0
2090,9.0,-253.0,-44.0,0
2091,11.0,-254.0,-46.0,0
2092,13.0,-257.0,-41.0,0
2093,14.0,-257.0,-41.0,0
2094,13.0,-257.0,-40.0,0
2095,13.0,-253.0,-38.0,0
2096,12.0,-255.0,-44.0,0
2097,11.0,-250.0,-39.0,0
2098,11.0,-254.0,-44.0,0
2099,14.0,-255.0,-42.0,0
2100,14.0,-252.0,-47.0,0
2101,13.0,-249.0,-45.0,0
2102,13.0,-248.0,-44.0,0
2103,11.0,-254.0,-46.0,0
2104,14.0,-253.0,-43.0,0
2105,10.0,-253.0,-40.0,0
2106,14.0,-257.0,-38.0,0
2107,13.0,-255.0,-41.0,0
2108,10.0,-253.0,-41.0,0
2109,9.0,-258.0,-35.0,0
2110,9.0,-255.0,-41.0,0
2111,9.0,-255.0,-40.0,0
2112,9.0,-254.0,-47.0,0
2113,9.0,-253.0,-50.0,0
2114,10.0,-252.0,-47.0,0
2115,10.0,-252.0,-46.0,0
2116,11.0,-248.0,-45.0,0
2117,14.0,-254.0,-39.0,0
2118,10.0,-252.0,-42.0,0
2119,12.0,-256.0,-38.0,0
2120,10.0,-257.0,-39.0,0
2121,11.0,-257.0,-43.0,0
2122,7.0,-256.0,-35.0,0
2123,11.0,-256.0,-34.0,0
2124,12.0,-254.0,-39.0,0
2125,14.0,-256.0,-38.0,0
2126,13.0,-255.0,-41.0,0
2127,12.0,-251.0,-42.0,0
2128,11.0,-253.0,-41.0,0
2129,10.0,-248.0,-40.0,0
2130,12.0,-252.0,-48.0,0
2131,9.0,-251.0,-41.0,0
2132,12.0,-252.0,-38.0,0
2133,14.0,-253.0,-37.0,0
2134,14.0,-254.0,-38.0,0
2135,14.0,-258.0,-36.0,0
2136,15.0,-257.0,-37.0,0
2137,11.0,-258.0,-34.0,0
2138,12.0,-255.0,-39.0,0
2139,14.0,-253.0,-36.0,0
2140,16.0,-254.0,-39.0,0
2141,14.0,-254.0,-41.0,0
2142,15.0,-254.0,-44.0,0
2143,13.0,-251.0,-38.0,0
2144,11.0,-254.0,-40.0,0
2145,15.0,-255.0,-40.0,0
2146,13.0,-256.0,-38.0,0
2147,15.0,-254.0,-35.0,0
2148,11.0,-253.0,-37.0,0
2149,15.0,-254.0,-36.0,0
2150,13.0,-253.0,-40.0,0
2151,13.0,-252.0,-39.0,0
2152,12.0,-251.0,-40.0,0
2153,15.0,-253.0,-40.0,0
2154,15.0,-256.0,-38.0,0
2155,12.0,-254.0,-39.0,0
2156,11.0,-251.0,-37.0,0
2157,14.0,-254.0,-40.0,0
2158,13.0,-253.0,-37.0,0
2159,14.0,-254.0,-34.0,0
2160,14.0,-258.0,-40.0,0
2161,13.0,-255.0,-39.0,0
2162,14.0,-253.0,-39.0,0
2163,13.0,-255.0,-33.0,0
2164,9.0,-254.0,-39.0,0
2165,12.0,-254.0,-40.0,0
2166,12.0,-254.0,-38.0,0
2167,13.0,-252.0,-40.0,0
2168,13.0,-253.0,-41.0,0
2169,15.0,-252.0,-41.0,0
2170,15.0,-252.0,-39.0,0
2171,25.0,-247.0,-22.0,0
2172,16.0,-256.0,-41.0,0
2173,13.0,-255.0,-43.0,0
2174,10.0,-255.0,-42.0,0
2175,12.0,-251.0,-38.0,0
2176,10.0,-253.0,-42.0,0
2177,12.0,-256.0,-43.0,0
2178,12.0,-253.0,-41.0,0
2179,11.0,-257.0,-40.0,0
2180,11.0,-252.0,-43.0,0
2181,11.0,-251.0,-41.0,0
2182,14.0,-252.0,-39.0,0
2183,15.0,-251.0,-42.0,0
2184,12.0,-253.0,-42.0,0
2185,16.0,-254.0,-39.0,0
2186,13.0,-251.0,-41.0,0
2187,11.0,-252.0,-35.0,0
2188,14.0,-254.0,-39.0,0
2189,13.0,-255.0,-41.0,0
2190,13.0,-256.0,-39.0,0
2191,11.0,-256.0,-39.0,0
2192,12.0,-252.0,-43.0,0
2193,13.0,-253.0,-36.0,0
2194,14.0,-254.0,-43.0,0
2195,13.0,-255.0,-39.0,0
2196,14.0,-255.0,-42.0,0
2197,12.0,-256.0,-41.0,0
2198,13.0,-256.0,-42.0,0
2199,15.0,-253.0,-43.0,0
2200,12.0,-254.0,-40.0,0
2201,12.0,-256.0,-38.0,0
2202,11.0,-257.0,-38.0,0
2203,9.0,-253.0,-37.0,0
2204,14.0,-250.0,-41.0,0
2205,9.0,-252.0,-43.0,0
2206,10.0,-254.0,-41.0,0
2207,10.0,-253.0,-41.0,0
2208,13.0,-253.0,-45.0,0
2209,12.0,-252.0,-36.0,0
2210,11.0,-251.0,-39.0,0
2211,11.0,-252.0,-40.0,0
2212,9.0,-254.0,-35.0,0
2213,11.0,-251.0,-38.0,0
2214,9.0,-255.0,-35.0,0
2215,12.0,-256.0,-44.0,0
2216,12.0,-253.0,-39.0,0
2217,10.0,-255.0,-38.0,0
2218,12.0,-255.0,-38.0,0
2219,13.0,-256.0,-40.0,0
2220,12.0,-256.0,-37.0,0
2221,10.0,-252.0,-38.0,0
2222,10.0,-253.0,-40.0,0
2223,11.0,-253.0,-43.0,0
2224,13.0,-250.0,-42.0,0
2225,13.0,-251.0,-42.0,0
2226,11.0,-251.0,-45.0,0
2227,10.0,-253.0,-42.0,0
2228,13.0,-254.0,-39.0,0
2229,9.0,-252.0,-43.0,0
2230,9.0,-254.0,-41.0,0
2231,10.0,-255.0,-38.0,0
2232,11.0,-254.0,-43.0,0
2233,11.0,-254.0,-40.0,0
2234,12.0,-256.0,-41.0,0
2235,15.0,-255.0,-43.0,0
2236,14.0,-255.0,-41.0,0
2237,12.0,-255.0,-44.0,0
2238,11.0,-256.0,-43.0,0
2239,10.0,-252.0,-41.0,0
2240,10.0,-256.0,-41.0,0
2241,12.0,-254.0,-39.0,0
2242,12.0,-254.0,-42.0,0
2243,10.0,-256.0,-39.0,0
2244,11.0,-254.0,-37.0,0
2245,11.0,-257.0,-38.0,0
2246,12.0,-255.0,-41.0,0
2247,10.0,-252.0,-42.0,0
2248,14.0,-254.0,-40.0,0
2249,12.0,-250.0,-42.0,0
2250,13.0,-251.0,-46.0,0
2251,13.0,-251.0,-42.0,0
2252,15.0,-252.0,-41.0,0
2253,16.0,-255.0,-41.0,0
2254,13.0,-255.0,-41.0,0
2255,16.0,-258.0,-40.0,0
2256,11.0,-254.0,-43.0,0
2257,13.0,-255.0,-41.0,0
2258,13.0,-256.0,-44.0,0
2259,13.0,-255.0,-37.0,0
2260,11.0,-253.0,-41.0,0
2261,12.0,-256.0,-44.0,0
2262,12.0,-255.0,-41.0,0
2263,12.0,-255.0,-41.0,0
2264,12.0,-257.0,-40.0,0
2265,12.0,-256.0,-40.0,0
2266,12.0,-255.0,-47.0,0
2267,15.0,-254.0,-46.0,0
2268,14.0,-251.0,-46.0,0
2269,14.0,-249.0,-48.0,0
2270,12.0,-253.0,-42.0,0
2271,12.0,-251.0,-42.0,0
2272,12.0,-254.0,-40.0,0
2273,13.0,-255.0,-45.0,0
2274,12.0,-257.0,-40.0,0
2275,13.0,-258.0,-42.0,0
2276,13.0,-258.0,-41.0,0
2277,13.0,-257.0,-42.0,0
2278,14.0,-252.0,-43.0,0
2279,13.0,-252.0,-41.0,0
2280,10.0,-250.0,-41.0,0
2281,14.0,-252.0,-41.0,0
2282,16.0,-253.0,-44.0,0
2283,14.0,-251.0,-42.0,0
2284,14.0,-253.0,-40.0,0
2285,13.0,-254.0,-44.0,0
2286,13.0,-253.0,-45.0,0
2287,14.0,-253.0,-43.0,0
2288,12.0,-254.0,-42.0,0
2289,12.0,-253.0,-41.0,0
2290,12.0,-254.0,-41.0,0
2291,13.0,-257.0,-41.0,0
2292,13.0,-256.0,-39.0,0
2293,13.0,-253.0,-41.0,0
2294,12.0,-258.0,-40.0,0
2295,11.0,-254.0,-44.0,0
2296,11.0,-254.0,-45.0,0
2297,10.0,-255.0,-42.0,0
2298,13.0,-253.0,-41.0,0
2299,12.0,-251.0,-44.0,0
2300,11.0,-251.0,-41.0,0
2301,15.0,-255.0,-43.0,0
2302,14.0,-251.0,-41.0,0
2303,14.0,-252.0,-43.0,0
2304,11.0,-253.0,-42.0,0
2305,12.0,-252.0,-41.0,0
2306,13.0,-251.0,-41.0,0
2307,10.0,-255.0,-40.0,0
2308,12.0,-258.0,-38.0,0
2309,11.0,-259.0,-42.0,0
2310,13.0,-256.0,-42.0,0
2311,13.0,-255.0,-42.0,0
2312,12.0,-254.0,-44.0,0
2313,11.0,-251.0,-43.0,0
2314,10.0,-250.0,-45.0,0
2315,11.0,-251.0,-45.0,0
2316,10.0,-251.0,-45.0,0
2317,9.0,-253.0,-40.0,0
2318,13.0,-255.0,-42.0,0
2319,12.0,-252.0,-40.0,0
2320,13.0,-254.0,-40.0,0
2321,12.0,-253.0,-44.0,0
2322,11.0,-256.0,-42.0,0
2323,14.0,-253.0,-42.0,0
2324,13.0,-255.0,-40.0,0
2325,12.0,-257.0,-37.0,0
2326,11.0,-255.0,-42.0,0
2327,13.0,-256.0,-38.0,0
2328,13.0,-254.0,-42.0,0
2329,12.0,-251.0,-43.0,0
2330,13.0,-255.0,-45.0,0
2331,9.0,-253.0,-43.0,0
2332,11.0,-253.0,-41.0,0
2333,14.0,-255.0,-40.0,0
2334,11.0,-254.0,-44.0,0
2335,12.0,-252.0,-40.0,0
2336,12.0,-253.0,-43.0,0
2337,13.0,-254.0,-45.0,0
2338,12.0,-255.0,-44.0,0
2339,13.0,-254.0,-44.0,0
2340,14.0,-252.0,-43.0,0
2341,14.0,-251.0,-45.0,0
2342,14.0,-251.0,-44.0,0
2343,13.0,-251.0,-43.0,0
2344,15.0,-255.0,-41.0,0
2345,12.0,-252.0,-40.0,0
2346,13.0,-251.0,-45.0,0
2347,13.0,-252.0,-43.0,0
2348,11.0,-253.0,-42.0,0
2349,12.0,-254.0,-40.0,0
2350,11.0,-253.0,-41.0,0
2351,11.0,-254.0,-46.0,0
2352,12.0,-254.0,-45.0,0
2353,14.0,-254.0,-43.0,0
2354,12.0,-252.0,-44.0,0
2355,12.0,-250.0,-43.0,0
2356,12.0,-253.0,-44.0,0
2357,14.0,-254.0,-40.0,0
2358,15.0,-253.0,-43.0,0
2359,14.0,-255.0,-43.0,0
2360,13.0,-254.0,-40.0,0
2361,15.0,-255.0,-44.0,0
2362,15.0,-253.0,-42.0,0
2363,15.0,-255.0,-42.0,0
2364,15.0,-256.0,-39.0,0
2365,12.0,-254.0,-43.0,0
2366,10.0,-251.0,-47.0,0
2367,10.0,-253.0,-43.0,0
2368,13.0,-250.0,-41.0,0
2369,11.0,-251.0,-41.0,0
2370,13.0,-251.0,-43.0,0
2371,13.0,-253.0,-43.0,0
2372,11.0,-255.0,-40.0,0
2373,13.0,-254.0,-41.0,0
2374,10.0,-255.0,-39.0,0
2375,12.0,-257.0,-43.0,0
2376,12.0,-253.0,-43.0,0
2377,12.0,-254.0,-44.0,0
2378,11.0,-255.0,-42.0,0
2379,14.0,-252.0,-42.0,0
2380,12.0,-251.0,-47.0,0
2381,11.0,-254.0,-42.0,0
2382,12.0,-252.0,-45.0,0
2383,12.0,-256.0,-44.0,0
2384,15.0,-252.0,-44.0,0
2385,11.0,-254.0,-43.0,0
2386,9.0,-251.0,-45.0,0
2387,11.0,-254.0,-40.0,0
2388,12.0,-251.0,-41.0,0
2389,13.0,-257.0,-42.0,0
2390,13.0,-254.0,-42.0,0
2391,12.0,-255.0,-44.0,0
2392,12.0,-258.0,-45.0,0
2393,11.0,-253.0,-44.0,0
2394,14.0,-253.0,-42.0,0
2395,12.0,-252.0,-44.0,0
2396,10.0,-251.0,-43.0,0
2397,12.0,-250.0,-45.0,0
2398,11.0,-252.0,-43.0,0
2399,12.0,-249.0,-42.0,0
