,accelerometer_x,accelerometer_y,accelerometer_z,fall
0,7.0,-198.0,126.0,0
1,8.0,-200.0,122.0,0
2,9.0,-199.0,121.0,0
3,8.0,-199.0,125.0,0
4,6.0,-198.0,120.0,0
5,13.0,-198.0,124.0,0
6,4.0,-198.0,123.0,0
7,5.0,-199.0,123.0,0
8,4.0,-199.0,120.0,0
9,4.0,-200.0,118.0,0
10,4.0,-198.0,124.0,0
11,5.0,-202.0,120.0,0
12,2.0,-200.0,121.0,0
13,2.0,-198.0,121.0,0
14,0.0,-203.0,125.0,0
15,3.0,-198.0,122.0,0
16,3.0,-200.0,123.0,0
17,2.0,-199.0,118.0,0
18,5.0,-197.0,122.0,0
19,3.0,-198.0,123.0,0
20,4.0,-195.0,121.0,0
21,6.0,-201.0,116.0,0
22,4.0,-198.0,123.0,0
23,3.0,-198.0,115.0,0
24,7.0,-199.0,121.0,0
25,8.0,-198.0,116.0,0
26,10.0,-201.0,121.0,0
27,4.0,-198.0,126.0,0
28,5.0,-197.0,120.0,0
29,6.0,-198.0,121.0,0
30,4.0,-193.0,119.0,0
31,6.0,-198.0,118.0,0
32,3.0,-199.0,117.0,0
33,5.0,-197.0,120.0,0
34,5.0,-195.0,121.0,0
35,6.0,-196.0,121.0,0
36,1.0,-193.0,117.0,0
37,4.0,-195.0,122.0,0
38,4.0,-196.0,123.0,0
39,4.0,-192.0,118.0,0
40,4.0,-195.0,123.0,0
41,4.0,-197.0,117.0,0
42,4.0,-198.0,118.0,0
43,0.0,-198.0,119.0,0
44,6.0,-198.0,119.0,0
45,5.0,-201.0,122.0,0
46,6.0,-200.0,118.0,0
47,8.0,-194.0,116.0,0
48,4.0,-196.0,120.0,0
49,5.0,-201.0,118.0,0
50,10.0,-202.0,114.0,0
51,7.0,-202.0,121.0,0
52,7.0,-203.0,116.0,0
53,4.0,-202.0,119.0,0
54,5.0,-201.0,117.0,0
55,6.0,-199.0,119.0,0
56,6.0,-200.0,124.0,0
57,2.0,-198.0,120.0,0
58,5.0,-197.0,126.0,0
59,5.0,-198.0,124.0,0
60,6.0,-203.0,124.0,0
61,7.0,-197.0,128.0,0
62,4.0,-197.0,123.0,0
63,7.0,-203.0,122.0,0
64,10.0,-201.0,120.0,0
65,5.0,-195.0,118.0,0
66,10.0,-201.0,119.0,0
67,6.0,-202.0,118.0,0
68,10.0,-201.0,122.0,0
69,10.0,-199.0,125.0,0
70,6.0,-197.0,122.0,0
71,5.0,-199.0,125.0,0
72,4.0,-196.0,124.0,0
73,6.0,-196.0,124.0,0
74,5.0,-196.0,122.0,0
75,4.0,-194.0,125.0,0
76,3.0,-196.0,125.0,0
77,4.0,-196.0,123.0,0
78,4.0,-194.0,121.0,0
79,5.0,-193.0,119.0,0
80,6.0,-195.0,114.0,0
81,3.0,-195.0,118.0,0
82,6.0,-194.0,120.0,0
83,4.0,-194.0,124.0,0
84,3.0,-192.0,119.0,0
85,2.0,-192.0,120.0,0
86,5.0,-191.0,123.0,0
87,5.0,-192.0,118.0,0
88,3.0,-192.0,122.0,0
89,2.0,-192.0,126.0,0
90,5.0,-194.0,126.0,0
91,4.0,-192.0,123.0,0
92,4.0,-192.0,125.0,0
93,5.0,-194.0,127.0,0
94,4.0,-191.0,127.0,0
95,8.0,-196.0,127.0,0
96,5.0,-197.0,124.0,0
97,5.0,-196.0,121.0,0
98,4.0,-194.0,125.0,0
99,3.0,-194.0,127.0,0
100,5.0,-195.0,123.0,0
101,4.0,-199.0,125.0,0
102,6.0,-194.0,127.0,0
103,3.0,-197.0,125.0,0
104,4.0,-202.0,122.0,0
105,5.0,-198.0,125.0,0
106,6.0,-200.0,129.0,0
107,4.0,-197.0,122.0,0
108,2.0,-195.0,126.0,0
109,3.0,-198.0,122.0,0
110,1.0,-197.0,117.0,0
111,0.0,-197.0,123.0,0
112,8.0,-194.0,121.0,0
113,2.0,-196.0,125.0,0
114,3.0,-196.0,118.0,0
115,3.0,-191.0,126.0,0
116,0.0,-195.0,128.0,0
117,3.0,-195.0,123.0,0
118,4.0,-192.0,122.0,0
119,3.0,-193.0,121.0,0
120,1.0,-192.0,119.0,0
121,6.0,-193.0,123.0,0
122,4.0,-194.0,124.0,0
123,4.0,-194.0,121.0,0
124,3.0,-196.0,121.0,0
125,8.0,-199.0,122.0,0
126,5.0,-194.0,121.0,0
127,5.0,-196.0,124.0,0
128,2.0,-196.0,123.0,0
129,4.0,-196.0,121.0,0
130,3.0,-198.0,125.0,0
131,4.0,-198.0,121.0,0
132,3.0,-195.0,121.0,0
133,1.0,-197.0,121.0,0
134,7.0,-198.0,123.0,0
135,0.0,-195.0,121.0,0
136,0.0,-194.0,123.0,0
137,0.0,-197.0,120.0,0
138,1.0,-195.0,119.0,0
139,0.0,-194.0,124.0,0
140,0.0,-193.0,124.0,0
141,2.0,-198.0,121.0,0
142,1.0,-195.0,126.0,0
143,0.0,-197.0,126.0,0
144,1.0,-193.0,123.0,0
145,3.0,-197.0,120.0,0
146,0.0,-194.0,126.0,0
147,0.0,-197.0,126.0,0
148,1.0,-193.0,122.0,0
149,5.0,-195.0,122.0,0
150,4.0,-194.0,125.0,0
151,2.0,-193.0,121.0,0
152,4.0,-197.0,119.0,0
153,3.0,-193.0,119.0,0
154,3.0,-193.0,120.0,0
155,5.0,-197.0,123.0,0
156,5.0,-197.0,121.0,0
157,4.0,-196.0,119.0,0
158,4.0,-195.0,122.0,0
159,5.0,-196.0,126.0,0
160,2.0,-195.0,126.0,0
161,4.0,-196.0,129.0,0
162,4.0,-197.0,120.0,0
163,6.0,-197.0,127.0,0
164,2.0,-195.0,126.0,0
165,4.0,-197.0,123.0,0
166,1.0,-193.0,127.0,0
167,-2.0,-194.0,128.0,0
168,3.0,-195.0,120.0,0
169,4.0,-195.0,126.0,0
170,2.0,-191.0,122.0,0
171,4.0,-194.0,121.0,0
172,3.0,-196.0,124.0,0
173,4.0,-192.0,125.0,0
174,2.0,-194.0,123.0,0
175,1.0,-194.0,132.0,0
176,4.0,-195.0,126.0,0
177,2.0,-189.0,127.0,0
178,7.0,-190.0,116.0,0
179,1.0,-193.0,122.0,0
180,5.0,-195.0,127.0,0
181,5.0,-195.0,124.0,0
182,2.0,-193.0,122.0,0
183,-1.0,-194.0,128.0,0
184,4.0,-193.0,125.0,0
185,3.0,-194.0,124.0,0
186,5.0,-192.0,121.0,0
187,7.0,-195.0,122.0,0
188,3.0,-196.0,123.0,0
189,3.0,-194.0,126.0,0
190,4.0,-191.0,117.0,0
191,6.0,-196.0,121.0,0
192,4.0,-196.0,123.0,0
193,3.0,-194.0,123.0,0
194,5.0,-195.0,124.0,0
195,5.0,-195.0,125.0,0
196,5.0,-196.0,126.0,0
197,0.0,-194.0,122.0,0
198,1.0,-196.0,128.0,0
199,1.0,-195.0,128.0,0
200,4.0,-199.0,123.0,0
201,6.0,-197.0,136.0,0
202,1.0,-195.0,126.0,0
203,3.0,-193.0,126.0,0
204,1.0,-192.0,127.0,0
205,2.0,-191.0,123.0,0
206,4.0,-195.0,126.0,0
207,1.0,-191.0,123.0,0
208,2.0,-193.0,125.0,0
209,0.0,-194.0,131.0,0
210,3.0,-193.0,129.0,0
211,6.0,-189.0,125.0,0
212,-1.0,-193.0,128.0,0
213,6.0,-194.0,129.0,0
214,0.0,-193.0,128.0,0
215,0.0,-194.0,124.0,0
216,-2.0,-195.0,124.0,0
217,2.0,-195.0,125.0,0
218,2.0,-194.0,127.0,0
219,2.0,-196.0,125.0,0
220,1.0,-194.0,123.0,0
221,2.0,-192.0,122.0,0
222,4.0,-193.0,123.0,0
223,4.0,-195.0,123.0,0
224,3.0,-194.0,130.0,0
225,5.0,-195.0,127.0,0
226,4.0,-194.0,124.0,0
227,4.0,-194.0,123.0,0
228,5.0,-198.0,125.0,0
229,5.0,-193.0,122.0,0
230,3.0,-191.0,122.0,0
231,2.0,-192.0,124.0,0
232,3.0,-189.0,124.0,0
233,1.0,-191.0,124.0,0
234,1.0,-195.0,126.0,0
235,1.0,-190.0,122.0,0
236,2.0,-194.0,126.0,0
237,5.0,-194.0,124.0,0
238,4.0,-195.0,122.0,0
239,0.0,-192.0,127.0,0
240,-1.0,-188.0,126.0,0
241,2.0,-193.0,124.0,0
242,0.0,-193.0,125.0,0
243,3.0,-195.0,130.0,0
244,4.0,-195.0,122.0,0
245,2.0,-194.0,129.0,0
246,2.0,-196.0,127.0,0
247,6.0,-196.0,127.0,0
248,4.0,-197.0,129.0,0
249,2.0,-197.0,123.0,0
250,4.0,-198.0,126.0,0
251,3.0,-193.0,126.0,0
252,4.0,-193.0,126.0,0
253,6.0,-193.0,121.0,0
254,2.0,-193.0,125.0,0
255,3.0,-197.0,126.0,0
256,5.0,-193.0,125.0,0
257,4.0,-194.0,126.0,0
258,4.0,-197.0,127.0,0
259,1.0,-192.0,123.0,0
260,4.0,-194.0,125.0,0
261,0.0,-193.0,129.0,0
262,3.0,-194.0,123.0,0
263,2.0,-194.0,126.0,0
264,1.0,-195.0,121.0,0
265,1.0,-191.0,123.0,0
266,6.0,-189.0,133.0,0
267,1.0,-193.0,126.0,0
268,4.0,-192.0,124.0,0
269,2.0,-192.0,125.0,0
270,1.0,-194.0,125.0,0
271,2.0,-192.0,125.0,0
272,3.0,-195.0,128.0,0
273,4.0,-193.0,128.0,0
274,1.0,-192.0,131.0,0
275,4.0,-193.0,130.0,0
276,2.0,-191.0,127.0,0
277,3.0,-194.0,126.0,0
278,4.0,-193.0,127.0,0
279,4.0,-193.0,128.0,0
280,0.0,-191.0,129.0,0
281,3.0,-193.0,130.0,0
282,2.0,-192.0,127.0,0
283,5.0,-194.0,123.0,0
284,3.0,-192.0,125.0,0
285,4.0,-194.0,127.0,0
286,2.0,-195.0,126.0,0
287,3.0,-195.0,128.0,0
288,0.0,-199.0,121.0,0
289,1.0,-195.0,128.0,0
290,2.0,-193.0,123.0,0
291,3.0,-195.0,123.0,0
292,1.0,-194.0,127.0,0
293,5.0,-192.0,125.0,0
294,2.0,-193.0,125.0,0
295,3.0,-192.0,126.0,0
296,3.0,-191.0,122.0,0
297,5.0,-193.0,122.0,0
298,5.0,-194.0,125.0,0
299,7.0,-195.0,128.0,0
300,1.0,-193.0,123.0,0
301,3.0,-193.0,123.0,0
302,5.0,-193.0,124.0,0
303,3.0,-196.0,130.0,0
304,-1.0,-192.0,128.0,0
305,3.0,-193.0,121.0,0
306,2.0,-193.0,126.0,0
307,3.0,-194.0,126.0,0
308,1.0,-194.0,126.0,0
309,4.0,-196.0,129.0,0
310,-3.0,-198.0,123.0,0
311,2.0,-195.0,125.0,0
312,1.0,-193.0,124.0,0
313,2.0,-193.0,124.0,0
314,-1.0,-192.0,126.0,0
315,2.0,-192.0,125.0,0
316,2.0,-195.0,125.0,0
317,4.0,-194.0,125.0,0
318,3.0,-192.0,127.0,0
319,1.0,-195.0,127.0,0
320,5.0,-191.0,126.0,0
321,3.0,-194.0,125.0,0
322,5.0,-194.0,128.0,0
323,2.0,-192.0,125.0,0
324,3.0,-193.0,128.0,0
325,3.0,-194.0,122.0,0
326,-1.0,-193.0,126.0,0
327,4.0,-192.0,127.0,0
328,4.0,-195.0,126.0,0
329,1.0,-191.0,127.0,0
330,5.0,-191.0,125.0,0
331,-6.0,-192.0,125.0,0
332,5.0,-195.0,127.0,0
333,3.0,-193.0,124.0,0
334,7.0,-193.0,128.0,0
335,7.0,-192.0,127.0,0
336,6.0,-192.0,128.0,0
337,3.0,-192.0,123.0,0
338,4.0,-193.0,127.0,0
339,3.0,-192.0,123.0,0
340,4.0,-191.0,125.0,0
341,1.0,-191.0,128.0,0
342,1.0,-190.0,125.0,0
343,-1.0,-190.0,127.0,0
344,0.0,-189.0,124.0,0
345,1.0,-190.0,128.0,0
346,-1.0,-191.0,129.0,0
347,-3.0,-189.0,129.0,0
348,-5.0,-192.0,128.0,0
349,-4.0,-191.0,127.0,0
350,-3.0,-193.0,128.0,0
351,-5.0,-195.0,128.0,0
352,-3.0,-194.0,124.0,0
353,-5.0,-189.0,129.0,0
354,-1.0,-191.0,124.0,0
355,0.0,-192.0,123.0,0
356,3.0,-195.0,127.0,0
357,0.0,-192.0,126.0,0
358,2.0,-194.0,128.0,0
359,4.0,-194.0,125.0,0
360,5.0,-194.0,129.0,0
361,1.0,-194.0,128.0,0
362,5.0,-195.0,125.0,0
363,4.0,-194.0,130.0,0
364,2.0,-196.0,130.0,0
365,5.0,-194.0,133.0,0
366,2.0,-192.0,126.0,0
367,4.0,-191.0,126.0,0
368,5.0,-192.0,124.0,0
369,6.0,-194.0,126.0,0
370,3.0,-195.0,125.0,0
371,4.0,-193.0,123.0,0
372,3.0,-192.0,127.0,0
373,4.0,-193.0,130.0,0
374,6.0,-192.0,127.0,0
375,4.0,-189.0,129.0,0
376,2.0,-190.0,126.0,0
377,2.0,-190.0,126.0,0
378,3.0,-192.0,128.0,0
379,1.0,-192.0,129.0,0
380,0.0,-192.0,127.0,0
381,1.0,-191.0,130.0,0
382,2.0,-190.0,130.0,0
383,1.0,-190.0,129.0,0
384,2.0,-190.0,127.0,0
385,2.0,-190.0,132.0,0
386,0.0,-189.0,128.0,0
387,1.0,-187.0,129.0,0
388,-2.0,-187.0,125.0,0
389,0.0,-191.0,129.0,0
390,1.0,-189.0,128.0,0
391,2.0,-191.0,128.0,0
392,0.0,-189.0,128.0,0
393,-1.0,-187.0,131.0,0
394,0.0,-189.0,128.0,0
395,2.0,-187.0,126.0,0
396,4.0,-194.0,127.0,0
397,-4.0,-189.0,119.0,0
398,1.0,-190.0,128.0,0
399,2.0,-192.0,129.0,0
400,2.0,-190.0,128.0,0
401,6.0,-195.0,127.0,0
402,4.0,-194.0,127.0,0
403,3.0,-192.0,128.0,0
404,5.0,-192.0,126.0,0
405,3.0,-193.0,129.0,0
406,2.0,-192.0,128.0,0
407,5.0,-195.0,128.0,0
408,2.0,-192.0,130.0,0
409,3.0,-194.0,130.0,0
410,3.0,-195.0,126.0,0
411,1.0,-191.0,130.0,0
412,4.0,-193.0,127.0,0
413,3.0,-190.0,130.0,0
414,2.0,-190.0,128.0,0
415,2.0,-189.0,130.0,0
416,5.0,-193.0,126.0,0
417,5.0,-192.0,129.0,0
418,-4.0,-192.0,122.0,0
419,4.0,-190.0,129.0,0
420,6.0,-193.0,124.0,0
421,2.0,-189.0,127.0,0
422,3.0,-193.0,122.0,0
423,6.0,-193.0,123.0,0
424,4.0,-191.0,128.0,0
425,4.0,-192.0,125.0,0
426,6.0,-192.0,128.0,0
427,6.0,-193.0,130.0,0
428,2.0,-191.0,126.0,0
429,7.0,-192.0,127.0,0
430,4.0,-191.0,127.0,0
431,5.0,-192.0,125.0,0
432,3.0,-193.0,131.0,0
433,4.0,-191.0,129.0,0
434,3.0,-192.0,134.0,0
435,2.0,-191.0,131.0,0
436,3.0,-193.0,129.0,0
437,4.0,-191.0,128.0,0
438,5.0,-190.0,130.0,0
439,2.0,-190.0,132.0,0
440,-2.0,-186.0,130.0,0
441,3.0,-189.0,130.0,0
442,5.0,-189.0,128.0,0
443,3.0,-188.0,128.0,0
444,4.0,-189.0,125.0,0
445,6.0,-193.0,126.0,0
446,6.0,-189.0,131.0,0
447,4.0,-191.0,130.0,0
448,4.0,-191.0,126.0,0
449,4.0,-193.0,127.0,0
450,3.0,-189.0,131.0,0
451,1.0,-191.0,130.0,0
452,0.0,-185.0,129.0,0
453,0.0,-189.0,128.0,0
454,1.0,-192.0,128.0,0
455,1.0,-190.0,128.0,0
456,3.0,-189.0,128.0,0
457,3.0,-190.0,132.0,0
458,1.0,-188.0,131.0,0
459,3.0,-190.0,132.0,0
460,5.0,-189.0,127.0,0
461,1.0,-190.0,128.0,0
462,9.0,-192.0,130.0,0
463,5.0,-190.0,128.0,0
464,2.0,-193.0,131.0,0
465,2.0,-191.0,124.0,0
466,2.0,-189.0,127.0,0
467,3.0,-193.0,131.0,0
468,4.0,-194.0,130.0,0
469,2.0,-195.0,130.0,0
470,4.0,-192.0,126.0,0
471,3.0,-195.0,125.0,0
472,5.0,-194.0,125.0,0
473,7.0,-192.0,130.0,0
474,7.0,-195.0,127.0,0
475,7.0,-195.0,127.0,0
476,6.0,-191.0,130.0,0
477,10.0,-193.0,131.0,0
478,6.0,-191.0,130.0,0
479,6.0,-189.0,129.0,0
480,6.0,-192.0,129.0,0
481,4.0,-189.0,132.0,0
482,4.0,-192.0,130.0,0
483,4.0,-188.0,129.0,0
484,10.0,-187.0,125.0,0
485,1.0,-189.0,129.0,0
486,2.0,-189.0,132.0,0
487,4.0,-188.0,126.0,0
488,2.0,-189.0,133.0,0
489,1.0,-188.0,128.0,0
490,4.0,-189.0,130.0,0
491,3.0,-189.0,124.0,0
492,1.0,-190.0,131.0,0
493,3.0,-190.0,128.0,0
494,4.0,-191.0,130.0,0
495,8.0,-192.0,131.0,0
496,5.0,-189.0,130.0,0
497,5.0,-190.0,128.0,0
498,7.0,-191.0,129.0,0
499,3.0,-189.0,130.0,0
500,5.0,-189.0,128.0,0
501,7.0,-187.0,131.0,0
502,6.0,-189.0,131.0,0
503,4.0,-188.0,132.0,0
504,4.0,-188.0,130.0,0
505,4.0,-191.0,130.0,0
506,2.0,-196.0,132.0,0
507,5.0,-189.0,128.0,0
508,2.0,-189.0,128.0,0
509,5.0,-189.0,129.0,0
510,4.0,-191.0,130.0,0
511,2.0,-190.0,129.0,0
512,3.0,-192.0,131.0,0
513,1.0,-189.0,130.0,0
514,5.0,-190.0,131.0,0
515,5.0,-191.0,129.0,0
516,4.0,-191.0,131.0,0
517,5.0,-195.0,129.0,0
518,3.0,-191.0,131.0,0
519,0.0,-191.0,133.0,0
520,2.0,-192.0,131.0,0
521,5.0,-191.0,132.0,0
522,3.0,-192.0,130.0,0
523,2.0,-189.0,129.0,0
524,4.0,-190.0,126.0,0
525,3.0,-191.0,124.0,0
526,3.0,-186.0,126.0,0
527,8.0,-192.0,132.0,0
528,4.0,-190.0,125.0,0
529,7.0,-189.0,128.0,0
530,4.0,-190.0,127.0,0
531,5.0,-190.0,131.0,0
532,8.0,-190.0,129.0,0
533,5.0,-192.0,127.0,0
534,4.0,-191.0,128.0,0
535,7.0,-193.0,131.0,0
536,7.0,-195.0,132.0,0
537,5.0,-192.0,129.0,0
538,7.0,-195.0,129.0,0
539,3.0,-188.0,130.0,0
540,4.0,-193.0,120.0,0
541,3.0,-191.0,131.0,0
542,5.0,-192.0,124.0,0
543,1.0,-192.0,131.0,0
544,4.0,-193.0,129.0,0
545,3.0,-189.0,132.0,0
546,0.0,-190.0,131.0,0
547,4.0,-191.0,135.0,0
548,4.0,-191.0,133.0,0
549,11.0,-191.0,128.0,0
550,1.0,-188.0,130.0,0
551,7.0,-191.0,134.0,0
552,6.0,-190.0,129.0,0
553,5.0,-188.0,131.0,0
554,4.0,-190.0,129.0,0
555,7.0,-189.0,129.0,0
556,6.0,-188.0,129.0,0
557,7.0,-186.0,130.0,0
558,4.0,-188.0,129.0,0
559,7.0,-187.0,126.0,0
560,8.0,-189.0,133.0,0
561,4.0,-189.0,134.0,0
562,4.0,-187.0,132.0,0
563,3.0,-188.0,135.0,0
564,3.0,-187.0,129.0,0
565,3.0,-191.0,131.0,0
566,3.0,-191.0,130.0,0
567,2.0,-189.0,128.0,0
568,0.0,-189.0,131.0,0
569,0.0,-193.0,128.0,0
570,2.0,-192.0,127.0,0
571,-6.0,-200.0,122.0,0
572,1.0,-193.0,126.0,0
573,3.0,-194.0,131.0,0
574,0.0,-191.0,131.0,0
575,0.0,-190.0,131.0,0
576,3.0,-193.0,129.0,0
577,1.0,-192.0,124.0,0
578,3.0,-192.0,128.0,0
579,2.0,-191.0,130.0,0
580,3.0,-192.0,126.0,0
581,3.0,-191.0,130.0,0
582,5.0,-189.0,129.0,0
583,3.0,-190.0,126.0,0
584,6.0,-191.0,131.0,0
585,6.0,-188.0,130.0,0
586,5.0,-191.0,126.0,0
587,1.0,-190.0,126.0,0
588,2.0,-189.0,129.0,0
589,2.0,-187.0,124.0,0
590,-2.0,-187.0,126.0,0
591,0.0,-188.0,129.0,0
592,2.0,-189.0,127.0,0
593,0.0,-194.0,131.0,0
594,1.0,-193.0,127.0,0
595,2.0,-188.0,127.0,0
596,-1.0,-192.0,124.0,0
597,1.0,-193.0,126.0,0
598,6.0,-195.0,128.0,0
599,3.0,-197.0,126.0,0
600,4.0,-200.0,122.0,0
601,3.0,-196.0,124.0,0
602,3.0,-195.0,126.0,0
603,2.0,-193.0,123.0,0
604,3.0,-194.0,123.0,0
605,4.0,-196.0,124.0,0
606,1.0,-193.0,123.0,0
607,2.0,-189.0,125.0,0
608,4.0,-192.0,120.0,0
609,3.0,-191.0,123.0,0
610,2.0,-195.0,125.0,0
611,1.0,-190.0,121.0,0
612,4.0,-193.0,126.0,0
613,2.0,-194.0,128.0,0
614,2.0,-195.0,125.0,0
615,10.0,-194.0,132.0,0
616,3.0,-192.0,122.0,0
617,4.0,-192.0,123.0,0
618,2.0,-191.0,123.0,0
619,2.0,-195.0,123.0,0
620,3.0,-194.0,127.0,0
621,2.0,-196.0,128.0,0
622,2.0,-196.0,122.0,0
623,1.0,-194.0,124.0,0
624,3.0,-196.0,122.0,0
625,1.0,-195.0,128.0,0
626,1.0,-194.0,127.0,0
627,3.0,-193.0,124.0,0
628,2.0,-195.0,128.0,0
629,2.0,-194.0,127.0,0
630,3.0,-197.0,125.0,0
631,4.0,-193.0,121.0,0
632,3.0,-194.0,125.0,0
633,1.0,-192.0,126.0,0
634,1.0,-194.0,126.0,0
635,0.0,-193.0,127.0,0
636,3.0,-192.0,136.0,0
637,4.0,-195.0,125.0,0
638,4.0,-194.0,128.0,0
639,2.0,-196.0,125.0,0
640,3.0,-194.0,129.0,0
641,2.0,-193.0,125.0,0
642,4.0,-192.0,127.0,0
643,5.0,-192.0,128.0,0
644,3.0,-192.0,127.0,0
645,4.0,-193.0,127.0,0
646,5.0,-191.0,126.0,0
647,3.0,-190.0,123.0,0
648,2.0,-191.0,123.0,0
649,1.0,-190.0,125.0,0
650,2.0,-193.0,128.0,0
651,1.0,-190.0,128.0,0
652,1.0,-190.0,127.0,0
653,1.0,-191.0,127.0,0
654,0.0,-190.0,125.0,0
655,0.0,-194.0,128.0,0
656,1.0,-192.0,125.0,0
657,0.0,-196.0,127.0,0
658,0.0,-193.0,125.0,0
659,-5.0,-193.0,125.0,0
660,-2.0,-197.0,131.0,0
661,1.0,-198.0,128.0,0
662,1.0,-194.0,128.0,0
663,2.0,-192.0,128.0,0
664,0.0,-194.0,131.0,0
665,1.0,-194.0,126.0,0
666,1.0,-190.0,125.0,0
667,0.0,-190.0,124.0,0
668,3.0,-192.0,126.0,0
669,1.0,-190.0,125.0,0
670,1.0,-192.0,124.0,0
671,2.0,-190.0,122.0,0
672,4.0,-193.0,122.0,0
673,2.0,-192.0,124.0,0
674,0.0,-192.0,125.0,0
675,2.0,-196.0,124.0,0
676,3.0,-195.0,127.0,0
677,4.0,-196.0,127.0,0
678,4.0,-196.0,124.0,0
679,2.0,-194.0,124.0,0
680,-3.0,-198.0,117.0,0
681,1.0,-194.0,127.0,0
682,3.0,-197.0,121.0,0
683,1.0,-193.0,128.0,0
684,2.0,-194.0,124.0,0
685,-2.0,-192.0,124.0,0
686,1.0,-193.0,120.0,0
687,2.0,-192.0,123.0,0
688,0.0,-192.0,121.0,0
689,1.0,-195.0,121.0,0
690,1.0,-193.0,116.0,0
691,5.0,-197.0,122.0,0
692,3.0,-197.0,117.0,0
693,3.0,-196.0,117.0,0
694,1.0,-196.0,118.0,0
695,4.0,-199.0,119.0,0
696,1.0,-197.0,124.0,0
697,1.0,-197.0,121.0,0
698,1.0,-202.0,124.0,0
699,1.0,-198.0,126.0,0
700,0.0,-200.0,119.0,0
701,5.0,-200.0,124.0,0
702,1.0,-202.0,123.0,0
703,4.0,-199.0,124.0,0
704,2.0,-200.0,124.0,0
705,2.0,-201.0,123.0,0
706,3.0,-198.0,122.0,0
707,6.0,-200.0,117.0,0
708,3.0,-197.0,118.0,0
709,1.0,-194.0,120.0,0
710,3.0,-194.0,119.0,0
711,4.0,-194.0,118.0,0
712,2.0,-194.0,115.0,0
713,3.0,-197.0,121.0,0
714,4.0,-194.0,121.0,0
715,2.0,-196.0,124.0,0
716,3.0,-195.0,120.0,0
717,5.0,-199.0,122.0,0
718,2.0,-198.0,119.0,0
719,5.0,-200.0,122.0,0
720,2.0,-195.0,121.0,0
721,3.0,-199.0,121.0,0
722,3.0,-200.0,119.0,0
723,5.0,-195.0,119.0,0
724,4.0,-201.0,117.0,0
725,4.0,-200.0,117.0,0
726,3.0,-198.0,117.0,0
727,1.0,-200.0,120.0,0
728,3.0,-199.0,118.0,0
729,5.0,-202.0,120.0,0
730,4.0,-197.0,120.0,0
731,2.0,-199.0,117.0,0
732,6.0,-200.0,119.0,0
733,2.0,-200.0,122.0,0
734,2.0,-200.0,120.0,0
735,4.0,-197.0,120.0,0
736,3.0,-199.0,122.0,0
737,5.0,-198.0,120.0,0
738,5.0,-196.0,117.0,0
739,3.0,-194.0,117.0,0
740,4.0,-196.0,119.0,0
741,5.0,-197.0,119.0,0
742,4.0,-198.0,120.0,0
743,2.0,-196.0,118.0,0
744,3.0,-194.0,115.0,0
745,-1.0,-197.0,117.0,0
746,1.0,-197.0,118.0,0
747,4.0,-196.0,120.0,0
748,3.0,-197.0,121.0,0
749,3.0,-198.0,119.0,0
750,2.0,-198.0,116.0,0
751,3.0,-199.0,114.0,0
752,0.0,-198.0,117.0,0
753,6.0,-196.0,116.0,0
754,4.0,-198.0,116.0,0
755,1.0,-195.0,118.0,0
756,3.0,-200.0,121.0,0
757,3.0,-199.0,117.0,0
758,2.0,-199.0,124.0,0
759,5.0,-202.0,120.0,0
760,2.0,-201.0,120.0,0
761,2.0,-200.0,116.0,0
762,1.0,-200.0,117.0,0
763,4.0,-198.0,117.0,0
764,3.0,-201.0,114.0,0
765,2.0,-200.0,112.0,0
766,4.0,-201.0,113.0,0
767,4.0,-198.0,109.0,0
768,6.0,-199.0,116.0,0
769,4.0,-199.0,115.0,0
770,5.0,-197.0,117.0,0
771,6.0,-201.0,117.0,0
772,4.0,-199.0,115.0,0
773,4.0,-195.0,117.0,0
774,4.0,-199.0,113.0,0
775,-1.0,-198.0,114.0,0
776,2.0,-201.0,115.0,0
777,3.0,-201.0,118.0,0
778,1.0,-202.0,115.0,0
779,3.0,-200.0,114.0,0
780,1.0,-204.0,117.0,0
781,4.0,-204.0,118.0,0
782,3.0,-203.0,117.0,0
783,3.0,-205.0,121.0,0
784,7.0,-207.0,118.0,0
785,6.0,-205.0,117.0,0
786,8.0,-206.0,122.0,0
787,9.0,-205.0,122.0,0
788,5.0,-202.0,119.0,0
789,7.0,-202.0,117.0,0
790,8.0,-202.0,114.0,0
791,5.0,-201.0,114.0,0
792,6.0,-198.0,112.0,0
793,5.0,-202.0,116.0,0
794,4.0,-202.0,117.0,0
795,4.0,-199.0,115.0,0
796,3.0,-199.0,108.0,0
797,1.0,-200.0,107.0,0
798,1.0,-197.0,107.0,0
799,2.0,-198.0,110.0,0
800,1.0,-198.0,111.0,0
801,1.0,-198.0,113.0,0
802,0.0,-201.0,117.0,0
803,0.0,-203.0,115.0,0
804,-1.0,-201.0,117.0,0
805,0.0,-202.0,116.0,0
806,0.0,-203.0,118.0,0
807,0.0,-200.0,110.0,0
808,1.0,-205.0,110.0,0
809,-2.0,-201.0,112.0,0
810,-3.0,-200.0,107.0,0
811,-11.0,-208.0,113.0,0
812,-2.0,-199.0,110.0,0
813,-2.0,-202.0,109.0,0
814,-4.0,-198.0,107.0,0
815,-2.0,-198.0,107.0,0
816,0.0,-203.0,111.0,0
817,-1.0,-201.0,106.0,0
818,-3.0,-201.0,111.0,0
819,2.0,-199.0,109.0,0
820,-2.0,-199.0,108.0,0
821,0.0,-197.0,109.0,0
822,1.0,-201.0,109.0,0
823,0.0,-197.0,107.0,0
824,2.0,-198.0,103.0,0
825,2.0,-201.0,103.0,0
826,0.0,-199.0,102.0,0
827,2.0,-203.0,101.0,0
828,3.0,-203.0,101.0,0
829,1.0,-203.0,99.0,0
830,3.0,-203.0,101.0,0
831,-1.0,-206.0,101.0,0
832,0.0,-205.0,98.0,0
833,-5.0,-206.0,103.0,0
834,-1.0,-209.0,102.0,0
835,0.0,-207.0,99.0,0
836,-2.0,-203.0,99.0,0
837,2.0,-206.0,98.0,0
838,-3.0,-204.0,96.0,0
839,3.0,-202.0,102.0,0
840,-5.0,-200.0,98.0,0
841,0.0,-204.0,96.0,0
842,0.0,-205.0,102.0,0
843,0.0,-206.0,102.0,0
844,4.0,-208.0,98.0,0
845,-2.0,-209.0,95.0,0
846,1.0,-206.0,96.0,0
847,-3.0,-207.0,88.0,0
848,-2.0,-207.0,92.0,0
849,-2.0,-205.0,87.0,0
850,1.0,-205.0,88.0,0
851,-2.0,-208.0,91.0,0
852,-3.0,-203.0,89.0,0
853,-3.0,-202.0,90.0,0
854,-9.0,-201.0,87.0,0
855,3.0,-208.0,90.0,0
856,-2.0,-207.0,87.0,0
857,-1.0,-208.0,88.0,0
858,-3.0,-208.0,91.0,0
859,-2.0,-207.0,92.0,0
860,-5.0,-211.0,96.0,0
861,-4.0,-212.0,98.0,0
862,-1.0,-213.0,101.0,0
863,-11.0,-210.0,97.0,0
864,12.0,-220.0,91.0,0
865,6.0,-212.0,84.0,0
866,18.0,-214.0,86.0,0
867,3.0,-217.0,83.0,0
868,-9.0,-204.0,79.0,0
869,10.0,-219.0,77.0,0
870,11.0,-223.0,79.0,0
871,5.0,-218.0,74.0,0
872,2.0,-221.0,76.0,0
873,1.0,-219.0,73.0,0
874,1.0,-223.0,73.0,0
875,1.0,-221.0,74.0,0
876,2.0,-221.0,71.0,0
877,4.0,-223.0,73.0,0
878,-2.0,-219.0,74.0,0
879,-12.0,-217.0,84.0,0
880,11.0,-231.0,76.0,0
881,5.0,-229.0,78.0,0
882,-2.0,-228.0,75.0,0
883,2.0,-227.0,73.0,0
884,-1.0,-231.0,75.0,0
885,0.0,-225.0,68.0,0
886,-3.0,-226.0,69.0,0
887,-2.0,-225.0,70.0,0
888,-2.0,-226.0,73.0,0
889,-22.0,-215.0,75.0,0
890,13.0,-236.0,71.0,0
891,6.0,-240.0,76.0,0
892,2.0,-242.0,85.0,0
893,-1.0,-245.0,87.0,0
894,-10.0,-245.0,86.0,0
895,-13.0,-246.0,82.0,0
896,1.0,-252.0,79.0,0
897,1.0,-261.0,71.0,0
898,-7.0,-258.0,64.0,0
899,-9.0,-260.0,51.0,0
900,-7.0,-264.0,41.0,0
901,-5.0,-269.0,45.0,0
902,0.0,-269.0,39.0,0
903,-2.0,-268.0,27.0,0
904,2.0,-273.0,23.0,0
905,-17.0,-272.0,40.0,0
906,32.0,-307.0,39.0,0
907,9.0,-300.0,34.0,0
908,2.0,-305.0,42.0,0
909,2.0,-310.0,37.0,0
910,-5.0,-317.0,39.0,0
911,-7.0,-331.0,42.0,0
912,-7.0,-343.0,42.0,0
913,-10.0,-353.0,38.0,0
914,-17.0,-356.0,31.0,0
915,-18.0,-362.0,23.0,0
916,-18.0,-368.0,19.0,0
917,-16.0,-369.0,9.0,0
918,-19.0,-369.0,8.0,0
919,-16.0,-363.0,8.0,0
920,-19.0,-358.0,3.0,0
921,-23.0,-350.0,-5.0,0
922,-23.0,-348.0,-8.0,0
923,-17.0,-340.0,-9.0,0
924,-16.0,-334.0,-15.0,0
925,-15.0,-326.0,-23.0,0
926,-18.0,-321.0,-23.0,0
927,-18.0,-315.0,-24.0,0
928,-15.0,-313.0,-29.0,0
929,-18.0,-312.0,-26.0,0
930,-17.0,-313.0,-25.0,0
931,-24.0,-304.0,-33.0,0
932,-21.0,-308.0,-33.0,0
933,-23.0,-302.0,-37.0,0
934,-25.0,-301.0,-36.0,0
935,-25.0,-296.0,-44.0,0
936,-28.0,-290.0,-41.0,0
937,-30.0,-288.0,-44.0,0
938,-35.0,-288.0,-43.0,0
939,-29.0,-287.0,-45.0,0
940,-33.0,-292.0,-45.0,0
941,-31.0,-288.0,-49.0,0
942,-34.0,-285.0,-52.0,0
943,-34.0,-288.0,-47.0,0
944,-32.0,-290.0,-49.0,0
945,-32.0,-290.0,-49.0,0
946,-34.0,-292.0,-50.0,0
947,-31.0,-288.0,-54.0,0
948,-32.0,-289.0,-46.0,0
949,-34.0,-288.0,-52.0,0
950,-32.0,-284.0,-46.0,0
951,-32.0,-280.0,-46.0,0
952,-31.0,-280.0,-39.0,0
953,-29.0,-278.0,-40.0,0
954,-32.0,-276.0,-39.0,0
955,-29.0,-273.0,-31.0,0
956,-34.0,-267.0,-36.0,0
957,-27.0,-266.0,-28.0,0
958,-31.0,-260.0,-30.0,0
959,-29.0,-260.0,-28.0,0
960,-33.0,-259.0,-26.0,0
961,-31.0,-255.0,-25.0,0
962,-26.0,-252.0,-29.0,0
963,-29.0,-250.0,-22.0,0
964,-26.0,-248.0,-27.0,0
965,-23.0,-246.0,-25.0,0
966,-21.0,-246.0,-22.0,0
967,-24.0,-244.0,-25.0,0
968,-19.0,-241.0,-27.0,0
969,-16.0,-241.0,-31.0,0
970,-17.0,-241.0,-31.0,0
971,-16.0,-233.0,-40.0,0
972,-16.0,-236.0,-32.0,0
973,-16.0,-231.0,-38.0,0
974,-15.0,-227.0,-46.0,0
975,-14.0,-223.0,-48.0,0
976,-11.0,-220.0,-52.0,0
977,-5.0,-222.0,-55.0,0
978,-6.0,-216.0,-56.0,0
979,-3.0,-218.0,-56.0,0
980,3.0,-215.0,-62.0,0
981,1.0,-214.0,-62.0,0
982,3.0,-211.0,-67.0,0
983,2.0,-212.0,-66.0,0
984,5.0,-210.0,-66.0,0
985,4.0,-213.0,-66.0,0
986,3.0,-210.0,-65.0,0
987,6.0,-212.0,-67.0,0
988,5.0,-217.0,-60.0,0
989,5.0,-218.0,-56.0,0
990,9.0,-219.0,-55.0,0
991,11.0,-220.0,-51.0,0
992,8.0,-217.0,-52.0,0
993,15.0,-222.0,-50.0,0
994,9.0,-223.0,-45.0,0
995,10.0,-223.0,-45.0,0
996,8.0,-224.0,-43.0,0
997,8.0,-224.0,-42.0,0
998,6.0,-226.0,-46.0,0
999,3.0,-222.0,-47.0,0
1000,6.0,-224.0,-44.0,0
1001,4.0,-221.0,-47.0,0
1002,5.0,-225.0,-47.0,0
1003,6.0,-230.0,-40.0,0
1004,0.0,-224.0,-49.0,0
1005,-2.0,-219.0,-49.0,0
1006,-4.0,-218.0,-54.0,0
1007,-4.0,-217.0,-51.0,0
1008,-3.0,-211.0,-52.0,0
1009,-4.0,-211.0,-56.0,0
1010,-7.0,-210.0,-54.0,0
1011,-10.0,-206.0,-58.0,0
1012,-5.0,-205.0,-55.0,0
1013,-5.0,-203.0,-55.0,0
1014,0.0,-205.0,-54.0,0
1015,-1.0,-201.0,-53.0,0
1016,5.0,-198.0,-56.0,0
1017,6.0,-199.0,-54.0,0
1018,9.0,-199.0,-54.0,0
1019,14.0,-191.0,-55.0,0
1020,19.0,-193.0,-56.0,0
1021,18.0,-194.0,-46.0,0
1022,22.0,-193.0,-47.0,0
1023,17.0,-196.0,-51.0,0
1024,17.0,-188.0,-46.0,0
1025,15.0,-191.0,-50.0,0
1026,20.0,-189.0,-48.0,0
1027,17.0,-191.0,-45.0,0
1028,15.0,-193.0,-49.0,0
1029,14.0,-193.0,-43.0,0
1030,13.0,-191.0,-44.0,0
1031,10.0,-193.0,-41.0,0
1032,8.0,-194.0,-48.0,0
1033,8.0,-194.0,-43.0,0
1034,8.0,-200.0,-39.0,0
1035,5.0,-202.0,-41.0,0
1036,1.0,-199.0,-41.0,0
1037,0.0,-199.0,-40.0,0
1038,-1.0,-193.0,-44.0,0
1039,-1.0,-189.0,-43.0,0
1040,-1.0,-188.0,-42.0,0
1041,-2.0,-186.0,-44.0,0
1042,1.0,-186.0,-41.0,0
1043,1.0,-183.0,-42.0,0
1044,3.0,-181.0,-41.0,0
1045,3.0,-178.0,-37.0,0
1046,1.0,-173.0,-42.0,0
1047,5.0,-170.0,-43.0,0
1048,5.0,-165.0,-45.0,0
1049,8.0,-163.0,-48.0,0
1050,10.0,-159.0,-50.0,0
1051,9.0,-158.0,-52.0,0
1052,8.0,-158.0,-55.0,0
1053,12.0,-156.0,-55.0,0
1054,9.0,-157.0,-55.0,0
1055,8.0,-152.0,-62.0,0
1056,5.0,-153.0,-55.0,0
1057,6.0,-155.0,-58.0,0
1058,2.0,-158.0,-63.0,0
1059,0.0,-157.0,-60.0,0
1060,1.0,-161.0,-58.0,0
1061,6.0,-164.0,-61.0,0
1062,9.0,-169.0,-63.0,0
1063,15.0,-170.0,-55.0,0
1064,24.0,-171.0,-56.0,0
1065,39.0,-174.0,-53.0,0
1066,41.0,-166.0,-51.0,0
1067,46.0,-167.0,-42.0,0
1068,50.0,-164.0,-39.0,0
1069,57.0,-161.0,-33.0,0
1070,69.0,-163.0,-25.0,0
1071,74.0,-155.0,-25.0,0
1072,82.0,-152.0,-26.0,0
1073,83.0,-153.0,-20.0,0
1074,87.0,-151.0,-25.0,0
1075,94.0,-145.0,-29.0,0
1076,90.0,-138.0,-35.0,0
1077,82.0,-131.0,-46.0,0
1078,72.0,-113.0,-52.0,0
1079,66.0,-112.0,-67.0,0
1080,54.0,-111.0,-68.0,0
1081,43.0,-113.0,-77.0,0
1082,29.0,-114.0,-90.0,0
1083,10.0,-117.0,-85.0,0
1084,2.0,-124.0,-85.0,0
1085,-5.0,-126.0,-89.0,0
1086,-10.0,-139.0,-78.0,0
1087,-15.0,-144.0,-61.0,0
1088,-10.0,-153.0,-50.0,0
1089,-6.0,-165.0,-45.0,0
1090,-3.0,-177.0,-20.0,0
1091,-2.0,-193.0,-4.0,0
1092,12.0,-204.0,6.0,0
1093,24.0,-220.0,11.0,0
1094,33.0,-231.0,15.0,0
1095,35.0,-245.0,14.0,0
1096,42.0,-252.0,12.0,0
1097,45.0,-254.0,-3.0,0
1098,38.0,-258.0,-23.0,0
1099,47.0,-262.0,-44.0,0
1100,50.0,-260.0,-71.0,0
1101,53.0,-254.0,-90.0,0
1102,61.0,-247.0,-109.0,0
1103,76.0,-238.0,-115.0,0
1104,83.0,-222.0,-115.0,0
1105,90.0,-208.0,-109.0,0
1106,95.0,-195.0,-109.0,0
1107,98.0,-187.0,-108.0,0
1108,104.0,-185.0,-104.0,0
1109,105.0,-181.0,-105.0,0
1110,109.0,-183.0,-109.0,0
1111,107.0,-179.0,-109.0,0
1112,114.0,-187.0,-104.0,0
1113,114.0,-192.0,-112.0,0
1114,114.0,-195.0,-114.0,0
1115,114.0,-193.0,-118.0,0
1116,117.0,-197.0,-122.0,0
1117,116.0,-203.0,-128.0,0
1118,115.0,-205.0,-133.0,0
1119,113.0,-213.0,-134.0,0
1120,101.0,-213.0,-134.0,0
1121,93.0,-219.0,-133.0,0
1122,83.0,-221.0,-133.0,0
1123,71.0,-227.0,-141.0,0
1124,63.0,-229.0,-138.0,0
1125,57.0,-226.0,-138.0,0
1126,46.0,-226.0,-140.0,0
1127,40.0,-234.0,-137.0,0
1128,31.0,-237.0,-136.0,0
1129,21.0,-243.0,-136.0,0
1130,8.0,-253.0,-139.0,0
1131,-1.0,-262.0,-146.0,0
1132,-22.0,-275.0,-159.0,0
1133,-49.0,-290.0,-166.0,0
1134,-60.0,-310.0,-176.0,0
1135,-68.0,-324.0,-189.0,0
1136,-77.0,-346.0,-193.0,0
1137,-85.0,-360.0,-198.0,0
1138,-80.0,-368.0,-202.0,0
1139,-68.0,-382.0,-189.0,0
1140,-56.0,-399.0,-159.0,0
1141,-48.0,-412.0,-116.0,0
1142,-43.0,-428.0,-65.0,2
1143,-39.0,-435.0,-11.0,2
1144,-49.0,-436.0,36.0,2
1145,-61.0,-444.0,82.0,2
1146,-82.0,-434.0,114.0,2
1147,-114.0,-414.0,147.0,2
1148,-143.0,-390.0,163.0,2
1149,-188.0,-348.0,178.0,2
1150,-217.0,-285.0,173.0,2
1151,-219.0,-230.0,135.0,2
1152,-231.0,-158.0,73.0,2
1153,-261.0,-83.0,49.0,2
1154,-286.0,-22.0,17.0,2
1155,-269.0,-5.0,20.0,2
1156,-252.0,31.0,8.0,2
1157,-232.0,43.0,6.0,2
1158,-209.0,47.0,8.0,2
1159,-184.0,35.0,17.0,2
1160,-162.0,17.0,32.0,2
1161,-147.0,-6.0,52.0,2
1162,-139.0,-36.0,70.0,2
1163,-131.0,-64.0,78.0,2
1164,-129.0,-99.0,97.0,2
1165,-137.0,-127.0,114.0,2
1166,-152.0,-164.0,123.0,2
1167,-167.0,-187.0,125.0,2
1168,-193.0,-212.0,126.0,2
1169,-222.0,-229.0,112.0,2
1170,-251.0,-244.0,87.0,2
1171,-284.0,-263.0,81.0,2
1172,-321.0,-305.0,130.0,2
1173,-353.0,-353.0,161.0,2
1174,-441.0,-405.0,170.0,2
1175,-539.0,-434.0,133.0,2
1176,-674.0,-436.0,67.0,2
1177,-796.0,-461.0,80.0,2
1178,-1003.0,-493.0,48.0,2
1179,-1086.0,-515.0,-55.0,2
1180,-1225.0,-477.0,-115.0,2
1181,-1225.0,-512.0,-59.0,2
1182,-1162.0,-499.0,47.0,2
1183,-918.0,-420.0,181.0,2
1184,-758.0,-295.0,266.0,2
1185,-646.0,-216.0,257.0,2
1186,-566.0,-174.0,241.0,2
1187,-392.0,-237.0,213.0,2
1188,-235.0,-283.0,194.0,2
1189,-158.0,-288.0,195.0,2
1190,-54.0,-269.0,194.0,2
1191,37.0,-265.0,196.0,2
1192,64.0,-263.0,243.0,2
1193,32.0,-238.0,267.0,2
1194,4.0,-229.0,282.0,2
1195,-17.0,-217.0,252.0,2
1196,-12.0,-208.0,189.0,2
1197,-22.0,-192.0,140.0,2
1198,-29.0,-167.0,92.0,2
1199,-13.0,-131.0,52.0,2
1200,-15.0,-116.0,17.0,2
1201,-16.0,-103.0,-17.0,2
1202,-7.0,-96.0,-35.0,2
1203,-2.0,-96.0,-43.0,2
1204,17.0,-99.0,-34.0,2
1205,49.0,-112.0,-29.0,2
1206,26.0,-97.0,-18.0,2
1207,8.0,-76.0,-7.0,2
1208,-2.0,-58.0,1.0,2
1209,1.0,-28.0,-9.0,2
1210,19.0,2.0,-13.0,2
1211,-10.0,18.0,-10.0,2
1212,-42.0,52.0,-11.0,2
1213,-68.0,103.0,2.0,2
1214,-103.0,124.0,26.0,2
1215,-147.0,132.0,37.0,2
1216,-172.0,134.0,37.0,2
1217,-293.0,185.0,72.0,2
1218,-337.0,211.0,57.0,2
1219,-282.0,205.0,38.0,2
1220,-382.0,305.0,45.0,2
1221,-401.0,395.0,42.0,2
1222,-360.0,471.0,30.0,2
1223,-256.0,531.0,12.0,2
1224,-250.0,596.0,-14.0,2
1225,-301.0,630.0,-36.0,2
1226,-385.0,590.0,-113.0,2
1227,-463.0,484.0,-208.0,2
1228,-516.0,373.0,-281.0,2
1229,-619.0,291.0,-292.0,2
1230,-619.0,214.0,-269.0,2
1231,-513.0,131.0,-215.0,2
1232,-447.0,103.0,-177.0,2
1233,-369.0,93.0,-130.0,2
1234,-301.0,82.0,-83.0,2
1235,-246.0,68.0,-19.0,2
1236,-221.0,97.0,22.0,2
1237,-152.0,128.0,53.0,2
1238,-116.0,165.0,86.0,2
1239,-93.0,183.0,123.0,2
1240,-79.0,193.0,148.0,2
1241,-69.0,194.0,176.0,2
1242,-75.0,187.0,183.0,2
1243,-64.0,187.0,153.0,2
1244,-52.0,168.0,124.0,2
1245,-46.0,149.0,90.0,2
1246,-33.0,131.0,55.0,2
1247,-40.0,119.0,25.0,2
1248,-53.0,118.0,5.0,2
1249,-73.0,118.0,-13.0,2
1250,-76.0,120.0,-21.0,2
1251,-112.0,131.0,-16.0,2
1252,-145.0,139.0,-10.0,2
1253,-168.0,150.0,-11.0,2
1254,-186.0,154.0,-8.0,2
1255,-202.0,158.0,-17.0,2
1256,-231.0,166.0,-9.0,2
1257,-240.0,172.0,-18.0,2
1258,-252.0,180.0,-16.0,2
1259,-244.0,190.0,-22.0,2
1260,-243.0,198.0,-23.0,2
1261,-240.0,195.0,-24.0,2
1262,-228.0,199.0,-27.0,2
1263,-215.0,199.0,-31.0,2
1264,-201.0,195.0,-24.0,1
1265,-195.0,191.0,-18.0,1
1266,-188.0,189.0,-5.0,1
1267,-189.0,188.0,4.0,1
1268,-196.0,185.0,18.0,1
1269,-210.0,177.0,30.0,1
1270,-222.0,169.0,38.0,1
1271,-231.0,159.0,48.0,1
1272,-240.0,157.0,50.0,1
1273,-216.0,158.0,42.0,1
1274,-262.0,167.0,32.0,1
1275,-265.0,178.0,32.0,1
1276,-269.0,188.0,19.0,1
1277,-277.0,194.0,11.0,1
1278,-275.0,199.0,4.0,1
1279,-291.0,193.0,-5.0,1
1280,-290.0,184.0,-9.0,1
1281,-292.0,173.0,-7.0,1
1282,-288.0,158.0,2.0,1
1283,-278.0,141.0,-5.0,1
1284,-281.0,137.0,7.0,1
1285,-270.0,125.0,16.0,1
1286,-257.0,113.0,15.0,1
1287,-240.0,108.0,17.0,1
1288,-227.0,103.0,16.0,1
1289,-195.0,100.0,17.0,1
1290,-219.0,104.0,30.0,1
1291,-216.0,102.0,39.0,1
1292,-189.0,104.0,42.0,1
1293,-160.0,108.0,38.0,1
1294,-157.0,102.0,28.0,1
1295,-191.0,86.0,31.0,1
1296,-193.0,71.0,28.0,1
1297,-186.0,56.0,27.0,1
1298,-172.0,42.0,30.0,1
1299,-198.0,36.0,46.0,1
1300,-215.0,33.0,51.0,1
1301,-212.0,31.0,46.0,1
1302,-207.0,30.0,40.0,1
1303,-223.0,36.0,39.0,1
1304,-240.0,34.0,37.0,1
1305,-243.0,38.0,28.0,1
1306,-239.0,38.0,13.0,1
1307,-243.0,35.0,8.0,1
1308,-261.0,36.0,6.0,1
1309,-256.0,33.0,0.0,1
1310,-257.0,34.0,-4.0,1
1311,-258.0,33.0,-3.0,1
1312,-265.0,36.0,1.0,1
1313,-263.0,35.0,-2.0,1
1314,-272.0,46.0,-7.0,1
1315,-270.0,48.0,-4.0,1
1316,-276.0,52.0,-1.0,1
1317,-272.0,47.0,-3.0,1
1318,-273.0,49.0,-3.0,1
1319,-275.0,49.0,-8.0,1
1320,-284.0,47.0,-6.0,1
1321,-283.0,42.0,1.0,1
1322,-287.0,41.0,7.0,1
1323,-283.0,35.0,10.0,1
1324,-284.0,26.0,11.0,1
1325,-283.0,23.0,12.0,1
1326,-288.0,20.0,16.0,1
1327,-285.0,7.0,23.0,1
1328,-286.0,0.0,26.0,1
1329,-272.0,-15.0,22.0,1
1330,-274.0,-21.0,29.0,1
1331,-281.0,-22.0,27.0,1
1332,-277.0,-28.0,29.0,1
1333,-281.0,-27.0,20.0,1
1334,-283.0,-22.0,17.0,1
1335,-290.0,-14.0,18.0,1
1336,-277.0,-15.0,7.0,1
1337,-282.0,-7.0,6.0,1
1338,-290.0,5.0,6.0,1
1339,-283.0,13.0,3.0,1
1340,-285.0,23.0,1.0,1
1341,-286.0,33.0,2.0,1
1342,-282.0,43.0,-2.0,1
1343,-282.0,50.0,-3.0,1
1344,-270.0,53.0,-10.0,1
1345,-266.0,57.0,-14.0,1
1346,-268.0,62.0,-10.0,1
1347,-266.0,51.0,-8.0,1
1348,-256.0,56.0,-9.0,1
1349,-251.0,50.0,-2.0,1
1350,-252.0,49.0,6.0,1
1351,-255.0,44.0,5.0,1
1352,-250.0,39.0,9.0,1
1353,-243.0,32.0,11.0,1
1354,-246.0,28.0,15.0,1
1355,-247.0,24.0,19.0,1
1356,-248.0,19.0,28.0,1
1357,-249.0,18.0,25.0,1
1358,-252.0,18.0,29.0,1
1359,-249.0,16.0,28.0,1
1360,-253.0,19.0,20.0,1
1361,-250.0,20.0,22.0,1
1362,-253.0,21.0,24.0,1
1363,-250.0,23.0,24.0,1
1364,-252.0,26.0,23.0,1
1365,-255.0,28.0,23.0,0
1366,-249.0,29.0,25.0,0
1367,-247.0,31.0,18.0,0
1368,-250.0,38.0,18.0,0
1369,-245.0,48.0,14.0,0
1370,-253.0,40.0,17.0,0
1371,-254.0,45.0,9.0,0
1372,-257.0,46.0,9.0,0
1373,-258.0,47.0,9.0,0
1374,-262.0,52.0,5.0,0
1375,-265.0,51.0,3.0,0
1376,-266.0,50.0,7.0,0
1377,-266.0,49.0,4.0,0
1378,-270.0,50.0,3.0,0
1379,-272.0,49.0,5.0,0
1380,-272.0,50.0,2.0,0
1381,-270.0,47.0,1.0,0
1382,-272.0,49.0,4.0,0
1383,-269.0,52.0,2.0,0
1384,-270.0,54.0,4.0,0
1385,-263.0,53.0,4.0,0
1386,-260.0,54.0,7.0,0
1387,-257.0,58.0,8.0,0
1388,-255.0,61.0,11.0,0
1389,-253.0,62.0,13.0,0
1390,-248.0,64.0,15.0,0
1391,-243.0,65.0,15.0,0
1392,-245.0,70.0,15.0,0
1393,-244.0,69.0,16.0,0
1394,-241.0,70.0,13.0,0
1395,-239.0,67.0,16.0,0
1396,-239.0,68.0,15.0,0
1397,-243.0,67.0,12.0,0
1398,-243.0,66.0,13.0,0
1399,-240.0,61.0,15.0,0
1400,-244.0,59.0,13.0,0
1401,-242.0,60.0,13.0,0
1402,-245.0,58.0,9.0,0
1403,-246.0,59.0,11.0,0
1404,-242.0,58.0,9.0,0
1405,-241.0,64.0,9.0,0
1406,-245.0,67.0,6.0,0
1407,-242.0,67.0,12.0,0
1408,-249.0,71.0,12.0,0
1409,-244.0,70.0,9.0,0
1410,-244.0,70.0,10.0,0
1411,-244.0,66.0,10.0,0
1412,-246.0,69.0,10.0,0
1413,-246.0,70.0,10.0,0
1414,-245.0,66.0,8.0,0
1415,-246.0,65.0,10.0,0
1416,-245.0,60.0,10.0,0
1417,-250.0,62.0,8.0,0
1418,-249.0,61.0,6.0,0
1419,-250.0,59.0,6.0,0
1420,-250.0,56.0,7.0,0
1421,-255.0,54.0,6.0,0
1422,-255.0,57.0,8.0,0
1423,-255.0,54.0,7.0,0
1424,-257.0,53.0,6.0,0
1425,-257.0,53.0,6.0,0
1426,-262.0,49.0,4.0,0
1427,-259.0,49.0,7.0,0
1428,-265.0,48.0,3.0,0
1429,-265.0,50.0,4.0,0
1430,-263.0,49.0,2.0,0
1431,-262.0,45.0,0.0,0
1432,-268.0,48.0,5.0,0
1433,-268.0,46.0,6.0,0
1434,-261.0,45.0,8.0,0
1435,-264.0,46.0,8.0,0
1436,-265.0,48.0,5.0,0
1437,-263.0,46.0,8.0,0
1438,-263.0,46.0,9.0,0
1439,-262.0,46.0,8.0,0
1440,-264.0,49.0,10.0,0
1441,-258.0,46.0,8.0,0
1442,-257.0,50.0,11.0,0
1443,-260.0,48.0,11.0,0
1444,-257.0,44.0,11.0,0
1445,-258.0,51.0,16.0,0
1446,-256.0,51.0,14.0,0
1447,-254.0,49.0,13.0,0
1448,-258.0,54.0,18.0,0
1449,-251.0,51.0,15.0,0
1450,-250.0,54.0,13.0,0
1451,-247.0,52.0,11.0,0
1452,-247.0,52.0,14.0,0
1453,-252.0,57.0,15.0,0
1454,-252.0,56.0,13.0,0
1455,-260.0,53.0,13.0,0
1456,-242.0,53.0,16.0,0
1457,-247.0,58.0,17.0,0
1458,-248.0,56.0,16.0,0
1459,-247.0,56.0,19.0,0
1460,-250.0,55.0,15.0,0
1461,-250.0,57.0,19.0,0
1462,-252.0,54.0,19.0,0
1463,-253.0,56.0,18.0,0
1464,-253.0,56.0,20.0,0
1465,-253.0,58.0,14.0,0
1466,-252.0,57.0,18.0,0
1467,-255.0,59.0,19.0,0
1468,-250.0,58.0,10.0,0
1469,-250.0,59.0,12.0,0
1470,-248.0,58.0,10.0,0
1471,-248.0,58.0,17.0,0
1472,-250.0,58.0,15.0,0
1473,-248.0,60.0,17.0,0
1474,-252.0,61.0,15.0,0
1475,-250.0,62.0,17.0,0
1476,-248.0,64.0,17.0,0
1477,-251.0,64.0,15.0,0
1478,-248.0,61.0,17.0,0
1479,-249.0,61.0,20.0,0
1480,-252.0,59.0,15.0,0
1481,-249.0,61.0,15.0,0
1482,-258.0,62.0,16.0,0
1483,-245.0,63.0,19.0,0
1484,-249.0,61.0,18.0,0
1485,-245.0,59.0,17.0,0
1486,-252.0,60.0,15.0,0
1487,-251.0,62.0,18.0,0
1488,-251.0,63.0,19.0,0
1489,-250.0,58.0,14.0,0
1490,-249.0,60.0,19.0,0
1491,-249.0,57.0,18.0,0
1492,-249.0,60.0,19.0,0
1493,-245.0,61.0,19.0,0
1494,-248.0,61.0,18.0,0
1495,-246.0,61.0,21.0,0
1496,-243.0,61.0,20.0,0
1497,-247.0,62.0,18.0,0
1498,-248.0,65.0,17.0,0
1499,-246.0,58.0,18.0,0
1500,-248.0,60.0,16.0,0
1501,-249.0,63.0,19.0,0
1502,-249.0,63.0,17.0,0
1503,-249.0,63.0,16.0,0
1504,-251.0,60.0,16.0,0
1505,-257.0,61.0,19.0,0
1506,-252.0,61.0,15.0,0
1507,-247.0,60.0,15.0,0
1508,-249.0,60.0,16.0,0
1509,-250.0,62.0,12.0,0
1510,-254.0,60.0,15.0,0
1511,-251.0,61.0,14.0,0
1512,-249.0,59.0,15.0,0
1513,-251.0,60.0,16.0,0
1514,-255.0,59.0,19.0,0
1515,-250.0,56.0,20.0,0
1516,-254.0,57.0,16.0,0
1517,-252.0,56.0,18.0,0
1518,-251.0,56.0,19.0,0
1519,-245.0,56.0,17.0,0
1520,-253.0,55.0,18.0,0
1521,-254.0,55.0,17.0,0
1522,-251.0,56.0,21.0,0
1523,-254.0,57.0,15.0,0
1524,-252.0,59.0,17.0,0
1525,-251.0,61.0,18.0,0
1526,-255.0,64.0,19.0,0
1527,-252.0,60.0,18.0,0
1528,-255.0,58.0,17.0,0
1529,-250.0,60.0,21.0,0
1530,-250.0,62.0,18.0,0
1531,-253.0,63.0,21.0,0
1532,-250.0,60.0,18.0,0
1533,-249.0,61.0,17.0,0
1534,-252.0,59.0,19.0,0
1535,-249.0,61.0,15.0,0
1536,-252.0,63.0,23.0,0
1537,-251.0,61.0,18.0,0
1538,-252.0,62.0,18.0,0
1539,-252.0,62.0,17.0,0
1540,-251.0,61.0,20.0,0
1541,-249.0,62.0,18.0,0
1542,-251.0,60.0,19.0,0
1543,-252.0,60.0,23.0,0
1544,-250.0,61.0,16.0,0
1545,-251.0,62.0,18.0,0
1546,-250.0,60.0,18.0,0
1547,-249.0,59.0,16.0,0
1548,-253.0,63.0,16.0,0
1549,-254.0,60.0,19.0,0
1550,-250.0,60.0,17.0,0
1551,-251.0,61.0,19.0,0
1552,-250.0,60.0,19.0,0
1553,-249.0,62.0,20.0,0
1554,-246.0,62.0,15.0,0
1555,-249.0,62.0,20.0,0
1556,-256.0,56.0,13.0,0
1557,-242.0,63.0,17.0,0
1558,-248.0,67.0,21.0,0
1559,-250.0,65.0,22.0,0
1560,-250.0,65.0,17.0,0
1561,-247.0,62.0,21.0,0
1562,-247.0,62.0,19.0,0
1563,-248.0,61.0,20.0,0
1564,-252.0,62.0,21.0,0
1565,-249.0,63.0,21.0,0
1566,-249.0,61.0,20.0,0
1567,-252.0,62.0,19.0,0
1568,-251.0,61.0,17.0,0
1569,-250.0,61.0,19.0,0
1570,-252.0,59.0,19.0,0
1571,-253.0,63.0,19.0,0
1572,-254.0,63.0,23.0,0
1573,-256.0,62.0,19.0,0
1574,-258.0,61.0,15.0,0
1575,-253.0,61.0,16.0,0
1576,-250.0,62.0,18.0,0
1577,-250.0,62.0,23.0,0
1578,-248.0,62.0,23.0,0
1579,-248.0,63.0,27.0,0
1580,-252.0,62.0,21.0,0
1581,-252.0,62.0,25.0,0
1582,-248.0,61.0,20.0,0
1583,-248.0,63.0,22.0,0
1584,-244.0,62.0,23.0,0
1585,-249.0,66.0,23.0,0
1586,-246.0,63.0,20.0,0
1587,-243.0,64.0,21.0,0
1588,-249.0,65.0,27.0,0
1589,-247.0,66.0,24.0,0
1590,-247.0,67.0,23.0,0
1591,-250.0,64.0,22.0,0
1592,-247.0,61.0,24.0,0
1593,-249.0,66.0,24.0,0
1594,-247.0,65.0,26.0,0
1595,-245.0,62.0,25.0,0
1596,-245.0,62.0,29.0,0
1597,-246.0,67.0,29.0,0
1598,-245.0,65.0,23.0,0
1599,-249.0,64.0,22.0,0
1600,-247.0,66.0,23.0,0
1601,-245.0,62.0,28.0,0
1602,-248.0,65.0,20.0,0
1603,-248.0,63.0,25.0,0
1604,-247.0,63.0,22.0,0
1605,-249.0,62.0,23.0,0
1606,-250.0,65.0,24.0,0
1607,-248.0,62.0,25.0,0
1608,-249.0,65.0,22.0,0
1609,-250.0,62.0,27.0,0
1610,-250.0,65.0,24.0,0
1611,-253.0,64.0,23.0,0
1612,-250.0,63.0,22.0,0
1613,-250.0,65.0,24.0,0
1614,-249.0,63.0,26.0,0
1615,-249.0,65.0,20.0,0
1616,-249.0,61.0,20.0,0
1617,-249.0,61.0,21.0,0
1618,-248.0,61.0,22.0,0
1619,-248.0,59.0,20.0,0
1620,-248.0,62.0,25.0,0
1621,-247.0,57.0,23.0,0
1622,-250.0,56.0,22.0,0
1623,-249.0,58.0,22.0,0
1624,-249.0,61.0,23.0,0
1625,-248.0,59.0,22.0,0
1626,-246.0,61.0,22.0,0
1627,-248.0,62.0,22.0,0
1628,-250.0,65.0,21.0,0
1629,-249.0,64.0,22.0,0
1630,-249.0,61.0,22.0,0
1631,-249.0,67.0,22.0,0
1632,-250.0,64.0,26.0,0
1633,-247.0,62.0,24.0,0
1634,-249.0,63.0,28.0,0
1635,-248.0,63.0,19.0,0
1636,-249.0,60.0,25.0,0
1637,-248.0,64.0,28.0,0
1638,-248.0,64.0,23.0,0
1639,-245.0,63.0,24.0,0
1640,-248.0,62.0,26.0,0
1641,-247.0,61.0,22.0,0
1642,-248.0,63.0,22.0,0
1643,-247.0,64.0,24.0,0
1644,-250.0,62.0,25.0,0
1645,-245.0,62.0,23.0,0
1646,-248.0,64.0,23.0,0
1647,-247.0,64.0,23.0,0
1648,-249.0,61.0,22.0,0
1649,-248.0,63.0,25.0,0
1650,-248.0,64.0,22.0,0
1651,-249.0,64.0,17.0,0
1652,-248.0,61.0,27.0,0
1653,-249.0,63.0,21.0,0
1654,-249.0,61.0,23.0,0
1655,-248.0,60.0,24.0,0
1656,-249.0,64.0,19.0,0
1657,-248.0,60.0,24.0,0
1658,-250.0,61.0,22.0,0
1659,-247.0,60.0,20.0,0
1660,-250.0,63.0,20.0,0
1661,-249.0,60.0,23.0,0
1662,-250.0,63.0,21.0,0
1663,-251.0,63.0,15.0,0
1664,-250.0,63.0,24.0,0
1665,-248.0,61.0,18.0,0
1666,-248.0,59.0,21.0,0
1667,-249.0,60.0,19.0,0
1668,-249.0,59.0,22.0,0
1669,-251.0,59.0,21.0,0
1670,-249.0,60.0,23.0,0
1671,-246.0,58.0,23.0,0
1672,-253.0,59.0,24.0,0
1673,-251.0,59.0,23.0,0
1674,-249.0,58.0,22.0,0
1675,-249.0,61.0,22.0,0
1676,-249.0,60.0,21.0,0
1677,-251.0,60.0,21.0,0
1678,-248.0,61.0,21.0,0
1679,-249.0,57.0,22.0,0
1680,-249.0,58.0,24.0,0
1681,-251.0,59.0,19.0,0
1682,-249.0,59.0,23.0,0
1683,-246.0,57.0,22.0,0
1684,-249.0,60.0,27.0,0
1685,-251.0,61.0,19.0,0
1686,-249.0,62.0,19.0,0
1687,-249.0,60.0,16.0,0
1688,-249.0,59.0,21.0,0
1689,-249.0,63.0,19.0,0
1690,-251.0,61.0,22.0,0
1691,-251.0,61.0,20.0,0
1692,-249.0,62.0,21.0,0
1693,-250.0,62.0,24.0,0
1694,-252.0,61.0,21.0,0
1695,-249.0,56.0,22.0,0
1696,-249.0,59.0,16.0,0
1697,-249.0,59.0,23.0,0
1698,-255.0,61.0,23.0,0
1699,-251.0,60.0,20.0,0
1700,-252.0,61.0,19.0,0
1701,-250.0,58.0,21.0,0
1702,-249.0,61.0,20.0,0
1703,-252.0,61.0,20.0,0
1704,-249.0,60.0,21.0,0
1705,-248.0,62.0,17.0,0
1706,-246.0,61.0,21.0,0
1707,-247.0,64.0,23.0,0
1708,-249.0,60.0,22.0,0
1709,-245.0,60.0,21.0,0
1710,-249.0,62.0,23.0,0
1711,-248.0,61.0,22.0,0
1712,-245.0,59.0,24.0,0
1713,-251.0,63.0,21.0,0
1714,-248.0,61.0,18.0,0
1715,-252.0,63.0,21.0,0
1716,-249.0,58.0,24.0,0
1717,-249.0,58.0,22.0,0
1718,-253.0,56.0,22.0,0
1719,-248.0,55.0,20.0,0
1720,-249.0,59.0,20.0,0
1721,-249.0,61.0,22.0,0
1722,-250.0,57.0,23.0,0
1723,-250.0,61.0,23.0,0
1724,-250.0,58.0,18.0,0
1725,-247.0,58.0,16.0,0
1726,-249.0,57.0,23.0,0
1727,-249.0,57.0,20.0,0
1728,-252.0,60.0,23.0,0
1729,-249.0,58.0,22.0,0
1730,-251.0,58.0,23.0,0
1731,-248.0,60.0,28.0,0
1732,-251.0,61.0,25.0,0
1733,-249.0,59.0,19.0,0
1734,-249.0,60.0,19.0,0
1735,-247.0,58.0,19.0,0
1736,-250.0,60.0,17.0,0
1737,-248.0,59.0,19.0,0
1738,-248.0,59.0,19.0,0
1739,-251.0,58.0,19.0,0
1740,-249.0,58.0,19.0,0
1741,-251.0,59.0,21.0,0
1742,-251.0,57.0,21.0,0
1743,-253.0,57.0,20.0,0
1744,-250.0,58.0,19.0,0
1745,-250.0,59.0,16.0,0
1746,-252.0,58.0,22.0,0
1747,-251.0,59.0,19.0,0
1748,-250.0,59.0,21.0,0
1749,-249.0,57.0,22.0,0
1750,-250.0,61.0,19.0,0
1751,-250.0,58.0,21.0,0
1752,-249.0,60.0,17.0,0
1753,-247.0,57.0,19.0,0
1754,-247.0,60.0,18.0,0
1755,-251.0,60.0,17.0,0
1756,-249.0,60.0,16.0,0
1757,-251.0,62.0,18.0,0
1758,-249.0,62.0,21.0,0
1759,-247.0,59.0,17.0,0
1760,-251.0,59.0,21.0,0
1761,-250.0,58.0,21.0,0
1762,-252.0,58.0,16.0,0
1763,-250.0,57.0,23.0,0
1764,-251.0,57.0,18.0,0
1765,-252.0,56.0,20.0,0
1766,-248.0,58.0,20.0,0
1767,-249.0,57.0,21.0,0
1768,-247.0,56.0,19.0,0
1769,-253.0,58.0,17.0,0
1770,-250.0,61.0,18.0,0
1771,-252.0,57.0,15.0,0
1772,-252.0,57.0,15.0,0
1773,-250.0,56.0,16.0,0
1774,-251.0,58.0,17.0,0
1775,-251.0,58.0,19.0,0
1776,-251.0,59.0,19.0,0
1777,-251.0,58.0,21.0,0
1778,-253.0,59.0,19.0,0
1779,-251.0,56.0,19.0,0
1780,-251.0,56.0,20.0,0
1781,-249.0,60.0,17.0,0
1782,-252.0,58.0,15.0,0
1783,-252.0,58.0,17.0,0
1784,-253.0,59.0,18.0,0
1785,-251.0,59.0,18.0,0
1786,-250.0,55.0,18.0,0
1787,-253.0,58.0,19.0,0
1788,-252.0,60.0,16.0,0
1789,-254.0,57.0,21.0,0
1790,-250.0,57.0,17.0,0
1791,-248.0,55.0,14.0,0
1792,-252.0,53.0,17.0,0
1793,-248.0,56.0,17.0,0
1794,-254.0,61.0,18.0,0
1795,-250.0,55.0,15.0,0
1796,-251.0,55.0,15.0,0
1797,-250.0,57.0,17.0,0
1798,-250.0,59.0,16.0,0
1799,-252.0,55.0,17.0,0
1800,-250.0,57.0,18.0,0
1801,-247.0,58.0,17.0,0
1802,-252.0,58.0,20.0,0
1803,-249.0,58.0,17.0,0
1804,-250.0,59.0,16.0,0
1805,-250.0,56.0,20.0,0
1806,-252.0,59.0,20.0,0
1807,-251.0,57.0,17.0,0
1808,-250.0,56.0,18.0,0
1809,-249.0,57.0,19.0,0
1810,-252.0,58.0,20.0,0
1811,-251.0,56.0,21.0,0
1812,-249.0,58.0,19.0,0
1813,-251.0,58.0,19.0,0
1814,-252.0,55.0,22.0,0
1815,-252.0,57.0,16.0,0
1816,-249.0,61.0,17.0,0
1817,-248.0,58.0,18.0,0
1818,-247.0,56.0,18.0,0
1819,-247.0,56.0,21.0,0
1820,-251.0,55.0,18.0,0
1821,-251.0,55.0,19.0,0
1822,-250.0,54.0,22.0,0
1823,-249.0,58.0,20.0,0
1824,-252.0,57.0,19.0,0
1825,-250.0,60.0,17.0,0
1826,-252.0,57.0,21.0,0
1827,-250.0,58.0,17.0,0
1828,-250.0,55.0,16.0,0
1829,-250.0,55.0,18.0,0
1830,-249.0,58.0,14.0,0
1831,-254.0,60.0,13.0,0
1832,-252.0,57.0,19.0,0
1833,-247.0,58.0,17.0,0
1834,-248.0,58.0,17.0,0
1835,-248.0,59.0,17.0,0
1836,-253.0,60.0,17.0,0
1837,-246.0,58.0,20.0,0
1838,-251.0,57.0,22.0,0
1839,-252.0,57.0,26.0,0
1840,-249.0,56.0,20.0,0
1841,-250.0,59.0,19.0,0
1842,-253.0,61.0,15.0,0
1843,-252.0,62.0,16.0,0
1844,-252.0,58.0,19.0,0
1845,-251.0,56.0,17.0,0
1846,-252.0,56.0,21.0,0
1847,-251.0,60.0,13.0,0
1848,-250.0,59.0,17.0,0
1849,-249.0,60.0,20.0,0
1850,-248.0,59.0,16.0,0
1851,-251.0,62.0,16.0,0
1852,-248.0,60.0,19.0,0
1853,-247.0,56.0,19.0,0
1854,-253.0,58.0,16.0,0
1855,-249.0,59.0,22.0,0
1856,-251.0,62.0,23.0,0
1857,-246.0,60.0,20.0,0
1858,-250.0,61.0,18.0,0
1859,-252.0,60.0,16.0,0
1860,-253.0,60.0,18.0,0
1861,-252.0,56.0,16.0,0
1862,-250.0,59.0,19.0,0
1863,-254.0,57.0,20.0,0
1864,-253.0,61.0,22.0,0
1865,-253.0,58.0,18.0,0
1866,-250.0,56.0,17.0,0
1867,-249.0,58.0,17.0,0
1868,-251.0,61.0,21.0,0
1869,-250.0,59.0,14.0,0
1870,-250.0,58.0,18.0,0
1871,-249.0,57.0,20.0,0
1872,-251.0,58.0,17.0,0
1873,-248.0,58.0,17.0,0
1874,-250.0,58.0,18.0,0
1875,-250.0,60.0,16.0,0
1876,-254.0,56.0,15.0,0
1877,-251.0,59.0,15.0,0
1878,-252.0,59.0,20.0,0
1879,-254.0,58.0,18.0,0
1880,-252.0,61.0,16.0,0
1881,-250.0,58.0,19.0,0
1882,-248.0,58.0,18.0,0
1883,-250.0,61.0,21.0,0
1884,-251.0,58.0,19.0,0
1885,-247.0,56.0,18.0,0
1886,-249.0,58.0,19.0,0
1887,-248.0,58.0,21.0,0
1888,-250.0,56.0,18.0,0
1889,-250.0,58.0,20.0,0
1890,-247.0,54.0,22.0,0
1891,-251.0,57.0,20.0,0
1892,-249.0,57.0,20.0,0
1893,-251.0,59.0,18.0,0
1894,-248.0,55.0,18.0,0
1895,-250.0,57.0,22.0,0
1896,-251.0,56.0,18.0,0
1897,-249.0,59.0,19.0,0
1898,-248.0,56.0,19.0,0
1899,-250.0,58.0,21.0,0
1900,-250.0,61.0,16.0,0
1901,-250.0,59.0,15.0,0
1902,-251.0,58.0,23.0,0
1903,-250.0,61.0,16.0,0
1904,-249.0,59.0,20.0,0
1905,-252.0,61.0,20.0,0
1906,-251.0,60.0,19.0,0
1907,-253.0,64.0,26.0,0
1908,-249.0,58.0,16.0,0
1909,-251.0,57.0,19.0,0
1910,-247.0,60.0,20.0,0
1911,-250.0,58.0,14.0,0
1912,-250.0,63.0,24.0,0
1913,-247.0,57.0,19.0,0
1914,-249.0,59.0,20.0,0
1915,-251.0,58.0,18.0,0
1916,-250.0,60.0,17.0,0
1917,-251.0,61.0,22.0,0
1918,-249.0,58.0,21.0,0
1919,-251.0,58.0,25.0,0
1920,-250.0,60.0,20.0,0
1921,-249.0,59.0,21.0,0
1922,-248.0,61.0,22.0,0
1923,-248.0,58.0,18.0,0
1924,-248.0,57.0,19.0,0
1925,-250.0,61.0,20.0,0
1926,-250.0,57.0,18.0,0
1927,-251.0,62.0,17.0,0
1928,-248.0,62.0,19.0,0
1929,-250.0,63.0,19.0,0
1930,-247.0,59.0,20.0,0
1931,-248.0,58.0,20.0,0
1932,-252.0,61.0,20.0,0
1933,-248.0,59.0,22.0,0
1934,-251.0,60.0,23.0,0
1935,-243.0,63.0,14.0,0
1936,-252.0,60.0,19.0,0
1937,-251.0,62.0,19.0,0
1938,-249.0,58.0,20.0,0
1939,-253.0,60.0,17.0,0
1940,-251.0,60.0,16.0,0
1941,-250.0,59.0,20.0,0
1942,-248.0,59.0,18.0,0
1943,-247.0,61.0,19.0,0
1944,-251.0,59.0,16.0,0
1945,-247.0,59.0,19.0,0
1946,-248.0,54.0,20.0,0
1947,-252.0,58.0,23.0,0
1948,-249.0,55.0,20.0,0
1949,-251.0,56.0,23.0,0
1950,-251.0,54.0,19.0,0
1951,-254.0,57.0,19.0,0
1952,-252.0,59.0,22.0,0
1953,-250.0,60.0,20.0,0
1954,-251.0,56.0,17.0,0
1955,-254.0,56.0,21.0,0
1956,-251.0,56.0,18.0,0
1957,-258.0,59.0,20.0,0
1958,-250.0,57.0,16.0,0
1959,-248.0,59.0,16.0,0
1960,-250.0,58.0,16.0,0
1961,-253.0,59.0,16.0,0
1962,-251.0,58.0,18.0,0
1963,-250.0,58.0,19.0,0
1964,-248.0,59.0,21.0,0
1965,-251.0,61.0,20.0,0
1966,-251.0,60.0,18.0,0
1967,-250.0,61.0,20.0,0
1968,-253.0,63.0,21.0,0
1969,-253.0,59.0,19.0,0
1970,-253.0,60.0,20.0,0
1971,-251.0,61.0,21.0,0
1972,-250.0,58.0,21.0,0
1973,-248.0,57.0,22.0,0
1974,-252.0,61.0,22.0,0
1975,-250.0,59.0,20.0,0
1976,-248.0,58.0,20.0,0
1977,-249.0,59.0,22.0,0
1978,-245.0,64.0,21.0,0
1979,-248.0,59.0,24.0,0
1980,-249.0,57.0,21.0,0
1981,-249.0,57.0,23.0,0
1982,-251.0,61.0,19.0,0
1983,-250.0,62.0,23.0,0
1984,-249.0,57.0,19.0,0
1985,-250.0,60.0,18.0,0
1986,-248.0,61.0,18.0,0
1987,-253.0,61.0,19.0,0
1988,-250.0,61.0,19.0,0
1989,-248.0,60.0,22.0,0
1990,-249.0,60.0,19.0,0
1991,-250.0,62.0,18.0,0
1992,-248.0,59.0,22.0,0
1993,-248.0,59.0,20.0,0
1994,-250.0,62.0,19.0,0
1995,-249.0,61.0,22.0,0
1996,-251.0,61.0,22.0,0
1997,-250.0,61.0,20.0,0
1998,-250.0,60.0,21.0,0
1999,-250.0,62.0,19.0,0
2000,-242.0,61.0,18.0,0
2001,-250.0,59.0,19.0,0
2002,-248.0,62.0,18.0,0
2003,-250.0,60.0,21.0,0
2004,-249.0,60.0,21.0,0
2005,-248.0,59.0,20.0,0
2006,-252.0,58.0,22.0,0
2007,-251.0,59.0,21.0,0
2008,-249.0,62.0,24.0,0
2009,-249.0,60.0,22.0,0
2010,-250.0,60.0,20.0,0
2011,-249.0,60.0,22.0,0
2012,-247.0,59.0,20.0,0
2013,-250.0,59.0,20.0,0
2014,-253.0,62.0,23.0,0
2015,-249.0,62.0,23.0,0
2016,-250.0,60.0,23.0,0
2017,-250.0,63.0,20.0,0
2018,-251.0,62.0,24.0,0
2019,-250.0,62.0,26.0,0
2020,-249.0,62.0,19.0,0
2021,-248.0,61.0,22.0,0
2022,-245.0,61.0,23.0,0
2023,-248.0,61.0,21.0,0
2024,-251.0,62.0,22.0,0
2025,-249.0,62.0,22.0,0
2026,-250.0,64.0,23.0,0
2027,-249.0,62.0,22.0,0
2028,-250.0,64.0,21.0,0
2029,-249.0,65.0,20.0,0
2030,-249.0,58.0,24.0,0
2031,-249.0,61.0,21.0,0
2032,-251.0,62.0,18.0,0
2033,-250.0,61.0,21.0,0
2034,-249.0,61.0,21.0,0
2035,-250.0,62.0,23.0,0
2036,-250.0,61.0,21.0,0
2037,-254.0,62.0,24.0,0
2038,-249.0,59.0,18.0,0
2039,-248.0,58.0,19.0,0
2040,-249.0,60.0,19.0,0
2041,-248.0,61.0,24.0,0
2042,-251.0,62.0,20.0,0
2043,-252.0,64.0,23.0,0
2044,-245.0,66.0,29.0,0
2045,-253.0,61.0,25.0,0
2046,-248.0,63.0,20.0,0
2047,-250.0,65.0,24.0,0
2048,-248.0,59.0,19.0,0
2049,-248.0,60.0,24.0,0
2050,-249.0,63.0,22.0,0
2051,-252.0,63.0,21.0,0
2052,-249.0,63.0,17.0,0
2053,-247.0,62.0,21.0,0
2054,-249.0,62.0,24.0,0
2055,-251.0,63.0,22.0,0
2056,-250.0,63.0,19.0,0
2057,-246.0,63.0,20.0,0
2058,-251.0,61.0,23.0,0
2059,-247.0,63.0,22.0,0
2060,-247.0,58.0,21.0,0
2061,-248.0,63.0,22.0,0
2062,-250.0,60.0,21.0,0
2063,-249.0,63.0,22.0,0
2064,-254.0,58.0,22.0,0
2065,-248.0,63.0,21.0,0
2066,-248.0,63.0,18.0,0
2067,-250.0,64.0,19.0,0
2068,-250.0,60.0,23.0,0
2069,-247.0,65.0,23.0,0
2070,-249.0,62.0,23.0,0
2071,-250.0,65.0,21.0,0
2072,-249.0,64.0,26.0,0
2073,-248.0,61.0,23.0,0
2074,-252.0,64.0,23.0,0
2075,-248.0,60.0,23.0,0
2076,-249.0,65.0,18.0,0
2077,-248.0,63.0,18.0,0
2078,-250.0,64.0,23.0,0
2079,-250.0,62.0,21.0,0
2080,-250.0,63.0,22.0,0
2081,-247.0,63.0,20.0,0
2082,-246.0,60.0,22.0,0
2083,-250.0,62.0,22.0,0
2084,-248.0,60.0,21.0,0
2085,-253.0,63.0,17.0,0
2086,-249.0,63.0,22.0,0
2087,-256.0,66.0,24.0,0
2088,-250.0,64.0,21.0,0
2089,-246.0,65.0,22.0,0
2090,-248.0,64.0,25.0,0
2091,-246.0,61.0,24.0,0
2092,-251.0,63.0,23.0,0
2093,-249.0,61.0,22.0,0
2094,-246.0,60.0,26.0,0
2095,-248.0,61.0,23.0,0
2096,-246.0,63.0,19.0,0
2097,-247.0,67.0,23.0,0
2098,-253.0,63.0,26.0,0
2099,-249.0,63.0,23.0,0
2100,-245.0,62.0,24.0,0
2101,-245.0,62.0,23.0,0
2102,-246.0,63.0,22.0,0
2103,-248.0,64.0,20.0,0
2104,-248.0,65.0,25.0,0
2105,-248.0,63.0,24.0,0
2106,-248.0,63.0,22.0,0
2107,-249.0,62.0,22.0,0
2108,-246.0,63.0,26.0,0
2109,-257.0,62.0,22.0,0
2110,-253.0,64.0,21.0,0
2111,-248.0,64.0,24.0,0
2112,-245.0,60.0,24.0,0
2113,-248.0,65.0,21.0,0
2114,-248.0,64.0,26.0,0
2115,-248.0,62.0,22.0,0
2116,-249.0,66.0,22.0,0
2117,-251.0,61.0,20.0,0
2118,-252.0,63.0,23.0,0
2119,-241.0,63.0,20.0,0
2120,-247.0,65.0,23.0,0
2121,-246.0,66.0,24.0,0
2122,-244.0,63.0,24.0,0
2123,-246.0,62.0,24.0,0
2124,-248.0,64.0,25.0,0
2125,-249.0,63.0,26.0,0
2126,-247.0,62.0,28.0,0
2127,-249.0,66.0,22.0,0
2128,-248.0,67.0,28.0,0
2129,-246.0,64.0,25.0,0
2130,-246.0,63.0,24.0,0
2131,-246.0,63.0,20.0,0
2132,-248.0,65.0,27.0,0
2133,-248.0,62.0,25.0,0
2134,-248.0,62.0,29.0,0
2135,-250.0,66.0,26.0,0
2136,-248.0,63.0,22.0,0
2137,-248.0,62.0,25.0,0
2138,-249.0,62.0,23.0,0
2139,-248.0,65.0,28.0,0
2140,-249.0,64.0,24.0,0
2141,-247.0,63.0,24.0,0
2142,-249.0,65.0,22.0,0
2143,-247.0,61.0,27.0,0
2144,-247.0,63.0,24.0,0
2145,-250.0,65.0,24.0,0
2146,-250.0,63.0,26.0,0
2147,-249.0,60.0,25.0,0
2148,-247.0,59.0,23.0,0
2149,-248.0,63.0,18.0,0
2150,-249.0,61.0,28.0,0
2151,-249.0,61.0,23.0,0
2152,-245.0,59.0,22.0,0
2153,-245.0,56.0,16.0,0
2154,-252.0,65.0,21.0,0
2155,-247.0,60.0,20.0,0
2156,-253.0,65.0,25.0,0
2157,-249.0,67.0,18.0,0
2158,-257.0,67.0,25.0,0
2159,-247.0,64.0,22.0,0
2160,-246.0,64.0,27.0,0
2161,-245.0,64.0,18.0,0
2162,-246.0,66.0,21.0,0
2163,-251.0,66.0,22.0,0
2164,-249.0,69.0,26.0,0
2165,-247.0,63.0,23.0,0
2166,-245.0,66.0,27.0,0
2167,-247.0,66.0,22.0,0
2168,-246.0,69.0,21.0,0
2169,-251.0,66.0,25.0,0
2170,-251.0,67.0,25.0,0
2171,-246.0,66.0,29.0,0
2172,-246.0,65.0,26.0,0
2173,-245.0,67.0,23.0,0
2174,-249.0,66.0,22.0,0
2175,-248.0,65.0,23.0,0
2176,-249.0,64.0,21.0,0
2177,-248.0,64.0,23.0,0
2178,-249.0,63.0,29.0,0
2179,-248.0,63.0,24.0,0
2180,-247.0,63.0,23.0,0
2181,-246.0,62.0,24.0,0
2182,-246.0,63.0,28.0,0
2183,-246.0,64.0,25.0,0
2184,-247.0,61.0,25.0,0
2185,-245.0,62.0,25.0,0
2186,-245.0,64.0,22.0,0
2187,-244.0,63.0,21.0,0
2188,-249.0,66.0,26.0,0
2189,-250.0,67.0,31.0,0
2190,-248.0,67.0,26.0,0
2191,-245.0,64.0,26.0,0
2192,-248.0,67.0,23.0,0
2193,-247.0,69.0,27.0,0
2194,-248.0,69.0,26.0,0
2195,-246.0,66.0,25.0,0
2196,-244.0,64.0,30.0,0
2197,-251.0,66.0,25.0,0
2198,-248.0,68.0,26.0,0
2199,-246.0,66.0,26.0,0
2200,-245.0,64.0,26.0,0
2201,-246.0,68.0,24.0,0
2202,-247.0,66.0,25.0,0
2203,-247.0,64.0,24.0,0
2204,-246.0,66.0,25.0,0
2205,-250.0,67.0,25.0,0
2206,-246.0,67.0,25.0,0
2207,-247.0,66.0,27.0,0
2208,-246.0,64.0,24.0,0
2209,-249.0,66.0,24.0,0
2210,-248.0,66.0,23.0,0
2211,-244.0,65.0,23.0,0
2212,-245.0,63.0,26.0,0
2213,-245.0,63.0,25.0,0
2214,-248.0,65.0,27.0,0
2215,-245.0,63.0,26.0,0
2216,-247.0,67.0,25.0,0
2217,-249.0,67.0,25.0,0
2218,-248.0,63.0,24.0,0
2219,-248.0,67.0,26.0,0
2220,-247.0,67.0,26.0,0
2221,-246.0,65.0,24.0,0
2222,-247.0,65.0,27.0,0
2223,-247.0,65.0,26.0,0
2224,-247.0,64.0,26.0,0
2225,-248.0,66.0,22.0,0
2226,-250.0,64.0,21.0,0
2227,-248.0,67.0,22.0,0
2228,-246.0,64.0,23.0,0
2229,-250.0,65.0,24.0,0
2230,-249.0,64.0,21.0,0
2231,-248.0,62.0,24.0,0
2232,-249.0,64.0,27.0,0
2233,-247.0,64.0,26.0,0
2234,-247.0,63.0,24.0,0
2235,-247.0,64.0,29.0,0
2236,-245.0,65.0,28.0,0
2237,-248.0,63.0,26.0,0
2238,-249.0,62.0,27.0,0
2239,-249.0,64.0,22.0,0
2240,-249.0,66.0,26.0,0
2241,-249.0,66.0,25.0,0
2242,-248.0,65.0,24.0,0
2243,-247.0,62.0,29.0,0
2244,-244.0,61.0,26.0,0
2245,-250.0,63.0,24.0,0
2246,-248.0,65.0,30.0,0
2247,-248.0,67.0,25.0,0
2248,-250.0,67.0,25.0,0
2249,-249.0,61.0,26.0,0
2250,-249.0,67.0,24.0,0
2251,-250.0,65.0,23.0,0
2252,-247.0,66.0,26.0,0
2253,-248.0,65.0,27.0,0
2254,-249.0,60.0,24.0,0
2255,-247.0,63.0,22.0,0
2256,-247.0,65.0,22.0,0
2257,-250.0,67.0,23.0,0
2258,-248.0,59.0,24.0,0
2259,-249.0,65.0,24.0,0
2260,-249.0,64.0,24.0,0
2261,-247.0,64.0,22.0,0
2262,-249.0,69.0,21.0,0
2263,-250.0,66.0,22.0,0
2264,-248.0,67.0,23.0,0
2265,-247.0,65.0,24.0,0
2266,-249.0,65.0,25.0,0
2267,-248.0,63.0,21.0,0
2268,-249.0,63.0,21.0,0
2269,-247.0,63.0,25.0,0
2270,-247.0,60.0,24.0,0
2271,-249.0,64.0,24.0,0
2272,-245.0,60.0,26.0,0
2273,-250.0,64.0,25.0,0
2274,-249.0,64.0,22.0,0
2275,-249.0,62.0,23.0,0
2276,-247.0,61.0,26.0,0
2277,-253.0,64.0,25.0,0
2278,-247.0,64.0,27.0,0
2279,-251.0,63.0,23.0,0
2280,-247.0,63.0,23.0,0
2281,-250.0,64.0,23.0,0
2282,-248.0,63.0,23.0,0
2283,-240.0,63.0,27.0,0
2284,-248.0,63.0,21.0,0
2285,-249.0,66.0,24.0,0
2286,-247.0,67.0,26.0,0
2287,-249.0,63.0,22.0,0
2288,-248.0,62.0,23.0,0
2289,-248.0,65.0,23.0,0
2290,-248.0,64.0,22.0,0
2291,-247.0,62.0,25.0,0
2292,-246.0,67.0,25.0,0
2293,-247.0,64.0,25.0,0
2294,-248.0,64.0,21.0,0
2295,-247.0,62.0,26.0,0
2296,-248.0,64.0,25.0,0
2297,-247.0,67.0,24.0,0
2298,-249.0,63.0,26.0,0
2299,-249.0,64.0,25.0,0
2300,-250.0,63.0,23.0,0
2301,-247.0,63.0,22.0,0
2302,-247.0,60.0,26.0,0
2303,-247.0,63.0,24.0,0
2304,-249.0,63.0,21.0,0
2305,-243.0,64.0,20.0,0
2306,-247.0,61.0,23.0,0
2307,-248.0,62.0,21.0,0
2308,-248.0,63.0,27.0,0
2309,-250.0,63.0,24.0,0
2310,-248.0,63.0,27.0,0
2311,-247.0,60.0,22.0,0
2312,-250.0,63.0,25.0,0
2313,-248.0,60.0,27.0,0
2314,-246.0,63.0,27.0,0
2315,-249.0,61.0,25.0,0
2316,-249.0,64.0,23.0,0
2317,-246.0,62.0,23.0,0
2318,-250.0,64.0,21.0,0
2319,-249.0,63.0,25.0,0
2320,-250.0,65.0,26.0,0
2321,-247.0,64.0,22.0,0
2322,-248.0,62.0,22.0,0
2323,-247.0,58.0,19.0,0
2324,-246.0,61.0,21.0,0
2325,-248.0,61.0,24.0,0
2326,-248.0,60.0,21.0,0
2327,-250.0,63.0,23.0,0
2328,-251.0,60.0,23.0,0
2329,-250.0,60.0,23.0,0
2330,-252.0,60.0,22.0,0
2331,-252.0,59.0,20.0,0
2332,-252.0,60.0,23.0,0
2333,-255.0,59.0,23.0,0
2334,-253.0,61.0,17.0,0
2335,-252.0,61.0,21.0,0
2336,-250.0,59.0,20.0,0
2337,-249.0,59.0,21.0,0
2338,-251.0,61.0,19.0,0
2339,-250.0,61.0,18.0,0
2340,-250.0,61.0,18.0,0
2341,-253.0,60.0,24.0,0
2342,-251.0,60.0,20.0,0
2343,-248.0,61.0,22.0,0
2344,-246.0,63.0,22.0,0
2345,-249.0,64.0,20.0,0
2346,-248.0,58.0,20.0,0
2347,-246.0,61.0,23.0,0
2348,-247.0,62.0,18.0,0
2349,-253.0,60.0,26.0,0
2350,-248.0,64.0,20.0,0
2351,-249.0,64.0,21.0,0
2352,-251.0,61.0,23.0,0
2353,-248.0,64.0,19.0,0
2354,-250.0,59.0,21.0,0
2355,-249.0,63.0,19.0,0
2356,-249.0,61.0,21.0,0
2357,-249.0,59.0,18.0,0
2358,-249.0,62.0,18.0,0
2359,-248.0,59.0,21.0,0
2360,-250.0,59.0,24.0,0
2361,-251.0,62.0,19.0,0
2362,-251.0,60.0,18.0,0
2363,-250.0,62.0,21.0,0
2364,-249.0,58.0,17.0,0
2365,-246.0,60.0,21.0,0
2366,-248.0,59.0,22.0,0
2367,-253.0,59.0,22.0,0
2368,-249.0,61.0,21.0,0
2369,-251.0,61.0,22.0,0
2370,-251.0,55.0,23.0,0
2371,-249.0,59.0,19.0,0
2372,-252.0,62.0,24.0,0
2373,-250.0,60.0,22.0,0
2374,-248.0,58.0,21.0,0
2375,-250.0,61.0,23.0,0
2376,-254.0,63.0,22.0,0
2377,-249.0,59.0,16.0,0
2378,-250.0,58.0,22.0,0
2379,-250.0,58.0,20.0,0
2380,-249.0,58.0,18.0,0
2381,-249.0,58.0,19.0,0
2382,-253.0,62.0,20.0,0
2383,-252.0,63.0,20.0,0
2384,-250.0,61.0,18.0,0
2385,-247.0,59.0,17.0,0
2386,-249.0,58.0,17.0,0
2387,-252.0,60.0,15.0,0
2388,-249.0,58.0,18.0,0
2389,-250.0,59.0,17.0,0
2390,-250.0,59.0,15.0,0
2391,-251.0,61.0,14.0,0
2392,-248.0,61.0,15.0,0
2393,-248.0,57.0,20.0,0
2394,-248.0,58.0,23.0,0
2395,-252.0,61.0,16.0,0
2396,-249.0,61.0,16.0,0
2397,-247.0,59.0,20.0,0
2398,-251.0,61.0,21.0,0
2399,-252.0,60.0,17.0,0
2400,-247.0,58.0,17.0,0
2401,-251.0,60.0,16.0,0
2402,-249.0,60.0,19.0,0
2403,-249.0,59.0,16.0,0
2404,-251.0,61.0,16.0,0
2405,-250.0,60.0,20.0,0
2406,-251.0,58.0,18.0,0
2407,-250.0,58.0,20.0,0
2408,-250.0,56.0,16.0,0
2409,-249.0,55.0,22.0,0
2410,-250.0,56.0,17.0,0
2411,-251.0,55.0,16.0,0
2412,-250.0,55.0,16.0,0
2413,-251.0,57.0,18.0,0
2414,-254.0,58.0,12.0,0
2415,-251.0,56.0,19.0,0
2416,-251.0,58.0,18.0,0
2417,-253.0,56.0,22.0,0
2418,-253.0,55.0,18.0,0
2419,-252.0,58.0,15.0,0
2420,-253.0,56.0,16.0,0
2421,-252.0,55.0,19.0,0
2422,-253.0,56.0,15.0,0
2423,-250.0,55.0,18.0,0
2424,-253.0,54.0,16.0,0
2425,-250.0,57.0,15.0,0
2426,-251.0,56.0,18.0,0
2427,-252.0,53.0,16.0,0
2428,-250.0,54.0,12.0,0
2429,-250.0,56.0,13.0,0
2430,-253.0,56.0,11.0,0
2431,-253.0,58.0,13.0,0
2432,-253.0,54.0,14.0,0
2433,-253.0,58.0,9.0,0
2434,-253.0,61.0,11.0,0
2435,-251.0,57.0,11.0,0
2436,-252.0,58.0,10.0,0
2437,-253.0,59.0,12.0,0
2438,-250.0,59.0,11.0,0
2439,-252.0,59.0,14.0,0
2440,-251.0,59.0,12.0,0
2441,-250.0,58.0,8.0,0
2442,-250.0,58.0,11.0,0
2443,-249.0,59.0,15.0,0
2444,-251.0,55.0,16.0,0
2445,-251.0,57.0,16.0,0
2446,-250.0,57.0,17.0,0
2447,-252.0,55.0,18.0,0
2448,-252.0,56.0,16.0,0
2449,-251.0,58.0,14.0,0
2450,-251.0,55.0,15.0,0
2451,-250.0,57.0,16.0,0
2452,-249.0,53.0,14.0,0
2453,-248.0,54.0,10.0,0
2454,-251.0,55.0,13.0,0
2455,-255.0,57.0,12.0,0
2456,-251.0,56.0,13.0,0
2457,-252.0,57.0,14.0,0
2458,-248.0,56.0,13.0,0
2459,-254.0,57.0,14.0,0
2460,-250.0,57.0,11.0,0
2461,-249.0,59.0,12.0,0
2462,-253.0,59.0,13.0,0
2463,-253.0,59.0,9.0,0
2464,-253.0,59.0,11.0,0
2465,-256.0,60.0,14.0,0
2466,-251.0,58.0,15.0,0
2467,-251.0,56.0,15.0,0
2468,-252.0,58.0,17.0,0
2469,-252.0,58.0,13.0,0
2470,-251.0,61.0,13.0,0
2471,-250.0,56.0,18.0,0
2472,-251.0,57.0,11.0,0
2473,-249.0,57.0,15.0,0
2474,-253.0,57.0,16.0,0
2475,-249.0,58.0,16.0,0
2476,-249.0,58.0,13.0,0
2477,-251.0,61.0,15.0,0
2478,-255.0,59.0,16.0,0
2479,-250.0,57.0,16.0,0
2480,-250.0,55.0,16.0,0
2481,-252.0,61.0,17.0,0
2482,-249.0,59.0,13.0,0
2483,-251.0,55.0,14.0,0
2484,-251.0,57.0,16.0,0
2485,-253.0,57.0,12.0,0
2486,-253.0,60.0,18.0,0
2487,-251.0,56.0,16.0,0
2488,-250.0,55.0,13.0,0
2489,-253.0,57.0,13.0,0
2490,-253.0,55.0,16.0,0
2491,-250.0,57.0,11.0,0
2492,-252.0,55.0,12.0,0
2493,-250.0,57.0,13.0,0
2494,-252.0,59.0,12.0,0
2495,-253.0,62.0,12.0,0
2496,-249.0,58.0,15.0,0
2497,-254.0,58.0,15.0,0
2498,-251.0,57.0,13.0,0
2499,-250.0,57.0,16.0,0
2500,-251.0,57.0,19.0,0
2501,-249.0,59.0,17.0,0
2502,-248.0,58.0,14.0,0
2503,-251.0,58.0,19.0,0
2504,-251.0,56.0,16.0,0
2505,-251.0,61.0,19.0,0
2506,-252.0,58.0,14.0,0
2507,-252.0,59.0,15.0,0
2508,-249.0,59.0,15.0,0
2509,-249.0,57.0,15.0,0
2510,-249.0,57.0,19.0,0
2511,-250.0,59.0,15.0,0
2512,-249.0,57.0,16.0,0
2513,-251.0,60.0,17.0,0
2514,-252.0,59.0,15.0,0
2515,-251.0,59.0,16.0,0
2516,-250.0,60.0,16.0,0
2517,-251.0,60.0,16.0,0
2518,-254.0,61.0,13.0,0
2519,-249.0,58.0,17.0,0
2520,-247.0,61.0,18.0,0
2521,-251.0,59.0,13.0,0
2522,-249.0,54.0,15.0,0
2523,-251.0,61.0,16.0,0
2524,-253.0,60.0,17.0,0
2525,-253.0,59.0,15.0,0
2526,-251.0,58.0,13.0,0
2527,-250.0,60.0,15.0,0
2528,-251.0,56.0,17.0,0
2529,-251.0,59.0,13.0,0
2530,-249.0,60.0,16.0,0
2531,-249.0,59.0,15.0,0
2532,-253.0,58.0,13.0,0
2533,-250.0,57.0,17.0,0
2534,-250.0,57.0,13.0,0
2535,-252.0,59.0,18.0,0
2536,-251.0,58.0,17.0,0
2537,-250.0,57.0,18.0,0
2538,-251.0,57.0,17.0,0
2539,-253.0,59.0,18.0,0
2540,-252.0,59.0,15.0,0
2541,-250.0,56.0,15.0,0
2542,-251.0,58.0,16.0,0
2543,-251.0,58.0,16.0,0
2544,-252.0,58.0,13.0,0
2545,-251.0,59.0,16.0,0
2546,-248.0,61.0,15.0,0
2547,-251.0,58.0,16.0,0
2548,-252.0,59.0,21.0,0
2549,-250.0,59.0,18.0,0
2550,-252.0,59.0,13.0,0
2551,-251.0,57.0,17.0,0
2552,-252.0,59.0,13.0,0
2553,-252.0,58.0,14.0,0
2554,-252.0,60.0,17.0,0
2555,-249.0,58.0,18.0,0
2556,-252.0,58.0,12.0,0
2557,-251.0,58.0,18.0,0
2558,-255.0,57.0,17.0,0
2559,-255.0,60.0,18.0,0
2560,-251.0,58.0,16.0,0
2561,-250.0,58.0,13.0,0
2562,-251.0,59.0,11.0,0
2563,-251.0,58.0,19.0,0
2564,-250.0,57.0,18.0,0
2565,-251.0,58.0,15.0,0
2566,-249.0,58.0,20.0,0
2567,-252.0,60.0,18.0,0
2568,-253.0,61.0,22.0,0
2569,-251.0,59.0,16.0,0
2570,-250.0,58.0,17.0,0
2571,-250.0,57.0,19.0,0
2572,-251.0,59.0,22.0,0
2573,-251.0,59.0,17.0,0
2574,-255.0,62.0,16.0,0
2575,-248.0,58.0,16.0,0
2576,-252.0,57.0,14.0,0
2577,-252.0,56.0,16.0,0
2578,-252.0,63.0,15.0,0
2579,-251.0,61.0,15.0,0
2580,-253.0,62.0,17.0,0
2581,-253.0,61.0,15.0,0
2582,-251.0,61.0,17.0,0
2583,-250.0,59.0,16.0,0
2584,-251.0,59.0,20.0,0
2585,-252.0,61.0,19.0,0
2586,-250.0,60.0,12.0,0
2587,-252.0,63.0,17.0,0
2588,-252.0,63.0,13.0,0
2589,-249.0,63.0,17.0,0
2590,-250.0,62.0,18.0,0
2591,-249.0,59.0,17.0,0
2592,-253.0,61.0,17.0,0
2593,-252.0,60.0,12.0,0
2594,-248.0,59.0,16.0,0
2595,-249.0,59.0,19.0,0
2596,-248.0,60.0,21.0,0
2597,-252.0,62.0,22.0,0
2598,-251.0,60.0,19.0,0
2599,-252.0,61.0,14.0,0
2600,-251.0,61.0,17.0,0
2601,-250.0,59.0,17.0,0
2602,-252.0,59.0,17.0,0
2603,-249.0,58.0,17.0,0
2604,-250.0,60.0,16.0,0
2605,-251.0,60.0,15.0,0
2606,-248.0,60.0,16.0,0
2607,-249.0,59.0,18.0,0
2608,-252.0,57.0,13.0,0
2609,-248.0,60.0,20.0,0
2610,-252.0,61.0,16.0,0
2611,-250.0,59.0,19.0,0
2612,-253.0,62.0,19.0,0
2613,-252.0,58.0,20.0,0
2614,-250.0,60.0,13.0,0
2615,-251.0,58.0,19.0,0
2616,-252.0,60.0,15.0,0
2617,-253.0,59.0,16.0,0
2618,-251.0,59.0,18.0,0
2619,-250.0,60.0,18.0,0
2620,-248.0,57.0,15.0,0
2621,-250.0,61.0,15.0,0
2622,-250.0,60.0,16.0,0
2623,-250.0,60.0,16.0,0
2624,-250.0,59.0,19.0,0
2625,-251.0,60.0,17.0,0
2626,-250.0,59.0,20.0,0
2627,-253.0,58.0,18.0,0
2628,-252.0,58.0,19.0,0
2629,-252.0,61.0,20.0,0
2630,-252.0,61.0,20.0,0
2631,-250.0,61.0,23.0,0
2632,-250.0,60.0,15.0,0
2633,-251.0,58.0,20.0,0
2634,-250.0,58.0,17.0,0
2635,-249.0,59.0,21.0,0
2636,-251.0,60.0,14.0,0
2637,-250.0,60.0,16.0,0
2638,-249.0,58.0,18.0,0
2639,-249.0,59.0,17.0,0
2640,-248.0,59.0,16.0,0
2641,-251.0,60.0,12.0,0
2642,-251.0,62.0,18.0,0
2643,-249.0,62.0,18.0,0
2644,-253.0,60.0,20.0,0
2645,-253.0,59.0,16.0,0
2646,-247.0,60.0,16.0,0
2647,-250.0,60.0,19.0,0
2648,-250.0,60.0,18.0,0
2649,-250.0,59.0,16.0,0
2650,-250.0,59.0,19.0,0
2651,-251.0,59.0,18.0,0
2652,-250.0,61.0,18.0,0
2653,-248.0,58.0,17.0,0
2654,-249.0,60.0,19.0,0
2655,-250.0,61.0,18.0,0
2656,-248.0,61.0,18.0,0
2657,-247.0,59.0,23.0,0
2658,-250.0,61.0,21.0,0
2659,-252.0,63.0,15.0,0
2660,-251.0,60.0,14.0,0
2661,-247.0,58.0,18.0,0
2662,-252.0,61.0,21.0,0
2663,-249.0,64.0,16.0,0
2664,-252.0,65.0,19.0,0
2665,-250.0,63.0,16.0,0
2666,-249.0,61.0,19.0,0
2667,-251.0,61.0,19.0,0
2668,-251.0,61.0,16.0,0
2669,-250.0,59.0,16.0,0
2670,-250.0,61.0,20.0,0
2671,-249.0,61.0,19.0,0
2672,-249.0,62.0,14.0,0
2673,-249.0,62.0,18.0,0
2674,-251.0,62.0,14.0,0
2675,-252.0,61.0,18.0,0
2676,-252.0,61.0,19.0,0
2677,-248.0,63.0,17.0,0
2678,-252.0,63.0,16.0,0
2679,-252.0,62.0,14.0,0
2680,-250.0,62.0,18.0,0
2681,-253.0,63.0,17.0,0
2682,-251.0,61.0,17.0,0
2683,-247.0,58.0,23.0,0
2684,-247.0,60.0,20.0,0
2685,-253.0,64.0,16.0,0
2686,-253.0,63.0,18.0,0
2687,-250.0,61.0,18.0,0
2688,-254.0,61.0,18.0,0
2689,-250.0,60.0,18.0,0
2690,-249.0,56.0,16.0,0
2691,-248.0,60.0,17.0,0
2692,-249.0,60.0,17.0,0
2693,-250.0,62.0,18.0,0
2694,-247.0,61.0,16.0,0
2695,-252.0,59.0,20.0,0
2696,-253.0,59.0,17.0,0
2697,-249.0,59.0,16.0,0
2698,-252.0,57.0,13.0,0
2699,-250.0,58.0,21.0,0
2700,-252.0,59.0,16.0,0
2701,-252.0,59.0,19.0,0
2702,-253.0,60.0,22.0,0
2703,-252.0,60.0,16.0,0
2704,-254.0,60.0,18.0,0
2705,-253.0,60.0,16.0,0
2706,-251.0,59.0,21.0,0
2707,-258.0,58.0,20.0,0
2708,-252.0,59.0,16.0,0
2709,-251.0,61.0,15.0,0
2710,-248.0,59.0,16.0,0
2711,-250.0,62.0,16.0,0
2712,-250.0,60.0,14.0,0
2713,-252.0,62.0,16.0,0
2714,-248.0,63.0,18.0,0
2715,-248.0,65.0,16.0,0
2716,-250.0,64.0,18.0,0
2717,-249.0,64.0,16.0,0
2718,-251.0,61.0,18.0,0
2719,-252.0,65.0,18.0,0
2720,-250.0,65.0,21.0,0
2721,-249.0,65.0,21.0,0
2722,-250.0,65.0,19.0,0
2723,-251.0,67.0,20.0,0
2724,-247.0,64.0,21.0,0
2725,-249.0,66.0,19.0,0
2726,-249.0,65.0,20.0,0
2727,-248.0,64.0,21.0,0
2728,-249.0,65.0,24.0,0
2729,-251.0,63.0,18.0,0
2730,-248.0,61.0,18.0,0
2731,-248.0,63.0,16.0,0
2732,-248.0,63.0,21.0,0
2733,-248.0,62.0,22.0,0
2734,-249.0,62.0,22.0,0
2735,-248.0,63.0,19.0,0
2736,-250.0,63.0,22.0,0
2737,-251.0,62.0,21.0,0
2738,-251.0,62.0,20.0,0
2739,-250.0,63.0,19.0,0
2740,-247.0,65.0,18.0,0
2741,-248.0,62.0,18.0,0
2742,-250.0,62.0,19.0,0
2743,-248.0,64.0,18.0,0
2744,-250.0,65.0,15.0,0
2745,-250.0,65.0,21.0,0
2746,-248.0,65.0,22.0,0
2747,-248.0,62.0,20.0,0
2748,-245.0,64.0,22.0,0
2749,-249.0,64.0,20.0,0
2750,-249.0,64.0,20.0,0
2751,-252.0,64.0,16.0,0
2752,-250.0,63.0,18.0,0
2753,-250.0,64.0,22.0,0
2754,-247.0,64.0,15.0,0
2755,-248.0,62.0,17.0,0
2756,-250.0,62.0,18.0,0
2757,-250.0,62.0,19.0,0
2758,-250.0,64.0,18.0,0
2759,-251.0,63.0,21.0,0
2760,-250.0,60.0,17.0,0
2761,-248.0,61.0,19.0,0
2762,-248.0,62.0,16.0,0
2763,-249.0,63.0,16.0,0
2764,-248.0,61.0,20.0,0
2765,-248.0,60.0,14.0,0
2766,-251.0,62.0,19.0,0
2767,-250.0,64.0,20.0,0
2768,-248.0,60.0,20.0,0
2769,-249.0,63.0,18.0,0
2770,-249.0,63.0,19.0,0
2771,-250.0,65.0,18.0,0
2772,-251.0,65.0,19.0,0
2773,-251.0,60.0,21.0,0
2774,-249.0,67.0,18.0,0
2775,-251.0,64.0,18.0,0
2776,-247.0,63.0,21.0,0
2777,-247.0,65.0,22.0,0
2778,-248.0,65.0,25.0,0
2779,-249.0,65.0,20.0,0
2780,-250.0,68.0,20.0,0
2781,-249.0,63.0,20.0,0
2782,-246.0,65.0,22.0,0
2783,-246.0,62.0,19.0,0
2784,-246.0,65.0,16.0,0
2785,-246.0,62.0,19.0,0
2786,-246.0,64.0,23.0,0
2787,-250.0,64.0,17.0,0
2788,-249.0,64.0,20.0,0
2789,-250.0,63.0,26.0,0
2790,-249.0,64.0,20.0,0
2791,-250.0,65.0,16.0,0
2792,-249.0,65.0,18.0,0
2793,-248.0,65.0,21.0,0
2794,-249.0,62.0,18.0,0
2795,-248.0,62.0,22.0,0
2796,-248.0,67.0,18.0,0
2797,-248.0,66.0,19.0,0
2798,-248.0,62.0,20.0,0
2799,-248.0,67.0,22.0,0
2800,-252.0,66.0,26.0,0
2801,-249.0,64.0,21.0,0
2802,-247.0,68.0,15.0,0
2803,-246.0,65.0,23.0,0
2804,-248.0,66.0,21.0,0
2805,-253.0,72.0,18.0,0
2806,-255.0,65.0,24.0,0
2807,-248.0,65.0,20.0,0
2808,-250.0,66.0,20.0,0
2809,-252.0,65.0,16.0,0
2810,-251.0,63.0,18.0,0
2811,-249.0,66.0,17.0,0
2812,-249.0,64.0,20.0,0
2813,-247.0,61.0,22.0,0
2814,-247.0,63.0,19.0,0
2815,-248.0,62.0,17.0,0
2816,-249.0,65.0,21.0,0
2817,-246.0,61.0,15.0,0
2818,-250.0,64.0,16.0,0
2819,-251.0,67.0,21.0,0
2820,-251.0,65.0,21.0,0
2821,-249.0,67.0,22.0,0
2822,-248.0,64.0,21.0,0
2823,-247.0,63.0,20.0,0
2824,-250.0,65.0,20.0,0
2825,-248.0,66.0,24.0,0
2826,-250.0,64.0,20.0,0
2827,-247.0,67.0,21.0,0
2828,-238.0,69.0,24.0,0
2829,-247.0,68.0,23.0,0
2830,-249.0,68.0,23.0,0
2831,-246.0,65.0,24.0,0
2832,-249.0,67.0,24.0,0
2833,-245.0,66.0,22.0,0
2834,-246.0,66.0,21.0,0
2835,-248.0,65.0,23.0,0
2836,-245.0,66.0,23.0,0
2837,-248.0,66.0,25.0,0
2838,-249.0,68.0,20.0,0
2839,-246.0,64.0,25.0,0
2840,-249.0,65.0,24.0,0
2841,-249.0,67.0,22.0,0
2842,-249.0,64.0,25.0,0
2843,-248.0,65.0,25.0,0
2844,-248.0,66.0,25.0,0
2845,-248.0,66.0,19.0,0
2846,-249.0,65.0,23.0,0
2847,-245.0,65.0,23.0,0
2848,-247.0,66.0,24.0,0
2849,-248.0,65.0,25.0,0
2850,-247.0,71.0,23.0,0
2851,-247.0,68.0,23.0,0
2852,-248.0,67.0,23.0,0
2853,-246.0,70.0,19.0,0
2854,-248.0,69.0,26.0,0
2855,-247.0,65.0,23.0,0
2856,-244.0,65.0,23.0,0
2857,-247.0,66.0,24.0,0
2858,-245.0,68.0,25.0,0
2859,-246.0,67.0,24.0,0
2860,-246.0,63.0,23.0,0
2861,-249.0,65.0,20.0,0
2862,-250.0,68.0,22.0,0
2863,-248.0,68.0,26.0,0
2864,-248.0,67.0,20.0,0
2865,-246.0,67.0,18.0,0
2866,-248.0,65.0,18.0,0
2867,-247.0,64.0,22.0,0
2868,-248.0,66.0,19.0,0
2869,-246.0,69.0,22.0,0
2870,-248.0,68.0,22.0,0
2871,-247.0,65.0,20.0,0
2872,-245.0,66.0,27.0,0
2873,-247.0,68.0,23.0,0
2874,-248.0,63.0,22.0,0
2875,-248.0,64.0,22.0,0
2876,-249.0,64.0,20.0,0
2877,-248.0,66.0,22.0,0
2878,-250.0,66.0,22.0,0
2879,-246.0,64.0,21.0,0
2880,-248.0,65.0,24.0,0
2881,-249.0,67.0,26.0,0
2882,-247.0,64.0,23.0,0
2883,-249.0,63.0,27.0,0
2884,-247.0,66.0,22.0,0
2885,-248.0,65.0,25.0,0
2886,-250.0,63.0,19.0,0
2887,-248.0,69.0,23.0,0
2888,-250.0,67.0,21.0,0
2889,-249.0,67.0,24.0,0
2890,-248.0,64.0,21.0,0
2891,-250.0,66.0,22.0,0
2892,-248.0,68.0,23.0,0
2893,-247.0,65.0,19.0,0
2894,-248.0,65.0,25.0,0
2895,-245.0,63.0,26.0,0
2896,-248.0,64.0,22.0,0
2897,-246.0,65.0,21.0,0
2898,-248.0,64.0,19.0,0
2899,-248.0,66.0,23.0,0
2900,-249.0,66.0,21.0,0
2901,-250.0,65.0,20.0,0
2902,-248.0,68.0,22.0,0
2903,-249.0,64.0,23.0,0
2904,-250.0,66.0,22.0,0
2905,-251.0,64.0,23.0,0
2906,-248.0,62.0,23.0,0
2907,-249.0,63.0,24.0,0
2908,-245.0,65.0,22.0,0
2909,-248.0,66.0,20.0,0
2910,-250.0,64.0,22.0,0
2911,-247.0,64.0,22.0,0
2912,-248.0,62.0,19.0,0
2913,-249.0,63.0,23.0,0
2914,-246.0,63.0,25.0,0
2915,-240.0,63.0,33.0,0
2916,-248.0,63.0,28.0,0
2917,-249.0,63.0,29.0,0
2918,-250.0,62.0,28.0,0
2919,-248.0,66.0,24.0,0
2920,-250.0,67.0,20.0,0
2921,-249.0,67.0,18.0,0
2922,-248.0,66.0,22.0,0
2923,-250.0,66.0,18.0,0
2924,-247.0,65.0,19.0,0
2925,-247.0,65.0,23.0,0
2926,-246.0,62.0,21.0,0
2927,-248.0,64.0,24.0,0
2928,-249.0,65.0,19.0,0
2929,-249.0,66.0,24.0,0
2930,-248.0,64.0,24.0,0
2931,-247.0,62.0,25.0,0
2932,-250.0,69.0,22.0,0
2933,-249.0,67.0,25.0,0
2934,-247.0,65.0,27.0,0
2935,-248.0,64.0,23.0,0
2936,-248.0,63.0,21.0,0
2937,-250.0,67.0,26.0,0
2938,-251.0,63.0,24.0,0
2939,-250.0,65.0,21.0,0
2940,-248.0,61.0,21.0,0
2941,-249.0,66.0,21.0,0
2942,-247.0,62.0,21.0,0
2943,-248.0,65.0,22.0,0
2944,-249.0,65.0,20.0,0
2945,-248.0,66.0,19.0,0
2946,-250.0,64.0,21.0,0
2947,-248.0,64.0,20.0,0
2948,-249.0,65.0,17.0,0
2949,-250.0,63.0,19.0,0
2950,-250.0,65.0,22.0,0
2951,-250.0,67.0,22.0,0
2952,-247.0,62.0,21.0,0
2953,-249.0,65.0,21.0,0
2954,-248.0,61.0,22.0,0
2955,-251.0,63.0,19.0,0
2956,-246.0,62.0,22.0,0
2957,-251.0,65.0,19.0,0
2958,-249.0,61.0,20.0,0
2959,-246.0,66.0,14.0,0
2960,-247.0,63.0,18.0,0
2961,-248.0,64.0,19.0,0
2962,-249.0,64.0,20.0,0
2963,-250.0,63.0,20.0,0
2964,-249.0,64.0,19.0,0
2965,-250.0,63.0,18.0,0
2966,-245.0,62.0,17.0,0
2967,-247.0,61.0,18.0,0
2968,-251.0,65.0,23.0,0
2969,-252.0,67.0,21.0,0
2970,-248.0,61.0,21.0,0
2971,-248.0,61.0,24.0,0
2972,-248.0,61.0,19.0,0
2973,-251.0,64.0,20.0,0
2974,-251.0,61.0,19.0,0
2975,-249.0,60.0,24.0,0
2976,-250.0,64.0,19.0,0
2977,-245.0,63.0,17.0,0
2978,-249.0,64.0,22.0,0
2979,-247.0,63.0,21.0,0
2980,-248.0,66.0,21.0,0
2981,-244.0,57.0,23.0,0
2982,-248.0,65.0,22.0,0
2983,-247.0,66.0,22.0,0
2984,-247.0,64.0,23.0,0
2985,-249.0,65.0,23.0,0
2986,-248.0,65.0,25.0,0
2987,-246.0,65.0,21.0,0
2988,-250.0,65.0,19.0,0
2989,-250.0,67.0,20.0,0
2990,-247.0,63.0,20.0,0
2991,-253.0,57.0,22.0,0
2992,-248.0,62.0,19.0,0
2993,-250.0,63.0,23.0,0
2994,-248.0,63.0,20.0,0
2995,-244.0,62.0,23.0,0
2996,-248.0,62.0,20.0,0
2997,-251.0,62.0,22.0,0
2998,-246.0,63.0,21.0,0
2999,-247.0,61.0,24.0,0
