,accelerometer_x,accelerometer_y,accelerometer_z,fall
0,-48.0,-234.0,-124.0,0
1,-50.0,-240.0,-129.0,0
2,-47.0,-237.0,-126.0,0
3,-43.0,-239.0,-130.0,0
4,-47.0,-240.0,-130.0,0
5,-49.0,-239.0,-133.0,0
6,-47.0,-239.0,-128.0,0
7,-45.0,-236.0,-129.0,0
8,-45.0,-241.0,-127.0,0
9,-44.0,-235.0,-126.0,0
10,-42.0,-231.0,-125.0,0
11,-45.0,-226.0,-123.0,0
12,-44.0,-222.0,-123.0,0
13,-41.0,-221.0,-122.0,0
14,-45.0,-214.0,-123.0,0
15,-38.0,-213.0,-130.0,0
16,-39.0,-213.0,-119.0,0
17,-38.0,-211.0,-118.0,0
18,-41.0,-212.0,-117.0,0
19,-41.0,-214.0,-115.0,0
20,-39.0,-213.0,-117.0,0
21,-37.0,-215.0,-115.0,0
22,-41.0,-214.0,-115.0,0
23,-40.0,-215.0,-117.0,0
24,-43.0,-222.0,-119.0,0
25,-44.0,-221.0,-118.0,0
26,-47.0,-225.0,-119.0,0
27,-50.0,-226.0,-121.0,0
28,-54.0,-224.0,-117.0,0
29,-50.0,-228.0,-117.0,0
30,-54.0,-227.0,-119.0,0
31,-55.0,-226.0,-113.0,0
32,-59.0,-225.0,-117.0,0
33,-57.0,-225.0,-115.0,0
34,-54.0,-227.0,-118.0,0
35,-55.0,-229.0,-118.0,0
36,-53.0,-231.0,-117.0,0
37,-57.0,-227.0,-117.0,0
38,-53.0,-229.0,-112.0,0
39,-54.0,-227.0,-114.0,0
40,-56.0,-223.0,-111.0,0
41,-54.0,-220.0,-112.0,0
42,-56.0,-215.0,-113.0,0
43,-54.0,-215.0,-113.0,0
44,-54.0,-218.0,-110.0,0
45,-52.0,-220.0,-108.0,0
46,-55.0,-226.0,-102.0,0
47,-57.0,-237.0,-89.0,0
48,-52.0,-241.0,-88.0,0
49,-50.0,-245.0,-86.0,0
50,-49.0,-249.0,-86.0,0
51,-50.0,-248.0,-87.0,0
52,-55.0,-247.0,-91.0,0
53,-58.0,-245.0,-91.0,0
54,-59.0,-241.0,-99.0,0
55,-63.0,-232.0,-104.0,0
56,-64.0,-224.0,-103.0,0
57,-64.0,-218.0,-107.0,0
58,-62.0,-213.0,-106.0,0
59,-60.0,-207.0,-103.0,0
60,-55.0,-208.0,-103.0,0
61,-54.0,-205.0,-102.0,0
62,-49.0,-202.0,-104.0,0
63,-43.0,-196.0,-109.0,0
64,-36.0,-195.0,-111.0,0
65,-44.0,-185.0,-120.0,0
66,-48.0,-179.0,-130.0,0
67,-49.0,-169.0,-130.0,0
68,-55.0,-168.0,-145.0,0
69,-61.0,-169.0,-149.0,0
70,-62.0,-169.0,-146.0,0
71,-62.0,-181.0,-146.0,0
72,-64.0,-194.0,-146.0,0
73,-59.0,-211.0,-137.0,0
74,-50.0,-230.0,-134.0,0
75,-37.0,-247.0,-128.0,0
76,-27.0,-256.0,-125.0,0
77,-16.0,-274.0,-122.0,0
78,-6.0,-284.0,-118.0,0
79,-1.0,-294.0,-116.0,0
80,0.0,-303.0,-117.0,0
81,4.0,-304.0,-118.0,0
82,1.0,-304.0,-115.0,0
83,0.0,-297.0,-110.0,0
84,0.0,-290.0,-106.0,0
85,-9.0,-279.0,-102.0,0
86,-14.0,-269.0,-97.0,0
87,-25.0,-253.0,-93.0,0
88,-32.0,-233.0,-91.0,0
89,-39.0,-218.0,-88.0,0
90,-47.0,-205.0,-83.0,0
91,-53.0,-196.0,-89.0,0
92,-58.0,-191.0,-94.0,0
93,-61.0,-189.0,-97.0,0
94,-62.0,-186.0,-100.0,0
95,-64.0,-190.0,-101.0,0
96,-65.0,-192.0,-100.0,0
97,-64.0,-200.0,-101.0,0
98,-62.0,-209.0,-101.0,0
99,-58.0,-214.0,-101.0,0
100,-55.0,-221.0,-102.0,0
101,-50.0,-229.0,-107.0,0
102,-49.0,-235.0,-112.0,0
103,-44.0,-238.0,-110.0,0
104,-42.0,-242.0,-113.0,0
105,-37.0,-244.0,-115.0,0
106,-39.0,-248.0,-120.0,0
107,-38.0,-249.0,-122.0,0
108,-35.0,-253.0,-127.0,0
109,-34.0,-252.0,-125.0,0
110,-31.0,-257.0,-131.0,0
111,-29.0,-255.0,-128.0,0
112,-28.0,-256.0,-127.0,0
113,-29.0,-250.0,-124.0,0
114,-28.0,-249.0,-123.0,0
115,-29.0,-247.0,-118.0,0
116,-29.0,-242.0,-115.0,0
117,-28.0,-235.0,-112.0,0
118,-31.0,-228.0,-108.0,0
119,-32.0,-224.0,-109.0,0
120,-32.0,-219.0,-107.0,0
121,-34.0,-214.0,-103.0,0
122,-36.0,-213.0,-102.0,0
123,-38.0,-213.0,-97.0,0
124,-32.0,-212.0,-97.0,0
125,-42.0,-209.0,-97.0,0
126,-43.0,-211.0,-98.0,0
127,-44.0,-211.0,-98.0,0
128,-47.0,-212.0,-95.0,0
129,-45.0,-217.0,-98.0,0
130,-51.0,-220.0,-98.0,0
131,-51.0,-220.0,-102.0,0
132,-47.0,-228.0,-110.0,0
133,-53.0,-228.0,-110.0,0
134,-52.0,-231.0,-109.0,0
135,-53.0,-234.0,-113.0,0
136,-55.0,-235.0,-114.0,0
137,-57.0,-233.0,-112.0,0
138,-56.0,-233.0,-117.0,0
139,-59.0,-236.0,-114.0,0
140,-61.0,-233.0,-115.0,0
141,-59.0,-231.0,-114.0,0
142,-60.0,-229.0,-118.0,0
143,-60.0,-228.0,-115.0,0
144,-59.0,-225.0,-117.0,0
145,-57.0,-225.0,-109.0,0
146,-56.0,-226.0,-116.0,0
147,-55.0,-229.0,-111.0,0
148,-53.0,-228.0,-113.0,0
149,-51.0,-232.0,-112.0,0
150,-49.0,-233.0,-112.0,0
151,-48.0,-236.0,-116.0,0
152,-46.0,-239.0,-110.0,0
153,-43.0,-243.0,-110.0,0
154,-42.0,-244.0,-104.0,0
155,-42.0,-246.0,-109.0,0
156,-45.0,-242.0,-108.0,0
157,-46.0,-245.0,-107.0,0
158,-46.0,-247.0,-108.0,0
159,-48.0,-244.0,-108.0,0
160,-49.0,-244.0,-107.0,0
161,-54.0,-240.0,-107.0,0
162,-56.0,-241.0,-104.0,0
163,-57.0,-239.0,-104.0,0
164,-57.0,-235.0,-103.0,0
165,-55.0,-233.0,-102.0,0
166,-61.0,-230.0,-102.0,0
167,-62.0,-225.0,-104.0,0
168,-60.0,-219.0,-102.0,0
169,-63.0,-219.0,-99.0,0
170,-65.0,-213.0,-100.0,0
171,-67.0,-208.0,-102.0,0
172,-67.0,-205.0,-97.0,0
173,-67.0,-207.0,-100.0,0
174,-68.0,-204.0,-100.0,0
175,-70.0,-205.0,-100.0,0
176,-66.0,-211.0,-101.0,0
177,-65.0,-215.0,-107.0,0
178,-61.0,-225.0,-100.0,0
179,-61.0,-228.0,-97.0,0
180,-63.0,-233.0,-99.0,0
181,-60.0,-241.0,-98.0,0
182,-59.0,-244.0,-95.0,0
183,-57.0,-249.0,-94.0,0
184,-58.0,-248.0,-96.0,0
185,-56.0,-246.0,-94.0,0
186,-59.0,-246.0,-91.0,0
187,-57.0,-245.0,-93.0,0
188,-57.0,-241.0,-95.0,0
189,-67.0,-232.0,-101.0,0
190,-56.0,-235.0,-99.0,0
191,-53.0,-232.0,-104.0,0
192,-51.0,-227.0,-104.0,0
193,-49.0,-227.0,-108.0,0
194,-46.0,-227.0,-107.0,0
195,-46.0,-228.0,-106.0,0
196,-45.0,-231.0,-105.0,0
197,-43.0,-229.0,-107.0,0
198,-41.0,-233.0,-110.0,0
199,-39.0,-235.0,-106.0,0
200,-37.0,-236.0,-107.0,0
201,-38.0,-235.0,-107.0,0
202,-41.0,-237.0,-106.0,0
203,-36.0,-236.0,-106.0,0
204,-37.0,-237.0,-101.0,0
205,-40.0,-235.0,-103.0,0
206,-40.0,-236.0,-101.0,0
207,-42.0,-235.0,-98.0,0
208,-44.0,-236.0,-96.0,0
209,-43.0,-234.0,-94.0,0
210,-45.0,-236.0,-90.0,0
211,-43.0,-238.0,-90.0,0
212,-44.0,-232.0,-87.0,0
213,-47.0,-229.0,-83.0,0
214,-45.0,-229.0,-84.0,0
215,-46.0,-225.0,-85.0,0
216,-47.0,-221.0,-84.0,0
217,-43.0,-222.0,-84.0,0
218,-41.0,-221.0,-85.0,0
219,-43.0,-220.0,-86.0,0
220,-41.0,-218.0,-85.0,0
221,-42.0,-214.0,-83.0,0
222,-40.0,-216.0,-92.0,0
223,-40.0,-218.0,-94.0,0
224,-45.0,-217.0,-95.0,0
225,-47.0,-218.0,-98.0,0
226,-44.0,-227.0,-95.0,0
227,-44.0,-234.0,-97.0,0
228,-47.0,-232.0,-94.0,0
229,-47.0,-237.0,-96.0,0
230,-51.0,-238.0,-94.0,0
231,-49.0,-239.0,-95.0,0
232,-52.0,-240.0,-95.0,0
233,-53.0,-235.0,-85.0,0
234,-53.0,-242.0,-95.0,0
235,-54.0,-239.0,-94.0,0
236,-55.0,-242.0,-98.0,0
237,-56.0,-239.0,-95.0,0
238,-57.0,-236.0,-97.0,0
239,-57.0,-237.0,-92.0,0
240,-56.0,-232.0,-93.0,0
241,-53.0,-233.0,-93.0,0
242,-56.0,-226.0,-96.0,0
243,-55.0,-225.0,-92.0,0
244,-56.0,-222.0,-93.0,0
245,-54.0,-223.0,-94.0,0
246,-55.0,-220.0,-98.0,0
247,-51.0,-219.0,-96.0,0
248,-47.0,-218.0,-99.0,0
249,-49.0,-217.0,-102.0,0
250,-47.0,-214.0,-102.0,0
251,-45.0,-215.0,-108.0,0
252,-47.0,-211.0,-109.0,0
253,-47.0,-211.0,-110.0,0
254,-54.0,-211.0,-111.0,0
255,-55.0,-214.0,-110.0,0
256,-61.0,-213.0,-110.0,0
257,-63.0,-220.0,-111.0,0
258,-66.0,-221.0,-108.0,0
259,-63.0,-228.0,-111.0,0
260,-58.0,-234.0,-112.0,0
261,-55.0,-242.0,-111.0,0
262,-51.0,-247.0,-109.0,0
263,-47.0,-250.0,-110.0,0
264,-46.0,-256.0,-109.0,0
265,-42.0,-258.0,-109.0,0
266,-40.0,-257.0,-112.0,0
267,-43.0,-255.0,-109.0,0
268,-39.0,-256.0,-107.0,0
269,-40.0,-249.0,-102.0,0
270,-41.0,-247.0,-107.0,0
271,-44.0,-243.0,-102.0,0
272,-45.0,-238.0,-104.0,0
273,-48.0,-232.0,-101.0,0
274,-52.0,-227.0,-100.0,0
275,-55.0,-222.0,-101.0,0
276,-57.0,-219.0,-98.0,0
277,-62.0,-212.0,-102.0,0
278,-63.0,-210.0,-101.0,0
279,-63.0,-208.0,-98.0,0
280,-66.0,-209.0,-101.0,0
281,-66.0,-210.0,-102.0,0
282,-64.0,-213.0,-98.0,0
283,-64.0,-212.0,-104.0,0
284,-65.0,-214.0,-106.0,0
285,-63.0,-220.0,-106.0,0
286,-63.0,-218.0,-111.0,0
287,-60.0,-225.0,-110.0,0
288,-59.0,-227.0,-113.0,0
289,-58.0,-226.0,-113.0,0
290,-58.0,-231.0,-114.0,0
291,-55.0,-234.0,-114.0,0
292,-58.0,-236.0,-113.0,0
293,-55.0,-236.0,-112.0,0
294,-57.0,-234.0,-110.0,0
295,-56.0,-238.0,-113.0,0
296,-56.0,-235.0,-111.0,0
297,-58.0,-230.0,-119.0,0
298,-55.0,-236.0,-115.0,0
299,-61.0,-229.0,-116.0,0
300,-61.0,-227.0,-116.0,0
301,-62.0,-224.0,-115.0,0
302,-62.0,-224.0,-115.0,0
303,-63.0,-221.0,-118.0,0
304,-64.0,-223.0,-116.0,0
305,-65.0,-222.0,-116.0,0
306,-69.0,-219.0,-116.0,0
307,-70.0,-220.0,-114.0,0
308,-71.0,-222.0,-112.0,0
309,-69.0,-221.0,-120.0,0
310,-74.0,-224.0,-121.0,0
311,-73.0,-227.0,-117.0,0
312,-76.0,-230.0,-124.0,0
313,-79.0,-230.0,-126.0,0
314,-77.0,-232.0,-131.0,0
315,-80.0,-235.0,-135.0,0
316,-82.0,-239.0,-136.0,0
317,-83.0,-237.0,-143.0,0
318,-84.0,-239.0,-143.0,0
319,-82.0,-240.0,-149.0,0
320,-84.0,-243.0,-152.0,0
321,-88.0,-245.0,-156.0,0
322,-89.0,-248.0,-163.0,0
323,-88.0,-251.0,-164.0,0
324,-92.0,-252.0,-166.0,0
325,-93.0,-260.0,-168.0,0
326,-88.0,-264.0,-170.0,0
327,-92.0,-270.0,-170.0,0
328,-91.0,-275.0,-170.0,0
329,-90.0,-276.0,-172.0,0
330,-90.0,-279.0,-174.0,0
331,-89.0,-277.0,-175.0,0
332,-89.0,-280.0,-179.0,0
333,-95.0,-275.0,-182.0,0
334,-95.0,-276.0,-183.0,0
335,-97.0,-272.0,-189.0,0
336,-92.0,-274.0,-191.0,0
337,-88.0,-273.0,-202.0,0
338,-84.0,-267.0,-204.0,0
339,-77.0,-269.0,-208.0,0
340,-71.0,-266.0,-210.0,0
341,-64.0,-264.0,-208.0,0
342,-58.0,-264.0,-208.0,0
343,-53.0,-262.0,-204.0,0
344,-41.0,-257.0,-202.0,0
345,-36.0,-252.0,-197.0,0
346,-29.0,-248.0,-196.0,0
347,-21.0,-241.0,-192.0,0
348,-18.0,-230.0,-192.0,0
349,-13.0,-223.0,-191.0,0
350,-8.0,-218.0,-187.0,0
351,-2.0,-209.0,-186.0,0
352,2.0,-204.0,-183.0,0
353,1.0,-195.0,-182.0,0
354,0.0,-185.0,-175.0,0
355,0.0,-181.0,-178.0,0
356,1.0,-173.0,-173.0,0
357,-3.0,-165.0,-175.0,0
358,-5.0,-161.0,-176.0,0
359,-5.0,-160.0,-176.0,0
360,-11.0,-157.0,-173.0,0
361,-10.0,-157.0,-171.0,0
362,-10.0,-161.0,-168.0,0
363,-12.0,-162.0,-167.0,0
364,-14.0,-165.0,-168.0,0
365,-15.0,-169.0,-166.0,0
366,-13.0,-176.0,-171.0,0
367,-14.0,-182.0,-163.0,0
368,-10.0,-188.0,-162.0,0
369,-15.0,-193.0,-160.0,0
370,-13.0,-198.0,-163.0,0
371,-13.0,-201.0,-161.0,0
372,-17.0,-207.0,-162.0,0
373,-18.0,-209.0,-161.0,0
374,-21.0,-210.0,-165.0,0
375,-20.0,-213.0,-167.0,0
376,-18.0,-218.0,-164.0,0
377,-16.0,-214.0,-166.0,0
378,-13.0,-216.0,-167.0,0
379,-13.0,-213.0,-160.0,0
380,-11.0,-211.0,-159.0,0
381,-11.0,-205.0,-153.0,0
382,-10.0,-204.0,-152.0,0
383,-6.0,-204.0,-149.0,0
384,-10.0,-198.0,-146.0,0
385,-8.0,-195.0,-148.0,0
386,-7.0,-193.0,-147.0,0
387,-4.0,-187.0,-147.0,0
388,0.0,-185.0,-146.0,0
389,-1.0,-182.0,-148.0,0
390,1.0,-182.0,-149.0,0
391,1.0,-182.0,-151.0,0
392,2.0,-181.0,-150.0,0
393,3.0,-179.0,-154.0,0
394,2.0,-179.0,-157.0,0
395,8.0,-177.0,-158.0,0
396,6.0,-180.0,-157.0,0
397,8.0,-182.0,-152.0,0
398,9.0,-181.0,-153.0,0
399,10.0,-182.0,-152.0,0
400,11.0,-185.0,-155.0,0
401,8.0,-185.0,-156.0,0
402,10.0,-186.0,-156.0,0
403,9.0,-188.0,-151.0,0
404,7.0,-190.0,-150.0,0
405,4.0,-192.0,-151.0,0
406,3.0,-193.0,-148.0,0
407,0.0,-194.0,-150.0,0
408,0.0,-195.0,-147.0,0
409,-1.0,-196.0,-147.0,0
410,-2.0,-196.0,-144.0,0
411,-8.0,-197.0,-140.0,0
412,-9.0,-195.0,-137.0,0
413,-11.0,-194.0,-142.0,0
414,-17.0,-195.0,-135.0,0
415,-13.0,-191.0,-138.0,0
416,-17.0,-189.0,-137.0,0
417,-14.0,-187.0,-133.0,0
418,-11.0,-190.0,-131.0,0
419,-11.0,-183.0,-134.0,0
420,-10.0,-179.0,-130.0,0
421,-5.0,-179.0,-129.0,0
422,0.0,-176.0,-130.0,0
423,1.0,-173.0,-131.0,0
424,5.0,-171.0,-131.0,0
425,6.0,-171.0,-128.0,0
426,9.0,-169.0,-128.0,0
427,13.0,-172.0,-127.0,0
428,10.0,-173.0,-130.0,0
429,11.0,-174.0,-130.0,0
430,18.0,-178.0,-130.0,0
431,19.0,-182.0,-124.0,0
432,15.0,-184.0,-125.0,0
433,13.0,-187.0,-122.0,0
434,11.0,-185.0,-122.0,0
435,10.0,-188.0,-123.0,0
436,5.0,-187.0,-124.0,0
437,5.0,-186.0,-122.0,0
438,5.0,-189.0,-124.0,0
439,4.0,-187.0,-128.0,0
440,3.0,-187.0,-131.0,0
441,6.0,-187.0,-128.0,0
442,9.0,-188.0,-132.0,0
443,10.0,-186.0,-135.0,0
444,10.0,-185.0,-130.0,0
445,12.0,-190.0,-133.0,0
446,13.0,-191.0,-138.0,0
447,14.0,-191.0,-131.0,0
448,14.0,-193.0,-131.0,0
449,11.0,-196.0,-128.0,0
450,15.0,-199.0,-129.0,0
451,13.0,-198.0,-126.0,0
452,13.0,-204.0,-130.0,0
453,14.0,-206.0,-124.0,0
454,17.0,-208.0,-124.0,0
455,13.0,-205.0,-126.0,0
456,16.0,-208.0,-124.0,0
457,19.0,-209.0,-124.0,0
458,16.0,-207.0,-126.0,0
459,19.0,-205.0,-127.0,0
460,19.0,-207.0,-125.0,0
461,17.0,-202.0,-124.0,0
462,19.0,-202.0,-124.0,0
463,22.0,-203.0,-122.0,0
464,21.0,-208.0,-125.0,0
465,21.0,-202.0,-129.0,0
466,23.0,-206.0,-127.0,0
467,24.0,-202.0,-124.0,0
468,23.0,-202.0,-125.0,0
469,23.0,-204.0,-119.0,0
470,21.0,-204.0,-118.0,0
471,24.0,-205.0,-120.0,0
472,20.0,-204.0,-118.0,0
473,19.0,-205.0,-117.0,0
474,16.0,-205.0,-117.0,0
475,15.0,-209.0,-119.0,0
476,13.0,-207.0,-117.0,0
477,13.0,-210.0,-119.0,0
478,11.0,-212.0,-121.0,0
479,14.0,-217.0,-119.0,0
480,13.0,-215.0,-117.0,0
481,14.0,-215.0,-119.0,0
482,17.0,-222.0,-115.0,0
483,14.0,-225.0,-121.0,0
484,14.0,-227.0,-123.0,0
485,14.0,-232.0,-118.0,0
486,14.0,-233.0,-123.0,0
487,8.0,-233.0,-122.0,0
488,12.0,-237.0,-125.0,0
489,10.0,-238.0,-131.0,0
490,6.0,-236.0,-134.0,0
491,7.0,-237.0,-134.0,0
492,11.0,-232.0,-137.0,0
493,15.0,-228.0,-138.0,0
494,18.0,-226.0,-145.0,0
495,23.0,-220.0,-148.0,0
496,21.0,-208.0,-148.0,0
497,24.0,-206.0,-152.0,0
498,28.0,-203.0,-153.0,0
499,32.0,-197.0,-153.0,0
500,36.0,-201.0,-153.0,0
501,46.0,-197.0,-155.0,0
502,53.0,-199.0,-157.0,0
503,59.0,-195.0,-156.0,0
504,62.0,-197.0,-155.0,0
505,58.0,-203.0,-154.0,0
506,52.0,-206.0,-155.0,0
507,46.0,-218.0,-161.0,0
508,40.0,-232.0,-157.0,0
509,31.0,-240.0,-162.0,0
510,28.0,-249.0,-167.0,0
511,21.0,-258.0,-171.0,0
512,15.0,-269.0,-173.0,0
513,16.0,-273.0,-176.0,0
514,17.0,-275.0,-181.0,0
515,18.0,-273.0,-180.0,0
516,16.0,-264.0,-189.0,0
517,17.0,-256.0,-187.0,0
518,21.0,-249.0,-187.0,0
519,21.0,-245.0,-187.0,0
520,24.0,-238.0,-182.0,0
521,27.0,-230.0,-183.0,0
522,28.0,-227.0,-188.0,0
523,35.0,-224.0,-188.0,0
524,38.0,-227.0,-193.0,0
525,38.0,-228.0,-205.0,0
526,41.0,-235.0,-212.0,0
527,45.0,-245.0,-216.0,0
528,48.0,-254.0,-220.0,0
529,49.0,-266.0,-231.0,0
530,51.0,-277.0,-235.0,0
531,47.0,-284.0,-239.0,0
532,49.0,-291.0,-236.0,0
533,48.0,-293.0,-240.0,0
534,45.0,-293.0,-232.0,0
535,40.0,-285.0,-230.0,0
536,37.0,-279.0,-228.0,0
537,32.0,-274.0,-216.0,0
538,31.0,-259.0,-216.0,0
539,27.0,-253.0,-212.0,0
540,25.0,-246.0,-207.0,0
541,25.0,-241.0,-200.0,0
542,21.0,-231.0,-196.0,0
543,17.0,-220.0,-192.0,0
544,18.0,-218.0,-186.0,0
545,16.0,-208.0,-185.0,0
546,14.0,-201.0,-179.0,0
547,14.0,-196.0,-176.0,0
548,7.0,-188.0,-167.0,0
549,6.0,-185.0,-168.0,0
550,6.0,-181.0,-165.0,0
551,4.0,-174.0,-163.0,0
552,3.0,-169.0,-164.0,0
553,5.0,-163.0,-164.0,0
554,2.0,-160.0,-162.0,0
555,1.0,-153.0,-163.0,0
556,2.0,-152.0,-164.0,0
557,1.0,-149.0,-166.0,0
558,0.0,-151.0,-160.0,0
559,-3.0,-147.0,-167.0,0
560,-3.0,-152.0,-165.0,0
561,-6.0,-157.0,-169.0,0
562,-7.0,-158.0,-170.0,0
563,-12.0,-160.0,-169.0,0
564,-15.0,-162.0,-172.0,0
565,-16.0,-166.0,-173.0,0
566,-16.0,-171.0,-171.0,0
567,-16.0,-175.0,-172.0,0
568,-17.0,-179.0,-174.0,0
569,-17.0,-179.0,-174.0,0
570,-16.0,-182.0,-181.0,0
571,-16.0,-184.0,-178.0,0
572,-14.0,-191.0,-176.0,0
573,-16.0,-191.0,-180.0,0
574,-11.0,-195.0,-177.0,0
575,-12.0,-194.0,-177.0,0
576,-10.0,-196.0,-176.0,0
577,-4.0,-196.0,-180.0,0
578,-3.0,-195.0,-173.0,0
579,-1.0,-194.0,-170.0,0
580,0.0,-194.0,-169.0,0
581,-2.0,-188.0,-177.0,0
582,1.0,-186.0,-167.0,0
583,4.0,-184.0,-163.0,0
584,4.0,-184.0,-165.0,0
585,4.0,-179.0,-163.0,0
586,3.0,-179.0,-161.0,0
587,3.0,-178.0,-160.0,0
588,1.0,-174.0,-166.0,0
589,0.0,-173.0,-165.0,0
590,-3.0,-171.0,-168.0,0
591,-6.0,-174.0,-164.0,0
592,-7.0,-177.0,-164.0,0
593,-12.0,-175.0,-163.0,0
594,-12.0,-179.0,-162.0,0
595,-15.0,-180.0,-162.0,0
596,-15.0,-182.0,-161.0,0
597,-16.0,-182.0,-163.0,0
598,-16.0,-186.0,-158.0,0
599,-18.0,-187.0,-158.0,0
600,-17.0,-185.0,-155.0,0
601,-17.0,-187.0,-155.0,0
602,-18.0,-186.0,-156.0,0
603,-19.0,-183.0,-163.0,0
604,-17.0,-187.0,-157.0,0
605,-17.0,-187.0,-158.0,0
606,-18.0,-184.0,-158.0,0
607,-19.0,-181.0,-157.0,0
608,-20.0,-181.0,-150.0,0
609,-19.0,-177.0,-153.0,0
610,-18.0,-174.0,-156.0,0
611,-18.0,-174.0,-152.0,0
612,-18.0,-171.0,-153.0,0
613,-13.0,-173.0,-150.0,0
614,-20.0,-170.0,-149.0,0
615,-15.0,-171.0,-147.0,0
616,-18.0,-168.0,-147.0,0
617,-19.0,-167.0,-145.0,0
618,-17.0,-168.0,-143.0,0
619,-15.0,-171.0,-140.0,0
620,-17.0,-172.0,-139.0,0
621,-16.0,-169.0,-138.0,0
622,-20.0,-173.0,-142.0,0
623,-23.0,-172.0,-139.0,0
624,-27.0,-170.0,-140.0,0
625,-24.0,-176.0,-141.0,0
626,-24.0,-176.0,-137.0,0
627,-29.0,-179.0,-139.0,0
628,-32.0,-178.0,-146.0,0
629,-32.0,-178.0,-138.0,0
630,-34.0,-179.0,-140.0,0
631,-34.0,-178.0,-139.0,0
632,-35.0,-181.0,-138.0,0
633,-32.0,-183.0,-140.0,0
634,-37.0,-182.0,-141.0,0
635,-37.0,-182.0,-143.0,0
636,-37.0,-183.0,-142.0,0
637,-36.0,-185.0,-142.0,0
638,-35.0,-186.0,-144.0,0
639,-35.0,-186.0,-138.0,0
640,-34.0,-187.0,-143.0,0
641,-33.0,-190.0,-140.0,0
642,-35.0,-185.0,-139.0,0
643,-34.0,-189.0,-141.0,0
644,-36.0,-190.0,-139.0,0
645,-33.0,-192.0,-138.0,0
646,-32.0,-192.0,-137.0,0
647,-35.0,-192.0,-141.0,0
648,-35.0,-196.0,-134.0,0
649,-36.0,-194.0,-136.0,0
650,-37.0,-194.0,-136.0,0
651,-39.0,-197.0,-131.0,0
652,-42.0,-193.0,-133.0,0
653,-43.0,-192.0,-132.0,0
654,-45.0,-194.0,-129.0,0
655,-45.0,-193.0,-129.0,0
656,-47.0,-194.0,-131.0,0
657,-49.0,-194.0,-128.0,0
658,-51.0,-196.0,-133.0,0
659,-50.0,-194.0,-133.0,0
660,-53.0,-195.0,-133.0,0
661,-59.0,-195.0,-130.0,0
662,-58.0,-197.0,-132.0,0
663,-58.0,-199.0,-127.0,0
664,-59.0,-201.0,-130.0,0
665,-55.0,-201.0,-131.0,0
666,-57.0,-201.0,-131.0,0
667,-54.0,-202.0,-133.0,0
668,-52.0,-203.0,-119.0,0
669,-55.0,-201.0,-133.0,0
670,-51.0,-204.0,-133.0,0
671,-50.0,-204.0,-134.0,0
672,-49.0,-204.0,-129.0,0
673,-45.0,-203.0,-128.0,0
674,-45.0,-204.0,-128.0,0
675,-42.0,-204.0,-126.0,0
676,-40.0,-207.0,-127.0,0
677,-37.0,-207.0,-127.0,0
678,-40.0,-207.0,-119.0,0
679,-40.0,-210.0,-124.0,0
680,-38.0,-212.0,-126.0,0
681,-40.0,-210.0,-126.0,0
682,-44.0,-206.0,-127.0,0
683,-47.0,-206.0,-127.0,0
684,-49.0,-207.0,-130.0,0
685,-53.0,-207.0,-129.0,0
686,-55.0,-212.0,-126.0,0
687,-59.0,-211.0,-128.0,0
688,-61.0,-212.0,-124.0,0
689,-58.0,-212.0,-126.0,0
690,-61.0,-210.0,-128.0,0
691,-61.0,-215.0,-120.0,0
692,-60.0,-217.0,-123.0,0
693,-61.0,-219.0,-126.0,0
694,-59.0,-221.0,-124.0,0
695,-59.0,-222.0,-126.0,0
696,-58.0,-221.0,-126.0,0
697,-57.0,-222.0,-125.0,0
698,-57.0,-223.0,-124.0,0
699,-55.0,-219.0,-126.0,0
700,-55.0,-220.0,-122.0,0
701,-55.0,-219.0,-123.0,0
702,-56.0,-214.0,-124.0,0
703,-56.0,-217.0,-125.0,0
704,-53.0,-212.0,-126.0,0
705,-54.0,-211.0,-128.0,0
706,-54.0,-208.0,-131.0,0
707,-51.0,-205.0,-133.0,0
708,-53.0,-207.0,-136.0,0
709,-53.0,-204.0,-138.0,0
710,-57.0,-202.0,-141.0,0
711,-64.0,-203.0,-150.0,0
712,-60.0,-203.0,-143.0,0
713,-64.0,-206.0,-150.0,0
714,-67.0,-207.0,-150.0,0
715,-65.0,-211.0,-157.0,0
716,-60.0,-218.0,-153.0,0
717,-58.0,-223.0,-156.0,0
718,-56.0,-230.0,-156.0,0
719,-49.0,-233.0,-159.0,0
720,-50.0,-238.0,-156.0,0
721,-50.0,-242.0,-158.0,0
722,-48.0,-245.0,-156.0,0
723,-49.0,-246.0,-156.0,0
724,-47.0,-250.0,-154.0,0
725,-48.0,-250.0,-157.0,0
726,-49.0,-245.0,-154.0,0
727,-50.0,-245.0,-154.0,0
728,-51.0,-239.0,-156.0,0
729,-52.0,-236.0,-152.0,0
730,-55.0,-227.0,-150.0,0
731,-55.0,-221.0,-150.0,0
732,-54.0,-207.0,-156.0,0
733,-60.0,-205.0,-148.0,0
734,-61.0,-201.0,-149.0,0
735,-62.0,-200.0,-149.0,0
736,-64.0,-196.0,-150.0,0
737,-65.0,-201.0,-154.0,0
738,-69.0,-203.0,-159.0,0
739,-71.0,-205.0,-162.0,0
740,-75.0,-209.0,-168.0,0
741,-78.0,-217.0,-167.0,0
742,-80.0,-221.0,-172.0,0
743,-83.0,-230.0,-175.0,0
744,-84.0,-236.0,-178.0,0
745,-88.0,-244.0,-181.0,0
746,-93.0,-249.0,-184.0,0
747,-96.0,-251.0,-190.0,0
748,-98.0,-255.0,-193.0,0
749,-97.0,-261.0,-200.0,0
750,-97.0,-261.0,-205.0,0
751,-97.0,-263.0,-214.0,0
752,-89.0,-264.0,-223.0,0
753,-85.0,-260.0,-228.0,0
754,-76.0,-259.0,-233.0,0
755,-66.0,-265.0,-232.0,0
756,-59.0,-265.0,-233.0,0
757,-57.0,-264.0,-235.0,0
758,-52.0,-263.0,-234.0,0
759,-43.0,-258.0,-227.0,0
760,-36.0,-255.0,-220.0,0
761,-36.0,-251.0,-215.0,0
762,-32.0,-246.0,-214.0,0
763,-28.0,-237.0,-208.0,0
764,-23.0,-230.0,-204.0,0
765,-24.0,-218.0,-193.0,0
766,-24.0,-209.0,-191.0,0
767,-22.0,-202.0,-189.0,0
768,-20.0,-192.0,-181.0,0
769,-19.0,-184.0,-178.0,0
770,-22.0,-179.0,-172.0,0
771,-22.0,-174.0,-175.0,0
772,-20.0,-167.0,-173.0,0
773,-21.0,-162.0,-175.0,0
774,-17.0,-158.0,-171.0,0
775,-14.0,-151.0,-176.0,0
776,-7.0,-150.0,-175.0,0
777,-6.0,-151.0,-175.0,0
778,-3.0,-153.0,-177.0,0
779,-1.0,-160.0,-171.0,0
780,0.0,-161.0,-175.0,0
781,1.0,-167.0,-176.0,0
782,0.0,-174.0,-172.0,0
783,0.0,-184.0,-172.0,0
784,-1.0,-187.0,-176.0,0
785,0.0,-189.0,-175.0,0
786,-1.0,-193.0,-173.0,0
787,-3.0,-195.0,-177.0,0
788,-1.0,-195.0,-171.0,0
789,-1.0,-195.0,-174.0,0
790,0.0,-198.0,-174.0,0
791,-2.0,-196.0,-170.0,0
792,-1.0,-197.0,-174.0,0
793,-1.0,-196.0,-172.0,0
794,-1.0,-193.0,-171.0,0
795,-2.0,-194.0,-168.0,0
796,-1.0,-193.0,-165.0,0
797,-4.0,-189.0,-161.0,0
798,-1.0,-187.0,-160.0,0
799,-2.0,-188.0,-161.0,0
800,0.0,-186.0,-159.0,0
801,-3.0,-181.0,-154.0,0
802,0.0,-181.0,-156.0,0
803,0.0,-180.0,-156.0,0
804,1.0,-177.0,-150.0,0
805,3.0,-180.0,-154.0,0
806,2.0,-176.0,-155.0,0
807,5.0,-174.0,-154.0,0
808,3.0,-173.0,-155.0,0
809,5.0,-175.0,-154.0,0
810,5.0,-173.0,-153.0,0
811,7.0,-176.0,-159.0,0
812,7.0,-177.0,-155.0,0
813,4.0,-179.0,-153.0,0
814,10.0,-183.0,-155.0,0
815,8.0,-180.0,-154.0,0
816,7.0,-183.0,-150.0,0
817,6.0,-183.0,-153.0,0
818,7.0,-182.0,-151.0,0
819,11.0,-183.0,-153.0,0
820,9.0,-182.0,-149.0,0
821,7.0,-184.0,-147.0,0
822,3.0,-182.0,-144.0,0
823,2.0,-183.0,-148.0,0
824,2.0,-183.0,-147.0,0
825,0.0,-182.0,-149.0,0
826,1.0,-182.0,-144.0,0
827,1.0,-181.0,-145.0,0
828,-1.0,-179.0,-147.0,0
829,-3.0,-176.0,-148.0,0
830,-6.0,-175.0,-147.0,0
831,-4.0,-178.0,-145.0,0
832,-2.0,-177.0,-147.0,0
833,-2.0,-177.0,-144.0,0
834,-6.0,-175.0,-146.0,0
835,-2.0,-173.0,-143.0,0
836,-4.0,-174.0,-145.0,0
837,-1.0,-172.0,-140.0,0
838,2.0,-173.0,-148.0,0
839,2.0,-172.0,-146.0,0
840,5.0,-172.0,-150.0,0
841,8.0,-172.0,-149.0,0
842,14.0,-175.0,-151.0,0
843,15.0,-177.0,-150.0,0
844,18.0,-179.0,-146.0,0
845,21.0,-184.0,-146.0,0
846,22.0,-183.0,-147.0,0
847,22.0,-186.0,-149.0,0
848,26.0,-187.0,-150.0,0
849,24.0,-188.0,-150.0,0
850,25.0,-192.0,-153.0,0
851,23.0,-192.0,-153.0,0
852,21.0,-191.0,-153.0,0
853,19.0,-191.0,-149.0,0
854,19.0,-192.0,-149.0,0
855,14.0,-190.0,-150.0,0
856,16.0,-189.0,-148.0,0
857,10.0,-189.0,-146.0,0
858,11.0,-189.0,-150.0,0
859,9.0,-191.0,-145.0,0
860,7.0,-192.0,-145.0,0
861,5.0,-194.0,-144.0,0
862,6.0,-195.0,-144.0,0
863,4.0,-199.0,-143.0,0
864,2.0,-198.0,-143.0,0
865,5.0,-204.0,-140.0,0
866,5.0,-203.0,-141.0,0
867,4.0,-204.0,-138.0,0
868,9.0,-209.0,-138.0,0
869,7.0,-206.0,-139.0,0
870,9.0,-205.0,-135.0,0
871,11.0,-205.0,-132.0,0
872,15.0,-199.0,-135.0,0
873,12.0,-199.0,-134.0,0
874,13.0,-198.0,-128.0,0
875,16.0,-198.0,-129.0,0
876,20.0,-201.0,-129.0,0
877,17.0,-197.0,-124.0,0
878,19.0,-196.0,-123.0,0
879,21.0,-199.0,-125.0,0
880,21.0,-196.0,-124.0,0
881,24.0,-198.0,-123.0,0
882,22.0,-199.0,-122.0,0
883,20.0,-198.0,-125.0,0
884,20.0,-198.0,-122.0,0
885,21.0,-201.0,-122.0,0
886,21.0,-199.0,-121.0,0
887,18.0,-202.0,-123.0,0
888,18.0,-200.0,-127.0,0
889,14.0,-200.0,-124.0,0
890,15.0,-203.0,-121.0,0
891,11.0,-200.0,-124.0,0
892,12.0,-202.0,-119.0,0
893,10.0,-199.0,-119.0,0
894,11.0,-200.0,-119.0,0
895,14.0,-202.0,-118.0,0
896,11.0,-202.0,-118.0,0
897,13.0,-202.0,-117.0,0
898,12.0,-205.0,-118.0,0
899,10.0,-202.0,-117.0,0
900,13.0,-206.0,-115.0,0
901,14.0,-209.0,-116.0,0
902,11.0,-211.0,-117.0,0
903,12.0,-214.0,-116.0,0
904,13.0,-218.0,-114.0,0
905,10.0,-220.0,-116.0,0
906,12.0,-224.0,-114.0,0
907,14.0,-227.0,-114.0,0
908,12.0,-229.0,-115.0,0
909,13.0,-228.0,-116.0,0
910,14.0,-234.0,-118.0,0
911,15.0,-231.0,-118.0,0
912,18.0,-238.0,-122.0,0
913,24.0,-234.0,-123.0,0
914,26.0,-230.0,-122.0,0
915,29.0,-230.0,-131.0,0
916,33.0,-227.0,-126.0,0
917,32.0,-224.0,-128.0,0
918,37.0,-221.0,-128.0,0
919,40.0,-219.0,-125.0,0
920,38.0,-216.0,-125.0,0
921,42.0,-216.0,-123.0,0
922,37.0,-214.0,-120.0,0
923,42.0,-215.0,-119.0,0
924,41.0,-217.0,-120.0,0
925,39.0,-221.0,-118.0,0
926,37.0,-220.0,-119.0,0
927,36.0,-221.0,-121.0,0
928,33.0,-220.0,-124.0,0
929,32.0,-221.0,-118.0,0
930,33.0,-216.0,-123.0,0
931,35.0,-217.0,-125.0,0
932,40.0,-216.0,-127.0,0
933,41.0,-216.0,-131.0,0
934,49.0,-217.0,-134.0,0
935,48.0,-212.0,-130.0,0
936,46.0,-215.0,-131.0,0
937,46.0,-218.0,-130.0,0
938,44.0,-221.0,-132.0,0
939,37.0,-226.0,-131.0,0
940,31.0,-227.0,-134.0,0
941,26.0,-233.0,-133.0,0
942,25.0,-244.0,-137.0,0
943,26.0,-244.0,-138.0,0
944,20.0,-247.0,-141.0,0
945,23.0,-249.0,-142.0,0
946,20.0,-248.0,-140.0,0
947,19.0,-249.0,-144.0,0
948,21.0,-248.0,-143.0,0
949,23.0,-245.0,-144.0,0
950,24.0,-246.0,-144.0,0
951,26.0,-242.0,-147.0,0
952,29.0,-236.0,-148.0,0
953,31.0,-231.0,-152.0,0
954,33.0,-229.0,-152.0,0
955,33.0,-222.0,-152.0,0
956,37.0,-217.0,-154.0,0
957,39.0,-212.0,-158.0,0
958,41.0,-211.0,-160.0,0
959,43.0,-207.0,-160.0,0
960,46.0,-208.0,-160.0,0
961,52.0,-211.0,-162.0,0
962,55.0,-216.0,-168.0,0
963,57.0,-226.0,-176.0,0
964,55.0,-233.0,-175.0,0
965,55.0,-235.0,-182.0,0
966,56.0,-249.0,-186.0,0
967,56.0,-254.0,-191.0,0
968,53.0,-258.0,-198.0,0
969,54.0,-263.0,-206.0,0
970,53.0,-265.0,-207.0,0
971,50.0,-265.0,-214.0,0
972,47.0,-265.0,-214.0,0
973,41.0,-269.0,-216.0,0
974,40.0,-266.0,-219.0,0
975,34.0,-264.0,-217.0,0
976,32.0,-263.0,-220.0,0
977,33.0,-263.0,-221.0,0
978,27.0,-256.0,-218.0,0
979,29.0,-255.0,-219.0,0
980,27.0,-248.0,-216.0,0
981,22.0,-246.0,-213.0,0
982,20.0,-243.0,-215.0,0
983,23.0,-234.0,-208.0,0
984,19.0,-224.0,-214.0,0
985,22.0,-219.0,-213.0,0
986,21.0,-209.0,-211.0,0
987,22.0,-204.0,-211.0,0
988,23.0,-201.0,-210.0,0
989,22.0,-198.0,-203.0,0
990,22.0,-196.0,-198.0,0
991,21.0,-190.0,-196.0,0
992,18.0,-185.0,-192.0,0
993,16.0,-183.0,-190.0,0
994,16.0,-182.0,-186.0,0
995,12.0,-179.0,-179.0,0
996,8.0,-174.0,-182.0,0
997,5.0,-172.0,-177.0,0
998,3.0,-168.0,-179.0,0
999,0.0,-163.0,-176.0,0
1000,0.0,-166.0,-182.0,0
1001,-1.0,-164.0,-179.0,0
1002,-9.0,-165.0,-182.0,0
1003,-11.0,-162.0,-184.0,0
1004,-9.0,-165.0,-179.0,0
1005,-9.0,-170.0,-180.0,0
1006,-3.0,-169.0,-180.0,0
1007,-4.0,-173.0,-177.0,0
1008,-2.0,-176.0,-179.0,0
1009,0.0,-177.0,-179.0,0
1010,2.0,-180.0,-181.0,0
1011,2.0,-182.0,-177.0,0
1012,4.0,-183.0,-179.0,0
1013,5.0,-181.0,-178.0,0
1014,3.0,-182.0,-179.0,0
1015,2.0,-181.0,-181.0,0
1016,0.0,-181.0,-183.0,0
1017,-1.0,-183.0,-180.0,0
1018,0.0,-184.0,-185.0,0
1019,-2.0,-183.0,-182.0,0
1020,-8.0,-182.0,-186.0,0
1021,-6.0,-183.0,-183.0,0
1022,-11.0,-184.0,-187.0,0
1023,-14.0,-184.0,-183.0,0
1024,-12.0,-185.0,-180.0,0
1025,-12.0,-186.0,-187.0,0
1026,-19.0,-188.0,-174.0,0
1027,-17.0,-184.0,-180.0,0
1028,-16.0,-187.0,-178.0,0
1029,-15.0,-188.0,-177.0,0
1030,-11.0,-189.0,-174.0,0
1031,-12.0,-189.0,-176.0,0
1032,-8.0,-187.0,-173.0,0
1033,-6.0,-184.0,-173.0,0
1034,-1.0,-191.0,-170.0,0
1035,0.0,-188.0,-167.0,0
1036,0.0,-188.0,-165.0,0
1037,0.0,-189.0,-162.0,0
1038,3.0,-180.0,-160.0,0
1039,-3.0,-186.0,-165.0,0
1040,0.0,-184.0,-158.0,0
1041,-3.0,-183.0,-164.0,0
1042,-3.0,-183.0,-157.0,0
1043,-8.0,-181.0,-158.0,0
1044,-11.0,-178.0,-159.0,0
1045,-12.0,-179.0,-158.0,0
1046,-16.0,-177.0,-161.0,0
1047,-19.0,-174.0,-154.0,0
1048,-20.0,-174.0,-152.0,0
1049,-22.0,-177.0,-154.0,0
1050,-21.0,-175.0,-150.0,0
1051,-24.0,-173.0,-154.0,0
1052,-27.0,-175.0,-153.0,0
1053,-25.0,-175.0,-150.0,0
1054,-28.0,-173.0,-148.0,0
1055,-26.0,-174.0,-151.0,0
1056,-27.0,-176.0,-151.0,0
1057,-27.0,-176.0,-151.0,0
1058,-26.0,-173.0,-148.0,0
1059,-24.0,-177.0,-148.0,0
1060,-20.0,-174.0,-145.0,0
1061,-20.0,-177.0,-149.0,0
1062,-19.0,-178.0,-149.0,0
1063,-18.0,-178.0,-148.0,0
1064,-18.0,-181.0,-149.0,0
1065,-19.0,-180.0,-146.0,0
1066,-17.0,-177.0,-148.0,0
1067,-16.0,-176.0,-146.0,0
1068,-19.0,-178.0,-149.0,0
1069,-17.0,-180.0,-143.0,0
1070,-21.0,-176.0,-146.0,0
1071,-20.0,-178.0,-141.0,0
1072,-23.0,-177.0,-142.0,0
1073,-23.0,-177.0,-145.0,0
1074,-26.0,-174.0,-145.0,0
1075,-23.0,-180.0,-141.0,0
1076,-25.0,-176.0,-142.0,0
1077,-27.0,-176.0,-143.0,0
1078,-28.0,-173.0,-143.0,0
1079,-28.0,-176.0,-146.0,0
1080,-33.0,-180.0,-141.0,0
1081,-29.0,-178.0,-140.0,0
1082,-28.0,-177.0,-141.0,0
1083,-35.0,-177.0,-144.0,0
1084,-31.0,-183.0,-141.0,0
1085,-35.0,-181.0,-141.0,0
1086,-36.0,-180.0,-140.0,0
1087,-34.0,-183.0,-143.0,0
1088,-33.0,-182.0,-140.0,0
1089,-40.0,-183.0,-141.0,0
1090,-38.0,-183.0,-142.0,0
1091,-41.0,-183.0,-138.0,0
1092,-41.0,-184.0,-138.0,0
1093,-44.0,-185.0,-137.0,0
1094,-43.0,-186.0,-136.0,0
1095,-44.0,-187.0,-139.0,0
1096,-45.0,-193.0,-141.0,0
1097,-46.0,-193.0,-139.0,0
1098,-45.0,-194.0,-139.0,0
1099,-46.0,-193.0,-139.0,0
1100,-48.0,-196.0,-140.0,0
1101,-47.0,-196.0,-143.0,0
1102,-52.0,-195.0,-141.0,0
1103,-51.0,-194.0,-143.0,0
1104,-50.0,-198.0,-140.0,0
1105,-51.0,-200.0,-136.0,0
1106,-52.0,-199.0,-138.0,0
1107,-50.0,-200.0,-136.0,0
1108,-53.0,-200.0,-132.0,0
1109,-51.0,-202.0,-132.0,0
1110,-50.0,-200.0,-131.0,0
1111,-52.0,-198.0,-129.0,0
1112,-51.0,-201.0,-127.0,0
1113,-56.0,-199.0,-126.0,0
1114,-56.0,-200.0,-126.0,0
1115,-58.0,-199.0,-125.0,0
1116,-57.0,-201.0,-122.0,0
1117,-56.0,-201.0,-122.0,0
1118,-54.0,-201.0,-121.0,0
1119,-55.0,-202.0,-122.0,0
1120,-52.0,-201.0,-119.0,0
1121,-51.0,-200.0,-118.0,0
1122,-50.0,-201.0,-119.0,0
1123,-50.0,-202.0,-124.0,0
1124,-49.0,-201.0,-120.0,0
1125,-46.0,-202.0,-129.0,0
1126,-44.0,-205.0,-122.0,0
1127,-45.0,-207.0,-124.0,0
1128,-42.0,-207.0,-123.0,0
1129,-41.0,-212.0,-125.0,0
1130,-44.0,-210.0,-122.0,0
1131,-40.0,-212.0,-125.0,0
1132,-42.0,-213.0,-123.0,0
1133,-40.0,-214.0,-123.0,0
1134,-44.0,-212.0,-122.0,0
1135,-43.0,-212.0,-122.0,0
1136,-48.0,-213.0,-124.0,0
1137,-45.0,-210.0,-123.0,0
1138,-49.0,-211.0,-124.0,0
1139,-53.0,-209.0,-125.0,0
1140,-50.0,-205.0,-121.0,0
1141,-53.0,-208.0,-125.0,0
1142,-52.0,-204.0,-123.0,0
1143,-51.0,-204.0,-123.0,0
1144,-55.0,-205.0,-130.0,0
1145,-55.0,-205.0,-129.0,0
1146,-52.0,-205.0,-130.0,0
1147,-52.0,-214.0,-135.0,0
1148,-51.0,-208.0,-134.0,0
1149,-49.0,-210.0,-137.0,0
1150,-51.0,-212.0,-143.0,0
1151,-55.0,-213.0,-139.0,0
1152,-56.0,-219.0,-146.0,0
1153,-57.0,-221.0,-147.0,0
1154,-62.0,-221.0,-150.0,0
1155,-62.0,-222.0,-152.0,0
1156,-62.0,-227.0,-154.0,0
1157,-61.0,-229.0,-153.0,0
1158,-61.0,-228.0,-157.0,0
1159,-59.0,-226.0,-155.0,0
1160,-60.0,-224.0,-155.0,0
1161,-61.0,-221.0,-157.0,0
1162,-59.0,-224.0,-156.0,0
1163,-58.0,-223.0,-158.0,0
1164,-63.0,-224.0,-158.0,0
1165,-62.0,-224.0,-158.0,0
1166,-63.0,-222.0,-154.0,0
1167,-67.0,-221.0,-158.0,0
1168,-67.0,-221.0,-152.0,0
1169,-67.0,-214.0,-150.0,0
1170,-75.0,-220.0,-153.0,0
1171,-74.0,-220.0,-151.0,0
1172,-80.0,-220.0,-149.0,0
1173,-82.0,-221.0,-151.0,0
1174,-82.0,-223.0,-152.0,0
1175,-84.0,-227.0,-156.0,0
1176,-79.0,-232.0,-157.0,0
1177,-76.0,-234.0,-162.0,0
1178,-76.0,-236.0,-165.0,0
1179,-75.0,-240.0,-172.0,0
1180,-67.0,-244.0,-177.0,0
1181,-66.0,-247.0,-178.0,0
1182,-60.0,-250.0,-185.0,0
1183,-62.0,-253.0,-189.0,0
1184,-63.0,-255.0,-193.0,0
1185,-60.0,-260.0,-198.0,0
1186,-62.0,-260.0,-204.0,0
1187,-60.0,-262.0,-206.0,0
1188,-64.0,-259.0,-211.0,0
1189,-64.0,-260.0,-212.0,0
1190,-60.0,-265.0,-216.0,0
1191,-68.0,-258.0,-212.0,0
1192,-69.0,-257.0,-217.0,0
1193,-71.0,-254.0,-217.0,0
1194,-74.0,-252.0,-213.0,0
1195,-73.0,-249.0,-219.0,0
1196,-71.0,-248.0,-217.0,0
1197,-72.0,-245.0,-214.0,0
1198,-69.0,-247.0,-219.0,0
1199,-65.0,-243.0,-215.0,0
1200,-61.0,-241.0,-214.0,0
1201,-55.0,-235.0,-212.0,0
1202,-49.0,-229.0,-211.0,0
1203,-46.0,-226.0,-203.0,0
1204,-40.0,-218.0,-201.0,0
1205,-40.0,-210.0,-195.0,0
1206,-32.0,-201.0,-195.0,0
1207,-26.0,-195.0,-186.0,0
1208,-23.0,-185.0,-182.0,0
1209,-22.0,-179.0,-175.0,0
1210,-16.0,-172.0,-173.0,0
1211,-10.0,-166.0,-170.0,0
1212,-9.0,-165.0,-164.0,0
1213,-9.0,-150.0,-168.0,0
1214,-3.0,-140.0,-169.0,0
1215,1.0,-138.0,-172.0,0
1216,5.0,-133.0,-170.0,0
1217,8.0,-131.0,-175.0,0
1218,12.0,-134.0,-176.0,0
1219,11.0,-136.0,-177.0,0
1220,10.0,-138.0,-177.0,0
1221,10.0,-141.0,-172.0,0
1222,8.0,-150.0,-175.0,0
1223,5.0,-155.0,-178.0,0
1224,1.0,-158.0,-182.0,0
1225,-3.0,-162.0,-181.0,0
1226,-5.0,-171.0,-179.0,0
1227,-9.0,-173.0,-181.0,0
1228,-12.0,-180.0,-178.0,0
1229,-16.0,-181.0,-180.0,0
1230,-19.0,-185.0,-180.0,0
1231,-21.0,-191.0,-179.0,0
1232,-23.0,-191.0,-175.0,0
1233,-24.0,-196.0,-175.0,0
1234,-22.0,-198.0,-173.0,0
1235,-25.0,-202.0,-173.0,0
1236,-22.0,-205.0,-167.0,0
1237,-21.0,-204.0,-161.0,0
1238,-21.0,-203.0,-153.0,0
1239,-18.0,-202.0,-162.0,0
1240,-18.0,-197.0,-155.0,0
1241,-17.0,-193.0,-153.0,0
1242,-13.0,-189.0,-152.0,0
1243,-13.0,-183.0,-153.0,0
1244,-12.0,-178.0,-154.0,0
1245,-10.0,-176.0,-157.0,0
1246,-6.0,-172.0,-158.0,0
1247,-3.0,-168.0,-157.0,0
1248,0.0,-165.0,-157.0,0
1249,0.0,-163.0,-157.0,0
1250,2.0,-158.0,-162.0,0
1251,4.0,-155.0,-166.0,0
1252,2.0,-155.0,-167.0,0
1253,8.0,-157.0,-170.0,0
1254,14.0,-158.0,-170.0,0
1255,13.0,-157.0,-167.0,0
1256,14.0,-164.0,-171.0,0
1257,16.0,-169.0,-177.0,0
1258,15.0,-170.0,-176.0,0
1259,16.0,-177.0,-174.0,0
1260,14.0,-176.0,-172.0,0
1261,11.0,-180.0,-174.0,0
1262,11.0,-181.0,-175.0,0
1263,8.0,-185.0,-170.0,0
1264,6.0,-185.0,-171.0,0
1265,5.0,-186.0,-167.0,0
1266,6.0,-188.0,-166.0,0
1267,3.0,-189.0,-165.0,0
1268,1.0,-185.0,-162.0,0
1269,-4.0,-186.0,-159.0,0
1270,-2.0,-184.0,-160.0,0
1271,-3.0,-185.0,-159.0,0
1272,0.0,-184.0,-156.0,0
1273,0.0,-184.0,-156.0,0
1274,0.0,-180.0,-159.0,0
1275,1.0,-178.0,-157.0,0
1276,-3.0,-180.0,-155.0,0
1277,2.0,-172.0,-154.0,0
1278,3.0,-174.0,-155.0,0
1279,7.0,-171.0,-156.0,0
1280,6.0,-171.0,-156.0,0
1281,5.0,-169.0,-158.0,0
1282,8.0,-170.0,-157.0,0
1283,9.0,-175.0,-157.0,0
1284,10.0,-172.0,-157.0,0
1285,11.0,-172.0,-161.0,0
1286,11.0,-178.0,-160.0,0
1287,11.0,-179.0,-154.0,0
1288,12.0,-180.0,-157.0,0
1289,13.0,-179.0,-157.0,0
1290,14.0,-180.0,-155.0,0
1291,17.0,-182.0,-158.0,0
1292,17.0,-179.0,-155.0,0
1293,18.0,-176.0,-152.0,0
1294,22.0,-178.0,-154.0,0
1295,24.0,-178.0,-156.0,0
1296,26.0,-173.0,-157.0,0
1297,29.0,-175.0,-152.0,0
1298,24.0,-176.0,-150.0,0
1299,20.0,-172.0,-139.0,0
1300,22.0,-176.0,-150.0,0
1301,21.0,-178.0,-148.0,0
1302,19.0,-178.0,-147.0,0
1303,15.0,-183.0,-148.0,0
1304,16.0,-184.0,-147.0,0
1305,12.0,-184.0,-144.0,0
1306,11.0,-189.0,-144.0,0
1307,9.0,-184.0,-147.0,0
1308,7.0,-186.0,-147.0,0
1309,6.0,-186.0,-148.0,0
1310,7.0,-186.0,-145.0,0
1311,7.0,-184.0,-149.0,0
1312,10.0,-185.0,-150.0,0
1313,11.0,-184.0,-147.0,0
1314,13.0,-185.0,-148.0,0
1315,11.0,-184.0,-150.0,0
1316,17.0,-183.0,-146.0,0
1317,17.0,-184.0,-149.0,0
1318,22.0,-187.0,-148.0,0
1319,26.0,-188.0,-150.0,0
1320,26.0,-190.0,-149.0,0
1321,28.0,-188.0,-150.0,0
1322,31.0,-189.0,-150.0,0
1323,32.0,-191.0,-147.0,0
1324,33.0,-195.0,-150.0,0
1325,35.0,-199.0,-147.0,0
1326,38.0,-197.0,-148.0,0
1327,35.0,-199.0,-146.0,0
1328,33.0,-199.0,-143.0,0
1329,30.0,-201.0,-147.0,0
1330,31.0,-202.0,-142.0,0
1331,28.0,-206.0,-142.0,0
1332,26.0,-203.0,-142.0,0
1333,25.0,-204.0,-144.0,0
1334,20.0,-200.0,-141.0,0
1335,21.0,-199.0,-138.0,0
1336,16.0,-197.0,-143.0,0
1337,17.0,-196.0,-140.0,0
1338,14.0,-195.0,-142.0,0
1339,12.0,-194.0,-141.0,0
1340,13.0,-190.0,-136.0,0
1341,13.0,-193.0,-139.0,0
1342,13.0,-192.0,-136.0,0
1343,21.0,-194.0,-138.0,0
1344,13.0,-196.0,-137.0,0
1345,13.0,-198.0,-138.0,0
1346,13.0,-200.0,-138.0,0
1347,13.0,-201.0,-136.0,0
1348,14.0,-205.0,-134.0,0
1349,17.0,-207.0,-137.0,0
1350,14.0,-206.0,-137.0,0
1351,15.0,-206.0,-139.0,0
1352,13.0,-208.0,-140.0,0
1353,19.0,-209.0,-141.0,0
1354,18.0,-205.0,-137.0,0
1355,20.0,-211.0,-143.0,0
1356,20.0,-209.0,-144.0,0
1357,22.0,-209.0,-142.0,0
1358,22.0,-207.0,-140.0,0
1359,28.0,-204.0,-146.0,0
1360,28.0,-203.0,-144.0,0
1361,28.0,-198.0,-143.0,0
1362,26.0,-198.0,-145.0,0
1363,26.0,-198.0,-144.0,0
1364,28.0,-196.0,-146.0,0
1365,28.0,-202.0,-148.0,0
1366,29.0,-200.0,-147.0,0
1367,33.0,-204.0,-150.0,0
1368,37.0,-211.0,-150.0,0
1369,45.0,-210.0,-151.0,0
1370,48.0,-214.0,-157.0,0
1371,47.0,-212.0,-159.0,0
1372,48.0,-218.0,-159.0,0
1373,45.0,-219.0,-161.0,0
1374,42.0,-220.0,-160.0,0
1375,40.0,-230.0,-163.0,0
1376,33.0,-233.0,-162.0,0
1377,35.0,-237.0,-167.0,0
1378,28.0,-244.0,-170.0,0
1379,29.0,-247.0,-173.0,0
1380,24.0,-251.0,-178.0,0
1381,23.0,-253.0,-175.0,0
1382,23.0,-251.0,-181.0,0
1383,22.0,-246.0,-180.0,0
1384,23.0,-244.0,-184.0,0
1385,26.0,-238.0,-185.0,0
1386,26.0,-233.0,-190.0,0
1387,36.0,-225.0,-186.0,0
1388,40.0,-224.0,-188.0,0
1389,40.0,-215.0,-194.0,0
1390,47.0,-214.0,-192.0,0
1391,46.0,-217.0,-197.0,0
1392,48.0,-215.0,-196.0,0
1393,50.0,-219.0,-198.0,0
1394,49.0,-224.0,-204.0,0
1395,53.0,-225.0,-209.0,0
1396,59.0,-232.0,-214.0,0
1397,56.0,-241.0,-222.0,0
1398,63.0,-250.0,-229.0,0
1399,60.0,-254.0,-235.0,0
1400,58.0,-260.0,-242.0,0
1401,56.0,-260.0,-244.0,0
1402,50.0,-261.0,-244.0,0
1403,46.0,-262.0,-239.0,0
1404,38.0,-257.0,-237.0,0
1405,34.0,-250.0,-236.0,0
1406,31.0,-242.0,-234.0,0
1407,28.0,-237.0,-229.0,0
1408,21.0,-221.0,-229.0,0
1409,27.0,-219.0,-219.0,0
1410,25.0,-212.0,-217.0,0
1411,26.0,-203.0,-217.0,0
1412,26.0,-198.0,-214.0,0
1413,25.0,-190.0,-212.0,0
1414,30.0,-186.0,-213.0,0
1415,24.0,-183.0,-206.0,0
1416,28.0,-185.0,-208.0,0
1417,24.0,-182.0,-202.0,0
1418,20.0,-179.0,-196.0,0
1419,15.0,-179.0,-192.0,0
1420,12.0,-175.0,-187.0,0
1421,9.0,-172.0,-186.0,0
1422,4.0,-172.0,-183.0,0
1423,3.0,-167.0,-181.0,0
1424,-3.0,-167.0,-179.0,0
1425,-8.0,-164.0,-178.0,0
1426,-11.0,-164.0,-177.0,0
1427,-13.0,-162.0,-169.0,0
1428,-15.0,-161.0,-172.0,0
1429,-13.0,-165.0,-171.0,0
1430,-14.0,-166.0,-172.0,0
1431,-13.0,-167.0,-169.0,0
1432,-13.0,-170.0,-174.0,0
1433,-10.0,-170.0,-171.0,0
1434,-10.0,-171.0,-171.0,0
1435,-5.0,-174.0,-171.0,0
1436,0.0,-179.0,-173.0,0
1437,0.0,-176.0,-174.0,0
1438,1.0,-178.0,-170.0,0
1439,4.0,-176.0,-176.0,0
1440,2.0,-181.0,-179.0,0
1441,2.0,-182.0,-180.0,0
1442,1.0,-180.0,-186.0,0
1443,0.0,-180.0,-185.0,0
1444,0.0,-180.0,-186.0,0
1445,-4.0,-178.0,-186.0,0
1446,-5.0,-178.0,-185.0,0
1447,-2.0,-178.0,-188.0,0
1448,-5.0,-181.0,-182.0,0
1449,-6.0,-180.0,-181.0,0
1450,-8.0,-179.0,-181.0,0
1451,-7.0,-175.0,-177.0,0
1452,-11.0,-178.0,-174.0,0
1453,-8.0,-175.0,-174.0,0
1454,-9.0,-178.0,-175.0,0
1455,-10.0,-175.0,-170.0,0
1456,-4.0,-179.0,-171.0,0
1457,-9.0,-176.0,-172.0,0
1458,-8.0,-179.0,-167.0,0
1459,-3.0,-178.0,-169.0,0
1460,-3.0,-177.0,-170.0,0
1461,-2.0,-177.0,-166.0,0
1462,-5.0,-175.0,-166.0,0
1463,-1.0,-177.0,-168.0,0
1464,-1.0,-176.0,-166.0,0
1465,-5.0,-176.0,-166.0,0
1466,-4.0,-177.0,-164.0,0
1467,-6.0,-176.0,-165.0,0
1468,-8.0,-175.0,-161.0,0
1469,-12.0,-176.0,-162.0,0
1470,-14.0,-175.0,-160.0,0
1471,-15.0,-172.0,-159.0,0
1472,-19.0,-175.0,-159.0,0
1473,-20.0,-171.0,-163.0,0
1474,-20.0,-170.0,-160.0,0
1475,-22.0,-171.0,-155.0,0
1476,-20.0,-172.0,-156.0,0
1477,-19.0,-171.0,-159.0,0
1478,-22.0,-174.0,-154.0,0
1479,-22.0,-168.0,-158.0,0
1480,-21.0,-169.0,-158.0,0
1481,-24.0,-167.0,-155.0,0
1482,-22.0,-166.0,-158.0,0
1483,-27.0,-169.0,-152.0,0
1484,-27.0,-163.0,-161.0,0
1485,-25.0,-167.0,-155.0,0
1486,-25.0,-165.0,-161.0,0
1487,-25.0,-167.0,-157.0,0
1488,-26.0,-167.0,-153.0,0
1489,-26.0,-170.0,-154.0,0
1490,-26.0,-171.0,-154.0,0
1491,-26.0,-174.0,-152.0,0
1492,-26.0,-177.0,-156.0,0
1493,-25.0,-178.0,-154.0,0
1494,-23.0,-181.0,-150.0,0
1495,-21.0,-181.0,-151.0,0
1496,-18.0,-181.0,-153.0,0
1497,-18.0,-185.0,-149.0,0
1498,-20.0,-185.0,-154.0,0
1499,-21.0,-185.0,-155.0,0
1500,-19.0,-185.0,-152.0,0
1501,-19.0,-188.0,-151.0,0
1502,-17.0,-187.0,-149.0,0
1503,-17.0,-185.0,-149.0,0
1504,-21.0,-185.0,-153.0,0
1505,-19.0,-184.0,-146.0,0
1506,-20.0,-183.0,-151.0,0
1507,-21.0,-182.0,-147.0,0
1508,-20.0,-182.0,-146.0,0
1509,-25.0,-178.0,-150.0,0
1510,-24.0,-179.0,-147.0,0
1511,-25.0,-174.0,-145.0,0
1512,-29.0,-175.0,-145.0,0
1513,-29.0,-174.0,-145.0,0
1514,-35.0,-172.0,-142.0,0
1515,-37.0,-171.0,-143.0,0
1516,-37.0,-174.0,-142.0,0
1517,-43.0,-174.0,-138.0,0
1518,-45.0,-176.0,-142.0,0
1519,-46.0,-179.0,-146.0,0
1520,-48.0,-181.0,-143.0,0
1521,-49.0,-182.0,-142.0,0
1522,-52.0,-184.0,-146.0,0
1523,-54.0,-182.0,-147.0,0
1524,-52.0,-184.0,-145.0,0
1525,-52.0,-187.0,-144.0,0
1526,-57.0,-188.0,-144.0,0
1527,-59.0,-191.0,-144.0,0
1528,-57.0,-194.0,-143.0,0
1529,-58.0,-195.0,-145.0,0
1530,-60.0,-196.0,-146.0,0
1531,-57.0,-194.0,-147.0,0
1532,-58.0,-194.0,-148.0,0
1533,-58.0,-195.0,-144.0,0
1534,-58.0,-194.0,-146.0,0
1535,-56.0,-194.0,-144.0,0
1536,-56.0,-198.0,-145.0,0
1537,-56.0,-198.0,-143.0,0
1538,-55.0,-196.0,-146.0,0
1539,-54.0,-196.0,-146.0,0
1540,-56.0,-198.0,-141.0,0
1541,-56.0,-198.0,-139.0,0
1542,-57.0,-198.0,-140.0,0
1543,-55.0,-198.0,-140.0,0
1544,-54.0,-196.0,-139.0,0
1545,-54.0,-197.0,-136.0,0
1546,-52.0,-198.0,-136.0,0
1547,-52.0,-199.0,-135.0,0
1548,-49.0,-197.0,-137.0,0
1549,-48.0,-198.0,-133.0,0
1550,-48.0,-192.0,-131.0,0
1551,-45.0,-190.0,-132.0,0
1552,-48.0,-190.0,-132.0,0
1553,-42.0,-187.0,-132.0,0
1554,-43.0,-186.0,-131.0,0
1555,-45.0,-185.0,-135.0,0
1556,-44.0,-186.0,-131.0,0
1557,-44.0,-184.0,-134.0,0
1558,-47.0,-185.0,-133.0,0
1559,-48.0,-188.0,-131.0,0
1560,-51.0,-188.0,-132.0,0
1561,-52.0,-186.0,-141.0,0
1562,-53.0,-190.0,-133.0,0
1563,-54.0,-198.0,-135.0,0
1564,-55.0,-202.0,-132.0,0
1565,-58.0,-201.0,-135.0,0
1566,-61.0,-204.0,-133.0,0
1567,-62.0,-202.0,-136.0,0
1568,-62.0,-205.0,-136.0,0
1569,-64.0,-208.0,-138.0,0
1570,-63.0,-209.0,-136.0,0
1571,-61.0,-208.0,-140.0,0
1572,-61.0,-209.0,-137.0,0
1573,-60.0,-207.0,-135.0,0
1574,-58.0,-207.0,-139.0,0
1575,-56.0,-206.0,-138.0,0
1576,-55.0,-207.0,-137.0,0
1577,-54.0,-208.0,-142.0,0
1578,-51.0,-206.0,-139.0,0
1579,-51.0,-209.0,-141.0,0
1580,-48.0,-206.0,-144.0,0
1581,-47.0,-208.0,-146.0,0
1582,-49.0,-205.0,-145.0,0
1583,-48.0,-206.0,-147.0,0
1584,-47.0,-208.0,-148.0,0
1585,-47.0,-210.0,-153.0,0
1586,-52.0,-208.0,-154.0,0
1587,-50.0,-208.0,-159.0,0
1588,-53.0,-207.0,-160.0,0
1589,-58.0,-205.0,-161.0,0
1590,-60.0,-210.0,-163.0,0
1591,-61.0,-211.0,-160.0,0
1592,-62.0,-211.0,-163.0,0
1593,-64.0,-216.0,-164.0,0
1594,-64.0,-215.0,-165.0,0
1595,-64.0,-220.0,-168.0,0
1596,-65.0,-224.0,-174.0,0
1597,-65.0,-228.0,-172.0,0
1598,-62.0,-230.0,-173.0,0
1599,-64.0,-234.0,-174.0,0
1600,-61.0,-233.0,-173.0,0
1601,-64.0,-233.0,-174.0,0
1602,-64.0,-234.0,-176.0,0
1603,-62.0,-230.0,-173.0,0
1604,-75.0,-226.0,-178.0,0
1605,-65.0,-220.0,-177.0,0
1606,-68.0,-215.0,-179.0,0
1607,-67.0,-213.0,-178.0,0
1608,-67.0,-211.0,-179.0,0
1609,-70.0,-207.0,-181.0,0
1610,-68.0,-207.0,-187.0,0
1611,-68.0,-207.0,-187.0,0
1612,-70.0,-209.0,-191.0,0
1613,-70.0,-216.0,-188.0,0
1614,-71.0,-222.0,-193.0,0
1615,-74.0,-225.0,-200.0,0
1616,-74.0,-233.0,-201.0,0
1617,-78.0,-236.0,-207.0,0
1618,-78.0,-246.0,-212.0,0
1619,-83.0,-252.0,-216.0,0
1620,-79.0,-252.0,-221.0,0
1621,-79.0,-258.0,-226.0,0
1622,-82.0,-260.0,-221.0,0
1623,-81.0,-258.0,-230.0,0
1624,-81.0,-258.0,-232.0,0
1625,-80.0,-255.0,-233.0,0
1626,-85.0,-249.0,-229.0,0
1627,-79.0,-244.0,-228.0,0
1628,-76.0,-236.0,-224.0,0
1629,-75.0,-228.0,-219.0,0
1630,-70.0,-223.0,-221.0,0
1631,-70.0,-214.0,-216.0,0
1632,-68.0,-207.0,-213.0,0
1633,-62.0,-207.0,-210.0,0
1634,-60.0,-202.0,-205.0,0
1635,-55.0,-199.0,-202.0,0
1636,-51.0,-200.0,-197.0,0
1637,-47.0,-197.0,-198.0,0
1638,-44.0,-195.0,-193.0,0
1639,-38.0,-192.0,-189.0,0
1640,-38.0,-191.0,-186.0,0
1641,-31.0,-187.0,-184.0,0
1642,-24.0,-185.0,-179.0,0
1643,-21.0,-181.0,-177.0,0
1644,-18.0,-176.0,-177.0,0
1645,-18.0,-170.0,-176.0,0
1646,-16.0,-167.0,-181.0,0
1647,-16.0,-159.0,-174.0,0
1648,-19.0,-161.0,-174.0,0
1649,-14.0,-153.0,-179.0,0
1650,-12.0,-149.0,-183.0,0
1651,-10.0,-149.0,-181.0,0
1652,-11.0,-149.0,-180.0,0
1653,-12.0,-151.0,-178.0,0
1654,-10.0,-153.0,-179.0,0
1655,-12.0,-151.0,-181.0,0
1656,-18.0,-154.0,-178.0,0
1657,-19.0,-156.0,-180.0,0
1658,-19.0,-157.0,-179.0,0
1659,-19.0,-159.0,-176.0,0
1660,-20.0,-161.0,-180.0,0
1661,-20.0,-160.0,-176.0,0
1662,-21.0,-161.0,-180.0,0
1663,-20.0,-164.0,-182.0,0
1664,-17.0,-168.0,-184.0,0
1665,-21.0,-168.0,-183.0,0
1666,-17.0,-170.0,-181.0,0
1667,-14.0,-172.0,-186.0,0
1668,-15.0,-175.0,-181.0,0
1669,-12.0,-172.0,-187.0,0
1670,-17.0,-177.0,-184.0,0
1671,-17.0,-179.0,-181.0,0
1672,-19.0,-179.0,-178.0,0
1673,-18.0,-180.0,-181.0,0
1674,-20.0,-178.0,-181.0,0
1675,-20.0,-174.0,-181.0,0
1676,-19.0,-171.0,-178.0,0
1677,-18.0,-170.0,-177.0,0
1678,-14.0,-167.0,-178.0,0
1679,-15.0,-163.0,-176.0,0
1680,-7.0,-161.0,-178.0,0
1681,-9.0,-160.0,-179.0,0
1682,-5.0,-158.0,-179.0,0
1683,-2.0,-160.0,-177.0,0
1684,0.0,-160.0,-178.0,0
1685,0.0,-158.0,-177.0,0
1686,0.0,-161.0,-178.0,0
1687,1.0,-161.0,-178.0,0
1688,2.0,-161.0,-178.0,0
1689,1.0,-162.0,-178.0,0
1690,2.0,-163.0,-179.0,0
1691,1.0,-163.0,-173.0,0
1692,1.0,-170.0,-170.0,0
1693,0.0,-168.0,-172.0,0
1694,-1.0,-171.0,-173.0,0
1695,-7.0,-175.0,-171.0,0
1696,-11.0,-175.0,-166.0,0
1697,-9.0,-175.0,-170.0,0
1698,-14.0,-175.0,-168.0,0
1699,-14.0,-176.0,-163.0,0
1700,-16.0,-180.0,-163.0,0
1701,-15.0,-174.0,-163.0,0
1702,-15.0,-175.0,-161.0,0
1703,-15.0,-177.0,-163.0,0
1704,-15.0,-174.0,-163.0,0
1705,-10.0,-172.0,-161.0,0
1706,-12.0,-173.0,-162.0,0
1707,-5.0,-172.0,-159.0,0
1708,-8.0,-166.0,-161.0,0
1709,-1.0,-169.0,-159.0,0
1710,-4.0,-166.0,-162.0,0
1711,0.0,-166.0,-161.0,0
1712,0.0,-166.0,-160.0,0
1713,0.0,-165.0,-157.0,0
1714,1.0,-165.0,-161.0,0
1715,0.0,-166.0,-159.0,0
1716,3.0,-166.0,-155.0,0
1717,2.0,-166.0,-155.0,0
1718,3.0,-165.0,-153.0,0
1719,3.0,-166.0,-151.0,0
1720,3.0,-162.0,-153.0,0
1721,8.0,-163.0,-152.0,0
1722,9.0,-162.0,-155.0,0
1723,11.0,-163.0,-158.0,0
1724,9.0,-164.0,-152.0,0
1725,11.0,-165.0,-156.0,0
1726,13.0,-166.0,-154.0,0
1727,16.0,-167.0,-155.0,0
1728,14.0,-169.0,-153.0,0
1729,14.0,-171.0,-156.0,0
1730,14.0,-173.0,-157.0,0
1731,14.0,-173.0,-158.0,0
1732,12.0,-175.0,-161.0,0
1733,12.0,-178.0,-159.0,0
1734,12.0,-180.0,-159.0,0
1735,14.0,-182.0,-161.0,0
1736,15.0,-184.0,-161.0,0
1737,15.0,-186.0,-164.0,0
1738,12.0,-187.0,-158.0,0
1739,14.0,-190.0,-159.0,0
1740,14.0,-189.0,-159.0,0
1741,20.0,-195.0,-157.0,0
1742,21.0,-191.0,-155.0,0
1743,24.0,-189.0,-151.0,0
1744,23.0,-188.0,-154.0,0
1745,24.0,-186.0,-153.0,0
1746,26.0,-186.0,-149.0,0
1747,24.0,-184.0,-147.0,0
1748,30.0,-188.0,-149.0,0
1749,26.0,-183.0,-146.0,0
1750,25.0,-185.0,-147.0,0
1751,24.0,-185.0,-146.0,0
1752,22.0,-184.0,-147.0,0
1753,21.0,-184.0,-146.0,0
1754,19.0,-182.0,-144.0,0
1755,17.0,-187.0,-146.0,0
1756,17.0,-187.0,-147.0,0
1757,10.0,-187.0,-140.0,0
1758,14.0,-186.0,-145.0,0
1759,13.0,-187.0,-143.0,0
1760,13.0,-189.0,-145.0,0
1761,9.0,-189.0,-149.0,0
1762,9.0,-186.0,-146.0,0
1763,12.0,-189.0,-147.0,0
1764,13.0,-190.0,-146.0,0
1765,14.0,-192.0,-148.0,0
1766,17.0,-194.0,-148.0,0
1767,19.0,-190.0,-146.0,0
1768,16.0,-190.0,-146.0,0
1769,15.0,-191.0,-147.0,0
1770,20.0,-190.0,-146.0,0
1771,20.0,-192.0,-146.0,0
1772,21.0,-193.0,-145.0,0
1773,22.0,-195.0,-141.0,0
1774,22.0,-199.0,-141.0,0
1775,20.0,-204.0,-139.0,0
1776,22.0,-203.0,-143.0,0
1777,22.0,-206.0,-142.0,0
1778,18.0,-205.0,-152.0,0
1779,25.0,-209.0,-148.0,0
1780,22.0,-207.0,-147.0,0
1781,22.0,-205.0,-149.0,0
1782,24.0,-204.0,-151.0,0
1783,22.0,-204.0,-150.0,0
1784,23.0,-201.0,-154.0,0
1785,24.0,-202.0,-152.0,0
1786,22.0,-200.0,-156.0,0
1787,24.0,-204.0,-156.0,0
1788,28.0,-206.0,-162.0,0
1789,29.0,-209.0,-162.0,0
1790,36.0,-216.0,-164.0,0
1791,38.0,-221.0,-164.0,0
1792,43.0,-225.0,-167.0,0
1793,45.0,-229.0,-164.0,0
1794,44.0,-232.0,-164.0,0
1795,42.0,-235.0,-168.0,0
1796,35.0,-234.0,-171.0,0
1797,33.0,-235.0,-175.0,0
1798,28.0,-227.0,-178.0,0
1799,26.0,-228.0,-181.0,0
1800,31.0,-230.0,-175.0,0
1801,24.0,-228.0,-185.0,0
1802,21.0,-228.0,-189.0,0
1803,21.0,-230.0,-190.0,0
1804,21.0,-229.0,-190.0,0
1805,21.0,-227.0,-191.0,0
1806,25.0,-221.0,-188.0,0
1807,28.0,-217.0,-186.0,0
1808,34.0,-212.0,-185.0,0
1809,40.0,-216.0,-183.0,0
1810,41.0,-217.0,-188.0,0
1811,50.0,-225.0,-192.0,0
1812,53.0,-231.0,-194.0,0
1813,60.0,-237.0,-201.0,0
1814,61.0,-248.0,-206.0,0
1815,62.0,-252.0,-209.0,0
1816,64.0,-258.0,-217.0,0
1817,66.0,-263.0,-216.0,0
1818,67.0,-270.0,-225.0,0
1819,70.0,-273.0,-233.0,0
1820,76.0,-270.0,-237.0,0
1821,69.0,-262.0,-240.0,0
1822,62.0,-257.0,-240.0,0
1823,59.0,-250.0,-237.0,0
1824,50.0,-241.0,-235.0,0
1825,44.0,-233.0,-230.0,0
1826,36.0,-224.0,-221.0,0
1827,31.0,-215.0,-215.0,0
1828,24.0,-205.0,-211.0,0
1829,16.0,-200.0,-208.0,0
1830,10.0,-190.0,-208.0,0
1831,3.0,-187.0,-202.0,0
1832,2.0,-183.0,-194.0,0
1833,0.0,-180.0,-195.0,0
1834,1.0,-177.0,-194.0,0
1835,-1.0,-171.0,-188.0,0
1836,2.0,-169.0,-189.0,0
1837,1.0,-165.0,-185.0,0
1838,1.0,-159.0,-187.0,0
1839,4.0,-161.0,-187.0,0
1840,6.0,-159.0,-186.0,0
1841,5.0,-159.0,-184.0,0
1842,9.0,-159.0,-184.0,0
1843,9.0,-155.0,-189.0,0
1844,9.0,-154.0,-182.0,0
1845,12.0,-153.0,-180.0,0
1846,5.0,-151.0,-180.0,0
1847,6.0,-151.0,-183.0,0
1848,3.0,-152.0,-184.0,0
1849,2.0,-152.0,-183.0,0
1850,-1.0,-155.0,-186.0,0
1851,-3.0,-154.0,-189.0,0
1852,-5.0,-155.0,-189.0,0
1853,-5.0,-161.0,-193.0,0
1854,-7.0,-163.0,-188.0,0
1855,-9.0,-162.0,-185.0,0
1856,-10.0,-165.0,-188.0,0
1857,-9.0,-170.0,-186.0,0
1858,-9.0,-171.0,-182.0,0
1859,-8.0,-173.0,-185.0,0
1860,-9.0,-173.0,-184.0,0
1861,-6.0,-177.0,-182.0,0
1862,-8.0,-176.0,-180.0,0
1863,-5.0,-178.0,-181.0,0
1864,-7.0,-182.0,-176.0,0
1865,-1.0,-180.0,-179.0,0
1866,0.0,-180.0,-179.0,0
1867,0.0,-178.0,-174.0,0
1868,-1.0,-179.0,-176.0,0
1869,0.0,-178.0,-172.0,0
1870,-2.0,-177.0,-172.0,0
1871,0.0,-178.0,-171.0,0
1872,2.0,-179.0,-173.0,0
1873,0.0,-175.0,-171.0,0
1874,1.0,-174.0,-167.0,0
1875,0.0,-177.0,-168.0,0
1876,-1.0,-175.0,-167.0,0
1877,0.0,-175.0,-166.0,0
1878,0.0,-175.0,-164.0,0
1879,-2.0,-176.0,-162.0,0
1880,0.0,-176.0,-159.0,0
1881,-2.0,-175.0,-159.0,0
1882,-2.0,-178.0,-159.0,0
1883,0.0,-180.0,-161.0,0
1884,0.0,-180.0,-164.0,0
1885,0.0,-180.0,-164.0,0
1886,-2.0,-179.0,-165.0,0
1887,-2.0,-176.0,-163.0,0
1888,-2.0,-180.0,-167.0,0
1889,-10.0,-175.0,-165.0,0
1890,-8.0,-179.0,-165.0,0
1891,-7.0,-175.0,-169.0,0
1892,-9.0,-177.0,-169.0,0
1893,-13.0,-176.0,-166.0,0
1894,-13.0,-174.0,-170.0,0
1895,-13.0,-171.0,-170.0,0
1896,-12.0,-174.0,-176.0,0
1897,-15.0,-172.0,-174.0,0
1898,-18.0,-173.0,-170.0,0
1899,-20.0,-172.0,-172.0,0
1900,-20.0,-172.0,-172.0,0
1901,-19.0,-175.0,-172.0,0
1902,-20.0,-175.0,-172.0,0
1903,-20.0,-174.0,-172.0,0
1904,-19.0,-172.0,-167.0,0
1905,-21.0,-176.0,-169.0,0
1906,-20.0,-174.0,-170.0,0
1907,-18.0,-175.0,-166.0,0
1908,-22.0,-171.0,-169.0,0
1909,-19.0,-174.0,-168.0,0
1910,-21.0,-175.0,-168.0,0
1911,-24.0,-174.0,-167.0,0
1912,-19.0,-176.0,-162.0,0
1913,-27.0,-176.0,-167.0,0
1914,-26.0,-175.0,-164.0,0
1915,-25.0,-178.0,-167.0,0
1916,-24.0,-180.0,-164.0,0
1917,-26.0,-184.0,-166.0,0
1918,-30.0,-183.0,-165.0,0
1919,-25.0,-184.0,-164.0,0
1920,-27.0,-187.0,-163.0,0
1921,-26.0,-189.0,-164.0,0
1922,-26.0,-190.0,-163.0,0
1923,-22.0,-192.0,-164.0,0
1924,-24.0,-190.0,-160.0,0
1925,-25.0,-189.0,-165.0,0
1926,-23.0,-189.0,-164.0,0
1927,-24.0,-186.0,-162.0,0
1928,-23.0,-184.0,-159.0,0
1929,-24.0,-182.0,-160.0,0
1930,-24.0,-182.0,-161.0,0
1931,-30.0,-179.0,-156.0,0
1932,-26.0,-177.0,-157.0,0
1933,-32.0,-175.0,-153.0,0
1934,-31.0,-172.0,-155.0,0
1935,-33.0,-171.0,-150.0,0
1936,-34.0,-168.0,-152.0,0
1937,-37.0,-166.0,-151.0,0
1938,-39.0,-167.0,-151.0,0
1939,-38.0,-165.0,-150.0,0
1940,-43.0,-165.0,-150.0,0
1941,-47.0,-166.0,-149.0,0
1942,-47.0,-167.0,-148.0,0
1943,-47.0,-175.0,-149.0,0
1944,-44.0,-174.0,-152.0,0
1945,-45.0,-175.0,-148.0,0
1946,-46.0,-178.0,-146.0,0
1947,-46.0,-179.0,-147.0,0
1948,-43.0,-181.0,-150.0,0
1949,-39.0,-183.0,-151.0,0
1950,-43.0,-178.0,-149.0,0
1951,-39.0,-184.0,-146.0,0
1952,-38.0,-185.0,-146.0,0
1953,-39.0,-180.0,-148.0,0
1954,-36.0,-182.0,-148.0,0
1955,-38.0,-181.0,-148.0,0
1956,-38.0,-181.0,-147.0,0
1957,-40.0,-179.0,-144.0,0
1958,-39.0,-180.0,-143.0,0
1959,-41.0,-180.0,-143.0,0
1960,-41.0,-179.0,-141.0,0
1961,-46.0,-176.0,-140.0,0
1962,-45.0,-177.0,-143.0,0
1963,-48.0,-178.0,-144.0,0
1964,-48.0,-180.0,-140.0,0
1965,-49.0,-180.0,-141.0,0
1966,-52.0,-183.0,-145.0,0
1967,-56.0,-183.0,-141.0,0
1968,-58.0,-185.0,-140.0,0
1969,-56.0,-186.0,-141.0,0
1970,-57.0,-190.0,-140.0,0
1971,-56.0,-193.0,-146.0,0
1972,-57.0,-192.0,-144.0,0
1973,-61.0,-196.0,-139.0,0
1974,-60.0,-197.0,-140.0,0
1975,-64.0,-197.0,-141.0,0
1976,-61.0,-205.0,-140.0,0
1977,-63.0,-204.0,-137.0,0
1978,-64.0,-203.0,-142.0,0
1979,-62.0,-209.0,-139.0,0
1980,-62.0,-208.0,-143.0,0
1981,-60.0,-207.0,-140.0,0
1982,-63.0,-209.0,-139.0,0
1983,-60.0,-206.0,-140.0,0
1984,-60.0,-205.0,-140.0,0
1985,-57.0,-206.0,-139.0,0
1986,-58.0,-207.0,-139.0,0
1987,-57.0,-207.0,-143.0,0
1988,-57.0,-206.0,-138.0,0
1989,-55.0,-209.0,-139.0,0
1990,-57.0,-211.0,-140.0,0
1991,-51.0,-211.0,-141.0,0
1992,-54.0,-211.0,-141.0,0
1993,-57.0,-213.0,-136.0,0
1994,-54.0,-218.0,-141.0,0
1995,-56.0,-219.0,-147.0,0
1996,-58.0,-220.0,-148.0,0
1997,-53.0,-222.0,-148.0,0
1998,-52.0,-219.0,-153.0,0
1999,-53.0,-219.0,-159.0,0
2000,-53.0,-218.0,-161.0,0
2001,-57.0,-215.0,-165.0,0
2002,-63.0,-215.0,-165.0,0
2003,-66.0,-214.0,-164.0,0
2004,-68.0,-208.0,-163.0,0
2005,-72.0,-211.0,-160.0,0
2006,-70.0,-211.0,-164.0,0
2007,-67.0,-206.0,-170.0,0
2008,-63.0,-207.0,-168.0,0
2009,-64.0,-202.0,-168.0,0
2010,-65.0,-201.0,-167.0,0
2011,-66.0,-196.0,-175.0,0
2012,-66.0,-196.0,-170.0,0
2013,-69.0,-198.0,-169.0,0
2014,-71.0,-199.0,-174.0,0
2015,-78.0,-198.0,-175.0,0
2016,-80.0,-196.0,-178.0,0
2017,-81.0,-200.0,-183.0,0
2018,-84.0,-211.0,-179.0,0
2019,-81.0,-207.0,-183.0,0
2020,-78.0,-215.0,-186.0,0
2021,-78.0,-215.0,-188.0,0
2022,-75.0,-220.0,-189.0,0
2023,-73.0,-223.0,-191.0,0
2024,-69.0,-224.0,-191.0,0
2025,-68.0,-225.0,-201.0,0
2026,-66.0,-225.0,-209.0,0
2027,-67.0,-229.0,-210.0,0
2028,-70.0,-226.0,-209.0,0
2029,-72.0,-225.0,-214.0,0
2030,-76.0,-230.0,-220.0,0
2031,-75.0,-230.0,-216.0,0
2032,-80.0,-226.0,-219.0,0
2033,-88.0,-225.0,-222.0,0
2034,-84.0,-227.0,-226.0,0
2035,-91.0,-229.0,-227.0,0
2036,-93.0,-226.0,-226.0,0
2037,-92.0,-227.0,-230.0,0
2038,-96.0,-225.0,-228.0,0
2039,-93.0,-225.0,-233.0,0
2040,-90.0,-229.0,-228.0,0
2041,-81.0,-224.0,-232.0,0
2042,-69.0,-228.0,-229.0,0
2043,-63.0,-225.0,-230.0,0
2044,-56.0,-224.0,-225.0,0
2045,-46.0,-221.0,-225.0,0
2046,-38.0,-220.0,-219.0,0
2047,-34.0,-213.0,-217.0,0
2048,-28.0,-203.0,-215.0,0
2049,-24.0,-198.0,-212.0,0
2050,-19.0,-189.0,-209.0,0
2051,-18.0,-183.0,-207.0,0
2052,-17.0,-174.0,-203.0,0
2053,-16.0,-167.0,-199.0,0
2054,-13.0,-162.0,-195.0,0
2055,-15.0,-153.0,-193.0,0
2056,-14.0,-150.0,-194.0,0
2057,-15.0,-146.0,-193.0,0
2058,-16.0,-144.0,-189.0,0
2059,-13.0,-148.0,-184.0,0
2060,-14.0,-145.0,-183.0,0
2061,-12.0,-149.0,-180.0,0
2062,-12.0,-151.0,-182.0,0
2063,-9.0,-155.0,-181.0,0
2064,-8.0,-153.0,-178.0,0
2065,-7.0,-158.0,-185.0,0
2066,-7.0,-155.0,-180.0,0
2067,-5.0,-161.0,-183.0,0
2068,-1.0,-162.0,-183.0,0
2069,0.0,-164.0,-189.0,0
2070,-3.0,-166.0,-188.0,0
2071,-1.0,-166.0,-188.0,0
2072,0.0,-172.0,-192.0,0
2073,0.0,-170.0,-195.0,0
2074,-4.0,-178.0,-196.0,0
2075,-11.0,-178.0,-192.0,0
2076,-6.0,-182.0,-191.0,0
2077,-9.0,-185.0,-191.0,0
2078,-10.0,-187.0,-193.0,0
2079,-13.0,-186.0,-191.0,0
2080,-15.0,-185.0,-188.0,0
2081,-16.0,-187.0,-183.0,0
2082,-16.0,-184.0,-182.0,0
2083,-10.0,-182.0,-173.0,0
2084,-15.0,-185.0,-174.0,0
2085,-14.0,-183.0,-174.0,0
2086,-17.0,-180.0,-173.0,0
2087,-17.0,-181.0,-170.0,0
2088,-14.0,-176.0,-169.0,0
2089,-10.0,-172.0,-172.0,0
2090,-5.0,-172.0,-168.0,0
2091,0.0,-170.0,-170.0,0
2092,-2.0,-164.0,-172.0,0
2093,4.0,-164.0,-172.0,0
2094,3.0,-160.0,-176.0,0
2095,5.0,-162.0,-180.0,0
2096,9.0,-164.0,-175.0,0
2097,11.0,-163.0,-174.0,0
2098,14.0,-166.0,-172.0,0
2099,16.0,-174.0,-173.0,0
2100,15.0,-173.0,-173.0,0
2101,14.0,-177.0,-173.0,0
2102,20.0,-182.0,-170.0,0
2103,15.0,-183.0,-168.0,0
2104,18.0,-185.0,-171.0,0
2105,13.0,-185.0,-179.0,0
2106,14.0,-185.0,-167.0,0
2107,13.0,-184.0,-167.0,0
2108,10.0,-184.0,-161.0,0
2109,7.0,-182.0,-163.0,0
2110,4.0,-181.0,-159.0,0
2111,3.0,-176.0,-157.0,0
2112,2.0,-175.0,-152.0,0
2113,1.0,-172.0,-150.0,0
2114,0.0,-169.0,-152.0,0
2115,1.0,-164.0,-149.0,0
2116,2.0,-166.0,-152.0,0
2117,3.0,-165.0,-152.0,0
2118,2.0,-159.0,-150.0,0
2119,2.0,-162.0,-150.0,0
2120,7.0,-163.0,-151.0,0
2121,9.0,-162.0,-151.0,0
2122,8.0,-166.0,-152.0,0
2123,9.0,-167.0,-155.0,0
2124,10.0,-169.0,-156.0,0
2125,10.0,-168.0,-156.0,0
2126,12.0,-175.0,-158.0,0
2127,17.0,-187.0,-156.0,0
2128,14.0,-182.0,-157.0,0
2129,15.0,-184.0,-150.0,0
2130,15.0,-185.0,-151.0,0
2131,13.0,-184.0,-148.0,0
2132,13.0,-185.0,-149.0,0
2133,10.0,-187.0,-147.0,0
2134,11.0,-186.0,-145.0,0
2135,10.0,-184.0,-143.0,0
2136,9.0,-183.0,-143.0,0
2137,14.0,-182.0,-142.0,0
2138,14.0,-180.0,-141.0,0
2139,14.0,-177.0,-144.0,0
2140,14.0,-172.0,-141.0,0
2141,15.0,-175.0,-138.0,0
2142,16.0,-174.0,-141.0,0
2143,18.0,-175.0,-141.0,0
2144,22.0,-179.0,-136.0,0
2145,26.0,-184.0,-141.0,0
2146,24.0,-182.0,-141.0,0
2147,27.0,-180.0,-142.0,0
2148,26.0,-184.0,-139.0,0
2149,22.0,-191.0,-136.0,0
2150,29.0,-187.0,-141.0,0
2151,27.0,-187.0,-138.0,0
2152,31.0,-189.0,-139.0,0
2153,28.0,-185.0,-135.0,0
2154,29.0,-185.0,-139.0,0
2155,29.0,-185.0,-139.0,0
2156,28.0,-185.0,-138.0,0
2157,27.0,-184.0,-131.0,0
2158,28.0,-185.0,-136.0,0
2159,26.0,-183.0,-136.0,0
2160,25.0,-182.0,-137.0,0
2161,23.0,-185.0,-135.0,0
2162,21.0,-185.0,-132.0,0
2163,20.0,-186.0,-133.0,0
2164,18.0,-187.0,-133.0,0
2165,16.0,-187.0,-133.0,0
2166,19.0,-190.0,-133.0,0
2167,16.0,-191.0,-132.0,0
2168,21.0,-195.0,-132.0,0
2169,20.0,-193.0,-135.0,0
2170,22.0,-190.0,-132.0,0
2171,24.0,-192.0,-135.0,0
2172,24.0,-194.0,-132.0,0
2173,27.0,-191.0,-134.0,0
2174,23.0,-186.0,-133.0,0
2175,27.0,-190.0,-134.0,0
2176,28.0,-192.0,-132.0,0
2177,29.0,-195.0,-131.0,0
2178,28.0,-195.0,-125.0,0
2179,25.0,-199.0,-129.0,0
2180,27.0,-203.0,-126.0,0
2181,25.0,-207.0,-123.0,0
2182,23.0,-212.0,-125.0,0
2183,28.0,-216.0,-131.0,0
2184,30.0,-219.0,-128.0,0
2185,28.0,-218.0,-133.0,0
2186,30.0,-221.0,-129.0,0
2187,32.0,-223.0,-131.0,0
2188,32.0,-222.0,-135.0,0
2189,34.0,-221.0,-135.0,0
2190,34.0,-222.0,-132.0,0
2191,38.0,-221.0,-136.0,0
2192,39.0,-218.0,-131.0,0
2193,42.0,-212.0,-135.0,0
2194,39.0,-209.0,-135.0,0
2195,42.0,-205.0,-138.0,0
2196,39.0,-202.0,-135.0,0
2197,34.0,-199.0,-141.0,0
2198,35.0,-200.0,-140.0,0
2199,30.0,-201.0,-142.0,0
2200,30.0,-201.0,-144.0,0
2201,30.0,-207.0,-144.0,0
2202,26.0,-207.0,-149.0,0
2203,22.0,-218.0,-152.0,0
2204,26.0,-229.0,-152.0,0
2205,35.0,-236.0,-153.0,0
2206,35.0,-243.0,-156.0,0
2207,45.0,-251.0,-157.0,0
2208,46.0,-258.0,-161.0,0
2209,41.0,-263.0,-170.0,0
2210,40.0,-263.0,-170.0,0
2211,36.0,-262.0,-179.0,0
2212,30.0,-257.0,-188.0,0
2213,27.0,-261.0,-194.0,0
2214,21.0,-266.0,-202.0,0
2215,21.0,-270.0,-212.0,0
2216,25.0,-275.0,-220.0,0
2217,34.0,-270.0,-221.0,0
2218,40.0,-257.0,-231.0,0
2219,48.0,-246.0,-235.0,0
2220,54.0,-241.0,-238.0,0
2221,56.0,-233.0,-227.0,0
2222,60.0,-239.0,-217.0,0
2223,63.0,-244.0,-208.0,0
2224,63.0,-245.0,-198.0,0
2225,62.0,-247.0,-196.0,0
2226,60.0,-246.0,-201.0,0
2227,59.0,-244.0,-204.0,0
2228,54.0,-237.0,-212.0,0
2229,52.0,-230.0,-213.0,0
2230,48.0,-215.0,-219.0,0
2231,43.0,-206.0,-227.0,0
2232,43.0,-201.0,-230.0,0
2233,39.0,-196.0,-231.0,0
2234,36.0,-191.0,-228.0,0
2235,37.0,-189.0,-226.0,0
2236,31.0,-192.0,-225.0,0
2237,29.0,-189.0,-223.0,0
2238,20.0,-188.0,-224.0,0
2239,15.0,-183.0,-220.0,0
2240,6.0,-183.0,-215.0,0
2241,1.0,-181.0,-216.0,0
2242,-5.0,-176.0,-206.0,0
2243,-6.0,-175.0,-202.0,0
2244,-12.0,-170.0,-194.0,0
2245,-13.0,-165.0,-190.0,0
2246,-14.0,-165.0,-186.0,0
2247,-14.0,-159.0,-184.0,0
2248,-16.0,-154.0,-183.0,0
2249,-16.0,-152.0,-180.0,0
2250,-14.0,-149.0,-178.0,0
2251,-14.0,-149.0,-181.0,0
2252,-18.0,-148.0,-181.0,0
2253,-13.0,-151.0,-183.0,0
2254,-12.0,-155.0,-187.0,0
2255,-11.0,-158.0,-193.0,0
2256,-13.0,-158.0,-190.0,0
2257,-8.0,-165.0,-198.0,0
2258,-13.0,-163.0,-195.0,0
2259,-12.0,-171.0,-198.0,0
2260,-10.0,-174.0,-201.0,0
2261,-12.0,-176.0,-201.0,0
2262,-13.0,-180.0,-202.0,0
2263,-12.0,-179.0,-204.0,0
2264,-13.0,-182.0,-200.0,0
2265,-12.0,-183.0,-197.0,0
2266,-17.0,-184.0,-197.0,0
2267,-20.0,-183.0,-193.0,0
2268,-22.0,-183.0,-191.0,0
2269,-25.0,-183.0,-190.0,0
2270,-24.0,-181.0,-187.0,0
2271,-26.0,-178.0,-184.0,0
2272,-29.0,-174.0,-181.0,0
2273,-29.0,-173.0,-176.0,0
2274,-30.0,-171.0,-177.0,0
2275,-35.0,-169.0,-170.0,0
2276,-36.0,-166.0,-167.0,0
2277,-34.0,-160.0,-169.0,0
2278,-34.0,-158.0,-169.0,0
2279,-35.0,-156.0,-171.0,0
2280,-36.0,-152.0,-172.0,0
2281,-34.0,-147.0,-173.0,0
2282,-31.0,-149.0,-176.0,0
2283,-33.0,-148.0,-173.0,0
2284,-30.0,-149.0,-175.0,0
2285,-28.0,-152.0,-175.0,0
2286,-27.0,-153.0,-179.0,0
2287,-25.0,-152.0,-174.0,0
2288,-22.0,-154.0,-177.0,0
2289,-20.0,-156.0,-176.0,0
2290,-22.0,-153.0,-175.0,0
2291,-20.0,-158.0,-177.0,0
2292,-22.0,-158.0,-172.0,0
2293,-21.0,-161.0,-177.0,0
2294,-25.0,-163.0,-172.0,0
2295,-26.0,-163.0,-173.0,0
2296,-29.0,-166.0,-171.0,0
2297,-27.0,-164.0,-173.0,0
2298,-27.0,-163.0,-168.0,0
2299,-28.0,-167.0,-172.0,0
2300,-24.0,-166.0,-169.0,0
2301,-24.0,-167.0,-171.0,0
2302,-20.0,-167.0,-173.0,0
2303,-23.0,-165.0,-175.0,0
2304,-21.0,-165.0,-172.0,0
2305,-20.0,-166.0,-172.0,0
2306,-21.0,-162.0,-174.0,0
2307,-19.0,-163.0,-171.0,0
2308,-22.0,-160.0,-171.0,0
2309,-18.0,-161.0,-170.0,0
2310,-22.0,-157.0,-175.0,0
2311,-23.0,-155.0,-173.0,0
2312,-25.0,-153.0,-171.0,0
2313,-23.0,-153.0,-172.0,0
2314,-25.0,-153.0,-172.0,0
2315,-26.0,-151.0,-175.0,0
2316,-24.0,-152.0,-170.0,0
2317,-25.0,-146.0,-170.0,0
2318,-24.0,-150.0,-164.0,0
2319,-27.0,-150.0,-168.0,0
2320,-28.0,-149.0,-169.0,0
2321,-30.0,-150.0,-163.0,0
2322,-31.0,-153.0,-169.0,0
2323,-35.0,-152.0,-167.0,0
2324,-32.0,-156.0,-169.0,0
2325,-34.0,-156.0,-170.0,0
2326,-35.0,-156.0,-172.0,0
2327,-34.0,-158.0,-169.0,0
2328,-31.0,-165.0,-168.0,0
2329,-31.0,-164.0,-169.0,0
2330,-28.0,-168.0,-172.0,0
2331,-26.0,-168.0,-170.0,0
2332,-22.0,-167.0,-168.0,0
2333,-20.0,-167.0,-175.0,0
2334,-15.0,-167.0,-176.0,0
2335,-10.0,-170.0,-174.0,0
2336,-12.0,-169.0,-176.0,0
2337,-11.0,-173.0,-174.0,0
2338,-7.0,-173.0,-176.0,0
2339,-4.0,-173.0,-173.0,0
2340,-4.0,-175.0,-171.0,0
2341,-3.0,-174.0,-172.0,0
2342,-2.0,-178.0,-170.0,0
2343,-1.0,-177.0,-166.0,0
2344,0.0,-178.0,-162.0,0
2345,-2.0,-178.0,-159.0,0
2346,0.0,-178.0,-163.0,0
2347,0.0,-181.0,-158.0,0
2348,-5.0,-179.0,-154.0,0
2349,-12.0,-178.0,-150.0,0
2350,-16.0,-177.0,-151.0,0
2351,-18.0,-178.0,-147.0,0
2352,-21.0,-177.0,-147.0,0
2353,-25.0,-174.0,-148.0,0
2354,-29.0,-172.0,-151.0,0
2355,-31.0,-173.0,-156.0,0
2356,-36.0,-175.0,-160.0,0
2357,-37.0,-181.0,-160.0,0
2358,-42.0,-182.0,-167.0,0
2359,-42.0,-189.0,-167.0,0
2360,-47.0,-191.0,-168.0,0
2361,-41.0,-201.0,-176.0,0
2362,-41.0,-205.0,-178.0,0
2363,-40.0,-214.0,-179.0,0
2364,-36.0,-223.0,-182.0,0
2365,-33.0,-223.0,-181.0,0
2366,-27.0,-227.0,-180.0,0
2367,-23.0,-231.0,-181.0,0
2368,-17.0,-232.0,-182.0,0
2369,-15.0,-231.0,-185.0,0
2370,-16.0,-225.0,-184.0,0
2371,-18.0,-221.0,-183.0,0
2372,-23.0,-216.0,-183.0,0
2373,-27.0,-207.0,-184.0,0
2374,-36.0,-202.0,-184.0,0
2375,-46.0,-196.0,-191.0,0
2376,-49.0,-189.0,-185.0,0
2377,-55.0,-191.0,-193.0,0
2378,-55.0,-192.0,-193.0,0
2379,-46.0,-196.0,-193.0,0
2380,-41.0,-200.0,-189.0,0
2381,-28.0,-209.0,-183.0,0
2382,-18.0,-217.0,-183.0,0
2383,-4.0,-225.0,-176.0,0
2384,2.0,-229.0,-169.0,0
2385,9.0,-237.0,-166.0,0
2386,19.0,-240.0,-152.0,0
2387,11.0,-237.0,-142.0,0
2388,18.0,-232.0,-135.0,0
2389,18.0,-246.0,-163.0,0
2390,14.0,-234.0,-151.0,0
2391,6.0,-237.0,-148.0,0
2392,5.0,-230.0,-144.0,0
2393,1.0,-226.0,-140.0,0
2394,-18.0,-222.0,-140.0,0
2395,-13.0,-221.0,-122.0,0
2396,-19.0,-220.0,-126.0,0
2397,-27.0,-214.0,-130.0,0
2398,-34.0,-211.0,-123.0,0
2399,-34.0,-206.0,-127.0,0
2400,-24.0,-202.0,-136.0,0
2401,-25.0,-206.0,-137.0,0
2402,-14.0,-200.0,-140.0,0
2403,-7.0,-203.0,-146.0,0
2404,2.0,-215.0,-145.0,0
2405,11.0,-215.0,-136.0,0
2406,16.0,-225.0,-154.0,0
2407,33.0,-224.0,-140.0,0
2408,25.0,-230.0,-130.0,0
2409,23.0,-231.0,-131.0,0
2410,26.0,-224.0,-141.0,0
2411,16.0,-219.0,-135.0,0
2412,28.0,-224.0,-126.0,0
2413,26.0,-221.0,-125.0,0
2414,26.0,-219.0,-121.0,0
2415,21.0,-212.0,-120.0,0
2416,15.0,-208.0,-119.0,0
2417,8.0,-209.0,-107.0,0
2418,3.0,-205.0,-125.0,0
2419,8.0,-203.0,-110.0,0
2420,-2.0,-205.0,-104.0,0
2421,-12.0,-205.0,-106.0,0
2422,-14.0,-205.0,-106.0,0
2423,0.0,-207.0,-97.0,0
2424,-16.0,-192.0,-105.0,0
2425,-20.0,-219.0,-107.0,0
2426,-13.0,-205.0,-121.0,0
2427,-21.0,-210.0,-113.0,0
2428,-25.0,-212.0,-113.0,0
2429,-25.0,-218.0,-112.0,0
2430,-26.0,-217.0,-113.0,0
2431,-36.0,-221.0,-110.0,0
2432,-31.0,-222.0,-104.0,0
2433,-33.0,-228.0,-112.0,0
2434,-28.0,-223.0,-112.0,0
2435,-26.0,-232.0,-116.0,0
2436,-22.0,-225.0,-107.0,0
2437,-13.0,-224.0,-120.0,0
2438,-15.0,-226.0,-114.0,0
2439,-11.0,-234.0,-117.0,0
2440,-23.0,-227.0,-115.0,0
2441,-10.0,-235.0,-117.0,0
2442,-1.0,-230.0,-115.0,0
2443,0.0,-232.0,-111.0,0
2444,1.0,-232.0,-113.0,0
2445,5.0,-234.0,-113.0,0
2446,9.0,-236.0,-113.0,0
2447,12.0,-233.0,-115.0,0
2448,13.0,-225.0,-104.0,0
2449,18.0,-234.0,-111.0,0
2450,10.0,-228.0,-111.0,0
2451,18.0,-238.0,-128.0,0
2452,10.0,-235.0,-103.0,0
2453,23.0,-233.0,-113.0,0
2454,14.0,-240.0,-115.0,0
2455,21.0,-235.0,-117.0,0
2456,11.0,-227.0,-126.0,0
2457,8.0,-228.0,-108.0,0
2458,11.0,-229.0,-115.0,0
2459,9.0,-229.0,-114.0,0
2460,11.0,-227.0,-112.0,0
2461,12.0,-230.0,-118.0,0
2462,18.0,-242.0,-120.0,0
2463,10.0,-235.0,-110.0,0
2464,17.0,-232.0,-134.0,0
2465,16.0,-237.0,-123.0,0
2466,14.0,-231.0,-129.0,0
2467,8.0,-234.0,-111.0,0
2468,19.0,-241.0,-133.0,0
2469,8.0,-229.0,-119.0,0
2470,17.0,-228.0,-132.0,0
2471,10.0,-239.0,-110.0,0
2472,15.0,-239.0,-120.0,0
2473,16.0,-239.0,-122.0,0
2474,20.0,-238.0,-118.0,0
2475,22.0,-237.0,-117.0,0
2476,25.0,-238.0,-120.0,0
2477,25.0,-234.0,-119.0,0
2478,29.0,-234.0,-120.0,0
2479,29.0,-239.0,-122.0,0
2480,38.0,-231.0,-122.0,0
2481,34.0,-231.0,-121.0,0
2482,44.0,-232.0,-122.0,0
2483,46.0,-229.0,-122.0,0
2484,47.0,-232.0,-119.0,0
2485,49.0,-228.0,-126.0,0
2486,60.0,-223.0,-134.0,0
2487,56.0,-225.0,-128.0,0
2488,57.0,-226.0,-131.0,0
2489,52.0,-224.0,-133.0,0
2490,53.0,-225.0,-132.0,0
2491,49.0,-229.0,-137.0,0
2492,44.0,-218.0,-136.0,0
2493,34.0,-221.0,-136.0,0
2494,26.0,-220.0,-131.0,0
2495,16.0,-223.0,-129.0,0
2496,11.0,-230.0,-128.0,0
2497,1.0,-231.0,-122.0,0
2498,-6.0,-233.0,-117.0,0
2499,-15.0,-235.0,-114.0,0
2500,-23.0,-238.0,-112.0,0
2501,-23.0,-235.0,-107.0,0
2502,-32.0,-237.0,-111.0,0
2503,-35.0,-236.0,-112.0,0
2504,-36.0,-235.0,-107.0,0
2505,-39.0,-231.0,-108.0,0
2506,-39.0,-225.0,-106.0,0
2507,-37.0,-225.0,-105.0,0
2508,-33.0,-218.0,-105.0,0
2509,-30.0,-215.0,-105.0,0
2510,-27.0,-213.0,-109.0,0
2511,-22.0,-212.0,-107.0,0
2512,-15.0,-208.0,-110.0,0
2513,-12.0,-206.0,-114.0,0
2514,-10.0,-204.0,-113.0,0
2515,-3.0,-205.0,-114.0,0
2516,0.0,-205.0,-121.0,0
2517,3.0,-218.0,-130.0,0
2518,4.0,-216.0,-126.0,0
2519,2.0,-221.0,-126.0,0
2520,6.0,-227.0,-128.0,0
2521,5.0,-227.0,-129.0,0
2522,3.0,-234.0,-128.0,0
2523,1.0,-237.0,-126.0,0
2524,0.0,-238.0,-132.0,0
2525,1.0,-240.0,-129.0,0
2526,-4.0,-240.0,-129.0,0
2527,-5.0,-241.0,-124.0,0
2528,-8.0,-241.0,-128.0,0
2529,-9.0,-236.0,-122.0,0
2530,-11.0,-238.0,-121.0,0
2531,-15.0,-236.0,-120.0,0
2532,-16.0,-235.0,-122.0,0
2533,-17.0,-236.0,-121.0,0
2534,-18.0,-230.0,-121.0,0
2535,-15.0,-229.0,-120.0,0
2536,-14.0,-228.0,-114.0,0
2537,-11.0,-230.0,-116.0,0
2538,-11.0,-228.0,-114.0,0
2539,-13.0,-225.0,-115.0,0
2540,-11.0,-227.0,-110.0,0
2541,-9.0,-230.0,-113.0,0
2542,-6.0,-230.0,-111.0,0
2543,-8.0,-229.0,-113.0,0
2544,-9.0,-229.0,-111.0,0
2545,-10.0,-230.0,-113.0,0
2546,-13.0,-228.0,-113.0,0
2547,-12.0,-226.0,-114.0,0
2548,-13.0,-226.0,-114.0,0
2549,-17.0,-230.0,-117.0,0
2550,-15.0,-226.0,-117.0,0
2551,-20.0,-224.0,-116.0,0
2552,-23.0,-226.0,-116.0,0
2553,-26.0,-221.0,-119.0,0
2554,-28.0,-221.0,-119.0,0
2555,-32.0,-220.0,-116.0,0
2556,-31.0,-219.0,-122.0,0
2557,-35.0,-217.0,-124.0,0
2558,-34.0,-217.0,-121.0,0
2559,-36.0,-221.0,-116.0,0
2560,-37.0,-218.0,-122.0,0
2561,-36.0,-218.0,-121.0,0
2562,-38.0,-219.0,-125.0,0
2563,-37.0,-214.0,-121.0,0
2564,-36.0,-220.0,-121.0,0
2565,-32.0,-222.0,-118.0,0
2566,-35.0,-219.0,-123.0,0
2567,-32.0,-218.0,-123.0,0
2568,-30.0,-217.0,-124.0,0
2569,-27.0,-220.0,-121.0,0
2570,-23.0,-220.0,-121.0,0
2571,-23.0,-222.0,-121.0,0
2572,-20.0,-222.0,-119.0,0
2573,-17.0,-225.0,-121.0,0
2574,-17.0,-227.0,-121.0,0
2575,-16.0,-224.0,-123.0,0
2576,-13.0,-230.0,-118.0,0
2577,-13.0,-231.0,-119.0,0
2578,-16.0,-231.0,-117.0,0
2579,-16.0,-229.0,-115.0,0
2580,-13.0,-229.0,-119.0,0
2581,-17.0,-230.0,-116.0,0
2582,-19.0,-231.0,-117.0,0
2583,-21.0,-231.0,-118.0,0
2584,-20.0,-229.0,-117.0,0
2585,-21.0,-230.0,-118.0,0
2586,-19.0,-232.0,-122.0,0
2587,-20.0,-232.0,-114.0,0
2588,-17.0,-230.0,-120.0,0
2589,-19.0,-229.0,-113.0,0
2590,-18.0,-229.0,-119.0,0
2591,-17.0,-227.0,-118.0,0
2592,-19.0,-230.0,-120.0,0
2593,-17.0,-227.0,-121.0,0
2594,-14.0,-230.0,-118.0,0
2595,-14.0,-224.0,-122.0,0
2596,-14.0,-227.0,-123.0,0
2597,-13.0,-226.0,-119.0,0
2598,-11.0,-225.0,-124.0,0
2599,-10.0,-227.0,-122.0,0
2600,-10.0,-226.0,-122.0,0
2601,-9.0,-225.0,-122.0,0
2602,-8.0,-226.0,-125.0,0
2603,-12.0,-221.0,-122.0,0
2604,-11.0,-224.0,-120.0,0
2605,-14.0,-225.0,-122.0,0
2606,-13.0,-224.0,-126.0,0
2607,-13.0,-224.0,-125.0,0
2608,-14.0,-229.0,-123.0,0
2609,-16.0,-226.0,-123.0,0
2610,-16.0,-230.0,-120.0,0
2611,-18.0,-228.0,-119.0,0
2612,-20.0,-229.0,-117.0,0
2613,-15.0,-229.0,-122.0,0
2614,-16.0,-227.0,-122.0,0
2615,-15.0,-232.0,-121.0,0
2616,-16.0,-230.0,-121.0,0
2617,-16.0,-230.0,-122.0,0
2618,-19.0,-229.0,-117.0,0
2619,-17.0,-232.0,-121.0,0
2620,-19.0,-232.0,-120.0,0
2621,-15.0,-232.0,-121.0,0
2622,-20.0,-232.0,-120.0,0
2623,-21.0,-233.0,-121.0,0
2624,-20.0,-229.0,-119.0,0
2625,-19.0,-229.0,-123.0,0
2626,-17.0,-231.0,-121.0,0
2627,-17.0,-231.0,-123.0,0
2628,-18.0,-228.0,-122.0,0
2629,-16.0,-228.0,-122.0,0
2630,-16.0,-230.0,-123.0,0
2631,-17.0,-230.0,-124.0,0
2632,-19.0,-229.0,-124.0,0
2633,-18.0,-227.0,-122.0,0
2634,-19.0,-227.0,-124.0,0
2635,-18.0,-227.0,-123.0,0
2636,-16.0,-226.0,-122.0,0
2637,-18.0,-235.0,-112.0,0
2638,-14.0,-226.0,-119.0,0
2639,-17.0,-227.0,-118.0,0
2640,-19.0,-227.0,-119.0,0
2641,-17.0,-233.0,-120.0,0
2642,-17.0,-224.0,-116.0,0
2643,-17.0,-230.0,-120.0,0
2644,-18.0,-231.0,-119.0,0
2645,-18.0,-231.0,-114.0,0
2646,-18.0,-229.0,-118.0,0
2647,-17.0,-231.0,-116.0,0
2648,-24.0,-228.0,-115.0,0
2649,-14.0,-231.0,-119.0,0
2650,-16.0,-231.0,-120.0,0
2651,-17.0,-231.0,-119.0,0
2652,-17.0,-229.0,-117.0,0
2653,-17.0,-232.0,-119.0,0
2654,-17.0,-231.0,-119.0,0
2655,-19.0,-231.0,-119.0,0
2656,-15.0,-233.0,-119.0,0
2657,-19.0,-232.0,-117.0,0
2658,-20.0,-232.0,-115.0,0
2659,-19.0,-233.0,-117.0,0
2660,-16.0,-232.0,-119.0,0
2661,-20.0,-228.0,-119.0,0
2662,-20.0,-232.0,-118.0,0
2663,-21.0,-230.0,-115.0,0
2664,-18.0,-229.0,-117.0,0
2665,-20.0,-232.0,-111.0,0
2666,-20.0,-229.0,-119.0,0
2667,-19.0,-232.0,-117.0,0
2668,-20.0,-230.0,-113.0,0
2669,-24.0,-231.0,-117.0,0
2670,-15.0,-232.0,-115.0,0
2671,-17.0,-227.0,-118.0,0
2672,-16.0,-231.0,-118.0,0
2673,-19.0,-229.0,-116.0,0
2674,-16.0,-231.0,-118.0,0
2675,-18.0,-231.0,-113.0,0
2676,-18.0,-231.0,-115.0,0
2677,-16.0,-229.0,-118.0,0
2678,-16.0,-229.0,-117.0,0
2679,-18.0,-229.0,-113.0,0
2680,-18.0,-231.0,-117.0,0
2681,-19.0,-228.0,-116.0,0
2682,-17.0,-229.0,-117.0,0
2683,-21.0,-232.0,-117.0,0
2684,-22.0,-229.0,-115.0,0
2685,-18.0,-233.0,-114.0,0
2686,-19.0,-228.0,-112.0,0
2687,-22.0,-225.0,-115.0,0
2688,-18.0,-228.0,-117.0,0
2689,-20.0,-224.0,-116.0,0
2690,-21.0,-225.0,-115.0,0
2691,-16.0,-233.0,-119.0,0
2692,-19.0,-230.0,-115.0,0
2693,-16.0,-230.0,-112.0,0
2694,-18.0,-227.0,-110.0,0
2695,-17.0,-227.0,-114.0,0
2696,-17.0,-227.0,-112.0,0
2697,-17.0,-230.0,-115.0,0
2698,-18.0,-228.0,-112.0,0
2699,-17.0,-231.0,-116.0,0
2700,-18.0,-233.0,-117.0,0
2701,-18.0,-235.0,-114.0,0
2702,-18.0,-233.0,-116.0,0
2703,-17.0,-238.0,-113.0,0
2704,-18.0,-237.0,-113.0,0
2705,-21.0,-237.0,-113.0,0
2706,-22.0,-238.0,-114.0,0
2707,-20.0,-236.0,-113.0,0
2708,-22.0,-235.0,-109.0,0
2709,-22.0,-236.0,-112.0,0
2710,-19.0,-231.0,-111.0,0
2711,-19.0,-234.0,-113.0,0
2712,-21.0,-232.0,-111.0,0
2713,-23.0,-227.0,-123.0,0
2714,-21.0,-230.0,-108.0,0
2715,-19.0,-232.0,-111.0,0
2716,-20.0,-229.0,-109.0,0
2717,-19.0,-230.0,-107.0,0
2718,-17.0,-231.0,-108.0,0
2719,-20.0,-229.0,-110.0,0
2720,-19.0,-228.0,-109.0,0
2721,-22.0,-227.0,-107.0,0
2722,-17.0,-233.0,-109.0,0
2723,-19.0,-231.0,-111.0,0
2724,-17.0,-230.0,-105.0,0
2725,-21.0,-234.0,-109.0,0
2726,-21.0,-233.0,-110.0,0
2727,-19.0,-230.0,-111.0,0
2728,-19.0,-235.0,-105.0,0
2729,-18.0,-231.0,-112.0,0
2730,-20.0,-234.0,-109.0,0
2731,-17.0,-235.0,-112.0,0
2732,-20.0,-233.0,-113.0,0
2733,-17.0,-234.0,-111.0,0
2734,-19.0,-233.0,-111.0,0
2735,-17.0,-228.0,-101.0,0
2736,-19.0,-231.0,-108.0,0
2737,-22.0,-233.0,-112.0,0
2738,-20.0,-232.0,-110.0,0
2739,-21.0,-233.0,-106.0,0
2740,-21.0,-229.0,-110.0,0
2741,-17.0,-231.0,-109.0,0
2742,-19.0,-229.0,-107.0,0
2743,-21.0,-229.0,-107.0,0
2744,-19.0,-230.0,-109.0,0
2745,-20.0,-228.0,-110.0,0
2746,-18.0,-232.0,-109.0,0
2747,-19.0,-233.0,-110.0,0
2748,-22.0,-231.0,-109.0,0
2749,-19.0,-234.0,-111.0,0
2750,-18.0,-233.0,-114.0,0
2751,-23.0,-232.0,-112.0,0
2752,-23.0,-230.0,-113.0,0
2753,-22.0,-238.0,-110.0,0
2754,-22.0,-234.0,-109.0,0
2755,-23.0,-235.0,-108.0,0
2756,-19.0,-233.0,-108.0,0
2757,-22.0,-237.0,-109.0,0
2758,-21.0,-237.0,-109.0,0
2759,-23.0,-234.0,-107.0,0
2760,-23.0,-234.0,-107.0,0
2761,-25.0,-232.0,-108.0,0
2762,-24.0,-234.0,-105.0,0
2763,-22.0,-237.0,-105.0,0
2764,-21.0,-235.0,-109.0,0
2765,-21.0,-238.0,-108.0,0
2766,-24.0,-234.0,-107.0,0
2767,-24.0,-232.0,-106.0,0
2768,-22.0,-235.0,-105.0,0
2769,-24.0,-234.0,-105.0,0
2770,-24.0,-233.0,-105.0,0
2771,-20.0,-234.0,-107.0,0
2772,-22.0,-234.0,-106.0,0
2773,-21.0,-234.0,-104.0,0
2774,-24.0,-230.0,-107.0,0
2775,-24.0,-231.0,-107.0,0
2776,-23.0,-231.0,-103.0,0
2777,-27.0,-233.0,-108.0,0
2778,-21.0,-230.0,-104.0,0
2779,-21.0,-233.0,-108.0,0
2780,-22.0,-232.0,-106.0,0
2781,-21.0,-230.0,-102.0,0
2782,-25.0,-230.0,-105.0,0
2783,-23.0,-230.0,-109.0,0
2784,-23.0,-231.0,-104.0,0
2785,-22.0,-232.0,-104.0,0
2786,-21.0,-232.0,-105.0,0
2787,-20.0,-232.0,-110.0,0
2788,-21.0,-233.0,-105.0,0
2789,-26.0,-234.0,-105.0,0
2790,-25.0,-230.0,-106.0,0
2791,-24.0,-237.0,-107.0,0
2792,-25.0,-236.0,-106.0,0
2793,-25.0,-234.0,-108.0,0
2794,-25.0,-235.0,-108.0,0
2795,-29.0,-235.0,-109.0,0
2796,-26.0,-235.0,-109.0,0
2797,-28.0,-233.0,-107.0,0
2798,-27.0,-234.0,-108.0,0
2799,-30.0,-239.0,-97.0,0
2800,-28.0,-233.0,-104.0,0
2801,-28.0,-234.0,-103.0,0
2802,-32.0,-235.0,-102.0,0
2803,-30.0,-236.0,-106.0,0
2804,-30.0,-235.0,-108.0,0
2805,-33.0,-232.0,-102.0,0
2806,-32.0,-234.0,-104.0,0
2807,-32.0,-237.0,-103.0,0
2808,-32.0,-235.0,-104.0,0
2809,-30.0,-238.0,-107.0,0
2810,-33.0,-236.0,-101.0,0
2811,-37.0,-234.0,-102.0,0
2812,-35.0,-237.0,-102.0,0
2813,-35.0,-239.0,-100.0,0
2814,-36.0,-236.0,-102.0,0
2815,-36.0,-238.0,-101.0,0
2816,-38.0,-236.0,-99.0,0
2817,-38.0,-237.0,-101.0,0
2818,-39.0,-233.0,-103.0,0
2819,-38.0,-235.0,-104.0,0
2820,-37.0,-232.0,-105.0,0
2821,-42.0,-231.0,-104.0,0
2822,-37.0,-230.0,-109.0,0
2823,-43.0,-230.0,-111.0,0
2824,-41.0,-226.0,-107.0,0
2825,-38.0,-232.0,-108.0,0
2826,-40.0,-231.0,-107.0,0
2827,-41.0,-230.0,-111.0,0
2828,-42.0,-228.0,-105.0,0
2829,-43.0,-229.0,-106.0,0
2830,-45.0,-228.0,-106.0,0
2831,-42.0,-230.0,-106.0,0
2832,-45.0,-229.0,-104.0,0
2833,-44.0,-228.0,-101.0,0
2834,-43.0,-229.0,-102.0,0
2835,-42.0,-227.0,-103.0,0
2836,-45.0,-225.0,-99.0,0
2837,-43.0,-225.0,-105.0,0
2838,-45.0,-222.0,-103.0,0
2839,-44.0,-221.0,-103.0,0
2840,-46.0,-222.0,-103.0,0
2841,-45.0,-217.0,-108.0,0
2842,-41.0,-219.0,-106.0,0
2843,-43.0,-221.0,-102.0,0
2844,-42.0,-218.0,-101.0,0
2845,-43.0,-219.0,-102.0,0
2846,-45.0,-222.0,-103.0,0
2847,-42.0,-222.0,-103.0,0
2848,-41.0,-222.0,-99.0,0
2849,-39.0,-223.0,-100.0,0
2850,-40.0,-222.0,-100.0,0
2851,-40.0,-226.0,-98.0,0
2852,-39.0,-232.0,-100.0,0
2853,-39.0,-234.0,-95.0,0
2854,-39.0,-233.0,-96.0,0
2855,-39.0,-235.0,-92.0,0
2856,-39.0,-239.0,-97.0,0
2857,-39.0,-239.0,-95.0,0
2858,-41.0,-241.0,-94.0,0
2859,-43.0,-243.0,-94.0,0
2860,-41.0,-242.0,-100.0,0
2861,-43.0,-241.0,-96.0,0
2862,-43.0,-244.0,-97.0,0
2863,-46.0,-242.0,-99.0,0
2864,-44.0,-245.0,-99.0,0
2865,-43.0,-246.0,-99.0,0
2866,-43.0,-240.0,-98.0,0
2867,-41.0,-241.0,-96.0,0
2868,-42.0,-239.0,-96.0,0
2869,-41.0,-238.0,-99.0,0
2870,-36.0,-238.0,-99.0,0
2871,-38.0,-234.0,-97.0,0
2872,-32.0,-235.0,-101.0,0
2873,-28.0,-230.0,-99.0,0
2874,-25.0,-231.0,-98.0,0
2875,-23.0,-234.0,-99.0,0
2876,-21.0,-230.0,-102.0,0
2877,-20.0,-230.0,-99.0,0
2878,-20.0,-228.0,-103.0,0
2879,-14.0,-229.0,-103.0,0
2880,-16.0,-229.0,-104.0,0
2881,-13.0,-229.0,-101.0,0
2882,-17.0,-228.0,-99.0,0
2883,-13.0,-228.0,-105.0,0
2884,-15.0,-227.0,-98.0,0
2885,-15.0,-229.0,-100.0,0
2886,-13.0,-230.0,-100.0,0
2887,-13.0,-230.0,-100.0,0
2888,-13.0,-234.0,-101.0,0
2889,-15.0,-233.0,-95.0,0
2890,-15.0,-236.0,-97.0,0
2891,-15.0,-237.0,-99.0,0
2892,-16.0,-234.0,-97.0,0
2893,-16.0,-234.0,-97.0,0
2894,-13.0,-234.0,-98.0,0
2895,-14.0,-236.0,-99.0,0
2896,-16.0,-236.0,-96.0,0
2897,-14.0,-238.0,-99.0,0
2898,-20.0,-236.0,-101.0,0
2899,-17.0,-239.0,-97.0,0
2900,-19.0,-239.0,-96.0,0
2901,-22.0,-240.0,-105.0,0
2902,-24.0,-238.0,-103.0,0
2903,-21.0,-241.0,-104.0,0
2904,-25.0,-241.0,-107.0,0
2905,-23.0,-239.0,-109.0,0
2906,-24.0,-237.0,-112.0,0
2907,-27.0,-242.0,-115.0,0
2908,-30.0,-236.0,-116.0,0
2909,-25.0,-240.0,-123.0,0
2910,-30.0,-236.0,-119.0,0
2911,-29.0,-237.0,-124.0,0
2912,-30.0,-240.0,-125.0,0
2913,-27.0,-241.0,-124.0,0
2914,-31.0,-241.0,-126.0,0
2915,-36.0,-240.0,-127.0,0
2916,-34.0,-242.0,-126.0,0
2917,-42.0,-237.0,-127.0,0
2918,-42.0,-236.0,-129.0,0
2919,-47.0,-234.0,-126.0,0
2920,-49.0,-234.0,-127.0,0
2921,-49.0,-228.0,-123.0,0
2922,-48.0,-227.0,-125.0,0
2923,-49.0,-226.0,-125.0,0
2924,-47.0,-226.0,-124.0,0
2925,-49.0,-226.0,-119.0,0
2926,-49.0,-226.0,-126.0,0
2927,-49.0,-227.0,-123.0,0
2928,-49.0,-222.0,-127.0,0
2929,-46.0,-227.0,-125.0,0
2930,-42.0,-219.0,-128.0,0
2931,-43.0,-223.0,-130.0,0
2932,-40.0,-221.0,-132.0,0
2933,-39.0,-227.0,-134.0,0
2934,-39.0,-227.0,-133.0,0
2935,-37.0,-235.0,-138.0,0
2936,-33.0,-241.0,-139.0,0
2937,-34.0,-246.0,-138.0,0
2938,-30.0,-250.0,-136.0,0
2939,-32.0,-251.0,-134.0,0
2940,-30.0,-255.0,-134.0,0
2941,-32.0,-253.0,-130.0,0
2942,-32.0,-250.0,-125.0,0
2943,-29.0,-249.0,-125.0,0
2944,-33.0,-241.0,-124.0,0
2945,-36.0,-234.0,-121.0,0
2946,-34.0,-231.0,-124.0,0
2947,-36.0,-222.0,-124.0,0
2948,-41.0,-214.0,-125.0,0
2949,-44.0,-209.0,-124.0,0
2950,-44.0,-205.0,-130.0,0
2951,-46.0,-202.0,-130.0,0
2952,-47.0,-201.0,-132.0,0
2953,-44.0,-200.0,-138.0,0
2954,-42.0,-197.0,-139.0,0
2955,-44.0,-196.0,-141.0,0
2956,-36.0,-200.0,-148.0,0
2957,-32.0,-204.0,-152.0,0
2958,-25.0,-208.0,-154.0,0
2959,-16.0,-213.0,-158.0,0
2960,-11.0,-213.0,-164.0,0
2961,-4.0,-218.0,-166.0,0
2962,1.0,-219.0,-174.0,0
2963,8.0,-224.0,-169.0,0
2964,8.0,-220.0,-170.0,0
2965,10.0,-215.0,-169.0,0
2966,14.0,-213.0,-171.0,0
2967,15.0,-205.0,-172.0,0
2968,15.0,-199.0,-172.0,0
2969,15.0,-193.0,-168.0,0
2970,17.0,-185.0,-165.0,0
2971,18.0,-183.0,-161.0,0
2972,22.0,-182.0,-159.0,0
2973,20.0,-180.0,-156.0,0
2974,18.0,-180.0,-145.0,0
2975,21.0,-182.0,-149.0,0
2976,19.0,-181.0,-148.0,0
2977,19.0,-189.0,-148.0,0
2978,12.0,-192.0,-148.0,0
2979,9.0,-199.0,-146.0,0
2980,2.0,-203.0,-145.0,0
2981,0.0,-209.0,-145.0,0
2982,-7.0,-215.0,-147.0,0
2983,-9.0,-217.0,-149.0,0
2984,-11.0,-215.0,-148.0,0
2985,-13.0,-216.0,-147.0,0
2986,-11.0,-219.0,-147.0,0
2987,-11.0,-219.0,-151.0,0
2988,-11.0,-220.0,-148.0,0
2989,-10.0,-219.0,-153.0,0
2990,-7.0,-217.0,-154.0,0
2991,-5.0,-217.0,-151.0,0
2992,2.0,-217.0,-156.0,0
2993,0.0,-216.0,-154.0,0
2994,-3.0,-215.0,-153.0,0
2995,0.0,-214.0,-155.0,0
2996,2.0,-219.0,-154.0,0
2997,1.0,-219.0,-152.0,0
2998,5.0,-217.0,-146.0,0
2999,6.0,-215.0,-151.0,0
3000,5.0,-210.0,-145.0,0
3001,10.0,-212.0,-143.0,0
3002,9.0,-207.0,-142.0,0
3003,7.0,-207.0,-144.0,0
3004,5.0,-205.0,-141.0,0
3005,3.0,-201.0,-138.0,0
3006,5.0,-206.0,-141.0,0
3007,0.0,-204.0,-136.0,0
3008,-1.0,-204.0,-136.0,0
3009,-2.0,-206.0,-134.0,0
3010,-4.0,-205.0,-135.0,0
3011,-5.0,-209.0,-131.0,0
3012,-10.0,-209.0,-135.0,0
3013,-8.0,-212.0,-136.0,0
3014,-10.0,-212.0,-131.0,0
3015,-11.0,-216.0,-129.0,0
3016,-12.0,-218.0,-132.0,0
3017,-11.0,-219.0,-127.0,0
3018,-7.0,-229.0,-122.0,0
3019,-8.0,-222.0,-126.0,0
3020,-6.0,-218.0,-128.0,0
3021,-5.0,-219.0,-126.0,0
3022,-7.0,-216.0,-129.0,0
3023,-6.0,-215.0,-128.0,0
3024,-2.0,-213.0,-125.0,0
3025,-1.0,-211.0,-121.0,0
3026,-4.0,-214.0,-122.0,0
3027,-4.0,-210.0,-116.0,0
3028,-3.0,-213.0,-117.0,0
3029,-1.0,-214.0,-110.0,0
3030,0.0,-213.0,-110.0,0
3031,1.0,-218.0,-109.0,0
3032,0.0,-217.0,-108.0,0
3033,-1.0,-218.0,-109.0,0
3034,-5.0,-217.0,-105.0,0
3035,-4.0,-221.0,-103.0,0
3036,-9.0,-219.0,-100.0,0
3037,-15.0,-219.0,-99.0,0
3038,-17.0,-219.0,-100.0,0
3039,-19.0,-216.0,-96.0,0
3040,-17.0,-213.0,-92.0,0
3041,-25.0,-209.0,-93.0,0
3042,-22.0,-210.0,-92.0,0
3043,-23.0,-204.0,-94.0,0
3044,-21.0,-203.0,-91.0,0
3045,-17.0,-202.0,-95.0,0
3046,-16.0,-199.0,-91.0,0
3047,-13.0,-195.0,-93.0,0
3048,-10.0,-195.0,-91.0,0
3049,-7.0,-191.0,-98.0,0
3050,0.0,-187.0,-97.0,0
3051,0.0,-183.0,-91.0,0
3052,2.0,-183.0,-90.0,0
3053,5.0,-180.0,-93.0,0
3054,9.0,-176.0,-91.0,0
3055,12.0,-179.0,-93.0,0
3056,16.0,-178.0,-98.0,0
3057,19.0,-177.0,-102.0,0
3058,21.0,-180.0,-100.0,0
3059,23.0,-184.0,-109.0,0
3060,29.0,-192.0,-107.0,0
3061,28.0,-204.0,-118.0,0
3062,34.0,-202.0,-114.0,0
3063,37.0,-209.0,-116.0,0
3064,40.0,-217.0,-115.0,0
3065,39.0,-222.0,-115.0,0
3066,37.0,-222.0,-111.0,0
3067,42.0,-226.0,-111.0,0
3068,43.0,-224.0,-104.0,0
3069,41.0,-221.0,-103.0,0
3070,43.0,-218.0,-98.0,0
3071,46.0,-221.0,-102.0,0
3072,42.0,-210.0,-97.0,0
3073,42.0,-204.0,-96.0,0
3074,45.0,-203.0,-101.0,0
3075,46.0,-201.0,-100.0,0
3076,46.0,-199.0,-99.0,0
3077,47.0,-202.0,-105.0,0
3078,51.0,-205.0,-103.0,0
3079,51.0,-206.0,-104.0,0
3080,53.0,-208.0,-104.0,0
3081,59.0,-214.0,-103.0,0
3082,58.0,-216.0,-108.0,0
3083,59.0,-216.0,-121.0,0
3084,60.0,-223.0,-104.0,0
3085,62.0,-226.0,-103.0,0
3086,63.0,-227.0,-98.0,0
3087,60.0,-229.0,-95.0,0
3088,56.0,-227.0,-89.0,0
3089,55.0,-226.0,-91.0,0
3090,55.0,-221.0,-86.0,0
3091,52.0,-219.0,-84.0,0
3092,54.0,-212.0,-84.0,0
3093,53.0,-212.0,-82.0,0
3094,57.0,-206.0,-85.0,0
3095,62.0,-204.0,-82.0,0
3096,62.0,-196.0,-84.0,0
3097,61.0,-194.0,-81.0,0
3098,62.0,-191.0,-82.0,0
3099,61.0,-190.0,-80.0,0
3100,58.0,-185.0,-76.0,0
3101,57.0,-185.0,-72.0,0
3102,63.0,-187.0,-61.0,0
3103,58.0,-188.0,-53.0,0
3104,50.0,-186.0,-52.0,0
3105,51.0,-179.0,-63.0,0
3106,47.0,-173.0,-87.0,0
3107,39.0,-174.0,-121.0,0
3108,32.0,-184.0,-147.0,0
3109,19.0,-200.0,-167.0,0
3110,10.0,-226.0,-178.0,0
3111,-1.0,-247.0,-192.0,0
3112,-15.0,-265.0,-204.0,0
3113,-32.0,-280.0,-211.0,0
3114,-49.0,-293.0,-214.0,0
3115,-62.0,-308.0,-215.0,0
3116,-75.0,-314.0,-201.0,0
3117,-87.0,-323.0,-183.0,0
3118,-103.0,-324.0,-169.0,0
3119,-112.0,-323.0,-154.0,0
3120,-117.0,-320.0,-142.0,0
3121,-120.0,-317.0,-128.0,0
3122,-120.0,-311.0,-116.0,0
3123,-115.0,-307.0,-108.0,0
3124,-107.0,-301.0,-101.0,0
3125,-90.0,-298.0,-96.0,0
3126,-76.0,-294.0,-104.0,0
3127,-56.0,-295.0,-102.0,0
3128,-52.0,-285.0,-121.0,0
3129,-45.0,-278.0,-139.0,0
3130,-39.0,-273.0,-159.0,0
3131,-43.0,-264.0,-172.0,0
3132,-49.0,-265.0,-188.0,0
3133,-60.0,-266.0,-196.0,0
3134,-69.0,-272.0,-201.0,0
3135,-83.0,-281.0,-195.0,0
3136,-95.0,-292.0,-190.0,0
3137,-111.0,-307.0,-186.0,0
3138,-126.0,-314.0,-169.0,0
3139,-132.0,-327.0,-163.0,0
3140,-139.0,-334.0,-148.0,0
3141,-144.0,-335.0,-137.0,0
3142,-144.0,-335.0,-136.0,0
3143,-144.0,-329.0,-124.0,0
3144,-139.0,-320.0,-120.0,0
3145,-130.0,-307.0,-111.0,0
3146,-122.0,-293.0,-107.0,0
3147,-113.0,-275.0,-99.0,0
3148,-103.0,-263.0,-95.0,0
3149,-92.0,-245.0,-93.0,0
3150,-74.0,-233.0,-94.0,0
3151,-65.0,-219.0,-94.0,0
3152,-56.0,-203.0,-98.0,0
3153,-48.0,-189.0,-97.0,0
3154,-42.0,-181.0,-107.0,0
3155,-33.0,-178.0,-110.0,0
3156,-33.0,-171.0,-116.0,0
3157,-32.0,-173.0,-114.0,0
3158,-33.0,-173.0,-117.0,0
3159,-37.0,-178.0,-122.0,0
3160,-40.0,-183.0,-122.0,0
3161,-42.0,-188.0,-117.0,0
3162,-51.0,-196.0,-115.0,0
3163,-54.0,-207.0,-109.0,0
3164,-59.0,-213.0,-102.0,0
3165,-65.0,-219.0,-94.0,0
3166,-65.0,-224.0,-94.0,0
3167,-73.0,-226.0,-84.0,0
3168,-70.0,-230.0,-84.0,0
3169,-71.0,-233.0,-80.0,0
3170,-73.0,-231.0,-74.0,0
3171,-68.0,-229.0,-74.0,0
3172,-70.0,-228.0,-67.0,0
3173,-66.0,-228.0,-69.0,0
3174,-64.0,-223.0,-68.0,0
3175,-60.0,-223.0,-67.0,0
3176,-57.0,-220.0,-68.0,0
3177,-51.0,-214.0,-68.0,0
3178,-50.0,-210.0,-68.0,0
3179,-46.0,-210.0,-77.0,0
3180,-44.0,-201.0,-78.0,0
3181,-43.0,-207.0,-77.0,0
3182,-38.0,-207.0,-82.0,0
3183,-39.0,-207.0,-82.0,0
3184,-41.0,-209.0,-83.0,0
3185,-42.0,-216.0,-81.0,0
3186,-43.0,-216.0,-81.0,0
3187,-41.0,-220.0,-83.0,0
3188,-39.0,-221.0,-83.0,0
3189,-43.0,-222.0,-82.0,0
3190,-42.0,-223.0,-83.0,0
3191,-43.0,-221.0,-81.0,0
3192,-46.0,-222.0,-82.0,0
3193,-46.0,-224.0,-81.0,0
3194,-47.0,-219.0,-80.0,0
3195,-48.0,-217.0,-73.0,0
3196,-49.0,-214.0,-70.0,0
3197,-51.0,-213.0,-71.0,0
3198,-54.0,-205.0,-72.0,0
3199,-59.0,-194.0,-69.0,0
3200,-57.0,-194.0,-68.0,0
3201,-62.0,-188.0,-73.0,0
3202,-57.0,-182.0,-78.0,0
3203,-60.0,-178.0,-74.0,0
3204,-57.0,-177.0,-80.0,0
3205,-55.0,-177.0,-80.0,0
3206,-55.0,-179.0,-83.0,0
3207,-55.0,-178.0,-85.0,0
3208,-50.0,-188.0,-82.0,0
3209,-53.0,-189.0,-83.0,0
3210,-47.0,-197.0,-82.0,0
3211,-45.0,-201.0,-81.0,0
3212,-42.0,-209.0,-80.0,0
3213,-37.0,-213.0,-76.0,0
3214,-33.0,-220.0,-83.0,0
3215,-31.0,-226.0,-79.0,0
3216,-28.0,-228.0,-81.0,0
3217,-29.0,-229.0,-77.0,0
3218,-30.0,-230.0,-75.0,0
3219,-27.0,-230.0,-79.0,0
3220,-27.0,-229.0,-77.0,0
3221,-30.0,-227.0,-78.0,0
3222,-29.0,-224.0,-78.0,0
3223,-29.0,-222.0,-78.0,0
3224,-31.0,-219.0,-85.0,0
3225,-34.0,-217.0,-81.0,0
3226,-31.0,-216.0,-83.0,0
3227,-34.0,-213.0,-85.0,0
3228,-34.0,-216.0,-86.0,0
3229,-31.0,-219.0,-90.0,0
3230,-30.0,-221.0,-88.0,0
3231,-25.0,-228.0,-92.0,0
3232,-24.0,-233.0,-93.0,0
3233,-20.0,-240.0,-87.0,0
3234,-13.0,-247.0,-90.0,0
3235,-17.0,-256.0,-87.0,0
3236,-9.0,-265.0,-82.0,0
3237,-13.0,-268.0,-84.0,0
3238,-10.0,-273.0,-79.0,0
3239,-13.0,-276.0,-75.0,0
3240,-10.0,-276.0,-71.0,0
3241,-6.0,-278.0,-67.0,0
3242,-2.0,-278.0,-64.0,0
3243,1.0,-273.0,-63.0,0
3244,4.0,-272.0,-60.0,0
3245,5.0,-267.0,-55.0,0
3246,7.0,-261.0,-51.0,0
3247,9.0,-253.0,-47.0,0
3248,12.0,-247.0,-48.0,0
3249,15.0,-240.0,-47.0,0
3250,17.0,-238.0,-47.0,0
3251,17.0,-232.0,-46.0,0
3252,19.0,-228.0,-44.0,0
3253,16.0,-221.0,-41.0,0
3254,12.0,-219.0,-38.0,0
3255,5.0,-216.0,-42.0,0
3256,5.0,-208.0,-45.0,0
3257,1.0,-201.0,-51.0,0
3258,1.0,-203.0,-59.0,0
3259,-1.0,-201.0,-65.0,0
3260,-7.0,-207.0,-70.0,0
3261,-14.0,-215.0,-82.0,0
3262,-12.0,-224.0,-89.0,0
3263,-15.0,-231.0,-99.0,0
3264,-12.0,-245.0,-103.0,0
3265,-10.0,-252.0,-106.0,0
3266,-11.0,-261.0,-114.0,0
3267,-15.0,-267.0,-122.0,0
3268,-19.0,-276.0,-140.0,0
3269,-20.0,-282.0,-147.0,0
3270,-24.0,-282.0,-153.0,0
3271,-21.0,-291.0,-153.0,0
3272,-19.0,-296.0,-153.0,0
3273,-17.0,-299.0,-150.0,0
3274,-19.0,-301.0,-145.0,0
3275,-17.0,-307.0,-131.0,0
3276,-8.0,-307.0,-133.0,0
3277,2.0,-305.0,-130.0,0
3278,13.0,-300.0,-136.0,0
3279,28.0,-297.0,-135.0,0
3280,42.0,-295.0,-138.0,0
3281,53.0,-283.0,-140.0,0
3282,61.0,-280.0,-144.0,0
3283,63.0,-272.0,-150.0,0
3284,68.0,-269.0,-157.0,0
3285,66.0,-268.0,-157.0,0
3286,64.0,-263.0,-160.0,0
3287,64.0,-266.0,-165.0,0
3288,63.0,-266.0,-166.0,0
3289,62.0,-271.0,-164.0,0
3290,63.0,-273.0,-163.0,0
3291,59.0,-272.0,-167.0,0
3292,56.0,-275.0,-165.0,0
3293,55.0,-278.0,-168.0,0
3294,53.0,-279.0,-168.0,0
3295,48.0,-285.0,-169.0,0
3296,38.0,-289.0,-168.0,0
3297,32.0,-292.0,-166.0,0
3298,20.0,-302.0,-160.0,0
3299,13.0,-313.0,-154.0,0
3300,11.0,-314.0,-147.0,0
3301,4.0,-313.0,-136.0,0
3302,1.0,-313.0,-129.0,0
3303,-6.0,-307.0,-123.0,0
3304,-6.0,-302.0,-117.0,0
3305,-13.0,-293.0,-114.0,0
3306,-17.0,-282.0,-117.0,0
3307,-19.0,-268.0,-114.0,0
3308,-17.0,-259.0,-111.0,0
3309,-22.0,-247.0,-112.0,0
3310,-21.0,-230.0,-113.0,0
3311,-22.0,-218.0,-115.0,0
3312,-22.0,-210.0,-116.0,0
3313,-18.0,-201.0,-118.0,0
3314,-15.0,-198.0,-112.0,0
3315,-12.0,-192.0,-120.0,0
3316,-9.0,-193.0,-117.0,0
3317,-4.0,-193.0,-117.0,0
3318,-1.0,-190.0,-122.0,0
3319,0.0,-193.0,-118.0,0
3320,0.0,-199.0,-120.0,0
3321,1.0,-204.0,-121.0,0
3322,0.0,-208.0,-121.0,0
3323,1.0,-212.0,-117.0,0
3324,2.0,-216.0,-115.0,0
3325,9.0,-225.0,-112.0,0
3326,5.0,-230.0,-111.0,0
3327,6.0,-235.0,-110.0,0
3328,12.0,-238.0,-107.0,0
3329,14.0,-237.0,-104.0,0
3330,16.0,-241.0,-105.0,0
3331,21.0,-239.0,-105.0,0
3332,19.0,-240.0,-103.0,0
3333,18.0,-236.0,-103.0,0
3334,20.0,-237.0,-103.0,0
3335,16.0,-233.0,-98.0,0
3336,16.0,-236.0,-96.0,0
3337,13.0,-233.0,-98.0,0
3338,13.0,-235.0,-90.0,0
3339,8.0,-232.0,-91.0,0
3340,5.0,-233.0,-89.0,0
3341,3.0,-232.0,-88.0,0
3342,1.0,-231.0,-85.0,0
3343,2.0,-233.0,-88.0,0
3344,-1.0,-236.0,-86.0,0
3345,0.0,-235.0,-90.0,0
3346,0.0,-236.0,-85.0,0
3347,-3.0,-238.0,-86.0,0
3348,0.0,-240.0,-93.0,0
3349,0.0,-237.0,-93.0,0
3350,3.0,-240.0,-93.0,0
3351,3.0,-244.0,-99.0,0
3352,10.0,-239.0,-92.0,0
3353,10.0,-238.0,-99.0,0
3354,16.0,-237.0,-103.0,0
3355,14.0,-237.0,-102.0,0
3356,15.0,-236.0,-102.0,0
3357,13.0,-232.0,-103.0,0
3358,15.0,-233.0,-102.0,0
3359,16.0,-235.0,-104.0,0
3360,9.0,-228.0,-101.0,0
3361,9.0,-227.0,-100.0,0
3362,10.0,-226.0,-99.0,0
3363,6.0,-222.0,-95.0,0
3364,5.0,-222.0,-95.0,0
3365,3.0,-222.0,-93.0,0
3366,2.0,-212.0,-92.0,0
3367,0.0,-208.0,-87.0,0
3368,1.0,-206.0,-86.0,0
3369,-2.0,-202.0,-84.0,0
3370,-2.0,-201.0,-82.0,0
3371,-1.0,-198.0,-84.0,0
3372,3.0,-200.0,-83.0,0
3373,0.0,-199.0,-78.0,0
3374,0.0,-198.0,-81.0,0
3375,2.0,-202.0,-81.0,0
3376,0.0,-203.0,-80.0,0
3377,1.0,-208.0,-82.0,0
3378,1.0,-211.0,-82.0,0
3379,1.0,-214.0,-82.0,0
3380,3.0,-214.0,-84.0,0
3381,3.0,-217.0,-84.0,0
3382,3.0,-221.0,-83.0,0
3383,4.0,-218.0,-83.0,0
3384,5.0,-221.0,-82.0,0
3385,6.0,-219.0,-83.0,0
3386,14.0,-219.0,-75.0,0
3387,5.0,-216.0,-81.0,0
3388,6.0,-217.0,-82.0,0
3389,7.0,-214.0,-79.0,0
3390,7.0,-216.0,-82.0,0
3391,6.0,-215.0,-79.0,0
3392,8.0,-213.0,-78.0,0
3393,10.0,-210.0,-76.0,0
3394,11.0,-213.0,-75.0,0
3395,15.0,-214.0,-77.0,0
3396,17.0,-213.0,-79.0,0
3397,18.0,-217.0,-82.0,0
3398,21.0,-219.0,-83.0,0
3399,22.0,-221.0,-86.0,0
3400,25.0,-225.0,-86.0,0
3401,24.0,-232.0,-89.0,0
3402,27.0,-241.0,-90.0,0
3403,25.0,-244.0,-92.0,0
3404,25.0,-248.0,-94.0,0
3405,21.0,-253.0,-99.0,0
3406,24.0,-259.0,-100.0,0
3407,21.0,-257.0,-99.0,0
3408,18.0,-265.0,-100.0,0
3409,21.0,-262.0,-101.0,0
3410,19.0,-256.0,-99.0,0
3411,15.0,-253.0,-101.0,0
3412,13.0,-248.0,-99.0,0
3413,13.0,-247.0,-96.0,0
3414,8.0,-241.0,-91.0,0
3415,4.0,-238.0,-93.0,0
3416,1.0,-238.0,-84.0,0
3417,-1.0,-235.0,-83.0,0
3418,-10.0,-238.0,-75.0,0
3419,-12.0,-243.0,-74.0,0
3420,-13.0,-246.0,-67.0,0
3421,-15.0,-247.0,-76.0,0
3422,-12.0,-254.0,-71.0,0
3423,-9.0,-255.0,-72.0,0
3424,-6.0,-264.0,-71.0,0
3425,1.0,-269.0,-75.0,0
3426,9.0,-270.0,-77.0,0
3427,14.0,-273.0,-78.0,0
3428,24.0,-278.0,-80.0,0
3429,29.0,-276.0,-83.0,0
3430,43.0,-281.0,-75.0,0
3431,41.0,-276.0,-80.0,0
3432,46.0,-269.0,-78.0,0
3433,46.0,-268.0,-77.0,0
3434,45.0,-260.0,-73.0,0
3435,42.0,-250.0,-69.0,0
3436,38.0,-245.0,-69.0,0
3437,36.0,-240.0,-67.0,0
3438,32.0,-234.0,-68.0,0
3439,29.0,-226.0,-66.0,0
3440,24.0,-221.0,-69.0,0
3441,22.0,-224.0,-69.0,0
3442,16.0,-217.0,-67.0,0
3443,12.0,-221.0,-69.0,0
3444,10.0,-215.0,-67.0,0
3445,6.0,-219.0,-69.0,0
3446,7.0,-217.0,-64.0,0
3447,6.0,-219.0,-62.0,0
3448,2.0,-219.0,-55.0,0
3449,2.0,-219.0,-58.0,0
3450,-3.0,-219.0,-56.0,0
3451,-1.0,-215.0,-55.0,0
3452,-13.0,-221.0,-56.0,0
3453,-17.0,-222.0,-47.0,0
3454,-19.0,-223.0,-49.0,0
3455,-22.0,-228.0,-49.0,0
3456,-30.0,-225.0,-47.0,0
3457,-33.0,-222.0,-57.0,0
3458,-33.0,-215.0,-58.0,0
3459,-30.0,-210.0,-65.0,0
3460,-28.0,-199.0,-77.0,0
3461,-25.0,-198.0,-82.0,0
3462,-25.0,-192.0,-95.0,0
3463,-29.0,-191.0,-105.0,0
3464,-34.0,-191.0,-118.0,0
3465,-39.0,-189.0,-128.0,0
3466,-42.0,-198.0,-136.0,0
3467,-50.0,-202.0,-154.0,0
3468,-50.0,-210.0,-160.0,0
3469,-59.0,-218.0,-170.0,0
3470,-62.0,-232.0,-169.0,0
3471,-68.0,-245.0,-168.0,0
3472,-76.0,-252.0,-166.0,0
3473,-81.0,-265.0,-162.0,0
3474,-91.0,-269.0,-155.0,0
3475,-101.0,-269.0,-150.0,0
3476,-116.0,-269.0,-147.0,0
3477,-127.0,-263.0,-144.0,0
3478,-130.0,-262.0,-154.0,0
3479,-132.0,-264.0,-152.0,0
3480,-130.0,-265.0,-151.0,0
3481,-126.0,-269.0,-150.0,0
3482,-113.0,-279.0,-148.0,0
3483,-106.0,-286.0,-151.0,0
3484,-91.0,-291.0,-151.0,0
3485,-78.0,-294.0,-150.0,0
3486,-69.0,-295.0,-149.0,0
3487,-64.0,-292.0,-150.0,0
3488,-54.0,-292.0,-149.0,0
3489,-47.0,-284.0,-150.0,0
3490,-40.0,-277.0,-153.0,0
3491,-35.0,-271.0,-158.0,0
3492,-38.0,-263.0,-157.0,0
3493,-38.0,-263.0,-156.0,0
3494,-41.0,-258.0,-157.0,0
3495,-49.0,-255.0,-159.0,0
3496,-52.0,-262.0,-161.0,0
3497,-62.0,-269.0,-152.0,0
3498,-65.0,-275.0,-151.0,0
3499,-68.0,-281.0,-151.0,0
3500,-72.0,-283.0,-145.0,0
3501,-77.0,-290.0,-143.0,0
3502,-81.0,-289.0,-140.0,0
3503,-83.0,-285.0,-140.0,0
3504,-85.0,-289.0,-133.0,0
3505,-82.0,-281.0,-126.0,0
3506,-83.0,-276.0,-121.0,0
3507,-75.0,-270.0,-120.0,0
3508,-74.0,-262.0,-111.0,0
3509,-70.0,-257.0,-104.0,0
3510,-66.0,-248.0,-98.0,0
3511,-60.0,-245.0,-100.0,0
3512,-52.0,-239.0,-96.0,0
3513,-50.0,-231.0,-96.0,0
3514,-45.0,-225.0,-94.0,0
3515,-40.0,-223.0,-90.0,0
3516,-33.0,-216.0,-90.0,0
3517,-30.0,-219.0,-90.0,0
3518,-34.0,-212.0,-84.0,0
3519,-29.0,-211.0,-84.0,0
3520,-23.0,-209.0,-84.0,0
3521,-21.0,-207.0,-84.0,0
3522,-22.0,-204.0,-81.0,0
3523,-22.0,-200.0,-77.0,0
3524,-21.0,-202.0,-80.0,0
3525,-23.0,-196.0,-78.0,0
3526,-21.0,-193.0,-78.0,0
3527,-26.0,-189.0,-81.0,0
3528,-24.0,-189.0,-78.0,0
3529,-27.0,-188.0,-77.0,0
3530,-27.0,-186.0,-76.0,0
3531,-27.0,-188.0,-75.0,0
3532,-31.0,-189.0,-78.0,0
3533,-33.0,-192.0,-78.0,0
3534,-30.0,-194.0,-80.0,0
3535,-42.0,-196.0,-84.0,0
3536,-41.0,-200.0,-86.0,0
3537,-35.0,-207.0,-91.0,0
3538,-40.0,-213.0,-97.0,0
3539,-39.0,-220.0,-97.0,0
3540,-42.0,-224.0,-103.0,0
3541,-41.0,-233.0,-101.0,0
3542,-43.0,-237.0,-99.0,0
3543,-42.0,-237.0,-94.0,0
3544,-44.0,-238.0,-92.0,0
3545,-41.0,-239.0,-90.0,0
3546,-41.0,-233.0,-89.0,0
3547,-41.0,-233.0,-86.0,0
3548,-43.0,-221.0,-84.0,0
3549,-38.0,-219.0,-79.0,0
3550,-41.0,-215.0,-76.0,0
3551,-45.0,-208.0,-73.0,0
3552,-41.0,-205.0,-65.0,0
3553,-41.0,-198.0,-61.0,0
3554,-44.0,-196.0,-62.0,0
3555,-36.0,-193.0,-61.0,0
3556,-37.0,-194.0,-63.0,0
3557,-37.0,-195.0,-63.0,0
3558,-35.0,-200.0,-65.0,0
3559,-42.0,-204.0,-71.0,0
3560,-39.0,-209.0,-75.0,0
3561,-39.0,-216.0,-79.0,0
3562,-44.0,-221.0,-79.0,0
3563,-51.0,-224.0,-85.0,0
3564,-56.0,-228.0,-85.0,0
3565,-61.0,-230.0,-89.0,0
3566,-65.0,-231.0,-87.0,0
3567,-67.0,-231.0,-88.0,0
3568,-69.0,-228.0,-90.0,0
3569,-70.0,-223.0,-85.0,0
3570,-70.0,-225.0,-88.0,0
3571,-66.0,-222.0,-86.0,0
3572,-65.0,-221.0,-85.0,0
3573,-66.0,-218.0,-83.0,0
3574,-63.0,-221.0,-81.0,0
3575,-57.0,-219.0,-76.0,0
3576,-52.0,-218.0,-73.0,0
3577,-52.0,-212.0,-76.0,0
3578,-39.0,-214.0,-76.0,0
3579,-35.0,-209.0,-79.0,0
3580,-29.0,-214.0,-78.0,0
3581,-23.0,-215.0,-87.0,0
3582,-17.0,-218.0,-86.0,0
3583,-6.0,-222.0,-89.0,0
3584,0.0,-228.0,-90.0,0
3585,-2.0,-233.0,-91.0,0
3586,1.0,-244.0,-92.0,0
3587,0.0,-246.0,-87.0,0
3588,2.0,-252.0,-90.0,0
3589,0.0,-254.0,-82.0,0
3590,0.0,-258.0,-79.0,0
3591,-4.0,-263.0,-81.0,0
3592,-10.0,-262.0,-73.0,0
3593,-9.0,-260.0,-65.0,0
3594,-14.0,-253.0,-59.0,0
3595,-18.0,-249.0,-63.0,0
3596,-20.0,-247.0,-57.0,0
3597,-20.0,-236.0,-51.0,0
3598,-25.0,-231.0,-50.0,0
3599,-23.0,-228.0,-47.0,0
3600,-21.0,-225.0,-51.0,0
3601,-21.0,-221.0,-53.0,0
3602,-16.0,-223.0,-49.0,0
3603,-16.0,-220.0,-59.0,0
3604,-14.0,-217.0,-59.0,0
3605,-10.0,-223.0,-56.0,0
3606,-6.0,-223.0,-62.0,0
3607,-4.0,-225.0,-63.0,0
3608,0.0,-227.0,-64.0,0
3609,1.0,-226.0,-64.0,0
3610,4.0,-229.0,-69.0,0
3611,4.0,-234.0,-63.0,0
3612,0.0,-231.0,-64.0,0
3613,-1.0,-232.0,-62.0,0
3614,-2.0,-235.0,-62.0,0
3615,-4.0,-237.0,-61.0,0
3616,-9.0,-237.0,-59.0,0
3617,-10.0,-237.0,-58.0,0
3618,-18.0,-230.0,-54.0,0
3619,-19.0,-234.0,-54.0,0
3620,-24.0,-236.0,-54.0,0
3621,-28.0,-229.0,-47.0,0
3622,-35.0,-224.0,-46.0,0
3623,-38.0,-218.0,-49.0,0
3624,-41.0,-212.0,-55.0,0
3625,-39.0,-204.0,-60.0,0
3626,-45.0,-205.0,-61.0,0
3627,-52.0,-204.0,-74.0,0
3628,-57.0,-210.0,-83.0,0
3629,-58.0,-215.0,-91.0,0
3630,-53.0,-227.0,-102.0,0
3631,-45.0,-239.0,-113.0,0
3632,-33.0,-248.0,-123.0,0
3633,-26.0,-262.0,-134.0,0
3634,-22.0,-272.0,-139.0,0
3635,-21.0,-283.0,-148.0,0
3636,-11.0,-295.0,-161.0,0
3637,-3.0,-304.0,-171.0,0
3638,12.0,-313.0,-180.0,0
3639,28.0,-324.0,-182.0,0
3640,41.0,-330.0,-181.0,0
3641,48.0,-331.0,-177.0,0
3642,59.0,-335.0,-167.0,0
3643,68.0,-332.0,-158.0,0
3644,80.0,-329.0,-149.0,0
3645,88.0,-321.0,-146.0,0
3646,93.0,-308.0,-139.0,0
3647,93.0,-303.0,-138.0,0
3648,91.0,-291.0,-129.0,0
3649,83.0,-279.0,-127.0,0
3650,68.0,-273.0,-118.0,0
3651,54.0,-265.0,-116.0,0
3652,35.0,-256.0,-112.0,0
3653,15.0,-250.0,-103.0,0
3654,-1.0,-246.0,-101.0,0
3655,-21.0,-236.0,-104.0,0
3656,-35.0,-234.0,-106.0,0
3657,-47.0,-233.0,-113.0,0
3658,-55.0,-228.0,-123.0,0
3659,-62.0,-231.0,-130.0,0
3660,-65.0,-241.0,-138.0,0
3661,-74.0,-246.0,-146.0,0
3662,-74.0,-258.0,-150.0,0
3663,-71.0,-274.0,-156.0,0
3664,-61.0,-294.0,-164.0,0
3665,-48.0,-303.0,-167.0,0
3666,-32.0,-313.0,-166.0,0
3667,-20.0,-315.0,-162.0,0
3668,-7.0,-316.0,-160.0,0
3669,0.0,-317.0,-157.0,0
3670,10.0,-311.0,-150.0,0
3671,23.0,-305.0,-143.0,0
3672,30.0,-297.0,-140.0,0
3673,38.0,-283.0,-132.0,0
3674,47.0,-269.0,-124.0,0
3675,49.0,-261.0,-113.0,0
3676,45.0,-248.0,-110.0,0
3677,42.0,-238.0,-102.0,0
3678,41.0,-232.0,-101.0,0
3679,38.0,-221.0,-93.0,0
3680,34.0,-214.0,-89.0,0
3681,29.0,-208.0,-86.0,0
3682,25.0,-205.0,-82.0,0
3683,21.0,-205.0,-77.0,0
3684,10.0,-200.0,-76.0,0
3685,5.0,-202.0,-74.0,0
3686,1.0,-203.0,-74.0,0
3687,0.0,-206.0,-75.0,0
3688,-2.0,-206.0,-77.0,0
3689,2.0,-211.0,-83.0,0
3690,10.0,-216.0,-81.0,0
3691,6.0,-222.0,-85.0,0
3692,1.0,-228.0,-86.0,0
3693,4.0,-235.0,-89.0,0
3694,9.0,-242.0,-93.0,0
3695,8.0,-249.0,-97.0,0
3696,12.0,-255.0,-95.0,0
3697,13.0,-258.0,-98.0,0
3698,14.0,-266.0,-96.0,0
3699,15.0,-267.0,-88.0,0
3700,12.0,-268.0,-84.0,0
3701,15.0,-265.0,-84.0,0
3702,9.0,-257.0,-83.0,0
3703,12.0,-250.0,-82.0,0
3704,10.0,-241.0,-81.0,0
3705,8.0,-233.0,-79.0,0
3706,8.0,-226.0,-75.0,0
3707,6.0,-221.0,-77.0,0
3708,4.0,-216.0,-76.0,0
3709,2.0,-208.0,-71.0,0
3710,1.0,-205.0,-71.0,0
3711,0.0,-202.0,-72.0,0
3712,0.0,-203.0,-67.0,0
3713,0.0,-202.0,-64.0,0
3714,1.0,-201.0,-65.0,0
3715,-1.0,-203.0,-64.0,0
3716,0.0,-202.0,-63.0,0
3717,0.0,-203.0,-68.0,0
3718,0.0,-204.0,-62.0,0
3719,1.0,-204.0,-64.0,0
3720,1.0,-205.0,-63.0,0
3721,2.0,-209.0,-63.0,0
3722,5.0,-211.0,-61.0,0
3723,8.0,-215.0,-62.0,0
3724,12.0,-218.0,-61.0,0
3725,16.0,-219.0,-58.0,0
3726,18.0,-223.0,-63.0,0
3727,21.0,-224.0,-63.0,0
3728,19.0,-226.0,-61.0,0
3729,24.0,-223.0,-63.0,0
3730,27.0,-225.0,-65.0,0
3731,27.0,-225.0,-67.0,0
3732,30.0,-224.0,-66.0,0
3733,34.0,-220.0,-69.0,0
3734,32.0,-223.0,-69.0,0
3735,32.0,-221.0,-70.0,0
3736,30.0,-218.0,-71.0,0
3737,28.0,-216.0,-71.0,0
3738,27.0,-217.0,-68.0,0
3739,28.0,-218.0,-73.0,0
3740,26.0,-215.0,-74.0,0
3741,25.0,-219.0,-74.0,0
3742,28.0,-216.0,-80.0,0
3743,31.0,-216.0,-78.0,0
3744,30.0,-221.0,-75.0,0
3745,28.0,-222.0,-75.0,0
3746,28.0,-222.0,-74.0,0
3747,24.0,-227.0,-77.0,0
3748,23.0,-234.0,-75.0,0
3749,23.0,-236.0,-78.0,0
3750,21.0,-239.0,-77.0,0
3751,18.0,-239.0,-80.0,0
3752,24.0,-247.0,-76.0,0
3753,18.0,-247.0,-81.0,0
3754,21.0,-246.0,-74.0,0
3755,22.0,-252.0,-79.0,0
3756,20.0,-251.0,-75.0,0
3757,22.0,-247.0,-76.0,0
3758,20.0,-251.0,-73.0,0
3759,20.0,-251.0,-74.0,0
3760,18.0,-249.0,-74.0,0
3761,14.0,-248.0,-70.0,0
3762,10.0,-251.0,-67.0,0
3763,6.0,-250.0,-64.0,0
3764,4.0,-249.0,-68.0,0
3765,3.0,-249.0,-60.0,0
3766,7.0,-252.0,-65.0,0
3767,9.0,-251.0,-57.0,0
3768,11.0,-251.0,-56.0,0
3769,13.0,-253.0,-55.0,0
3770,15.0,-251.0,-54.0,0
3771,20.0,-249.0,-50.0,0
3772,24.0,-249.0,-48.0,0
3773,25.0,-248.0,-49.0,0
3774,28.0,-249.0,-51.0,0
3775,30.0,-247.0,-45.0,0
3776,29.0,-244.0,-45.0,0
3777,31.0,-244.0,-47.0,0
3778,28.0,-237.0,-45.0,0
3779,26.0,-234.0,-47.0,0
3780,25.0,-229.0,-49.0,0
3781,27.0,-228.0,-49.0,0
3782,25.0,-222.0,-55.0,0
3783,22.0,-221.0,-58.0,0
3784,17.0,-212.0,-64.0,0
3785,13.0,-211.0,-71.0,0
3786,5.0,-204.0,-79.0,0
3787,4.0,-201.0,-90.0,0
3788,1.0,-202.0,-98.0,0
3789,-8.0,-204.0,-110.0,0
3790,-18.0,-209.0,-116.0,0
3791,-25.0,-220.0,-132.0,0
3792,-41.0,-222.0,-140.0,0
3793,-47.0,-229.0,-153.0,0
3794,-57.0,-239.0,-166.0,0
3795,-64.0,-249.0,-178.0,0
3796,-73.0,-264.0,-184.0,0
3797,-80.0,-277.0,-183.0,0
3798,-91.0,-287.0,-167.0,0
3799,-93.0,-295.0,-151.0,0
3800,-96.0,-300.0,-134.0,0
3801,-101.0,-298.0,-121.0,0
3802,-107.0,-288.0,-113.0,0
3803,-114.0,-280.0,-104.0,0
3804,-123.0,-266.0,-109.0,0
3805,-128.0,-255.0,-119.0,0
3806,-132.0,-249.0,-126.0,0
3807,-133.0,-243.0,-141.0,0
3808,-129.0,-243.0,-151.0,0
3809,-124.0,-247.0,-156.0,0
3810,-117.0,-260.0,-157.0,0
3811,-108.0,-276.0,-156.0,0
3812,-104.0,-289.0,-153.0,0
3813,-96.0,-309.0,-149.0,0
3814,-95.0,-312.0,-150.0,0
3815,-88.0,-316.0,-150.0,0
3816,-81.0,-317.0,-152.0,0
3817,-79.0,-319.0,-152.0,0
3818,-76.0,-313.0,-153.0,0
3819,-68.0,-308.0,-160.0,0
3820,-71.0,-304.0,-160.0,0
3821,-63.0,-291.0,-162.0,0
3822,-62.0,-288.0,-159.0,0
3823,-61.0,-279.0,-154.0,0
3824,-57.0,-271.0,-150.0,0
3825,-62.0,-263.0,-142.0,0
3826,-60.0,-260.0,-134.0,0
3827,-59.0,-254.0,-126.0,0
3828,-56.0,-251.0,-123.0,0
3829,-57.0,-249.0,-118.0,0
3830,-55.0,-249.0,-116.0,0
3831,-52.0,-246.0,-108.0,0
3832,-49.0,-246.0,-107.0,0
3833,-53.0,-245.0,-100.0,0
3834,-52.0,-246.0,-100.0,0
3835,-52.0,-245.0,-97.0,0
3836,-49.0,-246.0,-95.0,0
3837,-46.0,-248.0,-90.0,0
3838,-46.0,-242.0,-86.0,0
3839,-42.0,-237.0,-89.0,0
3840,-43.0,-229.0,-88.0,0
3841,-38.0,-222.0,-89.0,0
3842,-49.0,-214.0,-93.0,0
3843,-37.0,-211.0,-86.0,0
3844,-39.0,-204.0,-87.0,0
3845,-40.0,-200.0,-86.0,0
3846,-38.0,-197.0,-89.0,0
3847,-41.0,-192.0,-86.0,0
3848,-44.0,-193.0,-87.0,0
3849,-46.0,-191.0,-88.0,0
3850,-48.0,-189.0,-87.0,0
3851,-47.0,-191.0,-85.0,0
3852,-46.0,-192.0,-87.0,0
3853,-48.0,-195.0,-86.0,0
3854,-47.0,-199.0,-87.0,0
3855,-44.0,-210.0,-87.0,0
3856,-45.0,-209.0,-88.0,0
3857,-45.0,-215.0,-89.0,0
3858,-45.0,-220.0,-94.0,0
3859,-44.0,-227.0,-91.0,0
3860,-45.0,-231.0,-92.0,0
3861,-45.0,-239.0,-88.0,0
3862,-45.0,-237.0,-88.0,0
3863,-50.0,-240.0,-91.0,0
3864,-47.0,-237.0,-86.0,0
3865,-49.0,-230.0,-86.0,0
3866,-50.0,-227.0,-87.0,0
3867,-51.0,-225.0,-83.0,0
3868,-55.0,-218.0,-83.0,0
3869,-55.0,-212.0,-84.0,0
3870,-52.0,-211.0,-84.0,0
3871,-51.0,-208.0,-85.0,0
3872,-49.0,-213.0,-84.0,0
3873,-46.0,-211.0,-95.0,0
3874,-50.0,-219.0,-85.0,0
3875,-51.0,-226.0,-90.0,0
3876,-47.0,-228.0,-93.0,0
3877,-48.0,-237.0,-93.0,0
3878,-50.0,-241.0,-97.0,0
3879,-49.0,-246.0,-99.0,0
3880,-51.0,-247.0,-98.0,0
3881,-46.0,-256.0,-96.0,0
3882,-49.0,-254.0,-94.0,0
3883,-50.0,-252.0,-95.0,0
3884,-52.0,-249.0,-94.0,0
3885,-55.0,-243.0,-93.0,0
3886,-49.0,-245.0,-88.0,0
3887,-51.0,-235.0,-86.0,0
3888,-47.0,-231.0,-84.0,0
3889,-44.0,-228.0,-79.0,0
3890,-39.0,-228.0,-79.0,0
3891,-42.0,-226.0,-75.0,0
3892,-39.0,-222.0,-73.0,0
3893,-38.0,-223.0,-70.0,0
3894,-38.0,-221.0,-65.0,0
3895,-38.0,-215.0,-68.0,0
3896,-37.0,-213.0,-66.0,0
3897,-36.0,-213.0,-59.0,0
3898,-37.0,-210.0,-64.0,0
3899,-35.0,-203.0,-64.0,0
3900,-33.0,-202.0,-65.0,0
3901,-30.0,-197.0,-69.0,0
3902,-35.0,-195.0,-67.0,0
3903,-38.0,-192.0,-66.0,0
3904,-37.0,-196.0,-64.0,0
3905,-38.0,-197.0,-65.0,0
3906,-40.0,-197.0,-66.0,0
3907,-46.0,-201.0,-73.0,0
3908,-43.0,-208.0,-74.0,0
3909,-42.0,-215.0,-73.0,0
3910,-39.0,-214.0,-76.0,0
3911,-40.0,-222.0,-74.0,0
3912,-38.0,-225.0,-76.0,0
3913,-35.0,-226.0,-77.0,0
3914,-34.0,-230.0,-80.0,0
3915,-31.0,-226.0,-79.0,0
3916,-28.0,-232.0,-78.0,0
3917,-29.0,-225.0,-79.0,0
3918,-25.0,-224.0,-74.0,0
3919,-28.0,-226.0,-74.0,0
3920,-31.0,-225.0,-71.0,0
3921,-31.0,-224.0,-72.0,0
3922,-38.0,-223.0,-72.0,0
3923,-47.0,-217.0,-71.0,0
3924,-51.0,-220.0,-69.0,0
3925,-54.0,-221.0,-69.0,0
3926,-57.0,-220.0,-68.0,0
3927,-61.0,-227.0,-68.0,0
3928,-62.0,-227.0,-64.0,0
3929,-63.0,-227.0,-61.0,0
3930,-63.0,-225.0,-61.0,0
3931,-63.0,-229.0,-56.0,0
3932,-61.0,-229.0,-56.0,0
3933,-63.0,-226.0,-55.0,0
3934,-60.0,-222.0,-53.0,0
3935,-59.0,-217.0,-49.0,0
3936,-55.0,-218.0,-50.0,0
3937,-55.0,-211.0,-50.0,0
3938,-54.0,-211.0,-56.0,0
3939,-51.0,-204.0,-54.0,0
3940,-49.0,-206.0,-54.0,0
3941,-45.0,-205.0,-51.0,0
3942,-42.0,-202.0,-50.0,0
3943,-37.0,-203.0,-48.0,0
3944,-33.0,-199.0,-47.0,0
3945,-30.0,-197.0,-45.0,0
3946,-29.0,-192.0,-45.0,0
3947,-26.0,-191.0,-47.0,0
3948,-25.0,-189.0,-45.0,0
3949,-29.0,-184.0,-49.0,0
3950,-33.0,-173.0,-51.0,0
3951,-32.0,-172.0,-59.0,0
3952,-36.0,-167.0,-64.0,0
3953,-40.0,-160.0,-82.0,0
3954,-42.0,-162.0,-105.0,0
3955,-42.0,-164.0,-133.0,0
3956,-40.0,-170.0,-153.0,0
3957,-35.0,-188.0,-180.0,0
3958,-30.0,-209.0,-202.0,0
3959,-22.0,-233.0,-220.0,0
3960,-3.0,-261.0,-240.0,0
3961,7.0,-290.0,-247.0,0
3962,23.0,-318.0,-238.0,0
3963,34.0,-346.0,-236.0,0
3964,47.0,-370.0,-221.0,0
3965,63.0,-394.0,-206.0,0
3966,73.0,-410.0,-180.0,0
3967,81.0,-418.0,-153.0,0
3968,90.0,-416.0,-133.0,0
3969,101.0,-409.0,-115.0,0
3970,107.0,-400.0,-103.0,0
3971,107.0,-378.0,-98.0,0
3972,103.0,-357.0,-96.0,0
3973,94.0,-330.0,-98.0,0
3974,80.0,-314.0,-100.0,0
3975,66.0,-292.0,-110.0,0
3976,51.0,-278.0,-127.0,0
3977,36.0,-268.0,-135.0,0
3978,25.0,-265.0,-149.0,0
3979,19.0,-263.0,-164.0,0
3980,10.0,-267.0,-170.0,0
3981,5.0,-277.0,-180.0,0
3982,0.0,-289.0,-181.0,0
3983,-9.0,-296.0,-181.0,0
3984,-10.0,-316.0,-180.0,0
3985,-16.0,-325.0,-175.0,0
3986,-15.0,-335.0,-174.0,0
3987,-20.0,-337.0,-163.0,0
3988,-18.0,-339.0,-162.0,0
3989,-17.0,-334.0,-152.0,0
3990,-15.0,-333.0,-147.0,0
3991,-11.0,-321.0,-138.0,0
3992,-3.0,-312.0,-127.0,0
3993,-2.0,-302.0,-126.0,0
3994,4.0,-286.0,-113.0,0
3995,13.0,-272.0,-104.0,0
3996,16.0,-256.0,-101.0,0
3997,21.0,-239.0,-101.0,0
3998,23.0,-227.0,-99.0,0
3999,26.0,-220.0,-93.0,0
4000,24.0,-209.0,-96.0,0
4001,23.0,-200.0,-94.0,0
4002,21.0,-194.0,-94.0,0
4003,17.0,-189.0,-98.0,0
4004,15.0,-186.0,-96.0,0
4005,12.0,-183.0,-93.0,0
4006,9.0,-182.0,-97.0,0
4007,6.0,-180.0,-95.0,0
4008,3.0,-182.0,-95.0,0
4009,2.0,-185.0,-99.0,0
4010,0.0,-188.0,-94.0,0
4011,1.0,-195.0,-98.0,0
4012,1.0,-200.0,-95.0,0
4013,1.0,-204.0,-92.0,0
4014,0.0,-217.0,-88.0,0
4015,0.0,-215.0,-93.0,0
4016,-3.0,-224.0,-87.0,0
4017,0.0,-228.0,-87.0,0
4018,-2.0,-231.0,-89.0,0
4019,0.0,-233.0,-85.0,0
4020,-4.0,-233.0,-87.0,0
4021,0.0,-234.0,-83.0,0
4022,1.0,-229.0,-85.0,0
4023,1.0,-229.0,-85.0,0
4024,6.0,-224.0,-89.0,0
4025,4.0,-222.0,-85.0,0
4026,4.0,-224.0,-87.0,0
4027,8.0,-227.0,-88.0,0
4028,11.0,-228.0,-85.0,0
4029,7.0,-224.0,-90.0,0
4030,10.0,-228.0,-88.0,0
4031,11.0,-230.0,-87.0,0
4032,16.0,-234.0,-90.0,0
4033,14.0,-237.0,-93.0,0
4034,13.0,-240.0,-91.0,0
4035,14.0,-241.0,-90.0,0
4036,13.0,-243.0,-89.0,0
4037,13.0,-244.0,-84.0,0
4038,12.0,-244.0,-87.0,0
4039,17.0,-246.0,-86.0,0
4040,16.0,-243.0,-85.0,0
4041,17.0,-244.0,-83.0,0
4042,14.0,-240.0,-82.0,0
4043,16.0,-239.0,-83.0,0
4044,14.0,-235.0,-75.0,0
4045,14.0,-233.0,-73.0,0
4046,9.0,-226.0,-73.0,0
4047,11.0,-227.0,-70.0,0
4048,8.0,-227.0,-67.0,0
4049,7.0,-224.0,-66.0,0
4050,6.0,-225.0,-67.0,0
4051,5.0,-224.0,-65.0,0
4052,4.0,-225.0,-68.0,0
4053,5.0,-221.0,-68.0,0
4054,7.0,-223.0,-69.0,0
4055,12.0,-224.0,-72.0,0
4056,9.0,-224.0,-72.0,0
4057,11.0,-219.0,-73.0,0
4058,14.0,-215.0,-78.0,0
4059,17.0,-219.0,-79.0,0
4060,20.0,-216.0,-82.0,0
4061,19.0,-214.0,-83.0,0
4062,21.0,-212.0,-86.0,0
4063,23.0,-213.0,-84.0,0
4064,25.0,-213.0,-86.0,0
4065,26.0,-212.0,-84.0,0
4066,29.0,-209.0,-82.0,0
4067,30.0,-209.0,-78.0,0
4068,30.0,-209.0,-78.0,0
4069,27.0,-208.0,-76.0,0
4070,24.0,-207.0,-73.0,0
4071,25.0,-210.0,-71.0,0
4072,20.0,-210.0,-72.0,0
4073,19.0,-213.0,-71.0,0
4074,17.0,-214.0,-69.0,0
4075,18.0,-224.0,-64.0,0
4076,16.0,-226.0,-66.0,0
4077,10.0,-229.0,-67.0,0
4078,10.0,-239.0,-62.0,0
4079,3.0,-245.0,-59.0,0
4080,3.0,-249.0,-56.0,0
4081,-5.0,-249.0,-58.0,0
4082,0.0,-252.0,-59.0,0
4083,-5.0,-256.0,-56.0,0
4084,-4.0,-255.0,-52.0,0
4085,-6.0,-262.0,-56.0,0
4086,-2.0,-261.0,-54.0,0
4087,-3.0,-257.0,-55.0,0
4088,1.0,-254.0,-55.0,0
4089,1.0,-248.0,-56.0,0
4090,2.0,-243.0,-52.0,0
4091,10.0,-236.0,-55.0,0
4092,10.0,-233.0,-55.0,0
4093,16.0,-227.0,-52.0,0
4094,22.0,-222.0,-57.0,0
4095,26.0,-218.0,-58.0,0
4096,30.0,-210.0,-55.0,0
4097,32.0,-211.0,-58.0,0
4098,31.0,-210.0,-55.0,0
4099,31.0,-209.0,-60.0,0
4100,30.0,-207.0,-58.0,0
4101,27.0,-208.0,-60.0,0
4102,24.0,-210.0,-60.0,0
4103,17.0,-212.0,-55.0,0
4104,12.0,-214.0,-53.0,0
4105,11.0,-217.0,-52.0,0
4106,2.0,-223.0,-51.0,0
4107,-1.0,-220.0,-50.0,0
4108,-4.0,-225.0,-50.0,0
4109,-12.0,-228.0,-52.0,0
4110,-16.0,-226.0,-56.0,0
4111,-23.0,-229.0,-54.0,0
4112,-27.0,-229.0,-49.0,0
4113,-26.0,-228.0,-46.0,0
4114,-32.0,-230.0,-47.0,0
4115,-33.0,-224.0,-48.0,0
4116,-40.0,-217.0,-57.0,0
4117,-40.0,-212.0,-61.0,0
4118,-34.0,-212.0,-70.0,0
4119,-30.0,-210.0,-78.0,0
4120,-32.0,-212.0,-88.0,0
4121,-31.0,-216.0,-104.0,0
4122,-34.0,-220.0,-117.0,0
4123,-35.0,-222.0,-141.0,0
4124,-37.0,-234.0,-168.0,0
4125,-36.0,-237.0,-189.0,0
4126,-32.0,-248.0,-202.0,0
4127,-31.0,-261.0,-210.0,0
4128,-31.0,-279.0,-203.0,0
4129,-26.0,-298.0,-183.0,0
4130,-32.0,-309.0,-166.0,0
4131,-42.0,-313.0,-151.0,0
4132,-53.0,-313.0,-143.0,0
4133,-70.0,-308.0,-142.0,0
4134,-87.0,-300.0,-139.0,0
4135,-103.0,-294.0,-139.0,0
4136,-116.0,-287.0,-142.0,0
4137,-126.0,-280.0,-142.0,0
4138,-127.0,-278.0,-148.0,0
4139,-131.0,-275.0,-151.0,0
4140,-132.0,-277.0,-156.0,0
4141,-126.0,-278.0,-163.0,0
4142,-120.0,-282.0,-161.0,0
4143,-111.0,-285.0,-161.0,0
4144,-103.0,-284.0,-161.0,0
4145,-96.0,-283.0,-167.0,0
4146,-85.0,-286.0,-165.0,0
4147,-80.0,-292.0,-165.0,0
4148,-70.0,-297.0,-170.0,0
4149,-61.0,-302.0,-169.0,0
4150,-54.0,-307.0,-171.0,0
4151,-48.0,-313.0,-169.0,0
4152,-43.0,-319.0,-166.0,0
4153,-40.0,-326.0,-161.0,0
4154,-46.0,-325.0,-151.0,0
4155,-45.0,-328.0,-141.0,0
4156,-46.0,-327.0,-131.0,0
4157,-48.0,-321.0,-118.0,0
4158,-46.0,-312.0,-105.0,0
4159,-47.0,-306.0,-97.0,0
4160,-45.0,-294.0,-94.0,0
4161,-44.0,-281.0,-97.0,0
4162,-40.0,-271.0,-94.0,0
4163,-38.0,-257.0,-90.0,0
4164,-40.0,-248.0,-90.0,0
4165,-39.0,-244.0,-91.0,0
4166,-37.0,-230.0,-88.0,0
4167,-36.0,-229.0,-83.0,0
4168,-38.0,-226.0,-81.0,0
4169,-42.0,-217.0,-78.0,0
4170,-42.0,-213.0,-76.0,0
4171,-39.0,-206.0,-72.0,0
4172,-41.0,-200.0,-68.0,0
4173,-43.0,-191.0,-68.0,0
4174,-43.0,-185.0,-74.0,0
4175,-45.0,-179.0,-77.0,0
4176,-44.0,-174.0,-86.0,0
4177,-48.0,-171.0,-92.0,0
4178,-47.0,-173.0,-96.0,0
4179,-47.0,-180.0,-100.0,0
4180,-51.0,-184.0,-100.0,0
4181,-52.0,-192.0,-100.0,0
4182,-55.0,-203.0,-102.0,0
4183,-54.0,-211.0,-103.0,0
4184,-55.0,-220.0,-97.0,0
4185,-53.0,-232.0,-98.0,0
4186,-51.0,-238.0,-98.0,0
4187,-60.0,-241.0,-91.0,0
4188,-47.0,-249.0,-98.0,0
4189,-45.0,-253.0,-98.0,0
4190,-43.0,-257.0,-92.0,0
4191,-44.0,-260.0,-88.0,0
4192,-40.0,-257.0,-91.0,0
4193,-36.0,-254.0,-90.0,0
4194,-34.0,-248.0,-91.0,0
4195,-32.0,-245.0,-88.0,0
4196,-27.0,-241.0,-89.0,0
4197,-24.0,-236.0,-89.0,0
4198,-20.0,-234.0,-91.0,0
4199,-18.0,-230.0,-88.0,0
4200,-19.0,-229.0,-87.0,0
4201,-17.0,-228.0,-88.0,0
4202,-17.0,-224.0,-84.0,0
4203,-17.0,-224.0,-83.0,0
4204,-17.0,-224.0,-83.0,0
4205,-19.0,-224.0,-84.0,0
4206,-22.0,-226.0,-82.0,0
4207,-24.0,-226.0,-82.0,0
4208,-28.0,-228.0,-80.0,0
4209,-27.0,-224.0,-82.0,0
4210,-38.0,-235.0,-80.0,0
4211,-44.0,-232.0,-80.0,0
4212,-50.0,-235.0,-78.0,0
4213,-50.0,-229.0,-82.0,0
4214,-55.0,-230.0,-81.0,0
4215,-54.0,-231.0,-85.0,0
4216,-59.0,-223.0,-89.0,0
4217,-55.0,-223.0,-84.0,0
4218,-54.0,-217.0,-81.0,0
4219,-50.0,-216.0,-79.0,0
4220,-46.0,-216.0,-77.0,0
4221,-43.0,-210.0,-78.0,0
4222,-43.0,-208.0,-72.0,0
4223,-42.0,-209.0,-76.0,0
4224,-36.0,-204.0,-69.0,0
4225,-36.0,-203.0,-74.0,0
4226,-36.0,-202.0,-75.0,0
4227,-35.0,-202.0,-67.0,0
4228,-34.0,-204.0,-70.0,0
4229,-36.0,-206.0,-70.0,0
4230,-38.0,-211.0,-68.0,0
4231,-36.0,-211.0,-75.0,0
4232,-40.0,-216.0,-70.0,0
4233,-40.0,-222.0,-67.0,0
4234,-39.0,-221.0,-72.0,0
4235,-43.0,-225.0,-70.0,0
4236,-46.0,-228.0,-71.0,0
4237,-48.0,-225.0,-78.0,0
4238,-46.0,-229.0,-80.0,0
4239,-49.0,-227.0,-79.0,0
4240,-46.0,-229.0,-81.0,0
4241,-49.0,-227.0,-82.0,0
4242,-48.0,-222.0,-83.0,0
4243,-50.0,-219.0,-82.0,0
4244,-49.0,-214.0,-81.0,0
4245,-46.0,-215.0,-77.0,0
4246,-46.0,-210.0,-77.0,0
4247,-43.0,-211.0,-71.0,0
4248,-47.0,-205.0,-72.0,0
4249,-45.0,-204.0,-66.0,0
4250,-46.0,-201.0,-61.0,0
4251,-44.0,-201.0,-61.0,0
4252,-43.0,-202.0,-57.0,0
4253,-45.0,-199.0,-58.0,0
4254,-42.0,-204.0,-56.0,0
4255,-45.0,-202.0,-61.0,0
4256,-47.0,-199.0,-61.0,0
4257,-42.0,-206.0,-59.0,0
4258,-46.0,-206.0,-64.0,0
4259,-46.0,-207.0,-60.0,0
4260,-45.0,-214.0,-58.0,0
4261,-47.0,-213.0,-55.0,0
4262,-49.0,-219.0,-54.0,0
4263,-46.0,-217.0,-52.0,0
4264,-47.0,-216.0,-50.0,0
4265,-53.0,-215.0,-49.0,0
4266,-50.0,-217.0,-43.0,0
4267,-54.0,-214.0,-47.0,0
4268,-59.0,-216.0,-42.0,0
4269,-58.0,-209.0,-40.0,0
4270,-61.0,-207.0,-46.0,0
4271,-64.0,-203.0,-45.0,0
4272,-62.0,-204.0,-43.0,0
4273,-65.0,-200.0,-41.0,0
4274,-61.0,-197.0,-42.0,0
4275,-58.0,-197.0,-42.0,0
4276,-57.0,-195.0,-39.0,0
4277,-54.0,-195.0,-38.0,0
4278,-49.0,-195.0,-43.0,0
4279,-44.0,-196.0,-41.0,0
4280,-37.0,-197.0,-42.0,0
4281,-35.0,-192.0,-46.0,0
4282,-36.0,-189.0,-57.0,0
4283,-43.0,-188.0,-63.0,0
4284,-46.0,-185.0,-74.0,0
4285,-46.0,-182.0,-101.0,0
4286,-45.0,-182.0,-129.0,0
4287,-47.0,-187.0,-151.0,0
4288,-45.0,-196.0,-178.0,0
4289,-43.0,-219.0,-208.0,0
4290,-35.0,-246.0,-228.0,0
4291,-31.0,-275.0,-246.0,0
4292,-20.0,-306.0,-261.0,0
4293,-6.0,-340.0,-270.0,0
4294,9.0,-364.0,-265.0,0
4295,26.0,-381.0,-257.0,0
4296,52.0,-395.0,-236.0,0
4297,69.0,-406.0,-220.0,0
4298,85.0,-405.0,-190.0,0
4299,96.0,-396.0,-162.0,0
4300,100.0,-387.0,-137.0,0
4301,112.0,-376.0,-110.0,0
4302,117.0,-362.0,-96.0,0
4303,117.0,-339.0,-89.0,0
4304,108.0,-316.0,-89.0,0
4305,96.0,-295.0,-96.0,0
4306,82.0,-276.0,-109.0,0
4307,66.0,-266.0,-129.0,0
4308,55.0,-266.0,-141.0,0
4309,37.0,-269.0,-150.0,0
4310,23.0,-282.0,-158.0,0
4311,8.0,-294.0,-169.0,0
4312,1.0,-310.0,-178.0,0
4313,-2.0,-325.0,-185.0,0
4314,-9.0,-342.0,-190.0,0
4315,-12.0,-355.0,-195.0,0
4316,-19.0,-361.0,-194.0,0
4317,-20.0,-359.0,-196.0,0
4318,-23.0,-351.0,-188.0,0
4319,-21.0,-338.0,-181.0,0
4320,-21.0,-320.0,-170.0,0
4321,-15.0,-305.0,-159.0,0
4322,-4.0,-282.0,-152.0,0
4323,-1.0,-259.0,-141.0,0
4324,6.0,-244.0,-131.0,0
4325,12.0,-229.0,-121.0,0
4326,19.0,-213.0,-114.0,0
4327,26.0,-205.0,-107.0,0
4328,29.0,-198.0,-108.0,0
4329,28.0,-193.0,-102.0,0
4330,31.0,-197.0,-96.0,0
4331,32.0,-192.0,-101.0,0
4332,28.0,-196.0,-94.0,0
4333,27.0,-194.0,-90.0,0
4334,23.0,-196.0,-89.0,0
4335,18.0,-194.0,-87.0,0
4336,16.0,-195.0,-85.0,0
4337,11.0,-201.0,-89.0,0
4338,7.0,-195.0,-89.0,0
4339,4.0,-202.0,-95.0,0
4340,2.0,-204.0,-99.0,0
4341,-1.0,-211.0,-99.0,0
4342,-4.0,-218.0,-101.0,0
4343,-8.0,-227.0,-106.0,0
4344,-7.0,-233.0,-109.0,0
4345,-6.0,-240.0,-110.0,0
4346,-9.0,-243.0,-109.0,0
4347,-7.0,-242.0,-105.0,0
4348,-1.0,-244.0,-106.0,0
4349,-2.0,-242.0,-104.0,0
4350,3.0,-240.0,-99.0,0
4351,3.0,-237.0,-96.0,0
4352,5.0,-231.0,-94.0,0
4353,6.0,-227.0,-90.0,0
4354,8.0,-231.0,-90.0,0
4355,5.0,-227.0,-87.0,0
4356,7.0,-230.0,-86.0,0
4357,5.0,-231.0,-83.0,0
4358,3.0,-232.0,-84.0,0
4359,1.0,-232.0,-88.0,0
4360,-2.0,-235.0,-86.0,0
4361,-1.0,-240.0,-90.0,0
4362,-5.0,-241.0,-85.0,0
4363,-1.0,-247.0,-90.0,0
4364,-7.0,-250.0,-90.0,0
4365,-5.0,-253.0,-93.0,0
4366,-8.0,-254.0,-92.0,0
4367,-2.0,-258.0,-94.0,0
4368,-6.0,-255.0,-93.0,0
4369,1.0,-257.0,-92.0,0
4370,2.0,-253.0,-93.0,0
4371,0.0,-254.0,-90.0,0
4372,4.0,-252.0,-87.0,0
4373,3.0,-248.0,-90.0,0
4374,5.0,-247.0,-88.0,0
4375,7.0,-243.0,-86.0,0
4376,11.0,-245.0,-85.0,0
4377,7.0,-242.0,-83.0,0
4378,8.0,-239.0,-80.0,0
4379,6.0,-239.0,-80.0,0
4380,5.0,-241.0,-77.0,0
4381,5.0,-241.0,-81.0,0
4382,3.0,-240.0,-79.0,0
4383,4.0,-234.0,-75.0,0
4384,4.0,-237.0,-76.0,0
4385,0.0,-236.0,-73.0,0
4386,1.0,-238.0,-68.0,0
4387,0.0,-237.0,-71.0,0
4388,0.0,-235.0,-74.0,0
4389,-2.0,-234.0,-73.0,0
4390,-6.0,-236.0,-80.0,0
4391,0.0,-239.0,-76.0,0
4392,0.0,-238.0,-80.0,0
4393,0.0,-240.0,-81.0,0
4394,1.0,-241.0,-85.0,0
4395,1.0,-242.0,-81.0,0
4396,2.0,-241.0,-85.0,0
4397,4.0,-242.0,-87.0,0
4398,5.0,-244.0,-91.0,0
4399,4.0,-240.0,-88.0,0
4400,4.0,-243.0,-88.0,0
4401,6.0,-242.0,-85.0,0
4402,7.0,-237.0,-83.0,0
4403,7.0,-234.0,-83.0,0
4404,12.0,-230.0,-81.0,0
4405,14.0,-229.0,-78.0,0
4406,14.0,-218.0,-80.0,0
4407,10.0,-219.0,-79.0,0
4408,12.0,-211.0,-77.0,0
4409,12.0,-210.0,-75.0,0
4410,11.0,-205.0,-76.0,0
4411,14.0,-204.0,-73.0,0
4412,15.0,-202.0,-75.0,0
4413,11.0,-201.0,-72.0,0
4414,13.0,-200.0,-76.0,0
4415,14.0,-202.0,-68.0,0
4416,15.0,-205.0,-69.0,0
4417,12.0,-208.0,-72.0,0
4418,11.0,-216.0,-70.0,0
4419,9.0,-214.0,-74.0,0
4420,9.0,-226.0,-74.0,0
4421,10.0,-231.0,-70.0,0
4422,9.0,-234.0,-71.0,0
4423,7.0,-239.0,-73.0,0
4424,6.0,-238.0,-71.0,0
4425,6.0,-243.0,-76.0,0
4426,8.0,-247.0,-75.0,0
4427,8.0,-245.0,-73.0,0
4428,7.0,-249.0,-76.0,0
4429,8.0,-247.0,-74.0,0
4430,7.0,-247.0,-76.0,0
4431,11.0,-247.0,-74.0,0
4432,10.0,-242.0,-70.0,0
4433,12.0,-241.0,-69.0,0
4434,14.0,-238.0,-67.0,0
4435,17.0,-238.0,-68.0,0
4436,19.0,-237.0,-66.0,0
4437,19.0,-235.0,-61.0,0
4438,19.0,-230.0,-64.0,0
4439,21.0,-231.0,-60.0,0
4440,16.0,-229.0,-58.0,0
4441,14.0,-232.0,-59.0,0
4442,10.0,-230.0,-56.0,0
4443,11.0,-234.0,-56.0,0
4444,11.0,-238.0,-57.0,0
4445,7.0,-241.0,-56.0,0
4446,5.0,-241.0,-54.0,0
4447,3.0,-241.0,-55.0,0
4448,0.0,-242.0,-55.0,0
4449,0.0,-246.0,-59.0,0
4450,-1.0,-242.0,-53.0,0
4451,-7.0,-240.0,-54.0,0
4452,-4.0,-240.0,-49.0,0
4453,-3.0,-240.0,-57.0,0
4454,0.0,-235.0,-54.0,0
4455,0.0,-232.0,-53.0,0
4456,1.0,-229.0,-55.0,0
4457,2.0,-226.0,-54.0,0
4458,1.0,-221.0,-56.0,0
4459,1.0,-219.0,-58.0,0
4460,3.0,-219.0,-52.0,0
4461,-2.0,-215.0,-56.0,0
4462,-2.0,-215.0,-53.0,0
4463,-1.0,-209.0,-52.0,0
4464,-3.0,-207.0,-53.0,0
4465,-9.0,-206.0,-50.0,0
4466,-9.0,-206.0,-49.0,0
4467,-13.0,-205.0,-48.0,0
4468,-13.0,-203.0,-48.0,0
4469,-15.0,-202.0,-40.0,0
4470,-17.0,-200.0,-39.0,0
4471,-24.0,-201.0,-41.0,0
4472,-22.0,-207.0,-32.0,0
4473,-21.0,-203.0,-31.0,0
4474,-22.0,-205.0,-25.0,0
4475,-23.0,-207.0,-27.0,0
4476,-17.0,-205.0,-19.0,0
4477,-16.0,-202.0,-20.0,0
4478,-8.0,-205.0,-23.0,0
4479,0.0,-204.0,-26.0,0
4480,0.0,-208.0,-36.0,0
4481,3.0,-209.0,-41.0,0
4482,7.0,-218.0,-59.0,0
4483,11.0,-227.0,-72.0,0
4484,11.0,-234.0,-89.0,0
4485,12.0,-245.0,-110.0,0
4486,9.0,-253.0,-133.0,0
4487,5.0,-260.0,-161.0,0
4488,0.0,-273.0,-187.0,0
4489,-14.0,-285.0,-207.0,0
4490,-30.0,-294.0,-226.0,0
4491,-43.0,-309.0,-235.0,0
4492,-56.0,-320.0,-233.0,0
4493,-76.0,-333.0,-230.0,0
4494,-93.0,-346.0,-218.0,0
4495,-109.0,-352.0,-208.0,0
4496,-127.0,-351.0,-191.0,0
4497,-145.0,-345.0,-177.0,0
4498,-155.0,-342.0,-163.0,0
4499,-161.0,-331.0,-149.0,0
4500,-154.0,-322.0,-137.0,0
4501,-151.0,-312.0,-119.0,0
4502,-132.0,-305.0,-102.0,0
4503,-116.0,-299.0,-85.0,0
4504,-99.0,-287.0,-77.0,0
4505,-77.0,-279.0,-72.0,0
4506,-57.0,-273.0,-70.0,0
4507,-35.0,-271.0,-75.0,0
4508,-20.0,-268.0,-86.0,0
4509,-9.0,-272.0,-98.0,0
4510,-5.0,-279.0,-111.0,0
4511,1.0,-288.0,-127.0,0
4512,6.0,-304.0,-143.0,0
4513,7.0,-318.0,-157.0,0
4514,8.0,-330.0,-170.0,0
4515,0.0,-340.0,-187.0,0
4516,-13.0,-346.0,-187.0,0
4517,-28.0,-351.0,-176.0,0
4518,-42.0,-345.0,-172.0,0
4519,-54.0,-331.0,-164.0,0
4520,-63.0,-314.0,-155.0,0
4521,-65.0,-297.0,-144.0,0
4522,-72.0,-280.0,-135.0,0
4523,-76.0,-261.0,-126.0,0
4524,-81.0,-243.0,-109.0,0
4525,-79.0,-230.0,-99.0,0
4526,-76.0,-219.0,-89.0,0
4527,-76.0,-211.0,-85.0,0
4528,-71.0,-202.0,-80.0,0
4529,-64.0,-198.0,-72.0,0
4530,-59.0,-197.0,-68.0,0
4531,-55.0,-195.0,-68.0,0
4532,-47.0,-193.0,-70.0,0
4533,-37.0,-191.0,-71.0,0
4534,-28.0,-188.0,-67.0,0
4535,-21.0,-193.0,-72.0,0
4536,-16.0,-190.0,-68.0,0
4537,-15.0,-188.0,-71.0,0
4538,-7.0,-187.0,-71.0,0
4539,-3.0,-189.0,-74.0,0
4540,-1.0,-192.0,-75.0,0
4541,1.0,-193.0,-76.0,0
4542,-2.0,-198.0,-78.0,0
4543,-2.0,-201.0,-81.0,0
4544,-6.0,-203.0,-79.0,0
4545,-12.0,-206.0,-80.0,0
4546,-18.0,-208.0,-84.0,0
4547,-24.0,-207.0,-82.0,0
4548,-31.0,-205.0,-78.0,0
4549,-38.0,-204.0,-77.0,0
4550,-46.0,-206.0,-80.0,0
4551,-49.0,-204.0,-74.0,0
4552,-59.0,-200.0,-70.0,0
4553,-59.0,-197.0,-69.0,0
4554,-64.0,-197.0,-68.0,0
4555,-65.0,-194.0,-72.0,0
4556,-65.0,-196.0,-72.0,0
4557,-66.0,-200.0,-69.0,0
4558,-65.0,-203.0,-73.0,0
4559,-67.0,-211.0,-73.0,0
4560,-66.0,-217.0,-79.0,0
4561,-68.0,-223.0,-76.0,0
4562,-69.0,-232.0,-84.0,0
4563,-70.0,-242.0,-83.0,0
4564,-70.0,-252.0,-85.0,0
4565,-70.0,-261.0,-87.0,0
4566,-71.0,-270.0,-85.0,0
4567,-68.0,-278.0,-83.0,0
4568,-72.0,-274.0,-83.0,0
4569,-66.0,-274.0,-78.0,0
4570,-65.0,-270.0,-74.0,0
4571,-64.0,-263.0,-74.0,0
4572,-64.0,-251.0,-67.0,0
4573,-64.0,-245.0,-63.0,0
4574,-60.0,-238.0,-57.0,0
4575,-60.0,-233.0,-55.0,0
4576,-61.0,-224.0,-50.0,0
4577,-58.0,-222.0,-51.0,0
4578,-48.0,-221.0,-55.0,0
4579,-50.0,-212.0,-56.0,0
4580,-47.0,-216.0,-52.0,0
4581,-44.0,-217.0,-56.0,0
4582,-43.0,-218.0,-59.0,0
4583,-39.0,-223.0,-63.0,0
4584,-41.0,-223.0,-65.0,0
4585,-38.0,-223.0,-64.0,0
4586,-38.0,-222.0,-69.0,0
4587,-39.0,-222.0,-71.0,0
4588,-45.0,-220.0,-73.0,0
4589,-48.0,-219.0,-73.0,0
4590,-52.0,-216.0,-73.0,0
4591,-56.0,-215.0,-75.0,0
4592,-61.0,-213.0,-73.0,0
4593,-63.0,-209.0,-74.0,0
4594,-65.0,-209.0,-76.0,0
4595,-66.0,-210.0,-76.0,0
4596,-70.0,-206.0,-78.0,0
4597,-70.0,-205.0,-80.0,0
4598,-73.0,-206.0,-78.0,0
4599,-74.0,-207.0,-81.0,0
4600,-79.0,-204.0,-80.0,0
4601,-70.0,-207.0,-80.0,0
4602,-71.0,-205.0,-78.0,0
4603,-67.0,-208.0,-81.0,0
4604,-66.0,-208.0,-73.0,0
4605,-66.0,-202.0,-75.0,0
4606,-65.0,-207.0,-76.0,0
4607,-62.0,-211.0,-72.0,0
4608,-62.0,-208.0,-73.0,0
4609,-63.0,-211.0,-72.0,0
4610,-63.0,-212.0,-71.0,0
4611,-60.0,-212.0,-67.0,0
4612,-60.0,-220.0,-71.0,0
4613,-57.0,-217.0,-71.0,0
4614,-58.0,-218.0,-65.0,0
4615,-57.0,-222.0,-64.0,0
4616,-52.0,-226.0,-63.0,0
4617,-50.0,-230.0,-61.0,0
4618,-51.0,-233.0,-57.0,0
4619,-47.0,-234.0,-58.0,0
