,accelerometer_x,accelerometer_y,accelerometer_z,fall
0,22.0,-20.0,217.0,0
1,25.0,-23.0,219.0,0
2,20.0,-21.0,214.0,0
3,17.0,-20.0,217.0,0
4,28.0,-19.0,219.0,0
5,23.0,-20.0,218.0,0
6,20.0,-22.0,217.0,0
7,24.0,-24.0,215.0,0
8,21.0,-21.0,217.0,0
9,24.0,-23.0,218.0,0
10,22.0,-21.0,214.0,0
11,23.0,-22.0,218.0,0
12,21.0,-25.0,215.0,0
13,19.0,-25.0,215.0,0
14,29.0,-24.0,219.0,0
15,21.0,-24.0,215.0,0
16,20.0,-22.0,214.0,0
17,22.0,-23.0,212.0,0
18,24.0,-22.0,211.0,0
19,23.0,-23.0,216.0,0
20,21.0,-24.0,214.0,0
21,24.0,-22.0,220.0,0
22,20.0,-24.0,216.0,0
23,23.0,-25.0,215.0,0
24,22.0,-24.0,211.0,0
25,30.0,-34.0,228.0,0
26,22.0,-26.0,218.0,0
27,22.0,-24.0,213.0,0
28,20.0,-23.0,215.0,0
29,21.0,-27.0,214.0,0
30,19.0,-25.0,212.0,0
31,24.0,-21.0,213.0,0
32,23.0,-25.0,216.0,0
33,21.0,-25.0,214.0,0
34,20.0,-27.0,212.0,0
35,22.0,-24.0,213.0,0
36,13.0,-15.0,204.0,0
37,22.0,-27.0,215.0,0
38,18.0,-25.0,213.0,0
39,23.0,-28.0,218.0,0
40,23.0,-25.0,214.0,0
41,21.0,-25.0,211.0,0
42,22.0,-25.0,216.0,0
43,20.0,-26.0,212.0,0
44,21.0,-25.0,212.0,0
45,21.0,-25.0,216.0,0
46,23.0,-27.0,215.0,0
47,31.0,-26.0,212.0,0
48,18.0,-21.0,215.0,0
49,26.0,-26.0,217.0,0
50,23.0,-26.0,212.0,0
51,20.0,-25.0,217.0,0
52,21.0,-26.0,217.0,0
53,20.0,-23.0,210.0,0
54,22.0,-29.0,211.0,0
55,21.0,-26.0,208.0,0
56,21.0,-23.0,214.0,0
57,20.0,-26.0,215.0,0
58,34.0,-24.0,205.0,0
59,21.0,-27.0,211.0,0
60,21.0,-26.0,214.0,0
61,23.0,-26.0,212.0,0
62,21.0,-26.0,213.0,0
63,18.0,-26.0,210.0,0
64,21.0,-24.0,214.0,0
65,21.0,-27.0,213.0,0
66,17.0,-26.0,212.0,0
67,23.0,-27.0,216.0,0
68,25.0,-24.0,216.0,0
69,21.0,-24.0,217.0,0
70,17.0,-28.0,219.0,0
71,24.0,-30.0,216.0,0
72,20.0,-27.0,219.0,0
73,21.0,-30.0,215.0,0
74,20.0,-29.0,218.0,0
75,20.0,-30.0,220.0,0
76,23.0,-33.0,217.0,0
77,21.0,-31.0,219.0,0
78,19.0,-34.0,213.0,0
79,20.0,-30.0,212.0,0
80,20.0,-27.0,209.0,0
81,21.0,-29.0,210.0,0
82,22.0,-26.0,210.0,0
83,21.0,-27.0,216.0,0
84,20.0,-26.0,211.0,0
85,22.0,-28.0,214.0,0
86,22.0,-27.0,211.0,0
87,22.0,-24.0,214.0,0
88,21.0,-24.0,214.0,0
89,21.0,-29.0,219.0,0
90,21.0,-27.0,218.0,0
91,24.0,-29.0,216.0,0
92,22.0,-25.0,211.0,0
93,24.0,-27.0,217.0,0
94,23.0,-27.0,217.0,0
95,22.0,-27.0,215.0,0
96,22.0,-27.0,214.0,0
97,20.0,-25.0,215.0,0
98,23.0,-25.0,216.0,0
99,23.0,-30.0,213.0,0
100,21.0,-27.0,217.0,0
101,22.0,-28.0,215.0,0
102,21.0,-28.0,214.0,0
103,21.0,-29.0,213.0,0
104,20.0,-29.0,214.0,0
105,22.0,-29.0,215.0,0
106,25.0,-30.0,213.0,0
107,23.0,-27.0,215.0,0
108,18.0,-26.0,213.0,0
109,22.0,-28.0,216.0,0
110,22.0,-33.0,215.0,0
111,22.0,-35.0,213.0,0
112,21.0,-29.0,215.0,0
113,22.0,-31.0,214.0,0
114,23.0,-29.0,214.0,0
115,20.0,-32.0,214.0,0
116,22.0,-33.0,212.0,0
117,20.0,-30.0,213.0,0
118,23.0,-30.0,214.0,0
119,22.0,-28.0,212.0,0
120,21.0,-31.0,214.0,0
121,23.0,-31.0,215.0,0
122,24.0,-30.0,213.0,0
123,23.0,-30.0,208.0,0
124,24.0,-32.0,212.0,0
125,21.0,-29.0,214.0,0
126,23.0,-31.0,217.0,0
127,23.0,-29.0,212.0,0
128,20.0,-33.0,217.0,0
129,20.0,-29.0,217.0,0
130,23.0,-29.0,214.0,0
131,25.0,-34.0,214.0,0
132,21.0,-31.0,213.0,0
133,21.0,-33.0,212.0,0
134,22.0,-34.0,213.0,0
135,19.0,-35.0,215.0,0
136,23.0,-28.0,221.0,0
137,22.0,-30.0,209.0,0
138,22.0,-31.0,211.0,0
139,23.0,-33.0,212.0,0
140,21.0,-36.0,211.0,0
141,19.0,-33.0,216.0,0
142,24.0,-30.0,215.0,0
143,20.0,-33.0,211.0,0
144,23.0,-39.0,212.0,0
145,18.0,-31.0,216.0,0
146,22.0,-31.0,216.0,0
147,22.0,-30.0,216.0,0
148,23.0,-29.0,211.0,0
149,20.0,-31.0,209.0,0
150,23.0,-31.0,213.0,0
151,16.0,-32.0,213.0,0
152,22.0,-30.0,211.0,0
153,21.0,-33.0,213.0,0
154,21.0,-34.0,213.0,0
155,20.0,-32.0,214.0,0
156,21.0,-36.0,212.0,0
157,21.0,-31.0,216.0,0
158,24.0,-34.0,208.0,0
159,21.0,-29.0,210.0,0
160,21.0,-28.0,214.0,0
161,23.0,-32.0,213.0,0
162,23.0,-39.0,212.0,0
163,20.0,-34.0,214.0,0
164,25.0,-32.0,216.0,0
165,21.0,-33.0,209.0,0
166,23.0,-32.0,209.0,0
167,24.0,-31.0,216.0,0
168,21.0,-33.0,214.0,0
169,24.0,-32.0,214.0,0
170,24.0,-33.0,216.0,0
171,23.0,-38.0,211.0,0
172,22.0,-33.0,212.0,0
173,25.0,-32.0,212.0,0
174,22.0,-34.0,211.0,0
175,23.0,-34.0,212.0,0
176,24.0,-33.0,215.0,0
177,22.0,-33.0,211.0,0
178,24.0,-34.0,210.0,0
179,22.0,-31.0,211.0,0
180,23.0,-33.0,214.0,0
181,23.0,-31.0,212.0,0
182,25.0,-33.0,213.0,0
183,25.0,-32.0,214.0,0
184,22.0,-34.0,213.0,0
185,24.0,-35.0,211.0,0
186,23.0,-34.0,212.0,0
187,24.0,-35.0,213.0,0
188,23.0,-33.0,209.0,0
189,24.0,-33.0,211.0,0
190,23.0,-33.0,210.0,0
191,23.0,-34.0,213.0,0
192,21.0,-32.0,215.0,0
193,22.0,-33.0,214.0,0
194,22.0,-40.0,203.0,0
195,27.0,-33.0,218.0,0
196,20.0,-30.0,211.0,0
197,25.0,-31.0,215.0,0
198,22.0,-34.0,216.0,0
199,23.0,-31.0,217.0,0
200,22.0,-34.0,217.0,0
201,22.0,-33.0,215.0,0
202,25.0,-36.0,208.0,0
203,22.0,-32.0,213.0,0
204,25.0,-36.0,210.0,0
205,22.0,-33.0,211.0,0
206,24.0,-31.0,213.0,0
207,24.0,-34.0,211.0,0
208,23.0,-34.0,214.0,0
209,25.0,-33.0,212.0,0
210,24.0,-34.0,213.0,0
211,25.0,-33.0,215.0,0
212,24.0,-34.0,212.0,0
213,24.0,-35.0,215.0,0
214,24.0,-35.0,213.0,0
215,22.0,-29.0,214.0,0
216,28.0,-36.0,212.0,0
217,25.0,-36.0,214.0,0
218,24.0,-37.0,216.0,0
219,22.0,-36.0,212.0,0
220,23.0,-36.0,215.0,0
221,21.0,-38.0,217.0,0
222,26.0,-36.0,220.0,0
223,23.0,-40.0,215.0,0
224,24.0,-38.0,218.0,0
225,20.0,-37.0,211.0,0
226,25.0,-39.0,211.0,0
227,20.0,-38.0,214.0,0
228,21.0,-35.0,210.0,0
229,24.0,-36.0,208.0,0
230,24.0,-35.0,210.0,0
231,22.0,-35.0,206.0,0
232,24.0,-32.0,211.0,0
233,25.0,-32.0,213.0,0
234,21.0,-32.0,213.0,0
235,27.0,-34.0,211.0,0
236,24.0,-34.0,217.0,0
237,25.0,-34.0,215.0,0
238,24.0,-34.0,213.0,0
239,22.0,-32.0,211.0,0
240,22.0,-33.0,214.0,0
241,24.0,-33.0,211.0,0
242,25.0,-37.0,213.0,0
243,22.0,-33.0,214.0,0
244,23.0,-34.0,214.0,0
245,20.0,-32.0,213.0,0
246,22.0,-34.0,217.0,0
247,24.0,-36.0,210.0,0
248,22.0,-34.0,211.0,0
249,25.0,-34.0,213.0,0
250,23.0,-34.0,210.0,0
251,22.0,-32.0,207.0,0
252,24.0,-34.0,210.0,0
253,22.0,-35.0,212.0,0
254,25.0,-35.0,213.0,0
255,25.0,-37.0,210.0,0
256,23.0,-35.0,213.0,0
257,24.0,-33.0,211.0,0
258,23.0,-38.0,214.0,0
259,23.0,-36.0,213.0,0
260,24.0,-34.0,209.0,0
261,23.0,-35.0,211.0,0
262,24.0,-37.0,213.0,0
263,23.0,-41.0,213.0,0
264,24.0,-38.0,210.0,0
265,26.0,-38.0,211.0,0
266,23.0,-36.0,213.0,0
267,23.0,-35.0,214.0,0
268,24.0,-34.0,214.0,0
269,25.0,-32.0,211.0,0
270,22.0,-35.0,213.0,0
271,24.0,-36.0,213.0,0
272,23.0,-33.0,212.0,0
273,23.0,-33.0,215.0,0
274,23.0,-34.0,214.0,0
275,25.0,-37.0,213.0,0
276,26.0,-36.0,215.0,0
277,23.0,-35.0,212.0,0
278,22.0,-38.0,208.0,0
279,22.0,-38.0,213.0,0
280,22.0,-37.0,210.0,0
281,23.0,-37.0,213.0,0
282,19.0,-33.0,209.0,0
283,24.0,-37.0,213.0,0
284,24.0,-34.0,209.0,0
285,23.0,-37.0,208.0,0
286,23.0,-34.0,209.0,0
287,22.0,-32.0,210.0,0
288,23.0,-36.0,208.0,0
289,27.0,-36.0,211.0,0
290,23.0,-33.0,214.0,0
291,22.0,-37.0,209.0,0
292,22.0,-32.0,213.0,0
293,22.0,-37.0,211.0,0
294,21.0,-32.0,214.0,0
295,21.0,-35.0,213.0,0
296,23.0,-35.0,209.0,0
297,22.0,-31.0,216.0,0
298,26.0,-31.0,230.0,0
299,22.0,-32.0,212.0,0
300,22.0,-33.0,211.0,0
301,24.0,-34.0,215.0,0
302,21.0,-32.0,215.0,0
303,24.0,-36.0,217.0,0
304,25.0,-33.0,214.0,0
305,24.0,-34.0,212.0,0
306,23.0,-32.0,215.0,0
307,21.0,-35.0,213.0,0
308,21.0,-32.0,216.0,0
309,27.0,-24.0,202.0,0
310,24.0,-34.0,210.0,0
311,23.0,-32.0,212.0,0
312,23.0,-34.0,213.0,0
313,23.0,-34.0,210.0,0
314,24.0,-32.0,214.0,0
315,22.0,-32.0,217.0,0
316,25.0,-36.0,211.0,0
317,22.0,-33.0,213.0,0
318,22.0,-30.0,214.0,0
319,14.0,-23.0,204.0,0
320,26.0,-34.0,207.0,0
321,23.0,-32.0,214.0,0
322,20.0,-31.0,213.0,0
323,22.0,-29.0,212.0,0
324,23.0,-32.0,211.0,0
325,22.0,-32.0,212.0,0
326,25.0,-33.0,216.0,0
327,22.0,-31.0,213.0,0
328,23.0,-31.0,212.0,0
329,26.0,-32.0,208.0,0
330,16.0,-22.0,213.0,0
331,23.0,-28.0,218.0,0
332,24.0,-34.0,214.0,0
333,25.0,-30.0,211.0,0
334,23.0,-34.0,214.0,0
335,24.0,-35.0,211.0,0
336,23.0,-31.0,214.0,0
337,22.0,-32.0,209.0,0
338,22.0,-30.0,212.0,0
339,23.0,-32.0,215.0,0
340,25.0,-32.0,213.0,0
341,23.0,-31.0,214.0,0
342,21.0,-29.0,210.0,0
343,21.0,-30.0,214.0,0
344,23.0,-32.0,209.0,0
345,21.0,-32.0,218.0,0
346,21.0,-31.0,213.0,0
347,20.0,-31.0,214.0,0
348,19.0,-27.0,212.0,0
349,20.0,-28.0,211.0,0
350,23.0,-30.0,212.0,0
351,23.0,-30.0,212.0,0
352,20.0,-32.0,212.0,0
353,23.0,-30.0,213.0,0
354,22.0,-29.0,214.0,0
355,24.0,-29.0,209.0,0
356,22.0,-26.0,213.0,0
357,26.0,-30.0,214.0,0
358,24.0,-31.0,214.0,0
359,21.0,-29.0,217.0,0
360,23.0,-29.0,215.0,0
361,22.0,-30.0,218.0,0
362,21.0,-29.0,213.0,0
363,20.0,-30.0,218.0,0
364,21.0,-27.0,220.0,0
365,21.0,-33.0,215.0,0
366,22.0,-30.0,214.0,0
367,22.0,-33.0,222.0,0
368,23.0,-35.0,215.0,0
369,21.0,-34.0,212.0,0
370,24.0,-28.0,207.0,0
371,18.0,-30.0,211.0,0
372,20.0,-31.0,209.0,0
373,22.0,-30.0,211.0,0
374,18.0,-28.0,213.0,0
375,20.0,-28.0,205.0,0
376,22.0,-25.0,210.0,0
377,24.0,-27.0,212.0,0
378,23.0,-27.0,212.0,0
379,21.0,-26.0,214.0,0
380,22.0,-22.0,217.0,0
381,23.0,-26.0,215.0,0
382,22.0,-27.0,212.0,0
383,22.0,-23.0,212.0,0
384,24.0,-27.0,216.0,0
385,20.0,-24.0,211.0,0
386,24.0,-26.0,216.0,0
387,20.0,-27.0,215.0,0
388,21.0,-26.0,215.0,0
389,20.0,-24.0,214.0,0
390,25.0,-26.0,215.0,0
391,21.0,-24.0,215.0,0
392,20.0,-26.0,215.0,0
393,25.0,-27.0,214.0,0
394,23.0,-24.0,216.0,0
395,21.0,-24.0,214.0,0
396,23.0,-28.0,212.0,0
397,23.0,-24.0,213.0,0
398,20.0,-24.0,215.0,0
399,24.0,-27.0,213.0,0
400,19.0,-23.0,216.0,0
401,21.0,-22.0,218.0,0
402,20.0,-26.0,215.0,0
403,22.0,-26.0,216.0,0
404,21.0,-26.0,215.0,0
405,23.0,-23.0,214.0,0
406,21.0,-25.0,214.0,0
407,19.0,-22.0,214.0,0
408,25.0,-29.0,211.0,0
409,22.0,-27.0,213.0,0
410,22.0,-24.0,214.0,0
411,22.0,-27.0,214.0,0
412,18.0,-24.0,216.0,0
413,18.0,-25.0,216.0,0
414,19.0,-24.0,214.0,0
415,17.0,-23.0,218.0,0
416,20.0,-25.0,214.0,0
417,18.0,-21.0,215.0,0
418,19.0,-22.0,218.0,0
419,17.0,-22.0,221.0,0
420,18.0,-20.0,220.0,0
421,20.0,-23.0,224.0,0
422,21.0,-23.0,221.0,0
423,19.0,-25.0,218.0,0
424,20.0,-22.0,218.0,0
425,21.0,-24.0,220.0,0
426,20.0,-25.0,219.0,0
427,22.0,-20.0,218.0,0
428,22.0,-24.0,215.0,0
429,24.0,-23.0,219.0,0
430,24.0,-22.0,215.0,0
431,24.0,-24.0,222.0,0
432,22.0,-22.0,217.0,0
433,25.0,-23.0,215.0,0
434,21.0,-18.0,222.0,0
435,21.0,-24.0,217.0,0
436,20.0,-20.0,219.0,0
437,25.0,-20.0,221.0,0
438,24.0,-21.0,221.0,0
439,25.0,-21.0,219.0,0
440,23.0,-19.0,221.0,0
441,25.0,-19.0,219.0,0
442,23.0,-15.0,220.0,0
443,25.0,-19.0,219.0,0
444,23.0,-25.0,212.0,0
445,25.0,-25.0,215.0,0
446,22.0,-21.0,207.0,0
447,18.0,-22.0,215.0,0
448,25.0,-22.0,209.0,0
449,23.0,-22.0,213.0,0
450,24.0,-25.0,210.0,0
451,24.0,-26.0,210.0,0
452,24.0,-25.0,209.0,0
453,27.0,-25.0,209.0,0
454,25.0,-27.0,208.0,0
455,27.0,-28.0,207.0,0
456,29.0,-25.0,212.0,0
457,31.0,-22.0,210.0,0
458,30.0,-23.0,211.0,0
459,30.0,-21.0,215.0,0
460,26.0,-21.0,211.0,0
461,28.0,-25.0,209.0,0
462,34.0,-22.0,216.0,0
463,35.0,-21.0,214.0,0
464,31.0,-22.0,217.0,0
465,32.0,-24.0,215.0,0
466,36.0,-19.0,219.0,0
467,40.0,-18.0,214.0,0
468,30.0,-20.0,217.0,0
469,21.0,-23.0,212.0,0
470,30.0,-26.0,219.0,0
471,35.0,-21.0,220.0,0
472,28.0,-22.0,214.0,0
473,21.0,-27.0,215.0,0
474,24.0,-29.0,211.0,0
475,28.0,-24.0,216.0,0
476,28.0,-24.0,215.0,0
477,18.0,-24.0,213.0,0
478,20.0,-26.0,215.0,0
479,19.0,-25.0,212.0,0
480,17.0,-25.0,215.0,0
481,19.0,-25.0,214.0,0
482,15.0,-23.0,213.0,0
483,18.0,-27.0,217.0,0
484,19.0,-25.0,212.0,0
485,13.0,-25.0,214.0,0
486,7.0,-33.0,214.0,0
487,14.0,-28.0,218.0,0
488,17.0,-27.0,219.0,0
489,12.0,-24.0,220.0,0
490,9.0,-25.0,220.0,0
491,10.0,-28.0,218.0,0
492,5.0,-27.0,221.0,0
493,5.0,-27.0,225.0,0
494,10.0,-26.0,223.0,0
495,6.0,-26.0,221.0,0
496,10.0,-26.0,225.0,0
497,12.0,-28.0,223.0,0
498,11.0,-33.0,227.0,0
499,11.0,-33.0,223.0,0
500,15.0,-43.0,224.0,0
501,3.0,-47.0,224.0,0
502,18.0,-47.0,221.0,0
503,4.0,-44.0,217.0,0
504,16.0,-48.0,211.0,0
505,1.0,-36.0,201.0,0
506,-14.0,-33.0,205.0,0
507,0.0,-22.0,200.0,0
508,-11.0,-19.0,194.0,0
509,-16.0,-23.0,192.0,0
510,-32.0,-24.0,193.0,0
511,-31.0,-14.0,199.0,0
512,-26.0,-3.0,205.0,0
513,-31.0,-3.0,201.0,0
514,-31.0,1.0,212.0,0
515,-30.0,-4.0,214.0,0
516,-26.0,0.0,220.0,0
517,-18.0,-4.0,224.0,0
518,-4.0,-9.0,230.0,0
519,5.0,-12.0,229.0,0
520,-13.0,-16.0,228.0,0
521,12.0,-14.0,241.0,0
522,1.0,-11.0,234.0,0
523,-14.0,-19.0,230.0,0
524,-4.0,-29.0,237.0,0
525,11.0,-28.0,230.0,0
526,-2.0,-26.0,227.0,0
527,-5.0,-31.0,221.0,0
528,-7.0,-32.0,222.0,0
529,-7.0,-33.0,216.0,0
530,-7.0,-38.0,217.0,0
531,-13.0,-40.0,214.0,0
532,-13.0,-41.0,211.0,0
533,-15.0,-40.0,213.0,0
534,-10.0,-45.0,209.0,0
535,-15.0,-39.0,212.0,0
536,-18.0,-40.0,215.0,0
537,-26.0,-37.0,211.0,0
538,-5.0,-34.0,212.0,0
539,-8.0,-32.0,204.0,0
540,-5.0,-31.0,206.0,0
541,-6.0,-28.0,209.0,0
542,-1.0,-28.0,213.0,0
543,22.0,-32.0,217.0,0
544,19.0,-27.0,215.0,0
545,17.0,-27.0,223.0,0
546,9.0,-27.0,222.0,0
547,31.0,-27.0,228.0,0
548,11.0,-24.0,227.0,0
549,16.0,-32.0,227.0,0
550,41.0,-36.0,229.0,0
551,44.0,-40.0,223.0,0
552,35.0,-41.0,216.0,0
553,33.0,-44.0,221.0,0
554,43.0,-49.0,214.0,0
555,46.0,-48.0,209.0,0
556,45.0,-45.0,207.0,0
557,47.0,-47.0,205.0,0
558,53.0,-50.0,201.0,0
559,57.0,-43.0,198.0,0
560,47.0,-37.0,192.0,0
561,46.0,-38.0,197.0,0
562,45.0,-44.0,198.0,0
563,44.0,-31.0,207.0,0
564,30.0,-32.0,209.0,0
565,36.0,-35.0,217.0,0
566,26.0,-27.0,212.0,0
567,35.0,-35.0,213.0,0
568,31.0,-24.0,217.0,0
569,32.0,-29.0,207.0,0
570,10.0,-20.0,227.0,0
571,32.0,-29.0,224.0,0
572,33.0,-35.0,230.0,0
573,34.0,-39.0,225.0,0
574,31.0,-46.0,212.0,0
575,22.0,-43.0,204.0,0
576,19.0,-43.0,201.0,0
577,27.0,-44.0,200.0,0
578,22.0,-41.0,198.0,0
579,22.0,-43.0,201.0,0
580,27.0,-41.0,202.0,0
581,32.0,-48.0,215.0,0
582,26.0,-33.0,206.0,0
583,10.0,-28.0,213.0,0
584,10.0,-33.0,219.0,0
585,0.0,-27.0,223.0,0
586,1.0,-28.0,226.0,0
587,-16.0,-27.0,227.0,0
588,-11.0,-25.0,221.0,0
589,-8.0,-27.0,215.0,0
590,2.0,-29.0,209.0,0
591,5.0,-37.0,212.0,0
592,-15.0,-44.0,219.0,0
593,-12.0,-31.0,215.0,0
594,-2.0,-33.0,218.0,0
595,15.0,-34.0,217.0,0
596,24.0,-26.0,214.0,0
597,30.0,-30.0,214.0,0
598,31.0,-19.0,227.0,0
599,28.0,-14.0,220.0,0
600,25.0,-7.0,221.0,0
601,29.0,-7.0,214.0,0
602,23.0,-9.0,212.0,0
603,14.0,-5.0,214.0,0
604,17.0,-18.0,213.0,0
605,14.0,-21.0,219.0,0
606,13.0,-36.0,221.0,0
607,9.0,-43.0,227.0,0
608,6.0,-46.0,229.0,0
609,6.0,-57.0,221.0,0
610,8.0,-62.0,221.0,0
611,1.0,-60.0,219.0,0
612,1.0,-55.0,221.0,0
613,-1.0,-49.0,215.0,0
614,-6.0,-41.0,204.0,0
615,-12.0,-34.0,205.0,0
616,-15.0,-25.0,203.0,0
617,-18.0,-18.0,207.0,0
618,-12.0,-14.0,211.0,0
619,-15.0,-15.0,201.0,0
620,-15.0,-9.0,203.0,0
621,-17.0,-9.0,205.0,0
622,-16.0,-10.0,203.0,0
623,-17.0,-15.0,203.0,0
624,-21.0,-22.0,201.0,0
625,-15.0,-31.0,206.0,0
626,-15.0,-32.0,215.0,0
627,-16.0,-40.0,210.0,0
628,-13.0,-42.0,212.0,0
629,-11.0,-41.0,220.0,0
630,-10.0,-40.0,222.0,0
631,-12.0,-40.0,229.0,0
632,-4.0,-38.0,221.0,0
633,-2.0,-36.0,222.0,0
634,-2.0,-38.0,210.0,0
635,-5.0,-35.0,213.0,0
636,-11.0,-33.0,210.0,0
637,-24.0,-28.0,206.0,0
638,-29.0,-31.0,210.0,0
639,-42.0,-37.0,203.0,0
640,-37.0,-33.0,208.0,0
641,-43.0,-34.0,198.0,0
642,-47.0,-28.0,209.0,0
643,-52.0,-28.0,207.0,0
644,-61.0,-31.0,202.0,0
645,-76.0,-35.0,200.0,0
646,-80.0,-33.0,197.0,0
647,-61.0,-35.0,201.0,0
648,-59.0,-32.0,193.0,0
649,-66.0,-29.0,191.0,0
650,-69.0,-21.0,191.0,0
651,-73.0,-20.0,189.0,0
652,-81.0,-23.0,181.0,0
653,-89.0,-14.0,184.0,0
654,-89.0,-12.0,189.0,0
655,-93.0,-10.0,189.0,0
656,-101.0,-7.0,188.0,0
657,-111.0,-14.0,187.0,0
658,-118.0,-10.0,187.0,0
659,-107.0,-13.0,195.0,0
660,-105.0,-13.0,192.0,0
661,-114.0,-12.0,185.0,0
662,-117.0,-14.0,187.0,0
663,-120.0,-12.0,184.0,0
664,-123.0,-13.0,188.0,0
665,-127.0,-14.0,189.0,0
666,-127.0,-19.0,190.0,0
667,-127.0,-22.0,186.0,0
668,-132.0,-27.0,183.0,0
669,-109.0,-28.0,187.0,0
670,-122.0,-26.0,180.0,0
671,-132.0,-26.0,177.0,0
672,-143.0,-29.0,168.0,0
673,-146.0,-28.0,172.0,0
674,-145.0,-31.0,169.0,0
675,-162.0,-30.0,172.0,0
676,-166.0,-31.0,165.0,0
677,-163.0,-31.0,167.0,0
678,-156.0,-31.0,167.0,0
679,-168.0,-21.0,160.0,0
680,-166.0,-22.0,164.0,0
681,-169.0,-23.0,157.0,0
682,-160.0,-22.0,156.0,0
683,-142.0,-22.0,154.0,0
684,-166.0,-16.0,148.0,0
685,-182.0,-19.0,136.0,0
686,-188.0,-25.0,132.0,0
687,-190.0,-29.0,135.0,0
688,-177.0,-33.0,137.0,0
689,-173.0,-32.0,139.0,0
690,-177.0,-30.0,140.0,0
691,-180.0,-33.0,141.0,0
692,-136.0,-38.0,149.0,0
693,-152.0,-28.0,141.0,0
694,-191.0,-20.0,133.0,0
695,-210.0,-14.0,129.0,0
696,-225.0,-10.0,132.0,0
697,-219.0,-11.0,126.0,0
698,-207.0,-5.0,134.0,0
699,-205.0,2.0,129.0,0
700,-207.0,8.0,132.0,0
701,-205.0,8.0,127.0,0
702,-205.0,8.0,129.0,0
703,-206.0,8.0,129.0,0
704,-199.0,10.0,126.0,0
705,-211.0,10.0,120.0,0
706,-203.0,5.0,122.0,0
707,-226.0,5.0,117.0,0
708,-242.0,8.0,117.0,0
709,-247.0,4.0,117.0,0
710,-235.0,1.0,115.0,0
711,-237.0,2.0,112.0,0
712,-235.0,5.0,106.0,0
713,-231.0,3.0,101.0,0
714,-235.0,-1.0,99.0,0
715,-236.0,1.0,106.0,0
716,-194.0,-4.0,106.0,0
717,-213.0,4.0,106.0,0
718,-219.0,-3.0,107.0,0
719,-241.0,-2.0,105.0,0
720,-245.0,-4.0,112.0,0
721,-228.0,-8.0,112.0,0
722,-211.0,-10.0,118.0,0
723,-201.0,-8.0,121.0,0
724,-198.0,-3.0,118.0,0
725,-191.0,-2.0,122.0,0
726,-203.0,-9.0,122.0,0
727,-219.0,-7.0,123.0,0
728,-216.0,-3.0,125.0,0
729,-206.0,-7.0,126.0,0
730,-204.0,-11.0,126.0,0
731,-199.0,-4.0,136.0,0
732,-169.0,-2.0,133.0,0
733,-170.0,0.0,130.0,0
734,-197.0,-8.0,130.0,0
735,-199.0,1.0,124.0,0
736,-190.0,-5.0,122.0,0
737,-198.0,-13.0,123.0,0
738,-205.0,-19.0,126.0,0
739,-193.0,-15.0,126.0,0
740,-187.0,-16.0,123.0,0
741,-177.0,-25.0,123.0,0
742,-174.0,-18.0,127.0,0
743,-179.0,-21.0,126.0,0
744,-186.0,-23.0,123.0,0
745,-199.0,-25.0,125.0,0
746,-197.0,-26.0,123.0,0
747,-199.0,-25.0,126.0,0
748,-202.0,-23.0,122.0,0
749,-195.0,-25.0,117.0,0
750,-186.0,-20.0,117.0,0
751,-189.0,-21.0,120.0,0
752,-199.0,-26.0,118.0,0
753,-209.0,-24.0,122.0,0
754,-201.0,-19.0,126.0,0
755,-195.0,-20.0,115.0,0
756,-198.0,-18.0,116.0,0
757,-199.0,-20.0,116.0,0
758,-208.0,-23.0,114.0,0
759,-215.0,-26.0,116.0,0
760,-220.0,-18.0,116.0,0
761,-211.0,-10.0,116.0,0
762,-212.0,-23.0,105.0,0
763,-200.0,-23.0,103.0,0
764,-213.0,-19.0,104.0,0
765,-224.0,-15.0,100.0,0
766,-229.0,-14.0,102.0,0
767,-223.0,-19.0,105.0,0
768,-223.0,-18.0,104.0,0
769,-228.0,-22.0,101.0,0
770,-235.0,-10.0,103.0,0
771,-213.0,-17.0,99.0,0
772,-219.0,-15.0,98.0,0
773,-222.0,-20.0,98.0,0
774,-227.0,-15.0,101.0,0
775,-238.0,-13.0,100.0,0
776,-236.0,-18.0,101.0,0
777,-228.0,-14.0,95.0,0
778,-211.0,-19.0,100.0,0
779,-214.0,-16.0,89.0,0
780,-222.0,-12.0,80.0,0
781,-228.0,-7.0,79.0,0
782,-227.0,-10.0,75.0,0
783,-231.0,-10.0,74.0,0
784,-223.0,-14.0,73.0,0
785,-215.0,-15.0,69.0,0
786,-211.0,-17.0,66.0,0
787,-223.0,-11.0,57.0,0
788,-233.0,-11.0,62.0,0
789,-245.0,-9.0,55.0,0
790,-248.0,-8.0,50.0,0
791,-246.0,-10.0,51.0,0
792,-244.0,-6.0,55.0,0
793,-244.0,-6.0,53.0,0
794,-243.0,-5.0,53.0,0
795,-245.0,-4.0,58.0,0
796,-249.0,-4.0,57.0,0
797,-244.0,-8.0,56.0,0
798,-242.0,-9.0,61.0,0
799,-243.0,-21.0,58.0,0
800,-243.0,-22.0,58.0,0
801,-245.0,-21.0,58.0,0
802,-245.0,-24.0,55.0,0
803,-250.0,-22.0,54.0,0
804,-251.0,-30.0,51.0,0
805,-258.0,-30.0,48.0,0
806,-261.0,-30.0,49.0,0
807,-259.0,-35.0,35.0,0
808,-261.0,-36.0,26.0,0
809,-261.0,-27.0,16.0,0
810,-250.0,-19.0,11.0,0
811,-258.0,-20.0,13.0,0
812,-258.0,-21.0,11.0,0
813,-258.0,-16.0,11.0,0
814,-253.0,-15.0,18.0,0
815,-253.0,-11.0,25.0,0
816,-247.0,-7.0,32.0,0
817,-252.0,-7.0,37.0,0
818,-246.0,-11.0,41.0,0
819,-242.0,-17.0,36.0,0
820,-249.0,-16.0,24.0,0
821,-229.0,-28.0,27.0,0
822,-225.0,-40.0,22.0,0
823,-237.0,-43.0,3.0,0
824,-235.0,-46.0,-13.0,0
825,-253.0,-44.0,-14.0,0
826,-264.0,-35.0,-27.0,0
827,-273.0,-23.0,-27.0,0
828,-280.0,-17.0,-24.0,0
829,-279.0,-9.0,-21.0,0
830,-267.0,7.0,-9.0,0
831,-279.0,11.0,-16.0,0
832,-286.0,14.0,-6.0,0
833,-285.0,20.0,0.0,0
834,-282.0,20.0,1.0,0
835,-274.0,22.0,-1.0,0
836,-282.0,22.0,-10.0,0
837,-286.0,18.0,-18.0,0
838,-287.0,12.0,-14.0,0
839,-277.0,8.0,-11.0,0
840,-272.0,8.0,-11.0,0
841,-264.0,2.0,-6.0,0
842,-268.0,5.0,-10.0,0
843,-245.0,-8.0,-4.0,0
844,-223.0,3.0,-2.0,0
845,-251.0,8.0,2.0,0
846,-259.0,5.0,-8.0,0
847,-262.0,3.0,-13.0,0
848,-262.0,3.0,-1.0,0
849,-258.0,-1.0,3.0,0
850,-232.0,-1.0,10.0,0
851,-246.0,6.0,1.0,0
852,-266.0,4.0,-1.0,0
853,-277.0,1.0,4.0,0
854,-243.0,-3.0,12.0,0
855,-258.0,0.0,2.0,0
856,-270.0,-1.0,-4.0,0
857,-272.0,-1.0,-2.0,0
858,-249.0,-4.0,-2.0,0
859,-260.0,-4.0,0.0,0
860,-279.0,0.0,11.0,0
861,-258.0,-5.0,6.0,0
862,-249.0,-11.0,8.0,0
863,-247.0,-2.0,7.0,0
864,-245.0,-1.0,9.0,0
865,-252.0,0.0,13.0,0
866,-238.0,-4.0,20.0,0
867,-234.0,-5.0,23.0,0
868,-244.0,-7.0,21.0,0
869,-225.0,-6.0,18.0,0
870,-221.0,-5.0,25.0,0
871,-238.0,-11.0,38.0,0
872,-238.0,-17.0,39.0,0
873,-248.0,-20.0,39.0,0
874,-266.0,-16.0,43.0,0
875,-276.0,-13.0,48.0,0
876,-297.0,-2.0,39.0,0
877,-308.0,1.0,38.0,0
878,-316.0,5.0,33.0,0
879,-306.0,5.0,30.0,0
880,-301.0,6.0,23.0,0
881,-299.0,2.0,13.0,0
882,-291.0,0.0,13.0,0
883,-285.0,0.0,7.0,0
884,-282.0,-4.0,5.0,0
885,-278.0,-10.0,4.0,0
886,-277.0,-10.0,7.0,0
887,-276.0,-9.0,2.0,0
888,-273.0,-11.0,9.0,0
889,-270.0,-8.0,12.0,0
890,-266.0,-5.0,13.0,0
891,-263.0,-5.0,21.0,0
892,-255.0,-4.0,21.0,0
893,-252.0,0.0,24.0,0
894,-247.0,-1.0,24.0,0
895,-247.0,6.0,29.0,0
896,-250.0,8.0,31.0,0
897,-245.0,9.0,28.0,0
898,-238.0,8.0,28.0,0
899,-237.0,9.0,29.0,0
900,-242.0,9.0,29.0,0
901,-245.0,8.0,27.0,0
902,-247.0,12.0,26.0,0
903,-239.0,5.0,27.0,0
904,-244.0,2.0,26.0,0
905,-245.0,-4.0,25.0,0
906,-246.0,-4.0,26.0,0
907,-250.0,-6.0,28.0,0
908,-246.0,-9.0,30.0,0
909,-250.0,-9.0,30.0,0
910,-253.0,-10.0,34.0,0
911,-254.0,-7.0,34.0,0
912,-255.0,-6.0,39.0,0
913,-254.0,-7.0,39.0,0
914,-258.0,-6.0,40.0,0
915,-261.0,-4.0,43.0,0
916,-260.0,-7.0,49.0,0
917,-264.0,-6.0,45.0,0
918,-264.0,-9.0,42.0,0
919,-264.0,-13.0,46.0,0
920,-267.0,-12.0,45.0,0
921,-266.0,-14.0,43.0,0
922,-263.0,-18.0,40.0,0
923,-265.0,-18.0,36.0,0
924,-263.0,-20.0,32.0,0
925,-260.0,-23.0,30.0,0
926,-257.0,-22.0,25.0,0
927,-249.0,-23.0,32.0,0
928,-247.0,-20.0,32.0,0
929,-241.0,-21.0,31.0,0
930,-242.0,-18.0,34.0,0
931,-237.0,-22.0,33.0,0
932,-234.0,-22.0,36.0,0
933,-233.0,-14.0,37.0,0
934,-232.0,-21.0,38.0,0
935,-234.0,-21.0,41.0,0
936,-234.0,-17.0,46.0,0
937,-233.0,-20.0,47.0,0
938,-234.0,-19.0,48.0,0
939,-232.0,-18.0,49.0,0
940,-230.0,-23.0,51.0,0
941,-234.0,-15.0,56.0,0
942,-234.0,-13.0,56.0,0
943,-236.0,-15.0,63.0,0
944,-234.0,-15.0,59.0,0
945,-235.0,-15.0,58.0,0
946,-235.0,-15.0,59.0,0
947,-236.0,-16.0,60.0,0
948,-237.0,-20.0,63.0,0
949,-239.0,-17.0,65.0,0
950,-236.0,-19.0,62.0,0
951,-239.0,-22.0,61.0,0
952,-238.0,-19.0,63.0,0
953,-236.0,-19.0,60.0,0
954,-238.0,-19.0,62.0,0
955,-238.0,-19.0,59.0,0
956,-236.0,-18.0,57.0,0
957,-240.0,-16.0,63.0,0
958,-240.0,-17.0,65.0,0
959,-239.0,-16.0,63.0,0
960,-236.0,-13.0,66.0,0
961,-240.0,-12.0,62.0,0
962,-237.0,-12.0,63.0,0
963,-239.0,-10.0,63.0,0
964,-237.0,-5.0,70.0,0
965,-237.0,-6.0,65.0,0
966,-232.0,-11.0,67.0,0
967,-238.0,-7.0,65.0,0
968,-237.0,-5.0,66.0,0
969,-236.0,-9.0,64.0,0
970,-237.0,-7.0,70.0,0
971,-236.0,-6.0,67.0,0
972,-238.0,-2.0,64.0,0
973,-238.0,-6.0,68.0,0
974,-237.0,-6.0,63.0,0
975,-237.0,-9.0,71.0,0
976,-233.0,-11.0,69.0,0
977,-235.0,-9.0,66.0,0
978,-233.0,-9.0,67.0,0
979,-236.0,-13.0,69.0,0
980,-233.0,-9.0,66.0,0
981,-231.0,-11.0,67.0,0
982,-236.0,-12.0,69.0,0
983,-234.0,-9.0,68.0,0
984,-235.0,-8.0,73.0,0
985,-233.0,-9.0,71.0,0
986,-234.0,-9.0,73.0,0
987,-227.0,-13.0,70.0,0
988,-234.0,-12.0,71.0,0
989,-234.0,-9.0,71.0,0
990,-233.0,-12.0,68.0,0
991,-232.0,-15.0,69.0,0
992,-233.0,-11.0,70.0,0
993,-236.0,-11.0,69.0,0
994,-236.0,-10.0,71.0,0
995,-234.0,-14.0,71.0,0
996,-230.0,-12.0,69.0,0
997,-236.0,-12.0,73.0,0
998,-233.0,-9.0,71.0,0
999,-234.0,-11.0,75.0,0
1000,-235.0,-8.0,73.0,0
1001,-234.0,-11.0,74.0,0
1002,-232.0,-14.0,72.0,0
1003,-234.0,-11.0,75.0,0
1004,-231.0,-14.0,73.0,0
1005,-231.0,-16.0,74.0,0
1006,-233.0,-14.0,68.0,0
1007,-234.0,-16.0,71.0,0
1008,-234.0,-16.0,69.0,0
1009,-232.0,-18.0,68.0,0
1010,-238.0,-15.0,66.0,0
1011,-236.0,-15.0,67.0,0
1012,-236.0,-11.0,60.0,0
1013,-233.0,-14.0,65.0,0
1014,-235.0,-13.0,67.0,0
1015,-235.0,-14.0,66.0,0
1016,-235.0,-14.0,69.0,0
1017,-234.0,-12.0,64.0,0
1018,-232.0,-15.0,64.0,0
1019,-233.0,-15.0,66.0,0
1020,-231.0,-18.0,67.0,0
1021,-235.0,-15.0,64.0,0
1022,-237.0,-15.0,68.0,0
1023,-237.0,-14.0,67.0,0
1024,-239.0,-14.0,69.0,0
1025,-240.0,-9.0,66.0,0
1026,-239.0,-12.0,68.0,0
1027,-237.0,-12.0,67.0,0
1028,-234.0,-12.0,66.0,0
1029,-235.0,-15.0,65.0,0
1030,-236.0,-13.0,65.0,0
1031,-236.0,-13.0,63.0,0
1032,-240.0,-14.0,64.0,0
1033,-238.0,-15.0,62.0,0
1034,-239.0,-17.0,67.0,0
1035,-240.0,-13.0,66.0,0
1036,-240.0,-13.0,62.0,0
1037,-240.0,-11.0,60.0,0
1038,-240.0,-14.0,63.0,0
1039,-242.0,-12.0,62.0,0
1040,-241.0,-10.0,65.0,0
1041,-239.0,-10.0,63.0,0
1042,-239.0,-8.0,62.0,0
1043,-239.0,-12.0,66.0,0
1044,-239.0,-9.0,62.0,0
1045,-238.0,-12.0,65.0,0
1046,-242.0,-11.0,66.0,0
1047,-239.0,-12.0,67.0,0
1048,-243.0,-10.0,67.0,0
1049,-239.0,-10.0,64.0,0
1050,-241.0,-9.0,67.0,0
1051,-243.0,-10.0,61.0,0
1052,-240.0,-10.0,64.0,0
1053,-241.0,-15.0,60.0,0
1054,-241.0,-10.0,61.0,0
1055,-241.0,-11.0,61.0,0
1056,-237.0,-13.0,61.0,0
1057,-240.0,-12.0,61.0,0
1058,-238.0,-12.0,62.0,0
1059,-240.0,-10.0,62.0,0
1060,-237.0,-12.0,60.0,0
1061,-240.0,-11.0,61.0,0
1062,-239.0,-10.0,61.0,0
1063,-241.0,-9.0,62.0,0
1064,-239.0,-11.0,63.0,0
1065,-240.0,-10.0,63.0,0
1066,-239.0,-12.0,65.0,0
1067,-239.0,-10.0,61.0,0
1068,-243.0,-10.0,65.0,0
1069,-240.0,-11.0,61.0,0
1070,-242.0,-5.0,70.0,0
1071,-240.0,-10.0,59.0,0
1072,-242.0,-9.0,61.0,0
1073,-244.0,-8.0,60.0,0
1074,-242.0,-11.0,63.0,0
1075,-242.0,-8.0,62.0,0
1076,-242.0,-13.0,60.0,0
1077,-244.0,-9.0,61.0,0
1078,-239.0,-13.0,64.0,0
1079,-239.0,-11.0,60.0,0
1080,-239.0,-10.0,63.0,0
1081,-232.0,-18.0,62.0,0
1082,-239.0,-11.0,61.0,0
1083,-238.0,-8.0,63.0,0
1084,-238.0,-11.0,63.0,0
1085,-239.0,-13.0,61.0,0
1086,-242.0,-9.0,65.0,0
1087,-240.0,-10.0,67.0,0
1088,-242.0,-10.0,62.0,0
1089,-241.0,-10.0,61.0,0
1090,-237.0,-9.0,62.0,0
1091,-241.0,-8.0,64.0,0
1092,-246.0,-12.0,69.0,0
1093,-239.0,-13.0,59.0,0
1094,-244.0,-14.0,58.0,0
1095,-243.0,-12.0,59.0,0
1096,-243.0,-15.0,56.0,0
1097,-240.0,-14.0,58.0,0
1098,-241.0,-14.0,54.0,0
1099,-241.0,-16.0,57.0,0
1100,-244.0,-10.0,54.0,0
1101,-243.0,-11.0,55.0,0
1102,-242.0,-10.0,53.0,0
1103,-242.0,-4.0,50.0,0
1104,-240.0,-10.0,59.0,0
1105,-242.0,-9.0,55.0,0
1106,-245.0,-9.0,60.0,0
1107,-242.0,-9.0,55.0,0
1108,-243.0,-10.0,56.0,0
1109,-240.0,-15.0,62.0,0
1110,-243.0,-12.0,53.0,0
1111,-238.0,-12.0,59.0,0
1112,-242.0,-12.0,55.0,0
1113,-244.0,-21.0,60.0,0
1114,-241.0,-12.0,58.0,0
1115,-242.0,-12.0,58.0,0
1116,-244.0,-7.0,59.0,0
1117,-243.0,-10.0,59.0,0
1118,-245.0,-7.0,58.0,0
1119,-243.0,-10.0,57.0,0
1120,-240.0,-9.0,56.0,0
1121,-239.0,-11.0,61.0,0
1122,-246.0,-10.0,59.0,0
1123,-242.0,-9.0,60.0,0
1124,-237.0,-7.0,58.0,0
1125,-240.0,-7.0,63.0,0
1126,-239.0,-6.0,57.0,0
1127,-241.0,-6.0,60.0,0
1128,-243.0,-7.0,59.0,0
1129,-244.0,-3.0,59.0,0
1130,-240.0,-10.0,55.0,0
1131,-243.0,-8.0,60.0,0
1132,-243.0,-9.0,63.0,0
1133,-239.0,-11.0,60.0,0
1134,-244.0,-8.0,59.0,0
1135,-240.0,-9.0,55.0,0
1136,-239.0,-11.0,57.0,0
1137,-240.0,-7.0,62.0,0
1138,-241.0,-9.0,59.0,0
1139,-243.0,-7.0,59.0,0
1140,-242.0,-8.0,58.0,0
1141,-242.0,-9.0,60.0,0
1142,-243.0,-8.0,60.0,0
1143,-243.0,-7.0,61.0,0
1144,-243.0,-5.0,58.0,0
1145,-243.0,-4.0,59.0,0
1146,-243.0,-9.0,60.0,0
1147,-244.0,-5.0,60.0,0
1148,-243.0,-8.0,59.0,0
1149,-241.0,-7.0,58.0,0
1150,-245.0,-10.0,58.0,0
1151,-242.0,-9.0,56.0,0
1152,-237.0,-10.0,57.0,0
1153,-243.0,-10.0,59.0,0
1154,-241.0,-8.0,56.0,0
1155,-239.0,-8.0,54.0,0
1156,-240.0,-8.0,57.0,0
1157,-239.0,-9.0,56.0,0
1158,-237.0,-11.0,56.0,0
1159,-243.0,-8.0,62.0,0
1160,-242.0,-8.0,59.0,0
1161,-241.0,-11.0,64.0,0
1162,-241.0,-8.0,56.0,0
1163,-242.0,-8.0,58.0,0
1164,-242.0,-10.0,64.0,0
1165,-241.0,-7.0,61.0,0
1166,-241.0,-9.0,62.0,0
1167,-240.0,-13.0,57.0,0
1168,-242.0,-9.0,57.0,0
1169,-240.0,-10.0,61.0,0
1170,-242.0,-10.0,60.0,0
1171,-245.0,-13.0,60.0,0
1172,-244.0,-10.0,58.0,0
1173,-239.0,-12.0,60.0,0
1174,-244.0,-11.0,61.0,0
1175,-242.0,-12.0,59.0,0
1176,-242.0,-9.0,58.0,0
1177,-241.0,-9.0,54.0,0
1178,-240.0,-13.0,59.0,0
1179,-241.0,-12.0,56.0,0
1180,-240.0,-9.0,56.0,0
1181,-243.0,-8.0,56.0,0
1182,-242.0,-7.0,58.0,0
1183,-243.0,-7.0,55.0,0
1184,-242.0,-9.0,53.0,0
1185,-240.0,-9.0,58.0,0
1186,-242.0,-9.0,57.0,0
1187,-242.0,-6.0,58.0,0
1188,-237.0,-9.0,57.0,0
1189,-245.0,-10.0,59.0,0
1190,-242.0,-9.0,58.0,0
1191,-243.0,-5.0,61.0,0
1192,-241.0,-10.0,64.0,0
1193,-243.0,-10.0,61.0,0
1194,-244.0,-12.0,58.0,0
1195,-242.0,-9.0,62.0,0
1196,-238.0,-15.0,61.0,0
1197,-238.0,-14.0,58.0,0
1198,-238.0,-11.0,57.0,0
1199,-242.0,-9.0,57.0,0
1200,-241.0,-13.0,58.0,0
1201,-239.0,-9.0,58.0,0
1202,-240.0,-10.0,56.0,0
1203,-243.0,-11.0,57.0,0
1204,-240.0,-7.0,56.0,0
1205,-241.0,-9.0,61.0,0
1206,-240.0,-11.0,60.0,0
1207,-242.0,-10.0,59.0,0
1208,-241.0,-7.0,60.0,0
1209,-242.0,-9.0,57.0,0
1210,-239.0,-13.0,58.0,0
1211,-243.0,-12.0,62.0,0
1212,-239.0,-11.0,58.0,0
1213,-247.0,-7.0,57.0,0
1214,-243.0,-9.0,60.0,0
1215,-242.0,-9.0,61.0,0
1216,-243.0,-7.0,56.0,0
1217,-242.0,-9.0,57.0,0
1218,-241.0,-9.0,61.0,0
1219,-240.0,-11.0,60.0,0
1220,-242.0,-9.0,60.0,0
1221,-242.0,-9.0,61.0,0
1222,-241.0,-8.0,60.0,0
1223,-239.0,-9.0,56.0,0
1224,-241.0,-11.0,58.0,0
1225,-240.0,-12.0,57.0,0
1226,-243.0,-7.0,59.0,0
1227,-243.0,-8.0,59.0,0
1228,-242.0,-6.0,59.0,0
1229,-243.0,-8.0,57.0,0
1230,-243.0,-7.0,59.0,0
1231,-245.0,-9.0,62.0,0
1232,-239.0,-11.0,57.0,0
1233,-241.0,-11.0,56.0,0
1234,-240.0,-9.0,54.0,0
1235,-240.0,-13.0,57.0,0
1236,-243.0,-9.0,60.0,0
1237,-242.0,-8.0,54.0,0
1238,-243.0,-11.0,53.0,0
1239,-243.0,-9.0,54.0,0
1240,-244.0,-8.0,53.0,0
1241,-244.0,-8.0,58.0,0
1242,-243.0,-6.0,56.0,0
1243,-245.0,-7.0,56.0,0
1244,-242.0,-11.0,61.0,0
1245,-241.0,-10.0,57.0,0
1246,-242.0,-12.0,60.0,0
1247,-240.0,-14.0,57.0,0
1248,-241.0,-9.0,55.0,0
1249,-241.0,-13.0,54.0,0
1250,-241.0,-14.0,54.0,0
1251,-240.0,-13.0,56.0,0
1252,-241.0,-14.0,55.0,0
1253,-242.0,-10.0,55.0,0
1254,-238.0,-11.0,55.0,0
1255,-242.0,-11.0,57.0,0
1256,-241.0,-11.0,54.0,0
1257,-241.0,-4.0,53.0,0
1258,-241.0,-10.0,59.0,0
1259,-243.0,-7.0,57.0,0
1260,-242.0,-8.0,58.0,0
1261,-243.0,-8.0,61.0,0
1262,-240.0,-12.0,61.0,0
1263,-242.0,-8.0,57.0,0
1264,-243.0,-9.0,57.0,0
1265,-243.0,-8.0,57.0,0
1266,-242.0,-6.0,57.0,0
1267,-242.0,-8.0,56.0,0
1268,-246.0,-8.0,51.0,0
1269,-243.0,-8.0,56.0,0
1270,-240.0,-7.0,53.0,0
1271,-239.0,-9.0,60.0,0
1272,-242.0,-8.0,54.0,0
1273,-245.0,-6.0,56.0,0
1274,-242.0,-8.0,57.0,0
1275,-242.0,-10.0,59.0,0
1276,-243.0,-11.0,57.0,0
1277,-240.0,-9.0,59.0,0
1278,-246.0,-8.0,63.0,0
1279,-243.0,-8.0,59.0,0
1280,-238.0,-11.0,60.0,0
1281,-242.0,-8.0,59.0,0
1282,-243.0,-8.0,58.0,0
1283,-240.0,-9.0,57.0,0
1284,-242.0,-10.0,59.0,0
1285,-242.0,-8.0,60.0,0
1286,-240.0,-9.0,56.0,0
1287,-241.0,-11.0,56.0,0
1288,-244.0,-9.0,61.0,0
1289,-243.0,-7.0,58.0,0
1290,-243.0,-12.0,56.0,0
1291,-243.0,-10.0,59.0,0
1292,-244.0,-10.0,59.0,0
1293,-242.0,-9.0,56.0,0
1294,-243.0,-9.0,54.0,0
1295,-241.0,-10.0,52.0,0
1296,-241.0,-10.0,59.0,0
1297,-244.0,-10.0,56.0,0
1298,-243.0,-8.0,55.0,0
1299,-243.0,-10.0,57.0,0
1300,-241.0,-8.0,53.0,0
1301,-240.0,-12.0,56.0,0
1302,-245.0,-12.0,57.0,0
1303,-245.0,-8.0,59.0,0
1304,-244.0,-12.0,59.0,0
1305,-244.0,-13.0,57.0,0
1306,-243.0,-9.0,58.0,0
1307,-242.0,-10.0,53.0,0
1308,-242.0,-12.0,52.0,0
1309,-242.0,-9.0,52.0,0
1310,-244.0,-10.0,53.0,0
1311,-245.0,-10.0,52.0,0
1312,-241.0,-9.0,55.0,0
1313,-245.0,-10.0,54.0,0
1314,-242.0,-7.0,55.0,0
1315,-245.0,-6.0,55.0,0
1316,-247.0,-7.0,60.0,0
1317,-243.0,-7.0,55.0,0
1318,-246.0,-8.0,55.0,0
1319,-241.0,-11.0,54.0,0
1320,-243.0,-8.0,59.0,0
1321,-242.0,-10.0,57.0,0
1322,-241.0,-11.0,62.0,0
1323,-242.0,-9.0,58.0,0
1324,-242.0,-9.0,56.0,0
1325,-243.0,-9.0,59.0,0
1326,-242.0,-10.0,63.0,0
1327,-243.0,-9.0,57.0,0
1328,-242.0,-9.0,61.0,0
1329,-241.0,-10.0,59.0,0
1330,-241.0,-12.0,59.0,0
1331,-238.0,-10.0,50.0,0
1332,-239.0,-11.0,56.0,0
1333,-239.0,-13.0,59.0,0
1334,-240.0,-15.0,58.0,0
1335,-243.0,-12.0,58.0,0
1336,-240.0,-11.0,61.0,0
1337,-242.0,-12.0,53.0,0
1338,-244.0,-8.0,57.0,0
1339,-243.0,-11.0,55.0,0
1340,-245.0,-9.0,54.0,0
1341,-243.0,-8.0,52.0,0
1342,-236.0,-11.0,69.0,0
1343,-244.0,-10.0,60.0,0
1344,-243.0,-9.0,48.0,0
1345,-243.0,-9.0,58.0,0
1346,-241.0,-12.0,54.0,0
1347,-244.0,-9.0,62.0,0
1348,-245.0,-10.0,55.0,0
1349,-242.0,-10.0,57.0,0
1350,-242.0,-11.0,56.0,0
1351,-241.0,-13.0,57.0,0
1352,-238.0,-10.0,54.0,0
1353,-245.0,-6.0,42.0,0
1354,-242.0,-9.0,55.0,0
1355,-240.0,-12.0,53.0,0
1356,-241.0,-12.0,58.0,0
1357,-242.0,-13.0,54.0,0
1358,-244.0,-13.0,56.0,0
1359,-240.0,-11.0,55.0,0
1360,-240.0,-10.0,54.0,0
1361,-243.0,-14.0,58.0,0
1362,-243.0,-11.0,56.0,0
1363,-243.0,-13.0,58.0,0
1364,-235.0,-4.0,42.0,0
1365,-243.0,-10.0,58.0,0
1366,-247.0,-7.0,55.0,0
1367,-242.0,-10.0,57.0,0
1368,-245.0,-8.0,55.0,0
1369,-244.0,-11.0,58.0,0
1370,-243.0,-12.0,55.0,0
1371,-245.0,-11.0,54.0,0
1372,-244.0,-11.0,54.0,0
1373,-243.0,-15.0,51.0,0
1374,-244.0,-11.0,57.0,0
1375,-238.0,-9.0,56.0,0
1376,-243.0,-10.0,50.0,0
1377,-243.0,-10.0,56.0,0
1378,-244.0,-10.0,54.0,0
1379,-241.0,-10.0,55.0,0
1380,-242.0,-12.0,52.0,0
1381,-242.0,-11.0,55.0,0
1382,-242.0,-10.0,59.0,0
1383,-243.0,-11.0,59.0,0
1384,-243.0,-13.0,56.0,0
1385,-243.0,-13.0,55.0,0
1386,-241.0,-16.0,55.0,0
1387,-241.0,-13.0,54.0,0
1388,-241.0,-16.0,58.0,0
1389,-240.0,-16.0,57.0,0
1390,-241.0,-12.0,53.0,0
1391,-241.0,-13.0,51.0,0
1392,-241.0,-12.0,54.0,0
1393,-246.0,-11.0,56.0,0
1394,-244.0,-9.0,52.0,0
1395,-244.0,-11.0,52.0,0
1396,-245.0,-12.0,56.0,0
1397,-244.0,-10.0,55.0,0
1398,-244.0,-16.0,53.0,0
1399,-246.0,-8.0,50.0,0
1400,-244.0,-11.0,50.0,0
1401,-244.0,-10.0,58.0,0
1402,-243.0,-11.0,54.0,0
1403,-244.0,-14.0,59.0,0
1404,-246.0,-11.0,54.0,0
1405,-244.0,-11.0,53.0,0
1406,-244.0,-12.0,51.0,0
1407,-242.0,-11.0,53.0,0
1408,-242.0,-8.0,54.0,0
1409,-243.0,-9.0,55.0,0
1410,-242.0,-11.0,54.0,0
1411,-241.0,-11.0,56.0,0
1412,-240.0,-13.0,58.0,0
1413,-242.0,-12.0,61.0,0
1414,-243.0,-13.0,57.0,0
1415,-243.0,-10.0,58.0,0
1416,-240.0,-9.0,60.0,0
1417,-242.0,-11.0,56.0,0
1418,-242.0,-10.0,57.0,0
1419,-243.0,-14.0,55.0,0
1420,-243.0,-13.0,54.0,0
1421,-243.0,-14.0,51.0,0
1422,-242.0,-14.0,55.0,0
1423,-246.0,-11.0,54.0,0
1424,-245.0,-12.0,56.0,0
1425,-246.0,-11.0,54.0,0
1426,-243.0,-13.0,52.0,0
1427,-242.0,-11.0,52.0,0
1428,-243.0,-13.0,55.0,0
1429,-244.0,-11.0,51.0,0
1430,-245.0,-11.0,54.0,0
1431,-242.0,-10.0,49.0,0
1432,-243.0,-11.0,55.0,0
1433,-243.0,-13.0,52.0,0
1434,-243.0,-13.0,53.0,0
1435,-243.0,-13.0,49.0,0
1436,-244.0,-13.0,56.0,0
1437,-243.0,-8.0,54.0,0
1438,-243.0,-10.0,52.0,0
1439,-244.0,-12.0,50.0,0
1440,-249.0,-10.0,51.0,0
1441,-247.0,-12.0,55.0,0
1442,-240.0,-13.0,54.0,0
1443,-244.0,-10.0,53.0,0
1444,-243.0,-11.0,51.0,0
1445,-243.0,-13.0,48.0,0
1446,-241.0,-11.0,50.0,0
1447,-242.0,-12.0,53.0,0
1448,-242.0,-12.0,55.0,0
1449,-243.0,-12.0,52.0,0
1450,-243.0,-12.0,55.0,0
1451,-243.0,-12.0,53.0,0
1452,-242.0,-8.0,51.0,0
1453,-243.0,-12.0,53.0,0
1454,-244.0,-10.0,51.0,0
1455,-244.0,-11.0,53.0,0
1456,-244.0,-12.0,52.0,0
1457,-244.0,-9.0,47.0,0
1458,-245.0,-11.0,51.0,0
1459,-244.0,-11.0,53.0,0
1460,-245.0,-13.0,54.0,0
1461,-243.0,-10.0,47.0,0
1462,-242.0,-11.0,50.0,0
1463,-248.0,-12.0,53.0,0
1464,-245.0,-11.0,49.0,0
1465,-246.0,-10.0,51.0,0
1466,-246.0,-11.0,51.0,0
1467,-245.0,-10.0,50.0,0
1468,-246.0,-13.0,48.0,0
1469,-245.0,-10.0,50.0,0
1470,-241.0,-14.0,51.0,0
1471,-243.0,-12.0,53.0,0
1472,-247.0,-13.0,48.0,0
1473,-244.0,-12.0,52.0,0
1474,-245.0,-13.0,52.0,0
1475,-243.0,-11.0,51.0,0
1476,-243.0,-12.0,51.0,0
1477,-244.0,-13.0,52.0,0
1478,-244.0,-11.0,53.0,0
1479,-244.0,-14.0,49.0,0
1480,-249.0,-11.0,51.0,0
1481,-243.0,-13.0,50.0,0
1482,-245.0,-13.0,52.0,0
1483,-243.0,-13.0,55.0,0
1484,-244.0,-12.0,52.0,0
1485,-243.0,-9.0,51.0,0
1486,-243.0,-11.0,56.0,0
1487,-245.0,-11.0,49.0,0
1488,-241.0,-15.0,52.0,0
1489,-245.0,-10.0,56.0,0
1490,-248.0,-9.0,52.0,0
1491,-241.0,-9.0,51.0,0
1492,-244.0,-7.0,52.0,0
1493,-245.0,-9.0,52.0,0
1494,-245.0,-9.0,52.0,0
1495,-242.0,-15.0,53.0,0
1496,-242.0,-13.0,52.0,0
1497,-242.0,-12.0,48.0,0
1498,-245.0,-12.0,49.0,0
1499,-244.0,-12.0,49.0,0
1500,-246.0,-10.0,50.0,0
1501,-240.0,-14.0,52.0,0
1502,-245.0,-13.0,51.0,0
1503,-246.0,-7.0,48.0,0
1504,-245.0,-8.0,50.0,0
1505,-244.0,-12.0,45.0,0
1506,-248.0,-8.0,48.0,0
1507,-247.0,-11.0,49.0,0
1508,-244.0,-10.0,50.0,0
1509,-246.0,-9.0,50.0,0
1510,-244.0,-9.0,49.0,0
1511,-244.0,-13.0,47.0,0
1512,-246.0,-11.0,46.0,0
1513,-248.0,-9.0,46.0,0
1514,-251.0,-13.0,48.0,0
1515,-249.0,-8.0,47.0,0
1516,-250.0,-13.0,45.0,0
1517,-250.0,-11.0,41.0,0
1518,-249.0,-13.0,48.0,0
1519,-247.0,-12.0,46.0,0
1520,-246.0,-16.0,48.0,0
1521,-243.0,-12.0,53.0,0
1522,-245.0,-17.0,48.0,0
1523,-242.0,-13.0,52.0,0
1524,-243.0,-12.0,49.0,0
1525,-243.0,-10.0,50.0,0
1526,-242.0,-14.0,53.0,0
1527,-242.0,-11.0,49.0,0
1528,-242.0,-11.0,49.0,0
1529,-242.0,-12.0,50.0,0
1530,-242.0,-13.0,50.0,0
1531,-243.0,-12.0,52.0,0
1532,-244.0,-13.0,53.0,0
1533,-244.0,-15.0,54.0,0
1534,-245.0,-15.0,52.0,0
1535,-242.0,-17.0,49.0,0
1536,-243.0,-13.0,50.0,0
1537,-247.0,-13.0,45.0,0
1538,-247.0,-11.0,46.0,0
1539,-245.0,-12.0,47.0,0
1540,-244.0,-12.0,39.0,0
1541,-243.0,-13.0,42.0,0
1542,-245.0,-10.0,46.0,0
1543,-245.0,-9.0,44.0,0
1544,-245.0,-11.0,45.0,0
1545,-245.0,-8.0,45.0,0
1546,-246.0,-12.0,45.0,0
1547,-244.0,-11.0,44.0,0
1548,-245.0,-9.0,47.0,0
1549,-248.0,-8.0,47.0,0
1550,-248.0,-9.0,48.0,0
1551,-249.0,-11.0,47.0,0
1552,-249.0,-9.0,48.0,0
1553,-247.0,-13.0,48.0,0
1554,-245.0,-9.0,47.0,0
1555,-248.0,-7.0,47.0,0
1556,-247.0,-9.0,54.0,0
1557,-246.0,-13.0,46.0,0
1558,-244.0,-10.0,50.0,0
1559,-245.0,-13.0,44.0,0
1560,-248.0,-11.0,49.0,0
1561,-247.0,-11.0,46.0,0
1562,-248.0,-8.0,48.0,0
1563,-245.0,-18.0,40.0,0
1564,-250.0,-7.0,51.0,0
1565,-248.0,-10.0,48.0,0
1566,-244.0,-11.0,44.0,0
1567,-246.0,-9.0,47.0,0
1568,-245.0,-12.0,48.0,0
1569,-250.0,-10.0,46.0,0
1570,-245.0,-11.0,46.0,0
1571,-247.0,-11.0,45.0,0
1572,-246.0,-15.0,46.0,0
1573,-244.0,-16.0,49.0,0
1574,-247.0,-12.0,46.0,0
1575,-245.0,-15.0,50.0,0
1576,-247.0,-14.0,46.0,0
1577,-249.0,-15.0,46.0,0
1578,-252.0,-10.0,45.0,0
1579,-248.0,-13.0,46.0,0
1580,-248.0,-14.0,43.0,0
1581,-248.0,-11.0,46.0,0
1582,-249.0,-10.0,46.0,0
1583,-242.0,-11.0,46.0,0
1584,-245.0,-11.0,48.0,0
1585,-247.0,-10.0,48.0,0
1586,-247.0,-13.0,49.0,0
1587,-244.0,-9.0,51.0,0
1588,-243.0,-11.0,46.0,0
1589,-247.0,-12.0,44.0,0
1590,-246.0,-14.0,44.0,0
1591,-247.0,-13.0,47.0,0
1592,-244.0,-14.0,49.0,0
1593,-246.0,-23.0,42.0,0
1594,-244.0,-16.0,43.0,0
1595,-245.0,-14.0,49.0,0
1596,-249.0,-14.0,45.0,0
1597,-245.0,-16.0,48.0,0
1598,-250.0,-14.0,41.0,0
1599,-247.0,-14.0,50.0,0
1600,-244.0,-13.0,44.0,0
1601,-246.0,-16.0,44.0,0
1602,-245.0,-8.0,48.0,0
1603,-249.0,-12.0,45.0,0
1604,-239.0,-2.0,34.0,0
1605,-246.0,-12.0,44.0,0
1606,-248.0,-10.0,49.0,0
1607,-248.0,-11.0,43.0,0
1608,-245.0,-14.0,43.0,0
1609,-248.0,-14.0,42.0,0
1610,-246.0,-16.0,44.0,0
1611,-249.0,-13.0,41.0,0
1612,-245.0,-16.0,40.0,0
1613,-243.0,-12.0,40.0,0
1614,-245.0,-14.0,44.0,0
1615,-254.0,-16.0,42.0,0
1616,-247.0,-13.0,43.0,0
1617,-247.0,-14.0,43.0,0
1618,-247.0,-13.0,45.0,0
1619,-246.0,-15.0,44.0,0
1620,-245.0,-13.0,42.0,0
1621,-246.0,-11.0,44.0,0
1622,-247.0,-13.0,43.0,0
1623,-246.0,-12.0,43.0,0
1624,-246.0,-12.0,49.0,0
1625,-265.0,-19.0,49.0,0
1626,-251.0,-12.0,46.0,0
1627,-251.0,-13.0,42.0,0
1628,-249.0,-16.0,41.0,0
1629,-249.0,-13.0,42.0,0
1630,-248.0,-16.0,35.0,0
1631,-248.0,-16.0,40.0,0
1632,-252.0,-12.0,39.0,0
1633,-250.0,-12.0,36.0,0
1634,-250.0,-12.0,34.0,0
1635,-250.0,-11.0,37.0,0
1636,-249.0,-14.0,37.0,0
1637,-253.0,-10.0,38.0,0
1638,-252.0,-10.0,36.0,0
1639,-253.0,-11.0,34.0,0
1640,-257.0,-11.0,37.0,0
1641,-252.0,-12.0,37.0,0
1642,-256.0,-11.0,43.0,0
1643,-254.0,-11.0,40.0,0
1644,-254.0,-11.0,39.0,0
1645,-250.0,-13.0,41.0,0
1646,-251.0,-15.0,45.0,0
1647,-252.0,-15.0,44.0,0
1648,-253.0,-16.0,43.0,0
1649,-251.0,-14.0,42.0,0
1650,-252.0,-18.0,45.0,0
1651,-250.0,-19.0,47.0,0
1652,-246.0,-19.0,44.0,0
1653,-248.0,-19.0,48.0,0
1654,-251.0,-18.0,43.0,0
1655,-249.0,-16.0,46.0,0
1656,-247.0,-17.0,48.0,0
1657,-246.0,-16.0,47.0,0
1658,-248.0,-16.0,47.0,0
1659,-246.0,-14.0,43.0,0
1660,-243.0,-18.0,44.0,0
1661,-246.0,-16.0,50.0,0
1662,-247.0,-15.0,40.0,0
1663,-246.0,-19.0,45.0,0
1664,-249.0,-21.0,44.0,0
1665,-242.0,-21.0,41.0,0
1666,-245.0,-17.0,42.0,0
1667,-248.0,-19.0,43.0,0
1668,-248.0,-18.0,49.0,0
1669,-251.0,-14.0,46.0,0
1670,-249.0,-14.0,45.0,0
1671,-250.0,-13.0,48.0,0
1672,-247.0,-16.0,48.0,0
1673,-250.0,-15.0,50.0,0
1674,-248.0,-13.0,49.0,0
1675,-250.0,-12.0,51.0,0
1676,-243.0,-18.0,48.0,0
1677,-249.0,-15.0,56.0,0
1678,-244.0,-17.0,49.0,0
1679,-245.0,-14.0,48.0,0
1680,-246.0,-13.0,51.0,0
1681,-243.0,-15.0,54.0,0
1682,-244.0,-15.0,50.0,0
1683,-244.0,-15.0,53.0,0
1684,-241.0,-20.0,51.0,0
1685,-239.0,-16.0,54.0,0
1686,-236.0,-18.0,55.0,0
1687,-239.0,-19.0,55.0,0
1688,-242.0,-17.0,58.0,0
1689,-242.0,-19.0,55.0,0
1690,-244.0,-18.0,54.0,0
1691,-240.0,-21.0,57.0,0
1692,-240.0,-19.0,56.0,0
1693,-239.0,-23.0,55.0,0
1694,-239.0,-18.0,56.0,0
1695,-239.0,-18.0,55.0,0
1696,-240.0,-18.0,57.0,0
1697,-241.0,-18.0,60.0,0
1698,-240.0,-19.0,56.0,0
1699,-242.0,-16.0,59.0,0
1700,-240.0,-18.0,62.0,0
1701,-243.0,-14.0,63.0,0
1702,-240.0,-19.0,61.0,0
1703,-247.0,-16.0,66.0,0
1704,-241.0,-21.0,63.0,0
1705,-239.0,-23.0,60.0,0
1706,-242.0,-25.0,63.0,0
1707,-244.0,-24.0,64.0,0
1708,-246.0,-22.0,65.0,0
1709,-245.0,-24.0,68.0,0
1710,-244.0,-22.0,63.0,0
1711,-248.0,-21.0,67.0,0
1712,-255.0,-29.0,60.0,0
1713,-232.0,-18.0,69.0,0
1714,-240.0,-18.0,70.0,0
1715,-242.0,-20.0,68.0,0
1716,-240.0,-19.0,67.0,0
1717,-239.0,-21.0,65.0,0
1718,-238.0,-21.0,64.0,0
1719,-231.0,-25.0,68.0,0
1720,-233.0,-25.0,67.0,0
1721,-232.0,-26.0,67.0,0
1722,-233.0,-24.0,69.0,0
1723,-236.0,-22.0,68.0,0
1724,-236.0,-23.0,64.0,0
1725,-243.0,-26.0,68.0,0
1726,-215.0,-23.0,71.0,0
1727,-225.0,-20.0,68.0,0
1728,-230.0,-22.0,70.0,0
1729,-234.0,-21.0,72.0,0
1730,-234.0,-20.0,74.0,0
1731,-231.0,-24.0,71.0,0
1732,-233.0,-24.0,72.0,0
1733,-230.0,-19.0,74.0,0
1734,-233.0,-24.0,75.0,0
1735,-230.0,-23.0,74.0,0
1736,-235.0,-20.0,76.0,0
1737,-234.0,-24.0,80.0,0
1738,-234.0,-20.0,75.0,0
1739,-233.0,-21.0,80.0,0
1740,-231.0,-19.0,78.0,0
1741,-229.0,-20.0,84.0,0
1742,-269.0,-24.0,70.0,0
1743,-229.0,-21.0,84.0,0
1744,-208.0,-20.0,86.0,0
1745,-220.0,-21.0,85.0,0
1746,-220.0,-23.0,84.0,0
1747,-216.0,-26.0,82.0,0
1748,-220.0,-27.0,86.0,0
1749,-219.0,-27.0,84.0,0
1750,-218.0,-26.0,88.0,0
1751,-214.0,-26.0,90.0,0
1752,-217.0,-28.0,87.0,0
1753,-214.0,-24.0,88.0,0
1754,-214.0,-23.0,95.0,0
1755,-219.0,-27.0,96.0,0
1756,-254.0,-27.0,85.0,0
1757,-227.0,-31.0,94.0,0
1758,-203.0,-26.0,99.0,0
1759,-199.0,-25.0,102.0,0
1760,-212.0,-23.0,99.0,0
1761,-214.0,-25.0,102.0,0
1762,-215.0,-29.0,99.0,0
1763,-217.0,-29.0,101.0,0
1764,-219.0,-29.0,103.0,0
1765,-216.0,-26.0,104.0,0
1766,-218.0,-24.0,106.0,0
1767,-218.0,-20.0,106.0,0
1768,-219.0,-24.0,110.0,0
1769,-262.0,-24.0,103.0,0
1770,-222.0,-28.0,115.0,0
1771,-204.0,-29.0,110.0,0
1772,-205.0,-25.0,114.0,0
1773,-209.0,-26.0,116.0,0
1774,-210.0,-30.0,113.0,0
1775,-211.0,-29.0,113.0,0
1776,-205.0,-23.0,114.0,0
1777,-209.0,-29.0,107.0,0
1778,-239.0,-26.0,113.0,0
1779,-210.0,-29.0,121.0,0
1780,-187.0,-28.0,117.0,0
1781,-177.0,-30.0,119.0,0
1782,-200.0,-27.0,120.0,0
1783,-201.0,-37.0,125.0,0
1784,-190.0,-34.0,117.0,0
1785,-241.0,-37.0,105.0,0
1786,-212.0,-45.0,121.0,0
1787,-203.0,-42.0,121.0,0
1788,-185.0,-27.0,123.0,0
1789,-174.0,-34.0,127.0,0
1790,-178.0,-37.0,124.0,0
1791,-179.0,-37.0,133.0,0
1792,-179.0,-30.0,131.0,0
1793,-196.0,-38.0,135.0,0
1794,-239.0,-33.0,139.0,0
1795,-211.0,-42.0,139.0,0
1796,-191.0,-32.0,139.0,0
1797,-182.0,-36.0,142.0,0
1798,-176.0,-33.0,139.0,0
1799,-183.0,-37.0,136.0,0
1800,-180.0,-38.0,140.0,0
1801,-179.0,-42.0,140.0,0
1802,-185.0,-37.0,138.0,0
1803,-181.0,-40.0,132.0,0
1804,-178.0,-41.0,134.0,0
1805,-187.0,-30.0,133.0,0
1806,-164.0,-28.0,130.0,0
1807,-165.0,-36.0,130.0,0
1808,-195.0,-30.0,129.0,0
1809,-198.0,-33.0,133.0,0
1810,-193.0,-35.0,138.0,0
1811,-183.0,-36.0,145.0,0
1812,-172.0,-39.0,149.0,0
1813,-181.0,-40.0,151.0,0
1814,-178.0,-46.0,162.0,0
1815,-179.0,-42.0,164.0,0
1816,-153.0,-29.0,170.0,0
1817,-154.0,-46.0,161.0,0
1818,-144.0,-49.0,171.0,0
1819,-195.0,-31.0,169.0,0
1820,-187.0,-39.0,174.0,0
1821,-178.0,-40.0,181.0,0
1822,-188.0,-35.0,175.0,0
1823,-135.0,-14.0,190.0,0
1824,-141.0,-33.0,182.0,0
1825,-140.0,-27.0,194.0,0
1826,-194.0,-18.0,175.0,0
1827,-182.0,-26.0,187.0,0
1828,-175.0,-27.0,178.0,0
1829,-167.0,-34.0,170.0,0
1830,-177.0,-40.0,166.0,0
1831,-161.0,-33.0,166.0,0
1832,-191.0,-32.0,143.0,0
1833,-152.0,-23.0,154.0,0
1834,-149.0,-27.0,140.0,0
1835,-145.0,-35.0,137.0,0
1836,-142.0,-25.0,144.0,0
1837,-166.0,-12.0,131.0,0
1838,-130.0,-8.0,137.0,0
1839,-115.0,-20.0,134.0,0
1840,-142.0,-19.0,143.0,0
1841,-128.0,-16.0,145.0,0
1842,-119.0,-13.0,140.0,0
1843,-114.0,-14.0,147.0,0
1844,-130.0,-19.0,155.0,0
1845,-126.0,-19.0,165.0,0
1846,-123.0,-17.0,169.0,0
1847,-114.0,-14.0,175.0,0
1848,-117.0,-18.0,179.0,0
1849,-115.0,-23.0,183.0,0
1850,-113.0,-28.0,191.0,0
1851,-110.0,-34.0,189.0,0
1852,-110.0,-36.0,193.0,0
1853,-108.0,-38.0,198.0,0
1854,-106.0,-50.0,202.0,0
1855,-100.0,-38.0,195.0,0
1856,-101.0,-36.0,196.0,0
1857,-93.0,-37.0,194.0,0
1858,-91.0,-33.0,196.0,0
1859,-83.0,-32.0,195.0,0
1860,-84.0,-33.0,197.0,0
1861,-81.0,-30.0,199.0,0
1862,-81.0,-31.0,197.0,0
1863,-81.0,-30.0,199.0,0
1864,-83.0,-28.0,201.0,0
1865,-85.0,-32.0,203.0,0
1866,-78.0,-31.0,206.0,0
1867,-80.0,-31.0,202.0,0
1868,-80.0,-35.0,204.0,0
1869,-79.0,-34.0,201.0,0
1870,-78.0,-35.0,201.0,0
1871,-75.0,-41.0,197.0,0
1872,-73.0,-40.0,194.0,0
1873,-75.0,-40.0,194.0,0
1874,-79.0,-42.0,196.0,0
1875,-70.0,-39.0,191.0,0
1876,-68.0,-42.0,192.0,0
1877,-80.0,-32.0,188.0,0
1878,-80.0,-30.0,187.0,0
1879,-81.0,-27.0,185.0,0
1880,-85.0,-22.0,187.0,0
1881,-81.0,-21.0,188.0,0
1882,-84.0,-21.0,190.0,0
1883,-83.0,-18.0,190.0,0
1884,-81.0,-16.0,195.0,0
1885,-76.0,-21.0,195.0,0
1886,-69.0,-28.0,214.0,0
1887,-75.0,-24.0,194.0,0
1888,-80.0,-27.0,202.0,0
1889,-65.0,-28.0,203.0,0
1890,-60.0,-26.0,203.0,0
1891,-60.0,-27.0,204.0,0
1892,-59.0,-30.0,204.0,0
1893,-73.0,-29.0,200.0,0
1894,-53.0,-28.0,209.0,0
1895,-46.0,-26.0,206.0,0
1896,-56.0,-27.0,207.0,0
1897,-56.0,-29.0,211.0,0
1898,-54.0,-28.0,208.0,0
1899,-53.0,-33.0,211.0,0
1900,-62.0,-30.0,210.0,0
1901,-51.0,-29.0,208.0,0
1902,-35.0,-30.0,205.0,0
1903,-40.0,-26.0,206.0,0
1904,-45.0,-25.0,205.0,0
1905,-45.0,-27.0,205.0,0
1906,-69.0,-27.0,200.0,0
1907,-41.0,-24.0,211.0,0
1908,-27.0,-19.0,215.0,0
1909,-27.0,-23.0,214.0,0
1910,-33.0,-21.0,218.0,0
1911,-49.0,-21.0,211.0,0
1912,-36.0,-20.0,225.0,0
1913,-23.0,-19.0,227.0,0
1914,-34.0,-18.0,223.0,0
1915,-27.0,-22.0,231.0,0
1916,-50.0,-27.0,221.0,0
1917,-26.0,-33.0,230.0,0
1918,-15.0,-31.0,236.0,0
1919,-19.0,-28.0,235.0,0
1920,-16.0,-29.0,230.0,0
1921,-36.0,-25.0,227.0,0
1922,-15.0,-34.0,225.0,0
1923,-21.0,-30.0,220.0,0
1924,-4.0,-25.0,228.0,0
1925,7.0,-20.0,228.0,0
1926,0.0,-21.0,228.0,0
1927,0.0,-20.0,223.0,0
1928,4.0,-24.0,212.0,0
1929,0.0,-30.0,215.0,0
1930,-2.0,-32.0,218.0,0
1931,0.0,-37.0,213.0,0
1932,-1.0,-30.0,217.0,0
1933,4.0,-26.0,216.0,0
1934,-3.0,-15.0,214.0,0
1935,5.0,-16.0,212.0,0
1936,6.0,-25.0,215.0,0
1937,-3.0,-27.0,212.0,0
1938,-8.0,-33.0,218.0,0
1939,-11.0,-34.0,214.0,0
1940,-13.0,-28.0,214.0,0
1941,-8.0,-26.0,211.0,0
1942,-9.0,-20.0,213.0,0
1943,-6.0,-18.0,214.0,0
1944,-4.0,-15.0,211.0,0
1945,-6.0,-21.0,205.0,0
1946,-7.0,-16.0,212.0,0
1947,-9.0,-20.0,214.0,0
1948,-6.0,-23.0,213.0,0
1949,-8.0,-21.0,215.0,0
1950,-8.0,-16.0,214.0,0
1951,-4.0,-20.0,213.0,0
1952,-4.0,-25.0,211.0,0
1953,0.0,-31.0,215.0,0
1954,5.0,-43.0,215.0,0
1955,-5.0,-35.0,223.0,0
1956,-5.0,-34.0,226.0,0
1957,-3.0,-37.0,225.0,0
1958,-1.0,-35.0,218.0,0
1959,-1.0,-33.0,217.0,0
1960,-1.0,-28.0,217.0,0
1961,0.0,-25.0,216.0,0
1962,1.0,-29.0,211.0,0
1963,-1.0,-30.0,216.0,0
1964,0.0,-28.0,216.0,0
1965,-2.0,-26.0,213.0,0
1966,1.0,-28.0,212.0,0
1967,-3.0,-27.0,210.0,0
1968,-2.0,-29.0,210.0,0
1969,-1.0,-32.0,211.0,0
1970,1.0,-34.0,208.0,0
1971,1.0,-33.0,205.0,0
1972,2.0,-34.0,205.0,0
1973,0.0,-37.0,206.0,0
1974,2.0,-35.0,203.0,0
1975,2.0,-33.0,205.0,0
1976,5.0,-33.0,207.0,0
1977,2.0,-32.0,207.0,0
1978,3.0,-38.0,210.0,0
1979,2.0,-34.0,207.0,0
1980,-3.0,-35.0,207.0,0
1981,0.0,-37.0,211.0,0
1982,0.0,-39.0,212.0,0
1983,0.0,-40.0,216.0,0
1984,1.0,-38.0,220.0,0
1985,-2.0,-34.0,221.0,0
1986,-2.0,-35.0,220.0,0
1987,-2.0,-29.0,224.0,0
1988,0.0,-30.0,226.0,0
1989,-4.0,-25.0,224.0,0
1990,-7.0,-20.0,221.0,0
1991,-7.0,-19.0,218.0,0
1992,-6.0,-17.0,223.0,0
1993,-9.0,-19.0,217.0,0
1994,-12.0,-20.0,221.0,0
1995,-13.0,-25.0,213.0,0
1996,-14.0,-28.0,214.0,0
1997,-5.0,-33.0,211.0,0
1998,-16.0,-30.0,211.0,0
1999,-24.0,-32.0,218.0,0
2000,-17.0,-41.0,211.0,0
2001,-7.0,-48.0,208.0,0
2002,-9.0,-47.0,207.0,0
2003,-17.0,-42.0,210.0,0
2004,-10.0,-41.0,207.0,0
2005,-15.0,-38.0,206.0,0
2006,-20.0,-35.0,210.0,0
2007,-16.0,-32.0,209.0,0
2008,-16.0,-34.0,214.0,0
2009,-16.0,-37.0,213.0,0
2010,-19.0,-34.0,210.0,0
2011,-6.0,-38.0,217.0,0
2012,-26.0,-33.0,215.0,0
2013,-16.0,-42.0,216.0,0
2014,-13.0,-37.0,213.0,0
2015,-11.0,-41.0,213.0,0
2016,-11.0,-45.0,216.0,0
2017,-9.0,-46.0,217.0,0
2018,-8.0,-46.0,219.0,0
2019,-6.0,-45.0,213.0,0
2020,-7.0,-44.0,212.0,0
2021,-3.0,-40.0,208.0,0
2022,0.0,-33.0,207.0,0
2023,1.0,-30.0,209.0,0
2024,3.0,-24.0,209.0,0
2025,15.0,-28.0,207.0,0
2026,8.0,-21.0,210.0,0
2027,-5.0,-20.0,214.0,0
2028,1.0,-23.0,215.0,0
2029,7.0,-25.0,214.0,0
2030,11.0,-30.0,215.0,0
2031,15.0,-26.0,215.0,0
2032,28.0,-34.0,214.0,0
2033,28.0,-35.0,215.0,0
2034,18.0,-33.0,213.0,0
2035,24.0,-37.0,218.0,0
2036,27.0,-38.0,216.0,0
2037,18.0,-36.0,215.0,0
2038,17.0,-32.0,217.0,0
2039,20.0,-28.0,216.0,0
2040,21.0,-26.0,217.0,0
2041,16.0,-23.0,214.0,0
2042,25.0,-24.0,214.0,0
2043,16.0,-27.0,210.0,0
2044,14.0,-16.0,217.0,0
2045,22.0,-14.0,216.0,0
2046,22.0,-14.0,216.0,0
2047,21.0,-15.0,211.0,0
2048,25.0,-21.0,216.0,0
2049,27.0,-30.0,213.0,0
2050,28.0,-39.0,219.0,0
2051,19.0,-41.0,216.0,0
2052,25.0,-28.0,225.0,0
2053,34.0,-32.0,216.0,0
2054,21.0,-22.0,217.0,0
2055,31.0,-30.0,219.0,0
2056,26.0,-28.0,218.0,0
2057,24.0,-28.0,216.0,0
2058,35.0,-35.0,214.0,0
2059,33.0,-30.0,217.0,0
2060,28.0,-28.0,210.0,0
2061,26.0,-23.0,214.0,0
2062,19.0,-23.0,214.0,0
2063,28.0,-28.0,221.0,0
2064,25.0,-24.0,211.0,0
2065,36.0,-25.0,214.0,0
2066,29.0,-22.0,207.0,0
2067,26.0,-18.0,209.0,0
2068,35.0,-26.0,200.0,0
2069,42.0,-37.0,208.0,0
2070,40.0,-40.0,207.0,0
2071,37.0,-41.0,208.0,0
2072,31.0,-35.0,207.0,0
2073,35.0,-39.0,200.0,0
2074,39.0,-41.0,208.0,0
2075,40.0,-31.0,203.0,0
2076,41.0,-28.0,206.0,0
2077,47.0,-30.0,209.0,0
2078,49.0,-28.0,213.0,0
2079,46.0,-27.0,212.0,0
2080,48.0,-26.0,210.0,0
2081,54.0,-37.0,212.0,0
2082,53.0,-28.0,216.0,0
2083,54.0,-29.0,211.0,0
2084,53.0,-32.0,211.0,0
2085,53.0,-33.0,207.0,0
2086,56.0,-33.0,214.0,0
2087,61.0,-36.0,209.0,0
2088,67.0,-35.0,213.0,0
2089,66.0,-34.0,211.0,0
2090,69.0,-40.0,211.0,0
2091,67.0,-49.0,205.0,0
2092,71.0,-57.0,209.0,0
2093,67.0,-62.0,209.0,0
2094,66.0,-53.0,212.0,0
2095,60.0,-48.0,208.0,0
2096,57.0,-43.0,203.0,0
2097,57.0,-40.0,205.0,0
2098,55.0,-32.0,201.0,0
2099,57.0,-30.0,203.0,0
2100,61.0,-26.0,196.0,0
2101,66.0,-34.0,197.0,0
2102,69.0,-45.0,202.0,0
2103,63.0,-49.0,207.0,0
2104,55.0,-51.0,208.0,0
2105,51.0,-40.0,207.0,0
2106,54.0,-36.0,207.0,0
2107,53.0,-33.0,209.0,0
2108,53.0,-36.0,207.0,0
2109,48.0,-36.0,211.0,0
2110,46.0,-42.0,212.0,0
2111,48.0,-37.0,218.0,0
2112,45.0,-40.0,211.0,0
2113,45.0,-41.0,210.0,0
2114,40.0,-39.0,209.0,0
2115,41.0,-37.0,216.0,0
2116,42.0,-38.0,208.0,0
2117,38.0,-32.0,211.0,0
2118,40.0,-37.0,211.0,0
2119,41.0,-39.0,216.0,0
2120,41.0,-34.0,213.0,0
2121,38.0,-36.0,219.0,0
2122,38.0,-36.0,215.0,0
2123,37.0,-43.0,219.0,0
2124,36.0,-41.0,214.0,0
2125,31.0,-45.0,218.0,0
2126,32.0,-46.0,221.0,0
2127,30.0,-33.0,217.0,0
2128,28.0,-36.0,214.0,0
2129,24.0,-32.0,209.0,0
2130,26.0,-28.0,210.0,0
2131,29.0,-25.0,213.0,0
2132,30.0,-21.0,213.0,0
2133,29.0,-9.0,210.0,0
2134,30.0,-14.0,201.0,0
2135,40.0,-39.0,204.0,0
2136,35.0,-45.0,219.0,0
2137,20.0,-50.0,227.0,0
2138,21.0,-45.0,217.0,0
2139,18.0,-34.0,216.0,0
2140,19.0,-29.0,216.0,0
2141,23.0,-30.0,214.0,0
2142,27.0,-30.0,215.0,0
2143,23.0,-30.0,218.0,0
2144,29.0,-34.0,212.0,0
2145,29.0,-37.0,203.0,0
2146,29.0,-42.0,207.0,0
2147,29.0,-46.0,204.0,0
2148,27.0,-57.0,218.0,0
2149,29.0,-52.0,202.0,0
2150,33.0,-51.0,201.0,0
2151,31.0,-48.0,212.0,0
2152,32.0,-48.0,205.0,0
2153,33.0,-48.0,208.0,0
2154,32.0,-48.0,210.0,0
2155,33.0,-46.0,210.0,0
2156,27.0,-43.0,208.0,0
2157,26.0,-43.0,213.0,0
2158,27.0,-39.0,208.0,0
2159,21.0,-38.0,212.0,0
2160,19.0,-38.0,215.0,0
2161,15.0,-35.0,217.0,0
2162,13.0,-31.0,216.0,0
2163,8.0,-31.0,217.0,0
2164,7.0,-30.0,220.0,0
2165,3.0,-28.0,219.0,0
2166,0.0,-29.0,221.0,0
2167,-2.0,-27.0,219.0,0
2168,-1.0,-30.0,222.0,0
2169,-7.0,-27.0,219.0,0
2170,0.0,-25.0,222.0,0
2171,2.0,-14.0,221.0,0
2172,14.0,-9.0,213.0,0
2173,20.0,-9.0,206.0,0
2174,18.0,-44.0,209.0,0
2175,18.0,-66.0,222.0,0
2176,-2.0,-58.0,225.0,0
2177,-15.0,-45.0,221.0,0
2178,-12.0,-30.0,213.0,0
2179,-3.0,-21.0,218.0,0
2180,9.0,-18.0,213.0,0
2181,14.0,-13.0,209.0,0
2182,18.0,-20.0,214.0,0
2183,24.0,-28.0,216.0,0
2184,21.0,-31.0,211.0,0
2185,25.0,-35.0,209.0,0
2186,26.0,-44.0,209.0,0
2187,29.0,-46.0,214.0,0
2188,27.0,-47.0,214.0,0
2189,28.0,-44.0,216.0,0
2190,29.0,-43.0,216.0,0
2191,27.0,-44.0,216.0,0
2192,31.0,-36.0,209.0,0
2193,33.0,-35.0,210.0,0
2194,32.0,-38.0,207.0,0
2195,35.0,-38.0,209.0,0
2196,33.0,-36.0,210.0,0
2197,36.0,-39.0,208.0,0
2198,36.0,-39.0,207.0,0
2199,33.0,-36.0,210.0,0
2200,33.0,-40.0,211.0,0
2201,30.0,-37.0,211.0,0
2202,31.0,-39.0,211.0,0
2203,29.0,-37.0,213.0,0
2204,27.0,-37.0,213.0,0
2205,24.0,-33.0,213.0,0
2206,27.0,-32.0,212.0,0
2207,24.0,-33.0,212.0,0
2208,19.0,-33.0,214.0,0
2209,21.0,-36.0,214.0,0
2210,23.0,-36.0,210.0,0
2211,21.0,-38.0,216.0,0
2212,16.0,-36.0,216.0,0
2213,17.0,-34.0,213.0,0
2214,19.0,-35.0,215.0,0
2215,17.0,-36.0,211.0,0
2216,17.0,-36.0,214.0,0
2217,16.0,-36.0,214.0,0
2218,14.0,-35.0,215.0,0
2219,18.0,-36.0,215.0,0
2220,19.0,-35.0,214.0,0
2221,18.0,-35.0,217.0,0
2222,16.0,-36.0,214.0,0
2223,18.0,-36.0,211.0,0
2224,21.0,-37.0,214.0,0
2225,24.0,-39.0,214.0,0
2226,21.0,-33.0,214.0,0
2227,21.0,-34.0,216.0,0
2228,22.0,-33.0,209.0,0
2229,23.0,-34.0,208.0,0
2230,27.0,-37.0,211.0,0
2231,30.0,-24.0,208.0,0
2232,32.0,-29.0,203.0,0
2233,31.0,-47.0,204.0,0
2234,22.0,-58.0,215.0,0
2235,14.0,-50.0,215.0,0
2236,15.0,-43.0,214.0,0
2237,17.0,-31.0,216.0,0
2238,21.0,-29.0,217.0,0
2239,27.0,-27.0,207.0,0
2240,28.0,-28.0,214.0,0
2241,30.0,-29.0,212.0,0
2242,28.0,-37.0,213.0,0
2243,28.0,-40.0,215.0,0
2244,28.0,-44.0,209.0,0
2245,27.0,-42.0,213.0,0
2246,30.0,-42.0,213.0,0
2247,29.0,-40.0,211.0,0
2248,29.0,-38.0,210.0,0
2249,29.0,-39.0,211.0,0
2250,31.0,-34.0,213.0,0
2251,31.0,-29.0,211.0,0
2252,32.0,-32.0,208.0,0
2253,32.0,-32.0,210.0,0
2254,32.0,-30.0,213.0,0
2255,29.0,-32.0,211.0,0
2256,29.0,-33.0,210.0,0
2257,29.0,-30.0,209.0,0
2258,31.0,-31.0,208.0,0
2259,28.0,-31.0,210.0,0
2260,30.0,-29.0,210.0,0
2261,26.0,-28.0,211.0,0
2262,28.0,-31.0,212.0,0
2263,33.0,-32.0,209.0,0
2264,26.0,-27.0,209.0,0
2265,29.0,-22.0,221.0,0
2266,25.0,-35.0,217.0,0
2267,26.0,-28.0,212.0,0
2268,26.0,-30.0,211.0,0
2269,29.0,-32.0,210.0,0
2270,26.0,-28.0,212.0,0
2271,27.0,-31.0,211.0,0
2272,26.0,-30.0,212.0,0
2273,22.0,-26.0,212.0,0
2274,21.0,-28.0,213.0,0
2275,23.0,-29.0,215.0,0
2276,21.0,-28.0,214.0,0
2277,24.0,-28.0,217.0,0
2278,24.0,-29.0,219.0,0
2279,20.0,-29.0,217.0,0
2280,22.0,-30.0,216.0,0
2281,26.0,-28.0,215.0,0
2282,20.0,-30.0,215.0,0
2283,21.0,-29.0,221.0,0
2284,20.0,-30.0,216.0,0
2285,25.0,-33.0,216.0,0
2286,20.0,-30.0,213.0,0
2287,21.0,-30.0,216.0,0
2288,25.0,-26.0,216.0,0
2289,25.0,-21.0,214.0,0
2290,29.0,-21.0,211.0,0
2291,30.0,-26.0,208.0,0
2292,23.0,-36.0,209.0,0
2293,18.0,-50.0,219.0,0
2294,7.0,-42.0,215.0,0
2295,9.0,-35.0,218.0,0
2296,14.0,-31.0,215.0,0
2297,18.0,-26.0,216.0,0
2298,19.0,-19.0,212.0,0
2299,20.0,-21.0,212.0,0
2300,18.0,-23.0,209.0,0
2301,21.0,-24.0,209.0,0
2302,18.0,-26.0,211.0,0
2303,20.0,-29.0,213.0,0
2304,20.0,-31.0,209.0,0
2305,20.0,-32.0,213.0,0
2306,19.0,-34.0,207.0,0
2307,22.0,-35.0,215.0,0
2308,18.0,-30.0,210.0,0
2309,20.0,-31.0,212.0,0
2310,18.0,-28.0,214.0,0
2311,19.0,-27.0,212.0,0
2312,19.0,-26.0,211.0,0
2313,17.0,-28.0,213.0,0
2314,19.0,-25.0,213.0,0
2315,18.0,-25.0,211.0,0
2316,22.0,-28.0,214.0,0
2317,20.0,-27.0,214.0,0
2318,21.0,-28.0,214.0,0
2319,21.0,-26.0,215.0,0
2320,21.0,-26.0,218.0,0
2321,18.0,-26.0,222.0,0
2322,18.0,-25.0,222.0,0
2323,19.0,-26.0,218.0,0
2324,18.0,-24.0,218.0,0
2325,21.0,-29.0,214.0,0
2326,20.0,-27.0,212.0,0
2327,21.0,-28.0,211.0,0
2328,20.0,-29.0,212.0,0
2329,17.0,-30.0,211.0,0
2330,18.0,-27.0,211.0,0
2331,21.0,-31.0,208.0,0
2332,19.0,-27.0,209.0,0
2333,20.0,-25.0,208.0,0
2334,21.0,-23.0,213.0,0
2335,24.0,-25.0,213.0,0
2336,21.0,-21.0,214.0,0
2337,20.0,-24.0,213.0,0
2338,21.0,-23.0,213.0,0
2339,18.0,-18.0,210.0,0
2340,22.0,-19.0,221.0,0
2341,18.0,-19.0,214.0,0
2342,23.0,-19.0,211.0,0
2343,20.0,-20.0,216.0,0
2344,20.0,-19.0,213.0,0
2345,19.0,-20.0,213.0,0
2346,21.0,-21.0,216.0,0
2347,21.0,-20.0,213.0,0
2348,20.0,-18.0,220.0,0
2349,23.0,-20.0,216.0,0
2350,18.0,-20.0,218.0,0
2351,22.0,-21.0,218.0,0
2352,21.0,-21.0,215.0,0
2353,19.0,-19.0,218.0,0
2354,19.0,-17.0,215.0,0
2355,19.0,-23.0,213.0,0
2356,20.0,-19.0,215.0,0
2357,19.0,-23.0,215.0,0
2358,20.0,-26.0,217.0,0
2359,21.0,-23.0,220.0,0
2360,22.0,-24.0,216.0,0
2361,19.0,-21.0,219.0,0
2362,19.0,-21.0,215.0,0
2363,22.0,-23.0,216.0,0
2364,23.0,-20.0,213.0,0
2365,20.0,-23.0,215.0,0
2366,21.0,-19.0,218.0,0
2367,21.0,-20.0,213.0,0
2368,21.0,-21.0,217.0,0
2369,21.0,-21.0,209.0,0
2370,22.0,-19.0,213.0,0
2371,20.0,-20.0,212.0,0
2372,23.0,-22.0,216.0,0
2373,23.0,-23.0,215.0,0
2374,24.0,-22.0,218.0,0
2375,22.0,-20.0,216.0,0
2376,21.0,-23.0,217.0,0
2377,23.0,-24.0,215.0,0
2378,25.0,-21.0,214.0,0
2379,22.0,-23.0,216.0,0
2380,22.0,-23.0,212.0,0
2381,21.0,-24.0,214.0,0
2382,24.0,-24.0,216.0,0
2383,19.0,-20.0,214.0,0
2384,22.0,-23.0,217.0,0
2385,19.0,-20.0,215.0,0
2386,18.0,-21.0,214.0,0
2387,23.0,-21.0,216.0,0
2388,15.0,-27.0,229.0,0
2389,22.0,-21.0,219.0,0
2390,22.0,-22.0,216.0,0
2391,18.0,-21.0,215.0,0
2392,21.0,-24.0,220.0,0
2393,20.0,-19.0,212.0,0
2394,21.0,-20.0,216.0,0
2395,23.0,-21.0,215.0,0
2396,20.0,-22.0,213.0,0
2397,23.0,-18.0,214.0,0
2398,14.0,-14.0,220.0,0
2399,20.0,-13.0,215.0,0
