,accelerometer_x,accelerometer_y,accelerometer_z,fall
0,-6.0,-256.0,-66.0,0
1,-4.0,-258.0,-65.0,0
2,-6.0,-257.0,-67.0,0
3,-2.0,-257.0,-70.0,0
4,-3.0,-257.0,-70.0,0
5,-1.0,-263.0,-70.0,0
6,-3.0,-258.0,-66.0,0
7,-2.0,-259.0,-69.0,0
8,-1.0,-258.0,-68.0,0
9,0.0,-256.0,-67.0,0
10,-2.0,-255.0,-65.0,0
11,0.0,-258.0,-67.0,0
12,2.0,-257.0,-64.0,0
13,3.0,-259.0,-59.0,0
14,0.0,-259.0,-60.0,0
15,3.0,-261.0,-62.0,0
16,0.0,-257.0,-62.0,0
17,0.0,-255.0,-61.0,0
18,0.0,-256.0,-60.0,0
19,1.0,-258.0,-61.0,0
20,0.0,-253.0,-63.0,0
21,0.0,-251.0,-60.0,0
22,-3.0,-250.0,-59.0,0
23,0.0,-250.0,-58.0,0
24,-1.0,-250.0,-61.0,0
25,-3.0,-249.0,-56.0,0
26,-4.0,-249.0,-57.0,0
27,0.0,-250.0,-57.0,0
28,-2.0,-248.0,-54.0,0
29,-2.0,-248.0,-56.0,0
30,0.0,-248.0,-56.0,0
31,0.0,-249.0,-55.0,0
32,0.0,-250.0,-56.0,0
33,0.0,-252.0,-56.0,0
34,-4.0,-248.0,-55.0,0
35,0.0,-251.0,-59.0,0
36,0.0,-249.0,-57.0,0
37,-2.0,-258.0,-53.0,0
38,0.0,-249.0,-57.0,0
39,-3.0,-249.0,-55.0,0
40,0.0,-249.0,-56.0,0
41,-4.0,-248.0,-61.0,0
42,-1.0,-251.0,-58.0,0
43,-1.0,-251.0,-57.0,0
44,-3.0,-248.0,-60.0,0
45,-5.0,-249.0,-58.0,0
46,-1.0,-252.0,-57.0,0
47,0.0,-250.0,-60.0,0
48,-4.0,-249.0,-61.0,0
49,-1.0,-251.0,-61.0,0
50,-5.0,-248.0,-63.0,0
51,0.0,-252.0,-60.0,0
52,-1.0,-252.0,-59.0,0
53,-2.0,-250.0,-61.0,0
54,-1.0,-251.0,-61.0,0
55,-2.0,-249.0,-63.0,0
56,-2.0,-248.0,-61.0,0
57,0.0,-250.0,-66.0,0
58,2.0,-250.0,-56.0,0
59,1.0,-253.0,-62.0,0
60,2.0,-252.0,-63.0,0
61,1.0,-253.0,-61.0,0
62,-1.0,-252.0,-61.0,0
63,1.0,-254.0,-64.0,0
64,-3.0,-251.0,-64.0,0
65,0.0,-250.0,-62.0,0
66,0.0,-251.0,-59.0,0
67,2.0,-253.0,-59.0,0
68,0.0,-251.0,-64.0,0
69,0.0,-252.0,-58.0,0
70,1.0,-252.0,-61.0,0
71,0.0,-251.0,-61.0,0
72,0.0,-251.0,-62.0,0
73,1.0,-253.0,-61.0,0
74,0.0,-250.0,-59.0,0
75,0.0,-251.0,-59.0,0
76,1.0,-251.0,-64.0,0
77,-2.0,-251.0,-58.0,0
78,-2.0,-251.0,-62.0,0
79,1.0,-252.0,-63.0,0
80,1.0,-249.0,-64.0,0
81,0.0,-246.0,-64.0,0
82,0.0,-251.0,-65.0,0
83,0.0,-249.0,-64.0,0
84,1.0,-248.0,-59.0,0
85,4.0,-250.0,-64.0,0
86,1.0,-250.0,-63.0,0
87,0.0,-251.0,-61.0,0
88,0.0,-250.0,-65.0,0
89,1.0,-248.0,-60.0,0
90,0.0,-249.0,-63.0,0
91,0.0,-250.0,-63.0,0
92,9.0,-243.0,-63.0,0
93,-1.0,-248.0,-59.0,0
94,-3.0,-248.0,-62.0,0
95,-2.0,-246.0,-61.0,0
96,0.0,-248.0,-63.0,0
97,0.0,-247.0,-65.0,0
98,0.0,-248.0,-64.0,0
99,-1.0,-247.0,-66.0,0
100,0.0,-247.0,-67.0,0
101,-2.0,-251.0,-64.0,0
102,-9.0,-243.0,-73.0,0
103,0.0,-250.0,-68.0,0
104,0.0,-248.0,-69.0,0
105,-1.0,-249.0,-66.0,0
106,0.0,-250.0,-65.0,0
107,0.0,-250.0,-64.0,0
108,-2.0,-249.0,-63.0,0
109,-2.0,-247.0,-67.0,0
110,-3.0,-248.0,-65.0,0
111,-3.0,-248.0,-62.0,0
112,-4.0,-247.0,-68.0,0
113,0.0,-248.0,-64.0,0
114,-2.0,-251.0,-62.0,0
115,-2.0,-247.0,-68.0,0
116,-2.0,-248.0,-62.0,0
117,-1.0,-246.0,-67.0,0
118,-3.0,-248.0,-65.0,0
119,0.0,-250.0,-66.0,0
120,-4.0,-249.0,-66.0,0
121,-2.0,-250.0,-65.0,0
122,-2.0,-251.0,-65.0,0
123,0.0,-250.0,-66.0,0
124,0.0,-248.0,-66.0,0
125,-4.0,-250.0,-71.0,0
126,-4.0,-252.0,-65.0,0
127,-6.0,-249.0,-69.0,0
128,-2.0,-253.0,-67.0,0
129,-7.0,-252.0,-65.0,0
130,-4.0,-251.0,-66.0,0
131,-5.0,-250.0,-69.0,0
132,-8.0,-249.0,-68.0,0
133,-6.0,-250.0,-70.0,0
134,-4.0,-247.0,-69.0,0
135,-3.0,-250.0,-66.0,0
136,0.0,-252.0,-65.0,0
137,-3.0,-250.0,-66.0,0
138,-4.0,-250.0,-62.0,0
139,-3.0,-248.0,-65.0,0
140,-5.0,-247.0,-67.0,0
141,-3.0,-250.0,-65.0,0
142,-3.0,-249.0,-64.0,0
143,-5.0,-247.0,-67.0,0
144,-5.0,-248.0,-67.0,0
145,-4.0,-248.0,-66.0,0
146,-4.0,-250.0,-63.0,0
147,-4.0,-249.0,-65.0,0
148,-1.0,-249.0,-64.0,0
149,-3.0,-247.0,-63.0,0
150,-4.0,-248.0,-62.0,0
151,0.0,-248.0,-65.0,0
152,-6.0,-248.0,-64.0,0
153,-6.0,-248.0,-62.0,0
154,-6.0,-246.0,-65.0,0
155,-2.0,-251.0,-70.0,0
156,-6.0,-250.0,-67.0,0
157,-1.0,-250.0,-67.0,0
158,0.0,-248.0,-65.0,0
159,-1.0,-249.0,-67.0,0
160,-1.0,-249.0,-68.0,0
161,0.0,-251.0,-67.0,0
162,-7.0,-249.0,-69.0,0
163,-5.0,-249.0,-64.0,0
164,-4.0,-249.0,-67.0,0
165,-2.0,-252.0,-63.0,0
166,-5.0,-250.0,-65.0,0
167,-3.0,-249.0,-67.0,0
168,-3.0,-252.0,-68.0,0
169,-1.0,-248.0,-64.0,0
170,-1.0,-251.0,-66.0,0
171,-4.0,-249.0,-67.0,0
172,-4.0,-247.0,-66.0,0
173,-6.0,-249.0,-67.0,0
174,-2.0,-249.0,-65.0,0
175,-1.0,-249.0,-65.0,0
176,-4.0,-249.0,-65.0,0
177,-4.0,-249.0,-64.0,0
178,-1.0,-249.0,-67.0,0
179,-3.0,-249.0,-67.0,0
180,-1.0,-250.0,-68.0,0
181,-3.0,-249.0,-65.0,0
182,-3.0,-249.0,-70.0,0
183,-5.0,-248.0,-67.0,0
184,-3.0,-252.0,-66.0,0
185,-5.0,-248.0,-66.0,0
186,-3.0,-249.0,-64.0,0
187,1.0,-249.0,-68.0,0
188,-1.0,-248.0,-66.0,0
189,-1.0,-248.0,-65.0,0
190,-5.0,-243.0,-73.0,0
191,-3.0,-250.0,-66.0,0
192,-1.0,-249.0,-65.0,0
193,-3.0,-248.0,-64.0,0
194,0.0,-253.0,-67.0,0
195,-4.0,-248.0,-61.0,0
196,-1.0,-250.0,-71.0,0
197,-4.0,-252.0,-67.0,0
198,-4.0,-250.0,-63.0,0
199,0.0,-248.0,-67.0,0
200,-2.0,-248.0,-65.0,0
201,0.0,-250.0,-67.0,0
202,-4.0,-249.0,-65.0,0
203,-3.0,-248.0,-65.0,0
204,-6.0,-249.0,-69.0,0
205,-1.0,-250.0,-66.0,0
206,-2.0,-249.0,-68.0,0
207,-2.0,-249.0,-67.0,0
208,-4.0,-249.0,-64.0,0
209,0.0,-252.0,-66.0,0
210,-4.0,-251.0,-64.0,0
211,-3.0,-254.0,-62.0,0
212,-3.0,-249.0,-66.0,0
213,-1.0,-251.0,-69.0,0
214,-5.0,-248.0,-66.0,0
215,-4.0,-250.0,-65.0,0
216,-4.0,-249.0,-64.0,0
217,-3.0,-249.0,-65.0,0
218,-1.0,-250.0,-66.0,0
219,-2.0,-250.0,-68.0,0
220,-4.0,-251.0,-68.0,0
221,-4.0,-249.0,-69.0,0
222,-3.0,-251.0,-67.0,0
223,-3.0,-251.0,-68.0,0
224,-3.0,-251.0,-68.0,0
225,-3.0,-250.0,-65.0,0
226,-3.0,-250.0,-65.0,0
227,-4.0,-251.0,-67.0,0
228,0.0,-251.0,-66.0,0
229,-3.0,-249.0,-66.0,0
230,0.0,-249.0,-64.0,0
231,-2.0,-250.0,-63.0,0
232,-2.0,-248.0,-64.0,0
233,3.0,-246.0,-65.0,0
234,-1.0,-249.0,-63.0,0
235,0.0,-248.0,-65.0,0
236,-3.0,-248.0,-67.0,0
237,-2.0,-248.0,-63.0,0
238,-3.0,-250.0,-65.0,0
239,-2.0,-250.0,-64.0,0
240,-3.0,-248.0,-68.0,0
241,-4.0,-249.0,-65.0,0
242,-6.0,-250.0,-63.0,0
243,-1.0,-249.0,-61.0,0
244,-5.0,-252.0,-65.0,0
245,-2.0,-251.0,-62.0,0
246,-3.0,-251.0,-61.0,0
247,-3.0,-248.0,-64.0,0
248,-5.0,-250.0,-64.0,0
249,-4.0,-251.0,-66.0,0
250,0.0,-251.0,-68.0,0
251,-2.0,-248.0,-66.0,0
252,-6.0,-248.0,-65.0,0
253,-6.0,-248.0,-66.0,0
254,-4.0,-248.0,-63.0,0
255,6.0,-241.0,-72.0,0
256,-1.0,-249.0,-65.0,0
257,-6.0,-249.0,-64.0,0
258,-3.0,-248.0,-64.0,0
259,-3.0,-250.0,-61.0,0
260,-3.0,-248.0,-66.0,0
261,-7.0,-250.0,-62.0,0
262,-6.0,-248.0,-63.0,0
263,-7.0,-249.0,-63.0,0
264,-2.0,-249.0,-67.0,0
265,-6.0,-249.0,-65.0,0
266,-6.0,-251.0,-66.0,0
267,-7.0,-249.0,-63.0,0
268,-7.0,-248.0,-62.0,0
269,-2.0,-249.0,-62.0,0
270,-4.0,-250.0,-64.0,0
271,-3.0,-250.0,-65.0,0
272,-4.0,-250.0,-67.0,0
273,-6.0,-249.0,-63.0,0
274,-8.0,-248.0,-65.0,0
275,-4.0,-248.0,-61.0,0
276,-3.0,-249.0,-67.0,0
277,0.0,-254.0,-73.0,0
278,-1.0,-248.0,-65.0,0
279,-7.0,-249.0,-66.0,0
280,-5.0,-249.0,-61.0,0
281,-4.0,-251.0,-61.0,0
282,-6.0,-248.0,-62.0,0
283,-5.0,-251.0,-65.0,0
284,-5.0,-249.0,-65.0,0
285,-3.0,-251.0,-67.0,0
286,-2.0,-251.0,-63.0,0
287,-4.0,-247.0,-67.0,0
288,-5.0,-248.0,-66.0,0
289,-5.0,-249.0,-65.0,0
290,-6.0,-250.0,-65.0,0
291,-6.0,-248.0,-67.0,0
292,-1.0,-249.0,-64.0,0
293,-6.0,-249.0,-63.0,0
294,-3.0,-252.0,-65.0,0
295,-4.0,-249.0,-64.0,0
296,-5.0,-249.0,-66.0,0
297,-6.0,-250.0,-62.0,0
298,-7.0,-249.0,-70.0,0
299,-7.0,-251.0,-69.0,0
300,-5.0,-250.0,-64.0,0
301,-6.0,-250.0,-66.0,0
302,-4.0,-250.0,-67.0,0
303,-5.0,-251.0,-64.0,0
304,-7.0,-250.0,-64.0,0
305,-5.0,-248.0,-63.0,0
306,-8.0,-248.0,-61.0,0
307,-3.0,-249.0,-64.0,0
308,-5.0,-249.0,-65.0,0
309,-5.0,-247.0,-62.0,0
310,-3.0,-248.0,-63.0,0
311,-6.0,-248.0,-58.0,0
312,-8.0,-248.0,-60.0,0
313,-2.0,-249.0,-63.0,0
314,-5.0,-248.0,-63.0,0
315,-3.0,-250.0,-65.0,0
316,-3.0,-249.0,-62.0,0
317,-5.0,-249.0,-60.0,0
318,-1.0,-252.0,-62.0,0
319,-2.0,-249.0,-64.0,0
320,0.0,-250.0,-71.0,0
321,-1.0,-248.0,-66.0,0
322,-3.0,-248.0,-64.0,0
323,-4.0,-249.0,-63.0,0
324,-4.0,-250.0,-65.0,0
325,-3.0,-250.0,-64.0,0
326,-3.0,-252.0,-62.0,0
327,-4.0,-252.0,-64.0,0
328,-5.0,-250.0,-62.0,0
329,-4.0,-253.0,-60.0,0
330,-4.0,-251.0,-66.0,0
331,-5.0,-250.0,-63.0,0
332,-5.0,-250.0,-65.0,0
333,-4.0,-248.0,-61.0,0
334,-5.0,-249.0,-65.0,0
335,-6.0,-249.0,-67.0,0
336,-3.0,-249.0,-63.0,0
337,-3.0,-252.0,-63.0,0
338,-5.0,-250.0,-62.0,0
339,-5.0,-248.0,-64.0,0
340,-7.0,-248.0,-63.0,0
341,-4.0,-248.0,-63.0,0
342,-6.0,-248.0,-69.0,0
343,-1.0,-249.0,-64.0,0
344,-5.0,-248.0,-65.0,0
345,-4.0,-249.0,-61.0,0
346,-1.0,-251.0,-63.0,0
347,-2.0,-248.0,-65.0,0
348,-4.0,-249.0,-66.0,0
349,-6.0,-248.0,-62.0,0
350,-5.0,-248.0,-62.0,0
351,-6.0,-248.0,-64.0,0
352,-7.0,-248.0,-61.0,0
353,-5.0,-251.0,-62.0,0
354,-5.0,-249.0,-60.0,0
355,-6.0,-250.0,-62.0,0
356,-4.0,-248.0,-65.0,0
357,-3.0,-248.0,-61.0,0
358,-4.0,-249.0,-57.0,0
359,0.0,-250.0,-60.0,0
360,-1.0,-251.0,-63.0,0
361,-4.0,-248.0,-60.0,0
362,-5.0,-248.0,-62.0,0
363,-5.0,-250.0,-61.0,0
364,-3.0,-251.0,-62.0,0
365,-4.0,-250.0,-60.0,0
366,-2.0,-251.0,-59.0,0
367,-3.0,-248.0,-58.0,0
368,-2.0,-249.0,-63.0,0
369,-2.0,-249.0,-62.0,0
370,-4.0,-250.0,-61.0,0
371,-5.0,-247.0,-65.0,0
372,-1.0,-253.0,-63.0,0
373,-1.0,-252.0,-64.0,0
374,-4.0,-249.0,-62.0,0
375,-5.0,-250.0,-66.0,0
376,-5.0,-251.0,-62.0,0
377,-4.0,-251.0,-64.0,0
378,-5.0,-252.0,-62.0,0
379,-3.0,-251.0,-62.0,0
380,-3.0,-251.0,-62.0,0
381,-3.0,-250.0,-63.0,0
382,-5.0,-251.0,-62.0,0
383,-6.0,-250.0,-59.0,0
384,-8.0,-248.0,-58.0,0
385,-3.0,-249.0,-65.0,0
386,-17.0,-252.0,-60.0,0
387,-2.0,-251.0,-64.0,0
388,-2.0,-252.0,-64.0,0
389,-5.0,-248.0,-61.0,0
390,-4.0,-249.0,-56.0,0
391,0.0,-250.0,-64.0,0
392,-2.0,-249.0,-63.0,0
393,-3.0,-249.0,-61.0,0
394,-5.0,-248.0,-60.0,0
395,0.0,-249.0,-65.0,0
396,-4.0,-250.0,-62.0,0
397,0.0,-250.0,-65.0,0
398,0.0,-248.0,-64.0,0
399,-7.0,-250.0,-60.0,0
400,-1.0,-250.0,-61.0,0
401,-1.0,-249.0,-59.0,0
402,-2.0,-251.0,-60.0,0
403,-4.0,-252.0,-61.0,0
404,-4.0,-248.0,-61.0,0
405,-5.0,-252.0,-62.0,0
406,-6.0,-248.0,-66.0,0
407,-3.0,-251.0,-64.0,0
408,-4.0,-244.0,-64.0,0
409,-1.0,-251.0,-62.0,0
410,-3.0,-250.0,-59.0,0
411,-3.0,-250.0,-62.0,0
412,-3.0,-250.0,-64.0,0
413,-4.0,-253.0,-55.0,0
414,-7.0,-248.0,-63.0,0
415,-3.0,-250.0,-58.0,0
416,-6.0,-248.0,-60.0,0
417,-5.0,-249.0,-65.0,0
418,-3.0,-249.0,-63.0,0
419,-4.0,-248.0,-64.0,0
420,-3.0,-250.0,-62.0,0
421,-8.0,-250.0,-62.0,0
422,-1.0,-249.0,-59.0,0
423,-1.0,-250.0,-59.0,0
424,-3.0,-250.0,-59.0,0
425,-2.0,-253.0,-62.0,0
426,0.0,-250.0,-61.0,0
427,-5.0,-250.0,-58.0,0
428,-1.0,-251.0,-62.0,0
429,-5.0,-251.0,-58.0,0
430,-2.0,-251.0,-61.0,0
431,-4.0,-251.0,-61.0,0
432,-3.0,-249.0,-64.0,0
433,-4.0,-250.0,-63.0,0
434,-4.0,-250.0,-60.0,0
435,-3.0,-249.0,-59.0,0
436,-4.0,-247.0,-62.0,0
437,-5.0,-250.0,-63.0,0
438,-2.0,-252.0,-61.0,0
439,-5.0,-249.0,-58.0,0
440,-2.0,-251.0,-61.0,0
441,0.0,-253.0,-61.0,0
442,-2.0,-249.0,-60.0,0
443,-1.0,-253.0,-61.0,0
444,-2.0,-252.0,-61.0,0
445,-4.0,-250.0,-59.0,0
446,-1.0,-252.0,-59.0,0
447,-2.0,-250.0,-61.0,0
448,-3.0,-251.0,-59.0,0
449,-6.0,-247.0,-59.0,0
450,-1.0,-251.0,-59.0,0
451,-1.0,-253.0,-58.0,0
452,-3.0,-249.0,-61.0,0
453,-5.0,-250.0,-61.0,0
454,0.0,-251.0,-62.0,0
455,-3.0,-250.0,-63.0,0
456,-1.0,-250.0,-62.0,0
457,-4.0,-250.0,-59.0,0
458,-3.0,-250.0,-62.0,0
459,-5.0,-248.0,-59.0,0
460,-2.0,-249.0,-63.0,0
461,-5.0,-250.0,-62.0,0
462,-2.0,-252.0,-63.0,0
463,-4.0,-250.0,-60.0,0
464,-2.0,-251.0,-62.0,0
465,-4.0,-250.0,-60.0,0
466,-4.0,-251.0,-63.0,0
467,-5.0,-250.0,-60.0,0
468,-2.0,-250.0,-62.0,0
469,-4.0,-250.0,-66.0,0
470,0.0,-252.0,-60.0,0
471,-2.0,-250.0,-61.0,0
472,0.0,-251.0,-63.0,0
473,3.0,-247.0,-55.0,0
474,-4.0,-248.0,-61.0,0
475,-2.0,-250.0,-62.0,0
476,0.0,-251.0,-57.0,0
477,-4.0,-250.0,-60.0,0
478,0.0,-249.0,-63.0,0
479,-2.0,-249.0,-57.0,0
480,-2.0,-249.0,-62.0,0
481,-2.0,-248.0,-59.0,0
482,-5.0,-248.0,-59.0,0
483,-1.0,-250.0,-62.0,0
484,0.0,-252.0,-57.0,0
485,0.0,-253.0,-63.0,0
486,-2.0,-251.0,-59.0,0
487,-4.0,-249.0,-59.0,0
488,-5.0,-249.0,-60.0,0
489,-2.0,-250.0,-61.0,0
490,-1.0,-250.0,-61.0,0
491,-4.0,-252.0,-60.0,0
492,0.0,-251.0,-59.0,0
493,-3.0,-249.0,-63.0,0
494,-1.0,-252.0,-58.0,0
495,-1.0,-248.0,-68.0,0
496,0.0,-251.0,-60.0,0
497,-3.0,-253.0,-63.0,0
498,-5.0,-250.0,-59.0,0
499,-5.0,-251.0,-61.0,0
500,-5.0,-249.0,-61.0,0
501,-7.0,-250.0,-61.0,0
502,-4.0,-249.0,-64.0,0
503,-7.0,-249.0,-63.0,0
504,-6.0,-251.0,-57.0,0
505,-4.0,-251.0,-60.0,0
506,0.0,-246.0,-60.0,0
507,-1.0,-250.0,-59.0,0
508,-3.0,-249.0,-62.0,0
509,-5.0,-249.0,-62.0,0
510,-1.0,-251.0,-62.0,0
511,-5.0,-249.0,-60.0,0
512,-4.0,-249.0,-62.0,0
513,-7.0,-248.0,-64.0,0
514,-1.0,-252.0,-62.0,0
515,-4.0,-248.0,-59.0,0
516,-6.0,-251.0,-69.0,0
517,-1.0,-249.0,-63.0,0
518,-6.0,-251.0,-59.0,0
519,-3.0,-250.0,-65.0,0
520,-6.0,-247.0,-61.0,0
521,-6.0,-249.0,-62.0,0
522,-2.0,-248.0,-60.0,0
523,-4.0,-249.0,-59.0,0
524,-6.0,-249.0,-59.0,0
525,-3.0,-250.0,-63.0,0
526,-1.0,-250.0,-60.0,0
527,-3.0,-250.0,-63.0,0
528,-7.0,-248.0,-60.0,0
529,-4.0,-252.0,-63.0,0
530,-4.0,-252.0,-63.0,0
531,-1.0,-248.0,-62.0,0
532,-4.0,-251.0,-61.0,0
533,-3.0,-249.0,-60.0,0
534,0.0,-254.0,-62.0,0
535,-2.0,-250.0,-63.0,0
536,-3.0,-251.0,-62.0,0
537,-3.0,-252.0,-63.0,0
538,-3.0,-251.0,-52.0,0
539,-4.0,-252.0,-61.0,0
540,-2.0,-249.0,-59.0,0
541,-1.0,-251.0,-63.0,0
542,-2.0,-252.0,-65.0,0
543,-6.0,-250.0,-60.0,0
544,-4.0,-250.0,-60.0,0
545,-1.0,-252.0,-59.0,0
546,-6.0,-249.0,-60.0,0
547,-3.0,-249.0,-61.0,0
548,-3.0,-249.0,-62.0,0
549,-5.0,-250.0,-62.0,0
550,-2.0,-252.0,-59.0,0
551,-3.0,-249.0,-59.0,0
552,-4.0,-249.0,-62.0,0
553,-1.0,-252.0,-59.0,0
554,-4.0,-250.0,-61.0,0
555,-6.0,-250.0,-62.0,0
556,0.0,-249.0,-64.0,0
557,-3.0,-249.0,-59.0,0
558,-4.0,-250.0,-62.0,0
559,-3.0,-251.0,-63.0,0
560,-5.0,-252.0,-64.0,0
561,-7.0,-251.0,-62.0,0
562,-3.0,-250.0,-59.0,0
563,-5.0,-250.0,-64.0,0
564,-2.0,-250.0,-62.0,0
565,-1.0,-251.0,-63.0,0
566,0.0,-250.0,-62.0,0
567,-1.0,-249.0,-61.0,0
568,-3.0,-251.0,-62.0,0
569,-3.0,-250.0,-63.0,0
570,-4.0,-250.0,-59.0,0
571,-2.0,-250.0,-63.0,0
572,-1.0,-250.0,-59.0,0
573,-1.0,-249.0,-64.0,0
574,-4.0,-248.0,-63.0,0
575,-3.0,-250.0,-61.0,0
576,0.0,-252.0,-62.0,0
577,-1.0,-249.0,-64.0,0
578,-2.0,-249.0,-58.0,0
579,-1.0,-250.0,-58.0,0
580,-2.0,-251.0,-63.0,0
581,-3.0,-249.0,-60.0,0
582,-4.0,-253.0,-65.0,0
583,-4.0,-250.0,-63.0,0
584,-6.0,-248.0,-63.0,0
585,-3.0,-250.0,-67.0,0
586,-5.0,-249.0,-62.0,0
587,0.0,-250.0,-63.0,0
588,-3.0,-249.0,-61.0,0
589,0.0,-248.0,-59.0,0
590,-5.0,-249.0,-61.0,0
591,-2.0,-251.0,-60.0,0
592,-3.0,-250.0,-58.0,0
593,-7.0,-249.0,-62.0,0
594,-2.0,-252.0,-63.0,0
595,-5.0,-250.0,-60.0,0
596,-3.0,-250.0,-59.0,0
597,-5.0,-248.0,-58.0,0
598,-5.0,-251.0,-61.0,0
599,-2.0,-250.0,-64.0,0
600,-2.0,-250.0,-62.0,0
601,-2.0,-253.0,-61.0,0
602,-3.0,-251.0,-64.0,0
603,-3.0,-250.0,-62.0,0
604,2.0,-251.0,-61.0,0
605,-1.0,-249.0,-63.0,0
606,-3.0,-249.0,-65.0,0
607,-3.0,-248.0,-64.0,0
608,-2.0,-250.0,-62.0,0
609,-3.0,-253.0,-63.0,0
610,-3.0,-252.0,-61.0,0
611,-1.0,-251.0,-65.0,0
612,-2.0,-250.0,-61.0,0
613,-3.0,-250.0,-60.0,0
614,-4.0,-257.0,-69.0,0
615,-6.0,-250.0,-60.0,0
616,-3.0,-249.0,-64.0,0
617,-3.0,-249.0,-65.0,0
618,0.0,-249.0,-63.0,0
619,-5.0,-250.0,-61.0,0
620,-1.0,-248.0,-60.0,0
621,-2.0,-251.0,-61.0,0
622,-4.0,-251.0,-60.0,0
623,-2.0,-251.0,-61.0,0
624,-1.0,-251.0,-62.0,0
625,-4.0,-254.0,-63.0,0
626,-6.0,-253.0,-68.0,0
627,-2.0,-250.0,-60.0,0
628,-3.0,-247.0,-64.0,0
629,-5.0,-246.0,-60.0,0
630,-7.0,-248.0,-60.0,0
631,-9.0,-251.0,-63.0,0
632,-3.0,-250.0,-60.0,0
633,-6.0,-255.0,-62.0,0
634,1.0,-251.0,-62.0,0
635,-4.0,-247.0,-56.0,0
636,-9.0,-249.0,-64.0,0
637,-4.0,-248.0,-66.0,0
638,0.0,-249.0,-63.0,0
639,-3.0,-247.0,-64.0,0
640,-3.0,-257.0,-65.0,0
641,3.0,-253.0,-57.0,0
642,7.0,-251.0,-65.0,0
643,-11.0,-252.0,-53.0,0
644,-1.0,-255.0,-66.0,0
645,-1.0,-240.0,-62.0,0
646,-15.0,-247.0,-54.0,0
647,-2.0,-253.0,-66.0,0
648,-4.0,-249.0,-51.0,0
649,14.0,-239.0,-65.0,0
650,-8.0,-247.0,-63.0,0
651,0.0,-247.0,-62.0,0
652,-3.0,-248.0,-59.0,0
653,-3.0,-251.0,-60.0,0
654,-6.0,-248.0,-62.0,0
655,-3.0,-250.0,-65.0,0
656,-8.0,-250.0,-60.0,0
657,-6.0,-252.0,-54.0,0
658,-1.0,-253.0,-60.0,0
659,-7.0,-252.0,-66.0,0
660,-4.0,-248.0,-63.0,0
661,-2.0,-251.0,-68.0,0
662,-3.0,-246.0,-69.0,0
663,-4.0,-251.0,-58.0,0
664,-5.0,-248.0,-60.0,0
665,-6.0,-257.0,-63.0,0
666,-5.0,-250.0,-63.0,0
667,-7.0,-250.0,-62.0,0
668,-4.0,-252.0,-64.0,0
669,-2.0,-249.0,-64.0,0
670,-3.0,-252.0,-65.0,0
671,-2.0,-246.0,-64.0,0
672,-1.0,-254.0,-61.0,0
673,-9.0,-248.0,-69.0,0
674,-8.0,-248.0,-64.0,0
675,-3.0,-248.0,-54.0,0
676,-5.0,-254.0,-62.0,0
677,-9.0,-252.0,-67.0,0
678,-10.0,-245.0,-64.0,0
679,-9.0,-248.0,-62.0,0
680,-5.0,-248.0,-59.0,0
681,8.0,-241.0,-63.0,0
682,-6.0,-249.0,-65.0,0
683,-6.0,-246.0,-68.0,0
684,-3.0,-247.0,-63.0,0
685,-4.0,-249.0,-62.0,0
686,-6.0,-256.0,-49.0,0
687,-6.0,-241.0,-56.0,0
688,-2.0,-248.0,-68.0,0
689,-3.0,-249.0,-52.0,0
690,-3.0,-240.0,-64.0,0
691,-14.0,-252.0,-59.0,0
692,-2.0,-257.0,-62.0,0
693,-9.0,-249.0,-67.0,0
694,-27.0,-252.0,-62.0,0
695,-2.0,-260.0,-51.0,0
696,-4.0,-253.0,-66.0,0
697,-2.0,-251.0,-63.0,0
698,-6.0,-248.0,-64.0,0
699,-3.0,-248.0,-63.0,0
700,-6.0,-248.0,-65.0,0
701,-8.0,-243.0,-58.0,0
702,8.0,-238.0,-63.0,0
703,-7.0,-246.0,-70.0,0
704,-16.0,-246.0,-60.0,0
705,-2.0,-246.0,-63.0,0
706,-2.0,-247.0,-69.0,0
707,-4.0,-252.0,-61.0,0
708,-3.0,-254.0,-58.0,0
709,-6.0,-256.0,-68.0,0
710,-4.0,-254.0,-65.0,0
711,-2.0,-245.0,-50.0,0
712,-7.0,-248.0,-63.0,0
713,-2.0,-249.0,-63.0,0
714,-2.0,-249.0,-63.0,0
715,-3.0,-247.0,-68.0,0
716,-5.0,-249.0,-71.0,0
717,-3.0,-250.0,-69.0,0
718,-5.0,-248.0,-58.0,0
719,-7.0,-249.0,-68.0,0
720,1.0,-238.0,-74.0,0
721,-5.0,-255.0,-64.0,0
722,-4.0,-248.0,-65.0,0
723,-6.0,-248.0,-64.0,0
724,-4.0,-248.0,-67.0,0
725,-7.0,-249.0,-72.0,0
726,-3.0,-249.0,-66.0,0
727,-3.0,-251.0,-66.0,0
728,-4.0,-248.0,-65.0,0
729,-4.0,-249.0,-66.0,0
730,-3.0,-256.0,-64.0,0
731,-4.0,-248.0,-67.0,0
732,-3.0,-249.0,-69.0,0
733,-1.0,-248.0,-65.0,0
734,-6.0,-249.0,-66.0,0
735,-6.0,-252.0,-70.0,0
736,-3.0,-248.0,-67.0,0
737,-3.0,-250.0,-66.0,0
738,-6.0,-249.0,-68.0,0
739,-7.0,-250.0,-66.0,0
740,-4.0,-248.0,-72.0,0
741,-5.0,-248.0,-70.0,0
742,-1.0,-246.0,-64.0,0
743,-3.0,-249.0,-67.0,0
744,-6.0,-249.0,-70.0,0
745,-9.0,-248.0,-66.0,0
746,-2.0,-249.0,-69.0,0
747,-3.0,-249.0,-65.0,0
748,-5.0,-248.0,-66.0,0
749,-6.0,-250.0,-66.0,0
750,-4.0,-251.0,-65.0,0
751,-7.0,-248.0,-67.0,0
752,-2.0,-249.0,-68.0,0
753,-3.0,-249.0,-70.0,0
754,-6.0,-246.0,-68.0,0
755,-4.0,-248.0,-66.0,0
756,0.0,-246.0,-64.0,0
757,-3.0,-249.0,-68.0,0
758,-6.0,-248.0,-65.0,0
759,-4.0,-248.0,-68.0,0
760,-4.0,-248.0,-68.0,0
761,-8.0,-248.0,-69.0,0
762,-3.0,-248.0,-67.0,0
763,-6.0,-247.0,-68.0,0
764,-5.0,-250.0,-70.0,0
765,-1.0,-248.0,-67.0,0
766,0.0,-248.0,-66.0,0
767,-8.0,-248.0,-66.0,0
768,-1.0,-248.0,-65.0,0
769,-2.0,-250.0,-68.0,0
770,-6.0,-249.0,-70.0,0
771,-3.0,-249.0,-65.0,0
772,-2.0,-249.0,-67.0,0
773,-7.0,-249.0,-67.0,0
774,-3.0,-249.0,-70.0,0
775,-7.0,-248.0,-67.0,0
776,-2.0,-249.0,-68.0,0
777,-7.0,-249.0,-68.0,0
778,-7.0,-249.0,-70.0,0
779,-6.0,-250.0,-67.0,0
780,-6.0,-248.0,-67.0,0
781,-5.0,-251.0,-68.0,0
782,-3.0,-249.0,-65.0,0
783,-6.0,-249.0,-63.0,0
784,-5.0,-247.0,-67.0,0
785,-4.0,-248.0,-70.0,0
786,-5.0,-249.0,-68.0,0
787,-1.0,-250.0,-69.0,0
788,-5.0,-248.0,-67.0,0
789,-4.0,-248.0,-69.0,0
790,-6.0,-247.0,-70.0,0
791,-4.0,-247.0,-67.0,0
792,-3.0,-248.0,-69.0,0
793,-6.0,-247.0,-69.0,0
794,-5.0,-248.0,-65.0,0
795,-4.0,-249.0,-68.0,0
796,-4.0,-248.0,-67.0,0
797,-4.0,-248.0,-67.0,0
798,-4.0,-250.0,-67.0,0
799,-4.0,-250.0,-65.0,0
800,-8.0,-248.0,-64.0,0
801,-6.0,-251.0,-65.0,0
802,-6.0,-249.0,-62.0,0
803,-3.0,-253.0,-65.0,0
804,-5.0,-249.0,-67.0,0
805,-5.0,-249.0,-67.0,0
806,-3.0,-247.0,-70.0,0
807,-8.0,-247.0,-66.0,0
808,-5.0,-246.0,-68.0,0
809,-3.0,-249.0,-65.0,0
810,-2.0,-247.0,-62.0,0
811,-6.0,-252.0,-69.0,0
812,-6.0,-249.0,-62.0,0
813,-5.0,-250.0,-67.0,0
814,-6.0,-249.0,-66.0,0
815,-4.0,-249.0,-66.0,0
816,-3.0,-248.0,-64.0,0
817,-3.0,-249.0,-68.0,0
818,-3.0,-249.0,-64.0,0
819,-7.0,-248.0,-65.0,0
820,-5.0,-249.0,-62.0,0
821,-5.0,-252.0,-70.0,0
822,-3.0,-250.0,-66.0,0
823,-7.0,-248.0,-63.0,0
824,-4.0,-250.0,-70.0,0
825,-2.0,-251.0,-67.0,0
826,-3.0,-249.0,-65.0,0
827,-3.0,-250.0,-67.0,0
828,-3.0,-249.0,-68.0,0
829,-4.0,-248.0,-68.0,0
830,-6.0,-248.0,-64.0,0
831,-1.0,-247.0,-68.0,0
832,-5.0,-252.0,-68.0,0
833,-5.0,-249.0,-67.0,0
834,-6.0,-249.0,-65.0,0
835,-4.0,-252.0,-67.0,0
836,-3.0,-252.0,-65.0,0
837,-1.0,-249.0,-68.0,0
838,-6.0,-249.0,-67.0,0
839,-2.0,-249.0,-66.0,0
840,-5.0,-251.0,-65.0,0
841,-5.0,-248.0,-68.0,0
842,-2.0,-250.0,-65.0,0
843,-6.0,-245.0,-72.0,0
844,-6.0,-248.0,-65.0,0
845,-5.0,-248.0,-64.0,0
846,-6.0,-249.0,-65.0,0
847,-5.0,-248.0,-65.0,0
848,-6.0,-250.0,-64.0,0
849,-3.0,-249.0,-65.0,0
850,0.0,-253.0,-69.0,0
851,-5.0,-249.0,-67.0,0
852,-3.0,-248.0,-67.0,0
853,-1.0,-248.0,-65.0,0
854,-3.0,-249.0,-66.0,0
855,-5.0,-250.0,-70.0,0
856,-3.0,-248.0,-68.0,0
857,-4.0,-248.0,-64.0,0
858,-7.0,-249.0,-63.0,0
859,-2.0,-248.0,-68.0,0
860,-7.0,-248.0,-64.0,0
861,-1.0,-251.0,-66.0,0
862,-4.0,-249.0,-62.0,0
863,-3.0,-252.0,-65.0,0
864,-5.0,-251.0,-69.0,0
865,-8.0,-243.0,-56.0,0
866,-7.0,-246.0,-65.0,0
867,-3.0,-252.0,-69.0,0
868,-5.0,-248.0,-66.0,0
869,-7.0,-248.0,-67.0,0
870,-4.0,-249.0,-65.0,0
871,-5.0,-250.0,-68.0,0
872,-3.0,-252.0,-67.0,0
873,-4.0,-250.0,-66.0,0
874,-2.0,-250.0,-66.0,0
875,-4.0,-248.0,-64.0,0
876,-2.0,-253.0,-66.0,0
877,-5.0,-248.0,-67.0,0
878,-2.0,-251.0,-69.0,0
879,-3.0,-250.0,-62.0,0
880,-4.0,-248.0,-64.0,0
881,-1.0,-253.0,-66.0,0
882,-4.0,-249.0,-66.0,0
883,-5.0,-249.0,-62.0,0
884,-4.0,-250.0,-61.0,0
885,-4.0,-250.0,-63.0,0
886,-4.0,-249.0,-63.0,0
887,-8.0,-246.0,-62.0,0
888,-5.0,-249.0,-63.0,0
889,-3.0,-252.0,-64.0,0
890,-5.0,-250.0,-66.0,0
891,-5.0,-248.0,-66.0,0
892,-5.0,-247.0,-61.0,0
893,-2.0,-249.0,-62.0,0
894,-1.0,-251.0,-66.0,0
895,-1.0,-250.0,-62.0,0
896,-1.0,-250.0,-61.0,0
897,-5.0,-248.0,-65.0,0
898,-5.0,-249.0,-67.0,0
899,-4.0,-250.0,-60.0,0
900,-2.0,-251.0,-62.0,0
901,-9.0,-249.0,-64.0,0
902,-3.0,-249.0,-62.0,0
903,-4.0,-248.0,-63.0,0
904,-6.0,-251.0,-63.0,0
905,-2.0,-251.0,-66.0,0
906,-4.0,-248.0,-66.0,0
907,-3.0,-250.0,-62.0,0
908,-8.0,-247.0,-61.0,0
909,-6.0,-249.0,-71.0,0
910,-4.0,-248.0,-63.0,0
911,-6.0,-248.0,-63.0,0
912,-6.0,-247.0,-64.0,0
913,-2.0,-249.0,-65.0,0
914,-5.0,-248.0,-63.0,0
915,-5.0,-250.0,-63.0,0
916,-3.0,-251.0,-62.0,0
917,0.0,-248.0,-62.0,0
918,-5.0,-249.0,-61.0,0
919,-6.0,-247.0,-61.0,0
920,-4.0,-252.0,-62.0,0
921,-4.0,-248.0,-67.0,0
922,-4.0,-251.0,-64.0,0
923,-1.0,-250.0,-67.0,0
924,-5.0,-250.0,-63.0,0
925,-1.0,-248.0,-66.0,0
926,-3.0,-251.0,-63.0,0
927,-4.0,-249.0,-65.0,0
928,-8.0,-250.0,-61.0,0
929,-3.0,-249.0,-63.0,0
930,-8.0,-249.0,-62.0,0
931,-5.0,-251.0,-66.0,0
932,-5.0,-249.0,-63.0,0
933,-2.0,-250.0,-67.0,0
934,-8.0,-250.0,-63.0,0
935,-2.0,-251.0,-63.0,0
936,-2.0,-251.0,-65.0,0
937,-2.0,-251.0,-62.0,0
938,-7.0,-250.0,-63.0,0
939,-6.0,-250.0,-64.0,0
940,-1.0,-249.0,-66.0,0
941,-4.0,-248.0,-64.0,0
942,-6.0,-249.0,-63.0,0
943,-5.0,-248.0,-62.0,0
944,-6.0,-248.0,-62.0,0
945,-5.0,-251.0,-62.0,0
946,-1.0,-252.0,-63.0,0
947,0.0,-249.0,-66.0,0
948,-2.0,-251.0,-62.0,0
949,-2.0,-251.0,-64.0,0
950,-2.0,-250.0,-63.0,0
951,-4.0,-248.0,-61.0,0
952,-2.0,-254.0,-64.0,0
953,-3.0,-250.0,-62.0,0
954,-3.0,-248.0,-64.0,0
955,-6.0,-249.0,-61.0,0
956,-3.0,-248.0,-62.0,0
957,-3.0,-250.0,-65.0,0
958,-3.0,-247.0,-66.0,0
959,-4.0,-249.0,-63.0,0
960,-1.0,-250.0,-61.0,0
961,-5.0,-250.0,-62.0,0
962,-4.0,-248.0,-63.0,0
963,-3.0,-249.0,-62.0,0
964,-3.0,-249.0,-61.0,0
965,-3.0,-249.0,-63.0,0
966,-5.0,-247.0,-64.0,0
967,-2.0,-252.0,-65.0,0
968,-3.0,-251.0,-63.0,0
969,-3.0,-251.0,-60.0,0
970,-8.0,-249.0,-59.0,0
971,-7.0,-249.0,-62.0,0
972,-2.0,-252.0,-63.0,0
973,-4.0,-248.0,-62.0,0
974,-9.0,-256.0,-56.0,0
975,-8.0,-248.0,-67.0,0
976,-2.0,-250.0,-62.0,0
977,-6.0,-250.0,-63.0,0
978,-2.0,-250.0,-62.0,0
979,-4.0,-251.0,-63.0,0
980,-3.0,-249.0,-62.0,0
981,-2.0,-249.0,-60.0,0
982,-5.0,-250.0,-61.0,0
983,-2.0,-250.0,-63.0,0
984,-2.0,-252.0,-61.0,0
985,-6.0,-247.0,-61.0,0
986,-4.0,-252.0,-61.0,0
987,-7.0,-251.0,-60.0,0
988,-2.0,-249.0,-60.0,0
989,-4.0,-250.0,-63.0,0
990,-5.0,-250.0,-61.0,0
991,-5.0,-250.0,-62.0,0
992,-5.0,-251.0,-61.0,0
993,-4.0,-248.0,-60.0,0
994,-6.0,-249.0,-65.0,0
995,-2.0,-249.0,-62.0,0
996,-12.0,-256.0,-73.0,0
997,-6.0,-251.0,-65.0,0
998,-3.0,-250.0,-64.0,0
999,-4.0,-250.0,-59.0,0
1000,-2.0,-251.0,-65.0,0
1001,-5.0,-251.0,-65.0,0
1002,-6.0,-250.0,-64.0,0
1003,-3.0,-252.0,-60.0,0
1004,-3.0,-251.0,-57.0,0
1005,-5.0,-252.0,-63.0,0
1006,0.0,-251.0,-64.0,0
1007,-3.0,-249.0,-64.0,0
1008,-4.0,-251.0,-59.0,0
1009,-5.0,-248.0,-63.0,0
1010,-1.0,-250.0,-63.0,0
1011,-2.0,-250.0,-59.0,0
1012,-6.0,-249.0,-61.0,0
1013,-7.0,-249.0,-63.0,0
1014,-6.0,-248.0,-63.0,0
1015,-4.0,-249.0,-63.0,0
1016,-2.0,-247.0,-65.0,0
1017,-5.0,-247.0,-60.0,0
1018,-6.0,-249.0,-62.0,0
1019,-7.0,-248.0,-62.0,0
1020,-5.0,-251.0,-61.0,0
1021,-1.0,-249.0,-66.0,0
1022,-6.0,-249.0,-62.0,0
1023,-6.0,-249.0,-63.0,0
1024,-2.0,-250.0,-62.0,0
1025,-8.0,-249.0,-59.0,0
1026,-4.0,-249.0,-59.0,0
1027,-4.0,-250.0,-65.0,0
1028,-1.0,-252.0,-59.0,0
1029,-5.0,-251.0,-60.0,0
1030,-6.0,-250.0,-59.0,0
1031,-5.0,-252.0,-59.0,0
1032,-2.0,-252.0,-59.0,0
1033,-2.0,-248.0,-62.0,0
1034,-7.0,-250.0,-61.0,0
1035,-7.0,-252.0,-60.0,0
1036,-8.0,-252.0,-64.0,0
1037,-8.0,-253.0,-61.0,0
1038,-7.0,-252.0,-61.0,0
1039,0.0,-254.0,-63.0,0
1040,-8.0,-247.0,-65.0,0
1041,-10.0,-250.0,-59.0,0
1042,-11.0,-249.0,-64.0,0
1043,-10.0,-250.0,-61.0,0
1044,-13.0,-249.0,-60.0,0
1045,-15.0,-251.0,-61.0,0
1046,-12.0,-252.0,-63.0,0
1047,-14.0,-253.0,-59.0,0
1048,-14.0,-250.0,-58.0,0
1049,-14.0,-250.0,-59.0,0
1050,-11.0,-251.0,-62.0,0
1051,-9.0,-251.0,-63.0,0
1052,-11.0,-249.0,-62.0,0
1053,-9.0,-248.0,-61.0,0
1054,-6.0,-249.0,-63.0,0
1055,-10.0,-250.0,-62.0,0
1056,-7.0,-249.0,-61.0,0
1057,-7.0,-249.0,-62.0,0
1058,-6.0,-252.0,-59.0,0
1059,-9.0,-250.0,-60.0,0
1060,-10.0,-251.0,-61.0,0
1061,-10.0,-261.0,-58.0,0
1062,-9.0,-249.0,-60.0,0
1063,-10.0,-252.0,-58.0,0
1064,-13.0,-250.0,-59.0,0
1065,-11.0,-251.0,-58.0,0
1066,-14.0,-250.0,-62.0,0
1067,-13.0,-250.0,-64.0,0
1068,-15.0,-249.0,-63.0,0
1069,-16.0,-250.0,-63.0,0
1070,-15.0,-256.0,-60.0,0
1071,-18.0,-255.0,-62.0,0
1072,-21.0,-253.0,-60.0,0
1073,-19.0,-256.0,-67.0,0
1074,-18.0,-261.0,-71.0,0
1075,-26.0,-255.0,-68.0,0
1076,-21.0,-260.0,-68.0,0
1077,-19.0,-261.0,-68.0,0
1078,-19.0,-261.0,-67.0,0
1079,-23.0,-262.0,-69.0,0
1080,-19.0,-265.0,-74.0,0
1081,-24.0,-261.0,-69.0,0
1082,-20.0,-266.0,-75.0,0
1083,-26.0,-268.0,-73.0,0
1084,-22.0,-265.0,-72.0,0
1085,-21.0,-265.0,-71.0,0
1086,-19.0,-267.0,-76.0,0
1087,-22.0,-263.0,-77.0,0
1088,-20.0,-267.0,-73.0,0
1089,-20.0,-263.0,-72.0,0
1090,-19.0,-261.0,-76.0,0
1091,-22.0,-258.0,-68.0,0
1092,-23.0,-257.0,-69.0,0
1093,-21.0,-255.0,-66.0,0
1094,-21.0,-255.0,-66.0,0
1095,-31.0,-253.0,-69.0,0
1096,-29.0,-251.0,-66.0,0
1097,-29.0,-252.0,-69.0,0
1098,-27.0,-248.0,-69.0,0
1099,-30.0,-248.0,-66.0,0
1100,-32.0,-247.0,-65.0,0
1101,-33.0,-246.0,-66.0,0
1102,-36.0,-245.0,-66.0,0
1103,-40.0,-238.0,-63.0,0
1104,-34.0,-230.0,-74.0,0
1105,-41.0,-241.0,-62.0,0
1106,-44.0,-239.0,-63.0,0
1107,-46.0,-237.0,-57.0,0
1108,-43.0,-241.0,-58.0,0
1109,-45.0,-241.0,-52.0,0
1110,-41.0,-241.0,-59.0,0
1111,-45.0,-240.0,-54.0,0
1112,-43.0,-238.0,-58.0,0
1113,-44.0,-239.0,-56.0,0
1114,-41.0,-238.0,-51.0,0
1115,-42.0,-241.0,-49.0,0
1116,-39.0,-241.0,-47.0,0
1117,-38.0,-239.0,-45.0,0
1118,-35.0,-242.0,-50.0,0
1119,-36.0,-242.0,-46.0,0
1120,-33.0,-243.0,-50.0,0
1121,-34.0,-242.0,-51.0,0
1122,-33.0,-241.0,-50.0,0
1123,-31.0,-243.0,-53.0,0
1124,-32.0,-247.0,-56.0,0
1125,-34.0,-247.0,-55.0,0
1126,-38.0,-250.0,-61.0,0
1127,-36.0,-249.0,-59.0,0
1128,-37.0,-248.0,-55.0,0
1129,-38.0,-248.0,-57.0,0
1130,-37.0,-247.0,-60.0,0
1131,-37.0,-248.0,-61.0,0
1132,-35.0,-243.0,-64.0,0
1133,-30.0,-246.0,-58.0,0
1134,-33.0,-241.0,-60.0,0
1135,-28.0,-242.0,-58.0,0
1136,-26.0,-241.0,-62.0,0
1137,-21.0,-238.0,-58.0,0
1138,-17.0,-240.0,-55.0,0
1139,-17.0,-237.0,-59.0,0
1140,-14.0,-233.0,-60.0,0
1141,-11.0,-234.0,-60.0,0
1142,-11.0,-231.0,-66.0,0
1143,-10.0,-230.0,-60.0,0
1144,-4.0,-231.0,-63.0,0
1145,0.0,-233.0,-59.0,0
1146,-5.0,-233.0,-58.0,0
1147,-4.0,-238.0,-57.0,0
1148,0.0,-239.0,-49.0,0
1149,0.0,-240.0,-62.0,0
1150,4.0,-244.0,-59.0,0
1151,10.0,-248.0,-59.0,0
1152,21.0,-253.0,-57.0,0
1153,23.0,-255.0,-60.0,0
1154,26.0,-257.0,-65.0,0
1155,33.0,-258.0,-67.0,0
1156,32.0,-261.0,-68.0,0
1157,34.0,-263.0,-72.0,0
1158,40.0,-265.0,-74.0,0
1159,42.0,-265.0,-68.0,0
1160,45.0,-266.0,-65.0,0
1161,44.0,-263.0,-54.0,0
1162,43.0,-264.0,-53.0,0
1163,45.0,-262.0,-40.0,0
1164,42.0,-261.0,-41.0,0
1165,40.0,-260.0,-34.0,0
1166,37.0,-262.0,-32.0,0
1167,33.0,-259.0,-34.0,0
1168,29.0,-263.0,-33.0,0
1169,36.0,-261.0,-34.0,0
1170,25.0,-267.0,-36.0,0
1171,22.0,-272.0,-38.0,0
1172,21.0,-273.0,-41.0,0
1173,25.0,-273.0,-47.0,0
1174,30.0,-270.0,-52.0,0
1175,37.0,-271.0,-53.0,0
1176,39.0,-267.0,-49.0,0
1177,47.0,-265.0,-57.0,0
1178,46.0,-257.0,-59.0,0
1179,47.0,-254.0,-61.0,0
1180,50.0,-252.0,-59.0,0
1181,47.0,-248.0,-59.0,0
1182,47.0,-247.0,-55.0,0
1183,45.0,-244.0,-50.0,0
1184,46.0,-246.0,-49.0,0
1185,42.0,-247.0,-44.0,0
1186,37.0,-246.0,-37.0,0
1187,39.0,-239.0,-37.0,0
1188,38.0,-237.0,-36.0,0
1189,32.0,-234.0,-34.0,0
1190,34.0,-235.0,-37.0,0
1191,36.0,-235.0,-29.0,0
1192,31.0,-233.0,-44.0,0
1193,29.0,-236.0,-44.0,0
1194,22.0,-234.0,-45.0,0
1195,15.0,-233.0,-45.0,0
1196,14.0,-237.0,-43.0,0
1197,5.0,-241.0,-38.0,0
1198,2.0,-241.0,-34.0,0
1199,-6.0,-244.0,-29.0,0
1200,-10.0,-250.0,-29.0,0
1201,-19.0,-252.0,-27.0,0
1202,-26.0,-250.0,-31.0,0
1203,-33.0,-255.0,-43.0,0
1204,-35.0,-256.0,-46.0,0
1205,-39.0,-256.0,-47.0,0
1206,-40.0,-264.0,-48.0,0
1207,-41.0,-264.0,-54.0,0
1208,-37.0,-268.0,-56.0,0
1209,-33.0,-273.0,-54.0,0
1210,-31.0,-268.0,-56.0,0
1211,-27.0,-270.0,-56.0,0
1212,-23.0,-266.0,-56.0,0
1213,-28.0,-271.0,-58.0,0
1214,-22.0,-267.0,-62.0,0
1215,-16.0,-266.0,-65.0,0
1216,-14.0,-266.0,-71.0,0
1217,-14.0,-263.0,-77.0,0
1218,-6.0,-259.0,-84.0,0
1219,0.0,-255.0,-92.0,0
1220,7.0,-247.0,-103.0,0
1221,12.0,-241.0,-117.0,0
1222,11.0,-237.0,-122.0,0
1223,8.0,-230.0,-129.0,0
1224,7.0,-226.0,-122.0,0
1225,6.0,-218.0,-119.0,0
1226,3.0,-215.0,-112.0,0
1227,4.0,-209.0,-102.0,0
1228,8.0,-206.0,-94.0,0
1229,8.0,-205.0,-94.0,0
1230,12.0,-208.0,-88.0,0
1231,10.0,-207.0,-85.0,0
1232,4.0,-205.0,-86.0,0
1233,1.0,-211.0,-88.0,0
1234,2.0,-223.0,-96.0,0
1235,2.0,-216.0,-93.0,0
1236,2.0,-223.0,-108.0,0
1237,1.0,-225.0,-118.0,0
1238,-1.0,-232.0,-127.0,0
1239,0.0,-232.0,-136.0,0
1240,-1.0,-236.0,-145.0,0
1241,-8.0,-239.0,-147.0,0
1242,-19.0,-240.0,-147.0,0
1243,-31.0,-240.0,-140.0,0
1244,-38.0,-242.0,-136.0,0
1245,-47.0,-245.0,-120.0,0
1246,-53.0,-249.0,-108.0,0
1247,-62.0,-250.0,-94.0,0
1248,-59.0,-256.0,-84.0,0
1249,-63.0,-263.0,-80.0,0
1250,-66.0,-266.0,-73.0,0
1251,-64.0,-274.0,-76.0,0
1252,-64.0,-282.0,-69.0,0
1253,-63.0,-283.0,-73.0,0
1254,-60.0,-289.0,-72.0,0
1255,-55.0,-289.0,-77.0,0
1256,-51.0,-294.0,-70.0,0
1257,-43.0,-284.0,-72.0,0
1258,-40.0,-283.0,-81.0,0
1259,-35.0,-278.0,-74.0,0
1260,-37.0,-270.0,-82.0,0
1261,-31.0,-268.0,-90.0,0
1262,-25.0,-268.0,-87.0,0
1263,-26.0,-264.0,-87.0,0
1264,-21.0,-263.0,-87.0,0
1265,-22.0,-264.0,-85.0,0
1266,-23.0,-260.0,-84.0,0
1267,-18.0,-263.0,-80.0,0
1268,-12.0,-261.0,-73.0,0
1269,-9.0,-262.0,-69.0,0
1270,-15.0,-268.0,-70.0,0
1271,-17.0,-270.0,-68.0,0
1272,-21.0,-270.0,-73.0,0
1273,-28.0,-273.0,-81.0,0
1274,-31.0,-275.0,-83.0,0
1275,-32.0,-278.0,-85.0,0
1276,-36.0,-278.0,-88.0,0
1277,-44.0,-283.0,-91.0,0
1278,-39.0,-278.0,-85.0,0
1279,-38.0,-274.0,-84.0,0
1280,-38.0,-270.0,-84.0,0
1281,-36.0,-273.0,-82.0,0
1282,-31.0,-276.0,-78.0,0
1283,-33.0,-273.0,-79.0,0
1284,-32.0,-270.0,-71.0,0
1285,-29.0,-271.0,-75.0,0
1286,-30.0,-265.0,-71.0,0
1287,-31.0,-262.0,-69.0,0
1288,-33.0,-259.0,-68.0,0
1289,-38.0,-255.0,-68.0,0
1290,-39.0,-250.0,-63.0,0
1291,-40.0,-245.0,-61.0,0
1292,-39.0,-242.0,-58.0,0
1293,-39.0,-240.0,-55.0,0
1294,-36.0,-238.0,-56.0,0
1295,-32.0,-236.0,-58.0,0
1296,-38.0,-236.0,-58.0,0
1297,-36.0,-236.0,-56.0,0
1298,-36.0,-235.0,-55.0,0
1299,-42.0,-228.0,-61.0,0
1300,-30.0,-230.0,-54.0,0
1301,-31.0,-229.0,-52.0,0
1302,-27.0,-230.0,-52.0,0
1303,-28.0,-227.0,-51.0,0
1304,-33.0,-219.0,-51.0,0
1305,-40.0,-218.0,-51.0,0
1306,-42.0,-216.0,-51.0,0
1307,-46.0,-220.0,-42.0,0
1308,-53.0,-219.0,-46.0,0
1309,-55.0,-225.0,-43.0,0
1310,-59.0,-226.0,-44.0,0
1311,-65.0,-229.0,-38.0,0
1312,-71.0,-235.0,-40.0,0
1313,-72.0,-238.0,-39.0,0
1314,-79.0,-236.0,-47.0,0
1315,-81.0,-240.0,-47.0,0
1316,-76.0,-244.0,-48.0,0
1317,-82.0,-246.0,-49.0,0
1318,-78.0,-245.0,-53.0,0
1319,-70.0,-246.0,-52.0,0
1320,-68.0,-248.0,-57.0,0
1321,-58.0,-241.0,-47.0,0
1322,-64.0,-241.0,-58.0,0
1323,-58.0,-243.0,-57.0,0
1324,-52.0,-238.0,-56.0,0
1325,-45.0,-235.0,-55.0,0
1326,-39.0,-228.0,-53.0,0
1327,-41.0,-221.0,-52.0,0
1328,-36.0,-218.0,-48.0,0
1329,-36.0,-213.0,-47.0,0
1330,-37.0,-215.0,-46.0,0
1331,-32.0,-212.0,-48.0,0
1332,-31.0,-217.0,-43.0,0
1333,-30.0,-219.0,-49.0,0
1334,-32.0,-220.0,-44.0,0
1335,-36.0,-219.0,-38.0,0
1336,-33.0,-225.0,-38.0,0
1337,-38.0,-225.0,-36.0,0
1338,-37.0,-228.0,-33.0,0
1339,-40.0,-232.0,-32.0,0
1340,-41.0,-232.0,-33.0,0
1341,-37.0,-239.0,-33.0,0
1342,-40.0,-235.0,-33.0,0
1343,-42.0,-242.0,-37.0,0
1344,-44.0,-244.0,-35.0,0
1345,-42.0,-247.0,-36.0,0
1346,-41.0,-249.0,-33.0,0
1347,-38.0,-249.0,-34.0,0
1348,-41.0,-247.0,-32.0,0
1349,-40.0,-245.0,-32.0,0
1350,-39.0,-244.0,-34.0,0
1351,-39.0,-244.0,-29.0,0
1352,-40.0,-240.0,-28.0,0
1353,-39.0,-242.0,-28.0,0
1354,-43.0,-238.0,-30.0,0
1355,-48.0,-229.0,-24.0,0
1356,-43.0,-228.0,-20.0,0
1357,-46.0,-224.0,-22.0,0
1358,-52.0,-221.0,-20.0,0
1359,-49.0,-223.0,-20.0,0
1360,-52.0,-223.0,-20.0,0
1361,-53.0,-222.0,-21.0,0
1362,-47.0,-224.0,-23.0,0
1363,-50.0,-227.0,-27.0,0
1364,-48.0,-223.0,-22.0,0
1365,-48.0,-232.0,-28.0,0
1366,-47.0,-236.0,-27.0,0
1367,-50.0,-239.0,-21.0,0
1368,-50.0,-240.0,-20.0,0
1369,-44.0,-243.0,-20.0,0
1370,-47.0,-236.0,-27.0,0
1371,-49.0,-237.0,-28.0,0
1372,-54.0,-238.0,-34.0,0
1373,-53.0,-240.0,-31.0,0
1374,-59.0,-245.0,-28.0,0
1375,-62.0,-242.0,-23.0,0
1376,-65.0,-248.0,-20.0,0
1377,-66.0,-248.0,-25.0,0
1378,-69.0,-247.0,-25.0,0
1379,-69.0,-247.0,-23.0,0
1380,-71.0,-247.0,-29.0,0
1381,-70.0,-251.0,-32.0,0
1382,-68.0,-247.0,-33.0,0
1383,-65.0,-248.0,-36.0,0
1384,-66.0,-245.0,-37.0,0
1385,-69.0,-240.0,-39.0,0
1386,-62.0,-230.0,-35.0,0
1387,-64.0,-235.0,-42.0,0
1388,-69.0,-239.0,-41.0,0
1389,-69.0,-238.0,-43.0,0
1390,-75.0,-239.0,-48.0,0
1391,-77.0,-236.0,-42.0,0
1392,-79.0,-238.0,-44.0,0
1393,-79.0,-241.0,-44.0,0
1394,-85.0,-241.0,-40.0,0
1395,-83.0,-239.0,-44.0,0
1396,-85.0,-240.0,-43.0,0
1397,-92.0,-237.0,-43.0,0
1398,-94.0,-233.0,-45.0,0
1399,-96.0,-232.0,-48.0,0
1400,-95.0,-230.0,-46.0,0
1401,-100.0,-232.0,-56.0,0
1402,-104.0,-227.0,-57.0,0
1403,-104.0,-223.0,-65.0,0
1404,-105.0,-223.0,-69.0,0
1405,-107.0,-220.0,-75.0,0
1406,-108.0,-215.0,-89.0,0
1407,-111.0,-207.0,-94.0,0
1408,-112.0,-208.0,-102.0,0
1409,-118.0,-189.0,-112.0,0
1410,-117.0,-188.0,-117.0,0
1411,-123.0,-184.0,-118.0,0
1412,-119.0,-181.0,-123.0,0
1413,-114.0,-182.0,-121.0,0
1414,-114.0,-178.0,-122.0,0
1415,-106.0,-172.0,-121.0,0
1416,-104.0,-169.0,-125.0,0
1417,-104.0,-164.0,-127.0,0
1418,-104.0,-158.0,-130.0,0
1419,-105.0,-157.0,-131.0,0
1420,-95.0,-157.0,-129.0,0
1421,-92.0,-151.0,-134.0,0
1422,-91.0,-146.0,-134.0,0
1423,-95.0,-146.0,-131.0,0
1424,-91.0,-148.0,-125.0,0
1425,-92.0,-146.0,-116.0,0
1426,-93.0,-150.0,-111.0,0
1427,-97.0,-150.0,-103.0,0
1428,-96.0,-155.0,-96.0,0
1429,-98.0,-159.0,-92.0,0
1430,-89.0,-158.0,-86.0,0
1431,-108.0,-176.0,-81.0,0
1432,-107.0,-178.0,-83.0,0
1433,-116.0,-184.0,-78.0,0
1434,-125.0,-189.0,-73.0,0
1435,-130.0,-189.0,-77.0,0
1436,-140.0,-193.0,-78.0,0
1437,-142.0,-202.0,-80.0,0
1438,-148.0,-203.0,-80.0,0
1439,-143.0,-209.0,-84.0,0
1440,-141.0,-213.0,-90.0,0
1441,-147.0,-207.0,-95.0,0
1442,-147.0,-197.0,-104.0,0
1443,-140.0,-190.0,-116.0,0
1444,-133.0,-187.0,-120.0,0
1445,-124.0,-200.0,-111.0,0
1446,-120.0,-208.0,-89.0,0
1447,-127.0,-217.0,-70.0,0
1448,-138.0,-218.0,-55.0,0
1449,-147.0,-215.0,-48.0,0
1450,-148.0,-206.0,-47.0,0
1451,-133.0,-187.0,-56.0,0
1452,-119.0,-172.0,-68.0,0
1453,-98.0,-155.0,-85.0,0
1454,-80.0,-142.0,-90.0,0
1455,-66.0,-138.0,-108.0,0
1456,-56.0,-135.0,-116.0,0
1457,-49.0,-134.0,-127.0,0
1458,-45.0,-129.0,-137.0,0
1459,-41.0,-134.0,-143.0,0
1460,-41.0,-137.0,-138.0,0
1461,-44.0,-142.0,-134.0,0
1462,-46.0,-150.0,-138.0,0
1463,-60.0,-160.0,-135.0,0
1464,-62.0,-169.0,-130.0,0
1465,-71.0,-177.0,-127.0,0
1466,-82.0,-177.0,-123.0,0
1467,-90.0,-184.0,-115.0,0
1468,-99.0,-199.0,-111.0,0
1469,-102.0,-208.0,-111.0,0
1470,-122.0,-218.0,-114.0,0
1471,-127.0,-230.0,-120.0,0
1472,-128.0,-229.0,-131.0,0
1473,-144.0,-230.0,-139.0,0
1474,-147.0,-224.0,-141.0,0
1475,-147.0,-218.0,-144.0,0
1476,-145.0,-215.0,-145.0,0
1477,-153.0,-208.0,-147.0,0
1478,-146.0,-209.0,-133.0,0
1479,-144.0,-209.0,-132.0,0
1480,-138.0,-213.0,-130.0,0
1481,-131.0,-214.0,-124.0,0
1482,-125.0,-204.0,-128.0,0
1483,-118.0,-196.0,-129.0,0
1484,-114.0,-187.0,-137.0,0
1485,-107.0,-189.0,-137.0,0
1486,-115.0,-174.0,-145.0,0
1487,-114.0,-160.0,-151.0,0
1488,-115.0,-148.0,-153.0,0
1489,-122.0,-146.0,-152.0,0
1490,-127.0,-147.0,-150.0,0
1491,-130.0,-141.0,-154.0,0
1492,-135.0,-143.0,-152.0,0
1493,-137.0,-147.0,-155.0,0
1494,-145.0,-143.0,-156.0,0
1495,-151.0,-143.0,-159.0,0
1496,-155.0,-146.0,-164.0,0
1497,-158.0,-145.0,-167.0,0
1498,-165.0,-153.0,-167.0,0
1499,-168.0,-161.0,-167.0,0
1500,-166.0,-168.0,-163.0,0
1501,-169.0,-172.0,-161.0,0
1502,-165.0,-174.0,-160.0,0
1503,-165.0,-176.0,-171.0,0
1504,-176.0,-171.0,-177.0,0
1505,-173.0,-166.0,-176.0,0
1506,-180.0,-162.0,-188.0,0
1507,-180.0,-167.0,-187.0,0
1508,-182.0,-160.0,-192.0,0
1509,-175.0,-162.0,-195.0,0
1510,-173.0,-163.0,-188.0,0
1511,-168.0,-167.0,-179.0,0
1512,-158.0,-170.0,-177.0,0
1513,-155.0,-162.0,-165.0,0
1514,-150.0,-157.0,-154.0,0
1515,-148.0,-156.0,-147.0,0
1516,-151.0,-150.0,-143.0,0
1517,-152.0,-153.0,-137.0,0
1518,-150.0,-150.0,-138.0,0
1519,-153.0,-153.0,-136.0,0
1520,-153.0,-147.0,-133.0,0
1521,-153.0,-149.0,-128.0,0
1522,-149.0,-150.0,-138.0,0
1523,-145.0,-155.0,-142.0,0
1524,-137.0,-158.0,-143.0,0
1525,-138.0,-165.0,-148.0,0
1526,-131.0,-167.0,-149.0,0
1527,-136.0,-170.0,-147.0,0
1528,-126.0,-170.0,-147.0,0
1529,-131.0,-169.0,-149.0,0
1530,-134.0,-172.0,-142.0,0
1531,-137.0,-174.0,-142.0,0
1532,-136.0,-180.0,-142.0,0
1533,-140.0,-184.0,-140.0,0
1534,-142.0,-189.0,-143.0,0
1535,-145.0,-196.0,-130.0,0
1536,-155.0,-199.0,-130.0,0
1537,-168.0,-195.0,-130.0,0
1538,-172.0,-194.0,-130.0,0
1539,-181.0,-187.0,-134.0,0
1540,-177.0,-189.0,-130.0,0
1541,-171.0,-185.0,-131.0,0
1542,-157.0,-184.0,-128.0,0
1543,-159.0,-182.0,-123.0,0
1544,-148.0,-180.0,-122.0,0
1545,-147.0,-173.0,-124.0,0
1546,-145.0,-172.0,-124.0,0
1547,-142.0,-169.0,-124.0,0
1548,-143.0,-166.0,-129.0,0
1549,-142.0,-164.0,-134.0,0
1550,-133.0,-164.0,-139.0,0
1551,-139.0,-168.0,-142.0,0
1552,-140.0,-163.0,-146.0,0
1553,-140.0,-173.0,-148.0,0
1554,-140.0,-173.0,-154.0,0
1555,-143.0,-184.0,-151.0,0
1556,-143.0,-184.0,-149.0,0
1557,-154.0,-187.0,-153.0,0
1558,-162.0,-184.0,-150.0,0
1559,-167.0,-185.0,-153.0,0
1560,-163.0,-177.0,-150.0,0
1561,-167.0,-187.0,-147.0,0
1562,-161.0,-185.0,-146.0,0
1563,-156.0,-188.0,-147.0,0
1564,-159.0,-184.0,-146.0,0
1565,-152.0,-184.0,-144.0,0
1566,-149.0,-179.0,-142.0,0
1567,-144.0,-181.0,-144.0,0
1568,-139.0,-178.0,-144.0,0
1569,-133.0,-178.0,-141.0,0
1570,-132.0,-180.0,-142.0,0
1571,-129.0,-177.0,-143.0,0
1572,-126.0,-181.0,-143.0,0
1573,-124.0,-177.0,-142.0,0
1574,-118.0,-184.0,-146.0,0
1575,-119.0,-183.0,-141.0,0
1576,-119.0,-183.0,-145.0,0
1577,-116.0,-184.0,-134.0,0
1578,-121.0,-187.0,-137.0,0
1579,-123.0,-185.0,-136.0,0
1580,-118.0,-192.0,-136.0,0
1581,-122.0,-186.0,-130.0,0
1582,-113.0,-196.0,-131.0,0
1583,-124.0,-193.0,-141.0,0
1584,-125.0,-188.0,-136.0,0
1585,-122.0,-190.0,-138.0,0
1586,-123.0,-190.0,-139.0,0
1587,-122.0,-187.0,-134.0,0
1588,-120.0,-185.0,-129.0,0
1589,-119.0,-185.0,-130.0,0
1590,-114.0,-189.0,-135.0,0
1591,-112.0,-188.0,-132.0,0
1592,-103.0,-189.0,-139.0,0
1593,-99.0,-195.0,-139.0,0
1594,-98.0,-194.0,-143.0,0
1595,-98.0,-191.0,-143.0,0
1596,-98.0,-193.0,-142.0,0
1597,-96.0,-193.0,-139.0,0
1598,-98.0,-191.0,-145.0,0
1599,-99.0,-186.0,-139.0,0
1600,-98.0,-187.0,-141.0,0
1601,-95.0,-188.0,-141.0,0
1602,-95.0,-186.0,-138.0,0
1603,-90.0,-187.0,-137.0,0
1604,-95.0,-186.0,-135.0,0
1605,-87.0,-191.0,-137.0,0
1606,-81.0,-190.0,-136.0,0
1607,-76.0,-204.0,-146.0,0
1608,-78.0,-192.0,-143.0,0
1609,-75.0,-195.0,-141.0,0
1610,-72.0,-194.0,-141.0,0
1611,-70.0,-191.0,-136.0,0
1612,-67.0,-193.0,-130.0,0
1613,-70.0,-191.0,-131.0,0
1614,-68.0,-192.0,-136.0,0
1615,-65.0,-190.0,-132.0,0
1616,-63.0,-194.0,-131.0,0
1617,-65.0,-199.0,-132.0,0
1618,-68.0,-195.0,-129.0,0
1619,-66.0,-201.0,-126.0,0
1620,-64.0,-202.0,-126.0,0
1621,-63.0,-207.0,-122.0,0
1622,-62.0,-213.0,-125.0,0
1623,-52.0,-216.0,-124.0,0
1624,-53.0,-219.0,-122.0,0
1625,-47.0,-222.0,-118.0,0
1626,-40.0,-233.0,-107.0,0
1627,-36.0,-226.0,-109.0,0
1628,-38.0,-223.0,-102.0,0
1629,-34.0,-225.0,-101.0,0
1630,-36.0,-236.0,-100.0,0
1631,-33.0,-237.0,-98.0,0
1632,-36.0,-240.0,-98.0,0
1633,-25.0,-249.0,-93.0,0
1634,-26.0,-256.0,-98.0,0
1635,-18.0,-260.0,-96.0,0
1636,-12.0,-267.0,-86.0,0
1637,-5.0,-263.0,-80.0,0
1638,0.0,-268.0,-80.0,0
1639,0.0,-275.0,-75.0,0
1640,2.0,-276.0,-67.0,0
1641,3.0,-281.0,-62.0,0
1642,0.0,-290.0,-54.0,0
1643,-1.0,-294.0,-51.0,0
1644,-8.0,-297.0,-48.0,0
1645,-14.0,-311.0,-47.0,0
1646,-16.0,-312.0,-53.0,0
1647,-12.0,-329.0,-55.0,0
1648,-18.0,-326.0,-50.0,0
1649,-18.0,-334.0,-45.0,0
1650,-20.0,-325.0,-45.0,0
1651,-17.0,-322.0,-50.0,0
1652,-18.0,-326.0,-48.0,0
1653,-23.0,-323.0,-43.0,0
1654,-26.0,-321.0,-46.0,0
1655,-32.0,-327.0,-45.0,0
1656,-33.0,-322.0,-52.0,0
1657,-29.0,-319.0,-48.0,0
1658,-28.0,-327.0,-52.0,0
1659,-27.0,-320.0,-59.0,0
1660,-24.0,-320.0,-57.0,0
1661,-22.0,-316.0,-52.0,0
1662,-9.0,-313.0,-58.0,0
1663,-11.0,-308.0,-56.0,0
1664,-2.0,-310.0,-53.0,0
1665,-2.0,-319.0,-61.0,0
1666,2.0,-318.0,-62.0,0
1667,2.0,-308.0,-56.0,0
1668,1.0,-303.0,-47.0,0
1669,5.0,-307.0,-34.0,0
1670,4.0,-296.0,-42.0,0
1671,3.0,-295.0,-37.0,0
1672,2.0,-292.0,-46.0,0
1673,0.0,-286.0,-46.0,0
1674,5.0,-283.0,-43.0,0
1675,1.0,-281.0,-40.0,0
1676,2.0,-277.0,-33.0,0
1677,1.0,-275.0,-31.0,0
1678,7.0,-274.0,-30.0,0
1679,10.0,-263.0,-35.0,0
1680,10.0,-265.0,-30.0,0
1681,3.0,-260.0,-35.0,0
1682,2.0,-257.0,-35.0,0
1683,0.0,-252.0,-31.0,0
1684,0.0,-251.0,-25.0,0
1685,-1.0,-249.0,-19.0,0
1686,0.0,-249.0,-18.0,0
1687,1.0,-246.0,-15.0,0
1688,-1.0,-242.0,-15.0,0
1689,-4.0,-247.0,-8.0,0
1690,-10.0,-244.0,-12.0,0
1691,1.0,-252.0,-8.0,0
1692,3.0,-249.0,-10.0,0
1693,5.0,-248.0,-12.0,0
1694,11.0,-248.0,-15.0,0
1695,9.0,-249.0,-13.0,0
1696,11.0,-253.0,-15.0,0
1697,7.0,-251.0,-17.0,0
1698,2.0,-250.0,-18.0,0
1699,5.0,-250.0,-24.0,0
1700,1.0,-256.0,-29.0,0
1701,0.0,-251.0,-28.0,0
1702,0.0,-250.0,-29.0,0
1703,-3.0,-254.0,-24.0,0
1704,-5.0,-252.0,-22.0,0
1705,-7.0,-250.0,-15.0,0
1706,0.0,-251.0,-13.0,0
1707,0.0,-255.0,-13.0,0
1708,0.0,-256.0,-14.0,0
1709,0.0,-253.0,-16.0,0
1710,3.0,-253.0,-10.0,0
1711,8.0,-254.0,-8.0,0
1712,16.0,-251.0,-11.0,0
1713,23.0,-252.0,-14.0,0
1714,27.0,-249.0,-18.0,0
1715,33.0,-250.0,-20.0,0
1716,38.0,-254.0,-26.0,0
1717,33.0,-250.0,-25.0,0
1718,39.0,-248.0,-21.0,0
1719,37.0,-246.0,-23.0,0
1720,37.0,-250.0,-25.0,0
1721,32.0,-254.0,-21.0,0
1722,26.0,-254.0,-19.0,0
1723,27.0,-263.0,-22.0,0
1724,25.0,-259.0,-27.0,0
1725,25.0,-261.0,-31.0,0
1726,28.0,-259.0,-27.0,0
1727,28.0,-264.0,-33.0,0
1728,31.0,-262.0,-28.0,0
1729,32.0,-264.0,-27.0,0
1730,36.0,-266.0,-22.0,0
1731,41.0,-267.0,-20.0,0
1732,38.0,-264.0,-16.0,0
1733,45.0,-270.0,-14.0,0
1734,48.0,-262.0,-13.0,0
1735,51.0,-265.0,-10.0,0
1736,49.0,-268.0,-9.0,0
1737,46.0,-270.0,-4.0,0
1738,38.0,-271.0,-8.0,0
1739,42.0,-267.0,-7.0,0
1740,37.0,-258.0,-13.0,0
1741,36.0,-256.0,-19.0,0
1742,35.0,-251.0,-19.0,0
1743,31.0,-249.0,-16.0,0
1744,31.0,-250.0,-13.0,0
1745,32.0,-249.0,-9.0,0
1746,28.0,-248.0,-10.0,0
1747,30.0,-249.0,-6.0,0
1748,27.0,-249.0,-6.0,0
1749,28.0,-249.0,-5.0,0
1750,24.0,-248.0,1.0,0
1751,20.0,-247.0,-2.0,0
1752,25.0,-244.0,-2.0,0
1753,22.0,-244.0,0.0,0
1754,18.0,-249.0,4.0,0
1755,10.0,-243.0,-7.0,0
1756,10.0,-249.0,2.0,0
1757,15.0,-252.0,1.0,0
1758,17.0,-247.0,4.0,0
1759,18.0,-247.0,3.0,0
1760,23.0,-245.0,3.0,0
1761,27.0,-248.0,10.0,0
1762,31.0,-251.0,14.0,0
1763,32.0,-254.0,13.0,0
1764,32.0,-256.0,14.0,0
1765,33.0,-255.0,14.0,0
1766,38.0,-251.0,16.0,0
1767,36.0,-251.0,14.0,0
1768,43.0,-257.0,16.0,0
1769,40.0,-256.0,10.0,0
1770,39.0,-257.0,10.0,0
1771,32.0,-252.0,13.0,0
1772,31.0,-255.0,15.0,0
1773,25.0,-256.0,16.0,0
1774,21.0,-254.0,14.0,0
1775,13.0,-256.0,13.0,0
1776,11.0,-260.0,13.0,0
1777,5.0,-250.0,19.0,0
1778,11.0,-260.0,20.0,0
1779,12.0,-260.0,28.0,0
1780,14.0,-258.0,33.0,0
1781,13.0,-260.0,36.0,0
1782,20.0,-256.0,32.0,0
1783,22.0,-256.0,29.0,0
1784,25.0,-255.0,28.0,0
1785,25.0,-251.0,31.0,0
1786,29.0,-249.0,22.0,0
1787,32.0,-248.0,30.0,0
1788,29.0,-246.0,24.0,0
1789,31.0,-246.0,22.0,0
1790,29.0,-248.0,24.0,0
1791,27.0,-245.0,25.0,0
1792,27.0,-246.0,31.0,0
1793,23.0,-244.0,30.0,0
1794,23.0,-246.0,36.0,0
1795,20.0,-248.0,36.0,0
1796,17.0,-249.0,40.0,0
1797,15.0,-251.0,37.0,0
1798,18.0,-246.0,36.0,0
1799,13.0,-252.0,35.0,0
1800,14.0,-251.0,31.0,0
1801,19.0,-254.0,36.0,0
1802,13.0,-250.0,35.0,0
1803,11.0,-249.0,36.0,0
1804,3.0,-247.0,33.0,0
1805,-2.0,-246.0,34.0,0
1806,-5.0,-248.0,31.0,0
1807,-7.0,-248.0,37.0,0
1808,-3.0,-248.0,37.0,0
1809,-1.0,-251.0,41.0,0
1810,-3.0,-247.0,39.0,0
1811,-1.0,-250.0,39.0,0
1812,0.0,-249.0,43.0,0
1813,-3.0,-247.0,37.0,0
1814,0.0,-248.0,39.0,0
1815,0.0,-244.0,41.0,0
1816,3.0,-242.0,41.0,0
1817,8.0,-242.0,38.0,0
1818,-2.0,-238.0,40.0,0
1819,5.0,-240.0,37.0,0
1820,-6.0,-239.0,42.0,0
1821,8.0,-239.0,38.0,0
1822,5.0,-240.0,43.0,0
1823,9.0,-240.0,44.0,0
1824,15.0,-240.0,44.0,0
1825,17.0,-240.0,45.0,0
1826,56.0,-237.0,35.0,0
1827,11.0,-244.0,51.0,0
1828,7.0,-244.0,50.0,0
1829,14.0,-244.0,50.0,0
1830,9.0,-244.0,53.0,0
1831,5.0,-242.0,54.0,0
1832,10.0,-241.0,49.0,0
1833,15.0,-241.0,47.0,0
1834,14.0,-243.0,53.0,0
1835,17.0,-246.0,46.0,0
1836,6.0,-242.0,43.0,0
1837,1.0,-243.0,42.0,0
1838,3.0,-246.0,39.0,0
1839,0.0,-247.0,40.0,0
1840,-3.0,-247.0,36.0,0
1841,0.0,-247.0,42.0,0
1842,-8.0,-246.0,30.0,0
1843,-9.0,-247.0,42.0,0
1844,-4.0,-248.0,40.0,0
1845,-3.0,-248.0,39.0,0
1846,-3.0,-249.0,40.0,0
1847,-2.0,-254.0,38.0,0
1848,-4.0,-258.0,37.0,0
1849,-9.0,-258.0,37.0,0
1850,-10.0,-258.0,36.0,0
1851,-12.0,-264.0,31.0,0
1852,-14.0,-264.0,32.0,0
1853,-17.0,-268.0,34.0,0
1854,-15.0,-268.0,29.0,0
1855,-18.0,-268.0,26.0,0
1856,-22.0,-274.0,29.0,0
1857,-23.0,-271.0,30.0,0
1858,-21.0,-270.0,34.0,0
1859,-17.0,-269.0,33.0,0
1860,-19.0,-262.0,38.0,0
1861,-15.0,-261.0,35.0,0
1862,-15.0,-258.0,42.0,0
1863,-9.0,-255.0,31.0,0
1864,-8.0,-257.0,38.0,0
1865,-8.0,-254.0,36.0,0
1866,1.0,-259.0,35.0,0
1867,6.0,-258.0,33.0,0
1868,7.0,-257.0,36.0,0
1869,15.0,-261.0,39.0,0
1870,23.0,-258.0,37.0,0
1871,27.0,-260.0,37.0,0
1872,22.0,-256.0,39.0,0
1873,22.0,-253.0,39.0,0
1874,17.0,-249.0,40.0,0
1875,20.0,-250.0,33.0,0
1876,14.0,-249.0,33.0,0
1877,6.0,-249.0,36.0,0
1878,5.0,-249.0,34.0,0
1879,-3.0,-252.0,29.0,0
1880,-3.0,-251.0,29.0,0
1881,0.0,-250.0,21.0,0
1882,-2.0,-250.0,21.0,0
1883,1.0,-246.0,14.0,0
1884,2.0,-249.0,16.0,0
1885,1.0,-249.0,11.0,0
1886,6.0,-250.0,10.0,0
1887,2.0,-249.0,7.0,0
1888,0.0,-250.0,6.0,0
1889,-1.0,-250.0,5.0,0
1890,-4.0,-251.0,6.0,0
1891,-7.0,-248.0,8.0,0
1892,-9.0,-243.0,8.0,0
1893,-16.0,-242.0,8.0,0
1894,-14.0,-240.0,14.0,0
1895,-14.0,-237.0,10.0,0
1896,-12.0,-246.0,9.0,0
1897,-17.0,-251.0,11.0,0
1898,-18.0,-257.0,14.0,0
1899,-18.0,-264.0,14.0,0
1900,-18.0,-266.0,15.0,0
1901,-22.0,-266.0,19.0,0
1902,-22.0,-268.0,20.0,0
1903,-23.0,-270.0,23.0,0
1904,-24.0,-267.0,21.0,0
1905,-17.0,-268.0,21.0,0
1906,-15.0,-270.0,21.0,0
1907,-11.0,-274.0,22.0,0
1908,-16.0,-271.0,20.0,0
1909,-15.0,-268.0,21.0,0
1910,-17.0,-267.0,22.0,0
1911,-24.0,-264.0,27.0,0
1912,-19.0,-267.0,28.0,0
1913,-23.0,-268.0,26.0,0
1914,-18.0,-267.0,26.0,0
1915,-17.0,-269.0,24.0,0
1916,-16.0,-268.0,21.0,0
1917,-14.0,-267.0,20.0,0
1918,-11.0,-264.0,18.0,0
1919,-4.0,-265.0,15.0,0
1920,-3.0,-264.0,20.0,0
1921,1.0,-262.0,22.0,0
1922,2.0,-264.0,28.0,0
1923,7.0,-259.0,32.0,0
1924,14.0,-257.0,33.0,0
1925,14.0,-250.0,40.0,0
1926,13.0,-249.0,43.0,0
1927,17.0,-249.0,39.0,0
1928,7.0,-248.0,39.0,0
1929,14.0,-249.0,42.0,0
1930,17.0,-248.0,46.0,0
1931,15.0,-248.0,43.0,0
1932,16.0,-248.0,44.0,0
1933,19.0,-251.0,43.0,0
1934,20.0,-249.0,43.0,0
1935,20.0,-251.0,41.0,0
1936,24.0,-251.0,42.0,0
1937,24.0,-253.0,44.0,0
1938,20.0,-253.0,42.0,0
1939,21.0,-253.0,41.0,0
1940,19.0,-254.0,42.0,0
1941,19.0,-256.0,44.0,0
1942,18.0,-258.0,42.0,0
1943,14.0,-253.0,43.0,0
1944,11.0,-252.0,44.0,0
1945,10.0,-252.0,46.0,0
1946,8.0,-251.0,50.0,0
1947,5.0,-249.0,53.0,0
1948,4.0,-251.0,50.0,0
1949,5.0,-247.0,55.0,0
1950,3.0,-248.0,58.0,0
1951,2.0,-250.0,56.0,0
1952,-1.0,-248.0,56.0,0
1953,-3.0,-246.0,57.0,0
1954,-2.0,-242.0,55.0,0
1955,-3.0,-241.0,55.0,0
1956,0.0,-243.0,52.0,0
1957,-1.0,-242.0,54.0,0
1958,2.0,-241.0,54.0,0
1959,-3.0,-240.0,52.0,0
1960,-7.0,-237.0,52.0,0
1961,-3.0,-243.0,44.0,0
1962,-9.0,-245.0,44.0,0
1963,-8.0,-248.0,40.0,0
1964,-3.0,-255.0,35.0,0
1965,-3.0,-257.0,26.0,0
1966,-7.0,-259.0,21.0,0
1967,-2.0,-262.0,16.0,0
1968,1.0,-262.0,11.0,0
1969,-2.0,-264.0,12.0,0
1970,2.0,-265.0,10.0,0
1971,3.0,-260.0,15.0,0
1972,4.0,-265.0,25.0,0
1973,7.0,-259.0,28.0,0
1974,13.0,-256.0,31.0,0
1975,12.0,-258.0,38.0,0
1976,16.0,-255.0,37.0,0
1977,21.0,-253.0,43.0,0
1978,28.0,-255.0,38.0,0
1979,29.0,-253.0,34.0,0
1980,27.0,-248.0,35.0,0
1981,38.0,-252.0,36.0,0
1982,35.0,-247.0,37.0,0
1983,37.0,-247.0,35.0,0
1984,40.0,-242.0,42.0,0
1985,39.0,-238.0,44.0,0
1986,42.0,-239.0,42.0,0
1987,40.0,-232.0,51.0,0
1988,33.0,-232.0,51.0,0
1989,34.0,-235.0,54.0,0
1990,34.0,-241.0,61.0,0
1991,32.0,-242.0,60.0,0
1992,33.0,-243.0,64.0,0
1993,25.0,-255.0,72.0,0
1994,33.0,-243.0,70.0,0
1995,34.0,-248.0,72.0,0
1996,38.0,-248.0,75.0,0
1997,37.0,-249.0,81.0,0
1998,34.0,-252.0,82.0,0
1999,39.0,-250.0,81.0,0
2000,38.0,-245.0,78.0,0
2001,39.0,-246.0,80.0,0
2002,41.0,-245.0,80.0,0
2003,40.0,-244.0,77.0,0
2004,42.0,-245.0,81.0,0
2005,38.0,-243.0,74.0,0
2006,38.0,-244.0,70.0,0
2007,37.0,-244.0,70.0,0
2008,38.0,-245.0,64.0,0
2009,36.0,-245.0,57.0,0
2010,28.0,-241.0,57.0,0
2011,25.0,-244.0,56.0,0
2012,27.0,-245.0,50.0,0
2013,24.0,-245.0,46.0,0
2014,23.0,-250.0,43.0,0
2015,15.0,-242.0,41.0,0
2016,18.0,-244.0,40.0,0
2017,14.0,-245.0,39.0,0
2018,16.0,-246.0,42.0,0
2019,16.0,-244.0,39.0,0
2020,13.0,-246.0,40.0,0
2021,12.0,-244.0,44.0,0
2022,13.0,-244.0,45.0,0
2023,14.0,-243.0,47.0,0
2024,20.0,-245.0,46.0,0
2025,21.0,-246.0,49.0,0
2026,23.0,-247.0,48.0,0
2027,26.0,-244.0,50.0,0
2028,25.0,-249.0,53.0,0
2029,26.0,-248.0,55.0,0
2030,29.0,-249.0,57.0,0
2031,31.0,-250.0,60.0,0
2032,29.0,-249.0,60.0,0
2033,32.0,-250.0,59.0,0
2034,33.0,-251.0,57.0,0
2035,32.0,-249.0,59.0,0
2036,32.0,-250.0,58.0,0
2037,41.0,-244.0,67.0,0
2038,30.0,-249.0,63.0,0
2039,27.0,-250.0,67.0,0
2040,29.0,-247.0,70.0,0
2041,25.0,-248.0,68.0,0
2042,26.0,-246.0,67.0,0
2043,24.0,-245.0,66.0,0
2044,20.0,-244.0,67.0,0
2045,24.0,-245.0,68.0,0
2046,23.0,-245.0,66.0,0
2047,22.0,-244.0,65.0,0
2048,21.0,-244.0,65.0,0
2049,22.0,-244.0,65.0,0
2050,21.0,-244.0,65.0,0
2051,19.0,-245.0,64.0,0
2052,21.0,-243.0,64.0,0
2053,19.0,-247.0,66.0,0
2054,17.0,-245.0,63.0,0
2055,22.0,-246.0,61.0,0
2056,22.0,-246.0,61.0,0
2057,21.0,-246.0,58.0,0
2058,21.0,-245.0,58.0,0
2059,30.0,-239.0,61.0,0
2060,25.0,-243.0,60.0,0
2061,25.0,-243.0,57.0,0
2062,27.0,-242.0,60.0,0
2063,27.0,-244.0,58.0,0
2064,27.0,-244.0,59.0,0
2065,31.0,-242.0,62.0,0
2066,27.0,-242.0,63.0,0
2067,30.0,-245.0,65.0,0
2068,29.0,-244.0,63.0,0
2069,28.0,-248.0,60.0,0
2070,31.0,-245.0,61.0,0
2071,30.0,-246.0,65.0,0
2072,29.0,-242.0,68.0,0
2073,26.0,-244.0,65.0,0
2074,29.0,-244.0,62.0,0
2075,31.0,-245.0,67.0,0
2076,27.0,-245.0,66.0,0
2077,29.0,-245.0,66.0,0
2078,29.0,-244.0,63.0,0
2079,32.0,-244.0,64.0,0
2080,23.0,-240.0,59.0,0
2081,25.0,-245.0,66.0,0
2082,27.0,-244.0,66.0,0
2083,28.0,-243.0,63.0,0
2084,26.0,-248.0,64.0,0
2085,28.0,-246.0,69.0,0
2086,28.0,-245.0,66.0,0
2087,27.0,-249.0,66.0,0
2088,29.0,-247.0,66.0,0
2089,28.0,-244.0,62.0,0
2090,26.0,-245.0,64.0,0
2091,30.0,-248.0,65.0,0
2092,32.0,-244.0,67.0,0
2093,31.0,-247.0,66.0,0
2094,34.0,-244.0,63.0,0
2095,29.0,-246.0,67.0,0
2096,29.0,-243.0,64.0,0
2097,31.0,-245.0,66.0,0
2098,30.0,-244.0,67.0,0
2099,32.0,-245.0,66.0,0
2100,31.0,-244.0,62.0,0
2101,31.0,-243.0,66.0,0
2102,31.0,-236.0,58.0,0
2103,31.0,-243.0,63.0,0
2104,31.0,-242.0,63.0,0
2105,30.0,-244.0,66.0,0
2106,28.0,-245.0,62.0,0
2107,29.0,-243.0,66.0,0
2108,33.0,-245.0,66.0,0
2109,28.0,-244.0,64.0,0
2110,31.0,-245.0,69.0,0
2111,30.0,-243.0,65.0,0
2112,30.0,-241.0,65.0,0
2113,31.0,-246.0,68.0,0
2114,29.0,-242.0,63.0,0
2115,31.0,-243.0,62.0,0
2116,29.0,-241.0,64.0,0
2117,28.0,-243.0,60.0,0
2118,30.0,-242.0,63.0,0
2119,30.0,-243.0,60.0,0
2120,31.0,-243.0,63.0,0
2121,30.0,-245.0,58.0,0
2122,28.0,-241.0,62.0,0
2123,32.0,-244.0,63.0,0
2124,34.0,-245.0,57.0,0
2125,25.0,-245.0,59.0,0
2126,27.0,-243.0,59.0,0
2127,26.0,-242.0,64.0,0
2128,28.0,-246.0,62.0,0
2129,29.0,-244.0,63.0,0
2130,30.0,-242.0,67.0,0
2131,31.0,-244.0,64.0,0
2132,27.0,-240.0,61.0,0
2133,29.0,-245.0,62.0,0
2134,26.0,-242.0,65.0,0
2135,26.0,-243.0,69.0,0
2136,23.0,-242.0,67.0,0
2137,23.0,-243.0,64.0,0
2138,26.0,-243.0,67.0,0
2139,25.0,-243.0,69.0,0
2140,22.0,-245.0,66.0,0
2141,23.0,-245.0,67.0,0
2142,23.0,-244.0,65.0,0
2143,22.0,-248.0,67.0,0
2144,23.0,-247.0,67.0,0
2145,23.0,-245.0,72.0,0
2146,22.0,-247.0,76.0,0
2147,22.0,-248.0,66.0,0
2148,24.0,-248.0,63.0,0
2149,30.0,-248.0,64.0,0
2150,28.0,-248.0,65.0,0
2151,25.0,-248.0,65.0,0
2152,30.0,-248.0,67.0,0
2153,30.0,-251.0,64.0,0
2154,31.0,-251.0,63.0,0
2155,32.0,-251.0,65.0,0
2156,30.0,-251.0,62.0,0
2157,34.0,-248.0,63.0,0
2158,32.0,-250.0,59.0,0
2159,29.0,-250.0,58.0,0
2160,31.0,-248.0,61.0,0
2161,29.0,-248.0,56.0,0
2162,28.0,-247.0,62.0,0
2163,30.0,-249.0,60.0,0
2164,29.0,-248.0,60.0,0
2165,32.0,-247.0,57.0,0
2166,31.0,-248.0,58.0,0
2167,29.0,-246.0,55.0,0
2168,34.0,-245.0,71.0,0
2169,30.0,-243.0,53.0,0
2170,28.0,-244.0,55.0,0
2171,30.0,-245.0,58.0,0
2172,30.0,-243.0,56.0,0
2173,29.0,-243.0,59.0,0
2174,28.0,-242.0,57.0,0
2175,31.0,-245.0,61.0,0
2176,29.0,-239.0,59.0,0
2177,30.0,-242.0,57.0,0
2178,29.0,-240.0,62.0,0
2179,31.0,-243.0,61.0,0
2180,29.0,-240.0,62.0,0
2181,30.0,-244.0,60.0,0
2182,28.0,-243.0,61.0,0
2183,29.0,-244.0,64.0,0
2184,30.0,-245.0,65.0,0
2185,29.0,-243.0,65.0,0
2186,32.0,-245.0,64.0,0
2187,29.0,-246.0,69.0,0
2188,29.0,-245.0,68.0,0
2189,23.0,-246.0,66.0,0
2190,29.0,-244.0,66.0,0
2191,32.0,-244.0,70.0,0
2192,29.0,-246.0,68.0,0
2193,30.0,-245.0,66.0,0
2194,28.0,-247.0,65.0,0
2195,29.0,-248.0,63.0,0
2196,30.0,-248.0,63.0,0
2197,25.0,-248.0,63.0,0
2198,31.0,-248.0,61.0,0
2199,28.0,-244.0,63.0,0
2200,29.0,-245.0,64.0,0
2201,33.0,-244.0,61.0,0
2202,29.0,-247.0,59.0,0
2203,29.0,-247.0,62.0,0
2204,29.0,-243.0,62.0,0
2205,30.0,-245.0,63.0,0
2206,28.0,-242.0,65.0,0
2207,28.0,-246.0,59.0,0
2208,31.0,-247.0,61.0,0
2209,29.0,-246.0,60.0,0
2210,28.0,-246.0,62.0,0
2211,39.0,-237.0,59.0,0
2212,30.0,-244.0,61.0,0
2213,30.0,-246.0,58.0,0
2214,31.0,-248.0,59.0,0
2215,27.0,-244.0,61.0,0
2216,32.0,-245.0,59.0,0
2217,31.0,-242.0,60.0,0
2218,30.0,-244.0,63.0,0
2219,29.0,-244.0,60.0,0
2220,28.0,-244.0,59.0,0
2221,31.0,-246.0,64.0,0
2222,31.0,-243.0,63.0,0
2223,28.0,-246.0,64.0,0
2224,30.0,-247.0,64.0,0
2225,28.0,-244.0,66.0,0
2226,30.0,-245.0,66.0,0
2227,28.0,-243.0,67.0,0
2228,31.0,-245.0,65.0,0
2229,28.0,-243.0,64.0,0
2230,28.0,-243.0,61.0,0
2231,29.0,-245.0,63.0,0
2232,30.0,-247.0,64.0,0
2233,36.0,-249.0,71.0,0
2234,29.0,-244.0,62.0,0
2235,30.0,-246.0,62.0,0
2236,28.0,-246.0,61.0,0
2237,29.0,-246.0,63.0,0
2238,29.0,-244.0,61.0,0
2239,28.0,-244.0,65.0,0
2240,28.0,-241.0,60.0,0
2241,30.0,-246.0,63.0,0
2242,31.0,-245.0,61.0,0
2243,25.0,-243.0,62.0,0
2244,29.0,-241.0,56.0,0
2245,28.0,-243.0,56.0,0
2246,27.0,-243.0,61.0,0
2247,30.0,-245.0,57.0,0
2248,31.0,-248.0,58.0,0
2249,29.0,-245.0,62.0,0
2250,30.0,-245.0,59.0,0
2251,31.0,-247.0,58.0,0
2252,28.0,-241.0,60.0,0
2253,31.0,-244.0,59.0,0
2254,29.0,-244.0,59.0,0
2255,27.0,-236.0,59.0,0
2256,32.0,-244.0,60.0,0
2257,32.0,-247.0,61.0,0
2258,32.0,-244.0,65.0,0
2259,34.0,-245.0,65.0,0
2260,31.0,-247.0,64.0,0
2261,31.0,-243.0,61.0,0
2262,32.0,-245.0,64.0,0
2263,34.0,-246.0,59.0,0
2264,33.0,-246.0,60.0,0
2265,31.0,-248.0,62.0,0
2266,34.0,-247.0,60.0,0
2267,29.0,-245.0,59.0,0
2268,31.0,-246.0,58.0,0
2269,30.0,-246.0,58.0,0
2270,32.0,-247.0,58.0,0
2271,32.0,-249.0,60.0,0
2272,33.0,-248.0,57.0,0
2273,30.0,-245.0,60.0,0
2274,32.0,-247.0,57.0,0
2275,32.0,-246.0,61.0,0
2276,40.0,-246.0,54.0,0
2277,31.0,-244.0,62.0,0
2278,35.0,-248.0,60.0,0
2279,33.0,-246.0,61.0,0
2280,32.0,-245.0,59.0,0
2281,32.0,-244.0,61.0,0
2282,32.0,-243.0,61.0,0
2283,33.0,-247.0,56.0,0
2284,32.0,-247.0,57.0,0
2285,30.0,-244.0,57.0,0
2286,30.0,-243.0,61.0,0
2287,30.0,-246.0,58.0,0
2288,31.0,-247.0,62.0,0
2289,29.0,-247.0,56.0,0
2290,28.0,-245.0,61.0,0
2291,28.0,-244.0,60.0,0
2292,29.0,-248.0,61.0,0
2293,28.0,-247.0,59.0,0
2294,28.0,-244.0,58.0,0
2295,27.0,-245.0,59.0,0
2296,30.0,-245.0,60.0,0
2297,30.0,-247.0,58.0,0
2298,35.0,-241.0,55.0,0
2299,29.0,-246.0,62.0,0
2300,27.0,-248.0,57.0,0
2301,28.0,-247.0,58.0,0
2302,31.0,-246.0,59.0,0
2303,28.0,-247.0,57.0,0
2304,27.0,-246.0,57.0,0
2305,29.0,-246.0,59.0,0
2306,29.0,-249.0,59.0,0
2307,29.0,-245.0,58.0,0
2308,27.0,-247.0,59.0,0
2309,30.0,-247.0,57.0,0
2310,27.0,-248.0,62.0,0
2311,28.0,-246.0,60.0,0
2312,31.0,-247.0,59.0,0
2313,27.0,-246.0,59.0,0
2314,29.0,-247.0,62.0,0
2315,34.0,-247.0,61.0,0
2316,29.0,-245.0,64.0,0
2317,29.0,-245.0,61.0,0
2318,32.0,-245.0,60.0,0
2319,31.0,-246.0,62.0,0
2320,32.0,-252.0,51.0,0
2321,29.0,-246.0,59.0,0
2322,29.0,-246.0,62.0,0
2323,33.0,-243.0,61.0,0
2324,35.0,-248.0,60.0,0
2325,30.0,-242.0,62.0,0
2326,30.0,-245.0,59.0,0
2327,32.0,-246.0,61.0,0
2328,31.0,-245.0,61.0,0
2329,32.0,-245.0,60.0,0
2330,33.0,-246.0,61.0,0
2331,33.0,-245.0,61.0,0
2332,33.0,-246.0,64.0,0
2333,30.0,-244.0,63.0,0
2334,33.0,-243.0,61.0,0
2335,32.0,-243.0,65.0,0
2336,33.0,-243.0,63.0,0
2337,32.0,-242.0,62.0,0
2338,31.0,-246.0,65.0,0
2339,31.0,-242.0,62.0,0
2340,35.0,-245.0,60.0,0
2341,34.0,-246.0,64.0,0
2342,42.0,-238.0,65.0,0
2343,33.0,-247.0,63.0,0
2344,34.0,-246.0,67.0,0
2345,32.0,-248.0,60.0,0
2346,32.0,-242.0,65.0,0
2347,30.0,-244.0,58.0,0
2348,30.0,-246.0,61.0,0
2349,30.0,-246.0,60.0,0
2350,31.0,-245.0,60.0,0
2351,32.0,-245.0,58.0,0
2352,31.0,-244.0,62.0,0
2353,27.0,-246.0,58.0,0
2354,33.0,-247.0,60.0,0
2355,30.0,-244.0,62.0,0
2356,31.0,-247.0,61.0,0
2357,31.0,-245.0,61.0,0
2358,28.0,-245.0,61.0,0
2359,31.0,-245.0,57.0,0
2360,30.0,-245.0,62.0,0
2361,31.0,-245.0,61.0,0
2362,31.0,-244.0,64.0,0
2363,29.0,-250.0,60.0,0
2364,33.0,-243.0,66.0,0
2365,29.0,-247.0,61.0,0
2366,31.0,-247.0,59.0,0
2367,28.0,-247.0,60.0,0
2368,30.0,-245.0,59.0,0
2369,32.0,-245.0,62.0,0
2370,29.0,-243.0,59.0,0
2371,30.0,-243.0,61.0,0
2372,29.0,-243.0,65.0,0
2373,29.0,-242.0,63.0,0
2374,31.0,-243.0,63.0,0
2375,29.0,-243.0,67.0,0
2376,29.0,-242.0,64.0,0
2377,30.0,-241.0,65.0,0
2378,33.0,-245.0,66.0,0
2379,33.0,-246.0,67.0,0
2380,29.0,-243.0,65.0,0
2381,31.0,-247.0,66.0,0
2382,30.0,-242.0,67.0,0
2383,31.0,-244.0,65.0,0
2384,31.0,-245.0,62.0,0
2385,32.0,-247.0,78.0,0
2386,29.0,-247.0,67.0,0
2387,29.0,-246.0,68.0,0
2388,32.0,-246.0,64.0,0
2389,34.0,-247.0,63.0,0
2390,32.0,-245.0,65.0,0
2391,30.0,-245.0,64.0,0
2392,31.0,-242.0,60.0,0
2393,31.0,-244.0,63.0,0
2394,31.0,-242.0,64.0,0
2395,31.0,-245.0,62.0,0
2396,31.0,-246.0,58.0,0
2397,30.0,-242.0,64.0,0
2398,31.0,-246.0,62.0,0
2399,29.0,-244.0,62.0,0
2400,32.0,-241.0,63.0,0
2401,29.0,-245.0,62.0,0
2402,30.0,-241.0,67.0,0
2403,31.0,-243.0,64.0,0
2404,31.0,-244.0,62.0,0
2405,31.0,-244.0,67.0,0
2406,33.0,-244.0,62.0,0
2407,37.0,-244.0,73.0,0
2408,32.0,-244.0,62.0,0
2409,33.0,-245.0,66.0,0
2410,30.0,-245.0,67.0,0
2411,32.0,-246.0,67.0,0
2412,32.0,-243.0,63.0,0
2413,28.0,-243.0,63.0,0
2414,33.0,-248.0,66.0,0
2415,32.0,-247.0,63.0,0
2416,31.0,-245.0,62.0,0
2417,33.0,-246.0,63.0,0
2418,31.0,-246.0,66.0,0
2419,31.0,-244.0,66.0,0
2420,33.0,-245.0,66.0,0
2421,33.0,-246.0,63.0,0
2422,30.0,-245.0,66.0,0
2423,31.0,-244.0,62.0,0
2424,31.0,-244.0,63.0,0
2425,32.0,-246.0,61.0,0
2426,30.0,-245.0,62.0,0
2427,31.0,-244.0,63.0,0
2428,33.0,-247.0,63.0,0
2429,26.0,-236.0,60.0,0
2430,29.0,-242.0,64.0,0
2431,32.0,-245.0,63.0,0
2432,31.0,-246.0,68.0,0
2433,30.0,-243.0,66.0,0
2434,31.0,-244.0,64.0,0
2435,32.0,-245.0,65.0,0
2436,34.0,-246.0,62.0,0
2437,32.0,-245.0,64.0,0
2438,34.0,-246.0,67.0,0
2439,32.0,-243.0,62.0,0
2440,31.0,-245.0,63.0,0
2441,30.0,-245.0,65.0,0
2442,30.0,-246.0,66.0,0
2443,31.0,-244.0,63.0,0
2444,33.0,-247.0,61.0,0
2445,29.0,-242.0,64.0,0
2446,34.0,-245.0,62.0,0
2447,27.0,-244.0,65.0,0
2448,32.0,-245.0,64.0,0
2449,29.0,-246.0,60.0,0
2450,30.0,-244.0,65.0,0
2451,25.0,-240.0,61.0,0
2452,31.0,-244.0,66.0,0
2453,30.0,-243.0,67.0,0
2454,32.0,-246.0,65.0,0
2455,30.0,-245.0,63.0,0
2456,30.0,-241.0,64.0,0
2457,32.0,-244.0,66.0,0
2458,32.0,-247.0,63.0,0
2459,30.0,-245.0,65.0,0
2460,32.0,-244.0,66.0,0
2461,29.0,-245.0,62.0,0
2462,32.0,-244.0,64.0,0
2463,32.0,-243.0,66.0,0
2464,32.0,-245.0,66.0,0
2465,31.0,-247.0,67.0,0
2466,31.0,-245.0,68.0,0
2467,32.0,-243.0,65.0,0
2468,28.0,-242.0,67.0,0
2469,31.0,-242.0,67.0,0
2470,34.0,-246.0,65.0,0
2471,31.0,-245.0,65.0,0
2472,31.0,-244.0,64.0,0
2473,29.0,-245.0,68.0,0
2474,31.0,-247.0,66.0,0
2475,31.0,-243.0,65.0,0
2476,31.0,-246.0,62.0,0
2477,31.0,-244.0,67.0,0
2478,32.0,-246.0,66.0,0
2479,31.0,-248.0,63.0,0
2480,34.0,-244.0,60.0,0
2481,32.0,-245.0,65.0,0
2482,31.0,-244.0,68.0,0
2483,32.0,-244.0,63.0,0
2484,33.0,-242.0,65.0,0
2485,31.0,-244.0,63.0,0
2486,31.0,-245.0,66.0,0
2487,33.0,-246.0,69.0,0
2488,31.0,-242.0,63.0,0
2489,34.0,-244.0,65.0,0
2490,31.0,-243.0,64.0,0
2491,32.0,-245.0,63.0,0
2492,33.0,-242.0,65.0,0
2493,32.0,-242.0,66.0,0
2494,36.0,-249.0,66.0,0
2495,30.0,-243.0,66.0,0
2496,35.0,-244.0,69.0,0
2497,31.0,-243.0,65.0,0
2498,35.0,-246.0,62.0,0
2499,31.0,-243.0,67.0,0
2500,30.0,-242.0,65.0,0
2501,31.0,-246.0,63.0,0
2502,33.0,-246.0,66.0,0
2503,31.0,-246.0,66.0,0
2504,33.0,-245.0,68.0,0
2505,33.0,-246.0,64.0,0
2506,31.0,-245.0,68.0,0
2507,35.0,-243.0,67.0,0
2508,31.0,-245.0,65.0,0
2509,32.0,-245.0,66.0,0
2510,31.0,-246.0,64.0,0
2511,30.0,-243.0,66.0,0
2512,28.0,-244.0,66.0,0
2513,34.0,-245.0,63.0,0
2514,33.0,-246.0,66.0,0
2515,29.0,-245.0,69.0,0
2516,38.0,-240.0,66.0,0
2517,30.0,-247.0,64.0,0
2518,31.0,-245.0,66.0,0
2519,32.0,-247.0,66.0,0
2520,30.0,-246.0,61.0,0
2521,26.0,-246.0,63.0,0
2522,30.0,-244.0,66.0,0
2523,31.0,-246.0,61.0,0
2524,29.0,-244.0,66.0,0
2525,28.0,-243.0,62.0,0
2526,31.0,-242.0,67.0,0
2527,33.0,-240.0,66.0,0
2528,31.0,-243.0,67.0,0
2529,31.0,-244.0,66.0,0
2530,30.0,-244.0,69.0,0
2531,32.0,-243.0,70.0,0
2532,31.0,-244.0,69.0,0
2533,30.0,-241.0,65.0,0
2534,33.0,-242.0,67.0,0
2535,29.0,-241.0,70.0,0
2536,32.0,-242.0,67.0,0
2537,32.0,-245.0,68.0,0
2538,32.0,-239.0,76.0,0
2539,31.0,-243.0,68.0,0
2540,30.0,-244.0,67.0,0
2541,32.0,-241.0,67.0,0
2542,32.0,-245.0,64.0,0
2543,31.0,-242.0,69.0,0
2544,32.0,-244.0,68.0,0
2545,30.0,-244.0,68.0,0
2546,32.0,-242.0,66.0,0
2547,28.0,-243.0,66.0,0
2548,32.0,-243.0,67.0,0
2549,32.0,-243.0,64.0,0
2550,31.0,-244.0,67.0,0
2551,34.0,-242.0,66.0,0
2552,29.0,-245.0,64.0,0
2553,30.0,-243.0,68.0,0
2554,31.0,-242.0,64.0,0
2555,32.0,-245.0,68.0,0
2556,32.0,-242.0,66.0,0
2557,31.0,-241.0,66.0,0
2558,32.0,-244.0,66.0,0
2559,32.0,-241.0,65.0,0
2560,29.0,-245.0,63.0,0
2561,33.0,-247.0,65.0,0
2562,31.0,-243.0,68.0,0
2563,31.0,-243.0,66.0,0
2564,31.0,-247.0,71.0,0
2565,31.0,-244.0,67.0,0
2566,32.0,-245.0,67.0,0
2567,32.0,-246.0,66.0,0
2568,33.0,-247.0,69.0,0
2569,33.0,-247.0,67.0,0
2570,32.0,-246.0,69.0,0
2571,31.0,-247.0,63.0,0
2572,32.0,-243.0,70.0,0
2573,32.0,-243.0,64.0,0
2574,31.0,-245.0,68.0,0
2575,33.0,-246.0,63.0,0
2576,32.0,-245.0,71.0,0
2577,34.0,-246.0,66.0,0
2578,31.0,-243.0,67.0,0
2579,32.0,-244.0,65.0,0
2580,28.0,-243.0,67.0,0
2581,27.0,-250.0,57.0,0
2582,32.0,-244.0,66.0,0
2583,31.0,-245.0,68.0,0
2584,33.0,-245.0,67.0,0
2585,31.0,-244.0,67.0,0
2586,32.0,-245.0,68.0,0
2587,32.0,-242.0,66.0,0
2588,31.0,-245.0,69.0,0
2589,31.0,-245.0,68.0,0
2590,32.0,-244.0,64.0,0
2591,29.0,-242.0,64.0,0
2592,33.0,-243.0,64.0,0
2593,30.0,-245.0,67.0,0
2594,31.0,-244.0,67.0,0
2595,32.0,-243.0,66.0,0
2596,30.0,-243.0,66.0,0
2597,31.0,-241.0,69.0,0
2598,31.0,-245.0,67.0,0
2599,31.0,-243.0,66.0,0
2600,32.0,-244.0,63.0,0
2601,33.0,-243.0,67.0,0
2602,31.0,-245.0,65.0,0
2603,27.0,-242.0,57.0,0
2604,30.0,-243.0,71.0,0
2605,32.0,-246.0,64.0,0
2606,31.0,-244.0,64.0,0
2607,32.0,-244.0,69.0,0
2608,30.0,-244.0,63.0,0
2609,29.0,-244.0,65.0,0
2610,31.0,-244.0,68.0,0
2611,29.0,-245.0,64.0,0
2612,32.0,-243.0,64.0,0
2613,31.0,-243.0,67.0,0
2614,34.0,-247.0,63.0,0
2615,31.0,-241.0,63.0,0
2616,31.0,-245.0,64.0,0
2617,32.0,-247.0,61.0,0
2618,29.0,-242.0,63.0,0
2619,28.0,-246.0,66.0,0
2620,29.0,-244.0,65.0,0
2621,34.0,-246.0,66.0,0
2622,31.0,-244.0,65.0,0
2623,30.0,-245.0,68.0,0
2624,30.0,-244.0,59.0,0
2625,26.0,-244.0,50.0,0
2626,33.0,-245.0,64.0,0
2627,31.0,-246.0,69.0,0
2628,32.0,-245.0,61.0,0
2629,32.0,-246.0,65.0,0
2630,34.0,-247.0,65.0,0
2631,30.0,-245.0,61.0,0
2632,30.0,-243.0,66.0,0
2633,30.0,-243.0,61.0,0
2634,32.0,-243.0,65.0,0
2635,29.0,-245.0,65.0,0
2636,27.0,-245.0,65.0,0
2637,32.0,-243.0,62.0,0
2638,32.0,-246.0,63.0,0
2639,30.0,-245.0,61.0,0
2640,31.0,-245.0,64.0,0
2641,30.0,-243.0,68.0,0
2642,33.0,-244.0,64.0,0
2643,32.0,-246.0,66.0,0
2644,32.0,-246.0,62.0,0
2645,31.0,-243.0,67.0,0
2646,32.0,-245.0,65.0,0
2647,31.0,-242.0,51.0,0
2648,33.0,-244.0,60.0,0
2649,32.0,-243.0,65.0,0
2650,32.0,-244.0,61.0,0
2651,33.0,-246.0,69.0,0
2652,30.0,-240.0,65.0,0
2653,31.0,-241.0,62.0,0
2654,34.0,-246.0,64.0,0
2655,32.0,-245.0,66.0,0
2656,34.0,-243.0,62.0,0
2657,32.0,-245.0,65.0,0
2658,31.0,-246.0,63.0,0
2659,33.0,-245.0,60.0,0
2660,31.0,-246.0,59.0,0
2661,34.0,-245.0,64.0,0
2662,30.0,-246.0,65.0,0
2663,31.0,-241.0,64.0,0
2664,31.0,-243.0,63.0,0
2665,31.0,-243.0,62.0,0
2666,32.0,-244.0,64.0,0
2667,28.0,-243.0,64.0,0
2668,35.0,-246.0,61.0,0
2669,26.0,-242.0,73.0,0
2670,34.0,-247.0,62.0,0
2671,32.0,-247.0,63.0,0
2672,34.0,-246.0,59.0,0
2673,30.0,-247.0,60.0,0
2674,32.0,-246.0,62.0,0
2675,27.0,-247.0,60.0,0
2676,31.0,-245.0,63.0,0
2677,31.0,-246.0,63.0,0
2678,28.0,-245.0,60.0,0
2679,31.0,-247.0,63.0,0
2680,29.0,-242.0,63.0,0
2681,30.0,-243.0,62.0,0
2682,29.0,-241.0,65.0,0
2683,31.0,-243.0,64.0,0
2684,30.0,-246.0,64.0,0
2685,30.0,-242.0,64.0,0
2686,32.0,-243.0,66.0,0
2687,32.0,-243.0,65.0,0
2688,30.0,-245.0,62.0,0
2689,31.0,-247.0,64.0,0
2690,25.0,-241.0,67.0,0
2691,33.0,-245.0,65.0,0
2692,31.0,-245.0,63.0,0
2693,32.0,-248.0,66.0,0
2694,33.0,-245.0,63.0,0
2695,32.0,-246.0,62.0,0
2696,29.0,-243.0,63.0,0
2697,31.0,-245.0,62.0,0
2698,31.0,-243.0,62.0,0
2699,30.0,-245.0,64.0,0
2700,34.0,-245.0,63.0,0
2701,32.0,-243.0,67.0,0
2702,30.0,-242.0,61.0,0
2703,32.0,-246.0,61.0,0
2704,33.0,-245.0,64.0,0
2705,33.0,-244.0,59.0,0
2706,32.0,-240.0,62.0,0
2707,31.0,-243.0,60.0,0
2708,32.0,-245.0,61.0,0
2709,32.0,-245.0,60.0,0
2710,32.0,-244.0,59.0,0
2711,32.0,-244.0,56.0,0
2712,34.0,-251.0,70.0,0
2713,34.0,-244.0,58.0,0
2714,33.0,-245.0,65.0,0
2715,32.0,-247.0,58.0,0
2716,35.0,-245.0,64.0,0
2717,27.0,-245.0,65.0,0
2718,33.0,-245.0,62.0,0
2719,34.0,-248.0,63.0,0
2720,30.0,-243.0,65.0,0
2721,32.0,-247.0,61.0,0
2722,32.0,-245.0,59.0,0
2723,31.0,-246.0,61.0,0
2724,32.0,-244.0,62.0,0
2725,29.0,-243.0,60.0,0
2726,32.0,-246.0,59.0,0
2727,32.0,-244.0,57.0,0
2728,30.0,-247.0,61.0,0
2729,32.0,-245.0,60.0,0
2730,33.0,-247.0,61.0,0
2731,32.0,-247.0,60.0,0
2732,33.0,-246.0,60.0,0
2733,31.0,-246.0,63.0,0
2734,35.0,-242.0,57.0,0
2735,35.0,-246.0,63.0,0
2736,32.0,-246.0,61.0,0
2737,31.0,-245.0,64.0,0
2738,33.0,-245.0,60.0,0
2739,31.0,-245.0,63.0,0
2740,30.0,-244.0,63.0,0
2741,33.0,-246.0,62.0,0
2742,30.0,-243.0,62.0,0
2743,32.0,-246.0,65.0,0
2744,32.0,-245.0,61.0,0
2745,32.0,-244.0,64.0,0
2746,30.0,-246.0,62.0,0
2747,33.0,-245.0,60.0,0
2748,32.0,-245.0,64.0,0
2749,32.0,-245.0,59.0,0
2750,32.0,-248.0,64.0,0
2751,34.0,-245.0,61.0,0
2752,33.0,-244.0,61.0,0
2753,29.0,-246.0,60.0,0
2754,35.0,-244.0,63.0,0
2755,34.0,-245.0,62.0,0
2756,30.0,-250.0,60.0,0
2757,35.0,-248.0,60.0,0
2758,32.0,-242.0,60.0,0
2759,32.0,-245.0,67.0,0
2760,32.0,-244.0,61.0,0
2761,30.0,-245.0,61.0,0
2762,30.0,-246.0,61.0,0
2763,30.0,-244.0,61.0,0
2764,31.0,-247.0,60.0,0
2765,33.0,-247.0,57.0,0
2766,29.0,-245.0,64.0,0
2767,29.0,-244.0,60.0,0
2768,32.0,-245.0,64.0,0
2769,32.0,-247.0,60.0,0
2770,31.0,-245.0,61.0,0
2771,28.0,-244.0,65.0,0
2772,30.0,-244.0,65.0,0
2773,32.0,-247.0,64.0,0
2774,30.0,-244.0,62.0,0
2775,32.0,-246.0,61.0,0
2776,32.0,-244.0,60.0,0
2777,33.0,-244.0,65.0,0
2778,35.0,-243.0,76.0,0
2779,24.0,-236.0,64.0,0
2780,31.0,-246.0,60.0,0
2781,32.0,-247.0,62.0,0
2782,30.0,-242.0,64.0,0
2783,32.0,-246.0,60.0,0
2784,30.0,-247.0,59.0,0
2785,32.0,-244.0,61.0,0
2786,33.0,-243.0,61.0,0
2787,31.0,-246.0,60.0,0
2788,30.0,-243.0,63.0,0
2789,31.0,-245.0,62.0,0
2790,33.0,-244.0,61.0,0
2791,33.0,-245.0,61.0,0
2792,30.0,-242.0,61.0,0
2793,31.0,-247.0,63.0,0
2794,31.0,-243.0,61.0,0
2795,32.0,-242.0,64.0,0
2796,35.0,-244.0,65.0,0
2797,33.0,-244.0,63.0,0
2798,32.0,-246.0,63.0,0
2799,34.0,-247.0,64.0,0
2800,32.0,-246.0,62.0,0
2801,30.0,-244.0,62.0,0
2802,31.0,-242.0,63.0,0
2803,34.0,-243.0,62.0,0
2804,31.0,-245.0,66.0,0
2805,32.0,-245.0,68.0,0
2806,32.0,-246.0,64.0,0
2807,29.0,-243.0,64.0,0
2808,33.0,-245.0,59.0,0
2809,31.0,-243.0,64.0,0
2810,32.0,-244.0,63.0,0
2811,31.0,-244.0,61.0,0
2812,31.0,-246.0,67.0,0
2813,31.0,-245.0,62.0,0
2814,29.0,-243.0,63.0,0
2815,33.0,-246.0,62.0,0
2816,30.0,-246.0,60.0,0
2817,31.0,-245.0,63.0,0
2818,32.0,-247.0,65.0,0
2819,33.0,-243.0,68.0,0
2820,30.0,-244.0,62.0,0
2821,28.0,-246.0,59.0,0
2822,32.0,-245.0,67.0,0
2823,30.0,-244.0,60.0,0
2824,32.0,-245.0,64.0,0
2825,34.0,-244.0,69.0,0
2826,31.0,-245.0,63.0,0
2827,31.0,-248.0,62.0,0
2828,32.0,-243.0,64.0,0
2829,29.0,-247.0,61.0,0
2830,31.0,-247.0,62.0,0
2831,30.0,-247.0,59.0,0
2832,30.0,-248.0,61.0,0
2833,31.0,-247.0,60.0,0
2834,32.0,-247.0,61.0,0
2835,31.0,-245.0,58.0,0
2836,29.0,-248.0,63.0,0
2837,32.0,-245.0,57.0,0
2838,29.0,-243.0,62.0,0
2839,30.0,-244.0,63.0,0
2840,32.0,-246.0,65.0,0
2841,33.0,-241.0,63.0,0
2842,30.0,-240.0,62.0,0
2843,32.0,-238.0,63.0,0
2844,34.0,-244.0,67.0,0
2845,32.0,-241.0,68.0,0
2846,32.0,-243.0,71.0,0
2847,32.0,-246.0,63.0,0
2848,32.0,-244.0,63.0,0
2849,33.0,-244.0,65.0,0
2850,32.0,-247.0,69.0,0
2851,35.0,-245.0,65.0,0
2852,33.0,-245.0,69.0,0
2853,34.0,-244.0,64.0,0
2854,32.0,-246.0,68.0,0
2855,33.0,-245.0,65.0,0
2856,32.0,-246.0,67.0,0
2857,32.0,-245.0,64.0,0
2858,31.0,-245.0,63.0,0
2859,33.0,-244.0,63.0,0
2860,31.0,-241.0,68.0,0
2861,33.0,-244.0,64.0,0
2862,31.0,-244.0,62.0,0
2863,32.0,-243.0,61.0,0
2864,31.0,-242.0,62.0,0
2865,29.0,-242.0,54.0,0
2866,31.0,-244.0,66.0,0
2867,31.0,-241.0,63.0,0
2868,34.0,-244.0,63.0,0
2869,31.0,-243.0,62.0,0
2870,30.0,-245.0,64.0,0
2871,32.0,-245.0,68.0,0
2872,31.0,-245.0,66.0,0
2873,33.0,-243.0,64.0,0
2874,29.0,-243.0,63.0,0
2875,33.0,-246.0,65.0,0
2876,33.0,-244.0,65.0,0
2877,33.0,-243.0,67.0,0
2878,32.0,-247.0,66.0,0
2879,32.0,-244.0,67.0,0
2880,33.0,-245.0,63.0,0
2881,32.0,-245.0,67.0,0
2882,31.0,-246.0,63.0,0
2883,30.0,-247.0,65.0,0
2884,31.0,-247.0,66.0,0
2885,34.0,-246.0,63.0,0
2886,38.0,-238.0,59.0,0
2887,31.0,-244.0,61.0,0
2888,29.0,-242.0,65.0,0
2889,31.0,-244.0,65.0,0
2890,31.0,-247.0,61.0,0
2891,28.0,-245.0,62.0,0
2892,31.0,-245.0,63.0,0
2893,33.0,-245.0,65.0,0
2894,32.0,-243.0,65.0,0
2895,30.0,-244.0,63.0,0
2896,34.0,-246.0,64.0,0
2897,34.0,-243.0,63.0,0
2898,31.0,-245.0,66.0,0
2899,31.0,-244.0,64.0,0
2900,32.0,-243.0,64.0,0
2901,32.0,-245.0,65.0,0
2902,32.0,-243.0,65.0,0
2903,32.0,-246.0,67.0,0
2904,30.0,-245.0,66.0,0
2905,31.0,-244.0,67.0,0
2906,30.0,-244.0,66.0,0
2907,33.0,-246.0,63.0,0
2908,32.0,-244.0,62.0,0
2909,34.0,-246.0,63.0,0
2910,30.0,-246.0,63.0,0
2911,30.0,-243.0,65.0,0
2912,31.0,-246.0,64.0,0
2913,31.0,-246.0,66.0,0
2914,30.0,-244.0,66.0,0
2915,32.0,-244.0,64.0,0
2916,29.0,-243.0,67.0,0
2917,34.0,-247.0,68.0,0
2918,30.0,-244.0,65.0,0
2919,32.0,-244.0,68.0,0
2920,29.0,-244.0,61.0,0
2921,32.0,-244.0,65.0,0
2922,32.0,-242.0,65.0,0
2923,30.0,-245.0,65.0,0
2924,32.0,-245.0,68.0,0
2925,32.0,-246.0,68.0,0
2926,34.0,-245.0,65.0,0
2927,31.0,-245.0,64.0,0
2928,31.0,-243.0,63.0,0
2929,26.0,-245.0,64.0,0
2930,43.0,-241.0,64.0,0
2931,31.0,-244.0,62.0,0
2932,29.0,-242.0,62.0,0
2933,33.0,-244.0,67.0,0
2934,33.0,-243.0,66.0,0
2935,32.0,-244.0,66.0,0
2936,33.0,-242.0,66.0,0
2937,38.0,-243.0,64.0,0
2938,34.0,-244.0,65.0,0
2939,31.0,-243.0,67.0,0
2940,31.0,-242.0,66.0,0
2941,31.0,-243.0,65.0,0
2942,33.0,-244.0,61.0,0
2943,30.0,-246.0,66.0,0
2944,33.0,-242.0,66.0,0
2945,31.0,-245.0,67.0,0
2946,31.0,-245.0,68.0,0
2947,30.0,-241.0,65.0,0
2948,34.0,-243.0,65.0,0
2949,33.0,-245.0,64.0,0
2950,30.0,-244.0,65.0,0
2951,29.0,-246.0,65.0,0
2952,36.0,-243.0,57.0,0
2953,30.0,-245.0,65.0,0
2954,32.0,-246.0,67.0,0
2955,32.0,-243.0,63.0,0
2956,33.0,-245.0,65.0,0
2957,31.0,-244.0,68.0,0
2958,33.0,-244.0,67.0,0
2959,33.0,-243.0,63.0,0
2960,33.0,-245.0,69.0,0
2961,32.0,-241.0,65.0,0
2962,29.0,-243.0,65.0,0
2963,31.0,-242.0,66.0,0
2964,33.0,-245.0,68.0,0
2965,31.0,-245.0,68.0,0
2966,32.0,-244.0,67.0,0
2967,32.0,-244.0,66.0,0
2968,31.0,-243.0,64.0,0
2969,32.0,-247.0,67.0,0
2970,31.0,-241.0,63.0,0
2971,32.0,-244.0,67.0,0
2972,29.0,-246.0,64.0,0
2973,32.0,-244.0,70.0,0
2974,35.0,-244.0,77.0,0
2975,31.0,-245.0,65.0,0
2976,31.0,-246.0,63.0,0
2977,32.0,-246.0,65.0,0
2978,29.0,-244.0,64.0,0
2979,31.0,-243.0,66.0,0
2980,29.0,-244.0,66.0,0
2981,30.0,-244.0,66.0,0
2982,30.0,-240.0,68.0,0
2983,33.0,-240.0,66.0,0
2984,31.0,-245.0,69.0,0
2985,31.0,-245.0,68.0,0
2986,32.0,-246.0,66.0,0
2987,32.0,-246.0,67.0,0
2988,31.0,-246.0,64.0,0
2989,28.0,-246.0,63.0,0
2990,33.0,-247.0,63.0,0
2991,32.0,-245.0,67.0,0
2992,30.0,-246.0,63.0,0
2993,28.0,-243.0,63.0,0
2994,31.0,-243.0,66.0,0
2995,36.0,-244.0,62.0,0
2996,30.0,-243.0,65.0,0
2997,33.0,-243.0,66.0,0
2998,36.0,-243.0,65.0,0
2999,30.0,-242.0,65.0,0
3000,32.0,-239.0,68.0,0
3001,33.0,-242.0,66.0,0
3002,32.0,-241.0,71.0,0
3003,30.0,-239.0,68.0,0
3004,30.0,-243.0,70.0,0
3005,33.0,-242.0,69.0,0
3006,31.0,-242.0,66.0,0
3007,32.0,-243.0,69.0,0
3008,31.0,-242.0,64.0,0
3009,32.0,-243.0,69.0,0
3010,29.0,-244.0,67.0,0
3011,31.0,-243.0,67.0,0
3012,29.0,-243.0,69.0,0
3013,30.0,-244.0,69.0,0
3014,28.0,-240.0,70.0,0
3015,33.0,-244.0,67.0,0
3016,32.0,-246.0,66.0,0
3017,29.0,-245.0,71.0,0
3018,32.0,-245.0,66.0,0
3019,32.0,-244.0,69.0,0
3020,29.0,-242.0,67.0,0
3021,36.0,-247.0,67.0,0
3022,31.0,-245.0,66.0,0
3023,34.0,-243.0,70.0,0
3024,31.0,-244.0,69.0,0
3025,31.0,-241.0,67.0,0
3026,31.0,-245.0,68.0,0
3027,34.0,-245.0,64.0,0
3028,30.0,-242.0,64.0,0
3029,31.0,-242.0,67.0,0
3030,29.0,-243.0,67.0,0
3031,34.0,-242.0,70.0,0
3032,32.0,-244.0,69.0,0
3033,32.0,-245.0,66.0,0
3034,32.0,-244.0,68.0,0
3035,32.0,-241.0,69.0,0
3036,28.0,-239.0,72.0,0
3037,30.0,-242.0,68.0,0
3038,31.0,-246.0,70.0,0
3039,43.0,-242.0,68.0,0
3040,31.0,-244.0,68.0,0
3041,30.0,-245.0,67.0,0
3042,35.0,-245.0,66.0,0
3043,31.0,-241.0,66.0,0
3044,35.0,-244.0,68.0,0
3045,31.0,-245.0,63.0,0
3046,31.0,-244.0,65.0,0
3047,30.0,-246.0,68.0,0
3048,32.0,-244.0,65.0,0
3049,27.0,-241.0,69.0,0
3050,32.0,-244.0,69.0,0
3051,33.0,-244.0,69.0,0
3052,33.0,-247.0,72.0,0
3053,31.0,-244.0,67.0,0
3054,30.0,-243.0,67.0,0
3055,34.0,-241.0,69.0,0
3056,29.0,-234.0,61.0,0
3057,30.0,-233.0,56.0,0
3058,27.0,-231.0,60.0,0
3059,26.0,-231.0,54.0,0
3060,30.0,-231.0,60.0,0
3061,20.0,-229.0,56.0,0
3062,25.0,-231.0,65.0,0
3063,29.0,-230.0,69.0,0
3064,27.0,-230.0,68.0,0
3065,32.0,-232.0,69.0,0
3066,32.0,-231.0,70.0,0
3067,33.0,-232.0,69.0,0
3068,33.0,-236.0,66.0,0
3069,37.0,-236.0,66.0,0
3070,41.0,-235.0,59.0,0
3071,42.0,-239.0,60.0,0
3072,49.0,-244.0,58.0,0
3073,52.0,-250.0,61.0,0
3074,47.0,-252.0,62.0,0
3075,49.0,-251.0,62.0,0
3076,48.0,-249.0,57.0,0
3077,47.0,-249.0,58.0,0
3078,46.0,-251.0,56.0,0
3079,43.0,-247.0,54.0,0
3080,45.0,-248.0,50.0,0
3081,39.0,-245.0,50.0,0
3082,39.0,-242.0,49.0,0
3083,35.0,-245.0,41.0,0
3084,38.0,-243.0,48.0,0
3085,31.0,-244.0,47.0,0
3086,32.0,-244.0,48.0,0
3087,29.0,-247.0,47.0,0
3088,26.0,-245.0,54.0,0
3089,26.0,-247.0,53.0,0
3090,26.0,-242.0,57.0,0
3091,29.0,-241.0,54.0,0
3092,26.0,-239.0,55.0,0
3093,26.0,-244.0,51.0,0
3094,24.0,-248.0,51.0,0
3095,25.0,-248.0,58.0,0
3096,23.0,-249.0,55.0,0
3097,26.0,-251.0,57.0,0
3098,24.0,-251.0,53.0,0
3099,26.0,-250.0,56.0,0
3100,25.0,-249.0,50.0,0
3101,25.0,-246.0,54.0,0
3102,23.0,-246.0,51.0,0
3103,25.0,-245.0,53.0,0
3104,20.0,-248.0,45.0,0
3105,27.0,-246.0,46.0,0
3106,25.0,-247.0,50.0,0
3107,22.0,-252.0,46.0,0
3108,22.0,-255.0,45.0,0
3109,19.0,-256.0,40.0,0
3110,18.0,-259.0,37.0,0
3111,14.0,-263.0,30.0,0
3112,14.0,-260.0,29.0,0
3113,13.0,-265.0,29.0,0
3114,13.0,-267.0,30.0,0
3115,12.0,-265.0,29.0,0
3116,13.0,-265.0,31.0,0
3117,14.0,-267.0,28.0,0
3118,16.0,-268.0,32.0,0
3119,17.0,-266.0,34.0,0
3120,17.0,-264.0,36.0,0
3121,20.0,-260.0,34.0,0
3122,24.0,-262.0,36.0,0
3123,28.0,-261.0,37.0,0
3124,26.0,-260.0,41.0,0
3125,27.0,-259.0,41.0,0
3126,37.0,-258.0,46.0,0
3127,37.0,-258.0,44.0,0
3128,39.0,-259.0,42.0,0
3129,42.0,-257.0,42.0,0
3130,39.0,-259.0,41.0,0
3131,40.0,-262.0,41.0,0
3132,37.0,-260.0,38.0,0
3133,32.0,-262.0,36.0,0
3134,27.0,-262.0,42.0,0
3135,30.0,-260.0,41.0,0
3136,28.0,-260.0,36.0,0
3137,26.0,-261.0,34.0,0
3138,26.0,-264.0,32.0,0
3139,24.0,-264.0,29.0,0
3140,25.0,-264.0,29.0,0
3141,24.0,-262.0,29.0,0
3142,27.0,-263.0,33.0,0
3143,29.0,-263.0,32.0,0
3144,30.0,-267.0,35.0,0
3145,31.0,-270.0,33.0,0
3146,35.0,-271.0,34.0,0
3147,26.0,-264.0,24.0,0
3148,34.0,-274.0,29.0,0
3149,29.0,-274.0,28.0,0
3150,33.0,-276.0,31.0,0
3151,31.0,-272.0,31.0,0
3152,30.0,-272.0,33.0,0
3153,30.0,-268.0,32.0,0
3154,32.0,-266.0,34.0,0
3155,34.0,-266.0,38.0,0
3156,32.0,-263.0,40.0,0
3157,32.0,-264.0,41.0,0
3158,41.0,-261.0,44.0,0
3159,44.0,-263.0,43.0,0
3160,41.0,-263.0,45.0,0
3161,45.0,-262.0,44.0,0
3162,47.0,-265.0,45.0,0
3163,41.0,-257.0,40.0,0
3164,42.0,-253.0,44.0,0
3165,51.0,-252.0,42.0,0
3166,48.0,-255.0,45.0,0
3167,49.0,-255.0,45.0,0
3168,46.0,-252.0,43.0,0
3169,53.0,-251.0,50.0,0
3170,43.0,-253.0,45.0,0
3171,34.0,-253.0,48.0,0
3172,40.0,-250.0,50.0,0
3173,40.0,-253.0,50.0,0
3174,35.0,-254.0,54.0,0
3175,31.0,-251.0,51.0,0
3176,31.0,-250.0,57.0,0
3177,34.0,-246.0,57.0,0
3178,33.0,-246.0,59.0,0
3179,32.0,-248.0,59.0,0
3180,27.0,-244.0,57.0,0
3181,36.0,-244.0,62.0,0
3182,33.0,-244.0,60.0,0
3183,28.0,-245.0,59.0,0
3184,28.0,-238.0,62.0,0
3185,29.0,-237.0,60.0,0
3186,24.0,-236.0,66.0,0
3187,30.0,-235.0,69.0,0
3188,37.0,-233.0,71.0,0
3189,36.0,-230.0,77.0,0
3190,38.0,-228.0,85.0,0
3191,35.0,-233.0,88.0,0
3192,38.0,-237.0,93.0,0
3193,44.0,-235.0,96.0,0
3194,47.0,-239.0,103.0,0
3195,43.0,-235.0,104.0,0
3196,37.0,-232.0,110.0,0
3197,37.0,-230.0,104.0,0
3198,36.0,-232.0,110.0,0
3199,31.0,-229.0,113.0,0
3200,29.0,-229.0,114.0,0
3201,27.0,-232.0,110.0,0
3202,28.0,-227.0,109.0,0
3203,19.0,-226.0,110.0,0
3204,16.0,-229.0,107.0,0
3205,18.0,-229.0,107.0,0
3206,12.0,-233.0,107.0,0
3207,11.0,-232.0,105.0,0
3208,12.0,-230.0,103.0,0
3209,9.0,-228.0,108.0,0
3210,11.0,-229.0,102.0,0
3211,16.0,-226.0,101.0,0
3212,12.0,-224.0,98.0,0
3213,11.0,-222.0,95.0,0
3214,16.0,-224.0,98.0,0
3215,14.0,-224.0,102.0,0
3216,15.0,-225.0,104.0,0
3217,14.0,-226.0,102.0,0
3218,10.0,-226.0,105.0,0
3219,8.0,-228.0,106.0,0
3220,8.0,-224.0,110.0,0
3221,12.0,-225.0,104.0,0
3222,5.0,-223.0,102.0,0
3223,11.0,-221.0,97.0,0
3224,3.0,-225.0,101.0,0
3225,1.0,-223.0,94.0,0
3226,6.0,-226.0,98.0,0
3227,-7.0,-225.0,89.0,0
3228,-2.0,-224.0,86.0,0
3229,-8.0,-218.0,86.0,0
3230,-14.0,-217.0,93.0,0
3231,-11.0,-212.0,88.0,0
3232,-6.0,-215.0,83.0,0
3233,-14.0,-210.0,80.0,0
3234,-21.0,-213.0,87.0,0
3235,-17.0,-210.0,86.0,0
3236,-16.0,-208.0,83.0,0
3237,-22.0,-201.0,83.0,0
3238,-22.0,-200.0,83.0,0
3239,-22.0,-202.0,80.0,0
3240,-21.0,-205.0,77.0,0
3241,-25.0,-207.0,80.0,0
3242,-31.0,-208.0,81.0,0
3243,-39.0,-209.0,83.0,0
3244,-37.0,-206.0,84.0,0
3245,-41.0,-206.0,90.0,0
3246,-36.0,-204.0,84.0,0
3247,-41.0,-203.0,84.0,0
3248,-38.0,-208.0,82.0,0
3249,-39.0,-212.0,76.0,0
3250,-44.0,-212.0,75.0,0
3251,-46.0,-210.0,79.0,0
3252,-44.0,-207.0,79.0,0
3253,-45.0,-204.0,89.0,0
3254,-50.0,-199.0,94.0,0
3255,-47.0,-196.0,87.0,0
3256,-50.0,-208.0,84.0,0
3257,-44.0,-199.0,80.0,0
3258,-46.0,-202.0,80.0,0
3259,-47.0,-202.0,85.0,0
3260,-51.0,-203.0,78.0,0
3261,-53.0,-198.0,76.0,0
3262,-62.0,-201.0,71.0,0
3263,-67.0,-202.0,69.0,0
3264,-70.0,-205.0,69.0,0
3265,-75.0,-207.0,68.0,0
3266,-79.0,-207.0,76.0,0
3267,-80.0,-209.0,70.0,0
3268,-85.0,-208.0,74.0,0
3269,-82.0,-212.0,77.0,0
3270,-88.0,-211.0,81.0,0
3271,-87.0,-209.0,78.0,0
3272,-87.0,-204.0,83.0,0
3273,-92.0,-197.0,83.0,0
3274,-91.0,-199.0,76.0,0
3275,-85.0,-198.0,80.0,0
3276,-87.0,-195.0,73.0,0
3277,-91.0,-194.0,71.0,0
3278,-89.0,-190.0,67.0,0
3279,-97.0,-189.0,57.0,0
3280,-101.0,-191.0,52.0,0
3281,-109.0,-200.0,59.0,0
3282,-107.0,-215.0,58.0,0
3283,-104.0,-238.0,61.0,0
3284,-103.0,-246.0,69.0,0
3285,-104.0,-250.0,69.0,0
3286,-99.0,-247.0,60.0,0
3287,-104.0,-247.0,55.0,0
3288,-105.0,-246.0,61.0,0
3289,-101.0,-239.0,58.0,0
3290,-96.0,-226.0,50.0,0
3291,-96.0,-216.0,41.0,0
3292,-100.0,-210.0,31.0,0
3293,-95.0,-217.0,24.0,0
3294,-96.0,-219.0,20.0,0
3295,-94.0,-216.0,18.0,0
3296,-91.0,-222.0,20.0,0
3297,-83.0,-232.0,19.0,0
3298,-84.0,-236.0,22.0,0
3299,-89.0,-228.0,29.0,0
3300,-86.0,-237.0,27.0,0
3301,-96.0,-242.0,21.0,0
3302,-99.0,-241.0,22.0,0
3303,-101.0,-247.0,16.0,0
3304,-101.0,-248.0,15.0,0
3305,-92.0,-256.0,18.0,0
3306,-92.0,-257.0,18.0,0
3307,-80.0,-259.0,11.0,0
3308,-75.0,-255.0,-1.0,0
3309,-69.0,-261.0,-1.0,0
3310,-72.0,-262.0,0.0,0
3311,-78.0,-265.0,9.0,0
3312,-78.0,-267.0,11.0,0
3313,-71.0,-275.0,7.0,0
3314,-68.0,-279.0,14.0,0
3315,-60.0,-281.0,21.0,0
3316,-56.0,-277.0,27.0,0
3317,-49.0,-272.0,36.0,0
3318,-61.0,-274.0,40.0,0
3319,-60.0,-276.0,31.0,0
3320,-47.0,-277.0,31.0,0
3321,-46.0,-276.0,43.0,0
3322,-38.0,-275.0,40.0,0
3323,-31.0,-280.0,40.0,0
3324,-30.0,-280.0,38.0,0
3325,-32.0,-280.0,31.0,0
3326,-26.0,-278.0,31.0,0
3327,-38.0,-278.0,34.0,0
3328,-38.0,-278.0,34.0,0
3329,-43.0,-281.0,38.0,0
3330,-47.0,-284.0,36.0,0
3331,-47.0,-281.0,28.0,0
3332,-42.0,-280.0,27.0,0
3333,-33.0,-284.0,23.0,0
3334,-24.0,-288.0,20.0,0
3335,-28.0,-290.0,17.0,0
3336,-17.0,-290.0,14.0,0
3337,-16.0,-287.0,7.0,0
3338,-13.0,-280.0,0.0,0
3339,-14.0,-276.0,-7.0,0
3340,-24.0,-275.0,-16.0,0
3341,-46.0,-275.0,-17.0,0
3342,-58.0,-274.0,-19.0,0
3343,-75.0,-280.0,-23.0,0
3344,-92.0,-283.0,-23.0,0
3345,-108.0,-283.0,-21.0,0
3346,-120.0,-282.0,-14.0,0
3347,-123.0,-284.0,-12.0,0
3348,-133.0,-273.0,-17.0,0
3349,-139.0,-266.0,-23.0,0
3350,-138.0,-259.0,-39.0,0
3351,-137.0,-251.0,-55.0,0
3352,-134.0,-249.0,-78.0,0
3353,-129.0,-237.0,-97.0,0
3354,-119.0,-234.0,-111.0,0
3355,-111.0,-231.0,-128.0,0
3356,-107.0,-228.0,-130.0,0
3357,-100.0,-224.0,-132.0,0
3358,-95.0,-225.0,-135.0,0
3359,-88.0,-220.0,-134.0,0
3360,-87.0,-219.0,-125.0,0
3361,-85.0,-217.0,-123.0,0
3362,-93.0,-215.0,-112.0,0
3363,-90.0,-217.0,-102.0,0
3364,-83.0,-214.0,-91.0,0
3365,-85.0,-218.0,-87.0,0
3366,-81.0,-214.0,-83.0,0
3367,-87.0,-213.0,-80.0,0
3368,-87.0,-215.0,-85.0,0
3369,-90.0,-217.0,-86.0,0
3370,-92.0,-220.0,-88.0,0
3371,-96.0,-219.0,-96.0,0
3372,-93.0,-217.0,-95.0,0
3373,-95.0,-219.0,-93.0,0
3374,-100.0,-217.0,-95.0,0
3375,-99.0,-220.0,-97.0,0
3376,-95.0,-220.0,-101.0,0
3377,-99.0,-220.0,-102.0,0
3378,-96.0,-223.0,-109.0,0
3379,-96.0,-218.0,-114.0,0
3380,-94.0,-215.0,-116.0,0
3381,-92.0,-215.0,-114.0,0
3382,-88.0,-215.0,-120.0,0
3383,-80.0,-216.0,-123.0,0
3384,-86.0,-227.0,-128.0,0
3385,-93.0,-229.0,-133.0,0
3386,-106.0,-229.0,-135.0,0
3387,-116.0,-231.0,-142.0,0
3388,-138.0,-233.0,-146.0,0
3389,-145.0,-227.0,-150.0,0
3390,-152.0,-223.0,-154.0,0
3391,-155.0,-219.0,-169.0,0
3392,-157.0,-210.0,-170.0,0
3393,-161.0,-206.0,-171.0,0
3394,-157.0,-210.0,-170.0,0
3395,-169.0,-208.0,-167.0,0
3396,-181.0,-209.0,-163.0,0
3397,-185.0,-208.0,-166.0,0
3398,-186.0,-206.0,-170.0,0
3399,-191.0,-201.0,-180.0,0
3400,-183.0,-199.0,-182.0,0
3401,-182.0,-197.0,-180.0,0
3402,-174.0,-195.0,-182.0,0
3403,-172.0,-191.0,-184.0,0
3404,-161.0,-191.0,-188.0,0
3405,-164.0,-190.0,-181.0,0
3406,-164.0,-193.0,-189.0,0
3407,-155.0,-192.0,-190.0,0
3408,-154.0,-189.0,-192.0,0
3409,-155.0,-186.0,-193.0,0
3410,-149.0,-185.0,-190.0,0
3411,-148.0,-180.0,-191.0,0
3412,-148.0,-178.0,-181.0,0
3413,-150.0,-175.0,-187.0,0
3414,-147.0,-175.0,-184.0,0
3415,-140.0,-184.0,-184.0,0
3416,-139.0,-171.0,-185.0,0
3417,-138.0,-171.0,-187.0,0
3418,-142.0,-169.0,-187.0,0
3419,-141.0,-171.0,-188.0,0
3420,-139.0,-176.0,-188.0,0
3421,-144.0,-165.0,-191.0,0
3422,-142.0,-172.0,-194.0,0
3423,-134.0,-156.0,-184.0,0
3424,-133.0,-164.0,-198.0,0
3425,-140.0,-160.0,-198.0,0
3426,-141.0,-162.0,-193.0,0
3427,-136.0,-157.0,-180.0,0
3428,-132.0,-148.0,-187.0,0
3429,-126.0,-156.0,-186.0,0
3430,-112.0,-157.0,-171.0,0
3431,-123.0,-151.0,-185.0,0
3432,-121.0,-151.0,-183.0,0
3433,-121.0,-147.0,-185.0,0
3434,-116.0,-146.0,-192.0,0
3435,-113.0,-156.0,-183.0,0
3436,-96.0,-142.0,-193.0,0
3437,-118.0,-148.0,-209.0,0
3438,-123.0,-159.0,-190.0,0
3439,-115.0,-131.0,-214.0,0
3440,-119.0,-140.0,-200.0,0
3441,-142.0,-137.0,-206.0,0
3442,-124.0,-148.0,-211.0,0
3443,-125.0,-137.0,-202.0,0
3444,-125.0,-138.0,-210.0,0
3445,-116.0,-151.0,-216.0,0
3446,-135.0,-125.0,-203.0,0
3447,-119.0,-134.0,-206.0,0
3448,-121.0,-129.0,-206.0,0
3449,-118.0,-130.0,-202.0,0
3450,-116.0,-129.0,-206.0,0
3451,-105.0,-144.0,-190.0,0
3452,-109.0,-130.0,-199.0,0
3453,-105.0,-133.0,-194.0,0
3454,-97.0,-131.0,-197.0,0
3455,-85.0,-129.0,-213.0,0
3456,-98.0,-118.0,-194.0,0
3457,-87.0,-126.0,-228.0,0
3458,-99.0,-133.0,-196.0,0
3459,-86.0,-123.0,-200.0,0
3460,-79.0,-112.0,-202.0,0
3461,-76.0,-124.0,-197.0,0
3462,-83.0,-128.0,-198.0,0
3463,-82.0,-125.0,-195.0,0
3464,-78.0,-122.0,-196.0,0
3465,-74.0,-123.0,-198.0,0
3466,-71.0,-125.0,-181.0,0
3467,-69.0,-129.0,-203.0,0
3468,-67.0,-117.0,-196.0,0
3469,-63.0,-124.0,-187.0,0
3470,-61.0,-131.0,-192.0,0
3471,-57.0,-122.0,-187.0,0
3472,-56.0,-119.0,-195.0,0
3473,-56.0,-114.0,-167.0,0
3474,-57.0,-124.0,-170.0,0
3475,-64.0,-117.0,-176.0,0
3476,-71.0,-111.0,-175.0,0
3477,-62.0,-113.0,-184.0,0
3478,-71.0,-109.0,-187.0,0
3479,-64.0,-109.0,-187.0,0
3480,-63.0,-107.0,-188.0,0
3481,-62.0,-108.0,-198.0,0
3482,-63.0,-105.0,-203.0,0
3483,-65.0,-99.0,-207.0,0
3484,-75.0,-104.0,-202.0,0
3485,-74.0,-108.0,-208.0,0
3486,-80.0,-107.0,-215.0,0
3487,-82.0,-101.0,-216.0,0
3488,-81.0,-104.0,-209.0,0
3489,-89.0,-102.0,-218.0,0
3490,-83.0,-103.0,-221.0,0
3491,-87.0,-100.0,-220.0,0
3492,-93.0,-99.0,-235.0,0
3493,-83.0,-99.0,-223.0,0
3494,-85.0,-99.0,-225.0,0
3495,-80.0,-101.0,-227.0,0
3496,-79.0,-100.0,-226.0,0
3497,-83.0,-98.0,-227.0,0
3498,-79.0,-94.0,-216.0,0
3499,-72.0,-111.0,-224.0,0
3500,-75.0,-113.0,-221.0,0
3501,-79.0,-103.0,-225.0,0
3502,-76.0,-105.0,-222.0,0
3503,-77.0,-107.0,-218.0,0
3504,-79.0,-102.0,-217.0,0
3505,-79.0,-104.0,-220.0,0
3506,-80.0,-101.0,-215.0,0
3507,-81.0,-99.0,-217.0,0
3508,-76.0,-97.0,-215.0,0
3509,-77.0,-97.0,-214.0,0
3510,-83.0,-98.0,-215.0,0
3511,-71.0,-98.0,-214.0,0
3512,-68.0,-94.0,-214.0,0
3513,-72.0,-92.0,-213.0,0
3514,-73.0,-92.0,-212.0,0
3515,-70.0,-95.0,-216.0,0
3516,-67.0,-94.0,-213.0,0
3517,-65.0,-91.0,-211.0,0
3518,-65.0,-96.0,-212.0,0
3519,-70.0,-94.0,-213.0,0
3520,-64.0,-94.0,-211.0,0
3521,-66.0,-96.0,-212.0,0
3522,-70.0,-93.0,-211.0,0
3523,-67.0,-94.0,-212.0,0
3524,-67.0,-81.0,-208.0,0
3525,-73.0,-96.0,-211.0,0
3526,-74.0,-96.0,-211.0,0
3527,-72.0,-100.0,-210.0,0
3528,-77.0,-100.0,-212.0,0
3529,-73.0,-102.0,-215.0,0
3530,-76.0,-104.0,-213.0,0
3531,-77.0,-104.0,-213.0,0
3532,-76.0,-108.0,-213.0,0
3533,-74.0,-104.0,-211.0,0
3534,-76.0,-106.0,-215.0,0
3535,-76.0,-106.0,-213.0,0
3536,-71.0,-111.0,-211.0,0
3537,-76.0,-110.0,-213.0,0
3538,-77.0,-111.0,-213.0,0
3539,-75.0,-114.0,-218.0,0
3540,-75.0,-110.0,-217.0,0
3541,-73.0,-109.0,-213.0,0
3542,-75.0,-108.0,-213.0,0
3543,-72.0,-108.0,-216.0,0
3544,-74.0,-110.0,-213.0,0
3545,-74.0,-111.0,-211.0,0
3546,-74.0,-107.0,-209.0,0
3547,-71.0,-112.0,-212.0,0
3548,-75.0,-112.0,-211.0,0
3549,-71.0,-114.0,-208.0,0
3550,-77.0,-112.0,-209.0,0
3551,-69.0,-114.0,-209.0,0
3552,-74.0,-116.0,-211.0,0
3553,-72.0,-117.0,-204.0,0
3554,-70.0,-117.0,-207.0,0
3555,-73.0,-119.0,-207.0,0
3556,-75.0,-118.0,-210.0,0
3557,-75.0,-112.0,-214.0,0
3558,-79.0,-118.0,-211.0,0
3559,-79.0,-117.0,-212.0,0
3560,-73.0,-121.0,-214.0,0
3561,-69.0,-121.0,-213.0,0
3562,-69.0,-122.0,-216.0,0
3563,-66.0,-122.0,-216.0,0
3564,-64.0,-125.0,-215.0,0
3565,-64.0,-125.0,-212.0,0
3566,-64.0,-123.0,-210.0,0
3567,-62.0,-126.0,-209.0,0
3568,-65.0,-123.0,-205.0,0
3569,-65.0,-125.0,-207.0,0
3570,-68.0,-125.0,-203.0,0
3571,-68.0,-128.0,-203.0,0
3572,-72.0,-129.0,-199.0,0
3573,-75.0,-131.0,-199.0,0
3574,-75.0,-135.0,-203.0,0
3575,-78.0,-135.0,-200.0,0
3576,-80.0,-135.0,-198.0,0
3577,-82.0,-139.0,-200.0,0
3578,-81.0,-141.0,-201.0,0
3579,-80.0,-135.0,-199.0,0
3580,-85.0,-141.0,-200.0,0
3581,-89.0,-137.0,-198.0,0
3582,-84.0,-140.0,-201.0,0
3583,-83.0,-138.0,-196.0,0
3584,-83.0,-143.0,-195.0,0
3585,-85.0,-143.0,-195.0,0
3586,-88.0,-145.0,-196.0,0
3587,-89.0,-149.0,-196.0,0
3588,-86.0,-148.0,-196.0,0
3589,-80.0,-149.0,-195.0,0
3590,-75.0,-153.0,-197.0,0
3591,-75.0,-151.0,-196.0,0
3592,-75.0,-151.0,-194.0,0
3593,-74.0,-147.0,-197.0,0
3594,-75.0,-153.0,-197.0,0
3595,-74.0,-145.0,-197.0,0
3596,-69.0,-149.0,-203.0,0
3597,-67.0,-148.0,-204.0,0
3598,-68.0,-150.0,-202.0,0
3599,-68.0,-150.0,-206.0,0
3600,-74.0,-150.0,-201.0,0
3601,-80.0,-151.0,-206.0,0
3602,-75.0,-152.0,-202.0,0
3603,-74.0,-147.0,-200.0,0
3604,-75.0,-140.0,-200.0,0
3605,-75.0,-143.0,-203.0,0
3606,-77.0,-138.0,-207.0,0
3607,-82.0,-132.0,-209.0,0
3608,-85.0,-131.0,-211.0,0
3609,-90.0,-134.0,-207.0,0
3610,-96.0,-129.0,-201.0,0
3611,-99.0,-135.0,-196.0,0
3612,-101.0,-139.0,-190.0,0
3613,-100.0,-141.0,-189.0,0
3614,-99.0,-150.0,-187.0,0
3615,-103.0,-152.0,-183.0,0
3616,-104.0,-157.0,-180.0,0
3617,-109.0,-161.0,-183.0,0
3618,-113.0,-167.0,-182.0,0
3619,-111.0,-169.0,-180.0,0
3620,-107.0,-171.0,-181.0,0
3621,-104.0,-168.0,-181.0,0
3622,-101.0,-169.0,-183.0,0
3623,-99.0,-167.0,-179.0,0
3624,-90.0,-162.0,-174.0,0
3625,-83.0,-164.0,-166.0,0
3626,-80.0,-160.0,-164.0,0
3627,-80.0,-159.0,-165.0,0
3628,-80.0,-155.0,-160.0,0
3629,-78.0,-151.0,-159.0,0
3630,-81.0,-149.0,-150.0,0
3631,-85.0,-147.0,-153.0,0
3632,-89.0,-146.0,-151.0,0
3633,-92.0,-145.0,-146.0,0
3634,-97.0,-146.0,-145.0,0
3635,-96.0,-147.0,-145.0,0
3636,-98.0,-149.0,-146.0,0
3637,-107.0,-154.0,-147.0,0
3638,-112.0,-156.0,-146.0,0
3639,-109.0,-161.0,-144.0,0
3640,-108.0,-165.0,-144.0,0
3641,-109.0,-167.0,-148.0,0
3642,-108.0,-176.0,-147.0,0
3643,-108.0,-174.0,-145.0,0
3644,-113.0,-172.0,-140.0,0
3645,-114.0,-181.0,-146.0,0
3646,-116.0,-184.0,-149.0,0
3647,-111.0,-185.0,-150.0,0
3648,-110.0,-184.0,-151.0,0
3649,-107.0,-188.0,-149.0,0
3650,-103.0,-191.0,-152.0,0
3651,-104.0,-189.0,-151.0,0
3652,-105.0,-186.0,-148.0,0
3653,-102.0,-184.0,-153.0,0
3654,-102.0,-179.0,-151.0,0
3655,-101.0,-176.0,-154.0,0
3656,-100.0,-180.0,-152.0,0
3657,-97.0,-178.0,-150.0,0
3658,-91.0,-176.0,-147.0,0
3659,-92.0,-173.0,-151.0,0
3660,-97.0,-171.0,-134.0,0
3661,-101.0,-166.0,-154.0,0
3662,-102.0,-165.0,-157.0,0
3663,-100.0,-165.0,-153.0,0
3664,-109.0,-160.0,-153.0,0
3665,-114.0,-159.0,-154.0,0
3666,-121.0,-162.0,-161.0,0
3667,-121.0,-166.0,-154.0,0
3668,-127.0,-164.0,-153.0,0
3669,-126.0,-172.0,-149.0,0
3670,-131.0,-174.0,-151.0,0
3671,-129.0,-176.0,-149.0,0
3672,-125.0,-178.0,-149.0,0
3673,-122.0,-180.0,-146.0,0
3674,-119.0,-181.0,-151.0,0
3675,-117.0,-184.0,-147.0,0
3676,-118.0,-185.0,-147.0,0
3677,-111.0,-189.0,-146.0,0
3678,-108.0,-186.0,-143.0,0
3679,-108.0,-186.0,-136.0,0
3680,-105.0,-192.0,-140.0,0
3681,-103.0,-188.0,-135.0,0
3682,-102.0,-187.0,-138.0,0
3683,-100.0,-186.0,-135.0,0
3684,-99.0,-186.0,-131.0,0
3685,-96.0,-187.0,-129.0,0
3686,-94.0,-183.0,-131.0,0
3687,-97.0,-180.0,-132.0,0
3688,-89.0,-175.0,-133.0,0
3689,-98.0,-175.0,-129.0,0
3690,-96.0,-173.0,-129.0,0
3691,-96.0,-172.0,-125.0,0
3692,-95.0,-178.0,-121.0,0
3693,-95.0,-180.0,-112.0,0
3694,-92.0,-183.0,-112.0,0
3695,-90.0,-184.0,-112.0,0
3696,-87.0,-191.0,-108.0,0
3697,-86.0,-187.0,-110.0,0
3698,-81.0,-193.0,-111.0,0
3699,-81.0,-199.0,-107.0,0
3700,-80.0,-203.0,-107.0,0
3701,-85.0,-207.0,-104.0,0
3702,-78.0,-211.0,-103.0,0
3703,-78.0,-216.0,-103.0,0
3704,-76.0,-217.0,-105.0,0
3705,-76.0,-221.0,-105.0,0
3706,-78.0,-223.0,-112.0,0
3707,-73.0,-216.0,-118.0,0
3708,-78.0,-216.0,-118.0,0
3709,-76.0,-218.0,-115.0,0
3710,-71.0,-210.0,-112.0,0
3711,-75.0,-218.0,-111.0,0
3712,-74.0,-217.0,-110.0,0
3713,-72.0,-219.0,-106.0,0
3714,-76.0,-217.0,-101.0,0
3715,-72.0,-216.0,-107.0,0
3716,-68.0,-212.0,-104.0,0
3717,-67.0,-215.0,-96.0,0
3718,-63.0,-211.0,-99.0,0
3719,-61.0,-210.0,-95.0,0
3720,-61.0,-208.0,-97.0,0
3721,-59.0,-212.0,-98.0,0
3722,-62.0,-207.0,-97.0,0
3723,-64.0,-207.0,-100.0,0
3724,-64.0,-208.0,-101.0,0
3725,-67.0,-208.0,-103.0,0
3726,-68.0,-203.0,-108.0,0
3727,-77.0,-199.0,-105.0,0
3728,-79.0,-197.0,-112.0,0
3729,-79.0,-195.0,-108.0,0
3730,-83.0,-193.0,-112.0,0
3731,-76.0,-191.0,-110.0,0
3732,-85.0,-194.0,-109.0,0
3733,-84.0,-195.0,-113.0,0
3734,-84.0,-197.0,-108.0,0
3735,-85.0,-198.0,-112.0,0
3736,-81.0,-201.0,-113.0,0
3737,-81.0,-197.0,-116.0,0
3738,-82.0,-202.0,-126.0,0
3739,-83.0,-197.0,-127.0,0
3740,-80.0,-203.0,-126.0,0
3741,-81.0,-204.0,-123.0,0
3742,-78.0,-208.0,-124.0,0
3743,-74.0,-206.0,-127.0,0
3744,-69.0,-213.0,-124.0,0
3745,-69.0,-210.0,-127.0,0
3746,-65.0,-217.0,-126.0,0
3747,-64.0,-218.0,-119.0,0
3748,-62.0,-222.0,-120.0,0
3749,-54.0,-224.0,-114.0,0
3750,-52.0,-231.0,-112.0,0
3751,-48.0,-234.0,-110.0,0
3752,-44.0,-235.0,-102.0,0
3753,-43.0,-244.0,-94.0,0
3754,-49.0,-241.0,-99.0,0
3755,-49.0,-245.0,-95.0,0
3756,-50.0,-251.0,-92.0,0
3757,-49.0,-250.0,-90.0,0
3758,-52.0,-256.0,-87.0,0
3759,-51.0,-257.0,-84.0,0
3760,-50.0,-257.0,-87.0,0
3761,-48.0,-260.0,-85.0,0
3762,-50.0,-263.0,-85.0,0
3763,-48.0,-266.0,-83.0,0
3764,-45.0,-267.0,-79.0,0
3765,-53.0,-266.0,-78.0,0
3766,-49.0,-270.0,-74.0,0
3767,-56.0,-265.0,-76.0,0
3768,-55.0,-269.0,-81.0,0
3769,-56.0,-263.0,-83.0,0
3770,-53.0,-259.0,-89.0,0
3771,-58.0,-261.0,-96.0,0
3772,-60.0,-258.0,-90.0,0
3773,-61.0,-256.0,-91.0,0
3774,-64.0,-252.0,-87.0,0
3775,-62.0,-256.0,-90.0,0
3776,-59.0,-251.0,-84.0,0
3777,-49.0,-253.0,-89.0,0
3778,-46.0,-253.0,-91.0,0
3779,-43.0,-255.0,-100.0,0
3780,-44.0,-250.0,-117.0,0
3781,-45.0,-246.0,-137.0,0
3782,-47.0,-243.0,-158.0,0
3783,-52.0,-235.0,-170.0,0
3784,-53.0,-233.0,-171.0,0
3785,-50.0,-233.0,-161.0,0
3786,-46.0,-237.0,-148.0,0
3787,-47.0,-235.0,-138.0,0
3788,-52.0,-230.0,-124.0,0
3789,-51.0,-220.0,-123.0,0
3790,-48.0,-213.0,-121.0,0
3791,-44.0,-207.0,-116.0,0
3792,-40.0,-203.0,-111.0,0
3793,-36.0,-200.0,-99.0,0
3794,-29.0,-202.0,-86.0,0
3795,-19.0,-196.0,-77.0,0
3796,-16.0,-187.0,-65.0,0
3797,0.0,-187.0,-67.0,0
3798,4.0,-183.0,-60.0,0
3799,14.0,-177.0,-63.0,0
3800,16.0,-177.0,-58.0,0
3801,21.0,-178.0,-59.0,0
3802,27.0,-177.0,-61.0,0
3803,25.0,-182.0,-67.0,0
3804,19.0,-186.0,-81.0,0
3805,17.0,-191.0,-89.0,0
3806,14.0,-205.0,-95.0,0
3807,9.0,-216.0,-106.0,0
3808,3.0,-229.0,-112.0,0
3809,0.0,-242.0,-119.0,0
3810,-4.0,-252.0,-122.0,0
3811,-13.0,-260.0,-128.0,0
3812,-27.0,-265.0,-130.0,0
3813,-34.0,-270.0,-132.0,0
3814,-45.0,-273.0,-131.0,0
3815,-53.0,-274.0,-124.0,0
3816,-59.0,-278.0,-120.0,0
3817,-61.0,-279.0,-120.0,0
3818,-60.0,-275.0,-126.0,0
3819,-54.0,-277.0,-113.0,0
3820,-46.0,-281.0,-111.0,0
3821,-33.0,-279.0,-104.0,0
3822,-22.0,-279.0,-106.0,0
3823,-11.0,-280.0,-98.0,0
3824,2.0,-283.0,-93.0,0
3825,2.0,-280.0,-94.0,0
3826,8.0,-279.0,-92.0,0
3827,15.0,-272.0,-95.0,0
3828,22.0,-266.0,-99.0,0
3829,24.0,-260.0,-97.0,0
3830,25.0,-252.0,-100.0,0
3831,24.0,-247.0,-101.0,0
3832,25.0,-242.0,-94.0,0
3833,25.0,-236.0,-90.0,0
3834,25.0,-235.0,-86.0,0
3835,17.0,-229.0,-84.0,0
3836,13.0,-224.0,-80.0,0
3837,9.0,-224.0,-79.0,0
3838,5.0,-224.0,-78.0,0
3839,-13.0,-214.0,-73.0,0
3840,-2.0,-216.0,-79.0,0
3841,-6.0,-216.0,-80.0,0
3842,-7.0,-214.0,-83.0,0
3843,-11.0,-211.0,-86.0,0
3844,-13.0,-212.0,-83.0,0
3845,-10.0,-211.0,-92.0,0
3846,-12.0,-210.0,-94.0,0
3847,-8.0,-209.0,-98.0,0
3848,-10.0,-207.0,-100.0,0
3849,-8.0,-204.0,-105.0,0
3850,-8.0,-202.0,-105.0,0
3851,-2.0,-202.0,-103.0,0
3852,-1.0,-196.0,-101.0,0
3853,-1.0,-193.0,-105.0,0
3854,-3.0,-190.0,-104.0,0
3855,-1.0,-189.0,-110.0,0
3856,-1.0,-186.0,-112.0,0
3857,-2.0,-187.0,-113.0,0
3858,-3.0,-189.0,-113.0,0
3859,1.0,-196.0,-113.0,0
3860,1.0,-201.0,-110.0,0
3861,5.0,-212.0,-117.0,0
3862,11.0,-219.0,-115.0,0
3863,13.0,-226.0,-120.0,0
3864,9.0,-229.0,-123.0,0
3865,10.0,-231.0,-130.0,0
3866,13.0,-232.0,-137.0,0
3867,12.0,-232.0,-141.0,0
3868,13.0,-236.0,-140.0,0
3869,15.0,-235.0,-141.0,0
3870,19.0,-245.0,-130.0,0
3871,28.0,-250.0,-126.0,0
3872,30.0,-251.0,-118.0,0
3873,38.0,-256.0,-118.0,0
3874,39.0,-254.0,-119.0,0
3875,39.0,-254.0,-125.0,0
3876,39.0,-251.0,-130.0,0
3877,36.0,-249.0,-133.0,0
3878,32.0,-249.0,-132.0,0
3879,27.0,-250.0,-131.0,0
3880,23.0,-248.0,-133.0,0
3881,13.0,-248.0,-126.0,0
3882,4.0,-247.0,-124.0,0
3883,2.0,-246.0,-122.0,0
3884,0.0,-245.0,-115.0,0
3885,-8.0,-241.0,-113.0,0
3886,-11.0,-242.0,-98.0,0
3887,-17.0,-238.0,-100.0,0
3888,-16.0,-236.0,-96.0,0
3889,-14.0,-239.0,-93.0,0
3890,-18.0,-237.0,-101.0,0
3891,-27.0,-237.0,-98.0,0
3892,-33.0,-235.0,-97.0,0
3893,-39.0,-233.0,-95.0,0
3894,-40.0,-231.0,-97.0,0
3895,-40.0,-233.0,-97.0,0
3896,-45.0,-231.0,-97.0,0
3897,-49.0,-234.0,-100.0,0
3898,-55.0,-236.0,-103.0,0
3899,-54.0,-243.0,-99.0,0
3900,-53.0,-245.0,-94.0,0
3901,-50.0,-246.0,-94.0,0
3902,-42.0,-248.0,-87.0,0
3903,-34.0,-247.0,-82.0,0
3904,-34.0,-247.0,-82.0,0
3905,-41.0,-250.0,-81.0,0
3906,-43.0,-256.0,-75.0,0
3907,-54.0,-261.0,-69.0,0
3908,-61.0,-262.0,-65.0,0
3909,-63.0,-265.0,-61.0,0
3910,-69.0,-267.0,-58.0,0
3911,-66.0,-272.0,-55.0,0
3912,-68.0,-276.0,-53.0,0
3913,-68.0,-279.0,-49.0,0
3914,-65.0,-284.0,-49.0,0
3915,-64.0,-280.0,-45.0,0
3916,-62.0,-275.0,-54.0,0
3917,-59.0,-275.0,-47.0,0
3918,-57.0,-271.0,-51.0,0
3919,-52.0,-270.0,-54.0,0
3920,-50.0,-271.0,-49.0,0
3921,-48.0,-272.0,-54.0,0
3922,-50.0,-276.0,-48.0,0
3923,-53.0,-278.0,-41.0,0
3924,-58.0,-278.0,-41.0,0
3925,-54.0,-269.0,-44.0,0
3926,-74.0,-272.0,-41.0,0
3927,-80.0,-264.0,-43.0,0
3928,-82.0,-253.0,-58.0,0
3929,-91.0,-241.0,-65.0,0
3930,-90.0,-228.0,-66.0,0
3931,-84.0,-218.0,-67.0,0
3932,-82.0,-206.0,-67.0,0
3933,-80.0,-199.0,-62.0,0
3934,-71.0,-197.0,-55.0,0
3935,-63.0,-195.0,-52.0,0
3936,-54.0,-196.0,-52.0,0
3937,-44.0,-198.0,-48.0,0
3938,-38.0,-203.0,-48.0,0
3939,-34.0,-211.0,-52.0,0
3940,-31.0,-217.0,-52.0,0
3941,-28.0,-220.0,-45.0,0
3942,-20.0,-223.0,-52.0,0
3943,-20.0,-230.0,-51.0,0
3944,-18.0,-238.0,-51.0,0
3945,-19.0,-244.0,-51.0,0
3946,-16.0,-251.0,-43.0,0
3947,-19.0,-265.0,-47.0,0
3948,-21.0,-267.0,-44.0,0
3949,-24.0,-275.0,-45.0,0
3950,-23.0,-280.0,-45.0,0
3951,-29.0,-287.0,-49.0,0
3952,-37.0,-285.0,-51.0,0
3953,-41.0,-286.0,-60.0,0
3954,-44.0,-289.0,-62.0,0
3955,-46.0,-290.0,-61.0,0
3956,-52.0,-288.0,-62.0,0
3957,-59.0,-283.0,-64.0,0
3958,-61.0,-275.0,-64.0,0
3959,-61.0,-273.0,-64.0,0
3960,-62.0,-265.0,-58.0,0
3961,-64.0,-263.0,-59.0,0
3962,-65.0,-261.0,-57.0,0
3963,-65.0,-258.0,-57.0,0
3964,-63.0,-255.0,-54.0,0
3965,-61.0,-254.0,-53.0,0
3966,-60.0,-249.0,-55.0,0
3967,-61.0,-249.0,-57.0,0
3968,-57.0,-248.0,-59.0,0
3969,-60.0,-246.0,-62.0,0
3970,-46.0,-249.0,-62.0,0
3971,-54.0,-248.0,-65.0,0
3972,-44.0,-252.0,-67.0,0
3973,-42.0,-255.0,-61.0,0
3974,-37.0,-256.0,-59.0,0
3975,-32.0,-262.0,-55.0,0
3976,-31.0,-262.0,-59.0,0
3977,-35.0,-258.0,-59.0,0
3978,-33.0,-263.0,-56.0,0
3979,-36.0,-262.0,-65.0,0
3980,-40.0,-256.0,-62.0,0
3981,-40.0,-260.0,-66.0,0
3982,-40.0,-258.0,-65.0,0
3983,-43.0,-260.0,-69.0,0
3984,-43.0,-258.0,-66.0,0
3985,-46.0,-256.0,-75.0,0
3986,-48.0,-253.0,-83.0,0
3987,-53.0,-255.0,-80.0,0
3988,-57.0,-260.0,-84.0,0
3989,-59.0,-269.0,-87.0,0
3990,-63.0,-276.0,-99.0,0
3991,-51.0,-275.0,-109.0,0
3992,-35.0,-276.0,-121.0,0
3993,-22.0,-278.0,-132.0,0
3994,-15.0,-282.0,-125.0,0
3995,-21.0,-275.0,-110.0,0
3996,-33.0,-261.0,-91.0,0
3997,-34.0,-248.0,-77.0,0
3998,-35.0,-236.0,-69.0,0
3999,-34.0,-215.0,-65.0,0
4000,-33.0,-201.0,-54.0,0
4001,-31.0,-190.0,-50.0,0
4002,-30.0,-183.0,-48.0,0
4003,-23.0,-177.0,-41.0,0
4004,-18.0,-179.0,-41.0,0
4005,-17.0,-172.0,-32.0,0
4006,-14.0,-170.0,-30.0,0
4007,-19.0,-169.0,-26.0,0
4008,-12.0,-169.0,-30.0,0
4009,-10.0,-168.0,-30.0,0
4010,-14.0,-171.0,-38.0,0
4011,-14.0,-177.0,-44.0,0
4012,-15.0,-182.0,-53.0,0
4013,-15.0,-197.0,-59.0,0
4014,-15.0,-203.0,-60.0,0
4015,-17.0,-213.0,-66.0,0
4016,-16.0,-220.0,-73.0,0
4017,-16.0,-233.0,-76.0,0
4018,-19.0,-243.0,-81.0,0
4019,-22.0,-250.0,-84.0,0
4020,-24.0,-260.0,-86.0,0
4021,-24.0,-272.0,-89.0,0
4022,-27.0,-281.0,-91.0,0
4023,-29.0,-289.0,-93.0,0
4024,-30.0,-301.0,-98.0,0
4025,-27.0,-310.0,-104.0,0
4026,-25.0,-315.0,-102.0,0
4027,-28.0,-318.0,-107.0,0
4028,-27.0,-322.0,-110.0,0
4029,-30.0,-321.0,-106.0,0
4030,-26.0,-318.0,-109.0,0
4031,-28.0,-312.0,-108.0,0
4032,-26.0,-306.0,-102.0,0
4033,-18.0,-296.0,-101.0,0
4034,-17.0,-293.0,-97.0,0
4035,-9.0,-282.0,-93.0,0
4036,-4.0,-270.0,-92.0,0
4037,-4.0,-259.0,-86.0,0
4038,-6.0,-248.0,-82.0,0
4039,-7.0,-248.0,-81.0,0
4040,-6.0,-235.0,-74.0,0
4041,-9.0,-229.0,-70.0,0
4042,-4.0,-229.0,-67.0,0
4043,-4.0,-230.0,-66.0,0
4044,-5.0,-227.0,-66.0,0
4045,0.0,-230.0,-64.0,0
4046,1.0,-228.0,-62.0,0
4047,0.0,-229.0,-59.0,0
4048,0.0,-227.0,-58.0,0
4049,0.0,-227.0,-57.0,0
4050,0.0,-231.0,-52.0,0
4051,-3.0,-228.0,-52.0,0
4052,-5.0,-234.0,-50.0,0
4053,-8.0,-233.0,-45.0,0
4054,-11.0,-234.0,-45.0,0
4055,-6.0,-229.0,-42.0,0
4056,-16.0,-233.0,-42.0,0
4057,-20.0,-234.0,-44.0,0
4058,-20.0,-235.0,-43.0,0
4059,-19.0,-236.0,-41.0,0
4060,-20.0,-236.0,-46.0,0
4061,-22.0,-235.0,-45.0,0
4062,-18.0,-234.0,-44.0,0
4063,-19.0,-234.0,-45.0,0
4064,-18.0,-237.0,-48.0,0
4065,-20.0,-238.0,-48.0,0
4066,-25.0,-239.0,-48.0,0
4067,-21.0,-238.0,-53.0,0
4068,-22.0,-238.0,-50.0,0
4069,-18.0,-244.0,-55.0,0
4070,-23.0,-245.0,-60.0,0
4071,-24.0,-248.0,-60.0,0
4072,-24.0,-250.0,-67.0,0
4073,-27.0,-256.0,-73.0,0
4074,-29.0,-258.0,-79.0,0
4075,-25.0,-263.0,-82.0,0
4076,-30.0,-263.0,-87.0,0
4077,-33.0,-267.0,-90.0,0
4078,-33.0,-269.0,-95.0,0
4079,-32.0,-271.0,-94.0,0
4080,-29.0,-273.0,-98.0,0
4081,-30.0,-270.0,-98.0,0
4082,-25.0,-274.0,-90.0,0
4083,-24.0,-268.0,-90.0,0
4084,-22.0,-263.0,-85.0,0
4085,-23.0,-262.0,-85.0,0
4086,-19.0,-259.0,-81.0,0
4087,-14.0,-257.0,-79.0,0
4088,-17.0,-251.0,-76.0,0
4089,-17.0,-248.0,-77.0,0
4090,-15.0,-244.0,-74.0,0
4091,-15.0,-243.0,-71.0,0
4092,-13.0,-240.0,-70.0,0
4093,-10.0,-240.0,-65.0,0
4094,-10.0,-235.0,-69.0,0
4095,-12.0,-240.0,-60.0,0
4096,-9.0,-238.0,-64.0,0
4097,-8.0,-237.0,-60.0,0
4098,-2.0,-235.0,-67.0,0
4099,-6.0,-237.0,-58.0,0
4100,-5.0,-238.0,-60.0,0
4101,-4.0,-240.0,-54.0,0
4102,-7.0,-236.0,-50.0,0
4103,-8.0,-243.0,-52.0,0
4104,-9.0,-243.0,-52.0,0
4105,-13.0,-242.0,-52.0,0
4106,-13.0,-244.0,-54.0,0
4107,-18.0,-246.0,-53.0,0
4108,-21.0,-246.0,-56.0,0
4109,-30.0,-245.0,-61.0,0
4110,-25.0,-244.0,-55.0,0
4111,-24.0,-246.0,-57.0,0
4112,-28.0,-247.0,-60.0,0
4113,-28.0,-249.0,-62.0,0
4114,-28.0,-250.0,-61.0,0
4115,-30.0,-248.0,-65.0,0
4116,-30.0,-251.0,-62.0,0
4117,-30.0,-253.0,-63.0,0
4118,-32.0,-252.0,-66.0,0
4119,-32.0,-255.0,-67.0,0
4120,-34.0,-245.0,-41.0,0
4121,-31.0,-253.0,-68.0,0
4122,-30.0,-252.0,-71.0,0
4123,-28.0,-254.0,-69.0,0
4124,-29.0,-255.0,-70.0,0
4125,-29.0,-254.0,-71.0,0
4126,-28.0,-253.0,-71.0,0
4127,-24.0,-252.0,-69.0,0
4128,-22.0,-253.0,-72.0,0
4129,-22.0,-254.0,-69.0,0
4130,-23.0,-251.0,-70.0,0
4131,-20.0,-253.0,-70.0,0
4132,-20.0,-251.0,-70.0,0
4133,-21.0,-252.0,-69.0,0
4134,-17.0,-252.0,-73.0,0
4135,-16.0,-250.0,-67.0,0
4136,-18.0,-249.0,-63.0,0
4137,-14.0,-248.0,-65.0,0
4138,-19.0,-247.0,-59.0,0
4139,-14.0,-251.0,-64.0,0
4140,-15.0,-249.0,-63.0,0
4141,-18.0,-250.0,-64.0,0
4142,-13.0,-247.0,-50.0,0
4143,-18.0,-250.0,-62.0,0
4144,-18.0,-248.0,-59.0,0
4145,-21.0,-247.0,-60.0,0
4146,-19.0,-250.0,-61.0,0
4147,-22.0,-247.0,-58.0,0
4148,-20.0,-246.0,-56.0,0
4149,-20.0,-249.0,-55.0,0
4150,-24.0,-246.0,-56.0,0
4151,-26.0,-244.0,-54.0,0
4152,-23.0,-247.0,-58.0,0
4153,-25.0,-245.0,-58.0,0
4154,-23.0,-245.0,-54.0,0
4155,-26.0,-246.0,-57.0,0
4156,-22.0,-247.0,-59.0,0
4157,-25.0,-247.0,-60.0,0
4158,-23.0,-250.0,-59.0,0
4159,-29.0,-244.0,-56.0,0
4160,-23.0,-251.0,-61.0,0
4161,-26.0,-250.0,-66.0,0
4162,-23.0,-250.0,-60.0,0
4163,-23.0,-251.0,-64.0,0
4164,-22.0,-243.0,-68.0,0
4165,-22.0,-251.0,-60.0,0
4166,-23.0,-253.0,-62.0,0
4167,-24.0,-251.0,-68.0,0
4168,-22.0,-253.0,-67.0,0
4169,-27.0,-249.0,-67.0,0
4170,-22.0,-251.0,-63.0,0
4171,-24.0,-251.0,-67.0,0
4172,-18.0,-251.0,-59.0,0
4173,-22.0,-251.0,-64.0,0
4174,-20.0,-252.0,-64.0,0
4175,-21.0,-248.0,-60.0,0
4176,-22.0,-251.0,-60.0,0
4177,-21.0,-253.0,-61.0,0
4178,-20.0,-250.0,-62.0,0
4179,-21.0,-249.0,-59.0,0
4180,-21.0,-248.0,-59.0,0
4181,-18.0,-251.0,-60.0,0
4182,-23.0,-249.0,-63.0,0
4183,-22.0,-248.0,-61.0,0
4184,-20.0,-250.0,-58.0,0
4185,-34.0,-243.0,-64.0,0
4186,-21.0,-249.0,-58.0,0
4187,-23.0,-251.0,-59.0,0
4188,-24.0,-249.0,-57.0,0
4189,-21.0,-249.0,-54.0,0
4190,-22.0,-253.0,-58.0,0
4191,-23.0,-249.0,-54.0,0
4192,-24.0,-250.0,-57.0,0
4193,-22.0,-251.0,-57.0,0
4194,-24.0,-248.0,-59.0,0
4195,-24.0,-248.0,-59.0,0
4196,-24.0,-248.0,-56.0,0
4197,-24.0,-248.0,-58.0,0
4198,-21.0,-249.0,-59.0,0
4199,-24.0,-250.0,-58.0,0
4200,-21.0,-248.0,-59.0,0
4201,-19.0,-249.0,-59.0,0
4202,-21.0,-246.0,-60.0,0
4203,-21.0,-248.0,-59.0,0
4204,-24.0,-248.0,-59.0,0
4205,-22.0,-250.0,-57.0,0
4206,-22.0,-248.0,-55.0,0
4207,-24.0,-247.0,-62.0,0
4208,-22.0,-249.0,-56.0,0
4209,-22.0,-250.0,-60.0,0
4210,-20.0,-252.0,-60.0,0
4211,-22.0,-250.0,-59.0,0
4212,-22.0,-250.0,-57.0,0
4213,-21.0,-252.0,-59.0,0
4214,-22.0,-249.0,-59.0,0
4215,-19.0,-252.0,-60.0,0
4216,-20.0,-252.0,-59.0,0
4217,-22.0,-255.0,-59.0,0
4218,-20.0,-249.0,-57.0,0
4219,-20.0,-251.0,-59.0,0
4220,-21.0,-247.0,-58.0,0
4221,-18.0,-252.0,-57.0,0
4222,-19.0,-249.0,-57.0,0
4223,-19.0,-249.0,-56.0,0
4224,-19.0,-249.0,-53.0,0
4225,-19.0,-250.0,-55.0,0
4226,-21.0,-249.0,-52.0,0
4227,-19.0,-250.0,-56.0,0
4228,-20.0,-251.0,-58.0,0
4229,-18.0,-249.0,-68.0,0
4230,-20.0,-249.0,-54.0,0
4231,-20.0,-248.0,-60.0,0
4232,-20.0,-249.0,-58.0,0
4233,-20.0,-249.0,-60.0,0
4234,-22.0,-251.0,-55.0,0
4235,-21.0,-249.0,-55.0,0
4236,-20.0,-253.0,-58.0,0
4237,-20.0,-250.0,-55.0,0
4238,-19.0,-250.0,-55.0,0
4239,-22.0,-251.0,-56.0,0
4240,-20.0,-252.0,-57.0,0
4241,-21.0,-249.0,-54.0,0
4242,-23.0,-248.0,-56.0,0
4243,-20.0,-250.0,-59.0,0
4244,-20.0,-248.0,-53.0,0
4245,-18.0,-249.0,-59.0,0
4246,-16.0,-248.0,-60.0,0
4247,-20.0,-249.0,-56.0,0
4248,-19.0,-252.0,-55.0,0
4249,-18.0,-252.0,-54.0,0
4250,-19.0,-250.0,-56.0,0
4251,-20.0,-249.0,-53.0,0
4252,-20.0,-251.0,-58.0,0
4253,-17.0,-252.0,-53.0,0
4254,-20.0,-251.0,-56.0,0
4255,-20.0,-249.0,-57.0,0
4256,-20.0,-252.0,-56.0,0
4257,-21.0,-251.0,-61.0,0
4258,-22.0,-254.0,-58.0,0
4259,-21.0,-250.0,-60.0,0
4260,-22.0,-250.0,-58.0,0
4261,-20.0,-248.0,-58.0,0
4262,-18.0,-250.0,-58.0,0
4263,-21.0,-250.0,-57.0,0
4264,-17.0,-253.0,-56.0,0
4265,-20.0,-249.0,-57.0,0
4266,-20.0,-253.0,-57.0,0
4267,-21.0,-250.0,-56.0,0
4268,-20.0,-249.0,-58.0,0
4269,-19.0,-249.0,-54.0,0
4270,-20.0,-250.0,-55.0,0
4271,-19.0,-252.0,-60.0,0
4272,-23.0,-248.0,-57.0,0
4273,-16.0,-250.0,-55.0,0
4274,-24.0,-249.0,-55.0,0
4275,-22.0,-250.0,-57.0,0
4276,-23.0,-251.0,-57.0,0
4277,-21.0,-249.0,-59.0,0
4278,-17.0,-250.0,-53.0,0
4279,-18.0,-250.0,-57.0,0
4280,-20.0,-251.0,-56.0,0
4281,-21.0,-251.0,-55.0,0
4282,-20.0,-249.0,-56.0,0
4283,-18.0,-251.0,-53.0,0
4284,-20.0,-252.0,-57.0,0
4285,-20.0,-251.0,-57.0,0
4286,-17.0,-251.0,-54.0,0
4287,-21.0,-251.0,-55.0,0
4288,-20.0,-248.0,-57.0,0
4289,-19.0,-250.0,-54.0,0
4290,-21.0,-251.0,-56.0,0
4291,-20.0,-249.0,-55.0,0
4292,-21.0,-252.0,-57.0,0
4293,-18.0,-253.0,-58.0,0
4294,-13.0,-252.0,-52.0,0
4295,-22.0,-251.0,-55.0,0
4296,-22.0,-251.0,-56.0,0
4297,-20.0,-249.0,-56.0,0
4298,-20.0,-251.0,-54.0,0
4299,-22.0,-248.0,-58.0,0
4300,-23.0,-249.0,-56.0,0
4301,-20.0,-251.0,-55.0,0
4302,-23.0,-251.0,-53.0,0
4303,-21.0,-250.0,-58.0,0
4304,-22.0,-250.0,-57.0,0
4305,-21.0,-251.0,-56.0,0
4306,-23.0,-250.0,-58.0,0
4307,-23.0,-250.0,-56.0,0
4308,-25.0,-250.0,-56.0,0
4309,-23.0,-249.0,-58.0,0
4310,-23.0,-250.0,-52.0,0
4311,-19.0,-250.0,-54.0,0
4312,-19.0,-250.0,-54.0,0
4313,-20.0,-249.0,-54.0,0
4314,-25.0,-252.0,-54.0,0
4315,-22.0,-251.0,-58.0,0
4316,-15.0,-254.0,-52.0,0
4317,-21.0,-249.0,-56.0,0
4318,-21.0,-252.0,-57.0,0
4319,-19.0,-253.0,-56.0,0
4320,-19.0,-249.0,-55.0,0
4321,-19.0,-250.0,-54.0,0
4322,-20.0,-251.0,-56.0,0
4323,-20.0,-248.0,-57.0,0
4324,-20.0,-249.0,-54.0,0
4325,-22.0,-250.0,-59.0,0
4326,-18.0,-250.0,-54.0,0
4327,-21.0,-250.0,-55.0,0
4328,-22.0,-251.0,-56.0,0
4329,-21.0,-250.0,-56.0,0
4330,-22.0,-248.0,-56.0,0
4331,-19.0,-249.0,-59.0,0
4332,-20.0,-249.0,-58.0,0
4333,-19.0,-251.0,-56.0,0
4334,-16.0,-249.0,-52.0,0
4335,-22.0,-247.0,-54.0,0
4336,-21.0,-248.0,-50.0,0
4337,-17.0,-252.0,-51.0,0
4338,-21.0,-254.0,-57.0,0
4339,-18.0,-249.0,-54.0,0
4340,-20.0,-251.0,-54.0,0
4341,-20.0,-247.0,-55.0,0
4342,-18.0,-248.0,-53.0,0
4343,-19.0,-250.0,-53.0,0
4344,-19.0,-251.0,-51.0,0
4345,-21.0,-251.0,-53.0,0
4346,-18.0,-249.0,-55.0,0
4347,-22.0,-250.0,-54.0,0
4348,-20.0,-252.0,-54.0,0
4349,-22.0,-250.0,-55.0,0
4350,-17.0,-251.0,-54.0,0
4351,-19.0,-251.0,-53.0,0
4352,-22.0,-252.0,-56.0,0
4353,-18.0,-254.0,-56.0,0
4354,-20.0,-255.0,-55.0,0
4355,-20.0,-251.0,-51.0,0
4356,-19.0,-253.0,-57.0,0
4357,-18.0,-251.0,-54.0,0
4358,-18.0,-251.0,-55.0,0
4359,-19.0,-253.0,-51.0,0
4360,-17.0,-247.0,-55.0,0
4361,-19.0,-251.0,-53.0,0
4362,-21.0,-252.0,-56.0,0
4363,-19.0,-249.0,-52.0,0
4364,-20.0,-252.0,-59.0,0
4365,-21.0,-251.0,-54.0,0
4366,-19.0,-249.0,-58.0,0
4367,-17.0,-253.0,-53.0,0
4368,-20.0,-247.0,-52.0,0
4369,-19.0,-252.0,-53.0,0
4370,-15.0,-251.0,-54.0,0
4371,-22.0,-249.0,-53.0,0
4372,-21.0,-249.0,-55.0,0
4373,-19.0,-253.0,-52.0,0
4374,-20.0,-249.0,-54.0,0
4375,-17.0,-251.0,-53.0,0
4376,-21.0,-248.0,-53.0,0
4377,-19.0,-253.0,-52.0,0
4378,-17.0,-253.0,-54.0,0
4379,-18.0,-249.0,-53.0,0
4380,-21.0,-252.0,-54.0,0
4381,-23.0,-248.0,-56.0,0
4382,-23.0,-250.0,-52.0,0
4383,-22.0,-252.0,-53.0,0
4384,-19.0,-249.0,-57.0,0
4385,-21.0,-251.0,-51.0,0
4386,-20.0,-253.0,-53.0,0
4387,-21.0,-250.0,-53.0,0
4388,-22.0,-253.0,-52.0,0
4389,-19.0,-251.0,-50.0,0
4390,-18.0,-249.0,-50.0,0
4391,-19.0,-252.0,-53.0,0
4392,-21.0,-249.0,-53.0,0
4393,-21.0,-251.0,-51.0,0
4394,-20.0,-250.0,-54.0,0
4395,-16.0,-252.0,-51.0,0
4396,-18.0,-250.0,-53.0,0
4397,-20.0,-253.0,-50.0,0
4398,-17.0,-251.0,-53.0,0
4399,-19.0,-248.0,-54.0,0
4400,-17.0,-252.0,-52.0,0
4401,-20.0,-250.0,-57.0,0
4402,-18.0,-250.0,-51.0,0
4403,-17.0,-241.0,-52.0,0
4404,-18.0,-253.0,-54.0,0
4405,-20.0,-250.0,-51.0,0
4406,-19.0,-252.0,-54.0,0
4407,-22.0,-252.0,-51.0,0
4408,-21.0,-249.0,-53.0,0
4409,-20.0,-249.0,-53.0,0
4410,-18.0,-251.0,-55.0,0
4411,-17.0,-250.0,-47.0,0
4412,-18.0,-252.0,-53.0,0
4413,-17.0,-250.0,-53.0,0
4414,-20.0,-252.0,-54.0,0
4415,-20.0,-249.0,-53.0,0
4416,-21.0,-251.0,-51.0,0
4417,-19.0,-251.0,-49.0,0
4418,-19.0,-250.0,-58.0,0
4419,-21.0,-252.0,-53.0,0
4420,-22.0,-252.0,-54.0,0
4421,-19.0,-249.0,-52.0,0
4422,-20.0,-251.0,-51.0,0
4423,-20.0,-250.0,-52.0,0
4424,-19.0,-252.0,-53.0,0
4425,-20.0,-250.0,-48.0,0
4426,-19.0,-254.0,-52.0,0
4427,-18.0,-251.0,-52.0,0
4428,-19.0,-252.0,-53.0,0
4429,-19.0,-251.0,-53.0,0
4430,-20.0,-248.0,-50.0,0
4431,-19.0,-250.0,-56.0,0
4432,-18.0,-248.0,-54.0,0
4433,-20.0,-252.0,-54.0,0
4434,-20.0,-248.0,-55.0,0
4435,-22.0,-250.0,-57.0,0
4436,-17.0,-252.0,-52.0,0
4437,-18.0,-250.0,-57.0,0
4438,-18.0,-250.0,-56.0,0
4439,-18.0,-250.0,-53.0,0
4440,-19.0,-254.0,-54.0,0
4441,-19.0,-250.0,-53.0,0
4442,-21.0,-251.0,-54.0,0
4443,-18.0,-250.0,-52.0,0
4444,-17.0,-252.0,-51.0,0
4445,-21.0,-249.0,-52.0,0
4446,-16.0,-252.0,-54.0,0
4447,-16.0,-254.0,-57.0,0
4448,-19.0,-251.0,-53.0,0
4449,-17.0,-255.0,-57.0,0
4450,-19.0,-251.0,-55.0,0
4451,-18.0,-250.0,-61.0,0
4452,-18.0,-253.0,-55.0,0
4453,-19.0,-251.0,-52.0,0
4454,-18.0,-255.0,-53.0,0
4455,-17.0,-250.0,-53.0,0
4456,-23.0,-251.0,-54.0,0
4457,-20.0,-251.0,-53.0,0
4458,-18.0,-250.0,-53.0,0
4459,-19.0,-252.0,-52.0,0
4460,-19.0,-252.0,-54.0,0
4461,-19.0,-250.0,-52.0,0
4462,-25.0,-251.0,-50.0,0
4463,-23.0,-249.0,-54.0,0
4464,-18.0,-250.0,-52.0,0
4465,-21.0,-249.0,-52.0,0
4466,-19.0,-248.0,-57.0,0
4467,-24.0,-249.0,-56.0,0
4468,-20.0,-250.0,-53.0,0
4469,-13.0,-242.0,-61.0,0
4470,-22.0,-252.0,-53.0,0
4471,-21.0,-250.0,-52.0,0
4472,-20.0,-249.0,-52.0,0
4473,-20.0,-248.0,-55.0,0
4474,-20.0,-249.0,-54.0,0
4475,-23.0,-251.0,-54.0,0
4476,-21.0,-251.0,-56.0,0
4477,-20.0,-248.0,-58.0,0
4478,-20.0,-250.0,-55.0,0
4479,-17.0,-251.0,-55.0,0
4480,-19.0,-248.0,-52.0,0
4481,-20.0,-249.0,-53.0,0
4482,-21.0,-250.0,-54.0,0
4483,-18.0,-250.0,-58.0,0
4484,-20.0,-252.0,-54.0,0
4485,-19.0,-252.0,-54.0,0
4486,-20.0,-248.0,-56.0,0
4487,-20.0,-250.0,-53.0,0
4488,-21.0,-254.0,-55.0,0
4489,-19.0,-253.0,-56.0,0
4490,-20.0,-260.0,-50.0,0
4491,-20.0,-250.0,-57.0,0
4492,-20.0,-249.0,-54.0,0
4493,-23.0,-249.0,-53.0,0
4494,-19.0,-250.0,-55.0,0
4495,-21.0,-251.0,-54.0,0
4496,-19.0,-248.0,-55.0,0
4497,-21.0,-252.0,-55.0,0
4498,-23.0,-250.0,-56.0,0
4499,-20.0,-249.0,-51.0,0
4500,-22.0,-250.0,-54.0,0
4501,-20.0,-248.0,-57.0,0
4502,-16.0,-251.0,-53.0,0
4503,-15.0,-249.0,-56.0,0
4504,-21.0,-249.0,-55.0,0
4505,-20.0,-248.0,-51.0,0
4506,-21.0,-249.0,-51.0,0
4507,-19.0,-254.0,-52.0,0
4508,-19.0,-250.0,-55.0,0
4509,-19.0,-249.0,-55.0,0
4510,-26.0,-249.0,-57.0,0
4511,-20.0,-248.0,-54.0,0
4512,-17.0,-251.0,-60.0,0
4513,-18.0,-249.0,-57.0,0
4514,-20.0,-248.0,-57.0,0
4515,-20.0,-249.0,-57.0,0
4516,-19.0,-250.0,-58.0,0
4517,-24.0,-250.0,-55.0,0
4518,-21.0,-253.0,-59.0,0
4519,-19.0,-251.0,-60.0,0
4520,-20.0,-251.0,-56.0,0
4521,-21.0,-250.0,-56.0,0
4522,-15.0,-251.0,-53.0,0
4523,-22.0,-252.0,-56.0,0
4524,-21.0,-249.0,-53.0,0
4525,-21.0,-248.0,-55.0,0
4526,-21.0,-248.0,-57.0,0
4527,-20.0,-249.0,-58.0,0
4528,-19.0,-254.0,-56.0,0
4529,-18.0,-249.0,-56.0,0
4530,-20.0,-250.0,-57.0,0
4531,-21.0,-249.0,-57.0,0
4532,-18.0,-249.0,-59.0,0
4533,-19.0,-250.0,-57.0,0
4534,-30.0,-251.0,-63.0,0
4535,-19.0,-248.0,-55.0,0
4536,-21.0,-249.0,-54.0,0
4537,-24.0,-250.0,-57.0,0
4538,-23.0,-249.0,-58.0,0
4539,-19.0,-251.0,-57.0,0
4540,-20.0,-252.0,-57.0,0
4541,-19.0,-251.0,-58.0,0
4542,-22.0,-251.0,-59.0,0
4543,-17.0,-252.0,-60.0,0
4544,-23.0,-249.0,-54.0,0
4545,-18.0,-252.0,-57.0,0
4546,-21.0,-249.0,-55.0,0
4547,-19.0,-250.0,-58.0,0
4548,-18.0,-249.0,-57.0,0
4549,-19.0,-250.0,-59.0,0
4550,-18.0,-251.0,-59.0,0
4551,-23.0,-249.0,-56.0,0
4552,-19.0,-248.0,-56.0,0
4553,-20.0,-250.0,-58.0,0
4554,-21.0,-249.0,-57.0,0
4555,-19.0,-250.0,-57.0,0
4556,-13.0,-248.0,-57.0,0
4557,-20.0,-250.0,-57.0,0
4558,-17.0,-252.0,-57.0,0
4559,-18.0,-250.0,-55.0,0
4560,-20.0,-252.0,-55.0,0
4561,-19.0,-251.0,-57.0,0
4562,-21.0,-250.0,-58.0,0
4563,-18.0,-255.0,-55.0,0
4564,-21.0,-248.0,-59.0,0
4565,-20.0,-250.0,-55.0,0
4566,-19.0,-250.0,-58.0,0
4567,-21.0,-248.0,-61.0,0
4568,-21.0,-250.0,-58.0,0
4569,-22.0,-250.0,-62.0,0
4570,-16.0,-248.0,-60.0,0
4571,-21.0,-248.0,-60.0,0
4572,-19.0,-249.0,-61.0,0
4573,-17.0,-250.0,-57.0,0
4574,-17.0,-252.0,-57.0,0
4575,-17.0,-250.0,-59.0,0
4576,-20.0,-248.0,-57.0,0
4577,-16.0,-251.0,-57.0,0
4578,-28.0,-252.0,-66.0,0
4579,-20.0,-252.0,-59.0,0
4580,-21.0,-253.0,-61.0,0
4581,-19.0,-251.0,-58.0,0
4582,-18.0,-254.0,-63.0,0
4583,-19.0,-250.0,-62.0,0
4584,-19.0,-249.0,-64.0,0
4585,-17.0,-252.0,-64.0,0
4586,-18.0,-249.0,-64.0,0
4587,-18.0,-252.0,-57.0,0
4588,-18.0,-249.0,-58.0,0
4589,-19.0,-248.0,-56.0,0
4590,-20.0,-249.0,-59.0,0
4591,-16.0,-250.0,-58.0,0
4592,-20.0,-251.0,-59.0,0
4593,-20.0,-252.0,-58.0,0
4594,-21.0,-249.0,-60.0,0
4595,-21.0,-249.0,-57.0,0
4596,-21.0,-247.0,-57.0,0
4597,-19.0,-247.0,-59.0,0
4598,-20.0,-250.0,-58.0,0
4599,-19.0,-247.0,-53.0,0
4600,-18.0,-248.0,-59.0,0
4601,-22.0,-248.0,-59.0,0
4602,-21.0,-249.0,-58.0,0
4603,-20.0,-249.0,-58.0,0
4604,-22.0,-249.0,-61.0,0
4605,-19.0,-248.0,-57.0,0
4606,-21.0,-250.0,-58.0,0
4607,-17.0,-250.0,-62.0,0
4608,-20.0,-248.0,-61.0,0
4609,-17.0,-247.0,-59.0,0
4610,-18.0,-249.0,-61.0,0
4611,-21.0,-248.0,-60.0,0
4612,-17.0,-248.0,-59.0,0
4613,-20.0,-249.0,-60.0,0
4614,-18.0,-252.0,-60.0,0
4615,-20.0,-248.0,-59.0,0
4616,-18.0,-248.0,-61.0,0
4617,-16.0,-251.0,-60.0,0
4618,-18.0,-251.0,-57.0,0
4619,-20.0,-250.0,-60.0,0
4620,-23.0,-249.0,-60.0,0
4621,-16.0,-252.0,-54.0,0
4622,-19.0,-248.0,-58.0,0
4623,-17.0,-250.0,-60.0,0
4624,-20.0,-251.0,-63.0,0
4625,-22.0,-249.0,-59.0,0
4626,-17.0,-250.0,-63.0,0
4627,-18.0,-250.0,-59.0,0
4628,-18.0,-248.0,-61.0,0
4629,-18.0,-249.0,-59.0,0
4630,-18.0,-251.0,-61.0,0
4631,-17.0,-249.0,-64.0,0
4632,-20.0,-250.0,-63.0,0
4633,-20.0,-248.0,-62.0,0
4634,-19.0,-251.0,-59.0,0
4635,-18.0,-249.0,-65.0,0
4636,-15.0,-249.0,-60.0,0
4637,-20.0,-248.0,-60.0,0
4638,-17.0,-249.0,-60.0,0
4639,-22.0,-250.0,-58.0,0
4640,-20.0,-248.0,-61.0,0
4641,-21.0,-249.0,-62.0,0
4642,-19.0,-249.0,-59.0,0
4643,-24.0,-250.0,-61.0,0
4644,-18.0,-249.0,-60.0,0
4645,-17.0,-251.0,-61.0,0
4646,-20.0,-250.0,-59.0,0
4647,-19.0,-248.0,-59.0,0
4648,-18.0,-250.0,-59.0,0
4649,-20.0,-250.0,-58.0,0
4650,-19.0,-253.0,-61.0,0
4651,-20.0,-250.0,-63.0,0
4652,-21.0,-252.0,-57.0,0
4653,-19.0,-252.0,-60.0,0
4654,-21.0,-250.0,-60.0,0
4655,-19.0,-248.0,-61.0,0
4656,-17.0,-250.0,-62.0,0
4657,-20.0,-250.0,-61.0,0
4658,-20.0,-249.0,-61.0,0
4659,-21.0,-249.0,-60.0,0
4660,-18.0,-253.0,-59.0,0
4661,-21.0,-251.0,-59.0,0
4662,-19.0,-250.0,-64.0,0
4663,-20.0,-251.0,-62.0,0
4664,-17.0,-249.0,-64.0,0
4665,-31.0,-246.0,-56.0,0
4666,-18.0,-248.0,-61.0,0
4667,-19.0,-248.0,-60.0,0
4668,-18.0,-251.0,-60.0,0
4669,-19.0,-250.0,-60.0,0
4670,-21.0,-252.0,-60.0,0
4671,-19.0,-252.0,-61.0,0
4672,-17.0,-253.0,-59.0,0
4673,-17.0,-251.0,-59.0,0
4674,-19.0,-248.0,-61.0,0
4675,-16.0,-249.0,-66.0,0
4676,-19.0,-248.0,-63.0,0
4677,-18.0,-248.0,-60.0,0
4678,-18.0,-247.0,-60.0,0
4679,-19.0,-250.0,-59.0,0
4680,-18.0,-250.0,-59.0,0
4681,-19.0,-251.0,-60.0,0
4682,-21.0,-249.0,-61.0,0
4683,-17.0,-251.0,-58.0,0
4684,-19.0,-250.0,-64.0,0
4685,-20.0,-253.0,-59.0,0
4686,-15.0,-249.0,-62.0,0
4687,-29.0,-250.0,-61.0,0
4688,-20.0,-250.0,-63.0,0
4689,-19.0,-251.0,-62.0,0
4690,-20.0,-251.0,-61.0,0
4691,-20.0,-250.0,-61.0,0
4692,-20.0,-247.0,-60.0,0
4693,-21.0,-249.0,-60.0,0
4694,-22.0,-250.0,-61.0,0
4695,-20.0,-249.0,-62.0,0
4696,-21.0,-248.0,-62.0,0
4697,-19.0,-249.0,-61.0,0
4698,-22.0,-250.0,-59.0,0
4699,-20.0,-250.0,-59.0,0
4700,-19.0,-249.0,-59.0,0
4701,-18.0,-252.0,-60.0,0
4702,-20.0,-251.0,-61.0,0
4703,-24.0,-248.0,-56.0,0
4704,-19.0,-249.0,-66.0,0
4705,-20.0,-250.0,-60.0,0
4706,-20.0,-250.0,-61.0,0
4707,-18.0,-250.0,-60.0,0
4708,-21.0,-254.0,-70.0,0
4709,-21.0,-247.0,-62.0,0
4710,-19.0,-251.0,-58.0,0
4711,-20.0,-248.0,-58.0,0
4712,-19.0,-249.0,-56.0,0
4713,-18.0,-250.0,-59.0,0
4714,-18.0,-250.0,-60.0,0
4715,-20.0,-250.0,-60.0,0
4716,-20.0,-250.0,-62.0,0
4717,-21.0,-250.0,-59.0,0
4718,-21.0,-248.0,-59.0,0
4719,-18.0,-252.0,-58.0,0
4720,-20.0,-251.0,-56.0,0
4721,-17.0,-252.0,-55.0,0
4722,-20.0,-254.0,-57.0,0
4723,-15.0,-251.0,-61.0,0
4724,-17.0,-250.0,-57.0,0
4725,-20.0,-249.0,-63.0,0
4726,-18.0,-247.0,-60.0,0
4727,-18.0,-247.0,-58.0,0
4728,-20.0,-250.0,-63.0,0
4729,-18.0,-250.0,-59.0,0
4730,-20.0,-258.0,-61.0,0
4731,-21.0,-248.0,-62.0,0
4732,-17.0,-251.0,-57.0,0
4733,-18.0,-247.0,-58.0,0
4734,-22.0,-248.0,-57.0,0
4735,-19.0,-250.0,-62.0,0
4736,-22.0,-251.0,-58.0,0
4737,-20.0,-249.0,-58.0,0
4738,-24.0,-251.0,-54.0,0
4739,-20.0,-250.0,-58.0,0
4740,-16.0,-251.0,-61.0,0
4741,-20.0,-251.0,-61.0,0
4742,-20.0,-249.0,-61.0,0
4743,-20.0,-248.0,-56.0,0
4744,-23.0,-247.0,-63.0,0
4745,-21.0,-248.0,-61.0,0
4746,-20.0,-251.0,-58.0,0
4747,-21.0,-248.0,-61.0,0
4748,-21.0,-249.0,-58.0,0
4749,-23.0,-247.0,-60.0,0
4750,-20.0,-248.0,-62.0,0
4751,-23.0,-249.0,-60.0,0
4752,-24.0,-251.0,-57.0,0
4753,-19.0,-251.0,-57.0,0
4754,-22.0,-251.0,-61.0,0
4755,-20.0,-249.0,-59.0,0
4756,-21.0,-250.0,-59.0,0
4757,-19.0,-250.0,-61.0,0
4758,-20.0,-248.0,-61.0,0
4759,-21.0,-248.0,-55.0,0
4760,-22.0,-249.0,-57.0,0
4761,-21.0,-248.0,-57.0,0
4762,-21.0,-252.0,-56.0,0
4763,-20.0,-250.0,-59.0,0
4764,-20.0,-254.0,-58.0,0
4765,-23.0,-250.0,-56.0,0
4766,-19.0,-251.0,-56.0,0
4767,-19.0,-252.0,-56.0,0
4768,-20.0,-250.0,-55.0,0
4769,-22.0,-249.0,-55.0,0
4770,-19.0,-251.0,-58.0,0
4771,-17.0,-254.0,-56.0,0
4772,-18.0,-253.0,-59.0,0
4773,-19.0,-252.0,-55.0,0
4774,-22.0,-254.0,-56.0,0
4775,-19.0,-252.0,-58.0,0
4776,-24.0,-250.0,-62.0,0
4777,-18.0,-250.0,-56.0,0
4778,-19.0,-252.0,-59.0,0
4779,-21.0,-250.0,-58.0,0
4780,-18.0,-251.0,-57.0,0
4781,-17.0,-252.0,-60.0,0
4782,-19.0,-250.0,-59.0,0
4783,-21.0,-250.0,-57.0,0
4784,-19.0,-251.0,-60.0,0
4785,-19.0,-247.0,-51.0,0
4786,-23.0,-249.0,-59.0,0
4787,-23.0,-250.0,-58.0,0
4788,-21.0,-250.0,-60.0,0
4789,-24.0,-249.0,-60.0,0
4790,-21.0,-252.0,-57.0,0
4791,-21.0,-250.0,-57.0,0
4792,-23.0,-250.0,-58.0,0
4793,-20.0,-250.0,-59.0,0
4794,-19.0,-251.0,-57.0,0
4795,-19.0,-251.0,-58.0,0
