,accelerometer_x,accelerometer_y,accelerometer_z,fall
0,2.0,-252.0,-47.0,0
1,2.0,-254.0,-48.0,0
2,0.0,-251.0,-49.0,0
3,-2.0,-253.0,-48.0,0
4,0.0,-252.0,-50.0,0
5,-2.0,-248.0,-48.0,0
6,-1.0,-253.0,-46.0,0
7,-1.0,-253.0,-44.0,0
8,-1.0,-254.0,-47.0,0
9,-2.0,-253.0,-47.0,0
10,-2.0,-249.0,-52.0,0
11,-1.0,-251.0,-50.0,0
12,-1.0,-250.0,-46.0,0
13,0.0,-252.0,-48.0,0
14,-1.0,-253.0,-48.0,0
15,-1.0,-253.0,-50.0,0
16,-3.0,-254.0,-47.0,0
17,-3.0,-252.0,-48.0,0
18,-1.0,-251.0,-47.0,0
19,-3.0,-252.0,-49.0,0
20,-1.0,-254.0,-51.0,0
21,-1.0,-251.0,-51.0,0
22,0.0,-251.0,-52.0,0
23,-3.0,-253.0,-51.0,0
24,-3.0,-251.0,-45.0,0
25,-5.0,-256.0,-50.0,0
26,-2.0,-256.0,-48.0,0
27,-4.0,-255.0,-47.0,0
28,1.0,-257.0,-49.0,0
29,-1.0,-255.0,-48.0,0
30,-4.0,-253.0,-52.0,0
31,-2.0,-251.0,-48.0,0
32,1.0,-249.0,-49.0,0
33,-1.0,-251.0,-52.0,0
34,0.0,-250.0,-58.0,0
35,1.0,-249.0,-56.0,0
36,-3.0,-252.0,-57.0,0
37,-4.0,-246.0,-56.0,0
38,1.0,-251.0,-52.0,0
39,-1.0,-251.0,-54.0,0
40,-2.0,-251.0,-51.0,0
41,0.0,-253.0,-50.0,0
42,0.0,-255.0,-50.0,0
43,-3.0,-256.0,-46.0,0
44,-2.0,-256.0,-47.0,0
45,2.0,-256.0,-49.0,0
46,-1.0,-253.0,-47.0,0
47,0.0,-252.0,-47.0,0
48,-2.0,-252.0,-54.0,0
49,-4.0,-252.0,-53.0,0
50,-1.0,-252.0,-52.0,0
51,-4.0,-252.0,-53.0,0
52,2.0,-248.0,-54.0,0
53,0.0,-252.0,-55.0,0
54,0.0,-252.0,-54.0,0
55,0.0,-252.0,-53.0,0
56,1.0,-251.0,-56.0,0
57,-2.0,-251.0,-53.0,0
58,-2.0,-252.0,-52.0,0
59,8.0,-248.0,-67.0,0
60,-7.0,-262.0,-61.0,0
61,-2.0,-242.0,-60.0,0
62,9.0,-246.0,-54.0,0
63,12.0,-248.0,-56.0,0
64,6.0,-254.0,-45.0,0
65,5.0,-257.0,-59.0,0
66,0.0,-257.0,-54.0,0
67,-3.0,-259.0,-46.0,0
68,4.0,-243.0,-54.0,0
69,-5.0,-256.0,-55.0,0
70,-5.0,-254.0,-52.0,0
71,-5.0,-255.0,-56.0,0
72,-1.0,-253.0,-56.0,0
73,-11.0,-250.0,-51.0,0
74,-2.0,-252.0,-56.0,0
75,-1.0,-252.0,-54.0,0
76,2.0,-254.0,-55.0,0
77,1.0,-254.0,-54.0,0
78,5.0,-252.0,-56.0,0
79,2.0,-250.0,-58.0,0
80,7.0,-249.0,-55.0,0
81,7.0,-248.0,-57.0,0
82,13.0,-248.0,-52.0,0
83,13.0,-247.0,-56.0,0
84,12.0,-248.0,-57.0,0
85,14.0,-245.0,-56.0,0
86,17.0,-248.0,-58.0,0
87,17.0,-245.0,-59.0,0
88,15.0,-245.0,-63.0,0
89,18.0,-248.0,-67.0,0
90,20.0,-245.0,-64.0,0
91,22.0,-246.0,-62.0,0
92,23.0,-247.0,-65.0,0
93,25.0,-246.0,-64.0,0
94,25.0,-242.0,-59.0,0
95,27.0,-244.0,-63.0,0
96,26.0,-240.0,-61.0,0
97,28.0,-239.0,-63.0,0
98,32.0,-238.0,-66.0,0
99,29.0,-235.0,-65.0,0
100,29.0,-235.0,-65.0,0
101,31.0,-234.0,-62.0,0
102,32.0,-237.0,-62.0,0
103,33.0,-236.0,-59.0,0
104,34.0,-235.0,-57.0,0
105,32.0,-235.0,-57.0,0
106,33.0,-233.0,-55.0,0
107,30.0,-238.0,-48.0,0
108,26.0,-240.0,-45.0,0
109,31.0,-240.0,-45.0,0
110,27.0,-240.0,-44.0,0
111,28.0,-244.0,-40.0,0
112,25.0,-246.0,-39.0,0
113,24.0,-245.0,-40.0,0
114,22.0,-250.0,-39.0,0
115,18.0,-257.0,-37.0,0
116,23.0,-259.0,-40.0,0
117,19.0,-262.0,-41.0,0
118,20.0,-262.0,-47.0,0
119,23.0,-268.0,-54.0,0
120,23.0,-267.0,-61.0,0
121,24.0,-270.0,-70.0,0
122,22.0,-273.0,-67.0,0
123,19.0,-276.0,-73.0,0
124,18.0,-280.0,-74.0,0
125,14.0,-278.0,-68.0,0
126,11.0,-277.0,-63.0,0
127,7.0,-275.0,-65.0,0
128,7.0,-273.0,-62.0,0
129,6.0,-269.0,-61.0,0
130,5.0,-261.0,-63.0,0
131,6.0,-257.0,-60.0,0
132,6.0,-256.0,-58.0,0
133,6.0,-250.0,-60.0,0
134,6.0,-244.0,-56.0,0
135,8.0,-239.0,-55.0,0
136,9.0,-238.0,-55.0,0
137,13.0,-237.0,-53.0,0
138,13.0,-237.0,-52.0,0
139,15.0,-236.0,-51.0,0
140,16.0,-233.0,-48.0,0
141,20.0,-238.0,-48.0,0
142,17.0,-238.0,-45.0,0
143,18.0,-243.0,-50.0,0
144,18.0,-244.0,-41.0,0
145,21.0,-246.0,-42.0,0
146,17.0,-246.0,-41.0,0
147,15.0,-248.0,-44.0,0
148,15.0,-253.0,-50.0,0
149,12.0,-251.0,-55.0,0
150,6.0,-247.0,-59.0,0
151,5.0,-254.0,-60.0,0
152,3.0,-257.0,-66.0,0
153,-1.0,-260.0,-70.0,0
154,0.0,-261.0,-69.0,0
155,0.0,-265.0,-72.0,0
156,-4.0,-266.0,-77.0,0
157,-4.0,-269.0,-72.0,0
158,-11.0,-268.0,-73.0,0
159,-12.0,-269.0,-71.0,0
160,-15.0,-271.0,-71.0,0
161,-13.0,-272.0,-71.0,0
162,-12.0,-274.0,-70.0,0
163,-11.0,-271.0,-80.0,0
164,-8.0,-271.0,-87.0,0
165,-5.0,-268.0,-96.0,0
166,4.0,-262.0,-97.0,0
167,6.0,-259.0,-93.0,0
168,7.0,-256.0,-93.0,0
169,12.0,-252.0,-84.0,0
170,14.0,-250.0,-75.0,0
171,13.0,-244.0,-67.0,0
172,15.0,-239.0,-62.0,0
173,15.0,-236.0,-55.0,0
174,16.0,-237.0,-58.0,0
175,9.0,-229.0,-52.0,0
176,12.0,-233.0,-55.0,0
177,8.0,-231.0,-55.0,0
178,7.0,-233.0,-51.0,0
179,6.0,-234.0,-57.0,0
180,6.0,-234.0,-56.0,0
181,0.0,-236.0,-55.0,0
182,-1.0,-240.0,-55.0,0
183,-3.0,-245.0,-54.0,0
184,-5.0,-248.0,-53.0,0
185,-9.0,-252.0,-54.0,0
186,-10.0,-255.0,-51.0,0
187,-7.0,-257.0,-48.0,0
188,-5.0,-258.0,-55.0,0
189,-2.0,-259.0,-57.0,0
190,0.0,-259.0,-56.0,0
191,4.0,-260.0,-58.0,0
192,5.0,-257.0,-59.0,0
193,7.0,-256.0,-57.0,0
194,11.0,-258.0,-60.0,0
195,13.0,-253.0,-61.0,0
196,17.0,-254.0,-63.0,0
197,19.0,-252.0,-62.0,0
198,19.0,-253.0,-64.0,0
199,21.0,-253.0,-60.0,0
200,22.0,-251.0,-59.0,0
201,21.0,-250.0,-57.0,0
202,20.0,-246.0,-52.0,0
203,19.0,-244.0,-56.0,0
204,18.0,-244.0,-57.0,0
205,18.0,-243.0,-54.0,0
206,16.0,-242.0,-54.0,0
207,19.0,-241.0,-57.0,0
208,17.0,-239.0,-57.0,0
209,16.0,-239.0,-62.0,0
210,15.0,-239.0,-64.0,0
211,14.0,-238.0,-67.0,0
212,13.0,-241.0,-63.0,0
213,8.0,-236.0,-63.0,0
214,7.0,-240.0,-69.0,0
215,6.0,-243.0,-72.0,0
216,4.0,-239.0,-71.0,0
217,0.0,-241.0,-70.0,0
218,-3.0,-240.0,-71.0,0
219,-7.0,-244.0,-71.0,0
220,-9.0,-247.0,-72.0,0
221,-9.0,-252.0,-76.0,0
222,-11.0,-254.0,-83.0,0
223,-11.0,-255.0,-88.0,0
224,-12.0,-254.0,-88.0,0
225,-11.0,-252.0,-96.0,0
226,-17.0,-252.0,-92.0,0
227,-18.0,-252.0,-91.0,0
228,-12.0,-248.0,-93.0,0
229,-18.0,-247.0,-86.0,0
230,-12.0,-246.0,-81.0,0
231,-12.0,-242.0,-74.0,0
232,-18.0,-239.0,-68.0,0
233,-13.0,-236.0,-62.0,0
234,-14.0,-241.0,-55.0,0
235,-12.0,-242.0,-52.0,0
236,-12.0,-247.0,-45.0,0
237,-9.0,-248.0,-41.0,0
238,0.0,-252.0,-36.0,0
239,5.0,-256.0,-39.0,0
240,11.0,-259.0,-35.0,0
241,15.0,-261.0,-33.0,0
242,19.0,-264.0,-35.0,0
243,20.0,-267.0,-39.0,0
244,25.0,-271.0,-41.0,0
245,20.0,-273.0,-44.0,0
246,15.0,-273.0,-42.0,0
247,10.0,-273.0,-41.0,0
248,3.0,-275.0,-34.0,0
249,-3.0,-271.0,-40.0,0
250,-10.0,-270.0,-38.0,0
251,-11.0,-272.0,-42.0,0
252,-12.0,-271.0,-42.0,0
253,-18.0,-272.0,-43.0,0
254,-16.0,-275.0,-51.0,0
255,-16.0,-267.0,-62.0,0
256,-21.0,-270.0,-55.0,0
257,-22.0,-271.0,-57.0,0
258,-26.0,-266.0,-58.0,0
259,-27.0,-262.0,-57.0,0
260,-28.0,-263.0,-61.0,0
261,-26.0,-258.0,-55.0,0
262,-24.0,-255.0,-58.0,0
263,-21.0,-257.0,-55.0,0
264,-22.0,-255.0,-51.0,0
265,-18.0,-251.0,-49.0,0
266,-22.0,-244.0,-45.0,0
267,-21.0,-243.0,-44.0,0
268,-18.0,-238.0,-44.0,0
269,-15.0,-234.0,-40.0,0
270,-14.0,-234.0,-42.0,0
271,-11.0,-231.0,-45.0,0
272,-16.0,-229.0,-48.0,0
273,-13.0,-230.0,-45.0,0
274,-18.0,-232.0,-44.0,0
275,-20.0,-231.0,-38.0,0
276,-19.0,-233.0,-41.0,0
277,-23.0,-236.0,-40.0,0
278,-25.0,-239.0,-43.0,0
279,-24.0,-242.0,-37.0,0
280,-25.0,-246.0,-40.0,0
281,-25.0,-245.0,-41.0,0
282,-25.0,-252.0,-45.0,0
283,-26.0,-256.0,-47.0,0
284,-22.0,-260.0,-45.0,0
285,-22.0,-263.0,-49.0,0
286,-15.0,-263.0,-51.0,0
287,-20.0,-264.0,-47.0,0
288,-18.0,-262.0,-54.0,0
289,-14.0,-265.0,-56.0,0
290,-12.0,-268.0,-56.0,0
291,-14.0,-262.0,-55.0,0
292,-12.0,-265.0,-56.0,0
293,-12.0,-266.0,-55.0,0
294,-15.0,-263.0,-57.0,0
295,-18.0,-260.0,-54.0,0
296,-18.0,-260.0,-50.0,0
297,-18.0,-256.0,-55.0,0
298,-22.0,-257.0,-52.0,0
299,-22.0,-255.0,-53.0,0
300,-21.0,-253.0,-47.0,0
301,-19.0,-249.0,-47.0,0
302,-18.0,-250.0,-46.0,0
303,-21.0,-245.0,-50.0,0
304,-19.0,-244.0,-45.0,0
305,-18.0,-239.0,-50.0,0
306,-21.0,-236.0,-48.0,0
307,-22.0,-237.0,-45.0,0
308,-29.0,-231.0,-43.0,0
309,-28.0,-235.0,-43.0,0
310,-31.0,-230.0,-36.0,0
311,-33.0,-230.0,-37.0,0
312,-35.0,-232.0,-32.0,0
313,-35.0,-228.0,-32.0,0
314,-36.0,-230.0,-35.0,0
315,-41.0,-230.0,-32.0,0
316,-38.0,-231.0,-37.0,0
317,-40.0,-234.0,-34.0,0
318,-37.0,-235.0,-32.0,0
319,-35.0,-239.0,-35.0,0
320,-34.0,-241.0,-38.0,0
321,-33.0,-239.0,-38.0,0
322,-32.0,-242.0,-41.0,0
323,-31.0,-241.0,-37.0,0
324,-28.0,-241.0,-36.0,0
325,-25.0,-244.0,-39.0,0
326,-25.0,-241.0,-39.0,0
327,-25.0,-245.0,-41.0,0
328,-24.0,-246.0,-39.0,0
329,-27.0,-246.0,-42.0,0
330,-23.0,-248.0,-39.0,0
331,-27.0,-247.0,-38.0,0
332,-31.0,-252.0,-38.0,0
333,-25.0,-253.0,-37.0,0
334,-26.0,-254.0,-34.0,0
335,-25.0,-256.0,-40.0,0
336,-28.0,-255.0,-37.0,0
337,-25.0,-256.0,-38.0,0
338,-21.0,-256.0,-37.0,0
339,-19.0,-256.0,-36.0,0
340,-18.0,-252.0,-33.0,0
341,-15.0,-250.0,-36.0,0
342,-12.0,-247.0,-35.0,0
343,-14.0,-242.0,-36.0,0
344,-10.0,-239.0,-29.0,0
345,-11.0,-237.0,-27.0,0
346,-12.0,-236.0,-30.0,0
347,-11.0,-236.0,-29.0,0
348,-11.0,-233.0,-31.0,0
349,-11.0,-231.0,-32.0,0
350,-11.0,-232.0,-34.0,0
351,-14.0,-235.0,-32.0,0
352,-12.0,-233.0,-33.0,0
353,-12.0,-234.0,-35.0,0
354,-12.0,-236.0,-40.0,0
355,-13.0,-237.0,-32.0,0
356,-12.0,-240.0,-31.0,0
357,-16.0,-238.0,-31.0,0
358,-21.0,-238.0,-34.0,0
359,-21.0,-239.0,-37.0,0
360,-25.0,-240.0,-36.0,0
361,-25.0,-242.0,-37.0,0
362,-24.0,-245.0,-33.0,0
363,-27.0,-243.0,-38.0,0
364,-28.0,-243.0,-39.0,0
365,-27.0,-243.0,-38.0,0
366,-27.0,-243.0,-45.0,0
367,-29.0,-240.0,-43.0,0
368,-30.0,-241.0,-46.0,0
369,-28.0,-243.0,-44.0,0
370,-30.0,-241.0,-49.0,0
371,-33.0,-239.0,-48.0,0
372,-29.0,-242.0,-45.0,0
373,-33.0,-242.0,-55.0,0
374,-37.0,-236.0,-57.0,0
375,-39.0,-235.0,-67.0,0
376,-44.0,-235.0,-73.0,0
377,-48.0,-237.0,-77.0,0
378,-52.0,-239.0,-85.0,0
379,-53.0,-248.0,-84.0,0
380,-53.0,-257.0,-82.0,0
381,-53.0,-263.0,-76.0,0
382,-49.0,-271.0,-67.0,0
383,-47.0,-273.0,-61.0,0
384,-41.0,-279.0,-57.0,0
385,-37.0,-282.0,-58.0,0
386,-31.0,-290.0,-58.0,0
387,-29.0,-299.0,-56.0,0
388,-20.0,-302.0,-53.0,0
389,-13.0,-307.0,-56.0,0
390,-9.0,-314.0,-57.0,0
391,-9.0,-313.0,-56.0,0
392,-9.0,-313.0,-59.0,0
393,-11.0,-311.0,-61.0,0
394,-20.0,-311.0,-62.0,0
395,-33.0,-309.0,-59.0,0
396,-47.0,-316.0,-65.0,0
397,-60.0,-321.0,-69.0,0
398,-72.0,-326.0,-73.0,0
399,-78.0,-341.0,-79.0,0
400,-87.0,-354.0,-86.0,0
401,-94.0,-361.0,-96.0,0
402,-91.0,-370.0,-103.0,0
403,-91.0,-380.0,-111.0,0
404,-85.0,-388.0,-120.0,0
405,-81.0,-391.0,-127.0,0
406,-73.0,-392.0,-127.0,0
407,-62.0,-391.0,-126.0,0
408,-55.0,-387.0,-128.0,0
409,-47.0,-384.0,-128.0,0
410,-38.0,-378.0,-130.0,0
411,-31.0,-368.0,-130.0,0
412,-25.0,-360.0,-132.0,0
413,-15.0,-346.0,-136.0,0
414,-12.0,-331.0,-137.0,0
415,-9.0,-319.0,-140.0,0
416,-1.0,-312.0,-134.0,0
417,3.0,-298.0,-132.0,0
418,5.0,-292.0,-132.0,0
419,6.0,-284.0,-128.0,0
420,11.0,-276.0,-123.0,0
421,9.0,-269.0,-120.0,0
422,11.0,-262.0,-120.0,0
423,15.0,-257.0,-116.0,0
424,14.0,-245.0,-115.0,0
425,18.0,-236.0,-118.0,0
426,16.0,-234.0,-115.0,0
427,18.0,-227.0,-119.0,0
428,19.0,-219.0,-121.0,0
429,22.0,-213.0,-120.0,0
430,22.0,-208.0,-117.0,0
431,25.0,-203.0,-118.0,0
432,24.0,-196.0,-119.0,0
433,25.0,-194.0,-122.0,0
434,23.0,-191.0,-121.0,0
435,26.0,-188.0,-122.0,0
436,24.0,-183.0,-123.0,0
437,26.0,-186.0,-123.0,0
438,29.0,-181.0,-121.0,0
439,29.0,-182.0,-119.0,0
440,33.0,-183.0,-121.0,0
441,31.0,-188.0,-119.0,0
442,28.0,-186.0,-115.0,0
443,28.0,-194.0,-116.0,0
444,26.0,-195.0,-114.0,0
445,23.0,-200.0,-112.0,0
446,21.0,-208.0,-116.0,0
447,19.0,-215.0,-122.0,0
448,17.0,-222.0,-121.0,0
449,12.0,-227.0,-123.0,0
450,9.0,-236.0,-132.0,0
451,8.0,-238.0,-131.0,0
452,8.0,-242.0,-131.0,0
453,6.0,-246.0,-135.0,0
454,2.0,-245.0,-128.0,0
455,4.0,-248.0,-132.0,0
456,4.0,-243.0,-130.0,0
457,0.0,-243.0,-128.0,0
458,1.0,-243.0,-127.0,0
459,-5.0,-238.0,-120.0,0
460,6.0,-236.0,-136.0,0
461,-10.0,-233.0,-117.0,0
462,-6.0,-232.0,-108.0,0
463,0.0,-230.0,-115.0,0
464,-7.0,-223.0,-129.0,0
465,-4.0,-221.0,-98.0,0
466,-4.0,-219.0,-92.0,0
467,8.0,-215.0,-80.0,0
468,6.0,-211.0,-110.0,0
469,15.0,-205.0,-97.0,0
470,2.0,-202.0,-102.0,0
471,5.0,-197.0,-90.0,0
472,7.0,-195.0,-88.0,0
473,4.0,-193.0,-89.0,0
474,8.0,-188.0,-84.0,0
475,8.0,-188.0,-83.0,0
476,7.0,-181.0,-78.0,0
477,11.0,-177.0,-74.0,0
478,11.0,-177.0,-78.0,0
479,10.0,-177.0,-76.0,0
480,7.0,-172.0,-76.0,0
481,2.0,-171.0,-78.0,0
482,1.0,-170.0,-74.0,0
483,5.0,-177.0,-73.0,0
484,3.0,-180.0,-77.0,0
485,2.0,-185.0,-78.0,0
486,5.0,-185.0,-72.0,0
487,9.0,-190.0,-73.0,0
488,11.0,-188.0,-80.0,0
489,12.0,-189.0,-74.0,0
490,15.0,-188.0,-81.0,0
491,13.0,-188.0,-79.0,0
492,15.0,-191.0,-85.0,0
493,14.0,-193.0,-85.0,0
494,18.0,-194.0,-88.0,0
495,19.0,-194.0,-86.0,0
496,24.0,-198.0,-84.0,0
497,22.0,-203.0,-77.0,0
498,24.0,-204.0,-76.0,0
499,21.0,-207.0,-76.0,0
500,27.0,-213.0,-71.0,0
501,28.0,-213.0,-73.0,0
502,27.0,-210.0,-73.0,0
503,33.0,-216.0,-80.0,0
504,35.0,-215.0,-78.0,0
505,35.0,-217.0,-79.0,0
506,36.0,-216.0,-79.0,0
507,39.0,-221.0,-86.0,0
508,37.0,-226.0,-81.0,0
509,43.0,-225.0,-82.0,0
510,44.0,-229.0,-82.0,0
511,42.0,-232.0,-84.0,0
512,43.0,-231.0,-86.0,0
513,43.0,-228.0,-84.0,0
514,40.0,-227.0,-85.0,0
515,38.0,-219.0,-87.0,0
516,38.0,-214.0,-86.0,0
517,35.0,-212.0,-82.0,0
518,33.0,-207.0,-81.0,0
519,29.0,-206.0,-80.0,0
520,27.0,-201.0,-81.0,0
521,23.0,-202.0,-79.0,0
522,18.0,-205.0,-70.0,0
523,20.0,-207.0,-71.0,0
524,14.0,-207.0,-68.0,0
525,11.0,-211.0,-65.0,0
526,13.0,-213.0,-62.0,0
527,13.0,-215.0,-65.0,0
528,16.0,-221.0,-68.0,0
529,16.0,-223.0,-70.0,0
530,20.0,-225.0,-75.0,0
531,24.0,-231.0,-76.0,0
532,24.0,-239.0,-76.0,0
533,26.0,-245.0,-79.0,0
534,30.0,-256.0,-74.0,0
535,30.0,-259.0,-72.0,0
536,29.0,-261.0,-70.0,0
537,34.0,-267.0,-70.0,0
538,36.0,-272.0,-72.0,0
539,40.0,-274.0,-67.0,0
540,43.0,-279.0,-66.0,0
541,49.0,-276.0,-69.0,0
542,49.0,-276.0,-72.0,0
543,47.0,-276.0,-75.0,0
544,50.0,-274.0,-76.0,0
545,48.0,-269.0,-79.0,0
546,47.0,-269.0,-83.0,0
547,47.0,-265.0,-82.0,0
548,45.0,-267.0,-85.0,0
549,39.0,-263.0,-85.0,0
550,35.0,-265.0,-84.0,0
551,28.0,-260.0,-86.0,0
552,28.0,-257.0,-97.0,0
553,30.0,-253.0,-105.0,0
554,32.0,-247.0,-121.0,0
555,32.0,-241.0,-131.0,0
556,39.0,-239.0,-136.0,0
557,43.0,-245.0,-138.0,0
558,50.0,-255.0,-134.0,0
559,55.0,-260.0,-135.0,0
560,61.0,-274.0,-136.0,0
561,70.0,-293.0,-142.0,0
562,70.0,-308.0,-149.0,0
563,68.0,-322.0,-151.0,0
564,70.0,-340.0,-152.0,0
565,61.0,-358.0,-150.0,0
566,53.0,-373.0,-147.0,0
567,40.0,-385.0,-152.0,0
568,29.0,-393.0,-169.0,0
569,18.0,-399.0,-184.0,0
570,9.0,-399.0,-191.0,0
571,2.0,-396.0,-197.0,0
572,0.0,-387.0,-190.0,0
573,6.0,-376.0,-180.0,0
574,12.0,-355.0,-175.0,0
575,14.0,-331.0,-166.0,0
576,18.0,-316.0,-155.0,0
577,29.0,-291.0,-149.0,0
578,33.0,-272.0,-141.0,0
579,34.0,-260.0,-134.0,0
580,37.0,-246.0,-131.0,0
581,39.0,-230.0,-132.0,0
582,39.0,-215.0,-132.0,0
583,38.0,-204.0,-134.0,0
584,37.0,-197.0,-131.0,0
585,29.0,-191.0,-129.0,0
586,20.0,-186.0,-120.0,0
587,19.0,-189.0,-117.0,0
588,15.0,-191.0,-113.0,0
589,15.0,-193.0,-116.0,0
590,10.0,-192.0,-117.0,0
591,6.0,-194.0,-123.0,0
592,4.0,-196.0,-131.0,0
593,4.0,-200.0,-125.0,0
594,7.0,-207.0,-127.0,0
595,4.0,-214.0,-126.0,0
596,9.0,-223.0,-123.0,0
597,8.0,-227.0,-122.0,0
598,10.0,-235.0,-121.0,0
599,15.0,-238.0,-116.0,0
600,17.0,-240.0,-112.0,0
601,16.0,-240.0,-112.0,0
602,21.0,-240.0,-113.0,0
603,18.0,-238.0,-118.0,0
604,22.0,-233.0,-119.0,0
605,20.0,-229.0,-121.0,0
606,21.0,-228.0,-125.0,0
607,21.0,-226.0,-124.0,0
608,21.0,-223.0,-123.0,0
609,25.0,-224.0,-120.0,0
610,25.0,-223.0,-118.0,0
611,27.0,-223.0,-114.0,0
612,25.0,-218.0,-115.0,0
613,22.0,-217.0,-115.0,0
614,19.0,-213.0,-118.0,0
615,16.0,-215.0,-119.0,0
616,16.0,-215.0,-118.0,0
617,13.0,-217.0,-117.0,0
618,12.0,-213.0,-120.0,0
619,13.0,-212.0,-121.0,0
620,7.0,-211.0,-123.0,0
621,5.0,-209.0,-126.0,0
622,4.0,-206.0,-125.0,0
623,0.0,-204.0,-130.0,0
624,-5.0,-204.0,-137.0,0
625,-6.0,-206.0,-134.0,0
626,-12.0,-205.0,-129.0,0
627,-12.0,-205.0,-126.0,0
628,-14.0,-202.0,-126.0,0
629,-13.0,-200.0,-123.0,0
630,-18.0,-198.0,-120.0,0
631,-14.0,-197.0,-120.0,0
632,-19.0,-194.0,-117.0,0
633,-18.0,-192.0,-113.0,0
634,-18.0,-192.0,-114.0,0
635,-12.0,-192.0,-112.0,0
636,-12.0,-193.0,-114.0,0
637,-11.0,-193.0,-111.0,0
638,-7.0,-193.0,-107.0,0
639,0.0,-196.0,-107.0,0
640,8.0,-196.0,-103.0,0
641,11.0,-197.0,-102.0,0
642,13.0,-196.0,-99.0,0
643,14.0,-192.0,-102.0,0
644,20.0,-192.0,-98.0,0
645,18.0,-191.0,-93.0,0
646,21.0,-187.0,-93.0,0
647,20.0,-186.0,-90.0,0
648,20.0,-184.0,-88.0,0
649,19.0,-177.0,-94.0,0
650,14.0,-178.0,-90.0,0
651,12.0,-177.0,-89.0,0
652,6.0,-172.0,-89.0,0
653,7.0,-172.0,-87.0,0
654,5.0,-169.0,-91.0,0
655,2.0,-172.0,-92.0,0
656,-3.0,-168.0,-93.0,0
657,-4.0,-170.0,-95.0,0
658,-8.0,-173.0,-91.0,0
659,-7.0,-178.0,-92.0,0
660,-5.0,-183.0,-90.0,0
661,-9.0,-189.0,-87.0,0
662,-11.0,-192.0,-83.0,0
663,-11.0,-197.0,-84.0,0
664,-12.0,-201.0,-83.0,0
665,-12.0,-207.0,-82.0,0
666,-11.0,-209.0,-83.0,0
667,-11.0,-213.0,-84.0,0
668,-11.0,-218.0,-87.0,0
669,-10.0,-221.0,-88.0,0
670,-9.0,-221.0,-88.0,0
671,-7.0,-221.0,-88.0,0
672,-7.0,-226.0,-87.0,0
673,-9.0,-223.0,-88.0,0
674,-9.0,-228.0,-87.0,0
675,-10.0,-228.0,-84.0,0
676,-11.0,-229.0,-87.0,0
677,-12.0,-225.0,-85.0,0
678,-13.0,-230.0,-86.0,0
679,-12.0,-231.0,-87.0,0
680,-15.0,-232.0,-88.0,0
681,-14.0,-234.0,-86.0,0
682,-15.0,-236.0,-89.0,0
683,-11.0,-238.0,-87.0,0
684,-12.0,-239.0,-87.0,0
685,-12.0,-242.0,-86.0,0
686,-12.0,-245.0,-84.0,0
687,-11.0,-249.0,-82.0,0
688,-8.0,-256.0,-83.0,0
689,-10.0,-262.0,-83.0,0
690,-10.0,-266.0,-75.0,0
691,-9.0,-271.0,-75.0,0
692,-12.0,-274.0,-72.0,0
693,-13.0,-278.0,-69.0,0
694,-19.0,-277.0,-71.0,0
695,-21.0,-271.0,-68.0,0
696,-21.0,-277.0,-78.0,0
697,-23.0,-269.0,-82.0,0
698,-21.0,-260.0,-88.0,0
699,-23.0,-255.0,-94.0,0
700,-26.0,-250.0,-93.0,0
701,-29.0,-246.0,-97.0,0
702,-32.0,-243.0,-103.0,0
703,-31.0,-239.0,-109.0,0
704,-30.0,-231.0,-114.0,0
705,-35.0,-223.0,-121.0,0
706,-40.0,-220.0,-126.0,0
707,-45.0,-217.0,-135.0,0
708,-54.0,-218.0,-146.0,0
709,-64.0,-219.0,-148.0,0
710,-67.0,-230.0,-156.0,0
711,-64.0,-248.0,-155.0,0
712,-61.0,-263.0,-151.0,0
713,-47.0,-289.0,-145.0,0
714,-36.0,-310.0,-140.0,0
715,-23.0,-321.0,-141.0,0
716,-12.0,-334.0,-140.0,0
717,-1.0,-342.0,-144.0,0
718,10.0,-351.0,-151.0,0
719,14.0,-350.0,-154.0,0
720,19.0,-352.0,-166.0,0
721,15.0,-344.0,-178.0,0
722,13.0,-334.0,-185.0,0
723,6.0,-332.0,-192.0,0
724,0.0,-328.0,-198.0,0
725,-5.0,-323.0,-200.0,0
726,-10.0,-316.0,-200.0,0
727,-12.0,-310.0,-198.0,0
728,-17.0,-303.0,-193.0,0
729,-23.0,-290.0,-186.0,0
730,-25.0,-285.0,-182.0,0
731,-26.0,-280.0,-174.0,0
732,-27.0,-273.0,-166.0,0
733,-25.0,-265.0,-158.0,0
734,-22.0,-259.0,-154.0,0
735,-21.0,-254.0,-157.0,0
736,-18.0,-248.0,-157.0,0
737,-12.0,-241.0,-159.0,0
738,-9.0,-236.0,-166.0,0
739,-12.0,-228.0,-166.0,0
740,-6.0,-226.0,-165.0,0
741,-1.0,-218.0,-165.0,0
742,1.0,-215.0,-167.0,0
743,8.0,-212.0,-166.0,0
744,12.0,-209.0,-163.0,0
745,18.0,-206.0,-154.0,0
746,20.0,-205.0,-157.0,0
747,23.0,-205.0,-153.0,0
748,27.0,-204.0,-146.0,0
749,28.0,-206.0,-148.0,0
750,31.0,-205.0,-151.0,0
751,32.0,-205.0,-145.0,0
752,32.0,-206.0,-142.0,0
753,30.0,-204.0,-145.0,0
754,23.0,-201.0,-146.0,0
755,22.0,-199.0,-144.0,0
756,22.0,-199.0,-140.0,0
757,18.0,-204.0,-139.0,0
758,18.0,-209.0,-139.0,0
759,19.0,-211.0,-140.0,0
760,14.0,-215.0,-145.0,0
761,11.0,-218.0,-146.0,0
762,9.0,-223.0,-147.0,0
763,11.0,-226.0,-143.0,0
764,11.0,-229.0,-137.0,0
765,6.0,-232.0,-133.0,0
766,5.0,-234.0,-133.0,0
767,-1.0,-232.0,-123.0,0
768,-4.0,-234.0,-124.0,0
769,-5.0,-231.0,-123.0,0
770,-6.0,-230.0,-120.0,0
771,-9.0,-223.0,-120.0,0
772,-10.0,-224.0,-117.0,0
773,-11.0,-215.0,-118.0,0
774,-10.0,-211.0,-119.0,0
775,-5.0,-206.0,-122.0,0
776,-3.0,-197.0,-123.0,0
777,3.0,-196.0,-123.0,0
778,4.0,-193.0,-122.0,0
779,9.0,-189.0,-120.0,0
780,12.0,-188.0,-119.0,0
781,11.0,-183.0,-114.0,0
782,19.0,-183.0,-112.0,0
783,21.0,-175.0,-112.0,0
784,26.0,-179.0,-109.0,0
785,27.0,-175.0,-104.0,0
786,31.0,-183.0,-103.0,0
787,31.0,-179.0,-100.0,0
788,29.0,-182.0,-98.0,0
789,31.0,-184.0,-101.0,0
790,29.0,-182.0,-94.0,0
791,26.0,-185.0,-95.0,0
792,22.0,-185.0,-100.0,0
793,25.0,-189.0,-93.0,0
794,19.0,-184.0,-91.0,0
795,17.0,-186.0,-93.0,0
796,12.0,-183.0,-97.0,0
797,7.0,-183.0,-90.0,0
798,5.0,-182.0,-92.0,0
799,0.0,-182.0,-90.0,0
800,-1.0,-183.0,-90.0,0
801,-6.0,-185.0,-91.0,0
802,-5.0,-181.0,-89.0,0
803,-7.0,-179.0,-88.0,0
804,-3.0,-178.0,-92.0,0
805,-8.0,-178.0,-93.0,0
806,-7.0,-177.0,-91.0,0
807,-8.0,-178.0,-83.0,0
808,-6.0,-176.0,-79.0,0
809,-1.0,-179.0,-80.0,0
810,0.0,-180.0,-79.0,0
811,8.0,-180.0,-77.0,0
812,7.0,-180.0,-84.0,0
813,13.0,-184.0,-79.0,0
814,13.0,-183.0,-84.0,0
815,18.0,-188.0,-85.0,0
816,24.0,-193.0,-84.0,0
817,25.0,-196.0,-87.0,0
818,28.0,-200.0,-85.0,0
819,33.0,-208.0,-83.0,0
820,34.0,-210.0,-90.0,0
821,38.0,-218.0,-87.0,0
822,43.0,-226.0,-89.0,0
823,45.0,-232.0,-90.0,0
824,49.0,-241.0,-88.0,0
825,49.0,-244.0,-85.0,0
826,51.0,-246.0,-87.0,0
827,48.0,-247.0,-88.0,0
828,50.0,-246.0,-88.0,0
829,45.0,-241.0,-87.0,0
830,43.0,-239.0,-89.0,0
831,39.0,-233.0,-81.0,0
832,36.0,-228.0,-82.0,0
833,34.0,-226.0,-82.0,0
834,32.0,-220.0,-81.0,0
835,32.0,-218.0,-85.0,0
836,31.0,-215.0,-87.0,0
837,32.0,-214.0,-90.0,0
838,29.0,-215.0,-88.0,0
839,27.0,-219.0,-86.0,0
840,25.0,-218.0,-88.0,0
841,29.0,-223.0,-82.0,0
842,23.0,-225.0,-77.0,0
843,24.0,-226.0,-76.0,0
844,16.0,-226.0,-69.0,0
845,16.0,-227.0,-69.0,0
846,15.0,-234.0,-67.0,0
847,14.0,-235.0,-66.0,0
848,12.0,-238.0,-63.0,0
849,14.0,-244.0,-63.0,0
850,16.0,-249.0,-65.0,0
851,21.0,-258.0,-68.0,0
852,24.0,-254.0,-62.0,0
853,27.0,-258.0,-60.0,0
854,34.0,-262.0,-70.0,0
855,36.0,-269.0,-78.0,0
856,33.0,-274.0,-84.0,0
857,52.0,-276.0,-93.0,0
858,42.0,-264.0,-110.0,0
859,45.0,-261.0,-139.0,0
860,38.0,-264.0,-118.0,0
861,36.0,-276.0,-142.0,0
862,35.0,-258.0,-147.0,0
863,53.0,-259.0,-154.0,0
864,51.0,-252.0,-143.0,0
865,57.0,-254.0,-148.0,0
866,65.0,-260.0,-153.0,0
867,68.0,-273.0,-134.0,0
868,65.0,-277.0,-127.0,0
869,75.0,-289.0,-108.0,0
870,70.0,-313.0,-97.0,0
871,66.0,-325.0,-103.0,0
872,70.0,-331.0,-105.0,0
873,60.0,-347.0,-129.0,0
874,57.0,-344.0,-146.0,0
875,44.0,-360.0,-170.0,0
876,48.0,-357.0,-179.0,0
877,41.0,-362.0,-189.0,0
878,39.0,-370.0,-202.0,0
879,35.0,-373.0,-207.0,0
880,48.0,-383.0,-196.0,0
881,28.0,-370.0,-197.0,0
882,29.0,-373.0,-181.0,0
883,36.0,-374.0,-169.0,0
884,36.0,-357.0,-172.0,0
885,42.0,-355.0,-153.0,0
886,33.0,-334.0,-167.0,0
887,38.0,-320.0,-157.0,0
888,33.0,-305.0,-144.0,0
889,45.0,-297.0,-155.0,0
890,39.0,-271.0,-154.0,0
891,38.0,-265.0,-153.0,0
892,32.0,-273.0,-142.0,0
893,26.0,-250.0,-127.0,0
894,14.0,-249.0,-131.0,0
895,18.0,-229.0,-123.0,0
896,11.0,-230.0,-105.0,0
897,19.0,-225.0,-115.0,0
898,6.0,-212.0,-124.0,0
899,1.0,-207.0,-124.0,0
900,7.0,-198.0,-121.0,0
901,-5.0,-199.0,-130.0,0
902,-6.0,-202.0,-118.0,0
903,4.0,-193.0,-129.0,0
904,-5.0,-201.0,-122.0,0
905,9.0,-208.0,-112.0,0
906,7.0,-202.0,-121.0,0
907,7.0,-208.0,-122.0,0
908,7.0,-212.0,-120.0,0
909,11.0,-216.0,-114.0,0
910,14.0,-216.0,-114.0,0
911,12.0,-217.0,-108.0,0
912,21.0,-217.0,-105.0,0
913,24.0,-221.0,-111.0,0
914,13.0,-220.0,-110.0,0
915,11.0,-219.0,-113.0,0
916,9.0,-220.0,-117.0,0
917,17.0,-231.0,-123.0,0
918,18.0,-228.0,-121.0,0
919,22.0,-226.0,-130.0,0
920,14.0,-223.0,-124.0,0
921,11.0,-225.0,-116.0,0
922,-1.0,-227.0,-120.0,0
923,5.0,-221.0,-121.0,0
924,1.0,-217.0,-122.0,0
925,-2.0,-218.0,-103.0,0
926,-8.0,-213.0,-116.0,0
927,-6.0,-206.0,-116.0,0
928,-11.0,-208.0,-104.0,0
929,-11.0,-199.0,-113.0,0
930,-13.0,-191.0,-105.0,0
931,-17.0,-193.0,-106.0,0
932,-27.0,-191.0,-102.0,0
933,-14.0,-187.0,-100.0,0
934,-27.0,-188.0,-98.0,0
935,-34.0,-178.0,-97.0,0
936,-30.0,-178.0,-115.0,0
937,-28.0,-183.0,-110.0,0
938,-30.0,-178.0,-104.0,0
939,-28.0,-180.0,-108.0,0
940,-30.0,-171.0,-112.0,0
941,-29.0,-173.0,-108.0,0
942,-30.0,-170.0,-107.0,0
943,-27.0,-176.0,-113.0,0
944,-17.0,-164.0,-126.0,0
945,-20.0,-174.0,-122.0,0
946,-14.0,-174.0,-104.0,0
947,-8.0,-176.0,-109.0,0
948,-5.0,-180.0,-109.0,0
949,-9.0,-186.0,-109.0,0
950,3.0,-184.0,-98.0,0
951,-6.0,-192.0,-101.0,0
952,9.0,-192.0,-80.0,0
953,10.0,-185.0,-107.0,0
954,7.0,-196.0,-92.0,0
955,6.0,-193.0,-89.0,0
956,5.0,-193.0,-92.0,0
957,12.0,-201.0,-93.0,0
958,7.0,-192.0,-91.0,0
959,6.0,-198.0,-90.0,0
960,15.0,-195.0,-99.0,0
961,9.0,-202.0,-97.0,0
962,7.0,-195.0,-84.0,0
963,0.0,-188.0,-102.0,0
964,5.0,-197.0,-88.0,0
965,-8.0,-185.0,-85.0,0
966,-6.0,-188.0,-86.0,0
967,-3.0,-188.0,-85.0,0
968,5.0,-192.0,-88.0,0
969,0.0,-190.0,-106.0,0
970,-9.0,-194.0,-103.0,0
971,-11.0,-201.0,-89.0,0
972,-15.0,-199.0,-89.0,0
973,-13.0,-203.0,-90.0,0
974,-18.0,-205.0,-88.0,0
975,-51.0,-205.0,-90.0,0
976,-33.0,-202.0,-98.0,0
977,-19.0,-216.0,-93.0,0
978,-42.0,-210.0,-102.0,0
979,-25.0,-210.0,-90.0,0
980,-26.0,-213.0,-96.0,0
981,-30.0,-211.0,-110.0,0
982,-36.0,-222.0,-94.0,0
983,-33.0,-225.0,-86.0,0
984,-23.0,-228.0,-104.0,0
985,-18.0,-242.0,-86.0,0
986,-26.0,-234.0,-85.0,0
987,-17.0,-238.0,-84.0,0
988,-22.0,-243.0,-69.0,0
989,-22.0,-245.0,-70.0,0
990,-29.0,-247.0,-74.0,0
991,-25.0,-244.0,-69.0,0
992,-23.0,-240.0,-78.0,0
993,-23.0,-256.0,-65.0,0
994,-18.0,-249.0,-59.0,0
995,-17.0,-254.0,-74.0,0
996,-17.0,-224.0,-83.0,0
997,-18.0,-246.0,-80.0,0
998,0.0,-243.0,-80.0,0
999,-13.0,-253.0,-75.0,0
1000,-15.0,-251.0,-74.0,0
1001,-14.0,-253.0,-62.0,0
1002,-7.0,-256.0,-70.0,0
1003,-9.0,-257.0,-60.0,0
1004,-13.0,-259.0,-65.0,0
1005,-15.0,-257.0,-66.0,0
1006,-12.0,-256.0,-65.0,0
1007,-17.0,-254.0,-70.0,0
1008,-17.0,-250.0,-70.0,0
1009,-12.0,-255.0,-76.0,0
1010,-2.0,-238.0,-69.0,0
1011,-11.0,-248.0,-78.0,0
1012,-8.0,-232.0,-91.0,0
1013,-8.0,-241.0,-96.0,0
1014,-10.0,-253.0,-94.0,0
1015,-16.0,-243.0,-108.0,0
1016,-24.0,-241.0,-102.0,0
1017,-32.0,-244.0,-107.0,0
1018,-52.0,-239.0,-109.0,0
1019,-65.0,-237.0,-120.0,0
1020,-70.0,-250.0,-125.0,0
1021,-69.0,-251.0,-132.0,0
1022,-79.0,-269.0,-140.0,0
1023,-80.0,-293.0,-123.0,0
1024,-74.0,-306.0,-139.0,0
1025,-67.0,-326.0,-145.0,0
1026,-57.0,-348.0,-132.0,0
1027,-49.0,-356.0,-146.0,0
1028,-35.0,-365.0,-156.0,0
1029,-26.0,-377.0,-170.0,0
1030,-16.0,-376.0,-189.0,0
1031,-20.0,-386.0,-184.0,0
1032,-30.0,-380.0,-192.0,0
1033,-31.0,-387.0,-196.0,0
1034,-27.0,-386.0,-192.0,0
1035,-31.0,-377.0,-188.0,0
1036,-28.0,-364.0,-185.0,0
1037,-28.0,-354.0,-185.0,0
1038,-29.0,-340.0,-182.0,0
1039,-21.0,-326.0,-182.0,0
1040,-15.0,-310.0,-174.0,0
1041,-12.0,-295.0,-172.0,0
1042,-14.0,-279.0,-164.0,0
1043,-26.0,-265.0,-176.0,0
1044,-9.0,-254.0,-158.0,0
1045,-11.0,-246.0,-156.0,0
1046,-6.0,-230.0,-154.0,0
1047,-5.0,-220.0,-151.0,0
1048,-2.0,-211.0,-152.0,0
1049,1.0,-202.0,-143.0,0
1050,-1.0,-196.0,-145.0,0
1051,1.0,-192.0,-142.0,0
1052,3.0,-189.0,-134.0,0
1053,3.0,-189.0,-131.0,0
1054,4.0,-184.0,-129.0,0
1055,1.0,-183.0,-123.0,0
1056,4.0,-186.0,-125.0,0
1057,5.0,-183.0,-123.0,0
1058,5.0,-184.0,-121.0,0
1059,4.0,-184.0,-123.0,0
1060,3.0,-187.0,-122.0,0
1061,4.0,-190.0,-119.0,0
1062,4.0,-189.0,-114.0,0
1063,-1.0,-198.0,-114.0,0
1064,-4.0,-204.0,-112.0,0
1065,-9.0,-208.0,-107.0,0
1066,-8.0,-215.0,-111.0,0
1067,-10.0,-207.0,-128.0,0
1068,-12.0,-220.0,-114.0,0
1069,-9.0,-226.0,-119.0,0
1070,-8.0,-225.0,-119.0,0
1071,-7.0,-228.0,-120.0,0
1072,-7.0,-229.0,-118.0,0
1073,-1.0,-234.0,-117.0,0
1074,-2.0,-235.0,-116.0,0
1075,0.0,-235.0,-114.0,0
1076,2.0,-230.0,-110.0,0
1077,2.0,-231.0,-104.0,0
1078,3.0,-227.0,-106.0,0
1079,1.0,-224.0,-96.0,0
1080,4.0,-218.0,-98.0,0
1081,2.0,-217.0,-101.0,0
1082,5.0,-204.0,-103.0,0
1083,9.0,-202.0,-107.0,0
1084,10.0,-197.0,-108.0,0
1085,7.0,-196.0,-109.0,0
1086,6.0,-188.0,-120.0,0
1087,10.0,-196.0,-106.0,0
1088,10.0,-195.0,-107.0,0
1089,9.0,-194.0,-108.0,0
1090,12.0,-195.0,-108.0,0
1091,14.0,-194.0,-107.0,0
1092,15.0,-196.0,-100.0,0
1093,17.0,-197.0,-103.0,0
1094,17.0,-199.0,-107.0,0
1095,18.0,-199.0,-100.0,0
1096,14.0,-196.0,-101.0,0
1097,10.0,-197.0,-106.0,0
1098,7.0,-195.0,-105.0,0
1099,7.0,-196.0,-103.0,0
1100,11.0,-192.0,-91.0,0
1101,-2.0,-190.0,-106.0,0
1102,1.0,-191.0,-111.0,0
1103,-3.0,-193.0,-111.0,0
1104,-11.0,-192.0,-105.0,0
1105,-11.0,-193.0,-99.0,0
1106,-11.0,-196.0,-99.0,0
1107,-11.0,-195.0,-93.0,0
1108,-12.0,-196.0,-93.0,0
1109,-10.0,-194.0,-88.0,0
1110,4.0,-191.0,-76.0,0
1111,-7.0,-190.0,-85.0,0
1112,-5.0,-185.0,-95.0,0
1113,0.0,-182.0,-88.0,0
1114,2.0,-178.0,-99.0,0
1115,7.0,-175.0,-100.0,0
1116,7.0,-179.0,-101.0,0
1117,11.0,-178.0,-99.0,0
1118,11.0,-185.0,-97.0,0
1119,21.0,-190.0,-101.0,0
1120,20.0,-195.0,-98.0,0
1121,18.0,-195.0,-94.0,0
1122,22.0,-200.0,-90.0,0
1123,24.0,-199.0,-88.0,0
1124,8.0,-201.0,-89.0,0
1125,31.0,-205.0,-84.0,0
1126,38.0,-203.0,-91.0,0
1127,39.0,-206.0,-89.0,0
1128,41.0,-201.0,-90.0,0
1129,38.0,-202.0,-94.0,0
1130,41.0,-199.0,-94.0,0
1131,41.0,-204.0,-89.0,0
1132,39.0,-203.0,-93.0,0
1133,43.0,-205.0,-97.0,0
1134,42.0,-209.0,-93.0,0
1135,43.0,-211.0,-100.0,0
1136,43.0,-213.0,-96.0,0
1137,44.0,-212.0,-95.0,0
1138,41.0,-218.0,-96.0,0
1139,41.0,-218.0,-97.0,0
1140,38.0,-219.0,-93.0,0
1141,39.0,-223.0,-92.0,0
1142,36.0,-225.0,-87.0,0
1143,40.0,-227.0,-91.0,0
1144,34.0,-227.0,-93.0,0
1145,31.0,-229.0,-89.0,0
1146,30.0,-231.0,-94.0,0
1147,28.0,-237.0,-92.0,0
1148,25.0,-241.0,-93.0,0
1149,27.0,-250.0,-89.0,0
1150,26.0,-255.0,-93.0,0
1151,26.0,-259.0,-89.0,0
1152,26.0,-262.0,-84.0,0
1153,28.0,-267.0,-83.0,0
1154,28.0,-273.0,-78.0,0
1155,29.0,-274.0,-75.0,0
1156,25.0,-272.0,-82.0,0
1157,24.0,-272.0,-81.0,0
1158,28.0,-272.0,-87.0,0
1159,30.0,-263.0,-98.0,0
1160,27.0,-259.0,-109.0,0
1161,26.0,-253.0,-117.0,0
1162,23.0,-246.0,-123.0,0
1163,20.0,-238.0,-130.0,0
1164,20.0,-232.0,-133.0,0
1165,24.0,-228.0,-139.0,0
1166,30.0,-227.0,-142.0,0
1167,34.0,-224.0,-156.0,0
1168,45.0,-232.0,-165.0,0
1169,51.0,-241.0,-171.0,0
1170,51.0,-258.0,-171.0,0
1171,51.0,-276.0,-167.0,0
1172,54.0,-295.0,-167.0,0
1173,52.0,-315.0,-175.0,0
1174,52.0,-326.0,-177.0,0
1175,57.0,-346.0,-190.0,0
1176,53.0,-358.0,-197.0,0
1177,47.0,-364.0,-217.0,0
1178,44.0,-372.0,-228.0,0
1179,37.0,-371.0,-235.0,0
1180,33.0,-375.0,-235.0,0
1181,31.0,-376.0,-217.0,0
1182,34.0,-381.0,-201.0,0
1183,36.0,-375.0,-189.0,0
1184,39.0,-366.0,-173.0,0
1185,39.0,-353.0,-166.0,0
1186,41.0,-332.0,-157.0,0
1187,43.0,-312.0,-155.0,0
1188,48.0,-290.0,-156.0,0
1189,50.0,-269.0,-154.0,0
1190,51.0,-260.0,-149.0,0
1191,48.0,-243.0,-142.0,0
1192,45.0,-234.0,-131.0,0
1193,45.0,-224.0,-123.0,0
1194,37.0,-209.0,-118.0,0
1195,35.0,-202.0,-113.0,0
1196,28.0,-193.0,-108.0,0
1197,23.0,-181.0,-110.0,0
1198,16.0,-176.0,-111.0,0
1199,11.0,-167.0,-115.0,0
1200,1.0,-165.0,-122.0,0
1201,-4.0,-163.0,-125.0,0
1202,-11.0,-166.0,-134.0,0
1203,-11.0,-172.0,-141.0,0
1204,-12.0,-177.0,-135.0,0
1205,-12.0,-189.0,-140.0,0
1206,-12.0,-193.0,-138.0,0
1207,-12.0,-202.0,-135.0,0
1208,-11.0,-216.0,-126.0,0
1209,-8.0,-224.0,-124.0,0
1210,-1.0,-232.0,-119.0,0
1211,5.0,-240.0,-114.0,0
1212,9.0,-243.0,-114.0,0
1213,11.0,-243.0,-119.0,0
1214,14.0,-243.0,-118.0,0
1215,18.0,-242.0,-122.0,0
1216,16.0,-239.0,-129.0,0
1217,19.0,-240.0,-140.0,0
1218,19.0,-239.0,-137.0,0
1219,19.0,-236.0,-140.0,0
1220,15.0,-229.0,-140.0,0
1221,14.0,-231.0,-138.0,0
1222,13.0,-227.0,-136.0,0
1223,8.0,-225.0,-138.0,0
1224,6.0,-220.0,-135.0,0
1225,3.0,-216.0,-135.0,0
1226,2.0,-214.0,-131.0,0
1227,0.0,-207.0,-131.0,0
1228,-2.0,-201.0,-130.0,0
1229,-8.0,-196.0,-129.0,0
1230,-9.0,-199.0,-128.0,0
1231,-8.0,-198.0,-124.0,0
1232,-8.0,-197.0,-124.0,0
1233,-9.0,-198.0,-122.0,0
1234,-11.0,-193.0,-121.0,0
1235,-11.0,-196.0,-120.0,0
1236,-7.0,-191.0,-120.0,0
1237,-10.0,-192.0,-120.0,0
1238,-12.0,-188.0,-121.0,0
1239,-9.0,-186.0,-124.0,0
1240,-11.0,-186.0,-122.0,0
1241,-10.0,-184.0,-121.0,0
1242,-9.0,-181.0,-120.0,0
1243,-11.0,-181.0,-119.0,0
1244,-9.0,-182.0,-118.0,0
1245,-10.0,-182.0,-113.0,0
1246,-10.0,-180.0,-107.0,0
1247,-9.0,-185.0,-108.0,0
1248,-7.0,-185.0,-106.0,0
1249,-9.0,-188.0,-104.0,0
1250,-8.0,-187.0,-99.0,0
1251,-7.0,-184.0,-96.0,0
1252,-6.0,-185.0,-97.0,0
1253,-7.0,-183.0,-97.0,0
1254,-9.0,-180.0,-93.0,0
1255,-6.0,-179.0,-91.0,0
1256,-7.0,-180.0,-93.0,0
1257,-5.0,-180.0,-90.0,0
1258,-7.0,-177.0,-94.0,0
1259,-8.0,-181.0,-95.0,0
1260,-7.0,-177.0,-96.0,0
1261,-7.0,-177.0,-89.0,0
1262,-7.0,-179.0,-94.0,0
1263,-5.0,-180.0,-88.0,0
1264,-2.0,-181.0,-93.0,0
1265,-9.0,-185.0,-95.0,0
1266,-6.0,-187.0,-94.0,0
1267,-3.0,-190.0,-92.0,0
1268,-5.0,-194.0,-91.0,0
1269,-10.0,-193.0,-88.0,0
1270,-11.0,-198.0,-90.0,0
1271,-11.0,-199.0,-93.0,0
1272,-12.0,-204.0,-90.0,0
1273,-15.0,-204.0,-90.0,0
1274,-12.0,-208.0,-91.0,0
1275,-13.0,-209.0,-92.0,0
1276,-12.0,-213.0,-88.0,0
1277,-15.0,-211.0,-93.0,0
1278,-16.0,-213.0,-102.0,0
1279,-16.0,-210.0,-100.0,0
1280,-17.0,-212.0,-100.0,0
1281,-16.0,-213.0,-96.0,0
1282,-17.0,-213.0,-96.0,0
1283,-11.0,-220.0,-98.0,0
1284,-18.0,-219.0,-94.0,0
1285,-11.0,-223.0,-102.0,0
1286,-13.0,-231.0,-95.0,0
1287,-12.0,-231.0,-92.0,0
1288,-12.0,-232.0,-91.0,0
1289,-12.0,-233.0,-91.0,0
1290,-12.0,-237.0,-90.0,0
1291,-16.0,-232.0,-92.0,0
1292,-13.0,-236.0,-93.0,0
1293,-17.0,-234.0,-87.0,0
1294,-11.0,-239.0,-84.0,0
1295,-11.0,-239.0,-85.0,0
1296,-11.0,-239.0,-81.0,0
1297,-12.0,-237.0,-77.0,0
1298,-12.0,-239.0,-80.0,0
1299,-11.0,-242.0,-76.0,0
1300,-9.0,-243.0,-73.0,0
1301,-12.0,-243.0,-65.0,0
1302,-8.0,-247.0,-72.0,0
1303,-11.0,-248.0,-68.0,0
1304,-10.0,-250.0,-71.0,0
1305,-13.0,-248.0,-73.0,0
1306,-13.0,-254.0,-72.0,0
1307,-13.0,-257.0,-69.0,0
1308,-18.0,-257.0,-72.0,0
1309,-15.0,-260.0,-70.0,0
1310,-17.0,-260.0,-78.0,0
1311,-16.0,-261.0,-78.0,0
1312,-18.0,-260.0,-80.0,0
1313,-15.0,-263.0,-79.0,0
1314,-12.0,-264.0,-82.0,0
1315,-11.0,-267.0,-80.0,0
1316,-7.0,-270.0,-82.0,0
1317,1.0,-272.0,-89.0,0
1318,0.0,-270.0,-95.0,0
1319,1.0,-268.0,-96.0,0
1320,5.0,-261.0,-107.0,0
1321,-3.0,-256.0,-119.0,0
1322,-9.0,-248.0,-122.0,0
1323,-24.0,-240.0,-131.0,0
1324,-47.0,-238.0,-143.0,0
1325,-68.0,-243.0,-157.0,0
1326,-83.0,-258.0,-170.0,0
1327,-88.0,-267.0,-179.0,0
1328,-94.0,-292.0,-181.0,0
1329,-87.0,-322.0,-182.0,0
1330,-76.0,-346.0,-176.0,0
1331,-59.0,-368.0,-167.0,0
1332,-40.0,-383.0,-160.0,0
1333,-16.0,-385.0,-155.0,0
1334,4.0,-385.0,-164.0,0
1335,10.0,-378.0,-173.0,0
1336,13.0,-369.0,-180.0,0
1337,11.0,-361.0,-184.0,0
1338,7.0,-349.0,-186.0,0
1339,6.0,-339.0,-184.0,0
1340,6.0,-326.0,-180.0,0
1341,3.0,-315.0,-174.0,0
1342,2.0,-305.0,-173.0,0
1343,2.0,-296.0,-165.0,0
1344,0.0,-288.0,-158.0,0
1345,-1.0,-277.0,-147.0,0
1346,-4.0,-267.0,-148.0,0
1347,-7.0,-260.0,-136.0,0
1348,-12.0,-252.0,-134.0,0
1349,-21.0,-245.0,-136.0,0
1350,-25.0,-239.0,-140.0,0
1351,-31.0,-232.0,-139.0,0
1352,-34.0,-225.0,-139.0,0
1353,-40.0,-220.0,-143.0,0
1354,-42.0,-215.0,-146.0,0
1355,-40.0,-209.0,-144.0,0
1356,-41.0,-207.0,-150.0,0
1357,-39.0,-204.0,-147.0,0
1358,-39.0,-201.0,-145.0,0
1359,-35.0,-201.0,-150.0,0
1360,-31.0,-202.0,-140.0,0
1361,-29.0,-202.0,-145.0,0
1362,-24.0,-201.0,-145.0,0
1363,-17.0,-199.0,-142.0,0
1364,-11.0,-199.0,-145.0,0
1365,-8.0,-202.0,-141.0,0
1366,-5.0,-198.0,-135.0,0
1367,-3.0,-197.0,-131.0,0
1368,2.0,-201.0,-130.0,0
1369,3.0,-203.0,-120.0,0
1370,4.0,-205.0,-111.0,0
1371,4.0,-205.0,-112.0,0
1372,7.0,-208.0,-112.0,0
1373,12.0,-210.0,-115.0,0
1374,14.0,-214.0,-122.0,0
1375,17.0,-215.0,-123.0,0
1376,21.0,-219.0,-127.0,0
1377,20.0,-220.0,-126.0,0
1378,24.0,-224.0,-124.0,0
1379,24.0,-229.0,-123.0,0
1380,25.0,-233.0,-117.0,0
1381,23.0,-233.0,-119.0,0
1382,20.0,-238.0,-118.0,0
1383,22.0,-237.0,-117.0,0
1384,19.0,-237.0,-111.0,0
1385,18.0,-237.0,-112.0,0
1386,14.0,-230.0,-110.0,0
1387,10.0,-223.0,-114.0,0
1388,12.0,-226.0,-116.0,0
1389,7.0,-218.0,-120.0,0
1390,5.0,-214.0,-113.0,0
1391,1.0,-213.0,-117.0,0
1392,-6.0,-208.0,-111.0,0
1393,-7.0,-207.0,-105.0,0
1394,-9.0,-206.0,-98.0,0
1395,-12.0,-200.0,-102.0,0
1396,-14.0,-199.0,-94.0,0
1397,-14.0,-196.0,-92.0,0
1398,-14.0,-197.0,-85.0,0
1399,-12.0,-193.0,-85.0,0
1400,-14.0,-193.0,-81.0,0
1401,-12.0,-190.0,-81.0,0
1402,-10.0,-190.0,-78.0,0
1403,-8.0,-185.0,-82.0,0
1404,-9.0,-187.0,-83.0,0
1405,-7.0,-182.0,-79.0,0
1406,-4.0,-182.0,-78.0,0
1407,3.0,-183.0,-82.0,0
1408,3.0,-186.0,-83.0,0
1409,5.0,-185.0,-81.0,0
1410,5.0,-186.0,-81.0,0
1411,9.0,-186.0,-82.0,0
1412,7.0,-183.0,-87.0,0
1413,12.0,-187.0,-81.0,0
1414,14.0,-188.0,-87.0,0
1415,11.0,-184.0,-87.0,0
1416,14.0,-186.0,-87.0,0
1417,16.0,-191.0,-88.0,0
1418,17.0,-192.0,-95.0,0
1419,17.0,-194.0,-87.0,0
1420,19.0,-195.0,-88.0,0
1421,20.0,-196.0,-93.0,0
1422,19.0,-200.0,-92.0,0
1423,19.0,-201.0,-89.0,0
1424,19.0,-204.0,-92.0,0
1425,19.0,-207.0,-88.0,0
1426,18.0,-208.0,-89.0,0
1427,21.0,-211.0,-85.0,0
1428,23.0,-211.0,-89.0,0
1429,22.0,-212.0,-89.0,0
1430,26.0,-212.0,-88.0,0
1431,25.0,-214.0,-86.0,0
1432,28.0,-211.0,-82.0,0
1433,31.0,-211.0,-80.0,0
1434,32.0,-209.0,-77.0,0
1435,33.0,-206.0,-79.0,0
1436,34.0,-207.0,-81.0,0
1437,33.0,-209.0,-78.0,0
1438,34.0,-212.0,-79.0,0
1439,33.0,-208.0,-73.0,0
1440,34.0,-209.0,-73.0,0
1441,33.0,-211.0,-74.0,0
1442,35.0,-213.0,-72.0,0
1443,36.0,-214.0,-70.0,0
1444,36.0,-217.0,-65.0,0
1445,36.0,-217.0,-71.0,0
1446,39.0,-217.0,-64.0,0
1447,37.0,-219.0,-59.0,0
1448,36.0,-220.0,-58.0,0
1449,34.0,-218.0,-61.0,0
1450,35.0,-219.0,-63.0,0
1451,35.0,-220.0,-63.0,0
1452,33.0,-222.0,-66.0,0
1453,32.0,-228.0,-66.0,0
1454,30.0,-229.0,-69.0,0
1455,32.0,-235.0,-70.0,0
1456,30.0,-236.0,-75.0,0
1457,29.0,-239.0,-76.0,0
1458,25.0,-247.0,-79.0,0
1459,22.0,-247.0,-81.0,0
1460,22.0,-254.0,-79.0,0
1461,20.0,-257.0,-83.0,0
1462,21.0,-262.0,-82.0,0
1463,16.0,-263.0,-78.0,0
1464,17.0,-267.0,-81.0,0
1465,14.0,-269.0,-76.0,0
1466,13.0,-274.0,-78.0,0
1467,12.0,-275.0,-75.0,0
1468,15.0,-277.0,-77.0,0
1469,17.0,-280.0,-81.0,0
1470,19.0,-279.0,-80.0,0
1471,26.0,-280.0,-93.0,0
1472,28.0,-278.0,-103.0,0
1473,36.0,-272.0,-117.0,0
1474,44.0,-261.0,-136.0,0
1475,53.0,-254.0,-159.0,0
1476,65.0,-248.0,-178.0,0
1477,77.0,-247.0,-193.0,0
1478,88.0,-257.0,-191.0,0
1479,96.0,-276.0,-187.0,0
1480,96.0,-290.0,-173.0,0
1481,92.0,-319.0,-155.0,0
1482,90.0,-340.0,-148.0,0
1483,80.0,-363.0,-145.0,0
1484,68.0,-380.0,-144.0,0
1485,51.0,-388.0,-155.0,0
1486,39.0,-394.0,-170.0,0
1487,21.0,-393.0,-181.0,0
1488,10.0,-386.0,-188.0,0
1489,-6.0,-376.0,-192.0,0
1490,-12.0,-361.0,-181.0,0
1491,-15.0,-351.0,-174.0,0
1492,-17.0,-345.0,-159.0,0
1493,-13.0,-332.0,-150.0,0
1494,-9.0,-322.0,-141.0,0
1495,-5.0,-309.0,-140.0,0
1496,1.0,-294.0,-135.0,0
1497,8.0,-277.0,-133.0,0
1498,18.0,-263.0,-129.0,0
1499,20.0,-248.0,-131.0,0
1500,30.0,-233.0,-131.0,0
1501,31.0,-223.0,-129.0,0
1502,33.0,-212.0,-121.0,0
1503,32.0,-203.0,-116.0,0
1504,34.0,-200.0,-113.0,0
1505,38.0,-196.0,-113.0,0
1506,40.0,-192.0,-107.0,0
1507,42.0,-184.0,-112.0,0
1508,42.0,-176.0,-114.0,0
1509,40.0,-174.0,-118.0,0
1510,35.0,-172.0,-123.0,0
1511,32.0,-177.0,-128.0,0
1512,31.0,-181.0,-133.0,0
1513,29.0,-191.0,-128.0,0
1514,24.0,-197.0,-130.0,0
1515,23.0,-207.0,-128.0,0
1516,17.0,-215.0,-126.0,0
1517,18.0,-225.0,-120.0,0
1518,16.0,-234.0,-118.0,0
1519,13.0,-237.0,-117.0,0
1520,8.0,-237.0,-118.0,0
1521,6.0,-242.0,-115.0,0
1522,1.0,-244.0,-117.0,0
1523,-3.0,-250.0,-113.0,0
1524,-5.0,-248.0,-117.0,0
1525,-6.0,-254.0,-122.0,0
1526,-8.0,-256.0,-125.0,0
1527,-10.0,-258.0,-123.0,0
1528,-11.0,-254.0,-122.0,0
1529,-13.0,-256.0,-121.0,0
1530,-12.0,-248.0,-125.0,0
1531,-10.0,-244.0,-129.0,0
1532,-11.0,-238.0,-130.0,0
1533,-12.0,-235.0,-132.0,0
1534,-14.0,-231.0,-128.0,0
1535,-18.0,-224.0,-131.0,0
1536,-15.0,-221.0,-128.0,0
1537,-15.0,-215.0,-129.0,0
1538,-19.0,-208.0,-130.0,0
1539,-23.0,-201.0,-127.0,0
1540,-23.0,-197.0,-127.0,0
1541,-22.0,-189.0,-124.0,0
1542,-18.0,-184.0,-123.0,0
1543,-15.0,-181.0,-126.0,0
1544,-16.0,-179.0,-126.0,0
1545,-17.0,-174.0,-124.0,0
1546,-14.0,-174.0,-120.0,0
1547,-12.0,-170.0,-115.0,0
1548,-12.0,-171.0,-112.0,0
1549,-9.0,-170.0,-111.0,0
1550,-8.0,-169.0,-105.0,0
1551,-12.0,-167.0,-106.0,0
1552,-9.0,-169.0,-106.0,0
1553,-9.0,-175.0,-99.0,0
1554,-10.0,-170.0,-106.0,0
1555,-12.0,-176.0,-100.0,0
1556,-10.0,-177.0,-103.0,0
1557,-11.0,-181.0,-104.0,0
1558,-8.0,-182.0,-103.0,0
1559,-10.0,-186.0,-103.0,0
1560,-7.0,-191.0,-102.0,0
1561,-6.0,-196.0,-103.0,0
1562,-5.0,-194.0,-103.0,0
1563,-3.0,-195.0,-103.0,0
1564,-1.0,-196.0,-105.0,0
1565,-2.0,-195.0,-103.0,0
1566,0.0,-193.0,-98.0,0
1567,1.0,-193.0,-100.0,0
1568,-3.0,-192.0,-98.0,0
1569,-3.0,-192.0,-95.0,0
1570,2.0,-193.0,-102.0,0
1571,0.0,-194.0,-100.0,0
1572,1.0,-193.0,-97.0,0
1573,-2.0,-193.0,-99.0,0
1574,-1.0,-193.0,-91.0,0
1575,-1.0,-196.0,-92.0,0
1576,1.0,-195.0,-93.0,0
1577,-1.0,-196.0,-90.0,0
1578,-5.0,-196.0,-92.0,0
1579,-4.0,-200.0,-91.0,0
1580,-5.0,-201.0,-91.0,0
1581,-5.0,-203.0,-89.0,0
1582,-10.0,-206.0,-92.0,0
1583,-11.0,-203.0,-88.0,0
1584,-12.0,-208.0,-93.0,0
1585,-12.0,-208.0,-91.0,0
1586,-12.0,-208.0,-91.0,0
1587,-12.0,-208.0,-99.0,0
1588,-13.0,-207.0,-97.0,0
1589,-14.0,-211.0,-99.0,0
1590,-12.0,-211.0,-95.0,0
1591,-12.0,-214.0,-98.0,0
1592,-17.0,-214.0,-94.0,0
1593,-17.0,-219.0,-94.0,0
1594,-17.0,-224.0,-90.0,0
1595,-22.0,-226.0,-89.0,0
1596,-20.0,-230.0,-92.0,0
1597,-19.0,-231.0,-85.0,0
1598,-19.0,-234.0,-86.0,0
1599,-17.0,-237.0,-83.0,0
1600,-14.0,-238.0,-83.0,0
1601,-15.0,-242.0,-84.0,0
1602,-14.0,-245.0,-83.0,0
1603,-12.0,-248.0,-80.0,0
1604,-11.0,-253.0,-78.0,0
1605,-12.0,-255.0,-80.0,0
1606,-8.0,-253.0,-81.0,0
1607,-7.0,-256.0,-78.0,0
1608,-5.0,-253.0,-82.0,0
1609,-7.0,-252.0,-79.0,0
1610,-5.0,-248.0,-77.0,0
1611,-10.0,-243.0,-80.0,0
1612,-9.0,-244.0,-81.0,0
1613,-9.0,-242.0,-82.0,0
1614,-14.0,-241.0,-83.0,0
1615,-14.0,-240.0,-84.0,0
1616,-14.0,-242.0,-79.0,0
1617,-16.0,-237.0,-83.0,0
1618,-18.0,-236.0,-81.0,0
1619,-20.0,-229.0,-82.0,0
1620,-18.0,-226.0,-80.0,0
1621,-17.0,-220.0,-79.0,0
1622,-20.0,-215.0,-78.0,0
1623,-20.0,-211.0,-79.0,0
1624,-21.0,-210.0,-78.0,0
1625,-21.0,-207.0,-80.0,0
1626,-25.0,-210.0,-77.0,0
1627,-37.0,-209.0,-81.0,0
1628,-37.0,-212.0,-76.0,0
1629,-43.0,-217.0,-79.0,0
1630,-47.0,-221.0,-76.0,0
1631,-52.0,-229.0,-78.0,0
1632,-50.0,-232.0,-82.0,0
1633,-50.0,-239.0,-84.0,0
1634,-44.0,-244.0,-89.0,0
1635,-39.0,-249.0,-104.0,0
1636,-42.0,-249.0,-117.0,0
1637,-54.0,-247.0,-128.0,0
1638,-63.0,-243.0,-137.0,0
1639,-74.0,-239.0,-141.0,0
1640,-78.0,-243.0,-149.0,0
1641,-86.0,-249.0,-135.0,0
1642,-91.0,-261.0,-131.0,0
1643,-97.0,-277.0,-126.0,0
1644,-90.0,-296.0,-121.0,0
1645,-77.0,-313.0,-122.0,0
1646,-63.0,-332.0,-128.0,0
1647,-45.0,-350.0,-137.0,0
1648,-28.0,-364.0,-146.0,0
1649,-11.0,-377.0,-149.0,0
1650,2.0,-379.0,-161.0,0
1651,21.0,-378.0,-172.0,0
1652,29.0,-370.0,-184.0,0
1653,27.0,-359.0,-193.0,0
1654,23.0,-356.0,-201.0,0
1655,19.0,-354.0,-202.0,0
1656,9.0,-348.0,-200.0,0
1657,4.0,-341.0,-192.0,0
1658,-3.0,-331.0,-184.0,0
1659,-10.0,-324.0,-182.0,0
1660,-12.0,-317.0,-175.0,0
1661,-21.0,-304.0,-168.0,0
1662,-21.0,-297.0,-172.0,0
1663,-27.0,-288.0,-172.0,0
1664,-24.0,-285.0,-175.0,0
1665,-26.0,-277.0,-178.0,0
1666,-24.0,-276.0,-177.0,0
1667,-26.0,-268.0,-174.0,0
1668,-26.0,-267.0,-178.0,0
1669,-26.0,-266.0,-175.0,0
1670,-23.0,-261.0,-168.0,0
1671,-23.0,-260.0,-166.0,0
1672,-25.0,-258.0,-160.0,0
1673,-22.0,-254.0,-162.0,0
1674,-22.0,-249.0,-155.0,0
1675,-21.0,-244.0,-155.0,0
1676,-22.0,-234.0,-151.0,0
1677,-17.0,-227.0,-148.0,0
1678,-22.0,-224.0,-150.0,0
1679,-15.0,-218.0,-152.0,0
1680,-12.0,-212.0,-148.0,0
1681,-12.0,-210.0,-154.0,0
1682,-10.0,-203.0,-158.0,0
1683,-5.0,-200.0,-160.0,0
1684,0.0,-194.0,-160.0,0
1685,6.0,-190.0,-162.0,0
1686,10.0,-189.0,-157.0,0
1687,12.0,-185.0,-152.0,0
1688,12.0,-183.0,-152.0,0
1689,11.0,-183.0,-141.0,0
1690,11.0,-183.0,-141.0,0
1691,11.0,-182.0,-138.0,0
1692,12.0,-185.0,-134.0,0
1693,11.0,-187.0,-134.0,0
1694,15.0,-189.0,-137.0,0
1695,14.0,-186.0,-141.0,0
1696,12.0,-190.0,-146.0,0
1697,12.0,-191.0,-145.0,0
1698,15.0,-195.0,-144.0,0
1699,12.0,-195.0,-140.0,0
1700,8.0,-197.0,-139.0,0
1701,7.0,-197.0,-138.0,0
1702,9.0,-201.0,-143.0,0
1703,11.0,-201.0,-140.0,0
1704,16.0,-207.0,-135.0,0
1705,12.0,-200.0,-133.0,0
1706,15.0,-200.0,-130.0,0
1707,19.0,-201.0,-132.0,0
1708,20.0,-199.0,-132.0,0
1709,17.0,-197.0,-134.0,0
1710,23.0,-196.0,-131.0,0
1711,22.0,-193.0,-130.0,0
1712,24.0,-193.0,-128.0,0
1713,26.0,-192.0,-129.0,0
1714,27.0,-189.0,-128.0,0
1715,29.0,-189.0,-129.0,0
1716,30.0,-186.0,-126.0,0
1717,29.0,-184.0,-125.0,0
1718,31.0,-181.0,-128.0,0
1719,37.0,-179.0,-120.0,0
1720,31.0,-176.0,-125.0,0
1721,31.0,-177.0,-122.0,0
1722,31.0,-176.0,-120.0,0
1723,26.0,-173.0,-120.0,0
1724,23.0,-172.0,-117.0,0
1725,24.0,-173.0,-116.0,0
1726,19.0,-173.0,-117.0,0
1727,19.0,-175.0,-110.0,0
1728,11.0,-176.0,-106.0,0
1729,12.0,-180.0,-107.0,0
1730,11.0,-181.0,-102.0,0
1731,10.0,-182.0,-102.0,0
1732,2.0,-182.0,-102.0,0
1733,-2.0,-183.0,-99.0,0
1734,-5.0,-183.0,-101.0,0
1735,-8.0,-182.0,-102.0,0
1736,-7.0,-180.0,-100.0,0
1737,-10.0,-180.0,-95.0,0
1738,-10.0,-182.0,-96.0,0
1739,-10.0,-180.0,-104.0,0
1740,-7.0,-180.0,-104.0,0
1741,-6.0,-183.0,-104.0,0
1742,1.0,-187.0,-106.0,0
1743,4.0,-189.0,-105.0,0
1744,8.0,-193.0,-103.0,0
1745,9.0,-196.0,-103.0,0
1746,10.0,-193.0,-98.0,0
1747,18.0,-196.0,-104.0,0
1748,23.0,-198.0,-103.0,0
1749,22.0,-204.0,-108.0,0
1750,27.0,-204.0,-103.0,0
1751,27.0,-207.0,-104.0,0
1752,30.0,-210.0,-104.0,0
1753,35.0,-217.0,-104.0,0
1754,35.0,-217.0,-103.0,0
1755,36.0,-218.0,-102.0,0
1756,38.0,-222.0,-102.0,0
1757,39.0,-224.0,-100.0,0
1758,40.0,-226.0,-98.0,0
1759,37.0,-223.0,-102.0,0
1760,40.0,-223.0,-100.0,0
1761,39.0,-224.0,-104.0,0
1762,42.0,-218.0,-104.0,0
1763,41.0,-211.0,-104.0,0
1764,41.0,-210.0,-104.0,0
1765,42.0,-203.0,-100.0,0
1766,40.0,-200.0,-100.0,0
1767,41.0,-195.0,-100.0,0
1768,38.0,-195.0,-97.0,0
1769,39.0,-194.0,-94.0,0
1770,37.0,-193.0,-101.0,0
1771,39.0,-192.0,-97.0,0
1772,39.0,-190.0,-102.0,0
1773,40.0,-190.0,-102.0,0
1774,43.0,-194.0,-100.0,0
1775,40.0,-194.0,-106.0,0
1776,39.0,-195.0,-100.0,0
1777,40.0,-199.0,-102.0,0
1778,38.0,-203.0,-103.0,0
1779,40.0,-208.0,-99.0,0
1780,34.0,-212.0,-107.0,0
1781,36.0,-217.0,-104.0,0
1782,36.0,-222.0,-101.0,0
1783,37.0,-226.0,-100.0,0
1784,40.0,-237.0,-97.0,0
1785,39.0,-237.0,-90.0,0
1786,43.0,-242.0,-87.0,0
1787,45.0,-243.0,-84.0,0
1788,45.0,-247.0,-84.0,0
1789,45.0,-245.0,-76.0,0
1790,48.0,-248.0,-74.0,0
1791,49.0,-246.0,-74.0,0
1792,50.0,-245.0,-82.0,0
1793,50.0,-241.0,-80.0,0
1794,51.0,-240.0,-85.0,0
1795,52.0,-240.0,-87.0,0
1796,50.0,-240.0,-85.0,0
1797,49.0,-237.0,-86.0,0
1798,47.0,-241.0,-90.0,0
1799,42.0,-238.0,-88.0,0
1800,43.0,-238.0,-90.0,0
1801,42.0,-237.0,-91.0,0
1802,42.0,-238.0,-98.0,0
1803,38.0,-239.0,-105.0,0
1804,38.0,-241.0,-105.0,0
1805,38.0,-243.0,-112.0,0
1806,40.0,-245.0,-109.0,0
1807,45.0,-246.0,-113.0,0
1808,50.0,-248.0,-120.0,0
1809,54.0,-251.0,-129.0,0
1810,52.0,-254.0,-132.0,0
1811,54.0,-261.0,-135.0,0
1812,53.0,-274.0,-135.0,0
1813,50.0,-284.0,-133.0,0
1814,49.0,-297.0,-136.0,0
1815,45.0,-306.0,-142.0,0
1816,38.0,-316.0,-146.0,0
1817,35.0,-326.0,-155.0,0
1818,30.0,-335.0,-155.0,0
1819,27.0,-344.0,-160.0,0
1820,25.0,-350.0,-158.0,0
1821,29.0,-356.0,-165.0,0
1822,29.0,-357.0,-174.0,0
1823,36.0,-353.0,-183.0,0
1824,44.0,-346.0,-193.0,0
1825,48.0,-344.0,-198.0,0
1826,50.0,-337.0,-194.0,0
1827,52.0,-332.0,-188.0,0
1828,51.0,-327.0,-184.0,0
1829,47.0,-320.0,-179.0,0
1830,44.0,-314.0,-168.0,0
1831,37.0,-311.0,-161.0,0
1832,31.0,-307.0,-157.0,0
1833,25.0,-300.0,-155.0,0
1834,22.0,-294.0,-152.0,0
1835,19.0,-286.0,-152.0,0
1836,14.0,-276.0,-152.0,0
1837,14.0,-268.0,-147.0,0
1838,12.0,-260.0,-140.0,0
1839,14.0,-255.0,-140.0,0
1840,17.0,-246.0,-135.0,0
1841,17.0,-240.0,-129.0,0
1842,20.0,-230.0,-133.0,0
1843,23.0,-223.0,-129.0,0
1844,24.0,-216.0,-123.0,0
1845,28.0,-208.0,-125.0,0
1846,27.0,-200.0,-123.0,0
1847,28.0,-196.0,-123.0,0
1848,24.0,-192.0,-122.0,0
1849,30.0,-187.0,-124.0,0
1850,27.0,-186.0,-128.0,0
1851,24.0,-183.0,-124.0,0
1852,21.0,-181.0,-129.0,0
1853,19.0,-185.0,-131.0,0
1854,20.0,-193.0,-136.0,0
1855,18.0,-196.0,-143.0,0
1856,19.0,-195.0,-148.0,0
1857,19.0,-198.0,-148.0,0
1858,17.0,-201.0,-147.0,0
1859,11.0,-199.0,-150.0,0
1860,13.0,-199.0,-145.0,0
1861,10.0,-202.0,-144.0,0
1862,7.0,-201.0,-137.0,0
1863,8.0,-205.0,-137.0,0
1864,5.0,-210.0,-129.0,0
1865,2.0,-212.0,-125.0,0
1866,-2.0,-215.0,-128.0,0
1867,-4.0,-215.0,-128.0,0
1868,0.0,-218.0,-133.0,0
1869,-1.0,-222.0,-136.0,0
1870,-6.0,-220.0,-136.0,0
1871,-10.0,-223.0,-142.0,0
1872,-12.0,-226.0,-138.0,0
1873,-12.0,-226.0,-140.0,0
1874,-15.0,-225.0,-140.0,0
1875,-18.0,-228.0,-140.0,0
1876,-15.0,-227.0,-134.0,0
1877,-22.0,-225.0,-134.0,0
1878,-20.0,-227.0,-128.0,0
1879,-22.0,-224.0,-127.0,0
1880,-21.0,-226.0,-123.0,0
1881,-23.0,-221.0,-123.0,0
1882,-25.0,-216.0,-126.0,0
1883,-24.0,-215.0,-125.0,0
1884,-23.0,-212.0,-129.0,0
1885,-25.0,-209.0,-131.0,0
1886,-25.0,-207.0,-128.0,0
1887,-22.0,-203.0,-131.0,0
1888,-27.0,-200.0,-130.0,0
1889,-26.0,-199.0,-129.0,0
1890,-25.0,-195.0,-128.0,0
1891,-31.0,-194.0,-131.0,0
1892,-29.0,-192.0,-132.0,0
1893,-27.0,-189.0,-126.0,0
1894,-25.0,-191.0,-122.0,0
1895,-26.0,-191.0,-120.0,0
1896,-27.0,-188.0,-121.0,0
1897,-24.0,-190.0,-122.0,0
1898,-18.0,-190.0,-119.0,0
1899,-21.0,-189.0,-117.0,0
1900,-18.0,-192.0,-118.0,0
1901,-15.0,-190.0,-114.0,0
1902,-13.0,-193.0,-115.0,0
1903,-19.0,-189.0,-116.0,0
1904,-12.0,-192.0,-113.0,0
1905,-12.0,-195.0,-114.0,0
1906,-13.0,-195.0,-115.0,0
1907,-13.0,-196.0,-115.0,0
1908,-12.0,-201.0,-114.0,0
1909,-12.0,-199.0,-110.0,0
1910,-12.0,-202.0,-114.0,0
1911,-9.0,-203.0,-110.0,0
1912,-12.0,-204.0,-109.0,0
1913,-11.0,-205.0,-107.0,0
1914,-12.0,-209.0,-110.0,0
1915,-10.0,-205.0,-109.0,0
1916,-9.0,-205.0,-111.0,0
1917,-11.0,-204.0,-114.0,0
1918,-11.0,-205.0,-109.0,0
1919,-12.0,-204.0,-110.0,0
1920,-10.0,-204.0,-107.0,0
1921,-11.0,-204.0,-109.0,0
1922,-9.0,-204.0,-104.0,0
1923,-12.0,-205.0,-107.0,0
1924,-12.0,-205.0,-101.0,0
1925,-12.0,-205.0,-100.0,0
1926,-13.0,-204.0,-97.0,0
1927,-16.0,-206.0,-99.0,0
1928,-17.0,-209.0,-94.0,0
1929,-19.0,-206.0,-99.0,0
1930,-21.0,-209.0,-95.0,0
1931,-19.0,-209.0,-96.0,0
1932,-20.0,-214.0,-93.0,0
1933,-20.0,-218.0,-96.0,0
1934,-21.0,-218.0,-95.0,0
1935,-20.0,-222.0,-96.0,0
1936,-22.0,-222.0,-90.0,0
1937,-23.0,-223.0,-89.0,0
1938,-21.0,-228.0,-84.0,0
1939,-20.0,-229.0,-86.0,0
1940,-21.0,-234.0,-80.0,0
1941,-18.0,-235.0,-77.0,0
1942,-19.0,-238.0,-76.0,0
1943,-20.0,-234.0,-72.0,0
1944,-19.0,-234.0,-74.0,0
1945,-18.0,-235.0,-72.0,0
1946,-17.0,-235.0,-75.0,0
1947,-19.0,-232.0,-72.0,0
1948,-19.0,-232.0,-72.0,0
1949,-16.0,-232.0,-73.0,0
1950,-14.0,-231.0,-74.0,0
1951,-14.0,-233.0,-73.0,0
1952,-13.0,-233.0,-73.0,0
1953,-11.0,-234.0,-70.0,0
1954,-11.0,-236.0,-73.0,0
1955,-6.0,-236.0,-73.0,0
1956,-9.0,-236.0,-72.0,0
1957,-4.0,-240.0,-69.0,0
1958,-3.0,-243.0,-71.0,0
1959,-3.0,-243.0,-70.0,0
1960,-2.0,-248.0,-68.0,0
1961,3.0,-248.0,-69.0,0
1962,0.0,-244.0,-66.0,0
1963,2.0,-240.0,-66.0,0
1964,5.0,-241.0,-67.0,0
1965,1.0,-236.0,-66.0,0
1966,8.0,-236.0,-69.0,0
1967,5.0,-232.0,-66.0,0
1968,3.0,-225.0,-66.0,0
1969,2.0,-221.0,-79.0,0
1970,0.0,-215.0,-79.0,0
1971,-7.0,-213.0,-93.0,0
1972,-11.0,-206.0,-112.0,0
1973,-10.0,-205.0,-120.0,0
1974,-12.0,-204.0,-124.0,0
1975,-12.0,-212.0,-137.0,0
1976,-14.0,-227.0,-137.0,0
1977,-18.0,-239.0,-142.0,0
1978,-20.0,-252.0,-141.0,0
1979,-21.0,-268.0,-140.0,0
1980,-25.0,-286.0,-128.0,0
1981,-22.0,-306.0,-116.0,0
1982,-21.0,-318.0,-99.0,0
1983,-21.0,-322.0,-77.0,0
1984,-16.0,-322.0,-62.0,0
1985,-13.0,-317.0,-57.0,0
1986,-15.0,-305.0,-51.0,0
1987,-18.0,-295.0,-52.0,0
1988,-15.0,-288.0,-54.0,0
1989,-12.0,-273.0,-58.0,0
1990,-6.0,-264.0,-67.0,0
1991,-5.0,-250.0,-71.0,0
1992,-5.0,-239.0,-83.0,0
1993,-5.0,-229.0,-94.0,0
1994,-4.0,-221.0,-103.0,0
1995,-7.0,-215.0,-108.0,0
1996,-9.0,-213.0,-111.0,0
1997,-12.0,-213.0,-114.0,0
1998,-14.0,-214.0,-113.0,0
1999,-15.0,-214.0,-109.0,0
2000,-14.0,-220.0,-106.0,0
2001,-21.0,-222.0,-103.0,0
2002,-19.0,-224.0,-99.0,0
2003,-20.0,-228.0,-97.0,0
2004,-21.0,-228.0,-90.0,0
2005,-24.0,-231.0,-87.0,0
2006,-26.0,-233.0,-84.0,0
2007,-26.0,-230.0,-86.0,0
2008,-25.0,-228.0,-88.0,0
2009,-28.0,-231.0,-89.0,0
2010,-26.0,-231.0,-92.0,0
2011,-28.0,-231.0,-97.0,0
2012,-27.0,-231.0,-94.0,0
2013,-30.0,-230.0,-94.0,0
2014,-35.0,-225.0,-91.0,0
2015,-34.0,-230.0,-88.0,0
2016,-38.0,-226.0,-81.0,0
2017,-36.0,-228.0,-76.0,0
2018,-34.0,-231.0,-78.0,0
2019,-34.0,-227.0,-78.0,0
2020,-32.0,-223.0,-75.0,0
2021,-28.0,-223.0,-77.0,0
2022,-23.0,-223.0,-81.0,0
2023,-21.0,-224.0,-87.0,0
2024,-15.0,-229.0,-92.0,0
2025,-12.0,-230.0,-92.0,0
2026,-8.0,-236.0,-97.0,0
2027,-4.0,-240.0,-93.0,0
2028,-3.0,-244.0,-102.0,0
2029,1.0,-246.0,-100.0,0
2030,3.0,-252.0,-101.0,0
2031,6.0,-254.0,-103.0,0
2032,5.0,-256.0,-101.0,0
2033,9.0,-258.0,-104.0,0
2034,11.0,-259.0,-98.0,0
2035,10.0,-257.0,-93.0,0
2036,7.0,-254.0,-88.0,0
2037,6.0,-253.0,-85.0,0
2038,4.0,-252.0,-82.0,0
2039,6.0,-248.0,-79.0,0
2040,4.0,-244.0,-78.0,0
2041,2.0,-237.0,-81.0,0
2042,4.0,-240.0,-82.0,0
2043,3.0,-238.0,-80.0,0
2044,6.0,-239.0,-79.0,0
2045,7.0,-237.0,-83.0,0
2046,5.0,-236.0,-87.0,0
2047,7.0,-237.0,-87.0,0
2048,7.0,-236.0,-80.0,0
2049,5.0,-235.0,-85.0,0
2050,8.0,-234.0,-85.0,0
2051,1.0,-233.0,-80.0,0
2052,6.0,-235.0,-78.0,0
2053,6.0,-239.0,-78.0,0
2054,3.0,-237.0,-76.0,0
2055,-1.0,-235.0,-76.0,0
2056,-2.0,-233.0,-76.0,0
2057,-2.0,-237.0,-77.0,0
2058,-4.0,-234.0,-77.0,0
2059,-8.0,-233.0,-75.0,0
2060,-9.0,-235.0,-77.0,0
2061,-7.0,-234.0,-77.0,0
2062,-7.0,-235.0,-90.0,0
2063,-8.0,-235.0,-91.0,0
2064,-8.0,-232.0,-91.0,0
2065,-3.0,-233.0,-95.0,0
2066,-2.0,-231.0,-95.0,0
2067,2.0,-232.0,-96.0,0
2068,3.0,-231.0,-101.0,0
2069,6.0,-228.0,-100.0,0
2070,10.0,-232.0,-102.0,0
2071,8.0,-231.0,-102.0,0
2072,12.0,-233.0,-106.0,0
2073,9.0,-236.0,-106.0,0
2074,7.0,-238.0,-101.0,0
2075,1.0,-241.0,-103.0,0
2076,4.0,-243.0,-104.0,0
2077,2.0,-243.0,-108.0,0
2078,3.0,-244.0,-110.0,0
2079,3.0,-246.0,-114.0,0
2080,8.0,-247.0,-113.0,0
2081,10.0,-250.0,-116.0,0
2082,11.0,-254.0,-111.0,0
2083,17.0,-259.0,-106.0,0
2084,21.0,-259.0,-105.0,0
2085,26.0,-263.0,-106.0,0
2086,36.0,-260.0,-109.0,0
2087,38.0,-260.0,-114.0,0
2088,49.0,-251.0,-112.0,0
2089,51.0,-245.0,-114.0,0
2090,57.0,-241.0,-118.0,0
2091,58.0,-237.0,-115.0,0
2092,61.0,-233.0,-115.0,0
2093,61.0,-233.0,-108.0,0
2094,61.0,-234.0,-105.0,0
2095,55.0,-232.0,-101.0,0
2096,54.0,-232.0,-94.0,0
2097,50.0,-229.0,-89.0,0
2098,46.0,-230.0,-85.0,0
2099,42.0,-229.0,-76.0,0
2100,34.0,-223.0,-78.0,0
2101,29.0,-220.0,-80.0,0
2102,26.0,-219.0,-87.0,0
2103,18.0,-219.0,-91.0,0
2104,13.0,-214.0,-102.0,0
2105,10.0,-211.0,-113.0,0
2106,8.0,-210.0,-117.0,0
2107,3.0,-213.0,-120.0,0
2108,7.0,-223.0,-122.0,0
2109,5.0,-230.0,-125.0,0
2110,2.0,-231.0,-126.0,0
2111,4.0,-241.0,-124.0,0
2112,6.0,-243.0,-124.0,0
2113,4.0,-245.0,-119.0,0
2114,9.0,-247.0,-119.0,0
2115,13.0,-247.0,-116.0,0
2116,12.0,-250.0,-111.0,0
2117,12.0,-242.0,-105.0,0
2118,15.0,-244.0,-107.0,0
2119,7.0,-242.0,-103.0,0
2120,3.0,-243.0,-101.0,0
2121,1.0,-245.0,-97.0,0
2122,-4.0,-246.0,-95.0,0
2123,-11.0,-244.0,-98.0,0
2124,-15.0,-246.0,-95.0,0
2125,-25.0,-246.0,-95.0,0
2126,-31.0,-242.0,-97.0,0
2127,-37.0,-242.0,-94.0,0
2128,-44.0,-239.0,-94.0,0
2129,-48.0,-237.0,-85.0,0
2130,-49.0,-236.0,-81.0,0
2131,-54.0,-235.0,-78.0,0
2132,-51.0,-233.0,-70.0,0
2133,-57.0,-229.0,-75.0,0
2134,-56.0,-226.0,-71.0,0
2135,-56.0,-222.0,-66.0,0
2136,-58.0,-221.0,-68.0,0
2137,-56.0,-219.0,-70.0,0
2138,-54.0,-220.0,-74.0,0
2139,-53.0,-220.0,-78.0,0
2140,-49.0,-221.0,-83.0,0
2141,-45.0,-228.0,-85.0,0
2142,-45.0,-231.0,-91.0,0
2143,-45.0,-238.0,-89.0,0
2144,-42.0,-247.0,-94.0,0
2145,-39.0,-253.0,-92.0,0
2146,-37.0,-260.0,-93.0,0
2147,-31.0,-264.0,-90.0,0
2148,-29.0,-266.0,-93.0,0
2149,-20.0,-270.0,-95.0,0
2150,-12.0,-274.0,-100.0,0
2151,-9.0,-276.0,-101.0,0
2152,-5.0,-277.0,-100.0,0
2153,1.0,-282.0,-102.0,0
2154,2.0,-282.0,-98.0,0
2155,8.0,-285.0,-90.0,0
2156,12.0,-287.0,-88.0,0
2157,13.0,-290.0,-85.0,0
2158,7.0,-289.0,-76.0,0
2159,9.0,-290.0,-72.0,0
2160,6.0,-289.0,-72.0,0
2161,3.0,-281.0,-76.0,0
2162,5.0,-272.0,-73.0,0
2163,3.0,-267.0,-81.0,0
2164,0.0,-264.0,-82.0,0
2165,0.0,-256.0,-84.0,0
2166,-7.0,-250.0,-81.0,0
2167,-10.0,-245.0,-79.0,0
2168,-11.0,-242.0,-77.0,0
2169,-12.0,-236.0,-74.0,0
2170,-15.0,-236.0,-68.0,0
2171,-16.0,-232.0,-65.0,0
2172,-24.0,-229.0,-63.0,0
2173,-25.0,-227.0,-60.0,0
2174,-24.0,-225.0,-60.0,0
2175,-25.0,-222.0,-62.0,0
2176,-26.0,-225.0,-63.0,0
2177,-28.0,-220.0,-62.0,0
2178,-29.0,-220.0,-69.0,0
2179,-33.0,-219.0,-66.0,0
2180,-34.0,-218.0,-66.0,0
2181,-36.0,-220.0,-67.0,0
2182,-32.0,-219.0,-66.0,0
2183,-37.0,-221.0,-71.0,0
2184,-39.0,-222.0,-71.0,0
2185,-38.0,-221.0,-75.0,0
2186,-34.0,-224.0,-72.0,0
2187,-33.0,-227.0,-74.0,0
2188,-37.0,-222.0,-73.0,0
2189,-35.0,-230.0,-73.0,0
2190,-33.0,-234.0,-78.0,0
2191,-30.0,-235.0,-81.0,0
2192,-28.0,-238.0,-86.0,0
2193,-27.0,-242.0,-93.0,0
2194,-22.0,-242.0,-94.0,0
2195,-24.0,-245.0,-96.0,0
2196,-20.0,-247.0,-101.0,0
2197,-20.0,-250.0,-105.0,0
2198,-12.0,-251.0,-105.0,0
2199,-12.0,-258.0,-106.0,0
2200,-13.0,-259.0,-108.0,0
2201,-14.0,-261.0,-105.0,0
2202,-15.0,-263.0,-109.0,0
2203,-12.0,-265.0,-110.0,0
2204,-11.0,-264.0,-110.0,0
2205,-11.0,-263.0,-109.0,0
2206,-11.0,-264.0,-109.0,0
2207,-7.0,-260.0,-110.0,0
2208,-6.0,-258.0,-106.0,0
2209,-2.0,-255.0,-100.0,0
2210,-5.0,-252.0,-102.0,0
2211,-5.0,-248.0,-106.0,0
2212,-8.0,-242.0,-112.0,0
2213,-6.0,-241.0,-118.0,0
2214,-10.0,-239.0,-118.0,0
2215,-11.0,-239.0,-121.0,0
2216,-12.0,-241.0,-118.0,0
2217,-11.0,-247.0,-119.0,0
2218,-10.0,-250.0,-120.0,0
2219,-12.0,-251.0,-113.0,0
2220,-12.0,-254.0,-111.0,0
2221,-11.0,-249.0,-106.0,0
2222,-10.0,-245.0,-105.0,0
2223,-11.0,-243.0,-101.0,0
2224,-10.0,-237.0,-95.0,0
2225,-7.0,-235.0,-90.0,0
2226,-7.0,-229.0,-87.0,0
2227,-6.0,-228.0,-84.0,0
2228,1.0,-222.0,-80.0,0
2229,5.0,-221.0,-80.0,0
2230,7.0,-219.0,-83.0,0
2231,5.0,-214.0,-84.0,0
2232,9.0,-217.0,-85.0,0
2233,11.0,-219.0,-89.0,0
2234,11.0,-220.0,-92.0,0
2235,17.0,-224.0,-96.0,0
2236,14.0,-227.0,-102.0,0
2237,16.0,-231.0,-103.0,0
2238,17.0,-235.0,-111.0,0
2239,23.0,-242.0,-114.0,0
2240,25.0,-240.0,-120.0,0
2241,25.0,-241.0,-120.0,0
2242,26.0,-243.0,-121.0,0
2243,23.0,-240.0,-124.0,0
2244,26.0,-240.0,-124.0,0
2245,23.0,-238.0,-123.0,0
2246,24.0,-236.0,-120.0,0
2247,23.0,-234.0,-118.0,0
2248,25.0,-233.0,-113.0,0
2249,26.0,-230.0,-111.0,0
2250,25.0,-224.0,-104.0,0
2251,27.0,-225.0,-104.0,0
2252,29.0,-219.0,-94.0,0
2253,28.0,-221.0,-89.0,0
2254,31.0,-219.0,-84.0,0
2255,32.0,-216.0,-79.0,0
2256,32.0,-219.0,-81.0,0
2257,31.0,-216.0,-85.0,0
2258,32.0,-214.0,-90.0,0
2259,30.0,-216.0,-88.0,0
2260,28.0,-216.0,-95.0,0
2261,26.0,-219.0,-98.0,0
2262,28.0,-224.0,-101.0,0
2263,27.0,-228.0,-107.0,0
2264,31.0,-235.0,-113.0,0
2265,33.0,-242.0,-119.0,0
2266,36.0,-249.0,-119.0,0
2267,34.0,-253.0,-117.0,0
2268,42.0,-257.0,-120.0,0
2269,42.0,-260.0,-118.0,0
2270,49.0,-265.0,-117.0,0
2271,52.0,-266.0,-109.0,0
2272,54.0,-267.0,-110.0,0
2273,58.0,-266.0,-107.0,0
2274,62.0,-265.0,-102.0,0
2275,62.0,-264.0,-99.0,0
2276,65.0,-262.0,-94.0,0
2277,63.0,-259.0,-91.0,0
2278,57.0,-255.0,-88.0,0
2279,57.0,-248.0,-85.0,0
2280,52.0,-243.0,-86.0,0
2281,46.0,-240.0,-82.0,0
2282,41.0,-235.0,-77.0,0
2283,34.0,-233.0,-78.0,0
2284,29.0,-228.0,-80.0,0
2285,25.0,-222.0,-77.0,0
2286,20.0,-219.0,-86.0,0
2287,15.0,-219.0,-93.0,0
2288,10.0,-220.0,-92.0,0
2289,3.0,-224.0,-88.0,0
2290,-6.0,-227.0,-78.0,0
2291,-11.0,-228.0,-78.0,0
2292,-12.0,-231.0,-66.0,0
2293,-14.0,-237.0,-66.0,0
2294,-22.0,-237.0,-68.0,0
2295,-21.0,-236.0,-70.0,0
2296,-16.0,-242.0,-72.0,0
2297,-17.0,-242.0,-75.0,0
2298,-12.0,-243.0,-72.0,0
2299,-6.0,-246.0,-72.0,0
2300,4.0,-249.0,-72.0,0
2301,11.0,-248.0,-76.0,0
2302,20.0,-247.0,-81.0,0
2303,26.0,-245.0,-83.0,0
2304,33.0,-245.0,-86.0,0
2305,36.0,-249.0,-90.0,0
2306,42.0,-245.0,-91.0,0
2307,47.0,-249.0,-94.0,0
2308,45.0,-252.0,-101.0,0
2309,47.0,-254.0,-95.0,0
2310,48.0,-255.0,-96.0,0
2311,50.0,-259.0,-99.0,0
2312,47.0,-258.0,-98.0,0
2313,42.0,-257.0,-94.0,0
2314,41.0,-260.0,-87.0,0
2315,38.0,-258.0,-88.0,0
2316,37.0,-261.0,-83.0,0
2317,37.0,-262.0,-83.0,0
2318,36.0,-270.0,-79.0,0
2319,32.0,-266.0,-79.0,0
2320,28.0,-268.0,-74.0,0
2321,26.0,-266.0,-68.0,0
2322,26.0,-266.0,-65.0,0
2323,25.0,-262.0,-62.0,0
2324,18.0,-259.0,-69.0,0
2325,22.0,-259.0,-68.0,0
2326,20.0,-255.0,-74.0,0
2327,18.0,-253.0,-78.0,0
2328,22.0,-245.0,-83.0,0
2329,23.0,-243.0,-89.0,0
2330,28.0,-244.0,-90.0,0
2331,26.0,-242.0,-97.0,0
2332,31.0,-239.0,-100.0,0
2333,33.0,-242.0,-101.0,0
2334,35.0,-245.0,-108.0,0
2335,39.0,-247.0,-109.0,0
2336,36.0,-248.0,-109.0,0
2337,36.0,-253.0,-109.0,0
2338,33.0,-256.0,-110.0,0
2339,27.0,-253.0,-107.0,0
2340,27.0,-254.0,-102.0,0
2341,25.0,-252.0,-101.0,0
2342,26.0,-249.0,-96.0,0
2343,21.0,-246.0,-96.0,0
2344,14.0,-239.0,-89.0,0
2345,13.0,-236.0,-92.0,0
2346,7.0,-228.0,-91.0,0
2347,5.0,-226.0,-89.0,0
2348,2.0,-223.0,-87.0,0
2349,-2.0,-217.0,-91.0,0
2350,-5.0,-216.0,-91.0,0
2351,-7.0,-215.0,-93.0,0
2352,-10.0,-217.0,-95.0,0
2353,-12.0,-217.0,-98.0,0
2354,-16.0,-216.0,-100.0,0
2355,-18.0,-216.0,-103.0,0
2356,-20.0,-218.0,-107.0,0
2357,-23.0,-217.0,-109.0,0
2358,-29.0,-213.0,-105.0,0
2359,-30.0,-217.0,-104.0,0
2360,-38.0,-213.0,-104.0,0
2361,-41.0,-213.0,-106.0,0
2362,-39.0,-215.0,-103.0,0
2363,-42.0,-214.0,-105.0,0
2364,-46.0,-209.0,-106.0,0
2365,-41.0,-214.0,-100.0,0
2366,-49.0,-213.0,-109.0,0
2367,-40.0,-214.0,-100.0,0
2368,-33.0,-218.0,-94.0,0
2369,-27.0,-219.0,-89.0,0
2370,-21.0,-226.0,-85.0,0
2371,-22.0,-229.0,-82.0,0
2372,-14.0,-234.0,-83.0,0
2373,-12.0,-244.0,-78.0,0
2374,-12.0,-250.0,-78.0,0
2375,-5.0,-260.0,-82.0,0
2376,0.0,-265.0,-80.0,0
2377,7.0,-274.0,-87.0,0
2378,10.0,-278.0,-88.0,0
2379,17.0,-284.0,-93.0,0
2380,18.0,-288.0,-96.0,0
2381,20.0,-291.0,-101.0,0
2382,21.0,-294.0,-98.0,0
2383,21.0,-292.0,-93.0,0
2384,21.0,-291.0,-89.0,0
2385,19.0,-286.0,-87.0,0
2386,19.0,-281.0,-82.0,0
2387,18.0,-277.0,-83.0,0
2388,18.0,-274.0,-77.0,0
2389,11.0,-264.0,-71.0,0
2390,8.0,-257.0,-65.0,0
2391,6.0,-251.0,-63.0,0
2392,1.0,-244.0,-64.0,0
2393,1.0,-241.0,-57.0,0
2394,-3.0,-238.0,-57.0,0
2395,-5.0,-237.0,-55.0,0
2396,-7.0,-231.0,-56.0,0
2397,-8.0,-232.0,-56.0,0
2398,-10.0,-228.0,-58.0,0
2399,-13.0,-226.0,-54.0,0
2400,-15.0,-227.0,-57.0,0
2401,-18.0,-225.0,-59.0,0
2402,-21.0,-224.0,-58.0,0
2403,-22.0,-224.0,-63.0,0
2404,-19.0,-229.0,-62.0,0
2405,-23.0,-230.0,-64.0,0
2406,-24.0,-233.0,-65.0,0
2407,-27.0,-233.0,-61.0,0
2408,-24.0,-236.0,-58.0,0
2409,-26.0,-239.0,-60.0,0
2410,-25.0,-241.0,-59.0,0
2411,-24.0,-240.0,-60.0,0
2412,-23.0,-242.0,-57.0,0
2413,-18.0,-242.0,-62.0,0
2414,-15.0,-243.0,-67.0,0
2415,-17.0,-245.0,-62.0,0
2416,-15.0,-244.0,-65.0,0
2417,-16.0,-245.0,-66.0,0
2418,-14.0,-247.0,-69.0,0
2419,-14.0,-248.0,-67.0,0
2420,-12.0,-248.0,-70.0,0
2421,-14.0,-249.0,-67.0,0
2422,-16.0,-248.0,-68.0,0
2423,-12.0,-249.0,-67.0,0
2424,-12.0,-250.0,-66.0,0
2425,-13.0,-251.0,-63.0,0
2426,-12.0,-249.0,-65.0,0
2427,-13.0,-247.0,-64.0,0
2428,-13.0,-248.0,-64.0,0
2429,-12.0,-247.0,-61.0,0
2430,-13.0,-245.0,-63.0,0
2431,-14.0,-242.0,-60.0,0
2432,-15.0,-240.0,-61.0,0
2433,-12.0,-241.0,-59.0,0
2434,-12.0,-239.0,-58.0,0
2435,-12.0,-241.0,-55.0,0
2436,-12.0,-239.0,-55.0,0
2437,-12.0,-243.0,-56.0,0
2438,-12.0,-246.0,-56.0,0
2439,-12.0,-248.0,-53.0,0
2440,-12.0,-249.0,-54.0,0
2441,-10.0,-251.0,-53.0,0
2442,-8.0,-253.0,-50.0,0
2443,-5.0,-252.0,-51.0,0
2444,-5.0,-254.0,-53.0,0
2445,4.0,-255.0,-51.0,0
2446,4.0,-255.0,-51.0,0
2447,6.0,-254.0,-48.0,0
2448,5.0,-252.0,-46.0,0
2449,1.0,-255.0,-45.0,0
2450,-1.0,-257.0,-42.0,0
2451,-3.0,-260.0,-54.0,0
2452,-4.0,-261.0,-53.0,0
2453,-5.0,-264.0,-59.0,0
2454,-10.0,-266.0,-69.0,0
2455,-6.0,-272.0,-78.0,0
2456,-10.0,-275.0,-93.0,0
2457,-8.0,-279.0,-102.0,0
2458,-5.0,-285.0,-115.0,0
2459,-9.0,-282.0,-121.0,0
2460,-5.0,-292.0,-123.0,0
2461,-5.0,-285.0,-120.0,0
2462,-6.0,-283.0,-114.0,0
2463,-3.0,-276.0,-102.0,0
2464,-1.0,-266.0,-101.0,0
2465,0.0,-263.0,-90.0,0
2466,4.0,-252.0,-89.0,0
2467,3.0,-238.0,-78.0,0
2468,3.0,-230.0,-74.0,0
2469,8.0,-222.0,-72.0,0
2470,13.0,-215.0,-61.0,0
2471,15.0,-205.0,-60.0,0
2472,16.0,-204.0,-57.0,0
2473,17.0,-199.0,-58.0,0
2474,17.0,-196.0,-59.0,0
2475,14.0,-191.0,-61.0,0
2476,14.0,-192.0,-63.0,0
2477,10.0,-194.0,-64.0,0
2478,9.0,-195.0,-70.0,0
2479,3.0,-198.0,-71.0,0
2480,-2.0,-205.0,-77.0,0
2481,-8.0,-214.0,-75.0,0
2482,-11.0,-223.0,-82.0,0
2483,-12.0,-239.0,-84.0,0
2484,-13.0,-243.0,-85.0,0
2485,-16.0,-251.0,-91.0,0
2486,-18.0,-261.0,-94.0,0
2487,-18.0,-268.0,-96.0,0
2488,-18.0,-275.0,-99.0,0
2489,-19.0,-278.0,-96.0,0
2490,-12.0,-284.0,-96.0,0
2491,-11.0,-281.0,-86.0,0
2492,-9.0,-283.0,-85.0,0
2493,-6.0,-278.0,-84.0,0
2494,-1.0,-273.0,-86.0,0
2495,3.0,-268.0,-79.0,0
2496,11.0,-263.0,-80.0,0
2497,14.0,-257.0,-76.0,0
2498,22.0,-256.0,-82.0,0
2499,29.0,-251.0,-80.0,0
2500,32.0,-247.0,-81.0,0
2501,37.0,-242.0,-84.0,0
2502,42.0,-238.0,-84.0,0
2503,44.0,-234.0,-83.0,0
2504,45.0,-227.0,-83.0,0
2505,44.0,-227.0,-81.0,0
2506,42.0,-224.0,-78.0,0
2507,41.0,-221.0,-86.0,0
2508,39.0,-217.0,-81.0,0
2509,37.0,-217.0,-77.0,0
2510,34.0,-215.0,-78.0,0
2511,33.0,-218.0,-72.0,0
2512,29.0,-219.0,-70.0,0
2513,28.0,-224.0,-66.0,0
2514,28.0,-224.0,-68.0,0
2515,23.0,-228.0,-67.0,0
2516,21.0,-232.0,-68.0,0
2517,16.0,-240.0,-60.0,0
2518,10.0,-245.0,-61.0,0
2519,4.0,-253.0,-58.0,0
2520,-1.0,-260.0,-56.0,0
2521,-3.0,-267.0,-53.0,0
2522,-9.0,-269.0,-57.0,0
2523,-11.0,-278.0,-59.0,0
2524,-12.0,-280.0,-58.0,0
2525,-12.0,-286.0,-61.0,0
2526,-10.0,-286.0,-70.0,0
2527,-6.0,-288.0,-74.0,0
2528,-3.0,-288.0,-74.0,0
2529,-1.0,-288.0,-73.0,0
2530,3.0,-287.0,-70.0,0
2531,8.0,-281.0,-63.0,0
2532,13.0,-277.0,-66.0,0
2533,13.0,-275.0,-57.0,0
2534,17.0,-273.0,-56.0,0
2535,17.0,-266.0,-54.0,0
2536,21.0,-260.0,-54.0,0
2537,23.0,-252.0,-54.0,0
2538,25.0,-247.0,-53.0,0
2539,26.0,-238.0,-48.0,0
2540,28.0,-235.0,-47.0,0
2541,31.0,-230.0,-47.0,0
2542,28.0,-231.0,-51.0,0
2543,32.0,-223.0,-50.0,0
2544,28.0,-221.0,-48.0,0
2545,25.0,-218.0,-50.0,0
2546,20.0,-217.0,-52.0,0
2547,19.0,-219.0,-52.0,0
2548,15.0,-219.0,-49.0,0
2549,15.0,-221.0,-48.0,0
2550,9.0,-220.0,-43.0,0
2551,8.0,-225.0,-43.0,0
2552,6.0,-227.0,-43.0,0
2553,4.0,-228.0,-49.0,0
2554,3.0,-230.0,-43.0,0
2555,1.0,-233.0,-46.0,0
2556,4.0,-236.0,-43.0,0
2557,5.0,-236.0,-46.0,0
2558,7.0,-242.0,-45.0,0
2559,6.0,-239.0,-43.0,0
2560,7.0,-242.0,-36.0,0
2561,10.0,-245.0,-38.0,0
2562,15.0,-242.0,-41.0,0
2563,21.0,-246.0,-37.0,0
2564,16.0,-244.0,-33.0,0
2565,19.0,-243.0,-36.0,0
2566,21.0,-242.0,-36.0,0
2567,25.0,-241.0,-35.0,0
2568,24.0,-243.0,-31.0,0
2569,26.0,-240.0,-30.0,0
2570,28.0,-243.0,-29.0,0
2571,29.0,-242.0,-34.0,0
2572,26.0,-243.0,-37.0,0
2573,27.0,-241.0,-43.0,0
2574,30.0,-245.0,-45.0,0
2575,26.0,-236.0,-43.0,0
2576,29.0,-239.0,-46.0,0
2577,26.0,-236.0,-41.0,0
2578,23.0,-234.0,-37.0,0
2579,24.0,-234.0,-33.0,0
2580,22.0,-226.0,-31.0,0
2581,26.0,-225.0,-29.0,0
2582,26.0,-227.0,-25.0,0
2583,22.0,-220.0,-29.0,0
2584,22.0,-219.0,-25.0,0
2585,17.0,-214.0,-29.0,0
2586,15.0,-215.0,-30.0,0
2587,9.0,-215.0,-32.0,0
2588,4.0,-217.0,-31.0,0
2589,-2.0,-218.0,-32.0,0
2590,-5.0,-227.0,-25.0,0
2591,-9.0,-229.0,-22.0,0
2592,-12.0,-233.0,-22.0,0
2593,-13.0,-236.0,-17.0,0
2594,-21.0,-237.0,-21.0,0
2595,-14.0,-235.0,-13.0,0
2596,-16.0,-234.0,-19.0,0
2597,-16.0,-234.0,-18.0,0
2598,-13.0,-232.0,-26.0,0
2599,-12.0,-229.0,-29.0,0
2600,-9.0,-231.0,-32.0,0
2601,-4.0,-231.0,-38.0,0
2602,-1.0,-231.0,-45.0,0
2603,-2.0,-227.0,-43.0,0
2604,4.0,-232.0,-46.0,0
2605,0.0,-231.0,-40.0,0
2606,5.0,-232.0,-36.0,0
2607,5.0,-232.0,-31.0,0
2608,7.0,-234.0,-28.0,0
2609,6.0,-231.0,-26.0,0
2610,7.0,-232.0,-31.0,0
2611,10.0,-233.0,-32.0,0
2612,9.0,-228.0,-32.0,0
2613,11.0,-228.0,-34.0,0
2614,9.0,-230.0,-32.0,0
2615,8.0,-227.0,-36.0,0
2616,9.0,-226.0,-38.0,0
2617,5.0,-223.0,-41.0,0
2618,8.0,-218.0,-34.0,0
2619,9.0,-218.0,-36.0,0
2620,6.0,-213.0,-34.0,0
2621,9.0,-212.0,-34.0,0
2622,6.0,-207.0,-32.0,0
2623,12.0,-206.0,-37.0,0
2624,10.0,-205.0,-36.0,0
2625,8.0,-204.0,-40.0,0
2626,9.0,-208.0,-38.0,0
2627,7.0,-207.0,-36.0,0
2628,10.0,-213.0,-35.0,0
2629,9.0,-215.0,-42.0,0
2630,8.0,-222.0,-39.0,0
2631,10.0,-227.0,-34.0,0
2632,14.0,-230.0,-32.0,0
2633,16.0,-231.0,-33.0,0
2634,19.0,-232.0,-27.0,0
2635,21.0,-236.0,-26.0,0
2636,24.0,-235.0,-27.0,0
2637,27.0,-235.0,-26.0,0
2638,26.0,-234.0,-31.0,0
2639,30.0,-232.0,-26.0,0
2640,29.0,-234.0,-30.0,0
2641,28.0,-227.0,-40.0,0
2642,29.0,-228.0,-34.0,0
2643,29.0,-229.0,-36.0,0
2644,28.0,-232.0,-36.0,0
2645,27.0,-234.0,-40.0,0
2646,26.0,-236.0,-38.0,0
2647,25.0,-237.0,-35.0,0
2648,27.0,-236.0,-37.0,0
2649,30.0,-238.0,-39.0,0
2650,38.0,-239.0,-38.0,0
2651,41.0,-241.0,-46.0,0
2652,42.0,-236.0,-50.0,0
2653,44.0,-236.0,-57.0,0
2654,35.0,-236.0,-62.0,0
2655,27.0,-229.0,-67.0,0
2656,24.0,-233.0,-72.0,0
2657,24.0,-228.0,-81.0,0
2658,23.0,-229.0,-96.0,0
2659,25.0,-227.0,-112.0,0
2660,20.0,-226.0,-129.0,0
2661,21.0,-227.0,-139.0,0
2662,16.0,-232.0,-149.0,0
2663,10.0,-235.0,-150.0,0
2664,6.0,-239.0,-139.0,0
2665,-1.0,-245.0,-119.0,0
2666,-9.0,-249.0,-96.0,0
2667,-13.0,-250.0,-79.0,0
2668,-21.0,-251.0,-59.0,0
2669,-22.0,-255.0,-56.0,0
2670,-18.0,-256.0,-54.0,0
2671,-28.0,-260.0,-56.0,0
2672,-26.0,-268.0,-61.0,0
2673,-23.0,-282.0,-72.0,0
2674,-20.0,-300.0,-86.0,0
2675,-14.0,-315.0,-116.0,0
2676,-6.0,-333.0,-148.0,0
2677,-3.0,-349.0,-169.0,0
2678,-4.0,-376.0,-180.0,0
2679,-5.0,-407.0,-182.0,0
2680,-11.0,-445.0,-174.0,0
2681,-20.0,-479.0,-149.0,0
2682,-40.0,-501.0,-127.0,0
2683,-65.0,-508.0,-95.0,0
2684,-85.0,-499.0,-67.0,0
2685,-97.0,-485.0,-54.0,0
2686,-108.0,-463.0,-36.0,0
2687,-111.0,-442.0,-25.0,0
2688,-104.0,-422.0,-22.0,0
2689,-94.0,-399.0,-30.0,0
2690,-82.0,-380.0,-42.0,0
2691,-65.0,-361.0,-64.0,0
2692,-57.0,-345.0,-77.0,0
2693,-56.0,-330.0,-95.0,0
2694,-56.0,-312.0,-110.0,0
2695,-55.0,-294.0,-116.0,0
2696,-57.0,-274.0,-119.0,0
2697,-54.0,-258.0,-115.0,0
2698,-44.0,-245.0,-108.0,0
2699,-38.0,-238.0,-95.0,0
2700,-29.0,-233.0,-81.0,0
2701,-23.0,-234.0,-67.0,0
2702,-15.0,-228.0,-56.0,0
2703,-6.0,-231.0,-44.0,0
2704,3.0,-230.0,-44.0,0
2705,14.0,-226.0,-38.0,0
2706,23.0,-222.0,-47.0,0
2707,30.0,-220.0,-56.0,0
2708,33.0,-215.0,-59.0,0
2709,33.0,-208.0,-61.0,0
2710,33.0,-207.0,-67.0,0
2711,27.0,-202.0,-62.0,0
2712,23.0,-197.0,-66.0,0
2713,16.0,-195.0,-59.0,0
2714,6.0,-191.0,-56.0,0
2715,-4.0,-188.0,-53.0,0
2716,-10.0,-189.0,-47.0,0
2717,-13.0,-186.0,-50.0,0
2718,-22.0,-188.0,-43.0,0
2719,-26.0,-186.0,-45.0,0
2720,-32.0,-187.0,-37.0,0
2721,-38.0,-188.0,-36.0,0
2722,-41.0,-190.0,-36.0,0
2723,-45.0,-191.0,-35.0,0
2724,-49.0,-192.0,-36.0,0
2725,-52.0,-195.0,-41.0,0
2726,-52.0,-200.0,-43.0,0
2727,-52.0,-205.0,-48.0,0
2728,-51.0,-209.0,-45.0,0
2729,-48.0,-215.0,-54.0,0
2730,-44.0,-220.0,-57.0,0
2731,-37.0,-228.0,-55.0,0
2732,-29.0,-236.0,-54.0,0
2733,-25.0,-240.0,-58.0,0
2734,-18.0,-243.0,-57.0,0
2735,-12.0,-249.0,-59.0,0
2736,-13.0,-252.0,-50.0,0
2737,-12.0,-255.0,-45.0,0
2738,-11.0,-254.0,-47.0,0
2739,-11.0,-257.0,-43.0,0
2740,-11.0,-258.0,-42.0,0
2741,-9.0,-259.0,-41.0,0
2742,-11.0,-259.0,-41.0,0
2743,-11.0,-259.0,-42.0,0
2744,-12.0,-259.0,-36.0,0
2745,-15.0,-259.0,-32.0,0
2746,-17.0,-260.0,-33.0,0
2747,-14.0,-258.0,-33.0,0
2748,-12.0,-256.0,-37.0,0
2749,-12.0,-254.0,-46.0,0
2750,-13.0,-251.0,-52.0,0
2751,-8.0,-250.0,-60.0,0
2752,-1.0,-248.0,-62.0,0
2753,2.0,-240.0,-62.0,0
2754,9.0,-241.0,-59.0,0
2755,7.0,-236.0,-58.0,0
2756,8.0,-236.0,-52.0,0
2757,11.0,-233.0,-52.0,0
2758,13.0,-231.0,-45.0,0
2759,15.0,-230.0,-44.0,0
2760,13.0,-225.0,-46.0,0
2761,16.0,-227.0,-45.0,0
2762,16.0,-226.0,-43.0,0
2763,14.0,-224.0,-43.0,0
2764,12.0,-220.0,-45.0,0
2765,14.0,-222.0,-46.0,0
2766,17.0,-218.0,-46.0,0
2767,12.0,-216.0,-40.0,0
2768,12.0,-216.0,-38.0,0
2769,12.0,-218.0,-30.0,0
2770,12.0,-218.0,-22.0,0
2771,8.0,-221.0,-20.0,0
2772,3.0,-222.0,-22.0,0
2773,-3.0,-221.0,-22.0,0
2774,-8.0,-221.0,-23.0,0
2775,-12.0,-217.0,-28.0,0
2776,-15.0,-217.0,-35.0,0
2777,-16.0,-214.0,-36.0,0
2778,-18.0,-214.0,-38.0,0
2779,-21.0,-213.0,-39.0,0
2780,-20.0,-209.0,-48.0,0
2781,-18.0,-209.0,-43.0,0
2782,-13.0,-212.0,-46.0,0
2783,-12.0,-213.0,-51.0,0
2784,-9.0,-211.0,-48.0,0
2785,-8.0,-216.0,-54.0,0
2786,-2.0,-220.0,-50.0,0
2787,3.0,-223.0,-49.0,0
2788,3.0,-230.0,-46.0,0
2789,6.0,-233.0,-45.0,0
2790,5.0,-236.0,-35.0,0
2791,5.0,-241.0,-37.0,0
2792,4.0,-243.0,-31.0,0
2793,3.0,-246.0,-28.0,0
2794,3.0,-249.0,-29.0,0
2795,-4.0,-244.0,-32.0,0
2796,-4.0,-243.0,-32.0,0
2797,-9.0,-246.0,-38.0,0
2798,-12.0,-243.0,-37.0,0
2799,-12.0,-241.0,-40.0,0
2800,-13.0,-244.0,-39.0,0
2801,-22.0,-237.0,-44.0,0
2802,-27.0,-237.0,-46.0,0
2803,-29.0,-234.0,-48.0,0
2804,-33.0,-228.0,-56.0,0
2805,-31.0,-225.0,-57.0,0
2806,-30.0,-221.0,-61.0,0
2807,-27.0,-220.0,-65.0,0
2808,-27.0,-214.0,-68.0,0
2809,-22.0,-211.0,-67.0,0
2810,-20.0,-208.0,-70.0,0
2811,-18.0,-207.0,-64.0,0
2812,-13.0,-201.0,-64.0,0
2813,-12.0,-202.0,-58.0,0
2814,-12.0,-199.0,-60.0,0
2815,-11.0,-196.0,-58.0,0
2816,-8.0,-194.0,-57.0,0
2817,-11.0,-187.0,-56.0,0
2818,-10.0,-184.0,-55.0,0
2819,-12.0,-177.0,-56.0,0
2820,-13.0,-173.0,-57.0,0
2821,-19.0,-167.0,-51.0,0
2822,-22.0,-164.0,-45.0,0
2823,-25.0,-160.0,-48.0,0
2824,-30.0,-159.0,-47.0,0
2825,-33.0,-158.0,-50.0,0
2826,-30.0,-155.0,-61.0,0
2827,-22.0,-161.0,-73.0,0
2828,-13.0,-169.0,-89.0,0
2829,-10.0,-179.0,-106.0,0
2830,-3.0,-188.0,-118.0,0
2831,4.0,-201.0,-131.0,0
2832,18.0,-221.0,-144.0,0
2833,27.0,-237.0,-150.0,0
2834,33.0,-252.0,-151.0,0
2835,31.0,-269.0,-143.0,0
2836,35.0,-288.0,-118.0,0
2837,68.0,-303.0,-95.0,0
2838,105.0,-319.0,-87.0,0
2839,163.0,-328.0,-131.0,0
2840,206.0,-319.0,-234.0,0
2841,204.0,-317.0,-327.0,0
2842,167.0,-370.0,-360.0,0
2843,116.0,-469.0,-345.0,0
2844,78.0,-574.0,-285.0,0
2845,75.0,-655.0,-186.0,0
2846,86.0,-689.0,-112.0,0
2847,104.0,-688.0,-44.0,0
2848,107.0,-637.0,-6.0,0
2849,100.0,-560.0,8.0,0
2850,80.0,-495.0,9.0,0
2851,49.0,-454.0,7.0,0
2852,19.0,-427.0,-3.0,0
2853,2.0,-409.0,-28.0,0
2854,-12.0,-387.0,-50.0,0
2855,-15.0,-358.0,-69.0,0
2856,-12.0,-324.0,-102.0,0
2857,-6.0,-287.0,-123.0,0
2858,-4.0,-253.0,-133.0,0
2859,0.0,-227.0,-133.0,0
2860,3.0,-216.0,-123.0,0
2861,-1.0,-213.0,-103.0,0
2862,1.0,-215.0,-82.0,0
2863,4.0,-222.0,-55.0,0
2864,6.0,-227.0,-34.0,0
2865,12.0,-232.0,-25.0,0
2866,14.0,-236.0,-26.0,0
2867,12.0,-235.0,-25.0,0
2868,12.0,-234.0,-30.0,0
2869,11.0,-234.0,-30.0,0
2870,11.0,-226.0,-30.0,0
2871,7.0,-222.0,-35.0,0
2872,1.0,-217.0,-34.0,0
2873,-3.0,-214.0,-38.0,0
2874,-6.0,-206.0,-44.0,0
2875,-10.0,-204.0,-45.0,0
2876,-11.0,-200.0,-41.0,0
2877,-11.0,-202.0,-44.0,0
2878,-8.0,-201.0,-42.0,0
2879,-3.0,-200.0,-39.0,0
2880,3.0,-201.0,-34.0,0
2881,11.0,-197.0,-37.0,0
2882,19.0,-198.0,-38.0,0
2883,27.0,-199.0,-38.0,0
2884,33.0,-198.0,-33.0,0
2885,42.0,-198.0,-33.0,0
2886,46.0,-201.0,-31.0,0
2887,51.0,-202.0,-36.0,0
2888,53.0,-201.0,-41.0,0
2889,53.0,-203.0,-42.0,0
2890,49.0,-201.0,-45.0,0
2891,47.0,-200.0,-43.0,0
2892,44.0,-203.0,-50.0,0
2893,40.0,-204.0,-54.0,0
2894,34.0,-207.0,-52.0,0
2895,29.0,-211.0,-55.0,0
2896,19.0,-209.0,-54.0,0
2897,12.0,-218.0,-56.0,0
2898,3.0,-219.0,-53.0,0
2899,-2.0,-228.0,-51.0,0
2900,-7.0,-231.0,-49.0,0
2901,-11.0,-235.0,-43.0,0
2902,-11.0,-235.0,-36.0,0
2903,-12.0,-239.0,-33.0,0
2904,-12.0,-238.0,-23.0,0
2905,-12.0,-237.0,-14.0,0
2906,-12.0,-238.0,-11.0,0
2907,-3.0,-239.0,-9.0,0
2908,2.0,-236.0,-13.0,0
2909,5.0,-231.0,-20.0,0
2910,4.0,-222.0,-23.0,0
2911,5.0,-215.0,-27.0,0
2912,9.0,-213.0,-26.0,0
2913,7.0,-207.0,-34.0,0
2914,7.0,-204.0,-37.0,0
2915,9.0,-206.0,-35.0,0
2916,3.0,-206.0,-35.0,0
2917,3.0,-205.0,-39.0,0
2918,3.0,-207.0,-40.0,0
2919,1.0,-213.0,-40.0,0
2920,0.0,-215.0,-37.0,0
2921,2.0,-217.0,-37.0,0
2922,2.0,-221.0,-34.0,0
2923,1.0,-221.0,-34.0,0
2924,5.0,-222.0,-34.0,0
2925,6.0,-226.0,-32.0,0
2926,7.0,-226.0,-32.0,0
2927,7.0,-224.0,-33.0,0
2928,6.0,-224.0,-36.0,0
2929,9.0,-222.0,-39.0,0
2930,2.0,-215.0,-46.0,0
2931,-1.0,-212.0,-47.0,0
2932,-1.0,-214.0,-46.0,0
2933,1.0,-213.0,-48.0,0
2934,0.0,-212.0,-49.0,0
2935,4.0,-214.0,-49.0,0
2936,7.0,-215.0,-45.0,0
2937,12.0,-211.0,-46.0,0
2938,16.0,-208.0,-40.0,0
2939,21.0,-208.0,-41.0,0
2940,25.0,-202.0,-39.0,0
2941,27.0,-198.0,-41.0,0
2942,33.0,-197.0,-39.0,0
2943,41.0,-195.0,-41.0,0
2944,43.0,-188.0,-39.0,0
2945,44.0,-188.0,-47.0,0
2946,52.0,-191.0,-46.0,0
2947,50.0,-195.0,-42.0,0
2948,52.0,-199.0,-45.0,0
2949,53.0,-205.0,-43.0,0
2950,53.0,-208.0,-39.0,0
2951,53.0,-216.0,-39.0,0
2952,49.0,-223.0,-38.0,0
2953,48.0,-226.0,-36.0,0
2954,47.0,-230.0,-32.0,0
2955,40.0,-231.0,-40.0,0
2956,39.0,-232.0,-44.0,0
2957,29.0,-230.0,-47.0,0
2958,25.0,-227.0,-48.0,0
2959,20.0,-221.0,-54.0,0
2960,14.0,-223.0,-58.0,0
2961,9.0,-223.0,-64.0,0
2962,7.0,-223.0,-85.0,0
2963,6.0,-218.0,-114.0,0
2964,7.0,-219.0,-138.0,0
2965,6.0,-223.0,-171.0,0
2966,3.0,-230.0,-186.0,0
2967,-1.0,-243.0,-197.0,0
2968,-10.0,-256.0,-201.0,0
2969,-16.0,-266.0,-182.0,0
2970,-20.0,-273.0,-158.0,0
2971,-24.0,-279.0,-129.0,0
2972,-31.0,-280.0,-110.0,0
2973,-35.0,-282.0,-94.0,0
2974,-39.0,-282.0,-81.0,0
2975,-49.0,-295.0,-61.0,0
2976,-61.0,-312.0,-55.0,0
2977,-62.0,-329.0,-57.0,0
2978,-50.0,-348.0,-98.0,0
2979,-38.0,-354.0,-166.0,0
2980,-11.0,-355.0,-226.0,0
2981,14.0,-357.0,-251.0,0
2982,33.0,-369.0,-256.0,0
2983,52.0,-396.0,-221.0,0
2984,39.0,-426.0,-164.0,0
2985,4.0,-456.0,-100.0,0
2986,-25.0,-476.0,-51.0,0
2987,-52.0,-477.0,-20.0,0
2988,-69.0,-456.0,1.0,0
2989,-71.0,-438.0,-8.0,0
2990,-67.0,-418.0,-22.0,0
2991,-54.0,-395.0,-33.0,0
2992,-45.0,-383.0,-50.0,0
2993,-33.0,-369.0,-54.0,0
2994,-27.0,-358.0,-76.0,0
2995,-20.0,-356.0,-39.0,0
2996,-25.0,-343.0,-58.0,0
2997,-37.0,-331.0,-63.0,0
2998,-41.0,-319.0,-64.0,0
2999,-45.0,-299.0,-68.0,0
3000,-46.0,-276.0,-69.0,0
3001,-47.0,-262.0,-72.0,0
3002,-47.0,-250.0,-69.0,0
3003,-51.0,-245.0,-64.0,0
3004,-50.0,-249.0,-53.0,0
3005,-45.0,-251.0,-54.0,0
3006,-45.0,-256.0,-52.0,0
3007,-40.0,-259.0,-46.0,0
3008,-32.0,-258.0,-47.0,0
3009,-24.0,-256.0,-48.0,0
3010,-12.0,-257.0,-46.0,0
3011,-10.0,-254.0,-46.0,0
3012,-1.0,-250.0,-49.0,0
3013,9.0,-246.0,-50.0,0
3014,13.0,-242.0,-49.0,0
3015,20.0,-242.0,-52.0,0
3016,19.0,-234.0,-53.0,0
3017,16.0,-232.0,-50.0,0
3018,11.0,-224.0,-48.0,0
3019,6.0,-220.0,-42.0,0
3020,-6.0,-212.0,-43.0,0
3021,-8.0,-206.0,-40.0,0
3022,-9.0,-204.0,-36.0,0
3023,-12.0,-197.0,-36.0,0
3024,-16.0,-195.0,-42.0,0
3025,-21.0,-190.0,-36.0,0
3026,-28.0,-191.0,-36.0,0
3027,-31.0,-188.0,-32.0,0
3028,-31.0,-191.0,-35.0,0
3029,-34.0,-196.0,-37.0,0
3030,-30.0,-199.0,-37.0,0
3031,-28.0,-203.0,-40.0,0
3032,-24.0,-210.0,-38.0,0
3033,-20.0,-213.0,-43.0,0
3034,-19.0,-218.0,-46.0,0
3035,-13.0,-223.0,-45.0,0
3036,-11.0,-228.0,-43.0,0
3037,-9.0,-230.0,-42.0,0
3038,-4.0,-232.0,-43.0,0
3039,-4.0,-230.0,-40.0,0
3040,-2.0,-232.0,-44.0,0
3041,2.0,-229.0,-39.0,0
3042,3.0,-226.0,-36.0,0
3043,1.0,-221.0,-36.0,0
3044,3.0,-221.0,-32.0,0
3045,2.0,-217.0,-29.0,0
3046,4.0,-216.0,-29.0,0
3047,5.0,-214.0,-22.0,0
3048,2.0,-213.0,-20.0,0
3049,4.0,-212.0,-13.0,0
3050,4.0,-209.0,-14.0,0
3051,6.0,-209.0,-12.0,0
3052,7.0,-213.0,-17.0,0
3053,6.0,-216.0,-18.0,0
3054,4.0,-217.0,-25.0,0
3055,4.0,-221.0,-25.0,0
3056,7.0,-226.0,-26.0,0
3057,9.0,-234.0,-25.0,0
3058,7.0,-240.0,-29.0,0
3059,4.0,-243.0,-29.0,0
3060,5.0,-246.0,-27.0,0
3061,7.0,-246.0,-31.0,0
3062,7.0,-247.0,-25.0,0
3063,9.0,-244.0,-33.0,0
3064,6.0,-238.0,-31.0,0
3065,5.0,-233.0,-37.0,0
3066,2.0,-224.0,-34.0,0
3067,1.0,-217.0,-40.0,0
3068,-1.0,-212.0,-38.0,0
3069,-6.0,-202.0,-39.0,0
3070,-8.0,-201.0,-35.0,0
3071,-10.0,-197.0,-38.0,0
3072,-10.0,-191.0,-37.0,0
3073,-5.0,-193.0,-34.0,0
3074,-7.0,-192.0,-34.0,0
3075,-4.0,-194.0,-34.0,0
3076,-4.0,-193.0,-28.0,0
3077,-2.0,-194.0,-21.0,0
3078,-6.0,-197.0,-15.0,0
3079,-4.0,-200.0,-7.0,0
3080,-5.0,-200.0,-6.0,0
3081,-8.0,-199.0,3.0,0
3082,-10.0,-201.0,5.0,0
3083,-10.0,-204.0,5.0,0
3084,-11.0,-202.0,0.0,0
3085,-13.0,-202.0,-4.0,0
3086,-14.0,-198.0,-14.0,0
3087,-20.0,-199.0,-13.0,0
3088,-18.0,-195.0,-20.0,0
3089,-18.0,-195.0,-31.0,0
3090,-21.0,-194.0,-33.0,0
3091,-19.0,-194.0,-41.0,0
3092,-14.0,-194.0,-48.0,0
3093,-14.0,-190.0,-58.0,0
3094,-10.0,-192.0,-65.0,0
3095,-9.0,-188.0,-68.0,0
3096,-7.0,-189.0,-75.0,0
3097,-4.0,-188.0,-76.0,0
3098,-3.0,-185.0,-80.0,0
3099,2.0,-188.0,-85.0,0
3100,5.0,-188.0,-82.0,0
3101,5.0,-189.0,-81.0,0
3102,1.0,-189.0,-79.0,0
3103,-3.0,-187.0,-80.0,0
3104,-6.0,-189.0,-81.0,0
3105,-8.0,-188.0,-79.0,0
3106,-1.0,-192.0,-88.0,0
3107,7.0,-198.0,-87.0,0
3108,19.0,-211.0,-92.0,0
3109,26.0,-225.0,-96.0,0
3110,36.0,-241.0,-98.0,0
3111,41.0,-255.0,-99.0,0
3112,46.0,-281.0,-98.0,0
3113,51.0,-302.0,-100.0,0
3114,52.0,-315.0,-98.0,0
3115,38.0,-325.0,-95.0,0
3116,28.0,-337.0,-78.0,0
3117,43.0,-359.0,-55.0,0
3118,74.0,-375.0,-64.0,0
3119,97.0,-379.0,-119.0,0
3120,102.0,-377.0,-235.0,0
3121,80.0,-381.0,-329.0,0
3122,46.0,-426.0,-348.0,0
3123,-1.0,-496.0,-290.0,0
3124,-19.0,-558.0,-163.0,0
3125,-11.0,-606.0,-47.0,0
3126,13.0,-624.0,24.0,0
3127,34.0,-611.0,44.0,0
3128,62.0,-576.0,37.0,0
3129,80.0,-526.0,8.0,0
3130,76.0,-475.0,-24.0,0
3131,61.0,-430.0,-47.0,0
3132,39.0,-390.0,-61.0,0
3133,27.0,-349.0,-68.0,0
3134,19.0,-311.0,-76.0,0
3135,22.0,-282.0,-85.0,0
3136,25.0,-247.0,-97.0,0
3137,33.0,-218.0,-112.0,0
3138,43.0,-204.0,-114.0,0
3139,42.0,-203.0,-98.0,0
3140,37.0,-213.0,-79.0,0
3141,30.0,-215.0,-58.0,0
3142,26.0,-221.0,-36.0,0
3143,22.0,-223.0,-28.0,0
3144,20.0,-235.0,-16.0,0
3145,21.0,-244.0,-17.0,0
3146,20.0,-255.0,-16.0,0
3147,15.0,-261.0,-13.0,0
3148,14.0,-271.0,-21.0,0
3149,9.0,-273.0,-27.0,0
3150,5.0,-275.0,-35.0,0
3151,-2.0,-274.0,-42.0,0
3152,-7.0,-279.0,-49.0,0
3153,-6.0,-278.0,-52.0,0
3154,-6.0,-278.0,-56.0,0
3155,-4.0,-283.0,-56.0,0
3156,-2.0,-283.0,-46.0,0
3157,2.0,-278.0,-53.0,0
3158,5.0,-272.0,-48.0,0
3159,10.0,-270.0,-48.0,0
3160,15.0,-262.0,-48.0,0
3161,21.0,-257.0,-49.0,0
3162,24.0,-247.0,-44.0,0
3163,25.0,-239.0,-45.0,0
3164,26.0,-233.0,-40.0,0
3165,25.0,-222.0,-42.0,0
3166,23.0,-217.0,-39.0,0
3167,22.0,-211.0,-38.0,0
3168,18.0,-208.0,-38.0,0
3169,16.0,-206.0,-40.0,0
3170,11.0,-199.0,-36.0,0
3171,5.0,-195.0,-37.0,0
3172,0.0,-190.0,-37.0,0
3173,-3.0,-187.0,-39.0,0
3174,-5.0,-182.0,-44.0,0
3175,-9.0,-177.0,-45.0,0
3176,-11.0,-175.0,-46.0,0
3177,-12.0,-173.0,-45.0,0
3178,-14.0,-170.0,-50.0,0
3179,-18.0,-168.0,-46.0,0
3180,-20.0,-171.0,-47.0,0
3181,-18.0,-173.0,-44.0,0
3182,-19.0,-174.0,-40.0,0
3183,-16.0,-174.0,-34.0,0
3184,-14.0,-178.0,-31.0,0
3185,-12.0,-177.0,-28.0,0
3186,-7.0,-173.0,-25.0,0
3187,-5.0,-174.0,-25.0,0
3188,1.0,-171.0,-27.0,0
3189,2.0,-168.0,-23.0,0
3190,6.0,-167.0,-30.0,0
3191,6.0,-171.0,-28.0,0
3192,5.0,-168.0,-33.0,0
3193,8.0,-171.0,-37.0,0
3194,9.0,-174.0,-41.0,0
3195,8.0,-176.0,-41.0,0
3196,10.0,-180.0,-46.0,0
3197,9.0,-184.0,-48.0,0
3198,8.0,-191.0,-54.0,0
3199,12.0,-196.0,-56.0,0
3200,12.0,-204.0,-55.0,0
3201,13.0,-213.0,-55.0,0
3202,16.0,-222.0,-53.0,0
3203,17.0,-229.0,-49.0,0
3204,23.0,-242.0,-46.0,0
3205,22.0,-246.0,-45.0,0
3206,32.0,-255.0,-42.0,0
3207,31.0,-250.0,-41.0,0
3208,31.0,-246.0,-37.0,0
3209,33.0,-239.0,-41.0,0
3210,33.0,-235.0,-37.0,0
3211,21.0,-227.0,-52.0,0
3212,32.0,-221.0,-38.0,0
3213,31.0,-212.0,-33.0,0
3214,29.0,-210.0,-32.0,0
3215,30.0,-205.0,-32.0,0
3216,33.0,-206.0,-31.0,0
3217,36.0,-203.0,-35.0,0
3218,38.0,-205.0,-39.0,0
3219,43.0,-209.0,-51.0,0
3220,47.0,-211.0,-55.0,0
3221,50.0,-216.0,-61.0,0
3222,47.0,-218.0,-67.0,0
3223,48.0,-226.0,-66.0,0
3224,48.0,-229.0,-72.0,0
3225,46.0,-235.0,-69.0,0
3226,45.0,-244.0,-72.0,0
3227,46.0,-246.0,-65.0,0
3228,40.0,-249.0,-64.0,0
3229,39.0,-251.0,-62.0,0
3230,35.0,-248.0,-62.0,0
3231,36.0,-246.0,-69.0,0
3232,34.0,-241.0,-72.0,0
3233,22.0,-234.0,-78.0,0
3234,11.0,-226.0,-81.0,0
3235,5.0,-217.0,-83.0,0
3236,-5.0,-211.0,-88.0,0
3237,-12.0,-209.0,-96.0,0
3238,-22.0,-197.0,-108.0,0
3239,-29.0,-189.0,-124.0,0
3240,-33.0,-192.0,-133.0,0
3241,-38.0,-189.0,-142.0,0
3242,-42.0,-188.0,-152.0,0
3243,-38.0,-194.0,-152.0,0
3244,-35.0,-195.0,-138.0,0
3245,-30.0,-201.0,-120.0,0
3246,-27.0,-209.0,-104.0,0
3247,-33.0,-219.0,-80.0,0
3248,-45.0,-231.0,-49.0,0
3249,-72.0,-257.0,-17.0,0
3250,-85.0,-298.0,26.0,0
3251,-81.0,-343.0,33.0,0
3252,-57.0,-368.0,-56.0,0
3253,-11.0,-365.0,-198.0,0
3254,46.0,-362.0,-306.0,0
3255,107.0,-371.0,-367.0,0
3256,149.0,-397.0,-376.0,0
3257,166.0,-448.0,-335.0,0
3258,127.0,-503.0,-258.0,0
3259,70.0,-555.0,-182.0,0
3260,18.0,-590.0,-112.0,0
3261,-28.0,-602.0,-51.0,0
3262,-59.0,-590.0,-29.0,0
3263,-67.0,-566.0,-24.0,0
3264,-56.0,-548.0,-34.0,0
3265,-37.0,-519.0,-40.0,0
3266,-25.0,-476.0,-43.0,0
3267,-26.0,-434.0,-44.0,0
3268,-32.0,-387.0,-47.0,0
3269,-47.0,-332.0,-50.0,0
3270,-62.0,-285.0,-49.0,0
3271,-74.0,-239.0,-61.0,0
3272,-79.0,-212.0,-63.0,0
3273,-86.0,-188.0,-57.0,0
3274,-90.0,-168.0,-54.0,0
3275,-86.0,-155.0,-57.0,0
3276,-79.0,-150.0,-68.0,0
3277,-73.0,-149.0,-77.0,0
3278,-62.0,-162.0,-81.0,0
3279,-52.0,-177.0,-82.0,0
3280,-44.0,-198.0,-77.0,0
3281,-32.0,-211.0,-65.0,0
3282,-19.0,-229.0,-63.0,0
3283,-9.0,-244.0,-57.0,0
3284,4.0,-252.0,-55.0,0
3285,15.0,-258.0,-55.0,0
3286,24.0,-260.0,-53.0,0
3287,26.0,-262.0,-45.0,0
3288,29.0,-261.0,-43.0,0
3289,32.0,-261.0,-38.0,0
3290,26.0,-260.0,-38.0,0
3291,20.0,-255.0,-36.0,0
3292,14.0,-248.0,-32.0,0
3293,5.0,-243.0,-37.0,0
3294,-4.0,-233.0,-50.0,0
3295,-12.0,-225.0,-52.0,0
3296,-19.0,-219.0,-54.0,0
3297,-28.0,-217.0,-49.0,0
3298,-39.0,-213.0,-52.0,0
3299,-42.0,-212.0,-53.0,0
3300,-41.0,-211.0,-55.0,0
3301,-41.0,-216.0,-56.0,0
3302,-39.0,-217.0,-56.0,0
3303,-37.0,-223.0,-59.0,0
3304,-32.0,-226.0,-55.0,0
3305,-31.0,-227.0,-56.0,0
3306,-27.0,-231.0,-48.0,0
3307,-17.0,-234.0,-50.0,0
3308,-12.0,-235.0,-47.0,0
3309,-9.0,-233.0,-51.0,0
3310,-5.0,-231.0,-46.0,0
3311,-7.0,-229.0,-48.0,0
3312,-4.0,-229.0,-50.0,0
3313,-3.0,-225.0,-51.0,0
3314,-6.0,-223.0,-49.0,0
3315,-4.0,-218.0,-46.0,0
3316,-6.0,-215.0,-46.0,0
3317,-10.0,-210.0,-44.0,0
3318,-10.0,-209.0,-46.0,0
3319,-11.0,-208.0,-39.0,0
3320,-12.0,-208.0,-41.0,0
3321,-12.0,-209.0,-41.0,0
3322,-10.0,-213.0,-39.0,0
3323,-12.0,-214.0,-44.0,0
3324,-12.0,-217.0,-45.0,0
3325,-9.0,-222.0,-48.0,0
3326,-4.0,-229.0,-56.0,0
3327,-1.0,-231.0,-60.0,0
3328,5.0,-234.0,-58.0,0
3329,5.0,-236.0,-60.0,0
3330,5.0,-237.0,-57.0,0
3331,11.0,-234.0,-56.0,0
3332,10.0,-234.0,-53.0,0
3333,14.0,-233.0,-46.0,0
3334,12.0,-230.0,-49.0,0
3335,14.0,-224.0,-47.0,0
3336,14.0,-219.0,-47.0,0
3337,18.0,-213.0,-46.0,0
3338,20.0,-207.0,-49.0,0
3339,24.0,-203.0,-44.0,0
3340,23.0,-197.0,-45.0,0
3341,19.0,-195.0,-44.0,0
3342,21.0,-193.0,-39.0,0
3343,22.0,-195.0,-38.0,0
3344,27.0,-199.0,-36.0,0
3345,23.0,-199.0,-37.0,0
3346,25.0,-206.0,-35.0,0
3347,24.0,-210.0,-32.0,0
3348,25.0,-222.0,-27.0,0
3349,19.0,-228.0,-22.0,0
3350,16.0,-232.0,-21.0,0
3351,11.0,-239.0,-18.0,0
3352,12.0,-245.0,-18.0,0
3353,5.0,-244.0,-14.0,0
3354,-1.0,-246.0,-22.0,0
3355,-7.0,-244.0,-23.0,0
3356,-7.0,-241.0,-30.0,0
3357,-9.0,-235.0,-39.0,0
3358,-10.0,-232.0,-50.0,0
3359,-10.0,-222.0,-58.0,0
3360,-9.0,-219.0,-67.0,0
3361,-9.0,-213.0,-77.0,0
3362,-5.0,-209.0,-87.0,0
3363,-3.0,-205.0,-90.0,0
3364,2.0,-203.0,-97.0,0
3365,3.0,-201.0,-96.0,0
3366,6.0,-205.0,-93.0,0
3367,4.0,-204.0,-89.0,0
3368,1.0,-198.0,-76.0,0
3369,-3.0,-197.0,-68.0,0
3370,-5.0,-196.0,-60.0,0
3371,-7.0,-195.0,-48.0,0
3372,-6.0,-194.0,-35.0,0
3373,-6.0,-193.0,-33.0,0
3374,-6.0,-194.0,-25.0,0
3375,-4.0,-195.0,-25.0,0
3376,-3.0,-193.0,-26.0,0
3377,-1.0,-190.0,-18.0,0
3378,4.0,-188.0,-20.0,0
3379,3.0,-183.0,-18.0,0
3380,0.0,-178.0,-20.0,0
3381,0.0,-171.0,-18.0,0
3382,-4.0,-163.0,-19.0,0
3383,-7.0,-153.0,-29.0,0
3384,-12.0,-143.0,-32.0,0
3385,-21.0,-137.0,-39.0,0
3386,-24.0,-131.0,-54.0,0
3387,-22.0,-128.0,-70.0,0
3388,-17.0,-129.0,-99.0,0
3389,-11.0,-131.0,-124.0,0
3390,4.0,-150.0,-148.0,0
3391,18.0,-171.0,-156.0,0
3392,27.0,-195.0,-160.0,0
3393,48.0,-221.0,-164.0,0
3394,55.0,-243.0,-167.0,0
3395,47.0,-262.0,-150.0,0
3396,30.0,-285.0,-111.0,0
3397,44.0,-318.0,-60.0,0
3398,92.0,-341.0,-56.0,0
3399,134.0,-348.0,-149.0,0
3400,147.0,-338.0,-268.0,0
3401,135.0,-353.0,-414.0,0
3402,99.0,-440.0,-478.0,0
3403,64.0,-588.0,-444.0,0
3404,46.0,-740.0,-332.0,0
3405,19.0,-832.0,-182.0,0
3406,16.0,-846.0,-71.0,0
3407,22.0,-810.0,-21.0,0
3408,27.0,-758.0,-3.0,0
3409,23.0,-676.0,12.0,0
3410,9.0,-602.0,31.0,0
3411,-14.0,-534.0,38.0,0
3412,-39.0,-468.0,30.0,0
3413,-55.0,-410.0,4.0,0
3414,-63.0,-354.0,-40.0,0
3415,-58.0,-304.0,-85.0,0
3416,-53.0,-271.0,-112.0,0
3417,-46.0,-237.0,-125.0,0
3418,-31.0,-218.0,-119.0,0
3419,-30.0,-206.0,-106.0,0
3420,-30.0,-195.0,-90.0,0
3421,-25.0,-188.0,-72.0,0
3422,-24.0,-179.0,-59.0,0
3423,-15.0,-176.0,-53.0,0
3424,-11.0,-177.0,-47.0,0
3425,-10.0,-180.0,-38.0,0
3426,-3.0,-186.0,-31.0,0
3427,-3.0,-193.0,-24.0,0
3428,-4.0,-198.0,-15.0,0
3429,-6.0,-200.0,-15.0,0
3430,-3.0,-203.0,-20.0,0
3431,-7.0,-197.0,-29.0,0
3432,-6.0,-200.0,-35.0,0
3433,-9.0,-199.0,-43.0,0
3434,-9.0,-196.0,-52.0,0
3435,-6.0,-195.0,-56.0,0
3436,-3.0,-195.0,-56.0,0
3437,-1.0,-195.0,-53.0,0
3438,3.0,-195.0,-52.0,0
3439,10.0,-197.0,-47.0,0
3440,17.0,-195.0,-48.0,0
3441,24.0,-196.0,-46.0,0
3442,27.0,-196.0,-47.0,0
3443,35.0,-200.0,-44.0,0
3444,44.0,-202.0,-38.0,0
3445,54.0,-203.0,-45.0,0
3446,60.0,-205.0,-42.0,0
3447,69.0,-206.0,-40.0,0
3448,73.0,-206.0,-42.0,0
3449,75.0,-204.0,-48.0,0
3450,77.0,-202.0,-47.0,0
3451,75.0,-199.0,-46.0,0
3452,70.0,-195.0,-50.0,0
3453,64.0,-195.0,-54.0,0
3454,59.0,-197.0,-54.0,0
3455,52.0,-198.0,-52.0,0
3456,46.0,-199.0,-53.0,0
3457,38.0,-200.0,-46.0,0
3458,27.0,-206.0,-43.0,0
3459,23.0,-211.0,-40.0,0
3460,17.0,-217.0,-33.0,0
3461,13.0,-220.0,-35.0,0
3462,14.0,-231.0,-31.0,0
3463,12.0,-238.0,-28.0,0
3464,13.0,-242.0,-34.0,0
3465,10.0,-248.0,-25.0,0
3466,11.0,-250.0,-28.0,0
3467,12.0,-258.0,-25.0,0
3468,9.0,-261.0,-21.0,0
3469,9.0,-264.0,-18.0,0
3470,9.0,-265.0,-14.0,0
3471,13.0,-264.0,-12.0,0
3472,8.0,-259.0,-12.0,0
3473,13.0,-253.0,-12.0,0
3474,13.0,-248.0,-8.0,0
3475,16.0,-239.0,-17.0,0
3476,19.0,-232.0,-22.0,0
3477,20.0,-223.0,-21.0,0
3478,20.0,-215.0,-25.0,0
3479,20.0,-207.0,-29.0,0
3480,25.0,-204.0,-33.0,0
3481,23.0,-199.0,-34.0,0
3482,24.0,-197.0,-43.0,0
3483,25.0,-196.0,-48.0,0
3484,23.0,-196.0,-50.0,0
3485,24.0,-195.0,-55.0,0
3486,25.0,-198.0,-55.0,0
3487,18.0,-201.0,-51.0,0
3488,16.0,-204.0,-44.0,0
3489,12.0,-208.0,-32.0,0
3490,7.0,-211.0,-22.0,0
3491,6.0,-217.0,-14.0,0
3492,6.0,-219.0,-9.0,0
3493,7.0,-221.0,-3.0,0
3494,9.0,-222.0,-8.0,0
3495,8.0,-222.0,-7.0,0
3496,11.0,-220.0,-13.0,0
3497,10.0,-219.0,-14.0,0
3498,14.0,-219.0,-19.0,0
3499,15.0,-215.0,-25.0,0
3500,13.0,-212.0,-27.0,0
3501,13.0,-205.0,-29.0,0
3502,16.0,-204.0,-35.0,0
3503,10.0,-198.0,-38.0,0
3504,15.0,-196.0,-41.0,0
3505,21.0,-199.0,-52.0,0
3506,23.0,-199.0,-50.0,0
3507,27.0,-203.0,-53.0,0
3508,31.0,-211.0,-51.0,0
3509,36.0,-215.0,-48.0,0
3510,38.0,-225.0,-46.0,0
3511,38.0,-234.0,-40.0,0
3512,38.0,-238.0,-34.0,0
3513,41.0,-245.0,-31.0,0
3514,40.0,-247.0,-29.0,0
3515,41.0,-247.0,-30.0,0
3516,39.0,-251.0,-33.0,0
3517,40.0,-247.0,-35.0,0
3518,42.0,-244.0,-39.0,0
3519,38.0,-238.0,-44.0,0
3520,36.0,-235.0,-49.0,0
3521,32.0,-227.0,-55.0,0
3522,28.0,-225.0,-63.0,0
3523,24.0,-215.0,-68.0,0
3524,26.0,-210.0,-75.0,0
3525,24.0,-203.0,-81.0,0
3526,15.0,-197.0,-82.0,0
3527,11.0,-192.0,-78.0,0
3528,7.0,-188.0,-81.0,0
3529,2.0,-185.0,-82.0,0
3530,2.0,-183.0,-88.0,0
3531,2.0,-184.0,-102.0,0
3532,4.0,-186.0,-118.0,0
3533,3.0,-194.0,-142.0,0
3534,-7.0,-196.0,-161.0,0
3535,-12.0,-203.0,-170.0,0
3536,-19.0,-213.0,-169.0,0
3537,-18.0,-220.0,-160.0,0
3538,-20.0,-226.0,-149.0,0
3539,-29.0,-232.0,-134.0,0
3540,-37.0,-240.0,-104.0,0
3541,-42.0,-253.0,-71.0,0
3542,-53.0,-268.0,-48.0,0
3543,-77.0,-297.0,-21.0,0
3544,-95.0,-336.0,9.0,0
3545,-106.0,-368.0,6.0,0
3546,-94.0,-394.0,-46.0,0
3547,-81.0,-395.0,-148.0,0
3548,-57.0,-397.0,-242.0,0
3549,-28.0,-412.0,-280.0,0
3550,14.0,-445.0,-253.0,0
3551,31.0,-489.0,-189.0,0
3552,16.0,-528.0,-106.0,0
3553,-10.0,-552.0,-62.0,0
3554,-34.0,-565.0,-23.0,0
3555,-55.0,-548.0,7.0,0
3556,-62.0,-512.0,5.0,0
3557,-48.0,-472.0,-6.0,0
3558,-24.0,-442.0,-23.0,0
3559,-5.0,-417.0,-34.0,0
3560,8.0,-395.0,-44.0,0
3561,12.0,-379.0,-48.0,0
3562,7.0,-356.0,-56.0,0
3563,2.0,-340.0,-60.0,0
3564,-5.0,-323.0,-69.0,0
3565,-12.0,-306.0,-77.0,0
3566,-22.0,-286.0,-77.0,0
3567,-26.0,-273.0,-73.0,0
3568,-29.0,-261.0,-64.0,0
3569,-30.0,-256.0,-60.0,0
3570,-34.0,-250.0,-53.0,0
3571,-36.0,-249.0,-41.0,0
3572,-39.0,-249.0,-34.0,0
3573,-38.0,-245.0,-36.0,0
3574,-32.0,-240.0,-36.0,0
3575,-25.0,-239.0,-37.0,0
3576,-12.0,-236.0,-47.0,0
3577,-5.0,-238.0,-43.0,0
3578,2.0,-232.0,-49.0,0
3579,6.0,-227.0,-46.0,0
3580,10.0,-227.0,-49.0,0
3581,20.0,-220.0,-49.0,0
3582,20.0,-216.0,-49.0,0
3583,18.0,-212.0,-45.0,0
3584,13.0,-208.0,-45.0,0
3585,7.0,-203.0,-43.0,0
3586,-5.0,-196.0,-44.0,0
3587,-15.0,-194.0,-41.0,0
3588,-27.0,-191.0,-36.0,0
3589,-35.0,-189.0,-33.0,0
3590,-36.0,-189.0,-34.0,0
3591,-47.0,-187.0,-37.0,0
3592,-50.0,-191.0,-37.0,0
3593,-52.0,-192.0,-37.0,0
3594,-57.0,-195.0,-35.0,0
3595,-56.0,-199.0,-37.0,0
3596,-56.0,-202.0,-37.0,0
3597,-54.0,-204.0,-41.0,0
3598,-46.0,-211.0,-42.0,0
3599,-42.0,-214.0,-43.0,0
3600,-34.0,-221.0,-42.0,0
3601,-31.0,-224.0,-42.0,0
3602,-23.0,-231.0,-44.0,0
3603,-14.0,-231.0,-51.0,0
3604,-11.0,-235.0,-49.0,0
3605,-7.0,-236.0,-47.0,0
3606,0.0,-237.0,-43.0,0
3607,0.0,-233.0,-35.0,0
3608,3.0,-231.0,-30.0,0
3609,6.0,-224.0,-30.0,0
3610,5.0,-219.0,-22.0,0
3611,5.0,-211.0,-21.0,0
3612,3.0,-206.0,-21.0,0
3613,0.0,-201.0,-20.0,0
3614,2.0,-199.0,-12.0,0
3615,0.0,-197.0,-10.0,0
3616,0.0,-194.0,-4.0,0
3617,2.0,-198.0,1.0,0
3618,1.0,-196.0,6.0,0
3619,3.0,-198.0,2.0,0
3620,6.0,-201.0,-5.0,0
3621,4.0,-204.0,-11.0,0
3622,6.0,-203.0,-13.0,0
3623,7.0,-211.0,-17.0,0
3624,7.0,-216.0,-24.0,0
3625,9.0,-218.0,-20.0,0
3626,10.0,-225.0,-20.0,0
3627,7.0,-225.0,-21.0,0
3628,5.0,-231.0,-16.0,0
3629,3.0,-233.0,-11.0,0
3630,0.0,-234.0,-8.0,0
3631,-4.0,-232.0,-10.0,0
3632,-5.0,-232.0,-6.0,0
3633,-10.0,-234.0,-13.0,0
3634,-12.0,-233.0,-10.0,0
3635,-21.0,-226.0,-14.0,0
3636,-25.0,-224.0,-24.0,0
3637,-29.0,-216.0,-34.0,0
3638,-32.0,-211.0,-36.0,0
3639,-32.0,-206.0,-45.0,0
3640,-30.0,-204.0,-50.0,0
3641,-28.0,-205.0,-50.0,0
3642,-28.0,-210.0,-45.0,0
3643,-23.0,-212.0,-41.0,0
3644,-21.0,-219.0,-34.0,0
3645,-17.0,-221.0,-28.0,0
3646,-13.0,-221.0,-24.0,0
3647,-12.0,-221.0,-24.0,0
3648,-12.0,-214.0,-18.0,0
3649,-12.0,-208.0,-22.0,0
3650,-12.0,-197.0,-25.0,0
3651,-10.0,-184.0,-28.0,0
3652,-11.0,-179.0,-34.0,0
3653,-8.0,-178.0,-30.0,0
3654,-13.0,-177.0,-27.0,0
3655,-12.0,-177.0,-23.0,0
3656,-20.0,-181.0,-21.0,0
3657,-25.0,-179.0,-20.0,0
3658,-27.0,-179.0,-29.0,0
3659,-29.0,-178.0,-39.0,0
3660,-30.0,-173.0,-51.0,0
3661,-30.0,-165.0,-59.0,0
3662,-27.0,-162.0,-77.0,0
3663,-24.0,-156.0,-88.0,0
3664,-24.0,-149.0,-101.0,0
3665,-17.0,-145.0,-106.0,0
3666,-16.0,-135.0,-113.0,0
3667,-12.0,-132.0,-120.0,0
3668,-9.0,-130.0,-122.0,0
3669,-6.0,-133.0,-130.0,0
3670,6.0,-144.0,-136.0,0
3671,22.0,-160.0,-150.0,0
3672,36.0,-179.0,-168.0,0
3673,41.0,-190.0,-176.0,0
3674,58.0,-215.0,-183.0,0
3675,75.0,-243.0,-178.0,0
3676,87.0,-274.0,-167.0,0
3677,90.0,-296.0,-147.0,0
3678,77.0,-317.0,-124.0,0
3679,58.0,-336.0,-95.0,0
3680,56.0,-368.0,-49.0,0
3681,72.0,-394.0,-23.0,0
3682,96.0,-433.0,-36.0,0
3683,101.0,-452.0,-115.0,0
3684,78.0,-459.0,-217.0,0
3685,49.0,-505.0,-279.0,0
3686,25.0,-579.0,-273.0,0
3687,12.0,-662.0,-209.0,0
3688,9.0,-720.0,-112.0,0
3689,11.0,-734.0,-53.0,0
3690,25.0,-716.0,-6.0,0
3691,37.0,-663.0,6.0,0
3692,50.0,-604.0,-15.0,0
3693,57.0,-547.0,-41.0,0
3694,49.0,-497.0,-62.0,0
3695,40.0,-449.0,-74.0,0
3696,36.0,-401.0,-82.0,0
3697,41.0,-369.0,-84.0,0
3698,47.0,-325.0,-80.0,0
3699,52.0,-284.0,-73.0,0
3700,57.0,-247.0,-74.0,0
3701,67.0,-211.0,-63.0,0
3702,79.0,-184.0,-58.0,0
3703,85.0,-160.0,-51.0,0
3704,88.0,-147.0,-45.0,0
3705,90.0,-139.0,-39.0,0
3706,86.0,-137.0,-36.0,0
3707,83.0,-142.0,-36.0,0
3708,72.0,-148.0,-44.0,0
3709,67.0,-159.0,-50.0,0
3710,55.0,-173.0,-54.0,0
3711,42.0,-185.0,-53.0,0
3712,23.0,-196.0,-55.0,0
3713,18.0,-203.0,-54.0,0
3714,2.0,-210.0,-55.0,0
3715,-7.0,-215.0,-58.0,0
3716,-11.0,-218.0,-65.0,0
3717,-16.0,-227.0,-70.0,0
3718,-25.0,-227.0,-68.0,0
3719,-23.0,-232.0,-70.0,0
3720,-24.0,-231.0,-65.0,0
3721,-22.0,-230.0,-66.0,0
3722,-18.0,-227.0,-61.0,0
3723,-18.0,-223.0,-59.0,0
3724,-12.0,-222.0,-62.0,0
3725,-7.0,-217.0,-61.0,0
3726,-1.0,-213.0,-56.0,0
3727,3.0,-210.0,-55.0,0
3728,6.0,-209.0,-52.0,0
3729,8.0,-208.0,-49.0,0
3730,9.0,-199.0,-38.0,0
3731,8.0,-197.0,-35.0,0
3732,8.0,-194.0,-29.0,0
3733,0.0,-187.0,-24.0,0
3734,1.0,-183.0,-23.0,0
3735,-5.0,-175.0,-24.0,0
3736,-6.0,-173.0,-25.0,0
3737,-11.0,-175.0,-35.0,0
3738,-16.0,-173.0,-30.0,0
3739,-24.0,-174.0,-31.0,0
3740,-25.0,-178.0,-32.0,0
3741,-28.0,-184.0,-32.0,0
3742,-31.0,-191.0,-26.0,0
3743,-33.0,-196.0,-26.0,0
3744,-32.0,-203.0,-22.0,0
3745,-28.0,-208.0,-18.0,0
3746,-29.0,-214.0,-13.0,0
3747,-26.0,-214.0,-14.0,0
3748,-24.0,-216.0,-8.0,0
3749,-20.0,-219.0,-10.0,0
3750,-16.0,-222.0,-19.0,0
3751,-11.0,-222.0,-22.0,0
3752,-2.0,-225.0,-29.0,0
3753,8.0,-225.0,-36.0,0
3754,12.0,-227.0,-42.0,0
3755,13.0,-229.0,-42.0,0
3756,22.0,-230.0,-44.0,0
3757,24.0,-231.0,-45.0,0
3758,26.0,-229.0,-42.0,0
3759,21.0,-225.0,-44.0,0
3760,21.0,-220.0,-48.0,0
3761,16.0,-214.0,-49.0,0
3762,13.0,-209.0,-51.0,0
3763,5.0,-204.0,-53.0,0
3764,-1.0,-197.0,-52.0,0
3765,-1.0,-194.0,-54.0,0
3766,-10.0,-187.0,-53.0,0
3767,-12.0,-182.0,-50.0,0
3768,-12.0,-177.0,-50.0,0
3769,-12.0,-173.0,-50.0,0
3770,-10.0,-170.0,-48.0,0
3771,-5.0,-165.0,-52.0,0
3772,2.0,-165.0,-54.0,0
3773,10.0,-161.0,-49.0,0
3774,18.0,-158.0,-49.0,0
3775,25.0,-155.0,-53.0,0
3776,33.0,-160.0,-56.0,0
3777,38.0,-164.0,-55.0,0
3778,44.0,-165.0,-59.0,0
3779,52.0,-172.0,-62.0,0
3780,57.0,-175.0,-64.0,0
3781,57.0,-177.0,-73.0,0
3782,60.0,-177.0,-81.0,0
3783,57.0,-173.0,-86.0,0
3784,50.0,-171.0,-93.0,0
3785,38.0,-169.0,-96.0,0
3786,14.0,-163.0,-93.0,0
3787,-4.0,-157.0,-94.0,0
3788,-12.0,-154.0,-102.0,0
3789,-12.0,-150.0,-101.0,0
3790,-9.0,-151.0,-120.0,0
3791,3.0,-151.0,-150.0,0
3792,10.0,-153.0,-192.0,0
3793,12.0,-159.0,-219.0,0
3794,7.0,-173.0,-251.0,0
3795,0.0,-197.0,-259.0,0
3796,-14.0,-223.0,-239.0,0
3797,-16.0,-264.0,-184.0,0
3798,-30.0,-293.0,-129.0,0
3799,-55.0,-346.0,-58.0,0
3800,-91.0,-398.0,1.0,0
3801,-108.0,-442.0,19.0,0
3802,-82.0,-490.0,-22.0,0
3803,-25.0,-509.0,-160.0,0
3804,49.0,-500.0,-305.0,0
3805,134.0,-507.0,-389.0,0
3806,181.0,-533.0,-379.0,0
3807,131.0,-570.0,-281.0,0
3808,79.0,-611.0,-188.0,0
3809,46.0,-649.0,-97.0,0
3810,2.0,-676.0,-9.0,0
3811,-58.0,-668.0,66.0,0
3812,-71.0,-651.0,95.0,0
3813,-76.0,-591.0,77.0,0
3814,-76.0,-527.0,25.0,0
3815,-72.0,-456.0,-25.0,0
3816,-64.0,-392.0,-66.0,0
3817,-64.0,-357.0,-96.0,0
3818,-64.0,-307.0,-107.0,0
3819,-70.0,-271.0,-107.0,0
3820,-74.0,-247.0,-91.0,0
3821,-74.0,-227.0,-77.0,0
3822,-73.0,-210.0,-60.0,0
3823,-68.0,-201.0,-54.0,0
3824,-60.0,-190.0,-55.0,0
3825,-55.0,-187.0,-58.0,0
3826,-46.0,-190.0,-59.0,0
3827,-34.0,-196.0,-53.0,0
3828,-21.0,-205.0,-52.0,0
3829,-10.0,-211.0,-56.0,0
3830,3.0,-216.0,-57.0,0
3831,16.0,-219.0,-58.0,0
3832,25.0,-221.0,-60.0,0
3833,28.0,-227.0,-59.0,0
3834,33.0,-234.0,-55.0,0
3835,35.0,-242.0,-53.0,0
3836,34.0,-248.0,-56.0,0
3837,30.0,-252.0,-58.0,0
3838,29.0,-255.0,-53.0,0
3839,23.0,-253.0,-50.0,0
3840,14.0,-250.0,-50.0,0
3841,8.0,-245.0,-48.0,0
3842,3.0,-242.0,-46.0,0
3843,-3.0,-235.0,-54.0,0
3844,-9.0,-226.0,-53.0,0
3845,-12.0,-221.0,-59.0,0
3846,-12.0,-215.0,-62.0,0
3847,-13.0,-213.0,-64.0,0
3848,-14.0,-204.0,-65.0,0
3849,-12.0,-199.0,-65.0,0
3850,-12.0,-194.0,-67.0,0
3851,-8.0,-187.0,-65.0,0
3852,-5.0,-181.0,-66.0,0
3853,0.0,-178.0,-66.0,0
3854,2.0,-178.0,-66.0,0
3855,7.0,-173.0,-61.0,0
3856,8.0,-171.0,-57.0,0
3857,5.0,-173.0,-53.0,0
3858,7.0,-172.0,-50.0,0
3859,3.0,-174.0,-38.0,0
3860,3.0,-176.0,-37.0,0
3861,2.0,-178.0,-30.0,0
3862,1.0,-182.0,-30.0,0
3863,-4.0,-186.0,-24.0,0
3864,-12.0,-192.0,-22.0,0
3865,-20.0,-196.0,-17.0,0
3866,-31.0,-200.0,-14.0,0
3867,-36.0,-210.0,-12.0,0
3868,-46.0,-218.0,-12.0,0
3869,-50.0,-224.0,-16.0,0
3870,-50.0,-233.0,-26.0,0
3871,-47.0,-241.0,-37.0,0
3872,-43.0,-245.0,-54.0,0
3873,-38.0,-249.0,-62.0,0
3874,-27.0,-253.0,-74.0,0
3875,-14.0,-256.0,-83.0,0
3876,-11.0,-260.0,-83.0,0
3877,2.0,-259.0,-77.0,0
3878,12.0,-260.0,-76.0,0
3879,20.0,-259.0,-67.0,0
3880,29.0,-255.0,-57.0,0
3881,30.0,-248.0,-52.0,0
3882,31.0,-236.0,-46.0,0
3883,33.0,-223.0,-34.0,0
3884,31.0,-213.0,-30.0,0
3885,32.0,-203.0,-24.0,0
3886,30.0,-195.0,-18.0,0
3887,29.0,-183.0,-17.0,0
3888,26.0,-179.0,-11.0,0
3889,18.0,-169.0,-13.0,0
3890,13.0,-161.0,-20.0,0
3891,2.0,-157.0,-24.0,0
3892,-9.0,-154.0,-37.0,0
3893,-18.0,-156.0,-42.0,0
3894,-27.0,-157.0,-48.0,0
3895,-37.0,-160.0,-51.0,0
3896,-42.0,-172.0,-58.0,0
3897,-45.0,-178.0,-58.0,0
3898,-52.0,-189.0,-61.0,0
3899,-59.0,-199.0,-64.0,0
3900,-59.0,-204.0,-76.0,0
3901,-57.0,-211.0,-80.0,0
3902,-54.0,-211.0,-86.0,0
3903,-50.0,-215.0,-89.0,0
3904,-47.0,-209.0,-90.0,0
3905,-43.0,-206.0,-93.0,0
3906,-37.0,-198.0,-88.0,0
3907,-34.0,-196.0,-88.0,0
3908,-30.0,-187.0,-83.0,0
3909,-31.0,-183.0,-76.0,0
3910,-31.0,-173.0,-66.0,0
3911,-30.0,-163.0,-62.0,0
3912,-32.0,-157.0,-55.0,0
3913,-34.0,-148.0,-45.0,0
3914,-28.0,-146.0,-31.0,0
3915,-19.0,-142.0,-14.0,0
3916,-18.0,-141.0,-8.0,0
3917,-16.0,-146.0,-12.0,0
3918,-9.0,-146.0,-25.0,0
3919,3.0,-150.0,-65.0,0
3920,6.0,-154.0,-121.0,0
3921,12.0,-170.0,-161.0,0
3922,15.0,-198.0,-219.0,0
3923,22.0,-239.0,-262.0,0
3924,29.0,-281.0,-293.0,0
3925,27.0,-325.0,-297.0,0
3926,20.0,-361.0,-284.0,0
3927,20.0,-389.0,-234.0,0
3928,45.0,-418.0,-181.0,0
3929,61.0,-434.0,-152.0,0
3930,84.0,-442.0,-160.0,0
3931,98.0,-433.0,-211.0,0
3932,88.0,-429.0,-247.0,0
3933,59.0,-435.0,-227.0,0
3934,38.0,-460.0,-161.0,0
3935,48.0,-492.0,-80.0,0
3936,73.0,-523.0,-22.0,0
3937,96.0,-532.0,-5.0,0
3938,124.0,-520.0,-10.0,0
3939,153.0,-492.0,-43.0,0
3940,170.0,-455.0,-92.0,0
3941,163.0,-423.0,-130.0,0
3942,148.0,-396.0,-151.0,0
3943,128.0,-387.0,-153.0,0
3944,111.0,-379.0,-143.0,0
3945,98.0,-377.0,-136.0,0
3946,86.0,-367.0,-125.0,0
3947,70.0,-359.0,-112.0,0
3948,62.0,-352.0,-93.0,0
3949,50.0,-335.0,-85.0,0
3950,43.0,-322.0,-75.0,0
3951,31.0,-297.0,-72.0,0
3952,25.0,-285.0,-73.0,0
3953,18.0,-274.0,-71.0,0
3954,14.0,-262.0,-63.0,0
3955,8.0,-257.0,-58.0,0
3956,9.0,-254.0,-56.0,0
3957,8.0,-246.0,-54.0,0
3958,11.0,-246.0,-58.0,0
3959,12.0,-241.0,-67.0,0
3960,13.0,-242.0,-75.0,0
3961,13.0,-240.0,-82.0,0
3962,9.0,-237.0,-84.0,0
3963,6.0,-238.0,-81.0,0
3964,2.0,-237.0,-76.0,0
3965,-2.0,-237.0,-72.0,0
3966,-7.0,-236.0,-74.0,0
3967,-5.0,-241.0,-74.0,0
3968,-7.0,-241.0,-71.0,0
3969,-7.0,-239.0,-68.0,0
3970,-6.0,-243.0,-65.0,0
3971,2.0,-242.0,-62.0,0
3972,3.0,-246.0,-59.0,0
3973,8.0,-247.0,-58.0,0
3974,10.0,-246.0,-60.0,0
3975,14.0,-242.0,-58.0,0
3976,16.0,-244.0,-62.0,0
3977,22.0,-248.0,-61.0,0
3978,21.0,-245.0,-64.0,0
3979,18.0,-248.0,-63.0,0
3980,18.0,-256.0,-54.0,0
3981,18.0,-257.0,-53.0,0
3982,17.0,-259.0,-46.0,0
3983,13.0,-258.0,-40.0,0
3984,13.0,-258.0,-34.0,0
3985,11.0,-256.0,-34.0,0
3986,10.0,-251.0,-34.0,0
3987,11.0,-249.0,-32.0,0
3988,9.0,-246.0,-29.0,0
3989,10.0,-241.0,-25.0,0
3990,13.0,-241.0,-28.0,0
3991,11.0,-235.0,-29.0,0
3992,11.0,-235.0,-36.0,0
3993,9.0,-230.0,-37.0,0
3994,7.0,-228.0,-35.0,0
3995,5.0,-222.0,-36.0,0
3996,7.0,-224.0,-37.0,0
3997,7.0,-224.0,-39.0,0
3998,10.0,-222.0,-42.0,0
3999,12.0,-223.0,-34.0,0
4000,14.0,-219.0,-38.0,0
4001,15.0,-218.0,-36.0,0
4002,18.0,-218.0,-39.0,0
4003,20.0,-218.0,-43.0,0
4004,23.0,-212.0,-48.0,0
4005,29.0,-212.0,-56.0,0
4006,38.0,-207.0,-71.0,0
4007,50.0,-202.0,-99.0,0
4008,52.0,-201.0,-110.0,0
4009,56.0,-203.0,-125.0,0
4010,52.0,-207.0,-146.0,0
4011,54.0,-222.0,-155.0,0
4012,55.0,-235.0,-173.0,0
4013,56.0,-251.0,-196.0,0
4014,57.0,-260.0,-229.0,0
4015,56.0,-267.0,-248.0,0
4016,52.0,-274.0,-246.0,0
4017,49.0,-283.0,-222.0,0
4018,42.0,-286.0,-183.0,0
4019,27.0,-292.0,-145.0,0
4020,9.0,-286.0,-101.0,0
4021,-5.0,-285.0,-61.0,0
4022,-16.0,-277.0,-32.0,0
4023,-31.0,-264.0,-6.0,0
4024,-39.0,-253.0,5.0,0
4025,-46.0,-240.0,8.0,0
4026,-49.0,-223.0,-5.0,0
4027,-48.0,-213.0,-17.0,0
4028,-41.0,-205.0,-38.0,0
4029,-41.0,-195.0,-61.0,0
4030,-26.0,-197.0,-76.0,0
4031,-14.0,-201.0,-91.0,0
4032,-2.0,-207.0,-101.0,0
4033,5.0,-212.0,-107.0,0
4034,20.0,-224.0,-117.0,0
4035,27.0,-235.0,-125.0,0
4036,32.0,-241.0,-129.0,0
4037,37.0,-249.0,-129.0,0
4038,32.0,-253.0,-126.0,0
4039,32.0,-258.0,-117.0,0
4040,22.0,-260.0,-103.0,0
4041,19.0,-262.0,-96.0,0
4042,17.0,-262.0,-83.0,0
4043,12.0,-261.0,-78.0,0
4044,8.0,-258.0,-79.0,0
4045,9.0,-253.0,-73.0,0
4046,8.0,-251.0,-77.0,0
4047,7.0,-247.0,-79.0,0
4048,3.0,-241.0,-80.0,0
4049,2.0,-242.0,-80.0,0
4050,4.0,-241.0,-79.0,0
4051,2.0,-241.0,-73.0,0
4052,2.0,-245.0,-73.0,0
4053,4.0,-244.0,-71.0,0
4054,2.0,-247.0,-77.0,0
4055,-1.0,-245.0,-71.0,0
4056,-7.0,-250.0,-62.0,0
4057,-6.0,-250.0,-72.0,0
4058,-3.0,-250.0,-67.0,0
4059,3.0,-255.0,-74.0,0
4060,5.0,-254.0,-72.0,0
4061,9.0,-257.0,-71.0,0
4062,16.0,-258.0,-68.0,0
4063,20.0,-258.0,-70.0,0
4064,24.0,-259.0,-65.0,0
4065,25.0,-256.0,-71.0,0
4066,31.0,-256.0,-69.0,0
4067,29.0,-253.0,-66.0,0
4068,33.0,-255.0,-63.0,0
4069,31.0,-253.0,-67.0,0
4070,30.0,-252.0,-72.0,0
4071,27.0,-253.0,-77.0,0
4072,25.0,-250.0,-80.0,0
4073,21.0,-249.0,-84.0,0
4074,13.0,-246.0,-86.0,0
4075,10.0,-245.0,-88.0,0
4076,5.0,-245.0,-88.0,0
4077,-1.0,-245.0,-87.0,0
4078,-6.0,-241.0,-87.0,0
4079,-12.0,-237.0,-81.0,0
4080,-12.0,-236.0,-81.0,0
4081,-18.0,-235.0,-73.0,0
4082,-19.0,-234.0,-69.0,0
4083,-26.0,-233.0,-72.0,0
4084,-27.0,-230.0,-69.0,0
4085,-31.0,-230.0,-63.0,0
4086,-29.0,-230.0,-62.0,0
4087,-32.0,-229.0,-67.0,0
4088,-31.0,-228.0,-61.0,0
4089,-30.0,-229.0,-64.0,0
4090,-28.0,-227.0,-64.0,0
4091,-29.0,-225.0,-66.0,0
4092,-27.0,-228.0,-65.0,0
4093,-22.0,-230.0,-68.0,0
4094,-19.0,-232.0,-62.0,0
4095,-20.0,-234.0,-69.0,0
4096,-17.0,-237.0,-66.0,0
4097,-16.0,-238.0,-66.0,0
4098,-15.0,-243.0,-72.0,0
4099,-12.0,-243.0,-67.0,0
4100,-14.0,-247.0,-69.0,0
4101,-14.0,-249.0,-69.0,0
4102,-12.0,-251.0,-68.0,0
4103,-13.0,-252.0,-73.0,0
4104,-17.0,-253.0,-68.0,0
4105,-14.0,-254.0,-74.0,0
4106,-13.0,-252.0,-69.0,0
4107,-13.0,-252.0,-71.0,0
4108,-12.0,-255.0,-74.0,0
4109,-11.0,-256.0,-78.0,0
4110,-11.0,-253.0,-77.0,0
4111,-10.0,-250.0,-81.0,0
4112,-7.0,-257.0,-77.0,0
4113,-4.0,-257.0,-75.0,0
4114,-4.0,-254.0,-69.0,0
4115,-2.0,-254.0,-71.0,0
4116,-5.0,-254.0,-68.0,0
4117,-6.0,-253.0,-68.0,0
4118,-6.0,-251.0,-63.0,0
4119,-9.0,-250.0,-62.0,0
4120,-11.0,-249.0,-63.0,0
4121,-13.0,-250.0,-63.0,0
4122,-18.0,-249.0,-61.0,0
4123,-24.0,-248.0,-63.0,0
4124,-28.0,-248.0,-61.0,0
4125,-28.0,-250.0,-63.0,0
4126,-31.0,-251.0,-67.0,0
4127,-33.0,-253.0,-65.0,0
4128,-33.0,-256.0,-68.0,0
4129,-35.0,-257.0,-65.0,0
4130,-39.0,-259.0,-60.0,0
4131,-38.0,-260.0,-57.0,0
4132,-39.0,-258.0,-53.0,0
4133,-38.0,-261.0,-52.0,0
4134,-38.0,-260.0,-55.0,0
4135,-35.0,-261.0,-56.0,0
4136,-32.0,-261.0,-62.0,0
4137,-29.0,-260.0,-66.0,0
4138,-23.0,-261.0,-69.0,0
4139,-19.0,-258.0,-83.0,0
4140,-13.0,-259.0,-85.0,0
4141,-14.0,-258.0,-91.0,0
4142,-12.0,-260.0,-89.0,0
4143,-5.0,-264.0,-90.0,0
4144,-7.0,-263.0,-86.0,0
4145,0.0,-264.0,-83.0,0
4146,2.0,-263.0,-82.0,0
4147,4.0,-262.0,-77.0,0
4148,8.0,-258.0,-74.0,0
4149,12.0,-252.0,-70.0,0
4150,12.0,-247.0,-65.0,0
4151,15.0,-242.0,-65.0,0
4152,11.0,-237.0,-57.0,0
4153,9.0,-231.0,-59.0,0
4154,4.0,-226.0,-56.0,0
4155,1.0,-225.0,-53.0,0
4156,-2.0,-224.0,-50.0,0
4157,-3.0,-218.0,-50.0,0
4158,-3.0,-216.0,-49.0,0
4159,-3.0,-215.0,-53.0,0
4160,-4.0,-216.0,-57.0,0
4161,-6.0,-220.0,-56.0,0
4162,-5.0,-222.0,-60.0,0
4163,-3.0,-231.0,-64.0,0
4164,-7.0,-240.0,-65.0,0
4165,-4.0,-248.0,-70.0,0
4166,-7.0,-255.0,-66.0,0
4167,-2.0,-262.0,-73.0,0
4168,0.0,-265.0,-76.0,0
4169,-3.0,-266.0,-76.0,0
4170,2.0,-267.0,-77.0,0
4171,3.0,-268.0,-75.0,0
4172,2.0,-261.0,-77.0,0
4173,6.0,-265.0,-75.0,0
4174,10.0,-261.0,-74.0,0
4175,11.0,-261.0,-72.0,0
4176,13.0,-259.0,-69.0,0
4177,13.0,-256.0,-67.0,0
4178,9.0,-254.0,-69.0,0
4179,12.0,-251.0,-70.0,0
4180,11.0,-247.0,-65.0,0
4181,13.0,-243.0,-68.0,0
4182,13.0,-241.0,-66.0,0
4183,14.0,-242.0,-69.0,0
4184,14.0,-236.0,-68.0,0
4185,13.0,-235.0,-68.0,0
4186,10.0,-232.0,-70.0,0
4187,10.0,-232.0,-70.0,0
4188,14.0,-231.0,-72.0,0
4189,16.0,-233.0,-71.0,0
4190,15.0,-235.0,-76.0,0
4191,16.0,-236.0,-74.0,0
4192,17.0,-239.0,-75.0,0
4193,19.0,-239.0,-74.0,0
4194,17.0,-241.0,-76.0,0
4195,24.0,-244.0,-82.0,0
4196,26.0,-248.0,-85.0,0
4197,25.0,-248.0,-84.0,0
4198,25.0,-248.0,-89.0,0
4199,23.0,-252.0,-90.0,0
4200,24.0,-252.0,-89.0,0
4201,23.0,-252.0,-87.0,0
4202,23.0,-254.0,-82.0,0
4203,21.0,-251.0,-76.0,0
4204,22.0,-249.0,-76.0,0
4205,20.0,-244.0,-73.0,0
4206,24.0,-243.0,-74.0,0
4207,23.0,-237.0,-75.0,0
4208,27.0,-236.0,-76.0,0
4209,26.0,-233.0,-75.0,0
4210,26.0,-232.0,-74.0,0
4211,30.0,-230.0,-78.0,0
4212,29.0,-230.0,-73.0,0
4213,31.0,-229.0,-75.0,0
4214,32.0,-230.0,-76.0,0
4215,32.0,-233.0,-74.0,0
4216,35.0,-234.0,-82.0,0
4217,37.0,-236.0,-77.0,0
4218,36.0,-238.0,-78.0,0
4219,38.0,-243.0,-78.0,0
4220,38.0,-244.0,-79.0,0
4221,36.0,-246.0,-73.0,0
4222,36.0,-247.0,-72.0,0
4223,34.0,-248.0,-72.0,0
4224,33.0,-250.0,-66.0,0
4225,32.0,-251.0,-65.0,0
4226,33.0,-254.0,-64.0,0
4227,29.0,-256.0,-59.0,0
4228,28.0,-258.0,-58.0,0
4229,27.0,-259.0,-58.0,0
4230,24.0,-261.0,-57.0,0
4231,27.0,-261.0,-56.0,0
4232,28.0,-263.0,-58.0,0
4233,27.0,-267.0,-61.0,0
4234,29.0,-269.0,-57.0,0
4235,27.0,-268.0,-58.0,0
4236,29.0,-268.0,-60.0,0
4237,26.0,-272.0,-63.0,0
4238,27.0,-273.0,-61.0,0
4239,26.0,-276.0,-63.0,0
4240,26.0,-272.0,-65.0,0
4241,29.0,-273.0,-63.0,0
4242,27.0,-266.0,-67.0,0
4243,30.0,-263.0,-65.0,0
4244,32.0,-263.0,-69.0,0
4245,32.0,-257.0,-70.0,0
4246,32.0,-253.0,-63.0,0
4247,27.0,-246.0,-61.0,0
4248,32.0,-246.0,-67.0,0
4249,29.0,-244.0,-66.0,0
4250,31.0,-239.0,-64.0,0
4251,29.0,-238.0,-61.0,0
4252,24.0,-237.0,-55.0,0
4253,22.0,-238.0,-57.0,0
4254,21.0,-235.0,-54.0,0
4255,23.0,-237.0,-53.0,0
4256,20.0,-237.0,-50.0,0
4257,23.0,-244.0,-53.0,0
4258,20.0,-242.0,-53.0,0
4259,16.0,-246.0,-55.0,0
4260,15.0,-248.0,-55.0,0
4261,13.0,-256.0,-56.0,0
4262,9.0,-259.0,-55.0,0
4263,7.0,-260.0,-56.0,0
4264,3.0,-263.0,-55.0,0
4265,1.0,-261.0,-55.0,0
4266,-1.0,-263.0,-55.0,0
4267,0.0,-260.0,-57.0,0
4268,-2.0,-257.0,-62.0,0
4269,1.0,-258.0,-61.0,0
4270,6.0,-253.0,-62.0,0
4271,9.0,-249.0,-63.0,0
4272,12.0,-244.0,-67.0,0
4273,15.0,-243.0,-66.0,0
4274,17.0,-241.0,-70.0,0
4275,17.0,-236.0,-67.0,0
4276,16.0,-242.0,-67.0,0
4277,12.0,-247.0,-64.0,0
4278,13.0,-257.0,-63.0,0
4279,16.0,-263.0,-64.0,0
4280,17.0,-269.0,-67.0,0
4281,19.0,-273.0,-84.0,0
4282,25.0,-278.0,-96.0,0
4283,27.0,-285.0,-112.0,0
4284,31.0,-293.0,-119.0,0
4285,32.0,-300.0,-129.0,0
4286,32.0,-302.0,-127.0,0
4287,35.0,-298.0,-124.0,0
4288,38.0,-292.0,-118.0,0
4289,40.0,-274.0,-115.0,0
4290,42.0,-261.0,-108.0,0
4291,39.0,-246.0,-94.0,0
4292,36.0,-230.0,-87.0,0
4293,35.0,-216.0,-74.0,0
4294,27.0,-201.0,-66.0,0
4295,22.0,-196.0,-57.0,0
4296,15.0,-188.0,-56.0,0
4297,7.0,-187.0,-47.0,0
4298,0.0,-183.0,-49.0,0
4299,-5.0,-186.0,-49.0,0
4300,-10.0,-190.0,-48.0,0
4301,-12.0,-193.0,-52.0,0
4302,-11.0,-199.0,-53.0,0
4303,-10.0,-207.0,-57.0,0
4304,-9.0,-215.0,-58.0,0
4305,-5.0,-221.0,-60.0,0
4306,-1.0,-228.0,-65.0,0
4307,5.0,-240.0,-66.0,0
4308,6.0,-248.0,-70.0,0
4309,12.0,-254.0,-72.0,0
4310,10.0,-261.0,-72.0,0
4311,16.0,-265.0,-70.0,0
4312,21.0,-271.0,-72.0,0
4313,20.0,-269.0,-73.0,0
4314,23.0,-269.0,-74.0,0
4315,22.0,-268.0,-78.0,0
4316,20.0,-267.0,-82.0,0
4317,23.0,-267.0,-80.0,0
4318,21.0,-263.0,-83.0,0
4319,17.0,-257.0,-82.0,0
4320,16.0,-257.0,-81.0,0
4321,13.0,-250.0,-81.0,0
4322,11.0,-250.0,-80.0,0
4323,11.0,-249.0,-82.0,0
4324,8.0,-248.0,-77.0,0
4325,4.0,-243.0,-73.0,0
4326,3.0,-241.0,-70.0,0
4327,1.0,-241.0,-71.0,0
4328,1.0,-238.0,-71.0,0
4329,1.0,-239.0,-70.0,0
4330,-1.0,-239.0,-71.0,0
4331,0.0,-243.0,-68.0,0
4332,1.0,-245.0,-67.0,0
4333,4.0,-249.0,-60.0,0
4334,6.0,-251.0,-63.0,0
4335,2.0,-248.0,-63.0,0
4336,6.0,-248.0,-62.0,0
4337,6.0,-247.0,-57.0,0
4338,8.0,-249.0,-59.0,0
4339,9.0,-248.0,-60.0,0
4340,10.0,-247.0,-61.0,0
4341,11.0,-246.0,-60.0,0
4342,11.0,-249.0,-60.0,0
4343,14.0,-251.0,-64.0,0
4344,17.0,-252.0,-62.0,0
4345,14.0,-254.0,-59.0,0
4346,13.0,-253.0,-60.0,0
4347,14.0,-252.0,-61.0,0
4348,15.0,-255.0,-62.0,0
4349,12.0,-249.0,-63.0,0
4350,13.0,-251.0,-60.0,0
4351,10.0,-252.0,-62.0,0
4352,8.0,-252.0,-57.0,0
4353,10.0,-250.0,-61.0,0
4354,8.0,-250.0,-62.0,0
4355,11.0,-250.0,-67.0,0
4356,7.0,-248.0,-68.0,0
4357,7.0,-244.0,-67.0,0
4358,11.0,-246.0,-64.0,0
4359,12.0,-244.0,-68.0,0
4360,9.0,-243.0,-69.0,0
4361,10.0,-245.0,-69.0,0
4362,8.0,-244.0,-74.0,0
4363,7.0,-242.0,-68.0,0
4364,9.0,-251.0,-65.0,0
4365,11.0,-254.0,-59.0,0
4366,9.0,-251.0,-66.0,0
4367,9.0,-253.0,-64.0,0
4368,9.0,-252.0,-61.0,0
4369,4.0,-250.0,-60.0,0
4370,7.0,-253.0,-60.0,0
4371,4.0,-248.0,-62.0,0
4372,4.0,-248.0,-57.0,0
4373,3.0,-248.0,-61.0,0
4374,3.0,-246.0,-61.0,0
4375,6.0,-250.0,-60.0,0
4376,3.0,-246.0,-57.0,0
4377,5.0,-247.0,-60.0,0
4378,3.0,-252.0,-60.0,0
4379,2.0,-249.0,-63.0,0
4380,1.0,-248.0,-60.0,0
4381,-1.0,-249.0,-59.0,0
4382,1.0,-251.0,-58.0,0
4383,-1.0,-251.0,-58.0,0
4384,0.0,-251.0,-59.0,0
4385,-2.0,-250.0,-61.0,0
4386,0.0,-252.0,-61.0,0
4387,1.0,-252.0,-64.0,0
4388,-2.0,-248.0,-65.0,0
4389,2.0,-250.0,-61.0,0
4390,3.0,-248.0,-66.0,0
4391,3.0,-250.0,-67.0,0
4392,4.0,-249.0,-68.0,0
4393,3.0,-249.0,-69.0,0
4394,2.0,-249.0,-73.0,0
4395,3.0,-251.0,-68.0,0
4396,4.0,-252.0,-68.0,0
4397,4.0,-253.0,-63.0,0
4398,2.0,-252.0,-63.0,0
4399,2.0,-253.0,-66.0,0
4400,0.0,-252.0,-62.0,0
4401,0.0,-249.0,-61.0,0
4402,-1.0,-251.0,-60.0,0
4403,1.0,-249.0,-62.0,0
4404,-3.0,-247.0,-61.0,0
4405,-2.0,-248.0,-63.0,0
4406,-4.0,-246.0,-58.0,0
4407,-2.0,-246.0,-60.0,0
4408,-2.0,-247.0,-60.0,0
4409,-1.0,-248.0,-63.0,0
4410,-2.0,-246.0,-62.0,0
4411,-3.0,-249.0,-64.0,0
4412,-3.0,-251.0,-64.0,0
4413,2.0,-248.0,-69.0,0
4414,2.0,-252.0,-70.0,0
4415,-1.0,-252.0,-66.0,0
4416,4.0,-252.0,-63.0,0
4417,1.0,-253.0,-64.0,0
4418,3.0,-255.0,-64.0,0
4419,1.0,-252.0,-64.0,0
4420,2.0,-251.0,-69.0,0
4421,2.0,-251.0,-67.0,0
4422,3.0,-249.0,-64.0,0
4423,1.0,-248.0,-64.0,0
4424,0.0,-250.0,-66.0,0
4425,1.0,-249.0,-67.0,0
4426,3.0,-248.0,-68.0,0
4427,0.0,-249.0,-66.0,0
4428,0.0,-248.0,-70.0,0
4429,2.0,-246.0,-67.0,0
4430,2.0,-248.0,-71.0,0
4431,-1.0,-247.0,-73.0,0
4432,-2.0,-247.0,-70.0,0
4433,-2.0,-249.0,-71.0,0
4434,-1.0,-249.0,-72.0,0
4435,-2.0,-250.0,-67.0,0
4436,-1.0,-254.0,-69.0,0
4437,-2.0,-253.0,-71.0,0
4438,-2.0,-253.0,-73.0,0
4439,-1.0,-250.0,-69.0,0
4440,-2.0,-251.0,-69.0,0
4441,0.0,-253.0,-72.0,0
4442,2.0,-255.0,-70.0,0
4443,1.0,-252.0,-69.0,0
4444,2.0,-253.0,-68.0,0
4445,3.0,-251.0,-71.0,0
4446,3.0,-252.0,-71.0,0
4447,4.0,-247.0,-70.0,0
4448,5.0,-245.0,-65.0,0
4449,5.0,-246.0,-64.0,0
4450,6.0,-245.0,-62.0,0
4451,5.0,-243.0,-63.0,0
4452,8.0,-247.0,-67.0,0
4453,7.0,-245.0,-65.0,0
4454,7.0,-247.0,-63.0,0
4455,4.0,-246.0,-67.0,0
4456,8.0,-243.0,-67.0,0
4457,7.0,-248.0,-68.0,0
4458,7.0,-242.0,-65.0,0
4459,3.0,-248.0,-63.0,0
4460,5.0,-247.0,-63.0,0
4461,3.0,-248.0,-61.0,0
4462,5.0,-251.0,-64.0,0
4463,1.0,-253.0,-64.0,0
4464,-2.0,-249.0,-62.0,0
4465,-1.0,-253.0,-66.0,0
4466,-3.0,-254.0,-68.0,0
4467,-2.0,-253.0,-70.0,0
4468,-1.0,-253.0,-65.0,0
4469,-2.0,-254.0,-66.0,0
4470,-3.0,-251.0,-63.0,0
4471,-3.0,-250.0,-65.0,0
4472,-3.0,-248.0,-70.0,0
4473,-4.0,-244.0,-70.0,0
4474,-2.0,-245.0,-71.0,0
4475,0.0,-242.0,-67.0,0
4476,-2.0,-246.0,-72.0,0
4477,3.0,-248.0,-68.0,0
4478,3.0,-246.0,-70.0,0
4479,6.0,-249.0,-72.0,0
4480,8.0,-249.0,-74.0,0
4481,7.0,-251.0,-75.0,0
4482,6.0,-252.0,-72.0,0
4483,5.0,-249.0,-68.0,0
4484,6.0,-253.0,-73.0,0
4485,6.0,-253.0,-75.0,0
4486,5.0,-251.0,-71.0,0
4487,5.0,-249.0,-72.0,0
4488,5.0,-251.0,-70.0,0
4489,4.0,-249.0,-70.0,0
4490,2.0,-250.0,-63.0,0
4491,2.0,-250.0,-65.0,0
4492,3.0,-249.0,-64.0,0
4493,0.0,-247.0,-68.0,0
4494,1.0,-249.0,-70.0,0
4495,-1.0,-245.0,-65.0,0
4496,-2.0,-248.0,-66.0,0
4497,-3.0,-248.0,-69.0,0
4498,-1.0,-248.0,-68.0,0
4499,0.0,-246.0,-69.0,0
4500,-2.0,-248.0,-67.0,0
4501,-2.0,-251.0,-66.0,0
4502,0.0,-248.0,-68.0,0
4503,3.0,-251.0,-70.0,0
4504,1.0,-249.0,-72.0,0
4505,3.0,-251.0,-73.0,0
4506,4.0,-250.0,-68.0,0
4507,3.0,-251.0,-72.0,0
4508,5.0,-250.0,-70.0,0
4509,4.0,-251.0,-73.0,0
4510,5.0,-250.0,-72.0,0
4511,5.0,-250.0,-71.0,0
4512,5.0,-250.0,-69.0,0
4513,5.0,-252.0,-74.0,0
4514,8.0,-253.0,-70.0,0
4515,4.0,-247.0,-71.0,0
4516,3.0,-246.0,-73.0,0
4517,1.0,-248.0,-66.0,0
4518,1.0,-244.0,-68.0,0
4519,2.0,-247.0,-67.0,0
4520,-1.0,-246.0,-68.0,0
4521,4.0,-247.0,-67.0,0
4522,4.0,-247.0,-69.0,0
4523,6.0,-247.0,-70.0,0
4524,4.0,-249.0,-65.0,0
4525,3.0,-247.0,-65.0,0
4526,4.0,-250.0,-66.0,0
4527,6.0,-250.0,-70.0,0
4528,5.0,-250.0,-69.0,0
4529,4.0,-251.0,-67.0,0
4530,3.0,-249.0,-69.0,0
4531,3.0,-249.0,-73.0,0
4532,5.0,-253.0,-73.0,0
4533,3.0,-247.0,-69.0,0
4534,4.0,-248.0,-69.0,0
4535,8.0,-251.0,-72.0,0
4536,7.0,-251.0,-73.0,0
4537,7.0,-250.0,-72.0,0
4538,5.0,-251.0,-70.0,0
4539,4.0,-252.0,-67.0,0
4540,6.0,-251.0,-71.0,0
4541,9.0,-250.0,-69.0,0
4542,7.0,-252.0,-66.0,0
4543,6.0,-248.0,-67.0,0
4544,5.0,-249.0,-62.0,0
4545,2.0,-250.0,-63.0,0
4546,-1.0,-250.0,-63.0,0
4547,1.0,-249.0,-63.0,0
4548,3.0,-246.0,-61.0,0
4549,1.0,-250.0,-59.0,0
4550,0.0,-250.0,-65.0,0
4551,1.0,-251.0,-58.0,0
4552,1.0,-251.0,-59.0,0
4553,1.0,-251.0,-61.0,0
4554,2.0,-250.0,-62.0,0
4555,1.0,-250.0,-61.0,0
4556,3.0,-249.0,-63.0,0
4557,0.0,-249.0,-63.0,0
4558,2.0,-249.0,-63.0,0
4559,5.0,-249.0,-66.0,0
4560,5.0,-249.0,-68.0,0
4561,4.0,-249.0,-70.0,0
4562,2.0,-248.0,-68.0,0
4563,6.0,-250.0,-71.0,0
4564,6.0,-246.0,-69.0,0
4565,6.0,-246.0,-71.0,0
4566,7.0,-250.0,-66.0,0
4567,9.0,-249.0,-66.0,0
4568,7.0,-251.0,-67.0,0
4569,9.0,-252.0,-69.0,0
4570,8.0,-251.0,-64.0,0
4571,8.0,-252.0,-65.0,0
4572,9.0,-251.0,-65.0,0
4573,6.0,-250.0,-64.0,0
4574,5.0,-248.0,-61.0,0
4575,5.0,-252.0,-60.0,0
4576,2.0,-251.0,-67.0,0
4577,3.0,-253.0,-66.0,0
4578,4.0,-250.0,-65.0,0
4579,2.0,-249.0,-67.0,0
4580,0.0,-247.0,-62.0,0
4581,3.0,-247.0,-68.0,0
4582,5.0,-250.0,-65.0,0
4583,4.0,-245.0,-69.0,0
4584,4.0,-245.0,-72.0,0
4585,4.0,-246.0,-67.0,0
4586,2.0,-246.0,-69.0,0
4587,2.0,-248.0,-64.0,0
4588,3.0,-250.0,-64.0,0
4589,4.0,-249.0,-65.0,0
4590,2.0,-250.0,-64.0,0
4591,3.0,-250.0,-65.0,0
4592,5.0,-254.0,-64.0,0
4593,1.0,-254.0,-62.0,0
4594,5.0,-253.0,-64.0,0
4595,5.0,-254.0,-64.0,0
4596,7.0,-253.0,-65.0,0
4597,4.0,-254.0,-69.0,0
4598,2.0,-253.0,-63.0,0
4599,-2.0,-250.0,-88.0,0
4600,-3.0,-251.0,-61.0,0
4601,7.0,-244.0,-73.0,0
4602,7.0,-251.0,-62.0,0
4603,6.0,-248.0,-60.0,0
4604,4.0,-249.0,-59.0,0
4605,4.0,-246.0,-60.0,0
4606,5.0,-248.0,-64.0,0
4607,2.0,-246.0,-64.0,0
4608,1.0,-246.0,-63.0,0
4609,1.0,-248.0,-61.0,0
4610,6.0,-251.0,-63.0,0
4611,3.0,-250.0,-63.0,0
4612,3.0,-250.0,-65.0,0
4613,6.0,-252.0,-62.0,0
4614,5.0,-253.0,-65.0,0
4615,5.0,-251.0,-68.0,0
4616,5.0,-252.0,-64.0,0
4617,5.0,-251.0,-63.0,0
4618,4.0,-253.0,-65.0,0
4619,5.0,-251.0,-67.0,0
4620,5.0,-252.0,-65.0,0
4621,6.0,-248.0,-66.0,0
4622,4.0,-248.0,-61.0,0
4623,6.0,-250.0,-65.0,0
4624,5.0,-250.0,-63.0,0
4625,4.0,-249.0,-65.0,0
4626,2.0,-247.0,-66.0,0
4627,6.0,-250.0,-68.0,0
4628,5.0,-247.0,-68.0,0
4629,4.0,-250.0,-67.0,0
4630,4.0,-250.0,-62.0,0
4631,4.0,-250.0,-65.0,0
4632,5.0,-252.0,-66.0,0
4633,5.0,-251.0,-64.0,0
4634,3.0,-248.0,-67.0,0
4635,6.0,-252.0,-66.0,0
4636,3.0,-249.0,-66.0,0
4637,5.0,-247.0,-63.0,0
4638,6.0,-248.0,-66.0,0
4639,4.0,-249.0,-67.0,0
4640,6.0,-249.0,-64.0,0
4641,5.0,-247.0,-65.0,0
4642,8.0,-249.0,-66.0,0
4643,8.0,-248.0,-67.0,0
4644,8.0,-247.0,-70.0,0
4645,8.0,-246.0,-67.0,0
4646,6.0,-249.0,-66.0,0
4647,11.0,-248.0,-67.0,0
4648,9.0,-252.0,-68.0,0
4649,6.0,-251.0,-65.0,0
4650,5.0,-250.0,-67.0,0
4651,5.0,-248.0,-66.0,0
4652,8.0,-252.0,-62.0,0
4653,6.0,-252.0,-67.0,0
4654,6.0,-252.0,-62.0,0
4655,4.0,-249.0,-64.0,0
4656,7.0,-249.0,-68.0,0
4657,3.0,-250.0,-67.0,0
4658,3.0,-250.0,-62.0,0
4659,4.0,-252.0,-63.0,0
4660,3.0,-249.0,-62.0,0
4661,3.0,-249.0,-61.0,0
4662,5.0,-251.0,-64.0,0
4663,3.0,-248.0,-62.0,0
4664,5.0,-250.0,-63.0,0
4665,4.0,-250.0,-65.0,0
4666,4.0,-251.0,-68.0,0
4667,3.0,-251.0,-64.0,0
4668,3.0,-250.0,-64.0,0
4669,4.0,-251.0,-66.0,0
4670,4.0,-249.0,-62.0,0
4671,4.0,-247.0,-65.0,0
4672,3.0,-249.0,-64.0,0
4673,3.0,-249.0,-65.0,0
4674,4.0,-249.0,-66.0,0
4675,6.0,-247.0,-62.0,0
4676,5.0,-249.0,-66.0,0
4677,6.0,-250.0,-67.0,0
4678,8.0,-249.0,-64.0,0
4679,5.0,-249.0,-64.0,0
4680,5.0,-248.0,-62.0,0
4681,9.0,-249.0,-68.0,0
4682,9.0,-249.0,-66.0,0
4683,6.0,-251.0,-65.0,0
4684,4.0,-249.0,-65.0,0
4685,6.0,-251.0,-62.0,0
4686,4.0,-248.0,-66.0,0
4687,5.0,-250.0,-64.0,0
4688,3.0,-248.0,-64.0,0
4689,3.0,-250.0,-64.0,0
4690,5.0,-248.0,-65.0,0
4691,1.0,-248.0,-64.0,0
4692,5.0,-248.0,-65.0,0
4693,3.0,-253.0,-68.0,0
4694,1.0,-247.0,-68.0,0
4695,2.0,-248.0,-64.0,0
4696,3.0,-247.0,-69.0,0
4697,1.0,-246.0,-68.0,0
4698,0.0,-248.0,-65.0,0
4699,2.0,-247.0,-66.0,0
4700,2.0,-250.0,-66.0,0
4701,3.0,-251.0,-65.0,0
4702,2.0,-249.0,-69.0,0
4703,5.0,-253.0,-65.0,0
4704,3.0,-255.0,-64.0,0
4705,5.0,-256.0,-68.0,0
4706,7.0,-252.0,-64.0,0
4707,4.0,-253.0,-65.0,0
4708,5.0,-252.0,-64.0,0
4709,7.0,-251.0,-66.0,0
4710,6.0,-250.0,-65.0,0
4711,5.0,-249.0,-67.0,0
4712,5.0,-248.0,-67.0,0
4713,4.0,-246.0,-64.0,0
4714,3.0,-248.0,-63.0,0
4715,4.0,-247.0,-65.0,0
4716,6.0,-249.0,-64.0,0
4717,7.0,-248.0,-64.0,0
4718,1.0,-246.0,-61.0,0
4719,2.0,-248.0,-66.0,0
4720,4.0,-252.0,-66.0,0
4721,5.0,-253.0,-65.0,0
4722,5.0,-251.0,-66.0,0
4723,6.0,-252.0,-67.0,0
4724,3.0,-249.0,-65.0,0
4725,2.0,-249.0,-65.0,0
4726,1.0,-250.0,-68.0,0
4727,6.0,-247.0,-66.0,0
4728,3.0,-249.0,-66.0,0
4729,4.0,-247.0,-66.0,0
4730,4.0,-245.0,-69.0,0
4731,6.0,-246.0,-66.0,0
4732,6.0,-246.0,-64.0,0
4733,6.0,-244.0,-66.0,0
4734,8.0,-248.0,-66.0,0
4735,2.0,-243.0,-69.0,0
4736,6.0,-248.0,-68.0,0
4737,7.0,-249.0,-64.0,0
4738,6.0,-249.0,-63.0,0
4739,5.0,-250.0,-69.0,0
4740,5.0,-252.0,-65.0,0
4741,5.0,-253.0,-68.0,0
4742,4.0,-253.0,-66.0,0
4743,3.0,-252.0,-65.0,0
4744,4.0,-253.0,-68.0,0
4745,7.0,-253.0,-65.0,0
4746,5.0,-251.0,-64.0,0
4747,3.0,-252.0,-66.0,0
4748,7.0,-252.0,-72.0,0
4749,5.0,-252.0,-69.0,0
4750,5.0,-246.0,-68.0,0
4751,8.0,-249.0,-67.0,0
4752,10.0,-253.0,-66.0,0
4753,7.0,-251.0,-69.0,0
4754,3.0,-249.0,-68.0,0
4755,6.0,-250.0,-63.0,0
4756,4.0,-247.0,-65.0,0
4757,4.0,-247.0,-65.0,0
4758,3.0,-248.0,-62.0,0
4759,5.0,-245.0,-64.0,0
4760,5.0,-250.0,-68.0,0
4761,6.0,-249.0,-65.0,0
4762,4.0,-247.0,-64.0,0
4763,4.0,-248.0,-64.0,0
4764,6.0,-251.0,-63.0,0
4765,6.0,-249.0,-64.0,0
4766,6.0,-250.0,-67.0,0
4767,8.0,-247.0,-63.0,0
4768,4.0,-246.0,-64.0,0
4769,7.0,-249.0,-63.0,0
4770,5.0,-252.0,-62.0,0
4771,4.0,-247.0,-64.0,0
4772,5.0,-248.0,-66.0,0
4773,4.0,-246.0,-61.0,0
4774,3.0,-247.0,-64.0,0
