,accelerometer_x,accelerometer_y,accelerometer_z,fall
0,-9.0,-252.0,-24.0,0
1,-10.0,-251.0,-27.0,0
2,-5.0,-256.0,-27.0,0
3,-9.0,-252.0,-28.0,0
4,-8.0,-252.0,-25.0,0
5,-9.0,-246.0,-27.0,0
6,-6.0,-256.0,-25.0,0
7,-4.0,-256.0,-23.0,0
8,-5.0,-254.0,-23.0,0
9,-5.0,-254.0,-22.0,0
10,-4.0,-257.0,-27.0,0
11,-4.0,-255.0,-24.0,0
12,-4.0,-256.0,-24.0,0
13,-7.0,-254.0,-26.0,0
14,-3.0,-254.0,-26.0,0
15,-7.0,-254.0,-23.0,0
16,-4.0,-250.0,-22.0,0
17,-6.0,-253.0,-24.0,0
18,-4.0,-256.0,-16.0,0
19,-2.0,-253.0,-19.0,0
20,-1.0,-254.0,-20.0,0
21,-4.0,-252.0,-20.0,0
22,-5.0,-253.0,-21.0,0
23,0.0,-254.0,-20.0,0
24,-2.0,-258.0,-22.0,0
25,-2.0,-257.0,-23.0,0
26,-4.0,-254.0,-26.0,0
27,-6.0,-254.0,-25.0,0
28,-7.0,-256.0,-22.0,0
29,-2.0,-255.0,-22.0,0
30,-5.0,-256.0,-21.0,0
31,-9.0,-251.0,-22.0,0
32,-8.0,-252.0,-22.0,0
33,-7.0,-254.0,-21.0,0
34,-4.0,-257.0,-20.0,0
35,-7.0,-249.0,-21.0,0
36,-7.0,-252.0,-20.0,0
37,-6.0,-251.0,-21.0,0
38,-1.0,-253.0,-20.0,0
39,-1.0,-250.0,-23.0,0
40,-1.0,-251.0,-20.0,0
41,-1.0,-254.0,-20.0,0
42,0.0,-253.0,-22.0,0
43,-2.0,-250.0,-20.0,0
44,-2.0,-256.0,-20.0,0
45,-2.0,-256.0,-21.0,0
46,3.0,-256.0,-20.0,0
47,1.0,-256.0,-21.0,0
48,2.0,-256.0,-19.0,0
49,0.0,-257.0,-19.0,0
50,2.0,-259.0,-20.0,0
51,1.0,-259.0,-23.0,0
52,2.0,-259.0,-19.0,0
53,2.0,-258.0,-22.0,0
54,0.0,-259.0,-22.0,0
55,-1.0,-256.0,-20.0,0
56,1.0,-258.0,-22.0,0
57,-2.0,-256.0,-18.0,0
58,-1.0,-255.0,-20.0,0
59,-1.0,-256.0,-21.0,0
60,0.0,-255.0,-20.0,0
61,0.0,-257.0,-22.0,0
62,0.0,-257.0,-22.0,0
63,0.0,-258.0,-23.0,0
64,0.0,-260.0,-25.0,0
65,-2.0,-257.0,-22.0,0
66,-4.0,-257.0,-20.0,0
67,-1.0,-260.0,-22.0,0
68,-1.0,-259.0,-18.0,0
69,-4.0,-263.0,-19.0,0
70,-6.0,-262.0,-20.0,0
71,-3.0,-258.0,-16.0,0
72,-6.0,-258.0,-19.0,0
73,-1.0,-256.0,-18.0,0
74,-7.0,-254.0,-17.0,0
75,-3.0,-252.0,-20.0,0
76,-5.0,-252.0,-19.0,0
77,-6.0,-253.0,-22.0,0
78,-8.0,-253.0,-18.0,0
79,-5.0,-254.0,-21.0,0
80,-7.0,-256.0,-18.0,0
81,-8.0,-253.0,-20.0,0
82,-5.0,-253.0,-15.0,0
83,-4.0,-258.0,-18.0,0
84,-4.0,-254.0,-14.0,0
85,-7.0,-254.0,-15.0,0
86,-2.0,-254.0,-18.0,0
87,-1.0,-253.0,-16.0,0
88,-5.0,-255.0,-15.0,0
89,-5.0,-254.0,-16.0,0
90,0.0,-254.0,-18.0,0
91,-2.0,-254.0,-18.0,0
92,0.0,-254.0,-17.0,0
93,1.0,-254.0,-17.0,0
94,-1.0,-253.0,-16.0,0
95,-1.0,-255.0,-20.0,0
96,0.0,-251.0,-19.0,0
97,-2.0,-252.0,-20.0,0
98,0.0,-253.0,-21.0,0
99,1.0,-253.0,-19.0,0
100,2.0,-256.0,-18.0,0
101,4.0,-253.0,-22.0,0
102,0.0,-256.0,-20.0,0
103,1.0,-255.0,-22.0,0
104,0.0,-259.0,-26.0,0
105,0.0,-255.0,-26.0,0
106,0.0,-257.0,-27.0,0
107,-1.0,-255.0,-28.0,0
108,-5.0,-253.0,-28.0,0
109,-2.0,-255.0,-29.0,0
110,-9.0,-254.0,-30.0,0
111,-6.0,-254.0,-31.0,0
112,-7.0,-249.0,-28.0,0
113,-10.0,-255.0,-29.0,0
114,-3.0,-251.0,-33.0,0
115,-3.0,-252.0,-31.0,0
116,-2.0,-249.0,-28.0,0
117,-4.0,-249.0,-24.0,0
118,-6.0,-253.0,-24.0,0
119,-5.0,-251.0,-25.0,0
120,-7.0,-251.0,-29.0,0
121,-10.0,-253.0,-30.0,0
122,-10.0,-251.0,-24.0,0
123,-10.0,-252.0,-24.0,0
124,-14.0,-250.0,-22.0,0
125,-13.0,-248.0,-24.0,0
126,-16.0,-244.0,-31.0,0
127,-16.0,-244.0,-33.0,0
128,-16.0,-241.0,-33.0,0
129,-16.0,-234.0,-34.0,0
130,-19.0,-233.0,-38.0,0
131,-19.0,-233.0,-35.0,0
132,-21.0,-228.0,-38.0,0
133,-26.0,-227.0,-39.0,0
134,-26.0,-232.0,-35.0,0
135,-27.0,-229.0,-42.0,0
136,-26.0,-238.0,-42.0,0
137,-30.0,-244.0,-38.0,0
138,-27.0,-248.0,-35.0,0
139,-25.0,-252.0,-34.0,0
140,-23.0,-259.0,-33.0,0
141,-22.0,-264.0,-34.0,0
142,-18.0,-272.0,-32.0,0
143,-17.0,-272.0,-32.0,0
144,-18.0,-277.0,-34.0,0
145,-13.0,-278.0,-29.0,0
146,-7.0,-278.0,-35.0,0
147,-3.0,-279.0,-35.0,0
148,-1.0,-276.0,-35.0,0
149,1.0,-270.0,-29.0,0
150,5.0,-265.0,-29.0,0
151,5.0,-260.0,-25.0,0
152,8.0,-259.0,-27.0,0
153,5.0,-252.0,-20.0,0
154,8.0,-251.0,-17.0,0
155,6.0,-248.0,-18.0,0
156,3.0,-249.0,-14.0,0
157,0.0,-249.0,-21.0,0
158,-2.0,-250.0,-21.0,0
159,-6.0,-249.0,-28.0,0
160,-14.0,-256.0,-26.0,0
161,-16.0,-259.0,-32.0,0
162,-16.0,-262.0,-33.0,0
163,-21.0,-266.0,-38.0,0
164,-21.0,-268.0,-38.0,0
165,-23.0,-267.0,-39.0,0
166,-25.0,-267.0,-41.0,0
167,-24.0,-269.0,-45.0,0
168,-22.0,-264.0,-42.0,0
169,-21.0,-262.0,-43.0,0
170,-23.0,-263.0,-44.0,0
171,-20.0,-258.0,-41.0,0
172,-24.0,-252.0,-41.0,0
173,-22.0,-250.0,-38.0,0
174,-24.0,-247.0,-38.0,0
175,-24.0,-246.0,-29.0,0
176,-25.0,-246.0,-30.0,0
177,-26.0,-241.0,-28.0,0
178,-33.0,-243.0,-39.0,0
179,-31.0,-239.0,-22.0,0
180,-31.0,-241.0,-21.0,0
181,-30.0,-241.0,-24.0,0
182,-28.0,-241.0,-20.0,0
183,-31.0,-242.0,-22.0,0
184,-28.0,-242.0,-24.0,0
185,-25.0,-248.0,-24.0,0
186,-26.0,-248.0,-27.0,0
187,-23.0,-251.0,-25.0,0
188,-21.0,-251.0,-26.0,0
189,-19.0,-254.0,-27.0,0
190,-18.0,-255.0,-26.0,0
191,-17.0,-256.0,-29.0,0
192,-12.0,-257.0,-25.0,0
193,-9.0,-260.0,-24.0,0
194,-8.0,-262.0,-29.0,0
195,-9.0,-261.0,-28.0,0
196,-7.0,-258.0,-24.0,0
197,-10.0,-260.0,-24.0,0
198,-5.0,-257.0,-21.0,0
199,-10.0,-258.0,-20.0,0
200,-8.0,-255.0,-13.0,0
201,-9.0,-251.0,-18.0,0
202,-7.0,-253.0,-17.0,0
203,-11.0,-251.0,-14.0,0
204,-13.0,-249.0,-16.0,0
205,-19.0,-245.0,-15.0,0
206,-21.0,-248.0,-12.0,0
207,-24.0,-248.0,-18.0,0
208,-29.0,-247.0,-18.0,0
209,-34.0,-248.0,-19.0,0
210,-34.0,-251.0,-19.0,0
211,-34.0,-250.0,-20.0,0
212,-35.0,-250.0,-19.0,0
213,-31.0,-253.0,-20.0,0
214,-35.0,-254.0,-18.0,0
215,-29.0,-260.0,-20.0,0
216,-31.0,-258.0,-16.0,0
217,-28.0,-256.0,-14.0,0
218,-25.0,-259.0,-16.0,0
219,-22.0,-257.0,-16.0,0
220,-17.0,-254.0,-13.0,0
221,-16.0,-260.0,-11.0,0
222,-15.0,-252.0,-10.0,0
223,-16.0,-253.0,-11.0,0
224,-14.0,-251.0,-8.0,0
225,-16.0,-250.0,-10.0,0
226,-17.0,-251.0,-12.0,0
227,-12.0,-251.0,-10.0,0
228,-13.0,-250.0,-13.0,0
229,-14.0,-249.0,-17.0,0
230,-11.0,-250.0,-22.0,0
231,-10.0,-252.0,-20.0,0
232,-15.0,-253.0,-23.0,0
233,-12.0,-254.0,-23.0,0
234,-9.0,-258.0,-18.0,0
235,-13.0,-258.0,-21.0,0
236,-15.0,-256.0,-19.0,0
237,-15.0,-254.0,-21.0,0
238,-10.0,-259.0,-19.0,0
239,-15.0,-256.0,-19.0,0
240,-17.0,-254.0,-18.0,0
241,-22.0,-249.0,-18.0,0
242,-22.0,-254.0,-17.0,0
243,-25.0,-252.0,-7.0,0
244,-36.0,-254.0,-19.0,0
245,-44.0,-258.0,-11.0,0
246,-50.0,-261.0,-12.0,0
247,-60.0,-267.0,-12.0,0
248,-63.0,-268.0,-13.0,0
249,-65.0,-273.0,-16.0,0
250,-68.0,-277.0,-18.0,0
251,-71.0,-280.0,-19.0,0
252,-71.0,-283.0,-19.0,0
253,-72.0,-284.0,-20.0,0
254,-68.0,-285.0,-20.0,0
255,-69.0,-284.0,-14.0,0
256,-68.0,-284.0,-15.0,0
257,-66.0,-281.0,-15.0,0
258,-63.0,-284.0,-16.0,0
259,-68.0,-278.0,-16.0,0
260,-70.0,-277.0,-21.0,0
261,-74.0,-281.0,-31.0,0
262,-71.0,-288.0,-47.0,0
263,-56.0,-297.0,-59.0,0
264,-40.0,-317.0,-63.0,0
265,-36.0,-325.0,-54.0,0
266,-44.0,-336.0,-46.0,0
267,-50.0,-340.0,-36.0,0
268,-46.0,-336.0,-35.0,0
269,-46.0,-330.0,-34.0,0
270,-50.0,-319.0,-32.0,0
271,-48.0,-313.0,-39.0,0
272,-44.0,-311.0,-40.0,0
273,-37.0,-308.0,-45.0,0
274,-32.0,-308.0,-52.0,0
275,-24.0,-303.0,-49.0,0
276,-24.0,-299.0,-49.0,0
277,-21.0,-292.0,-46.0,0
278,-25.0,-287.0,-38.0,0
279,-27.0,-275.0,-36.0,0
280,-25.0,-265.0,-40.0,0
281,-20.0,-254.0,-43.0,0
282,-13.0,-246.0,-53.0,0
283,-6.0,-240.0,-59.0,0
284,0.0,-232.0,-56.0,0
285,0.0,-227.0,-65.0,0
286,0.0,-219.0,-76.0,0
287,4.0,-215.0,-80.0,0
288,7.0,-209.0,-86.0,0
289,11.0,-204.0,-86.0,0
290,12.0,-196.0,-86.0,0
291,14.0,-189.0,-87.0,0
292,17.0,-182.0,-95.0,0
293,23.0,-177.0,-87.0,0
294,28.0,-173.0,-90.0,0
295,28.0,-171.0,-93.0,0
296,27.0,-174.0,-89.0,0
297,32.0,-175.0,-91.0,0
298,29.0,-182.0,-89.0,0
299,27.0,-187.0,-85.0,0
300,24.0,-200.0,-82.0,0
301,22.0,-209.0,-77.0,0
302,12.0,-222.0,-74.0,0
303,4.0,-231.0,-66.0,0
304,0.0,-244.0,-64.0,0
305,-5.0,-251.0,-58.0,0
306,-7.0,-262.0,-56.0,0
307,-18.0,-267.0,-60.0,0
308,-24.0,-280.0,-65.0,0
309,-23.0,-289.0,-61.0,0
310,-23.0,-296.0,-69.0,0
311,-26.0,-301.0,-76.0,0
312,-33.0,-302.0,-80.0,0
313,-30.0,-305.0,-78.0,0
314,-36.0,-304.0,-74.0,0
315,-33.0,-302.0,-74.0,0
316,-32.0,-296.0,-63.0,0
317,-32.0,-290.0,-55.0,0
318,-30.0,-278.0,-57.0,0
319,-28.0,-273.0,-51.0,0
320,-25.0,-263.0,-51.0,0
321,-19.0,-256.0,-49.0,0
322,-19.0,-247.0,-49.0,0
323,-10.0,-242.0,-50.0,0
324,-6.0,-235.0,-45.0,0
325,-1.0,-230.0,-45.0,0
326,0.0,-229.0,-44.0,0
327,6.0,-228.0,-41.0,0
328,13.0,-228.0,-41.0,0
329,15.0,-227.0,-35.0,0
330,20.0,-232.0,-36.0,0
331,23.0,-230.0,-29.0,0
332,23.0,-232.0,-28.0,0
333,24.0,-234.0,-30.0,0
334,27.0,-234.0,-28.0,0
335,24.0,-230.0,-30.0,0
336,23.0,-231.0,-32.0,0
337,21.0,-235.0,-30.0,0
338,14.0,-233.0,-32.0,0
339,8.0,-233.0,-36.0,0
340,9.0,-230.0,-30.0,0
341,7.0,-232.0,-28.0,0
342,1.0,-232.0,-30.0,0
343,2.0,-231.0,-26.0,0
344,-1.0,-228.0,-25.0,0
345,-6.0,-225.0,-21.0,0
346,-4.0,-224.0,-22.0,0
347,-9.0,-223.0,-17.0,0
348,-11.0,-222.0,-20.0,0
349,-15.0,-216.0,-21.0,0
350,-14.0,-215.0,-20.0,0
351,-12.0,-217.0,-21.0,0
352,-10.0,-215.0,-21.0,0
353,-9.0,-219.0,-20.0,0
354,-8.0,-217.0,-22.0,0
355,-4.0,-219.0,-19.0,0
356,-4.0,-221.0,-21.0,0
357,-1.0,-225.0,-16.0,0
358,4.0,-228.0,-18.0,0
359,4.0,-232.0,-16.0,0
360,11.0,-235.0,-14.0,0
361,8.0,-236.0,-16.0,0
362,13.0,-243.0,-18.0,0
363,14.0,-242.0,-17.0,0
364,15.0,-248.0,-19.0,0
365,16.0,-250.0,-19.0,0
366,12.0,-249.0,-17.0,0
367,12.0,-248.0,-20.0,0
368,11.0,-248.0,-19.0,0
369,10.0,-252.0,-21.0,0
370,7.0,-251.0,-20.0,0
371,6.0,-249.0,-25.0,0
372,4.0,-249.0,-27.0,0
373,3.0,-251.0,-29.0,0
374,2.0,-252.0,-28.0,0
375,-1.0,-255.0,-28.0,0
376,-8.0,-256.0,-26.0,0
377,-13.0,-264.0,-22.0,0
378,-14.0,-264.0,-18.0,0
379,-19.0,-272.0,-14.0,0
380,-22.0,-279.0,-12.0,0
381,-21.0,-286.0,-8.0,0
382,-21.0,-297.0,-2.0,0
383,-28.0,-300.0,0.0,0
384,-26.0,-307.0,2.0,0
385,-27.0,-314.0,10.0,0
386,-28.0,-316.0,14.0,0
387,-31.0,-317.0,16.0,0
388,-23.0,-318.0,17.0,0
389,-17.0,-317.0,16.0,0
390,-9.0,-318.0,18.0,0
391,1.0,-315.0,16.0,0
392,14.0,-319.0,3.0,0
393,30.0,-321.0,-11.0,0
394,43.0,-332.0,-27.0,0
395,41.0,-348.0,-56.0,0
396,31.0,-356.0,-80.0,0
397,33.0,-372.0,-90.0,0
398,43.0,-396.0,-82.0,0
399,45.0,-424.0,-64.0,0
400,39.0,-429.0,-51.0,0
401,35.0,-419.0,-43.0,0
402,45.0,-402.0,-44.0,0
403,57.0,-376.0,-45.0,0
404,60.0,-362.0,-49.0,0
405,50.0,-334.0,-47.0,0
406,40.0,-309.0,-50.0,0
407,33.0,-282.0,-62.0,0
408,29.0,-252.0,-73.0,0
409,28.0,-232.0,-76.0,0
410,24.0,-220.0,-73.0,0
411,16.0,-214.0,-71.0,0
412,13.0,-207.0,-73.0,0
413,7.0,-198.0,-71.0,0
414,1.0,-193.0,-77.0,0
415,-8.0,-182.0,-84.0,0
416,-21.0,-172.0,-90.0,0
417,-28.0,-169.0,-92.0,0
418,-39.0,-159.0,-97.0,0
419,-50.0,-151.0,-101.0,0
420,-56.0,-147.0,-109.0,0
421,-64.0,-142.0,-107.0,0
422,-65.0,-147.0,-111.0,0
423,-61.0,-151.0,-110.0,0
424,-61.0,-163.0,-108.0,0
425,-52.0,-177.0,-106.0,0
426,-45.0,-195.0,-101.0,0
427,-35.0,-212.0,-97.0,0
428,-26.0,-227.0,-92.0,0
429,-11.0,-243.0,-87.0,0
430,-1.0,-253.0,-83.0,0
431,6.0,-268.0,-81.0,0
432,13.0,-275.0,-75.0,0
433,25.0,-285.0,-78.0,0
434,36.0,-290.0,-72.0,0
435,40.0,-287.0,-75.0,0
436,53.0,-294.0,-73.0,0
437,55.0,-293.0,-69.0,0
438,55.0,-285.0,-72.0,0
439,56.0,-278.0,-74.0,0
440,53.0,-268.0,-64.0,0
441,47.0,-264.0,-66.0,0
442,47.0,-255.0,-68.0,0
443,39.0,-248.0,-62.0,0
444,36.0,-244.0,-56.0,0
445,26.0,-233.0,-54.0,0
446,20.0,-228.0,-52.0,0
447,19.0,-222.0,-47.0,0
448,10.0,-220.0,-47.0,0
449,5.0,-219.0,-44.0,0
450,0.0,-218.0,-43.0,0
451,-3.0,-218.0,-47.0,0
452,-9.0,-221.0,-45.0,0
453,-16.0,-220.0,-45.0,0
454,-19.0,-223.0,-45.0,0
455,-23.0,-223.0,-45.0,0
456,-25.0,-220.0,-45.0,0
457,-29.0,-223.0,-45.0,0
458,-31.0,-221.0,-45.0,0
459,-28.0,-219.0,-43.0,0
460,-27.0,-221.0,-38.0,0
461,-27.0,-222.0,-36.0,0
462,-26.0,-221.0,-36.0,0
463,-25.0,-222.0,-33.0,0
464,-24.0,-219.0,-31.0,0
465,-19.0,-220.0,-24.0,0
466,-18.0,-219.0,-22.0,0
467,-17.0,-221.0,-19.0,0
468,-15.0,-220.0,-18.0,0
469,-14.0,-223.0,-16.0,0
470,-11.0,-226.0,-18.0,0
471,-12.0,-226.0,-20.0,0
472,-11.0,-230.0,-19.0,0
473,-10.0,-231.0,-19.0,0
474,-11.0,-233.0,-20.0,0
475,-10.0,-234.0,-19.0,0
476,-13.0,-236.0,-20.0,0
477,-15.0,-235.0,-23.0,0
478,-13.0,-241.0,-21.0,0
479,-13.0,-240.0,-27.0,0
480,-14.0,-241.0,-20.0,0
481,-16.0,-245.0,-30.0,0
482,-17.0,-244.0,-21.0,0
483,-17.0,-246.0,-27.0,0
484,-20.0,-247.0,-25.0,0
485,-17.0,-250.0,-24.0,0
486,-14.0,-252.0,-25.0,0
487,-16.0,-254.0,-20.0,0
488,-18.0,-256.0,-22.0,0
489,-19.0,-255.0,-19.0,0
490,-16.0,-260.0,-13.0,0
491,-18.0,-261.0,-14.0,0
492,-18.0,-264.0,-10.0,0
493,-15.0,-272.0,-7.0,0
494,-16.0,-282.0,-8.0,0
495,-11.0,-287.0,-9.0,0
496,-10.0,-292.0,-16.0,0
497,-12.0,-294.0,-18.0,0
498,-15.0,-292.0,-22.0,0
499,-19.0,-293.0,-21.0,0
500,-21.0,-298.0,-24.0,0
501,-31.0,-294.0,-25.0,0
502,-37.0,-289.0,-27.0,0
503,-48.0,-288.0,-16.0,0
504,-52.0,-288.0,-12.0,0
505,-57.0,-285.0,-6.0,0
506,-59.0,-283.0,2.0,0
507,-62.0,-283.0,6.0,0
508,-64.0,-282.0,13.0,0
509,-67.0,-283.0,19.0,0
510,-72.0,-281.0,25.0,0
511,-74.0,-284.0,24.0,0
512,-79.0,-281.0,30.0,0
513,-82.0,-281.0,24.0,0
514,-87.0,-279.0,24.0,0
515,-101.0,-276.0,10.0,0
516,-99.0,-275.0,-23.0,0
517,-76.0,-280.0,-58.0,0
518,-44.0,-310.0,-87.0,0
519,-18.0,-335.0,-82.0,0
520,-25.0,-364.0,-42.0,0
521,-32.0,-383.0,-6.0,0
522,-30.0,-390.0,-2.0,0
523,-22.0,-383.0,-10.0,0
524,-19.0,-360.0,-13.0,0
525,-36.0,-346.0,-25.0,0
526,-49.0,-319.0,-38.0,0
527,-49.0,-301.0,-60.0,0
528,-47.0,-276.0,-83.0,0
529,-39.0,-253.0,-99.0,0
530,-28.0,-244.0,-108.0,0
531,-27.0,-230.0,-107.0,0
532,-28.0,-220.0,-96.0,0
533,-25.0,-204.0,-92.0,0
534,-15.0,-189.0,-88.0,0
535,-5.0,-179.0,-87.0,0
536,12.0,-169.0,-93.0,0
537,28.0,-161.0,-98.0,0
538,46.0,-158.0,-98.0,0
539,64.0,-161.0,-90.0,0
540,76.0,-165.0,-86.0,0
541,89.0,-178.0,-82.0,0
542,95.0,-192.0,-78.0,0
543,95.0,-210.0,-74.0,0
544,84.0,-226.0,-70.0,0
545,71.0,-242.0,-68.0,0
546,61.0,-255.0,-63.0,0
547,50.0,-272.0,-65.0,0
548,33.0,-281.0,-66.0,0
549,21.0,-294.0,-68.0,0
550,7.0,-304.0,-69.0,0
551,-6.0,-316.0,-63.0,0
552,-22.0,-321.0,-61.0,0
553,-35.0,-323.0,-61.0,0
554,-43.0,-320.0,-55.0,0
555,-52.0,-317.0,-55.0,0
556,-54.0,-307.0,-53.0,0
557,-48.0,-293.0,-53.0,0
558,-51.0,-276.0,-52.0,0
559,-45.0,-257.0,-50.0,0
560,-45.0,-244.0,-42.0,0
561,-35.0,-235.0,-36.0,0
562,-33.0,-223.0,-37.0,0
563,-27.0,-215.0,-33.0,0
564,-29.0,-206.0,-32.0,0
565,-24.0,-197.0,-31.0,0
566,-19.0,-194.0,-29.0,0
567,-15.0,-187.0,-36.0,0
568,-12.0,-193.0,-29.0,0
569,-12.0,-194.0,-33.0,0
570,-7.0,-192.0,-30.0,0
571,-5.0,-199.0,-26.0,0
572,-5.0,-204.0,-28.0,0
573,2.0,-208.0,-27.0,0
574,2.0,-210.0,-30.0,0
575,8.0,-214.0,-30.0,0
576,13.0,-215.0,-27.0,0
577,13.0,-224.0,-22.0,0
578,15.0,-222.0,-20.0,0
579,23.0,-227.0,-21.0,0
580,22.0,-229.0,-18.0,0
581,30.0,-227.0,-20.0,0
582,28.0,-229.0,-18.0,0
583,32.0,-226.0,-16.0,0
584,31.0,-224.0,-13.0,0
585,25.0,-219.0,-8.0,0
586,26.0,-211.0,-11.0,0
587,22.0,-202.0,-12.0,0
588,17.0,-204.0,-13.0,0
589,13.0,-198.0,-7.0,0
590,13.0,-205.0,-9.0,0
591,6.0,-209.0,-10.0,0
592,3.0,-209.0,-12.0,0
593,1.0,-219.0,-12.0,0
594,-2.0,-225.0,-9.0,0
595,0.0,-228.0,-14.0,0
596,0.0,-233.0,-14.0,0
597,-3.0,-236.0,-18.0,0
598,-1.0,-237.0,-18.0,0
599,1.0,-240.0,-19.0,0
600,-1.0,-242.0,-19.0,0
601,-2.0,-241.0,-21.0,0
602,0.0,-242.0,-18.0,0
603,0.0,-243.0,-17.0,0
604,0.0,-242.0,-18.0,0
605,-2.0,-248.0,-11.0,0
606,-3.0,-249.0,-4.0,0
607,-7.0,-253.0,-1.0,0
608,-8.0,-257.0,-5.0,0
609,-9.0,-268.0,-10.0,0
610,-9.0,-273.0,-15.0,0
611,-8.0,-276.0,-9.0,0
612,-8.0,-277.0,-18.0,0
613,-9.0,-285.0,-19.0,0
614,-7.0,-294.0,-20.0,0
615,-6.0,-301.0,-13.0,0
616,-8.0,-311.0,-6.0,0
617,-4.0,-319.0,-1.0,0
618,-7.0,-325.0,1.0,0
619,-4.0,-332.0,9.0,0
620,-1.0,-336.0,15.0,0
621,3.0,-337.0,19.0,0
622,8.0,-337.0,25.0,0
623,15.0,-334.0,32.0,0
624,24.0,-334.0,38.0,0
625,27.0,-334.0,43.0,0
626,39.0,-329.0,49.0,0
627,42.0,-325.0,51.0,0
628,46.0,-322.0,49.0,0
629,49.0,-316.0,56.0,0
630,53.0,-313.0,55.0,0
631,62.0,-311.0,35.0,0
632,86.0,-323.0,26.0,0
633,68.0,-333.0,-20.0,0
634,35.0,-330.0,-73.0,0
635,22.0,-343.0,-85.0,0
636,24.0,-373.0,-79.0,0
637,11.0,-395.0,-70.0,0
638,-14.0,-394.0,-58.0,0
639,-4.0,-375.0,-62.0,0
640,17.0,-348.0,-72.0,0
641,30.0,-332.0,-88.0,0
642,36.0,-321.0,-107.0,0
643,37.0,-307.0,-122.0,0
644,23.0,-281.0,-139.0,0
645,21.0,-257.0,-147.0,0
646,16.0,-233.0,-150.0,0
647,15.0,-224.0,-148.0,0
648,7.0,-206.0,-143.0,0
649,0.0,-199.0,-128.0,0
650,-10.0,-187.0,-117.0,0
651,-25.0,-174.0,-110.0,0
652,-40.0,-162.0,-102.0,0
653,-51.0,-158.0,-95.0,0
654,-66.0,-157.0,-99.0,0
655,-78.0,-165.0,-100.0,0
656,-89.0,-178.0,-103.0,0
657,-90.0,-188.0,-98.0,0
658,-87.0,-207.0,-96.0,0
659,-80.0,-222.0,-93.0,0
660,-69.0,-238.0,-94.0,0
661,-51.0,-251.0,-94.0,0
662,-40.0,-262.0,-94.0,0
663,-20.0,-276.0,-91.0,0
664,-4.0,-279.0,-87.0,0
665,11.0,-282.0,-86.0,0
666,28.0,-292.0,-84.0,0
667,42.0,-295.0,-80.0,0
668,55.0,-295.0,-75.0,0
669,67.0,-295.0,-73.0,0
670,72.0,-291.0,-67.0,0
671,79.0,-281.0,-63.0,0
672,80.0,-275.0,-58.0,0
673,73.0,-270.0,-51.0,0
674,70.0,-257.0,-47.0,0
675,62.0,-249.0,-49.0,0
676,56.0,-238.0,-45.0,0
677,50.0,-230.0,-50.0,0
678,34.0,-215.0,-51.0,0
679,24.0,-207.0,-50.0,0
680,18.0,-201.0,-52.0,0
681,11.0,-196.0,-57.0,0
682,3.0,-192.0,-58.0,0
683,1.0,-191.0,-59.0,0
684,-7.0,-185.0,-55.0,0
685,-11.0,-184.0,-51.0,0
686,-14.0,-185.0,-55.0,0
687,-17.0,-188.0,-53.0,0
688,-21.0,-187.0,-47.0,0
689,-21.0,-194.0,-45.0,0
690,-24.0,-194.0,-43.0,0
691,-27.0,-196.0,-40.0,0
692,-29.0,-201.0,-39.0,0
693,-29.0,-203.0,-34.0,0
694,-34.0,-208.0,-32.0,0
695,-35.0,-210.0,-22.0,0
696,-35.0,-213.0,-29.0,0
697,-40.0,-213.0,-26.0,0
698,-38.0,-210.0,-23.0,0
699,-33.0,-214.0,-19.0,0
700,-35.0,-216.0,-19.0,0
701,-35.0,-214.0,-21.0,0
702,-38.0,-218.0,-20.0,0
703,-39.0,-217.0,-21.0,0
704,-40.0,-223.0,-26.0,0
705,-37.0,-229.0,-24.0,0
706,-34.0,-236.0,-26.0,0
707,-36.0,-239.0,-25.0,0
708,-33.0,-244.0,-21.0,0
709,-29.0,-246.0,-22.0,0
710,-29.0,-249.0,-22.0,0
711,-26.0,-252.0,-23.0,0
712,-25.0,-248.0,-18.0,0
713,-24.0,-248.0,-20.0,0
714,-17.0,-250.0,-20.0,0
715,-14.0,-250.0,-17.0,0
716,-14.0,-250.0,-15.0,0
717,-9.0,-248.0,-20.0,0
718,1.0,-244.0,-23.0,0
719,0.0,-242.0,-18.0,0
720,4.0,-241.0,-19.0,0
721,6.0,-241.0,-15.0,0
722,6.0,-239.0,-16.0,0
723,7.0,-243.0,-10.0,0
724,4.0,-243.0,-8.0,0
725,2.0,-244.0,-1.0,0
726,0.0,-247.0,-3.0,0
727,-7.0,-248.0,-7.0,0
728,-16.0,-253.0,-4.0,0
729,-25.0,-256.0,-3.0,0
730,-33.0,-262.0,-4.0,0
731,-40.0,-272.0,-3.0,0
732,-51.0,-279.0,-7.0,0
733,-57.0,-286.0,-9.0,0
734,-58.0,-297.0,-16.0,0
735,-62.0,-303.0,-11.0,0
736,-60.0,-309.0,-11.0,0
737,-57.0,-311.0,-10.0,0
738,-53.0,-314.0,-2.0,0
739,-50.0,-312.0,-6.0,0
740,-35.0,-304.0,2.0,0
741,-33.0,-308.0,-1.0,0
742,-29.0,-303.0,3.0,0
743,-26.0,-295.0,2.0,0
744,-25.0,-292.0,8.0,0
745,-27.0,-286.0,12.0,0
746,-23.0,-281.0,11.0,0
747,-30.0,-276.0,16.0,0
748,-29.0,-269.0,19.0,0
749,-30.0,-269.0,24.0,0
750,-39.0,-264.0,26.0,0
751,-53.0,-258.0,20.0,0
752,-72.0,-251.0,-10.0,0
753,-55.0,-252.0,-42.0,0
754,-39.0,-284.0,-59.0,0
755,-31.0,-320.0,-77.0,0
756,-38.0,-352.0,-87.0,0
757,-39.0,-378.0,-85.0,0
758,-37.0,-408.0,-67.0,0
759,-23.0,-424.0,-54.0,0
760,-20.0,-414.0,-47.0,0
761,-48.0,-385.0,-49.0,0
762,-73.0,-363.0,-67.0,0
763,-70.0,-337.0,-92.0,0
764,-60.0,-313.0,-114.0,0
765,-49.0,-280.0,-127.0,0
766,-49.0,-250.0,-136.0,0
767,-44.0,-229.0,-134.0,0
768,-31.0,-205.0,-127.0,0
769,-16.0,-186.0,-124.0,0
770,4.0,-165.0,-125.0,0
771,27.0,-155.0,-118.0,0
772,49.0,-146.0,-116.0,0
773,69.0,-145.0,-107.0,0
774,90.0,-151.0,-95.0,0
775,109.0,-167.0,-94.0,0
776,122.0,-183.0,-85.0,0
777,126.0,-206.0,-77.0,0
778,116.0,-231.0,-77.0,0
779,103.0,-248.0,-77.0,0
780,82.0,-264.0,-76.0,0
781,61.0,-280.0,-72.0,0
782,43.0,-294.0,-74.0,0
783,13.0,-301.0,-80.0,0
784,-7.0,-319.0,-71.0,0
785,-33.0,-328.0,-71.0,0
786,-59.0,-339.0,-66.0,0
787,-76.0,-336.0,-67.0,0
788,-93.0,-334.0,-66.0,0
789,-103.0,-326.0,-66.0,0
790,-104.0,-310.0,-72.0,0
791,-98.0,-294.0,-66.0,0
792,-89.0,-275.0,-64.0,0
793,-80.0,-252.0,-60.0,0
794,-66.0,-240.0,-53.0,0
795,-55.0,-223.0,-53.0,0
796,-38.0,-207.0,-46.0,0
797,-28.0,-198.0,-49.0,0
798,-17.0,-186.0,-46.0,0
799,-4.0,-183.0,-45.0,0
800,1.0,-177.0,-49.0,0
801,11.0,-177.0,-43.0,0
802,22.0,-179.0,-44.0,0
803,23.0,-180.0,-45.0,0
804,26.0,-192.0,-36.0,0
805,26.0,-189.0,-38.0,0
806,31.0,-200.0,-38.0,0
807,34.0,-206.0,-33.0,0
808,35.0,-213.0,-36.0,0
809,34.0,-218.0,-33.0,0
810,32.0,-224.0,-32.0,0
811,33.0,-230.0,-32.0,0
812,31.0,-228.0,-32.0,0
813,30.0,-231.0,-29.0,0
814,27.0,-232.0,-34.0,0
815,25.0,-235.0,-33.0,0
816,21.0,-234.0,-32.0,0
817,16.0,-231.0,-34.0,0
818,11.0,-227.0,-32.0,0
819,5.0,-225.0,-32.0,0
820,2.0,-224.0,-31.0,0
821,0.0,-223.0,-31.0,0
822,-2.0,-217.0,-29.0,0
823,-4.0,-217.0,-26.0,0
824,-7.0,-215.0,-24.0,0
825,-3.0,-214.0,-27.0,0
826,-6.0,-220.0,-23.0,0
827,0.0,-215.0,-24.0,0
828,4.0,-219.0,-26.0,0
829,2.0,-219.0,-22.0,0
830,6.0,-224.0,-21.0,0
831,5.0,-227.0,-21.0,0
832,9.0,-233.0,-23.0,0
833,7.0,-229.0,-19.0,0
834,9.0,-236.0,-22.0,0
835,6.0,-236.0,-22.0,0
836,5.0,-243.0,-28.0,0
837,2.0,-247.0,-29.0,0
838,2.0,-246.0,-26.0,0
839,-1.0,-249.0,-24.0,0
840,-5.0,-254.0,-25.0,0
841,-2.0,-259.0,-21.0,0
842,-9.0,-258.0,-19.0,0
843,-9.0,-262.0,-19.0,0
844,-3.0,-263.0,-16.0,0
845,-5.0,-269.0,-8.0,0
846,-5.0,-267.0,-8.0,0
847,-7.0,-271.0,-3.0,0
848,-5.0,-272.0,2.0,0
849,-7.0,-277.0,-6.0,0
850,-9.0,-276.0,1.0,0
851,-5.0,-274.0,-2.0,0
852,-8.0,-271.0,-1.0,0
853,-9.0,-271.0,6.0,0
854,-8.0,-273.0,7.0,0
855,-11.0,-276.0,10.0,0
856,-11.0,-275.0,14.0,0
857,-13.0,-280.0,18.0,0
858,-16.0,-283.0,24.0,0
859,-20.0,-287.0,23.0,0
860,-22.0,-300.0,26.0,0
861,-17.0,-304.0,25.0,0
862,-16.0,-307.0,25.0,0
863,-9.0,-311.0,20.0,0
864,0.0,-312.0,22.0,0
865,7.0,-314.0,21.0,0
866,13.0,-316.0,22.0,0
867,25.0,-326.0,21.0,0
868,39.0,-325.0,26.0,0
869,46.0,-331.0,29.0,0
870,63.0,-335.0,25.0,0
871,73.0,-343.0,21.0,0
872,83.0,-343.0,12.0,0
873,92.0,-349.0,5.0,0
874,95.0,-352.0,-6.0,0
875,96.0,-355.0,-15.0,0
876,94.0,-356.0,-21.0,0
877,91.0,-359.0,-32.0,0
878,85.0,-355.0,-44.0,0
879,79.0,-353.0,-46.0,0
880,65.0,-345.0,-56.0,0
881,51.0,-341.0,-62.0,0
882,38.0,-330.0,-63.0,0
883,32.0,-322.0,-74.0,0
884,28.0,-313.0,-89.0,0
885,20.0,-298.0,-106.0,0
886,16.0,-283.0,-119.0,0
887,9.0,-272.0,-132.0,0
888,2.0,-255.0,-141.0,0
889,-5.0,-241.0,-146.0,0
890,-11.0,-230.0,-150.0,0
891,-29.0,-217.0,-146.0,0
892,-28.0,-209.0,-142.0,0
893,-42.0,-201.0,-135.0,0
894,-56.0,-192.0,-126.0,0
895,-66.0,-194.0,-122.0,0
896,-79.0,-193.0,-124.0,0
897,-89.0,-196.0,-120.0,0
898,-94.0,-197.0,-122.0,0
899,-94.0,-199.0,-124.0,0
900,-87.0,-201.0,-126.0,0
901,-76.0,-204.0,-131.0,0
902,-64.0,-207.0,-125.0,0
903,-48.0,-214.0,-124.0,0
904,-34.0,-215.0,-114.0,0
905,-17.0,-220.0,-102.0,0
906,-3.0,-231.0,-94.0,0
907,9.0,-236.0,-87.0,0
908,22.0,-244.0,-79.0,0
909,36.0,-255.0,-77.0,0
910,47.0,-260.0,-79.0,0
911,58.0,-268.0,-74.0,0
912,57.0,-274.0,-75.0,0
913,65.0,-273.0,-67.0,0
914,67.0,-273.0,-67.0,0
915,63.0,-267.0,-62.0,0
916,65.0,-262.0,-59.0,0
917,62.0,-257.0,-55.0,0
918,52.0,-250.0,-48.0,0
919,45.0,-243.0,-42.0,0
920,33.0,-235.0,-45.0,0
921,24.0,-229.0,-48.0,0
922,11.0,-219.0,-45.0,0
923,5.0,-218.0,-48.0,0
924,-4.0,-212.0,-46.0,0
925,-11.0,-210.0,-47.0,0
926,-19.0,-209.0,-50.0,0
927,-23.0,-209.0,-46.0,0
928,-27.0,-208.0,-46.0,0
929,-29.0,-210.0,-42.0,0
930,-27.0,-214.0,-40.0,0
931,-28.0,-216.0,-37.0,0
932,-24.0,-217.0,-36.0,0
933,-24.0,-222.0,-31.0,0
934,-25.0,-220.0,-41.0,0
935,-14.0,-227.0,-34.0,0
936,-13.0,-226.0,-29.0,0
937,-12.0,-227.0,-32.0,0
938,-11.0,-226.0,-30.0,0
939,-14.0,-227.0,-27.0,0
940,-12.0,-228.0,-24.0,0
941,-14.0,-222.0,-25.0,0
942,-15.0,-222.0,-21.0,0
943,-16.0,-219.0,-24.0,0
944,-18.0,-219.0,-20.0,0
945,-20.0,-217.0,-17.0,0
946,-18.0,-217.0,-18.0,0
947,-14.0,-219.0,-19.0,0
948,-13.0,-220.0,-19.0,0
949,-9.0,-220.0,-21.0,0
950,-5.0,-223.0,-22.0,0
951,-6.0,-223.0,-23.0,0
952,-1.0,-222.0,-27.0,0
953,-2.0,-225.0,-24.0,0
954,-1.0,-227.0,-26.0,0
955,0.0,-225.0,-22.0,0
956,-12.0,-223.0,-22.0,0
957,-7.0,-227.0,-18.0,0
958,-10.0,-229.0,-13.0,0
959,-13.0,-232.0,-18.0,0
960,-14.0,-233.0,-19.0,0
961,-15.0,-235.0,-21.0,0
962,-11.0,-238.0,-27.0,0
963,-14.0,-243.0,-24.0,0
964,-16.0,-242.0,-24.0,0
965,-20.0,-248.0,-22.0,0
966,-22.0,-250.0,-13.0,0
967,-22.0,-252.0,-14.0,0
968,-25.0,-254.0,-16.0,0
969,-27.0,-252.0,-17.0,0
970,-25.0,-250.0,-16.0,0
971,-33.0,-246.0,-16.0,0
972,-38.0,-244.0,-13.0,0
973,-43.0,-241.0,-11.0,0
974,-51.0,-233.0,-7.0,0
975,-55.0,-236.0,-10.0,0
976,-60.0,-233.0,-12.0,0
977,-60.0,-234.0,-13.0,0
978,-58.0,-234.0,-3.0,0
979,-53.0,-241.0,-9.0,0
980,-51.0,-245.0,-11.0,0
981,-45.0,-251.0,-12.0,0
982,-43.0,-258.0,-11.0,0
983,-41.0,-265.0,-13.0,0
984,-38.0,-270.0,-16.0,0
985,-36.0,-276.0,-15.0,0
986,-33.0,-283.0,-21.0,0
987,-32.0,-290.0,-21.0,0
988,-33.0,-297.0,-24.0,0
989,-34.0,-299.0,-25.0,0
990,-28.0,-303.0,-21.0,0
991,-27.0,-306.0,-19.0,0
992,-30.0,-304.0,-22.0,0
993,-31.0,-307.0,-14.0,0
994,-34.0,-304.0,-8.0,0
995,-37.0,-304.0,-4.0,0
996,-41.0,-302.0,2.0,0
997,-45.0,-298.0,2.0,0
998,-42.0,-299.0,0.0,0
999,-40.0,-299.0,-5.0,0
1000,-43.0,-298.0,0.0,0
1001,-40.0,-296.0,-3.0,0
1002,-36.0,-301.0,-2.0,0
1003,-37.0,-309.0,-3.0,0
1004,-40.0,-308.0,-2.0,0
1005,-43.0,-313.0,-11.0,0
1006,-45.0,-321.0,-14.0,0
1007,-47.0,-332.0,-22.0,0
1008,-46.0,-338.0,-26.0,0
1009,-47.0,-345.0,-29.0,0
1010,-43.0,-349.0,-40.0,0
1011,-41.0,-345.0,-52.0,0
1012,-45.0,-337.0,-67.0,0
1013,-55.0,-327.0,-77.0,0
1014,-66.0,-311.0,-91.0,0
1015,-67.0,-291.0,-106.0,0
1016,-67.0,-269.0,-116.0,0
1017,-63.0,-248.0,-125.0,0
1018,-64.0,-220.0,-134.0,0
1019,-54.0,-203.0,-138.0,0
1020,-40.0,-179.0,-135.0,0
1021,-20.0,-167.0,-139.0,0
1022,0.0,-145.0,-141.0,0
1023,22.0,-142.0,-134.0,0
1024,41.0,-137.0,-127.0,0
1025,63.0,-143.0,-117.0,0
1026,68.0,-153.0,-113.0,0
1027,79.0,-163.0,-103.0,0
1028,83.0,-177.0,-98.0,0
1029,85.0,-195.0,-95.0,0
1030,79.0,-213.0,-83.0,0
1031,67.0,-237.0,-86.0,0
1032,55.0,-255.0,-79.0,0
1033,37.0,-272.0,-79.0,0
1034,27.0,-291.0,-76.0,0
1035,12.0,-308.0,-76.0,0
1036,0.0,-315.0,-75.0,0
1037,-17.0,-329.0,-67.0,0
1038,-29.0,-337.0,-64.0,0
1039,-41.0,-343.0,-65.0,0
1040,-49.0,-347.0,-63.0,0
1041,-56.0,-341.0,-70.0,0
1042,-55.0,-339.0,-72.0,0
1043,-53.0,-321.0,-73.0,0
1044,-51.0,-307.0,-72.0,0
1045,-48.0,-294.0,-69.0,0
1046,-45.0,-270.0,-63.0,0
1047,-40.0,-255.0,-56.0,0
1048,-36.0,-242.0,-53.0,0
1049,-30.0,-220.0,-56.0,0
1050,-32.0,-207.0,-52.0,0
1051,-28.0,-197.0,-45.0,0
1052,-28.0,-190.0,-45.0,0
1053,-27.0,-183.0,-39.0,0
1054,-23.0,-179.0,-42.0,0
1055,-22.0,-177.0,-38.0,0
1056,-16.0,-176.0,-37.0,0
1057,-14.0,-178.0,-34.0,0
1058,-11.0,-182.0,-32.0,0
1059,-6.0,-185.0,-27.0,0
1060,2.0,-192.0,-28.0,0
1061,2.0,-199.0,-26.0,0
1062,6.0,-200.0,-25.0,0
1063,14.0,-199.0,-27.0,0
1064,18.0,-207.0,-26.0,0
1065,15.0,-204.0,-25.0,0
1066,18.0,-206.0,-28.0,0
1067,19.0,-209.0,-29.0,0
1068,20.0,-212.0,-26.0,0
1069,18.0,-212.0,-30.0,0
1070,21.0,-214.0,-32.0,0
1071,15.0,-218.0,-31.0,0
1072,13.0,-220.0,-21.0,0
1073,14.0,-221.0,-19.0,0
1074,16.0,-223.0,-20.0,0
1075,15.0,-224.0,-19.0,0
1076,14.0,-224.0,-21.0,0
1077,17.0,-227.0,-14.0,0
1078,10.0,-228.0,-10.0,0
1079,8.0,-230.0,-10.0,0
1080,10.0,-230.0,-11.0,0
1081,8.0,-230.0,-15.0,0
1082,9.0,-222.0,-17.0,0
1083,8.0,-221.0,-20.0,0
1084,9.0,-214.0,-19.0,0
1085,4.0,-216.0,-19.0,0
1086,2.0,-211.0,-25.0,0
1087,-2.0,-208.0,-33.0,0
1088,0.0,-209.0,-40.0,0
1089,-3.0,-207.0,-41.0,0
1090,-9.0,-206.0,-45.0,0
1091,-7.0,-211.0,-50.0,0
1092,-10.0,-213.0,-48.0,0
1093,-14.0,-220.0,-41.0,0
1094,-12.0,-233.0,-36.0,0
1095,-14.0,-243.0,-35.0,0
1096,-13.0,-251.0,-31.0,0
1097,-17.0,-258.0,-30.0,0
1098,-16.0,-271.0,-28.0,0
1099,-18.0,-278.0,-19.0,0
1100,-20.0,-285.0,-20.0,0
1101,-23.0,-290.0,-20.0,0
1102,-24.0,-290.0,-20.0,0
1103,-23.0,-289.0,-28.0,0
1104,-25.0,-286.0,-36.0,0
1105,-27.0,-284.0,-43.0,0
1106,-22.0,-286.0,-49.0,0
1107,-26.0,-283.0,-41.0,0
1108,-28.0,-283.0,-38.0,0
1109,-33.0,-287.0,-25.0,0
1110,-32.0,-294.0,-17.0,0
1111,-29.0,-302.0,-10.0,0
1112,-21.0,-305.0,3.0,0
1113,-15.0,-308.0,2.0,0
1114,-15.0,-315.0,14.0,0
1115,-14.0,-324.0,19.0,0
1116,-13.0,-326.0,17.0,0
1117,-12.0,-331.0,13.0,0
1118,-12.0,-332.0,11.0,0
1119,-17.0,-332.0,6.0,0
1120,-24.0,-327.0,-5.0,0
1121,-21.0,-325.0,-10.0,0
1122,-21.0,-324.0,-27.0,0
1123,-22.0,-321.0,-43.0,0
1124,-20.0,-317.0,-62.0,0
1125,-16.0,-318.0,-83.0,0
1126,-9.0,-315.0,-99.0,0
1127,-2.0,-320.0,-118.0,0
1128,6.0,-319.0,-133.0,0
1129,14.0,-324.0,-138.0,0
1130,23.0,-327.0,-139.0,0
1131,37.0,-324.0,-147.0,0
1132,56.0,-320.0,-152.0,0
1133,75.0,-322.0,-154.0,0
1134,85.0,-312.0,-150.0,0
1135,92.0,-311.0,-139.0,0
1136,94.0,-307.0,-127.0,0
1137,96.0,-300.0,-122.0,0
1138,95.0,-281.0,-112.0,0
1139,85.0,-264.0,-112.0,0
1140,75.0,-249.0,-110.0,0
1141,61.0,-229.0,-108.0,0
1142,42.0,-212.0,-103.0,0
1143,21.0,-188.0,-98.0,0
1144,11.0,-176.0,-91.0,0
1145,-1.0,-158.0,-87.0,0
1146,-13.0,-147.0,-83.0,0
1147,-23.0,-142.0,-83.0,0
1148,-29.0,-140.0,-75.0,0
1149,-29.0,-142.0,-77.0,0
1150,-35.0,-150.0,-79.0,0
1151,-33.0,-158.0,-75.0,0
1152,-23.0,-166.0,-78.0,0
1153,-18.0,-177.0,-81.0,0
1154,-16.0,-185.0,-84.0,0
1155,-8.0,-198.0,-83.0,0
1156,1.0,-205.0,-91.0,0
1157,5.0,-213.0,-87.0,0
1158,7.0,-218.0,-89.0,0
1159,8.0,-222.0,-87.0,0
1160,6.0,-228.0,-92.0,0
1161,9.0,-236.0,-94.0,0
1162,8.0,-241.0,-93.0,0
1163,9.0,-247.0,-91.0,0
1164,4.0,-246.0,-87.0,0
1165,1.0,-238.0,-88.0,0
1166,2.0,-233.0,-87.0,0
1167,1.0,-234.0,-85.0,0
1168,6.0,-230.0,-85.0,0
1169,10.0,-223.0,-84.0,0
1170,13.0,-215.0,-85.0,0
1171,14.0,-205.0,-82.0,0
1172,11.0,-198.0,-83.0,0
1173,6.0,-191.0,-81.0,0
1174,1.0,-190.0,-83.0,0
1175,1.0,-186.0,-87.0,0
1176,0.0,-185.0,-85.0,0
1177,2.0,-183.0,-93.0,0
1178,1.0,-184.0,-85.0,0
1179,1.0,-185.0,-77.0,0
1180,5.0,-187.0,-56.0,0
1181,10.0,-203.0,-26.0,0
1182,8.0,-201.0,-46.0,0
1183,-5.0,-203.0,-15.0,0
1184,-27.0,-197.0,15.0,0
1185,1.0,-205.0,29.0,0
1186,16.0,-214.0,59.0,0
1187,28.0,-225.0,82.0,0
1188,41.0,-236.0,90.0,0
1189,50.0,-238.0,69.0,0
1190,51.0,-245.0,38.0,0
1191,50.0,-249.0,3.0,0
1192,34.0,-250.0,-35.0,0
1193,35.0,-255.0,-53.0,0
1194,23.0,-256.0,-66.0,0
1195,8.0,-248.0,-92.0,0
1196,-6.0,-225.0,-124.0,0
1197,-19.0,-199.0,-145.0,0
1198,-37.0,-175.0,-142.0,0
1199,-50.0,-158.0,-118.0,0
1200,-59.0,-143.0,-85.0,0
1201,-67.0,-128.0,-49.0,0
1202,-67.0,-116.0,-11.0,0
1203,-63.0,-107.0,35.0,0
1204,-59.0,-107.0,63.0,0
1205,-46.0,-104.0,91.0,0
1206,-37.0,-104.0,96.0,0
1207,-25.0,-97.0,80.0,0
1208,-16.0,-95.0,61.0,0
1209,-8.0,-89.0,46.0,0
1210,0.0,-83.0,25.0,0
1211,15.0,-77.0,0.0,0
1212,28.0,-68.0,-41.0,0
1213,34.0,-57.0,-70.0,0
1214,23.0,-38.0,-100.0,0
1215,21.0,-20.0,-116.0,0
1216,13.0,-6.0,-117.0,0
1217,6.0,6.0,-108.0,0
1218,1.0,9.0,-96.0,0
1219,-4.0,9.0,-74.0,0
1220,-2.0,2.0,-40.0,0
1221,3.0,-11.0,-13.0,0
1222,11.0,-27.0,0.0,0
1223,22.0,-48.0,12.0,0
1224,21.0,-59.0,5.0,0
1225,12.0,-64.0,-5.0,0
1226,-3.0,-64.0,-24.0,0
1227,-29.0,-56.0,-36.0,0
1228,-51.0,-48.0,-39.0,0
1229,-67.0,-40.0,-43.0,0
1230,-86.0,-25.0,-51.0,0
1231,-95.0,-14.0,-70.0,0
1232,-101.0,-2.0,-82.0,0
1233,-86.0,7.0,-79.0,2
1234,-71.0,18.0,-85.0,2
1235,-50.0,40.0,-89.0,2
1236,-41.0,53.0,-95.0,2
1237,-26.0,63.0,-96.0,2
1238,-5.0,67.0,-87.0,2
1239,12.0,65.0,-89.0,2
1240,22.0,62.0,-96.0,2
1241,33.0,60.0,-108.0,2
1242,31.0,54.0,-122.0,2
1243,34.0,37.0,-136.0,2
1244,40.0,16.0,-151.0,2
1245,42.0,-9.0,-158.0,2
1246,43.0,-39.0,-155.0,2
1247,36.0,-64.0,-164.0,2
1248,33.0,-87.0,-179.0,2
1249,8.0,-112.0,-188.0,2
1250,-7.0,-129.0,-204.0,2
1251,-21.0,-149.0,-219.0,2
1252,-42.0,-168.0,-229.0,2
1253,-60.0,-195.0,-241.0,2
1254,-81.0,-226.0,-259.0,2
1255,-120.0,-263.0,-295.0,2
1256,-203.0,-361.0,-350.0,2
1257,-377.0,-413.0,-826.0,2
1258,-542.0,-594.0,-1669.0,2
1259,-485.0,-1374.0,-2320.0,2
1260,-4.0,-2664.0,-2203.0,2
1261,485.0,-3043.0,-1425.0,2
1262,400.0,-2370.0,-967.0,2
1263,185.0,-1539.0,-672.0,2
1264,51.0,-926.0,-243.0,2
1265,-68.0,-489.0,77.0,2
1266,-90.0,-186.0,128.0,2
1267,-59.0,72.0,85.0,2
1268,-30.0,200.0,93.0,2
1269,106.0,310.0,254.0,2
1270,193.0,465.0,369.0,2
1271,206.0,602.0,306.0,2
1272,216.0,702.0,233.0,2
1273,206.0,715.0,89.0,2
1274,230.0,610.0,4.0,2
1275,200.0,338.0,75.0,2
1276,127.0,41.0,203.0,2
1277,70.0,-245.0,257.0,2
1278,76.0,-373.0,212.0,2
1279,66.0,-439.0,148.0,2
1280,66.0,-417.0,80.0,2
1281,62.0,-379.0,26.0,2
1282,45.0,-308.0,-19.0,2
1283,7.0,-246.0,-48.0,2
1284,-25.0,-220.0,-41.0,2
1285,-60.0,-181.0,-39.0,2
1286,-85.0,-138.0,-36.0,2
1287,-120.0,-104.0,-25.0,2
1288,-145.0,-68.0,-32.0,2
1289,-160.0,-35.0,-49.0,2
1290,-177.0,-11.0,-47.0,2
1291,-196.0,12.0,-25.0,2
1292,-213.0,29.0,2.0,2
1293,-215.0,40.0,17.0,2
1294,-210.0,53.0,24.0,2
1295,-189.0,49.0,14.0,2
1296,-151.0,49.0,-1.0,1
1297,-129.0,70.0,-40.0,1
1298,-84.0,105.0,-125.0,1
1299,-33.0,135.0,-193.0,1
1300,22.0,161.0,-245.0,1
1301,63.0,197.0,-296.0,1
1302,86.0,225.0,-350.0,1
1303,106.0,246.0,-379.0,1
1304,122.0,258.0,-391.0,1
1305,134.0,260.0,-371.0,1
1306,141.0,265.0,-314.0,1
1307,150.0,239.0,-222.0,1
1308,139.0,228.0,-111.0,1
1309,120.0,212.0,-35.0,1
1310,105.0,216.0,-1.0,1
1311,91.0,223.0,-16.0,1
1312,77.0,225.0,-45.0,1
1313,76.0,218.0,-74.0,1
1314,240.0,867.0,-657.0,1
1315,755.0,999.0,-547.0,1
1316,-172.0,211.0,252.0,1
1317,-298.0,338.0,-255.0,1
1318,74.0,106.0,8.0,1
1319,0.0,309.0,-363.0,1
1320,18.0,191.0,-372.0,1
1321,76.0,198.0,-542.0,1
1322,-32.0,267.0,-709.0,1
1323,-46.0,526.0,-854.0,1
1324,-66.0,547.0,-679.0,1
1325,107.0,406.0,-543.0,1
1326,-21.0,122.0,-583.0,1
1327,-31.0,341.0,-763.0,1
1328,48.0,190.0,-735.0,1
1329,112.0,-130.0,-736.0,1
1330,79.0,432.0,-878.0,1
1331,119.0,361.0,-812.0,1
1332,84.0,270.0,-878.0,1
1333,52.0,68.0,-745.0,1
1334,69.0,430.0,-805.0,1
1335,-39.0,31.0,-732.0,1
1336,33.0,122.0,-641.0,1
1337,62.0,-10.0,-509.0,1
1338,39.0,176.0,-520.0,1
1339,108.0,68.0,-431.0,1
1340,3.0,-54.0,-333.0,1
1341,32.0,135.0,-383.0,1
1342,74.0,267.0,-421.0,1
1343,63.0,105.0,-315.0,1
1344,74.0,-87.0,-213.0,1
1345,63.0,222.0,-339.0,1
1346,56.0,184.0,-305.0,1
1347,27.0,122.0,-291.0,1
1348,26.0,82.0,-244.0,1
1349,47.0,79.0,-224.0,1
1350,-2.0,16.0,-144.0,1
1351,55.0,110.0,-177.0,1
1352,4.0,179.0,-190.0,1
1353,28.0,159.0,-181.0,1
1354,26.0,283.0,-186.0,1
1355,50.0,220.0,-151.0,1
1356,22.0,226.0,-133.0,1
1357,18.0,239.0,-124.0,1
1358,-1.0,173.0,-83.0,1
1359,-41.0,237.0,-94.0,1
1360,-6.0,153.0,-81.0,1
1361,-14.0,186.0,-93.0,1
1362,-42.0,188.0,-102.0,1
1363,-28.0,186.0,-162.0,1
1364,-32.0,171.0,-175.0,1
1365,-24.0,169.0,-179.0,1
1366,-25.0,86.0,-171.0,1
1367,-17.0,24.0,-182.0,1
1368,-14.0,-8.0,-203.0,1
1369,-22.0,-61.0,-206.0,1
1370,-23.0,-63.0,-214.0,1
1371,-30.0,-60.0,-213.0,1
1372,-21.0,-53.0,-227.0,1
1373,-21.0,-34.0,-232.0,1
1374,-11.0,6.0,-227.0,1
1375,-4.0,50.0,-239.0,1
1376,1.0,87.0,-241.0,1
1377,-6.0,114.0,-239.0,1
1378,5.0,130.0,-248.0,1
1379,12.0,107.0,-257.0,1
1380,1.0,100.0,-266.0,1
1381,5.0,81.0,-278.0,1
1382,-2.0,72.0,-293.0,1
1383,-3.0,66.0,-302.0,1
1384,-6.0,55.0,-309.0,1
1385,3.0,37.0,-320.0,1
1386,4.0,39.0,-330.0,1
1387,23.0,22.0,-326.0,1
1388,7.0,11.0,-332.0,1
1389,0.0,16.0,-312.0,1
1390,7.0,25.0,-302.0,1
1391,1.0,35.0,-321.0,1
1392,18.0,48.0,-306.0,1
1393,-15.0,34.0,-285.0,1
1394,-1.0,39.0,-283.0,1
1395,-9.0,36.0,-272.0,1
1396,0.0,24.0,-275.0,0
1397,-11.0,13.0,-257.0,0
1398,-10.0,17.0,-255.0,0
1399,2.0,15.0,-251.0,0
1400,-3.0,17.0,-251.0,0
1401,1.0,7.0,-237.0,0
1402,3.0,6.0,-244.0,0
1403,10.0,20.0,-247.0,0
1404,9.0,17.0,-243.0,0
1405,9.0,25.0,-231.0,0
1406,8.0,19.0,-236.0,0
1407,9.0,31.0,-248.0,0
1408,4.0,31.0,-225.0,0
1409,4.0,34.0,-228.0,0
1410,1.0,33.0,-226.0,0
1411,0.0,35.0,-239.0,0
1412,4.0,34.0,-235.0,0
1413,0.0,33.0,-240.0,0
1414,1.0,35.0,-242.0,0
1415,1.0,34.0,-247.0,0
1416,20.0,27.0,-253.0,0
1417,7.0,33.0,-251.0,0
1418,14.0,30.0,-250.0,0
1419,3.0,31.0,-233.0,0
1420,11.0,40.0,-258.0,0
1421,23.0,41.0,-265.0,0
1422,2.0,25.0,-252.0,0
1423,-2.0,24.0,-249.0,0
1424,3.0,33.0,-259.0,0
1425,6.0,23.0,-257.0,0
1426,-5.0,26.0,-254.0,0
1427,0.0,52.0,-267.0,0
1428,6.0,32.0,-263.0,0
1429,5.0,35.0,-264.0,0
1430,4.0,37.0,-263.0,0
1431,7.0,32.0,-258.0,0
1432,5.0,33.0,-265.0,0
1433,1.0,40.0,-262.0,0
1434,10.0,52.0,-263.0,0
1435,7.0,39.0,-260.0,0
1436,1.0,28.0,-266.0,0
1437,1.0,46.0,-277.0,0
1438,6.0,41.0,-254.0,0
1439,1.0,26.0,-252.0,0
1440,-4.0,41.0,-258.0,0
1441,-2.0,27.0,-264.0,0
1442,2.0,39.0,-252.0,0
1443,1.0,39.0,-257.0,0
1444,3.0,41.0,-251.0,0
1445,2.0,39.0,-248.0,0
1446,2.0,35.0,-253.0,0
1447,8.0,33.0,-246.0,0
1448,3.0,35.0,-237.0,0
1449,2.0,36.0,-237.0,0
1450,4.0,36.0,-234.0,0
1451,15.0,34.0,-226.0,0
1452,14.0,28.0,-226.0,0
1453,-7.0,34.0,-230.0,0
1454,-3.0,37.0,-248.0,0
1455,1.0,29.0,-244.0,0
1456,8.0,34.0,-250.0,0
1457,-2.0,34.0,-261.0,0
1458,4.0,35.0,-263.0,0
1459,3.0,33.0,-262.0,0
1460,3.0,35.0,-265.0,0
1461,4.0,33.0,-258.0,0
1462,2.0,34.0,-264.0,0
1463,2.0,32.0,-263.0,0
1464,2.0,32.0,-255.0,0
1465,5.0,31.0,-251.0,0
1466,0.0,37.0,-256.0,0
1467,5.0,30.0,-257.0,0
1468,6.0,34.0,-253.0,0
1469,1.0,28.0,-245.0,0
1470,4.0,30.0,-255.0,0
1471,4.0,32.0,-249.0,0
1472,1.0,30.0,-253.0,0
1473,1.0,27.0,-253.0,0
1474,1.0,28.0,-252.0,0
1475,1.0,29.0,-252.0,0
1476,1.0,29.0,-251.0,0
1477,5.0,27.0,-265.0,0
1478,-1.0,30.0,-262.0,0
1479,1.0,32.0,-256.0,0
1480,-1.0,44.0,-259.0,0
1481,1.0,39.0,-260.0,0
1482,0.0,40.0,-268.0,0
1483,1.0,33.0,-260.0,0
1484,0.0,33.0,-256.0,0
1485,1.0,35.0,-256.0,0
1486,0.0,33.0,-251.0,0
1487,1.0,37.0,-254.0,0
1488,0.0,32.0,-249.0,0
1489,1.0,31.0,-244.0,0
1490,0.0,31.0,-244.0,0
1491,0.0,30.0,-245.0,0
1492,15.0,32.0,-247.0,0
1493,0.0,32.0,-249.0,0
1494,1.0,33.0,-253.0,0
1495,2.0,33.0,-252.0,0
1496,4.0,43.0,-253.0,0
1497,-1.0,35.0,-254.0,0
1498,2.0,35.0,-253.0,0
1499,1.0,32.0,-253.0,0
1500,1.0,33.0,-254.0,0
1501,1.0,35.0,-262.0,0
1502,1.0,33.0,-251.0,0
1503,2.0,33.0,-247.0,0
1504,1.0,34.0,-243.0,0
1505,3.0,32.0,-244.0,0
1506,4.0,30.0,-244.0,0
1507,2.0,31.0,-247.0,0
1508,3.0,34.0,-248.0,0
1509,1.0,32.0,-252.0,0
1510,0.0,32.0,-255.0,0
1511,3.0,27.0,-256.0,0
1512,-1.0,29.0,-255.0,0
1513,0.0,31.0,-258.0,0
1514,1.0,29.0,-258.0,0
1515,2.0,31.0,-257.0,0
1516,2.0,32.0,-261.0,0
1517,2.0,34.0,-256.0,0
1518,1.0,31.0,-257.0,0
1519,1.0,33.0,-254.0,0
1520,0.0,34.0,-259.0,0
1521,1.0,33.0,-254.0,0
1522,1.0,27.0,-256.0,0
1523,1.0,31.0,-259.0,0
1524,0.0,33.0,-253.0,0
1525,3.0,30.0,-253.0,0
1526,1.0,29.0,-253.0,0
1527,3.0,29.0,-254.0,0
1528,3.0,29.0,-254.0,0
1529,3.0,28.0,-260.0,0
1530,2.0,29.0,-255.0,0
1531,0.0,32.0,-261.0,0
1532,1.0,32.0,-260.0,0
1533,2.0,29.0,-262.0,0
1534,2.0,32.0,-259.0,0
1535,1.0,36.0,-250.0,0
1536,0.0,32.0,-259.0,0
1537,1.0,32.0,-255.0,0
1538,1.0,32.0,-256.0,0
1539,0.0,29.0,-254.0,0
1540,1.0,32.0,-252.0,0
1541,3.0,30.0,-252.0,0
1542,0.0,32.0,-257.0,0
1543,1.0,31.0,-252.0,0
1544,2.0,28.0,-250.0,0
1545,2.0,33.0,-256.0,0
1546,0.0,31.0,-256.0,0
1547,0.0,34.0,-251.0,0
1548,1.0,33.0,-254.0,0
1549,0.0,31.0,-255.0,0
1550,1.0,32.0,-260.0,0
1551,-1.0,31.0,-252.0,0
1552,3.0,32.0,-255.0,0
1553,0.0,34.0,-253.0,0
1554,0.0,34.0,-253.0,0
1555,-1.0,33.0,-252.0,0
1556,0.0,32.0,-249.0,0
1557,0.0,25.0,-253.0,0
1558,1.0,31.0,-245.0,0
1559,1.0,28.0,-244.0,0
1560,1.0,28.0,-244.0,0
1561,1.0,31.0,-242.0,0
1562,1.0,30.0,-248.0,0
1563,0.0,30.0,-254.0,0
1564,0.0,32.0,-257.0,0
1565,2.0,29.0,-260.0,0
1566,1.0,32.0,-264.0,0
1567,1.0,33.0,-262.0,0
1568,-1.0,27.0,-265.0,0
1569,2.0,37.0,-258.0,0
1570,1.0,34.0,-252.0,0
1571,1.0,31.0,-251.0,0
1572,1.0,33.0,-251.0,0
1573,2.0,34.0,-254.0,0
1574,1.0,33.0,-254.0,0
1575,0.0,30.0,-255.0,0
1576,2.0,30.0,-256.0,0
1577,1.0,32.0,-255.0,0
1578,-1.0,40.0,-257.0,0
1579,2.0,30.0,-260.0,0
1580,2.0,32.0,-259.0,0
1581,2.0,33.0,-259.0,0
1582,2.0,32.0,-258.0,0
1583,0.0,34.0,-256.0,0
1584,1.0,34.0,-255.0,0
1585,2.0,32.0,-252.0,0
1586,1.0,29.0,-255.0,0
1587,-1.0,31.0,-252.0,0
1588,1.0,30.0,-249.0,0
1589,-2.0,30.0,-253.0,0
1590,1.0,29.0,-256.0,0
1591,1.0,28.0,-252.0,0
1592,1.0,31.0,-253.0,0
1593,2.0,30.0,-249.0,0
1594,3.0,28.0,-247.0,0
1595,0.0,30.0,-253.0,0
1596,1.0,30.0,-252.0,0
1597,1.0,31.0,-249.0,0
1598,0.0,31.0,-253.0,0
1599,3.0,33.0,-245.0,0
1600,2.0,28.0,-247.0,0
1601,1.0,31.0,-248.0,0
1602,0.0,32.0,-250.0,0
1603,0.0,32.0,-253.0,0
1604,-2.0,34.0,-260.0,0
1605,2.0,30.0,-263.0,0
1606,0.0,32.0,-263.0,0
1607,2.0,34.0,-264.0,0
1608,2.0,34.0,-262.0,0
1609,1.0,34.0,-259.0,0
1610,0.0,31.0,-260.0,0
1611,1.0,31.0,-259.0,0
1612,1.0,35.0,-261.0,0
1613,2.0,33.0,-254.0,0
1614,1.0,33.0,-259.0,0
1615,3.0,33.0,-257.0,0
1616,1.0,30.0,-252.0,0
1617,1.0,32.0,-248.0,0
1618,1.0,31.0,-251.0,0
1619,0.0,32.0,-254.0,0
1620,2.0,31.0,-253.0,0
1621,-7.0,30.0,-247.0,0
1622,0.0,33.0,-250.0,0
1623,3.0,31.0,-252.0,0
1624,1.0,31.0,-253.0,0
1625,0.0,33.0,-253.0,0
1626,0.0,34.0,-256.0,0
1627,2.0,28.0,-253.0,0
1628,0.0,32.0,-251.0,0
1629,2.0,31.0,-250.0,0
1630,2.0,30.0,-252.0,0
1631,3.0,30.0,-250.0,0
1632,0.0,32.0,-256.0,0
1633,2.0,33.0,-248.0,0
1634,3.0,29.0,-251.0,0
1635,1.0,28.0,-251.0,0
1636,3.0,30.0,-249.0,0
1637,3.0,30.0,-253.0,0
1638,1.0,30.0,-245.0,0
1639,3.0,26.0,-246.0,0
1640,2.0,28.0,-246.0,0
1641,1.0,30.0,-244.0,0
1642,7.0,31.0,-243.0,0
1643,2.0,32.0,-250.0,0
1644,3.0,28.0,-256.0,0
1645,3.0,29.0,-258.0,0
1646,2.0,29.0,-263.0,0
1647,2.0,32.0,-261.0,0
1648,1.0,31.0,-259.0,0
1649,1.0,32.0,-258.0,0
1650,1.0,35.0,-263.0,0
1651,1.0,32.0,-258.0,0
1652,3.0,34.0,-263.0,0
1653,-2.0,34.0,-261.0,0
1654,3.0,32.0,-257.0,0
1655,1.0,32.0,-255.0,0
1656,2.0,35.0,-259.0,0
1657,3.0,32.0,-259.0,0
1658,2.0,34.0,-256.0,0
1659,1.0,29.0,-251.0,0
1660,0.0,30.0,-253.0,0
1661,1.0,31.0,-252.0,0
1662,0.0,30.0,-253.0,0
1663,5.0,25.0,-263.0,0
1664,1.0,28.0,-254.0,0
1665,3.0,29.0,-254.0,0
1666,1.0,31.0,-251.0,0
1667,3.0,29.0,-251.0,0
1668,0.0,30.0,-254.0,0
1669,0.0,30.0,-250.0,0
1670,2.0,28.0,-250.0,0
1671,1.0,31.0,-247.0,0
1672,3.0,29.0,-248.0,0
1673,1.0,28.0,-247.0,0
1674,0.0,31.0,-250.0,0
1675,2.0,31.0,-253.0,0
1676,2.0,27.0,-253.0,0
1677,4.0,31.0,-256.0,0
1678,2.0,28.0,-260.0,0
1679,0.0,29.0,-259.0,0
1680,0.0,31.0,-258.0,0
1681,-2.0,33.0,-258.0,0
1682,1.0,32.0,-259.0,0
1683,1.0,36.0,-258.0,0
1684,2.0,31.0,-258.0,0
1685,1.0,36.0,-251.0,0
1686,1.0,32.0,-261.0,0
1687,1.0,33.0,-255.0,0
1688,3.0,30.0,-256.0,0
1689,0.0,33.0,-256.0,0
1690,0.0,32.0,-256.0,0
1691,2.0,34.0,-250.0,0
1692,0.0,32.0,-252.0,0
1693,0.0,30.0,-252.0,0
1694,1.0,30.0,-256.0,0
1695,0.0,29.0,-255.0,0
1696,-1.0,31.0,-253.0,0
1697,2.0,32.0,-252.0,0
1698,2.0,31.0,-256.0,0
1699,4.0,30.0,-253.0,0
1700,1.0,31.0,-248.0,0
1701,1.0,31.0,-251.0,0
1702,3.0,29.0,-251.0,0
1703,1.0,33.0,-248.0,0
1704,1.0,32.0,-250.0,0
1705,0.0,29.0,-252.0,0
1706,1.0,30.0,-251.0,0
1707,1.0,32.0,-254.0,0
1708,2.0,25.0,-253.0,0
1709,0.0,31.0,-256.0,0
1710,2.0,30.0,-255.0,0
1711,0.0,32.0,-255.0,0
1712,0.0,31.0,-260.0,0
1713,2.0,34.0,-256.0,0
1714,-1.0,32.0,-261.0,0
1715,-2.0,31.0,-252.0,0
1716,0.0,32.0,-258.0,0
1717,1.0,31.0,-256.0,0
1718,0.0,31.0,-257.0,0
1719,1.0,31.0,-258.0,0
1720,1.0,29.0,-255.0,0
1721,0.0,33.0,-256.0,0
1722,1.0,31.0,-251.0,0
1723,1.0,31.0,-253.0,0
1724,1.0,31.0,-250.0,0
1725,0.0,27.0,-251.0,0
1726,3.0,29.0,-251.0,0
1727,0.0,31.0,-251.0,0
1728,1.0,28.0,-251.0,0
1729,-2.0,32.0,-255.0,0
1730,0.0,29.0,-252.0,0
1731,-2.0,34.0,-254.0,0
1732,0.0,32.0,-252.0,0
1733,0.0,34.0,-258.0,0
1734,2.0,31.0,-258.0,0
1735,0.0,28.0,-252.0,0
1736,-1.0,31.0,-257.0,0
1737,0.0,32.0,-259.0,0
1738,0.0,32.0,-259.0,0
1739,1.0,33.0,-259.0,0
1740,0.0,32.0,-256.0,0
1741,-2.0,36.0,-256.0,0
1742,0.0,31.0,-257.0,0
1743,-7.0,34.0,-257.0,0
1744,7.0,30.0,-261.0,0
1745,0.0,29.0,-259.0,0
1746,-2.0,32.0,-261.0,0
1747,-1.0,32.0,-259.0,0
1748,0.0,34.0,-258.0,0
1749,0.0,29.0,-260.0,0
1750,-4.0,31.0,-262.0,0
1751,-5.0,28.0,-256.0,0
1752,-2.0,32.0,-251.0,0
1753,0.0,30.0,-250.0,0
1754,0.0,30.0,-258.0,0
1755,-5.0,31.0,-256.0,0
1756,-4.0,31.0,-253.0,0
1757,0.0,36.0,-256.0,0
1758,-10.0,31.0,-256.0,0
1759,3.0,33.0,-245.0,0
1760,-8.0,33.0,-251.0,0
1761,-7.0,33.0,-245.0,0
1762,-1.0,31.0,-252.0,0
1763,0.0,32.0,-252.0,0
1764,-2.0,31.0,-248.0,0
1765,0.0,32.0,-249.0,0
1766,-2.0,33.0,-243.0,0
1767,-5.0,32.0,-244.0,0
1768,20.0,47.0,-262.0,0
1769,0.0,32.0,-245.0,0
1770,0.0,32.0,-247.0,0
1771,-2.0,32.0,-245.0,0
1772,-1.0,37.0,-245.0,0
1773,-6.0,36.0,-248.0,0
1774,-3.0,34.0,-250.0,0
1775,-1.0,35.0,-253.0,0
1776,-4.0,35.0,-252.0,0
1777,0.0,33.0,-250.0,0
1778,-6.0,35.0,-250.0,0
1779,-6.0,35.0,-256.0,0
1780,-2.0,34.0,-253.0,0
1781,-8.0,32.0,-250.0,0
1782,-1.0,35.0,-251.0,0
1783,-6.0,38.0,-249.0,0
1784,-6.0,33.0,-251.0,0
1785,-2.0,36.0,-248.0,0
1786,-2.0,32.0,-252.0,0
1787,-7.0,35.0,-253.0,0
1788,-1.0,32.0,-252.0,0
1789,-1.0,32.0,-257.0,0
1790,-3.0,31.0,-252.0,0
1791,-3.0,33.0,-254.0,0
1792,-6.0,34.0,-253.0,0
1793,0.0,34.0,-259.0,0
1794,-7.0,33.0,-254.0,0
1795,-6.0,33.0,-253.0,0
1796,-3.0,35.0,-252.0,0
1797,-5.0,31.0,-259.0,0
1798,-8.0,35.0,-254.0,0
1799,-6.0,36.0,-254.0,0
1800,-6.0,33.0,-253.0,0
1801,-7.0,31.0,-253.0,0
1802,-5.0,35.0,-250.0,0
1803,-5.0,34.0,-252.0,0
1804,-6.0,33.0,-249.0,0
1805,-8.0,35.0,-252.0,0
1806,-8.0,34.0,-252.0,0
1807,-8.0,35.0,-249.0,0
1808,-3.0,37.0,-256.0,0
1809,-3.0,37.0,-252.0,0
1810,-6.0,36.0,-252.0,0
1811,-4.0,34.0,-257.0,0
1812,-6.0,38.0,-254.0,0
1813,-8.0,33.0,-254.0,0
1814,-6.0,32.0,-255.0,0
1815,-7.0,35.0,-257.0,0
1816,-4.0,32.0,-253.0,0
1817,-4.0,35.0,-253.0,0
1818,-2.0,34.0,-255.0,0
1819,-6.0,34.0,-257.0,0
1820,-1.0,31.0,-251.0,0
1821,-6.0,33.0,-253.0,0
1822,-4.0,33.0,-258.0,0
1823,-4.0,33.0,-255.0,0
1824,-3.0,33.0,-258.0,0
1825,-9.0,34.0,-261.0,0
1826,-2.0,32.0,-258.0,0
1827,-5.0,36.0,-251.0,0
1828,-5.0,32.0,-256.0,0
1829,-7.0,36.0,-253.0,0
1830,-6.0,32.0,-255.0,0
1831,-5.0,34.0,-256.0,0
1832,-9.0,36.0,-260.0,0
1833,-8.0,30.0,-248.0,0
1834,-3.0,33.0,-253.0,0
1835,-5.0,34.0,-253.0,0
1836,-8.0,34.0,-255.0,0
1837,-5.0,36.0,-251.0,0
1838,-7.0,35.0,-247.0,0
1839,-5.0,34.0,-254.0,0
1840,-5.0,34.0,-253.0,0
1841,-1.0,34.0,-251.0,0
1842,-3.0,32.0,-252.0,0
1843,-7.0,38.0,-254.0,0
1844,-7.0,37.0,-252.0,0
1845,-5.0,34.0,-250.0,0
1846,-5.0,35.0,-254.0,0
1847,-4.0,32.0,-250.0,0
1848,-7.0,33.0,-252.0,0
1849,-7.0,36.0,-254.0,0
1850,-7.0,35.0,-250.0,0
1851,-8.0,34.0,-253.0,0
1852,-6.0,34.0,-255.0,0
1853,-8.0,32.0,-253.0,0
1854,-5.0,40.0,-252.0,0
1855,-6.0,32.0,-251.0,0
1856,-4.0,35.0,-249.0,0
1857,-5.0,35.0,-250.0,0
1858,-5.0,32.0,-252.0,0
1859,-8.0,33.0,-254.0,0
1860,-6.0,34.0,-249.0,0
1861,-7.0,32.0,-249.0,0
1862,-7.0,36.0,-253.0,0
1863,-10.0,36.0,-254.0,0
1864,-5.0,34.0,-252.0,0
1865,-7.0,33.0,-253.0,0
1866,-11.0,36.0,-255.0,0
1867,-8.0,33.0,-253.0,0
1868,-5.0,34.0,-250.0,0
1869,-9.0,35.0,-252.0,0
1870,-6.0,34.0,-251.0,0
1871,-12.0,35.0,-252.0,0
1872,-8.0,34.0,-251.0,0
1873,-9.0,34.0,-257.0,0
1874,-5.0,35.0,-255.0,0
1875,-8.0,36.0,-253.0,0
1876,-8.0,31.0,-252.0,0
1877,-10.0,35.0,-254.0,0
1878,-10.0,37.0,-258.0,0
1879,-8.0,34.0,-255.0,0
1880,-10.0,34.0,-251.0,0
1881,-2.0,33.0,-250.0,0
1882,-8.0,34.0,-252.0,0
1883,-9.0,31.0,-252.0,0
1884,-8.0,35.0,-254.0,0
1885,-9.0,30.0,-252.0,0
1886,-9.0,33.0,-254.0,0
1887,-9.0,35.0,-253.0,0
1888,-8.0,34.0,-254.0,0
1889,-8.0,32.0,-251.0,0
1890,-7.0,33.0,-251.0,0
1891,-7.0,34.0,-259.0,0
1892,-7.0,34.0,-252.0,0
1893,-6.0,33.0,-255.0,0
1894,-11.0,31.0,-255.0,0
1895,-8.0,33.0,-259.0,0
1896,-6.0,32.0,-255.0,0
1897,-10.0,32.0,-255.0,0
1898,-6.0,32.0,-254.0,0
1899,-9.0,30.0,-252.0,0
1900,-7.0,35.0,-254.0,0
1901,-9.0,31.0,-257.0,0
1902,-8.0,33.0,-255.0,0
1903,-9.0,34.0,-253.0,0
1904,-8.0,32.0,-254.0,0
1905,-4.0,32.0,-254.0,0
1906,-9.0,35.0,-249.0,0
1907,-10.0,37.0,-255.0,0
1908,-10.0,34.0,-252.0,0
1909,-9.0,33.0,-247.0,0
1910,-6.0,33.0,-253.0,0
1911,-9.0,33.0,-248.0,0
1912,-10.0,31.0,-253.0,0
1913,-8.0,33.0,-250.0,0
1914,-8.0,34.0,-252.0,0
1915,-9.0,33.0,-254.0,0
1916,-11.0,32.0,-253.0,0
1917,-9.0,35.0,-252.0,0
1918,-8.0,35.0,-259.0,0
1919,-10.0,35.0,-253.0,0
1920,-10.0,33.0,-253.0,0
1921,-7.0,34.0,-251.0,0
1922,-9.0,35.0,-255.0,0
1923,-7.0,33.0,-254.0,0
1924,-9.0,34.0,-254.0,0
1925,-7.0,32.0,-254.0,0
1926,-9.0,31.0,-252.0,0
1927,-11.0,35.0,-253.0,0
1928,-8.0,32.0,-250.0,0
1929,-11.0,34.0,-257.0,0
1930,-11.0,32.0,-254.0,0
1931,-9.0,30.0,-254.0,0
1932,-10.0,35.0,-249.0,0
1933,-9.0,32.0,-256.0,0
1934,-8.0,32.0,-258.0,0
1935,-9.0,31.0,-253.0,0
1936,-9.0,32.0,-247.0,0
1937,-8.0,31.0,-254.0,0
1938,-8.0,31.0,-251.0,0
1939,-9.0,33.0,-252.0,0
1940,-6.0,33.0,-248.0,0
1941,-11.0,34.0,-249.0,0
1942,-11.0,32.0,-252.0,0
1943,-9.0,32.0,-253.0,0
1944,-9.0,31.0,-250.0,0
1945,-9.0,33.0,-255.0,0
1946,-9.0,31.0,-251.0,0
1947,-6.0,32.0,-254.0,0
1948,-10.0,32.0,-256.0,0
1949,-8.0,31.0,-253.0,0
1950,-8.0,32.0,-254.0,0
1951,-9.0,30.0,-253.0,0
1952,-13.0,33.0,-253.0,0
1953,-11.0,33.0,-252.0,0
1954,-6.0,33.0,-251.0,0
1955,-9.0,33.0,-252.0,0
1956,-9.0,31.0,-250.0,0
1957,-11.0,33.0,-259.0,0
1958,-7.0,27.0,-252.0,0
1959,-8.0,32.0,-253.0,0
1960,-9.0,31.0,-252.0,0
1961,-7.0,34.0,-249.0,0
1962,-12.0,36.0,-252.0,0
1963,-8.0,31.0,-251.0,0
1964,-9.0,32.0,-251.0,0
1965,-9.0,33.0,-254.0,0
1966,-10.0,34.0,-251.0,0
1967,-10.0,31.0,-255.0,0
1968,-6.0,33.0,-253.0,0
1969,-9.0,34.0,-254.0,0
1970,-9.0,33.0,-256.0,0
1971,-13.0,35.0,-255.0,0
1972,-10.0,34.0,-253.0,0
1973,-7.0,32.0,-250.0,0
1974,-12.0,32.0,-254.0,0
1975,-11.0,36.0,-252.0,0
1976,-9.0,31.0,-257.0,0
1977,-9.0,32.0,-255.0,0
1978,-9.0,29.0,-254.0,0
1979,-9.0,33.0,-252.0,0
1980,-11.0,35.0,-251.0,0
1981,-8.0,31.0,-251.0,0
1982,-10.0,32.0,-251.0,0
1983,-12.0,31.0,-249.0,0
1984,-10.0,29.0,-255.0,0
1985,-10.0,30.0,-256.0,0
1986,-12.0,35.0,-256.0,0
1987,-10.0,31.0,-253.0,0
1988,-5.0,31.0,-257.0,0
1989,-11.0,33.0,-254.0,0
1990,-10.0,34.0,-251.0,0
1991,-10.0,33.0,-252.0,0
1992,-8.0,34.0,-254.0,0
1993,-9.0,30.0,-248.0,0
1994,-10.0,35.0,-252.0,0
1995,-8.0,33.0,-252.0,0
1996,-5.0,34.0,-253.0,0
1997,-9.0,36.0,-255.0,0
1998,-10.0,34.0,-254.0,0
1999,-14.0,32.0,-254.0,0
2000,-11.0,34.0,-255.0,0
2001,-8.0,33.0,-249.0,0
2002,-13.0,36.0,-250.0,0
2003,-10.0,32.0,-257.0,0
2004,-8.0,35.0,-249.0,0
2005,-10.0,34.0,-252.0,0
2006,-9.0,32.0,-254.0,0
2007,-13.0,35.0,-248.0,0
2008,-8.0,30.0,-251.0,0
2009,-10.0,33.0,-253.0,0
2010,-9.0,34.0,-255.0,0
2011,-7.0,32.0,-254.0,0
2012,-10.0,29.0,-249.0,0
2013,-10.0,32.0,-252.0,0
2014,-6.0,36.0,-251.0,0
2015,-11.0,31.0,-253.0,0
2016,-10.0,31.0,-252.0,0
2017,-9.0,30.0,-249.0,0
2018,-8.0,33.0,-253.0,0
2019,-8.0,32.0,-252.0,0
2020,-6.0,30.0,-252.0,0
2021,-8.0,33.0,-252.0,0
2022,-11.0,34.0,-254.0,0
2023,-11.0,32.0,-254.0,0
2024,-10.0,34.0,-255.0,0
2025,-10.0,30.0,-249.0,0
2026,-9.0,32.0,-254.0,0
2027,-12.0,33.0,-252.0,0
2028,-13.0,34.0,-254.0,0
2029,-11.0,32.0,-257.0,0
2030,-8.0,29.0,-254.0,0
2031,-9.0,32.0,-253.0,0
2032,-9.0,31.0,-253.0,0
2033,-10.0,32.0,-253.0,0
2034,-10.0,36.0,-255.0,0
2035,-10.0,31.0,-254.0,0
2036,-10.0,35.0,-254.0,0
2037,-13.0,34.0,-251.0,0
2038,-9.0,32.0,-254.0,0
2039,-12.0,33.0,-255.0,0
2040,-9.0,32.0,-250.0,0
2041,-10.0,33.0,-252.0,0
2042,-11.0,33.0,-250.0,0
2043,-13.0,35.0,-251.0,0
2044,-11.0,33.0,-252.0,0
2045,-11.0,33.0,-256.0,0
2046,-8.0,32.0,-250.0,0
2047,-8.0,30.0,-253.0,0
2048,-10.0,36.0,-252.0,0
2049,-9.0,34.0,-255.0,0
2050,-11.0,33.0,-252.0,0
2051,-7.0,34.0,-252.0,0
2052,-10.0,31.0,-252.0,0
2053,-10.0,33.0,-254.0,0
2054,-10.0,34.0,-253.0,0
2055,-10.0,32.0,-254.0,0
2056,-13.0,34.0,-250.0,0
2057,-11.0,31.0,-250.0,0
2058,-9.0,31.0,-253.0,0
2059,-10.0,33.0,-251.0,0
2060,-9.0,35.0,-253.0,0
2061,-12.0,34.0,-250.0,0
2062,-8.0,33.0,-252.0,0
2063,-12.0,32.0,-257.0,0
2064,-9.0,32.0,-252.0,0
2065,-11.0,33.0,-251.0,0
2066,-11.0,32.0,-252.0,0
2067,-11.0,33.0,-257.0,0
2068,-7.0,37.0,-259.0,0
2069,-10.0,33.0,-253.0,0
2070,-11.0,32.0,-252.0,0
2071,-11.0,31.0,-252.0,0
2072,-9.0,32.0,-253.0,0
2073,-10.0,36.0,-248.0,0
2074,-10.0,33.0,-255.0,0
2075,-10.0,32.0,-255.0,0
2076,-13.0,34.0,-252.0,0
2077,-11.0,31.0,-257.0,0
2078,-11.0,33.0,-249.0,0
2079,-6.0,34.0,-251.0,0
2080,-9.0,31.0,-252.0,0
2081,-10.0,34.0,-251.0,0
2082,-8.0,32.0,-253.0,0
2083,-11.0,31.0,-250.0,0
2084,-13.0,39.0,-255.0,0
2085,-9.0,31.0,-251.0,0
2086,-10.0,29.0,-252.0,0
2087,-12.0,34.0,-254.0,0
2088,-9.0,30.0,-250.0,0
2089,-13.0,32.0,-252.0,0
2090,-9.0,35.0,-253.0,0
2091,-9.0,32.0,-252.0,0
2092,-11.0,35.0,-253.0,0
2093,-11.0,31.0,-255.0,0
2094,-10.0,32.0,-253.0,0
2095,-10.0,33.0,-254.0,0
2096,-9.0,34.0,-249.0,0
2097,-12.0,32.0,-252.0,0
2098,-11.0,33.0,-253.0,0
2099,-11.0,33.0,-251.0,0
2100,-8.0,28.0,-254.0,0
2101,-11.0,30.0,-250.0,0
2102,-10.0,33.0,-255.0,0
2103,-9.0,35.0,-252.0,0
2104,-9.0,36.0,-253.0,0
2105,-10.0,31.0,-254.0,0
2106,-9.0,33.0,-256.0,0
2107,-9.0,31.0,-249.0,0
2108,-10.0,34.0,-251.0,0
2109,-7.0,31.0,-253.0,0
2110,-10.0,34.0,-252.0,0
2111,-10.0,30.0,-250.0,0
2112,-13.0,35.0,-251.0,0
2113,-9.0,34.0,-257.0,0
2114,-9.0,29.0,-253.0,0
2115,-10.0,34.0,-251.0,0
2116,-10.0,37.0,-252.0,0
2117,-10.0,31.0,-252.0,0
2118,-9.0,31.0,-253.0,0
2119,-8.0,33.0,-250.0,0
2120,-8.0,33.0,-250.0,0
2121,-6.0,29.0,-251.0,0
2122,-11.0,33.0,-253.0,0
2123,-6.0,36.0,-254.0,0
2124,-9.0,30.0,-252.0,0
2125,-11.0,33.0,-250.0,0
2126,-12.0,34.0,-252.0,0
2127,-12.0,32.0,-249.0,0
2128,-6.0,35.0,-251.0,0
2129,-10.0,38.0,-255.0,0
2130,-7.0,35.0,-254.0,0
2131,-9.0,35.0,-253.0,0
2132,-8.0,34.0,-251.0,0
2133,-9.0,31.0,-253.0,0
2134,-8.0,37.0,-250.0,0
2135,-9.0,32.0,-255.0,0
2136,-9.0,32.0,-255.0,0
2137,-6.0,34.0,-257.0,0
2138,-8.0,35.0,-254.0,0
2139,-7.0,33.0,-249.0,0
2140,-8.0,35.0,-253.0,0
2141,-8.0,32.0,-252.0,0
2142,-12.0,35.0,-253.0,0
2143,-9.0,33.0,-251.0,0
2144,-9.0,31.0,-252.0,0
2145,-9.0,32.0,-253.0,0
2146,-5.0,32.0,-251.0,0
2147,-11.0,37.0,-252.0,0
2148,-9.0,33.0,-251.0,0
2149,-8.0,33.0,-254.0,0
2150,-8.0,32.0,-254.0,0
2151,-9.0,35.0,-254.0,0
2152,-10.0,32.0,-252.0,0
2153,-8.0,33.0,-252.0,0
2154,-9.0,34.0,-253.0,0
2155,-8.0,34.0,-253.0,0
2156,-9.0,33.0,-253.0,0
2157,-12.0,37.0,-252.0,0
2158,-11.0,33.0,-251.0,0
2159,-10.0,34.0,-255.0,0
2160,-8.0,30.0,-249.0,0
2161,-8.0,34.0,-254.0,0
2162,-11.0,32.0,-255.0,0
2163,-6.0,35.0,-250.0,0
2164,-9.0,34.0,-251.0,0
2165,-8.0,32.0,-252.0,0
2166,-7.0,32.0,-254.0,0
2167,-10.0,32.0,-253.0,0
2168,-4.0,32.0,-252.0,0
2169,-11.0,34.0,-256.0,0
2170,-7.0,30.0,-255.0,0
2171,-10.0,35.0,-251.0,0
2172,-10.0,32.0,-253.0,0
2173,-9.0,31.0,-255.0,0
2174,-7.0,33.0,-253.0,0
2175,-7.0,33.0,-259.0,0
2176,-11.0,34.0,-255.0,0
2177,-8.0,36.0,-255.0,0
2178,-8.0,32.0,-253.0,0
2179,-12.0,31.0,-253.0,0
2180,-6.0,33.0,-251.0,0
2181,-10.0,34.0,-251.0,0
2182,-12.0,37.0,-253.0,0
2183,-9.0,34.0,-252.0,0
2184,-10.0,31.0,-254.0,0
2185,-11.0,35.0,-250.0,0
2186,-11.0,35.0,-254.0,0
2187,-10.0,37.0,-251.0,0
2188,-9.0,34.0,-250.0,0
2189,-10.0,32.0,-253.0,0
2190,-9.0,33.0,-249.0,0
2191,-10.0,34.0,-253.0,0
2192,-5.0,30.0,-253.0,0
2193,-10.0,35.0,-253.0,0
2194,-8.0,29.0,-251.0,0
2195,-10.0,36.0,-255.0,0
2196,-8.0,31.0,-251.0,0
2197,-9.0,37.0,-248.0,0
2198,-7.0,34.0,-256.0,0
2199,-8.0,35.0,-252.0,0
2200,-8.0,32.0,-251.0,0
2201,-10.0,38.0,-251.0,0
2202,-10.0,34.0,-256.0,0
2203,-10.0,35.0,-255.0,0
2204,-12.0,35.0,-253.0,0
2205,-10.0,35.0,-252.0,0
2206,-10.0,34.0,-254.0,0
2207,-11.0,36.0,-250.0,0
2208,-10.0,35.0,-251.0,0
2209,-10.0,36.0,-252.0,0
2210,-9.0,32.0,-251.0,0
2211,-11.0,34.0,-252.0,0
2212,-10.0,36.0,-254.0,0
2213,-7.0,32.0,-252.0,0
2214,-12.0,32.0,-255.0,0
2215,-12.0,31.0,-255.0,0
2216,-12.0,34.0,-252.0,0
2217,-7.0,34.0,-249.0,0
2218,-7.0,21.0,-243.0,0
2219,-7.0,33.0,-254.0,0
2220,-9.0,34.0,-252.0,0
2221,-11.0,35.0,-253.0,0
2222,-11.0,33.0,-253.0,0
2223,-12.0,32.0,-251.0,0
2224,-8.0,31.0,-252.0,0
2225,-8.0,34.0,-254.0,0
2226,-11.0,34.0,-250.0,0
2227,-8.0,31.0,-257.0,0
2228,-7.0,31.0,-254.0,0
2229,-7.0,34.0,-251.0,0
2230,-9.0,34.0,-255.0,0
2231,-8.0,34.0,-251.0,0
2232,-9.0,31.0,-258.0,0
2233,-7.0,34.0,-254.0,0
2234,-8.0,30.0,-250.0,0
2235,-8.0,31.0,-251.0,0
2236,-11.0,32.0,-251.0,0
2237,-11.0,31.0,-253.0,0
2238,-9.0,33.0,-254.0,0
2239,-9.0,36.0,-248.0,0
2240,-7.0,36.0,-252.0,0
2241,-10.0,31.0,-251.0,0
2242,-11.0,34.0,-251.0,0
2243,-9.0,34.0,-254.0,0
2244,-9.0,35.0,-254.0,0
2245,-9.0,33.0,-254.0,0
2246,-9.0,32.0,-253.0,0
2247,-8.0,32.0,-251.0,0
2248,-12.0,33.0,-252.0,0
2249,-8.0,29.0,-252.0,0
2250,-10.0,35.0,-252.0,0
2251,-8.0,31.0,-250.0,0
2252,-8.0,32.0,-253.0,0
2253,-9.0,32.0,-251.0,0
2254,-8.0,31.0,-253.0,0
2255,-12.0,36.0,-249.0,0
2256,-10.0,32.0,-253.0,0
2257,-8.0,33.0,-250.0,0
2258,-8.0,35.0,-251.0,0
2259,-12.0,32.0,-256.0,0
2260,-12.0,35.0,-253.0,0
2261,-11.0,26.0,-252.0,0
2262,-10.0,30.0,-252.0,0
2263,-8.0,34.0,-252.0,0
2264,-11.0,33.0,-248.0,0
2265,-8.0,32.0,-256.0,0
2266,-8.0,34.0,-254.0,0
2267,-8.0,35.0,-253.0,0
2268,-8.0,36.0,-252.0,0
2269,-11.0,36.0,-253.0,0
2270,-10.0,35.0,-255.0,0
2271,-11.0,33.0,-253.0,0
2272,-10.0,33.0,-253.0,0
2273,-11.0,36.0,-248.0,0
2274,-10.0,31.0,-253.0,0
2275,-9.0,34.0,-252.0,0
2276,-9.0,32.0,-253.0,0
2277,-8.0,30.0,-253.0,0
2278,-10.0,33.0,-253.0,0
2279,-10.0,32.0,-254.0,0
2280,-11.0,33.0,-251.0,0
2281,-10.0,33.0,-252.0,0
2282,-7.0,38.0,-260.0,0
2283,-9.0,33.0,-255.0,0
2284,-7.0,34.0,-254.0,0
2285,-10.0,33.0,-258.0,0
2286,-9.0,31.0,-253.0,0
2287,-9.0,32.0,-252.0,0
2288,-9.0,31.0,-253.0,0
2289,-6.0,35.0,-256.0,0
2290,-7.0,32.0,-255.0,0
2291,-10.0,34.0,-253.0,0
2292,-10.0,34.0,-254.0,0
2293,-9.0,32.0,-249.0,0
2294,-9.0,33.0,-250.0,0
2295,-12.0,34.0,-253.0,0
2296,-8.0,32.0,-253.0,0
2297,-11.0,33.0,-254.0,0
2298,-9.0,35.0,-256.0,0
2299,-9.0,37.0,-255.0,0
2300,-7.0,30.0,-250.0,0
2301,-10.0,36.0,-254.0,0
2302,-10.0,36.0,-254.0,0
2303,-8.0,28.0,-260.0,0
2304,-9.0,29.0,-251.0,0
2305,-6.0,31.0,-255.0,0
2306,-10.0,33.0,-255.0,0
2307,-9.0,34.0,-253.0,0
2308,-9.0,34.0,-252.0,0
2309,-12.0,32.0,-253.0,0
2310,-10.0,33.0,-256.0,0
2311,-10.0,35.0,-253.0,0
2312,-10.0,33.0,-253.0,0
2313,-10.0,34.0,-253.0,0
2314,-9.0,33.0,-255.0,0
2315,-12.0,34.0,-251.0,0
2316,-9.0,35.0,-252.0,0
2317,-12.0,33.0,-253.0,0
2318,-8.0,32.0,-252.0,0
2319,-10.0,30.0,-252.0,0
2320,-12.0,32.0,-254.0,0
2321,-12.0,35.0,-251.0,0
2322,-10.0,32.0,-250.0,0
2323,-9.0,34.0,-255.0,0
2324,-10.0,34.0,-256.0,0
2325,-7.0,30.0,-257.0,0
2326,-10.0,35.0,-254.0,0
2327,-8.0,33.0,-256.0,0
2328,-11.0,35.0,-255.0,0
2329,-10.0,33.0,-253.0,0
2330,-10.0,33.0,-252.0,0
2331,-10.0,33.0,-253.0,0
2332,-8.0,33.0,-255.0,0
2333,-9.0,33.0,-254.0,0
2334,-7.0,30.0,-253.0,0
2335,-13.0,32.0,-253.0,0
2336,-10.0,30.0,-251.0,0
2337,-8.0,31.0,-250.0,0
2338,-11.0,33.0,-253.0,0
2339,-8.0,33.0,-250.0,0
2340,-7.0,31.0,-252.0,0
2341,-13.0,34.0,-251.0,0
2342,-8.0,30.0,-253.0,0
2343,-12.0,30.0,-252.0,0
2344,-10.0,32.0,-252.0,0
2345,-8.0,35.0,-253.0,0
2346,-14.0,28.0,-254.0,0
2347,-11.0,32.0,-253.0,0
2348,-9.0,34.0,-253.0,0
2349,-9.0,33.0,-252.0,0
2350,-9.0,35.0,-258.0,0
2351,-10.0,34.0,-251.0,0
2352,-8.0,32.0,-257.0,0
2353,-10.0,35.0,-252.0,0
2354,-13.0,35.0,-256.0,0
2355,-9.0,30.0,-252.0,0
2356,-8.0,34.0,-253.0,0
2357,-7.0,31.0,-253.0,0
2358,-10.0,34.0,-253.0,0
2359,-7.0,31.0,-250.0,0
2360,-9.0,33.0,-252.0,0
2361,-11.0,33.0,-254.0,0
2362,-10.0,33.0,-253.0,0
2363,-8.0,33.0,-255.0,0
2364,-10.0,35.0,-252.0,0
2365,-8.0,31.0,-255.0,0
2366,-10.0,33.0,-255.0,0
2367,1.0,34.0,-257.0,0
2368,-10.0,35.0,-253.0,0
2369,-8.0,33.0,-257.0,0
2370,-7.0,31.0,-255.0,0
2371,-8.0,34.0,-254.0,0
2372,-11.0,33.0,-254.0,0
2373,-12.0,32.0,-254.0,0
2374,-14.0,34.0,-253.0,0
2375,-8.0,33.0,-252.0,0
2376,-11.0,32.0,-253.0,0
2377,-12.0,31.0,-252.0,0
2378,-10.0,33.0,-250.0,0
2379,-7.0,31.0,-252.0,0
2380,-11.0,33.0,-252.0,0
2381,-12.0,36.0,-256.0,0
2382,-7.0,34.0,-251.0,0
2383,-10.0,35.0,-253.0,0
2384,-11.0,34.0,-249.0,0
2385,-12.0,33.0,-252.0,0
2386,-9.0,33.0,-255.0,0
2387,-11.0,31.0,-251.0,0
2388,-7.0,31.0,-249.0,0
2389,-7.0,34.0,-250.0,0
2390,-10.0,33.0,-252.0,0
2391,-13.0,32.0,-253.0,0
2392,-7.0,32.0,-251.0,0
2393,-11.0,32.0,-254.0,0
2394,-9.0,34.0,-253.0,0
2395,-8.0,29.0,-255.0,0
2396,-11.0,32.0,-256.0,0
2397,-10.0,31.0,-255.0,0
2398,-12.0,35.0,-252.0,0
2399,-11.0,35.0,-253.0,0
2400,-9.0,34.0,-254.0,0
2401,-10.0,33.0,-250.0,0
2402,-12.0,32.0,-253.0,0
2403,-9.0,30.0,-253.0,0
2404,-8.0,30.0,-249.0,0
2405,-5.0,32.0,-258.0,0
2406,-12.0,32.0,-250.0,0
2407,-8.0,31.0,-248.0,0
2408,-12.0,33.0,-255.0,0
2409,-10.0,33.0,-251.0,0
2410,-14.0,31.0,-249.0,0
2411,-11.0,31.0,-253.0,0
2412,-12.0,35.0,-255.0,0
2413,-12.0,30.0,-251.0,0
2414,-9.0,32.0,-251.0,0
2415,-11.0,34.0,-251.0,0
2416,-11.0,34.0,-253.0,0
2417,-6.0,30.0,-250.0,0
2418,-13.0,33.0,-252.0,0
2419,-11.0,33.0,-257.0,0
2420,-12.0,36.0,-256.0,0
2421,-10.0,33.0,-252.0,0
2422,-11.0,35.0,-249.0,0
2423,-10.0,35.0,-252.0,0
2424,-9.0,29.0,-253.0,0
2425,-11.0,33.0,-256.0,0
2426,-11.0,34.0,-254.0,0
2427,-10.0,31.0,-258.0,0
2428,-8.0,33.0,-254.0,0
2429,-11.0,34.0,-251.0,0
2430,-11.0,33.0,-256.0,0
2431,-8.0,32.0,-245.0,0
2432,-12.0,32.0,-252.0,0
2433,-10.0,32.0,-255.0,0
2434,-9.0,33.0,-253.0,0
2435,-14.0,34.0,-249.0,0
2436,-10.0,32.0,-253.0,0
2437,-8.0,34.0,-255.0,0
2438,-11.0,32.0,-251.0,0
2439,-13.0,32.0,-254.0,0
2440,-11.0,32.0,-254.0,0
2441,-10.0,30.0,-255.0,0
2442,-12.0,33.0,-252.0,0
2443,-12.0,33.0,-254.0,0
2444,-8.0,31.0,-255.0,0
2445,-10.0,33.0,-253.0,0
2446,-10.0,32.0,-254.0,0
2447,-7.0,33.0,-251.0,0
2448,-11.0,32.0,-254.0,0
2449,-11.0,31.0,-252.0,0
2450,-11.0,32.0,-252.0,0
2451,-11.0,33.0,-254.0,0
2452,-11.0,33.0,-253.0,0
2453,-8.0,30.0,-256.0,0
2454,-10.0,33.0,-250.0,0
2455,-11.0,30.0,-252.0,0
2456,-10.0,31.0,-254.0,0
2457,-15.0,35.0,-251.0,0
2458,-10.0,31.0,-253.0,0
2459,-11.0,33.0,-255.0,0
2460,-9.0,32.0,-253.0,0
2461,-11.0,32.0,-250.0,0
2462,-11.0,33.0,-251.0,0
2463,-10.0,35.0,-251.0,0
2464,-10.0,35.0,-251.0,0
2465,-11.0,33.0,-254.0,0
2466,-12.0,33.0,-251.0,0
2467,-11.0,35.0,-253.0,0
2468,-12.0,34.0,-253.0,0
2469,-8.0,32.0,-249.0,0
2470,-9.0,29.0,-248.0,0
2471,-12.0,34.0,-252.0,0
2472,-12.0,30.0,-251.0,0
2473,-11.0,33.0,-255.0,0
2474,-7.0,32.0,-255.0,0
2475,-11.0,33.0,-253.0,0
2476,-8.0,32.0,-253.0,0
2477,-10.0,34.0,-248.0,0
2478,-10.0,32.0,-250.0,0
2479,-13.0,30.0,-252.0,0
2480,-11.0,33.0,-256.0,0
2481,-11.0,37.0,-253.0,0
2482,-11.0,34.0,-253.0,0
2483,-11.0,35.0,-251.0,0
2484,-12.0,31.0,-253.0,0
2485,-9.0,33.0,-252.0,0
2486,-13.0,33.0,-254.0,0
2487,-9.0,33.0,-253.0,0
2488,-12.0,34.0,-255.0,0
2489,-11.0,32.0,-256.0,0
2490,-10.0,34.0,-254.0,0
2491,-15.0,32.0,-251.0,0
2492,-9.0,33.0,-247.0,0
2493,-12.0,34.0,-253.0,0
2494,-11.0,32.0,-253.0,0
2495,-11.0,29.0,-255.0,0
2496,-11.0,29.0,-254.0,0
2497,-11.0,30.0,-254.0,0
2498,-12.0,35.0,-251.0,0
2499,-10.0,31.0,-254.0,0
2500,-13.0,33.0,-249.0,0
2501,-14.0,30.0,-252.0,0
2502,-8.0,34.0,-254.0,0
2503,-11.0,34.0,-254.0,0
2504,-7.0,30.0,-254.0,0
2505,-13.0,30.0,-254.0,0
2506,-11.0,34.0,-249.0,0
2507,-12.0,32.0,-252.0,0
2508,-11.0,35.0,-251.0,0
2509,-9.0,32.0,-253.0,0
2510,-11.0,31.0,-253.0,0
2511,-10.0,30.0,-253.0,0
2512,-10.0,32.0,-250.0,0
2513,-12.0,33.0,-254.0,0
2514,-13.0,34.0,-252.0,0
2515,-9.0,31.0,-253.0,0
2516,-12.0,33.0,-251.0,0
2517,-12.0,28.0,-253.0,0
2518,-12.0,32.0,-255.0,0
2519,-13.0,31.0,-250.0,0
2520,-9.0,33.0,-254.0,0
2521,-10.0,35.0,-256.0,0
2522,-9.0,29.0,-255.0,0
2523,-9.0,33.0,-248.0,0
2524,-9.0,32.0,-249.0,0
2525,-8.0,31.0,-250.0,0
2526,-13.0,33.0,-255.0,0
2527,-10.0,32.0,-253.0,0
2528,-12.0,33.0,-255.0,0
2529,-13.0,34.0,-250.0,0
2530,-12.0,33.0,-253.0,0
2531,-13.0,30.0,-248.0,0
2532,-9.0,30.0,-253.0,0
2533,-10.0,33.0,-250.0,0
2534,-11.0,35.0,-252.0,0
2535,-11.0,31.0,-254.0,0
2536,-11.0,33.0,-251.0,0
2537,-13.0,33.0,-251.0,0
2538,-11.0,31.0,-255.0,0
2539,-11.0,30.0,-254.0,0
2540,-11.0,32.0,-255.0,0
2541,-10.0,33.0,-254.0,0
2542,-12.0,34.0,-251.0,0
2543,-10.0,31.0,-255.0,0
2544,-13.0,37.0,-251.0,0
2545,-7.0,34.0,-251.0,0
2546,-9.0,34.0,-254.0,0
2547,-9.0,35.0,-255.0,0
2548,-12.0,32.0,-253.0,0
2549,-12.0,37.0,-252.0,0
2550,-13.0,31.0,-253.0,0
2551,-13.0,31.0,-251.0,0
2552,-10.0,35.0,-253.0,0
2553,-7.0,31.0,-251.0,0
2554,-14.0,36.0,-252.0,0
2555,-11.0,34.0,-252.0,0
2556,-12.0,35.0,-250.0,0
2557,-9.0,35.0,-253.0,0
2558,-8.0,34.0,-257.0,0
2559,-10.0,28.0,-251.0,0
2560,-12.0,31.0,-249.0,0
2561,-8.0,32.0,-255.0,0
2562,-11.0,32.0,-253.0,0
2563,-11.0,35.0,-254.0,0
2564,-8.0,32.0,-251.0,0
2565,-12.0,32.0,-253.0,0
2566,-12.0,35.0,-252.0,0
2567,-12.0,34.0,-252.0,0
2568,-11.0,31.0,-255.0,0
2569,-10.0,33.0,-253.0,0
2570,-9.0,33.0,-252.0,0
2571,-11.0,31.0,-253.0,0
2572,-8.0,33.0,-252.0,0
2573,-11.0,33.0,-251.0,0
2574,-12.0,33.0,-257.0,0
2575,-9.0,33.0,-252.0,0
2576,-13.0,34.0,-249.0,0
2577,-10.0,37.0,-255.0,0
2578,-10.0,34.0,-251.0,0
2579,-12.0,37.0,-254.0,0
2580,-8.0,35.0,-253.0,0
2581,-13.0,29.0,-257.0,0
2582,-12.0,34.0,-251.0,0
2583,-12.0,34.0,-251.0,0
2584,-9.0,32.0,-251.0,0
2585,-10.0,34.0,-251.0,0
2586,-9.0,35.0,-254.0,0
2587,-14.0,33.0,-252.0,0
2588,-13.0,30.0,-256.0,0
2589,-9.0,32.0,-251.0,0
2590,-9.0,33.0,-252.0,0
2591,-10.0,32.0,-251.0,0
2592,-12.0,32.0,-252.0,0
2593,-9.0,34.0,-255.0,0
2594,-6.0,31.0,-250.0,0
2595,-9.0,32.0,-253.0,0
2596,-14.0,31.0,-252.0,0
2597,-10.0,33.0,-253.0,0
2598,-10.0,34.0,-252.0,0
2599,-9.0,34.0,-255.0,0
2600,-12.0,33.0,-255.0,0
2601,-9.0,33.0,-254.0,0
2602,-9.0,39.0,-257.0,0
2603,-9.0,32.0,-252.0,0
2604,-8.0,33.0,-254.0,0
2605,-9.0,32.0,-257.0,0
2606,-9.0,34.0,-254.0,0
2607,-11.0,34.0,-255.0,0
2608,-11.0,34.0,-253.0,0
2609,-11.0,33.0,-252.0,0
2610,-11.0,33.0,-250.0,0
2611,-11.0,33.0,-249.0,0
2612,-10.0,36.0,-252.0,0
2613,-10.0,33.0,-256.0,0
2614,-10.0,34.0,-252.0,0
2615,-12.0,33.0,-254.0,0
2616,-11.0,32.0,-255.0,0
2617,-12.0,36.0,-253.0,0
2618,-9.0,31.0,-254.0,0
2619,-14.0,34.0,-253.0,0
2620,-8.0,36.0,-255.0,0
2621,-12.0,34.0,-252.0,0
2622,-9.0,35.0,-252.0,0
2623,-8.0,31.0,-262.0,0
2624,-9.0,33.0,-254.0,0
2625,-10.0,34.0,-254.0,0
2626,-12.0,34.0,-255.0,0
2627,-10.0,35.0,-253.0,0
2628,-10.0,34.0,-251.0,0
2629,-10.0,34.0,-250.0,0
2630,-10.0,30.0,-257.0,0
2631,-12.0,30.0,-252.0,0
2632,-9.0,34.0,-253.0,0
2633,-9.0,33.0,-246.0,0
2634,-10.0,32.0,-252.0,0
2635,-9.0,31.0,-250.0,0
2636,-8.0,31.0,-252.0,0
2637,-10.0,33.0,-257.0,0
2638,-10.0,30.0,-253.0,0
2639,-10.0,33.0,-257.0,0
2640,-11.0,33.0,-252.0,0
2641,-12.0,34.0,-255.0,0
2642,-9.0,31.0,-253.0,0
2643,-9.0,35.0,-254.0,0
2644,-10.0,32.0,-252.0,0
2645,-11.0,42.0,-253.0,0
2646,-10.0,29.0,-254.0,0
2647,-9.0,33.0,-252.0,0
2648,-12.0,36.0,-253.0,0
2649,-9.0,33.0,-256.0,0
2650,-10.0,31.0,-254.0,0
2651,-9.0,32.0,-254.0,0
2652,-9.0,32.0,-258.0,0
2653,-9.0,29.0,-253.0,0
2654,-19.0,31.0,-255.0,0
2655,-8.0,32.0,-257.0,0
2656,-10.0,31.0,-253.0,0
2657,-11.0,35.0,-250.0,0
2658,-9.0,30.0,-251.0,0
2659,-11.0,35.0,-250.0,0
2660,-11.0,32.0,-252.0,0
2661,-13.0,32.0,-256.0,0
2662,-11.0,33.0,-252.0,0
2663,-10.0,31.0,-252.0,0
2664,-9.0,32.0,-254.0,0
2665,-12.0,35.0,-252.0,0
2666,-8.0,38.0,-257.0,0
2667,-11.0,32.0,-252.0,0
2668,-9.0,31.0,-254.0,0
2669,-11.0,34.0,-250.0,0
2670,-10.0,31.0,-252.0,0
2671,-10.0,32.0,-253.0,0
2672,-11.0,32.0,-252.0,0
2673,-14.0,33.0,-251.0,0
2674,-10.0,33.0,-253.0,0
2675,-12.0,35.0,-255.0,0
2676,-11.0,32.0,-252.0,0
2677,-11.0,33.0,-257.0,0
2678,-12.0,33.0,-249.0,0
2679,-9.0,32.0,-255.0,0
2680,-14.0,33.0,-253.0,0
2681,-9.0,32.0,-249.0,0
2682,-11.0,32.0,-250.0,0
2683,-11.0,33.0,-249.0,0
2684,-10.0,29.0,-257.0,0
2685,-12.0,34.0,-256.0,0
2686,-11.0,33.0,-252.0,0
2687,-15.0,25.0,-249.0,0
2688,-10.0,30.0,-253.0,0
2689,-11.0,32.0,-255.0,0
2690,-9.0,31.0,-253.0,0
2691,-11.0,34.0,-252.0,0
2692,-11.0,31.0,-252.0,0
2693,-10.0,32.0,-253.0,0
2694,-7.0,33.0,-253.0,0
2695,-14.0,33.0,-253.0,0
2696,-8.0,34.0,-256.0,0
2697,-10.0,37.0,-259.0,0
2698,-10.0,33.0,-252.0,0
2699,-10.0,32.0,-254.0,0
2700,-12.0,33.0,-251.0,0
2701,-8.0,33.0,-252.0,0
2702,-11.0,31.0,-250.0,0
2703,-10.0,31.0,-252.0,0
2704,-13.0,32.0,-252.0,0
2705,-8.0,31.0,-253.0,0
2706,-13.0,37.0,-251.0,0
2707,-11.0,31.0,-254.0,0
2708,-10.0,32.0,-253.0,0
2709,-17.0,32.0,-256.0,0
2710,-11.0,36.0,-252.0,0
2711,-11.0,32.0,-253.0,0
2712,-11.0,31.0,-251.0,0
2713,-9.0,32.0,-255.0,0
2714,-11.0,35.0,-253.0,0
2715,-11.0,34.0,-249.0,0
2716,-12.0,34.0,-256.0,0
2717,-12.0,33.0,-254.0,0
2718,-10.0,26.0,-248.0,0
2719,-9.0,31.0,-251.0,0
2720,-11.0,32.0,-253.0,0
2721,-14.0,34.0,-250.0,0
2722,-10.0,33.0,-253.0,0
2723,-11.0,31.0,-253.0,0
2724,-10.0,33.0,-253.0,0
2725,-11.0,34.0,-254.0,0
2726,-9.0,31.0,-255.0,0
2727,-12.0,33.0,-252.0,0
2728,-9.0,33.0,-252.0,0
2729,-12.0,31.0,-254.0,0
2730,-11.0,32.0,-252.0,0
2731,-9.0,32.0,-254.0,0
2732,-10.0,36.0,-252.0,0
2733,-13.0,33.0,-254.0,0
2734,-12.0,32.0,-255.0,0
2735,-13.0,32.0,-252.0,0
2736,-11.0,31.0,-252.0,0
2737,-12.0,31.0,-252.0,0
2738,-11.0,30.0,-252.0,0
2739,-11.0,32.0,-257.0,0
2740,-17.0,35.0,-250.0,0
2741,-11.0,33.0,-253.0,0
2742,-9.0,34.0,-250.0,0
2743,-10.0,36.0,-252.0,0
2744,-12.0,34.0,-253.0,0
2745,-10.0,33.0,-252.0,0
2746,-10.0,33.0,-252.0,0
2747,-10.0,32.0,-253.0,0
2748,-10.0,30.0,-254.0,0
2749,-10.0,32.0,-251.0,0
2750,-10.0,32.0,-253.0,0
2751,-12.0,35.0,-256.0,0
2752,-12.0,30.0,-253.0,0
2753,-10.0,31.0,-256.0,0
2754,-10.0,33.0,-251.0,0
2755,-12.0,31.0,-250.0,0
2756,-11.0,32.0,-253.0,0
2757,-11.0,32.0,-252.0,0
2758,-15.0,34.0,-255.0,0
2759,-12.0,31.0,-252.0,0
2760,-9.0,35.0,-251.0,0
2761,-7.0,31.0,-252.0,0
2762,-11.0,35.0,-252.0,0
2763,-12.0,34.0,-252.0,0
2764,-12.0,34.0,-252.0,0
2765,-14.0,32.0,-254.0,0
2766,-11.0,30.0,-252.0,0
2767,-14.0,32.0,-250.0,0
2768,-13.0,34.0,-251.0,0
2769,-10.0,29.0,-253.0,0
2770,-11.0,31.0,-253.0,0
2771,-9.0,34.0,-254.0,0
2772,-12.0,31.0,-250.0,0
2773,-13.0,31.0,-254.0,0
2774,-12.0,32.0,-254.0,0
2775,-12.0,31.0,-251.0,0
2776,-11.0,33.0,-254.0,0
2777,-10.0,34.0,-254.0,0
2778,-13.0,33.0,-254.0,0
2779,-10.0,29.0,-252.0,0
2780,-11.0,34.0,-248.0,0
2781,-12.0,32.0,-257.0,0
2782,-13.0,34.0,-255.0,0
2783,-11.0,31.0,-256.0,0
2784,-11.0,31.0,-250.0,0
2785,-11.0,32.0,-254.0,0
2786,-11.0,34.0,-251.0,0
2787,-12.0,33.0,-251.0,0
2788,-11.0,30.0,-254.0,0
2789,-10.0,32.0,-252.0,0
2790,-9.0,32.0,-255.0,0
2791,-14.0,35.0,-254.0,0
2792,-9.0,33.0,-251.0,0
2793,-10.0,33.0,-253.0,0
2794,-10.0,31.0,-251.0,0
2795,-11.0,30.0,-254.0,0
2796,-11.0,34.0,-251.0,0
2797,-12.0,35.0,-251.0,0
2798,-13.0,36.0,-251.0,0
2799,-12.0,31.0,-254.0,0
2800,-13.0,33.0,-252.0,0
2801,-11.0,33.0,-252.0,0
2802,-13.0,34.0,-250.0,0
2803,-11.0,32.0,-255.0,0
2804,-10.0,32.0,-251.0,0
2805,-11.0,32.0,-251.0,0
2806,-14.0,32.0,-252.0,0
2807,-10.0,33.0,-253.0,0
2808,-12.0,33.0,-252.0,0
2809,-9.0,32.0,-253.0,0
2810,-12.0,32.0,-250.0,0
2811,-12.0,34.0,-252.0,0
2812,-13.0,35.0,-255.0,0
2813,-11.0,29.0,-253.0,0
2814,-16.0,36.0,-252.0,0
2815,-15.0,33.0,-250.0,0
2816,-13.0,34.0,-248.0,0
2817,-12.0,34.0,-251.0,0
2818,-13.0,34.0,-253.0,0
2819,-10.0,32.0,-252.0,0
2820,-11.0,28.0,-254.0,0
2821,-11.0,32.0,-250.0,0
2822,-14.0,32.0,-254.0,0
2823,-13.0,33.0,-259.0,0
2824,-11.0,33.0,-252.0,0
2825,-12.0,34.0,-254.0,0
2826,-14.0,33.0,-252.0,0
2827,-10.0,32.0,-253.0,0
2828,-13.0,32.0,-252.0,0
2829,-12.0,31.0,-254.0,0
2830,-10.0,36.0,-253.0,0
2831,-13.0,36.0,-253.0,0
2832,-10.0,32.0,-251.0,0
2833,-13.0,33.0,-254.0,0
2834,-12.0,35.0,-251.0,0
2835,-13.0,31.0,-251.0,0
2836,-13.0,32.0,-253.0,0
2837,-12.0,31.0,-250.0,0
2838,-13.0,31.0,-252.0,0
2839,-13.0,36.0,-253.0,0
2840,-13.0,34.0,-253.0,0
2841,-11.0,32.0,-252.0,0
2842,-7.0,31.0,-254.0,0
2843,-12.0,35.0,-255.0,0
2844,-13.0,31.0,-254.0,0
2845,-11.0,32.0,-255.0,0
2846,-11.0,32.0,-253.0,0
2847,-15.0,34.0,-253.0,0
2848,-10.0,32.0,-250.0,0
2849,-11.0,31.0,-253.0,0
2850,-10.0,32.0,-249.0,0
2851,-12.0,31.0,-251.0,0
2852,-12.0,33.0,-252.0,0
2853,-13.0,36.0,-255.0,0
2854,-15.0,34.0,-255.0,0
2855,-14.0,31.0,-253.0,0
2856,-9.0,32.0,-254.0,0
2857,-11.0,33.0,-252.0,0
2858,-11.0,32.0,-257.0,0
2859,-10.0,33.0,-253.0,0
2860,-12.0,31.0,-254.0,0
2861,-13.0,30.0,-255.0,0
2862,-9.0,31.0,-253.0,0
2863,-11.0,34.0,-255.0,0
2864,-10.0,34.0,-254.0,0
2865,-11.0,33.0,-251.0,0
2866,-11.0,31.0,-253.0,0
2867,-12.0,34.0,-253.0,0
2868,-12.0,31.0,-249.0,0
2869,-12.0,36.0,-252.0,0
2870,-11.0,31.0,-254.0,0
2871,-15.0,36.0,-253.0,0
2872,-7.0,30.0,-251.0,0
2873,-10.0,32.0,-251.0,0
2874,-10.0,33.0,-249.0,0
2875,-11.0,30.0,-252.0,0
2876,-12.0,33.0,-250.0,0
2877,-11.0,35.0,-251.0,0
2878,-9.0,31.0,-253.0,0
2879,-12.0,32.0,-254.0,0
2880,-9.0,34.0,-253.0,0
2881,-13.0,34.0,-250.0,0
2882,-10.0,33.0,-252.0,0
2883,-10.0,35.0,-252.0,0
2884,-11.0,34.0,-253.0,0
2885,-13.0,32.0,-252.0,0
2886,-13.0,33.0,-248.0,0
2887,-12.0,31.0,-252.0,0
2888,-12.0,34.0,-251.0,0
2889,-16.0,37.0,-253.0,0
2890,-14.0,35.0,-255.0,0
2891,-14.0,38.0,-252.0,0
2892,-12.0,34.0,-251.0,0
2893,-11.0,35.0,-253.0,0
2894,-12.0,34.0,-254.0,0
2895,-13.0,33.0,-255.0,0
2896,-11.0,32.0,-253.0,0
2897,-14.0,34.0,-252.0,0
2898,-11.0,35.0,-254.0,0
2899,-13.0,35.0,-250.0,0
2900,-10.0,33.0,-256.0,0
2901,-10.0,32.0,-249.0,0
2902,-9.0,33.0,-252.0,0
2903,-10.0,28.0,-254.0,0
2904,-10.0,31.0,-253.0,0
2905,-12.0,34.0,-252.0,0
2906,-13.0,33.0,-252.0,0
2907,-11.0,32.0,-251.0,0
2908,-12.0,33.0,-256.0,0
2909,-12.0,33.0,-255.0,0
2910,-12.0,34.0,-250.0,0
2911,-10.0,32.0,-255.0,0
2912,-8.0,34.0,-255.0,0
2913,-9.0,33.0,-252.0,0
2914,-12.0,31.0,-255.0,0
2915,-11.0,32.0,-250.0,0
2916,-14.0,35.0,-251.0,0
2917,-8.0,34.0,-252.0,0
2918,-9.0,32.0,-253.0,0
2919,-9.0,33.0,-251.0,0
2920,-8.0,31.0,-254.0,0
2921,-10.0,33.0,-252.0,0
2922,-12.0,36.0,-254.0,0
2923,-11.0,36.0,-248.0,0
2924,-13.0,34.0,-249.0,0
2925,-9.0,33.0,-251.0,0
2926,-11.0,32.0,-255.0,0
2927,-13.0,34.0,-252.0,0
2928,-12.0,36.0,-253.0,0
2929,-11.0,34.0,-251.0,0
2930,-13.0,32.0,-251.0,0
2931,-11.0,34.0,-256.0,0
2932,-12.0,34.0,-255.0,0
2933,-11.0,33.0,-255.0,0
2934,-16.0,37.0,-254.0,0
2935,-14.0,36.0,-254.0,0
2936,-10.0,33.0,-253.0,0
2937,-11.0,36.0,-249.0,0
2938,-10.0,34.0,-255.0,0
2939,-12.0,34.0,-250.0,0
2940,-11.0,36.0,-254.0,0
2941,-11.0,36.0,-251.0,0
2942,-13.0,32.0,-251.0,0
2943,-11.0,34.0,-249.0,0
2944,-11.0,33.0,-255.0,0
2945,-13.0,35.0,-254.0,0
2946,-9.0,32.0,-251.0,0
2947,-13.0,33.0,-256.0,0
2948,-9.0,32.0,-253.0,0
2949,-12.0,33.0,-254.0,0
2950,-12.0,36.0,-254.0,0
2951,-11.0,35.0,-252.0,0
2952,-10.0,33.0,-254.0,0
2953,-14.0,37.0,-253.0,0
2954,-8.0,35.0,-253.0,0
2955,-12.0,34.0,-251.0,0
2956,-11.0,33.0,-253.0,0
2957,-9.0,35.0,-252.0,0
2958,-8.0,34.0,-254.0,0
2959,-9.0,35.0,-253.0,0
2960,-13.0,32.0,-250.0,0
2961,-9.0,35.0,-250.0,0
2962,-11.0,34.0,-252.0,0
2963,-11.0,34.0,-253.0,0
2964,-10.0,34.0,-254.0,0
2965,-14.0,32.0,-249.0,0
2966,-12.0,38.0,-252.0,0
2967,-12.0,37.0,-251.0,0
2968,-12.0,33.0,-254.0,0
2969,-10.0,37.0,-253.0,0
2970,-14.0,37.0,-253.0,0
2971,-13.0,35.0,-252.0,0
2972,-4.0,33.0,-250.0,0
2973,-12.0,33.0,-248.0,0
2974,-10.0,35.0,-251.0,0
2975,-13.0,33.0,-255.0,0
2976,-12.0,34.0,-247.0,0
2977,-12.0,35.0,-247.0,0
2978,-10.0,35.0,-254.0,0
2979,-10.0,32.0,-253.0,0
2980,-11.0,33.0,-254.0,0
2981,-12.0,35.0,-253.0,0
2982,-9.0,33.0,-257.0,0
2983,-7.0,29.0,-246.0,0
2984,-8.0,34.0,-256.0,0
2985,-10.0,35.0,-250.0,0
2986,-7.0,35.0,-253.0,0
2987,-11.0,36.0,-252.0,0
2988,-10.0,36.0,-252.0,0
2989,-14.0,37.0,-252.0,0
2990,-10.0,33.0,-252.0,0
2991,-8.0,35.0,-255.0,0
2992,-12.0,34.0,-257.0,0
2993,-13.0,37.0,-252.0,0
2994,-10.0,36.0,-252.0,0
2995,-10.0,33.0,-252.0,0
2996,-8.0,34.0,-251.0,0
2997,-10.0,33.0,-254.0,0
2998,-9.0,35.0,-252.0,0
