,accelerometer_x,accelerometer_y,accelerometer_z,fall
0,18.0,-251.0,-34.0,0
1,21.0,-254.0,-36.0,0
2,21.0,-249.0,-34.0,0
3,18.0,-255.0,-34.0,0
4,21.0,-250.0,-33.0,0
5,18.0,-245.0,-30.0,0
6,21.0,-251.0,-34.0,0
7,17.0,-250.0,-33.0,0
8,18.0,-250.0,-35.0,0
9,21.0,-249.0,-35.0,0
10,14.0,-246.0,-32.0,0
11,17.0,-250.0,-36.0,0
12,13.0,-247.0,-35.0,0
13,16.0,-250.0,-37.0,0
14,18.0,-251.0,-37.0,0
15,19.0,-253.0,-39.0,0
16,14.0,-241.0,-39.0,0
17,16.0,-251.0,-32.0,0
18,16.0,-253.0,-36.0,0
19,18.0,-250.0,-32.0,0
20,18.0,-251.0,-32.0,0
21,18.0,-255.0,-37.0,0
22,16.0,-247.0,-36.0,0
23,14.0,-251.0,-32.0,0
24,19.0,-253.0,-37.0,0
25,17.0,-250.0,-31.0,0
26,13.0,-234.0,-46.0,0
27,22.0,-249.0,-33.0,0
28,22.0,-248.0,-32.0,0
29,26.0,-252.0,-31.0,0
30,25.0,-251.0,-33.0,0
31,21.0,-250.0,-36.0,0
32,20.0,-249.0,-33.0,0
33,21.0,-246.0,-33.0,0
34,23.0,-252.0,-30.0,0
35,29.0,-248.0,-35.0,0
36,22.0,-251.0,-31.0,0
37,22.0,-240.0,-43.0,0
38,23.0,-251.0,-34.0,0
39,23.0,-251.0,-36.0,0
40,24.0,-251.0,-37.0,0
41,24.0,-253.0,-34.0,0
42,20.0,-252.0,-33.0,0
43,20.0,-251.0,-35.0,0
44,21.0,-247.0,-39.0,0
45,23.0,-250.0,-36.0,0
46,20.0,-249.0,-33.0,0
47,23.0,-252.0,-32.0,0
48,4.0,-245.0,-27.0,0
49,23.0,-252.0,-35.0,0
50,22.0,-252.0,-36.0,0
51,24.0,-252.0,-35.0,0
52,22.0,-250.0,-35.0,0
53,22.0,-250.0,-36.0,0
54,25.0,-250.0,-34.0,0
55,23.0,-248.0,-38.0,0
56,27.0,-251.0,-32.0,0
57,25.0,-249.0,-29.0,0
58,25.0,-249.0,-35.0,0
59,18.0,-242.0,-40.0,0
60,23.0,-248.0,-37.0,0
61,23.0,-248.0,-37.0,0
62,23.0,-247.0,-35.0,0
63,24.0,-249.0,-33.0,0
64,23.0,-248.0,-34.0,0
65,27.0,-249.0,-38.0,0
66,23.0,-249.0,-35.0,0
67,27.0,-250.0,-27.0,0
68,25.0,-250.0,-31.0,0
69,24.0,-251.0,-27.0,0
70,12.0,-252.0,-31.0,0
71,22.0,-252.0,-30.0,0
72,23.0,-251.0,-29.0,0
73,23.0,-252.0,-31.0,0
74,25.0,-254.0,-30.0,0
75,24.0,-250.0,-29.0,0
76,22.0,-252.0,-31.0,0
77,17.0,-251.0,-35.0,0
78,22.0,-254.0,-26.0,0
79,22.0,-252.0,-31.0,0
80,22.0,-252.0,-32.0,0
81,35.0,-249.0,-28.0,0
82,24.0,-253.0,-30.0,0
83,23.0,-250.0,-25.0,0
84,24.0,-250.0,-33.0,0
85,23.0,-250.0,-29.0,0
86,23.0,-254.0,-30.0,0
87,23.0,-251.0,-31.0,0
88,22.0,-251.0,-34.0,0
89,19.0,-252.0,-29.0,0
90,21.0,-254.0,-29.0,0
91,25.0,-251.0,-34.0,0
92,8.0,-244.0,-42.0,0
93,23.0,-247.0,-33.0,0
94,26.0,-247.0,-33.0,0
95,22.0,-248.0,-35.0,0
96,25.0,-248.0,-35.0,0
97,24.0,-250.0,-36.0,0
98,26.0,-248.0,-39.0,0
99,25.0,-249.0,-37.0,0
100,24.0,-248.0,-34.0,0
101,22.0,-248.0,-35.0,0
102,25.0,-253.0,-38.0,0
103,27.0,-240.0,-46.0,0
104,25.0,-255.0,-37.0,0
105,27.0,-255.0,-35.0,0
106,24.0,-256.0,-32.0,0
107,20.0,-256.0,-33.0,0
108,17.0,-257.0,-32.0,0
109,20.0,-256.0,-35.0,0
110,18.0,-253.0,-33.0,0
111,12.0,-253.0,-35.0,0
112,13.0,-256.0,-35.0,0
113,6.0,-255.0,-10.0,0
114,11.0,-247.0,-39.0,0
115,8.0,-250.0,-36.0,0
116,9.0,-247.0,-38.0,0
117,6.0,-244.0,-38.0,0
118,8.0,-245.0,-39.0,0
119,7.0,-244.0,-39.0,0
120,8.0,-244.0,-35.0,0
121,6.0,-241.0,-35.0,0
122,6.0,-242.0,-34.0,0
123,7.0,-241.0,-35.0,0
124,4.0,-246.0,-40.0,0
125,2.0,-238.0,-34.0,0
126,4.0,-237.0,-36.0,0
127,5.0,-239.0,-32.0,0
128,3.0,-242.0,-29.0,0
129,4.0,-242.0,-28.0,0
130,0.0,-248.0,-27.0,0
131,0.0,-245.0,-27.0,0
132,-6.0,-243.0,-33.0,0
133,-5.0,-247.0,-27.0,0
134,-9.0,-248.0,-30.0,0
135,-15.0,-254.0,-31.0,0
136,-8.0,-250.0,-26.0,0
137,-10.0,-255.0,-26.0,0
138,-6.0,-258.0,-27.0,0
139,-8.0,-260.0,-26.0,0
140,0.0,-266.0,-26.0,0
141,-2.0,-267.0,-22.0,0
142,4.0,-266.0,-24.0,0
143,8.0,-267.0,-17.0,0
144,10.0,-262.0,-17.0,0
145,11.0,-263.0,-14.0,0
146,8.0,-253.0,-29.0,0
147,17.0,-259.0,-16.0,0
148,16.0,-256.0,-18.0,0
149,16.0,-256.0,-17.0,0
150,13.0,-254.0,-15.0,0
151,11.0,-253.0,-17.0,0
152,7.0,-250.0,-21.0,0
153,1.0,-252.0,-19.0,0
154,1.0,-248.0,-20.0,0
155,1.0,-249.0,-19.0,0
156,0.0,-250.0,-19.0,0
157,-6.0,-234.0,-43.0,0
158,-5.0,-252.0,-22.0,0
159,-4.0,-252.0,-22.0,0
160,-9.0,-251.0,-21.0,0
161,-12.0,-249.0,-21.0,0
162,-12.0,-253.0,-25.0,0
163,-8.0,-255.0,-23.0,0
164,-9.0,-250.0,-24.0,0
165,-7.0,-253.0,-28.0,0
166,-11.0,-251.0,-22.0,0
167,-11.0,-251.0,-26.0,0
168,-1.0,-250.0,-27.0,0
169,-7.0,-252.0,-25.0,0
170,-9.0,-247.0,-29.0,0
171,-12.0,-250.0,-23.0,0
172,-14.0,-250.0,-27.0,0
173,-16.0,-250.0,-30.0,0
174,-16.0,-252.0,-25.0,0
175,-14.0,-248.0,-24.0,0
176,-19.0,-251.0,-21.0,0
177,-16.0,-251.0,-20.0,0
178,-8.0,-246.0,-15.0,0
179,-20.0,-251.0,-25.0,0
180,-16.0,-244.0,-24.0,0
181,-15.0,-245.0,-23.0,0
182,-16.0,-242.0,-22.0,0
183,-14.0,-242.0,-20.0,0
184,-15.0,-247.0,-20.0,0
185,-11.0,-247.0,-23.0,0
186,-14.0,-245.0,-24.0,0
187,-15.0,-244.0,-20.0,0
188,-13.0,-245.0,-20.0,0
189,-13.0,-244.0,-22.0,0
190,-16.0,-236.0,-29.0,0
191,-12.0,-243.0,-26.0,0
192,-15.0,-243.0,-25.0,0
193,-14.0,-244.0,-26.0,0
194,-12.0,-243.0,-24.0,0
195,-15.0,-244.0,-24.0,0
196,-11.0,-247.0,-29.0,0
197,-14.0,-242.0,-22.0,0
198,-11.0,-242.0,-18.0,0
199,-11.0,-242.0,-25.0,0
200,-12.0,-219.0,-37.0,0
201,-11.0,-241.0,-21.0,0
202,-11.0,-241.0,-22.0,0
203,-11.0,-239.0,-19.0,0
204,-11.0,-239.0,-21.0,0
205,-13.0,-239.0,-22.0,0
206,-13.0,-241.0,-19.0,0
207,-16.0,-241.0,-18.0,0
208,-14.0,-241.0,-20.0,0
209,-15.0,-243.0,-20.0,0
210,-16.0,-242.0,-14.0,0
211,-36.0,-247.0,-26.0,0
212,-18.0,-248.0,-18.0,0
213,-25.0,-249.0,-10.0,0
214,-24.0,-249.0,-13.0,0
215,-27.0,-249.0,-14.0,0
216,-29.0,-250.0,-17.0,0
217,-31.0,-252.0,-17.0,0
218,-34.0,-251.0,-17.0,0
219,-33.0,-250.0,-19.0,0
220,-33.0,-251.0,-16.0,0
221,-28.0,-249.0,-16.0,0
222,-19.0,-254.0,7.0,0
223,-27.0,-251.0,-13.0,0
224,-19.0,-256.0,-14.0,0
225,-19.0,-257.0,-9.0,0
226,-18.0,-257.0,-16.0,0
227,-15.0,-259.0,-10.0,0
228,-12.0,-265.0,-8.0,0
229,-11.0,-265.0,-14.0,0
230,-5.0,-265.0,-12.0,0
231,-6.0,-264.0,-4.0,0
232,1.0,-265.0,-10.0,0
233,11.0,-253.0,-18.0,0
234,2.0,-260.0,-10.0,0
235,3.0,-263.0,-8.0,0
236,6.0,-262.0,-11.0,0
237,3.0,-258.0,-10.0,0
238,6.0,-260.0,-11.0,0
239,3.0,-255.0,-7.0,0
240,5.0,-257.0,-4.0,0
241,2.0,-255.0,-6.0,0
242,-2.0,-255.0,-6.0,0
243,-1.0,-256.0,-6.0,0
244,6.0,-255.0,2.0,0
245,-4.0,-256.0,-2.0,0
246,-7.0,-256.0,-1.0,0
247,-11.0,-259.0,1.0,0
248,-11.0,-261.0,0.0,0
249,-12.0,-261.0,2.0,0
250,-16.0,-267.0,7.0,0
251,-19.0,-268.0,4.0,0
252,-26.0,-267.0,4.0,0
253,-23.0,-269.0,1.0,0
254,-24.0,-276.0,4.0,0
255,-40.0,-278.0,12.0,0
256,-34.0,-274.0,-3.0,0
257,-32.0,-279.0,-1.0,0
258,-38.0,-276.0,-5.0,0
259,-39.0,-281.0,-7.0,0
260,-42.0,-283.0,-17.0,0
261,-46.0,-281.0,-20.0,0
262,-50.0,-285.0,-32.0,0
263,-54.0,-287.0,-36.0,0
264,-56.0,-288.0,-45.0,0
265,-57.0,-295.0,-42.0,0
266,-56.0,-292.0,-58.0,0
267,-53.0,-295.0,-61.0,0
268,-47.0,-294.0,-59.0,0
269,-40.0,-293.0,-63.0,0
270,-32.0,-291.0,-59.0,0
271,-17.0,-285.0,-56.0,0
272,-7.0,-277.0,-55.0,0
273,4.0,-271.0,-55.0,0
274,19.0,-263.0,-53.0,0
275,37.0,-255.0,-55.0,0
276,35.0,-260.0,-59.0,0
277,48.0,-244.0,-63.0,0
278,55.0,-233.0,-65.0,0
279,60.0,-220.0,-71.0,0
280,62.0,-209.0,-74.0,0
281,64.0,-207.0,-79.0,0
282,64.0,-201.0,-85.0,0
283,61.0,-201.0,-85.0,0
284,55.0,-207.0,-93.0,0
285,49.0,-209.0,-86.0,0
286,41.0,-219.0,-91.0,0
287,32.0,-242.0,-87.0,0
288,21.0,-239.0,-91.0,0
289,12.0,-246.0,-91.0,0
290,4.0,-251.0,-95.0,0
291,-2.0,-255.0,-91.0,0
292,-5.0,-256.0,-92.0,0
293,-11.0,-260.0,-89.0,0
294,-16.0,-258.0,-83.0,0
295,-16.0,-255.0,-83.0,0
296,-18.0,-256.0,-76.0,0
297,-16.0,-258.0,-77.0,0
298,-20.0,-250.0,-76.0,0
299,-7.0,-259.0,-67.0,0
300,-2.0,-256.0,-66.0,0
301,4.0,-260.0,-64.0,0
302,8.0,-259.0,-56.0,0
303,13.0,-257.0,-58.0,0
304,20.0,-256.0,-56.0,0
305,19.0,-249.0,-49.0,0
306,24.0,-253.0,-51.0,0
307,26.0,-246.0,-48.0,0
308,24.0,-248.0,-46.0,0
309,24.0,-241.0,-58.0,0
310,27.0,-247.0,-44.0,0
311,23.0,-245.0,-39.0,0
312,23.0,-242.0,-40.0,0
313,17.0,-242.0,-37.0,0
314,16.0,-242.0,-34.0,0
315,13.0,-243.0,-40.0,0
316,13.0,-240.0,-37.0,0
317,17.0,-241.0,-39.0,0
318,10.0,-236.0,-46.0,0
319,8.0,-221.0,-57.0,0
320,12.0,-236.0,-43.0,0
321,12.0,-238.0,-41.0,0
322,12.0,-233.0,-36.0,0
323,13.0,-230.0,-37.0,0
324,12.0,-229.0,-42.0,0
325,18.0,-229.0,-38.0,0
326,17.0,-229.0,-31.0,0
327,22.0,-232.0,-37.0,0
328,24.0,-227.0,-37.0,0
329,23.0,-225.0,-34.0,0
330,23.0,-218.0,-51.0,0
331,31.0,-233.0,-33.0,0
332,32.0,-234.0,-38.0,0
333,37.0,-234.0,-34.0,0
334,39.0,-234.0,-32.0,0
335,40.0,-236.0,-31.0,0
336,42.0,-235.0,-32.0,0
337,41.0,-233.0,-25.0,0
338,47.0,-236.0,-32.0,0
339,46.0,-239.0,-38.0,0
340,40.0,-238.0,-38.0,0
341,48.0,-232.0,-37.0,0
342,44.0,-240.0,-27.0,0
343,46.0,-241.0,-30.0,0
344,42.0,-240.0,-29.0,0
345,43.0,-239.0,-23.0,0
346,43.0,-239.0,-25.0,0
347,44.0,-238.0,-29.0,0
348,40.0,-239.0,-27.0,0
349,40.0,-236.0,-26.0,0
350,36.0,-232.0,-26.0,0
351,34.0,-232.0,-24.0,0
352,38.0,-234.0,-18.0,0
353,35.0,-229.0,-23.0,0
354,36.0,-227.0,-27.0,0
355,33.0,-226.0,-29.0,0
356,35.0,-225.0,-27.0,0
357,31.0,-221.0,-26.0,0
358,28.0,-224.0,-21.0,0
359,27.0,-223.0,-24.0,0
360,24.0,-225.0,-21.0,0
361,25.0,-226.0,-24.0,0
362,30.0,-228.0,-24.0,0
363,27.0,-230.0,-20.0,0
364,24.0,-238.0,-10.0,0
365,20.0,-234.0,-20.0,0
366,20.0,-233.0,-18.0,0
367,17.0,-233.0,-14.0,0
368,21.0,-237.0,-16.0,0
369,21.0,-239.0,-20.0,0
370,17.0,-244.0,-9.0,0
371,17.0,-248.0,-8.0,0
372,19.0,-249.0,-7.0,0
373,19.0,-254.0,-5.0,0
374,12.0,-258.0,-3.0,0
375,23.0,-256.0,-4.0,0
376,24.0,-256.0,-5.0,0
377,27.0,-255.0,-5.0,0
378,29.0,-254.0,-9.0,0
379,33.0,-256.0,-6.0,0
380,31.0,-256.0,-6.0,0
381,31.0,-259.0,-10.0,0
382,29.0,-259.0,-2.0,0
383,32.0,-262.0,3.0,0
384,34.0,-266.0,2.0,0
385,28.0,-247.0,-7.0,0
386,28.0,-262.0,1.0,0
387,24.0,-261.0,1.0,0
388,26.0,-259.0,2.0,0
389,24.0,-259.0,2.0,0
390,21.0,-259.0,3.0,0
391,19.0,-258.0,4.0,0
392,16.0,-259.0,2.0,0
393,15.0,-255.0,2.0,0
394,12.0,-253.0,4.0,0
395,17.0,-251.0,2.0,0
396,10.0,-249.0,-9.0,0
397,16.0,-253.0,3.0,0
398,14.0,-255.0,3.0,0
399,15.0,-256.0,1.0,0
400,16.0,-256.0,0.0,0
401,17.0,-258.0,0.0,0
402,16.0,-258.0,3.0,0
403,14.0,-261.0,6.0,0
404,20.0,-259.0,5.0,0
405,20.0,-260.0,6.0,0
406,5.0,-270.0,19.0,0
407,22.0,-263.0,11.0,0
408,27.0,-261.0,21.0,0
409,31.0,-265.0,23.0,0
410,31.0,-267.0,25.0,0
411,33.0,-268.0,28.0,0
412,33.0,-268.0,32.0,0
413,30.0,-269.0,37.0,0
414,24.0,-269.0,30.0,0
415,23.0,-279.0,29.0,0
416,15.0,-286.0,29.0,0
417,11.0,-285.0,13.0,0
418,23.0,-303.0,18.0,0
419,29.0,-313.0,5.0,0
420,43.0,-319.0,-11.0,0
421,52.0,-326.0,-26.0,0
422,61.0,-329.0,-35.0,0
423,68.0,-332.0,-39.0,0
424,75.0,-331.0,-39.0,0
425,82.0,-331.0,-38.0,0
426,90.0,-320.0,-37.0,0
427,87.0,-312.0,-45.0,0
428,107.0,-293.0,-45.0,0
429,80.0,-281.0,-47.0,0
430,70.0,-265.0,-48.0,0
431,54.0,-251.0,-51.0,0
432,45.0,-243.0,-54.0,0
433,32.0,-228.0,-56.0,0
434,17.0,-220.0,-65.0,0
435,4.0,-211.0,-66.0,0
436,-7.0,-207.0,-77.0,0
437,-14.0,-209.0,-75.0,0
438,-19.0,-209.0,-82.0,0
439,-33.0,-212.0,-77.0,0
440,-27.0,-221.0,-79.0,0
441,-28.0,-229.0,-83.0,0
442,-29.0,-233.0,-83.0,0
443,-33.0,-243.0,-85.0,0
444,-31.0,-250.0,-82.0,0
445,-33.0,-255.0,-79.0,0
446,-33.0,-261.0,-78.0,0
447,-31.0,-268.0,-77.0,0
448,-30.0,-266.0,-80.0,0
449,-28.0,-275.0,-53.0,0
450,-16.0,-265.0,-75.0,0
451,-10.0,-258.0,-72.0,0
452,-4.0,-251.0,-69.0,0
453,7.0,-240.0,-69.0,0
454,19.0,-233.0,-65.0,0
455,28.0,-228.0,-61.0,0
456,36.0,-227.0,-63.0,0
457,40.0,-218.0,-55.0,0
458,47.0,-222.0,-57.0,0
459,52.0,-217.0,-55.0,0
460,55.0,-223.0,-46.0,0
461,50.0,-221.0,-45.0,0
462,50.0,-227.0,-40.0,0
463,49.0,-234.0,-35.0,0
464,47.0,-240.0,-34.0,0
465,48.0,-246.0,-28.0,0
466,40.0,-252.0,-31.0,0
467,32.0,-253.0,-31.0,0
468,21.0,-259.0,-30.0,0
469,11.0,-256.0,-33.0,0
470,6.0,-256.0,-34.0,0
471,5.0,-242.0,-57.0,0
472,-1.0,-254.0,-40.0,0
473,-5.0,-248.0,-36.0,0
474,-5.0,-245.0,-37.0,0
475,-7.0,-240.0,-36.0,0
476,-6.0,-236.0,-34.0,0
477,-8.0,-235.0,-30.0,0
478,-4.0,-231.0,-31.0,0
479,-4.0,-231.0,-27.0,0
480,-9.0,-228.0,-26.0,0
481,-4.0,-231.0,-25.0,0
482,-12.0,-231.0,-21.0,0
483,-7.0,-228.0,-26.0,0
484,-10.0,-228.0,-32.0,0
485,-12.0,-226.0,-30.0,0
486,-15.0,-222.0,-32.0,0
487,-14.0,-222.0,-33.0,0
488,-15.0,-226.0,-32.0,0
489,-14.0,-221.0,-32.0,0
490,-15.0,-224.0,-30.0,0
491,-15.0,-230.0,-30.0,0
492,-14.0,-227.0,-28.0,0
493,-16.0,-216.0,-49.0,0
494,-8.0,-232.0,-30.0,0
495,-6.0,-235.0,-31.0,0
496,-4.0,-241.0,-29.0,0
497,-4.0,-242.0,-28.0,0
498,-3.0,-240.0,-26.0,0
499,-1.0,-243.0,-27.0,0
500,3.0,-245.0,-28.0,0
501,8.0,-245.0,-22.0,0
502,6.0,-240.0,-24.0,0
503,7.0,-241.0,-26.0,0
504,16.0,-233.0,-30.0,0
505,11.0,-236.0,-16.0,0
506,10.0,-233.0,-23.0,0
507,17.0,-230.0,-21.0,0
508,19.0,-227.0,-21.0,0
509,14.0,-225.0,-25.0,0
510,17.0,-228.0,-22.0,0
511,18.0,-225.0,-17.0,0
512,14.0,-230.0,-10.0,0
513,20.0,-229.0,-14.0,0
514,15.0,-232.0,-11.0,0
515,31.0,-247.0,2.0,0
516,15.0,-233.0,-8.0,0
517,14.0,-239.0,-1.0,0
518,11.0,-236.0,-3.0,0
519,14.0,-238.0,-1.0,0
520,8.0,-241.0,0.0,0
521,8.0,-241.0,-4.0,0
522,9.0,-243.0,3.0,0
523,6.0,-242.0,3.0,0
524,8.0,-241.0,1.0,0
525,5.0,-244.0,6.0,0
526,2.0,-247.0,12.0,0
527,0.0,-246.0,5.0,0
528,0.0,-247.0,3.0,0
529,-4.0,-240.0,2.0,0
530,-7.0,-240.0,1.0,0
531,-12.0,-241.0,2.0,0
532,-15.0,-239.0,-8.0,0
533,-13.0,-242.0,-9.0,0
534,-15.0,-243.0,-12.0,0
535,-13.0,-249.0,-10.0,0
536,-25.0,-250.0,-38.0,0
537,-4.0,-256.0,-15.0,0
538,1.0,-266.0,-16.0,0
539,4.0,-272.0,-17.0,0
540,3.0,-279.0,-13.0,0
541,5.0,-285.0,-14.0,0
542,5.0,-290.0,-11.0,0
543,-1.0,-298.0,-10.0,0
544,7.0,-295.0,-5.0,0
545,0.0,-294.0,-7.0,0
546,-1.0,-292.0,-5.0,0
547,3.0,-302.0,11.0,0
548,-1.0,-291.0,-1.0,0
549,-4.0,-289.0,2.0,0
550,-4.0,-286.0,4.0,0
551,2.0,-284.0,6.0,0
552,7.0,-282.0,10.0,0
553,12.0,-284.0,18.0,0
554,22.0,-288.0,16.0,0
555,23.0,-290.0,21.0,0
556,19.0,-296.0,20.0,0
557,18.0,-305.0,17.0,0
558,12.0,-313.0,13.0,0
559,6.0,-309.0,13.0,0
560,-10.0,-306.0,-40.0,0
561,-17.0,-315.0,-9.0,0
562,-30.0,-315.0,-16.0,0
563,-34.0,-317.0,-26.0,0
564,-41.0,-319.0,-35.0,0
565,-50.0,-320.0,-46.0,0
566,-59.0,-314.0,-46.0,0
567,-59.0,-317.0,-60.0,0
568,-56.0,-310.0,-70.0,0
569,-50.0,-304.0,-82.0,0
570,-30.0,-299.0,-82.0,0
571,-16.0,-290.0,-83.0,0
572,5.0,-281.0,-81.0,0
573,23.0,-268.0,-76.0,0
574,32.0,-261.0,-75.0,0
575,46.0,-250.0,-80.0,0
576,56.0,-238.0,-80.0,0
577,63.0,-225.0,-80.0,0
578,74.0,-210.0,-90.0,0
579,66.0,-198.0,-86.0,0
580,67.0,-202.0,-89.0,0
581,64.0,-205.0,-93.0,0
582,53.0,-212.0,-89.0,0
583,39.0,-217.0,-83.0,0
584,24.0,-225.0,-78.0,0
585,12.0,-239.0,-72.0,0
586,-5.0,-240.0,-64.0,0
587,-17.0,-244.0,-54.0,0
588,-26.0,-251.0,-52.0,0
589,-29.0,-251.0,-44.0,0
590,-37.0,-257.0,-39.0,0
591,-34.0,-250.0,-46.0,0
592,-38.0,-250.0,-46.0,0
593,-33.0,-249.0,-46.0,0
594,-32.0,-246.0,-43.0,0
595,-27.0,-244.0,-49.0,0
596,-22.0,-244.0,-47.0,0
597,-13.0,-248.0,-45.0,0
598,-7.0,-250.0,-41.0,0
599,0.0,-251.0,-40.0,0
600,13.0,-249.0,-38.0,0
601,23.0,-245.0,-62.0,0
602,28.0,-255.0,-33.0,0
603,27.0,-255.0,-32.0,0
604,32.0,-254.0,-32.0,0
605,34.0,-245.0,-31.0,0
606,36.0,-242.0,-34.0,0
607,39.0,-238.0,-38.0,0
608,33.0,-231.0,-35.0,0
609,31.0,-230.0,-46.0,0
610,29.0,-222.0,-46.0,0
611,33.0,-221.0,-48.0,0
612,21.0,-222.0,-45.0,0
613,30.0,-208.0,-45.0,0
614,27.0,-206.0,-43.0,0
615,27.0,-208.0,-42.0,0
616,25.0,-206.0,-33.0,0
617,25.0,-206.0,-42.0,0
618,27.0,-207.0,-37.0,0
619,26.0,-204.0,-35.0,0
620,30.0,-203.0,-39.0,0
621,36.0,-203.0,-42.0,0
622,38.0,-205.0,-42.0,0
623,36.0,-191.0,-52.0,0
624,40.0,-203.0,-37.0,0
625,41.0,-204.0,-37.0,0
626,44.0,-209.0,-37.0,0
627,46.0,-213.0,-30.0,0
628,49.0,-220.0,-33.0,0
629,49.0,-230.0,-28.0,0
630,50.0,-233.0,-27.0,0
631,51.0,-232.0,-30.0,0
632,49.0,-235.0,-28.0,0
633,51.0,-232.0,-28.0,0
634,49.0,-248.0,-19.0,0
635,52.0,-237.0,-29.0,0
636,54.0,-237.0,-28.0,0
637,49.0,-232.0,-27.0,0
638,45.0,-233.0,-22.0,0
639,44.0,-232.0,-25.0,0
640,43.0,-228.0,-21.0,0
641,41.0,-231.0,-22.0,0
642,38.0,-235.0,-23.0,0
643,34.0,-232.0,-20.0,0
644,33.0,-227.0,-19.0,0
645,35.0,-233.0,-21.0,0
646,25.0,-230.0,-13.0,0
647,26.0,-232.0,-13.0,0
648,23.0,-234.0,-9.0,0
649,19.0,-233.0,-9.0,0
650,19.0,-235.0,-7.0,0
651,16.0,-235.0,-9.0,0
652,13.0,-237.0,-1.0,0
653,16.0,-239.0,-3.0,0
654,17.0,-238.0,-4.0,0
655,18.0,-237.0,20.0,0
656,13.0,-239.0,2.0,0
657,12.0,-238.0,2.0,0
658,11.0,-239.0,6.0,0
659,10.0,-237.0,1.0,0
660,9.0,-236.0,4.0,0
661,14.0,-241.0,10.0,0
662,18.0,-239.0,11.0,0
663,24.0,-241.0,9.0,0
664,25.0,-243.0,13.0,0
665,30.0,-248.0,13.0,0
666,32.0,-252.0,11.0,0
667,38.0,-256.0,14.0,0
668,35.0,-257.0,12.0,0
669,33.0,-257.0,10.0,0
670,31.0,-257.0,8.0,0
671,32.0,-260.0,5.0,0
672,30.0,-263.0,4.0,0
673,30.0,-261.0,-5.0,0
674,28.0,-261.0,-5.0,0
675,25.0,-268.0,-4.0,0
676,26.0,-277.0,0.0,0
677,23.0,-272.0,-8.0,0
678,34.0,-279.0,-5.0,0
679,40.0,-283.0,-7.0,0
680,39.0,-284.0,-5.0,0
681,45.0,-293.0,-4.0,0
682,46.0,-297.0,-2.0,0
683,45.0,-298.0,0.0,0
684,46.0,-298.0,4.0,0
685,37.0,-301.0,7.0,0
686,37.0,-299.0,19.0,0
687,30.0,-296.0,29.0,0
688,36.0,-307.0,42.0,0
689,32.0,-291.0,45.0,0
690,26.0,-291.0,56.0,0
691,24.0,-289.0,59.0,0
692,21.0,-288.0,56.0,0
693,12.0,-286.0,61.0,0
694,8.0,-290.0,60.0,0
695,8.0,-298.0,57.0,0
696,7.0,-302.0,45.0,0
697,21.0,-309.0,24.0,0
698,38.0,-309.0,6.0,0
699,57.0,-307.0,-11.0,0
700,70.0,-312.0,-23.0,0
701,76.0,-317.0,-28.0,0
702,81.0,-315.0,-29.0,0
703,80.0,-317.0,-32.0,0
704,75.0,-313.0,-42.0,0
705,77.0,-298.0,-52.0,0
706,67.0,-284.0,-68.0,0
707,63.0,-273.0,-74.0,0
708,50.0,-259.0,-82.0,0
709,35.0,-251.0,-87.0,0
710,21.0,-242.0,-81.0,0
711,2.0,-239.0,-95.0,0
712,-14.0,-232.0,-89.0,0
713,-23.0,-236.0,-87.0,0
714,-34.0,-239.0,-88.0,0
715,-41.0,-235.0,-86.0,0
716,-48.0,-237.0,-90.0,0
717,-54.0,-239.0,-87.0,0
718,-53.0,-243.0,-79.0,0
719,-52.0,-247.0,-85.0,0
720,-42.0,-256.0,-81.0,0
721,-37.0,-247.0,-83.0,0
722,-26.0,-250.0,-84.0,0
723,-18.0,-252.0,-85.0,0
724,-9.0,-252.0,-84.0,0
725,5.0,-253.0,-78.0,0
726,16.0,-254.0,-74.0,0
727,24.0,-256.0,-70.0,0
728,34.0,-253.0,-64.0,0
729,46.0,-243.0,-65.0,0
730,47.0,-238.0,-62.0,0
731,50.0,-233.0,-62.0,0
732,50.0,-220.0,-64.0,0
733,51.0,-214.0,-65.0,0
734,49.0,-213.0,-63.0,0
735,45.0,-214.0,-54.0,0
736,44.0,-223.0,-46.0,0
737,40.0,-224.0,-46.0,0
738,31.0,-228.0,-38.0,0
739,18.0,-235.0,-41.0,0
740,12.0,-240.0,-41.0,0
741,5.0,-248.0,-40.0,0
742,-14.0,-251.0,-41.0,0
743,-9.0,-254.0,-42.0,0
744,-14.0,-253.0,-42.0,0
745,-16.0,-249.0,-46.0,0
746,-22.0,-249.0,-46.0,0
747,-26.0,-246.0,-40.0,0
748,-26.0,-249.0,-41.0,0
749,-36.0,-244.0,-39.0,0
750,-34.0,-237.0,-45.0,0
751,-33.0,-233.0,-50.0,0
752,-34.0,-231.0,-47.0,0
753,-39.0,-202.0,-61.0,0
754,-28.0,-220.0,-45.0,0
755,-30.0,-217.0,-42.0,0
756,-26.0,-216.0,-41.0,0
757,-24.0,-217.0,-38.0,0
758,-23.0,-210.0,-33.0,0
759,-21.0,-210.0,-36.0,0
760,-14.0,-213.0,-30.0,0
761,-14.0,-213.0,-41.0,0
762,-13.0,-216.0,-30.0,0
763,-11.0,-224.0,-35.0,0
764,5.0,-223.0,-39.0,0
765,-2.0,-225.0,-41.0,0
766,-5.0,-227.0,-40.0,0
767,-1.0,-228.0,-40.0,0
768,1.0,-231.0,-45.0,0
769,1.0,-229.0,-39.0,0
770,7.0,-233.0,-43.0,0
771,10.0,-233.0,-37.0,0
772,5.0,-233.0,-38.0,0
773,9.0,-233.0,-40.0,0
774,6.0,-231.0,-45.0,0
775,8.0,-248.0,-31.0,0
776,8.0,-231.0,-40.0,0
777,4.0,-229.0,-37.0,0
778,3.0,-230.0,-35.0,0
779,4.0,-231.0,-36.0,0
780,2.0,-229.0,-32.0,0
781,-4.0,-226.0,-24.0,0
782,-7.0,-229.0,-25.0,0
783,-11.0,-231.0,-22.0,0
784,-14.0,-234.0,-21.0,0
785,-8.0,-238.0,-9.0,0
786,-11.0,-244.0,-15.0,0
787,-17.0,-243.0,-15.0,0
788,-17.0,-244.0,-3.0,0
789,-16.0,-246.0,-8.0,0
790,-16.0,-247.0,-7.0,0
791,-16.0,-248.0,0.0,0
792,-15.0,-244.0,0.0,0
793,-14.0,-240.0,-5.0,0
794,-10.0,-241.0,2.0,0
795,-5.0,-236.0,-1.0,0
796,-3.0,-252.0,21.0,0
797,-5.0,-237.0,1.0,0
798,-3.0,-235.0,4.0,0
799,-2.0,-230.0,3.0,0
800,0.0,-232.0,2.0,0
801,2.0,-233.0,5.0,0
802,3.0,-233.0,5.0,0
803,-2.0,-237.0,1.0,0
804,1.0,-243.0,4.0,0
805,-1.0,-243.0,4.0,0
806,-1.0,-247.0,-2.0,0
807,-10.0,-240.0,-14.0,0
808,-3.0,-256.0,-9.0,0
809,-8.0,-256.0,-12.0,0
810,-9.0,-262.0,-17.0,0
811,-11.0,-263.0,-18.0,0
812,-9.0,-268.0,-19.0,0
813,-7.0,-280.0,-18.0,0
814,-6.0,-283.0,-15.0,0
815,-10.0,-291.0,-18.0,0
816,-13.0,-298.0,-17.0,0
817,-8.0,-300.0,-16.0,0
818,-13.0,-292.0,-24.0,0
819,-13.0,-299.0,-13.0,0
820,-14.0,-299.0,-13.0,0
821,-13.0,-294.0,-9.0,0
822,-14.0,-287.0,0.0,0
823,-10.0,-282.0,2.0,0
824,-11.0,-276.0,3.0,0
825,-10.0,-274.0,11.0,0
826,-10.0,-267.0,15.0,0
827,-10.0,-262.0,15.0,0
828,-10.0,-255.0,19.0,0
829,-3.0,-253.0,16.0,0
830,-2.0,-264.0,27.0,0
831,0.0,-266.0,29.0,0
832,1.0,-275.0,30.0,0
833,0.0,-285.0,27.0,0
834,0.0,-292.0,22.0,0
835,0.0,-306.0,14.0,0
836,-11.0,-317.0,1.0,0
837,-18.0,-321.0,-5.0,0
838,-32.0,-325.0,-9.0,0
839,-43.0,-330.0,-22.0,0
840,-53.0,-327.0,-33.0,0
841,-59.0,-326.0,-42.0,0
842,-59.0,-329.0,-52.0,0
843,-57.0,-328.0,-62.0,0
844,-53.0,-316.0,-66.0,0
845,-44.0,-311.0,-76.0,0
846,-42.0,-300.0,-84.0,0
847,-34.0,-287.0,-83.0,0
848,-22.0,-272.0,-89.0,0
849,-19.0,-271.0,-92.0,0
850,6.0,-253.0,-95.0,0
851,9.0,-251.0,-97.0,0
852,28.0,-239.0,-98.0,0
853,44.0,-228.0,-103.0,0
854,57.0,-223.0,-98.0,0
855,67.0,-224.0,-95.0,0
856,70.0,-225.0,-93.0,0
857,72.0,-224.0,-93.0,0
858,76.0,-229.0,-88.0,0
859,69.0,-229.0,-84.0,0
860,61.0,-236.0,-84.0,0
861,61.0,-232.0,-89.0,0
862,44.0,-241.0,-78.0,0
863,29.0,-243.0,-73.0,0
864,17.0,-247.0,-67.0,0
865,6.0,-253.0,-57.0,0
866,-6.0,-251.0,-55.0,0
867,-9.0,-255.0,-55.0,0
868,-17.0,-254.0,-57.0,0
869,-21.0,-249.0,-49.0,0
870,-29.0,-245.0,-54.0,0
871,-31.0,-241.0,-57.0,0
872,-33.0,-230.0,-76.0,0
873,-30.0,-231.0,-51.0,0
874,-28.0,-233.0,-47.0,0
875,-20.0,-227.0,-47.0,0
876,-15.0,-231.0,-47.0,0
877,-8.0,-232.0,-46.0,0
878,0.0,-238.0,-48.0,0
879,11.0,-242.0,-43.0,0
880,17.0,-249.0,-44.0,0
881,24.0,-256.0,-44.0,0
882,27.0,-256.0,-46.0,0
883,37.0,-244.0,-50.0,0
884,36.0,-250.0,-48.0,0
885,37.0,-249.0,-47.0,0
886,34.0,-244.0,-46.0,0
887,35.0,-239.0,-52.0,0
888,32.0,-233.0,-51.0,0
889,32.0,-234.0,-51.0,0
890,34.0,-225.0,-49.0,0
891,26.0,-218.0,-53.0,0
892,29.0,-213.0,-54.0,0
893,27.0,-211.0,-49.0,0
894,4.0,-199.0,-39.0,0
895,25.0,-200.0,-48.0,0
896,28.0,-199.0,-41.0,0
897,28.0,-198.0,-39.0,0
898,22.0,-199.0,-36.0,0
899,24.0,-203.0,-33.0,0
900,28.0,-204.0,-28.0,0
901,29.0,-207.0,-28.0,0
902,31.0,-207.0,-33.0,0
903,27.0,-218.0,-34.0,0
904,18.0,-220.0,-27.0,0
905,28.0,-222.0,-36.0,0
906,33.0,-226.0,-34.0,0
907,29.0,-227.0,-35.0,0
908,33.0,-232.0,-35.0,0
909,36.0,-241.0,-30.0,0
910,36.0,-242.0,-38.0,0
911,35.0,-231.0,-30.0,0
912,39.0,-227.0,-29.0,0
913,35.0,-221.0,-31.0,0
914,30.0,-211.0,-32.0,0
915,29.0,-224.0,-33.0,0
916,34.0,-213.0,-27.0,0
917,34.0,-216.0,-28.0,0
918,32.0,-220.0,-26.0,0
919,33.0,-218.0,-21.0,0
920,29.0,-223.0,-18.0,0
921,30.0,-223.0,-21.0,0
922,29.0,-223.0,-21.0,0
923,30.0,-225.0,-22.0,0
924,28.0,-228.0,-17.0,0
925,28.0,-229.0,-21.0,0
926,29.0,-230.0,-26.0,0
927,28.0,-232.0,-17.0,0
928,21.0,-234.0,-18.0,0
929,22.0,-239.0,-12.0,0
930,18.0,-240.0,-8.0,0
931,20.0,-243.0,0.0,0
932,16.0,-246.0,-4.0,0
933,16.0,-247.0,2.0,0
934,13.0,-245.0,1.0,0
935,13.0,-253.0,2.0,0
936,13.0,-249.0,3.0,0
937,22.0,-241.0,-9.0,0
938,15.0,-252.0,3.0,0
939,15.0,-255.0,7.0,0
940,19.0,-256.0,6.0,0
941,21.0,-258.0,8.0,0
942,23.0,-258.0,7.0,0
943,22.0,-262.0,12.0,0
944,27.0,-263.0,10.0,0
945,30.0,-262.0,8.0,0
946,25.0,-263.0,11.0,0
947,32.0,-261.0,11.0,0
948,28.0,-265.0,10.0,0
949,26.0,-259.0,8.0,0
950,26.0,-260.0,7.0,0
951,31.0,-260.0,3.0,0
952,32.0,-263.0,8.0,0
953,33.0,-265.0,8.0,0
954,35.0,-265.0,4.0,0
955,33.0,-265.0,3.0,0
956,37.0,-268.0,0.0,0
957,36.0,-266.0,2.0,0
958,39.0,-268.0,3.0,0
959,36.0,-264.0,-15.0,0
960,42.0,-272.0,11.0,0
961,44.0,-276.0,13.0,0
962,45.0,-276.0,16.0,0
963,45.0,-276.0,22.0,0
964,43.0,-275.0,24.0,0
965,41.0,-274.0,30.0,0
966,39.0,-273.0,42.0,0
967,30.0,-271.0,48.0,0
968,27.0,-267.0,53.0,0
969,27.0,-271.0,67.0,0
970,15.0,-258.0,59.0,0
971,8.0,-255.0,63.0,0
972,-1.0,-251.0,65.0,0
973,-3.0,-252.0,57.0,0
974,-6.0,-253.0,59.0,0
975,-6.0,-253.0,58.0,0
976,-2.0,-258.0,48.0,0
977,1.0,-267.0,36.0,0
978,7.0,-273.0,26.0,0
979,16.0,-279.0,12.0,0
980,22.0,-287.0,-1.0,0
981,41.0,-304.0,-20.0,0
982,55.0,-319.0,-35.0,0
983,61.0,-322.0,-47.0,0
984,76.0,-336.0,-63.0,0
985,86.0,-347.0,-79.0,0
986,97.0,-352.0,-90.0,0
987,105.0,-353.0,-100.0,0
988,102.0,-343.0,-104.0,0
989,95.0,-336.0,-103.0,0
990,85.0,-329.0,-102.0,0
991,75.0,-327.0,-82.0,0
992,48.0,-311.0,-92.0,0
993,31.0,-294.0,-95.0,0
994,13.0,-280.0,-96.0,0
995,-12.0,-260.0,-90.0,0
996,-27.0,-247.0,-92.0,0
997,-42.0,-237.0,-96.0,0
998,-47.0,-229.0,-95.0,0
999,-50.0,-225.0,-95.0,0
1000,-51.0,-225.0,-96.0,0
1001,-56.0,-219.0,-107.0,0
1002,-44.0,-226.0,-84.0,0
1003,-37.0,-227.0,-82.0,0
1004,-32.0,-228.0,-74.0,0
1005,-21.0,-231.0,-71.0,0
1006,-13.0,-237.0,-67.0,0
1007,-8.0,-242.0,-60.0,0
1008,-2.0,-246.0,-57.0,0
1009,7.0,-246.0,-55.0,0
1010,14.0,-248.0,-46.0,0
1011,27.0,-231.0,-47.0,0
1012,33.0,-228.0,-56.0,0
1013,34.0,-229.0,-47.0,0
1014,40.0,-220.0,-49.0,0
1015,48.0,-217.0,-47.0,0
1016,48.0,-210.0,-48.0,0
1017,49.0,-208.0,-42.0,0
1018,52.0,-216.0,-39.0,0
1019,49.0,-222.0,-36.0,0
1020,49.0,-225.0,-33.0,0
1021,42.0,-231.0,-24.0,0
1022,34.0,-238.0,-24.0,0
1023,28.0,-237.0,-29.0,0
1024,20.0,-246.0,-34.0,0
1025,19.0,-255.0,-31.0,0
1026,9.0,-252.0,-31.0,0
1027,-2.0,-253.0,-25.0,0
1028,-3.0,-255.0,-34.0,0
1029,-10.0,-254.0,-30.0,0
1030,-15.0,-253.0,-33.0,0
1031,-16.0,-247.0,-30.0,0
1032,-16.0,-238.0,-34.0,0
1033,-16.0,-238.0,-39.0,0
1034,-23.0,-234.0,-34.0,0
1035,-22.0,-225.0,-34.0,0
1036,-22.0,-223.0,-34.0,0
1037,-20.0,-224.0,-29.0,0
1038,-16.0,-225.0,-24.0,0
1039,-15.0,-229.0,-26.0,0
1040,-15.0,-227.0,-26.0,0
1041,-13.0,-229.0,-29.0,0
1042,-8.0,-227.0,-34.0,0
1043,-1.0,-223.0,-32.0,0
1044,-1.0,-223.0,-34.0,0
1045,-8.0,-226.0,-5.0,0
1046,-2.0,-223.0,-32.0,0
1047,3.0,-218.0,-35.0,0
1048,3.0,-213.0,-34.0,0
1049,-6.0,-213.0,-35.0,0
1050,-4.0,-214.0,-35.0,0
1051,-6.0,-214.0,-38.0,0
1052,-8.0,-218.0,-35.0,0
1053,-8.0,-218.0,-25.0,0
1054,-6.0,-222.0,-24.0,0
1055,-7.0,-228.0,-29.0,0
1056,-14.0,-233.0,-23.0,0
1057,-11.0,-233.0,-18.0,0
1058,-11.0,-236.0,-21.0,0
1059,-10.0,-236.0,-20.0,0
1060,-10.0,-241.0,-23.0,0
1061,-14.0,-246.0,-20.0,0
1062,-12.0,-250.0,-13.0,0
1063,-9.0,-246.0,-14.0,0
1064,-11.0,-245.0,-14.0,0
1065,-8.0,-239.0,-21.0,0
1066,-8.0,-240.0,-17.0,0
1067,4.0,-242.0,15.0,0
1068,-9.0,-235.0,-10.0,0
1069,-9.0,-233.0,-9.0,0
1070,-8.0,-228.0,-6.0,0
1071,-5.0,-227.0,0.0,0
1072,-2.0,-225.0,-4.0,0
1073,1.0,-224.0,0.0,0
1074,-1.0,-215.0,-2.0,0
1075,1.0,-214.0,-2.0,0
1076,2.0,-212.0,3.0,0
1077,0.0,-211.0,6.0,0
1078,-3.0,-219.0,8.0,0
1079,4.0,-214.0,4.0,0
1080,0.0,-216.0,1.0,0
1081,6.0,-222.0,1.0,0
1082,3.0,-226.0,6.0,0
1083,5.0,-228.0,4.0,0
1084,5.0,-234.0,3.0,0
1085,1.0,-240.0,1.0,0
1086,1.0,-245.0,5.0,0
1087,3.0,-247.0,3.0,0
1088,-3.0,-251.0,-1.0,0
1089,6.0,-251.0,-5.0,0
1090,-13.0,-256.0,-3.0,0
1091,-16.0,-258.0,-8.0,0
1092,-18.0,-262.0,-6.0,0
1093,-17.0,-261.0,-7.0,0
1094,-21.0,-265.0,-11.0,0
1095,-16.0,-268.0,-11.0,0
1096,-16.0,-272.0,-14.0,0
1097,-17.0,-280.0,-7.0,0
1098,-16.0,-286.0,-14.0,0
1099,-19.0,-299.0,-8.0,0
1100,-16.0,-301.0,-9.0,0
1101,-17.0,-306.0,-5.0,0
1102,-22.0,-307.0,-3.0,0
1103,-24.0,-311.0,-3.0,0
1104,-25.0,-311.0,0.0,0
1105,-25.0,-313.0,0.0,0
1106,-23.0,-310.0,10.0,0
1107,-22.0,-305.0,17.0,0
1108,-17.0,-301.0,16.0,0
1109,-7.0,-291.0,21.0,0
1110,-7.0,-274.0,4.0,0
1111,-4.0,-288.0,30.0,0
1112,0.0,-282.0,32.0,0
1113,6.0,-276.0,34.0,0
1114,11.0,-274.0,34.0,0
1115,15.0,-272.0,28.0,0
1116,23.0,-276.0,31.0,0
1117,27.0,-279.0,30.0,0
1118,25.0,-277.0,27.0,0
1119,27.0,-280.0,20.0,0
1120,26.0,-289.0,11.0,0
1121,16.0,-292.0,15.0,0
1122,18.0,-302.0,8.0,0
1123,14.0,-307.0,2.0,0
1124,7.0,-310.0,-6.0,0
1125,1.0,-313.0,-16.0,0
1126,-14.0,-313.0,-28.0,0
1127,-25.0,-311.0,-48.0,0
1128,-34.0,-309.0,-58.0,0
1129,-42.0,-303.0,-70.0,0
1130,-50.0,-306.0,-71.0,0
1131,-40.0,-308.0,-68.0,0
1132,-43.0,-301.0,-74.0,0
1133,-37.0,-295.0,-73.0,0
1134,-28.0,-287.0,-75.0,0
1135,-14.0,-279.0,-71.0,0
1136,-2.0,-266.0,-78.0,0
1137,17.0,-260.0,-81.0,0
1138,32.0,-254.0,-80.0,0
1139,50.0,-243.0,-81.0,0
1140,60.0,-235.0,-83.0,0
1141,65.0,-233.0,-84.0,0
1142,87.0,-223.0,-89.0,0
1143,81.0,-228.0,-86.0,0
1144,79.0,-228.0,-86.0,0
1145,77.0,-225.0,-80.0,0
1146,70.0,-229.0,-79.0,0
1147,61.0,-231.0,-76.0,0
1148,50.0,-232.0,-73.0,0
1149,39.0,-235.0,-70.0,0
1150,25.0,-242.0,-70.0,0
1151,15.0,-246.0,-57.0,0
1152,1.0,-249.0,-53.0,0
1153,-5.0,-246.0,-56.0,0
1154,-19.0,-248.0,-46.0,0
1155,-26.0,-246.0,-46.0,0
1156,-33.0,-245.0,-46.0,0
1157,-37.0,-242.0,-43.0,0
1158,-39.0,-236.0,-46.0,0
1159,-43.0,-231.0,-44.0,0
1160,-37.0,-229.0,-46.0,0
1161,-28.0,-231.0,-47.0,0
1162,-25.0,-239.0,-43.0,0
1163,-20.0,-242.0,-42.0,0
1164,-13.0,-240.0,-37.0,0
1165,-1.0,-247.0,-46.0,0
1166,12.0,-246.0,-47.0,0
1167,20.0,-249.0,-48.0,0
1168,28.0,-243.0,-46.0,0
1169,32.0,-242.0,-44.0,0
1170,36.0,-235.0,-42.0,0
1171,41.0,-233.0,-41.0,0
1172,44.0,-232.0,-43.0,0
1173,42.0,-225.0,-43.0,0
1174,45.0,-219.0,-44.0,0
1175,46.0,-224.0,-34.0,0
1176,39.0,-206.0,-45.0,0
1177,39.0,-202.0,-49.0,0
1178,29.0,-205.0,-47.0,0
1179,29.0,-202.0,-40.0,0
1180,28.0,-201.0,-37.0,0
1181,28.0,-201.0,-31.0,0
1182,26.0,-197.0,-32.0,0
1183,22.0,-202.0,-31.0,0
1184,17.0,-205.0,-38.0,0
1185,20.0,-204.0,-27.0,0
1186,19.0,-208.0,-35.0,0
1187,31.0,-198.0,-42.0,0
1188,22.0,-200.0,-46.0,0
1189,26.0,-217.0,-30.0,0
1190,26.0,-220.0,-31.0,0
1191,25.0,-230.0,-31.0,0
1192,29.0,-226.0,-25.0,0
1193,39.0,-230.0,-31.0,0
1194,35.0,-239.0,-29.0,0
1195,37.0,-241.0,-30.0,0
1196,44.0,-237.0,-28.0,0
1197,37.0,-243.0,-22.0,0
1198,43.0,-237.0,-29.0,0
1199,44.0,-236.0,-29.0,0
1200,43.0,-239.0,-32.0,0
1201,40.0,-238.0,-30.0,0
1202,38.0,-240.0,-32.0,0
1203,34.0,-239.0,-25.0,0
1204,35.0,-238.0,-27.0,0
1205,29.0,-234.0,-26.0,0
1206,26.0,-235.0,-23.0,0
1207,26.0,-236.0,-19.0,0
1208,32.0,-216.0,-38.0,0
1209,24.0,-230.0,-14.0,0
1210,16.0,-226.0,-14.0,0
1211,15.0,-226.0,-12.0,0
1212,12.0,-221.0,-13.0,0
1213,12.0,-224.0,-16.0,0
1214,16.0,-223.0,-14.0,0
1215,16.0,-223.0,-9.0,0
1216,14.0,-224.0,-11.0,0
1217,15.0,-226.0,-7.0,0
1218,20.0,-226.0,-1.0,0
1219,18.0,-228.0,-6.0,0
1220,20.0,-229.0,-5.0,0
1221,21.0,-231.0,-2.0,0
1222,24.0,-232.0,-1.0,0
1223,20.0,-234.0,-5.0,0
1224,15.0,-235.0,-5.0,0
1225,14.0,-239.0,-5.0,0
1226,20.0,-246.0,-8.0,0
1227,20.0,-251.0,-6.0,0
1228,17.0,-255.0,-1.0,0
1229,28.0,-238.0,-23.0,0
1230,13.0,-256.0,-4.0,0
1231,7.0,-257.0,-6.0,0
1232,5.0,-259.0,-1.0,0
1233,4.0,-266.0,-4.0,0
1234,3.0,-268.0,0.0,0
1235,0.0,-273.0,-3.0,0
1236,9.0,-269.0,-6.0,0
1237,9.0,-277.0,-5.0,0
1238,9.0,-274.0,-5.0,0
1239,16.0,-276.0,-7.0,0
1240,24.0,-273.0,-12.0,0
1241,15.0,-277.0,-9.0,0
1242,19.0,-277.0,-7.0,0
1243,20.0,-279.0,-8.0,0
1244,21.0,-281.0,-4.0,0
1245,22.0,-280.0,-12.0,0
1246,18.0,-282.0,-7.0,0
1247,17.0,-282.0,-6.0,0
1248,20.0,-284.0,-8.0,0
1249,14.0,-284.0,-4.0,0
1250,20.0,-275.0,-7.0,0
1251,0.0,-272.0,29.0,0
1252,12.0,-278.0,1.0,0
1253,14.0,-275.0,5.0,0
1254,10.0,-274.0,10.0,0
1255,7.0,-273.0,16.0,0
1256,4.0,-274.0,17.0,0
1257,3.0,-274.0,27.0,0
1258,1.0,-277.0,24.0,0
1259,3.0,-278.0,31.0,0
1260,2.0,-278.0,31.0,0
1261,5.0,-286.0,43.0,0
1262,11.0,-288.0,20.0,0
1263,14.0,-289.0,15.0,0
1264,19.0,-291.0,7.0,0
1265,23.0,-293.0,5.0,0
1266,30.0,-300.0,-1.0,0
1267,28.0,-299.0,2.0,0
1268,35.0,-300.0,-12.0,0
1269,40.0,-305.0,-15.0,0
1270,45.0,-312.0,-26.0,0
1271,46.0,-314.0,-33.0,0
1272,50.0,-311.0,-49.0,0
1273,49.0,-313.0,-55.0,0
1274,53.0,-311.0,-67.0,0
1275,62.0,-311.0,-81.0,0
1276,73.0,-305.0,-104.0,0
1277,75.0,-300.0,-110.0,0
1278,83.0,-300.0,-116.0,0
1279,85.0,-295.0,-116.0,0
1280,74.0,-296.0,-122.0,0
1281,71.0,-295.0,-110.0,0
1282,63.0,-286.0,-103.0,0
1283,55.0,-276.0,-107.0,0
1284,30.0,-275.0,-89.0,0
1285,12.0,-263.0,-84.0,0
1286,1.0,-253.0,-83.0,0
1287,-14.0,-235.0,-90.0,0
1288,-22.0,-217.0,-84.0,0
1289,-30.0,-209.0,-97.0,0
1290,-33.0,-200.0,-96.0,0
1291,-37.0,-197.0,-102.0,0
1292,-34.0,-193.0,-102.0,0
1293,-29.0,-197.0,-97.0,0
1294,-22.0,-194.0,-104.0,0
1295,-23.0,-203.0,-87.0,0
1296,-14.0,-209.0,-86.0,0
1297,-9.0,-209.0,-79.0,0
1298,-1.0,-216.0,-76.0,0
1299,1.0,-221.0,-75.0,0
1300,9.0,-227.0,-72.0,0
1301,12.0,-230.0,-66.0,0
1302,16.0,-234.0,-72.0,0
1303,22.0,-232.0,-79.0,0
1304,29.0,-208.0,-90.0,0
1305,33.0,-232.0,-81.0,0
1306,36.0,-228.0,-85.0,0
1307,38.0,-226.0,-84.0,0
1308,34.0,-225.0,-82.0,0
1309,31.0,-225.0,-79.0,0
1310,27.0,-225.0,-77.0,0
1311,25.0,-225.0,-75.0,0
1312,22.0,-221.0,-73.0,0
1313,19.0,-223.0,-70.0,0
1314,17.0,-218.0,-70.0,0
1315,17.0,-211.0,-76.0,0
1316,8.0,-221.0,-64.0,0
1317,8.0,-226.0,-61.0,0
1318,6.0,-228.0,-57.0,0
1319,6.0,-235.0,-56.0,0
1320,5.0,-238.0,-49.0,0
1321,3.0,-242.0,-51.0,0
1322,1.0,-247.0,-51.0,0
1323,-2.0,-244.0,-46.0,0
1324,-3.0,-246.0,-48.0,0
1325,-5.0,-252.0,-52.0,0
1326,-29.0,-252.0,-36.0,0
1327,-11.0,-248.0,-50.0,0
1328,-8.0,-250.0,-49.0,0
1329,-7.0,-249.0,-50.0,0
1330,-5.0,-244.0,-50.0,0
1331,-7.0,-240.0,-45.0,0
1332,-4.0,-239.0,-45.0,0
1333,-7.0,-238.0,-39.0,0
1334,4.0,-229.0,-39.0,0
1335,-3.0,-230.0,-39.0,0
1336,0.0,-231.0,-35.0,0
1337,14.0,-223.0,-33.0,0
1338,1.0,-221.0,-36.0,0
1339,0.0,-215.0,-35.0,0
1340,-2.0,-211.0,-36.0,0
1341,-3.0,-208.0,-37.0,0
1342,-1.0,-206.0,-41.0,0
1343,-4.0,-199.0,-34.0,0
1344,-3.0,-203.0,-36.0,0
1345,1.0,-198.0,-35.0,0
1346,-8.0,-195.0,-32.0,0
1347,-13.0,-192.0,-43.0,0
1348,-18.0,-181.0,-50.0,0
1349,-16.0,-196.0,-32.0,0
1350,-9.0,-202.0,-28.0,0
1351,9.0,-204.0,-29.0,0
1352,23.0,-215.0,-29.0,0
1353,30.0,-220.0,-30.0,0
1354,35.0,-233.0,-17.0,0
1355,38.0,-240.0,5.0,0
1356,43.0,-244.0,9.0,0
1357,30.0,-247.0,18.0,0
1358,20.0,-246.0,7.0,0
1359,-5.0,-257.0,4.0,0
1360,-13.0,-245.0,-15.0,0
1361,-16.0,-239.0,-35.0,0
1362,-17.0,-241.0,-43.0,0
1363,-17.0,-237.0,-52.0,0
1364,-19.0,-236.0,-54.0,0
1365,-26.0,-233.0,-49.0,0
1366,-30.0,-229.0,-41.0,0
1367,-30.0,-235.0,-33.0,0
1368,-28.0,-225.0,-30.0,0
1369,-29.0,-219.0,-34.0,0
1370,-19.0,-217.0,-30.0,0
1371,-17.0,-208.0,-29.0,0
1372,-12.0,-199.0,-33.0,0
1373,-7.0,-194.0,-39.0,0
1374,7.0,-203.0,-46.0,0
1375,10.0,-201.0,-44.0,0
1376,17.0,-208.0,-40.0,0
1377,21.0,-224.0,-35.0,0
1378,24.0,-228.0,-27.0,0
1379,29.0,-239.0,-19.0,0
1380,25.0,-251.0,-15.0,0
1381,21.0,-239.0,-21.0,0
1382,4.0,-255.0,0.0,0
1383,-2.0,-259.0,-1.0,0
1384,-14.0,-256.0,3.0,0
1385,-2.0,-277.0,-13.0,0
1386,-16.0,-267.0,9.0,0
1387,-17.0,-257.0,-9.0,0
1388,-18.0,-247.0,-30.0,0
1389,-20.0,-229.0,-64.0,0
1390,-19.0,-219.0,-90.0,0
1391,-14.0,-215.0,-126.0,0
1392,-12.0,-219.0,-141.0,0
1393,-32.0,-217.0,-158.0,0
1394,-34.0,-223.0,-167.0,0
1395,-43.0,-236.0,-140.0,0
1396,-34.0,-255.0,-101.0,0
1397,-34.0,-250.0,-81.0,0
1398,-38.0,-234.0,-89.0,0
1399,-42.0,-216.0,-99.0,0
1400,-44.0,-204.0,-100.0,0
1401,-60.0,-200.0,-88.0,0
1402,-60.0,-207.0,-73.0,0
1403,-37.0,-228.0,-76.0,0
1404,-42.0,-227.0,-79.0,0
1405,-27.0,-226.0,-100.0,0
1406,-16.0,-224.0,-116.0,0
1407,-5.0,-226.0,-123.0,0
1408,-1.0,-228.0,-121.0,0
1409,-3.0,-233.0,-121.0,0
1410,12.0,-239.0,-124.0,0
1411,11.0,-239.0,-122.0,0
1412,15.0,-243.0,-135.0,0
1413,13.0,-248.0,-124.0,0
1414,13.0,-239.0,-145.0,0
1415,16.0,-238.0,-144.0,0
1416,13.0,-239.0,-142.0,0
1417,11.0,-241.0,-142.0,0
1418,9.0,-240.0,-140.0,0
1419,11.0,-244.0,-137.0,0
1420,5.0,-243.0,-140.0,0
1421,3.0,-247.0,-149.0,0
1422,7.0,-242.0,-159.0,0
1423,10.0,-236.0,-154.0,0
1424,26.0,-244.0,-198.0,0
1425,13.0,-246.0,-161.0,0
1426,14.0,-246.0,-163.0,0
1427,15.0,-253.0,-168.0,0
1428,13.0,-254.0,-161.0,0
1429,3.0,-254.0,-160.0,0
1430,-1.0,-254.0,-155.0,0
1431,-7.0,-252.0,-148.0,0
1432,-13.0,-255.0,-148.0,0
1433,-21.0,-253.0,-149.0,0
1434,-36.0,-255.0,-140.0,0
1435,-55.0,-257.0,-135.0,0
1436,-52.0,-252.0,-129.0,0
1437,-56.0,-249.0,-123.0,0
1438,-50.0,-251.0,-128.0,0
1439,-59.0,-253.0,-117.0,0
1440,-67.0,-259.0,-100.0,0
1441,-67.0,-261.0,-93.0,0
1442,-61.0,-258.0,-89.0,0
1443,-57.0,-255.0,-83.0,0
1444,-56.0,-252.0,-87.0,0
1445,-41.0,-243.0,-93.0,0
1446,-48.0,-245.0,-76.0,0
1447,-40.0,-255.0,-67.0,0
1448,-36.0,-251.0,-56.0,0
1449,-29.0,-239.0,-55.0,0
1450,-16.0,-235.0,-56.0,0
1451,-6.0,-233.0,-57.0,0
1452,-7.0,-231.0,-45.0,0
1453,-1.0,-226.0,-39.0,0
1454,7.0,-225.0,-18.0,0
1455,26.0,-233.0,6.0,0
1456,37.0,-225.0,42.0,0
1457,22.0,-229.0,62.0,1
1458,27.0,-214.0,73.0,1
1459,23.0,-181.0,85.0,1
1460,19.0,-152.0,70.0,1
1461,42.0,-110.0,-44.0,1
1462,-3.0,-55.0,-82.0,1
1463,-56.0,-40.0,-84.0,1
1464,-55.0,-38.0,-156.0,1
1465,-44.0,-60.0,-123.0,1
1466,3.0,-133.0,-52.0,1
1467,36.0,-183.0,3.0,1
1468,31.0,-227.0,-22.0,1
1469,-24.0,-245.0,-149.0,1
1470,-33.0,-232.0,-297.0,1
1471,35.0,-233.0,-306.0,1
1472,46.0,-266.0,-264.0,1
1473,15.0,-287.0,-274.0,1
1474,16.0,-304.0,-341.0,1
1475,32.0,-310.0,-390.0,1
1476,43.0,-353.0,-371.0,1
1477,20.0,-409.0,-325.0,1
1478,5.0,-474.0,-307.0,1
1479,23.0,-535.0,-302.0,1
1480,33.0,-577.0,-306.0,1
1481,14.0,-601.0,-304.0,1
1482,-14.0,-611.0,-317.0,1
1483,-12.0,-595.0,-317.0,1
1484,-16.0,-571.0,-323.0,1
1485,-15.0,-540.0,-327.0,1
1486,-17.0,-519.0,-313.0,1
1487,-9.0,-497.0,-290.0,1
1488,-10.0,-466.0,-300.0,1
1489,1.0,-442.0,-255.0,1
1490,11.0,-426.0,-242.0,1
1491,25.0,-405.0,-234.0,1
1492,39.0,-383.0,-227.0,1
1493,61.0,-363.0,-214.0,1
1494,70.0,-354.0,-194.0,1
1495,79.0,-355.0,-180.0,1
1496,66.0,-377.0,-155.0,1
1497,51.0,-381.0,-147.0,1
1498,46.0,-397.0,-146.0,1
1499,6.0,-417.0,-121.0,1
1500,15.0,-406.0,-130.0,1
1501,10.0,-388.0,-121.0,1
1502,15.0,-373.0,-108.0,1
1503,14.0,-336.0,-76.0,1
1504,12.0,-300.0,-63.0,1
1505,15.0,-271.0,-56.0,1
1506,18.0,-230.0,-53.0,1
1507,12.0,-199.0,-64.0,1
1508,27.0,-175.0,-37.0,1
1509,37.0,-148.0,-5.0,1
1510,38.0,-118.0,31.0,1
1511,33.0,-88.0,57.0,1
1512,29.0,-78.0,61.0,1
1513,22.0,-69.0,57.0,1
1514,18.0,-57.0,47.0,1
1515,6.0,-59.0,36.0,1
1516,-1.0,-70.0,24.0,1
1517,-13.0,-67.0,18.0,1
1518,-23.0,-66.0,14.0,1
1519,-27.0,-69.0,16.0,1
1520,-46.0,-81.0,29.0,1
1521,-46.0,-83.0,31.0,1
1522,-58.0,-87.0,35.0,1
1523,-65.0,-87.0,33.0,1
1524,-75.0,-82.0,41.0,1
1525,-73.0,-84.0,32.0,1
1526,-74.0,-92.0,31.0,1
1527,-65.0,-95.0,36.0,1
1528,-50.0,-94.0,41.0,1
1529,-29.0,-83.0,50.0,1
1530,-16.0,-59.0,56.0,1
1531,3.0,-32.0,53.0,1
1532,0.0,-12.0,48.0,1
1533,-6.0,9.0,28.0,1
1534,-17.0,27.0,8.0,1
1535,-28.0,36.0,6.0,1
1536,-29.0,56.0,4.0,1
1537,-17.0,63.0,8.0,1
1538,-5.0,82.0,12.0,1
1539,8.0,86.0,20.0,1
1540,14.0,92.0,-3.0,1
1541,23.0,85.0,-41.0,1
1542,8.0,100.0,-94.0,1
1543,-29.0,115.0,-308.0,1
1544,-88.0,173.0,-562.0,1
1545,-34.0,217.0,-794.0,1
1546,99.0,240.0,-1075.0,1
1547,370.0,191.0,-1307.0,1
1548,778.0,12.0,-1225.0,1
1549,749.0,-317.0,-860.0,1
1550,533.0,-576.0,-557.0,1
1551,303.0,-919.0,-245.0,1
1552,119.0,-1129.0,-204.0,1
1553,-219.0,-1160.0,-242.0,1
1554,-367.0,-956.0,-380.0,1
1555,-418.0,-671.0,-496.0,1
1556,-350.0,-520.0,-500.0,1
1557,-345.0,-459.0,-494.0,1
1558,-370.0,-422.0,-446.0,1
1559,-387.0,-389.0,-392.0,1
1560,-384.0,-340.0,-350.0,1
1561,-354.0,-259.0,-309.0,1
1562,-294.0,-157.0,-273.0,1
1563,-192.0,-78.0,-248.0,1
1564,-94.0,2.0,-260.0,1
1565,-21.0,44.0,-270.0,1
1566,72.0,64.0,-296.0,1
1567,154.0,45.0,-296.0,1
1568,161.0,-24.0,-276.0,1
1569,161.0,-103.0,-252.0,1
1570,175.0,-196.0,-231.0,1
1571,161.0,-305.0,-231.0,1
1572,140.0,-376.0,-237.0,1
1573,111.0,-456.0,-222.0,1
1574,54.0,-461.0,-214.0,1
1575,13.0,-444.0,-192.0,1
1576,-13.0,-409.0,-186.0,1
1577,-17.0,-391.0,-170.0,1
1578,-33.0,-377.0,-146.0,1
1579,-40.0,-368.0,-135.0,1
1580,-59.0,-360.0,-123.0,1
1581,-67.0,-350.0,-121.0,1
1582,-78.0,-331.0,-116.0,1
1583,-82.0,-313.0,-116.0,1
1584,-95.0,-301.0,-113.0,1
1585,-69.0,-273.0,-111.0,1
1586,-58.0,-257.0,-103.0,1
1587,-50.0,-243.0,-100.0,1
1588,-44.0,-227.0,-97.0,1
1589,-47.0,-210.0,-93.0,1
1590,-48.0,-201.0,-87.0,1
1591,-48.0,-192.0,-81.0,1
1592,-48.0,-188.0,-83.0,1
1593,-45.0,-190.0,-80.0,0
1594,-49.0,-193.0,-73.0,0
1595,-45.0,-200.0,-95.0,0
1596,-47.0,-222.0,-73.0,0
1597,-40.0,-242.0,-70.0,0
1598,-41.0,-259.0,-69.0,0
1599,-28.0,-275.0,-63.0,0
1600,-20.0,-289.0,-62.0,0
1601,-13.0,-299.0,-58.0,0
1602,-9.0,-300.0,-60.0,0
1603,1.0,-292.0,-60.0,0
1604,4.0,-280.0,-51.0,0
1605,7.0,-263.0,-53.0,0
1606,13.0,-242.0,-49.0,0
1607,15.0,-223.0,-38.0,0
1608,24.0,-206.0,-33.0,0
1609,22.0,-196.0,-26.0,0
1610,24.0,-189.0,-17.0,0
1611,25.0,-181.0,-11.0,0
1612,26.0,-181.0,0.0,0
1613,24.0,-183.0,2.0,0
1614,24.0,-192.0,8.0,0
1615,21.0,-192.0,2.0,0
1616,17.0,-190.0,4.0,0
1617,16.0,-190.0,-6.0,0
1618,17.0,-187.0,-17.0,0
1619,21.0,-185.0,-20.0,0
1620,21.0,-183.0,-30.0,0
1621,20.0,-178.0,-35.0,0
1622,25.0,-183.0,-32.0,0
1623,25.0,-188.0,-33.0,0
1624,24.0,-184.0,-28.0,0
1625,18.0,-188.0,-26.0,0
1626,13.0,-180.0,-31.0,0
1627,3.0,-173.0,-20.0,0
1628,1.0,-159.0,-27.0,0
1629,-7.0,-142.0,-31.0,0
1630,-15.0,-125.0,-32.0,0
1631,-16.0,-103.0,-38.0,0
1632,-21.0,-88.0,-41.0,0
1633,-23.0,-75.0,-41.0,0
1634,-22.0,-59.0,-42.0,0
1635,-25.0,-44.0,-51.0,0
1636,-7.0,-35.0,-56.0,0
1637,0.0,-25.0,-64.0,0
1638,9.0,-26.0,-63.0,0
1639,30.0,-30.0,-103.0,0
1640,83.0,-34.0,-129.0,0
1641,123.0,-48.0,-154.0,0
1642,105.0,-74.0,-185.0,0
1643,75.0,-107.0,-222.0,0
1644,52.0,-150.0,-293.0,0
1645,41.0,-193.0,-374.0,0
1646,21.0,-251.0,-412.0,0
1647,-15.0,-306.0,-386.0,0
1648,-56.0,-391.0,-340.0,0
1649,-70.0,-476.0,-295.0,0
1650,-25.0,-579.0,-251.0,0
1651,32.0,-660.0,-211.0,0
1652,65.0,-709.0,-193.0,0
1653,64.0,-726.0,-197.0,0
1654,58.0,-704.0,-215.0,0
1655,57.0,-642.0,-260.0,0
1656,48.0,-569.0,-294.0,0
1657,21.0,-505.0,-304.0,0
1658,-9.0,-448.0,-277.0,0
1659,-34.0,-388.0,-254.0,0
1660,-48.0,-343.0,-203.0,0
1661,-55.0,-304.0,-182.0,0
1662,-53.0,-254.0,-143.0,0
1663,-57.0,-204.0,-113.0,0
1664,-47.0,-170.0,-99.0,0
1665,-41.0,-139.0,-103.0,0
1666,-28.0,-127.0,-109.0,0
1667,-10.0,-130.0,-115.0,0
1668,8.0,-142.0,-120.0,0
1669,25.0,-161.0,-119.0,0
1670,28.0,-181.0,-132.0,0
1671,58.0,-206.0,-127.0,0
1672,76.0,-231.0,-130.0,0
1673,85.0,-254.0,-127.0,0
1674,96.0,-275.0,-128.0,0
1675,103.0,-295.0,-129.0,0
1676,107.0,-304.0,-127.0,0
1677,108.0,-314.0,-126.0,0
1678,103.0,-320.0,-121.0,0
1679,96.0,-317.0,-116.0,0
1680,88.0,-312.0,-111.0,0
1681,78.0,-299.0,-100.0,0
1682,66.0,-286.0,-87.0,0
1683,55.0,-270.0,-82.0,0
1684,46.0,-259.0,-77.0,0
1685,36.0,-243.0,-71.0,0
1686,26.0,-225.0,-67.0,0
1687,18.0,-202.0,-66.0,0
1688,11.0,-186.0,-65.0,0
1689,3.0,-169.0,-64.0,0
1690,-3.0,-152.0,-64.0,0
1691,-9.0,-145.0,-61.0,0
1692,-15.0,-136.0,-65.0,0
1693,-14.0,-122.0,-59.0,0
1694,-12.0,-113.0,-59.0,0
1695,-4.0,-111.0,-57.0,0
1696,2.0,-105.0,-61.0,0
1697,6.0,-104.0,-64.0,0
1698,10.0,-104.0,-63.0,0
1699,13.0,-103.0,-66.0,0
1700,23.0,-111.0,-63.0,0
1701,31.0,-118.0,-64.0,0
1702,35.0,-125.0,-64.0,0
1703,44.0,-127.0,-65.0,0
1704,48.0,-138.0,-66.0,0
1705,52.0,-144.0,-64.0,0
1706,51.0,-153.0,-67.0,0
1707,50.0,-163.0,-70.0,0
1708,51.0,-174.0,-72.0,0
1709,50.0,-184.0,-69.0,0
1710,48.0,-195.0,-73.0,0
1711,48.0,-200.0,-72.0,0
1712,46.0,-219.0,-65.0,0
1713,39.0,-218.0,-81.0,0
1714,43.0,-223.0,-75.0,0
1715,37.0,-233.0,-72.0,0
1716,33.0,-240.0,-78.0,0
1717,29.0,-249.0,-74.0,0
1718,26.0,-255.0,-74.0,0
1719,21.0,-258.0,-75.0,0
1720,19.0,-259.0,-68.0,0
1721,17.0,-266.0,-70.0,0
1722,16.0,-268.0,-70.0,0
1723,8.0,-267.0,-65.0,0
1724,4.0,-272.0,-57.0,0
1725,4.0,-267.0,-59.0,0
1726,3.0,-262.0,-56.0,0
1727,9.0,-259.0,-50.0,0
1728,11.0,-254.0,-48.0,0
1729,12.0,-249.0,-43.0,0
1730,13.0,-245.0,-40.0,0
1731,19.0,-240.0,-37.0,0
1732,24.0,-237.0,-29.0,0
1733,23.0,-227.0,-24.0,0
1734,28.0,-226.0,-25.0,0
1735,36.0,-220.0,-32.0,0
1736,35.0,-224.0,-22.0,0
1737,35.0,-220.0,-24.0,0
1738,39.0,-221.0,-17.0,0
1739,36.0,-223.0,-19.0,0
1740,35.0,-225.0,-19.0,0
1741,35.0,-227.0,-26.0,0
1742,35.0,-230.0,-26.0,0
1743,38.0,-241.0,-30.0,0
1744,38.0,-245.0,-27.0,0
1745,32.0,-247.0,-31.0,0
1746,26.0,-247.0,-35.0,0
1747,35.0,-265.0,-18.0,0
1748,41.0,-256.0,-37.0,0
1749,42.0,-255.0,-33.0,0
1750,42.0,-257.0,-37.0,0
1751,44.0,-256.0,-37.0,0
1752,42.0,-253.0,-36.0,0
1753,41.0,-257.0,-33.0,0
1754,45.0,-253.0,-25.0,0
1755,40.0,-255.0,-22.0,0
1756,36.0,-255.0,-18.0,0
1757,34.0,-246.0,-13.0,0
1758,31.0,-248.0,-3.0,0
1759,27.0,-247.0,-5.0,0
1760,21.0,-243.0,-1.0,0
1761,14.0,-245.0,-4.0,0
1762,3.0,-247.0,-5.0,0
1763,1.0,-258.0,-6.0,0
1764,1.0,-266.0,-17.0,0
1765,10.0,-275.0,-45.0,0
1766,18.0,-280.0,-67.0,0
1767,37.0,-295.0,-100.0,0
1768,59.0,-314.0,-123.0,0
1769,70.0,-313.0,-141.0,0
1770,94.0,-331.0,-129.0,0
1771,111.0,-351.0,-114.0,0
1772,115.0,-370.0,-95.0,0
1773,112.0,-376.0,-87.0,0
1774,99.0,-369.0,-78.0,0
1775,72.0,-348.0,-71.0,0
1776,44.0,-323.0,-65.0,0
1777,18.0,-306.0,-63.0,0
1778,-10.0,-301.0,-42.0,0
1779,-27.0,-276.0,-56.0,0
1780,-48.0,-261.0,-57.0,0
1781,-61.0,-256.0,-61.0,0
1782,-80.0,-244.0,-68.0,0
1783,-87.0,-241.0,-73.0,0
1784,-95.0,-242.0,-81.0,0
1785,-100.0,-240.0,-80.0,0
1786,-97.0,-247.0,-81.0,0
1787,-86.0,-252.0,-90.0,0
1788,-79.0,-257.0,-83.0,0
1789,-59.0,-266.0,-71.0,0
1790,-47.0,-265.0,-75.0,0
1791,-31.0,-270.0,-72.0,0
1792,-16.0,-265.0,-70.0,0
1793,-2.0,-260.0,-72.0,0
1794,13.0,-255.0,-71.0,0
1795,27.0,-252.0,-65.0,0
1796,36.0,-245.0,-66.0,0
1797,49.0,-239.0,-66.0,0
1798,50.0,-236.0,-64.0,0
1799,55.0,-232.0,-62.0,0
1800,62.0,-226.0,-60.0,0
1801,56.0,-232.0,-63.0,0
1802,57.0,-234.0,-59.0,0
1803,48.0,-234.0,-59.0,0
1804,41.0,-234.0,-55.0,0
1805,31.0,-236.0,-55.0,0
1806,17.0,-239.0,-57.0,0
1807,7.0,-242.0,-55.0,0
1808,-6.0,-227.0,-60.0,0
1809,-16.0,-229.0,-60.0,0
1810,-22.0,-224.0,-56.0,0
1811,-31.0,-218.0,-61.0,0
1812,-40.0,-224.0,-57.0,0
1813,-52.0,-210.0,-36.0,0
1814,-51.0,-200.0,-54.0,0
1815,-55.0,-197.0,-60.0,0
1816,-55.0,-197.0,-53.0,0
1817,-54.0,-200.0,-49.0,0
1818,-58.0,-198.0,-51.0,0
1819,-57.0,-203.0,-52.0,0
1820,-53.0,-208.0,-47.0,0
1821,-43.0,-211.0,-51.0,0
1822,-43.0,-214.0,-34.0,0
1823,-39.0,-226.0,-46.0,0
1824,-36.0,-231.0,-47.0,0
1825,-31.0,-237.0,-45.0,0
1826,-26.0,-238.0,-44.0,0
1827,-29.0,-241.0,-48.0,0
1828,-26.0,-246.0,-47.0,0
1829,-24.0,-249.0,-47.0,0
1830,-29.0,-242.0,-45.0,0
1831,-31.0,-241.0,-47.0,0
1832,-25.0,-248.0,-46.0,0
1833,-21.0,-237.0,-63.0,0
1834,-30.0,-238.0,-48.0,0
1835,-28.0,-235.0,-51.0,0
1836,-27.0,-233.0,-49.0,0
1837,-30.0,-234.0,-47.0,0
1838,-30.0,-229.0,-45.0,0
1839,-30.0,-232.0,-45.0,0
1840,-27.0,-230.0,-43.0,0
1841,-27.0,-228.0,-38.0,0
1842,-24.0,-228.0,-37.0,0
1843,-9.0,-229.0,-34.0,0
1844,-22.0,-228.0,-31.0,0
1845,-16.0,-227.0,-29.0,0
1846,-16.0,-224.0,-26.0,0
1847,-16.0,-223.0,-24.0,0
1848,-14.0,-224.0,-22.0,0
1849,-15.0,-225.0,-22.0,0
1850,-9.0,-227.0,-19.0,0
1851,-5.0,-226.0,-17.0,0
1852,-6.0,-228.0,-23.0,0
1853,-3.0,-229.0,-17.0,0
1854,15.0,-240.0,-7.0,0
1855,3.0,-217.0,-27.0,0
1856,10.0,-222.0,-2.0,0
1857,1.0,-227.0,-17.0,0
1858,3.0,-242.0,-10.0,0
1859,13.0,-229.0,-8.0,0
1860,4.0,-262.0,5.0,0
1861,17.0,-230.0,-22.0,0
1862,4.0,-237.0,-22.0,0
1863,9.0,-221.0,-21.0,0
1864,-5.0,-237.0,-3.0,0
1865,-7.0,-247.0,4.0,0
1866,22.0,-247.0,5.0,0
1867,4.0,-238.0,7.0,0
1868,-9.0,-242.0,2.0,0
1869,-19.0,-243.0,-1.0,0
1870,-10.0,-238.0,13.0,0
1871,-19.0,-248.0,2.0,0
1872,-22.0,-254.0,5.0,0
1873,-24.0,-256.0,4.0,0
1874,-26.0,-258.0,3.0,0
1875,-21.0,-269.0,17.0,0
1876,-28.0,-262.0,-11.0,0
1877,-19.0,-261.0,0.0,0
1878,-22.0,-264.0,-2.0,0
1879,-24.0,-261.0,-12.0,0
1880,-23.0,-266.0,-21.0,0
1881,-20.0,-265.0,-9.0,0
1882,-16.0,-261.0,-12.0,0
1883,-16.0,-263.0,-15.0,0
1884,-14.0,-263.0,-12.0,0
1885,-16.0,-264.0,-11.0,0
1886,-13.0,-256.0,-9.0,0
1887,-19.0,-269.0,1.0,0
1888,-6.0,-260.0,0.0,0
1889,-2.0,-258.0,5.0,0
1890,-3.0,-257.0,9.0,0
1891,0.0,-256.0,15.0,0
1892,2.0,-259.0,17.0,0
1893,4.0,-257.0,19.0,0
1894,6.0,-260.0,19.0,0
1895,16.0,-256.0,32.0,0
1896,20.0,-255.0,22.0,0
1897,19.0,-260.0,13.0,0
1898,17.0,-268.0,9.0,0
1899,15.0,-285.0,5.0,0
1900,7.0,-300.0,4.0,0
1901,1.0,-316.0,0.0,0
1902,-14.0,-331.0,-11.0,0
1903,-29.0,-346.0,-31.0,0
1904,-45.0,-356.0,-41.0,0
1905,-59.0,-365.0,-39.0,0
1906,-74.0,-379.0,-37.0,0
1907,-86.0,-380.0,-32.0,0
1908,-116.0,-380.0,-48.0,0
1909,-101.0,-370.0,-39.0,0
1910,-91.0,-359.0,-42.0,0
1911,-75.0,-348.0,-37.0,0
1912,-52.0,-332.0,-34.0,0
1913,-27.0,-320.0,-28.0,0
1914,-8.0,-299.0,-23.0,0
1915,4.0,-285.0,-28.0,0
1916,13.0,-270.0,-41.0,0
1917,-14.0,-281.0,-70.0,0
1918,24.0,-266.0,-64.0,0
1919,57.0,-239.0,-56.0,0
1920,55.0,-225.0,-79.0,0
1921,59.0,-210.0,-88.0,0
1922,61.0,-197.0,-93.0,0
1923,66.0,-187.0,-91.0,0
1924,57.0,-176.0,-90.0,0
1925,53.0,-170.0,-96.0,0
1926,47.0,-176.0,-96.0,0
1927,48.0,-178.0,-83.0,0
1928,45.0,-191.0,-74.0,0
1929,41.0,-196.0,-69.0,0
1930,25.0,-205.0,-56.0,0
1931,31.0,-218.0,-62.0,0
1932,25.0,-229.0,-69.0,0
1933,16.0,-238.0,-66.0,0
1934,11.0,-248.0,-74.0,0
1935,4.0,-255.0,-71.0,0
1936,-2.0,-260.0,-66.0,0
1937,-4.0,-265.0,-66.0,0
1938,-9.0,-264.0,-59.0,0
1939,-12.0,-272.0,-55.0,0
1940,-10.0,-276.0,-55.0,0
1941,-13.0,-273.0,-65.0,0
1942,-9.0,-270.0,-51.0,0
1943,-5.0,-272.0,-51.0,0
1944,0.0,-267.0,-49.0,0
1945,2.0,-268.0,-51.0,0
1946,1.0,-264.0,-47.0,0
1947,8.0,-263.0,-40.0,0
1948,10.0,-260.0,-41.0,0
1949,13.0,-257.0,-40.0,0
1950,21.0,-248.0,-37.0,0
1951,27.0,-245.0,-42.0,0
1952,20.0,-242.0,-37.0,0
1953,26.0,-237.0,-34.0,0
1954,30.0,-230.0,-39.0,0
1955,29.0,-228.0,-34.0,0
1956,30.0,-221.0,-38.0,0
1957,32.0,-219.0,-36.0,0
1958,34.0,-215.0,-30.0,0
1959,32.0,-217.0,-31.0,0
1960,32.0,-214.0,-31.0,0
1961,33.0,-216.0,-35.0,0
1962,44.0,-217.0,-36.0,0
1963,32.0,-217.0,-27.0,0
1964,32.0,-216.0,-31.0,0
1965,39.0,-216.0,-31.0,0
1966,37.0,-216.0,-29.0,0
1967,39.0,-219.0,-31.0,0
1968,40.0,-218.0,-31.0,0
1969,39.0,-215.0,-30.0,0
1970,42.0,-214.0,-34.0,0
1971,48.0,-218.0,-36.0,0
1972,46.0,-215.0,-30.0,0
1973,44.0,-209.0,-44.0,0
1974,50.0,-220.0,-27.0,0
1975,53.0,-220.0,-29.0,0
1976,54.0,-221.0,-21.0,0
1977,57.0,-223.0,-20.0,0
1978,54.0,-227.0,-26.0,0
1979,53.0,-225.0,-28.0,0
1980,52.0,-230.0,-25.0,0
1981,53.0,-223.0,-29.0,0
1982,49.0,-228.0,-24.0,0
1983,46.0,-229.0,-23.0,0
1984,59.0,-246.0,-11.0,0
1985,42.0,-232.0,-24.0,0
1986,43.0,-234.0,-26.0,0
1987,40.0,-234.0,-25.0,0
1988,38.0,-235.0,-21.0,0
1989,35.0,-237.0,-21.0,0
1990,34.0,-241.0,-20.0,0
1991,34.0,-245.0,-21.0,0
1992,32.0,-248.0,-18.0,0
1993,27.0,-249.0,-14.0,0
1994,23.0,-249.0,-13.0,0
1995,31.0,-239.0,-32.0,0
1996,24.0,-249.0,-13.0,0
1997,23.0,-252.0,-12.0,0
1998,21.0,-248.0,-10.0,0
1999,17.0,-246.0,-6.0,0
2000,16.0,-240.0,-5.0,0
2001,18.0,-238.0,-7.0,0
2002,20.0,-235.0,-3.0,0
2003,25.0,-237.0,-1.0,0
2004,18.0,-238.0,-2.0,0
2005,17.0,-235.0,0.0,0
2006,15.0,-232.0,6.0,0
2007,18.0,-235.0,7.0,0
2008,18.0,-232.0,9.0,0
2009,19.0,-229.0,3.0,0
2010,20.0,-228.0,5.0,0
2011,25.0,-231.0,6.0,0
2012,28.0,-227.0,7.0,0
2013,29.0,-231.0,8.0,0
2014,30.0,-234.0,10.0,0
2015,28.0,-230.0,6.0,0
2016,27.0,-235.0,11.0,0
2017,9.0,-235.0,12.0,0
2018,29.0,-236.0,4.0,0
2019,31.0,-239.0,2.0,0
2020,32.0,-244.0,0.0,0
2021,34.0,-246.0,0.0,0
2022,37.0,-252.0,1.0,0
2023,38.0,-254.0,1.0,0
2024,40.0,-256.0,-1.0,0
2025,44.0,-264.0,2.0,0
2026,46.0,-267.0,0.0,0
2027,47.0,-270.0,2.0,0
2028,49.0,-272.0,6.0,0
2029,49.0,-272.0,1.0,0
2030,48.0,-276.0,0.0,0
2031,48.0,-275.0,3.0,0
2032,45.0,-277.0,4.0,0
2033,45.0,-278.0,2.0,0
2034,40.0,-279.0,3.0,0
2035,39.0,-276.0,6.0,0
2036,39.0,-272.0,10.0,0
2037,30.0,-263.0,12.0,0
2038,20.0,-272.0,29.0,0
2039,18.0,-262.0,27.0,0
2040,17.0,-261.0,25.0,0
2041,15.0,-260.0,27.0,0
2042,10.0,-256.0,28.0,0
2043,11.0,-256.0,29.0,0
2044,13.0,-260.0,27.0,0
2045,15.0,-270.0,23.0,0
2046,21.0,-283.0,31.0,0
2047,31.0,-297.0,5.0,0
2048,39.0,-309.0,-13.0,0
2049,51.0,-304.0,-27.0,0
2050,52.0,-337.0,-27.0,0
2051,63.0,-355.0,-24.0,0
2052,76.0,-369.0,-27.0,0
2053,85.0,-385.0,-21.0,0
2054,89.0,-386.0,-29.0,0
2055,95.0,-383.0,-31.0,0
2056,80.0,-366.0,-35.0,0
2057,69.0,-355.0,-36.0,0
2058,50.0,-334.0,-39.0,0
2059,29.0,-320.0,-29.0,0
2060,21.0,-305.0,-21.0,0
2061,9.0,-284.0,-37.0,0
2062,10.0,-281.0,-51.0,0
2063,-12.0,-245.0,-54.0,0
2064,-16.0,-231.0,-65.0,0
2065,-19.0,-212.0,-75.0,0
2066,-20.0,-201.0,-86.0,0
2067,-32.0,-190.0,-84.0,0
2068,-20.0,-185.0,-97.0,0
2069,-27.0,-183.0,-101.0,0
2070,-22.0,-179.0,-119.0,0
2071,-28.0,-186.0,-99.0,0
2072,-22.0,-190.0,-93.0,0
2073,-20.0,-196.0,-95.0,0
2074,-14.0,-202.0,-89.0,0
2075,-13.0,-210.0,-91.0,0
2076,-8.0,-223.0,-86.0,0
2077,-3.0,-228.0,-79.0,0
2078,3.0,-235.0,-79.0,0
2079,3.0,-239.0,-82.0,0
2080,10.0,-244.0,-80.0,0
2081,-3.0,-256.0,-71.0,0
2082,16.0,-246.0,-78.0,0
2083,16.0,-249.0,-78.0,0
2084,20.0,-244.0,-76.0,0
2085,26.0,-252.0,-70.0,0
2086,27.0,-252.0,-71.0,0
2087,28.0,-254.0,-66.0,0
2088,31.0,-256.0,-63.0,0
2089,29.0,-253.0,-63.0,0
2090,34.0,-254.0,-61.0,0
2091,37.0,-254.0,-64.0,0
2092,37.0,-248.0,-64.0,0
2093,32.0,-250.0,-62.0,0
2094,25.0,-252.0,-60.0,0
2095,25.0,-245.0,-57.0,0
2096,18.0,-238.0,-52.0,0
2097,17.0,-234.0,-51.0,0
2098,11.0,-230.0,-51.0,0
2099,9.0,-228.0,-42.0,0
2100,0.0,-226.0,-46.0,0
2101,-1.0,-228.0,-51.0,0
2102,-6.0,-229.0,-51.0,0
2103,-20.0,-230.0,-71.0,0
2104,-17.0,-232.0,-37.0,0
2105,-20.0,-240.0,-41.0,0
2106,-23.0,-236.0,-35.0,0
2107,-22.0,-242.0,-25.0,0
2108,-26.0,-244.0,-26.0,0
2109,-26.0,-246.0,-25.0,0
2110,-25.0,-245.0,-24.0,0
2111,-24.0,-250.0,-28.0,0
2112,-24.0,-246.0,-29.0,0
2113,-18.0,-244.0,-25.0,0
2114,-28.0,-252.0,-29.0,0
2115,-15.0,-245.0,-33.0,0
2116,-15.0,-242.0,-34.0,0
2117,-15.0,-239.0,-33.0,0
2118,-13.0,-238.0,-31.0,0
2119,-11.0,-231.0,-29.0,0
2120,-13.0,-229.0,-30.0,0
2121,-12.0,-226.0,-27.0,0
2122,-16.0,-230.0,-25.0,0
2123,-15.0,-226.0,-27.0,0
2124,-15.0,-226.0,-22.0,0
2125,-9.0,-247.0,-23.0,0
2126,-17.0,-231.0,-26.0,0
2127,-16.0,-237.0,-24.0,0
2128,-18.0,-237.0,-21.0,0
2129,-16.0,-239.0,-22.0,0
2130,-15.0,-239.0,-27.0,0
2131,-16.0,-241.0,-23.0,0
2132,-17.0,-243.0,-27.0,0
2133,-15.0,-246.0,-21.0,0
2134,-15.0,-242.0,-23.0,0
2135,-14.0,-241.0,-19.0,0
2136,-11.0,-247.0,-10.0,0
2137,-11.0,-238.0,-22.0,0
2138,-9.0,-237.0,-23.0,0
2139,-6.0,-238.0,-21.0,0
2140,-4.0,-238.0,-17.0,0
2141,-2.0,-236.0,-21.0,0
2142,-3.0,-235.0,-19.0,0
2143,0.0,-232.0,-20.0,0
2144,0.0,-231.0,-14.0,0
2145,3.0,-230.0,-10.0,0
2146,0.0,-231.0,-16.0,0
2147,-9.0,-229.0,-6.0,0
2148,2.0,-225.0,-9.0,0
2149,2.0,-225.0,-11.0,0
2150,-3.0,-225.0,-6.0,0
2151,-2.0,-227.0,-3.0,0
2152,-1.0,-229.0,-3.0,0
2153,-4.0,-233.0,1.0,0
2154,-8.0,-241.0,2.0,0
2155,-6.0,-245.0,3.0,0
2156,-14.0,-248.0,4.0,0
2157,-10.0,-252.0,3.0,0
2158,-7.0,-253.0,14.0,0
2159,-13.0,-247.0,1.0,0
2160,-11.0,-252.0,2.0,0
2161,-15.0,-245.0,3.0,0
2162,-16.0,-246.0,0.0,0
2163,-19.0,-241.0,-1.0,0
2164,-17.0,-240.0,-3.0,0
2165,-22.0,-236.0,-10.0,0
2166,-17.0,-236.0,-8.0,0
2167,-18.0,-224.0,-20.0,0
2168,-17.0,-218.0,-22.0,0
2169,-11.0,-230.0,-18.0,0
2170,-7.0,-234.0,-15.0,0
2171,-3.0,-236.0,-19.0,0
2172,3.0,-241.0,-16.0,0
2173,8.0,-246.0,-17.0,0
2174,12.0,-247.0,-18.0,0
2175,15.0,-254.0,-15.0,0
2176,18.0,-253.0,-8.0,0
2177,19.0,-257.0,-9.0,0
2178,21.0,-261.0,-6.0,0
2179,15.0,-270.0,7.0,0
2180,23.0,-266.0,1.0,0
2181,25.0,-268.0,5.0,0
2182,25.0,-265.0,7.0,0
2183,23.0,-266.0,11.0,0
2184,19.0,-268.0,15.0,0
2185,15.0,-266.0,16.0,0
2186,9.0,-266.0,21.0,0
2187,10.0,-269.0,19.0,0
2188,3.0,-269.0,26.0,0
2189,10.0,-273.0,39.0,0
2190,14.0,-273.0,42.0,0
2191,-7.0,-274.0,39.0,0
2192,-10.0,-273.0,43.0,0
2193,-15.0,-271.0,45.0,0
2194,-16.0,-269.0,45.0,0
2195,-20.0,-270.0,48.0,0
2196,-21.0,-271.0,45.0,0
2197,-18.0,-273.0,36.0,0
2198,-15.0,-279.0,27.0,0
2199,-16.0,-282.0,16.0,0
2200,-19.0,-285.0,0.0,0
2201,-26.0,-285.0,-31.0,0
2202,-32.0,-297.0,-39.0,0
2203,-39.0,-306.0,-60.0,0
2204,-40.0,-320.0,-67.0,0
2205,-43.0,-333.0,-67.0,0
2206,-51.0,-359.0,-64.0,0
2207,-62.0,-374.0,-70.0,0
2208,-78.0,-375.0,-85.0,0
2209,-81.0,-373.0,-107.0,0
2210,-73.0,-363.0,-119.0,0
2211,-62.0,-353.0,-121.0,0
2212,-52.0,-352.0,-101.0,0
2213,-38.0,-347.0,-85.0,0
2214,-18.0,-340.0,-70.0,0
2215,-3.0,-320.0,-61.0,0
2216,9.0,-302.0,-63.0,0
2217,23.0,-274.0,-65.0,0
2218,41.0,-251.0,-74.0,0
2219,46.0,-229.0,-76.0,0
2220,52.0,-204.0,-87.0,0
2221,57.0,-182.0,-96.0,0
2222,56.0,-176.0,-80.0,0
2223,56.0,-155.0,-99.0,0
2224,60.0,-139.0,-91.0,0
2225,55.0,-127.0,-97.0,0
2226,41.0,-129.0,-99.0,0
2227,28.0,-138.0,-93.0,0
2228,22.0,-147.0,-92.0,0
2229,16.0,-167.0,-83.0,0
2230,8.0,-186.0,-79.0,0
2231,4.0,-209.0,-73.0,0
2232,4.0,-232.0,-73.0,0
2233,2.0,-246.0,-71.0,0
2234,-5.0,-265.0,-64.0,0
2235,-5.0,-268.0,-66.0,0
2236,-9.0,-277.0,-67.0,0
2237,-7.0,-277.0,-63.0,0
2238,-9.0,-280.0,-61.0,0
2239,-6.0,-278.0,-66.0,0
2240,-6.0,-275.0,-64.0,0
2241,-5.0,-272.0,-61.0,0
2242,0.0,-277.0,-62.0,0
2243,5.0,-272.0,-64.0,0
2244,5.0,-252.0,-63.0,0
2245,11.0,-262.0,-61.0,0
2246,15.0,-261.0,-59.0,0
2247,19.0,-256.0,-60.0,0
2248,19.0,-254.0,-60.0,0
2249,20.0,-252.0,-58.0,0
2250,22.0,-252.0,-61.0,0
2251,22.0,-245.0,-56.0,0
2252,25.0,-241.0,-60.0,0
2253,27.0,-246.0,-54.0,0
2254,23.0,-235.0,-54.0,0
2255,36.0,-235.0,-50.0,0
2256,29.0,-233.0,-48.0,0
2257,29.0,-231.0,-48.0,0
2258,31.0,-231.0,-47.0,0
2259,31.0,-230.0,-42.0,0
2260,33.0,-227.0,-38.0,0
2261,32.0,-224.0,-41.0,0
2262,35.0,-224.0,-34.0,0
2263,31.0,-224.0,-27.0,0
2264,27.0,-222.0,-30.0,0
2265,59.0,-213.0,-31.0,0
2266,32.0,-220.0,-26.0,0
2267,37.0,-220.0,-21.0,0
2268,37.0,-220.0,-23.0,0
2269,37.0,-224.0,-26.0,0
2270,40.0,-225.0,-24.0,0
2271,43.0,-224.0,-20.0,0
2272,43.0,-225.0,-28.0,0
2273,37.0,-227.0,-23.0,0
2274,45.0,-226.0,-21.0,0
2275,45.0,-223.0,-23.0,0
2276,49.0,-235.0,-15.0,0
2277,40.0,-235.0,-21.0,0
2278,41.0,-240.0,-20.0,0
2279,40.0,-238.0,-18.0,0
2280,36.0,-242.0,-18.0,0
2281,35.0,-237.0,-22.0,0
2282,34.0,-238.0,-25.0,0
2283,31.0,-239.0,-19.0,0
2284,36.0,-236.0,-19.0,0
2285,36.0,-233.0,-21.0,0
2286,31.0,-243.0,-23.0,0
2287,14.0,-228.0,-32.0,0
2288,36.0,-238.0,-17.0,0
2289,35.0,-240.0,-14.0,0
2290,37.0,-240.0,-10.0,0
2291,38.0,-238.0,-10.0,0
2292,34.0,-239.0,-15.0,0
2293,37.0,-235.0,-9.0,0
2294,31.0,-232.0,-2.0,0
2295,31.0,-231.0,-4.0,0
2296,27.0,-228.0,-3.0,0
2297,22.0,-224.0,-6.0,0
2298,21.0,-211.0,-9.0,0
2299,17.0,-221.0,-1.0,0
2300,17.0,-226.0,0.0,0
2301,15.0,-223.0,1.0,0
2302,13.0,-222.0,1.0,0
2303,15.0,-218.0,1.0,0
2304,15.0,-215.0,3.0,0
2305,20.0,-216.0,-2.0,0
2306,20.0,-217.0,3.0,0
2307,23.0,-222.0,5.0,0
2308,26.0,-217.0,5.0,0
2309,34.0,-226.0,31.0,0
2310,38.0,-221.0,9.0,0
2311,44.0,-224.0,8.0,0
2312,44.0,-229.0,9.0,0
2313,44.0,-235.0,13.0,0
2314,42.0,-239.0,11.0,0
2315,43.0,-239.0,9.0,0
2316,45.0,-240.0,9.0,0
2317,40.0,-240.0,13.0,0
2318,37.0,-241.0,5.0,0
2319,32.0,-242.0,8.0,0
2320,35.0,-231.0,4.0,0
2321,20.0,-240.0,7.0,0
2322,20.0,-240.0,1.0,0
2323,19.0,-245.0,2.0,0
2324,17.0,-247.0,3.0,0
2325,17.0,-247.0,5.0,0
2326,17.0,-256.0,3.0,0
2327,15.0,-259.0,0.0,0
2328,14.0,-265.0,2.0,0
2329,14.0,-268.0,-3.0,0
2330,12.0,-274.0,-4.0,0
2331,15.0,-276.0,-8.0,0
2332,19.0,-279.0,-9.0,0
2333,24.0,-284.0,-9.0,0
2334,28.0,-287.0,-15.0,0
2335,33.0,-286.0,-12.0,0
2336,34.0,-289.0,-10.0,0
2337,38.0,-291.0,-5.0,0
2338,33.0,-288.0,-1.0,0
2339,35.0,-285.0,0.0,0
2340,35.0,-283.0,8.0,0
2341,12.0,-276.0,13.0,0
2342,29.0,-282.0,20.0,0
2343,25.0,-282.0,24.0,0
2344,19.0,-273.0,32.0,0
2345,18.0,-271.0,38.0,0
2346,19.0,-269.0,39.0,0
2347,20.0,-267.0,42.0,0
2348,25.0,-265.0,41.0,0
2349,20.0,-260.0,48.0,0
2350,28.0,-264.0,52.0,0
2351,32.0,-266.0,54.0,0
2352,34.0,-276.0,73.0,0
2353,37.0,-270.0,54.0,0
2354,41.0,-281.0,47.0,0
2355,44.0,-285.0,44.0,0
2356,49.0,-293.0,38.0,0
2357,53.0,-298.0,29.0,0
2358,58.0,-304.0,16.0,0
2359,63.0,-309.0,10.0,0
2360,74.0,-308.0,2.0,0
2361,80.0,-317.0,0.0,0
2362,88.0,-316.0,-4.0,0
2363,90.0,-336.0,5.0,0
2364,99.0,-322.0,-12.0,0
2365,97.0,-318.0,-27.0,0
2366,90.0,-311.0,-31.0,0
2367,74.0,-305.0,-38.0,0
2368,58.0,-298.0,-40.0,0
2369,39.0,-289.0,-44.0,0
2370,24.0,-290.0,-44.0,0
2371,9.0,-286.0,-42.0,0
2372,-6.0,-275.0,-53.0,0
2373,-17.0,-278.0,-52.0,0
2374,-25.0,-258.0,-73.0,0
2375,-39.0,-244.0,-85.0,0
2376,-46.0,-228.0,-91.0,0
2377,-51.0,-223.0,-99.0,0
2378,-56.0,-210.0,-100.0,0
2379,-56.0,-201.0,-100.0,0
2380,-59.0,-198.0,-99.0,0
2381,-48.0,-195.0,-99.0,0
2382,-40.0,-192.0,-97.0,0
2383,-23.0,-193.0,-92.0,0
2384,-20.0,-216.0,-62.0,0
2385,-6.0,-211.0,-85.0,0
2386,4.0,-222.0,-79.0,0
2387,15.0,-230.0,-71.0,0
2388,25.0,-235.0,-70.0,0
2389,33.0,-241.0,-70.0,0
2390,40.0,-246.0,-66.0,0
2391,45.0,-252.0,-67.0,0
2392,47.0,-253.0,-61.0,0
2393,47.0,-255.0,-57.0,0
2394,48.0,-257.0,-55.0,0
2395,37.0,-264.0,-55.0,0
2396,39.0,-251.0,-57.0,0
2397,33.0,-246.0,-57.0,0
2398,26.0,-245.0,-58.0,0
2399,22.0,-245.0,-58.0,0
