,accelerometer_x,accelerometer_y,accelerometer_z,fall
0,17.0,-242.0,-84.0,0
1,19.0,-243.0,-83.0,0
2,13.0,-243.0,-84.0,0
3,14.0,-240.0,-83.0,0
4,13.0,-242.0,-85.0,0
5,16.0,-253.0,-75.0,0
6,11.0,-240.0,-90.0,0
7,12.0,-241.0,-82.0,0
8,9.0,-246.0,-84.0,0
9,12.0,-242.0,-85.0,0
10,12.0,-247.0,-88.0,0
11,12.0,-244.0,-88.0,0
12,15.0,-245.0,-82.0,0
13,11.0,-247.0,-85.0,0
14,9.0,-244.0,-82.0,0
15,23.0,-248.0,-82.0,0
16,8.0,-248.0,-74.0,0
17,11.0,-243.0,-81.0,0
18,14.0,-241.0,-85.0,0
19,13.0,-246.0,-88.0,0
20,15.0,-244.0,-83.0,0
21,12.0,-245.0,-85.0,0
22,9.0,-243.0,-82.0,0
23,17.0,-243.0,-83.0,0
24,12.0,-243.0,-88.0,0
25,9.0,-243.0,-86.0,0
26,15.0,-248.0,-81.0,0
27,10.0,-243.0,-86.0,0
28,14.0,-241.0,-85.0,0
29,14.0,-244.0,-86.0,0
30,12.0,-241.0,-86.0,0
31,13.0,-242.0,-88.0,0
32,11.0,-244.0,-87.0,0
33,15.0,-238.0,-89.0,0
34,14.0,-245.0,-82.0,0
35,17.0,-245.0,-84.0,0
36,15.0,-245.0,-86.0,0
37,4.0,-240.0,-61.0,0
38,15.0,-242.0,-84.0,0
39,16.0,-243.0,-87.0,0
40,16.0,-242.0,-84.0,0
41,14.0,-242.0,-83.0,0
42,15.0,-244.0,-85.0,0
43,16.0,-241.0,-87.0,0
44,14.0,-244.0,-89.0,0
45,11.0,-242.0,-88.0,0
46,14.0,-240.0,-86.0,0
47,9.0,-241.0,-83.0,0
48,11.0,-244.0,-79.0,0
49,14.0,-241.0,-84.0,0
50,15.0,-242.0,-89.0,0
51,16.0,-242.0,-84.0,0
52,13.0,-241.0,-84.0,0
53,12.0,-244.0,-80.0,0
54,15.0,-244.0,-84.0,0
55,12.0,-247.0,-84.0,0
56,11.0,-244.0,-88.0,0
57,14.0,-245.0,-80.0,0
58,11.0,-238.0,-87.0,0
59,10.0,-239.0,-80.0,0
60,13.0,-245.0,-85.0,0
61,13.0,-243.0,-85.0,0
62,13.0,-242.0,-84.0,0
63,15.0,-244.0,-87.0,0
64,14.0,-241.0,-88.0,0
65,14.0,-242.0,-84.0,0
66,13.0,-241.0,-88.0,0
67,14.0,-239.0,-83.0,0
68,16.0,-242.0,-80.0,0
69,18.0,-243.0,-82.0,0
70,14.0,-241.0,-89.0,0
71,28.0,-231.0,-107.0,0
72,15.0,-239.0,-92.0,0
73,19.0,-242.0,-92.0,0
74,15.0,-243.0,-89.0,0
75,22.0,-244.0,-90.0,0
76,18.0,-242.0,-88.0,0
77,18.0,-244.0,-89.0,0
78,15.0,-244.0,-85.0,0
79,17.0,-243.0,-87.0,0
80,19.0,-243.0,-84.0,0
81,27.0,-236.0,-103.0,0
82,18.0,-243.0,-90.0,0
83,21.0,-245.0,-90.0,0
84,19.0,-246.0,-87.0,0
85,19.0,-241.0,-89.0,0
86,19.0,-245.0,-87.0,0
87,20.0,-242.0,-90.0,0
88,18.0,-242.0,-94.0,0
89,19.0,-243.0,-89.0,0
90,19.0,-241.0,-85.0,0
91,18.0,-241.0,-91.0,0
92,24.0,-250.0,-90.0,0
93,17.0,-242.0,-83.0,0
94,17.0,-240.0,-87.0,0
95,19.0,-241.0,-85.0,0
96,16.0,-242.0,-84.0,0
97,18.0,-244.0,-87.0,0
98,18.0,-244.0,-87.0,0
99,12.0,-241.0,-87.0,0
100,16.0,-241.0,-84.0,0
101,15.0,-240.0,-86.0,0
102,20.0,-242.0,-84.0,0
103,7.0,-244.0,-83.0,0
104,17.0,-243.0,-87.0,0
105,16.0,-243.0,-85.0,0
106,17.0,-248.0,-82.0,0
107,15.0,-242.0,-86.0,0
108,15.0,-243.0,-86.0,0
109,14.0,-244.0,-87.0,0
110,13.0,-241.0,-84.0,0
111,14.0,-243.0,-85.0,0
112,11.0,-245.0,-82.0,0
113,5.0,-245.0,-92.0,0
114,9.0,-245.0,-85.0,0
115,10.0,-245.0,-85.0,0
116,9.0,-245.0,-87.0,0
117,10.0,-245.0,-85.0,0
118,8.0,-244.0,-88.0,0
119,9.0,-242.0,-86.0,0
120,7.0,-246.0,-84.0,0
121,7.0,-247.0,-84.0,0
122,7.0,-244.0,-85.0,0
123,9.0,-244.0,-83.0,0
124,26.0,-246.0,-88.0,0
125,11.0,-247.0,-84.0,0
126,8.0,-245.0,-85.0,0
127,10.0,-244.0,-84.0,0
128,11.0,-244.0,-85.0,0
129,9.0,-242.0,-84.0,0
130,10.0,-242.0,-88.0,0
131,9.0,-242.0,-84.0,0
132,12.0,-241.0,-88.0,0
133,8.0,-237.0,-87.0,0
134,3.0,-234.0,-89.0,0
135,10.0,-241.0,-92.0,0
136,6.0,-237.0,-85.0,0
137,8.0,-236.0,-87.0,0
138,9.0,-239.0,-87.0,0
139,9.0,-244.0,-84.0,0
140,10.0,-240.0,-85.0,0
141,8.0,-238.0,-85.0,0
142,5.0,-239.0,-83.0,0
143,7.0,-239.0,-86.0,0
144,9.0,-239.0,-90.0,0
145,11.0,-236.0,-89.0,0
146,1.0,-242.0,-69.0,0
147,8.0,-241.0,-83.0,0
148,10.0,-243.0,-79.0,0
149,11.0,-247.0,-84.0,0
150,11.0,-246.0,-85.0,0
151,11.0,-249.0,-90.0,0
152,15.0,-246.0,-87.0,0
153,11.0,-245.0,-84.0,0
154,10.0,-246.0,-88.0,0
155,15.0,-243.0,-91.0,0
156,5.0,-241.0,-87.0,0
157,20.0,-251.0,-76.0,0
158,9.0,-244.0,-85.0,0
159,10.0,-245.0,-87.0,0
160,10.0,-240.0,-82.0,0
161,9.0,-243.0,-89.0,0
162,10.0,-242.0,-86.0,0
163,10.0,-245.0,-87.0,0
164,12.0,-247.0,-87.0,0
165,11.0,-244.0,-84.0,0
166,10.0,-240.0,-88.0,0
167,13.0,-245.0,-87.0,0
168,14.0,-235.0,-101.0,0
169,14.0,-243.0,-86.0,0
170,14.0,-242.0,-89.0,0
171,13.0,-242.0,-85.0,0
172,13.0,-244.0,-85.0,0
173,17.0,-244.0,-87.0,0
174,16.0,-245.0,-87.0,0
175,9.0,-243.0,-86.0,0
176,15.0,-248.0,-87.0,0
177,12.0,-244.0,-89.0,0
178,16.0,-244.0,-86.0,0
179,21.0,-240.0,-93.0,0
180,16.0,-247.0,-85.0,0
181,13.0,-245.0,-86.0,0
182,15.0,-244.0,-89.0,0
183,14.0,-244.0,-89.0,0
184,17.0,-244.0,-85.0,0
185,15.0,-241.0,-89.0,0
186,19.0,-244.0,-89.0,0
187,16.0,-245.0,-90.0,0
188,17.0,-244.0,-92.0,0
189,17.0,-241.0,-85.0,0
190,20.0,-237.0,-101.0,0
191,15.0,-241.0,-93.0,0
192,15.0,-242.0,-87.0,0
193,17.0,-241.0,-88.0,0
194,17.0,-243.0,-88.0,0
195,16.0,-243.0,-87.0,0
196,17.0,-244.0,-86.0,0
197,20.0,-243.0,-84.0,0
198,19.0,-245.0,-83.0,0
199,16.0,-242.0,-87.0,0
200,18.0,-243.0,-87.0,0
201,9.0,-245.0,-87.0,0
202,15.0,-242.0,-87.0,0
203,16.0,-241.0,-84.0,0
204,16.0,-241.0,-84.0,0
205,15.0,-241.0,-85.0,0
206,15.0,-242.0,-86.0,0
207,20.0,-239.0,-90.0,0
208,15.0,-244.0,-81.0,0
209,17.0,-240.0,-85.0,0
210,17.0,-245.0,-85.0,0
211,10.0,-240.0,-105.0,0
212,20.0,-242.0,-85.0,0
213,19.0,-242.0,-86.0,0
214,14.0,-243.0,-87.0,0
215,16.0,-243.0,-92.0,0
216,17.0,-244.0,-92.0,0
217,16.0,-244.0,-93.0,0
218,16.0,-243.0,-85.0,0
219,16.0,-242.0,-90.0,0
220,16.0,-244.0,-89.0,0
221,12.0,-245.0,-92.0,0
222,13.0,-247.0,-82.0,0
223,12.0,-241.0,-91.0,0
224,11.0,-241.0,-91.0,0
225,13.0,-242.0,-88.0,0
226,14.0,-243.0,-92.0,0
227,9.0,-242.0,-90.0,0
228,10.0,-241.0,-94.0,0
229,10.0,-243.0,-96.0,0
230,7.0,-243.0,-92.0,0
231,12.0,-242.0,-94.0,0
232,14.0,-243.0,-92.0,0
233,5.0,-239.0,-106.0,0
234,7.0,-240.0,-92.0,0
235,7.0,-242.0,-96.0,0
236,8.0,-240.0,-96.0,0
237,7.0,-241.0,-94.0,0
238,7.0,-242.0,-89.0,0
239,8.0,-244.0,-95.0,0
240,8.0,-241.0,-90.0,0
241,11.0,-240.0,-88.0,0
242,7.0,-242.0,-93.0,0
243,7.0,-243.0,-91.0,0
244,16.0,-256.0,-79.0,0
245,8.0,-243.0,-93.0,0
246,7.0,-244.0,-92.0,0
247,7.0,-241.0,-95.0,0
248,7.0,-242.0,-93.0,0
249,6.0,-242.0,-92.0,0
250,6.0,-240.0,-90.0,0
251,7.0,-240.0,-91.0,0
252,8.0,-241.0,-92.0,0
253,9.0,-242.0,-93.0,0
254,4.0,-243.0,-91.0,0
255,10.0,-229.0,-97.0,0
256,10.0,-241.0,-92.0,0
257,9.0,-243.0,-93.0,0
258,13.0,-242.0,-94.0,0
259,12.0,-240.0,-92.0,0
260,10.0,-241.0,-92.0,0
261,11.0,-239.0,-93.0,0
262,13.0,-237.0,-91.0,0
263,11.0,-242.0,-94.0,0
264,13.0,-240.0,-93.0,0
265,16.0,-241.0,-90.0,0
266,21.0,-245.0,-85.0,0
267,12.0,-241.0,-92.0,0
268,12.0,-239.0,-90.0,0
269,12.0,-242.0,-92.0,0
270,15.0,-241.0,-91.0,0
271,13.0,-240.0,-88.0,0
272,16.0,-243.0,-87.0,0
273,13.0,-242.0,-92.0,0
274,10.0,-241.0,-89.0,0
275,13.0,-241.0,-88.0,0
276,16.0,-246.0,-95.0,0
277,7.0,-237.0,-89.0,0
278,15.0,-241.0,-94.0,0
279,13.0,-238.0,-90.0,0
280,13.0,-238.0,-96.0,0
281,15.0,-241.0,-93.0,0
282,13.0,-238.0,-95.0,0
283,15.0,-242.0,-91.0,0
284,17.0,-241.0,-92.0,0
285,14.0,-242.0,-95.0,0
286,16.0,-243.0,-92.0,0
287,15.0,-241.0,-94.0,0
288,7.0,-236.0,-112.0,0
289,15.0,-242.0,-94.0,0
290,14.0,-241.0,-94.0,0
291,14.0,-239.0,-91.0,0
292,14.0,-242.0,-94.0,0
293,16.0,-240.0,-94.0,0
294,15.0,-237.0,-95.0,0
295,15.0,-239.0,-96.0,0
296,12.0,-241.0,-97.0,0
297,16.0,-233.0,-89.0,0
298,14.0,-236.0,-94.0,0
299,15.0,-229.0,-101.0,0
300,14.0,-234.0,-90.0,0
301,17.0,-238.0,-92.0,0
302,18.0,-239.0,-94.0,0
303,14.0,-238.0,-89.0,0
304,15.0,-240.0,-90.0,0
305,18.0,-239.0,-92.0,0
306,12.0,-240.0,-93.0,0
307,16.0,-244.0,-97.0,0
308,14.0,-239.0,-92.0,0
309,14.0,-241.0,-94.0,0
310,15.0,-257.0,-87.0,0
311,18.0,-242.0,-96.0,0
312,14.0,-242.0,-95.0,0
313,17.0,-240.0,-95.0,0
314,14.0,-237.0,-94.0,0
315,15.0,-241.0,-98.0,0
316,17.0,-239.0,-98.0,0
317,14.0,-238.0,-96.0,0
318,14.0,-241.0,-100.0,0
319,11.0,-238.0,-100.0,0
320,4.0,-241.0,-87.0,0
321,13.0,-241.0,-98.0,0
322,12.0,-239.0,-97.0,0
323,13.0,-236.0,-93.0,0
324,12.0,-239.0,-99.0,0
325,13.0,-240.0,-98.0,0
326,12.0,-238.0,-92.0,0
327,16.0,-241.0,-96.0,0
328,13.0,-239.0,-99.0,0
329,13.0,-239.0,-100.0,0
330,15.0,-243.0,-102.0,0
331,20.0,-241.0,-92.0,0
332,15.0,-243.0,-92.0,0
333,13.0,-241.0,-98.0,0
334,12.0,-241.0,-95.0,0
335,13.0,-239.0,-94.0,0
336,11.0,-241.0,-97.0,0
337,12.0,-238.0,-94.0,0
338,11.0,-239.0,-96.0,0
339,12.0,-242.0,-95.0,0
340,11.0,-240.0,-96.0,0
341,16.0,-239.0,-91.0,0
342,19.0,-238.0,-106.0,0
343,14.0,-240.0,-97.0,0
344,15.0,-242.0,-93.0,0
345,12.0,-240.0,-95.0,0
346,12.0,-244.0,-95.0,0
347,10.0,-237.0,-96.0,0
348,12.0,-242.0,-98.0,0
349,14.0,-241.0,-98.0,0
350,15.0,-239.0,-100.0,0
351,16.0,-244.0,-95.0,0
352,13.0,-229.0,-99.0,0
353,10.0,-240.0,-94.0,0
354,14.0,-240.0,-99.0,0
355,15.0,-240.0,-95.0,0
356,14.0,-238.0,-96.0,0
357,14.0,-239.0,-98.0,0
358,14.0,-240.0,-98.0,0
359,14.0,-240.0,-98.0,0
360,11.0,-239.0,-99.0,0
361,15.0,-241.0,-97.0,0
362,17.0,-239.0,-94.0,0
363,16.0,-236.0,-95.0,0
364,21.0,-242.0,-97.0,0
365,9.0,-238.0,-99.0,0
366,17.0,-239.0,-94.0,0
367,18.0,-241.0,-97.0,0
368,17.0,-238.0,-92.0,0
369,18.0,-241.0,-96.0,0
370,15.0,-237.0,-98.0,0
371,15.0,-240.0,-97.0,0
372,18.0,-241.0,-95.0,0
373,16.0,-242.0,-100.0,0
374,15.0,-237.0,-98.0,0
375,15.0,-249.0,-91.0,0
376,16.0,-239.0,-94.0,0
377,16.0,-239.0,-93.0,0
378,15.0,-240.0,-96.0,0
379,14.0,-238.0,-97.0,0
380,12.0,-238.0,-97.0,0
381,14.0,-238.0,-93.0,0
382,16.0,-240.0,-97.0,0
383,12.0,-240.0,-103.0,0
384,13.0,-240.0,-98.0,0
385,13.0,-238.0,-98.0,0
386,10.0,-236.0,-102.0,0
387,13.0,-241.0,-99.0,0
388,15.0,-244.0,-103.0,0
389,16.0,-243.0,-97.0,0
390,12.0,-242.0,-99.0,0
391,11.0,-242.0,-97.0,0
392,12.0,-243.0,-101.0,0
393,11.0,-241.0,-99.0,0
394,9.0,-240.0,-95.0,0
395,14.0,-239.0,-99.0,0
396,14.0,-243.0,-103.0,0
397,14.0,-233.0,-111.0,0
398,14.0,-238.0,-98.0,0
399,9.0,-239.0,-95.0,0
400,11.0,-239.0,-101.0,0
401,11.0,-238.0,-95.0,0
402,11.0,-237.0,-102.0,0
403,13.0,-239.0,-96.0,0
404,9.0,-238.0,-94.0,0
405,14.0,-241.0,-98.0,0
406,12.0,-235.0,-93.0,0
407,13.0,-238.0,-94.0,0
408,14.0,-230.0,-108.0,0
409,9.0,-240.0,-96.0,0
410,11.0,-239.0,-97.0,0
411,13.0,-241.0,-97.0,0
412,11.0,-239.0,-100.0,0
413,11.0,-240.0,-100.0,0
414,8.0,-240.0,-93.0,0
415,14.0,-238.0,-99.0,0
416,11.0,-239.0,-99.0,0
417,8.0,-242.0,-98.0,0
418,12.0,-240.0,-110.0,0
419,10.0,-242.0,-99.0,0
420,10.0,-242.0,-97.0,0
421,12.0,-239.0,-103.0,0
422,9.0,-239.0,-100.0,0
423,11.0,-244.0,-96.0,0
424,8.0,-242.0,-95.0,0
425,8.0,-240.0,-100.0,0
426,10.0,-246.0,-99.0,0
427,11.0,-242.0,-96.0,0
428,11.0,-236.0,-95.0,0
429,14.0,-257.0,-82.0,0
430,13.0,-244.0,-95.0,0
431,12.0,-241.0,-97.0,0
432,10.0,-240.0,-93.0,0
433,11.0,-239.0,-96.0,0
434,11.0,-242.0,-92.0,0
435,10.0,-239.0,-95.0,0
436,9.0,-242.0,-93.0,0
437,13.0,-236.0,-95.0,0
438,10.0,-242.0,-89.0,0
439,16.0,-237.0,-92.0,0
440,12.0,-235.0,-91.0,0
441,11.0,-238.0,-95.0,0
442,15.0,-241.0,-96.0,0
443,12.0,-242.0,-95.0,0
444,15.0,-242.0,-97.0,0
445,13.0,-242.0,-95.0,0
446,12.0,-239.0,-94.0,0
447,13.0,-241.0,-92.0,0
448,17.0,-240.0,-94.0,0
449,15.0,-234.0,-92.0,0
450,12.0,-238.0,-97.0,0
451,6.0,-237.0,-93.0,0
452,15.0,-240.0,-94.0,0
453,13.0,-238.0,-96.0,0
454,12.0,-237.0,-97.0,0
455,12.0,-237.0,-97.0,0
456,11.0,-236.0,-94.0,0
457,11.0,-237.0,-94.0,0
458,12.0,-232.0,-95.0,0
459,14.0,-238.0,-92.0,0
460,17.0,-236.0,-94.0,0
461,14.0,-238.0,-96.0,0
462,21.0,-235.0,-97.0,0
463,18.0,-238.0,-93.0,0
464,15.0,-239.0,-96.0,0
465,14.0,-237.0,-98.0,0
466,12.0,-238.0,-94.0,0
467,15.0,-239.0,-95.0,0
468,14.0,-236.0,-98.0,0
469,12.0,-236.0,-95.0,0
470,14.0,-235.0,-91.0,0
471,14.0,-238.0,-98.0,0
472,13.0,-240.0,-93.0,0
473,19.0,-239.0,-109.0,0
474,15.0,-235.0,-96.0,0
475,15.0,-235.0,-94.0,0
476,14.0,-235.0,-94.0,0
477,14.0,-233.0,-94.0,0
478,15.0,-233.0,-96.0,0
479,15.0,-235.0,-97.0,0
480,13.0,-238.0,-95.0,0
481,15.0,-235.0,-99.0,0
482,14.0,-238.0,-97.0,0
483,16.0,-232.0,-99.0,0
484,8.0,-217.0,-105.0,0
485,10.0,-237.0,-97.0,0
486,15.0,-237.0,-99.0,0
487,12.0,-236.0,-97.0,0
488,13.0,-239.0,-98.0,0
489,13.0,-234.0,-97.0,0
490,12.0,-237.0,-98.0,0
491,16.0,-234.0,-98.0,0
492,12.0,-234.0,-99.0,0
493,10.0,-230.0,-100.0,0
494,12.0,-233.0,-97.0,0
495,10.0,-239.0,-89.0,0
496,13.0,-230.0,-95.0,0
497,11.0,-229.0,-99.0,0
498,10.0,-228.0,-99.0,0
499,8.0,-228.0,-99.0,0
500,10.0,-230.0,-98.0,0
501,9.0,-227.0,-98.0,0
502,10.0,-229.0,-99.0,0
503,10.0,-231.0,-99.0,0
504,10.0,-226.0,-94.0,0
505,12.0,-228.0,-96.0,0
506,8.0,-228.0,-94.0,0
507,9.0,-228.0,-103.0,0
508,8.0,-229.0,-97.0,0
509,12.0,-230.0,-99.0,0
510,12.0,-231.0,-101.0,0
511,10.0,-230.0,-99.0,0
512,12.0,-231.0,-98.0,0
513,11.0,-230.0,-103.0,0
514,9.0,-226.0,-103.0,0
515,10.0,-229.0,-102.0,0
516,8.0,-229.0,-105.0,0
517,12.0,-225.0,-114.0,0
518,7.0,-229.0,-105.0,0
519,9.0,-228.0,-108.0,0
520,10.0,-233.0,-104.0,0
521,9.0,-227.0,-109.0,0
522,9.0,-227.0,-104.0,0
523,8.0,-223.0,-107.0,0
524,7.0,-224.0,-114.0,0
525,13.0,-224.0,-108.0,0
526,13.0,-232.0,-107.0,0
527,5.0,-219.0,-104.0,0
528,14.0,-220.0,-107.0,0
529,15.0,-221.0,-107.0,0
530,14.0,-221.0,-104.0,0
531,18.0,-219.0,-107.0,0
532,18.0,-221.0,-111.0,0
533,15.0,-221.0,-107.0,0
534,17.0,-217.0,-109.0,0
535,17.0,-217.0,-110.0,0
536,13.0,-223.0,-104.0,0
537,13.0,-220.0,-111.0,0
538,16.0,-230.0,-93.0,0
539,8.0,-217.0,-105.0,0
540,9.0,-218.0,-106.0,0
541,8.0,-222.0,-108.0,0
542,8.0,-216.0,-111.0,0
543,10.0,-217.0,-108.0,0
544,10.0,-216.0,-112.0,0
545,13.0,-215.0,-113.0,0
546,14.0,-212.0,-118.0,0
547,17.0,-210.0,-116.0,0
548,13.0,-211.0,-118.0,0
549,26.0,-204.0,-123.0,0
550,20.0,-209.0,-118.0,0
551,20.0,-209.0,-118.0,0
552,22.0,-208.0,-117.0,0
553,19.0,-209.0,-115.0,0
554,16.0,-208.0,-109.0,0
555,14.0,-209.0,-115.0,0
556,16.0,-211.0,-117.0,0
557,12.0,-217.0,-113.0,0
558,7.0,-210.0,-112.0,0
559,13.0,-218.0,-114.0,0
560,10.0,-224.0,-103.0,0
561,7.0,-216.0,-121.0,0
562,3.0,-215.0,-123.0,0
563,1.0,-214.0,-123.0,0
564,-1.0,-213.0,-123.0,0
565,2.0,-215.0,-129.0,0
566,-3.0,-213.0,-129.0,0
567,3.0,-211.0,-129.0,0
568,1.0,-212.0,-131.0,0
569,0.0,-206.0,-128.0,0
570,2.0,-206.0,-131.0,0
571,12.0,-204.0,-123.0,0
572,5.0,-208.0,-130.0,0
573,8.0,-203.0,-130.0,0
574,8.0,-203.0,-129.0,0
575,10.0,-203.0,-129.0,0
576,12.0,-202.0,-128.0,0
577,11.0,-203.0,-126.0,0
578,7.0,-203.0,-128.0,0
579,8.0,-204.0,-126.0,0
580,11.0,-206.0,-127.0,0
581,4.0,-202.0,-130.0,0
582,9.0,-190.0,-136.0,0
583,6.0,-201.0,-130.0,0
584,4.0,-198.0,-129.0,0
585,4.0,-199.0,-134.0,0
586,5.0,-200.0,-132.0,0
587,6.0,-197.0,-133.0,0
588,3.0,-196.0,-130.0,0
589,8.0,-193.0,-127.0,0
590,5.0,-194.0,-132.0,0
591,6.0,-194.0,-131.0,0
592,8.0,-193.0,-133.0,0
593,13.0,-190.0,-140.0,0
594,9.0,-194.0,-136.0,0
595,14.0,-195.0,-135.0,0
596,14.0,-196.0,-136.0,0
597,13.0,-195.0,-139.0,0
598,13.0,-197.0,-136.0,0
599,14.0,-199.0,-140.0,0
600,14.0,-198.0,-148.0,0
601,12.0,-205.0,-140.0,0
602,1.0,-202.0,-146.0,0
603,12.0,-205.0,-143.0,0
604,12.0,-208.0,-138.0,0
605,15.0,-211.0,-143.0,0
606,11.0,-208.0,-149.0,0
607,11.0,-207.0,-148.0,0
608,13.0,-207.0,-150.0,0
609,9.0,-207.0,-149.0,0
610,8.0,-204.0,-156.0,0
611,9.0,-201.0,-152.0,0
612,8.0,-202.0,-154.0,0
613,9.0,-205.0,-157.0,0
614,5.0,-200.0,-155.0,0
615,5.0,-198.0,-159.0,0
616,5.0,-200.0,-156.0,0
617,8.0,-201.0,-158.0,0
618,5.0,-199.0,-158.0,0
619,3.0,-194.0,-157.0,0
620,5.0,-193.0,-160.0,0
621,8.0,-192.0,-159.0,0
622,5.0,-189.0,-162.0,0
623,4.0,-187.0,-159.0,0
624,1.0,-182.0,-155.0,0
625,-6.0,-187.0,-162.0,0
626,-2.0,-191.0,-162.0,0
627,-7.0,-193.0,-159.0,0
628,-8.0,-201.0,-163.0,0
629,-9.0,-196.0,-162.0,0
630,-14.0,-195.0,-165.0,0
631,-11.0,-198.0,-163.0,0
632,-17.0,-201.0,-170.0,0
633,-12.0,-200.0,-169.0,0
634,-13.0,-195.0,-171.0,0
635,-12.0,-193.0,-169.0,0
636,-8.0,-187.0,-176.0,0
637,-3.0,-198.0,-173.0,0
638,-4.0,-198.0,-177.0,0
639,0.0,-197.0,-176.0,0
640,-1.0,-204.0,-177.0,0
641,2.0,-198.0,-177.0,0
642,5.0,-195.0,-177.0,0
643,14.0,-204.0,-179.0,0
644,11.0,-198.0,-181.0,0
645,14.0,-192.0,-186.0,0
646,11.0,-195.0,-183.0,0
647,14.0,-203.0,-177.0,0
648,14.0,-197.0,-185.0,0
649,13.0,-192.0,-190.0,0
650,15.0,-192.0,-185.0,0
651,11.0,-194.0,-186.0,0
652,16.0,-190.0,-188.0,0
653,9.0,-187.0,-190.0,0
654,7.0,-187.0,-191.0,0
655,13.0,-190.0,-192.0,0
656,11.0,-186.0,-196.0,0
657,7.0,-187.0,-193.0,0
658,3.0,-184.0,-187.0,0
659,-1.0,-186.0,-210.0,0
660,2.0,-186.0,-206.0,0
661,-2.0,-187.0,-207.0,0
662,1.0,-207.0,-217.0,0
663,-2.0,-212.0,-215.0,0
664,-5.0,-223.0,-208.0,0
665,-7.0,-219.0,-208.0,0
666,3.0,-248.0,-198.0,0
667,3.0,-231.0,-210.0,0
668,7.0,-215.0,-220.0,0
669,12.0,-199.0,-234.0,0
670,7.0,-199.0,-222.0,0
671,3.0,-190.0,-219.0,0
672,6.0,-185.0,-218.0,0
673,7.0,-185.0,-214.0,0
674,6.0,-183.0,-209.0,0
675,4.0,-181.0,-205.0,0
676,2.0,-176.0,-207.0,0
677,-2.0,-180.0,-201.0,0
678,1.0,-176.0,-199.0,0
679,-2.0,-177.0,-197.0,0
680,-4.0,-176.0,-220.0,0
681,-1.0,-180.0,-196.0,0
682,-3.0,-178.0,-198.0,0
683,-5.0,-174.0,-192.0,0
684,-4.0,-174.0,-196.0,0
685,-5.0,-174.0,-196.0,0
686,-5.0,-178.0,-196.0,0
687,-2.0,-171.0,-192.0,0
688,-1.0,-169.0,-196.0,0
689,-5.0,-168.0,-192.0,0
690,-7.0,-168.0,-196.0,0
691,1.0,-165.0,-199.0,0
692,-1.0,-170.0,-196.0,0
693,-9.0,-169.0,-195.0,0
694,-7.0,-164.0,-195.0,0
695,-6.0,-170.0,-198.0,0
696,-9.0,-174.0,-200.0,0
697,-7.0,-169.0,-202.0,0
698,-2.0,-169.0,-204.0,0
699,-11.0,-175.0,-199.0,0
700,-6.0,-181.0,-201.0,0
701,-7.0,-178.0,-206.0,0
702,-2.0,-196.0,-193.0,0
703,-3.0,-184.0,-205.0,0
704,-5.0,-186.0,-205.0,0
705,0.0,-183.0,-209.0,0
706,2.0,-182.0,-208.0,0
707,2.0,-184.0,-213.0,0
708,1.0,-189.0,-212.0,0
709,-1.0,-189.0,-211.0,0
710,1.0,-187.0,-212.0,0
711,0.0,-192.0,-213.0,0
712,1.0,-188.0,-209.0,0
713,-5.0,-183.0,-213.0,0
714,6.0,-182.0,-213.0,0
715,-1.0,-194.0,-214.0,0
716,-11.0,-195.0,-200.0,0
717,-7.0,-191.0,-218.0,0
718,-4.0,-183.0,-215.0,0
719,-4.0,-187.0,-215.0,0
720,-5.0,-190.0,-213.0,0
721,-2.0,-193.0,-219.0,0
722,-6.0,-195.0,-210.0,0
723,7.0,-182.0,-230.0,0
724,-9.0,-189.0,-214.0,0
725,-8.0,-190.0,-220.0,0
726,-10.0,-189.0,-214.0,0
727,-12.0,-192.0,-216.0,0
728,-10.0,-192.0,-217.0,0
729,-11.0,-191.0,-218.0,0
730,-10.0,-192.0,-219.0,0
731,-13.0,-190.0,-217.0,0
732,-8.0,-189.0,-219.0,0
733,-8.0,-185.0,-221.0,0
734,-10.0,-187.0,-214.0,0
735,-10.0,-186.0,-215.0,0
736,-3.0,-185.0,-220.0,0
737,-4.0,-184.0,-213.0,0
738,-4.0,-185.0,-214.0,0
739,-5.0,-181.0,-209.0,0
740,-2.0,-183.0,-214.0,0
741,-9.0,-183.0,-211.0,0
742,-5.0,-183.0,-206.0,0
743,-12.0,-179.0,-204.0,0
744,-8.0,-180.0,-201.0,0
745,-24.0,-188.0,-200.0,0
746,-5.0,-185.0,-203.0,0
747,-11.0,-184.0,-204.0,0
748,-11.0,-184.0,-203.0,0
749,-12.0,-183.0,-197.0,0
750,-8.0,-181.0,-201.0,0
751,-13.0,-182.0,-202.0,0
752,-12.0,-182.0,-204.0,0
753,-12.0,-179.0,-205.0,0
754,-11.0,-182.0,-203.0,0
755,-11.0,-182.0,-207.0,0
756,-7.0,-185.0,-196.0,0
757,-10.0,-184.0,-205.0,0
758,-6.0,-189.0,-209.0,0
759,-7.0,-189.0,-209.0,0
760,-6.0,-191.0,-213.0,0
761,-6.0,-192.0,-210.0,0
762,-5.0,-193.0,-213.0,0
763,-8.0,-196.0,-210.0,0
764,-6.0,-197.0,-210.0,0
765,-6.0,-198.0,-213.0,0
766,-8.0,-200.0,-216.0,0
767,2.0,-202.0,-212.0,0
768,-7.0,-197.0,-209.0,0
769,-9.0,-201.0,-214.0,0
770,-5.0,-201.0,-210.0,0
771,-7.0,-199.0,-212.0,0
772,-7.0,-200.0,-211.0,0
773,-8.0,-195.0,-213.0,0
774,-9.0,-196.0,-208.0,0
775,-7.0,-197.0,-210.0,0
776,-5.0,-192.0,-210.0,0
777,-4.0,-196.0,-206.0,0
778,-4.0,-187.0,-209.0,0
779,-5.0,-192.0,-209.0,0
780,-6.0,-191.0,-205.0,0
781,-10.0,-192.0,-206.0,0
782,-8.0,-191.0,-202.0,0
783,-10.0,-189.0,-204.0,0
784,-11.0,-192.0,-206.0,0
785,-11.0,-189.0,-204.0,0
786,-10.0,-189.0,-206.0,0
787,-12.0,-193.0,-203.0,0
788,-10.0,-194.0,-195.0,0
789,-12.0,-200.0,-196.0,0
790,-14.0,-195.0,-196.0,0
791,-12.0,-193.0,-197.0,0
792,-14.0,-192.0,-196.0,0
793,-14.0,-194.0,-197.0,0
794,-14.0,-195.0,-198.0,0
795,-14.0,-196.0,-196.0,0
796,-13.0,-193.0,-199.0,0
797,-12.0,-192.0,-197.0,0
798,-11.0,-193.0,-200.0,0
799,-12.0,-193.0,-196.0,0
800,-9.0,-188.0,-198.0,0
801,-13.0,-192.0,-196.0,0
802,-15.0,-193.0,-194.0,0
803,-13.0,-197.0,-192.0,0
804,-14.0,-196.0,-193.0,0
805,-12.0,-196.0,-192.0,0
806,-12.0,-196.0,-193.0,0
807,-8.0,-200.0,-191.0,0
808,-5.0,-198.0,-192.0,0
809,-9.0,-197.0,-187.0,0
810,-4.0,-198.0,-186.0,0
811,3.0,-202.0,-186.0,0
812,-4.0,-196.0,-188.0,0
813,-1.0,-199.0,-188.0,0
814,-2.0,-197.0,-188.0,0
815,-2.0,-197.0,-189.0,0
816,-2.0,-197.0,-184.0,0
817,-4.0,-196.0,-182.0,0
818,-3.0,-193.0,-186.0,0
819,-8.0,-195.0,-183.0,0
820,-7.0,-194.0,-185.0,0
821,-12.0,-191.0,-188.0,0
822,-5.0,-182.0,-193.0,0
823,-13.0,-193.0,-182.0,0
824,-10.0,-194.0,-180.0,0
825,-15.0,-193.0,-179.0,0
826,-14.0,-193.0,-179.0,0
827,-15.0,-192.0,-174.0,0
828,-12.0,-196.0,-180.0,0
829,-14.0,-193.0,-178.0,0
830,-13.0,-196.0,-176.0,0
831,-14.0,-192.0,-174.0,0
832,0.0,-191.0,-183.0,0
833,-10.0,-193.0,-173.0,0
834,-12.0,-193.0,-171.0,0
835,-10.0,-193.0,-172.0,0
836,-7.0,-192.0,-169.0,0
837,-7.0,-191.0,-166.0,0
838,-5.0,-192.0,-170.0,0
839,-8.0,-191.0,-169.0,0
840,-4.0,-194.0,-173.0,0
841,-3.0,-192.0,-168.0,0
842,-8.0,-194.0,-173.0,0
843,-6.0,-202.0,-157.0,0
844,-7.0,-196.0,-175.0,0
845,-11.0,-193.0,-171.0,0
846,-11.0,-195.0,-172.0,0
847,-11.0,-190.0,-172.0,0
848,-13.0,-191.0,-171.0,0
849,-13.0,-190.0,-172.0,0
850,-12.0,-190.0,-171.0,0
851,-14.0,-187.0,-171.0,0
852,-12.0,-188.0,-172.0,0
853,-10.0,-189.0,-171.0,0
854,-9.0,-198.0,-157.0,0
855,-7.0,-190.0,-167.0,0
856,-10.0,-190.0,-176.0,0
857,-6.0,-195.0,-177.0,0
858,-6.0,-193.0,-176.0,0
859,-3.0,-197.0,-175.0,0
860,-4.0,-196.0,-181.0,0
861,-5.0,-197.0,-176.0,0
862,-3.0,-193.0,-179.0,0
863,-10.0,-199.0,-172.0,0
864,-5.0,-198.0,-176.0,0
865,-13.0,-196.0,-173.0,0
866,-7.0,-198.0,-172.0,0
867,-7.0,-197.0,-173.0,0
868,-10.0,-198.0,-176.0,0
869,-13.0,-195.0,-177.0,0
870,-13.0,-197.0,-175.0,0
871,-15.0,-198.0,-179.0,0
872,-14.0,-198.0,-180.0,0
873,-15.0,-197.0,-182.0,0
874,-12.0,-196.0,-187.0,0
875,-14.0,-199.0,-181.0,0
876,-17.0,-195.0,-172.0,0
877,-15.0,-195.0,-184.0,0
878,-14.0,-193.0,-180.0,0
879,-14.0,-193.0,-181.0,0
880,-13.0,-193.0,-184.0,0
881,-14.0,-192.0,-179.0,0
882,-13.0,-194.0,-179.0,0
883,-10.0,-195.0,-181.0,0
884,-9.0,-198.0,-180.0,0
885,-8.0,-200.0,-180.0,0
886,-10.0,-199.0,-177.0,0
887,-3.0,-202.0,-185.0,0
888,-7.0,-205.0,-184.0,0
889,-6.0,-206.0,-178.0,0
890,-4.0,-205.0,-180.0,0
891,-7.0,-202.0,-182.0,0
892,-8.0,-203.0,-177.0,0
893,-9.0,-203.0,-175.0,0
894,-13.0,-197.0,-178.0,0
895,-13.0,-201.0,-180.0,0
896,-12.0,-198.0,-180.0,0
897,-12.0,-195.0,-181.0,0
898,-13.0,-191.0,-189.0,0
899,-16.0,-196.0,-183.0,0
900,-13.0,-198.0,-181.0,0
901,-11.0,-198.0,-177.0,0
902,-7.0,-196.0,-181.0,0
903,-8.0,-197.0,-180.0,0
904,-10.0,-196.0,-183.0,0
905,-7.0,-197.0,-182.0,0
906,-10.0,-197.0,-180.0,0
907,-14.0,-200.0,-183.0,0
908,-14.0,-199.0,-176.0,0
909,-12.0,-203.0,-173.0,0
910,-16.0,-201.0,-174.0,0
911,-16.0,-200.0,-170.0,0
912,-16.0,-202.0,-168.0,0
913,-15.0,-201.0,-173.0,0
914,-16.0,-206.0,-171.0,0
915,-11.0,-209.0,-169.0,0
916,-12.0,-205.0,-173.0,0
917,-11.0,-207.0,-171.0,0
918,-12.0,-204.0,-168.0,0
919,-10.0,-202.0,-167.0,0
920,0.0,-197.0,-166.0,0
921,-7.0,-199.0,-168.0,0
922,-8.0,-200.0,-164.0,0
923,-11.0,-195.0,-166.0,0
924,-10.0,-198.0,-168.0,0
925,-9.0,-195.0,-170.0,0
926,-8.0,-196.0,-168.0,0
927,-11.0,-195.0,-168.0,0
928,-8.0,-193.0,-174.0,0
929,-14.0,-195.0,-167.0,0
930,-8.0,-186.0,-177.0,0
931,-10.0,-198.0,-173.0,0
932,-10.0,-198.0,-176.0,0
933,-12.0,-197.0,-176.0,0
934,-12.0,-196.0,-173.0,0
935,-12.0,-196.0,-178.0,0
936,-10.0,-197.0,-177.0,0
937,-10.0,-198.0,-177.0,0
938,-11.0,-197.0,-180.0,0
939,-7.0,-197.0,-178.0,0
940,-6.0,-192.0,-183.0,0
941,-3.0,-204.0,-177.0,0
942,-13.0,-191.0,-177.0,0
943,-12.0,-192.0,-181.0,0
944,-11.0,-189.0,-178.0,0
945,-10.0,-190.0,-175.0,0
946,-9.0,-190.0,-180.0,0
947,-11.0,-189.0,-175.0,0
948,-9.0,-193.0,-177.0,0
949,-13.0,-190.0,-178.0,0
950,-14.0,-194.0,-178.0,0
951,-11.0,-197.0,-179.0,0
952,-10.0,-190.0,-186.0,0
953,-11.0,-200.0,-181.0,0
954,-10.0,-200.0,-179.0,0
955,-11.0,-202.0,-182.0,0
956,-10.0,-203.0,-182.0,0
957,-10.0,-206.0,-185.0,0
958,-11.0,-208.0,-182.0,0
959,-12.0,-210.0,-178.0,0
960,-14.0,-208.0,-182.0,0
961,-16.0,-204.0,-178.0,0
962,-11.0,-204.0,-177.0,0
963,-21.0,-206.0,-177.0,0
964,-12.0,-200.0,-175.0,0
965,-13.0,-202.0,-180.0,0
966,-12.0,-197.0,-172.0,0
967,-13.0,-195.0,-172.0,0
968,-8.0,-194.0,-174.0,0
969,-10.0,-192.0,-169.0,0
970,-10.0,-195.0,-172.0,0
971,-5.0,-192.0,-172.0,0
972,-10.0,-196.0,-167.0,0
973,-8.0,-193.0,-170.0,0
974,-4.0,-203.0,-166.0,0
975,-7.0,-196.0,-174.0,0
976,-6.0,-199.0,-175.0,0
977,-6.0,-203.0,-174.0,0
978,-7.0,-202.0,-173.0,0
979,-8.0,-207.0,-175.0,0
980,-8.0,-209.0,-174.0,0
981,-6.0,-207.0,-178.0,0
982,-13.0,-206.0,-177.0,0
983,-13.0,-207.0,-175.0,0
984,-10.0,-209.0,-175.0,0
985,-20.0,-206.0,-183.0,0
986,-16.0,-205.0,-172.0,0
987,-13.0,-205.0,-171.0,0
988,-12.0,-205.0,-172.0,0
989,-13.0,-201.0,-170.0,0
990,-12.0,-199.0,-171.0,0
991,-12.0,-198.0,-166.0,0
992,-11.0,-195.0,-170.0,0
993,-11.0,-194.0,-170.0,0
994,-12.0,-194.0,-165.0,0
995,-6.0,-200.0,-165.0,0
996,-4.0,-210.0,-159.0,0
997,-6.0,-202.0,-170.0,0
998,-6.0,-198.0,-168.0,0
999,-6.0,-200.0,-171.0,0
1000,-7.0,-202.0,-168.0,0
1001,-3.0,-206.0,-173.0,0
1002,-6.0,-202.0,-172.0,0
1003,-6.0,-204.0,-169.0,0
1004,-8.0,-203.0,-173.0,0
1005,-4.0,-202.0,-168.0,0
1006,-7.0,-199.0,-168.0,0
1007,-7.0,-200.0,-177.0,0
1008,-8.0,-202.0,-177.0,0
1009,-6.0,-202.0,-171.0,0
1010,-13.0,-201.0,-172.0,0
1011,-9.0,-198.0,-169.0,0
1012,-11.0,-201.0,-170.0,0
1013,-12.0,-199.0,-176.0,0
1014,-9.0,-201.0,-172.0,0
1015,-13.0,-198.0,-177.0,0
1016,-8.0,-201.0,-175.0,0
1017,-14.0,-200.0,-174.0,0
1018,-15.0,-196.0,-179.0,0
1019,-9.0,-200.0,-174.0,0
1020,-8.0,-201.0,-172.0,0
1021,-11.0,-199.0,-178.0,0
1022,-11.0,-201.0,-171.0,0
1023,-10.0,-201.0,-172.0,0
1024,-7.0,-204.0,-173.0,0
1025,-5.0,-202.0,-172.0,0
1026,-12.0,-207.0,-169.0,0
1027,-8.0,-204.0,-176.0,0
1028,-7.0,-203.0,-174.0,0
1029,1.0,-209.0,-172.0,0
1030,-7.0,-202.0,-175.0,0
1031,-8.0,-202.0,-176.0,0
1032,-7.0,-203.0,-173.0,0
1033,-9.0,-203.0,-171.0,0
1034,-8.0,-203.0,-170.0,0
1035,-8.0,-203.0,-170.0,0
1036,-5.0,-204.0,-173.0,0
1037,-10.0,-205.0,-169.0,0
1038,-9.0,-202.0,-171.0,0
1039,-5.0,-186.0,-177.0,0
1040,-10.0,-202.0,-172.0,0
1041,-12.0,-200.0,-171.0,0
1042,-10.0,-205.0,-174.0,0
1043,-12.0,-203.0,-173.0,0
1044,-10.0,-204.0,-171.0,0
1045,-11.0,-207.0,-171.0,0
1046,-9.0,-206.0,-171.0,0
1047,-8.0,-207.0,-169.0,0
1048,-6.0,-202.0,-175.0,0
1049,-9.0,-204.0,-174.0,0
1050,-9.0,-202.0,-175.0,0
1051,-9.0,-206.0,-170.0,0
1052,-9.0,-203.0,-170.0,0
1053,-5.0,-208.0,-171.0,0
1054,-8.0,-206.0,-169.0,0
1055,-8.0,-206.0,-168.0,0
1056,-6.0,-206.0,-167.0,0
1057,-7.0,-206.0,-169.0,0
1058,-7.0,-206.0,-166.0,0
1059,-10.0,-207.0,-169.0,0
1060,-11.0,-206.0,-167.0,0
1061,-8.0,-204.0,-163.0,0
1062,5.0,-194.0,-183.0,0
1063,-10.0,-205.0,-168.0,0
1064,-10.0,-202.0,-166.0,0
1065,-9.0,-204.0,-167.0,0
1066,-10.0,-201.0,-163.0,0
1067,-6.0,-203.0,-166.0,0
1068,-5.0,-201.0,-166.0,0
1069,-10.0,-199.0,-165.0,0
1070,-10.0,-201.0,-166.0,0
1071,-8.0,-205.0,-163.0,0
1072,-12.0,-203.0,-166.0,0
1073,-9.0,-205.0,-166.0,0
1074,-8.0,-205.0,-165.0,0
1075,-9.0,-203.0,-168.0,0
1076,-11.0,-203.0,-165.0,0
1077,-12.0,-205.0,-166.0,0
1078,-10.0,-204.0,-163.0,0
1079,-6.0,-202.0,-167.0,0
1080,-8.0,-202.0,-163.0,0
1081,-8.0,-206.0,-164.0,0
1082,-7.0,-202.0,-167.0,0
1083,-10.0,-198.0,-159.0,0
1084,-10.0,-203.0,-164.0,0
1085,-10.0,-203.0,-163.0,0
1086,-8.0,-205.0,-163.0,0
1087,-7.0,-205.0,-161.0,0
1088,-5.0,-202.0,-165.0,0
1089,-10.0,-203.0,-162.0,0
1090,-10.0,-200.0,-164.0,0
1091,-10.0,-203.0,-158.0,0
1092,-8.0,-204.0,-172.0,0
1093,-6.0,-203.0,-162.0,0
1094,-11.0,-204.0,-159.0,0
1095,-11.0,-200.0,-166.0,0
1096,-11.0,-202.0,-164.0,0
1097,-11.0,-200.0,-166.0,0
1098,-8.0,-202.0,-168.0,0
1099,-10.0,-204.0,-164.0,0
1100,-10.0,-200.0,-164.0,0
1101,-7.0,-200.0,-163.0,0
1102,-10.0,-202.0,-167.0,0
1103,-9.0,-207.0,-168.0,0
1104,-8.0,-202.0,-165.0,0
1105,6.0,-189.0,-172.0,0
1106,-9.0,-202.0,-167.0,0
1107,-9.0,-203.0,-166.0,0
1108,-7.0,-205.0,-166.0,0
1109,-10.0,-206.0,-168.0,0
1110,-8.0,-206.0,-162.0,0
1111,-9.0,-204.0,-165.0,0
1112,-9.0,-204.0,-162.0,0
1113,-12.0,-207.0,-167.0,0
1114,-14.0,-208.0,-161.0,0
1115,-6.0,-204.0,-165.0,0
1116,-16.0,-191.0,-170.0,0
1117,-11.0,-203.0,-167.0,0
1118,-8.0,-203.0,-169.0,0
1119,-9.0,-206.0,-171.0,0
1120,-10.0,-201.0,-165.0,0
1121,-10.0,-205.0,-164.0,0
1122,-10.0,-202.0,-163.0,0
1123,-9.0,-203.0,-166.0,0
1124,-11.0,-202.0,-168.0,0
1125,-12.0,-204.0,-168.0,0
1126,-9.0,-206.0,-165.0,0
1127,11.0,-198.0,-177.0,0
1128,-9.0,-205.0,-170.0,0
1129,-8.0,-202.0,-168.0,0
1130,-10.0,-205.0,-166.0,0
1131,-10.0,-202.0,-166.0,0
1132,-10.0,-205.0,-170.0,0
1133,-9.0,-208.0,-165.0,0
1134,-8.0,-208.0,-171.0,0
1135,-9.0,-209.0,-166.0,0
1136,-5.0,-208.0,-168.0,0
1137,-5.0,-204.0,-177.0,0
1138,-9.0,-208.0,-169.0,0
1139,-11.0,-208.0,-166.0,0
1140,-8.0,-208.0,-172.0,0
1141,-9.0,-208.0,-167.0,0
1142,-8.0,-206.0,-166.0,0
1143,-8.0,-208.0,-166.0,0
1144,-12.0,-207.0,-164.0,0
1145,-9.0,-206.0,-166.0,0
1146,-10.0,-205.0,-169.0,0
1147,-11.0,-204.0,-170.0,0
1148,-6.0,-204.0,-160.0,0
1149,-10.0,-208.0,-169.0,0
1150,-9.0,-205.0,-166.0,0
1151,-11.0,-205.0,-164.0,0
1152,-9.0,-206.0,-166.0,0
1153,-9.0,-209.0,-170.0,0
1154,-8.0,-209.0,-170.0,0
1155,-12.0,-205.0,-163.0,0
1156,-10.0,-207.0,-167.0,0
1157,-11.0,-207.0,-167.0,0
1158,-6.0,-209.0,-169.0,0
1159,-4.0,-222.0,-149.0,0
1160,-8.0,-209.0,-170.0,0
1161,-7.0,-208.0,-167.0,0
1162,-8.0,-209.0,-166.0,0
1163,-9.0,-210.0,-164.0,0
1164,-9.0,-210.0,-168.0,0
1165,-8.0,-208.0,-165.0,0
1166,-10.0,-209.0,-168.0,0
1167,-10.0,-209.0,-168.0,0
1168,-10.0,-208.0,-161.0,0
1169,-10.0,-212.0,-164.0,0
1170,0.0,-200.0,-171.0,0
1171,-10.0,-207.0,-167.0,0
1172,-8.0,-207.0,-163.0,0
1173,-10.0,-205.0,-163.0,0
1174,-8.0,-206.0,-161.0,0
1175,-10.0,-206.0,-160.0,0
1176,-8.0,-208.0,-162.0,0
1177,-10.0,-206.0,-165.0,0
1178,-5.0,-207.0,-165.0,0
1179,-5.0,-206.0,-163.0,0
1180,-5.0,-207.0,-163.0,0
1181,5.0,-199.0,-175.0,0
1182,-7.0,-206.0,-161.0,0
1183,-3.0,-209.0,-165.0,0
1184,-3.0,-208.0,-166.0,0
1185,-3.0,-208.0,-163.0,0
1186,-5.0,-204.0,-163.0,0
1187,-6.0,-207.0,-165.0,0
1188,-5.0,-209.0,-164.0,0
1189,-7.0,-208.0,-163.0,0
1190,-10.0,-208.0,-158.0,0
1191,-10.0,-203.0,-163.0,0
1192,-6.0,-204.0,-164.0,0
1193,-6.0,-208.0,-164.0,0
1194,-9.0,-206.0,-165.0,0
1195,-8.0,-209.0,-164.0,0
1196,-8.0,-209.0,-170.0,0
1197,-8.0,-207.0,-171.0,0
1198,-9.0,-210.0,-171.0,0
1199,-6.0,-208.0,-168.0,0
1200,-4.0,-208.0,-172.0,0
1201,-8.0,-210.0,-169.0,0
1202,-9.0,-210.0,-164.0,0
1203,-9.0,-209.0,-180.0,0
1204,-8.0,-211.0,-167.0,0
1205,-6.0,-213.0,-172.0,0
1206,-6.0,-214.0,-166.0,0
1207,-7.0,-213.0,-169.0,0
1208,-6.0,-214.0,-167.0,0
1209,-7.0,-212.0,-174.0,0
1210,-1.0,-211.0,-166.0,0
1211,-6.0,-212.0,-174.0,0
1212,-5.0,-209.0,-171.0,0
1213,2.0,-217.0,-166.0,0
1214,-1.0,-204.0,-167.0,0
1215,-5.0,-213.0,-169.0,0
1216,-3.0,-209.0,-169.0,0
1217,-5.0,-210.0,-166.0,0
1218,-4.0,-211.0,-169.0,0
1219,-7.0,-210.0,-165.0,0
1220,-5.0,-212.0,-169.0,0
1221,-7.0,-210.0,-167.0,0
1222,-10.0,-213.0,-164.0,0
1223,-8.0,-214.0,-162.0,0
1224,-7.0,-210.0,-174.0,0
1225,-1.0,-212.0,-161.0,0
1226,-8.0,-213.0,-171.0,0
1227,-7.0,-210.0,-169.0,0
1228,-6.0,-212.0,-173.0,0
1229,-6.0,-212.0,-172.0,0
1230,-6.0,-213.0,-171.0,0
1231,-5.0,-214.0,-173.0,0
1232,-2.0,-214.0,-175.0,0
1233,-3.0,-213.0,-166.0,0
1234,-3.0,-212.0,-176.0,0
1235,-11.0,-209.0,-169.0,0
1236,-1.0,-216.0,-170.0,0
1237,-5.0,-214.0,-175.0,0
1238,-4.0,-212.0,-173.0,0
1239,-4.0,-215.0,-175.0,0
1240,-4.0,-213.0,-176.0,0
1241,-2.0,-216.0,-171.0,0
1242,-4.0,-219.0,-170.0,0
1243,-4.0,-217.0,-176.0,0
1244,-5.0,-214.0,-180.0,0
1245,-7.0,-215.0,-178.0,0
1246,0.0,-207.0,-185.0,0
1247,-4.0,-221.0,-180.0,0
1248,-5.0,-216.0,-175.0,0
1249,-6.0,-221.0,-174.0,0
1250,-5.0,-220.0,-179.0,0
1251,-6.0,-220.0,-176.0,0
1252,-1.0,-219.0,-175.0,0
1253,-7.0,-222.0,-179.0,0
1254,-5.0,-219.0,-173.0,0
1255,-2.0,-224.0,-175.0,0
1256,-6.0,-219.0,-174.0,0
1257,11.0,-222.0,-181.0,0
1258,-3.0,-218.0,-176.0,0
1259,-3.0,-217.0,-177.0,0
1260,-2.0,-217.0,-174.0,0
1261,-4.0,-218.0,-178.0,0
1262,-1.0,-215.0,-176.0,0
1263,0.0,-218.0,-171.0,0
1264,0.0,-218.0,-178.0,0
1265,-3.0,-217.0,-170.0,0
1266,2.0,-215.0,-171.0,0
1267,-1.0,-217.0,-174.0,0
1268,-2.0,-218.0,-160.0,0
1269,-2.0,-218.0,-177.0,0
1270,-2.0,-217.0,-175.0,0
1271,-2.0,-215.0,-178.0,0
1272,-2.0,-218.0,-178.0,0
1273,-3.0,-214.0,-178.0,0
1274,-5.0,-215.0,-175.0,0
1275,-3.0,-218.0,-175.0,0
1276,-5.0,-221.0,-179.0,0
1277,-1.0,-214.0,-177.0,0
1278,-2.0,-216.0,-175.0,0
1279,5.0,-220.0,-181.0,0
1280,1.0,-218.0,-178.0,0
1281,0.0,-219.0,-177.0,0
1282,-2.0,-215.0,-176.0,0
1283,0.0,-217.0,-176.0,0
1284,1.0,-219.0,-172.0,0
1285,-2.0,-219.0,-175.0,0
1286,-3.0,-216.0,-179.0,0
1287,-2.0,-221.0,-176.0,0
1288,2.0,-219.0,-176.0,0
1289,0.0,-219.0,-177.0,0
1290,0.0,-219.0,-178.0,0
1291,1.0,-219.0,-177.0,0
1292,4.0,-220.0,-177.0,0
1293,5.0,-219.0,-178.0,0
1294,2.0,-220.0,-177.0,0
1295,0.0,-223.0,-178.0,0
1296,0.0,-221.0,-179.0,0
1297,0.0,-220.0,-181.0,0
1298,-2.0,-221.0,-178.0,0
1299,4.0,-218.0,-176.0,0
1300,0.0,-216.0,-179.0,0
1301,3.0,-221.0,-170.0,0
1302,-1.0,-219.0,-176.0,0
1303,2.0,-219.0,-175.0,0
1304,0.0,-215.0,-174.0,0
1305,2.0,-214.0,-177.0,0
1306,4.0,-216.0,-177.0,0
1307,2.0,-213.0,-178.0,0
1308,3.0,-215.0,-173.0,0
1309,0.0,-214.0,-177.0,0
1310,2.0,-216.0,-177.0,0
1311,7.0,-215.0,-173.0,0
1312,5.0,-214.0,-175.0,0
1313,0.0,-215.0,-175.0,0
1314,1.0,-213.0,-176.0,0
1315,2.0,-213.0,-175.0,0
1316,2.0,-213.0,-175.0,0
1317,2.0,-212.0,-173.0,0
1318,3.0,-215.0,-175.0,0
1319,5.0,-215.0,-178.0,0
1320,6.0,-213.0,-170.0,0
1321,1.0,-212.0,-172.0,0
1322,2.0,-212.0,-168.0,0
1323,12.0,-204.0,-179.0,0
1324,6.0,-210.0,-173.0,0
1325,6.0,-213.0,-170.0,0
1326,8.0,-211.0,-171.0,0
1327,7.0,-216.0,-174.0,0
1328,7.0,-210.0,-169.0,0
1329,8.0,-215.0,-175.0,0
1330,2.0,-213.0,-173.0,0
1331,7.0,-214.0,-171.0,0
1332,8.0,-211.0,-174.0,0
1333,10.0,-207.0,-177.0,0
1334,15.0,-210.0,-171.0,0
1335,7.0,-213.0,-172.0,0
1336,7.0,-213.0,-173.0,0
1337,9.0,-214.0,-176.0,0
1338,8.0,-215.0,-169.0,0
1339,10.0,-212.0,-175.0,0
1340,7.0,-213.0,-169.0,0
1341,7.0,-207.0,-165.0,0
1342,2.0,-215.0,-168.0,0
1343,4.0,-210.0,-164.0,0
1344,11.0,-214.0,-168.0,0
1345,8.0,-211.0,-167.0,0
1346,8.0,-210.0,-166.0,0
1347,10.0,-209.0,-164.0,0
1348,12.0,-208.0,-164.0,0
1349,10.0,-209.0,-164.0,0
1350,8.0,-206.0,-167.0,0
1351,8.0,-207.0,-165.0,0
1352,7.0,-207.0,-163.0,0
1353,6.0,-205.0,-167.0,0
1354,13.0,-207.0,-164.0,0
1355,8.0,-203.0,-161.0,0
1356,12.0,-194.0,-176.0,0
1357,9.0,-202.0,-163.0,0
1358,8.0,-201.0,-165.0,0
1359,5.0,-197.0,-161.0,0
1360,7.0,-203.0,-157.0,0
1361,8.0,-198.0,-154.0,0
1362,10.0,-195.0,-157.0,0
1363,9.0,-199.0,-153.0,0
1364,13.0,-201.0,-153.0,0
1365,11.0,-200.0,-157.0,0
1366,9.0,-194.0,-181.0,0
1367,12.0,-195.0,-157.0,0
1368,13.0,-200.0,-155.0,0
1369,12.0,-196.0,-149.0,0
1370,13.0,-198.0,-150.0,0
1371,12.0,-199.0,-150.0,0
1372,10.0,-202.0,-149.0,0
1373,9.0,-202.0,-152.0,0
1374,12.0,-202.0,-152.0,0
1375,7.0,-204.0,-155.0,0
1376,9.0,-204.0,-156.0,0
1377,15.0,-196.0,-165.0,0
1378,5.0,-204.0,-159.0,0
1379,7.0,-206.0,-160.0,0
1380,4.0,-203.0,-157.0,0
1381,8.0,-204.0,-158.0,0
1382,7.0,-206.0,-157.0,0
1383,8.0,-203.0,-161.0,0
1384,10.0,-206.0,-162.0,0
1385,8.0,-203.0,-157.0,0
1386,10.0,-207.0,-162.0,0
1387,10.0,-207.0,-157.0,0
1388,5.0,-198.0,-171.0,0
1389,7.0,-208.0,-158.0,0
1390,8.0,-207.0,-155.0,0
1391,12.0,-211.0,-155.0,0
1392,12.0,-209.0,-158.0,0
1393,13.0,-208.0,-152.0,0
1394,12.0,-209.0,-154.0,0
1395,13.0,-208.0,-156.0,0
1396,14.0,-210.0,-156.0,0
1397,15.0,-209.0,-152.0,0
1398,12.0,-209.0,-157.0,0
1399,14.0,-210.0,-157.0,0
1400,13.0,-210.0,-159.0,0
1401,18.0,-211.0,-155.0,0
1402,16.0,-209.0,-157.0,0
1403,16.0,-207.0,-153.0,0
1404,17.0,-210.0,-154.0,0
1405,21.0,-210.0,-150.0,0
1406,19.0,-213.0,-150.0,0
1407,16.0,-207.0,-155.0,0
1408,15.0,-209.0,-150.0,0
1409,14.0,-208.0,-150.0,0
1410,13.0,-203.0,-159.0,0
1411,9.0,-206.0,-152.0,0
1412,10.0,-205.0,-154.0,0
1413,10.0,-207.0,-154.0,0
1414,11.0,-209.0,-155.0,0
1415,11.0,-209.0,-154.0,0
1416,13.0,-206.0,-160.0,0
1417,11.0,-205.0,-152.0,0
1418,10.0,-206.0,-155.0,0
1419,11.0,-203.0,-151.0,0
1420,11.0,-203.0,-156.0,0
1421,4.0,-203.0,-142.0,0
1422,7.0,-203.0,-151.0,0
1423,5.0,-205.0,-148.0,0
1424,3.0,-205.0,-152.0,0
1425,8.0,-209.0,-147.0,0
1426,6.0,-207.0,-146.0,0
1427,9.0,-209.0,-148.0,0
1428,11.0,-210.0,-148.0,0
1429,8.0,-215.0,-146.0,0
1430,7.0,-210.0,-148.0,0
1431,11.0,-208.0,-144.0,0
1432,4.0,-202.0,-162.0,0
1433,6.0,-210.0,-152.0,0
1434,8.0,-210.0,-151.0,0
1435,7.0,-214.0,-149.0,0
1436,5.0,-213.0,-151.0,0
1437,6.0,-210.0,-144.0,0
1438,6.0,-210.0,-148.0,0
1439,9.0,-208.0,-147.0,0
1440,13.0,-211.0,-139.0,0
1441,11.0,-214.0,-142.0,0
1442,4.0,-209.0,-144.0,0
1443,9.0,-210.0,-141.0,0
1444,5.0,-205.0,-139.0,0
1445,7.0,-208.0,-135.0,0
1446,4.0,-211.0,-140.0,0
1447,6.0,-217.0,-141.0,0
1448,3.0,-209.0,-135.0,0
1449,4.0,-201.0,-133.0,0
1450,2.0,-203.0,-132.0,0
1451,2.0,-201.0,-132.0,0
1452,0.0,-201.0,-135.0,0
1453,6.0,-213.0,-126.0,0
1454,-1.0,-204.0,-132.0,0
1455,3.0,-206.0,-127.0,0
1456,0.0,-203.0,-127.0,0
1457,-4.0,-198.0,-126.0,0
1458,-5.0,-198.0,-124.0,0
1459,-5.0,-200.0,-129.0,0
1460,-7.0,-202.0,-125.0,0
1461,-5.0,-199.0,-127.0,0
1462,-8.0,-199.0,-128.0,0
1463,-6.0,-198.0,-126.0,0
1464,1.0,-203.0,-131.0,0
1465,-5.0,-196.0,-126.0,0
1466,-6.0,-198.0,-126.0,0
1467,-6.0,-198.0,-124.0,0
1468,-4.0,-197.0,-126.0,0
1469,-1.0,-198.0,-126.0,0
1470,-5.0,-199.0,-120.0,0
1471,-1.0,-199.0,-126.0,0
1472,-1.0,-194.0,-124.0,0
1473,-4.0,-196.0,-129.0,0
1474,-1.0,-199.0,-123.0,0
1475,9.0,-205.0,-135.0,0
1476,-1.0,-206.0,-127.0,0
1477,0.0,-204.0,-127.0,0
1478,-3.0,-206.0,-132.0,0
1479,-1.0,-205.0,-132.0,0
1480,-1.0,-207.0,-130.0,0
1481,-3.0,-207.0,-133.0,0
1482,-2.0,-217.0,-136.0,0
1483,0.0,-249.0,-140.0,0
1484,-4.0,-234.0,-127.0,0
1485,4.0,-215.0,-130.0,0
1486,8.0,-212.0,-139.0,0
1487,5.0,-203.0,-129.0,0
1488,7.0,-200.0,-129.0,0
1489,10.0,-204.0,-132.0,0
1490,17.0,-201.0,-130.0,0
1491,13.0,-209.0,-130.0,0
1492,11.0,-214.0,-127.0,0
1493,3.0,-206.0,-124.0,0
1494,2.0,-204.0,-130.0,0
1495,3.0,-199.0,-125.0,0
1496,7.0,-197.0,-130.0,0
1497,2.0,-199.0,-138.0,0
1498,11.0,-200.0,-126.0,0
1499,12.0,-201.0,-125.0,0
1500,13.0,-206.0,-128.0,0
1501,12.0,-215.0,-125.0,0
1502,10.0,-216.0,-124.0,0
1503,11.0,-214.0,-127.0,0
1504,11.0,-215.0,-127.0,0
1505,9.0,-210.0,-130.0,0
1506,14.0,-208.0,-126.0,0
1507,13.0,-213.0,-130.0,0
1508,14.0,-226.0,-122.0,0
1509,9.0,-210.0,-133.0,0
1510,5.0,-206.0,-132.0,0
1511,2.0,-205.0,-133.0,0
1512,3.0,-206.0,-134.0,0
1513,0.0,-206.0,-134.0,0
1514,0.0,-208.0,-130.0,0
1515,-3.0,-209.0,-128.0,0
1516,0.0,-208.0,-130.0,0
1517,2.0,-209.0,-131.0,0
1518,1.0,-210.0,-129.0,0
1519,-5.0,-212.0,-122.0,0
1520,-1.0,-217.0,-126.0,0
1521,0.0,-220.0,-127.0,0
1522,0.0,-220.0,-130.0,0
1523,2.0,-225.0,-128.0,0
1524,6.0,-221.0,-131.0,0
1525,5.0,-223.0,-130.0,0
1526,5.0,-226.0,-128.0,0
1527,6.0,-225.0,-129.0,0
1528,6.0,-223.0,-134.0,0
1529,3.0,-219.0,-137.0,0
1530,-5.0,-226.0,-127.0,0
1531,6.0,-220.0,-135.0,0
1532,4.0,-225.0,-133.0,0
1533,5.0,-222.0,-136.0,0
1534,5.0,-229.0,-131.0,0
1535,5.0,-268.0,-134.0,0
1536,0.0,-246.0,-122.0,0
1537,4.0,-234.0,-127.0,0
1538,5.0,-219.0,-124.0,0
1539,4.0,-209.0,-131.0,0
1540,4.0,-208.0,-130.0,0
1541,4.0,-204.0,-130.0,0
1542,2.0,-204.0,-131.0,0
1543,5.0,-207.0,-129.0,0
1544,9.0,-209.0,-130.0,0
1545,9.0,-213.0,-133.0,0
1546,8.0,-213.0,-126.0,0
1547,8.0,-216.0,-127.0,0
1548,10.0,-224.0,-124.0,0
1549,12.0,-223.0,-122.0,0
1550,10.0,-226.0,-120.0,0
1551,20.0,-230.0,-131.0,0
1552,11.0,-231.0,-124.0,0
1553,15.0,-229.0,-123.0,0
1554,13.0,-233.0,-124.0,0
1555,10.0,-227.0,-123.0,0
1556,13.0,-229.0,-127.0,0
1557,14.0,-228.0,-126.0,0
1558,14.0,-227.0,-124.0,0
1559,11.0,-225.0,-127.0,0
1560,10.0,-226.0,-123.0,0
1561,9.0,-227.0,-127.0,0
1562,9.0,-230.0,-125.0,0
1563,12.0,-232.0,-121.0,0
1564,13.0,-236.0,-121.0,0
1565,10.0,-233.0,-122.0,0
1566,16.0,-233.0,-121.0,0
1567,18.0,-233.0,-124.0,0
1568,21.0,-234.0,-121.0,0
1569,23.0,-234.0,-126.0,0
1570,18.0,-229.0,-123.0,0
1571,23.0,-229.0,-119.0,0
1572,23.0,-231.0,-117.0,0
1573,19.0,-240.0,-109.0,0
1574,15.0,-231.0,-117.0,0
1575,19.0,-233.0,-120.0,0
1576,17.0,-232.0,-119.0,0
1577,15.0,-235.0,-115.0,0
1578,15.0,-233.0,-113.0,0
1579,11.0,-231.0,-113.0,0
1580,10.0,-236.0,-112.0,0
1581,14.0,-232.0,-112.0,0
1582,9.0,-227.0,-109.0,0
1583,11.0,-223.0,-116.0,0
1584,7.0,-223.0,-108.0,0
1585,12.0,-232.0,-110.0,0
1586,11.0,-230.0,-115.0,0
1587,13.0,-227.0,-116.0,0
1588,12.0,-230.0,-117.0,0
1589,12.0,-231.0,-115.0,0
1590,13.0,-249.0,-125.0,0
1591,4.0,-274.0,-113.0,0
1592,9.0,-266.0,-105.0,0
1593,15.0,-251.0,-112.0,0
1594,19.0,-230.0,-112.0,0
1595,17.0,-229.0,-106.0,0
1596,14.0,-215.0,-117.0,0
1597,17.0,-211.0,-118.0,0
1598,16.0,-215.0,-123.0,0
1599,15.0,-216.0,-118.0,0
1600,13.0,-223.0,-119.0,0
1601,13.0,-231.0,-114.0,0
1602,13.0,-232.0,-117.0,0
1603,12.0,-239.0,-113.0,0
1604,12.0,-238.0,-106.0,0
1605,13.0,-241.0,-106.0,0
1606,23.0,-239.0,-104.0,0
1607,17.0,-239.0,-110.0,0
1608,16.0,-237.0,-111.0,0
1609,19.0,-238.0,-109.0,0
1610,16.0,-237.0,-108.0,0
1611,20.0,-234.0,-108.0,0
1612,17.0,-236.0,-109.0,0
1613,23.0,-235.0,-107.0,0
1614,21.0,-234.0,-109.0,0
1615,22.0,-233.0,-108.0,0
1616,19.0,-235.0,-111.0,0
1617,22.0,-237.0,-99.0,0
1618,19.0,-232.0,-106.0,0
1619,21.0,-235.0,-106.0,0
1620,19.0,-235.0,-105.0,0
1621,18.0,-236.0,-107.0,0
1622,17.0,-236.0,-106.0,0
1623,20.0,-238.0,-105.0,0
1624,17.0,-235.0,-105.0,0
1625,14.0,-237.0,-105.0,0
1626,14.0,-232.0,-105.0,0
1627,17.0,-234.0,-108.0,0
1628,17.0,-239.0,-106.0,0
1629,17.0,-234.0,-104.0,0
1630,15.0,-235.0,-107.0,0
1631,12.0,-236.0,-109.0,0
1632,13.0,-236.0,-105.0,0
1633,15.0,-235.0,-107.0,0
1634,11.0,-237.0,-110.0,0
1635,17.0,-240.0,-105.0,0
1636,14.0,-240.0,-104.0,0
1637,15.0,-237.0,-105.0,0
1638,20.0,-246.0,-101.0,0
1639,14.0,-236.0,-100.0,0
1640,13.0,-239.0,-105.0,0
1641,13.0,-237.0,-109.0,0
1642,14.0,-234.0,-105.0,0
1643,14.0,-236.0,-106.0,0
1644,10.0,-234.0,-105.0,0
1645,8.0,-236.0,-101.0,0
1646,8.0,-239.0,-109.0,0
1647,12.0,-237.0,-109.0,0
1648,10.0,-238.0,-108.0,0
1649,4.0,-227.0,-118.0,0
1650,11.0,-237.0,-102.0,0
1651,12.0,-239.0,-106.0,0
1652,9.0,-237.0,-106.0,0
1653,13.0,-239.0,-104.0,0
1654,11.0,-237.0,-106.0,0
1655,7.0,-238.0,-108.0,0
1656,10.0,-237.0,-107.0,0
1657,10.0,-235.0,-105.0,0
1658,8.0,-232.0,-102.0,0
1659,14.0,-236.0,-104.0,0
1660,12.0,-230.0,-107.0,0
1661,12.0,-236.0,-106.0,0
1662,14.0,-235.0,-105.0,0
1663,13.0,-234.0,-107.0,0
1664,14.0,-236.0,-108.0,0
1665,13.0,-235.0,-103.0,0
1666,12.0,-233.0,-106.0,0
1667,10.0,-234.0,-109.0,0
1668,16.0,-237.0,-111.0,0
1669,10.0,-232.0,-106.0,0
1670,12.0,-238.0,-104.0,0
1671,12.0,-229.0,-93.0,0
1672,11.0,-234.0,-105.0,0
1673,11.0,-236.0,-107.0,0
1674,9.0,-233.0,-108.0,0
1675,12.0,-235.0,-106.0,0
1676,8.0,-235.0,-107.0,0
1677,12.0,-239.0,-105.0,0
1678,8.0,-239.0,-106.0,0
1679,11.0,-240.0,-104.0,0
1680,11.0,-239.0,-109.0,0
1681,7.0,-238.0,-102.0,0
1682,7.0,-238.0,-92.0,0
1683,10.0,-240.0,-105.0,0
1684,12.0,-238.0,-103.0,0
1685,9.0,-235.0,-101.0,0
1686,10.0,-239.0,-106.0,0
1687,10.0,-240.0,-106.0,0
1688,10.0,-236.0,-108.0,0
1689,8.0,-236.0,-108.0,0
1690,11.0,-238.0,-104.0,0
1691,10.0,-238.0,-109.0,0
1692,16.0,-238.0,-109.0,0
1693,5.0,-231.0,-104.0,0
1694,13.0,-232.0,-105.0,0
1695,10.0,-234.0,-111.0,0
1696,15.0,-236.0,-104.0,0
1697,16.0,-234.0,-107.0,0
1698,14.0,-235.0,-106.0,0
1699,12.0,-236.0,-109.0,0
1700,10.0,-239.0,-107.0,0
1701,11.0,-239.0,-104.0,0
1702,13.0,-237.0,-109.0,0
1703,12.0,-238.0,-106.0,0
1704,24.0,-242.0,-104.0,0
1705,13.0,-241.0,-105.0,0
1706,12.0,-239.0,-108.0,0
1707,10.0,-238.0,-105.0,0
1708,12.0,-238.0,-107.0,0
1709,13.0,-238.0,-105.0,0
1710,17.0,-236.0,-104.0,0
1711,11.0,-236.0,-108.0,0
1712,16.0,-237.0,-108.0,0
1713,15.0,-236.0,-104.0,0
1714,13.0,-237.0,-104.0,0
1715,10.0,-235.0,-115.0,0
1716,15.0,-236.0,-103.0,0
1717,16.0,-236.0,-104.0,0
1718,18.0,-240.0,-102.0,0
1719,16.0,-237.0,-102.0,0
1720,17.0,-238.0,-106.0,0
1721,19.0,-237.0,-105.0,0
1722,19.0,-234.0,-109.0,0
1723,14.0,-236.0,-105.0,0
1724,15.0,-235.0,-110.0,0
1725,14.0,-236.0,-104.0,0
1726,11.0,-237.0,-97.0,0
1727,14.0,-237.0,-102.0,0
1728,18.0,-241.0,-105.0,0
1729,16.0,-239.0,-106.0,0
1730,13.0,-238.0,-104.0,0
1731,14.0,-238.0,-106.0,0
1732,15.0,-240.0,-105.0,0
1733,12.0,-240.0,-103.0,0
1734,17.0,-238.0,-109.0,0
1735,15.0,-238.0,-108.0,0
1736,17.0,-237.0,-103.0,0
1737,21.0,-230.0,-112.0,0
1738,16.0,-239.0,-101.0,0
1739,14.0,-240.0,-103.0,0
1740,13.0,-242.0,-103.0,0
1741,13.0,-238.0,-106.0,0
1742,11.0,-238.0,-105.0,0
1743,15.0,-236.0,-108.0,0
1744,19.0,-236.0,-103.0,0
1745,16.0,-238.0,-104.0,0
1746,16.0,-240.0,-98.0,0
1747,13.0,-237.0,-102.0,0
1748,14.0,-235.0,-101.0,0
1749,15.0,-236.0,-98.0,0
1750,15.0,-240.0,-98.0,0
1751,14.0,-237.0,-101.0,0
1752,11.0,-237.0,-100.0,0
1753,12.0,-240.0,-103.0,0
1754,11.0,-239.0,-104.0,0
1755,14.0,-242.0,-97.0,0
1756,16.0,-241.0,-101.0,0
1757,11.0,-238.0,-102.0,0
1758,8.0,-244.0,-94.0,0
1759,12.0,-243.0,-103.0,0
1760,12.0,-237.0,-101.0,0
1761,12.0,-237.0,-101.0,0
1762,12.0,-240.0,-101.0,0
1763,11.0,-240.0,-103.0,0
1764,13.0,-239.0,-100.0,0
1765,11.0,-239.0,-107.0,0
1766,13.0,-240.0,-95.0,0
1767,10.0,-240.0,-96.0,0
1768,12.0,-242.0,-95.0,0
1769,17.0,-245.0,-112.0,0
1770,10.0,-240.0,-98.0,0
1771,11.0,-242.0,-96.0,0
1772,11.0,-238.0,-97.0,0
1773,11.0,-240.0,-101.0,0
1774,12.0,-241.0,-95.0,0
1775,9.0,-238.0,-100.0,0
1776,9.0,-238.0,-98.0,0
1777,10.0,-240.0,-100.0,0
1778,13.0,-240.0,-96.0,0
1779,9.0,-236.0,-100.0,0
1780,16.0,-232.0,-94.0,0
1781,12.0,-240.0,-101.0,0
1782,11.0,-237.0,-98.0,0
1783,10.0,-236.0,-101.0,0
1784,8.0,-237.0,-99.0,0
1785,11.0,-240.0,-97.0,0
1786,7.0,-241.0,-95.0,0
1787,11.0,-239.0,-104.0,0
1788,11.0,-240.0,-96.0,0
1789,12.0,-237.0,-97.0,0
1790,8.0,-237.0,-102.0,0
1791,20.0,-242.0,-86.0,0
1792,10.0,-241.0,-102.0,0
1793,8.0,-239.0,-97.0,0
1794,8.0,-241.0,-102.0,0
1795,10.0,-239.0,-94.0,0
1796,9.0,-236.0,-99.0,0
1797,11.0,-240.0,-98.0,0
1798,12.0,-243.0,-95.0,0
1799,9.0,-241.0,-98.0,0
1800,11.0,-240.0,-100.0,0
1801,11.0,-241.0,-96.0,0
1802,10.0,-241.0,-97.0,0
1803,12.0,-241.0,-94.0,0
1804,11.0,-234.0,-96.0,0
1805,13.0,-240.0,-100.0,0
1806,8.0,-238.0,-97.0,0
1807,12.0,-240.0,-94.0,0
1808,12.0,-242.0,-97.0,0
1809,8.0,-239.0,-92.0,0
1810,9.0,-241.0,-99.0,0
1811,8.0,-240.0,-100.0,0
1812,13.0,-236.0,-98.0,0
1813,4.0,-239.0,-85.0,0
1814,13.0,-239.0,-99.0,0
1815,12.0,-236.0,-99.0,0
1816,12.0,-236.0,-94.0,0
1817,13.0,-240.0,-98.0,0
1818,13.0,-240.0,-96.0,0
1819,11.0,-238.0,-96.0,0
1820,14.0,-240.0,-97.0,0
1821,13.0,-242.0,-99.0,0
1822,15.0,-239.0,-100.0,0
1823,14.0,-239.0,-95.0,0
1824,20.0,-245.0,-78.0,0
1825,13.0,-239.0,-99.0,0
1826,13.0,-239.0,-99.0,0
1827,11.0,-239.0,-97.0,0
1828,12.0,-241.0,-98.0,0
1829,12.0,-240.0,-98.0,0
1830,13.0,-239.0,-98.0,0
1831,10.0,-241.0,-95.0,0
1832,11.0,-244.0,-100.0,0
1833,11.0,-239.0,-99.0,0
1834,16.0,-242.0,-102.0,0
1835,19.0,-248.0,-95.0,0
1836,10.0,-239.0,-100.0,0
1837,13.0,-240.0,-95.0,0
1838,13.0,-240.0,-99.0,0
1839,11.0,-239.0,-98.0,0
1840,13.0,-240.0,-99.0,0
1841,13.0,-239.0,-100.0,0
1842,15.0,-236.0,-96.0,0
1843,13.0,-238.0,-100.0,0
1844,18.0,-242.0,-102.0,0
1845,14.0,-237.0,-111.0,0
1846,13.0,-238.0,-99.0,0
1847,15.0,-242.0,-99.0,0
1848,12.0,-238.0,-101.0,0
1849,13.0,-240.0,-101.0,0
1850,15.0,-240.0,-98.0,0
1851,14.0,-239.0,-98.0,0
1852,13.0,-240.0,-99.0,0
1853,13.0,-239.0,-94.0,0
1854,13.0,-240.0,-98.0,0
1855,13.0,-237.0,-97.0,0
1856,10.0,-235.0,-96.0,0
1857,15.0,-240.0,-99.0,0
1858,11.0,-241.0,-97.0,0
1859,12.0,-241.0,-95.0,0
1860,15.0,-242.0,-97.0,0
1861,12.0,-241.0,-96.0,0
1862,12.0,-240.0,-98.0,0
1863,12.0,-238.0,-101.0,0
1864,11.0,-239.0,-93.0,0
1865,12.0,-236.0,-97.0,0
1866,12.0,-238.0,-96.0,0
1867,19.0,-246.0,-97.0,0
1868,13.0,-237.0,-98.0,0
1869,14.0,-240.0,-96.0,0
1870,12.0,-238.0,-96.0,0
1871,9.0,-241.0,-97.0,0
1872,13.0,-236.0,-96.0,0
1873,13.0,-239.0,-97.0,0
1874,13.0,-235.0,-100.0,0
1875,11.0,-239.0,-91.0,0
1876,13.0,-239.0,-99.0,0
1877,12.0,-239.0,-99.0,0
1878,14.0,-245.0,-94.0,0
1879,11.0,-239.0,-97.0,0
1880,12.0,-238.0,-98.0,0
1881,12.0,-238.0,-99.0,0
1882,10.0,-238.0,-97.0,0
1883,11.0,-237.0,-103.0,0
1884,10.0,-240.0,-97.0,0
1885,16.0,-239.0,-96.0,0
1886,10.0,-239.0,-95.0,0
1887,13.0,-242.0,-97.0,0
1888,19.0,-239.0,-96.0,0
1889,6.0,-240.0,-99.0,0
1890,14.0,-243.0,-99.0,0
1891,13.0,-241.0,-97.0,0
1892,10.0,-241.0,-98.0,0
1893,14.0,-243.0,-94.0,0
1894,12.0,-243.0,-100.0,0
1895,14.0,-238.0,-99.0,0
1896,9.0,-239.0,-98.0,0
1897,10.0,-241.0,-97.0,0
1898,13.0,-238.0,-99.0,0
1899,11.0,-239.0,-96.0,0
1900,13.0,-236.0,-107.0,0
1901,13.0,-241.0,-100.0,0
1902,12.0,-241.0,-98.0,0
1903,11.0,-240.0,-98.0,0
1904,12.0,-240.0,-99.0,0
1905,12.0,-241.0,-99.0,0
1906,13.0,-241.0,-101.0,0
1907,15.0,-238.0,-97.0,0
1908,13.0,-240.0,-98.0,0
1909,10.0,-238.0,-96.0,0
1910,16.0,-240.0,-99.0,0
1911,15.0,-231.0,-104.0,0
1912,11.0,-241.0,-97.0,0
1913,11.0,-238.0,-99.0,0
1914,12.0,-238.0,-95.0,0
1915,11.0,-239.0,-95.0,0
1916,14.0,-238.0,-102.0,0
1917,13.0,-240.0,-97.0,0
1918,12.0,-240.0,-99.0,0
1919,16.0,-239.0,-99.0,0
1920,15.0,-240.0,-97.0,0
1921,11.0,-239.0,-99.0,0
1922,10.0,-246.0,-100.0,0
1923,11.0,-240.0,-100.0,0
1924,12.0,-237.0,-97.0,0
1925,14.0,-243.0,-101.0,0
1926,13.0,-243.0,-98.0,0
1927,10.0,-238.0,-95.0,0
1928,13.0,-241.0,-100.0,0
1929,9.0,-238.0,-100.0,0
1930,13.0,-242.0,-96.0,0
1931,12.0,-240.0,-93.0,0
1932,15.0,-240.0,-99.0,0
1933,22.0,-224.0,-113.0,0
1934,9.0,-238.0,-97.0,0
1935,12.0,-239.0,-95.0,0
1936,10.0,-239.0,-96.0,0
1937,15.0,-239.0,-98.0,0
1938,12.0,-239.0,-98.0,0
1939,9.0,-240.0,-98.0,0
1940,12.0,-241.0,-97.0,0
1941,15.0,-241.0,-99.0,0
1942,12.0,-239.0,-102.0,0
1943,12.0,-241.0,-93.0,0
1944,12.0,-245.0,-94.0,0
1945,7.0,-242.0,-96.0,0
1946,9.0,-239.0,-97.0,0
1947,11.0,-239.0,-99.0,0
1948,9.0,-240.0,-98.0,0
1949,10.0,-240.0,-96.0,0
1950,12.0,-238.0,-98.0,0
1951,9.0,-239.0,-93.0,0
1952,13.0,-239.0,-99.0,0
1953,13.0,-243.0,-93.0,0
1954,10.0,-241.0,-94.0,0
1955,9.0,-240.0,-94.0,0
1956,12.0,-241.0,-93.0,0
1957,11.0,-241.0,-93.0,0
1958,12.0,-243.0,-96.0,0
1959,10.0,-240.0,-98.0,0
1960,13.0,-240.0,-97.0,0
1961,12.0,-242.0,-92.0,0
1962,13.0,-241.0,-101.0,0
1963,12.0,-241.0,-89.0,0
1964,10.0,-243.0,-104.0,0
1965,23.0,-244.0,-94.0,0
1966,10.0,-239.0,-94.0,0
1967,12.0,-238.0,-96.0,0
1968,13.0,-243.0,-93.0,0
1969,9.0,-241.0,-93.0,0
1970,10.0,-239.0,-90.0,0
1971,13.0,-242.0,-93.0,0
1972,13.0,-238.0,-98.0,0
1973,9.0,-241.0,-94.0,0
1974,10.0,-238.0,-93.0,0
1975,9.0,-243.0,-93.0,0
1976,6.0,-230.0,-88.0,0
1977,12.0,-239.0,-96.0,0
1978,10.0,-240.0,-97.0,0
1979,9.0,-239.0,-96.0,0
1980,11.0,-243.0,-89.0,0
1981,10.0,-241.0,-94.0,0
1982,12.0,-242.0,-95.0,0
1983,10.0,-238.0,-94.0,0
1984,11.0,-239.0,-94.0,0
1985,10.0,-242.0,-96.0,0
1986,11.0,-240.0,-92.0,0
1987,26.0,-235.0,-103.0,0
1988,11.0,-240.0,-94.0,0
1989,9.0,-239.0,-93.0,0
1990,12.0,-243.0,-93.0,0
1991,10.0,-240.0,-96.0,0
1992,9.0,-241.0,-92.0,0
1993,11.0,-240.0,-93.0,0
1994,10.0,-241.0,-86.0,0
1995,9.0,-242.0,-91.0,0
1996,12.0,-237.0,-93.0,0
1997,8.0,-242.0,-92.0,0
1998,10.0,-241.0,-93.0,0
1999,15.0,-229.0,-106.0,0
2000,0.0,-240.0,-92.0,0
2001,11.0,-240.0,-93.0,0
2002,8.0,-241.0,-96.0,0
2003,9.0,-241.0,-93.0,0
2004,9.0,-240.0,-89.0,0
2005,11.0,-239.0,-94.0,0
2006,14.0,-242.0,-92.0,0
2007,13.0,-241.0,-94.0,0
2008,9.0,-239.0,-94.0,0
2009,14.0,-240.0,-91.0,0
2010,12.0,-241.0,-96.0,0
2011,12.0,-240.0,-96.0,0
2012,11.0,-240.0,-91.0,0
2013,9.0,-239.0,-90.0,0
2014,13.0,-242.0,-95.0,0
2015,12.0,-239.0,-93.0,0
2016,11.0,-241.0,-92.0,0
2017,7.0,-240.0,-92.0,0
2018,7.0,-238.0,-90.0,0
2019,8.0,-239.0,-93.0,0
2020,2.0,-244.0,-85.0,0
2021,11.0,-240.0,-93.0,0
2022,12.0,-240.0,-91.0,0
2023,9.0,-239.0,-97.0,0
2024,10.0,-244.0,-89.0,0
2025,8.0,-243.0,-96.0,0
2026,11.0,-242.0,-91.0,0
2027,11.0,-238.0,-90.0,0
2028,14.0,-238.0,-94.0,0
2029,16.0,-240.0,-96.0,0
2030,9.0,-237.0,-93.0,0
2031,21.0,-230.0,-97.0,0
2032,8.0,-238.0,-92.0,0
2033,10.0,-240.0,-92.0,0
2034,10.0,-241.0,-95.0,0
2035,11.0,-239.0,-91.0,0
2036,11.0,-242.0,-93.0,0
2037,11.0,-240.0,-89.0,0
2038,13.0,-240.0,-91.0,0
2039,12.0,-239.0,-95.0,0
2040,12.0,-240.0,-94.0,0
2041,10.0,-245.0,-96.0,0
2042,14.0,-248.0,-80.0,0
2043,10.0,-242.0,-95.0,0
2044,10.0,-240.0,-96.0,0
2045,9.0,-242.0,-93.0,0
2046,11.0,-242.0,-94.0,0
2047,13.0,-243.0,-96.0,0
2048,12.0,-239.0,-89.0,0
2049,8.0,-238.0,-93.0,0
2050,10.0,-241.0,-97.0,0
2051,14.0,-239.0,-95.0,0
2052,-1.0,-232.0,-93.0,0
2053,13.0,-242.0,-93.0,0
2054,11.0,-241.0,-94.0,0
2055,9.0,-237.0,-95.0,0
2056,10.0,-242.0,-93.0,0
2057,10.0,-240.0,-95.0,0
2058,12.0,-239.0,-93.0,0
2059,15.0,-241.0,-95.0,0
2060,12.0,-238.0,-95.0,0
2061,9.0,-243.0,-94.0,0
2062,19.0,-240.0,-90.0,0
2063,2.0,-248.0,-87.0,0
2064,12.0,-243.0,-91.0,0
2065,12.0,-243.0,-92.0,0
2066,11.0,-241.0,-94.0,0
2067,11.0,-243.0,-95.0,0
2068,8.0,-238.0,-94.0,0
2069,9.0,-242.0,-94.0,0
2070,12.0,-239.0,-99.0,0
2071,9.0,-242.0,-98.0,0
2072,13.0,-239.0,-96.0,0
2073,11.0,-239.0,-99.0,0
2074,9.0,-241.0,-84.0,0
2075,7.0,-238.0,-95.0,0
2076,9.0,-238.0,-97.0,0
2077,6.0,-239.0,-100.0,0
2078,9.0,-238.0,-98.0,0
2079,6.0,-240.0,-96.0,0
2080,9.0,-239.0,-95.0,0
2081,11.0,-241.0,-98.0,0
2082,11.0,-240.0,-93.0,0
2083,8.0,-240.0,-95.0,0
2084,11.0,-244.0,-98.0,0
2085,30.0,-237.0,-93.0,0
2086,13.0,-238.0,-97.0,0
2087,10.0,-238.0,-98.0,0
2088,10.0,-240.0,-99.0,0
2089,12.0,-239.0,-96.0,0
2090,11.0,-239.0,-97.0,0
2091,13.0,-242.0,-97.0,0
2092,14.0,-239.0,-98.0,0
2093,8.0,-243.0,-102.0,0
2094,12.0,-239.0,-95.0,0
2095,5.0,-239.0,-98.0,0
2096,10.0,-245.0,-89.0,0
2097,9.0,-240.0,-102.0,0
2098,10.0,-241.0,-97.0,0
2099,11.0,-238.0,-96.0,0
2100,8.0,-241.0,-98.0,0
2101,11.0,-241.0,-97.0,0
2102,13.0,-241.0,-96.0,0
2103,14.0,-241.0,-97.0,0
2104,13.0,-238.0,-98.0,0
2105,12.0,-240.0,-96.0,0
2106,9.0,-238.0,-97.0,0
2107,7.0,-237.0,-97.0,0
2108,15.0,-245.0,-100.0,0
2109,13.0,-238.0,-96.0,0
2110,12.0,-240.0,-98.0,0
2111,11.0,-239.0,-99.0,0
2112,13.0,-241.0,-101.0,0
2113,11.0,-239.0,-100.0,0
2114,11.0,-241.0,-98.0,0
2115,8.0,-241.0,-98.0,0
2116,10.0,-242.0,-96.0,0
2117,12.0,-241.0,-101.0,0
2118,16.0,-242.0,-92.0,0
2119,10.0,-238.0,-99.0,0
2120,12.0,-242.0,-98.0,0
2121,9.0,-241.0,-101.0,0
2122,10.0,-240.0,-97.0,0
2123,11.0,-239.0,-98.0,0
2124,11.0,-239.0,-97.0,0
2125,13.0,-238.0,-99.0,0
2126,13.0,-241.0,-97.0,0
2127,9.0,-237.0,-99.0,0
2128,11.0,-241.0,-96.0,0
2129,17.0,-248.0,-89.0,0
2130,14.0,-240.0,-98.0,0
2131,11.0,-238.0,-99.0,0
2132,11.0,-242.0,-96.0,0
2133,13.0,-243.0,-96.0,0
2134,10.0,-240.0,-93.0,0
2135,9.0,-239.0,-96.0,0
2136,9.0,-238.0,-94.0,0
2137,9.0,-242.0,-101.0,0
2138,11.0,-243.0,-96.0,0
2139,11.0,-241.0,-103.0,0
2140,12.0,-236.0,-102.0,0
2141,12.0,-242.0,-98.0,0
2142,12.0,-240.0,-96.0,0
2143,12.0,-243.0,-98.0,0
2144,10.0,-238.0,-99.0,0
2145,11.0,-240.0,-97.0,0
2146,10.0,-239.0,-103.0,0
2147,12.0,-238.0,-99.0,0
2148,10.0,-242.0,-93.0,0
2149,12.0,-240.0,-101.0,0
2150,8.0,-249.0,-83.0,0
2151,11.0,-237.0,-95.0,0
2152,11.0,-237.0,-98.0,0
2153,9.0,-237.0,-95.0,0
2154,12.0,-241.0,-98.0,0
2155,8.0,-238.0,-96.0,0
2156,10.0,-242.0,-96.0,0
2157,11.0,-238.0,-99.0,0
2158,9.0,-243.0,-95.0,0
2159,12.0,-243.0,-101.0,0
2160,16.0,-238.0,-94.0,0
2161,8.0,-244.0,-95.0,0
2162,10.0,-240.0,-97.0,0
2163,9.0,-238.0,-99.0,0
2164,8.0,-240.0,-97.0,0
2165,6.0,-237.0,-96.0,0
2166,8.0,-238.0,-100.0,0
2167,12.0,-242.0,-97.0,0
2168,11.0,-238.0,-95.0,0
2169,11.0,-238.0,-99.0,0
2170,11.0,-242.0,-98.0,0
2171,8.0,-236.0,-97.0,0
2172,16.0,-240.0,-92.0,0
2173,11.0,-240.0,-93.0,0
2174,9.0,-242.0,-97.0,0
2175,7.0,-240.0,-100.0,0
2176,6.0,-239.0,-97.0,0
2177,9.0,-240.0,-97.0,0
2178,9.0,-240.0,-96.0,0
2179,11.0,-241.0,-97.0,0
2180,7.0,-238.0,-97.0,0
2181,6.0,-243.0,-93.0,0
2182,8.0,-241.0,-100.0,0
2183,6.0,-231.0,-99.0,0
2184,8.0,-242.0,-101.0,0
2185,6.0,-239.0,-96.0,0
2186,8.0,-239.0,-95.0,0
2187,12.0,-242.0,-98.0,0
2188,8.0,-240.0,-93.0,0
2189,11.0,-243.0,-97.0,0
2190,9.0,-241.0,-96.0,0
2191,6.0,-242.0,-98.0,0
2192,9.0,-238.0,-94.0,0
2193,12.0,-242.0,-100.0,0
2194,15.0,-241.0,-98.0,0
2195,10.0,-240.0,-98.0,0
2196,12.0,-240.0,-100.0,0
2197,10.0,-241.0,-97.0,0
2198,8.0,-240.0,-100.0,0
2199,10.0,-240.0,-92.0,0
2200,9.0,-237.0,-96.0,0
2201,10.0,-241.0,-96.0,0
2202,8.0,-241.0,-102.0,0
2203,11.0,-242.0,-94.0,0
2204,8.0,-241.0,-95.0,0
2205,9.0,-247.0,-90.0,0
2206,11.0,-241.0,-97.0,0
2207,8.0,-236.0,-99.0,0
2208,13.0,-240.0,-97.0,0
2209,8.0,-240.0,-99.0,0
2210,10.0,-242.0,-94.0,0
2211,9.0,-240.0,-97.0,0
2212,12.0,-240.0,-98.0,0
2213,10.0,-237.0,-97.0,0
2214,9.0,-239.0,-99.0,0
2215,5.0,-244.0,-97.0,0
2216,13.0,-251.0,-91.0,0
2217,10.0,-243.0,-96.0,0
2218,13.0,-238.0,-99.0,0
2219,10.0,-240.0,-97.0,0
2220,8.0,-240.0,-96.0,0
2221,10.0,-241.0,-100.0,0
2222,10.0,-238.0,-97.0,0
2223,11.0,-238.0,-100.0,0
2224,8.0,-240.0,-98.0,0
2225,9.0,-239.0,-96.0,0
2226,9.0,-236.0,-98.0,0
2227,-3.0,-241.0,-90.0,0
2228,8.0,-239.0,-97.0,0
2229,9.0,-242.0,-95.0,0
2230,11.0,-240.0,-102.0,0
2231,7.0,-239.0,-100.0,0
2232,8.0,-241.0,-100.0,0
2233,10.0,-238.0,-103.0,0
2234,8.0,-235.0,-98.0,0
2235,12.0,-238.0,-103.0,0
2236,9.0,-241.0,-95.0,0
2237,11.0,-236.0,-100.0,0
2238,-1.0,-244.0,-91.0,0
2239,11.0,-242.0,-98.0,0
2240,10.0,-240.0,-99.0,0
2241,9.0,-237.0,-96.0,0
2242,10.0,-240.0,-100.0,0
2243,10.0,-241.0,-98.0,0
2244,10.0,-240.0,-101.0,0
2245,14.0,-241.0,-97.0,0
2246,12.0,-240.0,-100.0,0
2247,14.0,-234.0,-102.0,0
2248,9.0,-238.0,-97.0,0
2249,17.0,-233.0,-102.0,0
2250,14.0,-238.0,-99.0,0
2251,11.0,-240.0,-101.0,0
2252,11.0,-241.0,-97.0,0
2253,10.0,-241.0,-96.0,0
2254,12.0,-241.0,-99.0,0
2255,10.0,-239.0,-97.0,0
2256,10.0,-239.0,-100.0,0
2257,8.0,-239.0,-93.0,0
2258,8.0,-243.0,-100.0,0
2259,10.0,-235.0,-118.0,0
2260,9.0,-241.0,-98.0,0
2261,9.0,-238.0,-102.0,0
2262,9.0,-240.0,-97.0,0
2263,9.0,-241.0,-101.0,0
2264,9.0,-239.0,-100.0,0
2265,10.0,-239.0,-97.0,0
2266,10.0,-240.0,-101.0,0
2267,8.0,-239.0,-97.0,0
2268,9.0,-239.0,-99.0,0
2269,9.0,-238.0,-96.0,0
2270,15.0,-237.0,-99.0,0
2271,11.0,-240.0,-98.0,0
2272,11.0,-241.0,-99.0,0
2273,11.0,-238.0,-101.0,0
2274,10.0,-239.0,-102.0,0
2275,8.0,-240.0,-98.0,0
2276,10.0,-240.0,-98.0,0
2277,10.0,-242.0,-102.0,0
2278,12.0,-238.0,-100.0,0
2279,12.0,-240.0,-98.0,0
2280,14.0,-247.0,-96.0,0
2281,16.0,-245.0,-89.0,0
2282,8.0,-237.0,-100.0,0
2283,9.0,-242.0,-101.0,0
2284,12.0,-240.0,-97.0,0
2285,11.0,-239.0,-99.0,0
2286,7.0,-236.0,-96.0,0
2287,8.0,-240.0,-99.0,0
2288,9.0,-242.0,-102.0,0
2289,9.0,-237.0,-101.0,0
2290,12.0,-240.0,-102.0,0
2291,11.0,-241.0,-104.0,0
2292,21.0,-251.0,-102.0,0
2293,10.0,-240.0,-102.0,0
2294,8.0,-239.0,-101.0,0
2295,8.0,-242.0,-98.0,0
2296,8.0,-241.0,-97.0,0
2297,11.0,-241.0,-98.0,0
2298,11.0,-238.0,-101.0,0
2299,9.0,-239.0,-97.0,0
2300,11.0,-239.0,-99.0,0
2301,9.0,-243.0,-96.0,0
2302,7.0,-242.0,-97.0,0
2303,13.0,-245.0,-98.0,0
2304,9.0,-242.0,-104.0,0
2305,12.0,-238.0,-95.0,0
2306,7.0,-239.0,-95.0,0
2307,9.0,-240.0,-97.0,0
2308,7.0,-238.0,-99.0,0
2309,9.0,-241.0,-103.0,0
2310,10.0,-239.0,-99.0,0
2311,7.0,-239.0,-98.0,0
2312,15.0,-241.0,-100.0,0
2313,10.0,-238.0,-105.0,0
2314,4.0,-248.0,-83.0,0
2315,10.0,-240.0,-97.0,0
2316,8.0,-238.0,-98.0,0
2317,10.0,-238.0,-100.0,0
2318,7.0,-235.0,-102.0,0
2319,9.0,-235.0,-99.0,0
2320,7.0,-237.0,-98.0,0
2321,6.0,-241.0,-98.0,0
2322,6.0,-241.0,-99.0,0
2323,9.0,-239.0,-99.0,0
2324,7.0,-238.0,-99.0,0
2325,12.0,-247.0,-86.0,0
2326,9.0,-239.0,-98.0,0
2327,8.0,-239.0,-99.0,0
2328,9.0,-240.0,-99.0,0
2329,9.0,-241.0,-96.0,0
2330,11.0,-241.0,-100.0,0
2331,9.0,-240.0,-97.0,0
2332,9.0,-240.0,-98.0,0
2333,11.0,-237.0,-100.0,0
2334,5.0,-239.0,-99.0,0
2335,8.0,-238.0,-98.0,0
2336,16.0,-237.0,-106.0,0
2337,8.0,-238.0,-100.0,0
2338,6.0,-241.0,-101.0,0
2339,8.0,-239.0,-96.0,0
2340,7.0,-239.0,-101.0,0
2341,7.0,-235.0,-101.0,0
2342,7.0,-237.0,-98.0,0
2343,6.0,-239.0,-102.0,0
2344,11.0,-238.0,-100.0,0
2345,7.0,-238.0,-102.0,0
2346,8.0,-239.0,-103.0,0
2347,4.0,-241.0,-100.0,0
2348,11.0,-241.0,-100.0,0
2349,9.0,-240.0,-98.0,0
2350,8.0,-240.0,-97.0,0
2351,9.0,-241.0,-100.0,0
2352,10.0,-242.0,-96.0,0
2353,9.0,-241.0,-101.0,0
2354,8.0,-238.0,-101.0,0
2355,12.0,-240.0,-97.0,0
2356,14.0,-233.0,-90.0,0
2357,7.0,-232.0,-99.0,0
2358,11.0,-243.0,-102.0,0
2359,11.0,-243.0,-101.0,0
2360,9.0,-241.0,-97.0,0
2361,7.0,-236.0,-99.0,0
2362,10.0,-240.0,-98.0,0
2363,10.0,-237.0,-98.0,0
2364,10.0,-235.0,-104.0,0
2365,11.0,-241.0,-102.0,0
2366,11.0,-239.0,-93.0,0
2367,10.0,-239.0,-99.0,0
2368,9.0,-238.0,-99.0,0
2369,8.0,-234.0,-98.0,0
2370,7.0,-237.0,-98.0,0
2371,7.0,-237.0,-102.0,0
2372,10.0,-240.0,-99.0,0
2373,8.0,-238.0,-98.0,0
2374,9.0,-240.0,-96.0,0
2375,9.0,-243.0,-93.0,0
2376,3.0,-242.0,-99.0,0
2377,6.0,-240.0,-100.0,0
2378,10.0,-238.0,-95.0,0
2379,10.0,-246.0,-92.0,0
2380,9.0,-240.0,-99.0,0
2381,8.0,-238.0,-99.0,0
2382,7.0,-239.0,-98.0,0
2383,10.0,-238.0,-100.0,0
2384,8.0,-237.0,-99.0,0
2385,9.0,-239.0,-99.0,0
2386,6.0,-239.0,-99.0,0
2387,9.0,-235.0,-102.0,0
2388,9.0,-239.0,-100.0,0
2389,8.0,-236.0,-97.0,0
2390,7.0,-229.0,-106.0,0
2391,7.0,-240.0,-100.0,0
2392,8.0,-240.0,-100.0,0
2393,5.0,-241.0,-97.0,0
2394,9.0,-240.0,-98.0,0
2395,11.0,-240.0,-96.0,0
2396,9.0,-240.0,-98.0,0
2397,10.0,-238.0,-99.0,0
2398,7.0,-239.0,-97.0,0
2399,7.0,-240.0,-96.0,0
