,accelerometer_x,accelerometer_y,accelerometer_z,fall
0,22.0,-254.0,-102.0,0
1,23.0,-254.0,-97.0,0
2,25.0,-255.0,-96.0,0
3,24.0,-251.0,-95.0,0
4,23.0,-254.0,-98.0,0
5,29.0,-252.0,-96.0,0
6,23.0,-252.0,-98.0,0
7,23.0,-252.0,-95.0,0
8,25.0,-249.0,-91.0,0
9,24.0,-253.0,-97.0,0
10,25.0,-255.0,-93.0,0
11,26.0,-258.0,-99.0,0
12,23.0,-253.0,-96.0,0
13,23.0,-254.0,-98.0,0
14,23.0,-254.0,-99.0,0
15,19.0,-253.0,-95.0,0
16,27.0,-254.0,-99.0,0
17,24.0,-255.0,-95.0,0
18,22.0,-254.0,-95.0,0
19,26.0,-255.0,-101.0,0
20,22.0,-254.0,-98.0,0
21,25.0,-253.0,-96.0,0
22,23.0,-252.0,-99.0,0
23,24.0,-254.0,-96.0,0
24,23.0,-254.0,-101.0,0
25,26.0,-255.0,-100.0,0
26,26.0,-254.0,-95.0,0
27,22.0,-253.0,-97.0,0
28,22.0,-256.0,-98.0,0
29,22.0,-254.0,-95.0,0
30,22.0,-254.0,-97.0,0
31,24.0,-253.0,-99.0,0
32,23.0,-255.0,-99.0,0
33,24.0,-253.0,-100.0,0
34,24.0,-253.0,-99.0,0
35,23.0,-252.0,-97.0,0
36,28.0,-255.0,-94.0,0
37,22.0,-244.0,-97.0,0
38,24.0,-256.0,-97.0,0
39,24.0,-252.0,-94.0,0
40,27.0,-254.0,-96.0,0
41,22.0,-252.0,-97.0,0
42,24.0,-255.0,-95.0,0
43,24.0,-253.0,-94.0,0
44,21.0,-252.0,-98.0,0
45,23.0,-257.0,-103.0,0
46,23.0,-254.0,-91.0,0
47,25.0,-254.0,-96.0,0
48,31.0,-252.0,-96.0,0
49,22.0,-253.0,-99.0,0
50,23.0,-254.0,-98.0,0
51,23.0,-254.0,-98.0,0
52,24.0,-252.0,-98.0,0
53,27.0,-255.0,-100.0,0
54,21.0,-253.0,-99.0,0
55,27.0,-252.0,-98.0,0
56,22.0,-254.0,-99.0,0
57,22.0,-251.0,-100.0,0
58,23.0,-254.0,-100.0,0
59,23.0,-253.0,-96.0,0
60,27.0,-255.0,-98.0,0
61,23.0,-253.0,-97.0,0
62,23.0,-254.0,-99.0,0
63,22.0,-254.0,-96.0,0
64,23.0,-254.0,-98.0,0
65,20.0,-251.0,-97.0,0
66,26.0,-254.0,-104.0,0
67,22.0,-253.0,-100.0,0
68,25.0,-255.0,-100.0,0
69,26.0,-252.0,-99.0,0
70,27.0,-254.0,-109.0,0
71,26.0,-255.0,-98.0,0
72,23.0,-255.0,-99.0,0
73,24.0,-252.0,-95.0,0
74,26.0,-255.0,-100.0,0
75,26.0,-255.0,-99.0,0
76,24.0,-255.0,-100.0,0
77,24.0,-251.0,-97.0,0
78,25.0,-253.0,-95.0,0
79,22.0,-252.0,-98.0,0
80,22.0,-253.0,-98.0,0
81,27.0,-249.0,-99.0,0
82,24.0,-255.0,-99.0,0
83,24.0,-253.0,-97.0,0
84,22.0,-252.0,-97.0,0
85,25.0,-255.0,-99.0,0
86,24.0,-254.0,-96.0,0
87,24.0,-256.0,-99.0,0
88,28.0,-253.0,-96.0,0
89,21.0,-254.0,-99.0,0
90,23.0,-254.0,-95.0,0
91,23.0,-256.0,-99.0,0
92,21.0,-254.0,-92.0,0
93,23.0,-254.0,-96.0,0
94,21.0,-254.0,-97.0,0
95,23.0,-254.0,-98.0,0
96,25.0,-256.0,-98.0,0
97,25.0,-254.0,-97.0,0
98,22.0,-254.0,-96.0,0
99,25.0,-255.0,-104.0,0
100,23.0,-252.0,-94.0,0
101,24.0,-254.0,-96.0,0
102,26.0,-256.0,-100.0,0
103,26.0,-252.0,-99.0,0
104,25.0,-254.0,-96.0,0
105,24.0,-255.0,-95.0,0
106,24.0,-254.0,-101.0,0
107,27.0,-254.0,-100.0,0
108,25.0,-255.0,-94.0,0
109,25.0,-253.0,-95.0,0
110,23.0,-251.0,-97.0,0
111,23.0,-252.0,-97.0,0
112,26.0,-257.0,-102.0,0
113,25.0,-255.0,-100.0,0
114,26.0,-254.0,-101.0,0
115,26.0,-255.0,-96.0,0
116,23.0,-253.0,-97.0,0
117,25.0,-255.0,-102.0,0
118,23.0,-255.0,-97.0,0
119,26.0,-255.0,-96.0,0
120,23.0,-254.0,-97.0,0
121,23.0,-253.0,-93.0,0
122,24.0,-256.0,-97.0,0
123,24.0,-253.0,-98.0,0
124,22.0,-258.0,-100.0,0
125,23.0,-253.0,-98.0,0
126,25.0,-255.0,-98.0,0
127,26.0,-256.0,-96.0,0
128,26.0,-256.0,-97.0,0
129,24.0,-256.0,-98.0,0
130,28.0,-255.0,-96.0,0
131,30.0,-256.0,-97.0,0
132,27.0,-255.0,-97.0,0
133,27.0,-256.0,-97.0,0
134,26.0,-253.0,-100.0,0
135,16.0,-250.0,-102.0,0
136,22.0,-252.0,-99.0,0
137,23.0,-253.0,-100.0,0
138,23.0,-251.0,-98.0,0
139,24.0,-254.0,-101.0,0
140,24.0,-255.0,-97.0,0
141,25.0,-255.0,-99.0,0
142,22.0,-254.0,-98.0,0
143,24.0,-253.0,-94.0,0
144,25.0,-250.0,-97.0,0
145,21.0,-253.0,-98.0,0
146,24.0,-252.0,-98.0,0
147,24.0,-253.0,-101.0,0
148,24.0,-255.0,-99.0,0
149,23.0,-253.0,-95.0,0
150,26.0,-254.0,-99.0,0
151,26.0,-253.0,-98.0,0
152,27.0,-253.0,-98.0,0
153,24.0,-252.0,-100.0,0
154,21.0,-256.0,-99.0,0
155,24.0,-255.0,-96.0,0
156,21.0,-253.0,-98.0,0
157,23.0,-255.0,-96.0,0
158,21.0,-251.0,-97.0,0
159,25.0,-256.0,-100.0,0
160,21.0,-255.0,-101.0,0
161,20.0,-253.0,-99.0,0
162,26.0,-252.0,-98.0,0
163,25.0,-255.0,-99.0,0
164,23.0,-253.0,-98.0,0
165,22.0,-249.0,-99.0,0
166,24.0,-253.0,-101.0,0
167,25.0,-252.0,-100.0,0
168,20.0,-252.0,-96.0,0
169,22.0,-255.0,-101.0,0
170,24.0,-254.0,-98.0,0
171,23.0,-251.0,-102.0,0
172,23.0,-254.0,-97.0,0
173,25.0,-252.0,-96.0,0
174,24.0,-252.0,-96.0,0
175,26.0,-253.0,-95.0,0
176,26.0,-252.0,-99.0,0
177,26.0,-253.0,-102.0,0
178,23.0,-253.0,-96.0,0
179,24.0,-254.0,-94.0,0
180,23.0,-250.0,-95.0,0
181,22.0,-254.0,-98.0,0
182,23.0,-255.0,-96.0,0
183,24.0,-255.0,-99.0,0
184,21.0,-255.0,-95.0,0
185,21.0,-254.0,-99.0,0
186,24.0,-254.0,-99.0,0
187,19.0,-254.0,-97.0,0
188,24.0,-255.0,-96.0,0
189,26.0,-256.0,-96.0,0
190,28.0,-256.0,-96.0,0
191,24.0,-255.0,-94.0,0
192,25.0,-255.0,-97.0,0
193,24.0,-256.0,-101.0,0
194,25.0,-256.0,-99.0,0
195,25.0,-256.0,-93.0,0
196,24.0,-256.0,-96.0,0
197,23.0,-252.0,-95.0,0
198,22.0,-251.0,-100.0,0
199,21.0,-252.0,-100.0,0
200,26.0,-255.0,-101.0,0
201,29.0,-253.0,-95.0,0
202,23.0,-255.0,-96.0,0
203,25.0,-253.0,-97.0,0
204,26.0,-253.0,-101.0,0
205,25.0,-253.0,-99.0,0
206,28.0,-255.0,-98.0,0
207,28.0,-253.0,-100.0,0
208,24.0,-255.0,-99.0,0
209,25.0,-251.0,-95.0,0
210,25.0,-255.0,-97.0,0
211,28.0,-254.0,-95.0,0
212,27.0,-257.0,-96.0,0
213,25.0,-254.0,-93.0,0
214,28.0,-254.0,-98.0,0
215,23.0,-255.0,-95.0,0
216,25.0,-254.0,-95.0,0
217,25.0,-254.0,-94.0,0
218,23.0,-252.0,-99.0,0
219,26.0,-257.0,-96.0,0
220,32.0,-257.0,-94.0,0
221,24.0,-255.0,-101.0,0
222,20.0,-257.0,-94.0,0
223,24.0,-254.0,-95.0,0
224,25.0,-255.0,-96.0,0
225,27.0,-255.0,-97.0,0
226,24.0,-255.0,-99.0,0
227,21.0,-255.0,-98.0,0
228,23.0,-256.0,-95.0,0
229,23.0,-252.0,-96.0,0
230,23.0,-257.0,-97.0,0
231,20.0,-253.0,-92.0,0
232,21.0,-255.0,-97.0,0
233,20.0,-250.0,-91.0,0
234,24.0,-255.0,-98.0,0
235,24.0,-253.0,-96.0,0
236,21.0,-249.0,-94.0,0
237,23.0,-254.0,-96.0,0
238,23.0,-254.0,-96.0,0
239,22.0,-254.0,-95.0,0
240,21.0,-256.0,-100.0,0
241,23.0,-256.0,-98.0,0
242,20.0,-252.0,-97.0,0
243,25.0,-254.0,-99.0,0
244,20.0,-255.0,-98.0,0
245,20.0,-252.0,-100.0,0
246,21.0,-253.0,-95.0,0
247,24.0,-253.0,-95.0,0
248,24.0,-252.0,-96.0,0
249,26.0,-253.0,-94.0,0
250,27.0,-251.0,-96.0,0
251,29.0,-255.0,-95.0,0
252,27.0,-253.0,-95.0,0
253,29.0,-253.0,-96.0,0
254,27.0,-255.0,-89.0,0
255,25.0,-254.0,-99.0,0
256,30.0,-257.0,-93.0,0
257,24.0,-255.0,-92.0,0
258,27.0,-256.0,-96.0,0
259,28.0,-256.0,-94.0,0
260,22.0,-255.0,-97.0,0
261,28.0,-256.0,-93.0,0
262,25.0,-255.0,-98.0,0
263,28.0,-257.0,-95.0,0
264,28.0,-257.0,-95.0,0
265,23.0,-257.0,-98.0,0
266,26.0,-254.0,-92.0,0
267,26.0,-254.0,-97.0,0
268,29.0,-255.0,-98.0,0
269,26.0,-253.0,-99.0,0
270,27.0,-255.0,-99.0,0
271,28.0,-257.0,-99.0,0
272,25.0,-252.0,-98.0,0
273,26.0,-251.0,-97.0,0
274,25.0,-253.0,-102.0,0
275,27.0,-252.0,-100.0,0
276,27.0,-250.0,-96.0,0
277,26.0,-247.0,-93.0,0
278,27.0,-251.0,-98.0,0
279,27.0,-254.0,-97.0,0
280,29.0,-255.0,-98.0,0
281,25.0,-250.0,-97.0,0
282,28.0,-254.0,-98.0,0
283,24.0,-254.0,-99.0,0
284,25.0,-253.0,-102.0,0
285,26.0,-252.0,-102.0,0
286,23.0,-254.0,-100.0,0
287,24.0,-252.0,-93.0,0
288,31.0,-252.0,-95.0,0
289,26.0,-253.0,-98.0,0
290,26.0,-256.0,-98.0,0
291,26.0,-254.0,-97.0,0
292,25.0,-256.0,-98.0,0
293,25.0,-255.0,-97.0,0
294,24.0,-254.0,-100.0,0
295,26.0,-256.0,-96.0,0
296,28.0,-255.0,-94.0,0
297,26.0,-255.0,-98.0,0
298,24.0,-253.0,-102.0,0
299,21.0,-255.0,-107.0,0
300,26.0,-254.0,-98.0,0
301,26.0,-252.0,-97.0,0
302,27.0,-254.0,-98.0,0
303,27.0,-254.0,-99.0,0
304,27.0,-252.0,-100.0,0
305,28.0,-253.0,-97.0,0
306,26.0,-253.0,-97.0,0
307,27.0,-251.0,-95.0,0
308,31.0,-254.0,-97.0,0
309,35.0,-255.0,-102.0,0
310,30.0,-255.0,-101.0,0
311,27.0,-255.0,-101.0,0
312,27.0,-255.0,-96.0,0
313,26.0,-252.0,-99.0,0
314,26.0,-255.0,-96.0,0
315,25.0,-253.0,-96.0,0
316,29.0,-256.0,-93.0,0
317,27.0,-254.0,-93.0,0
318,24.0,-255.0,-93.0,0
319,24.0,-252.0,-94.0,0
320,22.0,-257.0,-93.0,0
321,26.0,-254.0,-98.0,0
322,25.0,-253.0,-95.0,0
323,26.0,-257.0,-97.0,0
324,29.0,-255.0,-98.0,0
325,28.0,-252.0,-97.0,0
326,30.0,-255.0,-98.0,0
327,23.0,-255.0,-98.0,0
328,28.0,-255.0,-95.0,0
329,28.0,-255.0,-98.0,0
330,26.0,-252.0,-96.0,0
331,27.0,-252.0,-98.0,0
332,29.0,-253.0,-101.0,0
333,27.0,-254.0,-99.0,0
334,26.0,-254.0,-96.0,0
335,25.0,-253.0,-97.0,0
336,27.0,-256.0,-101.0,0
337,24.0,-252.0,-97.0,0
338,27.0,-254.0,-100.0,0
339,28.0,-255.0,-96.0,0
340,28.0,-255.0,-95.0,0
341,29.0,-255.0,-96.0,0
342,30.0,-252.0,-98.0,0
343,26.0,-254.0,-98.0,0
344,28.0,-255.0,-94.0,0
345,25.0,-254.0,-93.0,0
346,24.0,-254.0,-100.0,0
347,25.0,-253.0,-96.0,0
348,24.0,-256.0,-95.0,0
349,26.0,-255.0,-95.0,0
350,24.0,-251.0,-97.0,0
351,25.0,-255.0,-101.0,0
352,29.0,-254.0,-92.0,0
353,27.0,-253.0,-96.0,0
354,25.0,-254.0,-100.0,0
355,26.0,-252.0,-97.0,0
356,27.0,-254.0,-97.0,0
357,28.0,-255.0,-96.0,0
358,25.0,-252.0,-94.0,0
359,29.0,-255.0,-97.0,0
360,26.0,-254.0,-100.0,0
361,29.0,-256.0,-101.0,0
362,25.0,-255.0,-98.0,0
363,28.0,-255.0,-102.0,0
364,27.0,-252.0,-93.0,0
365,29.0,-252.0,-100.0,0
366,27.0,-255.0,-99.0,0
367,29.0,-258.0,-96.0,0
368,28.0,-254.0,-99.0,0
369,26.0,-255.0,-101.0,0
370,28.0,-256.0,-94.0,0
371,30.0,-254.0,-98.0,0
372,27.0,-253.0,-98.0,0
373,30.0,-255.0,-97.0,0
374,25.0,-253.0,-98.0,0
375,37.0,-252.0,-94.0,0
376,30.0,-256.0,-96.0,0
377,28.0,-253.0,-97.0,0
378,28.0,-254.0,-99.0,0
379,30.0,-255.0,-95.0,0
380,29.0,-254.0,-95.0,0
381,27.0,-253.0,-92.0,0
382,28.0,-253.0,-94.0,0
383,27.0,-256.0,-99.0,0
384,33.0,-254.0,-94.0,0
385,31.0,-253.0,-97.0,0
386,31.0,-253.0,-105.0,0
387,30.0,-253.0,-99.0,0
388,29.0,-255.0,-97.0,0
389,28.0,-255.0,-96.0,0
390,29.0,-255.0,-97.0,0
391,31.0,-255.0,-95.0,0
392,29.0,-253.0,-98.0,0
393,28.0,-254.0,-102.0,0
394,26.0,-253.0,-99.0,0
395,28.0,-255.0,-97.0,0
396,31.0,-255.0,-89.0,0
397,25.0,-244.0,-96.0,0
398,31.0,-256.0,-100.0,0
399,27.0,-255.0,-97.0,0
400,28.0,-253.0,-99.0,0
401,28.0,-256.0,-98.0,0
402,28.0,-254.0,-94.0,0
403,29.0,-254.0,-95.0,0
404,29.0,-257.0,-99.0,0
405,30.0,-253.0,-95.0,0
406,27.0,-255.0,-99.0,0
407,24.0,-248.0,-96.0,0
408,29.0,-255.0,-96.0,0
409,28.0,-255.0,-96.0,0
410,28.0,-254.0,-95.0,0
411,28.0,-258.0,-94.0,0
412,29.0,-255.0,-95.0,0
413,27.0,-255.0,-95.0,0
414,31.0,-255.0,-94.0,0
415,31.0,-255.0,-101.0,0
416,26.0,-254.0,-96.0,0
417,32.0,-256.0,-100.0,0
418,27.0,-252.0,-94.0,0
419,30.0,-256.0,-98.0,0
420,30.0,-256.0,-98.0,0
421,28.0,-255.0,-93.0,0
422,28.0,-253.0,-95.0,0
423,29.0,-253.0,-95.0,0
424,30.0,-254.0,-96.0,0
425,27.0,-256.0,-95.0,0
426,31.0,-254.0,-96.0,0
427,30.0,-256.0,-97.0,0
428,29.0,-257.0,-98.0,0
429,28.0,-255.0,-102.0,0
430,28.0,-255.0,-97.0,0
431,29.0,-252.0,-95.0,0
432,28.0,-252.0,-96.0,0
433,29.0,-251.0,-95.0,0
434,31.0,-254.0,-97.0,0
435,26.0,-254.0,-97.0,0
436,31.0,-253.0,-96.0,0
437,27.0,-253.0,-94.0,0
438,31.0,-258.0,-101.0,0
439,27.0,-249.0,-88.0,0
440,31.0,-253.0,-93.0,0
441,29.0,-254.0,-94.0,0
442,28.0,-255.0,-95.0,0
443,29.0,-255.0,-96.0,0
444,29.0,-256.0,-92.0,0
445,30.0,-254.0,-94.0,0
446,31.0,-254.0,-98.0,0
447,24.0,-251.0,-93.0,0
448,28.0,-255.0,-96.0,0
449,29.0,-255.0,-97.0,0
450,29.0,-256.0,-92.0,0
451,27.0,-253.0,-96.0,0
452,27.0,-255.0,-96.0,0
453,27.0,-254.0,-99.0,0
454,29.0,-253.0,-96.0,0
455,27.0,-253.0,-95.0,0
456,25.0,-253.0,-93.0,0
457,28.0,-258.0,-94.0,0
458,28.0,-252.0,-91.0,0
459,28.0,-255.0,-95.0,0
460,28.0,-254.0,-96.0,0
461,27.0,-252.0,-91.0,0
462,28.0,-254.0,-95.0,0
463,28.0,-253.0,-100.0,0
464,28.0,-250.0,-97.0,0
465,28.0,-254.0,-96.0,0
466,28.0,-252.0,-99.0,0
467,32.0,-254.0,-94.0,0
468,29.0,-254.0,-95.0,0
469,26.0,-253.0,-97.0,0
470,27.0,-255.0,-94.0,0
471,27.0,-256.0,-97.0,0
472,30.0,-256.0,-100.0,0
473,29.0,-258.0,-105.0,0
474,27.0,-252.0,-97.0,0
475,27.0,-256.0,-95.0,0
476,30.0,-255.0,-95.0,0
477,27.0,-252.0,-95.0,0
478,28.0,-254.0,-97.0,0
479,29.0,-253.0,-95.0,0
480,28.0,-253.0,-98.0,0
481,30.0,-256.0,-93.0,0
482,27.0,-252.0,-95.0,0
483,28.0,-254.0,-101.0,0
484,24.0,-252.0,-98.0,0
485,29.0,-255.0,-97.0,0
486,29.0,-255.0,-98.0,0
487,28.0,-255.0,-97.0,0
488,25.0,-254.0,-93.0,0
489,26.0,-254.0,-95.0,0
490,27.0,-255.0,-94.0,0
491,31.0,-253.0,-92.0,0
492,28.0,-254.0,-89.0,0
493,28.0,-254.0,-98.0,0
494,27.0,-253.0,-94.0,0
495,23.0,-254.0,-88.0,0
496,27.0,-253.0,-101.0,0
497,31.0,-254.0,-97.0,0
498,31.0,-253.0,-100.0,0
499,30.0,-255.0,-95.0,0
500,27.0,-252.0,-93.0,0
501,31.0,-254.0,-96.0,0
502,28.0,-252.0,-93.0,0
503,28.0,-252.0,-96.0,0
504,30.0,-253.0,-94.0,0
505,31.0,-249.0,-94.0,0
506,29.0,-253.0,-84.0,0
507,27.0,-255.0,-96.0,0
508,28.0,-252.0,-97.0,0
509,28.0,-255.0,-98.0,0
510,29.0,-255.0,-94.0,0
511,27.0,-253.0,-97.0,0
512,29.0,-254.0,-96.0,0
513,27.0,-254.0,-97.0,0
514,31.0,-254.0,-93.0,0
515,27.0,-256.0,-94.0,0
516,31.0,-255.0,-96.0,0
517,28.0,-255.0,-95.0,0
518,26.0,-255.0,-96.0,0
519,28.0,-255.0,-98.0,0
520,29.0,-256.0,-99.0,0
521,30.0,-255.0,-100.0,0
522,27.0,-253.0,-96.0,0
523,29.0,-253.0,-95.0,0
524,25.0,-253.0,-92.0,0
525,29.0,-253.0,-99.0,0
526,30.0,-255.0,-96.0,0
527,33.0,-254.0,-99.0,0
528,30.0,-257.0,-96.0,0
529,27.0,-255.0,-93.0,0
530,30.0,-254.0,-97.0,0
531,31.0,-255.0,-95.0,0
532,28.0,-255.0,-95.0,0
533,30.0,-255.0,-96.0,0
534,24.0,-254.0,-98.0,0
535,27.0,-256.0,-96.0,0
536,25.0,-254.0,-99.0,0
537,26.0,-255.0,-97.0,0
538,31.0,-253.0,-91.0,0
539,27.0,-252.0,-97.0,0
540,27.0,-256.0,-96.0,0
541,27.0,-254.0,-95.0,0
542,27.0,-253.0,-97.0,0
543,26.0,-253.0,-97.0,0
544,29.0,-253.0,-96.0,0
545,28.0,-256.0,-96.0,0
546,31.0,-255.0,-95.0,0
547,30.0,-254.0,-100.0,0
548,29.0,-253.0,-94.0,0
549,22.0,-255.0,-102.0,0
550,30.0,-256.0,-95.0,0
551,28.0,-255.0,-96.0,0
552,27.0,-255.0,-92.0,0
553,27.0,-254.0,-97.0,0
554,29.0,-255.0,-98.0,0
555,28.0,-255.0,-94.0,0
556,30.0,-256.0,-100.0,0
557,27.0,-252.0,-95.0,0
558,26.0,-254.0,-95.0,0
559,31.0,-256.0,-99.0,0
560,25.0,-251.0,-100.0,0
561,28.0,-256.0,-95.0,0
562,28.0,-254.0,-97.0,0
563,26.0,-254.0,-98.0,0
564,28.0,-253.0,-94.0,0
565,29.0,-254.0,-95.0,0
566,29.0,-254.0,-97.0,0
567,30.0,-255.0,-92.0,0
568,29.0,-253.0,-93.0,0
569,28.0,-256.0,-96.0,0
570,29.0,-252.0,-94.0,0
571,30.0,-253.0,-99.0,0
572,28.0,-254.0,-96.0,0
573,28.0,-255.0,-96.0,0
574,31.0,-253.0,-97.0,0
575,26.0,-255.0,-94.0,0
576,30.0,-253.0,-94.0,0
577,31.0,-255.0,-94.0,0
578,31.0,-256.0,-101.0,0
579,26.0,-256.0,-96.0,0
580,29.0,-255.0,-96.0,0
581,30.0,-256.0,-93.0,0
582,28.0,-252.0,-95.0,0
583,27.0,-254.0,-95.0,0
584,28.0,-253.0,-93.0,0
585,30.0,-254.0,-94.0,0
586,28.0,-253.0,-95.0,0
587,29.0,-254.0,-94.0,0
588,28.0,-253.0,-95.0,0
589,30.0,-254.0,-95.0,0
590,26.0,-253.0,-96.0,0
591,27.0,-256.0,-94.0,0
592,27.0,-256.0,-96.0,0
593,30.0,-257.0,-100.0,0
594,29.0,-254.0,-96.0,0
595,28.0,-254.0,-96.0,0
596,30.0,-253.0,-98.0,0
597,28.0,-251.0,-96.0,0
598,25.0,-253.0,-95.0,0
599,27.0,-254.0,-94.0,0
600,29.0,-253.0,-94.0,0
601,31.0,-256.0,-96.0,0
602,28.0,-256.0,-96.0,0
603,31.0,-257.0,-100.0,0
604,27.0,-249.0,-96.0,0
605,31.0,-256.0,-97.0,0
606,29.0,-253.0,-93.0,0
607,30.0,-256.0,-95.0,0
608,28.0,-254.0,-94.0,0
609,33.0,-255.0,-101.0,0
610,30.0,-253.0,-92.0,0
611,27.0,-252.0,-95.0,0
612,26.0,-249.0,-99.0,0
613,30.0,-253.0,-96.0,0
614,28.0,-254.0,-97.0,0
615,33.0,-253.0,-87.0,0
616,32.0,-255.0,-98.0,0
617,29.0,-253.0,-96.0,0
618,29.0,-254.0,-94.0,0
619,28.0,-252.0,-94.0,0
620,28.0,-253.0,-95.0,0
621,30.0,-253.0,-95.0,0
622,28.0,-252.0,-95.0,0
623,29.0,-251.0,-94.0,0
624,30.0,-253.0,-94.0,0
625,33.0,-259.0,-92.0,0
626,25.0,-252.0,-96.0,0
627,28.0,-255.0,-96.0,0
628,29.0,-255.0,-99.0,0
629,31.0,-255.0,-98.0,0
630,30.0,-256.0,-93.0,0
631,30.0,-255.0,-94.0,0
632,27.0,-249.0,-95.0,0
633,32.0,-256.0,-98.0,0
634,30.0,-254.0,-92.0,0
635,28.0,-254.0,-93.0,0
636,22.0,-253.0,-106.0,0
637,30.0,-253.0,-99.0,0
638,30.0,-254.0,-96.0,0
639,30.0,-256.0,-94.0,0
640,30.0,-255.0,-92.0,0
641,30.0,-253.0,-97.0,0
642,28.0,-254.0,-96.0,0
643,28.0,-252.0,-100.0,0
644,31.0,-255.0,-94.0,0
645,30.0,-252.0,-96.0,0
646,30.0,-255.0,-89.0,0
647,27.0,-245.0,-101.0,0
648,29.0,-254.0,-97.0,0
649,27.0,-255.0,-96.0,0
650,28.0,-255.0,-98.0,0
651,31.0,-256.0,-93.0,0
652,28.0,-254.0,-95.0,0
653,31.0,-256.0,-95.0,0
654,29.0,-253.0,-95.0,0
655,29.0,-252.0,-94.0,0
656,30.0,-253.0,-95.0,0
657,31.0,-256.0,-96.0,0
658,33.0,-248.0,-86.0,0
659,29.0,-255.0,-93.0,0
660,31.0,-256.0,-95.0,0
661,28.0,-253.0,-96.0,0
662,31.0,-253.0,-97.0,0
663,29.0,-253.0,-94.0,0
664,29.0,-256.0,-100.0,0
665,29.0,-256.0,-99.0,0
666,29.0,-255.0,-95.0,0
667,26.0,-252.0,-94.0,0
668,29.0,-252.0,-95.0,0
669,30.0,-255.0,-97.0,0
670,32.0,-255.0,-96.0,0
671,29.0,-254.0,-94.0,0
672,28.0,-255.0,-93.0,0
673,29.0,-255.0,-94.0,0
674,27.0,-253.0,-92.0,0
675,31.0,-254.0,-92.0,0
676,32.0,-256.0,-94.0,0
677,32.0,-255.0,-92.0,0
678,31.0,-253.0,-93.0,0
679,28.0,-255.0,-91.0,0
680,27.0,-254.0,-93.0,0
681,31.0,-254.0,-92.0,0
682,32.0,-255.0,-94.0,0
683,29.0,-253.0,-96.0,0
684,30.0,-252.0,-95.0,0
685,31.0,-255.0,-94.0,0
686,30.0,-256.0,-93.0,0
687,31.0,-254.0,-95.0,0
688,30.0,-253.0,-92.0,0
689,33.0,-253.0,-94.0,0
690,33.0,-254.0,-93.0,0
691,26.0,-261.0,-90.0,0
692,31.0,-255.0,-92.0,0
693,30.0,-254.0,-95.0,0
694,32.0,-253.0,-91.0,0
695,30.0,-253.0,-95.0,0
696,32.0,-254.0,-92.0,0
697,31.0,-256.0,-97.0,0
698,29.0,-253.0,-93.0,0
699,30.0,-254.0,-99.0,0
700,32.0,-258.0,-97.0,0
701,32.0,-255.0,-99.0,0
702,32.0,-254.0,-97.0,0
703,28.0,-253.0,-93.0,0
704,30.0,-253.0,-94.0,0
705,30.0,-255.0,-93.0,0
706,34.0,-255.0,-93.0,0
707,34.0,-254.0,-95.0,0
708,32.0,-254.0,-99.0,0
709,32.0,-255.0,-98.0,0
710,32.0,-254.0,-97.0,0
711,34.0,-254.0,-91.0,0
712,32.0,-253.0,-92.0,0
713,29.0,-252.0,-88.0,0
714,30.0,-253.0,-92.0,0
715,33.0,-254.0,-96.0,0
716,33.0,-253.0,-98.0,0
717,30.0,-254.0,-97.0,0
718,33.0,-253.0,-94.0,0
719,32.0,-256.0,-97.0,0
720,33.0,-256.0,-97.0,0
721,33.0,-256.0,-94.0,0
722,32.0,-256.0,-91.0,0
723,35.0,-255.0,-92.0,0
724,33.0,-254.0,-95.0,0
725,31.0,-252.0,-94.0,0
726,36.0,-255.0,-91.0,0
727,33.0,-256.0,-98.0,0
728,32.0,-256.0,-97.0,0
729,32.0,-254.0,-97.0,0
730,30.0,-253.0,-95.0,0
731,33.0,-255.0,-93.0,0
732,29.0,-252.0,-91.0,0
733,33.0,-256.0,-95.0,0
734,29.0,-253.0,-95.0,0
735,33.0,-252.0,-94.0,0
736,33.0,-255.0,-95.0,0
737,32.0,-256.0,-93.0,0
738,34.0,-255.0,-94.0,0
739,32.0,-252.0,-96.0,0
740,33.0,-256.0,-94.0,0
741,33.0,-255.0,-96.0,0
742,36.0,-257.0,-99.0,0
743,33.0,-254.0,-94.0,0
744,35.0,-256.0,-97.0,0
745,30.0,-247.0,-94.0,0
746,31.0,-253.0,-95.0,0
747,34.0,-256.0,-98.0,0
748,37.0,-254.0,-94.0,0
749,35.0,-255.0,-93.0,0
750,31.0,-255.0,-99.0,0
751,32.0,-255.0,-95.0,0
752,33.0,-255.0,-96.0,0
753,33.0,-255.0,-93.0,0
754,34.0,-250.0,-93.0,0
755,33.0,-253.0,-94.0,0
756,37.0,-256.0,-89.0,0
757,35.0,-251.0,-92.0,0
758,36.0,-254.0,-92.0,0
759,35.0,-251.0,-98.0,0
760,35.0,-253.0,-96.0,0
761,36.0,-254.0,-95.0,0
762,35.0,-255.0,-93.0,0
763,32.0,-253.0,-96.0,0
764,34.0,-252.0,-90.0,0
765,34.0,-255.0,-97.0,0
766,35.0,-254.0,-92.0,0
767,37.0,-255.0,-88.0,0
768,36.0,-255.0,-91.0,0
769,35.0,-254.0,-93.0,0
770,35.0,-254.0,-92.0,0
771,33.0,-252.0,-96.0,0
772,37.0,-252.0,-93.0,0
773,34.0,-251.0,-91.0,0
774,35.0,-252.0,-97.0,0
775,37.0,-254.0,-97.0,0
776,38.0,-255.0,-97.0,0
777,35.0,-254.0,-96.0,0
778,36.0,-255.0,-92.0,0
779,37.0,-255.0,-95.0,0
780,35.0,-256.0,-94.0,0
781,36.0,-253.0,-92.0,0
782,35.0,-255.0,-92.0,0
783,38.0,-255.0,-91.0,0
784,34.0,-255.0,-88.0,0
785,36.0,-254.0,-95.0,0
786,40.0,-256.0,-94.0,0
787,37.0,-252.0,-92.0,0
788,41.0,-255.0,-93.0,0
789,34.0,-257.0,-92.0,0
790,38.0,-256.0,-90.0,0
791,36.0,-254.0,-96.0,0
792,38.0,-255.0,-94.0,0
793,39.0,-255.0,-97.0,0
794,37.0,-256.0,-93.0,0
795,40.0,-255.0,-93.0,0
796,41.0,-253.0,-94.0,0
797,41.0,-253.0,-94.0,0
798,41.0,-255.0,-94.0,0
799,38.0,-252.0,-92.0,0
800,41.0,-254.0,-95.0,0
801,42.0,-253.0,-91.0,0
802,41.0,-254.0,-93.0,0
803,42.0,-254.0,-90.0,0
804,42.0,-254.0,-94.0,0
805,39.0,-253.0,-90.0,0
806,40.0,-254.0,-94.0,0
807,41.0,-255.0,-93.0,0
808,41.0,-254.0,-94.0,0
809,41.0,-254.0,-90.0,0
810,39.0,-252.0,-93.0,0
811,46.0,-247.0,-86.0,0
812,41.0,-252.0,-93.0,0
813,38.0,-253.0,-91.0,0
814,43.0,-256.0,-93.0,0
815,40.0,-252.0,-90.0,0
816,41.0,-254.0,-91.0,0
817,40.0,-254.0,-92.0,0
818,44.0,-255.0,-95.0,0
819,37.0,-252.0,-94.0,0
820,46.0,-254.0,-90.0,0
821,44.0,-253.0,-92.0,0
822,39.0,-254.0,-93.0,0
823,43.0,-255.0,-91.0,0
824,42.0,-255.0,-92.0,0
825,43.0,-255.0,-88.0,0
826,43.0,-255.0,-91.0,0
827,46.0,-254.0,-93.0,0
828,45.0,-254.0,-91.0,0
829,44.0,-252.0,-91.0,0
830,43.0,-254.0,-92.0,0
831,42.0,-253.0,-90.0,0
832,39.0,-250.0,-95.0,0
833,44.0,-255.0,-92.0,0
834,45.0,-255.0,-90.0,0
835,45.0,-254.0,-91.0,0
836,45.0,-252.0,-91.0,0
837,43.0,-253.0,-94.0,0
838,42.0,-253.0,-89.0,0
839,42.0,-251.0,-89.0,0
840,43.0,-252.0,-89.0,0
841,44.0,-252.0,-86.0,0
842,46.0,-255.0,-91.0,0
843,42.0,-253.0,-92.0,0
844,45.0,-251.0,-86.0,0
845,46.0,-253.0,-91.0,0
846,46.0,-253.0,-92.0,0
847,43.0,-255.0,-90.0,0
848,45.0,-255.0,-92.0,0
849,46.0,-254.0,-87.0,0
850,47.0,-255.0,-87.0,0
851,45.0,-255.0,-89.0,0
852,47.0,-253.0,-89.0,0
853,47.0,-253.0,-90.0,0
854,45.0,-255.0,-94.0,0
855,46.0,-257.0,-89.0,0
856,47.0,-255.0,-90.0,0
857,47.0,-253.0,-89.0,0
858,47.0,-254.0,-92.0,0
859,49.0,-255.0,-88.0,0
860,46.0,-252.0,-86.0,0
861,47.0,-254.0,-91.0,0
862,48.0,-254.0,-91.0,0
863,49.0,-256.0,-91.0,0
864,47.0,-254.0,-85.0,0
865,51.0,-251.0,-89.0,0
866,46.0,-253.0,-88.0,0
867,47.0,-253.0,-88.0,0
868,49.0,-256.0,-87.0,0
869,48.0,-256.0,-86.0,0
870,48.0,-254.0,-88.0,0
871,50.0,-256.0,-87.0,0
872,48.0,-254.0,-85.0,0
873,51.0,-256.0,-88.0,0
874,50.0,-253.0,-90.0,0
875,51.0,-254.0,-89.0,0
876,47.0,-253.0,-85.0,0
877,49.0,-255.0,-86.0,0
878,51.0,-255.0,-85.0,0
879,48.0,-252.0,-88.0,0
880,50.0,-253.0,-83.0,0
881,50.0,-253.0,-85.0,0
882,51.0,-251.0,-87.0,0
883,52.0,-249.0,-85.0,0
884,54.0,-253.0,-81.0,0
885,52.0,-252.0,-85.0,0
886,52.0,-252.0,-83.0,0
887,49.0,-252.0,-84.0,0
888,52.0,-253.0,-86.0,0
889,51.0,-254.0,-85.0,0
890,54.0,-254.0,-88.0,0
891,53.0,-255.0,-83.0,0
892,50.0,-252.0,-84.0,0
893,50.0,-254.0,-85.0,0
894,50.0,-253.0,-89.0,0
895,54.0,-254.0,-78.0,0
896,54.0,-256.0,-84.0,0
897,54.0,-253.0,-81.0,0
898,52.0,-256.0,-84.0,0
899,52.0,-253.0,-81.0,0
900,55.0,-255.0,-77.0,0
901,54.0,-253.0,-83.0,0
902,55.0,-252.0,-82.0,0
903,55.0,-254.0,-82.0,0
904,55.0,-253.0,-81.0,0
905,55.0,-253.0,-81.0,0
906,57.0,-253.0,-79.0,0
907,55.0,-251.0,-78.0,0
908,55.0,-250.0,-87.0,0
909,63.0,-253.0,-80.0,0
910,59.0,-253.0,-84.0,0
911,58.0,-253.0,-80.0,0
912,61.0,-252.0,-78.0,0
913,62.0,-253.0,-79.0,0
914,86.0,-235.0,-95.0,0
915,47.0,-256.0,-72.0,0
916,55.0,-262.0,-80.0,0
917,58.0,-254.0,-74.0,0
918,61.0,-253.0,-80.0,0
919,61.0,-252.0,-80.0,0
920,59.0,-254.0,-81.0,0
921,61.0,-255.0,-80.0,0
922,63.0,-254.0,-79.0,0
923,60.0,-253.0,-83.0,0
924,61.0,-253.0,-80.0,0
925,63.0,-252.0,-75.0,0
926,63.0,-249.0,-75.0,0
927,66.0,-249.0,-71.0,0
928,64.0,-255.0,-75.0,0
929,68.0,-253.0,-79.0,0
930,60.0,-251.0,-75.0,0
931,67.0,-251.0,-71.0,0
932,67.0,-254.0,-72.0,0
933,65.0,-253.0,-73.0,0
934,67.0,-255.0,-71.0,0
935,68.0,-254.0,-68.0,0
936,71.0,-253.0,-73.0,0
937,67.0,-250.0,-77.0,0
938,69.0,-244.0,-73.0,0
939,63.0,-254.0,-68.0,0
940,66.0,-254.0,-69.0,0
941,65.0,-254.0,-70.0,0
942,69.0,-252.0,-67.0,0
943,72.0,-251.0,-67.0,0
944,72.0,-252.0,-70.0,0
945,73.0,-253.0,-69.0,0
946,71.0,-250.0,-72.0,0
947,74.0,-252.0,-66.0,0
948,73.0,-250.0,-65.0,0
949,74.0,-251.0,-69.0,0
950,77.0,-254.0,-66.0,0
951,72.0,-251.0,-61.0,0
952,77.0,-253.0,-67.0,0
953,74.0,-252.0,-65.0,0
954,73.0,-250.0,-66.0,0
955,76.0,-248.0,-68.0,0
956,76.0,-250.0,-63.0,0
957,76.0,-251.0,-62.0,0
958,75.0,-248.0,-64.0,0
959,77.0,-250.0,-62.0,0
960,77.0,-251.0,-67.0,0
961,76.0,-249.0,-61.0,0
962,79.0,-250.0,-68.0,0
963,82.0,-251.0,-60.0,0
964,81.0,-251.0,-62.0,0
965,81.0,-250.0,-59.0,0
966,81.0,-250.0,-58.0,0
967,81.0,-252.0,-64.0,0
968,81.0,-250.0,-62.0,0
969,84.0,-249.0,-60.0,0
970,85.0,-250.0,-59.0,0
971,86.0,-250.0,-59.0,0
972,84.0,-250.0,-58.0,0
973,88.0,-249.0,-56.0,0
974,86.0,-249.0,-57.0,0
975,86.0,-250.0,-57.0,0
976,87.0,-250.0,-59.0,0
977,86.0,-249.0,-56.0,0
978,86.0,-250.0,-53.0,0
979,88.0,-251.0,-55.0,0
980,88.0,-252.0,-55.0,0
981,87.0,-251.0,-54.0,0
982,85.0,-252.0,-49.0,0
983,84.0,-251.0,-55.0,0
984,85.0,-248.0,-52.0,0
985,81.0,-247.0,-55.0,0
986,87.0,-249.0,-54.0,0
987,85.0,-250.0,-55.0,0
988,89.0,-250.0,-50.0,0
989,90.0,-251.0,-51.0,0
990,91.0,-250.0,-55.0,0
991,87.0,-248.0,-50.0,0
992,92.0,-247.0,-53.0,0
993,95.0,-249.0,-54.0,0
994,95.0,-246.0,-50.0,0
995,94.0,-246.0,-51.0,0
996,89.0,-242.0,-55.0,0
997,96.0,-245.0,-49.0,0
998,95.0,-248.0,-47.0,0
999,96.0,-244.0,-49.0,0
1000,96.0,-246.0,-50.0,0
1001,99.0,-242.0,-51.0,0
1002,98.0,-244.0,-48.0,0
1003,100.0,-243.0,-48.0,0
1004,100.0,-243.0,-44.0,0
1005,98.0,-242.0,-49.0,0
1006,100.0,-244.0,-44.0,0
1007,101.0,-239.0,-41.0,0
1008,101.0,-242.0,-44.0,0
1009,103.0,-241.0,-42.0,0
1010,106.0,-242.0,-40.0,0
1011,103.0,-241.0,-41.0,0
1012,103.0,-242.0,-46.0,0
1013,104.0,-241.0,-42.0,0
1014,103.0,-245.0,-41.0,0
1015,106.0,-239.0,-40.0,0
1016,105.0,-238.0,-38.0,0
1017,109.0,-238.0,-42.0,0
1018,109.0,-246.0,-40.0,0
1019,108.0,-238.0,-35.0,0
1020,128.0,-217.0,-43.0,0
1021,101.0,-241.0,-33.0,0
1022,106.0,-247.0,-34.0,0
1023,111.0,-243.0,-36.0,0
1024,112.0,-238.0,-33.0,0
1025,110.0,-242.0,-39.0,0
1026,113.0,-240.0,-34.0,0
1027,112.0,-240.0,-33.0,0
1028,115.0,-240.0,-32.0,0
1029,113.0,-237.0,-37.0,0
1030,113.0,-233.0,-36.0,0
1031,112.0,-234.0,-37.0,0
1032,113.0,-234.0,-40.0,0
1033,116.0,-230.0,-35.0,0
1034,114.0,-231.0,-32.0,0
1035,116.0,-235.0,-30.0,0
1036,115.0,-229.0,-32.0,0
1037,122.0,-228.0,-28.0,0
1038,120.0,-229.0,-28.0,0
1039,116.0,-230.0,-25.0,0
1040,118.0,-227.0,-31.0,0
1041,120.0,-227.0,-30.0,0
1042,122.0,-226.0,-24.0,0
1043,121.0,-227.0,-24.0,0
1044,127.0,-226.0,-24.0,0
1045,123.0,-220.0,-22.0,0
1046,119.0,-225.0,-28.0,0
1047,117.0,-228.0,-22.0,0
1048,124.0,-224.0,-19.0,0
1049,126.0,-225.0,-20.0,0
1050,126.0,-228.0,-19.0,0
1051,127.0,-225.0,-27.0,0
1052,128.0,-225.0,-26.0,0
1053,130.0,-225.0,-23.0,0
1054,128.0,-221.0,-23.0,0
1055,133.0,-224.0,-20.0,0
1056,133.0,-222.0,-21.0,0
1057,133.0,-222.0,-19.0,0
1058,137.0,-220.0,-19.0,0
1059,136.0,-222.0,-22.0,0
1060,136.0,-218.0,-22.0,0
1061,140.0,-215.0,-18.0,0
1062,133.0,-218.0,-26.0,0
1063,138.0,-218.0,-19.0,0
1064,140.0,-217.0,-21.0,0
1065,137.0,-216.0,-18.0,0
1066,137.0,-215.0,-19.0,0
1067,139.0,-217.0,-19.0,0
1068,142.0,-217.0,-17.0,0
1069,136.0,-216.0,-22.0,0
1070,136.0,-215.0,-14.0,0
1071,140.0,-216.0,-15.0,0
1072,140.0,-214.0,-20.0,0
1073,138.0,-214.0,-17.0,0
1074,139.0,-212.0,-21.0,0
1075,137.0,-210.0,-17.0,0
1076,139.0,-209.0,-22.0,0
1077,137.0,-209.0,-22.0,0
1078,139.0,-210.0,-19.0,0
1079,138.0,-208.0,-25.0,0
1080,141.0,-208.0,-23.0,0
1081,139.0,-204.0,-19.0,0
1082,139.0,-206.0,-22.0,0
1083,137.0,-207.0,-16.0,0
1084,140.0,-205.0,-25.0,0
1085,140.0,-204.0,-18.0,0
1086,138.0,-201.0,-22.0,0
1087,138.0,-198.0,-23.0,0
1088,140.0,-200.0,-27.0,0
1089,143.0,-195.0,-24.0,0
1090,143.0,-192.0,-20.0,0
1091,144.0,-193.0,-23.0,0
1092,147.0,-192.0,-22.0,0
1093,144.0,-189.0,-26.0,0
1094,149.0,-190.0,-24.0,0
1095,145.0,-185.0,-19.0,0
1096,154.0,-185.0,-22.0,0
1097,153.0,-185.0,-17.0,0
1098,160.0,-181.0,-16.0,0
1099,161.0,-177.0,-17.0,0
1100,160.0,-176.0,-20.0,0
1101,160.0,-169.0,-17.0,0
1102,159.0,-168.0,-21.0,0
1103,163.0,-167.0,-21.0,0
1104,168.0,-167.0,-21.0,0
1105,164.0,-161.0,-22.0,0
1106,163.0,-155.0,-18.0,0
1107,164.0,-151.0,-23.0,0
1108,167.0,-145.0,-24.0,0
1109,165.0,-137.0,-24.0,0
1110,164.0,-135.0,-27.0,0
1111,164.0,-128.0,-27.0,0
1112,163.0,-126.0,-28.0,0
1113,162.0,-125.0,-29.0,0
1114,164.0,-123.0,-28.0,0
1115,163.0,-113.0,-25.0,0
1116,160.0,-122.0,-27.0,0
1117,160.0,-120.0,-26.0,0
1118,161.0,-121.0,-26.0,0
1119,163.0,-121.0,-22.0,0
1120,159.0,-118.0,-29.0,0
1121,156.0,-121.0,-24.0,0
1122,157.0,-115.0,-30.0,0
1123,157.0,-118.0,-25.0,0
1124,157.0,-121.0,-27.0,0
1125,160.0,-119.0,-27.0,0
1126,154.0,-119.0,-29.0,0
1127,153.0,-117.0,-33.0,0
1128,154.0,-113.0,-32.0,0
1129,150.0,-111.0,-34.0,0
1130,150.0,-114.0,-33.0,0
1131,147.0,-113.0,-34.0,0
1132,148.0,-107.0,-36.0,0
1133,145.0,-101.0,-42.0,0
1134,146.0,-94.0,-45.0,0
1135,142.0,-92.0,-42.0,0
1136,134.0,-92.0,-32.0,0
1137,139.0,-74.0,-39.0,2
1138,130.0,-71.0,-38.0,2
1139,133.0,-65.0,-36.0,2
1140,129.0,-59.0,-36.0,2
1141,131.0,-54.0,-30.0,2
1142,121.0,-60.0,-16.0,2
1143,118.0,-59.0,-18.0,2
1144,128.0,-45.0,-25.0,2
1145,137.0,-40.0,-23.0,2
1146,124.0,-50.0,-23.0,2
1147,134.0,-45.0,-29.0,2
1148,148.0,-34.0,-43.0,2
1149,152.0,-33.0,-51.0,2
1150,147.0,-48.0,-49.0,2
1151,154.0,-53.0,-51.0,2
1152,156.0,-63.0,-54.0,2
1153,154.0,-65.0,-57.0,2
1154,144.0,-68.0,-57.0,2
1155,132.0,-78.0,-56.0,2
1156,125.0,-78.0,-63.0,2
1157,129.0,-71.0,-69.0,2
1158,125.0,-76.0,-75.0,2
1159,130.0,-83.0,-76.0,2
1160,136.0,-79.0,-81.0,2
1161,137.0,-82.0,-85.0,2
1162,146.0,-79.0,-92.0,2
1163,156.0,-83.0,-102.0,2
1164,151.0,-97.0,-102.0,2
1165,203.0,-114.0,-92.0,2
1166,180.0,-120.0,-90.0,2
1167,221.0,-117.0,-73.0,2
1168,54.0,-90.0,-84.0,2
1169,91.0,-86.0,-109.0,2
1170,143.0,-70.0,-94.0,2
1171,118.0,-50.0,-82.0,2
1172,127.0,-37.0,-95.0,2
1173,188.0,-27.0,-83.0,2
1174,149.0,2.0,-23.0,2
1175,108.0,45.0,19.0,2
1176,113.0,92.0,24.0,2
1177,150.0,175.0,44.0,2
1178,186.0,279.0,76.0,2
1179,321.0,413.0,96.0,2
1180,472.0,534.0,107.0,2
1181,665.0,578.0,150.0,2
1182,861.0,578.0,171.0,2
1183,1017.0,526.0,135.0,2
1184,1117.0,397.0,42.0,2
1185,1171.0,320.0,3.0,2
1186,1168.0,319.0,-28.0,2
1187,1113.0,345.0,-136.0,2
1188,1095.0,339.0,-271.0,2
1189,1162.0,388.0,-472.0,2
1190,1193.0,618.0,-636.0,2
1191,1183.0,695.0,-621.0,2
1192,1038.0,580.0,-391.0,2
1193,896.0,379.0,-209.0,2
1194,752.0,213.0,-115.0,2
1195,601.0,131.0,-110.0,2
1196,454.0,67.0,-120.0,2
1197,327.0,18.0,-80.0,2
1198,250.0,31.0,1.0,2
1199,165.0,56.0,95.0,2
1200,66.0,51.0,172.0,2
1201,-10.0,79.0,249.0,2
1202,-20.0,108.0,286.0,2
1203,-32.0,169.0,291.0,2
1204,-66.0,227.0,249.0,2
1205,-88.0,240.0,194.0,2
1206,-74.0,220.0,121.0,2
1207,-54.0,212.0,87.0,2
1208,-57.0,198.0,53.0,2
1209,-25.0,153.0,49.0,2
1210,23.0,97.0,37.0,2
1211,66.0,40.0,17.0,2
1212,71.0,3.0,-7.0,2
1213,79.0,-34.0,-32.0,2
1214,110.0,-52.0,-54.0,2
1215,138.0,-56.0,-62.0,2
1216,171.0,-47.0,-57.0,2
1217,185.0,-18.0,-43.0,2
1218,207.0,-9.0,-34.0,2
1219,203.0,22.0,-21.0,2
1220,200.0,47.0,-13.0,2
1221,196.0,64.0,-2.0,2
1222,186.0,68.0,4.0,2
1223,199.0,82.0,7.0,2
1224,204.0,96.0,6.0,2
1225,162.0,91.0,-14.0,2
1226,157.0,101.0,-21.0,2
1227,139.0,86.0,-29.0,2
1228,156.0,83.0,-20.0,2
1229,170.0,94.0,-19.0,2
1230,167.0,97.0,-11.0,1
1231,172.0,109.0,-12.0,1
1232,175.0,118.0,-7.0,1
1233,180.0,105.0,-12.0,1
1234,196.0,107.0,-8.0,1
1235,193.0,113.0,-17.0,1
1236,204.0,112.0,-29.0,1
1237,231.0,111.0,-39.0,1
1238,258.0,101.0,-45.0,1
1239,277.0,99.0,-51.0,1
1240,296.0,96.0,-54.0,1
1241,313.0,103.0,-59.0,1
1242,322.0,110.0,-65.0,1
1243,325.0,119.0,-73.0,1
1244,345.0,127.0,-68.0,1
1245,342.0,134.0,-55.0,1
1246,337.0,135.0,-45.0,1
1247,316.0,153.0,-31.0,1
1248,336.0,155.0,-16.0,1
1249,323.0,165.0,-12.0,1
1250,321.0,171.0,2.0,1
1251,317.0,174.0,7.0,1
1252,328.0,174.0,8.0,1
1253,345.0,165.0,12.0,1
1254,363.0,145.0,14.0,1
1255,376.0,130.0,11.0,1
1256,387.0,122.0,-3.0,1
1257,373.0,113.0,-17.0,1
1258,360.0,107.0,-42.0,1
1259,360.0,95.0,-52.0,1
1260,361.0,83.0,-73.0,1
1261,360.0,72.0,-84.0,1
1262,348.0,72.0,-92.0,1
1263,323.0,76.0,-103.0,1
1264,328.0,64.0,-104.0,1
1265,307.0,61.0,-107.0,1
1266,294.0,61.0,-103.0,1
1267,288.0,51.0,-100.0,1
1268,265.0,52.0,-88.0,1
1269,253.0,48.0,-79.0,1
1270,246.0,47.0,-70.0,1
1271,238.0,40.0,-64.0,1
1272,236.0,38.0,-64.0,1
1273,222.0,44.0,-65.0,1
1274,222.0,39.0,-61.0,1
1275,217.0,40.0,-65.0,1
1276,213.0,28.0,-60.0,1
1277,214.0,24.0,-73.0,1
1278,214.0,22.0,-74.0,1
1279,210.0,20.0,-71.0,1
1280,211.0,17.0,-66.0,1
1281,215.0,18.0,-67.0,1
1282,219.0,17.0,-66.0,1
1283,213.0,20.0,-63.0,1
1284,225.0,19.0,-57.0,1
1285,227.0,26.0,-57.0,1
1286,230.0,32.0,-59.0,1
1287,240.0,43.0,-57.0,1
1288,243.0,52.0,-61.0,1
1289,251.0,51.0,-58.0,1
1290,260.0,51.0,-56.0,1
1291,267.0,54.0,-57.0,1
1292,274.0,53.0,-57.0,1
1293,280.0,50.0,-60.0,1
1294,286.0,50.0,-57.0,1
1295,293.0,48.0,-55.0,1
1296,296.0,48.0,-58.0,1
1297,301.0,45.0,-56.0,1
1298,301.0,44.0,-57.0,1
1299,301.0,43.0,-55.0,1
1300,303.0,43.0,-53.0,1
1301,299.0,40.0,-57.0,1
1302,298.0,38.0,-53.0,1
1303,297.0,39.0,-57.0,1
1304,289.0,32.0,-48.0,1
1305,290.0,30.0,-44.0,1
1306,282.0,28.0,-49.0,1
1307,277.0,22.0,-45.0,1
1308,277.0,17.0,-56.0,1
1309,279.0,16.0,-51.0,1
1310,255.0,5.0,-47.0,1
1311,260.0,2.0,-50.0,1
1312,257.0,0.0,-47.0,1
1313,257.0,-9.0,-48.0,1
1314,253.0,-8.0,-47.0,1
1315,254.0,-11.0,-49.0,1
1316,246.0,-13.0,-45.0,1
1317,245.0,-15.0,-51.0,1
1318,242.0,-12.0,-44.0,1
1319,254.0,-19.0,-46.0,1
1320,248.0,-12.0,-45.0,0
1321,249.0,-3.0,-47.0,0
1322,252.0,6.0,-47.0,0
1323,255.0,12.0,-41.0,0
1324,257.0,16.0,-47.0,0
1325,255.0,21.0,-41.0,0
1326,253.0,20.0,-40.0,0
1327,257.0,21.0,-40.0,0
1328,254.0,22.0,-38.0,0
1329,252.0,23.0,-38.0,0
1330,252.0,23.0,-39.0,0
1331,257.0,21.0,-39.0,0
1332,252.0,31.0,-38.0,0
1333,256.0,31.0,-37.0,0
1334,257.0,32.0,-39.0,0
1335,256.0,35.0,-42.0,0
1336,261.0,37.0,-39.0,0
1337,260.0,37.0,-42.0,0
1338,260.0,43.0,-41.0,0
1339,261.0,44.0,-43.0,0
1340,266.0,43.0,-44.0,0
1341,265.0,45.0,-40.0,0
1342,271.0,47.0,-44.0,0
1343,270.0,48.0,-41.0,0
1344,272.0,49.0,-40.0,0
1345,274.0,48.0,-43.0,0
1346,271.0,51.0,-38.0,0
1347,273.0,48.0,-41.0,0
1348,270.0,49.0,-41.0,0
1349,270.0,49.0,-44.0,0
1350,265.0,48.0,-44.0,0
1351,269.0,48.0,-40.0,0
1352,265.0,43.0,-46.0,0
1353,267.0,45.0,-47.0,0
1354,262.0,46.0,-42.0,0
1355,261.0,49.0,-43.0,0
1356,257.0,49.0,-40.0,0
1357,256.0,48.0,-42.0,0
1358,258.0,46.0,-47.0,0
1359,256.0,50.0,-45.0,0
1360,250.0,51.0,-47.0,0
1361,254.0,50.0,-47.0,0
1362,251.0,52.0,-42.0,0
1363,251.0,47.0,-46.0,0
1364,254.0,47.0,-47.0,0
1365,253.0,47.0,-48.0,0
1366,254.0,48.0,-52.0,0
1367,256.0,45.0,-52.0,0
1368,258.0,44.0,-51.0,0
1369,259.0,46.0,-49.0,0
1370,260.0,43.0,-53.0,0
1371,257.0,48.0,-55.0,0
1372,262.0,43.0,-56.0,0
1373,269.0,44.0,-65.0,0
1374,267.0,47.0,-58.0,0
1375,267.0,43.0,-57.0,0
1376,268.0,47.0,-58.0,0
1377,268.0,44.0,-63.0,0
1378,267.0,46.0,-62.0,0
1379,269.0,43.0,-61.0,0
1380,272.0,49.0,-61.0,0
1381,272.0,44.0,-62.0,0
1382,270.0,48.0,-64.0,0
1383,267.0,48.0,-63.0,0
1384,273.0,45.0,-67.0,0
1385,270.0,47.0,-64.0,0
1386,270.0,45.0,-66.0,0
1387,269.0,47.0,-63.0,0
1388,269.0,46.0,-62.0,0
1389,271.0,46.0,-67.0,0
1390,270.0,43.0,-62.0,0
1391,269.0,44.0,-64.0,0
1392,264.0,43.0,-63.0,0
1393,268.0,45.0,-63.0,0
1394,263.0,44.0,-59.0,0
1395,268.0,42.0,-61.0,0
1396,267.0,41.0,-59.0,0
1397,268.0,39.0,-59.0,0
1398,264.0,39.0,-60.0,0
1399,262.0,45.0,-59.0,0
1400,264.0,37.0,-55.0,0
1401,262.0,38.0,-55.0,0
1402,263.0,41.0,-56.0,0
1403,261.0,39.0,-56.0,0
1404,260.0,40.0,-56.0,0
1405,260.0,37.0,-54.0,0
1406,262.0,38.0,-55.0,0
1407,264.0,40.0,-52.0,0
1408,259.0,39.0,-53.0,0
1409,261.0,39.0,-51.0,0
1410,261.0,35.0,-54.0,0
1411,259.0,36.0,-51.0,0
1412,262.0,38.0,-51.0,0
1413,261.0,38.0,-51.0,0
1414,261.0,33.0,-49.0,0
1415,266.0,35.0,-45.0,0
1416,260.0,34.0,-52.0,0
1417,258.0,39.0,-51.0,0
1418,264.0,33.0,-51.0,0
1419,260.0,38.0,-53.0,0
1420,263.0,35.0,-48.0,0
1421,265.0,35.0,-52.0,0
1422,264.0,35.0,-52.0,0
1423,261.0,36.0,-47.0,0
1424,266.0,34.0,-50.0,0
1425,266.0,35.0,-51.0,0
1426,263.0,35.0,-52.0,0
1427,265.0,36.0,-45.0,0
1428,262.0,36.0,-47.0,0
1429,266.0,37.0,-49.0,0
1430,265.0,38.0,-50.0,0
1431,268.0,32.0,-46.0,0
1432,264.0,36.0,-47.0,0
1433,265.0,33.0,-45.0,0
1434,262.0,39.0,-47.0,0
1435,262.0,35.0,-46.0,0
1436,263.0,37.0,-46.0,0
1437,261.0,35.0,-50.0,0
1438,260.0,35.0,-46.0,0
1439,262.0,42.0,-31.0,0
1440,259.0,37.0,-44.0,0
1441,260.0,38.0,-44.0,0
1442,260.0,39.0,-47.0,0
1443,262.0,38.0,-48.0,0
1444,260.0,38.0,-44.0,0
1445,261.0,38.0,-51.0,0
1446,259.0,38.0,-45.0,0
1447,263.0,39.0,-47.0,0
1448,263.0,39.0,-46.0,0
1449,262.0,35.0,-47.0,0
1450,275.0,36.0,-51.0,0
1451,261.0,39.0,-48.0,0
1452,263.0,38.0,-51.0,0
1453,262.0,38.0,-47.0,0
1454,264.0,38.0,-49.0,0
1455,261.0,38.0,-52.0,0
1456,264.0,39.0,-47.0,0
1457,261.0,40.0,-57.0,0
1458,258.0,40.0,-47.0,0
1459,262.0,34.0,-52.0,0
1460,266.0,39.0,-47.0,0
1461,261.0,34.0,-48.0,0
1462,263.0,37.0,-53.0,0
1463,264.0,39.0,-53.0,0
1464,263.0,38.0,-54.0,0
1465,263.0,42.0,-55.0,0
1466,266.0,38.0,-55.0,0
1467,263.0,40.0,-52.0,0
1468,263.0,40.0,-51.0,0
1469,263.0,41.0,-58.0,0
1470,267.0,44.0,-53.0,0
1471,264.0,43.0,-54.0,0
1472,265.0,51.0,-57.0,0
1473,265.0,42.0,-55.0,0
1474,265.0,41.0,-56.0,0
1475,265.0,44.0,-57.0,0
1476,265.0,40.0,-55.0,0
1477,264.0,41.0,-58.0,0
1478,264.0,40.0,-49.0,0
1479,262.0,43.0,-52.0,0
1480,262.0,42.0,-53.0,0
1481,266.0,41.0,-50.0,0
1482,265.0,45.0,-50.0,0
1483,270.0,46.0,-53.0,0
1484,266.0,43.0,-54.0,0
1485,261.0,42.0,-53.0,0
1486,265.0,40.0,-51.0,0
1487,264.0,40.0,-54.0,0
1488,264.0,39.0,-54.0,0
1489,263.0,39.0,-55.0,0
1490,261.0,43.0,-54.0,0
1491,262.0,41.0,-50.0,0
1492,266.0,40.0,-52.0,0
1493,262.0,39.0,-51.0,0
1494,266.0,35.0,-52.0,0
1495,266.0,40.0,-54.0,0
1496,263.0,41.0,-48.0,0
1497,264.0,39.0,-53.0,0
1498,263.0,40.0,-51.0,0
1499,266.0,40.0,-55.0,0
1500,267.0,40.0,-54.0,0
1501,265.0,41.0,-51.0,0
1502,263.0,39.0,-53.0,0
1503,263.0,40.0,-50.0,0
1504,263.0,42.0,-55.0,0
1505,262.0,37.0,-53.0,0
1506,265.0,39.0,-52.0,0
1507,266.0,39.0,-54.0,0
1508,264.0,39.0,-50.0,0
1509,263.0,38.0,-49.0,0
1510,264.0,38.0,-53.0,0
1511,263.0,41.0,-52.0,0
1512,263.0,40.0,-50.0,0
1513,262.0,37.0,-51.0,0
1514,262.0,38.0,-49.0,0
1515,264.0,34.0,-51.0,0
1516,262.0,37.0,-48.0,0
1517,262.0,38.0,-49.0,0
1518,262.0,38.0,-45.0,0
1519,265.0,35.0,-51.0,0
1520,263.0,39.0,-50.0,0
1521,264.0,38.0,-48.0,0
1522,262.0,39.0,-48.0,0
1523,262.0,35.0,-51.0,0
1524,262.0,39.0,-54.0,0
1525,265.0,34.0,-51.0,0
1526,265.0,42.0,-45.0,0
1527,263.0,40.0,-48.0,0
1528,263.0,39.0,-50.0,0
1529,260.0,40.0,-49.0,0
1530,262.0,36.0,-51.0,0
1531,264.0,35.0,-49.0,0
1532,267.0,39.0,-49.0,0
1533,262.0,40.0,-50.0,0
1534,265.0,36.0,-52.0,0
1535,264.0,40.0,-47.0,0
1536,265.0,39.0,-52.0,0
1537,265.0,38.0,-46.0,0
1538,264.0,38.0,-48.0,0
1539,264.0,39.0,-50.0,0
1540,265.0,40.0,-49.0,0
1541,263.0,38.0,-53.0,0
1542,263.0,39.0,-49.0,0
1543,264.0,39.0,-50.0,0
1544,262.0,40.0,-51.0,0
1545,261.0,40.0,-48.0,0
1546,263.0,39.0,-53.0,0
1547,266.0,39.0,-50.0,0
1548,268.0,41.0,-43.0,0
1549,261.0,40.0,-54.0,0
1550,265.0,38.0,-50.0,0
1551,263.0,40.0,-46.0,0
1552,263.0,38.0,-52.0,0
1553,264.0,38.0,-52.0,0
1554,264.0,41.0,-51.0,0
1555,264.0,38.0,-54.0,0
1556,263.0,38.0,-48.0,0
1557,263.0,39.0,-54.0,0
1558,263.0,42.0,-49.0,0
1559,264.0,40.0,-54.0,0
1560,264.0,39.0,-48.0,0
1561,260.0,41.0,-54.0,0
1562,266.0,37.0,-54.0,0
1563,264.0,38.0,-52.0,0
1564,262.0,38.0,-52.0,0
1565,264.0,38.0,-49.0,0
1566,264.0,38.0,-52.0,0
1567,261.0,39.0,-49.0,0
1568,264.0,38.0,-51.0,0
1569,263.0,40.0,-53.0,0
1570,265.0,34.0,-44.0,0
1571,265.0,37.0,-53.0,0
1572,262.0,39.0,-52.0,0
1573,263.0,39.0,-49.0,0
1574,264.0,36.0,-49.0,0
1575,262.0,40.0,-53.0,0
1576,264.0,39.0,-48.0,0
1577,264.0,38.0,-54.0,0
1578,263.0,38.0,-51.0,0
1579,262.0,37.0,-53.0,0
1580,266.0,34.0,-52.0,0
1581,264.0,37.0,-52.0,0
1582,262.0,39.0,-51.0,0
1583,263.0,37.0,-50.0,0
1584,261.0,39.0,-50.0,0
1585,263.0,39.0,-52.0,0
1586,262.0,38.0,-48.0,0
1587,264.0,36.0,-52.0,0
1588,265.0,36.0,-53.0,0
1589,263.0,34.0,-53.0,0
1590,264.0,40.0,-52.0,0
1591,266.0,38.0,-51.0,0
1592,263.0,33.0,-48.0,0
1593,264.0,39.0,-46.0,0
1594,260.0,39.0,-52.0,0
1595,263.0,40.0,-52.0,0
1596,265.0,39.0,-50.0,0
1597,261.0,42.0,-51.0,0
1598,268.0,37.0,-52.0,0
1599,263.0,35.0,-53.0,0
1600,269.0,36.0,-53.0,0
1601,263.0,35.0,-48.0,0
1602,263.0,38.0,-49.0,0
1603,265.0,40.0,-48.0,0
1604,263.0,37.0,-47.0,0
1605,263.0,38.0,-49.0,0
1606,263.0,38.0,-49.0,0
1607,264.0,40.0,-49.0,0
1608,265.0,37.0,-51.0,0
1609,264.0,41.0,-50.0,0
1610,262.0,41.0,-48.0,0
1611,259.0,41.0,-51.0,0
1612,265.0,36.0,-48.0,0
1613,263.0,41.0,-49.0,0
1614,262.0,42.0,-51.0,0
1615,263.0,40.0,-49.0,0
1616,266.0,38.0,-49.0,0
1617,264.0,37.0,-48.0,0
1618,264.0,39.0,-51.0,0
1619,263.0,40.0,-51.0,0
1620,262.0,38.0,-47.0,0
1621,266.0,38.0,-45.0,0
1622,264.0,36.0,-46.0,0
1623,261.0,40.0,-52.0,0
1624,259.0,39.0,-50.0,0
1625,265.0,35.0,-48.0,0
1626,264.0,36.0,-49.0,0
1627,262.0,38.0,-48.0,0
1628,264.0,38.0,-49.0,0
1629,263.0,38.0,-52.0,0
1630,264.0,39.0,-48.0,0
1631,261.0,43.0,-46.0,0
1632,261.0,44.0,-47.0,0
1633,263.0,37.0,-50.0,0
1634,262.0,38.0,-50.0,0
1635,262.0,33.0,-48.0,0
1636,261.0,38.0,-47.0,0
1637,264.0,37.0,-43.0,0
1638,263.0,40.0,-50.0,0
1639,263.0,40.0,-50.0,0
1640,268.0,41.0,-47.0,0
1641,263.0,40.0,-46.0,0
1642,264.0,38.0,-49.0,0
1643,263.0,38.0,-45.0,0
1644,263.0,40.0,-54.0,0
1645,263.0,40.0,-53.0,0
1646,263.0,38.0,-50.0,0
1647,263.0,39.0,-52.0,0
1648,263.0,39.0,-51.0,0
1649,264.0,37.0,-52.0,0
1650,263.0,39.0,-49.0,0
1651,264.0,38.0,-49.0,0
1652,264.0,40.0,-48.0,0
1653,264.0,38.0,-47.0,0
1654,262.0,38.0,-48.0,0
1655,265.0,38.0,-48.0,0
1656,265.0,40.0,-47.0,0
1657,258.0,33.0,-43.0,0
1658,263.0,39.0,-49.0,0
1659,264.0,37.0,-51.0,0
1660,265.0,38.0,-49.0,0
1661,264.0,39.0,-47.0,0
1662,262.0,38.0,-48.0,0
1663,263.0,36.0,-46.0,0
1664,267.0,41.0,-49.0,0
1665,263.0,41.0,-48.0,0
1666,265.0,41.0,-48.0,0
1667,266.0,37.0,-48.0,0
1668,259.0,39.0,-45.0,0
1669,264.0,41.0,-48.0,0
1670,263.0,37.0,-46.0,0
1671,265.0,38.0,-48.0,0
1672,264.0,41.0,-49.0,0
1673,264.0,41.0,-45.0,0
1674,266.0,41.0,-49.0,0
1675,265.0,37.0,-44.0,0
1676,266.0,39.0,-49.0,0
1677,263.0,39.0,-44.0,0
1678,261.0,38.0,-49.0,0
1679,264.0,43.0,-49.0,0
1680,262.0,39.0,-47.0,0
1681,266.0,36.0,-48.0,0
1682,262.0,41.0,-45.0,0
1683,263.0,37.0,-46.0,0
1684,264.0,40.0,-47.0,0
1685,262.0,38.0,-47.0,0
1686,263.0,40.0,-50.0,0
1687,262.0,41.0,-49.0,0
1688,265.0,37.0,-53.0,0
1689,262.0,41.0,-48.0,0
1690,261.0,41.0,-51.0,0
1691,264.0,39.0,-47.0,0
1692,262.0,40.0,-44.0,0
1693,263.0,36.0,-49.0,0
1694,265.0,39.0,-49.0,0
1695,262.0,41.0,-48.0,0
1696,265.0,40.0,-47.0,0
1697,266.0,38.0,-45.0,0
1698,264.0,39.0,-51.0,0
1699,263.0,38.0,-46.0,0
1700,264.0,38.0,-44.0,0
1701,265.0,44.0,-45.0,0
1702,263.0,36.0,-49.0,0
1703,262.0,38.0,-48.0,0
1704,263.0,38.0,-53.0,0
1705,264.0,40.0,-46.0,0
1706,262.0,38.0,-45.0,0
1707,263.0,38.0,-49.0,0
1708,261.0,39.0,-47.0,0
1709,265.0,38.0,-47.0,0
1710,263.0,35.0,-48.0,0
1711,265.0,37.0,-46.0,0
1712,266.0,40.0,-42.0,0
1713,266.0,40.0,-48.0,0
1714,264.0,41.0,-46.0,0
1715,263.0,39.0,-47.0,0
1716,262.0,39.0,-49.0,0
1717,263.0,41.0,-49.0,0
1718,262.0,40.0,-51.0,0
1719,266.0,39.0,-48.0,0
1720,260.0,38.0,-49.0,0
1721,263.0,36.0,-50.0,0
1722,263.0,39.0,-51.0,0
1723,264.0,40.0,-51.0,0
1724,263.0,39.0,-45.0,0
1725,265.0,39.0,-47.0,0
1726,263.0,38.0,-43.0,0
1727,263.0,40.0,-49.0,0
1728,265.0,38.0,-48.0,0
1729,264.0,40.0,-46.0,0
1730,262.0,38.0,-54.0,0
1731,262.0,38.0,-47.0,0
1732,263.0,40.0,-44.0,0
1733,262.0,41.0,-45.0,0
1734,262.0,41.0,-51.0,0
1735,263.0,37.0,-47.0,0
1736,260.0,41.0,-43.0,0
1737,262.0,37.0,-47.0,0
1738,262.0,40.0,-45.0,0
1739,263.0,39.0,-50.0,0
1740,264.0,40.0,-44.0,0
1741,263.0,39.0,-48.0,0
1742,261.0,38.0,-48.0,0
1743,263.0,38.0,-48.0,0
1744,262.0,38.0,-44.0,0
1745,264.0,38.0,-46.0,0
1746,264.0,38.0,-48.0,0
1747,266.0,35.0,-43.0,0
1748,266.0,41.0,-49.0,0
1749,263.0,40.0,-45.0,0
1750,259.0,41.0,-46.0,0
1751,266.0,39.0,-46.0,0
1752,268.0,39.0,-45.0,0
1753,267.0,38.0,-44.0,0
1754,265.0,40.0,-44.0,0
1755,266.0,42.0,-45.0,0
1756,268.0,40.0,-48.0,0
1757,265.0,41.0,-47.0,0
1758,265.0,38.0,-40.0,0
1759,261.0,42.0,-48.0,0
1760,263.0,40.0,-46.0,0
1761,263.0,38.0,-46.0,0
1762,265.0,38.0,-42.0,0
1763,265.0,37.0,-51.0,0
1764,263.0,37.0,-47.0,0
1765,264.0,40.0,-43.0,0
1766,260.0,40.0,-44.0,0
1767,263.0,41.0,-45.0,0
1768,265.0,39.0,-44.0,0
1769,265.0,40.0,-47.0,0
1770,265.0,39.0,-46.0,0
1771,262.0,39.0,-46.0,0
1772,262.0,39.0,-48.0,0
1773,264.0,38.0,-44.0,0
1774,263.0,38.0,-48.0,0
1775,263.0,40.0,-47.0,0
1776,263.0,38.0,-42.0,0
1777,260.0,41.0,-48.0,0
1778,265.0,40.0,-46.0,0
1779,265.0,37.0,-50.0,0
1780,265.0,39.0,-49.0,0
1781,264.0,40.0,-47.0,0
1782,264.0,41.0,-48.0,0
1783,264.0,38.0,-49.0,0
1784,262.0,39.0,-49.0,0
1785,266.0,36.0,-47.0,0
1786,264.0,38.0,-45.0,0
1787,264.0,40.0,-47.0,0
1788,262.0,41.0,-50.0,0
1789,266.0,37.0,-43.0,0
1790,264.0,39.0,-50.0,0
1791,262.0,37.0,-47.0,0
1792,264.0,38.0,-49.0,0
1793,264.0,38.0,-46.0,0
1794,266.0,37.0,-46.0,0
1795,266.0,39.0,-42.0,0
1796,262.0,38.0,-49.0,0
1797,263.0,40.0,-45.0,0
1798,265.0,39.0,-45.0,0
1799,265.0,39.0,-49.0,0
1800,263.0,40.0,-40.0,0
1801,264.0,39.0,-43.0,0
1802,267.0,34.0,-45.0,0
1803,262.0,38.0,-45.0,0
1804,264.0,39.0,-47.0,0
1805,261.0,39.0,-52.0,0
1806,263.0,39.0,-44.0,0
1807,265.0,37.0,-48.0,0
1808,264.0,39.0,-49.0,0
1809,266.0,42.0,-47.0,0
1810,261.0,35.0,-56.0,0
1811,264.0,39.0,-45.0,0
1812,263.0,41.0,-51.0,0
1813,266.0,38.0,-45.0,0
1814,265.0,40.0,-45.0,0
1815,267.0,37.0,-47.0,0
1816,262.0,34.0,-46.0,0
1817,266.0,39.0,-47.0,0
1818,264.0,37.0,-48.0,0
1819,268.0,36.0,-48.0,0
1820,262.0,44.0,-44.0,0
1821,263.0,36.0,-45.0,0
1822,266.0,38.0,-46.0,0
1823,264.0,40.0,-43.0,0
1824,263.0,38.0,-48.0,0
1825,264.0,37.0,-48.0,0
1826,262.0,39.0,-47.0,0
1827,265.0,39.0,-41.0,0
1828,264.0,37.0,-45.0,0
1829,264.0,38.0,-47.0,0
1830,262.0,36.0,-44.0,0
1831,267.0,37.0,-40.0,0
1832,264.0,41.0,-49.0,0
1833,263.0,37.0,-51.0,0
1834,265.0,38.0,-48.0,0
1835,266.0,40.0,-49.0,0
1836,265.0,40.0,-44.0,0
1837,263.0,41.0,-47.0,0
1838,264.0,39.0,-49.0,0
1839,263.0,38.0,-49.0,0
1840,262.0,40.0,-46.0,0
1841,268.0,34.0,-49.0,0
1842,264.0,37.0,-46.0,0
1843,263.0,38.0,-47.0,0
1844,265.0,40.0,-49.0,0
1845,268.0,34.0,-47.0,0
1846,266.0,37.0,-51.0,0
1847,263.0,39.0,-47.0,0
1848,264.0,38.0,-44.0,0
1849,263.0,38.0,-46.0,0
1850,265.0,37.0,-51.0,0
1851,263.0,42.0,-46.0,0
1852,263.0,41.0,-42.0,0
1853,265.0,38.0,-49.0,0
1854,266.0,37.0,-47.0,0
1855,266.0,38.0,-45.0,0
1856,263.0,38.0,-46.0,0
1857,263.0,40.0,-46.0,0
1858,263.0,36.0,-46.0,0
1859,266.0,37.0,-51.0,0
1860,261.0,38.0,-48.0,0
1861,261.0,38.0,-46.0,0
1862,260.0,39.0,-44.0,0
1863,264.0,36.0,-46.0,0
1864,261.0,32.0,-56.0,0
1865,263.0,38.0,-47.0,0
1866,264.0,38.0,-49.0,0
1867,263.0,35.0,-46.0,0
1868,263.0,38.0,-44.0,0
1869,266.0,40.0,-46.0,0
1870,264.0,39.0,-47.0,0
1871,260.0,37.0,-48.0,0
1872,262.0,37.0,-46.0,0
1873,264.0,39.0,-46.0,0
1874,262.0,39.0,-48.0,0
1875,267.0,44.0,-44.0,0
1876,264.0,39.0,-45.0,0
1877,265.0,36.0,-46.0,0
1878,265.0,36.0,-51.0,0
1879,265.0,40.0,-47.0,0
1880,263.0,39.0,-44.0,0
1881,263.0,38.0,-49.0,0
1882,265.0,40.0,-45.0,0
1883,263.0,39.0,-47.0,0
1884,263.0,38.0,-47.0,0
1885,265.0,39.0,-47.0,0
1886,259.0,37.0,-45.0,0
1887,264.0,36.0,-43.0,0
1888,264.0,38.0,-47.0,0
1889,264.0,38.0,-46.0,0
1890,263.0,39.0,-46.0,0
1891,262.0,35.0,-46.0,0
1892,263.0,39.0,-46.0,0
1893,265.0,39.0,-48.0,0
1894,260.0,39.0,-41.0,0
1895,264.0,37.0,-49.0,0
1896,268.0,36.0,-50.0,0
1897,266.0,41.0,-46.0,0
1898,265.0,38.0,-47.0,0
1899,263.0,39.0,-50.0,0
1900,261.0,40.0,-46.0,0
1901,263.0,39.0,-46.0,0
1902,266.0,39.0,-50.0,0
1903,261.0,38.0,-52.0,0
1904,265.0,37.0,-49.0,0
1905,262.0,38.0,-48.0,0
1906,265.0,37.0,-48.0,0
1907,262.0,41.0,-48.0,0
1908,261.0,41.0,-50.0,0
1909,263.0,40.0,-46.0,0
1910,262.0,39.0,-49.0,0
1911,262.0,39.0,-45.0,0
1912,263.0,42.0,-50.0,0
1913,261.0,41.0,-46.0,0
1914,263.0,39.0,-48.0,0
1915,264.0,38.0,-46.0,0
1916,266.0,37.0,-50.0,0
1917,262.0,40.0,-47.0,0
1918,263.0,40.0,-42.0,0
1919,264.0,38.0,-49.0,0
1920,264.0,38.0,-50.0,0
1921,263.0,36.0,-44.0,0
1922,264.0,35.0,-46.0,0
1923,265.0,37.0,-47.0,0
1924,265.0,36.0,-50.0,0
1925,263.0,37.0,-45.0,0
1926,263.0,36.0,-46.0,0
1927,266.0,37.0,-46.0,0
1928,264.0,37.0,-49.0,0
1929,267.0,35.0,-40.0,0
1930,265.0,38.0,-48.0,0
1931,263.0,38.0,-51.0,0
1932,264.0,38.0,-51.0,0
1933,264.0,39.0,-47.0,0
1934,264.0,39.0,-49.0,0
1935,266.0,37.0,-49.0,0
1936,264.0,38.0,-45.0,0
1937,268.0,34.0,-45.0,0
1938,263.0,36.0,-50.0,0
1939,264.0,39.0,-49.0,0
1940,266.0,35.0,-49.0,0
1941,262.0,39.0,-48.0,0
1942,263.0,40.0,-47.0,0
1943,264.0,38.0,-44.0,0
1944,264.0,39.0,-45.0,0
1945,263.0,39.0,-50.0,0
1946,264.0,38.0,-48.0,0
1947,261.0,40.0,-51.0,0
1948,265.0,35.0,-46.0,0
1949,261.0,40.0,-51.0,0
1950,260.0,38.0,-47.0,0
1951,260.0,38.0,-51.0,0
1952,261.0,36.0,-51.0,0
1953,264.0,38.0,-48.0,0
1954,263.0,37.0,-47.0,0
1955,264.0,35.0,-45.0,0
1956,261.0,36.0,-45.0,0
1957,264.0,35.0,-48.0,0
1958,263.0,35.0,-49.0,0
1959,264.0,38.0,-49.0,0
1960,261.0,38.0,-50.0,0
1961,261.0,41.0,-49.0,0
1962,263.0,42.0,-45.0,0
1963,262.0,40.0,-51.0,0
1964,262.0,40.0,-48.0,0
1965,262.0,38.0,-52.0,0
1966,264.0,40.0,-49.0,0
1967,262.0,37.0,-49.0,0
1968,264.0,38.0,-49.0,0
1969,266.0,38.0,-51.0,0
1970,268.0,36.0,-48.0,0
1971,265.0,38.0,-49.0,0
1972,264.0,37.0,-45.0,0
1973,260.0,39.0,-58.0,0
1974,265.0,38.0,-48.0,0
1975,264.0,39.0,-51.0,0
1976,267.0,37.0,-49.0,0
1977,262.0,39.0,-49.0,0
1978,262.0,39.0,-47.0,0
1979,265.0,35.0,-50.0,0
1980,265.0,36.0,-45.0,0
1981,264.0,37.0,-46.0,0
1982,264.0,38.0,-49.0,0
1983,261.0,37.0,-50.0,0
1984,262.0,35.0,-47.0,0
1985,264.0,35.0,-52.0,0
1986,265.0,39.0,-50.0,0
1987,265.0,36.0,-47.0,0
1988,266.0,36.0,-47.0,0
1989,264.0,37.0,-47.0,0
1990,263.0,39.0,-51.0,0
1991,267.0,35.0,-50.0,0
1992,262.0,38.0,-51.0,0
1993,263.0,37.0,-48.0,0
1994,265.0,36.0,-51.0,0
1995,267.0,43.0,-51.0,0
1996,262.0,38.0,-47.0,0
1997,264.0,41.0,-50.0,0
1998,263.0,38.0,-48.0,0
1999,268.0,37.0,-47.0,0
2000,265.0,38.0,-49.0,0
2001,265.0,39.0,-48.0,0
2002,263.0,36.0,-51.0,0
2003,263.0,38.0,-52.0,0
2004,261.0,37.0,-44.0,0
2005,264.0,38.0,-51.0,0
2006,266.0,34.0,-54.0,0
2007,264.0,37.0,-51.0,0
2008,264.0,38.0,-46.0,0
2009,261.0,38.0,-48.0,0
2010,263.0,40.0,-45.0,0
2011,265.0,34.0,-53.0,0
2012,262.0,40.0,-51.0,0
2013,268.0,37.0,-50.0,0
2014,262.0,38.0,-48.0,0
2015,262.0,36.0,-50.0,0
2016,266.0,36.0,-53.0,0
2017,269.0,39.0,-46.0,0
2018,263.0,38.0,-46.0,0
2019,264.0,38.0,-48.0,0
2020,263.0,37.0,-48.0,0
2021,263.0,37.0,-45.0,0
2022,264.0,35.0,-49.0,0
2023,263.0,37.0,-48.0,0
2024,264.0,33.0,-50.0,0
2025,264.0,37.0,-47.0,0
2026,266.0,37.0,-52.0,0
2027,270.0,40.0,-46.0,0
2028,264.0,38.0,-50.0,0
2029,263.0,36.0,-50.0,0
2030,263.0,35.0,-47.0,0
2031,263.0,33.0,-51.0,0
2032,264.0,39.0,-48.0,0
2033,262.0,37.0,-48.0,0
2034,263.0,37.0,-49.0,0
2035,265.0,38.0,-48.0,0
2036,265.0,36.0,-48.0,0
2037,263.0,36.0,-49.0,0
2038,262.0,42.0,-45.0,0
2039,262.0,38.0,-47.0,0
2040,263.0,39.0,-49.0,0
2041,264.0,37.0,-47.0,0
2042,266.0,37.0,-49.0,0
2043,264.0,37.0,-49.0,0
2044,262.0,37.0,-48.0,0
2045,265.0,35.0,-52.0,0
2046,263.0,36.0,-47.0,0
2047,265.0,35.0,-48.0,0
2048,265.0,36.0,-48.0,0
2049,267.0,40.0,-55.0,0
2050,264.0,38.0,-49.0,0
2051,265.0,36.0,-51.0,0
2052,264.0,39.0,-47.0,0
2053,264.0,39.0,-47.0,0
2054,265.0,36.0,-48.0,0
2055,265.0,35.0,-52.0,0
2056,264.0,40.0,-47.0,0
2057,265.0,38.0,-47.0,0
2058,265.0,38.0,-51.0,0
2059,264.0,38.0,-45.0,0
2060,269.0,40.0,-38.0,0
2061,262.0,38.0,-49.0,0
2062,263.0,37.0,-48.0,0
2063,266.0,37.0,-48.0,0
2064,265.0,37.0,-48.0,0
2065,262.0,38.0,-46.0,0
2066,265.0,38.0,-50.0,0
2067,263.0,35.0,-48.0,0
2068,262.0,35.0,-52.0,0
2069,262.0,36.0,-46.0,0
2070,263.0,38.0,-51.0,0
2071,269.0,37.0,-46.0,0
2072,264.0,38.0,-53.0,0
2073,264.0,39.0,-46.0,0
2074,262.0,38.0,-48.0,0
2075,261.0,38.0,-48.0,0
2076,262.0,39.0,-51.0,0
2077,263.0,38.0,-46.0,0
2078,266.0,36.0,-49.0,0
2079,262.0,39.0,-47.0,0
2080,265.0,37.0,-50.0,0
2081,261.0,36.0,-51.0,0
2082,261.0,38.0,-50.0,0
2083,266.0,36.0,-45.0,0
2084,263.0,39.0,-52.0,0
2085,264.0,39.0,-47.0,0
2086,264.0,36.0,-47.0,0
2087,266.0,37.0,-47.0,0
2088,266.0,38.0,-46.0,0
2089,263.0,39.0,-49.0,0
2090,264.0,39.0,-47.0,0
2091,263.0,36.0,-46.0,0
2092,267.0,38.0,-46.0,0
2093,266.0,38.0,-50.0,0
2094,262.0,38.0,-51.0,0
2095,266.0,35.0,-48.0,0
2096,265.0,39.0,-49.0,0
2097,263.0,36.0,-47.0,0
2098,264.0,40.0,-50.0,0
2099,262.0,39.0,-48.0,0
2100,259.0,39.0,-50.0,0
2101,264.0,39.0,-47.0,0
2102,265.0,38.0,-51.0,0
2103,265.0,39.0,-45.0,0
2104,270.0,36.0,-42.0,0
2105,265.0,43.0,-45.0,0
2106,263.0,38.0,-45.0,0
2107,265.0,40.0,-45.0,0
2108,263.0,37.0,-50.0,0
2109,262.0,39.0,-50.0,0
2110,264.0,38.0,-48.0,0
2111,264.0,39.0,-46.0,0
2112,262.0,39.0,-49.0,0
2113,266.0,35.0,-46.0,0
2114,263.0,38.0,-45.0,0
2115,262.0,41.0,-50.0,0
2116,262.0,36.0,-50.0,0
2117,263.0,35.0,-50.0,0
2118,264.0,36.0,-49.0,0
2119,262.0,38.0,-47.0,0
2120,263.0,39.0,-46.0,0
2121,267.0,37.0,-50.0,0
2122,263.0,36.0,-43.0,0
2123,263.0,40.0,-54.0,0
2124,264.0,36.0,-50.0,0
2125,264.0,39.0,-48.0,0
2126,265.0,37.0,-47.0,0
2127,264.0,38.0,-47.0,0
2128,264.0,37.0,-48.0,0
2129,266.0,36.0,-47.0,0
2130,262.0,39.0,-46.0,0
2131,263.0,36.0,-48.0,0
2132,262.0,38.0,-46.0,0
2133,264.0,36.0,-44.0,0
2134,266.0,37.0,-43.0,0
2135,262.0,37.0,-47.0,0
2136,258.0,34.0,-44.0,0
2137,264.0,38.0,-48.0,0
2138,262.0,38.0,-45.0,0
2139,264.0,37.0,-44.0,0
2140,262.0,38.0,-47.0,0
2141,263.0,40.0,-48.0,0
2142,261.0,37.0,-48.0,0
2143,264.0,35.0,-49.0,0
2144,265.0,38.0,-46.0,0
2145,265.0,37.0,-47.0,0
2146,261.0,39.0,-51.0,0
2147,263.0,39.0,-46.0,0
2148,263.0,39.0,-50.0,0
2149,263.0,39.0,-47.0,0
2150,264.0,36.0,-48.0,0
2151,265.0,37.0,-48.0,0
2152,264.0,35.0,-48.0,0
2153,263.0,37.0,-44.0,0
2154,261.0,37.0,-46.0,0
2155,262.0,39.0,-49.0,0
2156,264.0,37.0,-45.0,0
2157,268.0,38.0,-51.0,0
2158,266.0,38.0,-46.0,0
2159,264.0,38.0,-48.0,0
2160,263.0,38.0,-49.0,0
2161,266.0,37.0,-46.0,0
2162,264.0,39.0,-48.0,0
2163,262.0,38.0,-51.0,0
2164,264.0,37.0,-51.0,0
2165,263.0,37.0,-49.0,0
2166,264.0,41.0,-46.0,0
2167,265.0,38.0,-44.0,0
2168,262.0,39.0,-44.0,0
2169,264.0,42.0,-52.0,0
2170,265.0,35.0,-41.0,0
2171,264.0,39.0,-47.0,0
2172,264.0,38.0,-45.0,0
2173,264.0,39.0,-50.0,0
2174,268.0,34.0,-46.0,0
2175,268.0,37.0,-47.0,0
2176,263.0,38.0,-41.0,0
2177,265.0,37.0,-51.0,0
2178,260.0,39.0,-49.0,0
2179,262.0,37.0,-47.0,0
2180,265.0,36.0,-39.0,0
2181,264.0,37.0,-45.0,0
2182,266.0,36.0,-45.0,0
2183,265.0,36.0,-51.0,0
2184,265.0,38.0,-44.0,0
2185,263.0,39.0,-44.0,0
2186,268.0,36.0,-51.0,0
2187,264.0,37.0,-46.0,0
2188,267.0,37.0,-50.0,0
2189,264.0,37.0,-44.0,0
2190,263.0,35.0,-46.0,0
2191,257.0,32.0,-44.0,0
2192,264.0,37.0,-49.0,0
2193,264.0,37.0,-43.0,0
2194,264.0,36.0,-45.0,0
2195,268.0,35.0,-48.0,0
2196,262.0,38.0,-44.0,0
2197,261.0,40.0,-46.0,0
2198,267.0,35.0,-46.0,0
2199,265.0,37.0,-45.0,0
2200,262.0,38.0,-45.0,0
2201,266.0,38.0,-43.0,0
2202,265.0,30.0,-48.0,0
2203,265.0,36.0,-47.0,0
2204,263.0,36.0,-44.0,0
2205,263.0,41.0,-46.0,0
2206,262.0,37.0,-48.0,0
2207,264.0,37.0,-45.0,0
2208,263.0,40.0,-43.0,0
2209,262.0,37.0,-45.0,0
2210,265.0,36.0,-40.0,0
2211,265.0,36.0,-47.0,0
2212,265.0,39.0,-49.0,0
2213,267.0,40.0,-42.0,0
2214,262.0,36.0,-45.0,0
2215,264.0,36.0,-46.0,0
2216,263.0,35.0,-50.0,0
2217,264.0,36.0,-48.0,0
2218,265.0,39.0,-49.0,0
2219,264.0,37.0,-46.0,0
2220,266.0,38.0,-49.0,0
2221,262.0,35.0,-45.0,0
2222,261.0,40.0,-48.0,0
2223,264.0,38.0,-42.0,0
2224,265.0,38.0,-52.0,0
2225,264.0,42.0,-43.0,0
2226,266.0,38.0,-48.0,0
2227,263.0,38.0,-49.0,0
2228,263.0,38.0,-48.0,0
2229,262.0,38.0,-47.0,0
2230,265.0,37.0,-43.0,0
2231,265.0,39.0,-42.0,0
2232,264.0,39.0,-45.0,0
2233,265.0,39.0,-41.0,0
2234,266.0,38.0,-45.0,0
2235,266.0,39.0,-46.0,0
2236,263.0,42.0,-46.0,0
2237,263.0,38.0,-41.0,0
2238,265.0,37.0,-48.0,0
2239,261.0,36.0,-47.0,0
2240,266.0,37.0,-45.0,0
2241,261.0,42.0,-43.0,0
2242,265.0,37.0,-43.0,0
2243,262.0,37.0,-42.0,0
2244,263.0,38.0,-41.0,0
2245,261.0,38.0,-45.0,0
2246,264.0,37.0,-45.0,0
2247,262.0,38.0,-46.0,0
2248,266.0,37.0,-48.0,0
2249,261.0,41.0,-47.0,0
2250,264.0,38.0,-46.0,0
2251,266.0,38.0,-45.0,0
2252,264.0,37.0,-43.0,0
2253,265.0,34.0,-46.0,0
2254,261.0,36.0,-45.0,0
2255,264.0,44.0,-45.0,0
2256,264.0,40.0,-43.0,0
2257,263.0,37.0,-44.0,0
2258,265.0,39.0,-44.0,0
2259,264.0,37.0,-46.0,0
2260,261.0,37.0,-42.0,0
2261,263.0,37.0,-46.0,0
2262,263.0,36.0,-50.0,0
2263,262.0,36.0,-48.0,0
2264,263.0,38.0,-46.0,0
2265,261.0,38.0,-45.0,0
2266,259.0,39.0,-46.0,0
2267,267.0,38.0,-48.0,0
2268,265.0,36.0,-50.0,0
2269,263.0,37.0,-46.0,0
2270,263.0,37.0,-44.0,0
2271,264.0,40.0,-45.0,0
2272,265.0,36.0,-46.0,0
2273,263.0,37.0,-43.0,0
2274,266.0,40.0,-48.0,0
2275,259.0,40.0,-46.0,0
2276,264.0,36.0,-46.0,0
2277,263.0,39.0,-41.0,0
2278,261.0,31.0,-42.0,0
2279,263.0,37.0,-45.0,0
2280,265.0,36.0,-47.0,0
2281,264.0,37.0,-46.0,0
2282,266.0,35.0,-49.0,0
2283,266.0,40.0,-47.0,0
2284,265.0,37.0,-43.0,0
2285,265.0,37.0,-44.0,0
2286,264.0,37.0,-46.0,0
2287,264.0,40.0,-40.0,0
2288,266.0,35.0,-45.0,0
2289,264.0,29.0,-43.0,0
2290,263.0,37.0,-45.0,0
2291,265.0,39.0,-44.0,0
2292,263.0,40.0,-47.0,0
2293,266.0,38.0,-47.0,0
2294,266.0,36.0,-46.0,0
2295,263.0,38.0,-47.0,0
2296,264.0,38.0,-47.0,0
2297,265.0,36.0,-46.0,0
2298,267.0,35.0,-49.0,0
2299,263.0,38.0,-43.0,0
2300,266.0,37.0,-46.0,0
2301,266.0,37.0,-41.0,0
2302,262.0,38.0,-45.0,0
2303,263.0,38.0,-44.0,0
2304,262.0,38.0,-44.0,0
2305,263.0,37.0,-42.0,0
2306,264.0,38.0,-40.0,0
2307,265.0,36.0,-43.0,0
2308,267.0,39.0,-42.0,0
2309,264.0,39.0,-48.0,0
2310,263.0,37.0,-48.0,0
2311,267.0,38.0,-36.0,0
2312,262.0,38.0,-42.0,0
2313,261.0,37.0,-44.0,0
2314,265.0,36.0,-46.0,0
2315,265.0,37.0,-44.0,0
2316,264.0,38.0,-47.0,0
2317,264.0,37.0,-48.0,0
2318,264.0,38.0,-46.0,0
2319,262.0,40.0,-47.0,0
2320,268.0,37.0,-46.0,0
2321,264.0,38.0,-46.0,0
2322,262.0,41.0,-38.0,0
2323,263.0,38.0,-48.0,0
2324,264.0,37.0,-49.0,0
2325,264.0,36.0,-43.0,0
2326,266.0,39.0,-44.0,0
2327,264.0,38.0,-46.0,0
2328,264.0,39.0,-45.0,0
2329,260.0,40.0,-48.0,0
2330,259.0,38.0,-44.0,0
2331,263.0,37.0,-43.0,0
2332,266.0,37.0,-43.0,0
2333,264.0,39.0,-41.0,0
2334,265.0,38.0,-44.0,0
2335,263.0,38.0,-45.0,0
2336,264.0,36.0,-45.0,0
2337,263.0,37.0,-44.0,0
2338,266.0,38.0,-44.0,0
2339,264.0,37.0,-41.0,0
2340,264.0,37.0,-44.0,0
2341,267.0,38.0,-48.0,0
2342,263.0,38.0,-44.0,0
2343,269.0,24.0,-50.0,0
2344,265.0,36.0,-42.0,0
2345,263.0,39.0,-42.0,0
2346,266.0,38.0,-48.0,0
2347,264.0,35.0,-48.0,0
2348,263.0,39.0,-47.0,0
2349,263.0,36.0,-43.0,0
2350,265.0,37.0,-44.0,0
2351,267.0,37.0,-48.0,0
2352,264.0,35.0,-41.0,0
2353,264.0,37.0,-43.0,0
2354,264.0,35.0,-40.0,0
2355,265.0,36.0,-48.0,0
2356,265.0,37.0,-45.0,0
2357,264.0,40.0,-45.0,0
2358,265.0,34.0,-46.0,0
2359,263.0,36.0,-45.0,0
2360,262.0,38.0,-43.0,0
2361,265.0,36.0,-46.0,0
2362,266.0,38.0,-46.0,0
2363,261.0,37.0,-42.0,0
2364,265.0,39.0,-41.0,0
2365,274.0,32.0,-49.0,0
2366,265.0,40.0,-43.0,0
2367,265.0,37.0,-47.0,0
2368,265.0,38.0,-46.0,0
2369,265.0,38.0,-43.0,0
2370,264.0,38.0,-43.0,0
2371,265.0,39.0,-46.0,0
2372,266.0,37.0,-46.0,0
2373,265.0,37.0,-45.0,0
2374,266.0,38.0,-47.0,0
2375,267.0,33.0,-46.0,0
2376,264.0,35.0,-42.0,0
2377,264.0,36.0,-46.0,0
2378,265.0,37.0,-45.0,0
2379,264.0,36.0,-47.0,0
2380,264.0,36.0,-43.0,0
2381,264.0,37.0,-44.0,0
2382,265.0,39.0,-45.0,0
2383,266.0,36.0,-42.0,0
2384,265.0,35.0,-46.0,0
2385,266.0,33.0,-46.0,0
2386,262.0,36.0,-46.0,0
2387,265.0,35.0,-48.0,0
2388,260.0,41.0,-40.0,0
2389,266.0,38.0,-43.0,0
2390,262.0,38.0,-43.0,0
2391,264.0,38.0,-49.0,0
2392,265.0,34.0,-43.0,0
2393,266.0,36.0,-44.0,0
2394,265.0,38.0,-45.0,0
2395,266.0,36.0,-48.0,0
2396,266.0,39.0,-42.0,0
2397,262.0,38.0,-47.0,0
2398,268.0,38.0,-41.0,0
2399,262.0,39.0,-44.0,0
2400,262.0,38.0,-45.0,0
2401,266.0,39.0,-44.0,0
2402,264.0,38.0,-46.0,0
2403,267.0,35.0,-44.0,0
2404,265.0,38.0,-44.0,0
2405,266.0,33.0,-41.0,0
2406,264.0,38.0,-42.0,0
2407,267.0,36.0,-41.0,0
2408,271.0,35.0,-45.0,0
2409,266.0,33.0,-36.0,0
2410,265.0,37.0,-43.0,0
2411,264.0,36.0,-48.0,0
2412,263.0,38.0,-45.0,0
2413,266.0,37.0,-43.0,0
2414,264.0,39.0,-45.0,0
2415,263.0,37.0,-43.0,0
2416,264.0,37.0,-47.0,0
2417,265.0,36.0,-51.0,0
2418,265.0,39.0,-46.0,0
2419,267.0,38.0,-44.0,0
2420,260.0,38.0,-50.0,0
2421,265.0,37.0,-45.0,0
2422,263.0,39.0,-42.0,0
2423,263.0,38.0,-43.0,0
2424,264.0,39.0,-41.0,0
2425,264.0,40.0,-42.0,0
2426,264.0,37.0,-47.0,0
2427,261.0,41.0,-47.0,0
2428,263.0,37.0,-43.0,0
2429,262.0,37.0,-44.0,0
2430,266.0,39.0,-46.0,0
2431,263.0,40.0,-44.0,0
2432,265.0,37.0,-47.0,0
2433,263.0,35.0,-43.0,0
2434,263.0,39.0,-47.0,0
2435,265.0,38.0,-47.0,0
2436,264.0,41.0,-47.0,0
2437,263.0,35.0,-48.0,0
2438,268.0,38.0,-49.0,0
2439,265.0,36.0,-43.0,0
2440,261.0,38.0,-45.0,0
2441,267.0,34.0,-43.0,0
2442,265.0,36.0,-47.0,0
2443,265.0,37.0,-43.0,0
2444,264.0,37.0,-46.0,0
2445,263.0,36.0,-43.0,0
2446,263.0,36.0,-45.0,0
2447,262.0,38.0,-46.0,0
2448,264.0,35.0,-43.0,0
2449,265.0,40.0,-44.0,0
2450,264.0,37.0,-47.0,0
2451,265.0,39.0,-42.0,0
2452,260.0,40.0,-41.0,0
2453,253.0,40.0,-45.0,0
2454,266.0,37.0,-45.0,0
2455,261.0,38.0,-46.0,0
2456,264.0,38.0,-48.0,0
2457,264.0,37.0,-48.0,0
2458,264.0,38.0,-47.0,0
2459,265.0,36.0,-45.0,0
2460,262.0,35.0,-52.0,0
2461,262.0,39.0,-43.0,0
2462,265.0,39.0,-46.0,0
2463,266.0,36.0,-50.0,0
2464,264.0,37.0,-46.0,0
2465,264.0,37.0,-45.0,0
2466,266.0,34.0,-46.0,0
2467,263.0,37.0,-44.0,0
2468,264.0,36.0,-45.0,0
2469,265.0,39.0,-46.0,0
2470,261.0,36.0,-43.0,0
2471,262.0,35.0,-45.0,0
2472,264.0,36.0,-49.0,0
2473,263.0,38.0,-48.0,0
2474,266.0,38.0,-42.0,0
2475,263.0,38.0,-47.0,0
2476,263.0,37.0,-46.0,0
2477,268.0,36.0,-47.0,0
2478,263.0,36.0,-45.0,0
2479,263.0,41.0,-43.0,0
2480,262.0,36.0,-47.0,0
2481,262.0,37.0,-46.0,0
2482,265.0,33.0,-42.0,0
2483,265.0,35.0,-45.0,0
2484,263.0,36.0,-46.0,0
2485,262.0,37.0,-49.0,0
2486,266.0,37.0,-46.0,0
2487,263.0,38.0,-43.0,0
2488,263.0,37.0,-46.0,0
2489,264.0,37.0,-44.0,0
2490,265.0,37.0,-47.0,0
2491,262.0,37.0,-45.0,0
2492,265.0,37.0,-46.0,0
2493,264.0,37.0,-45.0,0
2494,268.0,36.0,-46.0,0
2495,261.0,36.0,-43.0,0
2496,265.0,44.0,-50.0,0
2497,263.0,38.0,-45.0,0
2498,263.0,38.0,-50.0,0
2499,265.0,39.0,-43.0,0
2500,265.0,34.0,-46.0,0
2501,263.0,33.0,-46.0,0
2502,262.0,37.0,-44.0,0
2503,259.0,40.0,-50.0,0
2504,264.0,40.0,-47.0,0
2505,261.0,35.0,-45.0,0
2506,266.0,41.0,-46.0,0
2507,264.0,47.0,-47.0,0
2508,263.0,36.0,-46.0,0
2509,262.0,37.0,-46.0,0
2510,264.0,37.0,-49.0,0
2511,266.0,36.0,-50.0,0
2512,265.0,35.0,-50.0,0
2513,263.0,36.0,-50.0,0
2514,263.0,37.0,-47.0,0
2515,266.0,36.0,-43.0,0
2516,263.0,37.0,-50.0,0
2517,264.0,37.0,-49.0,0
2518,262.0,31.0,-51.0,0
2519,263.0,37.0,-48.0,0
2520,263.0,37.0,-47.0,0
2521,263.0,39.0,-50.0,0
2522,263.0,39.0,-43.0,0
2523,262.0,37.0,-46.0,0
2524,266.0,37.0,-46.0,0
2525,266.0,37.0,-49.0,0
2526,265.0,38.0,-50.0,0
2527,264.0,39.0,-45.0,0
2528,265.0,39.0,-45.0,0
2529,258.0,28.0,-49.0,0
2530,260.0,41.0,-48.0,0
2531,265.0,36.0,-47.0,0
2532,263.0,38.0,-49.0,0
2533,264.0,37.0,-47.0,0
2534,267.0,36.0,-50.0,0
2535,264.0,38.0,-48.0,0
2536,261.0,40.0,-50.0,0
2537,263.0,37.0,-46.0,0
2538,266.0,35.0,-50.0,0
2539,270.0,32.0,-42.0,0
2540,263.0,38.0,-43.0,0
2541,261.0,36.0,-44.0,0
2542,265.0,38.0,-47.0,0
2543,265.0,36.0,-46.0,0
2544,263.0,37.0,-48.0,0
2545,264.0,38.0,-45.0,0
2546,262.0,33.0,-46.0,0
2547,264.0,36.0,-45.0,0
2548,264.0,39.0,-46.0,0
2549,266.0,35.0,-46.0,0
2550,256.0,35.0,-49.0,0
2551,263.0,39.0,-49.0,0
2552,264.0,38.0,-46.0,0
2553,263.0,36.0,-46.0,0
2554,262.0,36.0,-47.0,0
2555,265.0,34.0,-45.0,0
2556,265.0,36.0,-45.0,0
2557,266.0,36.0,-44.0,0
2558,267.0,37.0,-47.0,0
2559,267.0,33.0,-44.0,0
2560,267.0,35.0,-43.0,0
2561,261.0,36.0,-50.0,0
2562,264.0,37.0,-45.0,0
2563,264.0,36.0,-45.0,0
2564,264.0,34.0,-50.0,0
2565,261.0,35.0,-46.0,0
2566,260.0,35.0,-46.0,0
2567,265.0,37.0,-46.0,0
2568,262.0,41.0,-45.0,0
2569,267.0,37.0,-48.0,0
2570,265.0,37.0,-47.0,0
2571,263.0,34.0,-48.0,0
2572,268.0,36.0,-44.0,0
2573,262.0,37.0,-47.0,0
2574,265.0,36.0,-48.0,0
2575,263.0,35.0,-46.0,0
2576,264.0,37.0,-49.0,0
2577,265.0,36.0,-46.0,0
2578,262.0,37.0,-48.0,0
2579,264.0,35.0,-46.0,0
2580,266.0,38.0,-52.0,0
2581,264.0,39.0,-46.0,0
2582,265.0,37.0,-47.0,0
2583,262.0,41.0,-45.0,0
2584,262.0,36.0,-46.0,0
2585,263.0,38.0,-47.0,0
2586,264.0,36.0,-46.0,0
2587,267.0,34.0,-48.0,0
2588,266.0,34.0,-50.0,0
2589,264.0,35.0,-44.0,0
2590,265.0,35.0,-46.0,0
2591,266.0,34.0,-50.0,0
2592,268.0,33.0,-47.0,0
2593,262.0,42.0,-42.0,0
2594,260.0,37.0,-46.0,0
2595,263.0,36.0,-48.0,0
2596,266.0,38.0,-46.0,0
2597,265.0,37.0,-50.0,0
2598,263.0,37.0,-45.0,0
2599,265.0,36.0,-43.0,0
2600,263.0,39.0,-46.0,0
2601,265.0,38.0,-47.0,0
2602,262.0,40.0,-48.0,0
2603,264.0,40.0,-45.0,0
2604,266.0,33.0,-50.0,0
2605,265.0,37.0,-47.0,0
2606,261.0,37.0,-52.0,0
2607,264.0,35.0,-48.0,0
2608,263.0,38.0,-48.0,0
2609,263.0,37.0,-48.0,0
2610,261.0,39.0,-42.0,0
2611,263.0,36.0,-48.0,0
2612,261.0,39.0,-46.0,0
2613,262.0,37.0,-46.0,0
2614,265.0,38.0,-47.0,0
2615,267.0,39.0,-46.0,0
2616,264.0,34.0,-50.0,0
2617,263.0,34.0,-45.0,0
2618,263.0,35.0,-48.0,0
2619,266.0,35.0,-48.0,0
2620,263.0,37.0,-44.0,0
2621,263.0,37.0,-46.0,0
2622,261.0,38.0,-47.0,0
2623,265.0,36.0,-51.0,0
2624,263.0,36.0,-44.0,0
2625,263.0,39.0,-48.0,0
2626,262.0,40.0,-49.0,0
2627,265.0,32.0,-47.0,0
2628,264.0,37.0,-43.0,0
2629,266.0,36.0,-48.0,0
2630,261.0,36.0,-43.0,0
2631,264.0,37.0,-45.0,0
2632,263.0,38.0,-47.0,0
2633,265.0,38.0,-44.0,0
2634,264.0,39.0,-48.0,0
2635,263.0,36.0,-47.0,0
2636,264.0,37.0,-48.0,0
2637,261.0,39.0,-48.0,0
2638,269.0,34.0,-51.0,0
2639,264.0,36.0,-50.0,0
2640,263.0,37.0,-49.0,0
2641,263.0,37.0,-44.0,0
2642,264.0,35.0,-44.0,0
2643,264.0,35.0,-44.0,0
2644,269.0,34.0,-44.0,0
2645,265.0,39.0,-49.0,0
2646,263.0,40.0,-49.0,0
2647,263.0,35.0,-49.0,0
2648,264.0,41.0,-47.0,0
2649,262.0,34.0,-42.0,0
2650,262.0,36.0,-41.0,0
2651,261.0,36.0,-46.0,0
2652,264.0,35.0,-49.0,0
2653,264.0,35.0,-47.0,0
2654,265.0,38.0,-44.0,0
2655,265.0,37.0,-47.0,0
2656,266.0,37.0,-49.0,0
2657,264.0,36.0,-45.0,0
2658,263.0,38.0,-48.0,0
2659,264.0,33.0,-52.0,0
2660,263.0,36.0,-48.0,0
2661,267.0,34.0,-46.0,0
2662,264.0,36.0,-44.0,0
2663,264.0,36.0,-48.0,0
2664,263.0,38.0,-47.0,0
2665,267.0,35.0,-49.0,0
2666,267.0,37.0,-43.0,0
2667,261.0,39.0,-48.0,0
2668,264.0,40.0,-46.0,0
2669,267.0,38.0,-49.0,0
2670,263.0,38.0,-43.0,0
2671,264.0,37.0,-45.0,0
2672,263.0,37.0,-44.0,0
2673,265.0,36.0,-46.0,0
2674,266.0,36.0,-46.0,0
2675,263.0,38.0,-46.0,0
2676,264.0,36.0,-45.0,0
2677,260.0,37.0,-44.0,0
2678,264.0,38.0,-46.0,0
2679,262.0,38.0,-44.0,0
2680,265.0,35.0,-47.0,0
2681,268.0,39.0,-41.0,0
2682,262.0,36.0,-48.0,0
2683,263.0,37.0,-49.0,0
2684,266.0,37.0,-45.0,0
2685,266.0,35.0,-44.0,0
2686,261.0,41.0,-43.0,0
2687,263.0,38.0,-50.0,0
2688,265.0,38.0,-46.0,0
2689,262.0,35.0,-48.0,0
2690,263.0,40.0,-44.0,0
2691,261.0,36.0,-49.0,0
2692,266.0,34.0,-44.0,0
2693,264.0,37.0,-52.0,0
2694,262.0,34.0,-47.0,0
2695,262.0,37.0,-47.0,0
2696,264.0,35.0,-47.0,0
2697,261.0,36.0,-47.0,0
2698,264.0,40.0,-44.0,0
2699,261.0,35.0,-46.0,0
2700,264.0,38.0,-45.0,0
2701,263.0,34.0,-50.0,0
2702,262.0,37.0,-46.0,0
2703,265.0,40.0,-46.0,0
2704,268.0,36.0,-47.0,0
2705,266.0,33.0,-46.0,0
2706,265.0,38.0,-48.0,0
2707,264.0,38.0,-48.0,0
2708,266.0,37.0,-49.0,0
2709,262.0,39.0,-43.0,0
2710,263.0,36.0,-48.0,0
2711,260.0,38.0,-44.0,0
2712,263.0,36.0,-49.0,0
2713,263.0,38.0,-45.0,0
2714,263.0,42.0,-42.0,0
2715,265.0,38.0,-45.0,0
2716,266.0,34.0,-49.0,0
2717,263.0,37.0,-45.0,0
2718,265.0,39.0,-42.0,0
2719,267.0,35.0,-45.0,0
2720,264.0,35.0,-46.0,0
2721,266.0,34.0,-48.0,0
2722,262.0,37.0,-47.0,0
2723,264.0,39.0,-46.0,0
2724,265.0,39.0,-46.0,0
2725,263.0,48.0,-45.0,0
2726,264.0,40.0,-47.0,0
2727,264.0,37.0,-43.0,0
2728,264.0,35.0,-47.0,0
2729,266.0,37.0,-46.0,0
2730,264.0,39.0,-46.0,0
2731,266.0,38.0,-46.0,0
2732,262.0,38.0,-46.0,0
2733,263.0,39.0,-49.0,0
2734,262.0,39.0,-50.0,0
2735,262.0,36.0,-49.0,0
2736,271.0,36.0,-39.0,0
2737,262.0,38.0,-46.0,0
2738,266.0,36.0,-46.0,0
2739,266.0,37.0,-45.0,0
2740,265.0,37.0,-45.0,0
2741,265.0,36.0,-48.0,0
2742,263.0,37.0,-45.0,0
2743,265.0,37.0,-46.0,0
2744,265.0,39.0,-46.0,0
2745,267.0,35.0,-43.0,0
2746,259.0,30.0,-49.0,0
2747,264.0,37.0,-46.0,0
2748,262.0,38.0,-46.0,0
2749,266.0,38.0,-44.0,0
2750,264.0,36.0,-46.0,0
2751,264.0,36.0,-45.0,0
2752,263.0,35.0,-45.0,0
2753,264.0,37.0,-43.0,0
2754,263.0,39.0,-50.0,0
2755,264.0,39.0,-44.0,0
2756,264.0,38.0,-48.0,0
2757,263.0,29.0,-43.0,0
2758,265.0,37.0,-44.0,0
2759,263.0,36.0,-45.0,0
2760,262.0,39.0,-51.0,0
2761,264.0,36.0,-47.0,0
2762,263.0,38.0,-50.0,0
2763,265.0,37.0,-46.0,0
2764,269.0,37.0,-41.0,0
2765,264.0,35.0,-49.0,0
2766,262.0,34.0,-49.0,0
2767,265.0,38.0,-51.0,0
2768,263.0,46.0,-48.0,0
2769,266.0,36.0,-47.0,0
2770,266.0,40.0,-45.0,0
2771,262.0,38.0,-50.0,0
2772,263.0,37.0,-47.0,0
2773,265.0,36.0,-45.0,0
2774,265.0,37.0,-46.0,0
2775,266.0,39.0,-44.0,0
2776,264.0,37.0,-44.0,0
2777,265.0,36.0,-47.0,0
2778,266.0,38.0,-40.0,0
2779,273.0,34.0,-45.0,0
2780,260.0,38.0,-45.0,0
2781,264.0,35.0,-44.0,0
2782,262.0,39.0,-48.0,0
2783,261.0,36.0,-44.0,0
2784,263.0,35.0,-45.0,0
2785,264.0,36.0,-45.0,0
2786,266.0,34.0,-44.0,0
2787,265.0,35.0,-43.0,0
2788,261.0,36.0,-50.0,0
2789,268.0,37.0,-50.0,0
2790,263.0,34.0,-46.0,0
2791,265.0,36.0,-47.0,0
2792,263.0,37.0,-48.0,0
2793,263.0,33.0,-46.0,0
2794,266.0,36.0,-48.0,0
2795,263.0,38.0,-47.0,0
2796,266.0,36.0,-45.0,0
2797,262.0,35.0,-45.0,0
2798,266.0,34.0,-48.0,0
2799,263.0,37.0,-44.0,0
2800,267.0,35.0,-45.0,0
2801,259.0,40.0,-42.0,0
2802,264.0,36.0,-47.0,0
2803,263.0,36.0,-44.0,0
2804,261.0,39.0,-44.0,0
2805,264.0,38.0,-45.0,0
2806,260.0,41.0,-47.0,0
2807,264.0,34.0,-48.0,0
2808,262.0,38.0,-49.0,0
2809,268.0,33.0,-47.0,0
2810,263.0,33.0,-44.0,0
2811,264.0,39.0,-44.0,0
2812,265.0,43.0,-47.0,0
2813,264.0,38.0,-46.0,0
2814,264.0,39.0,-43.0,0
2815,267.0,39.0,-41.0,0
2816,263.0,41.0,-45.0,0
2817,264.0,33.0,-46.0,0
2818,267.0,37.0,-44.0,0
2819,264.0,37.0,-47.0,0
2820,267.0,36.0,-46.0,0
2821,263.0,37.0,-39.0,0
2822,264.0,34.0,-48.0,0
2823,268.0,41.0,-42.0,0
2824,263.0,37.0,-45.0,0
2825,264.0,36.0,-47.0,0
2826,262.0,37.0,-46.0,0
2827,265.0,36.0,-47.0,0
2828,267.0,37.0,-43.0,0
2829,266.0,35.0,-48.0,0
2830,262.0,35.0,-50.0,0
2831,265.0,36.0,-46.0,0
2832,266.0,37.0,-45.0,0
2833,264.0,38.0,-45.0,0
2834,263.0,43.0,-47.0,0
2835,264.0,36.0,-44.0,0
2836,263.0,40.0,-47.0,0
2837,265.0,38.0,-44.0,0
2838,261.0,40.0,-47.0,0
2839,264.0,36.0,-43.0,0
2840,265.0,40.0,-49.0,0
2841,264.0,38.0,-46.0,0
2842,267.0,38.0,-42.0,0
2843,265.0,36.0,-47.0,0
2844,262.0,37.0,-42.0,0
2845,264.0,38.0,-44.0,0
2846,263.0,38.0,-49.0,0
2847,265.0,35.0,-45.0,0
2848,265.0,37.0,-42.0,0
2849,264.0,37.0,-46.0,0
2850,261.0,38.0,-47.0,0
2851,265.0,38.0,-47.0,0
2852,269.0,35.0,-47.0,0
2853,265.0,36.0,-46.0,0
2854,265.0,36.0,-47.0,0
2855,268.0,45.0,-45.0,0
2856,263.0,35.0,-43.0,0
2857,265.0,35.0,-46.0,0
2858,265.0,40.0,-48.0,0
2859,264.0,37.0,-42.0,0
2860,264.0,37.0,-45.0,0
2861,262.0,36.0,-45.0,0
2862,262.0,38.0,-43.0,0
2863,263.0,37.0,-43.0,0
2864,263.0,38.0,-45.0,0
2865,263.0,34.0,-44.0,0
2866,264.0,27.0,-42.0,0
2867,265.0,35.0,-44.0,0
2868,262.0,36.0,-49.0,0
2869,263.0,39.0,-44.0,0
2870,264.0,37.0,-46.0,0
2871,263.0,38.0,-44.0,0
2872,266.0,37.0,-45.0,0
2873,266.0,35.0,-44.0,0
2874,263.0,39.0,-41.0,0
2875,264.0,39.0,-44.0,0
2876,265.0,37.0,-47.0,0
2877,267.0,33.0,-48.0,0
2878,264.0,36.0,-45.0,0
2879,263.0,37.0,-44.0,0
2880,265.0,35.0,-46.0,0
2881,265.0,38.0,-46.0,0
2882,263.0,39.0,-47.0,0
2883,265.0,36.0,-47.0,0
2884,266.0,37.0,-41.0,0
2885,263.0,37.0,-45.0,0
2886,266.0,37.0,-47.0,0
2887,267.0,36.0,-44.0,0
2888,258.0,38.0,-41.0,0
2889,264.0,34.0,-46.0,0
2890,266.0,37.0,-42.0,0
2891,262.0,38.0,-43.0,0
2892,263.0,38.0,-44.0,0
2893,264.0,38.0,-44.0,0
2894,264.0,38.0,-42.0,0
2895,263.0,37.0,-47.0,0
2896,265.0,36.0,-42.0,0
2897,268.0,38.0,-42.0,0
2898,262.0,38.0,-39.0,0
2899,262.0,31.0,-43.0,0
2900,264.0,36.0,-41.0,0
2901,262.0,37.0,-47.0,0
2902,263.0,37.0,-50.0,0
2903,261.0,39.0,-42.0,0
2904,262.0,39.0,-48.0,0
2905,263.0,36.0,-44.0,0
2906,260.0,37.0,-42.0,0
2907,263.0,34.0,-44.0,0
2908,268.0,37.0,-43.0,0
2909,261.0,40.0,-43.0,0
2910,267.0,40.0,-35.0,0
2911,268.0,34.0,-46.0,0
2912,261.0,38.0,-44.0,0
2913,264.0,37.0,-47.0,0
2914,265.0,36.0,-46.0,0
2915,266.0,37.0,-46.0,0
2916,268.0,36.0,-46.0,0
2917,263.0,39.0,-39.0,0
2918,266.0,38.0,-47.0,0
2919,265.0,36.0,-44.0,0
2920,265.0,36.0,-49.0,0
2921,262.0,37.0,-45.0,0
2922,265.0,36.0,-43.0,0
2923,264.0,37.0,-43.0,0
2924,263.0,37.0,-45.0,0
2925,263.0,40.0,-46.0,0
2926,263.0,39.0,-48.0,0
2927,262.0,38.0,-46.0,0
2928,265.0,39.0,-40.0,0
2929,265.0,37.0,-46.0,0
2930,263.0,38.0,-42.0,0
2931,264.0,39.0,-40.0,0
2932,269.0,37.0,-43.0,0
2933,264.0,36.0,-42.0,0
2934,264.0,38.0,-43.0,0
2935,264.0,38.0,-43.0,0
2936,261.0,40.0,-44.0,0
2937,263.0,38.0,-46.0,0
2938,264.0,37.0,-46.0,0
2939,260.0,37.0,-44.0,0
2940,266.0,38.0,-44.0,0
2941,263.0,37.0,-43.0,0
2942,264.0,37.0,-43.0,0
2943,263.0,38.0,-41.0,0
2944,265.0,39.0,-43.0,0
2945,264.0,38.0,-43.0,0
2946,264.0,38.0,-44.0,0
2947,265.0,40.0,-43.0,0
2948,262.0,39.0,-42.0,0
2949,264.0,38.0,-44.0,0
2950,263.0,36.0,-47.0,0
2951,260.0,33.0,-45.0,0
2952,260.0,41.0,-44.0,0
2953,269.0,39.0,-53.0,0
2954,264.0,40.0,-45.0,0
2955,264.0,39.0,-41.0,0
2956,264.0,40.0,-42.0,0
2957,266.0,38.0,-46.0,0
2958,265.0,35.0,-42.0,0
2959,265.0,38.0,-42.0,0
2960,264.0,38.0,-43.0,0
2961,263.0,37.0,-44.0,0
2962,265.0,35.0,-44.0,0
2963,264.0,39.0,-43.0,0
2964,261.0,38.0,-47.0,0
2965,264.0,36.0,-44.0,0
2966,265.0,37.0,-43.0,0
2967,265.0,35.0,-48.0,0
2968,267.0,36.0,-41.0,0
2969,264.0,36.0,-44.0,0
2970,265.0,36.0,-44.0,0
2971,262.0,36.0,-45.0,0
2972,266.0,37.0,-44.0,0
2973,264.0,39.0,-41.0,0
2974,266.0,35.0,-51.0,0
2975,265.0,38.0,-43.0,0
2976,265.0,40.0,-45.0,0
2977,265.0,37.0,-42.0,0
2978,264.0,38.0,-43.0,0
2979,265.0,37.0,-44.0,0
2980,262.0,37.0,-44.0,0
2981,264.0,36.0,-45.0,0
2982,265.0,36.0,-42.0,0
2983,266.0,38.0,-42.0,0
2984,263.0,37.0,-43.0,0
2985,260.0,44.0,-37.0,0
2986,262.0,40.0,-45.0,0
2987,263.0,39.0,-46.0,0
2988,263.0,38.0,-42.0,0
2989,266.0,39.0,-41.0,0
2990,263.0,38.0,-40.0,0
2991,265.0,36.0,-45.0,0
2992,263.0,35.0,-40.0,0
2993,264.0,39.0,-45.0,0
2994,264.0,35.0,-46.0,0
2995,263.0,37.0,-43.0,0
2996,263.0,39.0,-42.0,0
2997,268.0,34.0,-43.0,0
2998,263.0,38.0,-45.0,0
2999,261.0,40.0,-38.0,0
