,accelerometer_x,accelerometer_y,accelerometer_z,fall
0,35.0,-254.0,-102.0,0
1,35.0,-252.0,-104.0,0
2,39.0,-257.0,-102.0,0
3,41.0,-256.0,-105.0,0
4,41.0,-252.0,-108.0,0
5,41.0,-251.0,-110.0,0
6,46.0,-250.0,-108.0,0
7,45.0,-254.0,-108.0,0
8,43.0,-254.0,-109.0,0
9,47.0,-251.0,-107.0,0
10,46.0,-249.0,-109.0,0
11,48.0,-250.0,-109.0,0
12,48.0,-250.0,-105.0,0
13,51.0,-253.0,-108.0,0
14,48.0,-252.0,-104.0,0
15,50.0,-255.0,-110.0,0
16,53.0,-256.0,-108.0,0
17,47.0,-255.0,-105.0,0
18,45.0,-255.0,-106.0,0
19,47.0,-258.0,-104.0,0
20,44.0,-260.0,-104.0,0
21,45.0,-259.0,-104.0,0
22,45.0,-261.0,-104.0,0
23,43.0,-260.0,-104.0,0
24,46.0,-260.0,-107.0,0
25,36.0,-260.0,-103.0,0
26,44.0,-259.0,-104.0,0
27,50.0,-261.0,-105.0,0
28,47.0,-259.0,-103.0,0
29,50.0,-260.0,-97.0,0
30,51.0,-258.0,-103.0,0
31,47.0,-257.0,-103.0,0
32,48.0,-258.0,-99.0,0
33,49.0,-255.0,-100.0,0
34,48.0,-256.0,-97.0,0
35,51.0,-258.0,-103.0,0
36,51.0,-258.0,-98.0,0
37,51.0,-254.0,-99.0,0
38,50.0,-256.0,-103.0,0
39,51.0,-256.0,-98.0,0
40,52.0,-256.0,-96.0,0
41,54.0,-257.0,-95.0,0
42,53.0,-256.0,-93.0,0
43,53.0,-256.0,-95.0,0
44,49.0,-257.0,-96.0,0
45,50.0,-254.0,-98.0,0
46,50.0,-254.0,-99.0,0
47,53.0,-257.0,-98.0,0
48,52.0,-255.0,-98.0,0
49,53.0,-256.0,-95.0,0
50,55.0,-256.0,-98.0,0
51,53.0,-256.0,-93.0,0
52,50.0,-256.0,-96.0,0
53,56.0,-258.0,-95.0,0
54,53.0,-256.0,-96.0,0
55,54.0,-257.0,-89.0,0
56,54.0,-256.0,-98.0,0
57,52.0,-259.0,-92.0,0
58,53.0,-260.0,-95.0,0
59,50.0,-257.0,-88.0,0
60,48.0,-259.0,-90.0,0
61,49.0,-259.0,-91.0,0
62,50.0,-261.0,-86.0,0
63,50.0,-255.0,-88.0,0
64,46.0,-256.0,-89.0,0
65,47.0,-256.0,-88.0,0
66,44.0,-255.0,-88.0,0
67,43.0,-256.0,-87.0,0
68,42.0,-255.0,-88.0,0
69,38.0,-251.0,-90.0,0
70,40.0,-252.0,-83.0,0
71,38.0,-251.0,-88.0,0
72,36.0,-247.0,-90.0,0
73,37.0,-249.0,-86.0,0
74,34.0,-246.0,-87.0,0
75,34.0,-247.0,-89.0,0
76,36.0,-247.0,-92.0,0
77,35.0,-246.0,-91.0,0
78,35.0,-247.0,-89.0,0
79,35.0,-249.0,-93.0,0
80,40.0,-252.0,-80.0,0
81,41.0,-250.0,-90.0,0
82,44.0,-254.0,-92.0,0
83,42.0,-258.0,-96.0,0
84,41.0,-259.0,-94.0,0
85,47.0,-263.0,-90.0,0
86,43.0,-266.0,-92.0,0
87,45.0,-268.0,-97.0,0
88,47.0,-268.0,-95.0,0
89,49.0,-272.0,-102.0,0
90,47.0,-272.0,-97.0,0
91,50.0,-274.0,-99.0,0
92,49.0,-271.0,-103.0,0
93,49.0,-273.0,-103.0,0
94,52.0,-271.0,-105.0,0
95,47.0,-270.0,-103.0,0
96,50.0,-271.0,-105.0,0
97,50.0,-267.0,-106.0,0
98,51.0,-268.0,-108.0,0
99,44.0,-261.0,-99.0,0
100,46.0,-260.0,-106.0,0
101,44.0,-261.0,-104.0,0
102,37.0,-256.0,-102.0,0
103,37.0,-256.0,-97.0,0
104,32.0,-254.0,-96.0,0
105,31.0,-255.0,-93.0,0
106,27.0,-253.0,-95.0,0
107,27.0,-252.0,-91.0,0
108,25.0,-255.0,-93.0,0
109,24.0,-251.0,-89.0,0
110,20.0,-251.0,-82.0,0
111,23.0,-252.0,-87.0,0
112,19.0,-253.0,-86.0,0
113,17.0,-250.0,-87.0,0
114,17.0,-248.0,-85.0,0
115,17.0,-246.0,-90.0,0
116,15.0,-249.0,-89.0,0
117,14.0,-252.0,-84.0,0
118,13.0,-247.0,-89.0,0
119,10.0,-250.0,-86.0,0
120,8.0,-251.0,-88.0,0
121,11.0,-248.0,-90.0,0
122,6.0,-243.0,-95.0,0
123,9.0,-250.0,-90.0,0
124,12.0,-250.0,-89.0,0
125,10.0,-250.0,-88.0,0
126,14.0,-253.0,-90.0,0
127,15.0,-255.0,-88.0,0
128,15.0,-255.0,-88.0,0
129,18.0,-255.0,-90.0,0
130,21.0,-254.0,-90.0,0
131,25.0,-256.0,-96.0,0
132,26.0,-266.0,-94.0,0
133,29.0,-273.0,-94.0,0
134,31.0,-273.0,-94.0,0
135,27.0,-266.0,-97.0,0
136,22.0,-260.0,-99.0,0
137,12.0,-251.0,-98.0,0
138,5.0,-242.0,-97.0,0
139,2.0,-247.0,-102.0,0
140,1.0,-252.0,-98.0,0
141,0.0,-254.0,-92.0,0
142,0.0,-257.0,-95.0,0
143,0.0,-263.0,-92.0,0
144,-1.0,-269.0,-96.0,0
145,-1.0,-270.0,-99.0,0
146,-4.0,-266.0,-102.0,0
147,-6.0,-262.0,-100.0,0
148,-8.0,-256.0,-104.0,0
149,-2.0,-260.0,-101.0,0
150,-1.0,-256.0,-98.0,0
151,0.0,-255.0,-100.0,0
152,0.0,-257.0,-97.0,0
153,0.0,-257.0,-98.0,0
154,1.0,-259.0,-102.0,0
155,-2.0,-254.0,-96.0,0
156,1.0,-258.0,-96.0,0
157,1.0,-256.0,-96.0,0
158,1.0,-258.0,-93.0,0
159,0.0,-259.0,-92.0,0
160,1.0,-258.0,-92.0,0
161,0.0,-259.0,-88.0,0
162,-3.0,-260.0,-86.0,0
163,-1.0,-263.0,-82.0,0
164,-4.0,-259.0,-87.0,0
165,-9.0,-260.0,-89.0,0
166,-11.0,-259.0,-95.0,0
167,-11.0,-257.0,-89.0,0
168,-13.0,-258.0,-88.0,0
169,-10.0,-257.0,-91.0,0
170,-10.0,-259.0,-90.0,0
171,-8.0,-257.0,-87.0,0
172,-10.0,-255.0,-90.0,0
173,-9.0,-254.0,-88.0,0
174,-2.0,-256.0,-90.0,0
175,0.0,-253.0,-92.0,0
176,0.0,-252.0,-92.0,0
177,-1.0,-250.0,-94.0,0
178,0.0,-249.0,-94.0,0
179,0.0,-247.0,-91.0,0
180,3.0,-249.0,-92.0,0
181,1.0,-246.0,-93.0,0
182,3.0,-251.0,-93.0,0
183,3.0,-246.0,-87.0,0
184,3.0,-247.0,-95.0,0
185,6.0,-249.0,-92.0,0
186,6.0,-248.0,-95.0,0
187,7.0,-253.0,-98.0,0
188,7.0,-251.0,-95.0,0
189,3.0,-250.0,-96.0,0
190,5.0,-254.0,-97.0,0
191,5.0,-255.0,-96.0,0
192,11.0,-255.0,-100.0,0
193,15.0,-255.0,-90.0,0
194,19.0,-255.0,-87.0,0
195,18.0,-258.0,-92.0,0
196,16.0,-254.0,-93.0,0
197,16.0,-254.0,-93.0,0
198,18.0,-255.0,-91.0,0
199,16.0,-256.0,-92.0,0
200,6.0,-255.0,-95.0,0
201,-3.0,-259.0,-104.0,0
202,-6.0,-264.0,-109.0,0
203,13.0,-254.0,-88.0,0
204,12.0,-255.0,-91.0,0
205,10.0,-255.0,-95.0,0
206,9.0,-257.0,-89.0,0
207,9.0,-257.0,-92.0,0
208,14.0,-259.0,-95.0,0
209,16.0,-255.0,-98.0,0
210,6.0,-255.0,-94.0,0
211,8.0,-256.0,-97.0,0
212,6.0,-259.0,-95.0,0
213,9.0,-259.0,-95.0,0
214,12.0,-260.0,-92.0,0
215,8.0,-260.0,-93.0,0
216,11.0,-259.0,-95.0,0
217,10.0,-259.0,-94.0,0
218,6.0,-260.0,-94.0,0
219,7.0,-258.0,-94.0,0
220,10.0,-247.0,-103.0,0
221,8.0,-258.0,-93.0,0
222,4.0,-252.0,-94.0,0
223,6.0,-258.0,-95.0,0
224,4.0,-256.0,-94.0,0
225,6.0,-257.0,-93.0,0
226,5.0,-254.0,-96.0,0
227,4.0,-254.0,-92.0,0
228,5.0,-255.0,-94.0,0
229,6.0,-252.0,-93.0,0
230,2.0,-251.0,-94.0,0
231,5.0,-251.0,-95.0,0
232,7.0,-251.0,-95.0,0
233,6.0,-253.0,-95.0,0
234,5.0,-251.0,-93.0,0
235,3.0,-249.0,-95.0,0
236,7.0,-251.0,-95.0,0
237,3.0,-253.0,-91.0,0
238,6.0,-255.0,-94.0,0
239,3.0,-253.0,-90.0,0
240,3.0,-254.0,-96.0,0
241,3.0,-256.0,-94.0,0
242,2.0,-257.0,-94.0,0
243,1.0,-257.0,-94.0,0
244,0.0,-258.0,-94.0,0
245,0.0,-256.0,-93.0,0
246,1.0,-257.0,-93.0,0
247,2.0,-256.0,-96.0,0
248,5.0,-256.0,-95.0,0
249,4.0,-254.0,-95.0,0
250,2.0,-256.0,-94.0,0
251,8.0,-257.0,-95.0,0
252,4.0,-257.0,-94.0,0
253,7.0,-256.0,-96.0,0
254,6.0,-258.0,-96.0,0
255,6.0,-255.0,-103.0,0
256,3.0,-255.0,-98.0,0
257,6.0,-257.0,-98.0,0
258,5.0,-261.0,-98.0,0
259,10.0,-262.0,-100.0,0
260,2.0,-259.0,-96.0,0
261,5.0,-260.0,-93.0,0
262,8.0,-261.0,-95.0,0
263,6.0,-260.0,-97.0,0
264,4.0,-260.0,-96.0,0
265,7.0,-258.0,-97.0,0
266,5.0,-259.0,-97.0,0
267,6.0,-258.0,-92.0,0
268,6.0,-258.0,-91.0,0
269,9.0,-259.0,-97.0,0
270,8.0,-257.0,-96.0,0
271,10.0,-257.0,-94.0,0
272,7.0,-255.0,-96.0,0
273,7.0,-256.0,-96.0,0
274,9.0,-258.0,-93.0,0
275,12.0,-261.0,-95.0,0
276,8.0,-256.0,-92.0,0
277,7.0,-256.0,-93.0,0
278,4.0,-254.0,-95.0,0
279,3.0,-255.0,-89.0,0
280,2.0,-258.0,-95.0,0
281,3.0,-256.0,-96.0,0
282,0.0,-255.0,-91.0,0
283,3.0,-255.0,-94.0,0
284,1.0,-253.0,-90.0,0
285,1.0,-255.0,-91.0,0
286,1.0,-256.0,-92.0,0
287,1.0,-255.0,-93.0,0
288,1.0,-255.0,-92.0,0
289,2.0,-255.0,-97.0,0
290,0.0,-256.0,-94.0,0
291,2.0,-253.0,-93.0,0
292,2.0,-254.0,-95.0,0
293,0.0,-256.0,-93.0,0
294,2.0,-253.0,-94.0,0
295,3.0,-254.0,-96.0,0
296,0.0,-255.0,-92.0,0
297,-2.0,-252.0,-105.0,0
298,0.0,-256.0,-95.0,0
299,3.0,-255.0,-96.0,0
300,2.0,-257.0,-96.0,0
301,1.0,-258.0,-95.0,0
302,1.0,-260.0,-101.0,0
303,1.0,-259.0,-100.0,0
304,3.0,-258.0,-98.0,0
305,1.0,-258.0,-96.0,0
306,2.0,-259.0,-101.0,0
307,0.0,-258.0,-92.0,0
308,2.0,-259.0,-98.0,0
309,3.0,-258.0,-97.0,0
310,2.0,-256.0,-97.0,0
311,3.0,-256.0,-102.0,0
312,4.0,-256.0,-96.0,0
313,6.0,-258.0,-99.0,0
314,5.0,-256.0,-97.0,0
315,2.0,-257.0,-96.0,0
316,6.0,-256.0,-99.0,0
317,7.0,-257.0,-96.0,0
318,9.0,-267.0,-76.0,0
319,4.0,-258.0,-99.0,0
320,10.0,-256.0,-102.0,0
321,10.0,-255.0,-97.0,0
322,10.0,-257.0,-97.0,0
323,11.0,-256.0,-97.0,0
324,8.0,-256.0,-97.0,0
325,11.0,-255.0,-94.0,0
326,11.0,-255.0,-100.0,0
327,13.0,-256.0,-98.0,0
328,12.0,-255.0,-95.0,0
329,13.0,-256.0,-94.0,0
330,16.0,-259.0,-95.0,0
331,14.0,-255.0,-99.0,0
332,16.0,-256.0,-95.0,0
333,14.0,-256.0,-97.0,0
334,15.0,-257.0,-97.0,0
335,15.0,-256.0,-97.0,0
336,14.0,-257.0,-98.0,0
337,14.0,-256.0,-97.0,0
338,16.0,-254.0,-98.0,0
339,14.0,-256.0,-98.0,0
340,16.0,-255.0,-97.0,0
341,16.0,-256.0,-100.0,0
342,16.0,-257.0,-95.0,0
343,16.0,-256.0,-97.0,0
344,16.0,-256.0,-99.0,0
345,17.0,-257.0,-100.0,0
346,16.0,-259.0,-98.0,0
347,16.0,-257.0,-98.0,0
348,16.0,-256.0,-98.0,0
349,15.0,-255.0,-99.0,0
350,15.0,-257.0,-99.0,0
351,14.0,-253.0,-99.0,0
352,15.0,-256.0,-99.0,0
353,13.0,-257.0,-100.0,0
354,12.0,-254.0,-97.0,0
355,16.0,-257.0,-102.0,0
356,15.0,-256.0,-100.0,0
357,13.0,-256.0,-99.0,0
358,17.0,-258.0,-94.0,0
359,13.0,-255.0,-102.0,0
360,13.0,-254.0,-101.0,0
361,14.0,-257.0,-99.0,0
362,16.0,-256.0,-101.0,0
363,16.0,-259.0,-96.0,0
364,13.0,-254.0,-100.0,0
365,15.0,-256.0,-102.0,0
366,15.0,-256.0,-103.0,0
367,11.0,-255.0,-99.0,0
368,15.0,-256.0,-95.0,0
369,14.0,-256.0,-97.0,0
370,16.0,-258.0,-102.0,0
371,15.0,-257.0,-99.0,0
372,13.0,-255.0,-98.0,0
373,15.0,-255.0,-95.0,0
374,17.0,-257.0,-99.0,0
375,17.0,-257.0,-98.0,0
376,15.0,-255.0,-100.0,0
377,16.0,-256.0,-95.0,0
378,16.0,-254.0,-96.0,0
379,19.0,-258.0,-97.0,0
380,16.0,-256.0,-97.0,0
381,18.0,-258.0,-95.0,0
382,16.0,-257.0,-98.0,0
383,15.0,-256.0,-97.0,0
384,19.0,-261.0,-94.0,0
385,16.0,-256.0,-96.0,0
386,18.0,-258.0,-102.0,0
387,15.0,-257.0,-96.0,0
388,16.0,-256.0,-98.0,0
389,15.0,-256.0,-99.0,0
390,12.0,-253.0,-98.0,0
391,14.0,-255.0,-97.0,0
392,13.0,-257.0,-100.0,0
393,15.0,-257.0,-95.0,0
394,14.0,-256.0,-96.0,0
395,12.0,-254.0,-98.0,0
396,13.0,-256.0,-97.0,0
397,13.0,-256.0,-96.0,0
398,15.0,-257.0,-98.0,0
399,15.0,-255.0,-97.0,0
400,14.0,-257.0,-97.0,0
401,11.0,-254.0,-98.0,0
402,14.0,-255.0,-95.0,0
403,14.0,-255.0,-97.0,0
404,13.0,-259.0,-93.0,0
405,9.0,-256.0,-98.0,0
406,13.0,-255.0,-101.0,0
407,15.0,-258.0,-97.0,0
408,12.0,-256.0,-101.0,0
409,12.0,-255.0,-100.0,0
410,11.0,-255.0,-98.0,0
411,12.0,-255.0,-97.0,0
412,15.0,-255.0,-98.0,0
413,9.0,-255.0,-96.0,0
414,9.0,-256.0,-101.0,0
415,12.0,-258.0,-96.0,0
416,9.0,-264.0,-92.0,0
417,11.0,-256.0,-99.0,0
418,13.0,-259.0,-97.0,0
419,11.0,-258.0,-98.0,0
420,12.0,-258.0,-97.0,0
421,12.0,-258.0,-97.0,0
422,11.0,-254.0,-96.0,0
423,10.0,-256.0,-99.0,0
424,11.0,-256.0,-97.0,0
425,10.0,-255.0,-100.0,0
426,13.0,-254.0,-100.0,0
427,12.0,-255.0,-97.0,0
428,11.0,-256.0,-103.0,0
429,11.0,-258.0,-99.0,0
430,13.0,-256.0,-96.0,0
431,9.0,-256.0,-94.0,0
432,12.0,-256.0,-100.0,0
433,9.0,-255.0,-99.0,0
434,10.0,-255.0,-90.0,0
435,13.0,-255.0,-98.0,0
436,12.0,-256.0,-95.0,0
437,10.0,-254.0,-97.0,0
438,9.0,-256.0,-95.0,0
439,11.0,-256.0,-97.0,0
440,12.0,-256.0,-96.0,0
441,9.0,-254.0,-93.0,0
442,10.0,-255.0,-97.0,0
443,12.0,-255.0,-95.0,0
444,14.0,-258.0,-95.0,0
445,11.0,-258.0,-97.0,0
446,11.0,-255.0,-94.0,0
447,12.0,-256.0,-95.0,0
448,12.0,-256.0,-96.0,0
449,10.0,-255.0,-97.0,0
450,16.0,-253.0,-92.0,0
451,12.0,-255.0,-97.0,0
452,11.0,-257.0,-94.0,0
453,10.0,-258.0,-97.0,0
454,14.0,-257.0,-97.0,0
455,11.0,-258.0,-96.0,0
456,11.0,-256.0,-96.0,0
457,11.0,-258.0,-96.0,0
458,11.0,-256.0,-97.0,0
459,11.0,-256.0,-96.0,0
460,13.0,-258.0,-96.0,0
461,13.0,-258.0,-95.0,0
462,11.0,-256.0,-95.0,0
463,8.0,-257.0,-96.0,0
464,9.0,-258.0,-102.0,0
465,12.0,-257.0,-93.0,0
466,14.0,-256.0,-96.0,0
467,14.0,-257.0,-93.0,0
468,11.0,-257.0,-95.0,0
469,11.0,-256.0,-100.0,0
470,13.0,-257.0,-98.0,0
471,14.0,-253.0,-93.0,0
472,11.0,-256.0,-97.0,0
473,12.0,-255.0,-100.0,0
474,13.0,-257.0,-94.0,0
475,10.0,-256.0,-95.0,0
476,12.0,-256.0,-94.0,0
477,10.0,-254.0,-96.0,0
478,12.0,-257.0,-97.0,0
479,12.0,-258.0,-93.0,0
480,12.0,-255.0,-96.0,0
481,13.0,-255.0,-97.0,0
482,14.0,-259.0,-96.0,0
483,10.0,-256.0,-96.0,0
484,9.0,-255.0,-97.0,0
485,12.0,-257.0,-96.0,0
486,11.0,-255.0,-96.0,0
487,8.0,-256.0,-100.0,0
488,10.0,-258.0,-96.0,0
489,14.0,-256.0,-93.0,0
490,11.0,-256.0,-94.0,0
491,10.0,-256.0,-95.0,0
492,10.0,-257.0,-96.0,0
493,11.0,-260.0,-103.0,0
494,11.0,-257.0,-98.0,0
495,9.0,-257.0,-92.0,0
496,10.0,-256.0,-96.0,0
497,12.0,-256.0,-95.0,0
498,10.0,-257.0,-92.0,0
499,12.0,-259.0,-100.0,0
500,9.0,-256.0,-98.0,0
501,11.0,-256.0,-93.0,0
502,14.0,-256.0,-94.0,0
503,9.0,-247.0,-100.0,0
504,14.0,-256.0,-99.0,0
505,10.0,-256.0,-96.0,0
506,12.0,-257.0,-96.0,0
507,10.0,-257.0,-94.0,0
508,10.0,-254.0,-95.0,0
509,13.0,-258.0,-95.0,0
510,14.0,-256.0,-98.0,0
511,11.0,-256.0,-97.0,0
512,12.0,-258.0,-96.0,0
513,12.0,-257.0,-92.0,0
514,9.0,-256.0,-107.0,0
515,11.0,-256.0,-95.0,0
516,12.0,-257.0,-94.0,0
517,11.0,-256.0,-94.0,0
518,10.0,-256.0,-97.0,0
519,14.0,-255.0,-94.0,0
520,12.0,-256.0,-97.0,0
521,10.0,-255.0,-98.0,0
522,8.0,-258.0,-93.0,0
523,11.0,-257.0,-94.0,0
524,11.0,-256.0,-94.0,0
525,13.0,-255.0,-95.0,0
526,11.0,-257.0,-93.0,0
527,11.0,-257.0,-94.0,0
528,13.0,-258.0,-92.0,0
529,12.0,-252.0,-94.0,0
530,11.0,-259.0,-97.0,0
531,11.0,-256.0,-93.0,0
532,13.0,-257.0,-97.0,0
533,9.0,-257.0,-97.0,0
534,12.0,-256.0,-96.0,0
535,11.0,-254.0,-93.0,0
536,12.0,-259.0,-95.0,0
537,12.0,-257.0,-97.0,0
538,10.0,-256.0,-98.0,0
539,9.0,-256.0,-95.0,0
540,10.0,-256.0,-95.0,0
541,10.0,-256.0,-94.0,0
542,13.0,-256.0,-92.0,0
543,9.0,-260.0,-99.0,0
544,10.0,-255.0,-95.0,0
545,12.0,-257.0,-97.0,0
546,12.0,-257.0,-96.0,0
547,11.0,-257.0,-96.0,0
548,11.0,-256.0,-99.0,0
549,10.0,-256.0,-99.0,0
550,9.0,-257.0,-95.0,0
551,7.0,-255.0,-97.0,0
552,11.0,-255.0,-99.0,0
553,9.0,-254.0,-100.0,0
554,12.0,-257.0,-99.0,0
555,11.0,-256.0,-95.0,0
556,9.0,-255.0,-99.0,0
557,8.0,-256.0,-95.0,0
558,10.0,-256.0,-94.0,0
559,10.0,-257.0,-95.0,0
560,11.0,-255.0,-94.0,0
561,10.0,-257.0,-98.0,0
562,10.0,-256.0,-97.0,0
563,11.0,-256.0,-95.0,0
564,11.0,-256.0,-98.0,0
565,8.0,-256.0,-98.0,0
566,11.0,-257.0,-94.0,0
567,11.0,-260.0,-92.0,0
568,12.0,-255.0,-96.0,0
569,9.0,-255.0,-96.0,0
570,11.0,-255.0,-99.0,0
571,10.0,-256.0,-98.0,0
572,11.0,-254.0,-96.0,0
573,14.0,-257.0,-95.0,0
574,11.0,-255.0,-98.0,0
575,13.0,-256.0,-95.0,0
576,9.0,-255.0,-96.0,0
577,13.0,-256.0,-96.0,0
578,11.0,-256.0,-99.0,0
579,13.0,-255.0,-94.0,0
580,4.0,-253.0,-96.0,0
581,13.0,-257.0,-97.0,0
582,13.0,-258.0,-97.0,0
583,11.0,-257.0,-97.0,0
584,11.0,-257.0,-97.0,0
585,11.0,-255.0,-96.0,0
586,11.0,-258.0,-95.0,0
587,12.0,-254.0,-99.0,0
588,10.0,-256.0,-98.0,0
589,9.0,-256.0,-98.0,0
590,11.0,-256.0,-96.0,0
591,13.0,-256.0,-99.0,0
592,8.0,-254.0,-98.0,0
593,11.0,-255.0,-99.0,0
594,10.0,-255.0,-99.0,0
595,13.0,-257.0,-97.0,0
596,11.0,-256.0,-99.0,0
597,12.0,-255.0,-98.0,0
598,10.0,-256.0,-98.0,0
599,13.0,-255.0,-99.0,0
600,11.0,-256.0,-99.0,0
601,15.0,-270.0,-94.0,0
602,9.0,-253.0,-100.0,0
603,15.0,-256.0,-98.0,0
604,13.0,-256.0,-98.0,0
605,11.0,-256.0,-98.0,0
606,15.0,-255.0,-100.0,0
607,15.0,-256.0,-101.0,0
608,13.0,-254.0,-97.0,0
609,12.0,-255.0,-98.0,0
610,11.0,-252.0,-99.0,0
611,15.0,-256.0,-98.0,0
612,12.0,-248.0,-105.0,0
613,12.0,-256.0,-99.0,0
614,12.0,-256.0,-100.0,0
615,13.0,-255.0,-100.0,0
616,12.0,-256.0,-96.0,0
617,13.0,-257.0,-97.0,0
618,13.0,-254.0,-97.0,0
619,9.0,-257.0,-99.0,0
620,10.0,-256.0,-99.0,0
621,15.0,-256.0,-98.0,0
622,13.0,-255.0,-102.0,0
623,11.0,-255.0,-102.0,0
624,10.0,-257.0,-99.0,0
625,11.0,-255.0,-100.0,0
626,11.0,-254.0,-98.0,0
627,11.0,-254.0,-97.0,0
628,10.0,-255.0,-98.0,0
629,12.0,-255.0,-98.0,0
630,16.0,-255.0,-100.0,0
631,15.0,-256.0,-100.0,0
632,12.0,-255.0,-101.0,0
633,14.0,-256.0,-102.0,0
634,10.0,-253.0,-98.0,0
635,12.0,-257.0,-99.0,0
636,13.0,-254.0,-101.0,0
637,18.0,-254.0,-97.0,0
638,9.0,-255.0,-100.0,0
639,11.0,-254.0,-100.0,0
640,13.0,-253.0,-99.0,0
641,11.0,-254.0,-100.0,0
642,14.0,-255.0,-98.0,0
643,12.0,-256.0,-100.0,0
644,11.0,-256.0,-102.0,0
645,16.0,-256.0,-98.0,0
646,9.0,-252.0,-99.0,0
647,11.0,-254.0,-104.0,0
648,12.0,-255.0,-97.0,0
649,9.0,-254.0,-101.0,0
650,13.0,-256.0,-100.0,0
651,9.0,-254.0,-102.0,0
652,11.0,-255.0,-102.0,0
653,12.0,-256.0,-102.0,0
654,10.0,-256.0,-104.0,0
655,12.0,-256.0,-99.0,0
656,10.0,-256.0,-99.0,0
657,12.0,-256.0,-100.0,0
658,14.0,-258.0,-99.0,0
659,12.0,-255.0,-100.0,0
660,12.0,-254.0,-99.0,0
661,11.0,-255.0,-102.0,0
662,14.0,-254.0,-101.0,0
663,13.0,-256.0,-102.0,0
664,11.0,-253.0,-101.0,0
665,13.0,-256.0,-100.0,0
666,12.0,-256.0,-102.0,0
667,12.0,-255.0,-102.0,0
668,17.0,-256.0,-93.0,0
669,12.0,-255.0,-104.0,0
670,13.0,-255.0,-106.0,0
671,12.0,-256.0,-103.0,0
672,11.0,-256.0,-103.0,0
673,11.0,-254.0,-104.0,0
674,13.0,-253.0,-105.0,0
675,11.0,-255.0,-103.0,0
676,11.0,-253.0,-104.0,0
677,13.0,-254.0,-101.0,0
678,11.0,-254.0,-100.0,0
679,14.0,-255.0,-102.0,0
680,14.0,-252.0,-103.0,0
681,11.0,-253.0,-104.0,0
682,11.0,-253.0,-101.0,0
683,15.0,-255.0,-102.0,0
684,14.0,-252.0,-103.0,0
685,12.0,-252.0,-103.0,0
686,11.0,-254.0,-103.0,0
687,11.0,-255.0,-107.0,0
688,13.0,-253.0,-109.0,0
689,13.0,-249.0,-99.0,0
690,10.0,-254.0,-105.0,0
691,11.0,-252.0,-107.0,0
692,11.0,-253.0,-102.0,0
693,15.0,-253.0,-105.0,0
694,10.0,-253.0,-104.0,0
695,17.0,-254.0,-106.0,0
696,10.0,-253.0,-110.0,0
697,10.0,-252.0,-104.0,0
698,11.0,-247.0,-109.0,0
699,8.0,-258.0,-100.0,0
700,10.0,-252.0,-102.0,0
701,12.0,-254.0,-109.0,0
702,11.0,-253.0,-111.0,0
703,8.0,-253.0,-105.0,0
704,11.0,-252.0,-105.0,0
705,9.0,-252.0,-107.0,0
706,10.0,-253.0,-108.0,0
707,12.0,-251.0,-110.0,0
708,11.0,-251.0,-112.0,0
709,10.0,-250.0,-110.0,0
710,12.0,-252.0,-110.0,0
711,13.0,-250.0,-109.0,0
712,13.0,-251.0,-112.0,0
713,10.0,-251.0,-111.0,0
714,14.0,-252.0,-109.0,0
715,14.0,-250.0,-109.0,0
716,13.0,-252.0,-113.0,0
717,12.0,-250.0,-110.0,0
718,12.0,-251.0,-112.0,0
719,12.0,-250.0,-107.0,0
720,12.0,-254.0,-112.0,0
721,12.0,-254.0,-112.0,0
722,11.0,-252.0,-114.0,0
723,13.0,-255.0,-116.0,0
724,10.0,-254.0,-117.0,0
725,16.0,-253.0,-118.0,0
726,13.0,-250.0,-114.0,0
727,13.0,-251.0,-117.0,0
728,10.0,-249.0,-116.0,0
729,6.0,-247.0,-117.0,0
730,30.0,-245.0,-98.0,0
731,6.0,-248.0,-122.0,0
732,21.0,-251.0,-129.0,0
733,4.0,-244.0,-110.0,0
734,9.0,-249.0,-121.0,0
735,3.0,-241.0,-115.0,0
736,8.0,-252.0,-94.0,0
737,9.0,-251.0,-100.0,0
738,9.0,-236.0,-126.0,0
739,16.0,-231.0,-108.0,0
740,19.0,-239.0,-124.0,0
741,29.0,-237.0,-101.0,0
742,14.0,-252.0,-112.0,0
743,14.0,-252.0,-115.0,0
744,15.0,-250.0,-113.0,0
745,14.0,-249.0,-112.0,0
746,18.0,-242.0,-135.0,0
747,10.0,-250.0,-113.0,0
748,10.0,-249.0,-111.0,0
749,13.0,-251.0,-113.0,0
750,15.0,-254.0,-114.0,0
751,14.0,-252.0,-115.0,0
752,13.0,-254.0,-111.0,0
753,13.0,-253.0,-116.0,0
754,12.0,-251.0,-115.0,0
755,12.0,-247.0,-119.0,0
756,8.0,-248.0,-119.0,0
757,13.0,-250.0,-114.0,0
758,14.0,-249.0,-119.0,0
759,12.0,-245.0,-120.0,0
760,10.0,-248.0,-125.0,0
761,12.0,-243.0,-124.0,0
762,16.0,-244.0,-125.0,0
763,14.0,-242.0,-124.0,0
764,13.0,-241.0,-124.0,0
765,14.0,-240.0,-122.0,0
766,9.0,-237.0,-127.0,0
767,13.0,-236.0,-127.0,0
768,13.0,-236.0,-129.0,0
769,11.0,-238.0,-127.0,0
770,8.0,-234.0,-129.0,0
771,11.0,-237.0,-129.0,0
772,7.0,-233.0,-129.0,0
773,11.0,-238.0,-130.0,0
774,9.0,-236.0,-130.0,0
775,8.0,-234.0,-131.0,0
776,12.0,-237.0,-133.0,0
777,3.0,-231.0,-133.0,0
778,7.0,-236.0,-135.0,0
779,7.0,-237.0,-133.0,0
780,10.0,-235.0,-137.0,0
781,7.0,-237.0,-135.0,0
782,10.0,-233.0,-139.0,0
783,4.0,-231.0,-138.0,0
784,10.0,-231.0,-140.0,0
785,7.0,-233.0,-139.0,0
786,7.0,-233.0,-140.0,0
787,9.0,-231.0,-138.0,0
788,9.0,-229.0,-140.0,0
789,8.0,-231.0,-146.0,0
790,7.0,-227.0,-144.0,0
791,8.0,-230.0,-147.0,0
792,7.0,-226.0,-146.0,0
793,8.0,-227.0,-145.0,0
794,9.0,-225.0,-149.0,0
795,7.0,-225.0,-150.0,0
796,8.0,-227.0,-147.0,0
797,16.0,-218.0,-143.0,0
798,4.0,-228.0,-152.0,0
799,4.0,-224.0,-152.0,0
800,6.0,-225.0,-153.0,0
801,6.0,-225.0,-154.0,0
802,9.0,-226.0,-150.0,0
803,3.0,-226.0,-152.0,0
804,5.0,-226.0,-152.0,0
805,4.0,-228.0,-152.0,0
806,9.0,-228.0,-154.0,0
807,5.0,-226.0,-157.0,0
808,8.0,-227.0,-154.0,0
809,8.0,-226.0,-157.0,0
810,8.0,-227.0,-160.0,0
811,6.0,-224.0,-157.0,0
812,8.0,-227.0,-160.0,0
813,5.0,-224.0,-163.0,0
814,8.0,-225.0,-162.0,0
815,8.0,-223.0,-164.0,0
816,7.0,-220.0,-167.0,0
817,7.0,-221.0,-168.0,0
818,5.0,-220.0,-169.0,0
819,9.0,-222.0,-168.0,0
820,10.0,-221.0,-170.0,0
821,7.0,-220.0,-172.0,0
822,6.0,-218.0,-174.0,0
823,5.0,-219.0,-170.0,0
824,7.0,-220.0,-175.0,0
825,5.0,-221.0,-173.0,0
826,3.0,-221.0,-176.0,0
827,4.0,-222.0,-176.0,0
828,4.0,-218.0,-175.0,0
829,3.0,-218.0,-184.0,0
830,4.0,-221.0,-180.0,0
831,2.0,-219.0,-180.0,0
832,2.0,-216.0,-182.0,0
833,2.0,-216.0,-185.0,0
834,5.0,-217.0,-185.0,0
835,3.0,-214.0,-191.0,0
836,3.0,-214.0,-191.0,0
837,3.0,-210.0,-189.0,0
838,8.0,-212.0,-193.0,0
839,5.0,-211.0,-193.0,0
840,6.0,-211.0,-192.0,0
841,4.0,-207.0,-193.0,0
842,5.0,-206.0,-197.0,0
843,3.0,-205.0,-194.0,0
844,4.0,-204.0,-198.0,0
845,2.0,-205.0,-197.0,0
846,2.0,-203.0,-199.0,0
847,1.0,-199.0,-202.0,0
848,0.0,-198.0,-200.0,0
849,0.0,-198.0,-200.0,0
850,0.0,-195.0,-201.0,0
851,1.0,-202.0,-198.0,0
852,1.0,-195.0,-206.0,0
853,0.0,-195.0,-204.0,0
854,0.0,-196.0,-204.0,0
855,0.0,-195.0,-206.0,0
856,1.0,-197.0,-205.0,0
857,0.0,-193.0,-207.0,0
858,1.0,-194.0,-205.0,0
859,1.0,-193.0,-209.0,0
860,-1.0,-187.0,-208.0,0
861,2.0,-188.0,-207.0,0
862,0.0,-188.0,-213.0,0
863,-11.0,-178.0,-215.0,0
864,0.0,-183.0,-221.0,0
865,0.0,-180.0,-222.0,0
866,0.0,-176.0,-228.0,0
867,-4.0,-177.0,-232.0,0
868,-1.0,-176.0,-233.0,0
869,-7.0,-177.0,-234.0,0
870,-8.0,-174.0,-237.0,0
871,-7.0,-176.0,-241.0,0
872,-6.0,-175.0,-243.0,0
873,-8.0,-174.0,-242.0,0
874,-9.0,-173.0,-239.0,0
875,-10.0,-173.0,-239.0,0
876,-7.0,-167.0,-234.0,0
877,-10.0,-161.0,-238.0,0
878,-4.0,-159.0,-232.0,0
879,-3.0,-159.0,-234.0,0
880,-6.0,-152.0,-236.0,0
881,-8.0,-150.0,-241.0,0
882,-8.0,-147.0,-243.0,0
883,-7.0,-160.0,-238.0,0
884,-7.0,-148.0,-249.0,0
885,-11.0,-142.0,-255.0,0
886,-11.0,-143.0,-256.0,0
887,-16.0,-140.0,-254.0,0
888,-18.0,-144.0,-248.0,0
889,-17.0,-148.0,-247.0,0
890,-15.0,-148.0,-245.0,0
891,-15.0,-147.0,-243.0,0
892,-13.0,-145.0,-242.0,0
893,-11.0,-140.0,-241.0,0
894,-5.0,-135.0,-239.0,0
895,-9.0,-128.0,-240.0,0
896,-2.0,-128.0,-236.0,0
897,-1.0,-122.0,-251.0,0
898,-3.0,-117.0,-250.0,0
899,0.0,-114.0,-257.0,0
900,-2.0,-107.0,-265.0,0
901,-3.0,-104.0,-272.0,0
902,-9.0,-104.0,-277.0,0
903,-10.0,-103.0,-284.0,0
904,-16.0,-103.0,-284.0,0
905,-17.0,-102.0,-287.0,0
906,-22.0,-104.0,-290.0,0
907,-19.0,-107.0,-284.0,0
908,-20.0,-105.0,-292.0,0
909,-24.0,-107.0,-281.0,0
910,-21.0,-104.0,-290.0,0
911,-20.0,-103.0,-280.0,0
912,-20.0,-99.0,-272.0,0
913,-16.0,-92.0,-266.0,0
914,-12.0,-86.0,-271.0,0
915,-8.0,-82.0,-263.0,0
916,-7.0,-76.0,-265.0,0
917,-10.0,-72.0,-263.0,0
918,-10.0,-70.0,-259.0,0
919,-10.0,-64.0,-261.0,0
920,-11.0,-63.0,-266.0,0
921,-14.0,-60.0,-272.0,0
922,-16.0,-60.0,-277.0,0
923,-24.0,-55.0,-278.0,0
924,-23.0,-57.0,-284.0,0
925,-28.0,-55.0,-288.0,0
926,-29.0,-56.0,-289.0,0
927,-31.0,-54.0,-294.0,0
928,-31.0,-52.0,-299.0,0
929,-33.0,-54.0,-291.0,0
930,-33.0,-61.0,-289.0,0
931,-35.0,-62.0,-288.0,0
932,-29.0,-63.0,-285.0,0
933,-30.0,-54.0,-280.0,0
934,-25.0,-52.0,-278.0,0
935,-19.0,-47.0,-279.0,0
936,-20.0,-44.0,-275.0,0
937,-17.0,-40.0,-278.0,0
938,-19.0,-34.0,-272.0,0
939,-17.0,-34.0,-272.0,0
940,-13.0,-29.0,-273.0,0
941,-14.0,-25.0,-272.0,0
942,-17.0,-17.0,-274.0,0
943,-18.0,-12.0,-275.0,0
944,-17.0,-13.0,-283.0,0
945,-20.0,-11.0,-282.0,0
946,-22.0,-12.0,-284.0,0
947,-25.0,-8.0,-287.0,0
948,-21.0,-9.0,-290.0,0
949,-27.0,-7.0,-292.0,0
950,-26.0,-5.0,-298.0,0
951,-30.0,-5.0,-296.0,0
952,-29.0,-3.0,-301.0,0
953,-34.0,3.0,-304.0,0
954,-32.0,3.0,-305.0,0
955,-33.0,2.0,-304.0,0
956,-37.0,5.0,-307.0,0
957,-32.0,2.0,-310.0,0
958,-30.0,7.0,-304.0,0
959,-31.0,8.0,-307.0,0
960,-26.0,17.0,-306.0,0
961,-32.0,18.0,-304.0,0
962,-31.0,26.0,-305.0,0
963,-32.0,30.0,-305.0,0
964,-29.0,34.0,-302.0,0
965,-33.0,32.0,-302.0,0
966,-31.0,30.0,-304.0,0
967,-36.0,33.0,-302.0,0
968,-34.0,37.0,-299.0,0
969,-36.0,38.0,-299.0,0
970,-31.0,41.0,-300.0,0
971,-35.0,43.0,-298.0,0
972,-33.0,47.0,-295.0,0
973,-33.0,49.0,-295.0,0
974,-34.0,48.0,-296.0,0
975,-33.0,46.0,-296.0,0
976,-34.0,51.0,-291.0,0
977,-35.0,52.0,-290.0,0
978,-29.0,54.0,-285.0,0
979,-24.0,59.0,-294.0,0
980,-31.0,59.0,-284.0,0
981,-32.0,60.0,-286.0,0
982,-30.0,64.0,-284.0,0
983,-31.0,66.0,-286.0,0
984,-32.0,68.0,-278.0,0
985,-32.0,75.0,-275.0,0
986,-33.0,75.0,-272.0,0
987,-32.0,76.0,-272.0,0
988,-30.0,75.0,-270.0,0
989,-22.0,82.0,-270.0,0
990,-26.0,74.0,-265.0,0
991,-26.0,75.0,-261.0,0
992,-30.0,73.0,-264.0,0
993,-28.0,70.0,-259.0,0
994,-31.0,74.0,-259.0,0
995,-29.0,71.0,-258.0,0
996,-30.0,68.0,-254.0,0
997,-23.0,62.0,-241.0,0
998,-29.0,61.0,-253.0,0
999,-31.0,70.0,-220.0,0
1000,-26.0,62.0,-245.0,0
1001,-44.0,49.0,-245.0,0
1002,-23.0,54.0,-221.0,0
1003,-1.0,68.0,-236.0,0
1004,-25.0,47.0,-221.0,0
1005,-12.0,61.0,-229.0,0
1006,-12.0,70.0,-221.0,0
1007,-6.0,80.0,-218.0,0
1008,-29.0,69.0,-195.0,0
1009,-6.0,74.0,-221.0,0
1010,-1.0,65.0,-208.0,0
1011,-8.0,71.0,-224.0,0
1012,-9.0,77.0,-216.0,0
1013,-10.0,59.0,-215.0,0
1014,-9.0,61.0,-198.0,0
1015,3.0,48.0,-216.0,0
1016,-2.0,31.0,-213.0,0
1017,5.0,31.0,-191.0,0
1018,2.0,7.0,-214.0,0
1019,8.0,2.0,-213.0,0
1020,9.0,-3.0,-219.0,0
1021,10.0,-10.0,-207.0,0
1022,41.0,-14.0,-222.0,0
1023,24.0,-28.0,-230.0,0
1024,28.0,-27.0,-234.0,0
1025,20.0,-18.0,-228.0,0
1026,25.0,-24.0,-226.0,0
1027,23.0,-18.0,-225.0,0
1028,24.0,-21.0,-212.0,0
1029,22.0,-17.0,-223.0,0
1030,24.0,-19.0,-224.0,0
1031,20.0,-12.0,-218.0,2
1032,15.0,-6.0,-214.0,2
1033,11.0,-4.0,-210.0,2
1034,7.0,-14.0,-207.0,2
1035,0.0,-16.0,-200.0,2
1036,-12.0,-21.0,-197.0,2
1037,-17.0,-21.0,-204.0,2
1038,-25.0,-33.0,-206.0,2
1039,-14.0,-45.0,-204.0,2
1040,-38.0,-58.0,-198.0,2
1041,-39.0,-67.0,-192.0,2
1042,-34.0,-85.0,-185.0,2
1043,-29.0,-103.0,-171.0,2
1044,-25.0,-117.0,-152.0,2
1045,-18.0,-126.0,-135.0,2
1046,-6.0,-129.0,-110.0,2
1047,6.0,-119.0,-90.0,2
1048,29.0,-120.0,-77.0,2
1049,39.0,-134.0,-103.0,2
1050,26.0,-113.0,-172.0,2
1051,8.0,-85.0,-221.0,2
1052,-12.0,-78.0,-214.0,2
1053,-24.0,-72.0,-148.0,2
1054,-24.0,-61.0,-74.0,2
1055,-7.0,-40.0,-30.0,2
1056,18.0,-19.0,-14.0,2
1057,39.0,-24.0,-1.0,2
1058,48.0,-32.0,2.0,2
1059,48.0,-16.0,-11.0,2
1060,50.0,17.0,-43.0,2
1061,54.0,52.0,-80.0,2
1062,39.0,90.0,-106.0,2
1063,23.0,126.0,-121.0,2
1064,6.0,152.0,-117.0,2
1065,-10.0,180.0,-113.0,2
1066,-12.0,191.0,-100.0,2
1067,-15.0,191.0,-95.0,2
1068,2.0,181.0,-103.0,2
1069,20.0,190.0,-135.0,2
1070,41.0,201.0,-187.0,2
1071,76.0,204.0,-263.0,2
1072,109.0,208.0,-367.0,2
1073,116.0,234.0,-461.0,2
1074,119.0,267.0,-553.0,2
1075,131.0,299.0,-591.0,2
1076,125.0,290.0,-546.0,2
1077,113.0,288.0,-515.0,2
1078,113.0,295.0,-503.0,2
1079,125.0,294.0,-515.0,2
1080,139.0,281.0,-548.0,2
1081,165.0,283.0,-591.0,2
1082,180.0,299.0,-647.0,2
1083,190.0,309.0,-708.0,2
1084,174.0,329.0,-742.0,2
1085,86.0,684.0,-784.0,2
1086,144.0,702.0,-774.0,2
1087,129.0,677.0,-865.0,2
1088,-2.0,604.0,-912.0,2
1089,134.0,733.0,-1135.0,2
1090,106.0,788.0,-1175.0,2
1091,-87.0,671.0,-362.0,2
1092,-91.0,577.0,-469.0,2
1093,104.0,254.0,-411.0,2
1094,13.0,72.0,-413.0,2
1095,12.0,123.0,-517.0,2
1096,3.0,147.0,-493.0,2
1097,25.0,158.0,-478.0,2
1098,63.0,147.0,-467.0,2
1099,54.0,104.0,-585.0,2
1100,114.0,79.0,-533.0,2
1101,68.0,67.0,-508.0,2
1102,92.0,136.0,-544.0,2
1103,85.0,127.0,-485.0,2
1104,132.0,165.0,-469.0,2
1105,125.0,170.0,-460.0,2
1106,124.0,195.0,-447.0,1
1107,100.0,126.0,-408.0,1
1108,77.0,141.0,-391.0,1
1109,49.0,149.0,-374.0,1
1110,99.0,125.0,-378.0,1
1111,30.0,120.0,-347.0,1
1112,33.0,58.0,-292.0,1
1113,50.0,66.0,-263.0,1
1114,24.0,93.0,-305.0,1
1115,45.0,62.0,-284.0,1
1116,19.0,106.0,-323.0,1
1117,63.0,52.0,-290.0,1
1118,48.0,80.0,-306.0,1
1119,88.0,29.0,-238.0,1
1120,41.0,80.0,-203.0,1
1121,36.0,138.0,-239.0,1
1122,63.0,128.0,-251.0,1
1123,117.0,163.0,-292.0,1
1124,74.0,127.0,-267.0,1
1125,71.0,139.0,-243.0,1
1126,58.0,96.0,-220.0,1
1127,68.0,99.0,-206.0,1
1128,70.0,113.0,-200.0,1
1129,53.0,107.0,-191.0,1
1130,59.0,103.0,-194.0,1
1131,65.0,103.0,-202.0,1
1132,64.0,101.0,-197.0,1
1133,62.0,90.0,-208.0,1
1134,61.0,67.0,-202.0,1
1135,50.0,68.0,-224.0,1
1136,37.0,61.0,-230.0,1
1137,37.0,68.0,-240.0,1
1138,36.0,63.0,-248.0,1
1139,30.0,65.0,-265.0,1
1140,29.0,51.0,-256.0,1
1141,26.0,49.0,-264.0,1
1142,25.0,45.0,-258.0,1
1143,30.0,43.0,-247.0,1
1144,17.0,40.0,-263.0,1
1145,21.0,35.0,-266.0,1
1146,19.0,47.0,-280.0,1
1147,0.0,59.0,-260.0,1
1148,-7.0,72.0,-274.0,1
1149,15.0,84.0,-294.0,1
1150,28.0,81.0,-288.0,1
1151,16.0,105.0,-309.0,1
1152,29.0,134.0,-314.0,1
1153,32.0,90.0,-295.0,1
1154,24.0,85.0,-292.0,1
1155,17.0,85.0,-297.0,1
1156,15.0,88.0,-301.0,1
1157,6.0,87.0,-307.0,1
1158,1.0,95.0,-312.0,1
1159,10.0,87.0,-313.0,1
1160,2.0,92.0,-312.0,1
1161,-4.0,95.0,-317.0,1
1162,0.0,90.0,-315.0,1
1163,-6.0,90.0,-316.0,1
1164,-13.0,88.0,-315.0,1
1165,-11.0,86.0,-318.0,1
1166,-7.0,86.0,-317.0,1
1167,-11.0,83.0,-318.0,1
1168,-5.0,75.0,-315.0,1
1169,-5.0,83.0,-313.0,1
1170,-8.0,74.0,-311.0,1
1171,-2.0,74.0,-311.0,1
1172,0.0,71.0,-305.0,1
1173,4.0,71.0,-307.0,1
1174,4.0,70.0,-302.0,1
1175,5.0,72.0,-298.0,1
1176,4.0,66.0,-294.0,1
1177,8.0,66.0,-292.0,1
1178,2.0,70.0,-290.0,1
1179,5.0,65.0,-286.0,1
1180,9.0,69.0,-288.0,0
1181,2.0,65.0,-286.0,0
1182,8.0,67.0,-283.0,0
1183,4.0,68.0,-282.0,0
1184,4.0,72.0,-277.0,0
1185,8.0,69.0,-279.0,0
1186,9.0,61.0,-282.0,0
1187,8.0,71.0,-280.0,0
1188,10.0,66.0,-278.0,0
1189,14.0,65.0,-277.0,0
1190,7.0,69.0,-283.0,0
1191,8.0,63.0,-280.0,0
1192,9.0,68.0,-275.0,0
1193,12.0,65.0,-275.0,0
1194,12.0,61.0,-272.0,0
1195,13.0,60.0,-275.0,0
1196,15.0,67.0,-277.0,0
1197,15.0,65.0,-278.0,0
1198,15.0,64.0,-280.0,0
1199,16.0,64.0,-273.0,0
1200,14.0,65.0,-281.0,0
1201,15.0,67.0,-279.0,0
1202,18.0,64.0,-281.0,0
1203,11.0,67.0,-283.0,0
1204,13.0,67.0,-284.0,0
1205,12.0,65.0,-285.0,0
1206,12.0,64.0,-280.0,0
1207,16.0,64.0,-282.0,0
1208,12.0,69.0,-281.0,0
1209,13.0,66.0,-285.0,0
1210,13.0,66.0,-285.0,0
1211,9.0,68.0,-285.0,0
1212,16.0,65.0,-291.0,0
1213,14.0,70.0,-285.0,0
1214,12.0,68.0,-285.0,0
1215,13.0,70.0,-290.0,0
1216,13.0,70.0,-292.0,0
1217,11.0,73.0,-286.0,0
1218,6.0,73.0,-290.0,0
1219,8.0,76.0,-292.0,0
1220,8.0,73.0,-293.0,0
1221,10.0,71.0,-289.0,0
1222,8.0,75.0,-289.0,0
1223,11.0,74.0,-292.0,0
1224,10.0,76.0,-289.0,0
1225,13.0,73.0,-291.0,0
1226,8.0,77.0,-290.0,0
1227,10.0,74.0,-286.0,0
1228,8.0,78.0,-288.0,0
1229,11.0,74.0,-285.0,0
1230,9.0,74.0,-285.0,0
1231,10.0,72.0,-283.0,0
1232,8.0,75.0,-286.0,0
1233,9.0,78.0,-283.0,0
1234,9.0,70.0,-279.0,0
1235,11.0,72.0,-281.0,0
1236,9.0,74.0,-280.0,0
1237,9.0,74.0,-278.0,0
1238,6.0,75.0,-283.0,0
1239,10.0,77.0,-283.0,0
1240,9.0,74.0,-281.0,0
1241,10.0,74.0,-279.0,0
1242,10.0,74.0,-285.0,0
1243,8.0,74.0,-280.0,0
1244,12.0,71.0,-275.0,0
1245,10.0,72.0,-280.0,0
1246,15.0,74.0,-277.0,0
1247,11.0,72.0,-280.0,0
1248,10.0,73.0,-281.0,0
1249,12.0,73.0,-276.0,0
1250,10.0,70.0,-276.0,0
1251,10.0,73.0,-278.0,0
1252,15.0,71.0,-275.0,0
1253,11.0,69.0,-275.0,0
1254,7.0,72.0,-277.0,0
1255,8.0,70.0,-282.0,0
1256,10.0,70.0,-283.0,0
1257,10.0,70.0,-283.0,0
1258,9.0,69.0,-284.0,0
1259,7.0,75.0,-281.0,0
1260,7.0,74.0,-281.0,0
1261,10.0,71.0,-285.0,0
1262,10.0,73.0,-285.0,0
1263,7.0,73.0,-286.0,0
1264,11.0,74.0,-278.0,0
1265,12.0,67.0,-285.0,0
1266,7.0,72.0,-283.0,0
1267,11.0,72.0,-287.0,0
1268,11.0,73.0,-283.0,0
1269,12.0,74.0,-287.0,0
1270,9.0,72.0,-286.0,0
1271,22.0,84.0,-294.0,0
1272,11.0,69.0,-286.0,0
1273,10.0,76.0,-289.0,0
1274,10.0,71.0,-285.0,0
1275,10.0,75.0,-285.0,0
1276,9.0,72.0,-287.0,0
1277,10.0,74.0,-284.0,0
1278,9.0,74.0,-285.0,0
1279,10.0,75.0,-287.0,0
1280,11.0,73.0,-279.0,0
1281,7.0,72.0,-288.0,0
1282,-2.0,71.0,-278.0,0
1283,7.0,71.0,-282.0,0
1284,11.0,73.0,-289.0,0
1285,8.0,73.0,-285.0,0
1286,13.0,70.0,-283.0,0
1287,13.0,72.0,-284.0,0
1288,9.0,74.0,-280.0,0
1289,11.0,75.0,-282.0,0
1290,10.0,72.0,-281.0,0
1291,10.0,76.0,-282.0,0
1292,11.0,75.0,-284.0,0
1293,12.0,75.0,-279.0,0
1294,14.0,70.0,-283.0,0
1295,11.0,75.0,-278.0,0
1296,11.0,75.0,-279.0,0
1297,12.0,76.0,-284.0,0
1298,12.0,75.0,-282.0,0
1299,12.0,75.0,-284.0,0
1300,10.0,73.0,-278.0,0
1301,10.0,74.0,-281.0,0
1302,13.0,73.0,-282.0,0
1303,11.0,72.0,-282.0,0
1304,3.0,84.0,-279.0,0
1305,9.0,75.0,-281.0,0
1306,13.0,74.0,-279.0,0
1307,12.0,76.0,-284.0,0
1308,12.0,76.0,-282.0,0
1309,12.0,77.0,-285.0,0
1310,12.0,75.0,-280.0,0
1311,13.0,73.0,-282.0,0
1312,14.0,74.0,-282.0,0
1313,12.0,76.0,-281.0,0
1314,11.0,75.0,-280.0,0
1315,12.0,74.0,-287.0,0
1316,13.0,75.0,-281.0,0
1317,12.0,75.0,-285.0,0
1318,16.0,73.0,-285.0,0
1319,10.0,74.0,-283.0,0
1320,12.0,75.0,-284.0,0
1321,10.0,75.0,-287.0,0
1322,13.0,72.0,-284.0,0
1323,13.0,74.0,-283.0,0
1324,15.0,73.0,-285.0,0
1325,13.0,72.0,-285.0,0
1326,11.0,76.0,-280.0,0
1327,12.0,75.0,-282.0,0
1328,12.0,75.0,-281.0,0
1329,13.0,73.0,-280.0,0
1330,14.0,73.0,-284.0,0
1331,13.0,76.0,-284.0,0
1332,11.0,75.0,-279.0,0
1333,12.0,75.0,-282.0,0
1334,14.0,73.0,-283.0,0
1335,12.0,75.0,-281.0,0
1336,12.0,75.0,-280.0,0
1337,14.0,74.0,-281.0,0
1338,14.0,71.0,-280.0,0
1339,9.0,74.0,-285.0,0
1340,14.0,73.0,-282.0,0
1341,11.0,73.0,-283.0,0
1342,11.0,76.0,-280.0,0
1343,12.0,75.0,-282.0,0
1344,13.0,74.0,-283.0,0
1345,12.0,75.0,-285.0,0
1346,13.0,74.0,-282.0,0
1347,11.0,73.0,-281.0,0
1348,11.0,73.0,-285.0,0
1349,12.0,74.0,-283.0,0
1350,11.0,73.0,-281.0,0
1351,10.0,75.0,-286.0,0
1352,11.0,73.0,-281.0,0
1353,13.0,72.0,-281.0,0
1354,13.0,74.0,-284.0,0
1355,10.0,74.0,-285.0,0
1356,11.0,74.0,-282.0,0
1357,14.0,75.0,-282.0,0
1358,12.0,76.0,-284.0,0
1359,12.0,75.0,-285.0,0
1360,12.0,76.0,-280.0,0
1361,10.0,73.0,-282.0,0
1362,14.0,74.0,-283.0,0
1363,14.0,76.0,-280.0,0
1364,11.0,76.0,-279.0,0
1365,12.0,73.0,-278.0,0
1366,11.0,74.0,-285.0,0
1367,12.0,74.0,-284.0,0
1368,11.0,75.0,-286.0,0
1369,19.0,65.0,-270.0,0
1370,14.0,75.0,-285.0,0
1371,10.0,75.0,-282.0,0
1372,16.0,75.0,-283.0,0
1373,13.0,77.0,-282.0,0
1374,11.0,76.0,-281.0,0
1375,14.0,74.0,-281.0,0
1376,11.0,75.0,-279.0,0
1377,17.0,74.0,-281.0,0
1378,10.0,76.0,-281.0,0
1379,12.0,75.0,-283.0,0
1380,13.0,84.0,-287.0,0
1381,13.0,75.0,-279.0,0
1382,13.0,75.0,-283.0,0
1383,11.0,75.0,-281.0,0
1384,13.0,74.0,-283.0,0
1385,13.0,72.0,-276.0,0
1386,11.0,74.0,-284.0,0
1387,13.0,72.0,-282.0,0
1388,11.0,74.0,-285.0,0
1389,15.0,77.0,-280.0,0
1390,15.0,73.0,-282.0,0
1391,14.0,76.0,-284.0,0
1392,13.0,76.0,-281.0,0
1393,16.0,84.0,-285.0,0
1394,7.0,69.0,-284.0,0
1395,11.0,77.0,-283.0,0
1396,12.0,75.0,-285.0,0
1397,9.0,76.0,-282.0,0
1398,14.0,76.0,-283.0,0
1399,13.0,74.0,-281.0,0
1400,13.0,78.0,-283.0,0
1401,11.0,75.0,-282.0,0
1402,13.0,77.0,-281.0,0
1403,11.0,76.0,-283.0,0
1404,10.0,78.0,-281.0,0
1405,14.0,76.0,-281.0,0
1406,11.0,77.0,-284.0,0
1407,14.0,73.0,-281.0,0
1408,15.0,72.0,-280.0,0
1409,14.0,74.0,-283.0,0
1410,13.0,74.0,-285.0,0
1411,13.0,73.0,-284.0,0
1412,14.0,76.0,-280.0,0
1413,12.0,76.0,-279.0,0
1414,12.0,76.0,-282.0,0
1415,14.0,76.0,-282.0,0
1416,17.0,77.0,-285.0,0
1417,9.0,78.0,-282.0,0
1418,13.0,75.0,-285.0,0
1419,14.0,73.0,-281.0,0
1420,14.0,77.0,-282.0,0
1421,13.0,76.0,-278.0,0
1422,16.0,75.0,-279.0,0
1423,15.0,75.0,-278.0,0
1424,10.0,76.0,-284.0,0
1425,11.0,74.0,-281.0,0
1426,16.0,74.0,-281.0,0
1427,12.0,76.0,-283.0,0
1428,14.0,72.0,-283.0,0
1429,13.0,76.0,-287.0,0
1430,11.0,78.0,-284.0,0
1431,14.0,76.0,-286.0,0
1432,10.0,74.0,-278.0,0
1433,12.0,72.0,-287.0,0
1434,13.0,75.0,-283.0,0
1435,15.0,74.0,-274.0,0
1436,14.0,79.0,-278.0,0
1437,14.0,72.0,-282.0,0
1438,15.0,75.0,-285.0,0
1439,14.0,77.0,-286.0,0
1440,12.0,76.0,-282.0,0
1441,12.0,75.0,-278.0,0
1442,12.0,75.0,-279.0,0
1443,13.0,75.0,-277.0,0
1444,16.0,71.0,-282.0,0
1445,11.0,75.0,-276.0,0
1446,12.0,77.0,-282.0,0
1447,14.0,75.0,-282.0,0
1448,16.0,75.0,-283.0,0
1449,14.0,72.0,-284.0,0
1450,17.0,74.0,-285.0,0
1451,12.0,74.0,-277.0,0
1452,9.0,77.0,-283.0,0
1453,14.0,76.0,-281.0,0
1454,12.0,76.0,-283.0,0
1455,12.0,78.0,-282.0,0
1456,13.0,76.0,-280.0,0
1457,11.0,77.0,-284.0,0
1458,13.0,77.0,-280.0,0
1459,14.0,76.0,-280.0,0
1460,11.0,75.0,-279.0,0
1461,11.0,77.0,-284.0,0
1462,14.0,73.0,-280.0,0
1463,13.0,75.0,-283.0,0
1464,10.0,77.0,-280.0,0
1465,11.0,77.0,-285.0,0
1466,13.0,77.0,-280.0,0
1467,9.0,84.0,-288.0,0
1468,15.0,75.0,-282.0,0
1469,13.0,77.0,-281.0,0
1470,13.0,76.0,-281.0,0
1471,12.0,76.0,-281.0,0
1472,16.0,71.0,-282.0,0
1473,14.0,78.0,-281.0,0
1474,13.0,74.0,-284.0,0
1475,14.0,77.0,-288.0,0
1476,14.0,75.0,-281.0,0
1477,15.0,76.0,-283.0,0
1478,12.0,79.0,-275.0,0
1479,11.0,80.0,-281.0,0
1480,13.0,75.0,-283.0,0
1481,12.0,74.0,-283.0,0
1482,9.0,78.0,-279.0,0
1483,16.0,78.0,-285.0,0
1484,14.0,75.0,-281.0,0
1485,14.0,75.0,-282.0,0
1486,14.0,77.0,-284.0,0
1487,14.0,76.0,-281.0,0
1488,13.0,76.0,-279.0,0
1489,14.0,79.0,-286.0,0
1490,14.0,74.0,-279.0,0
1491,13.0,75.0,-283.0,0
1492,10.0,79.0,-283.0,0
1493,16.0,72.0,-283.0,0
1494,12.0,79.0,-280.0,0
1495,11.0,76.0,-282.0,0
1496,15.0,77.0,-290.0,0
1497,13.0,79.0,-283.0,0
1498,14.0,76.0,-280.0,0
1499,10.0,77.0,-286.0,0
1500,17.0,74.0,-286.0,0
1501,13.0,79.0,-280.0,0
1502,14.0,76.0,-277.0,0
1503,13.0,77.0,-280.0,0
1504,15.0,75.0,-281.0,0
1505,14.0,77.0,-279.0,0
1506,10.0,77.0,-284.0,0
1507,11.0,81.0,-281.0,0
1508,14.0,77.0,-283.0,0
1509,15.0,78.0,-282.0,0
1510,14.0,77.0,-283.0,0
1511,13.0,73.0,-282.0,0
1512,13.0,76.0,-282.0,0
1513,14.0,78.0,-284.0,0
1514,13.0,80.0,-282.0,0
1515,16.0,76.0,-281.0,0
1516,12.0,77.0,-283.0,0
1517,11.0,82.0,-282.0,0
1518,16.0,76.0,-278.0,0
1519,12.0,81.0,-282.0,0
1520,14.0,76.0,-280.0,0
1521,12.0,78.0,-278.0,0
1522,14.0,79.0,-283.0,0
1523,14.0,73.0,-278.0,0
1524,15.0,77.0,-283.0,0
1525,14.0,77.0,-282.0,0
1526,15.0,77.0,-283.0,0
1527,11.0,75.0,-280.0,0
1528,14.0,79.0,-284.0,0
1529,14.0,76.0,-283.0,0
1530,14.0,78.0,-280.0,0
1531,15.0,77.0,-279.0,0
1532,14.0,78.0,-282.0,0
1533,15.0,82.0,-286.0,0
1534,13.0,77.0,-282.0,0
1535,16.0,77.0,-283.0,0
1536,11.0,77.0,-280.0,0
1537,17.0,76.0,-281.0,0
1538,14.0,78.0,-282.0,0
1539,15.0,77.0,-280.0,0
1540,15.0,76.0,-286.0,0
1541,15.0,77.0,-280.0,0
1542,15.0,78.0,-280.0,0
1543,13.0,75.0,-280.0,0
1544,16.0,79.0,-280.0,0
1545,12.0,77.0,-284.0,0
1546,15.0,77.0,-279.0,0
1547,11.0,75.0,-283.0,0
1548,13.0,78.0,-282.0,0
1549,14.0,75.0,-280.0,0
1550,19.0,77.0,-287.0,0
1551,13.0,78.0,-286.0,0
1552,15.0,80.0,-282.0,0
1553,13.0,77.0,-282.0,0
1554,11.0,78.0,-280.0,0
1555,15.0,75.0,-281.0,0
1556,16.0,80.0,-281.0,0
1557,16.0,78.0,-284.0,0
1558,16.0,75.0,-284.0,0
1559,14.0,76.0,-280.0,0
1560,17.0,76.0,-284.0,0
1561,11.0,79.0,-284.0,0
1562,16.0,75.0,-281.0,0
1563,16.0,77.0,-283.0,0
1564,14.0,76.0,-277.0,0
1565,19.0,68.0,-275.0,0
1566,15.0,77.0,-285.0,0
1567,15.0,76.0,-284.0,0
1568,10.0,79.0,-281.0,0
1569,15.0,79.0,-281.0,0
1570,16.0,77.0,-276.0,0
1571,14.0,77.0,-283.0,0
1572,15.0,74.0,-287.0,0
1573,16.0,80.0,-282.0,0
1574,14.0,78.0,-283.0,0
1575,17.0,79.0,-282.0,0
1576,14.0,79.0,-282.0,0
1577,16.0,77.0,-280.0,0
1578,13.0,77.0,-280.0,0
1579,15.0,80.0,-283.0,0
1580,15.0,78.0,-279.0,0
1581,15.0,77.0,-280.0,0
1582,14.0,76.0,-282.0,0
1583,14.0,76.0,-282.0,0
1584,12.0,79.0,-280.0,0
1585,15.0,80.0,-279.0,0
1586,12.0,78.0,-282.0,0
1587,14.0,77.0,-282.0,0
1588,16.0,80.0,-279.0,0
1589,12.0,78.0,-285.0,0
1590,17.0,75.0,-283.0,0
1591,17.0,76.0,-280.0,0
1592,14.0,77.0,-284.0,0
1593,16.0,78.0,-280.0,0
1594,16.0,75.0,-281.0,0
1595,14.0,77.0,-282.0,0
1596,15.0,77.0,-281.0,0
1597,13.0,75.0,-279.0,0
1598,16.0,73.0,-283.0,0
1599,11.0,79.0,-279.0,0
1600,15.0,76.0,-281.0,0
1601,13.0,79.0,-281.0,0
1602,15.0,79.0,-279.0,0
1603,16.0,76.0,-286.0,0
1604,14.0,80.0,-284.0,0
1605,12.0,78.0,-283.0,0
1606,15.0,75.0,-283.0,0
1607,15.0,77.0,-282.0,0
1608,16.0,77.0,-282.0,0
1609,14.0,76.0,-283.0,0
1610,15.0,76.0,-283.0,0
1611,18.0,76.0,-278.0,0
1612,15.0,74.0,-283.0,0
1613,15.0,77.0,-280.0,0
1614,15.0,71.0,-278.0,0
1615,15.0,77.0,-280.0,0
1616,16.0,76.0,-284.0,0
1617,14.0,79.0,-282.0,0
1618,13.0,78.0,-282.0,0
1619,15.0,76.0,-282.0,0
1620,13.0,76.0,-283.0,0
1621,15.0,79.0,-281.0,0
1622,15.0,75.0,-282.0,0
1623,12.0,79.0,-287.0,0
1624,13.0,80.0,-281.0,0
1625,11.0,80.0,-286.0,0
1626,13.0,78.0,-285.0,0
1627,13.0,79.0,-282.0,0
1628,14.0,76.0,-284.0,0
1629,16.0,75.0,-281.0,0
1630,17.0,76.0,-283.0,0
1631,15.0,77.0,-281.0,0
1632,15.0,79.0,-282.0,0
1633,13.0,76.0,-286.0,0
1634,16.0,77.0,-282.0,0
1635,14.0,77.0,-284.0,0
1636,14.0,76.0,-281.0,0
1637,18.0,76.0,-283.0,0
1638,16.0,78.0,-283.0,0
1639,12.0,75.0,-280.0,0
1640,13.0,77.0,-281.0,0
1641,14.0,80.0,-281.0,0
1642,14.0,78.0,-281.0,0
1643,13.0,78.0,-287.0,0
1644,15.0,76.0,-288.0,0
1645,14.0,79.0,-278.0,0
1646,13.0,78.0,-283.0,0
1647,12.0,78.0,-283.0,0
1648,16.0,75.0,-279.0,0
1649,16.0,76.0,-283.0,0
1650,14.0,75.0,-280.0,0
1651,16.0,79.0,-282.0,0
1652,15.0,77.0,-283.0,0
1653,17.0,74.0,-280.0,0
1654,13.0,77.0,-282.0,0
1655,15.0,78.0,-280.0,0
1656,17.0,77.0,-282.0,0
1657,15.0,75.0,-285.0,0
1658,17.0,75.0,-278.0,0
1659,13.0,78.0,-283.0,0
1660,15.0,80.0,-283.0,0
1661,14.0,78.0,-280.0,0
1662,15.0,78.0,-282.0,0
1663,26.0,73.0,-276.0,0
1664,13.0,76.0,-286.0,0
1665,13.0,75.0,-282.0,0
1666,16.0,78.0,-284.0,0
1667,16.0,78.0,-283.0,0
1668,12.0,78.0,-281.0,0
1669,16.0,76.0,-282.0,0
1670,16.0,76.0,-278.0,0
1671,13.0,77.0,-282.0,0
1672,15.0,76.0,-282.0,0
1673,15.0,78.0,-282.0,0
1674,14.0,78.0,-280.0,0
1675,14.0,76.0,-283.0,0
1676,15.0,75.0,-281.0,0
1677,16.0,77.0,-283.0,0
1678,18.0,77.0,-283.0,0
1679,13.0,79.0,-284.0,0
1680,16.0,75.0,-283.0,0
1681,16.0,77.0,-280.0,0
1682,13.0,79.0,-282.0,0
1683,15.0,77.0,-281.0,0
1684,15.0,76.0,-279.0,0
1685,13.0,76.0,-285.0,0
1686,16.0,76.0,-281.0,0
1687,14.0,81.0,-280.0,0
1688,11.0,78.0,-282.0,0
1689,14.0,77.0,-283.0,0
1690,13.0,77.0,-282.0,0
1691,16.0,77.0,-282.0,0
1692,14.0,77.0,-284.0,0
1693,13.0,79.0,-283.0,0
1694,14.0,79.0,-281.0,0
1695,14.0,78.0,-285.0,0
1696,15.0,76.0,-282.0,0
1697,16.0,81.0,-284.0,0
1698,13.0,79.0,-280.0,0
1699,15.0,78.0,-283.0,0
1700,15.0,81.0,-280.0,0
1701,15.0,72.0,-282.0,0
1702,13.0,80.0,-283.0,0
1703,11.0,79.0,-286.0,0
1704,15.0,77.0,-284.0,0
1705,13.0,76.0,-285.0,0
1706,16.0,76.0,-285.0,0
1707,15.0,77.0,-282.0,0
1708,14.0,77.0,-281.0,0
1709,15.0,76.0,-280.0,0
1710,15.0,76.0,-283.0,0
1711,15.0,77.0,-283.0,0
1712,13.0,78.0,-281.0,0
1713,11.0,79.0,-278.0,0
1714,12.0,77.0,-280.0,0
1715,12.0,77.0,-279.0,0
1716,12.0,78.0,-280.0,0
1717,14.0,77.0,-281.0,0
1718,15.0,79.0,-284.0,0
1719,13.0,79.0,-278.0,0
1720,15.0,77.0,-282.0,0
1721,14.0,77.0,-281.0,0
1722,11.0,79.0,-281.0,0
1723,17.0,76.0,-281.0,0
1724,15.0,80.0,-284.0,0
1725,17.0,77.0,-282.0,0
1726,16.0,78.0,-280.0,0
1727,14.0,78.0,-281.0,0
1728,14.0,78.0,-283.0,0
1729,16.0,75.0,-285.0,0
1730,17.0,78.0,-279.0,0
1731,13.0,75.0,-281.0,0
1732,9.0,79.0,-286.0,0
1733,15.0,76.0,-280.0,0
1734,14.0,77.0,-278.0,0
1735,11.0,82.0,-279.0,0
1736,15.0,74.0,-281.0,0
1737,14.0,77.0,-283.0,0
1738,15.0,76.0,-286.0,0
1739,14.0,77.0,-286.0,0
1740,14.0,78.0,-282.0,0
1741,13.0,76.0,-283.0,0
1742,13.0,76.0,-285.0,0
1743,17.0,75.0,-285.0,0
1744,12.0,79.0,-276.0,0
1745,14.0,79.0,-278.0,0
1746,15.0,78.0,-279.0,0
1747,15.0,75.0,-281.0,0
1748,14.0,77.0,-285.0,0
1749,13.0,79.0,-279.0,0
1750,16.0,77.0,-285.0,0
1751,14.0,79.0,-279.0,0
1752,12.0,77.0,-285.0,0
1753,15.0,80.0,-286.0,0
1754,13.0,76.0,-282.0,0
1755,12.0,80.0,-282.0,0
1756,12.0,78.0,-280.0,0
1757,14.0,79.0,-284.0,0
1758,15.0,81.0,-286.0,0
1759,16.0,77.0,-280.0,0
1760,13.0,77.0,-278.0,0
1761,9.0,73.0,-271.0,0
1762,14.0,73.0,-278.0,0
1763,15.0,76.0,-280.0,0
1764,16.0,78.0,-281.0,0
1765,17.0,76.0,-283.0,0
1766,14.0,77.0,-284.0,0
1767,13.0,77.0,-280.0,0
1768,14.0,78.0,-286.0,0
1769,17.0,76.0,-287.0,0
1770,16.0,75.0,-281.0,0
1771,14.0,80.0,-278.0,0
1772,14.0,83.0,-280.0,0
1773,13.0,78.0,-282.0,0
1774,15.0,76.0,-279.0,0
1775,13.0,81.0,-279.0,0
1776,13.0,80.0,-284.0,0
1777,15.0,80.0,-283.0,0
1778,16.0,80.0,-285.0,0
1779,14.0,78.0,-282.0,0
1780,15.0,78.0,-279.0,0
1781,16.0,79.0,-284.0,0
1782,15.0,76.0,-283.0,0
1783,11.0,78.0,-279.0,0
1784,14.0,80.0,-281.0,0
1785,12.0,77.0,-278.0,0
1786,14.0,78.0,-284.0,0
1787,14.0,77.0,-282.0,0
1788,13.0,78.0,-279.0,0
1789,16.0,73.0,-283.0,0
1790,14.0,79.0,-286.0,0
1791,14.0,78.0,-281.0,0
1792,13.0,77.0,-283.0,0
1793,15.0,77.0,-282.0,0
1794,14.0,78.0,-281.0,0
1795,15.0,76.0,-282.0,0
1796,14.0,78.0,-281.0,0
1797,10.0,79.0,-281.0,0
1798,11.0,78.0,-278.0,0
1799,16.0,76.0,-280.0,0
1800,14.0,78.0,-281.0,0
1801,11.0,70.0,-292.0,0
1802,14.0,81.0,-275.0,0
1803,14.0,78.0,-277.0,0
1804,16.0,81.0,-281.0,0
1805,15.0,76.0,-279.0,0
1806,16.0,76.0,-287.0,0
1807,14.0,85.0,-281.0,0
1808,16.0,78.0,-286.0,0
1809,14.0,78.0,-282.0,0
1810,16.0,77.0,-276.0,0
1811,21.0,76.0,-286.0,0
1812,14.0,79.0,-277.0,0
1813,14.0,77.0,-283.0,0
1814,14.0,78.0,-282.0,0
1815,15.0,77.0,-284.0,0
1816,16.0,77.0,-284.0,0
1817,15.0,79.0,-282.0,0
1818,16.0,76.0,-285.0,0
1819,14.0,79.0,-283.0,0
1820,11.0,79.0,-283.0,0
1821,10.0,76.0,-286.0,0
1822,12.0,78.0,-282.0,0
1823,15.0,77.0,-281.0,0
1824,14.0,78.0,-284.0,0
1825,14.0,76.0,-281.0,0
1826,16.0,76.0,-280.0,0
1827,13.0,79.0,-282.0,0
1828,13.0,79.0,-283.0,0
1829,17.0,79.0,-285.0,0
1830,16.0,76.0,-281.0,0
1831,14.0,78.0,-281.0,0
1832,16.0,76.0,-282.0,0
1833,15.0,76.0,-280.0,0
1834,15.0,78.0,-283.0,0
1835,14.0,77.0,-282.0,0
1836,13.0,75.0,-283.0,0
1837,15.0,78.0,-283.0,0
1838,14.0,77.0,-280.0,0
1839,14.0,79.0,-282.0,0
1840,23.0,74.0,-290.0,0
1841,14.0,78.0,-285.0,0
1842,17.0,76.0,-279.0,0
1843,17.0,74.0,-278.0,0
1844,17.0,76.0,-280.0,0
1845,15.0,78.0,-280.0,0
1846,13.0,76.0,-280.0,0
1847,14.0,77.0,-283.0,0
1848,12.0,78.0,-277.0,0
1849,16.0,77.0,-280.0,0
1850,16.0,77.0,-278.0,0
1851,11.0,75.0,-280.0,0
1852,14.0,79.0,-283.0,0
1853,15.0,82.0,-284.0,0
1854,13.0,75.0,-286.0,0
1855,12.0,78.0,-282.0,0
1856,14.0,79.0,-282.0,0
1857,14.0,75.0,-285.0,0
1858,14.0,77.0,-284.0,0
1859,11.0,77.0,-283.0,0
1860,13.0,79.0,-284.0,0
1861,22.0,77.0,-284.0,0
1862,16.0,75.0,-283.0,0
1863,17.0,78.0,-282.0,0
1864,16.0,78.0,-280.0,0
1865,13.0,80.0,-280.0,0
1866,16.0,75.0,-279.0,0
1867,13.0,79.0,-285.0,0
1868,14.0,78.0,-283.0,0
1869,15.0,78.0,-281.0,0
1870,14.0,83.0,-290.0,0
1871,15.0,75.0,-284.0,0
1872,14.0,76.0,-278.0,0
1873,15.0,79.0,-282.0,0
1874,14.0,76.0,-279.0,0
1875,14.0,78.0,-282.0,0
1876,15.0,75.0,-282.0,0
1877,16.0,79.0,-280.0,0
1878,15.0,78.0,-279.0,0
1879,13.0,77.0,-283.0,0
1880,13.0,77.0,-282.0,0
1881,14.0,79.0,-279.0,0
1882,18.0,80.0,-285.0,0
1883,19.0,77.0,-283.0,0
1884,16.0,79.0,-283.0,0
1885,15.0,75.0,-280.0,0
1886,13.0,80.0,-281.0,0
1887,16.0,78.0,-284.0,0
1888,13.0,80.0,-283.0,0
1889,18.0,77.0,-283.0,0
1890,16.0,76.0,-280.0,0
1891,15.0,78.0,-284.0,0
1892,12.0,77.0,-284.0,0
1893,13.0,80.0,-280.0,0
1894,14.0,77.0,-282.0,0
1895,14.0,79.0,-282.0,0
1896,14.0,77.0,-276.0,0
1897,16.0,78.0,-285.0,0
1898,18.0,77.0,-282.0,0
1899,13.0,75.0,-281.0,0
1900,15.0,78.0,-281.0,0
1901,14.0,76.0,-283.0,0
1902,15.0,83.0,-281.0,0
1903,13.0,75.0,-280.0,0
1904,16.0,78.0,-279.0,0
1905,7.0,84.0,-280.0,0
1906,16.0,79.0,-281.0,0
1907,14.0,80.0,-283.0,0
1908,15.0,79.0,-284.0,0
1909,15.0,78.0,-281.0,0
1910,17.0,76.0,-279.0,0
1911,18.0,75.0,-280.0,0
1912,15.0,78.0,-282.0,0
1913,17.0,76.0,-284.0,0
1914,15.0,79.0,-283.0,0
1915,18.0,74.0,-286.0,0
1916,16.0,79.0,-281.0,0
1917,14.0,77.0,-284.0,0
1918,12.0,79.0,-288.0,0
1919,13.0,78.0,-281.0,0
1920,14.0,80.0,-283.0,0
1921,16.0,75.0,-282.0,0
1922,16.0,76.0,-284.0,0
1923,17.0,78.0,-279.0,0
1924,13.0,76.0,-280.0,0
1925,12.0,77.0,-277.0,0
1926,14.0,79.0,-284.0,0
1927,12.0,81.0,-280.0,0
1928,14.0,77.0,-283.0,0
1929,15.0,78.0,-280.0,0
1930,12.0,81.0,-277.0,0
1931,16.0,75.0,-282.0,0
1932,15.0,76.0,-281.0,0
1933,15.0,79.0,-277.0,0
1934,13.0,78.0,-283.0,0
1935,14.0,79.0,-284.0,0
1936,16.0,77.0,-284.0,0
1937,17.0,78.0,-282.0,0
1938,15.0,77.0,-284.0,0
1939,13.0,78.0,-279.0,0
1940,14.0,80.0,-283.0,0
1941,14.0,80.0,-279.0,0
1942,16.0,76.0,-280.0,0
1943,14.0,78.0,-279.0,0
1944,12.0,81.0,-279.0,0
1945,14.0,78.0,-279.0,0
1946,18.0,84.0,-289.0,0
1947,17.0,81.0,-284.0,0
1948,14.0,76.0,-282.0,0
1949,16.0,80.0,-284.0,0
1950,17.0,79.0,-281.0,0
1951,8.0,81.0,-284.0,0
1952,17.0,76.0,-279.0,0
1953,16.0,78.0,-281.0,0
1954,14.0,78.0,-283.0,0
1955,16.0,79.0,-281.0,0
1956,14.0,77.0,-282.0,0
1957,12.0,77.0,-277.0,0
1958,15.0,80.0,-282.0,0
1959,13.0,80.0,-281.0,0
1960,13.0,80.0,-283.0,0
1961,17.0,82.0,-280.0,0
1962,17.0,78.0,-280.0,0
1963,15.0,79.0,-283.0,0
1964,18.0,77.0,-281.0,0
1965,14.0,77.0,-283.0,0
1966,16.0,81.0,-283.0,0
1967,17.0,76.0,-283.0,0
1968,14.0,77.0,-282.0,0
1969,15.0,78.0,-282.0,0
1970,14.0,83.0,-284.0,0
1971,14.0,77.0,-280.0,0
1972,15.0,80.0,-284.0,0
1973,15.0,79.0,-279.0,0
1974,14.0,77.0,-283.0,0
1975,14.0,79.0,-280.0,0
1976,17.0,80.0,-285.0,0
1977,14.0,78.0,-283.0,0
1978,14.0,77.0,-282.0,0
1979,14.0,78.0,-283.0,0
1980,16.0,80.0,-281.0,0
1981,11.0,81.0,-284.0,0
1982,14.0,79.0,-280.0,0
1983,15.0,79.0,-279.0,0
1984,14.0,79.0,-282.0,0
1985,15.0,80.0,-280.0,0
1986,12.0,80.0,-280.0,0
1987,14.0,78.0,-283.0,0
1988,17.0,77.0,-282.0,0
1989,15.0,77.0,-280.0,0
1990,15.0,78.0,-281.0,0
1991,15.0,78.0,-281.0,0
1992,16.0,77.0,-279.0,0
1993,14.0,80.0,-284.0,0
1994,19.0,77.0,-283.0,0
1995,14.0,79.0,-281.0,0
1996,15.0,81.0,-281.0,0
1997,15.0,78.0,-280.0,0
1998,14.0,78.0,-280.0,0
1999,16.0,79.0,-284.0,0
2000,15.0,80.0,-279.0,0
2001,15.0,81.0,-284.0,0
2002,15.0,86.0,-271.0,0
2003,15.0,83.0,-280.0,0
2004,15.0,78.0,-283.0,0
2005,13.0,81.0,-282.0,0
2006,14.0,80.0,-278.0,0
2007,13.0,81.0,-278.0,0
2008,17.0,79.0,-280.0,0
2009,15.0,82.0,-283.0,0
2010,15.0,80.0,-279.0,0
2011,19.0,77.0,-282.0,0
2012,14.0,78.0,-279.0,0
2013,14.0,78.0,-283.0,0
2014,14.0,81.0,-280.0,0
2015,15.0,79.0,-280.0,0
2016,16.0,78.0,-281.0,0
2017,12.0,81.0,-279.0,0
2018,15.0,80.0,-281.0,0
2019,13.0,80.0,-280.0,0
2020,12.0,79.0,-285.0,0
2021,13.0,78.0,-282.0,0
2022,19.0,76.0,-279.0,0
2023,16.0,78.0,-280.0,0
2024,13.0,80.0,-278.0,0
2025,14.0,80.0,-284.0,0
2026,12.0,83.0,-282.0,0
2027,16.0,77.0,-281.0,0
2028,13.0,79.0,-276.0,0
2029,14.0,80.0,-283.0,0
2030,15.0,82.0,-281.0,0
2031,17.0,76.0,-281.0,0
2032,10.0,79.0,-282.0,0
2033,15.0,82.0,-279.0,0
2034,16.0,77.0,-279.0,0
2035,14.0,79.0,-281.0,0
2036,15.0,80.0,-282.0,0
2037,14.0,78.0,-283.0,0
2038,16.0,77.0,-279.0,0
2039,16.0,77.0,-282.0,0
2040,13.0,79.0,-278.0,0
2041,17.0,79.0,-277.0,0
2042,15.0,76.0,-282.0,0
2043,13.0,77.0,-282.0,0
2044,20.0,70.0,-263.0,0
2045,13.0,78.0,-284.0,0
2046,14.0,79.0,-282.0,0
2047,16.0,80.0,-280.0,0
2048,14.0,79.0,-282.0,0
2049,14.0,80.0,-279.0,0
2050,14.0,79.0,-282.0,0
2051,13.0,80.0,-281.0,0
2052,15.0,79.0,-280.0,0
2053,13.0,78.0,-280.0,0
2054,16.0,75.0,-280.0,0
2055,15.0,79.0,-279.0,0
2056,14.0,79.0,-281.0,0
2057,16.0,79.0,-282.0,0
2058,14.0,82.0,-281.0,0
2059,14.0,79.0,-283.0,0
2060,13.0,79.0,-280.0,0
2061,16.0,78.0,-282.0,0
2062,14.0,79.0,-284.0,0
2063,15.0,82.0,-282.0,0
2064,16.0,79.0,-279.0,0
2065,13.0,82.0,-282.0,0
2066,13.0,81.0,-280.0,0
2067,17.0,81.0,-283.0,0
2068,14.0,78.0,-283.0,0
2069,15.0,80.0,-279.0,0
2070,15.0,80.0,-280.0,0
2071,15.0,80.0,-285.0,0
2072,15.0,81.0,-282.0,0
2073,12.0,81.0,-282.0,0
2074,15.0,79.0,-286.0,0
2075,14.0,77.0,-281.0,0
2076,14.0,79.0,-280.0,0
2077,14.0,79.0,-284.0,0
2078,17.0,79.0,-282.0,0
2079,13.0,79.0,-284.0,0
2080,15.0,80.0,-280.0,0
2081,17.0,77.0,-278.0,0
2082,13.0,79.0,-279.0,0
2083,17.0,80.0,-281.0,0
2084,15.0,81.0,-279.0,0
2085,15.0,82.0,-279.0,0
2086,14.0,80.0,-282.0,0
2087,14.0,80.0,-282.0,0
2088,16.0,79.0,-284.0,0
2089,15.0,80.0,-283.0,0
2090,15.0,79.0,-280.0,0
2091,11.0,82.0,-279.0,0
2092,16.0,80.0,-281.0,0
2093,15.0,78.0,-281.0,0
2094,16.0,82.0,-286.0,0
2095,15.0,81.0,-278.0,0
2096,13.0,79.0,-278.0,0
2097,15.0,81.0,-284.0,0
2098,14.0,80.0,-282.0,0
2099,17.0,80.0,-283.0,0
2100,15.0,80.0,-278.0,0
2101,14.0,79.0,-281.0,0
2102,17.0,79.0,-278.0,0
2103,14.0,79.0,-278.0,0
2104,15.0,80.0,-280.0,0
2105,15.0,80.0,-282.0,0
2106,14.0,80.0,-280.0,0
2107,15.0,80.0,-281.0,0
2108,15.0,80.0,-278.0,0
2109,16.0,79.0,-281.0,0
2110,15.0,79.0,-278.0,0
2111,13.0,77.0,-279.0,0
2112,14.0,82.0,-281.0,0
2113,17.0,76.0,-279.0,0
2114,14.0,80.0,-283.0,0
2115,16.0,81.0,-286.0,0
2116,15.0,83.0,-286.0,0
2117,13.0,78.0,-283.0,0
2118,14.0,79.0,-281.0,0
2119,15.0,80.0,-280.0,0
2120,18.0,82.0,-280.0,0
2121,16.0,78.0,-284.0,0
2122,17.0,82.0,-281.0,0
2123,15.0,81.0,-281.0,0
2124,13.0,81.0,-281.0,0
2125,17.0,79.0,-283.0,0
2126,14.0,81.0,-281.0,0
2127,15.0,79.0,-285.0,0
2128,15.0,81.0,-283.0,0
2129,17.0,79.0,-281.0,0
2130,13.0,80.0,-281.0,0
2131,15.0,83.0,-281.0,0
2132,16.0,81.0,-279.0,0
2133,18.0,80.0,-279.0,0
2134,14.0,81.0,-279.0,0
2135,14.0,79.0,-279.0,0
2136,15.0,79.0,-280.0,0
2137,14.0,80.0,-279.0,0
2138,12.0,82.0,-277.0,0
2139,17.0,78.0,-281.0,0
2140,14.0,80.0,-281.0,0
2141,15.0,77.0,-280.0,0
2142,14.0,64.0,-276.0,0
2143,12.0,82.0,-280.0,0
2144,15.0,79.0,-279.0,0
2145,15.0,79.0,-280.0,0
2146,17.0,80.0,-283.0,0
2147,15.0,78.0,-282.0,0
2148,15.0,81.0,-278.0,0
2149,17.0,76.0,-282.0,0
2150,14.0,83.0,-283.0,0
2151,12.0,78.0,-281.0,0
2152,15.0,80.0,-283.0,0
2153,15.0,81.0,-285.0,0
2154,16.0,81.0,-282.0,0
2155,14.0,78.0,-279.0,0
2156,14.0,79.0,-281.0,0
2157,13.0,81.0,-282.0,0
2158,13.0,79.0,-282.0,0
2159,15.0,80.0,-284.0,0
2160,16.0,80.0,-278.0,0
2161,15.0,81.0,-280.0,0
2162,13.0,82.0,-281.0,0
2163,14.0,81.0,-283.0,0
2164,14.0,82.0,-282.0,0
2165,15.0,79.0,-281.0,0
2166,13.0,80.0,-280.0,0
2167,14.0,77.0,-278.0,0
2168,15.0,79.0,-278.0,0
2169,9.0,81.0,-284.0,0
2170,15.0,83.0,-279.0,0
2171,17.0,80.0,-281.0,0
2172,14.0,78.0,-285.0,0
2173,14.0,78.0,-280.0,0
2174,15.0,80.0,-281.0,0
2175,13.0,82.0,-277.0,0
2176,16.0,79.0,-278.0,0
2177,15.0,82.0,-278.0,0
2178,15.0,79.0,-280.0,0
2179,19.0,80.0,-279.0,0
2180,18.0,76.0,-283.0,0
2181,15.0,81.0,-281.0,0
2182,14.0,81.0,-281.0,0
2183,16.0,78.0,-283.0,0
2184,13.0,79.0,-281.0,0
2185,15.0,79.0,-284.0,0
2186,17.0,79.0,-282.0,0
2187,14.0,78.0,-278.0,0
2188,16.0,78.0,-282.0,0
2189,15.0,77.0,-282.0,0
2190,20.0,77.0,-281.0,0
2191,16.0,78.0,-278.0,0
2192,15.0,80.0,-280.0,0
2193,14.0,82.0,-277.0,0
2194,15.0,76.0,-281.0,0
2195,15.0,79.0,-281.0,0
2196,16.0,80.0,-281.0,0
2197,16.0,78.0,-280.0,0
2198,15.0,80.0,-281.0,0
2199,18.0,79.0,-282.0,0
2200,15.0,80.0,-281.0,0
2201,16.0,78.0,-280.0,0
2202,17.0,80.0,-283.0,0
2203,14.0,80.0,-280.0,0
2204,16.0,82.0,-281.0,0
2205,14.0,80.0,-281.0,0
2206,17.0,79.0,-282.0,0
2207,15.0,79.0,-283.0,0
2208,17.0,79.0,-281.0,0
2209,7.0,81.0,-281.0,0
2210,16.0,81.0,-280.0,0
2211,16.0,80.0,-282.0,0
2212,14.0,80.0,-282.0,0
2213,13.0,81.0,-282.0,0
2214,15.0,82.0,-279.0,0
2215,15.0,80.0,-282.0,0
2216,15.0,79.0,-280.0,0
2217,15.0,78.0,-283.0,0
2218,14.0,83.0,-283.0,0
2219,13.0,80.0,-282.0,0
2220,15.0,78.0,-282.0,0
2221,16.0,84.0,-281.0,0
2222,15.0,78.0,-281.0,0
2223,14.0,78.0,-281.0,0
2224,16.0,80.0,-283.0,0
2225,15.0,78.0,-281.0,0
2226,14.0,80.0,-279.0,0
2227,17.0,78.0,-278.0,0
2228,17.0,80.0,-283.0,0
2229,15.0,82.0,-281.0,0
2230,14.0,84.0,-284.0,0
2231,14.0,80.0,-280.0,0
2232,18.0,78.0,-279.0,0
2233,15.0,81.0,-283.0,0
2234,12.0,82.0,-285.0,0
2235,15.0,80.0,-282.0,0
2236,16.0,79.0,-283.0,0
2237,12.0,81.0,-280.0,0
2238,16.0,79.0,-285.0,0
2239,17.0,79.0,-286.0,0
2240,11.0,86.0,-275.0,0
2241,17.0,81.0,-279.0,0
2242,10.0,85.0,-281.0,0
2243,16.0,80.0,-282.0,0
2244,14.0,79.0,-284.0,0
2245,14.0,80.0,-281.0,0
2246,14.0,80.0,-284.0,0
2247,16.0,80.0,-284.0,0
2248,14.0,80.0,-283.0,0
2249,15.0,81.0,-284.0,0
2250,15.0,77.0,-282.0,0
2251,15.0,92.0,-268.0,0
2252,12.0,79.0,-281.0,0
2253,17.0,80.0,-284.0,0
2254,13.0,78.0,-282.0,0
2255,16.0,78.0,-282.0,0
2256,13.0,79.0,-281.0,0
2257,16.0,79.0,-283.0,0
2258,16.0,77.0,-282.0,0
2259,13.0,78.0,-279.0,0
2260,14.0,77.0,-282.0,0
2261,13.0,82.0,-277.0,0
2262,15.0,80.0,-279.0,0
2263,14.0,80.0,-279.0,0
2264,13.0,85.0,-283.0,0
2265,14.0,77.0,-282.0,0
2266,13.0,81.0,-281.0,0
2267,15.0,79.0,-279.0,0
2268,14.0,82.0,-282.0,0
2269,15.0,81.0,-284.0,0
2270,13.0,81.0,-280.0,0
2271,16.0,79.0,-279.0,0
2272,17.0,81.0,-283.0,0
2273,18.0,79.0,-282.0,0
2274,15.0,80.0,-284.0,0
2275,14.0,77.0,-280.0,0
2276,15.0,79.0,-278.0,0
2277,14.0,80.0,-283.0,0
2278,16.0,84.0,-280.0,0
2279,15.0,79.0,-283.0,0
2280,16.0,78.0,-279.0,0
2281,10.0,77.0,-290.0,0
2282,10.0,80.0,-280.0,0
2283,14.0,80.0,-282.0,0
2284,14.0,81.0,-278.0,0
2285,16.0,78.0,-276.0,0
2286,16.0,80.0,-278.0,0
2287,17.0,79.0,-277.0,0
2288,17.0,79.0,-279.0,0
2289,17.0,80.0,-283.0,0
2290,19.0,80.0,-281.0,0
2291,14.0,80.0,-283.0,0
2292,15.0,80.0,-283.0,0
2293,12.0,80.0,-282.0,0
2294,15.0,82.0,-282.0,0
2295,13.0,80.0,-280.0,0
2296,14.0,78.0,-280.0,0
2297,16.0,79.0,-277.0,0
2298,14.0,80.0,-279.0,0
2299,12.0,82.0,-281.0,0
2300,14.0,82.0,-279.0,0
2301,19.0,79.0,-281.0,0
2302,13.0,81.0,-276.0,0
2303,17.0,79.0,-281.0,0
2304,14.0,82.0,-284.0,0
2305,15.0,82.0,-283.0,0
2306,16.0,79.0,-281.0,0
2307,16.0,80.0,-282.0,0
2308,15.0,76.0,-284.0,0
2309,15.0,77.0,-281.0,0
2310,15.0,84.0,-277.0,0
2311,15.0,81.0,-281.0,0
2312,14.0,80.0,-280.0,0
2313,16.0,79.0,-282.0,0
2314,10.0,84.0,-285.0,0
2315,14.0,77.0,-283.0,0
2316,16.0,78.0,-281.0,0
2317,14.0,80.0,-281.0,0
2318,16.0,78.0,-284.0,0
2319,16.0,77.0,-283.0,0
2320,14.0,80.0,-281.0,0
2321,15.0,79.0,-281.0,0
2322,19.0,79.0,-286.0,0
2323,12.0,82.0,-277.0,0
2324,16.0,79.0,-283.0,0
2325,16.0,79.0,-279.0,0
2326,15.0,77.0,-281.0,0
2327,15.0,79.0,-284.0,0
2328,15.0,77.0,-283.0,0
2329,15.0,81.0,-281.0,0
2330,16.0,80.0,-282.0,0
2331,14.0,78.0,-280.0,0
2332,15.0,78.0,-280.0,0
2333,15.0,79.0,-282.0,0
2334,13.0,79.0,-283.0,0
2335,16.0,81.0,-283.0,0
2336,15.0,80.0,-286.0,0
2337,14.0,81.0,-278.0,0
2338,10.0,63.0,-267.0,0
2339,15.0,79.0,-281.0,0
2340,17.0,80.0,-279.0,0
2341,13.0,81.0,-282.0,0
2342,18.0,78.0,-279.0,0
2343,16.0,80.0,-279.0,0
2344,14.0,79.0,-282.0,0
2345,13.0,80.0,-283.0,0
2346,17.0,79.0,-276.0,0
2347,15.0,80.0,-280.0,0
2348,15.0,80.0,-280.0,0
2349,13.0,85.0,-289.0,0
2350,18.0,87.0,-276.0,0
2351,14.0,78.0,-282.0,0
2352,17.0,79.0,-282.0,0
2353,17.0,81.0,-283.0,0
2354,14.0,78.0,-277.0,0
2355,16.0,82.0,-282.0,0
2356,15.0,80.0,-278.0,0
2357,17.0,81.0,-280.0,0
2358,13.0,79.0,-284.0,0
2359,14.0,82.0,-279.0,0
2360,18.0,79.0,-283.0,0
2361,14.0,79.0,-277.0,0
2362,12.0,83.0,-279.0,0
2363,14.0,82.0,-284.0,0
2364,11.0,81.0,-284.0,0
2365,15.0,79.0,-280.0,0
2366,15.0,81.0,-279.0,0
2367,16.0,81.0,-283.0,0
2368,14.0,83.0,-284.0,0
2369,13.0,83.0,-281.0,0
2370,16.0,81.0,-282.0,0
2371,14.0,77.0,-278.0,0
2372,16.0,78.0,-280.0,0
2373,13.0,84.0,-284.0,0
2374,15.0,80.0,-278.0,0
2375,15.0,80.0,-282.0,0
2376,15.0,78.0,-276.0,0
2377,15.0,77.0,-280.0,0
2378,17.0,80.0,-282.0,0
2379,17.0,80.0,-282.0,0
2380,12.0,82.0,-287.0,0
2381,19.0,80.0,-281.0,0
2382,16.0,81.0,-281.0,0
2383,13.0,80.0,-279.0,0
2384,13.0,81.0,-282.0,0
2385,15.0,78.0,-281.0,0
2386,16.0,80.0,-284.0,0
2387,18.0,79.0,-284.0,0
2388,15.0,80.0,-278.0,0
2389,15.0,79.0,-283.0,0
2390,14.0,80.0,-283.0,0
2391,16.0,79.0,-281.0,0
2392,13.0,81.0,-279.0,0
2393,16.0,80.0,-281.0,0
2394,14.0,83.0,-282.0,0
2395,12.0,80.0,-283.0,0
2396,14.0,80.0,-278.0,0
2397,15.0,80.0,-281.0,0
2398,11.0,82.0,-281.0,0
2399,18.0,79.0,-279.0,0
2400,13.0,78.0,-277.0,0
2401,15.0,82.0,-283.0,0
2402,16.0,78.0,-277.0,0
2403,16.0,80.0,-284.0,0
2404,14.0,81.0,-281.0,0
2405,16.0,78.0,-285.0,0
2406,14.0,82.0,-279.0,0
2407,15.0,81.0,-278.0,0
2408,16.0,82.0,-279.0,0
2409,16.0,78.0,-286.0,0
2410,14.0,81.0,-279.0,0
2411,16.0,77.0,-280.0,0
2412,14.0,79.0,-282.0,0
2413,15.0,79.0,-278.0,0
2414,15.0,80.0,-280.0,0
2415,17.0,80.0,-280.0,0
2416,15.0,83.0,-280.0,0
2417,14.0,81.0,-283.0,0
2418,12.0,82.0,-278.0,0
2419,16.0,81.0,-278.0,0
2420,13.0,80.0,-285.0,0
2421,15.0,82.0,-282.0,0
2422,17.0,81.0,-282.0,0
2423,16.0,79.0,-281.0,0
2424,13.0,80.0,-282.0,0
2425,14.0,79.0,-283.0,0
2426,15.0,81.0,-279.0,0
2427,13.0,81.0,-284.0,0
2428,14.0,78.0,-279.0,0
2429,16.0,81.0,-277.0,0
2430,15.0,78.0,-279.0,0
2431,13.0,80.0,-280.0,0
2432,15.0,80.0,-281.0,0
2433,13.0,81.0,-279.0,0
2434,16.0,80.0,-280.0,0
2435,17.0,82.0,-282.0,0
2436,16.0,93.0,-294.0,0
2437,14.0,79.0,-280.0,0
2438,15.0,79.0,-280.0,0
2439,14.0,80.0,-282.0,0
2440,16.0,78.0,-277.0,0
2441,15.0,80.0,-284.0,0
2442,12.0,80.0,-279.0,0
2443,16.0,80.0,-278.0,0
2444,19.0,78.0,-283.0,0
2445,14.0,84.0,-279.0,0
2446,14.0,79.0,-286.0,0
2447,15.0,94.0,-285.0,0
2448,14.0,82.0,-283.0,0
2449,15.0,80.0,-282.0,0
2450,17.0,80.0,-280.0,0
2451,18.0,78.0,-284.0,0
2452,16.0,80.0,-281.0,0
2453,13.0,78.0,-279.0,0
2454,16.0,83.0,-279.0,0
2455,16.0,81.0,-282.0,0
2456,13.0,81.0,-281.0,0
2457,16.0,81.0,-280.0,0
2458,15.0,79.0,-282.0,0
2459,14.0,79.0,-279.0,0
2460,15.0,81.0,-281.0,0
2461,14.0,80.0,-279.0,0
2462,20.0,76.0,-282.0,0
2463,16.0,81.0,-280.0,0
2464,16.0,78.0,-279.0,0
2465,16.0,80.0,-283.0,0
2466,16.0,81.0,-283.0,0
2467,16.0,79.0,-279.0,0
2468,15.0,82.0,-278.0,0
2469,16.0,83.0,-279.0,0
2470,13.0,80.0,-280.0,0
2471,13.0,81.0,-280.0,0
2472,16.0,81.0,-282.0,0
2473,15.0,80.0,-282.0,0
2474,15.0,80.0,-280.0,0
2475,14.0,81.0,-282.0,0
2476,17.0,78.0,-281.0,0
2477,13.0,79.0,-282.0,0
2478,11.0,79.0,-284.0,0
2479,16.0,79.0,-282.0,0
2480,14.0,82.0,-280.0,0
2481,14.0,79.0,-282.0,0
2482,14.0,79.0,-282.0,0
2483,14.0,79.0,-283.0,0
2484,15.0,82.0,-278.0,0
2485,14.0,81.0,-276.0,0
2486,13.0,81.0,-278.0,0
2487,17.0,77.0,-285.0,0
2488,17.0,79.0,-283.0,0
2489,14.0,82.0,-283.0,0
2490,13.0,79.0,-285.0,0
2491,16.0,79.0,-282.0,0
2492,15.0,79.0,-280.0,0
2493,15.0,81.0,-279.0,0
2494,15.0,78.0,-282.0,0
2495,13.0,81.0,-279.0,0
2496,18.0,80.0,-284.0,0
2497,14.0,77.0,-281.0,0
2498,14.0,81.0,-285.0,0
2499,16.0,81.0,-281.0,0
2500,16.0,80.0,-281.0,0
2501,15.0,83.0,-279.0,0
2502,14.0,79.0,-282.0,0
2503,14.0,82.0,-280.0,0
2504,15.0,79.0,-281.0,0
2505,13.0,81.0,-289.0,0
2506,14.0,79.0,-282.0,0
2507,18.0,80.0,-279.0,0
2508,15.0,81.0,-280.0,0
2509,15.0,82.0,-283.0,0
2510,13.0,81.0,-285.0,0
2511,14.0,82.0,-284.0,0
2512,17.0,82.0,-284.0,0
2513,12.0,81.0,-282.0,0
2514,17.0,77.0,-279.0,0
2515,15.0,82.0,-282.0,0
2516,15.0,81.0,-279.0,0
2517,16.0,79.0,-281.0,0
2518,16.0,81.0,-279.0,0
2519,15.0,77.0,-280.0,0
2520,14.0,80.0,-280.0,0
2521,15.0,79.0,-282.0,0
2522,12.0,80.0,-279.0,0
2523,17.0,80.0,-284.0,0
2524,15.0,77.0,-283.0,0
2525,14.0,83.0,-283.0,0
2526,17.0,78.0,-282.0,0
2527,14.0,80.0,-283.0,0
2528,16.0,81.0,-286.0,0
2529,16.0,77.0,-283.0,0
2530,18.0,77.0,-286.0,0
2531,16.0,81.0,-281.0,0
2532,17.0,81.0,-277.0,0
2533,17.0,78.0,-279.0,0
2534,16.0,80.0,-279.0,0
2535,13.0,81.0,-284.0,0
2536,13.0,83.0,-282.0,0
2537,14.0,78.0,-282.0,0
2538,14.0,78.0,-280.0,0
2539,13.0,79.0,-279.0,0
2540,13.0,80.0,-282.0,0
2541,13.0,80.0,-277.0,0
2542,12.0,79.0,-279.0,0
2543,14.0,81.0,-281.0,0
2544,15.0,83.0,-281.0,0
2545,24.0,82.0,-286.0,0
2546,16.0,79.0,-282.0,0
2547,12.0,83.0,-275.0,0
2548,14.0,80.0,-283.0,0
2549,15.0,79.0,-283.0,0
2550,14.0,85.0,-284.0,0
2551,15.0,80.0,-276.0,0
2552,14.0,79.0,-280.0,0
2553,16.0,77.0,-280.0,0
2554,14.0,82.0,-280.0,0
2555,15.0,80.0,-281.0,0
2556,14.0,80.0,-282.0,0
2557,20.0,77.0,-277.0,0
2558,13.0,81.0,-281.0,0
2559,13.0,81.0,-281.0,0
2560,15.0,79.0,-282.0,0
2561,18.0,79.0,-281.0,0
2562,16.0,79.0,-281.0,0
2563,17.0,81.0,-275.0,0
2564,15.0,79.0,-283.0,0
2565,18.0,80.0,-282.0,0
2566,11.0,81.0,-280.0,0
2567,15.0,79.0,-280.0,0
2568,17.0,76.0,-276.0,0
2569,14.0,79.0,-279.0,0
2570,14.0,80.0,-282.0,0
2571,15.0,78.0,-281.0,0
2572,15.0,81.0,-279.0,0
2573,14.0,83.0,-279.0,0
2574,16.0,79.0,-280.0,0
2575,15.0,78.0,-281.0,0
2576,17.0,81.0,-283.0,0
2577,15.0,85.0,-282.0,0
2578,18.0,77.0,-283.0,0
2579,15.0,84.0,-277.0,0
2580,18.0,78.0,-275.0,0
2581,16.0,79.0,-281.0,0
2582,15.0,80.0,-282.0,0
2583,13.0,79.0,-281.0,0
2584,14.0,78.0,-283.0,0
2585,17.0,80.0,-281.0,0
2586,16.0,80.0,-282.0,0
2587,17.0,80.0,-283.0,0
2588,16.0,79.0,-280.0,0
2589,13.0,80.0,-279.0,0
2590,14.0,82.0,-279.0,0
2591,15.0,79.0,-283.0,0
2592,14.0,79.0,-282.0,0
2593,15.0,81.0,-278.0,0
2594,14.0,77.0,-279.0,0
2595,17.0,79.0,-284.0,0
2596,15.0,82.0,-282.0,0
2597,14.0,81.0,-281.0,0
2598,12.0,81.0,-282.0,0
2599,15.0,81.0,-278.0,0
2600,16.0,80.0,-280.0,0
2601,13.0,82.0,-283.0,0
2602,18.0,80.0,-280.0,0
2603,17.0,81.0,-280.0,0
2604,12.0,82.0,-281.0,0
2605,15.0,82.0,-280.0,0
2606,14.0,77.0,-280.0,0
2607,15.0,81.0,-283.0,0
2608,16.0,82.0,-281.0,0
2609,16.0,78.0,-279.0,0
2610,14.0,80.0,-281.0,0
2611,15.0,82.0,-282.0,0
2612,16.0,81.0,-278.0,0
2613,15.0,82.0,-281.0,0
2614,14.0,79.0,-285.0,0
2615,16.0,81.0,-280.0,0
2616,14.0,73.0,-283.0,0
2617,16.0,79.0,-284.0,0
2618,15.0,80.0,-279.0,0
2619,15.0,80.0,-280.0,0
2620,15.0,81.0,-284.0,0
2621,15.0,77.0,-277.0,0
2622,14.0,81.0,-283.0,0
2623,17.0,80.0,-283.0,0
2624,20.0,79.0,-281.0,0
2625,13.0,82.0,-279.0,0
2626,14.0,81.0,-278.0,0
2627,13.0,81.0,-281.0,0
2628,14.0,82.0,-280.0,0
2629,14.0,81.0,-283.0,0
2630,14.0,81.0,-281.0,0
2631,17.0,78.0,-280.0,0
2632,17.0,79.0,-282.0,0
2633,15.0,80.0,-281.0,0
2634,14.0,81.0,-284.0,0
2635,15.0,81.0,-282.0,0
2636,18.0,79.0,-283.0,0
2637,12.0,83.0,-282.0,0
2638,16.0,81.0,-283.0,0
2639,17.0,82.0,-283.0,0
2640,15.0,79.0,-278.0,0
2641,16.0,79.0,-279.0,0
2642,14.0,83.0,-279.0,0
2643,12.0,71.0,-274.0,0
2644,16.0,79.0,-278.0,0
2645,13.0,83.0,-284.0,0
2646,15.0,78.0,-282.0,0
2647,15.0,82.0,-283.0,0
2648,16.0,84.0,-279.0,0
2649,13.0,80.0,-279.0,0
2650,14.0,79.0,-278.0,0
2651,13.0,83.0,-279.0,0
2652,13.0,85.0,-283.0,0
2653,15.0,79.0,-281.0,0
2654,16.0,80.0,-283.0,0
2655,17.0,79.0,-281.0,0
2656,14.0,81.0,-283.0,0
2657,13.0,81.0,-281.0,0
2658,16.0,82.0,-286.0,0
2659,15.0,83.0,-280.0,0
2660,16.0,78.0,-280.0,0
2661,14.0,79.0,-281.0,0
2662,17.0,81.0,-284.0,0
2663,15.0,81.0,-283.0,0
2664,14.0,81.0,-283.0,0
2665,14.0,82.0,-282.0,0
2666,16.0,78.0,-282.0,0
2667,15.0,78.0,-284.0,0
2668,17.0,80.0,-279.0,0
2669,14.0,78.0,-281.0,0
2670,14.0,81.0,-281.0,0
2671,15.0,85.0,-282.0,0
2672,13.0,82.0,-276.0,0
2673,18.0,79.0,-278.0,0
2674,15.0,80.0,-283.0,0
2675,15.0,81.0,-278.0,0
2676,15.0,82.0,-280.0,0
2677,16.0,75.0,-278.0,0
2678,16.0,82.0,-279.0,0
2679,17.0,82.0,-282.0,0
2680,14.0,80.0,-283.0,0
2681,13.0,81.0,-280.0,0
2682,17.0,81.0,-281.0,0
2683,17.0,81.0,-280.0,0
2684,18.0,81.0,-282.0,0
2685,17.0,80.0,-279.0,0
2686,17.0,81.0,-283.0,0
2687,18.0,79.0,-284.0,0
2688,17.0,80.0,-278.0,0
2689,10.0,83.0,-280.0,0
2690,20.0,78.0,-280.0,0
2691,14.0,78.0,-276.0,0
2692,14.0,78.0,-277.0,0
2693,15.0,77.0,-278.0,0
2694,17.0,80.0,-275.0,0
2695,16.0,80.0,-278.0,0
2696,16.0,83.0,-282.0,0
2697,16.0,81.0,-286.0,0
2698,17.0,80.0,-283.0,0
2699,4.0,83.0,-289.0,0
2700,14.0,82.0,-285.0,0
2701,15.0,83.0,-281.0,0
2702,14.0,79.0,-283.0,0
2703,15.0,82.0,-282.0,0
2704,17.0,81.0,-283.0,0
2705,16.0,84.0,-279.0,0
2706,13.0,83.0,-279.0,0
2707,13.0,82.0,-279.0,0
2708,16.0,82.0,-280.0,0
2709,16.0,79.0,-284.0,0
2710,17.0,82.0,-281.0,0
2711,14.0,81.0,-279.0,0
2712,15.0,84.0,-278.0,0
2713,13.0,85.0,-281.0,0
2714,15.0,82.0,-280.0,0
2715,16.0,80.0,-279.0,0
2716,14.0,83.0,-281.0,0
2717,15.0,84.0,-276.0,0
2718,17.0,82.0,-282.0,0
2719,17.0,82.0,-283.0,0
2720,17.0,83.0,-280.0,0
2721,16.0,82.0,-282.0,0
2722,14.0,83.0,-276.0,0
2723,16.0,82.0,-277.0,0
2724,17.0,78.0,-283.0,0
2725,16.0,85.0,-281.0,0
2726,15.0,81.0,-284.0,0
2727,16.0,82.0,-279.0,0
2728,14.0,83.0,-279.0,0
2729,15.0,81.0,-282.0,0
2730,17.0,80.0,-280.0,0
2731,17.0,81.0,-282.0,0
2732,16.0,81.0,-278.0,0
2733,14.0,83.0,-278.0,0
2734,15.0,81.0,-279.0,0
2735,16.0,83.0,-280.0,0
2736,15.0,78.0,-284.0,0
2737,18.0,82.0,-279.0,0
2738,16.0,83.0,-279.0,0
2739,14.0,84.0,-280.0,0
2740,16.0,83.0,-282.0,0
2741,21.0,87.0,-295.0,0
2742,14.0,81.0,-281.0,0
2743,17.0,83.0,-282.0,0
2744,15.0,81.0,-282.0,0
2745,18.0,83.0,-280.0,0
2746,15.0,83.0,-279.0,0
2747,15.0,81.0,-282.0,0
2748,17.0,83.0,-281.0,0
2749,15.0,83.0,-278.0,0
2750,19.0,81.0,-279.0,0
2751,16.0,83.0,-281.0,0
2752,17.0,73.0,-279.0,0
2753,15.0,81.0,-279.0,0
2754,15.0,83.0,-283.0,0
2755,14.0,84.0,-278.0,0
2756,17.0,83.0,-280.0,0
2757,14.0,80.0,-277.0,0
2758,17.0,81.0,-281.0,0
2759,17.0,84.0,-279.0,0
2760,18.0,81.0,-279.0,0
2761,15.0,80.0,-282.0,0
2762,17.0,82.0,-284.0,0
2763,15.0,85.0,-279.0,0
2764,18.0,79.0,-282.0,0
2765,17.0,85.0,-288.0,0
2766,17.0,80.0,-281.0,0
2767,18.0,81.0,-277.0,0
2768,17.0,84.0,-283.0,0
2769,17.0,81.0,-284.0,0
2770,16.0,85.0,-279.0,0
2771,18.0,82.0,-281.0,0
2772,14.0,82.0,-283.0,0
2773,15.0,81.0,-279.0,0
2774,15.0,83.0,-283.0,0
2775,17.0,80.0,-280.0,0
2776,17.0,84.0,-282.0,0
2777,18.0,83.0,-278.0,0
2778,15.0,81.0,-281.0,0
2779,14.0,82.0,-279.0,0
2780,13.0,81.0,-282.0,0
2781,17.0,80.0,-282.0,0
2782,16.0,83.0,-283.0,0
2783,16.0,85.0,-280.0,0
2784,14.0,83.0,-278.0,0
2785,15.0,79.0,-281.0,0
2786,16.0,82.0,-278.0,0
2787,14.0,80.0,-281.0,0
2788,17.0,83.0,-280.0,0
2789,15.0,80.0,-282.0,0
2790,18.0,83.0,-280.0,0
2791,14.0,83.0,-279.0,0
2792,16.0,80.0,-279.0,0
2793,15.0,82.0,-278.0,0
2794,15.0,83.0,-277.0,0
2795,16.0,80.0,-281.0,0
2796,15.0,82.0,-278.0,0
2797,14.0,83.0,-282.0,0
2798,16.0,82.0,-280.0,0
2799,16.0,82.0,-281.0,0
2800,18.0,80.0,-280.0,0
2801,16.0,82.0,-279.0,0
2802,15.0,80.0,-286.0,0
2803,15.0,83.0,-281.0,0
2804,16.0,80.0,-282.0,0
2805,14.0,82.0,-279.0,0
2806,15.0,84.0,-281.0,0
2807,19.0,82.0,-279.0,0
2808,18.0,80.0,-282.0,0
2809,15.0,81.0,-284.0,0
2810,15.0,83.0,-282.0,0
2811,14.0,81.0,-278.0,0
2812,17.0,82.0,-282.0,0
2813,18.0,82.0,-284.0,0
2814,18.0,81.0,-279.0,0
2815,15.0,84.0,-280.0,0
2816,16.0,82.0,-279.0,0
2817,14.0,82.0,-282.0,0
2818,16.0,78.0,-279.0,0
2819,15.0,81.0,-282.0,0
2820,15.0,82.0,-281.0,0
2821,14.0,80.0,-281.0,0
2822,16.0,79.0,-280.0,0
2823,16.0,82.0,-279.0,0
2824,17.0,79.0,-284.0,0
2825,16.0,82.0,-282.0,0
2826,14.0,79.0,-278.0,0
2827,15.0,81.0,-281.0,0
2828,17.0,82.0,-284.0,0
2829,13.0,82.0,-282.0,0
2830,14.0,82.0,-278.0,0
2831,14.0,82.0,-279.0,0
2832,16.0,81.0,-278.0,0
2833,13.0,83.0,-284.0,0
2834,17.0,82.0,-279.0,0
2835,16.0,81.0,-282.0,0
2836,13.0,82.0,-284.0,0
2837,16.0,82.0,-278.0,0
2838,17.0,81.0,-284.0,0
2839,20.0,86.0,-278.0,0
2840,14.0,84.0,-280.0,0
2841,17.0,80.0,-278.0,0
2842,15.0,79.0,-277.0,0
2843,14.0,82.0,-281.0,0
2844,14.0,81.0,-280.0,0
2845,18.0,79.0,-282.0,0
2846,10.0,83.0,-279.0,0
2847,17.0,80.0,-282.0,0
2848,16.0,80.0,-278.0,0
2849,17.0,85.0,-280.0,0
2850,20.0,77.0,-279.0,0
2851,13.0,84.0,-280.0,0
2852,15.0,82.0,-279.0,0
2853,17.0,81.0,-279.0,0
2854,13.0,84.0,-282.0,0
2855,14.0,84.0,-282.0,0
2856,15.0,82.0,-278.0,0
2857,14.0,83.0,-279.0,0
2858,13.0,82.0,-280.0,0
2859,14.0,80.0,-279.0,0
2860,18.0,82.0,-282.0,0
2861,17.0,80.0,-279.0,0
2862,14.0,84.0,-280.0,0
2863,14.0,81.0,-279.0,0
2864,13.0,83.0,-277.0,0
2865,13.0,83.0,-277.0,0
2866,17.0,81.0,-281.0,0
2867,16.0,81.0,-280.0,0
2868,17.0,82.0,-278.0,0
2869,16.0,81.0,-281.0,0
2870,18.0,79.0,-282.0,0
2871,14.0,82.0,-279.0,0
2872,14.0,82.0,-278.0,0
2873,15.0,82.0,-276.0,0
2874,13.0,82.0,-278.0,0
2875,17.0,81.0,-282.0,0
2876,18.0,83.0,-279.0,0
2877,15.0,81.0,-274.0,0
2878,17.0,83.0,-278.0,0
2879,16.0,80.0,-274.0,0
2880,16.0,79.0,-277.0,0
2881,14.0,78.0,-281.0,0
2882,15.0,83.0,-282.0,0
2883,16.0,83.0,-286.0,0
2884,15.0,81.0,-284.0,0
2885,16.0,84.0,-280.0,0
2886,16.0,82.0,-281.0,0
2887,16.0,83.0,-281.0,0
2888,13.0,81.0,-283.0,0
2889,12.0,82.0,-281.0,0
2890,16.0,80.0,-279.0,0
2891,17.0,82.0,-278.0,0
2892,18.0,78.0,-281.0,0
2893,14.0,81.0,-286.0,0
2894,13.0,84.0,-280.0,0
2895,18.0,81.0,-280.0,0
2896,15.0,83.0,-282.0,0
2897,12.0,83.0,-282.0,0
2898,14.0,82.0,-277.0,0
2899,13.0,83.0,-285.0,0
2900,16.0,78.0,-278.0,0
2901,12.0,85.0,-282.0,0
2902,16.0,81.0,-284.0,0
2903,16.0,81.0,-283.0,0
2904,17.0,82.0,-282.0,0
2905,15.0,83.0,-280.0,0
2906,13.0,84.0,-282.0,0
2907,15.0,84.0,-279.0,0
2908,16.0,80.0,-284.0,0
2909,13.0,82.0,-281.0,0
2910,16.0,81.0,-281.0,0
2911,16.0,81.0,-286.0,0
2912,17.0,78.0,-277.0,0
2913,15.0,81.0,-280.0,0
2914,16.0,80.0,-280.0,0
2915,15.0,81.0,-276.0,0
2916,15.0,81.0,-276.0,0
2917,16.0,80.0,-282.0,0
2918,16.0,81.0,-279.0,0
2919,15.0,79.0,-279.0,0
2920,14.0,80.0,-283.0,0
2921,16.0,78.0,-284.0,0
2922,15.0,80.0,-278.0,0
2923,16.0,78.0,-279.0,0
2924,15.0,80.0,-281.0,0
2925,17.0,79.0,-282.0,0
2926,15.0,81.0,-280.0,0
2927,14.0,80.0,-278.0,0
2928,14.0,77.0,-281.0,0
2929,15.0,80.0,-279.0,0
2930,15.0,82.0,-279.0,0
2931,12.0,82.0,-281.0,0
2932,16.0,77.0,-279.0,0
2933,16.0,83.0,-279.0,0
2934,15.0,82.0,-281.0,0
2935,16.0,83.0,-281.0,0
2936,15.0,82.0,-280.0,0
2937,15.0,81.0,-278.0,0
2938,16.0,82.0,-279.0,0
2939,16.0,80.0,-280.0,0
2940,14.0,80.0,-279.0,0
2941,17.0,79.0,-284.0,0
2942,16.0,83.0,-283.0,0
2943,14.0,81.0,-282.0,0
2944,18.0,80.0,-281.0,0
2945,16.0,80.0,-280.0,0
2946,14.0,81.0,-283.0,0
2947,16.0,81.0,-281.0,0
2948,14.0,73.0,-268.0,0
2949,15.0,82.0,-284.0,0
2950,17.0,79.0,-282.0,0
2951,16.0,84.0,-284.0,0
2952,13.0,81.0,-281.0,0
2953,15.0,80.0,-284.0,0
2954,14.0,83.0,-284.0,0
2955,18.0,82.0,-284.0,0
2956,13.0,80.0,-280.0,0
2957,12.0,80.0,-282.0,0
2958,14.0,80.0,-284.0,0
2959,19.0,79.0,-289.0,0
2960,18.0,81.0,-282.0,0
2961,16.0,83.0,-277.0,0
2962,16.0,80.0,-279.0,0
2963,11.0,82.0,-281.0,0
2964,17.0,82.0,-282.0,0
2965,11.0,83.0,-285.0,0
2966,16.0,81.0,-282.0,0
2967,15.0,81.0,-278.0,0
2968,14.0,81.0,-280.0,0
2969,16.0,83.0,-280.0,0
2970,13.0,90.0,-281.0,0
2971,17.0,85.0,-272.0,0
2972,15.0,82.0,-279.0,0
2973,15.0,82.0,-281.0,0
2974,16.0,82.0,-279.0,0
2975,17.0,77.0,-281.0,0
2976,17.0,81.0,-280.0,0
2977,18.0,79.0,-282.0,0
2978,17.0,82.0,-276.0,0
2979,16.0,82.0,-281.0,0
2980,17.0,81.0,-280.0,0
2981,11.0,79.0,-281.0,0
2982,16.0,82.0,-280.0,0
2983,17.0,79.0,-282.0,0
2984,17.0,80.0,-284.0,0
2985,14.0,81.0,-281.0,0
2986,12.0,83.0,-280.0,0
2987,17.0,82.0,-277.0,0
2988,14.0,80.0,-281.0,0
2989,12.0,83.0,-282.0,0
2990,12.0,80.0,-282.0,0
2991,16.0,82.0,-278.0,0
2992,15.0,80.0,-281.0,0
2993,16.0,82.0,-279.0,0
2994,14.0,83.0,-281.0,0
2995,17.0,83.0,-278.0,0
2996,15.0,86.0,-279.0,0
2997,15.0,81.0,-279.0,0
2998,19.0,81.0,-283.0,0
2999,16.0,82.0,-277.0,0
