,accelerometer_x,accelerometer_y,accelerometer_z,fall
0,1.0,-248.0,17.0,0
1,-3.0,-250.0,16.0,0
2,1.0,-245.0,15.0,0
3,1.0,-247.0,15.0,0
4,-3.0,-250.0,17.0,0
5,1.0,-249.0,8.0,0
6,1.0,-249.0,20.0,0
7,1.0,-248.0,16.0,0
8,-1.0,-244.0,13.0,0
9,1.0,-247.0,17.0,0
10,4.0,-249.0,15.0,0
11,2.0,-251.0,15.0,0
12,0.0,-248.0,15.0,0
13,-2.0,-247.0,13.0,0
14,0.0,-245.0,18.0,0
15,2.0,-250.0,10.0,0
16,0.0,-247.0,9.0,0
17,1.0,-247.0,13.0,0
18,0.0,-247.0,14.0,0
19,0.0,-248.0,15.0,0
20,1.0,-250.0,17.0,0
21,0.0,-249.0,13.0,0
22,0.0,-249.0,13.0,0
23,2.0,-249.0,15.0,0
24,1.0,-249.0,16.0,0
25,0.0,-243.0,15.0,0
26,-2.0,-246.0,12.0,0
27,0.0,-246.0,12.0,0
28,2.0,-249.0,12.0,0
29,-1.0,-247.0,18.0,0
30,0.0,-247.0,16.0,0
31,0.0,-248.0,14.0,0
32,1.0,-248.0,14.0,0
33,0.0,-248.0,13.0,0
34,1.0,-252.0,18.0,0
35,-1.0,-247.0,14.0,0
36,-1.0,-245.0,14.0,0
37,-1.0,-246.0,14.0,0
38,0.0,-245.0,13.0,0
39,0.0,-248.0,15.0,0
40,1.0,-247.0,15.0,0
41,-3.0,-248.0,14.0,0
42,2.0,-247.0,14.0,0
43,1.0,-244.0,14.0,0
44,1.0,-246.0,11.0,0
45,1.0,-249.0,15.0,0
46,-2.0,-246.0,15.0,0
47,-1.0,-243.0,11.0,0
48,0.0,-246.0,16.0,0
49,1.0,-248.0,16.0,0
50,0.0,-249.0,15.0,0
51,0.0,-245.0,16.0,0
52,0.0,-250.0,13.0,0
53,1.0,-248.0,15.0,0
54,-2.0,-249.0,18.0,0
55,-1.0,-251.0,12.0,0
56,1.0,-250.0,15.0,0
57,-1.0,-249.0,16.0,0
58,0.0,-248.0,3.0,0
59,0.0,-248.0,15.0,0
60,0.0,-246.0,17.0,0
61,0.0,-248.0,11.0,0
62,1.0,-249.0,15.0,0
63,2.0,-246.0,13.0,0
64,1.0,-250.0,9.0,0
65,-2.0,-247.0,12.0,0
66,1.0,-249.0,9.0,0
67,0.0,-247.0,14.0,0
68,0.0,-250.0,8.0,0
69,-2.0,-249.0,6.0,0
70,-2.0,-251.0,10.0,0
71,0.0,-246.0,9.0,0
72,0.0,-250.0,14.0,0
73,-2.0,-247.0,11.0,0
74,-2.0,-250.0,11.0,0
75,-2.0,-251.0,9.0,0
76,-1.0,-246.0,13.0,0
77,-4.0,-246.0,13.0,0
78,-4.0,-248.0,16.0,0
79,-8.0,-249.0,18.0,0
80,-1.0,-249.0,18.0,0
81,-4.0,-248.0,16.0,0
82,-2.0,-248.0,17.0,0
83,-4.0,-249.0,14.0,0
84,-7.0,-244.0,13.0,0
85,-7.0,-246.0,16.0,0
86,-8.0,-247.0,15.0,0
87,-8.0,-246.0,19.0,0
88,-5.0,-245.0,16.0,0
89,-3.0,-246.0,8.0,0
90,-3.0,-246.0,24.0,0
91,-9.0,-243.0,14.0,0
92,-4.0,-245.0,11.0,0
93,-3.0,-246.0,14.0,0
94,-3.0,-246.0,14.0,0
95,-5.0,-245.0,13.0,0
96,-8.0,-243.0,16.0,0
97,-6.0,-242.0,11.0,0
98,-3.0,-249.0,14.0,0
99,-4.0,-248.0,11.0,0
100,-5.0,-247.0,18.0,0
101,-9.0,-250.0,12.0,0
102,-3.0,-247.0,18.0,0
103,-4.0,-249.0,11.0,0
104,-5.0,-248.0,10.0,0
105,-7.0,-246.0,11.0,0
106,-5.0,-250.0,12.0,0
107,-3.0,-247.0,11.0,0
108,-3.0,-249.0,10.0,0
109,-1.0,-246.0,13.0,0
110,-3.0,-250.0,13.0,0
111,-4.0,-251.0,15.0,0
112,-2.0,-250.0,16.0,0
113,0.0,-251.0,14.0,0
114,-1.0,-249.0,13.0,0
115,1.0,-252.0,15.0,0
116,-3.0,-248.0,11.0,0
117,-2.0,-248.0,14.0,0
118,0.0,-245.0,12.0,0
119,-1.0,-247.0,11.0,0
120,-5.0,-244.0,10.0,0
121,-2.0,-248.0,14.0,0
122,0.0,-246.0,21.0,0
123,0.0,-249.0,10.0,0
124,-2.0,-246.0,14.0,0
125,-3.0,-250.0,14.0,0
126,0.0,-251.0,11.0,0
127,1.0,-252.0,14.0,0
128,0.0,-248.0,15.0,0
129,1.0,-250.0,8.0,0
130,0.0,-248.0,18.0,0
131,-4.0,-249.0,14.0,0
132,0.0,-246.0,13.0,0
133,0.0,-247.0,10.0,0
134,0.0,-248.0,10.0,0
135,-2.0,-244.0,8.0,0
136,-1.0,-246.0,13.0,0
137,1.0,-247.0,14.0,0
138,0.0,-245.0,10.0,0
139,0.0,-248.0,18.0,0
140,-1.0,-250.0,15.0,0
141,-1.0,-246.0,11.0,0
142,0.0,-250.0,13.0,0
143,-2.0,-247.0,7.0,0
144,0.0,-248.0,7.0,0
145,0.0,-249.0,10.0,0
146,1.0,-251.0,13.0,0
147,0.0,-248.0,7.0,0
148,0.0,-246.0,9.0,0
149,2.0,-249.0,8.0,0
150,1.0,-247.0,13.0,0
151,0.0,-247.0,8.0,0
152,3.0,-249.0,10.0,0
153,0.0,-251.0,11.0,0
154,-7.0,-250.0,9.0,0
155,0.0,-248.0,11.0,0
156,1.0,-246.0,12.0,0
157,0.0,-250.0,8.0,0
158,3.0,-246.0,11.0,0
159,2.0,-250.0,10.0,0
160,1.0,-247.0,12.0,0
161,0.0,-246.0,8.0,0
162,0.0,-247.0,9.0,0
163,2.0,-247.0,9.0,0
164,0.0,-247.0,8.0,0
165,0.0,-244.0,3.0,0
166,1.0,-248.0,6.0,0
167,1.0,-250.0,5.0,0
168,1.0,-249.0,9.0,0
169,2.0,-249.0,9.0,0
170,2.0,-249.0,6.0,0
171,1.0,-251.0,4.0,0
172,0.0,-252.0,9.0,0
173,0.0,-249.0,2.0,0
174,2.0,-251.0,7.0,0
175,9.0,-249.0,9.0,0
176,4.0,-250.0,5.0,0
177,2.0,-249.0,6.0,0
178,2.0,-249.0,7.0,0
179,4.0,-248.0,4.0,0
180,2.0,-250.0,9.0,0
181,5.0,-249.0,6.0,0
182,4.0,-253.0,5.0,0
183,2.0,-249.0,7.0,0
184,9.0,-246.0,9.0,0
185,1.0,-247.0,6.0,0
186,3.0,-251.0,12.0,0
187,6.0,-247.0,6.0,0
188,2.0,-246.0,8.0,0
189,2.0,-249.0,4.0,0
190,7.0,-247.0,8.0,0
191,1.0,-247.0,8.0,0
192,2.0,-250.0,8.0,0
193,2.0,-245.0,6.0,0
194,1.0,-246.0,3.0,0
195,6.0,-250.0,6.0,0
196,1.0,-248.0,4.0,0
197,2.0,-251.0,8.0,0
198,5.0,-248.0,6.0,0
199,3.0,-247.0,4.0,0
200,7.0,-250.0,8.0,0
201,4.0,-249.0,6.0,0
202,3.0,-250.0,3.0,0
203,5.0,-250.0,5.0,0
204,7.0,-249.0,6.0,0
205,3.0,-249.0,6.0,0
206,2.0,-246.0,5.0,0
207,4.0,-252.0,1.0,0
208,1.0,-249.0,5.0,0
209,4.0,-250.0,4.0,0
210,2.0,-248.0,6.0,0
211,3.0,-250.0,5.0,0
212,4.0,-246.0,7.0,0
213,2.0,-246.0,3.0,0
214,1.0,-245.0,3.0,0
215,1.0,-250.0,7.0,0
216,0.0,-245.0,2.0,0
217,2.0,-248.0,5.0,0
218,-3.0,-245.0,9.0,0
219,2.0,-250.0,7.0,0
220,2.0,-248.0,2.0,0
221,1.0,-247.0,2.0,0
222,2.0,-249.0,5.0,0
223,4.0,-248.0,5.0,0
224,1.0,-248.0,4.0,0
225,3.0,-250.0,3.0,0
226,2.0,-250.0,8.0,0
227,2.0,-251.0,9.0,0
228,1.0,-247.0,3.0,0
229,0.0,-246.0,3.0,0
230,0.0,-251.0,2.0,0
231,1.0,-246.0,8.0,0
232,2.0,-247.0,5.0,0
233,0.0,-244.0,5.0,0
234,0.0,-244.0,4.0,0
235,2.0,-246.0,4.0,0
236,6.0,-245.0,5.0,0
237,1.0,-247.0,7.0,0
238,0.0,-247.0,5.0,0
239,0.0,-243.0,1.0,0
240,0.0,-247.0,7.0,0
241,0.0,-250.0,3.0,0
242,2.0,-249.0,4.0,0
243,2.0,-250.0,3.0,0
244,1.0,-248.0,6.0,0
245,1.0,-250.0,3.0,0
246,0.0,-248.0,4.0,0
247,2.0,-246.0,6.0,0
248,1.0,-247.0,5.0,0
249,1.0,-247.0,5.0,0
250,-2.0,-248.0,2.0,0
251,0.0,-244.0,3.0,0
252,2.0,-245.0,4.0,0
253,2.0,-248.0,6.0,0
254,1.0,-245.0,5.0,0
255,0.0,-249.0,6.0,0
256,0.0,-247.0,7.0,0
257,1.0,-247.0,6.0,0
258,1.0,-247.0,6.0,0
259,0.0,-250.0,10.0,0
260,0.0,-248.0,7.0,0
261,0.0,-244.0,11.0,0
262,0.0,-249.0,5.0,0
263,0.0,-246.0,4.0,0
264,-1.0,-249.0,3.0,0
265,1.0,-245.0,6.0,0
266,1.0,-247.0,5.0,0
267,1.0,-241.0,4.0,0
268,0.0,-247.0,7.0,0
269,1.0,-249.0,5.0,0
270,1.0,-246.0,8.0,0
271,0.0,-246.0,6.0,0
272,0.0,-246.0,3.0,0
273,-1.0,-248.0,7.0,0
274,4.0,-249.0,6.0,0
275,0.0,-245.0,7.0,0
276,0.0,-246.0,9.0,0
277,0.0,-247.0,6.0,0
278,0.0,-249.0,10.0,0
279,0.0,-249.0,4.0,0
280,0.0,-251.0,11.0,0
281,-3.0,-250.0,6.0,0
282,3.0,-251.0,4.0,0
283,-2.0,-247.0,7.0,0
284,-2.0,-247.0,7.0,0
285,0.0,-249.0,6.0,0
286,0.0,-248.0,2.0,0
287,0.0,-248.0,8.0,0
288,0.0,-248.0,7.0,0
289,-2.0,-247.0,7.0,0
290,1.0,-253.0,6.0,0
291,-1.0,-246.0,9.0,0
292,0.0,-248.0,1.0,0
293,3.0,-252.0,6.0,0
294,0.0,-248.0,10.0,0
295,0.0,-248.0,5.0,0
296,0.0,-249.0,3.0,0
297,0.0,-247.0,5.0,0
298,-1.0,-246.0,7.0,0
299,-2.0,-246.0,11.0,0
300,-2.0,-250.0,11.0,0
301,-2.0,-251.0,10.0,0
302,-3.0,-246.0,6.0,0
303,-1.0,-251.0,10.0,0
304,-1.0,-250.0,3.0,0
305,0.0,-247.0,5.0,0
306,1.0,-247.0,7.0,0
307,-1.0,-244.0,5.0,0
308,1.0,-250.0,2.0,0
309,0.0,-247.0,5.0,0
310,1.0,-249.0,5.0,0
311,0.0,-248.0,4.0,0
312,1.0,-249.0,9.0,0
313,1.0,-248.0,11.0,0
314,1.0,-250.0,12.0,0
315,-2.0,-250.0,8.0,0
316,-5.0,-246.0,7.0,0
317,-1.0,-246.0,8.0,0
318,-1.0,-250.0,9.0,0
319,0.0,-249.0,7.0,0
320,-5.0,-248.0,9.0,0
321,-5.0,-248.0,8.0,0
322,-2.0,-248.0,8.0,0
323,-3.0,-247.0,10.0,0
324,-2.0,-251.0,7.0,0
325,-4.0,-244.0,4.0,0
326,-2.0,-248.0,9.0,0
327,-1.0,-248.0,6.0,0
328,0.0,-248.0,5.0,0
329,-2.0,-249.0,8.0,0
330,0.0,-249.0,7.0,0
331,-2.0,-248.0,5.0,0
332,-4.0,-248.0,6.0,0
333,-2.0,-254.0,8.0,0
334,-4.0,-246.0,10.0,0
335,-8.0,-257.0,6.0,0
336,0.0,-251.0,8.0,0
337,-5.0,-248.0,9.0,0
338,0.0,-252.0,8.0,0
339,-1.0,-247.0,8.0,0
340,-1.0,-248.0,7.0,0
341,0.0,-252.0,8.0,0
342,-2.0,-249.0,7.0,0
343,-4.0,-243.0,15.0,0
344,-2.0,-244.0,13.0,0
345,-4.0,-246.0,19.0,0
346,-4.0,-248.0,8.0,0
347,-2.0,-248.0,7.0,0
348,-2.0,-249.0,11.0,0
349,-3.0,-246.0,8.0,0
350,-2.0,-247.0,9.0,0
351,-3.0,-248.0,8.0,0
352,-1.0,-247.0,7.0,0
353,-7.0,-246.0,12.0,0
354,-5.0,-250.0,7.0,0
355,-3.0,-249.0,11.0,0
356,-6.0,-246.0,5.0,0
357,-1.0,-249.0,13.0,0
358,-3.0,-251.0,8.0,0
359,-5.0,-249.0,9.0,0
360,-4.0,-249.0,7.0,0
361,-7.0,-250.0,8.0,0
362,-2.0,-249.0,9.0,0
363,-5.0,-248.0,11.0,0
364,-3.0,-249.0,8.0,0
365,-2.0,-250.0,10.0,0
366,-6.0,-249.0,5.0,0
367,-2.0,-247.0,7.0,0
368,-4.0,-247.0,8.0,0
369,-6.0,-247.0,9.0,0
370,-3.0,-250.0,6.0,0
371,-3.0,-250.0,8.0,0
372,-5.0,-248.0,6.0,0
373,-2.0,-249.0,9.0,0
374,-6.0,-246.0,4.0,0
375,-6.0,-245.0,9.0,0
376,-1.0,-252.0,9.0,0
377,-1.0,-249.0,10.0,0
378,-2.0,-248.0,13.0,0
379,-1.0,-249.0,11.0,0
380,-1.0,-244.0,7.0,0
381,0.0,-252.0,10.0,0
382,-3.0,-247.0,9.0,0
383,-1.0,-246.0,9.0,0
384,-4.0,-249.0,8.0,0
385,0.0,-248.0,7.0,0
386,0.0,-249.0,8.0,0
387,-5.0,-247.0,12.0,0
388,-3.0,-251.0,7.0,0
389,-5.0,-247.0,5.0,0
390,-4.0,-247.0,6.0,0
391,-4.0,-248.0,6.0,0
392,-2.0,-247.0,4.0,0
393,-4.0,-249.0,7.0,0
394,-4.0,-248.0,7.0,0
395,-7.0,-249.0,10.0,0
396,-10.0,-246.0,10.0,0
397,-4.0,-248.0,6.0,0
398,-5.0,-244.0,6.0,0
399,-3.0,-242.0,1.0,0
400,-5.0,-246.0,6.0,0
401,-4.0,-248.0,8.0,0
402,-8.0,-242.0,10.0,0
403,-3.0,-248.0,6.0,0
404,-5.0,-247.0,9.0,0
405,-7.0,-246.0,6.0,0
406,-3.0,-247.0,5.0,0
407,-5.0,-248.0,8.0,0
408,-5.0,-248.0,11.0,0
409,-6.0,-248.0,8.0,0
410,-3.0,-249.0,11.0,0
411,-6.0,-248.0,8.0,0
412,-7.0,-249.0,6.0,0
413,-8.0,-246.0,5.0,0
414,-4.0,-246.0,8.0,0
415,-6.0,-249.0,6.0,0
416,-8.0,-243.0,7.0,0
417,-7.0,-247.0,5.0,0
418,-6.0,-249.0,10.0,0
419,-7.0,-244.0,6.0,0
420,-2.0,-253.0,14.0,0
421,-11.0,-248.0,9.0,0
422,-6.0,-248.0,7.0,0
423,-7.0,-249.0,10.0,0
424,-6.0,-248.0,6.0,0
425,-4.0,-247.0,8.0,0
426,-7.0,-251.0,8.0,0
427,-5.0,-251.0,4.0,0
428,-2.0,-248.0,7.0,0
429,-5.0,-248.0,5.0,0
430,-1.0,-247.0,8.0,0
431,-2.0,-255.0,7.0,0
432,-6.0,-250.0,3.0,0
433,-7.0,-250.0,9.0,0
434,-6.0,-244.0,5.0,0
435,-6.0,-250.0,4.0,0
436,-5.0,-249.0,7.0,0
437,-5.0,-248.0,7.0,0
438,-6.0,-252.0,4.0,0
439,-5.0,-251.0,9.0,0
440,-8.0,-250.0,5.0,0
441,-5.0,-252.0,10.0,0
442,3.0,-251.0,4.0,0
443,-2.0,-247.0,9.0,0
444,-6.0,-247.0,5.0,0
445,-3.0,-247.0,5.0,0
446,0.0,-250.0,5.0,0
447,0.0,-249.0,4.0,0
448,-1.0,-248.0,4.0,0
449,-1.0,-251.0,6.0,0
450,-5.0,-248.0,6.0,0
451,-6.0,-247.0,6.0,0
452,-9.0,-245.0,3.0,0
453,-5.0,-249.0,13.0,0
454,-7.0,-248.0,9.0,0
455,-10.0,-249.0,8.0,0
456,-6.0,-251.0,8.0,0
457,-8.0,-249.0,7.0,0
458,-8.0,-250.0,11.0,0
459,-8.0,-249.0,10.0,0
460,-8.0,-249.0,7.0,0
461,-6.0,-249.0,8.0,0
462,-6.0,-249.0,7.0,0
463,-5.0,-248.0,5.0,0
464,-7.0,-249.0,9.0,0
465,-6.0,-247.0,7.0,0
466,-5.0,-251.0,11.0,0
467,-6.0,-248.0,10.0,0
468,-3.0,-248.0,10.0,0
469,-5.0,-243.0,11.0,0
470,-5.0,-248.0,12.0,0
471,-3.0,-245.0,7.0,0
472,-2.0,-247.0,12.0,0
473,0.0,-250.0,7.0,0
474,0.0,-245.0,7.0,0
475,-4.0,-249.0,11.0,0
476,-5.0,-248.0,13.0,0
477,-2.0,-246.0,14.0,0
478,-3.0,-250.0,14.0,0
479,0.0,-250.0,8.0,0
480,-2.0,-251.0,6.0,0
481,-1.0,-246.0,12.0,0
482,-3.0,-251.0,8.0,0
483,-7.0,-247.0,7.0,0
484,-6.0,-246.0,10.0,0
485,-5.0,-249.0,23.0,0
486,-9.0,-247.0,9.0,0
487,-4.0,-248.0,9.0,0
488,-10.0,-246.0,11.0,0
489,-8.0,-246.0,7.0,0
490,-9.0,-248.0,12.0,0
491,-9.0,-247.0,9.0,0
492,-9.0,-252.0,11.0,0
493,-6.0,-248.0,8.0,0
494,-9.0,-247.0,14.0,0
495,-14.0,-247.0,10.0,0
496,-10.0,-250.0,8.0,0
497,-10.0,-248.0,8.0,0
498,-4.0,-250.0,8.0,0
499,-6.0,-248.0,11.0,0
500,-3.0,-250.0,9.0,0
501,-7.0,-248.0,13.0,0
502,-6.0,-246.0,13.0,0
503,-6.0,-248.0,5.0,0
504,-9.0,-246.0,11.0,0
505,-11.0,-248.0,8.0,0
506,-6.0,-248.0,6.0,0
507,-7.0,-248.0,8.0,0
508,-10.0,-245.0,8.0,0
509,-8.0,-247.0,9.0,0
510,-10.0,-246.0,10.0,0
511,-8.0,-243.0,8.0,0
512,-9.0,-249.0,6.0,0
513,-12.0,-246.0,10.0,0
514,-5.0,-249.0,13.0,0
515,-5.0,-249.0,8.0,0
516,-2.0,-251.0,12.0,0
517,-7.0,-244.0,7.0,0
518,-8.0,-251.0,6.0,0
519,-8.0,-246.0,9.0,0
520,-7.0,-249.0,12.0,0
521,-5.0,-246.0,9.0,0
522,-9.0,-249.0,9.0,0
523,-12.0,-244.0,8.0,0
524,-9.0,-249.0,14.0,0
525,-8.0,-248.0,14.0,0
526,-10.0,-250.0,15.0,0
527,-17.0,-247.0,15.0,0
528,-9.0,-249.0,11.0,0
529,-12.0,-249.0,13.0,0
530,-11.0,-252.0,11.0,0
531,-13.0,-249.0,13.0,0
532,-10.0,-252.0,13.0,0
533,-9.0,-249.0,13.0,0
534,-10.0,-248.0,15.0,0
535,-7.0,-245.0,13.0,0
536,-9.0,-251.0,14.0,0
537,-6.0,-248.0,16.0,0
538,-2.0,-245.0,13.0,0
539,-11.0,-247.0,14.0,0
540,-5.0,-249.0,12.0,0
541,-10.0,-248.0,13.0,0
542,-8.0,-247.0,11.0,0
543,-12.0,-249.0,9.0,0
544,-11.0,-248.0,12.0,0
545,-11.0,-247.0,14.0,0
546,-12.0,-244.0,11.0,0
547,-11.0,-247.0,16.0,0
548,-12.0,-246.0,14.0,0
549,-20.0,-253.0,11.0,0
550,-13.0,-246.0,15.0,0
551,-13.0,-247.0,16.0,0
552,-12.0,-247.0,13.0,0
553,-11.0,-247.0,15.0,0
554,-13.0,-247.0,12.0,0
555,-14.0,-241.0,15.0,0
556,-17.0,-243.0,15.0,0
557,-13.0,-247.0,11.0,0
558,-13.0,-245.0,12.0,0
559,-14.0,-240.0,17.0,0
560,-13.0,-246.0,14.0,0
561,-13.0,-245.0,15.0,0
562,-15.0,-244.0,16.0,0
563,-16.0,-245.0,12.0,0
564,-11.0,-247.0,17.0,0
565,-14.0,-245.0,14.0,0
566,-14.0,-242.0,12.0,0
567,-13.0,-245.0,12.0,0
568,-16.0,-246.0,17.0,0
569,-11.0,-246.0,15.0,0
570,-7.0,-248.0,13.0,0
571,-12.0,-248.0,14.0,0
572,-15.0,-248.0,17.0,0
573,-12.0,-246.0,7.0,0
574,-12.0,-245.0,13.0,0
575,-11.0,-246.0,11.0,0
576,-12.0,-249.0,12.0,0
577,-14.0,-248.0,18.0,0
578,-13.0,-248.0,15.0,0
579,-12.0,-249.0,13.0,0
580,-14.0,-243.0,15.0,0
581,-15.0,-245.0,13.0,0
582,-12.0,-245.0,13.0,0
583,-14.0,-243.0,13.0,0
584,-12.0,-248.0,14.0,0
585,-13.0,-249.0,15.0,0
586,-12.0,-246.0,12.0,0
587,-11.0,-249.0,11.0,0
588,-13.0,-246.0,13.0,0
589,-11.0,-251.0,11.0,0
590,-11.0,-248.0,19.0,0
591,-15.0,-244.0,17.0,0
592,-11.0,-249.0,14.0,0
593,-14.0,-245.0,13.0,0
594,-8.0,-245.0,13.0,0
595,-11.0,-247.0,14.0,0
596,-6.0,-249.0,14.0,0
597,-12.0,-246.0,11.0,0
598,-10.0,-250.0,16.0,0
599,-11.0,-246.0,18.0,0
600,-9.0,-244.0,11.0,0
601,-11.0,-248.0,12.0,0
602,-7.0,-250.0,18.0,0
603,-8.0,-248.0,13.0,0
604,-11.0,-247.0,8.0,0
605,-9.0,-248.0,12.0,0
606,-10.0,-248.0,12.0,0
607,-11.0,-250.0,14.0,0
608,-12.0,-245.0,13.0,0
609,-13.0,-249.0,7.0,0
610,-11.0,-247.0,12.0,0
611,-10.0,-249.0,14.0,0
612,-13.0,-245.0,9.0,0
613,-8.0,-240.0,8.0,0
614,-6.0,-248.0,13.0,0
615,-10.0,-247.0,11.0,0
616,-11.0,-244.0,9.0,0
617,-9.0,-247.0,9.0,0
618,-9.0,-247.0,12.0,0
619,-7.0,-249.0,7.0,0
620,-7.0,-246.0,9.0,0
621,-8.0,-246.0,10.0,0
622,-11.0,-246.0,14.0,0
623,-16.0,-248.0,3.0,0
624,-8.0,-249.0,7.0,0
625,-11.0,-250.0,10.0,0
626,-11.0,-248.0,11.0,0
627,-11.0,-246.0,12.0,0
628,-11.0,-248.0,12.0,0
629,-11.0,-247.0,13.0,0
630,-13.0,-246.0,6.0,0
631,-9.0,-249.0,9.0,0
632,-11.0,-249.0,8.0,0
633,-7.0,-250.0,14.0,0
634,-8.0,-250.0,16.0,0
635,-8.0,-248.0,13.0,0
636,-8.0,-243.0,9.0,0
637,-8.0,-247.0,7.0,0
638,-13.0,-247.0,14.0,0
639,-8.0,-247.0,7.0,0
640,-6.0,-246.0,10.0,0
641,-11.0,-243.0,11.0,0
642,-8.0,-247.0,12.0,0
643,-5.0,-246.0,11.0,0
644,-6.0,-250.0,7.0,0
645,-1.0,-249.0,10.0,0
646,-9.0,-249.0,11.0,0
647,-8.0,-248.0,8.0,0
648,-8.0,-249.0,9.0,0
649,-11.0,-250.0,7.0,0
650,-8.0,-249.0,10.0,0
651,-11.0,-249.0,7.0,0
652,-8.0,-247.0,9.0,0
653,-5.0,-249.0,8.0,0
654,-8.0,-247.0,14.0,0
655,-6.0,-252.0,3.0,0
656,-5.0,-247.0,8.0,0
657,-5.0,-253.0,6.0,0
658,-7.0,-248.0,11.0,0
659,-6.0,-247.0,9.0,0
660,-6.0,-250.0,8.0,0
661,-9.0,-246.0,10.0,0
662,-4.0,-247.0,14.0,0
663,-8.0,-247.0,10.0,0
664,-10.0,-248.0,5.0,0
665,-6.0,-247.0,7.0,0
666,-10.0,-250.0,7.0,0
667,-7.0,-247.0,9.0,0
668,-4.0,-248.0,8.0,0
669,-4.0,-249.0,6.0,0
670,0.0,-249.0,9.0,0
671,-2.0,-246.0,9.0,0
672,-3.0,-249.0,11.0,0
673,-5.0,-245.0,9.0,0
674,-3.0,-246.0,9.0,0
675,-5.0,-246.0,6.0,0
676,-1.0,-246.0,5.0,0
677,-2.0,-248.0,9.0,0
678,-3.0,-246.0,4.0,0
679,-1.0,-249.0,6.0,0
680,0.0,-246.0,7.0,0
681,0.0,-245.0,6.0,0
682,-2.0,-246.0,6.0,0
683,-2.0,-245.0,3.0,0
684,0.0,-250.0,1.0,0
685,0.0,-251.0,5.0,0
686,1.0,-248.0,-3.0,0
687,-1.0,-245.0,7.0,0
688,0.0,-248.0,5.0,0
689,0.0,-251.0,6.0,0
690,0.0,-250.0,7.0,0
691,0.0,-249.0,5.0,0
692,-1.0,-247.0,8.0,0
693,0.0,-247.0,3.0,0
694,-2.0,-249.0,5.0,0
695,-2.0,-253.0,4.0,0
696,-3.0,-248.0,5.0,0
697,-1.0,-252.0,7.0,0
698,-1.0,-243.0,6.0,0
699,-3.0,-242.0,9.0,0
700,-1.0,-249.0,4.0,0
701,-3.0,-247.0,7.0,0
702,-1.0,-248.0,5.0,0
703,-3.0,-246.0,4.0,0
704,0.0,-249.0,4.0,0
705,0.0,-250.0,3.0,0
706,0.0,-248.0,3.0,0
707,-1.0,-246.0,3.0,0
708,0.0,-247.0,3.0,0
709,1.0,-247.0,4.0,0
710,-1.0,-247.0,8.0,0
711,-1.0,-249.0,4.0,0
712,0.0,-248.0,4.0,0
713,0.0,-250.0,1.0,0
714,-1.0,-250.0,2.0,0
715,-1.0,-247.0,5.0,0
716,1.0,-248.0,8.0,0
717,-4.0,-248.0,5.0,0
718,0.0,-248.0,2.0,0
719,-2.0,-253.0,0.0,0
720,0.0,-249.0,3.0,0
721,0.0,-248.0,1.0,0
722,-2.0,-245.0,2.0,0
723,-2.0,-246.0,2.0,0
724,0.0,-248.0,1.0,0
725,-1.0,-247.0,0.0,0
726,-3.0,-251.0,0.0,0
727,0.0,-249.0,0.0,0
728,-2.0,-247.0,0.0,0
729,0.0,-248.0,-2.0,0
730,3.0,-249.0,0.0,0
731,-4.0,-248.0,2.0,0
732,-3.0,-247.0,0.0,0
733,-4.0,-247.0,1.0,0
734,0.0,-249.0,0.0,0
735,-4.0,-247.0,3.0,0
736,0.0,-251.0,-2.0,0
737,0.0,-249.0,-1.0,0
738,-4.0,-246.0,-2.0,0
739,-4.0,-248.0,0.0,0
740,-5.0,-245.0,0.0,0
741,-4.0,-249.0,5.0,0
742,-3.0,-243.0,0.0,0
743,0.0,-247.0,-2.0,0
744,-4.0,-244.0,-1.0,0
745,0.0,-245.0,0.0,0
746,1.0,-247.0,-1.0,0
747,-1.0,-247.0,1.0,0
748,2.0,-249.0,2.0,0
749,0.0,-247.0,-1.0,0
750,-1.0,-248.0,-3.0,0
751,-1.0,-243.0,-2.0,0
752,3.0,-249.0,1.0,0
753,0.0,-246.0,-3.0,0
754,1.0,-249.0,-2.0,0
755,1.0,-250.0,-2.0,0
756,3.0,-250.0,-6.0,0
757,3.0,-248.0,-3.0,0
758,0.0,-253.0,-5.0,0
759,3.0,-252.0,-3.0,0
760,1.0,-252.0,-1.0,0
761,0.0,-249.0,-6.0,0
762,-1.0,-253.0,-10.0,0
763,-1.0,-247.0,-1.0,0
764,1.0,-252.0,-2.0,0
765,-1.0,-245.0,-2.0,0
766,1.0,-248.0,-7.0,0
767,0.0,-246.0,-7.0,0
768,0.0,-247.0,-6.0,0
769,1.0,-249.0,-8.0,0
770,1.0,-249.0,-4.0,0
771,1.0,-246.0,-5.0,0
772,0.0,-245.0,-5.0,0
773,9.0,-248.0,-3.0,0
774,2.0,-244.0,-5.0,0
775,3.0,-245.0,-1.0,0
776,3.0,-246.0,0.0,0
777,3.0,-243.0,-3.0,0
778,8.0,-245.0,-2.0,0
779,1.0,-243.0,-3.0,0
780,4.0,-246.0,-4.0,0
781,8.0,-247.0,-5.0,0
782,7.0,-248.0,-9.0,0
783,6.0,-247.0,-2.0,0
784,2.0,-250.0,-5.0,0
785,4.0,-248.0,-4.0,0
786,7.0,-251.0,-4.0,0
787,4.0,-249.0,-8.0,0
788,4.0,-249.0,-7.0,0
789,7.0,-252.0,-6.0,0
790,5.0,-251.0,-2.0,0
791,8.0,-252.0,-4.0,0
792,6.0,-249.0,-4.0,0
793,7.0,-252.0,-5.0,0
794,7.0,-243.0,-3.0,0
795,8.0,-249.0,-5.0,0
796,7.0,-249.0,-7.0,0
797,8.0,-245.0,-8.0,0
798,9.0,-249.0,-6.0,0
799,11.0,-248.0,-1.0,0
800,7.0,-245.0,-5.0,0
801,13.0,-251.0,-8.0,0
802,3.0,-244.0,-8.0,0
803,7.0,-248.0,-9.0,0
804,6.0,-245.0,-12.0,0
805,1.0,-250.0,-10.0,0
806,8.0,-247.0,-2.0,0
807,4.0,-247.0,-8.0,0
808,5.0,-247.0,-7.0,0
809,7.0,-248.0,-8.0,0
810,7.0,-248.0,-8.0,0
811,7.0,-251.0,-9.0,0
812,7.0,-247.0,-3.0,0
813,7.0,-250.0,-10.0,0
814,9.0,-250.0,-9.0,0
815,6.0,-250.0,-11.0,0
816,11.0,-248.0,-13.0,0
817,10.0,-247.0,-11.0,0
818,10.0,-244.0,-10.0,0
819,10.0,-242.0,-13.0,0
820,9.0,-244.0,-9.0,0
821,11.0,-243.0,-14.0,0
822,12.0,-243.0,-16.0,0
823,7.0,-245.0,-16.0,0
824,8.0,-246.0,-18.0,0
825,10.0,-251.0,-18.0,0
826,6.0,-251.0,-18.0,0
827,11.0,-247.0,-16.0,0
828,14.0,-251.0,-14.0,0
829,17.0,-250.0,-13.0,0
830,21.0,-249.0,-15.0,0
831,26.0,-249.0,-14.0,0
832,24.0,-252.0,-13.0,0
833,23.0,-246.0,-11.0,0
834,25.0,-248.0,-12.0,0
835,24.0,-254.0,-8.0,0
836,27.0,-251.0,-6.0,0
837,32.0,-255.0,-15.0,0
838,32.0,-256.0,-12.0,0
839,31.0,-259.0,-16.0,0
840,31.0,-255.0,-18.0,0
841,29.0,-255.0,-20.0,0
842,32.0,-256.0,-23.0,0
843,31.0,-257.0,-27.0,0
844,30.0,-256.0,-23.0,0
845,30.0,-255.0,-22.0,0
846,27.0,-254.0,-17.0,0
847,23.0,-258.0,-19.0,0
848,22.0,-255.0,-18.0,0
849,22.0,-252.0,-15.0,0
850,19.0,-251.0,-11.0,0
851,21.0,-253.0,-13.0,0
852,18.0,-252.0,-12.0,0
853,22.0,-253.0,-8.0,0
854,23.0,-253.0,-5.0,0
855,20.0,-252.0,-4.0,0
856,18.0,-249.0,-5.0,0
857,20.0,-249.0,-8.0,0
858,16.0,-246.0,-3.0,0
859,20.0,-246.0,-1.0,0
860,18.0,-242.0,-1.0,0
861,20.0,-241.0,1.0,0
862,20.0,-243.0,1.0,0
863,14.0,-238.0,-2.0,0
864,18.0,-239.0,-2.0,0
865,25.0,-240.0,1.0,0
866,21.0,-239.0,-5.0,0
867,20.0,-243.0,-2.0,0
868,20.0,-238.0,-4.0,0
869,19.0,-246.0,1.0,0
870,17.0,-240.0,-1.0,0
871,20.0,-244.0,-1.0,0
872,23.0,-245.0,-2.0,0
873,23.0,-248.0,-1.0,0
874,25.0,-248.0,-1.0,0
875,26.0,-249.0,-2.0,0
876,28.0,-250.0,-7.0,0
877,29.0,-246.0,-9.0,0
878,30.0,-253.0,-10.0,0
879,30.0,-246.0,-5.0,0
880,35.0,-253.0,-9.0,0
881,34.0,-252.0,-9.0,0
882,33.0,-250.0,-10.0,0
883,30.0,-251.0,-3.0,0
884,33.0,-250.0,-7.0,0
885,35.0,-249.0,-2.0,0
886,34.0,-250.0,-6.0,0
887,34.0,-253.0,-2.0,0
888,31.0,-248.0,-1.0,0
889,35.0,-249.0,-5.0,0
890,26.0,-241.0,-4.0,0
891,33.0,-244.0,-3.0,0
892,33.0,-243.0,-4.0,0
893,33.0,-243.0,-1.0,0
894,30.0,-244.0,0.0,0
895,31.0,-248.0,1.0,0
896,27.0,-244.0,0.0,0
897,28.0,-241.0,3.0,0
898,33.0,-244.0,0.0,0
899,27.0,-241.0,-1.0,0
900,28.0,-242.0,0.0,0
901,31.0,-239.0,-1.0,0
902,26.0,-236.0,1.0,0
903,23.0,-237.0,1.0,0
904,23.0,-234.0,0.0,0
905,23.0,-238.0,5.0,0
906,23.0,-238.0,2.0,0
907,24.0,-240.0,-3.0,0
908,16.0,-239.0,2.0,0
909,23.0,-244.0,2.0,0
910,20.0,-244.0,1.0,0
911,26.0,-247.0,-2.0,0
912,19.0,-246.0,-4.0,0
913,19.0,-250.0,1.0,0
914,21.0,-249.0,0.0,0
915,23.0,-248.0,-2.0,0
916,18.0,-248.0,0.0,0
917,20.0,-246.0,-2.0,0
918,22.0,-247.0,0.0,0
919,20.0,-244.0,2.0,0
920,21.0,-243.0,-4.0,0
921,21.0,-243.0,-1.0,0
922,29.0,-246.0,6.0,0
923,20.0,-246.0,6.0,0
924,22.0,-252.0,10.0,0
925,16.0,-255.0,11.0,0
926,17.0,-255.0,11.0,0
927,12.0,-259.0,13.0,0
928,10.0,-262.0,8.0,0
929,5.0,-266.0,3.0,0
930,4.0,-260.0,-5.0,0
931,6.0,-261.0,-5.0,0
932,13.0,-265.0,-18.0,0
933,16.0,-266.0,-20.0,0
934,23.0,-270.0,-25.0,0
935,34.0,-273.0,-29.0,0
936,32.0,-273.0,-32.0,0
937,34.0,-285.0,-30.0,0
938,32.0,-286.0,-26.0,0
939,22.0,-286.0,-18.0,0
940,22.0,-286.0,-14.0,0
941,15.0,-288.0,-4.0,0
942,3.0,-278.0,2.0,0
943,-2.0,-279.0,-3.0,0
944,-18.0,-268.0,2.0,0
945,-18.0,-268.0,2.0,0
946,-24.0,-263.0,9.0,0
947,-29.0,-256.0,12.0,0
948,-35.0,-251.0,18.0,0
949,-37.0,-245.0,10.0,0
950,-36.0,-245.0,10.0,0
951,-36.0,-236.0,10.0,0
952,-24.0,-233.0,3.0,0
953,-17.0,-224.0,1.0,0
954,-12.0,-211.0,3.0,0
955,-1.0,-206.0,-3.0,0
956,2.0,-196.0,-5.0,0
957,8.0,-192.0,-10.0,0
958,17.0,-191.0,-9.0,0
959,25.0,-190.0,-11.0,0
960,34.0,-192.0,-12.0,0
961,37.0,-198.0,-4.0,0
962,45.0,-207.0,-6.0,0
963,47.0,-216.0,-1.0,0
964,50.0,-218.0,2.0,0
965,51.0,-221.0,-8.0,0
966,48.0,-237.0,0.0,0
967,51.0,-247.0,1.0,0
968,47.0,-253.0,-1.0,0
969,41.0,-256.0,0.0,0
970,37.0,-261.0,-5.0,0
971,30.0,-263.0,-5.0,0
972,24.0,-267.0,0.0,0
973,12.0,-263.0,1.0,0
974,7.0,-260.0,-4.0,0
975,1.0,-264.0,-4.0,0
976,-5.0,-254.0,-3.0,0
977,-8.0,-257.0,-1.0,0
978,-11.0,-258.0,-2.0,0
979,-16.0,-255.0,-1.0,0
980,-24.0,-256.0,1.0,0
981,-28.0,-254.0,3.0,0
982,-24.0,-252.0,3.0,0
983,-24.0,-252.0,5.0,0
984,-17.0,-253.0,7.0,0
985,-20.0,-248.0,0.0,0
986,-20.0,-244.0,1.0,0
987,-21.0,-244.0,-3.0,0
988,-19.0,-241.0,3.0,0
989,-15.0,-239.0,-5.0,0
990,-5.0,-239.0,-5.0,0
991,-1.0,-238.0,-7.0,0
992,1.0,-241.0,-7.0,0
993,1.0,-243.0,-1.0,0
994,3.0,-245.0,-4.0,0
995,1.0,-242.0,2.0,0
996,2.0,-244.0,0.0,0
997,-1.0,-247.0,3.0,0
998,1.0,-247.0,1.0,0
999,1.0,-249.0,-1.0,0
1000,0.0,-246.0,2.0,0
1001,0.0,-250.0,2.0,0
1002,-1.0,-247.0,1.0,0
1003,-1.0,-251.0,-3.0,0
1004,-6.0,-253.0,1.0,0
1005,-2.0,-253.0,0.0,0
1006,-8.0,-254.0,0.0,0
1007,-8.0,-255.0,0.0,0
1008,-12.0,-260.0,1.0,0
1009,-10.0,-251.0,0.0,0
1010,-9.0,-254.0,-1.0,0
1011,-8.0,-253.0,-5.0,0
1012,-5.0,-251.0,-5.0,0
1013,-4.0,-248.0,-4.0,0
1014,-1.0,-247.0,-8.0,0
1015,0.0,-243.0,-2.0,0
1016,3.0,-243.0,-6.0,0
1017,0.0,-241.0,-7.0,0
1018,7.0,-239.0,-4.0,0
1019,3.0,-239.0,-4.0,0
1020,8.0,-241.0,-4.0,0
1021,12.0,-244.0,-3.0,0
1022,11.0,-241.0,-1.0,0
1023,8.0,-242.0,0.0,0
1024,8.0,-243.0,0.0,0
1025,10.0,-248.0,-1.0,0
1026,10.0,-249.0,-1.0,0
1027,9.0,-250.0,0.0,0
1028,5.0,-249.0,-3.0,0
1029,3.0,-248.0,0.0,0
1030,2.0,-249.0,1.0,0
1031,0.0,-252.0,1.0,0
1032,0.0,-248.0,0.0,0
1033,-6.0,-246.0,4.0,0
1034,-8.0,-245.0,2.0,0
1035,-14.0,-240.0,3.0,0
1036,-14.0,-244.0,-3.0,0
1037,-14.0,-242.0,5.0,0
1038,-19.0,-241.0,1.0,0
1039,-15.0,-245.0,2.0,0
1040,-24.0,-248.0,-2.0,0
1041,-17.0,-244.0,-2.0,0
1042,-23.0,-241.0,0.0,0
1043,-26.0,-245.0,2.0,0
1044,-22.0,-249.0,1.0,0
1045,-23.0,-250.0,1.0,0
1046,-24.0,-252.0,4.0,0
1047,-25.0,-257.0,0.0,0
1048,-17.0,-257.0,-9.0,0
1049,-16.0,-257.0,-6.0,0
1050,-11.0,-259.0,-10.0,0
1051,-9.0,-271.0,-14.0,0
1052,-9.0,-264.0,-13.0,0
1053,-13.0,-263.0,-10.0,0
1054,-12.0,-263.0,-6.0,0
1055,-10.0,-260.0,1.0,0
1056,-11.0,-257.0,2.0,0
1057,-10.0,-259.0,7.0,0
1058,-11.0,-255.0,11.0,0
1059,-13.0,-257.0,9.0,0
1060,-17.0,-255.0,12.0,0
1061,-12.0,-257.0,13.0,0
1062,-13.0,-257.0,25.0,0
1063,-15.0,-255.0,14.0,0
1064,-16.0,-257.0,17.0,0
1065,-19.0,-255.0,14.0,0
1066,-17.0,-256.0,10.0,0
1067,-16.0,-256.0,4.0,0
1068,-11.0,-254.0,3.0,0
1069,-17.0,-254.0,6.0,0
1070,-14.0,-255.0,7.0,0
1071,-14.0,-253.0,3.0,0
1072,-15.0,-253.0,3.0,0
1073,-13.0,-252.0,8.0,0
1074,-14.0,-249.0,6.0,0
1075,-19.0,-251.0,10.0,0
1076,-20.0,-252.0,12.0,0
1077,-19.0,-253.0,16.0,0
1078,-18.0,-257.0,13.0,0
1079,-21.0,-254.0,17.0,0
1080,-26.0,-258.0,17.0,0
1081,-26.0,-259.0,17.0,0
1082,-25.0,-257.0,15.0,0
1083,-31.0,-256.0,11.0,0
1084,-28.0,-258.0,18.0,0
1085,-30.0,-256.0,16.0,0
1086,-27.0,-255.0,15.0,0
1087,-28.0,-250.0,15.0,0
1088,-30.0,-250.0,16.0,0
1089,-31.0,-244.0,16.0,0
1090,-27.0,-244.0,17.0,0
1091,-26.0,-243.0,13.0,0
1092,-24.0,-245.0,11.0,0
1093,-25.0,-239.0,15.0,0
1094,-20.0,-247.0,14.0,0
1095,-19.0,-244.0,8.0,0
1096,-20.0,-244.0,6.0,0
1097,-20.0,-247.0,4.0,0
1098,-21.0,-243.0,5.0,0
1099,-25.0,-244.0,2.0,0
1100,-25.0,-246.0,4.0,0
1101,-27.0,-246.0,3.0,0
1102,-29.0,-245.0,5.0,0
1103,-29.0,-250.0,6.0,0
1104,-31.0,-249.0,4.0,0
1105,-23.0,-254.0,7.0,0
1106,-31.0,-251.0,5.0,0
1107,-33.0,-246.0,6.0,0
1108,-33.0,-248.0,6.0,0
1109,-31.0,-249.0,3.0,0
1110,-34.0,-249.0,10.0,0
1111,-33.0,-253.0,8.0,0
1112,-34.0,-253.0,10.0,0
1113,-31.0,-255.0,13.0,0
1114,-34.0,-258.0,10.0,0
1115,-30.0,-258.0,11.0,0
1116,-31.0,-257.0,12.0,0
1117,-31.0,-254.0,11.0,0
1118,-33.0,-255.0,10.0,0
1119,-36.0,-251.0,10.0,0
1120,-36.0,-252.0,13.0,0
1121,-36.0,-248.0,12.0,0
1122,-34.0,-250.0,9.0,0
1123,-38.0,-244.0,11.0,0
1124,-41.0,-241.0,12.0,0
1125,-43.0,-242.0,13.0,0
1126,-48.0,-236.0,10.0,0
1127,-43.0,-241.0,18.0,0
1128,-43.0,-243.0,16.0,0
1129,-45.0,-243.0,16.0,0
1130,-47.0,-242.0,21.0,0
1131,-43.0,-247.0,20.0,0
1132,-47.0,-248.0,19.0,0
1133,-44.0,-250.0,17.0,0
1134,-44.0,-254.0,17.0,0
1135,-42.0,-250.0,16.0,0
1136,-41.0,-258.0,18.0,0
1137,-41.0,-256.0,9.0,0
1138,-31.0,-255.0,10.0,0
1139,-32.0,-255.0,12.0,0
1140,-33.0,-254.0,16.0,0
1141,-31.0,-253.0,14.0,0
1142,-35.0,-251.0,13.0,0
1143,-32.0,-249.0,19.0,0
1144,-30.0,-247.0,22.0,0
1145,-35.0,-244.0,22.0,0
1146,-34.0,-243.0,25.0,0
1147,-44.0,-245.0,29.0,0
1148,-38.0,-244.0,31.0,0
1149,-44.0,-243.0,29.0,0
1150,-47.0,-241.0,31.0,0
1151,-52.0,-240.0,32.0,0
1152,-52.0,-242.0,36.0,0
1153,-55.0,-239.0,31.0,0
1154,-63.0,-241.0,32.0,0
1155,-61.0,-236.0,35.0,0
1156,-62.0,-235.0,31.0,0
1157,-57.0,-234.0,24.0,0
1158,-65.0,-226.0,14.0,0
1159,-62.0,-232.0,17.0,0
1160,-61.0,-230.0,15.0,0
1161,-60.0,-227.0,19.0,0
1162,-58.0,-227.0,15.0,0
1163,-58.0,-228.0,19.0,0
1164,-56.0,-228.0,23.0,0
1165,-58.0,-230.0,21.0,0
1166,-56.0,-232.0,28.0,0
1167,-55.0,-233.0,28.0,0
1168,-51.0,-234.0,32.0,0
1169,-56.0,-229.0,35.0,0
1170,-59.0,-229.0,37.0,0
1171,-58.0,-228.0,35.0,0
1172,-63.0,-226.0,21.0,0
1173,-58.0,-225.0,24.0,0
1174,-61.0,-226.0,28.0,0
1175,-59.0,-225.0,30.0,0
1176,-64.0,-223.0,31.0,0
1177,-62.0,-227.0,34.0,0
1178,-59.0,-230.0,37.0,0
1179,-62.0,-230.0,39.0,0
1180,-55.0,-228.0,39.0,0
1181,-61.0,-227.0,48.0,0
1182,-58.0,-231.0,45.0,0
1183,-57.0,-231.0,42.0,0
1184,-56.0,-227.0,48.0,0
1185,-56.0,-225.0,46.0,0
1186,-56.0,-226.0,44.0,0
1187,-62.0,-224.0,39.0,0
1188,-58.0,-226.0,45.0,0
1189,-63.0,-222.0,42.0,0
1190,-61.0,-221.0,48.0,0
1191,-67.0,-221.0,43.0,0
1192,-59.0,-230.0,46.0,0
1193,-62.0,-223.0,45.0,0
1194,-63.0,-224.0,52.0,0
1195,-62.0,-225.0,55.0,0
1196,-62.0,-225.0,58.0,0
1197,-65.0,-223.0,60.0,0
1198,-67.0,-222.0,58.0,0
1199,-66.0,-225.0,63.0,0
1200,-70.0,-224.0,69.0,0
1201,-71.0,-227.0,67.0,0
1202,-73.0,-227.0,72.0,0
1203,-75.0,-224.0,64.0,0
1204,-75.0,-223.0,62.0,0
1205,-73.0,-223.0,60.0,0
1206,-73.0,-221.0,57.0,0
1207,-71.0,-217.0,55.0,0
1208,-76.0,-213.0,52.0,0
1209,-75.0,-215.0,49.0,0
1210,-75.0,-211.0,53.0,0
1211,-75.0,-213.0,56.0,0
1212,-73.0,-217.0,48.0,0
1213,-75.0,-216.0,61.0,0
1214,-78.0,-221.0,62.0,0
1215,-78.0,-225.0,65.0,0
1216,-79.0,-226.0,65.0,0
1217,-77.0,-226.0,63.0,0
1218,-74.0,-226.0,61.0,0
1219,-70.0,-229.0,60.0,0
1220,-66.0,-229.0,62.0,0
1221,-68.0,-224.0,64.0,0
1222,-71.0,-221.0,57.0,0
1223,-77.0,-213.0,59.0,0
1224,-82.0,-217.0,58.0,0
1225,-84.0,-215.0,61.0,0
1226,-87.0,-214.0,61.0,0
1227,-89.0,-212.0,58.0,0
1228,-88.0,-214.0,62.0,0
1229,-92.0,-219.0,60.0,0
1230,-98.0,-219.0,58.0,0
1231,-97.0,-220.0,56.0,0
1232,-100.0,-224.0,61.0,0
1233,-97.0,-226.0,57.0,0
1234,-95.0,-230.0,57.0,0
1235,-90.0,-228.0,57.0,0
1236,-89.0,-227.0,56.0,0
1237,-87.0,-229.0,48.0,0
1238,-87.0,-223.0,46.0,0
1239,-85.0,-221.0,45.0,0
1240,-84.0,-221.0,42.0,0
1241,-88.0,-218.0,39.0,0
1242,-84.0,-216.0,42.0,0
1243,-86.0,-213.0,40.0,0
1244,-83.0,-208.0,44.0,0
1245,-87.0,-202.0,41.0,0
1246,-80.0,-198.0,41.0,0
1247,-79.0,-195.0,40.0,0
1248,-77.0,-193.0,37.0,0
1249,-79.0,-186.0,42.0,0
1250,-78.0,-182.0,41.0,0
1251,-73.0,-181.0,39.0,0
1252,-73.0,-182.0,40.0,0
1253,-68.0,-180.0,50.0,0
1254,-73.0,-181.0,48.0,0
1255,-74.0,-182.0,47.0,0
1256,-70.0,-183.0,50.0,0
1257,-76.0,-181.0,56.0,0
1258,-79.0,-179.0,53.0,0
1259,-82.0,-175.0,51.0,0
1260,-81.0,-175.0,43.0,0
1261,-85.0,-176.0,40.0,0
1262,-90.0,-177.0,38.0,0
1263,-89.0,-184.0,43.0,0
1264,-94.0,-183.0,33.0,0
1265,-93.0,-187.0,38.0,0
1266,-93.0,-193.0,33.0,0
1267,-88.0,-205.0,36.0,0
1268,-93.0,-201.0,26.0,0
1269,-90.0,-207.0,28.0,0
1270,-85.0,-210.0,25.0,0
1271,-88.0,-212.0,29.0,0
1272,-90.0,-212.0,28.0,0
1273,-92.0,-209.0,30.0,0
1274,-93.0,-213.0,35.0,0
1275,-97.0,-209.0,46.0,0
1276,-109.0,-211.0,45.0,0
1277,-114.0,-210.0,46.0,0
1278,-124.0,-203.0,46.0,0
1279,-126.0,-200.0,47.0,0
1280,-125.0,-194.0,40.0,0
1281,-123.0,-189.0,36.0,0
1282,-116.0,-188.0,29.0,0
1283,-112.0,-180.0,27.0,0
1284,-108.0,-177.0,22.0,0
1285,-101.0,-178.0,17.0,0
1286,-96.0,-182.0,20.0,0
1287,-97.0,-181.0,20.0,0
1288,-94.0,-189.0,25.0,0
1289,-95.0,-198.0,22.0,0
1290,-91.0,-208.0,29.0,0
1291,-98.0,-214.0,18.0,0
1292,-104.0,-227.0,15.0,0
1293,-109.0,-233.0,6.0,0
1294,-107.0,-237.0,9.0,0
1295,-111.0,-244.0,3.0,0
1296,-110.0,-244.0,4.0,0
1297,-111.0,-240.0,1.0,0
1298,-103.0,-238.0,6.0,0
1299,-96.0,-233.0,17.0,0
1300,-88.0,-226.0,20.0,0
1301,-79.0,-221.0,15.0,0
1302,-73.0,-218.0,19.0,0
1303,-69.0,-219.0,21.0,0
1304,-65.0,-217.0,19.0,0
1305,-64.0,-221.0,21.0,0
1306,-62.0,-228.0,24.0,0
1307,-64.0,-237.0,26.0,0
1308,-65.0,-239.0,24.0,0
1309,-64.0,-242.0,25.0,0
1310,-67.0,-245.0,23.0,0
1311,-69.0,-242.0,26.0,0
1312,-71.0,-237.0,21.0,0
1313,-71.0,-235.0,22.0,0
1314,-78.0,-226.0,22.0,0
1315,-79.0,-220.0,24.0,0
1316,-85.0,-215.0,24.0,0
1317,-94.0,-209.0,32.0,0
1318,-98.0,-206.0,38.0,0
1319,-105.0,-203.0,35.0,0
1320,-106.0,-204.0,35.0,0
1321,-112.0,-210.0,26.0,0
1322,-111.0,-206.0,29.0,0
1323,-114.0,-209.0,26.0,0
1324,-114.0,-215.0,24.0,0
1325,-115.0,-218.0,24.0,0
1326,-114.0,-225.0,18.0,0
1327,-115.0,-228.0,12.0,0
1328,-118.0,-234.0,3.0,0
1329,-120.0,-230.0,-7.0,0
1330,-128.0,-231.0,-13.0,0
1331,-126.0,-235.0,-21.0,0
1332,-129.0,-237.0,-14.0,0
1333,-131.0,-230.0,-19.0,0
1334,-128.0,-237.0,-11.0,0
1335,-126.0,-243.0,6.0,0
1336,-123.0,-252.0,25.0,0
1337,-122.0,-258.0,40.0,0
1338,-113.0,-268.0,52.0,0
1339,-109.0,-277.0,59.0,0
1340,-92.0,-287.0,62.0,0
1341,-89.0,-295.0,47.0,0
1342,-82.0,-301.0,37.0,0
1343,-77.0,-309.0,18.0,0
1344,-70.0,-313.0,-9.0,0
1345,-68.0,-318.0,-31.0,0
1346,-61.0,-319.0,-39.0,0
1347,-57.0,-316.0,-55.0,0
1348,-59.0,-304.0,-53.0,0
1349,-63.0,-287.0,-44.0,0
1350,-71.0,-267.0,-31.0,0
1351,-78.0,-246.0,-16.0,0
1352,-85.0,-227.0,-1.0,0
1353,-97.0,-207.0,16.0,0
1354,-107.0,-196.0,21.0,0
1355,-108.0,-190.0,30.0,0
1356,-114.0,-188.0,34.0,0
1357,-117.0,-191.0,31.0,0
1358,-120.0,-191.0,27.0,0
1359,-112.0,-198.0,25.0,0
1360,-110.0,-198.0,18.0,0
1361,-103.0,-205.0,21.0,0
1362,-97.0,-210.0,17.0,0
1363,-99.0,-214.0,18.0,0
1364,-93.0,-209.0,17.0,0
1365,-98.0,-213.0,7.0,0
1366,-87.0,-214.0,8.0,0
1367,-87.0,-216.0,7.0,0
1368,-86.0,-218.0,3.0,0
1369,-83.0,-225.0,4.0,0
1370,-78.0,-229.0,2.0,0
1371,-76.0,-242.0,4.0,0
1372,-70.0,-252.0,3.0,0
1373,-69.0,-257.0,7.0,0
1374,-68.0,-264.0,8.0,0
1375,-74.0,-266.0,11.0,0
1376,-74.0,-270.0,6.0,0
1377,-81.0,-264.0,8.0,0
1378,-84.0,-263.0,4.0,0
1379,-87.0,-256.0,7.0,0
1380,-89.0,-250.0,9.0,0
1381,-94.0,-239.0,12.0,0
1382,-91.0,-232.0,17.0,0
1383,-95.0,-229.0,22.0,0
1384,-94.0,-227.0,17.0,0
1385,-96.0,-221.0,25.0,0
1386,-100.0,-218.0,24.0,0
1387,-95.0,-218.0,24.0,0
1388,-94.0,-216.0,17.0,0
1389,-91.0,-219.0,20.0,0
1390,-91.0,-221.0,15.0,0
1391,-93.0,-219.0,25.0,0
1392,-89.0,-227.0,24.0,0
1393,-90.0,-229.0,19.0,0
1394,-87.0,-229.0,22.0,0
1395,-89.0,-231.0,19.0,0
1396,-97.0,-232.0,20.0,0
1397,-85.0,-238.0,15.0,0
1398,-97.0,-240.0,19.0,0
1399,-100.0,-240.0,16.0,0
1400,-100.0,-248.0,17.0,0
1401,-98.0,-248.0,13.0,0
1402,-102.0,-244.0,21.0,0
1403,-101.0,-246.0,22.0,0
1404,-99.0,-246.0,19.0,0
1405,-88.0,-250.0,13.0,0
1406,-87.0,-250.0,15.0,0
1407,-80.0,-247.0,24.0,0
1408,-79.0,-249.0,12.0,0
1409,-86.0,-245.0,14.0,0
1410,-91.0,-236.0,15.0,0
1411,-89.0,-231.0,14.0,0
1412,-94.0,-228.0,13.0,0
1413,-94.0,-221.0,5.0,0
1414,-96.0,-219.0,7.0,0
1415,-102.0,-213.0,5.0,0
1416,-101.0,-216.0,1.0,0
1417,-103.0,-215.0,3.0,0
1418,-102.0,-218.0,1.0,0
1419,-97.0,-228.0,-1.0,0
1420,-93.0,-226.0,0.0,0
1421,-89.0,-229.0,-1.0,0
1422,-84.0,-235.0,-1.0,0
1423,-79.0,-237.0,5.0,0
1424,-83.0,-235.0,7.0,0
1425,-86.0,-232.0,21.0,0
1426,-87.0,-234.0,35.0,0
1427,-87.0,-229.0,42.0,0
1428,-96.0,-230.0,45.0,0
1429,-94.0,-234.0,60.0,0
1430,-100.0,-233.0,53.0,0
1431,-97.0,-236.0,54.0,0
1432,-97.0,-237.0,53.0,0
1433,-97.0,-240.0,49.0,0
1434,-92.0,-239.0,41.0,0
1435,-89.0,-241.0,36.0,0
1436,-82.0,-244.0,31.0,0
1437,-76.0,-248.0,29.0,0
1438,-76.0,-249.0,32.0,0
1439,-76.0,-250.0,27.0,0
1440,-68.0,-252.0,27.0,0
1441,-67.0,-254.0,27.0,0
1442,-71.0,-254.0,26.0,0
1443,-70.0,-255.0,29.0,0
1444,-74.0,-254.0,30.0,0
1445,-73.0,-254.0,35.0,0
1446,-75.0,-252.0,32.0,0
1447,-79.0,-247.0,33.0,0
1448,-79.0,-246.0,35.0,0
1449,-81.0,-242.0,37.0,0
1450,-80.0,-241.0,41.0,0
1451,-75.0,-248.0,36.0,0
1452,-77.0,-236.0,44.0,0
1453,-69.0,-232.0,40.0,0
1454,-70.0,-231.0,45.0,0
1455,-65.0,-228.0,43.0,0
1456,-63.0,-229.0,43.0,0
1457,-61.0,-227.0,44.0,0
1458,-63.0,-224.0,47.0,0
1459,-58.0,-230.0,44.0,0
1460,-60.0,-234.0,38.0,0
1461,-65.0,-227.0,36.0,0
1462,-60.0,-231.0,51.0,0
1463,-63.0,-230.0,41.0,0
1464,-60.0,-234.0,43.0,0
1465,-63.0,-236.0,47.0,0
1466,-59.0,-238.0,45.0,0
1467,-57.0,-240.0,45.0,0
1468,-54.0,-240.0,52.0,0
1469,-50.0,-243.0,50.0,0
1470,-52.0,-242.0,54.0,0
1471,-53.0,-236.0,55.0,0
1472,-51.0,-237.0,58.0,0
1473,-53.0,-239.0,63.0,0
1474,-51.0,-232.0,61.0,0
1475,-52.0,-236.0,63.0,0
1476,-54.0,-233.0,63.0,0
1477,-51.0,-233.0,66.0,0
1478,-50.0,-235.0,63.0,0
1479,-50.0,-240.0,64.0,0
1480,-46.0,-243.0,62.0,0
1481,-53.0,-242.0,62.0,0
1482,-54.0,-250.0,60.0,0
1483,-61.0,-246.0,59.0,0
1484,-61.0,-247.0,60.0,0
1485,-56.0,-246.0,61.0,0
1486,-51.0,-243.0,63.0,0
1487,-51.0,-241.0,62.0,0
1488,-45.0,-244.0,65.0,0
1489,-39.0,-243.0,63.0,0
1490,-35.0,-246.0,68.0,0
1491,-31.0,-245.0,67.0,0
1492,-38.0,-246.0,66.0,0
1493,-39.0,-246.0,70.0,0
1494,-39.0,-250.0,69.0,0
1495,-41.0,-248.0,75.0,0
1496,-49.0,-246.0,74.0,0
1497,-54.0,-242.0,72.0,0
1498,-59.0,-242.0,73.0,0
1499,-60.0,-240.0,71.0,0
1500,-59.0,-239.0,71.0,0
1501,-59.0,-243.0,68.0,0
1502,-57.0,-246.0,69.0,0
1503,-54.0,-250.0,71.0,0
1504,-51.0,-252.0,65.0,0
1505,-43.0,-260.0,69.0,0
1506,-38.0,-256.0,70.0,0
1507,-36.0,-260.0,64.0,0
1508,-32.0,-261.0,66.0,0
1509,-25.0,-264.0,66.0,0
1510,-19.0,-267.0,68.0,0
1511,-12.0,-268.0,68.0,0
1512,-11.0,-269.0,70.0,0
1513,-14.0,-265.0,71.0,0
1514,-6.0,-261.0,67.0,0
1515,-3.0,-258.0,63.0,0
1516,-6.0,-253.0,56.0,0
1517,-7.0,-246.0,60.0,0
1518,-8.0,-240.0,62.0,0
1519,-9.0,-231.0,61.0,0
1520,-6.0,-226.0,62.0,0
1521,-9.0,-221.0,61.0,0
1522,-8.0,-221.0,67.0,0
1523,-16.0,-217.0,66.0,0
1524,-13.0,-219.0,68.0,0
1525,-16.0,-225.0,71.0,0
1526,-27.0,-224.0,75.0,0
1527,-31.0,-231.0,78.0,0
1528,-31.0,-229.0,74.0,0
1529,-36.0,-234.0,78.0,0
1530,-34.0,-234.0,75.0,0
1531,-34.0,-238.0,72.0,0
1532,-34.0,-240.0,78.0,0
1533,-37.0,-242.0,80.0,0
1534,-41.0,-244.0,77.0,0
1535,-33.0,-247.0,77.0,0
1536,-25.0,-248.0,76.0,0
1537,-24.0,-253.0,80.0,0
1538,-19.0,-250.0,83.0,0
1539,-24.0,-252.0,85.0,0
1540,-19.0,-248.0,84.0,0
1541,-19.0,-244.0,81.0,0
1542,-17.0,-238.0,80.0,0
1543,-15.0,-235.0,82.0,0
1544,-10.0,-228.0,74.0,0
1545,-8.0,-229.0,78.0,0
1546,-3.0,-227.0,72.0,0
1547,-5.0,-221.0,78.0,0
1548,2.0,-227.0,73.0,0
1549,1.0,-222.0,73.0,0
1550,0.0,-218.0,76.0,0
1551,2.0,-221.0,71.0,0
1552,3.0,-221.0,72.0,0
1553,4.0,-224.0,74.0,0
1554,5.0,-223.0,76.0,0
1555,4.0,-226.0,78.0,0
1556,2.0,-231.0,78.0,0
1557,1.0,-232.0,76.0,0
1558,2.0,-237.0,78.0,0
1559,-5.0,-242.0,67.0,0
1560,-3.0,-235.0,74.0,0
1561,-1.0,-235.0,77.0,0
1562,-1.0,-236.0,78.0,0
1563,-6.0,-235.0,77.0,0
1564,0.0,-236.0,83.0,0
1565,-3.0,-231.0,87.0,0
1566,-3.0,-232.0,83.0,0
1567,0.0,-233.0,89.0,0
1568,0.0,-237.0,90.0,0
1569,-1.0,-226.0,91.0,0
1570,0.0,-231.0,91.0,0
1571,0.0,-230.0,93.0,0
1572,8.0,-232.0,88.0,0
1573,9.0,-235.0,92.0,0
1574,10.0,-230.0,91.0,0
1575,13.0,-231.0,92.0,0
1576,17.0,-231.0,88.0,0
1577,23.0,-232.0,95.0,0
1578,22.0,-232.0,92.0,0
1579,26.0,-230.0,94.0,0
1580,29.0,-233.0,95.0,0
1581,37.0,-227.0,86.0,0
1582,27.0,-233.0,86.0,0
1583,27.0,-233.0,82.0,0
1584,26.0,-235.0,84.0,0
1585,25.0,-236.0,84.0,0
1586,25.0,-240.0,85.0,0
1587,26.0,-240.0,84.0,0
1588,23.0,-244.0,86.0,0
1589,27.0,-247.0,80.0,0
1590,25.0,-242.0,76.0,0
1591,22.0,-243.0,80.0,0
1592,29.0,-251.0,69.0,0
1593,26.0,-250.0,71.0,0
1594,29.0,-252.0,69.0,0
1595,25.0,-250.0,68.0,0
1596,24.0,-254.0,66.0,0
1597,25.0,-252.0,66.0,0
1598,20.0,-247.0,69.0,0
1599,19.0,-244.0,70.0,0
1600,21.0,-244.0,69.0,0
1601,14.0,-243.0,71.0,0
1602,11.0,-239.0,79.0,0
1603,12.0,-241.0,79.0,0
1604,11.0,-237.0,76.0,0
1605,14.0,-232.0,75.0,0
1606,16.0,-234.0,81.0,0
1607,15.0,-235.0,81.0,0
1608,16.0,-231.0,82.0,0
1609,21.0,-235.0,76.0,0
1610,20.0,-234.0,76.0,0
1611,24.0,-235.0,73.0,0
1612,24.0,-234.0,74.0,0
1613,29.0,-228.0,67.0,0
1614,24.0,-229.0,69.0,0
1615,27.0,-233.0,76.0,0
1616,26.0,-228.0,72.0,0
1617,26.0,-229.0,71.0,0
1618,25.0,-228.0,79.0,0
1619,25.0,-224.0,78.0,0
1620,30.0,-222.0,81.0,0
1621,24.0,-220.0,74.0,0
1622,23.0,-222.0,80.0,0
1623,30.0,-222.0,83.0,0
1624,29.0,-223.0,82.0,0
1625,34.0,-220.0,86.0,0
1626,35.0,-225.0,89.0,0
1627,35.0,-227.0,88.0,0
1628,28.0,-228.0,92.0,0
1629,28.0,-226.0,92.0,0
1630,27.0,-234.0,95.0,0
1631,22.0,-236.0,100.0,0
1632,17.0,-237.0,96.0,0
1633,7.0,-236.0,101.0,0
1634,8.0,-241.0,107.0,0
1635,7.0,-242.0,105.0,0
1636,1.0,-235.0,102.0,0
1637,1.0,-233.0,107.0,0
1638,3.0,-230.0,106.0,0
1639,1.0,-231.0,110.0,0
1640,3.0,-227.0,105.0,0
1641,6.0,-229.0,104.0,0
1642,13.0,-230.0,106.0,0
1643,9.0,-228.0,97.0,0
1644,11.0,-231.0,98.0,0
1645,14.0,-232.0,97.0,0
1646,15.0,-235.0,92.0,0
1647,14.0,-235.0,94.0,0
1648,17.0,-239.0,87.0,0
1649,13.0,-234.0,83.0,0
1650,17.0,-230.0,80.0,0
1651,17.0,-232.0,76.0,0
1652,19.0,-228.0,71.0,0
1653,22.0,-230.0,76.0,0
1654,24.0,-235.0,72.0,0
1655,19.0,-228.0,77.0,0
1656,21.0,-229.0,78.0,0
1657,25.0,-233.0,75.0,0
1658,22.0,-228.0,78.0,0
1659,17.0,-231.0,75.0,0
1660,22.0,-235.0,78.0,0
1661,19.0,-235.0,78.0,0
1662,22.0,-239.0,82.0,0
1663,21.0,-236.0,81.0,0
1664,25.0,-242.0,79.0,0
1665,22.0,-239.0,87.0,0
1666,20.0,-240.0,84.0,0
1667,18.0,-240.0,86.0,0
1668,18.0,-239.0,77.0,0
1669,20.0,-234.0,86.0,0
1670,21.0,-231.0,82.0,0
1671,19.0,-229.0,85.0,0
1672,23.0,-229.0,89.0,0
1673,24.0,-228.0,93.0,0
1674,30.0,-227.0,94.0,0
1675,31.0,-225.0,95.0,0
1676,30.0,-223.0,93.0,0
1677,30.0,-221.0,98.0,0
1678,34.0,-229.0,95.0,0
1679,36.0,-235.0,95.0,0
1680,35.0,-232.0,95.0,0
1681,38.0,-235.0,97.0,0
1682,42.0,-233.0,97.0,0
1683,47.0,-229.0,94.0,0
1684,50.0,-230.0,91.0,0
1685,50.0,-226.0,96.0,0
1686,53.0,-229.0,99.0,0
1687,55.0,-234.0,88.0,0
1688,48.0,-225.0,89.0,0
1689,50.0,-226.0,91.0,0
1690,46.0,-225.0,87.0,0
1691,39.0,-227.0,90.0,0
1692,31.0,-224.0,95.0,0
1693,23.0,-225.0,101.0,0
1694,9.0,-221.0,107.0,0
1695,2.0,-219.0,113.0,0
1696,-6.0,-217.0,114.0,0
1697,-16.0,-214.0,110.0,0
1698,-23.0,-208.0,102.0,0
1699,-23.0,-209.0,99.0,0
1700,-25.0,-209.0,98.0,0
1701,-20.0,-215.0,84.0,0
1702,-22.0,-219.0,79.0,0
1703,-12.0,-222.0,72.0,0
1704,-12.0,-229.0,77.0,0
1705,-5.0,-234.0,76.0,0
1706,3.0,-245.0,78.0,0
1707,7.0,-248.0,76.0,0
1708,17.0,-252.0,85.0,0
1709,22.0,-258.0,80.0,0
1710,27.0,-256.0,81.0,0
1711,28.0,-255.0,80.0,0
1712,35.0,-256.0,84.0,0
1713,37.0,-254.0,80.0,0
1714,41.0,-257.0,78.0,0
1715,40.0,-249.0,82.0,0
1716,43.0,-247.0,79.0,0
1717,45.0,-239.0,78.0,0
1718,46.0,-233.0,77.0,0
1719,44.0,-226.0,80.0,0
1720,42.0,-224.0,80.0,0
1721,45.0,-220.0,86.0,0
1722,42.0,-213.0,83.0,0
1723,40.0,-213.0,82.0,0
1724,42.0,-210.0,83.0,0
1725,36.0,-207.0,87.0,0
1726,36.0,-206.0,84.0,0
1727,31.0,-207.0,88.0,0
1728,29.0,-211.0,90.0,0
1729,25.0,-206.0,89.0,0
1730,22.0,-208.0,85.0,0
1731,25.0,-214.0,87.0,0
1732,28.0,-212.0,96.0,0
1733,29.0,-221.0,100.0,0
1734,21.0,-215.0,95.0,0
1735,20.0,-220.0,99.0,0
1736,24.0,-214.0,103.0,0
1737,26.0,-212.0,102.0,0
1738,27.0,-211.0,104.0,0
1739,29.0,-213.0,104.0,0
1740,31.0,-210.0,111.0,0
1741,28.0,-208.0,105.0,0
1742,27.0,-207.0,118.0,0
1743,29.0,-208.0,120.0,0
1744,24.0,-203.0,122.0,0
1745,29.0,-213.0,121.0,0
1746,31.0,-218.0,121.0,0
1747,33.0,-224.0,121.0,0
1748,34.0,-228.0,119.0,0
1749,40.0,-229.0,116.0,0
1750,46.0,-230.0,118.0,0
1751,47.0,-227.0,116.0,0
1752,55.0,-233.0,115.0,0
1753,60.0,-229.0,111.0,0
1754,59.0,-238.0,108.0,0
1755,64.0,-238.0,114.0,0
1756,66.0,-235.0,112.0,0
1757,65.0,-241.0,113.0,0
1758,69.0,-240.0,108.0,0
1759,71.0,-240.0,108.0,0
1760,67.0,-241.0,113.0,0
1761,73.0,-242.0,111.0,0
1762,75.0,-242.0,119.0,0
1763,72.0,-240.0,118.0,0
1764,69.0,-234.0,119.0,0
1765,62.0,-232.0,126.0,0
1766,59.0,-235.0,111.0,0
1767,61.0,-225.0,117.0,0
1768,61.0,-228.0,120.0,0
1769,63.0,-220.0,122.0,0
1770,62.0,-218.0,116.0,0
1771,60.0,-219.0,120.0,0
1772,55.0,-216.0,117.0,0
1773,50.0,-216.0,119.0,0
1774,52.0,-222.0,118.0,0
1775,55.0,-225.0,116.0,0
1776,59.0,-224.0,110.0,0
1777,52.0,-223.0,117.0,0
1778,46.0,-224.0,116.0,0
1779,44.0,-227.0,116.0,0
1780,48.0,-227.0,121.0,0
1781,47.0,-224.0,117.0,0
1782,51.0,-220.0,115.0,0
1783,52.0,-217.0,117.0,0
1784,52.0,-212.0,120.0,0
1785,55.0,-212.0,114.0,0
1786,56.0,-207.0,113.0,0
1787,57.0,-203.0,108.0,0
1788,59.0,-201.0,117.0,0
1789,59.0,-202.0,118.0,0
1790,62.0,-201.0,119.0,0
1791,62.0,-204.0,118.0,0
1792,61.0,-207.0,117.0,0
1793,59.0,-202.0,119.0,0
1794,59.0,-210.0,119.0,0
1795,57.0,-205.0,117.0,0
1796,55.0,-209.0,117.0,0
1797,55.0,-210.0,115.0,0
1798,57.0,-210.0,115.0,0
1799,54.0,-209.0,115.0,0
1800,55.0,-210.0,115.0,0
1801,53.0,-209.0,117.0,0
1802,57.0,-208.0,116.0,0
1803,52.0,-209.0,115.0,0
1804,52.0,-206.0,112.0,0
1805,60.0,-206.0,117.0,0
1806,64.0,-207.0,118.0,0
1807,69.0,-199.0,114.0,0
1808,79.0,-201.0,116.0,0
1809,82.0,-201.0,123.0,0
1810,75.0,-195.0,120.0,0
1811,70.0,-194.0,118.0,0
1812,70.0,-195.0,124.0,0
1813,68.0,-197.0,124.0,0
1814,67.0,-198.0,127.0,0
1815,63.0,-202.0,127.0,0
1816,65.0,-205.0,131.0,0
1817,64.0,-202.0,131.0,0
1818,63.0,-203.0,129.0,0
1819,64.0,-202.0,129.0,0
1820,63.0,-202.0,131.0,0
1821,66.0,-201.0,130.0,0
1822,60.0,-197.0,130.0,0
1823,59.0,-193.0,130.0,0
1824,63.0,-193.0,128.0,0
1825,62.0,-192.0,130.0,0
1826,58.0,-196.0,134.0,0
1827,62.0,-201.0,137.0,0
1828,63.0,-200.0,136.0,0
1829,64.0,-209.0,138.0,0
1830,75.0,-209.0,139.0,0
1831,63.0,-200.0,133.0,0
1832,53.0,-207.0,138.0,0
1833,48.0,-204.0,135.0,0
1834,47.0,-206.0,135.0,0
1835,56.0,-202.0,135.0,0
1836,52.0,-194.0,136.0,0
1837,53.0,-193.0,139.0,0
1838,45.0,-191.0,132.0,0
1839,48.0,-193.0,136.0,0
1840,52.0,-194.0,140.0,0
1841,47.0,-192.0,133.0,0
1842,51.0,-195.0,133.0,0
1843,48.0,-199.0,133.0,0
1844,44.0,-208.0,139.0,0
1845,41.0,-214.0,137.0,0
1846,38.0,-213.0,136.0,0
1847,39.0,-217.0,138.0,0
1848,41.0,-217.0,143.0,0
1849,37.0,-216.0,142.0,0
1850,31.0,-212.0,138.0,0
1851,35.0,-209.0,136.0,0
1852,34.0,-204.0,139.0,0
1853,39.0,-199.0,136.0,0
1854,43.0,-195.0,133.0,0
1855,42.0,-193.0,129.0,0
1856,45.0,-193.0,128.0,0
1857,44.0,-194.0,127.0,0
1858,47.0,-194.0,127.0,0
1859,50.0,-193.0,128.0,0
1860,48.0,-195.0,128.0,0
1861,50.0,-198.0,124.0,0
1862,55.0,-197.0,127.0,0
1863,51.0,-193.0,123.0,0
1864,59.0,-201.0,126.0,0
1865,57.0,-200.0,129.0,0
1866,52.0,-198.0,127.0,0
1867,55.0,-202.0,133.0,0
1868,53.0,-202.0,132.0,0
1869,49.0,-201.0,129.0,0
1870,39.0,-203.0,134.0,0
1871,39.0,-205.0,137.0,0
1872,40.0,-209.0,135.0,0
1873,34.0,-205.0,132.0,0
1874,34.0,-207.0,131.0,0
1875,34.0,-206.0,135.0,0
1876,31.0,-203.0,137.0,0
1877,33.0,-203.0,137.0,0
1878,30.0,-202.0,135.0,0
1879,32.0,-201.0,142.0,0
1880,30.0,-203.0,140.0,0
1881,30.0,-198.0,140.0,0
1882,33.0,-197.0,141.0,0
1883,33.0,-197.0,140.0,0
1884,33.0,-194.0,140.0,0
1885,30.0,-199.0,145.0,0
1886,37.0,-198.0,147.0,0
1887,41.0,-197.0,146.0,0
1888,36.0,-198.0,138.0,0
1889,39.0,-198.0,146.0,0
1890,38.0,-201.0,143.0,0
1891,36.0,-197.0,140.0,0
1892,40.0,-199.0,139.0,0
1893,41.0,-200.0,140.0,0
1894,38.0,-202.0,140.0,0
1895,41.0,-203.0,137.0,0
1896,40.0,-198.0,138.0,0
1897,40.0,-197.0,138.0,0
1898,41.0,-197.0,138.0,0
1899,45.0,-193.0,136.0,0
1900,50.0,-194.0,138.0,0
1901,47.0,-193.0,141.0,0
1902,48.0,-194.0,140.0,0
1903,48.0,-196.0,142.0,0
1904,55.0,-199.0,141.0,0
1905,57.0,-197.0,141.0,0
1906,57.0,-204.0,141.0,0
1907,61.0,-206.0,154.0,0
1908,55.0,-206.0,152.0,0
1909,55.0,-206.0,150.0,0
1910,53.0,-205.0,152.0,0
1911,46.0,-205.0,150.0,0
1912,41.0,-204.0,141.0,0
1913,32.0,-202.0,133.0,0
1914,29.0,-202.0,135.0,0
1915,24.0,-204.0,132.0,0
1916,23.0,-209.0,130.0,0
1917,20.0,-209.0,130.0,0
1918,15.0,-214.0,125.0,0
1919,16.0,-215.0,125.0,0
1920,12.0,-217.0,122.0,0
1921,12.0,-217.0,122.0,0
1922,11.0,-216.0,125.0,0
1923,9.0,-219.0,125.0,0
1924,10.0,-218.0,122.0,0
1925,10.0,-214.0,119.0,0
1926,11.0,-212.0,118.0,0
1927,15.0,-209.0,128.0,0
1928,16.0,-207.0,121.0,0
1929,20.0,-209.0,122.0,0
1930,21.0,-203.0,127.0,0
1931,20.0,-201.0,128.0,0
1932,24.0,-202.0,131.0,0
1933,24.0,-201.0,132.0,0
1934,25.0,-205.0,137.0,0
1935,27.0,-207.0,134.0,0
1936,28.0,-207.0,131.0,0
1937,25.0,-209.0,134.0,0
1938,28.0,-207.0,134.0,0
1939,24.0,-212.0,130.0,0
1940,15.0,-218.0,128.0,0
1941,15.0,-209.0,127.0,0
1942,14.0,-207.0,128.0,0
1943,10.0,-207.0,128.0,0
1944,9.0,-202.0,128.0,0
1945,5.0,-199.0,133.0,0
1946,2.0,-201.0,132.0,0
1947,0.0,-198.0,135.0,0
1948,0.0,-200.0,141.0,0
1949,3.0,-205.0,137.0,0
1950,4.0,-206.0,139.0,0
1951,2.0,-210.0,135.0,0
1952,9.0,-214.0,140.0,0
1953,11.0,-217.0,135.0,0
1954,15.0,-219.0,133.0,0
1955,22.0,-222.0,131.0,0
1956,25.0,-224.0,131.0,0
1957,30.0,-225.0,131.0,0
1958,30.0,-223.0,128.0,0
1959,29.0,-221.0,127.0,0
1960,34.0,-218.0,129.0,0
1961,31.0,-217.0,127.0,0
1962,22.0,-211.0,133.0,0
1963,20.0,-218.0,132.0,0
1964,15.0,-214.0,136.0,0
1965,10.0,-213.0,137.0,0
1966,3.0,-212.0,138.0,0
1967,1.0,-216.0,135.0,0
1968,-1.0,-217.0,143.0,0
1969,-5.0,-216.0,140.0,0
1970,-8.0,-213.0,137.0,0
1971,-6.0,-215.0,138.0,0
1972,-10.0,-210.0,135.0,0
1973,-4.0,-219.0,129.0,0
1974,-9.0,-212.0,135.0,0
1975,-9.0,-211.0,131.0,0
1976,-10.0,-208.0,132.0,0
1977,-8.0,-203.0,128.0,0
1978,-4.0,-200.0,128.0,0
1979,1.0,-192.0,126.0,0
1980,2.0,-191.0,127.0,0
1981,6.0,-185.0,121.0,0
1982,14.0,-186.0,118.0,0
1983,16.0,-181.0,120.0,0
1984,23.0,-187.0,121.0,0
1985,22.0,-186.0,120.0,0
1986,28.0,-193.0,124.0,0
1987,28.0,-198.0,119.0,0
1988,30.0,-201.0,128.0,0
1989,34.0,-209.0,126.0,0
1990,36.0,-210.0,128.0,0
1991,33.0,-216.0,128.0,0
1992,28.0,-217.0,128.0,0
1993,31.0,-220.0,124.0,0
1994,31.0,-219.0,126.0,0
1995,31.0,-216.0,127.0,0
1996,35.0,-215.0,125.0,0
1997,42.0,-209.0,125.0,0
1998,47.0,-209.0,125.0,0
1999,52.0,-207.0,130.0,0
2000,56.0,-202.0,131.0,0
2001,58.0,-204.0,132.0,0
2002,56.0,-196.0,130.0,0
2003,60.0,-197.0,130.0,0
2004,62.0,-194.0,138.0,0
2005,58.0,-200.0,147.0,0
2006,63.0,-197.0,137.0,0
2007,62.0,-199.0,142.0,0
2008,60.0,-197.0,143.0,0
2009,59.0,-195.0,141.0,0
2010,54.0,-195.0,143.0,0
2011,51.0,-197.0,142.0,0
2012,49.0,-196.0,147.0,0
2013,42.0,-197.0,133.0,0
2014,46.0,-195.0,138.0,0
2015,41.0,-194.0,139.0,0
2016,43.0,-196.0,134.0,0
2017,43.0,-200.0,132.0,0
2018,41.0,-200.0,130.0,0
2019,38.0,-197.0,130.0,0
2020,38.0,-199.0,129.0,0
2021,36.0,-197.0,126.0,0
2022,37.0,-199.0,127.0,0
2023,38.0,-197.0,122.0,0
2024,42.0,-198.0,126.0,0
2025,41.0,-198.0,129.0,0
2026,44.0,-197.0,127.0,0
2027,42.0,-198.0,123.0,0
2028,42.0,-198.0,127.0,0
2029,43.0,-198.0,124.0,0
2030,39.0,-196.0,126.0,0
2031,40.0,-200.0,129.0,0
2032,40.0,-203.0,127.0,0
2033,36.0,-202.0,130.0,0
2034,34.0,-200.0,132.0,0
2035,36.0,-204.0,136.0,0
2036,37.0,-202.0,132.0,0
2037,35.0,-204.0,134.0,0
2038,30.0,-200.0,134.0,0
2039,35.0,-204.0,135.0,0
2040,34.0,-205.0,136.0,0
2041,35.0,-204.0,135.0,0
2042,35.0,-204.0,136.0,0
2043,35.0,-205.0,138.0,0
2044,38.0,-206.0,141.0,0
2045,38.0,-207.0,139.0,0
2046,36.0,-206.0,144.0,0
2047,31.0,-207.0,139.0,0
2048,33.0,-212.0,147.0,0
2049,32.0,-209.0,146.0,0
2050,34.0,-209.0,142.0,0
2051,36.0,-210.0,148.0,0
2052,34.0,-210.0,144.0,0
2053,32.0,-208.0,143.0,0
2054,37.0,-213.0,142.0,0
2055,34.0,-205.0,142.0,0
2056,27.0,-205.0,142.0,0
2057,31.0,-207.0,141.0,0
2058,31.0,-208.0,134.0,0
2059,32.0,-204.0,136.0,0
2060,33.0,-203.0,131.0,0
2061,31.0,-204.0,135.0,0
2062,35.0,-206.0,137.0,0
2063,34.0,-202.0,136.0,0
2064,36.0,-198.0,135.0,0
2065,38.0,-199.0,139.0,0
2066,42.0,-199.0,134.0,0
2067,42.0,-194.0,136.0,0
2068,38.0,-190.0,140.0,0
2069,45.0,-195.0,143.0,0
2070,48.0,-193.0,135.0,0
2071,50.0,-195.0,136.0,0
2072,52.0,-192.0,135.0,0
2073,56.0,-192.0,136.0,0
2074,63.0,-191.0,136.0,0
2075,64.0,-193.0,132.0,0
2076,64.0,-192.0,134.0,0
2077,63.0,-193.0,134.0,0
2078,68.0,-194.0,130.0,0
2079,70.0,-194.0,127.0,0
2080,71.0,-196.0,130.0,0
2081,63.0,-196.0,132.0,0
2082,77.0,-207.0,132.0,0
2083,71.0,-195.0,130.0,0
2084,69.0,-195.0,129.0,0
2085,66.0,-192.0,125.0,0
2086,67.0,-191.0,126.0,0
2087,63.0,-188.0,128.0,0
2088,59.0,-185.0,126.0,0
2089,57.0,-186.0,130.0,0
2090,58.0,-187.0,129.0,0
2091,56.0,-192.0,133.0,0
2092,55.0,-196.0,133.0,0
2093,47.0,-204.0,147.0,0
2094,47.0,-218.0,148.0,0
2095,45.0,-220.0,153.0,0
2096,44.0,-228.0,158.0,0
2097,47.0,-228.0,152.0,0
2098,51.0,-232.0,147.0,0
2099,57.0,-235.0,147.0,0
2100,61.0,-230.0,146.0,0
2101,61.0,-225.0,142.0,0
2102,69.0,-220.0,141.0,0
2103,68.0,-213.0,147.0,0
2104,73.0,-206.0,136.0,0
2105,74.0,-199.0,140.0,0
2106,75.0,-195.0,134.0,0
2107,78.0,-195.0,137.0,0
2108,78.0,-194.0,138.0,0
2109,71.0,-192.0,140.0,0
2110,73.0,-191.0,136.0,0
2111,70.0,-193.0,134.0,0
2112,65.0,-188.0,143.0,0
2113,66.0,-192.0,139.0,0
2114,61.0,-193.0,142.0,0
2115,59.0,-190.0,137.0,0
2116,55.0,-187.0,138.0,0
2117,51.0,-189.0,136.0,0
2118,48.0,-188.0,139.0,0
2119,46.0,-192.0,137.0,0
2120,44.0,-191.0,137.0,0
2121,38.0,-192.0,139.0,0
2122,36.0,-192.0,134.0,0
2123,39.0,-191.0,136.0,0
2124,34.0,-193.0,136.0,0
2125,37.0,-196.0,131.0,0
2126,33.0,-194.0,133.0,0
2127,32.0,-198.0,133.0,0
2128,30.0,-196.0,131.0,0
2129,29.0,-201.0,131.0,0
2130,30.0,-203.0,134.0,0
2131,30.0,-203.0,130.0,0
2132,31.0,-207.0,128.0,0
2133,29.0,-205.0,131.0,0
2134,31.0,-208.0,131.0,0
2135,32.0,-209.0,129.0,0
2136,26.0,-201.0,133.0,0
2137,35.0,-213.0,131.0,0
2138,33.0,-210.0,129.0,0
2139,35.0,-208.0,132.0,0
2140,38.0,-210.0,129.0,0
2141,38.0,-211.0,129.0,0
2142,38.0,-208.0,130.0,0
2143,40.0,-208.0,130.0,0
2144,42.0,-207.0,133.0,0
2145,42.0,-202.0,131.0,0
2146,43.0,-207.0,130.0,0
2147,45.0,-205.0,134.0,0
2148,49.0,-205.0,134.0,0
2149,54.0,-205.0,131.0,0
2150,51.0,-202.0,129.0,0
2151,54.0,-200.0,131.0,0
2152,57.0,-202.0,135.0,0
2153,54.0,-204.0,131.0,0
2154,56.0,-199.0,135.0,0
2155,57.0,-203.0,131.0,0
2156,58.0,-201.0,134.0,0
2157,57.0,-196.0,134.0,0
2158,64.0,-201.0,131.0,0
2159,59.0,-196.0,133.0,0
2160,59.0,-196.0,134.0,0
2161,59.0,-195.0,136.0,0
2162,55.0,-194.0,137.0,0
2163,59.0,-195.0,138.0,0
2164,57.0,-195.0,138.0,0
2165,60.0,-199.0,142.0,0
2166,58.0,-200.0,140.0,0
2167,55.0,-195.0,136.0,0
2168,55.0,-198.0,142.0,0
2169,56.0,-199.0,138.0,0
2170,56.0,-194.0,141.0,0
2171,55.0,-196.0,136.0,0
2172,57.0,-194.0,141.0,0
2173,57.0,-196.0,137.0,0
2174,58.0,-197.0,141.0,0
2175,55.0,-195.0,138.0,0
2176,57.0,-198.0,138.0,0
2177,60.0,-200.0,142.0,0
2178,53.0,-200.0,135.0,0
2179,56.0,-199.0,135.0,0
2180,57.0,-205.0,135.0,0
2181,55.0,-204.0,139.0,0
2182,55.0,-201.0,136.0,0
2183,55.0,-199.0,138.0,0
2184,54.0,-199.0,138.0,0
2185,54.0,-199.0,136.0,0
2186,53.0,-200.0,134.0,0
2187,53.0,-198.0,135.0,0
2188,53.0,-202.0,134.0,0
2189,51.0,-201.0,131.0,0
2190,57.0,-192.0,134.0,0
2191,54.0,-200.0,137.0,0
2192,56.0,-200.0,138.0,0
2193,56.0,-199.0,135.0,0
2194,53.0,-196.0,134.0,0
2195,53.0,-195.0,136.0,0
2196,53.0,-195.0,137.0,0
2197,52.0,-199.0,135.0,0
2198,51.0,-199.0,136.0,0
2199,54.0,-200.0,140.0,0
2200,53.0,-202.0,142.0,0
2201,52.0,-202.0,136.0,0
2202,52.0,-202.0,140.0,0
2203,51.0,-200.0,135.0,0
2204,53.0,-199.0,134.0,0
2205,51.0,-201.0,134.0,0
2206,50.0,-198.0,136.0,0
2207,53.0,-199.0,134.0,0
2208,54.0,-202.0,132.0,0
2209,54.0,-198.0,135.0,0
2210,56.0,-201.0,140.0,0
2211,51.0,-196.0,134.0,0
2212,54.0,-194.0,141.0,0
2213,54.0,-195.0,138.0,0
2214,52.0,-195.0,136.0,0
2215,54.0,-197.0,137.0,0
2216,53.0,-196.0,138.0,0
2217,52.0,-195.0,139.0,0
2218,51.0,-195.0,137.0,0
2219,52.0,-194.0,141.0,0
2220,56.0,-194.0,138.0,0
2221,53.0,-196.0,136.0,0
2222,55.0,-200.0,137.0,0
2223,53.0,-202.0,139.0,0
2224,54.0,-198.0,141.0,0
2225,54.0,-194.0,135.0,0
2226,55.0,-198.0,135.0,0
2227,52.0,-198.0,141.0,0
2228,57.0,-200.0,140.0,0
2229,57.0,-201.0,138.0,0
2230,52.0,-199.0,137.0,0
2231,56.0,-205.0,134.0,0
2232,56.0,-198.0,142.0,0
2233,54.0,-197.0,134.0,0
2234,57.0,-194.0,132.0,0
2235,53.0,-198.0,133.0,0
2236,51.0,-197.0,139.0,0
2237,53.0,-200.0,137.0,0
2238,55.0,-202.0,138.0,0
2239,52.0,-197.0,136.0,0
2240,54.0,-199.0,135.0,0
2241,54.0,-200.0,140.0,0
2242,54.0,-201.0,134.0,0
2243,49.0,-196.0,140.0,0
2244,50.0,-200.0,136.0,0
2245,53.0,-196.0,134.0,0
2246,49.0,-199.0,134.0,0
2247,51.0,-197.0,135.0,0
2248,52.0,-196.0,139.0,0
2249,52.0,-198.0,141.0,0
2250,50.0,-195.0,137.0,0
2251,49.0,-195.0,141.0,0
2252,52.0,-200.0,141.0,0
2253,52.0,-198.0,136.0,0
2254,51.0,-198.0,138.0,0
2255,50.0,-198.0,141.0,0
2256,50.0,-201.0,136.0,0
2257,53.0,-196.0,140.0,0
2258,52.0,-199.0,138.0,0
2259,54.0,-196.0,140.0,0
2260,54.0,-197.0,139.0,0
2261,52.0,-196.0,136.0,0
2262,51.0,-199.0,141.0,0
2263,53.0,-196.0,140.0,0
2264,57.0,-199.0,139.0,0
2265,56.0,-200.0,136.0,0
2266,53.0,-201.0,138.0,0
2267,55.0,-199.0,139.0,0
2268,54.0,-198.0,138.0,0
2269,54.0,-200.0,137.0,0
2270,55.0,-197.0,141.0,0
2271,54.0,-199.0,135.0,0
2272,51.0,-198.0,136.0,0
2273,51.0,-198.0,138.0,0
2274,53.0,-198.0,139.0,0
2275,54.0,-199.0,137.0,0
2276,54.0,-200.0,137.0,0
2277,56.0,-199.0,136.0,0
2278,53.0,-197.0,139.0,0
2279,54.0,-200.0,136.0,0
2280,54.0,-199.0,140.0,0
2281,52.0,-198.0,137.0,0
2282,53.0,-198.0,139.0,0
2283,53.0,-199.0,138.0,0
2284,52.0,-197.0,140.0,0
2285,54.0,-198.0,132.0,0
2286,57.0,-201.0,137.0,0
2287,53.0,-198.0,143.0,0
2288,50.0,-200.0,139.0,0
2289,58.0,-202.0,138.0,0
2290,51.0,-197.0,135.0,0
2291,54.0,-196.0,137.0,0
2292,53.0,-198.0,139.0,0
2293,54.0,-200.0,140.0,0
2294,54.0,-199.0,138.0,0
2295,52.0,-199.0,138.0,0
2296,50.0,-196.0,138.0,0
2297,52.0,-199.0,141.0,0
2298,52.0,-199.0,136.0,0
2299,54.0,-202.0,144.0,0
2300,49.0,-194.0,139.0,0
2301,53.0,-198.0,137.0,0
2302,52.0,-198.0,135.0,0
2303,54.0,-197.0,138.0,0
2304,53.0,-200.0,141.0,0
2305,51.0,-197.0,139.0,0
2306,51.0,-200.0,140.0,0
2307,50.0,-196.0,135.0,0
2308,50.0,-198.0,135.0,0
2309,51.0,-199.0,136.0,0
2310,50.0,-196.0,137.0,0
2311,53.0,-197.0,137.0,0
2312,53.0,-200.0,140.0,0
2313,50.0,-199.0,138.0,0
2314,54.0,-202.0,134.0,0
2315,50.0,-200.0,135.0,0
2316,54.0,-198.0,139.0,0
2317,54.0,-199.0,131.0,0
2318,53.0,-202.0,139.0,0
2319,53.0,-198.0,140.0,0
2320,56.0,-197.0,141.0,0
2321,55.0,-194.0,136.0,0
2322,56.0,-201.0,138.0,0
2323,55.0,-196.0,138.0,0
2324,55.0,-196.0,134.0,0
2325,54.0,-196.0,132.0,0
2326,55.0,-199.0,137.0,0
2327,58.0,-200.0,138.0,0
2328,54.0,-197.0,137.0,0
2329,52.0,-195.0,140.0,0
2330,51.0,-196.0,138.0,0
2331,52.0,-198.0,142.0,0
2332,59.0,-199.0,136.0,0
2333,57.0,-197.0,134.0,0
2334,53.0,-197.0,138.0,0
2335,54.0,-200.0,138.0,0
2336,53.0,-198.0,133.0,0
2337,55.0,-199.0,137.0,0
2338,56.0,-198.0,139.0,0
2339,56.0,-198.0,136.0,0
2340,52.0,-198.0,143.0,0
2341,59.0,-198.0,140.0,0
2342,55.0,-198.0,137.0,0
2343,54.0,-200.0,139.0,0
2344,53.0,-201.0,144.0,0
2345,52.0,-200.0,139.0,0
2346,53.0,-202.0,141.0,0
2347,54.0,-199.0,138.0,0
2348,51.0,-200.0,134.0,0
2349,53.0,-197.0,136.0,0
2350,53.0,-200.0,138.0,0
2351,50.0,-199.0,135.0,0
2352,50.0,-198.0,137.0,0
2353,49.0,-195.0,139.0,0
2354,57.0,-205.0,135.0,0
2355,53.0,-197.0,133.0,0
2356,51.0,-195.0,139.0,0
2357,55.0,-200.0,142.0,0
2358,54.0,-201.0,139.0,0
2359,49.0,-198.0,135.0,0
2360,53.0,-198.0,139.0,0
2361,50.0,-199.0,139.0,0
2362,52.0,-200.0,139.0,0
2363,53.0,-198.0,139.0,0
2364,55.0,-199.0,137.0,0
2365,49.0,-192.0,133.0,0
2366,52.0,-198.0,140.0,0
2367,54.0,-199.0,135.0,0
2368,51.0,-198.0,140.0,0
2369,53.0,-197.0,138.0,0
2370,52.0,-200.0,136.0,0
2371,54.0,-200.0,136.0,0
2372,53.0,-197.0,134.0,0
2373,52.0,-197.0,137.0,0
2374,56.0,-199.0,133.0,0
2375,56.0,-200.0,132.0,0
2376,56.0,-201.0,136.0,0
2377,54.0,-197.0,137.0,0
2378,52.0,-197.0,137.0,0
2379,54.0,-199.0,138.0,0
2380,54.0,-197.0,136.0,0
2381,54.0,-200.0,140.0,0
2382,53.0,-199.0,136.0,0
2383,54.0,-196.0,133.0,0
2384,53.0,-198.0,138.0,0
2385,54.0,-198.0,136.0,0
2386,54.0,-197.0,136.0,0
2387,55.0,-203.0,135.0,0
2388,54.0,-198.0,137.0,0
2389,55.0,-198.0,138.0,0
2390,55.0,-196.0,137.0,0
2391,55.0,-199.0,137.0,0
2392,53.0,-198.0,138.0,0
2393,53.0,-203.0,138.0,0
2394,55.0,-198.0,135.0,0
2395,53.0,-199.0,144.0,0
2396,54.0,-196.0,138.0,0
2397,50.0,-197.0,133.0,0
2398,54.0,-200.0,137.0,0
2399,56.0,-197.0,135.0,0
2400,54.0,-196.0,136.0,0
2401,53.0,-199.0,139.0,0
2402,56.0,-197.0,136.0,0
2403,57.0,-197.0,142.0,0
2404,53.0,-200.0,140.0,0
2405,56.0,-199.0,134.0,0
2406,54.0,-196.0,140.0,0
2407,51.0,-194.0,138.0,0
2408,55.0,-199.0,139.0,0
2409,52.0,-202.0,137.0,0
2410,53.0,-198.0,141.0,0
2411,54.0,-199.0,140.0,0
2412,53.0,-196.0,139.0,0
2413,51.0,-200.0,139.0,0
2414,54.0,-200.0,136.0,0
2415,52.0,-202.0,143.0,0
2416,50.0,-197.0,139.0,0
2417,53.0,-199.0,137.0,0
2418,51.0,-200.0,138.0,0
2419,54.0,-200.0,143.0,0
2420,57.0,-201.0,138.0,0
2421,55.0,-200.0,140.0,0
2422,54.0,-200.0,136.0,0
2423,51.0,-196.0,135.0,0
2424,55.0,-196.0,132.0,0
2425,53.0,-199.0,135.0,0
2426,55.0,-199.0,137.0,0
2427,55.0,-197.0,141.0,0
2428,53.0,-194.0,133.0,0
2429,52.0,-198.0,143.0,0
2430,59.0,-203.0,139.0,0
2431,54.0,-198.0,138.0,0
2432,51.0,-194.0,139.0,0
2433,53.0,-196.0,136.0,0
2434,53.0,-198.0,137.0,0
2435,54.0,-197.0,137.0,0
2436,54.0,-196.0,138.0,0
2437,54.0,-196.0,135.0,0
2438,54.0,-197.0,141.0,0
2439,54.0,-197.0,135.0,0
2440,54.0,-197.0,133.0,0
2441,62.0,-204.0,140.0,0
2442,54.0,-195.0,135.0,0
2443,56.0,-197.0,134.0,0
2444,55.0,-198.0,136.0,0
2445,57.0,-199.0,138.0,0
2446,54.0,-196.0,136.0,0
2447,55.0,-195.0,133.0,0
2448,53.0,-197.0,141.0,0
2449,53.0,-198.0,139.0,0
2450,53.0,-197.0,137.0,0
2451,52.0,-197.0,139.0,0
2452,56.0,-199.0,133.0,0
2453,54.0,-199.0,135.0,0
2454,55.0,-197.0,140.0,0
2455,57.0,-199.0,142.0,0
2456,52.0,-198.0,137.0,0
2457,55.0,-198.0,139.0,0
2458,55.0,-197.0,139.0,0
2459,49.0,-196.0,136.0,0
2460,52.0,-196.0,138.0,0
2461,49.0,-198.0,140.0,0
2462,54.0,-199.0,139.0,0
2463,56.0,-199.0,138.0,0
2464,49.0,-196.0,136.0,0
2465,51.0,-194.0,139.0,0
2466,54.0,-197.0,142.0,0
2467,52.0,-200.0,137.0,0
2468,52.0,-198.0,136.0,0
2469,54.0,-197.0,140.0,0
2470,49.0,-195.0,138.0,0
2471,53.0,-199.0,141.0,0
2472,52.0,-201.0,141.0,0
2473,52.0,-199.0,138.0,0
2474,53.0,-203.0,141.0,0
2475,55.0,-196.0,136.0,0
2476,55.0,-201.0,140.0,0
2477,52.0,-197.0,134.0,0
2478,58.0,-199.0,138.0,0
2479,53.0,-198.0,136.0,0
2480,54.0,-198.0,136.0,0
2481,53.0,-199.0,141.0,0
2482,57.0,-202.0,135.0,0
2483,51.0,-197.0,136.0,0
2484,51.0,-195.0,132.0,0
2485,50.0,-198.0,142.0,0
2486,54.0,-198.0,138.0,0
2487,51.0,-198.0,136.0,0
2488,54.0,-198.0,138.0,0
2489,52.0,-198.0,132.0,0
2490,52.0,-196.0,139.0,0
2491,50.0,-198.0,140.0,0
2492,51.0,-197.0,143.0,0
2493,51.0,-198.0,140.0,0
2494,53.0,-202.0,139.0,0
2495,49.0,-201.0,137.0,0
2496,53.0,-197.0,139.0,0
2497,53.0,-198.0,135.0,0
2498,54.0,-197.0,137.0,0
2499,53.0,-198.0,134.0,0
2500,53.0,-199.0,137.0,0
2501,54.0,-198.0,139.0,0
2502,55.0,-198.0,139.0,0
2503,55.0,-202.0,136.0,0
2504,53.0,-198.0,134.0,0
2505,53.0,-202.0,146.0,0
2506,60.0,-201.0,145.0,0
2507,54.0,-198.0,140.0,0
2508,54.0,-201.0,139.0,0
2509,54.0,-198.0,131.0,0
2510,53.0,-200.0,138.0,0
2511,54.0,-200.0,136.0,0
2512,53.0,-197.0,139.0,0
2513,54.0,-201.0,141.0,0
2514,55.0,-197.0,138.0,0
2515,53.0,-198.0,138.0,0
2516,55.0,-199.0,135.0,0
2517,50.0,-200.0,134.0,0
2518,51.0,-197.0,141.0,0
2519,56.0,-197.0,138.0,0
2520,52.0,-200.0,137.0,0
2521,54.0,-199.0,137.0,0
2522,54.0,-195.0,138.0,0
2523,54.0,-196.0,135.0,0
2524,52.0,-199.0,139.0,0
2525,49.0,-200.0,134.0,0
2526,54.0,-196.0,137.0,0
2527,50.0,-198.0,137.0,0
2528,59.0,-196.0,136.0,0
2529,52.0,-198.0,136.0,0
2530,55.0,-200.0,137.0,0
2531,53.0,-198.0,138.0,0
2532,54.0,-197.0,137.0,0
2533,54.0,-197.0,139.0,0
2534,52.0,-199.0,135.0,0
2535,49.0,-199.0,140.0,0
2536,55.0,-200.0,139.0,0
2537,56.0,-198.0,137.0,0
2538,57.0,-197.0,145.0,0
2539,57.0,-205.0,138.0,0
2540,54.0,-201.0,137.0,0
2541,59.0,-197.0,139.0,0
2542,53.0,-196.0,140.0,0
2543,55.0,-198.0,138.0,0
2544,54.0,-196.0,137.0,0
2545,54.0,-194.0,141.0,0
2546,54.0,-196.0,139.0,0
2547,54.0,-199.0,136.0,0
2548,55.0,-202.0,142.0,0
2549,55.0,-201.0,135.0,0
2550,53.0,-201.0,144.0,0
2551,55.0,-200.0,138.0,0
2552,55.0,-200.0,137.0,0
2553,52.0,-196.0,137.0,0
2554,54.0,-199.0,137.0,0
2555,52.0,-197.0,136.0,0
2556,56.0,-201.0,137.0,0
2557,59.0,-202.0,138.0,0
2558,57.0,-200.0,142.0,0
2559,53.0,-198.0,141.0,0
2560,55.0,-199.0,137.0,0
2561,49.0,-195.0,134.0,0
2562,54.0,-200.0,136.0,0
2563,55.0,-199.0,138.0,0
2564,52.0,-198.0,136.0,0
2565,53.0,-198.0,136.0,0
2566,58.0,-202.0,139.0,0
2567,53.0,-195.0,136.0,0
2568,51.0,-199.0,140.0,0
2569,55.0,-199.0,137.0,0
2570,55.0,-198.0,132.0,0
2571,55.0,-200.0,139.0,0
2572,56.0,-200.0,138.0,0
2573,52.0,-198.0,137.0,0
2574,55.0,-196.0,140.0,0
2575,58.0,-200.0,138.0,0
2576,50.0,-199.0,138.0,0
2577,54.0,-197.0,135.0,0
2578,54.0,-199.0,136.0,0
2579,55.0,-199.0,135.0,0
2580,56.0,-202.0,137.0,0
2581,53.0,-200.0,138.0,0
2582,54.0,-197.0,137.0,0
2583,54.0,-195.0,131.0,0
2584,57.0,-196.0,138.0,0
2585,53.0,-199.0,135.0,0
2586,53.0,-198.0,142.0,0
2587,54.0,-198.0,138.0,0
2588,55.0,-199.0,138.0,0
2589,53.0,-197.0,133.0,0
2590,52.0,-198.0,137.0,0
2591,53.0,-196.0,136.0,0
2592,51.0,-200.0,142.0,0
2593,53.0,-205.0,143.0,0
2594,55.0,-199.0,136.0,0
2595,54.0,-199.0,136.0,0
2596,56.0,-200.0,132.0,0
2597,53.0,-199.0,139.0,0
2598,54.0,-199.0,138.0,0
2599,57.0,-201.0,135.0,0
2600,52.0,-198.0,136.0,0
2601,54.0,-198.0,137.0,0
2602,55.0,-196.0,134.0,0
2603,56.0,-200.0,136.0,0
2604,59.0,-196.0,131.0,0
2605,55.0,-201.0,134.0,0
2606,56.0,-198.0,133.0,0
2607,55.0,-196.0,134.0,0
2608,56.0,-199.0,135.0,0
2609,52.0,-197.0,137.0,0
2610,52.0,-198.0,135.0,0
2611,55.0,-198.0,133.0,0
2612,53.0,-200.0,133.0,0
2613,50.0,-197.0,137.0,0
2614,58.0,-203.0,136.0,0
2615,52.0,-204.0,138.0,0
2616,55.0,-201.0,136.0,0
2617,54.0,-201.0,139.0,0
2618,58.0,-201.0,139.0,0
2619,51.0,-201.0,139.0,0
2620,54.0,-199.0,136.0,0
2621,55.0,-201.0,133.0,0
2622,54.0,-200.0,134.0,0
2623,55.0,-201.0,135.0,0
2624,54.0,-203.0,135.0,0
2625,56.0,-203.0,137.0,0
2626,54.0,-203.0,134.0,0
2627,53.0,-202.0,135.0,0
2628,57.0,-200.0,134.0,0
2629,53.0,-199.0,134.0,0
2630,55.0,-198.0,133.0,0
2631,57.0,-199.0,132.0,0
2632,56.0,-196.0,130.0,0
2633,56.0,-200.0,131.0,0
2634,56.0,-201.0,135.0,0
2635,54.0,-200.0,132.0,0
2636,56.0,-196.0,138.0,0
2637,55.0,-197.0,130.0,0
2638,55.0,-198.0,131.0,0
2639,53.0,-196.0,134.0,0
2640,57.0,-199.0,136.0,0
2641,56.0,-198.0,132.0,0
2642,56.0,-199.0,136.0,0
2643,59.0,-195.0,136.0,0
2644,57.0,-197.0,131.0,0
2645,58.0,-202.0,134.0,0
2646,55.0,-198.0,138.0,0
2647,55.0,-201.0,131.0,0
2648,55.0,-199.0,131.0,0
2649,57.0,-201.0,136.0,0
2650,52.0,-200.0,130.0,0
2651,58.0,-201.0,135.0,0
2652,55.0,-200.0,134.0,0
2653,57.0,-200.0,133.0,0
2654,58.0,-202.0,135.0,0
2655,57.0,-201.0,134.0,0
2656,57.0,-201.0,136.0,0
2657,59.0,-205.0,138.0,0
2658,58.0,-202.0,136.0,0
2659,52.0,-197.0,134.0,0
2660,56.0,-201.0,133.0,0
2661,54.0,-198.0,133.0,0
2662,55.0,-199.0,133.0,0
2663,53.0,-199.0,135.0,0
2664,54.0,-200.0,136.0,0
2665,54.0,-202.0,133.0,0
2666,50.0,-197.0,138.0,0
2667,57.0,-200.0,131.0,0
2668,55.0,-199.0,133.0,0
2669,54.0,-202.0,132.0,0
2670,53.0,-201.0,137.0,0
2671,54.0,-201.0,134.0,0
2672,54.0,-198.0,139.0,0
2673,54.0,-199.0,135.0,0
2674,59.0,-200.0,132.0,0
2675,55.0,-197.0,134.0,0
2676,54.0,-202.0,132.0,0
2677,56.0,-199.0,131.0,0
2678,53.0,-201.0,137.0,0
2679,55.0,-199.0,132.0,0
2680,58.0,-203.0,133.0,0
2681,55.0,-202.0,132.0,0
2682,56.0,-203.0,132.0,0
2683,55.0,-200.0,137.0,0
2684,57.0,-199.0,131.0,0
2685,56.0,-200.0,133.0,0
2686,56.0,-198.0,134.0,0
2687,56.0,-199.0,136.0,0
2688,54.0,-196.0,132.0,0
2689,54.0,-199.0,131.0,0
2690,52.0,-197.0,130.0,0
2691,54.0,-201.0,134.0,0
2692,55.0,-196.0,133.0,0
2693,54.0,-201.0,133.0,0
2694,56.0,-200.0,133.0,0
2695,55.0,-196.0,134.0,0
2696,56.0,-201.0,137.0,0
2697,56.0,-200.0,130.0,0
2698,56.0,-196.0,136.0,0
2699,54.0,-201.0,133.0,0
2700,54.0,-199.0,134.0,0
2701,60.0,-204.0,136.0,0
2702,48.0,-205.0,134.0,0
2703,56.0,-200.0,134.0,0
2704,57.0,-201.0,133.0,0
2705,53.0,-199.0,140.0,0
2706,56.0,-201.0,132.0,0
2707,57.0,-201.0,135.0,0
2708,56.0,-197.0,135.0,0
2709,57.0,-201.0,136.0,0
2710,56.0,-204.0,139.0,0
2711,56.0,-199.0,130.0,0
2712,56.0,-195.0,132.0,0
2713,59.0,-203.0,136.0,0
2714,56.0,-197.0,135.0,0
2715,55.0,-199.0,136.0,0
2716,55.0,-195.0,136.0,0
2717,55.0,-201.0,135.0,0
2718,59.0,-201.0,129.0,0
2719,56.0,-200.0,132.0,0
2720,52.0,-198.0,137.0,0
2721,55.0,-202.0,136.0,0
2722,54.0,-199.0,135.0,0
2723,55.0,-197.0,137.0,0
2724,55.0,-199.0,135.0,0
2725,57.0,-198.0,136.0,0
2726,57.0,-199.0,136.0,0
2727,55.0,-199.0,133.0,0
2728,55.0,-199.0,136.0,0
2729,55.0,-201.0,133.0,0
2730,54.0,-198.0,136.0,0
2731,56.0,-199.0,132.0,0
2732,55.0,-200.0,133.0,0
2733,57.0,-202.0,137.0,0
2734,57.0,-201.0,141.0,0
2735,55.0,-205.0,135.0,0
2736,55.0,-196.0,132.0,0
2737,55.0,-199.0,134.0,0
2738,51.0,-199.0,133.0,0
2739,54.0,-199.0,134.0,0
2740,50.0,-199.0,132.0,0
2741,50.0,-201.0,135.0,0
2742,48.0,-197.0,131.0,0
2743,51.0,-200.0,136.0,0
2744,51.0,-200.0,136.0,0
2745,53.0,-198.0,140.0,0
2746,59.0,-196.0,132.0,0
2747,54.0,-201.0,134.0,0
2748,54.0,-202.0,135.0,0
2749,59.0,-201.0,135.0,0
2750,54.0,-203.0,136.0,0
2751,53.0,-202.0,135.0,0
2752,56.0,-202.0,133.0,0
2753,55.0,-200.0,132.0,0
2754,54.0,-203.0,135.0,0
2755,56.0,-202.0,133.0,0
2756,52.0,-198.0,135.0,0
2757,52.0,-201.0,134.0,0
2758,54.0,-198.0,134.0,0
2759,57.0,-199.0,133.0,0
2760,52.0,-198.0,135.0,0
2761,52.0,-196.0,132.0,0
2762,56.0,-198.0,133.0,0
2763,55.0,-198.0,135.0,0
2764,54.0,-197.0,133.0,0
2765,56.0,-198.0,137.0,0
2766,52.0,-196.0,138.0,0
2767,54.0,-201.0,134.0,0
2768,55.0,-199.0,135.0,0
2769,55.0,-201.0,141.0,0
2770,55.0,-199.0,139.0,0
2771,53.0,-198.0,133.0,0
2772,56.0,-199.0,136.0,0
2773,54.0,-200.0,132.0,0
2774,54.0,-197.0,135.0,0
2775,56.0,-199.0,133.0,0
2776,54.0,-196.0,133.0,0
2777,57.0,-198.0,131.0,0
2778,56.0,-194.0,138.0,0
2779,52.0,-192.0,135.0,0
2780,52.0,-193.0,129.0,0
2781,56.0,-192.0,125.0,0
2782,54.0,-193.0,123.0,0
2783,48.0,-193.0,131.0,0
2784,48.0,-194.0,137.0,0
2785,47.0,-198.0,147.0,0
2786,51.0,-199.0,147.0,0
2787,55.0,-195.0,137.0,0
2788,50.0,-195.0,129.0,0
2789,57.0,-198.0,130.0,0
2790,47.0,-206.0,139.0,0
2791,47.0,-203.0,143.0,0
2792,50.0,-203.0,142.0,0
2793,50.0,-201.0,138.0,0
2794,51.0,-201.0,139.0,0
2795,48.0,-204.0,135.0,0
2796,48.0,-200.0,132.0,0
2797,47.0,-201.0,131.0,0
2798,50.0,-203.0,131.0,0
2799,51.0,-204.0,139.0,0
2800,53.0,-207.0,135.0,0
2801,56.0,-206.0,134.0,0
2802,60.0,-203.0,134.0,0
2803,58.0,-203.0,132.0,0
2804,57.0,-203.0,131.0,0
2805,58.0,-204.0,130.0,0
2806,58.0,-205.0,130.0,0
2807,56.0,-210.0,127.0,0
2808,58.0,-206.0,128.0,0
2809,55.0,-207.0,123.0,0
2810,55.0,-207.0,127.0,0
2811,49.0,-215.0,135.0,0
2812,53.0,-204.0,126.0,0
2813,52.0,-206.0,125.0,0
2814,54.0,-205.0,124.0,0
2815,50.0,-202.0,123.0,0
2816,51.0,-203.0,126.0,0
2817,53.0,-204.0,127.0,0
2818,51.0,-209.0,125.0,0
2819,51.0,-206.0,128.0,0
2820,52.0,-209.0,125.0,0
2821,52.0,-209.0,130.0,0
2822,45.0,-208.0,132.0,0
2823,48.0,-207.0,129.0,0
2824,49.0,-208.0,132.0,0
2825,45.0,-206.0,131.0,0
2826,43.0,-206.0,132.0,0
2827,42.0,-203.0,134.0,0
2828,40.0,-198.0,131.0,0
2829,38.0,-197.0,133.0,0
2830,34.0,-199.0,134.0,0
2831,32.0,-195.0,133.0,0
2832,32.0,-198.0,136.0,0
2833,31.0,-207.0,139.0,0
2834,32.0,-200.0,137.0,0
2835,33.0,-202.0,134.0,0
2836,38.0,-201.0,135.0,0
2837,39.0,-205.0,134.0,0
2838,47.0,-208.0,134.0,0
2839,51.0,-210.0,133.0,0
2840,56.0,-209.0,136.0,0
2841,62.0,-209.0,130.0,0
2842,63.0,-208.0,129.0,0
2843,68.0,-213.0,131.0,0
2844,65.0,-214.0,126.0,0
2845,66.0,-211.0,127.0,0
2846,67.0,-209.0,129.0,0
2847,65.0,-209.0,132.0,0
2848,62.0,-204.0,128.0,0
2849,61.0,-202.0,129.0,0
2850,59.0,-206.0,127.0,0
2851,54.0,-204.0,127.0,0
2852,54.0,-202.0,129.0,0
2853,51.0,-201.0,130.0,0
2854,46.0,-200.0,130.0,0
2855,47.0,-195.0,132.0,0
2856,46.0,-197.0,131.0,0
2857,41.0,-199.0,134.0,0
2858,40.0,-199.0,136.0,0
2859,40.0,-202.0,135.0,0
2860,40.0,-203.0,133.0,0
2861,40.0,-205.0,131.0,0
2862,40.0,-206.0,136.0,0
2863,42.0,-209.0,136.0,0
2864,36.0,-210.0,129.0,0
2865,41.0,-205.0,130.0,0
2866,27.0,-212.0,128.0,0
2867,35.0,-210.0,129.0,0
2868,32.0,-211.0,123.0,0
2869,35.0,-214.0,127.0,0
2870,33.0,-215.0,123.0,0
2871,30.0,-211.0,123.0,0
2872,30.0,-212.0,124.0,0
2873,32.0,-215.0,122.0,0
2874,34.0,-218.0,123.0,0
2875,30.0,-213.0,121.0,0
2876,33.0,-213.0,124.0,0
2877,42.0,-211.0,109.0,0
2878,35.0,-216.0,122.0,0
2879,37.0,-212.0,120.0,0
2880,37.0,-214.0,118.0,0
2881,36.0,-216.0,122.0,0
2882,39.0,-217.0,124.0,0
2883,36.0,-214.0,123.0,0
2884,35.0,-212.0,122.0,0
2885,40.0,-213.0,122.0,0
2886,41.0,-213.0,121.0,0
2887,37.0,-211.0,122.0,0
2888,46.0,-215.0,113.0,0
2889,39.0,-210.0,123.0,0
2890,41.0,-211.0,120.0,0
2891,40.0,-210.0,121.0,0
2892,42.0,-211.0,123.0,0
2893,40.0,-210.0,125.0,0
2894,41.0,-211.0,120.0,0
2895,39.0,-211.0,122.0,0
2896,41.0,-209.0,124.0,0
2897,39.0,-210.0,127.0,0
2898,40.0,-208.0,120.0,0
2899,44.0,-210.0,127.0,0
2900,40.0,-212.0,127.0,0
2901,45.0,-214.0,126.0,0
2902,46.0,-213.0,126.0,0
2903,44.0,-215.0,128.0,0
2904,47.0,-216.0,129.0,0
2905,45.0,-217.0,125.0,0
2906,49.0,-215.0,123.0,0
2907,46.0,-214.0,124.0,0
2908,44.0,-216.0,123.0,0
2909,37.0,-216.0,119.0,0
2910,36.0,-214.0,125.0,0
2911,33.0,-214.0,122.0,0
2912,35.0,-218.0,119.0,0
2913,36.0,-215.0,114.0,0
2914,43.0,-223.0,111.0,0
2915,44.0,-223.0,113.0,0
2916,52.0,-224.0,113.0,0
2917,52.0,-225.0,110.0,0
2918,47.0,-219.0,114.0,0
2919,49.0,-221.0,114.0,0
2920,49.0,-216.0,114.0,0
2921,51.0,-215.0,119.0,0
2922,50.0,-211.0,120.0,0
2923,49.0,-205.0,121.0,0
2924,44.0,-202.0,125.0,0
2925,45.0,-197.0,128.0,0
2926,48.0,-193.0,131.0,0
2927,45.0,-191.0,132.0,0
2928,47.0,-187.0,136.0,0
2929,51.0,-191.0,134.0,0
2930,50.0,-187.0,136.0,0
2931,49.0,-189.0,134.0,0
2932,54.0,-199.0,131.0,0
2933,54.0,-201.0,130.0,0
2934,55.0,-212.0,128.0,0
2935,50.0,-212.0,124.0,0
2936,50.0,-214.0,119.0,0
2937,49.0,-213.0,122.0,0
2938,50.0,-224.0,119.0,0
2939,46.0,-217.0,120.0,0
2940,51.0,-215.0,118.0,0
2941,53.0,-216.0,121.0,0
2942,50.0,-209.0,119.0,0
2943,52.0,-208.0,125.0,0
2944,52.0,-204.0,125.0,0
2945,55.0,-200.0,126.0,0
2946,53.0,-200.0,124.0,0
2947,50.0,-199.0,126.0,0
2948,52.0,-200.0,127.0,0
2949,46.0,-198.0,128.0,0
2950,50.0,-202.0,127.0,0
2951,49.0,-204.0,125.0,0
2952,51.0,-205.0,120.0,0
2953,53.0,-206.0,114.0,0
2954,48.0,-211.0,119.0,0
2955,51.0,-212.0,115.0,0
2956,48.0,-214.0,116.0,0
2957,51.0,-213.0,116.0,0
2958,57.0,-217.0,115.0,0
2959,61.0,-217.0,116.0,0
2960,60.0,-210.0,115.0,0
2961,62.0,-207.0,123.0,0
2962,66.0,-206.0,121.0,0
2963,69.0,-206.0,126.0,0
2964,69.0,-199.0,124.0,0
2965,74.0,-198.0,125.0,0
2966,76.0,-197.0,123.0,0
2967,76.0,-198.0,127.0,0
2968,81.0,-200.0,125.0,0
2969,80.0,-199.0,129.0,0
2970,83.0,-199.0,128.0,0
2971,85.0,-202.0,131.0,0
2972,78.0,-197.0,129.0,0
2973,74.0,-200.0,135.0,0
2974,70.0,-195.0,133.0,0
2975,65.0,-195.0,130.0,0
2976,68.0,-193.0,132.0,0
2977,66.0,-192.0,130.0,0
2978,63.0,-191.0,129.0,0
2979,61.0,-188.0,128.0,0
2980,62.0,-192.0,127.0,0
2981,62.0,-194.0,127.0,0
2982,60.0,-194.0,128.0,0
2983,56.0,-194.0,129.0,0
2984,55.0,-197.0,127.0,0
2985,60.0,-201.0,127.0,0
2986,55.0,-201.0,130.0,0
2987,57.0,-208.0,128.0,0
2988,56.0,-214.0,126.0,0
2989,55.0,-218.0,124.0,0
2990,53.0,-220.0,124.0,0
2991,52.0,-225.0,118.0,0
2992,48.0,-222.0,120.0,0
2993,45.0,-222.0,113.0,0
2994,45.0,-222.0,109.0,0
2995,47.0,-225.0,120.0,0
2996,43.0,-219.0,113.0,0
2997,44.0,-217.0,117.0,0
2998,55.0,-209.0,113.0,0
2999,61.0,-205.0,117.0,0
3000,62.0,-208.0,119.0,0
3001,61.0,-209.0,120.0,0
3002,61.0,-214.0,120.0,0
3003,57.0,-213.0,119.0,0
3004,49.0,-217.0,122.0,0
3005,45.0,-220.0,116.0,0
3006,40.0,-220.0,114.0,0
3007,32.0,-220.0,110.0,0
3008,34.0,-215.0,115.0,0
3009,31.0,-212.0,112.0,0
3010,33.0,-212.0,107.0,0
3011,28.0,-207.0,112.0,0
3012,25.0,-211.0,115.0,0
3013,26.0,-208.0,117.0,0
3014,24.0,-210.0,113.0,0
3015,30.0,-211.0,118.0,0
3016,28.0,-215.0,115.0,0
3017,29.0,-217.0,111.0,0
3018,35.0,-219.0,111.0,0
3019,30.0,-223.0,114.0,0
3020,32.0,-227.0,114.0,0
3021,31.0,-233.0,107.0,0
3022,33.0,-234.0,106.0,0
3023,32.0,-238.0,103.0,0
3024,31.0,-239.0,105.0,0
3025,37.0,-239.0,111.0,0
3026,40.0,-238.0,104.0,0
3027,37.0,-226.0,103.0,0
3028,47.0,-230.0,105.0,0
3029,46.0,-224.0,112.0,0
3030,50.0,-216.0,110.0,0
3031,53.0,-212.0,113.0,0
3032,51.0,-208.0,114.0,0
3033,45.0,-204.0,119.0,0
3034,48.0,-206.0,114.0,0
3035,53.0,-206.0,110.0,0
3036,49.0,-211.0,108.0,0
3037,44.0,-211.0,113.0,0
3038,46.0,-209.0,112.0,0
3039,47.0,-214.0,115.0,0
3040,32.0,-210.0,117.0,0
3041,45.0,-218.0,117.0,0
3042,46.0,-219.0,114.0,0
3043,46.0,-212.0,116.0,0
3044,49.0,-214.0,120.0,0
3045,58.0,-214.0,117.0,0
3046,55.0,-215.0,119.0,0
3047,56.0,-211.0,111.0,0
3048,63.0,-208.0,109.0,0
3049,61.0,-209.0,110.0,0
3050,58.0,-211.0,111.0,0
3051,56.0,-210.0,113.0,0
3052,56.0,-213.0,124.0,0
3053,63.0,-217.0,124.0,0
3054,48.0,-216.0,122.0,0
3055,58.0,-219.0,121.0,0
3056,62.0,-217.0,120.0,0
3057,57.0,-216.0,121.0,0
3058,61.0,-216.0,123.0,0
3059,64.0,-212.0,118.0,0
3060,64.0,-211.0,116.0,0
3061,64.0,-208.0,122.0,0
3062,59.0,-208.0,124.0,0
3063,65.0,-213.0,112.0,0
3064,59.0,-212.0,110.0,0
3065,57.0,-217.0,118.0,0
3066,57.0,-229.0,125.0,0
3067,56.0,-228.0,126.0,0
3068,58.0,-235.0,126.0,0
3069,58.0,-237.0,127.0,0
3070,58.0,-237.0,116.0,0
3071,62.0,-236.0,120.0,0
3072,59.0,-234.0,125.0,0
3073,54.0,-235.0,117.0,0
3074,60.0,-235.0,122.0,0
3075,66.0,-227.0,113.0,0
3076,66.0,-221.0,118.0,0
3077,70.0,-220.0,115.0,0
3078,62.0,-214.0,111.0,0
3079,66.0,-208.0,110.0,0
3080,64.0,-204.0,111.0,0
3081,60.0,-201.0,97.0,0
3082,64.0,-196.0,101.0,0
3083,55.0,-198.0,93.0,0
3084,52.0,-194.0,101.0,0
3085,46.0,-189.0,103.0,0
3086,41.0,-186.0,107.0,0
3087,39.0,-187.0,110.0,0
3088,33.0,-189.0,109.0,0
3089,32.0,-187.0,109.0,0
3090,32.0,-186.0,120.0,0
3091,29.0,-190.0,122.0,0
3092,34.0,-194.0,127.0,0
3093,39.0,-197.0,132.0,0
3094,35.0,-204.0,130.0,0
3095,38.0,-207.0,125.0,0
3096,37.0,-210.0,126.0,0
3097,38.0,-209.0,121.0,0
3098,41.0,-215.0,121.0,0
3099,41.0,-213.0,121.0,0
3100,44.0,-216.0,120.0,0
3101,45.0,-215.0,115.0,0
3102,78.0,-213.0,123.0,0
3103,42.0,-217.0,110.0,0
3104,41.0,-218.0,115.0,0
3105,47.0,-224.0,116.0,0
3106,56.0,-223.0,111.0,0
3107,55.0,-224.0,111.0,0
3108,47.0,-221.0,111.0,0
3109,50.0,-222.0,116.0,0
3110,48.0,-219.0,118.0,0
3111,50.0,-216.0,123.0,0
3112,25.0,-217.0,126.0,0
3113,27.0,-217.0,128.0,0
3114,23.0,-224.0,122.0,0
3115,18.0,-214.0,123.0,0
3116,23.0,-215.0,111.0,0
3117,17.0,-207.0,104.0,0
3118,15.0,-205.0,110.0,0
3119,13.0,-202.0,115.0,0
3120,16.0,-198.0,115.0,0
3121,21.0,-195.0,114.0,0
3122,20.0,-195.0,112.0,0
3123,23.0,-197.0,113.0,0
3124,25.0,-202.0,114.0,0
3125,26.0,-204.0,104.0,0
3126,29.0,-210.0,107.0,0
3127,25.0,-223.0,114.0,0
3128,33.0,-225.0,107.0,0
3129,30.0,-230.0,104.0,0
3130,26.0,-235.0,106.0,0
3131,29.0,-246.0,102.0,0
3132,30.0,-245.0,97.0,0
3133,26.0,-244.0,102.0,0
3134,38.0,-248.0,96.0,0
3135,39.0,-250.0,95.0,0
3136,42.0,-247.0,92.0,0
3137,41.0,-238.0,92.0,0
3138,38.0,-234.0,85.0,0
3139,47.0,-236.0,85.0,0
3140,52.0,-230.0,83.0,0
3141,49.0,-227.0,88.0,0
3142,56.0,-221.0,82.0,0
3143,59.0,-225.0,84.0,0
3144,61.0,-220.0,79.0,0
3145,60.0,-219.0,77.0,0
3146,57.0,-219.0,76.0,0
3147,62.0,-220.0,78.0,0
3148,64.0,-220.0,76.0,0
3149,62.0,-221.0,92.0,0
3150,61.0,-224.0,86.0,0
3151,59.0,-229.0,87.0,0
3152,50.0,-224.0,90.0,0
3153,58.0,-230.0,87.0,0
3154,58.0,-230.0,92.0,0
3155,47.0,-230.0,89.0,0
3156,38.0,-229.0,88.0,0
3157,36.0,-226.0,87.0,0
3158,43.0,-228.0,88.0,0
3159,38.0,-227.0,86.0,0
3160,32.0,-223.0,89.0,0
3161,30.0,-227.0,87.0,0
3162,32.0,-223.0,87.0,0
3163,34.0,-225.0,88.0,0
3164,32.0,-222.0,82.0,0
3165,30.0,-222.0,77.0,0
3166,28.0,-226.0,79.0,0
3167,30.0,-227.0,73.0,0
3168,30.0,-236.0,73.0,0
3169,28.0,-236.0,71.0,0
3170,28.0,-235.0,70.0,0
3171,24.0,-234.0,68.0,0
3172,26.0,-239.0,71.0,0
3173,28.0,-240.0,68.0,0
3174,26.0,-241.0,68.0,0
3175,25.0,-241.0,70.0,0
3176,24.0,-241.0,66.0,0
3177,24.0,-242.0,67.0,0
3178,22.0,-241.0,66.0,0
3179,17.0,-239.0,63.0,0
3180,22.0,-243.0,64.0,0
3181,15.0,-241.0,64.0,0
3182,9.0,-237.0,66.0,0
3183,12.0,-240.0,67.0,0
3184,11.0,-241.0,65.0,0
3185,8.0,-241.0,64.0,0
3186,3.0,-240.0,62.0,0
3187,7.0,-242.0,64.0,0
3188,4.0,-241.0,58.0,0
3189,6.0,-246.0,61.0,0
3190,8.0,-243.0,60.0,0
3191,15.0,-246.0,51.0,0
3192,11.0,-243.0,49.0,0
3193,19.0,-242.0,50.0,0
3194,16.0,-243.0,47.0,0
3195,18.0,-239.0,52.0,0
3196,19.0,-240.0,50.0,0
3197,12.0,-241.0,54.0,0
3198,13.0,-238.0,54.0,0
3199,11.0,-237.0,54.0,0
3200,12.0,-235.0,58.0,0
3201,15.0,-237.0,54.0,0
3202,10.0,-238.0,58.0,0
3203,7.0,-233.0,53.0,0
3204,6.0,-233.0,53.0,0
3205,5.0,-234.0,54.0,0
3206,6.0,-235.0,53.0,0
3207,3.0,-238.0,50.0,0
3208,5.0,-243.0,54.0,0
3209,8.0,-246.0,42.0,0
3210,10.0,-250.0,46.0,0
3211,16.0,-253.0,46.0,0
3212,16.0,-252.0,52.0,0
3213,8.0,-250.0,44.0,0
3214,6.0,-253.0,48.0,0
3215,14.0,-244.0,55.0,0
3216,9.0,-248.0,57.0,0
3217,17.0,-246.0,60.0,0
3218,20.0,-243.0,56.0,0
3219,18.0,-243.0,58.0,0
3220,24.0,-240.0,63.0,0
3221,25.0,-240.0,61.0,0
3222,24.0,-241.0,58.0,0
3223,26.0,-243.0,57.0,0
3224,22.0,-240.0,60.0,0
3225,26.0,-241.0,61.0,0
3226,31.0,-242.0,55.0,0
3227,33.0,-239.0,61.0,0
3228,30.0,-238.0,63.0,0
3229,27.0,-236.0,65.0,0
3230,31.0,-235.0,65.0,0
3231,30.0,-239.0,66.0,0
3232,25.0,-240.0,61.0,0
3233,21.0,-236.0,58.0,0
3234,22.0,-239.0,64.0,0
3235,22.0,-242.0,61.0,0
3236,13.0,-239.0,68.0,0
3237,17.0,-250.0,61.0,0
3238,16.0,-247.0,58.0,0
3239,19.0,-248.0,51.0,0
3240,21.0,-249.0,51.0,0
3241,24.0,-250.0,48.0,0
3242,30.0,-251.0,44.0,0
3243,26.0,-249.0,44.0,0
3244,25.0,-250.0,40.0,0
3245,29.0,-248.0,45.0,0
3246,31.0,-246.0,45.0,0
3247,21.0,-249.0,38.0,0
3248,18.0,-246.0,37.0,0
3249,20.0,-246.0,35.0,0
3250,17.0,-246.0,33.0,0
3251,14.0,-246.0,33.0,0
3252,16.0,-245.0,31.0,0
3253,15.0,-244.0,30.0,0
3254,9.0,-238.0,26.0,0
3255,9.0,-243.0,37.0,0
3256,7.0,-237.0,35.0,0
3257,8.0,-243.0,34.0,0
3258,1.0,-242.0,33.0,0
3259,5.0,-245.0,35.0,0
3260,0.0,-250.0,35.0,0
3261,0.0,-252.0,38.0,0
3262,-7.0,-253.0,37.0,0
3263,-3.0,-255.0,33.0,0
3264,-1.0,-255.0,33.0,0
3265,-4.0,-250.0,32.0,0
3266,-6.0,-251.0,33.0,0
3267,-5.0,-252.0,34.0,0
3268,1.0,-254.0,32.0,0
3269,-2.0,-249.0,31.0,0
3270,-8.0,-245.0,35.0,0
3271,-6.0,-247.0,34.0,0
3272,-3.0,-242.0,31.0,0
3273,-8.0,-239.0,32.0,0
3274,-11.0,-242.0,30.0,0
3275,-5.0,-246.0,30.0,0
3276,-2.0,-243.0,32.0,0
3277,-2.0,-243.0,27.0,0
3278,-12.0,-247.0,29.0,0
3279,-8.0,-246.0,31.0,0
3280,-9.0,-244.0,29.0,0
3281,-6.0,-244.0,24.0,0
3282,-13.0,-240.0,25.0,0
3283,-13.0,-243.0,30.0,0
3284,-13.0,-243.0,29.0,0
3285,-18.0,-237.0,22.0,0
3286,-13.0,-239.0,28.0,0
3287,-17.0,-245.0,31.0,0
3288,-16.0,-243.0,30.0,0
3289,-12.0,-244.0,36.0,0
3290,-20.0,-246.0,29.0,0
3291,-21.0,-247.0,36.0,0
3292,-16.0,-246.0,31.0,0
3293,-7.0,-247.0,26.0,0
3294,-1.0,-246.0,27.0,0
3295,-2.0,-245.0,27.0,0
3296,-1.0,-245.0,28.0,0
3297,-7.0,-248.0,28.0,0
3298,-19.0,-240.0,28.0,0
3299,-10.0,-243.0,26.0,0
3300,-17.0,-245.0,31.0,0
3301,-16.0,-245.0,29.0,0
3302,-18.0,-247.0,32.0,0
3303,-22.0,-248.0,29.0,0
3304,-20.0,-246.0,30.0,0
3305,-19.0,-239.0,25.0,0
3306,-14.0,-242.0,28.0,0
3307,-15.0,-241.0,27.0,0
3308,-6.0,-237.0,30.0,0
3309,-17.0,-236.0,25.0,0
3310,-22.0,-238.0,17.0,0
3311,-36.0,-242.0,21.0,0
3312,-23.0,-237.0,16.0,0
3313,-27.0,-240.0,15.0,0
3314,-21.0,-242.0,17.0,0
3315,-23.0,-245.0,18.0,0
3316,-34.0,-243.0,14.0,0
3317,-32.0,-244.0,19.0,0
3318,-24.0,-245.0,25.0,0
3319,-39.0,-246.0,20.0,0
3320,-41.0,-249.0,23.0,0
3321,-44.0,-255.0,19.0,0
3322,-43.0,-255.0,28.0,0
3323,-41.0,-254.0,21.0,0
3324,-47.0,-251.0,20.0,0
3325,-41.0,-255.0,19.0,0
3326,-38.0,-253.0,16.0,0
3327,-30.0,-250.0,16.0,0
3328,-27.0,-246.0,16.0,0
3329,-40.0,-246.0,15.0,0
3330,-33.0,-244.0,8.0,0
3331,-36.0,-243.0,5.0,0
3332,-28.0,-247.0,6.0,0
3333,-29.0,-241.0,8.0,0
3334,-27.0,-240.0,11.0,0
3335,-20.0,-238.0,15.0,0
3336,-27.0,-232.0,10.0,0
3337,-21.0,-234.0,12.0,0
3338,-34.0,-234.0,10.0,0
3339,-66.0,-227.0,15.0,0
3340,-72.0,-236.0,15.0,0
3341,-56.0,-245.0,18.0,0
3342,-57.0,-235.0,15.0,0
3343,-54.0,-231.0,10.0,0
3344,-50.0,-248.0,22.0,0
3345,-56.0,-246.0,18.0,0
3346,-47.0,-247.0,11.0,0
3347,-46.0,-244.0,6.0,0
3348,-40.0,-249.0,14.0,0
3349,-45.0,-250.0,6.0,0
3350,-27.0,-243.0,8.0,0
3351,-35.0,-241.0,8.0,0
3352,-41.0,-243.0,6.0,0
3353,-56.0,-245.0,4.0,0
3354,-58.0,-245.0,10.0,0
3355,-59.0,-247.0,3.0,0
3356,-63.0,-251.0,9.0,0
3357,-64.0,-252.0,11.0,0
3358,-65.0,-250.0,8.0,0
3359,-70.0,-251.0,8.0,0
3360,-64.0,-252.0,11.0,0
3361,-63.0,-246.0,10.0,0
3362,-71.0,-243.0,9.0,0
3363,-85.0,-246.0,10.0,0
3364,-97.0,-240.0,0.0,0
3365,-95.0,-244.0,1.0,0
3366,-86.0,-246.0,-3.0,0
3367,-79.0,-243.0,-1.0,0
3368,-86.0,-244.0,-3.0,0
3369,-101.0,-247.0,-11.0,0
3370,-112.0,-244.0,-16.0,0
3371,-103.0,-248.0,-11.0,0
3372,-116.0,-250.0,-12.0,0
3373,-120.0,-255.0,-11.0,0
3374,-117.0,-261.0,-8.0,0
3375,-105.0,-265.0,-4.0,0
3376,-109.0,-262.0,-10.0,0
3377,-114.0,-267.0,-7.0,0
3378,-108.0,-270.0,1.0,0
3379,-119.0,-271.0,0.0,0
3380,-117.0,-272.0,3.0,0
3381,-119.0,-269.0,2.0,0
3382,-118.0,-272.0,0.0,0
3383,-118.0,-268.0,-2.0,0
3384,-116.0,-267.0,-4.0,0
3385,-115.0,-264.0,-7.0,0
3386,-112.0,-267.0,-23.0,0
3387,-103.0,-267.0,-23.0,0
3388,-99.0,-267.0,-27.0,0
3389,-88.0,-267.0,-31.0,0
3390,-83.0,-266.0,-36.0,0
3391,-78.0,-263.0,-40.0,0
3392,-75.0,-260.0,-42.0,0
3393,-72.0,-255.0,-35.0,0
3394,-74.0,-256.0,-36.0,0
3395,-82.0,-251.0,-30.0,0
3396,-87.0,-250.0,-29.0,0
3397,-99.0,-253.0,-31.0,0
3398,-98.0,-245.0,-34.0,0
3399,-100.0,-247.0,-36.0,0
3400,-100.0,-242.0,-44.0,0
3401,-106.0,-247.0,-42.0,0
3402,-98.0,-245.0,-41.0,0
3403,-100.0,-246.0,-40.0,0
3404,-100.0,-242.0,-41.0,0
3405,-95.0,-242.0,-42.0,0
3406,-94.0,-246.0,-42.0,0
3407,-96.0,-243.0,-46.0,0
3408,-97.0,-246.0,-47.0,0
3409,-101.0,-248.0,-49.0,0
3410,-102.0,-251.0,-52.0,0
3411,-97.0,-252.0,-53.0,0
3412,-101.0,-252.0,-56.0,0
3413,-100.0,-250.0,-60.0,0
3414,-104.0,-248.0,-59.0,0
3415,-99.0,-249.0,-60.0,0
3416,-96.0,-250.0,-61.0,0
3417,-94.0,-250.0,-64.0,0
3418,-97.0,-253.0,-61.0,0
3419,-97.0,-249.0,-63.0,0
3420,-92.0,-252.0,-64.0,0
3421,-97.0,-251.0,-60.0,0
3422,-99.0,-244.0,-66.0,0
3423,-97.0,-245.0,-65.0,0
3424,-101.0,-244.0,-65.0,0
3425,-98.0,-239.0,-68.0,0
3426,-97.0,-239.0,-73.0,0
3427,-96.0,-236.0,-68.0,0
3428,-95.0,-235.0,-71.0,0
3429,-95.0,-231.0,-73.0,0
3430,-93.0,-229.0,-71.0,0
3431,-90.0,-230.0,-75.0,0
3432,-88.0,-229.0,-74.0,0
3433,-88.0,-228.0,-75.0,0
3434,-87.0,-232.0,-78.0,0
3435,-89.0,-230.0,-77.0,0
3436,-89.0,-228.0,-76.0,0
3437,-83.0,-227.0,-76.0,0
3438,-85.0,-223.0,-76.0,0
3439,-82.0,-223.0,-83.0,0
3440,-80.0,-225.0,-75.0,0
3441,-78.0,-224.0,-77.0,0
3442,-76.0,-224.0,-74.0,0
3443,-72.0,-227.0,-74.0,0
3444,-72.0,-225.0,-71.0,0
3445,-73.0,-220.0,-75.0,0
3446,-72.0,-223.0,-73.0,0
3447,-69.0,-225.0,-69.0,0
3448,-67.0,-226.0,-67.0,0
3449,-71.0,-221.0,-74.0,0
3450,-72.0,-225.0,-74.0,0
3451,-67.0,-220.0,-67.0,0
3452,-65.0,-219.0,-68.0,0
3453,-66.0,-219.0,-65.0,0
3454,-65.0,-216.0,-68.0,0
3455,-67.0,-215.0,-66.0,0
3456,-68.0,-211.0,-65.0,0
3457,-65.0,-210.0,-63.0,0
3458,-67.0,-211.0,-70.0,0
3459,-69.0,-208.0,-72.0,0
3460,-64.0,-205.0,-77.0,0
3461,-62.0,-208.0,-75.0,0
3462,-59.0,-206.0,-75.0,0
3463,-58.0,-206.0,-81.0,0
3464,-57.0,-207.0,-80.0,0
3465,-58.0,-209.0,-76.0,0
3466,-55.0,-210.0,-77.0,0
3467,-58.0,-214.0,-73.0,0
3468,-58.0,-217.0,-72.0,0
3469,-65.0,-215.0,-72.0,0
3470,-68.0,-217.0,-71.0,0
3471,-69.0,-219.0,-70.0,0
3472,-72.0,-223.0,-74.0,0
3473,-79.0,-224.0,-68.0,0
3474,-78.0,-226.0,-75.0,0
3475,-77.0,-225.0,-75.0,0
3476,-79.0,-229.0,-77.0,0
3477,-77.0,-230.0,-77.0,0
3478,-80.0,-225.0,-75.0,0
3479,-77.0,-226.0,-74.0,0
3480,-76.0,-226.0,-77.0,0
3481,-76.0,-225.0,-76.0,0
3482,-73.0,-225.0,-68.0,0
3483,-65.0,-227.0,-74.0,0
3484,-74.0,-228.0,-73.0,0
3485,-74.0,-224.0,-69.0,0
3486,-75.0,-226.0,-73.0,0
3487,-75.0,-227.0,-74.0,0
3488,-78.0,-222.0,-76.0,0
3489,-79.0,-221.0,-78.0,0
3490,-71.0,-217.0,-75.0,0
3491,-79.0,-217.0,-78.0,0
3492,-79.0,-216.0,-81.0,0
3493,-75.0,-214.0,-86.0,0
3494,-75.0,-216.0,-75.0,0
3495,-75.0,-214.0,-80.0,0
3496,-75.0,-214.0,-80.0,0
3497,-71.0,-218.0,-73.0,0
3498,-69.0,-220.0,-77.0,0
3499,-68.0,-221.0,-77.0,0
3500,-68.0,-225.0,-73.0,0
3501,-69.0,-225.0,-75.0,0
3502,-69.0,-229.0,-70.0,0
3503,-71.0,-228.0,-69.0,0
3504,-73.0,-232.0,-67.0,0
3505,-67.0,-231.0,-68.0,0
3506,-71.0,-235.0,-66.0,0
3507,-71.0,-234.0,-66.0,0
3508,-70.0,-237.0,-66.0,0
3509,-69.0,-235.0,-65.0,0
3510,-69.0,-232.0,-62.0,0
3511,-70.0,-233.0,-64.0,0
3512,-66.0,-233.0,-60.0,0
3513,-66.0,-232.0,-63.0,0
3514,-70.0,-234.0,-62.0,0
3515,-69.0,-231.0,-57.0,0
3516,-69.0,-234.0,-56.0,0
3517,-69.0,-227.0,-53.0,0
3518,-67.0,-224.0,-57.0,0
3519,-69.0,-225.0,-49.0,0
3520,-71.0,-219.0,-51.0,0
3521,-71.0,-214.0,-51.0,0
3522,-76.0,-212.0,-50.0,0
3523,-79.0,-208.0,-49.0,0
3524,-76.0,-208.0,-46.0,0
3525,-80.0,-201.0,-50.0,0
3526,-81.0,-203.0,-49.0,0
3527,-79.0,-201.0,-45.0,0
3528,-78.0,-198.0,-44.0,0
3529,-75.0,-198.0,-42.0,0
3530,-70.0,-197.0,-46.0,0
3531,-72.0,-198.0,-42.0,0
3532,-74.0,-197.0,-45.0,0
3533,-73.0,-195.0,-44.0,0
3534,-66.0,-201.0,-50.0,0
3535,-64.0,-200.0,-52.0,0
3536,-64.0,-201.0,-48.0,0
3537,-64.0,-204.0,-43.0,0
3538,-71.0,-204.0,-45.0,0
3539,-67.0,-203.0,-51.0,0
3540,-69.0,-203.0,-48.0,0
3541,-69.0,-208.0,-50.0,0
3542,-70.0,-205.0,-54.0,0
3543,-71.0,-203.0,-51.0,0
3544,-72.0,-206.0,-52.0,0
3545,-73.0,-207.0,-46.0,0
3546,-76.0,-209.0,-52.0,0
3547,-71.0,-208.0,-53.0,0
3548,-76.0,-212.0,-51.0,0
3549,-70.0,-213.0,-51.0,0
3550,-74.0,-208.0,-54.0,0
3551,-73.0,-208.0,-56.0,0
3552,-76.0,-209.0,-58.0,0
3553,-80.0,-205.0,-57.0,0
3554,-85.0,-204.0,-53.0,0
3555,-81.0,-211.0,-55.0,0
3556,-83.0,-213.0,-57.0,0
3557,-84.0,-212.0,-58.0,0
3558,-87.0,-213.0,-59.0,0
3559,-86.0,-224.0,-58.0,0
3560,-84.0,-218.0,-59.0,0
3561,-84.0,-223.0,-55.0,0
3562,-84.0,-223.0,-58.0,0
3563,-86.0,-226.0,-55.0,0
3564,-86.0,-228.0,-53.0,0
3565,-92.0,-226.0,-54.0,0
3566,-93.0,-228.0,-51.0,0
3567,-100.0,-227.0,-54.0,0
3568,-100.0,-223.0,-54.0,0
3569,-102.0,-223.0,-57.0,0
3570,-100.0,-226.0,-51.0,0
3571,-100.0,-223.0,-54.0,0
3572,-100.0,-222.0,-48.0,0
3573,-97.0,-222.0,-49.0,0
3574,-97.0,-220.0,-50.0,0
3575,-89.0,-222.0,-56.0,0
3576,-87.0,-221.0,-47.0,0
3577,-86.0,-222.0,-47.0,0
3578,-84.0,-219.0,-47.0,0
3579,-83.0,-217.0,-48.0,0
3580,-80.0,-224.0,-49.0,0
3581,-83.0,-216.0,-51.0,0
3582,-81.0,-220.0,-49.0,0
3583,-83.0,-218.0,-51.0,0
3584,-81.0,-222.0,-50.0,0
3585,-81.0,-220.0,-55.0,0
3586,-79.0,-219.0,-54.0,0
3587,-81.0,-216.0,-57.0,0
3588,-79.0,-215.0,-58.0,0
3589,-74.0,-215.0,-57.0,0
3590,-81.0,-213.0,-55.0,0
3591,-70.0,-212.0,-50.0,0
3592,-69.0,-210.0,-51.0,0
3593,-74.0,-206.0,-45.0,0
3594,-72.0,-204.0,-49.0,0
3595,-75.0,-206.0,-46.0,0
3596,-67.0,-209.0,-47.0,0
3597,-64.0,-207.0,-49.0,0
3598,-63.0,-206.0,-50.0,0
3599,-63.0,-206.0,-49.0,0
3600,-60.0,-203.0,-51.0,0
3601,-52.0,-210.0,-56.0,0
3602,-47.0,-211.0,-59.0,0
3603,-44.0,-211.0,-64.0,0
3604,-40.0,-217.0,-67.0,0
3605,-41.0,-221.0,-74.0,0
3606,-39.0,-226.0,-83.0,0
3607,-45.0,-233.0,-90.0,0
3608,-54.0,-226.0,-100.0,0
3609,-61.0,-218.0,-101.0,0
3610,-77.0,-208.0,-105.0,0
3611,-86.0,-196.0,-100.0,0
3612,-88.0,-187.0,-96.0,0
3613,-94.0,-178.0,-82.0,0
3614,-92.0,-176.0,-68.0,0
3615,-82.0,-178.0,-70.0,0
3616,-77.0,-176.0,-57.0,0
3617,-68.0,-179.0,-43.0,0
3618,-71.0,-180.0,-33.0,0
3619,-76.0,-184.0,-21.0,0
3620,-85.0,-188.0,-16.0,0
3621,-100.0,-194.0,-18.0,0
3622,-119.0,-200.0,-19.0,0
3623,-128.0,-206.0,-28.0,0
3624,-141.0,-217.0,-36.0,0
3625,-155.0,-224.0,-48.0,0
3626,-160.0,-235.0,-62.0,0
3627,-166.0,-242.0,-64.0,0
3628,-165.0,-250.0,-69.0,0
3629,-164.0,-254.0,-77.0,0
3630,-162.0,-259.0,-75.0,0
3631,-161.0,-263.0,-74.0,0
3632,-156.0,-264.0,-71.0,0
3633,-150.0,-270.0,-64.0,0
3634,-143.0,-273.0,-61.0,0
3635,-132.0,-270.0,-61.0,0
3636,-128.0,-269.0,-62.0,0
3637,-119.0,-265.0,-61.0,0
3638,-108.0,-257.0,-61.0,0
3639,-99.0,-252.0,-63.0,0
3640,-91.0,-249.0,-65.0,0
3641,-83.0,-240.0,-68.0,0
3642,-77.0,-241.0,-70.0,0
3643,-73.0,-228.0,-70.0,0
3644,-68.0,-227.0,-71.0,0
3645,-66.0,-222.0,-70.0,0
3646,-67.0,-221.0,-72.0,0
3647,-64.0,-223.0,-67.0,0
3648,-65.0,-216.0,-63.0,0
3649,-67.0,-218.0,-60.0,0
3650,-70.0,-217.0,-62.0,0
3651,-75.0,-217.0,-61.0,0
3652,-76.0,-217.0,-56.0,0
3653,-79.0,-217.0,-55.0,0
3654,-80.0,-219.0,-55.0,0
3655,-86.0,-221.0,-58.0,0
3656,-86.0,-225.0,-50.0,0
3657,-95.0,-227.0,-58.0,0
3658,-91.0,-227.0,-47.0,0
3659,-91.0,-228.0,-51.0,0
3660,-92.0,-228.0,-49.0,0
3661,-93.0,-228.0,-50.0,0
3662,-94.0,-229.0,-47.0,0
3663,-94.0,-223.0,-50.0,0
3664,-94.0,-226.0,-49.0,0
3665,-90.0,-226.0,-51.0,0
3666,-91.0,-222.0,-49.0,0
3667,-87.0,-223.0,-50.0,0
3668,-88.0,-222.0,-33.0,0
3669,-93.0,-219.0,-44.0,0
3670,-95.0,-219.0,-39.0,0
3671,-97.0,-220.0,-41.0,0
3672,-98.0,-220.0,-43.0,0
3673,-98.0,-226.0,-48.0,0
3674,-101.0,-221.0,-48.0,0
3675,-101.0,-221.0,-53.0,0
3676,-100.0,-219.0,-50.0,0
3677,-101.0,-223.0,-49.0,0
3678,-97.0,-221.0,-50.0,0
3679,-97.0,-221.0,-55.0,0
3680,-100.0,-217.0,-53.0,0
3681,-87.0,-220.0,-51.0,0
3682,-81.0,-219.0,-49.0,0
3683,-73.0,-216.0,-52.0,0
3684,-65.0,-214.0,-47.0,0
3685,-62.0,-212.0,-49.0,0
3686,-59.0,-210.0,-48.0,0
3687,-47.0,-205.0,-48.0,0
3688,-48.0,-206.0,-45.0,0
3689,-42.0,-200.0,-49.0,0
3690,-41.0,-205.0,-41.0,0
3691,-41.0,-203.0,-44.0,0
3692,-38.0,-199.0,-40.0,0
3693,-40.0,-200.0,-42.0,0
3694,-43.0,-200.0,-41.0,0
3695,-52.0,-198.0,-42.0,0
3696,-54.0,-199.0,-44.0,0
3697,-58.0,-210.0,-43.0,0
3698,-59.0,-213.0,-44.0,0
3699,-62.0,-215.0,-47.0,0
3700,-64.0,-220.0,-41.0,0
3701,-76.0,-224.0,-37.0,0
3702,-77.0,-238.0,-41.0,0
3703,-81.0,-241.0,-40.0,0
3704,-83.0,-247.0,-40.0,0
3705,-82.0,-249.0,-42.0,0
3706,-82.0,-255.0,-39.0,0
3707,-80.0,-257.0,-35.0,0
3708,-77.0,-258.0,-33.0,0
3709,-76.0,-256.0,-41.0,0
3710,-74.0,-255.0,-38.0,0
3711,-67.0,-253.0,-38.0,0
3712,-64.0,-243.0,-45.0,0
3713,-59.0,-247.0,-39.0,0
3714,-56.0,-243.0,-37.0,0
3715,-55.0,-242.0,-43.0,0
3716,-53.0,-241.0,-38.0,0
3717,-58.0,-240.0,-35.0,0
3718,-56.0,-241.0,-32.0,0
3719,-57.0,-244.0,-24.0,0
3720,-63.0,-243.0,-22.0,0
3721,-63.0,-248.0,-15.0,0
3722,-65.0,-248.0,-20.0,0
3723,-63.0,-257.0,-13.0,0
3724,-67.0,-254.0,-15.0,0
3725,-67.0,-253.0,-19.0,0
3726,-70.0,-251.0,-21.0,0
3727,-74.0,-244.0,-28.0,0
3728,-72.0,-240.0,-31.0,0
3729,-71.0,-238.0,-29.0,0
3730,-71.0,-233.0,-31.0,0
3731,-72.0,-229.0,-26.0,0
3732,-70.0,-226.0,-30.0,0
3733,-68.0,-236.0,-23.0,0
3734,-62.0,-231.0,-26.0,0
3735,-59.0,-231.0,-22.0,0
3736,-55.0,-238.0,-21.0,0
3737,-53.0,-241.0,-18.0,0
3738,-52.0,-242.0,-25.0,0
3739,-50.0,-247.0,-18.0,0
3740,-48.0,-249.0,-16.0,0
3741,-52.0,-244.0,-24.0,0
3742,-50.0,-248.0,-18.0,0
3743,-50.0,-249.0,-18.0,0
3744,-44.0,-240.0,-20.0,0
3745,-49.0,-238.0,-10.0,0
3746,-52.0,-233.0,-10.0,0
3747,-51.0,-233.0,-11.0,0
3748,-51.0,-229.0,-7.0,0
3749,-56.0,-232.0,-10.0,0
3750,-54.0,-233.0,-10.0,0
3751,-52.0,-238.0,-21.0,0
3752,-52.0,-242.0,-14.0,0
3753,-56.0,-241.0,-16.0,0
3754,-60.0,-251.0,-7.0,0
3755,-57.0,-255.0,-20.0,0
3756,-60.0,-254.0,-16.0,0
3757,-61.0,-254.0,-16.0,0
3758,-60.0,-255.0,-15.0,0
3759,-58.0,-251.0,-19.0,0
3760,-61.0,-248.0,-16.0,0
3761,-63.0,-243.0,-15.0,0
3762,-67.0,-236.0,-15.0,0
3763,-71.0,-237.0,-11.0,0
3764,-72.0,-237.0,-14.0,0
3765,-75.0,-228.0,-11.0,0
3766,-75.0,-226.0,-7.0,0
3767,-77.0,-224.0,-14.0,0
3768,-74.0,-227.0,-17.0,0
3769,-71.0,-228.0,-14.0,0
3770,-67.0,-227.0,-13.0,0
3771,-70.0,-229.0,-16.0,0
3772,-63.0,-235.0,-15.0,0
3773,-58.0,-236.0,-16.0,0
3774,-48.0,-234.0,-18.0,0
3775,-47.0,-232.0,-16.0,0
3776,-41.0,-233.0,-12.0,0
3777,-37.0,-230.0,-15.0,0
3778,-35.0,-232.0,-13.0,0
3779,-42.0,-232.0,-13.0,0
3780,-38.0,-233.0,-12.0,0
3781,-45.0,-231.0,-11.0,0
3782,-47.0,-231.0,-14.0,0
3783,-47.0,-234.0,-15.0,0
3784,-49.0,-239.0,-21.0,0
3785,-49.0,-241.0,-18.0,0
3786,-49.0,-240.0,-29.0,0
3787,-48.0,-237.0,-30.0,0
3788,-43.0,-244.0,-21.0,0
3789,-36.0,-248.0,-14.0,0
3790,-38.0,-252.0,-8.0,0
3791,-35.0,-255.0,-4.0,0
3792,-31.0,-258.0,-4.0,0
3793,-25.0,-260.0,-4.0,0
3794,-18.0,-260.0,-8.0,0
3795,-19.0,-263.0,-9.0,0
3796,-17.0,-259.0,-5.0,0
3797,-19.0,-259.0,-6.0,0
3798,-21.0,-256.0,-11.0,0
3799,-25.0,-250.0,-11.0,0
3800,-34.0,-243.0,-9.0,0
3801,-38.0,-241.0,-14.0,0
3802,-36.0,-237.0,-11.0,0
3803,-42.0,-239.0,-8.0,0
3804,-43.0,-231.0,-13.0,0
3805,-40.0,-231.0,-12.0,0
3806,-32.0,-236.0,-9.0,0
3807,-33.0,-237.0,-11.0,0
3808,-34.0,-238.0,-14.0,0
3809,-25.0,-239.0,-7.0,0
3810,-23.0,-245.0,-3.0,0
3811,-17.0,-246.0,-10.0,0
3812,-12.0,-249.0,-6.0,0
3813,-6.0,-251.0,-4.0,0
3814,-9.0,-256.0,-7.0,0
3815,-6.0,-254.0,0.0,0
3816,-3.0,-255.0,-5.0,0
3817,-1.0,-257.0,-6.0,0
3818,-2.0,-255.0,-6.0,0
3819,0.0,-254.0,-6.0,0
3820,-8.0,-250.0,-7.0,0
3821,-13.0,-256.0,-16.0,0
3822,-11.0,-255.0,-11.0,0
3823,-13.0,-252.0,-14.0,0
3824,-18.0,-251.0,-8.0,0
3825,-19.0,-254.0,-12.0,0
3826,-17.0,-252.0,-8.0,0
3827,-28.0,-249.0,-4.0,0
3828,-21.0,-244.0,-11.0,0
3829,-26.0,-250.0,-11.0,0
3830,-32.0,-248.0,-5.0,0
3831,-32.0,-247.0,-12.0,0
3832,-28.0,-247.0,-4.0,0
3833,-27.0,-245.0,-2.0,0
3834,-30.0,-244.0,-5.0,0
3835,-24.0,-244.0,0.0,0
3836,-25.0,-245.0,2.0,0
3837,-29.0,-246.0,5.0,0
3838,-24.0,-244.0,8.0,0
3839,-20.0,-245.0,13.0,0
3840,-24.0,-244.0,13.0,0
3841,-19.0,-257.0,12.0,0
3842,-17.0,-250.0,5.0,0
3843,-18.0,-250.0,8.0,0
3844,-18.0,-254.0,2.0,0
3845,-16.0,-252.0,4.0,0
3846,-17.0,-253.0,2.0,0
3847,-17.0,-253.0,5.0,0
3848,-17.0,-248.0,7.0,0
3849,-11.0,-247.0,6.0,0
3850,-12.0,-241.0,11.0,0
3851,-10.0,-243.0,8.0,0
3852,-13.0,-250.0,12.0,0
3853,-11.0,-243.0,12.0,0
3854,-6.0,-248.0,9.0,0
3855,-7.0,-247.0,7.0,0
3856,-2.0,-254.0,11.0,0
3857,0.0,-256.0,9.0,0
3858,1.0,-258.0,14.0,0
3859,-1.0,-261.0,13.0,0
3860,-4.0,-262.0,15.0,0
3861,-5.0,-260.0,12.0,0
3862,-5.0,-260.0,3.0,0
3863,-3.0,-256.0,6.0,0
3864,-5.0,-252.0,6.0,0
3865,-10.0,-251.0,5.0,0
3866,-6.0,-252.0,7.0,0
3867,-10.0,-247.0,3.0,0
3868,-7.0,-245.0,0.0,0
3869,-6.0,-244.0,1.0,0
3870,-3.0,-246.0,2.0,0
3871,-3.0,-243.0,-1.0,0
3872,-2.0,-239.0,-4.0,0
3873,-2.0,-236.0,-3.0,0
3874,-2.0,-239.0,-9.0,0
3875,-2.0,-240.0,-11.0,0
3876,0.0,-239.0,-10.0,0
3877,0.0,-241.0,-7.0,0
3878,-3.0,-241.0,-7.0,0
3879,0.0,-243.0,-10.0,0
3880,0.0,-243.0,-9.0,0
3881,2.0,-246.0,-7.0,0
3882,3.0,-244.0,-5.0,0
3883,-1.0,-243.0,-10.0,0
3884,0.0,-241.0,-15.0,0
3885,1.0,-246.0,-15.0,0
3886,1.0,-241.0,-17.0,0
3887,2.0,-241.0,-18.0,0
3888,1.0,-239.0,-20.0,0
3889,2.0,-238.0,-22.0,0
3890,1.0,-238.0,-24.0,0
3891,2.0,-237.0,-22.0,0
3892,7.0,-238.0,-33.0,0
3893,6.0,-239.0,-30.0,0
3894,3.0,-234.0,-24.0,0
3895,7.0,-238.0,-27.0,0
3896,12.0,-242.0,-24.0,0
3897,10.0,-240.0,-26.0,0
3898,8.0,-240.0,-22.0,0
3899,7.0,-239.0,-18.0,0
3900,10.0,-243.0,-20.0,0
3901,9.0,-242.0,-17.0,0
3902,10.0,-243.0,-3.0,0
3903,9.0,-241.0,-5.0,0
3904,13.0,-239.0,-10.0,0
3905,16.0,-235.0,7.0,0
3906,9.0,-237.0,-8.0,0
3907,10.0,-237.0,-4.0,0
3908,15.0,-235.0,-3.0,0
3909,22.0,-239.0,1.0,0
3910,24.0,-242.0,2.0,0
3911,28.0,-248.0,6.0,0
3912,30.0,-248.0,8.0,0
3913,30.0,-247.0,13.0,0
3914,38.0,-245.0,15.0,0
3915,38.0,-242.0,17.0,0
3916,42.0,-242.0,18.0,0
3917,43.0,-242.0,20.0,0
3918,46.0,-239.0,21.0,0
3919,45.0,-244.0,20.0,0
3920,42.0,-247.0,18.0,0
3921,37.0,-250.0,19.0,0
3922,34.0,-252.0,20.0,0
3923,34.0,-261.0,20.0,0
3924,27.0,-268.0,22.0,0
3925,28.0,-282.0,22.0,0
3926,21.0,-287.0,15.0,0
3927,15.0,-287.0,15.0,0
3928,18.0,-296.0,14.0,0
3929,15.0,-302.0,14.0,0
3930,10.0,-299.0,10.0,0
3931,8.0,-301.0,13.0,0
3932,6.0,-298.0,12.0,0
3933,2.0,-291.0,7.0,0
3934,5.0,-285.0,16.0,0
3935,2.0,-273.0,21.0,0
3936,1.0,-262.0,21.0,0
3937,1.0,-253.0,20.0,0
3938,2.0,-249.0,23.0,0
3939,5.0,-239.0,28.0,0
3940,7.0,-232.0,27.0,0
3941,9.0,-227.0,26.0,0
3942,13.0,-224.0,24.0,0
3943,17.0,-221.0,24.0,0
3944,17.0,-220.0,22.0,0
3945,23.0,-221.0,22.0,0
3946,21.0,-217.0,18.0,0
3947,22.0,-219.0,19.0,0
3948,30.0,-226.0,15.0,0
3949,32.0,-229.0,18.0,0
3950,31.0,-230.0,18.0,0
3951,35.0,-232.0,17.0,0
3952,39.0,-231.0,17.0,0
3953,44.0,-236.0,12.0,0
3954,45.0,-236.0,13.0,0
3955,50.0,-240.0,10.0,0
3956,52.0,-236.0,6.0,0
3957,56.0,-240.0,6.0,0
3958,57.0,-240.0,1.0,0
3959,55.0,-249.0,3.0,0
3960,57.0,-246.0,9.0,0
3961,58.0,-244.0,13.0,0
3962,50.0,-247.0,11.0,0
3963,44.0,-249.0,20.0,0
3964,41.0,-254.0,18.0,0
3965,41.0,-256.0,14.0,0
3966,34.0,-258.0,8.0,0
3967,27.0,-265.0,17.0,0
3968,15.0,-270.0,25.0,0
3969,7.0,-275.0,25.0,0
3970,7.0,-281.0,32.0,0
3971,4.0,-279.0,27.0,0
3972,4.0,-276.0,26.0,0
3973,6.0,-267.0,16.0,0
3974,4.0,-263.0,13.0,0
3975,5.0,-259.0,11.0,0
3976,10.0,-255.0,11.0,0
3977,7.0,-250.0,1.0,0
3978,10.0,-244.0,7.0,0
3979,12.0,-241.0,-1.0,0
3980,6.0,-241.0,-1.0,0
3981,2.0,-235.0,-5.0,0
3982,2.0,-235.0,1.0,0
3983,3.0,-237.0,6.0,0
3984,-2.0,-234.0,5.0,0
3985,-2.0,-238.0,4.0,0
3986,0.0,-243.0,5.0,0
3987,-3.0,-242.0,0.0,0
3988,-4.0,-244.0,0.0,0
3989,-6.0,-238.0,0.0,0
3990,-2.0,-238.0,0.0,0
3991,-2.0,-237.0,5.0,0
3992,-10.0,-230.0,-2.0,0
3993,-13.0,-230.0,10.0,0
3994,-14.0,-228.0,8.0,0
3995,-14.0,-227.0,11.0,0
3996,-13.0,-227.0,12.0,0
3997,-13.0,-224.0,10.0,0
3998,-12.0,-224.0,10.0,0
3999,-12.0,-229.0,4.0,0
4000,-11.0,-235.0,6.0,0
4001,-4.0,-241.0,6.0,0
4002,-11.0,-243.0,3.0,0
4003,-10.0,-250.0,9.0,0
4004,-3.0,-257.0,9.0,0
4005,-4.0,-261.0,10.0,0
4006,-1.0,-267.0,8.0,0
4007,-6.0,-268.0,17.0,0
4008,-7.0,-269.0,17.0,0
4009,0.0,-274.0,16.0,0
4010,-2.0,-272.0,12.0,0
4011,0.0,-273.0,14.0,0
4012,-3.0,-274.0,11.0,0
4013,0.0,-276.0,7.0,0
4014,-5.0,-270.0,8.0,0
4015,-7.0,-264.0,6.0,0
4016,-1.0,-258.0,6.0,0
4017,0.0,-254.0,9.0,0
4018,-1.0,-252.0,7.0,0
4019,-3.0,-245.0,11.0,0
4020,-4.0,-240.0,17.0,0
4021,2.0,-243.0,16.0,0
4022,-1.0,-239.0,18.0,0
4023,-2.0,-243.0,20.0,0
4024,-11.0,-239.0,19.0,0
4025,-11.0,-242.0,20.0,0
4026,-17.0,-239.0,16.0,0
4027,-22.0,-237.0,19.0,0
4028,-20.0,-232.0,15.0,0
4029,-20.0,-233.0,18.0,0
4030,-22.0,-232.0,24.0,0
4031,-28.0,-231.0,28.0,0
4032,-28.0,-235.0,30.0,0
4033,-30.0,-241.0,32.0,0
4034,-36.0,-237.0,40.0,0
4035,-35.0,-251.0,38.0,0
4036,-29.0,-249.0,37.0,0
4037,-27.0,-244.0,35.0,0
4038,-27.0,-244.0,36.0,0
4039,-22.0,-246.0,32.0,0
4040,-19.0,-241.0,30.0,0
4041,-10.0,-246.0,29.0,0
4042,-3.0,-242.0,29.0,0
4043,1.0,-247.0,30.0,0
4044,5.0,-250.0,27.0,0
4045,3.0,-252.0,30.0,0
4046,5.0,-244.0,36.0,0
4047,4.0,-245.0,37.0,0
4048,4.0,-241.0,37.0,0
4049,4.0,-243.0,30.0,0
4050,3.0,-242.0,29.0,0
4051,0.0,-240.0,25.0,0
4052,-1.0,-234.0,28.0,0
4053,-3.0,-232.0,21.0,0
4054,-2.0,-230.0,17.0,0
4055,-2.0,-229.0,21.0,0
4056,-5.0,-227.0,21.0,0
4057,-3.0,-230.0,23.0,0
4058,-4.0,-237.0,31.0,0
4059,-8.0,-240.0,29.0,0
4060,-8.0,-244.0,25.0,0
4061,-3.0,-252.0,27.0,0
4062,-6.0,-253.0,21.0,0
4063,0.0,-258.0,21.0,0
4064,-1.0,-263.0,19.0,0
4065,0.0,-258.0,22.0,0
4066,1.0,-262.0,20.0,0
4067,5.0,-268.0,25.0,0
4068,3.0,-262.0,26.0,0
4069,2.0,-260.0,21.0,0
4070,-1.0,-256.0,17.0,0
4071,-5.0,-252.0,17.0,0
4072,-8.0,-245.0,14.0,0
4073,-13.0,-244.0,13.0,0
4074,-16.0,-244.0,10.0,0
4075,-17.0,-244.0,10.0,0
4076,-19.0,-243.0,19.0,0
4077,-19.0,-242.0,18.0,0
4078,-22.0,-246.0,19.0,0
4079,-21.0,-248.0,24.0,0
4080,-21.0,-248.0,24.0,0
4081,-21.0,-250.0,27.0,0
4082,-17.0,-249.0,25.0,0
4083,-14.0,-247.0,23.0,0
4084,-14.0,-249.0,25.0,0
4085,-11.0,-247.0,30.0,0
4086,-11.0,-245.0,27.0,0
4087,-10.0,-246.0,27.0,0
4088,-5.0,-242.0,25.0,0
4089,0.0,-244.0,26.0,0
4090,-4.0,-242.0,26.0,0
4091,0.0,-242.0,23.0,0
4092,0.0,-241.0,23.0,0
4093,0.0,-243.0,20.0,0
4094,1.0,-247.0,29.0,0
4095,1.0,-243.0,20.0,0
4096,4.0,-249.0,23.0,0
4097,2.0,-246.0,23.0,0
4098,2.0,-248.0,27.0,0
4099,2.0,-250.0,19.0,0
4100,4.0,-243.0,21.0,0
4101,5.0,-246.0,19.0,0
4102,3.0,-245.0,23.0,0
4103,3.0,-247.0,24.0,0
4104,4.0,-244.0,24.0,0
4105,3.0,-245.0,29.0,0
4106,7.0,-246.0,27.0,0
4107,6.0,-247.0,27.0,0
4108,4.0,-246.0,24.0,0
4109,4.0,-244.0,22.0,0
4110,7.0,-244.0,20.0,0
4111,4.0,-246.0,24.0,0
4112,2.0,-245.0,23.0,0
4113,3.0,-244.0,23.0,0
4114,2.0,-245.0,26.0,0
4115,1.0,-247.0,28.0,0
4116,2.0,-250.0,21.0,0
4117,4.0,-248.0,24.0,0
4118,2.0,-245.0,29.0,0
4119,1.0,-243.0,24.0,0
4120,0.0,-244.0,22.0,0
4121,1.0,-245.0,25.0,0
4122,0.0,-245.0,26.0,0
4123,1.0,-243.0,26.0,0
4124,0.0,-244.0,26.0,0
4125,-2.0,-245.0,27.0,0
4126,0.0,-247.0,33.0,0
4127,-2.0,-245.0,29.0,0
4128,0.0,-249.0,28.0,0
4129,1.0,-247.0,28.0,0
4130,0.0,-244.0,23.0,0
4131,-5.0,-244.0,23.0,0
4132,0.0,-249.0,24.0,0
4133,-3.0,-249.0,28.0,0
4134,1.0,-252.0,25.0,0
4135,0.0,-253.0,21.0,0
4136,-2.0,-251.0,26.0,0
4137,1.0,-250.0,26.0,0
4138,-1.0,-245.0,26.0,0
4139,0.0,-250.0,30.0,0
4140,-2.0,-252.0,21.0,0
4141,0.0,-248.0,26.0,0
4142,2.0,-246.0,32.0,0
4143,0.0,-250.0,23.0,0
4144,-1.0,-246.0,22.0,0
4145,1.0,-248.0,20.0,0
4146,1.0,-246.0,21.0,0
4147,0.0,-245.0,20.0,0
4148,1.0,-247.0,21.0,0
4149,0.0,-247.0,15.0,0
4150,-1.0,-249.0,18.0,0
4151,-2.0,-247.0,19.0,0
4152,0.0,-246.0,16.0,0
4153,1.0,-249.0,19.0,0
4154,1.0,-247.0,16.0,0
4155,1.0,-250.0,18.0,0
4156,2.0,-251.0,19.0,0
4157,0.0,-249.0,17.0,0
4158,3.0,-253.0,15.0,0
4159,2.0,-250.0,14.0,0
4160,1.0,-247.0,16.0,0
4161,0.0,-248.0,15.0,0
4162,0.0,-249.0,15.0,0
4163,1.0,-250.0,14.0,0
4164,1.0,-246.0,15.0,0
4165,0.0,-245.0,17.0,0
4166,2.0,-247.0,14.0,0
4167,0.0,-242.0,13.0,0
4168,0.0,-243.0,16.0,0
4169,0.0,-248.0,18.0,0
4170,-1.0,-247.0,15.0,0
4171,-1.0,-245.0,14.0,0
4172,0.0,-246.0,16.0,0
4173,-3.0,-243.0,16.0,0
4174,3.0,-252.0,16.0,0
4175,1.0,-248.0,16.0,0
4176,-2.0,-246.0,19.0,0
4177,-6.0,-248.0,16.0,0
4178,0.0,-250.0,16.0,0
4179,0.0,-250.0,14.0,0
4180,0.0,-251.0,18.0,0
4181,-3.0,-250.0,18.0,0
4182,-1.0,-249.0,14.0,0
4183,-5.0,-245.0,15.0,0
4184,-5.0,-247.0,13.0,0
4185,-10.0,-250.0,17.0,0
4186,-5.0,-250.0,19.0,0
4187,-2.0,-245.0,17.0,0
4188,-2.0,-251.0,16.0,0
4189,-2.0,-251.0,18.0,0
4190,-1.0,-244.0,13.0,0
4191,0.0,-250.0,19.0,0
4192,0.0,-248.0,22.0,0
4193,-2.0,-250.0,15.0,0
4194,-1.0,-246.0,15.0,0
4195,-5.0,-239.0,10.0,0
4196,-4.0,-244.0,16.0,0
4197,-1.0,-246.0,14.0,0
4198,-2.0,-245.0,16.0,0
4199,0.0,-247.0,16.0,0
4200,1.0,-248.0,20.0,0
4201,0.0,-247.0,13.0,0
4202,1.0,-249.0,13.0,0
4203,0.0,-248.0,18.0,0
4204,-3.0,-248.0,15.0,0
4205,-1.0,-249.0,13.0,0
4206,2.0,-247.0,17.0,0
4207,-1.0,-248.0,14.0,0
4208,-2.0,-248.0,13.0,0
4209,-1.0,-248.0,15.0,0
4210,-4.0,-244.0,17.0,0
4211,-3.0,-249.0,14.0,0
4212,0.0,-245.0,12.0,0
4213,0.0,-246.0,15.0,0
4214,0.0,-245.0,14.0,0
4215,-1.0,-247.0,11.0,0
4216,3.0,-249.0,23.0,0
4217,4.0,-248.0,22.0,0
4218,2.0,-247.0,14.0,0
4219,0.0,-250.0,15.0,0
4220,1.0,-247.0,17.0,0
4221,1.0,-250.0,16.0,0
4222,0.0,-250.0,18.0,0
4223,-1.0,-251.0,14.0,0
4224,1.0,-250.0,14.0,0
4225,1.0,-249.0,15.0,0
4226,4.0,-250.0,14.0,0
4227,3.0,-249.0,18.0,0
4228,0.0,-249.0,16.0,0
4229,0.0,-246.0,17.0,0
4230,-2.0,-246.0,18.0,0
4231,0.0,-248.0,16.0,0
4232,0.0,-250.0,14.0,0
4233,-3.0,-248.0,13.0,0
4234,-1.0,-249.0,16.0,0
4235,-3.0,-244.0,17.0,0
4236,0.0,-248.0,14.0,0
4237,1.0,-248.0,15.0,0
4238,-7.0,-248.0,11.0,0
4239,1.0,-249.0,18.0,0
4240,-1.0,-249.0,14.0,0
4241,0.0,-250.0,19.0,0
4242,0.0,-247.0,18.0,0
4243,0.0,-249.0,16.0,0
4244,1.0,-246.0,12.0,0
4245,-1.0,-245.0,10.0,0
4246,2.0,-250.0,17.0,0
4247,-2.0,-245.0,14.0,0
4248,0.0,-247.0,17.0,0
4249,4.0,-247.0,16.0,0
4250,2.0,-246.0,15.0,0
4251,-1.0,-251.0,15.0,0
4252,0.0,-249.0,15.0,0
4253,2.0,-247.0,13.0,0
4254,2.0,-245.0,19.0,0
4255,3.0,-250.0,13.0,0
4256,1.0,-249.0,15.0,0
4257,2.0,-246.0,17.0,0
4258,1.0,-245.0,17.0,0
4259,3.0,-248.0,17.0,0
4260,1.0,-249.0,13.0,0
4261,2.0,-248.0,15.0,0
4262,4.0,-247.0,16.0,0
4263,1.0,-248.0,16.0,0
4264,2.0,-249.0,16.0,0
4265,2.0,-250.0,12.0,0
4266,0.0,-250.0,18.0,0
4267,1.0,-252.0,14.0,0
4268,0.0,-247.0,15.0,0
4269,0.0,-251.0,10.0,0
4270,4.0,-249.0,14.0,0
4271,-1.0,-248.0,9.0,0
4272,3.0,-249.0,11.0,0
4273,1.0,-248.0,13.0,0
4274,3.0,-250.0,15.0,0
4275,0.0,-249.0,15.0,0
4276,3.0,-250.0,16.0,0
4277,2.0,-246.0,17.0,0
4278,1.0,-248.0,19.0,0
4279,1.0,-249.0,12.0,0
4280,0.0,-247.0,10.0,0
4281,0.0,-245.0,14.0,0
4282,2.0,-247.0,14.0,0
4283,0.0,-250.0,14.0,0
4284,1.0,-251.0,10.0,0
4285,1.0,-249.0,11.0,0
4286,0.0,-249.0,14.0,0
4287,1.0,-246.0,14.0,0
4288,-1.0,-245.0,13.0,0
4289,1.0,-249.0,15.0,0
4290,-3.0,-246.0,15.0,0
4291,0.0,-244.0,11.0,0
4292,1.0,-249.0,11.0,0
4293,0.0,-245.0,14.0,0
4294,1.0,-249.0,12.0,0
4295,-1.0,-250.0,16.0,0
4296,0.0,-251.0,12.0,0
4297,0.0,-245.0,13.0,0
4298,-1.0,-249.0,11.0,0
4299,0.0,-250.0,16.0,0
4300,-3.0,-248.0,11.0,0
4301,-1.0,-245.0,11.0,0
4302,1.0,-249.0,10.0,0
4303,-3.0,-247.0,16.0,0
4304,0.0,-248.0,13.0,0
4305,0.0,-253.0,14.0,0
4306,1.0,-252.0,13.0,0
4307,0.0,-247.0,13.0,0
4308,1.0,-247.0,11.0,0
4309,0.0,-245.0,8.0,0
4310,1.0,-249.0,14.0,0
4311,1.0,-247.0,15.0,0
4312,1.0,-249.0,12.0,0
4313,-3.0,-252.0,16.0,0
4314,0.0,-249.0,13.0,0
4315,0.0,-246.0,12.0,0
4316,0.0,-247.0,11.0,0
4317,0.0,-249.0,13.0,0
4318,-1.0,-246.0,14.0,0
4319,-1.0,-247.0,14.0,0
4320,0.0,-246.0,15.0,0
4321,-8.0,-244.0,17.0,0
4322,0.0,-247.0,18.0,0
4323,-1.0,-249.0,14.0,0
4324,-2.0,-245.0,17.0,0
4325,-3.0,-247.0,13.0,0
4326,0.0,-246.0,13.0,0
4327,0.0,-247.0,15.0,0
4328,0.0,-250.0,18.0,0
4329,1.0,-250.0,14.0,0
4330,-5.0,-247.0,10.0,0
4331,-1.0,-250.0,15.0,0
4332,0.0,-244.0,13.0,0
4333,0.0,-253.0,15.0,0
4334,0.0,-252.0,14.0,0
4335,0.0,-248.0,14.0,0
4336,0.0,-252.0,15.0,0
4337,0.0,-249.0,17.0,0
4338,0.0,-248.0,14.0,0
4339,0.0,-246.0,17.0,0
4340,0.0,-251.0,16.0,0
4341,0.0,-245.0,16.0,0
4342,1.0,-249.0,18.0,0
4343,0.0,-252.0,15.0,0
4344,-3.0,-245.0,18.0,0
4345,-1.0,-248.0,15.0,0
4346,-1.0,-249.0,14.0,0
4347,0.0,-246.0,19.0,0
4348,0.0,-247.0,14.0,0
4349,0.0,-248.0,14.0,0
4350,-1.0,-247.0,16.0,0
4351,1.0,-249.0,16.0,0
4352,-2.0,-250.0,17.0,0
4353,-1.0,-245.0,19.0,0
4354,-2.0,-242.0,14.0,0
4355,0.0,-248.0,14.0,0
4356,0.0,-248.0,14.0,0
4357,0.0,-246.0,12.0,0
4358,2.0,-249.0,16.0,0
4359,0.0,-250.0,13.0,0
4360,0.0,-246.0,16.0,0
4361,0.0,-243.0,16.0,0
4362,-2.0,-246.0,14.0,0
4363,1.0,-249.0,14.0,0
4364,0.0,-247.0,19.0,0
4365,0.0,-247.0,13.0,0
4366,3.0,-250.0,28.0,0
4367,0.0,-248.0,16.0,0
4368,0.0,-245.0,16.0,0
4369,-2.0,-248.0,18.0,0
4370,0.0,-244.0,14.0,0
4371,1.0,-248.0,18.0,0
4372,1.0,-249.0,12.0,0
4373,0.0,-248.0,14.0,0
4374,1.0,-247.0,17.0,0
4375,0.0,-246.0,16.0,0
4376,-2.0,-249.0,10.0,0
4377,0.0,-247.0,17.0,0
4378,-2.0,-248.0,14.0,0
4379,1.0,-249.0,14.0,0
4380,1.0,-252.0,16.0,0
4381,0.0,-248.0,14.0,0
4382,0.0,-250.0,9.0,0
4383,1.0,-249.0,20.0,0
4384,1.0,-245.0,11.0,0
4385,-1.0,-247.0,19.0,0
4386,1.0,-249.0,18.0,0
4387,0.0,-250.0,11.0,0
4388,0.0,-248.0,15.0,0
4389,0.0,-247.0,11.0,0
4390,1.0,-250.0,17.0,0
4391,-3.0,-246.0,13.0,0
4392,1.0,-248.0,16.0,0
4393,0.0,-248.0,16.0,0
4394,1.0,-252.0,13.0,0
4395,1.0,-250.0,17.0,0
4396,0.0,-248.0,13.0,0
4397,-2.0,-249.0,10.0,0
4398,1.0,-243.0,16.0,0
4399,0.0,-246.0,12.0,0
4400,0.0,-250.0,17.0,0
4401,0.0,-249.0,14.0,0
4402,0.0,-243.0,17.0,0
4403,0.0,-249.0,13.0,0
4404,2.0,-249.0,15.0,0
4405,1.0,-243.0,13.0,0
4406,1.0,-248.0,15.0,0
4407,0.0,-247.0,14.0,0
4408,-1.0,-251.0,19.0,0
4409,-4.0,-247.0,14.0,0
4410,-4.0,-248.0,10.0,0
4411,-1.0,-249.0,17.0,0
4412,0.0,-249.0,15.0,0
4413,0.0,-247.0,18.0,0
4414,0.0,-246.0,15.0,0
4415,1.0,-250.0,14.0,0
4416,1.0,-248.0,17.0,0
4417,0.0,-243.0,15.0,0
4418,1.0,-247.0,17.0,0
4419,-1.0,-247.0,14.0,0
4420,-1.0,-244.0,16.0,0
4421,0.0,-246.0,12.0,0
4422,1.0,-250.0,19.0,0
4423,0.0,-247.0,16.0,0
4424,1.0,-246.0,14.0,0
4425,1.0,-248.0,16.0,0
4426,-1.0,-250.0,13.0,0
4427,1.0,-249.0,13.0,0
4428,-2.0,-250.0,17.0,0
4429,-1.0,-246.0,18.0,0
4430,-1.0,-248.0,13.0,0
4431,1.0,-247.0,15.0,0
4432,0.0,-246.0,17.0,0
4433,0.0,-247.0,12.0,0
4434,-1.0,-248.0,7.0,0
4435,0.0,-245.0,14.0,0
4436,1.0,-246.0,15.0,0
4437,1.0,-244.0,17.0,0
4438,2.0,-249.0,14.0,0
4439,-1.0,-248.0,25.0,0
4440,1.0,-249.0,18.0,0
4441,3.0,-252.0,13.0,0
4442,0.0,-250.0,17.0,0
4443,1.0,-247.0,14.0,0
4444,1.0,-248.0,13.0,0
4445,-2.0,-247.0,14.0,0
4446,1.0,-250.0,17.0,0
4447,1.0,-246.0,17.0,0
4448,-1.0,-242.0,15.0,0
4449,0.0,-248.0,11.0,0
4450,1.0,-249.0,15.0,0
4451,0.0,-245.0,15.0,0
4452,3.0,-246.0,17.0,0
4453,0.0,-248.0,22.0,0
4454,0.0,-247.0,13.0,0
4455,0.0,-250.0,12.0,0
4456,0.0,-250.0,16.0,0
4457,0.0,-246.0,14.0,0
4458,0.0,-243.0,14.0,0
4459,4.0,-253.0,17.0,0
4460,2.0,-249.0,15.0,0
4461,-2.0,-244.0,11.0,0
4462,1.0,-246.0,17.0,0
4463,1.0,-245.0,12.0,0
4464,1.0,-250.0,14.0,0
4465,0.0,-250.0,14.0,0
4466,-1.0,-245.0,14.0,0
4467,0.0,-246.0,16.0,0
4468,0.0,-246.0,18.0,0
4469,1.0,-246.0,14.0,0
4470,0.0,-248.0,14.0,0
4471,0.0,-250.0,15.0,0
4472,0.0,-250.0,16.0,0
4473,0.0,-250.0,14.0,0
4474,0.0,-247.0,15.0,0
4475,2.0,-248.0,14.0,0
4476,0.0,-248.0,16.0,0
4477,1.0,-245.0,13.0,0
4478,0.0,-248.0,21.0,0
4479,0.0,-246.0,18.0,0
4480,1.0,-249.0,16.0,0
4481,0.0,-244.0,15.0,0
4482,7.0,-247.0,15.0,0
4483,2.0,-238.0,20.0,0
4484,0.0,-244.0,17.0,0
4485,0.0,-249.0,19.0,0
4486,0.0,-248.0,20.0,0
4487,1.0,-247.0,17.0,0
4488,0.0,-251.0,18.0,0
4489,-1.0,-250.0,17.0,0
4490,-1.0,-250.0,13.0,0
4491,0.0,-249.0,17.0,0
4492,-1.0,-251.0,12.0,0
4493,-2.0,-247.0,13.0,0
4494,0.0,-246.0,18.0,0
4495,0.0,-249.0,13.0,0
4496,0.0,-247.0,16.0,0
4497,0.0,-247.0,16.0,0
4498,1.0,-249.0,16.0,0
4499,-1.0,-249.0,15.0,0
4500,0.0,-247.0,14.0,0
4501,0.0,-246.0,13.0,0
4502,0.0,-246.0,17.0,0
4503,0.0,-246.0,14.0,0
4504,0.0,-249.0,14.0,0
4505,2.0,-245.0,22.0,0
4506,1.0,-251.0,16.0,0
4507,0.0,-249.0,15.0,0
4508,0.0,-247.0,20.0,0
4509,0.0,-248.0,15.0,0
4510,2.0,-249.0,12.0,0
4511,0.0,-247.0,12.0,0
4512,0.0,-243.0,17.0,0
4513,0.0,-247.0,13.0,0
4514,3.0,-250.0,17.0,0
4515,0.0,-248.0,15.0,0
4516,0.0,-248.0,18.0,0
4517,1.0,-250.0,15.0,0
4518,2.0,-247.0,13.0,0
4519,1.0,-249.0,16.0,0
4520,2.0,-248.0,16.0,0
4521,-2.0,-247.0,16.0,0
4522,0.0,-250.0,14.0,0
4523,1.0,-245.0,14.0,0
4524,-1.0,-251.0,18.0,0
4525,-1.0,-242.0,9.0,0
4526,0.0,-251.0,15.0,0
4527,2.0,-248.0,18.0,0
4528,-3.0,-246.0,17.0,0
4529,1.0,-248.0,16.0,0
4530,0.0,-247.0,14.0,0
4531,0.0,-248.0,14.0,0
4532,0.0,-248.0,15.0,0
4533,2.0,-246.0,15.0,0
4534,-1.0,-242.0,16.0,0
4535,1.0,-249.0,18.0,0
4536,0.0,-247.0,21.0,0
4537,0.0,-246.0,14.0,0
4538,0.0,-248.0,16.0,0
4539,0.0,-246.0,16.0,0
4540,1.0,-247.0,18.0,0
4541,0.0,-249.0,18.0,0
4542,1.0,-248.0,18.0,0
4543,0.0,-247.0,18.0,0
4544,0.0,-245.0,11.0,0
4545,0.0,-249.0,16.0,0
4546,1.0,-248.0,17.0,0
4547,-1.0,-248.0,13.0,0
4548,0.0,-248.0,14.0,0
4549,0.0,-249.0,19.0,0
4550,0.0,-247.0,15.0,0
4551,-4.0,-244.0,19.0,0
4552,1.0,-248.0,14.0,0
4553,-3.0,-247.0,16.0,0
4554,0.0,-250.0,19.0,0
4555,-3.0,-248.0,13.0,0
4556,-3.0,-246.0,15.0,0
4557,-2.0,-251.0,17.0,0
4558,-3.0,-245.0,27.0,0
4559,1.0,-251.0,23.0,0
4560,0.0,-249.0,20.0,0
4561,0.0,-248.0,21.0,0
4562,0.0,-248.0,17.0,0
4563,1.0,-249.0,16.0,0
4564,1.0,-248.0,16.0,0
4565,0.0,-248.0,15.0,0
4566,0.0,-248.0,10.0,0
4567,0.0,-247.0,13.0,0
4568,0.0,-248.0,16.0,0
4569,1.0,-250.0,15.0,0
4570,3.0,-250.0,15.0,0
4571,2.0,-250.0,19.0,0
4572,0.0,-249.0,15.0,0
4573,1.0,-250.0,15.0,0
4574,1.0,-249.0,19.0,0
4575,-1.0,-247.0,14.0,0
4576,0.0,-247.0,13.0,0
4577,-1.0,-242.0,19.0,0
4578,-1.0,-248.0,18.0,0
4579,4.0,-246.0,12.0,0
4580,-1.0,-246.0,16.0,0
4581,0.0,-246.0,18.0,0
4582,1.0,-242.0,19.0,0
4583,0.0,-244.0,15.0,0
4584,0.0,-247.0,14.0,0
4585,1.0,-248.0,15.0,0
4586,0.0,-245.0,11.0,0
4587,1.0,-248.0,16.0,0
4588,1.0,-247.0,20.0,0
4589,-1.0,-250.0,15.0,0
4590,0.0,-248.0,13.0,0
4591,1.0,-248.0,12.0,0
4592,0.0,-246.0,16.0,0
4593,-1.0,-247.0,15.0,0
4594,2.0,-247.0,15.0,0
4595,0.0,-246.0,16.0,0
4596,2.0,-248.0,13.0,0
4597,-2.0,-246.0,16.0,0
4598,-2.0,-249.0,13.0,0
4599,0.0,-251.0,15.0,0
4600,-2.0,-245.0,19.0,0
4601,2.0,-246.0,11.0,0
4602,-1.0,-246.0,17.0,0
4603,-2.0,-249.0,18.0,0
4604,0.0,-250.0,14.0,0
4605,-2.0,-250.0,15.0,0
4606,0.0,-246.0,11.0,0
4607,1.0,-247.0,17.0,0
4608,1.0,-247.0,15.0,0
4609,1.0,-250.0,14.0,0
4610,-2.0,-247.0,16.0,0
4611,0.0,-248.0,14.0,0
4612,1.0,-249.0,16.0,0
4613,0.0,-247.0,14.0,0
4614,0.0,-247.0,13.0,0
4615,0.0,-246.0,15.0,0
4616,-2.0,-248.0,18.0,0
4617,1.0,-251.0,16.0,0
4618,0.0,-246.0,11.0,0
4619,0.0,-249.0,15.0,0
4620,2.0,-249.0,12.0,0
4621,1.0,-252.0,14.0,0
4622,-2.0,-246.0,14.0,0
4623,2.0,-249.0,14.0,0
4624,-1.0,-248.0,15.0,0
4625,-2.0,-250.0,17.0,0
4626,1.0,-246.0,16.0,0
4627,-1.0,-245.0,15.0,0
4628,0.0,-248.0,12.0,0
4629,-3.0,-245.0,15.0,0
4630,1.0,-245.0,16.0,0
4631,-1.0,-248.0,18.0,0
4632,-1.0,-248.0,19.0,0
4633,0.0,-244.0,23.0,0
4634,-1.0,-247.0,19.0,0
4635,0.0,-250.0,16.0,0
4636,0.0,-247.0,16.0,0
4637,0.0,-246.0,20.0,0
4638,-2.0,-243.0,19.0,0
4639,2.0,-249.0,18.0,0
4640,2.0,-250.0,17.0,0
4641,-1.0,-247.0,18.0,0
4642,3.0,-251.0,22.0,0
4643,-3.0,-247.0,15.0,0
4644,0.0,-246.0,15.0,0
4645,0.0,-250.0,19.0,0
4646,1.0,-249.0,15.0,0
4647,1.0,-249.0,19.0,0
4648,0.0,-249.0,16.0,0
4649,0.0,-246.0,13.0,0
4650,0.0,-249.0,16.0,0
4651,-2.0,-246.0,15.0,0
4652,1.0,-249.0,16.0,0
4653,4.0,-249.0,19.0,0
4654,4.0,-246.0,17.0,0
4655,-2.0,-244.0,17.0,0
4656,0.0,-250.0,17.0,0
4657,-1.0,-242.0,16.0,0
4658,0.0,-247.0,14.0,0
4659,0.0,-247.0,21.0,0
4660,0.0,-248.0,20.0,0
4661,-3.0,-247.0,18.0,0
4662,2.0,-248.0,19.0,0
4663,1.0,-246.0,19.0,0
4664,0.0,-245.0,20.0,0
4665,0.0,-246.0,19.0,0
4666,0.0,-247.0,18.0,0
4667,0.0,-245.0,18.0,0
4668,-1.0,-246.0,18.0,0
4669,0.0,-245.0,16.0,0
4670,0.0,-247.0,16.0,0
4671,2.0,-247.0,19.0,0
4672,1.0,-247.0,15.0,0
4673,1.0,-247.0,17.0,0
4674,0.0,-246.0,18.0,0
4675,-5.0,-249.0,13.0,0
4676,-1.0,-248.0,19.0,0
4677,-2.0,-247.0,15.0,0
4678,0.0,-248.0,20.0,0
4679,3.0,-252.0,19.0,0
4680,0.0,-248.0,18.0,0
4681,0.0,-249.0,13.0,0
4682,0.0,-249.0,10.0,0
4683,0.0,-249.0,15.0,0
4684,1.0,-249.0,17.0,0
4685,0.0,-248.0,17.0,0
4686,0.0,-244.0,19.0,0
4687,-2.0,-250.0,19.0,0
4688,0.0,-248.0,13.0,0
4689,-1.0,-247.0,15.0,0
4690,0.0,-246.0,15.0,0
4691,0.0,-250.0,17.0,0
4692,0.0,-244.0,16.0,0
4693,-1.0,-246.0,16.0,0
4694,1.0,-250.0,16.0,0
4695,1.0,-246.0,17.0,0
4696,0.0,-250.0,27.0,0
4697,0.0,-251.0,12.0,0
4698,0.0,-251.0,16.0,0
4699,0.0,-246.0,17.0,0
4700,0.0,-245.0,15.0,0
4701,-1.0,-247.0,15.0,0
4702,0.0,-247.0,14.0,0
4703,-4.0,-242.0,12.0,0
4704,1.0,-247.0,17.0,0
4705,-2.0,-243.0,16.0,0
4706,1.0,-246.0,18.0,0
4707,1.0,-251.0,19.0,0
4708,0.0,-250.0,18.0,0
4709,1.0,-249.0,17.0,0
4710,-1.0,-250.0,18.0,0
4711,0.0,-249.0,16.0,0
4712,2.0,-250.0,15.0,0
4713,0.0,-247.0,16.0,0
4714,2.0,-247.0,12.0,0
4715,0.0,-246.0,17.0,0
4716,1.0,-248.0,18.0,0
4717,0.0,-250.0,12.0,0
4718,3.0,-252.0,7.0,0
4719,1.0,-248.0,12.0,0
4720,0.0,-248.0,12.0,0
4721,0.0,-250.0,15.0,0
4722,-2.0,-247.0,14.0,0
4723,-1.0,-252.0,12.0,0
4724,0.0,-247.0,14.0,0
4725,-2.0,-247.0,14.0,0
4726,0.0,-247.0,18.0,0
4727,0.0,-249.0,17.0,0
4728,0.0,-248.0,15.0,0
4729,0.0,-247.0,18.0,0
4730,1.0,-248.0,15.0,0
4731,0.0,-247.0,18.0,0
4732,1.0,-246.0,13.0,0
4733,-4.0,-245.0,14.0,0
4734,0.0,-246.0,14.0,0
4735,-4.0,-245.0,11.0,0
4736,-4.0,-249.0,15.0,0
4737,-2.0,-243.0,9.0,0
4738,-2.0,-249.0,14.0,0
4739,-2.0,-245.0,13.0,0
4740,0.0,-248.0,14.0,0
4741,1.0,-252.0,16.0,0
4742,0.0,-247.0,14.0,0
4743,0.0,-246.0,17.0,0
4744,0.0,-247.0,18.0,0
4745,0.0,-248.0,11.0,0
4746,2.0,-249.0,16.0,0
4747,-1.0,-247.0,9.0,0
4748,0.0,-250.0,6.0,0
4749,-3.0,-247.0,9.0,0
4750,-1.0,-250.0,14.0,0
4751,0.0,-251.0,17.0,0
4752,1.0,-246.0,15.0,0
4753,0.0,-249.0,16.0,0
4754,1.0,-248.0,12.0,0
4755,2.0,-250.0,16.0,0
4756,0.0,-249.0,16.0,0
4757,1.0,-247.0,19.0,0
4758,0.0,-248.0,15.0,0
4759,0.0,-249.0,16.0,0
4760,1.0,-248.0,13.0,0
4761,2.0,-253.0,12.0,0
4762,-1.0,-245.0,10.0,0
4763,2.0,-246.0,12.0,0
4764,-2.0,-244.0,12.0,0
4765,2.0,-244.0,16.0,0
4766,1.0,-246.0,16.0,0
4767,1.0,-245.0,17.0,0
4768,1.0,-246.0,14.0,0
4769,-2.0,-243.0,20.0,0
4770,0.0,-244.0,11.0,0
4771,0.0,-250.0,14.0,0
4772,0.0,-249.0,17.0,0
4773,0.0,-246.0,9.0,0
4774,2.0,-250.0,15.0,0
4775,1.0,-248.0,12.0,0
4776,1.0,-248.0,16.0,0
4777,0.0,-247.0,14.0,0
4778,0.0,-251.0,15.0,0
4779,0.0,-248.0,12.0,0
4780,1.0,-250.0,13.0,0
4781,2.0,-242.0,12.0,0
4782,-2.0,-247.0,17.0,0
4783,0.0,-251.0,15.0,0
4784,0.0,-247.0,12.0,0
4785,0.0,-248.0,16.0,0
4786,1.0,-251.0,16.0,0
4787,1.0,-248.0,14.0,0
4788,2.0,-249.0,11.0,0
4789,0.0,-245.0,12.0,0
4790,0.0,-250.0,12.0,0
4791,2.0,-247.0,17.0,0
4792,0.0,-245.0,16.0,0
4793,-5.0,-247.0,16.0,0
4794,0.0,-248.0,14.0,0
4795,1.0,-247.0,13.0,0
4796,0.0,-248.0,15.0,0
4797,0.0,-245.0,9.0,0
4798,1.0,-248.0,13.0,0
4799,1.0,-250.0,15.0,0
4800,0.0,-249.0,11.0,0
4801,2.0,-249.0,13.0,0
4802,0.0,-245.0,14.0,0
4803,0.0,-248.0,14.0,0
4804,0.0,-245.0,13.0,0
4805,2.0,-247.0,13.0,0
4806,1.0,-250.0,13.0,0
4807,1.0,-248.0,14.0,0
4808,0.0,-248.0,10.0,0
4809,0.0,-249.0,13.0,0
4810,0.0,-250.0,16.0,0
4811,-1.0,-245.0,14.0,0
4812,-2.0,-249.0,13.0,0
4813,0.0,-248.0,8.0,0
4814,0.0,-249.0,17.0,0
4815,0.0,-246.0,14.0,0
4816,0.0,-246.0,15.0,0
4817,-1.0,-247.0,15.0,0
4818,0.0,-247.0,12.0,0
4819,2.0,-251.0,15.0,0
4820,0.0,-247.0,16.0,0
4821,3.0,-244.0,11.0,0
4822,2.0,-250.0,15.0,0
4823,0.0,-250.0,12.0,0
4824,1.0,-250.0,11.0,0
4825,-4.0,-248.0,5.0,0
4826,1.0,-250.0,12.0,0
4827,-1.0,-250.0,11.0,0
4828,-1.0,-247.0,12.0,0
4829,1.0,-251.0,16.0,0
4830,1.0,-249.0,16.0,0
4831,0.0,-249.0,14.0,0
4832,-2.0,-248.0,16.0,0
4833,1.0,-248.0,16.0,0
4834,0.0,-249.0,12.0,0
4835,0.0,-249.0,13.0,0
4836,0.0,-249.0,12.0,0
4837,0.0,-246.0,12.0,0
4838,1.0,-247.0,15.0,0
4839,0.0,-248.0,13.0,0
4840,2.0,-248.0,11.0,0
4841,1.0,-246.0,13.0,0
4842,0.0,-247.0,11.0,0
4843,2.0,-250.0,16.0,0
4844,1.0,-245.0,15.0,0
4845,-2.0,-251.0,11.0,0
4846,-1.0,-251.0,17.0,0
4847,0.0,-251.0,11.0,0
4848,0.0,-250.0,13.0,0
4849,0.0,-251.0,14.0,0
4850,-3.0,-248.0,14.0,0
4851,2.0,-251.0,10.0,0
4852,0.0,-249.0,14.0,0
4853,-3.0,-249.0,15.0,0
4854,-2.0,-246.0,10.0,0
4855,0.0,-245.0,13.0,0
4856,0.0,-248.0,20.0,0
4857,-3.0,-243.0,13.0,0
4858,-2.0,-249.0,14.0,0
4859,0.0,-246.0,13.0,0
4860,-1.0,-246.0,12.0,0
4861,0.0,-249.0,16.0,0
4862,-2.0,-247.0,12.0,0
4863,-1.0,-250.0,13.0,0
4864,0.0,-247.0,17.0,0
4865,-1.0,-248.0,14.0,0
4866,-2.0,-244.0,11.0,0
4867,-1.0,-247.0,16.0,0
4868,1.0,-247.0,12.0,0
4869,0.0,-247.0,11.0,0
4870,0.0,-246.0,13.0,0
4871,0.0,-249.0,14.0,0
4872,1.0,-245.0,16.0,0
4873,-2.0,-251.0,13.0,0
4874,-1.0,-248.0,11.0,0
4875,-3.0,-247.0,5.0,0
4876,0.0,-249.0,13.0,0
4877,-2.0,-249.0,10.0,0
4878,-1.0,-249.0,18.0,0
4879,1.0,-245.0,14.0,0
4880,0.0,-247.0,17.0,0
4881,0.0,-247.0,11.0,0
4882,1.0,-248.0,17.0,0
4883,2.0,-248.0,15.0,0
4884,-2.0,-248.0,15.0,0
4885,1.0,-247.0,6.0,0
4886,1.0,-248.0,15.0,0
4887,0.0,-246.0,13.0,0
4888,0.0,-250.0,15.0,0
4889,9.0,-247.0,13.0,0
4890,-2.0,-249.0,18.0,0
4891,-1.0,-247.0,15.0,0
4892,0.0,-245.0,14.0,0
4893,2.0,-249.0,13.0,0
4894,-2.0,-248.0,16.0,0
4895,0.0,-245.0,14.0,0
4896,0.0,-247.0,11.0,0
4897,0.0,-250.0,16.0,0
4898,0.0,-246.0,13.0,0
4899,2.0,-248.0,15.0,0
4900,1.0,-249.0,9.0,0
4901,0.0,-247.0,13.0,0
4902,1.0,-246.0,16.0,0
4903,0.0,-251.0,14.0,0
4904,0.0,-248.0,14.0,0
4905,-2.0,-248.0,14.0,0
4906,0.0,-248.0,14.0,0
4907,0.0,-247.0,16.0,0
4908,0.0,-251.0,13.0,0
4909,-1.0,-250.0,11.0,0
4910,-1.0,-243.0,16.0,0
4911,0.0,-248.0,12.0,0
4912,-2.0,-246.0,15.0,0
4913,2.0,-246.0,17.0,0
4914,0.0,-247.0,13.0,0
4915,0.0,-248.0,14.0,0
4916,1.0,-251.0,12.0,0
4917,0.0,-247.0,10.0,0
4918,0.0,-247.0,15.0,0
4919,1.0,-249.0,16.0,0
4920,0.0,-248.0,14.0,0
4921,9.0,-245.0,14.0,0
4922,0.0,-248.0,12.0,0
4923,1.0,-247.0,11.0,0
4924,0.0,-247.0,17.0,0
4925,0.0,-247.0,13.0,0
4926,-1.0,-246.0,12.0,0
4927,0.0,-247.0,15.0,0
4928,2.0,-246.0,15.0,0
4929,0.0,-251.0,12.0,0
4930,-2.0,-248.0,11.0,0
4931,-6.0,-243.0,10.0,0
4932,-1.0,-250.0,12.0,0
4933,-3.0,-247.0,14.0,0
4934,2.0,-249.0,15.0,0
4935,0.0,-248.0,17.0,0
4936,-1.0,-246.0,14.0,0
4937,-2.0,-251.0,18.0,0
4938,0.0,-248.0,14.0,0
4939,0.0,-249.0,16.0,0
4940,1.0,-248.0,15.0,0
4941,1.0,-244.0,15.0,0
4942,-3.0,-252.0,15.0,0
4943,-1.0,-249.0,14.0,0
4944,0.0,-250.0,11.0,0
4945,0.0,-247.0,12.0,0
4946,0.0,-248.0,14.0,0
4947,0.0,-248.0,13.0,0
4948,1.0,-251.0,15.0,0
4949,1.0,-246.0,14.0,0
4950,0.0,-244.0,10.0,0
4951,0.0,-246.0,11.0,0
4952,1.0,-248.0,13.0,0
4953,2.0,-247.0,19.0,0
4954,-1.0,-246.0,14.0,0
4955,-1.0,-248.0,13.0,0
4956,0.0,-246.0,14.0,0
4957,0.0,-249.0,16.0,0
4958,-1.0,-247.0,14.0,0
4959,0.0,-247.0,14.0,0
4960,-2.0,-247.0,13.0,0
4961,0.0,-247.0,10.0,0
4962,-1.0,-245.0,13.0,0
4963,0.0,-247.0,15.0,0
4964,0.0,-248.0,14.0,0
4965,0.0,-249.0,13.0,0
4966,0.0,-249.0,14.0,0
4967,0.0,-250.0,15.0,0
4968,1.0,-250.0,16.0,0
4969,-2.0,-248.0,16.0,0
4970,0.0,-243.0,12.0,0
4971,3.0,-245.0,13.0,0
4972,1.0,-246.0,13.0,0
4973,-2.0,-246.0,17.0,0
4974,-3.0,-247.0,16.0,0
4975,0.0,-247.0,12.0,0
4976,-1.0,-244.0,14.0,0
4977,0.0,-250.0,14.0,0
4978,0.0,-248.0,14.0,0
4979,0.0,-251.0,15.0,0
4980,0.0,-245.0,10.0,0
4981,0.0,-249.0,15.0,0
4982,0.0,-247.0,13.0,0
4983,-3.0,-246.0,14.0,0
