,accelerometer_x,accelerometer_y,accelerometer_z,fall
0,-11.0,-247.0,-76.0,0
1,-11.0,-247.0,-77.0,0
2,-12.0,-243.0,-75.0,0
3,-9.0,-247.0,-74.0,0
4,-11.0,-244.0,-78.0,0
5,-11.0,-243.0,-75.0,0
6,-10.0,-245.0,-74.0,0
7,-9.0,-242.0,-76.0,0
8,-5.0,-240.0,-74.0,0
9,-9.0,-242.0,-76.0,0
10,-5.0,-244.0,-71.0,0
11,-4.0,-245.0,-69.0,0
12,-3.0,-247.0,-74.0,0
13,-5.0,-245.0,-76.0,0
14,-6.0,-247.0,-75.0,0
15,-6.0,-245.0,-73.0,0
16,-3.0,-247.0,-74.0,0
17,-4.0,-247.0,-73.0,0
18,-6.0,-247.0,-75.0,0
19,-10.0,-250.0,-76.0,0
20,-10.0,-250.0,-73.0,0
21,-8.0,-250.0,-73.0,0
22,-9.0,-251.0,-71.0,0
23,-10.0,-247.0,-72.0,0
24,-11.0,-250.0,-73.0,0
25,-10.0,-248.0,-71.0,0
26,-11.0,-251.0,-75.0,0
27,-12.0,-248.0,-72.0,0
28,-12.0,-247.0,-71.0,0
29,-10.0,-250.0,-72.0,0
30,-10.0,-249.0,-76.0,0
31,-9.0,-250.0,-76.0,0
32,-9.0,-251.0,-76.0,0
33,-9.0,-246.0,-75.0,0
34,-7.0,-248.0,-77.0,0
35,-6.0,-245.0,-76.0,0
36,-6.0,-247.0,-78.0,0
37,-6.0,-245.0,-74.0,0
38,-7.0,-244.0,-75.0,0
39,-5.0,-246.0,-75.0,0
40,-9.0,-243.0,-74.0,0
41,-7.0,-246.0,-73.0,0
42,-8.0,-241.0,-75.0,0
43,-9.0,-241.0,-74.0,0
44,-9.0,-243.0,-75.0,0
45,-11.0,-244.0,-74.0,0
46,-10.0,-242.0,-75.0,0
47,-10.0,-244.0,-74.0,0
48,-9.0,-245.0,-74.0,0
49,-9.0,-242.0,-74.0,0
50,-8.0,-243.0,-76.0,0
51,-8.0,-245.0,-76.0,0
52,-8.0,-243.0,-76.0,0
53,-10.0,-239.0,-77.0,0
54,-9.0,-241.0,-75.0,0
55,-9.0,-243.0,-77.0,0
56,-9.0,-244.0,-78.0,0
57,-10.0,-243.0,-80.0,0
58,-11.0,-244.0,-77.0,0
59,-8.0,-248.0,-76.0,0
60,-11.0,-246.0,-76.0,0
61,-7.0,-249.0,-81.0,0
62,-10.0,-249.0,-76.0,0
63,-8.0,-253.0,-79.0,0
64,-8.0,-249.0,-79.0,0
65,-6.0,-251.0,-81.0,0
66,-9.0,-247.0,-79.0,0
67,-8.0,-244.0,-81.0,0
68,-9.0,-246.0,-83.0,0
69,-10.0,-246.0,-81.0,0
70,-7.0,-249.0,-78.0,0
71,-6.0,-252.0,-73.0,0
72,-7.0,-247.0,-79.0,0
73,-8.0,-247.0,-80.0,0
74,-8.0,-250.0,-79.0,0
75,-8.0,-251.0,-81.0,0
76,-9.0,-254.0,-83.0,0
77,-5.0,-256.0,-79.0,0
78,-6.0,-258.0,-82.0,0
79,-5.0,-261.0,-80.0,0
80,-5.0,-263.0,-76.0,0
81,-5.0,-268.0,-76.0,0
82,-2.0,-275.0,-76.0,0
83,-6.0,-277.0,-80.0,0
84,-8.0,-281.0,-77.0,0
85,-7.0,-289.0,-76.0,0
86,-10.0,-291.0,-76.0,0
87,-10.0,-294.0,-83.0,0
88,-11.0,-299.0,-85.0,0
89,-11.0,-298.0,-90.0,0
90,-10.0,-298.0,-87.0,0
91,-11.0,-293.0,-93.0,0
92,-10.0,-290.0,-97.0,0
93,-11.0,-283.0,-102.0,0
94,-9.0,-276.0,-101.0,0
95,-5.0,-268.0,-104.0,0
96,-4.0,-263.0,-105.0,0
97,-4.0,-257.0,-105.0,0
98,-2.0,-255.0,-105.0,0
99,-1.0,-251.0,-105.0,0
100,1.0,-246.0,-105.0,0
101,1.0,-248.0,-102.0,0
102,-1.0,-246.0,-98.0,0
103,0.0,-247.0,-98.0,0
104,-1.0,-250.0,-94.0,0
105,-4.0,-249.0,-90.0,0
106,-9.0,-247.0,-86.0,0
107,-11.0,-247.0,-79.0,0
108,-12.0,-247.0,-80.0,0
109,-12.0,-248.0,-75.0,0
110,-18.0,-246.0,-70.0,0
111,-25.0,-241.0,-69.0,0
112,-23.0,-238.0,-65.0,0
113,-24.0,-231.0,-63.0,0
114,-25.0,-230.0,-59.0,0
115,-29.0,-226.0,-61.0,0
116,-29.0,-223.0,-61.0,0
117,-30.0,-215.0,-58.0,0
118,-31.0,-211.0,-63.0,0
119,-33.0,-207.0,-59.0,0
120,-30.0,-205.0,-67.0,0
121,-31.0,-200.0,-66.0,0
122,-32.0,-200.0,-65.0,0
123,-31.0,-199.0,-66.0,0
124,-31.0,-205.0,-68.0,0
125,-42.0,-208.0,-69.0,0
126,-36.0,-209.0,-71.0,0
127,-36.0,-214.0,-62.0,0
128,-34.0,-218.0,-66.0,0
129,-38.0,-220.0,-62.0,0
130,-40.0,-225.0,-61.0,0
131,-41.0,-226.0,-57.0,0
132,-43.0,-226.0,-60.0,0
133,-38.0,-225.0,-57.0,0
134,-41.0,-227.0,-59.0,0
135,-41.0,-226.0,-58.0,0
136,-45.0,-231.0,-58.0,0
137,-40.0,-234.0,-57.0,0
138,-39.0,-234.0,-59.0,0
139,-39.0,-239.0,-60.0,0
140,-37.0,-237.0,-60.0,0
141,-37.0,-240.0,-56.0,0
142,-35.0,-240.0,-57.0,0
143,-25.0,-244.0,-60.0,0
144,-23.0,-248.0,-58.0,0
145,-18.0,-251.0,-59.0,0
146,-16.0,-251.0,-59.0,0
147,-12.0,-250.0,-62.0,0
148,-13.0,-256.0,-62.0,0
149,-19.0,-259.0,-66.0,0
150,-16.0,-260.0,-65.0,0
151,-20.0,-264.0,-67.0,0
152,-24.0,-263.0,-62.0,0
153,-27.0,-264.0,-66.0,0
154,-33.0,-263.0,-68.0,0
155,-36.0,-260.0,-70.0,0
156,-40.0,-260.0,-68.0,0
157,-44.0,-257.0,-66.0,0
158,-46.0,-258.0,-66.0,0
159,-49.0,-254.0,-68.0,0
160,-51.0,-255.0,-66.0,0
161,-48.0,-256.0,-63.0,0
162,-49.0,-252.0,-57.0,0
163,-48.0,-251.0,-59.0,0
164,-44.0,-243.0,-59.0,0
165,-36.0,-245.0,-54.0,0
166,-35.0,-246.0,-54.0,0
167,-32.0,-244.0,-53.0,0
168,-30.0,-241.0,-47.0,0
169,-28.0,-243.0,-45.0,0
170,-24.0,-244.0,-47.0,0
171,-24.0,-241.0,-41.0,0
172,-21.0,-245.0,-40.0,0
173,-24.0,-241.0,-41.0,0
174,-23.0,-240.0,-38.0,0
175,-20.0,-238.0,-40.0,0
176,-23.0,-234.0,-42.0,0
177,-19.0,-236.0,-42.0,0
178,-20.0,-237.0,-38.0,0
179,-21.0,-232.0,-45.0,0
180,-18.0,-231.0,-41.0,0
181,-22.0,-230.0,-39.0,0
182,-21.0,-227.0,-40.0,0
183,-22.0,-230.0,-35.0,0
184,-24.0,-229.0,-37.0,0
185,-25.0,-229.0,-39.0,0
186,-23.0,-235.0,-36.0,0
187,-21.0,-236.0,-36.0,0
188,-22.0,-238.0,-38.0,0
189,-20.0,-245.0,-38.0,0
190,-20.0,-243.0,-37.0,0
191,-20.0,-242.0,-35.0,0
192,-21.0,-243.0,-38.0,0
193,-22.0,-248.0,-40.0,0
194,-18.0,-254.0,-43.0,0
195,-20.0,-254.0,-41.0,0
196,-19.0,-254.0,-41.0,0
197,-14.0,-260.0,-43.0,0
198,-15.0,-261.0,-37.0,0
199,-13.0,-261.0,-39.0,0
200,-13.0,-262.0,-39.0,0
201,-17.0,-265.0,-44.0,0
202,-17.0,-264.0,-47.0,0
203,-18.0,-267.0,-48.0,0
204,-17.0,-271.0,-47.0,0
205,-17.0,-275.0,-44.0,0
206,-20.0,-279.0,-40.0,0
207,-24.0,-280.0,-34.0,0
208,-24.0,-288.0,-28.0,0
209,-28.0,-289.0,-14.0,0
210,-30.0,-293.0,-11.0,0
211,-32.0,-295.0,-3.0,0
212,-36.0,-298.0,-1.0,0
213,-34.0,-297.0,8.0,0
214,-35.0,-302.0,8.0,0
215,-37.0,-296.0,0.0,0
216,-35.0,-300.0,-4.0,0
217,-33.0,-297.0,-19.0,0
218,-34.0,-302.0,-31.0,0
219,-38.0,-309.0,-45.0,0
220,-37.0,-312.0,-54.0,0
221,-36.0,-319.0,-62.0,0
222,-41.0,-321.0,-66.0,0
223,-47.0,-321.0,-66.0,0
224,-55.0,-324.0,-58.0,0
225,-50.0,-324.0,-51.0,0
226,-51.0,-318.0,-43.0,0
227,-47.0,-311.0,-38.0,0
228,-45.0,-301.0,-30.0,0
229,-42.0,-287.0,-34.0,0
230,-42.0,-274.0,-30.0,0
231,-39.0,-263.0,-30.0,0
232,-31.0,-248.0,-30.0,0
233,-25.0,-232.0,-36.0,0
234,-12.0,-228.0,-51.0,0
235,-7.0,-225.0,-57.0,0
236,1.0,-219.0,-74.0,0
237,6.0,-220.0,-84.0,0
238,14.0,-225.0,-86.0,0
239,20.0,-227.0,-93.0,0
240,19.0,-226.0,-90.0,0
241,21.0,-228.0,-93.0,0
242,23.0,-224.0,-97.0,0
243,22.0,-222.0,-100.0,0
244,28.0,-214.0,-111.0,0
245,41.0,-210.0,-114.0,0
246,53.0,-209.0,-116.0,0
247,60.0,-209.0,-114.0,0
248,66.0,-214.0,-106.0,0
249,71.0,-222.0,-106.0,0
250,74.0,-226.0,-110.0,0
251,72.0,-228.0,-107.0,0
252,70.0,-229.0,-114.0,0
253,66.0,-223.0,-103.0,0
254,60.0,-232.0,-101.0,0
255,52.0,-243.0,-96.0,0
256,42.0,-258.0,-92.0,0
257,33.0,-262.0,-86.0,0
258,27.0,-265.0,-83.0,0
259,15.0,-266.0,-76.0,0
260,14.0,-264.0,-81.0,0
261,9.0,-259.0,-84.0,0
262,0.0,-252.0,-87.0,0
263,-1.0,-251.0,-91.0,0
264,-6.0,-252.0,-84.0,0
265,-8.0,-257.0,-81.0,0
266,-11.0,-259.0,-80.0,0
267,-10.0,-264.0,-73.0,0
268,-8.0,-269.0,-69.0,0
269,1.0,-260.0,-69.0,0
270,-1.0,-262.0,-63.0,0
271,-6.0,-260.0,-65.0,0
272,7.0,-254.0,-69.0,0
273,9.0,-243.0,-64.0,0
274,13.0,-247.0,-61.0,0
275,19.0,-243.0,-61.0,0
276,19.0,-235.0,-56.0,0
277,19.0,-231.0,-60.0,0
278,19.0,-223.0,-55.0,0
279,19.0,-218.0,-55.0,0
280,17.0,-212.0,-55.0,0
281,16.0,-211.0,-56.0,0
282,16.0,-208.0,-56.0,0
283,9.0,-200.0,-54.0,0
284,12.0,-202.0,-57.0,0
285,14.0,-198.0,-56.0,0
286,13.0,-197.0,-56.0,0
287,13.0,-201.0,-54.0,0
288,11.0,-208.0,-52.0,0
289,9.0,-215.0,-50.0,0
290,12.0,-220.0,-53.0,0
291,11.0,-226.0,-49.0,0
292,18.0,-233.0,-54.0,0
293,23.0,-237.0,-52.0,0
294,23.0,-240.0,-55.0,0
295,26.0,-251.0,-55.0,0
296,25.0,-250.0,-51.0,0
297,31.0,-247.0,-49.0,0
298,28.0,-248.0,-52.0,0
299,33.0,-249.0,-46.0,0
300,32.0,-250.0,-47.0,0
301,29.0,-247.0,-40.0,0
302,26.0,-247.0,-39.0,0
303,23.0,-245.0,-38.0,0
304,21.0,-239.0,-39.0,0
305,24.0,-239.0,-35.0,0
306,16.0,-236.0,-35.0,0
307,17.0,-233.0,-32.0,0
308,15.0,-234.0,-31.0,0
309,10.0,-233.0,-30.0,0
310,12.0,-235.0,-25.0,0
311,11.0,-237.0,-27.0,0
312,10.0,-237.0,-22.0,0
313,8.0,-238.0,-22.0,0
314,12.0,-242.0,-22.0,0
315,12.0,-241.0,-21.0,0
316,8.0,-243.0,-16.0,0
317,9.0,-246.0,-12.0,0
318,16.0,-243.0,-9.0,0
319,2.0,-244.0,-11.0,0
320,3.0,-260.0,0.0,0
321,8.0,-244.0,-4.0,0
322,12.0,-239.0,-4.0,0
323,-1.0,-255.0,-6.0,0
324,1.0,-249.0,-10.0,0
325,0.0,-251.0,-14.0,0
326,-1.0,-248.0,-14.0,0
327,3.0,-246.0,-20.0,0
328,6.0,-248.0,-22.0,0
329,8.0,-246.0,-24.0,0
330,18.0,-249.0,-34.0,0
331,26.0,-256.0,-39.0,0
332,27.0,-260.0,-41.0,0
333,36.0,-270.0,-40.0,0
334,33.0,-277.0,-37.0,0
335,37.0,-287.0,-34.0,0
336,36.0,-291.0,-32.0,0
337,38.0,-295.0,-33.0,0
338,44.0,-294.0,-34.0,0
339,50.0,-299.0,-29.0,0
340,53.0,-296.0,-24.0,0
341,63.0,-295.0,-15.0,0
342,72.0,-298.0,-10.0,0
343,72.0,-307.0,6.0,0
344,68.0,-308.0,18.0,0
345,57.0,-308.0,24.0,0
346,51.0,-308.0,27.0,0
347,32.0,-294.0,31.0,0
348,23.0,-290.0,39.0,0
349,17.0,-284.0,38.0,0
350,4.0,-279.0,40.0,0
351,-10.0,-274.0,44.0,0
352,-16.0,-270.0,47.0,0
353,-25.0,-263.0,45.0,0
354,-30.0,-259.0,41.0,0
355,-36.0,-256.0,20.0,0
356,-38.0,-256.0,-17.0,0
357,-42.0,-260.0,-23.0,0
358,-42.0,-273.0,-28.0,0
359,-26.0,-288.0,-53.0,0
360,-7.0,-298.0,-79.0,0
361,15.0,-323.0,-71.0,0
362,33.0,-360.0,-38.0,0
363,52.0,-387.0,-12.0,0
364,74.0,-382.0,-13.0,0
365,89.0,-359.0,-28.0,0
366,111.0,-325.0,-56.0,0
367,110.0,-299.0,-91.0,0
368,104.0,-278.0,-130.0,0
369,105.0,-258.0,-154.0,0
370,108.0,-241.0,-171.0,0
371,98.0,-235.0,-161.0,0
372,86.0,-244.0,-139.0,0
373,62.0,-261.0,-113.0,0
374,41.0,-265.0,-91.0,0
375,11.0,-262.0,-88.0,0
376,-19.0,-255.0,-92.0,0
377,-41.0,-253.0,-104.0,0
378,-76.0,-238.0,-119.0,0
379,-105.0,-229.0,-130.0,0
380,-122.0,-215.0,-131.0,0
381,-135.0,-205.0,-135.0,0
382,-132.0,-197.0,-129.0,0
383,-126.0,-190.0,-120.0,0
384,-112.0,-188.0,-112.0,0
385,-95.0,-192.0,-106.0,0
386,-69.0,-200.0,-91.0,0
387,-39.0,-218.0,-86.0,0
388,-14.0,-228.0,-80.0,0
389,13.0,-235.0,-77.0,0
390,42.0,-248.0,-73.0,0
391,65.0,-258.0,-70.0,0
392,87.0,-268.0,-70.0,0
393,103.0,-282.0,-68.0,0
394,115.0,-293.0,-70.0,0
395,120.0,-299.0,-64.0,0
396,119.0,-305.0,-68.0,0
397,111.0,-300.0,-66.0,0
398,97.0,-293.0,-69.0,0
399,83.0,-275.0,-71.0,0
400,69.0,-256.0,-72.0,0
401,55.0,-236.0,-73.0,0
402,37.0,-216.0,-71.0,0
403,18.0,-205.0,-65.0,0
404,5.0,-192.0,-66.0,0
405,-3.0,-182.0,-64.0,0
406,-16.0,-168.0,-64.0,0
407,-25.0,-163.0,-62.0,0
408,-28.0,-168.0,-60.0,0
409,-32.0,-173.0,-59.0,0
410,-31.0,-177.0,-56.0,0
411,-36.0,-190.0,-55.0,0
412,-35.0,-197.0,-54.0,0
413,-35.0,-206.0,-56.0,0
414,-36.0,-218.0,-50.0,0
415,-32.0,-226.0,-49.0,0
416,-35.0,-237.0,-46.0,0
417,-30.0,-238.0,-49.0,0
418,-27.0,-242.0,-45.0,0
419,-19.0,-245.0,-46.0,0
420,-12.0,-245.0,-43.0,0
421,-12.0,-249.0,-43.0,0
422,-13.0,-244.0,-42.0,0
423,-16.0,-245.0,-44.0,0
424,-12.0,-243.0,-42.0,0
425,-15.0,-238.0,-45.0,0
426,-13.0,-236.0,-41.0,0
427,-19.0,-230.0,-39.0,0
428,-14.0,-231.0,-35.0,0
429,-15.0,-228.0,-34.0,0
430,-20.0,-229.0,-30.0,0
431,-17.0,-222.0,-31.0,0
432,-12.0,-223.0,-29.0,0
433,-15.0,-226.0,-30.0,0
434,-12.0,-226.0,-32.0,0
435,-12.0,-223.0,-30.0,0
436,-11.0,-227.0,-27.0,0
437,-12.0,-225.0,-27.0,0
438,-10.0,-224.0,-24.0,0
439,-12.0,-223.0,-18.0,0
440,-13.0,-228.0,-19.0,0
441,-12.0,-228.0,-18.0,0
442,-9.0,-228.0,-10.0,0
443,-4.0,-235.0,-17.0,0
444,-10.0,-235.0,-8.0,0
445,-4.0,-238.0,-11.0,0
446,-1.0,-243.0,-10.0,0
447,3.0,-246.0,-15.0,0
448,2.0,-246.0,-9.0,0
449,2.0,-251.0,-14.0,0
450,3.0,-252.0,-13.0,0
451,6.0,-255.0,-13.0,0
452,5.0,-256.0,-9.0,0
453,4.0,-257.0,-10.0,0
454,-3.0,-257.0,-4.0,0
455,-13.0,-257.0,-9.0,0
456,-19.0,-253.0,-11.0,0
457,-28.0,-256.0,-14.0,0
458,-37.0,-254.0,-30.0,0
459,-39.0,-248.0,-50.0,0
460,-45.0,-244.0,-69.0,0
461,-49.0,-247.0,-79.0,0
462,-53.0,-257.0,-78.0,0
463,-56.0,-269.0,-62.0,0
464,-56.0,-285.0,-46.0,0
465,-51.0,-295.0,-28.0,0
466,-45.0,-302.0,-13.0,0
467,-44.0,-308.0,-6.0,0
468,-48.0,-305.0,-5.0,0
469,-44.0,-308.0,2.0,0
470,-46.0,-309.0,5.0,0
471,-40.0,-311.0,10.0,0
472,-35.0,-310.0,16.0,0
473,-27.0,-317.0,23.0,0
474,-12.0,-314.0,23.0,0
475,-2.0,-312.0,37.0,0
476,5.0,-306.0,41.0,0
477,17.0,-302.0,45.0,0
478,26.0,-292.0,44.0,0
479,31.0,-285.0,40.0,0
480,36.0,-281.0,34.0,0
481,43.0,-279.0,9.0,0
482,40.0,-275.0,-14.0,0
483,42.0,-280.0,-26.0,0
484,42.0,-294.0,-51.0,0
485,25.0,-301.0,-81.0,0
486,17.0,-312.0,-75.0,0
487,-7.0,-345.0,-28.0,0
488,-21.0,-371.0,13.0,0
489,-39.0,-380.0,20.0,0
490,-45.0,-369.0,10.0,0
491,-60.0,-350.0,-9.0,0
492,-63.0,-328.0,-29.0,0
493,-69.0,-305.0,-54.0,0
494,-64.0,-284.0,-75.0,0
495,-54.0,-260.0,-110.0,0
496,-51.0,-234.0,-134.0,0
497,-45.0,-212.0,-151.0,0
498,-40.0,-206.0,-152.0,0
499,-33.0,-216.0,-133.0,0
500,-29.0,-231.0,-118.0,0
501,-15.0,-242.0,-112.0,0
502,-5.0,-241.0,-113.0,0
503,21.0,-232.0,-120.0,0
504,51.0,-219.0,-127.0,0
505,72.0,-205.0,-132.0,0
506,88.0,-190.0,-136.0,0
507,98.0,-172.0,-141.0,0
508,104.0,-157.0,-146.0,0
509,102.0,-163.0,-148.0,0
510,91.0,-188.0,-148.0,0
511,87.0,-210.0,-144.0,0
512,77.0,-233.0,-128.0,0
513,64.0,-257.0,-110.0,0
514,49.0,-281.0,-96.0,0
515,36.0,-300.0,-83.0,0
516,15.0,-309.0,-73.0,0
517,0.0,-318.0,-67.0,0
518,-19.0,-319.0,-65.0,0
519,-33.0,-318.0,-63.0,0
520,-46.0,-304.0,-59.0,0
521,-58.0,-292.0,-63.0,0
522,-64.0,-276.0,-62.0,0
523,-72.0,-261.0,-63.0,0
524,-70.0,-251.0,-65.0,0
525,-73.0,-235.0,-77.0,0
526,-67.0,-222.0,-81.0,0
527,-64.0,-217.0,-83.0,0
528,-58.0,-212.0,-85.0,0
529,-55.0,-215.0,-83.0,0
530,-46.0,-209.0,-79.0,0
531,-38.0,-209.0,-73.0,0
532,-34.0,-214.0,-66.0,0
533,-27.0,-218.0,-68.0,0
534,-19.0,-219.0,-57.0,0
535,-10.0,-219.0,-56.0,0
536,-8.0,-227.0,-45.0,0
537,-3.0,-217.0,-47.0,0
538,1.0,-216.0,-49.0,0
539,15.0,-211.0,-44.0,0
540,16.0,-203.0,-48.0,0
541,19.0,-202.0,-48.0,0
542,15.0,-195.0,-48.0,0
543,15.0,-197.0,-49.0,0
544,11.0,-196.0,-46.0,0
545,9.0,-199.0,-47.0,0
546,5.0,-202.0,-49.0,0
547,4.0,-203.0,-47.0,0
548,5.0,-214.0,-45.0,0
549,1.0,-212.0,-47.0,0
550,5.0,-221.0,-44.0,0
551,7.0,-224.0,-46.0,0
552,13.0,-227.0,-45.0,0
553,19.0,-232.0,-42.0,0
554,14.0,-227.0,-41.0,0
555,21.0,-225.0,-39.0,0
556,21.0,-227.0,-43.0,0
557,19.0,-224.0,-37.0,0
558,19.0,-221.0,-41.0,0
559,22.0,-218.0,-41.0,0
560,19.0,-212.0,-40.0,0
561,20.0,-208.0,-34.0,0
562,21.0,-210.0,-34.0,0
563,19.0,-208.0,-34.0,0
564,23.0,-211.0,-29.0,0
565,17.0,-215.0,-30.0,0
566,14.0,-221.0,-28.0,0
567,14.0,-228.0,-23.0,0
568,16.0,-229.0,-23.0,0
569,17.0,-229.0,-20.0,0
570,16.0,-235.0,-24.0,0
571,17.0,-231.0,-22.0,0
572,15.0,-234.0,-24.0,0
573,11.0,-238.0,-25.0,0
574,13.0,-241.0,-16.0,0
575,10.0,-241.0,-22.0,0
576,9.0,-244.0,-19.0,0
577,7.0,-249.0,-25.0,0
578,5.0,-254.0,-21.0,0
579,12.0,-257.0,-21.0,0
580,16.0,-263.0,-24.0,0
581,21.0,-269.0,-27.0,0
582,28.0,-271.0,-39.0,0
583,36.0,-268.0,-51.0,0
584,50.0,-260.0,-73.0,0
585,52.0,-254.0,-85.0,0
586,48.0,-244.0,-88.0,0
587,50.0,-249.0,-82.0,0
588,47.0,-255.0,-71.0,0
589,43.0,-267.0,-54.0,0
590,42.0,-281.0,-40.0,0
591,48.0,-295.0,-41.0,0
592,54.0,-302.0,-34.0,0
593,66.0,-312.0,-29.0,0
594,83.0,-318.0,-16.0,0
595,92.0,-322.0,-1.0,0
596,92.0,-330.0,14.0,0
597,87.0,-334.0,23.0,0
598,76.0,-335.0,33.0,0
599,58.0,-331.0,38.0,0
600,45.0,-329.0,40.0,0
601,25.0,-326.0,45.0,0
602,3.0,-320.0,36.0,0
603,-12.0,-309.0,29.0,0
604,-27.0,-301.0,10.0,0
605,-49.0,-296.0,-11.0,0
606,-71.0,-304.0,-9.0,0
607,-85.0,-308.0,-22.0,0
608,-83.0,-307.0,-47.0,0
609,-66.0,-314.0,-70.0,0
610,-42.0,-342.0,-40.0,0
611,-16.0,-382.0,4.0,0
612,4.0,-396.0,23.0,0
613,25.0,-383.0,10.0,0
614,43.0,-359.0,-10.0,0
615,59.0,-319.0,-31.0,0
616,68.0,-297.0,-50.0,0
617,67.0,-272.0,-66.0,0
618,70.0,-251.0,-84.0,0
619,71.0,-235.0,-99.0,0
620,74.0,-227.0,-105.0,0
621,69.0,-230.0,-107.0,0
622,71.0,-244.0,-100.0,0
623,69.0,-259.0,-95.0,0
624,53.0,-271.0,-89.0,0
625,38.0,-274.0,-91.0,0
626,14.0,-276.0,-96.0,0
627,-8.0,-271.0,-107.0,0
628,-26.0,-270.0,-115.0,0
629,-48.0,-260.0,-122.0,0
630,-70.0,-239.0,-122.0,0
631,-82.0,-230.0,-125.0,0
632,-85.0,-225.0,-129.0,0
633,-108.0,-207.0,-137.0,0
634,-113.0,-191.0,-139.0,0
635,-110.0,-177.0,-138.0,0
636,-102.0,-170.0,-138.0,0
637,-85.0,-171.0,-128.0,0
638,-68.0,-175.0,-120.0,0
639,-50.0,-181.0,-105.0,0
640,-24.0,-195.0,-91.0,0
641,-2.0,-203.0,-84.0,0
642,23.0,-218.0,-76.0,0
643,44.0,-231.0,-75.0,0
644,60.0,-242.0,-71.0,0
645,72.0,-252.0,-68.0,0
646,78.0,-260.0,-67.0,0
647,88.0,-265.0,-69.0,0
648,87.0,-270.0,-65.0,0
649,88.0,-267.0,-64.0,0
650,85.0,-270.0,-68.0,0
651,72.0,-261.0,-69.0,0
652,57.0,-259.0,-72.0,0
653,47.0,-248.0,-72.0,0
654,35.0,-238.0,-72.0,0
655,21.0,-226.0,-73.0,0
656,11.0,-216.0,-71.0,0
657,4.0,-205.0,-67.0,0
658,-2.0,-198.0,-61.0,0
659,-11.0,-195.0,-59.0,0
660,-9.0,-186.0,-57.0,0
661,-7.0,-183.0,-58.0,0
662,-12.0,-183.0,-59.0,0
663,-15.0,-193.0,-60.0,0
664,-15.0,-197.0,-53.0,0
665,-13.0,-201.0,-51.0,0
666,-16.0,-208.0,-51.0,0
667,-12.0,-214.0,-50.0,0
668,-16.0,-217.0,-49.0,0
669,-13.0,-222.0,-50.0,0
670,-13.0,-224.0,-48.0,0
671,-12.0,-229.0,-48.0,0
672,-10.0,-232.0,-49.0,0
673,-10.0,-235.0,-44.0,0
674,-12.0,-236.0,-40.0,0
675,-12.0,-237.0,-41.0,0
676,-12.0,-239.0,-42.0,0
677,-15.0,-237.0,-40.0,0
678,-20.0,-238.0,-33.0,0
679,-14.0,-241.0,-39.0,0
680,-11.0,-232.0,-40.0,0
681,-28.0,-240.0,-36.0,0
682,-30.0,-230.0,-38.0,0
683,-28.0,-232.0,-31.0,0
684,-30.0,-227.0,-38.0,0
685,-22.0,-226.0,-35.0,0
686,-20.0,-226.0,-32.0,0
687,-14.0,-225.0,-29.0,0
688,-14.0,-227.0,-29.0,0
689,-14.0,-225.0,-26.0,0
690,-14.0,-228.0,-26.0,0
691,-12.0,-231.0,-24.0,0
692,-12.0,-236.0,-26.0,0
693,-10.0,-232.0,-21.0,0
694,-12.0,-232.0,-20.0,0
695,-6.0,-242.0,-17.0,0
696,-4.0,-241.0,-16.0,0
697,0.0,-249.0,-18.0,0
698,5.0,-247.0,-14.0,0
699,9.0,-245.0,-7.0,0
700,14.0,-247.0,-13.0,0
701,15.0,-250.0,-15.0,0
702,16.0,-255.0,-12.0,0
703,16.0,-257.0,-10.0,0
704,22.0,-262.0,-4.0,0
705,21.0,-264.0,-2.0,0
706,12.0,-268.0,0.0,0
707,2.0,-268.0,-1.0,0
708,-8.0,-269.0,-9.0,0
709,-11.0,-268.0,-38.0,0
710,-14.0,-253.0,-53.0,0
711,-17.0,-246.0,-74.0,0
712,-34.0,-245.0,-93.0,0
713,-46.0,-259.0,-85.0,0
714,-51.0,-275.0,-50.0,0
715,-48.0,-283.0,-31.0,0
716,-48.0,-288.0,-18.0,0
717,-57.0,-290.0,-8.0,0
718,-68.0,-289.0,-4.0,0
719,-78.0,-293.0,6.0,0
720,-82.0,-300.0,14.0,0
721,-82.0,-299.0,27.0,0
722,-78.0,-298.0,33.0,0
723,-68.0,-304.0,45.0,0
724,-57.0,-310.0,56.0,0
725,-35.0,-307.0,52.0,0
726,-20.0,-304.0,62.0,0
727,-5.0,-301.0,54.0,0
728,15.0,-303.0,46.0,0
729,26.0,-299.0,19.0,0
730,36.0,-296.0,-2.0,0
731,46.0,-309.0,-10.0,0
732,56.0,-326.0,-26.0,0
733,43.0,-329.0,-71.0,0
734,18.0,-331.0,-86.0,0
735,-6.0,-351.0,-31.0,0
736,-29.0,-377.0,15.0,0
737,-48.0,-370.0,27.0,0
738,-50.0,-363.0,20.0,0
739,-64.0,-340.0,3.0,0
740,-74.0,-321.0,-11.0,0
741,-75.0,-298.0,-28.0,0
742,-72.0,-274.0,-54.0,0
743,-58.0,-255.0,-83.0,0
744,-50.0,-229.0,-116.0,0
745,-44.0,-219.0,-132.0,0
746,-46.0,-209.0,-145.0,0
747,-44.0,-231.0,-126.0,0
748,-39.0,-260.0,-106.0,0
749,-27.0,-279.0,-98.0,0
750,-9.0,-289.0,-104.0,0
751,27.0,-288.0,-115.0,0
752,57.0,-275.0,-125.0,0
753,79.0,-268.0,-141.0,0
754,102.0,-259.0,-142.0,0
755,122.0,-234.0,-147.0,0
756,129.0,-197.0,-144.0,0
757,135.0,-180.0,-145.0,0
758,133.0,-174.0,-143.0,0
759,122.0,-189.0,-139.0,0
760,115.0,-201.0,-134.0,0
761,101.0,-216.0,-122.0,0
762,80.0,-222.0,-115.0,0
763,66.0,-233.0,-99.0,0
764,47.0,-245.0,-94.0,0
765,23.0,-248.0,-90.0,0
766,-1.0,-254.0,-84.0,0
767,-20.0,-262.0,-80.0,0
768,-32.0,-268.0,-80.0,0
769,-54.0,-274.0,-68.0,0
770,-72.0,-277.0,-63.0,0
771,-77.0,-286.0,-60.0,0
772,-84.0,-283.0,-53.0,0
773,-85.0,-280.0,-51.0,0
774,-82.0,-267.0,-52.0,0
775,-77.0,-264.0,-54.0,0
776,-74.0,-257.0,-54.0,0
777,-70.0,-251.0,-56.0,0
778,-61.0,-240.0,-58.0,0
779,-49.0,-235.0,-56.0,0
780,-36.0,-233.0,-56.0,0
781,-38.0,-233.0,-53.0,0
782,-24.0,-223.0,-51.0,0
783,-13.0,-223.0,-54.0,0
784,-11.0,-217.0,-54.0,0
785,-10.0,-217.0,-53.0,0
786,0.0,-205.0,-55.0,0
787,6.0,-203.0,-48.0,0
788,8.0,-198.0,-50.0,0
789,8.0,-194.0,-49.0,0
790,9.0,-197.0,-45.0,0
791,6.0,-190.0,-45.0,0
792,11.0,-187.0,-43.0,0
793,16.0,-186.0,-44.0,0
794,13.0,-189.0,-43.0,0
795,17.0,-194.0,-39.0,0
796,6.0,-197.0,-48.0,0
797,15.0,-204.0,-40.0,0
798,12.0,-209.0,-37.0,0
799,11.0,-220.0,-40.0,0
800,11.0,-227.0,-40.0,0
801,13.0,-239.0,-35.0,0
802,14.0,-244.0,-36.0,0
803,18.0,-247.0,-32.0,0
804,19.0,-247.0,-33.0,0
805,22.0,-243.0,-34.0,0
806,24.0,-246.0,-38.0,0
807,21.0,-241.0,-37.0,0
808,19.0,-237.0,-36.0,0
809,13.0,-231.0,-37.0,0
810,16.0,-230.0,-35.0,0
811,13.0,-225.0,-34.0,0
812,14.0,-226.0,-31.0,0
813,14.0,-225.0,-26.0,0
814,12.0,-220.0,-31.0,0
815,9.0,-219.0,-25.0,0
816,15.0,-225.0,-26.0,0
817,13.0,-223.0,-22.0,0
818,15.0,-224.0,-24.0,0
819,17.0,-223.0,-21.0,0
820,16.0,-223.0,-23.0,0
821,15.0,-224.0,-16.0,0
822,20.0,-226.0,-19.0,0
823,17.0,-226.0,-17.0,0
824,15.0,-231.0,-19.0,0
825,14.0,-232.0,-21.0,0
826,12.0,-239.0,-14.0,0
827,6.0,-240.0,-16.0,0
828,2.0,-243.0,-14.0,0
829,1.0,-249.0,-10.0,0
830,1.0,-251.0,-15.0,0
831,0.0,-252.0,-15.0,0
832,8.0,-256.0,-17.0,0
833,23.0,-257.0,-24.0,0
834,33.0,-261.0,-38.0,0
835,37.0,-258.0,-46.0,0
836,41.0,-258.0,-50.0,0
837,43.0,-256.0,-61.0,0
838,49.0,-259.0,-59.0,0
839,49.0,-267.0,-51.0,0
840,44.0,-272.0,-43.0,0
841,32.0,-275.0,-39.0,0
842,26.0,-277.0,-47.0,0
843,30.0,-281.0,-55.0,0
844,35.0,-281.0,-53.0,0
845,45.0,-276.0,-46.0,0
846,55.0,-284.0,-39.0,0
847,61.0,-287.0,-17.0,0
848,64.0,-297.0,-5.0,0
849,60.0,-308.0,10.0,0
850,48.0,-319.0,20.0,0
851,32.0,-321.0,29.0,0
852,16.0,-321.0,32.0,0
853,-3.0,-319.0,38.0,0
854,-20.0,-317.0,32.0,0
855,-34.0,-316.0,19.0,0
856,-53.0,-315.0,-5.0,0
857,-79.0,-326.0,1.0,0
858,-94.0,-336.0,-9.0,0
859,-90.0,-348.0,-40.0,0
860,-71.0,-344.0,-90.0,0
861,-39.0,-363.0,-86.0,0
862,-11.0,-397.0,-43.0,0
863,13.0,-414.0,-11.0,0
864,42.0,-413.0,-4.0,0
865,62.0,-397.0,-19.0,0
866,78.0,-367.0,-34.0,0
867,91.0,-340.0,-50.0,0
868,92.0,-322.0,-52.0,0
869,103.0,-297.0,-59.0,0
870,109.0,-262.0,-70.0,0
871,107.0,-243.0,-64.0,0
872,96.0,-227.0,-65.0,0
873,94.0,-222.0,-55.0,0
874,86.0,-218.0,-56.0,0
875,72.0,-222.0,-61.0,0
876,53.0,-216.0,-78.0,0
877,29.0,-215.0,-84.0,0
878,-6.0,-209.0,-96.0,0
879,-26.0,-201.0,-103.0,0
880,-43.0,-196.0,-118.0,0
881,-65.0,-192.0,-120.0,0
882,-72.0,-195.0,-121.0,0
883,-85.0,-189.0,-126.0,0
884,-94.0,-183.0,-123.0,0
885,-102.0,-181.0,-130.0,0
886,-107.0,-185.0,-124.0,0
887,-99.0,-195.0,-121.0,0
888,-97.0,-202.0,-119.0,0
889,-87.0,-213.0,-122.0,0
890,-78.0,-219.0,-117.0,0
891,-62.0,-230.0,-112.0,0
892,-42.0,-237.0,-105.0,0
893,-24.0,-243.0,-98.0,0
894,-6.0,-249.0,-93.0,0
895,15.0,-258.0,-93.0,0
896,40.0,-266.0,-89.0,0
897,55.0,-274.0,-84.0,0
898,72.0,-280.0,-78.0,0
899,91.0,-284.0,-79.0,0
900,101.0,-288.0,-77.0,0
901,107.0,-284.0,-72.0,0
902,105.0,-276.0,-68.0,0
903,102.0,-270.0,-73.0,0
904,94.0,-257.0,-75.0,0
905,85.0,-249.0,-73.0,0
906,75.0,-238.0,-76.0,0
907,63.0,-226.0,-71.0,0
908,52.0,-219.0,-76.0,0
909,40.0,-217.0,-68.0,0
910,27.0,-218.0,-61.0,0
911,15.0,-215.0,-58.0,0
912,0.0,-216.0,-51.0,0
913,-6.0,-220.0,-54.0,0
914,-12.0,-220.0,-57.0,0
915,-14.0,-227.0,-55.0,0
916,-24.0,-226.0,-51.0,0
917,-25.0,-228.0,-49.0,0
918,-33.0,-228.0,-50.0,0
919,-33.0,-229.0,-50.0,0
920,-32.0,-228.0,-49.0,0
921,-32.0,-224.0,-46.0,0
922,-31.0,-219.0,-36.0,0
923,-23.0,-215.0,-40.0,0
924,-22.0,-211.0,-38.0,0
925,-14.0,-203.0,-42.0,0
926,-12.0,-198.0,-43.0,0
927,-12.0,-190.0,-48.0,0
928,11.0,-175.0,-51.0,0
929,4.0,-193.0,-40.0,0
930,-10.0,-203.0,-31.0,0
931,-12.0,-210.0,-37.0,0
932,-11.0,-218.0,-38.0,0
933,-8.0,-223.0,-41.0,0
934,-6.0,-227.0,-30.0,0
935,-11.0,-232.0,-34.0,0
936,-9.0,-238.0,-32.0,0
937,-11.0,-241.0,-28.0,0
938,-10.0,-246.0,-31.0,0
939,-10.0,-249.0,-29.0,0
940,-11.0,-242.0,-24.0,0
941,-14.0,-238.0,-27.0,0
942,-10.0,-239.0,-28.0,0
943,-15.0,-241.0,-28.0,0
944,-20.0,-237.0,-25.0,0
945,-25.0,-237.0,-21.0,0
946,-26.0,-233.0,-19.0,0
947,-28.0,-232.0,-20.0,0
948,-32.0,-231.0,-20.0,0
949,-33.0,-225.0,-20.0,0
950,-30.0,-224.0,-24.0,0
951,-28.0,-224.0,-22.0,0
952,-24.0,-219.0,-21.0,0
953,-21.0,-220.0,-27.0,0
954,-13.0,-222.0,-25.0,0
955,-11.0,-227.0,-24.0,0
956,-7.0,-236.0,-33.0,0
957,-4.0,-232.0,-33.0,0
958,1.0,-241.0,-17.0,0
959,7.0,-243.0,-15.0,0
960,7.0,-244.0,-18.0,0
961,2.0,-249.0,-21.0,0
962,1.0,-254.0,-25.0,0
963,-13.0,-254.0,-38.0,0
964,-20.0,-258.0,-41.0,0
965,-29.0,-259.0,-54.0,0
966,-32.0,-265.0,-58.0,0
967,-41.0,-274.0,-65.0,0
968,-42.0,-282.0,-61.0,0
969,-45.0,-289.0,-59.0,0
970,-45.0,-292.0,-47.0,0
971,-47.0,-290.0,-41.0,0
972,-53.0,-288.0,-34.0,0
973,-57.0,-288.0,-26.0,0
974,-57.0,-292.0,-19.0,0
975,-54.0,-296.0,-7.0,0
976,-45.0,-300.0,11.0,0
977,-32.0,-302.0,23.0,0
978,-13.0,-301.0,34.0,0
979,8.0,-296.0,41.0,0
980,25.0,-301.0,46.0,0
981,38.0,-304.0,41.0,0
982,54.0,-293.0,46.0,0
983,67.0,-292.0,46.0,0
984,82.0,-291.0,45.0,0
985,84.0,-286.0,51.0,0
986,85.0,-284.0,48.0,0
987,84.0,-288.0,53.0,0
988,79.0,-284.0,40.0,0
989,74.0,-281.0,13.0,0
990,70.0,-279.0,-10.0,0
991,59.0,-284.0,-14.0,0
992,53.0,-302.0,-54.0,0
993,29.0,-301.0,-111.0,0
994,-1.0,-318.0,-125.0,0
995,-31.0,-353.0,-57.0,0
996,-55.0,-377.0,-13.0,0
997,-80.0,-390.0,0.0,0
998,-102.0,-381.0,-11.0,0
999,-123.0,-371.0,-22.0,0
1000,-125.0,-347.0,-38.0,0
1001,-112.0,-329.0,-68.0,0
1002,-101.0,-307.0,-94.0,0
1003,-88.0,-287.0,-110.0,0
1004,-82.0,-278.0,-102.0,0
1005,-65.0,-270.0,-95.0,0
1006,-51.0,-274.0,-84.0,0
1007,-27.0,-288.0,-76.0,0
1008,1.0,-297.0,-75.0,0
1009,29.0,-297.0,-82.0,0
1010,57.0,-287.0,-89.0,0
1011,72.0,-274.0,-102.0,0
1012,90.0,-254.0,-119.0,0
1013,100.0,-228.0,-137.0,0
1014,100.0,-199.0,-150.0,0
1015,93.0,-179.0,-153.0,0
1016,86.0,-163.0,-152.0,0
1017,77.0,-150.0,-147.0,0
1018,75.0,-148.0,-133.0,0
1019,59.0,-143.0,-127.0,0
1020,48.0,-150.0,-127.0,0
1021,42.0,-155.0,-119.0,0
1022,21.0,-168.0,-100.0,0
1023,-5.0,-168.0,-119.0,0
1024,-9.0,-197.0,-105.0,0
1025,-17.0,-233.0,-86.0,0
1026,-28.0,-243.0,-89.0,0
1027,-36.0,-258.0,-81.0,0
1028,-52.0,-270.0,-75.0,0
1029,-61.0,-279.0,-66.0,0
1030,-60.0,-290.0,-63.0,0
1031,-62.0,-292.0,-57.0,0
1032,-56.0,-298.0,-55.0,0
1033,-46.0,-295.0,-58.0,0
1034,-42.0,-293.0,-54.0,0
1035,-35.0,-284.0,-56.0,0
1036,-34.0,-268.0,-56.0,0
1037,-29.0,-265.0,-58.0,0
1038,-24.0,-257.0,-55.0,0
1039,-18.0,-246.0,-57.0,0
1040,-16.0,-239.0,-56.0,0
1041,-13.0,-233.0,-53.0,0
1042,-16.0,-228.0,-57.0,0
1043,-16.0,-222.0,-53.0,0
1044,-14.0,-222.0,-55.0,0
1045,-17.0,-216.0,-54.0,0
1046,-21.0,-222.0,-58.0,0
1047,-14.0,-220.0,-55.0,0
1048,-13.0,-221.0,-58.0,0
1049,-13.0,-226.0,-57.0,0
1050,-11.0,-227.0,-55.0,0
1051,-12.0,-226.0,-56.0,0
1052,-12.0,-225.0,-52.0,0
1053,-14.0,-227.0,-52.0,0
1054,-11.0,-225.0,-49.0,0
1055,-7.0,-222.0,-48.0,0
1056,-4.0,-223.0,-42.0,0
1057,0.0,-221.0,-42.0,0
1058,1.0,-220.0,-42.0,0
1059,4.0,-219.0,-44.0,0
1060,13.0,-222.0,-40.0,0
1061,14.0,-223.0,-42.0,0
1062,19.0,-225.0,-36.0,0
1063,27.0,-230.0,-37.0,0
1064,28.0,-234.0,-26.0,0
1065,31.0,-231.0,-32.0,0
1066,38.0,-238.0,-37.0,0
1067,37.0,-237.0,-31.0,0
1068,31.0,-239.0,-34.0,0
1069,30.0,-246.0,-30.0,0
1070,27.0,-247.0,-31.0,0
1071,22.0,-247.0,-30.0,0
1072,14.0,-246.0,-30.0,0
1073,13.0,-246.0,-34.0,0
1074,9.0,-249.0,-27.0,0
1075,3.0,-246.0,-28.0,0
1076,2.0,-245.0,-25.0,0
1077,-1.0,-246.0,-26.0,0
1078,-4.0,-246.0,-23.0,0
1079,-2.0,-250.0,-22.0,0
1080,4.0,-250.0,-21.0,0
1081,1.0,-247.0,-18.0,0
1082,1.0,-245.0,-18.0,0
1083,2.0,-245.0,-19.0,0
1084,10.0,-252.0,-21.0,0
1085,12.0,-249.0,-25.0,0
1086,11.0,-248.0,-23.0,0
1087,17.0,-249.0,-27.0,0
1088,19.0,-250.0,-28.0,0
1089,18.0,-245.0,-44.0,0
1090,26.0,-242.0,-58.0,0
1091,19.0,-252.0,-44.0,0
1092,9.0,-260.0,-54.0,0
1093,18.0,-256.0,-69.0,0
1094,33.0,-243.0,-65.0,0
1095,39.0,-249.0,-45.0,0
1096,37.0,-254.0,-5.0,0
1097,27.0,-263.0,25.0,0
1098,12.0,-264.0,43.0,0
1099,-9.0,-269.0,52.0,0
1100,-28.0,-271.0,49.0,0
1101,-48.0,-278.0,30.0,0
1102,-69.0,-275.0,17.0,0
1103,-72.0,-273.0,11.0,0
1104,-77.0,-267.0,8.0,0
1105,-82.0,-269.0,1.0,0
1106,-83.0,-271.0,-8.0,0
1107,-80.0,-264.0,-11.0,0
1108,-77.0,-257.0,-19.0,0
1109,-67.0,-247.0,-25.0,0
1110,-64.0,-235.0,-28.0,0
1111,-50.0,-226.0,-33.0,0
1112,-35.0,-217.0,-39.0,0
1113,-14.0,-204.0,-53.0,0
1114,1.0,-197.0,-58.0,0
1115,18.0,-197.0,-69.0,0
1116,40.0,-200.0,-77.0,0
1117,60.0,-216.0,-89.0,0
1118,72.0,-218.0,-85.0,0
1119,92.0,-234.0,-91.0,0
1120,106.0,-240.0,-91.0,0
1121,113.0,-250.0,-97.0,0
1122,112.0,-260.0,-89.0,0
1123,106.0,-270.0,-86.0,0
1124,95.0,-274.0,-73.0,0
1125,80.0,-272.0,-72.0,0
1126,67.0,-267.0,-74.0,0
1127,46.0,-259.0,-66.0,0
1128,29.0,-259.0,-71.0,0
1129,3.0,-239.0,-67.0,0
1130,-19.0,-222.0,-75.0,0
1131,-39.0,-206.0,-80.0,0
1132,-53.0,-193.0,-84.0,0
1133,-65.0,-181.0,-84.0,0
1134,-68.0,-173.0,-90.0,0
1135,-66.0,-169.0,-92.0,0
1136,-65.0,-165.0,-82.0,0
1137,-63.0,-169.0,-75.0,0
1138,-55.0,-171.0,-66.0,0
1139,-46.0,-182.0,-59.0,0
1140,-39.0,-190.0,-57.0,0
1141,-29.0,-196.0,-57.0,0
1142,-21.0,-203.0,-60.0,0
1143,-6.0,-216.0,-66.0,0
1144,1.0,-216.0,-76.0,0
1145,10.0,-219.0,-82.0,0
1146,14.0,-218.0,-84.0,0
1147,19.0,-219.0,-82.0,0
1148,23.0,-219.0,-79.0,0
1149,31.0,-222.0,-77.0,0
1150,40.0,-231.0,-67.0,0
1151,46.0,-237.0,-58.0,0
1152,50.0,-244.0,-54.0,0
1153,55.0,-251.0,-43.0,0
1154,55.0,-258.0,-43.0,0
1155,53.0,-255.0,-44.0,0
1156,50.0,-249.0,-50.0,0
1157,41.0,-245.0,-49.0,0
1158,31.0,-241.0,-56.0,0
1159,20.0,-233.0,-49.0,0
1160,10.0,-231.0,-46.0,0
1161,2.0,-236.0,-45.0,0
1162,-4.0,-239.0,-42.0,0
1163,-11.0,-245.0,-42.0,0
1164,-12.0,-244.0,-45.0,0
1165,-13.0,-247.0,-44.0,0
1166,-12.0,-244.0,-45.0,0
1167,-12.0,-251.0,-47.0,0
1168,-12.0,-251.0,-45.0,0
1169,-7.0,-252.0,-44.0,0
1170,-4.0,-255.0,-46.0,0
1171,-1.0,-253.0,-39.0,0
1172,2.0,-253.0,-39.0,0
1173,1.0,-251.0,-37.0,0
1174,2.0,-249.0,-38.0,0
1175,-1.0,-244.0,-33.0,0
1176,-11.0,-236.0,-35.0,0
1177,-12.0,-231.0,-24.0,0
1178,-12.0,-227.0,-23.0,0
1179,-22.0,-222.0,-16.0,0
1180,-22.0,-222.0,-12.0,0
1181,-31.0,-221.0,-8.0,0
1182,-36.0,-220.0,-10.0,0
1183,-39.0,-217.0,-16.0,0
1184,-44.0,-211.0,-24.0,0
1185,-44.0,-207.0,-33.0,0
1186,-39.0,-203.0,-33.0,0
1187,-37.0,-199.0,-34.0,0
1188,-27.0,-202.0,-34.0,0
1189,-18.0,-207.0,-35.0,0
1190,-12.0,-208.0,-29.0,0
1191,-7.0,-213.0,-20.0,0
1192,3.0,-226.0,-17.0,0
1193,7.0,-229.0,-11.0,0
1194,10.0,-232.0,-11.0,0
1195,14.0,-239.0,-10.0,0
1196,13.0,-235.0,-16.0,0
1197,11.0,-233.0,-19.0,0
1198,10.0,-225.0,-19.0,0
1199,9.0,-222.0,-18.0,0
1200,8.0,-211.0,-17.0,0
1201,4.0,-203.0,-20.0,0
1202,-5.0,-200.0,-22.0,0
1203,-9.0,-191.0,-25.0,0
1204,-17.0,-177.0,-30.0,0
1205,-22.0,-169.0,-50.0,0
1206,-26.0,-160.0,-65.0,0
1207,-33.0,-152.0,-78.0,0
1208,-35.0,-149.0,-83.0,0
1209,-34.0,-151.0,-83.0,0
1210,-40.0,-160.0,-73.0,0
1211,-42.0,-174.0,-60.0,0
1212,-44.0,-192.0,-57.0,0
1213,-45.0,-201.0,-56.0,0
1214,-46.0,-208.0,-56.0,0
1215,-51.0,-212.0,-64.0,0
1216,-54.0,-215.0,-69.0,0
1217,-61.0,-220.0,-77.0,0
1218,-65.0,-225.0,-84.0,0
1219,-68.0,-222.0,-101.0,0
1220,-66.0,-222.0,-106.0,0
1221,-62.0,-224.0,-109.0,0
1222,-61.0,-229.0,-102.0,0
1223,-63.0,-235.0,-97.0,0
1224,-62.0,-237.0,-94.0,0
1225,-66.0,-235.0,-93.0,0
1226,-61.0,-228.0,-96.0,0
1227,-70.0,-236.0,-92.0,0
1228,-81.0,-234.0,-87.0,0
1229,-88.0,-236.0,-92.0,0
1230,-92.0,-238.0,-95.0,0
1231,-94.0,-237.0,-104.0,0
1232,-96.0,-230.0,-104.0,0
1233,-99.0,-227.0,-109.0,0
1234,-107.0,-231.0,-112.0,0
1235,-110.0,-235.0,-122.0,0
1236,-113.0,-241.0,-134.0,0
1237,-106.0,-245.0,-160.0,0
1238,-98.0,-238.0,-199.0,0
1239,-89.0,-227.0,-219.0,0
1240,-75.0,-234.0,-213.0,0
1241,-71.0,-234.0,-220.0,0
1242,-61.0,-235.0,-238.0,0
1243,-50.0,-224.0,-235.0,0
1244,-28.0,-226.0,-226.0,0
1245,-5.0,-246.0,-214.0,0
1246,21.0,-263.0,-217.0,0
1247,44.0,-282.0,-237.0,0
1248,66.0,-301.0,-259.0,0
1249,88.0,-312.0,-279.0,0
1250,111.0,-315.0,-296.0,0
1251,130.0,-320.0,-309.0,0
1252,153.0,-324.0,-326.0,0
1253,175.0,-322.0,-348.0,0
1254,171.0,-293.0,-345.0,0
1255,169.0,-264.0,-329.0,0
1256,150.0,-218.0,-300.0,0
1257,132.0,-155.0,-284.0,0
1258,130.0,-100.0,-269.0,0
1259,137.0,-67.0,-263.0,0
1260,125.0,-64.0,-245.0,0
1261,82.0,-91.0,-251.0,0
1262,24.0,-136.0,-261.0,0
1263,-19.0,-183.0,-280.0,0
1264,-61.0,-252.0,-293.0,0
1265,-103.0,-309.0,-331.0,0
1266,-161.0,-395.0,-348.0,0
1267,-217.0,-421.0,-371.0,0
1268,-271.0,-432.0,-370.0,0
1269,-301.0,-408.0,-352.0,0
1270,-283.0,-372.0,-329.0,0
1271,-248.0,-321.0,-303.0,0
1272,-218.0,-268.0,-277.0,0
1273,-180.0,-226.0,-256.0,0
1274,-146.0,-196.0,-252.0,0
1275,-84.0,-170.0,-228.0,0
1276,-53.0,-147.0,-221.0,0
1277,-37.0,-162.0,-203.0,0
1278,-19.0,-185.0,-194.0,0
1279,2.0,-217.0,-189.0,0
1280,19.0,-237.0,-179.0,0
1281,32.0,-249.0,-166.0,0
1282,35.0,-258.0,-158.0,0
1283,25.0,-271.0,-152.0,0
1284,10.0,-290.0,-147.0,0
1285,2.0,-301.0,-153.0,0
1286,-6.0,-301.0,-162.0,0
1287,-18.0,-283.0,-151.0,0
1288,-45.0,-257.0,-125.0,0
1289,-66.0,-244.0,-118.0,0
1290,-77.0,-237.0,-109.0,0
1291,-86.0,-238.0,-101.0,0
1292,-93.0,-238.0,-94.0,0
1293,-95.0,-241.0,-85.0,0
1294,-97.0,-243.0,-85.0,0
1295,-100.0,-237.0,-84.0,0
1296,-94.0,-241.0,-91.0,0
1297,-87.0,-239.0,-94.0,0
1298,-80.0,-236.0,-94.0,0
1299,-76.0,-227.0,-90.0,0
1300,-75.0,-234.0,-78.0,0
1301,-72.0,-234.0,-78.0,0
1302,-65.0,-241.0,-77.0,0
1303,-56.0,-247.0,-76.0,0
1304,-50.0,-245.0,-78.0,0
1305,-47.0,-239.0,-73.0,0
1306,-43.0,-232.0,-68.0,0
1307,-41.0,-232.0,-59.0,0
1308,-39.0,-235.0,-60.0,0
1309,-35.0,-238.0,-62.0,0
1310,-32.0,-243.0,-69.0,0
1311,-28.0,-244.0,-70.0,0
1312,-30.0,-244.0,-77.0,0
1313,-33.0,-240.0,-78.0,0
1314,-36.0,-237.0,-83.0,0
1315,-38.0,-229.0,-87.0,0
1316,-39.0,-229.0,-88.0,0
1317,-45.0,-223.0,-90.0,0
1318,-46.0,-220.0,-95.0,0
1319,-44.0,-216.0,-96.0,0
1320,-41.0,-213.0,-93.0,0
1321,-37.0,-216.0,-94.0,0
1322,-38.0,-214.0,-95.0,0
1323,-39.0,-220.0,-91.0,0
1324,-31.0,-222.0,-90.0,0
1325,-33.0,-226.0,-92.0,0
1326,-30.0,-231.0,-92.0,0
1327,-29.0,-240.0,-92.0,0
1328,-26.0,-242.0,-95.0,0
1329,-25.0,-247.0,-100.0,0
1330,-21.0,-250.0,-109.0,0
1331,-23.0,-249.0,-107.0,0
1332,-26.0,-249.0,-111.0,0
1333,-31.0,-249.0,-112.0,0
1334,-38.0,-246.0,-114.0,0
1335,-40.0,-245.0,-117.0,0
1336,-45.0,-238.0,-121.0,0
1337,-45.0,-232.0,-120.0,0
1338,-44.0,-229.0,-120.0,0
1339,-47.0,-221.0,-119.0,0
1340,-48.0,-213.0,-119.0,0
1341,-48.0,-204.0,-119.0,0
1342,-46.0,-196.0,-118.0,0
1343,-45.0,-197.0,-122.0,0
1344,-45.0,-195.0,-127.0,0
1345,-54.0,-199.0,-127.0,0
1346,-57.0,-201.0,-125.0,0
1347,-58.0,-203.0,-124.0,0
1348,-58.0,-208.0,-120.0,0
1349,-62.0,-211.0,-117.0,0
1350,-61.0,-211.0,-121.0,0
1351,-67.0,-205.0,-120.0,0
1352,-62.0,-206.0,-127.0,0
1353,-64.0,-201.0,-124.0,0
1354,-67.0,-202.0,-127.0,0
1355,-75.0,-205.0,-123.0,0
1356,-78.0,-216.0,-120.0,0
1357,-89.0,-223.0,-124.0,0
1358,-86.0,-232.0,-128.0,0
1359,-86.0,-238.0,-128.0,0
1360,-81.0,-236.0,-133.0,0
1361,-77.0,-222.0,-145.0,0
1362,-76.0,-208.0,-149.0,0
1363,-72.0,-201.0,-158.0,0
1364,-76.0,-194.0,-161.0,0
1365,-77.0,-189.0,-160.0,0
1366,-79.0,-180.0,-162.0,0
1367,-78.0,-180.0,-158.0,0
1368,-77.0,-179.0,-155.0,0
1369,-69.0,-175.0,-149.0,0
1370,-62.0,-174.0,-141.0,0
1371,-65.0,-171.0,-137.0,0
1372,-63.0,-167.0,-140.0,0
1373,-66.0,-164.0,-149.0,0
1374,-75.0,-164.0,-160.0,0
1375,-77.0,-164.0,-166.0,0
1376,-81.0,-158.0,-174.0,0
1377,-87.0,-159.0,-172.0,0
1378,-93.0,-161.0,-168.0,0
1379,-104.0,-160.0,-154.0,0
1380,-102.0,-163.0,-152.0,0
1381,-103.0,-167.0,-153.0,0
1382,-102.0,-164.0,-159.0,0
1383,-96.0,-155.0,-155.0,0
1384,-86.0,-150.0,-155.0,0
1385,-76.0,-138.0,-152.0,0
1386,-69.0,-129.0,-145.0,0
1387,-54.0,-118.0,-132.0,0
1388,-43.0,-111.0,-127.0,0
1389,-38.0,-103.0,-123.0,0
1390,-33.0,-93.0,-116.0,0
1391,-34.0,-78.0,-114.0,0
1392,-37.0,-75.0,-109.0,0
1393,-45.0,-70.0,-98.0,0
1394,-51.0,-76.0,-88.0,0
1395,-61.0,-74.0,-83.0,0
1396,-74.0,-76.0,-75.0,0
1397,-79.0,-76.0,-72.0,1
1398,-77.0,-83.0,-69.0,1
1399,-71.0,-88.0,-56.0,1
1400,-61.0,-88.0,-55.0,1
1401,-47.0,-94.0,-52.0,1
1402,-36.0,-104.0,-55.0,1
1403,-14.0,-120.0,-50.0,1
1404,-5.0,-132.0,-55.0,1
1405,0.0,-142.0,-62.0,1
1406,1.0,-154.0,-66.0,1
1407,1.0,-161.0,-73.0,1
1408,-4.0,-164.0,-78.0,1
1409,4.0,-173.0,-76.0,1
1410,-3.0,-173.0,-76.0,1
1411,2.0,-175.0,-75.0,1
1412,-5.0,-174.0,-70.0,1
1413,-2.0,-172.0,-69.0,1
1414,-1.0,-171.0,-68.0,1
1415,-5.0,-172.0,-72.0,1
1416,-11.0,-178.0,-72.0,1
1417,-18.0,-187.0,-79.0,1
1418,-29.0,-201.0,-81.0,1
1419,-43.0,-219.0,-76.0,1
1420,-61.0,-236.0,-75.0,1
1421,-76.0,-253.0,-79.0,1
1422,-89.0,-260.0,-78.0,1
1423,-112.0,-257.0,-87.0,1
1424,-137.0,-245.0,-93.0,1
1425,-158.0,-226.0,-105.0,1
1426,-172.0,-203.0,-110.0,1
1427,-174.0,-174.0,-116.0,1
1428,-161.0,-151.0,-119.0,1
1429,-156.0,-131.0,-127.0,1
1430,-145.0,-125.0,-130.0,1
1431,-136.0,-119.0,-126.0,1
1432,-124.0,-122.0,-117.0,1
1433,-99.0,-127.0,-118.0,1
1434,-79.0,-137.0,-112.0,1
1435,-63.0,-155.0,-105.0,1
1436,-56.0,-176.0,-96.0,1
1437,-42.0,-193.0,-99.0,1
1438,-29.0,-207.0,-103.0,1
1439,-37.0,-228.0,-97.0,1
1440,-49.0,-233.0,-87.0,1
1441,-48.0,-230.0,-84.0,1
1442,-52.0,-235.0,-70.0,1
1443,-74.0,-219.0,-56.0,1
1444,-93.0,-208.0,-48.0,1
1445,-112.0,-198.0,-41.0,1
1446,-130.0,-182.0,-37.0,1
1447,-142.0,-171.0,-42.0,1
1448,-148.0,-160.0,-35.0,1
1449,-170.0,-142.0,-37.0,1
1450,-185.0,-141.0,-37.0,1
1451,-177.0,-129.0,-24.0,1
1452,-197.0,-120.0,-35.0,2
1453,-198.0,-106.0,-27.0,2
1454,-194.0,-101.0,-22.0,2
1455,-193.0,-97.0,-21.0,2
1456,-169.0,-99.0,-17.0,2
1457,-161.0,-72.0,-31.0,2
1458,-141.0,-67.0,-28.0,2
1459,-140.0,-58.0,-26.0,2
1460,-131.0,-49.0,-31.0,2
1461,-117.0,-37.0,-32.0,2
1462,-100.0,-33.0,-30.0,2
1463,-82.0,-26.0,-33.0,2
1464,-79.0,-24.0,-39.0,2
1465,-75.0,-22.0,-46.0,2
1466,-81.0,-22.0,-56.0,2
1467,-88.0,-30.0,-70.0,2
1468,-97.0,-29.0,-71.0,2
1469,-121.0,-29.0,-82.0,2
1470,-163.0,-18.0,-96.0,2
1471,-204.0,-9.0,-103.0,2
1472,-245.0,-3.0,-100.0,2
1473,-285.0,-14.0,-102.0,2
1474,-337.0,23.0,-118.0,2
1475,-335.0,21.0,-152.0,2
1476,-333.0,-5.0,-160.0,2
1477,-383.0,-11.0,-177.0,2
1478,-415.0,-10.0,-196.0,2
1479,-500.0,5.0,-249.0,2
1480,-616.0,3.0,-281.0,2
1481,-1446.0,216.0,-388.0,2
1482,-1531.0,-4.0,-270.0,2
1483,-1487.0,-65.0,-314.0,2
1484,-1357.0,-139.0,-370.0,2
1485,-1270.0,-119.0,-344.0,2
1486,-971.0,-154.0,-262.0,2
1487,-726.0,-111.0,-184.0,2
1488,-460.0,-81.0,-163.0,2
1489,-379.0,-59.0,-75.0,2
1490,-349.0,-76.0,-71.0,2
1491,-343.0,-57.0,-73.0,2
1492,-338.0,-10.0,-40.0,2
1493,-341.0,-14.0,-123.0,2
1494,-369.0,18.0,-82.0,2
1495,-398.0,50.0,-50.0,2
1496,-432.0,72.0,-51.0,2
1497,-475.0,93.0,-68.0,2
1498,-519.0,89.0,-72.0,2
1499,-544.0,82.0,-66.0,2
1500,-528.0,19.0,-66.0,2
1501,-558.0,-44.0,-41.0,2
1502,-598.0,-77.0,-18.0,2
1503,-589.0,-123.0,-23.0,2
1504,-568.0,-168.0,-24.0,2
1505,-517.0,-211.0,-22.0,2
1506,-460.0,-232.0,-5.0,2
1507,-390.0,-229.0,14.0,2
1508,-323.0,-192.0,14.0,2
1509,-273.0,-115.0,32.0,2
1510,-237.0,-58.0,9.0,2
1511,-183.0,-26.0,-23.0,2
1512,-123.0,-26.0,-48.0,2
1513,-49.0,-59.0,-59.0,2
1514,2.0,-99.0,-43.0,2
1515,47.0,-156.0,4.0,2
1516,14.0,-198.0,53.0,2
1517,-54.0,-211.0,49.0,2
1518,-95.0,-188.0,21.0,2
1519,-129.0,-133.0,-10.0,2
1520,-167.0,-74.0,-48.0,2
1521,-188.0,-28.0,-59.0,2
1522,-210.0,33.0,-59.0,2
1523,-226.0,80.0,-55.0,2
1524,-229.0,124.0,-38.0,2
1525,-243.0,160.0,-28.0,2
1526,-248.0,179.0,1.0,2
1527,-238.0,189.0,10.0,1
1528,-223.0,190.0,25.0,1
1529,-212.0,187.0,36.0,1
1530,-206.0,168.0,30.0,1
1531,-204.0,144.0,13.0,1
1532,-205.0,108.0,-10.0,1
1533,-207.0,65.0,-35.0,1
1534,-215.0,40.0,-54.0,1
1535,-219.0,24.0,-64.0,1
1536,-219.0,16.0,-67.0,1
1537,-221.0,20.0,-65.0,1
1538,-217.0,32.0,-64.0,1
1539,-212.0,43.0,-60.0,1
1540,-202.0,61.0,-56.0,1
1541,-192.0,78.0,-41.0,1
1542,-182.0,95.0,-34.0,1
1543,-163.0,112.0,-28.0,1
1544,-143.0,120.0,-20.0,1
1545,-129.0,128.0,-14.0,1
1546,-119.0,129.0,-12.0,1
1547,-111.0,126.0,-6.0,1
1548,-104.0,126.0,-10.0,1
1549,-105.0,120.0,-2.0,1
1550,-105.0,114.0,-2.0,1
1551,-103.0,105.0,0.0,1
1552,-103.0,96.0,2.0,1
1553,-108.0,87.0,6.0,1
1554,-105.0,75.0,8.0,1
1555,-109.0,65.0,10.0,1
1556,-128.0,59.0,19.0,1
1557,-159.0,54.0,43.0,1
1558,-175.0,48.0,54.0,1
1559,-191.0,43.0,64.0,1
1560,-221.0,60.0,74.0,1
1561,-260.0,80.0,83.0,1
1562,-285.0,98.0,95.0,1
1563,-310.0,116.0,103.0,1
1564,-311.0,126.0,123.0,1
1565,-290.0,130.0,141.0,1
1566,-263.0,125.0,165.0,1
1567,-234.0,128.0,183.0,1
1568,-204.0,124.0,209.0,1
1569,-175.0,115.0,236.0,1
1570,-168.0,104.0,262.0,1
1571,-168.0,81.0,274.0,1
1572,-201.0,58.0,282.0,1
1573,-244.0,37.0,274.0,1
1574,-285.0,18.0,264.0,1
1575,-322.0,-2.0,254.0,1
1576,-363.0,-17.0,238.0,1
1577,-391.0,-32.0,202.0,1
1578,-414.0,-30.0,171.0,1
1579,-381.0,-18.0,148.0,1
1580,-349.0,-3.0,125.0,1
1581,-292.0,21.0,103.0,1
1582,-266.0,50.0,106.0,1
1583,-243.0,92.0,109.0,1
1584,-237.0,135.0,113.0,1
1585,-244.0,176.0,123.0,1
1586,-270.0,208.0,140.0,1
1587,-261.0,227.0,124.0,1
1588,-220.0,227.0,124.0,1
1589,-185.0,214.0,117.0,1
1590,-165.0,196.0,109.0,1
1591,-155.0,158.0,84.0,1
1592,-156.0,117.0,67.0,1
1593,-169.0,78.0,50.0,1
1594,-177.0,42.0,11.0,1
1595,-188.0,8.0,-3.0,1
1596,-208.0,-17.0,-21.0,1
1597,-224.0,-40.0,-39.0,1
1598,-229.0,-55.0,-55.0,1
1599,-233.0,-70.0,-61.0,1
1600,-251.0,-72.0,-66.0,1
1601,-262.0,-66.0,-69.0,1
1602,-268.0,-51.0,-72.0,1
1603,-274.0,-36.0,-66.0,1
1604,-277.0,-20.0,-60.0,1
1605,-287.0,-7.0,-64.0,1
1606,-288.0,14.0,-63.0,1
1607,-291.0,23.0,-76.0,1
1608,-294.0,35.0,-92.0,1
1609,-288.0,35.0,-98.0,1
1610,-294.0,39.0,-90.0,1
1611,-301.0,42.0,-93.0,1
1612,-298.0,44.0,-92.0,1
1613,-295.0,42.0,-90.0,1
1614,-277.0,33.0,-89.0,1
1615,-262.0,25.0,-112.0,1
1616,-263.0,22.0,-115.0,1
1617,-262.0,10.0,-117.0,1
1618,-261.0,4.0,-109.0,1
1619,-250.0,-8.0,-117.0,1
1620,-245.0,-33.0,-120.0,1
1621,-249.0,-32.0,-121.0,1
1622,-246.0,-35.0,-118.0,1
1623,-251.0,-38.0,-113.0,1
1624,-256.0,-43.0,-119.0,1
1625,-263.0,-35.0,-115.0,1
1626,-255.0,-37.0,-121.0,1
1627,-254.0,-37.0,-118.0,1
1628,-260.0,-29.0,-124.0,1
1629,-263.0,-20.0,-136.0,1
1630,-270.0,-10.0,-126.0,1
1631,-275.0,-1.0,-128.0,1
1632,-276.0,8.0,-126.0,1
1633,-272.0,12.0,-131.0,1
1634,-256.0,0.0,-134.0,1
1635,-263.0,1.0,-144.0,1
1636,-268.0,-1.0,-144.0,1
1637,-273.0,-4.0,-142.0,1
1638,-269.0,-14.0,-131.0,1
1639,-272.0,-22.0,-124.0,1
1640,-280.0,-24.0,-133.0,1
1641,-278.0,-24.0,-136.0,1
1642,-269.0,-24.0,-123.0,1
1643,-265.0,-31.0,-125.0,1
1644,-267.0,-30.0,-121.0,1
1645,-268.0,-27.0,-123.0,1
1646,-265.0,-18.0,-123.0,1
1647,-257.0,-13.0,-123.0,1
1648,-257.0,-4.0,-121.0,1
1649,-255.0,-3.0,-125.0,1
1650,-263.0,5.0,-125.0,1
1651,-257.0,4.0,-125.0,1
1652,-252.0,-2.0,-123.0,1
1653,-257.0,4.0,-121.0,1
1654,-258.0,11.0,-122.0,1
1655,-267.0,23.0,-122.0,1
1656,-256.0,13.0,-122.0,1
1657,-250.0,4.0,-121.0,1
1658,-252.0,4.0,-125.0,1
1659,-253.0,10.0,-121.0,1
1660,-257.0,12.0,-120.0,1
1661,-256.0,13.0,-120.0,1
1662,-259.0,25.0,-123.0,1
1663,-252.0,12.0,-119.0,1
1664,-247.0,8.0,-117.0,1
1665,-251.0,13.0,-115.0,1
1666,-250.0,12.0,-119.0,1
1667,-252.0,15.0,-115.0,1
1668,-252.0,16.0,-113.0,1
1669,-252.0,16.0,-113.0,1
1670,-251.0,17.0,-114.0,1
1671,-248.0,18.0,-109.0,1
1672,-245.0,12.0,-108.0,1
1673,-250.0,19.0,-111.0,1
1674,-251.0,16.0,-108.0,1
1675,-251.0,14.0,-108.0,1
1676,-248.0,16.0,-104.0,1
1677,-251.0,20.0,-105.0,1
1678,-247.0,26.0,-101.0,1
1679,-244.0,19.0,-109.0,1
1680,-246.0,19.0,-105.0,1
1681,-249.0,23.0,-102.0,1
1682,-247.0,25.0,-103.0,1
1683,-250.0,24.0,-100.0,1
1684,-252.0,27.0,-96.0,1
1685,-251.0,31.0,-99.0,1
1686,-247.0,26.0,-97.0,1
1687,-247.0,25.0,-95.0,1
1688,-248.0,28.0,-95.0,1
1689,-249.0,29.0,-95.0,1
1690,-249.0,30.0,-95.0,1
1691,-253.0,32.0,-97.0,1
1692,-251.0,32.0,-94.0,1
1693,-245.0,28.0,-93.0,1
1694,-245.0,26.0,-88.0,1
1695,-246.0,29.0,-88.0,1
1696,-249.0,28.0,-89.0,1
1697,-248.0,30.0,-85.0,1
1698,-250.0,30.0,-85.0,1
1699,-248.0,27.0,-81.0,1
1700,-247.0,23.0,-85.0,1
1701,-266.0,24.0,-87.0,0
1702,-246.0,29.0,-80.0,0
1703,-239.0,16.0,-75.0,0
1704,-242.0,17.0,-78.0,0
1705,-241.0,21.0,-91.0,0
1706,-234.0,34.0,-87.0,0
1707,-249.0,22.0,-75.0,0
1708,-245.0,25.0,-73.0,0
1709,-244.0,20.0,-77.0,0
1710,-244.0,22.0,-75.0,0
1711,-246.0,20.0,-67.0,0
1712,-247.0,21.0,-73.0,0
1713,-247.0,19.0,-75.0,0
1714,-246.0,20.0,-74.0,0
1715,-246.0,18.0,-73.0,0
1716,-248.0,19.0,-71.0,0
1717,-248.0,18.0,-70.0,0
1718,-244.0,18.0,-71.0,0
1719,-248.0,17.0,-73.0,0
1720,-249.0,19.0,-74.0,0
1721,-247.0,15.0,-72.0,0
1722,-249.0,14.0,-72.0,0
1723,-248.0,15.0,-73.0,0
1724,-249.0,14.0,-68.0,0
1725,-246.0,15.0,-69.0,0
1726,-251.0,14.0,-74.0,0
1727,-248.0,14.0,-71.0,0
1728,-245.0,11.0,-73.0,0
1729,-244.0,13.0,-65.0,0
1730,-246.0,15.0,-66.0,0
1731,-248.0,17.0,-68.0,0
1732,-248.0,12.0,-63.0,0
1733,-243.0,11.0,-67.0,0
1734,-244.0,10.0,-67.0,0
1735,-246.0,13.0,-69.0,0
1736,-251.0,12.0,-69.0,0
1737,-248.0,13.0,-70.0,0
1738,-247.0,10.0,-72.0,0
1739,-247.0,13.0,-71.0,0
1740,-246.0,9.0,-66.0,0
1741,-246.0,11.0,-66.0,0
1742,-245.0,10.0,-70.0,0
1743,-245.0,13.0,-69.0,0
1744,-246.0,10.0,-69.0,0
1745,-246.0,15.0,-69.0,0
1746,-246.0,15.0,-74.0,0
1747,-245.0,14.0,-71.0,0
1748,-245.0,15.0,-73.0,0
1749,-248.0,14.0,-74.0,0
1750,-250.0,17.0,-73.0,0
1751,-246.0,13.0,-75.0,0
1752,-247.0,14.0,-77.0,0
1753,-250.0,15.0,-78.0,0
1754,-250.0,14.0,-77.0,0
1755,-249.0,15.0,-78.0,0
1756,-250.0,15.0,-80.0,0
1757,-251.0,16.0,-82.0,0
1758,-251.0,16.0,-79.0,0
1759,-249.0,18.0,-81.0,0
1760,-251.0,19.0,-83.0,0
1761,-251.0,18.0,-84.0,0
1762,-250.0,18.0,-86.0,0
1763,-252.0,18.0,-87.0,0
1764,-251.0,21.0,-89.0,0
1765,-253.0,21.0,-89.0,0
1766,-253.0,18.0,-85.0,0
1767,-251.0,20.0,-89.0,0
1768,-252.0,19.0,-91.0,0
1769,-252.0,22.0,-89.0,0
1770,-254.0,21.0,-90.0,0
1771,-256.0,20.0,-91.0,0
1772,-251.0,19.0,-90.0,0
1773,-252.0,17.0,-90.0,0
1774,-249.0,17.0,-91.0,0
1775,-255.0,17.0,-89.0,0
1776,-254.0,20.0,-92.0,0
1777,-253.0,19.0,-95.0,0
1778,-265.0,21.0,-91.0,0
1779,-254.0,20.0,-98.0,0
1780,-254.0,20.0,-100.0,0
1781,-252.0,21.0,-97.0,0
1782,-250.0,23.0,-96.0,0
1783,-250.0,23.0,-93.0,0
1784,-254.0,22.0,-94.0,0
1785,-252.0,23.0,-97.0,0
1786,-251.0,23.0,-95.0,0
1787,-252.0,24.0,-90.0,0
1788,-250.0,23.0,-93.0,0
1789,-251.0,26.0,-94.0,0
1790,-250.0,21.0,-92.0,0
1791,-250.0,23.0,-92.0,0
1792,-250.0,22.0,-92.0,0
1793,-254.0,20.0,-92.0,0
1794,-251.0,23.0,-98.0,0
1795,-251.0,23.0,-97.0,0
1796,-250.0,22.0,-93.0,0
1797,-252.0,20.0,-99.0,0
1798,-254.0,21.0,-97.0,0
1799,-254.0,20.0,-93.0,0
1800,-251.0,20.0,-90.0,0
1801,-255.0,29.0,-96.0,0
1802,-253.0,18.0,-90.0,0
1803,-248.0,13.0,-91.0,0
1804,-250.0,16.0,-90.0,0
1805,-251.0,20.0,-89.0,0
1806,-251.0,22.0,-87.0,0
1807,-250.0,20.0,-89.0,0
1808,-251.0,18.0,-90.0,0
1809,-250.0,20.0,-87.0,0
1810,-250.0,20.0,-88.0,0
1811,-252.0,21.0,-86.0,0
1812,-249.0,19.0,-87.0,0
1813,-251.0,19.0,-90.0,0
1814,-250.0,20.0,-89.0,0
1815,-247.0,20.0,-85.0,0
1816,-250.0,19.0,-85.0,0
1817,-247.0,18.0,-83.0,0
1818,-250.0,21.0,-87.0,0
1819,-250.0,16.0,-86.0,0
1820,-246.0,19.0,-85.0,0
1821,-247.0,20.0,-84.0,0
1822,-251.0,30.0,-88.0,0
1823,-247.0,13.0,-81.0,0
1824,-249.0,17.0,-83.0,0
1825,-250.0,17.0,-81.0,0
1826,-248.0,18.0,-85.0,0
1827,-248.0,18.0,-87.0,0
1828,-250.0,15.0,-85.0,0
1829,-251.0,19.0,-84.0,0
1830,-248.0,18.0,-85.0,0
1831,-248.0,21.0,-82.0,0
1832,-249.0,20.0,-84.0,0
1833,-247.0,18.0,-81.0,0
1834,-245.0,18.0,-84.0,0
1835,-245.0,17.0,-80.0,0
1836,-247.0,18.0,-83.0,0
1837,-248.0,20.0,-79.0,0
1838,-249.0,20.0,-81.0,0
1839,-246.0,19.0,-81.0,0
1840,-251.0,21.0,-87.0,0
1841,-249.0,17.0,-82.0,0
1842,-247.0,17.0,-82.0,0
1843,-250.0,20.0,-79.0,0
1844,-251.0,20.0,-84.0,0
1845,-250.0,21.0,-82.0,0
1846,-249.0,19.0,-82.0,0
1847,-250.0,19.0,-87.0,0
1848,-250.0,20.0,-86.0,0
1849,-249.0,16.0,-81.0,0
1850,-252.0,18.0,-84.0,0
1851,-249.0,20.0,-82.0,0
1852,-250.0,18.0,-83.0,0
1853,-250.0,21.0,-82.0,0
1854,-248.0,20.0,-85.0,0
1855,-249.0,21.0,-86.0,0
1856,-250.0,21.0,-83.0,0
1857,-251.0,19.0,-83.0,0
1858,-250.0,20.0,-87.0,0
1859,-247.0,19.0,-87.0,0
1860,-247.0,19.0,-88.0,0
1861,-247.0,20.0,-89.0,0
1862,-250.0,21.0,-87.0,0
1863,-250.0,21.0,-83.0,0
1864,-249.0,21.0,-85.0,0
1865,-246.0,23.0,-85.0,0
1866,-249.0,22.0,-84.0,0
1867,-251.0,19.0,-84.0,0
1868,-249.0,19.0,-85.0,0
1869,-250.0,20.0,-86.0,0
1870,-251.0,22.0,-92.0,0
1871,-250.0,21.0,-87.0,0
1872,-251.0,20.0,-86.0,0
1873,-250.0,20.0,-87.0,0
1874,-251.0,21.0,-91.0,0
1875,-251.0,21.0,-86.0,0
1876,-249.0,21.0,-84.0,0
1877,-249.0,17.0,-88.0,0
1878,-248.0,22.0,-86.0,0
1879,-249.0,18.0,-83.0,0
1880,-248.0,21.0,-83.0,0
1881,-249.0,22.0,-87.0,0
1882,-250.0,19.0,-89.0,0
1883,-263.0,47.0,-94.0,0
1884,-245.0,14.0,-84.0,0
1885,-252.0,15.0,-87.0,0
1886,-249.0,15.0,-91.0,0
1887,-249.0,20.0,-88.0,0
1888,-250.0,23.0,-87.0,0
1889,-251.0,20.0,-91.0,0
1890,-249.0,18.0,-88.0,0
1891,-252.0,21.0,-87.0,0
1892,-249.0,20.0,-88.0,0
1893,-248.0,25.0,-93.0,0
1894,-250.0,20.0,-89.0,0
1895,-249.0,20.0,-92.0,0
1896,-250.0,22.0,-94.0,0
1897,-252.0,22.0,-91.0,0
1898,-251.0,20.0,-90.0,0
1899,-248.0,20.0,-88.0,0
1900,-248.0,20.0,-91.0,0
1901,-250.0,21.0,-93.0,0
1902,-248.0,19.0,-90.0,0
1903,-251.0,18.0,-86.0,0
1904,-249.0,17.0,-88.0,0
1905,-251.0,18.0,-87.0,0
1906,-247.0,18.0,-87.0,0
1907,-248.0,19.0,-89.0,0
1908,-247.0,18.0,-86.0,0
1909,-248.0,18.0,-89.0,0
1910,-250.0,18.0,-87.0,0
1911,-252.0,20.0,-85.0,0
1912,-249.0,20.0,-88.0,0
1913,-251.0,19.0,-91.0,0
1914,-248.0,22.0,-90.0,0
1915,-249.0,18.0,-86.0,0
1916,-247.0,19.0,-87.0,0
1917,-246.0,20.0,-87.0,0
1918,-245.0,20.0,-83.0,0
1919,-246.0,17.0,-87.0,0
1920,-245.0,18.0,-82.0,0
1921,-247.0,18.0,-85.0,0
1922,-247.0,20.0,-87.0,0
1923,-250.0,21.0,-89.0,0
1924,-247.0,19.0,-83.0,0
1925,-248.0,19.0,-87.0,0
1926,-251.0,19.0,-90.0,0
1927,-249.0,21.0,-87.0,0
1928,-250.0,21.0,-87.0,0
1929,-250.0,22.0,-91.0,0
1930,-253.0,24.0,-88.0,0
1931,-249.0,22.0,-89.0,0
1932,-247.0,21.0,-84.0,0
1933,-249.0,21.0,-86.0,0
1934,-249.0,21.0,-87.0,0
1935,-249.0,23.0,-87.0,0
1936,-251.0,20.0,-82.0,0
1937,-251.0,22.0,-86.0,0
1938,-249.0,20.0,-86.0,0
1939,-247.0,19.0,-86.0,0
1940,-249.0,19.0,-81.0,0
1941,-250.0,20.0,-83.0,0
1942,-250.0,21.0,-83.0,0
1943,-251.0,21.0,-86.0,0
1944,-248.0,19.0,-83.0,0
1945,-247.0,18.0,-83.0,0
1946,-248.0,19.0,-86.0,0
1947,-250.0,21.0,-86.0,0
1948,-251.0,20.0,-82.0,0
1949,-249.0,20.0,-87.0,0
1950,-250.0,23.0,-83.0,0
1951,-250.0,20.0,-86.0,0
1952,-246.0,20.0,-86.0,0
1953,-247.0,19.0,-86.0,0
1954,-250.0,20.0,-86.0,0
1955,-251.0,19.0,-82.0,0
1956,-249.0,22.0,-88.0,0
1957,-250.0,19.0,-82.0,0
1958,-253.0,23.0,-88.0,0
1959,-247.0,19.0,-89.0,0
1960,-248.0,19.0,-90.0,0
1961,-252.0,22.0,-88.0,0
1962,-251.0,20.0,-91.0,0
1963,-248.0,19.0,-90.0,0
1964,-251.0,23.0,-86.0,0
1965,-251.0,21.0,-87.0,0
1966,-249.0,20.0,-90.0,0
1967,-251.0,18.0,-87.0,0
1968,-248.0,19.0,-88.0,0
1969,-247.0,20.0,-85.0,0
1970,-249.0,19.0,-89.0,0
1971,-250.0,22.0,-89.0,0
1972,-250.0,22.0,-90.0,0
1973,-250.0,21.0,-88.0,0
1974,-252.0,23.0,-86.0,0
1975,-250.0,20.0,-87.0,0
1976,-249.0,20.0,-85.0,0
1977,-251.0,21.0,-85.0,0
1978,-248.0,18.0,-85.0,0
1979,-251.0,21.0,-87.0,0
1980,-249.0,25.0,-88.0,0
1981,-249.0,19.0,-87.0,0
1982,-250.0,23.0,-88.0,0
1983,-249.0,20.0,-88.0,0
1984,-250.0,21.0,-87.0,0
1985,-249.0,21.0,-86.0,0
1986,-249.0,20.0,-88.0,0
1987,-249.0,21.0,-88.0,0
1988,-249.0,21.0,-84.0,0
1989,-251.0,21.0,-88.0,0
1990,-248.0,21.0,-85.0,0
1991,-250.0,20.0,-86.0,0
1992,-248.0,19.0,-87.0,0
1993,-250.0,20.0,-86.0,0
1994,-248.0,18.0,-86.0,0
1995,-253.0,25.0,-89.0,0
1996,-251.0,23.0,-85.0,0
1997,-252.0,18.0,-86.0,0
1998,-247.0,22.0,-86.0,0
1999,-247.0,20.0,-84.0,0
2000,-250.0,21.0,-85.0,0
2001,-250.0,22.0,-84.0,0
2002,-250.0,22.0,-84.0,0
2003,-251.0,19.0,-82.0,0
2004,-248.0,20.0,-83.0,0
2005,-250.0,22.0,-87.0,0
2006,-253.0,21.0,-87.0,0
2007,-249.0,20.0,-85.0,0
2008,-248.0,21.0,-85.0,0
2009,-250.0,17.0,-87.0,0
2010,-248.0,18.0,-86.0,0
2011,-251.0,23.0,-87.0,0
2012,-247.0,19.0,-84.0,0
2013,-250.0,22.0,-82.0,0
2014,-246.0,19.0,-88.0,0
2015,-248.0,18.0,-86.0,0
2016,-249.0,18.0,-82.0,0
2017,-252.0,21.0,-85.0,0
2018,-251.0,21.0,-85.0,0
2019,-250.0,22.0,-84.0,0
2020,-246.0,21.0,-84.0,0
2021,-248.0,17.0,-86.0,0
2022,-251.0,21.0,-87.0,0
2023,-250.0,23.0,-85.0,0
2024,-252.0,22.0,-87.0,0
2025,-248.0,19.0,-84.0,0
2026,-249.0,22.0,-85.0,0
2027,-249.0,23.0,-83.0,0
2028,-251.0,19.0,-87.0,0
2029,-251.0,21.0,-86.0,0
2030,-251.0,21.0,-85.0,0
2031,-248.0,20.0,-86.0,0
2032,-253.0,24.0,-87.0,0
2033,-250.0,20.0,-85.0,0
2034,-251.0,20.0,-82.0,0
2035,-251.0,20.0,-86.0,0
2036,-248.0,19.0,-83.0,0
2037,-248.0,21.0,-83.0,0
2038,-251.0,18.0,-81.0,0
2039,-248.0,21.0,-88.0,0
2040,-249.0,23.0,-80.0,0
2041,-247.0,18.0,-82.0,0
2042,-249.0,22.0,-88.0,0
2043,-249.0,19.0,-88.0,0
2044,-255.0,21.0,-91.0,0
2045,-249.0,19.0,-87.0,0
2046,-250.0,19.0,-88.0,0
2047,-250.0,19.0,-89.0,0
2048,-247.0,19.0,-84.0,0
2049,-247.0,22.0,-87.0,0
2050,-248.0,19.0,-84.0,0
2051,-249.0,20.0,-87.0,0
2052,-248.0,20.0,-82.0,0
2053,-250.0,20.0,-83.0,0
2054,-249.0,22.0,-81.0,0
2055,-250.0,19.0,-85.0,0
2056,-250.0,21.0,-84.0,0
2057,-253.0,23.0,-82.0,0
2058,-250.0,22.0,-87.0,0
2059,-251.0,21.0,-87.0,0
2060,-250.0,23.0,-88.0,0
2061,-247.0,20.0,-86.0,0
2062,-250.0,22.0,-81.0,0
2063,-250.0,19.0,-84.0,0
2064,-252.0,21.0,-85.0,0
2065,-250.0,18.0,-86.0,0
2066,-254.0,21.0,-86.0,0
2067,-253.0,21.0,-87.0,0
2068,-253.0,21.0,-84.0,0
2069,-250.0,18.0,-84.0,0
2070,-250.0,23.0,-80.0,0
2071,-250.0,21.0,-82.0,0
2072,-249.0,21.0,-85.0,0
2073,-251.0,24.0,-86.0,0
2074,-252.0,24.0,-89.0,0
2075,-245.0,21.0,-84.0,0
2076,-249.0,21.0,-83.0,0
2077,-249.0,20.0,-86.0,0
2078,-247.0,24.0,-83.0,0
2079,-248.0,22.0,-88.0,0
2080,-250.0,21.0,-85.0,0
2081,-247.0,22.0,-86.0,0
2082,-251.0,21.0,-84.0,0
2083,-252.0,22.0,-87.0,0
2084,-249.0,19.0,-84.0,0
2085,-251.0,19.0,-87.0,0
2086,-253.0,22.0,-88.0,0
2087,-251.0,19.0,-83.0,0
2088,-250.0,19.0,-87.0,0
2089,-248.0,17.0,-82.0,0
2090,-250.0,23.0,-83.0,0
2091,-250.0,19.0,-85.0,0
2092,-250.0,22.0,-81.0,0
2093,-250.0,19.0,-82.0,0
2094,-252.0,20.0,-88.0,0
2095,-249.0,19.0,-85.0,0
2096,-249.0,20.0,-86.0,0
2097,-250.0,19.0,-85.0,0
2098,-248.0,17.0,-84.0,0
2099,-250.0,20.0,-86.0,0
2100,-249.0,20.0,-87.0,0
2101,-250.0,19.0,-85.0,0
2102,-251.0,21.0,-83.0,0
2103,-247.0,20.0,-85.0,0
2104,-249.0,20.0,-86.0,0
2105,-249.0,21.0,-86.0,0
2106,-250.0,18.0,-84.0,0
2107,-251.0,20.0,-83.0,0
2108,-248.0,18.0,-85.0,0
2109,-250.0,22.0,-84.0,0
2110,-248.0,21.0,-83.0,0
2111,-249.0,20.0,-83.0,0
2112,-249.0,21.0,-84.0,0
2113,-249.0,20.0,-86.0,0
2114,-250.0,17.0,-83.0,0
2115,-249.0,18.0,-85.0,0
2116,-249.0,20.0,-87.0,0
2117,-250.0,21.0,-83.0,0
2118,-249.0,19.0,-85.0,0
2119,-249.0,18.0,-88.0,0
2120,-251.0,23.0,-83.0,0
2121,-248.0,21.0,-84.0,0
2122,-250.0,21.0,-80.0,0
2123,-248.0,19.0,-84.0,0
2124,-248.0,18.0,-81.0,0
2125,-250.0,20.0,-84.0,0
2126,-252.0,21.0,-86.0,0
2127,-249.0,19.0,-87.0,0
2128,-252.0,20.0,-81.0,0
2129,-249.0,21.0,-85.0,0
2130,-248.0,22.0,-85.0,0
2131,-250.0,23.0,-82.0,0
2132,-249.0,18.0,-81.0,0
2133,-249.0,20.0,-87.0,0
2134,-250.0,20.0,-83.0,0
2135,-250.0,21.0,-87.0,0
2136,-251.0,22.0,-84.0,0
2137,-248.0,20.0,-84.0,0
2138,-247.0,23.0,-87.0,0
2139,-253.0,24.0,-89.0,0
2140,-250.0,20.0,-82.0,0
2141,-250.0,20.0,-85.0,0
2142,-253.0,21.0,-86.0,0
2143,-251.0,20.0,-85.0,0
2144,-249.0,20.0,-84.0,0
2145,-248.0,19.0,-89.0,0
2146,-248.0,19.0,-85.0,0
2147,-249.0,19.0,-86.0,0
2148,-253.0,23.0,-85.0,0
2149,-252.0,17.0,-82.0,0
2150,-251.0,22.0,-87.0,0
2151,-248.0,18.0,-83.0,0
2152,-250.0,21.0,-87.0,0
2153,-250.0,22.0,-83.0,0
2154,-251.0,21.0,-82.0,0
2155,-253.0,20.0,-82.0,0
2156,-252.0,20.0,-86.0,0
2157,-249.0,21.0,-87.0,0
2158,-250.0,19.0,-83.0,0
2159,-248.0,19.0,-87.0,0
2160,-249.0,21.0,-91.0,0
2161,-250.0,19.0,-83.0,0
2162,-250.0,21.0,-84.0,0
2163,-253.0,20.0,-85.0,0
2164,-253.0,20.0,-87.0,0
2165,-250.0,22.0,-85.0,0
2166,-250.0,20.0,-85.0,0
2167,-248.0,20.0,-86.0,0
2168,-251.0,21.0,-85.0,0
2169,-249.0,19.0,-82.0,0
2170,-247.0,18.0,-83.0,0
2171,-249.0,22.0,-83.0,0
2172,-248.0,18.0,-85.0,0
2173,-249.0,19.0,-83.0,0
2174,-250.0,18.0,-80.0,0
2175,-248.0,17.0,-88.0,0
2176,-248.0,19.0,-84.0,0
2177,-249.0,19.0,-87.0,0
2178,-249.0,20.0,-87.0,0
2179,-254.0,22.0,-87.0,0
2180,-251.0,22.0,-90.0,0
2181,-250.0,20.0,-87.0,0
2182,-251.0,21.0,-87.0,0
2183,-246.0,20.0,-80.0,0
2184,-248.0,18.0,-85.0,0
2185,-249.0,18.0,-83.0,0
2186,-251.0,21.0,-83.0,0
2187,-249.0,21.0,-82.0,0
2188,-250.0,25.0,-80.0,0
2189,-245.0,20.0,-81.0,0
2190,-247.0,24.0,-83.0,0
2191,-250.0,20.0,-84.0,0
2192,-250.0,21.0,-83.0,0
2193,-251.0,20.0,-87.0,0
2194,-248.0,21.0,-82.0,0
2195,-253.0,21.0,-84.0,0
2196,-248.0,21.0,-85.0,0
2197,-252.0,23.0,-89.0,0
2198,-251.0,20.0,-83.0,0
2199,-251.0,21.0,-88.0,0
2200,-251.0,23.0,-85.0,0
2201,-252.0,21.0,-84.0,0
2202,-250.0,20.0,-84.0,0
2203,-253.0,20.0,-85.0,0
2204,-250.0,22.0,-82.0,0
2205,-249.0,20.0,-85.0,0
2206,-248.0,22.0,-86.0,0
2207,-251.0,22.0,-84.0,0
2208,-250.0,19.0,-85.0,0
2209,-248.0,19.0,-84.0,0
2210,-252.0,21.0,-88.0,0
2211,-249.0,22.0,-84.0,0
2212,-248.0,22.0,-80.0,0
2213,-250.0,21.0,-85.0,0
2214,-250.0,22.0,-80.0,0
2215,-252.0,22.0,-83.0,0
2216,-252.0,22.0,-86.0,0
2217,-249.0,20.0,-86.0,0
2218,-250.0,24.0,-82.0,0
2219,-249.0,21.0,-88.0,0
2220,-249.0,19.0,-87.0,0
2221,-252.0,19.0,-82.0,0
2222,-247.0,21.0,-85.0,0
2223,-251.0,19.0,-87.0,0
2224,-250.0,22.0,-81.0,0
2225,-248.0,20.0,-81.0,0
2226,-250.0,19.0,-86.0,0
2227,-252.0,20.0,-81.0,0
2228,-249.0,20.0,-80.0,0
2229,-250.0,20.0,-87.0,0
2230,-252.0,20.0,-84.0,0
2231,-251.0,20.0,-83.0,0
2232,-251.0,20.0,-85.0,0
2233,-254.0,21.0,-89.0,0
2234,-250.0,19.0,-85.0,0
2235,-253.0,22.0,-83.0,0
2236,-249.0,21.0,-87.0,0
2237,-250.0,23.0,-85.0,0
2238,-251.0,20.0,-85.0,0
2239,-251.0,20.0,-79.0,0
2240,-248.0,20.0,-84.0,0
2241,-251.0,21.0,-86.0,0
2242,-248.0,22.0,-85.0,0
2243,-247.0,18.0,-85.0,0
2244,-254.0,24.0,-85.0,0
2245,-250.0,20.0,-85.0,0
2246,-252.0,21.0,-84.0,0
2247,-249.0,21.0,-84.0,0
2248,-252.0,22.0,-87.0,0
2249,-248.0,18.0,-84.0,0
2250,-251.0,19.0,-84.0,0
2251,-247.0,22.0,-83.0,0
2252,-249.0,20.0,-85.0,0
2253,-249.0,19.0,-85.0,0
2254,-250.0,19.0,-83.0,0
2255,-251.0,20.0,-83.0,0
2256,-251.0,22.0,-84.0,0
2257,-250.0,20.0,-84.0,0
2258,-248.0,19.0,-85.0,0
2259,-250.0,19.0,-82.0,0
2260,-248.0,22.0,-85.0,0
2261,-250.0,20.0,-84.0,0
2262,-250.0,20.0,-85.0,0
2263,-251.0,18.0,-84.0,0
2264,-251.0,19.0,-88.0,0
2265,-249.0,20.0,-85.0,0
2266,-251.0,25.0,-88.0,0
2267,-250.0,20.0,-81.0,0
2268,-249.0,21.0,-84.0,0
2269,-252.0,23.0,-83.0,0
2270,-249.0,21.0,-84.0,0
2271,-251.0,21.0,-86.0,0
2272,-250.0,21.0,-83.0,0
2273,-251.0,21.0,-86.0,0
2274,-251.0,21.0,-85.0,0
2275,-251.0,21.0,-84.0,0
2276,-253.0,19.0,-83.0,0
2277,-249.0,21.0,-83.0,0
2278,-251.0,22.0,-86.0,0
2279,-251.0,19.0,-83.0,0
2280,-253.0,21.0,-85.0,0
2281,-249.0,20.0,-83.0,0
2282,-253.0,21.0,-83.0,0
2283,-251.0,21.0,-85.0,0
2284,-249.0,19.0,-87.0,0
2285,-249.0,21.0,-82.0,0
2286,-250.0,19.0,-81.0,0
2287,-252.0,21.0,-83.0,0
2288,-250.0,20.0,-82.0,0
2289,-249.0,21.0,-85.0,0
2290,-249.0,22.0,-82.0,0
2291,-250.0,19.0,-84.0,0
2292,-249.0,20.0,-83.0,0
2293,-253.0,20.0,-83.0,0
2294,-250.0,21.0,-84.0,0
2295,-251.0,20.0,-85.0,0
2296,-252.0,22.0,-84.0,0
2297,-250.0,23.0,-86.0,0
2298,-251.0,19.0,-86.0,0
2299,-249.0,21.0,-82.0,0
2300,-251.0,19.0,-83.0,0
2301,-252.0,19.0,-83.0,0
2302,-249.0,21.0,-87.0,0
2303,-254.0,20.0,-87.0,0
2304,-251.0,22.0,-84.0,0
2305,-253.0,23.0,-83.0,0
2306,-248.0,22.0,-81.0,0
2307,-250.0,19.0,-80.0,0
2308,-249.0,19.0,-82.0,0
2309,-246.0,17.0,-81.0,0
2310,-248.0,20.0,-81.0,0
2311,-250.0,21.0,-84.0,0
2312,-250.0,21.0,-83.0,0
2313,-249.0,18.0,-85.0,0
2314,-250.0,19.0,-85.0,0
2315,-252.0,23.0,-86.0,0
2316,-250.0,22.0,-90.0,0
2317,-253.0,23.0,-90.0,0
2318,-252.0,21.0,-84.0,0
2319,-249.0,21.0,-84.0,0
2320,-252.0,24.0,-86.0,0
2321,-248.0,23.0,-82.0,0
2322,-246.0,20.0,-85.0,0
2323,-247.0,22.0,-84.0,0
2324,-248.0,21.0,-81.0,0
2325,-248.0,22.0,-83.0,0
2326,-248.0,20.0,-82.0,0
2327,-250.0,20.0,-82.0,0
2328,-250.0,23.0,-86.0,0
2329,-250.0,23.0,-82.0,0
2330,-251.0,22.0,-83.0,0
2331,-250.0,21.0,-85.0,0
2332,-251.0,24.0,-83.0,0
2333,-253.0,22.0,-84.0,0
2334,-254.0,22.0,-83.0,0
2335,-254.0,21.0,-88.0,0
2336,-253.0,19.0,-86.0,0
2337,-253.0,22.0,-84.0,0
2338,-251.0,20.0,-83.0,0
2339,-253.0,21.0,-84.0,0
2340,-249.0,19.0,-80.0,0
2341,-254.0,23.0,-88.0,0
2342,-250.0,20.0,-83.0,0
2343,-252.0,22.0,-86.0,0
2344,-249.0,23.0,-86.0,0
2345,-250.0,22.0,-83.0,0
2346,-249.0,21.0,-83.0,0
2347,-250.0,18.0,-81.0,0
2348,-249.0,18.0,-85.0,0
2349,-251.0,21.0,-86.0,0
2350,-249.0,21.0,-83.0,0
2351,-250.0,21.0,-84.0,0
2352,-251.0,19.0,-84.0,0
2353,-249.0,20.0,-84.0,0
2354,-248.0,19.0,-82.0,0
2355,-251.0,21.0,-85.0,0
2356,-248.0,19.0,-84.0,0
2357,-250.0,22.0,-85.0,0
2358,-250.0,22.0,-84.0,0
2359,-251.0,19.0,-84.0,0
2360,-249.0,19.0,-84.0,0
2361,-250.0,20.0,-88.0,0
2362,-248.0,20.0,-82.0,0
2363,-249.0,20.0,-84.0,0
2364,-247.0,19.0,-85.0,0
2365,-269.0,20.0,-97.0,0
2366,-253.0,17.0,-73.0,0
2367,-250.0,18.0,-94.0,0
2368,-257.0,25.0,-93.0,0
2369,-247.0,29.0,-102.0,0
2370,-245.0,19.0,-81.0,0
2371,-248.0,23.0,-86.0,0
2372,-250.0,19.0,-87.0,0
2373,-252.0,20.0,-83.0,0
2374,-251.0,22.0,-84.0,0
2375,-251.0,24.0,-81.0,0
2376,-249.0,21.0,-85.0,0
2377,-248.0,16.0,-85.0,0
2378,-250.0,20.0,-81.0,0
2379,-248.0,20.0,-87.0,0
2380,-248.0,20.0,-83.0,0
2381,-249.0,23.0,-82.0,0
2382,-249.0,18.0,-87.0,0
2383,-250.0,20.0,-84.0,0
2384,-248.0,20.0,-87.0,0
2385,-249.0,22.0,-83.0,0
2386,-252.0,20.0,-87.0,0
2387,-250.0,19.0,-80.0,0
2388,-252.0,22.0,-85.0,0
2389,-248.0,21.0,-82.0,0
2390,-251.0,18.0,-85.0,0
2391,-251.0,21.0,-82.0,0
2392,-249.0,22.0,-84.0,0
2393,-251.0,21.0,-88.0,0
2394,-253.0,23.0,-84.0,0
2395,-246.0,18.0,-81.0,0
2396,-252.0,20.0,-85.0,0
2397,-250.0,20.0,-87.0,0
2398,-249.0,23.0,-86.0,0
2399,-249.0,21.0,-83.0,0
2400,-250.0,19.0,-81.0,0
2401,-250.0,21.0,-84.0,0
2402,-249.0,19.0,-88.0,0
2403,-252.0,20.0,-87.0,0
2404,-251.0,24.0,-84.0,0
2405,-251.0,26.0,-85.0,0
2406,-252.0,20.0,-84.0,0
2407,-249.0,22.0,-87.0,0
2408,-250.0,19.0,-82.0,0
2409,-252.0,19.0,-86.0,0
2410,-248.0,21.0,-85.0,0
2411,-249.0,21.0,-84.0,0
2412,-252.0,21.0,-84.0,0
2413,-249.0,19.0,-84.0,0
2414,-249.0,22.0,-84.0,0
2415,-251.0,19.0,-85.0,0
2416,-250.0,19.0,-87.0,0
2417,-250.0,21.0,-83.0,0
2418,-250.0,18.0,-87.0,0
2419,-251.0,20.0,-83.0,0
2420,-250.0,20.0,-84.0,0
2421,-250.0,22.0,-85.0,0
2422,-249.0,23.0,-83.0,0
2423,-252.0,22.0,-85.0,0
2424,-248.0,19.0,-86.0,0
2425,-251.0,23.0,-86.0,0
2426,-249.0,19.0,-85.0,0
2427,-249.0,21.0,-85.0,0
2428,-252.0,21.0,-82.0,0
2429,-249.0,20.0,-86.0,0
2430,-251.0,17.0,-86.0,0
2431,-250.0,20.0,-86.0,0
2432,-251.0,22.0,-86.0,0
2433,-252.0,19.0,-86.0,0
2434,-250.0,19.0,-83.0,0
2435,-247.0,19.0,-83.0,0
2436,-247.0,16.0,-87.0,0
2437,-248.0,20.0,-86.0,0
2438,-247.0,19.0,-83.0,0
2439,-250.0,23.0,-84.0,0
2440,-246.0,23.0,-87.0,0
2441,-251.0,20.0,-88.0,0
2442,-251.0,22.0,-84.0,0
2443,-251.0,23.0,-85.0,0
2444,-250.0,20.0,-83.0,0
2445,-249.0,19.0,-86.0,0
2446,-251.0,21.0,-84.0,0
2447,-249.0,21.0,-83.0,0
2448,-249.0,22.0,-84.0,0
2449,-249.0,20.0,-83.0,0
2450,-252.0,18.0,-84.0,0
2451,-248.0,16.0,-85.0,0
2452,-249.0,17.0,-87.0,0
2453,-250.0,20.0,-82.0,0
2454,-251.0,20.0,-84.0,0
2455,-248.0,18.0,-87.0,0
2456,-248.0,20.0,-82.0,0
2457,-252.0,17.0,-85.0,0
2458,-249.0,21.0,-86.0,0
2459,-250.0,19.0,-90.0,0
2460,-252.0,20.0,-87.0,0
2461,-249.0,21.0,-87.0,0
2462,-250.0,24.0,-84.0,0
2463,-246.0,20.0,-82.0,0
2464,-249.0,21.0,-85.0,0
2465,-250.0,20.0,-85.0,0
2466,-248.0,20.0,-84.0,0
2467,-249.0,18.0,-85.0,0
2468,-249.0,21.0,-83.0,0
2469,-250.0,23.0,-83.0,0
2470,-251.0,22.0,-87.0,0
2471,-248.0,20.0,-88.0,0
2472,-249.0,20.0,-86.0,0
2473,-250.0,23.0,-88.0,0
2474,-249.0,20.0,-89.0,0
2475,-252.0,22.0,-87.0,0
2476,-251.0,21.0,-85.0,0
2477,-252.0,21.0,-90.0,0
2478,-253.0,23.0,-85.0,0
2479,-248.0,19.0,-86.0,0
2480,-250.0,19.0,-86.0,0
2481,-250.0,20.0,-87.0,0
2482,-249.0,22.0,-86.0,0
2483,-247.0,20.0,-86.0,0
2484,-248.0,18.0,-83.0,0
2485,-250.0,19.0,-86.0,0
2486,-250.0,23.0,-87.0,0
2487,-249.0,20.0,-87.0,0
2488,-250.0,23.0,-86.0,0
2489,-249.0,18.0,-85.0,0
2490,-248.0,18.0,-90.0,0
2491,-251.0,26.0,-84.0,0
2492,-250.0,20.0,-84.0,0
2493,-253.0,23.0,-84.0,0
2494,-251.0,21.0,-85.0,0
2495,-251.0,23.0,-84.0,0
2496,-249.0,22.0,-86.0,0
2497,-247.0,19.0,-84.0,0
2498,-250.0,18.0,-85.0,0
2499,-248.0,19.0,-85.0,0
2500,-249.0,22.0,-83.0,0
2501,-249.0,21.0,-86.0,0
2502,-247.0,20.0,-88.0,0
2503,-251.0,22.0,-89.0,0
2504,-251.0,19.0,-86.0,0
2505,-249.0,21.0,-87.0,0
2506,-250.0,21.0,-84.0,0
2507,-249.0,20.0,-89.0,0
2508,-249.0,21.0,-89.0,0
2509,-249.0,18.0,-87.0,0
2510,-250.0,20.0,-85.0,0
2511,-246.0,22.0,-85.0,0
2512,-253.0,22.0,-82.0,0
2513,-248.0,18.0,-88.0,0
2514,-249.0,21.0,-84.0,0
2515,-250.0,19.0,-85.0,0
2516,-250.0,23.0,-82.0,0
2517,-249.0,22.0,-84.0,0
2518,-249.0,20.0,-81.0,0
2519,-247.0,19.0,-84.0,0
2520,-250.0,19.0,-85.0,0
2521,-249.0,17.0,-86.0,0
2522,-250.0,22.0,-84.0,0
2523,-250.0,17.0,-86.0,0
2524,-251.0,21.0,-85.0,0
2525,-251.0,22.0,-86.0,0
2526,-250.0,21.0,-84.0,0
2527,-248.0,22.0,-84.0,0
2528,-250.0,20.0,-90.0,0
2529,-249.0,18.0,-87.0,0
2530,-249.0,20.0,-84.0,0
2531,-249.0,20.0,-82.0,0
2532,-249.0,22.0,-84.0,0
2533,-250.0,22.0,-84.0,0
2534,-251.0,21.0,-86.0,0
2535,-249.0,17.0,-86.0,0
2536,-247.0,17.0,-87.0,0
2537,-247.0,20.0,-84.0,0
2538,-248.0,21.0,-90.0,0
2539,-248.0,21.0,-85.0,0
2540,-249.0,22.0,-89.0,0
2541,-250.0,21.0,-86.0,0
2542,-251.0,23.0,-83.0,0
2543,-249.0,22.0,-88.0,0
2544,-250.0,19.0,-85.0,0
2545,-249.0,21.0,-90.0,0
2546,-251.0,19.0,-87.0,0
2547,-249.0,23.0,-87.0,0
2548,-250.0,21.0,-91.0,0
2549,-247.0,19.0,-88.0,0
2550,-249.0,20.0,-88.0,0
2551,-250.0,21.0,-87.0,0
2552,-252.0,21.0,-88.0,0
2553,-249.0,19.0,-87.0,0
2554,-249.0,20.0,-88.0,0
2555,-250.0,18.0,-89.0,0
2556,-250.0,20.0,-89.0,0
2557,-249.0,17.0,-88.0,0
2558,-249.0,17.0,-86.0,0
2559,-252.0,21.0,-88.0,0
2560,-250.0,20.0,-82.0,0
2561,-247.0,20.0,-86.0,0
2562,-250.0,18.0,-90.0,0
2563,-251.0,20.0,-88.0,0
2564,-250.0,21.0,-85.0,0
2565,-249.0,18.0,-85.0,0
2566,-248.0,19.0,-88.0,0
2567,-250.0,21.0,-89.0,0
2568,-247.0,17.0,-87.0,0
2569,-247.0,17.0,-92.0,0
2570,-246.0,17.0,-85.0,0
2571,-248.0,20.0,-84.0,0
2572,-251.0,22.0,-85.0,0
2573,-249.0,19.0,-86.0,0
2574,-246.0,21.0,-84.0,0
2575,-247.0,21.0,-84.0,0
2576,-246.0,20.0,-84.0,0
2577,-248.0,21.0,-87.0,0
2578,-249.0,23.0,-87.0,0
2579,-248.0,17.0,-85.0,0
2580,-250.0,22.0,-87.0,0
2581,-249.0,22.0,-88.0,0
2582,-248.0,18.0,-87.0,0
2583,-249.0,22.0,-88.0,0
2584,-249.0,20.0,-87.0,0
2585,-250.0,22.0,-86.0,0
2586,-253.0,22.0,-90.0,0
2587,-250.0,19.0,-88.0,0
2588,-249.0,19.0,-88.0,0
2589,-252.0,19.0,-86.0,0
2590,-251.0,22.0,-87.0,0
2591,-249.0,20.0,-89.0,0
2592,-249.0,20.0,-81.0,0
2593,-249.0,19.0,-83.0,0
2594,-247.0,16.0,-83.0,0
2595,-250.0,18.0,-83.0,0
2596,-248.0,19.0,-83.0,0
2597,-247.0,17.0,-81.0,0
2598,-247.0,20.0,-80.0,0
2599,-248.0,17.0,-84.0,0
2600,-250.0,20.0,-88.0,0
2601,-251.0,20.0,-88.0,0
2602,-251.0,21.0,-91.0,0
2603,-251.0,18.0,-91.0,0
2604,-251.0,20.0,-88.0,0
2605,-251.0,22.0,-90.0,0
2606,-248.0,19.0,-86.0,0
2607,-247.0,20.0,-85.0,0
2608,-249.0,21.0,-85.0,0
2609,-249.0,22.0,-89.0,0
2610,-250.0,23.0,-89.0,0
2611,-248.0,22.0,-83.0,0
2612,-250.0,19.0,-86.0,0
2613,-251.0,20.0,-89.0,0
2614,-250.0,21.0,-84.0,0
2615,-248.0,22.0,-86.0,0
2616,-249.0,21.0,-85.0,0
2617,-231.0,24.0,-97.0,0
2618,-251.0,22.0,-86.0,0
2619,-249.0,17.0,-87.0,0
2620,-251.0,20.0,-91.0,0
2621,-250.0,22.0,-88.0,0
2622,-249.0,18.0,-86.0,0
2623,-248.0,21.0,-88.0,0
2624,-253.0,23.0,-91.0,0
2625,-249.0,21.0,-88.0,0
2626,-252.0,21.0,-84.0,0
2627,-249.0,17.0,-87.0,0
2628,-252.0,21.0,-88.0,0
2629,-249.0,19.0,-86.0,0
2630,-247.0,20.0,-85.0,0
2631,-247.0,20.0,-87.0,0
2632,-245.0,19.0,-86.0,0
2633,-246.0,20.0,-83.0,0
2634,-249.0,19.0,-88.0,0
2635,-249.0,20.0,-89.0,0
2636,-250.0,21.0,-84.0,0
2637,-248.0,20.0,-86.0,0
2638,-252.0,20.0,-86.0,0
2639,-249.0,18.0,-88.0,0
2640,-250.0,20.0,-89.0,0
2641,-251.0,20.0,-85.0,0
2642,-248.0,19.0,-85.0,0
2643,-249.0,19.0,-88.0,0
2644,-247.0,19.0,-88.0,0
2645,-250.0,19.0,-89.0,0
2646,-251.0,20.0,-87.0,0
2647,-251.0,22.0,-87.0,0
2648,-251.0,21.0,-84.0,0
2649,-252.0,21.0,-87.0,0
2650,-248.0,22.0,-88.0,0
2651,-247.0,21.0,-85.0,0
2652,-249.0,21.0,-89.0,0
2653,-251.0,18.0,-83.0,0
2654,-249.0,19.0,-87.0,0
2655,-250.0,23.0,-84.0,0
2656,-248.0,19.0,-84.0,0
2657,-249.0,21.0,-86.0,0
2658,-251.0,20.0,-89.0,0
2659,-250.0,21.0,-85.0,0
2660,-250.0,21.0,-88.0,0
2661,-250.0,21.0,-83.0,0
2662,-249.0,18.0,-88.0,0
2663,-248.0,19.0,-86.0,0
2664,-248.0,21.0,-85.0,0
2665,-247.0,19.0,-82.0,0
2666,-247.0,18.0,-85.0,0
2667,-248.0,17.0,-85.0,0
2668,-250.0,20.0,-84.0,0
2669,-248.0,17.0,-84.0,0
2670,-251.0,20.0,-83.0,0
2671,-250.0,22.0,-85.0,0
2672,-247.0,22.0,-85.0,0
2673,-249.0,18.0,-86.0,0
2674,-250.0,22.0,-81.0,0
2675,-252.0,20.0,-86.0,0
2676,-247.0,19.0,-85.0,0
2677,-247.0,18.0,-80.0,0
2678,-250.0,19.0,-83.0,0
2679,-248.0,21.0,-86.0,0
2680,-252.0,20.0,-84.0,0
2681,-246.0,21.0,-86.0,0
2682,-249.0,22.0,-84.0,0
2683,-251.0,19.0,-87.0,0
2684,-248.0,21.0,-88.0,0
2685,-249.0,20.0,-86.0,0
2686,-251.0,20.0,-89.0,0
2687,-250.0,21.0,-85.0,0
2688,-250.0,17.0,-88.0,0
2689,-248.0,17.0,-85.0,0
2690,-253.0,21.0,-89.0,0
2691,-252.0,20.0,-85.0,0
2692,-247.0,21.0,-85.0,0
2693,-249.0,21.0,-84.0,0
2694,-251.0,21.0,-88.0,0
2695,-250.0,20.0,-85.0,0
2696,-252.0,22.0,-89.0,0
2697,-250.0,21.0,-90.0,0
2698,-251.0,23.0,-86.0,0
2699,-250.0,21.0,-85.0,0
2700,-250.0,18.0,-86.0,0
2701,-249.0,19.0,-88.0,0
2702,-249.0,21.0,-83.0,0
2703,-249.0,22.0,-86.0,0
2704,-249.0,19.0,-84.0,0
2705,-251.0,22.0,-88.0,0
2706,-252.0,19.0,-84.0,0
2707,-251.0,21.0,-83.0,0
2708,-251.0,20.0,-88.0,0
2709,-251.0,21.0,-86.0,0
2710,-250.0,18.0,-84.0,0
2711,-251.0,17.0,-85.0,0
2712,-250.0,19.0,-85.0,0
2713,-250.0,22.0,-84.0,0
2714,-250.0,19.0,-83.0,0
2715,-250.0,18.0,-85.0,0
2716,-249.0,21.0,-85.0,0
2717,-247.0,20.0,-87.0,0
2718,-250.0,19.0,-81.0,0
2719,-251.0,18.0,-83.0,0
2720,-248.0,18.0,-85.0,0
2721,-249.0,17.0,-86.0,0
2722,-251.0,17.0,-85.0,0
2723,-250.0,18.0,-83.0,0
2724,-253.0,18.0,-87.0,0
2725,-253.0,20.0,-81.0,0
2726,-253.0,21.0,-80.0,0
2727,-253.0,18.0,-87.0,0
2728,-253.0,19.0,-83.0,0
2729,-251.0,20.0,-86.0,0
2730,-250.0,20.0,-84.0,0
2731,-250.0,18.0,-86.0,0
2732,-253.0,20.0,-84.0,0
2733,-256.0,24.0,-86.0,0
2734,-254.0,20.0,-84.0,0
2735,-252.0,20.0,-88.0,0
2736,-250.0,19.0,-84.0,0
2737,-251.0,21.0,-84.0,0
2738,-252.0,21.0,-88.0,0
2739,-251.0,20.0,-85.0,0
2740,-251.0,20.0,-83.0,0
2741,-247.0,21.0,-87.0,0
2742,-251.0,23.0,-82.0,0
2743,-250.0,22.0,-81.0,0
2744,-251.0,20.0,-87.0,0
2745,-249.0,18.0,-79.0,0
2746,-248.0,17.0,-83.0,0
2747,-251.0,17.0,-82.0,0
2748,-249.0,19.0,-75.0,0
2749,-249.0,17.0,-82.0,0
2750,-249.0,19.0,-82.0,0
2751,-248.0,17.0,-80.0,0
2752,-251.0,16.0,-83.0,0
2753,-251.0,19.0,-84.0,0
2754,-247.0,18.0,-83.0,0
2755,-249.0,18.0,-88.0,0
2756,-248.0,20.0,-85.0,0
2757,-249.0,20.0,-84.0,0
2758,-249.0,20.0,-82.0,0
2759,-251.0,20.0,-84.0,0
2760,-250.0,22.0,-84.0,0
2761,-249.0,19.0,-77.0,0
2762,-249.0,19.0,-82.0,0
2763,-248.0,19.0,-82.0,0
2764,-251.0,18.0,-82.0,0
2765,-252.0,22.0,-80.0,0
2766,-250.0,18.0,-81.0,0
2767,-248.0,20.0,-81.0,0
2768,-251.0,19.0,-82.0,0
2769,-255.0,20.0,-82.0,0
2770,-251.0,21.0,-83.0,0
2771,-252.0,19.0,-82.0,0
2772,-254.0,21.0,-81.0,0
2773,-251.0,16.0,-84.0,0
2774,-252.0,19.0,-81.0,0
2775,-251.0,19.0,-82.0,0
2776,-251.0,18.0,-81.0,0
2777,-250.0,20.0,-82.0,0
2778,-249.0,18.0,-85.0,0
2779,-249.0,21.0,-84.0,0
2780,-248.0,19.0,-80.0,0
2781,-252.0,20.0,-80.0,0
2782,-247.0,20.0,-81.0,0
2783,-248.0,20.0,-79.0,0
2784,-249.0,21.0,-86.0,0
2785,-250.0,16.0,-83.0,0
2786,-251.0,19.0,-83.0,0
2787,-250.0,18.0,-82.0,0
2788,-252.0,20.0,-79.0,0
2789,-250.0,15.0,-80.0,0
2790,-252.0,19.0,-80.0,0
2791,-249.0,14.0,-83.0,0
2792,-251.0,19.0,-84.0,0
2793,-252.0,21.0,-83.0,0
2794,-248.0,19.0,-84.0,0
2795,-250.0,18.0,-88.0,0
2796,-252.0,18.0,-85.0,0
2797,-251.0,21.0,-85.0,0
2798,-253.0,19.0,-85.0,0
2799,-251.0,18.0,-83.0,0
2800,-250.0,18.0,-83.0,0
2801,-250.0,17.0,-80.0,0
2802,-253.0,19.0,-81.0,0
2803,-252.0,18.0,-87.0,0
2804,-251.0,19.0,-87.0,0
2805,-251.0,18.0,-84.0,0
2806,-251.0,19.0,-85.0,0
2807,-250.0,15.0,-84.0,0
2808,-250.0,21.0,-84.0,0
2809,-250.0,21.0,-83.0,0
2810,-247.0,17.0,-84.0,0
2811,-250.0,20.0,-80.0,0
2812,-250.0,20.0,-82.0,0
2813,-249.0,19.0,-84.0,0
2814,-249.0,21.0,-77.0,0
2815,-249.0,19.0,-84.0,0
2816,-249.0,17.0,-82.0,0
2817,-250.0,19.0,-83.0,0
2818,-251.0,21.0,-81.0,0
2819,-250.0,18.0,-84.0,0
2820,-248.0,18.0,-82.0,0
2821,-249.0,17.0,-83.0,0
2822,-246.0,20.0,-83.0,0
2823,-254.0,19.0,-79.0,0
2824,-252.0,17.0,-86.0,0
2825,-251.0,19.0,-82.0,0
2826,-252.0,18.0,-85.0,0
2827,-252.0,14.0,-83.0,0
2828,-248.0,21.0,-81.0,0
2829,-249.0,19.0,-79.0,0
2830,-250.0,19.0,-80.0,0
2831,-251.0,19.0,-83.0,0
2832,-249.0,17.0,-82.0,0
2833,-250.0,16.0,-85.0,0
2834,-249.0,18.0,-81.0,0
2835,-252.0,18.0,-86.0,0
2836,-251.0,18.0,-86.0,0
2837,-251.0,18.0,-83.0,0
2838,-252.0,17.0,-85.0,0
2839,-250.0,18.0,-83.0,0
2840,-249.0,21.0,-85.0,0
2841,-252.0,19.0,-83.0,0
2842,-251.0,21.0,-86.0,0
2843,-250.0,21.0,-83.0,0
2844,-249.0,18.0,-82.0,0
2845,-249.0,21.0,-84.0,0
2846,-247.0,17.0,-85.0,0
2847,-253.0,18.0,-83.0,0
2848,-249.0,19.0,-81.0,0
2849,-249.0,19.0,-78.0,0
2850,-249.0,19.0,-84.0,0
2851,-250.0,20.0,-81.0,0
2852,-250.0,15.0,-85.0,0
2853,-249.0,18.0,-84.0,0
2854,-250.0,19.0,-78.0,0
2855,-249.0,20.0,-83.0,0
2856,-249.0,19.0,-82.0,0
2857,-248.0,19.0,-84.0,0
2858,-250.0,17.0,-81.0,0
2859,-246.0,17.0,-84.0,0
2860,-250.0,20.0,-79.0,0
2861,-248.0,18.0,-83.0,0
2862,-249.0,19.0,-84.0,0
2863,-252.0,18.0,-85.0,0
2864,-251.0,18.0,-86.0,0
2865,-251.0,19.0,-84.0,0
2866,-249.0,20.0,-85.0,0
2867,-253.0,18.0,-84.0,0
2868,-251.0,21.0,-84.0,0
2869,-249.0,20.0,-83.0,0
2870,-251.0,19.0,-84.0,0
2871,-250.0,21.0,-84.0,0
2872,-250.0,18.0,-84.0,0
2873,-247.0,16.0,-85.0,0
2874,-252.0,16.0,-84.0,0
2875,-251.0,16.0,-84.0,0
2876,-251.0,19.0,-85.0,0
2877,-254.0,19.0,-88.0,0
2878,-250.0,17.0,-83.0,0
2879,-250.0,18.0,-84.0,0
2880,-250.0,20.0,-83.0,0
2881,-251.0,20.0,-84.0,0
2882,-252.0,19.0,-85.0,0
2883,-254.0,16.0,-83.0,0
2884,-251.0,20.0,-81.0,0
2885,-250.0,19.0,-82.0,0
2886,-249.0,22.0,-83.0,0
2887,-249.0,22.0,-87.0,0
2888,-248.0,22.0,-83.0,0
2889,-251.0,20.0,-79.0,0
2890,-251.0,19.0,-82.0,0
2891,-249.0,21.0,-85.0,0
2892,-248.0,19.0,-87.0,0
2893,-253.0,20.0,-86.0,0
2894,-252.0,20.0,-83.0,0
2895,-253.0,21.0,-86.0,0
2896,-253.0,19.0,-85.0,0
2897,-251.0,19.0,-88.0,0
2898,-251.0,18.0,-89.0,0
2899,-254.0,19.0,-88.0,0
2900,-251.0,22.0,-89.0,0
2901,-253.0,20.0,-86.0,0
2902,-252.0,19.0,-87.0,0
2903,-252.0,16.0,-85.0,0
2904,-250.0,18.0,-82.0,0
2905,-249.0,17.0,-82.0,0
2906,-253.0,15.0,-80.0,0
2907,-249.0,16.0,-80.0,0
2908,-249.0,20.0,-85.0,0
2909,-249.0,16.0,-83.0,0
2910,-250.0,19.0,-86.0,0
2911,-251.0,19.0,-87.0,0
2912,-250.0,20.0,-85.0,0
2913,-251.0,21.0,-89.0,0
2914,-249.0,18.0,-86.0,0
2915,-250.0,19.0,-89.0,0
2916,-252.0,16.0,-83.0,0
2917,-250.0,19.0,-83.0,0
2918,-251.0,18.0,-86.0,0
2919,-250.0,20.0,-84.0,0
2920,-250.0,20.0,-85.0,0
2921,-248.0,19.0,-81.0,0
2922,-251.0,21.0,-87.0,0
2923,-252.0,17.0,-83.0,0
2924,-253.0,18.0,-84.0,0
2925,-253.0,19.0,-86.0,0
2926,-254.0,21.0,-85.0,0
2927,-253.0,18.0,-88.0,0
2928,-253.0,20.0,-88.0,0
2929,-251.0,17.0,-83.0,0
2930,-251.0,19.0,-87.0,0
2931,-251.0,16.0,-81.0,0
2932,-253.0,19.0,-82.0,0
2933,-246.0,15.0,-77.0,0
2934,-249.0,19.0,-85.0,0
2935,-250.0,19.0,-81.0,0
2936,-246.0,19.0,-87.0,0
2937,-247.0,16.0,-82.0,0
2938,-250.0,17.0,-79.0,0
2939,-249.0,16.0,-84.0,0
2940,-248.0,18.0,-77.0,0
2941,-247.0,17.0,-84.0,0
2942,-248.0,18.0,-83.0,0
2943,-249.0,15.0,-79.0,0
2944,-249.0,17.0,-85.0,0
2945,-248.0,16.0,-84.0,0
2946,-251.0,17.0,-82.0,0
2947,-249.0,15.0,-85.0,0
2948,-252.0,19.0,-80.0,0
2949,-250.0,17.0,-82.0,0
2950,-247.0,16.0,-80.0,0
2951,-248.0,18.0,-78.0,0
2952,-250.0,16.0,-81.0,0
2953,-249.0,20.0,-84.0,0
2954,-248.0,17.0,-81.0,0
2955,-248.0,18.0,-83.0,0
2956,-249.0,17.0,-86.0,0
2957,-249.0,16.0,-84.0,0
2958,-249.0,13.0,-84.0,0
2959,-251.0,15.0,-90.0,0
2960,-254.0,13.0,-84.0,0
2961,-252.0,13.0,-83.0,0
2962,-249.0,14.0,-79.0,0
2963,-251.0,15.0,-78.0,0
2964,-251.0,15.0,-85.0,0
2965,-251.0,15.0,-82.0,0
2966,-250.0,16.0,-78.0,0
2967,-249.0,18.0,-74.0,0
2968,-250.0,15.0,-78.0,0
2969,-249.0,16.0,-80.0,0
2970,-249.0,17.0,-75.0,0
2971,-247.0,18.0,-81.0,0
2972,-247.0,15.0,-81.0,0
2973,-247.0,16.0,-85.0,0
2974,-252.0,16.0,-81.0,0
2975,-251.0,17.0,-80.0,0
2976,-251.0,17.0,-86.0,0
2977,-248.0,19.0,-80.0,0
2978,-252.0,13.0,-80.0,0
2979,-249.0,16.0,-80.0,0
2980,-252.0,15.0,-79.0,0
2981,-250.0,17.0,-78.0,0
2982,-254.0,18.0,-84.0,0
2983,-253.0,17.0,-85.0,0
2984,-251.0,15.0,-84.0,0
2985,-249.0,19.0,-85.0,0
2986,-250.0,22.0,-81.0,0
2987,-250.0,20.0,-81.0,0
2988,-250.0,20.0,-80.0,0
2989,-250.0,22.0,-82.0,0
2990,-247.0,18.0,-81.0,0
2991,-251.0,16.0,-84.0,0
2992,-253.0,21.0,-84.0,0
2993,-247.0,16.0,-84.0,0
2994,-249.0,18.0,-82.0,0
2995,-249.0,19.0,-78.0,0
2996,-249.0,15.0,-84.0,0
2997,-249.0,17.0,-81.0,0
2998,-250.0,21.0,-83.0,0
2999,-249.0,16.0,-81.0,0
