,accelerometer_x,accelerometer_y,accelerometer_z,fall
0,-2.0,-226.0,-118.0,0
1,-4.0,-229.0,-120.0,0
2,-3.0,-223.0,-120.0,0
3,-4.0,-223.0,-115.0,0
4,-6.0,-224.0,-117.0,0
5,-3.0,-226.0,-118.0,0
6,-5.0,-221.0,-119.0,0
7,-2.0,-224.0,-122.0,0
8,-2.0,-222.0,-119.0,0
9,-2.0,-224.0,-117.0,0
10,-4.0,-222.0,-119.0,0
11,-3.0,-224.0,-122.0,0
12,-2.0,-225.0,-121.0,0
13,-1.0,-226.0,-121.0,0
14,-4.0,-226.0,-122.0,0
15,-2.0,-226.0,-119.0,0
16,-4.0,-227.0,-121.0,0
17,-4.0,-224.0,-118.0,0
18,-1.0,-226.0,-121.0,0
19,-4.0,-227.0,-118.0,0
20,-5.0,-230.0,-119.0,0
21,-2.0,-226.0,-125.0,0
22,-3.0,-226.0,-124.0,0
23,-6.0,-225.0,-122.0,0
24,-3.0,-223.0,-122.0,0
25,-3.0,-224.0,-124.0,0
26,-2.0,-223.0,-125.0,0
27,-5.0,-225.0,-117.0,0
28,-3.0,-223.0,-120.0,0
29,-3.0,-227.0,-117.0,0
30,-1.0,-226.0,-120.0,0
31,-3.0,-226.0,-120.0,0
32,-4.0,-225.0,-121.0,0
33,-4.0,-226.0,-119.0,0
34,-1.0,-226.0,-120.0,0
35,-4.0,-225.0,-117.0,0
36,-2.0,-225.0,-116.0,0
37,-2.0,-226.0,-119.0,0
38,1.0,-229.0,-122.0,0
39,-1.0,-225.0,-117.0,0
40,0.0,-228.0,-114.0,0
41,-1.0,-225.0,-121.0,0
42,-1.0,-228.0,-122.0,0
43,0.0,-226.0,-120.0,0
44,0.0,-229.0,-121.0,0
45,0.0,-230.0,-119.0,0
46,-5.0,-223.0,-118.0,0
47,-1.0,-224.0,-117.0,0
48,0.0,-226.0,-120.0,0
49,0.0,-225.0,-117.0,0
50,0.0,-228.0,-121.0,0
51,-2.0,-223.0,-118.0,0
52,-4.0,-224.0,-121.0,0
53,-1.0,-226.0,-118.0,0
54,-2.0,-230.0,-119.0,0
55,-3.0,-225.0,-119.0,0
56,-3.0,-229.0,-123.0,0
57,-4.0,-226.0,-121.0,0
58,0.0,-227.0,-121.0,0
59,-3.0,-225.0,-121.0,0
60,-5.0,-225.0,-124.0,0
61,-1.0,-227.0,-119.0,0
62,-1.0,-225.0,-120.0,0
63,-4.0,-225.0,-120.0,0
64,-5.0,-225.0,-117.0,0
65,0.0,-227.0,-123.0,0
66,-3.0,-226.0,-120.0,0
67,-2.0,-230.0,-117.0,0
68,-3.0,-228.0,-119.0,0
69,-2.0,-227.0,-118.0,0
70,-3.0,-224.0,-120.0,0
71,-1.0,-228.0,-123.0,0
72,-2.0,-229.0,-117.0,0
73,-2.0,-228.0,-121.0,0
74,-3.0,-228.0,-118.0,0
75,-2.0,-225.0,-113.0,0
76,-1.0,-224.0,-119.0,0
77,-3.0,-225.0,-115.0,0
78,-4.0,-225.0,-122.0,0
79,-2.0,-224.0,-120.0,0
80,-1.0,-226.0,-115.0,0
81,-3.0,-225.0,-122.0,0
82,-4.0,-224.0,-120.0,0
83,-1.0,-225.0,-117.0,0
84,-2.0,-224.0,-120.0,0
85,-2.0,-223.0,-122.0,0
86,0.0,-226.0,-118.0,0
87,-3.0,-224.0,-117.0,0
88,-4.0,-223.0,-121.0,0
89,-4.0,-224.0,-120.0,0
90,-3.0,-228.0,-120.0,0
91,-6.0,-226.0,-118.0,0
92,-4.0,-228.0,-122.0,0
93,-3.0,-227.0,-121.0,0
94,-5.0,-228.0,-118.0,0
95,-5.0,-227.0,-122.0,0
96,-3.0,-224.0,-119.0,0
97,-2.0,-225.0,-119.0,0
98,0.0,-227.0,-119.0,0
99,-3.0,-225.0,-120.0,0
100,-2.0,-226.0,-117.0,0
101,-2.0,-226.0,-123.0,0
102,-2.0,-223.0,-118.0,0
103,-2.0,-225.0,-120.0,0
104,0.0,-227.0,-118.0,0
105,-1.0,-224.0,-117.0,0
106,0.0,-223.0,-117.0,0
107,-3.0,-223.0,-120.0,0
108,-2.0,-223.0,-118.0,0
109,0.0,-226.0,-120.0,0
110,-1.0,-223.0,-117.0,0
111,-3.0,-224.0,-120.0,0
112,-2.0,-225.0,-118.0,0
113,-3.0,-224.0,-117.0,0
114,-4.0,-224.0,-119.0,0
115,-3.0,-227.0,-120.0,0
116,-2.0,-224.0,-119.0,0
117,-2.0,-226.0,-121.0,0
118,0.0,-229.0,-118.0,0
119,-1.0,-228.0,-119.0,0
120,-4.0,-226.0,-121.0,0
121,-2.0,-229.0,-121.0,0
122,-2.0,-228.0,-121.0,0
123,-2.0,-228.0,-122.0,0
124,-6.0,-223.0,-121.0,0
125,-2.0,-224.0,-123.0,0
126,-5.0,-224.0,-120.0,0
127,-2.0,-223.0,-124.0,0
128,-5.0,-223.0,-122.0,0
129,-3.0,-224.0,-121.0,0
130,-1.0,-224.0,-117.0,0
131,-1.0,-226.0,-120.0,0
132,-4.0,-223.0,-120.0,0
133,-1.0,-224.0,-119.0,0
134,-3.0,-226.0,-120.0,0
135,-1.0,-226.0,-121.0,0
136,-3.0,-223.0,-120.0,0
137,-1.0,-227.0,-123.0,0
138,-4.0,-223.0,-119.0,0
139,-1.0,-225.0,-120.0,0
140,-3.0,-230.0,-120.0,0
141,-4.0,-225.0,-122.0,0
142,-1.0,-225.0,-118.0,0
143,-5.0,-224.0,-122.0,0
144,-4.0,-225.0,-121.0,0
145,-4.0,-226.0,-121.0,0
146,-3.0,-228.0,-119.0,0
147,-2.0,-223.0,-121.0,0
148,-6.0,-225.0,-120.0,0
149,-2.0,-225.0,-116.0,0
150,0.0,-225.0,-119.0,0
151,-2.0,-227.0,-120.0,0
152,0.0,-224.0,-124.0,0
153,-3.0,-225.0,-119.0,0
154,-3.0,-225.0,-123.0,0
155,-4.0,-225.0,-118.0,0
156,0.0,-226.0,-121.0,0
157,-3.0,-224.0,-119.0,0
158,-4.0,-222.0,-118.0,0
159,-5.0,-224.0,-118.0,0
160,-2.0,-223.0,-122.0,0
161,0.0,-224.0,-121.0,0
162,-3.0,-221.0,-122.0,0
163,-5.0,-225.0,-122.0,0
164,-2.0,-225.0,-122.0,0
165,-4.0,-226.0,-120.0,0
166,-1.0,-229.0,-122.0,0
167,-5.0,-223.0,-121.0,0
168,-3.0,-225.0,-121.0,0
169,-4.0,-226.0,-122.0,0
170,-2.0,-224.0,-119.0,0
171,-5.0,-228.0,-123.0,0
172,-5.0,-226.0,-122.0,0
173,-5.0,-229.0,-119.0,0
174,-2.0,-228.0,-122.0,0
175,-3.0,-228.0,-121.0,0
176,-1.0,-224.0,-120.0,0
177,-2.0,-228.0,-120.0,0
178,-4.0,-226.0,-124.0,0
179,-4.0,-226.0,-120.0,0
180,-1.0,-228.0,-120.0,0
181,-5.0,-225.0,-122.0,0
182,-4.0,-223.0,-118.0,0
183,-2.0,-225.0,-119.0,0
184,-3.0,-227.0,-125.0,0
185,-1.0,-226.0,-121.0,0
186,-3.0,-226.0,-120.0,0
187,-2.0,-221.0,-124.0,0
188,-4.0,-226.0,-122.0,0
189,-4.0,-226.0,-123.0,0
190,-5.0,-224.0,-118.0,0
191,0.0,-226.0,-122.0,0
192,-2.0,-228.0,-118.0,0
193,-2.0,-228.0,-122.0,0
194,-3.0,-226.0,-118.0,0
195,-5.0,-222.0,-121.0,0
196,-5.0,-224.0,-115.0,0
197,-2.0,-229.0,-121.0,0
198,0.0,-228.0,-120.0,0
199,-1.0,-227.0,-119.0,0
200,-2.0,-228.0,-119.0,0
201,-3.0,-228.0,-121.0,0
202,-2.0,-224.0,-119.0,0
203,0.0,-226.0,-116.0,0
204,-1.0,-225.0,-120.0,0
205,-6.0,-224.0,-120.0,0
206,-1.0,-227.0,-118.0,0
207,-4.0,-225.0,-120.0,0
208,-5.0,-224.0,-122.0,0
209,-1.0,-228.0,-124.0,0
210,-3.0,-226.0,-121.0,0
211,-1.0,-225.0,-123.0,0
212,-2.0,-227.0,-118.0,0
213,-6.0,-227.0,-118.0,0
214,-5.0,-225.0,-119.0,0
215,-2.0,-228.0,-122.0,0
216,-1.0,-228.0,-117.0,0
217,-3.0,-227.0,-121.0,0
218,-1.0,-229.0,-119.0,0
219,-1.0,-225.0,-123.0,0
220,-3.0,-226.0,-118.0,0
221,0.0,-226.0,-119.0,0
222,-3.0,-224.0,-119.0,0
223,0.0,-225.0,-119.0,0
224,-8.0,-223.0,-117.0,0
225,-1.0,-225.0,-117.0,0
226,0.0,-225.0,-116.0,0
227,-4.0,-224.0,-117.0,0
228,-4.0,-226.0,-117.0,0
229,-1.0,-226.0,-117.0,0
230,-5.0,-226.0,-118.0,0
231,-4.0,-223.0,-121.0,0
232,-5.0,-225.0,-121.0,0
233,-3.0,-225.0,-122.0,0
234,-3.0,-224.0,-119.0,0
235,-5.0,-226.0,-123.0,0
236,-1.0,-225.0,-119.0,0
237,-1.0,-228.0,-119.0,0
238,-6.0,-226.0,-119.0,0
239,-2.0,-226.0,-119.0,0
240,-8.0,-227.0,-117.0,0
241,-3.0,-227.0,-121.0,0
242,-2.0,-225.0,-118.0,0
243,0.0,-225.0,-119.0,0
244,-5.0,-226.0,-119.0,0
245,-3.0,-222.0,-120.0,0
246,-6.0,-226.0,-118.0,0
247,-1.0,-225.0,-119.0,0
248,-6.0,-225.0,-118.0,0
249,0.0,-227.0,-119.0,0
250,-5.0,-225.0,-119.0,0
251,-2.0,-226.0,-119.0,0
252,-3.0,-226.0,-121.0,0
253,-3.0,-224.0,-118.0,0
254,-5.0,-228.0,-118.0,0
255,-2.0,-226.0,-118.0,0
256,-1.0,-229.0,-116.0,0
257,-1.0,-229.0,-117.0,0
258,0.0,-229.0,-121.0,0
259,-5.0,-228.0,-117.0,0
260,0.0,-231.0,-115.0,0
261,-3.0,-227.0,-119.0,0
262,-1.0,-229.0,-117.0,0
263,-2.0,-225.0,-117.0,0
264,-2.0,-225.0,-118.0,0
265,-1.0,-226.0,-121.0,0
266,-7.0,-224.0,-116.0,0
267,-1.0,-223.0,-122.0,0
268,-2.0,-224.0,-119.0,0
269,-3.0,-225.0,-121.0,0
270,-3.0,-223.0,-118.0,0
271,-2.0,-224.0,-119.0,0
272,-1.0,-227.0,-119.0,0
273,-3.0,-225.0,-116.0,0
274,-5.0,-223.0,-118.0,0
275,-4.0,-223.0,-120.0,0
276,-4.0,-224.0,-118.0,0
277,-6.0,-224.0,-120.0,0
278,-1.0,-223.0,-120.0,0
279,-1.0,-227.0,-116.0,0
280,-1.0,-229.0,-115.0,0
281,-2.0,-226.0,-118.0,0
282,-3.0,-226.0,-119.0,0
283,-3.0,-228.0,-120.0,0
284,-2.0,-228.0,-117.0,0
285,-4.0,-226.0,-117.0,0
286,-2.0,-229.0,-118.0,0
287,-5.0,-225.0,-116.0,0
288,-3.0,-225.0,-119.0,0
289,0.0,-230.0,-116.0,0
290,-3.0,-224.0,-115.0,0
291,-3.0,-226.0,-116.0,0
292,0.0,-228.0,-116.0,0
293,-4.0,-223.0,-119.0,0
294,-2.0,-224.0,-117.0,0
295,-3.0,-224.0,-123.0,0
296,-5.0,-222.0,-117.0,0
297,-1.0,-225.0,-116.0,0
298,-2.0,-226.0,-116.0,0
299,-2.0,-229.0,-114.0,0
300,-2.0,-228.0,-116.0,0
301,-2.0,-227.0,-117.0,0
302,-3.0,-227.0,-114.0,0
303,-3.0,-227.0,-116.0,0
304,-2.0,-226.0,-120.0,0
305,-4.0,-228.0,-117.0,0
306,-2.0,-227.0,-122.0,0
307,-2.0,-227.0,-119.0,0
308,0.0,-228.0,-117.0,0
309,-5.0,-226.0,-120.0,0
310,-4.0,-224.0,-117.0,0
311,-4.0,-226.0,-116.0,0
312,-2.0,-223.0,-117.0,0
313,-2.0,-228.0,-119.0,0
314,-4.0,-229.0,-122.0,0
315,-4.0,-227.0,-119.0,0
316,-1.0,-226.0,-116.0,0
317,-6.0,-227.0,-117.0,0
318,-3.0,-227.0,-115.0,0
319,0.0,-227.0,-118.0,0
320,-4.0,-228.0,-117.0,0
321,-7.0,-226.0,-117.0,0
322,-5.0,-224.0,-114.0,0
323,-6.0,-229.0,-119.0,0
324,-2.0,-228.0,-119.0,0
325,-7.0,-228.0,-118.0,0
326,-2.0,-229.0,-124.0,0
327,-6.0,-228.0,-115.0,0
328,-4.0,-225.0,-117.0,0
329,-1.0,-227.0,-119.0,0
330,-4.0,-225.0,-118.0,0
331,-2.0,-227.0,-119.0,0
332,5.0,-228.0,-120.0,0
333,-5.0,-222.0,-101.0,0
334,-3.0,-226.0,-118.0,0
335,-4.0,-235.0,-116.0,0
336,-1.0,-232.0,-121.0,0
337,-4.0,-229.0,-118.0,0
338,-5.0,-221.0,-117.0,0
339,-6.0,-226.0,-113.0,0
340,11.0,-223.0,-113.0,0
341,-3.0,-225.0,-116.0,0
342,-3.0,-227.0,-118.0,0
343,-3.0,-227.0,-119.0,0
344,-2.0,-228.0,-117.0,0
345,-2.0,-227.0,-116.0,0
346,0.0,-224.0,-120.0,0
347,-5.0,-227.0,-117.0,0
348,-2.0,-228.0,-115.0,0
349,-2.0,-225.0,-118.0,0
350,-4.0,-225.0,-117.0,0
351,-3.0,-227.0,-122.0,0
352,-3.0,-227.0,-119.0,0
353,-3.0,-225.0,-118.0,0
354,-3.0,-224.0,-121.0,0
355,-3.0,-226.0,-120.0,0
356,-2.0,-228.0,-119.0,0
357,0.0,-227.0,-119.0,0
358,-2.0,-225.0,-116.0,0
359,-2.0,-228.0,-115.0,0
360,-4.0,-224.0,-119.0,0
361,-3.0,-229.0,-118.0,0
362,0.0,-228.0,-118.0,0
363,-5.0,-228.0,-117.0,0
364,-1.0,-227.0,-121.0,0
365,-1.0,-227.0,-120.0,0
366,-1.0,-227.0,-119.0,0
367,-1.0,-227.0,-120.0,0
368,-1.0,-228.0,-117.0,0
369,-3.0,-226.0,-118.0,0
370,-1.0,-226.0,-117.0,0
371,-1.0,-226.0,-121.0,0
372,-4.0,-226.0,-119.0,0
373,-1.0,-229.0,-115.0,0
374,-3.0,-227.0,-116.0,0
375,-5.0,-224.0,-115.0,0
376,-1.0,-229.0,-118.0,0
377,-2.0,-227.0,-120.0,0
378,-3.0,-228.0,-120.0,0
379,-3.0,-225.0,-119.0,0
380,-5.0,-225.0,-119.0,0
381,-3.0,-225.0,-118.0,0
382,-1.0,-228.0,-121.0,0
383,-5.0,-228.0,-119.0,0
384,-2.0,-231.0,-116.0,0
385,-3.0,-232.0,-121.0,0
386,-4.0,-229.0,-123.0,0
387,-2.0,-230.0,-123.0,0
388,-1.0,-229.0,-117.0,0
389,-6.0,-229.0,-115.0,0
390,-3.0,-227.0,-112.0,0
391,-2.0,-228.0,-116.0,0
392,-5.0,-227.0,-116.0,0
393,-7.0,-226.0,-119.0,0
394,-2.0,-225.0,-116.0,0
395,-3.0,-228.0,-118.0,0
396,-1.0,-227.0,-119.0,0
397,0.0,-230.0,-120.0,0
398,-4.0,-226.0,-115.0,0
399,-3.0,-229.0,-118.0,0
400,-6.0,-227.0,-120.0,0
401,-7.0,-227.0,-119.0,0
402,-4.0,-226.0,-120.0,0
403,-3.0,-228.0,-119.0,0
404,-3.0,-228.0,-113.0,0
405,-3.0,-225.0,-117.0,0
406,-5.0,-224.0,-120.0,0
407,-2.0,-227.0,-119.0,0
408,-1.0,-227.0,-121.0,0
409,-2.0,-229.0,-119.0,0
410,-3.0,-223.0,-119.0,0
411,-3.0,-226.0,-121.0,0
412,-3.0,-225.0,-118.0,0
413,-4.0,-220.0,-119.0,0
414,-4.0,-228.0,-121.0,0
415,-1.0,-226.0,-122.0,0
416,0.0,-224.0,-116.0,0
417,-1.0,-228.0,-117.0,0
418,-1.0,-227.0,-120.0,0
419,1.0,-226.0,-117.0,0
420,-2.0,-227.0,-120.0,0
421,-3.0,-225.0,-122.0,0
422,-6.0,-225.0,-121.0,0
423,-2.0,-228.0,-119.0,0
424,-4.0,-229.0,-114.0,0
425,-6.0,-225.0,-122.0,0
426,-1.0,-227.0,-120.0,0
427,-6.0,-226.0,-118.0,0
428,-1.0,-226.0,-117.0,0
429,-3.0,-223.0,-118.0,0
430,-1.0,-227.0,-117.0,0
431,-5.0,-226.0,-119.0,0
432,-4.0,-225.0,-119.0,0
433,-1.0,-226.0,-122.0,0
434,-3.0,-227.0,-116.0,0
435,-3.0,-227.0,-119.0,0
436,-4.0,-227.0,-121.0,0
437,-4.0,-222.0,-120.0,0
438,-2.0,-226.0,-117.0,0
439,-2.0,-230.0,-120.0,0
440,-2.0,-227.0,-123.0,0
441,-4.0,-227.0,-118.0,0
442,-2.0,-228.0,-119.0,0
443,-4.0,-229.0,-117.0,0
444,0.0,-226.0,-122.0,0
445,-3.0,-227.0,-119.0,0
446,-4.0,-226.0,-121.0,0
447,-3.0,-226.0,-117.0,0
448,-4.0,-225.0,-118.0,0
449,-2.0,-225.0,-118.0,0
450,-6.0,-223.0,-120.0,0
451,-4.0,-225.0,-119.0,0
452,-5.0,-225.0,-117.0,0
453,-4.0,-224.0,-120.0,0
454,-2.0,-227.0,-118.0,0
455,-1.0,-224.0,-118.0,0
456,-2.0,-226.0,-118.0,0
457,-6.0,-227.0,-117.0,0
458,-3.0,-227.0,-121.0,0
459,-4.0,-226.0,-121.0,0
460,-4.0,-225.0,-117.0,0
461,-6.0,-224.0,-120.0,0
462,-3.0,-227.0,-119.0,0
463,-4.0,-224.0,-116.0,0
464,-2.0,-229.0,-118.0,0
465,-1.0,-226.0,-115.0,0
466,-2.0,-227.0,-121.0,0
467,0.0,-228.0,-120.0,0
468,0.0,-227.0,-114.0,0
469,-2.0,-229.0,-116.0,0
470,-4.0,-229.0,-117.0,0
471,-5.0,-227.0,-115.0,0
472,-3.0,-226.0,-116.0,0
473,-6.0,-226.0,-117.0,0
474,-3.0,-227.0,-119.0,0
475,-4.0,-226.0,-117.0,0
476,-5.0,-227.0,-115.0,0
477,-2.0,-225.0,-120.0,0
478,-4.0,-227.0,-116.0,0
479,-2.0,-224.0,-118.0,0
480,-1.0,-225.0,-118.0,0
481,-3.0,-226.0,-118.0,0
482,-3.0,-226.0,-119.0,0
483,-3.0,-225.0,-117.0,0
484,-3.0,-226.0,-116.0,0
485,-3.0,-225.0,-117.0,0
486,-5.0,-225.0,-117.0,0
487,-3.0,-227.0,-118.0,0
488,-3.0,-226.0,-118.0,0
489,-2.0,-229.0,-117.0,0
490,-3.0,-225.0,-121.0,0
491,-1.0,-227.0,-118.0,0
492,-3.0,-230.0,-118.0,0
493,-3.0,-226.0,-116.0,0
494,-6.0,-226.0,-122.0,0
495,-2.0,-225.0,-118.0,0
496,-4.0,-228.0,-117.0,0
497,-5.0,-224.0,-119.0,0
498,-5.0,-225.0,-120.0,0
499,-4.0,-224.0,-117.0,0
500,-2.0,-225.0,-121.0,0
501,-3.0,-228.0,-119.0,0
502,-3.0,-224.0,-120.0,0
503,-5.0,-226.0,-118.0,0
504,-4.0,-226.0,-121.0,0
505,-1.0,-226.0,-120.0,0
506,-2.0,-226.0,-122.0,0
507,-1.0,-228.0,-116.0,0
508,-3.0,-226.0,-118.0,0
509,-3.0,-224.0,-119.0,0
510,-1.0,-229.0,-115.0,0
511,0.0,-231.0,-117.0,0
512,-3.0,-227.0,-117.0,0
513,-1.0,-223.0,-117.0,0
514,-3.0,-229.0,-119.0,0
515,0.0,-228.0,-120.0,0
516,-2.0,-225.0,-116.0,0
517,-3.0,-224.0,-121.0,0
518,-7.0,-226.0,-119.0,0
519,-6.0,-224.0,-119.0,0
520,-4.0,-224.0,-121.0,0
521,-4.0,-227.0,-117.0,0
522,-4.0,-225.0,-117.0,0
523,-2.0,-228.0,-119.0,0
524,-5.0,-225.0,-120.0,0
525,-2.0,-227.0,-119.0,0
526,-2.0,-227.0,-118.0,0
527,-6.0,-228.0,-116.0,0
528,-2.0,-227.0,-120.0,0
529,-4.0,-230.0,-118.0,0
530,-3.0,-227.0,-118.0,0
531,-1.0,-226.0,-119.0,0
532,-3.0,-227.0,-116.0,0
533,-3.0,-225.0,-115.0,0
534,-3.0,-224.0,-118.0,0
535,-3.0,-226.0,-116.0,0
536,-2.0,-226.0,-116.0,0
537,-4.0,-227.0,-117.0,0
538,-3.0,-226.0,-117.0,0
539,-2.0,-229.0,-118.0,0
540,-5.0,-225.0,-115.0,0
541,-3.0,-226.0,-117.0,0
542,-2.0,-226.0,-118.0,0
543,-5.0,-229.0,-118.0,0
544,-7.0,-226.0,-119.0,0
545,-6.0,-228.0,-117.0,0
546,-3.0,-230.0,-117.0,0
547,-5.0,-228.0,-118.0,0
548,0.0,-226.0,-121.0,0
549,-5.0,-227.0,-118.0,0
550,-7.0,-224.0,-117.0,0
551,-2.0,-228.0,-117.0,0
552,-3.0,-228.0,-119.0,0
553,-6.0,-228.0,-117.0,0
554,-5.0,-228.0,-122.0,0
555,-1.0,-228.0,-122.0,0
556,-2.0,-227.0,-118.0,0
557,-2.0,-225.0,-116.0,0
558,-1.0,-225.0,-117.0,0
559,-2.0,-227.0,-117.0,0
560,-1.0,-228.0,-118.0,0
561,0.0,-227.0,-119.0,0
562,-6.0,-227.0,-116.0,0
563,-2.0,-223.0,-112.0,0
564,-2.0,-226.0,-119.0,0
565,-1.0,-226.0,-116.0,0
566,-1.0,-229.0,-119.0,0
567,-3.0,-228.0,-119.0,0
568,-5.0,-230.0,-118.0,0
569,-4.0,-231.0,-119.0,0
570,-5.0,-225.0,-121.0,0
571,0.0,-230.0,-116.0,0
572,-6.0,-226.0,-118.0,0
573,-1.0,-228.0,-118.0,0
574,-3.0,-230.0,-121.0,0
575,-4.0,-225.0,-117.0,0
576,-4.0,-228.0,-119.0,0
577,-3.0,-228.0,-117.0,0
578,-4.0,-225.0,-119.0,0
579,-7.0,-226.0,-116.0,0
580,-1.0,-229.0,-118.0,0
581,-5.0,-225.0,-117.0,0
582,-3.0,-226.0,-119.0,0
583,-4.0,-226.0,-114.0,0
584,-2.0,-227.0,-119.0,0
585,-4.0,-226.0,-117.0,0
586,-9.0,-226.0,-115.0,0
587,-5.0,-224.0,-116.0,0
588,-4.0,-228.0,-119.0,0
589,-3.0,-226.0,-116.0,0
590,-1.0,-228.0,-115.0,0
591,-5.0,-230.0,-116.0,0
592,-1.0,-227.0,-118.0,0
593,-5.0,-224.0,-115.0,0
594,-6.0,-226.0,-119.0,0
595,-2.0,-228.0,-116.0,0
596,-2.0,-228.0,-119.0,0
597,-4.0,-227.0,-117.0,0
598,-2.0,-225.0,-116.0,0
599,-1.0,-226.0,-117.0,0
600,-1.0,-227.0,-116.0,0
601,-3.0,-227.0,-117.0,0
602,-5.0,-228.0,-117.0,0
603,-5.0,-225.0,-117.0,0
604,0.0,-232.0,-119.0,0
605,-5.0,-222.0,-116.0,0
606,-6.0,-225.0,-113.0,0
607,-2.0,-229.0,-118.0,0
608,-5.0,-227.0,-117.0,0
609,-1.0,-227.0,-122.0,0
610,0.0,-228.0,-114.0,0
611,-3.0,-226.0,-119.0,0
612,-3.0,-226.0,-119.0,0
613,-3.0,-224.0,-114.0,0
614,-5.0,-227.0,-119.0,0
615,-1.0,-229.0,-116.0,0
616,0.0,-229.0,-120.0,0
617,-3.0,-227.0,-116.0,0
618,-2.0,-227.0,-115.0,0
619,-1.0,-230.0,-116.0,0
620,-4.0,-226.0,-120.0,0
621,-3.0,-224.0,-116.0,0
622,-3.0,-227.0,-120.0,0
623,-3.0,-225.0,-116.0,0
624,-4.0,-225.0,-118.0,0
625,-1.0,-228.0,-120.0,0
626,-2.0,-227.0,-119.0,0
627,-2.0,-224.0,-116.0,0
628,-5.0,-225.0,-115.0,0
629,-7.0,-228.0,-118.0,0
630,-1.0,-225.0,-115.0,0
631,-4.0,-224.0,-117.0,0
632,-4.0,-227.0,-120.0,0
633,-3.0,-225.0,-117.0,0
634,-6.0,-228.0,-119.0,0
635,0.0,-224.0,-118.0,0
636,-1.0,-229.0,-116.0,0
637,-2.0,-228.0,-118.0,0
638,-6.0,-224.0,-119.0,0
639,0.0,-227.0,-116.0,0
640,-3.0,-228.0,-118.0,0
641,-2.0,-226.0,-118.0,0
642,-5.0,-226.0,-117.0,0
643,-3.0,-228.0,-117.0,0
644,-2.0,-227.0,-116.0,0
645,-3.0,-228.0,-115.0,0
646,-2.0,-226.0,-120.0,0
647,-3.0,-229.0,-119.0,0
648,-2.0,-226.0,-121.0,0
649,-3.0,-225.0,-117.0,0
650,-3.0,-223.0,-115.0,0
651,-2.0,-226.0,-121.0,0
652,-3.0,-227.0,-119.0,0
653,0.0,-226.0,-117.0,0
654,-2.0,-226.0,-117.0,0
655,-3.0,-225.0,-117.0,0
656,-5.0,-224.0,-119.0,0
657,-1.0,-226.0,-119.0,0
658,-5.0,-226.0,-116.0,0
659,-1.0,-226.0,-119.0,0
660,-5.0,-226.0,-120.0,0
661,-1.0,-225.0,-119.0,0
662,-4.0,-227.0,-120.0,0
663,-3.0,-225.0,-121.0,0
664,-2.0,-227.0,-118.0,0
665,-6.0,-222.0,-120.0,0
666,-1.0,-226.0,-121.0,0
667,-3.0,-224.0,-115.0,0
668,-4.0,-228.0,-121.0,0
669,-2.0,-225.0,-118.0,0
670,-4.0,-226.0,-119.0,0
671,-5.0,-227.0,-118.0,0
672,-4.0,-226.0,-119.0,0
673,-4.0,-225.0,-119.0,0
674,-4.0,-224.0,-125.0,0
675,-3.0,-224.0,-118.0,0
676,-6.0,-224.0,-117.0,0
677,-5.0,-226.0,-119.0,0
678,-4.0,-225.0,-118.0,0
679,-2.0,-225.0,-117.0,0
680,-5.0,-224.0,-119.0,0
681,-2.0,-225.0,-119.0,0
682,0.0,-224.0,-119.0,0
683,-6.0,-223.0,-119.0,0
684,-2.0,-228.0,-123.0,0
685,-2.0,-226.0,-118.0,0
686,-1.0,-223.0,-119.0,0
687,0.0,-227.0,-118.0,0
688,-5.0,-223.0,-120.0,0
689,-5.0,-225.0,-124.0,0
690,-4.0,-223.0,-123.0,0
691,-4.0,-224.0,-117.0,0
692,-3.0,-226.0,-118.0,0
693,-1.0,-227.0,-122.0,0
694,-3.0,-226.0,-123.0,0
695,-1.0,-226.0,-119.0,0
696,-3.0,-226.0,-121.0,0
697,-2.0,-223.0,-119.0,0
698,-3.0,-223.0,-121.0,0
699,-3.0,-225.0,-119.0,0
700,-3.0,-227.0,-118.0,0
701,-2.0,-226.0,-123.0,0
702,-3.0,-224.0,-123.0,0
703,0.0,-224.0,-121.0,0
704,-1.0,-225.0,-121.0,0
705,-3.0,-224.0,-122.0,0
706,-5.0,-226.0,-119.0,0
707,-6.0,-224.0,-124.0,0
708,-2.0,-224.0,-123.0,0
709,-6.0,-226.0,-119.0,0
710,-3.0,-225.0,-122.0,0
711,-7.0,-224.0,-124.0,0
712,-5.0,-221.0,-123.0,0
713,0.0,-223.0,-123.0,0
714,-6.0,-223.0,-119.0,0
715,-3.0,-225.0,-124.0,0
716,-4.0,-223.0,-121.0,0
717,-2.0,-225.0,-122.0,0
718,-1.0,-224.0,-119.0,0
719,-3.0,-225.0,-123.0,0
720,-1.0,-224.0,-124.0,0
721,-5.0,-226.0,-117.0,0
722,-2.0,-225.0,-123.0,0
723,-6.0,-224.0,-123.0,0
724,-2.0,-229.0,-122.0,0
725,-3.0,-226.0,-124.0,0
726,-3.0,-225.0,-126.0,0
727,-4.0,-227.0,-123.0,0
728,-5.0,-228.0,-123.0,0
729,-3.0,-226.0,-125.0,0
730,-3.0,-221.0,-124.0,0
731,-4.0,-224.0,-120.0,0
732,-6.0,-222.0,-123.0,0
733,-3.0,-225.0,-124.0,0
734,-2.0,-225.0,-119.0,0
735,-5.0,-226.0,-118.0,0
736,-7.0,-221.0,-124.0,0
737,-2.0,-223.0,-118.0,0
738,-4.0,-221.0,-123.0,0
739,-2.0,-224.0,-125.0,0
740,-7.0,-222.0,-121.0,0
741,-5.0,-224.0,-118.0,0
742,-6.0,-223.0,-124.0,0
743,-6.0,-222.0,-120.0,0
744,-4.0,-228.0,-120.0,0
745,-21.0,-224.0,-133.0,0
746,-5.0,-223.0,-130.0,0
747,-16.0,-220.0,-110.0,0
748,-7.0,-216.0,-122.0,0
749,-7.0,-228.0,-115.0,0
750,-2.0,-225.0,-131.0,0
751,-6.0,-231.0,-127.0,0
752,-1.0,-224.0,-122.0,0
753,-6.0,-227.0,-122.0,0
754,-12.0,-234.0,-129.0,0
755,-2.0,-230.0,-124.0,0
756,0.0,-233.0,-128.0,0
757,-3.0,-231.0,-125.0,0
758,-3.0,-228.0,-128.0,0
759,0.0,-228.0,-142.0,0
760,-7.0,-230.0,-128.0,0
761,-6.0,-227.0,-127.0,0
762,-7.0,-230.0,-135.0,0
763,-5.0,-225.0,-132.0,0
764,-2.0,-225.0,-136.0,0
765,-8.0,-222.0,-129.0,0
766,-8.0,-220.0,-135.0,0
767,-9.0,-216.0,-138.0,0
768,-9.0,-215.0,-140.0,0
769,-8.0,-214.0,-148.0,0
770,-12.0,-211.0,-153.0,0
771,-8.0,-206.0,-153.0,0
772,-11.0,-200.0,-155.0,0
773,-10.0,-200.0,-158.0,0
774,-12.0,-196.0,-157.0,0
775,-11.0,-194.0,-155.0,0
776,-11.0,-193.0,-150.0,0
777,-10.0,-192.0,-149.0,0
778,-9.0,-192.0,-149.0,0
779,-8.0,-192.0,-147.0,0
780,-7.0,-191.0,-147.0,0
781,-5.0,-195.0,-145.0,0
782,-6.0,-193.0,-148.0,0
783,-1.0,-195.0,-147.0,0
784,-1.0,-195.0,-147.0,0
785,-3.0,-192.0,-148.0,0
786,-2.0,-192.0,-151.0,0
787,-3.0,-191.0,-151.0,0
788,0.0,-191.0,-155.0,0
789,0.0,-189.0,-160.0,0
790,1.0,-194.0,-155.0,0
791,0.0,-192.0,-158.0,0
792,3.0,-193.0,-151.0,0
793,1.0,-194.0,-157.0,0
794,-3.0,-196.0,-155.0,0
795,0.0,-194.0,-156.0,0
796,1.0,-197.0,-157.0,0
797,0.0,-192.0,-160.0,0
798,0.0,-191.0,-162.0,0
799,3.0,-189.0,-160.0,0
800,0.0,-187.0,-164.0,0
801,1.0,-182.0,-168.0,0
802,0.0,-180.0,-167.0,0
803,0.0,-177.0,-168.0,0
804,0.0,-169.0,-172.0,0
805,0.0,-172.0,-173.0,0
806,0.0,-168.0,-172.0,0
807,-2.0,-166.0,-173.0,0
808,-1.0,-162.0,-169.0,0
809,-1.0,-159.0,-167.0,0
810,-4.0,-157.0,-167.0,0
811,-3.0,-154.0,-171.0,0
812,-2.0,-152.0,-170.0,0
813,-3.0,-145.0,-176.0,0
814,-3.0,-144.0,-175.0,0
815,-3.0,-144.0,-176.0,0
816,-4.0,-137.0,-177.0,0
817,-2.0,-135.0,-176.0,0
818,-1.0,-131.0,-173.0,0
819,0.0,-129.0,-168.0,0
820,0.0,-127.0,-169.0,0
821,1.0,-118.0,-165.0,0
822,-2.0,-117.0,-163.0,0
823,5.0,-111.0,-162.0,0
824,-1.0,-113.0,-163.0,0
825,0.0,-109.0,-160.0,0
826,-1.0,-101.0,-156.0,0
827,-3.0,-100.0,-152.0,0
828,-5.0,-97.0,-152.0,0
829,-3.0,-96.0,-150.0,0
830,-3.0,-93.0,-150.0,0
831,-5.0,-93.0,-147.0,0
832,-12.0,-97.0,-149.0,0
833,-12.0,-97.0,-143.0,0
834,-13.0,-100.0,-144.0,0
835,-12.0,-105.0,-143.0,0
836,-14.0,-109.0,-140.0,0
837,-14.0,-115.0,-136.0,0
838,-17.0,-126.0,-132.0,0
839,-12.0,-135.0,-137.0,0
840,-15.0,-143.0,-139.0,0
841,-13.0,-153.0,-135.0,0
842,-15.0,-166.0,-138.0,0
843,-16.0,-173.0,-144.0,0
844,-18.0,-180.0,-153.0,0
845,-25.0,-187.0,-162.0,0
846,-27.0,-195.0,-161.0,0
847,-33.0,-202.0,-167.0,0
848,-31.0,-212.0,-169.0,0
849,-33.0,-218.0,-183.0,0
850,-31.0,-218.0,-192.0,0
851,-27.0,-218.0,-190.0,0
852,-25.0,-223.0,-194.0,0
853,-17.0,-226.0,-194.0,0
854,-12.0,-231.0,-194.0,0
855,-13.0,-232.0,-195.0,0
856,-10.0,-231.0,-199.0,0
857,-9.0,-232.0,-192.0,0
858,-11.0,-239.0,-193.0,0
859,-12.0,-235.0,-191.0,0
860,-4.0,-232.0,-187.0,0
861,-3.0,-223.0,-191.0,0
862,-4.0,-216.0,-195.0,0
863,-2.0,-204.0,-193.0,0
864,-4.0,-194.0,-192.0,0
865,-8.0,-180.0,-197.0,0
866,-9.0,-161.0,-200.0,0
867,-10.0,-151.0,-205.0,0
868,-12.0,-137.0,-208.0,0
869,-19.0,-129.0,-209.0,0
870,-24.0,-117.0,-206.0,0
871,-31.0,-103.0,-208.0,0
872,-36.0,-92.0,-205.0,0
873,-36.0,-88.0,-212.0,0
874,-32.0,-81.0,-213.0,0
875,-34.0,-82.0,-206.0,0
876,-29.0,-83.0,-210.0,0
877,-35.0,-90.0,-209.0,0
878,-20.0,-94.0,-213.0,0
879,-26.0,-98.0,-211.0,0
880,-27.0,-106.0,-218.0,0
881,-30.0,-115.0,-219.0,0
882,-27.0,-115.0,-219.0,0
883,-27.0,-115.0,-231.0,0
884,-23.0,-115.0,-233.0,0
885,-20.0,-114.0,-238.0,0
886,-14.0,-117.0,-241.0,0
887,-16.0,-115.0,-249.0,0
888,-12.0,-114.0,-249.0,0
889,-5.0,-108.0,-250.0,0
890,-8.0,-106.0,-244.0,0
891,-1.0,-106.0,-239.0,0
892,-6.0,-99.0,-239.0,0
893,-14.0,-99.0,-233.0,0
894,-16.0,-91.0,-229.0,0
895,-19.0,-92.0,-226.0,0
896,-20.0,-85.0,-226.0,0
897,-28.0,-81.0,-227.0,0
898,-28.0,-72.0,-227.0,0
899,-33.0,-64.0,-233.0,0
900,-36.0,-56.0,-233.0,0
901,-37.0,-53.0,-236.0,0
902,-32.0,-47.0,-240.0,0
903,-29.0,-41.0,-238.0,0
904,-28.0,-36.0,-233.0,0
905,-25.0,-30.0,-235.0,0
906,-18.0,-34.0,-240.0,0
907,-15.0,-30.0,-244.0,0
908,-14.0,-29.0,-247.0,0
909,-8.0,-26.0,-248.0,0
910,-8.0,-25.0,-251.0,0
911,-16.0,-25.0,-241.0,0
912,-16.0,-22.0,-244.0,0
913,-15.0,-22.0,-240.0,0
914,-17.0,-17.0,-240.0,0
915,-23.0,-16.0,-236.0,0
916,-23.0,-10.0,-239.0,0
917,-22.0,-8.0,-243.0,0
918,-24.0,-9.0,-241.0,0
919,-26.0,-5.0,-249.0,0
920,-19.0,-7.0,-248.0,0
921,-19.0,-1.0,-250.0,0
922,-15.0,5.0,-251.0,0
923,-10.0,5.0,-246.0,0
924,-9.0,12.0,-245.0,0
925,-15.0,18.0,-241.0,0
926,-14.0,24.0,-237.0,0
927,-17.0,19.0,-231.0,0
928,-19.0,19.0,-228.0,0
929,-14.0,20.0,-228.0,0
930,-19.0,23.0,-228.0,0
931,-21.0,21.0,-239.0,0
932,-23.0,25.0,-235.0,0
933,-25.0,29.0,-246.0,0
934,-19.0,37.0,-248.0,0
935,-21.0,36.0,-255.0,0
936,-18.0,38.0,-258.0,0
937,-14.0,38.0,-259.0,0
938,-15.0,39.0,-261.0,0
939,-14.0,42.0,-266.0,0
940,-16.0,41.0,-265.0,0
941,-19.0,39.0,-260.0,0
942,-24.0,43.0,-259.0,0
943,-27.0,44.0,-256.0,0
944,-28.0,48.0,-254.0,0
945,-25.0,45.0,-252.0,0
946,-31.0,47.0,-253.0,0
947,-25.0,46.0,-248.0,0
948,-25.0,45.0,-244.0,0
949,-25.0,49.0,-239.0,0
950,-20.0,46.0,-237.0,0
951,-20.0,48.0,-237.0,0
952,-17.0,46.0,-236.0,0
953,-13.0,46.0,-238.0,0
954,-13.0,50.0,-243.0,0
955,-11.0,50.0,-240.0,0
956,-9.0,59.0,-241.0,0
957,-11.0,56.0,-245.0,0
958,-13.0,59.0,-245.0,0
959,-11.0,59.0,-241.0,0
960,-10.0,64.0,-238.0,0
961,-14.0,60.0,-242.0,0
962,-14.0,62.0,-237.0,0
963,-14.0,63.0,-236.0,0
964,-12.0,59.0,-234.0,0
965,-15.0,63.0,-229.0,0
966,-15.0,61.0,-229.0,0
967,-13.0,57.0,-230.0,0
968,-13.0,60.0,-229.0,0
969,-11.0,62.0,-229.0,0
970,-8.0,62.0,-228.0,0
971,-7.0,60.0,-229.0,0
972,-10.0,67.0,-229.0,0
973,-11.0,65.0,-235.0,0
974,-8.0,68.0,-229.0,0
975,-5.0,65.0,-229.0,0
976,-9.0,71.0,-230.0,0
977,-12.0,70.0,-229.0,0
978,-10.0,73.0,-226.0,0
979,-16.0,77.0,-227.0,0
980,-12.0,73.0,-230.0,0
981,-14.0,75.0,-226.0,0
982,-14.0,74.0,-232.0,0
983,-14.0,77.0,-231.0,0
984,-10.0,76.0,-230.0,0
985,-7.0,77.0,-230.0,0
986,-6.0,77.0,-232.0,0
987,0.0,75.0,-236.0,0
988,-3.0,76.0,-236.0,0
989,-3.0,79.0,-233.0,0
990,-3.0,81.0,-233.0,0
991,-3.0,80.0,-233.0,0
992,-5.0,84.0,-232.0,0
993,-4.0,80.0,-233.0,0
994,-6.0,84.0,-234.0,0
995,-4.0,86.0,-235.0,0
996,-7.0,84.0,-234.0,0
997,-7.0,87.0,-232.0,0
998,-9.0,84.0,-231.0,0
999,-5.0,83.0,-230.0,0
1000,-6.0,82.0,-229.0,0
1001,-3.0,83.0,-232.0,0
1002,1.0,79.0,-233.0,0
1003,-1.0,80.0,-232.0,0
1004,0.0,83.0,-231.0,0
1005,0.0,79.0,-229.0,0
1006,1.0,77.0,-233.0,0
1007,0.0,82.0,-230.0,0
1008,-2.0,82.0,-232.0,0
1009,-2.0,87.0,-228.0,0
1010,-3.0,89.0,-229.0,0
1011,-5.0,89.0,-224.0,0
1012,-7.0,88.0,-225.0,0
1013,-5.0,86.0,-223.0,0
1014,-5.0,85.0,-226.0,0
1015,-3.0,83.0,-220.0,0
1016,0.0,81.0,-221.0,0
1017,-1.0,79.0,-218.0,0
1018,-1.0,81.0,-217.0,0
1019,0.0,80.0,-218.0,0
1020,0.0,78.0,-218.0,0
1021,1.0,81.0,-219.0,0
1022,2.0,80.0,-215.0,0
1023,2.0,84.0,-216.0,0
1024,0.0,82.0,-213.0,0
1025,3.0,84.0,-211.0,0
1026,3.0,83.0,-213.0,0
1027,3.0,83.0,-211.0,0
1028,5.0,81.0,-211.0,0
1029,2.0,78.0,-214.0,0
1030,4.0,80.0,-217.0,0
1031,3.0,82.0,-214.0,0
1032,2.0,77.0,-215.0,0
1033,1.0,84.0,-215.0,0
1034,0.0,81.0,-215.0,0
1035,0.0,81.0,-218.0,0
1036,-2.0,87.0,-221.0,0
1037,1.0,87.0,-219.0,0
1038,2.0,87.0,-222.0,0
1039,0.0,88.0,-220.0,0
1040,0.0,89.0,-223.0,0
1041,2.0,86.0,-223.0,0
1042,-2.0,88.0,-218.0,0
1043,2.0,87.0,-219.0,0
1044,1.0,87.0,-218.0,0
1045,1.0,85.0,-216.0,0
1046,2.0,82.0,-217.0,0
1047,-1.0,86.0,-217.0,0
1048,0.0,85.0,-217.0,0
1049,-2.0,88.0,-216.0,0
1050,-2.0,88.0,-220.0,0
1051,0.0,83.0,-218.0,0
1052,0.0,89.0,-217.0,0
1053,-1.0,87.0,-219.0,0
1054,0.0,88.0,-220.0,0
1055,1.0,92.0,-217.0,0
1056,1.0,90.0,-224.0,0
1057,1.0,89.0,-219.0,0
1058,0.0,91.0,-224.0,0
1059,1.0,93.0,-220.0,0
1060,0.0,89.0,-220.0,0
1061,0.0,88.0,-225.0,0
1062,-2.0,91.0,-217.0,0
1063,-1.0,93.0,-221.0,0
1064,-1.0,92.0,-224.0,0
1065,0.0,91.0,-220.0,0
1066,0.0,90.0,-220.0,0
1067,0.0,93.0,-223.0,0
1068,0.0,93.0,-220.0,0
1069,0.0,93.0,-218.0,0
1070,0.0,94.0,-216.0,0
1071,0.0,89.0,-215.0,0
1072,-1.0,90.0,-217.0,0
1073,-3.0,91.0,-216.0,0
1074,0.0,87.0,-214.0,0
1075,-2.0,90.0,-215.0,0
1076,-1.0,87.0,-209.0,0
1077,-3.0,87.0,-214.0,0
1078,0.0,88.0,-211.0,0
1079,-2.0,87.0,-212.0,0
1080,-2.0,86.0,-210.0,0
1081,-3.0,87.0,-212.0,0
1082,-5.0,89.0,-212.0,0
1083,-3.0,88.0,-212.0,0
1084,-3.0,88.0,-213.0,0
1085,0.0,89.0,-209.0,0
1086,0.0,91.0,-211.0,0
1087,-1.0,89.0,-211.0,0
1088,-1.0,89.0,-216.0,0
1089,-1.0,91.0,-215.0,0
1090,-2.0,94.0,-216.0,0
1091,-2.0,95.0,-214.0,0
1092,-1.0,92.0,-214.0,0
1093,0.0,92.0,-217.0,0
1094,-5.0,93.0,-211.0,0
1095,-3.0,93.0,-214.0,0
1096,0.0,92.0,-213.0,0
1097,-4.0,92.0,-212.0,0
1098,-5.0,91.0,-215.0,0
1099,-5.0,91.0,-213.0,0
1100,-5.0,92.0,-215.0,0
1101,-6.0,92.0,-216.0,0
1102,-7.0,95.0,-216.0,0
1103,-6.0,92.0,-215.0,0
1104,-7.0,94.0,-217.0,0
1105,-1.0,92.0,-215.0,0
1106,-1.0,94.0,-214.0,0
1107,-4.0,96.0,-214.0,0
1108,0.0,94.0,-216.0,0
1109,0.0,93.0,-217.0,0
1110,-3.0,92.0,-215.0,0
1111,0.0,92.0,-217.0,0
1112,-3.0,88.0,-215.0,0
1113,-2.0,91.0,-214.0,0
1114,-4.0,88.0,-215.0,0
1115,-4.0,90.0,-214.0,0
1116,-4.0,91.0,-216.0,0
1117,-4.0,93.0,-211.0,0
1118,-5.0,91.0,-212.0,0
1119,-2.0,89.0,-213.0,0
1120,-5.0,95.0,-213.0,0
1121,-4.0,95.0,-218.0,0
1122,-7.0,96.0,-213.0,0
1123,-5.0,95.0,-211.0,0
1124,-3.0,97.0,-215.0,0
1125,-7.0,96.0,-214.0,0
1126,-6.0,93.0,-214.0,0
1127,-5.0,95.0,-211.0,0
1128,-5.0,94.0,-214.0,0
1129,-7.0,95.0,-214.0,0
1130,-8.0,93.0,-214.0,0
1131,-9.0,96.0,-216.0,0
1132,-8.0,96.0,-215.0,0
1133,-7.0,93.0,-213.0,0
1134,-8.0,95.0,-216.0,0
1135,-9.0,96.0,-213.0,0
1136,-8.0,93.0,-214.0,0
1137,-6.0,91.0,-213.0,0
1138,-3.0,92.0,-216.0,0
1139,-8.0,93.0,-217.0,0
1140,-5.0,93.0,-216.0,0
1141,-5.0,89.0,-214.0,0
1142,-5.0,92.0,-214.0,0
1143,-9.0,92.0,-219.0,0
1144,-6.0,94.0,-217.0,0
1145,-8.0,94.0,-215.0,0
1146,-7.0,90.0,-213.0,0
1147,-4.0,95.0,-214.0,0
1148,-9.0,94.0,-214.0,0
1149,-8.0,97.0,-216.0,0
1150,-6.0,92.0,-217.0,0
1151,-4.0,93.0,-216.0,0
1152,-4.0,96.0,-214.0,0
1153,-6.0,94.0,-214.0,0
1154,0.0,92.0,-213.0,0
1155,-1.0,94.0,-223.0,0
1156,-3.0,78.0,-216.0,0
1157,-12.0,94.0,-216.0,0
1158,-3.0,92.0,-206.0,0
1159,1.0,92.0,-217.0,0
1160,-6.0,84.0,-217.0,0
1161,-16.0,106.0,-202.0,0
1162,-3.0,100.0,-213.0,0
1163,-7.0,91.0,-217.0,0
1164,-4.0,93.0,-211.0,0
1165,-5.0,94.0,-209.0,0
1166,-3.0,93.0,-211.0,0
1167,-3.0,93.0,-211.0,0
1168,-5.0,96.0,-216.0,0
1169,-4.0,92.0,-212.0,0
1170,-6.0,90.0,-208.0,0
1171,-8.0,93.0,-214.0,0
1172,-7.0,92.0,-214.0,0
1173,-6.0,91.0,-214.0,0
1174,-4.0,94.0,-213.0,0
1175,-7.0,92.0,-211.0,0
1176,-4.0,95.0,-214.0,0
1177,-1.0,96.0,-214.0,0
1178,-2.0,92.0,-213.0,0
1179,0.0,92.0,-211.0,0
1180,-3.0,94.0,-212.0,0
1181,-2.0,95.0,-213.0,0
1182,-5.0,96.0,-217.0,0
1183,-7.0,97.0,-217.0,0
1184,-2.0,94.0,-215.0,0
1185,-1.0,96.0,-214.0,0
1186,-4.0,95.0,-213.0,0
1187,-3.0,95.0,-217.0,0
1188,-4.0,95.0,-219.0,0
1189,-3.0,92.0,-216.0,0
1190,-2.0,96.0,-220.0,0
1191,-7.0,92.0,-219.0,0
1192,-4.0,94.0,-215.0,0
1193,-8.0,92.0,-217.0,0
1194,-4.0,93.0,-216.0,0
1195,-4.0,92.0,-217.0,0
1196,-4.0,95.0,-214.0,0
1197,-5.0,97.0,-219.0,0
1198,-4.0,94.0,-219.0,0
1199,-5.0,96.0,-219.0,0
1200,-3.0,95.0,-216.0,0
1201,-4.0,95.0,-219.0,0
1202,-4.0,93.0,-220.0,0
1203,-2.0,97.0,-219.0,0
1204,-5.0,98.0,-217.0,0
1205,-4.0,95.0,-214.0,0
1206,-3.0,96.0,-210.0,0
1207,-4.0,97.0,-212.0,0
1208,-1.0,95.0,-212.0,0
1209,-5.0,92.0,-211.0,0
1210,-2.0,91.0,-213.0,0
1211,-5.0,91.0,-210.0,0
1212,-8.0,92.0,-210.0,0
1213,-3.0,91.0,-211.0,0
1214,-2.0,91.0,-215.0,0
1215,-3.0,87.0,-216.0,0
1216,-4.0,87.0,-212.0,0
1217,-4.0,90.0,-216.0,0
1218,-3.0,88.0,-219.0,0
1219,-6.0,93.0,-213.0,0
1220,-6.0,95.0,-213.0,0
1221,-1.0,93.0,-216.0,0
1222,-5.0,96.0,-220.0,0
1223,-3.0,97.0,-216.0,0
1224,-1.0,95.0,-214.0,0
1225,-2.0,95.0,-213.0,0
1226,-9.0,95.0,-213.0,0
1227,0.0,90.0,-214.0,0
1228,-7.0,94.0,-212.0,0
1229,-6.0,96.0,-214.0,0
1230,-8.0,92.0,-213.0,0
1231,-6.0,91.0,-207.0,0
1232,-6.0,89.0,-212.0,0
1233,-5.0,90.0,-211.0,0
1234,-4.0,88.0,-211.0,0
1235,-4.0,88.0,-213.0,0
1236,-7.0,87.0,-210.0,0
1237,-9.0,93.0,-215.0,0
1238,-3.0,91.0,-214.0,0
1239,-3.0,91.0,-216.0,0
1240,-7.0,92.0,-213.0,0
1241,-3.0,97.0,-215.0,0
1242,-5.0,95.0,-215.0,0
1243,-1.0,94.0,-212.0,0
1244,-3.0,95.0,-213.0,0
1245,-6.0,95.0,-213.0,0
1246,-5.0,94.0,-215.0,0
1247,-4.0,92.0,-215.0,0
1248,-6.0,95.0,-212.0,0
1249,-5.0,88.0,-211.0,0
1250,-5.0,93.0,-212.0,0
1251,-8.0,92.0,-211.0,0
1252,-6.0,93.0,-213.0,0
1253,-6.0,89.0,-209.0,0
1254,-4.0,92.0,-212.0,0
1255,-5.0,89.0,-217.0,0
1256,-5.0,89.0,-217.0,0
1257,-1.0,88.0,-216.0,0
1258,-4.0,91.0,-217.0,0
1259,-8.0,90.0,-213.0,0
1260,-6.0,91.0,-221.0,0
1261,-4.0,93.0,-215.0,0
1262,-7.0,95.0,-220.0,0
1263,-8.0,94.0,-217.0,0
1264,-9.0,93.0,-217.0,0
1265,-5.0,92.0,-215.0,0
1266,-6.0,91.0,-210.0,0
1267,-7.0,93.0,-215.0,0
1268,-8.0,91.0,-217.0,0
1269,-8.0,89.0,-217.0,0
1270,-7.0,89.0,-218.0,0
1271,-6.0,88.0,-213.0,0
1272,-5.0,88.0,-213.0,0
1273,-1.0,86.0,-216.0,0
1274,-3.0,87.0,-217.0,0
1275,-1.0,86.0,-216.0,0
1276,-4.0,88.0,-217.0,0
1277,-4.0,90.0,-214.0,0
1278,-1.0,88.0,-221.0,0
1279,-3.0,92.0,-217.0,0
1280,-4.0,90.0,-214.0,0
1281,-2.0,88.0,-218.0,0
1282,-5.0,91.0,-216.0,0
1283,-3.0,88.0,-214.0,0
1284,-7.0,88.0,-221.0,0
1285,-7.0,90.0,-222.0,0
1286,-9.0,88.0,-216.0,0
1287,-9.0,88.0,-221.0,0
1288,-9.0,90.0,-216.0,0
1289,-5.0,88.0,-216.0,0
1290,-5.0,91.0,-214.0,0
1291,-4.0,87.0,-214.0,0
1292,-3.0,84.0,-216.0,0
1293,-6.0,87.0,-214.0,0
1294,-4.0,85.0,-218.0,0
1295,-5.0,87.0,-217.0,0
1296,-4.0,85.0,-218.0,0
1297,-3.0,84.0,-219.0,0
1298,-8.0,85.0,-218.0,0
1299,-7.0,86.0,-220.0,0
1300,-5.0,85.0,-217.0,0
1301,-5.0,83.0,-218.0,0
1302,-7.0,85.0,-218.0,0
1303,-6.0,89.0,-214.0,0
1304,-3.0,86.0,-221.0,0
1305,-8.0,89.0,-219.0,0
1306,-8.0,89.0,-220.0,0
1307,-9.0,84.0,-220.0,0
1308,-8.0,86.0,-219.0,0
1309,-9.0,85.0,-221.0,0
1310,-9.0,89.0,-219.0,0
1311,-11.0,86.0,-217.0,0
1312,-7.0,88.0,-221.0,0
1313,-12.0,90.0,-225.0,0
1314,-8.0,90.0,-221.0,0
1315,-9.0,90.0,-223.0,0
1316,-8.0,89.0,-222.0,0
1317,-6.0,91.0,-222.0,0
1318,-3.0,87.0,-221.0,0
1319,-9.0,90.0,-223.0,0
1320,-6.0,87.0,-222.0,0
1321,-8.0,89.0,-223.0,0
1322,-10.0,88.0,-219.0,0
1323,-7.0,89.0,-223.0,0
1324,-8.0,82.0,-221.0,0
1325,-10.0,84.0,-215.0,0
1326,-8.0,84.0,-220.0,0
1327,-11.0,84.0,-224.0,0
1328,-9.0,84.0,-220.0,0
1329,-9.0,83.0,-221.0,0
1330,-8.0,87.0,-217.0,0
1331,-9.0,84.0,-220.0,0
1332,-6.0,81.0,-217.0,0
1333,-8.0,84.0,-212.0,0
1334,-5.0,83.0,-214.0,0
1335,-9.0,82.0,-218.0,0
1336,-8.0,82.0,-223.0,0
1337,-8.0,83.0,-217.0,0
1338,-9.0,81.0,-216.0,0
1339,-6.0,85.0,-222.0,0
1340,-8.0,83.0,-223.0,0
1341,-6.0,82.0,-221.0,0
1342,-5.0,83.0,-219.0,0
1343,-4.0,81.0,-219.0,0
1344,-5.0,84.0,-223.0,0
1345,-8.0,83.0,-217.0,0
1346,-10.0,87.0,-218.0,0
1347,-8.0,86.0,-216.0,0
1348,-6.0,85.0,-221.0,0
1349,-5.0,86.0,-219.0,0
1350,-7.0,86.0,-220.0,0
1351,-9.0,85.0,-220.0,0
1352,-3.0,82.0,-217.0,0
1353,-7.0,86.0,-221.0,0
1354,-7.0,84.0,-223.0,0
1355,-5.0,83.0,-221.0,0
1356,-4.0,84.0,-220.0,0
1357,-5.0,82.0,-221.0,0
1358,-4.0,81.0,-218.0,0
1359,-4.0,85.0,-219.0,0
1360,-4.0,84.0,-220.0,0
1361,-4.0,82.0,-218.0,0
1362,-4.0,82.0,-217.0,0
1363,-5.0,83.0,-219.0,0
1364,-1.0,81.0,-216.0,0
1365,-3.0,84.0,-214.0,0
1366,-6.0,83.0,-219.0,0
1367,-1.0,84.0,-212.0,0
1368,-1.0,81.0,-215.0,0
1369,-1.0,81.0,-217.0,0
1370,-5.0,81.0,-215.0,0
1371,-6.0,82.0,-218.0,0
1372,-11.0,83.0,-216.0,0
1373,-10.0,81.0,-217.0,0
1374,-8.0,84.0,-220.0,0
1375,-6.0,83.0,-217.0,0
1376,-6.0,79.0,-217.0,0
1377,-8.0,82.0,-220.0,0
1378,-7.0,83.0,-221.0,0
1379,-6.0,81.0,-223.0,0
1380,-2.0,79.0,-220.0,0
1381,-5.0,80.0,-222.0,0
1382,-3.0,80.0,-219.0,0
1383,-3.0,84.0,-219.0,0
1384,-4.0,82.0,-219.0,0
1385,-6.0,79.0,-218.0,0
1386,-6.0,84.0,-221.0,0
1387,-3.0,82.0,-214.0,0
1388,-3.0,81.0,-216.0,0
1389,-4.0,83.0,-215.0,0
1390,-5.0,82.0,-217.0,0
1391,-5.0,80.0,-219.0,0
1392,-2.0,80.0,-215.0,0
1393,-4.0,83.0,-217.0,0
1394,-8.0,83.0,-217.0,0
1395,-6.0,83.0,-218.0,0
1396,-6.0,86.0,-219.0,0
1397,-7.0,83.0,-214.0,0
1398,-7.0,84.0,-218.0,0
1399,-7.0,81.0,-218.0,0
1400,-6.0,82.0,-216.0,0
1401,-6.0,83.0,-217.0,0
1402,-8.0,83.0,-215.0,0
1403,-8.0,81.0,-219.0,0
1404,-8.0,83.0,-219.0,0
1405,-4.0,82.0,-219.0,0
1406,-3.0,81.0,-218.0,0
1407,-5.0,82.0,-222.0,0
1408,-5.0,83.0,-223.0,0
1409,-4.0,83.0,-222.0,0
1410,-2.0,81.0,-220.0,0
1411,-5.0,82.0,-221.0,0
1412,-3.0,88.0,-223.0,0
1413,-1.0,85.0,-223.0,0
1414,-2.0,82.0,-220.0,0
1415,-3.0,85.0,-223.0,0
1416,-6.0,85.0,-220.0,0
1417,-4.0,85.0,-216.0,0
1418,-3.0,83.0,-219.0,0
1419,-3.0,84.0,-221.0,0
1420,-1.0,82.0,-219.0,0
1421,-3.0,82.0,-221.0,0
1422,-5.0,84.0,-222.0,0
1423,-5.0,83.0,-220.0,0
1424,-3.0,79.0,-220.0,0
1425,-4.0,84.0,-217.0,0
1426,-1.0,80.0,-218.0,0
1427,-3.0,80.0,-217.0,0
1428,-2.0,83.0,-221.0,0
1429,-4.0,82.0,-221.0,0
1430,-1.0,82.0,-217.0,0
1431,-3.0,79.0,-218.0,0
1432,-4.0,83.0,-219.0,0
1433,-8.0,85.0,-216.0,0
1434,-5.0,85.0,-218.0,0
1435,-3.0,84.0,-218.0,0
1436,-7.0,84.0,-221.0,0
1437,-2.0,85.0,-221.0,0
1438,-4.0,84.0,-220.0,0
1439,-3.0,82.0,-219.0,0
1440,-2.0,84.0,-219.0,0
1441,-7.0,85.0,-219.0,0
1442,-3.0,84.0,-219.0,0
1443,-2.0,87.0,-222.0,0
1444,-6.0,86.0,-219.0,0
1445,-6.0,85.0,-218.0,0
1446,-4.0,81.0,-218.0,0
1447,-8.0,84.0,-214.0,0
1448,-5.0,81.0,-217.0,0
1449,-5.0,85.0,-219.0,0
1450,-4.0,79.0,-220.0,0
1451,-6.0,80.0,-219.0,0
1452,-4.0,84.0,-219.0,0
1453,-7.0,87.0,-219.0,0
1454,-3.0,83.0,-221.0,0
1455,-3.0,79.0,-219.0,0
1456,-6.0,87.0,-216.0,0
1457,-6.0,84.0,-215.0,0
1458,-1.0,82.0,-216.0,0
1459,-7.0,81.0,-216.0,0
1460,-5.0,85.0,-218.0,0
1461,-2.0,81.0,-215.0,0
1462,-3.0,82.0,-217.0,0
1463,-5.0,82.0,-215.0,0
1464,-7.0,82.0,-219.0,0
1465,-7.0,84.0,-218.0,0
1466,-9.0,79.0,-216.0,0
1467,-8.0,83.0,-217.0,0
1468,-6.0,81.0,-222.0,0
1469,-9.0,82.0,-221.0,0
1470,-8.0,83.0,-218.0,0
1471,-10.0,84.0,-225.0,0
1472,-5.0,83.0,-220.0,0
1473,-9.0,85.0,-222.0,0
1474,-5.0,82.0,-223.0,0
1475,-7.0,88.0,-220.0,0
1476,-5.0,86.0,-223.0,0
1477,-6.0,88.0,-223.0,0
1478,-6.0,88.0,-219.0,0
1479,-4.0,87.0,-225.0,0
1480,-4.0,88.0,-223.0,0
1481,-6.0,87.0,-221.0,0
1482,-11.0,90.0,-219.0,0
1483,-5.0,86.0,-222.0,0
1484,-4.0,86.0,-224.0,0
1485,-3.0,85.0,-219.0,0
1486,-6.0,85.0,-219.0,0
1487,-8.0,85.0,-222.0,0
1488,-6.0,86.0,-222.0,0
1489,-7.0,85.0,-224.0,0
1490,-9.0,83.0,-218.0,0
1491,-7.0,83.0,-223.0,0
1492,-6.0,82.0,-220.0,0
1493,-6.0,82.0,-216.0,0
1494,-6.0,82.0,-218.0,0
1495,-3.0,80.0,-217.0,0
1496,-8.0,81.0,-216.0,0
1497,-8.0,82.0,-217.0,0
1498,-3.0,81.0,-215.0,0
1499,-8.0,80.0,-213.0,0
1500,-9.0,81.0,-214.0,0
1501,-7.0,80.0,-217.0,0
1502,-6.0,81.0,-213.0,0
1503,-7.0,80.0,-216.0,0
1504,-8.0,82.0,-213.0,0
1505,-9.0,82.0,-216.0,0
1506,-3.0,79.0,-217.0,0
1507,-7.0,82.0,-216.0,0
1508,-9.0,83.0,-216.0,0
1509,-4.0,80.0,-215.0,0
1510,-9.0,81.0,-217.0,0
1511,-6.0,84.0,-214.0,0
1512,-9.0,87.0,-218.0,0
1513,-8.0,83.0,-217.0,0
1514,-10.0,85.0,-217.0,0
1515,-9.0,85.0,-215.0,0
1516,-10.0,84.0,-218.0,0
1517,-7.0,84.0,-219.0,0
1518,-8.0,84.0,-217.0,0
1519,-7.0,88.0,-226.0,0
1520,-10.0,84.0,-222.0,0
1521,-6.0,84.0,-221.0,0
1522,-6.0,85.0,-217.0,0
1523,-7.0,82.0,-218.0,0
1524,-7.0,83.0,-222.0,0
1525,-8.0,84.0,-218.0,0
1526,-10.0,84.0,-224.0,0
1527,-8.0,83.0,-217.0,0
1528,-7.0,83.0,-221.0,0
1529,-8.0,88.0,-218.0,0
1530,-5.0,86.0,-219.0,0
1531,-9.0,85.0,-220.0,0
1532,-7.0,83.0,-218.0,0
1533,-8.0,86.0,-220.0,0
1534,-8.0,84.0,-215.0,0
1535,-10.0,87.0,-219.0,0
1536,-6.0,84.0,-220.0,0
1537,-10.0,88.0,-218.0,0
1538,-4.0,85.0,-220.0,0
1539,-7.0,86.0,-220.0,0
1540,-7.0,84.0,-219.0,0
1541,-4.0,87.0,-217.0,0
1542,-6.0,86.0,-219.0,0
1543,-5.0,88.0,-219.0,0
1544,-6.0,86.0,-219.0,0
1545,-4.0,84.0,-219.0,0
1546,-6.0,88.0,-217.0,0
1547,-5.0,85.0,-221.0,0
1548,-7.0,88.0,-217.0,0
1549,-7.0,86.0,-218.0,0
1550,-6.0,86.0,-217.0,0
1551,-9.0,89.0,-218.0,0
1552,-10.0,87.0,-215.0,0
1553,-9.0,88.0,-213.0,0
1554,-6.0,89.0,-215.0,0
1555,-7.0,86.0,-216.0,0
1556,-6.0,85.0,-216.0,0
1557,-7.0,83.0,-218.0,0
1558,-5.0,87.0,-216.0,0
1559,-2.0,85.0,-219.0,0
1560,-7.0,84.0,-220.0,0
1561,-6.0,86.0,-219.0,0
1562,-6.0,84.0,-219.0,0
1563,-8.0,82.0,-213.0,0
1564,-4.0,82.0,-214.0,0
1565,-6.0,84.0,-214.0,0
1566,-7.0,80.0,-215.0,0
1567,-9.0,88.0,-218.0,0
1568,-15.0,92.0,-200.0,0
1569,-4.0,86.0,-211.0,0
1570,-3.0,85.0,-218.0,0
1571,-8.0,74.0,-219.0,0
1572,-5.0,80.0,-224.0,0
1573,-14.0,83.0,-218.0,0
1574,-9.0,79.0,-212.0,0
1575,-4.0,86.0,-232.0,0
1576,-8.0,90.0,-210.0,0
1577,-6.0,89.0,-216.0,0
1578,-3.0,88.0,-216.0,0
1579,-4.0,86.0,-220.0,0
1580,-4.0,87.0,-218.0,0
1581,-6.0,90.0,-216.0,0
1582,-5.0,90.0,-216.0,0
1583,-6.0,90.0,-219.0,0
1584,-6.0,86.0,-214.0,0
1585,-9.0,84.0,-218.0,0
1586,-8.0,86.0,-219.0,0
1587,-8.0,87.0,-216.0,0
1588,-4.0,85.0,-216.0,0
1589,-7.0,87.0,-217.0,0
1590,-8.0,88.0,-219.0,0
1591,-8.0,84.0,-220.0,0
1592,-7.0,81.0,-218.0,0
1593,-7.0,87.0,-217.0,0
1594,-7.0,84.0,-217.0,0
1595,-6.0,85.0,-223.0,0
1596,-7.0,86.0,-218.0,0
1597,-6.0,89.0,-220.0,0
1598,-9.0,89.0,-216.0,0
1599,-12.0,87.0,-215.0,0
1600,-9.0,89.0,-214.0,0
1601,-9.0,85.0,-217.0,0
1602,-8.0,86.0,-216.0,0
1603,-5.0,86.0,-216.0,0
1604,-8.0,80.0,-211.0,0
1605,-10.0,87.0,-216.0,0
1606,-9.0,86.0,-214.0,0
1607,-7.0,83.0,-215.0,0
1608,-9.0,84.0,-217.0,0
1609,-7.0,84.0,-217.0,0
1610,-8.0,86.0,-216.0,0
1611,-10.0,88.0,-216.0,0
1612,-7.0,86.0,-215.0,0
1613,-4.0,82.0,-219.0,0
1614,-7.0,84.0,-216.0,0
1615,-7.0,89.0,-219.0,0
1616,-8.0,85.0,-219.0,0
1617,-11.0,85.0,-218.0,0
1618,-7.0,86.0,-216.0,0
1619,-7.0,83.0,-217.0,0
1620,-9.0,84.0,-215.0,0
1621,-12.0,88.0,-215.0,0
1622,-9.0,87.0,-217.0,0
1623,-10.0,87.0,-217.0,0
1624,-7.0,83.0,-215.0,0
1625,-8.0,84.0,-216.0,0
1626,-8.0,84.0,-215.0,0
1627,-7.0,83.0,-218.0,0
1628,-6.0,83.0,-215.0,0
1629,-7.0,81.0,-220.0,0
1630,-9.0,82.0,-221.0,0
1631,-8.0,84.0,-221.0,0
1632,-8.0,82.0,-216.0,0
1633,-9.0,85.0,-219.0,0
1634,-6.0,85.0,-216.0,0
1635,-9.0,85.0,-218.0,0
1636,-10.0,86.0,-219.0,0
1637,-8.0,87.0,-215.0,0
1638,-12.0,85.0,-217.0,0
1639,-9.0,86.0,-220.0,0
1640,-7.0,87.0,-217.0,0
1641,-5.0,87.0,-218.0,0
1642,-5.0,82.0,-216.0,0
1643,-9.0,85.0,-219.0,0
1644,-9.0,88.0,-221.0,0
1645,-8.0,86.0,-219.0,0
1646,-4.0,83.0,-222.0,0
1647,-5.0,81.0,-214.0,0
1648,-7.0,82.0,-223.0,0
1649,-7.0,82.0,-221.0,0
1650,-5.0,86.0,-220.0,0
1651,-8.0,84.0,-219.0,0
1652,-6.0,84.0,-222.0,0
1653,-5.0,83.0,-223.0,0
1654,-7.0,83.0,-222.0,0
1655,-8.0,85.0,-220.0,0
1656,-5.0,82.0,-221.0,0
1657,-10.0,87.0,-220.0,0
1658,-8.0,83.0,-218.0,0
1659,-6.0,85.0,-221.0,0
1660,-10.0,82.0,-223.0,0
1661,-8.0,83.0,-222.0,0
1662,-10.0,84.0,-219.0,0
1663,-6.0,86.0,-216.0,0
1664,-10.0,82.0,-219.0,0
1665,-6.0,82.0,-217.0,0
1666,-5.0,82.0,-215.0,0
1667,-11.0,85.0,-223.0,0
1668,-9.0,83.0,-217.0,0
1669,-7.0,79.0,-223.0,0
1670,-6.0,83.0,-215.0,0
1671,-8.0,79.0,-215.0,0
1672,-6.0,79.0,-211.0,0
1673,-9.0,80.0,-217.0,0
1674,-9.0,80.0,-215.0,0
1675,-6.0,81.0,-216.0,0
1676,-7.0,82.0,-214.0,0
1677,-7.0,81.0,-216.0,0
1678,-3.0,78.0,-216.0,0
1679,-10.0,82.0,-215.0,0
1680,-9.0,80.0,-211.0,0
1681,-6.0,77.0,-217.0,0
1682,-8.0,79.0,-213.0,0
1683,-5.0,78.0,-212.0,0
1684,-8.0,84.0,-215.0,0
1685,-7.0,79.0,-213.0,0
1686,-11.0,84.0,-216.0,0
1687,-8.0,82.0,-217.0,0
1688,-9.0,82.0,-212.0,0
1689,-10.0,81.0,-215.0,0
1690,-4.0,83.0,-217.0,0
1691,-7.0,81.0,-215.0,0
1692,-10.0,84.0,-218.0,0
1693,-8.0,83.0,-214.0,0
1694,-4.0,81.0,-219.0,0
1695,-6.0,86.0,-216.0,0
1696,-6.0,80.0,-215.0,0
1697,-7.0,78.0,-215.0,0
1698,-4.0,82.0,-213.0,0
1699,-8.0,80.0,-216.0,0
1700,-8.0,82.0,-214.0,0
1701,-8.0,83.0,-216.0,0
1702,-6.0,82.0,-212.0,0
1703,-11.0,81.0,-212.0,0
1704,-8.0,83.0,-210.0,0
1705,-10.0,82.0,-208.0,0
1706,-9.0,80.0,-208.0,0
1707,-7.0,77.0,-211.0,0
1708,-8.0,77.0,-212.0,0
1709,-7.0,73.0,-214.0,0
1710,-7.0,72.0,-214.0,0
1711,-7.0,66.0,-217.0,0
1712,-12.0,72.0,-218.0,0
1713,-13.0,73.0,-223.0,0
1714,-11.0,72.0,-229.0,0
1715,-11.0,74.0,-228.0,0
1716,-8.0,71.0,-230.0,0
1717,-13.0,75.0,-236.0,0
1718,-14.0,75.0,-239.0,0
1719,-14.0,74.0,-242.0,0
1720,-15.0,76.0,-244.0,0
1721,-16.0,77.0,-245.0,0
1722,-14.0,79.0,-243.0,0
1723,-12.0,74.0,-246.0,0
1724,-14.0,76.0,-247.0,0
1725,-13.0,76.0,-246.0,0
1726,-15.0,78.0,-249.0,0
1727,-12.0,76.0,-248.0,0
1728,-12.0,74.0,-253.0,0
1729,-10.0,74.0,-250.0,0
1730,-10.0,75.0,-252.0,0
1731,-7.0,74.0,-253.0,0
1732,-5.0,75.0,-253.0,0
1733,-6.0,78.0,-250.0,0
1734,-8.0,77.0,-248.0,0
1735,-3.0,76.0,-250.0,0
1736,-6.0,77.0,-248.0,0
1737,-8.0,77.0,-244.0,0
1738,-7.0,74.0,-245.0,0
1739,-8.0,74.0,-248.0,0
1740,-9.0,74.0,-244.0,0
1741,-4.0,72.0,-242.0,0
1742,-5.0,72.0,-241.0,0
1743,-4.0,71.0,-239.0,0
1744,-7.0,66.0,-237.0,0
1745,-6.0,67.0,-235.0,0
1746,-2.0,67.0,-237.0,0
1747,-6.0,65.0,-235.0,0
1748,-6.0,66.0,-235.0,0
1749,-2.0,64.0,-235.0,0
1750,-3.0,64.0,-239.0,0
1751,-7.0,67.0,-233.0,0
1752,-3.0,67.0,-234.0,0
1753,-3.0,64.0,-235.0,0
1754,-7.0,69.0,-235.0,0
1755,-9.0,69.0,-233.0,0
1756,-8.0,66.0,-231.0,0
1757,-5.0,71.0,-226.0,0
1758,-11.0,72.0,-229.0,0
1759,-7.0,70.0,-234.0,0
1760,-10.0,73.0,-229.0,0
1761,-9.0,74.0,-234.0,0
1762,-8.0,71.0,-228.0,0
1763,-10.0,72.0,-234.0,0
1764,-13.0,70.0,-232.0,0
1765,-10.0,71.0,-231.0,0
1766,-10.0,71.0,-233.0,0
1767,-10.0,70.0,-236.0,0
1768,-12.0,68.0,-235.0,0
1769,-15.0,68.0,-233.0,0
1770,-13.0,65.0,-238.0,0
1771,-13.0,68.0,-233.0,0
1772,-14.0,65.0,-236.0,0
1773,-13.0,65.0,-235.0,0
1774,-11.0,64.0,-232.0,0
1775,-12.0,63.0,-233.0,0
1776,-12.0,59.0,-231.0,0
1777,-12.0,58.0,-232.0,0
1778,-12.0,57.0,-234.0,0
1779,-12.0,53.0,-236.0,0
1780,-13.0,51.0,-233.0,0
1781,-15.0,49.0,-239.0,0
1782,-14.0,50.0,-239.0,0
1783,-14.0,44.0,-242.0,0
1784,-14.0,46.0,-238.0,0
1785,-13.0,43.0,-240.0,0
1786,-16.0,43.0,-243.0,0
1787,-14.0,45.0,-242.0,0
1788,-14.0,42.0,-242.0,0
1789,-15.0,39.0,-243.0,0
1790,-15.0,38.0,-243.0,0
1791,-15.0,33.0,-239.0,0
1792,-14.0,33.0,-243.0,0
1793,-15.0,36.0,-240.0,0
1794,-15.0,31.0,-239.0,0
1795,-15.0,31.0,-238.0,0
1796,-12.0,27.0,-241.0,0
1797,-11.0,27.0,-244.0,0
1798,-14.0,24.0,-246.0,0
1799,-16.0,22.0,-243.0,0
1800,-14.0,12.0,-242.0,0
1801,-10.0,12.0,-242.0,0
1802,-12.0,11.0,-241.0,0
1803,-12.0,10.0,-243.0,0
1804,-13.0,7.0,-243.0,0
1805,-12.0,4.0,-247.0,0
1806,-12.0,6.0,-244.0,0
1807,-8.0,3.0,-247.0,0
1808,-10.0,0.0,-244.0,0
1809,-8.0,-6.0,-245.0,0
1810,-9.0,-8.0,-245.0,0
1811,-10.0,-8.0,-239.0,0
1812,-13.0,-14.0,-237.0,0
1813,-14.0,-19.0,-237.0,0
1814,-12.0,-21.0,-234.0,0
1815,-13.0,-22.0,-235.0,0
1816,-13.0,-24.0,-236.0,0
1817,-14.0,-26.0,-239.0,0
1818,-14.0,-33.0,-242.0,0
1819,-16.0,-35.0,-246.0,0
1820,-16.0,-38.0,-244.0,0
1821,-15.0,-40.0,-237.0,0
1822,-14.0,-43.0,-237.0,0
1823,-15.0,-45.0,-237.0,0
1824,-16.0,-47.0,-234.0,0
1825,-18.0,-50.0,-234.0,0
1826,-14.0,-50.0,-231.0,0
1827,-16.0,-48.0,-235.0,0
1828,-16.0,-54.0,-233.0,0
1829,-19.0,-57.0,-234.0,0
1830,-19.0,-59.0,-237.0,0
1831,-21.0,-63.0,-238.0,0
1832,-25.0,-64.0,-234.0,0
1833,-23.0,-67.0,-234.0,0
1834,-22.0,-70.0,-238.0,0
1835,-23.0,-72.0,-239.0,0
1836,-22.0,-73.0,-239.0,0
1837,-22.0,-78.0,-239.0,0
1838,-22.0,-78.0,-235.0,0
1839,-22.0,-76.0,-245.0,0
1840,-19.0,-82.0,-245.0,0
1841,-21.0,-82.0,-240.0,0
1842,-25.0,-85.0,-241.0,0
1843,-23.0,-83.0,-237.0,0
1844,-22.0,-87.0,-235.0,0
1845,-22.0,-87.0,-229.0,0
1846,-20.0,-89.0,-234.0,0
1847,-19.0,-92.0,-233.0,0
1848,-21.0,-92.0,-230.0,0
1849,-24.0,-94.0,-227.0,0
1850,-23.0,-104.0,-229.0,0
1851,-20.0,-104.0,-227.0,0
1852,-16.0,-106.0,-222.0,0
1853,-16.0,-111.0,-221.0,0
1854,-12.0,-112.0,-220.0,0
1855,-14.0,-114.0,-220.0,0
1856,-16.0,-113.0,-221.0,0
1857,-13.0,-119.0,-214.0,0
1858,-10.0,-118.0,-212.0,0
1859,-11.0,-120.0,-214.0,0
1860,-5.0,-129.0,-209.0,0
1861,-10.0,-126.0,-211.0,0
1862,-9.0,-126.0,-215.0,0
1863,-7.0,-125.0,-209.0,0
1864,-7.0,-125.0,-208.0,0
1865,-6.0,-125.0,-208.0,0
1866,-9.0,-129.0,-201.0,0
1867,-2.0,-129.0,-199.0,0
1868,-3.0,-128.0,-195.0,0
1869,-2.0,-129.0,-193.0,0
1870,-4.0,-129.0,-192.0,0
1871,-8.0,-133.0,-190.0,0
1872,-5.0,-132.0,-189.0,0
1873,-5.0,-132.0,-181.0,0
1874,-8.0,-132.0,-185.0,0
1875,-5.0,-130.0,-181.0,0
1876,-8.0,-132.0,-183.0,0
1877,-6.0,-132.0,-186.0,0
1878,-1.0,-130.0,-185.0,0
1879,-4.0,-132.0,-183.0,0
1880,-1.0,-135.0,-182.0,0
1881,-4.0,-133.0,-180.0,0
1882,-8.0,-138.0,-177.0,0
1883,-5.0,-137.0,-175.0,0
1884,-7.0,-138.0,-169.0,0
1885,-12.0,-136.0,-166.0,0
1886,-4.0,-141.0,-171.0,0
1887,-7.0,-139.0,-164.0,0
1888,-5.0,-144.0,-162.0,0
1889,-7.0,-143.0,-160.0,0
1890,-6.0,-144.0,-158.0,0
1891,-4.0,-145.0,-159.0,0
1892,-7.0,-147.0,-157.0,0
1893,-9.0,-142.0,-161.0,0
1894,-5.0,-149.0,-163.0,0
1895,-9.0,-146.0,-164.0,0
1896,-13.0,-144.0,-165.0,0
1897,-12.0,-141.0,-165.0,0
1898,-9.0,-145.0,-161.0,0
1899,-7.0,-146.0,-161.0,0
1900,-7.0,-150.0,-159.0,0
1901,-9.0,-150.0,-160.0,0
1902,-8.0,-151.0,-162.0,0
1903,-10.0,-154.0,-157.0,0
1904,-9.0,-156.0,-163.0,0
1905,-10.0,-158.0,-165.0,0
1906,-10.0,-160.0,-162.0,0
1907,-12.0,-163.0,-162.0,0
1908,-15.0,-164.0,-165.0,0
1909,-15.0,-165.0,-162.0,0
1910,-15.0,-168.0,-165.0,0
1911,-9.0,-172.0,-165.0,0
1912,-12.0,-174.0,-164.0,0
1913,-9.0,-178.0,-162.0,0
1914,-8.0,-181.0,-154.0,0
1915,-9.0,-187.0,-156.0,0
1916,-7.0,-183.0,-156.0,0
1917,-7.0,-189.0,-148.0,0
1918,-8.0,-185.0,-151.0,0
1919,-3.0,-185.0,-148.0,0
1920,-2.0,-190.0,-150.0,0
1921,-2.0,-187.0,-152.0,0
1922,-2.0,-185.0,-152.0,0
1923,-6.0,-187.0,-154.0,0
1924,-3.0,-185.0,-156.0,0
1925,0.0,-184.0,-156.0,0
1926,0.0,-185.0,-155.0,0
1927,-1.0,-188.0,-157.0,0
1928,0.0,-190.0,-152.0,0
1929,0.0,-192.0,-154.0,0
1930,2.0,-193.0,-152.0,0
1931,2.0,-198.0,-145.0,0
1932,0.0,-199.0,-142.0,0
1933,-1.0,-196.0,-141.0,0
1934,-2.0,-197.0,-138.0,0
1935,0.0,-199.0,-137.0,0
1936,0.0,-197.0,-133.0,0
1937,0.0,-194.0,-134.0,0
1938,-2.0,-194.0,-135.0,0
1939,0.0,-191.0,-137.0,0
1940,-1.0,-191.0,-137.0,0
1941,0.0,-192.0,-144.0,0
1942,0.0,-191.0,-145.0,0
1943,-3.0,-190.0,-145.0,0
1944,0.0,-192.0,-142.0,0
1945,0.0,-192.0,-142.0,0
1946,-3.0,-194.0,-138.0,0
1947,-8.0,-193.0,-142.0,0
1948,-5.0,-190.0,-144.0,0
1949,-3.0,-190.0,-147.0,0
1950,-3.0,-188.0,-147.0,0
1951,-3.0,-192.0,-145.0,0
1952,-6.0,-188.0,-149.0,0
1953,-4.0,-192.0,-149.0,0
1954,-4.0,-191.0,-152.0,0
1955,-5.0,-193.0,-149.0,0
1956,-8.0,-194.0,-151.0,0
1957,-9.0,-195.0,-149.0,0
1958,-12.0,-197.0,-149.0,0
1959,-17.0,-195.0,-154.0,0
1960,-20.0,-200.0,-153.0,0
1961,-20.0,-204.0,-148.0,0
1962,-19.0,-205.0,-148.0,0
1963,-17.0,-212.0,-145.0,0
1964,-23.0,-210.0,-141.0,0
1965,-24.0,-214.0,-139.0,0
1966,-20.0,-221.0,-135.0,0
1967,-21.0,-224.0,-134.0,0
1968,-22.0,-222.0,-131.0,0
1969,-19.0,-227.0,-130.0,0
1970,-14.0,-230.0,-128.0,0
1971,-17.0,-224.0,-129.0,0
1972,-13.0,-228.0,-129.0,0
1973,-13.0,-228.0,-129.0,0
1974,-10.0,-225.0,-133.0,0
1975,-10.0,-224.0,-130.0,0
1976,-11.0,-223.0,-129.0,0
1977,-11.0,-217.0,-130.0,0
1978,-13.0,-217.0,-127.0,0
1979,1.0,-227.0,-124.0,0
1980,-8.0,-212.0,-140.0,0
1981,-7.0,-211.0,-140.0,0
1982,-10.0,-215.0,-128.0,0
1983,-9.0,-200.0,-133.0,0
1984,-4.0,-204.0,-128.0,0
1985,-4.0,-221.0,-143.0,0
1986,-7.0,-201.0,-135.0,0
1987,-4.0,-206.0,-139.0,0
1988,5.0,-200.0,-130.0,0
1989,-5.0,-208.0,-137.0,0
1990,-6.0,-212.0,-135.0,0
1991,-4.0,-211.0,-132.0,0
1992,0.0,-212.0,-135.0,0
1993,-5.0,-205.0,-128.0,0
1994,-3.0,-216.0,-132.0,0
1995,0.0,-215.0,-134.0,0
1996,-2.0,-216.0,-134.0,0
1997,-3.0,-213.0,-129.0,0
1998,-2.0,-210.0,-131.0,0
1999,-3.0,-214.0,-132.0,0
2000,-9.0,-212.0,-129.0,0
2001,-6.0,-215.0,-136.0,0
2002,-3.0,-217.0,-129.0,0
2003,-7.0,-216.0,-131.0,0
2004,-3.0,-217.0,-134.0,0
2005,-6.0,-216.0,-130.0,0
2006,-5.0,-221.0,-131.0,0
2007,-6.0,-222.0,-132.0,0
2008,-3.0,-219.0,-128.0,0
2009,-4.0,-222.0,-130.0,0
2010,-3.0,-222.0,-129.0,0
2011,-4.0,-218.0,-128.0,0
2012,-6.0,-218.0,-127.0,0
2013,-6.0,-218.0,-127.0,0
2014,-2.0,-216.0,-123.0,0
2015,-1.0,-216.0,-127.0,0
2016,-1.0,-213.0,-124.0,0
2017,-2.0,-213.0,-129.0,0
2018,-3.0,-212.0,-126.0,0
2019,-3.0,-211.0,-128.0,0
2020,-2.0,-212.0,-127.0,0
2021,-2.0,-215.0,-126.0,0
2022,0.0,-214.0,-129.0,0
2023,0.0,-218.0,-130.0,0
2024,-2.0,-218.0,-127.0,0
2025,-4.0,-217.0,-130.0,0
2026,-4.0,-221.0,-133.0,0
2027,-1.0,-221.0,-128.0,0
2028,-2.0,-217.0,-127.0,0
2029,-4.0,-220.0,-131.0,0
2030,-2.0,-219.0,-127.0,0
2031,-2.0,-223.0,-128.0,0
2032,-3.0,-219.0,-127.0,0
2033,-1.0,-217.0,-126.0,0
2034,-4.0,-219.0,-128.0,0
2035,-6.0,-218.0,-127.0,0
2036,-7.0,-220.0,-129.0,0
2037,-7.0,-222.0,-127.0,0
2038,-5.0,-221.0,-129.0,0
2039,-4.0,-223.0,-129.0,0
2040,-5.0,-222.0,-127.0,0
2041,-6.0,-223.0,-129.0,0
2042,-7.0,-225.0,-127.0,0
2043,-7.0,-219.0,-128.0,0
2044,-5.0,-223.0,-128.0,0
2045,-7.0,-219.0,-125.0,0
2046,-7.0,-220.0,-126.0,0
2047,-7.0,-221.0,-129.0,0
2048,-1.0,-220.0,-130.0,0
2049,-6.0,-218.0,-129.0,0
2050,-8.0,-223.0,-128.0,0
2051,-5.0,-221.0,-133.0,0
2052,-6.0,-222.0,-126.0,0
2053,-5.0,-220.0,-128.0,0
2054,-5.0,-223.0,-128.0,0
2055,-6.0,-218.0,-128.0,0
2056,-7.0,-221.0,-129.0,0
2057,-5.0,-222.0,-128.0,0
2058,-5.0,-221.0,-128.0,0
2059,-4.0,-221.0,-128.0,0
2060,-4.0,-224.0,-127.0,0
2061,-7.0,-222.0,-126.0,0
2062,-4.0,-221.0,-127.0,0
2063,-5.0,-219.0,-128.0,0
2064,-5.0,-222.0,-127.0,0
2065,-5.0,-222.0,-127.0,0
2066,-8.0,-220.0,-128.0,0
2067,-10.0,-221.0,-129.0,0
2068,-6.0,-222.0,-126.0,0
2069,-2.0,-225.0,-127.0,0
2070,-6.0,-221.0,-128.0,0
2071,-6.0,-223.0,-127.0,0
2072,-9.0,-222.0,-128.0,0
2073,-5.0,-220.0,-125.0,0
2074,-8.0,-217.0,-125.0,0
2075,-10.0,-221.0,-123.0,0
2076,-10.0,-217.0,-124.0,0
2077,-7.0,-217.0,-127.0,0
2078,-7.0,-216.0,-125.0,0
2079,-8.0,-219.0,-129.0,0
2080,-9.0,-219.0,-126.0,0
2081,-9.0,-219.0,-126.0,0
2082,-7.0,-219.0,-124.0,0
2083,-7.0,-220.0,-126.0,0
2084,-9.0,-222.0,-124.0,0
2085,-4.0,-219.0,-127.0,0
2086,-10.0,-220.0,-125.0,0
2087,-11.0,-221.0,-122.0,0
2088,-9.0,-219.0,-123.0,0
2089,-5.0,-219.0,-122.0,0
2090,-8.0,-222.0,-127.0,0
2091,-7.0,-222.0,-120.0,0
2092,-12.0,-218.0,-126.0,0
2093,-10.0,-222.0,-127.0,0
2094,-9.0,-223.0,-125.0,0
2095,-9.0,-221.0,-123.0,0
2096,-9.0,-223.0,-127.0,0
2097,-9.0,-223.0,-128.0,0
2098,-6.0,-222.0,-127.0,0
2099,-5.0,-222.0,-124.0,0
2100,-9.0,-219.0,-124.0,0
2101,-7.0,-224.0,-124.0,0
2102,-6.0,-223.0,-125.0,0
2103,-5.0,-220.0,-123.0,0
2104,-6.0,-221.0,-125.0,0
2105,-7.0,-217.0,-124.0,0
2106,-6.0,-219.0,-121.0,0
2107,-8.0,-220.0,-123.0,0
2108,-6.0,-219.0,-122.0,0
2109,-6.0,-221.0,-123.0,0
2110,-5.0,-221.0,-124.0,0
2111,-6.0,-218.0,-122.0,0
2112,-6.0,-217.0,-123.0,0
2113,-8.0,-219.0,-123.0,0
2114,-6.0,-225.0,-124.0,0
2115,-2.0,-224.0,-125.0,0
2116,-2.0,-224.0,-128.0,0
2117,-5.0,-223.0,-123.0,0
2118,-2.0,-222.0,-123.0,0
2119,-8.0,-223.0,-124.0,0
2120,-8.0,-224.0,-123.0,0
2121,-4.0,-227.0,-127.0,0
2122,-4.0,-226.0,-126.0,0
2123,-4.0,-224.0,-123.0,0
2124,-7.0,-224.0,-125.0,0
2125,-7.0,-225.0,-127.0,0
2126,-8.0,-221.0,-125.0,0
2127,-4.0,-223.0,-124.0,0
2128,-5.0,-225.0,-126.0,0
2129,-4.0,-220.0,-126.0,0
2130,-5.0,-222.0,-120.0,0
2131,-8.0,-223.0,-123.0,0
2132,-3.0,-220.0,-126.0,0
2133,-5.0,-220.0,-125.0,0
2134,-2.0,-219.0,-122.0,0
2135,-4.0,-219.0,-122.0,0
2136,-6.0,-220.0,-126.0,0
2137,-3.0,-218.0,-124.0,0
2138,-5.0,-219.0,-124.0,0
2139,-7.0,-217.0,-121.0,0
2140,-1.0,-221.0,-128.0,0
2141,-7.0,-217.0,-125.0,0
2142,-2.0,-221.0,-123.0,0
2143,-2.0,-222.0,-121.0,0
2144,-1.0,-221.0,-126.0,0
2145,-1.0,-223.0,-124.0,0
2146,0.0,-222.0,-126.0,0
2147,-2.0,-221.0,-124.0,0
2148,-3.0,-223.0,-123.0,0
2149,-4.0,-226.0,-126.0,0
2150,-3.0,-221.0,-126.0,0
2151,-4.0,-223.0,-125.0,0
2152,-1.0,-223.0,-124.0,0
2153,-4.0,-220.0,-125.0,0
2154,-6.0,-223.0,-125.0,0
2155,-2.0,-223.0,-126.0,0
2156,-2.0,-220.0,-126.0,0
2157,-1.0,-221.0,-126.0,0
2158,-4.0,-220.0,-125.0,0
2159,-5.0,-222.0,-126.0,0
2160,-2.0,-224.0,-123.0,0
2161,-2.0,-222.0,-124.0,0
2162,0.0,-224.0,-126.0,0
2163,-2.0,-222.0,-123.0,0
2164,-2.0,-223.0,-122.0,0
2165,-3.0,-223.0,-124.0,0
2166,-3.0,-223.0,-124.0,0
2167,-1.0,-225.0,-127.0,0
2168,-3.0,-223.0,-124.0,0
2169,-2.0,-223.0,-125.0,0
2170,-5.0,-222.0,-126.0,0
2171,-1.0,-222.0,-124.0,0
2172,-4.0,-222.0,-123.0,0
2173,-3.0,-221.0,-126.0,0
2174,-4.0,-220.0,-125.0,0
2175,-3.0,-223.0,-125.0,0
2176,-1.0,-222.0,-127.0,0
2177,-1.0,-223.0,-126.0,0
2178,-5.0,-219.0,-124.0,0
2179,-2.0,-221.0,-122.0,0
2180,-1.0,-220.0,-126.0,0
2181,0.0,-221.0,-123.0,0
2182,-1.0,-217.0,-123.0,0
2183,-2.0,-218.0,-128.0,0
2184,1.0,-220.0,-124.0,0
2185,-1.0,-219.0,-127.0,0
2186,-4.0,-219.0,-129.0,0
2187,-5.0,-218.0,-130.0,0
2188,-2.0,-219.0,-126.0,0
2189,-4.0,-223.0,-128.0,0
2190,0.0,-220.0,-129.0,0
2191,0.0,-221.0,-128.0,0
2192,-3.0,-222.0,-129.0,0
2193,-1.0,-224.0,-127.0,0
2194,0.0,-222.0,-128.0,0
2195,-3.0,-224.0,-128.0,0
2196,-2.0,-222.0,-129.0,0
2197,-2.0,-222.0,-125.0,0
2198,-3.0,-224.0,-127.0,0
2199,-1.0,-223.0,-126.0,0
2200,-5.0,-224.0,-123.0,0
2201,-2.0,-220.0,-129.0,0
2202,-1.0,-221.0,-128.0,0
2203,0.0,-220.0,-125.0,0
2204,-3.0,-219.0,-126.0,0
2205,-3.0,-219.0,-126.0,0
2206,-2.0,-218.0,-126.0,0
2207,0.0,-223.0,-126.0,0
2208,-5.0,-220.0,-130.0,0
2209,0.0,-220.0,-127.0,0
2210,-4.0,-219.0,-127.0,0
2211,-1.0,-217.0,-126.0,0
2212,-3.0,-220.0,-126.0,0
2213,-3.0,-220.0,-126.0,0
2214,-3.0,-218.0,-126.0,0
2215,-2.0,-220.0,-125.0,0
2216,-4.0,-219.0,-125.0,0
2217,-2.0,-221.0,-131.0,0
2218,-5.0,-221.0,-126.0,0
2219,-4.0,-221.0,-125.0,0
2220,-6.0,-220.0,-127.0,0
2221,-3.0,-222.0,-125.0,0
2222,-4.0,-224.0,-125.0,0
2223,-4.0,-221.0,-127.0,0
2224,-4.0,-221.0,-128.0,0
2225,-5.0,-221.0,-125.0,0
2226,-4.0,-222.0,-128.0,0
2227,-4.0,-221.0,-125.0,0
2228,-7.0,-223.0,-129.0,0
2229,-3.0,-219.0,-124.0,0
2230,-7.0,-219.0,-125.0,0
2231,-2.0,-222.0,-131.0,0
2232,-6.0,-218.0,-130.0,0
2233,-1.0,-222.0,-134.0,0
2234,-6.0,-219.0,-127.0,0
2235,-4.0,-222.0,-127.0,0
2236,-2.0,-223.0,-130.0,0
2237,-2.0,-220.0,-130.0,0
2238,-2.0,-221.0,-128.0,0
2239,-4.0,-220.0,-127.0,0
2240,-4.0,-221.0,-126.0,0
2241,-3.0,-220.0,-127.0,0
2242,-3.0,-220.0,-128.0,0
2243,-1.0,-221.0,-127.0,0
2244,-3.0,-222.0,-128.0,0
2245,-4.0,-221.0,-127.0,0
2246,1.0,-223.0,-126.0,0
2247,-2.0,-219.0,-128.0,0
2248,-3.0,-220.0,-124.0,0
2249,-5.0,-219.0,-127.0,0
2250,-2.0,-220.0,-125.0,0
2251,-1.0,-219.0,-129.0,0
2252,-4.0,-219.0,-130.0,0
2253,-5.0,-219.0,-128.0,0
2254,-2.0,-221.0,-127.0,0
2255,-1.0,-221.0,-129.0,0
2256,-4.0,-218.0,-127.0,0
2257,-2.0,-220.0,-125.0,0
2258,-6.0,-218.0,-128.0,0
2259,-4.0,-220.0,-127.0,0
2260,-2.0,-220.0,-126.0,0
2261,-3.0,-218.0,-130.0,0
2262,0.0,-220.0,-128.0,0
2263,-5.0,-218.0,-127.0,0
2264,-1.0,-222.0,-127.0,0
2265,-5.0,-221.0,-125.0,0
2266,-2.0,-222.0,-123.0,0
2267,-3.0,-220.0,-127.0,0
2268,-1.0,-223.0,-129.0,0
2269,-6.0,-218.0,-128.0,0
2270,-3.0,-220.0,-127.0,0
2271,-4.0,-220.0,-128.0,0
2272,-2.0,-223.0,-130.0,0
2273,-2.0,-221.0,-126.0,0
2274,0.0,-221.0,-127.0,0
2275,-4.0,-222.0,-129.0,0
2276,-1.0,-218.0,-128.0,0
2277,-1.0,-219.0,-127.0,0
2278,-3.0,-220.0,-126.0,0
2279,-3.0,-219.0,-128.0,0
2280,-1.0,-224.0,-127.0,0
2281,-1.0,-223.0,-124.0,0
2282,-2.0,-222.0,-127.0,0
2283,-2.0,-223.0,-128.0,0
2284,-2.0,-222.0,-125.0,0
2285,-1.0,-222.0,-128.0,0
2286,-5.0,-220.0,-128.0,0
2287,-2.0,-221.0,-127.0,0
2288,-4.0,-220.0,-127.0,0
2289,-2.0,-222.0,-127.0,0
2290,-3.0,-222.0,-126.0,0
2291,0.0,-220.0,-127.0,0
2292,-2.0,-219.0,-124.0,0
2293,-3.0,-218.0,-126.0,0
2294,-1.0,-220.0,-126.0,0
2295,-2.0,-217.0,-128.0,0
2296,-3.0,-219.0,-128.0,0
2297,-3.0,-218.0,-123.0,0
2298,-3.0,-219.0,-126.0,0
2299,-2.0,-219.0,-126.0,0
2300,-3.0,-219.0,-129.0,0
2301,-3.0,-218.0,-123.0,0
2302,-5.0,-218.0,-125.0,0
2303,-3.0,-219.0,-126.0,0
2304,-3.0,-219.0,-127.0,0
2305,-2.0,-221.0,-123.0,0
2306,-5.0,-218.0,-126.0,0
2307,-3.0,-217.0,-127.0,0
2308,-2.0,-221.0,-124.0,0
2309,-6.0,-220.0,-128.0,0
2310,0.0,-221.0,-125.0,0
2311,-2.0,-219.0,-121.0,0
2312,-4.0,-220.0,-128.0,0
2313,-5.0,-217.0,-129.0,0
2314,-5.0,-220.0,-126.0,0
2315,-2.0,-219.0,-125.0,0
2316,-1.0,-221.0,-127.0,0
2317,-3.0,-218.0,-126.0,0
2318,-1.0,-217.0,-127.0,0
2319,-3.0,-219.0,-127.0,0
2320,-3.0,-216.0,-127.0,0
2321,-2.0,-220.0,-127.0,0
2322,-1.0,-219.0,-129.0,0
2323,0.0,-217.0,-127.0,0
2324,0.0,-220.0,-127.0,0
2325,-1.0,-217.0,-127.0,0
2326,0.0,-219.0,-127.0,0
2327,-3.0,-219.0,-127.0,0
2328,0.0,-220.0,-130.0,0
2329,-3.0,-216.0,-125.0,0
2330,1.0,-218.0,-125.0,0
2331,-4.0,-220.0,-125.0,0
2332,0.0,-219.0,-125.0,0
2333,-3.0,-218.0,-125.0,0
2334,-1.0,-219.0,-128.0,0
2335,-4.0,-220.0,-128.0,0
2336,-3.0,-217.0,-125.0,0
2337,-2.0,-220.0,-128.0,0
2338,-1.0,-218.0,-128.0,0
2339,-3.0,-218.0,-128.0,0
2340,-1.0,-219.0,-127.0,0
2341,-5.0,-218.0,-126.0,0
2342,-4.0,-221.0,-127.0,0
2343,-3.0,-219.0,-127.0,0
2344,-1.0,-222.0,-124.0,0
2345,-2.0,-220.0,-131.0,0
2346,-2.0,-219.0,-123.0,0
2347,-5.0,-217.0,-127.0,0
2348,-2.0,-221.0,-125.0,0
2349,-2.0,-220.0,-127.0,0
2350,-2.0,-219.0,-127.0,0
2351,-7.0,-219.0,-127.0,0
2352,-2.0,-219.0,-127.0,0
2353,-5.0,-216.0,-128.0,0
2354,-4.0,-218.0,-125.0,0
2355,-3.0,-217.0,-128.0,0
2356,-2.0,-219.0,-127.0,0
2357,-5.0,-216.0,-125.0,0
2358,0.0,-219.0,-126.0,0
2359,-3.0,-221.0,-126.0,0
2360,-2.0,-219.0,-126.0,0
2361,-4.0,-219.0,-127.0,0
2362,-2.0,-221.0,-129.0,0
2363,-9.0,-216.0,-128.0,0
2364,0.0,-225.0,-128.0,0
2365,-2.0,-223.0,-129.0,0
2366,0.0,-224.0,-126.0,0
2367,-2.0,-226.0,-130.0,0
2368,-2.0,-219.0,-126.0,0
2369,-5.0,-221.0,-129.0,0
2370,0.0,-223.0,-130.0,0
2371,0.0,-221.0,-124.0,0
2372,-4.0,-222.0,-129.0,0
2373,-2.0,-224.0,-128.0,0
2374,-3.0,-218.0,-126.0,0
2375,-3.0,-219.0,-125.0,0
2376,-3.0,-218.0,-123.0,0
2377,-2.0,-219.0,-127.0,0
2378,-3.0,-220.0,-128.0,0
2379,-4.0,-219.0,-128.0,0
2380,-1.0,-219.0,-128.0,0
2381,-2.0,-219.0,-130.0,0
2382,-3.0,-222.0,-129.0,0
2383,-5.0,-220.0,-130.0,0
2384,-7.0,-219.0,-127.0,0
2385,-4.0,-219.0,-129.0,0
2386,-5.0,-220.0,-127.0,0
2387,-5.0,-217.0,-127.0,0
2388,-2.0,-219.0,-128.0,0
2389,-4.0,-219.0,-130.0,0
2390,-5.0,-220.0,-129.0,0
2391,-1.0,-220.0,-129.0,0
2392,-2.0,-218.0,-129.0,0
2393,-2.0,-217.0,-127.0,0
2394,-5.0,-216.0,-133.0,0
2395,-2.0,-230.0,-132.0,0
2396,-6.0,-217.0,-116.0,0
2397,2.0,-215.0,-128.0,0
2398,-4.0,-223.0,-127.0,0
2399,-1.0,-218.0,-133.0,0
