,accelerometer_x,accelerometer_y,accelerometer_z,fall
0,25.0,-138.0,177.0,0
1,27.0,-134.0,173.0,0
2,24.0,-135.0,175.0,0
3,27.0,-137.0,176.0,0
4,24.0,-138.0,172.0,0
5,26.0,-137.0,172.0,0
6,25.0,-137.0,171.0,0
7,26.0,-138.0,174.0,0
8,23.0,-139.0,172.0,0
9,25.0,-138.0,170.0,0
10,26.0,-140.0,172.0,0
11,26.0,-144.0,175.0,0
12,26.0,-140.0,176.0,0
13,25.0,-140.0,176.0,0
14,24.0,-140.0,173.0,0
15,25.0,-138.0,175.0,0
16,25.0,-137.0,173.0,0
17,24.0,-137.0,175.0,0
18,25.0,-134.0,173.0,0
19,27.0,-140.0,175.0,0
20,26.0,-136.0,171.0,0
21,25.0,-137.0,168.0,0
22,25.0,-137.0,173.0,0
23,25.0,-139.0,171.0,0
24,24.0,-138.0,172.0,0
25,26.0,-138.0,176.0,0
26,24.0,-138.0,172.0,0
27,25.0,-138.0,174.0,0
28,28.0,-137.0,172.0,0
29,25.0,-137.0,172.0,0
30,27.0,-138.0,172.0,0
31,25.0,-136.0,174.0,0
32,25.0,-139.0,170.0,0
33,26.0,-137.0,172.0,0
34,26.0,-140.0,171.0,0
35,24.0,-139.0,173.0,0
36,23.0,-139.0,170.0,0
37,26.0,-140.0,175.0,0
38,25.0,-138.0,169.0,0
39,25.0,-138.0,173.0,0
40,25.0,-140.0,174.0,0
41,23.0,-138.0,173.0,0
42,27.0,-140.0,173.0,0
43,29.0,-139.0,173.0,0
44,27.0,-138.0,173.0,0
45,24.0,-139.0,176.0,0
46,26.0,-139.0,173.0,0
47,27.0,-140.0,172.0,0
48,25.0,-136.0,173.0,0
49,27.0,-140.0,174.0,0
50,25.0,-141.0,174.0,0
51,23.0,-136.0,170.0,0
52,25.0,-136.0,169.0,0
53,27.0,-138.0,169.0,0
54,24.0,-137.0,171.0,0
55,26.0,-137.0,171.0,0
56,24.0,-139.0,172.0,0
57,25.0,-140.0,171.0,0
58,26.0,-137.0,173.0,0
59,28.0,-138.0,169.0,0
60,27.0,-141.0,173.0,0
61,25.0,-139.0,172.0,0
62,27.0,-140.0,168.0,0
63,24.0,-141.0,171.0,0
64,26.0,-142.0,170.0,0
65,26.0,-138.0,173.0,0
66,26.0,-142.0,174.0,0
67,25.0,-139.0,171.0,0
68,27.0,-137.0,173.0,0
69,26.0,-140.0,173.0,0
70,25.0,-138.0,173.0,0
71,24.0,-141.0,167.0,0
72,24.0,-137.0,169.0,0
73,24.0,-137.0,171.0,0
74,27.0,-140.0,170.0,0
75,27.0,-142.0,172.0,0
76,24.0,-139.0,175.0,0
77,24.0,-139.0,169.0,0
78,27.0,-139.0,175.0,0
79,26.0,-140.0,175.0,0
80,25.0,-140.0,168.0,0
81,24.0,-139.0,174.0,0
82,27.0,-140.0,175.0,0
83,26.0,-139.0,173.0,0
84,25.0,-140.0,174.0,0
85,26.0,-136.0,173.0,0
86,26.0,-136.0,175.0,0
87,25.0,-138.0,175.0,0
88,23.0,-137.0,172.0,0
89,26.0,-139.0,174.0,0
90,29.0,-140.0,176.0,0
91,19.0,-146.0,184.0,0
92,27.0,-142.0,169.0,0
93,25.0,-141.0,168.0,0
94,21.0,-138.0,171.0,0
95,23.0,-137.0,174.0,0
96,26.0,-139.0,173.0,0
97,23.0,-140.0,169.0,0
98,23.0,-137.0,172.0,0
99,23.0,-139.0,174.0,0
100,23.0,-140.0,175.0,0
101,25.0,-138.0,174.0,0
102,19.0,-132.0,156.0,0
103,26.0,-138.0,173.0,0
104,26.0,-139.0,170.0,0
105,24.0,-140.0,171.0,0
106,26.0,-140.0,171.0,0
107,28.0,-140.0,172.0,0
108,26.0,-143.0,171.0,0
109,24.0,-139.0,172.0,0
110,21.0,-140.0,169.0,0
111,23.0,-141.0,172.0,0
112,24.0,-138.0,171.0,0
113,27.0,-140.0,176.0,0
114,24.0,-139.0,171.0,0
115,23.0,-135.0,172.0,0
116,26.0,-142.0,171.0,0
117,22.0,-141.0,166.0,0
118,23.0,-139.0,172.0,0
119,24.0,-137.0,174.0,0
120,25.0,-141.0,172.0,0
121,23.0,-140.0,172.0,0
122,25.0,-139.0,171.0,0
123,24.0,-138.0,172.0,0
124,25.0,-142.0,171.0,0
125,25.0,-143.0,172.0,0
126,26.0,-143.0,169.0,0
127,24.0,-140.0,174.0,0
128,26.0,-141.0,172.0,0
129,28.0,-140.0,175.0,0
130,26.0,-143.0,171.0,0
131,23.0,-139.0,173.0,0
132,27.0,-141.0,172.0,0
133,24.0,-141.0,173.0,0
134,27.0,-143.0,172.0,0
135,25.0,-142.0,171.0,0
136,25.0,-140.0,170.0,0
137,25.0,-142.0,176.0,0
138,26.0,-142.0,170.0,0
139,23.0,-141.0,165.0,0
140,26.0,-140.0,172.0,0
141,25.0,-140.0,168.0,0
142,26.0,-138.0,174.0,0
143,24.0,-139.0,171.0,0
144,25.0,-141.0,173.0,0
145,23.0,-139.0,174.0,0
146,25.0,-141.0,169.0,0
147,24.0,-141.0,171.0,0
148,21.0,-142.0,169.0,0
149,25.0,-140.0,169.0,0
150,26.0,-139.0,169.0,0
151,24.0,-139.0,173.0,0
152,24.0,-140.0,168.0,0
153,27.0,-141.0,169.0,0
154,24.0,-141.0,170.0,0
155,24.0,-141.0,172.0,0
156,25.0,-142.0,170.0,0
157,24.0,-143.0,170.0,0
158,23.0,-139.0,170.0,0
159,28.0,-142.0,174.0,0
160,25.0,-142.0,173.0,0
161,25.0,-139.0,173.0,0
162,27.0,-142.0,176.0,0
163,24.0,-140.0,170.0,0
164,35.0,-141.0,170.0,0
165,22.0,-141.0,175.0,0
166,26.0,-142.0,170.0,0
167,26.0,-143.0,172.0,0
168,24.0,-142.0,170.0,0
169,25.0,-143.0,172.0,0
170,26.0,-141.0,173.0,0
171,28.0,-144.0,171.0,0
172,24.0,-140.0,169.0,0
173,26.0,-143.0,171.0,0
174,23.0,-139.0,170.0,0
175,25.0,-139.0,170.0,0
176,24.0,-141.0,171.0,0
177,25.0,-141.0,168.0,0
178,24.0,-143.0,168.0,0
179,26.0,-144.0,166.0,0
180,25.0,-143.0,169.0,0
181,25.0,-142.0,172.0,0
182,21.0,-143.0,172.0,0
183,24.0,-142.0,172.0,0
184,25.0,-141.0,172.0,0
185,23.0,-142.0,173.0,0
186,25.0,-142.0,172.0,0
187,25.0,-143.0,174.0,0
188,25.0,-140.0,174.0,0
189,24.0,-140.0,172.0,0
190,23.0,-140.0,173.0,0
191,23.0,-139.0,174.0,0
192,25.0,-142.0,170.0,0
193,28.0,-144.0,170.0,0
194,23.0,-141.0,173.0,0
195,26.0,-145.0,168.0,0
196,26.0,-143.0,169.0,0
197,25.0,-142.0,172.0,0
198,28.0,-143.0,171.0,0
199,25.0,-142.0,173.0,0
200,28.0,-142.0,169.0,0
201,24.0,-140.0,171.0,0
202,24.0,-141.0,169.0,0
203,25.0,-141.0,173.0,0
204,27.0,-141.0,172.0,0
205,23.0,-141.0,169.0,0
206,26.0,-144.0,168.0,0
207,28.0,-142.0,171.0,0
208,26.0,-140.0,173.0,0
209,24.0,-139.0,175.0,0
210,25.0,-142.0,173.0,0
211,24.0,-139.0,170.0,0
212,24.0,-138.0,173.0,0
213,26.0,-140.0,174.0,0
214,25.0,-142.0,170.0,0
215,22.0,-142.0,170.0,0
216,27.0,-141.0,169.0,0
217,21.0,-139.0,173.0,0
218,24.0,-143.0,172.0,0
219,24.0,-142.0,173.0,0
220,25.0,-141.0,172.0,0
221,18.0,-144.0,168.0,0
222,24.0,-138.0,169.0,0
223,25.0,-140.0,171.0,0
224,23.0,-139.0,168.0,0
225,26.0,-141.0,174.0,0
226,25.0,-139.0,176.0,0
227,19.0,-139.0,172.0,0
228,28.0,-140.0,173.0,0
229,25.0,-136.0,173.0,0
230,27.0,-141.0,170.0,0
231,24.0,-143.0,172.0,0
232,24.0,-134.0,164.0,0
233,26.0,-141.0,171.0,0
234,24.0,-139.0,170.0,0
235,25.0,-138.0,173.0,0
236,26.0,-143.0,171.0,0
237,25.0,-138.0,171.0,0
238,24.0,-138.0,173.0,0
239,24.0,-143.0,169.0,0
240,21.0,-141.0,170.0,0
241,26.0,-141.0,173.0,0
242,22.0,-140.0,172.0,0
243,26.0,-140.0,170.0,0
244,24.0,-141.0,172.0,0
245,24.0,-138.0,170.0,0
246,26.0,-141.0,173.0,0
247,24.0,-138.0,172.0,0
248,26.0,-142.0,171.0,0
249,22.0,-140.0,173.0,0
250,23.0,-137.0,172.0,0
251,23.0,-141.0,174.0,0
252,25.0,-142.0,175.0,0
253,25.0,-142.0,171.0,0
254,25.0,-139.0,175.0,0
255,28.0,-139.0,172.0,0
256,25.0,-141.0,168.0,0
257,26.0,-138.0,169.0,0
258,24.0,-137.0,173.0,0
259,22.0,-140.0,172.0,0
260,24.0,-140.0,171.0,0
261,28.0,-142.0,170.0,0
262,27.0,-138.0,171.0,0
263,26.0,-143.0,174.0,0
264,26.0,-139.0,173.0,0
265,25.0,-141.0,171.0,0
266,24.0,-138.0,172.0,0
267,26.0,-138.0,172.0,0
268,26.0,-141.0,174.0,0
269,25.0,-139.0,167.0,0
270,26.0,-143.0,173.0,0
271,25.0,-139.0,170.0,0
272,25.0,-138.0,173.0,0
273,26.0,-141.0,173.0,0
274,23.0,-138.0,173.0,0
275,23.0,-141.0,172.0,0
276,24.0,-139.0,170.0,0
277,28.0,-137.0,172.0,0
278,26.0,-138.0,168.0,0
279,23.0,-140.0,170.0,0
280,26.0,-139.0,172.0,0
281,26.0,-139.0,170.0,0
282,27.0,-141.0,171.0,0
283,25.0,-137.0,170.0,0
284,27.0,-142.0,174.0,0
285,29.0,-138.0,169.0,0
286,25.0,-136.0,171.0,0
287,26.0,-138.0,169.0,0
288,28.0,-140.0,171.0,0
289,24.0,-137.0,169.0,0
290,29.0,-141.0,177.0,0
291,27.0,-140.0,173.0,0
292,27.0,-139.0,172.0,0
293,28.0,-140.0,172.0,0
294,25.0,-140.0,173.0,0
295,25.0,-139.0,171.0,0
296,26.0,-138.0,172.0,0
297,26.0,-137.0,172.0,0
298,25.0,-140.0,173.0,0
299,27.0,-137.0,168.0,0
300,25.0,-137.0,175.0,0
301,23.0,-138.0,169.0,0
302,28.0,-140.0,174.0,0
303,28.0,-139.0,173.0,0
304,24.0,-140.0,177.0,0
305,25.0,-141.0,173.0,0
306,26.0,-141.0,176.0,0
307,27.0,-139.0,173.0,0
308,27.0,-140.0,182.0,0
309,26.0,-140.0,168.0,0
310,26.0,-135.0,173.0,0
311,26.0,-134.0,172.0,0
312,25.0,-139.0,171.0,0
313,27.0,-140.0,170.0,0
314,23.0,-135.0,174.0,0
315,26.0,-138.0,172.0,0
316,27.0,-136.0,172.0,0
317,28.0,-138.0,169.0,0
318,27.0,-140.0,170.0,0
319,24.0,-140.0,173.0,0
320,22.0,-139.0,175.0,0
321,25.0,-138.0,171.0,0
322,27.0,-141.0,172.0,0
323,29.0,-141.0,170.0,0
324,25.0,-138.0,171.0,0
325,26.0,-142.0,170.0,0
326,28.0,-140.0,170.0,0
327,27.0,-141.0,169.0,0
328,26.0,-138.0,172.0,0
329,26.0,-137.0,174.0,0
330,26.0,-140.0,175.0,0
331,26.0,-138.0,170.0,0
332,27.0,-138.0,171.0,0
333,28.0,-141.0,176.0,0
334,25.0,-137.0,173.0,0
335,25.0,-141.0,172.0,0
336,26.0,-139.0,176.0,0
337,25.0,-138.0,173.0,0
338,27.0,-139.0,173.0,0
339,25.0,-136.0,172.0,0
340,29.0,-138.0,175.0,0
341,27.0,-138.0,173.0,0
342,26.0,-141.0,172.0,0
343,28.0,-138.0,176.0,0
344,25.0,-141.0,172.0,0
345,27.0,-139.0,174.0,0
346,26.0,-140.0,171.0,0
347,25.0,-138.0,174.0,0
348,29.0,-143.0,173.0,0
349,26.0,-141.0,174.0,0
350,29.0,-138.0,173.0,0
351,28.0,-139.0,174.0,0
352,35.0,-152.0,178.0,0
353,25.0,-137.0,172.0,0
354,30.0,-138.0,172.0,0
355,27.0,-139.0,175.0,0
356,25.0,-140.0,173.0,0
357,25.0,-140.0,170.0,0
358,27.0,-137.0,173.0,0
359,25.0,-136.0,171.0,0
360,27.0,-137.0,176.0,0
361,28.0,-136.0,174.0,0
362,27.0,-138.0,171.0,0
363,33.0,-124.0,188.0,0
364,25.0,-135.0,170.0,0
365,26.0,-138.0,174.0,0
366,27.0,-139.0,172.0,0
367,25.0,-136.0,176.0,0
368,29.0,-141.0,173.0,0
369,26.0,-136.0,176.0,0
370,28.0,-136.0,174.0,0
371,28.0,-138.0,177.0,0
372,26.0,-138.0,172.0,0
373,24.0,-136.0,173.0,0
374,26.0,-137.0,173.0,0
375,24.0,-136.0,175.0,0
376,24.0,-138.0,173.0,0
377,25.0,-135.0,173.0,0
378,25.0,-134.0,170.0,0
379,25.0,-138.0,171.0,0
380,26.0,-137.0,173.0,0
381,22.0,-136.0,173.0,0
382,26.0,-136.0,171.0,0
383,28.0,-141.0,173.0,0
384,27.0,-140.0,172.0,0
385,23.0,-136.0,172.0,0
386,29.0,-136.0,172.0,0
387,27.0,-139.0,176.0,0
388,25.0,-137.0,175.0,0
389,29.0,-140.0,172.0,0
390,29.0,-136.0,174.0,0
391,25.0,-136.0,173.0,0
392,25.0,-137.0,171.0,0
393,24.0,-136.0,172.0,0
394,24.0,-137.0,174.0,0
395,29.0,-137.0,172.0,0
396,27.0,-137.0,171.0,0
397,25.0,-136.0,177.0,0
398,25.0,-135.0,172.0,0
399,23.0,-138.0,173.0,0
400,24.0,-137.0,177.0,0
401,25.0,-136.0,174.0,0
402,26.0,-136.0,171.0,0
403,25.0,-138.0,174.0,0
404,25.0,-138.0,175.0,0
405,28.0,-138.0,177.0,0
406,26.0,-136.0,171.0,0
407,26.0,-137.0,174.0,0
408,29.0,-136.0,176.0,0
409,29.0,-137.0,171.0,0
410,29.0,-135.0,170.0,0
411,27.0,-133.0,174.0,0
412,26.0,-136.0,177.0,0
413,26.0,-137.0,173.0,0
414,28.0,-138.0,172.0,0
415,29.0,-137.0,174.0,0
416,26.0,-136.0,172.0,0
417,27.0,-137.0,174.0,0
418,26.0,-136.0,175.0,0
419,27.0,-139.0,175.0,0
420,27.0,-137.0,175.0,0
421,25.0,-136.0,175.0,0
422,28.0,-138.0,177.0,0
423,25.0,-137.0,174.0,0
424,27.0,-137.0,170.0,0
425,27.0,-135.0,174.0,0
426,26.0,-136.0,175.0,0
427,29.0,-139.0,174.0,0
428,27.0,-137.0,173.0,0
429,26.0,-136.0,173.0,0
430,27.0,-137.0,177.0,0
431,26.0,-138.0,176.0,0
432,24.0,-139.0,171.0,0
433,25.0,-137.0,176.0,0
434,26.0,-139.0,175.0,0
435,29.0,-139.0,173.0,0
436,26.0,-135.0,175.0,0
437,27.0,-139.0,171.0,0
438,24.0,-138.0,169.0,0
439,24.0,-140.0,170.0,0
440,25.0,-136.0,167.0,0
441,29.0,-137.0,175.0,0
442,26.0,-135.0,173.0,0
443,26.0,-139.0,174.0,0
444,30.0,-142.0,173.0,0
445,25.0,-136.0,175.0,0
446,28.0,-139.0,174.0,0
447,26.0,-135.0,176.0,0
448,28.0,-138.0,174.0,0
449,27.0,-140.0,173.0,0
450,23.0,-134.0,172.0,0
451,24.0,-136.0,172.0,0
452,24.0,-137.0,172.0,0
453,25.0,-137.0,178.0,0
454,24.0,-136.0,169.0,0
455,30.0,-141.0,173.0,0
456,26.0,-136.0,171.0,0
457,24.0,-137.0,171.0,0
458,27.0,-137.0,172.0,0
459,25.0,-140.0,175.0,0
460,26.0,-137.0,173.0,0
461,25.0,-136.0,176.0,0
462,27.0,-137.0,176.0,0
463,28.0,-139.0,172.0,0
464,26.0,-139.0,173.0,0
465,24.0,-139.0,173.0,0
466,27.0,-140.0,174.0,0
467,25.0,-139.0,167.0,0
468,28.0,-138.0,171.0,0
469,26.0,-139.0,175.0,0
470,27.0,-138.0,172.0,0
471,25.0,-138.0,173.0,0
472,24.0,-138.0,172.0,0
473,25.0,-137.0,172.0,0
474,25.0,-137.0,166.0,0
475,27.0,-140.0,170.0,0
476,25.0,-138.0,173.0,0
477,27.0,-138.0,167.0,0
478,27.0,-136.0,172.0,0
479,29.0,-139.0,172.0,0
480,27.0,-138.0,171.0,0
481,22.0,-135.0,172.0,0
482,24.0,-137.0,172.0,0
483,29.0,-143.0,185.0,0
484,26.0,-139.0,175.0,0
485,25.0,-140.0,171.0,0
486,25.0,-136.0,170.0,0
487,27.0,-138.0,170.0,0
488,27.0,-137.0,173.0,0
489,24.0,-139.0,171.0,0
490,28.0,-136.0,167.0,0
491,27.0,-136.0,173.0,0
492,23.0,-134.0,170.0,0
493,31.0,-138.0,171.0,0
494,34.0,-144.0,179.0,0
495,29.0,-136.0,169.0,0
496,26.0,-142.0,168.0,0
497,25.0,-136.0,169.0,0
498,25.0,-139.0,166.0,0
499,28.0,-140.0,171.0,0
500,27.0,-139.0,167.0,0
501,28.0,-138.0,169.0,0
502,25.0,-138.0,165.0,0
503,30.0,-140.0,168.0,0
504,28.0,-141.0,163.0,0
505,27.0,-137.0,166.0,0
506,26.0,-142.0,164.0,0
507,26.0,-143.0,165.0,0
508,25.0,-142.0,164.0,0
509,26.0,-146.0,167.0,0
510,27.0,-144.0,170.0,0
511,26.0,-143.0,174.0,0
512,25.0,-141.0,169.0,0
513,24.0,-143.0,170.0,0
514,24.0,-140.0,170.0,0
515,26.0,-138.0,172.0,0
516,25.0,-138.0,169.0,0
517,24.0,-136.0,167.0,0
518,25.0,-137.0,170.0,0
519,26.0,-139.0,168.0,0
520,29.0,-137.0,170.0,0
521,25.0,-136.0,168.0,0
522,26.0,-136.0,170.0,0
523,24.0,-137.0,169.0,0
524,28.0,-142.0,171.0,0
525,24.0,-138.0,168.0,0
526,28.0,-142.0,168.0,0
527,29.0,-141.0,172.0,0
528,28.0,-142.0,175.0,0
529,28.0,-141.0,165.0,0
530,27.0,-142.0,171.0,0
531,32.0,-139.0,170.0,0
532,32.0,-141.0,169.0,0
533,31.0,-141.0,168.0,0
534,31.0,-142.0,170.0,0
535,32.0,-144.0,167.0,0
536,29.0,-140.0,168.0,0
537,28.0,-138.0,169.0,0
538,30.0,-141.0,166.0,0
539,29.0,-142.0,168.0,0
540,33.0,-141.0,168.0,0
541,29.0,-141.0,170.0,0
542,29.0,-143.0,171.0,0
543,27.0,-142.0,166.0,0
544,27.0,-142.0,167.0,0
545,28.0,-141.0,168.0,0
546,29.0,-142.0,168.0,0
547,30.0,-141.0,168.0,0
548,28.0,-141.0,170.0,0
549,28.0,-139.0,163.0,0
550,29.0,-143.0,165.0,0
551,27.0,-142.0,161.0,0
552,28.0,-143.0,160.0,0
553,30.0,-144.0,163.0,0
554,28.0,-143.0,165.0,0
555,31.0,-149.0,166.0,0
556,30.0,-145.0,161.0,0
557,30.0,-145.0,165.0,0
558,32.0,-148.0,168.0,0
559,29.0,-146.0,163.0,0
560,29.0,-147.0,164.0,0
561,30.0,-148.0,162.0,0
562,28.0,-149.0,163.0,0
563,31.0,-148.0,160.0,0
564,30.0,-147.0,168.0,0
565,28.0,-149.0,162.0,0
566,30.0,-150.0,165.0,0
567,29.0,-150.0,162.0,0
568,27.0,-149.0,162.0,0
569,27.0,-149.0,161.0,0
570,29.0,-150.0,168.0,0
571,28.0,-146.0,159.0,0
572,29.0,-147.0,164.0,0
573,30.0,-150.0,166.0,0
574,28.0,-147.0,157.0,0
575,30.0,-150.0,156.0,0
576,27.0,-150.0,160.0,0
577,31.0,-153.0,161.0,0
578,27.0,-151.0,159.0,0
579,27.0,-150.0,164.0,0
580,29.0,-153.0,158.0,0
581,27.0,-153.0,157.0,0
582,27.0,-153.0,156.0,0
583,24.0,-149.0,161.0,0
584,30.0,-150.0,162.0,0
585,29.0,-150.0,167.0,0
586,30.0,-151.0,166.0,0
587,29.0,-152.0,167.0,0
588,29.0,-150.0,165.0,0
589,26.0,-147.0,166.0,0
590,29.0,-148.0,160.0,0
591,31.0,-147.0,162.0,0
592,31.0,-150.0,161.0,0
593,32.0,-148.0,160.0,0
594,30.0,-149.0,156.0,0
595,35.0,-148.0,157.0,0
596,31.0,-153.0,155.0,0
597,28.0,-149.0,152.0,0
598,30.0,-153.0,160.0,0
599,29.0,-151.0,159.0,0
600,30.0,-154.0,157.0,0
601,31.0,-160.0,153.0,0
602,32.0,-160.0,158.0,0
603,32.0,-158.0,159.0,0
604,30.0,-159.0,154.0,0
605,31.0,-159.0,158.0,0
606,32.0,-157.0,157.0,0
607,33.0,-159.0,153.0,0
608,36.0,-156.0,151.0,0
609,32.0,-159.0,150.0,0
610,37.0,-162.0,151.0,0
611,34.0,-155.0,152.0,0
612,36.0,-163.0,156.0,0
613,32.0,-158.0,156.0,0
614,25.0,-171.0,165.0,0
615,36.0,-162.0,160.0,0
616,31.0,-158.0,157.0,0
617,27.0,-162.0,157.0,0
618,30.0,-161.0,154.0,0
619,31.0,-159.0,157.0,0
620,31.0,-165.0,149.0,0
621,30.0,-164.0,150.0,0
622,30.0,-165.0,152.0,0
623,30.0,-163.0,148.0,0
624,36.0,-164.0,147.0,0
625,34.0,-167.0,153.0,0
626,38.0,-166.0,150.0,0
627,36.0,-164.0,154.0,0
628,36.0,-165.0,155.0,0
629,36.0,-167.0,153.0,0
630,32.0,-169.0,152.0,0
631,38.0,-169.0,149.0,0
632,41.0,-171.0,152.0,0
633,40.0,-168.0,146.0,0
634,33.0,-168.0,145.0,0
635,35.0,-173.0,142.0,0
636,36.0,-176.0,138.0,0
637,33.0,-173.0,140.0,0
638,32.0,-176.0,140.0,0
639,34.0,-178.0,140.0,0
640,32.0,-177.0,141.0,0
641,30.0,-178.0,141.0,0
642,30.0,-176.0,136.0,0
643,31.0,-175.0,138.0,0
644,28.0,-171.0,139.0,0
645,26.0,-174.0,135.0,0
646,30.0,-174.0,134.0,0
647,27.0,-174.0,129.0,0
648,30.0,-175.0,133.0,0
649,25.0,-172.0,129.0,0
650,26.0,-175.0,129.0,0
651,24.0,-176.0,132.0,0
652,27.0,-180.0,133.0,0
653,32.0,-184.0,134.0,0
654,30.0,-188.0,134.0,0
655,27.0,-192.0,130.0,0
656,32.0,-198.0,132.0,0
657,31.0,-201.0,128.0,0
658,33.0,-206.0,126.0,0
659,34.0,-213.0,125.0,0
660,38.0,-213.0,123.0,0
661,33.0,-212.0,118.0,0
662,34.0,-210.0,120.0,0
663,38.0,-206.0,116.0,0
664,44.0,-198.0,121.0,0
665,33.0,-194.0,119.0,0
666,33.0,-189.0,123.0,0
667,39.0,-184.0,123.0,0
668,28.0,-181.0,123.0,0
669,33.0,-188.0,121.0,0
670,35.0,-185.0,122.0,0
671,33.0,-188.0,117.0,0
672,39.0,-196.0,114.0,0
673,32.0,-205.0,118.0,0
674,35.0,-215.0,117.0,0
675,36.0,-226.0,113.0,0
676,32.0,-228.0,110.0,0
677,32.0,-231.0,108.0,0
678,35.0,-232.0,108.0,0
679,36.0,-228.0,106.0,0
680,38.0,-219.0,106.0,0
681,35.0,-209.0,105.0,0
682,38.0,-206.0,105.0,0
683,37.0,-208.0,102.0,0
684,39.0,-203.0,101.0,0
685,38.0,-207.0,98.0,0
686,37.0,-208.0,98.0,0
687,33.0,-211.0,101.0,0
688,33.0,-214.0,97.0,0
689,34.0,-220.0,103.0,0
690,38.0,-225.0,99.0,0
691,38.0,-223.0,98.0,0
692,39.0,-225.0,94.0,0
693,37.0,-227.0,98.0,0
694,36.0,-227.0,97.0,0
695,38.0,-233.0,90.0,0
696,36.0,-233.0,87.0,0
697,37.0,-237.0,83.0,0
698,34.0,-239.0,83.0,0
699,37.0,-245.0,79.0,0
700,35.0,-249.0,76.0,0
701,37.0,-251.0,74.0,0
702,35.0,-252.0,74.0,0
703,34.0,-253.0,75.0,0
704,37.0,-252.0,72.0,0
705,39.0,-243.0,66.0,0
706,39.0,-241.0,70.0,0
707,38.0,-241.0,63.0,0
708,37.0,-239.0,64.0,0
709,35.0,-237.0,60.0,0
710,37.0,-243.0,61.0,0
711,34.0,-246.0,58.0,0
712,35.0,-251.0,60.0,0
713,31.0,-254.0,63.0,0
714,35.0,-258.0,60.0,0
715,32.0,-263.0,59.0,0
716,30.0,-270.0,62.0,0
717,31.0,-270.0,61.0,0
718,31.0,-274.0,63.0,0
719,30.0,-274.0,63.0,0
720,29.0,-272.0,62.0,0
721,30.0,-273.0,56.0,0
722,32.0,-267.0,54.0,0
723,29.0,-265.0,52.0,0
724,29.0,-262.0,49.0,0
725,33.0,-259.0,46.0,0
726,33.0,-256.0,42.0,0
727,35.0,-256.0,44.0,0
728,37.0,-253.0,38.0,0
729,37.0,-252.0,33.0,0
730,41.0,-252.0,36.0,0
731,39.0,-253.0,32.0,0
732,36.0,-254.0,34.0,0
733,33.0,-258.0,35.0,0
734,36.0,-264.0,32.0,0
735,33.0,-269.0,33.0,0
736,31.0,-273.0,35.0,0
737,28.0,-277.0,36.0,0
738,26.0,-277.0,41.0,0
739,27.0,-283.0,37.0,0
740,26.0,-283.0,31.0,0
741,26.0,-283.0,32.0,0
742,24.0,-285.0,26.0,0
743,29.0,-273.0,16.0,0
744,23.0,-266.0,20.0,0
745,22.0,-261.0,14.0,0
746,23.0,-261.0,7.0,0
747,24.0,-270.0,5.0,0
748,21.0,-271.0,1.0,0
749,23.0,-276.0,1.0,0
750,25.0,-283.0,1.0,0
751,25.0,-286.0,8.0,0
752,27.0,-289.0,18.0,0
753,31.0,-294.0,20.0,0
754,39.0,-288.0,18.0,0
755,35.0,-294.0,29.0,0
756,39.0,-292.0,28.0,0
757,40.0,-291.0,32.0,0
758,40.0,-285.0,26.0,0
759,43.0,-281.0,19.0,0
760,43.0,-271.0,19.0,0
761,43.0,-265.0,8.0,0
762,43.0,-267.0,4.0,0
763,39.0,-268.0,-2.0,0
764,38.0,-273.0,-7.0,0
765,31.0,-279.0,-10.0,0
766,31.0,-285.0,-11.0,0
767,30.0,-285.0,-11.0,0
768,25.0,-292.0,-6.0,0
769,29.0,-296.0,-8.0,0
770,21.0,-295.0,-3.0,0
771,17.0,-300.0,-7.0,0
772,12.0,-299.0,-5.0,0
773,11.0,-299.0,0.0,0
774,7.0,-295.0,-6.0,0
775,8.0,-291.0,-1.0,0
776,5.0,-288.0,-7.0,0
777,7.0,-281.0,-12.0,0
778,6.0,-278.0,-13.0,0
779,8.0,-279.0,-26.0,0
780,7.0,-281.0,-28.0,0
781,7.0,-283.0,-31.0,0
782,11.0,-285.0,-35.0,0
783,9.0,-284.0,-33.0,0
784,11.0,-286.0,-37.0,0
785,15.0,-287.0,-41.0,0
786,15.0,-285.0,-39.0,0
787,16.0,-286.0,-42.0,0
788,22.0,-279.0,-39.0,0
789,23.0,-283.0,-38.0,0
790,24.0,-283.0,-36.0,0
791,22.0,-280.0,-34.0,0
792,25.0,-279.0,-32.0,0
793,27.0,-280.0,-33.0,0
794,30.0,-279.0,-32.0,0
795,27.0,-280.0,-31.0,0
796,29.0,-276.0,-33.0,0
797,27.0,-277.0,-36.0,0
798,25.0,-278.0,-37.0,0
799,24.0,-275.0,-45.0,0
800,18.0,-278.0,-49.0,0
801,16.0,-277.0,-57.0,0
802,13.0,-281.0,-60.0,0
803,10.0,-283.0,-59.0,0
804,12.0,-282.0,-60.0,0
805,6.0,-281.0,-60.0,0
806,5.0,-283.0,-58.0,0
807,2.0,-282.0,-54.0,0
808,4.0,-286.0,-60.0,0
809,4.0,-279.0,-57.0,0
810,4.0,-277.0,-61.0,0
811,8.0,-269.0,-56.0,0
812,8.0,-260.0,-56.0,0
813,14.0,-257.0,-57.0,0
814,12.0,-255.0,-59.0,0
815,15.0,-250.0,-54.0,0
816,15.0,-248.0,-53.0,0
817,14.0,-239.0,-55.0,0
818,10.0,-233.0,-55.0,0
819,14.0,-228.0,-53.0,0
820,12.0,-227.0,-55.0,0
821,15.0,-223.0,-52.0,0
822,11.0,-220.0,-55.0,0
823,12.0,-216.0,-51.0,0
824,7.0,-209.0,-50.0,0
825,12.0,-205.0,-50.0,0
826,13.0,-201.0,-53.0,0
827,13.0,-194.0,-55.0,0
828,17.0,-193.0,-50.0,0
829,19.0,-191.0,-45.0,0
830,22.0,-181.0,-45.0,0
831,27.0,-178.0,-47.0,0
832,28.0,-165.0,-41.0,0
833,28.0,-160.0,-41.0,0
834,27.0,-151.0,-42.0,0
835,30.0,-148.0,-35.0,0
836,34.0,-141.0,-37.0,0
837,36.0,-133.0,-42.0,0
838,38.0,-126.0,-46.0,0
839,37.0,-119.0,-48.0,0
840,35.0,-115.0,-54.0,0
841,31.0,-112.0,-61.0,0
842,26.0,-109.0,-63.0,0
843,20.0,-112.0,-68.0,1
844,16.0,-108.0,-72.0,1
845,10.0,-103.0,-75.0,1
846,12.0,-105.0,-80.0,1
847,9.0,-103.0,-76.0,1
848,9.0,-104.0,-76.0,1
849,12.0,-106.0,-77.0,1
850,10.0,-113.0,-76.0,1
851,11.0,-120.0,-66.0,1
852,10.0,-128.0,-62.0,1
853,6.0,-138.0,-53.0,1
854,6.0,-151.0,-45.0,1
855,10.0,-168.0,-35.0,1
856,11.0,-180.0,-24.0,1
857,7.0,-196.0,-11.0,1
858,14.0,-215.0,-3.0,1
859,20.0,-232.0,15.0,1
860,21.0,-253.0,35.0,1
861,25.0,-266.0,48.0,1
862,25.0,-278.0,70.0,1
863,20.0,-287.0,92.0,1
864,22.0,-299.0,119.0,1
865,21.0,-303.0,132.0,1
866,18.0,-302.0,149.0,1
867,21.0,-298.0,160.0,1
868,25.0,-292.0,173.0,1
869,36.0,-287.0,190.0,1
870,60.0,-291.0,237.0,1
871,87.0,-300.0,298.0,1
872,111.0,-347.0,374.0,1
873,118.0,-394.0,525.0,1
874,138.0,-487.0,766.0,1
875,149.0,-640.0,917.0,1
876,142.0,-755.0,733.0,1
877,80.0,-744.0,301.0,1
878,12.0,-682.0,-109.0,1
879,-40.0,-557.0,-392.0,1
880,-114.0,-362.0,-497.0,1
881,-39.0,-205.0,-426.0,1
882,55.0,-128.0,-221.0,1
883,121.0,-167.0,29.0,1
884,132.0,-236.0,269.0,1
885,98.0,-298.0,409.0,1
886,61.0,-309.0,457.0,1
887,31.0,-290.0,445.0,1
888,0.0,-261.0,404.0,1
889,-31.0,-221.0,357.0,1
890,-45.0,-167.0,310.0,1
891,-45.0,-103.0,265.0,1
892,-32.0,-37.0,224.0,1
893,-17.0,19.0,189.0,1
894,-13.0,57.0,159.0,1
895,2.0,65.0,144.0,1
896,11.0,61.0,128.0,1
897,4.0,35.0,115.0,1
898,10.0,-10.0,101.0,1
899,1.0,-61.0,94.0,1
900,3.0,-106.0,106.0,1
901,14.0,-136.0,124.0,1
902,21.0,-150.0,146.0,1
903,31.0,-155.0,163.0,1
904,33.0,-156.0,177.0,1
905,45.0,-156.0,187.0,1
906,45.0,-154.0,188.0,1
907,45.0,-143.0,182.0,1
908,42.0,-130.0,175.0,1
909,43.0,-118.0,168.0,1
910,39.0,-99.0,156.0,1
911,37.0,-81.0,148.0,1
912,36.0,-65.0,138.0,1
913,33.0,-62.0,138.0,1
914,31.0,-55.0,140.0,1
915,28.0,-57.0,146.0,1
916,26.0,-59.0,155.0,1
917,23.0,-63.0,162.0,1
918,19.0,-69.0,170.0,1
919,16.0,-81.0,174.0,0
920,9.0,-99.0,187.0,0
921,3.0,-113.0,191.0,0
922,2.0,-126.0,195.0,0
923,2.0,-133.0,198.0,0
924,-2.0,-138.0,195.0,0
925,-2.0,-148.0,197.0,0
926,-2.0,-162.0,196.0,0
927,1.0,-177.0,198.0,0
928,1.0,-183.0,198.0,0
929,13.0,-188.0,195.0,0
930,22.0,-192.0,193.0,0
931,26.0,-193.0,188.0,0
932,33.0,-192.0,180.0,0
933,35.0,-192.0,174.0,0
934,41.0,-190.0,169.0,0
935,41.0,-181.0,164.0,0
936,43.0,-170.0,160.0,0
937,44.0,-158.0,160.0,0
938,45.0,-143.0,158.0,0
939,42.0,-135.0,157.0,0
940,38.0,-129.0,159.0,0
941,39.0,-121.0,163.0,0
942,35.0,-115.0,161.0,0
943,32.0,-108.0,163.0,0
944,32.0,-100.0,162.0,0
945,28.0,-94.0,164.0,0
946,28.0,-91.0,158.0,0
947,25.0,-90.0,155.0,0
948,23.0,-87.0,153.0,0
949,24.0,-89.0,155.0,0
950,25.0,-88.0,161.0,0
951,25.0,-88.0,162.0,0
952,25.0,-89.0,170.0,0
953,22.0,-90.0,172.0,0
954,23.0,-87.0,175.0,0
955,24.0,-90.0,179.0,0
956,23.0,-91.0,181.0,0
957,22.0,-90.0,179.0,0
958,27.0,-89.0,183.0,0
959,25.0,-91.0,181.0,0
960,22.0,-88.0,182.0,0
961,16.0,-87.0,182.0,0
962,17.0,-88.0,184.0,0
963,15.0,-89.0,187.0,0
964,12.0,-90.0,187.0,0
965,6.0,-91.0,191.0,0
966,3.0,-93.0,187.0,0
967,0.0,-98.0,192.0,0
968,1.0,-100.0,193.0,0
969,-3.0,-106.0,197.0,0
970,0.0,-118.0,200.0,0
971,1.0,-122.0,204.0,0
972,6.0,-129.0,215.0,0
973,8.0,-133.0,219.0,0
974,13.0,-143.0,213.0,0
975,14.0,-136.0,217.0,0
976,19.0,-135.0,208.0,0
977,26.0,-134.0,198.0,0
978,31.0,-128.0,192.0,0
979,33.0,-125.0,180.0,0
980,36.0,-120.0,171.0,0
981,36.0,-116.0,170.0,0
982,36.0,-114.0,173.0,0
983,39.0,-111.0,173.0,0
984,38.0,-114.0,170.0,0
985,38.0,-113.0,172.0,0
986,38.0,-108.0,175.0,0
987,34.0,-110.0,171.0,0
988,35.0,-109.0,176.0,0
989,30.0,-108.0,176.0,0
990,30.0,-107.0,176.0,0
991,27.0,-105.0,176.0,0
992,25.0,-104.0,183.0,0
993,25.0,-104.0,180.0,0
994,23.0,-104.0,177.0,0
995,20.0,-105.0,177.0,0
996,20.0,-105.0,177.0,0
997,15.0,-106.0,176.0,0
998,16.0,-105.0,177.0,0
999,18.0,-108.0,177.0,0
1000,19.0,-108.0,181.0,0
1001,19.0,-107.0,184.0,0
1002,21.0,-110.0,180.0,0
1003,20.0,-111.0,180.0,0
1004,19.0,-115.0,181.0,0
1005,25.0,-111.0,185.0,0
1006,22.0,-113.0,186.0,0
1007,25.0,-115.0,183.0,0
1008,20.0,-116.0,188.0,0
1009,23.0,-117.0,189.0,0
1010,21.0,-114.0,189.0,0
1011,24.0,-114.0,190.0,0
1012,22.0,-107.0,188.0,0
1013,19.0,-97.0,175.0,0
1014,25.0,-104.0,192.0,0
1015,30.0,-104.0,189.0,0
1016,28.0,-102.0,190.0,0
1017,27.0,-100.0,186.0,0
1018,29.0,-102.0,191.0,0
1019,27.0,-100.0,191.0,0
1020,30.0,-107.0,193.0,0
1021,29.0,-106.0,192.0,0
1022,32.0,-111.0,191.0,0
1023,31.0,-111.0,192.0,0
1024,30.0,-99.0,191.0,0
1025,32.0,-108.0,191.0,0
1026,31.0,-108.0,191.0,0
1027,29.0,-108.0,187.0,0
1028,27.0,-104.0,188.0,0
1029,23.0,-105.0,187.0,0
1030,25.0,-102.0,184.0,0
1031,25.0,-106.0,181.0,0
1032,20.0,-108.0,182.0,0
1033,18.0,-106.0,189.0,0
1034,19.0,-105.0,187.0,0
1035,19.0,-108.0,181.0,0
1036,19.0,-110.0,181.0,0
1037,18.0,-112.0,184.0,0
1038,21.0,-110.0,183.0,0
1039,18.0,-117.0,184.0,0
1040,21.0,-120.0,184.0,0
1041,24.0,-122.0,186.0,0
1042,23.0,-126.0,188.0,0
1043,25.0,-127.0,182.0,0
1044,24.0,-127.0,183.0,0
1045,22.0,-126.0,185.0,0
1046,24.0,-128.0,182.0,0
1047,23.0,-128.0,182.0,0
1048,25.0,-128.0,181.0,0
1049,26.0,-124.0,178.0,0
1050,25.0,-125.0,176.0,0
1051,26.0,-128.0,178.0,0
1052,28.0,-125.0,181.0,0
1053,28.0,-127.0,180.0,0
1054,27.0,-127.0,180.0,0
1055,28.0,-125.0,181.0,0
1056,26.0,-127.0,180.0,0
1057,29.0,-124.0,179.0,0
1058,27.0,-125.0,181.0,0
1059,30.0,-127.0,177.0,0
1060,28.0,-127.0,181.0,0
1061,31.0,-125.0,181.0,0
1062,29.0,-128.0,176.0,0
1063,31.0,-123.0,179.0,0
1064,30.0,-127.0,179.0,0
1065,28.0,-128.0,178.0,0
1066,29.0,-129.0,179.0,0
1067,25.0,-131.0,170.0,0
1068,28.0,-132.0,171.0,0
1069,25.0,-131.0,178.0,0
1070,21.0,-131.0,172.0,0
1071,22.0,-132.0,174.0,0
1072,25.0,-133.0,173.0,0
1073,23.0,-131.0,177.0,0
1074,22.0,-132.0,176.0,0
1075,21.0,-132.0,175.0,0
1076,20.0,-131.0,175.0,0
1077,21.0,-133.0,174.0,0
1078,20.0,-131.0,177.0,0
1079,21.0,-130.0,170.0,0
1080,18.0,-130.0,173.0,0
1081,20.0,-129.0,175.0,0
1082,20.0,-129.0,175.0,0
1083,23.0,-128.0,176.0,0
1084,23.0,-130.0,172.0,0
1085,21.0,-130.0,175.0,0
1086,23.0,-130.0,179.0,0
1087,25.0,-134.0,177.0,0
1088,22.0,-132.0,176.0,0
1089,26.0,-128.0,176.0,0
1090,27.0,-135.0,170.0,0
1091,23.0,-129.0,178.0,0
1092,27.0,-131.0,171.0,0
1093,27.0,-130.0,177.0,0
1094,29.0,-131.0,176.0,0
1095,28.0,-133.0,175.0,0
1096,31.0,-133.0,175.0,0
1097,28.0,-132.0,174.0,0
1098,28.0,-133.0,177.0,0
1099,31.0,-131.0,180.0,0
1100,31.0,-134.0,176.0,0
1101,27.0,-131.0,173.0,0
1102,30.0,-132.0,179.0,0
1103,34.0,-133.0,179.0,0
1104,29.0,-130.0,175.0,0
1105,31.0,-129.0,178.0,0
1106,31.0,-130.0,180.0,0
1107,29.0,-132.0,174.0,0
1108,30.0,-132.0,177.0,0
1109,27.0,-131.0,175.0,0
1110,28.0,-134.0,175.0,0
1111,31.0,-134.0,173.0,0
1112,28.0,-134.0,177.0,0
1113,30.0,-135.0,179.0,0
1114,29.0,-135.0,177.0,0
1115,26.0,-135.0,177.0,0
1116,28.0,-135.0,170.0,0
1117,27.0,-135.0,175.0,0
1118,26.0,-134.0,175.0,0
1119,29.0,-133.0,174.0,0
1120,27.0,-135.0,173.0,0
1121,27.0,-135.0,175.0,0
1122,27.0,-134.0,171.0,0
1123,29.0,-135.0,176.0,0
1124,29.0,-133.0,171.0,0
1125,26.0,-128.0,174.0,0
1126,26.0,-131.0,176.0,0
1127,26.0,-131.0,171.0,0
1128,27.0,-132.0,175.0,0
1129,27.0,-130.0,172.0,0
1130,27.0,-134.0,174.0,0
1131,26.0,-133.0,176.0,0
1132,28.0,-133.0,176.0,0
1133,23.0,-133.0,179.0,0
1134,29.0,-137.0,177.0,0
1135,25.0,-139.0,174.0,0
1136,25.0,-137.0,175.0,0
1137,25.0,-134.0,179.0,0
1138,25.0,-139.0,175.0,0
1139,25.0,-138.0,173.0,0
1140,27.0,-143.0,171.0,0
1141,24.0,-142.0,175.0,0
1142,25.0,-142.0,174.0,0
1143,25.0,-139.0,172.0,0
1144,25.0,-152.0,177.0,0
1145,25.0,-137.0,171.0,0
1146,25.0,-142.0,169.0,0
1147,25.0,-140.0,172.0,0
1148,22.0,-140.0,171.0,0
1149,24.0,-143.0,172.0,0
1150,24.0,-140.0,176.0,0
1151,29.0,-144.0,172.0,0
1152,23.0,-141.0,170.0,0
1153,26.0,-143.0,171.0,0
1154,26.0,-143.0,174.0,0
1155,24.0,-143.0,168.0,0
1156,28.0,-147.0,172.0,0
1157,25.0,-145.0,172.0,0
1158,27.0,-147.0,169.0,0
1159,24.0,-147.0,165.0,0
1160,26.0,-150.0,172.0,0
1161,27.0,-150.0,168.0,0
1162,26.0,-154.0,169.0,0
1163,26.0,-153.0,166.0,0
1164,24.0,-151.0,165.0,0
1165,25.0,-155.0,162.0,0
1166,26.0,-154.0,166.0,0
1167,23.0,-153.0,162.0,0
1168,20.0,-154.0,159.0,0
1169,24.0,-159.0,159.0,0
1170,23.0,-160.0,159.0,0
1171,22.0,-157.0,160.0,0
1172,25.0,-155.0,153.0,0
1173,21.0,-158.0,159.0,0
1174,22.0,-157.0,158.0,0
1175,23.0,-156.0,159.0,0
1176,23.0,-155.0,158.0,0
1177,22.0,-154.0,156.0,0
1178,24.0,-158.0,158.0,0
1179,23.0,-158.0,162.0,0
1180,21.0,-158.0,157.0,0
1181,19.0,-157.0,158.0,0
1182,24.0,-158.0,157.0,0
1183,21.0,-158.0,164.0,0
1184,23.0,-161.0,159.0,0
1185,24.0,-164.0,160.0,0
1186,23.0,-162.0,164.0,0
1187,21.0,-163.0,162.0,0
1188,20.0,-158.0,163.0,0
1189,24.0,-162.0,160.0,0
1190,21.0,-167.0,163.0,0
1191,23.0,-164.0,162.0,0
1192,22.0,-165.0,161.0,0
1193,20.0,-163.0,161.0,0
1194,22.0,-164.0,162.0,0
1195,24.0,-165.0,159.0,0
1196,22.0,-162.0,162.0,0
1197,21.0,-161.0,164.0,0
1198,22.0,-160.0,164.0,0
1199,24.0,-161.0,162.0,0
1200,23.0,-159.0,163.0,0
1201,25.0,-158.0,164.0,0
1202,25.0,-157.0,171.0,0
1203,27.0,-159.0,164.0,0
1204,27.0,-156.0,166.0,0
1205,25.0,-154.0,169.0,0
1206,24.0,-155.0,165.0,0
1207,22.0,-152.0,167.0,0
1208,25.0,-153.0,166.0,0
1209,23.0,-152.0,163.0,0
1210,24.0,-152.0,155.0,0
1211,23.0,-157.0,160.0,0
1212,21.0,-159.0,157.0,0
1213,21.0,-158.0,165.0,0
1214,19.0,-161.0,156.0,0
1215,20.0,-162.0,162.0,0
1216,21.0,-165.0,160.0,0
1217,22.0,-165.0,164.0,0
1218,20.0,-163.0,166.0,0
1219,20.0,-165.0,161.0,0
1220,21.0,-164.0,159.0,0
1221,20.0,-164.0,159.0,0
1222,22.0,-162.0,153.0,0
1223,24.0,-163.0,162.0,0
1224,21.0,-162.0,157.0,0
1225,20.0,-160.0,159.0,0
1226,18.0,-160.0,157.0,0
1227,20.0,-161.0,161.0,0
1228,22.0,-156.0,154.0,0
1229,20.0,-158.0,160.0,0
1230,18.0,-160.0,160.0,0
1231,17.0,-159.0,158.0,0
1232,19.0,-158.0,158.0,0
1233,18.0,-157.0,153.0,0
1234,17.0,-158.0,156.0,0
1235,15.0,-158.0,161.0,0
1236,20.0,-156.0,157.0,0
1237,17.0,-158.0,157.0,0
1238,18.0,-153.0,157.0,0
1239,22.0,-157.0,160.0,0
1240,18.0,-157.0,162.0,0
1241,17.0,-154.0,165.0,0
1242,18.0,-155.0,166.0,0
1243,19.0,-158.0,163.0,0
1244,16.0,-155.0,160.0,0
1245,18.0,-159.0,160.0,0
1246,16.0,-157.0,165.0,0
1247,17.0,-156.0,164.0,0
1248,20.0,-158.0,164.0,0
1249,20.0,-154.0,163.0,0
1250,19.0,-154.0,168.0,0
1251,24.0,-153.0,159.0,0
1252,20.0,-151.0,161.0,0
1253,20.0,-152.0,162.0,0
1254,21.0,-147.0,166.0,0
1255,25.0,-147.0,166.0,0
1256,22.0,-145.0,165.0,0
1257,22.0,-147.0,163.0,0
1258,23.0,-149.0,164.0,0
1259,19.0,-148.0,165.0,0
1260,21.0,-149.0,163.0,0
1261,24.0,-150.0,168.0,0
1262,21.0,-147.0,168.0,0
1263,19.0,-148.0,169.0,0
1264,23.0,-152.0,164.0,0
1265,18.0,-151.0,165.0,0
1266,20.0,-153.0,165.0,0
1267,19.0,-150.0,166.0,0
1268,17.0,-153.0,168.0,0
1269,17.0,-153.0,165.0,0
1270,18.0,-152.0,167.0,0
1271,19.0,-149.0,165.0,0
1272,19.0,-152.0,164.0,0
1273,21.0,-151.0,167.0,0
1274,17.0,-150.0,168.0,0
1275,14.0,-150.0,157.0,0
1276,17.0,-153.0,164.0,0
1277,14.0,-154.0,167.0,0
1278,13.0,-152.0,164.0,0
1279,16.0,-156.0,163.0,0
1280,16.0,-155.0,163.0,0
1281,17.0,-155.0,164.0,0
1282,18.0,-156.0,162.0,0
1283,14.0,-153.0,165.0,0
1284,17.0,-155.0,165.0,0
1285,22.0,-162.0,170.0,0
1286,19.0,-151.0,163.0,0
1287,16.0,-149.0,163.0,0
1288,19.0,-151.0,161.0,0
1289,19.0,-150.0,161.0,0
1290,19.0,-146.0,163.0,0
1291,21.0,-149.0,162.0,0
1292,21.0,-147.0,163.0,0
1293,19.0,-147.0,162.0,0
1294,20.0,-149.0,166.0,0
1295,23.0,-150.0,165.0,0
1296,20.0,-154.0,165.0,0
1297,21.0,-150.0,165.0,0
1298,19.0,-150.0,160.0,0
1299,23.0,-150.0,162.0,0
1300,20.0,-154.0,156.0,0
1301,21.0,-157.0,161.0,0
1302,20.0,-152.0,161.0,0
1303,18.0,-154.0,157.0,0
1304,21.0,-158.0,161.0,0
1305,20.0,-158.0,158.0,0
1306,20.0,-157.0,162.0,0
1307,25.0,-156.0,162.0,0
1308,22.0,-155.0,164.0,0
1309,26.0,-155.0,162.0,0
1310,23.0,-157.0,161.0,0
1311,26.0,-156.0,164.0,0
1312,24.0,-156.0,161.0,0
1313,26.0,-156.0,164.0,0
1314,28.0,-157.0,162.0,0
1315,23.0,-155.0,161.0,0
1316,25.0,-158.0,160.0,0
1317,20.0,-156.0,161.0,0
1318,21.0,-156.0,164.0,0
1319,24.0,-157.0,163.0,0
1320,20.0,-158.0,160.0,0
1321,23.0,-157.0,163.0,0
1322,20.0,-158.0,159.0,0
1323,24.0,-155.0,162.0,0
1324,21.0,-152.0,161.0,0
1325,19.0,-157.0,162.0,0
1326,20.0,-155.0,160.0,0
1327,18.0,-154.0,161.0,0
1328,20.0,-155.0,164.0,0
1329,18.0,-151.0,162.0,0
1330,18.0,-152.0,164.0,0
1331,18.0,-156.0,164.0,0
1332,17.0,-151.0,163.0,0
1333,17.0,-150.0,168.0,0
1334,20.0,-154.0,165.0,0
1335,18.0,-151.0,168.0,0
1336,20.0,-152.0,162.0,0
1337,21.0,-152.0,159.0,0
1338,19.0,-150.0,158.0,0
1339,18.0,-152.0,159.0,0
1340,19.0,-154.0,161.0,0
1341,21.0,-152.0,163.0,0
1342,24.0,-153.0,162.0,0
1343,19.0,-150.0,165.0,0
1344,21.0,-152.0,161.0,0
1345,25.0,-154.0,164.0,0
1346,22.0,-150.0,163.0,0
1347,23.0,-149.0,164.0,0
1348,20.0,-150.0,169.0,0
1349,24.0,-149.0,164.0,0
1350,22.0,-150.0,170.0,0
1351,22.0,-147.0,172.0,0
1352,26.0,-150.0,169.0,0
1353,24.0,-147.0,167.0,0
1354,22.0,-150.0,167.0,0
1355,23.0,-148.0,168.0,0
1356,23.0,-148.0,167.0,0
1357,23.0,-153.0,167.0,0
1358,25.0,-152.0,168.0,0
1359,24.0,-153.0,166.0,0
1360,24.0,-150.0,167.0,0
1361,24.0,-150.0,168.0,0
1362,19.0,-152.0,166.0,0
1363,22.0,-154.0,170.0,0
1364,21.0,-153.0,166.0,0
1365,19.0,-152.0,163.0,0
1366,17.0,-153.0,166.0,0
1367,22.0,-152.0,165.0,0
1368,20.0,-152.0,167.0,0
1369,21.0,-149.0,164.0,0
1370,21.0,-152.0,163.0,0
1371,22.0,-151.0,163.0,0
1372,21.0,-148.0,164.0,0
1373,23.0,-151.0,162.0,0
1374,20.0,-155.0,164.0,0
1375,19.0,-152.0,166.0,0
1376,21.0,-153.0,167.0,0
1377,21.0,-153.0,162.0,0
1378,18.0,-152.0,166.0,0
1379,20.0,-155.0,162.0,0
1380,21.0,-157.0,165.0,0
1381,17.0,-156.0,164.0,0
1382,25.0,-155.0,161.0,0
1383,22.0,-156.0,162.0,0
1384,19.0,-157.0,161.0,0
1385,20.0,-155.0,157.0,0
1386,25.0,-155.0,160.0,0
1387,21.0,-154.0,157.0,0
1388,22.0,-155.0,160.0,0
1389,22.0,-150.0,159.0,0
1390,19.0,-156.0,160.0,0
1391,25.0,-153.0,163.0,0
1392,23.0,-151.0,159.0,0
1393,18.0,-151.0,159.0,0
1394,21.0,-154.0,162.0,0
1395,21.0,-153.0,160.0,0
1396,24.0,-152.0,160.0,0
1397,23.0,-153.0,160.0,0
1398,20.0,-152.0,162.0,0
1399,22.0,-154.0,162.0,0
1400,26.0,-153.0,170.0,0
1401,25.0,-155.0,164.0,0
1402,23.0,-153.0,162.0,0
1403,23.0,-156.0,161.0,0
1404,25.0,-155.0,169.0,0
1405,23.0,-153.0,167.0,0
1406,19.0,-158.0,159.0,0
1407,25.0,-154.0,168.0,0
1408,22.0,-155.0,162.0,0
1409,22.0,-156.0,165.0,0
1410,21.0,-156.0,160.0,0
1411,20.0,-154.0,162.0,0
1412,23.0,-158.0,164.0,0
1413,20.0,-157.0,160.0,0
1414,24.0,-159.0,158.0,0
1415,23.0,-161.0,161.0,0
1416,30.0,-148.0,152.0,0
1417,20.0,-156.0,161.0,0
1418,23.0,-157.0,160.0,0
1419,20.0,-154.0,160.0,0
1420,22.0,-155.0,158.0,0
1421,20.0,-154.0,160.0,0
1422,23.0,-154.0,157.0,0
1423,19.0,-157.0,156.0,0
1424,22.0,-158.0,155.0,0
1425,22.0,-155.0,163.0,0
1426,20.0,-157.0,157.0,0
1427,16.0,-160.0,144.0,0
1428,20.0,-160.0,156.0,0
1429,22.0,-159.0,158.0,0
1430,21.0,-162.0,154.0,0
1431,21.0,-161.0,160.0,0
1432,20.0,-164.0,151.0,0
1433,22.0,-162.0,161.0,0
1434,22.0,-161.0,161.0,0
1435,24.0,-165.0,162.0,0
1436,21.0,-166.0,155.0,0
1437,22.0,-164.0,158.0,0
1438,18.0,-165.0,154.0,0
1439,23.0,-164.0,168.0,0
1440,23.0,-162.0,156.0,0
1441,23.0,-159.0,159.0,0
1442,17.0,-159.0,160.0,0
1443,19.0,-161.0,154.0,0
1444,20.0,-159.0,162.0,0
1445,25.0,-157.0,162.0,0
1446,23.0,-158.0,158.0,0
1447,23.0,-153.0,157.0,0
1448,21.0,-157.0,157.0,0
1449,23.0,-157.0,158.0,0
1450,21.0,-156.0,157.0,0
1451,21.0,-162.0,145.0,0
1452,21.0,-154.0,165.0,0
1453,25.0,-159.0,164.0,0
1454,19.0,-157.0,162.0,0
1455,19.0,-154.0,162.0,0
1456,22.0,-157.0,162.0,0
1457,19.0,-155.0,159.0,0
1458,22.0,-157.0,158.0,0
1459,19.0,-161.0,162.0,0
1460,22.0,-157.0,167.0,0
1461,17.0,-158.0,161.0,0
1462,19.0,-155.0,157.0,0
1463,20.0,-154.0,160.0,0
1464,20.0,-155.0,160.0,0
1465,19.0,-156.0,160.0,0
1466,24.0,-154.0,167.0,0
1467,19.0,-150.0,161.0,0
1468,18.0,-153.0,159.0,0
1469,20.0,-156.0,157.0,0
1470,18.0,-156.0,157.0,0
1471,16.0,-156.0,158.0,0
1472,19.0,-156.0,166.0,0
1473,23.0,-153.0,162.0,0
1474,18.0,-155.0,161.0,0
1475,20.0,-155.0,159.0,0
1476,21.0,-155.0,160.0,0
1477,22.0,-155.0,161.0,0
1478,21.0,-158.0,163.0,0
1479,21.0,-157.0,160.0,0
1480,20.0,-157.0,165.0,0
1481,21.0,-154.0,166.0,0
1482,18.0,-156.0,159.0,0
1483,18.0,-159.0,159.0,0
1484,17.0,-158.0,158.0,0
1485,20.0,-157.0,159.0,0
1486,22.0,-158.0,157.0,0
1487,19.0,-160.0,150.0,0
1488,22.0,-153.0,163.0,0
1489,20.0,-158.0,159.0,0
1490,20.0,-155.0,157.0,0
1491,20.0,-154.0,163.0,0
1492,20.0,-156.0,161.0,0
1493,16.0,-154.0,163.0,0
1494,20.0,-156.0,161.0,0
1495,23.0,-156.0,161.0,0
1496,19.0,-156.0,158.0,0
1497,23.0,-158.0,160.0,0
1498,18.0,-158.0,157.0,0
1499,24.0,-160.0,165.0,0
1500,25.0,-158.0,164.0,0
1501,24.0,-157.0,163.0,0
1502,23.0,-158.0,158.0,0
1503,19.0,-158.0,159.0,0
1504,21.0,-159.0,158.0,0
1505,22.0,-160.0,160.0,0
1506,21.0,-159.0,160.0,0
1507,17.0,-161.0,155.0,0
1508,21.0,-160.0,165.0,0
1509,20.0,-158.0,160.0,0
1510,20.0,-158.0,156.0,0
1511,21.0,-158.0,152.0,0
1512,19.0,-158.0,157.0,0
1513,20.0,-156.0,162.0,0
1514,22.0,-159.0,157.0,0
1515,20.0,-158.0,153.0,0
1516,21.0,-157.0,163.0,0
1517,22.0,-155.0,166.0,0
1518,19.0,-155.0,162.0,0
1519,21.0,-156.0,156.0,0
1520,20.0,-156.0,159.0,0
1521,21.0,-155.0,158.0,0
1522,22.0,-157.0,160.0,0
1523,20.0,-156.0,158.0,0
1524,20.0,-155.0,159.0,0
1525,24.0,-156.0,162.0,0
1526,22.0,-155.0,158.0,0
1527,16.0,-154.0,157.0,0
1528,19.0,-156.0,159.0,0
1529,20.0,-154.0,159.0,0
1530,18.0,-155.0,159.0,0
1531,18.0,-154.0,160.0,0
1532,18.0,-156.0,162.0,0
1533,21.0,-154.0,162.0,0
1534,19.0,-154.0,160.0,0
1535,19.0,-153.0,161.0,0
1536,20.0,-155.0,162.0,0
1537,20.0,-154.0,159.0,0
1538,19.0,-155.0,162.0,0
1539,18.0,-153.0,166.0,0
1540,20.0,-153.0,165.0,0
1541,20.0,-160.0,160.0,0
1542,21.0,-156.0,161.0,0
1543,18.0,-155.0,162.0,0
1544,18.0,-145.0,168.0,0
1545,14.0,-150.0,158.0,0
1546,18.0,-155.0,162.0,0
1547,19.0,-151.0,161.0,0
1548,22.0,-157.0,165.0,0
1549,22.0,-155.0,159.0,0
1550,23.0,-155.0,161.0,0
1551,21.0,-153.0,160.0,0
1552,21.0,-155.0,159.0,0
1553,19.0,-155.0,158.0,0
1554,21.0,-156.0,158.0,0
1555,19.0,-152.0,163.0,0
1556,21.0,-154.0,162.0,0
1557,23.0,-155.0,159.0,0
1558,24.0,-145.0,149.0,0
1559,19.0,-155.0,166.0,0
1560,20.0,-154.0,162.0,0
1561,22.0,-154.0,161.0,0
1562,20.0,-152.0,162.0,0
1563,21.0,-153.0,156.0,0
1564,22.0,-155.0,166.0,0
1565,24.0,-152.0,161.0,0
1566,20.0,-154.0,162.0,0
1567,20.0,-154.0,164.0,0
1568,23.0,-153.0,161.0,0
1569,21.0,-147.0,154.0,0
1570,23.0,-156.0,161.0,0
1571,23.0,-149.0,163.0,0
1572,21.0,-156.0,157.0,0
1573,21.0,-154.0,154.0,0
1574,20.0,-155.0,159.0,0
1575,15.0,-154.0,159.0,0
1576,16.0,-154.0,160.0,0
1577,19.0,-155.0,157.0,0
1578,19.0,-156.0,162.0,0
1579,21.0,-157.0,157.0,0
1580,19.0,-155.0,161.0,0
1581,19.0,-158.0,160.0,0
1582,17.0,-156.0,155.0,0
1583,17.0,-156.0,163.0,0
1584,19.0,-157.0,158.0,0
1585,21.0,-155.0,165.0,0
1586,20.0,-158.0,164.0,0
1587,20.0,-157.0,159.0,0
1588,22.0,-159.0,163.0,0
1589,20.0,-157.0,162.0,0
1590,19.0,-155.0,159.0,0
1591,19.0,-154.0,164.0,0
1592,20.0,-156.0,159.0,0
1593,21.0,-156.0,158.0,0
1594,20.0,-159.0,158.0,0
1595,19.0,-154.0,161.0,0
1596,23.0,-154.0,160.0,0
1597,21.0,-152.0,162.0,0
1598,19.0,-154.0,159.0,0
1599,23.0,-151.0,162.0,0
1600,20.0,-153.0,163.0,0
1601,20.0,-151.0,162.0,0
1602,21.0,-151.0,161.0,0
1603,19.0,-149.0,163.0,0
1604,21.0,-151.0,161.0,0
1605,22.0,-148.0,162.0,0
1606,18.0,-148.0,158.0,0
1607,21.0,-151.0,162.0,0
1608,18.0,-152.0,163.0,0
1609,19.0,-152.0,165.0,0
1610,19.0,-151.0,165.0,0
1611,17.0,-152.0,166.0,0
1612,18.0,-153.0,166.0,0
1613,20.0,-154.0,162.0,0
1614,16.0,-152.0,164.0,0
1615,18.0,-151.0,167.0,0
1616,16.0,-150.0,163.0,0
1617,20.0,-154.0,162.0,0
1618,21.0,-152.0,160.0,0
1619,19.0,-152.0,162.0,0
1620,18.0,-154.0,160.0,0
1621,19.0,-155.0,162.0,0
1622,20.0,-152.0,163.0,0
1623,20.0,-154.0,166.0,0
1624,22.0,-154.0,163.0,0
1625,23.0,-153.0,164.0,0
1626,20.0,-152.0,165.0,0
1627,20.0,-151.0,159.0,0
1628,20.0,-153.0,155.0,0
1629,20.0,-152.0,160.0,0
1630,20.0,-151.0,159.0,0
1631,19.0,-152.0,160.0,0
1632,19.0,-152.0,161.0,0
1633,21.0,-153.0,160.0,0
1634,21.0,-152.0,160.0,0
1635,23.0,-156.0,159.0,0
1636,20.0,-153.0,163.0,0
1637,22.0,-155.0,160.0,0
1638,23.0,-153.0,161.0,0
1639,22.0,-155.0,162.0,0
1640,22.0,-153.0,162.0,0
1641,21.0,-153.0,163.0,0
1642,20.0,-152.0,167.0,0
1643,19.0,-149.0,165.0,0
1644,21.0,-155.0,159.0,0
1645,24.0,-156.0,160.0,0
1646,22.0,-152.0,164.0,0
1647,21.0,-153.0,164.0,0
1648,18.0,-150.0,164.0,0
1649,21.0,-152.0,160.0,0
1650,21.0,-154.0,166.0,0
1651,21.0,-153.0,164.0,0
1652,24.0,-155.0,163.0,0
1653,21.0,-157.0,167.0,0
1654,18.0,-152.0,165.0,0
1655,21.0,-151.0,167.0,0
1656,19.0,-154.0,165.0,0
1657,18.0,-156.0,164.0,0
1658,17.0,-155.0,165.0,0
1659,17.0,-156.0,162.0,0
1660,17.0,-155.0,160.0,0
1661,20.0,-159.0,165.0,0
1662,15.0,-157.0,164.0,0
1663,19.0,-160.0,159.0,0
1664,20.0,-159.0,163.0,0
1665,18.0,-159.0,163.0,0
1666,19.0,-159.0,161.0,0
1667,18.0,-162.0,165.0,0
1668,13.0,-160.0,162.0,0
1669,15.0,-159.0,160.0,0
1670,19.0,-160.0,157.0,0
1671,17.0,-159.0,160.0,0
1672,19.0,-159.0,160.0,0
1673,17.0,-157.0,157.0,0
1674,15.0,-158.0,159.0,0
1675,19.0,-159.0,155.0,0
1676,18.0,-157.0,161.0,0
1677,19.0,-158.0,159.0,0
1678,16.0,-176.0,164.0,0
1679,20.0,-158.0,156.0,0
1680,18.0,-156.0,159.0,0
1681,19.0,-158.0,163.0,0
1682,19.0,-161.0,159.0,0
1683,22.0,-157.0,160.0,0
1684,23.0,-160.0,160.0,0
1685,20.0,-159.0,158.0,0
1686,19.0,-159.0,157.0,0
1687,19.0,-160.0,159.0,0
1688,17.0,-162.0,156.0,0
1689,18.0,-160.0,157.0,0
1690,16.0,-159.0,160.0,0
1691,21.0,-160.0,159.0,0
1692,20.0,-160.0,158.0,0
1693,22.0,-160.0,159.0,0
1694,20.0,-158.0,158.0,0
1695,19.0,-158.0,161.0,0
1696,21.0,-157.0,163.0,0
1697,21.0,-160.0,164.0,0
1698,20.0,-158.0,160.0,0
1699,21.0,-159.0,156.0,0
1700,21.0,-154.0,162.0,0
1701,22.0,-158.0,162.0,0
1702,22.0,-158.0,160.0,0
1703,22.0,-159.0,162.0,0
1704,19.0,-157.0,160.0,0
1705,21.0,-157.0,162.0,0
1706,22.0,-160.0,163.0,0
1707,23.0,-159.0,160.0,0
1708,20.0,-160.0,160.0,0
1709,20.0,-158.0,163.0,0
1710,17.0,-156.0,164.0,0
1711,19.0,-154.0,160.0,0
1712,21.0,-158.0,162.0,0
1713,22.0,-153.0,162.0,0
1714,19.0,-155.0,159.0,0
1715,19.0,-152.0,160.0,0
1716,20.0,-157.0,159.0,0
1717,21.0,-159.0,160.0,0
1718,21.0,-159.0,156.0,0
1719,23.0,-159.0,158.0,0
1720,18.0,-158.0,161.0,0
1721,24.0,-160.0,163.0,0
1722,21.0,-157.0,159.0,0
1723,20.0,-157.0,162.0,0
1724,19.0,-158.0,162.0,0
1725,22.0,-159.0,161.0,0
1726,24.0,-159.0,159.0,0
1727,22.0,-159.0,158.0,0
1728,21.0,-160.0,161.0,0
1729,22.0,-159.0,164.0,0
1730,22.0,-161.0,160.0,0
1731,24.0,-159.0,159.0,0
1732,21.0,-159.0,159.0,0
1733,22.0,-160.0,159.0,0
1734,18.0,-159.0,161.0,0
1735,20.0,-156.0,163.0,0
1736,17.0,-157.0,161.0,0
1737,20.0,-158.0,162.0,0
1738,20.0,-156.0,159.0,0
1739,21.0,-157.0,163.0,0
1740,20.0,-158.0,158.0,0
1741,19.0,-156.0,159.0,0
1742,17.0,-155.0,164.0,0
1743,21.0,-155.0,163.0,0
1744,19.0,-154.0,163.0,0
1745,22.0,-156.0,160.0,0
1746,21.0,-157.0,163.0,0
1747,19.0,-155.0,160.0,0
1748,20.0,-154.0,164.0,0
1749,20.0,-155.0,163.0,0
1750,21.0,-153.0,165.0,0
1751,20.0,-154.0,165.0,0
1752,21.0,-156.0,165.0,0
1753,19.0,-152.0,164.0,0
1754,18.0,-154.0,159.0,0
1755,18.0,-156.0,160.0,0
1756,23.0,-154.0,160.0,0
1757,20.0,-158.0,168.0,0
1758,19.0,-154.0,164.0,0
1759,20.0,-156.0,161.0,0
1760,19.0,-157.0,164.0,0
1761,13.0,-157.0,162.0,0
1762,16.0,-154.0,160.0,0
1763,20.0,-156.0,161.0,0
1764,21.0,-156.0,161.0,0
1765,23.0,-157.0,163.0,0
1766,18.0,-156.0,160.0,0
1767,21.0,-158.0,160.0,0
1768,22.0,-155.0,159.0,0
1769,19.0,-157.0,160.0,0
1770,20.0,-157.0,163.0,0
1771,18.0,-154.0,165.0,0
1772,17.0,-156.0,159.0,0
1773,18.0,-153.0,161.0,0
1774,18.0,-155.0,160.0,0
1775,18.0,-154.0,161.0,0
1776,18.0,-153.0,158.0,0
1777,22.0,-155.0,161.0,0
1778,22.0,-157.0,158.0,0
1779,20.0,-154.0,158.0,0
1780,21.0,-158.0,162.0,0
1781,21.0,-155.0,161.0,0
1782,21.0,-158.0,161.0,0
1783,18.0,-154.0,161.0,0
1784,22.0,-155.0,162.0,0
1785,21.0,-157.0,162.0,0
1786,19.0,-152.0,163.0,0
1787,18.0,-154.0,161.0,0
1788,21.0,-156.0,160.0,0
1789,20.0,-155.0,166.0,0
1790,21.0,-155.0,163.0,0
1791,19.0,-154.0,158.0,0
1792,20.0,-156.0,158.0,0
1793,21.0,-156.0,158.0,0
1794,20.0,-155.0,162.0,0
1795,18.0,-155.0,164.0,0
1796,20.0,-155.0,160.0,0
1797,20.0,-155.0,161.0,0
1798,16.0,-154.0,162.0,0
1799,20.0,-155.0,161.0,0
1800,19.0,-155.0,162.0,0
1801,19.0,-154.0,159.0,0
1802,20.0,-155.0,164.0,0
1803,22.0,-154.0,162.0,0
1804,19.0,-154.0,160.0,0
1805,20.0,-153.0,162.0,0
1806,21.0,-157.0,161.0,0
1807,22.0,-152.0,163.0,0
1808,15.0,-147.0,163.0,0
1809,22.0,-154.0,165.0,0
1810,23.0,-154.0,163.0,0
1811,21.0,-154.0,162.0,0
1812,20.0,-155.0,159.0,0
1813,18.0,-154.0,162.0,0
1814,19.0,-155.0,160.0,0
1815,20.0,-157.0,159.0,0
1816,22.0,-157.0,163.0,0
1817,19.0,-157.0,162.0,0
1818,18.0,-153.0,162.0,0
1819,16.0,-149.0,151.0,0
1820,19.0,-154.0,164.0,0
1821,21.0,-153.0,165.0,0
1822,20.0,-154.0,162.0,0
1823,22.0,-154.0,163.0,0
1824,22.0,-154.0,159.0,0
1825,22.0,-153.0,160.0,0
1826,21.0,-157.0,158.0,0
1827,22.0,-155.0,163.0,0
1828,22.0,-155.0,163.0,0
1829,21.0,-156.0,165.0,0
1830,19.0,-154.0,172.0,0
1831,19.0,-153.0,164.0,0
1832,23.0,-154.0,161.0,0
1833,25.0,-154.0,162.0,0
1834,22.0,-154.0,160.0,0
1835,22.0,-153.0,161.0,0
1836,22.0,-155.0,159.0,0
1837,22.0,-153.0,157.0,0
1838,21.0,-154.0,161.0,0
1839,21.0,-155.0,159.0,0
1840,25.0,-156.0,161.0,0
1841,23.0,-156.0,160.0,0
1842,23.0,-156.0,162.0,0
1843,25.0,-154.0,159.0,0
1844,21.0,-155.0,162.0,0
1845,20.0,-154.0,161.0,0
1846,23.0,-154.0,161.0,0
1847,22.0,-155.0,160.0,0
1848,23.0,-153.0,162.0,0
1849,22.0,-155.0,161.0,0
1850,21.0,-154.0,162.0,0
1851,24.0,-158.0,157.0,0
1852,24.0,-154.0,163.0,0
1853,21.0,-154.0,161.0,0
1854,22.0,-153.0,165.0,0
1855,26.0,-153.0,160.0,0
1856,22.0,-151.0,167.0,0
1857,25.0,-155.0,157.0,0
1858,22.0,-151.0,161.0,0
1859,25.0,-154.0,162.0,0
1860,24.0,-154.0,164.0,0
1861,25.0,-154.0,162.0,0
1862,23.0,-153.0,163.0,0
1863,27.0,-154.0,162.0,0
1864,26.0,-152.0,164.0,0
1865,24.0,-151.0,164.0,0
1866,26.0,-152.0,163.0,0
1867,24.0,-151.0,163.0,0
1868,25.0,-152.0,163.0,0
1869,26.0,-153.0,164.0,0
1870,24.0,-153.0,160.0,0
1871,24.0,-150.0,164.0,0
1872,26.0,-154.0,164.0,0
1873,28.0,-155.0,166.0,0
1874,25.0,-154.0,163.0,0
1875,23.0,-153.0,165.0,0
1876,24.0,-150.0,163.0,0
1877,24.0,-153.0,162.0,0
1878,23.0,-152.0,162.0,0
1879,24.0,-154.0,163.0,0
1880,26.0,-152.0,161.0,0
1881,24.0,-151.0,163.0,0
1882,24.0,-154.0,165.0,0
1883,25.0,-152.0,161.0,0
1884,27.0,-153.0,164.0,0
1885,25.0,-152.0,166.0,0
1886,22.0,-153.0,164.0,0
1887,23.0,-152.0,162.0,0
1888,22.0,-152.0,162.0,0
1889,24.0,-154.0,160.0,0
1890,23.0,-154.0,161.0,0
1891,23.0,-155.0,162.0,0
1892,25.0,-154.0,161.0,0
1893,25.0,-155.0,162.0,0
1894,25.0,-155.0,163.0,0
1895,23.0,-156.0,164.0,0
1896,25.0,-156.0,165.0,0
1897,25.0,-154.0,159.0,0
1898,23.0,-156.0,161.0,0
1899,25.0,-159.0,164.0,0
1900,20.0,-154.0,160.0,0
1901,25.0,-158.0,160.0,0
1902,21.0,-155.0,163.0,0
1903,23.0,-158.0,161.0,0
1904,20.0,-157.0,161.0,0
1905,21.0,-155.0,163.0,0
1906,23.0,-155.0,162.0,0
1907,25.0,-157.0,165.0,0
1908,22.0,-153.0,161.0,0
1909,25.0,-154.0,162.0,0
1910,22.0,-156.0,163.0,0
1911,20.0,-152.0,162.0,0
1912,23.0,-156.0,164.0,0
1913,24.0,-153.0,162.0,0
1914,24.0,-155.0,160.0,0
1915,25.0,-157.0,161.0,0
1916,27.0,-155.0,160.0,0
1917,26.0,-157.0,163.0,0
1918,24.0,-155.0,160.0,0
1919,26.0,-159.0,162.0,0
1920,24.0,-157.0,161.0,0
1921,24.0,-158.0,157.0,0
1922,25.0,-154.0,159.0,0
1923,26.0,-154.0,160.0,0
1924,27.0,-160.0,157.0,0
1925,25.0,-157.0,161.0,0
1926,24.0,-155.0,160.0,0
1927,26.0,-157.0,160.0,0
1928,24.0,-156.0,162.0,0
1929,25.0,-158.0,159.0,0
1930,26.0,-155.0,158.0,0
1931,27.0,-155.0,159.0,0
1932,21.0,-152.0,163.0,0
1933,25.0,-155.0,162.0,0
1934,26.0,-155.0,162.0,0
1935,24.0,-154.0,165.0,0
1936,26.0,-152.0,165.0,0
1937,23.0,-154.0,163.0,0
1938,21.0,-154.0,159.0,0
1939,19.0,-156.0,168.0,0
1940,26.0,-155.0,161.0,0
1941,21.0,-153.0,166.0,0
1942,24.0,-154.0,162.0,0
1943,26.0,-154.0,160.0,0
1944,26.0,-155.0,161.0,0
1945,25.0,-155.0,161.0,0
1946,24.0,-154.0,163.0,0
1947,24.0,-155.0,160.0,0
1948,24.0,-152.0,159.0,0
1949,23.0,-155.0,160.0,0
1950,33.0,-148.0,147.0,0
1951,26.0,-156.0,159.0,0
1952,26.0,-158.0,160.0,0
1953,23.0,-156.0,163.0,0
1954,22.0,-157.0,162.0,0
1955,23.0,-154.0,161.0,0
1956,27.0,-158.0,160.0,0
1957,26.0,-156.0,160.0,0
1958,23.0,-156.0,160.0,0
1959,28.0,-158.0,160.0,0
1960,25.0,-158.0,156.0,0
1961,26.0,-158.0,169.0,0
1962,24.0,-158.0,161.0,0
1963,24.0,-158.0,159.0,0
1964,24.0,-154.0,160.0,0
1965,24.0,-157.0,159.0,0
1966,25.0,-156.0,158.0,0
1967,25.0,-158.0,164.0,0
1968,25.0,-157.0,157.0,0
1969,24.0,-154.0,158.0,0
1970,26.0,-156.0,160.0,0
1971,23.0,-154.0,158.0,0
1972,25.0,-158.0,164.0,0
1973,23.0,-154.0,163.0,0
1974,24.0,-159.0,161.0,0
1975,27.0,-156.0,158.0,0
1976,27.0,-154.0,163.0,0
1977,24.0,-157.0,165.0,0
1978,23.0,-157.0,158.0,0
1979,25.0,-157.0,156.0,0
1980,25.0,-157.0,162.0,0
1981,24.0,-155.0,161.0,0
1982,23.0,-153.0,160.0,0
1983,24.0,-154.0,161.0,0
1984,24.0,-157.0,164.0,0
1985,24.0,-157.0,160.0,0
1986,24.0,-157.0,160.0,0
1987,23.0,-154.0,163.0,0
1988,24.0,-156.0,162.0,0
1989,23.0,-153.0,161.0,0
1990,24.0,-153.0,165.0,0
1991,26.0,-153.0,161.0,0
1992,22.0,-157.0,166.0,0
1993,22.0,-153.0,160.0,0
1994,24.0,-153.0,162.0,0
1995,25.0,-156.0,160.0,0
1996,24.0,-155.0,160.0,0
1997,23.0,-157.0,158.0,0
1998,24.0,-155.0,162.0,0
1999,22.0,-158.0,158.0,0
2000,22.0,-157.0,159.0,0
2001,24.0,-158.0,159.0,0
2002,23.0,-157.0,160.0,0
2003,22.0,-156.0,161.0,0
2004,23.0,-158.0,156.0,0
2005,24.0,-158.0,163.0,0
2006,24.0,-158.0,160.0,0
2007,24.0,-159.0,161.0,0
2008,25.0,-158.0,161.0,0
2009,25.0,-157.0,161.0,0
2010,25.0,-158.0,160.0,0
2011,26.0,-161.0,158.0,0
2012,24.0,-158.0,159.0,0
2013,23.0,-158.0,159.0,0
2014,24.0,-157.0,158.0,0
2015,25.0,-158.0,163.0,0
2016,24.0,-155.0,162.0,0
2017,23.0,-156.0,160.0,0
2018,25.0,-160.0,160.0,0
2019,26.0,-156.0,157.0,0
2020,26.0,-155.0,161.0,0
2021,25.0,-158.0,160.0,0
2022,25.0,-157.0,156.0,0
2023,23.0,-155.0,158.0,0
2024,21.0,-159.0,162.0,0
2025,22.0,-156.0,160.0,0
2026,25.0,-158.0,160.0,0
2027,21.0,-158.0,162.0,0
2028,23.0,-157.0,161.0,0
2029,24.0,-158.0,160.0,0
2030,27.0,-157.0,158.0,0
2031,24.0,-159.0,159.0,0
2032,24.0,-156.0,161.0,0
2033,24.0,-158.0,160.0,0
2034,24.0,-157.0,161.0,0
2035,25.0,-158.0,162.0,0
2036,22.0,-159.0,161.0,0
2037,25.0,-158.0,161.0,0
2038,26.0,-158.0,157.0,0
2039,24.0,-158.0,159.0,0
2040,20.0,-157.0,160.0,0
2041,25.0,-159.0,159.0,0
2042,25.0,-159.0,158.0,0
2043,26.0,-158.0,160.0,0
2044,28.0,-159.0,157.0,0
2045,26.0,-157.0,163.0,0
2046,22.0,-158.0,159.0,0
2047,24.0,-157.0,161.0,0
2048,23.0,-159.0,159.0,0
2049,24.0,-158.0,160.0,0
2050,25.0,-159.0,158.0,0
2051,25.0,-159.0,161.0,0
2052,24.0,-158.0,159.0,0
2053,23.0,-157.0,155.0,0
2054,22.0,-158.0,157.0,0
2055,25.0,-158.0,157.0,0
2056,26.0,-159.0,159.0,0
2057,24.0,-157.0,159.0,0
2058,24.0,-159.0,158.0,0
2059,25.0,-160.0,160.0,0
2060,28.0,-158.0,157.0,0
2061,22.0,-157.0,158.0,0
2062,23.0,-158.0,158.0,0
2063,24.0,-158.0,157.0,0
2064,25.0,-160.0,159.0,0
2065,24.0,-160.0,160.0,0
2066,26.0,-159.0,162.0,0
2067,24.0,-159.0,159.0,0
2068,23.0,-157.0,158.0,0
2069,25.0,-157.0,155.0,0
2070,18.0,-148.0,152.0,0
2071,20.0,-160.0,157.0,0
2072,20.0,-159.0,153.0,0
2073,21.0,-157.0,159.0,0
2074,21.0,-159.0,159.0,0
2075,23.0,-157.0,157.0,0
2076,22.0,-161.0,156.0,0
2077,25.0,-161.0,162.0,0
2078,24.0,-159.0,160.0,0
2079,25.0,-159.0,158.0,0
2080,22.0,-159.0,157.0,0
2081,32.0,-154.0,158.0,0
2082,22.0,-159.0,156.0,0
2083,24.0,-159.0,158.0,0
2084,24.0,-159.0,158.0,0
2085,24.0,-160.0,161.0,0
2086,22.0,-160.0,162.0,0
2087,25.0,-156.0,156.0,0
2088,23.0,-158.0,157.0,0
2089,23.0,-159.0,159.0,0
2090,25.0,-161.0,158.0,0
2091,23.0,-156.0,158.0,0
2092,24.0,-167.0,171.0,0
2093,25.0,-159.0,160.0,0
2094,25.0,-160.0,159.0,0
2095,23.0,-159.0,158.0,0
2096,24.0,-156.0,155.0,0
2097,22.0,-158.0,154.0,0
2098,23.0,-156.0,159.0,0
2099,25.0,-158.0,157.0,0
2100,24.0,-160.0,159.0,0
2101,24.0,-160.0,159.0,0
2102,26.0,-158.0,160.0,0
2103,25.0,-158.0,163.0,0
2104,23.0,-158.0,162.0,0
2105,24.0,-159.0,161.0,0
2106,25.0,-162.0,162.0,0
2107,23.0,-157.0,160.0,0
2108,23.0,-159.0,162.0,0
2109,23.0,-158.0,161.0,0
2110,24.0,-159.0,162.0,0
2111,25.0,-155.0,163.0,0
2112,23.0,-157.0,159.0,0
2113,24.0,-157.0,164.0,0
2114,24.0,-158.0,164.0,0
2115,23.0,-157.0,158.0,0
2116,24.0,-154.0,163.0,0
2117,24.0,-156.0,162.0,0
2118,24.0,-156.0,160.0,0
2119,25.0,-157.0,164.0,0
2120,26.0,-154.0,164.0,0
2121,26.0,-158.0,160.0,0
2122,23.0,-157.0,160.0,0
2123,27.0,-156.0,162.0,0
2124,26.0,-155.0,162.0,0
2125,24.0,-158.0,158.0,0
2126,21.0,-155.0,161.0,0
2127,23.0,-151.0,162.0,0
2128,25.0,-156.0,160.0,0
2129,25.0,-159.0,157.0,0
2130,23.0,-158.0,159.0,0
2131,25.0,-157.0,159.0,0
2132,23.0,-156.0,164.0,0
2133,24.0,-154.0,164.0,0
2134,25.0,-157.0,159.0,0
2135,27.0,-159.0,162.0,0
2136,23.0,-159.0,162.0,0
2137,21.0,-157.0,159.0,0
2138,26.0,-157.0,160.0,0
2139,24.0,-159.0,161.0,0
2140,21.0,-158.0,165.0,0
2141,23.0,-157.0,164.0,0
2142,23.0,-154.0,162.0,0
2143,26.0,-156.0,161.0,0
2144,23.0,-158.0,161.0,0
2145,24.0,-157.0,160.0,0
2146,23.0,-155.0,159.0,0
2147,18.0,-152.0,163.0,0
2148,26.0,-154.0,163.0,0
2149,27.0,-155.0,159.0,0
2150,25.0,-155.0,163.0,0
2151,26.0,-155.0,160.0,0
2152,23.0,-154.0,160.0,0
2153,23.0,-157.0,159.0,0
2154,24.0,-154.0,163.0,0
2155,24.0,-153.0,164.0,0
2156,25.0,-156.0,160.0,0
2157,24.0,-156.0,160.0,0
2158,23.0,-155.0,160.0,0
2159,25.0,-157.0,162.0,0
2160,23.0,-153.0,160.0,0
2161,23.0,-153.0,162.0,0
2162,23.0,-156.0,160.0,0
2163,20.0,-153.0,163.0,0
2164,23.0,-158.0,162.0,0
2165,25.0,-157.0,160.0,0
2166,26.0,-157.0,164.0,0
2167,25.0,-155.0,162.0,0
2168,23.0,-152.0,160.0,0
2169,24.0,-157.0,162.0,0
2170,26.0,-154.0,164.0,0
2171,23.0,-155.0,163.0,0
2172,26.0,-155.0,162.0,0
2173,23.0,-156.0,156.0,0
2174,24.0,-157.0,164.0,0
2175,25.0,-155.0,158.0,0
2176,24.0,-157.0,159.0,0
2177,23.0,-154.0,158.0,0
2178,26.0,-157.0,158.0,0
2179,24.0,-153.0,162.0,0
2180,23.0,-153.0,163.0,0
2181,23.0,-155.0,164.0,0
2182,27.0,-156.0,160.0,0
2183,25.0,-155.0,157.0,0
2184,25.0,-155.0,166.0,0
2185,26.0,-154.0,159.0,0
2186,25.0,-155.0,164.0,0
2187,25.0,-152.0,163.0,0
2188,26.0,-153.0,164.0,0
2189,27.0,-152.0,165.0,0
2190,28.0,-154.0,161.0,0
2191,24.0,-155.0,164.0,0
2192,26.0,-155.0,162.0,0
2193,23.0,-154.0,162.0,0
2194,23.0,-153.0,160.0,0
2195,23.0,-153.0,161.0,0
2196,24.0,-157.0,164.0,0
2197,25.0,-155.0,162.0,0
2198,25.0,-154.0,164.0,0
2199,25.0,-153.0,161.0,0
2200,21.0,-153.0,159.0,0
2201,26.0,-156.0,165.0,0
2202,27.0,-154.0,158.0,0
2203,24.0,-154.0,161.0,0
2204,28.0,-155.0,160.0,0
2205,26.0,-152.0,162.0,0
2206,28.0,-155.0,165.0,0
2207,23.0,-154.0,161.0,0
2208,25.0,-155.0,164.0,0
2209,25.0,-155.0,160.0,0
2210,27.0,-155.0,160.0,0
2211,33.0,-154.0,158.0,0
2212,24.0,-153.0,164.0,0
2213,24.0,-155.0,156.0,0
2214,23.0,-155.0,159.0,0
2215,24.0,-156.0,159.0,0
2216,25.0,-156.0,162.0,0
2217,25.0,-153.0,159.0,0
2218,26.0,-154.0,158.0,0
2219,23.0,-153.0,157.0,0
2220,24.0,-156.0,161.0,0
2221,25.0,-157.0,164.0,0
2222,23.0,-160.0,167.0,0
2223,25.0,-155.0,164.0,0
2224,22.0,-151.0,164.0,0
2225,22.0,-150.0,159.0,0
2226,25.0,-152.0,164.0,0
2227,25.0,-158.0,165.0,0
2228,23.0,-151.0,161.0,0
2229,25.0,-153.0,162.0,0
2230,24.0,-151.0,161.0,0
2231,24.0,-153.0,166.0,0
2232,26.0,-153.0,166.0,0
2233,24.0,-154.0,159.0,0
2234,24.0,-152.0,162.0,0
2235,23.0,-151.0,165.0,0
2236,23.0,-157.0,164.0,0
2237,26.0,-155.0,163.0,0
2238,26.0,-154.0,160.0,0
2239,26.0,-152.0,164.0,0
2240,26.0,-155.0,166.0,0
2241,26.0,-157.0,160.0,0
2242,28.0,-155.0,164.0,0
2243,25.0,-152.0,159.0,0
2244,25.0,-154.0,162.0,0
2245,24.0,-153.0,162.0,0
2246,26.0,-151.0,160.0,0
2247,23.0,-153.0,161.0,0
2248,25.0,-152.0,164.0,0
2249,26.0,-155.0,163.0,0
2250,24.0,-155.0,161.0,0
2251,25.0,-152.0,163.0,0
2252,27.0,-152.0,162.0,0
2253,22.0,-154.0,166.0,0
2254,23.0,-151.0,164.0,0
2255,26.0,-154.0,163.0,0
2256,25.0,-151.0,164.0,0
2257,28.0,-155.0,164.0,0
2258,25.0,-152.0,164.0,0
2259,23.0,-151.0,166.0,0
2260,25.0,-152.0,164.0,0
2261,25.0,-151.0,163.0,0
2262,23.0,-153.0,162.0,0
2263,27.0,-153.0,162.0,0
2264,26.0,-153.0,162.0,0
2265,23.0,-151.0,165.0,0
2266,25.0,-151.0,165.0,0
2267,27.0,-152.0,162.0,0
2268,25.0,-156.0,167.0,0
2269,25.0,-151.0,166.0,0
2270,25.0,-154.0,165.0,0
2271,24.0,-152.0,164.0,0
2272,26.0,-152.0,164.0,0
2273,27.0,-153.0,163.0,0
2274,26.0,-153.0,159.0,0
2275,27.0,-151.0,164.0,0
2276,25.0,-154.0,160.0,0
2277,25.0,-151.0,166.0,0
2278,25.0,-151.0,164.0,0
2279,26.0,-151.0,162.0,0
2280,28.0,-150.0,161.0,0
2281,26.0,-151.0,161.0,0
2282,24.0,-152.0,160.0,0
2283,28.0,-156.0,164.0,0
2284,25.0,-152.0,162.0,0
2285,26.0,-152.0,160.0,0
2286,24.0,-152.0,163.0,0
2287,26.0,-150.0,168.0,0
2288,25.0,-152.0,164.0,0
2289,25.0,-150.0,160.0,0
2290,26.0,-151.0,160.0,0
2291,24.0,-150.0,167.0,0
2292,25.0,-151.0,161.0,0
2293,29.0,-154.0,161.0,0
2294,27.0,-151.0,165.0,0
2295,26.0,-150.0,164.0,0
2296,28.0,-152.0,165.0,0
2297,25.0,-151.0,162.0,0
2298,28.0,-154.0,163.0,0
2299,26.0,-151.0,162.0,0
2300,25.0,-154.0,166.0,0
2301,23.0,-151.0,164.0,0
2302,29.0,-155.0,165.0,0
2303,27.0,-152.0,163.0,0
2304,26.0,-152.0,160.0,0
2305,28.0,-153.0,162.0,0
2306,27.0,-153.0,162.0,0
2307,27.0,-152.0,165.0,0
2308,26.0,-153.0,163.0,0
2309,27.0,-155.0,166.0,0
2310,25.0,-152.0,162.0,0
2311,26.0,-153.0,163.0,0
2312,25.0,-151.0,156.0,0
2313,25.0,-152.0,165.0,0
2314,27.0,-149.0,163.0,0
2315,26.0,-153.0,161.0,0
2316,27.0,-153.0,161.0,0
2317,26.0,-150.0,167.0,0
2318,26.0,-151.0,163.0,0
2319,25.0,-151.0,164.0,0
2320,27.0,-151.0,166.0,0
2321,27.0,-154.0,166.0,0
2322,23.0,-153.0,164.0,0
2323,23.0,-152.0,161.0,0
2324,28.0,-157.0,160.0,0
2325,24.0,-153.0,163.0,0
2326,27.0,-153.0,166.0,0
2327,26.0,-153.0,161.0,0
2328,27.0,-155.0,160.0,0
2329,26.0,-154.0,163.0,0
2330,26.0,-154.0,165.0,0
2331,27.0,-153.0,162.0,0
2332,27.0,-154.0,165.0,0
2333,28.0,-151.0,161.0,0
2334,28.0,-154.0,167.0,0
2335,31.0,-153.0,164.0,0
2336,30.0,-154.0,167.0,0
2337,28.0,-154.0,165.0,0
2338,26.0,-151.0,162.0,0
2339,25.0,-151.0,164.0,0
2340,26.0,-149.0,162.0,0
2341,24.0,-148.0,163.0,0
2342,23.0,-146.0,148.0,0
2343,25.0,-151.0,162.0,0
2344,26.0,-151.0,165.0,0
2345,26.0,-153.0,162.0,0
2346,27.0,-154.0,163.0,0
2347,23.0,-152.0,165.0,0
2348,22.0,-152.0,163.0,0
2349,25.0,-150.0,162.0,0
2350,25.0,-150.0,163.0,0
2351,27.0,-153.0,160.0,0
2352,27.0,-153.0,168.0,0
2353,27.0,-153.0,164.0,0
2354,28.0,-153.0,161.0,0
2355,27.0,-154.0,168.0,0
2356,27.0,-154.0,168.0,0
2357,28.0,-152.0,164.0,0
2358,12.0,-141.0,151.0,0
2359,22.0,-156.0,159.0,0
2360,28.0,-154.0,168.0,0
2361,29.0,-150.0,162.0,0
2362,28.0,-154.0,165.0,0
2363,26.0,-152.0,162.0,0
2364,29.0,-153.0,160.0,0
2365,28.0,-152.0,161.0,0
2366,25.0,-151.0,159.0,0
2367,25.0,-145.0,170.0,0
2368,28.0,-152.0,159.0,0
2369,25.0,-153.0,165.0,0
2370,25.0,-148.0,162.0,0
2371,27.0,-154.0,165.0,0
2372,27.0,-151.0,168.0,0
2373,25.0,-150.0,164.0,0
2374,24.0,-153.0,162.0,0
2375,27.0,-136.0,165.0,0
2376,28.0,-152.0,164.0,0
2377,26.0,-151.0,163.0,0
2378,27.0,-154.0,165.0,0
2379,25.0,-151.0,162.0,0
2380,19.0,-152.0,171.0,0
2381,31.0,-153.0,165.0,0
2382,25.0,-152.0,166.0,0
2383,26.0,-151.0,166.0,0
2384,26.0,-155.0,165.0,0
2385,27.0,-152.0,165.0,0
2386,25.0,-153.0,160.0,0
2387,29.0,-151.0,164.0,0
2388,25.0,-143.0,127.0,0
2389,20.0,-142.0,183.0,0
2390,24.0,-166.0,160.0,0
2391,15.0,-146.0,167.0,0
2392,13.0,-162.0,172.0,0
2393,31.0,-152.0,152.0,0
2394,19.0,-153.0,159.0,0
2395,21.0,-159.0,191.0,0
2396,35.0,-153.0,172.0,0
2397,38.0,-153.0,133.0,0
2398,32.0,-158.0,158.0,0
2399,17.0,-157.0,162.0,0
2400,27.0,-147.0,163.0,0
