,accelerometer_x,accelerometer_y,accelerometer_z,fall
0,14.0,-222.0,-101.0,0
1,10.0,-227.0,-104.0,0
2,13.0,-227.0,-103.0,0
3,12.0,-228.0,-109.0,0
4,10.0,-222.0,-102.0,0
5,12.0,-222.0,-105.0,0
6,9.0,-223.0,-102.0,0
7,12.0,-227.0,-105.0,0
8,11.0,-225.0,-102.0,0
9,10.0,-221.0,-104.0,0
10,7.0,-223.0,-104.0,0
11,11.0,-223.0,-108.0,0
12,12.0,-222.0,-106.0,0
13,12.0,-224.0,-101.0,0
14,13.0,-227.0,-105.0,0
15,15.0,-224.0,-103.0,0
16,12.0,-228.0,-102.0,0
17,11.0,-223.0,-109.0,0
18,12.0,-221.0,-105.0,0
19,13.0,-224.0,-108.0,0
20,11.0,-223.0,-105.0,0
21,8.0,-222.0,-106.0,0
22,12.0,-221.0,-107.0,0
23,15.0,-224.0,-111.0,0
24,16.0,-225.0,-107.0,0
25,8.0,-220.0,-109.0,0
26,12.0,-223.0,-109.0,0
27,14.0,-224.0,-106.0,0
28,12.0,-225.0,-105.0,0
29,11.0,-227.0,-104.0,0
30,7.0,-225.0,-105.0,0
31,9.0,-224.0,-103.0,0
32,11.0,-224.0,-108.0,0
33,11.0,-225.0,-109.0,0
34,8.0,-226.0,-111.0,0
35,13.0,-223.0,-109.0,0
36,14.0,-221.0,-110.0,0
37,10.0,-230.0,-106.0,0
38,12.0,-223.0,-107.0,0
39,9.0,-224.0,-106.0,0
40,14.0,-228.0,-110.0,0
41,9.0,-228.0,-111.0,0
42,13.0,-226.0,-107.0,0
43,11.0,-224.0,-108.0,0
44,10.0,-226.0,-112.0,0
45,10.0,-225.0,-108.0,0
46,7.0,-223.0,-110.0,0
47,11.0,-226.0,-106.0,0
48,11.0,-226.0,-114.0,0
49,12.0,-220.0,-109.0,0
50,12.0,-223.0,-107.0,0
51,14.0,-222.0,-109.0,0
52,10.0,-222.0,-109.0,0
53,11.0,-223.0,-109.0,0
54,13.0,-218.0,-109.0,0
55,14.0,-222.0,-104.0,0
56,10.0,-221.0,-103.0,0
57,10.0,-220.0,-106.0,0
58,14.0,-226.0,-107.0,0
59,23.0,-218.0,-112.0,0
60,11.0,-220.0,-108.0,0
61,13.0,-221.0,-108.0,0
62,11.0,-222.0,-112.0,0
63,14.0,-223.0,-112.0,0
64,13.0,-221.0,-112.0,0
65,9.0,-223.0,-113.0,0
66,11.0,-223.0,-112.0,0
67,10.0,-221.0,-112.0,0
68,12.0,-222.0,-107.0,0
69,9.0,-221.0,-109.0,0
70,13.0,-217.0,-113.0,0
71,12.0,-223.0,-109.0,0
72,12.0,-223.0,-113.0,0
73,11.0,-223.0,-110.0,0
74,13.0,-221.0,-108.0,0
75,14.0,-224.0,-108.0,0
76,13.0,-223.0,-112.0,0
77,15.0,-224.0,-109.0,0
78,12.0,-221.0,-108.0,0
79,12.0,-222.0,-109.0,0
80,14.0,-222.0,-112.0,0
81,13.0,-225.0,-111.0,0
82,15.0,-223.0,-109.0,0
83,14.0,-224.0,-113.0,0
84,14.0,-222.0,-108.0,0
85,15.0,-221.0,-111.0,0
86,13.0,-223.0,-107.0,0
87,13.0,-221.0,-109.0,0
88,13.0,-226.0,-111.0,0
89,17.0,-222.0,-109.0,0
90,9.0,-219.0,-114.0,0
91,13.0,-222.0,-113.0,0
92,14.0,-219.0,-117.0,0
93,12.0,-219.0,-105.0,0
94,12.0,-220.0,-110.0,0
95,10.0,-218.0,-108.0,0
96,10.0,-220.0,-108.0,0
97,12.0,-220.0,-111.0,0
98,11.0,-220.0,-110.0,0
99,12.0,-222.0,-111.0,0
100,15.0,-226.0,-110.0,0
101,11.0,-221.0,-111.0,0
102,11.0,-222.0,-106.0,0
103,9.0,-225.0,-111.0,0
104,12.0,-219.0,-111.0,0
105,12.0,-221.0,-113.0,0
106,11.0,-220.0,-112.0,0
107,13.0,-223.0,-111.0,0
108,12.0,-219.0,-110.0,0
109,10.0,-219.0,-112.0,0
110,15.0,-226.0,-112.0,0
111,10.0,-218.0,-111.0,0
112,15.0,-222.0,-111.0,0
113,8.0,-218.0,-112.0,0
114,12.0,-218.0,-111.0,0
115,13.0,-217.0,-114.0,0
116,12.0,-220.0,-110.0,0
117,12.0,-218.0,-115.0,0
118,15.0,-221.0,-111.0,0
119,11.0,-218.0,-109.0,0
120,8.0,-220.0,-114.0,0
121,8.0,-219.0,-115.0,0
122,10.0,-218.0,-114.0,0
123,11.0,-219.0,-113.0,0
124,11.0,-225.0,-114.0,0
125,11.0,-222.0,-112.0,0
126,12.0,-223.0,-114.0,0
127,8.0,-217.0,-107.0,0
128,14.0,-225.0,-111.0,0
129,13.0,-222.0,-108.0,0
130,13.0,-225.0,-115.0,0
131,13.0,-225.0,-108.0,0
132,12.0,-224.0,-114.0,0
133,13.0,-224.0,-110.0,0
134,17.0,-223.0,-113.0,0
135,17.0,-226.0,-107.0,0
136,13.0,-224.0,-112.0,0
137,14.0,-226.0,-110.0,0
138,11.0,-223.0,-112.0,0
139,12.0,-219.0,-111.0,0
140,16.0,-222.0,-114.0,0
141,11.0,-222.0,-115.0,0
142,11.0,-223.0,-113.0,0
143,13.0,-218.0,-113.0,0
144,11.0,-220.0,-112.0,0
145,13.0,-219.0,-111.0,0
146,13.0,-217.0,-107.0,0
147,13.0,-215.0,-115.0,0
148,13.0,-218.0,-112.0,0
149,14.0,-220.0,-113.0,0
150,15.0,-220.0,-114.0,0
151,15.0,-218.0,-116.0,0
152,13.0,-220.0,-115.0,0
153,13.0,-218.0,-114.0,0
154,13.0,-221.0,-113.0,0
155,16.0,-218.0,-112.0,0
156,14.0,-225.0,-114.0,0
157,17.0,-224.0,-111.0,0
158,11.0,-220.0,-114.0,0
159,13.0,-218.0,-114.0,0
160,13.0,-222.0,-114.0,0
161,11.0,-221.0,-110.0,0
162,12.0,-220.0,-113.0,0
163,10.0,-217.0,-113.0,0
164,13.0,-222.0,-111.0,0
165,11.0,-221.0,-108.0,0
166,11.0,-223.0,-118.0,0
167,10.0,-220.0,-113.0,0
168,11.0,-222.0,-113.0,0
169,13.0,-222.0,-115.0,0
170,9.0,-222.0,-117.0,0
171,11.0,-222.0,-113.0,0
172,12.0,-221.0,-116.0,0
173,13.0,-221.0,-112.0,0
174,12.0,-221.0,-114.0,0
175,14.0,-221.0,-112.0,0
176,10.0,-221.0,-111.0,0
177,10.0,-220.0,-114.0,0
178,11.0,-221.0,-112.0,0
179,12.0,-221.0,-107.0,0
180,14.0,-223.0,-113.0,0
181,14.0,-223.0,-112.0,0
182,14.0,-223.0,-108.0,0
183,12.0,-222.0,-111.0,0
184,15.0,-222.0,-109.0,0
185,12.0,-222.0,-114.0,0
186,13.0,-221.0,-111.0,0
187,11.0,-219.0,-112.0,0
188,16.0,-221.0,-108.0,0
189,10.0,-218.0,-111.0,0
190,9.0,-221.0,-107.0,0
191,11.0,-219.0,-111.0,0
192,10.0,-219.0,-110.0,0
193,15.0,-219.0,-113.0,0
194,11.0,-217.0,-115.0,0
195,12.0,-220.0,-109.0,0
196,11.0,-217.0,-111.0,0
197,13.0,-220.0,-110.0,0
198,12.0,-219.0,-112.0,0
199,14.0,-220.0,-111.0,0
200,11.0,-218.0,-111.0,0
201,8.0,-222.0,-105.0,0
202,8.0,-216.0,-112.0,0
203,12.0,-222.0,-109.0,0
204,14.0,-221.0,-111.0,0
205,11.0,-219.0,-107.0,0
206,12.0,-220.0,-111.0,0
207,12.0,-221.0,-108.0,0
208,14.0,-222.0,-109.0,0
209,10.0,-221.0,-110.0,0
210,14.0,-222.0,-111.0,0
211,11.0,-218.0,-116.0,0
212,10.0,-218.0,-110.0,0
213,15.0,-222.0,-113.0,0
214,13.0,-220.0,-112.0,0
215,12.0,-220.0,-110.0,0
216,13.0,-222.0,-112.0,0
217,10.0,-221.0,-109.0,0
218,13.0,-222.0,-111.0,0
219,12.0,-222.0,-113.0,0
220,14.0,-227.0,-112.0,0
221,13.0,-226.0,-108.0,0
222,11.0,-224.0,-113.0,0
223,12.0,-224.0,-113.0,0
224,13.0,-225.0,-114.0,0
225,14.0,-227.0,-113.0,0
226,14.0,-228.0,-114.0,0
227,12.0,-225.0,-112.0,0
228,14.0,-225.0,-110.0,0
229,15.0,-224.0,-113.0,0
230,14.0,-223.0,-114.0,0
231,14.0,-224.0,-111.0,0
232,13.0,-223.0,-117.0,0
233,12.0,-219.0,-115.0,0
234,12.0,-219.0,-114.0,0
235,12.0,-218.0,-114.0,0
236,10.0,-220.0,-115.0,0
237,12.0,-221.0,-115.0,0
238,15.0,-220.0,-117.0,0
239,11.0,-220.0,-113.0,0
240,13.0,-219.0,-117.0,0
241,12.0,-221.0,-113.0,0
242,16.0,-218.0,-115.0,0
243,13.0,-218.0,-115.0,0
244,13.0,-220.0,-110.0,0
245,13.0,-214.0,-111.0,0
246,10.0,-217.0,-111.0,0
247,13.0,-217.0,-113.0,0
248,11.0,-217.0,-109.0,0
249,12.0,-219.0,-114.0,0
250,10.0,-218.0,-114.0,0
251,8.0,-217.0,-115.0,0
252,9.0,-224.0,-108.0,0
253,11.0,-220.0,-114.0,0
254,6.0,-221.0,-113.0,0
255,8.0,-227.0,-106.0,0
256,9.0,-222.0,-108.0,0
257,8.0,-225.0,-111.0,0
258,10.0,-227.0,-113.0,0
259,10.0,-225.0,-109.0,0
260,10.0,-225.0,-110.0,0
261,7.0,-222.0,-108.0,0
262,9.0,-222.0,-109.0,0
263,11.0,-227.0,-112.0,0
264,11.0,-223.0,-106.0,0
265,11.0,-225.0,-111.0,0
266,11.0,-223.0,-112.0,0
267,11.0,-224.0,-112.0,0
268,9.0,-219.0,-109.0,0
269,14.0,-222.0,-106.0,0
270,14.0,-221.0,-106.0,0
271,14.0,-220.0,-106.0,0
272,13.0,-221.0,-106.0,0
273,12.0,-223.0,-106.0,0
274,5.0,-215.0,-106.0,0
275,10.0,-219.0,-110.0,0
276,13.0,-220.0,-105.0,0
277,6.0,-215.0,-102.0,0
278,13.0,-217.0,-105.0,0
279,11.0,-216.0,-110.0,0
280,10.0,-216.0,-111.0,0
281,11.0,-220.0,-108.0,0
282,12.0,-223.0,-111.0,0
283,12.0,-220.0,-111.0,0
284,12.0,-218.0,-110.0,0
285,13.0,-223.0,-114.0,0
286,11.0,-222.0,-107.0,0
287,14.0,-226.0,-113.0,0
288,11.0,-226.0,-105.0,0
289,14.0,-227.0,-111.0,0
290,16.0,-224.0,-114.0,0
291,14.0,-224.0,-113.0,0
292,9.0,-224.0,-112.0,0
293,13.0,-224.0,-116.0,0
294,14.0,-220.0,-114.0,0
295,15.0,-221.0,-109.0,0
296,13.0,-221.0,-112.0,0
297,15.0,-225.0,-115.0,0
298,10.0,-219.0,-110.0,0
299,14.0,-220.0,-114.0,0
300,15.0,-219.0,-112.0,0
301,15.0,-219.0,-112.0,0
302,13.0,-217.0,-110.0,0
303,14.0,-217.0,-109.0,0
304,12.0,-216.0,-112.0,0
305,12.0,-215.0,-110.0,0
306,12.0,-220.0,-109.0,0
307,16.0,-216.0,-107.0,0
308,10.0,-218.0,-110.0,0
309,9.0,-219.0,-106.0,0
310,7.0,-218.0,-109.0,0
311,7.0,-221.0,-110.0,0
312,13.0,-221.0,-113.0,0
313,11.0,-220.0,-111.0,0
314,11.0,-221.0,-112.0,0
315,12.0,-221.0,-109.0,0
316,12.0,-221.0,-114.0,0
317,14.0,-222.0,-114.0,0
318,10.0,-220.0,-112.0,0
319,12.0,-214.0,-109.0,0
320,18.0,-221.0,-118.0,0
321,13.0,-222.0,-112.0,0
322,11.0,-222.0,-112.0,0
323,11.0,-221.0,-118.0,0
324,13.0,-224.0,-114.0,0
325,13.0,-220.0,-113.0,0
326,15.0,-223.0,-117.0,0
327,13.0,-219.0,-115.0,0
328,8.0,-222.0,-112.0,0
329,12.0,-222.0,-117.0,0
330,13.0,-218.0,-112.0,0
331,13.0,-214.0,-120.0,0
332,11.0,-218.0,-114.0,0
333,17.0,-220.0,-114.0,0
334,11.0,-219.0,-113.0,0
335,12.0,-218.0,-112.0,0
336,10.0,-218.0,-110.0,0
337,12.0,-221.0,-111.0,0
338,11.0,-219.0,-113.0,0
339,11.0,-219.0,-114.0,0
340,10.0,-215.0,-115.0,0
341,10.0,-222.0,-111.0,0
342,16.0,-222.0,-109.0,0
343,14.0,-221.0,-115.0,0
344,10.0,-220.0,-116.0,0
345,13.0,-221.0,-114.0,0
346,11.0,-217.0,-112.0,0
347,15.0,-220.0,-112.0,0
348,12.0,-219.0,-112.0,0
349,11.0,-217.0,-116.0,0
350,7.0,-220.0,-118.0,0
351,11.0,-219.0,-116.0,0
352,10.0,-220.0,-117.0,0
353,10.0,-224.0,-111.0,0
354,10.0,-222.0,-117.0,0
355,11.0,-225.0,-115.0,0
356,13.0,-227.0,-114.0,0
357,12.0,-225.0,-113.0,0
358,15.0,-225.0,-109.0,0
359,13.0,-226.0,-114.0,0
360,13.0,-226.0,-114.0,0
361,13.0,-221.0,-116.0,0
362,12.0,-221.0,-112.0,0
363,12.0,-225.0,-112.0,0
364,15.0,-225.0,-121.0,0
365,13.0,-222.0,-115.0,0
366,13.0,-224.0,-115.0,0
367,11.0,-219.0,-114.0,0
368,13.0,-221.0,-111.0,0
369,9.0,-220.0,-112.0,0
370,11.0,-217.0,-115.0,0
371,10.0,-220.0,-113.0,0
372,9.0,-217.0,-114.0,0
373,12.0,-217.0,-112.0,0
374,10.0,-215.0,-114.0,0
375,23.0,-216.0,-111.0,0
376,12.0,-218.0,-111.0,0
377,12.0,-218.0,-115.0,0
378,10.0,-218.0,-114.0,0
379,11.0,-219.0,-114.0,0
380,11.0,-217.0,-114.0,0
381,10.0,-217.0,-115.0,0
382,10.0,-218.0,-117.0,0
383,10.0,-221.0,-112.0,0
384,13.0,-219.0,-112.0,0
385,11.0,-220.0,-112.0,0
386,16.0,-220.0,-114.0,0
387,10.0,-218.0,-113.0,0
388,13.0,-220.0,-115.0,0
389,12.0,-220.0,-113.0,0
390,13.0,-219.0,-115.0,0
391,10.0,-219.0,-111.0,0
392,12.0,-220.0,-113.0,0
393,15.0,-223.0,-116.0,0
394,13.0,-221.0,-115.0,0
395,13.0,-219.0,-114.0,0
396,12.0,-211.0,-117.0,0
397,16.0,-209.0,-115.0,0
398,14.0,-217.0,-117.0,0
399,11.0,-215.0,-118.0,0
400,14.0,-215.0,-117.0,0
401,12.0,-217.0,-112.0,0
402,11.0,-218.0,-120.0,0
403,12.0,-218.0,-117.0,0
404,12.0,-218.0,-110.0,0
405,9.0,-220.0,-116.0,0
406,11.0,-216.0,-118.0,0
407,11.0,-220.0,-112.0,0
408,12.0,-219.0,-116.0,0
409,15.0,-222.0,-116.0,0
410,12.0,-224.0,-115.0,0
411,12.0,-223.0,-115.0,0
412,14.0,-220.0,-117.0,0
413,13.0,-224.0,-112.0,0
414,15.0,-225.0,-119.0,0
415,13.0,-222.0,-114.0,0
416,11.0,-220.0,-117.0,0
417,9.0,-217.0,-116.0,0
418,10.0,-213.0,-114.0,0
419,12.0,-221.0,-113.0,0
420,14.0,-221.0,-117.0,0
421,13.0,-222.0,-113.0,0
422,12.0,-219.0,-115.0,0
423,14.0,-221.0,-113.0,0
424,13.0,-216.0,-112.0,0
425,11.0,-218.0,-115.0,0
426,9.0,-219.0,-112.0,0
427,7.0,-218.0,-113.0,0
428,8.0,-215.0,-115.0,0
429,13.0,-219.0,-110.0,0
430,10.0,-218.0,-117.0,0
431,14.0,-217.0,-115.0,0
432,9.0,-219.0,-113.0,0
433,12.0,-220.0,-114.0,0
434,14.0,-222.0,-116.0,0
435,12.0,-218.0,-112.0,0
436,13.0,-220.0,-111.0,0
437,12.0,-220.0,-117.0,0
438,14.0,-223.0,-112.0,0
439,14.0,-223.0,-110.0,0
440,13.0,-221.0,-114.0,0
441,10.0,-217.0,-112.0,0
442,13.0,-221.0,-113.0,0
443,9.0,-222.0,-114.0,0
444,12.0,-223.0,-115.0,0
445,11.0,-220.0,-114.0,0
446,10.0,-217.0,-112.0,0
447,10.0,-224.0,-113.0,0
448,14.0,-224.0,-110.0,0
449,13.0,-222.0,-115.0,0
450,14.0,-227.0,-108.0,0
451,10.0,-225.0,-112.0,0
452,11.0,-219.0,-112.0,0
453,12.0,-225.0,-115.0,0
454,12.0,-223.0,-115.0,0
455,11.0,-224.0,-114.0,0
456,14.0,-221.0,-113.0,0
457,10.0,-220.0,-112.0,0
458,14.0,-221.0,-115.0,0
459,14.0,-220.0,-114.0,0
460,15.0,-221.0,-113.0,0
461,10.0,-217.0,-122.0,0
462,8.0,-223.0,-109.0,0
463,9.0,-221.0,-113.0,0
464,12.0,-220.0,-112.0,0
465,9.0,-220.0,-115.0,0
466,7.0,-221.0,-111.0,0
467,13.0,-221.0,-113.0,0
468,12.0,-222.0,-108.0,0
469,14.0,-221.0,-108.0,0
470,14.0,-220.0,-115.0,0
471,12.0,-222.0,-108.0,0
472,8.0,-221.0,-111.0,0
473,13.0,-228.0,-109.0,0
474,9.0,-223.0,-111.0,0
475,11.0,-221.0,-110.0,0
476,9.0,-221.0,-110.0,0
477,9.0,-225.0,-110.0,0
478,9.0,-221.0,-111.0,0
479,8.0,-225.0,-111.0,0
480,10.0,-220.0,-110.0,0
481,8.0,-223.0,-107.0,0
482,9.0,-226.0,-110.0,0
483,9.0,-220.0,-108.0,0
484,12.0,-230.0,-113.0,0
485,10.0,-221.0,-107.0,0
486,11.0,-225.0,-107.0,0
487,8.0,-220.0,-108.0,0
488,10.0,-222.0,-106.0,0
489,10.0,-220.0,-114.0,0
490,8.0,-220.0,-107.0,0
491,10.0,-221.0,-112.0,0
492,12.0,-224.0,-112.0,0
493,13.0,-220.0,-112.0,0
494,10.0,-221.0,-112.0,0
495,13.0,-225.0,-118.0,0
496,11.0,-225.0,-111.0,0
497,14.0,-230.0,-113.0,0
498,16.0,-224.0,-112.0,0
499,14.0,-225.0,-106.0,0
500,13.0,-229.0,-111.0,0
501,12.0,-226.0,-108.0,0
502,12.0,-223.0,-107.0,0
503,10.0,-221.0,-111.0,0
504,13.0,-219.0,-113.0,0
505,10.0,-223.0,-113.0,0
506,9.0,-227.0,-112.0,0
507,11.0,-222.0,-106.0,0
508,12.0,-220.0,-104.0,0
509,7.0,-222.0,-107.0,0
510,9.0,-223.0,-106.0,0
511,10.0,-221.0,-105.0,0
512,8.0,-224.0,-107.0,0
513,6.0,-220.0,-104.0,0
514,8.0,-219.0,-105.0,0
515,8.0,-227.0,-101.0,0
516,11.0,-224.0,-101.0,0
517,17.0,-222.0,-93.0,0
518,9.0,-222.0,-107.0,0
519,10.0,-224.0,-104.0,0
520,9.0,-223.0,-105.0,0
521,10.0,-223.0,-103.0,0
522,10.0,-224.0,-106.0,0
523,11.0,-224.0,-98.0,0
524,7.0,-220.0,-107.0,0
525,9.0,-224.0,-104.0,0
526,6.0,-218.0,-102.0,0
527,13.0,-222.0,-105.0,0
528,10.0,-223.0,-102.0,0
529,7.0,-223.0,-106.0,0
530,11.0,-222.0,-105.0,0
531,12.0,-224.0,-102.0,0
532,9.0,-223.0,-103.0,0
533,10.0,-224.0,-105.0,0
534,8.0,-223.0,-108.0,0
535,14.0,-222.0,-103.0,0
536,12.0,-227.0,-106.0,0
537,10.0,-217.0,-108.0,0
538,9.0,-225.0,-107.0,0
539,10.0,-228.0,-102.0,0
540,9.0,-225.0,-106.0,0
541,9.0,-227.0,-106.0,0
542,10.0,-226.0,-104.0,0
543,7.0,-225.0,-104.0,0
544,9.0,-227.0,-102.0,0
545,12.0,-231.0,-102.0,0
546,9.0,-224.0,-103.0,0
547,9.0,-222.0,-106.0,0
548,7.0,-224.0,-100.0,0
549,6.0,-223.0,-105.0,0
550,10.0,-225.0,-100.0,0
551,8.0,-223.0,-102.0,0
552,9.0,-222.0,-101.0,0
553,7.0,-222.0,-101.0,0
554,8.0,-219.0,-107.0,0
555,13.0,-221.0,-102.0,0
556,9.0,-220.0,-105.0,0
557,14.0,-227.0,-106.0,0
558,9.0,-223.0,-106.0,0
559,12.0,-224.0,-112.0,0
560,13.0,-221.0,-108.0,0
561,14.0,-227.0,-109.0,0
562,12.0,-226.0,-109.0,0
563,10.0,-225.0,-110.0,0
564,12.0,-223.0,-107.0,0
565,10.0,-223.0,-108.0,0
566,13.0,-226.0,-103.0,0
567,8.0,-225.0,-100.0,0
568,8.0,-223.0,-108.0,0
569,13.0,-220.0,-97.0,0
570,12.0,-221.0,-103.0,0
571,8.0,-215.0,-102.0,0
572,8.0,-221.0,-98.0,0
573,10.0,-221.0,-100.0,0
574,12.0,-222.0,-98.0,0
575,8.0,-222.0,-99.0,0
576,11.0,-224.0,-102.0,0
577,9.0,-223.0,-98.0,0
578,9.0,-221.0,-98.0,0
579,7.0,-224.0,-101.0,0
580,8.0,-221.0,-101.0,0
581,4.0,-221.0,-101.0,0
582,10.0,-223.0,-105.0,0
583,3.0,-221.0,-102.0,0
584,7.0,-221.0,-104.0,0
585,6.0,-222.0,-106.0,0
586,6.0,-223.0,-106.0,0
587,7.0,-222.0,-104.0,0
588,8.0,-224.0,-105.0,0
589,8.0,-221.0,-108.0,0
590,8.0,-219.0,-114.0,0
591,12.0,-216.0,-108.0,0
592,10.0,-218.0,-109.0,0
593,10.0,-220.0,-116.0,0
594,10.0,-215.0,-112.0,0
595,15.0,-214.0,-115.0,0
596,12.0,-212.0,-113.0,0
597,14.0,-208.0,-112.0,0
598,11.0,-206.0,-115.0,0
599,12.0,-202.0,-116.0,0
600,14.0,-197.0,-122.0,0
601,14.0,-193.0,-117.0,0
602,17.0,-188.0,-115.0,0
603,11.0,-186.0,-124.0,0
604,13.0,-185.0,-119.0,0
605,17.0,-180.0,-126.0,0
606,18.0,-176.0,-121.0,0
607,21.0,-171.0,-126.0,0
608,23.0,-169.0,-126.0,0
609,25.0,-166.0,-124.0,0
610,26.0,-162.0,-124.0,0
611,23.0,-155.0,-128.0,0
612,28.0,-153.0,-129.0,0
613,23.0,-146.0,-134.0,0
614,31.0,-144.0,-128.0,0
615,29.0,-144.0,-131.0,0
616,26.0,-133.0,-135.0,0
617,31.0,-130.0,-135.0,0
618,32.0,-128.0,-133.0,0
619,31.0,-124.0,-133.0,0
620,34.0,-116.0,-129.0,0
621,36.0,-117.0,-131.0,0
622,34.0,-106.0,-130.0,0
623,31.0,-104.0,-127.0,0
624,24.0,-97.0,-125.0,0
625,21.0,-90.0,-116.0,0
626,13.0,-86.0,-109.0,0
627,7.0,-81.0,-106.0,0
628,2.0,-80.0,-101.0,0
629,1.0,-76.0,-89.0,0
630,-6.0,-70.0,-81.0,0
631,-11.0,-65.0,-75.0,0
632,-14.0,-65.0,-73.0,0
633,-17.0,-63.0,-64.0,0
634,-14.0,-59.0,-64.0,0
635,-6.0,-61.0,-65.0,0
636,-8.0,-59.0,-64.0,0
637,-7.0,-51.0,-71.0,0
638,0.0,-50.0,-76.0,0
639,-2.0,-43.0,-82.0,0
640,4.0,-46.0,-90.0,0
641,10.0,-45.0,-100.0,0
642,14.0,-50.0,-107.0,0
643,11.0,-48.0,-116.0,0
644,18.0,-57.0,-125.0,0
645,16.0,-64.0,-142.0,0
646,21.0,-65.0,-150.0,0
647,26.0,-74.0,-158.0,0
648,25.0,-82.0,-180.0,0
649,29.0,-96.0,-192.0,0
650,31.0,-109.0,-201.0,0
651,24.0,-128.0,-213.0,0
652,23.0,-144.0,-223.0,0
653,28.0,-166.0,-233.0,0
654,23.0,-188.0,-242.0,0
655,24.0,-209.0,-248.0,0
656,32.0,-226.0,-257.0,0
657,32.0,-236.0,-257.0,0
658,37.0,-233.0,-258.0,0
659,50.0,-234.0,-256.0,0
660,53.0,-230.0,-256.0,0
661,51.0,-227.0,-250.0,0
662,43.0,-226.0,-245.0,0
663,38.0,-227.0,-238.0,0
664,27.0,-228.0,-234.0,0
665,19.0,-240.0,-223.0,0
666,11.0,-243.0,-214.0,0
667,10.0,-253.0,-202.0,0
668,3.0,-257.0,-190.0,0
669,5.0,-260.0,-192.0,0
670,8.0,-271.0,-193.0,0
671,9.0,-271.0,-195.0,0
672,11.0,-266.0,-190.0,0
673,10.0,-257.0,-194.0,0
674,10.0,-236.0,-204.0,0
675,17.0,-214.0,-214.0,0
676,21.0,-195.0,-225.0,0
677,20.0,-178.0,-220.0,0
678,21.0,-175.0,-229.0,0
679,24.0,-175.0,-231.0,0
680,21.0,-175.0,-218.0,0
681,20.0,-179.0,-214.0,0
682,16.0,-181.0,-209.0,0
683,17.0,-182.0,-207.0,0
684,14.0,-181.0,-206.0,0
685,8.0,-171.0,-204.0,0
686,6.0,-157.0,-205.0,0
687,6.0,-146.0,-205.0,0
688,3.0,-129.0,-205.0,0
689,14.0,-113.0,-217.0,0
690,4.0,-105.0,-200.0,0
691,5.0,-99.0,-213.0,0
692,13.0,-99.0,-206.0,0
693,13.0,-101.0,-201.0,0
694,14.0,-107.0,-199.0,0
695,16.0,-111.0,-194.0,0
696,14.0,-124.0,-191.0,0
697,16.0,-135.0,-189.0,0
698,14.0,-143.0,-190.0,0
699,12.0,-158.0,-188.0,0
700,15.0,-179.0,-189.0,0
701,6.0,-201.0,-188.0,0
702,7.0,-234.0,-197.0,0
703,5.0,-261.0,-212.0,0
704,13.0,-279.0,-242.0,0
705,14.0,-284.0,-267.0,0
706,-6.0,-261.0,-309.0,0
707,-12.0,-215.0,-344.0,0
708,-5.0,-167.0,-395.0,0
709,10.0,-133.0,-433.0,0
710,31.0,-107.0,-479.0,0
711,34.0,-108.0,-508.0,0
712,44.0,-142.0,-523.0,0
713,46.0,-189.0,-525.0,0
714,69.0,-222.0,-503.0,0
715,4.0,-248.0,-472.0,0
716,-27.0,-252.0,-444.0,0
717,3.0,-233.0,-425.0,0
718,38.0,-211.0,-395.0,0
719,55.0,-192.0,-385.0,0
720,55.0,-179.0,-365.0,0
721,48.0,-182.0,-346.0,0
722,46.0,-177.0,-319.0,0
723,55.0,-182.0,-300.0,0
724,56.0,-176.0,-287.0,0
725,63.0,-169.0,-271.0,0
726,62.0,-163.0,-248.0,0
727,67.0,-157.0,-229.0,0
728,41.0,-153.0,-196.0,0
729,60.0,-149.0,-186.0,0
730,53.0,-154.0,-156.0,0
731,47.0,-152.0,-135.0,0
732,37.0,-154.0,-120.0,0
733,12.0,-155.0,-110.0,0
734,25.0,-153.0,-97.0,0
735,15.0,-155.0,-91.0,0
736,1.0,-149.0,-85.0,0
737,-3.0,-151.0,-82.0,0
738,-8.0,-152.0,-83.0,0
739,-20.0,-147.0,-90.0,0
740,-28.0,-145.0,-89.0,0
741,-40.0,-145.0,-102.0,0
742,-45.0,-135.0,-121.0,0
743,-49.0,-137.0,-125.0,0
744,-52.0,-130.0,-135.0,0
745,-49.0,-127.0,-151.0,0
746,-46.0,-122.0,-163.0,0
747,-33.0,-116.0,-179.0,0
748,-28.0,-116.0,-185.0,0
749,-25.0,-113.0,-189.0,0
750,-20.0,-114.0,-199.0,0
751,-15.0,-116.0,-207.0,0
752,-6.0,-118.0,-204.0,0
753,0.0,-122.0,-204.0,0
754,5.0,-124.0,-206.0,0
755,16.0,-127.0,-208.0,0
756,27.0,-127.0,-214.0,0
757,36.0,-127.0,-208.0,0
758,48.0,-127.0,-211.0,0
759,53.0,-125.0,-220.0,0
760,61.0,-124.0,-221.0,0
761,64.0,-125.0,-220.0,0
762,67.0,-126.0,-226.0,0
763,69.0,-125.0,-227.0,0
764,67.0,-126.0,-237.0,0
765,66.0,-124.0,-231.0,0
766,64.0,-125.0,-245.0,0
767,64.0,-126.0,-248.0,0
768,62.0,-126.0,-249.0,0
769,53.0,-125.0,-250.0,0
770,51.0,-128.0,-255.0,0
771,47.0,-130.0,-254.0,0
772,45.0,-134.0,-252.0,0
773,43.0,-135.0,-249.0,0
774,33.0,-136.0,-245.0,0
775,31.0,-135.0,-239.0,0
776,29.0,-136.0,-230.0,0
777,32.0,-139.0,-219.0,0
778,30.0,-139.0,-211.0,0
779,27.0,-144.0,-200.0,0
780,24.0,-143.0,-192.0,0
781,23.0,-144.0,-184.0,0
782,22.0,-147.0,-174.0,0
783,19.0,-148.0,-170.0,0
784,17.0,-150.0,-167.0,0
785,14.0,-150.0,-166.0,0
786,14.0,-147.0,-160.0,0
787,18.0,-156.0,-156.0,0
788,20.0,-155.0,-161.0,0
789,15.0,-153.0,-162.0,0
790,13.0,-156.0,-164.0,0
791,14.0,-156.0,-163.0,0
792,12.0,-154.0,-167.0,0
793,13.0,-155.0,-171.0,0
794,13.0,-160.0,-173.0,0
795,12.0,-161.0,-174.0,0
796,10.0,-161.0,-178.0,0
797,15.0,-161.0,-181.0,0
798,8.0,-166.0,-182.0,0
799,8.0,-163.0,-189.0,0
800,12.0,-167.0,-191.0,0
801,11.0,-172.0,-192.0,0
802,11.0,-169.0,-193.0,0
803,11.0,-165.0,-193.0,0
804,12.0,-165.0,-190.0,0
805,15.0,-164.0,-191.0,0
806,21.0,-170.0,-189.0,0
807,18.0,-166.0,-191.0,0
808,22.0,-169.0,-189.0,0
809,22.0,-174.0,-196.0,0
810,22.0,-169.0,-196.0,0
811,25.0,-170.0,-193.0,0
812,27.0,-172.0,-192.0,0
813,29.0,-171.0,-193.0,0
814,28.0,-175.0,-190.0,0
815,30.0,-172.0,-189.0,0
816,32.0,-174.0,-188.0,0
817,31.0,-167.0,-188.0,0
818,32.0,-172.0,-190.0,0
819,32.0,-166.0,-184.0,0
820,36.0,-170.0,-188.0,0
821,30.0,-171.0,-184.0,0
822,30.0,-168.0,-185.0,0
823,31.0,-170.0,-179.0,0
824,29.0,-175.0,-178.0,0
825,32.0,-178.0,-176.0,0
826,26.0,-175.0,-170.0,0
827,27.0,-177.0,-169.0,0
828,27.0,-179.0,-162.0,0
829,26.0,-180.0,-166.0,0
830,27.0,-185.0,-162.0,0
831,25.0,-189.0,-156.0,0
832,18.0,-186.0,-158.0,0
833,19.0,-190.0,-150.0,0
834,18.0,-189.0,-146.0,0
835,16.0,-188.0,-151.0,0
836,14.0,-190.0,-143.0,0
837,16.0,-190.0,-144.0,0
838,13.0,-187.0,-143.0,0
839,14.0,-188.0,-147.0,0
840,10.0,-181.0,-140.0,0
841,17.0,-187.0,-144.0,0
842,13.0,-185.0,-143.0,0
843,13.0,-184.0,-144.0,0
844,16.0,-184.0,-142.0,0
845,16.0,-181.0,-141.0,0
846,22.0,-182.0,-145.0,0
847,21.0,-182.0,-144.0,0
848,22.0,-180.0,-146.0,0
849,29.0,-185.0,-145.0,0
850,26.0,-181.0,-146.0,0
851,28.0,-181.0,-150.0,0
852,27.0,-187.0,-150.0,0
853,28.0,-183.0,-153.0,0
854,27.0,-187.0,-152.0,0
855,30.0,-189.0,-157.0,0
856,29.0,-191.0,-159.0,0
857,27.0,-190.0,-160.0,0
858,32.0,-192.0,-162.0,0
859,31.0,-194.0,-161.0,0
860,33.0,-194.0,-161.0,0
861,26.0,-193.0,-158.0,0
862,32.0,-199.0,-159.0,0
863,25.0,-199.0,-159.0,0
864,30.0,-195.0,-161.0,0
865,31.0,-198.0,-160.0,0
866,29.0,-197.0,-162.0,0
867,30.0,-196.0,-160.0,0
868,29.0,-193.0,-159.0,0
869,30.0,-195.0,-154.0,0
870,28.0,-195.0,-151.0,0
871,28.0,-193.0,-147.0,0
872,29.0,-195.0,-141.0,0
873,24.0,-194.0,-139.0,0
874,27.0,-193.0,-141.0,0
875,29.0,-194.0,-141.0,0
876,26.0,-194.0,-137.0,0
877,25.0,-196.0,-138.0,0
878,24.0,-196.0,-131.0,0
879,23.0,-196.0,-134.0,0
880,20.0,-197.0,-135.0,0
881,23.0,-196.0,-132.0,0
882,18.0,-195.0,-135.0,0
883,20.0,-194.0,-130.0,0
884,18.0,-192.0,-132.0,0
885,13.0,-193.0,-134.0,0
886,16.0,-194.0,-133.0,0
887,15.0,-193.0,-136.0,0
888,16.0,-198.0,-136.0,0
889,12.0,-195.0,-135.0,0
890,15.0,-199.0,-135.0,0
891,14.0,-200.0,-138.0,0
892,15.0,-201.0,-138.0,0
893,17.0,-202.0,-136.0,0
894,15.0,-202.0,-135.0,0
895,15.0,-204.0,-135.0,0
896,15.0,-205.0,-136.0,0
897,15.0,-202.0,-135.0,0
898,16.0,-204.0,-134.0,0
899,13.0,-200.0,-135.0,0
900,16.0,-205.0,-132.0,0
901,16.0,-206.0,-137.0,0
902,16.0,-208.0,-137.0,0
903,15.0,-207.0,-141.0,0
904,11.0,-202.0,-139.0,0
905,14.0,-204.0,-133.0,0
906,16.0,-208.0,-139.0,0
907,14.0,-200.0,-131.0,0
908,12.0,-205.0,-139.0,0
909,11.0,-207.0,-139.0,0
910,13.0,-204.0,-136.0,0
911,11.0,-202.0,-135.0,0
912,13.0,-200.0,-134.0,0
913,14.0,-203.0,-132.0,0
914,12.0,-201.0,-134.0,0
915,15.0,-202.0,-135.0,0
916,15.0,-202.0,-133.0,0
917,16.0,-205.0,-135.0,0
918,12.0,-203.0,-130.0,0
919,15.0,-199.0,-132.0,0
920,16.0,-202.0,-135.0,0
921,14.0,-201.0,-131.0,0
922,15.0,-201.0,-133.0,0
923,14.0,-202.0,-131.0,0
924,15.0,-205.0,-132.0,0
925,16.0,-204.0,-129.0,0
926,15.0,-206.0,-132.0,0
927,15.0,-210.0,-129.0,0
928,18.0,-210.0,-128.0,0
929,13.0,-212.0,-129.0,0
930,13.0,-211.0,-130.0,0
931,14.0,-210.0,-131.0,0
932,14.0,-213.0,-126.0,0
933,13.0,-211.0,-131.0,0
934,14.0,-211.0,-129.0,0
935,12.0,-209.0,-126.0,0
936,12.0,-209.0,-126.0,0
937,10.0,-208.0,-134.0,0
938,11.0,-204.0,-127.0,0
939,11.0,-207.0,-132.0,0
940,9.0,-206.0,-127.0,0
941,14.0,-206.0,-130.0,0
942,10.0,-205.0,-129.0,0
943,11.0,-208.0,-129.0,0
944,7.0,-202.0,-131.0,0
945,11.0,-203.0,-128.0,0
946,10.0,-200.0,-143.0,0
947,10.0,-203.0,-129.0,0
948,10.0,-205.0,-130.0,0
949,11.0,-206.0,-132.0,0
950,11.0,-199.0,-133.0,0
951,8.0,-202.0,-129.0,0
952,11.0,-206.0,-132.0,0
953,11.0,-203.0,-135.0,0
954,12.0,-205.0,-134.0,0
955,9.0,-204.0,-136.0,0
956,12.0,-207.0,-136.0,0
957,12.0,-210.0,-135.0,0
958,9.0,-207.0,-139.0,0
959,10.0,-208.0,-131.0,0
960,10.0,-209.0,-133.0,0
961,14.0,-206.0,-135.0,0
962,12.0,-210.0,-135.0,0
963,13.0,-210.0,-136.0,0
964,13.0,-212.0,-131.0,0
965,11.0,-209.0,-132.0,0
966,13.0,-211.0,-135.0,0
967,10.0,-206.0,-134.0,0
968,13.0,-211.0,-133.0,0
969,9.0,-207.0,-133.0,0
970,11.0,-206.0,-131.0,0
971,12.0,-207.0,-132.0,0
972,6.0,-207.0,-132.0,0
973,10.0,-208.0,-132.0,0
974,9.0,-206.0,-135.0,0
975,10.0,-206.0,-130.0,0
976,8.0,-205.0,-129.0,0
977,9.0,-209.0,-133.0,0
978,6.0,-206.0,-130.0,0
979,7.0,-210.0,-136.0,0
980,11.0,-209.0,-134.0,0
981,7.0,-208.0,-136.0,0
982,9.0,-208.0,-130.0,0
983,5.0,-207.0,-135.0,0
984,8.0,-209.0,-131.0,0
985,7.0,-206.0,-131.0,0
986,9.0,-207.0,-134.0,0
987,6.0,-206.0,-134.0,0
988,10.0,-207.0,-133.0,0
989,6.0,-209.0,-133.0,0
990,7.0,-203.0,-134.0,0
991,7.0,-210.0,-129.0,0
992,9.0,-208.0,-134.0,0
993,6.0,-207.0,-128.0,0
994,15.0,-208.0,-137.0,0
995,9.0,-210.0,-133.0,0
996,8.0,-208.0,-130.0,0
997,9.0,-208.0,-133.0,0
998,9.0,-211.0,-135.0,0
999,9.0,-207.0,-131.0,0
1000,6.0,-207.0,-135.0,0
1001,9.0,-213.0,-129.0,0
1002,9.0,-206.0,-132.0,0
1003,7.0,-208.0,-133.0,0
1004,8.0,-208.0,-134.0,0
1005,8.0,-204.0,-140.0,0
1006,11.0,-208.0,-134.0,0
1007,6.0,-206.0,-129.0,0
1008,10.0,-210.0,-129.0,0
1009,8.0,-207.0,-132.0,0
1010,9.0,-207.0,-133.0,0
1011,9.0,-208.0,-134.0,0
1012,9.0,-207.0,-133.0,0
1013,7.0,-208.0,-131.0,0
1014,12.0,-213.0,-131.0,0
1015,6.0,-206.0,-135.0,0
1016,7.0,-208.0,-130.0,0
1017,8.0,-206.0,-133.0,0
1018,7.0,-207.0,-130.0,0
1019,9.0,-210.0,-132.0,0
1020,10.0,-207.0,-130.0,0
1021,9.0,-209.0,-135.0,0
1022,4.0,-208.0,-129.0,0
1023,7.0,-208.0,-130.0,0
1024,8.0,-212.0,-133.0,0
1025,4.0,-210.0,-133.0,0
1026,10.0,-212.0,-132.0,0
1027,10.0,-214.0,-134.0,0
1028,10.0,-210.0,-131.0,0
1029,7.0,-209.0,-134.0,0
1030,9.0,-211.0,-134.0,0
1031,7.0,-208.0,-130.0,0
1032,9.0,-210.0,-134.0,0
1033,9.0,-205.0,-130.0,0
1034,8.0,-210.0,-135.0,0
1035,7.0,-206.0,-129.0,0
1036,8.0,-207.0,-132.0,0
1037,8.0,-206.0,-130.0,0
1038,10.0,-204.0,-131.0,0
1039,9.0,-208.0,-131.0,0
1040,6.0,-210.0,-131.0,0
1041,11.0,-207.0,-130.0,0
1042,12.0,-214.0,-130.0,0
1043,13.0,-210.0,-129.0,0
1044,6.0,-207.0,-131.0,0
1045,16.0,-209.0,-131.0,0
1046,15.0,-208.0,-133.0,0
1047,10.0,-209.0,-131.0,0
1048,9.0,-206.0,-132.0,0
1049,11.0,-208.0,-132.0,0
1050,11.0,-207.0,-133.0,0
1051,10.0,-204.0,-131.0,0
1052,10.0,-209.0,-129.0,0
1053,8.0,-209.0,-134.0,0
1054,9.0,-206.0,-130.0,0
1055,11.0,-208.0,-135.0,0
1056,11.0,-203.0,-131.0,0
1057,5.0,-205.0,-135.0,0
1058,8.0,-206.0,-132.0,0
1059,10.0,-210.0,-129.0,0
1060,9.0,-208.0,-132.0,0
1061,10.0,-207.0,-132.0,0
1062,15.0,-209.0,-133.0,0
1063,11.0,-207.0,-131.0,0
1064,11.0,-207.0,-132.0,0
1065,14.0,-207.0,-133.0,0
1066,12.0,-206.0,-129.0,0
1067,11.0,-206.0,-132.0,0
1068,11.0,-206.0,-128.0,0
1069,10.0,-205.0,-132.0,0
1070,13.0,-207.0,-133.0,0
1071,13.0,-208.0,-130.0,0
1072,12.0,-209.0,-129.0,0
1073,12.0,-211.0,-130.0,0
1074,12.0,-211.0,-134.0,0
1075,13.0,-212.0,-130.0,0
1076,15.0,-209.0,-129.0,0
1077,16.0,-210.0,-133.0,0
1078,12.0,-210.0,-131.0,0
1079,15.0,-212.0,-133.0,0
1080,11.0,-209.0,-129.0,0
1081,14.0,-208.0,-132.0,0
1082,12.0,-212.0,-130.0,0
1083,11.0,-206.0,-134.0,0
1084,9.0,-207.0,-131.0,0
1085,9.0,-208.0,-132.0,0
1086,11.0,-205.0,-133.0,0
1087,7.0,-203.0,-132.0,0
1088,11.0,-206.0,-129.0,0
1089,11.0,-205.0,-133.0,0
1090,7.0,-208.0,-136.0,0
1091,9.0,-206.0,-131.0,0
1092,7.0,-209.0,-133.0,0
1093,5.0,-206.0,-133.0,0
1094,6.0,-208.0,-133.0,0
1095,6.0,-208.0,-134.0,0
1096,12.0,-212.0,-132.0,0
1097,6.0,-211.0,-134.0,0
1098,9.0,-207.0,-132.0,0
1099,6.0,-206.0,-137.0,0
1100,7.0,-212.0,-129.0,0
1101,7.0,-205.0,-129.0,0
1102,6.0,-209.0,-129.0,0
1103,8.0,-206.0,-135.0,0
1104,10.0,-209.0,-133.0,0
1105,10.0,-210.0,-132.0,0
1106,13.0,-207.0,-131.0,0
1107,10.0,-207.0,-132.0,0
1108,13.0,-209.0,-133.0,0
1109,11.0,-207.0,-133.0,0
1110,10.0,-207.0,-132.0,0
1111,12.0,-205.0,-135.0,0
1112,8.0,-206.0,-131.0,0
1113,8.0,-205.0,-134.0,0
1114,9.0,-209.0,-131.0,0
1115,8.0,-208.0,-132.0,0
1116,9.0,-208.0,-131.0,0
1117,4.0,-204.0,-135.0,0
1118,9.0,-209.0,-133.0,0
1119,6.0,-207.0,-132.0,0
1120,7.0,-210.0,-131.0,0
1121,9.0,-209.0,-134.0,0
1122,9.0,-206.0,-133.0,0
1123,7.0,-209.0,-133.0,0
1124,12.0,-207.0,-130.0,0
1125,8.0,-206.0,-132.0,0
1126,9.0,-207.0,-135.0,0
1127,9.0,-207.0,-132.0,0
1128,10.0,-210.0,-132.0,0
1129,9.0,-207.0,-132.0,0
1130,10.0,-205.0,-133.0,0
1131,9.0,-207.0,-131.0,0
1132,6.0,-205.0,-133.0,0
1133,8.0,-208.0,-131.0,0
1134,9.0,-206.0,-132.0,0
1135,12.0,-209.0,-132.0,0
1136,13.0,-212.0,-135.0,0
1137,9.0,-208.0,-133.0,0
1138,8.0,-207.0,-135.0,0
1139,8.0,-206.0,-132.0,0
1140,7.0,-208.0,-134.0,0
1141,11.0,-207.0,-134.0,0
1142,10.0,-209.0,-133.0,0
1143,9.0,-206.0,-138.0,0
1144,11.0,-208.0,-136.0,0
1145,11.0,-208.0,-134.0,0
1146,10.0,-210.0,-132.0,0
1147,11.0,-208.0,-134.0,0
1148,10.0,-206.0,-134.0,0
1149,13.0,-209.0,-133.0,0
1150,10.0,-208.0,-132.0,0
1151,6.0,-204.0,-130.0,0
1152,11.0,-205.0,-135.0,0
1153,10.0,-206.0,-131.0,0
1154,8.0,-207.0,-130.0,0
1155,9.0,-204.0,-134.0,0
1156,8.0,-208.0,-129.0,0
1157,8.0,-205.0,-140.0,0
1158,10.0,-209.0,-130.0,0
1159,10.0,-208.0,-133.0,0
1160,12.0,-209.0,-134.0,0
1161,11.0,-209.0,-132.0,0
1162,8.0,-208.0,-134.0,0
1163,9.0,-208.0,-135.0,0
1164,10.0,-205.0,-131.0,0
1165,8.0,-206.0,-135.0,0
1166,13.0,-210.0,-133.0,0
1167,10.0,-204.0,-136.0,0
1168,8.0,-199.0,-142.0,0
1169,11.0,-209.0,-134.0,0
1170,11.0,-208.0,-130.0,0
1171,10.0,-208.0,-135.0,0
1172,9.0,-210.0,-132.0,0
1173,11.0,-203.0,-132.0,0
1174,9.0,-207.0,-131.0,0
1175,9.0,-207.0,-133.0,0
1176,10.0,-211.0,-135.0,0
1177,10.0,-208.0,-130.0,0
1178,16.0,-212.0,-129.0,0
1179,8.0,-203.0,-135.0,0
1180,10.0,-210.0,-130.0,0
1181,10.0,-206.0,-133.0,0
1182,10.0,-208.0,-130.0,0
1183,12.0,-209.0,-135.0,0
1184,9.0,-205.0,-133.0,0
1185,12.0,-204.0,-133.0,0
1186,10.0,-207.0,-134.0,0
1187,10.0,-208.0,-134.0,0
1188,13.0,-209.0,-132.0,0
1189,11.0,-207.0,-135.0,0
1190,10.0,-204.0,-135.0,0
1191,8.0,-205.0,-132.0,0
1192,10.0,-205.0,-132.0,0
1193,8.0,-203.0,-136.0,0
1194,12.0,-206.0,-132.0,0
1195,7.0,-204.0,-135.0,0
1196,11.0,-205.0,-132.0,0
1197,11.0,-206.0,-133.0,0
1198,14.0,-207.0,-140.0,0
1199,10.0,-208.0,-132.0,0
1200,12.0,-209.0,-132.0,0
1201,12.0,-206.0,-134.0,0
1202,11.0,-208.0,-135.0,0
1203,10.0,-207.0,-136.0,0
1204,11.0,-206.0,-134.0,0
1205,12.0,-205.0,-135.0,0
1206,11.0,-206.0,-136.0,0
1207,9.0,-204.0,-135.0,0
1208,11.0,-208.0,-136.0,0
1209,13.0,-206.0,-134.0,0
1210,12.0,-206.0,-137.0,0
1211,11.0,-208.0,-135.0,0
1212,9.0,-207.0,-135.0,0
1213,9.0,-208.0,-137.0,0
1214,9.0,-205.0,-140.0,0
1215,8.0,-206.0,-138.0,0
1216,12.0,-207.0,-138.0,0
1217,12.0,-207.0,-134.0,0
1218,8.0,-208.0,-136.0,0
1219,10.0,-208.0,-133.0,0
1220,11.0,-208.0,-134.0,0
1221,10.0,-207.0,-132.0,0
1222,13.0,-206.0,-132.0,0
1223,5.0,-207.0,-134.0,0
1224,8.0,-208.0,-131.0,0
1225,10.0,-206.0,-134.0,0
1226,10.0,-206.0,-134.0,0
1227,10.0,-203.0,-131.0,0
1228,10.0,-207.0,-134.0,0
1229,11.0,-207.0,-134.0,0
1230,9.0,-205.0,-136.0,0
1231,6.0,-204.0,-133.0,0
1232,10.0,-207.0,-135.0,0
1233,9.0,-208.0,-138.0,0
1234,12.0,-209.0,-130.0,0
1235,10.0,-207.0,-136.0,0
1236,8.0,-207.0,-134.0,0
1237,10.0,-206.0,-135.0,0
1238,9.0,-208.0,-133.0,0
1239,11.0,-208.0,-137.0,0
1240,11.0,-208.0,-134.0,0
1241,9.0,-207.0,-131.0,0
1242,13.0,-204.0,-137.0,0
1243,13.0,-207.0,-132.0,0
1244,9.0,-204.0,-138.0,0
1245,9.0,-204.0,-134.0,0
1246,9.0,-206.0,-134.0,0
1247,9.0,-206.0,-136.0,0
1248,13.0,-209.0,-132.0,0
1249,11.0,-208.0,-134.0,0
1250,12.0,-210.0,-136.0,0
1251,12.0,-208.0,-136.0,0
1252,8.0,-206.0,-132.0,0
1253,10.0,-205.0,-133.0,0
1254,8.0,-207.0,-133.0,0
1255,11.0,-211.0,-134.0,0
1256,8.0,-208.0,-132.0,0
1257,10.0,-203.0,-136.0,0
1258,10.0,-208.0,-134.0,0
1259,12.0,-206.0,-137.0,0
1260,8.0,-204.0,-136.0,0
1261,8.0,-206.0,-134.0,0
1262,7.0,-207.0,-135.0,0
1263,15.0,-208.0,-138.0,0
1264,12.0,-208.0,-135.0,0
1265,9.0,-205.0,-133.0,0
1266,14.0,-206.0,-129.0,0
1267,7.0,-207.0,-136.0,0
1268,9.0,-207.0,-132.0,0
1269,10.0,-207.0,-134.0,0
1270,8.0,-206.0,-136.0,0
1271,13.0,-209.0,-132.0,0
1272,8.0,-207.0,-136.0,0
1273,10.0,-206.0,-139.0,0
1274,8.0,-207.0,-137.0,0
1275,13.0,-209.0,-135.0,0
1276,10.0,-202.0,-132.0,0
1277,11.0,-212.0,-127.0,0
1278,7.0,-207.0,-135.0,0
1279,9.0,-207.0,-135.0,0
1280,11.0,-208.0,-135.0,0
1281,7.0,-204.0,-134.0,0
1282,11.0,-206.0,-131.0,0
1283,11.0,-207.0,-134.0,0
1284,8.0,-206.0,-132.0,0
1285,9.0,-206.0,-133.0,0
1286,11.0,-206.0,-136.0,0
1287,14.0,-208.0,-134.0,0
1288,8.0,-201.0,-144.0,0
1289,11.0,-209.0,-138.0,0
1290,10.0,-204.0,-137.0,0
1291,11.0,-211.0,-137.0,0
1292,9.0,-209.0,-136.0,0
1293,11.0,-206.0,-136.0,0
1294,10.0,-202.0,-133.0,0
1295,10.0,-205.0,-136.0,0
1296,12.0,-205.0,-136.0,0
1297,11.0,-205.0,-136.0,0
1298,11.0,-205.0,-138.0,0
1299,8.0,-213.0,-138.0,0
1300,7.0,-206.0,-133.0,0
1301,8.0,-206.0,-131.0,0
1302,10.0,-207.0,-134.0,0
1303,11.0,-207.0,-131.0,0
1304,10.0,-208.0,-135.0,0
1305,10.0,-208.0,-132.0,0
1306,11.0,-206.0,-131.0,0
1307,15.0,-207.0,-129.0,0
1308,12.0,-210.0,-133.0,0
1309,12.0,-208.0,-131.0,0
1310,9.0,-201.0,-130.0,0
1311,12.0,-206.0,-130.0,0
1312,10.0,-205.0,-131.0,0
1313,10.0,-208.0,-132.0,0
1314,12.0,-206.0,-136.0,0
1315,10.0,-206.0,-133.0,0
1316,10.0,-207.0,-134.0,0
1317,9.0,-208.0,-139.0,0
1318,10.0,-209.0,-137.0,0
1319,14.0,-209.0,-133.0,0
1320,12.0,-206.0,-139.0,0
1321,6.0,-210.0,-138.0,0
1322,11.0,-207.0,-132.0,0
1323,10.0,-205.0,-139.0,0
1324,14.0,-208.0,-136.0,0
1325,12.0,-208.0,-135.0,0
1326,8.0,-203.0,-134.0,0
1327,12.0,-204.0,-133.0,0
1328,7.0,-204.0,-134.0,0
1329,9.0,-203.0,-134.0,0
1330,13.0,-204.0,-133.0,0
1331,14.0,-208.0,-130.0,0
1332,13.0,-207.0,-136.0,0
1333,8.0,-202.0,-132.0,0
1334,12.0,-204.0,-134.0,0
1335,11.0,-203.0,-133.0,0
1336,11.0,-206.0,-138.0,0
1337,9.0,-206.0,-134.0,0
1338,10.0,-206.0,-134.0,0
1339,11.0,-206.0,-138.0,0
1340,9.0,-205.0,-134.0,0
1341,13.0,-208.0,-133.0,0
1342,7.0,-204.0,-129.0,0
1343,12.0,-204.0,-139.0,0
1344,11.0,-207.0,-135.0,0
1345,10.0,-205.0,-137.0,0
1346,10.0,-208.0,-132.0,0
1347,9.0,-202.0,-136.0,0
1348,12.0,-207.0,-132.0,0
1349,10.0,-205.0,-134.0,0
1350,11.0,-208.0,-138.0,0
1351,12.0,-202.0,-136.0,0
1352,10.0,-206.0,-131.0,0
1353,13.0,-206.0,-132.0,0
1354,11.0,-207.0,-131.0,0
1355,10.0,-204.0,-133.0,0
1356,9.0,-205.0,-133.0,0
1357,11.0,-206.0,-134.0,0
1358,11.0,-207.0,-130.0,0
1359,6.0,-204.0,-133.0,0
1360,7.0,-208.0,-133.0,0
1361,13.0,-208.0,-130.0,0
1362,9.0,-208.0,-134.0,0
1363,10.0,-206.0,-132.0,0
1364,13.0,-211.0,-128.0,0
1365,13.0,-208.0,-129.0,0
1366,11.0,-206.0,-133.0,0
1367,6.0,-205.0,-132.0,0
1368,11.0,-208.0,-133.0,0
1369,11.0,-210.0,-136.0,0
1370,12.0,-207.0,-136.0,0
1371,12.0,-206.0,-134.0,0
1372,11.0,-209.0,-130.0,0
1373,13.0,-207.0,-135.0,0
1374,11.0,-209.0,-134.0,0
1375,6.0,-209.0,-136.0,0
1376,11.0,-207.0,-136.0,0
1377,10.0,-207.0,-135.0,0
1378,10.0,-208.0,-131.0,0
1379,10.0,-206.0,-135.0,0
1380,10.0,-207.0,-135.0,0
1381,12.0,-205.0,-136.0,0
1382,12.0,-207.0,-136.0,0
1383,12.0,-208.0,-130.0,0
1384,12.0,-204.0,-135.0,0
1385,14.0,-209.0,-134.0,0
1386,10.0,-205.0,-135.0,0
1387,10.0,-207.0,-131.0,0
1388,12.0,-204.0,-136.0,0
1389,13.0,-207.0,-133.0,0
1390,12.0,-204.0,-134.0,0
1391,12.0,-211.0,-137.0,0
1392,9.0,-204.0,-131.0,0
1393,12.0,-207.0,-138.0,0
1394,13.0,-206.0,-132.0,0
1395,12.0,-208.0,-138.0,0
1396,8.0,-203.0,-140.0,0
1397,10.0,-207.0,-134.0,0
1398,10.0,-204.0,-138.0,0
1399,12.0,-206.0,-134.0,0
1400,12.0,-208.0,-135.0,0
1401,8.0,-203.0,-136.0,0
1402,10.0,-208.0,-134.0,0
1403,9.0,-209.0,-133.0,0
1404,9.0,-203.0,-131.0,0
1405,9.0,-204.0,-134.0,0
1406,8.0,-203.0,-134.0,0
1407,13.0,-206.0,-133.0,0
1408,17.0,-209.0,-139.0,0
1409,11.0,-202.0,-135.0,0
1410,10.0,-207.0,-133.0,0
1411,10.0,-206.0,-132.0,0
1412,11.0,-206.0,-131.0,0
1413,13.0,-206.0,-133.0,0
1414,11.0,-207.0,-133.0,0
1415,13.0,-206.0,-132.0,0
1416,8.0,-205.0,-132.0,0
1417,15.0,-207.0,-135.0,0
1418,10.0,-208.0,-137.0,0
1419,12.0,-200.0,-144.0,0
1420,11.0,-207.0,-135.0,0
1421,12.0,-205.0,-135.0,0
1422,12.0,-204.0,-137.0,0
1423,14.0,-206.0,-138.0,0
1424,14.0,-207.0,-136.0,0
1425,15.0,-204.0,-138.0,0
1426,13.0,-205.0,-137.0,0
1427,8.0,-209.0,-133.0,0
1428,8.0,-204.0,-136.0,0
1429,12.0,-201.0,-134.0,0
1430,12.0,-206.0,-134.0,0
1431,12.0,-205.0,-134.0,0
1432,10.0,-203.0,-134.0,0
1433,10.0,-206.0,-135.0,0
1434,8.0,-208.0,-136.0,0
1435,11.0,-206.0,-137.0,0
1436,11.0,-208.0,-138.0,0
1437,13.0,-211.0,-130.0,0
1438,13.0,-207.0,-135.0,0
1439,10.0,-206.0,-135.0,0
1440,9.0,-206.0,-133.0,0
1441,8.0,-203.0,-132.0,0
1442,10.0,-205.0,-131.0,0
1443,13.0,-204.0,-134.0,0
1444,15.0,-204.0,-134.0,0
1445,12.0,-203.0,-134.0,0
1446,9.0,-205.0,-134.0,0
1447,12.0,-204.0,-136.0,0
1448,10.0,-207.0,-134.0,0
1449,8.0,-205.0,-130.0,0
1450,13.0,-207.0,-139.0,0
1451,9.0,-206.0,-134.0,0
1452,19.0,-210.0,-126.0,0
1453,13.0,-206.0,-132.0,0
1454,16.0,-208.0,-133.0,0
1455,11.0,-208.0,-134.0,0
1456,14.0,-211.0,-135.0,0
1457,13.0,-207.0,-135.0,0
1458,11.0,-204.0,-140.0,0
1459,10.0,-208.0,-137.0,0
1460,10.0,-206.0,-135.0,0
1461,11.0,-206.0,-137.0,0
1462,10.0,-208.0,-137.0,0
1463,14.0,-206.0,-139.0,0
1464,11.0,-205.0,-133.0,0
1465,12.0,-208.0,-137.0,0
1466,15.0,-208.0,-136.0,0
1467,11.0,-206.0,-136.0,0
1468,14.0,-208.0,-134.0,0
1469,14.0,-206.0,-132.0,0
1470,15.0,-205.0,-134.0,0
1471,12.0,-207.0,-132.0,0
1472,12.0,-204.0,-133.0,0
1473,13.0,-204.0,-133.0,0
1474,15.0,-204.0,-136.0,0
1475,14.0,-203.0,-136.0,0
1476,13.0,-207.0,-136.0,0
1477,15.0,-205.0,-132.0,0
1478,13.0,-205.0,-136.0,0
1479,15.0,-206.0,-135.0,0
1480,10.0,-203.0,-136.0,0
1481,12.0,-206.0,-138.0,0
1482,11.0,-206.0,-139.0,0
1483,12.0,-208.0,-135.0,0
1484,11.0,-202.0,-136.0,0
1485,13.0,-204.0,-141.0,0
1486,12.0,-201.0,-139.0,0
1487,13.0,-205.0,-135.0,0
1488,14.0,-205.0,-139.0,0
1489,11.0,-205.0,-134.0,0
1490,11.0,-204.0,-140.0,0
1491,13.0,-208.0,-136.0,0
1492,11.0,-209.0,-135.0,0
1493,11.0,-204.0,-137.0,0
1494,13.0,-205.0,-139.0,0
1495,9.0,-207.0,-139.0,0
1496,13.0,-207.0,-134.0,0
1497,13.0,-206.0,-131.0,0
1498,10.0,-205.0,-136.0,0
1499,12.0,-205.0,-135.0,0
1500,12.0,-206.0,-135.0,0
1501,10.0,-205.0,-132.0,0
1502,14.0,-204.0,-134.0,0
1503,10.0,-209.0,-135.0,0
1504,13.0,-208.0,-134.0,0
1505,14.0,-205.0,-132.0,0
1506,13.0,-208.0,-130.0,0
1507,11.0,-204.0,-135.0,0
1508,15.0,-203.0,-132.0,0
1509,15.0,-203.0,-135.0,0
1510,15.0,-205.0,-134.0,0
1511,18.0,-206.0,-137.0,0
1512,15.0,-204.0,-132.0,0
1513,18.0,-204.0,-136.0,0
1514,8.0,-205.0,-136.0,0
1515,6.0,-203.0,-137.0,0
1516,7.0,-201.0,-135.0,0
1517,13.0,-211.0,-136.0,0
1518,10.0,-205.0,-131.0,0
1519,8.0,-206.0,-137.0,0
1520,8.0,-203.0,-135.0,0
1521,10.0,-205.0,-132.0,0
1522,12.0,-206.0,-136.0,0
1523,10.0,-203.0,-137.0,0
1524,12.0,-204.0,-135.0,0
1525,11.0,-203.0,-139.0,0
1526,15.0,-202.0,-143.0,0
1527,16.0,-203.0,-143.0,0
1528,19.0,-202.0,-142.0,0
1529,19.0,-197.0,-143.0,0
1530,16.0,-199.0,-143.0,0
1531,16.0,-196.0,-148.0,0
1532,16.0,-200.0,-148.0,0
1533,15.0,-199.0,-151.0,0
1534,17.0,-199.0,-157.0,0
1535,15.0,-196.0,-150.0,0
1536,13.0,-196.0,-159.0,0
1537,15.0,-196.0,-159.0,0
1538,17.0,-197.0,-161.0,0
1539,12.0,-198.0,-161.0,0
1540,13.0,-195.0,-153.0,0
1541,11.0,-196.0,-160.0,0
1542,12.0,-193.0,-156.0,0
1543,13.0,-192.0,-156.0,0
1544,12.0,-191.0,-153.0,0
1545,10.0,-187.0,-150.0,0
1546,8.0,-185.0,-147.0,0
1547,8.0,-180.0,-150.0,0
1548,12.0,-185.0,-140.0,0
1549,11.0,-181.0,-148.0,0
1550,8.0,-190.0,-155.0,0
1551,9.0,-186.0,-149.0,0
1552,6.0,-184.0,-153.0,0
1553,6.0,-183.0,-150.0,0
1554,8.0,-188.0,-154.0,0
1555,7.0,-186.0,-151.0,0
1556,8.0,-187.0,-148.0,0
1557,10.0,-188.0,-152.0,0
1558,10.0,-185.0,-148.0,0
1559,10.0,-185.0,-150.0,0
1560,7.0,-185.0,-154.0,0
1561,10.0,-179.0,-149.0,0
1562,13.0,-178.0,-150.0,0
1563,8.0,-176.0,-151.0,0
1564,9.0,-171.0,-152.0,0
1565,12.0,-174.0,-151.0,0
1566,8.0,-175.0,-151.0,0
1567,11.0,-174.0,-157.0,0
1568,13.0,-175.0,-155.0,0
1569,15.0,-175.0,-154.0,0
1570,13.0,-180.0,-150.0,0
1571,10.0,-183.0,-150.0,0
1572,14.0,-179.0,-152.0,0
1573,14.0,-172.0,-148.0,0
1574,11.0,-173.0,-150.0,0
1575,14.0,-170.0,-147.0,0
1576,13.0,-172.0,-147.0,0
1577,19.0,-172.0,-147.0,0
1578,12.0,-173.0,-150.0,0
1579,23.0,-175.0,-147.0,0
1580,20.0,-178.0,-152.0,0
1581,20.0,-171.0,-151.0,0
1582,17.0,-163.0,-153.0,0
1583,17.0,-168.0,-152.0,0
1584,18.0,-169.0,-156.0,0
1585,20.0,-170.0,-156.0,0
1586,17.0,-173.0,-161.0,0
1587,18.0,-173.0,-162.0,0
1588,24.0,-171.0,-164.0,0
1589,23.0,-174.0,-163.0,0
1590,18.0,-175.0,-164.0,0
1591,22.0,-176.0,-176.0,0
1592,29.0,-176.0,-171.0,0
1593,31.0,-172.0,-174.0,0
1594,27.0,-177.0,-184.0,0
1595,29.0,-181.0,-184.0,0
1596,27.0,-183.0,-180.0,0
1597,29.0,-183.0,-180.0,0
1598,30.0,-184.0,-179.0,0
1599,28.0,-181.0,-175.0,0
1600,26.0,-180.0,-176.0,0
1601,23.0,-180.0,-182.0,0
1602,25.0,-175.0,-183.0,0
1603,21.0,-172.0,-188.0,0
1604,28.0,-173.0,-188.0,0
1605,17.0,-169.0,-193.0,0
1606,21.0,-171.0,-193.0,0
1607,19.0,-171.0,-192.0,0
1608,18.0,-169.0,-193.0,0
1609,17.0,-172.0,-191.0,0
1610,20.0,-176.0,-191.0,0
1611,17.0,-175.0,-192.0,0
1612,17.0,-176.0,-190.0,0
1613,16.0,-183.0,-190.0,0
1614,15.0,-183.0,-185.0,0
1615,16.0,-194.0,-186.0,0
1616,14.0,-193.0,-181.0,0
1617,13.0,-196.0,-181.0,0
1618,18.0,-199.0,-182.0,0
1619,14.0,-197.0,-186.0,0
1620,14.0,-196.0,-193.0,0
1621,12.0,-191.0,-197.0,0
1622,14.0,-190.0,-199.0,0
1623,15.0,-180.0,-216.0,0
1624,16.0,-178.0,-216.0,0
1625,16.0,-169.0,-222.0,0
1626,4.0,-167.0,-235.0,0
1627,8.0,-170.0,-244.0,0
1628,-2.0,-172.0,-250.0,0
1629,8.0,-182.0,-259.0,0
1630,5.0,-190.0,-266.0,0
1631,0.0,-202.0,-272.0,0
1632,-16.0,-214.0,-277.0,0
1633,-21.0,-227.0,-280.0,0
1634,-26.0,-238.0,-284.0,0
1635,-36.0,-243.0,-289.0,0
1636,-36.0,-246.0,-292.0,0
1637,-44.0,-242.0,-302.0,0
1638,-39.0,-242.0,-317.0,0
1639,-40.0,-239.0,-322.0,0
1640,-43.0,-234.0,-327.0,0
1641,-32.0,-236.0,-338.0,0
1642,-20.0,-234.0,-353.0,0
1643,-5.0,-241.0,-361.0,0
1644,13.0,-248.0,-365.0,0
1645,21.0,-257.0,-366.0,0
1646,31.0,-258.0,-365.0,0
1647,34.0,-262.0,-364.0,0
1648,35.0,-256.0,-363.0,0
1649,34.0,-252.0,-357.0,0
1650,32.0,-237.0,-340.0,0
1651,34.0,-222.0,-330.0,0
1652,27.0,-214.0,-311.0,0
1653,18.0,-197.0,-291.0,0
1654,29.0,-187.0,-274.0,0
1655,31.0,-177.0,-259.0,0
1656,30.0,-165.0,-241.0,0
1657,34.0,-153.0,-221.0,0
1658,25.0,-145.0,-210.0,0
1659,23.0,-140.0,-197.0,0
1660,18.0,-140.0,-188.0,0
1661,16.0,-140.0,-177.0,0
1662,13.0,-139.0,-167.0,0
1663,12.0,-140.0,-158.0,0
1664,5.0,-148.0,-153.0,0
1665,1.0,-150.0,-144.0,0
1666,3.0,-153.0,-140.0,0
1667,-6.0,-161.0,-129.0,0
1668,-13.0,-170.0,-131.0,0
1669,-14.0,-177.0,-131.0,0
1670,-11.0,-186.0,-135.0,0
1671,-13.0,-190.0,-141.0,0
1672,-17.0,-195.0,-145.0,0
1673,-22.0,-202.0,-152.0,0
1674,-22.0,-203.0,-163.0,0
1675,-21.0,-209.0,-165.0,0
1676,-23.0,-216.0,-179.0,0
1677,-30.0,-219.0,-187.0,0
1678,-27.0,-223.0,-199.0,0
1679,-25.0,-227.0,-200.0,0
1680,-25.0,-227.0,-211.0,0
1681,-22.0,-222.0,-215.0,0
1682,-23.0,-218.0,-219.0,0
1683,-21.0,-210.0,-209.0,0
1684,-16.0,-203.0,-206.0,0
1685,-12.0,-191.0,-198.0,0
1686,-6.0,-176.0,-193.0,0
1687,-2.0,-162.0,-185.0,0
1688,4.0,-143.0,-177.0,0
1689,9.0,-139.0,-169.0,0
1690,10.0,-128.0,-159.0,0
1691,12.0,-125.0,-148.0,0
1692,14.0,-120.0,-139.0,0
1693,15.0,-115.0,-127.0,0
1694,18.0,-112.0,-120.0,0
1695,20.0,-109.0,-112.0,0
1696,23.0,-105.0,-108.0,0
1697,21.0,-97.0,-104.0,0
1698,21.0,-93.0,-96.0,0
1699,15.0,-89.0,-92.0,0
1700,21.0,-83.0,-88.0,0
1701,14.0,-75.0,-90.0,0
1702,14.0,-73.0,-80.0,0
1703,12.0,-70.0,-79.0,0
1704,10.0,-69.0,-80.0,0
1705,8.0,-68.0,-78.0,0
1706,8.0,-65.0,-80.0,0
1707,5.0,-65.0,-77.0,0
1708,8.0,-68.0,-83.0,0
1709,6.0,-67.0,-81.0,0
1710,4.0,-64.0,-84.0,0
1711,7.0,-70.0,-90.0,0
1712,4.0,-69.0,-90.0,0
1713,5.0,-69.0,-92.0,0
1714,6.0,-72.0,-91.0,0
1715,7.0,-74.0,-98.0,0
1716,3.0,-76.0,-102.0,0
1717,6.0,-83.0,-107.0,0
1718,2.0,-88.0,-111.0,0
1719,2.0,-91.0,-119.0,0
1720,0.0,-101.0,-122.0,0
1721,1.0,-111.0,-124.0,0
1722,4.0,-122.0,-137.0,0
1723,3.0,-132.0,-141.0,0
1724,5.0,-137.0,-147.0,0
1725,8.0,-149.0,-152.0,0
1726,9.0,-162.0,-161.0,0
1727,8.0,-170.0,-166.0,0
1728,9.0,-183.0,-171.0,0
1729,12.0,-195.0,-176.0,0
1730,10.0,-204.0,-175.0,0
1731,12.0,-223.0,-177.0,0
1732,11.0,-233.0,-172.0,0
1733,15.0,-243.0,-166.0,0
1734,17.0,-251.0,-161.0,0
1735,22.0,-248.0,-155.0,0
1736,28.0,-243.0,-150.0,0
1737,32.0,-238.0,-148.0,0
1738,33.0,-228.0,-140.0,0
1739,38.0,-218.0,-139.0,0
1740,43.0,-212.0,-135.0,0
1741,44.0,-203.0,-130.0,0
1742,43.0,-200.0,-130.0,0
1743,43.0,-200.0,-127.0,0
1744,40.0,-192.0,-125.0,0
1745,35.0,-193.0,-125.0,0
1746,36.0,-192.0,-122.0,0
1747,33.0,-192.0,-122.0,0
1748,30.0,-193.0,-119.0,0
1749,29.0,-197.0,-118.0,0
1750,24.0,-193.0,-114.0,0
1751,22.0,-199.0,-120.0,0
1752,26.0,-199.0,-114.0,0
1753,18.0,-201.0,-123.0,0
1754,18.0,-192.0,-118.0,0
1755,13.0,-181.0,-126.0,0
1756,13.0,-192.0,-127.0,0
1757,12.0,-190.0,-124.0,0
1758,14.0,-187.0,-126.0,0
1759,11.0,-185.0,-124.0,0
1760,14.0,-186.0,-129.0,0
1761,12.0,-185.0,-129.0,0
1762,12.0,-186.0,-137.0,0
1763,11.0,-187.0,-132.0,0
1764,15.0,-187.0,-135.0,0
1765,14.0,-184.0,-132.0,0
1766,16.0,-192.0,-144.0,0
1767,17.0,-190.0,-137.0,0
1768,19.0,-190.0,-146.0,0
1769,18.0,-189.0,-144.0,0
1770,17.0,-193.0,-145.0,0
1771,20.0,-192.0,-145.0,0
1772,21.0,-195.0,-144.0,0
1773,25.0,-201.0,-141.0,0
1774,23.0,-202.0,-142.0,0
1775,20.0,-208.0,-138.0,0
1776,23.0,-211.0,-138.0,0
1777,17.0,-213.0,-134.0,0
1778,23.0,-215.0,-131.0,0
1779,21.0,-216.0,-132.0,0
1780,22.0,-221.0,-130.0,0
1781,18.0,-219.0,-129.0,0
1782,19.0,-224.0,-129.0,0
1783,21.0,-226.0,-128.0,0
1784,20.0,-225.0,-123.0,0
1785,24.0,-224.0,-126.0,0
1786,22.0,-224.0,-126.0,0
1787,23.0,-225.0,-129.0,0
1788,30.0,-228.0,-128.0,0
1789,23.0,-221.0,-128.0,0
1790,24.0,-218.0,-126.0,0
1791,24.0,-220.0,-129.0,0
1792,25.0,-220.0,-129.0,0
1793,19.0,-217.0,-128.0,0
1794,17.0,-218.0,-128.0,0
1795,16.0,-216.0,-129.0,0
1796,17.0,-213.0,-128.0,0
1797,14.0,-213.0,-132.0,0
1798,9.0,-208.0,-133.0,0
1799,18.0,-208.0,-131.0,0
1800,11.0,-209.0,-130.0,0
1801,7.0,-207.0,-131.0,0
1802,10.0,-208.0,-129.0,0
1803,10.0,-205.0,-129.0,0
1804,13.0,-209.0,-131.0,0
1805,11.0,-211.0,-132.0,0
1806,10.0,-209.0,-130.0,0
1807,10.0,-209.0,-132.0,0
1808,14.0,-214.0,-132.0,0
1809,15.0,-209.0,-133.0,0
1810,13.0,-213.0,-132.0,0
1811,17.0,-212.0,-132.0,0
1812,16.0,-209.0,-133.0,0
1813,17.0,-211.0,-129.0,0
1814,17.0,-211.0,-131.0,0
1815,15.0,-213.0,-131.0,0
1816,21.0,-211.0,-134.0,0
1817,18.0,-213.0,-130.0,0
1818,22.0,-218.0,-136.0,0
1819,23.0,-217.0,-132.0,0
1820,25.0,-219.0,-130.0,0
1821,24.0,-219.0,-132.0,0
1822,24.0,-220.0,-131.0,0
1823,25.0,-216.0,-134.0,0
1824,22.0,-216.0,-129.0,0
1825,21.0,-218.0,-133.0,0
1826,21.0,-220.0,-130.0,0
1827,20.0,-215.0,-129.0,0
1828,20.0,-216.0,-133.0,0
1829,17.0,-217.0,-129.0,0
1830,15.0,-214.0,-130.0,0
1831,14.0,-213.0,-126.0,0
1832,12.0,-212.0,-127.0,0
1833,11.0,-214.0,-127.0,0
1834,15.0,-212.0,-123.0,0
1835,11.0,-209.0,-127.0,0
1836,11.0,-210.0,-122.0,0
1837,13.0,-210.0,-123.0,0
1838,13.0,-210.0,-121.0,0
1839,10.0,-210.0,-123.0,0
1840,10.0,-213.0,-116.0,0
1841,14.0,-212.0,-115.0,0
1842,12.0,-212.0,-123.0,0
1843,11.0,-212.0,-120.0,0
1844,12.0,-214.0,-117.0,0
1845,16.0,-215.0,-123.0,0
1846,12.0,-217.0,-122.0,0
1847,13.0,-214.0,-120.0,0
1848,12.0,-215.0,-123.0,0
1849,14.0,-217.0,-118.0,0
1850,14.0,-216.0,-125.0,0
1851,13.0,-212.0,-125.0,0
1852,15.0,-217.0,-124.0,0
1853,17.0,-217.0,-125.0,0
1854,13.0,-214.0,-124.0,0
1855,13.0,-215.0,-124.0,0
1856,10.0,-214.0,-124.0,0
1857,12.0,-212.0,-126.0,0
1858,12.0,-211.0,-123.0,0
1859,15.0,-211.0,-121.0,0
1860,8.0,-208.0,-123.0,0
1861,7.0,-206.0,-123.0,0
1862,6.0,-211.0,-123.0,0
1863,8.0,-213.0,-123.0,0
1864,6.0,-207.0,-125.0,0
1865,6.0,-207.0,-120.0,0
1866,7.0,-208.0,-125.0,0
1867,7.0,-205.0,-121.0,0
1868,8.0,-208.0,-122.0,0
1869,9.0,-209.0,-123.0,0
1870,9.0,-212.0,-124.0,0
1871,7.0,-213.0,-120.0,0
1872,10.0,-215.0,-125.0,0
1873,7.0,-213.0,-126.0,0
1874,11.0,-219.0,-124.0,0
1875,9.0,-214.0,-126.0,0
1876,10.0,-218.0,-122.0,0
1877,13.0,-219.0,-124.0,0
1878,13.0,-221.0,-125.0,0
1879,13.0,-221.0,-124.0,0
1880,13.0,-221.0,-120.0,0
1881,13.0,-221.0,-120.0,0
1882,13.0,-218.0,-122.0,0
1883,16.0,-221.0,-118.0,0
1884,13.0,-220.0,-122.0,0
1885,12.0,-214.0,-121.0,0
1886,11.0,-217.0,-125.0,0
1887,15.0,-216.0,-121.0,0
1888,13.0,-218.0,-116.0,0
1889,12.0,-211.0,-118.0,0
1890,11.0,-214.0,-116.0,0
1891,14.0,-214.0,-119.0,0
1892,9.0,-214.0,-116.0,0
1893,11.0,-212.0,-119.0,0
1894,11.0,-214.0,-115.0,0
1895,13.0,-217.0,-118.0,0
1896,10.0,-216.0,-118.0,0
1897,15.0,-218.0,-122.0,0
1898,16.0,-211.0,-120.0,0
1899,10.0,-212.0,-123.0,0
1900,6.0,-210.0,-117.0,0
1901,6.0,-199.0,-123.0,0
1902,12.0,-223.0,-114.0,0
1903,16.0,-217.0,-118.0,0
1904,4.0,-213.0,-109.0,0
1905,10.0,-216.0,-119.0,0
1906,11.0,-217.0,-119.0,0
1907,13.0,-215.0,-120.0,0
1908,12.0,-213.0,-121.0,0
1909,13.0,-213.0,-119.0,0
1910,10.0,-223.0,-127.0,0
1911,17.0,-216.0,-116.0,0
1912,8.0,-223.0,-109.0,0
1913,14.0,-226.0,-119.0,0
1914,10.0,-220.0,-119.0,0
1915,29.0,-219.0,-123.0,0
1916,11.0,-218.0,-126.0,0
1917,15.0,-214.0,-127.0,0
1918,18.0,-225.0,-123.0,0
1919,7.0,-221.0,-132.0,0
1920,9.0,-218.0,-119.0,0
1921,10.0,-212.0,-124.0,0
1922,15.0,-221.0,-126.0,0
1923,10.0,-219.0,-110.0,0
1924,9.0,-214.0,-119.0,0
1925,14.0,-222.0,-115.0,0
1926,14.0,-216.0,-120.0,0
1927,11.0,-213.0,-119.0,0
1928,11.0,-217.0,-115.0,0
1929,11.0,-216.0,-118.0,0
1930,13.0,-219.0,-112.0,0
1931,8.0,-215.0,-115.0,0
1932,11.0,-217.0,-114.0,0
1933,8.0,-216.0,-119.0,0
1934,12.0,-216.0,-118.0,0
1935,10.0,-219.0,-113.0,0
1936,18.0,-216.0,-120.0,0
1937,9.0,-217.0,-119.0,0
1938,8.0,-219.0,-115.0,0
1939,13.0,-220.0,-123.0,0
1940,12.0,-221.0,-121.0,0
1941,13.0,-221.0,-120.0,0
1942,15.0,-213.0,-114.0,0
1943,16.0,-220.0,-120.0,0
1944,14.0,-219.0,-119.0,0
1945,10.0,-213.0,-122.0,0
1946,9.0,-216.0,-115.0,0
1947,15.0,-216.0,-119.0,0
1948,13.0,-216.0,-117.0,0
1949,13.0,-217.0,-119.0,0
1950,14.0,-215.0,-115.0,0
1951,15.0,-217.0,-120.0,0
1952,9.0,-218.0,-126.0,0
1953,12.0,-216.0,-121.0,0
1954,15.0,-217.0,-117.0,0
1955,14.0,-215.0,-117.0,0
1956,14.0,-217.0,-117.0,0
1957,12.0,-217.0,-113.0,0
1958,11.0,-217.0,-118.0,0
1959,13.0,-218.0,-113.0,0
1960,10.0,-217.0,-111.0,0
1961,14.0,-218.0,-115.0,0
1962,8.0,-215.0,-118.0,0
1963,13.0,-221.0,-118.0,0
1964,12.0,-222.0,-113.0,0
1965,13.0,-219.0,-114.0,0
1966,13.0,-221.0,-116.0,0
1967,11.0,-217.0,-116.0,0
1968,13.0,-215.0,-115.0,0
1969,11.0,-215.0,-121.0,0
1970,16.0,-221.0,-113.0,0
1971,16.0,-221.0,-115.0,0
1972,11.0,-219.0,-115.0,0
1973,12.0,-222.0,-111.0,0
1974,15.0,-222.0,-115.0,0
1975,13.0,-222.0,-115.0,0
1976,12.0,-221.0,-120.0,0
1977,15.0,-222.0,-115.0,0
1978,13.0,-224.0,-113.0,0
1979,13.0,-221.0,-114.0,0
1980,16.0,-222.0,-116.0,0
1981,13.0,-222.0,-113.0,0
1982,15.0,-223.0,-116.0,0
1983,15.0,-222.0,-113.0,0
1984,15.0,-221.0,-124.0,0
1985,15.0,-219.0,-115.0,0
1986,15.0,-222.0,-114.0,0
1987,14.0,-219.0,-114.0,0
1988,14.0,-222.0,-116.0,0
1989,11.0,-220.0,-112.0,0
1990,12.0,-220.0,-111.0,0
1991,9.0,-219.0,-115.0,0
1992,14.0,-221.0,-113.0,0
1993,12.0,-215.0,-112.0,0
1994,12.0,-218.0,-111.0,0
1995,10.0,-219.0,-116.0,0
1996,11.0,-218.0,-115.0,0
1997,12.0,-219.0,-112.0,0
1998,13.0,-219.0,-114.0,0
1999,11.0,-218.0,-113.0,0
2000,12.0,-223.0,-113.0,0
2001,14.0,-222.0,-115.0,0
2002,12.0,-222.0,-115.0,0
2003,11.0,-221.0,-108.0,0
2004,10.0,-219.0,-113.0,0
2005,16.0,-225.0,-112.0,0
2006,9.0,-223.0,-113.0,0
2007,14.0,-220.0,-112.0,0
2008,14.0,-222.0,-115.0,0
2009,14.0,-225.0,-112.0,0
2010,15.0,-223.0,-110.0,0
2011,13.0,-222.0,-116.0,0
2012,13.0,-222.0,-113.0,0
2013,11.0,-224.0,-113.0,0
2014,16.0,-229.0,-115.0,0
2015,14.0,-222.0,-115.0,0
2016,14.0,-221.0,-109.0,0
2017,15.0,-223.0,-107.0,0
2018,10.0,-222.0,-112.0,0
2019,13.0,-224.0,-111.0,0
2020,13.0,-222.0,-110.0,0
2021,10.0,-221.0,-107.0,0
2022,12.0,-222.0,-109.0,0
2023,12.0,-220.0,-108.0,0
2024,8.0,-224.0,-103.0,0
2025,12.0,-221.0,-108.0,0
2026,14.0,-225.0,-107.0,0
2027,11.0,-216.0,-114.0,0
2028,10.0,-222.0,-110.0,0
2029,13.0,-223.0,-106.0,0
2030,12.0,-219.0,-105.0,0
2031,13.0,-222.0,-107.0,0
2032,8.0,-222.0,-108.0,0
2033,12.0,-223.0,-105.0,0
2034,11.0,-222.0,-109.0,0
2035,12.0,-222.0,-105.0,0
2036,9.0,-219.0,-110.0,0
2037,11.0,-223.0,-108.0,0
2038,13.0,-223.0,-109.0,0
2039,14.0,-222.0,-110.0,0
2040,12.0,-221.0,-110.0,0
2041,13.0,-221.0,-106.0,0
2042,12.0,-219.0,-107.0,0
2043,13.0,-222.0,-109.0,0
2044,13.0,-223.0,-111.0,0
2045,12.0,-222.0,-111.0,0
2046,15.0,-219.0,-110.0,0
2047,9.0,-224.0,-111.0,0
2048,14.0,-222.0,-108.0,0
2049,6.0,-220.0,-111.0,0
2050,8.0,-224.0,-110.0,0
2051,13.0,-221.0,-109.0,0
2052,11.0,-222.0,-105.0,0
2053,12.0,-225.0,-108.0,0
2054,11.0,-224.0,-106.0,0
2055,13.0,-224.0,-107.0,0
2056,9.0,-218.0,-104.0,0
2057,11.0,-225.0,-102.0,0
2058,12.0,-225.0,-103.0,0
2059,14.0,-222.0,-103.0,0
2060,16.0,-222.0,-105.0,0
2061,9.0,-224.0,-104.0,0
2062,9.0,-224.0,-104.0,0
2063,11.0,-222.0,-100.0,0
2064,10.0,-223.0,-101.0,0
2065,8.0,-226.0,-108.0,0
2066,11.0,-225.0,-103.0,0
2067,6.0,-223.0,-105.0,0
2068,9.0,-224.0,-107.0,0
2069,14.0,-225.0,-107.0,0
2070,7.0,-220.0,-106.0,0
2071,10.0,-225.0,-112.0,0
2072,12.0,-219.0,-110.0,0
2073,9.0,-221.0,-113.0,0
2074,10.0,-222.0,-113.0,0
2075,11.0,-222.0,-112.0,0
2076,11.0,-224.0,-117.0,0
2077,9.0,-225.0,-113.0,0
2078,13.0,-223.0,-110.0,0
2079,11.0,-226.0,-112.0,0
2080,10.0,-225.0,-113.0,0
2081,13.0,-226.0,-105.0,0
2082,6.0,-227.0,-110.0,0
2083,10.0,-223.0,-106.0,0
2084,11.0,-222.0,-104.0,0
2085,12.0,-223.0,-106.0,0
2086,10.0,-222.0,-100.0,0
2087,9.0,-221.0,-104.0,0
2088,8.0,-222.0,-105.0,0
2089,7.0,-220.0,-104.0,0
2090,6.0,-219.0,-102.0,0
2091,4.0,-224.0,-99.0,0
2092,10.0,-221.0,-105.0,0
2093,9.0,-221.0,-103.0,0
2094,7.0,-223.0,-107.0,0
2095,8.0,-221.0,-105.0,0
2096,8.0,-220.0,-109.0,0
2097,5.0,-221.0,-107.0,0
2098,7.0,-219.0,-109.0,0
2099,4.0,-220.0,-105.0,0
2100,8.0,-221.0,-103.0,0
2101,12.0,-228.0,-107.0,0
2102,6.0,-225.0,-105.0,0
2103,10.0,-221.0,-106.0,0
2104,3.0,-220.0,-111.0,0
2105,7.0,-222.0,-110.0,0
2106,6.0,-221.0,-111.0,0
2107,9.0,-221.0,-108.0,0
2108,10.0,-220.0,-108.0,0
2109,8.0,-221.0,-110.0,0
2110,8.0,-218.0,-109.0,0
2111,7.0,-214.0,-113.0,0
2112,10.0,-222.0,-111.0,0
2113,9.0,-216.0,-109.0,0
2114,8.0,-223.0,-108.0,0
2115,5.0,-216.0,-109.0,0
2116,8.0,-220.0,-104.0,0
2117,6.0,-223.0,-106.0,0
2118,7.0,-220.0,-105.0,0
2119,10.0,-223.0,-106.0,0
2120,5.0,-224.0,-105.0,0
2121,8.0,-222.0,-108.0,0
2122,8.0,-226.0,-108.0,0
2123,10.0,-226.0,-108.0,0
2124,5.0,-224.0,-103.0,0
2125,10.0,-226.0,-112.0,0
2126,5.0,-235.0,-108.0,0
2127,7.0,-223.0,-110.0,0
2128,8.0,-225.0,-113.0,0
2129,7.0,-225.0,-110.0,0
2130,8.0,-224.0,-110.0,0
2131,6.0,-224.0,-111.0,0
2132,11.0,-226.0,-107.0,0
2133,8.0,-224.0,-113.0,0
2134,11.0,-221.0,-110.0,0
2135,12.0,-225.0,-111.0,0
2136,8.0,-222.0,-113.0,0
2137,8.0,-221.0,-117.0,0
2138,8.0,-220.0,-110.0,0
2139,10.0,-223.0,-110.0,0
2140,7.0,-222.0,-110.0,0
2141,4.0,-219.0,-111.0,0
2142,8.0,-221.0,-108.0,0
2143,11.0,-220.0,-111.0,0
2144,9.0,-217.0,-108.0,0
2145,8.0,-223.0,-109.0,0
2146,9.0,-220.0,-110.0,0
2147,10.0,-223.0,-108.0,0
2148,5.0,-223.0,-111.0,0
2149,12.0,-220.0,-109.0,0
2150,9.0,-219.0,-105.0,0
2151,8.0,-220.0,-108.0,0
2152,9.0,-221.0,-109.0,0
2153,9.0,-223.0,-111.0,0
2154,9.0,-222.0,-106.0,0
2155,11.0,-223.0,-108.0,0
2156,7.0,-222.0,-113.0,0
2157,11.0,-227.0,-109.0,0
2158,15.0,-222.0,-111.0,0
2159,9.0,-222.0,-113.0,0
2160,10.0,-223.0,-114.0,0
2161,10.0,-226.0,-109.0,0
2162,9.0,-225.0,-113.0,0
2163,9.0,-223.0,-111.0,0
2164,8.0,-224.0,-110.0,0
2165,8.0,-225.0,-113.0,0
2166,8.0,-221.0,-118.0,0
2167,11.0,-224.0,-110.0,0
2168,6.0,-221.0,-112.0,0
2169,7.0,-223.0,-112.0,0
2170,11.0,-225.0,-112.0,0
2171,11.0,-223.0,-113.0,0
2172,12.0,-223.0,-113.0,0
2173,7.0,-224.0,-108.0,0
2174,8.0,-220.0,-112.0,0
2175,11.0,-224.0,-113.0,0
2176,8.0,-222.0,-110.0,0
2177,7.0,-222.0,-111.0,0
2178,9.0,-222.0,-110.0,0
2179,7.0,-222.0,-114.0,0
2180,7.0,-225.0,-108.0,0
2181,9.0,-223.0,-115.0,0
2182,8.0,-223.0,-111.0,0
2183,9.0,-217.0,-112.0,0
2184,9.0,-223.0,-114.0,0
2185,9.0,-219.0,-111.0,0
2186,5.0,-219.0,-112.0,0
2187,12.0,-225.0,-111.0,0
2188,8.0,-224.0,-115.0,0
2189,6.0,-222.0,-112.0,0
2190,10.0,-219.0,-109.0,0
2191,11.0,-219.0,-107.0,0
2192,13.0,-226.0,-123.0,0
2193,7.0,-221.0,-113.0,0
2194,8.0,-223.0,-115.0,0
2195,5.0,-220.0,-112.0,0
2196,8.0,-219.0,-113.0,0
2197,7.0,-221.0,-114.0,0
2198,6.0,-217.0,-106.0,0
2199,5.0,-219.0,-114.0,0
2200,3.0,-218.0,-113.0,0
2201,9.0,-220.0,-114.0,0
2202,7.0,-216.0,-109.0,0
2203,6.0,-219.0,-115.0,0
2204,4.0,-218.0,-116.0,0
2205,4.0,-220.0,-114.0,0
2206,4.0,-222.0,-116.0,0
2207,4.0,-219.0,-113.0,0
2208,5.0,-215.0,-114.0,0
2209,2.0,-217.0,-112.0,0
2210,5.0,-217.0,-111.0,0
2211,4.0,-217.0,-114.0,0
2212,1.0,-221.0,-112.0,0
2213,2.0,-219.0,-116.0,0
2214,3.0,-221.0,-112.0,0
2215,3.0,-220.0,-112.0,0
2216,5.0,-224.0,-112.0,0
2217,2.0,-220.0,-111.0,0
2218,4.0,-220.0,-113.0,0
2219,1.0,-220.0,-113.0,0
2220,2.0,-219.0,-115.0,0
2221,2.0,-220.0,-111.0,0
2222,2.0,-218.0,-114.0,0
2223,5.0,-222.0,-113.0,0
2224,3.0,-225.0,-118.0,0
2225,3.0,-216.0,-110.0,0
2226,3.0,-219.0,-115.0,0
2227,3.0,-216.0,-112.0,0
2228,5.0,-217.0,-113.0,0
2229,4.0,-217.0,-113.0,0
2230,7.0,-217.0,-114.0,0
2231,4.0,-214.0,-115.0,0
2232,4.0,-219.0,-115.0,0
2233,5.0,-216.0,-115.0,0
2234,3.0,-218.0,-113.0,0
2235,6.0,-217.0,-118.0,0
2236,4.0,-217.0,-119.0,0
2237,4.0,-216.0,-115.0,0
2238,2.0,-219.0,-115.0,0
2239,4.0,-218.0,-116.0,0
2240,0.0,-220.0,-113.0,0
2241,1.0,-220.0,-119.0,0
2242,2.0,-215.0,-119.0,0
2243,1.0,-221.0,-117.0,0
2244,4.0,-225.0,-112.0,0
2245,1.0,-223.0,-113.0,0
2246,6.0,-216.0,-120.0,0
2247,1.0,-220.0,-115.0,0
2248,0.0,-217.0,-114.0,0
2249,1.0,-214.0,-119.0,0
2250,-1.0,-217.0,-114.0,0
2251,1.0,-219.0,-112.0,0
2252,0.0,-219.0,-117.0,0
2253,-3.0,-213.0,-113.0,0
2254,1.0,-218.0,-109.0,0
2255,1.0,-217.0,-112.0,0
2256,4.0,-215.0,-114.0,0
2257,1.0,-217.0,-116.0,0
2258,1.0,-216.0,-116.0,0
2259,1.0,-216.0,-118.0,0
2260,2.0,-214.0,-120.0,0
2261,2.0,-210.0,-116.0,0
2262,5.0,-210.0,-118.0,0
2263,3.0,-210.0,-121.0,0
2264,3.0,-213.0,-119.0,0
2265,7.0,-214.0,-118.0,0
2266,11.0,-216.0,-116.0,0
2267,9.0,-220.0,-117.0,0
2268,11.0,-212.0,-118.0,0
2269,11.0,-214.0,-117.0,0
2270,11.0,-214.0,-119.0,0
2271,8.0,-214.0,-117.0,0
2272,11.0,-215.0,-117.0,0
2273,14.0,-214.0,-117.0,0
2274,13.0,-215.0,-115.0,0
2275,15.0,-216.0,-117.0,0
2276,14.0,-217.0,-119.0,0
2277,15.0,-215.0,-120.0,0
2278,16.0,-216.0,-124.0,0
2279,17.0,-213.0,-117.0,0
2280,13.0,-213.0,-118.0,0
2281,14.0,-211.0,-123.0,0
2282,13.0,-211.0,-117.0,0
2283,15.0,-214.0,-120.0,0
2284,19.0,-213.0,-117.0,0
2285,15.0,-218.0,-117.0,0
2286,15.0,-218.0,-120.0,0
2287,18.0,-216.0,-122.0,0
2288,20.0,-219.0,-115.0,0
2289,17.0,-211.0,-116.0,0
2290,23.0,-224.0,-117.0,0
2291,23.0,-224.0,-114.0,0
2292,21.0,-226.0,-114.0,0
2293,18.0,-224.0,-115.0,0
2294,20.0,-228.0,-112.0,0
2295,23.0,-229.0,-113.0,0
2296,18.0,-232.0,-114.0,0
2297,17.0,-230.0,-116.0,0
2298,23.0,-233.0,-112.0,0
2299,20.0,-230.0,-114.0,0
2300,19.0,-226.0,-117.0,0
2301,19.0,-231.0,-115.0,0
2302,21.0,-232.0,-112.0,0
2303,23.0,-227.0,-113.0,0
2304,21.0,-230.0,-109.0,0
2305,23.0,-228.0,-109.0,0
2306,28.0,-228.0,-109.0,0
2307,25.0,-224.0,-110.0,0
2308,29.0,-227.0,-107.0,0
2309,29.0,-220.0,-102.0,0
2310,32.0,-222.0,-106.0,0
2311,38.0,-226.0,-109.0,0
2312,38.0,-225.0,-103.0,0
2313,38.0,-223.0,-105.0,0
2314,42.0,-222.0,-103.0,0
2315,40.0,-223.0,-106.0,0
2316,44.0,-225.0,-108.0,0
2317,42.0,-222.0,-105.0,0
2318,40.0,-228.0,-111.0,0
2319,34.0,-224.0,-117.0,0
2320,39.0,-227.0,-115.0,0
2321,30.0,-224.0,-120.0,0
2322,29.0,-226.0,-119.0,0
2323,27.0,-226.0,-123.0,0
2324,27.0,-222.0,-121.0,0
2325,25.0,-227.0,-121.0,0
2326,22.0,-223.0,-119.0,0
2327,26.0,-222.0,-117.0,0
2328,26.0,-222.0,-116.0,0
2329,25.0,-221.0,-118.0,0
2330,24.0,-225.0,-111.0,0
2331,23.0,-222.0,-109.0,0
2332,22.0,-222.0,-111.0,0
2333,27.0,-215.0,-111.0,0
2334,21.0,-218.0,-111.0,0
2335,20.0,-216.0,-112.0,0
2336,18.0,-216.0,-110.0,0
2337,17.0,-217.0,-106.0,0
2338,17.0,-220.0,-105.0,0
2339,16.0,-219.0,-106.0,0
2340,14.0,-215.0,-100.0,0
2341,18.0,-221.0,-102.0,0
2342,16.0,-217.0,-104.0,0
2343,15.0,-221.0,-99.0,0
2344,12.0,-220.0,-106.0,0
2345,13.0,-219.0,-109.0,0
2346,15.0,-219.0,-112.0,0
2347,13.0,-221.0,-113.0,0
2348,10.0,-219.0,-115.0,0
2349,12.0,-222.0,-123.0,0
2350,15.0,-222.0,-123.0,0
2351,15.0,-222.0,-123.0,0
2352,12.0,-223.0,-126.0,0
2353,11.0,-226.0,-124.0,0
2354,11.0,-220.0,-127.0,0
2355,16.0,-220.0,-127.0,0
2356,16.0,-220.0,-126.0,0
2357,17.0,-218.0,-120.0,0
2358,19.0,-217.0,-121.0,0
2359,17.0,-215.0,-120.0,0
2360,22.0,-218.0,-120.0,0
2361,21.0,-215.0,-122.0,0
2362,21.0,-211.0,-114.0,0
2363,18.0,-213.0,-121.0,0
2364,15.0,-212.0,-119.0,0
2365,14.0,-216.0,-119.0,0
2366,16.0,-215.0,-117.0,0
2367,18.0,-217.0,-120.0,0
2368,15.0,-217.0,-116.0,0
2369,15.0,-220.0,-114.0,0
2370,12.0,-218.0,-116.0,0
2371,11.0,-220.0,-114.0,0
2372,8.0,-221.0,-113.0,0
2373,7.0,-221.0,-117.0,0
2374,8.0,-221.0,-113.0,0
2375,6.0,-224.0,-111.0,0
2376,7.0,-218.0,-116.0,0
2377,4.0,-221.0,-116.0,0
2378,2.0,-216.0,-112.0,0
2379,5.0,-217.0,-113.0,0
2380,2.0,-216.0,-112.0,0
2381,2.0,-215.0,-108.0,0
2382,2.0,-217.0,-108.0,0
2383,3.0,-214.0,-111.0,0
2384,4.0,-217.0,-105.0,0
2385,2.0,-221.0,-116.0,0
2386,2.0,-220.0,-116.0,0
2387,3.0,-223.0,-113.0,0
2388,2.0,-224.0,-112.0,0
2389,2.0,-223.0,-110.0,0
2390,2.0,-227.0,-115.0,0
2391,1.0,-225.0,-117.0,0
2392,2.0,-226.0,-114.0,0
2393,2.0,-223.0,-113.0,0
2394,1.0,-220.0,-112.0,0
2395,1.0,-222.0,-114.0,0
2396,4.0,-223.0,-115.0,0
2397,4.0,-224.0,-113.0,0
2398,5.0,-223.0,-114.0,0
2399,3.0,-220.0,-120.0,0
