accelerometer_x,accelerometer_y,accelerometer_z,fall,x_lag_1,x_lag_2,y_lag_1,y_lag_2,z_lag_1,z_lag_2
6532,1784,-1112,1,,,,,,
6666,2047,-1083,1,6532.0,,1784.0,,-1112.0,
6717,2318,-1030,1,6666.0,6532.0,2047.0,1784.0,-1083.0,-1112.0
6675,2590,-945,1,6717.0,6666.0,2318.0,2047.0,-1030.0,-1083.0
6542,2838,-820,1,6675.0,6717.0,2590.0,2318.0,-945.0,-1030.0
6336,3030,-663,1,6542.0,6675.0,2838.0,2590.0,-820.0,-945.0
6064,3124,-505,1,6336.0,6542.0,3030.0,2838.0,-663.0,-820.0
5749,3097,-362,1,6064.0,6336.0,3124.0,3030.0,-505.0,-663.0
5414,2935,-247,1,5749.0,6064.0,3097.0,3124.0,-362.0,-505.0
5060,2676,-169,1,5414.0,5749.0,2935.0,3097.0,-247.0,-362.0
4691,2372,-134,1,5060.0,5414.0,2676.0,2935.0,-169.0,-247.0
4316,2061,-144,1,4691.0,5060.0,2372.0,2676.0,-134.0,-169.0
3917,1734,-206,1,4316.0,4691.0,2061.0,2372.0,-144.0,-134.0
3514,1397,-318,1,3917.0,4316.0,1734.0,2061.0,-206.0,-144.0
3114,1055,-479,1,3514.0,3917.0,1397.0,1734.0,-318.0,-206.0
2741,705,-679,1,3114.0,3514.0,1055.0,1397.0,-479.0,-318.0
2412,360,-902,1,2741.0,3114.0,705.0,1055.0,-679.0,-479.0
2136,33,-1129,1,2412.0,2741.0,360.0,705.0,-902.0,-679.0
1932,-265,-1341,1,2136.0,2412.0,33.0,360.0,-1129.0,-902.0
1817,-526,-1526,1,1932.0,2136.0,-265.0,33.0,-1341.0,-1129.0
1784,-721,-1655,1,1817.0,1932.0,-526.0,-265.0,-1526.0,-1341.0
1812,-818,-1722,1,1784.0,1817.0,-721.0,-526.0,-1655.0,-1526.0
1888,-810,-1734,1,1812.0,1784.0,-818.0,-721.0,-1722.0,-1655.0
1991,-718,-1699,1,1888.0,1812.0,-810.0,-818.0,-1734.0,-1722.0
2125,-581,-1617,1,1991.0,1888.0,-718.0,-810.0,-1699.0,-1734.0
2296,-433,-1491,1,2125.0,1991.0,-581.0,-718.0,-1617.0,-1699.0
2515,-300,-1324,1,2296.0,2125.0,-433.0,-581.0,-1491.0,-1617.0
2771,-198,-1124,1,2515.0,2296.0,-300.0,-433.0,-1324.0,-1491.0
3063,-125,-903,1,2771.0,2515.0,-198.0,-300.0,-1124.0,-1324.0
3382,-82,-676,1,3063.0,2771.0,-125.0,-198.0,-903.0,-1124.0
3707,-48,-452,1,3382.0,3063.0,-82.0,-125.0,-676.0,-903.0
4005,-10,-245,1,3707.0,3382.0,-48.0,-82.0,-452.0,-676.0
4274,47,-79,1,4005.0,3707.0,-10.0,-48.0,-245.0,-452.0
4503,122,51,1,4274.0,4005.0,47.0,-10.0,-79.0,-245.0
4679,222,139,1,4503.0,4274.0,122.0,47.0,51.0,-79.0
4791,342,182,1,4679.0,4503.0,222.0,122.0,139.0,51.0
4840,470,196,1,4791.0,4679.0,342.0,222.0,182.0,139.0
4834,595,184,1,4840.0,4791.0,470.0,342.0,196.0,182.0
4771,695,150,1,4834.0,4840.0,595.0,470.0,184.0,196.0
4667,766,107,1,4771.0,4834.0,695.0,595.0,150.0,184.0
4529,792,53,1,4667.0,4771.0,766.0,695.0,107.0,150.0
4377,776,-10,1,4529.0,4667.0,792.0,766.0,53.0,107.0
4224,719,-90,1,4377.0,4529.0,776.0,792.0,-10.0,53.0
4060,625,-182,1,4224.0,4377.0,719.0,776.0,-90.0,-10.0
3900,494,-281,1,4060.0,4224.0,625.0,719.0,-182.0,-90.0
3752,346,-389,1,3900.0,4060.0,494.0,625.0,-281.0,-182.0
3612,189,-491,1,3752.0,3900.0,346.0,494.0,-389.0,-281.0
3484,52,-589,1,3612.0,3752.0,189.0,346.0,-491.0,-389.0
3378,-72,-674,1,3484.0,3612.0,52.0,189.0,-589.0,-491.0
3300,-162,-740,1,3378.0,3484.0,-72.0,52.0,-674.0,-589.0
3240,-214,-777,1,3300.0,3378.0,-162.0,-72.0,-740.0,-674.0
3207,-222,-790,1,3240.0,3300.0,-214.0,-162.0,-777.0,-740.0
3198,-189,-783,1,3207.0,3240.0,-222.0,-214.0,-790.0,-777.0
3206,-128,-755,1,3198.0,3207.0,-189.0,-222.0,-783.0,-790.0
3246,-69,-720,1,3206.0,3198.0,-128.0,-189.0,-755.0,-783.0
3317,-33,-679,1,3246.0,3206.0,-69.0,-128.0,-720.0,-755.0
3427,-18,-640,1,3317.0,3246.0,-33.0,-69.0,-679.0,-720.0
3562,-12,-604,1,3427.0,3317.0,-18.0,-33.0,-640.0,-679.0
3711,-18,-577,1,3562.0,3427.0,-12.0,-18.0,-604.0,-640.0
3855,-14,-570,1,3711.0,3562.0,-18.0,-12.0,-577.0,-604.0
3988,-7,-584,1,3855.0,3711.0,-14.0,-18.0,-570.0,-577.0
4110,5,-623,1,3988.0,3855.0,-7.0,-14.0,-584.0,-570.0
4214,22,-680,1,4110.0,3988.0,5.0,-7.0,-623.0,-584.0
4302,42,-736,1,4214.0,4110.0,22.0,5.0,-680.0,-623.0
4369,54,-778,1,4302.0,4214.0,42.0,22.0,-736.0,-680.0
4424,50,-791,1,4369.0,4302.0,54.0,42.0,-778.0,-736.0
4478,33,-771,1,4424.0,4369.0,50.0,54.0,-791.0,-778.0
4531,7,-717,1,4478.0,4424.0,33.0,50.0,-771.0,-791.0
4583,-24,-614,1,4531.0,4478.0,7.0,33.0,-717.0,-771.0
4644,-54,-501,1,4583.0,4531.0,-24.0,7.0,-614.0,-717.0
4713,-77,-385,1,4644.0,4583.0,-54.0,-24.0,-501.0,-614.0
4789,-72,-286,1,4713.0,4644.0,-77.0,-54.0,-385.0,-501.0
4872,-40,-202,1,4789.0,4713.0,-72.0,-77.0,-286.0,-385.0
4955,23,-132,1,4872.0,4789.0,-40.0,-72.0,-202.0,-286.0
5032,113,-64,1,4955.0,4872.0,23.0,-40.0,-132.0,-202.0
5106,227,1,1,5032.0,4955.0,113.0,23.0,-64.0,-132.0
5167,356,64,1,5106.0,5032.0,227.0,113.0,1.0,-64.0
5210,501,131,1,5167.0,5106.0,356.0,227.0,64.0,1.0
5235,646,205,1,5210.0,5167.0,501.0,356.0,131.0,64.0
5240,790,284,1,5235.0,5210.0,646.0,501.0,205.0,131.0
5211,913,310,1,5240.0,5235.0,790.0,646.0,284.0,205.0
5155,1017,198,1,5211.0,5240.0,913.0,790.0,310.0,284.0
5076,1115,-21,1,5155.0,5211.0,1017.0,913.0,198.0,310.0
4988,1200,-290,1,5076.0,5155.0,1115.0,1017.0,-21.0,198.0
4898,1250,-567,1,4988.0,5076.0,1200.0,1115.0,-290.0,-21.0
4821,1259,-857,1,4898.0,4988.0,1250.0,1200.0,-567.0,-290.0
4757,1219,-1163,1,4821.0,4898.0,1259.0,1250.0,-857.0,-567.0
4712,1129,-1466,1,4757.0,4821.0,1219.0,1259.0,-1163.0,-857.0
4706,981,-1741,1,4712.0,4757.0,1129.0,1219.0,-1466.0,-1163.0
4726,787,-1977,1,4706.0,4712.0,981.0,1129.0,-1741.0,-1466.0
4768,581,-2181,1,4726.0,4706.0,787.0,981.0,-1977.0,-1741.0
4831,386,-2364,1,4768.0,4726.0,581.0,787.0,-2181.0,-1977.0
4894,230,-2496,1,4831.0,4768.0,386.0,581.0,-2364.0,-2181.0
4948,126,-2554,1,4894.0,4831.0,230.0,386.0,-2496.0,-2364.0
4994,91,-2517,1,4948.0,4894.0,126.0,230.0,-2554.0,-2496.0
5033,120,-2408,1,4994.0,4948.0,91.0,126.0,-2517.0,-2554.0
5077,176,-2239,1,5033.0,4994.0,120.0,91.0,-2408.0,-2517.0
5126,255,-2036,1,5077.0,5033.0,176.0,120.0,-2239.0,-2408.0
5175,353,-1827,1,5126.0,5077.0,255.0,176.0,-2036.0,-2239.0
5199,489,-1643,1,5175.0,5126.0,353.0,255.0,-1827.0,-2036.0
5184,669,-1503,1,5199.0,5175.0,489.0,353.0,-1643.0,-1827.0
5126,880,-1414,1,5184.0,5199.0,669.0,489.0,-1503.0,-1643.0
5022,1105,-1394,1,5126.0,5184.0,880.0,669.0,-1414.0,-1503.0
4864,1335,-1422,1,5022.0,5126.0,1105.0,880.0,-1394.0,-1414.0
4668,1549,-1465,1,4864.0,5022.0,1335.0,1105.0,-1422.0,-1394.0
4434,1729,-1507,1,4668.0,4864.0,1549.0,1335.0,-1465.0,-1422.0
4183,1867,-1533,1,4434.0,4668.0,1729.0,1549.0,-1507.0,-1465.0
3922,1959,-1522,1,4183.0,4434.0,1867.0,1729.0,-1533.0,-1507.0
3646,2013,-1488,1,3922.0,4183.0,1959.0,1867.0,-1522.0,-1533.0
3372,2058,-1432,1,3646.0,3922.0,2013.0,1959.0,-1488.0,-1522.0
3103,2086,-1340,1,3372.0,3646.0,2058.0,2013.0,-1432.0,-1488.0
2836,2114,-1219,1,3103.0,3372.0,2086.0,2058.0,-1340.0,-1432.0
2576,2120,-1084,1,2836.0,3103.0,2114.0,2086.0,-1219.0,-1340.0
2339,2101,-955,1,2576.0,2836.0,2120.0,2114.0,-1084.0,-1219.0
2131,2051,-847,1,2339.0,2576.0,2101.0,2120.0,-955.0,-1084.0
1944,1967,-771,1,2131.0,2339.0,2051.0,2101.0,-847.0,-955.0
1777,1860,-738,1,1944.0,2131.0,1967.0,2051.0,-771.0,-847.0
1635,1737,-751,1,1777.0,1944.0,1860.0,1967.0,-738.0,-771.0
1541,1599,-809,1,1635.0,1777.0,1737.0,1860.0,-751.0,-738.0
1494,1450,-899,1,1541.0,1635.0,1599.0,1737.0,-809.0,-751.0
1496,1289,-1001,1,1494.0,1541.0,1450.0,1599.0,-899.0,-809.0
1544,1145,-1115,1,1496.0,1494.0,1289.0,1450.0,-1001.0,-899.0
1632,1026,-1222,1,1544.0,1496.0,1145.0,1289.0,-1115.0,-1001.0
1752,935,-1304,1,1632.0,1544.0,1026.0,1145.0,-1222.0,-1115.0
1907,880,-1348,1,1752.0,1632.0,935.0,1026.0,-1304.0,-1222.0
2096,838,-1349,1,1907.0,1752.0,880.0,935.0,-1348.0,-1304.0
2326,806,-1277,1,2096.0,1907.0,838.0,880.0,-1349.0,-1348.0
2629,741,-1114,1,2326.0,2096.0,806.0,838.0,-1277.0,-1349.0
3004,655,-863,1,2629.0,2326.0,741.0,806.0,-1114.0,-1277.0
3437,564,-555,1,3004.0,2629.0,655.0,741.0,-863.0,-1114.0
3900,485,-233,1,3437.0,3004.0,564.0,655.0,-555.0,-863.0
4380,449,56,1,3900.0,3437.0,485.0,564.0,-233.0,-555.0
4834,479,230,1,4380.0,3900.0,449.0,485.0,56.0,-233.0
5251,568,279,1,4834.0,4380.0,479.0,449.0,230.0,56.0
5611,688,191,1,5251.0,4834.0,568.0,479.0,279.0,230.0
5910,801,6,1,5611.0,5251.0,688.0,568.0,191.0,279.0
6151,886,-247,1,5910.0,5611.0,801.0,688.0,6.0,191.0
6334,900,-530,1,6151.0,5910.0,886.0,801.0,-247.0,6.0
6458,837,-783,1,6334.0,6151.0,900.0,886.0,-530.0,-247.0
6520,677,-986,1,6458.0,6334.0,837.0,900.0,-783.0,-530.0
6512,448,-1140,1,6520.0,6458.0,677.0,837.0,-986.0,-783.0
6413,213,-1266,1,6512.0,6520.0,448.0,677.0,-1140.0,-986.0
6234,6,-1355,1,6413.0,6512.0,213.0,448.0,-1266.0,-1140.0
6001,-148,-1413,1,6234.0,6413.0,6.0,213.0,-1355.0,-1266.0
5716,-244,-1429,1,6001.0,6234.0,-148.0,6.0,-1413.0,-1355.0
5404,-289,-1407,1,5716.0,6001.0,-244.0,-148.0,-1429.0,-1413.0
5080,-289,-1361,1,5404.0,5716.0,-289.0,-244.0,-1407.0,-1429.0
4748,-263,-1294,1,5080.0,5404.0,-289.0,-289.0,-1361.0,-1407.0
4430,-215,-1194,1,4748.0,5080.0,-263.0,-289.0,-1294.0,-1361.0
4115,-139,-1086,1,4430.0,4748.0,-215.0,-263.0,-1194.0,-1294.0
3800,-46,-965,1,4115.0,4430.0,-139.0,-215.0,-1086.0,-1194.0
3493,69,-834,1,3800.0,4115.0,-46.0,-139.0,-965.0,-1086.0
3206,196,-704,1,3493.0,3800.0,69.0,-46.0,-834.0,-965.0
2943,325,-579,1,3206.0,3493.0,196.0,69.0,-704.0,-834.0
2718,448,-459,1,2943.0,3206.0,325.0,196.0,-579.0,-704.0
2524,561,-346,1,2718.0,2943.0,448.0,325.0,-459.0,-579.0
2367,665,-244,1,2524.0,2718.0,561.0,448.0,-346.0,-459.0
2250,767,-159,1,2367.0,2524.0,665.0,561.0,-244.0,-346.0
2170,862,-89,1,2250.0,2367.0,767.0,665.0,-159.0,-244.0
2134,944,-29,1,2170.0,2250.0,862.0,767.0,-89.0,-159.0
2143,1002,21,1,2134.0,2170.0,944.0,862.0,-29.0,-89.0
2198,1027,65,1,2143.0,2134.0,1002.0,944.0,21.0,-29.0
2288,1037,100,1,2198.0,2143.0,1027.0,1002.0,65.0,21.0
2406,1043,136,1,2288.0,2198.0,1037.0,1027.0,100.0,65.0
2540,1046,170,1,2406.0,2288.0,1043.0,1037.0,136.0,100.0
2687,1056,199,1,2540.0,2406.0,1046.0,1043.0,170.0,136.0
2844,1066,216,1,2687.0,2540.0,1056.0,1046.0,199.0,170.0
3003,1074,218,1,2844.0,2687.0,1066.0,1056.0,216.0,199.0
3156,1074,188,1,3003.0,2844.0,1074.0,1066.0,218.0,216.0
3304,1064,138,1,3156.0,3003.0,1074.0,1074.0,188.0,218.0
3439,1041,69,1,3304.0,3156.0,1064.0,1074.0,138.0,188.0
3554,1010,-16,1,3439.0,3304.0,1041.0,1064.0,69.0,138.0
3654,971,-108,1,3554.0,3439.0,1010.0,1041.0,-16.0,69.0
3738,924,-204,1,3654.0,3554.0,971.0,1010.0,-108.0,-16.0
3816,867,-292,1,3738.0,3654.0,924.0,971.0,-204.0,-108.0
3880,797,-373,1,3816.0,3738.0,867.0,924.0,-292.0,-204.0
3933,724,-444,1,3880.0,3816.0,797.0,867.0,-373.0,-292.0
3981,646,-495,1,3933.0,3880.0,724.0,797.0,-444.0,-373.0
4014,569,-531,1,3981.0,3933.0,646.0,724.0,-495.0,-444.0
4037,489,-542,1,4014.0,3981.0,569.0,646.0,-531.0,-495.0
4040,425,-532,1,4037.0,4014.0,489.0,569.0,-542.0,-531.0
4023,383,-499,1,4040.0,4037.0,425.0,489.0,-532.0,-542.0
3990,359,-452,1,4023.0,4040.0,383.0,425.0,-499.0,-532.0
3949,347,-393,1,3990.0,4023.0,359.0,383.0,-452.0,-499.0
3901,342,-330,1,3949.0,3990.0,347.0,359.0,-393.0,-452.0
3846,344,-260,1,3901.0,3949.0,342.0,347.0,-330.0,-393.0
3784,372,-194,1,3846.0,3901.0,344.0,342.0,-260.0,-330.0
3716,415,-123,1,3784.0,3846.0,372.0,344.0,-194.0,-260.0
3645,472,-60,1,3716.0,3784.0,415.0,372.0,-123.0,-194.0
3575,541,6,1,3645.0,3716.0,472.0,415.0,-60.0,-123.0
3513,616,69,1,3575.0,3645.0,541.0,472.0,6.0,-60.0
3477,683,122,1,3513.0,3575.0,616.0,541.0,69.0,6.0
3458,741,173,1,3477.0,3513.0,683.0,616.0,122.0,69.0
3466,792,209,1,3458.0,3477.0,741.0,683.0,173.0,122.0
3502,829,232,1,3466.0,3458.0,792.0,741.0,209.0,173.0
3559,864,250,1,3502.0,3466.0,829.0,792.0,232.0,209.0
3626,887,259,1,3559.0,3502.0,864.0,829.0,250.0,232.0
3695,895,254,1,3626.0,3559.0,887.0,864.0,259.0,250.0
3759,896,211,1,3695.0,3626.0,895.0,887.0,254.0,259.0
3803,895,117,1,3759.0,3695.0,896.0,895.0,211.0,254.0
3829,907,-21,1,3803.0,3759.0,895.0,896.0,117.0,211.0
3832,944,-202,1,3829.0,3803.0,907.0,895.0,-21.0,117.0
3815,1002,-385,1,3832.0,3829.0,944.0,907.0,-202.0,-21.0
3797,1064,-524,1,3815.0,3832.0,1002.0,944.0,-385.0,-202.0
3784,1109,-573,1,3797.0,3815.0,1064.0,1002.0,-524.0,-385.0
3804,1101,-502,1,3784.0,3797.0,1109.0,1064.0,-573.0,-524.0
3867,1057,-302,1,3804.0,3784.0,1101.0,1109.0,-502.0,-573.0
3979,995,-10,1,3867.0,3804.0,1057.0,1101.0,-302.0,-502.0
4126,948,345,1,3979.0,3867.0,995.0,1057.0,-10.0,-302.0
4328,918,703,1,4126.0,3979.0,948.0,995.0,345.0,-10.0
4571,920,1037,1,4328.0,4126.0,918.0,948.0,703.0,345.0
4838,927,1328,1,4571.0,4328.0,920.0,918.0,1037.0,703.0
5108,934,1554,1,4838.0,4571.0,927.0,920.0,1328.0,1037.0
5360,910,1703,1,5108.0,4838.0,934.0,927.0,1554.0,1328.0
5577,843,1778,1,5360.0,5108.0,910.0,934.0,1703.0,1554.0
5737,743,1777,1,5577.0,5360.0,843.0,910.0,1778.0,1703.0
5836,619,1700,1,5737.0,5577.0,743.0,843.0,1777.0,1778.0
5861,481,1566,1,5836.0,5737.0,619.0,743.0,1700.0,1777.0
5825,332,1380,1,5861.0,5836.0,481.0,619.0,1566.0,1700.0
5718,153,1162,1,5825.0,5861.0,332.0,481.0,1380.0,1566.0
5549,-56,904,1,5718.0,5825.0,153.0,332.0,1162.0,1380.0
5357,-311,545,1,5549.0,5718.0,-56.0,153.0,904.0,1162.0
5167,-581,40,1,5357.0,5549.0,-311.0,-56.0,545.0,904.0
4970,-774,-580,1,5167.0,5357.0,-581.0,-311.0,40.0,545.0
4742,-858,-1188,1,4970.0,5167.0,-774.0,-581.0,-580.0,40.0
4493,-887,-1737,1,4742.0,4970.0,-858.0,-774.0,-1188.0,-580.0
4247,-882,-2215,1,4493.0,4742.0,-887.0,-858.0,-1737.0,-1188.0
4033,-848,-2577,1,4247.0,4493.0,-882.0,-887.0,-2215.0,-1737.0
3878,-777,-2764,1,4033.0,4247.0,-848.0,-882.0,-2577.0,-2215.0
3799,-633,-2774,1,3878.0,4033.0,-777.0,-848.0,-2764.0,-2577.0
3839,-352,-2664,1,3799.0,3878.0,-633.0,-777.0,-2774.0,-2764.0
4004,13,-2455,1,3839.0,3799.0,-352.0,-633.0,-2664.0,-2774.0
4312,388,-2180,1,4004.0,3839.0,13.0,-352.0,-2455.0,-2664.0
4710,785,-1875,1,4312.0,4004.0,388.0,13.0,-2180.0,-2455.0
5137,1235,-1549,1,4710.0,4312.0,785.0,388.0,-1875.0,-2180.0
5520,1740,-1229,1,5137.0,4710.0,1235.0,785.0,-1549.0,-1875.0
5833,2289,-907,1,5520.0,5137.0,1740.0,1235.0,-1229.0,-1549.0
6066,2775,-662,1,5833.0,5520.0,2289.0,1740.0,-907.0,-1229.0
6224,3110,-523,1,6066.0,5833.0,2775.0,2289.0,-662.0,-907.0
6328,3262,-456,1,6224.0,6066.0,3110.0,2775.0,-523.0,-662.0
6387,3274,-424,1,6328.0,6224.0,3262.0,3110.0,-456.0,-523.0
6363,3199,-452,1,6387.0,6328.0,3274.0,3262.0,-424.0,-456.0
6257,3076,-554,1,6363.0,6387.0,3199.0,3274.0,-452.0,-424.0
6073,2918,-717,1,6257.0,6363.0,3076.0,3199.0,-554.0,-452.0
5833,2744,-897,1,6073.0,6257.0,2918.0,3076.0,-717.0,-554.0
5562,2554,-1058,1,5833.0,6073.0,2744.0,2918.0,-897.0,-717.0
5258,2365,-1179,1,5562.0,5833.0,2554.0,2744.0,-1058.0,-897.0
4930,2182,-1250,1,5258.0,5562.0,2365.0,2554.0,-1179.0,-1058.0
4551,2032,-1260,1,4930.0,5258.0,2182.0,2365.0,-1250.0,-1179.0
4041,2005,-1125,1,4551.0,4930.0,2032.0,2182.0,-1260.0,-1250.0
3458,2011,-896,1,4041.0,4551.0,2005.0,2032.0,-1125.0,-1260.0
2822,1933,-744,1,3458.0,4041.0,2011.0,2005.0,-896.0,-1125.0
2185,1724,-741,1,2822.0,3458.0,1933.0,2011.0,-744.0,-896.0
1594,1428,-810,1,2185.0,2822.0,1724.0,1933.0,-741.0,-744.0
1052,1114,-855,1,1594.0,2185.0,1428.0,1724.0,-810.0,-741.0
583,802,-888,1,1052.0,1594.0,1114.0,1428.0,-855.0,-810.0
224,504,-943,1,583.0,1052.0,802.0,1114.0,-888.0,-855.0
-46,264,-1022,1,224.0,583.0,504.0,802.0,-943.0,-888.0
-210,97,-1157,1,-46.0,224.0,264.0,504.0,-1022.0,-943.0
-257,-13,-1352,1,-210.0,-46.0,97.0,264.0,-1157.0,-1022.0
-167,-76,-1572,1,-257.0,-210.0,-13.0,97.0,-1352.0,-1157.0
19,-105,-1764,1,-167.0,-257.0,-76.0,-13.0,-1572.0,-1352.0
274,-119,-1901,1,19.0,-167.0,-105.0,-76.0,-1764.0,-1572.0
577,-121,-1980,1,274.0,19.0,-119.0,-105.0,-1901.0,-1764.0
901,-87,-2005,1,577.0,274.0,-121.0,-119.0,-1980.0,-1901.0
1243,-34,-1979,1,901.0,577.0,-87.0,-121.0,-2005.0,-1980.0
1604,44,-1934,1,1243.0,901.0,-34.0,-87.0,-1979.0,-2005.0
1979,129,-1878,1,1604.0,1243.0,44.0,-34.0,-1934.0,-1979.0
2372,226,-1820,1,1979.0,1604.0,129.0,44.0,-1878.0,-1934.0
2793,326,-1763,1,2372.0,1979.0,226.0,129.0,-1820.0,-1878.0
3255,406,-1666,1,2793.0,2372.0,326.0,226.0,-1763.0,-1820.0
3751,472,-1498,1,3255.0,2793.0,406.0,326.0,-1666.0,-1763.0
4270,538,-1298,1,3751.0,3255.0,472.0,406.0,-1498.0,-1666.0
4793,612,-1096,1,4270.0,3751.0,538.0,472.0,-1298.0,-1498.0
5302,700,-892,1,4793.0,4270.0,612.0,538.0,-1096.0,-1298.0
5771,824,-720,1,5302.0,4793.0,700.0,612.0,-892.0,-1096.0
6180,986,-577,1,5771.0,5302.0,824.0,700.0,-720.0,-892.0
6517,1189,-474,1,6180.0,5771.0,986.0,824.0,-577.0,-720.0
6766,1450,-410,1,6517.0,6180.0,1189.0,986.0,-474.0,-577.0
6917,1748,-396,1,6766.0,6517.0,1450.0,1189.0,-410.0,-474.0
6970,2060,-440,1,6917.0,6766.0,1748.0,1450.0,-396.0,-410.0
6938,2354,-510,1,6970.0,6917.0,2060.0,1748.0,-440.0,-396.0
6810,2615,-569,1,6938.0,6970.0,2354.0,2060.0,-510.0,-440.0
6601,2819,-592,1,6810.0,6938.0,2615.0,2354.0,-569.0,-510.0
6324,2955,-569,1,6601.0,6810.0,2819.0,2615.0,-592.0,-569.0
5987,3015,-506,1,6324.0,6601.0,2955.0,2819.0,-569.0,-592.0
5600,2992,-418,1,5987.0,6324.0,3015.0,2955.0,-506.0,-569.0
5190,2869,-351,1,5600.0,5987.0,2992.0,3015.0,-418.0,-506.0
4773,2643,-319,1,5190.0,5600.0,2869.0,2992.0,-351.0,-418.0
4368,2336,-328,1,4773.0,5190.0,2643.0,2869.0,-319.0,-351.0
3957,1977,-387,1,4368.0,4773.0,2336.0,2643.0,-328.0,-319.0
3550,1599,-477,1,3957.0,4368.0,1977.0,2336.0,-387.0,-328.0
3165,1221,-601,1,3550.0,3957.0,1599.0,1977.0,-477.0,-387.0
2804,882,-754,1,3165.0,3550.0,1221.0,1599.0,-601.0,-477.0
2490,601,-927,1,2804.0,3165.0,882.0,1221.0,-754.0,-601.0
2232,392,-1108,1,2490.0,2804.0,601.0,882.0,-927.0,-754.0
2046,246,-1272,1,2232.0,2490.0,392.0,601.0,-1108.0,-927.0
1940,175,-1411,1,2046.0,2232.0,246.0,392.0,-1272.0,-1108.0
1895,170,-1497,1,1940.0,2046.0,175.0,246.0,-1411.0,-1272.0
1904,216,-1535,1,1895.0,1940.0,170.0,175.0,-1497.0,-1411.0
1952,300,-1527,1,1904.0,1895.0,216.0,170.0,-1535.0,-1497.0
2037,406,-1468,1,1952.0,1904.0,300.0,216.0,-1527.0,-1535.0
2154,516,-1383,1,2037.0,1952.0,406.0,300.0,-1468.0,-1527.0
2297,604,-1281,1,2154.0,2037.0,516.0,406.0,-1383.0,-1468.0
2474,664,-1179,1,2297.0,2154.0,604.0,516.0,-1281.0,-1383.0
2672,681,-1063,1,2474.0,2297.0,664.0,604.0,-1179.0,-1281.0
2889,655,-946,1,2672.0,2474.0,681.0,664.0,-1063.0,-1179.0
3119,587,-826,1,2889.0,2672.0,655.0,681.0,-946.0,-1063.0
3357,493,-707,1,3119.0,2889.0,587.0,655.0,-826.0,-946.0
3623,358,-569,1,3357.0,3119.0,493.0,587.0,-707.0,-826.0
3901,198,-417,1,3623.0,3357.0,358.0,493.0,-569.0,-707.0
4182,49,-274,1,3901.0,3623.0,198.0,358.0,-417.0,-569.0
4448,-75,-170,1,4182.0,3901.0,49.0,198.0,-274.0,-417.0
4676,-140,-117,1,4448.0,4182.0,-75.0,49.0,-170.0,-274.0
4845,-131,-118,1,4676.0,4448.0,-140.0,-75.0,-117.0,-170.0
4941,-52,-142,1,4845.0,4676.0,-131.0,-140.0,-118.0,-117.0
4954,96,-165,1,4941.0,4845.0,-52.0,-131.0,-142.0,-118.0
4897,287,-180,1,4954.0,4941.0,96.0,-52.0,-165.0,-142.0
4785,491,-183,1,4897.0,4954.0,287.0,96.0,-180.0,-165.0
4636,670,-183,1,4785.0,4897.0,491.0,287.0,-183.0,-180.0
4469,811,-196,1,4636.0,4785.0,670.0,491.0,-183.0,-183.0
4291,899,-226,1,4469.0,4636.0,811.0,670.0,-196.0,-183.0
4129,923,-273,1,4291.0,4469.0,899.0,811.0,-226.0,-196.0
3971,889,-340,1,4129.0,4291.0,923.0,899.0,-273.0,-226.0
3828,804,-418,1,3971.0,4129.0,889.0,923.0,-340.0,-273.0
3699,683,-504,1,3828.0,3971.0,804.0,889.0,-418.0,-340.0
3582,546,-585,1,3699.0,3828.0,683.0,804.0,-504.0,-418.0
3489,412,-658,1,3582.0,3699.0,546.0,683.0,-585.0,-504.0
3418,290,-707,1,3489.0,3582.0,412.0,546.0,-658.0,-585.0
3370,194,-731,1,3418.0,3489.0,290.0,412.0,-707.0,-658.0
3352,133,-737,1,3370.0,3418.0,194.0,290.0,-731.0,-707.0
3363,121,-720,1,3352.0,3370.0,133.0,194.0,-737.0,-731.0
3397,158,-693,1,3363.0,3352.0,121.0,133.0,-720.0,-737.0
3443,237,-660,1,3397.0,3363.0,158.0,121.0,-693.0,-720.0
3508,340,-613,1,3443.0,3397.0,237.0,158.0,-660.0,-693.0
3586,444,-559,1,3508.0,3443.0,340.0,237.0,-613.0,-660.0
3682,537,-497,1,3586.0,3508.0,444.0,340.0,-559.0,-613.0
3797,610,-425,1,3682.0,3586.0,537.0,444.0,-497.0,-559.0
3920,663,-343,1,3797.0,3682.0,610.0,537.0,-425.0,-497.0
4038,699,-254,1,3920.0,3797.0,663.0,610.0,-343.0,-425.0
4156,722,-172,1,4038.0,3920.0,699.0,663.0,-254.0,-343.0
4271,734,-93,1,4156.0,4038.0,722.0,699.0,-172.0,-254.0
4379,732,-34,1,4271.0,4156.0,734.0,722.0,-93.0,-172.0
4478,723,15,1,4379.0,4271.0,732.0,734.0,-34.0,-93.0
4567,700,37,1,4478.0,4379.0,723.0,732.0,15.0,-34.0
4641,673,41,1,4567.0,4478.0,700.0,723.0,37.0,15.0
4697,634,26,1,4641.0,4567.0,673.0,700.0,41.0,37.0
4746,587,-1,1,4697.0,4641.0,634.0,673.0,26.0,41.0
4775,537,-40,1,4746.0,4697.0,587.0,634.0,-1.0,26.0
4784,486,-88,1,4775.0,4746.0,537.0,587.0,-40.0,-1.0
4782,426,-137,1,4784.0,4775.0,486.0,537.0,-88.0,-40.0
4768,364,-180,1,4782.0,4784.0,426.0,486.0,-137.0,-88.0
4754,300,-219,1,4768.0,4782.0,364.0,426.0,-180.0,-137.0
4735,225,-248,1,4754.0,4768.0,300.0,364.0,-219.0,-180.0
4713,142,-263,1,4735.0,4754.0,225.0,300.0,-248.0,-219.0
4686,56,-261,1,4713.0,4735.0,142.0,225.0,-263.0,-248.0
4656,-32,-255,1,4686.0,4713.0,56.0,142.0,-261.0,-263.0
4618,-121,-242,1,4656.0,4686.0,-32.0,56.0,-255.0,-261.0
4575,-201,-226,1,4618.0,4656.0,-121.0,-32.0,-242.0,-255.0
4527,-264,-208,1,4575.0,4618.0,-201.0,-121.0,-226.0,-242.0
4483,-313,-200,1,4527.0,4575.0,-264.0,-201.0,-208.0,-226.0
4448,-338,-221,1,4483.0,4527.0,-313.0,-264.0,-200.0,-208.0
4420,-323,-305,1,4448.0,4483.0,-338.0,-313.0,-221.0,-200.0
4400,-276,-406,1,4420.0,4448.0,-323.0,-338.0,-305.0,-221.0
4390,-182,-478,1,4400.0,4420.0,-276.0,-323.0,-406.0,-305.0
4376,-46,-521,1,4390.0,4400.0,-182.0,-276.0,-478.0,-406.0
4356,136,-563,1,4376.0,4390.0,-46.0,-182.0,-521.0,-478.0
4344,346,-632,1,4356.0,4376.0,136.0,-46.0,-563.0,-521.0
4354,559,-736,1,4344.0,4356.0,346.0,136.0,-632.0,-563.0
4406,747,-848,1,4354.0,4344.0,559.0,346.0,-736.0,-632.0
4500,886,-963,1,4406.0,4354.0,747.0,559.0,-848.0,-736.0
4622,980,-1071,1,4500.0,4406.0,886.0,747.0,-963.0,-848.0
4769,1050,-1154,1,4622.0,4500.0,980.0,886.0,-1071.0,-963.0
4924,1136,-1210,1,4769.0,4622.0,1050.0,980.0,-1154.0,-1071.0
5073,1237,-1252,1,4924.0,4769.0,1136.0,1050.0,-1210.0,-1154.0
5207,1333,-1295,1,5073.0,4924.0,1237.0,1136.0,-1252.0,-1210.0
5331,1402,-1334,1,5207.0,5073.0,1333.0,1237.0,-1295.0,-1252.0
5440,1419,-1376,1,5331.0,5207.0,1402.0,1333.0,-1334.0,-1295.0
5527,1353,-1440,1,5440.0,5331.0,1419.0,1402.0,-1376.0,-1334.0
5589,1219,-1504,1,5527.0,5440.0,1353.0,1419.0,-1440.0,-1376.0
5601,1031,-1588,1,5589.0,5527.0,1219.0,1353.0,-1504.0,-1440.0
5540,838,-1662,1,5601.0,5589.0,1031.0,1219.0,-1588.0,-1504.0
5408,710,-1699,1,5540.0,5601.0,838.0,1031.0,-1662.0,-1588.0
5205,685,-1696,1,5408.0,5540.0,710.0,838.0,-1699.0,-1662.0
4950,785,-1629,1,5205.0,5408.0,685.0,710.0,-1696.0,-1699.0
4668,985,-1515,1,4950.0,5205.0,785.0,685.0,-1629.0,-1696.0
4384,1260,-1397,1,4668.0,4950.0,985.0,785.0,-1515.0,-1629.0
4117,1554,-1275,1,4384.0,4668.0,1260.0,985.0,-1397.0,-1515.0
3854,1849,-1171,1,4117.0,4384.0,1554.0,1260.0,-1275.0,-1397.0
3606,2112,-1086,1,3854.0,4117.0,1849.0,1554.0,-1171.0,-1275.0
3377,2324,-1015,1,3606.0,3854.0,2112.0,1849.0,-1086.0,-1171.0
3162,2470,-961,1,3377.0,3606.0,2324.0,2112.0,-1015.0,-1086.0
2952,2555,-912,1,3162.0,3377.0,2470.0,2324.0,-961.0,-1015.0
2744,2571,-862,1,2952.0,3162.0,2555.0,2470.0,-912.0,-961.0
2538,2529,-811,1,2744.0,2952.0,2571.0,2555.0,-862.0,-912.0
2335,2432,-750,1,2538.0,2744.0,2529.0,2571.0,-811.0,-862.0
2142,2291,-678,1,2335.0,2538.0,2432.0,2529.0,-750.0,-811.0
1948,2118,-604,1,2142.0,2335.0,2291.0,2432.0,-678.0,-750.0
1770,1913,-530,1,1948.0,2142.0,2118.0,2291.0,-604.0,-678.0
1620,1689,-473,1,1770.0,1948.0,1913.0,2118.0,-530.0,-604.0
1512,1445,-451,1,1620.0,1770.0,1689.0,1913.0,-473.0,-530.0
1456,1209,-460,1,1512.0,1620.0,1445.0,1689.0,-451.0,-473.0
1439,1011,-494,1,1456.0,1512.0,1209.0,1445.0,-460.0,-451.0
1456,866,-533,1,1439.0,1456.0,1011.0,1209.0,-494.0,-460.0
1511,784,-561,1,1456.0,1439.0,866.0,1011.0,-533.0,-494.0
1602,763,-567,1,1511.0,1456.0,784.0,866.0,-561.0,-533.0
1726,795,-542,1,1602.0,1511.0,763.0,784.0,-567.0,-561.0
1892,858,-492,1,1726.0,1602.0,795.0,763.0,-542.0,-567.0
2112,941,-422,1,1892.0,1726.0,858.0,795.0,-492.0,-542.0
2401,1011,-314,1,2112.0,1892.0,941.0,858.0,-422.0,-492.0
2738,1075,-180,1,2401.0,2112.0,1011.0,941.0,-314.0,-422.0
3122,1130,-36,1,2738.0,2401.0,1075.0,1011.0,-180.0,-314.0
3535,1182,105,1,3122.0,2738.0,1130.0,1075.0,-36.0,-180.0
3958,1239,209,1,3535.0,3122.0,1182.0,1130.0,105.0,-36.0
4381,1306,258,1,3958.0,3535.0,1239.0,1182.0,209.0,105.0
4787,1370,227,1,4381.0,3958.0,1306.0,1239.0,258.0,209.0
5151,1422,131,1,4787.0,4381.0,1370.0,1306.0,227.0,258.0
5464,1450,-5,1,5151.0,4787.0,1422.0,1370.0,131.0,227.0
5720,1437,-157,1,5464.0,5151.0,1450.0,1422.0,-5.0,131.0
5913,1361,-286,1,5720.0,5464.0,1437.0,1450.0,-157.0,-5.0
6042,1201,-357,1,5913.0,5720.0,1361.0,1437.0,-286.0,-157.0
6114,974,-408,1,6042.0,5913.0,1201.0,1361.0,-357.0,-286.0
6144,699,-489,1,6114.0,6042.0,974.0,1201.0,-408.0,-357.0
6128,411,-591,1,6144.0,6114.0,699.0,974.0,-489.0,-408.0
6064,151,-710,1,6128.0,6144.0,411.0,699.0,-591.0,-489.0
5950,-62,-831,1,6064.0,6128.0,151.0,411.0,-710.0,-591.0
5778,-202,-936,1,5950.0,6064.0,-62.0,151.0,-831.0,-710.0
5557,-269,-1001,1,5778.0,5950.0,-202.0,-62.0,-936.0,-831.0
5297,-271,-1028,1,5557.0,5778.0,-269.0,-202.0,-1001.0,-936.0
5011,-222,-1018,1,5297.0,5557.0,-271.0,-269.0,-1028.0,-1001.0
4706,-128,-963,1,5011.0,5297.0,-222.0,-271.0,-1018.0,-1028.0
4399,-10,-886,1,4706.0,5011.0,-128.0,-222.0,-963.0,-1018.0
4106,133,-792,1,4399.0,4706.0,-10.0,-128.0,-886.0,-963.0
3826,294,-689,1,4106.0,4399.0,133.0,-10.0,-792.0,-886.0
3575,465,-588,1,3826.0,4106.0,294.0,133.0,-689.0,-792.0
3350,640,-490,1,3575.0,3826.0,465.0,294.0,-588.0,-689.0
3152,829,-386,1,3350.0,3575.0,640.0,465.0,-490.0,-588.0
2990,1015,-289,1,3152.0,3350.0,829.0,640.0,-386.0,-490.0
2861,1183,-198,1,2990.0,3152.0,1015.0,829.0,-289.0,-386.0
2766,1320,-109,1,2861.0,2990.0,1183.0,1015.0,-198.0,-289.0
2701,1425,-31,1,2766.0,2861.0,1320.0,1183.0,-109.0,-198.0
2663,1504,45,1,2701.0,2766.0,1425.0,1320.0,-31.0,-109.0
2647,1560,132,1,2663.0,2701.0,1504.0,1425.0,45.0,-31.0
2656,1585,217,1,2647.0,2663.0,1560.0,1504.0,132.0,45.0
2689,1572,295,1,2656.0,2647.0,1585.0,1560.0,217.0,132.0
2743,1519,351,1,2689.0,2656.0,1572.0,1585.0,295.0,217.0
2805,1448,392,1,2743.0,2689.0,1519.0,1572.0,351.0,295.0
2871,1371,416,1,2805.0,2743.0,1448.0,1519.0,392.0,351.0
2931,1297,423,1,2871.0,2805.0,1371.0,1448.0,416.0,392.0
2982,1229,416,1,2931.0,2871.0,1297.0,1371.0,423.0,416.0
3035,1160,389,1,2982.0,2931.0,1229.0,1297.0,416.0,423.0
3103,1084,337,1,3035.0,2982.0,1160.0,1229.0,389.0,416.0
3172,1013,266,1,3103.0,3035.0,1084.0,1160.0,337.0,389.0
3243,940,183,1,3172.0,3103.0,1013.0,1084.0,266.0,337.0
3316,871,91,1,3243.0,3172.0,940.0,1013.0,183.0,266.0
3399,807,2,1,3316.0,3243.0,871.0,940.0,91.0,183.0
3494,744,-87,1,3399.0,3316.0,807.0,871.0,2.0,91.0
3598,675,-158,1,3494.0,3399.0,744.0,807.0,-87.0,2.0
3712,605,-223,1,3598.0,3494.0,675.0,744.0,-158.0,-87.0
3830,539,-272,1,3712.0,3598.0,605.0,675.0,-223.0,-158.0
3953,473,-294,1,3830.0,3712.0,539.0,605.0,-272.0,-223.0
4070,416,-294,1,3953.0,3830.0,473.0,539.0,-294.0,-272.0
4183,371,-269,1,4070.0,3953.0,416.0,473.0,-294.0,-294.0
4282,338,-231,1,4183.0,4070.0,371.0,416.0,-269.0,-294.0
4361,327,-178,1,4282.0,4183.0,338.0,371.0,-231.0,-269.0
4404,334,-120,1,4361.0,4282.0,327.0,338.0,-178.0,-231.0
4418,362,-59,1,4404.0,4361.0,334.0,327.0,-120.0,-178.0
4403,395,-10,1,4418.0,4404.0,362.0,334.0,-59.0,-120.0
4358,440,33,1,4403.0,4418.0,395.0,362.0,-10.0,-59.0
4279,487,62,1,4358.0,4403.0,440.0,395.0,33.0,-10.0
4190,519,76,1,4279.0,4358.0,487.0,440.0,62.0,33.0
4078,551,67,1,4190.0,4279.0,519.0,487.0,76.0,62.0
3956,563,41,1,4078.0,4190.0,551.0,519.0,67.0,76.0
3831,571,1,1,3956.0,4078.0,563.0,551.0,41.0,67.0
3705,573,-47,1,3831.0,3956.0,571.0,563.0,1.0,41.0
3591,567,-107,1,3705.0,3831.0,573.0,571.0,-47.0,1.0
3487,564,-170,1,3591.0,3705.0,567.0,573.0,-107.0,-47.0
3400,559,-234,1,3487.0,3591.0,564.0,567.0,-170.0,-107.0
3327,558,-292,1,3400.0,3487.0,559.0,564.0,-234.0,-170.0
3278,559,-336,1,3327.0,3400.0,558.0,559.0,-292.0,-234.0
3251,564,-348,1,3278.0,3327.0,559.0,558.0,-336.0,-292.0
3246,578,-333,1,3251.0,3278.0,564.0,559.0,-348.0,-336.0
3259,630,-309,1,3246.0,3251.0,578.0,564.0,-333.0,-348.0
3283,710,-271,1,3259.0,3246.0,630.0,578.0,-309.0,-333.0
3319,815,-233,1,3283.0,3259.0,710.0,630.0,-271.0,-309.0
3363,926,-193,1,3319.0,3283.0,815.0,710.0,-233.0,-271.0
3425,1046,-154,1,3363.0,3319.0,926.0,815.0,-193.0,-233.0
3485,1173,-129,1,3425.0,3363.0,1046.0,926.0,-154.0,-193.0
3543,1311,-106,1,3485.0,3425.0,1173.0,1046.0,-129.0,-154.0
3604,1435,-98,1,3543.0,3485.0,1311.0,1173.0,-106.0,-129.0
3669,1528,-101,1,3604.0,3543.0,1435.0,1311.0,-98.0,-106.0
3754,1573,-115,1,3669.0,3604.0,1528.0,1435.0,-101.0,-98.0
3853,1567,-130,1,3754.0,3669.0,1573.0,1528.0,-115.0,-101.0
3971,1515,-129,1,3853.0,3754.0,1567.0,1573.0,-130.0,-115.0
4083,1434,-100,1,3971.0,3853.0,1515.0,1567.0,-129.0,-130.0
4212,1322,-45,1,4083.0,3971.0,1434.0,1515.0,-100.0,-129.0
4345,1200,41,1,4212.0,4083.0,1322.0,1434.0,-45.0,-100.0
4485,1063,146,1,4345.0,4212.0,1200.0,1322.0,41.0,-45.0
4627,920,249,1,4485.0,4345.0,1063.0,1200.0,146.0,41.0
4755,783,335,1,4627.0,4485.0,920.0,1063.0,249.0,146.0
4866,651,395,1,4755.0,4627.0,783.0,920.0,335.0,249.0
4966,536,428,1,4866.0,4755.0,651.0,783.0,395.0,335.0
5049,430,430,1,4966.0,4866.0,536.0,651.0,428.0,395.0
5111,331,411,1,5049.0,4966.0,430.0,536.0,430.0,428.0
5148,236,371,1,5111.0,5049.0,331.0,430.0,411.0,430.0
5157,140,310,1,5148.0,5111.0,236.0,331.0,371.0,411.0
5152,47,232,1,5157.0,5148.0,140.0,236.0,310.0,371.0
5126,-49,129,1,5152.0,5157.0,47.0,140.0,232.0,310.0
5089,-157,21,1,5126.0,5152.0,-49.0,47.0,129.0,232.0
5042,-283,-95,1,5089.0,5126.0,-157.0,-49.0,21.0,129.0
4982,-423,-207,1,5042.0,5089.0,-283.0,-157.0,-95.0,21.0
4920,-570,-310,1,4982.0,5042.0,-423.0,-283.0,-207.0,-95.0
4851,-703,-399,1,4920.0,4982.0,-570.0,-423.0,-310.0,-207.0
4769,-798,-489,1,4851.0,4920.0,-703.0,-570.0,-399.0,-310.0
4684,-837,-602,1,4769.0,4851.0,-798.0,-703.0,-489.0,-399.0
4599,-812,-764,1,4684.0,4769.0,-837.0,-798.0,-602.0,-489.0
4522,-705,-975,1,4599.0,4684.0,-812.0,-837.0,-764.0,-602.0
4440,-509,-1207,1,4522.0,4599.0,-705.0,-812.0,-975.0,-764.0
4354,-235,-1422,1,4440.0,4522.0,-509.0,-705.0,-1207.0,-975.0
4263,88,-1594,1,4354.0,4440.0,-235.0,-509.0,-1422.0,-1207.0
4194,432,-1704,1,4263.0,4354.0,88.0,-235.0,-1594.0,-1422.0
4171,760,-1757,1,4194.0,4263.0,432.0,88.0,-1704.0,-1594.0
4218,1047,-1737,1,4171.0,4194.0,760.0,432.0,-1757.0,-1704.0
4338,1269,-1657,1,4218.0,4171.0,1047.0,760.0,-1737.0,-1757.0
4538,1419,-1532,1,4338.0,4218.0,1269.0,1047.0,-1657.0,-1737.0
4798,1531,-1378,1,4538.0,4338.0,1419.0,1269.0,-1532.0,-1657.0
5077,1634,-1212,1,4798.0,4538.0,1531.0,1419.0,-1378.0,-1532.0
5339,1747,-1047,1,5077.0,4798.0,1634.0,1531.0,-1212.0,-1378.0
5553,1884,-902,1,5339.0,5077.0,1747.0,1634.0,-1047.0,-1212.0
5705,2030,-795,1,5553.0,5339.0,1884.0,1747.0,-902.0,-1047.0
5787,2187,-708,1,5705.0,5553.0,2030.0,1884.0,-795.0,-902.0
5805,2329,-637,1,5787.0,5705.0,2187.0,2030.0,-708.0,-795.0
5760,2441,-584,1,5805.0,5787.0,2329.0,2187.0,-637.0,-708.0
5661,2543,-557,1,5760.0,5805.0,2441.0,2329.0,-584.0,-637.0
5510,2628,-563,1,5661.0,5760.0,2543.0,2441.0,-557.0,-584.0
5308,2707,-600,1,5510.0,5661.0,2628.0,2543.0,-563.0,-557.0
5063,2774,-658,1,5308.0,5510.0,2707.0,2628.0,-600.0,-563.0
4780,2817,-732,1,5063.0,5308.0,2774.0,2707.0,-658.0,-600.0
4471,2825,-808,1,4780.0,5063.0,2817.0,2774.0,-732.0,-658.0
4151,2803,-869,1,4471.0,4780.0,2825.0,2817.0,-808.0,-732.0
3801,2742,-915,1,4151.0,4471.0,2803.0,2825.0,-869.0,-808.0
3430,2658,-937,1,3801.0,4151.0,2742.0,2803.0,-915.0,-869.0
3048,2547,-941,1,3430.0,3801.0,2658.0,2742.0,-937.0,-915.0
2642,2396,-936,1,3048.0,3430.0,2547.0,2658.0,-941.0,-937.0
2210,2212,-942,1,2642.0,3048.0,2396.0,2547.0,-936.0,-941.0
1765,1997,-986,1,2210.0,2642.0,2212.0,2396.0,-942.0,-936.0
1343,1772,-1047,1,1765.0,2210.0,1997.0,2212.0,-986.0,-942.0
975,1537,-1118,1,1343.0,1765.0,1772.0,1997.0,-1047.0,-986.0
671,1312,-1172,1,975.0,1343.0,1537.0,1772.0,-1118.0,-1047.0
446,1104,-1216,1,671.0,975.0,1312.0,1537.0,-1172.0,-1118.0
312,927,-1270,1,446.0,671.0,1104.0,1312.0,-1216.0,-1172.0
272,797,-1341,1,312.0,446.0,927.0,1104.0,-1270.0,-1216.0
344,715,-1443,1,272.0,312.0,797.0,927.0,-1341.0,-1270.0
517,691,-1566,1,344.0,272.0,715.0,797.0,-1443.0,-1341.0
756,708,-1687,1,517.0,344.0,691.0,715.0,-1566.0,-1443.0
1050,756,-1788,1,756.0,517.0,708.0,691.0,-1687.0,-1566.0
1373,814,-1870,1,1050.0,756.0,756.0,708.0,-1788.0,-1687.0
1716,878,-1919,1,1373.0,1050.0,814.0,756.0,-1870.0,-1788.0
2071,925,-1953,1,1716.0,1373.0,878.0,814.0,-1919.0,-1870.0
2452,949,-1975,1,2071.0,1716.0,925.0,878.0,-1953.0,-1919.0
2873,938,-1978,1,2452.0,2071.0,949.0,925.0,-1975.0,-1953.0
3328,893,-1977,1,2873.0,2452.0,938.0,949.0,-1978.0,-1975.0
3807,824,-1972,1,3328.0,2873.0,893.0,938.0,-1977.0,-1978.0
4302,753,-1978,1,3807.0,3328.0,824.0,893.0,-1972.0,-1977.0
4804,697,-1995,1,4302.0,3807.0,753.0,824.0,-1978.0,-1972.0
5292,668,-2024,1,4804.0,4302.0,697.0,753.0,-1995.0,-1978.0
5740,694,-2050,1,5292.0,4804.0,668.0,697.0,-2024.0,-1995.0
6141,782,-2063,1,5740.0,5292.0,694.0,668.0,-2050.0,-2024.0
6476,924,-2062,1,6141.0,5740.0,782.0,694.0,-2063.0,-2050.0
6727,1121,-2035,1,6476.0,6141.0,924.0,782.0,-2062.0,-2063.0
6904,1369,-1973,1,6727.0,6476.0,1121.0,924.0,-2035.0,-2062.0
6997,1653,-1871,1,6904.0,6727.0,1369.0,1121.0,-1973.0,-2035.0
6989,1959,-1747,1,6997.0,6904.0,1653.0,1369.0,-1871.0,-1973.0
6871,2256,-1612,1,6989.0,6997.0,1959.0,1653.0,-1747.0,-1871.0
6654,2500,-1479,1,6871.0,6989.0,2256.0,1959.0,-1612.0,-1747.0
6365,2649,-1352,1,6654.0,6871.0,2500.0,2256.0,-1479.0,-1612.0
6041,2701,-1252,1,6365.0,6654.0,2649.0,2500.0,-1352.0,-1479.0
5658,2686,-1138,1,6041.0,6365.0,2701.0,2649.0,-1252.0,-1352.0
5213,2626,-1007,1,5658.0,6041.0,2686.0,2701.0,-1138.0,-1252.0
4753,2492,-909,1,5213.0,5658.0,2626.0,2686.0,-1007.0,-1138.0
4294,2266,-890,1,4753.0,5213.0,2492.0,2626.0,-909.0,-1007.0
3824,1963,-936,1,4294.0,4753.0,2266.0,2492.0,-890.0,-909.0
3339,1621,-1036,1,3824.0,4294.0,1963.0,2266.0,-936.0,-890.0
2864,1242,-1181,1,3339.0,3824.0,1621.0,1963.0,-1036.0,-936.0
2419,870,-1360,1,2864.0,3339.0,1242.0,1621.0,-1181.0,-1036.0
2024,534,-1545,1,2419.0,2864.0,870.0,1242.0,-1360.0,-1181.0
1718,261,-1712,1,2024.0,2419.0,534.0,870.0,-1545.0,-1360.0
1511,57,-1846,1,1718.0,2024.0,261.0,534.0,-1712.0,-1545.0
1413,-43,-1941,1,1511.0,1718.0,57.0,261.0,-1846.0,-1712.0
1404,-39,-1995,1,1413.0,1511.0,-43.0,57.0,-1941.0,-1846.0
1466,56,-2020,1,1404.0,1413.0,-39.0,-43.0,-1995.0,-1941.0
1592,220,-2003,1,1466.0,1404.0,56.0,-39.0,-2020.0,-1995.0
1767,404,-1949,1,1592.0,1466.0,220.0,56.0,-2003.0,-2020.0
1992,547,-1853,1,1767.0,1592.0,404.0,220.0,-1949.0,-2003.0
2272,623,-1695,1,1992.0,1767.0,547.0,404.0,-1853.0,-1949.0
2618,611,-1469,1,2272.0,1992.0,623.0,547.0,-1695.0,-1853.0
3014,523,-1194,1,2618.0,2272.0,611.0,623.0,-1469.0,-1695.0
3446,393,-889,1,3014.0,2618.0,523.0,611.0,-1194.0,-1469.0
3880,251,-598,1,3446.0,3014.0,393.0,523.0,-889.0,-1194.0
4299,141,-362,1,3880.0,3446.0,251.0,393.0,-598.0,-889.0
4669,74,-204,1,4299.0,3880.0,141.0,251.0,-362.0,-598.0
4981,61,-137,1,4669.0,4299.0,74.0,141.0,-204.0,-362.0
5209,103,-150,1,4981.0,4669.0,61.0,74.0,-137.0,-204.0
5346,197,-227,1,5209.0,4981.0,103.0,61.0,-150.0,-137.0
5390,316,-349,1,5346.0,5209.0,197.0,103.0,-227.0,-150.0
5353,443,-486,1,5390.0,5346.0,316.0,197.0,-349.0,-227.0
5244,544,-600,1,5353.0,5390.0,443.0,316.0,-486.0,-349.0
5084,619,-707,1,5244.0,5353.0,544.0,443.0,-600.0,-486.0
4887,657,-807,1,5084.0,5244.0,619.0,544.0,-707.0,-600.0
4664,640,-915,1,4887.0,5084.0,657.0,619.0,-807.0,-707.0
4434,563,-1032,1,4664.0,4887.0,640.0,657.0,-915.0,-807.0
4214,430,-1160,1,4434.0,4664.0,563.0,640.0,-1032.0,-915.0
4008,251,-1294,1,4214.0,4434.0,430.0,563.0,-1160.0,-1032.0
3818,52,-1420,1,4008.0,4214.0,251.0,430.0,-1294.0,-1160.0
3662,-157,-1527,1,3818.0,4008.0,52.0,251.0,-1420.0,-1294.0
3543,-356,-1610,1,3662.0,3818.0,-157.0,52.0,-1527.0,-1420.0
3475,-521,-1656,1,3543.0,3662.0,-356.0,-157.0,-1610.0,-1527.0
3469,-626,-1649,1,3475.0,3543.0,-521.0,-356.0,-1656.0,-1610.0
3509,-651,-1590,1,3469.0,3475.0,-626.0,-521.0,-1649.0,-1656.0
3581,-604,-1471,1,3509.0,3469.0,-651.0,-626.0,-1590.0,-1649.0
3665,-501,-1309,1,3581.0,3509.0,-604.0,-651.0,-1471.0,-1590.0
3779,-377,-1130,1,3665.0,3581.0,-501.0,-604.0,-1309.0,-1471.0
3891,-240,-928,1,3779.0,3665.0,-377.0,-501.0,-1130.0,-1309.0
3998,-103,-734,1,3891.0,3779.0,-240.0,-377.0,-928.0,-1130.0
4109,28,-576,1,3998.0,3891.0,-103.0,-240.0,-734.0,-928.0
4225,160,-459,1,4109.0,3998.0,28.0,-103.0,-576.0,-734.0
4330,281,-374,1,4225.0,4109.0,160.0,28.0,-459.0,-576.0
4415,395,-309,1,4330.0,4225.0,281.0,160.0,-374.0,-459.0
4486,510,-274,1,4415.0,4330.0,395.0,281.0,-309.0,-374.0
4528,621,-259,1,4486.0,4415.0,510.0,395.0,-274.0,-309.0
4552,722,-267,1,4528.0,4486.0,621.0,510.0,-259.0,-274.0
4566,804,-295,1,4552.0,4528.0,722.0,621.0,-267.0,-259.0
4564,869,-333,1,4566.0,4552.0,804.0,722.0,-295.0,-267.0
4550,915,-380,1,4564.0,4566.0,869.0,804.0,-333.0,-295.0
4527,952,-437,1,4550.0,4564.0,915.0,869.0,-380.0,-333.0
4488,986,-502,1,4527.0,4550.0,952.0,915.0,-437.0,-380.0
4437,1027,-571,1,4488.0,4527.0,986.0,952.0,-502.0,-437.0
4373,1080,-639,1,4437.0,4488.0,1027.0,986.0,-571.0,-502.0
4304,1140,-706,1,4373.0,4437.0,1080.0,1027.0,-639.0,-571.0
4229,1197,-763,1,4304.0,4373.0,1140.0,1080.0,-706.0,-639.0
4164,1248,-803,1,4229.0,4304.0,1197.0,1140.0,-763.0,-706.0
4106,1287,-819,1,4164.0,4229.0,1248.0,1197.0,-803.0,-763.0
4049,1307,-819,1,4106.0,4164.0,1287.0,1248.0,-819.0,-803.0
4000,1312,-808,1,4049.0,4106.0,1307.0,1287.0,-819.0,-819.0
3960,1305,-791,1,4000.0,4049.0,1312.0,1307.0,-808.0,-819.0
3926,1289,-782,1,3960.0,4000.0,1305.0,1312.0,-791.0,-808.0
3892,1268,-782,1,3926.0,3960.0,1289.0,1305.0,-782.0,-791.0
3864,1242,-793,1,3892.0,3926.0,1268.0,1289.0,-782.0,-782.0
3838,1212,-814,1,3864.0,3892.0,1242.0,1268.0,-793.0,-782.0
3812,1180,-845,1,3838.0,3864.0,1212.0,1242.0,-814.0,-793.0
3788,1137,-879,1,3812.0,3838.0,1180.0,1212.0,-845.0,-814.0
3759,1087,-929,1,3788.0,3812.0,1137.0,1180.0,-879.0,-845.0
3734,1037,-992,1,3759.0,3788.0,1087.0,1137.0,-929.0,-879.0
3707,969,-1053,1,3734.0,3759.0,1037.0,1087.0,-992.0,-929.0
3690,896,-1122,1,3707.0,3734.0,969.0,1037.0,-1053.0,-992.0
3668,809,-1190,1,3690.0,3707.0,896.0,969.0,-1122.0,-1053.0
3647,719,-1261,1,3668.0,3690.0,809.0,896.0,-1190.0,-1122.0
3628,623,-1334,1,3647.0,3668.0,719.0,809.0,-1261.0,-1190.0
3608,527,-1414,1,3628.0,3647.0,623.0,719.0,-1334.0,-1261.0
3595,437,-1495,1,3608.0,3628.0,527.0,623.0,-1414.0,-1334.0
3592,354,-1571,1,3595.0,3608.0,437.0,527.0,-1495.0,-1414.0
3595,274,-1635,1,3592.0,3595.0,354.0,437.0,-1571.0,-1495.0
3605,201,-1687,1,3595.0,3592.0,274.0,354.0,-1635.0,-1571.0
3615,137,-1729,1,3605.0,3595.0,201.0,274.0,-1687.0,-1635.0
3627,90,-1752,1,3615.0,3605.0,137.0,201.0,-1729.0,-1687.0
3642,52,-1768,1,3627.0,3615.0,90.0,137.0,-1752.0,-1729.0
3664,43,-1764,1,3642.0,3627.0,52.0,90.0,-1768.0,-1752.0
3685,67,-1741,1,3664.0,3642.0,43.0,52.0,-1764.0,-1768.0
3704,125,-1716,1,3685.0,3664.0,67.0,43.0,-1741.0,-1764.0
3723,222,-1664,1,3704.0,3685.0,125.0,67.0,-1716.0,-1741.0
3727,354,-1595,1,3723.0,3704.0,222.0,125.0,-1664.0,-1716.0
3734,499,-1510,1,3727.0,3723.0,354.0,222.0,-1595.0,-1664.0
3743,654,-1413,1,3734.0,3727.0,499.0,354.0,-1510.0,-1595.0
3745,817,-1296,1,3743.0,3734.0,654.0,499.0,-1413.0,-1510.0
3741,992,-1178,1,3745.0,3743.0,817.0,654.0,-1296.0,-1413.0
3733,1175,-1061,1,3741.0,3745.0,992.0,817.0,-1178.0,-1296.0
3713,1354,-954,1,3733.0,3741.0,1175.0,992.0,-1061.0,-1178.0
3693,1529,-854,1,3713.0,3733.0,1354.0,1175.0,-954.0,-1061.0
3666,1688,-769,1,3693.0,3713.0,1529.0,1354.0,-854.0,-954.0
3638,1820,-695,1,3666.0,3693.0,1688.0,1529.0,-769.0,-854.0
3596,1931,-646,1,3638.0,3666.0,1820.0,1688.0,-695.0,-769.0
3543,2011,-617,1,3596.0,3638.0,1931.0,1820.0,-646.0,-695.0
3478,2072,-597,1,3543.0,3596.0,2011.0,1931.0,-617.0,-646.0
3408,2090,-586,1,3478.0,3543.0,2072.0,2011.0,-597.0,-617.0
3333,2073,-589,1,3408.0,3478.0,2090.0,2072.0,-586.0,-597.0
3258,2040,-613,1,3333.0,3408.0,2073.0,2090.0,-589.0,-586.0
3180,1997,-649,1,3258.0,3333.0,2040.0,2073.0,-613.0,-589.0
3095,1942,-685,1,3180.0,3258.0,1997.0,2040.0,-649.0,-613.0
3010,1877,-720,1,3095.0,3180.0,1942.0,1997.0,-685.0,-649.0
2932,1808,-752,1,3010.0,3095.0,1877.0,1942.0,-720.0,-685.0
2860,1723,-783,1,2932.0,3010.0,1808.0,1877.0,-752.0,-720.0
2805,1620,-802,1,2860.0,2932.0,1723.0,1808.0,-783.0,-752.0
2770,1488,-799,1,2805.0,2860.0,1620.0,1723.0,-802.0,-783.0
2768,1331,-770,1,2770.0,2805.0,1488.0,1620.0,-799.0,-802.0
2796,1153,-721,1,2768.0,2770.0,1331.0,1488.0,-770.0,-799.0
2843,970,-660,1,2796.0,2768.0,1153.0,1331.0,-721.0,-770.0
2919,789,-592,1,2843.0,2796.0,970.0,1153.0,-660.0,-721.0
3036,619,-526,1,2919.0,2843.0,789.0,970.0,-592.0,-660.0
3186,477,-460,1,3036.0,2919.0,619.0,789.0,-526.0,-592.0
3352,374,-392,1,3186.0,3036.0,477.0,619.0,-460.0,-526.0
3534,315,-323,1,3352.0,3186.0,374.0,477.0,-392.0,-460.0
3727,290,-260,1,3534.0,3352.0,315.0,374.0,-323.0,-392.0
3918,286,-203,1,3727.0,3534.0,290.0,315.0,-260.0,-323.0
4108,295,-172,1,3918.0,3727.0,286.0,290.0,-203.0,-260.0
4306,303,-152,1,4108.0,3918.0,295.0,286.0,-172.0,-203.0
4500,310,-171,1,4306.0,4108.0,303.0,295.0,-152.0,-172.0
4688,300,-214,1,4500.0,4306.0,310.0,303.0,-171.0,-152.0
4864,277,-278,1,4688.0,4500.0,300.0,310.0,-214.0,-171.0
5027,238,-366,1,4864.0,4688.0,277.0,300.0,-278.0,-214.0
5168,184,-467,1,5027.0,4864.0,238.0,277.0,-366.0,-278.0
5295,108,-563,1,5168.0,5027.0,184.0,238.0,-467.0,-366.0
5391,12,-652,1,5295.0,5168.0,108.0,184.0,-563.0,-467.0
5454,-98,-710,1,5391.0,5295.0,12.0,108.0,-652.0,-563.0
5466,-220,-735,1,5454.0,5391.0,-98.0,12.0,-710.0,-652.0
5430,-342,-724,1,5466.0,5454.0,-220.0,-98.0,-735.0,-710.0
5337,-444,-678,1,5430.0,5466.0,-342.0,-220.0,-724.0,-735.0
5192,-508,-609,1,5337.0,5430.0,-444.0,-342.0,-678.0,-724.0
5025,-530,-529,1,5192.0,5337.0,-508.0,-444.0,-609.0,-678.0
4857,-510,-448,1,5025.0,5192.0,-530.0,-508.0,-529.0,-609.0
4689,-451,-376,1,4857.0,5025.0,-510.0,-530.0,-448.0,-529.0
4539,-353,-304,1,4689.0,4857.0,-451.0,-510.0,-376.0,-448.0
4410,-231,-229,1,4539.0,4689.0,-353.0,-451.0,-304.0,-376.0
4308,-106,-148,1,4410.0,4539.0,-231.0,-353.0,-229.0,-304.0
4240,21,-66,1,4308.0,4410.0,-106.0,-231.0,-148.0,-229.0
4211,132,18,1,4240.0,4308.0,21.0,-106.0,-66.0,-148.0
4215,238,99,1,4211.0,4240.0,132.0,21.0,18.0,-66.0
4249,327,172,1,4215.0,4211.0,238.0,132.0,99.0,18.0
4304,407,241,1,4249.0,4215.0,327.0,238.0,172.0,99.0
4374,479,300,1,4304.0,4249.0,407.0,327.0,241.0,172.0
4454,538,347,1,4374.0,4304.0,479.0,407.0,300.0,241.0
4528,605,383,1,4454.0,4374.0,538.0,479.0,347.0,300.0
4593,672,401,1,4528.0,4454.0,605.0,538.0,383.0,347.0
4640,744,400,1,4593.0,4528.0,672.0,605.0,401.0,383.0
4668,799,374,1,4640.0,4593.0,744.0,672.0,400.0,401.0
4673,845,330,1,4668.0,4640.0,799.0,744.0,374.0,400.0
4663,878,268,1,4673.0,4668.0,845.0,799.0,330.0,374.0
4629,905,206,1,4663.0,4673.0,878.0,845.0,268.0,330.0
4564,935,140,1,4629.0,4663.0,905.0,878.0,206.0,268.0
4472,962,72,1,4564.0,4629.0,935.0,905.0,140.0,206.0
4366,972,23,1,4472.0,4564.0,962.0,935.0,72.0,140.0
4252,975,-13,1,4366.0,4472.0,972.0,962.0,23.0,72.0
4139,961,-29,1,4252.0,4366.0,975.0,972.0,-13.0,23.0
4022,910,-24,1,4139.0,4252.0,961.0,975.0,-29.0,-13.0
3893,870,-12,1,4022.0,4139.0,910.0,961.0,-24.0,-29.0
3762,825,3,1,3893.0,4022.0,870.0,910.0,-12.0,-24.0
3623,792,26,1,3762.0,3893.0,825.0,870.0,3.0,-12.0
3490,765,52,1,3623.0,3762.0,792.0,825.0,26.0,3.0
3367,735,75,1,3490.0,3623.0,765.0,792.0,52.0,26.0
3255,713,104,1,3367.0,3490.0,735.0,765.0,75.0,52.0
3150,704,145,1,3255.0,3367.0,713.0,735.0,104.0,75.0
3071,692,181,1,3150.0,3255.0,704.0,713.0,145.0,104.0
3006,693,222,1,3071.0,3150.0,692.0,704.0,181.0,145.0
2950,719,269,1,3006.0,3071.0,693.0,692.0,222.0,181.0
2922,748,307,1,2950.0,3006.0,719.0,693.0,269.0,222.0
2913,791,351,1,2922.0,2950.0,748.0,719.0,307.0,269.0
2919,839,393,1,2913.0,2922.0,791.0,748.0,351.0,307.0
2950,870,423,1,2919.0,2913.0,839.0,791.0,393.0,351.0
3002,894,444,1,2950.0,2919.0,870.0,839.0,423.0,393.0
3063,926,463,1,3002.0,2950.0,894.0,870.0,444.0,423.0
3124,974,473,1,3063.0,3002.0,926.0,894.0,463.0,444.0
3189,1026,475,1,3124.0,3063.0,974.0,926.0,473.0,463.0
3260,1061,476,1,3189.0,3124.0,1026.0,974.0,475.0,473.0
3336,1080,480,1,3260.0,3189.0,1061.0,1026.0,476.0,475.0
3416,1094,488,1,3336.0,3260.0,1080.0,1061.0,480.0,476.0
3494,1085,494,1,3416.0,3336.0,1094.0,1080.0,488.0,480.0
3585,1064,494,1,3494.0,3416.0,1085.0,1094.0,494.0,488.0
3669,1042,497,1,3585.0,3494.0,1064.0,1085.0,494.0,494.0
3757,1019,500,1,3669.0,3585.0,1042.0,1064.0,497.0,494.0
3836,996,507,1,3757.0,3669.0,1019.0,1042.0,500.0,497.0
3915,965,508,1,3836.0,3757.0,996.0,1019.0,507.0,500.0
3984,940,511,1,3915.0,3836.0,965.0,996.0,508.0,507.0
4046,892,499,1,3984.0,3915.0,940.0,965.0,511.0,508.0
4110,838,476,1,4046.0,3984.0,892.0,940.0,499.0,511.0
4156,800,459,1,4110.0,4046.0,838.0,892.0,476.0,499.0
4192,771,446,1,4156.0,4110.0,800.0,838.0,459.0,476.0
4209,755,432,1,4192.0,4156.0,771.0,800.0,446.0,459.0
4209,741,426,1,4209.0,4192.0,755.0,771.0,432.0,446.0
4201,713,408,1,4209.0,4209.0,741.0,755.0,426.0,432.0
4197,669,395,1,4201.0,4209.0,713.0,741.0,408.0,426.0
4164,640,388,1,4197.0,4201.0,669.0,713.0,395.0,408.0
4130,611,383,1,4164.0,4197.0,640.0,669.0,388.0,395.0
4115,548,362,1,4130.0,4164.0,611.0,640.0,383.0,388.0
4114,466,350,1,4115.0,4130.0,548.0,611.0,362.0,383.0
4123,397,350,1,4114.0,4115.0,466.0,548.0,350.0,362.0
4132,349,361,1,4123.0,4114.0,397.0,466.0,350.0,350.0
4126,340,391,1,4132.0,4123.0,349.0,397.0,361.0,350.0
4113,372,430,1,4126.0,4132.0,340.0,349.0,391.0,361.0
4103,405,480,1,4113.0,4126.0,372.0,340.0,430.0,391.0
4102,435,530,1,4103.0,4113.0,405.0,372.0,480.0,430.0
4085,480,589,1,4102.0,4103.0,435.0,405.0,530.0,480.0
4079,504,629,1,4085.0,4102.0,480.0,435.0,589.0,530.0
4089,524,664,1,4079.0,4085.0,504.0,480.0,629.0,589.0
4097,523,694,1,4089.0,4079.0,524.0,504.0,664.0,629.0
4106,531,714,1,4097.0,4089.0,523.0,524.0,694.0,664.0
4115,566,717,1,4106.0,4097.0,531.0,523.0,714.0,694.0
4140,610,675,1,4115.0,4106.0,566.0,531.0,717.0,714.0
4186,693,562,1,4140.0,4115.0,610.0,566.0,675.0,717.0
4242,849,366,1,4186.0,4140.0,693.0,610.0,562.0,675.0
4302,1062,97,1,4242.0,4186.0,849.0,693.0,366.0,562.0
4357,1296,-238,1,4302.0,4242.0,1062.0,849.0,97.0,366.0
4409,1539,-597,1,4357.0,4302.0,1296.0,1062.0,-238.0,97.0
4470,1779,-926,1,4409.0,4357.0,1539.0,1296.0,-597.0,-238.0
4564,1982,-1183,1,4470.0,4409.0,1779.0,1539.0,-926.0,-597.0
4717,2111,-1336,1,4564.0,4470.0,1982.0,1779.0,-1183.0,-926.0
4942,2153,-1398,1,4717.0,4564.0,2111.0,1982.0,-1336.0,-1183.0
5239,2127,-1408,1,4942.0,4717.0,2153.0,2111.0,-1398.0,-1336.0
5571,2068,-1374,1,5239.0,4942.0,2127.0,2153.0,-1408.0,-1398.0
5910,1998,-1292,1,5571.0,5239.0,2068.0,2127.0,-1374.0,-1408.0
6215,1917,-1146,1,5910.0,5571.0,1998.0,2068.0,-1292.0,-1374.0
6454,1849,-945,1,6215.0,5910.0,1917.0,1998.0,-1146.0,-1292.0
6599,1796,-720,1,6454.0,6215.0,1849.0,1917.0,-945.0,-1146.0
6633,1761,-496,1,6599.0,6454.0,1796.0,1849.0,-720.0,-945.0
6562,1742,-325,1,6633.0,6599.0,1761.0,1796.0,-496.0,-720.0
6404,1748,-230,1,6562.0,6633.0,1742.0,1761.0,-325.0,-496.0
6158,1772,-202,1,6404.0,6562.0,1748.0,1742.0,-230.0,-325.0
5831,1816,-213,1,6158.0,6404.0,1772.0,1748.0,-202.0,-230.0
5438,1859,-265,1,5831.0,6158.0,1816.0,1772.0,-213.0,-202.0
5015,1860,-350,1,5438.0,5831.0,1859.0,1816.0,-265.0,-213.0
4571,1830,-491,1,5015.0,5438.0,1860.0,1859.0,-350.0,-265.0
4111,1765,-648,1,4571.0,5015.0,1830.0,1860.0,-491.0,-350.0
3642,1613,-807,1,4111.0,4571.0,1765.0,1830.0,-648.0,-491.0
3171,1355,-969,1,3642.0,4111.0,1613.0,1765.0,-807.0,-648.0
2708,1001,-1149,1,3171.0,3642.0,1355.0,1613.0,-969.0,-807.0
2283,600,-1332,1,2708.0,3171.0,1001.0,1355.0,-1149.0,-969.0
1900,221,-1502,1,2283.0,2708.0,600.0,1001.0,-1332.0,-1149.0
1592,-108,-1656,1,1900.0,2283.0,221.0,600.0,-1502.0,-1332.0
1348,-355,-1784,1,1592.0,1900.0,-108.0,221.0,-1656.0,-1502.0
1179,-516,-1871,1,1348.0,1592.0,-355.0,-108.0,-1784.0,-1656.0
1072,-583,-1918,1,1179.0,1348.0,-516.0,-355.0,-1871.0,-1784.0
1036,-557,-1916,1,1072.0,1179.0,-583.0,-516.0,-1918.0,-1871.0
1070,-441,-1876,1,1036.0,1072.0,-557.0,-583.0,-1916.0,-1918.0
1180,-276,-1804,1,1070.0,1036.0,-441.0,-557.0,-1876.0,-1916.0
1338,-86,-1696,1,1180.0,1070.0,-276.0,-441.0,-1804.0,-1876.0
1551,79,-1565,1,1338.0,1180.0,-86.0,-276.0,-1696.0,-1804.0
1811,213,-1423,1,1551.0,1338.0,79.0,-86.0,-1565.0,-1696.0
2101,306,-1300,1,1811.0,1551.0,213.0,79.0,-1423.0,-1565.0
2418,351,-1206,1,2101.0,1811.0,306.0,213.0,-1300.0,-1423.0
2737,378,-1124,1,2418.0,2101.0,351.0,306.0,-1206.0,-1300.0
3038,405,-1070,1,2737.0,2418.0,378.0,351.0,-1124.0,-1206.0
3313,442,-1058,1,3038.0,2737.0,405.0,378.0,-1070.0,-1124.0
3561,492,-1074,1,3313.0,3038.0,442.0,405.0,-1058.0,-1070.0
3785,553,-1123,1,3561.0,3313.0,492.0,442.0,-1074.0,-1058.0
3973,633,-1194,1,3785.0,3561.0,553.0,492.0,-1123.0,-1074.0
4150,715,-1284,1,3973.0,3785.0,633.0,553.0,-1194.0,-1123.0
4308,811,-1378,1,4150.0,3973.0,715.0,633.0,-1284.0,-1194.0
4453,927,-1476,1,4308.0,4150.0,811.0,715.0,-1378.0,-1284.0
4591,1052,-1560,1,4453.0,4308.0,927.0,811.0,-1476.0,-1378.0
4724,1178,-1630,1,4591.0,4453.0,1052.0,927.0,-1560.0,-1476.0
4852,1302,-1662,1,4724.0,4591.0,1178.0,1052.0,-1630.0,-1560.0
4974,1410,-1649,1,4852.0,4724.0,1302.0,1178.0,-1662.0,-1630.0
5091,1504,-1583,1,4974.0,4852.0,1410.0,1302.0,-1649.0,-1662.0
5202,1572,-1464,1,5091.0,4974.0,1504.0,1410.0,-1583.0,-1649.0
5298,1609,-1309,1,5202.0,5091.0,1572.0,1504.0,-1464.0,-1583.0
5379,1607,-1135,1,5298.0,5202.0,1609.0,1572.0,-1309.0,-1464.0
5430,1578,-959,1,5379.0,5298.0,1607.0,1609.0,-1135.0,-1309.0
5452,1524,-804,1,5430.0,5379.0,1578.0,1607.0,-959.0,-1135.0
5423,1461,-684,1,5452.0,5430.0,1524.0,1578.0,-804.0,-959.0
5343,1391,-603,1,5423.0,5452.0,1461.0,1524.0,-684.0,-804.0
5211,1319,-560,1,5343.0,5423.0,1391.0,1461.0,-603.0,-684.0
5039,1250,-556,1,5211.0,5343.0,1319.0,1391.0,-560.0,-603.0
4826,1188,-580,1,5039.0,5211.0,1250.0,1319.0,-556.0,-560.0
4590,1133,-628,1,4826.0,5039.0,1188.0,1250.0,-580.0,-556.0
4343,1097,-686,1,4590.0,4826.0,1133.0,1188.0,-628.0,-580.0
4089,1069,-740,1,4343.0,4590.0,1097.0,1133.0,-686.0,-628.0
3838,1043,-787,1,4089.0,4343.0,1069.0,1097.0,-740.0,-686.0
3601,1022,-823,1,3838.0,4089.0,1043.0,1069.0,-787.0,-740.0
3392,991,-855,1,3601.0,3838.0,1022.0,1043.0,-823.0,-787.0
3225,953,-876,1,3392.0,3601.0,991.0,1022.0,-855.0,-823.0
3103,912,-885,1,3225.0,3392.0,953.0,991.0,-876.0,-855.0
3024,872,-876,1,3103.0,3225.0,912.0,953.0,-885.0,-876.0
2983,833,-852,1,3024.0,3103.0,872.0,912.0,-876.0,-885.0
2978,796,-814,1,2983.0,3024.0,833.0,872.0,-852.0,-876.0
3000,751,-772,1,2978.0,2983.0,796.0,833.0,-814.0,-852.0
3053,696,-726,1,3000.0,2978.0,751.0,796.0,-772.0,-814.0
3125,632,-673,1,3053.0,3000.0,696.0,751.0,-726.0,-772.0
3212,572,-623,1,3125.0,3053.0,632.0,696.0,-673.0,-726.0
3303,514,-570,1,3212.0,3125.0,572.0,632.0,-623.0,-673.0
3392,464,-516,1,3303.0,3212.0,514.0,572.0,-570.0,-623.0
3475,414,-464,1,3392.0,3303.0,464.0,514.0,-516.0,-570.0
3562,362,-420,1,3475.0,3392.0,414.0,464.0,-464.0,-516.0
3635,329,-389,1,3562.0,3475.0,362.0,414.0,-420.0,-464.0
3701,307,-371,1,3635.0,3562.0,329.0,362.0,-389.0,-420.0
3759,289,-367,1,3701.0,3635.0,307.0,329.0,-371.0,-389.0
3810,278,-369,1,3759.0,3701.0,289.0,307.0,-367.0,-371.0
3851,268,-383,1,3810.0,3759.0,278.0,289.0,-369.0,-367.0
3885,266,-408,1,3851.0,3810.0,268.0,278.0,-383.0,-369.0
3917,261,-434,1,3885.0,3851.0,266.0,268.0,-408.0,-383.0
3946,255,-455,1,3917.0,3885.0,261.0,266.0,-434.0,-408.0
3961,256,-476,1,3946.0,3917.0,255.0,261.0,-455.0,-434.0
3980,257,-490,1,3961.0,3946.0,256.0,255.0,-476.0,-455.0
3991,252,-500,1,3980.0,3961.0,257.0,256.0,-490.0,-476.0
3998,248,-504,1,3991.0,3980.0,252.0,257.0,-500.0,-490.0
4004,252,-501,1,3998.0,3991.0,248.0,252.0,-504.0,-500.0
4005,246,-488,1,4004.0,3998.0,252.0,248.0,-501.0,-504.0
4005,250,-469,1,4005.0,4004.0,246.0,252.0,-488.0,-501.0
3998,261,-437,1,4005.0,4005.0,250.0,246.0,-469.0,-488.0
3985,276,-399,1,3998.0,4005.0,261.0,250.0,-437.0,-469.0
3971,303,-366,1,3985.0,3998.0,276.0,261.0,-399.0,-437.0
3960,334,-334,1,3971.0,3985.0,303.0,276.0,-366.0,-399.0
3955,368,-307,1,3960.0,3971.0,334.0,303.0,-334.0,-366.0
3950,408,-274,1,3955.0,3960.0,368.0,334.0,-307.0,-334.0
3936,458,-234,1,3950.0,3955.0,408.0,368.0,-274.0,-307.0
3917,507,-199,1,3936.0,3950.0,458.0,408.0,-234.0,-274.0
3898,552,-159,1,3917.0,3936.0,507.0,458.0,-199.0,-234.0
3880,581,-120,1,3898.0,3917.0,552.0,507.0,-159.0,-199.0
3863,592,-83,1,3880.0,3898.0,581.0,552.0,-120.0,-159.0
3848,583,-56,1,3863.0,3880.0,592.0,581.0,-83.0,-120.0
3834,559,-38,1,3848.0,3863.0,583.0,592.0,-56.0,-83.0
3816,527,-33,1,3834.0,3848.0,559.0,583.0,-38.0,-56.0
3800,488,-35,1,3816.0,3834.0,527.0,559.0,-33.0,-38.0
3783,448,-56,1,3800.0,3816.0,488.0,527.0,-35.0,-33.0
3765,410,-88,1,3783.0,3800.0,448.0,488.0,-56.0,-35.0
3746,375,-131,1,3765.0,3783.0,410.0,448.0,-88.0,-56.0
3726,343,-180,1,3746.0,3765.0,375.0,410.0,-131.0,-88.0
3710,316,-224,1,3726.0,3746.0,343.0,375.0,-180.0,-131.0
3698,293,-261,1,3710.0,3726.0,316.0,343.0,-224.0,-180.0
3687,274,-291,1,3698.0,3710.0,293.0,316.0,-261.0,-224.0
3674,262,-314,1,3687.0,3698.0,274.0,293.0,-291.0,-261.0
3672,253,-321,1,3674.0,3687.0,262.0,274.0,-314.0,-291.0
3674,243,-320,1,3672.0,3674.0,253.0,262.0,-321.0,-314.0
3691,236,-314,1,3674.0,3672.0,243.0,253.0,-320.0,-321.0
3715,229,-298,1,3691.0,3674.0,236.0,243.0,-314.0,-320.0
3751,227,-276,1,3715.0,3691.0,229.0,236.0,-298.0,-314.0
3794,223,-248,1,3751.0,3715.0,227.0,229.0,-276.0,-298.0
3849,226,-217,1,3794.0,3751.0,223.0,227.0,-248.0,-276.0
3906,232,-185,1,3849.0,3794.0,226.0,223.0,-217.0,-248.0
3970,245,-148,1,3906.0,3849.0,232.0,226.0,-185.0,-217.0
4027,258,-118,1,3970.0,3906.0,245.0,232.0,-148.0,-185.0
4071,274,-103,1,4027.0,3970.0,258.0,245.0,-118.0,-148.0
4116,292,-107,1,4071.0,4027.0,274.0,258.0,-103.0,-118.0
4159,318,-133,1,4116.0,4071.0,292.0,274.0,-107.0,-103.0
4192,338,-181,1,4159.0,4116.0,318.0,292.0,-133.0,-107.0
4226,356,-244,1,4192.0,4159.0,338.0,318.0,-181.0,-133.0
4250,367,-303,1,4226.0,4192.0,356.0,338.0,-244.0,-181.0
4272,364,-355,1,4250.0,4226.0,367.0,356.0,-303.0,-244.0
4284,352,-381,1,4272.0,4250.0,364.0,367.0,-355.0,-303.0
4296,322,-387,1,4284.0,4272.0,352.0,364.0,-381.0,-355.0
4302,287,-369,1,4296.0,4284.0,322.0,352.0,-387.0,-381.0
4314,242,-330,1,4302.0,4296.0,287.0,322.0,-369.0,-387.0
4318,194,-272,1,4314.0,4302.0,242.0,287.0,-330.0,-369.0
4341,151,-200,1,4318.0,4314.0,194.0,242.0,-272.0,-330.0
4369,124,-123,1,4341.0,4318.0,151.0,194.0,-200.0,-272.0
4414,109,-48,1,4369.0,4341.0,124.0,151.0,-123.0,-200.0
4464,114,31,1,4414.0,4369.0,109.0,124.0,-48.0,-123.0
4518,137,109,1,4464.0,4414.0,114.0,109.0,31.0,-48.0
4580,174,191,1,4518.0,4464.0,137.0,114.0,109.0,31.0
4645,214,249,1,4580.0,4518.0,174.0,137.0,191.0,109.0
4706,255,198,1,4645.0,4580.0,214.0,174.0,249.0,191.0
4765,325,72,1,4706.0,4645.0,255.0,214.0,198.0,249.0
4822,407,-97,1,4765.0,4706.0,325.0,255.0,72.0,198.0
4870,498,-292,1,4822.0,4765.0,407.0,325.0,-97.0,72.0
4905,571,-522,1,4870.0,4822.0,498.0,407.0,-292.0,-97.0
4942,613,-786,1,4905.0,4870.0,571.0,498.0,-522.0,-292.0
4995,597,-1051,1,4942.0,4905.0,613.0,571.0,-786.0,-522.0
5079,511,-1275,1,4995.0,4942.0,597.0,613.0,-1051.0,-786.0
5189,355,-1457,1,5079.0,4995.0,511.0,597.0,-1275.0,-1051.0
5312,165,-1592,1,5189.0,5079.0,355.0,511.0,-1457.0,-1275.0
5428,-12,-1681,1,5312.0,5189.0,165.0,355.0,-1592.0,-1457.0
5515,-139,-1724,1,5428.0,5312.0,-12.0,165.0,-1681.0,-1592.0
5566,-188,-1723,1,5515.0,5428.0,-139.0,-12.0,-1724.0,-1681.0
5586,-180,-1670,1,5566.0,5515.0,-188.0,-139.0,-1723.0,-1724.0
5587,-131,-1586,1,5586.0,5566.0,-180.0,-188.0,-1670.0,-1723.0
5578,-63,-1492,1,5587.0,5586.0,-131.0,-180.0,-1586.0,-1670.0
5555,20,-1406,1,5578.0,5587.0,-63.0,-131.0,-1492.0,-1586.0
5516,127,-1332,1,5555.0,5578.0,20.0,-63.0,-1406.0,-1492.0
5445,246,-1263,1,5516.0,5555.0,127.0,20.0,-1332.0,-1406.0
5340,389,-1226,1,5445.0,5516.0,246.0,127.0,-1263.0,-1332.0
5185,553,-1211,1,5340.0,5445.0,389.0,246.0,-1226.0,-1263.0
4989,733,-1210,1,5185.0,5340.0,553.0,389.0,-1211.0,-1226.0
4757,916,-1226,1,4989.0,5185.0,733.0,553.0,-1210.0,-1211.0
4498,1090,-1254,1,4757.0,4989.0,916.0,733.0,-1226.0,-1210.0
4240,1243,-1281,1,4498.0,4757.0,1090.0,916.0,-1254.0,-1226.0
3971,1372,-1313,1,4240.0,4498.0,1243.0,1090.0,-1281.0,-1254.0
3888,1682,-1000,1,3971.0,4240.0,1372.0,1243.0,-1313.0,-1281.0
3940,2099,-526,1,3888.0,3971.0,1682.0,1372.0,-1000.0,-1313.0
3896,2552,-224,1,3940.0,3888.0,2099.0,1682.0,-526.0,-1000.0
3571,2848,-385,1,3896.0,3940.0,2552.0,2099.0,-224.0,-526.0
3017,2970,-835,1,3571.0,3896.0,2848.0,2552.0,-385.0,-224.0
2387,2917,-1352,1,3017.0,3571.0,2970.0,2848.0,-835.0,-385.0
1833,2670,-1776,1,2387.0,3017.0,2917.0,2970.0,-1352.0,-835.0
1418,2289,-2012,1,1833.0,2387.0,2670.0,2917.0,-1776.0,-1352.0
1136,1842,-2052,1,1418.0,1833.0,2289.0,2670.0,-2012.0,-1776.0
1021,1431,-1928,1,1136.0,1418.0,1842.0,2289.0,-2052.0,-2012.0
1085,1039,-1698,1,1021.0,1136.0,1431.0,1842.0,-1928.0,-2052.0
1294,697,-1417,1,1085.0,1021.0,1039.0,1431.0,-1698.0,-1928.0
1604,457,-1147,1,1294.0,1085.0,697.0,1039.0,-1417.0,-1698.0
1958,379,-881,1,1604.0,1294.0,457.0,697.0,-1147.0,-1417.0
2305,466,-627,1,1958.0,1604.0,379.0,457.0,-881.0,-1147.0
2616,644,-400,1,2305.0,1958.0,466.0,379.0,-627.0,-881.0
2871,830,-228,1,2616.0,2305.0,644.0,466.0,-400.0,-627.0
3079,1007,-110,1,2871.0,2616.0,830.0,644.0,-228.0,-400.0
3240,1125,-58,1,3079.0,2871.0,1007.0,830.0,-110.0,-228.0
3306,1101,-174,1,3240.0,3079.0,1125.0,1007.0,-58.0,-110.0
3405,1058,-217,1,3306.0,3240.0,1101.0,1125.0,-174.0,-58.0
3512,962,-286,1,3405.0,3306.0,1058.0,1101.0,-217.0,-174.0
3633,840,-387,1,3512.0,3405.0,962.0,1058.0,-286.0,-217.0
3758,714,-519,1,3633.0,3512.0,840.0,962.0,-387.0,-286.0
3889,603,-663,1,3758.0,3633.0,714.0,840.0,-519.0,-387.0
4016,517,-795,1,3889.0,3758.0,603.0,714.0,-663.0,-519.0
4157,445,-922,1,4016.0,3889.0,517.0,603.0,-795.0,-663.0
4314,371,-1040,1,4157.0,4016.0,445.0,517.0,-922.0,-795.0
4484,278,-1130,1,4314.0,4157.0,371.0,445.0,-1040.0,-922.0
4671,153,-1188,1,4484.0,4314.0,278.0,371.0,-1130.0,-1040.0
4887,-18,-1201,1,4671.0,4484.0,153.0,278.0,-1188.0,-1130.0
5129,-218,-1137,1,4887.0,4671.0,-18.0,153.0,-1201.0,-1188.0
5393,-453,-1010,1,5129.0,4887.0,-218.0,-18.0,-1137.0,-1201.0
5674,-697,-868,1,5393.0,5129.0,-453.0,-218.0,-1010.0,-1137.0
5945,-907,-753,1,5674.0,5393.0,-697.0,-453.0,-868.0,-1010.0
6184,-1019,-686,1,5945.0,5674.0,-907.0,-697.0,-753.0,-868.0
6352,-1023,-680,1,6184.0,5945.0,-1019.0,-907.0,-686.0,-753.0
6414,-941,-701,1,6352.0,6184.0,-1023.0,-1019.0,-680.0,-686.0
6359,-809,-721,1,6414.0,6352.0,-941.0,-1023.0,-701.0,-680.0
6199,-638,-723,1,6359.0,6414.0,-809.0,-941.0,-721.0,-701.0
5937,-455,-696,1,6199.0,6359.0,-638.0,-809.0,-723.0,-721.0
5602,-265,-648,1,5937.0,6199.0,-455.0,-638.0,-696.0,-723.0
5236,-98,-616,1,5602.0,5937.0,-265.0,-455.0,-648.0,-696.0
4852,52,-629,1,5236.0,5602.0,-98.0,-265.0,-616.0,-648.0
4471,188,-675,1,4852.0,5236.0,52.0,-98.0,-629.0,-616.0
4101,294,-744,1,4471.0,4852.0,188.0,52.0,-675.0,-629.0
3748,373,-819,1,4101.0,4471.0,294.0,188.0,-744.0,-675.0
3444,400,-894,1,3748.0,4101.0,373.0,294.0,-819.0,-744.0
3196,380,-956,1,3444.0,3748.0,400.0,373.0,-894.0,-819.0
3013,323,-989,1,3196.0,3444.0,380.0,400.0,-956.0,-894.0
2874,258,-993,1,3013.0,3196.0,323.0,380.0,-989.0,-956.0
2783,201,-957,1,2874.0,3013.0,258.0,323.0,-993.0,-989.0
2722,197,-894,1,2783.0,2874.0,201.0,258.0,-957.0,-993.0
2677,274,-800,1,2722.0,2783.0,197.0,201.0,-894.0,-957.0
2657,411,-675,1,2677.0,2722.0,274.0,197.0,-800.0,-894.0
2678,578,-525,1,2657.0,2677.0,411.0,274.0,-675.0,-800.0
2740,745,-355,1,2678.0,2657.0,578.0,411.0,-525.0,-675.0
2836,905,-178,1,2740.0,2678.0,745.0,578.0,-355.0,-525.0
2952,1047,3,1,2836.0,2740.0,905.0,745.0,-178.0,-355.0
3079,1173,179,1,2952.0,2836.0,1047.0,905.0,3.0,-178.0
3216,1288,341,1,3079.0,2952.0,1173.0,1047.0,179.0,3.0
3341,1381,461,1,3216.0,3079.0,1288.0,1173.0,341.0,179.0
3459,1440,530,1,3341.0,3216.0,1381.0,1288.0,461.0,341.0
3568,1447,548,1,3459.0,3341.0,1440.0,1381.0,530.0,461.0
3668,1402,516,1,3568.0,3459.0,1447.0,1440.0,548.0,530.0
3745,1312,436,1,3668.0,3568.0,1402.0,1447.0,516.0,548.0
3802,1195,328,1,3745.0,3668.0,1312.0,1402.0,436.0,516.0
3835,1060,197,1,3802.0,3745.0,1195.0,1312.0,328.0,436.0
3841,928,56,1,3835.0,3802.0,1060.0,1195.0,197.0,328.0
3828,788,-84,1,3841.0,3835.0,928.0,1060.0,56.0,197.0
3797,646,-221,1,3828.0,3841.0,788.0,928.0,-84.0,56.0
3753,523,-354,1,3797.0,3828.0,646.0,788.0,-221.0,-84.0
3697,421,-453,1,3753.0,3797.0,523.0,646.0,-354.0,-221.0
3645,324,-537,1,3697.0,3753.0,421.0,523.0,-453.0,-354.0
3594,236,-618,1,3645.0,3697.0,324.0,421.0,-537.0,-453.0
3539,177,-660,1,3594.0,3645.0,236.0,324.0,-618.0,-537.0
3489,131,-662,1,3539.0,3594.0,177.0,236.0,-660.0,-618.0
3448,99,-644,1,3489.0,3539.0,131.0,177.0,-662.0,-660.0
3413,89,-608,1,3448.0,3489.0,99.0,131.0,-644.0,-662.0
3377,108,-553,1,3413.0,3448.0,89.0,99.0,-608.0,-644.0
3349,153,-477,1,3377.0,3413.0,108.0,89.0,-553.0,-608.0
3328,207,-392,1,3349.0,3377.0,153.0,108.0,-477.0,-553.0
3320,272,-298,1,3328.0,3349.0,207.0,153.0,-392.0,-477.0
3323,352,-204,1,3320.0,3328.0,272.0,207.0,-298.0,-392.0
3335,438,-102,1,3323.0,3320.0,352.0,272.0,-204.0,-298.0
3359,525,2,1,3335.0,3323.0,438.0,352.0,-102.0,-204.0
3389,604,102,1,3359.0,3335.0,525.0,438.0,2.0,-102.0
3430,680,197,1,3389.0,3359.0,604.0,525.0,102.0,2.0
3471,755,290,1,3430.0,3389.0,680.0,604.0,197.0,102.0
3517,830,367,1,3471.0,3430.0,755.0,680.0,290.0,197.0
3562,898,421,1,3517.0,3471.0,830.0,755.0,367.0,290.0
3616,948,440,1,3562.0,3517.0,898.0,830.0,421.0,367.0
3670,990,425,1,3616.0,3562.0,948.0,898.0,440.0,421.0
3728,1018,376,1,3670.0,3616.0,990.0,948.0,425.0,440.0
3791,1037,302,1,3728.0,3670.0,1018.0,990.0,376.0,425.0
3866,1043,214,1,3791.0,3728.0,1037.0,1018.0,302.0,376.0
3955,1034,114,1,3866.0,3791.0,1043.0,1037.0,214.0,302.0
4035,1013,30,1,3955.0,3866.0,1034.0,1043.0,114.0,214.0
4120,980,-32,1,4035.0,3955.0,1013.0,1034.0,30.0,114.0
4204,943,-81,1,4120.0,4035.0,980.0,1013.0,-32.0,30.0
4294,898,-92,1,4204.0,4120.0,943.0,980.0,-81.0,-32.0
4383,858,-82,1,4294.0,4204.0,898.0,943.0,-92.0,-81.0
4467,835,-79,1,4383.0,4294.0,858.0,898.0,-82.0,-92.0
4544,830,-76,1,4467.0,4383.0,835.0,858.0,-79.0,-82.0
4617,835,-56,1,4544.0,4467.0,830.0,835.0,-76.0,-79.0
4671,856,-24,1,4617.0,4544.0,835.0,830.0,-56.0,-76.0
4710,893,38,1,4671.0,4617.0,856.0,835.0,-24.0,-56.0
4743,933,144,1,4710.0,4671.0,893.0,856.0,38.0,-24.0
4760,973,287,1,4743.0,4710.0,933.0,893.0,144.0,38.0
4778,1002,448,1,4760.0,4743.0,973.0,933.0,287.0,144.0
4793,1018,623,1,4778.0,4760.0,1002.0,973.0,448.0,287.0
4822,1018,792,1,4793.0,4778.0,1018.0,1002.0,623.0,448.0
4853,996,928,1,4822.0,4793.0,1018.0,1018.0,792.0,623.0
4892,946,1036,1,4853.0,4822.0,996.0,1018.0,928.0,792.0
4910,876,1103,1,4892.0,4853.0,946.0,996.0,1036.0,928.0
4917,778,1135,1,4910.0,4892.0,876.0,946.0,1103.0,1036.0
4902,669,1128,1,4917.0,4910.0,778.0,876.0,1135.0,1103.0
4863,543,1072,1,4902.0,4917.0,669.0,778.0,1128.0,1135.0
4800,394,996,1,4863.0,4902.0,543.0,669.0,1072.0,1128.0
4714,232,878,1,4800.0,4863.0,394.0,543.0,996.0,1072.0
4603,112,673,1,4714.0,4800.0,232.0,394.0,878.0,996.0
4491,21,389,1,4603.0,4714.0,112.0,232.0,673.0,878.0
4383,3,-21,1,4491.0,4603.0,21.0,112.0,389.0,673.0
4274,67,-484,1,4383.0,4491.0,3.0,21.0,-21.0,389.0
4182,156,-918,1,4274.0,4383.0,67.0,3.0,-484.0,-21.0
4104,234,-1326,1,4182.0,4274.0,156.0,67.0,-918.0,-484.0
4053,300,-1701,1,4104.0,4182.0,234.0,156.0,-1326.0,-918.0
4044,358,-1988,1,4053.0,4104.0,300.0,234.0,-1701.0,-1326.0
4073,431,-2154,1,4044.0,4053.0,358.0,300.0,-1988.0,-1701.0
4155,498,-2192,1,4073.0,4044.0,431.0,358.0,-2154.0,-1988.0
4301,573,-2129,1,4155.0,4073.0,498.0,431.0,-2192.0,-2154.0
4542,627,-2024,1,4301.0,4155.0,573.0,498.0,-2129.0,-2192.0
4872,638,-1875,1,4542.0,4301.0,627.0,573.0,-2024.0,-2129.0
5247,644,-1691,1,4872.0,4542.0,638.0,627.0,-1875.0,-2024.0
5622,689,-1491,1,5247.0,4872.0,644.0,638.0,-1691.0,-1875.0
5932,817,-1292,1,5622.0,5247.0,689.0,644.0,-1491.0,-1691.0
6152,1034,-1087,1,5932.0,5622.0,817.0,689.0,-1292.0,-1491.0
6259,1324,-881,1,6152.0,5932.0,1034.0,817.0,-1087.0,-1292.0
6243,1641,-713,1,6259.0,6152.0,1324.0,1034.0,-881.0,-1087.0
6137,1926,-589,1,6243.0,6259.0,1641.0,1324.0,-713.0,-881.0
5982,2147,-527,1,6137.0,6243.0,1926.0,1641.0,-589.0,-713.0
5814,2289,-521,1,5982.0,6137.0,2147.0,1926.0,-527.0,-589.0
5621,2350,-570,1,5814.0,5982.0,2289.0,2147.0,-521.0,-527.0
5389,2357,-645,1,5621.0,5814.0,2350.0,2289.0,-570.0,-521.0
5113,2327,-737,1,5389.0,5621.0,2357.0,2350.0,-645.0,-570.0
4806,2266,-854,1,5113.0,5389.0,2327.0,2357.0,-737.0,-645.0
4471,2174,-997,1,4806.0,5113.0,2266.0,2327.0,-854.0,-737.0
4109,2052,-1133,1,4471.0,4806.0,2174.0,2266.0,-997.0,-854.0
3710,1896,-1243,1,4109.0,4471.0,2052.0,2174.0,-1133.0,-997.0
3292,1703,-1335,1,3710.0,4109.0,1896.0,2052.0,-1243.0,-1133.0
2875,1478,-1427,1,3292.0,3710.0,1703.0,1896.0,-1335.0,-1243.0
2473,1250,-1497,1,2875.0,3292.0,1478.0,1703.0,-1427.0,-1335.0
2096,1044,-1551,1,2473.0,2875.0,1250.0,1478.0,-1497.0,-1427.0
1753,877,-1578,1,2096.0,2473.0,1044.0,1250.0,-1551.0,-1497.0
1446,758,-1578,1,1753.0,2096.0,877.0,1044.0,-1578.0,-1551.0
1186,668,-1556,1,1446.0,1753.0,758.0,877.0,-1578.0,-1578.0
985,600,-1531,1,1186.0,1446.0,668.0,758.0,-1556.0,-1578.0
855,539,-1517,1,985.0,1186.0,600.0,668.0,-1531.0,-1556.0
795,480,-1524,1,855.0,985.0,539.0,600.0,-1517.0,-1531.0
815,417,-1558,1,795.0,855.0,480.0,539.0,-1524.0,-1517.0
889,360,-1600,1,815.0,795.0,417.0,480.0,-1558.0,-1524.0
1017,293,-1644,1,889.0,815.0,360.0,417.0,-1600.0,-1558.0
1181,219,-1686,1,1017.0,889.0,293.0,360.0,-1644.0,-1600.0
1372,123,-1711,1,1181.0,1017.0,219.0,293.0,-1686.0,-1644.0
1585,10,-1720,1,1372.0,1181.0,123.0,219.0,-1711.0,-1686.0
1832,-127,-1720,1,1585.0,1372.0,10.0,123.0,-1720.0,-1711.0
2109,-266,-1711,1,1832.0,1585.0,-127.0,10.0,-1720.0,-1720.0
2403,-378,-1696,1,2109.0,1832.0,-266.0,-127.0,-1711.0,-1720.0
2694,-435,-1678,1,2403.0,2109.0,-378.0,-266.0,-1696.0,-1711.0
2981,-429,-1661,1,2694.0,2403.0,-435.0,-378.0,-1678.0,-1696.0
3263,-359,-1658,1,2981.0,2694.0,-429.0,-435.0,-1661.0,-1678.0
3543,-230,-1676,1,3263.0,2981.0,-359.0,-429.0,-1658.0,-1661.0
3815,-57,-1705,1,3543.0,3263.0,-230.0,-359.0,-1676.0,-1658.0
4064,157,-1737,1,3815.0,3543.0,-57.0,-230.0,-1705.0,-1676.0
4300,402,-1762,1,4064.0,3815.0,157.0,-57.0,-1737.0,-1705.0
4520,660,-1758,1,4300.0,4064.0,402.0,157.0,-1762.0,-1737.0
4732,908,-1725,1,4520.0,4300.0,660.0,402.0,-1758.0,-1762.0
4930,1146,-1649,1,4732.0,4520.0,908.0,660.0,-1725.0,-1758.0
5118,1355,-1536,1,4930.0,4732.0,1146.0,908.0,-1649.0,-1725.0
5300,1532,-1409,1,5118.0,4930.0,1355.0,1146.0,-1536.0,-1649.0
5458,1684,-1279,1,5300.0,5118.0,1532.0,1355.0,-1409.0,-1536.0
5589,1817,-1151,1,5458.0,5300.0,1684.0,1532.0,-1279.0,-1409.0
5684,1922,-1030,1,5589.0,5458.0,1817.0,1684.0,-1151.0,-1279.0
5745,1988,-915,1,5684.0,5589.0,1922.0,1817.0,-1030.0,-1151.0
5761,2012,-806,1,5745.0,5684.0,1988.0,1922.0,-915.0,-1030.0
5736,1978,-716,1,5761.0,5745.0,2012.0,1988.0,-806.0,-915.0
5664,1882,-642,1,5736.0,5761.0,1978.0,2012.0,-716.0,-806.0
5550,1723,-594,1,5664.0,5736.0,1882.0,1978.0,-642.0,-716.0
5390,1517,-575,1,5550.0,5664.0,1723.0,1882.0,-594.0,-642.0
5184,1293,-595,1,5390.0,5550.0,1517.0,1723.0,-575.0,-594.0
4937,1084,-659,1,5184.0,5390.0,1293.0,1517.0,-595.0,-575.0
4660,901,-755,1,4937.0,5184.0,1084.0,1293.0,-659.0,-595.0
4376,744,-860,1,4660.0,4937.0,901.0,1084.0,-755.0,-659.0
4090,624,-958,1,4376.0,4660.0,744.0,901.0,-860.0,-755.0
3807,535,-1043,1,4090.0,4376.0,624.0,744.0,-958.0,-860.0
3548,466,-1109,1,3807.0,4090.0,535.0,624.0,-1043.0,-958.0
3322,404,-1155,1,3548.0,3807.0,466.0,535.0,-1109.0,-1043.0
3145,354,-1172,1,3322.0,3548.0,404.0,466.0,-1155.0,-1109.0
3007,319,-1156,1,3145.0,3322.0,354.0,404.0,-1172.0,-1155.0
2908,315,-1107,1,3007.0,3145.0,319.0,354.0,-1156.0,-1172.0
2847,326,-1032,1,2908.0,3007.0,315.0,319.0,-1107.0,-1156.0
2812,346,-944,1,2847.0,2908.0,326.0,315.0,-1032.0,-1107.0
2805,381,-841,1,2812.0,2847.0,346.0,326.0,-944.0,-1032.0
2820,409,-732,1,2805.0,2812.0,381.0,346.0,-841.0,-944.0
2861,420,-615,1,2820.0,2805.0,409.0,381.0,-732.0,-841.0
2918,419,-508,1,2861.0,2820.0,420.0,409.0,-615.0,-732.0
3004,402,-415,1,2918.0,2861.0,419.0,420.0,-508.0,-615.0
3104,372,-344,1,3004.0,2918.0,402.0,419.0,-415.0,-508.0
3205,340,-298,1,3104.0,3004.0,372.0,402.0,-344.0,-415.0
3297,303,-269,1,3205.0,3104.0,340.0,372.0,-298.0,-344.0
3386,269,-272,1,3297.0,3205.0,303.0,340.0,-269.0,-298.0
3468,244,-288,1,3386.0,3297.0,269.0,303.0,-272.0,-269.0
3550,208,-325,1,3468.0,3386.0,244.0,269.0,-288.0,-272.0
3620,166,-370,1,3550.0,3468.0,208.0,244.0,-325.0,-288.0
3680,120,-421,1,3620.0,3550.0,166.0,208.0,-370.0,-325.0
3736,62,-475,1,3680.0,3620.0,120.0,166.0,-421.0,-370.0
3786,12,-533,1,3736.0,3680.0,62.0,120.0,-475.0,-421.0
3825,-35,-576,1,3786.0,3736.0,12.0,62.0,-533.0,-475.0
3855,-74,-607,1,3825.0,3786.0,-35.0,12.0,-576.0,-533.0
3884,-102,-628,1,3855.0,3825.0,-74.0,-35.0,-607.0,-576.0
3902,-112,-633,1,3884.0,3855.0,-102.0,-74.0,-628.0,-607.0
3919,-116,-630,1,3902.0,3884.0,-112.0,-102.0,-633.0,-628.0
3934,-116,-620,1,3919.0,3902.0,-116.0,-112.0,-630.0,-633.0
3955,-111,-610,1,3934.0,3919.0,-116.0,-116.0,-620.0,-630.0
3982,-94,-596,1,3955.0,3934.0,-111.0,-116.0,-610.0,-620.0
4007,-69,-583,1,3982.0,3955.0,-94.0,-111.0,-596.0,-610.0
4038,-33,-567,1,4007.0,3982.0,-69.0,-94.0,-583.0,-596.0
4069,11,-556,1,4038.0,4007.0,-33.0,-69.0,-567.0,-583.0
4092,58,-537,1,4069.0,4038.0,11.0,-33.0,-556.0,-567.0
4114,109,-516,1,4092.0,4069.0,58.0,11.0,-537.0,-556.0
4139,153,-491,1,4114.0,4092.0,109.0,58.0,-516.0,-537.0
4157,189,-462,1,4139.0,4114.0,153.0,109.0,-491.0,-516.0
4174,218,-435,1,4157.0,4139.0,189.0,153.0,-462.0,-491.0
4184,248,-412,1,4174.0,4157.0,218.0,189.0,-435.0,-462.0
4177,279,-397,1,4184.0,4174.0,248.0,218.0,-412.0,-435.0
4162,317,-384,1,4177.0,4184.0,279.0,248.0,-397.0,-412.0
4142,351,-377,1,4162.0,4177.0,317.0,279.0,-384.0,-397.0
4119,383,-371,1,4142.0,4162.0,351.0,317.0,-377.0,-384.0
4083,416,-362,1,4119.0,4142.0,383.0,351.0,-371.0,-377.0
4043,442,-343,1,4083.0,4119.0,416.0,383.0,-362.0,-371.0
3999,452,-328,1,4043.0,4083.0,442.0,416.0,-343.0,-362.0
3963,451,-311,1,3999.0,4043.0,452.0,442.0,-328.0,-343.0
3928,441,-296,1,3963.0,3999.0,451.0,452.0,-311.0,-328.0
3894,423,-291,1,3928.0,3963.0,441.0,451.0,-296.0,-311.0
3873,402,-285,1,3894.0,3928.0,423.0,441.0,-291.0,-296.0
3856,372,-280,1,3873.0,3894.0,402.0,423.0,-285.0,-291.0
3847,332,-273,1,3856.0,3873.0,372.0,402.0,-280.0,-285.0
3847,299,-282,1,3847.0,3856.0,332.0,372.0,-273.0,-280.0
3853,263,-308,1,3847.0,3847.0,299.0,332.0,-282.0,-273.0
3867,228,-354,1,3853.0,3847.0,263.0,299.0,-308.0,-282.0
3888,205,-424,1,3867.0,3853.0,228.0,263.0,-354.0,-308.0
3916,183,-509,1,3888.0,3867.0,205.0,228.0,-424.0,-354.0
3934,162,-593,1,3916.0,3888.0,183.0,205.0,-509.0,-424.0
3954,138,-664,1,3934.0,3916.0,162.0,183.0,-593.0,-509.0
3974,107,-702,1,3954.0,3934.0,138.0,162.0,-664.0,-593.0
3995,60,-699,1,3974.0,3954.0,107.0,138.0,-702.0,-664.0
4021,11,-649,1,3995.0,3974.0,60.0,107.0,-699.0,-702.0
4060,-51,-549,1,4021.0,3995.0,11.0,60.0,-649.0,-699.0
4106,-120,-431,1,4060.0,4021.0,-51.0,11.0,-549.0,-649.0
4166,-182,-313,1,4106.0,4060.0,-120.0,-51.0,-431.0,-549.0
4240,-219,-206,1,4166.0,4106.0,-182.0,-120.0,-313.0,-431.0
4321,-225,-118,1,4240.0,4166.0,-219.0,-182.0,-206.0,-313.0
4399,-197,-43,1,4321.0,4240.0,-225.0,-219.0,-118.0,-206.0
4480,-140,27,1,4399.0,4321.0,-197.0,-225.0,-43.0,-118.0
4557,-64,86,1,4480.0,4399.0,-140.0,-197.0,27.0,-43.0
4630,29,139,1,4557.0,4480.0,-64.0,-140.0,86.0,27.0
4694,123,190,1,4630.0,4557.0,29.0,-64.0,139.0,86.0
4747,223,226,1,4694.0,4630.0,123.0,29.0,190.0,139.0
4790,315,246,1,4747.0,4694.0,223.0,123.0,226.0,190.0
4813,395,257,1,4790.0,4747.0,315.0,223.0,246.0,226.0
4818,460,257,1,4813.0,4790.0,395.0,315.0,257.0,246.0
4806,491,251,1,4818.0,4813.0,460.0,395.0,257.0,257.0
4790,483,215,1,4806.0,4818.0,491.0,460.0,251.0,257.0
4762,449,102,1,4790.0,4806.0,483.0,491.0,215.0,251.0
4726,408,-123,1,4762.0,4790.0,449.0,483.0,102.0,215.0
4680,366,-415,1,4726.0,4762.0,408.0,449.0,-123.0,102.0
4631,330,-737,1,4680.0,4726.0,366.0,408.0,-415.0,-123.0
4574,301,-1054,1,4631.0,4680.0,330.0,366.0,-737.0,-415.0
4521,273,-1394,1,4574.0,4631.0,301.0,330.0,-1054.0,-737.0
4480,250,-1743,1,4521.0,4574.0,273.0,301.0,-1394.0,-1054.0
4462,213,-2078,1,4480.0,4521.0,250.0,273.0,-1743.0,-1394.0
4487,167,-2360,1,4462.0,4480.0,213.0,250.0,-2078.0,-1743.0
4569,112,-2566,1,4487.0,4462.0,167.0,213.0,-2360.0,-2078.0
4700,64,-2675,1,4569.0,4487.0,112.0,167.0,-2566.0,-2360.0
4860,34,-2688,1,4700.0,4569.0,64.0,112.0,-2675.0,-2566.0
5035,35,-2607,1,4860.0,4700.0,34.0,64.0,-2688.0,-2675.0
5212,79,-2451,1,5035.0,4860.0,35.0,34.0,-2607.0,-2688.0
5371,166,-2238,1,5212.0,5035.0,79.0,35.0,-2451.0,-2607.0
5501,304,-2018,1,5371.0,5212.0,166.0,79.0,-2238.0,-2451.0
5583,493,-1812,1,5501.0,5371.0,304.0,166.0,-2018.0,-2238.0
5597,721,-1643,1,5583.0,5501.0,493.0,304.0,-1812.0,-2018.0
5554,957,-1530,1,5597.0,5583.0,721.0,493.0,-1643.0,-1812.0
5462,1183,-1467,1,5554.0,5597.0,957.0,721.0,-1530.0,-1643.0
5324,1387,-1458,1,5462.0,5554.0,1183.0,957.0,-1467.0,-1530.0
5151,1550,-1506,1,5324.0,5462.0,1387.0,1183.0,-1458.0,-1467.0
4957,1672,-1579,1,5151.0,5324.0,1550.0,1387.0,-1506.0,-1458.0
4745,1753,-1658,1,4957.0,5151.0,1672.0,1550.0,-1579.0,-1506.0
4515,1802,-1713,1,4745.0,4957.0,1753.0,1672.0,-1658.0,-1579.0
4288,1826,-1713,1,4515.0,4745.0,1802.0,1753.0,-1713.0,-1658.0
4050,1840,-1643,1,4288.0,4515.0,1826.0,1802.0,-1713.0,-1713.0
3812,1843,-1506,1,4050.0,4288.0,1840.0,1826.0,-1643.0,-1713.0
3584,1824,-1324,1,3812.0,4050.0,1843.0,1840.0,-1506.0,-1643.0
3350,1818,-1102,1,3584.0,3812.0,1824.0,1843.0,-1324.0,-1506.0
3087,1846,-830,1,3350.0,3584.0,1818.0,1824.0,-1102.0,-1324.0
2802,1886,-561,1,3087.0,3350.0,1846.0,1818.0,-830.0,-1102.0
2529,1866,-382,1,2802.0,3087.0,1886.0,1846.0,-561.0,-830.0
2294,1777,-315,1,2529.0,2802.0,1866.0,1886.0,-382.0,-561.0
2087,1637,-331,1,2294.0,2529.0,1777.0,1866.0,-315.0,-382.0
1918,1459,-397,1,2087.0,2294.0,1637.0,1777.0,-331.0,-315.0
1792,1262,-513,1,1918.0,2087.0,1459.0,1637.0,-397.0,-331.0
1712,1066,-673,1,1792.0,1918.0,1262.0,1459.0,-513.0,-397.0
1672,865,-871,1,1712.0,1792.0,1066.0,1262.0,-673.0,-513.0
1677,690,-1069,1,1672.0,1712.0,865.0,1066.0,-871.0,-673.0
1721,555,-1244,1,1677.0,1672.0,690.0,865.0,-1069.0,-871.0
1805,461,-1388,1,1721.0,1677.0,555.0,690.0,-1244.0,-1069.0
1929,400,-1488,1,1805.0,1721.0,461.0,555.0,-1388.0,-1244.0
2087,370,-1531,1,1929.0,1805.0,400.0,461.0,-1488.0,-1388.0
2286,361,-1512,1,2087.0,1929.0,370.0,400.0,-1531.0,-1488.0
2532,367,-1431,1,2286.0,2087.0,361.0,370.0,-1512.0,-1531.0
2839,368,-1289,1,2532.0,2286.0,367.0,361.0,-1431.0,-1512.0
3217,332,-1083,1,2839.0,2532.0,368.0,367.0,-1289.0,-1431.0
3661,269,-823,1,3217.0,2839.0,332.0,368.0,-1083.0,-1289.0
4154,189,-546,1,3661.0,3217.0,269.0,332.0,-823.0,-1083.0
4671,123,-318,1,4154.0,3661.0,189.0,269.0,-546.0,-823.0
5176,85,-192,1,4671.0,4154.0,123.0,189.0,-318.0,-546.0
5637,80,-163,1,5176.0,4671.0,85.0,123.0,-192.0,-318.0
6034,74,-220,1,5637.0,5176.0,80.0,85.0,-163.0,-192.0
6360,61,-335,1,6034.0,5637.0,74.0,80.0,-220.0,-163.0
6600,28,-493,1,6360.0,6034.0,61.0,74.0,-335.0,-220.0
6741,-27,-661,1,6600.0,6360.0,28.0,61.0,-493.0,-335.0
6764,-92,-821,1,6741.0,6600.0,-27.0,28.0,-661.0,-493.0
6672,-145,-956,1,6764.0,6741.0,-92.0,-27.0,-821.0,-661.0
6475,-165,-1057,1,6672.0,6764.0,-145.0,-92.0,-956.0,-821.0
6199,-137,-1119,1,6475.0,6672.0,-165.0,-145.0,-1057.0,-956.0
5861,-78,-1137,1,6199.0,6475.0,-137.0,-165.0,-1119.0,-1057.0
5484,-10,-1120,1,5861.0,6199.0,-78.0,-137.0,-1137.0,-1119.0
5099,53,-1082,1,5484.0,5861.0,-10.0,-78.0,-1120.0,-1137.0
4715,104,-1044,1,5099.0,5484.0,53.0,-10.0,-1082.0,-1120.0
4352,134,-1003,1,4715.0,5099.0,104.0,53.0,-1044.0,-1082.0
3999,158,-965,1,4352.0,4715.0,134.0,104.0,-1003.0,-1044.0
3660,195,-914,1,3999.0,4352.0,158.0,134.0,-965.0,-1003.0
3345,240,-859,1,3660.0,3999.0,195.0,158.0,-914.0,-965.0
3067,288,-801,1,3345.0,3660.0,240.0,195.0,-859.0,-914.0
2839,342,-745,1,3067.0,3345.0,288.0,240.0,-801.0,-859.0
2642,415,-677,1,2839.0,3067.0,342.0,288.0,-745.0,-801.0
2485,505,-598,1,2642.0,2839.0,415.0,342.0,-677.0,-745.0
2370,610,-514,1,2485.0,2642.0,505.0,415.0,-598.0,-677.0
2299,726,-422,1,2370.0,2485.0,610.0,505.0,-514.0,-598.0
2266,843,-333,1,2299.0,2370.0,726.0,610.0,-422.0,-514.0
2273,952,-239,1,2266.0,2299.0,843.0,726.0,-333.0,-422.0
2326,1046,-140,1,2273.0,2266.0,952.0,843.0,-239.0,-333.0
2419,1118,-49,1,2326.0,2273.0,1046.0,952.0,-140.0,-239.0
2536,1176,44,1,2419.0,2326.0,1118.0,1046.0,-49.0,-140.0
2668,1223,125,1,2536.0,2419.0,1176.0,1118.0,44.0,-49.0
2803,1258,197,1,2668.0,2536.0,1223.0,1176.0,125.0,44.0
2933,1278,253,1,2803.0,2668.0,1258.0,1223.0,197.0,125.0
3060,1280,290,1,2933.0,2803.0,1278.0,1258.0,253.0,197.0
3179,1253,297,1,3060.0,2933.0,1280.0,1278.0,290.0,253.0
3290,1199,270,1,3179.0,3060.0,1253.0,1280.0,297.0,290.0
3383,1120,210,1,3290.0,3179.0,1199.0,1253.0,270.0,297.0
3458,1023,127,1,3383.0,3290.0,1120.0,1199.0,210.0,270.0
3515,926,20,1,3458.0,3383.0,1023.0,1120.0,127.0,210.0
3558,815,-105,1,3515.0,3458.0,926.0,1023.0,20.0,127.0
3591,700,-247,1,3558.0,3515.0,815.0,926.0,-105.0,20.0
3616,591,-390,1,3591.0,3558.0,700.0,815.0,-247.0,-105.0
3638,486,-522,1,3616.0,3591.0,591.0,700.0,-390.0,-247.0
3664,386,-643,1,3638.0,3616.0,486.0,591.0,-522.0,-390.0
3689,299,-745,1,3664.0,3638.0,386.0,486.0,-643.0,-522.0
3718,222,-824,1,3689.0,3664.0,299.0,386.0,-745.0,-643.0
3745,169,-868,1,3718.0,3689.0,222.0,299.0,-824.0,-745.0
3769,157,-872,1,3745.0,3718.0,169.0,222.0,-868.0,-824.0
3787,173,-836,1,3769.0,3745.0,157.0,169.0,-872.0,-868.0
3808,207,-764,1,3787.0,3769.0,173.0,157.0,-836.0,-872.0
3826,245,-659,1,3808.0,3787.0,207.0,173.0,-764.0,-836.0
3848,300,-522,1,3826.0,3808.0,245.0,207.0,-659.0,-764.0
3867,371,-373,1,3848.0,3826.0,300.0,245.0,-522.0,-659.0
3874,458,-208,1,3867.0,3848.0,371.0,300.0,-373.0,-522.0
3880,562,-50,1,3874.0,3867.0,458.0,371.0,-208.0,-373.0
3876,673,100,1,3880.0,3874.0,562.0,458.0,-50.0,-208.0
3869,778,226,1,3876.0,3880.0,673.0,562.0,100.0,-50.0
3862,865,319,1,3869.0,3876.0,778.0,673.0,226.0,100.0
3853,932,375,1,3862.0,3869.0,865.0,778.0,319.0,226.0
3840,974,396,1,3853.0,3862.0,932.0,865.0,375.0,319.0
3827,980,384,1,3840.0,3853.0,974.0,932.0,396.0,375.0
3816,962,339,1,3827.0,3840.0,980.0,974.0,384.0,396.0
3801,928,282,1,3816.0,3827.0,962.0,980.0,339.0,384.0
3790,876,225,1,3801.0,3816.0,928.0,962.0,282.0,339.0
3790,814,172,1,3790.0,3801.0,876.0,928.0,225.0,282.0
3797,747,137,1,3790.0,3790.0,814.0,876.0,172.0,225.0
3815,678,113,1,3797.0,3790.0,747.0,814.0,137.0,172.0
3843,616,91,1,3815.0,3797.0,678.0,747.0,113.0,137.0
3877,565,75,1,3843.0,3815.0,616.0,678.0,91.0,113.0
3914,524,63,1,3877.0,3843.0,565.0,616.0,75.0,91.0
3956,501,40,1,3914.0,3877.0,524.0,565.0,63.0,75.0
3994,489,6,1,3956.0,3914.0,501.0,524.0,40.0,63.0
4029,495,-44,1,3994.0,3956.0,489.0,501.0,6.0,40.0
4065,504,-100,1,4029.0,3994.0,495.0,489.0,-44.0,6.0
4101,508,-150,1,4065.0,4029.0,504.0,495.0,-100.0,-44.0
4141,508,-173,1,4101.0,4065.0,508.0,504.0,-150.0,-100.0
4192,501,-160,1,4141.0,4101.0,508.0,508.0,-173.0,-150.0
4250,489,-94,1,4192.0,4141.0,501.0,508.0,-160.0,-173.0
4315,462,12,1,4250.0,4192.0,489.0,501.0,-94.0,-160.0
4389,424,167,1,4315.0,4250.0,462.0,489.0,12.0,-94.0
4478,387,351,1,4389.0,4315.0,424.0,462.0,167.0,12.0
4567,353,564,1,4478.0,4389.0,387.0,424.0,351.0,167.0
4668,315,771,1,4567.0,4478.0,353.0,387.0,564.0,351.0
4770,260,957,1,4668.0,4567.0,315.0,353.0,771.0,564.0
4859,211,1094,1,4770.0,4668.0,260.0,315.0,957.0,771.0
4948,125,1188,1,4859.0,4770.0,211.0,260.0,1094.0,957.0
5024,35,1227,1,4948.0,4859.0,125.0,211.0,1188.0,1094.0
5080,-60,1204,1,5024.0,4948.0,35.0,125.0,1227.0,1188.0
5105,-138,1121,1,5080.0,5024.0,-60.0,35.0,1204.0,1227.0
5104,-212,998,1,5105.0,5080.0,-138.0,-60.0,1121.0,1204.0
5069,-279,805,1,5104.0,5105.0,-212.0,-138.0,998.0,1121.0
5011,-316,515,1,5069.0,5104.0,-279.0,-212.0,805.0,998.0
4928,-290,111,1,5011.0,5069.0,-316.0,-279.0,515.0,805.0
4826,-171,-374,1,4928.0,5011.0,-290.0,-316.0,111.0,515.0
4700,-11,-817,1,4826.0,4928.0,-171.0,-290.0,-374.0,111.0
4575,131,-1226,1,4700.0,4826.0,-11.0,-171.0,-817.0,-374.0
4468,238,-1618,1,4575.0,4700.0,131.0,-11.0,-1226.0,-817.0
4412,324,-1956,1,4468.0,4575.0,238.0,131.0,-1618.0,-1226.0
4410,430,-2198,1,4412.0,4468.0,324.0,238.0,-1956.0,-1618.0
4486,566,-2333,1,4410.0,4412.0,430.0,324.0,-2198.0,-1956.0
4664,727,-2342,1,4486.0,4410.0,566.0,430.0,-2333.0,-2198.0
4930,895,-2232,1,4664.0,4486.0,727.0,566.0,-2342.0,-2333.0
5259,1084,-2024,1,4930.0,4664.0,895.0,727.0,-2232.0,-2342.0
5617,1298,-1719,1,5259.0,4930.0,1084.0,895.0,-2024.0,-2232.0
5951,1528,-1381,1,5617.0,5259.0,1298.0,1084.0,-1719.0,-2024.0
6232,1778,-1043,1,5951.0,5617.0,1528.0,1298.0,-1381.0,-1719.0
6437,2014,-774,1,6232.0,5951.0,1778.0,1528.0,-1043.0,-1381.0
6550,2204,-618,1,6437.0,6232.0,2014.0,1778.0,-774.0,-1043.0
6572,2311,-552,1,6550.0,6437.0,2204.0,2014.0,-618.0,-774.0
6505,2336,-527,1,6572.0,6550.0,2311.0,2204.0,-552.0,-618.0
6358,2296,-526,1,6505.0,6572.0,2336.0,2311.0,-527.0,-552.0
6127,2222,-563,1,6358.0,6505.0,2296.0,2336.0,-526.0,-527.0
5827,2110,-658,1,6127.0,6358.0,2222.0,2296.0,-563.0,-526.0
5498,1984,-812,1,5827.0,6127.0,2110.0,2222.0,-658.0,-563.0
5156,1854,-1012,1,5498.0,5827.0,1984.0,2110.0,-812.0,-658.0
4806,1722,-1219,1,5156.0,5498.0,1854.0,1984.0,-1012.0,-812.0
4465,1584,-1382,1,4806.0,5156.0,1722.0,1854.0,-1219.0,-1012.0
4104,1473,-1455,1,4465.0,4806.0,1584.0,1722.0,-1382.0,-1219.0
3594,1466,-1360,1,4104.0,4465.0,1473.0,1584.0,-1455.0,-1382.0
3034,1395,-1244,1,3594.0,4104.0,1466.0,1473.0,-1360.0,-1455.0
2471,1180,-1226,1,3034.0,3594.0,1395.0,1466.0,-1244.0,-1360.0
1918,888,-1256,1,2471.0,3034.0,1180.0,1395.0,-1226.0,-1244.0
1402,595,-1265,1,1918.0,2471.0,888.0,1180.0,-1256.0,-1226.0
932,344,-1229,1,1402.0,1918.0,595.0,888.0,-1265.0,-1256.0
545,143,-1192,1,932.0,1402.0,344.0,595.0,-1229.0,-1265.0
236,11,-1153,1,545.0,932.0,143.0,344.0,-1192.0,-1229.0
-19,-8,-1126,1,236.0,545.0,11.0,143.0,-1153.0,-1192.0
-201,76,-1140,1,-19.0,236.0,-8.0,11.0,-1126.0,-1153.0
-295,240,-1200,1,-201.0,-19.0,76.0,-8.0,-1140.0,-1126.0
-274,423,-1306,1,-295.0,-201.0,240.0,76.0,-1200.0,-1140.0
-126,558,-1442,1,-274.0,-295.0,423.0,240.0,-1306.0,-1200.0
113,641,-1565,1,-126.0,-274.0,558.0,423.0,-1442.0,-1306.0
390,687,-1656,1,113.0,-126.0,641.0,558.0,-1565.0,-1442.0
698,704,-1707,1,390.0,113.0,687.0,641.0,-1656.0,-1565.0
1038,694,-1720,1,698.0,390.0,704.0,687.0,-1707.0,-1656.0
1410,647,-1713,1,1038.0,698.0,694.0,704.0,-1720.0,-1707.0
1818,568,-1704,1,1410.0,1038.0,647.0,694.0,-1713.0,-1720.0
2258,470,-1701,1,1818.0,1410.0,568.0,647.0,-1704.0,-1713.0
2719,373,-1714,1,2258.0,1818.0,470.0,568.0,-1701.0,-1704.0
3207,275,-1724,1,2719.0,2258.0,373.0,470.0,-1714.0,-1701.0
3732,161,-1686,1,3207.0,2719.0,275.0,373.0,-1724.0,-1714.0
4308,45,-1593,1,3732.0,3207.0,161.0,275.0,-1686.0,-1724.0
4902,-42,-1466,1,4308.0,3732.0,45.0,161.0,-1593.0,-1686.0
5486,-90,-1335,1,4902.0,4308.0,-42.0,45.0,-1466.0,-1593.0
6031,-69,-1202,1,5486.0,4902.0,-90.0,-42.0,-1335.0,-1466.0
6510,42,-1083,1,6031.0,5486.0,-69.0,-90.0,-1202.0,-1335.0
6890,243,-1001,1,6510.0,6031.0,42.0,-69.0,-1083.0,-1202.0
7170,505,-957,1,6890.0,6510.0,243.0,42.0,-1001.0,-1083.0
7366,810,-927,1,7170.0,6890.0,505.0,243.0,-957.0,-1001.0
7468,1126,-921,1,7366.0,7170.0,810.0,505.0,-927.0,-957.0
7486,1439,-925,1,7468.0,7366.0,1126.0,810.0,-921.0,-927.0
7406,1723,-920,1,7486.0,7468.0,1439.0,1126.0,-925.0,-921.0
7228,1963,-895,1,7406.0,7486.0,1723.0,1439.0,-920.0,-925.0
6957,2152,-839,1,7228.0,7406.0,1963.0,1723.0,-895.0,-920.0
6622,2267,-749,1,6957.0,7228.0,2152.0,1963.0,-839.0,-895.0
6236,2310,-629,1,6622.0,6957.0,2267.0,2152.0,-749.0,-839.0
5810,2296,-453,1,6236.0,6622.0,2310.0,2267.0,-629.0,-749.0
5288,2255,-206,1,5810.0,6236.0,2296.0,2310.0,-453.0,-629.0
4732,2097,-72,1,5288.0,5810.0,2255.0,2296.0,-206.0,-453.0
4166,1809,-76,1,4732.0,5288.0,2097.0,2255.0,-72.0,-206.0
3586,1429,-152,1,4166.0,4732.0,1809.0,2097.0,-76.0,-72.0
3033,995,-264,1,3586.0,4166.0,1429.0,1809.0,-152.0,-76.0
2530,570,-405,1,3033.0,3586.0,995.0,1429.0,-264.0,-152.0
2122,220,-575,1,2530.0,3033.0,570.0,995.0,-405.0,-264.0
1811,-46,-767,1,2122.0,2530.0,220.0,570.0,-575.0,-405.0
1606,-217,-975,1,1811.0,2122.0,-46.0,220.0,-767.0,-575.0
1496,-287,-1177,1,1606.0,1811.0,-217.0,-46.0,-975.0,-767.0
1454,-263,-1348,1,1496.0,1606.0,-287.0,-217.0,-1177.0,-975.0
1469,-161,-1470,1,1454.0,1496.0,-263.0,-287.0,-1348.0,-1177.0
1534,-13,-1523,1,1469.0,1454.0,-161.0,-263.0,-1470.0,-1348.0
1649,155,-1501,1,1534.0,1469.0,-13.0,-161.0,-1523.0,-1470.0
1799,323,-1424,1,1649.0,1534.0,155.0,-13.0,-1501.0,-1523.0
1982,469,-1292,1,1799.0,1649.0,323.0,155.0,-1424.0,-1501.0
2197,582,-1126,1,1982.0,1799.0,469.0,323.0,-1292.0,-1424.0
2431,649,-948,1,2197.0,1982.0,582.0,469.0,-1126.0,-1292.0
2683,675,-774,1,2431.0,2197.0,649.0,582.0,-948.0,-1126.0
2955,665,-609,1,2683.0,2431.0,675.0,649.0,-774.0,-948.0
3225,622,-464,1,2955.0,2683.0,665.0,675.0,-609.0,-774.0
3508,539,-328,1,3225.0,2955.0,622.0,665.0,-464.0,-609.0
3802,414,-180,1,3508.0,3225.0,539.0,622.0,-328.0,-464.0
4093,279,-47,1,3802.0,3508.0,414.0,539.0,-180.0,-328.0
4370,152,53,1,4093.0,3802.0,279.0,414.0,-47.0,-180.0
4606,72,102,1,4370.0,4093.0,152.0,279.0,53.0,-47.0
4793,40,99,1,4606.0,4370.0,72.0,152.0,102.0,53.0
4916,72,60,1,4793.0,4606.0,40.0,72.0,99.0,102.0
4968,156,6,1,4916.0,4793.0,72.0,40.0,60.0,99.0
4953,272,-50,1,4968.0,4916.0,156.0,72.0,6.0,60.0
4880,394,-91,1,4953.0,4968.0,272.0,156.0,-50.0,6.0
4759,507,-124,1,4880.0,4953.0,394.0,272.0,-91.0,-50.0
4606,596,-153,1,4759.0,4880.0,507.0,394.0,-124.0,-91.0
4428,652,-192,1,4606.0,4759.0,596.0,507.0,-153.0,-124.0
4257,670,-251,1,4428.0,4606.0,652.0,596.0,-192.0,-153.0
4085,646,-325,1,4257.0,4428.0,670.0,652.0,-251.0,-192.0
3920,577,-413,1,4085.0,4257.0,646.0,670.0,-325.0,-251.0
3773,474,-512,1,3920.0,4085.0,577.0,646.0,-413.0,-325.0
3648,346,-610,1,3773.0,3920.0,474.0,577.0,-512.0,-413.0
3550,212,-704,1,3648.0,3773.0,346.0,474.0,-610.0,-512.0
3477,94,-785,1,3550.0,3648.0,212.0,346.0,-704.0,-610.0
3425,2,-832,1,3477.0,3550.0,94.0,212.0,-785.0,-704.0
3397,-57,-843,1,3425.0,3477.0,2.0,94.0,-832.0,-785.0
3398,-70,-822,1,3397.0,3425.0,-57.0,2.0,-843.0,-832.0
3424,-40,-777,1,3398.0,3397.0,-70.0,-57.0,-822.0,-843.0
3472,12,-726,1,3424.0,3398.0,-40.0,-70.0,-777.0,-822.0
3543,87,-666,1,3472.0,3424.0,12.0,-40.0,-726.0,-777.0
3642,168,-598,1,3543.0,3472.0,87.0,12.0,-666.0,-726.0
3761,250,-527,1,3642.0,3543.0,168.0,87.0,-598.0,-666.0
3893,315,-465,1,3761.0,3642.0,250.0,168.0,-527.0,-598.0
4029,364,-409,1,3893.0,3761.0,315.0,250.0,-465.0,-527.0
4169,390,-353,1,4029.0,3893.0,364.0,315.0,-409.0,-465.0
4312,404,-305,1,4169.0,4029.0,390.0,364.0,-353.0,-409.0
4447,400,-256,1,4312.0,4169.0,404.0,390.0,-305.0,-353.0
4562,391,-208,1,4447.0,4312.0,400.0,404.0,-256.0,-305.0
4654,373,-164,1,4562.0,4447.0,391.0,400.0,-208.0,-256.0
4726,354,-139,1,4654.0,4562.0,373.0,391.0,-164.0,-208.0
4762,327,-135,1,4726.0,4654.0,354.0,373.0,-139.0,-164.0
4785,279,-89,1,4762.0,4726.0,327.0,354.0,-135.0,-139.0
4788,219,-129,1,4785.0,4762.0,279.0,327.0,-89.0,-135.0
4771,156,-175,1,4788.0,4785.0,219.0,279.0,-129.0,-89.0
4742,90,-264,1,4771.0,4788.0,156.0,219.0,-175.0,-129.0
4706,9,-357,1,4742.0,4771.0,90.0,156.0,-264.0,-175.0
4668,-91,-423,1,4706.0,4742.0,9.0,90.0,-357.0,-264.0
4628,-207,-464,1,4668.0,4706.0,-91.0,9.0,-423.0,-357.0
4591,-315,-467,1,4628.0,4668.0,-207.0,-91.0,-464.0,-423.0
4560,-409,-449,1,4591.0,4628.0,-315.0,-207.0,-467.0,-464.0
4539,-476,-405,1,4560.0,4591.0,-409.0,-315.0,-449.0,-467.0
4531,-514,-349,1,4539.0,4560.0,-476.0,-409.0,-405.0,-449.0
4527,-518,-308,1,4531.0,4539.0,-514.0,-476.0,-349.0,-405.0
4526,-474,-370,1,4527.0,4531.0,-518.0,-514.0,-308.0,-349.0
4533,-383,-523,1,4526.0,4527.0,-474.0,-518.0,-370.0,-308.0
4554,-263,-691,1,4533.0,4526.0,-383.0,-474.0,-523.0,-370.0
4599,-123,-839,1,4554.0,4533.0,-263.0,-383.0,-691.0,-523.0
4644,34,-1000,1,4599.0,4554.0,-123.0,-263.0,-839.0,-691.0
4692,204,-1191,1,4644.0,4599.0,34.0,-123.0,-1000.0,-839.0
4748,365,-1379,1,4692.0,4644.0,204.0,34.0,-1191.0,-1000.0
4814,523,-1544,1,4748.0,4692.0,365.0,204.0,-1379.0,-1191.0
4895,646,-1652,1,4814.0,4748.0,523.0,365.0,-1544.0,-1379.0
4991,730,-1695,1,4895.0,4814.0,646.0,523.0,-1652.0,-1544.0
5087,768,-1700,1,4991.0,4895.0,730.0,646.0,-1695.0,-1652.0
5173,781,-1683,1,5087.0,4991.0,768.0,730.0,-1700.0,-1695.0
5244,780,-1660,1,5173.0,5087.0,781.0,768.0,-1683.0,-1700.0
5298,783,-1643,1,5244.0,5173.0,780.0,781.0,-1660.0,-1683.0
5332,770,-1622,1,5298.0,5244.0,783.0,780.0,-1643.0,-1660.0
5357,785,-1611,1,5332.0,5298.0,770.0,783.0,-1622.0,-1643.0
5372,802,-1586,1,5357.0,5332.0,785.0,770.0,-1611.0,-1622.0
5393,812,-1555,1,5372.0,5357.0,802.0,785.0,-1586.0,-1611.0
5413,821,-1535,1,5393.0,5372.0,812.0,802.0,-1555.0,-1586.0
5430,832,-1534,1,5413.0,5393.0,821.0,812.0,-1535.0,-1555.0
5423,866,-1549,1,5430.0,5413.0,832.0,821.0,-1534.0,-1535.0
5367,932,-1577,1,5423.0,5430.0,866.0,832.0,-1549.0,-1534.0
5262,1040,-1599,1,5367.0,5423.0,932.0,866.0,-1577.0,-1549.0
5093,1183,-1611,1,5262.0,5367.0,1040.0,932.0,-1599.0,-1577.0
4873,1357,-1605,1,5093.0,5262.0,1183.0,1040.0,-1611.0,-1599.0
4601,1534,-1570,1,4873.0,5093.0,1357.0,1183.0,-1605.0,-1611.0
4308,1699,-1499,1,4601.0,4873.0,1534.0,1357.0,-1570.0,-1605.0
4000,1839,-1396,1,4308.0,4601.0,1699.0,1534.0,-1499.0,-1570.0
3701,1934,-1273,1,4000.0,4308.0,1839.0,1699.0,-1396.0,-1499.0
3396,1997,-1158,1,3701.0,4000.0,1934.0,1839.0,-1273.0,-1396.0
3092,2044,-1041,1,3396.0,3701.0,1997.0,1934.0,-1158.0,-1273.0
2804,2066,-916,1,3092.0,3396.0,2044.0,1997.0,-1041.0,-1158.0
2539,2064,-811,1,2804.0,3092.0,2066.0,2044.0,-916.0,-1041.0
2293,2033,-737,1,2539.0,2804.0,2064.0,2066.0,-811.0,-916.0
2067,1977,-679,1,2293.0,2539.0,2033.0,2064.0,-737.0,-811.0
1856,1894,-647,1,2067.0,2293.0,1977.0,2033.0,-679.0,-737.0
1667,1802,-644,1,1856.0,2067.0,1894.0,1977.0,-647.0,-679.0
1514,1702,-678,1,1667.0,1856.0,1802.0,1894.0,-644.0,-647.0
1401,1601,-740,1,1514.0,1667.0,1702.0,1802.0,-678.0,-644.0
1340,1504,-812,1,1401.0,1514.0,1601.0,1702.0,-740.0,-678.0
1338,1407,-887,1,1340.0,1401.0,1504.0,1601.0,-812.0,-740.0
1389,1308,-967,1,1338.0,1340.0,1407.0,1504.0,-887.0,-812.0
1488,1237,-1037,1,1389.0,1338.0,1308.0,1407.0,-967.0,-887.0
1624,1178,-1085,1,1488.0,1389.0,1237.0,1308.0,-1037.0,-967.0
1790,1135,-1118,1,1624.0,1488.0,1178.0,1237.0,-1085.0,-1037.0
1999,1103,-1122,1,1790.0,1624.0,1135.0,1178.0,-1118.0,-1085.0
2236,1074,-1104,1,1999.0,1790.0,1103.0,1135.0,-1122.0,-1118.0
2517,1035,-1045,1,2236.0,1999.0,1074.0,1103.0,-1104.0,-1122.0
2876,938,-922,1,2517.0,2236.0,1035.0,1074.0,-1045.0,-1104.0
3292,794,-739,1,2876.0,2517.0,938.0,1035.0,-922.0,-1045.0
3753,629,-526,1,3292.0,2876.0,794.0,938.0,-739.0,-922.0
4239,487,-316,1,3753.0,3292.0,629.0,794.0,-526.0,-739.0
4710,394,-160,1,4239.0,3753.0,487.0,629.0,-316.0,-526.0
5146,365,-80,1,4710.0,4239.0,394.0,487.0,-160.0,-316.0
5529,389,-76,1,5146.0,4710.0,365.0,394.0,-80.0,-160.0
5852,434,-118,1,5529.0,5146.0,389.0,365.0,-76.0,-80.0
6110,476,-197,1,5852.0,5529.0,434.0,389.0,-118.0,-76.0
6292,470,-276,1,6110.0,5852.0,476.0,434.0,-197.0,-118.0
6409,390,-357,1,6292.0,6110.0,470.0,476.0,-276.0,-197.0
6461,251,-479,1,6409.0,6292.0,390.0,470.0,-357.0,-276.0
6428,78,-634,1,6461.0,6409.0,251.0,390.0,-479.0,-357.0
6306,-91,-802,1,6428.0,6461.0,78.0,251.0,-634.0,-479.0
6117,-231,-968,1,6306.0,6428.0,-91.0,78.0,-802.0,-634.0
5878,-324,-1105,1,6117.0,6306.0,-231.0,-91.0,-968.0,-802.0
5610,-381,-1203,1,5878.0,6117.0,-324.0,-231.0,-1105.0,-968.0
5314,-403,-1256,1,5610.0,5878.0,-381.0,-324.0,-1203.0,-1105.0
5013,-383,-1271,1,5314.0,5610.0,-403.0,-381.0,-1256.0,-1203.0
4706,-333,-1242,1,5013.0,5314.0,-383.0,-403.0,-1271.0,-1256.0
4404,-252,-1189,1,4706.0,5013.0,-333.0,-383.0,-1242.0,-1271.0
4112,-149,-1116,1,4404.0,4706.0,-252.0,-333.0,-1189.0,-1242.0
3829,-24,-1022,1,4112.0,4404.0,-149.0,-252.0,-1116.0,-1189.0
3570,121,-910,1,3829.0,4112.0,-24.0,-149.0,-1022.0,-1116.0
3330,291,-795,1,3570.0,3829.0,121.0,-24.0,-910.0,-1022.0
3117,465,-674,1,3330.0,3570.0,291.0,121.0,-795.0,-910.0
2931,635,-553,1,3117.0,3330.0,465.0,291.0,-674.0,-795.0
2793,787,-430,1,2931.0,3117.0,635.0,465.0,-553.0,-674.0
2690,920,-313,1,2793.0,2931.0,787.0,635.0,-430.0,-553.0
2623,1033,-201,1,2690.0,2793.0,920.0,787.0,-313.0,-430.0
2586,1122,-102,1,2623.0,2690.0,1033.0,920.0,-201.0,-313.0
2584,1177,-22,1,2586.0,2623.0,1122.0,1033.0,-102.0,-201.0
2609,1202,42,1,2584.0,2586.0,1177.0,1122.0,-22.0,-102.0
2660,1196,94,1,2609.0,2584.0,1202.0,1177.0,42.0,-22.0
2716,1171,131,1,2660.0,2609.0,1196.0,1202.0,94.0,42.0
2782,1134,161,1,2716.0,2660.0,1171.0,1196.0,131.0,94.0
2850,1094,190,1,2782.0,2716.0,1134.0,1171.0,161.0,131.0
2911,1047,207,1,2850.0,2782.0,1094.0,1134.0,190.0,161.0
2969,990,209,1,2911.0,2850.0,1047.0,1094.0,207.0,190.0
3032,936,196,1,2969.0,2911.0,990.0,1047.0,209.0,207.0
3095,876,149,1,3032.0,2969.0,936.0,990.0,196.0,209.0
3158,818,81,1,3095.0,3032.0,876.0,936.0,149.0,196.0
3216,766,11,1,3158.0,3095.0,818.0,876.0,81.0,149.0
3276,715,-77,1,3216.0,3158.0,766.0,818.0,11.0,81.0
3326,666,-169,1,3276.0,3216.0,715.0,766.0,-77.0,11.0
3366,624,-265,1,3326.0,3276.0,666.0,715.0,-169.0,-77.0
3416,581,-344,1,3366.0,3326.0,624.0,666.0,-265.0,-169.0
3460,540,-417,1,3416.0,3366.0,581.0,624.0,-344.0,-265.0
3512,495,-479,1,3460.0,3416.0,540.0,581.0,-417.0,-344.0
3565,453,-513,1,3512.0,3460.0,495.0,540.0,-479.0,-417.0
3621,409,-532,1,3565.0,3512.0,453.0,495.0,-513.0,-479.0
3682,377,-524,1,3621.0,3565.0,409.0,453.0,-532.0,-513.0
3730,364,-485,1,3682.0,3621.0,377.0,409.0,-524.0,-532.0
3779,365,-427,1,3730.0,3682.0,364.0,377.0,-485.0,-524.0
3826,380,-353,1,3779.0,3730.0,365.0,364.0,-427.0,-485.0
3862,412,-272,1,3826.0,3779.0,380.0,365.0,-353.0,-427.0
3891,460,-188,1,3862.0,3826.0,412.0,380.0,-272.0,-353.0
3909,521,-106,1,3891.0,3862.0,460.0,412.0,-188.0,-272.0
3909,592,-39,1,3909.0,3891.0,521.0,460.0,-106.0,-188.0
3900,673,19,1,3909.0,3909.0,592.0,521.0,-39.0,-106.0
3880,757,72,1,3900.0,3909.0,673.0,592.0,19.0,-39.0
3853,837,109,1,3880.0,3900.0,757.0,673.0,72.0,19.0
3831,898,131,1,3853.0,3880.0,837.0,757.0,109.0,72.0
3809,944,146,1,3831.0,3853.0,898.0,837.0,131.0,109.0
3794,968,152,1,3809.0,3831.0,944.0,898.0,146.0,131.0
3783,980,138,1,3794.0,3809.0,968.0,944.0,152.0,146.0
3783,984,112,1,3783.0,3794.0,980.0,968.0,138.0,152.0
3796,979,68,1,3783.0,3783.0,984.0,980.0,112.0,138.0
3824,958,22,1,3796.0,3783.0,979.0,984.0,68.0,112.0
3856,932,-44,1,3824.0,3796.0,958.0,979.0,22.0,68.0
3881,915,-144,1,3856.0,3824.0,932.0,958.0,-44.0,22.0
3897,921,-280,1,3881.0,3856.0,915.0,932.0,-144.0,-44.0
3900,956,-437,1,3897.0,3881.0,921.0,915.0,-280.0,-144.0
3888,1014,-590,1,3900.0,3897.0,956.0,921.0,-437.0,-280.0
3876,1089,-701,1,3888.0,3900.0,1014.0,956.0,-590.0,-437.0
3880,1165,-731,1,3876.0,3888.0,1089.0,1014.0,-701.0,-590.0
3920,1207,-655,1,3880.0,3876.0,1165.0,1089.0,-731.0,-701.0
4008,1223,-454,1,3920.0,3880.0,1207.0,1165.0,-655.0,-731.0
4144,1213,-154,1,4008.0,3920.0,1223.0,1207.0,-454.0,-655.0
4339,1191,216,1,4144.0,4008.0,1213.0,1223.0,-154.0,-454.0
4581,1158,625,1,4339.0,4144.0,1191.0,1213.0,216.0,-154.0
4858,1128,1016,1,4581.0,4339.0,1158.0,1191.0,625.0,216.0
5140,1103,1346,1,4858.0,4581.0,1128.0,1158.0,1016.0,625.0
5418,1067,1577,1,5140.0,4858.0,1103.0,1128.0,1346.0,1016.0
5665,1018,1687,1,5418.0,5140.0,1067.0,1103.0,1577.0,1346.0
5860,945,1680,1,5665.0,5418.0,1018.0,1067.0,1687.0,1577.0
5985,848,1582,1,5860.0,5665.0,945.0,1018.0,1680.0,1687.0
6039,742,1417,1,5985.0,5860.0,848.0,945.0,1582.0,1680.0
6034,612,1206,1,6039.0,5985.0,742.0,848.0,1417.0,1582.0
5972,448,987,1,6034.0,6039.0,612.0,742.0,1206.0,1417.0
5845,257,769,1,5972.0,6034.0,448.0,612.0,987.0,1206.0
5666,21,552,1,5845.0,5972.0,257.0,448.0,769.0,987.0
5444,-268,307,1,5666.0,5845.0,21.0,257.0,552.0,769.0
5191,-573,32,1,5444.0,5666.0,-268.0,21.0,307.0,552.0
4925,-866,-329,1,5191.0,5444.0,-573.0,-268.0,32.0,307.0
4642,-1076,-772,1,4925.0,5191.0,-866.0,-573.0,-329.0,32.0
4343,-1184,-1212,1,4642.0,4925.0,-1076.0,-866.0,-772.0,-329.0
4024,-1215,-1573,1,4343.0,4642.0,-1184.0,-1076.0,-1212.0,-772.0
3714,-1212,-1883,1,4024.0,4343.0,-1215.0,-1184.0,-1573.0,-1212.0
3458,-1173,-2160,1,3714.0,4024.0,-1212.0,-1215.0,-1883.0,-1573.0
3291,-1080,-2371,1,3458.0,3714.0,-1173.0,-1212.0,-2160.0,-1883.0
3216,-876,-2490,1,3291.0,3458.0,-1080.0,-1173.0,-2371.0,-2160.0
3233,-522,-2516,1,3216.0,3291.0,-876.0,-1080.0,-2490.0,-2371.0
3341,-69,-2457,1,3233.0,3216.0,-522.0,-876.0,-2516.0,-2490.0
3566,393,-2325,1,3341.0,3233.0,-69.0,-522.0,-2457.0,-2516.0
3896,794,-2135,1,3566.0,3341.0,393.0,-69.0,-2325.0,-2457.0
4308,1141,-1910,1,3896.0,3566.0,794.0,393.0,-2135.0,-2325.0
4757,1475,-1645,1,4308.0,3896.0,1141.0,794.0,-1910.0,-2135.0
5200,1779,-1368,1,4757.0,4308.0,1475.0,1141.0,-1645.0,-1910.0
5629,2036,-1097,1,5200.0,4757.0,1779.0,1475.0,-1368.0,-1645.0
5995,2218,-921,1,5629.0,5200.0,2036.0,1779.0,-1097.0,-1368.0
6262,2307,-864,1,5995.0,5629.0,2218.0,2036.0,-921.0,-1097.0
6422,2321,-875,1,6262.0,5995.0,2307.0,2218.0,-864.0,-921.0
6461,2304,-923,1,6422.0,6262.0,2321.0,2307.0,-875.0,-864.0
6375,2284,-1015,1,6461.0,6422.0,2304.0,2321.0,-923.0,-875.0
6182,2283,-1157,1,6375.0,6461.0,2284.0,2304.0,-1015.0,-923.0
5905,2289,-1339,1,6182.0,6375.0,2283.0,2284.0,-1157.0,-1015.0
5586,2299,-1533,1,5905.0,6182.0,2289.0,2283.0,-1339.0,-1157.0
5236,2295,-1696,1,5586.0,5905.0,2299.0,2289.0,-1533.0,-1339.0
4884,2270,-1789,1,5236.0,5586.0,2295.0,2299.0,-1696.0,-1533.0
4535,2215,-1814,1,4884.0,5236.0,2270.0,2295.0,-1789.0,-1696.0
4199,2134,-1760,1,4535.0,4884.0,2215.0,2270.0,-1814.0,-1789.0
3801,2095,-1598,1,4199.0,4535.0,2134.0,2215.0,-1760.0,-1814.0
3244,2168,-1233,1,3801.0,4199.0,2095.0,2134.0,-1598.0,-1760.0
2600,2142,-922,1,3244.0,3801.0,2168.0,2095.0,-1233.0,-1598.0
1956,1960,-802,1,2600.0,3244.0,2142.0,2168.0,-922.0,-1233.0
1364,1720,-813,1,1956.0,2600.0,1960.0,2142.0,-802.0,-922.0
832,1469,-844,1,1364.0,1956.0,1720.0,1960.0,-813.0,-802.0
384,1200,-851,1,832.0,1364.0,1469.0,1720.0,-844.0,-813.0
47,917,-892,1,384.0,832.0,1200.0,1469.0,-851.0,-844.0
-157,642,-998,1,47.0,384.0,917.0,1200.0,-892.0,-851.0
-257,433,-1127,1,-157.0,47.0,642.0,917.0,-998.0,-892.0
-253,325,-1282,1,-257.0,-157.0,433.0,642.0,-1127.0,-998.0
-141,290,-1477,1,-253.0,-257.0,325.0,433.0,-1282.0,-1127.0
55,286,-1684,1,-141.0,-253.0,290.0,325.0,-1477.0,-1282.0
327,273,-1863,1,55.0,-141.0,286.0,290.0,-1684.0,-1477.0
631,276,-1964,1,327.0,55.0,273.0,286.0,-1863.0,-1684.0
968,274,-2008,1,631.0,327.0,276.0,273.0,-1964.0,-1863.0
1346,257,-2011,1,968.0,631.0,274.0,276.0,-2008.0,-1964.0
1759,224,-1967,1,1346.0,968.0,257.0,274.0,-2011.0,-2008.0
2204,174,-1887,1,1759.0,1346.0,224.0,257.0,-1967.0,-2011.0
2683,108,-1783,1,2204.0,1759.0,174.0,224.0,-1887.0,-1967.0
3214,31,-1650,1,2683.0,2204.0,108.0,174.0,-1783.0,-1887.0
3772,-35,-1503,1,3214.0,2683.0,31.0,108.0,-1650.0,-1783.0
4353,-64,-1372,1,3772.0,3214.0,-35.0,31.0,-1503.0,-1650.0
4919,-42,-1282,1,4353.0,3772.0,-64.0,-35.0,-1372.0,-1503.0
5448,24,-1238,1,4919.0,4353.0,-42.0,-64.0,-1282.0,-1372.0
5935,136,-1207,1,5448.0,4919.0,24.0,-42.0,-1238.0,-1282.0
6361,297,-1194,1,5935.0,5448.0,136.0,24.0,-1207.0,-1238.0
6708,482,-1171,1,6361.0,5935.0,297.0,136.0,-1194.0,-1207.0
6963,686,-1127,1,6708.0,6361.0,482.0,297.0,-1171.0,-1194.0
7129,892,-1050,1,6963.0,6708.0,686.0,482.0,-1127.0,-1171.0
7213,1090,-982,1,7129.0,6963.0,892.0,686.0,-1050.0,-1127.0
7213,1278,-932,1,7213.0,7129.0,1090.0,892.0,-982.0,-1050.0
7118,1456,-907,1,7213.0,7213.0,1278.0,1090.0,-932.0,-982.0
6926,1632,-879,1,7118.0,7213.0,1456.0,1278.0,-907.0,-932.0
6643,1787,-821,1,6926.0,7118.0,1632.0,1456.0,-879.0,-907.0
6265,1934,-692,1,6643.0,6926.0,1787.0,1632.0,-821.0,-879.0
5816,2044,-512,1,6265.0,6643.0,1934.0,1787.0,-692.0,-821.0
5336,2055,-354,1,5816.0,6265.0,2044.0,1934.0,-512.0,-692.0
4848,1953,-262,1,5336.0,5816.0,2055.0,2044.0,-354.0,-512.0
4367,1748,-235,1,4848.0,5336.0,1953.0,2055.0,-262.0,-354.0
3902,1460,-275,1,4367.0,4848.0,1748.0,1953.0,-235.0,-262.0
3455,1143,-362,1,3902.0,4367.0,1460.0,1748.0,-275.0,-235.0
3047,835,-488,1,3455.0,3902.0,1143.0,1460.0,-362.0,-275.0
2695,564,-629,1,3047.0,3455.0,835.0,1143.0,-488.0,-362.0
2409,350,-774,1,2695.0,3047.0,564.0,835.0,-629.0,-488.0
2197,199,-913,1,2409.0,2695.0,350.0,564.0,-774.0,-629.0
2059,115,-1037,1,2197.0,2409.0,199.0,350.0,-913.0,-774.0
1989,87,-1133,1,2059.0,2197.0,115.0,199.0,-1037.0,-913.0
1973,107,-1187,1,1989.0,2059.0,87.0,115.0,-1133.0,-1037.0
2005,156,-1197,1,1973.0,1989.0,107.0,87.0,-1187.0,-1133.0
2081,222,-1155,1,2005.0,1973.0,156.0,107.0,-1197.0,-1187.0
2201,280,-1068,1,2081.0,2005.0,222.0,156.0,-1155.0,-1197.0
2358,328,-950,1,2201.0,2081.0,280.0,222.0,-1068.0,-1155.0
2550,357,-815,1,2358.0,2201.0,328.0,280.0,-950.0,-1068.0
2768,366,-668,1,2550.0,2358.0,357.0,328.0,-815.0,-950.0
3009,346,-519,1,2768.0,2550.0,366.0,357.0,-668.0,-815.0
3265,303,-373,1,3009.0,2768.0,346.0,366.0,-519.0,-668.0
3515,243,-249,1,3265.0,3009.0,303.0,346.0,-373.0,-519.0
3763,180,-161,1,3515.0,3265.0,243.0,303.0,-249.0,-373.0
3977,108,-105,1,3763.0,3515.0,180.0,243.0,-161.0,-249.0
4166,48,-94,1,3977.0,3763.0,108.0,180.0,-105.0,-161.0
4319,-1,-115,1,4166.0,3977.0,48.0,108.0,-94.0,-105.0
4432,-29,-162,1,4319.0,4166.0,-1.0,48.0,-115.0,-94.0
4501,-42,-223,1,4432.0,4319.0,-29.0,-1.0,-162.0,-115.0
4522,-32,-284,1,4501.0,4432.0,-42.0,-29.0,-223.0,-162.0
4500,-17,-339,1,4522.0,4501.0,-32.0,-42.0,-284.0,-223.0
4439,15,-382,1,4500.0,4522.0,-17.0,-32.0,-339.0,-284.0
4350,58,-410,1,4439.0,4500.0,15.0,-17.0,-382.0,-339.0
4246,102,-427,1,4350.0,4439.0,58.0,15.0,-410.0,-382.0
4141,137,-440,1,4246.0,4350.0,102.0,58.0,-427.0,-410.0
4027,164,-456,1,4141.0,4246.0,137.0,102.0,-440.0,-427.0
3922,176,-475,1,4027.0,4141.0,164.0,137.0,-456.0,-440.0
3824,166,-503,1,3922.0,4027.0,176.0,164.0,-475.0,-456.0
3747,145,-526,1,3824.0,3922.0,166.0,176.0,-503.0,-475.0
3689,118,-542,1,3747.0,3824.0,145.0,166.0,-526.0,-503.0
3650,85,-550,1,3689.0,3747.0,118.0,145.0,-542.0,-526.0
3634,58,-550,1,3650.0,3689.0,85.0,118.0,-550.0,-542.0
3630,45,-540,1,3634.0,3650.0,58.0,85.0,-550.0,-550.0
3650,45,-516,1,3630.0,3634.0,45.0,58.0,-540.0,-550.0
3683,55,-486,1,3650.0,3630.0,45.0,45.0,-516.0,-540.0
3725,72,-455,1,3683.0,3650.0,55.0,45.0,-486.0,-516.0
3778,112,-416,1,3725.0,3683.0,72.0,55.0,-455.0,-486.0
3837,149,-387,1,3778.0,3725.0,112.0,72.0,-416.0,-455.0
3903,187,-366,1,3837.0,3778.0,149.0,112.0,-387.0,-416.0
3965,229,-345,1,3903.0,3837.0,187.0,149.0,-366.0,-387.0
4026,273,-334,1,3965.0,3903.0,229.0,187.0,-345.0,-366.0
4076,320,-328,1,4026.0,3965.0,273.0,229.0,-334.0,-345.0
4126,363,-320,1,4076.0,4026.0,320.0,273.0,-328.0,-334.0
4168,402,-307,1,4126.0,4076.0,363.0,320.0,-320.0,-328.0
4200,443,-288,1,4168.0,4126.0,402.0,363.0,-307.0,-320.0
4220,480,-267,1,4200.0,4168.0,443.0,402.0,-288.0,-307.0
4234,512,-231,1,4220.0,4200.0,480.0,443.0,-267.0,-288.0
4241,538,-192,1,4234.0,4220.0,512.0,480.0,-231.0,-267.0
4242,556,-153,1,4241.0,4234.0,538.0,512.0,-192.0,-231.0
4235,568,-119,1,4242.0,4241.0,556.0,538.0,-153.0,-192.0
4227,571,-91,1,4235.0,4242.0,568.0,556.0,-119.0,-153.0
4221,570,-82,1,4227.0,4235.0,571.0,568.0,-91.0,-119.0
4210,573,-90,1,4221.0,4227.0,570.0,571.0,-82.0,-91.0
4208,574,-44,1,4210.0,4221.0,573.0,570.0,-90.0,-82.0
4216,563,-47,1,4208.0,4210.0,574.0,573.0,-44.0,-90.0
4225,557,-71,1,4216.0,4208.0,563.0,574.0,-47.0,-44.0
4234,572,-125,1,4225.0,4216.0,557.0,563.0,-71.0,-47.0
4251,587,-195,1,4234.0,4225.0,572.0,557.0,-125.0,-71.0
4278,597,-249,1,4251.0,4234.0,587.0,572.0,-195.0,-125.0
4303,601,-289,1,4278.0,4251.0,597.0,587.0,-249.0,-195.0
4325,592,-327,1,4303.0,4278.0,601.0,597.0,-289.0,-249.0
4346,579,-354,1,4325.0,4303.0,592.0,601.0,-327.0,-289.0
4367,563,-397,1,4346.0,4325.0,579.0,592.0,-354.0,-327.0
4390,548,-456,1,4367.0,4346.0,563.0,579.0,-397.0,-354.0
4412,530,-531,1,4390.0,4367.0,548.0,563.0,-456.0,-397.0
4444,510,-624,1,4412.0,4390.0,530.0,548.0,-531.0,-456.0
4474,483,-735,1,4444.0,4412.0,510.0,530.0,-624.0,-531.0
4515,446,-854,1,4474.0,4444.0,483.0,510.0,-735.0,-624.0
4565,400,-984,1,4515.0,4474.0,446.0,483.0,-854.0,-735.0
4635,345,-1130,1,4565.0,4515.0,400.0,446.0,-984.0,-854.0
4720,290,-1263,1,4635.0,4565.0,345.0,400.0,-1130.0,-984.0
4812,235,-1389,1,4720.0,4635.0,290.0,345.0,-1263.0,-1130.0
4902,181,-1490,1,4812.0,4720.0,235.0,290.0,-1389.0,-1263.0
4985,137,-1578,1,4902.0,4812.0,181.0,235.0,-1490.0,-1389.0
5062,106,-1668,1,4985.0,4902.0,137.0,181.0,-1578.0,-1490.0
5133,87,-1788,1,5062.0,4985.0,106.0,137.0,-1668.0,-1578.0
5194,79,-1940,1,5133.0,5062.0,87.0,106.0,-1788.0,-1668.0
5240,82,-2133,1,5194.0,5133.0,79.0,87.0,-1940.0,-1788.0
5269,77,-2337,1,5240.0,5194.0,82.0,79.0,-2133.0,-1940.0
5288,55,-2554,1,5269.0,5240.0,77.0,82.0,-2337.0,-2133.0
5304,12,-2751,1,5288.0,5269.0,55.0,77.0,-2554.0,-2337.0
5305,-49,-2924,1,5304.0,5288.0,12.0,55.0,-2751.0,-2554.0
5293,-118,-3038,1,5305.0,5304.0,-49.0,12.0,-2924.0,-2751.0
5261,-177,-3075,1,5293.0,5305.0,-118.0,-49.0,-3038.0,-2924.0
5204,-216,-3010,1,5261.0,5293.0,-177.0,-118.0,-3075.0,-3038.0
5125,-205,-2850,1,5204.0,5261.0,-216.0,-177.0,-3010.0,-3075.0
5064,-102,-2538,1,5125.0,5204.0,-205.0,-216.0,-2850.0,-3010.0
5000,60,-2171,1,5064.0,5125.0,-102.0,-205.0,-2538.0,-2850.0
4901,269,-1817,1,5000.0,5064.0,60.0,-102.0,-2171.0,-2538.0
4743,484,-1513,1,4901.0,5000.0,269.0,60.0,-1817.0,-2171.0
4510,676,-1287,1,4743.0,4901.0,484.0,269.0,-1513.0,-1817.0
4212,832,-1114,1,4510.0,4743.0,676.0,484.0,-1287.0,-1513.0
3875,954,-962,1,4212.0,4510.0,832.0,676.0,-1114.0,-1287.0
3524,1049,-794,1,3875.0,4212.0,954.0,832.0,-962.0,-1114.0
3189,1140,-577,1,3524.0,3875.0,1049.0,954.0,-794.0,-962.0
2856,1231,-303,1,3189.0,3524.0,1140.0,1049.0,-577.0,-794.0
2533,1241,-100,1,2856.0,3189.0,1231.0,1140.0,-303.0,-577.0
2286,1151,-28,1,2533.0,2856.0,1241.0,1231.0,-100.0,-303.0
2088,1025,-45,1,2286.0,2533.0,1151.0,1241.0,-28.0,-100.0
1914,924,-100,1,2088.0,2286.0,1025.0,1151.0,-45.0,-28.0
1760,889,-178,1,1914.0,2088.0,924.0,1025.0,-100.0,-45.0
1638,904,-297,1,1760.0,1914.0,889.0,924.0,-178.0,-100.0
1559,946,-470,1,1638.0,1760.0,904.0,889.0,-297.0,-178.0
1527,984,-678,1,1559.0,1638.0,946.0,904.0,-470.0,-297.0
1542,1000,-905,1,1527.0,1559.0,984.0,946.0,-678.0,-470.0
1607,970,-1133,1,1542.0,1527.0,1000.0,984.0,-905.0,-678.0
1735,896,-1358,1,1607.0,1542.0,970.0,1000.0,-1133.0,-905.0
1905,779,-1555,1,1735.0,1607.0,896.0,970.0,-1358.0,-1133.0
2127,607,-1720,1,1905.0,1735.0,779.0,896.0,-1555.0,-1358.0
2400,398,-1852,1,2127.0,1905.0,607.0,779.0,-1720.0,-1555.0
2716,147,-1939,1,2400.0,2127.0,398.0,607.0,-1852.0,-1720.0
3097,-149,-1949,1,2716.0,2400.0,147.0,398.0,-1939.0,-1852.0
3572,-531,-1829,1,3097.0,2716.0,-149.0,147.0,-1949.0,-1939.0
4119,-961,-1606,1,3572.0,3097.0,-531.0,-149.0,-1829.0,-1949.0
4698,-1373,-1321,1,4119.0,3572.0,-961.0,-531.0,-1606.0,-1829.0
5239,-1674,-1068,1,4698.0,4119.0,-1373.0,-961.0,-1321.0,-1606.0
5702,-1840,-895,1,5239.0,4698.0,-1674.0,-1373.0,-1068.0,-1321.0
6063,-1865,-821,1,5702.0,5239.0,-1840.0,-1674.0,-895.0,-1068.0
6306,-1753,-855,1,6063.0,5702.0,-1865.0,-1840.0,-821.0,-895.0
6425,-1530,-984,1,6306.0,6063.0,-1753.0,-1865.0,-855.0,-821.0
6432,-1232,-1160,1,6425.0,6306.0,-1530.0,-1753.0,-984.0,-855.0
6334,-902,-1322,1,6432.0,6425.0,-1232.0,-1530.0,-1160.0,-984.0
6168,-585,-1447,1,6334.0,6432.0,-902.0,-1232.0,-1322.0,-1160.0
5949,-305,-1512,1,6168.0,6334.0,-585.0,-902.0,-1447.0,-1322.0
5691,-56,-1533,1,5949.0,6168.0,-305.0,-585.0,-1512.0,-1447.0
5423,114,-1499,1,5691.0,5949.0,-56.0,-305.0,-1533.0,-1512.0
5149,226,-1448,1,5423.0,5691.0,114.0,-56.0,-1499.0,-1533.0
4876,271,-1393,1,5149.0,5423.0,226.0,114.0,-1448.0,-1499.0
4603,249,-1345,1,4876.0,5149.0,271.0,226.0,-1393.0,-1448.0
4350,178,-1320,1,4603.0,4876.0,249.0,271.0,-1345.0,-1393.0
4105,85,-1313,1,4350.0,4603.0,178.0,249.0,-1320.0,-1345.0
3868,-8,-1326,1,4105.0,4350.0,85.0,178.0,-1313.0,-1320.0
3638,-66,-1350,1,3868.0,4105.0,-8.0,85.0,-1326.0,-1313.0
3422,-89,-1381,1,3638.0,3868.0,-66.0,-8.0,-1350.0,-1326.0
3230,-77,-1410,1,3422.0,3638.0,-89.0,-66.0,-1381.0,-1350.0
3063,-25,-1432,1,3230.0,3422.0,-77.0,-89.0,-1410.0,-1381.0
2927,73,-1438,1,3063.0,3230.0,-25.0,-77.0,-1432.0,-1410.0
2824,221,-1425,1,2927.0,3063.0,73.0,-25.0,-1438.0,-1432.0
2756,405,-1388,1,2824.0,2927.0,221.0,73.0,-1425.0,-1438.0
2716,610,-1322,1,2756.0,2824.0,405.0,221.0,-1388.0,-1425.0
2714,812,-1226,1,2716.0,2756.0,610.0,405.0,-1322.0,-1388.0
2744,996,-1106,1,2714.0,2716.0,812.0,610.0,-1226.0,-1322.0
2797,1155,-978,1,2744.0,2714.0,996.0,812.0,-1106.0,-1226.0
2878,1271,-849,1,2797.0,2744.0,1155.0,996.0,-978.0,-1106.0
2992,1340,-734,1,2878.0,2797.0,1271.0,1155.0,-849.0,-978.0
3138,1341,-631,1,2992.0,2878.0,1340.0,1271.0,-734.0,-849.0
3304,1273,-542,1,3138.0,2992.0,1341.0,1340.0,-631.0,-734.0
3483,1147,-470,1,3304.0,3138.0,1273.0,1341.0,-542.0,-631.0
3666,972,-413,1,3483.0,3304.0,1147.0,1273.0,-470.0,-542.0
3837,775,-377,1,3666.0,3483.0,972.0,1147.0,-413.0,-470.0
3989,563,-369,1,3837.0,3666.0,775.0,972.0,-377.0,-413.0
4127,349,-391,1,3989.0,3837.0,563.0,775.0,-369.0,-377.0
4240,153,-441,1,4127.0,3989.0,349.0,563.0,-391.0,-369.0
4329,-16,-530,1,4240.0,4127.0,153.0,349.0,-441.0,-391.0
4394,-152,-649,1,4329.0,4240.0,-16.0,153.0,-530.0,-441.0
4424,-256,-773,1,4394.0,4329.0,-152.0,-16.0,-649.0,-530.0
4433,-324,-914,1,4424.0,4394.0,-256.0,-152.0,-773.0,-649.0
4425,-358,-1052,1,4433.0,4424.0,-324.0,-256.0,-914.0,-773.0
4399,-355,-1172,1,4425.0,4433.0,-358.0,-324.0,-1052.0,-914.0
4354,-319,-1273,1,4399.0,4425.0,-355.0,-358.0,-1172.0,-1052.0
4295,-267,-1343,1,4354.0,4399.0,-319.0,-355.0,-1273.0,-1172.0
4235,-207,-1393,1,4295.0,4354.0,-267.0,-319.0,-1343.0,-1273.0
4172,-145,-1409,1,4235.0,4295.0,-207.0,-267.0,-1393.0,-1343.0
4114,-82,-1385,1,4172.0,4235.0,-145.0,-207.0,-1409.0,-1393.0
4059,-24,-1319,1,4114.0,4172.0,-82.0,-145.0,-1385.0,-1409.0
3999,29,-1232,1,4059.0,4114.0,-24.0,-82.0,-1319.0,-1385.0
3942,65,-1126,1,3999.0,4059.0,29.0,-24.0,-1232.0,-1319.0
3879,90,-1008,1,3942.0,3999.0,65.0,29.0,-1126.0,-1232.0
3812,100,-887,1,3879.0,3942.0,90.0,65.0,-1008.0,-1126.0
3742,93,-771,1,3812.0,3879.0,100.0,90.0,-887.0,-1008.0
3665,81,-673,1,3742.0,3812.0,93.0,100.0,-771.0,-887.0
3587,64,-608,1,3665.0,3742.0,81.0,93.0,-673.0,-771.0
3510,48,-570,1,3587.0,3665.0,64.0,81.0,-608.0,-673.0
3441,34,-576,1,3510.0,3587.0,48.0,64.0,-570.0,-608.0
3378,34,-623,1,3441.0,3510.0,34.0,48.0,-576.0,-570.0
3318,53,-703,1,3378.0,3441.0,34.0,34.0,-623.0,-576.0
3270,76,-795,1,3318.0,3378.0,53.0,34.0,-703.0,-623.0
3239,114,-904,1,3270.0,3318.0,76.0,53.0,-795.0,-703.0
3231,148,-1006,1,3239.0,3270.0,114.0,76.0,-904.0,-795.0
3245,189,-1106,1,3231.0,3239.0,148.0,114.0,-1006.0,-904.0
3276,268,-1204,1,3245.0,3231.0,189.0,148.0,-1106.0,-1006.0
3327,386,-1286,1,3276.0,3245.0,268.0,189.0,-1204.0,-1106.0
3404,525,-1350,1,3327.0,3276.0,386.0,268.0,-1286.0,-1204.0
3506,665,-1399,1,3404.0,3327.0,525.0,386.0,-1350.0,-1286.0
3634,789,-1431,1,3506.0,3404.0,665.0,525.0,-1399.0,-1350.0
3774,909,-1451,1,3634.0,3506.0,789.0,665.0,-1431.0,-1399.0
3925,1009,-1447,1,3774.0,3634.0,909.0,789.0,-1451.0,-1431.0
4068,1094,-1423,1,3925.0,3774.0,1009.0,909.0,-1447.0,-1451.0
4215,1157,-1375,1,4068.0,3925.0,1094.0,1009.0,-1423.0,-1447.0
4352,1196,-1311,1,4215.0,4068.0,1157.0,1094.0,-1375.0,-1423.0
4480,1201,-1248,1,4352.0,4215.0,1196.0,1157.0,-1311.0,-1375.0
4591,1174,-1198,1,4480.0,4352.0,1201.0,1196.0,-1248.0,-1311.0
4690,1129,-1168,1,4591.0,4480.0,1174.0,1201.0,-1198.0,-1248.0
4770,1070,-1172,1,4690.0,4591.0,1129.0,1174.0,-1168.0,-1198.0
4828,1003,-1217,1,4770.0,4690.0,1070.0,1129.0,-1172.0,-1168.0
4862,936,-1298,1,4828.0,4770.0,1003.0,1070.0,-1217.0,-1172.0
4863,877,-1404,1,4862.0,4828.0,936.0,1003.0,-1298.0,-1217.0
4835,833,-1523,1,4863.0,4862.0,877.0,936.0,-1404.0,-1298.0
4777,795,-1640,1,4835.0,4863.0,833.0,877.0,-1523.0,-1404.0
4703,767,-1749,1,4777.0,4835.0,795.0,833.0,-1640.0,-1523.0
4607,744,-1840,1,4703.0,4777.0,767.0,795.0,-1749.0,-1640.0
4498,727,-1919,1,4607.0,4703.0,744.0,767.0,-1840.0,-1749.0
4378,725,-1979,1,4498.0,4607.0,727.0,744.0,-1919.0,-1840.0
4254,734,-2027,1,4378.0,4498.0,725.0,727.0,-1979.0,-1919.0
4141,754,-2071,1,4254.0,4378.0,734.0,725.0,-2027.0,-1979.0
4023,787,-2099,1,4141.0,4254.0,754.0,734.0,-2071.0,-2027.0
3905,825,-2103,1,4023.0,4141.0,787.0,754.0,-2099.0,-2071.0
3795,862,-2085,1,3905.0,4023.0,825.0,787.0,-2103.0,-2099.0
3688,895,-2044,1,3795.0,3905.0,862.0,825.0,-2085.0,-2103.0
3593,919,-1975,1,3688.0,3795.0,895.0,862.0,-2044.0,-2085.0
3502,931,-1889,1,3593.0,3688.0,919.0,895.0,-1975.0,-2044.0
3422,921,-1795,1,3502.0,3593.0,931.0,919.0,-1889.0,-1975.0
3357,898,-1706,1,3422.0,3502.0,921.0,931.0,-1795.0,-1889.0
3307,858,-1637,1,3357.0,3422.0,898.0,921.0,-1706.0,-1795.0
3272,815,-1587,1,3307.0,3357.0,858.0,898.0,-1637.0,-1706.0
3252,761,-1567,1,3272.0,3307.0,815.0,858.0,-1587.0,-1637.0
3241,722,-1579,1,3252.0,3272.0,761.0,815.0,-1567.0,-1587.0
3245,697,-1624,1,3241.0,3252.0,722.0,761.0,-1579.0,-1567.0
3269,674,-1688,1,3245.0,3241.0,697.0,722.0,-1624.0,-1579.0
3321,654,-1755,1,3269.0,3245.0,674.0,697.0,-1688.0,-1624.0
3402,621,-1825,1,3321.0,3269.0,654.0,674.0,-1755.0,-1688.0
3508,566,-1893,1,3402.0,3321.0,621.0,654.0,-1825.0,-1755.0
3628,484,-1945,1,3508.0,3402.0,566.0,621.0,-1893.0,-1825.0
3739,385,-1980,1,3628.0,3508.0,484.0,566.0,-1945.0,-1893.0
3831,282,-1983,1,3739.0,3628.0,385.0,484.0,-1980.0,-1945.0
3898,178,-1955,1,3831.0,3739.0,282.0,385.0,-1983.0,-1980.0
3937,78,-1902,1,3898.0,3831.0,178.0,282.0,-1955.0,-1983.0
3960,-29,-1825,1,3937.0,3898.0,78.0,178.0,-1902.0,-1955.0
3962,-135,-1730,1,3960.0,3937.0,-29.0,78.0,-1825.0,-1902.0
3942,-230,-1641,1,3962.0,3960.0,-135.0,-29.0,-1730.0,-1825.0
3901,-314,-1562,1,3942.0,3962.0,-230.0,-135.0,-1641.0,-1730.0
3841,-392,-1502,1,3901.0,3942.0,-314.0,-230.0,-1562.0,-1641.0
3762,-465,-1459,1,3841.0,3901.0,-392.0,-314.0,-1502.0,-1562.0
3677,-541,-1435,1,3762.0,3841.0,-465.0,-392.0,-1459.0,-1502.0
3587,-617,-1426,1,3677.0,3762.0,-541.0,-465.0,-1435.0,-1459.0
3493,-698,-1437,1,3587.0,3677.0,-617.0,-541.0,-1426.0,-1435.0
3400,-781,-1475,1,3493.0,3587.0,-698.0,-617.0,-1437.0,-1426.0
3311,-857,-1540,1,3400.0,3493.0,-781.0,-698.0,-1475.0,-1437.0
3231,-918,-1630,1,3311.0,3400.0,-857.0,-781.0,-1540.0,-1475.0
3164,-955,-1729,1,3231.0,3311.0,-918.0,-857.0,-1630.0,-1540.0
3105,-967,-1829,1,3164.0,3231.0,-955.0,-918.0,-1729.0,-1630.0
3062,-949,-1915,1,3105.0,3164.0,-967.0,-955.0,-1829.0,-1729.0
3037,-898,-1978,1,3062.0,3105.0,-949.0,-967.0,-1915.0,-1829.0
3030,-820,-2011,1,3037.0,3062.0,-898.0,-949.0,-1978.0,-1915.0
3048,-715,-2013,1,3030.0,3037.0,-820.0,-898.0,-2011.0,-1978.0
3096,-595,-2001,1,3048.0,3030.0,-715.0,-820.0,-2013.0,-2011.0
3169,-467,-1965,1,3096.0,3048.0,-595.0,-715.0,-2001.0,-2013.0
3274,-336,-1911,1,3169.0,3096.0,-467.0,-595.0,-1965.0,-2001.0
3406,-205,-1845,1,3274.0,3169.0,-336.0,-467.0,-1911.0,-1965.0
3562,-81,-1762,1,3406.0,3274.0,-205.0,-336.0,-1845.0,-1911.0
3744,40,-1658,1,3562.0,3406.0,-81.0,-205.0,-1762.0,-1845.0
3931,155,-1546,1,3744.0,3562.0,40.0,-81.0,-1658.0,-1762.0
4123,264,-1426,1,3931.0,3744.0,155.0,40.0,-1546.0,-1658.0
4322,369,-1308,1,4123.0,3931.0,264.0,155.0,-1426.0,-1546.0
4513,467,-1194,1,4322.0,4123.0,369.0,264.0,-1308.0,-1426.0
4690,548,-1087,1,4513.0,4322.0,467.0,369.0,-1194.0,-1308.0
4839,616,-991,1,4690.0,4513.0,548.0,467.0,-1087.0,-1194.0
4959,664,-911,1,4839.0,4690.0,616.0,548.0,-991.0,-1087.0
5045,695,-843,1,4959.0,4839.0,664.0,616.0,-911.0,-991.0
5087,694,-789,1,5045.0,4959.0,695.0,664.0,-843.0,-911.0
5078,671,-760,1,5087.0,5045.0,694.0,695.0,-789.0,-843.0
5018,631,-755,1,5078.0,5087.0,671.0,694.0,-760.0,-789.0
4920,565,-775,1,5018.0,5078.0,631.0,671.0,-755.0,-760.0
4795,474,-818,1,4920.0,5018.0,565.0,631.0,-775.0,-755.0
4650,365,-881,1,4795.0,4920.0,474.0,565.0,-818.0,-775.0
4482,252,-964,1,4650.0,4795.0,365.0,474.0,-881.0,-818.0
4301,135,-1057,1,4482.0,4650.0,252.0,365.0,-964.0,-881.0
4123,32,-1165,1,4301.0,4482.0,135.0,252.0,-1057.0,-964.0
3941,-65,-1272,1,4123.0,4301.0,32.0,135.0,-1165.0,-1057.0
3761,-163,-1378,1,3941.0,4123.0,-65.0,32.0,-1272.0,-1165.0
3596,-258,-1476,1,3761.0,3941.0,-163.0,-65.0,-1378.0,-1272.0
3444,-349,-1567,1,3596.0,3761.0,-258.0,-163.0,-1476.0,-1378.0
3320,-426,-1647,1,3444.0,3596.0,-349.0,-258.0,-1567.0,-1476.0
3216,-477,-1710,1,3320.0,3444.0,-426.0,-349.0,-1647.0,-1567.0
3135,-501,-1762,1,3216.0,3320.0,-477.0,-426.0,-1710.0,-1647.0
3084,-502,-1809,1,3135.0,3216.0,-501.0,-477.0,-1762.0,-1710.0
3065,-463,-1854,1,3084.0,3135.0,-502.0,-501.0,-1809.0,-1762.0
3073,-396,-1882,1,3065.0,3084.0,-463.0,-502.0,-1854.0,-1809.0
3119,-329,-1891,1,3073.0,3065.0,-396.0,-463.0,-1882.0,-1854.0
3196,-255,-1876,1,3119.0,3073.0,-329.0,-396.0,-1891.0,-1882.0
3290,-184,-1838,1,3196.0,3119.0,-255.0,-329.0,-1876.0,-1891.0
3407,-117,-1780,1,3290.0,3196.0,-184.0,-255.0,-1838.0,-1876.0
3541,-56,-1700,1,3407.0,3290.0,-117.0,-184.0,-1780.0,-1838.0
3677,5,-1608,1,3541.0,3407.0,-56.0,-117.0,-1700.0,-1780.0
3814,71,-1507,1,3677.0,3541.0,5.0,-56.0,-1608.0,-1700.0
3945,141,-1414,1,3814.0,3677.0,71.0,5.0,-1507.0,-1608.0
4056,217,-1327,1,3945.0,3814.0,141.0,71.0,-1414.0,-1507.0
4156,294,-1246,1,4056.0,3945.0,217.0,141.0,-1327.0,-1414.0
4240,376,-1176,1,4156.0,4056.0,294.0,217.0,-1246.0,-1327.0
4312,452,-1119,1,4240.0,4156.0,376.0,294.0,-1176.0,-1246.0
4364,518,-1072,1,4312.0,4240.0,452.0,376.0,-1119.0,-1176.0
4395,572,-1040,1,4364.0,4312.0,518.0,452.0,-1072.0,-1119.0
4405,611,-1022,1,4395.0,4364.0,572.0,518.0,-1040.0,-1072.0
4395,628,-1018,1,4405.0,4395.0,611.0,572.0,-1022.0,-1040.0
4366,625,-1041,1,4395.0,4405.0,628.0,611.0,-1018.0,-1022.0
4322,603,-1075,1,4366.0,4395.0,625.0,628.0,-1041.0,-1018.0
4263,572,-1120,1,4322.0,4366.0,603.0,625.0,-1075.0,-1041.0
4189,525,-1167,1,4263.0,4322.0,572.0,603.0,-1120.0,-1075.0
4121,476,-1213,1,4189.0,4263.0,525.0,572.0,-1167.0,-1120.0
4043,416,-1253,1,4121.0,4189.0,476.0,525.0,-1213.0,-1167.0
3962,349,-1287,1,4043.0,4121.0,416.0,476.0,-1253.0,-1213.0
3888,269,-1324,1,3962.0,4043.0,349.0,416.0,-1287.0,-1253.0
3819,188,-1342,1,3888.0,3962.0,269.0,349.0,-1324.0,-1287.0
3753,116,-1354,1,3819.0,3888.0,188.0,269.0,-1342.0,-1324.0
3693,56,-1367,1,3753.0,3819.0,116.0,188.0,-1354.0,-1342.0
3640,7,-1373,1,3693.0,3753.0,56.0,116.0,-1367.0,-1354.0
3603,-45,-1382,1,3640.0,3693.0,7.0,56.0,-1373.0,-1367.0
3570,-73,-1369,1,3603.0,3640.0,-45.0,7.0,-1382.0,-1373.0
3542,-84,-1355,1,3570.0,3603.0,-73.0,-45.0,-1369.0,-1382.0
3529,-89,-1344,1,3542.0,3570.0,-84.0,-73.0,-1355.0,-1369.0
3526,-84,-1335,1,3529.0,3542.0,-89.0,-84.0,-1344.0,-1355.0
3535,-69,-1318,1,3526.0,3529.0,-84.0,-89.0,-1335.0,-1344.0
3552,-51,-1303,1,3535.0,3526.0,-69.0,-84.0,-1318.0,-1335.0
3575,-27,-1278,1,3552.0,3535.0,-51.0,-69.0,-1303.0,-1318.0
3602,-9,-1256,1,3575.0,3552.0,-27.0,-51.0,-1278.0,-1303.0
3636,-4,-1238,1,3602.0,3575.0,-9.0,-27.0,-1256.0,-1278.0
3675,0,-1217,1,3636.0,3602.0,-4.0,-9.0,-1238.0,-1256.0
3718,0,-1204,1,3675.0,3636.0,0.0,-4.0,-1217.0,-1238.0
3756,0,-1191,1,3718.0,3675.0,0.0,0.0,-1204.0,-1217.0
3788,1,-1178,1,3756.0,3718.0,0.0,0.0,-1191.0,-1204.0
3825,1,-1171,1,3788.0,3756.0,1.0,0.0,-1178.0,-1191.0
3862,3,-1164,1,3825.0,3788.0,1.0,1.0,-1171.0,-1178.0
3900,-1,-1163,1,3862.0,3825.0,3.0,1.0,-1164.0,-1171.0
3926,0,-1156,1,3900.0,3862.0,-1.0,3.0,-1163.0,-1164.0
3948,5,-1144,1,3926.0,3900.0,0.0,-1.0,-1156.0,-1163.0
3961,25,-1130,1,3948.0,3926.0,5.0,0.0,-1144.0,-1156.0
3970,44,-1104,1,3961.0,3948.0,25.0,5.0,-1130.0,-1144.0
3969,78,-1061,1,3970.0,3961.0,44.0,25.0,-1104.0,-1130.0
3962,114,-1023,1,3969.0,3970.0,78.0,44.0,-1061.0,-1104.0
3949,153,-985,1,3962.0,3969.0,114.0,78.0,-1023.0,-1061.0
3931,193,-946,1,3949.0,3962.0,153.0,114.0,-985.0,-1023.0
3914,210,-922,1,3931.0,3949.0,193.0,153.0,-946.0,-985.0
3891,218,-909,1,3914.0,3931.0,210.0,193.0,-922.0,-946.0
3844,243,-913,1,3891.0,3914.0,218.0,210.0,-909.0,-922.0
3785,273,-915,1,3844.0,3891.0,243.0,218.0,-913.0,-909.0
3731,283,-925,1,3785.0,3844.0,273.0,243.0,-915.0,-913.0
3682,274,-954,1,3731.0,3785.0,283.0,273.0,-925.0,-915.0
3635,248,-991,1,3682.0,3731.0,274.0,283.0,-954.0,-925.0
3582,215,-1032,1,3635.0,3682.0,248.0,274.0,-991.0,-954.0
3523,183,-1070,1,3582.0,3635.0,215.0,248.0,-1032.0,-991.0
3471,149,-1098,1,3523.0,3582.0,183.0,215.0,-1070.0,-1032.0
3426,112,-1131,1,3471.0,3523.0,149.0,183.0,-1098.0,-1070.0
3377,84,-1164,1,3426.0,3471.0,112.0,149.0,-1131.0,-1098.0
3341,54,-1186,1,3377.0,3426.0,84.0,112.0,-1164.0,-1131.0
3312,33,-1199,1,3341.0,3377.0,54.0,84.0,-1186.0,-1164.0
3291,16,-1208,1,3312.0,3341.0,33.0,54.0,-1199.0,-1186.0
3264,17,-1219,1,3291.0,3312.0,16.0,33.0,-1208.0,-1199.0
3241,24,-1221,1,3264.0,3291.0,17.0,16.0,-1219.0,-1208.0
3214,38,-1226,1,3241.0,3264.0,24.0,17.0,-1221.0,-1219.0
3187,60,-1212,1,3214.0,3241.0,38.0,24.0,-1226.0,-1221.0
3161,78,-1188,1,3187.0,3214.0,60.0,38.0,-1212.0,-1226.0
3127,100,-1131,1,3161.0,3187.0,78.0,60.0,-1188.0,-1212.0
3089,119,-1025,1,3127.0,3161.0,100.0,78.0,-1131.0,-1188.0
3048,134,-883,1,3089.0,3127.0,119.0,100.0,-1025.0,-1131.0
3010,138,-749,1,3048.0,3089.0,134.0,119.0,-883.0,-1025.0
2967,129,-659,1,3010.0,3048.0,138.0,134.0,-749.0,-883.0
