accelerometer_x,accelerometer_y,accelerometer_z,fall,x_lag_1,x_lag_2,y_lag_1,y_lag_2,z_lag_1,z_lag_2
4112,-12,-179,0,,,,,,
4122,-12,-193,0,4112.0,,-12.0,,-179.0,
4135,-2,-181,0,4122.0,4112.0,-12.0,-12.0,-193.0,-179.0
4145,6,-181,0,4135.0,4122.0,-2.0,-12.0,-181.0,-193.0
4156,4,-172,0,4145.0,4135.0,6.0,-2.0,-181.0,-181.0
4164,-4,-157,0,4156.0,4145.0,4.0,6.0,-172.0,-181.0
4163,-25,-141,0,4164.0,4156.0,-4.0,4.0,-157.0,-172.0
4152,-38,-128,0,4163.0,4164.0,-25.0,-4.0,-141.0,-157.0
4136,-46,-128,0,4152.0,4163.0,-38.0,-25.0,-128.0,-141.0
4118,-50,-140,0,4136.0,4152.0,-46.0,-38.0,-128.0,-128.0
4108,-49,-152,0,4118.0,4136.0,-50.0,-46.0,-140.0,-128.0
4103,-46,-165,0,4108.0,4118.0,-49.0,-50.0,-152.0,-140.0
4101,-34,-171,0,4103.0,4108.0,-46.0,-49.0,-165.0,-152.0
4105,-18,-177,0,4101.0,4103.0,-34.0,-46.0,-171.0,-165.0
4111,-3,-179,0,4105.0,4101.0,-18.0,-34.0,-177.0,-171.0
4119,15,-178,0,4111.0,4105.0,-3.0,-18.0,-179.0,-177.0
4126,29,-177,0,4119.0,4111.0,15.0,-3.0,-178.0,-179.0
4134,41,-178,0,4126.0,4119.0,29.0,15.0,-177.0,-178.0
4136,65,-182,0,4134.0,4126.0,41.0,29.0,-178.0,-177.0
4133,87,-186,0,4136.0,4134.0,65.0,41.0,-182.0,-178.0
4122,104,-190,0,4133.0,4136.0,87.0,65.0,-186.0,-182.0
4115,109,-191,0,4122.0,4133.0,104.0,87.0,-190.0,-186.0
4111,119,-182,0,4115.0,4122.0,109.0,104.0,-191.0,-190.0
4108,119,-174,0,4111.0,4115.0,119.0,109.0,-182.0,-191.0
4106,120,-170,0,4108.0,4111.0,119.0,119.0,-174.0,-182.0
4105,119,-164,0,4106.0,4108.0,120.0,119.0,-170.0,-174.0
4105,106,-164,0,4105.0,4106.0,119.0,120.0,-164.0,-170.0
4102,84,-167,0,4105.0,4105.0,106.0,119.0,-164.0,-164.0
4100,58,-171,0,4102.0,4105.0,84.0,106.0,-167.0,-164.0
4088,34,-174,0,4100.0,4102.0,58.0,84.0,-171.0,-167.0
4068,13,-182,0,4088.0,4100.0,34.0,58.0,-174.0,-171.0
4045,-12,-187,0,4068.0,4088.0,13.0,34.0,-182.0,-174.0
4019,-35,-191,0,4045.0,4068.0,-12.0,13.0,-187.0,-182.0
3991,-58,-194,0,4019.0,4045.0,-35.0,-12.0,-191.0,-187.0
3966,-75,-199,0,3991.0,4019.0,-58.0,-35.0,-194.0,-191.0
3942,-84,-209,0,3966.0,3991.0,-75.0,-58.0,-199.0,-194.0
3917,-88,-219,0,3942.0,3966.0,-84.0,-75.0,-209.0,-199.0
3899,-91,-229,0,3917.0,3942.0,-88.0,-84.0,-219.0,-209.0
3886,-94,-241,0,3899.0,3917.0,-91.0,-88.0,-229.0,-219.0
3872,-95,-254,0,3886.0,3899.0,-94.0,-91.0,-241.0,-229.0
3867,-96,-257,0,3872.0,3886.0,-95.0,-94.0,-254.0,-241.0
3875,-91,-255,0,3867.0,3872.0,-96.0,-95.0,-257.0,-254.0
3895,-86,-239,0,3875.0,3867.0,-91.0,-96.0,-255.0,-257.0
3917,-88,-215,0,3895.0,3875.0,-86.0,-91.0,-239.0,-255.0
3945,-83,-191,0,3917.0,3895.0,-88.0,-86.0,-215.0,-239.0
3969,-77,-169,0,3945.0,3917.0,-83.0,-88.0,-191.0,-215.0
3993,-63,-150,0,3969.0,3945.0,-77.0,-83.0,-169.0,-191.0
4007,-47,-136,0,3993.0,3969.0,-63.0,-77.0,-150.0,-169.0
4015,-30,-130,0,4007.0,3993.0,-47.0,-63.0,-136.0,-150.0
4022,-17,-129,0,4015.0,4007.0,-30.0,-47.0,-130.0,-136.0
4027,-14,-124,0,4022.0,4015.0,-17.0,-30.0,-129.0,-130.0
4038,-9,-116,0,4027.0,4022.0,-14.0,-17.0,-124.0,-129.0
4050,-10,-115,0,4038.0,4027.0,-9.0,-14.0,-116.0,-124.0
4061,-10,-114,0,4050.0,4038.0,-10.0,-9.0,-115.0,-116.0
4070,-10,-109,0,4061.0,4050.0,-10.0,-10.0,-114.0,-115.0
4076,-20,-105,0,4070.0,4061.0,-10.0,-10.0,-109.0,-114.0
4078,-27,-111,0,4076.0,4070.0,-20.0,-10.0,-105.0,-109.0
4081,-34,-113,0,4078.0,4076.0,-27.0,-20.0,-111.0,-105.0
4086,-44,-118,0,4081.0,4078.0,-34.0,-27.0,-113.0,-111.0
4093,-52,-117,0,4086.0,4081.0,-44.0,-34.0,-118.0,-113.0
4099,-50,-119,0,4093.0,4086.0,-52.0,-44.0,-117.0,-118.0
4108,-52,-114,0,4099.0,4093.0,-50.0,-52.0,-119.0,-117.0
4133,-55,-109,0,4108.0,4099.0,-52.0,-50.0,-114.0,-119.0
4154,-55,-95,0,4133.0,4108.0,-55.0,-52.0,-109.0,-114.0
4179,-52,-88,0,4154.0,4133.0,-55.0,-55.0,-95.0,-109.0
4203,-43,-84,0,4179.0,4154.0,-52.0,-55.0,-88.0,-95.0
4217,-30,-79,0,4203.0,4179.0,-43.0,-52.0,-84.0,-88.0
4222,-19,-67,0,4217.0,4203.0,-30.0,-43.0,-79.0,-84.0
4221,-13,-59,0,4222.0,4217.0,-19.0,-30.0,-67.0,-79.0
4219,-9,-59,0,4221.0,4222.0,-13.0,-19.0,-59.0,-67.0
4216,-8,-61,0,4219.0,4221.0,-9.0,-13.0,-59.0,-59.0
4213,-7,-65,0,4216.0,4219.0,-8.0,-9.0,-61.0,-59.0
4209,-9,-63,0,4213.0,4216.0,-7.0,-8.0,-65.0,-61.0
4203,-8,-61,0,4209.0,4213.0,-9.0,-7.0,-63.0,-65.0
4196,-4,-61,0,4203.0,4209.0,-8.0,-9.0,-61.0,-63.0
4186,-2,-63,0,4196.0,4203.0,-4.0,-8.0,-61.0,-61.0
4174,2,-69,0,4186.0,4196.0,-2.0,-4.0,-63.0,-61.0
4163,8,-76,0,4174.0,4186.0,2.0,-2.0,-69.0,-63.0
4151,15,-85,0,4163.0,4174.0,8.0,2.0,-76.0,-69.0
4141,23,-90,0,4151.0,4163.0,15.0,8.0,-85.0,-76.0
4128,29,-93,0,4141.0,4151.0,23.0,15.0,-90.0,-85.0
4120,33,-90,0,4128.0,4141.0,29.0,23.0,-93.0,-90.0
4114,43,-76,0,4120.0,4128.0,33.0,29.0,-90.0,-93.0
4118,45,-53,0,4114.0,4120.0,43.0,33.0,-76.0,-90.0
4122,43,-28,0,4118.0,4114.0,45.0,43.0,-53.0,-76.0
4131,43,-20,0,4122.0,4118.0,43.0,45.0,-28.0,-53.0
4123,39,-35,0,4131.0,4122.0,43.0,43.0,-20.0,-28.0
4113,30,-57,0,4123.0,4131.0,39.0,43.0,-35.0,-20.0
4101,16,-73,0,4113.0,4123.0,30.0,39.0,-57.0,-35.0
4089,5,-76,0,4101.0,4113.0,16.0,30.0,-73.0,-57.0
4082,-2,-72,0,4089.0,4101.0,5.0,16.0,-76.0,-73.0
4084,-3,-58,0,4082.0,4089.0,-2.0,5.0,-72.0,-76.0
4086,-7,-43,0,4084.0,4082.0,-3.0,-2.0,-58.0,-72.0
4092,-9,-45,0,4086.0,4084.0,-7.0,-3.0,-43.0,-58.0
4097,-7,-49,0,4092.0,4086.0,-9.0,-7.0,-45.0,-43.0
4099,-5,-50,0,4097.0,4092.0,-7.0,-9.0,-49.0,-45.0
4100,-4,-43,0,4099.0,4097.0,-5.0,-7.0,-50.0,-49.0
4101,-3,-31,0,4100.0,4099.0,-4.0,-5.0,-43.0,-50.0
4104,-8,-17,0,4101.0,4100.0,-3.0,-4.0,-31.0,-43.0
4104,-7,-6,0,4104.0,4101.0,-8.0,-3.0,-17.0,-31.0
4102,-9,-3,0,4104.0,4104.0,-7.0,-8.0,-6.0,-17.0
4101,-7,-1,0,4102.0,4104.0,-9.0,-7.0,-3.0,-6.0
4087,-4,-5,0,4101.0,4102.0,-7.0,-9.0,-1.0,-3.0
4077,2,-17,0,4087.0,4101.0,-4.0,-7.0,-5.0,-1.0
4060,5,-28,0,4077.0,4087.0,2.0,-4.0,-17.0,-5.0
4053,2,-42,0,4060.0,4077.0,5.0,2.0,-28.0,-17.0
4051,1,-44,0,4053.0,4060.0,2.0,5.0,-42.0,-28.0
4055,-7,-43,0,4051.0,4053.0,1.0,2.0,-44.0,-42.0
4056,-20,-41,0,4055.0,4051.0,-7.0,1.0,-43.0,-44.0
4058,-40,-34,0,4056.0,4055.0,-20.0,-7.0,-41.0,-43.0
4056,-49,-39,0,4058.0,4056.0,-40.0,-20.0,-34.0,-41.0
4063,-21,-36,0,4056.0,4058.0,-49.0,-40.0,-39.0,-34.0
4070,4,-46,0,4063.0,4056.0,-21.0,-49.0,-36.0,-39.0
4073,19,-57,0,4070.0,4063.0,4.0,-21.0,-46.0,-36.0
4070,20,-59,0,4073.0,4070.0,19.0,4.0,-57.0,-46.0
4070,10,-63,0,4070.0,4073.0,20.0,19.0,-59.0,-57.0
4066,2,-62,0,4070.0,4070.0,10.0,20.0,-63.0,-59.0
4063,4,-59,0,4066.0,4070.0,2.0,10.0,-62.0,-63.0
4058,8,-61,0,4063.0,4066.0,4.0,2.0,-59.0,-62.0
4068,6,-66,0,4058.0,4063.0,8.0,4.0,-61.0,-59.0
4076,0,-71,0,4068.0,4058.0,6.0,8.0,-66.0,-61.0
4087,-4,-68,0,4076.0,4068.0,0.0,6.0,-71.0,-66.0
4094,-7,-60,0,4087.0,4076.0,-4.0,0.0,-68.0,-71.0
4102,-9,-59,0,4094.0,4087.0,-7.0,-4.0,-60.0,-68.0
4108,-7,-52,0,4102.0,4094.0,-9.0,-7.0,-59.0,-60.0
4107,-5,-53,0,4108.0,4102.0,-7.0,-9.0,-52.0,-59.0
4103,-5,-60,0,4107.0,4108.0,-5.0,-7.0,-53.0,-52.0
4096,-3,-70,0,4103.0,4107.0,-5.0,-5.0,-60.0,-53.0
4095,-3,-78,0,4096.0,4103.0,-3.0,-5.0,-70.0,-60.0
4092,-1,-85,0,4095.0,4096.0,-3.0,-3.0,-78.0,-70.0
4095,-1,-89,0,4092.0,4095.0,-1.0,-3.0,-85.0,-78.0
4098,-4,-89,0,4095.0,4092.0,-1.0,-1.0,-89.0,-85.0
4100,-5,-88,0,4098.0,4095.0,-4.0,-1.0,-89.0,-89.0
4100,-7,-85,0,4100.0,4098.0,-5.0,-4.0,-88.0,-89.0
4101,-8,-83,0,4100.0,4100.0,-7.0,-5.0,-85.0,-88.0
4105,-11,-82,0,4101.0,4100.0,-8.0,-7.0,-83.0,-85.0
4106,-13,-81,0,4105.0,4101.0,-11.0,-8.0,-82.0,-83.0
4109,-17,-84,0,4106.0,4105.0,-13.0,-11.0,-81.0,-82.0
4109,-23,-84,0,4109.0,4106.0,-17.0,-13.0,-84.0,-81.0
4115,-28,-85,0,4109.0,4109.0,-23.0,-17.0,-84.0,-84.0
4121,-30,-84,0,4115.0,4109.0,-28.0,-23.0,-85.0,-84.0
4122,-37,-82,0,4121.0,4115.0,-30.0,-28.0,-84.0,-85.0
4127,-42,-82,0,4122.0,4121.0,-37.0,-30.0,-82.0,-84.0
4129,-44,-83,0,4127.0,4122.0,-42.0,-37.0,-82.0,-82.0
4131,-43,-82,0,4129.0,4127.0,-44.0,-42.0,-83.0,-82.0
4127,-44,-84,0,4131.0,4129.0,-43.0,-44.0,-82.0,-83.0
4130,-44,-79,0,4127.0,4131.0,-44.0,-43.0,-84.0,-82.0
4136,-56,-74,0,4130.0,4127.0,-44.0,-44.0,-79.0,-84.0
4134,-58,-65,0,4136.0,4130.0,-56.0,-44.0,-74.0,-79.0
4128,-54,-56,0,4134.0,4136.0,-58.0,-56.0,-65.0,-74.0
4133,-49,-57,0,4128.0,4134.0,-54.0,-58.0,-56.0,-65.0
4133,-47,-57,0,4133.0,4128.0,-49.0,-54.0,-57.0,-56.0
4130,-51,-54,0,4133.0,4133.0,-47.0,-49.0,-57.0,-57.0
4125,-56,-59,0,4130.0,4133.0,-51.0,-47.0,-54.0,-57.0
4123,-57,-54,0,4125.0,4130.0,-56.0,-51.0,-59.0,-54.0
4124,-51,-53,0,4123.0,4125.0,-57.0,-56.0,-54.0,-59.0
4122,-50,-57,0,4124.0,4123.0,-51.0,-57.0,-53.0,-54.0
4114,-57,-61,0,4122.0,4124.0,-50.0,-51.0,-57.0,-53.0
4111,-58,-54,0,4114.0,4122.0,-57.0,-50.0,-61.0,-57.0
4108,-52,-52,0,4111.0,4114.0,-58.0,-57.0,-54.0,-61.0
4109,-47,-48,0,4108.0,4111.0,-52.0,-58.0,-52.0,-54.0
4113,-44,-54,0,4109.0,4108.0,-47.0,-52.0,-48.0,-52.0
4121,-53,-49,0,4113.0,4109.0,-44.0,-47.0,-54.0,-48.0
4128,-59,-38,0,4121.0,4113.0,-53.0,-44.0,-49.0,-54.0
4133,-59,-36,0,4128.0,4121.0,-59.0,-53.0,-38.0,-49.0
4133,-55,-35,0,4133.0,4128.0,-59.0,-59.0,-36.0,-38.0
4133,-48,-32,0,4133.0,4133.0,-55.0,-59.0,-35.0,-36.0
4135,-44,-33,0,4133.0,4133.0,-48.0,-55.0,-32.0,-35.0
4139,-44,-35,0,4135.0,4133.0,-44.0,-48.0,-33.0,-32.0
4143,-42,-36,0,4139.0,4135.0,-44.0,-44.0,-35.0,-33.0
4145,-36,-35,0,4143.0,4139.0,-42.0,-44.0,-36.0,-35.0
4144,-33,-26,0,4145.0,4143.0,-36.0,-42.0,-35.0,-36.0
4137,-34,-18,0,4144.0,4145.0,-33.0,-36.0,-26.0,-35.0
4121,-33,-19,0,4137.0,4144.0,-34.0,-33.0,-18.0,-26.0
4110,-33,-26,0,4121.0,4137.0,-33.0,-34.0,-19.0,-18.0
4096,-41,-32,0,4110.0,4121.0,-33.0,-33.0,-26.0,-19.0
4075,-44,-37,0,4096.0,4110.0,-41.0,-33.0,-32.0,-26.0
4056,-41,-48,0,4075.0,4096.0,-44.0,-41.0,-37.0,-32.0
4035,-38,-57,0,4056.0,4075.0,-41.0,-44.0,-48.0,-37.0
4014,-37,-70,0,4035.0,4056.0,-38.0,-41.0,-57.0,-48.0
3996,-37,-79,0,4014.0,4035.0,-37.0,-38.0,-70.0,-57.0
3984,-36,-84,0,3996.0,4014.0,-37.0,-37.0,-79.0,-70.0
3975,-34,-81,0,3984.0,3996.0,-36.0,-37.0,-84.0,-79.0
3969,-34,-72,0,3975.0,3984.0,-34.0,-36.0,-81.0,-84.0
3968,-33,-47,0,3969.0,3975.0,-34.0,-34.0,-72.0,-81.0
3975,-38,-24,0,3968.0,3969.0,-33.0,-34.0,-47.0,-72.0
3989,-36,-14,0,3975.0,3968.0,-38.0,-33.0,-24.0,-47.0
3995,-28,-27,0,3989.0,3975.0,-36.0,-38.0,-14.0,-24.0
3992,-31,-47,0,3995.0,3989.0,-28.0,-36.0,-27.0,-14.0
3986,-35,-64,0,3992.0,3995.0,-31.0,-28.0,-47.0,-27.0
3983,-44,-79,0,3986.0,3992.0,-35.0,-31.0,-64.0,-47.0
3989,-57,-73,0,3983.0,3986.0,-44.0,-35.0,-79.0,-64.0
3999,-52,-69,0,3989.0,3983.0,-57.0,-44.0,-73.0,-79.0
4009,-41,-60,0,3999.0,3989.0,-52.0,-57.0,-69.0,-73.0
4033,-35,-60,0,4009.0,3999.0,-41.0,-52.0,-60.0,-69.0
4066,-43,-46,0,4033.0,4009.0,-35.0,-41.0,-60.0,-60.0
4089,-45,-33,0,4066.0,4033.0,-43.0,-35.0,-46.0,-60.0
4107,-42,-21,0,4089.0,4066.0,-45.0,-43.0,-33.0,-46.0
4115,-40,-21,0,4107.0,4089.0,-42.0,-45.0,-21.0,-33.0
4114,-42,-25,0,4115.0,4107.0,-40.0,-42.0,-21.0,-21.0
4105,-43,-38,0,4114.0,4115.0,-42.0,-40.0,-25.0,-21.0
4098,-35,-69,0,4105.0,4114.0,-43.0,-42.0,-38.0,-25.0
4099,-4,-87,0,4098.0,4105.0,-35.0,-43.0,-69.0,-38.0
4101,14,-101,0,4099.0,4098.0,-4.0,-35.0,-87.0,-69.0
4105,10,-115,0,4101.0,4099.0,14.0,-4.0,-101.0,-87.0
4122,0,-116,0,4105.0,4101.0,10.0,14.0,-115.0,-101.0
4133,-19,-101,0,4122.0,4105.0,0.0,10.0,-116.0,-115.0
4136,-28,-99,0,4133.0,4122.0,-19.0,0.0,-101.0,-116.0
4125,-31,-103,0,4136.0,4133.0,-28.0,-19.0,-99.0,-101.0
4117,-30,-122,0,4125.0,4136.0,-31.0,-28.0,-103.0,-99.0
4120,-28,-146,0,4117.0,4125.0,-30.0,-31.0,-122.0,-103.0
4135,-14,-164,0,4120.0,4117.0,-28.0,-30.0,-146.0,-122.0
4170,-9,-160,0,4135.0,4120.0,-14.0,-28.0,-164.0,-146.0
4188,-22,-137,0,4170.0,4135.0,-9.0,-14.0,-160.0,-164.0
4188,-39,-122,0,4188.0,4170.0,-22.0,-9.0,-137.0,-160.0
4176,-45,-125,0,4188.0,4188.0,-39.0,-22.0,-122.0,-137.0
4146,-30,-135,0,4176.0,4188.0,-45.0,-39.0,-125.0,-122.0
4124,-7,-148,0,4146.0,4176.0,-30.0,-45.0,-135.0,-125.0
4112,4,-161,0,4124.0,4146.0,-7.0,-30.0,-148.0,-135.0
4107,0,-170,0,4112.0,4124.0,4.0,-7.0,-161.0,-148.0
4110,-14,-156,0,4107.0,4112.0,0.0,4.0,-170.0,-161.0
4114,-24,-140,0,4110.0,4107.0,-14.0,0.0,-156.0,-170.0
4111,-31,-129,0,4114.0,4110.0,-24.0,-14.0,-140.0,-156.0
4110,-31,-124,0,4111.0,4114.0,-31.0,-24.0,-129.0,-140.0
4106,-26,-130,0,4110.0,4111.0,-31.0,-31.0,-124.0,-129.0
4103,-28,-130,0,4106.0,4110.0,-26.0,-31.0,-130.0,-124.0
4097,-37,-136,0,4103.0,4106.0,-28.0,-26.0,-130.0,-130.0
4097,-40,-139,0,4097.0,4103.0,-37.0,-28.0,-136.0,-130.0
4099,-47,-141,0,4097.0,4097.0,-40.0,-37.0,-139.0,-136.0
4099,-44,-141,0,4099.0,4097.0,-47.0,-40.0,-141.0,-139.0
4100,-45,-143,0,4099.0,4099.0,-44.0,-47.0,-141.0,-141.0
4100,-49,-141,0,4100.0,4099.0,-45.0,-44.0,-143.0,-141.0
4100,-53,-144,0,4100.0,4100.0,-49.0,-45.0,-141.0,-143.0
4099,-50,-143,0,4100.0,4100.0,-53.0,-49.0,-144.0,-141.0
4100,-49,-142,0,4099.0,4100.0,-50.0,-53.0,-143.0,-144.0
4102,-50,-147,0,4100.0,4099.0,-49.0,-50.0,-142.0,-143.0
4106,-35,-142,0,4102.0,4100.0,-50.0,-49.0,-147.0,-142.0
4113,-40,-123,0,4106.0,4102.0,-35.0,-50.0,-142.0,-147.0
4110,-45,-114,0,4113.0,4106.0,-40.0,-35.0,-123.0,-142.0
4096,-38,-108,0,4110.0,4113.0,-45.0,-40.0,-114.0,-123.0
4082,-35,-111,0,4096.0,4110.0,-38.0,-45.0,-108.0,-114.0
4064,-24,-119,0,4082.0,4096.0,-35.0,-38.0,-111.0,-108.0
4052,-14,-132,0,4064.0,4082.0,-24.0,-35.0,-119.0,-111.0
4059,-15,-141,0,4052.0,4064.0,-14.0,-24.0,-132.0,-119.0
4072,-20,-132,0,4059.0,4052.0,-15.0,-14.0,-141.0,-132.0
4084,-24,-121,0,4072.0,4059.0,-20.0,-15.0,-132.0,-141.0
4093,-24,-117,0,4084.0,4072.0,-24.0,-20.0,-121.0,-132.0
4097,-21,-116,0,4093.0,4084.0,-24.0,-24.0,-117.0,-121.0
4098,-19,-118,0,4097.0,4093.0,-21.0,-24.0,-116.0,-117.0
4093,-17,-123,0,4098.0,4097.0,-19.0,-21.0,-118.0,-116.0
4091,-12,-131,0,4093.0,4098.0,-17.0,-19.0,-123.0,-118.0
4089,-6,-135,0,4091.0,4093.0,-12.0,-17.0,-131.0,-123.0
4088,-3,-138,0,4089.0,4091.0,-6.0,-12.0,-135.0,-131.0
4093,-2,-143,0,4088.0,4089.0,-3.0,-6.0,-138.0,-135.0
4097,-1,-145,0,4093.0,4088.0,-2.0,-3.0,-143.0,-138.0
4102,32,-175,0,4097.0,4093.0,-1.0,-2.0,-145.0,-143.0
4120,53,-140,0,4102.0,4097.0,32.0,-1.0,-175.0,-145.0
4110,24,-134,0,4120.0,4102.0,53.0,32.0,-140.0,-175.0
4094,-3,-132,0,4110.0,4120.0,24.0,53.0,-134.0,-140.0
4082,-5,-139,0,4094.0,4110.0,-3.0,24.0,-132.0,-134.0
4080,-1,-158,0,4082.0,4094.0,-5.0,-3.0,-139.0,-132.0
4090,13,-169,0,4080.0,4082.0,-1.0,-5.0,-158.0,-139.0
4104,27,-171,0,4090.0,4080.0,13.0,-1.0,-169.0,-158.0
4119,24,-167,0,4104.0,4090.0,27.0,13.0,-171.0,-169.0
4127,19,-161,0,4119.0,4104.0,24.0,27.0,-167.0,-171.0
4129,14,-160,0,4127.0,4119.0,19.0,24.0,-161.0,-167.0
4125,17,-160,0,4129.0,4127.0,14.0,19.0,-160.0,-161.0
4119,17,-161,0,4125.0,4129.0,17.0,14.0,-160.0,-160.0
4113,21,-160,0,4119.0,4125.0,17.0,17.0,-161.0,-160.0
4108,22,-162,0,4113.0,4119.0,21.0,17.0,-160.0,-161.0
4107,19,-153,0,4108.0,4113.0,22.0,21.0,-162.0,-160.0
4113,19,-144,0,4107.0,4108.0,19.0,22.0,-153.0,-162.0
4116,19,-143,0,4113.0,4107.0,19.0,19.0,-144.0,-153.0
4119,17,-144,0,4116.0,4113.0,19.0,19.0,-143.0,-144.0
4118,10,-145,0,4119.0,4116.0,17.0,19.0,-144.0,-143.0
4117,5,-150,0,4118.0,4119.0,10.0,17.0,-145.0,-144.0
4116,1,-156,0,4117.0,4118.0,5.0,10.0,-150.0,-145.0
4118,5,-166,0,4116.0,4117.0,1.0,5.0,-156.0,-150.0
4134,13,-174,0,4118.0,4116.0,5.0,1.0,-166.0,-156.0
4129,5,-172,0,4134.0,4118.0,13.0,5.0,-174.0,-166.0
4115,-23,-179,0,4129.0,4134.0,5.0,13.0,-172.0,-174.0
4107,-29,-178,0,4115.0,4129.0,-23.0,5.0,-179.0,-172.0
4104,-6,-196,0,4107.0,4115.0,-29.0,-23.0,-178.0,-179.0
4104,-3,-173,0,4104.0,4107.0,-6.0,-29.0,-196.0,-178.0
4102,-20,-138,0,4104.0,4104.0,-3.0,-6.0,-173.0,-196.0
4099,-39,-106,0,4102.0,4104.0,-20.0,-3.0,-138.0,-173.0
4094,-47,-92,0,4099.0,4102.0,-39.0,-20.0,-106.0,-138.0
4086,-28,-115,0,4094.0,4099.0,-47.0,-39.0,-92.0,-106.0
4081,-6,-145,0,4086.0,4094.0,-28.0,-47.0,-115.0,-92.0
4071,-2,-174,0,4081.0,4086.0,-6.0,-28.0,-145.0,-115.0
4057,-5,-187,0,4071.0,4081.0,-2.0,-6.0,-174.0,-145.0
4045,-15,-168,0,4057.0,4071.0,-5.0,-2.0,-187.0,-174.0
4040,-18,-152,0,4045.0,4057.0,-15.0,-5.0,-168.0,-187.0
4041,-12,-133,0,4040.0,4045.0,-18.0,-15.0,-152.0,-168.0
4051,-11,-127,0,4041.0,4040.0,-12.0,-18.0,-133.0,-152.0
4066,-12,-125,0,4051.0,4041.0,-11.0,-12.0,-127.0,-133.0
4083,-13,-119,0,4066.0,4051.0,-12.0,-11.0,-125.0,-127.0
4094,-15,-108,0,4083.0,4066.0,-13.0,-12.0,-119.0,-125.0
4103,-20,-99,0,4094.0,4083.0,-15.0,-13.0,-108.0,-119.0
4107,-17,-98,0,4103.0,4094.0,-20.0,-15.0,-99.0,-108.0
4109,-13,-98,0,4107.0,4103.0,-17.0,-20.0,-98.0,-99.0
4112,-9,-108,0,4109.0,4107.0,-13.0,-17.0,-98.0,-98.0
4108,-6,-118,0,4112.0,4109.0,-9.0,-13.0,-108.0,-98.0
4107,-5,-128,0,4108.0,4112.0,-6.0,-9.0,-118.0,-108.0
4108,-3,-132,0,4107.0,4108.0,-5.0,-6.0,-128.0,-118.0
4109,-5,-136,0,4108.0,4107.0,-3.0,-5.0,-132.0,-128.0
4110,-4,-135,0,4109.0,4108.0,-5.0,-3.0,-136.0,-132.0
4116,-3,-131,0,4110.0,4109.0,-4.0,-5.0,-135.0,-136.0
4115,0,-133,0,4116.0,4110.0,-3.0,-4.0,-131.0,-135.0
4110,3,-136,0,4115.0,4116.0,0.0,-3.0,-133.0,-131.0
4110,6,-136,0,4110.0,4115.0,3.0,0.0,-136.0,-133.0
4109,4,-136,0,4110.0,4110.0,6.0,3.0,-136.0,-136.0
4108,2,-143,0,4109.0,4110.0,4.0,6.0,-136.0,-136.0
4109,3,-144,0,4108.0,4109.0,2.0,4.0,-143.0,-136.0
4114,4,-147,0,4109.0,4108.0,3.0,2.0,-144.0,-143.0
4117,4,-147,0,4114.0,4109.0,4.0,3.0,-147.0,-144.0
4125,3,-144,0,4117.0,4114.0,4.0,4.0,-147.0,-147.0
4125,2,-143,0,4125.0,4117.0,3.0,4.0,-144.0,-147.0
4130,1,-144,0,4125.0,4125.0,2.0,3.0,-143.0,-144.0
4126,0,-144,0,4130.0,4125.0,1.0,2.0,-144.0,-143.0
4124,0,-145,0,4126.0,4130.0,0.0,1.0,-144.0,-144.0
4124,2,-144,0,4124.0,4126.0,0.0,0.0,-145.0,-144.0
4120,0,-145,0,4124.0,4124.0,2.0,0.0,-144.0,-145.0
4117,-2,-143,0,4120.0,4124.0,0.0,2.0,-145.0,-144.0
4111,-3,-138,0,4117.0,4120.0,-2.0,0.0,-143.0,-145.0
4108,-3,-134,0,4111.0,4117.0,-3.0,-2.0,-138.0,-143.0
4104,-3,-134,0,4108.0,4111.0,-3.0,-3.0,-134.0,-138.0
4103,-4,-132,0,4104.0,4108.0,-3.0,-3.0,-134.0,-134.0
4102,-8,-135,0,4103.0,4104.0,-4.0,-3.0,-132.0,-134.0
4101,-13,-139,0,4102.0,4103.0,-8.0,-4.0,-135.0,-132.0
4101,-15,-143,0,4101.0,4102.0,-13.0,-8.0,-139.0,-135.0
4099,-17,-143,0,4101.0,4101.0,-15.0,-13.0,-143.0,-139.0
4097,-20,-144,0,4099.0,4101.0,-17.0,-15.0,-143.0,-143.0
4096,-25,-143,0,4097.0,4099.0,-20.0,-17.0,-144.0,-143.0
4087,-27,-138,0,4096.0,4097.0,-25.0,-20.0,-143.0,-144.0
4081,-21,-132,0,4087.0,4096.0,-27.0,-25.0,-138.0,-143.0
4080,-18,-130,0,4081.0,4087.0,-21.0,-27.0,-132.0,-138.0
4078,-16,-123,0,4080.0,4081.0,-18.0,-21.0,-130.0,-132.0
4079,-18,-125,0,4078.0,4080.0,-16.0,-18.0,-123.0,-130.0
4081,-18,-118,0,4079.0,4078.0,-18.0,-16.0,-125.0,-123.0
4087,-17,-119,0,4081.0,4079.0,-18.0,-18.0,-118.0,-125.0
4086,-15,-116,0,4087.0,4081.0,-17.0,-18.0,-119.0,-118.0
4083,-13,-114,0,4086.0,4087.0,-15.0,-17.0,-116.0,-119.0
4082,-13,-111,0,4083.0,4086.0,-13.0,-15.0,-114.0,-116.0
4081,-13,-109,0,4082.0,4083.0,-13.0,-13.0,-111.0,-114.0
4077,-9,-111,0,4081.0,4082.0,-13.0,-13.0,-109.0,-111.0
4079,-11,-106,0,4077.0,4081.0,-9.0,-13.0,-111.0,-109.0
4080,-12,-106,0,4079.0,4077.0,-11.0,-9.0,-106.0,-111.0
4081,-15,-107,0,4080.0,4079.0,-12.0,-11.0,-106.0,-106.0
4083,-15,-110,0,4081.0,4080.0,-15.0,-12.0,-107.0,-106.0
4088,-16,-110,0,4083.0,4081.0,-15.0,-15.0,-110.0,-107.0
4093,-17,-117,0,4088.0,4083.0,-16.0,-15.0,-110.0,-110.0
4093,-16,-120,0,4093.0,4088.0,-17.0,-16.0,-117.0,-110.0
4097,-15,-125,0,4093.0,4093.0,-16.0,-17.0,-120.0,-117.0
4098,-16,-126,0,4097.0,4093.0,-15.0,-16.0,-125.0,-120.0
4099,-12,-128,0,4098.0,4097.0,-16.0,-15.0,-126.0,-125.0
4100,-12,-130,0,4099.0,4098.0,-12.0,-16.0,-128.0,-126.0
4100,-12,-130,0,4100.0,4099.0,-12.0,-12.0,-130.0,-128.0
4101,-11,-132,0,4100.0,4100.0,-12.0,-12.0,-130.0,-130.0
4101,-12,-128,0,4101.0,4100.0,-11.0,-12.0,-132.0,-130.0
4101,-8,-127,0,4101.0,4101.0,-12.0,-11.0,-128.0,-132.0
4100,-7,-128,0,4101.0,4101.0,-8.0,-12.0,-127.0,-128.0
4101,-8,-126,0,4100.0,4101.0,-7.0,-8.0,-128.0,-127.0
4103,-6,-125,0,4101.0,4100.0,-8.0,-7.0,-126.0,-128.0
4103,-5,-126,0,4103.0,4101.0,-6.0,-8.0,-125.0,-126.0
4106,-5,-130,0,4103.0,4103.0,-5.0,-6.0,-126.0,-125.0
4110,-4,-130,0,4106.0,4103.0,-5.0,-5.0,-130.0,-126.0
4110,-4,-129,0,4110.0,4106.0,-4.0,-5.0,-130.0,-130.0
4112,-3,-130,0,4110.0,4110.0,-4.0,-4.0,-129.0,-130.0
4114,-2,-130,0,4112.0,4110.0,-3.0,-4.0,-130.0,-129.0
4114,1,-125,0,4114.0,4112.0,-2.0,-3.0,-130.0,-130.0
4116,3,-119,0,4114.0,4114.0,1.0,-2.0,-125.0,-130.0
4121,4,-117,0,4116.0,4114.0,3.0,1.0,-119.0,-125.0
4123,7,-109,0,4121.0,4116.0,4.0,3.0,-117.0,-119.0
4118,5,-107,0,4123.0,4121.0,7.0,4.0,-109.0,-117.0
4116,2,-106,0,4118.0,4123.0,5.0,7.0,-107.0,-109.0
4113,0,-111,0,4116.0,4118.0,2.0,5.0,-106.0,-107.0
4110,-1,-114,0,4113.0,4116.0,0.0,2.0,-111.0,-106.0
4106,-2,-120,0,4110.0,4113.0,-1.0,0.0,-114.0,-111.0
4102,-3,-129,0,4106.0,4110.0,-2.0,-1.0,-120.0,-114.0
4090,-5,-139,0,4102.0,4106.0,-3.0,-2.0,-129.0,-120.0
4086,-4,-149,0,4090.0,4102.0,-5.0,-3.0,-139.0,-129.0
4082,-8,-148,0,4086.0,4090.0,-4.0,-5.0,-149.0,-139.0
4080,-8,-142,0,4082.0,4086.0,-8.0,-4.0,-148.0,-149.0
4082,-6,-125,0,4080.0,4082.0,-8.0,-8.0,-142.0,-148.0
4086,-6,-102,0,4082.0,4080.0,-6.0,-8.0,-125.0,-142.0
4093,-4,-76,0,4086.0,4082.0,-6.0,-6.0,-102.0,-125.0
4098,0,-71,0,4093.0,4086.0,-4.0,-6.0,-76.0,-102.0
4100,9,-82,0,4098.0,4093.0,0.0,-4.0,-71.0,-76.0
4097,14,-97,0,4100.0,4098.0,9.0,0.0,-82.0,-71.0
4084,7,-118,0,4097.0,4100.0,14.0,9.0,-97.0,-82.0
4076,6,-127,0,4084.0,4097.0,7.0,14.0,-118.0,-97.0
4073,5,-125,0,4076.0,4084.0,6.0,7.0,-127.0,-118.0
4079,6,-115,0,4073.0,4076.0,5.0,6.0,-125.0,-127.0
4087,4,-108,0,4079.0,4073.0,6.0,5.0,-115.0,-125.0
4094,1,-99,0,4087.0,4079.0,4.0,6.0,-108.0,-115.0
4101,0,-91,0,4094.0,4087.0,1.0,4.0,-99.0,-108.0
4111,2,-83,0,4101.0,4094.0,0.0,1.0,-91.0,-99.0
4120,3,-80,0,4111.0,4101.0,2.0,0.0,-83.0,-91.0
4118,3,-78,0,4120.0,4111.0,3.0,2.0,-80.0,-83.0
4114,2,-82,0,4118.0,4120.0,3.0,3.0,-78.0,-80.0
4111,6,-90,0,4114.0,4118.0,2.0,3.0,-82.0,-78.0
4107,7,-98,0,4111.0,4114.0,6.0,2.0,-90.0,-82.0
4104,9,-106,0,4107.0,4111.0,7.0,6.0,-98.0,-90.0
4102,6,-114,0,4104.0,4107.0,9.0,7.0,-106.0,-98.0
4101,7,-115,0,4102.0,4104.0,6.0,9.0,-114.0,-106.0
4101,9,-115,0,4101.0,4102.0,7.0,6.0,-115.0,-114.0
4102,5,-116,0,4101.0,4101.0,9.0,7.0,-115.0,-115.0
4101,3,-108,0,4102.0,4101.0,5.0,9.0,-116.0,-115.0
4101,6,-106,0,4101.0,4102.0,3.0,5.0,-108.0,-116.0
4102,10,-109,0,4101.0,4101.0,6.0,3.0,-106.0,-108.0
4101,14,-107,0,4102.0,4101.0,10.0,6.0,-109.0,-106.0
4101,12,-111,0,4101.0,4102.0,14.0,10.0,-107.0,-109.0
4101,6,-116,0,4101.0,4101.0,12.0,14.0,-111.0,-107.0
4098,5,-119,0,4101.0,4101.0,6.0,12.0,-116.0,-111.0
4099,5,-123,0,4098.0,4101.0,5.0,6.0,-119.0,-116.0
4100,9,-132,0,4099.0,4098.0,5.0,5.0,-123.0,-119.0
4101,8,-134,0,4100.0,4099.0,9.0,5.0,-132.0,-123.0
4102,4,-136,0,4101.0,4100.0,8.0,9.0,-134.0,-132.0
4103,1,-133,0,4102.0,4101.0,4.0,8.0,-136.0,-134.0
4103,1,-132,0,4103.0,4102.0,1.0,4.0,-133.0,-136.0
4102,3,-132,0,4103.0,4103.0,1.0,1.0,-132.0,-133.0
4101,2,-129,0,4102.0,4103.0,3.0,1.0,-132.0,-132.0
4101,4,-130,0,4101.0,4102.0,2.0,3.0,-129.0,-132.0
4097,2,-128,0,4101.0,4101.0,4.0,2.0,-130.0,-129.0
4098,1,-128,0,4097.0,4101.0,2.0,4.0,-128.0,-130.0
4097,3,-125,0,4098.0,4097.0,1.0,2.0,-128.0,-128.0
4097,2,-127,0,4097.0,4098.0,3.0,1.0,-125.0,-128.0
4098,0,-121,0,4097.0,4097.0,2.0,3.0,-127.0,-125.0
4095,1,-118,0,4098.0,4097.0,0.0,2.0,-121.0,-127.0
4093,0,-121,0,4095.0,4098.0,1.0,0.0,-118.0,-121.0
4088,-1,-123,0,4093.0,4095.0,0.0,1.0,-121.0,-118.0
4084,-2,-121,0,4088.0,4093.0,-1.0,0.0,-123.0,-121.0
4078,-3,-118,0,4084.0,4088.0,-2.0,-1.0,-121.0,-123.0
4077,1,-124,0,4078.0,4084.0,-3.0,-2.0,-118.0,-121.0
4073,2,-125,0,4077.0,4078.0,1.0,-3.0,-124.0,-118.0
4078,2,-124,0,4073.0,4077.0,2.0,1.0,-125.0,-124.0
4080,0,-127,0,4078.0,4073.0,2.0,2.0,-124.0,-125.0
4083,-6,-127,0,4080.0,4078.0,0.0,2.0,-127.0,-124.0
4091,-12,-126,0,4083.0,4080.0,-6.0,0.0,-127.0,-127.0
4096,-15,-121,0,4091.0,4083.0,-12.0,-6.0,-126.0,-127.0
4096,-18,-123,0,4096.0,4091.0,-15.0,-12.0,-121.0,-126.0
4098,-13,-124,0,4096.0,4096.0,-18.0,-15.0,-123.0,-121.0
4099,-11,-125,0,4098.0,4096.0,-13.0,-18.0,-124.0,-123.0
4100,-7,-127,0,4099.0,4098.0,-11.0,-13.0,-125.0,-124.0
4103,-7,-133,0,4100.0,4099.0,-7.0,-11.0,-127.0,-125.0
4105,-10,-134,0,4103.0,4100.0,-7.0,-7.0,-133.0,-127.0
4111,-9,-130,0,4105.0,4103.0,-10.0,-7.0,-134.0,-133.0
4115,-6,-128,0,4111.0,4105.0,-9.0,-10.0,-130.0,-134.0
4115,-7,-125,0,4115.0,4111.0,-6.0,-9.0,-128.0,-130.0
4115,-5,-126,0,4115.0,4115.0,-7.0,-6.0,-125.0,-128.0
4112,-4,-128,0,4115.0,4115.0,-5.0,-7.0,-126.0,-125.0
4107,-4,-131,0,4112.0,4115.0,-4.0,-5.0,-128.0,-126.0
4104,-1,-135,0,4107.0,4112.0,-4.0,-4.0,-131.0,-128.0
4102,-1,-136,0,4104.0,4107.0,-1.0,-4.0,-135.0,-131.0
4101,-2,-134,0,4102.0,4104.0,-1.0,-1.0,-136.0,-135.0
4101,-3,-137,0,4101.0,4102.0,-2.0,-1.0,-134.0,-136.0
4101,-4,-136,0,4101.0,4101.0,-3.0,-2.0,-137.0,-134.0
4100,-3,-138,0,4101.0,4101.0,-4.0,-3.0,-136.0,-137.0
4101,-3,-137,0,4100.0,4101.0,-3.0,-4.0,-138.0,-136.0
4100,-3,-137,0,4101.0,4100.0,-3.0,-3.0,-137.0,-138.0
4100,-7,-133,0,4100.0,4101.0,-3.0,-3.0,-137.0,-137.0
4100,-8,-129,0,4100.0,4100.0,-7.0,-3.0,-133.0,-137.0
4097,-11,-130,0,4100.0,4100.0,-8.0,-7.0,-129.0,-133.0
4099,-14,-131,0,4097.0,4100.0,-11.0,-8.0,-130.0,-129.0
4099,-11,-132,0,4099.0,4097.0,-14.0,-11.0,-131.0,-130.0
4098,-10,-133,0,4099.0,4099.0,-11.0,-14.0,-132.0,-131.0
4099,-10,-127,0,4098.0,4099.0,-10.0,-11.0,-133.0,-132.0
4100,-12,-124,0,4099.0,4098.0,-10.0,-10.0,-127.0,-133.0
4100,-11,-119,0,4100.0,4099.0,-12.0,-10.0,-124.0,-127.0
4101,-13,-117,0,4100.0,4100.0,-11.0,-12.0,-119.0,-124.0
4105,-13,-114,0,4101.0,4100.0,-13.0,-11.0,-117.0,-119.0
4104,-12,-112,0,4105.0,4101.0,-13.0,-13.0,-114.0,-117.0
4107,-11,-112,0,4104.0,4105.0,-12.0,-13.0,-112.0,-114.0
4105,-12,-115,0,4107.0,4104.0,-11.0,-12.0,-112.0,-112.0
4104,-11,-119,0,4105.0,4107.0,-12.0,-11.0,-115.0,-112.0
4103,-19,-121,0,4104.0,4105.0,-11.0,-12.0,-119.0,-115.0
4104,-27,-129,0,4103.0,4104.0,-19.0,-11.0,-121.0,-119.0
4104,-26,-125,0,4104.0,4103.0,-27.0,-19.0,-129.0,-121.0
4103,-24,-128,0,4104.0,4104.0,-26.0,-27.0,-125.0,-129.0
4101,-21,-140,0,4103.0,4104.0,-24.0,-26.0,-128.0,-125.0
4099,-22,-154,0,4101.0,4103.0,-21.0,-24.0,-140.0,-128.0
4095,-26,-157,0,4099.0,4101.0,-22.0,-21.0,-154.0,-140.0
4094,-26,-149,0,4095.0,4099.0,-26.0,-22.0,-157.0,-154.0
4096,-29,-131,0,4094.0,4095.0,-26.0,-26.0,-149.0,-157.0
4099,-26,-109,0,4096.0,4094.0,-29.0,-26.0,-131.0,-149.0
4104,-20,-93,0,4099.0,4096.0,-26.0,-29.0,-109.0,-131.0
4104,-15,-92,0,4104.0,4099.0,-20.0,-26.0,-93.0,-109.0
4101,-12,-101,0,4104.0,4104.0,-15.0,-20.0,-92.0,-93.0
4097,-13,-117,0,4101.0,4104.0,-12.0,-15.0,-101.0,-92.0
4085,-16,-131,0,4097.0,4101.0,-13.0,-12.0,-117.0,-101.0
4080,-13,-134,0,4085.0,4097.0,-16.0,-13.0,-131.0,-117.0
4077,-9,-131,0,4080.0,4085.0,-13.0,-16.0,-134.0,-131.0
4080,-5,-122,0,4077.0,4080.0,-9.0,-13.0,-131.0,-134.0
4089,-7,-114,0,4080.0,4077.0,-5.0,-9.0,-122.0,-131.0
4095,-8,-107,0,4089.0,4080.0,-7.0,-5.0,-114.0,-122.0
4103,-8,-100,0,4095.0,4089.0,-8.0,-7.0,-107.0,-114.0
4111,-8,-95,0,4103.0,4095.0,-8.0,-8.0,-100.0,-107.0
4121,-9,-94,0,4111.0,4103.0,-8.0,-8.0,-95.0,-100.0
4123,-10,-85,0,4121.0,4111.0,-9.0,-8.0,-94.0,-95.0
4115,-10,-84,0,4123.0,4121.0,-10.0,-9.0,-85.0,-94.0
4109,-11,-87,0,4115.0,4123.0,-10.0,-10.0,-84.0,-85.0
4105,-6,-90,0,4109.0,4115.0,-11.0,-10.0,-87.0,-84.0
4102,-5,-97,0,4105.0,4109.0,-6.0,-11.0,-90.0,-87.0
4100,-7,-101,0,4102.0,4105.0,-5.0,-6.0,-97.0,-90.0
4097,-6,-103,0,4100.0,4102.0,-7.0,-5.0,-101.0,-97.0
4094,-9,-100,0,4097.0,4100.0,-6.0,-7.0,-103.0,-101.0
4089,-9,-98,0,4094.0,4097.0,-9.0,-6.0,-100.0,-103.0
4086,-14,-95,0,4089.0,4094.0,-9.0,-9.0,-98.0,-100.0
4084,-16,-94,0,4086.0,4089.0,-14.0,-9.0,-95.0,-98.0
4073,-15,-94,0,4084.0,4086.0,-16.0,-14.0,-94.0,-95.0
4059,-19,-133,0,4073.0,4084.0,-15.0,-16.0,-94.0,-94.0
4069,-31,-107,0,4059.0,4073.0,-19.0,-15.0,-133.0,-94.0
4075,-6,-91,0,4069.0,4059.0,-31.0,-19.0,-107.0,-133.0
4080,-1,-101,0,4075.0,4069.0,-6.0,-31.0,-91.0,-107.0
4082,-6,-112,0,4080.0,4075.0,-1.0,-6.0,-101.0,-91.0
4085,-5,-115,0,4082.0,4080.0,-6.0,-1.0,-112.0,-101.0
4086,-4,-114,0,4085.0,4082.0,-5.0,-6.0,-115.0,-112.0
4089,-6,-116,0,4086.0,4085.0,-4.0,-5.0,-114.0,-115.0
4095,-6,-113,0,4089.0,4086.0,-6.0,-4.0,-116.0,-114.0
4098,-3,-100,0,4095.0,4089.0,-6.0,-6.0,-113.0,-116.0
4101,-1,-100,0,4098.0,4095.0,-3.0,-6.0,-100.0,-113.0
4101,-1,-105,0,4101.0,4098.0,-1.0,-3.0,-100.0,-100.0
4101,-3,-104,0,4101.0,4101.0,-1.0,-1.0,-105.0,-100.0
4101,5,-105,0,4101.0,4101.0,-3.0,-1.0,-104.0,-105.0
4102,7,-107,0,4101.0,4101.0,5.0,-3.0,-105.0,-104.0
4102,5,-107,0,4102.0,4101.0,7.0,5.0,-107.0,-105.0
4105,4,-105,0,4102.0,4102.0,5.0,7.0,-107.0,-107.0
4106,5,-106,0,4105.0,4102.0,4.0,5.0,-105.0,-107.0
4104,8,-103,0,4106.0,4105.0,5.0,4.0,-106.0,-105.0
4104,3,-112,0,4104.0,4106.0,8.0,5.0,-103.0,-106.0
4102,4,-112,0,4104.0,4104.0,3.0,8.0,-112.0,-103.0
4101,2,-111,0,4102.0,4104.0,4.0,3.0,-112.0,-112.0
4100,-3,-108,0,4101.0,4102.0,2.0,4.0,-111.0,-112.0
4101,-5,-107,0,4100.0,4101.0,-3.0,2.0,-108.0,-111.0
4101,-5,-106,0,4101.0,4100.0,-5.0,-3.0,-107.0,-108.0
4104,-4,-104,0,4101.0,4101.0,-5.0,-5.0,-106.0,-107.0
4102,-5,-103,0,4104.0,4101.0,-4.0,-5.0,-104.0,-106.0
4104,-3,-105,0,4102.0,4104.0,-5.0,-4.0,-103.0,-104.0
4104,-1,-104,0,4104.0,4102.0,-3.0,-5.0,-105.0,-103.0
4104,-1,-105,0,4104.0,4104.0,-1.0,-3.0,-104.0,-105.0
4102,2,-106,0,4104.0,4104.0,-1.0,-1.0,-105.0,-104.0
4103,4,-106,0,4102.0,4104.0,2.0,-1.0,-106.0,-105.0
4102,2,-101,0,4103.0,4102.0,4.0,2.0,-106.0,-106.0
4098,13,-95,0,4102.0,4103.0,2.0,4.0,-101.0,-106.0
4100,5,-98,0,4098.0,4102.0,13.0,2.0,-95.0,-101.0
4103,14,-80,0,4100.0,4098.0,5.0,13.0,-98.0,-95.0
4102,22,-85,0,4103.0,4100.0,14.0,5.0,-80.0,-98.0
4101,20,-96,0,4102.0,4103.0,22.0,14.0,-85.0,-80.0
4101,19,-104,0,4101.0,4102.0,20.0,22.0,-96.0,-85.0
4100,11,-103,0,4101.0,4101.0,19.0,20.0,-104.0,-96.0
4100,3,-99,0,4100.0,4101.0,11.0,19.0,-103.0,-104.0
4100,2,-96,0,4100.0,4100.0,3.0,11.0,-99.0,-103.0
4101,9,-96,0,4100.0,4100.0,2.0,3.0,-96.0,-99.0
4100,8,-99,0,4101.0,4100.0,9.0,2.0,-96.0,-96.0
4099,4,-103,0,4100.0,4101.0,8.0,9.0,-99.0,-96.0
4100,-1,-109,0,4099.0,4100.0,4.0,8.0,-103.0,-99.0
4099,-2,-107,0,4100.0,4099.0,-1.0,4.0,-109.0,-103.0
4097,-2,-109,0,4099.0,4100.0,-2.0,-1.0,-107.0,-109.0
4095,2,-106,0,4097.0,4099.0,-2.0,-2.0,-109.0,-107.0
4097,4,-111,0,4095.0,4097.0,2.0,-2.0,-106.0,-109.0
4098,9,-114,0,4097.0,4095.0,4.0,2.0,-111.0,-106.0
4099,6,-117,0,4098.0,4097.0,9.0,4.0,-114.0,-111.0
4099,4,-120,0,4099.0,4098.0,6.0,9.0,-117.0,-114.0
4100,7,-121,0,4099.0,4099.0,4.0,6.0,-120.0,-117.0
4103,11,-118,0,4100.0,4099.0,7.0,4.0,-121.0,-120.0
4102,7,-121,0,4103.0,4100.0,11.0,7.0,-118.0,-121.0
4101,5,-116,0,4102.0,4103.0,7.0,11.0,-121.0,-118.0
4101,7,-110,0,4101.0,4102.0,5.0,7.0,-116.0,-121.0
4099,11,-107,0,4101.0,4101.0,7.0,5.0,-110.0,-116.0
4099,15,-109,0,4099.0,4101.0,11.0,7.0,-107.0,-110.0
4093,20,-110,0,4099.0,4099.0,15.0,11.0,-109.0,-107.0
4093,21,-114,0,4093.0,4099.0,20.0,15.0,-110.0,-109.0
4093,16,-116,0,4093.0,4093.0,21.0,20.0,-114.0,-110.0
4093,13,-119,0,4093.0,4093.0,16.0,21.0,-116.0,-114.0
4095,7,-116,0,4093.0,4093.0,13.0,16.0,-119.0,-116.0
4094,3,-116,0,4095.0,4093.0,7.0,13.0,-116.0,-119.0
4094,1,-123,0,4094.0,4095.0,3.0,7.0,-116.0,-116.0
4095,-1,-129,0,4094.0,4094.0,1.0,3.0,-123.0,-116.0
4092,-4,-141,0,4095.0,4094.0,-1.0,1.0,-129.0,-123.0
4089,-4,-140,0,4092.0,4095.0,-4.0,-1.0,-141.0,-129.0
4084,-3,-141,0,4089.0,4092.0,-4.0,-4.0,-140.0,-141.0
4083,-3,-130,0,4084.0,4089.0,-3.0,-4.0,-141.0,-140.0
4078,-6,-117,0,4083.0,4084.0,-3.0,-3.0,-130.0,-141.0
4077,-10,-99,0,4078.0,4083.0,-6.0,-3.0,-117.0,-130.0
4087,-9,-97,0,4077.0,4078.0,-10.0,-6.0,-99.0,-117.0
4091,-6,-103,0,4087.0,4077.0,-9.0,-10.0,-97.0,-99.0
4088,-3,-118,0,4091.0,4087.0,-6.0,-9.0,-103.0,-97.0
4076,-5,-140,0,4088.0,4091.0,-3.0,-6.0,-118.0,-103.0
4071,-8,-158,0,4076.0,4088.0,-5.0,-3.0,-140.0,-118.0
4064,-9,-153,0,4071.0,4076.0,-8.0,-5.0,-158.0,-140.0
4062,-14,-140,0,4064.0,4071.0,-9.0,-8.0,-153.0,-158.0
4066,-17,-129,0,4062.0,4064.0,-14.0,-9.0,-140.0,-153.0
4079,-19,-126,0,4066.0,4062.0,-17.0,-14.0,-129.0,-140.0
4089,-16,-128,0,4079.0,4066.0,-19.0,-17.0,-126.0,-129.0
4095,-15,-130,0,4089.0,4079.0,-16.0,-19.0,-128.0,-126.0
4102,-15,-133,0,4095.0,4089.0,-15.0,-16.0,-130.0,-128.0
4104,-16,-136,0,4102.0,4095.0,-15.0,-15.0,-133.0,-130.0
4106,-16,-137,0,4104.0,4102.0,-16.0,-15.0,-136.0,-133.0
4107,-14,-138,0,4106.0,4104.0,-16.0,-16.0,-137.0,-136.0
4104,-15,-141,0,4107.0,4106.0,-14.0,-16.0,-138.0,-137.0
4106,-18,-144,0,4104.0,4107.0,-15.0,-14.0,-141.0,-138.0
4104,-21,-147,0,4106.0,4104.0,-18.0,-15.0,-144.0,-141.0
4104,-20,-149,0,4104.0,4106.0,-21.0,-18.0,-147.0,-144.0
4107,-13,-151,0,4104.0,4104.0,-20.0,-21.0,-149.0,-147.0
4111,-12,-148,0,4107.0,4104.0,-13.0,-20.0,-151.0,-149.0
4113,-10,-145,0,4111.0,4107.0,-12.0,-13.0,-148.0,-151.0
4113,-5,-145,0,4113.0,4111.0,-10.0,-12.0,-145.0,-148.0
4118,-4,-145,0,4113.0,4113.0,-5.0,-10.0,-145.0,-145.0
4119,-2,-142,0,4118.0,4113.0,-4.0,-5.0,-145.0,-145.0
4114,-1,-141,0,4119.0,4118.0,-2.0,-4.0,-142.0,-145.0
4111,3,-143,0,4114.0,4119.0,-1.0,-2.0,-141.0,-142.0
4113,4,-144,0,4111.0,4114.0,3.0,-1.0,-143.0,-141.0
4113,8,-147,0,4113.0,4111.0,4.0,3.0,-144.0,-143.0
4113,8,-147,0,4113.0,4113.0,8.0,4.0,-147.0,-144.0
4114,10,-146,0,4113.0,4113.0,8.0,8.0,-147.0,-147.0
4116,8,-146,0,4114.0,4113.0,10.0,8.0,-146.0,-147.0
4117,16,-147,0,4116.0,4114.0,8.0,10.0,-146.0,-146.0
4113,17,-147,0,4117.0,4116.0,16.0,8.0,-147.0,-146.0
4110,17,-150,0,4113.0,4117.0,17.0,16.0,-147.0,-147.0
4108,14,-143,0,4110.0,4113.0,17.0,17.0,-150.0,-147.0
4105,15,-147,0,4108.0,4110.0,14.0,17.0,-143.0,-150.0
4104,12,-148,0,4105.0,4108.0,15.0,14.0,-147.0,-143.0
4102,11,-148,0,4104.0,4105.0,12.0,15.0,-148.0,-147.0
4103,8,-149,0,4102.0,4104.0,11.0,12.0,-148.0,-148.0
4102,5,-154,0,4103.0,4102.0,8.0,11.0,-149.0,-148.0
4101,2,-154,0,4102.0,4103.0,5.0,8.0,-154.0,-149.0
4101,1,-158,0,4101.0,4102.0,2.0,5.0,-154.0,-154.0
4101,-1,-157,0,4101.0,4101.0,1.0,2.0,-158.0,-154.0
4100,-3,-158,0,4101.0,4101.0,-1.0,1.0,-157.0,-158.0
4100,-4,-155,0,4100.0,4101.0,-3.0,-1.0,-158.0,-157.0
4100,-3,-152,0,4100.0,4100.0,-4.0,-3.0,-155.0,-158.0
4100,-3,-147,0,4100.0,4100.0,-3.0,-4.0,-152.0,-155.0
4096,-4,-150,0,4100.0,4100.0,-3.0,-3.0,-147.0,-152.0
4098,-5,-151,0,4096.0,4100.0,-4.0,-3.0,-150.0,-147.0
4099,-6,-148,0,4098.0,4096.0,-5.0,-4.0,-151.0,-150.0
4099,-6,-147,0,4099.0,4098.0,-6.0,-5.0,-148.0,-151.0
4100,-10,-145,0,4099.0,4099.0,-6.0,-6.0,-147.0,-148.0
4100,-12,-145,0,4100.0,4099.0,-10.0,-6.0,-145.0,-147.0
4100,-11,-145,0,4100.0,4100.0,-12.0,-10.0,-145.0,-145.0
4101,-11,-141,0,4100.0,4100.0,-11.0,-12.0,-145.0,-145.0
4101,-9,-140,0,4101.0,4100.0,-11.0,-11.0,-141.0,-145.0
4101,-11,-137,0,4101.0,4101.0,-9.0,-11.0,-140.0,-141.0
4100,-11,-140,0,4101.0,4101.0,-11.0,-9.0,-137.0,-140.0
4100,-9,-140,0,4100.0,4101.0,-11.0,-11.0,-140.0,-137.0
4099,-7,-138,0,4100.0,4100.0,-9.0,-11.0,-140.0,-140.0
4100,-8,-133,0,4099.0,4100.0,-7.0,-9.0,-138.0,-140.0
4100,-6,-134,0,4100.0,4099.0,-8.0,-7.0,-133.0,-138.0
4100,-7,-136,0,4100.0,4100.0,-6.0,-8.0,-134.0,-133.0
4100,-7,-139,0,4100.0,4100.0,-7.0,-6.0,-136.0,-134.0
4101,-5,-139,0,4100.0,4100.0,-7.0,-7.0,-139.0,-136.0
4101,-6,-140,0,4101.0,4100.0,-5.0,-7.0,-139.0,-139.0
4102,-5,-138,0,4101.0,4101.0,-6.0,-5.0,-140.0,-139.0
4102,-4,-140,0,4102.0,4101.0,-5.0,-6.0,-138.0,-140.0
4101,-5,-141,0,4102.0,4102.0,-4.0,-5.0,-140.0,-138.0
4100,-5,-143,0,4101.0,4102.0,-5.0,-4.0,-141.0,-140.0
4100,-3,-145,0,4100.0,4101.0,-5.0,-5.0,-143.0,-141.0
4100,0,-146,0,4100.0,4100.0,-3.0,-5.0,-145.0,-143.0
4100,0,-143,0,4100.0,4100.0,0.0,-3.0,-146.0,-145.0
4099,-1,-142,0,4100.0,4100.0,0.0,0.0,-143.0,-146.0
4095,-1,-143,0,4099.0,4100.0,-1.0,0.0,-142.0,-143.0
4096,2,-141,0,4095.0,4099.0,-1.0,-1.0,-143.0,-142.0
4097,3,-141,0,4096.0,4095.0,2.0,-1.0,-141.0,-143.0
4097,7,-140,0,4097.0,4096.0,3.0,2.0,-141.0,-141.0
4099,8,-139,0,4097.0,4097.0,7.0,3.0,-140.0,-141.0
4099,10,-142,0,4099.0,4097.0,8.0,7.0,-139.0,-140.0
4100,11,-142,0,4099.0,4099.0,10.0,8.0,-142.0,-139.0
4100,11,-140,0,4100.0,4099.0,11.0,10.0,-142.0,-142.0
4100,10,-138,0,4100.0,4100.0,11.0,11.0,-140.0,-142.0
4099,7,-136,0,4100.0,4100.0,10.0,11.0,-138.0,-140.0
4100,5,-137,0,4099.0,4100.0,7.0,10.0,-136.0,-138.0
4101,6,-143,0,4100.0,4099.0,5.0,7.0,-137.0,-136.0
4102,5,-146,0,4101.0,4100.0,6.0,5.0,-143.0,-137.0
4101,1,-148,0,4102.0,4101.0,5.0,6.0,-146.0,-143.0
4102,2,-150,0,4101.0,4102.0,1.0,5.0,-148.0,-146.0
4102,1,-147,0,4102.0,4101.0,2.0,1.0,-150.0,-148.0
4103,-1,-147,0,4102.0,4102.0,1.0,2.0,-147.0,-150.0
4103,-2,-152,0,4103.0,4102.0,-1.0,1.0,-147.0,-147.0
4102,-1,-152,0,4103.0,4103.0,-2.0,-1.0,-152.0,-147.0
4102,-3,-149,0,4102.0,4103.0,-1.0,-2.0,-152.0,-152.0
4101,-2,-139,0,4102.0,4102.0,-3.0,-1.0,-149.0,-152.0
4100,-3,-129,0,4101.0,4102.0,-2.0,-3.0,-139.0,-149.0
4100,-4,-117,0,4100.0,4101.0,-3.0,-2.0,-129.0,-139.0
4100,-1,-116,0,4100.0,4100.0,-4.0,-3.0,-117.0,-129.0
4100,5,-129,0,4100.0,4100.0,-1.0,-4.0,-116.0,-117.0
4095,4,-141,0,4100.0,4100.0,5.0,-1.0,-129.0,-116.0
4084,0,-160,0,4095.0,4100.0,4.0,5.0,-141.0,-129.0
4073,0,-167,0,4084.0,4095.0,0.0,4.0,-160.0,-141.0
4071,-1,-159,0,4073.0,4084.0,0.0,0.0,-167.0,-160.0
4075,0,-144,0,4071.0,4073.0,-1.0,0.0,-159.0,-167.0
4087,-2,-131,0,4075.0,4071.0,0.0,-1.0,-144.0,-159.0
4094,-6,-122,0,4087.0,4075.0,-2.0,0.0,-131.0,-144.0
4101,-7,-111,0,4094.0,4087.0,-6.0,-2.0,-122.0,-131.0
4109,-5,-107,0,4101.0,4094.0,-7.0,-6.0,-111.0,-122.0
4112,-4,-106,0,4109.0,4101.0,-5.0,-7.0,-107.0,-111.0
4109,-5,-110,0,4112.0,4109.0,-4.0,-5.0,-106.0,-107.0
4105,-5,-111,0,4109.0,4112.0,-5.0,-4.0,-110.0,-106.0
4103,-5,-119,0,4105.0,4109.0,-5.0,-5.0,-111.0,-110.0
4097,-3,-121,0,4103.0,4105.0,-5.0,-5.0,-119.0,-111.0
4098,-1,-123,0,4097.0,4103.0,-3.0,-5.0,-121.0,-119.0
4099,0,-129,0,4098.0,4097.0,-1.0,-3.0,-123.0,-121.0
4099,0,-131,0,4099.0,4098.0,0.0,-1.0,-129.0,-123.0
4100,-1,-130,0,4099.0,4099.0,0.0,0.0,-131.0,-129.0
4100,-1,-128,0,4100.0,4099.0,-1.0,0.0,-130.0,-131.0
4100,-1,-126,0,4100.0,4100.0,-1.0,-1.0,-128.0,-130.0
4100,0,-126,0,4100.0,4100.0,-1.0,-1.0,-126.0,-128.0
4099,0,-121,0,4100.0,4100.0,0.0,-1.0,-126.0,-126.0
4097,5,-117,0,4099.0,4100.0,0.0,0.0,-121.0,-126.0
4095,8,-114,0,4097.0,4099.0,5.0,0.0,-117.0,-121.0
4097,6,-113,0,4095.0,4097.0,8.0,5.0,-114.0,-117.0
4096,3,-116,0,4097.0,4095.0,6.0,8.0,-113.0,-114.0
4098,7,-119,0,4096.0,4097.0,3.0,6.0,-116.0,-113.0
4099,15,-123,0,4098.0,4096.0,7.0,3.0,-119.0,-116.0
4100,18,-126,0,4099.0,4098.0,15.0,7.0,-123.0,-119.0
4102,17,-127,0,4100.0,4099.0,18.0,15.0,-126.0,-123.0
4102,16,-126,0,4102.0,4100.0,17.0,18.0,-127.0,-126.0
4103,12,-120,0,4102.0,4102.0,16.0,17.0,-126.0,-127.0
4103,14,-121,0,4103.0,4102.0,12.0,16.0,-120.0,-126.0
4103,15,-120,0,4103.0,4103.0,14.0,12.0,-121.0,-120.0
4102,18,-123,0,4103.0,4103.0,15.0,14.0,-120.0,-121.0
4102,17,-123,0,4102.0,4103.0,18.0,15.0,-123.0,-120.0
4101,16,-125,0,4102.0,4102.0,17.0,18.0,-123.0,-123.0
4100,13,-131,0,4101.0,4102.0,16.0,17.0,-125.0,-123.0
4101,14,-132,0,4100.0,4101.0,13.0,16.0,-131.0,-125.0
4101,10,-132,0,4101.0,4100.0,14.0,13.0,-132.0,-131.0
4100,10,-135,0,4101.0,4101.0,10.0,14.0,-132.0,-132.0
4100,9,-138,0,4100.0,4101.0,10.0,10.0,-135.0,-132.0
4100,7,-142,0,4100.0,4100.0,9.0,10.0,-138.0,-135.0
4100,4,-146,0,4100.0,4100.0,7.0,9.0,-142.0,-138.0
4100,3,-145,0,4100.0,4100.0,4.0,7.0,-146.0,-142.0
4100,0,-145,0,4100.0,4100.0,3.0,4.0,-145.0,-146.0
4100,-3,-144,0,4100.0,4100.0,0.0,3.0,-145.0,-145.0
4100,-6,-145,0,4100.0,4100.0,-3.0,0.0,-144.0,-145.0
4100,-8,-146,0,4100.0,4100.0,-6.0,-3.0,-145.0,-144.0
4100,-10,-142,0,4100.0,4100.0,-8.0,-6.0,-146.0,-145.0
4100,-13,-142,0,4100.0,4100.0,-10.0,-8.0,-142.0,-146.0
4099,-15,-143,0,4100.0,4100.0,-13.0,-10.0,-142.0,-142.0
4099,-18,-140,0,4099.0,4100.0,-15.0,-13.0,-143.0,-142.0
4094,-18,-141,0,4099.0,4099.0,-18.0,-15.0,-140.0,-143.0
4095,-20,-141,0,4094.0,4099.0,-18.0,-18.0,-141.0,-140.0
4094,-21,-140,0,4095.0,4094.0,-20.0,-18.0,-141.0,-141.0
4094,-18,-141,0,4094.0,4095.0,-21.0,-20.0,-140.0,-141.0
4095,-18,-143,0,4094.0,4094.0,-18.0,-21.0,-141.0,-140.0
4095,-20,-141,0,4095.0,4094.0,-18.0,-18.0,-143.0,-141.0
4097,-21,-140,0,4095.0,4095.0,-20.0,-18.0,-141.0,-143.0
4098,-18,-137,0,4097.0,4095.0,-21.0,-20.0,-140.0,-141.0
4099,-17,-139,0,4098.0,4097.0,-18.0,-21.0,-137.0,-140.0
4100,-18,-142,0,4099.0,4098.0,-17.0,-18.0,-139.0,-137.0
4099,-17,-145,0,4100.0,4099.0,-18.0,-17.0,-142.0,-139.0
4099,-21,-148,0,4099.0,4100.0,-17.0,-18.0,-145.0,-142.0
4099,-18,-151,0,4099.0,4099.0,-21.0,-17.0,-148.0,-145.0
4100,-22,-152,0,4099.0,4099.0,-18.0,-21.0,-151.0,-148.0
4099,-18,-157,0,4100.0,4099.0,-22.0,-18.0,-152.0,-151.0
4099,-16,-159,0,4099.0,4100.0,-18.0,-22.0,-157.0,-152.0
4099,-15,-165,0,4099.0,4099.0,-16.0,-18.0,-159.0,-157.0
4098,-12,-166,0,4099.0,4099.0,-15.0,-16.0,-165.0,-159.0
4097,-13,-169,0,4098.0,4099.0,-12.0,-15.0,-166.0,-165.0
4096,-11,-170,0,4097.0,4098.0,-13.0,-12.0,-169.0,-166.0
4094,-11,-176,0,4096.0,4097.0,-11.0,-13.0,-170.0,-169.0
4088,-11,-164,0,4094.0,4096.0,-11.0,-11.0,-176.0,-170.0
4076,-22,-173,0,4088.0,4094.0,-11.0,-11.0,-164.0,-176.0
4075,-59,-197,0,4076.0,4088.0,-22.0,-11.0,-173.0,-164.0
4079,-37,-148,0,4075.0,4076.0,-59.0,-22.0,-197.0,-173.0
4090,31,-164,0,4079.0,4075.0,-37.0,-59.0,-148.0,-197.0
4106,48,-180,0,4090.0,4079.0,31.0,-37.0,-164.0,-148.0
4119,39,-185,0,4106.0,4090.0,48.0,31.0,-180.0,-164.0
4118,35,-170,0,4119.0,4106.0,39.0,48.0,-185.0,-180.0
4115,13,-157,0,4118.0,4119.0,35.0,39.0,-170.0,-185.0
4109,1,-144,0,4115.0,4118.0,13.0,35.0,-157.0,-170.0
4105,-4,-141,0,4109.0,4115.0,1.0,13.0,-144.0,-157.0
4102,-5,-148,0,4105.0,4109.0,-4.0,1.0,-141.0,-144.0
4100,-6,-152,0,4102.0,4105.0,-5.0,-4.0,-148.0,-141.0
4098,-14,-162,0,4100.0,4102.0,-6.0,-5.0,-152.0,-148.0
4098,-20,-174,0,4098.0,4100.0,-14.0,-6.0,-162.0,-152.0
4099,-24,-184,0,4098.0,4098.0,-20.0,-14.0,-174.0,-162.0
4101,-20,-192,0,4099.0,4098.0,-24.0,-20.0,-184.0,-174.0
4104,-16,-201,0,4101.0,4099.0,-20.0,-24.0,-192.0,-184.0
4104,-12,-198,0,4104.0,4101.0,-16.0,-20.0,-201.0,-192.0
4103,-10,-190,0,4104.0,4104.0,-12.0,-16.0,-198.0,-201.0
4102,-11,-177,0,4103.0,4104.0,-10.0,-12.0,-190.0,-198.0
4101,-8,-159,0,4102.0,4103.0,-11.0,-10.0,-177.0,-190.0
4103,-1,-150,0,4101.0,4102.0,-8.0,-11.0,-159.0,-177.0
4102,10,-154,0,4103.0,4101.0,-1.0,-8.0,-150.0,-159.0
4101,12,-164,0,4102.0,4103.0,10.0,-1.0,-154.0,-150.0
4100,10,-179,0,4101.0,4102.0,12.0,10.0,-164.0,-154.0
4095,4,-188,0,4100.0,4101.0,10.0,12.0,-179.0,-164.0
4090,2,-191,0,4095.0,4100.0,4.0,10.0,-188.0,-179.0
4093,0,-189,0,4090.0,4095.0,2.0,4.0,-191.0,-188.0
4096,-2,-181,0,4093.0,4090.0,0.0,2.0,-189.0,-191.0
4102,-3,-176,0,4096.0,4093.0,-2.0,0.0,-181.0,-189.0
4109,-3,-175,0,4102.0,4096.0,-3.0,-2.0,-176.0,-181.0
4117,-3,-174,0,4109.0,4102.0,-3.0,-3.0,-175.0,-176.0
4120,-4,-173,0,4117.0,4109.0,-3.0,-3.0,-174.0,-175.0
4126,-2,-172,0,4120.0,4117.0,-4.0,-3.0,-173.0,-174.0
4126,0,-169,0,4126.0,4120.0,-2.0,-4.0,-172.0,-173.0
4117,1,-167,0,4126.0,4126.0,0.0,-2.0,-169.0,-172.0
4109,3,-169,0,4117.0,4126.0,1.0,0.0,-167.0,-169.0
4104,3,-172,0,4109.0,4117.0,3.0,1.0,-169.0,-167.0
4102,1,-174,0,4104.0,4109.0,3.0,3.0,-172.0,-169.0
4102,3,-176,0,4102.0,4104.0,1.0,3.0,-174.0,-172.0
4101,7,-174,0,4102.0,4102.0,3.0,1.0,-176.0,-174.0
4101,12,-171,0,4101.0,4102.0,7.0,3.0,-174.0,-176.0
4101,19,-169,0,4101.0,4101.0,12.0,7.0,-171.0,-174.0
4101,18,-167,0,4101.0,4101.0,19.0,12.0,-169.0,-171.0
4100,15,-165,0,4101.0,4101.0,18.0,19.0,-167.0,-169.0
4101,18,-167,0,4100.0,4101.0,15.0,18.0,-165.0,-167.0
4100,24,-171,0,4101.0,4100.0,18.0,15.0,-167.0,-165.0
4100,27,-171,0,4100.0,4101.0,24.0,18.0,-171.0,-167.0
4100,26,-171,0,4100.0,4100.0,27.0,24.0,-171.0,-171.0
4098,23,-172,0,4100.0,4100.0,26.0,27.0,-171.0,-171.0
4099,24,-172,0,4098.0,4100.0,23.0,26.0,-172.0,-171.0
4099,29,-173,0,4099.0,4098.0,24.0,23.0,-172.0,-172.0
4097,38,-178,0,4099.0,4099.0,29.0,24.0,-173.0,-172.0
4092,30,-169,0,4097.0,4099.0,38.0,29.0,-178.0,-173.0
4089,20,-174,0,4092.0,4097.0,30.0,38.0,-169.0,-178.0
4092,20,-173,0,4089.0,4092.0,20.0,30.0,-174.0,-169.0
4094,25,-174,0,4092.0,4089.0,20.0,20.0,-173.0,-174.0
4097,32,-177,0,4094.0,4092.0,25.0,20.0,-174.0,-173.0
4099,30,-176,0,4097.0,4094.0,32.0,25.0,-177.0,-174.0
4099,29,-177,0,4099.0,4097.0,30.0,32.0,-176.0,-177.0
4102,34,-179,0,4099.0,4099.0,29.0,30.0,-177.0,-176.0
4101,28,-177,0,4102.0,4099.0,34.0,29.0,-179.0,-177.0
4101,24,-182,0,4101.0,4102.0,28.0,34.0,-177.0,-179.0
4100,28,-183,0,4101.0,4101.0,24.0,28.0,-182.0,-177.0
4100,31,-182,0,4100.0,4101.0,28.0,24.0,-183.0,-182.0
4102,39,-186,0,4100.0,4100.0,31.0,28.0,-182.0,-183.0
4103,35,-179,0,4102.0,4100.0,39.0,31.0,-186.0,-182.0
4101,23,-176,0,4103.0,4102.0,35.0,39.0,-179.0,-186.0
4101,22,-176,0,4101.0,4103.0,23.0,35.0,-176.0,-179.0
4107,67,-207,0,4101.0,4101.0,22.0,23.0,-176.0,-176.0
4104,87,-174,0,4107.0,4101.0,67.0,22.0,-207.0,-176.0
4100,-1,-172,0,4104.0,4107.0,87.0,67.0,-174.0,-207.0
4092,-18,-150,0,4100.0,4104.0,-1.0,87.0,-172.0,-174.0
4091,-1,-164,0,4092.0,4100.0,-18.0,-1.0,-150.0,-172.0
4095,26,-178,0,4091.0,4092.0,-1.0,-18.0,-164.0,-150.0
4098,32,-184,0,4095.0,4091.0,26.0,-1.0,-178.0,-164.0
4102,25,-191,0,4098.0,4095.0,32.0,26.0,-184.0,-178.0
4106,29,-176,0,4102.0,4098.0,25.0,32.0,-191.0,-184.0
4111,23,-182,0,4106.0,4102.0,29.0,25.0,-176.0,-191.0
4119,36,-181,0,4111.0,4106.0,23.0,29.0,-182.0,-176.0
4112,28,-171,0,4119.0,4111.0,36.0,23.0,-181.0,-182.0
4107,15,-165,0,4112.0,4119.0,28.0,36.0,-171.0,-181.0
4102,8,-163,0,4107.0,4112.0,15.0,28.0,-165.0,-171.0
4093,7,-169,0,4102.0,4107.0,8.0,15.0,-163.0,-165.0
4094,13,-171,0,4093.0,4102.0,7.0,8.0,-169.0,-163.0
4097,27,-178,0,4094.0,4093.0,13.0,7.0,-171.0,-169.0
4102,33,-176,0,4097.0,4094.0,27.0,13.0,-178.0,-171.0
4106,33,-180,0,4102.0,4097.0,33.0,27.0,-176.0,-178.0
4106,24,-176,0,4106.0,4102.0,33.0,33.0,-180.0,-176.0
4103,21,-177,0,4106.0,4106.0,24.0,33.0,-176.0,-180.0
4102,23,-185,0,4103.0,4106.0,21.0,24.0,-177.0,-176.0
4101,21,-184,0,4102.0,4103.0,23.0,21.0,-185.0,-177.0
4101,19,-187,0,4101.0,4102.0,21.0,23.0,-184.0,-185.0
4101,21,-182,0,4101.0,4101.0,19.0,21.0,-187.0,-184.0
4100,24,-178,0,4101.0,4101.0,21.0,19.0,-182.0,-187.0
4099,17,-176,0,4100.0,4101.0,24.0,21.0,-178.0,-182.0
4095,11,-183,0,4099.0,4100.0,17.0,24.0,-176.0,-178.0
4093,8,-184,0,4095.0,4099.0,11.0,17.0,-183.0,-176.0
4096,16,-189,0,4093.0,4095.0,8.0,11.0,-184.0,-183.0
4098,24,-190,0,4096.0,4093.0,16.0,8.0,-189.0,-184.0
4099,25,-194,0,4098.0,4096.0,24.0,16.0,-190.0,-189.0
4099,33,-191,0,4099.0,4098.0,25.0,24.0,-194.0,-190.0
4100,38,-187,0,4099.0,4099.0,33.0,25.0,-191.0,-194.0
4100,42,-183,0,4100.0,4099.0,38.0,33.0,-187.0,-191.0
4101,46,-179,0,4100.0,4100.0,42.0,38.0,-183.0,-187.0
4102,51,-179,0,4101.0,4100.0,46.0,42.0,-179.0,-183.0
4106,53,-168,0,4102.0,4101.0,51.0,46.0,-179.0,-179.0
4108,61,-171,0,4106.0,4102.0,53.0,51.0,-168.0,-179.0
4104,47,-162,0,4108.0,4106.0,61.0,53.0,-171.0,-168.0
4096,32,-169,0,4104.0,4108.0,47.0,61.0,-162.0,-171.0
4083,23,-174,0,4096.0,4104.0,32.0,47.0,-169.0,-162.0
4077,23,-191,0,4083.0,4096.0,23.0,32.0,-174.0,-169.0
4083,29,-201,0,4077.0,4083.0,23.0,23.0,-191.0,-174.0
4092,26,-201,0,4083.0,4077.0,29.0,23.0,-201.0,-191.0
4096,17,-199,0,4092.0,4083.0,26.0,29.0,-201.0,-201.0
4098,7,-195,0,4096.0,4092.0,17.0,26.0,-199.0,-201.0
4099,5,-187,0,4098.0,4096.0,7.0,17.0,-195.0,-199.0
4098,9,-173,0,4099.0,4098.0,5.0,7.0,-187.0,-195.0
4099,8,-163,0,4098.0,4099.0,9.0,5.0,-173.0,-187.0
4100,9,-156,0,4099.0,4098.0,8.0,9.0,-163.0,-173.0
4100,10,-157,0,4100.0,4099.0,9.0,8.0,-156.0,-163.0
4100,9,-166,0,4100.0,4100.0,10.0,9.0,-157.0,-156.0
4098,6,-182,0,4100.0,4100.0,9.0,10.0,-166.0,-157.0
4090,2,-197,0,4098.0,4100.0,6.0,9.0,-182.0,-166.0
4081,0,-200,0,4090.0,4098.0,2.0,6.0,-197.0,-182.0
4080,-3,-194,0,4081.0,4090.0,0.0,2.0,-200.0,-197.0
4082,-5,-183,0,4080.0,4081.0,-3.0,0.0,-194.0,-200.0
4089,-5,-175,0,4082.0,4080.0,-5.0,-3.0,-183.0,-194.0
4095,-8,-169,0,4089.0,4082.0,-5.0,-5.0,-175.0,-183.0
4098,-6,-164,0,4095.0,4089.0,-8.0,-5.0,-169.0,-175.0
4100,-5,-161,0,4098.0,4095.0,-6.0,-8.0,-164.0,-169.0
4102,-7,-160,0,4100.0,4098.0,-5.0,-6.0,-161.0,-164.0
4101,-9,-159,0,4102.0,4100.0,-7.0,-5.0,-160.0,-161.0
4101,-7,-161,0,4101.0,4102.0,-9.0,-7.0,-159.0,-160.0
4101,-8,-167,0,4101.0,4101.0,-7.0,-9.0,-161.0,-159.0
4101,-6,-172,0,4101.0,4101.0,-8.0,-7.0,-167.0,-161.0
4101,-4,-175,0,4101.0,4101.0,-6.0,-8.0,-172.0,-167.0
4101,-4,-176,0,4101.0,4101.0,-4.0,-6.0,-175.0,-172.0
4100,-4,-179,0,4101.0,4101.0,-4.0,-4.0,-176.0,-175.0
4100,-4,-178,0,4100.0,4101.0,-4.0,-4.0,-179.0,-176.0
4101,0,-178,0,4100.0,4100.0,-4.0,-4.0,-178.0,-179.0
4103,-1,-178,0,4101.0,4100.0,0.0,-4.0,-178.0,-178.0
4102,-2,-176,0,4103.0,4101.0,-1.0,0.0,-178.0,-178.0
4102,0,-180,0,4102.0,4103.0,-2.0,-1.0,-176.0,-178.0
4101,2,-177,0,4102.0,4102.0,0.0,-2.0,-180.0,-176.0
4100,6,-180,0,4101.0,4102.0,2.0,0.0,-177.0,-180.0
4100,3,-179,0,4100.0,4101.0,6.0,2.0,-180.0,-177.0
4100,2,-181,0,4100.0,4100.0,3.0,6.0,-179.0,-180.0
4099,5,-184,0,4100.0,4100.0,2.0,3.0,-181.0,-179.0
4099,6,-186,0,4099.0,4100.0,5.0,2.0,-184.0,-181.0
4099,6,-186,0,4099.0,4099.0,6.0,5.0,-186.0,-184.0
4099,5,-184,0,4099.0,4099.0,6.0,6.0,-186.0,-186.0
4100,9,-180,0,4099.0,4099.0,5.0,6.0,-184.0,-186.0
4100,9,-176,0,4100.0,4099.0,9.0,5.0,-180.0,-184.0
4100,6,-176,0,4100.0,4100.0,9.0,9.0,-176.0,-180.0
4100,2,-176,0,4100.0,4100.0,6.0,9.0,-176.0,-176.0
4101,1,-180,0,4100.0,4100.0,2.0,6.0,-176.0,-176.0
4101,3,-186,0,4101.0,4100.0,1.0,2.0,-180.0,-176.0
4101,1,-183,0,4101.0,4101.0,3.0,1.0,-186.0,-180.0
4100,0,-184,0,4101.0,4101.0,1.0,3.0,-183.0,-186.0
4100,0,-183,0,4100.0,4101.0,0.0,1.0,-184.0,-183.0
4100,2,-183,0,4100.0,4100.0,0.0,0.0,-183.0,-184.0
4099,6,-187,0,4100.0,4100.0,2.0,0.0,-183.0,-183.0
4099,3,-185,0,4099.0,4100.0,6.0,2.0,-187.0,-183.0
4099,0,-187,0,4099.0,4099.0,3.0,6.0,-185.0,-187.0
4099,1,-188,0,4099.0,4099.0,0.0,3.0,-187.0,-185.0
4099,1,-188,0,4099.0,4099.0,1.0,0.0,-188.0,-187.0
4098,3,-191,0,4099.0,4099.0,1.0,1.0,-188.0,-188.0
4099,4,-191,0,4098.0,4099.0,3.0,1.0,-191.0,-188.0
4099,3,-190,0,4099.0,4098.0,4.0,3.0,-191.0,-191.0
4100,4,-190,0,4099.0,4099.0,3.0,4.0,-190.0,-191.0
4100,10,-189,0,4100.0,4099.0,4.0,3.0,-190.0,-190.0
4100,6,-191,0,4100.0,4100.0,10.0,4.0,-189.0,-190.0
4100,4,-191,0,4100.0,4100.0,6.0,10.0,-191.0,-189.0
4100,2,-185,0,4100.0,4100.0,4.0,6.0,-191.0,-191.0
4101,4,-183,0,4100.0,4100.0,2.0,4.0,-185.0,-191.0
4100,4,-185,0,4101.0,4100.0,4.0,2.0,-183.0,-185.0
4101,1,-185,0,4100.0,4101.0,4.0,4.0,-185.0,-183.0
4101,5,-185,0,4101.0,4100.0,1.0,4.0,-185.0,-185.0
4100,4,-178,0,4101.0,4101.0,5.0,1.0,-185.0,-185.0
4100,1,-181,0,4100.0,4101.0,4.0,5.0,-178.0,-185.0
4098,-4,-182,0,4100.0,4100.0,1.0,4.0,-181.0,-178.0
4099,-5,-185,0,4098.0,4100.0,-4.0,1.0,-182.0,-181.0
4100,-2,-188,0,4099.0,4098.0,-5.0,-4.0,-185.0,-182.0
4100,0,-188,0,4100.0,4099.0,-2.0,-5.0,-188.0,-185.0
4100,-1,-191,0,4100.0,4100.0,0.0,-2.0,-188.0,-188.0
4100,-2,-191,0,4100.0,4100.0,-1.0,0.0,-191.0,-188.0
4101,-6,-195,0,4100.0,4100.0,-2.0,-1.0,-191.0,-191.0
4101,-6,-196,0,4101.0,4100.0,-6.0,-2.0,-195.0,-191.0
4101,-6,-198,0,4101.0,4101.0,-6.0,-6.0,-196.0,-195.0
4100,-5,-197,0,4101.0,4101.0,-6.0,-6.0,-198.0,-196.0
4100,-8,-195,0,4100.0,4101.0,-5.0,-6.0,-197.0,-198.0
4096,-6,-195,0,4100.0,4100.0,-8.0,-5.0,-195.0,-197.0
4095,-8,-193,0,4096.0,4100.0,-6.0,-8.0,-195.0,-195.0
4097,-9,-193,0,4095.0,4096.0,-8.0,-6.0,-193.0,-195.0
4098,-8,-193,0,4097.0,4095.0,-9.0,-8.0,-193.0,-193.0
4100,-6,-189,0,4098.0,4097.0,-8.0,-9.0,-193.0,-193.0
4100,-4,-186,0,4100.0,4098.0,-6.0,-8.0,-189.0,-193.0
4100,-3,-185,0,4100.0,4100.0,-4.0,-6.0,-186.0,-189.0
4100,-4,-182,0,4100.0,4100.0,-3.0,-4.0,-185.0,-186.0
4101,-3,-174,0,4100.0,4100.0,-4.0,-3.0,-182.0,-185.0
4104,-1,-172,0,4101.0,4100.0,-3.0,-4.0,-174.0,-182.0
4104,1,-172,0,4104.0,4101.0,-1.0,-3.0,-172.0,-174.0
4102,1,-177,0,4104.0,4104.0,1.0,-1.0,-172.0,-172.0
4104,4,-184,0,4102.0,4104.0,1.0,1.0,-177.0,-172.0
4103,5,-187,0,4104.0,4102.0,4.0,1.0,-184.0,-177.0
4102,6,-191,0,4103.0,4104.0,5.0,4.0,-187.0,-184.0
4101,10,-202,0,4102.0,4103.0,6.0,5.0,-191.0,-187.0
4101,8,-207,0,4101.0,4102.0,10.0,6.0,-202.0,-191.0
4100,1,-213,0,4101.0,4101.0,8.0,10.0,-207.0,-202.0
4099,0,-224,0,4100.0,4101.0,1.0,8.0,-213.0,-207.0
4099,3,-232,0,4099.0,4100.0,0.0,1.0,-224.0,-213.0
4100,18,-237,0,4099.0,4099.0,3.0,0.0,-232.0,-224.0
4098,24,-234,0,4100.0,4099.0,18.0,3.0,-237.0,-232.0
4099,20,-225,0,4098.0,4100.0,24.0,18.0,-234.0,-237.0
4099,20,-206,0,4099.0,4098.0,20.0,24.0,-225.0,-234.0
4101,21,-185,0,4099.0,4099.0,20.0,20.0,-206.0,-225.0
4108,28,-171,0,4101.0,4099.0,21.0,20.0,-185.0,-206.0
4112,36,-171,0,4108.0,4101.0,28.0,21.0,-171.0,-185.0
4107,42,-181,0,4112.0,4108.0,36.0,28.0,-171.0,-171.0
4103,37,-193,0,4107.0,4112.0,42.0,36.0,-181.0,-171.0
4094,29,-207,0,4103.0,4107.0,37.0,42.0,-193.0,-181.0
4087,27,-214,0,4094.0,4103.0,29.0,37.0,-207.0,-193.0
4085,28,-210,0,4087.0,4094.0,27.0,29.0,-214.0,-207.0
4090,29,-206,0,4085.0,4087.0,28.0,27.0,-210.0,-214.0
4091,28,-207,0,4090.0,4085.0,29.0,28.0,-206.0,-210.0
4095,27,-205,0,4091.0,4090.0,28.0,29.0,-207.0,-206.0
4098,28,-203,0,4095.0,4091.0,27.0,28.0,-205.0,-207.0
4101,28,-200,0,4098.0,4095.0,28.0,27.0,-203.0,-205.0
4104,32,-200,0,4101.0,4098.0,28.0,28.0,-200.0,-203.0
4108,39,-198,0,4104.0,4101.0,32.0,28.0,-200.0,-200.0
4107,37,-200,0,4108.0,4104.0,39.0,32.0,-198.0,-200.0
4106,33,-205,0,4107.0,4108.0,37.0,39.0,-200.0,-198.0
4103,37,-208,0,4106.0,4107.0,33.0,37.0,-205.0,-200.0
4102,42,-211,0,4103.0,4106.0,37.0,33.0,-208.0,-205.0
4101,44,-220,0,4102.0,4103.0,42.0,37.0,-211.0,-208.0
4101,49,-222,0,4101.0,4102.0,44.0,42.0,-220.0,-211.0
4100,53,-218,0,4101.0,4101.0,49.0,44.0,-222.0,-220.0
4100,49,-216,0,4100.0,4101.0,53.0,49.0,-218.0,-222.0
4100,42,-217,0,4100.0,4100.0,49.0,53.0,-216.0,-218.0
4100,42,-218,0,4100.0,4100.0,42.0,49.0,-217.0,-216.0
4100,51,-217,0,4100.0,4100.0,42.0,42.0,-218.0,-217.0
4100,58,-220,0,4100.0,4100.0,51.0,42.0,-217.0,-218.0
4101,52,-225,0,4100.0,4100.0,58.0,51.0,-220.0,-217.0
4101,47,-229,0,4101.0,4100.0,52.0,58.0,-225.0,-220.0
4100,43,-230,0,4101.0,4101.0,47.0,52.0,-229.0,-225.0
4100,45,-229,0,4100.0,4101.0,43.0,47.0,-230.0,-229.0
4100,46,-231,0,4100.0,4100.0,45.0,43.0,-229.0,-230.0
4100,46,-231,0,4100.0,4100.0,46.0,45.0,-231.0,-229.0
4099,49,-228,0,4100.0,4100.0,46.0,46.0,-231.0,-231.0
4099,53,-224,0,4099.0,4100.0,49.0,46.0,-228.0,-231.0
4099,54,-224,0,4099.0,4099.0,53.0,49.0,-224.0,-228.0
4099,55,-220,0,4099.0,4099.0,54.0,53.0,-224.0,-224.0
4100,55,-219,0,4099.0,4099.0,55.0,54.0,-220.0,-224.0
4100,56,-216,0,4100.0,4099.0,55.0,55.0,-219.0,-220.0
4099,53,-217,0,4100.0,4100.0,56.0,55.0,-216.0,-219.0
4099,51,-218,0,4099.0,4100.0,53.0,56.0,-217.0,-216.0
4097,46,-215,0,4099.0,4099.0,51.0,53.0,-218.0,-217.0
4096,41,-213,0,4097.0,4099.0,46.0,51.0,-215.0,-218.0
4087,37,-213,0,4096.0,4097.0,41.0,46.0,-213.0,-215.0
4080,32,-213,0,4087.0,4096.0,37.0,41.0,-213.0,-213.0
4074,30,-214,0,4080.0,4087.0,32.0,37.0,-213.0,-213.0
4071,26,-214,0,4074.0,4080.0,30.0,32.0,-214.0,-213.0
4072,22,-208,0,4071.0,4074.0,26.0,30.0,-214.0,-214.0
4071,16,-201,0,4072.0,4071.0,22.0,26.0,-208.0,-214.0
4074,10,-198,0,4071.0,4072.0,16.0,22.0,-201.0,-208.0
4077,4,-196,0,4074.0,4071.0,10.0,16.0,-198.0,-201.0
4078,0,-195,0,4077.0,4074.0,4.0,10.0,-196.0,-198.0
4080,-1,-194,0,4078.0,4077.0,0.0,4.0,-195.0,-196.0
4081,-3,-192,0,4080.0,4078.0,-1.0,0.0,-194.0,-195.0
4080,-7,-193,0,4081.0,4080.0,-3.0,-1.0,-192.0,-194.0
4081,-6,-194,0,4080.0,4081.0,-7.0,-3.0,-193.0,-192.0
4085,-8,-193,0,4081.0,4080.0,-6.0,-7.0,-194.0,-193.0
4084,-8,-193,0,4085.0,4081.0,-8.0,-6.0,-193.0,-194.0
4083,-10,-190,0,4084.0,4085.0,-8.0,-8.0,-193.0,-193.0
4090,-13,-190,0,4083.0,4084.0,-10.0,-8.0,-190.0,-193.0
4090,-15,-190,0,4090.0,4083.0,-13.0,-10.0,-190.0,-190.0
4087,-14,-194,0,4090.0,4090.0,-15.0,-13.0,-190.0,-190.0
4087,-13,-196,0,4087.0,4090.0,-14.0,-15.0,-194.0,-190.0
4088,-11,-197,0,4087.0,4087.0,-13.0,-14.0,-196.0,-194.0
4092,-12,-198,0,4088.0,4087.0,-11.0,-13.0,-197.0,-196.0
4092,-11,-196,0,4092.0,4088.0,-12.0,-11.0,-198.0,-197.0
4093,-10,-195,0,4092.0,4092.0,-11.0,-12.0,-196.0,-198.0
4095,-9,-197,0,4093.0,4092.0,-10.0,-11.0,-195.0,-196.0
4096,-7,-198,0,4095.0,4093.0,-9.0,-10.0,-197.0,-195.0
4096,-6,-195,0,4096.0,4095.0,-7.0,-9.0,-198.0,-197.0
4097,-5,-191,0,4096.0,4096.0,-6.0,-7.0,-195.0,-198.0
4097,-4,-189,0,4097.0,4096.0,-5.0,-6.0,-191.0,-195.0
4099,-3,-189,0,4097.0,4097.0,-4.0,-5.0,-189.0,-191.0
4100,4,-190,0,4099.0,4097.0,-3.0,-4.0,-189.0,-189.0
4100,8,-191,0,4100.0,4099.0,4.0,-3.0,-190.0,-189.0
4101,7,-192,0,4100.0,4100.0,8.0,4.0,-191.0,-190.0
4102,13,-193,0,4101.0,4100.0,7.0,8.0,-192.0,-191.0
4104,18,-192,0,4102.0,4101.0,13.0,7.0,-193.0,-192.0
4106,22,-191,0,4104.0,4102.0,18.0,13.0,-192.0,-193.0
4108,20,-184,0,4106.0,4104.0,22.0,18.0,-191.0,-192.0
4108,15,-176,0,4108.0,4106.0,20.0,22.0,-184.0,-191.0
4110,18,-169,0,4108.0,4108.0,15.0,20.0,-176.0,-184.0
4114,18,-169,0,4110.0,4108.0,18.0,15.0,-169.0,-176.0
4115,19,-173,0,4114.0,4110.0,18.0,18.0,-169.0,-169.0
4121,17,-184,0,4115.0,4114.0,19.0,18.0,-173.0,-169.0
4123,10,-187,0,4121.0,4115.0,17.0,19.0,-184.0,-173.0
4126,5,-195,0,4123.0,4121.0,10.0,17.0,-187.0,-184.0
4120,2,-204,0,4126.0,4123.0,5.0,10.0,-195.0,-187.0
4120,1,-212,0,4120.0,4126.0,2.0,5.0,-204.0,-195.0
4115,-1,-220,0,4120.0,4120.0,1.0,2.0,-212.0,-204.0
4108,-3,-223,0,4115.0,4120.0,-1.0,1.0,-220.0,-212.0
4104,-4,-230,0,4108.0,4115.0,-3.0,-1.0,-223.0,-220.0
4101,-6,-232,0,4104.0,4108.0,-4.0,-3.0,-230.0,-223.0
4096,-5,-231,0,4101.0,4104.0,-6.0,-4.0,-232.0,-230.0
4092,-4,-221,0,4096.0,4101.0,-5.0,-6.0,-231.0,-232.0
4089,-3,-204,0,4092.0,4096.0,-4.0,-5.0,-221.0,-231.0
4091,-1,-181,0,4089.0,4092.0,-3.0,-4.0,-204.0,-221.0
4097,-3,-157,0,4091.0,4089.0,-1.0,-3.0,-181.0,-204.0
4108,-2,-146,0,4097.0,4091.0,-3.0,-1.0,-157.0,-181.0
4110,5,-154,0,4108.0,4097.0,-2.0,-3.0,-146.0,-157.0
4108,6,-168,0,4110.0,4108.0,5.0,-2.0,-154.0,-146.0
4104,3,-181,0,4108.0,4110.0,6.0,5.0,-168.0,-154.0
4102,1,-190,0,4104.0,4108.0,3.0,6.0,-181.0,-168.0
4100,0,-191,0,4102.0,4104.0,1.0,3.0,-190.0,-181.0
4100,-3,-189,0,4100.0,4102.0,0.0,1.0,-191.0,-190.0
4100,-7,-184,0,4100.0,4100.0,-3.0,0.0,-189.0,-191.0
4100,-5,-183,0,4100.0,4100.0,-7.0,-3.0,-184.0,-189.0
4100,-3,-186,0,4100.0,4100.0,-5.0,-7.0,-183.0,-184.0
4102,-1,-189,0,4100.0,4100.0,-3.0,-5.0,-186.0,-183.0
4103,3,-191,0,4102.0,4100.0,-1.0,-3.0,-189.0,-186.0
4102,5,-193,0,4103.0,4102.0,3.0,-1.0,-191.0,-189.0
4103,7,-190,0,4102.0,4103.0,5.0,3.0,-193.0,-191.0
4101,10,-191,0,4103.0,4102.0,7.0,5.0,-190.0,-193.0
4100,9,-197,0,4101.0,4103.0,10.0,7.0,-191.0,-190.0
4100,12,-201,0,4100.0,4101.0,9.0,10.0,-197.0,-191.0
4099,18,-208,0,4100.0,4100.0,12.0,9.0,-201.0,-197.0
4098,21,-216,0,4099.0,4100.0,18.0,12.0,-208.0,-201.0
4098,19,-213,0,4098.0,4099.0,21.0,18.0,-216.0,-208.0
4099,19,-205,0,4098.0,4098.0,19.0,21.0,-213.0,-216.0
4099,24,-199,0,4099.0,4098.0,19.0,19.0,-205.0,-213.0
4100,21,-198,0,4099.0,4099.0,24.0,19.0,-199.0,-205.0
4100,25,-198,0,4100.0,4099.0,21.0,24.0,-198.0,-199.0
4100,22,-200,0,4100.0,4100.0,25.0,21.0,-198.0,-198.0
4099,23,-200,0,4100.0,4100.0,22.0,25.0,-200.0,-198.0
4100,19,-198,0,4099.0,4100.0,23.0,22.0,-200.0,-200.0
4100,21,-199,0,4100.0,4099.0,19.0,23.0,-198.0,-200.0
4101,23,-205,0,4100.0,4100.0,21.0,19.0,-199.0,-198.0
4101,26,-205,0,4101.0,4100.0,23.0,21.0,-205.0,-199.0
4103,29,-205,0,4101.0,4101.0,26.0,23.0,-205.0,-205.0
4102,31,-203,0,4103.0,4101.0,29.0,26.0,-205.0,-205.0
4102,35,-200,0,4102.0,4103.0,31.0,29.0,-203.0,-205.0
4102,34,-201,0,4102.0,4102.0,35.0,31.0,-200.0,-203.0
4101,38,-202,0,4102.0,4102.0,34.0,35.0,-201.0,-200.0
4101,41,-205,0,4101.0,4102.0,38.0,34.0,-202.0,-201.0
4101,47,-206,0,4101.0,4101.0,41.0,38.0,-205.0,-202.0
4100,54,-205,0,4101.0,4101.0,47.0,41.0,-206.0,-205.0
4096,58,-202,0,4100.0,4101.0,54.0,47.0,-205.0,-206.0
4088,42,-203,0,4096.0,4100.0,58.0,54.0,-202.0,-205.0
4079,30,-209,0,4088.0,4096.0,42.0,58.0,-203.0,-202.0
4075,32,-210,0,4079.0,4088.0,30.0,42.0,-209.0,-203.0
4073,38,-216,0,4075.0,4079.0,32.0,30.0,-210.0,-209.0
4076,38,-216,0,4073.0,4075.0,38.0,32.0,-216.0,-210.0
4081,31,-209,0,4076.0,4073.0,38.0,38.0,-216.0,-216.0
4090,28,-203,0,4081.0,4076.0,31.0,38.0,-209.0,-216.0
4095,26,-194,0,4090.0,4081.0,28.0,31.0,-203.0,-209.0
4098,28,-191,0,4095.0,4090.0,26.0,28.0,-194.0,-203.0
4099,27,-186,0,4098.0,4095.0,28.0,26.0,-191.0,-194.0
4099,25,-184,0,4099.0,4098.0,27.0,28.0,-186.0,-191.0
4100,24,-183,0,4099.0,4099.0,25.0,27.0,-184.0,-186.0
4100,27,-183,0,4100.0,4099.0,24.0,25.0,-183.0,-184.0
4100,26,-185,0,4100.0,4100.0,27.0,24.0,-183.0,-183.0
4100,23,-186,0,4100.0,4100.0,26.0,27.0,-185.0,-183.0
4099,22,-185,0,4100.0,4100.0,23.0,26.0,-186.0,-185.0
4099,24,-187,0,4099.0,4100.0,22.0,23.0,-185.0,-186.0
4100,22,-187,0,4099.0,4099.0,24.0,22.0,-187.0,-185.0
4101,24,-184,0,4100.0,4099.0,22.0,24.0,-187.0,-187.0
4101,26,-189,0,4101.0,4100.0,24.0,22.0,-184.0,-187.0
4102,23,-191,0,4101.0,4101.0,26.0,24.0,-189.0,-184.0
4101,23,-194,0,4102.0,4101.0,23.0,26.0,-191.0,-189.0
4101,24,-199,0,4101.0,4102.0,23.0,23.0,-194.0,-191.0
4101,26,-201,0,4101.0,4101.0,24.0,23.0,-199.0,-194.0
4100,26,-203,0,4101.0,4101.0,26.0,24.0,-201.0,-199.0
4100,27,-205,0,4100.0,4101.0,26.0,26.0,-203.0,-201.0
4100,32,-205,0,4100.0,4100.0,27.0,26.0,-205.0,-203.0
4100,33,-206,0,4100.0,4100.0,32.0,27.0,-205.0,-205.0
4100,31,-207,0,4100.0,4100.0,33.0,32.0,-206.0,-205.0
4100,30,-201,0,4100.0,4100.0,31.0,33.0,-207.0,-206.0
4096,36,-200,0,4100.0,4100.0,30.0,31.0,-201.0,-207.0
4092,34,-202,0,4096.0,4100.0,36.0,30.0,-200.0,-201.0
4094,36,-201,0,4092.0,4096.0,34.0,36.0,-202.0,-200.0
4091,37,-201,0,4094.0,4092.0,36.0,34.0,-201.0,-202.0
4092,39,-199,0,4091.0,4094.0,37.0,36.0,-201.0,-201.0
4094,40,-198,0,4092.0,4091.0,39.0,37.0,-199.0,-201.0
4097,43,-194,0,4094.0,4092.0,40.0,39.0,-198.0,-199.0
4098,40,-191,0,4097.0,4094.0,43.0,40.0,-194.0,-198.0
4099,39,-187,0,4098.0,4097.0,40.0,43.0,-191.0,-194.0
4099,46,-182,0,4099.0,4098.0,39.0,40.0,-187.0,-191.0
4099,47,-181,0,4099.0,4099.0,46.0,39.0,-182.0,-187.0
4100,48,-184,0,4099.0,4099.0,47.0,46.0,-181.0,-182.0
4100,51,-188,0,4100.0,4099.0,48.0,47.0,-184.0,-181.0
4102,52,-191,0,4100.0,4100.0,51.0,48.0,-188.0,-184.0
4102,51,-192,0,4102.0,4100.0,52.0,51.0,-191.0,-188.0
4102,49,-192,0,4102.0,4102.0,51.0,52.0,-192.0,-191.0
4105,50,-196,0,4102.0,4102.0,49.0,51.0,-192.0,-192.0
4106,45,-205,0,4105.0,4102.0,50.0,49.0,-196.0,-192.0
4103,43,-217,0,4106.0,4105.0,45.0,50.0,-205.0,-196.0
4096,44,-230,0,4103.0,4106.0,43.0,45.0,-217.0,-205.0
4085,42,-237,0,4096.0,4103.0,44.0,43.0,-230.0,-217.0
4075,38,-242,0,4085.0,4096.0,42.0,44.0,-237.0,-230.0
4075,38,-236,0,4075.0,4085.0,38.0,42.0,-242.0,-237.0
4074,38,-216,0,4075.0,4075.0,38.0,38.0,-236.0,-242.0
4086,34,-191,0,4074.0,4075.0,38.0,38.0,-216.0,-236.0
4094,30,-164,0,4086.0,4074.0,34.0,38.0,-191.0,-216.0
4107,33,-146,0,4094.0,4086.0,30.0,34.0,-164.0,-191.0
4117,41,-153,0,4107.0,4094.0,33.0,30.0,-146.0,-164.0
4109,45,-167,0,4117.0,4107.0,41.0,33.0,-153.0,-146.0
4104,36,-188,0,4109.0,4117.0,45.0,41.0,-167.0,-153.0
4097,32,-202,0,4104.0,4109.0,36.0,45.0,-188.0,-167.0
4090,31,-203,0,4097.0,4104.0,32.0,36.0,-202.0,-188.0
4088,21,-202,0,4090.0,4097.0,31.0,32.0,-203.0,-202.0
4089,18,-198,0,4088.0,4090.0,21.0,31.0,-202.0,-203.0
4093,15,-196,0,4089.0,4088.0,18.0,21.0,-198.0,-202.0
4097,18,-193,0,4093.0,4089.0,15.0,18.0,-196.0,-198.0
4098,15,-194,0,4097.0,4093.0,18.0,15.0,-193.0,-196.0
4100,15,-189,0,4098.0,4097.0,15.0,18.0,-194.0,-193.0
4100,14,-186,0,4100.0,4098.0,15.0,15.0,-189.0,-194.0
4100,15,-186,0,4100.0,4100.0,14.0,15.0,-186.0,-189.0
4099,15,-185,0,4100.0,4100.0,15.0,14.0,-186.0,-186.0
4095,21,-187,0,4099.0,4100.0,15.0,15.0,-185.0,-186.0
4090,29,-191,0,4095.0,4099.0,21.0,15.0,-187.0,-185.0
4090,30,-197,0,4090.0,4095.0,29.0,21.0,-191.0,-187.0
4089,26,-202,0,4090.0,4090.0,30.0,29.0,-197.0,-191.0
4095,22,-204,0,4089.0,4090.0,26.0,30.0,-202.0,-197.0
4097,19,-200,0,4095.0,4089.0,22.0,26.0,-204.0,-202.0
4099,17,-197,0,4097.0,4095.0,19.0,22.0,-200.0,-204.0
4100,17,-196,0,4099.0,4097.0,17.0,19.0,-197.0,-200.0
4100,21,-200,0,4100.0,4099.0,17.0,17.0,-196.0,-197.0
4100,26,-202,0,4100.0,4100.0,21.0,17.0,-200.0,-196.0
4100,28,-202,0,4100.0,4100.0,26.0,21.0,-202.0,-200.0
4099,26,-208,0,4100.0,4100.0,28.0,26.0,-202.0,-202.0
4099,28,-211,0,4099.0,4100.0,26.0,28.0,-208.0,-202.0
4098,31,-213,0,4099.0,4099.0,28.0,26.0,-211.0,-208.0
4099,34,-218,0,4098.0,4099.0,31.0,28.0,-213.0,-211.0
4099,34,-223,0,4099.0,4098.0,34.0,31.0,-218.0,-213.0
4100,38,-219,0,4099.0,4099.0,34.0,34.0,-223.0,-218.0
4100,40,-219,0,4100.0,4099.0,38.0,34.0,-219.0,-223.0
4101,44,-220,0,4100.0,4100.0,40.0,38.0,-219.0,-219.0
4100,43,-219,0,4101.0,4100.0,44.0,40.0,-220.0,-219.0
4099,46,-217,0,4100.0,4101.0,43.0,44.0,-219.0,-220.0
4100,48,-209,0,4099.0,4100.0,46.0,43.0,-217.0,-219.0
4099,48,-211,0,4100.0,4099.0,48.0,46.0,-209.0,-217.0
4097,47,-212,0,4099.0,4100.0,48.0,48.0,-211.0,-209.0
4091,47,-208,0,4097.0,4099.0,47.0,48.0,-212.0,-211.0
4091,46,-214,0,4091.0,4097.0,47.0,47.0,-208.0,-212.0
4089,41,-222,0,4091.0,4091.0,46.0,47.0,-214.0,-208.0
4091,41,-228,0,4089.0,4091.0,41.0,46.0,-222.0,-214.0
4090,38,-231,0,4091.0,4089.0,41.0,41.0,-228.0,-222.0
4093,35,-235,0,4090.0,4091.0,38.0,41.0,-231.0,-228.0
4093,36,-233,0,4093.0,4090.0,35.0,38.0,-235.0,-231.0
4097,33,-233,0,4093.0,4093.0,36.0,35.0,-233.0,-235.0
4099,31,-226,0,4097.0,4093.0,33.0,36.0,-233.0,-233.0
4101,34,-220,0,4099.0,4097.0,31.0,33.0,-226.0,-233.0
4102,30,-219,0,4101.0,4099.0,34.0,31.0,-220.0,-226.0
4103,27,-215,0,4102.0,4101.0,30.0,34.0,-219.0,-220.0
4105,29,-215,0,4103.0,4102.0,27.0,30.0,-215.0,-219.0
4105,25,-212,0,4105.0,4103.0,29.0,27.0,-215.0,-215.0
4104,28,-211,0,4105.0,4105.0,25.0,29.0,-212.0,-215.0
4102,25,-212,0,4104.0,4105.0,28.0,25.0,-211.0,-212.0
4102,25,-208,0,4102.0,4104.0,25.0,28.0,-212.0,-211.0
4101,22,-209,0,4102.0,4102.0,25.0,25.0,-208.0,-212.0
4100,20,-206,0,4101.0,4102.0,22.0,25.0,-209.0,-208.0
4101,18,-213,0,4100.0,4101.0,20.0,22.0,-206.0,-209.0
4101,20,-215,0,4101.0,4100.0,18.0,20.0,-213.0,-206.0
4100,20,-216,0,4101.0,4101.0,20.0,18.0,-215.0,-213.0
4100,22,-218,0,4100.0,4101.0,20.0,20.0,-216.0,-215.0
4101,14,-221,0,4100.0,4100.0,22.0,20.0,-218.0,-216.0
4100,18,-224,0,4101.0,4100.0,14.0,22.0,-221.0,-218.0
4100,19,-224,0,4100.0,4101.0,18.0,14.0,-224.0,-221.0
4100,22,-225,0,4100.0,4100.0,19.0,18.0,-224.0,-224.0
4099,24,-223,0,4100.0,4100.0,22.0,19.0,-225.0,-224.0
4098,24,-220,0,4099.0,4100.0,24.0,22.0,-223.0,-225.0
4099,23,-219,0,4098.0,4099.0,24.0,24.0,-220.0,-223.0
4099,27,-216,0,4099.0,4098.0,23.0,24.0,-219.0,-220.0
4100,25,-215,0,4099.0,4099.0,27.0,23.0,-216.0,-219.0
4100,24,-219,0,4100.0,4099.0,25.0,27.0,-215.0,-216.0
4099,24,-219,0,4100.0,4100.0,24.0,25.0,-219.0,-215.0
4100,26,-219,0,4099.0,4100.0,24.0,24.0,-219.0,-219.0
4100,26,-218,0,4100.0,4099.0,26.0,24.0,-219.0,-219.0
4100,24,-215,0,4100.0,4100.0,26.0,26.0,-218.0,-219.0
4100,19,-213,0,4100.0,4100.0,24.0,26.0,-215.0,-218.0
4100,22,-209,0,4100.0,4100.0,19.0,24.0,-213.0,-215.0
4100,26,-206,0,4100.0,4100.0,22.0,19.0,-209.0,-213.0
4100,31,-204,0,4100.0,4100.0,26.0,22.0,-206.0,-209.0
4101,37,-205,0,4100.0,4100.0,31.0,26.0,-204.0,-206.0
4101,37,-206,0,4101.0,4100.0,37.0,31.0,-205.0,-204.0
4101,34,-203,0,4101.0,4101.0,37.0,37.0,-206.0,-205.0
4101,36,-201,0,4101.0,4101.0,34.0,37.0,-203.0,-206.0
4101,36,-204,0,4101.0,4101.0,36.0,34.0,-201.0,-203.0
4100,34,-213,0,4101.0,4101.0,36.0,36.0,-204.0,-201.0
4100,31,-215,0,4100.0,4101.0,34.0,36.0,-213.0,-204.0
4098,27,-218,0,4100.0,4100.0,31.0,34.0,-215.0,-213.0
4092,26,-225,0,4098.0,4100.0,27.0,31.0,-218.0,-215.0
4085,26,-232,0,4092.0,4098.0,26.0,27.0,-225.0,-218.0
4082,22,-234,0,4085.0,4092.0,26.0,26.0,-232.0,-225.0
4077,23,-236,0,4082.0,4085.0,22.0,26.0,-234.0,-232.0
4079,19,-222,0,4077.0,4082.0,23.0,22.0,-236.0,-234.0
4081,19,-203,0,4079.0,4077.0,19.0,23.0,-222.0,-236.0
4090,15,-183,0,4081.0,4079.0,19.0,19.0,-203.0,-222.0
4096,21,-178,0,4090.0,4081.0,15.0,19.0,-183.0,-203.0
4097,31,-190,0,4096.0,4090.0,21.0,15.0,-178.0,-183.0
4094,31,-204,0,4097.0,4096.0,31.0,21.0,-190.0,-178.0
4087,30,-219,0,4094.0,4097.0,31.0,31.0,-204.0,-190.0
4080,27,-227,0,4087.0,4094.0,30.0,31.0,-219.0,-204.0
4079,24,-221,0,4080.0,4087.0,27.0,30.0,-227.0,-219.0
4080,21,-212,0,4079.0,4080.0,24.0,27.0,-221.0,-227.0
4083,24,-210,0,4080.0,4079.0,21.0,24.0,-212.0,-221.0
4091,21,-207,0,4083.0,4080.0,24.0,21.0,-210.0,-212.0
4096,21,-205,0,4091.0,4083.0,21.0,24.0,-207.0,-210.0
4101,24,-201,0,4096.0,4091.0,21.0,21.0,-205.0,-207.0
4106,20,-199,0,4101.0,4096.0,24.0,21.0,-201.0,-205.0
4106,18,-197,0,4106.0,4101.0,20.0,24.0,-199.0,-201.0
4105,24,-196,0,4106.0,4106.0,18.0,20.0,-197.0,-199.0
4103,28,-197,0,4105.0,4106.0,24.0,18.0,-196.0,-197.0
4101,33,-201,0,4103.0,4105.0,28.0,24.0,-197.0,-196.0
4101,35,-205,0,4101.0,4103.0,33.0,28.0,-201.0,-197.0
4100,37,-208,0,4101.0,4101.0,35.0,33.0,-205.0,-201.0
4100,36,-205,0,4100.0,4101.0,37.0,35.0,-208.0,-205.0
4100,41,-206,0,4100.0,4100.0,36.0,37.0,-205.0,-208.0
4101,42,-200,0,4100.0,4100.0,41.0,36.0,-206.0,-205.0
4102,45,-196,0,4101.0,4100.0,42.0,41.0,-200.0,-206.0
4102,45,-193,0,4102.0,4101.0,45.0,42.0,-196.0,-200.0
4103,48,-192,0,4102.0,4102.0,45.0,45.0,-193.0,-196.0
4101,48,-189,0,4103.0,4102.0,48.0,45.0,-192.0,-193.0
4101,45,-191,0,4101.0,4103.0,48.0,48.0,-189.0,-192.0
4100,47,-192,0,4101.0,4101.0,45.0,48.0,-191.0,-189.0
4100,47,-194,0,4100.0,4101.0,47.0,45.0,-192.0,-191.0
4099,48,-198,0,4100.0,4100.0,47.0,47.0,-194.0,-192.0
4097,48,-199,0,4099.0,4100.0,48.0,47.0,-198.0,-194.0
4098,52,-202,0,4097.0,4099.0,48.0,48.0,-199.0,-198.0
4098,48,-204,0,4098.0,4097.0,52.0,48.0,-202.0,-199.0
4097,49,-202,0,4098.0,4098.0,48.0,52.0,-204.0,-202.0
4097,44,-207,0,4097.0,4098.0,49.0,48.0,-202.0,-204.0
4099,44,-207,0,4097.0,4097.0,44.0,49.0,-207.0,-202.0
4099,45,-206,0,4099.0,4097.0,44.0,44.0,-207.0,-207.0
4100,47,-204,0,4099.0,4099.0,45.0,44.0,-206.0,-207.0
4100,45,-202,0,4100.0,4099.0,47.0,45.0,-204.0,-206.0
4101,41,-201,0,4100.0,4100.0,45.0,47.0,-202.0,-204.0
4103,42,-199,0,4101.0,4100.0,41.0,45.0,-201.0,-202.0
4102,39,-196,0,4103.0,4101.0,42.0,41.0,-199.0,-201.0
4101,40,-199,0,4102.0,4103.0,39.0,42.0,-196.0,-199.0
4100,39,-197,0,4101.0,4102.0,40.0,39.0,-199.0,-196.0
4100,38,-196,0,4100.0,4101.0,39.0,40.0,-197.0,-199.0
4100,34,-192,0,4100.0,4100.0,38.0,39.0,-196.0,-197.0
4100,31,-194,0,4100.0,4100.0,34.0,38.0,-192.0,-196.0
4100,30,-193,0,4100.0,4100.0,31.0,34.0,-194.0,-192.0
4098,27,-195,0,4100.0,4100.0,30.0,31.0,-193.0,-194.0
4097,26,-200,0,4098.0,4100.0,27.0,30.0,-195.0,-193.0
4098,21,-201,0,4097.0,4098.0,26.0,27.0,-200.0,-195.0
4099,18,-199,0,4098.0,4097.0,21.0,26.0,-201.0,-200.0
4100,13,-192,0,4099.0,4098.0,18.0,21.0,-199.0,-201.0
4101,14,-187,0,4100.0,4099.0,13.0,18.0,-192.0,-199.0
4101,10,-186,0,4101.0,4100.0,14.0,13.0,-187.0,-192.0
4103,12,-187,0,4101.0,4101.0,10.0,14.0,-186.0,-187.0
4102,11,-188,0,4103.0,4101.0,12.0,10.0,-187.0,-186.0
4101,11,-189,0,4102.0,4103.0,11.0,12.0,-188.0,-187.0
4101,8,-192,0,4101.0,4102.0,11.0,11.0,-189.0,-188.0
4100,9,-190,0,4101.0,4101.0,8.0,11.0,-192.0,-189.0
4100,9,-192,0,4100.0,4101.0,9.0,8.0,-190.0,-192.0
4100,9,-190,0,4100.0,4100.0,9.0,9.0,-192.0,-190.0
4100,8,-188,0,4100.0,4100.0,9.0,9.0,-190.0,-192.0
4101,9,-186,0,4100.0,4100.0,8.0,9.0,-188.0,-190.0
4100,8,-187,0,4101.0,4100.0,9.0,8.0,-186.0,-188.0
4101,7,-185,0,4100.0,4101.0,8.0,9.0,-187.0,-186.0
4101,7,-188,0,4101.0,4100.0,7.0,8.0,-185.0,-187.0
4101,9,-187,0,4101.0,4101.0,7.0,7.0,-188.0,-185.0
4101,5,-187,0,4101.0,4101.0,9.0,7.0,-187.0,-188.0
4101,8,-189,0,4101.0,4101.0,5.0,9.0,-187.0,-187.0
4100,6,-190,0,4101.0,4101.0,8.0,5.0,-189.0,-187.0
4099,5,-187,0,4100.0,4101.0,6.0,8.0,-190.0,-189.0
4099,9,-190,0,4099.0,4100.0,5.0,6.0,-187.0,-190.0
4100,10,-192,0,4099.0,4099.0,9.0,5.0,-190.0,-187.0
4099,11,-194,0,4100.0,4099.0,10.0,9.0,-192.0,-190.0
4099,10,-199,0,4099.0,4100.0,11.0,10.0,-194.0,-192.0
4099,8,-199,0,4099.0,4099.0,10.0,11.0,-199.0,-194.0
4099,7,-200,0,4099.0,4099.0,8.0,10.0,-199.0,-199.0
4100,6,-199,0,4099.0,4099.0,7.0,8.0,-200.0,-199.0
4100,12,-198,0,4100.0,4099.0,6.0,7.0,-199.0,-200.0
4100,14,-200,0,4100.0,4100.0,12.0,6.0,-198.0,-199.0
4100,13,-200,0,4100.0,4100.0,14.0,12.0,-200.0,-198.0
4100,10,-199,0,4100.0,4100.0,13.0,14.0,-200.0,-200.0
4100,9,-198,0,4100.0,4100.0,10.0,13.0,-199.0,-200.0
4100,9,-201,0,4100.0,4100.0,9.0,10.0,-198.0,-199.0
4100,6,-204,0,4100.0,4100.0,9.0,9.0,-201.0,-198.0
4101,8,-204,0,4100.0,4100.0,6.0,9.0,-204.0,-201.0
4102,4,-210,0,4101.0,4100.0,8.0,6.0,-204.0,-204.0
4102,2,-212,0,4102.0,4101.0,4.0,8.0,-210.0,-204.0
4102,0,-219,0,4102.0,4102.0,2.0,4.0,-212.0,-210.0
4102,-3,-224,0,4102.0,4102.0,0.0,2.0,-219.0,-212.0
4103,-2,-228,0,4102.0,4102.0,-3.0,0.0,-224.0,-219.0
4101,-3,-226,0,4103.0,4102.0,-2.0,-3.0,-228.0,-224.0
4101,-2,-214,0,4101.0,4103.0,-3.0,-2.0,-226.0,-228.0
4100,-3,-200,0,4101.0,4101.0,-2.0,-3.0,-214.0,-226.0
4101,-1,-189,0,4100.0,4101.0,-3.0,-2.0,-200.0,-214.0
4101,7,-196,0,4101.0,4100.0,-1.0,-3.0,-189.0,-200.0
4098,10,-209,0,4101.0,4101.0,7.0,-1.0,-196.0,-189.0
4089,6,-223,0,4098.0,4101.0,10.0,7.0,-209.0,-196.0
4078,3,-232,0,4089.0,4098.0,6.0,10.0,-223.0,-209.0
4067,7,-227,0,4078.0,4089.0,3.0,6.0,-232.0,-223.0
4064,4,-214,0,4067.0,4078.0,7.0,3.0,-227.0,-232.0
4067,2,-204,0,4064.0,4067.0,4.0,7.0,-214.0,-227.0
4077,4,-197,0,4067.0,4064.0,2.0,4.0,-204.0,-214.0
4087,2,-196,0,4077.0,4067.0,4.0,2.0,-197.0,-204.0
4095,-2,-195,0,4087.0,4077.0,2.0,4.0,-196.0,-197.0
4101,0,-198,0,4095.0,4087.0,-2.0,2.0,-195.0,-196.0
4106,-1,-196,0,4101.0,4095.0,0.0,-2.0,-198.0,-195.0
4110,-2,-196,0,4106.0,4101.0,-1.0,0.0,-196.0,-198.0
4107,-2,-198,0,4110.0,4106.0,-2.0,-1.0,-196.0,-196.0
4105,-1,-201,0,4107.0,4110.0,-2.0,-2.0,-198.0,-196.0
4103,-2,-207,0,4105.0,4107.0,-1.0,-2.0,-201.0,-198.0
4102,2,-208,0,4103.0,4105.0,-2.0,-1.0,-207.0,-201.0
4101,5,-209,0,4102.0,4103.0,2.0,-2.0,-208.0,-207.0
4100,7,-213,0,4101.0,4102.0,5.0,2.0,-209.0,-208.0
4101,6,-212,0,4100.0,4101.0,7.0,5.0,-213.0,-209.0
4101,11,-211,0,4101.0,4100.0,6.0,7.0,-212.0,-213.0
4103,16,-207,0,4101.0,4101.0,11.0,6.0,-211.0,-212.0
4102,16,-204,0,4103.0,4101.0,16.0,11.0,-207.0,-211.0
4102,16,-202,0,4102.0,4103.0,16.0,16.0,-204.0,-207.0
4101,17,-200,0,4102.0,4102.0,16.0,16.0,-202.0,-204.0
4100,21,-201,0,4101.0,4102.0,17.0,16.0,-200.0,-202.0
4099,22,-201,0,4100.0,4101.0,21.0,17.0,-201.0,-200.0
4100,25,-202,0,4099.0,4100.0,22.0,21.0,-201.0,-201.0
4100,27,-204,0,4100.0,4099.0,25.0,22.0,-202.0,-201.0
4100,29,-207,0,4100.0,4100.0,27.0,25.0,-204.0,-202.0
4100,31,-208,0,4100.0,4100.0,29.0,27.0,-207.0,-204.0
4100,29,-209,0,4100.0,4100.0,31.0,29.0,-208.0,-207.0
4101,28,-212,0,4100.0,4100.0,29.0,31.0,-209.0,-208.0
4100,31,-215,0,4101.0,4100.0,28.0,29.0,-212.0,-209.0
4101,32,-219,0,4100.0,4101.0,31.0,28.0,-215.0,-212.0
4100,34,-220,0,4101.0,4100.0,32.0,31.0,-219.0,-215.0
4101,34,-220,0,4100.0,4101.0,34.0,32.0,-220.0,-219.0
4102,34,-217,0,4101.0,4100.0,34.0,34.0,-220.0,-220.0
4102,36,-213,0,4102.0,4101.0,34.0,34.0,-217.0,-220.0
4102,36,-212,0,4102.0,4102.0,36.0,34.0,-213.0,-217.0
4101,34,-213,0,4102.0,4102.0,36.0,36.0,-212.0,-213.0
4101,31,-217,0,4101.0,4102.0,34.0,36.0,-213.0,-212.0
4100,31,-220,0,4101.0,4101.0,31.0,34.0,-217.0,-213.0
4099,25,-226,0,4100.0,4101.0,31.0,31.0,-220.0,-217.0
4097,23,-226,0,4099.0,4100.0,25.0,31.0,-226.0,-220.0
4094,19,-228,0,4097.0,4099.0,23.0,25.0,-226.0,-226.0
4096,21,-229,0,4094.0,4097.0,19.0,23.0,-228.0,-226.0
4095,16,-225,0,4096.0,4094.0,21.0,19.0,-229.0,-228.0
4098,12,-223,0,4095.0,4096.0,16.0,21.0,-225.0,-229.0
4099,9,-220,0,4098.0,4095.0,12.0,16.0,-223.0,-225.0
4100,9,-215,0,4099.0,4098.0,9.0,12.0,-220.0,-223.0
4096,9,-213,0,4100.0,4099.0,9.0,9.0,-215.0,-220.0
4098,11,-213,0,4096.0,4100.0,9.0,9.0,-213.0,-215.0
4098,7,-211,0,4098.0,4096.0,11.0,9.0,-213.0,-213.0
4093,9,-207,0,4098.0,4098.0,7.0,11.0,-211.0,-213.0
4090,12,-203,0,4093.0,4098.0,9.0,7.0,-207.0,-211.0
4089,15,-203,0,4090.0,4093.0,12.0,9.0,-203.0,-207.0
4088,14,-198,0,4089.0,4090.0,15.0,12.0,-203.0,-203.0
4091,13,-194,0,4088.0,4089.0,14.0,15.0,-198.0,-203.0
4094,11,-193,0,4091.0,4088.0,13.0,14.0,-194.0,-198.0
4093,12,-192,0,4094.0,4091.0,11.0,13.0,-193.0,-194.0
4095,15,-190,0,4093.0,4094.0,12.0,11.0,-192.0,-193.0
4095,16,-190,0,4095.0,4093.0,15.0,12.0,-190.0,-192.0
4095,15,-189,0,4095.0,4095.0,16.0,15.0,-190.0,-190.0
4095,17,-185,0,4095.0,4095.0,15.0,16.0,-189.0,-190.0
4092,18,-189,0,4095.0,4095.0,17.0,15.0,-185.0,-189.0
4086,17,-189,0,4092.0,4095.0,18.0,17.0,-189.0,-185.0
4085,11,-189,0,4086.0,4092.0,17.0,18.0,-189.0,-189.0
4082,11,-194,0,4085.0,4086.0,11.0,17.0,-189.0,-189.0
4084,10,-197,0,4082.0,4085.0,11.0,11.0,-194.0,-189.0
4083,8,-198,0,4084.0,4082.0,10.0,11.0,-197.0,-194.0
4082,6,-195,0,4083.0,4084.0,8.0,10.0,-198.0,-197.0
4080,2,-194,0,4082.0,4083.0,6.0,8.0,-195.0,-198.0
4082,-2,-196,0,4080.0,4082.0,2.0,6.0,-194.0,-195.0
4082,-4,-195,0,4082.0,4080.0,-2.0,2.0,-196.0,-194.0
4083,-2,-196,0,4082.0,4082.0,-4.0,-2.0,-195.0,-196.0
4086,2,-197,0,4083.0,4082.0,-2.0,-4.0,-196.0,-195.0
4089,12,-194,0,4086.0,4083.0,2.0,-2.0,-197.0,-196.0
4093,3,-198,0,4089.0,4086.0,12.0,2.0,-194.0,-197.0
4096,-1,-191,0,4093.0,4089.0,3.0,12.0,-198.0,-194.0
4098,0,-184,0,4096.0,4093.0,-1.0,3.0,-191.0,-198.0
4100,12,-177,0,4098.0,4096.0,0.0,-1.0,-184.0,-191.0
4100,16,-185,0,4100.0,4098.0,12.0,0.0,-177.0,-184.0
4101,16,-187,0,4100.0,4100.0,16.0,12.0,-185.0,-177.0
4106,15,-188,0,4101.0,4100.0,16.0,16.0,-187.0,-185.0
4105,12,-191,0,4106.0,4101.0,15.0,16.0,-188.0,-187.0
4107,9,-194,0,4105.0,4106.0,12.0,15.0,-191.0,-188.0
4107,9,-196,0,4107.0,4105.0,9.0,12.0,-194.0,-191.0
4108,7,-203,0,4107.0,4107.0,9.0,9.0,-196.0,-194.0
4107,4,-204,0,4108.0,4107.0,7.0,9.0,-203.0,-196.0
4105,2,-209,0,4107.0,4108.0,4.0,7.0,-204.0,-203.0
4104,-1,-207,0,4105.0,4107.0,2.0,4.0,-209.0,-204.0
4103,-1,-200,0,4104.0,4105.0,-1.0,2.0,-207.0,-209.0
4104,2,-185,0,4103.0,4104.0,-1.0,-1.0,-200.0,-207.0
4110,0,-171,0,4104.0,4103.0,2.0,-1.0,-185.0,-200.0
4112,0,-177,0,4110.0,4104.0,0.0,2.0,-171.0,-185.0
4106,4,-187,0,4112.0,4110.0,0.0,0.0,-177.0,-171.0
4100,4,-202,0,4106.0,4112.0,4.0,0.0,-187.0,-177.0
4085,2,-221,0,4100.0,4106.0,4.0,4.0,-202.0,-187.0
4075,0,-225,0,4085.0,4100.0,2.0,4.0,-221.0,-202.0
4071,-4,-221,0,4075.0,4085.0,0.0,2.0,-225.0,-221.0
4075,-2,-207,0,4071.0,4075.0,-4.0,0.0,-221.0,-225.0
4086,-3,-196,0,4075.0,4071.0,-2.0,-4.0,-207.0,-221.0
4094,-7,-192,0,4086.0,4075.0,-3.0,-2.0,-196.0,-207.0
4100,-10,-187,0,4094.0,4086.0,-7.0,-3.0,-192.0,-196.0
4106,-13,-186,0,4100.0,4094.0,-10.0,-7.0,-187.0,-192.0
4113,-16,-184,0,4106.0,4100.0,-13.0,-10.0,-186.0,-187.0
4108,-16,-174,0,4113.0,4106.0,-16.0,-13.0,-184.0,-186.0
4104,-14,-172,0,4108.0,4113.0,-16.0,-16.0,-174.0,-184.0
4102,-12,-182,0,4104.0,4108.0,-14.0,-16.0,-172.0,-174.0
4101,-10,-185,0,4102.0,4104.0,-12.0,-14.0,-182.0,-172.0
4101,-7,-191,0,4101.0,4102.0,-10.0,-12.0,-185.0,-182.0
4100,-5,-198,0,4101.0,4101.0,-7.0,-10.0,-191.0,-185.0
4100,-4,-200,0,4100.0,4101.0,-5.0,-7.0,-198.0,-191.0
4100,-4,-200,0,4100.0,4100.0,-4.0,-5.0,-200.0,-198.0
4100,-3,-195,0,4100.0,4100.0,-4.0,-4.0,-200.0,-200.0
4101,-1,-193,0,4100.0,4100.0,-3.0,-4.0,-195.0,-200.0
4100,2,-191,0,4101.0,4100.0,-1.0,-3.0,-193.0,-195.0
4099,9,-194,0,4100.0,4101.0,2.0,-1.0,-191.0,-193.0
4099,15,-193,0,4099.0,4100.0,9.0,2.0,-194.0,-191.0
4095,20,-198,0,4099.0,4099.0,15.0,9.0,-193.0,-194.0
4094,25,-201,0,4095.0,4099.0,20.0,15.0,-198.0,-193.0
4094,28,-198,0,4094.0,4095.0,25.0,20.0,-201.0,-198.0
4095,32,-200,0,4094.0,4094.0,28.0,25.0,-198.0,-201.0
4095,36,-201,0,4095.0,4094.0,32.0,28.0,-200.0,-198.0
4095,37,-198,0,4095.0,4095.0,36.0,32.0,-201.0,-200.0
4098,42,-198,0,4095.0,4095.0,37.0,36.0,-198.0,-201.0
4100,44,-196,0,4098.0,4095.0,42.0,37.0,-198.0,-198.0
4100,45,-195,0,4100.0,4098.0,44.0,42.0,-196.0,-198.0
4102,44,-196,0,4100.0,4100.0,45.0,44.0,-195.0,-196.0
4101,47,-196,0,4102.0,4100.0,44.0,45.0,-196.0,-195.0
4101,48,-199,0,4101.0,4102.0,47.0,44.0,-196.0,-196.0
4104,52,-202,0,4101.0,4101.0,48.0,47.0,-199.0,-196.0
4104,56,-202,0,4104.0,4101.0,52.0,48.0,-202.0,-199.0
4102,54,-204,0,4104.0,4104.0,56.0,52.0,-202.0,-202.0
4102,56,-205,0,4102.0,4104.0,54.0,56.0,-204.0,-202.0
4102,53,-210,0,4102.0,4102.0,56.0,54.0,-205.0,-204.0
4102,50,-215,0,4102.0,4102.0,53.0,56.0,-210.0,-205.0
4102,48,-215,0,4102.0,4102.0,50.0,53.0,-215.0,-210.0
4101,49,-213,0,4102.0,4102.0,48.0,50.0,-215.0,-215.0
4100,47,-213,0,4101.0,4102.0,49.0,48.0,-213.0,-215.0
4100,43,-215,0,4100.0,4101.0,47.0,49.0,-213.0,-213.0
4100,45,-218,0,4100.0,4100.0,43.0,47.0,-215.0,-213.0
4100,46,-215,0,4100.0,4100.0,45.0,43.0,-218.0,-215.0
4101,43,-215,0,4100.0,4100.0,46.0,45.0,-215.0,-218.0
4100,45,-214,0,4101.0,4100.0,43.0,46.0,-215.0,-215.0
4101,44,-216,0,4100.0,4101.0,45.0,43.0,-214.0,-215.0
4102,46,-216,0,4101.0,4100.0,44.0,45.0,-216.0,-214.0
4102,44,-208,0,4102.0,4101.0,46.0,44.0,-216.0,-216.0
4101,42,-204,0,4102.0,4102.0,44.0,46.0,-208.0,-216.0
4101,42,-200,0,4101.0,4102.0,42.0,44.0,-204.0,-208.0
4100,40,-199,0,4101.0,4101.0,42.0,42.0,-200.0,-204.0
4100,34,-197,0,4100.0,4101.0,40.0,42.0,-199.0,-200.0
4100,30,-195,0,4100.0,4100.0,34.0,40.0,-197.0,-199.0
4100,29,-195,0,4100.0,4100.0,30.0,34.0,-195.0,-197.0
4099,31,-196,0,4100.0,4100.0,29.0,30.0,-195.0,-195.0
4100,28,-196,0,4099.0,4100.0,31.0,29.0,-196.0,-195.0
4099,25,-193,0,4100.0,4099.0,28.0,31.0,-196.0,-196.0
4099,22,-192,0,4099.0,4100.0,25.0,28.0,-193.0,-196.0
4100,22,-194,0,4099.0,4099.0,22.0,25.0,-192.0,-193.0
4100,21,-198,0,4100.0,4099.0,22.0,22.0,-194.0,-192.0
4099,18,-195,0,4100.0,4100.0,21.0,22.0,-198.0,-194.0
4097,13,-198,0,4099.0,4100.0,18.0,21.0,-195.0,-198.0
4097,12,-199,0,4097.0,4099.0,13.0,18.0,-198.0,-195.0
4098,10,-195,0,4097.0,4097.0,12.0,13.0,-199.0,-198.0
4097,10,-194,0,4098.0,4097.0,10.0,12.0,-195.0,-199.0
4095,6,-196,0,4097.0,4098.0,10.0,10.0,-194.0,-195.0
4094,6,-202,0,4095.0,4097.0,6.0,10.0,-196.0,-194.0
4096,7,-203,0,4094.0,4095.0,6.0,6.0,-202.0,-196.0
4098,11,-203,0,4096.0,4094.0,7.0,6.0,-203.0,-202.0
4099,12,-200,0,4098.0,4096.0,11.0,7.0,-203.0,-203.0
4098,17,-200,0,4099.0,4098.0,12.0,11.0,-200.0,-203.0
4099,16,-200,0,4098.0,4099.0,17.0,12.0,-200.0,-200.0
4100,17,-205,0,4099.0,4098.0,16.0,17.0,-200.0,-200.0
4099,18,-203,0,4100.0,4099.0,17.0,16.0,-205.0,-200.0
4099,22,-203,0,4099.0,4100.0,18.0,17.0,-203.0,-205.0
4100,24,-196,0,4099.0,4099.0,22.0,18.0,-203.0,-203.0
4100,26,-193,0,4100.0,4099.0,24.0,22.0,-196.0,-203.0
4100,28,-188,0,4100.0,4100.0,26.0,24.0,-193.0,-196.0
4100,35,-182,0,4100.0,4100.0,28.0,26.0,-188.0,-193.0
4101,36,-185,0,4100.0,4100.0,35.0,28.0,-182.0,-188.0
4102,36,-188,0,4101.0,4100.0,36.0,35.0,-185.0,-182.0
4105,33,-191,0,4102.0,4101.0,36.0,36.0,-188.0,-185.0
4104,32,-197,0,4105.0,4102.0,33.0,36.0,-191.0,-188.0
4105,28,-206,0,4104.0,4105.0,32.0,33.0,-197.0,-191.0
4105,26,-209,0,4105.0,4104.0,28.0,32.0,-206.0,-197.0
4103,22,-214,0,4105.0,4105.0,26.0,28.0,-209.0,-206.0
4101,18,-217,0,4103.0,4105.0,22.0,26.0,-214.0,-209.0
4101,17,-214,0,4101.0,4103.0,18.0,22.0,-217.0,-214.0
4100,18,-206,0,4101.0,4101.0,17.0,18.0,-214.0,-217.0
4100,14,-191,0,4100.0,4101.0,18.0,17.0,-206.0,-214.0
4101,12,-179,0,4100.0,4100.0,14.0,18.0,-191.0,-206.0
4101,17,-177,0,4101.0,4100.0,12.0,14.0,-179.0,-191.0
4100,22,-188,0,4101.0,4101.0,17.0,12.0,-177.0,-179.0
4096,22,-205,0,4100.0,4101.0,22.0,17.0,-188.0,-177.0
4088,17,-222,0,4096.0,4100.0,22.0,22.0,-205.0,-188.0
4081,15,-226,0,4088.0,4096.0,17.0,22.0,-222.0,-205.0
4080,12,-219,0,4081.0,4088.0,15.0,17.0,-226.0,-222.0
4081,10,-206,0,4080.0,4081.0,12.0,15.0,-219.0,-226.0
4090,12,-194,0,4081.0,4080.0,10.0,12.0,-206.0,-219.0
4097,12,-182,0,4090.0,4081.0,12.0,10.0,-194.0,-206.0
4104,8,-177,0,4097.0,4090.0,12.0,12.0,-182.0,-194.0
4109,7,-173,0,4104.0,4097.0,8.0,12.0,-177.0,-182.0
4114,12,-172,0,4109.0,4104.0,7.0,8.0,-173.0,-177.0
4109,13,-172,0,4114.0,4109.0,12.0,7.0,-172.0,-173.0
4107,10,-172,0,4109.0,4114.0,13.0,12.0,-172.0,-172.0
4104,15,-174,0,4107.0,4109.0,10.0,13.0,-172.0,-172.0
4102,17,-177,0,4104.0,4107.0,15.0,10.0,-174.0,-172.0
4097,15,-186,0,4102.0,4104.0,17.0,15.0,-177.0,-174.0
4097,16,-188,0,4097.0,4102.0,15.0,17.0,-186.0,-177.0
4097,17,-192,0,4097.0,4097.0,16.0,15.0,-188.0,-186.0
4098,21,-192,0,4097.0,4097.0,17.0,16.0,-192.0,-188.0
4098,16,-188,0,4098.0,4097.0,21.0,17.0,-192.0,-192.0
4094,18,-186,0,4098.0,4098.0,16.0,21.0,-188.0,-192.0
4094,17,-180,0,4094.0,4098.0,18.0,16.0,-186.0,-188.0
4094,17,-174,0,4094.0,4094.0,17.0,18.0,-180.0,-186.0
4092,18,-176,0,4094.0,4094.0,17.0,17.0,-174.0,-180.0
4092,14,-179,0,4092.0,4094.0,18.0,17.0,-176.0,-174.0
4095,13,-185,0,4092.0,4092.0,14.0,18.0,-179.0,-176.0
4097,14,-187,0,4095.0,4092.0,13.0,14.0,-185.0,-179.0
4098,8,-188,0,4097.0,4095.0,14.0,13.0,-187.0,-185.0
4099,5,-187,0,4098.0,4097.0,8.0,14.0,-188.0,-187.0
4100,6,-186,0,4099.0,4098.0,5.0,8.0,-187.0,-188.0
4100,3,-189,0,4100.0,4099.0,6.0,5.0,-186.0,-187.0
4100,3,-194,0,4100.0,4100.0,3.0,6.0,-189.0,-186.0
4099,2,-196,0,4100.0,4100.0,3.0,3.0,-194.0,-189.0
4100,0,-200,0,4099.0,4100.0,2.0,3.0,-196.0,-194.0
4100,1,-202,0,4100.0,4099.0,0.0,2.0,-200.0,-196.0
4100,0,-202,0,4100.0,4100.0,1.0,0.0,-202.0,-200.0
4100,4,-204,0,4100.0,4100.0,0.0,1.0,-202.0,-202.0
4100,6,-203,0,4100.0,4100.0,4.0,0.0,-204.0,-202.0
4100,3,-203,0,4100.0,4100.0,6.0,4.0,-203.0,-204.0
4100,1,-205,0,4100.0,4100.0,3.0,6.0,-203.0,-203.0
4100,1,-202,0,4100.0,4100.0,1.0,3.0,-205.0,-203.0
4100,0,-198,0,4100.0,4100.0,1.0,1.0,-202.0,-205.0
4099,1,-202,0,4100.0,4100.0,0.0,1.0,-198.0,-202.0
4098,-1,-205,0,4099.0,4100.0,1.0,0.0,-202.0,-198.0
4097,1,-206,0,4098.0,4099.0,-1.0,1.0,-205.0,-202.0
4099,0,-206,0,4097.0,4098.0,1.0,-1.0,-206.0,-205.0
4099,1,-203,0,4099.0,4097.0,0.0,1.0,-206.0,-206.0
4100,4,-205,0,4099.0,4099.0,1.0,0.0,-203.0,-206.0
4100,2,-201,0,4100.0,4099.0,4.0,1.0,-205.0,-203.0
4100,1,-202,0,4100.0,4100.0,2.0,4.0,-201.0,-205.0
4100,2,-199,0,4100.0,4100.0,1.0,2.0,-202.0,-201.0
4100,3,-199,0,4100.0,4100.0,2.0,1.0,-199.0,-202.0
4100,4,-200,0,4100.0,4100.0,3.0,2.0,-199.0,-199.0
4100,2,-204,0,4100.0,4100.0,4.0,3.0,-200.0,-199.0
4099,6,-203,0,4100.0,4100.0,2.0,4.0,-204.0,-200.0
4096,9,-206,0,4099.0,4100.0,6.0,2.0,-203.0,-204.0
4098,10,-202,0,4096.0,4099.0,9.0,6.0,-206.0,-203.0
4100,9,-197,0,4098.0,4096.0,10.0,9.0,-202.0,-206.0
4100,12,-188,0,4100.0,4098.0,9.0,10.0,-197.0,-202.0
4100,17,-187,0,4100.0,4100.0,12.0,9.0,-188.0,-197.0
4101,15,-191,0,4100.0,4100.0,17.0,12.0,-187.0,-188.0
4101,16,-194,0,4101.0,4100.0,15.0,17.0,-191.0,-187.0
4101,16,-192,0,4101.0,4101.0,16.0,15.0,-194.0,-191.0
4101,21,-190,0,4101.0,4101.0,16.0,16.0,-192.0,-194.0
4101,20,-191,0,4101.0,4101.0,21.0,16.0,-190.0,-192.0
4101,20,-188,0,4101.0,4101.0,20.0,21.0,-191.0,-190.0
4100,21,-191,0,4101.0,4101.0,20.0,20.0,-188.0,-191.0
4100,22,-197,0,4100.0,4101.0,21.0,20.0,-191.0,-188.0
4100,20,-205,0,4100.0,4100.0,22.0,21.0,-197.0,-191.0
4100,18,-207,0,4100.0,4100.0,20.0,22.0,-205.0,-197.0
4100,17,-212,0,4100.0,4100.0,18.0,20.0,-207.0,-205.0
4100,16,-208,0,4100.0,4100.0,17.0,18.0,-212.0,-207.0
4100,14,-207,0,4100.0,4100.0,16.0,17.0,-208.0,-212.0
4101,16,-209,0,4100.0,4100.0,14.0,16.0,-207.0,-208.0
4101,16,-212,0,4101.0,4100.0,16.0,14.0,-209.0,-207.0
4101,12,-210,0,4101.0,4101.0,16.0,16.0,-212.0,-209.0
4101,9,-215,0,4101.0,4101.0,12.0,16.0,-210.0,-212.0
4101,13,-215,0,4101.0,4101.0,9.0,12.0,-215.0,-210.0
4101,12,-213,0,4101.0,4101.0,13.0,9.0,-215.0,-215.0
4101,11,-216,0,4101.0,4101.0,12.0,13.0,-213.0,-215.0
4101,11,-219,0,4101.0,4101.0,11.0,12.0,-216.0,-213.0
4100,15,-218,0,4101.0,4101.0,11.0,11.0,-219.0,-216.0
4100,18,-219,0,4100.0,4101.0,15.0,11.0,-218.0,-219.0
4102,18,-213,0,4100.0,4100.0,18.0,15.0,-219.0,-218.0
4103,15,-214,0,4102.0,4100.0,18.0,18.0,-213.0,-219.0
4102,15,-209,0,4103.0,4102.0,15.0,18.0,-214.0,-213.0
4103,15,-209,0,4102.0,4103.0,15.0,15.0,-209.0,-214.0
4102,14,-213,0,4103.0,4102.0,15.0,15.0,-209.0,-209.0
4101,11,-219,0,4102.0,4103.0,14.0,15.0,-213.0,-209.0
4102,14,-221,0,4101.0,4102.0,11.0,14.0,-219.0,-213.0
4103,14,-228,0,4102.0,4101.0,14.0,11.0,-221.0,-219.0
4102,10,-231,0,4103.0,4102.0,14.0,14.0,-228.0,-221.0
4101,7,-232,0,4102.0,4103.0,10.0,14.0,-231.0,-228.0
4101,5,-233,0,4101.0,4102.0,7.0,10.0,-232.0,-231.0
4100,2,-230,0,4101.0,4101.0,5.0,7.0,-233.0,-232.0
4101,0,-218,0,4100.0,4101.0,2.0,5.0,-230.0,-233.0
4100,0,-203,0,4101.0,4100.0,0.0,2.0,-218.0,-230.0
4101,-3,-190,0,4100.0,4101.0,0.0,0.0,-203.0,-218.0
4101,-2,-184,0,4101.0,4100.0,-3.0,0.0,-190.0,-203.0
4100,1,-193,0,4101.0,4101.0,-2.0,-3.0,-184.0,-190.0
4096,1,-204,0,4100.0,4101.0,1.0,-2.0,-193.0,-184.0
4089,-2,-220,0,4096.0,4100.0,1.0,1.0,-204.0,-193.0
4079,-6,-224,0,4089.0,4096.0,-2.0,1.0,-220.0,-204.0
4077,-8,-219,0,4079.0,4089.0,-6.0,-2.0,-224.0,-220.0
4079,-10,-210,0,4077.0,4079.0,-8.0,-6.0,-219.0,-224.0
4088,-10,-204,0,4079.0,4077.0,-10.0,-8.0,-210.0,-219.0
4094,-11,-197,0,4088.0,4079.0,-10.0,-10.0,-204.0,-210.0
4097,-9,-194,0,4094.0,4088.0,-11.0,-10.0,-197.0,-204.0
4099,-7,-194,0,4097.0,4094.0,-9.0,-11.0,-194.0,-197.0
4100,-7,-192,0,4099.0,4097.0,-7.0,-9.0,-194.0,-194.0
4100,-7,-187,0,4100.0,4099.0,-7.0,-7.0,-192.0,-194.0
4100,-5,-182,0,4100.0,4100.0,-7.0,-7.0,-187.0,-192.0
4099,-4,-185,0,4100.0,4100.0,-5.0,-7.0,-182.0,-187.0
4091,-3,-189,0,4099.0,4100.0,-4.0,-5.0,-185.0,-182.0
4088,-3,-195,0,4091.0,4099.0,-3.0,-4.0,-189.0,-185.0
4087,-2,-201,0,4088.0,4091.0,-3.0,-3.0,-195.0,-189.0
4091,-1,-207,0,4087.0,4088.0,-2.0,-3.0,-201.0,-195.0
4095,0,-204,0,4091.0,4087.0,-1.0,-2.0,-207.0,-201.0
4098,3,-201,0,4095.0,4091.0,0.0,-1.0,-204.0,-207.0
4099,4,-202,0,4098.0,4095.0,3.0,0.0,-201.0,-204.0
4101,4,-202,0,4099.0,4098.0,4.0,3.0,-202.0,-201.0
4101,2,-203,0,4101.0,4099.0,4.0,4.0,-202.0,-202.0
4101,3,-204,0,4101.0,4101.0,2.0,4.0,-203.0,-202.0
4100,7,-205,0,4101.0,4101.0,3.0,2.0,-204.0,-203.0
4100,6,-208,0,4100.0,4101.0,7.0,3.0,-205.0,-204.0
4098,10,-208,0,4100.0,4100.0,6.0,7.0,-208.0,-205.0
4100,12,-212,0,4098.0,4100.0,10.0,6.0,-208.0,-208.0
4101,17,-210,0,4100.0,4098.0,12.0,10.0,-212.0,-208.0
4104,22,-210,0,4101.0,4100.0,17.0,12.0,-210.0,-212.0
4108,24,-205,0,4104.0,4101.0,22.0,17.0,-210.0,-210.0
4112,21,-196,0,4108.0,4104.0,24.0,22.0,-205.0,-210.0
4118,19,-190,0,4112.0,4108.0,21.0,24.0,-196.0,-205.0
4116,21,-182,0,4118.0,4112.0,19.0,21.0,-190.0,-196.0
4114,19,-181,0,4116.0,4118.0,21.0,19.0,-182.0,-190.0
4110,18,-183,0,4114.0,4116.0,19.0,21.0,-181.0,-182.0
4106,16,-186,0,4110.0,4114.0,18.0,19.0,-183.0,-181.0
4103,17,-188,0,4106.0,4110.0,16.0,18.0,-186.0,-183.0
4101,13,-191,0,4103.0,4106.0,17.0,16.0,-188.0,-186.0
4097,9,-193,0,4101.0,4103.0,13.0,17.0,-191.0,-188.0
4095,5,-193,0,4097.0,4101.0,9.0,13.0,-193.0,-191.0
4093,0,-194,0,4095.0,4097.0,5.0,9.0,-193.0,-193.0
4086,-1,-195,0,4093.0,4095.0,0.0,5.0,-194.0,-193.0
4090,-3,-190,0,4086.0,4093.0,-1.0,0.0,-195.0,-194.0
4094,-4,-193,0,4090.0,4086.0,-3.0,-1.0,-190.0,-195.0
4093,-7,-188,0,4094.0,4090.0,-4.0,-3.0,-193.0,-190.0
4095,-11,-186,0,4093.0,4094.0,-7.0,-4.0,-188.0,-193.0
4094,-19,-182,0,4095.0,4093.0,-11.0,-7.0,-186.0,-188.0
4091,-19,-187,0,4094.0,4095.0,-19.0,-11.0,-182.0,-186.0
4085,-19,-189,0,4091.0,4094.0,-19.0,-19.0,-187.0,-182.0
4082,-17,-191,0,4085.0,4091.0,-19.0,-19.0,-189.0,-187.0
4082,-18,-199,0,4082.0,4085.0,-17.0,-19.0,-191.0,-189.0
4079,-20,-198,0,4082.0,4082.0,-18.0,-17.0,-199.0,-191.0
4076,-25,-197,0,4079.0,4082.0,-20.0,-18.0,-198.0,-199.0
4077,-26,-194,0,4076.0,4079.0,-25.0,-20.0,-197.0,-198.0
4083,-25,-188,0,4077.0,4076.0,-26.0,-25.0,-194.0,-197.0
4091,-25,-186,0,4083.0,4077.0,-25.0,-26.0,-188.0,-194.0
4096,-30,-181,0,4091.0,4083.0,-25.0,-25.0,-186.0,-188.0
4098,-30,-178,0,4096.0,4091.0,-30.0,-25.0,-181.0,-186.0
4099,-32,-176,0,4098.0,4096.0,-30.0,-30.0,-178.0,-181.0
4099,-30,-177,0,4099.0,4098.0,-32.0,-30.0,-176.0,-178.0
4100,-27,-179,0,4099.0,4099.0,-30.0,-32.0,-177.0,-176.0
4101,-30,-180,0,4100.0,4099.0,-27.0,-30.0,-179.0,-177.0
4101,-30,-182,0,4101.0,4100.0,-30.0,-27.0,-180.0,-179.0
4101,-25,-186,0,4101.0,4101.0,-30.0,-30.0,-182.0,-180.0
4100,-23,-188,0,4101.0,4101.0,-25.0,-30.0,-186.0,-182.0
4101,-21,-191,0,4100.0,4101.0,-23.0,-25.0,-188.0,-186.0
4100,-19,-194,0,4101.0,4100.0,-21.0,-23.0,-191.0,-188.0
4097,-14,-198,0,4100.0,4101.0,-19.0,-21.0,-194.0,-191.0
4097,-10,-199,0,4097.0,4100.0,-14.0,-19.0,-198.0,-194.0
4097,-8,-200,0,4097.0,4097.0,-10.0,-14.0,-199.0,-198.0
4097,-5,-199,0,4097.0,4097.0,-8.0,-10.0,-200.0,-199.0
4099,-5,-199,0,4097.0,4097.0,-5.0,-8.0,-199.0,-200.0
4099,-4,-200,0,4099.0,4097.0,-5.0,-5.0,-199.0,-199.0
4100,-2,-199,0,4099.0,4099.0,-4.0,-5.0,-200.0,-199.0
4097,-1,-201,0,4100.0,4099.0,-2.0,-4.0,-199.0,-200.0
4098,1,-204,0,4097.0,4100.0,-1.0,-2.0,-201.0,-199.0
4099,2,-209,0,4098.0,4097.0,1.0,-1.0,-204.0,-201.0
4099,2,-208,0,4099.0,4098.0,2.0,1.0,-209.0,-204.0
4100,2,-207,0,4099.0,4099.0,2.0,2.0,-208.0,-209.0
4100,5,-202,0,4100.0,4099.0,2.0,2.0,-207.0,-208.0
4101,6,-196,0,4100.0,4100.0,5.0,2.0,-202.0,-207.0
4102,8,-192,0,4101.0,4100.0,6.0,5.0,-196.0,-202.0
4102,12,-188,0,4102.0,4101.0,8.0,6.0,-192.0,-196.0
4102,12,-187,0,4102.0,4102.0,12.0,8.0,-188.0,-192.0
4101,10,-188,0,4102.0,4102.0,12.0,12.0,-187.0,-188.0
4101,6,-190,0,4101.0,4102.0,10.0,12.0,-188.0,-187.0
4101,5,-197,0,4101.0,4101.0,6.0,10.0,-190.0,-188.0
4100,3,-202,0,4101.0,4101.0,5.0,6.0,-197.0,-190.0
4101,1,-209,0,4100.0,4101.0,3.0,5.0,-202.0,-197.0
4101,-1,-219,0,4101.0,4100.0,1.0,3.0,-209.0,-202.0
4101,-3,-223,0,4101.0,4101.0,-1.0,1.0,-219.0,-209.0
4101,-4,-230,0,4101.0,4101.0,-3.0,-1.0,-223.0,-219.0
4100,-5,-238,0,4101.0,4101.0,-4.0,-3.0,-230.0,-223.0
4100,-5,-239,0,4100.0,4101.0,-5.0,-4.0,-238.0,-230.0
4097,-4,-234,0,4100.0,4100.0,-5.0,-5.0,-239.0,-238.0
4098,-2,-217,0,4097.0,4100.0,-4.0,-5.0,-234.0,-239.0
4099,-2,-196,0,4098.0,4097.0,-2.0,-4.0,-217.0,-234.0
4100,-1,-184,0,4099.0,4098.0,-2.0,-2.0,-196.0,-217.0
4100,3,-185,0,4100.0,4099.0,-1.0,-2.0,-184.0,-196.0
4099,3,-194,0,4100.0,4100.0,3.0,-1.0,-185.0,-184.0
4089,-1,-200,0,4099.0,4100.0,3.0,3.0,-194.0,-185.0
4081,-5,-209,0,4089.0,4099.0,-1.0,3.0,-200.0,-194.0
4079,-6,-207,0,4081.0,4089.0,-5.0,-1.0,-209.0,-200.0
4086,-4,-200,0,4079.0,4081.0,-6.0,-5.0,-207.0,-209.0
4093,-3,-191,0,4086.0,4079.0,-4.0,-6.0,-200.0,-207.0
4097,-3,-182,0,4093.0,4086.0,-3.0,-4.0,-191.0,-200.0
4099,-5,-179,0,4097.0,4093.0,-3.0,-3.0,-182.0,-191.0
4101,-6,-180,0,4099.0,4097.0,-5.0,-3.0,-179.0,-182.0
4106,-5,-182,0,4101.0,4099.0,-6.0,-5.0,-180.0,-179.0
4107,-4,-184,0,4106.0,4101.0,-5.0,-6.0,-182.0,-180.0
4107,-4,-185,0,4107.0,4106.0,-4.0,-5.0,-184.0,-182.0
4104,-3,-189,0,4107.0,4107.0,-4.0,-4.0,-185.0,-184.0
4102,-5,-194,0,4104.0,4107.0,-3.0,-4.0,-189.0,-185.0
4101,-5,-201,0,4102.0,4104.0,-5.0,-3.0,-194.0,-189.0
4101,-4,-209,0,4101.0,4102.0,-5.0,-5.0,-201.0,-194.0
4101,-4,-217,0,4101.0,4101.0,-4.0,-5.0,-209.0,-201.0
4101,-4,-218,0,4101.0,4101.0,-4.0,-4.0,-217.0,-209.0
4102,-1,-219,0,4101.0,4101.0,-4.0,-4.0,-218.0,-217.0
4102,-3,-211,0,4102.0,4101.0,-1.0,-4.0,-219.0,-218.0
4103,0,-205,0,4102.0,4102.0,-3.0,-1.0,-211.0,-219.0
4102,3,-198,0,4103.0,4102.0,0.0,-3.0,-205.0,-211.0
4102,3,-197,0,4102.0,4103.0,3.0,0.0,-198.0,-205.0
4102,3,-193,0,4102.0,4102.0,3.0,3.0,-197.0,-198.0
4101,2,-192,0,4102.0,4102.0,3.0,3.0,-193.0,-197.0
4100,4,-189,0,4101.0,4102.0,2.0,3.0,-192.0,-193.0
4100,11,-188,0,4100.0,4101.0,4.0,2.0,-189.0,-192.0
4100,14,-190,0,4100.0,4100.0,11.0,4.0,-188.0,-189.0
4100,14,-191,0,4100.0,4100.0,14.0,11.0,-190.0,-188.0
4100,11,-192,0,4100.0,4100.0,14.0,14.0,-191.0,-190.0
4100,9,-190,0,4100.0,4100.0,11.0,14.0,-192.0,-191.0
4100,10,-187,0,4100.0,4100.0,9.0,11.0,-190.0,-192.0
4100,11,-188,0,4100.0,4100.0,10.0,9.0,-187.0,-190.0
4098,12,-187,0,4100.0,4100.0,11.0,10.0,-188.0,-187.0
4097,13,-185,0,4098.0,4100.0,12.0,11.0,-187.0,-188.0
4088,12,-186,0,4097.0,4098.0,13.0,12.0,-185.0,-187.0
4086,13,-188,0,4088.0,4097.0,12.0,13.0,-186.0,-185.0
4081,9,-187,0,4086.0,4088.0,13.0,12.0,-188.0,-186.0
4080,5,-185,0,4081.0,4086.0,9.0,13.0,-187.0,-188.0
4077,1,-187,0,4080.0,4081.0,5.0,9.0,-185.0,-187.0
4077,2,-190,0,4077.0,4080.0,1.0,5.0,-187.0,-185.0
4076,2,-192,0,4077.0,4077.0,2.0,1.0,-190.0,-187.0
4077,1,-195,0,4076.0,4077.0,2.0,2.0,-192.0,-190.0
4077,-2,-193,0,4077.0,4076.0,1.0,2.0,-195.0,-192.0
4077,-8,-188,0,4077.0,4077.0,-2.0,1.0,-193.0,-195.0
4079,-12,-181,0,4077.0,4077.0,-8.0,-2.0,-188.0,-193.0
4088,-13,-180,0,4079.0,4077.0,-12.0,-8.0,-181.0,-188.0
4093,-9,-183,0,4088.0,4079.0,-13.0,-12.0,-180.0,-181.0
4096,-9,-185,0,4093.0,4088.0,-9.0,-13.0,-183.0,-180.0
4098,-13,-182,0,4096.0,4093.0,-9.0,-9.0,-185.0,-183.0
4100,-15,-179,0,4098.0,4096.0,-13.0,-9.0,-182.0,-185.0
4100,-17,-180,0,4100.0,4098.0,-15.0,-13.0,-179.0,-182.0
4101,-14,-182,0,4100.0,4100.0,-17.0,-15.0,-180.0,-179.0
4101,-13,-184,0,4101.0,4100.0,-14.0,-17.0,-182.0,-180.0
4102,-10,-186,0,4101.0,4101.0,-13.0,-14.0,-184.0,-182.0
4103,-9,-188,0,4102.0,4101.0,-10.0,-13.0,-186.0,-184.0
4104,-7,-189,0,4103.0,4102.0,-9.0,-10.0,-188.0,-186.0
4103,-9,-190,0,4104.0,4103.0,-7.0,-9.0,-189.0,-188.0
4103,-10,-189,0,4103.0,4104.0,-9.0,-7.0,-190.0,-189.0
4106,-7,-192,0,4103.0,4103.0,-10.0,-9.0,-189.0,-190.0
4104,-5,-196,0,4106.0,4103.0,-7.0,-10.0,-192.0,-189.0
4102,-4,-197,0,4104.0,4106.0,-5.0,-7.0,-196.0,-192.0
4104,-2,-199,0,4102.0,4104.0,-4.0,-5.0,-197.0,-196.0
4106,-3,-203,0,4104.0,4102.0,-2.0,-4.0,-199.0,-197.0
4104,-4,-206,0,4106.0,4104.0,-3.0,-2.0,-203.0,-199.0
4106,-6,-209,0,4104.0,4106.0,-4.0,-3.0,-206.0,-203.0
4109,-5,-205,0,4106.0,4104.0,-6.0,-4.0,-209.0,-206.0
4108,-5,-205,0,4109.0,4106.0,-5.0,-6.0,-205.0,-209.0
4105,-4,-207,0,4108.0,4109.0,-5.0,-5.0,-205.0,-205.0
4103,-4,-213,0,4105.0,4108.0,-4.0,-5.0,-207.0,-205.0
4102,-5,-210,0,4103.0,4105.0,-4.0,-4.0,-213.0,-207.0
4100,-4,-212,0,4102.0,4103.0,-5.0,-4.0,-210.0,-213.0
4100,-4,-212,0,4100.0,4102.0,-4.0,-5.0,-212.0,-210.0
4100,-4,-211,0,4100.0,4100.0,-4.0,-4.0,-212.0,-212.0
4097,-6,-216,0,4100.0,4100.0,-4.0,-4.0,-211.0,-212.0
4095,-5,-217,0,4097.0,4100.0,-6.0,-4.0,-216.0,-211.0
4097,-5,-215,0,4095.0,4097.0,-5.0,-6.0,-217.0,-216.0
4099,-5,-210,0,4097.0,4095.0,-5.0,-5.0,-215.0,-217.0
4099,-5,-203,0,4099.0,4097.0,-5.0,-5.0,-210.0,-215.0
4098,-5,-198,0,4099.0,4099.0,-5.0,-5.0,-203.0,-210.0
4099,-1,-190,0,4098.0,4099.0,-5.0,-5.0,-198.0,-203.0
4099,0,-189,0,4099.0,4098.0,-1.0,-5.0,-190.0,-198.0
4100,-1,-190,0,4099.0,4099.0,0.0,-1.0,-189.0,-190.0
4100,-2,-193,0,4100.0,4099.0,-1.0,0.0,-190.0,-189.0
4102,-2,-193,0,4100.0,4100.0,-2.0,-1.0,-193.0,-190.0
4102,-3,-199,0,4102.0,4100.0,-2.0,-2.0,-193.0,-193.0
4101,-9,-203,0,4102.0,4102.0,-3.0,-2.0,-199.0,-193.0
4099,-10,-216,0,4101.0,4102.0,-9.0,-3.0,-203.0,-199.0
4091,-10,-226,0,4099.0,4101.0,-10.0,-9.0,-216.0,-203.0
4085,-18,-234,0,4091.0,4099.0,-10.0,-10.0,-226.0,-216.0
4075,-19,-237,0,4085.0,4091.0,-18.0,-10.0,-234.0,-226.0
4064,-20,-234,0,4075.0,4085.0,-19.0,-18.0,-237.0,-234.0
4062,-16,-224,0,4064.0,4075.0,-20.0,-19.0,-234.0,-237.0
4068,-13,-209,0,4062.0,4064.0,-16.0,-20.0,-224.0,-234.0
4069,-12,-182,0,4068.0,4062.0,-13.0,-16.0,-209.0,-224.0
4078,-11,-155,0,4069.0,4068.0,-12.0,-13.0,-182.0,-209.0
4089,-6,-136,0,4078.0,4069.0,-11.0,-12.0,-155.0,-182.0
4094,-2,-140,0,4089.0,4078.0,-6.0,-11.0,-136.0,-155.0
4089,3,-156,0,4094.0,4089.0,-2.0,-6.0,-140.0,-136.0
4080,1,-181,0,4089.0,4094.0,3.0,-2.0,-156.0,-140.0
4073,-4,-196,0,4080.0,4089.0,1.0,3.0,-181.0,-156.0
4068,-5,-200,0,4073.0,4080.0,-4.0,1.0,-196.0,-181.0
4069,-2,-193,0,4068.0,4073.0,-5.0,-4.0,-200.0,-196.0
4078,-2,-190,0,4069.0,4068.0,-2.0,-5.0,-193.0,-200.0
4089,0,-190,0,4078.0,4069.0,-2.0,-2.0,-190.0,-193.0
4096,9,-189,0,4089.0,4078.0,0.0,-2.0,-190.0,-190.0
4102,12,-192,0,4096.0,4089.0,9.0,0.0,-189.0,-190.0
4107,13,-187,0,4102.0,4096.0,12.0,9.0,-192.0,-189.0
4110,15,-180,0,4107.0,4102.0,13.0,12.0,-187.0,-192.0
4115,23,-178,0,4110.0,4107.0,15.0,13.0,-180.0,-187.0
4118,34,-175,0,4115.0,4110.0,23.0,15.0,-178.0,-180.0
4121,36,-176,0,4118.0,4115.0,34.0,23.0,-175.0,-178.0
4116,33,-186,0,4121.0,4118.0,36.0,34.0,-176.0,-175.0
4113,32,-195,0,4116.0,4121.0,33.0,36.0,-186.0,-176.0
4108,32,-202,0,4113.0,4116.0,32.0,33.0,-195.0,-186.0
4104,36,-214,0,4108.0,4113.0,32.0,32.0,-202.0,-195.0
4103,34,-218,0,4104.0,4108.0,36.0,32.0,-214.0,-202.0
4102,30,-225,0,4103.0,4104.0,34.0,36.0,-218.0,-214.0
4101,25,-209,0,4102.0,4103.0,30.0,34.0,-225.0,-218.0
4100,14,-210,0,4101.0,4102.0,25.0,30.0,-209.0,-225.0
4100,12,-208,0,4100.0,4101.0,14.0,25.0,-210.0,-209.0
4100,21,-202,0,4100.0,4100.0,12.0,14.0,-208.0,-210.0
4102,41,-194,0,4100.0,4100.0,21.0,12.0,-202.0,-208.0
4107,39,-187,0,4102.0,4100.0,41.0,21.0,-194.0,-202.0
4109,103,-209,0,4107.0,4102.0,39.0,41.0,-187.0,-194.0
4127,48,-169,0,4109.0,4107.0,103.0,39.0,-209.0,-187.0
4128,16,-145,0,4127.0,4109.0,48.0,103.0,-169.0,-209.0
4135,26,-151,0,4128.0,4127.0,16.0,48.0,-145.0,-169.0
4134,25,-166,0,4135.0,4128.0,26.0,16.0,-151.0,-145.0
4132,65,-189,0,4134.0,4135.0,25.0,26.0,-166.0,-151.0
4117,55,-192,0,4132.0,4134.0,65.0,25.0,-189.0,-166.0
4111,1,-178,0,4117.0,4132.0,55.0,65.0,-192.0,-189.0
4109,-4,-164,0,4111.0,4117.0,1.0,55.0,-178.0,-192.0
4110,-5,-181,0,4109.0,4111.0,-4.0,1.0,-164.0,-178.0
4123,5,-187,0,4110.0,4109.0,-5.0,-4.0,-181.0,-164.0
4131,11,-192,0,4123.0,4110.0,5.0,-5.0,-187.0,-181.0
4132,12,-194,0,4131.0,4123.0,11.0,5.0,-192.0,-187.0
4122,16,-200,0,4132.0,4131.0,12.0,11.0,-194.0,-192.0
4112,13,-213,0,4122.0,4132.0,16.0,12.0,-200.0,-194.0
4106,6,-219,0,4112.0,4122.0,13.0,16.0,-213.0,-200.0
4094,4,-218,0,4106.0,4112.0,6.0,13.0,-219.0,-213.0
4083,1,-211,0,4094.0,4106.0,4.0,6.0,-218.0,-219.0
4077,1,-211,0,4083.0,4094.0,1.0,4.0,-211.0,-218.0
4079,4,-217,0,4077.0,4083.0,1.0,1.0,-211.0,-211.0
4082,4,-209,0,4079.0,4077.0,4.0,1.0,-217.0,-211.0
4085,0,-195,0,4082.0,4079.0,4.0,4.0,-209.0,-217.0
4089,-5,-188,0,4085.0,4082.0,0.0,4.0,-195.0,-209.0
4083,-6,-183,0,4089.0,4085.0,-5.0,0.0,-188.0,-195.0
4079,-9,-187,0,4083.0,4089.0,-6.0,-5.0,-183.0,-188.0
4080,-6,-189,0,4079.0,4083.0,-9.0,-6.0,-187.0,-183.0
4078,-7,-191,0,4080.0,4079.0,-6.0,-9.0,-189.0,-187.0
4079,-10,-189,0,4078.0,4080.0,-7.0,-6.0,-191.0,-189.0
4072,-8,-186,0,4079.0,4078.0,-10.0,-7.0,-189.0,-191.0
4070,-10,-180,0,4072.0,4079.0,-8.0,-10.0,-186.0,-189.0
4071,-14,-177,0,4070.0,4072.0,-10.0,-8.0,-180.0,-186.0
4073,-9,-180,0,4071.0,4070.0,-14.0,-10.0,-177.0,-180.0
4076,-8,-174,0,4073.0,4071.0,-9.0,-14.0,-180.0,-177.0
4076,-18,-171,0,4076.0,4073.0,-8.0,-9.0,-174.0,-180.0
4072,-25,-170,0,4076.0,4076.0,-18.0,-8.0,-171.0,-174.0
4075,-28,-175,0,4072.0,4076.0,-25.0,-18.0,-170.0,-171.0
4083,-21,-180,0,4075.0,4072.0,-28.0,-25.0,-175.0,-170.0
4084,-21,-186,0,4083.0,4075.0,-21.0,-28.0,-180.0,-175.0
4087,-25,-192,0,4084.0,4083.0,-21.0,-21.0,-186.0,-180.0
4091,-32,-189,0,4087.0,4084.0,-25.0,-21.0,-192.0,-186.0
4094,-35,-194,0,4091.0,4087.0,-32.0,-25.0,-189.0,-192.0
4095,-34,-194,0,4094.0,4091.0,-35.0,-32.0,-194.0,-189.0
4093,-38,-199,0,4095.0,4094.0,-34.0,-35.0,-194.0,-194.0
4095,-37,-194,0,4093.0,4095.0,-38.0,-34.0,-199.0,-194.0
4094,-37,-196,0,4095.0,4093.0,-37.0,-38.0,-194.0,-199.0
4095,-40,-194,0,4094.0,4095.0,-37.0,-37.0,-196.0,-194.0
4095,-34,-194,0,4095.0,4094.0,-40.0,-37.0,-194.0,-196.0
4097,-26,-199,0,4095.0,4095.0,-34.0,-40.0,-194.0,-194.0
4099,-18,-203,0,4097.0,4095.0,-26.0,-34.0,-199.0,-194.0
4115,8,-221,0,4099.0,4097.0,-18.0,-26.0,-203.0,-199.0
4112,35,-219,0,4115.0,4099.0,8.0,-18.0,-221.0,-203.0
4106,33,-176,0,4112.0,4115.0,35.0,8.0,-219.0,-221.0
4089,-39,-182,0,4106.0,4112.0,33.0,35.0,-176.0,-219.0
4065,-51,-162,0,4089.0,4106.0,-39.0,33.0,-182.0,-176.0
4057,-30,-181,0,4065.0,4089.0,-51.0,-39.0,-162.0,-182.0
4074,3,-199,0,4057.0,4065.0,-30.0,-51.0,-181.0,-162.0
4089,21,-206,0,4074.0,4057.0,3.0,-30.0,-199.0,-181.0
4106,15,-207,0,4089.0,4074.0,21.0,3.0,-206.0,-199.0
4108,3,-200,0,4106.0,4089.0,15.0,21.0,-207.0,-206.0
4105,-7,-197,0,4108.0,4106.0,3.0,15.0,-200.0,-207.0
4094,-6,-210,0,4105.0,4108.0,-7.0,3.0,-197.0,-200.0
4079,-5,-232,0,4094.0,4105.0,-6.0,-7.0,-210.0,-197.0
4064,-2,-249,0,4079.0,4094.0,-5.0,-6.0,-232.0,-210.0
4055,2,-260,0,4064.0,4079.0,-2.0,-5.0,-249.0,-232.0
4057,4,-261,0,4055.0,4064.0,2.0,-2.0,-260.0,-249.0
4068,11,-264,0,4057.0,4055.0,4.0,2.0,-261.0,-260.0
4077,24,-249,0,4068.0,4057.0,11.0,4.0,-264.0,-261.0
4089,20,-210,0,4077.0,4068.0,24.0,11.0,-249.0,-264.0
4095,28,-179,0,4089.0,4077.0,20.0,24.0,-210.0,-249.0
4097,8,-140,0,4095.0,4089.0,28.0,20.0,-179.0,-210.0
4089,-28,-142,0,4097.0,4095.0,8.0,28.0,-140.0,-179.0
4076,-24,-158,0,4089.0,4097.0,-28.0,8.0,-142.0,-140.0
4075,-8,-212,0,4076.0,4089.0,-24.0,-28.0,-158.0,-142.0
4087,12,-253,0,4075.0,4076.0,-8.0,-24.0,-212.0,-158.0
4101,6,-260,0,4087.0,4075.0,12.0,-8.0,-253.0,-212.0
4120,0,-237,0,4101.0,4087.0,6.0,12.0,-260.0,-253.0
4130,-7,-217,0,4120.0,4101.0,0.0,6.0,-237.0,-260.0
4133,-8,-210,0,4130.0,4120.0,-7.0,0.0,-217.0,-237.0
4142,-5,-212,0,4133.0,4130.0,-8.0,-7.0,-210.0,-217.0
4142,-2,-210,0,4142.0,4133.0,-5.0,-8.0,-212.0,-210.0
4145,4,-209,0,4142.0,4142.0,-2.0,-5.0,-210.0,-212.0
4146,1,-202,0,4145.0,4142.0,4.0,-2.0,-209.0,-210.0
4149,1,-198,0,4146.0,4145.0,1.0,4.0,-202.0,-209.0
4152,2,-199,0,4149.0,4146.0,1.0,1.0,-198.0,-202.0
4148,4,-201,0,4152.0,4149.0,2.0,1.0,-199.0,-198.0
4144,4,-206,0,4148.0,4152.0,4.0,2.0,-201.0,-199.0
4138,8,-213,0,4144.0,4148.0,4.0,4.0,-206.0,-201.0
4134,8,-220,0,4138.0,4144.0,8.0,4.0,-213.0,-206.0
4131,11,-225,0,4134.0,4138.0,8.0,8.0,-220.0,-213.0
4122,15,-229,0,4131.0,4134.0,11.0,8.0,-225.0,-220.0
4123,14,-233,0,4122.0,4131.0,15.0,11.0,-229.0,-225.0
4120,13,-231,0,4123.0,4122.0,14.0,15.0,-233.0,-229.0
4123,18,-229,0,4120.0,4123.0,13.0,14.0,-231.0,-233.0
4123,16,-233,0,4123.0,4120.0,18.0,13.0,-229.0,-231.0
4127,23,-233,0,4123.0,4123.0,16.0,18.0,-233.0,-229.0
4124,28,-232,0,4127.0,4123.0,23.0,16.0,-233.0,-233.0
4124,25,-231,0,4124.0,4127.0,28.0,23.0,-232.0,-233.0
4117,22,-233,0,4124.0,4124.0,25.0,28.0,-231.0,-232.0
4113,25,-232,0,4117.0,4124.0,22.0,25.0,-233.0,-231.0
4108,23,-230,0,4113.0,4117.0,25.0,22.0,-232.0,-233.0
4104,20,-225,0,4108.0,4113.0,23.0,25.0,-230.0,-232.0
4102,25,-223,0,4104.0,4108.0,20.0,23.0,-225.0,-230.0
4099,27,-225,0,4102.0,4104.0,25.0,20.0,-223.0,-225.0
4093,25,-227,0,4099.0,4102.0,27.0,25.0,-225.0,-223.0
4090,14,-221,0,4093.0,4099.0,25.0,27.0,-227.0,-225.0
4086,6,-224,0,4090.0,4093.0,14.0,25.0,-221.0,-227.0
4085,6,-225,0,4086.0,4090.0,6.0,14.0,-224.0,-221.0
4088,6,-217,0,4085.0,4086.0,6.0,6.0,-225.0,-224.0
4084,-5,-213,0,4088.0,4085.0,6.0,6.0,-217.0,-225.0
4086,-13,-208,0,4084.0,4088.0,-5.0,6.0,-213.0,-217.0
4092,-7,-224,0,4086.0,4084.0,-13.0,-5.0,-208.0,-213.0
4107,56,-242,0,4092.0,4086.0,-7.0,-13.0,-224.0,-208.0
4090,7,-239,0,4107.0,4092.0,56.0,-7.0,-242.0,-224.0
4056,-53,-234,0,4090.0,4107.0,7.0,56.0,-239.0,-242.0
4033,-99,-215,0,4056.0,4090.0,-53.0,7.0,-234.0,-239.0
4017,-75,-215,0,4033.0,4056.0,-99.0,-53.0,-215.0,-234.0
4021,-19,-228,0,4017.0,4033.0,-75.0,-99.0,-215.0,-215.0
4036,0,-242,0,4021.0,4017.0,-19.0,-75.0,-228.0,-215.0
4060,-2,-243,0,4036.0,4021.0,0.0,-19.0,-242.0,-228.0
4083,-9,-225,0,4060.0,4036.0,-2.0,0.0,-243.0,-242.0
4105,-19,-198,0,4083.0,4060.0,-9.0,-2.0,-225.0,-243.0
4130,-18,-181,0,4105.0,4083.0,-19.0,-9.0,-198.0,-225.0
4138,-12,-178,0,4130.0,4105.0,-18.0,-19.0,-181.0,-198.0
4136,-5,-185,0,4138.0,4130.0,-12.0,-18.0,-178.0,-181.0
4127,3,-192,0,4136.0,4138.0,-5.0,-12.0,-185.0,-178.0
4117,3,-195,0,4127.0,4136.0,3.0,-5.0,-192.0,-185.0
4111,0,-192,0,4117.0,4127.0,3.0,3.0,-195.0,-192.0
4107,-10,-181,0,4111.0,4117.0,0.0,3.0,-192.0,-195.0
4109,-16,-163,0,4107.0,4111.0,-10.0,0.0,-181.0,-192.0
4115,-24,-157,0,4109.0,4107.0,-16.0,-10.0,-163.0,-181.0
4117,-33,-153,0,4115.0,4109.0,-24.0,-16.0,-157.0,-163.0
4115,-37,-161,0,4117.0,4115.0,-33.0,-24.0,-153.0,-157.0
4110,-46,-167,0,4115.0,4117.0,-37.0,-33.0,-161.0,-153.0
4106,-51,-174,0,4110.0,4115.0,-46.0,-37.0,-167.0,-161.0
4100,-49,-181,0,4106.0,4110.0,-51.0,-46.0,-174.0,-167.0
4087,-43,-194,0,4100.0,4106.0,-49.0,-51.0,-181.0,-174.0
4069,-39,-206,0,4087.0,4100.0,-43.0,-49.0,-194.0,-181.0
4055,-38,-215,0,4069.0,4087.0,-39.0,-43.0,-206.0,-194.0
4049,-35,-220,0,4055.0,4069.0,-38.0,-39.0,-215.0,-206.0
4046,-33,-213,0,4049.0,4055.0,-35.0,-38.0,-220.0,-215.0
4049,-32,-208,0,4046.0,4049.0,-33.0,-35.0,-213.0,-220.0
4052,-29,-204,0,4049.0,4046.0,-32.0,-33.0,-208.0,-213.0
4065,-32,-196,0,4052.0,4049.0,-29.0,-32.0,-204.0,-208.0
4070,-26,-190,0,4065.0,4052.0,-32.0,-29.0,-196.0,-204.0
4079,-19,-185,0,4070.0,4065.0,-26.0,-32.0,-190.0,-196.0
4090,-14,-180,0,4079.0,4070.0,-19.0,-26.0,-185.0,-190.0
4095,-10,-180,0,4090.0,4079.0,-14.0,-19.0,-180.0,-185.0
4099,-9,-173,0,4095.0,4090.0,-10.0,-14.0,-180.0,-180.0
4101,-7,-169,0,4099.0,4095.0,-9.0,-10.0,-173.0,-180.0
4101,-4,-167,0,4101.0,4099.0,-7.0,-9.0,-169.0,-173.0
4102,2,-163,0,4101.0,4101.0,-4.0,-7.0,-167.0,-169.0
4104,4,-158,0,4102.0,4101.0,2.0,-4.0,-163.0,-167.0
4106,4,-158,0,4104.0,4102.0,4.0,2.0,-158.0,-163.0
4104,4,-157,0,4106.0,4104.0,4.0,4.0,-158.0,-158.0
4102,3,-160,0,4104.0,4106.0,4.0,4.0,-157.0,-158.0
4102,2,-166,0,4102.0,4104.0,3.0,4.0,-160.0,-157.0
4101,3,-168,0,4102.0,4102.0,2.0,3.0,-166.0,-160.0
4101,0,-180,0,4101.0,4102.0,3.0,2.0,-168.0,-166.0
4101,-5,-189,0,4101.0,4101.0,0.0,3.0,-180.0,-168.0
4101,-16,-202,0,4101.0,4101.0,-5.0,0.0,-189.0,-180.0
4100,-27,-214,0,4101.0,4101.0,-16.0,-5.0,-202.0,-189.0
4100,-36,-222,0,4100.0,4101.0,-27.0,-16.0,-214.0,-202.0
4100,-46,-228,0,4100.0,4100.0,-36.0,-27.0,-222.0,-214.0
4101,-52,-221,0,4100.0,4100.0,-46.0,-36.0,-228.0,-222.0
4102,-50,-208,0,4101.0,4100.0,-52.0,-46.0,-221.0,-228.0
4108,-49,-191,0,4102.0,4101.0,-50.0,-52.0,-208.0,-221.0
4114,-48,-180,0,4108.0,4102.0,-49.0,-50.0,-191.0,-208.0
4122,-39,-188,0,4114.0,4108.0,-48.0,-49.0,-180.0,-191.0
4119,-30,-196,0,4122.0,4114.0,-39.0,-48.0,-188.0,-180.0
4120,-24,-216,0,4119.0,4122.0,-30.0,-39.0,-196.0,-188.0
4110,-57,-199,0,4120.0,4119.0,-24.0,-30.0,-216.0,-196.0
4095,-89,-186,0,4110.0,4120.0,-57.0,-24.0,-199.0,-216.0
4094,-94,-171,0,4095.0,4110.0,-89.0,-57.0,-186.0,-199.0
4097,-76,-163,0,4094.0,4095.0,-94.0,-89.0,-171.0,-186.0
4097,-58,-171,0,4097.0,4094.0,-76.0,-94.0,-163.0,-171.0
4099,-71,-181,0,4097.0,4097.0,-58.0,-76.0,-171.0,-163.0
4100,-91,-184,0,4099.0,4097.0,-71.0,-58.0,-181.0,-171.0
4101,-101,-180,0,4100.0,4099.0,-91.0,-71.0,-184.0,-181.0
4104,-104,-165,0,4101.0,4100.0,-101.0,-91.0,-180.0,-184.0
4105,-102,-158,0,4104.0,4101.0,-104.0,-101.0,-165.0,-180.0
4103,-96,-158,0,4105.0,4104.0,-102.0,-104.0,-158.0,-165.0
4100,-93,-165,0,4103.0,4105.0,-96.0,-102.0,-158.0,-158.0
4098,-88,-172,0,4100.0,4103.0,-93.0,-96.0,-165.0,-158.0
4093,-89,-177,0,4098.0,4100.0,-88.0,-93.0,-172.0,-165.0
4089,-90,-177,0,4093.0,4098.0,-89.0,-88.0,-177.0,-172.0
4088,-89,-174,0,4089.0,4093.0,-90.0,-89.0,-177.0,-177.0
4086,-88,-166,0,4088.0,4089.0,-89.0,-90.0,-174.0,-177.0
4084,-86,-159,0,4086.0,4088.0,-88.0,-89.0,-166.0,-174.0
4079,-80,-155,0,4084.0,4086.0,-86.0,-88.0,-159.0,-166.0
4078,-76,-151,0,4079.0,4084.0,-80.0,-86.0,-155.0,-159.0
4077,-73,-150,0,4078.0,4079.0,-76.0,-80.0,-151.0,-155.0
4077,-65,-153,0,4077.0,4078.0,-73.0,-76.0,-150.0,-151.0
4075,-58,-158,0,4077.0,4077.0,-65.0,-73.0,-153.0,-150.0
4076,-54,-168,0,4075.0,4077.0,-58.0,-65.0,-158.0,-153.0
4078,-54,-166,0,4076.0,4075.0,-54.0,-58.0,-168.0,-158.0
4082,-63,-164,0,4078.0,4076.0,-54.0,-54.0,-166.0,-168.0
4091,-62,-160,0,4082.0,4078.0,-63.0,-54.0,-164.0,-166.0
4092,-61,-163,0,4091.0,4082.0,-62.0,-63.0,-160.0,-164.0
4093,-78,-166,0,4092.0,4091.0,-61.0,-62.0,-163.0,-160.0
4093,-82,-171,0,4093.0,4092.0,-78.0,-61.0,-166.0,-163.0
4093,-84,-180,0,4093.0,4093.0,-82.0,-78.0,-171.0,-166.0
4096,-79,-186,0,4093.0,4093.0,-84.0,-82.0,-180.0,-171.0
4094,-70,-182,0,4096.0,4093.0,-79.0,-84.0,-186.0,-180.0
4078,-70,-165,0,4094.0,4096.0,-70.0,-79.0,-182.0,-186.0
4071,-82,-187,0,4078.0,4094.0,-70.0,-70.0,-165.0,-182.0
4079,-78,-163,0,4071.0,4078.0,-82.0,-70.0,-187.0,-165.0
4086,-50,-155,0,4079.0,4071.0,-78.0,-82.0,-163.0,-187.0
4096,-32,-155,0,4086.0,4079.0,-50.0,-78.0,-155.0,-163.0
4101,-18,-150,0,4096.0,4086.0,-32.0,-50.0,-155.0,-155.0
4101,-10,-138,0,4101.0,4096.0,-18.0,-32.0,-150.0,-155.0
4096,-10,-120,0,4101.0,4101.0,-10.0,-18.0,-138.0,-150.0
4089,-10,-106,0,4096.0,4101.0,-10.0,-10.0,-120.0,-138.0
4093,-4,-100,0,4089.0,4096.0,-10.0,-10.0,-106.0,-120.0
4097,-2,-85,0,4093.0,4089.0,-4.0,-10.0,-100.0,-106.0
4100,-6,-72,0,4097.0,4093.0,-2.0,-4.0,-85.0,-100.0
4102,-7,-63,0,4100.0,4097.0,-6.0,-2.0,-72.0,-85.0
4103,-4,-57,0,4102.0,4100.0,-7.0,-6.0,-63.0,-72.0
4106,2,-55,0,4103.0,4102.0,-4.0,-7.0,-57.0,-63.0
4109,0,-55,0,4106.0,4103.0,2.0,-4.0,-55.0,-57.0
4109,0,-55,0,4109.0,4106.0,0.0,2.0,-55.0,-55.0
4112,3,-51,0,4109.0,4109.0,0.0,0.0,-55.0,-55.0
4119,-2,-50,0,4112.0,4109.0,3.0,0.0,-51.0,-55.0
4123,-1,-44,0,4119.0,4112.0,-2.0,3.0,-50.0,-51.0
4123,-5,-41,0,4123.0,4119.0,-1.0,-2.0,-44.0,-50.0
4124,-18,-47,0,4123.0,4123.0,-5.0,-1.0,-41.0,-44.0
4118,-17,-57,0,4124.0,4123.0,-18.0,-5.0,-47.0,-41.0
4114,-18,-69,0,4118.0,4124.0,-17.0,-18.0,-57.0,-47.0
4110,-30,-79,0,4114.0,4118.0,-18.0,-17.0,-69.0,-57.0
4105,-39,-88,0,4110.0,4114.0,-30.0,-18.0,-79.0,-69.0
4103,-43,-93,0,4105.0,4110.0,-39.0,-30.0,-88.0,-79.0
4101,-53,-102,0,4103.0,4105.0,-43.0,-39.0,-93.0,-88.0
4100,-60,-107,0,4101.0,4103.0,-53.0,-43.0,-102.0,-93.0
4088,-64,-114,0,4100.0,4101.0,-60.0,-53.0,-107.0,-102.0
4080,-71,-125,0,4088.0,4100.0,-64.0,-60.0,-114.0,-107.0
4077,-78,-133,0,4080.0,4088.0,-71.0,-64.0,-125.0,-114.0
4075,-79,-142,0,4077.0,4080.0,-78.0,-71.0,-133.0,-125.0
4077,-79,-147,0,4075.0,4077.0,-79.0,-78.0,-142.0,-133.0
4082,-72,-152,0,4077.0,4075.0,-79.0,-79.0,-147.0,-142.0
4085,-68,-157,0,4082.0,4077.0,-72.0,-79.0,-152.0,-147.0
4092,-69,-153,0,4085.0,4082.0,-68.0,-72.0,-157.0,-152.0
4096,-68,-150,0,4092.0,4085.0,-69.0,-68.0,-153.0,-157.0
4098,-68,-155,0,4096.0,4092.0,-68.0,-69.0,-150.0,-153.0
4100,-61,-155,0,4098.0,4096.0,-68.0,-68.0,-155.0,-150.0
4100,-53,-157,0,4100.0,4098.0,-61.0,-68.0,-155.0,-155.0
4101,-45,-151,0,4100.0,4100.0,-53.0,-61.0,-157.0,-155.0
4103,-39,-148,0,4101.0,4100.0,-45.0,-53.0,-151.0,-157.0
4103,-27,-146,0,4103.0,4101.0,-39.0,-45.0,-148.0,-151.0
4104,-16,-141,0,4103.0,4103.0,-27.0,-39.0,-146.0,-148.0
4102,-8,-135,0,4104.0,4103.0,-16.0,-27.0,-141.0,-146.0
4101,-1,-132,0,4102.0,4104.0,-8.0,-16.0,-135.0,-141.0
4100,1,-135,0,4101.0,4102.0,-1.0,-8.0,-132.0,-135.0
4098,-1,-132,0,4100.0,4101.0,1.0,-1.0,-135.0,-132.0
4095,2,-131,0,4098.0,4100.0,-1.0,1.0,-132.0,-135.0
4093,4,-132,0,4095.0,4098.0,2.0,-1.0,-131.0,-132.0
4096,7,-131,0,4093.0,4095.0,4.0,2.0,-132.0,-131.0
4097,8,-131,0,4096.0,4093.0,7.0,4.0,-131.0,-132.0
4098,5,-133,0,4097.0,4096.0,8.0,7.0,-131.0,-131.0
4097,3,-132,0,4098.0,4097.0,5.0,8.0,-133.0,-131.0
4098,0,-133,0,4097.0,4098.0,3.0,5.0,-132.0,-133.0
4095,-3,-134,0,4098.0,4097.0,0.0,3.0,-133.0,-132.0
4095,-13,-119,0,4095.0,4098.0,-3.0,0.0,-134.0,-133.0
4093,-20,-102,0,4095.0,4095.0,-13.0,-3.0,-119.0,-134.0
4097,-29,-89,0,4093.0,4095.0,-20.0,-13.0,-102.0,-119.0
4099,-28,-100,0,4097.0,4093.0,-29.0,-20.0,-89.0,-102.0
4092,-31,-115,0,4099.0,4097.0,-28.0,-29.0,-100.0,-89.0
4074,-44,-134,0,4092.0,4099.0,-31.0,-28.0,-115.0,-100.0
4057,-57,-153,0,4074.0,4092.0,-44.0,-31.0,-134.0,-115.0
4038,-74,-159,0,4057.0,4074.0,-57.0,-44.0,-153.0,-134.0
4033,-82,-154,0,4038.0,4057.0,-74.0,-57.0,-159.0,-153.0
4034,-89,-150,0,4033.0,4038.0,-82.0,-74.0,-154.0,-159.0
4042,-93,-150,0,4034.0,4033.0,-89.0,-82.0,-150.0,-154.0
4052,-93,-154,0,4042.0,4034.0,-93.0,-89.0,-150.0,-150.0
4059,-96,-153,0,4052.0,4042.0,-93.0,-93.0,-154.0,-150.0
4063,-101,-151,0,4059.0,4052.0,-96.0,-93.0,-153.0,-154.0
4071,-112,-143,0,4063.0,4059.0,-101.0,-96.0,-151.0,-153.0
4077,-115,-130,0,4071.0,4063.0,-112.0,-101.0,-143.0,-151.0
4083,-118,-120,0,4077.0,4071.0,-115.0,-112.0,-130.0,-143.0
4091,-117,-117,0,4083.0,4077.0,-118.0,-115.0,-120.0,-130.0
4097,-114,-118,0,4091.0,4083.0,-117.0,-118.0,-117.0,-120.0
4102,-107,-119,0,4097.0,4091.0,-114.0,-117.0,-118.0,-117.0
4107,-97,-118,0,4102.0,4097.0,-107.0,-114.0,-119.0,-118.0
4106,-94,-117,0,4107.0,4102.0,-97.0,-107.0,-118.0,-119.0
4106,-88,-112,0,4106.0,4107.0,-94.0,-97.0,-117.0,-118.0
4106,-83,-106,0,4106.0,4106.0,-88.0,-94.0,-112.0,-117.0
4103,-74,-100,0,4106.0,4106.0,-83.0,-88.0,-106.0,-112.0
4102,-58,-96,0,4103.0,4106.0,-74.0,-83.0,-100.0,-106.0
4101,-43,-98,0,4102.0,4103.0,-58.0,-74.0,-96.0,-100.0
4100,-26,-103,0,4101.0,4102.0,-43.0,-58.0,-98.0,-96.0
4100,-19,-114,0,4100.0,4101.0,-26.0,-43.0,-103.0,-98.0
4100,-14,-116,0,4100.0,4100.0,-19.0,-26.0,-114.0,-103.0
4100,-15,-114,0,4100.0,4100.0,-14.0,-19.0,-116.0,-114.0
4103,-8,-110,0,4100.0,4100.0,-15.0,-14.0,-114.0,-116.0
4112,-3,-107,0,4103.0,4100.0,-8.0,-15.0,-110.0,-114.0
4128,3,-98,0,4112.0,4103.0,-3.0,-8.0,-107.0,-110.0
4143,11,-88,0,4128.0,4112.0,3.0,-3.0,-98.0,-107.0
4156,23,-78,0,4143.0,4128.0,11.0,3.0,-88.0,-98.0
4168,31,-71,0,4156.0,4143.0,23.0,11.0,-78.0,-88.0
4179,41,-64,0,4168.0,4156.0,31.0,23.0,-71.0,-78.0
4181,48,-57,0,4179.0,4168.0,41.0,31.0,-64.0,-71.0
4180,54,-52,0,4181.0,4179.0,48.0,41.0,-57.0,-64.0
4169,60,-47,0,4180.0,4181.0,54.0,48.0,-52.0,-57.0
4154,52,-47,0,4169.0,4180.0,60.0,54.0,-47.0,-52.0
4133,55,-49,0,4154.0,4169.0,52.0,60.0,-47.0,-47.0
4117,65,-55,0,4133.0,4154.0,55.0,52.0,-49.0,-47.0
4098,74,-61,0,4117.0,4133.0,65.0,55.0,-55.0,-49.0
4087,72,-64,0,4098.0,4117.0,74.0,65.0,-61.0,-55.0
4077,62,-62,0,4087.0,4098.0,72.0,74.0,-64.0,-61.0
4042,55,-46,0,4077.0,4087.0,62.0,72.0,-62.0,-64.0
4056,-42,-75,0,4042.0,4077.0,55.0,62.0,-46.0,-62.0
4065,35,-26,0,4056.0,4042.0,-42.0,55.0,-75.0,-46.0
4083,124,-39,0,4065.0,4056.0,35.0,-42.0,-26.0,-75.0
4091,154,-66,0,4083.0,4065.0,124.0,35.0,-39.0,-26.0
4088,151,-80,0,4091.0,4083.0,154.0,124.0,-66.0,-39.0
4085,140,-77,0,4088.0,4091.0,151.0,154.0,-80.0,-66.0
4083,125,-72,0,4085.0,4088.0,140.0,151.0,-77.0,-80.0
4080,125,-60,0,4083.0,4085.0,125.0,140.0,-72.0,-77.0
4082,135,-55,0,4080.0,4083.0,125.0,125.0,-60.0,-72.0
4083,130,-52,0,4082.0,4080.0,135.0,125.0,-55.0,-60.0
4090,130,-48,0,4083.0,4082.0,130.0,135.0,-52.0,-55.0
4096,134,-52,0,4090.0,4083.0,130.0,130.0,-48.0,-52.0
4112,147,-60,0,4096.0,4090.0,134.0,130.0,-52.0,-48.0
4126,154,-64,0,4112.0,4096.0,147.0,134.0,-60.0,-52.0
4134,153,-64,0,4126.0,4112.0,154.0,147.0,-64.0,-60.0
4133,157,-67,0,4134.0,4126.0,153.0,154.0,-64.0,-64.0
4118,160,-79,0,4133.0,4134.0,157.0,153.0,-67.0,-64.0
4085,162,-133,0,4118.0,4133.0,160.0,157.0,-79.0,-67.0
4082,153,-84,0,4085.0,4118.0,162.0,160.0,-133.0,-79.0
4077,152,-49,0,4082.0,4085.0,153.0,162.0,-84.0,-133.0
4068,173,-43,0,4077.0,4082.0,152.0,153.0,-49.0,-84.0
4063,178,-49,0,4068.0,4077.0,173.0,152.0,-43.0,-49.0
4055,190,-31,0,4063.0,4068.0,178.0,173.0,-49.0,-43.0
4055,195,-15,0,4055.0,4063.0,190.0,178.0,-31.0,-49.0
4054,213,-8,0,4055.0,4055.0,195.0,190.0,-15.0,-31.0
4053,236,50,0,4054.0,4055.0,213.0,195.0,-8.0,-15.0
4061,163,77,0,4053.0,4054.0,236.0,213.0,50.0,-8.0
4067,138,112,0,4061.0,4053.0,163.0,236.0,77.0,50.0
4083,142,138,0,4067.0,4061.0,138.0,163.0,112.0,77.0
4092,145,170,0,4083.0,4067.0,142.0,138.0,138.0,112.0
4089,120,182,0,4092.0,4083.0,145.0,142.0,170.0,138.0
4085,94,190,0,4089.0,4092.0,120.0,145.0,182.0,170.0
4075,89,212,0,4085.0,4089.0,94.0,120.0,190.0,182.0
4057,85,224,0,4075.0,4085.0,89.0,94.0,212.0,190.0
4037,85,229,0,4057.0,4075.0,85.0,89.0,224.0,212.0
4016,84,231,0,4037.0,4057.0,85.0,85.0,229.0,224.0
4008,87,223,0,4016.0,4037.0,84.0,85.0,231.0,229.0
4024,179,184,0,4008.0,4016.0,87.0,84.0,223.0,231.0
4040,197,219,0,4024.0,4008.0,179.0,87.0,184.0,223.0
4048,190,229,0,4040.0,4024.0,197.0,179.0,219.0,184.0
4062,231,224,0,4048.0,4040.0,190.0,197.0,229.0,219.0
4080,278,216,0,4062.0,4048.0,231.0,190.0,224.0,229.0
4093,373,192,0,4080.0,4062.0,278.0,231.0,216.0,224.0
4112,447,200,0,4093.0,4080.0,373.0,278.0,192.0,216.0
4121,456,200,0,4112.0,4093.0,447.0,373.0,200.0,192.0
4125,464,184,0,4121.0,4112.0,456.0,447.0,200.0,200.0
4112,457,192,0,4125.0,4121.0,464.0,456.0,184.0,200.0
4102,494,169,0,4112.0,4125.0,457.0,464.0,192.0,184.0
4087,567,150,0,4102.0,4112.0,494.0,457.0,169.0,192.0
4071,636,110,0,4087.0,4102.0,567.0,494.0,150.0,169.0
4054,701,107,0,4071.0,4087.0,636.0,567.0,110.0,150.0
4034,663,120,0,4054.0,4071.0,701.0,636.0,107.0,110.0
4019,651,91,0,4034.0,4054.0,663.0,701.0,120.0,107.0
3988,660,63,0,4019.0,4034.0,651.0,663.0,91.0,120.0
3951,655,29,0,3988.0,4019.0,660.0,651.0,63.0,91.0
3928,665,10,0,3951.0,3988.0,655.0,660.0,29.0,63.0
3925,653,-24,0,3928.0,3951.0,665.0,655.0,10.0,29.0
3953,635,-47,0,3925.0,3928.0,653.0,665.0,-24.0,10.0
3994,611,-53,0,3953.0,3925.0,635.0,653.0,-47.0,-24.0
4039,596,-76,0,3994.0,3953.0,611.0,635.0,-53.0,-47.0
4072,594,-98,0,4039.0,3994.0,596.0,611.0,-76.0,-53.0
4105,597,-94,0,4072.0,4039.0,594.0,596.0,-98.0,-76.0
4134,606,-124,0,4105.0,4072.0,597.0,594.0,-94.0,-98.0
4162,658,-168,0,4134.0,4105.0,606.0,597.0,-124.0,-94.0
4196,698,-177,0,4162.0,4134.0,658.0,606.0,-168.0,-124.0
4220,688,-168,0,4196.0,4162.0,698.0,658.0,-177.0,-168.0
4245,695,-158,0,4220.0,4196.0,688.0,698.0,-168.0,-177.0
4268,686,-143,0,4245.0,4220.0,695.0,688.0,-158.0,-168.0
4271,665,-106,0,4268.0,4245.0,686.0,695.0,-143.0,-158.0
4272,656,-88,0,4271.0,4268.0,665.0,686.0,-106.0,-143.0
4286,674,-109,0,4272.0,4271.0,656.0,665.0,-88.0,-106.0
4281,642,-86,0,4286.0,4272.0,674.0,656.0,-109.0,-88.0
4293,635,-55,0,4281.0,4286.0,642.0,674.0,-86.0,-109.0
4288,611,-36,0,4293.0,4281.0,635.0,642.0,-55.0,-86.0
4300,609,1,0,4288.0,4293.0,611.0,635.0,-36.0,-55.0
4316,591,4,0,4300.0,4288.0,609.0,611.0,1.0,-36.0
4340,540,21,0,4316.0,4300.0,591.0,609.0,4.0,1.0
4345,471,61,0,4340.0,4316.0,540.0,591.0,21.0,4.0
4318,413,51,0,4345.0,4340.0,471.0,540.0,61.0,21.0
4275,421,30,0,4318.0,4345.0,413.0,471.0,51.0,61.0
4233,459,0,0,4275.0,4318.0,421.0,413.0,30.0,51.0
4199,503,-44,0,4233.0,4275.0,459.0,421.0,0.0,30.0
4180,553,-82,0,4199.0,4233.0,503.0,459.0,-44.0,0.0
4165,516,-86,0,4180.0,4199.0,553.0,503.0,-82.0,-44.0
4176,485,-116,0,4165.0,4180.0,516.0,553.0,-86.0,-82.0
4234,565,-126,0,4176.0,4165.0,485.0,516.0,-116.0,-86.0
4309,714,-71,0,4234.0,4176.0,565.0,485.0,-126.0,-116.0
