accelerometer_x,accelerometer_y,accelerometer_z,fall,x_lag_1,x_lag_2,y_lag_1,y_lag_2,z_lag_1,z_lag_2
3404,1185,1766,0,,,,,,
3403,1184,1762,0,3404.0,,1185.0,,1766.0,
3400,1186,1761,0,3403.0,3404.0,1184.0,1185.0,1762.0,1766.0
3400,1190,1767,0,3400.0,3403.0,1186.0,1184.0,1761.0,1762.0
3399,1193,1776,0,3400.0,3400.0,1190.0,1186.0,1767.0,1761.0
3398,1198,1785,0,3399.0,3400.0,1193.0,1190.0,1776.0,1767.0
3398,1202,1788,0,3398.0,3399.0,1198.0,1193.0,1785.0,1776.0
3400,1202,1791,0,3398.0,3398.0,1202.0,1198.0,1788.0,1785.0
3407,1204,1787,0,3400.0,3398.0,1202.0,1202.0,1791.0,1788.0
3409,1215,1790,0,3407.0,3400.0,1204.0,1202.0,1787.0,1791.0
3429,1185,1794,0,3409.0,3407.0,1215.0,1204.0,1790.0,1787.0
3414,1173,1792,0,3429.0,3409.0,1185.0,1215.0,1794.0,1790.0
3399,1189,1791,0,3414.0,3429.0,1173.0,1185.0,1792.0,1794.0
3392,1202,1779,0,3399.0,3414.0,1189.0,1173.0,1791.0,1792.0
3391,1203,1768,0,3392.0,3399.0,1202.0,1189.0,1779.0,1791.0
3394,1196,1764,0,3391.0,3392.0,1203.0,1202.0,1768.0,1779.0
3396,1192,1768,0,3394.0,3391.0,1196.0,1203.0,1764.0,1768.0
3400,1191,1768,0,3396.0,3394.0,1192.0,1196.0,1768.0,1764.0
3404,1190,1773,0,3400.0,3396.0,1191.0,1192.0,1768.0,1768.0
3404,1193,1783,0,3404.0,3400.0,1190.0,1191.0,1773.0,1768.0
3402,1197,1788,0,3404.0,3404.0,1193.0,1190.0,1783.0,1773.0
3404,1196,1792,0,3402.0,3404.0,1197.0,1193.0,1788.0,1783.0
3407,1193,1784,0,3404.0,3402.0,1196.0,1197.0,1792.0,1788.0
3407,1190,1774,0,3407.0,3404.0,1193.0,1196.0,1784.0,1792.0
3406,1189,1773,0,3407.0,3407.0,1190.0,1193.0,1774.0,1784.0
3408,1188,1773,0,3406.0,3407.0,1189.0,1190.0,1773.0,1774.0
3404,1189,1773,0,3408.0,3406.0,1188.0,1189.0,1773.0,1773.0
3403,1190,1769,0,3404.0,3408.0,1189.0,1188.0,1773.0,1773.0
3405,1189,1773,0,3403.0,3404.0,1190.0,1189.0,1769.0,1773.0
3404,1189,1773,0,3405.0,3403.0,1189.0,1190.0,1773.0,1769.0
3408,1187,1772,0,3404.0,3405.0,1189.0,1189.0,1773.0,1773.0
3407,1185,1780,0,3408.0,3404.0,1187.0,1189.0,1772.0,1773.0
3407,1182,1781,0,3407.0,3408.0,1185.0,1187.0,1780.0,1772.0
3409,1185,1779,0,3407.0,3407.0,1182.0,1185.0,1781.0,1780.0
3405,1189,1786,0,3409.0,3407.0,1185.0,1182.0,1779.0,1781.0
3403,1193,1789,0,3405.0,3409.0,1189.0,1185.0,1786.0,1779.0
3402,1198,1784,0,3403.0,3405.0,1193.0,1189.0,1789.0,1786.0
3396,1202,1784,0,3402.0,3403.0,1198.0,1193.0,1784.0,1789.0
3396,1203,1783,0,3396.0,3402.0,1202.0,1198.0,1784.0,1784.0
3390,1213,1786,0,3396.0,3396.0,1203.0,1202.0,1783.0,1784.0
3392,1219,1792,0,3390.0,3396.0,1213.0,1203.0,1786.0,1783.0
3395,1228,1800,0,3392.0,3390.0,1219.0,1213.0,1792.0,1786.0
3398,1232,1801,0,3395.0,3392.0,1228.0,1219.0,1800.0,1792.0
3408,1238,1803,0,3398.0,3395.0,1232.0,1228.0,1801.0,1800.0
3413,1242,1799,0,3408.0,3398.0,1238.0,1232.0,1803.0,1801.0
3419,1247,1798,0,3413.0,3408.0,1242.0,1238.0,1799.0,1803.0
3421,1249,1795,0,3419.0,3413.0,1247.0,1242.0,1798.0,1799.0
3426,1255,1793,0,3421.0,3419.0,1249.0,1247.0,1795.0,1798.0
3427,1257,1792,0,3426.0,3421.0,1255.0,1249.0,1793.0,1795.0
3426,1259,1788,0,3427.0,3426.0,1257.0,1255.0,1792.0,1793.0
3424,1253,1794,0,3426.0,3427.0,1259.0,1257.0,1788.0,1792.0
3425,1250,1793,0,3424.0,3426.0,1253.0,1259.0,1794.0,1788.0
3424,1248,1789,0,3425.0,3424.0,1250.0,1253.0,1793.0,1794.0
3425,1241,1792,0,3424.0,3425.0,1248.0,1250.0,1789.0,1793.0
3422,1233,1789,0,3425.0,3424.0,1241.0,1248.0,1792.0,1789.0
3421,1228,1794,0,3422.0,3425.0,1233.0,1241.0,1789.0,1792.0
3419,1218,1793,0,3421.0,3422.0,1228.0,1233.0,1794.0,1789.0
3414,1215,1789,0,3419.0,3421.0,1218.0,1228.0,1793.0,1794.0
3406,1212,1791,0,3414.0,3419.0,1215.0,1218.0,1789.0,1793.0
3406,1204,1792,0,3406.0,3414.0,1212.0,1215.0,1791.0,1789.0
3405,1198,1790,0,3406.0,3406.0,1204.0,1212.0,1792.0,1791.0
3403,1191,1793,0,3405.0,3406.0,1198.0,1204.0,1790.0,1792.0
3400,1187,1790,0,3403.0,3405.0,1191.0,1198.0,1793.0,1790.0
3394,1186,1791,0,3400.0,3403.0,1187.0,1191.0,1790.0,1793.0
3392,1184,1792,0,3394.0,3400.0,1186.0,1187.0,1791.0,1790.0
3392,1184,1795,0,3392.0,3394.0,1184.0,1186.0,1792.0,1791.0
3387,1187,1798,0,3392.0,3392.0,1184.0,1184.0,1795.0,1792.0
3385,1186,1796,0,3387.0,3392.0,1187.0,1184.0,1798.0,1795.0
3385,1186,1790,0,3385.0,3387.0,1186.0,1187.0,1796.0,1798.0
3381,1190,1785,0,3385.0,3385.0,1186.0,1186.0,1790.0,1796.0
3382,1194,1782,0,3381.0,3385.0,1190.0,1186.0,1785.0,1790.0
3389,1201,1779,0,3382.0,3381.0,1194.0,1190.0,1782.0,1785.0
3397,1206,1780,0,3389.0,3382.0,1201.0,1194.0,1779.0,1782.0
3403,1214,1777,0,3397.0,3389.0,1206.0,1201.0,1780.0,1779.0
3412,1214,1775,0,3403.0,3397.0,1214.0,1206.0,1777.0,1780.0
3421,1212,1773,0,3412.0,3403.0,1214.0,1214.0,1775.0,1777.0
3426,1216,1767,0,3421.0,3412.0,1212.0,1214.0,1773.0,1775.0
3424,1216,1762,0,3426.0,3421.0,1216.0,1212.0,1767.0,1773.0
3423,1222,1760,0,3424.0,3426.0,1216.0,1216.0,1762.0,1767.0
3415,1224,1761,0,3423.0,3424.0,1222.0,1216.0,1760.0,1762.0
3410,1229,1764,0,3415.0,3423.0,1224.0,1222.0,1761.0,1760.0
3398,1230,1766,0,3410.0,3415.0,1229.0,1224.0,1764.0,1761.0
3391,1230,1769,0,3398.0,3410.0,1230.0,1229.0,1766.0,1764.0
3383,1227,1772,0,3391.0,3398.0,1230.0,1230.0,1769.0,1766.0
3378,1225,1777,0,3383.0,3391.0,1227.0,1230.0,1772.0,1769.0
3376,1221,1782,0,3378.0,3383.0,1225.0,1227.0,1777.0,1772.0
3379,1221,1781,0,3376.0,3378.0,1221.0,1225.0,1782.0,1777.0
3384,1219,1785,0,3379.0,3376.0,1221.0,1221.0,1781.0,1782.0
3394,1214,1784,0,3384.0,3379.0,1219.0,1221.0,1785.0,1781.0
3403,1211,1781,0,3394.0,3384.0,1214.0,1219.0,1784.0,1785.0
3414,1209,1780,0,3403.0,3394.0,1211.0,1214.0,1781.0,1784.0
3421,1211,1779,0,3414.0,3403.0,1209.0,1211.0,1780.0,1781.0
3425,1212,1778,0,3421.0,3414.0,1211.0,1209.0,1779.0,1780.0
3433,1213,1779,0,3425.0,3421.0,1212.0,1211.0,1778.0,1779.0
3441,1213,1782,0,3433.0,3425.0,1213.0,1212.0,1779.0,1778.0
3442,1211,1787,0,3441.0,3433.0,1213.0,1213.0,1782.0,1779.0
3443,1214,1793,0,3442.0,3441.0,1211.0,1213.0,1787.0,1782.0
3449,1215,1799,0,3443.0,3442.0,1214.0,1211.0,1793.0,1787.0
3447,1211,1802,0,3449.0,3443.0,1215.0,1214.0,1799.0,1793.0
3443,1208,1810,0,3447.0,3449.0,1211.0,1215.0,1802.0,1799.0
3439,1209,1809,0,3443.0,3447.0,1208.0,1211.0,1810.0,1802.0
3432,1209,1808,0,3439.0,3443.0,1209.0,1208.0,1809.0,1810.0
3427,1210,1804,0,3432.0,3439.0,1209.0,1209.0,1808.0,1809.0
3422,1211,1802,0,3427.0,3432.0,1210.0,1209.0,1804.0,1808.0
3413,1211,1801,0,3422.0,3427.0,1211.0,1210.0,1802.0,1804.0
3409,1210,1799,0,3413.0,3422.0,1211.0,1211.0,1801.0,1802.0
3411,1209,1798,0,3409.0,3413.0,1210.0,1211.0,1799.0,1801.0
3415,1212,1793,0,3411.0,3409.0,1209.0,1210.0,1798.0,1799.0
3419,1212,1792,0,3415.0,3411.0,1212.0,1209.0,1793.0,1798.0
3414,1213,1790,0,3419.0,3415.0,1212.0,1212.0,1792.0,1793.0
3410,1215,1792,0,3414.0,3419.0,1213.0,1212.0,1790.0,1792.0
3409,1219,1795,0,3410.0,3414.0,1215.0,1213.0,1792.0,1790.0
3403,1221,1802,0,3409.0,3410.0,1219.0,1215.0,1795.0,1792.0
3402,1219,1806,0,3403.0,3409.0,1221.0,1219.0,1802.0,1795.0
3403,1214,1815,0,3402.0,3403.0,1219.0,1221.0,1806.0,1802.0
3403,1209,1812,0,3403.0,3402.0,1214.0,1219.0,1815.0,1806.0
3397,1207,1813,0,3403.0,3403.0,1209.0,1214.0,1812.0,1815.0
3398,1204,1809,0,3397.0,3403.0,1207.0,1209.0,1813.0,1812.0
3398,1204,1804,0,3398.0,3397.0,1204.0,1207.0,1809.0,1813.0
3402,1202,1799,0,3398.0,3398.0,1204.0,1204.0,1804.0,1809.0
3402,1198,1789,0,3402.0,3398.0,1202.0,1204.0,1799.0,1804.0
3403,1199,1785,0,3402.0,3402.0,1198.0,1202.0,1789.0,1799.0
3402,1203,1780,0,3403.0,3402.0,1199.0,1198.0,1785.0,1789.0
3404,1207,1784,0,3402.0,3403.0,1203.0,1199.0,1780.0,1785.0
3406,1214,1788,0,3404.0,3402.0,1207.0,1203.0,1784.0,1780.0
3403,1218,1792,0,3406.0,3404.0,1214.0,1207.0,1788.0,1784.0
3404,1225,1798,0,3403.0,3406.0,1218.0,1214.0,1792.0,1788.0
3402,1226,1802,0,3404.0,3403.0,1225.0,1218.0,1798.0,1792.0
3397,1229,1802,0,3402.0,3404.0,1226.0,1225.0,1802.0,1798.0
3387,1233,1801,0,3397.0,3402.0,1229.0,1226.0,1802.0,1802.0
3381,1240,1801,0,3387.0,3397.0,1233.0,1229.0,1801.0,1802.0
3374,1244,1808,0,3381.0,3387.0,1240.0,1233.0,1801.0,1801.0
3376,1249,1812,0,3374.0,3381.0,1244.0,1240.0,1808.0,1801.0
3369,1253,1814,0,3376.0,3374.0,1249.0,1244.0,1812.0,1808.0
3366,1257,1813,0,3369.0,3376.0,1253.0,1249.0,1814.0,1812.0
3362,1257,1810,0,3366.0,3369.0,1257.0,1253.0,1813.0,1814.0
3362,1256,1810,0,3362.0,3366.0,1257.0,1257.0,1810.0,1813.0
3361,1253,1808,0,3362.0,3362.0,1256.0,1257.0,1810.0,1810.0
3366,1251,1805,0,3361.0,3362.0,1253.0,1256.0,1808.0,1810.0
3367,1247,1802,0,3366.0,3361.0,1251.0,1253.0,1805.0,1808.0
3362,1246,1802,0,3367.0,3366.0,1247.0,1251.0,1802.0,1805.0
3363,1242,1798,0,3362.0,3367.0,1246.0,1247.0,1802.0,1802.0
3363,1241,1793,0,3363.0,3362.0,1242.0,1246.0,1798.0,1802.0
3369,1235,1790,0,3363.0,3363.0,1241.0,1242.0,1793.0,1798.0
3371,1232,1785,0,3369.0,3363.0,1235.0,1241.0,1790.0,1793.0
3376,1233,1781,0,3371.0,3369.0,1232.0,1235.0,1785.0,1790.0
3381,1233,1781,0,3376.0,3371.0,1233.0,1232.0,1781.0,1785.0
3382,1232,1783,0,3381.0,3376.0,1233.0,1233.0,1781.0,1781.0
3385,1231,1793,0,3382.0,3381.0,1232.0,1233.0,1783.0,1781.0
3385,1226,1789,0,3385.0,3382.0,1231.0,1232.0,1793.0,1783.0
3388,1224,1790,0,3385.0,3385.0,1226.0,1231.0,1789.0,1793.0
3392,1227,1800,0,3388.0,3385.0,1224.0,1226.0,1790.0,1789.0
3393,1234,1806,0,3392.0,3388.0,1227.0,1224.0,1800.0,1790.0
3393,1236,1818,0,3393.0,3392.0,1234.0,1227.0,1806.0,1800.0
3391,1242,1828,0,3393.0,3393.0,1236.0,1234.0,1818.0,1806.0
3385,1242,1831,0,3391.0,3393.0,1242.0,1236.0,1828.0,1818.0
3384,1241,1834,0,3385.0,3391.0,1242.0,1242.0,1831.0,1828.0
3381,1240,1833,0,3384.0,3385.0,1241.0,1242.0,1834.0,1831.0
3379,1236,1831,0,3381.0,3384.0,1240.0,1241.0,1833.0,1834.0
3383,1233,1831,0,3379.0,3381.0,1236.0,1240.0,1831.0,1833.0
3387,1229,1827,0,3383.0,3379.0,1233.0,1236.0,1831.0,1831.0
3396,1226,1830,0,3387.0,3383.0,1229.0,1233.0,1827.0,1831.0
3402,1223,1832,0,3396.0,3387.0,1226.0,1229.0,1830.0,1827.0
3413,1220,1832,0,3402.0,3396.0,1223.0,1226.0,1832.0,1830.0
3420,1217,1828,0,3413.0,3402.0,1220.0,1223.0,1832.0,1832.0
3427,1210,1818,0,3420.0,3413.0,1217.0,1220.0,1828.0,1832.0
3428,1203,1809,0,3427.0,3420.0,1210.0,1217.0,1818.0,1828.0
3435,1196,1797,0,3428.0,3427.0,1203.0,1210.0,1809.0,1818.0
3432,1202,1783,0,3435.0,3428.0,1196.0,1203.0,1797.0,1809.0
3435,1208,1792,0,3432.0,3435.0,1202.0,1196.0,1783.0,1797.0
3447,1217,1805,0,3435.0,3432.0,1208.0,1202.0,1792.0,1783.0
3456,1225,1821,0,3447.0,3435.0,1217.0,1208.0,1805.0,1792.0
3463,1227,1827,0,3456.0,3447.0,1225.0,1217.0,1821.0,1805.0
3465,1221,1835,0,3463.0,3456.0,1227.0,1225.0,1827.0,1821.0
3467,1210,1841,0,3465.0,3463.0,1221.0,1227.0,1835.0,1827.0
3460,1200,1841,0,3467.0,3465.0,1210.0,1221.0,1841.0,1835.0
3456,1181,1836,0,3460.0,3467.0,1200.0,1210.0,1841.0,1841.0
3441,1160,1822,0,3456.0,3460.0,1181.0,1200.0,1836.0,1841.0
3420,1132,1806,0,3441.0,3456.0,1160.0,1181.0,1822.0,1836.0
3397,1112,1791,0,3420.0,3441.0,1132.0,1160.0,1806.0,1822.0
3370,1100,1774,0,3397.0,3420.0,1112.0,1132.0,1791.0,1806.0
3343,1094,1754,0,3370.0,3397.0,1100.0,1112.0,1774.0,1791.0
3323,1095,1739,0,3343.0,3370.0,1094.0,1100.0,1754.0,1774.0
3296,1118,1722,0,3323.0,3343.0,1095.0,1094.0,1739.0,1754.0
3302,1099,1728,0,3296.0,3323.0,1118.0,1095.0,1722.0,1739.0
3305,1146,1730,0,3302.0,3296.0,1099.0,1118.0,1728.0,1722.0
3324,1204,1747,0,3305.0,3302.0,1146.0,1099.0,1730.0,1728.0
3352,1256,1768,0,3324.0,3305.0,1204.0,1146.0,1747.0,1730.0
3382,1295,1790,0,3352.0,3324.0,1256.0,1204.0,1768.0,1747.0
3410,1320,1805,0,3382.0,3352.0,1295.0,1256.0,1790.0,1768.0
3426,1326,1808,0,3410.0,3382.0,1320.0,1295.0,1805.0,1790.0
3432,1314,1804,0,3426.0,3410.0,1326.0,1320.0,1808.0,1805.0
3427,1293,1797,0,3432.0,3426.0,1314.0,1326.0,1804.0,1808.0
3411,1277,1784,0,3427.0,3432.0,1293.0,1314.0,1797.0,1804.0
3394,1262,1769,0,3411.0,3427.0,1277.0,1293.0,1784.0,1797.0
3379,1255,1763,0,3394.0,3411.0,1262.0,1277.0,1769.0,1784.0
3367,1255,1760,0,3379.0,3394.0,1255.0,1262.0,1763.0,1769.0
3364,1259,1760,0,3367.0,3379.0,1255.0,1255.0,1760.0,1763.0
3362,1271,1757,0,3364.0,3367.0,1259.0,1255.0,1760.0,1760.0
3364,1285,1753,0,3362.0,3364.0,1271.0,1259.0,1757.0,1760.0
3371,1293,1754,0,3364.0,3362.0,1285.0,1271.0,1753.0,1757.0
3382,1294,1759,0,3371.0,3364.0,1293.0,1285.0,1754.0,1753.0
3392,1301,1762,0,3382.0,3371.0,1294.0,1293.0,1759.0,1754.0
3402,1302,1767,0,3392.0,3382.0,1301.0,1294.0,1762.0,1759.0
3411,1298,1766,0,3402.0,3392.0,1302.0,1301.0,1767.0,1762.0
3424,1275,1772,0,3411.0,3402.0,1298.0,1302.0,1766.0,1767.0
3430,1275,1776,0,3424.0,3411.0,1275.0,1298.0,1772.0,1766.0
3428,1261,1791,0,3430.0,3424.0,1275.0,1275.0,1776.0,1772.0
3423,1262,1796,0,3428.0,3430.0,1261.0,1275.0,1791.0,1776.0
3412,1257,1804,0,3423.0,3428.0,1262.0,1261.0,1796.0,1791.0
3400,1254,1806,0,3412.0,3423.0,1257.0,1262.0,1804.0,1796.0
3391,1251,1805,0,3400.0,3412.0,1254.0,1257.0,1806.0,1804.0
3382,1253,1807,0,3391.0,3400.0,1251.0,1254.0,1805.0,1806.0
3377,1249,1811,0,3382.0,3391.0,1253.0,1251.0,1807.0,1805.0
3370,1240,1809,0,3377.0,3382.0,1249.0,1253.0,1811.0,1807.0
3358,1242,1803,0,3370.0,3377.0,1240.0,1249.0,1809.0,1811.0
3351,1245,1802,0,3358.0,3370.0,1242.0,1240.0,1803.0,1809.0
3348,1254,1802,0,3351.0,3358.0,1245.0,1242.0,1802.0,1803.0
3346,1266,1803,0,3348.0,3351.0,1254.0,1245.0,1802.0,1802.0
3349,1275,1804,0,3346.0,3348.0,1266.0,1254.0,1803.0,1802.0
3351,1285,1801,0,3349.0,3346.0,1275.0,1266.0,1804.0,1803.0
3361,1289,1797,0,3351.0,3349.0,1285.0,1275.0,1801.0,1804.0
3368,1295,1796,0,3361.0,3351.0,1289.0,1285.0,1797.0,1801.0
3381,1296,1795,0,3368.0,3361.0,1295.0,1289.0,1796.0,1797.0
3389,1297,1796,0,3381.0,3368.0,1296.0,1295.0,1795.0,1796.0
3399,1299,1798,0,3389.0,3381.0,1297.0,1296.0,1796.0,1795.0
3405,1297,1796,0,3399.0,3389.0,1299.0,1297.0,1798.0,1796.0
3409,1292,1794,0,3405.0,3399.0,1297.0,1299.0,1796.0,1798.0
3414,1286,1796,0,3409.0,3405.0,1292.0,1297.0,1794.0,1796.0
3418,1282,1792,0,3414.0,3409.0,1286.0,1292.0,1796.0,1794.0
3418,1273,1786,0,3418.0,3414.0,1282.0,1286.0,1792.0,1796.0
3412,1267,1787,0,3418.0,3418.0,1273.0,1282.0,1786.0,1792.0
3407,1262,1783,0,3412.0,3418.0,1267.0,1273.0,1787.0,1786.0
3401,1263,1784,0,3407.0,3412.0,1262.0,1267.0,1783.0,1787.0
3394,1269,1787,0,3401.0,3407.0,1263.0,1262.0,1784.0,1783.0
3390,1269,1792,0,3394.0,3401.0,1269.0,1263.0,1787.0,1784.0
3383,1271,1795,0,3390.0,3394.0,1269.0,1269.0,1792.0,1787.0
3377,1273,1793,0,3383.0,3390.0,1271.0,1269.0,1795.0,1792.0
3378,1279,1796,0,3377.0,3383.0,1273.0,1271.0,1793.0,1795.0
3376,1280,1798,0,3378.0,3377.0,1279.0,1273.0,1796.0,1793.0
3372,1276,1801,0,3376.0,3378.0,1280.0,1279.0,1798.0,1796.0
3371,1270,1800,0,3372.0,3376.0,1276.0,1280.0,1801.0,1798.0
3372,1266,1803,0,3371.0,3372.0,1270.0,1276.0,1800.0,1801.0
3370,1264,1805,0,3372.0,3371.0,1266.0,1270.0,1803.0,1800.0
3368,1263,1811,0,3370.0,3372.0,1264.0,1266.0,1805.0,1803.0
3367,1262,1807,0,3368.0,3370.0,1263.0,1264.0,1811.0,1805.0
3365,1260,1810,0,3367.0,3368.0,1262.0,1263.0,1807.0,1811.0
3365,1259,1808,0,3365.0,3367.0,1260.0,1262.0,1810.0,1807.0
3364,1263,1803,0,3365.0,3365.0,1259.0,1260.0,1808.0,1810.0
3366,1261,1802,0,3364.0,3365.0,1263.0,1259.0,1803.0,1808.0
3372,1260,1805,0,3366.0,3364.0,1261.0,1263.0,1802.0,1803.0
3378,1261,1806,0,3372.0,3366.0,1260.0,1261.0,1805.0,1802.0
3385,1262,1802,0,3378.0,3372.0,1261.0,1260.0,1806.0,1805.0
3387,1262,1801,0,3385.0,3378.0,1262.0,1261.0,1802.0,1806.0
3394,1262,1800,0,3387.0,3385.0,1262.0,1262.0,1801.0,1802.0
3395,1263,1794,0,3394.0,3387.0,1262.0,1262.0,1800.0,1801.0
3393,1263,1797,0,3395.0,3394.0,1263.0,1262.0,1794.0,1800.0
3387,1263,1793,0,3393.0,3395.0,1263.0,1263.0,1797.0,1794.0
3380,1261,1794,0,3387.0,3393.0,1263.0,1263.0,1793.0,1797.0
3375,1264,1796,0,3380.0,3387.0,1261.0,1263.0,1794.0,1793.0
3370,1266,1800,0,3375.0,3380.0,1264.0,1261.0,1796.0,1794.0
3359,1268,1804,0,3370.0,3375.0,1266.0,1264.0,1800.0,1796.0
3356,1269,1803,0,3359.0,3370.0,1268.0,1266.0,1804.0,1800.0
3351,1265,1797,0,3356.0,3359.0,1269.0,1268.0,1803.0,1804.0
3345,1261,1796,0,3351.0,3356.0,1265.0,1269.0,1797.0,1803.0
3344,1263,1794,0,3345.0,3351.0,1261.0,1265.0,1796.0,1797.0
3354,1260,1797,0,3344.0,3345.0,1263.0,1261.0,1794.0,1796.0
3362,1266,1796,0,3354.0,3344.0,1260.0,1263.0,1797.0,1794.0
3372,1268,1797,0,3362.0,3354.0,1266.0,1260.0,1796.0,1797.0
3376,1270,1795,0,3372.0,3362.0,1268.0,1266.0,1797.0,1796.0
3375,1270,1790,0,3376.0,3372.0,1270.0,1268.0,1795.0,1797.0
3373,1268,1784,0,3375.0,3376.0,1270.0,1270.0,1790.0,1795.0
3376,1269,1782,0,3373.0,3375.0,1268.0,1270.0,1784.0,1790.0
3375,1275,1782,0,3376.0,3373.0,1269.0,1268.0,1782.0,1784.0
3374,1281,1784,0,3375.0,3376.0,1275.0,1269.0,1782.0,1782.0
3376,1281,1790,0,3374.0,3375.0,1281.0,1275.0,1784.0,1782.0
3381,1281,1797,0,3376.0,3374.0,1281.0,1281.0,1790.0,1784.0
3391,1282,1799,0,3381.0,3376.0,1281.0,1281.0,1797.0,1790.0
3400,1281,1797,0,3391.0,3381.0,1282.0,1281.0,1799.0,1797.0
3403,1278,1796,0,3400.0,3391.0,1281.0,1282.0,1797.0,1799.0
3411,1269,1792,0,3403.0,3400.0,1278.0,1281.0,1796.0,1797.0
3415,1254,1786,0,3411.0,3403.0,1269.0,1278.0,1792.0,1796.0
3414,1244,1780,0,3415.0,3411.0,1254.0,1269.0,1786.0,1792.0
3411,1238,1776,0,3414.0,3415.0,1244.0,1254.0,1780.0,1786.0
3414,1236,1775,0,3411.0,3414.0,1238.0,1244.0,1776.0,1780.0
3410,1232,1777,0,3414.0,3411.0,1236.0,1238.0,1775.0,1776.0
3411,1233,1779,0,3410.0,3414.0,1232.0,1236.0,1777.0,1775.0
3408,1234,1786,0,3411.0,3410.0,1233.0,1232.0,1779.0,1777.0
3407,1231,1790,0,3408.0,3411.0,1234.0,1233.0,1786.0,1779.0
3408,1231,1796,0,3407.0,3408.0,1231.0,1234.0,1790.0,1786.0
3405,1234,1801,0,3408.0,3407.0,1231.0,1231.0,1796.0,1790.0
3400,1235,1803,0,3405.0,3408.0,1234.0,1231.0,1801.0,1796.0
3398,1236,1804,0,3400.0,3405.0,1235.0,1234.0,1803.0,1801.0
3393,1235,1804,0,3398.0,3400.0,1236.0,1235.0,1804.0,1803.0
3388,1231,1809,0,3393.0,3398.0,1235.0,1236.0,1804.0,1804.0
3388,1235,1807,0,3388.0,3393.0,1231.0,1235.0,1809.0,1804.0
3383,1234,1809,0,3388.0,3388.0,1235.0,1231.0,1807.0,1809.0
3381,1233,1807,0,3383.0,3388.0,1234.0,1235.0,1809.0,1807.0
3375,1231,1805,0,3381.0,3383.0,1233.0,1234.0,1807.0,1809.0
3371,1232,1801,0,3375.0,3381.0,1231.0,1233.0,1805.0,1807.0
3370,1231,1798,0,3371.0,3375.0,1232.0,1231.0,1801.0,1805.0
3370,1240,1796,0,3370.0,3371.0,1231.0,1232.0,1798.0,1801.0
3375,1244,1796,0,3370.0,3370.0,1240.0,1231.0,1796.0,1798.0
3378,1250,1800,0,3375.0,3370.0,1244.0,1240.0,1796.0,1796.0
3385,1254,1796,0,3378.0,3375.0,1250.0,1244.0,1800.0,1796.0
3386,1256,1794,0,3385.0,3378.0,1254.0,1250.0,1796.0,1800.0
3389,1258,1793,0,3386.0,3385.0,1256.0,1254.0,1794.0,1796.0
3393,1256,1792,0,3389.0,3386.0,1258.0,1256.0,1793.0,1794.0
3398,1259,1792,0,3393.0,3389.0,1256.0,1258.0,1792.0,1793.0
3400,1260,1786,0,3398.0,3393.0,1259.0,1256.0,1792.0,1792.0
3405,1261,1791,0,3400.0,3398.0,1260.0,1259.0,1786.0,1792.0
3414,1265,1797,0,3405.0,3400.0,1261.0,1260.0,1791.0,1786.0
3417,1262,1798,0,3414.0,3405.0,1265.0,1261.0,1797.0,1791.0
3418,1265,1801,0,3417.0,3414.0,1262.0,1265.0,1798.0,1797.0
3417,1260,1795,0,3418.0,3417.0,1265.0,1262.0,1801.0,1798.0
3418,1258,1798,0,3417.0,3418.0,1260.0,1265.0,1795.0,1801.0
3420,1260,1800,0,3418.0,3417.0,1258.0,1260.0,1798.0,1795.0
3418,1254,1801,0,3420.0,3418.0,1260.0,1258.0,1800.0,1798.0
3408,1251,1803,0,3418.0,3420.0,1254.0,1260.0,1801.0,1800.0
3398,1243,1803,0,3408.0,3418.0,1251.0,1254.0,1803.0,1801.0
3392,1239,1806,0,3398.0,3408.0,1243.0,1251.0,1803.0,1803.0
3380,1244,1806,0,3392.0,3398.0,1239.0,1243.0,1806.0,1803.0
3368,1244,1804,0,3380.0,3392.0,1244.0,1239.0,1806.0,1806.0
3363,1245,1807,0,3368.0,3380.0,1244.0,1244.0,1804.0,1806.0
3361,1247,1803,0,3363.0,3368.0,1245.0,1244.0,1807.0,1804.0
3355,1250,1804,0,3361.0,3363.0,1247.0,1245.0,1803.0,1807.0
3357,1250,1802,0,3355.0,3361.0,1250.0,1247.0,1804.0,1803.0
3354,1251,1801,0,3357.0,3355.0,1250.0,1250.0,1802.0,1804.0
3355,1256,1808,0,3354.0,3357.0,1251.0,1250.0,1801.0,1802.0
3363,1259,1809,0,3355.0,3354.0,1256.0,1251.0,1808.0,1801.0
3369,1262,1810,0,3363.0,3355.0,1259.0,1256.0,1809.0,1808.0
3372,1266,1816,0,3369.0,3363.0,1262.0,1259.0,1810.0,1809.0
3375,1259,1814,0,3372.0,3369.0,1266.0,1262.0,1816.0,1810.0
3376,1262,1810,0,3375.0,3372.0,1259.0,1266.0,1814.0,1816.0
3373,1265,1806,0,3376.0,3375.0,1262.0,1259.0,1810.0,1814.0
3376,1271,1806,0,3373.0,3376.0,1265.0,1262.0,1806.0,1810.0
3374,1275,1810,0,3376.0,3373.0,1271.0,1265.0,1806.0,1806.0
3377,1276,1809,0,3374.0,3376.0,1275.0,1271.0,1810.0,1806.0
3374,1275,1810,0,3377.0,3374.0,1276.0,1275.0,1809.0,1810.0
3371,1271,1806,0,3374.0,3377.0,1275.0,1276.0,1810.0,1809.0
3369,1268,1802,0,3371.0,3374.0,1271.0,1275.0,1806.0,1810.0
3368,1259,1799,0,3369.0,3371.0,1268.0,1271.0,1802.0,1806.0
3365,1257,1798,0,3368.0,3369.0,1259.0,1268.0,1799.0,1802.0
3361,1255,1799,0,3365.0,3368.0,1257.0,1259.0,1798.0,1799.0
3360,1250,1796,0,3361.0,3365.0,1255.0,1257.0,1799.0,1798.0
3366,1247,1796,0,3360.0,3361.0,1250.0,1255.0,1796.0,1799.0
3370,1243,1792,0,3366.0,3360.0,1247.0,1250.0,1796.0,1796.0
3373,1239,1787,0,3370.0,3366.0,1243.0,1247.0,1792.0,1796.0
3375,1240,1789,0,3373.0,3370.0,1239.0,1243.0,1787.0,1792.0
3378,1245,1795,0,3375.0,3373.0,1240.0,1239.0,1789.0,1787.0
3378,1246,1803,0,3378.0,3375.0,1245.0,1240.0,1795.0,1789.0
3381,1249,1801,0,3378.0,3378.0,1246.0,1245.0,1803.0,1795.0
3383,1251,1801,0,3381.0,3378.0,1249.0,1246.0,1801.0,1803.0
3383,1249,1797,0,3383.0,3381.0,1251.0,1249.0,1801.0,1801.0
3385,1248,1797,0,3383.0,3383.0,1249.0,1251.0,1797.0,1801.0
3383,1250,1799,0,3385.0,3383.0,1248.0,1249.0,1797.0,1797.0
3383,1253,1804,0,3383.0,3385.0,1250.0,1248.0,1799.0,1797.0
3377,1257,1808,0,3383.0,3383.0,1253.0,1250.0,1804.0,1799.0
3380,1259,1809,0,3377.0,3383.0,1257.0,1253.0,1808.0,1804.0
3378,1259,1808,0,3380.0,3377.0,1259.0,1257.0,1809.0,1808.0
3375,1257,1802,0,3378.0,3380.0,1259.0,1259.0,1808.0,1809.0
3372,1257,1798,0,3375.0,3378.0,1257.0,1259.0,1802.0,1808.0
3372,1257,1803,0,3372.0,3375.0,1257.0,1257.0,1798.0,1802.0
3372,1258,1802,0,3372.0,3372.0,1257.0,1257.0,1803.0,1798.0
3375,1260,1806,0,3372.0,3372.0,1258.0,1257.0,1802.0,1803.0
3379,1257,1805,0,3375.0,3372.0,1260.0,1258.0,1806.0,1802.0
3385,1256,1804,0,3379.0,3375.0,1257.0,1260.0,1805.0,1806.0
3385,1253,1806,0,3385.0,3379.0,1256.0,1257.0,1804.0,1805.0
3383,1251,1807,0,3385.0,3385.0,1253.0,1256.0,1806.0,1804.0
3384,1255,1810,0,3383.0,3385.0,1251.0,1253.0,1807.0,1806.0
3389,1255,1812,0,3384.0,3383.0,1255.0,1251.0,1810.0,1807.0
3387,1256,1813,0,3389.0,3384.0,1255.0,1255.0,1812.0,1810.0
3386,1258,1815,0,3387.0,3389.0,1256.0,1255.0,1813.0,1812.0
3388,1257,1817,0,3386.0,3387.0,1258.0,1256.0,1815.0,1813.0
3389,1252,1815,0,3388.0,3386.0,1257.0,1258.0,1817.0,1815.0
3385,1250,1812,0,3389.0,3388.0,1252.0,1257.0,1815.0,1817.0
3387,1249,1809,0,3385.0,3389.0,1250.0,1252.0,1812.0,1815.0
3386,1241,1810,0,3387.0,3385.0,1249.0,1250.0,1809.0,1812.0
3387,1237,1805,0,3386.0,3387.0,1241.0,1249.0,1810.0,1809.0
3390,1234,1799,0,3387.0,3386.0,1237.0,1241.0,1805.0,1810.0
3390,1227,1790,0,3390.0,3387.0,1234.0,1237.0,1799.0,1805.0
3387,1223,1780,0,3390.0,3390.0,1227.0,1234.0,1790.0,1799.0
3385,1222,1781,0,3387.0,3390.0,1223.0,1227.0,1780.0,1790.0
3384,1229,1780,0,3385.0,3387.0,1222.0,1223.0,1781.0,1780.0
3390,1237,1790,0,3384.0,3385.0,1229.0,1222.0,1780.0,1781.0
3392,1247,1798,0,3390.0,3384.0,1237.0,1229.0,1790.0,1780.0
3391,1251,1803,0,3392.0,3390.0,1247.0,1237.0,1798.0,1790.0
3394,1252,1803,0,3391.0,3392.0,1251.0,1247.0,1803.0,1798.0
3396,1248,1800,0,3394.0,3391.0,1252.0,1251.0,1803.0,1803.0
3394,1246,1800,0,3396.0,3394.0,1248.0,1252.0,1800.0,1803.0
3395,1248,1803,0,3394.0,3396.0,1246.0,1248.0,1800.0,1800.0
3394,1248,1803,0,3395.0,3394.0,1248.0,1246.0,1803.0,1800.0
3397,1248,1805,0,3394.0,3395.0,1248.0,1248.0,1803.0,1803.0
3394,1238,1804,0,3397.0,3394.0,1248.0,1248.0,1805.0,1803.0
3393,1233,1796,0,3394.0,3397.0,1238.0,1248.0,1804.0,1805.0
3395,1228,1796,0,3393.0,3394.0,1233.0,1238.0,1796.0,1804.0
3393,1227,1799,0,3395.0,3393.0,1228.0,1233.0,1796.0,1796.0
3396,1230,1801,0,3393.0,3395.0,1227.0,1228.0,1799.0,1796.0
3394,1233,1807,0,3396.0,3393.0,1230.0,1227.0,1801.0,1799.0
3398,1234,1811,0,3394.0,3396.0,1233.0,1230.0,1807.0,1801.0
3402,1237,1811,0,3398.0,3394.0,1234.0,1233.0,1811.0,1807.0
3399,1239,1812,0,3402.0,3398.0,1237.0,1234.0,1811.0,1811.0
3399,1244,1816,0,3399.0,3402.0,1239.0,1237.0,1812.0,1811.0
3400,1244,1820,0,3399.0,3399.0,1244.0,1239.0,1816.0,1812.0
3398,1240,1824,0,3400.0,3399.0,1244.0,1244.0,1820.0,1816.0
3390,1236,1829,0,3398.0,3400.0,1240.0,1244.0,1824.0,1820.0
3386,1233,1831,0,3390.0,3398.0,1236.0,1240.0,1829.0,1824.0
3380,1229,1833,0,3386.0,3390.0,1233.0,1236.0,1831.0,1829.0
3370,1226,1832,0,3380.0,3386.0,1229.0,1233.0,1833.0,1831.0
3362,1218,1831,0,3370.0,3380.0,1226.0,1229.0,1832.0,1833.0
3357,1212,1829,0,3362.0,3370.0,1218.0,1226.0,1831.0,1832.0
3355,1211,1831,0,3357.0,3362.0,1212.0,1218.0,1829.0,1831.0
3350,1213,1828,0,3355.0,3357.0,1211.0,1212.0,1831.0,1829.0
3354,1214,1831,0,3350.0,3355.0,1213.0,1211.0,1828.0,1831.0
3358,1214,1831,0,3354.0,3350.0,1214.0,1213.0,1831.0,1828.0
3363,1217,1829,0,3358.0,3354.0,1214.0,1214.0,1831.0,1831.0
3371,1223,1823,0,3363.0,3358.0,1217.0,1214.0,1829.0,1831.0
3374,1226,1821,0,3371.0,3363.0,1223.0,1217.0,1823.0,1829.0
3381,1226,1828,0,3374.0,3371.0,1226.0,1223.0,1821.0,1823.0
3386,1225,1828,0,3381.0,3374.0,1226.0,1226.0,1828.0,1821.0
3393,1227,1828,0,3386.0,3381.0,1225.0,1226.0,1828.0,1828.0
3392,1231,1829,0,3393.0,3386.0,1227.0,1225.0,1828.0,1828.0
3387,1232,1828,0,3392.0,3393.0,1231.0,1227.0,1829.0,1828.0
3389,1234,1835,0,3387.0,3392.0,1232.0,1231.0,1828.0,1829.0
3393,1239,1838,0,3389.0,3387.0,1234.0,1232.0,1835.0,1828.0
3394,1237,1838,0,3393.0,3389.0,1239.0,1234.0,1838.0,1835.0
3393,1236,1834,0,3394.0,3393.0,1237.0,1239.0,1838.0,1838.0
3392,1234,1831,0,3393.0,3394.0,1236.0,1237.0,1834.0,1838.0
3387,1234,1824,0,3392.0,3393.0,1234.0,1236.0,1831.0,1834.0
3382,1230,1822,0,3387.0,3392.0,1234.0,1234.0,1824.0,1831.0
3381,1231,1824,0,3382.0,3387.0,1230.0,1234.0,1822.0,1824.0
3374,1229,1822,0,3381.0,3382.0,1231.0,1230.0,1824.0,1822.0
3374,1226,1824,0,3374.0,3381.0,1229.0,1231.0,1822.0,1824.0
3372,1223,1827,0,3374.0,3374.0,1226.0,1229.0,1824.0,1822.0
3372,1220,1828,0,3372.0,3374.0,1223.0,1226.0,1827.0,1824.0
3371,1220,1829,0,3372.0,3372.0,1220.0,1223.0,1828.0,1827.0
3370,1219,1826,0,3371.0,3372.0,1220.0,1220.0,1829.0,1828.0
3369,1217,1826,0,3370.0,3371.0,1219.0,1220.0,1826.0,1829.0
3366,1216,1827,0,3369.0,3370.0,1217.0,1219.0,1826.0,1826.0
3365,1217,1828,0,3366.0,3369.0,1216.0,1217.0,1827.0,1826.0
3365,1219,1826,0,3365.0,3366.0,1217.0,1216.0,1828.0,1827.0
3368,1222,1827,0,3365.0,3365.0,1219.0,1217.0,1826.0,1828.0
3370,1224,1827,0,3368.0,3365.0,1222.0,1219.0,1827.0,1826.0
3376,1225,1824,0,3370.0,3368.0,1224.0,1222.0,1827.0,1827.0
3375,1227,1829,0,3376.0,3370.0,1225.0,1224.0,1824.0,1827.0
3375,1226,1830,0,3375.0,3376.0,1227.0,1225.0,1829.0,1824.0
3376,1230,1834,0,3375.0,3375.0,1226.0,1227.0,1830.0,1829.0
3382,1231,1836,0,3376.0,3375.0,1230.0,1226.0,1834.0,1830.0
3382,1233,1836,0,3382.0,3376.0,1231.0,1230.0,1836.0,1834.0
3376,1231,1834,0,3382.0,3382.0,1233.0,1231.0,1836.0,1836.0
3379,1233,1830,0,3376.0,3382.0,1231.0,1233.0,1834.0,1836.0
3378,1234,1833,0,3379.0,3376.0,1233.0,1231.0,1830.0,1834.0
3380,1233,1834,0,3378.0,3379.0,1234.0,1233.0,1833.0,1830.0
3381,1233,1830,0,3380.0,3378.0,1233.0,1234.0,1834.0,1833.0
3381,1236,1827,0,3381.0,3380.0,1233.0,1233.0,1830.0,1834.0
3376,1235,1828,0,3381.0,3381.0,1236.0,1233.0,1827.0,1830.0
3375,1233,1828,0,3376.0,3381.0,1235.0,1236.0,1828.0,1827.0
3370,1238,1826,0,3375.0,3376.0,1233.0,1235.0,1828.0,1828.0
3368,1239,1831,0,3370.0,3375.0,1238.0,1233.0,1826.0,1828.0
3369,1240,1831,0,3368.0,3370.0,1239.0,1238.0,1831.0,1826.0
3366,1244,1828,0,3369.0,3368.0,1240.0,1239.0,1831.0,1831.0
3359,1244,1826,0,3366.0,3369.0,1244.0,1240.0,1828.0,1831.0
3358,1248,1825,0,3359.0,3366.0,1244.0,1244.0,1826.0,1828.0
3356,1250,1825,0,3358.0,3359.0,1248.0,1244.0,1825.0,1826.0
3360,1252,1826,0,3356.0,3358.0,1250.0,1248.0,1825.0,1825.0
3364,1253,1826,0,3360.0,3356.0,1252.0,1250.0,1826.0,1825.0
3367,1254,1826,0,3364.0,3360.0,1253.0,1252.0,1826.0,1826.0
3374,1255,1822,0,3367.0,3364.0,1254.0,1253.0,1826.0,1826.0
3379,1252,1818,0,3374.0,3367.0,1255.0,1254.0,1822.0,1826.0
3380,1245,1819,0,3379.0,3374.0,1252.0,1255.0,1818.0,1822.0
3382,1243,1818,0,3380.0,3379.0,1245.0,1252.0,1819.0,1818.0
3377,1243,1817,0,3382.0,3380.0,1243.0,1245.0,1818.0,1819.0
3380,1241,1817,0,3377.0,3382.0,1243.0,1243.0,1817.0,1818.0
3387,1245,1819,0,3380.0,3377.0,1241.0,1243.0,1817.0,1817.0
3393,1247,1818,0,3387.0,3380.0,1245.0,1241.0,1819.0,1817.0
3396,1249,1823,0,3393.0,3387.0,1247.0,1245.0,1818.0,1819.0
3394,1252,1824,0,3396.0,3393.0,1249.0,1247.0,1823.0,1818.0
3396,1256,1822,0,3394.0,3396.0,1252.0,1249.0,1824.0,1823.0
3397,1254,1821,0,3396.0,3394.0,1256.0,1252.0,1822.0,1824.0
3396,1248,1817,0,3397.0,3396.0,1254.0,1256.0,1821.0,1822.0
3394,1246,1821,0,3396.0,3397.0,1248.0,1254.0,1817.0,1821.0
3389,1243,1821,0,3394.0,3396.0,1246.0,1248.0,1821.0,1817.0
3384,1240,1820,0,3389.0,3394.0,1243.0,1246.0,1821.0,1821.0
3378,1241,1817,0,3384.0,3389.0,1240.0,1243.0,1820.0,1821.0
3372,1237,1815,0,3378.0,3384.0,1241.0,1240.0,1817.0,1820.0
3373,1236,1812,0,3372.0,3378.0,1237.0,1241.0,1815.0,1817.0
3368,1233,1817,0,3373.0,3372.0,1236.0,1237.0,1812.0,1815.0
3373,1230,1820,0,3368.0,3373.0,1233.0,1236.0,1817.0,1812.0
3371,1228,1824,0,3373.0,3368.0,1230.0,1233.0,1820.0,1817.0
3371,1232,1820,0,3371.0,3373.0,1228.0,1230.0,1824.0,1820.0
3372,1232,1820,0,3371.0,3371.0,1232.0,1228.0,1820.0,1824.0
3375,1230,1819,0,3372.0,3371.0,1232.0,1232.0,1820.0,1820.0
3377,1231,1817,0,3375.0,3372.0,1230.0,1232.0,1819.0,1820.0
3382,1233,1818,0,3377.0,3375.0,1231.0,1230.0,1817.0,1819.0
3391,1233,1815,0,3382.0,3377.0,1233.0,1231.0,1818.0,1817.0
3395,1230,1812,0,3391.0,3382.0,1233.0,1233.0,1815.0,1818.0
3391,1226,1813,0,3395.0,3391.0,1230.0,1233.0,1812.0,1815.0
3387,1231,1810,0,3391.0,3395.0,1226.0,1230.0,1813.0,1812.0
3382,1229,1810,0,3387.0,3391.0,1231.0,1226.0,1810.0,1813.0
3379,1233,1811,0,3382.0,3387.0,1229.0,1231.0,1810.0,1810.0
3374,1233,1812,0,3379.0,3382.0,1233.0,1229.0,1811.0,1810.0
3373,1234,1809,0,3374.0,3379.0,1233.0,1233.0,1812.0,1811.0
3371,1234,1811,0,3373.0,3374.0,1234.0,1233.0,1809.0,1812.0
3370,1233,1810,0,3371.0,3373.0,1234.0,1234.0,1811.0,1809.0
3363,1231,1809,0,3370.0,3371.0,1233.0,1234.0,1810.0,1811.0
3366,1235,1806,0,3363.0,3370.0,1231.0,1233.0,1809.0,1810.0
3368,1241,1810,0,3366.0,3363.0,1235.0,1231.0,1806.0,1809.0
3374,1246,1810,0,3368.0,3366.0,1241.0,1235.0,1810.0,1806.0
3384,1248,1808,0,3374.0,3368.0,1246.0,1241.0,1810.0,1810.0
3395,1249,1811,0,3384.0,3374.0,1248.0,1246.0,1808.0,1810.0
3404,1256,1813,0,3395.0,3384.0,1249.0,1248.0,1811.0,1808.0
3412,1260,1812,0,3404.0,3395.0,1256.0,1249.0,1813.0,1811.0
3424,1262,1815,0,3412.0,3404.0,1260.0,1256.0,1812.0,1813.0
3430,1265,1818,0,3424.0,3412.0,1262.0,1260.0,1815.0,1812.0
3434,1266,1819,0,3430.0,3424.0,1265.0,1262.0,1818.0,1815.0
3434,1266,1817,0,3434.0,3430.0,1266.0,1265.0,1819.0,1818.0
3430,1261,1812,0,3434.0,3434.0,1266.0,1266.0,1817.0,1819.0
3427,1254,1813,0,3430.0,3434.0,1261.0,1266.0,1812.0,1817.0
3417,1245,1811,0,3427.0,3430.0,1254.0,1261.0,1813.0,1812.0
3405,1237,1809,0,3417.0,3427.0,1245.0,1254.0,1811.0,1813.0
3393,1228,1809,0,3405.0,3417.0,1237.0,1245.0,1809.0,1811.0
3381,1219,1807,0,3393.0,3405.0,1228.0,1237.0,1809.0,1809.0
3372,1220,1808,0,3381.0,3393.0,1219.0,1228.0,1807.0,1809.0
3358,1216,1808,0,3372.0,3381.0,1220.0,1219.0,1808.0,1807.0
3356,1214,1813,0,3358.0,3372.0,1216.0,1220.0,1808.0,1808.0
3351,1217,1814,0,3356.0,3358.0,1214.0,1216.0,1813.0,1808.0
3352,1221,1812,0,3351.0,3356.0,1217.0,1214.0,1814.0,1813.0
3349,1221,1812,0,3352.0,3351.0,1221.0,1217.0,1812.0,1814.0
3356,1223,1813,0,3349.0,3352.0,1221.0,1221.0,1812.0,1812.0
3363,1221,1807,0,3356.0,3349.0,1223.0,1221.0,1813.0,1812.0
3364,1229,1804,0,3363.0,3356.0,1221.0,1223.0,1807.0,1813.0
3371,1234,1804,0,3364.0,3363.0,1229.0,1221.0,1804.0,1807.0
3376,1236,1803,0,3371.0,3364.0,1234.0,1229.0,1804.0,1804.0
3376,1239,1799,0,3376.0,3371.0,1236.0,1234.0,1803.0,1804.0
3381,1242,1794,0,3376.0,3376.0,1239.0,1236.0,1799.0,1803.0
3391,1246,1794,0,3381.0,3376.0,1242.0,1239.0,1794.0,1799.0
3394,1248,1797,0,3391.0,3381.0,1246.0,1242.0,1794.0,1794.0
3395,1249,1798,0,3394.0,3391.0,1248.0,1246.0,1797.0,1794.0
3394,1247,1800,0,3395.0,3394.0,1249.0,1248.0,1798.0,1797.0
3392,1243,1800,0,3394.0,3395.0,1247.0,1249.0,1800.0,1798.0
3389,1242,1798,0,3392.0,3394.0,1243.0,1247.0,1800.0,1800.0
3389,1239,1800,0,3389.0,3392.0,1242.0,1243.0,1798.0,1800.0
3386,1237,1799,0,3389.0,3389.0,1239.0,1242.0,1800.0,1798.0
3388,1234,1800,0,3386.0,3389.0,1237.0,1239.0,1799.0,1800.0
3392,1234,1796,0,3388.0,3386.0,1234.0,1237.0,1800.0,1799.0
3398,1226,1791,0,3392.0,3388.0,1234.0,1234.0,1796.0,1800.0
3402,1228,1787,0,3398.0,3392.0,1226.0,1234.0,1791.0,1796.0
3409,1232,1781,0,3402.0,3398.0,1228.0,1226.0,1787.0,1791.0
3416,1232,1778,0,3409.0,3402.0,1232.0,1228.0,1781.0,1787.0
3422,1230,1767,0,3416.0,3409.0,1232.0,1232.0,1778.0,1781.0
3431,1228,1754,0,3422.0,3416.0,1230.0,1232.0,1767.0,1778.0
3434,1228,1743,0,3431.0,3422.0,1228.0,1230.0,1754.0,1767.0
3437,1225,1738,0,3434.0,3431.0,1228.0,1228.0,1743.0,1754.0
3434,1226,1736,0,3437.0,3434.0,1225.0,1228.0,1738.0,1743.0
3429,1227,1735,0,3434.0,3437.0,1226.0,1225.0,1736.0,1738.0
3423,1230,1745,0,3429.0,3434.0,1227.0,1226.0,1735.0,1736.0
3415,1233,1754,0,3423.0,3429.0,1230.0,1227.0,1745.0,1735.0
3405,1234,1766,0,3415.0,3423.0,1233.0,1230.0,1754.0,1745.0
3398,1233,1774,0,3405.0,3415.0,1234.0,1233.0,1766.0,1754.0
3392,1233,1783,0,3398.0,3405.0,1233.0,1234.0,1774.0,1766.0
3392,1237,1786,0,3392.0,3398.0,1233.0,1233.0,1783.0,1774.0
3390,1231,1791,0,3392.0,3392.0,1237.0,1233.0,1786.0,1783.0
3386,1228,1788,0,3390.0,3392.0,1231.0,1237.0,1791.0,1786.0
3385,1228,1790,0,3386.0,3390.0,1228.0,1231.0,1788.0,1791.0
3392,1225,1791,0,3385.0,3386.0,1228.0,1228.0,1790.0,1788.0
3392,1222,1789,0,3392.0,3385.0,1225.0,1228.0,1791.0,1790.0
3397,1222,1789,0,3392.0,3392.0,1222.0,1225.0,1789.0,1791.0
3398,1222,1787,0,3397.0,3392.0,1222.0,1222.0,1789.0,1789.0
3406,1221,1784,0,3398.0,3397.0,1222.0,1222.0,1787.0,1789.0
3414,1224,1780,0,3406.0,3398.0,1221.0,1222.0,1784.0,1787.0
3416,1226,1778,0,3414.0,3406.0,1224.0,1221.0,1780.0,1784.0
3420,1229,1776,0,3416.0,3414.0,1226.0,1224.0,1778.0,1780.0
3427,1231,1775,0,3420.0,3416.0,1229.0,1226.0,1776.0,1778.0
3425,1234,1777,0,3427.0,3420.0,1231.0,1229.0,1775.0,1776.0
3419,1238,1774,0,3425.0,3427.0,1234.0,1231.0,1777.0,1775.0
3412,1240,1770,0,3419.0,3425.0,1238.0,1234.0,1774.0,1777.0
3409,1240,1768,0,3412.0,3419.0,1240.0,1238.0,1770.0,1774.0
3408,1239,1773,0,3409.0,3412.0,1240.0,1240.0,1768.0,1770.0
3409,1235,1774,0,3408.0,3409.0,1239.0,1240.0,1773.0,1768.0
3408,1230,1770,0,3409.0,3408.0,1235.0,1239.0,1774.0,1773.0
3408,1225,1772,0,3408.0,3409.0,1230.0,1235.0,1770.0,1774.0
3406,1223,1771,0,3408.0,3408.0,1225.0,1230.0,1772.0,1770.0
3404,1222,1772,0,3406.0,3408.0,1223.0,1225.0,1771.0,1772.0
3403,1226,1772,0,3404.0,3406.0,1222.0,1223.0,1772.0,1771.0
3406,1225,1772,0,3403.0,3404.0,1226.0,1222.0,1772.0,1772.0
3409,1222,1776,0,3406.0,3403.0,1225.0,1226.0,1772.0,1772.0
3413,1220,1777,0,3409.0,3406.0,1222.0,1225.0,1776.0,1772.0
3416,1221,1779,0,3413.0,3409.0,1220.0,1222.0,1777.0,1776.0
3417,1224,1778,0,3416.0,3413.0,1221.0,1220.0,1779.0,1777.0
3415,1226,1782,0,3417.0,3416.0,1224.0,1221.0,1778.0,1779.0
3415,1229,1786,0,3415.0,3417.0,1226.0,1224.0,1782.0,1778.0
3416,1230,1783,0,3415.0,3415.0,1229.0,1226.0,1786.0,1782.0
3416,1226,1781,0,3416.0,3415.0,1230.0,1229.0,1783.0,1786.0
3414,1222,1781,0,3416.0,3416.0,1226.0,1230.0,1781.0,1783.0
3408,1218,1783,0,3414.0,3416.0,1222.0,1226.0,1781.0,1781.0
3406,1209,1781,0,3408.0,3414.0,1218.0,1222.0,1783.0,1781.0
3398,1206,1781,0,3406.0,3408.0,1209.0,1218.0,1781.0,1783.0
3398,1203,1785,0,3398.0,3406.0,1206.0,1209.0,1781.0,1781.0
3397,1203,1785,0,3398.0,3398.0,1203.0,1206.0,1785.0,1781.0
3394,1204,1787,0,3397.0,3398.0,1203.0,1203.0,1785.0,1785.0
3389,1205,1788,0,3394.0,3397.0,1204.0,1203.0,1787.0,1785.0
3390,1212,1786,0,3389.0,3394.0,1205.0,1204.0,1788.0,1787.0
3392,1217,1788,0,3390.0,3389.0,1212.0,1205.0,1786.0,1788.0
3398,1224,1790,0,3392.0,3390.0,1217.0,1212.0,1788.0,1786.0
3400,1231,1787,0,3398.0,3392.0,1224.0,1217.0,1790.0,1788.0
3404,1236,1785,0,3400.0,3398.0,1231.0,1224.0,1787.0,1790.0
3402,1236,1784,0,3404.0,3400.0,1236.0,1231.0,1785.0,1787.0
3405,1235,1782,0,3402.0,3404.0,1236.0,1236.0,1784.0,1785.0
3404,1229,1780,0,3405.0,3402.0,1235.0,1236.0,1782.0,1784.0
3402,1229,1780,0,3404.0,3405.0,1229.0,1235.0,1780.0,1782.0
3402,1229,1781,0,3402.0,3404.0,1229.0,1229.0,1780.0,1780.0
3398,1232,1783,0,3402.0,3402.0,1229.0,1229.0,1781.0,1780.0
3398,1230,1785,0,3398.0,3402.0,1232.0,1229.0,1783.0,1781.0
3396,1227,1791,0,3398.0,3398.0,1230.0,1232.0,1785.0,1783.0
3394,1224,1792,0,3396.0,3398.0,1227.0,1230.0,1791.0,1785.0
3393,1221,1790,0,3394.0,3396.0,1224.0,1227.0,1792.0,1791.0
3397,1222,1788,0,3393.0,3394.0,1221.0,1224.0,1790.0,1792.0
3402,1223,1789,0,3397.0,3393.0,1222.0,1221.0,1788.0,1790.0
3404,1227,1786,0,3402.0,3397.0,1223.0,1222.0,1789.0,1788.0
3408,1230,1788,0,3404.0,3402.0,1227.0,1223.0,1786.0,1789.0
3407,1231,1788,0,3408.0,3404.0,1230.0,1227.0,1788.0,1786.0
3407,1234,1790,0,3407.0,3408.0,1231.0,1230.0,1788.0,1788.0
3406,1234,1790,0,3407.0,3407.0,1234.0,1231.0,1790.0,1788.0
3404,1233,1793,0,3406.0,3407.0,1234.0,1234.0,1790.0,1790.0
3404,1232,1797,0,3404.0,3406.0,1233.0,1234.0,1793.0,1790.0
3398,1230,1794,0,3404.0,3404.0,1232.0,1233.0,1797.0,1793.0
3393,1225,1796,0,3398.0,3404.0,1230.0,1232.0,1794.0,1797.0
3388,1220,1793,0,3393.0,3398.0,1225.0,1230.0,1796.0,1794.0
3384,1209,1795,0,3388.0,3393.0,1220.0,1225.0,1793.0,1796.0
3380,1205,1797,0,3384.0,3388.0,1209.0,1220.0,1795.0,1793.0
3376,1202,1799,0,3380.0,3384.0,1205.0,1209.0,1797.0,1795.0
3373,1203,1798,0,3376.0,3380.0,1202.0,1205.0,1799.0,1797.0
3371,1203,1799,0,3373.0,3376.0,1203.0,1202.0,1798.0,1799.0
3371,1204,1803,0,3371.0,3373.0,1203.0,1203.0,1799.0,1798.0
3374,1205,1799,0,3371.0,3371.0,1204.0,1203.0,1803.0,1799.0
3373,1204,1801,0,3374.0,3371.0,1205.0,1204.0,1799.0,1803.0
3377,1211,1807,0,3373.0,3374.0,1204.0,1205.0,1801.0,1799.0
3388,1214,1812,0,3377.0,3373.0,1211.0,1204.0,1807.0,1801.0
3390,1221,1817,0,3388.0,3377.0,1214.0,1211.0,1812.0,1807.0
3393,1227,1819,0,3390.0,3388.0,1221.0,1214.0,1817.0,1812.0
3397,1227,1817,0,3393.0,3390.0,1227.0,1221.0,1819.0,1817.0
3399,1224,1815,0,3397.0,3393.0,1227.0,1227.0,1817.0,1819.0
3401,1225,1814,0,3399.0,3397.0,1224.0,1227.0,1815.0,1817.0
3401,1227,1812,0,3401.0,3399.0,1225.0,1224.0,1814.0,1815.0
3401,1225,1812,0,3401.0,3401.0,1227.0,1225.0,1812.0,1814.0
3400,1223,1810,0,3401.0,3401.0,1225.0,1227.0,1812.0,1812.0
3397,1222,1811,0,3400.0,3401.0,1223.0,1225.0,1810.0,1812.0
3397,1222,1812,0,3397.0,3400.0,1222.0,1223.0,1811.0,1810.0
3402,1216,1810,0,3397.0,3397.0,1222.0,1222.0,1812.0,1811.0
3400,1211,1808,0,3402.0,3397.0,1216.0,1222.0,1810.0,1812.0
3400,1210,1810,0,3400.0,3402.0,1211.0,1216.0,1808.0,1810.0
3397,1205,1805,0,3400.0,3400.0,1210.0,1211.0,1810.0,1808.0
3396,1199,1815,0,3397.0,3400.0,1205.0,1210.0,1805.0,1810.0
3392,1202,1818,0,3396.0,3397.0,1199.0,1205.0,1815.0,1805.0
3391,1201,1819,0,3392.0,3396.0,1202.0,1199.0,1818.0,1815.0
3390,1206,1820,0,3391.0,3392.0,1201.0,1202.0,1819.0,1818.0
3396,1207,1818,0,3390.0,3391.0,1206.0,1201.0,1820.0,1819.0
3395,1208,1817,0,3396.0,3390.0,1207.0,1206.0,1818.0,1820.0
3397,1213,1814,0,3395.0,3396.0,1208.0,1207.0,1817.0,1818.0
3399,1214,1811,0,3397.0,3395.0,1213.0,1208.0,1814.0,1817.0
3398,1221,1807,0,3399.0,3397.0,1214.0,1213.0,1811.0,1814.0
3406,1225,1806,0,3398.0,3399.0,1221.0,1214.0,1807.0,1811.0
3409,1231,1805,0,3406.0,3398.0,1225.0,1221.0,1806.0,1807.0
3405,1230,1805,0,3409.0,3406.0,1231.0,1225.0,1805.0,1806.0
3403,1226,1802,0,3405.0,3409.0,1230.0,1231.0,1805.0,1805.0
3395,1221,1800,0,3403.0,3405.0,1226.0,1230.0,1802.0,1805.0
3392,1222,1801,0,3395.0,3403.0,1221.0,1226.0,1800.0,1802.0
3390,1222,1798,0,3392.0,3395.0,1222.0,1221.0,1801.0,1800.0
3388,1220,1801,0,3390.0,3392.0,1222.0,1222.0,1798.0,1801.0
3383,1214,1800,0,3388.0,3390.0,1220.0,1222.0,1801.0,1798.0
3381,1211,1799,0,3383.0,3388.0,1214.0,1220.0,1800.0,1801.0
3388,1210,1797,0,3381.0,3383.0,1211.0,1214.0,1799.0,1800.0
3395,1215,1798,0,3388.0,3381.0,1210.0,1211.0,1797.0,1799.0
3399,1218,1800,0,3395.0,3388.0,1215.0,1210.0,1798.0,1797.0
3399,1224,1800,0,3399.0,3395.0,1218.0,1215.0,1800.0,1798.0
3403,1223,1800,0,3399.0,3399.0,1224.0,1218.0,1800.0,1800.0
3402,1226,1799,0,3403.0,3399.0,1223.0,1224.0,1800.0,1800.0
3400,1225,1798,0,3402.0,3403.0,1226.0,1223.0,1799.0,1800.0
3400,1226,1797,0,3400.0,3402.0,1225.0,1226.0,1798.0,1799.0
3397,1225,1797,0,3400.0,3400.0,1226.0,1225.0,1797.0,1798.0
3394,1225,1793,0,3397.0,3400.0,1225.0,1226.0,1797.0,1797.0
3385,1223,1792,0,3394.0,3397.0,1225.0,1225.0,1793.0,1797.0
3380,1221,1794,0,3385.0,3394.0,1223.0,1225.0,1792.0,1793.0
3382,1218,1797,0,3380.0,3385.0,1221.0,1223.0,1794.0,1792.0
3381,1214,1796,0,3382.0,3380.0,1218.0,1221.0,1797.0,1794.0
3381,1210,1799,0,3381.0,3382.0,1214.0,1218.0,1796.0,1797.0
3384,1212,1793,0,3381.0,3381.0,1210.0,1214.0,1799.0,1796.0
3382,1210,1786,0,3384.0,3381.0,1212.0,1210.0,1793.0,1799.0
3387,1204,1783,0,3382.0,3384.0,1210.0,1212.0,1786.0,1793.0
3394,1203,1782,0,3387.0,3382.0,1204.0,1210.0,1783.0,1786.0
3396,1203,1784,0,3394.0,3387.0,1203.0,1204.0,1782.0,1783.0
3398,1206,1786,0,3396.0,3394.0,1203.0,1203.0,1784.0,1782.0
3403,1212,1790,0,3398.0,3396.0,1206.0,1203.0,1786.0,1784.0
3401,1217,1795,0,3403.0,3398.0,1212.0,1206.0,1790.0,1786.0
3402,1221,1796,0,3401.0,3403.0,1217.0,1212.0,1795.0,1790.0
3402,1223,1797,0,3402.0,3401.0,1221.0,1217.0,1796.0,1795.0
3405,1224,1797,0,3402.0,3402.0,1223.0,1221.0,1797.0,1796.0
3406,1226,1800,0,3405.0,3402.0,1224.0,1223.0,1797.0,1797.0
3407,1229,1800,0,3406.0,3405.0,1226.0,1224.0,1800.0,1797.0
3410,1231,1803,0,3407.0,3406.0,1229.0,1226.0,1800.0,1800.0
3419,1230,1796,0,3410.0,3407.0,1231.0,1229.0,1803.0,1800.0
3424,1228,1791,0,3419.0,3410.0,1230.0,1231.0,1796.0,1803.0
3429,1227,1788,0,3424.0,3419.0,1228.0,1230.0,1791.0,1796.0
3434,1229,1789,0,3429.0,3424.0,1227.0,1228.0,1788.0,1791.0
3435,1231,1790,0,3434.0,3429.0,1229.0,1227.0,1789.0,1788.0
3431,1239,1791,0,3435.0,3434.0,1231.0,1229.0,1790.0,1789.0
3425,1238,1795,0,3431.0,3435.0,1239.0,1231.0,1791.0,1790.0
3420,1236,1794,0,3425.0,3431.0,1238.0,1239.0,1795.0,1791.0
3418,1238,1792,0,3420.0,3425.0,1236.0,1238.0,1794.0,1795.0
3412,1234,1794,0,3418.0,3420.0,1238.0,1236.0,1792.0,1794.0
3408,1231,1798,0,3412.0,3418.0,1234.0,1238.0,1794.0,1792.0
3400,1228,1801,0,3408.0,3412.0,1231.0,1234.0,1798.0,1794.0
3400,1227,1801,0,3400.0,3408.0,1228.0,1231.0,1801.0,1798.0
3394,1228,1798,0,3400.0,3400.0,1227.0,1228.0,1801.0,1801.0
3391,1225,1795,0,3394.0,3400.0,1228.0,1227.0,1798.0,1801.0
3386,1228,1795,0,3391.0,3394.0,1225.0,1228.0,1795.0,1798.0
3387,1227,1794,0,3386.0,3391.0,1228.0,1225.0,1795.0,1795.0
3384,1226,1791,0,3387.0,3386.0,1227.0,1228.0,1794.0,1795.0
3385,1223,1793,0,3384.0,3387.0,1226.0,1227.0,1791.0,1794.0
3386,1222,1792,0,3385.0,3384.0,1223.0,1226.0,1793.0,1791.0
3390,1221,1792,0,3386.0,3385.0,1222.0,1223.0,1792.0,1793.0
3397,1219,1794,0,3390.0,3386.0,1221.0,1222.0,1792.0,1792.0
3400,1218,1795,0,3397.0,3390.0,1219.0,1221.0,1794.0,1792.0
3402,1218,1796,0,3400.0,3397.0,1218.0,1219.0,1795.0,1794.0
3403,1219,1798,0,3402.0,3400.0,1218.0,1218.0,1796.0,1795.0
3404,1219,1799,0,3403.0,3402.0,1219.0,1218.0,1798.0,1796.0
3401,1218,1799,0,3404.0,3403.0,1219.0,1219.0,1799.0,1798.0
3404,1218,1801,0,3401.0,3404.0,1218.0,1219.0,1799.0,1799.0
3400,1222,1800,0,3404.0,3401.0,1218.0,1218.0,1801.0,1799.0
3403,1222,1806,0,3400.0,3404.0,1222.0,1218.0,1800.0,1801.0
3398,1225,1805,0,3403.0,3400.0,1222.0,1222.0,1806.0,1800.0
3391,1228,1807,0,3398.0,3403.0,1225.0,1222.0,1805.0,1806.0
3385,1231,1802,0,3391.0,3398.0,1228.0,1225.0,1807.0,1805.0
3379,1231,1795,0,3385.0,3391.0,1231.0,1228.0,1802.0,1807.0
3374,1232,1789,0,3379.0,3385.0,1231.0,1231.0,1795.0,1802.0
3374,1239,1790,0,3374.0,3379.0,1232.0,1231.0,1789.0,1795.0
3377,1240,1785,0,3374.0,3374.0,1239.0,1232.0,1790.0,1789.0
3377,1234,1789,0,3377.0,3374.0,1240.0,1239.0,1785.0,1790.0
3376,1231,1780,0,3377.0,3377.0,1234.0,1240.0,1789.0,1785.0
3376,1226,1781,0,3376.0,3377.0,1231.0,1234.0,1780.0,1789.0
3382,1226,1783,0,3376.0,3376.0,1226.0,1231.0,1781.0,1780.0
3384,1225,1789,0,3382.0,3376.0,1226.0,1226.0,1783.0,1781.0
3391,1221,1790,0,3384.0,3382.0,1225.0,1226.0,1789.0,1783.0
3393,1221,1786,0,3391.0,3384.0,1221.0,1225.0,1790.0,1789.0
3401,1219,1792,0,3393.0,3391.0,1221.0,1221.0,1786.0,1790.0
3405,1215,1794,0,3401.0,3393.0,1219.0,1221.0,1792.0,1786.0
3409,1214,1796,0,3405.0,3401.0,1215.0,1219.0,1794.0,1792.0
3409,1212,1796,0,3409.0,3405.0,1214.0,1215.0,1796.0,1794.0
3414,1214,1798,0,3409.0,3409.0,1212.0,1214.0,1796.0,1796.0
3414,1217,1799,0,3414.0,3409.0,1214.0,1212.0,1798.0,1796.0
3410,1218,1799,0,3414.0,3414.0,1217.0,1214.0,1799.0,1798.0
3409,1219,1797,0,3410.0,3414.0,1218.0,1217.0,1799.0,1799.0
3407,1219,1799,0,3409.0,3410.0,1219.0,1218.0,1797.0,1799.0
3402,1222,1802,0,3407.0,3409.0,1219.0,1219.0,1799.0,1797.0
3401,1223,1803,0,3402.0,3407.0,1222.0,1219.0,1802.0,1799.0
3399,1221,1803,0,3401.0,3402.0,1223.0,1222.0,1803.0,1802.0
3398,1224,1802,0,3399.0,3401.0,1221.0,1223.0,1803.0,1803.0
3395,1229,1798,0,3398.0,3399.0,1224.0,1221.0,1802.0,1803.0
3395,1230,1797,0,3395.0,3398.0,1229.0,1224.0,1798.0,1802.0
3392,1231,1801,0,3395.0,3395.0,1230.0,1229.0,1797.0,1798.0
3397,1230,1800,0,3392.0,3395.0,1231.0,1230.0,1801.0,1797.0
3403,1232,1796,0,3397.0,3392.0,1230.0,1231.0,1800.0,1801.0
3405,1223,1792,0,3403.0,3397.0,1232.0,1230.0,1796.0,1800.0
3406,1218,1789,0,3405.0,3403.0,1223.0,1232.0,1792.0,1796.0
3410,1214,1786,0,3406.0,3405.0,1218.0,1223.0,1789.0,1792.0
3407,1209,1785,0,3410.0,3406.0,1214.0,1218.0,1786.0,1789.0
3409,1208,1785,0,3407.0,3410.0,1209.0,1214.0,1785.0,1786.0
3406,1206,1783,0,3409.0,3407.0,1208.0,1209.0,1785.0,1785.0
3403,1203,1788,0,3406.0,3409.0,1206.0,1208.0,1783.0,1785.0
3401,1206,1789,0,3403.0,3406.0,1203.0,1206.0,1788.0,1783.0
3401,1206,1791,0,3401.0,3403.0,1206.0,1203.0,1789.0,1788.0
3401,1210,1792,0,3401.0,3401.0,1206.0,1206.0,1791.0,1789.0
3402,1208,1794,0,3401.0,3401.0,1210.0,1206.0,1792.0,1791.0
3399,1211,1794,0,3402.0,3401.0,1208.0,1210.0,1794.0,1792.0
3400,1216,1799,0,3399.0,3402.0,1211.0,1208.0,1794.0,1794.0
3396,1220,1800,0,3400.0,3399.0,1216.0,1211.0,1799.0,1794.0
3400,1223,1799,0,3396.0,3400.0,1220.0,1216.0,1800.0,1799.0
3398,1223,1796,0,3400.0,3396.0,1223.0,1220.0,1799.0,1800.0
3395,1223,1797,0,3398.0,3400.0,1223.0,1223.0,1796.0,1799.0
3395,1227,1796,0,3395.0,3398.0,1223.0,1223.0,1797.0,1796.0
3395,1225,1798,0,3395.0,3395.0,1227.0,1223.0,1796.0,1797.0
3397,1223,1798,0,3395.0,3395.0,1225.0,1227.0,1798.0,1796.0
3396,1222,1799,0,3397.0,3395.0,1223.0,1225.0,1798.0,1798.0
3398,1219,1797,0,3396.0,3397.0,1222.0,1223.0,1799.0,1798.0
3396,1217,1795,0,3398.0,3396.0,1219.0,1222.0,1797.0,1799.0
3394,1219,1791,0,3396.0,3398.0,1217.0,1219.0,1795.0,1797.0
3389,1220,1788,0,3394.0,3396.0,1219.0,1217.0,1791.0,1795.0
3388,1221,1791,0,3389.0,3394.0,1220.0,1219.0,1788.0,1791.0
3390,1223,1794,0,3388.0,3389.0,1221.0,1220.0,1791.0,1788.0
3388,1223,1795,0,3390.0,3388.0,1223.0,1221.0,1794.0,1791.0
3391,1223,1793,0,3388.0,3390.0,1223.0,1223.0,1795.0,1794.0
3395,1220,1789,0,3391.0,3388.0,1223.0,1223.0,1793.0,1795.0
3395,1215,1792,0,3395.0,3391.0,1220.0,1223.0,1789.0,1793.0
3394,1215,1791,0,3395.0,3395.0,1215.0,1220.0,1792.0,1789.0
3398,1217,1793,0,3394.0,3395.0,1215.0,1215.0,1791.0,1792.0
3399,1216,1796,0,3398.0,3394.0,1217.0,1215.0,1793.0,1791.0
3400,1218,1794,0,3399.0,3398.0,1216.0,1217.0,1796.0,1793.0
3395,1217,1794,0,3400.0,3399.0,1218.0,1216.0,1794.0,1796.0
3397,1219,1797,0,3395.0,3400.0,1217.0,1218.0,1794.0,1794.0
3395,1220,1799,0,3397.0,3395.0,1219.0,1217.0,1797.0,1794.0
3394,1221,1800,0,3395.0,3397.0,1220.0,1219.0,1799.0,1797.0
3394,1223,1800,0,3394.0,3395.0,1221.0,1220.0,1800.0,1799.0
3394,1225,1800,0,3394.0,3394.0,1223.0,1221.0,1800.0,1800.0
3392,1226,1803,0,3394.0,3394.0,1225.0,1223.0,1800.0,1800.0
3389,1225,1808,0,3392.0,3394.0,1226.0,1225.0,1803.0,1800.0
3386,1223,1807,0,3389.0,3392.0,1225.0,1226.0,1808.0,1803.0
3384,1225,1799,0,3386.0,3389.0,1223.0,1225.0,1807.0,1808.0
3380,1227,1797,0,3384.0,3386.0,1225.0,1223.0,1799.0,1807.0
3381,1226,1798,0,3380.0,3384.0,1227.0,1225.0,1797.0,1799.0
3376,1226,1798,0,3381.0,3380.0,1226.0,1227.0,1798.0,1797.0
3373,1226,1798,0,3376.0,3381.0,1226.0,1226.0,1798.0,1798.0
3368,1226,1800,0,3373.0,3376.0,1226.0,1226.0,1798.0,1798.0
3371,1225,1802,0,3368.0,3373.0,1226.0,1226.0,1800.0,1798.0
3379,1225,1804,0,3371.0,3368.0,1225.0,1226.0,1802.0,1800.0
3377,1223,1804,0,3379.0,3371.0,1225.0,1225.0,1804.0,1802.0
3384,1219,1802,0,3377.0,3379.0,1223.0,1225.0,1804.0,1804.0
3391,1218,1802,0,3384.0,3377.0,1219.0,1223.0,1802.0,1804.0
3392,1219,1805,0,3391.0,3384.0,1218.0,1219.0,1802.0,1802.0
3395,1223,1810,0,3392.0,3391.0,1219.0,1218.0,1805.0,1802.0
3402,1224,1811,0,3395.0,3392.0,1223.0,1219.0,1810.0,1805.0
3404,1230,1812,0,3402.0,3395.0,1224.0,1223.0,1811.0,1810.0
3408,1231,1814,0,3404.0,3402.0,1230.0,1224.0,1812.0,1811.0
3413,1232,1812,0,3408.0,3404.0,1231.0,1230.0,1814.0,1812.0
3412,1234,1815,0,3413.0,3408.0,1232.0,1231.0,1812.0,1814.0
3411,1234,1821,0,3412.0,3413.0,1234.0,1232.0,1815.0,1812.0
3410,1234,1825,0,3411.0,3412.0,1234.0,1234.0,1821.0,1815.0
3407,1232,1826,0,3410.0,3411.0,1234.0,1234.0,1825.0,1821.0
3405,1228,1824,0,3407.0,3410.0,1232.0,1234.0,1826.0,1825.0
3407,1225,1823,0,3405.0,3407.0,1228.0,1232.0,1824.0,1826.0
3404,1223,1820,0,3407.0,3405.0,1225.0,1228.0,1823.0,1824.0
3403,1218,1811,0,3404.0,3407.0,1223.0,1225.0,1820.0,1823.0
3398,1216,1806,0,3403.0,3404.0,1218.0,1223.0,1811.0,1820.0
3388,1215,1802,0,3398.0,3403.0,1216.0,1218.0,1806.0,1811.0
3385,1216,1801,0,3388.0,3398.0,1215.0,1216.0,1802.0,1806.0
3386,1216,1804,0,3385.0,3388.0,1216.0,1215.0,1801.0,1802.0
3385,1216,1805,0,3386.0,3385.0,1216.0,1216.0,1804.0,1801.0
3384,1219,1804,0,3385.0,3386.0,1216.0,1216.0,1805.0,1804.0
3386,1221,1800,0,3384.0,3385.0,1219.0,1216.0,1804.0,1805.0
3387,1223,1801,0,3386.0,3384.0,1221.0,1219.0,1800.0,1804.0
3392,1224,1796,0,3387.0,3386.0,1223.0,1221.0,1801.0,1800.0
3395,1225,1792,0,3392.0,3387.0,1224.0,1223.0,1796.0,1801.0
3400,1230,1788,0,3395.0,3392.0,1225.0,1224.0,1792.0,1796.0
3403,1232,1786,0,3400.0,3395.0,1230.0,1225.0,1788.0,1792.0
3405,1235,1785,0,3403.0,3400.0,1232.0,1230.0,1786.0,1788.0
3406,1235,1780,0,3405.0,3403.0,1235.0,1232.0,1785.0,1786.0
3409,1236,1780,0,3406.0,3405.0,1235.0,1235.0,1780.0,1785.0
3412,1232,1779,0,3409.0,3406.0,1236.0,1235.0,1780.0,1780.0
3418,1234,1778,0,3412.0,3409.0,1232.0,1236.0,1779.0,1780.0
3416,1232,1777,0,3418.0,3412.0,1234.0,1232.0,1778.0,1779.0
3412,1230,1774,0,3416.0,3418.0,1232.0,1234.0,1777.0,1778.0
3410,1225,1774,0,3412.0,3416.0,1230.0,1232.0,1774.0,1777.0
3406,1225,1776,0,3410.0,3412.0,1225.0,1230.0,1774.0,1774.0
3404,1224,1778,0,3406.0,3410.0,1225.0,1225.0,1776.0,1774.0
3399,1224,1779,0,3404.0,3406.0,1224.0,1225.0,1778.0,1776.0
3394,1223,1778,0,3399.0,3404.0,1224.0,1224.0,1779.0,1778.0
3392,1219,1783,0,3394.0,3399.0,1223.0,1224.0,1778.0,1779.0
3383,1214,1787,0,3392.0,3394.0,1219.0,1223.0,1783.0,1778.0
3380,1211,1788,0,3383.0,3392.0,1214.0,1219.0,1787.0,1783.0
3378,1214,1795,0,3380.0,3383.0,1211.0,1214.0,1788.0,1787.0
3379,1213,1800,0,3378.0,3380.0,1214.0,1211.0,1795.0,1788.0
3382,1216,1804,0,3379.0,3378.0,1213.0,1214.0,1800.0,1795.0
3385,1218,1806,0,3382.0,3379.0,1216.0,1213.0,1804.0,1800.0
3389,1216,1801,0,3385.0,3382.0,1218.0,1216.0,1806.0,1804.0
3390,1215,1801,0,3389.0,3385.0,1216.0,1218.0,1801.0,1806.0
3396,1216,1799,0,3390.0,3389.0,1215.0,1216.0,1801.0,1801.0
3402,1219,1796,0,3396.0,3390.0,1216.0,1215.0,1799.0,1801.0
3407,1221,1796,0,3402.0,3396.0,1219.0,1216.0,1796.0,1799.0
3411,1224,1792,0,3407.0,3402.0,1221.0,1219.0,1796.0,1796.0
3409,1222,1792,0,3411.0,3407.0,1224.0,1221.0,1792.0,1796.0
3405,1221,1791,0,3409.0,3411.0,1222.0,1224.0,1792.0,1792.0
3402,1220,1794,0,3405.0,3409.0,1221.0,1222.0,1791.0,1792.0
3399,1220,1798,0,3402.0,3405.0,1220.0,1221.0,1794.0,1791.0
3396,1219,1799,0,3399.0,3402.0,1220.0,1220.0,1798.0,1794.0
3391,1220,1803,0,3396.0,3399.0,1219.0,1220.0,1799.0,1798.0
3387,1220,1803,0,3391.0,3396.0,1220.0,1219.0,1803.0,1799.0
3389,1219,1803,0,3387.0,3391.0,1220.0,1220.0,1803.0,1803.0
3386,1218,1801,0,3389.0,3387.0,1219.0,1220.0,1803.0,1803.0
3386,1223,1801,0,3386.0,3389.0,1218.0,1219.0,1801.0,1803.0
3391,1233,1802,0,3386.0,3386.0,1223.0,1218.0,1801.0,1801.0
3391,1235,1799,0,3391.0,3386.0,1233.0,1223.0,1802.0,1801.0
3399,1238,1795,0,3391.0,3391.0,1235.0,1233.0,1799.0,1802.0
3406,1239,1793,0,3399.0,3391.0,1238.0,1235.0,1795.0,1799.0
3414,1237,1788,0,3406.0,3399.0,1239.0,1238.0,1793.0,1795.0
3420,1239,1788,0,3414.0,3406.0,1237.0,1239.0,1788.0,1793.0
3426,1242,1787,0,3420.0,3414.0,1239.0,1237.0,1788.0,1788.0
3431,1245,1787,0,3426.0,3420.0,1242.0,1239.0,1787.0,1788.0
3436,1244,1792,0,3431.0,3426.0,1245.0,1242.0,1787.0,1787.0
3432,1246,1791,0,3436.0,3431.0,1244.0,1245.0,1792.0,1787.0
3432,1241,1797,0,3432.0,3436.0,1246.0,1244.0,1791.0,1792.0
3426,1240,1796,0,3432.0,3432.0,1241.0,1246.0,1797.0,1791.0
3424,1236,1798,0,3426.0,3432.0,1240.0,1241.0,1796.0,1797.0
3421,1228,1800,0,3424.0,3426.0,1236.0,1240.0,1798.0,1796.0
3418,1221,1804,0,3421.0,3424.0,1228.0,1236.0,1800.0,1798.0
3411,1219,1807,0,3418.0,3421.0,1221.0,1228.0,1804.0,1800.0
3395,1214,1811,0,3411.0,3418.0,1219.0,1221.0,1807.0,1804.0
3388,1215,1816,0,3395.0,3411.0,1214.0,1219.0,1811.0,1807.0
3375,1214,1811,0,3388.0,3395.0,1215.0,1214.0,1816.0,1811.0
3372,1215,1809,0,3375.0,3388.0,1214.0,1215.0,1811.0,1816.0
3368,1216,1813,0,3372.0,3375.0,1215.0,1214.0,1809.0,1811.0
3368,1214,1816,0,3368.0,3372.0,1216.0,1215.0,1813.0,1809.0
3371,1219,1815,0,3368.0,3368.0,1214.0,1216.0,1816.0,1813.0
3374,1220,1816,0,3371.0,3368.0,1219.0,1214.0,1815.0,1816.0
3375,1220,1818,0,3374.0,3371.0,1220.0,1219.0,1816.0,1815.0
3384,1222,1820,0,3375.0,3374.0,1220.0,1220.0,1818.0,1816.0
3389,1221,1816,0,3384.0,3375.0,1222.0,1220.0,1820.0,1818.0
3388,1222,1815,0,3389.0,3384.0,1221.0,1222.0,1816.0,1820.0
3384,1222,1810,0,3388.0,3389.0,1222.0,1221.0,1815.0,1816.0
3383,1223,1809,0,3384.0,3388.0,1222.0,1222.0,1810.0,1815.0
3381,1220,1805,0,3383.0,3384.0,1223.0,1222.0,1809.0,1810.0
3383,1217,1807,0,3381.0,3383.0,1220.0,1223.0,1805.0,1809.0
3385,1214,1809,0,3383.0,3381.0,1217.0,1220.0,1807.0,1805.0
3386,1209,1810,0,3385.0,3383.0,1214.0,1217.0,1809.0,1807.0
3385,1211,1806,0,3386.0,3385.0,1209.0,1214.0,1810.0,1809.0
3387,1209,1804,0,3385.0,3386.0,1211.0,1209.0,1806.0,1810.0
3387,1205,1806,0,3387.0,3385.0,1209.0,1211.0,1804.0,1806.0
3384,1206,1803,0,3387.0,3387.0,1205.0,1209.0,1806.0,1804.0
3383,1204,1800,0,3384.0,3387.0,1206.0,1205.0,1803.0,1806.0
3383,1199,1798,0,3383.0,3384.0,1204.0,1206.0,1800.0,1803.0
3383,1200,1800,0,3383.0,3383.0,1199.0,1204.0,1798.0,1800.0
3385,1205,1798,0,3383.0,3383.0,1200.0,1199.0,1800.0,1798.0
3381,1206,1795,0,3385.0,3383.0,1205.0,1200.0,1798.0,1800.0
3378,1208,1791,0,3381.0,3385.0,1206.0,1205.0,1795.0,1798.0
3378,1212,1791,0,3378.0,3381.0,1208.0,1206.0,1791.0,1795.0
3377,1213,1793,0,3378.0,3378.0,1212.0,1208.0,1791.0,1791.0
3379,1214,1794,0,3377.0,3378.0,1213.0,1212.0,1793.0,1791.0
3381,1216,1797,0,3379.0,3377.0,1214.0,1213.0,1794.0,1793.0
3381,1216,1799,0,3381.0,3379.0,1216.0,1214.0,1797.0,1794.0
3379,1217,1805,0,3381.0,3381.0,1216.0,1216.0,1799.0,1797.0
3380,1221,1808,0,3379.0,3381.0,1217.0,1216.0,1805.0,1799.0
3385,1222,1806,0,3380.0,3379.0,1221.0,1217.0,1808.0,1805.0
3394,1227,1810,0,3385.0,3380.0,1222.0,1221.0,1806.0,1808.0
3403,1227,1806,0,3394.0,3385.0,1227.0,1222.0,1810.0,1806.0
3408,1223,1804,0,3403.0,3394.0,1227.0,1227.0,1806.0,1810.0
3414,1222,1798,0,3408.0,3403.0,1223.0,1227.0,1804.0,1806.0
3419,1220,1793,0,3414.0,3408.0,1222.0,1223.0,1798.0,1804.0
3422,1217,1794,0,3419.0,3414.0,1220.0,1222.0,1793.0,1798.0
3425,1215,1793,0,3422.0,3419.0,1217.0,1220.0,1794.0,1793.0
3421,1217,1794,0,3425.0,3422.0,1215.0,1217.0,1793.0,1794.0
3423,1216,1795,0,3421.0,3425.0,1217.0,1215.0,1794.0,1793.0
3422,1215,1797,0,3423.0,3421.0,1216.0,1217.0,1795.0,1794.0
3413,1216,1796,0,3422.0,3423.0,1215.0,1216.0,1797.0,1795.0
3410,1214,1796,0,3413.0,3422.0,1216.0,1215.0,1796.0,1797.0
3405,1215,1802,0,3410.0,3413.0,1214.0,1216.0,1796.0,1796.0
3398,1217,1810,0,3405.0,3410.0,1215.0,1214.0,1802.0,1796.0
3392,1216,1816,0,3398.0,3405.0,1217.0,1215.0,1810.0,1802.0
3391,1216,1822,0,3392.0,3398.0,1216.0,1217.0,1816.0,1810.0
3383,1218,1829,0,3391.0,3392.0,1216.0,1216.0,1822.0,1816.0
3378,1221,1829,0,3383.0,3391.0,1218.0,1216.0,1829.0,1822.0
3375,1220,1831,0,3378.0,3383.0,1221.0,1218.0,1829.0,1829.0
3375,1221,1830,0,3375.0,3378.0,1220.0,1221.0,1831.0,1829.0
3374,1221,1831,0,3375.0,3375.0,1221.0,1220.0,1830.0,1831.0
3376,1221,1828,0,3374.0,3375.0,1221.0,1221.0,1831.0,1830.0
3377,1227,1826,0,3376.0,3374.0,1221.0,1221.0,1828.0,1831.0
3381,1229,1821,0,3377.0,3376.0,1227.0,1221.0,1826.0,1828.0
3388,1233,1815,0,3381.0,3377.0,1229.0,1227.0,1821.0,1826.0
3388,1232,1808,0,3388.0,3381.0,1233.0,1229.0,1815.0,1821.0
3395,1232,1807,0,3388.0,3388.0,1232.0,1233.0,1808.0,1815.0
3398,1234,1809,0,3395.0,3388.0,1232.0,1232.0,1807.0,1808.0
3399,1236,1810,0,3398.0,3395.0,1234.0,1232.0,1809.0,1807.0
3394,1233,1815,0,3399.0,3398.0,1236.0,1234.0,1810.0,1809.0
3388,1232,1820,0,3394.0,3399.0,1233.0,1236.0,1815.0,1810.0
3386,1229,1823,0,3388.0,3394.0,1232.0,1233.0,1820.0,1815.0
3382,1227,1829,0,3386.0,3388.0,1229.0,1232.0,1823.0,1820.0
3375,1228,1827,0,3382.0,3386.0,1227.0,1229.0,1829.0,1823.0
3369,1230,1827,0,3375.0,3382.0,1228.0,1227.0,1827.0,1829.0
3364,1237,1825,0,3369.0,3375.0,1230.0,1228.0,1827.0,1827.0
3362,1239,1825,0,3364.0,3369.0,1237.0,1230.0,1825.0,1827.0
3362,1243,1827,0,3362.0,3364.0,1239.0,1237.0,1825.0,1825.0
3364,1246,1830,0,3362.0,3362.0,1243.0,1239.0,1827.0,1825.0
3364,1250,1833,0,3364.0,3362.0,1246.0,1243.0,1830.0,1827.0
3364,1251,1831,0,3364.0,3364.0,1250.0,1246.0,1833.0,1830.0
3364,1251,1830,0,3364.0,3364.0,1251.0,1250.0,1831.0,1833.0
3366,1256,1827,0,3364.0,3364.0,1251.0,1251.0,1830.0,1831.0
3368,1257,1821,0,3366.0,3364.0,1256.0,1251.0,1827.0,1830.0
3371,1256,1819,0,3368.0,3366.0,1257.0,1256.0,1821.0,1827.0
3371,1253,1819,0,3371.0,3368.0,1256.0,1257.0,1819.0,1821.0
3370,1247,1819,0,3371.0,3371.0,1253.0,1256.0,1819.0,1819.0
3368,1246,1814,0,3370.0,3371.0,1247.0,1253.0,1819.0,1819.0
3370,1245,1814,0,3368.0,3370.0,1246.0,1247.0,1814.0,1819.0
3371,1242,1813,0,3370.0,3368.0,1245.0,1246.0,1814.0,1814.0
3369,1239,1811,0,3371.0,3370.0,1242.0,1245.0,1813.0,1814.0
3366,1235,1814,0,3369.0,3371.0,1239.0,1242.0,1811.0,1813.0
3364,1231,1817,0,3366.0,3369.0,1235.0,1239.0,1814.0,1811.0
3362,1230,1819,0,3364.0,3366.0,1231.0,1235.0,1817.0,1814.0
3360,1231,1819,0,3362.0,3364.0,1230.0,1231.0,1819.0,1817.0
3356,1234,1818,0,3360.0,3362.0,1231.0,1230.0,1819.0,1819.0
3363,1236,1824,0,3356.0,3360.0,1234.0,1231.0,1818.0,1819.0
3366,1239,1829,0,3363.0,3356.0,1236.0,1234.0,1824.0,1818.0
3368,1239,1834,0,3366.0,3363.0,1239.0,1236.0,1829.0,1824.0
3371,1239,1835,0,3368.0,3366.0,1239.0,1239.0,1834.0,1829.0
3378,1238,1836,0,3371.0,3368.0,1239.0,1239.0,1835.0,1834.0
3381,1239,1829,0,3378.0,3371.0,1238.0,1239.0,1836.0,1835.0
3386,1242,1828,0,3381.0,3378.0,1239.0,1238.0,1829.0,1836.0
3384,1246,1826,0,3386.0,3381.0,1242.0,1239.0,1828.0,1829.0
3387,1248,1829,0,3384.0,3386.0,1246.0,1242.0,1826.0,1828.0
3389,1246,1830,0,3387.0,3384.0,1248.0,1246.0,1829.0,1826.0
3392,1242,1829,0,3389.0,3387.0,1246.0,1248.0,1830.0,1829.0
3392,1235,1827,0,3392.0,3389.0,1242.0,1246.0,1829.0,1830.0
3392,1232,1829,0,3392.0,3392.0,1235.0,1242.0,1827.0,1829.0
3394,1231,1829,0,3392.0,3392.0,1232.0,1235.0,1829.0,1827.0
3390,1228,1830,0,3394.0,3392.0,1231.0,1232.0,1829.0,1829.0
3390,1226,1828,0,3390.0,3394.0,1228.0,1231.0,1830.0,1829.0
3392,1228,1826,0,3390.0,3390.0,1226.0,1228.0,1828.0,1830.0
3390,1231,1822,0,3392.0,3390.0,1228.0,1226.0,1826.0,1828.0
3390,1231,1818,0,3390.0,3392.0,1231.0,1228.0,1822.0,1826.0
3393,1237,1819,0,3390.0,3390.0,1231.0,1231.0,1818.0,1822.0
3392,1238,1819,0,3393.0,3390.0,1237.0,1231.0,1819.0,1818.0
3395,1238,1822,0,3392.0,3393.0,1238.0,1237.0,1819.0,1819.0
3395,1241,1823,0,3395.0,3392.0,1238.0,1238.0,1822.0,1819.0
3397,1239,1821,0,3395.0,3395.0,1241.0,1238.0,1823.0,1822.0
3392,1240,1821,0,3397.0,3395.0,1239.0,1241.0,1821.0,1823.0
3389,1242,1825,0,3392.0,3397.0,1240.0,1239.0,1821.0,1821.0
3386,1241,1825,0,3389.0,3392.0,1242.0,1240.0,1825.0,1821.0
3380,1235,1828,0,3386.0,3389.0,1241.0,1242.0,1825.0,1825.0
3375,1234,1825,0,3380.0,3386.0,1235.0,1241.0,1828.0,1825.0
3372,1237,1821,0,3375.0,3380.0,1234.0,1235.0,1825.0,1828.0
3365,1237,1821,0,3372.0,3375.0,1237.0,1234.0,1821.0,1825.0
3355,1236,1820,0,3365.0,3372.0,1237.0,1237.0,1821.0,1821.0
3350,1237,1822,0,3355.0,3365.0,1236.0,1237.0,1820.0,1821.0
3347,1235,1823,0,3350.0,3355.0,1237.0,1236.0,1822.0,1820.0
3347,1232,1824,0,3347.0,3350.0,1235.0,1237.0,1823.0,1822.0
3352,1230,1825,0,3347.0,3347.0,1232.0,1235.0,1824.0,1823.0
3350,1231,1826,0,3352.0,3347.0,1230.0,1232.0,1825.0,1824.0
3355,1232,1825,0,3350.0,3352.0,1231.0,1230.0,1826.0,1825.0
3360,1234,1827,0,3355.0,3350.0,1232.0,1231.0,1825.0,1826.0
3360,1233,1829,0,3360.0,3355.0,1234.0,1232.0,1827.0,1825.0
3365,1235,1828,0,3360.0,3360.0,1233.0,1234.0,1829.0,1827.0
3370,1237,1835,0,3365.0,3360.0,1235.0,1233.0,1828.0,1829.0
3372,1235,1836,0,3370.0,3365.0,1237.0,1235.0,1835.0,1828.0
3373,1237,1837,0,3372.0,3370.0,1235.0,1237.0,1836.0,1835.0
3374,1237,1839,0,3373.0,3372.0,1237.0,1235.0,1837.0,1836.0
3375,1238,1840,0,3374.0,3373.0,1237.0,1237.0,1839.0,1837.0
3379,1239,1836,0,3375.0,3374.0,1238.0,1237.0,1840.0,1839.0
3381,1239,1836,0,3379.0,3375.0,1239.0,1238.0,1836.0,1840.0
3381,1237,1836,0,3381.0,3379.0,1239.0,1239.0,1836.0,1836.0
3382,1241,1839,0,3381.0,3381.0,1237.0,1239.0,1836.0,1836.0
3377,1245,1839,0,3382.0,3381.0,1241.0,1237.0,1839.0,1836.0
3377,1246,1839,0,3377.0,3382.0,1245.0,1241.0,1839.0,1839.0
3374,1246,1841,0,3377.0,3377.0,1246.0,1245.0,1839.0,1839.0
3372,1254,1834,0,3374.0,3377.0,1246.0,1246.0,1841.0,1839.0
3370,1254,1836,0,3372.0,3374.0,1254.0,1246.0,1834.0,1841.0
3369,1259,1833,0,3370.0,3372.0,1254.0,1254.0,1836.0,1834.0
3372,1262,1826,0,3369.0,3370.0,1259.0,1254.0,1833.0,1836.0
3370,1271,1826,0,3372.0,3369.0,1262.0,1259.0,1826.0,1833.0
3371,1276,1819,0,3370.0,3372.0,1271.0,1262.0,1826.0,1826.0
3373,1279,1820,0,3371.0,3370.0,1276.0,1271.0,1819.0,1826.0
3377,1280,1821,0,3373.0,3371.0,1279.0,1276.0,1820.0,1819.0
3384,1284,1819,0,3377.0,3373.0,1280.0,1279.0,1821.0,1820.0
3388,1282,1822,0,3384.0,3377.0,1284.0,1280.0,1819.0,1821.0
3395,1279,1822,0,3388.0,3384.0,1282.0,1284.0,1822.0,1819.0
3395,1274,1820,0,3395.0,3388.0,1279.0,1282.0,1822.0,1822.0
3396,1269,1825,0,3395.0,3395.0,1274.0,1279.0,1820.0,1822.0
3392,1264,1824,0,3396.0,3395.0,1269.0,1274.0,1825.0,1820.0
3389,1259,1823,0,3392.0,3396.0,1264.0,1269.0,1824.0,1825.0
3383,1252,1822,0,3389.0,3392.0,1259.0,1264.0,1823.0,1824.0
3381,1243,1826,0,3383.0,3389.0,1252.0,1259.0,1822.0,1823.0
3375,1235,1829,0,3381.0,3383.0,1243.0,1252.0,1826.0,1822.0
3369,1233,1835,0,3375.0,3381.0,1235.0,1243.0,1829.0,1826.0
3364,1228,1841,0,3369.0,3375.0,1233.0,1235.0,1835.0,1829.0
3359,1224,1845,0,3364.0,3369.0,1228.0,1233.0,1841.0,1835.0
3357,1222,1845,0,3359.0,3364.0,1224.0,1228.0,1845.0,1841.0
3358,1223,1847,0,3357.0,3359.0,1222.0,1224.0,1845.0,1845.0
3362,1224,1844,0,3358.0,3357.0,1223.0,1222.0,1847.0,1845.0
3366,1226,1843,0,3362.0,3358.0,1224.0,1223.0,1844.0,1847.0
3369,1231,1840,0,3366.0,3362.0,1226.0,1224.0,1843.0,1844.0
3372,1234,1840,0,3369.0,3366.0,1231.0,1226.0,1840.0,1843.0
3373,1241,1838,0,3372.0,3369.0,1234.0,1231.0,1840.0,1840.0
3374,1244,1838,0,3373.0,3372.0,1241.0,1234.0,1838.0,1840.0
3377,1248,1836,0,3374.0,3373.0,1244.0,1241.0,1838.0,1838.0
3377,1249,1838,0,3377.0,3374.0,1248.0,1244.0,1836.0,1838.0
3377,1251,1836,0,3377.0,3377.0,1249.0,1248.0,1838.0,1836.0
3374,1251,1835,0,3377.0,3377.0,1251.0,1249.0,1836.0,1838.0
3371,1249,1839,0,3374.0,3377.0,1251.0,1251.0,1835.0,1836.0
3370,1245,1840,0,3371.0,3374.0,1249.0,1251.0,1839.0,1835.0
3367,1241,1831,0,3370.0,3371.0,1245.0,1249.0,1840.0,1839.0
3363,1235,1827,0,3367.0,3370.0,1241.0,1245.0,1831.0,1840.0
3360,1230,1825,0,3363.0,3367.0,1235.0,1241.0,1827.0,1831.0
3361,1228,1828,0,3360.0,3363.0,1230.0,1235.0,1825.0,1827.0
3359,1225,1829,0,3361.0,3360.0,1228.0,1230.0,1828.0,1825.0
3354,1222,1831,0,3359.0,3361.0,1225.0,1228.0,1829.0,1828.0
3355,1217,1831,0,3354.0,3359.0,1222.0,1225.0,1831.0,1829.0
3354,1223,1832,0,3355.0,3354.0,1217.0,1222.0,1831.0,1831.0
3357,1222,1830,0,3354.0,3355.0,1223.0,1217.0,1832.0,1831.0
3359,1226,1829,0,3357.0,3354.0,1222.0,1223.0,1830.0,1832.0
3362,1226,1830,0,3359.0,3357.0,1226.0,1222.0,1829.0,1830.0
3364,1231,1830,0,3362.0,3359.0,1226.0,1226.0,1830.0,1829.0
3363,1235,1827,0,3364.0,3362.0,1231.0,1226.0,1830.0,1830.0
3366,1235,1830,0,3363.0,3364.0,1235.0,1231.0,1827.0,1830.0
3369,1237,1830,0,3366.0,3363.0,1235.0,1235.0,1830.0,1827.0
3368,1242,1830,0,3369.0,3366.0,1237.0,1235.0,1830.0,1830.0
3368,1242,1830,0,3368.0,3369.0,1242.0,1237.0,1830.0,1830.0
3368,1244,1835,0,3368.0,3368.0,1242.0,1242.0,1830.0,1830.0
3366,1241,1834,0,3368.0,3368.0,1244.0,1242.0,1835.0,1830.0
3365,1238,1836,0,3366.0,3368.0,1241.0,1244.0,1834.0,1835.0
3366,1239,1834,0,3365.0,3366.0,1238.0,1241.0,1836.0,1834.0
3362,1241,1833,0,3366.0,3365.0,1239.0,1238.0,1834.0,1836.0
3360,1239,1831,0,3362.0,3366.0,1241.0,1239.0,1833.0,1834.0
3357,1238,1833,0,3360.0,3362.0,1239.0,1241.0,1831.0,1833.0
3358,1237,1838,0,3357.0,3360.0,1238.0,1239.0,1833.0,1831.0
3361,1234,1842,0,3358.0,3357.0,1237.0,1238.0,1838.0,1833.0
3363,1233,1846,0,3361.0,3358.0,1234.0,1237.0,1842.0,1838.0
3364,1231,1848,0,3363.0,3361.0,1233.0,1234.0,1846.0,1842.0
3364,1234,1847,0,3364.0,3363.0,1231.0,1233.0,1848.0,1846.0
3368,1233,1845,0,3364.0,3364.0,1234.0,1231.0,1847.0,1848.0
3372,1236,1845,0,3368.0,3364.0,1233.0,1234.0,1845.0,1847.0
3378,1242,1849,0,3372.0,3368.0,1236.0,1233.0,1845.0,1845.0
3381,1247,1853,0,3378.0,3372.0,1242.0,1236.0,1849.0,1845.0
3387,1250,1850,0,3381.0,3378.0,1247.0,1242.0,1853.0,1849.0
3388,1251,1851,0,3387.0,3381.0,1250.0,1247.0,1850.0,1853.0
3383,1249,1849,0,3388.0,3387.0,1251.0,1250.0,1851.0,1850.0
3387,1248,1850,0,3383.0,3388.0,1249.0,1251.0,1849.0,1851.0
3384,1245,1853,0,3387.0,3383.0,1248.0,1249.0,1850.0,1849.0
3377,1236,1853,0,3384.0,3387.0,1245.0,1248.0,1853.0,1850.0
3375,1234,1854,0,3377.0,3384.0,1236.0,1245.0,1853.0,1853.0
3371,1231,1854,0,3375.0,3377.0,1234.0,1236.0,1854.0,1853.0
3361,1228,1856,0,3371.0,3375.0,1231.0,1234.0,1854.0,1854.0
3359,1227,1853,0,3361.0,3371.0,1228.0,1231.0,1856.0,1854.0
3358,1221,1849,0,3359.0,3361.0,1227.0,1228.0,1853.0,1856.0
3353,1224,1844,0,3358.0,3359.0,1221.0,1227.0,1849.0,1853.0
3347,1225,1846,0,3353.0,3358.0,1224.0,1221.0,1844.0,1849.0
3345,1228,1847,0,3347.0,3353.0,1225.0,1224.0,1846.0,1844.0
3349,1231,1851,0,3345.0,3347.0,1228.0,1225.0,1847.0,1846.0
3349,1234,1850,0,3349.0,3345.0,1231.0,1228.0,1851.0,1847.0
3348,1238,1852,0,3349.0,3349.0,1234.0,1231.0,1850.0,1851.0
3347,1240,1855,0,3348.0,3349.0,1238.0,1234.0,1852.0,1850.0
3349,1245,1855,0,3347.0,3348.0,1240.0,1238.0,1855.0,1852.0
3352,1246,1858,0,3349.0,3347.0,1245.0,1240.0,1855.0,1855.0
3358,1249,1855,0,3352.0,3349.0,1246.0,1245.0,1858.0,1855.0
3361,1251,1859,0,3358.0,3352.0,1249.0,1246.0,1855.0,1858.0
3365,1251,1857,0,3361.0,3358.0,1251.0,1249.0,1859.0,1855.0
3365,1250,1855,0,3365.0,3361.0,1251.0,1251.0,1857.0,1859.0
3368,1251,1849,0,3365.0,3365.0,1250.0,1251.0,1855.0,1857.0
3368,1248,1848,0,3368.0,3365.0,1251.0,1250.0,1849.0,1855.0
3370,1247,1845,0,3368.0,3368.0,1248.0,1251.0,1848.0,1849.0
3371,1247,1841,0,3370.0,3368.0,1247.0,1248.0,1845.0,1848.0
3372,1248,1842,0,3371.0,3370.0,1247.0,1247.0,1841.0,1845.0
3371,1245,1841,0,3372.0,3371.0,1248.0,1247.0,1842.0,1841.0
3369,1246,1842,0,3371.0,3372.0,1245.0,1248.0,1841.0,1842.0
3368,1244,1841,0,3369.0,3371.0,1246.0,1245.0,1842.0,1841.0
3366,1247,1846,0,3368.0,3369.0,1244.0,1246.0,1841.0,1842.0
3366,1250,1844,0,3366.0,3368.0,1247.0,1244.0,1846.0,1841.0
3365,1251,1844,0,3366.0,3366.0,1250.0,1247.0,1844.0,1846.0
3366,1247,1841,0,3365.0,3366.0,1251.0,1250.0,1844.0,1844.0
3363,1248,1838,0,3366.0,3365.0,1247.0,1251.0,1841.0,1844.0
3367,1245,1831,0,3363.0,3366.0,1248.0,1247.0,1838.0,1841.0
3366,1239,1833,0,3367.0,3363.0,1245.0,1248.0,1831.0,1838.0
3362,1236,1833,0,3366.0,3367.0,1239.0,1245.0,1833.0,1831.0
3359,1236,1836,0,3362.0,3366.0,1236.0,1239.0,1833.0,1833.0
3359,1233,1841,0,3359.0,3362.0,1236.0,1236.0,1836.0,1833.0
3357,1231,1842,0,3359.0,3359.0,1233.0,1236.0,1841.0,1836.0
3355,1228,1837,0,3357.0,3359.0,1231.0,1233.0,1842.0,1841.0
3358,1226,1840,0,3355.0,3357.0,1228.0,1231.0,1837.0,1842.0
3358,1223,1847,0,3358.0,3355.0,1226.0,1228.0,1840.0,1837.0
3359,1222,1849,0,3358.0,3358.0,1223.0,1226.0,1847.0,1840.0
3362,1221,1848,0,3359.0,3358.0,1222.0,1223.0,1849.0,1847.0
3366,1221,1851,0,3362.0,3359.0,1221.0,1222.0,1848.0,1849.0
3371,1225,1851,0,3366.0,3362.0,1221.0,1221.0,1851.0,1848.0
3374,1225,1850,0,3371.0,3366.0,1225.0,1221.0,1851.0,1851.0
3380,1225,1848,0,3374.0,3371.0,1225.0,1225.0,1850.0,1851.0
3383,1223,1846,0,3380.0,3374.0,1225.0,1225.0,1848.0,1850.0
3384,1227,1848,0,3383.0,3380.0,1223.0,1225.0,1846.0,1848.0
3380,1229,1848,0,3384.0,3383.0,1227.0,1223.0,1848.0,1846.0
3379,1231,1850,0,3380.0,3384.0,1229.0,1227.0,1848.0,1848.0
3377,1230,1851,0,3379.0,3380.0,1231.0,1229.0,1850.0,1848.0
3378,1231,1853,0,3377.0,3379.0,1230.0,1231.0,1851.0,1850.0
3375,1236,1851,0,3378.0,3377.0,1231.0,1230.0,1853.0,1851.0
3376,1239,1847,0,3375.0,3378.0,1236.0,1231.0,1851.0,1853.0
3376,1241,1845,0,3376.0,3375.0,1239.0,1236.0,1847.0,1851.0
3379,1239,1842,0,3376.0,3376.0,1241.0,1239.0,1845.0,1847.0
3386,1235,1841,0,3379.0,3376.0,1239.0,1241.0,1842.0,1845.0
3388,1238,1841,0,3386.0,3379.0,1235.0,1239.0,1841.0,1842.0
3387,1238,1842,0,3388.0,3386.0,1238.0,1235.0,1841.0,1841.0
3391,1238,1843,0,3387.0,3388.0,1238.0,1238.0,1842.0,1841.0
3396,1236,1840,0,3391.0,3387.0,1238.0,1238.0,1843.0,1842.0
3398,1231,1838,0,3396.0,3391.0,1236.0,1238.0,1840.0,1843.0
3397,1228,1833,0,3398.0,3396.0,1231.0,1236.0,1838.0,1840.0
3385,1227,1830,0,3397.0,3398.0,1228.0,1231.0,1833.0,1838.0
3378,1224,1828,0,3385.0,3397.0,1227.0,1228.0,1830.0,1833.0
3369,1223,1829,0,3378.0,3385.0,1224.0,1227.0,1828.0,1830.0
3362,1218,1832,0,3369.0,3378.0,1223.0,1224.0,1829.0,1828.0
3354,1216,1830,0,3362.0,3369.0,1218.0,1223.0,1832.0,1829.0
3346,1216,1826,0,3354.0,3362.0,1216.0,1218.0,1830.0,1832.0
3344,1215,1825,0,3346.0,3354.0,1216.0,1216.0,1826.0,1830.0
3343,1216,1828,0,3344.0,3346.0,1215.0,1216.0,1825.0,1826.0
3344,1217,1828,0,3343.0,3344.0,1216.0,1215.0,1828.0,1825.0
3344,1217,1823,0,3344.0,3343.0,1217.0,1216.0,1828.0,1828.0
3352,1214,1822,0,3344.0,3344.0,1217.0,1217.0,1823.0,1828.0
3359,1219,1822,0,3352.0,3344.0,1214.0,1217.0,1822.0,1823.0
3365,1219,1822,0,3359.0,3352.0,1219.0,1214.0,1822.0,1822.0
3371,1219,1822,0,3365.0,3359.0,1219.0,1219.0,1822.0,1822.0
3376,1216,1822,0,3371.0,3365.0,1219.0,1219.0,1822.0,1822.0
3382,1218,1823,0,3376.0,3371.0,1216.0,1219.0,1822.0,1822.0
3392,1222,1819,0,3382.0,3376.0,1218.0,1216.0,1823.0,1822.0
3395,1220,1824,0,3392.0,3382.0,1222.0,1218.0,1819.0,1823.0
3399,1220,1822,0,3395.0,3392.0,1220.0,1222.0,1824.0,1819.0
3397,1213,1817,0,3399.0,3395.0,1220.0,1220.0,1822.0,1824.0
3393,1214,1813,0,3397.0,3399.0,1213.0,1220.0,1817.0,1822.0
3388,1214,1812,0,3393.0,3397.0,1214.0,1213.0,1813.0,1817.0
3379,1213,1811,0,3388.0,3393.0,1214.0,1214.0,1812.0,1813.0
3375,1214,1810,0,3379.0,3388.0,1213.0,1214.0,1811.0,1812.0
3374,1216,1814,0,3375.0,3379.0,1214.0,1213.0,1810.0,1811.0
3370,1217,1815,0,3374.0,3375.0,1216.0,1214.0,1814.0,1810.0
3366,1214,1817,0,3370.0,3374.0,1217.0,1216.0,1815.0,1814.0
3364,1215,1816,0,3366.0,3370.0,1214.0,1217.0,1817.0,1815.0
3362,1217,1817,0,3364.0,3366.0,1215.0,1214.0,1816.0,1817.0
3367,1220,1820,0,3362.0,3364.0,1217.0,1215.0,1817.0,1816.0
3375,1223,1819,0,3367.0,3362.0,1220.0,1217.0,1820.0,1817.0
3382,1229,1821,0,3375.0,3367.0,1223.0,1220.0,1819.0,1820.0
3393,1237,1822,0,3382.0,3375.0,1229.0,1223.0,1821.0,1819.0
3402,1239,1820,0,3393.0,3382.0,1237.0,1229.0,1822.0,1821.0
3410,1243,1818,0,3402.0,3393.0,1239.0,1237.0,1820.0,1822.0
3422,1247,1820,0,3410.0,3402.0,1243.0,1239.0,1818.0,1820.0
3429,1251,1821,0,3422.0,3410.0,1247.0,1243.0,1820.0,1818.0
3433,1253,1820,0,3429.0,3422.0,1251.0,1247.0,1821.0,1820.0
3434,1254,1817,0,3433.0,3429.0,1253.0,1251.0,1820.0,1821.0
3436,1252,1813,0,3434.0,3433.0,1254.0,1253.0,1817.0,1820.0
3436,1248,1812,0,3436.0,3434.0,1252.0,1254.0,1813.0,1817.0
3427,1242,1810,0,3436.0,3436.0,1248.0,1252.0,1812.0,1813.0
3417,1232,1810,0,3427.0,3436.0,1242.0,1248.0,1810.0,1812.0
3409,1222,1805,0,3417.0,3427.0,1232.0,1242.0,1810.0,1810.0
3400,1217,1800,0,3409.0,3417.0,1222.0,1232.0,1805.0,1810.0
3390,1210,1801,0,3400.0,3409.0,1217.0,1222.0,1800.0,1805.0
3380,1206,1801,0,3390.0,3400.0,1210.0,1217.0,1801.0,1800.0
3372,1208,1798,0,3380.0,3390.0,1206.0,1210.0,1801.0,1801.0
3369,1206,1795,0,3372.0,3380.0,1208.0,1206.0,1798.0,1801.0
3369,1207,1799,0,3369.0,3372.0,1206.0,1208.0,1795.0,1798.0
3365,1207,1799,0,3369.0,3369.0,1207.0,1206.0,1799.0,1795.0
3366,1209,1800,0,3365.0,3369.0,1207.0,1207.0,1799.0,1799.0
3371,1217,1801,0,3366.0,3365.0,1209.0,1207.0,1800.0,1799.0
3374,1224,1801,0,3371.0,3366.0,1217.0,1209.0,1801.0,1800.0
3384,1226,1801,0,3374.0,3371.0,1224.0,1217.0,1801.0,1801.0
3389,1227,1797,0,3384.0,3374.0,1226.0,1224.0,1801.0,1801.0
3392,1228,1795,0,3389.0,3384.0,1227.0,1226.0,1797.0,1801.0
3397,1229,1795,0,3392.0,3389.0,1228.0,1227.0,1795.0,1797.0
3397,1229,1791,0,3397.0,3392.0,1229.0,1228.0,1795.0,1795.0
3403,1232,1787,0,3397.0,3397.0,1229.0,1229.0,1791.0,1795.0
3407,1229,1783,0,3403.0,3397.0,1232.0,1229.0,1787.0,1791.0
3412,1228,1781,0,3407.0,3403.0,1229.0,1232.0,1783.0,1787.0
3413,1225,1776,0,3412.0,3407.0,1228.0,1229.0,1781.0,1783.0
3411,1222,1770,0,3413.0,3412.0,1225.0,1228.0,1776.0,1781.0
3409,1221,1761,0,3411.0,3413.0,1222.0,1225.0,1770.0,1776.0
3407,1218,1756,0,3409.0,3411.0,1221.0,1222.0,1761.0,1770.0
3411,1220,1757,0,3407.0,3409.0,1218.0,1221.0,1756.0,1761.0
3412,1219,1755,0,3411.0,3407.0,1220.0,1218.0,1757.0,1756.0
3414,1217,1753,0,3412.0,3411.0,1219.0,1220.0,1755.0,1757.0
3413,1212,1753,0,3414.0,3412.0,1217.0,1219.0,1753.0,1755.0
3414,1208,1749,0,3413.0,3414.0,1212.0,1217.0,1753.0,1753.0
3416,1203,1749,0,3414.0,3413.0,1208.0,1212.0,1749.0,1753.0
3413,1200,1749,0,3416.0,3414.0,1203.0,1208.0,1749.0,1749.0
3407,1201,1750,0,3413.0,3416.0,1200.0,1203.0,1749.0,1749.0
3398,1200,1754,0,3407.0,3413.0,1201.0,1200.0,1750.0,1749.0
3396,1196,1760,0,3398.0,3407.0,1200.0,1201.0,1754.0,1750.0
3395,1196,1761,0,3396.0,3398.0,1196.0,1200.0,1760.0,1754.0
3394,1199,1760,0,3395.0,3396.0,1196.0,1196.0,1761.0,1760.0
3394,1205,1759,0,3394.0,3395.0,1199.0,1196.0,1760.0,1761.0
3398,1206,1757,0,3394.0,3394.0,1205.0,1199.0,1759.0,1760.0
3399,1210,1757,0,3398.0,3394.0,1206.0,1205.0,1757.0,1759.0
3402,1214,1753,0,3399.0,3398.0,1210.0,1206.0,1757.0,1757.0
3405,1214,1751,0,3402.0,3399.0,1214.0,1210.0,1753.0,1757.0
3414,1214,1752,0,3405.0,3402.0,1214.0,1214.0,1751.0,1753.0
3419,1216,1754,0,3414.0,3405.0,1214.0,1214.0,1752.0,1751.0
3426,1215,1751,0,3419.0,3414.0,1216.0,1214.0,1754.0,1752.0
3436,1220,1750,0,3426.0,3419.0,1215.0,1216.0,1751.0,1754.0
3445,1225,1746,0,3436.0,3426.0,1220.0,1215.0,1750.0,1751.0
3457,1228,1745,0,3445.0,3436.0,1225.0,1220.0,1746.0,1750.0
3463,1232,1741,0,3457.0,3445.0,1228.0,1225.0,1745.0,1746.0
3467,1233,1740,0,3463.0,3457.0,1232.0,1228.0,1741.0,1745.0
3467,1233,1740,0,3467.0,3463.0,1233.0,1232.0,1740.0,1741.0
3463,1234,1739,0,3467.0,3467.0,1233.0,1233.0,1740.0,1740.0
3459,1230,1739,0,3463.0,3467.0,1234.0,1233.0,1739.0,1740.0
3453,1226,1743,0,3459.0,3463.0,1230.0,1234.0,1739.0,1739.0
3444,1224,1751,0,3453.0,3459.0,1226.0,1230.0,1743.0,1739.0
3436,1220,1759,0,3444.0,3453.0,1224.0,1226.0,1751.0,1743.0
3428,1212,1762,0,3436.0,3444.0,1220.0,1224.0,1759.0,1751.0
3415,1205,1759,0,3428.0,3436.0,1212.0,1220.0,1762.0,1759.0
3406,1198,1757,0,3415.0,3428.0,1205.0,1212.0,1759.0,1762.0
3406,1197,1759,0,3406.0,3415.0,1198.0,1205.0,1757.0,1759.0
3404,1199,1760,0,3406.0,3406.0,1197.0,1198.0,1759.0,1757.0
3405,1198,1761,0,3404.0,3406.0,1199.0,1197.0,1760.0,1759.0
3408,1198,1762,0,3405.0,3404.0,1198.0,1199.0,1761.0,1760.0
3414,1200,1765,0,3408.0,3405.0,1198.0,1198.0,1762.0,1761.0
3421,1204,1770,0,3414.0,3408.0,1200.0,1198.0,1765.0,1762.0
3429,1205,1768,0,3421.0,3414.0,1204.0,1200.0,1770.0,1765.0
3432,1208,1767,0,3429.0,3421.0,1205.0,1204.0,1768.0,1770.0
3435,1213,1764,0,3432.0,3429.0,1208.0,1205.0,1767.0,1768.0
3443,1219,1770,0,3435.0,3432.0,1213.0,1208.0,1764.0,1767.0
3444,1220,1771,0,3443.0,3435.0,1219.0,1213.0,1770.0,1764.0
3450,1222,1769,0,3444.0,3443.0,1220.0,1219.0,1771.0,1770.0
3449,1227,1766,0,3450.0,3444.0,1222.0,1220.0,1769.0,1771.0
3445,1227,1760,0,3449.0,3450.0,1227.0,1222.0,1766.0,1769.0
3441,1223,1762,0,3445.0,3449.0,1227.0,1227.0,1760.0,1766.0
3438,1224,1760,0,3441.0,3445.0,1223.0,1227.0,1762.0,1760.0
3432,1222,1763,0,3438.0,3441.0,1224.0,1223.0,1760.0,1762.0
3428,1218,1764,0,3432.0,3438.0,1222.0,1224.0,1763.0,1760.0
3412,1216,1764,0,3428.0,3432.0,1218.0,1222.0,1764.0,1763.0
3402,1212,1763,0,3412.0,3428.0,1216.0,1218.0,1764.0,1764.0
3391,1203,1764,0,3402.0,3412.0,1212.0,1216.0,1763.0,1764.0
3385,1204,1768,0,3391.0,3402.0,1203.0,1212.0,1764.0,1763.0
3378,1204,1769,0,3385.0,3391.0,1204.0,1203.0,1768.0,1764.0
3376,1203,1770,0,3378.0,3385.0,1204.0,1204.0,1769.0,1768.0
3376,1199,1773,0,3376.0,3378.0,1203.0,1204.0,1770.0,1769.0
3373,1201,1778,0,3376.0,3376.0,1199.0,1203.0,1773.0,1770.0
3373,1202,1779,0,3373.0,3376.0,1201.0,1199.0,1778.0,1773.0
3377,1206,1779,0,3373.0,3373.0,1202.0,1201.0,1779.0,1778.0
3378,1209,1778,0,3377.0,3373.0,1206.0,1202.0,1779.0,1779.0
3383,1207,1780,0,3378.0,3377.0,1209.0,1206.0,1778.0,1779.0
3388,1209,1781,0,3383.0,3378.0,1207.0,1209.0,1780.0,1778.0
3395,1212,1786,0,3388.0,3383.0,1209.0,1207.0,1781.0,1780.0
3398,1212,1785,0,3395.0,3388.0,1212.0,1209.0,1786.0,1781.0
3403,1213,1783,0,3398.0,3395.0,1212.0,1212.0,1785.0,1786.0
3405,1211,1784,0,3403.0,3398.0,1213.0,1212.0,1783.0,1785.0
3405,1210,1785,0,3405.0,3403.0,1211.0,1213.0,1784.0,1783.0
3403,1208,1789,0,3405.0,3405.0,1210.0,1211.0,1785.0,1784.0
3407,1203,1792,0,3403.0,3405.0,1208.0,1210.0,1789.0,1785.0
3408,1204,1793,0,3407.0,3403.0,1203.0,1208.0,1792.0,1789.0
3409,1205,1792,0,3408.0,3407.0,1204.0,1203.0,1793.0,1792.0
3409,1201,1794,0,3409.0,3408.0,1205.0,1204.0,1792.0,1793.0
3409,1202,1794,0,3409.0,3409.0,1201.0,1205.0,1794.0,1792.0
3407,1205,1793,0,3409.0,3409.0,1202.0,1201.0,1794.0,1794.0
3404,1203,1796,0,3407.0,3409.0,1205.0,1202.0,1793.0,1794.0
3402,1207,1795,0,3404.0,3407.0,1203.0,1205.0,1796.0,1793.0
3402,1213,1796,0,3402.0,3404.0,1207.0,1203.0,1795.0,1796.0
3405,1224,1798,0,3402.0,3402.0,1213.0,1207.0,1796.0,1795.0
3406,1226,1802,0,3405.0,3402.0,1224.0,1213.0,1798.0,1796.0
3413,1230,1800,0,3406.0,3405.0,1226.0,1224.0,1802.0,1798.0
3414,1231,1791,0,3413.0,3406.0,1230.0,1226.0,1800.0,1802.0
3413,1231,1790,0,3414.0,3413.0,1231.0,1230.0,1791.0,1800.0
3418,1231,1788,0,3413.0,3414.0,1231.0,1231.0,1790.0,1791.0
3417,1228,1785,0,3418.0,3413.0,1231.0,1231.0,1788.0,1790.0
3420,1222,1781,0,3417.0,3418.0,1228.0,1231.0,1785.0,1788.0
3415,1221,1783,0,3420.0,3417.0,1222.0,1228.0,1781.0,1785.0
3414,1213,1778,0,3415.0,3420.0,1221.0,1222.0,1783.0,1781.0
3416,1206,1784,0,3414.0,3415.0,1213.0,1221.0,1778.0,1783.0
3420,1204,1781,0,3416.0,3414.0,1206.0,1213.0,1784.0,1778.0
3417,1197,1783,0,3420.0,3416.0,1204.0,1206.0,1781.0,1784.0
3420,1194,1787,0,3417.0,3420.0,1197.0,1204.0,1783.0,1781.0
3418,1195,1792,0,3420.0,3417.0,1194.0,1197.0,1787.0,1783.0
3414,1193,1791,0,3418.0,3420.0,1195.0,1194.0,1792.0,1787.0
3413,1194,1788,0,3414.0,3418.0,1193.0,1195.0,1791.0,1792.0
3415,1197,1798,0,3413.0,3414.0,1194.0,1193.0,1788.0,1791.0
3415,1196,1802,0,3415.0,3413.0,1197.0,1194.0,1798.0,1788.0
3412,1195,1801,0,3415.0,3415.0,1196.0,1197.0,1802.0,1798.0
3410,1196,1801,0,3412.0,3415.0,1195.0,1196.0,1801.0,1802.0
3408,1200,1800,0,3410.0,3412.0,1196.0,1195.0,1801.0,1801.0
3413,1201,1798,0,3408.0,3410.0,1200.0,1196.0,1800.0,1801.0
3405,1203,1797,0,3413.0,3408.0,1201.0,1200.0,1798.0,1800.0
3405,1205,1795,0,3405.0,3413.0,1203.0,1201.0,1797.0,1798.0
3399,1206,1791,0,3405.0,3405.0,1205.0,1203.0,1795.0,1797.0
3395,1206,1789,0,3399.0,3405.0,1206.0,1205.0,1791.0,1795.0
3392,1206,1788,0,3395.0,3399.0,1206.0,1206.0,1789.0,1791.0
3391,1210,1785,0,3392.0,3395.0,1206.0,1206.0,1788.0,1789.0
3388,1214,1787,0,3391.0,3392.0,1210.0,1206.0,1785.0,1788.0
3385,1212,1783,0,3388.0,3391.0,1214.0,1210.0,1787.0,1785.0
3382,1211,1786,0,3385.0,3388.0,1212.0,1214.0,1783.0,1787.0
3381,1211,1783,0,3382.0,3385.0,1211.0,1212.0,1786.0,1783.0
3386,1211,1780,0,3381.0,3382.0,1211.0,1211.0,1783.0,1786.0
3391,1217,1784,0,3386.0,3381.0,1211.0,1211.0,1780.0,1783.0
3393,1220,1782,0,3391.0,3386.0,1217.0,1211.0,1784.0,1780.0
3398,1224,1784,0,3393.0,3391.0,1220.0,1217.0,1782.0,1784.0
3408,1228,1779,0,3398.0,3393.0,1224.0,1220.0,1784.0,1782.0
3416,1233,1777,0,3408.0,3398.0,1228.0,1224.0,1779.0,1784.0
3424,1236,1776,0,3416.0,3408.0,1233.0,1228.0,1777.0,1779.0
3431,1237,1771,0,3424.0,3416.0,1236.0,1233.0,1776.0,1777.0
3437,1240,1770,0,3431.0,3424.0,1237.0,1236.0,1771.0,1776.0
3439,1240,1766,0,3437.0,3431.0,1240.0,1237.0,1770.0,1771.0
3441,1241,1768,0,3439.0,3437.0,1240.0,1240.0,1766.0,1770.0
3438,1236,1774,0,3441.0,3439.0,1241.0,1240.0,1768.0,1766.0
3434,1234,1778,0,3438.0,3441.0,1236.0,1241.0,1774.0,1768.0
3424,1228,1782,0,3434.0,3438.0,1234.0,1236.0,1778.0,1774.0
3418,1229,1781,0,3424.0,3434.0,1228.0,1234.0,1782.0,1778.0
3409,1222,1785,0,3418.0,3424.0,1229.0,1228.0,1781.0,1782.0
3403,1214,1786,0,3409.0,3418.0,1222.0,1229.0,1785.0,1781.0
3393,1214,1787,0,3403.0,3409.0,1214.0,1222.0,1786.0,1785.0
3387,1214,1789,0,3393.0,3403.0,1214.0,1214.0,1787.0,1786.0
3387,1214,1789,0,3387.0,3393.0,1214.0,1214.0,1789.0,1787.0
3384,1213,1788,0,3387.0,3387.0,1214.0,1214.0,1789.0,1789.0
3384,1214,1788,0,3384.0,3387.0,1213.0,1214.0,1788.0,1789.0
3383,1210,1786,0,3384.0,3384.0,1214.0,1213.0,1788.0,1788.0
3382,1210,1784,0,3383.0,3384.0,1210.0,1214.0,1786.0,1788.0
3387,1217,1782,0,3382.0,3383.0,1210.0,1210.0,1784.0,1786.0
3390,1222,1783,0,3387.0,3382.0,1217.0,1210.0,1782.0,1784.0
3391,1223,1786,0,3390.0,3387.0,1222.0,1217.0,1783.0,1782.0
3397,1224,1786,0,3391.0,3390.0,1223.0,1222.0,1786.0,1783.0
3397,1221,1788,0,3397.0,3391.0,1224.0,1223.0,1786.0,1786.0
3401,1219,1786,0,3397.0,3397.0,1221.0,1224.0,1788.0,1786.0
3408,1217,1788,0,3401.0,3397.0,1219.0,1221.0,1786.0,1788.0
3411,1214,1789,0,3408.0,3401.0,1217.0,1219.0,1788.0,1786.0
3418,1213,1782,0,3411.0,3408.0,1214.0,1217.0,1789.0,1788.0
3420,1212,1781,0,3418.0,3411.0,1213.0,1214.0,1782.0,1789.0
3421,1214,1779,0,3420.0,3418.0,1212.0,1213.0,1781.0,1782.0
3415,1211,1775,0,3421.0,3420.0,1214.0,1212.0,1779.0,1781.0
3416,1208,1779,0,3415.0,3421.0,1211.0,1214.0,1775.0,1779.0
3409,1207,1781,0,3416.0,3415.0,1208.0,1211.0,1779.0,1775.0
3407,1208,1783,0,3409.0,3416.0,1207.0,1208.0,1781.0,1779.0
3407,1205,1779,0,3407.0,3409.0,1208.0,1207.0,1783.0,1781.0
3405,1200,1778,0,3407.0,3407.0,1205.0,1208.0,1779.0,1783.0
3405,1201,1780,0,3405.0,3407.0,1200.0,1205.0,1778.0,1779.0
3404,1202,1778,0,3405.0,3405.0,1201.0,1200.0,1780.0,1778.0
3404,1202,1776,0,3404.0,3405.0,1202.0,1201.0,1778.0,1780.0
3404,1200,1773,0,3404.0,3404.0,1202.0,1202.0,1776.0,1778.0
3403,1196,1774,0,3404.0,3404.0,1200.0,1202.0,1773.0,1776.0
3399,1206,1778,0,3403.0,3404.0,1196.0,1200.0,1774.0,1773.0
3399,1210,1779,0,3399.0,3403.0,1206.0,1196.0,1778.0,1774.0
3402,1213,1782,0,3399.0,3399.0,1210.0,1206.0,1779.0,1778.0
3403,1215,1777,0,3402.0,3399.0,1213.0,1210.0,1782.0,1779.0
3405,1217,1777,0,3403.0,3402.0,1215.0,1213.0,1777.0,1782.0
3407,1220,1776,0,3405.0,3403.0,1217.0,1215.0,1777.0,1777.0
3412,1222,1778,0,3407.0,3405.0,1220.0,1217.0,1776.0,1777.0
3414,1226,1782,0,3412.0,3407.0,1222.0,1220.0,1778.0,1776.0
3411,1228,1781,0,3414.0,3412.0,1226.0,1222.0,1782.0,1778.0
3413,1227,1783,0,3411.0,3414.0,1228.0,1226.0,1781.0,1782.0
3412,1226,1784,0,3413.0,3411.0,1227.0,1228.0,1783.0,1781.0
3409,1227,1783,0,3412.0,3413.0,1226.0,1227.0,1784.0,1783.0
3405,1223,1783,0,3409.0,3412.0,1227.0,1226.0,1783.0,1784.0
3401,1225,1783,0,3405.0,3409.0,1223.0,1227.0,1783.0,1783.0
3404,1219,1781,0,3401.0,3405.0,1225.0,1223.0,1783.0,1783.0
3405,1218,1781,0,3404.0,3401.0,1219.0,1225.0,1781.0,1783.0
3405,1218,1784,0,3405.0,3404.0,1218.0,1219.0,1781.0,1781.0
3408,1217,1782,0,3405.0,3405.0,1218.0,1218.0,1784.0,1781.0
3407,1217,1784,0,3408.0,3405.0,1217.0,1218.0,1782.0,1784.0
3407,1214,1788,0,3407.0,3408.0,1217.0,1217.0,1784.0,1782.0
3408,1211,1788,0,3407.0,3407.0,1214.0,1217.0,1788.0,1784.0
3410,1205,1789,0,3408.0,3407.0,1211.0,1214.0,1788.0,1788.0
3413,1206,1790,0,3410.0,3408.0,1205.0,1211.0,1789.0,1788.0
3411,1206,1785,0,3413.0,3410.0,1206.0,1205.0,1790.0,1789.0
3410,1204,1788,0,3411.0,3413.0,1206.0,1206.0,1785.0,1790.0
3408,1208,1786,0,3410.0,3411.0,1204.0,1206.0,1788.0,1785.0
3404,1210,1788,0,3408.0,3410.0,1208.0,1204.0,1786.0,1788.0
3403,1215,1792,0,3404.0,3408.0,1210.0,1208.0,1788.0,1786.0
3401,1213,1791,0,3403.0,3404.0,1215.0,1210.0,1792.0,1788.0
3402,1215,1788,0,3401.0,3403.0,1213.0,1215.0,1791.0,1792.0
3406,1221,1782,0,3402.0,3401.0,1215.0,1213.0,1788.0,1791.0
3405,1225,1785,0,3406.0,3402.0,1221.0,1215.0,1782.0,1788.0
3408,1226,1787,0,3405.0,3406.0,1225.0,1221.0,1785.0,1782.0
3409,1230,1792,0,3408.0,3405.0,1226.0,1225.0,1787.0,1785.0
3410,1227,1787,0,3409.0,3408.0,1230.0,1226.0,1792.0,1787.0
3407,1224,1782,0,3410.0,3409.0,1227.0,1230.0,1787.0,1792.0
3404,1222,1778,0,3407.0,3410.0,1224.0,1227.0,1782.0,1787.0
3401,1219,1777,0,3404.0,3407.0,1222.0,1224.0,1778.0,1782.0
3404,1215,1779,0,3401.0,3404.0,1219.0,1222.0,1777.0,1778.0
3402,1213,1780,0,3404.0,3401.0,1215.0,1219.0,1779.0,1777.0
3399,1209,1779,0,3402.0,3404.0,1213.0,1215.0,1780.0,1779.0
3400,1210,1780,0,3399.0,3402.0,1209.0,1213.0,1779.0,1780.0
3399,1206,1780,0,3400.0,3399.0,1210.0,1209.0,1780.0,1779.0
3401,1204,1778,0,3399.0,3400.0,1206.0,1210.0,1780.0,1780.0
3403,1204,1780,0,3401.0,3399.0,1204.0,1206.0,1778.0,1780.0
3403,1208,1785,0,3403.0,3401.0,1204.0,1204.0,1780.0,1778.0
3408,1212,1784,0,3403.0,3403.0,1208.0,1204.0,1785.0,1780.0
3411,1211,1783,0,3408.0,3403.0,1212.0,1208.0,1784.0,1785.0
3412,1212,1789,0,3411.0,3408.0,1211.0,1212.0,1783.0,1784.0
3413,1214,1789,0,3412.0,3411.0,1212.0,1211.0,1789.0,1783.0
3413,1213,1791,0,3413.0,3412.0,1214.0,1212.0,1789.0,1789.0
3415,1213,1791,0,3413.0,3413.0,1213.0,1214.0,1791.0,1789.0
3413,1211,1792,0,3415.0,3413.0,1213.0,1213.0,1791.0,1791.0
3410,1213,1791,0,3413.0,3415.0,1211.0,1213.0,1792.0,1791.0
3405,1214,1793,0,3410.0,3413.0,1213.0,1211.0,1791.0,1792.0
3404,1210,1792,0,3405.0,3410.0,1214.0,1213.0,1793.0,1791.0
3402,1213,1792,0,3404.0,3405.0,1210.0,1214.0,1792.0,1793.0
3396,1216,1791,0,3402.0,3404.0,1213.0,1210.0,1792.0,1792.0
3393,1217,1790,0,3396.0,3402.0,1216.0,1213.0,1791.0,1792.0
3397,1217,1788,0,3393.0,3396.0,1217.0,1216.0,1790.0,1791.0
3397,1218,1792,0,3397.0,3393.0,1217.0,1217.0,1788.0,1790.0
3398,1217,1791,0,3397.0,3397.0,1218.0,1217.0,1792.0,1788.0
3398,1214,1790,0,3398.0,3397.0,1217.0,1218.0,1791.0,1792.0
3398,1211,1789,0,3398.0,3398.0,1214.0,1217.0,1790.0,1791.0
3401,1212,1786,0,3398.0,3398.0,1211.0,1214.0,1789.0,1790.0
3399,1209,1784,0,3401.0,3398.0,1212.0,1211.0,1786.0,1789.0
3400,1210,1785,0,3399.0,3401.0,1209.0,1212.0,1784.0,1786.0
3402,1209,1784,0,3400.0,3399.0,1210.0,1209.0,1785.0,1784.0
3405,1210,1783,0,3402.0,3400.0,1209.0,1210.0,1784.0,1785.0
3407,1210,1785,0,3405.0,3402.0,1210.0,1209.0,1783.0,1784.0
3412,1214,1788,0,3407.0,3405.0,1210.0,1210.0,1785.0,1783.0
3415,1217,1790,0,3412.0,3407.0,1214.0,1210.0,1788.0,1785.0
3412,1217,1792,0,3415.0,3412.0,1217.0,1214.0,1790.0,1788.0
3415,1217,1791,0,3412.0,3415.0,1217.0,1217.0,1792.0,1790.0
3412,1216,1793,0,3415.0,3412.0,1217.0,1217.0,1791.0,1792.0
3410,1217,1793,0,3412.0,3415.0,1216.0,1217.0,1793.0,1791.0
3410,1215,1794,0,3410.0,3412.0,1217.0,1216.0,1793.0,1793.0
3408,1218,1799,0,3410.0,3410.0,1215.0,1217.0,1794.0,1793.0
3403,1215,1798,0,3408.0,3410.0,1218.0,1215.0,1799.0,1794.0
3401,1216,1799,0,3403.0,3408.0,1215.0,1218.0,1798.0,1799.0
3398,1213,1800,0,3401.0,3403.0,1216.0,1215.0,1799.0,1798.0
3390,1214,1801,0,3398.0,3401.0,1213.0,1216.0,1800.0,1799.0
3390,1217,1795,0,3390.0,3398.0,1214.0,1213.0,1801.0,1800.0
3390,1216,1796,0,3390.0,3390.0,1217.0,1214.0,1795.0,1801.0
3394,1214,1795,0,3390.0,3390.0,1216.0,1217.0,1796.0,1795.0
3395,1215,1793,0,3394.0,3390.0,1214.0,1216.0,1795.0,1796.0
3396,1211,1791,0,3395.0,3394.0,1215.0,1214.0,1793.0,1795.0
3396,1210,1791,0,3396.0,3395.0,1211.0,1215.0,1791.0,1793.0
3394,1209,1792,0,3396.0,3396.0,1210.0,1211.0,1791.0,1791.0
3396,1211,1792,0,3394.0,3396.0,1209.0,1210.0,1792.0,1791.0
3401,1215,1791,0,3396.0,3394.0,1211.0,1209.0,1792.0,1792.0
3400,1212,1792,0,3401.0,3396.0,1215.0,1211.0,1791.0,1792.0
3404,1214,1792,0,3400.0,3401.0,1212.0,1215.0,1792.0,1791.0
3404,1213,1796,0,3404.0,3400.0,1214.0,1212.0,1792.0,1792.0
3403,1210,1796,0,3404.0,3404.0,1213.0,1214.0,1796.0,1792.0
3404,1211,1795,0,3403.0,3404.0,1210.0,1213.0,1796.0,1796.0
3404,1212,1798,0,3404.0,3403.0,1211.0,1210.0,1795.0,1796.0
3406,1213,1798,0,3404.0,3404.0,1212.0,1211.0,1798.0,1795.0
3405,1215,1800,0,3406.0,3404.0,1213.0,1212.0,1798.0,1798.0
3406,1216,1799,0,3405.0,3406.0,1215.0,1213.0,1800.0,1798.0
3404,1217,1798,0,3406.0,3405.0,1216.0,1215.0,1799.0,1800.0
3403,1215,1798,0,3404.0,3406.0,1217.0,1216.0,1798.0,1799.0
3399,1217,1801,0,3403.0,3404.0,1215.0,1217.0,1798.0,1798.0
3398,1219,1800,0,3399.0,3403.0,1217.0,1215.0,1801.0,1798.0
3395,1220,1803,0,3398.0,3399.0,1219.0,1217.0,1800.0,1801.0
3394,1219,1801,0,3395.0,3398.0,1220.0,1219.0,1803.0,1800.0
3389,1220,1799,0,3394.0,3395.0,1219.0,1220.0,1801.0,1803.0
3385,1219,1802,0,3389.0,3394.0,1220.0,1219.0,1799.0,1801.0
3382,1224,1803,0,3385.0,3389.0,1219.0,1220.0,1802.0,1799.0
3384,1225,1805,0,3382.0,3385.0,1224.0,1219.0,1803.0,1802.0
3380,1225,1808,0,3384.0,3382.0,1225.0,1224.0,1805.0,1803.0
3378,1226,1810,0,3380.0,3384.0,1225.0,1225.0,1808.0,1805.0
3384,1227,1808,0,3378.0,3380.0,1226.0,1225.0,1810.0,1808.0
3389,1230,1809,0,3384.0,3378.0,1227.0,1226.0,1808.0,1810.0
3397,1231,1808,0,3389.0,3384.0,1230.0,1227.0,1809.0,1808.0
3403,1236,1808,0,3397.0,3389.0,1231.0,1230.0,1808.0,1809.0
3411,1239,1812,0,3403.0,3397.0,1236.0,1231.0,1808.0,1808.0
3416,1242,1813,0,3411.0,3403.0,1239.0,1236.0,1812.0,1808.0
3420,1247,1813,0,3416.0,3411.0,1242.0,1239.0,1813.0,1812.0
3424,1248,1815,0,3420.0,3416.0,1247.0,1242.0,1813.0,1813.0
3431,1246,1813,0,3424.0,3420.0,1248.0,1247.0,1815.0,1813.0
3438,1241,1808,0,3431.0,3424.0,1246.0,1248.0,1813.0,1815.0
3444,1233,1803,0,3438.0,3431.0,1241.0,1246.0,1808.0,1813.0
3441,1231,1805,0,3444.0,3438.0,1233.0,1241.0,1803.0,1808.0
3435,1229,1804,0,3441.0,3444.0,1231.0,1233.0,1805.0,1803.0
3425,1227,1800,0,3435.0,3441.0,1229.0,1231.0,1804.0,1805.0
3408,1220,1795,0,3425.0,3435.0,1227.0,1229.0,1800.0,1804.0
3392,1219,1792,0,3408.0,3425.0,1220.0,1227.0,1795.0,1800.0
3381,1221,1793,0,3392.0,3408.0,1219.0,1220.0,1792.0,1795.0
3372,1222,1797,0,3381.0,3392.0,1221.0,1219.0,1793.0,1792.0
3356,1222,1800,0,3372.0,3381.0,1222.0,1221.0,1797.0,1793.0
3348,1220,1806,0,3356.0,3372.0,1222.0,1222.0,1800.0,1797.0
3346,1220,1812,0,3348.0,3356.0,1220.0,1222.0,1806.0,1800.0
3345,1221,1811,0,3346.0,3348.0,1220.0,1220.0,1812.0,1806.0
3346,1220,1807,0,3345.0,3346.0,1221.0,1220.0,1811.0,1812.0
3352,1220,1805,0,3346.0,3345.0,1220.0,1221.0,1807.0,1811.0
3358,1219,1800,0,3352.0,3346.0,1220.0,1220.0,1805.0,1807.0
3365,1220,1800,0,3358.0,3352.0,1219.0,1220.0,1800.0,1805.0
3372,1219,1797,0,3365.0,3358.0,1220.0,1219.0,1800.0,1800.0
3379,1218,1797,0,3372.0,3365.0,1219.0,1220.0,1797.0,1800.0
3384,1216,1802,0,3379.0,3372.0,1218.0,1219.0,1797.0,1797.0
3388,1217,1806,0,3384.0,3379.0,1216.0,1218.0,1802.0,1797.0
3388,1215,1806,0,3388.0,3384.0,1217.0,1216.0,1806.0,1802.0
3391,1220,1813,0,3388.0,3388.0,1215.0,1217.0,1806.0,1806.0
3395,1220,1816,0,3391.0,3388.0,1220.0,1215.0,1813.0,1806.0
3398,1221,1817,0,3395.0,3391.0,1220.0,1220.0,1816.0,1813.0
3400,1216,1820,0,3398.0,3395.0,1221.0,1220.0,1817.0,1816.0
3398,1209,1818,0,3400.0,3398.0,1216.0,1221.0,1820.0,1817.0
3392,1207,1819,0,3398.0,3400.0,1209.0,1216.0,1818.0,1820.0
3386,1202,1814,0,3392.0,3398.0,1207.0,1209.0,1819.0,1818.0
3383,1196,1813,0,3386.0,3392.0,1202.0,1207.0,1814.0,1819.0
3379,1200,1814,0,3383.0,3386.0,1196.0,1202.0,1813.0,1814.0
3377,1201,1816,0,3379.0,3383.0,1200.0,1196.0,1814.0,1813.0
3377,1196,1820,0,3377.0,3379.0,1201.0,1200.0,1816.0,1814.0
3379,1196,1820,0,3377.0,3377.0,1196.0,1201.0,1820.0,1816.0
3382,1192,1819,0,3379.0,3377.0,1196.0,1196.0,1820.0,1820.0
3380,1193,1822,0,3382.0,3379.0,1192.0,1196.0,1819.0,1820.0
3378,1197,1827,0,3380.0,3382.0,1193.0,1192.0,1822.0,1819.0
3381,1201,1829,0,3378.0,3380.0,1197.0,1193.0,1827.0,1822.0
3381,1203,1828,0,3381.0,3378.0,1201.0,1197.0,1829.0,1827.0
3382,1203,1820,0,3381.0,3381.0,1203.0,1201.0,1828.0,1829.0
3382,1205,1819,0,3382.0,3381.0,1203.0,1203.0,1820.0,1828.0
3378,1211,1820,0,3382.0,3382.0,1205.0,1203.0,1819.0,1820.0
3377,1213,1827,0,3378.0,3382.0,1211.0,1205.0,1820.0,1819.0
3377,1213,1825,0,3377.0,3378.0,1213.0,1211.0,1827.0,1820.0
3375,1221,1821,0,3377.0,3377.0,1213.0,1213.0,1825.0,1827.0
3373,1223,1821,0,3375.0,3377.0,1221.0,1213.0,1821.0,1825.0
3372,1227,1825,0,3373.0,3375.0,1223.0,1221.0,1821.0,1821.0
3381,1229,1821,0,3372.0,3373.0,1227.0,1223.0,1825.0,1821.0
3384,1230,1812,0,3381.0,3372.0,1229.0,1227.0,1821.0,1825.0
3395,1230,1804,0,3384.0,3381.0,1230.0,1229.0,1812.0,1821.0
3405,1230,1797,0,3395.0,3384.0,1230.0,1230.0,1804.0,1812.0
3417,1232,1795,0,3405.0,3395.0,1230.0,1230.0,1797.0,1804.0
3425,1232,1794,0,3417.0,3405.0,1232.0,1230.0,1795.0,1797.0
3431,1235,1791,0,3425.0,3417.0,1232.0,1232.0,1794.0,1795.0
3437,1235,1793,0,3431.0,3425.0,1235.0,1232.0,1791.0,1794.0
3436,1231,1793,0,3437.0,3431.0,1235.0,1235.0,1793.0,1791.0
3436,1230,1792,0,3436.0,3437.0,1231.0,1235.0,1793.0,1793.0
3432,1229,1794,0,3436.0,3436.0,1230.0,1231.0,1792.0,1793.0
3426,1226,1797,0,3432.0,3436.0,1229.0,1230.0,1794.0,1792.0
3421,1222,1799,0,3426.0,3432.0,1226.0,1229.0,1797.0,1794.0
3413,1219,1802,0,3421.0,3426.0,1222.0,1226.0,1799.0,1797.0
3401,1221,1802,0,3413.0,3421.0,1219.0,1222.0,1802.0,1799.0
3398,1220,1804,0,3401.0,3413.0,1221.0,1219.0,1802.0,1802.0
3394,1222,1804,0,3398.0,3401.0,1220.0,1221.0,1804.0,1802.0
3383,1220,1803,0,3394.0,3398.0,1222.0,1220.0,1804.0,1804.0
3373,1220,1802,0,3383.0,3394.0,1220.0,1222.0,1803.0,1804.0
3371,1219,1799,0,3373.0,3383.0,1220.0,1220.0,1802.0,1803.0
3367,1219,1794,0,3371.0,3373.0,1219.0,1220.0,1799.0,1802.0
3368,1221,1795,0,3367.0,3371.0,1219.0,1219.0,1794.0,1799.0
3370,1222,1792,0,3368.0,3367.0,1221.0,1219.0,1795.0,1794.0
3371,1225,1797,0,3370.0,3368.0,1222.0,1221.0,1792.0,1795.0
3375,1228,1799,0,3371.0,3370.0,1225.0,1222.0,1797.0,1792.0
3380,1232,1801,0,3375.0,3371.0,1228.0,1225.0,1799.0,1797.0
3386,1230,1801,0,3380.0,3375.0,1232.0,1228.0,1801.0,1799.0
3387,1226,1800,0,3386.0,3380.0,1230.0,1232.0,1801.0,1801.0
3386,1227,1795,0,3387.0,3386.0,1226.0,1230.0,1800.0,1801.0
3388,1230,1795,0,3386.0,3387.0,1227.0,1226.0,1795.0,1800.0
3391,1233,1793,0,3388.0,3386.0,1230.0,1227.0,1795.0,1795.0
3389,1235,1792,0,3391.0,3388.0,1233.0,1230.0,1793.0,1795.0
3391,1237,1789,0,3389.0,3391.0,1235.0,1233.0,1792.0,1793.0
3394,1241,1790,0,3391.0,3389.0,1237.0,1235.0,1789.0,1792.0
3394,1244,1791,0,3394.0,3391.0,1241.0,1237.0,1790.0,1789.0
3396,1243,1792,0,3394.0,3394.0,1244.0,1241.0,1791.0,1790.0
3399,1244,1790,0,3396.0,3394.0,1243.0,1244.0,1792.0,1791.0
3399,1241,1788,0,3399.0,3396.0,1244.0,1243.0,1790.0,1792.0
3397,1240,1794,0,3399.0,3399.0,1241.0,1244.0,1788.0,1790.0
3390,1242,1796,0,3397.0,3399.0,1240.0,1241.0,1794.0,1788.0
3382,1246,1802,0,3390.0,3397.0,1242.0,1240.0,1796.0,1794.0
3376,1250,1804,0,3382.0,3390.0,1246.0,1242.0,1802.0,1796.0
3372,1251,1812,0,3376.0,3382.0,1250.0,1246.0,1804.0,1802.0
3368,1256,1814,0,3372.0,3376.0,1251.0,1250.0,1812.0,1804.0
3362,1255,1815,0,3368.0,3372.0,1256.0,1251.0,1814.0,1812.0
3357,1254,1813,0,3362.0,3368.0,1255.0,1256.0,1815.0,1814.0
3358,1252,1814,0,3357.0,3362.0,1254.0,1255.0,1813.0,1815.0
3358,1247,1811,0,3358.0,3357.0,1252.0,1254.0,1814.0,1813.0
3364,1244,1809,0,3358.0,3358.0,1247.0,1252.0,1811.0,1814.0
3372,1239,1805,0,3364.0,3358.0,1244.0,1247.0,1809.0,1811.0
3380,1238,1805,0,3372.0,3364.0,1239.0,1244.0,1805.0,1809.0
3392,1238,1803,0,3380.0,3372.0,1238.0,1239.0,1805.0,1805.0
3403,1234,1803,0,3392.0,3380.0,1238.0,1238.0,1803.0,1805.0
3410,1232,1800,0,3403.0,3392.0,1234.0,1238.0,1803.0,1803.0
3421,1231,1802,0,3410.0,3403.0,1232.0,1234.0,1800.0,1803.0
3427,1226,1803,0,3421.0,3410.0,1231.0,1232.0,1802.0,1800.0
3428,1226,1800,0,3427.0,3421.0,1226.0,1231.0,1803.0,1802.0
3424,1231,1800,0,3428.0,3427.0,1226.0,1226.0,1800.0,1803.0
3426,1234,1804,0,3424.0,3428.0,1231.0,1226.0,1800.0,1800.0
3421,1237,1807,0,3426.0,3424.0,1234.0,1231.0,1804.0,1800.0
3408,1237,1812,0,3421.0,3426.0,1237.0,1234.0,1807.0,1804.0
3395,1239,1812,0,3408.0,3421.0,1237.0,1237.0,1812.0,1807.0
3384,1238,1813,0,3395.0,3408.0,1239.0,1237.0,1812.0,1812.0
3377,1236,1819,0,3384.0,3395.0,1238.0,1239.0,1813.0,1812.0
3371,1237,1825,0,3377.0,3384.0,1236.0,1238.0,1819.0,1813.0
3367,1243,1832,0,3371.0,3377.0,1237.0,1236.0,1825.0,1819.0
3364,1243,1828,0,3367.0,3371.0,1243.0,1237.0,1832.0,1825.0
3361,1242,1825,0,3364.0,3367.0,1243.0,1243.0,1828.0,1832.0
3361,1245,1821,0,3361.0,3364.0,1242.0,1243.0,1825.0,1828.0
3369,1242,1816,0,3361.0,3361.0,1245.0,1242.0,1821.0,1825.0
3377,1236,1819,0,3369.0,3361.0,1242.0,1245.0,1816.0,1821.0
3382,1236,1818,0,3377.0,3369.0,1236.0,1242.0,1819.0,1816.0
3390,1240,1822,0,3382.0,3377.0,1236.0,1236.0,1818.0,1819.0
3395,1237,1820,0,3390.0,3382.0,1240.0,1236.0,1822.0,1818.0
3399,1237,1820,0,3395.0,3390.0,1237.0,1240.0,1820.0,1822.0
3398,1237,1818,0,3399.0,3395.0,1237.0,1237.0,1820.0,1820.0
3397,1242,1817,0,3398.0,3399.0,1237.0,1237.0,1818.0,1820.0
3398,1247,1816,0,3397.0,3398.0,1242.0,1237.0,1817.0,1818.0
3399,1246,1819,0,3398.0,3397.0,1247.0,1242.0,1816.0,1817.0
3398,1247,1824,0,3399.0,3398.0,1246.0,1247.0,1819.0,1816.0
3395,1243,1822,0,3398.0,3399.0,1247.0,1246.0,1824.0,1819.0
3393,1233,1819,0,3395.0,3398.0,1243.0,1247.0,1822.0,1824.0
3390,1228,1818,0,3393.0,3395.0,1233.0,1243.0,1819.0,1822.0
3384,1225,1814,0,3390.0,3393.0,1228.0,1233.0,1818.0,1819.0
3379,1221,1818,0,3384.0,3390.0,1225.0,1228.0,1814.0,1818.0
3375,1221,1818,0,3379.0,3384.0,1221.0,1225.0,1818.0,1814.0
3368,1218,1819,0,3375.0,3379.0,1221.0,1221.0,1818.0,1818.0
3364,1223,1818,0,3368.0,3375.0,1218.0,1221.0,1819.0,1818.0
3355,1224,1814,0,3364.0,3368.0,1223.0,1218.0,1818.0,1819.0
3351,1227,1815,0,3355.0,3364.0,1224.0,1223.0,1814.0,1818.0
3349,1229,1819,0,3351.0,3355.0,1227.0,1224.0,1815.0,1814.0
3348,1235,1824,0,3349.0,3351.0,1229.0,1227.0,1819.0,1815.0
3352,1234,1827,0,3348.0,3349.0,1235.0,1229.0,1824.0,1819.0
3351,1236,1827,0,3352.0,3348.0,1234.0,1235.0,1827.0,1824.0
3357,1239,1821,0,3351.0,3352.0,1236.0,1234.0,1827.0,1827.0
3358,1243,1816,0,3357.0,3351.0,1239.0,1236.0,1821.0,1827.0
3362,1246,1814,0,3358.0,3357.0,1243.0,1239.0,1816.0,1821.0
3372,1248,1810,0,3362.0,3358.0,1246.0,1243.0,1814.0,1816.0
3384,1251,1808,0,3372.0,3362.0,1248.0,1246.0,1810.0,1814.0
3396,1251,1806,0,3384.0,3372.0,1251.0,1248.0,1808.0,1810.0
3408,1250,1803,0,3396.0,3384.0,1251.0,1251.0,1806.0,1808.0
3418,1242,1796,0,3408.0,3396.0,1250.0,1251.0,1803.0,1806.0
3427,1239,1792,0,3418.0,3408.0,1242.0,1250.0,1796.0,1803.0
3434,1234,1790,0,3427.0,3418.0,1239.0,1242.0,1792.0,1796.0
3434,1234,1792,0,3434.0,3427.0,1234.0,1239.0,1790.0,1792.0
3437,1237,1794,0,3434.0,3434.0,1234.0,1234.0,1792.0,1790.0
3435,1242,1795,0,3437.0,3434.0,1237.0,1234.0,1794.0,1792.0
3429,1243,1797,0,3435.0,3437.0,1242.0,1237.0,1795.0,1794.0
3426,1245,1800,0,3429.0,3435.0,1243.0,1242.0,1797.0,1795.0
3418,1243,1802,0,3426.0,3429.0,1245.0,1243.0,1800.0,1797.0
3411,1240,1806,0,3418.0,3426.0,1243.0,1245.0,1802.0,1800.0
3403,1243,1808,0,3411.0,3418.0,1240.0,1243.0,1806.0,1802.0
3392,1239,1808,0,3403.0,3411.0,1243.0,1240.0,1808.0,1806.0
3385,1236,1806,0,3392.0,3403.0,1239.0,1243.0,1808.0,1808.0
3372,1234,1807,0,3385.0,3392.0,1236.0,1239.0,1806.0,1808.0
3366,1231,1805,0,3372.0,3385.0,1234.0,1236.0,1807.0,1806.0
3357,1229,1801,0,3366.0,3372.0,1231.0,1234.0,1805.0,1807.0
3349,1230,1802,0,3357.0,3366.0,1229.0,1231.0,1801.0,1805.0
3343,1228,1809,0,3349.0,3357.0,1230.0,1229.0,1802.0,1801.0
3340,1230,1811,0,3343.0,3349.0,1228.0,1230.0,1809.0,1802.0
3341,1231,1814,0,3340.0,3343.0,1230.0,1228.0,1811.0,1809.0
3344,1228,1820,0,3341.0,3340.0,1231.0,1230.0,1814.0,1811.0
3347,1229,1823,0,3344.0,3341.0,1228.0,1231.0,1820.0,1814.0
3357,1228,1825,0,3347.0,3344.0,1229.0,1228.0,1823.0,1820.0
3363,1229,1824,0,3357.0,3347.0,1228.0,1229.0,1825.0,1823.0
3366,1233,1824,0,3363.0,3357.0,1229.0,1228.0,1824.0,1825.0
3370,1234,1822,0,3366.0,3363.0,1233.0,1229.0,1824.0,1824.0
3374,1234,1818,0,3370.0,3366.0,1234.0,1233.0,1822.0,1824.0
3381,1234,1817,0,3374.0,3370.0,1234.0,1234.0,1818.0,1822.0
3387,1229,1815,0,3381.0,3374.0,1234.0,1234.0,1817.0,1818.0
3390,1225,1815,0,3387.0,3381.0,1229.0,1234.0,1815.0,1817.0
3395,1230,1812,0,3390.0,3387.0,1225.0,1229.0,1815.0,1815.0
3397,1233,1810,0,3395.0,3390.0,1230.0,1225.0,1812.0,1815.0
3400,1238,1802,0,3397.0,3395.0,1233.0,1230.0,1810.0,1812.0
3398,1236,1799,0,3400.0,3397.0,1238.0,1233.0,1802.0,1810.0
3400,1238,1801,0,3398.0,3400.0,1236.0,1238.0,1799.0,1802.0
3400,1237,1803,0,3400.0,3398.0,1238.0,1236.0,1801.0,1799.0
3395,1238,1810,0,3400.0,3400.0,1237.0,1238.0,1803.0,1801.0
3391,1235,1805,0,3395.0,3400.0,1238.0,1237.0,1810.0,1803.0
3383,1237,1805,0,3391.0,3395.0,1235.0,1238.0,1805.0,1810.0
3377,1235,1805,0,3383.0,3391.0,1237.0,1235.0,1805.0,1805.0
3371,1231,1803,0,3377.0,3383.0,1235.0,1237.0,1805.0,1805.0
3364,1229,1800,0,3371.0,3377.0,1231.0,1235.0,1803.0,1805.0
3364,1227,1799,0,3364.0,3371.0,1229.0,1231.0,1800.0,1803.0
3360,1229,1794,0,3364.0,3364.0,1227.0,1229.0,1799.0,1800.0
3361,1233,1800,0,3360.0,3364.0,1229.0,1227.0,1794.0,1799.0
3364,1236,1800,0,3361.0,3360.0,1233.0,1229.0,1800.0,1794.0
3364,1234,1800,0,3364.0,3361.0,1236.0,1233.0,1800.0,1800.0
3370,1236,1799,0,3364.0,3364.0,1234.0,1236.0,1800.0,1800.0
3378,1240,1802,0,3370.0,3364.0,1236.0,1234.0,1799.0,1800.0
3385,1242,1804,0,3378.0,3370.0,1240.0,1236.0,1802.0,1799.0
3394,1244,1809,0,3385.0,3378.0,1242.0,1240.0,1804.0,1802.0
3400,1245,1816,0,3394.0,3385.0,1244.0,1242.0,1809.0,1804.0
3400,1247,1819,0,3400.0,3394.0,1245.0,1244.0,1816.0,1809.0
3403,1249,1824,0,3400.0,3400.0,1247.0,1245.0,1819.0,1816.0
3405,1252,1822,0,3403.0,3400.0,1249.0,1247.0,1824.0,1819.0
3405,1253,1822,0,3405.0,3403.0,1252.0,1249.0,1822.0,1824.0
3404,1259,1818,0,3405.0,3405.0,1253.0,1252.0,1822.0,1822.0
3400,1262,1819,0,3404.0,3405.0,1259.0,1253.0,1818.0,1822.0
3398,1265,1816,0,3400.0,3404.0,1262.0,1259.0,1819.0,1818.0
3390,1268,1815,0,3398.0,3400.0,1265.0,1262.0,1816.0,1819.0
3388,1267,1815,0,3390.0,3398.0,1268.0,1265.0,1815.0,1816.0
3379,1266,1812,0,3388.0,3390.0,1267.0,1268.0,1815.0,1815.0
3374,1262,1812,0,3379.0,3388.0,1266.0,1267.0,1812.0,1815.0
3367,1259,1811,0,3374.0,3379.0,1262.0,1266.0,1812.0,1812.0
3362,1253,1812,0,3367.0,3374.0,1259.0,1262.0,1811.0,1812.0
3361,1247,1805,0,3362.0,3367.0,1253.0,1259.0,1812.0,1811.0
3356,1242,1807,0,3361.0,3362.0,1247.0,1253.0,1805.0,1812.0
3356,1241,1807,0,3356.0,3361.0,1242.0,1247.0,1807.0,1805.0
3359,1239,1808,0,3356.0,3356.0,1241.0,1242.0,1807.0,1807.0
3363,1241,1810,0,3359.0,3356.0,1239.0,1241.0,1808.0,1807.0
3364,1241,1809,0,3363.0,3359.0,1241.0,1239.0,1810.0,1808.0
3370,1245,1810,0,3364.0,3363.0,1241.0,1241.0,1809.0,1810.0
3375,1246,1811,0,3370.0,3364.0,1245.0,1241.0,1810.0,1809.0
3384,1250,1809,0,3375.0,3370.0,1246.0,1245.0,1811.0,1810.0
3390,1249,1809,0,3384.0,3375.0,1250.0,1246.0,1809.0,1811.0
3390,1250,1808,0,3390.0,3384.0,1249.0,1250.0,1809.0,1809.0
3394,1252,1812,0,3390.0,3390.0,1250.0,1249.0,1808.0,1809.0
3390,1250,1814,0,3394.0,3390.0,1252.0,1250.0,1812.0,1808.0
3392,1252,1814,0,3390.0,3394.0,1250.0,1252.0,1814.0,1812.0
3392,1253,1816,0,3392.0,3390.0,1252.0,1250.0,1814.0,1814.0
3394,1246,1813,0,3392.0,3392.0,1253.0,1252.0,1816.0,1814.0
3390,1240,1809,0,3394.0,3392.0,1246.0,1253.0,1813.0,1816.0
3389,1239,1807,0,3390.0,3394.0,1240.0,1246.0,1809.0,1813.0
3388,1235,1803,0,3389.0,3390.0,1239.0,1240.0,1807.0,1809.0
3392,1232,1804,0,3388.0,3389.0,1235.0,1239.0,1803.0,1807.0
3390,1234,1802,0,3392.0,3388.0,1232.0,1235.0,1804.0,1803.0
3387,1233,1800,0,3390.0,3392.0,1234.0,1232.0,1802.0,1804.0
3389,1231,1802,0,3387.0,3390.0,1233.0,1234.0,1800.0,1802.0
3386,1230,1805,0,3389.0,3387.0,1231.0,1233.0,1802.0,1800.0
3383,1230,1807,0,3386.0,3389.0,1230.0,1231.0,1805.0,1802.0
3382,1230,1808,0,3383.0,3386.0,1230.0,1230.0,1807.0,1805.0
3382,1232,1811,0,3382.0,3383.0,1230.0,1230.0,1808.0,1807.0
3385,1237,1813,0,3382.0,3382.0,1232.0,1230.0,1811.0,1808.0
3381,1238,1814,0,3385.0,3382.0,1237.0,1232.0,1813.0,1811.0
3378,1243,1815,0,3381.0,3385.0,1238.0,1237.0,1814.0,1813.0
3374,1246,1811,0,3378.0,3381.0,1243.0,1238.0,1815.0,1814.0
3367,1253,1811,0,3374.0,3378.0,1246.0,1243.0,1811.0,1815.0
3364,1260,1811,0,3367.0,3374.0,1253.0,1246.0,1811.0,1811.0
3366,1266,1810,0,3364.0,3367.0,1260.0,1253.0,1811.0,1811.0
3370,1271,1809,0,3366.0,3364.0,1266.0,1260.0,1810.0,1811.0
3374,1269,1811,0,3370.0,3366.0,1271.0,1266.0,1809.0,1810.0
3384,1259,1805,0,3374.0,3370.0,1269.0,1271.0,1811.0,1809.0
3395,1252,1802,0,3384.0,3374.0,1259.0,1269.0,1805.0,1811.0
3408,1244,1806,0,3395.0,3384.0,1252.0,1259.0,1802.0,1805.0
3411,1238,1806,0,3408.0,3395.0,1244.0,1252.0,1806.0,1802.0
3421,1239,1806,0,3411.0,3408.0,1238.0,1244.0,1806.0,1806.0
3426,1237,1805,0,3421.0,3411.0,1239.0,1238.0,1806.0,1806.0
3420,1235,1802,0,3426.0,3421.0,1237.0,1239.0,1805.0,1806.0
3419,1235,1799,0,3420.0,3426.0,1235.0,1237.0,1802.0,1805.0
3415,1234,1805,0,3419.0,3420.0,1235.0,1235.0,1799.0,1802.0
3410,1234,1809,0,3415.0,3419.0,1234.0,1235.0,1805.0,1799.0
3403,1230,1812,0,3410.0,3415.0,1234.0,1234.0,1809.0,1805.0
3394,1230,1816,0,3403.0,3410.0,1230.0,1234.0,1812.0,1809.0
3392,1230,1815,0,3394.0,3403.0,1230.0,1230.0,1816.0,1812.0
3385,1224,1814,0,3392.0,3394.0,1230.0,1230.0,1815.0,1816.0
3385,1221,1812,0,3385.0,3392.0,1224.0,1230.0,1814.0,1815.0
3375,1213,1810,0,3385.0,3385.0,1221.0,1224.0,1812.0,1814.0
3372,1204,1803,0,3375.0,3385.0,1213.0,1221.0,1810.0,1812.0
3371,1201,1801,0,3372.0,3375.0,1204.0,1213.0,1803.0,1810.0
3369,1211,1799,0,3371.0,3372.0,1201.0,1204.0,1801.0,1803.0
3366,1211,1803,0,3369.0,3371.0,1211.0,1201.0,1799.0,1801.0
3366,1213,1804,0,3366.0,3369.0,1211.0,1211.0,1803.0,1799.0
3368,1217,1807,0,3366.0,3366.0,1213.0,1211.0,1804.0,1803.0
3371,1222,1810,0,3368.0,3366.0,1217.0,1213.0,1807.0,1804.0
3376,1223,1809,0,3371.0,3368.0,1222.0,1217.0,1810.0,1807.0
3377,1227,1811,0,3376.0,3371.0,1223.0,1222.0,1809.0,1810.0
3380,1228,1810,0,3377.0,3376.0,1227.0,1223.0,1811.0,1809.0
3385,1229,1812,0,3380.0,3377.0,1228.0,1227.0,1810.0,1811.0
3387,1229,1809,0,3385.0,3380.0,1229.0,1228.0,1812.0,1810.0
3388,1228,1809,0,3387.0,3385.0,1229.0,1229.0,1809.0,1812.0
3385,1230,1807,0,3388.0,3387.0,1228.0,1229.0,1809.0,1809.0
3388,1228,1808,0,3385.0,3388.0,1230.0,1228.0,1807.0,1809.0
3383,1224,1805,0,3388.0,3385.0,1228.0,1230.0,1808.0,1807.0
3385,1222,1808,0,3383.0,3388.0,1224.0,1228.0,1805.0,1808.0
3382,1219,1809,0,3385.0,3383.0,1222.0,1224.0,1808.0,1805.0
3380,1219,1808,0,3382.0,3385.0,1219.0,1222.0,1809.0,1808.0
3378,1217,1812,0,3380.0,3382.0,1219.0,1219.0,1808.0,1809.0
3382,1214,1816,0,3378.0,3380.0,1217.0,1219.0,1812.0,1808.0
3379,1213,1816,0,3382.0,3378.0,1214.0,1217.0,1816.0,1812.0
3378,1218,1822,0,3379.0,3382.0,1213.0,1214.0,1816.0,1816.0
3380,1219,1827,0,3378.0,3379.0,1218.0,1213.0,1822.0,1816.0
3382,1218,1827,0,3380.0,3378.0,1219.0,1218.0,1827.0,1822.0
3380,1216,1828,0,3382.0,3380.0,1218.0,1219.0,1827.0,1827.0
3379,1214,1831,0,3380.0,3382.0,1216.0,1218.0,1828.0,1827.0
3378,1209,1835,0,3379.0,3380.0,1214.0,1216.0,1831.0,1828.0
3377,1210,1832,0,3378.0,3379.0,1209.0,1214.0,1835.0,1831.0
3373,1215,1832,0,3377.0,3378.0,1210.0,1209.0,1832.0,1835.0
3372,1222,1830,0,3373.0,3377.0,1215.0,1210.0,1832.0,1832.0
3371,1226,1830,0,3372.0,3373.0,1222.0,1215.0,1830.0,1832.0
3369,1234,1831,0,3371.0,3372.0,1226.0,1222.0,1830.0,1830.0
3369,1236,1831,0,3369.0,3371.0,1234.0,1226.0,1831.0,1830.0
3373,1240,1831,0,3369.0,3369.0,1236.0,1234.0,1831.0,1831.0
3373,1242,1833,0,3373.0,3369.0,1240.0,1236.0,1831.0,1831.0
3379,1240,1828,0,3373.0,3373.0,1242.0,1240.0,1833.0,1831.0
3376,1243,1825,0,3379.0,3373.0,1240.0,1242.0,1828.0,1833.0
3380,1248,1823,0,3376.0,3379.0,1243.0,1240.0,1825.0,1828.0
3384,1244,1825,0,3380.0,3376.0,1248.0,1243.0,1823.0,1825.0
3388,1241,1822,0,3384.0,3380.0,1244.0,1248.0,1825.0,1823.0
3390,1241,1818,0,3388.0,3384.0,1241.0,1244.0,1822.0,1825.0
3393,1240,1820,0,3390.0,3388.0,1241.0,1241.0,1818.0,1822.0
3396,1234,1823,0,3393.0,3390.0,1240.0,1241.0,1820.0,1818.0
3396,1232,1823,0,3396.0,3393.0,1234.0,1240.0,1823.0,1820.0
3388,1237,1826,0,3396.0,3396.0,1232.0,1234.0,1823.0,1823.0
3392,1237,1830,0,3388.0,3396.0,1237.0,1232.0,1826.0,1823.0
3393,1234,1829,0,3392.0,3388.0,1237.0,1237.0,1830.0,1826.0
3390,1231,1827,0,3393.0,3392.0,1234.0,1237.0,1829.0,1830.0
3391,1227,1827,0,3390.0,3393.0,1231.0,1234.0,1827.0,1829.0
3393,1222,1828,0,3391.0,3390.0,1227.0,1231.0,1827.0,1827.0
3387,1221,1829,0,3393.0,3391.0,1222.0,1227.0,1828.0,1827.0
3381,1222,1832,0,3387.0,3393.0,1221.0,1222.0,1829.0,1828.0
3378,1222,1828,0,3381.0,3387.0,1222.0,1221.0,1832.0,1829.0
3373,1225,1826,0,3378.0,3381.0,1222.0,1222.0,1828.0,1832.0
3368,1227,1826,0,3373.0,3378.0,1225.0,1222.0,1826.0,1828.0
3367,1228,1825,0,3368.0,3373.0,1227.0,1225.0,1826.0,1826.0
3369,1230,1823,0,3367.0,3368.0,1228.0,1227.0,1825.0,1826.0
3369,1232,1817,0,3369.0,3367.0,1230.0,1228.0,1823.0,1825.0
3371,1236,1816,0,3369.0,3369.0,1232.0,1230.0,1817.0,1823.0
3373,1241,1816,0,3371.0,3369.0,1236.0,1232.0,1816.0,1817.0
3378,1243,1813,0,3373.0,3371.0,1241.0,1236.0,1816.0,1816.0
3380,1241,1812,0,3378.0,3373.0,1243.0,1241.0,1813.0,1816.0
3387,1243,1815,0,3380.0,3378.0,1241.0,1243.0,1812.0,1813.0
3394,1240,1815,0,3387.0,3380.0,1243.0,1241.0,1815.0,1812.0
3392,1237,1819,0,3394.0,3387.0,1240.0,1243.0,1815.0,1815.0
3391,1236,1817,0,3392.0,3394.0,1237.0,1240.0,1819.0,1815.0
3388,1237,1817,0,3391.0,3392.0,1236.0,1237.0,1817.0,1819.0
3385,1232,1818,0,3388.0,3391.0,1237.0,1236.0,1817.0,1817.0
3383,1227,1821,0,3385.0,3388.0,1232.0,1237.0,1818.0,1817.0
3380,1220,1822,0,3383.0,3385.0,1227.0,1232.0,1821.0,1818.0
3378,1220,1823,0,3380.0,3383.0,1220.0,1227.0,1822.0,1821.0
3373,1219,1819,0,3378.0,3380.0,1220.0,1220.0,1823.0,1822.0
3369,1218,1821,0,3373.0,3378.0,1219.0,1220.0,1819.0,1823.0
3363,1214,1820,0,3369.0,3373.0,1218.0,1219.0,1821.0,1819.0
3360,1211,1816,0,3363.0,3369.0,1214.0,1218.0,1820.0,1821.0
3357,1208,1818,0,3360.0,3363.0,1211.0,1214.0,1816.0,1820.0
3359,1209,1816,0,3357.0,3360.0,1208.0,1211.0,1818.0,1816.0
3358,1208,1819,0,3359.0,3357.0,1209.0,1208.0,1816.0,1818.0
3355,1211,1819,0,3358.0,3359.0,1208.0,1209.0,1819.0,1816.0
3354,1215,1816,0,3355.0,3358.0,1211.0,1208.0,1819.0,1819.0
3355,1217,1814,0,3354.0,3355.0,1215.0,1211.0,1816.0,1819.0
3352,1223,1811,0,3355.0,3354.0,1217.0,1215.0,1814.0,1816.0
3356,1225,1812,0,3352.0,3355.0,1223.0,1217.0,1811.0,1814.0
3362,1236,1815,0,3356.0,3352.0,1225.0,1223.0,1812.0,1811.0
3367,1237,1814,0,3362.0,3356.0,1236.0,1225.0,1815.0,1812.0
3375,1240,1813,0,3367.0,3362.0,1237.0,1236.0,1814.0,1815.0
3386,1238,1810,0,3375.0,3367.0,1240.0,1237.0,1813.0,1814.0
3392,1241,1809,0,3386.0,3375.0,1238.0,1240.0,1810.0,1813.0
3394,1241,1806,0,3392.0,3386.0,1241.0,1238.0,1809.0,1810.0
3399,1241,1803,0,3394.0,3392.0,1241.0,1241.0,1806.0,1809.0
3407,1238,1800,0,3399.0,3394.0,1241.0,1241.0,1803.0,1806.0
3417,1236,1797,0,3407.0,3399.0,1238.0,1241.0,1800.0,1803.0
3421,1232,1796,0,3417.0,3407.0,1236.0,1238.0,1797.0,1800.0
3423,1230,1797,0,3421.0,3417.0,1232.0,1236.0,1796.0,1797.0
3427,1227,1798,0,3423.0,3421.0,1230.0,1232.0,1797.0,1796.0
3429,1224,1799,0,3427.0,3423.0,1227.0,1230.0,1798.0,1797.0
3428,1225,1800,0,3429.0,3427.0,1224.0,1227.0,1799.0,1798.0
3425,1225,1797,0,3428.0,3429.0,1225.0,1224.0,1800.0,1799.0
3423,1228,1802,0,3425.0,3428.0,1225.0,1225.0,1797.0,1800.0
3418,1228,1808,0,3423.0,3425.0,1228.0,1225.0,1802.0,1797.0
3412,1228,1812,0,3418.0,3423.0,1228.0,1228.0,1808.0,1802.0
3408,1226,1811,0,3412.0,3418.0,1228.0,1228.0,1812.0,1808.0
3400,1225,1808,0,3408.0,3412.0,1226.0,1228.0,1811.0,1812.0
3398,1228,1806,0,3400.0,3408.0,1225.0,1226.0,1808.0,1811.0
3392,1228,1802,0,3398.0,3400.0,1228.0,1225.0,1806.0,1808.0
3388,1232,1807,0,3392.0,3398.0,1228.0,1228.0,1802.0,1806.0
3382,1226,1802,0,3388.0,3392.0,1232.0,1228.0,1807.0,1802.0
3382,1220,1797,0,3382.0,3388.0,1226.0,1232.0,1802.0,1807.0
3383,1219,1795,0,3382.0,3382.0,1220.0,1226.0,1797.0,1802.0
3388,1218,1794,0,3383.0,3382.0,1219.0,1220.0,1795.0,1797.0
3385,1213,1795,0,3388.0,3383.0,1218.0,1219.0,1794.0,1795.0
3389,1211,1794,0,3385.0,3388.0,1213.0,1218.0,1795.0,1794.0
3389,1211,1797,0,3389.0,3385.0,1211.0,1213.0,1794.0,1795.0
3394,1210,1799,0,3389.0,3389.0,1211.0,1211.0,1797.0,1794.0
3396,1215,1801,0,3394.0,3389.0,1210.0,1211.0,1799.0,1797.0
3395,1216,1800,0,3396.0,3394.0,1215.0,1210.0,1801.0,1799.0
3394,1216,1802,0,3395.0,3396.0,1216.0,1215.0,1800.0,1801.0
3391,1216,1804,0,3394.0,3395.0,1216.0,1216.0,1802.0,1800.0
3393,1214,1804,0,3391.0,3394.0,1216.0,1216.0,1804.0,1802.0
3389,1215,1800,0,3393.0,3391.0,1214.0,1216.0,1804.0,1804.0
3382,1217,1798,0,3389.0,3393.0,1215.0,1214.0,1800.0,1804.0
3382,1222,1800,0,3382.0,3389.0,1217.0,1215.0,1798.0,1800.0
3379,1224,1801,0,3382.0,3382.0,1222.0,1217.0,1800.0,1798.0
3378,1221,1800,0,3379.0,3382.0,1224.0,1222.0,1801.0,1800.0
3370,1223,1801,0,3378.0,3379.0,1221.0,1224.0,1800.0,1801.0
3367,1232,1806,0,3370.0,3378.0,1223.0,1221.0,1801.0,1800.0
3366,1235,1804,0,3367.0,3370.0,1232.0,1223.0,1806.0,1801.0
3363,1232,1801,0,3366.0,3367.0,1235.0,1232.0,1804.0,1806.0
3364,1229,1794,0,3363.0,3366.0,1232.0,1235.0,1801.0,1804.0
3370,1224,1788,0,3364.0,3363.0,1229.0,1232.0,1794.0,1801.0
3377,1220,1788,0,3370.0,3364.0,1224.0,1229.0,1788.0,1794.0
3380,1217,1788,0,3377.0,3370.0,1220.0,1224.0,1788.0,1788.0
3392,1214,1787,0,3380.0,3377.0,1217.0,1220.0,1788.0,1788.0
3401,1211,1783,0,3392.0,3380.0,1214.0,1217.0,1787.0,1788.0
3409,1210,1777,0,3401.0,3392.0,1211.0,1214.0,1783.0,1787.0
3417,1209,1776,0,3409.0,3401.0,1210.0,1211.0,1777.0,1783.0
3420,1211,1776,0,3417.0,3409.0,1209.0,1210.0,1776.0,1777.0
3425,1213,1779,0,3420.0,3417.0,1211.0,1209.0,1776.0,1776.0
3425,1220,1782,0,3425.0,3420.0,1213.0,1211.0,1779.0,1776.0
3418,1227,1780,0,3425.0,3425.0,1220.0,1213.0,1782.0,1779.0
3414,1227,1779,0,3418.0,3425.0,1227.0,1220.0,1780.0,1782.0
3410,1232,1781,0,3414.0,3418.0,1227.0,1227.0,1779.0,1780.0
3402,1237,1786,0,3410.0,3414.0,1232.0,1227.0,1781.0,1779.0
3402,1241,1788,0,3402.0,3410.0,1237.0,1232.0,1786.0,1781.0
3399,1244,1787,0,3402.0,3402.0,1241.0,1237.0,1788.0,1786.0
3396,1245,1789,0,3399.0,3402.0,1244.0,1241.0,1787.0,1788.0
3392,1247,1789,0,3396.0,3399.0,1245.0,1244.0,1789.0,1787.0
3387,1246,1790,0,3392.0,3396.0,1247.0,1245.0,1789.0,1789.0
3377,1247,1788,0,3387.0,3392.0,1246.0,1247.0,1790.0,1789.0
3371,1252,1787,0,3377.0,3387.0,1247.0,1246.0,1788.0,1790.0
3363,1255,1786,0,3371.0,3377.0,1252.0,1247.0,1787.0,1788.0
3363,1258,1786,0,3363.0,3371.0,1255.0,1252.0,1786.0,1787.0
3357,1260,1786,0,3363.0,3363.0,1258.0,1255.0,1786.0,1786.0
3356,1262,1789,0,3357.0,3363.0,1260.0,1258.0,1786.0,1786.0
3353,1264,1794,0,3356.0,3357.0,1262.0,1260.0,1789.0,1786.0
3357,1267,1799,0,3353.0,3356.0,1264.0,1262.0,1794.0,1789.0
3362,1271,1804,0,3357.0,3353.0,1267.0,1264.0,1799.0,1794.0
3367,1271,1810,0,3362.0,3357.0,1271.0,1267.0,1804.0,1799.0
3376,1268,1819,0,3367.0,3362.0,1271.0,1271.0,1810.0,1804.0
3382,1267,1822,0,3376.0,3367.0,1268.0,1271.0,1819.0,1810.0
3388,1264,1825,0,3382.0,3376.0,1267.0,1268.0,1822.0,1819.0
3392,1261,1822,0,3388.0,3382.0,1264.0,1267.0,1825.0,1822.0
3398,1257,1815,0,3392.0,3388.0,1261.0,1264.0,1822.0,1825.0
3409,1254,1814,0,3398.0,3392.0,1257.0,1261.0,1815.0,1822.0
3421,1250,1813,0,3409.0,3398.0,1254.0,1257.0,1814.0,1815.0
3430,1247,1817,0,3421.0,3409.0,1250.0,1254.0,1813.0,1814.0
3434,1249,1824,0,3430.0,3421.0,1247.0,1250.0,1817.0,1813.0
3438,1254,1827,0,3434.0,3430.0,1249.0,1247.0,1824.0,1817.0
3437,1256,1826,0,3438.0,3434.0,1254.0,1249.0,1827.0,1824.0
3433,1261,1826,0,3437.0,3438.0,1256.0,1254.0,1826.0,1827.0
3428,1263,1828,0,3433.0,3437.0,1261.0,1256.0,1826.0,1826.0
3426,1260,1823,0,3428.0,3433.0,1263.0,1261.0,1828.0,1826.0
3416,1254,1816,0,3426.0,3428.0,1260.0,1263.0,1823.0,1828.0
3409,1250,1819,0,3416.0,3426.0,1254.0,1260.0,1816.0,1823.0
3397,1245,1818,0,3409.0,3416.0,1250.0,1254.0,1819.0,1816.0
3392,1239,1810,0,3397.0,3409.0,1245.0,1250.0,1818.0,1819.0
3387,1230,1801,0,3392.0,3397.0,1239.0,1245.0,1810.0,1818.0
3384,1227,1798,0,3387.0,3392.0,1230.0,1239.0,1801.0,1810.0
3378,1226,1789,0,3384.0,3387.0,1227.0,1230.0,1798.0,1801.0
3373,1226,1786,0,3378.0,3384.0,1226.0,1227.0,1789.0,1798.0
3366,1232,1780,0,3373.0,3378.0,1226.0,1226.0,1786.0,1789.0
3362,1240,1775,0,3366.0,3373.0,1232.0,1226.0,1780.0,1786.0
3359,1244,1770,0,3362.0,3366.0,1240.0,1232.0,1775.0,1780.0
3363,1246,1762,0,3359.0,3362.0,1244.0,1240.0,1770.0,1775.0
3367,1245,1755,0,3363.0,3359.0,1246.0,1244.0,1762.0,1770.0
3374,1242,1751,0,3367.0,3363.0,1245.0,1246.0,1755.0,1762.0
3382,1240,1745,0,3374.0,3367.0,1242.0,1245.0,1751.0,1755.0
3397,1238,1738,0,3382.0,3374.0,1240.0,1242.0,1745.0,1751.0
3411,1234,1732,0,3397.0,3382.0,1238.0,1240.0,1738.0,1745.0
3423,1234,1733,0,3411.0,3397.0,1234.0,1238.0,1732.0,1738.0
3431,1231,1734,0,3423.0,3411.0,1234.0,1234.0,1733.0,1732.0
3441,1232,1732,0,3431.0,3423.0,1231.0,1234.0,1734.0,1733.0
3443,1234,1732,0,3441.0,3431.0,1232.0,1231.0,1732.0,1734.0
3445,1236,1734,0,3443.0,3441.0,1234.0,1232.0,1732.0,1732.0
3441,1238,1737,0,3445.0,3443.0,1236.0,1234.0,1734.0,1732.0
3440,1242,1741,0,3441.0,3445.0,1238.0,1236.0,1737.0,1734.0
3433,1247,1747,0,3440.0,3441.0,1242.0,1238.0,1741.0,1737.0
3436,1252,1757,0,3433.0,3440.0,1247.0,1242.0,1747.0,1741.0
3436,1255,1761,0,3436.0,3433.0,1252.0,1247.0,1757.0,1747.0
3439,1257,1767,0,3436.0,3436.0,1255.0,1252.0,1761.0,1757.0
3442,1255,1766,0,3439.0,3436.0,1257.0,1255.0,1767.0,1761.0
3445,1252,1765,0,3442.0,3439.0,1255.0,1257.0,1766.0,1767.0
3451,1251,1766,0,3445.0,3442.0,1252.0,1255.0,1765.0,1766.0
3449,1242,1764,0,3451.0,3445.0,1251.0,1252.0,1766.0,1765.0
3445,1239,1762,0,3449.0,3451.0,1242.0,1251.0,1764.0,1766.0
3438,1233,1762,0,3445.0,3449.0,1239.0,1242.0,1762.0,1764.0
3434,1224,1759,0,3438.0,3445.0,1233.0,1239.0,1762.0,1762.0
3427,1213,1758,0,3434.0,3438.0,1224.0,1233.0,1759.0,1762.0
3419,1207,1758,0,3427.0,3434.0,1213.0,1224.0,1758.0,1759.0
3417,1203,1759,0,3419.0,3427.0,1207.0,1213.0,1758.0,1758.0
3412,1196,1761,0,3417.0,3419.0,1203.0,1207.0,1759.0,1758.0
3410,1193,1757,0,3412.0,3417.0,1196.0,1203.0,1761.0,1759.0
3407,1189,1753,0,3410.0,3412.0,1193.0,1196.0,1757.0,1761.0
3404,1189,1754,0,3407.0,3410.0,1189.0,1193.0,1753.0,1757.0
3404,1191,1755,0,3404.0,3407.0,1189.0,1189.0,1754.0,1753.0
3404,1200,1759,0,3404.0,3404.0,1191.0,1189.0,1755.0,1754.0
3406,1211,1759,0,3404.0,3404.0,1200.0,1191.0,1759.0,1755.0
3409,1219,1756,0,3406.0,3404.0,1211.0,1200.0,1759.0,1759.0
3412,1229,1754,0,3409.0,3406.0,1219.0,1211.0,1756.0,1759.0
3416,1235,1752,0,3412.0,3409.0,1229.0,1219.0,1754.0,1756.0
3424,1243,1745,0,3416.0,3412.0,1235.0,1229.0,1752.0,1754.0
3425,1248,1743,0,3424.0,3416.0,1243.0,1235.0,1745.0,1752.0
3422,1253,1743,0,3425.0,3424.0,1248.0,1243.0,1743.0,1745.0
3417,1262,1744,0,3422.0,3425.0,1253.0,1248.0,1743.0,1743.0
3412,1266,1747,0,3417.0,3422.0,1262.0,1253.0,1744.0,1743.0
3411,1273,1749,0,3412.0,3417.0,1266.0,1262.0,1747.0,1744.0
3407,1274,1745,0,3411.0,3412.0,1273.0,1266.0,1749.0,1747.0
3409,1275,1743,0,3407.0,3411.0,1274.0,1273.0,1745.0,1749.0
3408,1275,1740,0,3409.0,3407.0,1275.0,1274.0,1743.0,1745.0
3407,1272,1739,0,3408.0,3409.0,1275.0,1275.0,1740.0,1743.0
3406,1275,1737,0,3407.0,3408.0,1272.0,1275.0,1739.0,1740.0
3403,1278,1734,0,3406.0,3407.0,1275.0,1272.0,1737.0,1739.0
3398,1282,1734,0,3403.0,3406.0,1278.0,1275.0,1734.0,1737.0
3397,1284,1732,0,3398.0,3403.0,1282.0,1278.0,1734.0,1734.0
3397,1285,1731,0,3397.0,3398.0,1284.0,1282.0,1732.0,1734.0
3397,1288,1730,0,3397.0,3397.0,1285.0,1284.0,1731.0,1732.0
3397,1290,1731,0,3397.0,3397.0,1288.0,1285.0,1730.0,1731.0
3397,1290,1729,0,3397.0,3397.0,1290.0,1288.0,1731.0,1730.0
3400,1292,1724,0,3397.0,3397.0,1290.0,1290.0,1729.0,1731.0
3401,1287,1724,0,3400.0,3397.0,1292.0,1290.0,1724.0,1729.0
3403,1285,1730,0,3401.0,3400.0,1287.0,1292.0,1724.0,1724.0
3405,1285,1733,0,3403.0,3401.0,1285.0,1287.0,1730.0,1724.0
3411,1286,1739,0,3405.0,3403.0,1285.0,1285.0,1733.0,1730.0
3410,1284,1742,0,3411.0,3405.0,1286.0,1285.0,1739.0,1733.0
3411,1284,1741,0,3410.0,3411.0,1284.0,1286.0,1742.0,1739.0
