accelerometer_x,accelerometer_y,accelerometer_z,fall,x_lag_1,x_lag_2,y_lag_1,y_lag_2,z_lag_1,z_lag_2
-472,2231,3378,0,,,,,,
-469,2229,3375,0,-472.0,,2231.0,,3378.0,
-468,2226,3375,0,-469.0,-472.0,2229.0,2231.0,3375.0,3378.0
-461,2222,3376,0,-468.0,-469.0,2226.0,2229.0,3375.0,3375.0
-459,2220,3375,0,-461.0,-468.0,2222.0,2226.0,3376.0,3375.0
-449,2218,3375,0,-459.0,-461.0,2220.0,2222.0,3375.0,3376.0
-441,2216,3373,0,-449.0,-459.0,2218.0,2220.0,3375.0,3375.0
-434,2218,3379,0,-441.0,-449.0,2216.0,2218.0,3373.0,3375.0
-427,2219,3380,0,-434.0,-441.0,2218.0,2216.0,3379.0,3373.0
-420,2217,3383,0,-427.0,-434.0,2219.0,2218.0,3380.0,3379.0
-417,2217,3382,0,-420.0,-427.0,2217.0,2219.0,3383.0,3380.0
-418,2220,3383,0,-417.0,-420.0,2217.0,2217.0,3382.0,3383.0
-420,2217,3384,0,-418.0,-417.0,2220.0,2217.0,3383.0,3382.0
-418,2217,3380,0,-420.0,-418.0,2217.0,2220.0,3384.0,3383.0
-417,2216,3383,0,-418.0,-420.0,2217.0,2217.0,3380.0,3384.0
-418,2212,3380,0,-417.0,-418.0,2216.0,2217.0,3383.0,3380.0
-415,2208,3379,0,-418.0,-417.0,2212.0,2216.0,3380.0,3383.0
-414,2208,3378,0,-415.0,-418.0,2208.0,2212.0,3379.0,3380.0
-416,2209,3377,0,-414.0,-415.0,2208.0,2208.0,3378.0,3379.0
-428,2212,3372,0,-416.0,-414.0,2209.0,2208.0,3377.0,3378.0
-436,2213,3366,0,-428.0,-416.0,2212.0,2209.0,3372.0,3377.0
-446,2215,3359,0,-436.0,-428.0,2213.0,2212.0,3366.0,3372.0
-459,2215,3348,0,-446.0,-436.0,2215.0,2213.0,3359.0,3366.0
-470,2214,3342,0,-459.0,-446.0,2215.0,2215.0,3348.0,3359.0
-478,2212,3344,0,-470.0,-459.0,2214.0,2215.0,3342.0,3348.0
-481,2212,3348,0,-478.0,-470.0,2212.0,2214.0,3344.0,3342.0
-480,2215,3352,0,-481.0,-478.0,2212.0,2212.0,3348.0,3344.0
-481,2220,3359,0,-480.0,-481.0,2215.0,2212.0,3352.0,3348.0
-476,2227,3363,0,-481.0,-480.0,2220.0,2215.0,3359.0,3352.0
-470,2232,3368,0,-476.0,-481.0,2227.0,2220.0,3363.0,3359.0
-468,2235,3370,0,-470.0,-476.0,2232.0,2227.0,3368.0,3363.0
-466,2236,3371,0,-468.0,-470.0,2235.0,2232.0,3370.0,3368.0
-464,2239,3371,0,-466.0,-468.0,2236.0,2235.0,3371.0,3370.0
-456,2238,3370,0,-464.0,-466.0,2239.0,2236.0,3371.0,3371.0
-456,2235,3367,0,-456.0,-464.0,2238.0,2239.0,3370.0,3371.0
-456,2234,3367,0,-456.0,-456.0,2235.0,2238.0,3367.0,3370.0
-455,2235,3364,0,-456.0,-456.0,2234.0,2235.0,3367.0,3367.0
-459,2231,3363,0,-455.0,-456.0,2235.0,2234.0,3364.0,3367.0
-458,2225,3362,0,-459.0,-455.0,2231.0,2235.0,3363.0,3364.0
-459,2226,3361,0,-458.0,-459.0,2225.0,2231.0,3362.0,3363.0
-460,2226,3365,0,-459.0,-458.0,2226.0,2225.0,3361.0,3362.0
-464,2221,3366,0,-460.0,-459.0,2226.0,2226.0,3365.0,3361.0
-469,2220,3367,0,-464.0,-460.0,2221.0,2226.0,3366.0,3365.0
-471,2219,3369,0,-469.0,-464.0,2220.0,2221.0,3367.0,3366.0
-472,2221,3370,0,-471.0,-469.0,2219.0,2220.0,3369.0,3367.0
-471,2219,3373,0,-472.0,-471.0,2221.0,2219.0,3370.0,3369.0
-470,2220,3373,0,-471.0,-472.0,2219.0,2221.0,3373.0,3370.0
-470,2219,3373,0,-470.0,-471.0,2220.0,2219.0,3373.0,3373.0
-468,2221,3373,0,-470.0,-470.0,2219.0,2220.0,3373.0,3373.0
-469,2223,3372,0,-468.0,-470.0,2221.0,2219.0,3373.0,3373.0
-468,2226,3370,0,-469.0,-468.0,2223.0,2221.0,3372.0,3373.0
-467,2228,3371,0,-468.0,-469.0,2226.0,2223.0,3370.0,3372.0
-464,2227,3370,0,-467.0,-468.0,2228.0,2226.0,3371.0,3370.0
-464,2228,3372,0,-464.0,-467.0,2227.0,2228.0,3370.0,3371.0
-462,2227,3370,0,-464.0,-464.0,2228.0,2227.0,3372.0,3370.0
-458,2229,3369,0,-462.0,-464.0,2227.0,2228.0,3370.0,3372.0
-458,2228,3370,0,-458.0,-462.0,2229.0,2227.0,3369.0,3370.0
-454,2231,3374,0,-458.0,-458.0,2228.0,2229.0,3370.0,3369.0
-456,2231,3373,0,-454.0,-458.0,2231.0,2228.0,3374.0,3370.0
-457,2231,3369,0,-456.0,-454.0,2231.0,2231.0,3373.0,3374.0
-456,2228,3371,0,-457.0,-456.0,2231.0,2231.0,3369.0,3373.0
-455,2227,3370,0,-456.0,-457.0,2228.0,2231.0,3371.0,3369.0
-457,2225,3371,0,-455.0,-456.0,2227.0,2228.0,3370.0,3371.0
-457,2224,3368,0,-457.0,-455.0,2225.0,2227.0,3371.0,3370.0
-461,2219,3370,0,-457.0,-457.0,2224.0,2225.0,3368.0,3371.0
-463,2218,3369,0,-461.0,-457.0,2219.0,2224.0,3370.0,3368.0
-462,2217,3370,0,-463.0,-461.0,2218.0,2219.0,3369.0,3370.0
-460,2220,3373,0,-462.0,-463.0,2217.0,2218.0,3370.0,3369.0
-461,2219,3374,0,-460.0,-462.0,2220.0,2217.0,3373.0,3370.0
-463,2216,3376,0,-461.0,-460.0,2219.0,2220.0,3374.0,3373.0
-459,2215,3375,0,-463.0,-461.0,2216.0,2219.0,3376.0,3374.0
-456,2214,3381,0,-459.0,-463.0,2215.0,2216.0,3375.0,3376.0
-452,2213,3384,0,-456.0,-459.0,2214.0,2215.0,3381.0,3375.0
-451,2218,3387,0,-452.0,-456.0,2213.0,2214.0,3384.0,3381.0
-451,2220,3387,0,-451.0,-452.0,2218.0,2213.0,3387.0,3384.0
-446,2219,3387,0,-451.0,-451.0,2220.0,2218.0,3387.0,3387.0
-445,2218,3388,0,-446.0,-451.0,2219.0,2220.0,3387.0,3387.0
-441,2215,3391,0,-445.0,-446.0,2218.0,2219.0,3388.0,3387.0
-440,2217,3387,0,-441.0,-445.0,2215.0,2218.0,3391.0,3388.0
-442,2219,3389,0,-440.0,-441.0,2217.0,2215.0,3387.0,3391.0
-440,2222,3385,0,-442.0,-440.0,2219.0,2217.0,3389.0,3387.0
-440,2224,3382,0,-440.0,-442.0,2222.0,2219.0,3385.0,3389.0
-440,2221,3380,0,-440.0,-440.0,2224.0,2222.0,3382.0,3385.0
-440,2220,3378,0,-440.0,-440.0,2221.0,2224.0,3380.0,3382.0
-439,2219,3375,0,-440.0,-440.0,2220.0,2221.0,3378.0,3380.0
-441,2221,3371,0,-439.0,-440.0,2219.0,2220.0,3375.0,3378.0
-444,2221,3371,0,-441.0,-439.0,2221.0,2219.0,3371.0,3375.0
-446,2218,3370,0,-444.0,-441.0,2221.0,2221.0,3371.0,3371.0
-447,2218,3371,0,-446.0,-444.0,2218.0,2221.0,3370.0,3371.0
-451,2219,3370,0,-447.0,-446.0,2218.0,2218.0,3371.0,3370.0
-453,2219,3369,0,-451.0,-447.0,2219.0,2218.0,3370.0,3371.0
-451,2219,3367,0,-453.0,-451.0,2219.0,2219.0,3369.0,3370.0
-453,2221,3365,0,-451.0,-453.0,2219.0,2219.0,3367.0,3369.0
-455,2222,3363,0,-453.0,-451.0,2221.0,2219.0,3365.0,3367.0
-454,2222,3363,0,-455.0,-453.0,2222.0,2221.0,3363.0,3365.0
-457,2221,3363,0,-454.0,-455.0,2222.0,2222.0,3363.0,3363.0
-454,2219,3360,0,-457.0,-454.0,2221.0,2222.0,3363.0,3363.0
-451,2219,3357,0,-454.0,-457.0,2219.0,2221.0,3360.0,3363.0
-453,2217,3357,0,-451.0,-454.0,2219.0,2219.0,3357.0,3360.0
-451,2217,3355,0,-453.0,-451.0,2217.0,2219.0,3357.0,3357.0
-450,2219,3356,0,-451.0,-453.0,2217.0,2217.0,3355.0,3357.0
-450,2216,3355,0,-450.0,-451.0,2219.0,2217.0,3356.0,3355.0
-449,2215,3358,0,-450.0,-450.0,2216.0,2219.0,3355.0,3356.0
-449,2215,3359,0,-449.0,-450.0,2215.0,2216.0,3358.0,3355.0
-449,2215,3360,0,-449.0,-449.0,2215.0,2215.0,3359.0,3358.0
-447,2218,3364,0,-449.0,-449.0,2215.0,2215.0,3360.0,3359.0
-447,2218,3364,0,-447.0,-449.0,2218.0,2215.0,3364.0,3360.0
-451,2218,3365,0,-447.0,-447.0,2218.0,2218.0,3364.0,3364.0
-447,2221,3366,0,-451.0,-447.0,2218.0,2218.0,3365.0,3364.0
-451,2219,3365,0,-447.0,-451.0,2221.0,2218.0,3366.0,3365.0
-457,2223,3366,0,-451.0,-447.0,2219.0,2221.0,3365.0,3366.0
-461,2220,3368,0,-457.0,-451.0,2223.0,2219.0,3366.0,3365.0
-468,2224,3370,0,-461.0,-457.0,2220.0,2223.0,3368.0,3366.0
-468,2225,3372,0,-468.0,-461.0,2224.0,2220.0,3370.0,3368.0
-469,2226,3372,0,-468.0,-468.0,2225.0,2224.0,3372.0,3370.0
-473,2230,3374,0,-469.0,-468.0,2226.0,2225.0,3372.0,3372.0
-475,2229,3374,0,-473.0,-469.0,2230.0,2226.0,3374.0,3372.0
-476,2231,3376,0,-475.0,-473.0,2229.0,2230.0,3374.0,3374.0
-479,2236,3377,0,-476.0,-475.0,2231.0,2229.0,3376.0,3374.0
-481,2236,3377,0,-479.0,-476.0,2236.0,2231.0,3377.0,3376.0
-478,2242,3376,0,-481.0,-479.0,2236.0,2236.0,3377.0,3377.0
-473,2247,3378,0,-478.0,-481.0,2242.0,2236.0,3376.0,3377.0
-468,2244,3377,0,-473.0,-478.0,2247.0,2242.0,3378.0,3376.0
-466,2244,3375,0,-468.0,-473.0,2244.0,2247.0,3377.0,3378.0
-466,2243,3372,0,-466.0,-468.0,2244.0,2244.0,3375.0,3377.0
-462,2241,3373,0,-466.0,-466.0,2243.0,2244.0,3372.0,3375.0
-462,2239,3371,0,-462.0,-466.0,2241.0,2243.0,3373.0,3372.0
-462,2238,3374,0,-462.0,-462.0,2239.0,2241.0,3371.0,3373.0
-455,2236,3375,0,-462.0,-462.0,2238.0,2239.0,3374.0,3371.0
-456,2234,3377,0,-455.0,-462.0,2236.0,2238.0,3375.0,3374.0
-457,2234,3375,0,-456.0,-455.0,2234.0,2236.0,3377.0,3375.0
-459,2236,3371,0,-457.0,-456.0,2234.0,2234.0,3375.0,3377.0
-457,2231,3372,0,-459.0,-457.0,2236.0,2234.0,3371.0,3375.0
-458,2229,3372,0,-457.0,-459.0,2231.0,2236.0,3372.0,3371.0
-457,2227,3371,0,-458.0,-457.0,2229.0,2231.0,3372.0,3372.0
-456,2224,3371,0,-457.0,-458.0,2227.0,2229.0,3371.0,3372.0
-454,2222,3371,0,-456.0,-457.0,2224.0,2227.0,3371.0,3371.0
-454,2219,3370,0,-454.0,-456.0,2222.0,2224.0,3371.0,3371.0
-454,2214,3368,0,-454.0,-454.0,2219.0,2222.0,3370.0,3371.0
-451,2213,3367,0,-454.0,-454.0,2214.0,2219.0,3368.0,3370.0
-450,2209,3371,0,-451.0,-454.0,2213.0,2214.0,3367.0,3368.0
-454,2211,3371,0,-450.0,-451.0,2209.0,2213.0,3371.0,3367.0
-459,2213,3373,0,-454.0,-450.0,2211.0,2209.0,3371.0,3371.0
-462,2213,3378,0,-459.0,-454.0,2213.0,2211.0,3373.0,3371.0
-467,2215,3379,0,-462.0,-459.0,2213.0,2213.0,3378.0,3373.0
-468,2218,3379,0,-467.0,-462.0,2215.0,2213.0,3379.0,3378.0
-470,2215,3377,0,-468.0,-467.0,2218.0,2215.0,3379.0,3379.0
-474,2216,3381,0,-470.0,-468.0,2215.0,2218.0,3377.0,3379.0
-474,2213,3381,0,-474.0,-470.0,2216.0,2215.0,3381.0,3377.0
-470,2214,3377,0,-474.0,-474.0,2213.0,2216.0,3381.0,3381.0
-469,2212,3373,0,-470.0,-474.0,2214.0,2213.0,3377.0,3381.0
-469,2210,3370,0,-469.0,-470.0,2212.0,2214.0,3373.0,3377.0
-461,2209,3371,0,-469.0,-469.0,2210.0,2212.0,3370.0,3373.0
-453,2205,3370,0,-461.0,-469.0,2209.0,2210.0,3371.0,3370.0
-445,2204,3372,0,-453.0,-461.0,2205.0,2209.0,3370.0,3371.0
-440,2202,3374,0,-445.0,-453.0,2204.0,2205.0,3372.0,3370.0
-435,2203,3377,0,-440.0,-445.0,2202.0,2204.0,3374.0,3372.0
-433,2206,3384,0,-435.0,-440.0,2203.0,2202.0,3377.0,3374.0
-427,2210,3387,0,-433.0,-435.0,2206.0,2203.0,3384.0,3377.0
-423,2214,3389,0,-427.0,-433.0,2210.0,2206.0,3387.0,3384.0
-423,2217,3388,0,-423.0,-427.0,2214.0,2210.0,3389.0,3387.0
-422,2218,3391,0,-423.0,-423.0,2217.0,2214.0,3388.0,3389.0
-421,2219,3391,0,-422.0,-423.0,2218.0,2217.0,3391.0,3388.0
-419,2216,3386,0,-421.0,-422.0,2219.0,2218.0,3391.0,3391.0
-416,2211,3383,0,-419.0,-421.0,2216.0,2219.0,3386.0,3391.0
-415,2204,3381,0,-416.0,-419.0,2211.0,2216.0,3383.0,3386.0
-414,2205,3379,0,-415.0,-416.0,2204.0,2211.0,3381.0,3383.0
-417,2207,3376,0,-414.0,-415.0,2205.0,2204.0,3379.0,3381.0
-425,2210,3369,0,-417.0,-414.0,2207.0,2205.0,3376.0,3379.0
-435,2213,3364,0,-425.0,-417.0,2210.0,2207.0,3369.0,3376.0
-447,2217,3355,0,-435.0,-425.0,2213.0,2210.0,3364.0,3369.0
-458,2216,3350,0,-447.0,-435.0,2217.0,2213.0,3355.0,3364.0
-470,2213,3348,0,-458.0,-447.0,2216.0,2217.0,3350.0,3355.0
-475,2214,3347,0,-470.0,-458.0,2213.0,2216.0,3348.0,3350.0
-476,2215,3352,0,-475.0,-470.0,2214.0,2213.0,3347.0,3348.0
-475,2218,3358,0,-476.0,-475.0,2215.0,2214.0,3352.0,3347.0
-473,2223,3362,0,-475.0,-476.0,2218.0,2215.0,3358.0,3352.0
-473,2227,3366,0,-473.0,-475.0,2223.0,2218.0,3362.0,3358.0
-468,2229,3370,0,-473.0,-473.0,2227.0,2223.0,3366.0,3362.0
-465,2234,3373,0,-468.0,-473.0,2229.0,2227.0,3370.0,3366.0
-464,2235,3374,0,-465.0,-468.0,2234.0,2229.0,3373.0,3370.0
-462,2238,3376,0,-464.0,-465.0,2235.0,2234.0,3374.0,3373.0
-457,2235,3377,0,-462.0,-464.0,2238.0,2235.0,3376.0,3374.0
-459,2236,3376,0,-457.0,-462.0,2235.0,2238.0,3377.0,3376.0
-461,2237,3373,0,-459.0,-457.0,2236.0,2235.0,3376.0,3377.0
-459,2236,3373,0,-461.0,-459.0,2237.0,2236.0,3373.0,3376.0
-462,2232,3370,0,-459.0,-461.0,2236.0,2237.0,3373.0,3373.0
-465,2235,3375,0,-462.0,-459.0,2232.0,2236.0,3370.0,3373.0
-467,2235,3373,0,-465.0,-462.0,2235.0,2232.0,3375.0,3370.0
-472,2229,3372,0,-467.0,-465.0,2235.0,2235.0,3373.0,3375.0
-474,2230,3369,0,-472.0,-467.0,2229.0,2235.0,3372.0,3373.0
-478,2230,3373,0,-474.0,-472.0,2230.0,2229.0,3369.0,3372.0
-477,2229,3369,0,-478.0,-474.0,2230.0,2230.0,3373.0,3369.0
-478,2226,3369,0,-477.0,-478.0,2229.0,2230.0,3369.0,3373.0
-475,2224,3368,0,-478.0,-477.0,2226.0,2229.0,3369.0,3369.0
-473,2223,3370,0,-475.0,-478.0,2224.0,2226.0,3368.0,3369.0
-473,2219,3366,0,-473.0,-475.0,2223.0,2224.0,3370.0,3368.0
-469,2220,3368,0,-473.0,-473.0,2219.0,2223.0,3366.0,3370.0
-466,2224,3365,0,-469.0,-473.0,2220.0,2219.0,3368.0,3366.0
-462,2222,3367,0,-466.0,-469.0,2224.0,2220.0,3365.0,3368.0
-460,2222,3368,0,-462.0,-466.0,2222.0,2224.0,3367.0,3365.0
-458,2221,3368,0,-460.0,-462.0,2222.0,2222.0,3368.0,3367.0
-455,2229,3367,0,-458.0,-460.0,2221.0,2222.0,3368.0,3368.0
-452,2232,3368,0,-455.0,-458.0,2229.0,2221.0,3367.0,3368.0
-452,2228,3371,0,-452.0,-455.0,2232.0,2229.0,3368.0,3367.0
-454,2225,3371,0,-452.0,-452.0,2228.0,2232.0,3371.0,3368.0
-454,2224,3371,0,-454.0,-452.0,2225.0,2228.0,3371.0,3371.0
-453,2221,3371,0,-454.0,-454.0,2224.0,2225.0,3371.0,3371.0
-456,2221,3370,0,-453.0,-454.0,2221.0,2224.0,3371.0,3371.0
-458,2222,3372,0,-456.0,-453.0,2221.0,2221.0,3370.0,3371.0
-459,2225,3375,0,-458.0,-456.0,2222.0,2221.0,3372.0,3370.0
-462,2220,3375,0,-459.0,-458.0,2225.0,2222.0,3375.0,3372.0
-460,2220,3373,0,-462.0,-459.0,2220.0,2225.0,3375.0,3375.0
-462,2220,3371,0,-460.0,-462.0,2220.0,2220.0,3373.0,3375.0
-466,2219,3370,0,-462.0,-460.0,2220.0,2220.0,3371.0,3373.0
-461,2220,3373,0,-466.0,-462.0,2219.0,2220.0,3370.0,3371.0
-464,2218,3373,0,-461.0,-466.0,2220.0,2219.0,3373.0,3370.0
-464,2215,3373,0,-464.0,-461.0,2218.0,2220.0,3373.0,3373.0
-466,2216,3375,0,-464.0,-464.0,2215.0,2218.0,3373.0,3373.0
-462,2219,3376,0,-466.0,-464.0,2216.0,2215.0,3375.0,3373.0
-461,2218,3380,0,-462.0,-466.0,2219.0,2216.0,3376.0,3375.0
-456,2218,3384,0,-461.0,-462.0,2218.0,2219.0,3380.0,3376.0
-452,2218,3383,0,-456.0,-461.0,2218.0,2218.0,3384.0,3380.0
-448,2220,3382,0,-452.0,-456.0,2218.0,2218.0,3383.0,3384.0
-446,2219,3382,0,-448.0,-452.0,2220.0,2218.0,3382.0,3383.0
-443,2217,3388,0,-446.0,-448.0,2219.0,2220.0,3382.0,3382.0
-442,2219,3388,0,-443.0,-446.0,2217.0,2219.0,3388.0,3382.0
-441,2217,3391,0,-442.0,-443.0,2219.0,2217.0,3388.0,3388.0
-438,2217,3384,0,-441.0,-442.0,2217.0,2219.0,3391.0,3388.0
-432,2215,3383,0,-438.0,-441.0,2217.0,2217.0,3384.0,3391.0
-431,2212,3381,0,-432.0,-438.0,2215.0,2217.0,3383.0,3384.0
-434,2214,3379,0,-431.0,-432.0,2212.0,2215.0,3381.0,3383.0
-434,2214,3379,0,-434.0,-431.0,2214.0,2212.0,3379.0,3381.0
-436,2215,3376,0,-434.0,-434.0,2214.0,2214.0,3379.0,3379.0
-440,2212,3372,0,-436.0,-434.0,2215.0,2214.0,3376.0,3379.0
-443,2213,3368,0,-440.0,-436.0,2212.0,2215.0,3372.0,3376.0
-445,2211,3369,0,-443.0,-440.0,2213.0,2212.0,3368.0,3372.0
-445,2213,3369,0,-445.0,-443.0,2211.0,2213.0,3369.0,3368.0
-449,2215,3367,0,-445.0,-445.0,2213.0,2211.0,3369.0,3369.0
-453,2210,3368,0,-449.0,-445.0,2215.0,2213.0,3367.0,3369.0
-454,2210,3367,0,-453.0,-449.0,2210.0,2215.0,3368.0,3367.0
-458,2210,3366,0,-454.0,-453.0,2210.0,2210.0,3367.0,3368.0
-459,2210,3368,0,-458.0,-454.0,2210.0,2210.0,3366.0,3367.0
-458,2211,3367,0,-459.0,-458.0,2210.0,2210.0,3368.0,3366.0
-458,2212,3366,0,-458.0,-459.0,2211.0,2210.0,3367.0,3368.0
-456,2209,3364,0,-458.0,-458.0,2212.0,2211.0,3366.0,3367.0
-458,2210,3364,0,-456.0,-458.0,2209.0,2212.0,3364.0,3366.0
-455,2213,3360,0,-458.0,-456.0,2210.0,2209.0,3364.0,3364.0
-451,2212,3362,0,-455.0,-458.0,2213.0,2210.0,3360.0,3364.0
-449,2215,3365,0,-451.0,-455.0,2212.0,2213.0,3362.0,3360.0
-448,2217,3362,0,-449.0,-451.0,2215.0,2212.0,3365.0,3362.0
-447,2214,3361,0,-448.0,-449.0,2217.0,2215.0,3362.0,3365.0
-449,2214,3365,0,-447.0,-448.0,2214.0,2217.0,3361.0,3362.0
-451,2213,3366,0,-449.0,-447.0,2214.0,2214.0,3365.0,3361.0
-446,2213,3368,0,-451.0,-449.0,2213.0,2214.0,3366.0,3365.0
-446,2209,3370,0,-446.0,-451.0,2213.0,2213.0,3368.0,3366.0
-448,2210,3370,0,-446.0,-446.0,2209.0,2213.0,3370.0,3368.0
-449,2212,3372,0,-448.0,-446.0,2210.0,2209.0,3370.0,3370.0
-454,2212,3374,0,-449.0,-448.0,2212.0,2210.0,3372.0,3370.0
-458,2215,3379,0,-454.0,-449.0,2212.0,2212.0,3374.0,3372.0
-460,2216,3378,0,-458.0,-454.0,2215.0,2212.0,3379.0,3374.0
-463,2219,3378,0,-460.0,-458.0,2216.0,2215.0,3378.0,3379.0
-467,2220,3374,0,-463.0,-460.0,2219.0,2216.0,3378.0,3378.0
-474,2220,3376,0,-467.0,-463.0,2220.0,2219.0,3374.0,3378.0
-475,2227,3377,0,-474.0,-467.0,2220.0,2220.0,3376.0,3374.0
-473,2228,3374,0,-475.0,-474.0,2227.0,2220.0,3377.0,3376.0
-474,2231,3374,0,-473.0,-475.0,2228.0,2227.0,3374.0,3377.0
-470,2231,3374,0,-474.0,-473.0,2231.0,2228.0,3374.0,3374.0
-470,2238,3376,0,-470.0,-474.0,2231.0,2231.0,3374.0,3374.0
-468,2237,3377,0,-470.0,-470.0,2238.0,2231.0,3376.0,3374.0
-468,2238,3376,0,-468.0,-470.0,2237.0,2238.0,3377.0,3376.0
-465,2241,3378,0,-468.0,-468.0,2238.0,2237.0,3376.0,3377.0
-466,2239,3375,0,-465.0,-468.0,2241.0,2238.0,3378.0,3376.0
-463,2237,3376,0,-466.0,-465.0,2239.0,2241.0,3375.0,3378.0
-460,2236,3373,0,-463.0,-466.0,2237.0,2239.0,3376.0,3375.0
-455,2232,3380,0,-460.0,-463.0,2236.0,2237.0,3373.0,3376.0
-458,2231,3377,0,-455.0,-460.0,2232.0,2236.0,3380.0,3373.0
-457,2229,3376,0,-458.0,-455.0,2231.0,2232.0,3377.0,3380.0
-461,2232,3374,0,-457.0,-458.0,2229.0,2231.0,3376.0,3377.0
-457,2233,3373,0,-461.0,-457.0,2232.0,2229.0,3374.0,3376.0
-459,2233,3375,0,-457.0,-461.0,2233.0,2232.0,3373.0,3374.0
-462,2233,3375,0,-459.0,-457.0,2233.0,2233.0,3375.0,3373.0
-463,2234,3375,0,-462.0,-459.0,2233.0,2233.0,3375.0,3375.0
-460,2232,3373,0,-463.0,-462.0,2234.0,2233.0,3375.0,3375.0
-457,2228,3374,0,-460.0,-463.0,2232.0,2234.0,3373.0,3375.0
-459,2225,3373,0,-457.0,-460.0,2228.0,2232.0,3374.0,3373.0
-456,2225,3371,0,-459.0,-457.0,2225.0,2228.0,3373.0,3374.0
-455,2226,3370,0,-456.0,-459.0,2225.0,2225.0,3371.0,3373.0
-453,2224,3370,0,-455.0,-456.0,2226.0,2225.0,3370.0,3371.0
-454,2224,3372,0,-453.0,-455.0,2224.0,2226.0,3370.0,3370.0
-451,2221,3374,0,-454.0,-453.0,2224.0,2224.0,3372.0,3370.0
-449,2221,3374,0,-451.0,-454.0,2221.0,2224.0,3374.0,3372.0
-446,2218,3369,0,-449.0,-451.0,2221.0,2221.0,3374.0,3374.0
-446,2215,3366,0,-446.0,-449.0,2218.0,2221.0,3369.0,3374.0
-452,2213,3368,0,-446.0,-446.0,2215.0,2218.0,3366.0,3369.0
-457,2214,3369,0,-452.0,-446.0,2213.0,2215.0,3368.0,3366.0
-457,2213,3373,0,-457.0,-452.0,2214.0,2213.0,3369.0,3368.0
-460,2210,3376,0,-457.0,-457.0,2213.0,2214.0,3373.0,3369.0
-465,2211,3375,0,-460.0,-457.0,2210.0,2213.0,3376.0,3373.0
-471,2210,3374,0,-465.0,-460.0,2211.0,2210.0,3375.0,3376.0
-472,2211,3376,0,-471.0,-465.0,2210.0,2211.0,3374.0,3375.0
-470,2209,3378,0,-472.0,-471.0,2211.0,2210.0,3376.0,3374.0
-471,2210,3375,0,-470.0,-472.0,2209.0,2211.0,3378.0,3376.0
-470,2207,3376,0,-471.0,-470.0,2210.0,2209.0,3375.0,3378.0
-468,2202,3373,0,-470.0,-471.0,2207.0,2210.0,3376.0,3375.0
-465,2204,3370,0,-468.0,-470.0,2202.0,2207.0,3373.0,3376.0
-461,2201,3371,0,-465.0,-468.0,2204.0,2202.0,3370.0,3373.0
-452,2206,3373,0,-461.0,-465.0,2201.0,2204.0,3371.0,3370.0
-442,2204,3373,0,-452.0,-461.0,2206.0,2201.0,3373.0,3371.0
-432,2207,3373,0,-442.0,-452.0,2204.0,2206.0,3373.0,3373.0
-420,2210,3378,0,-432.0,-442.0,2207.0,2204.0,3373.0,3373.0
-411,2213,3383,0,-420.0,-432.0,2210.0,2207.0,3378.0,3373.0
-403,2216,3383,0,-411.0,-420.0,2213.0,2210.0,3383.0,3378.0
-399,2219,3385,0,-403.0,-411.0,2216.0,2213.0,3383.0,3383.0
-396,2223,3388,0,-399.0,-403.0,2219.0,2216.0,3385.0,3383.0
-393,2225,3387,0,-396.0,-399.0,2223.0,2219.0,3388.0,3385.0
-392,2223,3389,0,-393.0,-396.0,2225.0,2223.0,3387.0,3388.0
-390,2219,3388,0,-392.0,-393.0,2223.0,2225.0,3389.0,3387.0
-395,2216,3383,0,-390.0,-392.0,2219.0,2223.0,3388.0,3389.0
-399,2215,3383,0,-395.0,-390.0,2216.0,2219.0,3383.0,3388.0
-405,2214,3378,0,-399.0,-395.0,2215.0,2216.0,3383.0,3383.0
-413,2217,3373,0,-405.0,-399.0,2214.0,2215.0,3378.0,3383.0
-428,2218,3365,0,-413.0,-405.0,2217.0,2214.0,3373.0,3378.0
-441,2220,3362,0,-428.0,-413.0,2218.0,2217.0,3365.0,3373.0
-456,2221,3359,0,-441.0,-428.0,2220.0,2218.0,3362.0,3365.0
-469,2219,3357,0,-456.0,-441.0,2221.0,2220.0,3359.0,3362.0
-483,2219,3356,0,-469.0,-456.0,2219.0,2221.0,3357.0,3359.0
-495,2216,3357,0,-483.0,-469.0,2219.0,2219.0,3356.0,3357.0
-496,2216,3362,0,-495.0,-483.0,2216.0,2219.0,3357.0,3356.0
-495,2216,3366,0,-496.0,-495.0,2216.0,2216.0,3362.0,3357.0
-492,2222,3371,0,-495.0,-496.0,2216.0,2216.0,3366.0,3362.0
-488,2222,3373,0,-492.0,-495.0,2222.0,2216.0,3371.0,3366.0
-485,2225,3375,0,-488.0,-492.0,2222.0,2222.0,3373.0,3371.0
-479,2227,3376,0,-485.0,-488.0,2225.0,2222.0,3375.0,3373.0
-476,2234,3375,0,-479.0,-485.0,2227.0,2225.0,3376.0,3375.0
-470,2234,3379,0,-476.0,-479.0,2234.0,2227.0,3375.0,3376.0
-463,2233,3382,0,-470.0,-476.0,2234.0,2234.0,3379.0,3375.0
-460,2234,3378,0,-463.0,-470.0,2233.0,2234.0,3382.0,3379.0
-456,2232,3375,0,-460.0,-463.0,2234.0,2233.0,3378.0,3382.0
-455,2230,3374,0,-456.0,-460.0,2232.0,2234.0,3375.0,3378.0
-448,2232,3372,0,-455.0,-456.0,2230.0,2232.0,3374.0,3375.0
-449,2231,3370,0,-448.0,-455.0,2232.0,2230.0,3372.0,3374.0
-451,2232,3368,0,-449.0,-448.0,2231.0,2232.0,3370.0,3372.0
-454,2231,3369,0,-451.0,-449.0,2232.0,2231.0,3368.0,3370.0
-454,2230,3370,0,-454.0,-451.0,2231.0,2232.0,3369.0,3368.0
-456,2228,3370,0,-454.0,-454.0,2230.0,2231.0,3370.0,3369.0
-457,2228,3368,0,-456.0,-454.0,2228.0,2230.0,3370.0,3370.0
-463,2227,3369,0,-457.0,-456.0,2228.0,2228.0,3368.0,3370.0
-465,2221,3367,0,-463.0,-457.0,2227.0,2228.0,3369.0,3368.0
-467,2222,3367,0,-465.0,-463.0,2221.0,2227.0,3367.0,3369.0
-470,2224,3367,0,-467.0,-465.0,2222.0,2221.0,3367.0,3367.0
-469,2226,3363,0,-470.0,-467.0,2224.0,2222.0,3367.0,3367.0
-468,2226,3364,0,-469.0,-470.0,2226.0,2224.0,3363.0,3367.0
-464,2229,3365,0,-468.0,-469.0,2226.0,2226.0,3364.0,3363.0
-462,2229,3365,0,-464.0,-468.0,2229.0,2226.0,3365.0,3364.0
-460,2229,3363,0,-462.0,-464.0,2229.0,2229.0,3365.0,3365.0
-456,2230,3361,0,-460.0,-462.0,2229.0,2229.0,3363.0,3365.0
-451,2231,3359,0,-456.0,-460.0,2230.0,2229.0,3361.0,3363.0
-452,2230,3362,0,-451.0,-456.0,2231.0,2230.0,3359.0,3361.0
-450,2231,3365,0,-452.0,-451.0,2230.0,2231.0,3362.0,3359.0
-451,2230,3365,0,-450.0,-452.0,2231.0,2230.0,3365.0,3362.0
-453,2230,3367,0,-451.0,-450.0,2230.0,2231.0,3365.0,3365.0
-448,2230,3367,0,-453.0,-451.0,2230.0,2230.0,3367.0,3365.0
-450,2224,3368,0,-448.0,-453.0,2230.0,2230.0,3367.0,3367.0
-449,2227,3369,0,-450.0,-448.0,2224.0,2230.0,3368.0,3367.0
-447,2224,3371,0,-449.0,-450.0,2227.0,2224.0,3369.0,3368.0
-449,2225,3374,0,-447.0,-449.0,2224.0,2227.0,3371.0,3369.0
-453,2226,3372,0,-449.0,-447.0,2225.0,2224.0,3374.0,3371.0
-451,2226,3374,0,-453.0,-449.0,2226.0,2225.0,3372.0,3374.0
-450,2225,3375,0,-451.0,-453.0,2226.0,2226.0,3374.0,3372.0
-445,2225,3374,0,-450.0,-451.0,2225.0,2226.0,3375.0,3374.0
-447,2222,3375,0,-445.0,-450.0,2225.0,2225.0,3374.0,3375.0
-445,2221,3376,0,-447.0,-445.0,2222.0,2225.0,3375.0,3374.0
-443,2222,3381,0,-445.0,-447.0,2221.0,2222.0,3376.0,3375.0
-440,2224,3380,0,-443.0,-445.0,2222.0,2221.0,3381.0,3376.0
-439,2224,3385,0,-440.0,-443.0,2224.0,2222.0,3380.0,3381.0
-435,2221,3381,0,-439.0,-440.0,2224.0,2224.0,3385.0,3380.0
-432,2220,3384,0,-435.0,-439.0,2221.0,2224.0,3381.0,3385.0
-428,2220,3387,0,-432.0,-435.0,2220.0,2221.0,3384.0,3381.0
-425,2219,3385,0,-428.0,-432.0,2220.0,2220.0,3387.0,3384.0
-425,2219,3382,0,-425.0,-428.0,2219.0,2220.0,3385.0,3387.0
-423,2223,3383,0,-425.0,-425.0,2219.0,2219.0,3382.0,3385.0
-419,2220,3380,0,-423.0,-425.0,2223.0,2219.0,3383.0,3382.0
-421,2220,3379,0,-419.0,-423.0,2220.0,2223.0,3380.0,3383.0
-422,2221,3377,0,-421.0,-419.0,2220.0,2220.0,3379.0,3380.0
-423,2218,3375,0,-422.0,-421.0,2221.0,2220.0,3377.0,3379.0
-419,2220,3372,0,-423.0,-422.0,2218.0,2221.0,3375.0,3377.0
-427,2217,3368,0,-419.0,-423.0,2220.0,2218.0,3372.0,3375.0
-434,2216,3368,0,-427.0,-419.0,2217.0,2220.0,3368.0,3372.0
-439,2217,3369,0,-434.0,-427.0,2216.0,2217.0,3368.0,3368.0
-439,2217,3368,0,-439.0,-434.0,2217.0,2216.0,3369.0,3368.0
-442,2212,3369,0,-439.0,-439.0,2217.0,2217.0,3368.0,3369.0
-446,2215,3369,0,-442.0,-439.0,2212.0,2217.0,3369.0,3368.0
-448,2214,3367,0,-446.0,-442.0,2215.0,2212.0,3369.0,3369.0
-450,2218,3365,0,-448.0,-446.0,2214.0,2215.0,3367.0,3369.0
-452,2219,3365,0,-450.0,-448.0,2218.0,2214.0,3365.0,3367.0
-455,2218,3366,0,-452.0,-450.0,2219.0,2218.0,3365.0,3365.0
-453,2219,3366,0,-455.0,-452.0,2218.0,2219.0,3366.0,3365.0
-451,2217,3366,0,-453.0,-455.0,2219.0,2218.0,3366.0,3366.0
-453,2219,3366,0,-451.0,-453.0,2217.0,2219.0,3366.0,3366.0
-452,2219,3363,0,-453.0,-451.0,2219.0,2217.0,3366.0,3366.0
-451,2219,3363,0,-452.0,-453.0,2219.0,2219.0,3363.0,3366.0
-449,2218,3365,0,-451.0,-452.0,2219.0,2219.0,3363.0,3363.0
-442,2220,3366,0,-449.0,-451.0,2218.0,2219.0,3365.0,3363.0
-443,2218,3367,0,-442.0,-449.0,2220.0,2218.0,3366.0,3365.0
-446,2220,3365,0,-443.0,-442.0,2218.0,2220.0,3367.0,3366.0
-448,2218,3368,0,-446.0,-443.0,2220.0,2218.0,3365.0,3367.0
-449,2216,3369,0,-448.0,-446.0,2218.0,2220.0,3368.0,3365.0
-449,2221,3373,0,-449.0,-448.0,2216.0,2218.0,3369.0,3368.0
-447,2223,3374,0,-449.0,-449.0,2221.0,2216.0,3373.0,3369.0
-449,2217,3375,0,-447.0,-449.0,2223.0,2221.0,3374.0,3373.0
-452,2221,3374,0,-449.0,-447.0,2217.0,2223.0,3375.0,3374.0
-455,2220,3377,0,-452.0,-449.0,2221.0,2217.0,3374.0,3375.0
-458,2220,3376,0,-455.0,-452.0,2220.0,2221.0,3377.0,3374.0
-458,2224,3374,0,-458.0,-455.0,2220.0,2220.0,3376.0,3377.0
-460,2224,3377,0,-458.0,-458.0,2224.0,2220.0,3374.0,3376.0
-464,2224,3377,0,-460.0,-458.0,2224.0,2224.0,3377.0,3374.0
-465,2226,3376,0,-464.0,-460.0,2224.0,2224.0,3377.0,3377.0
-467,2228,3376,0,-465.0,-464.0,2226.0,2224.0,3376.0,3377.0
-467,2230,3375,0,-467.0,-465.0,2228.0,2226.0,3376.0,3376.0
-466,2230,3376,0,-467.0,-467.0,2230.0,2228.0,3375.0,3376.0
-467,2235,3375,0,-466.0,-467.0,2230.0,2230.0,3376.0,3375.0
-467,2232,3375,0,-467.0,-466.0,2235.0,2230.0,3375.0,3376.0
-464,2231,3374,0,-467.0,-467.0,2232.0,2235.0,3375.0,3375.0
-460,2231,3374,0,-464.0,-467.0,2231.0,2232.0,3374.0,3375.0
-459,2234,3373,0,-460.0,-464.0,2231.0,2231.0,3374.0,3374.0
-456,2237,3373,0,-459.0,-460.0,2234.0,2231.0,3373.0,3374.0
-456,2239,3376,0,-456.0,-459.0,2237.0,2234.0,3373.0,3373.0
-458,2236,3376,0,-456.0,-456.0,2239.0,2237.0,3376.0,3373.0
-459,2238,3374,0,-458.0,-456.0,2236.0,2239.0,3376.0,3376.0
-457,2234,3373,0,-459.0,-458.0,2238.0,2236.0,3374.0,3376.0
-457,2234,3374,0,-457.0,-459.0,2234.0,2238.0,3373.0,3374.0
-456,2233,3373,0,-457.0,-457.0,2234.0,2234.0,3374.0,3373.0
-455,2231,3373,0,-456.0,-457.0,2233.0,2234.0,3373.0,3374.0
-455,2230,3374,0,-455.0,-456.0,2231.0,2233.0,3373.0,3373.0
-461,2230,3372,0,-455.0,-455.0,2230.0,2231.0,3374.0,3373.0
-458,2225,3372,0,-461.0,-455.0,2230.0,2230.0,3372.0,3374.0
-458,2222,3373,0,-458.0,-461.0,2225.0,2230.0,3372.0,3372.0
-459,2223,3373,0,-458.0,-458.0,2222.0,2225.0,3373.0,3372.0
-461,2220,3373,0,-459.0,-458.0,2223.0,2222.0,3373.0,3373.0
-460,2215,3371,0,-461.0,-459.0,2220.0,2223.0,3373.0,3373.0
-459,2214,3372,0,-460.0,-461.0,2215.0,2220.0,3371.0,3373.0
-463,2214,3375,0,-459.0,-460.0,2214.0,2215.0,3372.0,3371.0
-458,2212,3375,0,-463.0,-459.0,2214.0,2214.0,3375.0,3372.0
-460,2212,3374,0,-458.0,-463.0,2212.0,2214.0,3375.0,3375.0
-455,2211,3373,0,-460.0,-458.0,2212.0,2212.0,3374.0,3375.0
-458,2212,3374,0,-455.0,-460.0,2211.0,2212.0,3373.0,3374.0
-457,2212,3373,0,-458.0,-455.0,2212.0,2211.0,3374.0,3373.0
-452,2212,3373,0,-457.0,-458.0,2212.0,2212.0,3373.0,3374.0
-453,2215,3372,0,-452.0,-457.0,2212.0,2212.0,3373.0,3373.0
-452,2214,3371,0,-453.0,-452.0,2215.0,2212.0,3372.0,3373.0
-453,2213,3372,0,-452.0,-453.0,2214.0,2215.0,3371.0,3372.0
-454,2208,3375,0,-453.0,-452.0,2213.0,2214.0,3372.0,3371.0
-460,2210,3373,0,-454.0,-453.0,2208.0,2213.0,3375.0,3372.0
-464,2212,3374,0,-460.0,-454.0,2210.0,2208.0,3373.0,3375.0
-463,2211,3374,0,-464.0,-460.0,2212.0,2210.0,3374.0,3373.0
-462,2210,3372,0,-463.0,-464.0,2211.0,2212.0,3374.0,3374.0
-459,2207,3371,0,-462.0,-463.0,2210.0,2211.0,3372.0,3374.0
-459,2208,3371,0,-459.0,-462.0,2207.0,2210.0,3371.0,3372.0
-454,2205,3371,0,-459.0,-459.0,2208.0,2207.0,3371.0,3371.0
-448,2207,3370,0,-454.0,-459.0,2205.0,2208.0,3371.0,3371.0
-440,2204,3371,0,-448.0,-454.0,2207.0,2205.0,3370.0,3371.0
-435,2208,3374,0,-440.0,-448.0,2204.0,2207.0,3371.0,3370.0
-425,2208,3374,0,-435.0,-440.0,2208.0,2204.0,3374.0,3371.0
-419,2213,3379,0,-425.0,-435.0,2208.0,2208.0,3374.0,3374.0
-413,2220,3386,0,-419.0,-425.0,2213.0,2208.0,3379.0,3374.0
-406,2225,3388,0,-413.0,-419.0,2220.0,2213.0,3386.0,3379.0
-403,2226,3387,0,-406.0,-413.0,2225.0,2220.0,3388.0,3386.0
-402,2235,3390,0,-403.0,-406.0,2226.0,2225.0,3387.0,3388.0
-400,2236,3392,0,-402.0,-403.0,2235.0,2226.0,3390.0,3387.0
-399,2233,3388,0,-400.0,-402.0,2236.0,2235.0,3392.0,3390.0
-399,2224,3384,0,-399.0,-400.0,2233.0,2236.0,3388.0,3392.0
-402,2216,3381,0,-399.0,-399.0,2224.0,2233.0,3384.0,3388.0
-408,2213,3380,0,-402.0,-399.0,2216.0,2224.0,3381.0,3384.0
-417,2216,3378,0,-408.0,-402.0,2213.0,2216.0,3380.0,3381.0
-424,2215,3374,0,-417.0,-408.0,2216.0,2213.0,3378.0,3380.0
-435,2217,3370,0,-424.0,-417.0,2215.0,2216.0,3374.0,3378.0
-449,2221,3360,0,-435.0,-424.0,2217.0,2215.0,3370.0,3374.0
-463,2217,3359,0,-449.0,-435.0,2221.0,2217.0,3360.0,3370.0
-472,2218,3357,0,-463.0,-449.0,2217.0,2221.0,3359.0,3360.0
-475,2216,3356,0,-472.0,-463.0,2218.0,2217.0,3357.0,3359.0
-484,2214,3354,0,-475.0,-472.0,2216.0,2218.0,3356.0,3357.0
-487,2215,3359,0,-484.0,-475.0,2214.0,2216.0,3354.0,3356.0
-486,2221,3364,0,-487.0,-484.0,2215.0,2214.0,3359.0,3354.0
-485,2223,3368,0,-486.0,-487.0,2221.0,2215.0,3364.0,3359.0
-479,2227,3371,0,-485.0,-486.0,2223.0,2221.0,3368.0,3364.0
-474,2228,3376,0,-479.0,-485.0,2227.0,2223.0,3371.0,3368.0
-472,2234,3376,0,-474.0,-479.0,2228.0,2227.0,3376.0,3371.0
-470,2235,3378,0,-472.0,-474.0,2234.0,2228.0,3376.0,3376.0
-462,2234,3379,0,-470.0,-472.0,2235.0,2234.0,3378.0,3376.0
-461,2235,3379,0,-462.0,-470.0,2234.0,2235.0,3379.0,3378.0
-459,2236,3376,0,-461.0,-462.0,2235.0,2234.0,3379.0,3379.0
-458,2235,3373,0,-459.0,-461.0,2236.0,2235.0,3376.0,3379.0
-460,2237,3371,0,-458.0,-459.0,2235.0,2236.0,3373.0,3376.0
-465,2234,3367,0,-460.0,-458.0,2237.0,2235.0,3371.0,3373.0
-469,2233,3368,0,-465.0,-460.0,2234.0,2237.0,3367.0,3371.0
-467,2231,3366,0,-469.0,-465.0,2233.0,2234.0,3368.0,3367.0
-469,2229,3368,0,-467.0,-469.0,2231.0,2233.0,3366.0,3368.0
-468,2228,3368,0,-469.0,-467.0,2229.0,2231.0,3368.0,3366.0
-471,2226,3367,0,-468.0,-469.0,2228.0,2229.0,3368.0,3368.0
-472,2227,3374,0,-471.0,-468.0,2226.0,2228.0,3367.0,3368.0
-471,2224,3373,0,-472.0,-471.0,2227.0,2226.0,3374.0,3367.0
-472,2221,3372,0,-471.0,-472.0,2224.0,2227.0,3373.0,3374.0
-472,2223,3370,0,-472.0,-471.0,2221.0,2224.0,3372.0,3373.0
-474,2223,3368,0,-472.0,-472.0,2223.0,2221.0,3370.0,3372.0
-473,2227,3368,0,-474.0,-472.0,2223.0,2223.0,3368.0,3370.0
-466,2228,3367,0,-473.0,-474.0,2227.0,2223.0,3368.0,3368.0
-465,2231,3366,0,-466.0,-473.0,2228.0,2227.0,3367.0,3368.0
-466,2233,3364,0,-465.0,-466.0,2231.0,2228.0,3366.0,3367.0
-465,2229,3367,0,-466.0,-465.0,2233.0,2231.0,3364.0,3366.0
-461,2232,3368,0,-465.0,-466.0,2229.0,2233.0,3367.0,3364.0
-457,2235,3369,0,-461.0,-465.0,2232.0,2229.0,3368.0,3367.0
-454,2235,3369,0,-457.0,-461.0,2235.0,2232.0,3369.0,3368.0
-451,2228,3370,0,-454.0,-457.0,2235.0,2235.0,3369.0,3369.0
-449,2229,3370,0,-451.0,-454.0,2228.0,2235.0,3370.0,3369.0
-450,2227,3372,0,-449.0,-451.0,2229.0,2228.0,3370.0,3370.0
-447,2222,3377,0,-450.0,-449.0,2227.0,2229.0,3372.0,3370.0
-447,2224,3376,0,-447.0,-450.0,2222.0,2227.0,3377.0,3372.0
-449,2222,3374,0,-447.0,-447.0,2224.0,2222.0,3376.0,3377.0
-446,2221,3373,0,-449.0,-447.0,2222.0,2224.0,3374.0,3376.0
-447,2222,3374,0,-446.0,-449.0,2221.0,2222.0,3373.0,3374.0
-449,2223,3374,0,-447.0,-446.0,2222.0,2221.0,3374.0,3373.0
-449,2220,3374,0,-449.0,-447.0,2223.0,2222.0,3374.0,3374.0
-450,2219,3373,0,-449.0,-449.0,2220.0,2223.0,3374.0,3374.0
-447,2215,3372,0,-450.0,-449.0,2219.0,2220.0,3373.0,3374.0
-449,2215,3372,0,-447.0,-450.0,2215.0,2219.0,3372.0,3373.0
-450,2211,3374,0,-449.0,-447.0,2215.0,2215.0,3372.0,3372.0
-450,2213,3377,0,-450.0,-449.0,2211.0,2215.0,3374.0,3372.0
-449,2214,3379,0,-450.0,-450.0,2213.0,2211.0,3377.0,3374.0
-446,2219,3383,0,-449.0,-450.0,2214.0,2213.0,3379.0,3377.0
-443,2217,3386,0,-446.0,-449.0,2219.0,2214.0,3383.0,3379.0
-443,2220,3388,0,-443.0,-446.0,2217.0,2219.0,3386.0,3383.0
-443,2218,3386,0,-443.0,-443.0,2220.0,2217.0,3388.0,3386.0
-442,2218,3385,0,-443.0,-443.0,2218.0,2220.0,3386.0,3388.0
-438,2218,3383,0,-442.0,-443.0,2218.0,2218.0,3385.0,3386.0
-438,2219,3384,0,-438.0,-442.0,2218.0,2218.0,3383.0,3385.0
-434,2217,3380,0,-438.0,-438.0,2219.0,2218.0,3384.0,3383.0
-436,2215,3378,0,-434.0,-438.0,2217.0,2219.0,3380.0,3384.0
-436,2215,3379,0,-436.0,-434.0,2215.0,2217.0,3378.0,3380.0
-434,2214,3375,0,-436.0,-436.0,2215.0,2215.0,3379.0,3378.0
-435,2210,3376,0,-434.0,-436.0,2214.0,2215.0,3375.0,3379.0
-434,2208,3375,0,-435.0,-434.0,2210.0,2214.0,3376.0,3375.0
-434,2207,3371,0,-434.0,-435.0,2208.0,2210.0,3375.0,3376.0
-440,2208,3370,0,-434.0,-434.0,2207.0,2208.0,3371.0,3375.0
-443,2208,3365,0,-440.0,-434.0,2208.0,2207.0,3370.0,3371.0
-447,2210,3369,0,-443.0,-440.0,2208.0,2208.0,3365.0,3370.0
-446,2210,3369,0,-447.0,-443.0,2210.0,2208.0,3369.0,3365.0
-445,2210,3369,0,-446.0,-447.0,2210.0,2210.0,3369.0,3369.0
-447,2208,3368,0,-445.0,-446.0,2210.0,2210.0,3369.0,3369.0
-449,2208,3369,0,-447.0,-445.0,2208.0,2210.0,3368.0,3369.0
-453,2208,3370,0,-449.0,-447.0,2208.0,2208.0,3369.0,3368.0
-454,2208,3370,0,-453.0,-449.0,2208.0,2208.0,3370.0,3369.0
-455,2208,3370,0,-454.0,-453.0,2208.0,2208.0,3370.0,3370.0
-454,2207,3368,0,-455.0,-454.0,2208.0,2208.0,3370.0,3370.0
-455,2211,3367,0,-454.0,-455.0,2207.0,2208.0,3368.0,3370.0
-457,2214,3368,0,-455.0,-454.0,2211.0,2207.0,3367.0,3368.0
-457,2213,3371,0,-457.0,-455.0,2214.0,2211.0,3368.0,3367.0
-455,2214,3373,0,-457.0,-457.0,2213.0,2214.0,3371.0,3368.0
-457,2213,3373,0,-455.0,-457.0,2214.0,2213.0,3373.0,3371.0
-453,2213,3373,0,-457.0,-455.0,2213.0,2214.0,3373.0,3373.0
-453,2213,3374,0,-453.0,-457.0,2213.0,2213.0,3373.0,3373.0
-456,2216,3374,0,-453.0,-453.0,2213.0,2213.0,3374.0,3373.0
-456,2219,3374,0,-456.0,-453.0,2216.0,2213.0,3374.0,3374.0
-457,2219,3377,0,-456.0,-456.0,2219.0,2216.0,3374.0,3374.0
-458,2221,3377,0,-457.0,-456.0,2219.0,2219.0,3377.0,3374.0
-462,2221,3379,0,-458.0,-457.0,2221.0,2219.0,3377.0,3377.0
-465,2223,3375,0,-462.0,-458.0,2221.0,2221.0,3379.0,3377.0
-470,2220,3374,0,-465.0,-462.0,2223.0,2221.0,3375.0,3379.0
-472,2221,3374,0,-470.0,-465.0,2220.0,2223.0,3374.0,3375.0
-470,2222,3376,0,-472.0,-470.0,2221.0,2220.0,3374.0,3374.0
-466,2219,3374,0,-470.0,-472.0,2222.0,2221.0,3376.0,3374.0
-469,2222,3374,0,-466.0,-470.0,2219.0,2222.0,3374.0,3376.0
-472,2225,3372,0,-469.0,-466.0,2222.0,2219.0,3374.0,3374.0
-472,2224,3373,0,-472.0,-469.0,2225.0,2222.0,3372.0,3374.0
-471,2231,3378,0,-472.0,-472.0,2224.0,2225.0,3373.0,3372.0
-472,2231,3374,0,-471.0,-472.0,2231.0,2224.0,3378.0,3373.0
-470,2230,3374,0,-472.0,-471.0,2231.0,2231.0,3374.0,3378.0
-472,2232,3375,0,-470.0,-472.0,2230.0,2231.0,3374.0,3374.0
-470,2231,3376,0,-472.0,-470.0,2232.0,2230.0,3375.0,3374.0
-470,2229,3375,0,-470.0,-472.0,2231.0,2232.0,3376.0,3375.0
-466,2231,3377,0,-470.0,-470.0,2229.0,2231.0,3375.0,3376.0
-463,2232,3375,0,-466.0,-470.0,2231.0,2229.0,3377.0,3375.0
-463,2226,3375,0,-463.0,-466.0,2232.0,2231.0,3375.0,3377.0
-459,2226,3373,0,-463.0,-463.0,2226.0,2232.0,3375.0,3375.0
-458,2226,3373,0,-459.0,-463.0,2226.0,2226.0,3373.0,3375.0
-458,2225,3371,0,-458.0,-459.0,2226.0,2226.0,3373.0,3373.0
-457,2226,3370,0,-458.0,-458.0,2225.0,2226.0,3371.0,3373.0
-456,2225,3371,0,-457.0,-458.0,2226.0,2225.0,3370.0,3371.0
-459,2230,3371,0,-456.0,-457.0,2225.0,2226.0,3371.0,3370.0
-459,2228,3368,0,-459.0,-456.0,2230.0,2225.0,3371.0,3371.0
-461,2225,3369,0,-459.0,-459.0,2228.0,2230.0,3368.0,3371.0
-461,2225,3370,0,-461.0,-459.0,2225.0,2228.0,3369.0,3368.0
-459,2228,3371,0,-461.0,-461.0,2225.0,2225.0,3370.0,3369.0
-459,2225,3371,0,-459.0,-461.0,2228.0,2225.0,3371.0,3370.0
-462,2230,3371,0,-459.0,-459.0,2225.0,2228.0,3371.0,3371.0
-462,2227,3369,0,-462.0,-459.0,2230.0,2225.0,3371.0,3371.0
-459,2228,3370,0,-462.0,-462.0,2227.0,2230.0,3369.0,3371.0
-459,2223,3369,0,-459.0,-462.0,2228.0,2227.0,3370.0,3369.0
-458,2223,3367,0,-459.0,-459.0,2223.0,2228.0,3369.0,3370.0
-457,2219,3368,0,-458.0,-459.0,2223.0,2223.0,3367.0,3369.0
-455,2219,3371,0,-457.0,-458.0,2219.0,2223.0,3368.0,3367.0
-454,2219,3373,0,-455.0,-457.0,2219.0,2219.0,3371.0,3368.0
-457,2219,3372,0,-454.0,-455.0,2219.0,2219.0,3373.0,3371.0
-457,2217,3372,0,-457.0,-454.0,2219.0,2219.0,3372.0,3373.0
-454,2219,3371,0,-457.0,-457.0,2217.0,2219.0,3372.0,3372.0
-448,2216,3374,0,-454.0,-457.0,2219.0,2217.0,3371.0,3372.0
-450,2213,3374,0,-448.0,-454.0,2216.0,2219.0,3374.0,3371.0
-449,2212,3370,0,-450.0,-448.0,2213.0,2216.0,3374.0,3374.0
-448,2209,3372,0,-449.0,-450.0,2212.0,2213.0,3370.0,3374.0
-448,2209,3374,0,-448.0,-449.0,2209.0,2212.0,3372.0,3370.0
-445,2208,3375,0,-448.0,-448.0,2209.0,2209.0,3374.0,3372.0
-444,2208,3373,0,-445.0,-448.0,2208.0,2209.0,3375.0,3374.0
-444,2208,3373,0,-444.0,-445.0,2208.0,2208.0,3373.0,3375.0
-445,2209,3375,0,-444.0,-444.0,2208.0,2208.0,3373.0,3373.0
-451,2210,3376,0,-445.0,-444.0,2209.0,2208.0,3375.0,3373.0
-454,2212,3380,0,-451.0,-445.0,2210.0,2209.0,3376.0,3375.0
-459,2212,3381,0,-454.0,-451.0,2212.0,2210.0,3380.0,3376.0
-460,2214,3382,0,-459.0,-454.0,2212.0,2212.0,3381.0,3380.0
-463,2215,3383,0,-460.0,-459.0,2214.0,2212.0,3382.0,3381.0
-466,2215,3383,0,-463.0,-460.0,2215.0,2214.0,3383.0,3382.0
-464,2216,3381,0,-466.0,-463.0,2215.0,2215.0,3383.0,3383.0
-467,2217,3379,0,-464.0,-466.0,2216.0,2215.0,3381.0,3383.0
-464,2214,3378,0,-467.0,-464.0,2217.0,2216.0,3379.0,3381.0
-461,2214,3374,0,-464.0,-467.0,2214.0,2217.0,3378.0,3379.0
-456,2211,3372,0,-461.0,-464.0,2214.0,2214.0,3374.0,3378.0
-452,2207,3372,0,-456.0,-461.0,2211.0,2214.0,3372.0,3374.0
-443,2210,3371,0,-452.0,-456.0,2207.0,2211.0,3372.0,3372.0
-437,2209,3375,0,-443.0,-452.0,2210.0,2207.0,3371.0,3372.0
-435,2211,3379,0,-437.0,-443.0,2209.0,2210.0,3375.0,3371.0
-428,2217,3385,0,-435.0,-437.0,2211.0,2209.0,3379.0,3375.0
-424,2221,3386,0,-428.0,-435.0,2217.0,2211.0,3385.0,3379.0
-423,2222,3384,0,-424.0,-428.0,2221.0,2217.0,3386.0,3385.0
-424,2221,3387,0,-423.0,-424.0,2222.0,2221.0,3384.0,3386.0
-420,2224,3391,0,-424.0,-423.0,2221.0,2222.0,3387.0,3384.0
-423,2225,3387,0,-420.0,-424.0,2224.0,2221.0,3391.0,3387.0
-425,2221,3387,0,-423.0,-420.0,2225.0,2224.0,3387.0,3391.0
-425,2216,3380,0,-425.0,-423.0,2221.0,2225.0,3387.0,3387.0
-429,2213,3375,0,-425.0,-425.0,2216.0,2221.0,3380.0,3387.0
-432,2213,3374,0,-429.0,-425.0,2213.0,2216.0,3375.0,3380.0
-437,2211,3372,0,-432.0,-429.0,2213.0,2213.0,3374.0,3375.0
-444,2215,3365,0,-437.0,-432.0,2211.0,2213.0,3372.0,3374.0
-454,2217,3362,0,-444.0,-437.0,2215.0,2211.0,3365.0,3372.0
-464,2219,3357,0,-454.0,-444.0,2217.0,2215.0,3362.0,3365.0
-476,2218,3350,0,-464.0,-454.0,2219.0,2217.0,3357.0,3362.0
-483,2212,3350,0,-476.0,-464.0,2218.0,2219.0,3350.0,3357.0
-487,2210,3352,0,-483.0,-476.0,2212.0,2218.0,3350.0,3350.0
-488,2211,3358,0,-487.0,-483.0,2210.0,2212.0,3352.0,3350.0
-488,2218,3364,0,-488.0,-487.0,2211.0,2210.0,3358.0,3352.0
-487,2222,3366,0,-488.0,-488.0,2218.0,2211.0,3364.0,3358.0
-484,2226,3370,0,-487.0,-488.0,2222.0,2218.0,3366.0,3364.0
-480,2229,3374,0,-484.0,-487.0,2226.0,2222.0,3370.0,3366.0
-475,2232,3376,0,-480.0,-484.0,2229.0,2226.0,3374.0,3370.0
-468,2236,3379,0,-475.0,-480.0,2232.0,2229.0,3376.0,3374.0
-468,2239,3379,0,-468.0,-475.0,2236.0,2232.0,3379.0,3376.0
-467,2239,3376,0,-468.0,-468.0,2239.0,2236.0,3379.0,3379.0
-466,2238,3376,0,-467.0,-468.0,2239.0,2239.0,3376.0,3379.0
-471,2241,3374,0,-466.0,-467.0,2238.0,2239.0,3376.0,3376.0
-470,2232,3374,0,-471.0,-466.0,2241.0,2238.0,3374.0,3376.0
-471,2229,3377,0,-470.0,-471.0,2232.0,2241.0,3374.0,3374.0
-476,2228,3374,0,-471.0,-470.0,2229.0,2232.0,3377.0,3374.0
-477,2229,3374,0,-476.0,-471.0,2228.0,2229.0,3374.0,3377.0
-476,2228,3375,0,-477.0,-476.0,2229.0,2228.0,3374.0,3374.0
-478,2225,3374,0,-476.0,-477.0,2228.0,2229.0,3375.0,3374.0
-480,2226,3373,0,-478.0,-476.0,2225.0,2228.0,3374.0,3375.0
-475,2224,3373,0,-480.0,-478.0,2226.0,2225.0,3373.0,3374.0
-476,2222,3374,0,-475.0,-480.0,2224.0,2226.0,3373.0,3373.0
-476,2220,3374,0,-476.0,-475.0,2222.0,2224.0,3374.0,3373.0
-472,2221,3374,0,-476.0,-476.0,2220.0,2222.0,3374.0,3374.0
-470,2219,3372,0,-472.0,-476.0,2221.0,2220.0,3374.0,3374.0
-468,2223,3373,0,-470.0,-472.0,2219.0,2221.0,3372.0,3374.0
-463,2221,3371,0,-468.0,-470.0,2223.0,2219.0,3373.0,3372.0
-460,2223,3368,0,-463.0,-468.0,2221.0,2223.0,3371.0,3373.0
-460,2222,3369,0,-460.0,-463.0,2223.0,2221.0,3368.0,3371.0
-458,2224,3369,0,-460.0,-460.0,2222.0,2223.0,3369.0,3368.0
-456,2226,3368,0,-458.0,-460.0,2224.0,2222.0,3369.0,3369.0
-456,2227,3367,0,-456.0,-458.0,2226.0,2224.0,3368.0,3369.0
-449,2226,3365,0,-456.0,-456.0,2227.0,2226.0,3367.0,3368.0
-448,2221,3367,0,-449.0,-456.0,2226.0,2227.0,3365.0,3367.0
-449,2220,3368,0,-448.0,-449.0,2221.0,2226.0,3367.0,3365.0
-448,2215,3367,0,-449.0,-448.0,2220.0,2221.0,3368.0,3367.0
-444,2213,3368,0,-448.0,-449.0,2215.0,2220.0,3367.0,3368.0
-446,2213,3370,0,-444.0,-448.0,2213.0,2215.0,3368.0,3367.0
-446,2213,3371,0,-446.0,-444.0,2213.0,2213.0,3370.0,3368.0
-448,2215,3368,0,-446.0,-446.0,2213.0,2213.0,3371.0,3370.0
-449,2215,3369,0,-448.0,-446.0,2215.0,2213.0,3368.0,3371.0
-449,2212,3372,0,-449.0,-448.0,2215.0,2215.0,3369.0,3368.0
-449,2210,3371,0,-449.0,-449.0,2212.0,2215.0,3372.0,3369.0
-446,2212,3370,0,-449.0,-449.0,2210.0,2212.0,3371.0,3372.0
-448,2210,3372,0,-446.0,-449.0,2212.0,2210.0,3370.0,3371.0
-448,2210,3373,0,-448.0,-446.0,2210.0,2212.0,3372.0,3370.0
-448,2208,3374,0,-448.0,-448.0,2210.0,2210.0,3373.0,3372.0
-449,2210,3375,0,-448.0,-448.0,2208.0,2210.0,3374.0,3373.0
-452,2212,3377,0,-449.0,-448.0,2210.0,2208.0,3375.0,3374.0
-449,2212,3377,0,-452.0,-449.0,2212.0,2210.0,3377.0,3375.0
-445,2214,3378,0,-449.0,-452.0,2212.0,2212.0,3377.0,3377.0
-445,2217,3378,0,-445.0,-449.0,2214.0,2212.0,3378.0,3377.0
-444,2213,3379,0,-445.0,-445.0,2217.0,2214.0,3378.0,3378.0
-438,2215,3380,0,-444.0,-445.0,2213.0,2217.0,3379.0,3378.0
-436,2211,3381,0,-438.0,-444.0,2215.0,2213.0,3380.0,3379.0
-436,2213,3380,0,-436.0,-438.0,2211.0,2215.0,3381.0,3380.0
-436,2211,3380,0,-436.0,-436.0,2213.0,2211.0,3380.0,3381.0
-437,2211,3379,0,-436.0,-436.0,2211.0,2213.0,3380.0,3380.0
-434,2210,3378,0,-437.0,-436.0,2211.0,2211.0,3379.0,3380.0
-437,2211,3374,0,-434.0,-437.0,2210.0,2211.0,3378.0,3379.0
-435,2215,3374,0,-437.0,-434.0,2211.0,2210.0,3374.0,3378.0
-439,2215,3372,0,-435.0,-437.0,2215.0,2211.0,3374.0,3374.0
-440,2216,3374,0,-439.0,-435.0,2215.0,2215.0,3372.0,3374.0
-446,2217,3374,0,-440.0,-439.0,2216.0,2215.0,3374.0,3372.0
-448,2219,3371,0,-446.0,-440.0,2217.0,2216.0,3374.0,3374.0
-452,2218,3371,0,-448.0,-446.0,2219.0,2217.0,3371.0,3374.0
-452,2218,3370,0,-452.0,-448.0,2218.0,2219.0,3371.0,3371.0
-456,2216,3372,0,-452.0,-452.0,2218.0,2218.0,3370.0,3371.0
-457,2217,3372,0,-456.0,-452.0,2216.0,2218.0,3372.0,3370.0
-457,2218,3371,0,-457.0,-456.0,2217.0,2216.0,3372.0,3372.0
-458,2218,3370,0,-457.0,-457.0,2218.0,2217.0,3371.0,3372.0
-455,2220,3371,0,-458.0,-457.0,2218.0,2218.0,3370.0,3371.0
-455,2220,3371,0,-455.0,-458.0,2220.0,2218.0,3371.0,3370.0
-457,2221,3370,0,-455.0,-455.0,2220.0,2220.0,3371.0,3371.0
-458,2221,3373,0,-457.0,-455.0,2221.0,2220.0,3370.0,3371.0
-462,2222,3369,0,-458.0,-457.0,2221.0,2221.0,3373.0,3370.0
-460,2225,3366,0,-462.0,-458.0,2222.0,2221.0,3369.0,3373.0
-457,2223,3366,0,-460.0,-462.0,2225.0,2222.0,3366.0,3369.0
-456,2224,3364,0,-457.0,-460.0,2223.0,2225.0,3366.0,3366.0
-452,2224,3363,0,-456.0,-457.0,2224.0,2223.0,3364.0,3366.0
-455,2224,3360,0,-452.0,-456.0,2224.0,2224.0,3363.0,3364.0
-457,2226,3362,0,-455.0,-452.0,2224.0,2224.0,3360.0,3363.0
-457,2224,3365,0,-457.0,-455.0,2226.0,2224.0,3362.0,3360.0
-456,2222,3367,0,-457.0,-457.0,2224.0,2226.0,3365.0,3362.0
-461,2224,3369,0,-456.0,-457.0,2222.0,2224.0,3367.0,3365.0
-462,2222,3371,0,-461.0,-456.0,2224.0,2222.0,3369.0,3367.0
-463,2225,3371,0,-462.0,-461.0,2222.0,2224.0,3371.0,3369.0
-466,2222,3369,0,-463.0,-462.0,2225.0,2222.0,3371.0,3371.0
-467,2221,3370,0,-466.0,-463.0,2222.0,2225.0,3369.0,3371.0
-473,2223,3371,0,-467.0,-466.0,2221.0,2222.0,3370.0,3369.0
-475,2226,3377,0,-473.0,-467.0,2223.0,2221.0,3371.0,3370.0
-475,2225,3375,0,-475.0,-473.0,2226.0,2223.0,3377.0,3371.0
-475,2227,3373,0,-475.0,-475.0,2225.0,2226.0,3375.0,3377.0
-477,2229,3375,0,-475.0,-475.0,2227.0,2225.0,3373.0,3375.0
-475,2231,3372,0,-477.0,-475.0,2229.0,2227.0,3375.0,3373.0
-471,2232,3373,0,-475.0,-477.0,2231.0,2229.0,3372.0,3375.0
-469,2234,3373,0,-471.0,-475.0,2232.0,2231.0,3373.0,3372.0
-470,2237,3375,0,-469.0,-471.0,2234.0,2232.0,3373.0,3373.0
-470,2240,3374,0,-470.0,-469.0,2237.0,2234.0,3375.0,3373.0
-468,2237,3372,0,-470.0,-470.0,2240.0,2237.0,3374.0,3375.0
-460,2237,3373,0,-468.0,-470.0,2237.0,2240.0,3372.0,3374.0
-457,2239,3372,0,-460.0,-468.0,2237.0,2237.0,3373.0,3372.0
-454,2241,3370,0,-457.0,-460.0,2239.0,2237.0,3372.0,3373.0
-452,2240,3371,0,-454.0,-457.0,2241.0,2239.0,3370.0,3372.0
-453,2238,3372,0,-452.0,-454.0,2240.0,2241.0,3371.0,3370.0
-450,2233,3373,0,-453.0,-452.0,2238.0,2240.0,3372.0,3371.0
-448,2231,3371,0,-450.0,-453.0,2233.0,2238.0,3373.0,3372.0
-452,2227,3370,0,-448.0,-450.0,2231.0,2233.0,3371.0,3373.0
-455,2222,3370,0,-452.0,-448.0,2227.0,2231.0,3370.0,3371.0
-455,2222,3372,0,-455.0,-452.0,2222.0,2227.0,3370.0,3370.0
-451,2221,3370,0,-455.0,-455.0,2222.0,2222.0,3372.0,3370.0
-452,2221,3371,0,-451.0,-455.0,2221.0,2222.0,3370.0,3372.0
-453,2218,3370,0,-452.0,-451.0,2221.0,2221.0,3371.0,3370.0
-457,2219,3372,0,-453.0,-452.0,2218.0,2221.0,3370.0,3371.0
-457,2214,3372,0,-457.0,-453.0,2219.0,2218.0,3372.0,3370.0
-459,2216,3372,0,-457.0,-457.0,2214.0,2219.0,3372.0,3372.0
-456,2216,3371,0,-459.0,-457.0,2216.0,2214.0,3372.0,3372.0
-456,2219,3369,0,-456.0,-459.0,2216.0,2216.0,3371.0,3372.0
-455,2216,3370,0,-456.0,-456.0,2219.0,2216.0,3369.0,3371.0
-456,2218,3370,0,-455.0,-456.0,2216.0,2219.0,3370.0,3369.0
-454,2218,3369,0,-456.0,-455.0,2218.0,2216.0,3370.0,3370.0
-451,2214,3370,0,-454.0,-456.0,2218.0,2218.0,3369.0,3370.0
-449,2214,3370,0,-451.0,-454.0,2214.0,2218.0,3370.0,3369.0
-448,2219,3374,0,-449.0,-451.0,2214.0,2214.0,3370.0,3370.0
-446,2221,3372,0,-448.0,-449.0,2219.0,2214.0,3374.0,3370.0
-446,2217,3373,0,-446.0,-448.0,2221.0,2219.0,3372.0,3374.0
-448,2217,3372,0,-446.0,-446.0,2217.0,2221.0,3373.0,3372.0
-447,2216,3372,0,-448.0,-446.0,2217.0,2217.0,3372.0,3373.0
-449,2215,3373,0,-447.0,-448.0,2216.0,2217.0,3372.0,3372.0
-451,2215,3373,0,-449.0,-447.0,2215.0,2216.0,3373.0,3372.0
-450,2214,3374,0,-451.0,-449.0,2215.0,2215.0,3373.0,3373.0
-457,2212,3373,0,-450.0,-451.0,2214.0,2215.0,3374.0,3373.0
-454,2211,3374,0,-457.0,-450.0,2212.0,2214.0,3373.0,3374.0
-454,2209,3377,0,-454.0,-457.0,2211.0,2212.0,3374.0,3373.0
-454,2209,3374,0,-454.0,-454.0,2209.0,2211.0,3377.0,3374.0
-452,2212,3376,0,-454.0,-454.0,2209.0,2209.0,3374.0,3377.0
-454,2217,3377,0,-452.0,-454.0,2212.0,2209.0,3376.0,3374.0
-452,2213,3376,0,-454.0,-452.0,2217.0,2212.0,3377.0,3376.0
-451,2215,3375,0,-452.0,-454.0,2213.0,2217.0,3376.0,3377.0
-450,2214,3374,0,-451.0,-452.0,2215.0,2213.0,3375.0,3376.0
-449,2212,3375,0,-450.0,-451.0,2214.0,2215.0,3374.0,3375.0
-447,2209,3373,0,-449.0,-450.0,2212.0,2214.0,3375.0,3374.0
-448,2212,3374,0,-447.0,-449.0,2209.0,2212.0,3373.0,3375.0
-449,2211,3374,0,-448.0,-447.0,2212.0,2209.0,3374.0,3373.0
-449,2215,3375,0,-449.0,-448.0,2211.0,2212.0,3374.0,3374.0
-452,2217,3372,0,-449.0,-449.0,2215.0,2211.0,3375.0,3374.0
-456,2219,3371,0,-452.0,-449.0,2217.0,2215.0,3372.0,3375.0
-460,2221,3377,0,-456.0,-452.0,2219.0,2217.0,3371.0,3372.0
-461,2221,3379,0,-460.0,-456.0,2221.0,2219.0,3377.0,3371.0
-465,2219,3384,0,-461.0,-460.0,2221.0,2221.0,3379.0,3377.0
-468,2216,3380,0,-465.0,-461.0,2219.0,2221.0,3384.0,3379.0
-475,2221,3377,0,-468.0,-465.0,2216.0,2219.0,3380.0,3384.0
-473,2219,3376,0,-475.0,-468.0,2221.0,2216.0,3377.0,3380.0
-476,2219,3375,0,-473.0,-475.0,2219.0,2221.0,3376.0,3377.0
-473,2218,3369,0,-476.0,-473.0,2219.0,2219.0,3375.0,3376.0
-469,2214,3367,0,-473.0,-476.0,2218.0,2219.0,3369.0,3375.0
-462,2214,3366,0,-469.0,-473.0,2214.0,2218.0,3367.0,3369.0
-456,2213,3365,0,-462.0,-469.0,2214.0,2214.0,3366.0,3367.0
-451,2214,3368,0,-456.0,-462.0,2213.0,2214.0,3365.0,3366.0
-442,2214,3371,0,-451.0,-456.0,2214.0,2213.0,3368.0,3365.0
-437,2217,3378,0,-442.0,-451.0,2214.0,2214.0,3371.0,3368.0
-429,2223,3386,0,-437.0,-442.0,2217.0,2214.0,3378.0,3371.0
-425,2225,3389,0,-429.0,-437.0,2223.0,2217.0,3386.0,3378.0
-423,2225,3388,0,-425.0,-429.0,2225.0,2223.0,3389.0,3386.0
-423,2228,3389,0,-423.0,-425.0,2225.0,2225.0,3388.0,3389.0
-428,2227,3388,0,-423.0,-423.0,2228.0,2225.0,3389.0,3388.0
-429,2227,3388,0,-428.0,-423.0,2227.0,2228.0,3388.0,3389.0
-428,2222,3382,0,-429.0,-428.0,2227.0,2227.0,3388.0,3388.0
-429,2212,3379,0,-428.0,-429.0,2222.0,2227.0,3382.0,3388.0
-431,2211,3378,0,-429.0,-428.0,2212.0,2222.0,3379.0,3382.0
-434,2213,3374,0,-431.0,-429.0,2211.0,2212.0,3378.0,3379.0
-441,2214,3370,0,-434.0,-431.0,2213.0,2211.0,3374.0,3378.0
-451,2217,3366,0,-441.0,-434.0,2214.0,2213.0,3370.0,3374.0
-464,2221,3358,0,-451.0,-441.0,2217.0,2214.0,3366.0,3370.0
-475,2222,3354,0,-464.0,-451.0,2221.0,2217.0,3358.0,3366.0
-477,2224,3349,0,-475.0,-464.0,2222.0,2221.0,3354.0,3358.0
-480,2223,3350,0,-477.0,-475.0,2224.0,2222.0,3349.0,3354.0
-486,2222,3350,0,-480.0,-477.0,2223.0,2224.0,3350.0,3349.0
-492,2224,3355,0,-486.0,-480.0,2222.0,2223.0,3350.0,3350.0
-488,2227,3362,0,-492.0,-486.0,2224.0,2222.0,3355.0,3350.0
-486,2230,3367,0,-488.0,-492.0,2227.0,2224.0,3362.0,3355.0
-483,2233,3370,0,-486.0,-488.0,2230.0,2227.0,3367.0,3362.0
-477,2240,3372,0,-483.0,-486.0,2233.0,2230.0,3370.0,3367.0
-473,2243,3372,0,-477.0,-483.0,2240.0,2233.0,3372.0,3370.0
-471,2245,3376,0,-473.0,-477.0,2243.0,2240.0,3372.0,3372.0
-467,2246,3375,0,-471.0,-473.0,2245.0,2243.0,3376.0,3372.0
-463,2248,3375,0,-467.0,-471.0,2246.0,2245.0,3375.0,3376.0
-461,2245,3376,0,-463.0,-467.0,2248.0,2246.0,3375.0,3375.0
-462,2242,3374,0,-461.0,-463.0,2245.0,2248.0,3376.0,3375.0
-463,2242,3374,0,-462.0,-461.0,2242.0,2245.0,3374.0,3376.0
-460,2239,3374,0,-463.0,-462.0,2242.0,2242.0,3374.0,3374.0
-460,2235,3374,0,-460.0,-463.0,2239.0,2242.0,3374.0,3374.0
-459,2233,3372,0,-460.0,-460.0,2235.0,2239.0,3374.0,3374.0
-463,2230,3371,0,-459.0,-460.0,2233.0,2235.0,3372.0,3374.0
-466,2230,3376,0,-463.0,-459.0,2230.0,2233.0,3371.0,3372.0
-468,2227,3373,0,-466.0,-463.0,2230.0,2230.0,3376.0,3371.0
-466,2224,3369,0,-468.0,-466.0,2227.0,2230.0,3373.0,3376.0
-470,2225,3368,0,-466.0,-468.0,2224.0,2227.0,3369.0,3373.0
-470,2221,3369,0,-470.0,-466.0,2225.0,2224.0,3368.0,3369.0
-467,2223,3367,0,-470.0,-470.0,2221.0,2225.0,3369.0,3368.0
-466,2222,3367,0,-467.0,-470.0,2223.0,2221.0,3367.0,3369.0
-466,2223,3367,0,-466.0,-467.0,2222.0,2223.0,3367.0,3367.0
-463,2222,3369,0,-466.0,-466.0,2223.0,2222.0,3367.0,3367.0
-459,2222,3368,0,-463.0,-466.0,2222.0,2223.0,3369.0,3367.0
-456,2223,3366,0,-459.0,-463.0,2222.0,2222.0,3368.0,3369.0
-454,2222,3365,0,-456.0,-459.0,2223.0,2222.0,3366.0,3368.0
-448,2220,3365,0,-454.0,-456.0,2222.0,2223.0,3365.0,3366.0
-448,2220,3363,0,-448.0,-454.0,2220.0,2222.0,3365.0,3365.0
-446,2221,3363,0,-448.0,-448.0,2220.0,2220.0,3363.0,3365.0
-441,2218,3363,0,-446.0,-448.0,2221.0,2220.0,3363.0,3363.0
-441,2215,3363,0,-441.0,-446.0,2218.0,2221.0,3363.0,3363.0
-438,2213,3364,0,-441.0,-441.0,2215.0,2218.0,3363.0,3363.0
-437,2211,3366,0,-438.0,-441.0,2213.0,2215.0,3364.0,3363.0
-440,2210,3370,0,-437.0,-438.0,2211.0,2213.0,3366.0,3364.0
-437,2211,3368,0,-440.0,-437.0,2210.0,2211.0,3370.0,3366.0
-441,2211,3369,0,-437.0,-440.0,2211.0,2210.0,3368.0,3370.0
-441,2210,3369,0,-441.0,-437.0,2211.0,2211.0,3369.0,3368.0
-442,2210,3368,0,-441.0,-441.0,2210.0,2211.0,3369.0,3369.0
-446,2206,3371,0,-442.0,-441.0,2210.0,2210.0,3368.0,3369.0
-446,2208,3368,0,-446.0,-442.0,2206.0,2210.0,3371.0,3368.0
-445,2211,3371,0,-446.0,-446.0,2208.0,2206.0,3368.0,3371.0
-443,2208,3372,0,-445.0,-446.0,2211.0,2208.0,3371.0,3368.0
-444,2210,3373,0,-443.0,-445.0,2208.0,2211.0,3372.0,3371.0
-442,2211,3378,0,-444.0,-443.0,2210.0,2208.0,3373.0,3372.0
-442,2212,3383,0,-442.0,-444.0,2211.0,2210.0,3378.0,3373.0
-443,2215,3384,0,-442.0,-442.0,2212.0,2211.0,3383.0,3378.0
-441,2217,3385,0,-443.0,-442.0,2215.0,2212.0,3384.0,3383.0
-438,2221,3385,0,-441.0,-443.0,2217.0,2215.0,3385.0,3384.0
-434,2221,3386,0,-438.0,-441.0,2221.0,2217.0,3385.0,3385.0
-432,2224,3386,0,-434.0,-438.0,2221.0,2221.0,3386.0,3385.0
-426,2224,3386,0,-432.0,-434.0,2224.0,2221.0,3386.0,3386.0
-425,2223,3383,0,-426.0,-432.0,2224.0,2224.0,3386.0,3386.0
-425,2223,3380,0,-425.0,-426.0,2223.0,2224.0,3383.0,3386.0
-425,2224,3381,0,-425.0,-425.0,2223.0,2223.0,3380.0,3383.0
-426,2223,3378,0,-425.0,-425.0,2224.0,2223.0,3381.0,3380.0
-429,2223,3370,0,-426.0,-425.0,2223.0,2224.0,3378.0,3381.0
-432,2224,3370,0,-429.0,-426.0,2223.0,2223.0,3370.0,3378.0
-435,2226,3373,0,-432.0,-429.0,2224.0,2223.0,3370.0,3370.0
-438,2224,3375,0,-435.0,-432.0,2226.0,2224.0,3373.0,3370.0
-440,2226,3372,0,-438.0,-435.0,2224.0,2226.0,3375.0,3373.0
-440,2224,3370,0,-440.0,-438.0,2226.0,2224.0,3372.0,3375.0
-444,2220,3368,0,-440.0,-440.0,2224.0,2226.0,3370.0,3372.0
-452,2219,3370,0,-444.0,-440.0,2220.0,2224.0,3368.0,3370.0
-452,2220,3368,0,-452.0,-444.0,2219.0,2220.0,3370.0,3368.0
-455,2219,3368,0,-452.0,-452.0,2220.0,2219.0,3368.0,3370.0
-458,2216,3368,0,-455.0,-452.0,2219.0,2220.0,3368.0,3368.0
-460,2217,3369,0,-458.0,-455.0,2216.0,2219.0,3368.0,3368.0
-461,2217,3367,0,-460.0,-458.0,2217.0,2216.0,3369.0,3368.0
-460,2217,3367,0,-461.0,-460.0,2217.0,2217.0,3367.0,3369.0
-461,2216,3366,0,-460.0,-461.0,2217.0,2217.0,3367.0,3367.0
-461,2215,3366,0,-461.0,-460.0,2216.0,2217.0,3366.0,3367.0
-459,2221,3366,0,-461.0,-461.0,2215.0,2216.0,3366.0,3366.0
-457,2223,3367,0,-459.0,-461.0,2221.0,2215.0,3366.0,3366.0
-456,2223,3365,0,-457.0,-459.0,2223.0,2221.0,3367.0,3366.0
-454,2225,3363,0,-456.0,-457.0,2223.0,2223.0,3365.0,3367.0
-454,2225,3367,0,-454.0,-456.0,2225.0,2223.0,3363.0,3365.0
-458,2225,3369,0,-454.0,-454.0,2225.0,2225.0,3367.0,3363.0
-458,2225,3370,0,-458.0,-454.0,2225.0,2225.0,3369.0,3367.0
-458,2225,3368,0,-458.0,-458.0,2225.0,2225.0,3370.0,3369.0
-459,2225,3371,0,-458.0,-458.0,2225.0,2225.0,3368.0,3370.0
-458,2224,3369,0,-459.0,-458.0,2225.0,2225.0,3371.0,3368.0
-459,2226,3372,0,-458.0,-459.0,2224.0,2225.0,3369.0,3371.0
-462,2225,3372,0,-459.0,-458.0,2226.0,2224.0,3372.0,3369.0
-465,2225,3372,0,-462.0,-459.0,2225.0,2226.0,3372.0,3372.0
-467,2226,3376,0,-465.0,-462.0,2225.0,2225.0,3372.0,3372.0
-464,2228,3372,0,-467.0,-465.0,2226.0,2225.0,3376.0,3372.0
-461,2230,3371,0,-464.0,-467.0,2228.0,2226.0,3372.0,3376.0
-464,2231,3373,0,-461.0,-464.0,2230.0,2228.0,3371.0,3372.0
-463,2229,3376,0,-464.0,-461.0,2231.0,2230.0,3373.0,3371.0
-465,2232,3374,0,-463.0,-464.0,2229.0,2231.0,3376.0,3373.0
-461,2233,3376,0,-465.0,-463.0,2232.0,2229.0,3374.0,3376.0
-462,2236,3374,0,-461.0,-465.0,2233.0,2232.0,3376.0,3374.0
-460,2238,3373,0,-462.0,-461.0,2236.0,2233.0,3374.0,3376.0
-456,2236,3373,0,-460.0,-462.0,2238.0,2236.0,3373.0,3374.0
-461,2236,3374,0,-456.0,-460.0,2236.0,2238.0,3373.0,3373.0
-459,2235,3375,0,-461.0,-456.0,2236.0,2236.0,3374.0,3373.0
-455,2235,3376,0,-459.0,-461.0,2235.0,2236.0,3375.0,3374.0
-451,2232,3373,0,-455.0,-459.0,2235.0,2235.0,3376.0,3375.0
-449,2233,3375,0,-451.0,-455.0,2232.0,2235.0,3373.0,3376.0
-448,2230,3373,0,-449.0,-451.0,2233.0,2232.0,3375.0,3373.0
-448,2227,3371,0,-448.0,-449.0,2230.0,2233.0,3373.0,3375.0
-446,2229,3371,0,-448.0,-448.0,2227.0,2230.0,3371.0,3373.0
-442,2225,3371,0,-446.0,-448.0,2229.0,2227.0,3371.0,3371.0
-442,2222,3372,0,-442.0,-446.0,2225.0,2229.0,3371.0,3371.0
-442,2220,3372,0,-442.0,-442.0,2222.0,2225.0,3372.0,3371.0
-442,2218,3370,0,-442.0,-442.0,2220.0,2222.0,3372.0,3372.0
-444,2218,3369,0,-442.0,-442.0,2218.0,2220.0,3370.0,3372.0
-445,2220,3371,0,-444.0,-442.0,2218.0,2218.0,3369.0,3370.0
-445,2218,3369,0,-445.0,-444.0,2220.0,2218.0,3371.0,3369.0
-440,2217,3368,0,-445.0,-445.0,2218.0,2220.0,3369.0,3371.0
-443,2221,3366,0,-440.0,-445.0,2217.0,2218.0,3368.0,3369.0
-441,2218,3365,0,-443.0,-440.0,2221.0,2217.0,3366.0,3368.0
-443,2214,3367,0,-441.0,-443.0,2218.0,2221.0,3365.0,3366.0
-443,2216,3369,0,-443.0,-441.0,2214.0,2218.0,3367.0,3365.0
-444,2220,3366,0,-443.0,-443.0,2216.0,2214.0,3369.0,3367.0
-448,2217,3366,0,-444.0,-443.0,2220.0,2216.0,3366.0,3369.0
-447,2217,3369,0,-448.0,-444.0,2217.0,2220.0,3366.0,3366.0
-454,2215,3368,0,-447.0,-448.0,2217.0,2217.0,3369.0,3366.0
-454,2216,3370,0,-454.0,-447.0,2215.0,2217.0,3368.0,3369.0
-453,2218,3373,0,-454.0,-454.0,2216.0,2215.0,3370.0,3368.0
-456,2222,3373,0,-453.0,-454.0,2218.0,2216.0,3373.0,3370.0
-457,2220,3371,0,-456.0,-453.0,2222.0,2218.0,3373.0,3373.0
-454,2217,3373,0,-457.0,-456.0,2220.0,2222.0,3371.0,3373.0
-455,2216,3375,0,-454.0,-457.0,2217.0,2220.0,3373.0,3371.0
-451,2216,3374,0,-455.0,-454.0,2216.0,2217.0,3375.0,3373.0
-450,2214,3375,0,-451.0,-455.0,2216.0,2216.0,3374.0,3375.0
-450,2219,3374,0,-450.0,-451.0,2214.0,2216.0,3375.0,3374.0
-450,2220,3376,0,-450.0,-450.0,2219.0,2214.0,3374.0,3375.0
-449,2223,3376,0,-450.0,-450.0,2220.0,2219.0,3376.0,3374.0
-447,2219,3374,0,-449.0,-450.0,2223.0,2220.0,3376.0,3376.0
-443,2220,3374,0,-447.0,-449.0,2219.0,2223.0,3374.0,3376.0
-441,2218,3374,0,-443.0,-447.0,2220.0,2219.0,3374.0,3374.0
-440,2217,3371,0,-441.0,-443.0,2218.0,2220.0,3374.0,3374.0
-436,2220,3371,0,-440.0,-441.0,2217.0,2218.0,3371.0,3374.0
-437,2223,3369,0,-436.0,-440.0,2220.0,2217.0,3371.0,3371.0
-438,2224,3369,0,-437.0,-436.0,2223.0,2220.0,3369.0,3371.0
-439,2226,3367,0,-438.0,-437.0,2224.0,2223.0,3369.0,3369.0
-438,2231,3369,0,-439.0,-438.0,2226.0,2224.0,3367.0,3369.0
-440,2229,3368,0,-438.0,-439.0,2231.0,2226.0,3369.0,3367.0
-440,2231,3369,0,-440.0,-438.0,2229.0,2231.0,3368.0,3369.0
-448,2234,3372,0,-440.0,-440.0,2231.0,2229.0,3369.0,3368.0
-454,2232,3374,0,-448.0,-440.0,2234.0,2231.0,3372.0,3369.0
-459,2233,3376,0,-454.0,-448.0,2232.0,2234.0,3374.0,3372.0
-464,2233,3372,0,-459.0,-454.0,2233.0,2232.0,3376.0,3374.0
-466,2234,3375,0,-464.0,-459.0,2233.0,2233.0,3372.0,3376.0
-466,2233,3376,0,-466.0,-464.0,2234.0,2233.0,3375.0,3372.0
-466,2235,3371,0,-466.0,-466.0,2233.0,2234.0,3376.0,3375.0
-461,2231,3371,0,-466.0,-466.0,2235.0,2233.0,3371.0,3376.0
-458,2231,3370,0,-461.0,-466.0,2231.0,2235.0,3371.0,3371.0
-451,2223,3366,0,-458.0,-461.0,2231.0,2231.0,3370.0,3371.0
-441,2223,3365,0,-451.0,-458.0,2223.0,2231.0,3366.0,3370.0
-433,2222,3365,0,-441.0,-451.0,2223.0,2223.0,3365.0,3366.0
-424,2225,3365,0,-433.0,-441.0,2222.0,2223.0,3365.0,3365.0
-410,2225,3368,0,-424.0,-433.0,2225.0,2222.0,3365.0,3365.0
-402,2233,3372,0,-410.0,-424.0,2225.0,2225.0,3368.0,3365.0
-391,2236,3377,0,-402.0,-410.0,2233.0,2225.0,3372.0,3368.0
-385,2236,3378,0,-391.0,-402.0,2236.0,2233.0,3377.0,3372.0
-380,2237,3375,0,-385.0,-391.0,2236.0,2236.0,3378.0,3377.0
-378,2234,3374,0,-380.0,-385.0,2237.0,2236.0,3375.0,3378.0
-376,2233,3375,0,-378.0,-380.0,2234.0,2237.0,3374.0,3375.0
-379,2231,3371,0,-376.0,-378.0,2233.0,2234.0,3375.0,3374.0
-388,2227,3370,0,-379.0,-376.0,2231.0,2233.0,3371.0,3375.0
-398,2224,3369,0,-388.0,-379.0,2227.0,2231.0,3370.0,3371.0
-405,2221,3366,0,-398.0,-388.0,2224.0,2227.0,3369.0,3370.0
-415,2223,3365,0,-405.0,-398.0,2221.0,2224.0,3366.0,3369.0
-427,2226,3364,0,-415.0,-405.0,2223.0,2221.0,3365.0,3366.0
-442,2229,3362,0,-427.0,-415.0,2226.0,2223.0,3364.0,3365.0
-454,2233,3355,0,-442.0,-427.0,2229.0,2226.0,3362.0,3364.0
-466,2232,3354,0,-454.0,-442.0,2233.0,2229.0,3355.0,3362.0
-482,2228,3356,0,-466.0,-454.0,2232.0,2233.0,3354.0,3355.0
-497,2231,3353,0,-482.0,-466.0,2228.0,2232.0,3356.0,3354.0
-504,2230,3351,0,-497.0,-482.0,2231.0,2228.0,3353.0,3356.0
-506,2235,3358,0,-504.0,-497.0,2230.0,2231.0,3351.0,3353.0
-503,2234,3364,0,-506.0,-504.0,2235.0,2230.0,3358.0,3351.0
-498,2237,3368,0,-503.0,-506.0,2234.0,2235.0,3364.0,3358.0
-491,2239,3371,0,-498.0,-503.0,2237.0,2234.0,3368.0,3364.0
-482,2238,3372,0,-491.0,-498.0,2239.0,2237.0,3371.0,3368.0
-470,2242,3376,0,-482.0,-491.0,2238.0,2239.0,3372.0,3371.0
-460,2244,3378,0,-470.0,-482.0,2242.0,2238.0,3376.0,3372.0
-454,2242,3380,0,-460.0,-470.0,2244.0,2242.0,3378.0,3376.0
-445,2245,3380,0,-454.0,-460.0,2242.0,2244.0,3380.0,3378.0
-438,2246,3377,0,-445.0,-454.0,2245.0,2242.0,3380.0,3380.0
-435,2246,3376,0,-438.0,-445.0,2246.0,2245.0,3377.0,3380.0
-428,2248,3376,0,-435.0,-438.0,2246.0,2246.0,3376.0,3377.0
-429,2243,3374,0,-428.0,-435.0,2248.0,2246.0,3376.0,3376.0
-433,2240,3375,0,-429.0,-428.0,2243.0,2248.0,3374.0,3376.0
-439,2236,3370,0,-433.0,-429.0,2240.0,2243.0,3375.0,3374.0
-440,2234,3370,0,-439.0,-433.0,2236.0,2240.0,3370.0,3375.0
-444,2232,3369,0,-440.0,-439.0,2234.0,2236.0,3370.0,3370.0
-447,2234,3371,0,-444.0,-440.0,2232.0,2234.0,3369.0,3370.0
-452,2232,3369,0,-447.0,-444.0,2234.0,2232.0,3371.0,3369.0
-452,2232,3368,0,-452.0,-447.0,2232.0,2234.0,3369.0,3371.0
-455,2230,3364,0,-452.0,-452.0,2232.0,2232.0,3368.0,3369.0
-456,2230,3364,0,-455.0,-452.0,2230.0,2232.0,3364.0,3368.0
-454,2228,3367,0,-456.0,-455.0,2230.0,2230.0,3364.0,3364.0
-454,2228,3367,0,-454.0,-456.0,2228.0,2230.0,3367.0,3364.0
-456,2229,3366,0,-454.0,-454.0,2228.0,2228.0,3367.0,3367.0
-451,2228,3364,0,-456.0,-454.0,2229.0,2228.0,3366.0,3367.0
-447,2224,3363,0,-451.0,-456.0,2228.0,2229.0,3364.0,3366.0
-440,2224,3360,0,-447.0,-451.0,2224.0,2228.0,3363.0,3364.0
-435,2224,3361,0,-440.0,-447.0,2224.0,2224.0,3360.0,3363.0
-429,2223,3357,0,-435.0,-440.0,2224.0,2224.0,3361.0,3360.0
-425,2220,3356,0,-429.0,-435.0,2223.0,2224.0,3357.0,3361.0
-425,2221,3356,0,-425.0,-429.0,2220.0,2223.0,3356.0,3357.0
-425,2218,3359,0,-425.0,-425.0,2221.0,2220.0,3356.0,3356.0
-423,2215,3365,0,-425.0,-425.0,2218.0,2221.0,3359.0,3356.0
-423,2215,3365,0,-423.0,-425.0,2215.0,2218.0,3365.0,3359.0
-426,2217,3366,0,-423.0,-423.0,2215.0,2215.0,3365.0,3365.0
-428,2215,3367,0,-426.0,-423.0,2217.0,2215.0,3366.0,3365.0
-429,2214,3368,0,-428.0,-426.0,2215.0,2217.0,3367.0,3366.0
-436,2216,3367,0,-429.0,-428.0,2214.0,2215.0,3368.0,3367.0
-437,2216,3370,0,-436.0,-429.0,2216.0,2214.0,3367.0,3368.0
-439,2215,3369,0,-437.0,-436.0,2216.0,2216.0,3370.0,3367.0
-442,2219,3372,0,-439.0,-437.0,2215.0,2216.0,3369.0,3370.0
-448,2220,3371,0,-442.0,-439.0,2219.0,2215.0,3372.0,3369.0
-450,2226,3374,0,-448.0,-442.0,2220.0,2219.0,3371.0,3372.0
-448,2226,3377,0,-450.0,-448.0,2226.0,2220.0,3374.0,3371.0
-448,2231,3380,0,-448.0,-450.0,2226.0,2226.0,3377.0,3374.0
-449,2237,3384,0,-448.0,-448.0,2231.0,2226.0,3380.0,3377.0
-442,2241,3385,0,-449.0,-448.0,2237.0,2231.0,3384.0,3380.0
-440,2243,3384,0,-442.0,-449.0,2241.0,2237.0,3385.0,3384.0
-436,2242,3384,0,-440.0,-442.0,2243.0,2241.0,3384.0,3385.0
-435,2244,3382,0,-436.0,-440.0,2242.0,2243.0,3384.0,3384.0
-429,2245,3380,0,-435.0,-436.0,2244.0,2242.0,3382.0,3384.0
-423,2245,3377,0,-429.0,-435.0,2245.0,2244.0,3380.0,3382.0
-417,2244,3374,0,-423.0,-429.0,2245.0,2245.0,3377.0,3380.0
-409,2245,3372,0,-417.0,-423.0,2244.0,2245.0,3374.0,3377.0
-412,2242,3368,0,-409.0,-417.0,2245.0,2244.0,3372.0,3374.0
-410,2235,3367,0,-412.0,-409.0,2242.0,2245.0,3368.0,3372.0
-411,2231,3367,0,-410.0,-412.0,2235.0,2242.0,3367.0,3368.0
-411,2230,3365,0,-411.0,-410.0,2231.0,2235.0,3367.0,3367.0
-414,2227,3364,0,-411.0,-411.0,2230.0,2231.0,3365.0,3367.0
-416,2228,3364,0,-414.0,-411.0,2227.0,2230.0,3364.0,3365.0
-422,2227,3361,0,-416.0,-414.0,2228.0,2227.0,3364.0,3364.0
-424,2228,3358,0,-422.0,-416.0,2227.0,2228.0,3361.0,3364.0
-427,2227,3357,0,-424.0,-422.0,2228.0,2227.0,3358.0,3361.0
-428,2229,3358,0,-427.0,-424.0,2227.0,2228.0,3357.0,3358.0
-432,2225,3358,0,-428.0,-427.0,2229.0,2227.0,3358.0,3357.0
-434,2226,3358,0,-432.0,-428.0,2225.0,2229.0,3358.0,3358.0
-434,2224,3359,0,-434.0,-432.0,2226.0,2225.0,3358.0,3358.0
-438,2228,3356,0,-434.0,-434.0,2224.0,2226.0,3359.0,3358.0
-440,2229,3359,0,-438.0,-434.0,2228.0,2224.0,3356.0,3359.0
-441,2235,3358,0,-440.0,-438.0,2229.0,2228.0,3359.0,3356.0
-442,2235,3357,0,-441.0,-440.0,2235.0,2229.0,3358.0,3359.0
-442,2237,3358,0,-442.0,-441.0,2235.0,2235.0,3357.0,3358.0
-443,2238,3355,0,-442.0,-442.0,2237.0,2235.0,3358.0,3357.0
-445,2240,3361,0,-443.0,-442.0,2238.0,2237.0,3355.0,3358.0
-443,2240,3362,0,-445.0,-443.0,2240.0,2238.0,3361.0,3355.0
-443,2243,3366,0,-443.0,-445.0,2240.0,2240.0,3362.0,3361.0
-441,2242,3367,0,-443.0,-443.0,2243.0,2240.0,3366.0,3362.0
-443,2243,3366,0,-441.0,-443.0,2242.0,2243.0,3367.0,3366.0
-441,2241,3367,0,-443.0,-441.0,2243.0,2242.0,3366.0,3367.0
-439,2245,3370,0,-441.0,-443.0,2241.0,2243.0,3367.0,3366.0
-439,2247,3370,0,-439.0,-441.0,2245.0,2241.0,3370.0,3367.0
-435,2244,3369,0,-439.0,-439.0,2247.0,2245.0,3370.0,3370.0
-437,2246,3366,0,-435.0,-439.0,2244.0,2247.0,3369.0,3370.0
-436,2244,3372,0,-437.0,-435.0,2246.0,2244.0,3366.0,3369.0
-434,2243,3371,0,-436.0,-437.0,2244.0,2246.0,3372.0,3366.0
-433,2241,3369,0,-434.0,-436.0,2243.0,2244.0,3371.0,3372.0
-440,2239,3369,0,-433.0,-434.0,2241.0,2243.0,3369.0,3371.0
-442,2241,3366,0,-440.0,-433.0,2239.0,2241.0,3369.0,3369.0
-444,2244,3367,0,-442.0,-440.0,2241.0,2239.0,3366.0,3369.0
-441,2246,3365,0,-444.0,-442.0,2244.0,2241.0,3367.0,3366.0
-440,2245,3365,0,-441.0,-444.0,2246.0,2244.0,3365.0,3367.0
-441,2244,3367,0,-440.0,-441.0,2245.0,2246.0,3365.0,3365.0
-439,2248,3366,0,-441.0,-440.0,2244.0,2245.0,3367.0,3365.0
-435,2248,3370,0,-439.0,-441.0,2248.0,2244.0,3366.0,3367.0
-435,2246,3369,0,-435.0,-439.0,2248.0,2248.0,3370.0,3366.0
-433,2246,3367,0,-435.0,-435.0,2246.0,2248.0,3369.0,3370.0
-434,2247,3365,0,-433.0,-435.0,2246.0,2246.0,3367.0,3369.0
-436,2246,3364,0,-434.0,-433.0,2247.0,2246.0,3365.0,3367.0
-433,2244,3361,0,-436.0,-434.0,2246.0,2247.0,3364.0,3365.0
-433,2244,3362,0,-433.0,-436.0,2244.0,2246.0,3361.0,3364.0
-429,2242,3362,0,-433.0,-433.0,2244.0,2244.0,3362.0,3361.0
-428,2242,3359,0,-429.0,-433.0,2242.0,2244.0,3362.0,3362.0
-428,2239,3361,0,-428.0,-429.0,2242.0,2242.0,3359.0,3362.0
-426,2239,3362,0,-428.0,-428.0,2239.0,2242.0,3361.0,3359.0
-423,2239,3360,0,-426.0,-428.0,2239.0,2239.0,3362.0,3361.0
-423,2239,3362,0,-423.0,-426.0,2239.0,2239.0,3360.0,3362.0
-421,2241,3362,0,-423.0,-423.0,2239.0,2239.0,3362.0,3360.0
-422,2238,3364,0,-421.0,-423.0,2241.0,2239.0,3362.0,3362.0
-422,2240,3362,0,-422.0,-421.0,2238.0,2241.0,3364.0,3362.0
-420,2238,3362,0,-422.0,-422.0,2240.0,2238.0,3362.0,3364.0
-417,2236,3359,0,-420.0,-422.0,2238.0,2240.0,3362.0,3362.0
-415,2236,3357,0,-417.0,-420.0,2236.0,2238.0,3359.0,3362.0
-418,2234,3359,0,-415.0,-417.0,2236.0,2236.0,3357.0,3359.0
-417,2235,3362,0,-418.0,-415.0,2234.0,2236.0,3359.0,3357.0
-421,2231,3362,0,-417.0,-418.0,2235.0,2234.0,3362.0,3359.0
-423,2230,3364,0,-421.0,-417.0,2231.0,2235.0,3362.0,3362.0
-422,2229,3360,0,-423.0,-421.0,2230.0,2231.0,3364.0,3362.0
-422,2227,3364,0,-422.0,-423.0,2229.0,2230.0,3360.0,3364.0
-422,2232,3367,0,-422.0,-422.0,2227.0,2229.0,3364.0,3360.0
-424,2232,3366,0,-422.0,-422.0,2232.0,2227.0,3367.0,3364.0
-424,2235,3369,0,-424.0,-422.0,2232.0,2232.0,3366.0,3367.0
-423,2234,3370,0,-424.0,-424.0,2235.0,2232.0,3369.0,3366.0
-424,2235,3372,0,-423.0,-424.0,2234.0,2235.0,3370.0,3369.0
-424,2235,3370,0,-424.0,-423.0,2235.0,2234.0,3372.0,3370.0
-427,2231,3369,0,-424.0,-424.0,2235.0,2235.0,3370.0,3372.0
-427,2228,3364,0,-427.0,-424.0,2231.0,2235.0,3369.0,3370.0
-426,2225,3364,0,-427.0,-427.0,2228.0,2231.0,3364.0,3369.0
-429,2224,3363,0,-426.0,-427.0,2225.0,2228.0,3364.0,3364.0
-428,2222,3358,0,-429.0,-426.0,2224.0,2225.0,3363.0,3364.0
-429,2222,3361,0,-428.0,-429.0,2222.0,2224.0,3358.0,3363.0
-427,2222,3360,0,-429.0,-428.0,2222.0,2222.0,3361.0,3358.0
-428,2220,3362,0,-427.0,-429.0,2222.0,2222.0,3360.0,3361.0
-430,2225,3364,0,-428.0,-427.0,2220.0,2222.0,3362.0,3360.0
-431,2229,3368,0,-430.0,-428.0,2225.0,2220.0,3364.0,3362.0
-437,2232,3371,0,-431.0,-430.0,2229.0,2225.0,3368.0,3364.0
-439,2236,3374,0,-437.0,-431.0,2232.0,2229.0,3371.0,3368.0
-443,2236,3375,0,-439.0,-437.0,2236.0,2232.0,3374.0,3371.0
-446,2236,3380,0,-443.0,-439.0,2236.0,2236.0,3375.0,3374.0
-450,2235,3382,0,-446.0,-443.0,2236.0,2236.0,3380.0,3375.0
-451,2233,3382,0,-450.0,-446.0,2235.0,2236.0,3382.0,3380.0
-455,2234,3383,0,-451.0,-450.0,2233.0,2235.0,3382.0,3382.0
-453,2233,3379,0,-455.0,-451.0,2234.0,2233.0,3383.0,3382.0
-452,2231,3375,0,-453.0,-455.0,2233.0,2234.0,3379.0,3383.0
-449,2229,3371,0,-452.0,-453.0,2231.0,2233.0,3375.0,3379.0
-441,2227,3371,0,-449.0,-452.0,2229.0,2231.0,3371.0,3375.0
-433,2224,3369,0,-441.0,-449.0,2227.0,2229.0,3371.0,3371.0
-426,2223,3370,0,-433.0,-441.0,2224.0,2227.0,3369.0,3371.0
-418,2221,3369,0,-426.0,-433.0,2223.0,2224.0,3370.0,3369.0
-413,2222,3374,0,-418.0,-426.0,2221.0,2223.0,3369.0,3370.0
-400,2227,3377,0,-413.0,-418.0,2222.0,2221.0,3374.0,3369.0
-393,2230,3377,0,-400.0,-413.0,2227.0,2222.0,3377.0,3374.0
-385,2232,3377,0,-393.0,-400.0,2230.0,2227.0,3377.0,3377.0
-385,2231,3377,0,-385.0,-393.0,2232.0,2230.0,3377.0,3377.0
-388,2232,3381,0,-385.0,-385.0,2231.0,2232.0,3377.0,3377.0
-393,2230,3381,0,-388.0,-385.0,2232.0,2231.0,3381.0,3377.0
-393,2224,3376,0,-393.0,-388.0,2230.0,2232.0,3381.0,3381.0
-396,2219,3373,0,-393.0,-393.0,2224.0,2230.0,3376.0,3381.0
-405,2213,3368,0,-396.0,-393.0,2219.0,2224.0,3373.0,3376.0
-418,2212,3367,0,-405.0,-396.0,2213.0,2219.0,3368.0,3373.0
-425,2215,3361,0,-418.0,-405.0,2212.0,2213.0,3367.0,3368.0
-438,2223,3358,0,-425.0,-418.0,2215.0,2212.0,3361.0,3367.0
-450,2225,3352,0,-438.0,-425.0,2223.0,2215.0,3358.0,3361.0
-461,2227,3354,0,-450.0,-438.0,2225.0,2223.0,3352.0,3358.0
-475,2229,3355,0,-461.0,-450.0,2227.0,2225.0,3354.0,3352.0
-483,2230,3355,0,-475.0,-461.0,2229.0,2227.0,3355.0,3354.0
-482,2231,3353,0,-483.0,-475.0,2230.0,2229.0,3355.0,3355.0
-487,2235,3359,0,-482.0,-483.0,2231.0,2230.0,3353.0,3355.0
-488,2237,3364,0,-487.0,-482.0,2235.0,2231.0,3359.0,3353.0
-483,2238,3369,0,-488.0,-487.0,2237.0,2235.0,3364.0,3359.0
-478,2246,3372,0,-483.0,-488.0,2238.0,2237.0,3369.0,3364.0
-476,2249,3373,0,-478.0,-483.0,2246.0,2238.0,3372.0,3369.0
-465,2249,3371,0,-476.0,-478.0,2249.0,2246.0,3373.0,3372.0
-460,2251,3369,0,-465.0,-476.0,2249.0,2249.0,3371.0,3373.0
-449,2248,3368,0,-460.0,-465.0,2251.0,2249.0,3369.0,3371.0
-446,2247,3370,0,-449.0,-460.0,2248.0,2251.0,3368.0,3369.0
-439,2244,3368,0,-446.0,-449.0,2247.0,2248.0,3370.0,3368.0
-439,2244,3365,0,-439.0,-446.0,2244.0,2247.0,3368.0,3370.0
-436,2243,3361,0,-439.0,-439.0,2244.0,2244.0,3365.0,3368.0
-431,2241,3363,0,-436.0,-439.0,2243.0,2244.0,3361.0,3365.0
-432,2244,3362,0,-431.0,-436.0,2241.0,2243.0,3363.0,3361.0
-436,2243,3363,0,-432.0,-431.0,2244.0,2241.0,3362.0,3363.0
-438,2241,3364,0,-436.0,-432.0,2243.0,2244.0,3363.0,3362.0
-444,2239,3363,0,-438.0,-436.0,2241.0,2243.0,3364.0,3363.0
-448,2238,3364,0,-444.0,-438.0,2239.0,2241.0,3363.0,3364.0
-449,2239,3364,0,-448.0,-444.0,2238.0,2239.0,3364.0,3363.0
-452,2237,3364,0,-449.0,-448.0,2239.0,2238.0,3364.0,3364.0
-455,2237,3367,0,-452.0,-449.0,2237.0,2239.0,3364.0,3364.0
-456,2233,3365,0,-455.0,-452.0,2237.0,2237.0,3367.0,3364.0
-457,2232,3367,0,-456.0,-455.0,2233.0,2237.0,3365.0,3367.0
-460,2234,3368,0,-457.0,-456.0,2232.0,2233.0,3367.0,3365.0
-455,2235,3367,0,-460.0,-457.0,2234.0,2232.0,3368.0,3367.0
-450,2229,3364,0,-455.0,-460.0,2235.0,2234.0,3367.0,3368.0
-448,2230,3363,0,-450.0,-455.0,2229.0,2235.0,3364.0,3367.0
-447,2236,3363,0,-448.0,-450.0,2230.0,2229.0,3363.0,3364.0
-443,2237,3365,0,-447.0,-448.0,2236.0,2230.0,3363.0,3363.0
-441,2238,3365,0,-443.0,-447.0,2237.0,2236.0,3365.0,3363.0
-436,2239,3367,0,-441.0,-443.0,2238.0,2237.0,3365.0,3365.0
-436,2238,3363,0,-436.0,-441.0,2239.0,2238.0,3367.0,3365.0
-433,2236,3364,0,-436.0,-436.0,2238.0,2239.0,3363.0,3367.0
-427,2236,3365,0,-433.0,-436.0,2236.0,2238.0,3364.0,3363.0
-422,2237,3368,0,-427.0,-433.0,2236.0,2236.0,3365.0,3364.0
-421,2232,3367,0,-422.0,-427.0,2237.0,2236.0,3368.0,3365.0
-423,2232,3369,0,-421.0,-422.0,2232.0,2237.0,3367.0,3368.0
-426,2228,3365,0,-423.0,-421.0,2232.0,2232.0,3369.0,3367.0
-428,2227,3367,0,-426.0,-423.0,2228.0,2232.0,3365.0,3369.0
-425,2226,3363,0,-428.0,-426.0,2227.0,2228.0,3367.0,3365.0
-429,2226,3364,0,-425.0,-428.0,2226.0,2227.0,3363.0,3367.0
-431,2222,3363,0,-429.0,-425.0,2226.0,2226.0,3364.0,3363.0
-430,2224,3368,0,-431.0,-429.0,2222.0,2226.0,3363.0,3364.0
-431,2227,3368,0,-430.0,-431.0,2224.0,2222.0,3368.0,3363.0
-434,2224,3369,0,-431.0,-430.0,2227.0,2224.0,3368.0,3368.0
-436,2223,3369,0,-434.0,-431.0,2224.0,2227.0,3369.0,3368.0
-438,2224,3371,0,-436.0,-434.0,2223.0,2224.0,3369.0,3369.0
-440,2227,3375,0,-438.0,-436.0,2224.0,2223.0,3371.0,3369.0
-439,2229,3374,0,-440.0,-438.0,2227.0,2224.0,3375.0,3371.0
-440,2231,3376,0,-439.0,-440.0,2229.0,2227.0,3374.0,3375.0
-439,2230,3375,0,-440.0,-439.0,2231.0,2229.0,3376.0,3374.0
-436,2228,3376,0,-439.0,-440.0,2230.0,2231.0,3375.0,3376.0
-431,2228,3375,0,-436.0,-439.0,2228.0,2230.0,3376.0,3375.0
-432,2228,3376,0,-431.0,-436.0,2228.0,2228.0,3375.0,3376.0
-433,2225,3374,0,-432.0,-431.0,2228.0,2228.0,3376.0,3375.0
-433,2225,3375,0,-433.0,-432.0,2225.0,2228.0,3374.0,3376.0
-435,2223,3372,0,-433.0,-433.0,2225.0,2225.0,3375.0,3374.0
-435,2224,3372,0,-435.0,-433.0,2223.0,2225.0,3372.0,3375.0
-437,2224,3369,0,-435.0,-435.0,2224.0,2223.0,3372.0,3372.0
-439,2220,3367,0,-437.0,-435.0,2224.0,2224.0,3369.0,3372.0
-437,2216,3365,0,-439.0,-437.0,2220.0,2224.0,3367.0,3369.0
-438,2216,3368,0,-437.0,-439.0,2216.0,2220.0,3365.0,3367.0
-437,2215,3368,0,-438.0,-437.0,2216.0,2216.0,3368.0,3365.0
-441,2214,3365,0,-437.0,-438.0,2215.0,2216.0,3368.0,3368.0
-441,2216,3366,0,-441.0,-437.0,2214.0,2215.0,3365.0,3368.0
-445,2214,3364,0,-441.0,-441.0,2216.0,2214.0,3366.0,3365.0
-444,2211,3365,0,-445.0,-441.0,2214.0,2216.0,3364.0,3366.0
-444,2213,3365,0,-444.0,-445.0,2211.0,2214.0,3365.0,3364.0
-445,2212,3367,0,-444.0,-444.0,2213.0,2211.0,3365.0,3365.0
-451,2211,3366,0,-445.0,-444.0,2212.0,2213.0,3367.0,3365.0
-452,2210,3368,0,-451.0,-445.0,2211.0,2212.0,3366.0,3367.0
-452,2212,3370,0,-452.0,-451.0,2210.0,2211.0,3368.0,3366.0
-455,2213,3372,0,-452.0,-452.0,2212.0,2210.0,3370.0,3368.0
-455,2217,3372,0,-455.0,-452.0,2213.0,2212.0,3372.0,3370.0
-453,2222,3370,0,-455.0,-455.0,2217.0,2213.0,3372.0,3372.0
-450,2218,3371,0,-453.0,-455.0,2222.0,2217.0,3370.0,3372.0
-452,2219,3370,0,-450.0,-453.0,2218.0,2222.0,3371.0,3370.0
-454,2220,3370,0,-452.0,-450.0,2219.0,2218.0,3370.0,3371.0
-448,2216,3368,0,-454.0,-452.0,2220.0,2219.0,3370.0,3370.0
-445,2218,3372,0,-448.0,-454.0,2216.0,2220.0,3368.0,3370.0
-444,2217,3375,0,-445.0,-448.0,2218.0,2216.0,3372.0,3368.0
-445,2221,3374,0,-444.0,-445.0,2217.0,2218.0,3375.0,3372.0
-445,2221,3372,0,-445.0,-444.0,2221.0,2217.0,3374.0,3375.0
-445,2221,3374,0,-445.0,-445.0,2221.0,2221.0,3372.0,3374.0
-445,2222,3373,0,-445.0,-445.0,2221.0,2221.0,3374.0,3372.0
-449,2221,3376,0,-445.0,-445.0,2222.0,2221.0,3373.0,3374.0
-451,2223,3376,0,-449.0,-445.0,2221.0,2222.0,3376.0,3373.0
-453,2221,3378,0,-451.0,-449.0,2223.0,2221.0,3376.0,3376.0
-453,2220,3374,0,-453.0,-451.0,2221.0,2223.0,3378.0,3376.0
-453,2219,3372,0,-453.0,-453.0,2220.0,2221.0,3374.0,3378.0
-455,2218,3368,0,-453.0,-453.0,2219.0,2220.0,3372.0,3374.0
-457,2219,3369,0,-455.0,-453.0,2218.0,2219.0,3368.0,3372.0
-454,2224,3372,0,-457.0,-455.0,2219.0,2218.0,3369.0,3368.0
-453,2225,3372,0,-454.0,-457.0,2224.0,2219.0,3372.0,3369.0
-453,2224,3370,0,-453.0,-454.0,2225.0,2224.0,3372.0,3372.0
-452,2225,3372,0,-453.0,-453.0,2224.0,2225.0,3370.0,3372.0
-452,2229,3373,0,-452.0,-453.0,2225.0,2224.0,3372.0,3370.0
-452,2230,3377,0,-452.0,-452.0,2229.0,2225.0,3373.0,3372.0
-453,2228,3375,0,-452.0,-452.0,2230.0,2229.0,3377.0,3373.0
-448,2228,3373,0,-453.0,-452.0,2228.0,2230.0,3375.0,3377.0
-449,2227,3374,0,-448.0,-453.0,2228.0,2228.0,3373.0,3375.0
-453,2225,3374,0,-449.0,-448.0,2227.0,2228.0,3374.0,3373.0
-449,2223,3372,0,-453.0,-449.0,2225.0,2227.0,3374.0,3374.0
-451,2223,3372,0,-449.0,-453.0,2223.0,2225.0,3372.0,3374.0
-451,2222,3370,0,-451.0,-449.0,2223.0,2223.0,3372.0,3372.0
-447,2220,3371,0,-451.0,-451.0,2222.0,2223.0,3370.0,3372.0
-447,2222,3373,0,-447.0,-451.0,2220.0,2222.0,3371.0,3370.0
-449,2222,3370,0,-447.0,-447.0,2222.0,2220.0,3373.0,3371.0
-451,2224,3369,0,-449.0,-447.0,2222.0,2222.0,3370.0,3373.0
-449,2227,3371,0,-451.0,-449.0,2224.0,2222.0,3369.0,3370.0
-448,2230,3367,0,-449.0,-451.0,2227.0,2224.0,3371.0,3369.0
-449,2232,3368,0,-448.0,-449.0,2230.0,2227.0,3367.0,3371.0
-447,2232,3371,0,-449.0,-448.0,2232.0,2230.0,3368.0,3367.0
-450,2230,3371,0,-447.0,-449.0,2232.0,2232.0,3371.0,3368.0
-450,2230,3368,0,-450.0,-447.0,2230.0,2232.0,3371.0,3371.0
-450,2231,3369,0,-450.0,-450.0,2230.0,2230.0,3368.0,3371.0
-450,2231,3368,0,-450.0,-450.0,2231.0,2230.0,3369.0,3368.0
-446,2233,3368,0,-450.0,-450.0,2231.0,2231.0,3368.0,3369.0
-443,2234,3369,0,-446.0,-450.0,2233.0,2231.0,3368.0,3368.0
-445,2233,3369,0,-443.0,-446.0,2234.0,2233.0,3369.0,3368.0
-446,2230,3365,0,-445.0,-443.0,2233.0,2234.0,3369.0,3369.0
-445,2230,3362,0,-446.0,-445.0,2230.0,2233.0,3365.0,3369.0
-447,2232,3368,0,-445.0,-446.0,2230.0,2230.0,3362.0,3365.0
-447,2231,3368,0,-447.0,-445.0,2232.0,2230.0,3368.0,3362.0
-448,2227,3367,0,-447.0,-447.0,2231.0,2232.0,3368.0,3368.0
-449,2224,3370,0,-448.0,-447.0,2227.0,2231.0,3367.0,3368.0
-451,2225,3372,0,-449.0,-448.0,2224.0,2227.0,3370.0,3367.0
-455,2224,3371,0,-451.0,-449.0,2225.0,2224.0,3372.0,3370.0
-453,2224,3372,0,-455.0,-451.0,2224.0,2225.0,3371.0,3372.0
-454,2226,3373,0,-453.0,-455.0,2224.0,2224.0,3372.0,3371.0
-457,2223,3374,0,-454.0,-453.0,2226.0,2224.0,3373.0,3372.0
-457,2221,3374,0,-457.0,-454.0,2223.0,2226.0,3374.0,3373.0
-457,2224,3369,0,-457.0,-457.0,2221.0,2223.0,3374.0,3374.0
-457,2220,3370,0,-457.0,-457.0,2224.0,2221.0,3369.0,3374.0
-457,2222,3371,0,-457.0,-457.0,2220.0,2224.0,3370.0,3369.0
-451,2224,3371,0,-457.0,-457.0,2222.0,2220.0,3371.0,3370.0
-452,2222,3374,0,-451.0,-457.0,2224.0,2222.0,3371.0,3371.0
-451,2222,3373,0,-452.0,-451.0,2222.0,2224.0,3374.0,3371.0
-450,2222,3370,0,-451.0,-452.0,2222.0,2222.0,3373.0,3374.0
-445,2218,3370,0,-450.0,-451.0,2222.0,2222.0,3370.0,3373.0
-443,2220,3370,0,-445.0,-450.0,2218.0,2222.0,3370.0,3370.0
-448,2220,3374,0,-443.0,-445.0,2220.0,2218.0,3370.0,3370.0
-450,2220,3376,0,-448.0,-443.0,2220.0,2220.0,3374.0,3370.0
-449,2217,3381,0,-450.0,-448.0,2220.0,2220.0,3376.0,3374.0
-455,2219,3381,0,-449.0,-450.0,2217.0,2220.0,3381.0,3376.0
-462,2221,3382,0,-455.0,-449.0,2219.0,2217.0,3381.0,3381.0
-463,2219,3382,0,-462.0,-455.0,2221.0,2219.0,3382.0,3381.0
-466,2221,3379,0,-463.0,-462.0,2219.0,2221.0,3382.0,3382.0
-466,2221,3380,0,-466.0,-463.0,2221.0,2219.0,3379.0,3382.0
-465,2220,3378,0,-466.0,-466.0,2221.0,2221.0,3380.0,3379.0
-464,2222,3375,0,-465.0,-466.0,2220.0,2221.0,3378.0,3380.0
-466,2221,3373,0,-464.0,-465.0,2222.0,2220.0,3375.0,3378.0
-462,2217,3372,0,-466.0,-464.0,2221.0,2222.0,3373.0,3375.0
-456,2216,3373,0,-462.0,-466.0,2217.0,2221.0,3372.0,3373.0
-451,2213,3370,0,-456.0,-462.0,2216.0,2217.0,3373.0,3372.0
-447,2213,3373,0,-451.0,-456.0,2213.0,2216.0,3370.0,3373.0
-441,2215,3373,0,-447.0,-451.0,2213.0,2213.0,3373.0,3370.0
-431,2217,3378,0,-441.0,-447.0,2215.0,2213.0,3373.0,3373.0
-426,2219,3378,0,-431.0,-441.0,2217.0,2215.0,3378.0,3373.0
-422,2221,3382,0,-426.0,-431.0,2219.0,2217.0,3378.0,3378.0
-423,2223,3381,0,-422.0,-426.0,2221.0,2219.0,3382.0,3378.0
-424,2224,3382,0,-423.0,-422.0,2223.0,2221.0,3381.0,3382.0
-426,2220,3381,0,-424.0,-423.0,2224.0,2223.0,3382.0,3381.0
-428,2219,3386,0,-426.0,-424.0,2220.0,2224.0,3381.0,3382.0
-426,2213,3380,0,-428.0,-426.0,2219.0,2220.0,3386.0,3381.0
-428,2211,3378,0,-426.0,-428.0,2213.0,2219.0,3380.0,3386.0
-427,2210,3378,0,-428.0,-426.0,2211.0,2213.0,3378.0,3380.0
-433,2210,3373,0,-427.0,-428.0,2210.0,2211.0,3378.0,3378.0
-439,2209,3370,0,-433.0,-427.0,2210.0,2210.0,3373.0,3378.0
-446,2212,3364,0,-439.0,-433.0,2209.0,2210.0,3370.0,3373.0
-456,2211,3358,0,-446.0,-439.0,2212.0,2209.0,3364.0,3370.0
-462,2210,3352,0,-456.0,-446.0,2211.0,2212.0,3358.0,3364.0
-472,2213,3353,0,-462.0,-456.0,2210.0,2211.0,3352.0,3358.0
-476,2211,3358,0,-472.0,-462.0,2213.0,2210.0,3353.0,3352.0
-477,2211,3359,0,-476.0,-472.0,2211.0,2213.0,3358.0,3353.0
-477,2212,3364,0,-477.0,-476.0,2211.0,2211.0,3359.0,3358.0
-477,2218,3369,0,-477.0,-477.0,2212.0,2211.0,3364.0,3359.0
-469,2221,3370,0,-477.0,-477.0,2218.0,2212.0,3369.0,3364.0
-462,2223,3373,0,-469.0,-477.0,2221.0,2218.0,3370.0,3369.0
-459,2226,3376,0,-462.0,-469.0,2223.0,2221.0,3373.0,3370.0
-455,2226,3378,0,-459.0,-462.0,2226.0,2223.0,3376.0,3373.0
-451,2228,3379,0,-455.0,-459.0,2226.0,2226.0,3378.0,3376.0
-452,2230,3383,0,-451.0,-455.0,2228.0,2226.0,3379.0,3378.0
-449,2232,3381,0,-452.0,-451.0,2230.0,2228.0,3383.0,3379.0
-451,2232,3376,0,-449.0,-452.0,2232.0,2230.0,3381.0,3383.0
-452,2229,3376,0,-451.0,-449.0,2232.0,2232.0,3376.0,3381.0
-453,2227,3375,0,-452.0,-451.0,2229.0,2232.0,3376.0,3376.0
-457,2230,3376,0,-453.0,-452.0,2227.0,2229.0,3375.0,3376.0
-458,2228,3377,0,-457.0,-453.0,2230.0,2227.0,3376.0,3375.0
-460,2230,3377,0,-458.0,-457.0,2228.0,2230.0,3377.0,3376.0
-463,2231,3376,0,-460.0,-458.0,2230.0,2228.0,3377.0,3377.0
-462,2231,3377,0,-463.0,-460.0,2231.0,2230.0,3376.0,3377.0
-460,2229,3375,0,-462.0,-463.0,2231.0,2231.0,3377.0,3376.0
-462,2230,3376,0,-460.0,-462.0,2229.0,2231.0,3375.0,3377.0
-462,2227,3372,0,-462.0,-460.0,2230.0,2229.0,3376.0,3375.0
-462,2224,3373,0,-462.0,-462.0,2227.0,2230.0,3372.0,3376.0
-459,2226,3373,0,-462.0,-462.0,2224.0,2227.0,3373.0,3372.0
-458,2226,3373,0,-459.0,-462.0,2226.0,2224.0,3373.0,3373.0
-456,2223,3368,0,-458.0,-459.0,2226.0,2226.0,3373.0,3373.0
-454,2223,3367,0,-456.0,-458.0,2223.0,2226.0,3368.0,3373.0
-451,2224,3367,0,-454.0,-456.0,2223.0,2223.0,3367.0,3368.0
-451,2223,3366,0,-451.0,-454.0,2224.0,2223.0,3367.0,3367.0
-450,2225,3372,0,-451.0,-451.0,2223.0,2224.0,3366.0,3367.0
-450,2225,3368,0,-450.0,-451.0,2225.0,2223.0,3372.0,3366.0
-450,2227,3367,0,-450.0,-450.0,2225.0,2225.0,3368.0,3372.0
-453,2224,3367,0,-450.0,-450.0,2227.0,2225.0,3367.0,3368.0
-448,2222,3368,0,-453.0,-450.0,2224.0,2227.0,3367.0,3367.0
-449,2220,3370,0,-448.0,-453.0,2222.0,2224.0,3368.0,3367.0
-450,2217,3367,0,-449.0,-448.0,2220.0,2222.0,3370.0,3368.0
-449,2217,3368,0,-450.0,-449.0,2217.0,2220.0,3367.0,3370.0
-448,2214,3367,0,-449.0,-450.0,2217.0,2217.0,3368.0,3367.0
-446,2212,3367,0,-448.0,-449.0,2214.0,2217.0,3367.0,3368.0
-447,2209,3369,0,-446.0,-448.0,2212.0,2214.0,3367.0,3367.0
-446,2202,3371,0,-447.0,-446.0,2209.0,2212.0,3369.0,3367.0
-445,2204,3370,0,-446.0,-447.0,2202.0,2209.0,3371.0,3369.0
-447,2207,3372,0,-445.0,-446.0,2204.0,2202.0,3370.0,3371.0
-448,2208,3370,0,-447.0,-445.0,2207.0,2204.0,3372.0,3370.0
-451,2209,3370,0,-448.0,-447.0,2208.0,2207.0,3370.0,3372.0
-449,2209,3375,0,-451.0,-448.0,2209.0,2208.0,3370.0,3370.0
-453,2211,3378,0,-449.0,-451.0,2209.0,2209.0,3375.0,3370.0
-449,2213,3375,0,-453.0,-449.0,2211.0,2209.0,3378.0,3375.0
-448,2215,3377,0,-449.0,-453.0,2213.0,2211.0,3375.0,3378.0
-450,2217,3380,0,-448.0,-449.0,2215.0,2213.0,3377.0,3375.0
-447,2218,3378,0,-450.0,-448.0,2217.0,2215.0,3380.0,3377.0
-450,2220,3379,0,-447.0,-450.0,2218.0,2217.0,3378.0,3380.0
-447,2219,3379,0,-450.0,-447.0,2220.0,2218.0,3379.0,3378.0
-448,2221,3381,0,-447.0,-450.0,2219.0,2220.0,3379.0,3379.0
-447,2224,3378,0,-448.0,-447.0,2221.0,2219.0,3381.0,3379.0
-447,2225,3376,0,-447.0,-448.0,2224.0,2221.0,3378.0,3381.0
-447,2222,3378,0,-447.0,-447.0,2225.0,2224.0,3376.0,3378.0
-447,2219,3376,0,-447.0,-447.0,2222.0,2225.0,3378.0,3376.0
-447,2215,3374,0,-447.0,-447.0,2219.0,2222.0,3376.0,3378.0
-448,2216,3375,0,-447.0,-447.0,2215.0,2219.0,3374.0,3376.0
-449,2215,3373,0,-448.0,-447.0,2216.0,2215.0,3375.0,3374.0
-449,2217,3374,0,-449.0,-448.0,2215.0,2216.0,3373.0,3375.0
-453,2212,3374,0,-449.0,-449.0,2217.0,2215.0,3374.0,3373.0
-456,2211,3374,0,-453.0,-449.0,2212.0,2217.0,3374.0,3374.0
-455,2210,3373,0,-456.0,-453.0,2211.0,2212.0,3374.0,3374.0
-453,2209,3373,0,-455.0,-456.0,2210.0,2211.0,3373.0,3374.0
-453,2207,3372,0,-453.0,-455.0,2209.0,2210.0,3373.0,3373.0
-453,2209,3371,0,-453.0,-453.0,2207.0,2209.0,3372.0,3373.0
-455,2215,3371,0,-453.0,-453.0,2209.0,2207.0,3371.0,3372.0
-457,2217,3370,0,-455.0,-453.0,2215.0,2209.0,3371.0,3371.0
-454,2217,3372,0,-457.0,-455.0,2217.0,2215.0,3370.0,3371.0
-455,2218,3369,0,-454.0,-457.0,2217.0,2217.0,3372.0,3370.0
-455,2215,3371,0,-455.0,-454.0,2218.0,2217.0,3369.0,3372.0
-457,2216,3371,0,-455.0,-455.0,2215.0,2218.0,3371.0,3369.0
-455,2217,3373,0,-457.0,-455.0,2216.0,2215.0,3371.0,3371.0
-452,2218,3371,0,-455.0,-457.0,2217.0,2216.0,3373.0,3371.0
-451,2219,3370,0,-452.0,-455.0,2218.0,2217.0,3371.0,3373.0
-451,2220,3366,0,-451.0,-452.0,2219.0,2218.0,3370.0,3371.0
-446,2219,3367,0,-451.0,-451.0,2220.0,2219.0,3366.0,3370.0
-447,2218,3367,0,-446.0,-451.0,2219.0,2220.0,3367.0,3366.0
-448,2220,3366,0,-447.0,-446.0,2218.0,2219.0,3367.0,3367.0
-449,2218,3369,0,-448.0,-447.0,2220.0,2218.0,3366.0,3367.0
-450,2218,3370,0,-449.0,-448.0,2218.0,2220.0,3369.0,3366.0
-445,2219,3369,0,-450.0,-449.0,2218.0,2218.0,3370.0,3369.0
-449,2221,3371,0,-445.0,-450.0,2219.0,2218.0,3369.0,3370.0
-454,2222,3371,0,-449.0,-445.0,2221.0,2219.0,3371.0,3369.0
-458,2221,3373,0,-454.0,-449.0,2222.0,2221.0,3371.0,3371.0
-460,2222,3373,0,-458.0,-454.0,2221.0,2222.0,3373.0,3371.0
-460,2219,3372,0,-460.0,-458.0,2222.0,2221.0,3373.0,3373.0
-463,2217,3372,0,-460.0,-460.0,2219.0,2222.0,3372.0,3373.0
-468,2221,3373,0,-463.0,-460.0,2217.0,2219.0,3372.0,3372.0
-471,2223,3374,0,-468.0,-463.0,2221.0,2217.0,3373.0,3372.0
-472,2221,3375,0,-471.0,-468.0,2223.0,2221.0,3374.0,3373.0
-469,2226,3379,0,-472.0,-471.0,2221.0,2223.0,3375.0,3374.0
-471,2229,3379,0,-469.0,-472.0,2226.0,2221.0,3379.0,3375.0
-469,2231,3376,0,-471.0,-469.0,2229.0,2226.0,3379.0,3379.0
-467,2228,3375,0,-469.0,-471.0,2231.0,2229.0,3376.0,3379.0
-465,2227,3378,0,-467.0,-469.0,2228.0,2231.0,3375.0,3376.0
-466,2231,3376,0,-465.0,-467.0,2227.0,2228.0,3378.0,3375.0
-462,2233,3376,0,-466.0,-465.0,2231.0,2227.0,3376.0,3378.0
-457,2230,3374,0,-462.0,-466.0,2233.0,2231.0,3376.0,3376.0
-457,2229,3374,0,-457.0,-462.0,2230.0,2233.0,3374.0,3376.0
-457,2227,3373,0,-457.0,-457.0,2229.0,2230.0,3374.0,3374.0
-458,2223,3374,0,-457.0,-457.0,2227.0,2229.0,3373.0,3374.0
-450,2221,3373,0,-458.0,-457.0,2223.0,2227.0,3374.0,3373.0
-451,2218,3372,0,-450.0,-458.0,2221.0,2223.0,3373.0,3374.0
-450,2219,3372,0,-451.0,-450.0,2218.0,2221.0,3372.0,3373.0
-452,2217,3370,0,-450.0,-451.0,2219.0,2218.0,3372.0,3372.0
-453,2214,3373,0,-452.0,-450.0,2217.0,2219.0,3370.0,3372.0
-455,2216,3372,0,-453.0,-452.0,2214.0,2217.0,3373.0,3370.0
-459,2215,3371,0,-455.0,-453.0,2216.0,2214.0,3372.0,3373.0
-458,2216,3372,0,-459.0,-455.0,2215.0,2216.0,3371.0,3372.0
-458,2218,3371,0,-458.0,-459.0,2216.0,2215.0,3372.0,3371.0
-458,2217,3371,0,-458.0,-458.0,2218.0,2216.0,3371.0,3372.0
-458,2216,3368,0,-458.0,-458.0,2217.0,2218.0,3371.0,3371.0
-456,2218,3368,0,-458.0,-458.0,2216.0,2217.0,3368.0,3371.0
-454,2220,3366,0,-456.0,-458.0,2218.0,2216.0,3368.0,3368.0
-454,2218,3363,0,-454.0,-456.0,2220.0,2218.0,3366.0,3368.0
-455,2216,3365,0,-454.0,-454.0,2218.0,2220.0,3363.0,3366.0
-454,2216,3366,0,-455.0,-454.0,2216.0,2218.0,3365.0,3363.0
-453,2215,3371,0,-454.0,-455.0,2216.0,2216.0,3366.0,3365.0
-455,2214,3371,0,-453.0,-454.0,2215.0,2216.0,3371.0,3366.0
-451,2213,3370,0,-455.0,-453.0,2214.0,2215.0,3371.0,3371.0
-448,2212,3373,0,-451.0,-455.0,2213.0,2214.0,3370.0,3371.0
-446,2213,3372,0,-448.0,-451.0,2212.0,2213.0,3373.0,3370.0
-444,2212,3371,0,-446.0,-448.0,2213.0,2212.0,3372.0,3373.0
-444,2213,3371,0,-444.0,-446.0,2212.0,2213.0,3371.0,3372.0
-444,2212,3374,0,-444.0,-444.0,2213.0,2212.0,3371.0,3371.0
-443,2213,3376,0,-444.0,-444.0,2212.0,2213.0,3374.0,3371.0
-445,2213,3373,0,-443.0,-444.0,2213.0,2212.0,3376.0,3374.0
-450,2212,3374,0,-445.0,-443.0,2213.0,2213.0,3373.0,3376.0
-449,2212,3377,0,-450.0,-445.0,2212.0,2213.0,3374.0,3373.0
-447,2209,3376,0,-449.0,-450.0,2212.0,2212.0,3377.0,3374.0
-448,2209,3374,0,-447.0,-449.0,2209.0,2212.0,3376.0,3377.0
-452,2210,3375,0,-448.0,-447.0,2209.0,2209.0,3374.0,3376.0
-453,2210,3375,0,-452.0,-448.0,2210.0,2209.0,3375.0,3374.0
-455,2210,3375,0,-453.0,-452.0,2210.0,2210.0,3375.0,3375.0
-457,2211,3378,0,-455.0,-453.0,2210.0,2210.0,3375.0,3375.0
-457,2211,3378,0,-457.0,-455.0,2211.0,2210.0,3378.0,3375.0
-457,2217,3378,0,-457.0,-457.0,2211.0,2211.0,3378.0,3378.0
-458,2217,3378,0,-457.0,-457.0,2217.0,2211.0,3378.0,3378.0
-457,2218,3378,0,-458.0,-457.0,2217.0,2217.0,3378.0,3378.0
-456,2217,3381,0,-457.0,-458.0,2218.0,2217.0,3378.0,3378.0
-455,2215,3382,0,-456.0,-457.0,2217.0,2218.0,3381.0,3378.0
-457,2218,3381,0,-455.0,-456.0,2215.0,2217.0,3382.0,3381.0
-461,2218,3379,0,-457.0,-455.0,2218.0,2215.0,3381.0,3382.0
-458,2217,3380,0,-461.0,-457.0,2218.0,2218.0,3379.0,3381.0
-460,2219,3379,0,-458.0,-461.0,2217.0,2218.0,3380.0,3379.0
-461,2218,3377,0,-460.0,-458.0,2219.0,2217.0,3379.0,3380.0
-462,2217,3376,0,-461.0,-460.0,2218.0,2219.0,3377.0,3379.0
-463,2221,3376,0,-462.0,-461.0,2217.0,2218.0,3376.0,3377.0
-461,2220,3377,0,-463.0,-462.0,2221.0,2217.0,3376.0,3376.0
-461,2222,3376,0,-461.0,-463.0,2220.0,2221.0,3377.0,3376.0
-464,2221,3379,0,-461.0,-461.0,2222.0,2220.0,3376.0,3377.0
-463,2217,3375,0,-464.0,-461.0,2221.0,2222.0,3379.0,3376.0
-462,2216,3373,0,-463.0,-464.0,2217.0,2221.0,3375.0,3379.0
-462,2216,3371,0,-462.0,-463.0,2216.0,2217.0,3373.0,3375.0
-461,2219,3368,0,-462.0,-462.0,2216.0,2216.0,3371.0,3373.0
-465,2220,3371,0,-461.0,-462.0,2219.0,2216.0,3368.0,3371.0
-461,2219,3370,0,-465.0,-461.0,2220.0,2219.0,3371.0,3368.0
-464,2215,3368,0,-461.0,-465.0,2219.0,2220.0,3370.0,3371.0
-463,2217,3367,0,-464.0,-461.0,2215.0,2219.0,3368.0,3370.0
-462,2216,3367,0,-463.0,-464.0,2217.0,2215.0,3367.0,3368.0
-463,2217,3363,0,-462.0,-463.0,2216.0,2217.0,3367.0,3367.0
-462,2218,3366,0,-463.0,-462.0,2217.0,2216.0,3363.0,3367.0
-459,2215,3369,0,-462.0,-463.0,2218.0,2217.0,3366.0,3363.0
-455,2214,3367,0,-459.0,-462.0,2215.0,2218.0,3369.0,3366.0
-456,2214,3368,0,-455.0,-459.0,2214.0,2215.0,3367.0,3369.0
-454,2213,3371,0,-456.0,-455.0,2214.0,2214.0,3368.0,3367.0
-454,2217,3374,0,-454.0,-456.0,2213.0,2214.0,3371.0,3368.0
-448,2219,3374,0,-454.0,-454.0,2217.0,2213.0,3374.0,3371.0
-449,2218,3373,0,-448.0,-454.0,2219.0,2217.0,3374.0,3374.0
-450,2218,3371,0,-449.0,-448.0,2218.0,2219.0,3373.0,3374.0
-451,2219,3370,0,-450.0,-449.0,2218.0,2218.0,3371.0,3373.0
-455,2214,3373,0,-451.0,-450.0,2219.0,2218.0,3370.0,3371.0
-455,2218,3371,0,-455.0,-451.0,2214.0,2219.0,3373.0,3370.0
-457,2218,3372,0,-455.0,-455.0,2218.0,2214.0,3371.0,3373.0
-462,2219,3371,0,-457.0,-455.0,2218.0,2218.0,3372.0,3371.0
-466,2220,3375,0,-462.0,-457.0,2219.0,2218.0,3371.0,3372.0
-470,2221,3374,0,-466.0,-462.0,2220.0,2219.0,3375.0,3371.0
-475,2223,3374,0,-470.0,-466.0,2221.0,2220.0,3374.0,3375.0
-473,2220,3374,0,-475.0,-470.0,2223.0,2221.0,3374.0,3374.0
-470,2220,3373,0,-473.0,-475.0,2220.0,2223.0,3374.0,3374.0
-469,2222,3374,0,-470.0,-473.0,2220.0,2220.0,3373.0,3374.0
-466,2224,3372,0,-469.0,-470.0,2222.0,2220.0,3374.0,3373.0
-456,2223,3374,0,-466.0,-469.0,2224.0,2222.0,3372.0,3374.0
-451,2223,3372,0,-456.0,-466.0,2223.0,2224.0,3374.0,3372.0
-447,2222,3374,0,-451.0,-456.0,2223.0,2223.0,3372.0,3374.0
-440,2222,3377,0,-447.0,-451.0,2222.0,2223.0,3374.0,3372.0
-430,2225,3379,0,-440.0,-447.0,2222.0,2222.0,3377.0,3374.0
-422,2227,3378,0,-430.0,-440.0,2225.0,2222.0,3379.0,3377.0
-412,2232,3384,0,-422.0,-430.0,2227.0,2225.0,3378.0,3379.0
-412,2234,3389,0,-412.0,-422.0,2232.0,2227.0,3384.0,3378.0
-408,2233,3388,0,-412.0,-412.0,2234.0,2232.0,3389.0,3384.0
-408,2233,3383,0,-408.0,-412.0,2233.0,2234.0,3388.0,3389.0
-408,2228,3383,0,-408.0,-408.0,2233.0,2233.0,3383.0,3388.0
-412,2225,3384,0,-408.0,-408.0,2228.0,2233.0,3383.0,3383.0
-416,2220,3380,0,-412.0,-408.0,2225.0,2228.0,3384.0,3383.0
-421,2216,3377,0,-416.0,-412.0,2220.0,2225.0,3380.0,3384.0
-423,2210,3379,0,-421.0,-416.0,2216.0,2220.0,3377.0,3380.0
-425,2209,3375,0,-423.0,-421.0,2210.0,2216.0,3379.0,3377.0
-432,2210,3372,0,-425.0,-423.0,2209.0,2210.0,3375.0,3379.0
-443,2213,3370,0,-432.0,-425.0,2210.0,2209.0,3372.0,3375.0
-452,2216,3367,0,-443.0,-432.0,2213.0,2210.0,3370.0,3372.0
-462,2218,3363,0,-452.0,-443.0,2216.0,2213.0,3367.0,3370.0
-471,2215,3360,0,-462.0,-452.0,2218.0,2216.0,3363.0,3367.0
-478,2213,3356,0,-471.0,-462.0,2215.0,2218.0,3360.0,3363.0
-482,2212,3358,0,-478.0,-471.0,2213.0,2215.0,3356.0,3360.0
-484,2211,3363,0,-482.0,-478.0,2212.0,2213.0,3358.0,3356.0
-480,2213,3364,0,-484.0,-482.0,2211.0,2212.0,3363.0,3358.0
-479,2216,3369,0,-480.0,-484.0,2213.0,2211.0,3364.0,3363.0
-477,2217,3371,0,-479.0,-480.0,2216.0,2213.0,3369.0,3364.0
-471,2223,3378,0,-477.0,-479.0,2217.0,2216.0,3371.0,3369.0
-465,2227,3376,0,-471.0,-477.0,2223.0,2217.0,3378.0,3371.0
-459,2232,3374,0,-465.0,-471.0,2227.0,2223.0,3376.0,3378.0
-456,2229,3375,0,-459.0,-465.0,2232.0,2227.0,3374.0,3376.0
-456,2225,3375,0,-456.0,-459.0,2229.0,2232.0,3375.0,3374.0
-452,2224,3374,0,-456.0,-456.0,2225.0,2229.0,3375.0,3375.0
-453,2226,3372,0,-452.0,-456.0,2224.0,2225.0,3374.0,3375.0
-449,2223,3374,0,-453.0,-452.0,2226.0,2224.0,3372.0,3374.0
-451,2226,3373,0,-449.0,-453.0,2223.0,2226.0,3374.0,3372.0
-452,2220,3372,0,-451.0,-449.0,2226.0,2223.0,3373.0,3374.0
-451,2219,3374,0,-452.0,-451.0,2220.0,2226.0,3372.0,3373.0
-452,2218,3372,0,-451.0,-452.0,2219.0,2220.0,3374.0,3372.0
-454,2215,3371,0,-452.0,-451.0,2218.0,2219.0,3372.0,3374.0
-457,2216,3369,0,-454.0,-452.0,2215.0,2218.0,3371.0,3372.0
-462,2217,3370,0,-457.0,-454.0,2216.0,2215.0,3369.0,3371.0
-468,2217,3365,0,-462.0,-457.0,2217.0,2216.0,3370.0,3369.0
-464,2213,3369,0,-468.0,-462.0,2217.0,2217.0,3365.0,3370.0
-468,2215,3369,0,-464.0,-468.0,2213.0,2217.0,3369.0,3365.0
-470,2216,3369,0,-468.0,-464.0,2215.0,2213.0,3369.0,3369.0
-467,2217,3368,0,-470.0,-468.0,2216.0,2215.0,3369.0,3369.0
-465,2218,3367,0,-467.0,-470.0,2217.0,2216.0,3368.0,3369.0
-461,2219,3367,0,-465.0,-467.0,2218.0,2217.0,3367.0,3368.0
-460,2224,3370,0,-461.0,-465.0,2219.0,2218.0,3367.0,3367.0
-457,2225,3369,0,-460.0,-461.0,2224.0,2219.0,3370.0,3367.0
-456,2226,3367,0,-457.0,-460.0,2225.0,2224.0,3369.0,3370.0
-452,2225,3370,0,-456.0,-457.0,2226.0,2225.0,3367.0,3369.0
-451,2228,3367,0,-452.0,-456.0,2225.0,2226.0,3370.0,3367.0
-447,2226,3368,0,-451.0,-452.0,2228.0,2225.0,3367.0,3370.0
-446,2223,3370,0,-447.0,-451.0,2226.0,2228.0,3368.0,3367.0
-445,2220,3372,0,-446.0,-447.0,2223.0,2226.0,3370.0,3368.0
-445,2220,3372,0,-445.0,-446.0,2220.0,2223.0,3372.0,3370.0
-443,2215,3370,0,-445.0,-445.0,2220.0,2220.0,3372.0,3372.0
-444,2214,3370,0,-443.0,-445.0,2215.0,2220.0,3370.0,3372.0
-439,2214,3372,0,-444.0,-443.0,2214.0,2215.0,3370.0,3370.0
-437,2214,3371,0,-439.0,-444.0,2214.0,2214.0,3372.0,3370.0
-440,2211,3372,0,-437.0,-439.0,2214.0,2214.0,3371.0,3372.0
-443,2212,3370,0,-440.0,-437.0,2211.0,2214.0,3372.0,3371.0
-444,2216,3372,0,-443.0,-440.0,2212.0,2211.0,3370.0,3372.0
-446,2214,3375,0,-444.0,-443.0,2216.0,2212.0,3372.0,3370.0
-446,2212,3376,0,-446.0,-444.0,2214.0,2216.0,3375.0,3372.0
-443,2212,3374,0,-446.0,-446.0,2212.0,2214.0,3376.0,3375.0
-445,2217,3375,0,-443.0,-446.0,2212.0,2212.0,3374.0,3376.0
-441,2218,3380,0,-445.0,-443.0,2217.0,2212.0,3375.0,3374.0
-442,2218,3381,0,-441.0,-445.0,2218.0,2217.0,3380.0,3375.0
-441,2222,3382,0,-442.0,-441.0,2218.0,2218.0,3381.0,3380.0
-438,2222,3384,0,-441.0,-442.0,2222.0,2218.0,3382.0,3381.0
-437,2225,3385,0,-438.0,-441.0,2222.0,2222.0,3384.0,3382.0
-435,2228,3386,0,-437.0,-438.0,2225.0,2222.0,3385.0,3384.0
-433,2228,3385,0,-435.0,-437.0,2228.0,2225.0,3386.0,3385.0
-429,2227,3386,0,-433.0,-435.0,2228.0,2228.0,3385.0,3386.0
-426,2226,3379,0,-429.0,-433.0,2227.0,2228.0,3386.0,3385.0
-427,2228,3374,0,-426.0,-429.0,2226.0,2227.0,3379.0,3386.0
-424,2227,3374,0,-427.0,-426.0,2228.0,2226.0,3374.0,3379.0
-424,2227,3371,0,-424.0,-427.0,2227.0,2228.0,3374.0,3374.0
-426,2224,3370,0,-424.0,-424.0,2227.0,2227.0,3371.0,3374.0
-427,2223,3368,0,-426.0,-424.0,2224.0,2227.0,3370.0,3371.0
-431,2222,3372,0,-427.0,-426.0,2223.0,2224.0,3368.0,3370.0
-433,2221,3370,0,-431.0,-427.0,2222.0,2223.0,3372.0,3368.0
-438,2218,3370,0,-433.0,-431.0,2221.0,2222.0,3370.0,3372.0
-443,2213,3371,0,-438.0,-433.0,2218.0,2221.0,3370.0,3370.0
-450,2215,3369,0,-443.0,-438.0,2213.0,2218.0,3371.0,3370.0
-450,2213,3369,0,-450.0,-443.0,2215.0,2213.0,3369.0,3371.0
-451,2213,3368,0,-450.0,-450.0,2213.0,2215.0,3369.0,3369.0
-450,2216,3364,0,-451.0,-450.0,2213.0,2213.0,3368.0,3369.0
-449,2216,3366,0,-450.0,-451.0,2216.0,2213.0,3364.0,3368.0
-449,2218,3364,0,-449.0,-450.0,2216.0,2216.0,3366.0,3364.0
-451,2217,3364,0,-449.0,-449.0,2218.0,2216.0,3364.0,3366.0
-451,2219,3366,0,-451.0,-449.0,2217.0,2218.0,3364.0,3364.0
-452,2221,3367,0,-451.0,-451.0,2219.0,2217.0,3366.0,3364.0
-448,2217,3371,0,-452.0,-451.0,2221.0,2219.0,3367.0,3366.0
-447,2222,3370,0,-448.0,-452.0,2217.0,2221.0,3371.0,3367.0
-449,2220,3369,0,-447.0,-448.0,2222.0,2217.0,3370.0,3371.0
-449,2222,3370,0,-449.0,-447.0,2220.0,2222.0,3369.0,3370.0
-451,2222,3371,0,-449.0,-449.0,2222.0,2220.0,3370.0,3369.0
-453,2223,3372,0,-451.0,-449.0,2222.0,2222.0,3371.0,3370.0
-456,2225,3370,0,-453.0,-451.0,2223.0,2222.0,3372.0,3371.0
-460,2225,3370,0,-456.0,-453.0,2225.0,2223.0,3370.0,3372.0
-462,2224,3371,0,-460.0,-456.0,2225.0,2225.0,3370.0,3370.0
-460,2226,3373,0,-462.0,-460.0,2224.0,2225.0,3371.0,3370.0
-461,2227,3372,0,-460.0,-462.0,2226.0,2224.0,3373.0,3371.0
-463,2229,3372,0,-461.0,-460.0,2227.0,2226.0,3372.0,3373.0
-464,2228,3371,0,-463.0,-461.0,2229.0,2227.0,3372.0,3372.0
-461,2227,3371,0,-464.0,-463.0,2228.0,2229.0,3371.0,3372.0
-461,2227,3372,0,-461.0,-464.0,2227.0,2228.0,3371.0,3371.0
-458,2226,3373,0,-461.0,-461.0,2227.0,2227.0,3372.0,3371.0
-458,2228,3371,0,-458.0,-461.0,2226.0,2227.0,3373.0,3372.0
-459,2227,3371,0,-458.0,-458.0,2228.0,2226.0,3371.0,3373.0
-456,2227,3371,0,-459.0,-458.0,2227.0,2228.0,3371.0,3371.0
-455,2229,3371,0,-456.0,-459.0,2227.0,2227.0,3371.0,3371.0
-458,2227,3372,0,-455.0,-456.0,2229.0,2227.0,3371.0,3371.0
-456,2228,3372,0,-458.0,-455.0,2227.0,2229.0,3372.0,3371.0
-450,2230,3374,0,-456.0,-458.0,2228.0,2227.0,3372.0,3372.0
-451,2229,3374,0,-450.0,-456.0,2230.0,2228.0,3374.0,3372.0
-449,2226,3374,0,-451.0,-450.0,2229.0,2230.0,3374.0,3374.0
-452,2229,3373,0,-449.0,-451.0,2226.0,2229.0,3374.0,3374.0
-453,2231,3375,0,-452.0,-449.0,2229.0,2226.0,3373.0,3374.0
-450,2228,3374,0,-453.0,-452.0,2231.0,2229.0,3375.0,3373.0
-448,2227,3372,0,-450.0,-453.0,2228.0,2231.0,3374.0,3375.0
-449,2226,3374,0,-448.0,-450.0,2227.0,2228.0,3372.0,3374.0
-448,2227,3375,0,-449.0,-448.0,2226.0,2227.0,3374.0,3372.0
-446,2227,3373,0,-448.0,-449.0,2227.0,2226.0,3375.0,3374.0
-448,2227,3372,0,-446.0,-448.0,2227.0,2227.0,3373.0,3375.0
-445,2231,3372,0,-448.0,-446.0,2227.0,2227.0,3372.0,3373.0
-447,2231,3372,0,-445.0,-448.0,2231.0,2227.0,3372.0,3372.0
-449,2228,3372,0,-447.0,-445.0,2231.0,2231.0,3372.0,3372.0
-448,2227,3372,0,-449.0,-447.0,2228.0,2231.0,3372.0,3372.0
-450,2226,3373,0,-448.0,-449.0,2227.0,2228.0,3372.0,3372.0
-447,2224,3373,0,-450.0,-448.0,2226.0,2227.0,3373.0,3372.0
-444,2225,3374,0,-447.0,-450.0,2224.0,2226.0,3373.0,3373.0
-440,2225,3374,0,-444.0,-447.0,2225.0,2224.0,3374.0,3373.0
-444,2222,3375,0,-440.0,-444.0,2225.0,2225.0,3374.0,3374.0
-443,2225,3372,0,-444.0,-440.0,2222.0,2225.0,3375.0,3374.0
-445,2225,3374,0,-443.0,-444.0,2225.0,2222.0,3372.0,3375.0
-440,2224,3370,0,-445.0,-443.0,2225.0,2225.0,3374.0,3372.0
-437,2220,3371,0,-440.0,-445.0,2224.0,2225.0,3370.0,3374.0
-441,2217,3371,0,-437.0,-440.0,2220.0,2224.0,3371.0,3370.0
-436,2214,3370,0,-441.0,-437.0,2217.0,2220.0,3371.0,3371.0
-436,2214,3370,0,-436.0,-441.0,2214.0,2217.0,3370.0,3371.0
-431,2214,3372,0,-436.0,-436.0,2214.0,2214.0,3370.0,3370.0
-427,2213,3369,0,-431.0,-436.0,2214.0,2214.0,3372.0,3370.0
-425,2207,3371,0,-427.0,-431.0,2213.0,2214.0,3369.0,3372.0
-426,2209,3371,0,-425.0,-427.0,2207.0,2213.0,3371.0,3369.0
-426,2206,3372,0,-426.0,-425.0,2209.0,2207.0,3371.0,3371.0
-422,2204,3372,0,-426.0,-426.0,2206.0,2209.0,3372.0,3371.0
-423,2207,3371,0,-422.0,-426.0,2204.0,2206.0,3372.0,3372.0
-421,2209,3370,0,-423.0,-422.0,2207.0,2204.0,3371.0,3372.0
-424,2211,3373,0,-421.0,-423.0,2209.0,2207.0,3370.0,3371.0
-427,2214,3373,0,-424.0,-421.0,2211.0,2209.0,3373.0,3370.0
-427,2213,3372,0,-427.0,-424.0,2214.0,2211.0,3373.0,3373.0
-427,2217,3370,0,-427.0,-427.0,2213.0,2214.0,3372.0,3373.0
-433,2219,3370,0,-427.0,-427.0,2217.0,2213.0,3370.0,3372.0
-439,2223,3370,0,-433.0,-427.0,2219.0,2217.0,3370.0,3370.0
-436,2228,3370,0,-439.0,-433.0,2223.0,2219.0,3370.0,3370.0
-440,2232,3368,0,-436.0,-439.0,2228.0,2223.0,3370.0,3370.0
-441,2234,3368,0,-440.0,-436.0,2232.0,2228.0,3368.0,3370.0
-442,2237,3367,0,-441.0,-440.0,2234.0,2232.0,3368.0,3368.0
-441,2239,3366,0,-442.0,-441.0,2237.0,2234.0,3367.0,3368.0
-443,2236,3369,0,-441.0,-442.0,2239.0,2237.0,3366.0,3367.0
-444,2240,3371,0,-443.0,-441.0,2236.0,2239.0,3369.0,3366.0
-446,2237,3367,0,-444.0,-443.0,2240.0,2236.0,3371.0,3369.0
-444,2237,3371,0,-446.0,-444.0,2237.0,2240.0,3367.0,3371.0
-445,2238,3375,0,-444.0,-446.0,2237.0,2237.0,3371.0,3367.0
-444,2239,3372,0,-445.0,-444.0,2238.0,2237.0,3375.0,3371.0
-444,2236,3372,0,-444.0,-445.0,2239.0,2238.0,3372.0,3375.0
-443,2230,3372,0,-444.0,-444.0,2236.0,2239.0,3372.0,3372.0
-438,2230,3369,0,-443.0,-444.0,2230.0,2236.0,3372.0,3372.0
-442,2229,3370,0,-438.0,-443.0,2230.0,2230.0,3369.0,3372.0
-442,2229,3371,0,-442.0,-438.0,2229.0,2230.0,3370.0,3369.0
-444,2231,3367,0,-442.0,-442.0,2229.0,2229.0,3371.0,3370.0
-445,2229,3365,0,-444.0,-442.0,2231.0,2229.0,3367.0,3371.0
-440,2227,3364,0,-445.0,-444.0,2229.0,2231.0,3365.0,3367.0
-441,2227,3362,0,-440.0,-445.0,2227.0,2229.0,3364.0,3365.0
-442,2226,3364,0,-441.0,-440.0,2227.0,2227.0,3362.0,3364.0
-441,2226,3365,0,-442.0,-441.0,2226.0,2227.0,3364.0,3362.0
-440,2228,3365,0,-441.0,-442.0,2226.0,2226.0,3365.0,3364.0
-446,2225,3367,0,-440.0,-441.0,2228.0,2226.0,3365.0,3365.0
-449,2224,3371,0,-446.0,-440.0,2225.0,2228.0,3367.0,3365.0
-451,2229,3373,0,-449.0,-446.0,2224.0,2225.0,3371.0,3367.0
-453,2233,3370,0,-451.0,-449.0,2229.0,2224.0,3373.0,3371.0
-458,2231,3368,0,-453.0,-451.0,2233.0,2229.0,3370.0,3373.0
-462,2232,3372,0,-458.0,-453.0,2231.0,2233.0,3368.0,3370.0
-464,2235,3374,0,-462.0,-458.0,2232.0,2231.0,3372.0,3368.0
-462,2232,3372,0,-464.0,-462.0,2235.0,2232.0,3374.0,3372.0
-464,2230,3368,0,-462.0,-464.0,2232.0,2235.0,3372.0,3374.0
-460,2232,3367,0,-464.0,-462.0,2230.0,2232.0,3368.0,3372.0
-451,2232,3367,0,-460.0,-464.0,2232.0,2230.0,3367.0,3368.0
-446,2232,3362,0,-451.0,-460.0,2232.0,2232.0,3367.0,3367.0
-437,2233,3363,0,-446.0,-451.0,2232.0,2232.0,3362.0,3367.0
-433,2234,3364,0,-437.0,-446.0,2233.0,2232.0,3363.0,3362.0
-423,2230,3366,0,-433.0,-437.0,2234.0,2233.0,3364.0,3363.0
-409,2229,3366,0,-423.0,-433.0,2230.0,2234.0,3366.0,3364.0
-399,2228,3371,0,-409.0,-423.0,2229.0,2230.0,3366.0,3366.0
-390,2231,3372,0,-399.0,-409.0,2228.0,2229.0,3371.0,3366.0
-385,2235,3378,0,-390.0,-399.0,2231.0,2228.0,3372.0,3371.0
-379,2239,3377,0,-385.0,-390.0,2235.0,2231.0,3378.0,3372.0
-379,2239,3379,0,-379.0,-385.0,2239.0,2235.0,3377.0,3378.0
-379,2241,3377,0,-379.0,-379.0,2239.0,2239.0,3379.0,3377.0
-384,2241,3378,0,-379.0,-379.0,2241.0,2239.0,3377.0,3379.0
-390,2236,3376,0,-384.0,-379.0,2241.0,2241.0,3378.0,3377.0
-399,2237,3372,0,-390.0,-384.0,2236.0,2241.0,3376.0,3378.0
-408,2235,3372,0,-399.0,-390.0,2237.0,2236.0,3372.0,3376.0
-417,2229,3371,0,-408.0,-399.0,2235.0,2237.0,3372.0,3372.0
-424,2232,3369,0,-417.0,-408.0,2229.0,2235.0,3371.0,3372.0
-431,2233,3368,0,-424.0,-417.0,2232.0,2229.0,3369.0,3371.0
-441,2238,3364,0,-431.0,-424.0,2233.0,2232.0,3368.0,3369.0
-447,2239,3362,0,-441.0,-431.0,2238.0,2233.0,3364.0,3368.0
-460,2238,3362,0,-447.0,-441.0,2239.0,2238.0,3362.0,3364.0
-468,2238,3360,0,-460.0,-447.0,2238.0,2239.0,3362.0,3362.0
-476,2239,3363,0,-468.0,-460.0,2238.0,2238.0,3360.0,3362.0
-479,2236,3361,0,-476.0,-468.0,2239.0,2238.0,3363.0,3360.0
-478,2234,3363,0,-479.0,-476.0,2236.0,2239.0,3361.0,3363.0
-474,2233,3366,0,-478.0,-479.0,2234.0,2236.0,3363.0,3361.0
-472,2234,3372,0,-474.0,-478.0,2233.0,2234.0,3366.0,3363.0
-461,2238,3374,0,-472.0,-474.0,2234.0,2233.0,3372.0,3366.0
-453,2241,3374,0,-461.0,-472.0,2238.0,2234.0,3374.0,3372.0
-448,2244,3373,0,-453.0,-461.0,2241.0,2238.0,3374.0,3374.0
-443,2244,3377,0,-448.0,-453.0,2244.0,2241.0,3373.0,3374.0
-435,2244,3372,0,-443.0,-448.0,2244.0,2244.0,3377.0,3373.0
-433,2242,3371,0,-435.0,-443.0,2244.0,2244.0,3372.0,3377.0
-427,2245,3366,0,-433.0,-435.0,2242.0,2244.0,3371.0,3372.0
-423,2242,3361,0,-427.0,-433.0,2245.0,2242.0,3366.0,3371.0
-429,2241,3360,0,-423.0,-427.0,2242.0,2245.0,3361.0,3366.0
-432,2237,3360,0,-429.0,-423.0,2241.0,2242.0,3360.0,3361.0
-434,2237,3361,0,-432.0,-429.0,2237.0,2241.0,3360.0,3360.0
-436,2230,3360,0,-434.0,-432.0,2237.0,2237.0,3361.0,3360.0
-441,2232,3360,0,-436.0,-434.0,2230.0,2237.0,3360.0,3361.0
-446,2235,3360,0,-441.0,-436.0,2232.0,2230.0,3360.0,3360.0
-445,2230,3361,0,-446.0,-441.0,2235.0,2232.0,3360.0,3360.0
-449,2230,3359,0,-445.0,-446.0,2230.0,2235.0,3361.0,3360.0
-452,2228,3362,0,-449.0,-445.0,2230.0,2230.0,3359.0,3361.0
-456,2227,3360,0,-452.0,-449.0,2228.0,2230.0,3362.0,3359.0
-456,2225,3359,0,-456.0,-452.0,2227.0,2228.0,3360.0,3362.0
-451,2227,3362,0,-456.0,-456.0,2225.0,2227.0,3359.0,3360.0
-444,2226,3362,0,-451.0,-456.0,2227.0,2225.0,3362.0,3359.0
-442,2228,3360,0,-444.0,-451.0,2226.0,2227.0,3362.0,3362.0
-440,2229,3363,0,-442.0,-444.0,2228.0,2226.0,3360.0,3362.0
-435,2228,3364,0,-440.0,-442.0,2229.0,2228.0,3363.0,3360.0
-431,2227,3363,0,-435.0,-440.0,2228.0,2229.0,3364.0,3363.0
-423,2227,3361,0,-431.0,-435.0,2227.0,2228.0,3363.0,3364.0
-419,2230,3362,0,-423.0,-431.0,2227.0,2227.0,3361.0,3363.0
-415,2227,3362,0,-419.0,-423.0,2230.0,2227.0,3362.0,3361.0
-414,2224,3364,0,-415.0,-419.0,2227.0,2230.0,3362.0,3362.0
-410,2224,3364,0,-414.0,-415.0,2224.0,2227.0,3364.0,3362.0
-411,2228,3367,0,-410.0,-414.0,2224.0,2224.0,3364.0,3364.0
-411,2225,3370,0,-411.0,-410.0,2228.0,2224.0,3367.0,3364.0
-411,2225,3370,0,-411.0,-411.0,2225.0,2228.0,3370.0,3367.0
-412,2224,3371,0,-411.0,-411.0,2225.0,2225.0,3370.0,3370.0
-416,2223,3372,0,-412.0,-411.0,2224.0,2225.0,3371.0,3370.0
-412,2224,3368,0,-416.0,-412.0,2223.0,2224.0,3372.0,3371.0
-417,2223,3368,0,-412.0,-416.0,2224.0,2223.0,3368.0,3372.0
-418,2220,3369,0,-417.0,-412.0,2223.0,2224.0,3368.0,3368.0
-420,2220,3367,0,-418.0,-417.0,2220.0,2223.0,3369.0,3368.0
-422,2222,3369,0,-420.0,-418.0,2220.0,2220.0,3367.0,3369.0
-423,2223,3371,0,-422.0,-420.0,2222.0,2220.0,3369.0,3367.0
-425,2226,3371,0,-423.0,-422.0,2223.0,2222.0,3371.0,3369.0
-418,2235,3375,0,-425.0,-423.0,2226.0,2223.0,3371.0,3371.0
-413,2237,3374,0,-418.0,-425.0,2235.0,2226.0,3375.0,3371.0
-414,2236,3374,0,-413.0,-418.0,2237.0,2235.0,3374.0,3375.0
-415,2234,3377,0,-414.0,-413.0,2236.0,2237.0,3374.0,3374.0
-408,2234,3376,0,-415.0,-414.0,2234.0,2236.0,3377.0,3374.0
-405,2236,3377,0,-408.0,-415.0,2234.0,2234.0,3376.0,3377.0
-406,2234,3377,0,-405.0,-408.0,2236.0,2234.0,3377.0,3376.0
-402,2236,3378,0,-406.0,-405.0,2234.0,2236.0,3377.0,3377.0
-402,2235,3375,0,-402.0,-406.0,2236.0,2234.0,3378.0,3377.0
-401,2235,3371,0,-402.0,-402.0,2235.0,2236.0,3375.0,3378.0
-404,2232,3369,0,-401.0,-402.0,2235.0,2235.0,3371.0,3375.0
-408,2233,3370,0,-404.0,-401.0,2232.0,2235.0,3369.0,3371.0
-413,2233,3371,0,-408.0,-404.0,2233.0,2232.0,3370.0,3369.0
-417,2233,3369,0,-413.0,-408.0,2233.0,2233.0,3371.0,3370.0
-425,2229,3367,0,-417.0,-413.0,2233.0,2233.0,3369.0,3371.0
-428,2230,3363,0,-425.0,-417.0,2229.0,2233.0,3367.0,3369.0
-432,2231,3366,0,-428.0,-425.0,2230.0,2229.0,3363.0,3367.0
-434,2229,3366,0,-432.0,-428.0,2231.0,2230.0,3366.0,3363.0
-442,2226,3363,0,-434.0,-432.0,2229.0,2231.0,3366.0,3366.0
-443,2227,3365,0,-442.0,-434.0,2226.0,2229.0,3363.0,3366.0
-447,2229,3365,0,-443.0,-442.0,2227.0,2226.0,3365.0,3363.0
-449,2230,3365,0,-447.0,-443.0,2229.0,2227.0,3365.0,3365.0
-448,2229,3366,0,-449.0,-447.0,2230.0,2229.0,3365.0,3365.0
-447,2229,3366,0,-448.0,-449.0,2229.0,2230.0,3366.0,3365.0
-449,2230,3368,0,-447.0,-448.0,2229.0,2229.0,3366.0,3366.0
-448,2232,3365,0,-449.0,-447.0,2230.0,2229.0,3368.0,3366.0
-449,2229,3366,0,-448.0,-449.0,2232.0,2230.0,3365.0,3368.0
-448,2229,3363,0,-449.0,-448.0,2229.0,2232.0,3366.0,3365.0
-451,2234,3363,0,-448.0,-449.0,2229.0,2229.0,3363.0,3366.0
-451,2236,3365,0,-451.0,-448.0,2234.0,2229.0,3363.0,3363.0
-456,2237,3366,0,-451.0,-451.0,2236.0,2234.0,3365.0,3363.0
-457,2237,3368,0,-456.0,-451.0,2237.0,2236.0,3366.0,3365.0
-456,2239,3365,0,-457.0,-456.0,2237.0,2237.0,3368.0,3366.0
-457,2238,3368,0,-456.0,-457.0,2239.0,2237.0,3365.0,3368.0
-458,2237,3372,0,-457.0,-456.0,2238.0,2239.0,3368.0,3365.0
-460,2236,3371,0,-458.0,-457.0,2237.0,2238.0,3372.0,3368.0
-458,2234,3369,0,-460.0,-458.0,2236.0,2237.0,3371.0,3372.0
-459,2233,3370,0,-458.0,-460.0,2234.0,2236.0,3369.0,3371.0
-457,2231,3372,0,-459.0,-458.0,2233.0,2234.0,3370.0,3369.0
-459,2232,3369,0,-457.0,-459.0,2231.0,2233.0,3372.0,3370.0
-455,2228,3370,0,-459.0,-457.0,2232.0,2231.0,3369.0,3372.0
-452,2229,3370,0,-455.0,-459.0,2228.0,2232.0,3370.0,3369.0
-453,2228,3368,0,-452.0,-455.0,2229.0,2228.0,3370.0,3370.0
-448,2228,3370,0,-453.0,-452.0,2228.0,2229.0,3368.0,3370.0
-449,2230,3368,0,-448.0,-453.0,2228.0,2228.0,3370.0,3368.0
-452,2231,3368,0,-449.0,-448.0,2230.0,2228.0,3368.0,3370.0
-451,2231,3368,0,-452.0,-449.0,2231.0,2230.0,3368.0,3368.0
-450,2230,3368,0,-451.0,-452.0,2231.0,2231.0,3368.0,3368.0
-445,2229,3369,0,-450.0,-451.0,2230.0,2231.0,3368.0,3368.0
-444,2231,3369,0,-445.0,-450.0,2229.0,2230.0,3369.0,3368.0
-442,2230,3371,0,-444.0,-445.0,2231.0,2229.0,3369.0,3369.0
-440,2227,3368,0,-442.0,-444.0,2230.0,2231.0,3371.0,3369.0
-441,2226,3368,0,-440.0,-442.0,2227.0,2230.0,3368.0,3371.0
-439,2226,3369,0,-441.0,-440.0,2226.0,2227.0,3368.0,3368.0
-442,2229,3368,0,-439.0,-441.0,2226.0,2226.0,3369.0,3368.0
-440,2224,3370,0,-442.0,-439.0,2229.0,2226.0,3368.0,3369.0
-438,2223,3371,0,-440.0,-442.0,2224.0,2229.0,3370.0,3368.0
-436,2221,3369,0,-438.0,-440.0,2223.0,2224.0,3371.0,3370.0
-433,2221,3369,0,-436.0,-438.0,2221.0,2223.0,3369.0,3371.0
-434,2217,3366,0,-433.0,-436.0,2221.0,2221.0,3369.0,3369.0
-438,2218,3365,0,-434.0,-433.0,2217.0,2221.0,3366.0,3369.0
-435,2218,3366,0,-438.0,-434.0,2218.0,2217.0,3365.0,3366.0
-438,2217,3365,0,-435.0,-438.0,2218.0,2218.0,3366.0,3365.0
-434,2222,3363,0,-438.0,-435.0,2217.0,2218.0,3365.0,3366.0
-434,2225,3367,0,-434.0,-438.0,2222.0,2217.0,3363.0,3365.0
-433,2228,3371,0,-434.0,-434.0,2225.0,2222.0,3367.0,3363.0
-434,2229,3371,0,-433.0,-434.0,2228.0,2225.0,3371.0,3367.0
-434,2226,3371,0,-434.0,-433.0,2229.0,2228.0,3371.0,3371.0
-433,2227,3370,0,-434.0,-434.0,2226.0,2229.0,3371.0,3371.0
-435,2228,3368,0,-433.0,-434.0,2227.0,2226.0,3370.0,3371.0
-435,2231,3368,0,-435.0,-433.0,2228.0,2227.0,3368.0,3370.0
-436,2232,3370,0,-435.0,-435.0,2231.0,2228.0,3368.0,3368.0
-434,2230,3371,0,-436.0,-435.0,2232.0,2231.0,3370.0,3368.0
-439,2227,3370,0,-434.0,-436.0,2230.0,2232.0,3371.0,3370.0
-442,2229,3369,0,-439.0,-434.0,2227.0,2230.0,3370.0,3371.0
-440,2227,3371,0,-442.0,-439.0,2229.0,2227.0,3369.0,3370.0
-439,2222,3374,0,-440.0,-442.0,2227.0,2229.0,3371.0,3369.0
-441,2222,3374,0,-439.0,-440.0,2222.0,2227.0,3374.0,3371.0
-439,2222,3374,0,-441.0,-439.0,2222.0,2222.0,3374.0,3374.0
-444,2220,3372,0,-439.0,-441.0,2222.0,2222.0,3374.0,3374.0
-442,2219,3373,0,-444.0,-439.0,2220.0,2222.0,3372.0,3374.0
-441,2218,3372,0,-442.0,-444.0,2219.0,2220.0,3373.0,3372.0
-440,2219,3369,0,-441.0,-442.0,2218.0,2219.0,3372.0,3373.0
-439,2218,3373,0,-440.0,-441.0,2219.0,2218.0,3369.0,3372.0
-439,2217,3374,0,-439.0,-440.0,2218.0,2219.0,3373.0,3369.0
-435,2216,3373,0,-439.0,-439.0,2217.0,2218.0,3374.0,3373.0
-433,2217,3372,0,-435.0,-439.0,2216.0,2217.0,3373.0,3374.0
-430,2215,3372,0,-433.0,-435.0,2217.0,2216.0,3372.0,3373.0
-427,2217,3373,0,-430.0,-433.0,2215.0,2217.0,3372.0,3372.0
-426,2219,3372,0,-427.0,-430.0,2217.0,2215.0,3373.0,3372.0
-427,2218,3370,0,-426.0,-427.0,2219.0,2217.0,3372.0,3373.0
-426,2219,3369,0,-427.0,-426.0,2218.0,2219.0,3370.0,3372.0
-429,2221,3370,0,-426.0,-427.0,2219.0,2218.0,3369.0,3370.0
-435,2223,3369,0,-429.0,-426.0,2221.0,2219.0,3370.0,3369.0
-438,2225,3371,0,-435.0,-429.0,2223.0,2221.0,3369.0,3370.0
-438,2226,3371,0,-438.0,-435.0,2225.0,2223.0,3371.0,3369.0
-443,2227,3370,0,-438.0,-438.0,2226.0,2225.0,3371.0,3371.0
-448,2223,3372,0,-443.0,-438.0,2227.0,2226.0,3370.0,3371.0
-454,2226,3373,0,-448.0,-443.0,2223.0,2227.0,3372.0,3370.0
-455,2223,3375,0,-454.0,-448.0,2226.0,2223.0,3373.0,3372.0
-458,2224,3376,0,-455.0,-454.0,2223.0,2226.0,3375.0,3373.0
-461,2227,3376,0,-458.0,-455.0,2224.0,2223.0,3376.0,3375.0
-460,2228,3374,0,-461.0,-458.0,2227.0,2224.0,3376.0,3376.0
-457,2222,3372,0,-460.0,-461.0,2228.0,2227.0,3374.0,3376.0
-458,2221,3370,0,-457.0,-460.0,2222.0,2228.0,3372.0,3374.0
-456,2221,3367,0,-458.0,-457.0,2221.0,2222.0,3370.0,3372.0
-452,2222,3366,0,-456.0,-458.0,2221.0,2221.0,3367.0,3370.0
-451,2221,3368,0,-452.0,-456.0,2222.0,2221.0,3366.0,3367.0
-446,2224,3368,0,-451.0,-452.0,2221.0,2222.0,3368.0,3366.0
-439,2224,3368,0,-446.0,-451.0,2224.0,2221.0,3368.0,3368.0
-433,2223,3372,0,-439.0,-446.0,2224.0,2224.0,3368.0,3368.0
-426,2227,3378,0,-433.0,-439.0,2223.0,2224.0,3372.0,3368.0
-425,2232,3378,0,-426.0,-433.0,2227.0,2223.0,3378.0,3372.0
-420,2230,3377,0,-425.0,-426.0,2232.0,2227.0,3378.0,3378.0
-420,2233,3376,0,-420.0,-425.0,2230.0,2232.0,3377.0,3378.0
-418,2231,3378,0,-420.0,-420.0,2233.0,2230.0,3376.0,3377.0
-420,2231,3379,0,-418.0,-420.0,2231.0,2233.0,3378.0,3376.0
-428,2229,3378,0,-420.0,-418.0,2231.0,2231.0,3379.0,3378.0
-427,2227,3376,0,-428.0,-420.0,2229.0,2231.0,3378.0,3379.0
-426,2226,3371,0,-427.0,-428.0,2227.0,2229.0,3376.0,3378.0
-430,2224,3371,0,-426.0,-427.0,2226.0,2227.0,3371.0,3376.0
-437,2225,3369,0,-430.0,-426.0,2224.0,2226.0,3371.0,3371.0
-445,2226,3367,0,-437.0,-430.0,2225.0,2224.0,3369.0,3371.0
-453,2226,3366,0,-445.0,-437.0,2226.0,2225.0,3367.0,3369.0
-460,2225,3362,0,-453.0,-445.0,2226.0,2226.0,3366.0,3367.0
-469,2222,3358,0,-460.0,-453.0,2225.0,2226.0,3362.0,3366.0
-472,2221,3360,0,-469.0,-460.0,2222.0,2225.0,3358.0,3362.0
-478,2222,3359,0,-472.0,-469.0,2221.0,2222.0,3360.0,3358.0
-481,2225,3357,0,-478.0,-472.0,2222.0,2221.0,3359.0,3360.0
-483,2227,3365,0,-481.0,-478.0,2225.0,2222.0,3357.0,3359.0
-481,2228,3368,0,-483.0,-481.0,2227.0,2225.0,3365.0,3357.0
-478,2229,3370,0,-481.0,-483.0,2228.0,2227.0,3368.0,3365.0
-472,2233,3374,0,-478.0,-481.0,2229.0,2228.0,3370.0,3368.0
-465,2232,3377,0,-472.0,-478.0,2233.0,2229.0,3374.0,3370.0
-462,2233,3375,0,-465.0,-472.0,2232.0,2233.0,3377.0,3374.0
-459,2238,3374,0,-462.0,-465.0,2233.0,2232.0,3375.0,3377.0
-457,2239,3373,0,-459.0,-462.0,2238.0,2233.0,3374.0,3375.0
-452,2239,3375,0,-457.0,-459.0,2239.0,2238.0,3373.0,3374.0
-449,2239,3374,0,-452.0,-457.0,2239.0,2239.0,3375.0,3373.0
-447,2238,3373,0,-449.0,-452.0,2239.0,2239.0,3374.0,3375.0
-448,2235,3372,0,-447.0,-449.0,2238.0,2239.0,3373.0,3374.0
-447,2236,3370,0,-448.0,-447.0,2235.0,2238.0,3372.0,3373.0
-451,2233,3368,0,-447.0,-448.0,2236.0,2235.0,3370.0,3372.0
-452,2231,3369,0,-451.0,-447.0,2233.0,2236.0,3368.0,3370.0
-453,2230,3372,0,-452.0,-451.0,2231.0,2233.0,3369.0,3368.0
-453,2226,3371,0,-453.0,-452.0,2230.0,2231.0,3372.0,3369.0
-453,2227,3372,0,-453.0,-453.0,2226.0,2230.0,3371.0,3372.0
-452,2228,3374,0,-453.0,-453.0,2227.0,2226.0,3372.0,3371.0
-456,2224,3370,0,-452.0,-453.0,2228.0,2227.0,3374.0,3372.0
-452,2226,3367,0,-456.0,-452.0,2224.0,2228.0,3370.0,3374.0
-452,2226,3364,0,-452.0,-456.0,2226.0,2224.0,3367.0,3370.0
-453,2221,3366,0,-452.0,-452.0,2226.0,2226.0,3364.0,3367.0
-452,2225,3364,0,-453.0,-452.0,2221.0,2226.0,3366.0,3364.0
-448,2225,3363,0,-452.0,-453.0,2225.0,2221.0,3364.0,3366.0
-448,2226,3364,0,-448.0,-452.0,2225.0,2225.0,3363.0,3364.0
-446,2233,3363,0,-448.0,-448.0,2226.0,2225.0,3364.0,3363.0
-438,2230,3364,0,-446.0,-448.0,2233.0,2226.0,3363.0,3364.0
-434,2228,3364,0,-438.0,-446.0,2230.0,2233.0,3364.0,3363.0
-431,2226,3365,0,-434.0,-438.0,2228.0,2230.0,3364.0,3364.0
-433,2222,3363,0,-431.0,-434.0,2226.0,2228.0,3365.0,3364.0
-432,2221,3366,0,-433.0,-431.0,2222.0,2226.0,3363.0,3365.0
-432,2218,3366,0,-432.0,-433.0,2221.0,2222.0,3366.0,3363.0
-430,2218,3364,0,-432.0,-432.0,2218.0,2221.0,3366.0,3366.0
-429,2218,3366,0,-430.0,-432.0,2218.0,2218.0,3364.0,3366.0
-429,2215,3369,0,-429.0,-430.0,2218.0,2218.0,3366.0,3364.0
-427,2214,3371,0,-429.0,-429.0,2215.0,2218.0,3369.0,3366.0
-426,2215,3370,0,-427.0,-429.0,2214.0,2215.0,3371.0,3369.0
-427,2213,3370,0,-426.0,-427.0,2215.0,2214.0,3370.0,3371.0
-429,2212,3372,0,-427.0,-426.0,2213.0,2215.0,3370.0,3370.0
-434,2213,3371,0,-429.0,-427.0,2212.0,2213.0,3372.0,3370.0
-430,2212,3370,0,-434.0,-429.0,2213.0,2212.0,3371.0,3372.0
-431,2212,3373,0,-430.0,-434.0,2212.0,2213.0,3370.0,3371.0
-436,2216,3374,0,-431.0,-430.0,2212.0,2212.0,3373.0,3370.0
-439,2215,3375,0,-436.0,-431.0,2216.0,2212.0,3374.0,3373.0
-435,2219,3373,0,-439.0,-436.0,2215.0,2216.0,3375.0,3374.0
-436,2221,3376,0,-435.0,-439.0,2219.0,2215.0,3373.0,3375.0
-438,2224,3377,0,-436.0,-435.0,2221.0,2219.0,3376.0,3373.0
-440,2223,3380,0,-438.0,-436.0,2224.0,2221.0,3377.0,3376.0
-441,2221,3381,0,-440.0,-438.0,2223.0,2224.0,3380.0,3377.0
-440,2218,3381,0,-441.0,-440.0,2221.0,2223.0,3381.0,3380.0
-439,2222,3382,0,-440.0,-441.0,2218.0,2221.0,3381.0,3381.0
-439,2220,3382,0,-439.0,-440.0,2222.0,2218.0,3382.0,3381.0
-439,2221,3383,0,-439.0,-439.0,2220.0,2222.0,3382.0,3382.0
-440,2216,3384,0,-439.0,-439.0,2221.0,2220.0,3383.0,3382.0
-443,2217,3383,0,-440.0,-439.0,2216.0,2221.0,3384.0,3383.0
-446,2217,3378,0,-443.0,-440.0,2217.0,2216.0,3383.0,3384.0
-444,2217,3376,0,-446.0,-443.0,2217.0,2217.0,3378.0,3383.0
-442,2217,3374,0,-444.0,-446.0,2217.0,2217.0,3376.0,3378.0
-444,2217,3375,0,-442.0,-444.0,2217.0,2217.0,3374.0,3376.0
-444,2214,3376,0,-444.0,-442.0,2217.0,2217.0,3375.0,3374.0
-446,2215,3375,0,-444.0,-444.0,2214.0,2217.0,3376.0,3375.0
-448,2211,3375,0,-446.0,-444.0,2215.0,2214.0,3375.0,3376.0
-451,2211,3374,0,-448.0,-446.0,2211.0,2215.0,3375.0,3375.0
-453,2207,3374,0,-451.0,-448.0,2211.0,2211.0,3374.0,3375.0
-455,2206,3370,0,-453.0,-451.0,2207.0,2211.0,3374.0,3374.0
-459,2208,3370,0,-455.0,-453.0,2206.0,2207.0,3370.0,3374.0
-459,2206,3374,0,-459.0,-455.0,2208.0,2206.0,3370.0,3370.0
-459,2212,3375,0,-459.0,-459.0,2206.0,2208.0,3374.0,3370.0
-461,2211,3377,0,-459.0,-459.0,2212.0,2206.0,3375.0,3374.0
-461,2212,3378,0,-461.0,-459.0,2211.0,2212.0,3377.0,3375.0
-462,2215,3376,0,-461.0,-461.0,2212.0,2211.0,3378.0,3377.0
-458,2219,3375,0,-462.0,-461.0,2215.0,2212.0,3376.0,3378.0
-456,2222,3378,0,-458.0,-462.0,2219.0,2215.0,3375.0,3376.0
-455,2222,3375,0,-456.0,-458.0,2222.0,2219.0,3378.0,3375.0
-455,2221,3371,0,-455.0,-456.0,2222.0,2222.0,3375.0,3378.0
-454,2218,3369,0,-455.0,-455.0,2221.0,2222.0,3371.0,3375.0
-453,2221,3369,0,-454.0,-455.0,2218.0,2221.0,3369.0,3371.0
-449,2225,3367,0,-453.0,-454.0,2221.0,2218.0,3369.0,3369.0
-450,2227,3368,0,-449.0,-453.0,2225.0,2221.0,3367.0,3369.0
-448,2223,3368,0,-450.0,-449.0,2227.0,2225.0,3368.0,3367.0
-449,2219,3369,0,-448.0,-450.0,2223.0,2227.0,3368.0,3368.0
-448,2222,3368,0,-449.0,-448.0,2219.0,2223.0,3369.0,3368.0
-451,2225,3370,0,-448.0,-449.0,2222.0,2219.0,3368.0,3369.0
-449,2224,3369,0,-451.0,-448.0,2225.0,2222.0,3370.0,3368.0
-454,2227,3372,0,-449.0,-451.0,2224.0,2225.0,3369.0,3370.0
-458,2226,3370,0,-454.0,-449.0,2227.0,2224.0,3372.0,3369.0
-459,2225,3373,0,-458.0,-454.0,2226.0,2227.0,3370.0,3372.0
-461,2224,3372,0,-459.0,-458.0,2225.0,2226.0,3373.0,3370.0
-463,2222,3373,0,-461.0,-459.0,2224.0,2225.0,3372.0,3373.0
-461,2219,3370,0,-463.0,-461.0,2222.0,2224.0,3373.0,3372.0
-462,2219,3367,0,-461.0,-463.0,2219.0,2222.0,3370.0,3373.0
-466,2225,3368,0,-462.0,-461.0,2219.0,2219.0,3367.0,3370.0
-465,2227,3366,0,-466.0,-462.0,2225.0,2219.0,3368.0,3367.0
-462,2229,3367,0,-465.0,-466.0,2227.0,2225.0,3366.0,3368.0
-461,2234,3370,0,-462.0,-465.0,2229.0,2227.0,3367.0,3366.0
-457,2230,3372,0,-461.0,-462.0,2234.0,2229.0,3370.0,3367.0
-455,2229,3374,0,-457.0,-461.0,2230.0,2234.0,3372.0,3370.0
-455,2230,3375,0,-455.0,-457.0,2229.0,2230.0,3374.0,3372.0
-450,2233,3373,0,-455.0,-455.0,2230.0,2229.0,3375.0,3374.0
-450,2230,3373,0,-450.0,-455.0,2233.0,2230.0,3373.0,3375.0
-449,2234,3373,0,-450.0,-450.0,2230.0,2233.0,3373.0,3373.0
-447,2236,3372,0,-449.0,-450.0,2234.0,2230.0,3373.0,3373.0
-444,2231,3369,0,-447.0,-449.0,2236.0,2234.0,3372.0,3373.0
-443,2230,3370,0,-444.0,-447.0,2231.0,2236.0,3369.0,3372.0
-447,2229,3368,0,-443.0,-444.0,2230.0,2231.0,3370.0,3369.0
-450,2230,3369,0,-447.0,-443.0,2229.0,2230.0,3368.0,3370.0
-445,2229,3370,0,-450.0,-447.0,2230.0,2229.0,3369.0,3368.0
-442,2224,3369,0,-445.0,-450.0,2229.0,2230.0,3370.0,3369.0
-443,2223,3368,0,-442.0,-445.0,2224.0,2229.0,3369.0,3370.0
-443,2222,3369,0,-443.0,-442.0,2223.0,2224.0,3368.0,3369.0
-446,2221,3369,0,-443.0,-443.0,2222.0,2223.0,3369.0,3368.0
-445,2224,3367,0,-446.0,-443.0,2221.0,2222.0,3369.0,3369.0
-443,2222,3366,0,-445.0,-446.0,2224.0,2221.0,3367.0,3369.0
-448,2219,3366,0,-443.0,-445.0,2222.0,2224.0,3366.0,3367.0
-450,2221,3362,0,-448.0,-443.0,2219.0,2222.0,3366.0,3366.0
-447,2224,3362,0,-450.0,-448.0,2221.0,2219.0,3362.0,3366.0
-447,2223,3361,0,-447.0,-450.0,2224.0,2221.0,3362.0,3362.0
-446,2221,3355,0,-447.0,-447.0,2223.0,2224.0,3361.0,3362.0
-446,2220,3355,0,-446.0,-447.0,2221.0,2223.0,3355.0,3361.0
-447,2217,3348,0,-446.0,-446.0,2220.0,2221.0,3355.0,3355.0
