accelerometer_x,accelerometer_y,accelerometer_z,fall,x_lag_1,x_lag_2,y_lag_1,y_lag_2,z_lag_1,z_lag_2
3873,1077,596,0,,,,,,
3878,1085,606,0,3873.0,,1077.0,,596.0,
3878,1093,613,0,3878.0,3873.0,1085.0,1077.0,606.0,596.0
3875,1098,614,0,3878.0,3878.0,1093.0,1085.0,613.0,606.0
3870,1098,613,0,3875.0,3878.0,1098.0,1093.0,614.0,613.0
3860,1094,614,0,3870.0,3875.0,1098.0,1098.0,613.0,614.0
3850,1084,609,0,3860.0,3870.0,1094.0,1098.0,614.0,613.0
3841,1080,601,0,3850.0,3860.0,1084.0,1094.0,609.0,614.0
3836,1071,600,0,3841.0,3850.0,1080.0,1084.0,601.0,609.0
3831,1058,595,0,3836.0,3841.0,1071.0,1080.0,600.0,601.0
3824,1049,596,0,3831.0,3836.0,1058.0,1071.0,595.0,600.0
3825,1039,591,0,3824.0,3831.0,1049.0,1058.0,596.0,595.0
3828,1033,591,0,3825.0,3824.0,1039.0,1049.0,591.0,596.0
3833,1034,590,0,3828.0,3825.0,1033.0,1039.0,591.0,591.0
3839,1031,593,0,3833.0,3828.0,1034.0,1033.0,590.0,591.0
3849,1035,594,0,3839.0,3833.0,1031.0,1034.0,593.0,590.0
3862,1038,600,0,3849.0,3839.0,1035.0,1031.0,594.0,593.0
3874,1048,606,0,3862.0,3849.0,1038.0,1035.0,600.0,594.0
3879,1051,611,0,3874.0,3862.0,1048.0,1038.0,606.0,600.0
3885,1050,614,0,3879.0,3874.0,1051.0,1048.0,611.0,606.0
3886,1052,618,0,3885.0,3879.0,1050.0,1051.0,614.0,611.0
3884,1052,618,0,3886.0,3885.0,1052.0,1050.0,618.0,614.0
3881,1045,618,0,3884.0,3886.0,1052.0,1052.0,618.0,618.0
3877,1039,620,0,3881.0,3884.0,1045.0,1052.0,618.0,618.0
3871,1029,614,0,3877.0,3881.0,1039.0,1045.0,620.0,618.0
3861,1015,609,0,3871.0,3877.0,1029.0,1039.0,614.0,620.0
3854,1007,602,0,3861.0,3871.0,1015.0,1029.0,609.0,614.0
3846,998,596,0,3854.0,3861.0,1007.0,1015.0,602.0,609.0
3839,988,592,0,3846.0,3854.0,998.0,1007.0,596.0,602.0
3839,979,588,0,3839.0,3846.0,988.0,998.0,592.0,596.0
3843,972,582,0,3839.0,3839.0,979.0,988.0,588.0,592.0
3847,968,584,0,3843.0,3839.0,972.0,979.0,582.0,588.0
3862,970,588,0,3847.0,3843.0,968.0,972.0,584.0,582.0
3870,976,596,0,3862.0,3847.0,970.0,968.0,588.0,584.0
3878,981,606,0,3870.0,3862.0,976.0,970.0,596.0,588.0
3892,991,611,0,3878.0,3870.0,981.0,976.0,606.0,596.0
3899,997,615,0,3892.0,3878.0,991.0,981.0,611.0,606.0
3899,1001,624,0,3899.0,3892.0,997.0,991.0,615.0,611.0
3901,1010,628,0,3899.0,3899.0,1001.0,997.0,624.0,615.0
3898,1013,632,0,3901.0,3899.0,1010.0,1001.0,628.0,624.0
3894,1017,625,0,3898.0,3901.0,1013.0,1010.0,632.0,628.0
3886,1012,620,0,3894.0,3898.0,1017.0,1013.0,625.0,632.0
3879,1005,614,0,3886.0,3894.0,1012.0,1017.0,620.0,625.0
3871,1002,608,0,3879.0,3886.0,1005.0,1012.0,614.0,620.0
3863,1000,604,0,3871.0,3879.0,1002.0,1005.0,608.0,614.0
3859,998,601,0,3863.0,3871.0,1000.0,1002.0,604.0,608.0
3852,996,594,0,3859.0,3863.0,998.0,1000.0,601.0,604.0
3850,992,587,0,3852.0,3859.0,996.0,998.0,594.0,601.0
3849,993,586,0,3850.0,3852.0,992.0,996.0,587.0,594.0
3849,997,586,0,3849.0,3850.0,993.0,992.0,586.0,587.0
3852,995,578,0,3849.0,3849.0,997.0,993.0,586.0,586.0
3854,998,585,0,3852.0,3849.0,995.0,997.0,578.0,586.0
3861,998,588,0,3854.0,3852.0,998.0,995.0,585.0,578.0
3866,997,589,0,3861.0,3854.0,998.0,998.0,588.0,585.0
3870,999,593,0,3866.0,3861.0,997.0,998.0,589.0,588.0
3874,1001,596,0,3870.0,3866.0,999.0,997.0,593.0,589.0
3871,1003,595,0,3874.0,3870.0,1001.0,999.0,596.0,593.0
3869,1005,593,0,3871.0,3874.0,1003.0,1001.0,595.0,596.0
3868,1010,590,0,3869.0,3871.0,1005.0,1003.0,593.0,595.0
3864,1014,588,0,3868.0,3869.0,1010.0,1005.0,590.0,593.0
3864,1017,585,0,3864.0,3868.0,1014.0,1010.0,588.0,590.0
3865,1017,582,0,3864.0,3864.0,1017.0,1014.0,585.0,588.0
3866,1017,581,0,3865.0,3864.0,1017.0,1017.0,582.0,585.0
3868,1019,579,0,3866.0,3865.0,1017.0,1017.0,581.0,582.0
3870,1018,580,0,3868.0,3866.0,1019.0,1017.0,579.0,581.0
3868,1019,584,0,3870.0,3868.0,1018.0,1019.0,580.0,579.0
3865,1018,590,0,3868.0,3870.0,1019.0,1018.0,584.0,580.0
3862,1021,595,0,3865.0,3868.0,1018.0,1019.0,590.0,584.0
3862,1022,601,0,3862.0,3865.0,1021.0,1018.0,595.0,590.0
3855,1016,601,0,3862.0,3862.0,1022.0,1021.0,601.0,595.0
3853,1018,600,0,3855.0,3862.0,1016.0,1022.0,601.0,601.0
3851,1016,600,0,3853.0,3855.0,1018.0,1016.0,600.0,601.0
3849,1016,597,0,3851.0,3853.0,1016.0,1018.0,600.0,600.0
3850,1017,598,0,3849.0,3851.0,1016.0,1016.0,597.0,600.0
3849,1018,601,0,3850.0,3849.0,1017.0,1016.0,598.0,597.0
3848,1022,602,0,3849.0,3850.0,1018.0,1017.0,601.0,598.0
3851,1026,608,0,3848.0,3849.0,1022.0,1018.0,602.0,601.0
3853,1026,616,0,3851.0,3848.0,1026.0,1022.0,608.0,602.0
3861,1036,628,0,3853.0,3851.0,1026.0,1026.0,616.0,608.0
3858,1046,635,0,3861.0,3853.0,1036.0,1026.0,628.0,616.0
3859,1051,637,0,3858.0,3861.0,1046.0,1036.0,635.0,628.0
3861,1053,639,0,3859.0,3858.0,1051.0,1046.0,637.0,635.0
3857,1056,635,0,3861.0,3859.0,1053.0,1051.0,639.0,637.0
3853,1062,634,0,3857.0,3861.0,1056.0,1053.0,635.0,639.0
3850,1066,632,0,3853.0,3857.0,1062.0,1056.0,634.0,635.0
3845,1069,627,0,3850.0,3853.0,1066.0,1062.0,632.0,634.0
3842,1060,631,0,3845.0,3850.0,1069.0,1066.0,627.0,632.0
3839,1055,631,0,3842.0,3845.0,1060.0,1069.0,631.0,627.0
3843,1047,629,0,3839.0,3842.0,1055.0,1060.0,631.0,631.0
3841,1036,627,0,3843.0,3839.0,1047.0,1055.0,629.0,631.0
3845,1028,626,0,3841.0,3843.0,1036.0,1047.0,627.0,629.0
3846,1021,626,0,3845.0,3841.0,1028.0,1036.0,626.0,627.0
3846,1013,626,0,3846.0,3845.0,1021.0,1028.0,626.0,626.0
3846,1009,626,0,3846.0,3846.0,1013.0,1021.0,626.0,626.0
3846,1012,628,0,3846.0,3846.0,1009.0,1013.0,626.0,626.0
3850,1014,629,0,3846.0,3846.0,1012.0,1009.0,628.0,626.0
3851,1020,629,0,3850.0,3846.0,1014.0,1012.0,629.0,628.0
3853,1026,629,0,3851.0,3850.0,1020.0,1014.0,629.0,629.0
3856,1031,628,0,3853.0,3851.0,1026.0,1020.0,629.0,629.0
3853,1033,632,0,3856.0,3853.0,1031.0,1026.0,628.0,629.0
3857,1036,635,0,3853.0,3856.0,1033.0,1031.0,632.0,628.0
3857,1044,637,0,3857.0,3853.0,1036.0,1033.0,635.0,632.0
3862,1042,635,0,3857.0,3857.0,1044.0,1036.0,637.0,635.0
3864,1037,635,0,3862.0,3857.0,1042.0,1044.0,635.0,637.0
3870,1033,637,0,3864.0,3862.0,1037.0,1042.0,635.0,635.0
3873,1028,635,0,3870.0,3864.0,1033.0,1037.0,637.0,635.0
3875,1023,629,0,3873.0,3870.0,1028.0,1033.0,635.0,637.0
3880,1021,628,0,3875.0,3873.0,1023.0,1028.0,629.0,635.0
3884,1014,627,0,3880.0,3875.0,1021.0,1023.0,628.0,629.0
3882,1006,626,0,3884.0,3880.0,1014.0,1021.0,627.0,628.0
3879,1001,625,0,3882.0,3884.0,1006.0,1014.0,626.0,627.0
3878,998,619,0,3879.0,3882.0,1001.0,1006.0,625.0,626.0
3875,998,618,0,3878.0,3879.0,998.0,1001.0,619.0,625.0
3870,996,616,0,3875.0,3878.0,998.0,998.0,618.0,619.0
3864,997,614,0,3870.0,3875.0,996.0,998.0,616.0,618.0
3857,1001,611,0,3864.0,3870.0,997.0,996.0,614.0,616.0
3854,1002,610,0,3857.0,3864.0,1001.0,997.0,611.0,614.0
3852,1005,606,0,3854.0,3857.0,1002.0,1001.0,610.0,611.0
3854,1006,605,0,3852.0,3854.0,1005.0,1002.0,606.0,610.0
3854,1008,605,0,3854.0,3852.0,1006.0,1005.0,605.0,606.0
3856,1015,609,0,3854.0,3854.0,1008.0,1006.0,605.0,605.0
3858,1025,608,0,3856.0,3854.0,1015.0,1008.0,609.0,605.0
3864,1028,608,0,3858.0,3856.0,1025.0,1015.0,608.0,609.0
3867,1034,608,0,3864.0,3858.0,1028.0,1025.0,608.0,608.0
3872,1037,608,0,3867.0,3864.0,1034.0,1028.0,608.0,608.0
3872,1046,601,0,3872.0,3867.0,1037.0,1034.0,608.0,608.0
3874,1046,598,0,3872.0,3872.0,1046.0,1037.0,601.0,608.0
3874,1043,597,0,3874.0,3872.0,1046.0,1046.0,598.0,601.0
3868,1038,596,0,3874.0,3874.0,1043.0,1046.0,597.0,598.0
3867,1032,594,0,3868.0,3874.0,1038.0,1043.0,596.0,597.0
3864,1030,597,0,3867.0,3868.0,1032.0,1038.0,594.0,596.0
3860,1021,601,0,3864.0,3867.0,1030.0,1032.0,597.0,594.0
3853,1012,607,0,3860.0,3864.0,1021.0,1030.0,601.0,597.0
3847,1003,612,0,3853.0,3860.0,1012.0,1021.0,607.0,601.0
3847,996,615,0,3847.0,3853.0,1003.0,1012.0,612.0,607.0
3847,988,614,0,3847.0,3847.0,996.0,1003.0,615.0,612.0
3845,983,611,0,3847.0,3847.0,988.0,996.0,614.0,615.0
3848,973,603,0,3845.0,3847.0,983.0,988.0,611.0,614.0
3852,964,599,0,3848.0,3845.0,973.0,983.0,603.0,611.0
3858,959,593,0,3852.0,3848.0,964.0,973.0,599.0,603.0
3864,956,584,0,3858.0,3852.0,959.0,964.0,593.0,599.0
3876,953,579,0,3864.0,3858.0,956.0,959.0,584.0,593.0
3880,952,573,0,3876.0,3864.0,953.0,956.0,579.0,584.0
3883,957,571,0,3880.0,3876.0,952.0,953.0,573.0,579.0
3885,965,571,0,3883.0,3880.0,957.0,952.0,571.0,573.0
3887,978,571,0,3885.0,3883.0,965.0,957.0,571.0,571.0
3886,997,577,0,3887.0,3885.0,978.0,965.0,571.0,571.0
3887,1010,576,0,3886.0,3887.0,997.0,978.0,577.0,571.0
3885,1019,574,0,3887.0,3886.0,1010.0,997.0,576.0,577.0
3885,1030,573,0,3885.0,3887.0,1019.0,1010.0,574.0,576.0
3884,1032,571,0,3885.0,3885.0,1030.0,1019.0,573.0,574.0
3882,1032,568,0,3884.0,3885.0,1032.0,1030.0,571.0,573.0
3880,1035,564,0,3882.0,3884.0,1032.0,1032.0,568.0,571.0
3880,1035,568,0,3880.0,3882.0,1035.0,1032.0,564.0,568.0
3882,1033,568,0,3880.0,3880.0,1035.0,1035.0,568.0,564.0
3882,1028,566,0,3882.0,3880.0,1033.0,1035.0,568.0,568.0
3883,1023,566,0,3882.0,3882.0,1028.0,1033.0,566.0,568.0
3884,1021,567,0,3883.0,3882.0,1023.0,1028.0,566.0,566.0
3889,1012,567,0,3884.0,3883.0,1021.0,1023.0,567.0,566.0
3895,1005,567,0,3889.0,3884.0,1012.0,1021.0,567.0,567.0
3902,999,569,0,3895.0,3889.0,1005.0,1012.0,567.0,567.0
3908,993,568,0,3902.0,3895.0,999.0,1005.0,569.0,567.0
3910,988,570,0,3908.0,3902.0,993.0,999.0,568.0,569.0
3911,981,570,0,3910.0,3908.0,988.0,993.0,570.0,568.0
3914,975,575,0,3911.0,3910.0,981.0,988.0,570.0,570.0
3915,970,574,0,3914.0,3911.0,975.0,981.0,575.0,570.0
3915,968,582,0,3915.0,3914.0,970.0,975.0,574.0,575.0
3913,965,584,0,3915.0,3915.0,968.0,970.0,582.0,574.0
3910,964,587,0,3913.0,3915.0,965.0,968.0,584.0,582.0
3900,962,587,0,3910.0,3913.0,964.0,965.0,587.0,584.0
3891,964,588,0,3900.0,3910.0,962.0,964.0,587.0,587.0
3886,970,582,0,3891.0,3900.0,964.0,962.0,588.0,587.0
3873,976,585,0,3886.0,3891.0,970.0,964.0,582.0,588.0
3864,985,583,0,3873.0,3886.0,976.0,970.0,585.0,582.0
3855,992,576,0,3864.0,3873.0,985.0,976.0,583.0,585.0
3846,995,573,0,3855.0,3864.0,992.0,985.0,576.0,583.0
3836,1001,568,0,3846.0,3855.0,995.0,992.0,573.0,576.0
3836,1009,567,0,3836.0,3846.0,1001.0,995.0,568.0,573.0
3833,1016,564,0,3836.0,3836.0,1009.0,1001.0,567.0,568.0
3835,1019,564,0,3833.0,3836.0,1016.0,1009.0,564.0,567.0
3840,1024,569,0,3835.0,3833.0,1019.0,1016.0,564.0,564.0
3845,1024,572,0,3840.0,3835.0,1024.0,1019.0,569.0,564.0
3853,1023,578,0,3845.0,3840.0,1024.0,1024.0,572.0,569.0
3862,1024,580,0,3853.0,3845.0,1023.0,1024.0,578.0,572.0
3870,1023,587,0,3862.0,3853.0,1024.0,1023.0,580.0,578.0
3877,1023,590,0,3870.0,3862.0,1023.0,1024.0,587.0,580.0
3881,1019,593,0,3877.0,3870.0,1023.0,1023.0,590.0,587.0
3882,1013,588,0,3881.0,3877.0,1019.0,1023.0,593.0,590.0
3881,1006,585,0,3882.0,3881.0,1013.0,1019.0,588.0,593.0
3879,999,581,0,3881.0,3882.0,1006.0,1013.0,585.0,588.0
3875,997,576,0,3879.0,3881.0,999.0,1006.0,581.0,585.0
3871,994,572,0,3875.0,3879.0,997.0,999.0,576.0,581.0
3865,993,572,0,3871.0,3875.0,994.0,997.0,572.0,576.0
3862,992,575,0,3865.0,3871.0,993.0,994.0,572.0,572.0
3861,991,571,0,3862.0,3865.0,992.0,993.0,575.0,572.0
3860,993,574,0,3861.0,3862.0,991.0,992.0,571.0,575.0
3857,997,578,0,3860.0,3861.0,993.0,991.0,574.0,571.0
3856,999,582,0,3857.0,3860.0,997.0,993.0,578.0,574.0
3859,999,582,0,3856.0,3857.0,999.0,997.0,582.0,578.0
3859,1001,588,0,3859.0,3856.0,999.0,999.0,582.0,582.0
3860,1001,593,0,3859.0,3859.0,1001.0,999.0,588.0,582.0
3863,1002,597,0,3860.0,3859.0,1001.0,1001.0,593.0,588.0
3865,999,600,0,3863.0,3860.0,1002.0,1001.0,597.0,593.0
3865,999,598,0,3865.0,3863.0,999.0,1002.0,600.0,597.0
3871,996,598,0,3865.0,3865.0,999.0,999.0,598.0,600.0
3875,995,602,0,3871.0,3865.0,996.0,999.0,598.0,598.0
3878,994,603,0,3875.0,3871.0,995.0,996.0,602.0,598.0
3882,993,607,0,3878.0,3875.0,994.0,995.0,603.0,602.0
3881,999,609,0,3882.0,3878.0,993.0,994.0,607.0,603.0
3882,1008,611,0,3881.0,3882.0,999.0,993.0,609.0,607.0
3885,1014,614,0,3882.0,3881.0,1008.0,999.0,611.0,609.0
3885,1022,621,0,3885.0,3882.0,1014.0,1008.0,614.0,611.0
3882,1027,624,0,3885.0,3885.0,1022.0,1014.0,621.0,614.0
3879,1029,623,0,3882.0,3885.0,1027.0,1022.0,624.0,621.0
3877,1033,624,0,3879.0,3882.0,1029.0,1027.0,623.0,624.0
3871,1034,625,0,3877.0,3879.0,1033.0,1029.0,624.0,623.0
3860,1035,627,0,3871.0,3877.0,1034.0,1033.0,625.0,624.0
3858,1031,626,0,3860.0,3871.0,1035.0,1034.0,627.0,625.0
3851,1025,627,0,3858.0,3860.0,1031.0,1035.0,626.0,627.0
3849,1022,628,0,3851.0,3858.0,1025.0,1031.0,627.0,626.0
3851,1013,627,0,3849.0,3851.0,1022.0,1025.0,628.0,627.0
3853,1010,623,0,3851.0,3849.0,1013.0,1022.0,627.0,628.0
3857,1004,616,0,3853.0,3851.0,1010.0,1013.0,623.0,627.0
3867,1001,612,0,3857.0,3853.0,1004.0,1010.0,616.0,623.0
3874,1002,611,0,3867.0,3857.0,1001.0,1004.0,612.0,616.0
3880,999,606,0,3874.0,3867.0,1002.0,1001.0,611.0,612.0
3884,999,597,0,3880.0,3874.0,999.0,1002.0,606.0,611.0
3882,993,593,0,3884.0,3880.0,999.0,999.0,597.0,606.0
3873,993,591,0,3882.0,3884.0,993.0,999.0,593.0,597.0
3866,995,588,0,3873.0,3882.0,993.0,993.0,591.0,593.0
3860,996,593,0,3866.0,3873.0,995.0,993.0,588.0,591.0
3854,1001,594,0,3860.0,3866.0,996.0,995.0,593.0,588.0
3852,1003,593,0,3854.0,3860.0,1001.0,996.0,594.0,593.0
3852,1002,591,0,3852.0,3854.0,1003.0,1001.0,593.0,594.0
3851,1000,588,0,3852.0,3852.0,1002.0,1003.0,591.0,593.0
3850,997,589,0,3851.0,3852.0,1000.0,1002.0,588.0,591.0
3848,991,591,0,3850.0,3851.0,997.0,1000.0,589.0,588.0
3847,983,586,0,3848.0,3850.0,991.0,997.0,591.0,589.0
3848,973,576,0,3847.0,3848.0,983.0,991.0,586.0,591.0
3850,968,566,0,3848.0,3847.0,973.0,983.0,576.0,586.0
3854,969,558,0,3850.0,3848.0,968.0,973.0,566.0,576.0
3861,972,550,0,3854.0,3850.0,969.0,968.0,558.0,566.0
3866,985,561,0,3861.0,3854.0,972.0,969.0,550.0,558.0
3869,1004,585,0,3866.0,3861.0,985.0,972.0,561.0,550.0
3867,1037,610,0,3869.0,3866.0,1004.0,985.0,585.0,561.0
3868,1055,612,0,3867.0,3869.0,1037.0,1004.0,610.0,585.0
3874,1067,592,0,3868.0,3867.0,1055.0,1037.0,612.0,610.0
3887,1065,558,0,3874.0,3868.0,1067.0,1055.0,592.0,612.0
3896,1060,520,0,3887.0,3874.0,1065.0,1067.0,558.0,592.0
3906,1050,495,0,3896.0,3887.0,1060.0,1065.0,520.0,558.0
3910,1045,480,0,3906.0,3896.0,1050.0,1060.0,495.0,520.0
3913,1045,479,0,3910.0,3906.0,1045.0,1050.0,480.0,495.0
3915,1044,486,0,3913.0,3910.0,1045.0,1045.0,479.0,480.0
3916,1045,493,0,3915.0,3913.0,1044.0,1045.0,486.0,479.0
3919,1051,508,0,3916.0,3915.0,1045.0,1044.0,493.0,486.0
3916,1056,520,0,3919.0,3916.0,1051.0,1045.0,508.0,493.0
3913,1052,533,0,3916.0,3919.0,1056.0,1051.0,520.0,508.0
3908,1049,536,0,3913.0,3916.0,1052.0,1056.0,533.0,520.0
3898,1046,542,0,3908.0,3913.0,1049.0,1052.0,536.0,533.0
3883,1037,542,0,3898.0,3908.0,1046.0,1049.0,542.0,536.0
3864,1023,537,0,3883.0,3898.0,1037.0,1046.0,542.0,542.0
3851,1010,531,0,3864.0,3883.0,1023.0,1037.0,537.0,542.0
3837,998,529,0,3851.0,3864.0,1010.0,1023.0,531.0,537.0
3830,987,526,0,3837.0,3851.0,998.0,1010.0,529.0,531.0
3825,980,527,0,3830.0,3837.0,987.0,998.0,526.0,529.0
3823,974,527,0,3825.0,3830.0,980.0,987.0,527.0,526.0
3830,976,530,0,3823.0,3825.0,974.0,980.0,527.0,527.0
3839,985,536,0,3830.0,3823.0,976.0,974.0,530.0,527.0
3857,998,547,0,3839.0,3830.0,985.0,976.0,536.0,530.0
3866,1013,555,0,3857.0,3839.0,998.0,985.0,547.0,536.0
3875,1027,565,0,3866.0,3857.0,1013.0,998.0,555.0,547.0
3890,1040,569,0,3875.0,3866.0,1027.0,1013.0,565.0,555.0
3897,1054,578,0,3890.0,3875.0,1040.0,1027.0,569.0,565.0
3898,1063,586,0,3897.0,3890.0,1054.0,1040.0,578.0,569.0
3900,1068,594,0,3898.0,3897.0,1063.0,1054.0,586.0,578.0
3895,1065,602,0,3900.0,3898.0,1068.0,1063.0,594.0,586.0
3887,1061,604,0,3895.0,3900.0,1065.0,1068.0,602.0,594.0
3883,1048,598,0,3887.0,3895.0,1061.0,1065.0,604.0,602.0
3872,1031,590,0,3883.0,3887.0,1048.0,1061.0,598.0,604.0
3864,1011,583,0,3872.0,3883.0,1031.0,1048.0,590.0,598.0
3857,995,573,0,3864.0,3872.0,1011.0,1031.0,583.0,590.0
3851,981,565,0,3857.0,3864.0,995.0,1011.0,573.0,583.0
3845,976,561,0,3851.0,3857.0,981.0,995.0,565.0,573.0
3837,976,559,0,3845.0,3851.0,976.0,981.0,561.0,565.0
3841,975,565,0,3837.0,3845.0,976.0,976.0,559.0,561.0
3844,984,569,0,3841.0,3837.0,975.0,976.0,565.0,559.0
3850,988,579,0,3844.0,3841.0,984.0,975.0,569.0,565.0
3864,996,590,0,3850.0,3844.0,988.0,984.0,579.0,569.0
3872,1007,597,0,3864.0,3850.0,996.0,988.0,590.0,579.0
3883,1014,597,0,3872.0,3864.0,1007.0,996.0,597.0,590.0
3885,1017,598,0,3883.0,3872.0,1014.0,1007.0,597.0,597.0
3891,1017,596,0,3885.0,3883.0,1017.0,1014.0,598.0,597.0
3899,1016,593,0,3891.0,3885.0,1017.0,1017.0,596.0,598.0
3903,1014,593,0,3899.0,3891.0,1016.0,1017.0,593.0,596.0
3903,1014,590,0,3903.0,3899.0,1014.0,1016.0,593.0,593.0
3903,1005,586,0,3903.0,3903.0,1014.0,1014.0,590.0,593.0
3896,1000,581,0,3903.0,3903.0,1005.0,1014.0,586.0,590.0
3892,997,579,0,3896.0,3903.0,1000.0,1005.0,581.0,586.0
3887,997,574,0,3892.0,3896.0,997.0,1000.0,579.0,581.0
3880,998,578,0,3887.0,3892.0,997.0,997.0,574.0,579.0
3872,1003,578,0,3880.0,3887.0,998.0,997.0,578.0,574.0
3866,1009,577,0,3872.0,3880.0,1003.0,998.0,578.0,578.0
3865,1014,574,0,3866.0,3872.0,1009.0,1003.0,577.0,578.0
3858,1018,571,0,3865.0,3866.0,1014.0,1009.0,574.0,577.0
3857,1024,570,0,3858.0,3865.0,1018.0,1014.0,571.0,574.0
3854,1024,568,0,3857.0,3858.0,1024.0,1018.0,570.0,571.0
3858,1022,566,0,3854.0,3857.0,1024.0,1024.0,568.0,570.0
3860,1022,564,0,3858.0,3854.0,1022.0,1024.0,566.0,568.0
3860,1026,567,0,3860.0,3858.0,1022.0,1022.0,564.0,566.0
3864,1025,569,0,3860.0,3860.0,1026.0,1022.0,567.0,564.0
3867,1022,575,0,3864.0,3860.0,1025.0,1026.0,569.0,567.0
3866,1022,578,0,3867.0,3864.0,1022.0,1025.0,575.0,569.0
3865,1018,580,0,3866.0,3867.0,1022.0,1022.0,578.0,575.0
3867,1013,582,0,3865.0,3866.0,1018.0,1022.0,580.0,578.0
3863,1005,581,0,3867.0,3865.0,1013.0,1018.0,582.0,580.0
3862,997,578,0,3863.0,3867.0,1005.0,1013.0,581.0,582.0
3858,991,571,0,3862.0,3863.0,997.0,1005.0,578.0,581.0
3859,981,566,0,3858.0,3862.0,991.0,997.0,571.0,578.0
3861,972,564,0,3859.0,3858.0,981.0,991.0,566.0,571.0
3862,968,565,0,3861.0,3859.0,972.0,981.0,564.0,566.0
3866,962,558,0,3862.0,3861.0,968.0,972.0,565.0,564.0
3870,961,560,0,3866.0,3862.0,962.0,968.0,558.0,565.0
3873,962,559,0,3870.0,3866.0,961.0,962.0,560.0,558.0
3878,966,563,0,3873.0,3870.0,962.0,961.0,559.0,560.0
3881,972,563,0,3878.0,3873.0,966.0,962.0,563.0,559.0
3886,981,566,0,3881.0,3878.0,972.0,966.0,563.0,563.0
3885,989,569,0,3886.0,3881.0,981.0,972.0,566.0,563.0
3885,999,566,0,3885.0,3886.0,989.0,981.0,569.0,566.0
3882,1007,561,0,3885.0,3885.0,999.0,989.0,566.0,569.0
3885,1010,563,0,3882.0,3885.0,1007.0,999.0,561.0,566.0
3884,1013,561,0,3885.0,3882.0,1010.0,1007.0,563.0,561.0
3879,1013,561,0,3884.0,3885.0,1013.0,1010.0,561.0,563.0
3871,1007,561,0,3879.0,3884.0,1013.0,1013.0,561.0,561.0
3865,1003,557,0,3871.0,3879.0,1007.0,1013.0,561.0,561.0
3859,998,555,0,3865.0,3871.0,1003.0,1007.0,557.0,561.0
3856,990,555,0,3859.0,3865.0,998.0,1003.0,555.0,557.0
3852,988,552,0,3856.0,3859.0,990.0,998.0,555.0,555.0
3851,986,549,0,3852.0,3856.0,988.0,990.0,552.0,555.0
3854,987,548,0,3851.0,3852.0,986.0,988.0,549.0,552.0
3854,994,548,0,3854.0,3851.0,987.0,986.0,548.0,549.0
3857,1004,547,0,3854.0,3854.0,994.0,987.0,548.0,548.0
3858,1014,554,0,3857.0,3854.0,1004.0,994.0,547.0,548.0
3864,1022,558,0,3858.0,3857.0,1014.0,1004.0,554.0,547.0
3872,1029,564,0,3864.0,3858.0,1022.0,1014.0,558.0,554.0
3884,1026,566,0,3872.0,3864.0,1029.0,1022.0,564.0,558.0
3893,1021,567,0,3884.0,3872.0,1026.0,1029.0,566.0,564.0
3904,1016,569,0,3893.0,3884.0,1021.0,1026.0,567.0,566.0
3911,1010,567,0,3904.0,3893.0,1016.0,1021.0,569.0,567.0
3912,1001,565,0,3911.0,3904.0,1010.0,1016.0,567.0,569.0
3911,993,568,0,3912.0,3911.0,1001.0,1010.0,565.0,567.0
3910,981,566,0,3911.0,3912.0,993.0,1001.0,568.0,565.0
3907,971,559,0,3910.0,3911.0,981.0,993.0,566.0,568.0
3905,969,555,0,3907.0,3910.0,971.0,981.0,559.0,566.0
3897,959,548,0,3905.0,3907.0,969.0,971.0,555.0,559.0
3894,955,543,0,3897.0,3905.0,959.0,969.0,548.0,555.0
3888,955,538,0,3894.0,3897.0,955.0,959.0,543.0,548.0
3882,956,538,0,3888.0,3894.0,955.0,955.0,538.0,543.0
3876,956,539,0,3882.0,3888.0,956.0,955.0,538.0,538.0
3875,953,542,0,3876.0,3882.0,956.0,956.0,539.0,538.0
3876,956,547,0,3875.0,3876.0,953.0,956.0,542.0,539.0
3879,956,549,0,3876.0,3875.0,956.0,953.0,547.0,542.0
3877,960,555,0,3879.0,3876.0,956.0,956.0,549.0,547.0
3878,964,558,0,3877.0,3879.0,960.0,956.0,555.0,549.0
3879,966,561,0,3878.0,3877.0,964.0,960.0,558.0,555.0
3883,971,557,0,3879.0,3878.0,966.0,964.0,561.0,558.0
3884,969,547,0,3883.0,3879.0,971.0,966.0,557.0,561.0
3884,969,544,0,3884.0,3883.0,969.0,971.0,547.0,557.0
3884,966,547,0,3884.0,3884.0,969.0,969.0,544.0,547.0
3880,966,554,0,3884.0,3884.0,966.0,969.0,547.0,544.0
3876,964,558,0,3880.0,3884.0,966.0,966.0,554.0,547.0
3866,963,565,0,3876.0,3880.0,964.0,966.0,558.0,554.0
3862,962,565,0,3866.0,3876.0,963.0,964.0,565.0,558.0
3858,962,563,0,3862.0,3866.0,962.0,963.0,565.0,565.0
3860,957,555,0,3858.0,3862.0,962.0,962.0,563.0,565.0
3868,956,546,0,3860.0,3858.0,957.0,962.0,555.0,563.0
3875,961,537,0,3868.0,3860.0,956.0,957.0,546.0,555.0
3885,966,531,0,3875.0,3868.0,961.0,956.0,537.0,546.0
3894,972,532,0,3885.0,3875.0,966.0,961.0,531.0,537.0
3904,979,537,0,3894.0,3885.0,972.0,966.0,532.0,531.0
3911,986,544,0,3904.0,3894.0,979.0,972.0,537.0,532.0
3920,991,547,0,3911.0,3904.0,986.0,979.0,544.0,537.0
3924,994,549,0,3920.0,3911.0,991.0,986.0,547.0,544.0
3926,989,554,0,3924.0,3920.0,994.0,991.0,549.0,547.0
3924,985,548,0,3926.0,3924.0,989.0,994.0,554.0,549.0
3920,983,536,0,3924.0,3926.0,985.0,989.0,548.0,554.0
3913,975,525,0,3920.0,3924.0,983.0,985.0,536.0,548.0
3905,969,513,0,3913.0,3920.0,975.0,983.0,525.0,536.0
3902,964,505,0,3905.0,3913.0,969.0,975.0,513.0,525.0
3900,956,502,0,3902.0,3905.0,964.0,969.0,505.0,513.0
3895,948,505,0,3900.0,3902.0,956.0,964.0,502.0,505.0
3895,944,516,0,3895.0,3900.0,948.0,956.0,505.0,502.0
3899,945,524,0,3895.0,3895.0,944.0,948.0,516.0,505.0
3903,938,523,0,3899.0,3895.0,945.0,944.0,524.0,516.0
3909,939,524,0,3903.0,3899.0,938.0,945.0,523.0,524.0
3916,936,521,0,3909.0,3903.0,939.0,938.0,524.0,523.0
3925,937,521,0,3916.0,3909.0,936.0,939.0,521.0,524.0
3932,942,520,0,3925.0,3916.0,937.0,936.0,521.0,521.0
3931,946,516,0,3932.0,3925.0,942.0,937.0,520.0,521.0
3930,954,520,0,3931.0,3932.0,946.0,942.0,516.0,520.0
3930,965,520,0,3930.0,3931.0,954.0,946.0,520.0,516.0
3925,972,520,0,3930.0,3930.0,965.0,954.0,520.0,520.0
3917,977,522,0,3925.0,3930.0,972.0,965.0,520.0,520.0
3911,983,525,0,3917.0,3925.0,977.0,972.0,522.0,520.0
3902,989,527,0,3911.0,3917.0,983.0,977.0,525.0,522.0
3891,992,530,0,3902.0,3911.0,989.0,983.0,527.0,525.0
3885,995,528,0,3891.0,3902.0,992.0,989.0,530.0,527.0
3872,994,521,0,3885.0,3891.0,995.0,992.0,528.0,530.0
3868,995,514,0,3872.0,3885.0,994.0,995.0,521.0,528.0
3866,994,505,0,3868.0,3872.0,995.0,994.0,514.0,521.0
3864,992,500,0,3866.0,3868.0,994.0,995.0,505.0,514.0
3868,995,495,0,3864.0,3866.0,992.0,994.0,500.0,505.0
3870,996,494,0,3868.0,3864.0,995.0,992.0,495.0,500.0
3879,999,493,0,3870.0,3868.0,996.0,995.0,494.0,495.0
3885,1000,499,0,3879.0,3870.0,999.0,996.0,493.0,494.0
3894,1006,502,0,3885.0,3879.0,1000.0,999.0,499.0,493.0
3901,1014,509,0,3894.0,3885.0,1006.0,1000.0,502.0,499.0
3902,1021,522,0,3901.0,3894.0,1014.0,1006.0,509.0,502.0
3903,1026,533,0,3902.0,3901.0,1021.0,1014.0,522.0,509.0
3904,1028,541,0,3903.0,3902.0,1026.0,1021.0,533.0,522.0
3899,1030,549,0,3904.0,3903.0,1028.0,1026.0,541.0,533.0
3896,1027,552,0,3899.0,3904.0,1030.0,1028.0,549.0,541.0
3887,1025,555,0,3896.0,3899.0,1027.0,1030.0,552.0,549.0
3880,1022,555,0,3887.0,3896.0,1025.0,1027.0,555.0,552.0
3872,1014,552,0,3880.0,3887.0,1022.0,1025.0,555.0,555.0
3869,1006,550,0,3872.0,3880.0,1014.0,1022.0,552.0,555.0
3863,1000,543,0,3869.0,3872.0,1006.0,1014.0,550.0,552.0
3867,992,540,0,3863.0,3869.0,1000.0,1006.0,543.0,550.0
3865,991,533,0,3867.0,3863.0,992.0,1000.0,540.0,543.0
3867,991,527,0,3865.0,3867.0,991.0,992.0,533.0,540.0
3869,993,527,0,3867.0,3865.0,991.0,991.0,527.0,533.0
3871,999,529,0,3869.0,3867.0,993.0,991.0,527.0,527.0
3874,1006,533,0,3871.0,3869.0,999.0,993.0,529.0,527.0
3877,1020,537,0,3874.0,3871.0,1006.0,999.0,533.0,529.0
3878,1029,542,0,3877.0,3874.0,1020.0,1006.0,537.0,533.0
3877,1037,549,0,3878.0,3877.0,1029.0,1020.0,542.0,537.0
3877,1037,551,0,3877.0,3878.0,1037.0,1029.0,549.0,542.0
3877,1037,554,0,3877.0,3877.0,1037.0,1037.0,551.0,549.0
3875,1037,552,0,3877.0,3877.0,1037.0,1037.0,554.0,551.0
3874,1029,549,0,3875.0,3877.0,1037.0,1037.0,552.0,554.0
3877,1019,550,0,3874.0,3875.0,1029.0,1037.0,549.0,552.0
3874,1012,545,0,3877.0,3874.0,1019.0,1029.0,550.0,549.0
3874,998,544,0,3874.0,3877.0,1012.0,1019.0,545.0,550.0
3875,989,538,0,3874.0,3874.0,998.0,1012.0,544.0,545.0
3876,981,534,0,3875.0,3874.0,989.0,998.0,538.0,544.0
3876,972,534,0,3876.0,3875.0,981.0,989.0,534.0,538.0
3877,964,542,0,3876.0,3876.0,972.0,981.0,534.0,534.0
3873,957,555,0,3877.0,3876.0,964.0,972.0,542.0,534.0
3863,956,563,0,3873.0,3877.0,957.0,964.0,555.0,542.0
3851,957,572,0,3863.0,3873.0,956.0,957.0,563.0,555.0
3841,957,579,0,3851.0,3863.0,957.0,956.0,572.0,563.0
3832,962,579,0,3841.0,3851.0,957.0,957.0,579.0,572.0
3823,966,569,0,3832.0,3841.0,962.0,957.0,579.0,579.0
3824,976,562,0,3823.0,3832.0,966.0,962.0,569.0,579.0
3821,983,558,0,3824.0,3823.0,976.0,966.0,562.0,569.0
3829,993,559,0,3821.0,3824.0,983.0,976.0,558.0,562.0
3838,1005,559,0,3829.0,3821.0,993.0,983.0,559.0,558.0
3851,1015,562,0,3838.0,3829.0,1005.0,993.0,559.0,559.0
3868,1020,565,0,3851.0,3838.0,1015.0,1005.0,562.0,559.0
3881,1021,568,0,3868.0,3851.0,1020.0,1015.0,565.0,562.0
3898,1024,572,0,3881.0,3868.0,1021.0,1020.0,568.0,565.0
3910,1023,572,0,3898.0,3881.0,1024.0,1021.0,572.0,568.0
3921,1015,568,0,3910.0,3898.0,1023.0,1024.0,572.0,572.0
3924,1012,565,0,3921.0,3910.0,1015.0,1023.0,568.0,572.0
3922,1003,559,0,3924.0,3921.0,1012.0,1015.0,565.0,568.0
3918,991,557,0,3922.0,3924.0,1003.0,1012.0,559.0,565.0
3914,984,556,0,3918.0,3922.0,991.0,1003.0,557.0,559.0
3907,973,556,0,3914.0,3918.0,984.0,991.0,556.0,557.0
3904,965,557,0,3907.0,3914.0,973.0,984.0,556.0,556.0
3897,962,558,0,3904.0,3907.0,965.0,973.0,557.0,556.0
3892,961,559,0,3897.0,3904.0,962.0,965.0,558.0,557.0
3887,963,561,0,3892.0,3897.0,961.0,962.0,559.0,558.0
3881,963,566,0,3887.0,3892.0,963.0,961.0,561.0,559.0
3881,966,564,0,3881.0,3887.0,963.0,963.0,566.0,561.0
3881,970,562,0,3881.0,3881.0,966.0,963.0,564.0,566.0
3880,971,560,0,3881.0,3881.0,970.0,966.0,562.0,564.0
3879,973,558,0,3880.0,3881.0,971.0,970.0,560.0,562.0
3879,975,560,0,3879.0,3880.0,973.0,971.0,558.0,560.0
3879,982,561,0,3879.0,3879.0,975.0,973.0,560.0,558.0
3876,987,558,0,3879.0,3879.0,982.0,975.0,561.0,560.0
3868,996,559,0,3876.0,3879.0,987.0,982.0,558.0,561.0
3861,1004,560,0,3868.0,3876.0,996.0,987.0,559.0,558.0
3851,1008,559,0,3861.0,3868.0,1004.0,996.0,560.0,559.0
3844,1017,554,0,3851.0,3861.0,1008.0,1004.0,559.0,560.0
3842,1022,547,0,3844.0,3851.0,1017.0,1008.0,554.0,559.0
3843,1025,544,0,3842.0,3844.0,1022.0,1017.0,547.0,554.0
3845,1031,547,0,3843.0,3842.0,1025.0,1022.0,544.0,547.0
3856,1034,548,0,3845.0,3843.0,1031.0,1025.0,547.0,544.0
3866,1032,550,0,3856.0,3845.0,1034.0,1031.0,548.0,547.0
3875,1031,548,0,3866.0,3856.0,1032.0,1034.0,550.0,548.0
3883,1030,553,0,3875.0,3866.0,1031.0,1032.0,548.0,550.0
3891,1027,554,0,3883.0,3875.0,1030.0,1031.0,553.0,548.0
3895,1022,553,0,3891.0,3883.0,1027.0,1030.0,554.0,553.0
3900,1019,549,0,3895.0,3891.0,1022.0,1027.0,553.0,554.0
3905,1019,546,0,3900.0,3895.0,1019.0,1022.0,549.0,553.0
3902,1017,541,0,3905.0,3900.0,1019.0,1019.0,546.0,549.0
3904,1022,539,0,3902.0,3905.0,1017.0,1019.0,541.0,546.0
3904,1028,542,0,3904.0,3902.0,1022.0,1017.0,539.0,541.0
3899,1029,547,0,3904.0,3904.0,1028.0,1022.0,542.0,539.0
3898,1032,549,0,3899.0,3904.0,1029.0,1028.0,547.0,542.0
3900,1037,552,0,3898.0,3899.0,1032.0,1029.0,549.0,547.0
3899,1035,554,0,3900.0,3898.0,1037.0,1032.0,552.0,549.0
3897,1033,557,0,3899.0,3900.0,1035.0,1037.0,554.0,552.0
3895,1033,564,0,3897.0,3899.0,1033.0,1035.0,557.0,554.0
3889,1034,568,0,3895.0,3897.0,1033.0,1033.0,564.0,557.0
3882,1028,565,0,3889.0,3895.0,1034.0,1033.0,568.0,564.0
3874,1027,565,0,3882.0,3889.0,1028.0,1034.0,565.0,568.0
3864,1026,561,0,3874.0,3882.0,1027.0,1028.0,565.0,565.0
3854,1026,556,0,3864.0,3874.0,1026.0,1027.0,561.0,565.0
3842,1024,550,0,3854.0,3864.0,1026.0,1026.0,556.0,561.0
3833,1026,545,0,3842.0,3854.0,1024.0,1026.0,550.0,556.0
3828,1028,540,0,3833.0,3842.0,1026.0,1024.0,545.0,550.0
3821,1029,539,0,3828.0,3833.0,1028.0,1026.0,540.0,545.0
3821,1037,540,0,3821.0,3828.0,1029.0,1028.0,539.0,540.0
3824,1042,541,0,3821.0,3821.0,1037.0,1029.0,540.0,539.0
3822,1046,543,0,3824.0,3821.0,1042.0,1037.0,541.0,540.0
3829,1049,549,0,3822.0,3824.0,1046.0,1042.0,543.0,541.0
3841,1053,552,0,3829.0,3822.0,1049.0,1046.0,549.0,543.0
3853,1057,555,0,3841.0,3829.0,1053.0,1049.0,552.0,549.0
3865,1064,551,0,3853.0,3841.0,1057.0,1053.0,555.0,552.0
3874,1069,552,0,3865.0,3853.0,1064.0,1057.0,551.0,555.0
3879,1071,552,0,3874.0,3865.0,1069.0,1064.0,552.0,551.0
3887,1075,558,0,3879.0,3874.0,1071.0,1069.0,552.0,552.0
3886,1075,557,0,3887.0,3879.0,1075.0,1071.0,558.0,552.0
3887,1071,555,0,3886.0,3887.0,1075.0,1075.0,557.0,558.0
3890,1063,547,0,3887.0,3886.0,1071.0,1075.0,555.0,557.0
3896,1051,545,0,3890.0,3887.0,1063.0,1071.0,547.0,555.0
3894,1038,539,0,3896.0,3890.0,1051.0,1063.0,545.0,547.0
3891,1026,536,0,3894.0,3896.0,1038.0,1051.0,539.0,545.0
3887,1016,536,0,3891.0,3894.0,1026.0,1038.0,536.0,539.0
3891,1005,538,0,3887.0,3891.0,1016.0,1026.0,536.0,536.0
3893,995,543,0,3891.0,3887.0,1005.0,1016.0,538.0,536.0
3893,990,544,0,3893.0,3891.0,995.0,1005.0,543.0,538.0
3891,983,549,0,3893.0,3893.0,990.0,995.0,544.0,543.0
3890,980,552,0,3891.0,3893.0,983.0,990.0,549.0,544.0
3896,976,551,0,3890.0,3891.0,980.0,983.0,552.0,549.0
3893,975,555,0,3896.0,3890.0,976.0,980.0,551.0,552.0
3892,976,558,0,3893.0,3896.0,975.0,976.0,555.0,551.0
3888,972,560,0,3892.0,3893.0,976.0,975.0,558.0,555.0
3881,973,560,0,3888.0,3892.0,972.0,976.0,560.0,558.0
3880,975,562,0,3881.0,3888.0,973.0,972.0,560.0,560.0
3879,972,556,0,3880.0,3881.0,975.0,973.0,562.0,560.0
3878,968,549,0,3879.0,3880.0,972.0,975.0,556.0,562.0
3878,964,545,0,3878.0,3879.0,968.0,972.0,549.0,556.0
3878,963,546,0,3878.0,3878.0,964.0,968.0,545.0,549.0
3882,961,546,0,3878.0,3878.0,963.0,964.0,546.0,545.0
3884,963,550,0,3882.0,3878.0,961.0,963.0,546.0,546.0
3887,967,550,0,3884.0,3882.0,963.0,961.0,550.0,546.0
3887,967,554,0,3887.0,3884.0,967.0,963.0,550.0,550.0
3888,970,557,0,3887.0,3887.0,967.0,967.0,554.0,550.0
3886,974,563,0,3888.0,3887.0,970.0,967.0,557.0,554.0
3884,975,562,0,3886.0,3888.0,974.0,970.0,563.0,557.0
3879,975,562,0,3884.0,3886.0,975.0,974.0,562.0,563.0
3878,974,560,0,3879.0,3884.0,975.0,975.0,562.0,562.0
3875,970,559,0,3878.0,3879.0,974.0,975.0,560.0,562.0
3873,964,556,0,3875.0,3878.0,970.0,974.0,559.0,560.0
3870,963,555,0,3873.0,3875.0,964.0,970.0,556.0,559.0
3866,967,556,0,3870.0,3873.0,963.0,964.0,555.0,556.0
3872,969,558,0,3866.0,3870.0,967.0,963.0,556.0,555.0
3877,974,559,0,3872.0,3866.0,969.0,967.0,558.0,556.0
3884,974,564,0,3877.0,3872.0,974.0,969.0,559.0,558.0
3892,981,565,0,3884.0,3877.0,974.0,974.0,564.0,559.0
3897,988,574,0,3892.0,3884.0,981.0,974.0,565.0,564.0
3900,993,577,0,3897.0,3892.0,988.0,981.0,574.0,565.0
3902,1001,584,0,3900.0,3897.0,993.0,988.0,577.0,574.0
3896,1011,591,0,3902.0,3900.0,1001.0,993.0,584.0,577.0
3888,1019,601,0,3896.0,3902.0,1011.0,1001.0,591.0,584.0
3879,1024,606,0,3888.0,3896.0,1019.0,1011.0,601.0,591.0
3862,1029,609,0,3879.0,3888.0,1024.0,1019.0,606.0,601.0
3851,1029,604,0,3862.0,3879.0,1029.0,1024.0,609.0,606.0
3837,1030,596,0,3851.0,3862.0,1029.0,1029.0,604.0,609.0
3831,1027,590,0,3837.0,3851.0,1030.0,1029.0,596.0,604.0
3827,1023,579,0,3831.0,3837.0,1027.0,1030.0,590.0,596.0
3828,1023,572,0,3827.0,3831.0,1023.0,1027.0,579.0,590.0
3836,1024,569,0,3828.0,3827.0,1023.0,1023.0,572.0,579.0
3846,1025,567,0,3836.0,3828.0,1024.0,1023.0,569.0,572.0
3850,1029,561,0,3846.0,3836.0,1025.0,1024.0,567.0,569.0
3864,1036,558,0,3850.0,3846.0,1029.0,1025.0,561.0,567.0
3876,1043,559,0,3864.0,3850.0,1036.0,1029.0,558.0,561.0
3887,1049,559,0,3876.0,3864.0,1043.0,1036.0,559.0,558.0
3896,1056,563,0,3887.0,3876.0,1049.0,1043.0,559.0,559.0
3896,1056,566,0,3896.0,3887.0,1056.0,1049.0,563.0,559.0
3898,1059,566,0,3896.0,3896.0,1056.0,1056.0,566.0,563.0
3898,1056,569,0,3898.0,3896.0,1059.0,1056.0,566.0,566.0
3894,1055,569,0,3898.0,3898.0,1056.0,1059.0,569.0,566.0
3885,1044,572,0,3894.0,3898.0,1055.0,1056.0,569.0,569.0
3878,1033,567,0,3885.0,3894.0,1044.0,1055.0,572.0,569.0
3872,1023,565,0,3878.0,3885.0,1033.0,1044.0,567.0,572.0
3865,1012,558,0,3872.0,3878.0,1023.0,1033.0,565.0,567.0
3861,1002,551,0,3865.0,3872.0,1012.0,1023.0,558.0,565.0
3856,996,548,0,3861.0,3865.0,1002.0,1012.0,551.0,558.0
3859,988,548,0,3856.0,3861.0,996.0,1002.0,548.0,551.0
3856,982,543,0,3859.0,3856.0,988.0,996.0,548.0,548.0
3858,986,546,0,3856.0,3859.0,982.0,988.0,543.0,548.0
3863,991,547,0,3858.0,3856.0,986.0,982.0,546.0,543.0
3869,1002,553,0,3863.0,3858.0,991.0,986.0,547.0,546.0
3878,1015,560,0,3869.0,3863.0,1002.0,991.0,553.0,547.0
3885,1022,563,0,3878.0,3869.0,1015.0,1002.0,560.0,553.0
3887,1030,568,0,3885.0,3878.0,1022.0,1015.0,563.0,560.0
3893,1035,567,0,3887.0,3885.0,1030.0,1022.0,568.0,563.0
3895,1041,571,0,3893.0,3887.0,1035.0,1030.0,567.0,568.0
3900,1042,572,0,3895.0,3893.0,1041.0,1035.0,571.0,567.0
3903,1045,569,0,3900.0,3895.0,1042.0,1041.0,572.0,571.0
3899,1045,572,0,3903.0,3900.0,1045.0,1042.0,569.0,572.0
3892,1044,569,0,3899.0,3903.0,1045.0,1045.0,572.0,569.0
3883,1045,570,0,3892.0,3899.0,1044.0,1045.0,569.0,572.0
3872,1041,568,0,3883.0,3892.0,1045.0,1044.0,570.0,569.0
3865,1036,565,0,3872.0,3883.0,1041.0,1045.0,568.0,570.0
3856,1033,560,0,3865.0,3872.0,1036.0,1041.0,565.0,568.0
3847,1024,557,0,3856.0,3865.0,1033.0,1036.0,560.0,565.0
3843,1012,556,0,3847.0,3856.0,1024.0,1033.0,557.0,560.0
3839,1003,550,0,3843.0,3847.0,1012.0,1024.0,556.0,557.0
3839,996,547,0,3839.0,3843.0,1003.0,1012.0,550.0,556.0
3844,992,549,0,3839.0,3839.0,996.0,1003.0,547.0,550.0
3849,987,550,0,3844.0,3839.0,992.0,996.0,549.0,547.0
3854,985,554,0,3849.0,3844.0,987.0,992.0,550.0,549.0
3861,985,562,0,3854.0,3849.0,985.0,987.0,554.0,550.0
3873,985,568,0,3861.0,3854.0,985.0,985.0,562.0,554.0
3879,986,570,0,3873.0,3861.0,985.0,985.0,568.0,562.0
3886,986,570,0,3879.0,3873.0,986.0,985.0,570.0,568.0
3894,986,572,0,3886.0,3879.0,986.0,986.0,570.0,570.0
3897,988,574,0,3894.0,3886.0,986.0,986.0,572.0,570.0
3894,984,574,0,3897.0,3894.0,988.0,986.0,574.0,572.0
3892,983,575,0,3894.0,3897.0,984.0,988.0,574.0,574.0
3891,986,568,0,3892.0,3894.0,983.0,984.0,575.0,574.0
3886,984,566,0,3891.0,3892.0,986.0,983.0,568.0,575.0
3880,985,566,0,3886.0,3891.0,984.0,986.0,566.0,568.0
3869,989,564,0,3880.0,3886.0,985.0,984.0,566.0,566.0
3861,995,565,0,3869.0,3880.0,989.0,985.0,564.0,566.0
3854,1002,567,0,3861.0,3869.0,995.0,989.0,565.0,564.0
3850,1004,570,0,3854.0,3861.0,1002.0,995.0,567.0,565.0
3849,1009,567,0,3850.0,3854.0,1004.0,1002.0,570.0,567.0
3850,1016,566,0,3849.0,3850.0,1009.0,1004.0,567.0,570.0
3856,1021,567,0,3850.0,3849.0,1016.0,1009.0,566.0,567.0
3865,1023,573,0,3856.0,3850.0,1021.0,1016.0,567.0,566.0
3873,1028,576,0,3865.0,3856.0,1023.0,1021.0,573.0,567.0
3877,1031,579,0,3873.0,3865.0,1028.0,1023.0,576.0,573.0
3884,1034,577,0,3877.0,3873.0,1031.0,1028.0,579.0,576.0
3887,1041,580,0,3884.0,3877.0,1034.0,1031.0,577.0,579.0
3892,1045,583,0,3887.0,3884.0,1041.0,1034.0,580.0,577.0
3892,1049,583,0,3892.0,3887.0,1045.0,1041.0,583.0,580.0
3892,1049,582,0,3892.0,3892.0,1049.0,1045.0,583.0,583.0
3892,1051,584,0,3892.0,3892.0,1049.0,1049.0,582.0,583.0
3889,1053,587,0,3892.0,3892.0,1051.0,1049.0,584.0,582.0
3882,1055,583,0,3889.0,3892.0,1053.0,1051.0,587.0,584.0
3874,1057,582,0,3882.0,3889.0,1055.0,1053.0,583.0,587.0
3867,1055,578,0,3874.0,3882.0,1057.0,1055.0,582.0,583.0
3860,1055,579,0,3867.0,3874.0,1055.0,1057.0,578.0,582.0
3855,1055,580,0,3860.0,3867.0,1055.0,1055.0,579.0,578.0
3848,1053,585,0,3855.0,3860.0,1055.0,1055.0,580.0,579.0
3847,1055,585,0,3848.0,3855.0,1053.0,1055.0,585.0,580.0
3842,1054,585,0,3847.0,3848.0,1055.0,1053.0,585.0,585.0
3841,1054,585,0,3842.0,3847.0,1054.0,1055.0,585.0,585.0
3841,1055,585,0,3841.0,3842.0,1054.0,1054.0,585.0,585.0
3841,1054,585,0,3841.0,3841.0,1055.0,1054.0,585.0,585.0
3840,1055,584,0,3841.0,3841.0,1054.0,1055.0,585.0,585.0
3839,1057,585,0,3840.0,3841.0,1055.0,1054.0,584.0,585.0
3844,1059,585,0,3839.0,3840.0,1057.0,1055.0,585.0,584.0
3850,1060,584,0,3844.0,3839.0,1059.0,1057.0,585.0,585.0
3853,1060,583,0,3850.0,3844.0,1060.0,1059.0,584.0,585.0
3854,1063,582,0,3853.0,3850.0,1060.0,1060.0,583.0,584.0
3855,1063,586,0,3854.0,3853.0,1063.0,1060.0,582.0,583.0
3858,1065,590,0,3855.0,3854.0,1063.0,1063.0,586.0,582.0
3854,1067,594,0,3858.0,3855.0,1065.0,1063.0,590.0,586.0
3854,1066,599,0,3854.0,3858.0,1067.0,1065.0,594.0,590.0
3852,1067,598,0,3854.0,3854.0,1066.0,1067.0,599.0,594.0
3852,1067,595,0,3852.0,3854.0,1067.0,1066.0,598.0,599.0
3854,1062,585,0,3852.0,3852.0,1067.0,1067.0,595.0,598.0
3856,1056,582,0,3854.0,3852.0,1062.0,1067.0,585.0,595.0
3860,1053,577,0,3856.0,3854.0,1056.0,1062.0,582.0,585.0
3864,1048,581,0,3860.0,3856.0,1053.0,1056.0,577.0,582.0
3865,1047,584,0,3864.0,3860.0,1048.0,1053.0,581.0,577.0
3862,1047,586,0,3865.0,3864.0,1047.0,1048.0,584.0,581.0
3866,1050,589,0,3862.0,3865.0,1047.0,1047.0,586.0,584.0
3861,1051,587,0,3866.0,3862.0,1050.0,1047.0,589.0,586.0
3858,1054,584,0,3861.0,3866.0,1051.0,1050.0,587.0,589.0
3859,1060,581,0,3858.0,3861.0,1054.0,1051.0,584.0,587.0
3858,1059,580,0,3859.0,3858.0,1060.0,1054.0,581.0,584.0
3852,1060,579,0,3858.0,3859.0,1059.0,1060.0,580.0,581.0
3852,1062,577,0,3852.0,3858.0,1060.0,1059.0,579.0,580.0
3852,1063,580,0,3852.0,3852.0,1062.0,1060.0,577.0,579.0
3852,1068,578,0,3852.0,3852.0,1063.0,1062.0,580.0,577.0
3855,1076,582,0,3852.0,3852.0,1068.0,1063.0,578.0,580.0
3853,1080,588,0,3855.0,3852.0,1076.0,1068.0,582.0,578.0
3852,1085,588,0,3853.0,3855.0,1080.0,1076.0,588.0,582.0
3848,1089,593,0,3852.0,3853.0,1085.0,1080.0,588.0,588.0
3843,1091,595,0,3848.0,3852.0,1089.0,1085.0,593.0,588.0
3840,1091,595,0,3843.0,3848.0,1091.0,1089.0,595.0,593.0
3840,1089,593,0,3840.0,3843.0,1091.0,1091.0,595.0,595.0
3832,1085,592,0,3840.0,3840.0,1089.0,1091.0,593.0,595.0
3827,1079,597,0,3832.0,3840.0,1085.0,1089.0,592.0,593.0
3824,1075,595,0,3827.0,3832.0,1079.0,1085.0,597.0,592.0
3824,1066,596,0,3824.0,3827.0,1075.0,1079.0,595.0,597.0
3824,1062,599,0,3824.0,3824.0,1066.0,1075.0,596.0,595.0
3830,1061,596,0,3824.0,3824.0,1062.0,1066.0,599.0,596.0
3830,1061,599,0,3830.0,3824.0,1061.0,1062.0,596.0,599.0
3835,1063,600,0,3830.0,3830.0,1061.0,1061.0,599.0,596.0
3839,1062,600,0,3835.0,3830.0,1063.0,1061.0,600.0,599.0
3846,1067,602,0,3839.0,3835.0,1062.0,1063.0,600.0,600.0
3852,1071,601,0,3846.0,3839.0,1067.0,1062.0,602.0,600.0
3853,1076,597,0,3852.0,3846.0,1071.0,1067.0,601.0,602.0
3854,1075,594,0,3853.0,3852.0,1076.0,1071.0,597.0,601.0
3856,1073,593,0,3854.0,3853.0,1075.0,1076.0,594.0,597.0
3856,1068,594,0,3856.0,3854.0,1073.0,1075.0,593.0,594.0
3857,1067,591,0,3856.0,3856.0,1068.0,1073.0,594.0,593.0
3858,1060,591,0,3857.0,3856.0,1067.0,1068.0,591.0,594.0
3858,1049,589,0,3858.0,3857.0,1060.0,1067.0,591.0,591.0
3863,1041,590,0,3858.0,3858.0,1049.0,1060.0,589.0,591.0
3862,1036,590,0,3863.0,3858.0,1041.0,1049.0,590.0,589.0
3866,1033,587,0,3862.0,3863.0,1036.0,1041.0,590.0,590.0
3873,1032,586,0,3866.0,3862.0,1033.0,1036.0,587.0,590.0
3877,1029,585,0,3873.0,3866.0,1032.0,1033.0,586.0,587.0
3880,1026,584,0,3877.0,3873.0,1029.0,1032.0,585.0,586.0
3883,1030,581,0,3880.0,3877.0,1026.0,1029.0,584.0,585.0
3886,1033,583,0,3883.0,3880.0,1030.0,1026.0,581.0,584.0
3889,1039,589,0,3886.0,3883.0,1033.0,1030.0,583.0,581.0
3888,1044,593,0,3889.0,3886.0,1039.0,1033.0,589.0,583.0
3884,1047,598,0,3888.0,3889.0,1044.0,1039.0,593.0,589.0
3881,1049,603,0,3884.0,3888.0,1047.0,1044.0,598.0,593.0
3874,1051,609,0,3881.0,3884.0,1049.0,1047.0,603.0,598.0
3862,1051,618,0,3874.0,3881.0,1051.0,1049.0,609.0,603.0
3851,1050,620,0,3862.0,3874.0,1051.0,1051.0,618.0,609.0
3839,1044,617,0,3851.0,3862.0,1050.0,1051.0,620.0,618.0
3836,1036,615,0,3839.0,3851.0,1044.0,1050.0,617.0,620.0
3828,1030,610,0,3836.0,3839.0,1036.0,1044.0,615.0,617.0
3825,1024,602,0,3828.0,3836.0,1030.0,1036.0,610.0,615.0
3827,1017,596,0,3825.0,3828.0,1024.0,1030.0,602.0,610.0
3827,1018,593,0,3827.0,3825.0,1017.0,1024.0,596.0,602.0
3837,1016,595,0,3827.0,3827.0,1018.0,1017.0,593.0,596.0
3843,1018,593,0,3837.0,3827.0,1016.0,1018.0,595.0,593.0
3854,1020,596,0,3843.0,3837.0,1018.0,1016.0,593.0,595.0
3864,1031,600,0,3854.0,3843.0,1020.0,1018.0,596.0,593.0
3870,1042,602,0,3864.0,3854.0,1031.0,1020.0,600.0,596.0
3872,1049,605,0,3870.0,3864.0,1042.0,1031.0,602.0,600.0
3875,1059,610,0,3872.0,3870.0,1049.0,1042.0,605.0,602.0
3876,1070,614,0,3875.0,3872.0,1059.0,1049.0,610.0,605.0
3874,1075,613,0,3876.0,3875.0,1070.0,1059.0,614.0,610.0
3868,1073,609,0,3874.0,3876.0,1075.0,1070.0,613.0,614.0
3863,1068,604,0,3868.0,3874.0,1073.0,1075.0,609.0,613.0
3851,1061,599,0,3863.0,3868.0,1068.0,1073.0,604.0,609.0
3847,1057,599,0,3851.0,3863.0,1061.0,1068.0,599.0,604.0
3838,1044,595,0,3847.0,3851.0,1057.0,1061.0,599.0,599.0
3832,1035,591,0,3838.0,3847.0,1044.0,1057.0,595.0,599.0
3830,1031,587,0,3832.0,3838.0,1035.0,1044.0,591.0,595.0
3829,1030,585,0,3830.0,3832.0,1031.0,1035.0,587.0,591.0
3829,1029,583,0,3829.0,3830.0,1030.0,1031.0,585.0,587.0
3833,1033,583,0,3829.0,3829.0,1029.0,1030.0,583.0,585.0
3838,1040,587,0,3833.0,3829.0,1033.0,1029.0,583.0,583.0
3846,1050,593,0,3838.0,3833.0,1040.0,1033.0,587.0,583.0
3860,1055,600,0,3846.0,3838.0,1050.0,1040.0,593.0,587.0
3870,1065,602,0,3860.0,3846.0,1055.0,1050.0,600.0,593.0
3879,1073,604,0,3870.0,3860.0,1065.0,1055.0,602.0,600.0
3884,1074,614,0,3879.0,3870.0,1073.0,1065.0,604.0,602.0
3894,1074,617,0,3884.0,3879.0,1074.0,1073.0,614.0,604.0
3896,1071,620,0,3894.0,3884.0,1074.0,1074.0,617.0,614.0
3899,1068,622,0,3896.0,3894.0,1071.0,1074.0,620.0,617.0
3892,1060,615,0,3899.0,3896.0,1068.0,1071.0,622.0,620.0
3886,1054,612,0,3892.0,3899.0,1060.0,1068.0,615.0,622.0
3877,1044,606,0,3886.0,3892.0,1054.0,1060.0,612.0,615.0
3865,1034,598,0,3877.0,3886.0,1044.0,1054.0,606.0,612.0
3858,1023,593,0,3865.0,3877.0,1034.0,1044.0,598.0,606.0
3851,1009,589,0,3858.0,3865.0,1023.0,1034.0,593.0,598.0
3845,1003,584,0,3851.0,3858.0,1009.0,1023.0,589.0,593.0
3840,997,585,0,3845.0,3851.0,1003.0,1009.0,584.0,589.0
3841,997,585,0,3840.0,3845.0,997.0,1003.0,585.0,584.0
3842,996,589,0,3841.0,3840.0,997.0,997.0,585.0,585.0
3844,996,596,0,3842.0,3841.0,996.0,997.0,589.0,585.0
3848,999,601,0,3844.0,3842.0,996.0,996.0,596.0,589.0
3856,1001,607,0,3848.0,3844.0,999.0,996.0,601.0,596.0
3862,1002,610,0,3856.0,3848.0,1001.0,999.0,607.0,601.0
3864,1006,612,0,3862.0,3856.0,1002.0,1001.0,610.0,607.0
3866,1011,610,0,3864.0,3862.0,1006.0,1002.0,612.0,610.0
3865,1015,611,0,3866.0,3864.0,1011.0,1006.0,610.0,612.0
3865,1023,611,0,3865.0,3866.0,1015.0,1011.0,611.0,610.0
3865,1028,611,0,3865.0,3865.0,1023.0,1015.0,611.0,611.0
3862,1032,609,0,3865.0,3865.0,1028.0,1023.0,611.0,611.0
3863,1036,604,0,3862.0,3865.0,1032.0,1028.0,609.0,611.0
3858,1034,606,0,3863.0,3862.0,1036.0,1032.0,604.0,609.0
3855,1041,606,0,3858.0,3863.0,1034.0,1036.0,606.0,604.0
3854,1041,607,0,3855.0,3858.0,1041.0,1034.0,606.0,606.0
3856,1040,606,0,3854.0,3855.0,1041.0,1041.0,607.0,606.0
3853,1038,602,0,3856.0,3854.0,1040.0,1041.0,606.0,607.0
3856,1035,605,0,3853.0,3856.0,1038.0,1040.0,602.0,606.0
3854,1033,601,0,3856.0,3853.0,1035.0,1038.0,605.0,602.0
3857,1028,600,0,3854.0,3856.0,1033.0,1035.0,601.0,605.0
3861,1026,600,0,3857.0,3854.0,1028.0,1033.0,600.0,601.0
3866,1022,603,0,3861.0,3857.0,1026.0,1028.0,600.0,600.0
3870,1011,604,0,3866.0,3861.0,1022.0,1026.0,603.0,600.0
3872,1009,604,0,3870.0,3866.0,1011.0,1022.0,604.0,603.0
3877,1004,608,0,3872.0,3870.0,1009.0,1011.0,604.0,604.0
3878,1000,610,0,3877.0,3872.0,1004.0,1009.0,608.0,604.0
3881,996,611,0,3878.0,3877.0,1000.0,1004.0,610.0,608.0
3882,991,616,0,3881.0,3878.0,996.0,1000.0,611.0,610.0
3884,985,614,0,3882.0,3881.0,991.0,996.0,616.0,611.0
3890,986,608,0,3884.0,3882.0,985.0,991.0,614.0,616.0
3888,984,604,0,3890.0,3884.0,986.0,985.0,608.0,614.0
3885,984,606,0,3888.0,3890.0,984.0,986.0,604.0,608.0
3884,989,606,0,3885.0,3888.0,984.0,984.0,606.0,604.0
3881,991,611,0,3884.0,3885.0,989.0,984.0,606.0,606.0
3877,997,615,0,3881.0,3884.0,991.0,989.0,611.0,606.0
3871,1008,616,0,3877.0,3881.0,997.0,991.0,615.0,611.0
3867,1013,616,0,3871.0,3877.0,1008.0,997.0,616.0,615.0
3864,1017,611,0,3867.0,3871.0,1013.0,1008.0,616.0,616.0
3859,1023,609,0,3864.0,3867.0,1017.0,1013.0,611.0,616.0
3854,1027,606,0,3859.0,3864.0,1023.0,1017.0,609.0,611.0
3851,1029,605,0,3854.0,3859.0,1027.0,1023.0,606.0,609.0
3844,1033,605,0,3851.0,3854.0,1029.0,1027.0,605.0,606.0
3845,1037,605,0,3844.0,3851.0,1033.0,1029.0,605.0,605.0
3844,1042,607,0,3845.0,3844.0,1037.0,1033.0,605.0,605.0
3843,1049,610,0,3844.0,3845.0,1042.0,1037.0,607.0,605.0
3845,1052,609,0,3843.0,3844.0,1049.0,1042.0,610.0,607.0
3847,1052,612,0,3845.0,3843.0,1052.0,1049.0,609.0,610.0
3848,1050,607,0,3847.0,3845.0,1052.0,1052.0,612.0,609.0
3851,1048,605,0,3848.0,3847.0,1050.0,1052.0,607.0,612.0
3856,1042,601,0,3851.0,3848.0,1048.0,1050.0,605.0,607.0
3859,1041,600,0,3856.0,3851.0,1042.0,1048.0,601.0,605.0
3863,1037,601,0,3859.0,3856.0,1041.0,1042.0,600.0,601.0
3871,1035,602,0,3863.0,3859.0,1037.0,1041.0,601.0,600.0
3877,1033,603,0,3871.0,3863.0,1035.0,1037.0,602.0,601.0
3878,1031,604,0,3877.0,3871.0,1033.0,1035.0,603.0,602.0
3879,1032,605,0,3878.0,3877.0,1031.0,1033.0,604.0,603.0
3879,1033,608,0,3879.0,3878.0,1032.0,1031.0,605.0,604.0
3875,1030,608,0,3879.0,3879.0,1033.0,1032.0,608.0,605.0
3869,1031,605,0,3875.0,3879.0,1030.0,1033.0,608.0,608.0
3863,1036,606,0,3869.0,3875.0,1031.0,1030.0,605.0,608.0
3859,1039,607,0,3863.0,3869.0,1036.0,1031.0,606.0,605.0
3857,1042,605,0,3859.0,3863.0,1039.0,1036.0,607.0,606.0
3852,1047,607,0,3857.0,3859.0,1042.0,1039.0,605.0,607.0
3847,1058,612,0,3852.0,3857.0,1047.0,1042.0,607.0,605.0
3841,1063,615,0,3847.0,3852.0,1058.0,1047.0,612.0,607.0
3837,1069,618,0,3841.0,3847.0,1063.0,1058.0,615.0,612.0
3832,1075,619,0,3837.0,3841.0,1069.0,1063.0,618.0,615.0
3828,1078,618,0,3832.0,3837.0,1075.0,1069.0,619.0,618.0
3828,1075,615,0,3828.0,3832.0,1078.0,1075.0,618.0,619.0
3829,1080,614,0,3828.0,3828.0,1075.0,1078.0,615.0,618.0
3836,1078,615,0,3829.0,3828.0,1080.0,1075.0,614.0,615.0
3836,1074,614,0,3836.0,3829.0,1078.0,1080.0,615.0,614.0
3845,1077,612,0,3836.0,3836.0,1074.0,1078.0,614.0,615.0
3850,1074,609,0,3845.0,3836.0,1077.0,1074.0,612.0,614.0
3851,1070,611,0,3850.0,3845.0,1074.0,1077.0,609.0,612.0
3858,1068,613,0,3851.0,3850.0,1070.0,1074.0,611.0,609.0
3866,1071,618,0,3858.0,3851.0,1068.0,1070.0,613.0,611.0
3866,1070,616,0,3866.0,3858.0,1071.0,1068.0,618.0,613.0
3864,1066,615,0,3866.0,3866.0,1070.0,1071.0,616.0,618.0
3862,1058,614,0,3864.0,3866.0,1066.0,1070.0,615.0,616.0
3860,1054,611,0,3862.0,3864.0,1058.0,1066.0,614.0,615.0
3860,1051,609,0,3860.0,3862.0,1054.0,1058.0,611.0,614.0
3857,1048,604,0,3860.0,3860.0,1051.0,1054.0,609.0,611.0
3853,1047,603,0,3857.0,3860.0,1048.0,1051.0,604.0,609.0
3851,1047,600,0,3853.0,3857.0,1047.0,1048.0,603.0,604.0
3849,1046,601,0,3851.0,3853.0,1047.0,1047.0,600.0,603.0
3846,1044,603,0,3849.0,3851.0,1046.0,1047.0,601.0,600.0
3846,1049,602,0,3846.0,3849.0,1044.0,1046.0,603.0,601.0
3849,1044,603,0,3846.0,3846.0,1049.0,1044.0,602.0,603.0
3850,1044,603,0,3849.0,3846.0,1044.0,1049.0,603.0,602.0
3852,1037,610,0,3850.0,3849.0,1044.0,1044.0,603.0,603.0
3851,1031,612,0,3852.0,3850.0,1037.0,1044.0,610.0,603.0
3853,1026,614,0,3851.0,3852.0,1031.0,1037.0,612.0,610.0
3856,1021,613,0,3853.0,3851.0,1026.0,1031.0,614.0,612.0
3861,1021,610,0,3856.0,3853.0,1021.0,1026.0,613.0,614.0
3865,1021,609,0,3861.0,3856.0,1021.0,1021.0,610.0,613.0
3868,1025,610,0,3865.0,3861.0,1021.0,1021.0,609.0,610.0
3871,1024,615,0,3868.0,3865.0,1025.0,1021.0,610.0,609.0
3873,1028,611,0,3871.0,3868.0,1024.0,1025.0,615.0,610.0
3878,1034,605,0,3873.0,3871.0,1028.0,1024.0,611.0,615.0
3880,1041,602,0,3878.0,3873.0,1034.0,1028.0,605.0,611.0
3882,1042,601,0,3880.0,3878.0,1041.0,1034.0,602.0,605.0
3883,1041,598,0,3882.0,3880.0,1042.0,1041.0,601.0,602.0
3881,1044,600,0,3883.0,3882.0,1041.0,1042.0,598.0,601.0
3876,1046,602,0,3881.0,3883.0,1044.0,1041.0,600.0,598.0
3872,1048,607,0,3876.0,3881.0,1046.0,1044.0,602.0,600.0
3868,1047,613,0,3872.0,3876.0,1048.0,1046.0,607.0,602.0
3859,1046,620,0,3868.0,3872.0,1047.0,1048.0,613.0,607.0
3853,1037,617,0,3859.0,3868.0,1046.0,1047.0,620.0,613.0
3843,1034,615,0,3853.0,3859.0,1037.0,1046.0,617.0,620.0
3835,1030,612,0,3843.0,3853.0,1034.0,1037.0,615.0,617.0
3832,1023,613,0,3835.0,3843.0,1030.0,1034.0,612.0,615.0
3831,1016,608,0,3832.0,3835.0,1023.0,1030.0,613.0,612.0
3835,1011,604,0,3831.0,3832.0,1016.0,1023.0,608.0,613.0
3843,1010,603,0,3835.0,3831.0,1011.0,1016.0,604.0,608.0
3852,1012,601,0,3843.0,3835.0,1010.0,1011.0,603.0,604.0
3860,1015,599,0,3852.0,3843.0,1012.0,1010.0,601.0,603.0
3868,1019,601,0,3860.0,3852.0,1015.0,1012.0,599.0,601.0
3873,1025,604,0,3868.0,3860.0,1019.0,1015.0,601.0,599.0
3876,1031,605,0,3873.0,3868.0,1025.0,1019.0,604.0,601.0
3877,1042,606,0,3876.0,3873.0,1031.0,1025.0,605.0,604.0
3875,1048,609,0,3877.0,3876.0,1042.0,1031.0,606.0,605.0
3867,1055,614,0,3875.0,3877.0,1048.0,1042.0,609.0,606.0
3861,1060,617,0,3867.0,3875.0,1055.0,1048.0,614.0,609.0
3856,1061,619,0,3861.0,3867.0,1060.0,1055.0,617.0,614.0
3850,1065,618,0,3856.0,3861.0,1061.0,1060.0,619.0,617.0
3847,1065,618,0,3850.0,3856.0,1065.0,1061.0,618.0,619.0
3845,1063,620,0,3847.0,3850.0,1065.0,1065.0,618.0,618.0
3839,1061,617,0,3845.0,3847.0,1063.0,1065.0,620.0,618.0
3839,1061,618,0,3839.0,3845.0,1061.0,1063.0,617.0,620.0
3837,1061,620,0,3839.0,3839.0,1061.0,1061.0,618.0,617.0
3841,1058,617,0,3837.0,3839.0,1061.0,1061.0,620.0,618.0
3840,1060,617,0,3841.0,3837.0,1058.0,1061.0,617.0,620.0
3842,1065,618,0,3840.0,3841.0,1060.0,1058.0,617.0,617.0
3847,1071,616,0,3842.0,3840.0,1065.0,1060.0,618.0,617.0
3849,1078,618,0,3847.0,3842.0,1071.0,1065.0,616.0,618.0
3852,1086,618,0,3849.0,3847.0,1078.0,1071.0,618.0,616.0
3851,1089,620,0,3852.0,3849.0,1086.0,1078.0,618.0,618.0
3853,1093,624,0,3851.0,3852.0,1089.0,1086.0,620.0,618.0
3850,1099,626,0,3853.0,3851.0,1093.0,1089.0,624.0,620.0
3850,1098,626,0,3850.0,3853.0,1099.0,1093.0,626.0,624.0
3843,1101,628,0,3850.0,3850.0,1098.0,1099.0,626.0,626.0
3836,1098,629,0,3843.0,3850.0,1101.0,1098.0,628.0,626.0
3829,1098,630,0,3836.0,3843.0,1098.0,1101.0,629.0,628.0
3828,1095,623,0,3829.0,3836.0,1098.0,1098.0,630.0,629.0
3826,1093,623,0,3828.0,3829.0,1095.0,1098.0,623.0,630.0
3826,1089,619,0,3826.0,3828.0,1093.0,1095.0,623.0,623.0
3828,1082,620,0,3826.0,3826.0,1089.0,1093.0,619.0,623.0
3829,1078,613,0,3828.0,3826.0,1082.0,1089.0,620.0,619.0
3832,1077,611,0,3829.0,3828.0,1078.0,1082.0,613.0,620.0
3833,1075,615,0,3832.0,3829.0,1077.0,1078.0,611.0,613.0
3838,1074,614,0,3833.0,3832.0,1075.0,1077.0,615.0,611.0
3851,1074,617,0,3838.0,3833.0,1074.0,1075.0,614.0,615.0
3853,1069,618,0,3851.0,3838.0,1074.0,1074.0,617.0,614.0
3856,1070,619,0,3853.0,3851.0,1069.0,1074.0,618.0,617.0
3856,1071,622,0,3856.0,3853.0,1070.0,1069.0,619.0,618.0
3855,1069,619,0,3856.0,3856.0,1071.0,1070.0,622.0,619.0
3857,1064,622,0,3855.0,3856.0,1069.0,1071.0,619.0,622.0
3853,1061,620,0,3857.0,3855.0,1064.0,1069.0,622.0,619.0
3850,1057,616,0,3853.0,3857.0,1061.0,1064.0,620.0,622.0
3849,1055,613,0,3850.0,3853.0,1057.0,1061.0,616.0,620.0
3849,1050,608,0,3849.0,3850.0,1055.0,1057.0,613.0,616.0
3847,1045,610,0,3849.0,3849.0,1050.0,1055.0,608.0,613.0
3847,1038,613,0,3847.0,3849.0,1045.0,1050.0,610.0,608.0
3849,1034,611,0,3847.0,3847.0,1038.0,1045.0,613.0,610.0
3847,1032,610,0,3849.0,3847.0,1034.0,1038.0,611.0,613.0
3843,1035,611,0,3847.0,3849.0,1032.0,1034.0,610.0,611.0
3844,1040,615,0,3843.0,3847.0,1035.0,1032.0,611.0,610.0
3849,1041,615,0,3844.0,3843.0,1040.0,1035.0,615.0,611.0
3852,1046,616,0,3849.0,3844.0,1041.0,1040.0,615.0,615.0
3855,1053,617,0,3852.0,3849.0,1046.0,1041.0,616.0,615.0
3859,1059,625,0,3855.0,3852.0,1053.0,1046.0,617.0,616.0
3858,1064,625,0,3859.0,3855.0,1059.0,1053.0,625.0,617.0
3857,1064,627,0,3858.0,3859.0,1064.0,1059.0,625.0,625.0
3858,1064,627,0,3857.0,3858.0,1064.0,1064.0,627.0,625.0
3856,1063,624,0,3858.0,3857.0,1064.0,1064.0,627.0,627.0
3857,1059,620,0,3856.0,3858.0,1063.0,1064.0,624.0,627.0
3853,1053,615,0,3857.0,3856.0,1059.0,1063.0,620.0,624.0
3852,1051,615,0,3853.0,3857.0,1053.0,1059.0,615.0,620.0
3851,1047,612,0,3852.0,3853.0,1051.0,1053.0,615.0,615.0
3849,1043,613,0,3851.0,3852.0,1047.0,1051.0,612.0,615.0
3850,1042,612,0,3849.0,3851.0,1043.0,1047.0,613.0,612.0
3851,1043,612,0,3850.0,3849.0,1042.0,1043.0,612.0,613.0
3853,1042,611,0,3851.0,3850.0,1043.0,1042.0,612.0,612.0
3857,1045,609,0,3853.0,3851.0,1042.0,1043.0,611.0,612.0
3857,1047,613,0,3857.0,3853.0,1045.0,1042.0,609.0,611.0
3857,1053,617,0,3857.0,3857.0,1047.0,1045.0,613.0,609.0
3855,1052,617,0,3857.0,3857.0,1053.0,1047.0,617.0,613.0
3855,1054,619,0,3855.0,3857.0,1052.0,1053.0,617.0,617.0
3856,1054,617,0,3855.0,3855.0,1054.0,1052.0,619.0,617.0
3853,1049,617,0,3856.0,3855.0,1054.0,1054.0,617.0,619.0
3855,1047,621,0,3853.0,3856.0,1049.0,1054.0,617.0,617.0
3851,1044,620,0,3855.0,3853.0,1047.0,1049.0,621.0,617.0
3852,1044,618,0,3851.0,3855.0,1044.0,1047.0,620.0,621.0
3848,1047,618,0,3852.0,3851.0,1044.0,1044.0,618.0,620.0
3848,1050,620,0,3848.0,3852.0,1047.0,1044.0,618.0,618.0
3849,1051,619,0,3848.0,3848.0,1050.0,1047.0,620.0,618.0
3850,1055,618,0,3849.0,3848.0,1051.0,1050.0,619.0,620.0
3851,1057,621,0,3850.0,3849.0,1055.0,1051.0,618.0,619.0
3849,1056,621,0,3851.0,3850.0,1057.0,1055.0,621.0,618.0
3850,1055,625,0,3849.0,3851.0,1056.0,1057.0,621.0,621.0
3845,1053,626,0,3850.0,3849.0,1055.0,1056.0,625.0,621.0
3845,1053,623,0,3845.0,3850.0,1053.0,1055.0,626.0,625.0
3845,1052,625,0,3845.0,3845.0,1053.0,1053.0,623.0,626.0
3842,1052,620,0,3845.0,3845.0,1052.0,1053.0,625.0,623.0
3844,1047,616,0,3842.0,3845.0,1052.0,1052.0,620.0,625.0
3850,1048,614,0,3844.0,3842.0,1047.0,1052.0,616.0,620.0
3848,1052,616,0,3850.0,3844.0,1048.0,1047.0,614.0,616.0
3850,1055,620,0,3848.0,3850.0,1052.0,1048.0,616.0,614.0
3854,1058,621,0,3850.0,3848.0,1055.0,1052.0,620.0,616.0
3855,1060,622,0,3854.0,3850.0,1058.0,1055.0,621.0,620.0
3854,1063,623,0,3855.0,3854.0,1060.0,1058.0,622.0,621.0
3852,1068,620,0,3854.0,3855.0,1063.0,1060.0,623.0,622.0
3847,1073,620,0,3852.0,3854.0,1068.0,1063.0,620.0,623.0
3847,1078,621,0,3847.0,3852.0,1073.0,1068.0,620.0,620.0
3845,1083,620,0,3847.0,3847.0,1078.0,1073.0,621.0,620.0
3841,1087,618,0,3845.0,3847.0,1083.0,1078.0,620.0,621.0
3844,1094,619,0,3841.0,3845.0,1087.0,1083.0,618.0,620.0
3845,1094,620,0,3844.0,3841.0,1094.0,1087.0,619.0,618.0
3844,1094,620,0,3845.0,3844.0,1094.0,1094.0,620.0,619.0
3842,1093,620,0,3844.0,3845.0,1094.0,1094.0,620.0,620.0
3843,1093,622,0,3842.0,3844.0,1093.0,1094.0,620.0,620.0
3842,1091,621,0,3843.0,3842.0,1093.0,1093.0,622.0,620.0
3841,1086,621,0,3842.0,3843.0,1091.0,1093.0,621.0,622.0
3841,1083,620,0,3841.0,3842.0,1086.0,1091.0,621.0,621.0
3838,1081,621,0,3841.0,3841.0,1083.0,1086.0,620.0,621.0
3838,1074,623,0,3838.0,3841.0,1081.0,1083.0,621.0,620.0
3840,1071,620,0,3838.0,3838.0,1074.0,1081.0,623.0,621.0
3845,1065,621,0,3840.0,3838.0,1071.0,1074.0,620.0,623.0
3845,1061,618,0,3845.0,3840.0,1065.0,1071.0,621.0,620.0
3846,1062,619,0,3845.0,3845.0,1061.0,1065.0,618.0,621.0
3848,1061,617,0,3846.0,3845.0,1062.0,1061.0,619.0,618.0
3847,1063,612,0,3848.0,3846.0,1061.0,1062.0,617.0,619.0
3849,1069,616,0,3847.0,3848.0,1063.0,1061.0,612.0,617.0
3848,1076,618,0,3849.0,3847.0,1069.0,1063.0,616.0,612.0
3847,1083,621,0,3848.0,3849.0,1076.0,1069.0,618.0,616.0
3849,1087,626,0,3847.0,3848.0,1083.0,1076.0,621.0,618.0
3848,1091,629,0,3849.0,3847.0,1087.0,1083.0,626.0,621.0
3846,1091,627,0,3848.0,3849.0,1091.0,1087.0,629.0,626.0
3840,1090,627,0,3846.0,3848.0,1091.0,1091.0,627.0,629.0
3840,1089,628,0,3840.0,3846.0,1090.0,1091.0,627.0,627.0
3834,1087,630,0,3840.0,3840.0,1089.0,1090.0,628.0,627.0
3827,1082,626,0,3834.0,3840.0,1087.0,1089.0,630.0,628.0
3831,1073,624,0,3827.0,3834.0,1082.0,1087.0,626.0,630.0
3830,1071,621,0,3831.0,3827.0,1073.0,1082.0,624.0,626.0
3836,1066,619,0,3830.0,3831.0,1071.0,1073.0,621.0,624.0
3835,1059,616,0,3836.0,3830.0,1066.0,1071.0,619.0,621.0
3844,1061,611,0,3835.0,3836.0,1059.0,1066.0,616.0,619.0
3851,1063,611,0,3844.0,3835.0,1061.0,1059.0,611.0,616.0
3856,1063,608,0,3851.0,3844.0,1063.0,1061.0,611.0,611.0
3864,1064,607,0,3856.0,3851.0,1063.0,1063.0,608.0,611.0
3870,1061,611,0,3864.0,3856.0,1064.0,1063.0,607.0,608.0
3875,1059,615,0,3870.0,3864.0,1061.0,1064.0,611.0,607.0
3878,1060,615,0,3875.0,3870.0,1059.0,1061.0,615.0,611.0
3874,1059,618,0,3878.0,3875.0,1060.0,1059.0,615.0,615.0
3865,1062,621,0,3874.0,3878.0,1059.0,1060.0,618.0,615.0
3859,1059,623,0,3865.0,3874.0,1062.0,1059.0,621.0,618.0
3848,1061,622,0,3859.0,3865.0,1059.0,1062.0,623.0,621.0
3839,1063,624,0,3848.0,3859.0,1061.0,1059.0,622.0,623.0
3829,1062,619,0,3839.0,3848.0,1063.0,1061.0,624.0,622.0
3827,1058,609,0,3829.0,3839.0,1062.0,1063.0,619.0,624.0
3825,1052,605,0,3827.0,3829.0,1058.0,1062.0,609.0,619.0
3831,1047,601,0,3825.0,3827.0,1052.0,1058.0,605.0,609.0
3831,1045,598,0,3831.0,3825.0,1047.0,1052.0,601.0,605.0
3833,1045,597,0,3831.0,3831.0,1045.0,1047.0,598.0,601.0
3840,1043,595,0,3833.0,3831.0,1045.0,1045.0,597.0,598.0
3847,1051,600,0,3840.0,3833.0,1043.0,1045.0,595.0,597.0
3852,1055,604,0,3847.0,3840.0,1051.0,1043.0,600.0,595.0
3860,1060,608,0,3852.0,3847.0,1055.0,1051.0,604.0,600.0
3863,1071,613,0,3860.0,3852.0,1060.0,1055.0,608.0,604.0
3869,1077,613,0,3863.0,3860.0,1071.0,1060.0,613.0,608.0
3876,1082,614,0,3869.0,3863.0,1077.0,1071.0,613.0,613.0
3878,1080,620,0,3876.0,3869.0,1082.0,1077.0,614.0,613.0
3878,1078,621,0,3878.0,3876.0,1080.0,1082.0,620.0,614.0
3874,1074,619,0,3878.0,3878.0,1078.0,1080.0,621.0,620.0
3870,1074,621,0,3874.0,3878.0,1074.0,1078.0,619.0,621.0
3863,1067,617,0,3870.0,3874.0,1074.0,1074.0,621.0,619.0
3856,1065,618,0,3863.0,3870.0,1067.0,1074.0,617.0,621.0
3847,1063,613,0,3856.0,3863.0,1065.0,1067.0,618.0,617.0
3837,1057,607,0,3847.0,3856.0,1063.0,1065.0,613.0,618.0
3834,1051,602,0,3837.0,3847.0,1057.0,1063.0,607.0,613.0
3829,1049,599,0,3834.0,3837.0,1051.0,1057.0,602.0,607.0
3827,1044,600,0,3829.0,3834.0,1049.0,1051.0,599.0,602.0
3830,1046,604,0,3827.0,3829.0,1044.0,1049.0,600.0,599.0
3832,1046,604,0,3830.0,3827.0,1046.0,1044.0,604.0,600.0
3835,1053,608,0,3832.0,3830.0,1046.0,1046.0,604.0,604.0
3838,1060,612,0,3835.0,3832.0,1053.0,1046.0,608.0,604.0
3841,1065,616,0,3838.0,3835.0,1060.0,1053.0,612.0,608.0
3850,1067,618,0,3841.0,3838.0,1065.0,1060.0,616.0,612.0
3856,1069,616,0,3850.0,3841.0,1067.0,1065.0,618.0,616.0
3860,1073,615,0,3856.0,3850.0,1069.0,1067.0,616.0,618.0
3865,1074,615,0,3860.0,3856.0,1073.0,1069.0,615.0,616.0
3872,1073,615,0,3865.0,3860.0,1074.0,1073.0,615.0,615.0
3872,1071,611,0,3872.0,3865.0,1073.0,1074.0,615.0,615.0
3870,1067,608,0,3872.0,3872.0,1071.0,1073.0,611.0,615.0
3867,1064,606,0,3870.0,3872.0,1067.0,1071.0,608.0,611.0
3862,1063,604,0,3867.0,3870.0,1064.0,1067.0,606.0,608.0
3857,1060,598,0,3862.0,3867.0,1063.0,1064.0,604.0,606.0
3853,1059,595,0,3857.0,3862.0,1060.0,1063.0,598.0,604.0
3853,1056,596,0,3853.0,3857.0,1059.0,1060.0,595.0,598.0
3851,1053,593,0,3853.0,3853.0,1056.0,1059.0,596.0,595.0
3850,1049,589,0,3851.0,3853.0,1053.0,1056.0,593.0,596.0
3852,1042,593,0,3850.0,3851.0,1049.0,1053.0,589.0,593.0
3853,1042,597,0,3852.0,3850.0,1042.0,1049.0,593.0,589.0
3856,1039,602,0,3853.0,3852.0,1042.0,1042.0,597.0,593.0
3856,1036,607,0,3856.0,3853.0,1039.0,1042.0,602.0,597.0
3858,1038,609,0,3856.0,3856.0,1036.0,1039.0,607.0,602.0
3864,1035,615,0,3858.0,3856.0,1038.0,1036.0,609.0,607.0
3869,1035,615,0,3864.0,3858.0,1035.0,1038.0,615.0,609.0
3867,1033,611,0,3869.0,3864.0,1035.0,1035.0,615.0,615.0
3867,1030,609,0,3867.0,3869.0,1033.0,1035.0,611.0,615.0
3864,1025,607,0,3867.0,3867.0,1030.0,1033.0,609.0,611.0
3861,1027,604,0,3864.0,3867.0,1025.0,1030.0,607.0,609.0
3862,1024,603,0,3861.0,3864.0,1027.0,1025.0,604.0,607.0
3860,1023,600,0,3862.0,3861.0,1024.0,1027.0,603.0,604.0
3859,1022,598,0,3860.0,3862.0,1023.0,1024.0,600.0,603.0
3856,1023,599,0,3859.0,3860.0,1022.0,1023.0,598.0,600.0
3858,1023,599,0,3856.0,3859.0,1023.0,1022.0,599.0,598.0
3860,1024,601,0,3858.0,3856.0,1023.0,1023.0,599.0,599.0
3867,1029,601,0,3860.0,3858.0,1024.0,1023.0,601.0,599.0
3869,1032,603,0,3867.0,3860.0,1029.0,1024.0,601.0,601.0
3873,1035,610,0,3869.0,3867.0,1032.0,1029.0,603.0,601.0
3872,1036,608,0,3873.0,3869.0,1035.0,1032.0,610.0,603.0
3864,1040,605,0,3872.0,3873.0,1036.0,1035.0,608.0,610.0
3862,1040,602,0,3864.0,3872.0,1040.0,1036.0,605.0,608.0
3860,1034,599,0,3862.0,3864.0,1040.0,1040.0,602.0,605.0
3860,1029,593,0,3860.0,3862.0,1034.0,1040.0,599.0,602.0
3855,1029,591,0,3860.0,3860.0,1029.0,1034.0,593.0,599.0
3854,1026,589,0,3855.0,3860.0,1029.0,1029.0,591.0,593.0
3852,1021,587,0,3854.0,3855.0,1026.0,1029.0,589.0,591.0
3852,1022,585,0,3852.0,3854.0,1021.0,1026.0,587.0,589.0
3852,1021,585,0,3852.0,3852.0,1022.0,1021.0,585.0,587.0
3853,1020,590,0,3852.0,3852.0,1021.0,1022.0,585.0,585.0
3855,1022,591,0,3853.0,3852.0,1020.0,1021.0,590.0,585.0
3860,1024,594,0,3855.0,3853.0,1022.0,1020.0,591.0,590.0
3864,1027,592,0,3860.0,3855.0,1024.0,1022.0,594.0,591.0
3867,1031,595,0,3864.0,3860.0,1027.0,1024.0,592.0,594.0
3876,1033,595,0,3867.0,3864.0,1031.0,1027.0,595.0,592.0
3879,1037,597,0,3876.0,3867.0,1033.0,1031.0,595.0,595.0
3881,1037,599,0,3879.0,3876.0,1037.0,1033.0,597.0,595.0
3883,1034,601,0,3881.0,3879.0,1037.0,1037.0,599.0,597.0
3887,1038,603,0,3883.0,3881.0,1034.0,1037.0,601.0,599.0
3888,1035,604,0,3887.0,3883.0,1038.0,1034.0,603.0,601.0
3889,1029,600,0,3888.0,3887.0,1035.0,1038.0,604.0,603.0
3885,1021,598,0,3889.0,3888.0,1029.0,1035.0,600.0,604.0
3881,1015,596,0,3885.0,3889.0,1021.0,1029.0,598.0,600.0
3870,1009,597,0,3881.0,3885.0,1015.0,1021.0,596.0,598.0
3867,1005,597,0,3870.0,3881.0,1009.0,1015.0,597.0,596.0
3862,1003,597,0,3867.0,3870.0,1005.0,1009.0,597.0,597.0
3855,999,593,0,3862.0,3867.0,1003.0,1005.0,597.0,597.0
3851,998,593,0,3855.0,3862.0,999.0,1003.0,593.0,597.0
3848,996,590,0,3851.0,3855.0,998.0,999.0,593.0,593.0
3848,995,585,0,3848.0,3851.0,996.0,998.0,590.0,593.0
3849,994,586,0,3848.0,3848.0,995.0,996.0,585.0,590.0
3852,995,584,0,3849.0,3848.0,994.0,995.0,586.0,585.0
3855,998,587,0,3852.0,3849.0,995.0,994.0,584.0,586.0
3858,1008,588,0,3855.0,3852.0,998.0,995.0,587.0,584.0
3859,1019,594,0,3858.0,3855.0,1008.0,998.0,588.0,587.0
3866,1028,597,0,3859.0,3858.0,1019.0,1008.0,594.0,588.0
3869,1041,602,0,3866.0,3859.0,1028.0,1019.0,597.0,594.0
3868,1052,601,0,3869.0,3866.0,1041.0,1028.0,602.0,597.0
3867,1061,600,0,3868.0,3869.0,1052.0,1041.0,601.0,602.0
3867,1069,594,0,3867.0,3868.0,1061.0,1052.0,600.0,601.0
3867,1073,593,0,3867.0,3867.0,1069.0,1061.0,594.0,600.0
3864,1078,589,0,3867.0,3867.0,1073.0,1069.0,593.0,594.0
3859,1075,591,0,3864.0,3867.0,1078.0,1073.0,589.0,593.0
3858,1075,588,0,3859.0,3864.0,1075.0,1078.0,591.0,589.0
3856,1071,586,0,3858.0,3859.0,1075.0,1075.0,588.0,591.0
3856,1063,587,0,3856.0,3858.0,1071.0,1075.0,586.0,588.0
3858,1062,593,0,3856.0,3856.0,1063.0,1071.0,587.0,586.0
3857,1054,598,0,3858.0,3856.0,1062.0,1063.0,593.0,587.0
3854,1050,602,0,3857.0,3858.0,1054.0,1062.0,598.0,593.0
3850,1044,604,0,3854.0,3857.0,1050.0,1054.0,602.0,598.0
3850,1042,600,0,3850.0,3854.0,1044.0,1050.0,604.0,602.0
3849,1035,600,0,3850.0,3850.0,1042.0,1044.0,600.0,604.0
3849,1028,599,0,3849.0,3850.0,1035.0,1042.0,600.0,600.0
3849,1027,596,0,3849.0,3849.0,1028.0,1035.0,599.0,600.0
3855,1018,592,0,3849.0,3849.0,1027.0,1028.0,596.0,599.0
3861,1011,588,0,3855.0,3849.0,1018.0,1027.0,592.0,596.0
3869,1002,585,0,3861.0,3855.0,1011.0,1018.0,588.0,592.0
3869,1002,590,0,3869.0,3861.0,1002.0,1011.0,585.0,588.0
3872,1007,593,0,3869.0,3869.0,1002.0,1002.0,590.0,585.0
3875,1010,598,0,3872.0,3869.0,1007.0,1002.0,593.0,590.0
3874,1017,602,0,3875.0,3872.0,1010.0,1007.0,598.0,593.0
3873,1023,608,0,3874.0,3875.0,1017.0,1010.0,602.0,598.0
3873,1029,609,0,3873.0,3874.0,1023.0,1017.0,608.0,602.0
3870,1034,609,0,3873.0,3873.0,1029.0,1023.0,609.0,608.0
3866,1036,606,0,3870.0,3873.0,1034.0,1029.0,609.0,609.0
3866,1034,601,0,3866.0,3870.0,1036.0,1034.0,606.0,609.0
3870,1028,594,0,3866.0,3866.0,1034.0,1036.0,601.0,606.0
3872,1022,589,0,3870.0,3866.0,1028.0,1034.0,594.0,601.0
3871,1018,586,0,3872.0,3870.0,1022.0,1028.0,589.0,594.0
3872,1013,583,0,3871.0,3872.0,1018.0,1022.0,586.0,589.0
3876,1015,581,0,3872.0,3871.0,1013.0,1018.0,583.0,586.0
3875,1019,580,0,3876.0,3872.0,1015.0,1013.0,581.0,583.0
3876,1028,580,0,3875.0,3876.0,1019.0,1015.0,580.0,581.0
3875,1031,585,0,3876.0,3875.0,1028.0,1019.0,580.0,580.0
3877,1034,584,0,3875.0,3876.0,1031.0,1028.0,585.0,580.0
3875,1040,587,0,3877.0,3875.0,1034.0,1031.0,584.0,585.0
3874,1044,592,0,3875.0,3877.0,1040.0,1034.0,587.0,584.0
3869,1048,597,0,3874.0,3875.0,1044.0,1040.0,592.0,587.0
3866,1048,602,0,3869.0,3874.0,1048.0,1044.0,597.0,592.0
3864,1046,609,0,3866.0,3869.0,1048.0,1048.0,602.0,597.0
3858,1043,613,0,3864.0,3866.0,1046.0,1048.0,609.0,602.0
3851,1040,617,0,3858.0,3864.0,1043.0,1046.0,613.0,609.0
3849,1036,614,0,3851.0,3858.0,1040.0,1043.0,617.0,613.0
3843,1028,609,0,3849.0,3851.0,1036.0,1040.0,614.0,617.0
3845,1024,600,0,3843.0,3849.0,1028.0,1036.0,609.0,614.0
3845,1018,593,0,3845.0,3843.0,1024.0,1028.0,600.0,609.0
3850,1010,581,0,3845.0,3845.0,1018.0,1024.0,593.0,600.0
3853,1002,570,0,3850.0,3845.0,1010.0,1018.0,581.0,593.0
3863,1000,563,0,3853.0,3850.0,1002.0,1010.0,570.0,581.0
3868,999,561,0,3863.0,3853.0,1000.0,1002.0,563.0,570.0
3875,1001,564,0,3868.0,3863.0,999.0,1000.0,561.0,563.0
3885,1008,566,0,3875.0,3868.0,1001.0,999.0,564.0,561.0
3891,1016,573,0,3885.0,3875.0,1008.0,1001.0,566.0,564.0
3889,1027,584,0,3891.0,3885.0,1016.0,1008.0,573.0,566.0
3899,1036,593,0,3889.0,3891.0,1027.0,1016.0,584.0,573.0
3898,1047,597,0,3899.0,3889.0,1036.0,1027.0,593.0,584.0
3896,1054,600,0,3898.0,3899.0,1047.0,1036.0,597.0,593.0
3889,1059,600,0,3896.0,3898.0,1054.0,1047.0,600.0,597.0
3878,1058,601,0,3889.0,3896.0,1059.0,1054.0,600.0,600.0
3868,1057,595,0,3878.0,3889.0,1058.0,1059.0,601.0,600.0
3859,1054,591,0,3868.0,3878.0,1057.0,1058.0,595.0,601.0
3851,1058,586,0,3859.0,3868.0,1054.0,1057.0,591.0,595.0
3840,1053,585,0,3851.0,3859.0,1058.0,1054.0,586.0,591.0
3836,1050,584,0,3840.0,3851.0,1053.0,1058.0,585.0,586.0
3839,1048,588,0,3836.0,3840.0,1050.0,1053.0,584.0,585.0
3840,1050,589,0,3839.0,3836.0,1048.0,1050.0,588.0,584.0
3846,1055,594,0,3840.0,3839.0,1050.0,1048.0,589.0,588.0
3849,1057,596,0,3846.0,3840.0,1055.0,1050.0,594.0,589.0
3856,1064,598,0,3849.0,3846.0,1057.0,1055.0,596.0,594.0
3863,1072,599,0,3856.0,3849.0,1064.0,1057.0,598.0,596.0
3868,1082,597,0,3863.0,3856.0,1072.0,1064.0,599.0,598.0
3864,1087,600,0,3868.0,3863.0,1082.0,1072.0,597.0,599.0
3864,1095,600,0,3864.0,3868.0,1087.0,1082.0,600.0,597.0
3860,1100,597,0,3864.0,3864.0,1095.0,1087.0,600.0,600.0
3855,1103,596,0,3860.0,3864.0,1100.0,1095.0,597.0,600.0
3852,1106,592,0,3855.0,3860.0,1103.0,1100.0,596.0,597.0
3843,1104,591,0,3852.0,3855.0,1106.0,1103.0,592.0,596.0
3834,1097,589,0,3843.0,3852.0,1104.0,1106.0,591.0,592.0
3823,1089,587,0,3834.0,3843.0,1097.0,1104.0,589.0,591.0
3820,1080,580,0,3823.0,3834.0,1089.0,1097.0,587.0,589.0
3818,1074,577,0,3820.0,3823.0,1080.0,1089.0,580.0,587.0
3817,1068,575,0,3818.0,3820.0,1074.0,1080.0,577.0,580.0
3820,1059,573,0,3817.0,3818.0,1068.0,1074.0,575.0,577.0
3826,1045,570,0,3820.0,3817.0,1059.0,1068.0,573.0,575.0
3839,1033,573,0,3826.0,3820.0,1045.0,1059.0,570.0,573.0
3849,1021,577,0,3839.0,3826.0,1033.0,1045.0,573.0,570.0
3864,1014,583,0,3849.0,3839.0,1021.0,1033.0,577.0,573.0
3877,1012,592,0,3864.0,3849.0,1014.0,1021.0,583.0,577.0
3889,1015,599,0,3877.0,3864.0,1012.0,1014.0,592.0,583.0
3899,1015,603,0,3889.0,3877.0,1015.0,1012.0,599.0,592.0
3906,1016,603,0,3899.0,3889.0,1015.0,1015.0,603.0,599.0
3907,1011,601,0,3906.0,3899.0,1016.0,1015.0,603.0,603.0
3906,1012,602,0,3907.0,3906.0,1011.0,1016.0,601.0,603.0
3904,1007,599,0,3906.0,3907.0,1012.0,1011.0,602.0,601.0
3899,1010,599,0,3904.0,3906.0,1007.0,1012.0,599.0,602.0
3888,1009,599,0,3899.0,3904.0,1010.0,1007.0,599.0,599.0
3880,1007,598,0,3888.0,3899.0,1009.0,1010.0,599.0,599.0
3878,1005,600,0,3880.0,3888.0,1007.0,1009.0,598.0,599.0
3871,1001,599,0,3878.0,3880.0,1005.0,1007.0,600.0,598.0
3863,998,604,0,3871.0,3878.0,1001.0,1005.0,599.0,600.0
3861,995,611,0,3863.0,3871.0,998.0,1001.0,604.0,599.0
3857,986,613,0,3861.0,3863.0,995.0,998.0,611.0,604.0
3854,986,616,0,3857.0,3861.0,986.0,995.0,613.0,611.0
3856,981,615,0,3854.0,3857.0,986.0,986.0,616.0,613.0
3855,973,615,0,3856.0,3854.0,981.0,986.0,615.0,616.0
3861,970,613,0,3855.0,3856.0,973.0,981.0,615.0,615.0
3864,966,609,0,3861.0,3855.0,970.0,973.0,613.0,615.0
3868,964,606,0,3864.0,3861.0,966.0,970.0,609.0,613.0
3874,962,606,0,3868.0,3864.0,964.0,966.0,606.0,609.0
3879,965,611,0,3874.0,3868.0,962.0,964.0,606.0,606.0
3883,970,617,0,3879.0,3874.0,965.0,962.0,611.0,606.0
3883,973,623,0,3883.0,3879.0,970.0,965.0,617.0,611.0
3882,982,624,0,3883.0,3883.0,973.0,970.0,623.0,617.0
3880,986,624,0,3882.0,3883.0,982.0,973.0,624.0,623.0
3879,992,624,0,3880.0,3882.0,986.0,982.0,624.0,624.0
3873,998,621,0,3879.0,3880.0,992.0,986.0,624.0,624.0
3867,1002,619,0,3873.0,3879.0,998.0,992.0,621.0,624.0
3864,1007,614,0,3867.0,3873.0,1002.0,998.0,619.0,621.0
3858,1007,617,0,3864.0,3867.0,1007.0,1002.0,614.0,619.0
3855,1009,617,0,3858.0,3864.0,1007.0,1007.0,617.0,614.0
3855,1011,618,0,3855.0,3858.0,1009.0,1007.0,617.0,617.0
3856,1016,619,0,3855.0,3855.0,1011.0,1009.0,618.0,617.0
3859,1020,621,0,3856.0,3855.0,1016.0,1011.0,619.0,618.0
3861,1026,624,0,3859.0,3856.0,1020.0,1016.0,621.0,619.0
3868,1027,626,0,3861.0,3859.0,1026.0,1020.0,624.0,621.0
3873,1032,623,0,3868.0,3861.0,1027.0,1026.0,626.0,624.0
3874,1042,622,0,3873.0,3868.0,1032.0,1027.0,623.0,626.0
3870,1048,620,0,3874.0,3873.0,1042.0,1032.0,622.0,623.0
3871,1058,618,0,3870.0,3874.0,1048.0,1042.0,620.0,622.0
3865,1062,618,0,3871.0,3870.0,1058.0,1048.0,618.0,620.0
3860,1066,616,0,3865.0,3871.0,1062.0,1058.0,618.0,618.0
3862,1065,616,0,3860.0,3865.0,1066.0,1062.0,616.0,618.0
3861,1064,616,0,3862.0,3860.0,1065.0,1066.0,616.0,616.0
3857,1060,613,0,3861.0,3862.0,1064.0,1065.0,616.0,616.0
3856,1060,612,0,3857.0,3861.0,1060.0,1064.0,613.0,616.0
3852,1058,612,0,3856.0,3857.0,1060.0,1060.0,612.0,613.0
3851,1061,613,0,3852.0,3856.0,1058.0,1060.0,612.0,612.0
3846,1058,615,0,3851.0,3852.0,1061.0,1058.0,613.0,612.0
3843,1063,615,0,3846.0,3851.0,1058.0,1061.0,615.0,613.0
3844,1062,614,0,3843.0,3846.0,1063.0,1058.0,615.0,615.0
3843,1062,613,0,3844.0,3843.0,1062.0,1063.0,614.0,615.0
3845,1060,605,0,3843.0,3844.0,1062.0,1062.0,613.0,614.0
3843,1057,603,0,3845.0,3843.0,1060.0,1062.0,605.0,613.0
3842,1056,598,0,3843.0,3845.0,1057.0,1060.0,603.0,605.0
3837,1058,595,0,3842.0,3843.0,1056.0,1057.0,598.0,603.0
3839,1056,592,0,3837.0,3842.0,1058.0,1056.0,595.0,598.0
3842,1059,594,0,3839.0,3837.0,1056.0,1058.0,592.0,595.0
3846,1058,595,0,3842.0,3839.0,1059.0,1056.0,594.0,592.0
3848,1061,601,0,3846.0,3842.0,1058.0,1059.0,595.0,594.0
3851,1063,605,0,3848.0,3846.0,1061.0,1058.0,601.0,595.0
3853,1068,602,0,3851.0,3848.0,1063.0,1061.0,605.0,601.0
3855,1075,604,0,3853.0,3851.0,1068.0,1063.0,602.0,605.0
3853,1078,606,0,3855.0,3853.0,1075.0,1068.0,604.0,602.0
3853,1082,606,0,3853.0,3855.0,1078.0,1075.0,606.0,604.0
3852,1086,604,0,3853.0,3853.0,1082.0,1078.0,606.0,606.0
3848,1089,604,0,3852.0,3853.0,1086.0,1082.0,604.0,606.0
3846,1086,602,0,3848.0,3852.0,1089.0,1086.0,604.0,604.0
3846,1082,603,0,3846.0,3848.0,1086.0,1089.0,602.0,604.0
3845,1072,605,0,3846.0,3846.0,1082.0,1086.0,603.0,602.0
3842,1065,605,0,3845.0,3846.0,1072.0,1082.0,605.0,603.0
3839,1057,606,0,3842.0,3845.0,1065.0,1072.0,605.0,605.0
3839,1046,607,0,3839.0,3842.0,1057.0,1065.0,606.0,605.0
3842,1042,610,0,3839.0,3839.0,1046.0,1057.0,607.0,606.0
3846,1037,610,0,3842.0,3839.0,1042.0,1046.0,610.0,607.0
3847,1034,606,0,3846.0,3842.0,1037.0,1042.0,610.0,610.0
3849,1028,606,0,3847.0,3846.0,1034.0,1037.0,606.0,610.0
3852,1028,606,0,3849.0,3847.0,1028.0,1034.0,606.0,606.0
3855,1026,606,0,3852.0,3849.0,1028.0,1028.0,606.0,606.0
3858,1030,606,0,3855.0,3852.0,1026.0,1028.0,606.0,606.0
3857,1035,609,0,3858.0,3855.0,1030.0,1026.0,606.0,606.0
3861,1036,609,0,3857.0,3858.0,1035.0,1030.0,609.0,606.0
3858,1041,616,0,3861.0,3857.0,1036.0,1035.0,609.0,609.0
3857,1049,617,0,3858.0,3861.0,1041.0,1036.0,616.0,609.0
3853,1052,619,0,3857.0,3858.0,1049.0,1041.0,617.0,616.0
3849,1054,616,0,3853.0,3857.0,1052.0,1049.0,619.0,617.0
3846,1055,618,0,3849.0,3853.0,1054.0,1052.0,616.0,619.0
3848,1051,610,0,3846.0,3849.0,1055.0,1054.0,618.0,616.0
3852,1047,604,0,3848.0,3846.0,1051.0,1055.0,610.0,618.0
3855,1042,603,0,3852.0,3848.0,1047.0,1051.0,604.0,610.0
3856,1041,603,0,3855.0,3852.0,1042.0,1047.0,603.0,604.0
3857,1047,604,0,3856.0,3855.0,1041.0,1042.0,603.0,603.0
3858,1055,605,0,3857.0,3856.0,1047.0,1041.0,604.0,603.0
3865,1061,612,0,3858.0,3857.0,1055.0,1047.0,605.0,604.0
3866,1064,617,0,3865.0,3858.0,1061.0,1055.0,612.0,605.0
3873,1061,619,0,3866.0,3865.0,1064.0,1061.0,617.0,612.0
3877,1064,622,0,3873.0,3866.0,1061.0,1064.0,619.0,617.0
3877,1061,628,0,3877.0,3873.0,1064.0,1061.0,622.0,619.0
3875,1062,636,0,3877.0,3877.0,1061.0,1064.0,628.0,622.0
3864,1060,648,0,3875.0,3877.0,1062.0,1061.0,636.0,628.0
3856,1058,654,0,3864.0,3875.0,1060.0,1062.0,648.0,636.0
3845,1056,657,0,3856.0,3864.0,1058.0,1060.0,654.0,648.0
3830,1060,652,0,3845.0,3856.0,1056.0,1058.0,657.0,654.0
3821,1062,649,0,3830.0,3845.0,1060.0,1056.0,652.0,657.0
3818,1058,636,0,3821.0,3830.0,1062.0,1060.0,649.0,652.0
3814,1053,630,0,3818.0,3821.0,1058.0,1062.0,636.0,649.0
3809,1051,629,0,3814.0,3818.0,1053.0,1058.0,630.0,636.0
3813,1052,633,0,3809.0,3814.0,1051.0,1053.0,629.0,630.0
3821,1052,630,0,3813.0,3809.0,1052.0,1051.0,633.0,629.0
3827,1053,625,0,3821.0,3813.0,1052.0,1052.0,630.0,633.0
3843,1053,615,0,3827.0,3821.0,1053.0,1052.0,625.0,630.0
3857,1058,607,0,3843.0,3827.0,1053.0,1053.0,615.0,625.0
3870,1060,604,0,3857.0,3843.0,1058.0,1053.0,607.0,615.0
3875,1065,601,0,3870.0,3857.0,1060.0,1058.0,604.0,607.0
3878,1068,611,0,3875.0,3870.0,1065.0,1060.0,601.0,604.0
3881,1076,625,0,3878.0,3875.0,1068.0,1065.0,611.0,601.0
3877,1081,634,0,3881.0,3878.0,1076.0,1068.0,625.0,611.0
3869,1079,636,0,3877.0,3881.0,1081.0,1076.0,634.0,625.0
3867,1072,628,0,3869.0,3877.0,1079.0,1081.0,636.0,634.0
3862,1065,614,0,3867.0,3869.0,1072.0,1079.0,628.0,636.0
3860,1055,605,0,3862.0,3867.0,1065.0,1072.0,614.0,628.0
3855,1044,596,0,3860.0,3862.0,1055.0,1065.0,605.0,614.0
3848,1040,593,0,3855.0,3860.0,1044.0,1055.0,596.0,605.0
3848,1036,585,0,3848.0,3855.0,1040.0,1044.0,593.0,596.0
3842,1036,584,0,3848.0,3848.0,1036.0,1040.0,585.0,593.0
3845,1038,588,0,3842.0,3848.0,1036.0,1036.0,584.0,585.0
3849,1048,590,0,3845.0,3842.0,1038.0,1036.0,588.0,584.0
3850,1058,594,0,3849.0,3845.0,1048.0,1038.0,590.0,588.0
3859,1066,599,0,3850.0,3849.0,1058.0,1048.0,594.0,590.0
3862,1075,602,0,3859.0,3850.0,1066.0,1058.0,599.0,594.0
3870,1083,601,0,3862.0,3859.0,1075.0,1066.0,602.0,599.0
3874,1085,604,0,3870.0,3862.0,1083.0,1075.0,601.0,602.0
3882,1085,607,0,3874.0,3870.0,1085.0,1083.0,604.0,601.0
3880,1088,607,0,3882.0,3874.0,1085.0,1085.0,607.0,604.0
3874,1087,609,0,3880.0,3882.0,1088.0,1085.0,607.0,607.0
3872,1084,608,0,3874.0,3880.0,1087.0,1088.0,609.0,607.0
3863,1078,608,0,3872.0,3874.0,1084.0,1087.0,608.0,609.0
3855,1073,608,0,3863.0,3872.0,1078.0,1084.0,608.0,608.0
3844,1065,603,0,3855.0,3863.0,1073.0,1078.0,608.0,608.0
3834,1059,601,0,3844.0,3855.0,1065.0,1073.0,603.0,608.0
3826,1048,599,0,3834.0,3844.0,1059.0,1065.0,601.0,603.0
3819,1040,597,0,3826.0,3834.0,1048.0,1059.0,599.0,601.0
3813,1029,593,0,3819.0,3826.0,1040.0,1048.0,597.0,599.0
3813,1026,589,0,3813.0,3819.0,1029.0,1040.0,593.0,597.0
3816,1026,585,0,3813.0,3813.0,1026.0,1029.0,589.0,593.0
3825,1026,590,0,3816.0,3813.0,1026.0,1026.0,585.0,589.0
3833,1025,598,0,3825.0,3816.0,1026.0,1026.0,590.0,585.0
3845,1029,604,0,3833.0,3825.0,1025.0,1026.0,598.0,590.0
3857,1030,608,0,3845.0,3833.0,1029.0,1025.0,604.0,598.0
3866,1033,613,0,3857.0,3845.0,1030.0,1029.0,608.0,604.0
3878,1034,619,0,3866.0,3857.0,1033.0,1030.0,613.0,608.0
3883,1041,624,0,3878.0,3866.0,1034.0,1033.0,619.0,613.0
3889,1038,626,0,3883.0,3878.0,1041.0,1034.0,624.0,619.0
3890,1037,628,0,3889.0,3883.0,1038.0,1041.0,626.0,624.0
3887,1035,614,0,3890.0,3889.0,1037.0,1038.0,628.0,626.0
3882,1028,611,0,3887.0,3890.0,1035.0,1037.0,614.0,628.0
3876,1017,604,0,3882.0,3887.0,1028.0,1035.0,611.0,614.0
3867,1011,600,0,3876.0,3882.0,1017.0,1028.0,604.0,611.0
3858,1008,597,0,3867.0,3876.0,1011.0,1017.0,600.0,604.0
3854,1001,593,0,3858.0,3867.0,1008.0,1011.0,597.0,600.0
3853,999,592,0,3854.0,3858.0,1001.0,1008.0,593.0,597.0
3851,998,594,0,3853.0,3854.0,999.0,1001.0,592.0,593.0
3854,1003,597,0,3851.0,3853.0,998.0,999.0,594.0,592.0
3855,1009,602,0,3854.0,3851.0,1003.0,998.0,597.0,594.0
3867,1013,604,0,3855.0,3854.0,1009.0,1003.0,602.0,597.0
3873,1021,601,0,3867.0,3855.0,1013.0,1009.0,604.0,602.0
3878,1023,601,0,3873.0,3867.0,1021.0,1013.0,601.0,604.0
3880,1026,604,0,3878.0,3873.0,1023.0,1021.0,601.0,601.0
3882,1030,607,0,3880.0,3878.0,1026.0,1023.0,604.0,601.0
3888,1028,611,0,3882.0,3880.0,1030.0,1026.0,607.0,604.0
3886,1033,622,0,3888.0,3882.0,1028.0,1030.0,611.0,607.0
3886,1037,633,0,3886.0,3888.0,1033.0,1028.0,622.0,611.0
3884,1038,641,0,3886.0,3886.0,1037.0,1033.0,633.0,622.0
3876,1036,642,0,3884.0,3886.0,1038.0,1037.0,641.0,633.0
3865,1035,643,0,3876.0,3884.0,1036.0,1038.0,642.0,641.0
3856,1035,648,0,3865.0,3876.0,1035.0,1036.0,643.0,642.0
3842,1042,646,0,3856.0,3865.0,1035.0,1035.0,648.0,643.0
3834,1047,641,0,3842.0,3856.0,1042.0,1035.0,646.0,648.0
3834,1048,625,0,3834.0,3842.0,1047.0,1042.0,641.0,646.0
3836,1046,612,0,3834.0,3834.0,1048.0,1047.0,625.0,641.0
3837,1039,594,0,3836.0,3834.0,1046.0,1048.0,612.0,625.0
3841,1034,576,0,3837.0,3836.0,1039.0,1046.0,594.0,612.0
3850,1032,563,0,3841.0,3837.0,1034.0,1039.0,576.0,594.0
3858,1032,554,0,3850.0,3841.0,1032.0,1034.0,563.0,576.0
3868,1037,556,0,3858.0,3850.0,1032.0,1032.0,554.0,563.0
3880,1040,564,0,3868.0,3858.0,1037.0,1032.0,556.0,554.0
3889,1052,575,0,3880.0,3868.0,1040.0,1037.0,564.0,556.0
3892,1066,589,0,3889.0,3880.0,1052.0,1040.0,575.0,564.0
3894,1073,598,0,3892.0,3889.0,1066.0,1052.0,589.0,575.0
3893,1079,605,0,3894.0,3892.0,1073.0,1066.0,598.0,589.0
3889,1083,609,0,3893.0,3894.0,1079.0,1073.0,605.0,598.0
3881,1080,601,0,3889.0,3893.0,1083.0,1079.0,609.0,605.0
3869,1077,596,0,3881.0,3889.0,1080.0,1083.0,601.0,609.0
3857,1070,586,0,3869.0,3881.0,1077.0,1080.0,596.0,601.0
3845,1060,576,0,3857.0,3869.0,1070.0,1077.0,586.0,596.0
3834,1050,572,0,3845.0,3857.0,1060.0,1070.0,576.0,586.0
3826,1043,573,0,3834.0,3845.0,1050.0,1060.0,572.0,576.0
3817,1038,577,0,3826.0,3834.0,1043.0,1050.0,573.0,572.0
3813,1040,583,0,3817.0,3826.0,1038.0,1043.0,577.0,573.0
3812,1047,586,0,3813.0,3817.0,1040.0,1038.0,583.0,577.0
3816,1055,590,0,3812.0,3813.0,1047.0,1040.0,586.0,583.0
3823,1067,594,0,3816.0,3812.0,1055.0,1047.0,590.0,586.0
3830,1075,595,0,3823.0,3816.0,1067.0,1055.0,594.0,590.0
3844,1083,596,0,3830.0,3823.0,1075.0,1067.0,595.0,594.0
3860,1090,601,0,3844.0,3830.0,1083.0,1075.0,596.0,595.0
3869,1092,607,0,3860.0,3844.0,1090.0,1083.0,601.0,596.0
3878,1094,617,0,3869.0,3860.0,1092.0,1090.0,607.0,601.0
3883,1092,626,0,3878.0,3869.0,1094.0,1092.0,617.0,607.0
3883,1093,627,0,3883.0,3878.0,1092.0,1094.0,626.0,617.0
3885,1091,626,0,3883.0,3883.0,1093.0,1092.0,627.0,626.0
3880,1089,623,0,3885.0,3883.0,1091.0,1093.0,626.0,627.0
3867,1081,614,0,3880.0,3885.0,1089.0,1091.0,623.0,626.0
3856,1073,607,0,3867.0,3880.0,1081.0,1089.0,614.0,623.0
3844,1064,598,0,3856.0,3867.0,1073.0,1081.0,607.0,614.0
3835,1054,593,0,3844.0,3856.0,1064.0,1073.0,598.0,607.0
3833,1039,586,0,3835.0,3844.0,1054.0,1064.0,593.0,598.0
3830,1027,587,0,3833.0,3835.0,1039.0,1054.0,586.0,593.0
3830,1016,591,0,3830.0,3833.0,1027.0,1039.0,587.0,586.0
3834,1008,592,0,3830.0,3830.0,1016.0,1027.0,591.0,587.0
3838,1002,598,0,3834.0,3830.0,1008.0,1016.0,592.0,591.0
3849,1006,602,0,3838.0,3834.0,1002.0,1008.0,598.0,592.0
3862,1005,611,0,3849.0,3838.0,1006.0,1002.0,602.0,598.0
3872,1012,613,0,3862.0,3849.0,1005.0,1006.0,611.0,602.0
3879,1009,610,0,3872.0,3862.0,1012.0,1005.0,613.0,611.0
3890,1007,611,0,3879.0,3872.0,1009.0,1012.0,610.0,613.0
3901,1002,610,0,3890.0,3879.0,1007.0,1009.0,611.0,610.0
3905,999,615,0,3901.0,3890.0,1002.0,1007.0,610.0,611.0
3906,995,616,0,3905.0,3901.0,999.0,1002.0,615.0,610.0
3903,986,616,0,3906.0,3905.0,995.0,999.0,616.0,615.0
3901,985,617,0,3903.0,3906.0,986.0,995.0,616.0,616.0
3897,978,615,0,3901.0,3903.0,985.0,986.0,617.0,616.0
3893,977,613,0,3897.0,3901.0,978.0,985.0,615.0,617.0
3882,971,609,0,3893.0,3897.0,977.0,978.0,613.0,615.0
3871,974,607,0,3882.0,3893.0,971.0,977.0,609.0,613.0
3862,978,610,0,3871.0,3882.0,974.0,971.0,607.0,609.0
3851,980,610,0,3862.0,3871.0,978.0,974.0,610.0,607.0
3844,990,607,0,3851.0,3862.0,980.0,978.0,610.0,610.0
3840,995,608,0,3844.0,3851.0,990.0,980.0,607.0,610.0
3837,1004,611,0,3840.0,3844.0,995.0,990.0,608.0,607.0
3836,1012,616,0,3837.0,3840.0,1004.0,995.0,611.0,608.0
3843,1018,619,0,3836.0,3837.0,1012.0,1004.0,616.0,611.0
3851,1024,619,0,3843.0,3836.0,1018.0,1012.0,619.0,616.0
3857,1030,621,0,3851.0,3843.0,1024.0,1018.0,619.0,619.0
3865,1037,616,0,3857.0,3851.0,1030.0,1024.0,621.0,619.0
3877,1040,616,0,3865.0,3857.0,1037.0,1030.0,616.0,621.0
3881,1044,622,0,3877.0,3865.0,1040.0,1037.0,616.0,616.0
3883,1045,622,0,3881.0,3877.0,1044.0,1040.0,622.0,616.0
3887,1053,628,0,3883.0,3881.0,1045.0,1044.0,622.0,622.0
3887,1057,633,0,3887.0,3883.0,1053.0,1045.0,628.0,622.0
3881,1059,638,0,3887.0,3887.0,1057.0,1053.0,633.0,628.0
3876,1062,643,0,3881.0,3887.0,1059.0,1057.0,638.0,633.0
3868,1060,651,0,3876.0,3881.0,1062.0,1059.0,643.0,638.0
3859,1060,649,0,3868.0,3876.0,1060.0,1062.0,651.0,643.0
3851,1055,645,0,3859.0,3868.0,1060.0,1060.0,649.0,651.0
3847,1042,637,0,3851.0,3859.0,1055.0,1060.0,645.0,649.0
3839,1037,626,0,3847.0,3851.0,1042.0,1055.0,637.0,645.0
3837,1022,617,0,3839.0,3847.0,1037.0,1042.0,626.0,637.0
3832,1012,610,0,3837.0,3839.0,1022.0,1037.0,617.0,626.0
3832,1007,606,0,3832.0,3837.0,1012.0,1022.0,610.0,617.0
3834,1004,603,0,3832.0,3832.0,1007.0,1012.0,606.0,610.0
3840,1008,609,0,3834.0,3832.0,1004.0,1007.0,603.0,606.0
3840,1017,613,0,3840.0,3834.0,1008.0,1004.0,609.0,603.0
3845,1035,621,0,3840.0,3840.0,1017.0,1008.0,613.0,609.0
3851,1050,631,0,3845.0,3840.0,1035.0,1017.0,621.0,613.0
3852,1069,637,0,3851.0,3845.0,1050.0,1035.0,631.0,621.0
3853,1089,651,0,3852.0,3851.0,1069.0,1050.0,637.0,631.0
3851,1109,665,0,3853.0,3852.0,1089.0,1069.0,651.0,637.0
3848,1121,668,0,3851.0,3853.0,1109.0,1089.0,665.0,651.0
3840,1123,660,0,3848.0,3851.0,1121.0,1109.0,668.0,665.0
3837,1121,643,0,3840.0,3848.0,1123.0,1121.0,660.0,668.0
3835,1110,632,0,3837.0,3840.0,1121.0,1123.0,643.0,660.0
3829,1106,622,0,3835.0,3837.0,1110.0,1121.0,632.0,643.0
3825,1100,614,0,3829.0,3835.0,1106.0,1110.0,622.0,632.0
3821,1099,612,0,3825.0,3829.0,1100.0,1106.0,614.0,622.0
3819,1097,608,0,3821.0,3825.0,1099.0,1100.0,612.0,614.0
3820,1093,606,0,3819.0,3821.0,1097.0,1099.0,608.0,612.0
3824,1098,611,0,3820.0,3819.0,1093.0,1097.0,606.0,608.0
3823,1106,617,0,3824.0,3820.0,1098.0,1093.0,611.0,606.0
3826,1122,624,0,3823.0,3824.0,1106.0,1098.0,617.0,611.0
3826,1132,630,0,3826.0,3823.0,1122.0,1106.0,624.0,617.0
3833,1142,636,0,3826.0,3826.0,1132.0,1122.0,630.0,624.0
3838,1150,640,0,3833.0,3826.0,1142.0,1132.0,636.0,630.0
3836,1154,639,0,3838.0,3833.0,1150.0,1142.0,640.0,636.0
3842,1150,636,0,3836.0,3838.0,1154.0,1150.0,639.0,640.0
3840,1146,629,0,3842.0,3836.0,1150.0,1154.0,636.0,639.0
3841,1141,625,0,3840.0,3842.0,1146.0,1150.0,629.0,636.0
3838,1132,621,0,3841.0,3840.0,1141.0,1146.0,625.0,629.0
3837,1123,611,0,3838.0,3841.0,1132.0,1141.0,621.0,625.0
3831,1116,606,0,3837.0,3838.0,1123.0,1132.0,611.0,621.0
3826,1116,607,0,3831.0,3837.0,1116.0,1123.0,606.0,611.0
3827,1114,609,0,3826.0,3831.0,1116.0,1116.0,607.0,606.0
3828,1119,608,0,3827.0,3826.0,1114.0,1116.0,609.0,607.0
3831,1125,612,0,3828.0,3827.0,1119.0,1114.0,608.0,609.0
3829,1131,617,0,3831.0,3828.0,1125.0,1119.0,612.0,608.0
3828,1135,627,0,3829.0,3831.0,1131.0,1125.0,617.0,612.0
3825,1138,639,0,3828.0,3829.0,1135.0,1131.0,627.0,617.0
3819,1133,641,0,3825.0,3828.0,1138.0,1135.0,639.0,627.0
3816,1125,644,0,3819.0,3825.0,1133.0,1138.0,641.0,639.0
3814,1114,648,0,3816.0,3819.0,1125.0,1133.0,644.0,641.0
3806,1110,659,0,3814.0,3816.0,1114.0,1125.0,648.0,644.0
3799,1110,657,0,3806.0,3814.0,1110.0,1114.0,659.0,648.0
3792,1102,649,0,3799.0,3806.0,1110.0,1110.0,657.0,659.0
3789,1093,635,0,3792.0,3799.0,1102.0,1110.0,649.0,657.0
3792,1082,618,0,3789.0,3792.0,1093.0,1102.0,635.0,649.0
3805,1074,603,0,3792.0,3789.0,1082.0,1093.0,618.0,635.0
3812,1073,597,0,3805.0,3792.0,1074.0,1082.0,603.0,618.0
3816,1071,592,0,3812.0,3805.0,1073.0,1074.0,597.0,603.0
3822,1078,601,0,3816.0,3812.0,1071.0,1073.0,592.0,597.0
3833,1088,604,0,3822.0,3816.0,1078.0,1071.0,601.0,592.0
3838,1095,610,0,3833.0,3822.0,1088.0,1078.0,604.0,601.0
3848,1097,611,0,3838.0,3833.0,1095.0,1088.0,610.0,604.0
3859,1100,606,0,3848.0,3838.0,1097.0,1095.0,611.0,610.0
3872,1100,601,0,3859.0,3848.0,1100.0,1097.0,606.0,611.0
3882,1102,593,0,3872.0,3859.0,1100.0,1100.0,601.0,606.0
3884,1107,588,0,3882.0,3872.0,1102.0,1100.0,593.0,601.0
3888,1112,588,0,3884.0,3882.0,1107.0,1102.0,588.0,593.0
3885,1124,588,0,3888.0,3884.0,1112.0,1107.0,588.0,588.0
3879,1134,590,0,3885.0,3888.0,1124.0,1112.0,588.0,588.0
3874,1145,593,0,3879.0,3885.0,1134.0,1124.0,590.0,588.0
3865,1157,598,0,3874.0,3879.0,1145.0,1134.0,593.0,590.0
3854,1159,600,0,3865.0,3874.0,1157.0,1145.0,598.0,593.0
3844,1161,605,0,3854.0,3865.0,1159.0,1157.0,600.0,598.0
3835,1158,609,0,3844.0,3854.0,1161.0,1159.0,605.0,600.0
3828,1153,606,0,3835.0,3844.0,1158.0,1161.0,609.0,605.0
3822,1143,604,0,3828.0,3835.0,1153.0,1158.0,606.0,609.0
3815,1134,606,0,3822.0,3828.0,1143.0,1153.0,604.0,606.0
3813,1125,604,0,3815.0,3822.0,1134.0,1143.0,606.0,604.0
3813,1115,605,0,3813.0,3815.0,1125.0,1134.0,604.0,606.0
3819,1105,606,0,3813.0,3813.0,1115.0,1125.0,605.0,604.0
3829,1096,611,0,3819.0,3813.0,1105.0,1115.0,606.0,605.0
3839,1092,615,0,3829.0,3819.0,1096.0,1105.0,611.0,606.0
3848,1089,619,0,3839.0,3829.0,1092.0,1096.0,615.0,611.0
3860,1090,621,0,3848.0,3839.0,1089.0,1092.0,619.0,615.0
3866,1089,623,0,3860.0,3848.0,1090.0,1089.0,621.0,619.0
3872,1090,626,0,3866.0,3860.0,1089.0,1090.0,623.0,621.0
3873,1091,625,0,3872.0,3866.0,1090.0,1089.0,626.0,623.0
3865,1091,624,0,3873.0,3872.0,1091.0,1090.0,625.0,626.0
3859,1093,620,0,3865.0,3873.0,1091.0,1091.0,624.0,625.0
3854,1089,619,0,3859.0,3865.0,1093.0,1091.0,620.0,624.0
3843,1087,613,0,3854.0,3859.0,1089.0,1093.0,619.0,620.0
3834,1089,606,0,3843.0,3854.0,1087.0,1089.0,613.0,619.0
3827,1086,606,0,3834.0,3843.0,1089.0,1087.0,606.0,613.0
3821,1089,603,0,3827.0,3834.0,1086.0,1089.0,606.0,606.0
3816,1094,602,0,3821.0,3827.0,1089.0,1086.0,603.0,606.0
3817,1098,601,0,3816.0,3821.0,1094.0,1089.0,602.0,603.0
3819,1101,601,0,3817.0,3816.0,1098.0,1094.0,601.0,602.0
3822,1106,604,0,3819.0,3817.0,1101.0,1098.0,601.0,601.0
3828,1112,603,0,3822.0,3819.0,1106.0,1101.0,604.0,601.0
3838,1113,606,0,3828.0,3822.0,1112.0,1106.0,603.0,604.0
3849,1114,609,0,3838.0,3828.0,1113.0,1112.0,606.0,603.0
3853,1119,605,0,3849.0,3838.0,1114.0,1113.0,609.0,606.0
3856,1119,605,0,3853.0,3849.0,1119.0,1114.0,605.0,609.0
3862,1119,607,0,3856.0,3853.0,1119.0,1119.0,605.0,605.0
3864,1119,605,0,3862.0,3856.0,1119.0,1119.0,607.0,605.0
3864,1117,606,0,3864.0,3862.0,1119.0,1119.0,605.0,607.0
3861,1119,605,0,3864.0,3864.0,1117.0,1119.0,606.0,605.0
3858,1120,606,0,3861.0,3864.0,1119.0,1117.0,605.0,606.0
3856,1118,610,0,3858.0,3861.0,1120.0,1119.0,606.0,605.0
3853,1119,613,0,3856.0,3858.0,1118.0,1120.0,610.0,606.0
3849,1113,613,0,3853.0,3856.0,1119.0,1118.0,613.0,610.0
3843,1110,618,0,3849.0,3853.0,1113.0,1119.0,613.0,613.0
3839,1100,621,0,3843.0,3849.0,1110.0,1113.0,618.0,613.0
3834,1094,622,0,3839.0,3843.0,1100.0,1110.0,621.0,618.0
3829,1089,621,0,3834.0,3839.0,1094.0,1100.0,622.0,621.0
3831,1081,621,0,3829.0,3834.0,1089.0,1094.0,621.0,622.0
3832,1077,622,0,3831.0,3829.0,1081.0,1089.0,621.0,621.0
3831,1074,622,0,3832.0,3831.0,1077.0,1081.0,622.0,621.0
3831,1072,624,0,3831.0,3832.0,1074.0,1077.0,622.0,622.0
3832,1068,626,0,3831.0,3831.0,1072.0,1074.0,624.0,622.0
3833,1065,630,0,3832.0,3831.0,1068.0,1072.0,626.0,624.0
3836,1065,633,0,3833.0,3832.0,1065.0,1068.0,630.0,626.0
3839,1061,634,0,3836.0,3833.0,1065.0,1065.0,633.0,630.0
3841,1057,632,0,3839.0,3836.0,1061.0,1065.0,634.0,633.0
3842,1056,629,0,3841.0,3839.0,1057.0,1061.0,632.0,634.0
3844,1054,628,0,3842.0,3841.0,1056.0,1057.0,629.0,632.0
3849,1051,627,0,3844.0,3842.0,1054.0,1056.0,628.0,629.0
3853,1047,625,0,3849.0,3844.0,1051.0,1054.0,627.0,628.0
3852,1042,629,0,3853.0,3849.0,1047.0,1051.0,625.0,627.0
3856,1038,632,0,3852.0,3853.0,1042.0,1047.0,629.0,625.0
3859,1040,638,0,3856.0,3852.0,1038.0,1042.0,632.0,629.0
3863,1036,645,0,3859.0,3856.0,1040.0,1038.0,638.0,632.0
3862,1039,650,0,3863.0,3859.0,1036.0,1040.0,645.0,638.0
3860,1035,650,0,3862.0,3863.0,1039.0,1036.0,650.0,645.0
3861,1032,648,0,3860.0,3862.0,1035.0,1039.0,650.0,650.0
3860,1032,649,0,3861.0,3860.0,1032.0,1035.0,648.0,650.0
3857,1032,645,0,3860.0,3861.0,1032.0,1032.0,649.0,648.0
3856,1030,641,0,3857.0,3860.0,1032.0,1032.0,645.0,649.0
3852,1031,636,0,3856.0,3857.0,1030.0,1032.0,641.0,645.0
3848,1034,637,0,3852.0,3856.0,1031.0,1030.0,636.0,641.0
3843,1032,634,0,3848.0,3852.0,1034.0,1031.0,637.0,636.0
3841,1035,635,0,3843.0,3848.0,1032.0,1034.0,634.0,637.0
3848,1037,638,0,3841.0,3843.0,1035.0,1032.0,635.0,634.0
3851,1039,638,0,3848.0,3841.0,1037.0,1035.0,638.0,635.0
3852,1045,639,0,3851.0,3848.0,1039.0,1037.0,638.0,638.0
3856,1051,643,0,3852.0,3851.0,1045.0,1039.0,639.0,638.0
3856,1054,646,0,3856.0,3852.0,1051.0,1045.0,643.0,639.0
3862,1062,650,0,3856.0,3856.0,1054.0,1051.0,646.0,643.0
3866,1068,652,0,3862.0,3856.0,1062.0,1054.0,650.0,646.0
3869,1074,651,0,3866.0,3862.0,1068.0,1062.0,652.0,650.0
3870,1080,651,0,3869.0,3866.0,1074.0,1068.0,651.0,652.0
3867,1082,652,0,3870.0,3869.0,1080.0,1074.0,651.0,651.0
3867,1081,649,0,3867.0,3870.0,1082.0,1080.0,652.0,651.0
3865,1082,646,0,3867.0,3867.0,1081.0,1082.0,649.0,652.0
3863,1086,647,0,3865.0,3867.0,1082.0,1081.0,646.0,649.0
3857,1087,652,0,3863.0,3865.0,1086.0,1082.0,647.0,646.0
3854,1091,654,0,3857.0,3863.0,1087.0,1086.0,652.0,647.0
3846,1091,660,0,3854.0,3857.0,1091.0,1087.0,654.0,652.0
3841,1090,667,0,3846.0,3854.0,1091.0,1091.0,660.0,654.0
3830,1095,672,0,3841.0,3846.0,1090.0,1091.0,667.0,660.0
3819,1093,672,0,3830.0,3841.0,1095.0,1090.0,672.0,667.0
3810,1094,671,0,3819.0,3830.0,1093.0,1095.0,672.0,672.0
3805,1091,671,0,3810.0,3819.0,1094.0,1093.0,671.0,672.0
3798,1094,665,0,3805.0,3810.0,1091.0,1094.0,671.0,671.0
3797,1093,655,0,3798.0,3805.0,1094.0,1091.0,665.0,671.0
3796,1095,649,0,3797.0,3798.0,1093.0,1094.0,655.0,665.0
3799,1097,642,0,3796.0,3797.0,1095.0,1093.0,649.0,655.0
3802,1103,640,0,3799.0,3796.0,1097.0,1095.0,642.0,649.0
3805,1113,637,0,3802.0,3799.0,1103.0,1097.0,640.0,642.0
3805,1120,636,0,3805.0,3802.0,1113.0,1103.0,637.0,640.0
3812,1134,636,0,3805.0,3805.0,1120.0,1113.0,636.0,637.0
3812,1146,641,0,3812.0,3805.0,1134.0,1120.0,636.0,636.0
3814,1155,646,0,3812.0,3812.0,1146.0,1134.0,641.0,636.0
3817,1162,658,0,3814.0,3812.0,1155.0,1146.0,646.0,641.0
3816,1169,661,0,3817.0,3814.0,1162.0,1155.0,658.0,646.0
3814,1172,660,0,3816.0,3817.0,1169.0,1162.0,661.0,658.0
3810,1172,660,0,3814.0,3816.0,1172.0,1169.0,660.0,661.0
3808,1169,656,0,3810.0,3814.0,1172.0,1172.0,660.0,660.0
3805,1164,650,0,3808.0,3810.0,1169.0,1172.0,656.0,660.0
3807,1159,642,0,3805.0,3808.0,1164.0,1169.0,650.0,656.0
3802,1158,637,0,3807.0,3805.0,1159.0,1164.0,642.0,650.0
3802,1145,630,0,3802.0,3807.0,1158.0,1159.0,637.0,642.0
3804,1136,631,0,3802.0,3802.0,1145.0,1158.0,630.0,637.0
3812,1130,631,0,3804.0,3802.0,1136.0,1145.0,631.0,630.0
3814,1127,635,0,3812.0,3804.0,1130.0,1136.0,631.0,631.0
3815,1127,639,0,3814.0,3812.0,1127.0,1130.0,635.0,631.0
3819,1132,645,0,3815.0,3814.0,1127.0,1127.0,639.0,635.0
3821,1136,647,0,3819.0,3815.0,1132.0,1127.0,645.0,639.0
3822,1138,650,0,3821.0,3819.0,1136.0,1132.0,647.0,645.0
3823,1135,656,0,3822.0,3821.0,1138.0,1136.0,650.0,647.0
3822,1134,658,0,3823.0,3822.0,1135.0,1138.0,656.0,650.0
3822,1131,659,0,3822.0,3823.0,1134.0,1135.0,658.0,656.0
3826,1126,659,0,3822.0,3822.0,1131.0,1134.0,659.0,658.0
3830,1119,658,0,3826.0,3822.0,1126.0,1131.0,659.0,659.0
3827,1111,657,0,3830.0,3826.0,1119.0,1126.0,658.0,659.0
3826,1100,657,0,3827.0,3830.0,1111.0,1119.0,657.0,658.0
3826,1086,656,0,3826.0,3827.0,1100.0,1111.0,657.0,657.0
3827,1076,655,0,3826.0,3826.0,1086.0,1100.0,656.0,657.0
3832,1071,655,0,3827.0,3826.0,1076.0,1086.0,655.0,656.0
3833,1062,653,0,3832.0,3827.0,1071.0,1076.0,655.0,655.0
3833,1051,652,0,3833.0,3832.0,1062.0,1071.0,653.0,655.0
3840,1043,647,0,3833.0,3833.0,1051.0,1062.0,652.0,653.0
3846,1037,648,0,3840.0,3833.0,1043.0,1051.0,647.0,652.0
3847,1037,647,0,3846.0,3840.0,1037.0,1043.0,648.0,647.0
3852,1034,645,0,3847.0,3846.0,1037.0,1037.0,647.0,648.0
3857,1032,642,0,3852.0,3847.0,1034.0,1037.0,645.0,647.0
3861,1034,639,0,3857.0,3852.0,1032.0,1034.0,642.0,645.0
3870,1036,643,0,3861.0,3857.0,1034.0,1032.0,639.0,642.0
3872,1037,645,0,3870.0,3861.0,1036.0,1034.0,643.0,639.0
3875,1042,646,0,3872.0,3870.0,1037.0,1036.0,645.0,643.0
3882,1044,651,0,3875.0,3872.0,1042.0,1037.0,646.0,645.0
3883,1045,654,0,3882.0,3875.0,1044.0,1042.0,651.0,646.0
3887,1046,657,0,3883.0,3882.0,1045.0,1044.0,654.0,651.0
3883,1046,661,0,3887.0,3883.0,1046.0,1045.0,657.0,654.0
3879,1043,659,0,3883.0,3887.0,1046.0,1046.0,661.0,657.0
3877,1038,653,0,3879.0,3883.0,1043.0,1046.0,659.0,661.0
3869,1034,650,0,3877.0,3879.0,1038.0,1043.0,653.0,659.0
3860,1031,646,0,3869.0,3877.0,1034.0,1038.0,650.0,653.0
3857,1028,640,0,3860.0,3869.0,1031.0,1034.0,646.0,650.0
3850,1026,636,0,3857.0,3860.0,1028.0,1031.0,640.0,646.0
3850,1024,630,0,3850.0,3857.0,1026.0,1028.0,636.0,640.0
3852,1023,631,0,3850.0,3850.0,1024.0,1026.0,630.0,636.0
3850,1025,634,0,3852.0,3850.0,1023.0,1024.0,631.0,630.0
3853,1031,638,0,3850.0,3852.0,1025.0,1023.0,634.0,631.0
3855,1040,649,0,3853.0,3850.0,1031.0,1025.0,638.0,634.0
3851,1047,653,0,3855.0,3853.0,1040.0,1031.0,649.0,638.0
3851,1059,659,0,3851.0,3855.0,1047.0,1040.0,653.0,649.0
3846,1065,662,0,3851.0,3851.0,1059.0,1047.0,659.0,653.0
3840,1070,666,0,3846.0,3851.0,1065.0,1059.0,662.0,659.0
3833,1075,670,0,3840.0,3846.0,1070.0,1065.0,666.0,662.0
3829,1077,670,0,3833.0,3840.0,1075.0,1070.0,670.0,666.0
3826,1077,666,0,3829.0,3833.0,1077.0,1075.0,670.0,670.0
3824,1074,658,0,3826.0,3829.0,1077.0,1077.0,666.0,670.0
3823,1076,653,0,3824.0,3826.0,1074.0,1077.0,658.0,666.0
3823,1069,648,0,3823.0,3824.0,1076.0,1074.0,653.0,658.0
3824,1064,648,0,3823.0,3823.0,1069.0,1076.0,648.0,653.0
3826,1063,650,0,3824.0,3823.0,1064.0,1069.0,648.0,648.0
3828,1064,658,0,3826.0,3824.0,1063.0,1064.0,650.0,648.0
3834,1064,661,0,3828.0,3826.0,1064.0,1063.0,658.0,650.0
3837,1069,662,0,3834.0,3828.0,1064.0,1064.0,661.0,658.0
3840,1069,661,0,3837.0,3834.0,1069.0,1064.0,662.0,661.0
3841,1071,660,0,3840.0,3837.0,1069.0,1069.0,661.0,662.0
3834,1073,661,0,3841.0,3840.0,1071.0,1069.0,660.0,661.0
3833,1075,660,0,3834.0,3841.0,1073.0,1071.0,661.0,660.0
3829,1075,660,0,3833.0,3834.0,1075.0,1073.0,660.0,661.0
3824,1078,660,0,3829.0,3833.0,1075.0,1075.0,660.0,660.0
3818,1080,658,0,3824.0,3829.0,1078.0,1075.0,660.0,660.0
3815,1080,659,0,3818.0,3824.0,1080.0,1078.0,658.0,660.0
3813,1078,660,0,3815.0,3818.0,1080.0,1080.0,659.0,658.0
3814,1079,658,0,3813.0,3815.0,1078.0,1080.0,660.0,659.0
3818,1079,655,0,3814.0,3813.0,1079.0,1078.0,658.0,660.0
3826,1076,652,0,3818.0,3814.0,1079.0,1079.0,655.0,658.0
3831,1076,647,0,3826.0,3818.0,1076.0,1079.0,652.0,655.0
3834,1072,646,0,3831.0,3826.0,1076.0,1076.0,647.0,652.0
3840,1076,648,0,3834.0,3831.0,1072.0,1076.0,646.0,647.0
3844,1077,650,0,3840.0,3834.0,1076.0,1072.0,648.0,646.0
3847,1079,653,0,3844.0,3840.0,1077.0,1076.0,650.0,648.0
3847,1082,655,0,3847.0,3844.0,1079.0,1077.0,653.0,650.0
3849,1088,657,0,3847.0,3847.0,1082.0,1079.0,655.0,653.0
3849,1094,659,0,3849.0,3847.0,1088.0,1082.0,657.0,655.0
3844,1098,660,0,3849.0,3849.0,1094.0,1088.0,659.0,657.0
3844,1100,660,0,3844.0,3849.0,1098.0,1094.0,660.0,659.0
3842,1108,659,0,3844.0,3844.0,1100.0,1098.0,660.0,660.0
3842,1106,663,0,3842.0,3844.0,1108.0,1100.0,659.0,660.0
3839,1101,662,0,3842.0,3842.0,1106.0,1108.0,663.0,659.0
3840,1101,658,0,3839.0,3842.0,1101.0,1106.0,662.0,663.0
3832,1095,656,0,3840.0,3839.0,1101.0,1101.0,658.0,662.0
3832,1093,652,0,3832.0,3840.0,1095.0,1101.0,656.0,658.0
3831,1092,652,0,3832.0,3832.0,1093.0,1095.0,652.0,656.0
3834,1083,651,0,3831.0,3832.0,1092.0,1093.0,652.0,652.0
3830,1085,652,0,3834.0,3831.0,1083.0,1092.0,651.0,652.0
3835,1089,657,0,3830.0,3834.0,1085.0,1083.0,652.0,651.0
3834,1090,656,0,3835.0,3830.0,1089.0,1085.0,657.0,652.0
3833,1091,656,0,3834.0,3835.0,1090.0,1089.0,656.0,657.0
3837,1089,662,0,3833.0,3834.0,1091.0,1090.0,656.0,656.0
3839,1091,661,0,3837.0,3833.0,1089.0,1091.0,662.0,656.0
3842,1092,660,0,3839.0,3837.0,1091.0,1089.0,661.0,662.0
3844,1091,655,0,3842.0,3839.0,1092.0,1091.0,660.0,661.0
3847,1092,655,0,3844.0,3842.0,1091.0,1092.0,655.0,660.0
3846,1096,655,0,3847.0,3844.0,1092.0,1091.0,655.0,655.0
3844,1098,656,0,3846.0,3847.0,1096.0,1092.0,655.0,655.0
3839,1098,655,0,3844.0,3846.0,1098.0,1096.0,656.0,655.0
3834,1097,658,0,3839.0,3844.0,1098.0,1098.0,655.0,656.0
3832,1097,661,0,3834.0,3839.0,1097.0,1098.0,658.0,655.0
3823,1099,659,0,3832.0,3834.0,1097.0,1097.0,661.0,658.0
3819,1099,656,0,3823.0,3832.0,1099.0,1097.0,659.0,661.0
3816,1095,654,0,3819.0,3823.0,1099.0,1099.0,656.0,659.0
3817,1092,649,0,3816.0,3819.0,1095.0,1099.0,654.0,656.0
3821,1083,649,0,3817.0,3816.0,1092.0,1095.0,649.0,654.0
3819,1078,644,0,3821.0,3817.0,1083.0,1092.0,649.0,649.0
3821,1076,644,0,3819.0,3821.0,1078.0,1083.0,644.0,649.0
3823,1073,649,0,3821.0,3819.0,1076.0,1078.0,644.0,644.0
3828,1068,652,0,3823.0,3821.0,1073.0,1076.0,649.0,644.0
3839,1066,651,0,3828.0,3823.0,1068.0,1073.0,652.0,649.0
3847,1064,652,0,3839.0,3828.0,1066.0,1068.0,651.0,652.0
3849,1061,650,0,3847.0,3839.0,1064.0,1066.0,652.0,651.0
3853,1061,649,0,3849.0,3847.0,1061.0,1064.0,650.0,652.0
3856,1058,648,0,3853.0,3849.0,1061.0,1061.0,649.0,650.0
3857,1059,652,0,3856.0,3853.0,1058.0,1061.0,648.0,649.0
3857,1063,654,0,3857.0,3856.0,1059.0,1058.0,652.0,648.0
3852,1065,653,0,3857.0,3857.0,1063.0,1059.0,654.0,652.0
3850,1069,655,0,3852.0,3857.0,1065.0,1063.0,653.0,654.0
3846,1073,652,0,3850.0,3852.0,1069.0,1065.0,655.0,653.0
3839,1075,648,0,3846.0,3850.0,1073.0,1069.0,652.0,655.0
3831,1074,646,0,3839.0,3846.0,1075.0,1073.0,648.0,652.0
3828,1076,646,0,3831.0,3839.0,1074.0,1075.0,646.0,648.0
3827,1076,644,0,3828.0,3831.0,1076.0,1074.0,646.0,646.0
3825,1079,645,0,3827.0,3828.0,1076.0,1076.0,644.0,646.0
3826,1080,645,0,3825.0,3827.0,1079.0,1076.0,645.0,644.0
3831,1086,647,0,3826.0,3825.0,1080.0,1079.0,645.0,645.0
3830,1089,651,0,3831.0,3826.0,1086.0,1080.0,647.0,645.0
3835,1090,652,0,3830.0,3831.0,1089.0,1086.0,651.0,647.0
3841,1091,655,0,3835.0,3830.0,1090.0,1089.0,652.0,651.0
3845,1091,650,0,3841.0,3835.0,1091.0,1090.0,655.0,652.0
3850,1091,651,0,3845.0,3841.0,1091.0,1091.0,650.0,655.0
3850,1089,648,0,3850.0,3845.0,1091.0,1091.0,651.0,650.0
3850,1088,646,0,3850.0,3850.0,1089.0,1091.0,648.0,651.0
3846,1088,648,0,3850.0,3850.0,1088.0,1089.0,646.0,648.0
3847,1081,647,0,3846.0,3850.0,1088.0,1088.0,648.0,646.0
3844,1079,650,0,3847.0,3846.0,1081.0,1088.0,647.0,648.0
3840,1072,656,0,3844.0,3847.0,1079.0,1081.0,650.0,647.0
3839,1063,654,0,3840.0,3844.0,1072.0,1079.0,656.0,650.0
3833,1053,658,0,3839.0,3840.0,1063.0,1072.0,654.0,656.0
3831,1047,663,0,3833.0,3839.0,1053.0,1063.0,658.0,654.0
3834,1042,663,0,3831.0,3833.0,1047.0,1053.0,663.0,658.0
3836,1041,662,0,3834.0,3831.0,1042.0,1047.0,663.0,663.0
3835,1041,656,0,3836.0,3834.0,1041.0,1042.0,662.0,663.0
3836,1046,653,0,3835.0,3836.0,1041.0,1041.0,656.0,662.0
3838,1051,649,0,3836.0,3835.0,1046.0,1041.0,653.0,656.0
3842,1055,640,0,3838.0,3836.0,1051.0,1046.0,649.0,653.0
3844,1060,638,0,3842.0,3838.0,1055.0,1051.0,640.0,649.0
3852,1065,638,0,3844.0,3842.0,1060.0,1055.0,638.0,640.0
3852,1065,635,0,3852.0,3844.0,1065.0,1060.0,638.0,638.0
3854,1067,633,0,3852.0,3852.0,1065.0,1065.0,635.0,638.0
3855,1066,633,0,3854.0,3852.0,1067.0,1065.0,633.0,635.0
3859,1069,637,0,3855.0,3854.0,1066.0,1067.0,633.0,633.0
3863,1066,640,0,3859.0,3855.0,1069.0,1066.0,637.0,633.0
3861,1059,643,0,3863.0,3859.0,1066.0,1069.0,640.0,637.0
3859,1054,649,0,3861.0,3863.0,1059.0,1066.0,643.0,640.0
3858,1045,646,0,3859.0,3861.0,1054.0,1059.0,649.0,643.0
3857,1036,645,0,3858.0,3859.0,1045.0,1054.0,646.0,649.0
3853,1028,641,0,3857.0,3858.0,1036.0,1045.0,645.0,646.0
3852,1019,639,0,3853.0,3857.0,1028.0,1036.0,641.0,645.0
3851,1014,633,0,3852.0,3853.0,1019.0,1028.0,639.0,641.0
3847,1015,637,0,3851.0,3852.0,1014.0,1019.0,633.0,639.0
3842,1020,637,0,3847.0,3851.0,1015.0,1014.0,637.0,633.0
3839,1022,636,0,3842.0,3847.0,1020.0,1015.0,637.0,637.0
3836,1028,637,0,3839.0,3842.0,1022.0,1020.0,636.0,637.0
3834,1037,643,0,3836.0,3839.0,1028.0,1022.0,637.0,636.0
3836,1051,642,0,3834.0,3836.0,1037.0,1028.0,643.0,637.0
3838,1065,647,0,3836.0,3834.0,1051.0,1037.0,642.0,643.0
3841,1081,646,0,3838.0,3836.0,1065.0,1051.0,647.0,642.0
3836,1092,644,0,3841.0,3838.0,1081.0,1065.0,646.0,647.0
3835,1101,651,0,3836.0,3841.0,1092.0,1081.0,644.0,646.0
3832,1114,656,0,3835.0,3836.0,1101.0,1092.0,651.0,644.0
3835,1124,660,0,3832.0,3835.0,1114.0,1101.0,656.0,651.0
3835,1128,657,0,3835.0,3832.0,1124.0,1114.0,660.0,656.0
3835,1126,659,0,3835.0,3835.0,1128.0,1124.0,657.0,660.0
3834,1123,653,0,3835.0,3835.0,1126.0,1128.0,659.0,657.0
3831,1115,649,0,3834.0,3835.0,1123.0,1126.0,653.0,659.0
3828,1108,645,0,3831.0,3834.0,1115.0,1123.0,649.0,653.0
3830,1100,641,0,3828.0,3831.0,1108.0,1115.0,645.0,649.0
3828,1094,638,0,3830.0,3828.0,1100.0,1108.0,641.0,645.0
3829,1084,638,0,3828.0,3830.0,1094.0,1100.0,638.0,641.0
3835,1076,635,0,3829.0,3828.0,1084.0,1094.0,638.0,638.0
3843,1065,632,0,3835.0,3829.0,1076.0,1084.0,635.0,638.0
3855,1056,629,0,3843.0,3835.0,1065.0,1076.0,632.0,635.0
3861,1043,633,0,3855.0,3843.0,1056.0,1065.0,629.0,632.0
3871,1035,638,0,3861.0,3855.0,1043.0,1056.0,633.0,629.0
3878,1030,645,0,3871.0,3861.0,1035.0,1043.0,638.0,633.0
3881,1026,646,0,3878.0,3871.0,1030.0,1035.0,645.0,638.0
3881,1024,647,0,3881.0,3878.0,1026.0,1030.0,646.0,645.0
3880,1022,645,0,3881.0,3881.0,1024.0,1026.0,647.0,646.0
3878,1022,642,0,3880.0,3881.0,1022.0,1024.0,645.0,647.0
3874,1022,643,0,3878.0,3880.0,1022.0,1022.0,642.0,645.0
3867,1027,641,0,3874.0,3878.0,1022.0,1022.0,643.0,642.0
3862,1038,639,0,3867.0,3874.0,1027.0,1022.0,641.0,643.0
3856,1046,634,0,3862.0,3867.0,1038.0,1027.0,639.0,641.0
3853,1050,636,0,3856.0,3862.0,1046.0,1038.0,634.0,639.0
3848,1056,635,0,3853.0,3856.0,1050.0,1046.0,636.0,634.0
3843,1065,637,0,3848.0,3853.0,1056.0,1050.0,635.0,636.0
3835,1071,639,0,3843.0,3848.0,1065.0,1056.0,637.0,635.0
3832,1078,639,0,3835.0,3843.0,1071.0,1065.0,639.0,637.0
3829,1082,638,0,3832.0,3835.0,1078.0,1071.0,639.0,639.0
3830,1084,635,0,3829.0,3832.0,1082.0,1078.0,638.0,639.0
3830,1084,632,0,3830.0,3829.0,1084.0,1082.0,635.0,638.0
3832,1087,631,0,3830.0,3830.0,1084.0,1084.0,632.0,635.0
3833,1086,631,0,3832.0,3830.0,1087.0,1084.0,631.0,632.0
3840,1087,633,0,3833.0,3832.0,1086.0,1087.0,631.0,631.0
3840,1091,636,0,3840.0,3833.0,1087.0,1086.0,633.0,631.0
3844,1100,640,0,3840.0,3840.0,1091.0,1087.0,636.0,633.0
3846,1104,644,0,3844.0,3840.0,1100.0,1091.0,640.0,636.0
3846,1108,642,0,3846.0,3844.0,1104.0,1100.0,644.0,640.0
3841,1113,643,0,3846.0,3846.0,1108.0,1104.0,642.0,644.0
3843,1112,639,0,3841.0,3846.0,1113.0,1108.0,643.0,642.0
3836,1112,637,0,3843.0,3841.0,1112.0,1113.0,639.0,643.0
3831,1114,634,0,3836.0,3843.0,1112.0,1112.0,637.0,639.0
3825,1116,635,0,3831.0,3836.0,1114.0,1112.0,634.0,637.0
3820,1121,629,0,3825.0,3831.0,1116.0,1114.0,635.0,634.0
3815,1122,623,0,3820.0,3825.0,1121.0,1116.0,629.0,635.0
3801,1123,618,0,3815.0,3820.0,1122.0,1121.0,623.0,629.0
3793,1122,616,0,3801.0,3815.0,1123.0,1122.0,618.0,623.0
3788,1124,619,0,3793.0,3801.0,1122.0,1123.0,616.0,618.0
3790,1125,622,0,3788.0,3793.0,1124.0,1122.0,619.0,616.0
3795,1128,619,0,3790.0,3788.0,1125.0,1124.0,622.0,619.0
3806,1131,618,0,3795.0,3790.0,1128.0,1125.0,619.0,622.0
3820,1126,620,0,3806.0,3795.0,1131.0,1128.0,618.0,619.0
3832,1123,625,0,3820.0,3806.0,1126.0,1131.0,620.0,618.0
3844,1117,630,0,3832.0,3820.0,1123.0,1126.0,625.0,620.0
3853,1111,626,0,3844.0,3832.0,1117.0,1123.0,630.0,625.0
3864,1101,626,0,3853.0,3844.0,1111.0,1117.0,626.0,630.0
3875,1090,621,0,3864.0,3853.0,1101.0,1111.0,626.0,626.0
3883,1075,620,0,3875.0,3864.0,1090.0,1101.0,621.0,626.0
3888,1066,621,0,3883.0,3875.0,1075.0,1090.0,620.0,621.0
3888,1063,621,0,3888.0,3883.0,1066.0,1075.0,621.0,620.0
3882,1063,625,0,3888.0,3888.0,1063.0,1066.0,621.0,621.0
3878,1067,626,0,3882.0,3888.0,1063.0,1063.0,625.0,621.0
3865,1076,627,0,3878.0,3882.0,1067.0,1063.0,626.0,625.0
3851,1083,625,0,3865.0,3878.0,1076.0,1067.0,627.0,626.0
3843,1095,623,0,3851.0,3865.0,1083.0,1076.0,625.0,627.0
3831,1098,620,0,3843.0,3851.0,1095.0,1083.0,623.0,625.0
3824,1104,618,0,3831.0,3843.0,1098.0,1095.0,620.0,623.0
3819,1108,616,0,3824.0,3831.0,1104.0,1098.0,618.0,620.0
3817,1111,614,0,3819.0,3824.0,1108.0,1104.0,616.0,618.0
3815,1112,615,0,3817.0,3819.0,1111.0,1108.0,614.0,616.0
3820,1110,618,0,3815.0,3817.0,1112.0,1111.0,615.0,614.0
3824,1109,618,0,3820.0,3815.0,1110.0,1112.0,618.0,615.0
3831,1108,621,0,3824.0,3820.0,1109.0,1110.0,618.0,618.0
3837,1111,623,0,3831.0,3824.0,1108.0,1109.0,621.0,618.0
3842,1112,622,0,3837.0,3831.0,1111.0,1108.0,623.0,621.0
3849,1108,622,0,3842.0,3837.0,1112.0,1111.0,622.0,623.0
3857,1109,624,0,3849.0,3842.0,1108.0,1112.0,622.0,622.0
3861,1108,623,0,3857.0,3849.0,1109.0,1108.0,624.0,622.0
3865,1110,624,0,3861.0,3857.0,1108.0,1109.0,623.0,624.0
3862,1107,621,0,3865.0,3861.0,1110.0,1108.0,624.0,623.0
3855,1101,619,0,3862.0,3865.0,1107.0,1110.0,621.0,624.0
3852,1089,616,0,3855.0,3862.0,1101.0,1107.0,619.0,621.0
3848,1082,610,0,3852.0,3855.0,1089.0,1101.0,616.0,619.0
3843,1071,610,0,3848.0,3852.0,1082.0,1089.0,610.0,616.0
3842,1067,609,0,3843.0,3848.0,1071.0,1082.0,610.0,610.0
3836,1072,611,0,3842.0,3843.0,1067.0,1071.0,609.0,610.0
3830,1080,609,0,3836.0,3842.0,1072.0,1067.0,611.0,609.0
3828,1088,612,0,3830.0,3836.0,1080.0,1072.0,609.0,611.0
3827,1096,619,0,3828.0,3830.0,1088.0,1080.0,612.0,609.0
3825,1106,619,0,3827.0,3828.0,1096.0,1088.0,619.0,612.0
3828,1115,624,0,3825.0,3827.0,1106.0,1096.0,619.0,619.0
3828,1125,626,0,3828.0,3825.0,1115.0,1106.0,624.0,619.0
3836,1131,627,0,3828.0,3828.0,1125.0,1115.0,626.0,624.0
3843,1135,633,0,3836.0,3828.0,1131.0,1125.0,627.0,626.0
3847,1132,635,0,3843.0,3836.0,1135.0,1131.0,633.0,627.0
3850,1129,637,0,3847.0,3843.0,1132.0,1135.0,635.0,633.0
3852,1126,635,0,3850.0,3847.0,1129.0,1132.0,637.0,635.0
3850,1118,636,0,3852.0,3850.0,1126.0,1129.0,635.0,637.0
3849,1116,638,0,3850.0,3852.0,1118.0,1126.0,636.0,635.0
3847,1109,636,0,3849.0,3850.0,1116.0,1118.0,638.0,636.0
3848,1099,633,0,3847.0,3849.0,1109.0,1116.0,636.0,638.0
3838,1092,625,0,3848.0,3847.0,1099.0,1109.0,633.0,636.0
3832,1081,622,0,3838.0,3848.0,1092.0,1099.0,625.0,633.0
3829,1073,612,0,3832.0,3838.0,1081.0,1092.0,622.0,625.0
3832,1067,608,0,3829.0,3832.0,1073.0,1081.0,612.0,622.0
3830,1065,609,0,3832.0,3829.0,1067.0,1073.0,608.0,612.0
3830,1065,612,0,3830.0,3832.0,1065.0,1067.0,609.0,608.0
3828,1071,616,0,3830.0,3830.0,1065.0,1065.0,612.0,609.0
3835,1079,620,0,3828.0,3830.0,1071.0,1065.0,616.0,612.0
3835,1089,629,0,3835.0,3828.0,1079.0,1071.0,620.0,616.0
3832,1098,635,0,3835.0,3835.0,1089.0,1079.0,629.0,620.0
3834,1105,640,0,3832.0,3835.0,1098.0,1089.0,635.0,629.0
3832,1112,642,0,3834.0,3832.0,1105.0,1098.0,640.0,635.0
3837,1110,637,0,3832.0,3834.0,1112.0,1105.0,642.0,640.0
3842,1110,633,0,3837.0,3832.0,1110.0,1112.0,637.0,642.0
3845,1111,634,0,3842.0,3837.0,1110.0,1110.0,633.0,637.0
3845,1111,624,0,3845.0,3842.0,1111.0,1110.0,634.0,633.0
3842,1109,622,0,3845.0,3845.0,1111.0,1111.0,624.0,634.0
3845,1107,626,0,3842.0,3845.0,1109.0,1111.0,622.0,624.0
3843,1103,625,0,3845.0,3842.0,1107.0,1109.0,626.0,622.0
3847,1103,623,0,3843.0,3845.0,1103.0,1107.0,625.0,626.0
3849,1107,619,0,3847.0,3843.0,1103.0,1103.0,623.0,625.0
3848,1109,616,0,3849.0,3847.0,1107.0,1103.0,619.0,623.0
3851,1113,611,0,3848.0,3849.0,1109.0,1107.0,616.0,619.0
3855,1118,608,0,3851.0,3848.0,1113.0,1109.0,611.0,616.0
3855,1119,609,0,3855.0,3851.0,1118.0,1113.0,608.0,611.0
3854,1124,613,0,3855.0,3855.0,1119.0,1118.0,609.0,608.0
3851,1124,622,0,3854.0,3855.0,1124.0,1119.0,613.0,609.0
3848,1122,633,0,3851.0,3854.0,1124.0,1124.0,622.0,613.0
3840,1116,642,0,3848.0,3851.0,1122.0,1124.0,633.0,622.0
3831,1112,650,0,3840.0,3848.0,1116.0,1122.0,642.0,633.0
3824,1102,652,0,3831.0,3840.0,1112.0,1116.0,650.0,642.0
3821,1093,647,0,3824.0,3831.0,1102.0,1112.0,652.0,650.0
3816,1082,637,0,3821.0,3824.0,1093.0,1102.0,647.0,652.0
3813,1069,630,0,3816.0,3821.0,1082.0,1093.0,637.0,647.0
3812,1061,626,0,3813.0,3816.0,1069.0,1082.0,630.0,637.0
3813,1059,621,0,3812.0,3813.0,1061.0,1069.0,626.0,630.0
3817,1060,619,0,3813.0,3812.0,1059.0,1061.0,621.0,626.0
3824,1057,616,0,3817.0,3813.0,1060.0,1059.0,619.0,621.0
3829,1065,618,0,3824.0,3817.0,1057.0,1060.0,616.0,619.0
3833,1073,623,0,3829.0,3824.0,1065.0,1057.0,618.0,616.0
3842,1085,627,0,3833.0,3829.0,1073.0,1065.0,623.0,618.0
3846,1096,629,0,3842.0,3833.0,1085.0,1073.0,627.0,623.0
3849,1108,631,0,3846.0,3842.0,1096.0,1085.0,629.0,627.0
3848,1119,637,0,3849.0,3846.0,1108.0,1096.0,631.0,629.0
3845,1132,635,0,3848.0,3849.0,1119.0,1108.0,637.0,631.0
3841,1137,639,0,3845.0,3848.0,1132.0,1119.0,635.0,637.0
3835,1141,640,0,3841.0,3845.0,1137.0,1132.0,639.0,635.0
3825,1137,635,0,3835.0,3841.0,1141.0,1137.0,640.0,639.0
3820,1134,632,0,3825.0,3835.0,1137.0,1141.0,635.0,640.0
3811,1129,630,0,3820.0,3825.0,1134.0,1137.0,632.0,635.0
3807,1125,632,0,3811.0,3820.0,1129.0,1134.0,630.0,632.0
3802,1121,631,0,3807.0,3811.0,1125.0,1129.0,632.0,630.0
3795,1116,631,0,3802.0,3807.0,1121.0,1125.0,631.0,632.0
3793,1114,626,0,3795.0,3802.0,1116.0,1121.0,631.0,631.0
3791,1114,632,0,3793.0,3795.0,1114.0,1116.0,626.0,631.0
3798,1122,634,0,3791.0,3793.0,1114.0,1114.0,632.0,626.0
3806,1123,633,0,3798.0,3791.0,1122.0,1114.0,634.0,632.0
3815,1127,637,0,3806.0,3798.0,1123.0,1122.0,633.0,634.0
3819,1132,643,0,3815.0,3806.0,1127.0,1123.0,637.0,633.0
3822,1132,651,0,3819.0,3815.0,1132.0,1127.0,643.0,637.0
3829,1133,657,0,3822.0,3819.0,1132.0,1132.0,651.0,643.0
3837,1133,652,0,3829.0,3822.0,1133.0,1132.0,657.0,651.0
3843,1132,640,0,3837.0,3829.0,1133.0,1133.0,652.0,657.0
3848,1135,631,0,3843.0,3837.0,1132.0,1133.0,640.0,652.0
3854,1136,625,0,3848.0,3843.0,1135.0,1132.0,631.0,640.0
3853,1138,626,0,3854.0,3848.0,1136.0,1135.0,625.0,631.0
3852,1142,627,0,3853.0,3854.0,1138.0,1136.0,626.0,625.0
3851,1140,623,0,3852.0,3853.0,1142.0,1138.0,627.0,626.0
3849,1139,622,0,3851.0,3852.0,1140.0,1142.0,623.0,627.0
3844,1137,617,0,3849.0,3851.0,1139.0,1140.0,622.0,623.0
3839,1131,613,0,3844.0,3849.0,1137.0,1139.0,617.0,622.0
3830,1119,603,0,3839.0,3844.0,1131.0,1137.0,613.0,617.0
3819,1107,599,0,3830.0,3839.0,1119.0,1131.0,603.0,613.0
3813,1097,607,0,3819.0,3830.0,1107.0,1119.0,599.0,603.0
3803,1089,612,0,3813.0,3819.0,1097.0,1107.0,607.0,599.0
3799,1078,617,0,3803.0,3813.0,1089.0,1097.0,612.0,607.0
3801,1073,613,0,3799.0,3803.0,1078.0,1089.0,617.0,612.0
3807,1075,609,0,3801.0,3799.0,1073.0,1078.0,613.0,617.0
3813,1080,610,0,3807.0,3801.0,1075.0,1073.0,609.0,613.0
3826,1083,607,0,3813.0,3807.0,1080.0,1075.0,610.0,609.0
3834,1086,603,0,3826.0,3813.0,1083.0,1080.0,607.0,610.0
3844,1091,601,0,3834.0,3826.0,1086.0,1083.0,603.0,607.0
3858,1093,599,0,3844.0,3834.0,1091.0,1086.0,601.0,603.0
3871,1090,594,0,3858.0,3844.0,1093.0,1091.0,599.0,601.0
3881,1081,590,0,3871.0,3858.0,1090.0,1093.0,594.0,599.0
3894,1071,590,0,3881.0,3871.0,1081.0,1090.0,590.0,594.0
3899,1063,584,0,3894.0,3881.0,1071.0,1081.0,590.0,590.0
3900,1058,585,0,3899.0,3894.0,1063.0,1071.0,584.0,590.0
3896,1057,585,0,3900.0,3899.0,1058.0,1063.0,585.0,584.0
3889,1059,586,0,3896.0,3900.0,1057.0,1058.0,585.0,585.0
3878,1064,581,0,3889.0,3896.0,1059.0,1057.0,586.0,585.0
3867,1070,581,0,3878.0,3889.0,1064.0,1059.0,581.0,586.0
3852,1076,582,0,3867.0,3878.0,1070.0,1064.0,581.0,581.0
3841,1083,584,0,3852.0,3867.0,1076.0,1070.0,582.0,581.0
3833,1085,581,0,3841.0,3852.0,1083.0,1076.0,584.0,582.0
3834,1086,574,0,3833.0,3841.0,1085.0,1083.0,581.0,584.0
3831,1087,570,0,3834.0,3833.0,1086.0,1085.0,574.0,581.0
3830,1088,569,0,3831.0,3834.0,1087.0,1086.0,570.0,574.0
3833,1084,574,0,3830.0,3831.0,1088.0,1087.0,569.0,570.0
3835,1083,576,0,3833.0,3830.0,1084.0,1088.0,574.0,569.0
3836,1085,582,0,3835.0,3833.0,1083.0,1084.0,576.0,574.0
3838,1088,584,0,3836.0,3835.0,1085.0,1083.0,582.0,576.0
3843,1088,585,0,3838.0,3836.0,1088.0,1085.0,584.0,582.0
3850,1085,585,0,3843.0,3838.0,1088.0,1088.0,585.0,584.0
3858,1082,580,0,3850.0,3843.0,1085.0,1088.0,585.0,585.0
3866,1084,579,0,3858.0,3850.0,1082.0,1085.0,580.0,585.0
3873,1086,574,0,3866.0,3858.0,1084.0,1082.0,579.0,580.0
3872,1087,573,0,3873.0,3866.0,1086.0,1084.0,574.0,579.0
3873,1090,574,0,3872.0,3873.0,1087.0,1086.0,573.0,574.0
3866,1090,576,0,3873.0,3872.0,1090.0,1087.0,574.0,573.0
3863,1093,579,0,3866.0,3873.0,1090.0,1090.0,576.0,574.0
3858,1094,576,0,3863.0,3866.0,1093.0,1090.0,579.0,576.0
3855,1094,576,0,3858.0,3863.0,1094.0,1093.0,576.0,579.0
3853,1092,578,0,3855.0,3858.0,1094.0,1094.0,576.0,576.0
3849,1094,578,0,3853.0,3855.0,1092.0,1094.0,578.0,576.0
3850,1095,579,0,3849.0,3853.0,1094.0,1092.0,578.0,578.0
3844,1095,578,0,3850.0,3849.0,1095.0,1094.0,579.0,578.0
3839,1096,570,0,3844.0,3850.0,1095.0,1095.0,578.0,579.0
3832,1095,571,0,3839.0,3844.0,1096.0,1095.0,570.0,578.0
3823,1095,570,0,3832.0,3839.0,1095.0,1096.0,571.0,570.0
3812,1099,565,0,3823.0,3832.0,1095.0,1095.0,570.0,571.0
3805,1102,557,0,3812.0,3823.0,1099.0,1095.0,565.0,570.0
3799,1103,553,0,3805.0,3812.0,1102.0,1099.0,557.0,565.0
3796,1109,559,0,3799.0,3805.0,1103.0,1102.0,553.0,557.0
3799,1107,566,0,3796.0,3799.0,1109.0,1103.0,559.0,553.0
3805,1110,575,0,3799.0,3796.0,1107.0,1109.0,566.0,559.0
3810,1113,579,0,3805.0,3799.0,1110.0,1107.0,575.0,566.0
3812,1113,579,0,3810.0,3805.0,1113.0,1110.0,579.0,575.0
3816,1116,578,0,3812.0,3810.0,1113.0,1113.0,579.0,579.0
3826,1121,572,0,3816.0,3812.0,1116.0,1113.0,578.0,579.0
3836,1126,565,0,3826.0,3816.0,1121.0,1116.0,572.0,578.0
3843,1131,556,0,3836.0,3826.0,1126.0,1121.0,565.0,572.0
3849,1136,552,0,3843.0,3836.0,1131.0,1126.0,556.0,565.0
3854,1143,555,0,3849.0,3843.0,1136.0,1131.0,552.0,556.0
3860,1148,559,0,3854.0,3849.0,1143.0,1136.0,555.0,552.0
3868,1148,566,0,3860.0,3854.0,1148.0,1143.0,559.0,555.0
3871,1147,565,0,3868.0,3860.0,1148.0,1148.0,566.0,559.0
3875,1147,559,0,3871.0,3868.0,1147.0,1148.0,565.0,566.0
3879,1143,554,0,3875.0,3871.0,1147.0,1147.0,559.0,565.0
3880,1142,551,0,3879.0,3875.0,1143.0,1147.0,554.0,559.0
3880,1138,549,0,3880.0,3879.0,1142.0,1143.0,551.0,554.0
3873,1135,547,0,3880.0,3880.0,1138.0,1142.0,549.0,551.0
3868,1132,549,0,3873.0,3880.0,1135.0,1138.0,547.0,549.0
3860,1132,552,0,3868.0,3873.0,1132.0,1135.0,549.0,547.0
3849,1130,556,0,3860.0,3868.0,1132.0,1132.0,552.0,549.0
3844,1127,559,0,3849.0,3860.0,1130.0,1132.0,556.0,552.0
3837,1120,555,0,3844.0,3849.0,1127.0,1130.0,559.0,556.0
3831,1117,547,0,3837.0,3844.0,1120.0,1127.0,555.0,559.0
3824,1110,539,0,3831.0,3837.0,1117.0,1120.0,547.0,555.0
3824,1114,539,0,3824.0,3831.0,1110.0,1117.0,539.0,547.0
3825,1115,543,0,3824.0,3824.0,1114.0,1110.0,539.0,539.0
3826,1118,549,0,3825.0,3824.0,1115.0,1114.0,543.0,539.0
3830,1123,560,0,3826.0,3825.0,1118.0,1115.0,549.0,543.0
3833,1124,569,0,3830.0,3826.0,1123.0,1118.0,560.0,549.0
3839,1126,572,0,3833.0,3830.0,1124.0,1123.0,569.0,560.0
3845,1128,574,0,3839.0,3833.0,1126.0,1124.0,572.0,569.0
3847,1129,575,0,3845.0,3839.0,1128.0,1126.0,574.0,572.0
3850,1133,577,0,3847.0,3845.0,1129.0,1128.0,575.0,574.0
3848,1132,574,0,3850.0,3847.0,1133.0,1129.0,577.0,575.0
3847,1129,569,0,3848.0,3850.0,1132.0,1133.0,574.0,577.0
3847,1126,571,0,3847.0,3848.0,1129.0,1132.0,569.0,574.0
3845,1123,572,0,3847.0,3847.0,1126.0,1129.0,571.0,569.0
3845,1120,575,0,3845.0,3847.0,1123.0,1126.0,572.0,571.0
3841,1115,568,0,3845.0,3845.0,1120.0,1123.0,575.0,572.0
3846,1105,553,0,3841.0,3845.0,1115.0,1120.0,568.0,575.0
3845,1097,540,0,3846.0,3841.0,1105.0,1115.0,553.0,568.0
3840,1092,534,0,3845.0,3846.0,1097.0,1105.0,540.0,553.0
3838,1085,540,0,3840.0,3845.0,1092.0,1097.0,534.0,540.0
3839,1076,541,0,3838.0,3840.0,1085.0,1092.0,540.0,534.0
3845,1071,546,0,3839.0,3838.0,1076.0,1085.0,541.0,540.0
3853,1063,543,0,3845.0,3839.0,1071.0,1076.0,546.0,541.0
3870,1049,534,0,3853.0,3845.0,1063.0,1071.0,543.0,546.0
3884,1038,528,0,3870.0,3853.0,1049.0,1063.0,534.0,543.0
3898,1034,521,0,3884.0,3870.0,1038.0,1049.0,528.0,534.0
3913,1037,517,0,3898.0,3884.0,1034.0,1038.0,521.0,528.0
3929,1036,513,0,3913.0,3898.0,1037.0,1034.0,517.0,521.0
3940,1035,511,0,3929.0,3913.0,1036.0,1037.0,513.0,517.0
3950,1039,515,0,3940.0,3929.0,1035.0,1036.0,511.0,513.0
3954,1046,517,0,3950.0,3940.0,1039.0,1035.0,515.0,511.0
3949,1053,518,0,3954.0,3950.0,1046.0,1039.0,517.0,515.0
3933,1060,524,0,3949.0,3954.0,1053.0,1046.0,518.0,517.0
3917,1072,531,0,3933.0,3949.0,1060.0,1053.0,524.0,518.0
3899,1078,538,0,3917.0,3933.0,1072.0,1060.0,531.0,524.0
3879,1079,533,0,3899.0,3917.0,1078.0,1072.0,538.0,531.0
3863,1079,531,0,3879.0,3899.0,1079.0,1078.0,533.0,538.0
3851,1070,526,0,3863.0,3879.0,1079.0,1079.0,531.0,533.0
3837,1062,519,0,3851.0,3863.0,1070.0,1079.0,526.0,531.0
3830,1052,511,0,3837.0,3851.0,1062.0,1070.0,519.0,526.0
3826,1042,509,0,3830.0,3837.0,1052.0,1062.0,511.0,519.0
3827,1039,515,0,3826.0,3830.0,1042.0,1052.0,509.0,511.0
3830,1040,520,0,3827.0,3826.0,1039.0,1042.0,515.0,509.0
3836,1043,531,0,3830.0,3827.0,1040.0,1039.0,520.0,515.0
3843,1045,541,0,3836.0,3830.0,1043.0,1040.0,531.0,520.0
3848,1052,545,0,3843.0,3836.0,1045.0,1043.0,541.0,531.0
3856,1058,552,0,3848.0,3843.0,1052.0,1045.0,545.0,541.0
3860,1062,552,0,3856.0,3848.0,1058.0,1052.0,552.0,545.0
3866,1065,545,0,3860.0,3856.0,1062.0,1058.0,552.0,552.0
3869,1067,542,0,3866.0,3860.0,1065.0,1062.0,545.0,552.0
3870,1072,539,0,3869.0,3866.0,1067.0,1065.0,542.0,545.0
3870,1076,541,0,3870.0,3869.0,1072.0,1067.0,539.0,542.0
3868,1081,547,0,3870.0,3870.0,1076.0,1072.0,541.0,539.0
3869,1089,556,0,3868.0,3870.0,1081.0,1076.0,547.0,541.0
3860,1093,566,0,3869.0,3868.0,1089.0,1081.0,556.0,547.0
3854,1094,572,0,3860.0,3869.0,1093.0,1089.0,566.0,556.0
3847,1090,575,0,3854.0,3860.0,1094.0,1093.0,572.0,566.0
3846,1082,570,0,3847.0,3854.0,1090.0,1094.0,575.0,572.0
3842,1075,562,0,3846.0,3847.0,1082.0,1090.0,570.0,575.0
3841,1067,553,0,3842.0,3846.0,1075.0,1082.0,562.0,570.0
3843,1065,551,0,3841.0,3842.0,1067.0,1075.0,553.0,562.0
3842,1065,561,0,3843.0,3841.0,1065.0,1067.0,551.0,553.0
3848,1066,577,0,3842.0,3843.0,1065.0,1065.0,561.0,551.0
3852,1067,583,0,3848.0,3842.0,1066.0,1065.0,577.0,561.0
3865,1069,586,0,3852.0,3848.0,1067.0,1066.0,583.0,577.0
3879,1065,586,0,3865.0,3852.0,1069.0,1067.0,586.0,583.0
3893,1067,591,0,3879.0,3865.0,1065.0,1069.0,586.0,586.0
3903,1074,603,0,3893.0,3879.0,1067.0,1065.0,591.0,586.0
3913,1079,619,0,3903.0,3893.0,1074.0,1067.0,603.0,591.0
3930,1083,630,0,3913.0,3903.0,1079.0,1074.0,619.0,603.0
3944,1080,631,0,3930.0,3913.0,1083.0,1079.0,630.0,619.0
3960,1075,619,0,3944.0,3930.0,1080.0,1083.0,631.0,630.0
3967,1072,601,0,3960.0,3944.0,1075.0,1080.0,619.0,631.0
3968,1068,589,0,3967.0,3960.0,1072.0,1075.0,601.0,619.0
3957,1062,583,0,3968.0,3967.0,1068.0,1072.0,589.0,601.0
3938,1068,597,0,3957.0,3968.0,1062.0,1068.0,583.0,589.0
3915,1077,625,0,3938.0,3957.0,1068.0,1062.0,597.0,583.0
3900,1082,648,0,3915.0,3938.0,1077.0,1068.0,625.0,597.0
3884,1079,654,0,3900.0,3915.0,1082.0,1077.0,648.0,625.0
3868,1065,639,0,3884.0,3900.0,1079.0,1082.0,654.0,648.0
3851,1040,605,0,3868.0,3884.0,1065.0,1079.0,639.0,654.0
3831,1014,557,0,3851.0,3868.0,1040.0,1065.0,605.0,639.0
3808,995,508,0,3831.0,3851.0,1014.0,1040.0,557.0,605.0
3783,983,474,0,3808.0,3831.0,995.0,1014.0,508.0,557.0
3756,988,454,0,3783.0,3808.0,983.0,995.0,474.0,508.0
3733,1007,445,0,3756.0,3783.0,988.0,983.0,454.0,474.0
3715,1032,443,0,3733.0,3756.0,1007.0,988.0,445.0,454.0
3702,1055,445,0,3715.0,3733.0,1032.0,1007.0,443.0,445.0
3690,1074,461,0,3702.0,3715.0,1055.0,1032.0,445.0,443.0
3681,1096,487,0,3690.0,3702.0,1074.0,1055.0,461.0,445.0
