accelerometer_x,accelerometer_y,accelerometer_z,fall,x_lag_1,x_lag_2,y_lag_1,y_lag_2,z_lag_1,z_lag_2
4107,422,114,1,,,,,,
4115,425,117,1,4107.0,,422.0,,114.0,
4120,421,124,1,4115.0,4107.0,425.0,422.0,117.0,114.0
4122,411,138,1,4120.0,4115.0,421.0,425.0,124.0,117.0
4114,406,147,1,4122.0,4120.0,411.0,421.0,138.0,124.0
4107,395,154,1,4114.0,4122.0,406.0,411.0,147.0,138.0
4102,388,149,1,4107.0,4114.0,395.0,406.0,154.0,147.0
4092,390,154,1,4102.0,4107.0,388.0,395.0,149.0,154.0
4079,381,152,1,4092.0,4102.0,390.0,388.0,154.0,149.0
4065,382,153,1,4079.0,4092.0,381.0,390.0,152.0,154.0
4054,369,151,1,4065.0,4079.0,382.0,381.0,153.0,152.0
4046,362,146,1,4054.0,4065.0,369.0,382.0,151.0,153.0
4037,355,137,1,4046.0,4054.0,362.0,369.0,146.0,151.0
4031,348,121,1,4037.0,4046.0,355.0,362.0,137.0,146.0
4029,341,107,1,4031.0,4037.0,348.0,355.0,121.0,137.0
4034,332,98,1,4029.0,4031.0,341.0,348.0,107.0,121.0
4036,328,88,1,4034.0,4029.0,332.0,341.0,98.0,107.0
4039,328,79,1,4036.0,4034.0,328.0,332.0,88.0,98.0
4048,328,72,1,4039.0,4036.0,328.0,328.0,79.0,88.0
4061,326,66,1,4048.0,4039.0,328.0,328.0,72.0,79.0
4102,324,76,1,4061.0,4048.0,326.0,328.0,66.0,72.0
4125,328,79,1,4102.0,4061.0,324.0,326.0,76.0,66.0
4136,329,71,1,4125.0,4102.0,328.0,324.0,79.0,76.0
4128,331,59,1,4136.0,4125.0,329.0,328.0,71.0,79.0
4128,341,58,1,4128.0,4136.0,331.0,329.0,59.0,71.0
4148,346,68,1,4128.0,4128.0,341.0,331.0,58.0,59.0
4164,342,65,1,4148.0,4128.0,346.0,341.0,68.0,58.0
4171,363,68,1,4164.0,4148.0,342.0,346.0,65.0,68.0
4164,373,67,1,4171.0,4164.0,363.0,342.0,68.0,65.0
4168,401,79,1,4164.0,4171.0,373.0,363.0,67.0,68.0
4162,408,83,1,4168.0,4164.0,401.0,373.0,79.0,67.0
4147,419,88,1,4162.0,4168.0,408.0,401.0,83.0,79.0
4144,420,99,1,4147.0,4162.0,419.0,408.0,88.0,83.0
4138,402,105,1,4144.0,4147.0,420.0,419.0,99.0,88.0
4109,388,92,1,4138.0,4144.0,402.0,420.0,105.0,99.0
4086,396,88,1,4109.0,4138.0,388.0,402.0,92.0,105.0
4090,398,95,1,4086.0,4109.0,396.0,388.0,88.0,92.0
4076,375,87,1,4090.0,4086.0,398.0,396.0,95.0,88.0
4059,378,80,1,4076.0,4090.0,375.0,398.0,87.0,95.0
4037,381,80,1,4059.0,4076.0,378.0,375.0,80.0,87.0
4037,373,86,1,4037.0,4059.0,381.0,378.0,80.0,80.0
4071,360,103,1,4037.0,4037.0,373.0,381.0,86.0,80.0
4081,359,107,1,4071.0,4037.0,360.0,373.0,103.0,86.0
4083,355,103,1,4081.0,4071.0,359.0,360.0,107.0,103.0
4050,338,75,1,4083.0,4081.0,355.0,359.0,103.0,107.0
3990,333,47,1,4050.0,4083.0,338.0,355.0,75.0,103.0
3965,338,45,1,3990.0,4050.0,333.0,338.0,47.0,75.0
3980,325,53,1,3965.0,3990.0,338.0,333.0,45.0,47.0
4016,338,78,1,3980.0,3965.0,325.0,338.0,53.0,45.0
4067,353,103,1,4016.0,3980.0,338.0,325.0,78.0,53.0
4088,327,88,1,4067.0,4016.0,353.0,338.0,103.0,78.0
4136,326,93,1,4088.0,4067.0,327.0,353.0,88.0,103.0
4180,333,102,1,4136.0,4088.0,326.0,327.0,93.0,88.0
4174,334,78,1,4180.0,4136.0,333.0,326.0,102.0,93.0
4175,332,78,1,4174.0,4180.0,334.0,333.0,78.0,102.0
4140,344,63,1,4175.0,4174.0,332.0,334.0,78.0,78.0
4120,367,60,1,4140.0,4175.0,344.0,332.0,63.0,78.0
4121,367,71,1,4120.0,4140.0,367.0,344.0,60.0,63.0
4116,360,72,1,4121.0,4120.0,367.0,367.0,71.0,60.0
4108,360,67,1,4116.0,4121.0,360.0,367.0,72.0,71.0
4094,360,65,1,4108.0,4116.0,360.0,360.0,67.0,72.0
4133,366,107,1,4094.0,4108.0,360.0,360.0,65.0,67.0
4177,338,118,1,4133.0,4094.0,366.0,360.0,107.0,65.0
4175,348,103,1,4177.0,4133.0,338.0,366.0,118.0,107.0
4141,351,85,1,4175.0,4177.0,348.0,338.0,103.0,118.0
4115,319,62,1,4141.0,4175.0,351.0,348.0,85.0,103.0
4060,346,69,1,4115.0,4141.0,319.0,351.0,62.0,85.0
4083,322,73,1,4060.0,4115.0,346.0,319.0,69.0,62.0
4104,305,74,1,4083.0,4060.0,322.0,346.0,73.0,69.0
4114,334,89,1,4104.0,4083.0,305.0,322.0,74.0,73.0
4111,293,61,1,4114.0,4104.0,334.0,305.0,89.0,74.0
4105,301,82,1,4111.0,4114.0,293.0,334.0,61.0,89.0
4101,301,82,1,4105.0,4111.0,301.0,293.0,82.0,61.0
4057,313,70,1,4101.0,4105.0,301.0,301.0,82.0,82.0
4031,284,68,1,4057.0,4101.0,313.0,301.0,70.0,82.0
4073,335,123,1,4031.0,4057.0,284.0,313.0,68.0,70.0
4115,302,128,1,4073.0,4031.0,335.0,284.0,123.0,68.0
4159,326,157,1,4115.0,4073.0,302.0,335.0,128.0,123.0
4140,346,124,1,4159.0,4115.0,326.0,302.0,157.0,128.0
4138,349,115,1,4140.0,4159.0,346.0,326.0,124.0,157.0
4124,335,116,1,4138.0,4140.0,349.0,346.0,115.0,124.0
4099,350,107,1,4124.0,4138.0,335.0,349.0,116.0,115.0
4074,380,119,1,4099.0,4124.0,350.0,335.0,107.0,116.0
4055,370,105,1,4074.0,4099.0,380.0,350.0,119.0,107.0
4023,374,102,1,4055.0,4074.0,370.0,380.0,105.0,119.0
4023,386,112,1,4023.0,4055.0,374.0,370.0,102.0,105.0
4048,391,137,1,4023.0,4023.0,386.0,374.0,112.0,102.0
4045,393,120,1,4048.0,4023.0,391.0,386.0,137.0,112.0
4048,382,100,1,4045.0,4048.0,393.0,391.0,120.0,137.0
4068,365,105,1,4048.0,4045.0,382.0,393.0,100.0,120.0
4037,351,89,1,4068.0,4048.0,365.0,382.0,105.0,100.0
4040,346,101,1,4037.0,4068.0,351.0,365.0,89.0,105.0
4071,351,125,1,4040.0,4037.0,346.0,351.0,101.0,89.0
4080,329,116,1,4071.0,4040.0,351.0,346.0,125.0,101.0
4042,355,102,1,4080.0,4071.0,329.0,351.0,116.0,125.0
4069,368,118,1,4042.0,4080.0,355.0,329.0,102.0,116.0
4063,369,101,1,4069.0,4042.0,368.0,355.0,118.0,102.0
4056,385,98,1,4063.0,4069.0,369.0,368.0,101.0,118.0
4070,391,93,1,4056.0,4063.0,385.0,369.0,98.0,101.0
4057,396,78,1,4070.0,4056.0,391.0,385.0,93.0,98.0
4030,405,54,1,4057.0,4070.0,396.0,391.0,78.0,93.0
4029,412,65,1,4030.0,4057.0,405.0,396.0,54.0,78.0
4063,405,81,1,4029.0,4030.0,412.0,405.0,65.0,54.0
4056,400,80,1,4063.0,4029.0,405.0,412.0,81.0,65.0
4054,404,68,1,4056.0,4063.0,400.0,405.0,80.0,81.0
4052,425,47,1,4054.0,4056.0,404.0,400.0,68.0,80.0
4058,440,43,1,4052.0,4054.0,425.0,404.0,47.0,68.0
4052,437,34,1,4058.0,4052.0,440.0,425.0,43.0,47.0
4047,419,29,1,4052.0,4058.0,437.0,440.0,34.0,43.0
4050,416,29,1,4047.0,4052.0,419.0,437.0,29.0,34.0
4043,423,42,1,4050.0,4047.0,416.0,419.0,29.0,29.0
4053,452,68,1,4043.0,4050.0,423.0,416.0,42.0,29.0
4057,458,76,1,4053.0,4043.0,452.0,423.0,68.0,42.0
4069,468,82,1,4057.0,4053.0,458.0,452.0,76.0,68.0
4071,482,86,1,4069.0,4057.0,468.0,458.0,82.0,76.0
4081,490,91,1,4071.0,4069.0,482.0,468.0,86.0,82.0
4076,492,94,1,4081.0,4071.0,490.0,482.0,91.0,86.0
4077,506,103,1,4076.0,4081.0,492.0,490.0,94.0,91.0
4087,514,112,1,4077.0,4076.0,506.0,492.0,103.0,94.0
4092,526,119,1,4087.0,4077.0,514.0,506.0,112.0,103.0
4096,536,126,1,4092.0,4087.0,526.0,514.0,119.0,112.0
4098,536,130,1,4096.0,4092.0,536.0,526.0,126.0,119.0
4099,548,137,1,4098.0,4096.0,536.0,536.0,130.0,126.0
4096,531,130,1,4099.0,4098.0,548.0,536.0,137.0,130.0
4072,510,119,1,4096.0,4099.0,531.0,548.0,130.0,137.0
4066,509,121,1,4072.0,4096.0,510.0,531.0,119.0,130.0
4066,507,119,1,4066.0,4072.0,509.0,510.0,121.0,119.0
4072,502,114,1,4066.0,4066.0,507.0,509.0,119.0,121.0
4065,499,108,1,4072.0,4066.0,502.0,507.0,114.0,119.0
4059,489,99,1,4065.0,4072.0,499.0,502.0,108.0,114.0
4054,505,110,1,4059.0,4065.0,489.0,499.0,99.0,108.0
4054,474,89,1,4054.0,4059.0,505.0,489.0,110.0,99.0
4058,470,87,1,4054.0,4054.0,474.0,505.0,89.0,110.0
4064,467,85,1,4058.0,4054.0,470.0,474.0,87.0,89.0
4063,472,80,1,4064.0,4058.0,467.0,470.0,85.0,87.0
4063,476,73,1,4063.0,4064.0,472.0,467.0,80.0,85.0
4063,480,62,1,4063.0,4063.0,476.0,472.0,73.0,80.0
4065,486,59,1,4063.0,4063.0,480.0,476.0,62.0,73.0
4064,499,60,1,4065.0,4063.0,486.0,480.0,59.0,62.0
4065,507,61,1,4064.0,4065.0,499.0,486.0,60.0,59.0
4065,512,60,1,4065.0,4064.0,507.0,499.0,61.0,60.0
4064,515,59,1,4065.0,4065.0,512.0,507.0,60.0,61.0
4056,517,54,1,4064.0,4065.0,515.0,512.0,59.0,60.0
4051,517,49,1,4056.0,4064.0,517.0,515.0,54.0,59.0
4044,518,45,1,4051.0,4056.0,517.0,517.0,49.0,54.0
4042,521,39,1,4044.0,4051.0,518.0,517.0,45.0,49.0
4043,529,40,1,4042.0,4044.0,521.0,518.0,39.0,45.0
4044,532,38,1,4043.0,4042.0,529.0,521.0,40.0,39.0
4045,533,35,1,4044.0,4043.0,532.0,529.0,38.0,40.0
4043,542,26,1,4045.0,4044.0,533.0,532.0,35.0,38.0
4042,550,17,1,4043.0,4045.0,542.0,533.0,26.0,35.0
4040,556,15,1,4042.0,4043.0,550.0,542.0,17.0,26.0
4041,559,11,1,4040.0,4042.0,556.0,550.0,15.0,17.0
4039,564,8,1,4041.0,4040.0,559.0,556.0,11.0,15.0
4039,563,6,1,4039.0,4041.0,564.0,559.0,8.0,11.0
4039,556,3,1,4039.0,4039.0,563.0,564.0,6.0,8.0
4040,555,3,1,4039.0,4039.0,556.0,563.0,3.0,6.0
4042,548,4,1,4040.0,4039.0,555.0,556.0,3.0,3.0
4039,545,3,1,4042.0,4040.0,548.0,555.0,4.0,3.0
4034,538,7,1,4039.0,4042.0,545.0,548.0,3.0,4.0
4032,531,18,1,4034.0,4039.0,538.0,545.0,7.0,3.0
4032,523,24,1,4032.0,4034.0,531.0,538.0,18.0,7.0
4036,512,31,1,4032.0,4032.0,523.0,531.0,24.0,18.0
4037,501,38,1,4036.0,4032.0,512.0,523.0,31.0,24.0
4039,490,39,1,4037.0,4036.0,501.0,512.0,38.0,31.0
4041,487,42,1,4039.0,4037.0,490.0,501.0,39.0,38.0
4041,482,53,1,4041.0,4039.0,487.0,490.0,42.0,39.0
4048,471,54,1,4041.0,4041.0,482.0,487.0,53.0,42.0
4062,463,56,1,4048.0,4041.0,471.0,482.0,54.0,53.0
4062,452,58,1,4062.0,4048.0,463.0,471.0,56.0,54.0
4084,471,82,1,4062.0,4062.0,452.0,463.0,58.0,56.0
4078,450,78,1,4084.0,4062.0,471.0,452.0,82.0,58.0
4077,466,85,1,4078.0,4084.0,450.0,471.0,78.0,82.0
4088,471,98,1,4077.0,4078.0,466.0,450.0,85.0,78.0
4094,474,112,1,4088.0,4077.0,471.0,466.0,98.0,85.0
4098,473,117,1,4094.0,4088.0,474.0,471.0,112.0,98.0
4100,473,125,1,4098.0,4094.0,473.0,474.0,117.0,112.0
4101,479,118,1,4100.0,4098.0,473.0,473.0,125.0,117.0
4117,494,127,1,4101.0,4100.0,479.0,473.0,118.0,125.0
4115,500,115,1,4117.0,4101.0,494.0,479.0,127.0,118.0
4106,506,100,1,4115.0,4117.0,500.0,494.0,115.0,127.0
4090,512,97,1,4106.0,4115.0,506.0,500.0,100.0,115.0
4090,514,104,1,4090.0,4106.0,512.0,506.0,97.0,100.0
4102,514,113,1,4090.0,4090.0,514.0,512.0,104.0,97.0
4114,511,114,1,4102.0,4090.0,514.0,514.0,113.0,104.0
4114,504,104,1,4114.0,4102.0,511.0,514.0,114.0,113.0
4110,499,104,1,4114.0,4114.0,504.0,511.0,104.0,114.0
4109,483,107,1,4110.0,4114.0,499.0,504.0,104.0,104.0
4122,482,116,1,4109.0,4110.0,483.0,499.0,107.0,104.0
4124,476,111,1,4122.0,4109.0,482.0,483.0,116.0,107.0
4119,466,110,1,4124.0,4122.0,476.0,482.0,111.0,116.0
4109,454,96,1,4119.0,4124.0,466.0,476.0,110.0,111.0
4098,457,95,1,4109.0,4119.0,454.0,466.0,96.0,110.0
4099,457,92,1,4098.0,4109.0,457.0,454.0,95.0,96.0
4099,456,88,1,4099.0,4098.0,457.0,457.0,92.0,95.0
4100,451,89,1,4099.0,4099.0,456.0,457.0,88.0,92.0
4100,451,88,1,4100.0,4099.0,451.0,456.0,89.0,88.0
4100,449,87,1,4100.0,4100.0,451.0,451.0,88.0,89.0
4100,455,91,1,4100.0,4100.0,449.0,451.0,87.0,88.0
4101,447,87,1,4100.0,4100.0,455.0,449.0,91.0,87.0
4101,453,92,1,4101.0,4100.0,447.0,455.0,87.0,91.0
4100,458,89,1,4101.0,4101.0,453.0,447.0,92.0,87.0
4100,461,86,1,4100.0,4101.0,458.0,453.0,89.0,92.0
4100,465,86,1,4100.0,4100.0,461.0,458.0,86.0,89.0
4100,474,89,1,4100.0,4100.0,465.0,461.0,86.0,86.0
4100,476,91,1,4100.0,4100.0,474.0,465.0,89.0,86.0
4100,481,90,1,4100.0,4100.0,476.0,474.0,91.0,89.0
4100,483,88,1,4100.0,4100.0,481.0,476.0,90.0,91.0
4099,490,85,1,4100.0,4100.0,483.0,481.0,88.0,90.0
4090,496,78,1,4099.0,4100.0,490.0,483.0,85.0,88.0
4095,505,79,1,4090.0,4099.0,496.0,490.0,78.0,85.0
4087,507,72,1,4095.0,4090.0,505.0,496.0,79.0,78.0
4082,516,63,1,4087.0,4095.0,507.0,505.0,72.0,79.0
4075,526,53,1,4082.0,4087.0,516.0,507.0,63.0,72.0
4077,525,55,1,4075.0,4082.0,526.0,516.0,53.0,63.0
4084,527,63,1,4077.0,4075.0,525.0,526.0,55.0,53.0
4090,526,67,1,4084.0,4077.0,527.0,525.0,63.0,55.0
4098,529,78,1,4090.0,4084.0,526.0,527.0,67.0,63.0
4099,536,74,1,4098.0,4090.0,529.0,526.0,78.0,67.0
4099,542,60,1,4099.0,4098.0,536.0,529.0,74.0,78.0
4089,550,45,1,4099.0,4099.0,542.0,536.0,60.0,74.0
4095,544,39,1,4089.0,4099.0,550.0,542.0,45.0,60.0
4103,537,54,1,4095.0,4089.0,544.0,550.0,39.0,45.0
4093,532,56,1,4103.0,4095.0,537.0,544.0,54.0,39.0
4067,507,53,1,4093.0,4103.0,532.0,537.0,56.0,54.0
4051,505,65,1,4067.0,4093.0,507.0,532.0,53.0,56.0
4072,514,91,1,4051.0,4067.0,505.0,507.0,65.0,53.0
4080,479,65,1,4072.0,4051.0,514.0,505.0,91.0,65.0
4073,477,60,1,4080.0,4072.0,479.0,514.0,65.0,91.0
4052,459,60,1,4073.0,4080.0,477.0,479.0,60.0,65.0
4048,478,79,1,4052.0,4073.0,459.0,477.0,60.0,60.0
4045,460,85,1,4048.0,4052.0,478.0,459.0,79.0,60.0
4036,434,77,1,4045.0,4048.0,460.0,478.0,85.0,79.0
4030,439,80,1,4036.0,4045.0,434.0,460.0,77.0,85.0
4020,429,64,1,4030.0,4036.0,439.0,434.0,80.0,77.0
4011,445,73,1,4020.0,4030.0,429.0,439.0,64.0,80.0
3998,428,57,1,4011.0,4020.0,445.0,429.0,73.0,64.0
4041,429,71,1,3998.0,4011.0,428.0,445.0,57.0,73.0
4044,432,57,1,4041.0,3998.0,429.0,428.0,71.0,57.0
4044,435,53,1,4044.0,4041.0,432.0,429.0,57.0,71.0
4045,434,53,1,4044.0,4044.0,435.0,432.0,53.0,57.0
4054,439,53,1,4045.0,4044.0,434.0,435.0,53.0,53.0
4048,437,50,1,4054.0,4045.0,439.0,434.0,53.0,53.0
4051,444,55,1,4048.0,4054.0,437.0,439.0,50.0,53.0
4061,446,57,1,4051.0,4048.0,444.0,437.0,55.0,50.0
4067,458,67,1,4061.0,4051.0,446.0,444.0,57.0,55.0
4080,456,75,1,4067.0,4061.0,458.0,446.0,67.0,57.0
4086,461,77,1,4080.0,4067.0,456.0,458.0,75.0,67.0
4087,455,73,1,4086.0,4080.0,461.0,456.0,77.0,75.0
4091,458,83,1,4087.0,4086.0,455.0,461.0,73.0,77.0
4089,448,73,1,4091.0,4087.0,458.0,455.0,83.0,73.0
4082,451,78,1,4089.0,4091.0,448.0,458.0,73.0,83.0
4073,451,79,1,4082.0,4089.0,451.0,448.0,78.0,73.0
4048,446,62,1,4073.0,4082.0,451.0,451.0,79.0,78.0
4045,453,65,1,4048.0,4073.0,446.0,451.0,62.0,79.0
4044,442,65,1,4045.0,4048.0,453.0,446.0,65.0,62.0
4056,444,72,1,4044.0,4045.0,442.0,453.0,65.0,65.0
4060,443,70,1,4056.0,4044.0,444.0,442.0,72.0,65.0
4074,436,70,1,4060.0,4056.0,443.0,444.0,70.0,72.0
4087,429,71,1,4074.0,4060.0,436.0,443.0,70.0,70.0
4076,423,58,1,4087.0,4074.0,429.0,436.0,71.0,70.0
4071,425,53,1,4076.0,4087.0,423.0,429.0,58.0,71.0
4068,421,47,1,4071.0,4076.0,425.0,423.0,53.0,58.0
4053,423,47,1,4068.0,4071.0,421.0,425.0,47.0,53.0
4055,415,47,1,4053.0,4068.0,423.0,421.0,47.0,47.0
4076,411,47,1,4055.0,4053.0,415.0,423.0,47.0,47.0
4067,417,35,1,4076.0,4055.0,411.0,415.0,47.0,47.0
4073,404,30,1,4067.0,4076.0,417.0,411.0,35.0,47.0
4072,407,26,1,4073.0,4067.0,404.0,417.0,30.0,35.0
4064,411,23,1,4072.0,4073.0,407.0,404.0,26.0,30.0
4066,412,23,1,4064.0,4072.0,411.0,407.0,23.0,26.0
4070,408,21,1,4066.0,4064.0,412.0,411.0,23.0,23.0
4080,387,13,1,4070.0,4066.0,408.0,412.0,21.0,23.0
4086,394,13,1,4080.0,4070.0,387.0,408.0,13.0,21.0
4145,376,22,1,4086.0,4080.0,394.0,387.0,13.0,13.0
4135,408,17,1,4145.0,4086.0,376.0,394.0,22.0,13.0
4106,413,12,1,4135.0,4145.0,408.0,376.0,17.0,22.0
4079,409,7,1,4106.0,4135.0,413.0,408.0,12.0,17.0
4059,403,9,1,4079.0,4106.0,409.0,413.0,7.0,12.0
4054,405,12,1,4059.0,4079.0,403.0,409.0,9.0,7.0
4055,401,16,1,4054.0,4059.0,405.0,403.0,12.0,9.0
4067,409,20,1,4055.0,4054.0,401.0,405.0,16.0,12.0
4072,415,22,1,4067.0,4055.0,409.0,401.0,20.0,16.0
4077,417,25,1,4072.0,4067.0,415.0,409.0,22.0,20.0
4081,420,33,1,4077.0,4072.0,417.0,415.0,25.0,22.0
4089,420,35,1,4081.0,4077.0,420.0,417.0,33.0,25.0
4091,419,32,1,4089.0,4081.0,420.0,420.0,35.0,33.0
4091,427,39,1,4091.0,4089.0,419.0,420.0,32.0,35.0
4093,423,41,1,4091.0,4091.0,427.0,419.0,39.0,32.0
4098,427,51,1,4093.0,4091.0,423.0,427.0,41.0,39.0
4099,423,52,1,4098.0,4093.0,427.0,423.0,51.0,41.0
4099,421,49,1,4099.0,4098.0,423.0,427.0,52.0,51.0
4098,404,51,1,4099.0,4099.0,421.0,423.0,49.0,52.0
4094,408,54,1,4098.0,4099.0,404.0,421.0,51.0,49.0
4085,418,41,1,4094.0,4098.0,408.0,404.0,54.0,51.0
4078,416,37,1,4085.0,4094.0,418.0,408.0,41.0,54.0
4088,415,41,1,4078.0,4085.0,416.0,418.0,37.0,41.0
4093,420,43,1,4088.0,4078.0,415.0,416.0,41.0,37.0
4090,419,40,1,4093.0,4088.0,420.0,415.0,43.0,41.0
4071,423,29,1,4090.0,4093.0,419.0,420.0,40.0,43.0
4067,430,28,1,4071.0,4090.0,423.0,419.0,29.0,40.0
4074,434,36,1,4067.0,4071.0,430.0,423.0,28.0,29.0
4087,437,45,1,4074.0,4067.0,434.0,430.0,36.0,28.0
4089,439,42,1,4087.0,4074.0,437.0,434.0,45.0,36.0
4089,437,43,1,4089.0,4087.0,439.0,437.0,42.0,45.0
4085,431,42,1,4089.0,4089.0,437.0,439.0,43.0,42.0
4093,429,47,1,4085.0,4089.0,431.0,437.0,42.0,43.0
4095,434,40,1,4093.0,4085.0,429.0,431.0,47.0,42.0
4098,427,41,1,4095.0,4093.0,434.0,429.0,40.0,47.0
4092,418,37,1,4098.0,4095.0,427.0,434.0,41.0,40.0
4095,422,42,1,4092.0,4098.0,418.0,427.0,37.0,41.0
4098,426,46,1,4095.0,4092.0,422.0,418.0,42.0,37.0
4099,416,42,1,4098.0,4095.0,426.0,422.0,46.0,42.0
4094,427,42,1,4099.0,4098.0,416.0,426.0,42.0,46.0
4099,436,53,1,4094.0,4099.0,427.0,416.0,42.0,42.0
4100,423,48,1,4099.0,4094.0,436.0,427.0,53.0,42.0
4099,429,49,1,4100.0,4099.0,423.0,436.0,48.0,53.0
4091,433,49,1,4099.0,4100.0,429.0,423.0,49.0,48.0
4184,412,98,1,4091.0,4099.0,433.0,429.0,49.0,49.0
4186,426,62,1,4184.0,4091.0,412.0,433.0,98.0,49.0
4149,431,43,1,4186.0,4184.0,426.0,412.0,62.0,98.0
4121,428,48,1,4149.0,4186.0,431.0,426.0,43.0,62.0
4090,426,53,1,4121.0,4149.0,428.0,431.0,48.0,43.0
4071,429,63,1,4090.0,4121.0,426.0,428.0,53.0,48.0
4062,413,59,1,4071.0,4090.0,429.0,426.0,63.0,53.0
4058,432,65,1,4062.0,4071.0,413.0,429.0,59.0,63.0
4074,418,65,1,4058.0,4062.0,432.0,413.0,65.0,59.0
4080,446,80,1,4074.0,4058.0,418.0,432.0,65.0,65.0
4075,442,76,1,4080.0,4074.0,446.0,418.0,80.0,65.0
4072,461,93,1,4075.0,4080.0,442.0,446.0,76.0,80.0
4066,454,91,1,4072.0,4075.0,461.0,442.0,93.0,76.0
4074,458,103,1,4066.0,4072.0,454.0,461.0,91.0,93.0
4080,443,101,1,4074.0,4066.0,458.0,454.0,103.0,91.0
4075,450,103,1,4080.0,4074.0,443.0,458.0,101.0,103.0
4056,443,91,1,4075.0,4080.0,450.0,443.0,103.0,101.0
4046,457,96,1,4056.0,4075.0,443.0,450.0,91.0,103.0
4046,458,99,1,4046.0,4056.0,457.0,443.0,96.0,91.0
4047,482,104,1,4046.0,4046.0,458.0,457.0,99.0,96.0
4062,475,98,1,4047.0,4046.0,482.0,458.0,104.0,99.0
4063,484,88,1,4062.0,4047.0,475.0,482.0,98.0,104.0
4066,490,79,1,4063.0,4062.0,484.0,475.0,88.0,98.0
4074,495,75,1,4066.0,4063.0,490.0,484.0,79.0,88.0
4077,491,73,1,4074.0,4066.0,495.0,490.0,75.0,79.0
4086,491,81,1,4077.0,4074.0,491.0,495.0,73.0,75.0
4093,491,86,1,4086.0,4077.0,491.0,491.0,81.0,73.0
4096,493,79,1,4093.0,4086.0,491.0,491.0,86.0,81.0
4097,491,71,1,4096.0,4093.0,493.0,491.0,79.0,86.0
4095,492,60,1,4097.0,4096.0,491.0,493.0,71.0,79.0
4091,488,57,1,4095.0,4097.0,492.0,491.0,60.0,71.0
4089,484,60,1,4091.0,4095.0,488.0,492.0,57.0,60.0
4089,478,75,1,4089.0,4091.0,484.0,488.0,60.0,57.0
4090,475,91,1,4089.0,4089.0,478.0,484.0,75.0,60.0
4089,469,101,1,4090.0,4089.0,475.0,478.0,91.0,75.0
4088,462,98,1,4089.0,4090.0,469.0,475.0,101.0,91.0
4082,457,93,1,4088.0,4089.0,462.0,469.0,98.0,101.0
4079,453,90,1,4082.0,4088.0,457.0,462.0,93.0,98.0
4075,452,85,1,4079.0,4082.0,453.0,457.0,90.0,93.0
4072,453,84,1,4075.0,4079.0,452.0,453.0,85.0,90.0
4067,455,81,1,4072.0,4075.0,453.0,452.0,84.0,85.0
4059,457,79,1,4067.0,4072.0,455.0,453.0,81.0,84.0
4058,457,77,1,4059.0,4067.0,457.0,455.0,79.0,81.0
4054,456,74,1,4058.0,4059.0,457.0,457.0,77.0,79.0
4053,457,73,1,4054.0,4058.0,456.0,457.0,74.0,77.0
4055,457,71,1,4053.0,4054.0,457.0,456.0,73.0,74.0
4057,459,72,1,4055.0,4053.0,457.0,457.0,71.0,73.0
4058,458,71,1,4057.0,4055.0,459.0,457.0,72.0,71.0
4062,451,67,1,4058.0,4057.0,458.0,459.0,71.0,72.0
4064,446,69,1,4062.0,4058.0,451.0,458.0,67.0,71.0
4066,449,63,1,4064.0,4062.0,446.0,451.0,69.0,67.0
4068,449,65,1,4066.0,4064.0,449.0,446.0,63.0,69.0
4071,451,65,1,4068.0,4066.0,449.0,449.0,65.0,63.0
4071,452,65,1,4071.0,4068.0,451.0,449.0,65.0,65.0
4068,451,68,1,4071.0,4071.0,452.0,451.0,65.0,65.0
4071,450,70,1,4068.0,4071.0,451.0,452.0,68.0,65.0
4072,454,71,1,4071.0,4068.0,450.0,451.0,70.0,68.0
4073,458,67,1,4072.0,4071.0,454.0,450.0,71.0,70.0
4069,462,60,1,4073.0,4072.0,458.0,454.0,67.0,71.0
4065,470,59,1,4069.0,4073.0,462.0,458.0,60.0,67.0
4064,479,62,1,4065.0,4069.0,470.0,462.0,59.0,60.0
4065,484,63,1,4064.0,4065.0,479.0,470.0,62.0,59.0
4058,493,64,1,4065.0,4064.0,484.0,479.0,63.0,62.0
4057,503,66,1,4058.0,4065.0,493.0,484.0,64.0,63.0
4062,511,73,1,4057.0,4058.0,503.0,493.0,66.0,64.0
4067,511,81,1,4062.0,4057.0,511.0,503.0,73.0,66.0
4074,509,86,1,4067.0,4062.0,511.0,511.0,81.0,73.0
4080,510,91,1,4074.0,4067.0,509.0,511.0,86.0,81.0
4080,516,93,1,4080.0,4074.0,510.0,509.0,91.0,86.0
4082,514,94,1,4080.0,4080.0,516.0,510.0,93.0,91.0
4091,509,92,1,4082.0,4080.0,514.0,516.0,94.0,93.0
4090,505,87,1,4091.0,4082.0,509.0,514.0,92.0,94.0
4088,507,86,1,4090.0,4091.0,505.0,509.0,87.0,92.0
4086,504,82,1,4088.0,4090.0,507.0,505.0,86.0,87.0
4084,497,83,1,4086.0,4088.0,504.0,507.0,82.0,86.0
4084,492,87,1,4084.0,4086.0,497.0,504.0,83.0,82.0
4077,487,90,1,4084.0,4084.0,492.0,497.0,87.0,83.0
4070,481,95,1,4077.0,4084.0,487.0,492.0,90.0,87.0
4067,482,95,1,4070.0,4077.0,481.0,487.0,95.0,90.0
4064,479,97,1,4067.0,4070.0,482.0,481.0,95.0,95.0
4057,476,101,1,4064.0,4067.0,479.0,482.0,97.0,95.0
4058,469,101,1,4057.0,4064.0,476.0,479.0,101.0,97.0
4060,476,102,1,4058.0,4057.0,469.0,476.0,101.0,101.0
4056,473,104,1,4060.0,4058.0,476.0,469.0,102.0,101.0
4056,470,108,1,4056.0,4060.0,473.0,476.0,104.0,102.0
4055,466,108,1,4056.0,4056.0,470.0,473.0,108.0,104.0
4057,470,105,1,4055.0,4056.0,466.0,470.0,108.0,108.0
4056,473,102,1,4057.0,4055.0,470.0,466.0,105.0,108.0
4057,472,95,1,4056.0,4057.0,473.0,470.0,102.0,105.0
4055,469,89,1,4057.0,4056.0,472.0,473.0,95.0,102.0
4055,468,85,1,4055.0,4057.0,469.0,472.0,89.0,95.0
4059,466,86,1,4055.0,4055.0,468.0,469.0,85.0,89.0
4061,468,94,1,4059.0,4055.0,466.0,468.0,86.0,85.0
4067,471,95,1,4061.0,4059.0,468.0,466.0,94.0,86.0
4067,465,95,1,4067.0,4061.0,471.0,468.0,95.0,94.0
4073,465,97,1,4067.0,4067.0,465.0,471.0,95.0,95.0
4075,468,97,1,4073.0,4067.0,465.0,465.0,97.0,95.0
4077,475,94,1,4075.0,4073.0,468.0,465.0,97.0,97.0
4076,473,100,1,4077.0,4075.0,475.0,468.0,94.0,97.0
4078,471,106,1,4076.0,4077.0,473.0,475.0,100.0,94.0
4076,476,111,1,4078.0,4076.0,471.0,473.0,106.0,100.0
4080,478,113,1,4076.0,4078.0,476.0,471.0,111.0,106.0
4082,481,110,1,4080.0,4076.0,478.0,476.0,113.0,111.0
4086,479,106,1,4082.0,4080.0,481.0,478.0,110.0,113.0
4087,477,104,1,4086.0,4082.0,479.0,481.0,106.0,110.0
4084,475,99,1,4087.0,4086.0,477.0,479.0,104.0,106.0
4079,474,100,1,4084.0,4087.0,475.0,477.0,99.0,104.0
4078,476,97,1,4079.0,4084.0,474.0,475.0,100.0,99.0
4074,469,102,1,4078.0,4079.0,476.0,474.0,97.0,100.0
4072,467,102,1,4074.0,4078.0,469.0,476.0,102.0,97.0
4074,463,103,1,4072.0,4074.0,467.0,469.0,102.0,102.0
4069,462,103,1,4074.0,4072.0,463.0,467.0,103.0,102.0
4064,457,106,1,4069.0,4074.0,462.0,463.0,103.0,103.0
4055,454,103,1,4064.0,4069.0,457.0,462.0,106.0,103.0
4053,454,101,1,4055.0,4064.0,454.0,457.0,103.0,106.0
4052,454,98,1,4053.0,4055.0,454.0,454.0,101.0,103.0
4055,456,99,1,4052.0,4053.0,454.0,454.0,98.0,101.0
4060,455,102,1,4055.0,4052.0,456.0,454.0,99.0,98.0
4061,455,103,1,4060.0,4055.0,455.0,456.0,102.0,99.0
4055,457,104,1,4061.0,4060.0,455.0,455.0,103.0,102.0
4054,458,103,1,4055.0,4061.0,457.0,455.0,104.0,103.0
4053,458,108,1,4054.0,4055.0,458.0,457.0,103.0,104.0
4054,454,108,1,4053.0,4054.0,458.0,458.0,108.0,103.0
4060,453,110,1,4054.0,4053.0,454.0,458.0,108.0,108.0
4065,452,107,1,4060.0,4054.0,453.0,454.0,110.0,108.0
4067,451,109,1,4065.0,4060.0,452.0,453.0,107.0,110.0
4072,449,112,1,4067.0,4065.0,451.0,452.0,109.0,107.0
4073,446,117,1,4072.0,4067.0,449.0,451.0,112.0,109.0
4076,448,118,1,4073.0,4072.0,446.0,449.0,117.0,112.0
4077,443,123,1,4076.0,4073.0,448.0,446.0,118.0,117.0
4077,443,125,1,4077.0,4076.0,443.0,448.0,123.0,118.0
4080,442,124,1,4077.0,4077.0,443.0,443.0,125.0,123.0
4079,443,130,1,4080.0,4077.0,442.0,443.0,124.0,125.0
4080,441,133,1,4079.0,4080.0,443.0,442.0,130.0,124.0
4081,441,131,1,4080.0,4079.0,441.0,443.0,133.0,130.0
4081,438,138,1,4081.0,4080.0,441.0,441.0,131.0,133.0
4082,439,138,1,4081.0,4081.0,438.0,441.0,138.0,131.0
4085,439,135,1,4082.0,4081.0,439.0,438.0,138.0,138.0
4082,440,133,1,4085.0,4082.0,439.0,439.0,135.0,138.0
4081,441,135,1,4082.0,4085.0,440.0,439.0,133.0,135.0
4086,440,141,1,4081.0,4082.0,441.0,440.0,135.0,133.0
4087,436,144,1,4086.0,4081.0,440.0,441.0,141.0,135.0
4084,439,146,1,4087.0,4086.0,436.0,440.0,144.0,141.0
4081,440,144,1,4084.0,4087.0,439.0,436.0,146.0,144.0
4083,441,146,1,4081.0,4084.0,440.0,439.0,144.0,146.0
4080,446,144,1,4083.0,4081.0,441.0,440.0,146.0,144.0
4076,447,145,1,4080.0,4083.0,446.0,441.0,144.0,146.0
4078,447,139,1,4076.0,4080.0,447.0,446.0,145.0,144.0
4075,445,139,1,4078.0,4076.0,447.0,447.0,139.0,145.0
4080,444,143,1,4075.0,4078.0,445.0,447.0,139.0,139.0
4082,444,148,1,4080.0,4075.0,444.0,445.0,143.0,139.0
4083,444,148,1,4082.0,4080.0,444.0,444.0,148.0,143.0
4079,444,151,1,4083.0,4082.0,444.0,444.0,148.0,148.0
4073,446,149,1,4079.0,4083.0,444.0,444.0,151.0,148.0
4074,448,144,1,4073.0,4079.0,446.0,444.0,149.0,151.0
4070,452,138,1,4074.0,4073.0,448.0,446.0,144.0,149.0
4065,456,129,1,4070.0,4074.0,452.0,448.0,138.0,144.0
4068,456,117,1,4065.0,4070.0,456.0,452.0,129.0,138.0
4066,457,108,1,4068.0,4065.0,456.0,456.0,117.0,129.0
4064,458,98,1,4066.0,4068.0,457.0,456.0,108.0,117.0
4064,465,93,1,4064.0,4066.0,458.0,457.0,98.0,108.0
4067,469,87,1,4064.0,4064.0,465.0,458.0,93.0,98.0
4069,466,92,1,4067.0,4064.0,469.0,465.0,87.0,93.0
4067,462,106,1,4069.0,4067.0,466.0,469.0,92.0,87.0
4069,453,122,1,4067.0,4069.0,462.0,466.0,106.0,92.0
4075,453,146,1,4069.0,4067.0,453.0,462.0,122.0,106.0
4083,450,156,1,4075.0,4069.0,453.0,453.0,146.0,122.0
4084,460,151,1,4083.0,4075.0,450.0,453.0,156.0,146.0
4078,461,142,1,4084.0,4083.0,460.0,450.0,151.0,156.0
4060,460,132,1,4078.0,4084.0,461.0,460.0,142.0,151.0
4049,460,126,1,4060.0,4078.0,460.0,461.0,132.0,142.0
4056,441,139,1,4049.0,4060.0,460.0,460.0,126.0,132.0
4068,440,159,1,4056.0,4049.0,441.0,460.0,139.0,126.0
4076,435,167,1,4068.0,4056.0,440.0,441.0,159.0,139.0
4084,441,171,1,4076.0,4068.0,435.0,440.0,167.0,159.0
4086,443,168,1,4084.0,4076.0,441.0,435.0,171.0,167.0
4079,454,161,1,4086.0,4084.0,443.0,441.0,168.0,171.0
4065,466,154,1,4079.0,4086.0,454.0,443.0,161.0,168.0
4069,469,156,1,4065.0,4079.0,466.0,454.0,154.0,161.0
4077,469,154,1,4069.0,4065.0,469.0,466.0,156.0,154.0
4085,469,149,1,4077.0,4069.0,469.0,469.0,154.0,156.0
4083,473,141,1,4085.0,4077.0,469.0,469.0,149.0,154.0
4076,481,132,1,4083.0,4085.0,473.0,469.0,141.0,149.0
4071,484,123,1,4076.0,4083.0,481.0,473.0,132.0,141.0
4064,486,112,1,4071.0,4076.0,484.0,481.0,123.0,132.0
4055,487,107,1,4064.0,4071.0,486.0,484.0,112.0,123.0
4048,490,101,1,4055.0,4064.0,487.0,486.0,107.0,112.0
4044,487,98,1,4048.0,4055.0,490.0,487.0,101.0,107.0
4046,488,102,1,4044.0,4048.0,487.0,490.0,98.0,101.0
4055,486,107,1,4046.0,4044.0,488.0,487.0,102.0,98.0
4058,492,112,1,4055.0,4046.0,486.0,488.0,107.0,102.0
4064,493,115,1,4058.0,4055.0,492.0,486.0,112.0,107.0
4067,495,119,1,4064.0,4058.0,493.0,492.0,115.0,112.0
4065,502,123,1,4067.0,4064.0,495.0,493.0,119.0,115.0
4065,505,122,1,4065.0,4067.0,502.0,495.0,123.0,119.0
4059,508,118,1,4065.0,4065.0,505.0,502.0,122.0,123.0
4054,505,117,1,4059.0,4065.0,508.0,505.0,118.0,122.0
4057,505,115,1,4054.0,4059.0,505.0,508.0,117.0,118.0
4054,503,119,1,4057.0,4054.0,505.0,505.0,115.0,117.0
4057,506,123,1,4054.0,4057.0,503.0,505.0,119.0,115.0
4058,507,131,1,4057.0,4054.0,506.0,503.0,123.0,119.0
4061,508,140,1,4058.0,4057.0,507.0,506.0,131.0,123.0
4061,507,145,1,4061.0,4058.0,508.0,507.0,140.0,131.0
4066,506,150,1,4061.0,4061.0,507.0,508.0,145.0,140.0
4066,507,153,1,4066.0,4061.0,506.0,507.0,150.0,145.0
4068,501,153,1,4066.0,4066.0,507.0,506.0,153.0,150.0
4069,500,150,1,4068.0,4066.0,501.0,507.0,153.0,153.0
4066,495,148,1,4069.0,4068.0,500.0,501.0,150.0,153.0
4061,491,145,1,4066.0,4069.0,495.0,500.0,148.0,150.0
4061,490,142,1,4061.0,4066.0,491.0,495.0,145.0,148.0
4057,484,140,1,4061.0,4061.0,490.0,491.0,142.0,145.0
4056,482,140,1,4057.0,4061.0,484.0,490.0,140.0,142.0
4056,480,139,1,4056.0,4057.0,482.0,484.0,140.0,140.0
4061,474,139,1,4056.0,4056.0,480.0,482.0,139.0,140.0
4061,470,135,1,4061.0,4056.0,474.0,480.0,139.0,139.0
4061,469,136,1,4061.0,4061.0,470.0,474.0,135.0,139.0
4067,467,133,1,4061.0,4061.0,469.0,470.0,136.0,135.0
4070,465,130,1,4067.0,4061.0,467.0,469.0,133.0,136.0
4077,463,134,1,4070.0,4067.0,465.0,467.0,130.0,133.0
4078,462,130,1,4077.0,4070.0,463.0,465.0,134.0,130.0
4073,462,126,1,4078.0,4077.0,462.0,463.0,130.0,134.0
4072,463,125,1,4073.0,4078.0,462.0,462.0,126.0,130.0
4069,463,125,1,4072.0,4073.0,463.0,462.0,125.0,126.0
4069,465,121,1,4069.0,4072.0,463.0,463.0,125.0,125.0
4073,466,115,1,4069.0,4069.0,465.0,463.0,121.0,125.0
4074,474,111,1,4073.0,4069.0,466.0,465.0,115.0,121.0
4077,478,107,1,4074.0,4073.0,474.0,466.0,111.0,115.0
4077,484,104,1,4077.0,4074.0,478.0,474.0,107.0,111.0
4077,481,101,1,4077.0,4077.0,484.0,478.0,104.0,107.0
4071,482,97,1,4077.0,4077.0,481.0,484.0,101.0,104.0
4076,488,99,1,4071.0,4077.0,482.0,481.0,97.0,101.0
4080,484,99,1,4076.0,4071.0,488.0,482.0,99.0,97.0
4080,480,97,1,4080.0,4076.0,484.0,488.0,99.0,99.0
4085,484,101,1,4080.0,4080.0,480.0,484.0,97.0,99.0
4079,485,98,1,4085.0,4080.0,484.0,480.0,101.0,97.0
4068,481,93,1,4079.0,4085.0,485.0,484.0,98.0,101.0
4062,487,95,1,4068.0,4079.0,481.0,485.0,93.0,98.0
4065,478,95,1,4062.0,4068.0,487.0,481.0,95.0,93.0
4079,484,104,1,4065.0,4062.0,478.0,487.0,95.0,95.0
4089,489,107,1,4079.0,4065.0,484.0,478.0,104.0,95.0
4084,484,101,1,4089.0,4079.0,489.0,484.0,107.0,104.0
4068,477,96,1,4084.0,4089.0,484.0,489.0,101.0,107.0
4058,477,94,1,4068.0,4084.0,477.0,484.0,96.0,101.0
4050,481,94,1,4058.0,4068.0,477.0,477.0,94.0,96.0
4052,477,92,1,4050.0,4058.0,481.0,477.0,94.0,94.0
4051,471,90,1,4052.0,4050.0,477.0,481.0,92.0,94.0
4054,473,87,1,4051.0,4052.0,471.0,477.0,90.0,92.0
4068,473,89,1,4054.0,4051.0,473.0,471.0,87.0,90.0
4066,462,78,1,4068.0,4054.0,473.0,473.0,89.0,87.0
4062,463,75,1,4066.0,4068.0,462.0,473.0,78.0,89.0
4055,455,75,1,4062.0,4066.0,463.0,462.0,75.0,78.0
4057,456,76,1,4055.0,4062.0,455.0,463.0,75.0,75.0
4059,461,80,1,4057.0,4055.0,456.0,455.0,76.0,75.0
4062,456,79,1,4059.0,4057.0,461.0,456.0,80.0,76.0
4065,457,86,1,4062.0,4059.0,456.0,461.0,79.0,80.0
4073,456,86,1,4065.0,4062.0,457.0,456.0,86.0,79.0
4074,444,77,1,4073.0,4065.0,456.0,457.0,86.0,86.0
4070,449,77,1,4074.0,4073.0,444.0,456.0,77.0,86.0
4086,455,88,1,4070.0,4074.0,449.0,444.0,77.0,77.0
4097,445,89,1,4086.0,4070.0,455.0,449.0,88.0,77.0
4090,443,74,1,4097.0,4086.0,445.0,455.0,89.0,88.0
4086,448,67,1,4090.0,4097.0,443.0,445.0,74.0,89.0
4083,446,64,1,4086.0,4090.0,448.0,443.0,67.0,74.0
4088,453,72,1,4083.0,4086.0,446.0,448.0,64.0,67.0
4068,445,66,1,4088.0,4083.0,453.0,446.0,72.0,64.0
4073,453,73,1,4068.0,4088.0,445.0,453.0,66.0,72.0
4085,461,80,1,4073.0,4068.0,453.0,445.0,73.0,66.0
4089,456,75,1,4085.0,4073.0,461.0,453.0,80.0,73.0
4091,457,76,1,4089.0,4085.0,456.0,461.0,75.0,80.0
4076,460,71,1,4091.0,4089.0,457.0,456.0,76.0,75.0
4075,455,80,1,4076.0,4091.0,460.0,457.0,71.0,76.0
4075,451,76,1,4075.0,4076.0,455.0,460.0,80.0,71.0
4088,452,82,1,4075.0,4075.0,451.0,455.0,76.0,80.0
4095,455,84,1,4088.0,4075.0,452.0,451.0,82.0,76.0
4095,465,85,1,4095.0,4088.0,455.0,452.0,84.0,82.0
4098,449,70,1,4095.0,4095.0,465.0,455.0,85.0,84.0
4090,450,68,1,4098.0,4095.0,449.0,465.0,70.0,85.0
4078,460,68,1,4090.0,4098.0,450.0,449.0,68.0,70.0
4075,462,73,1,4078.0,4090.0,460.0,450.0,68.0,68.0
4082,456,76,1,4075.0,4078.0,462.0,460.0,73.0,68.0
4094,470,86,1,4082.0,4075.0,456.0,462.0,76.0,73.0
4095,467,75,1,4094.0,4082.0,470.0,456.0,86.0,76.0
4094,472,72,1,4095.0,4094.0,467.0,470.0,75.0,86.0
4072,462,53,1,4094.0,4095.0,472.0,467.0,72.0,75.0
4055,466,51,1,4072.0,4094.0,462.0,472.0,53.0,72.0
4046,466,44,1,4055.0,4072.0,466.0,462.0,51.0,53.0
4054,468,46,1,4046.0,4055.0,466.0,466.0,44.0,51.0
4068,473,44,1,4054.0,4046.0,468.0,466.0,46.0,44.0
4067,472,34,1,4068.0,4054.0,473.0,468.0,44.0,46.0
4064,470,37,1,4067.0,4068.0,472.0,473.0,34.0,44.0
4072,468,47,1,4064.0,4067.0,470.0,472.0,37.0,34.0
4078,463,57,1,4072.0,4064.0,468.0,470.0,47.0,37.0
4073,456,58,1,4078.0,4072.0,463.0,468.0,57.0,47.0
4086,469,64,1,4073.0,4078.0,456.0,463.0,58.0,57.0
4116,475,72,1,4086.0,4073.0,469.0,456.0,64.0,58.0
4107,462,52,1,4116.0,4086.0,475.0,469.0,72.0,64.0
4087,471,51,1,4107.0,4116.0,462.0,475.0,52.0,72.0
4056,451,38,1,4087.0,4107.0,471.0,462.0,51.0,52.0
4043,440,46,1,4056.0,4087.0,451.0,471.0,38.0,51.0
4044,447,63,1,4043.0,4056.0,440.0,451.0,46.0,38.0
4061,450,78,1,4044.0,4043.0,447.0,440.0,63.0,46.0
4076,448,78,1,4061.0,4044.0,450.0,447.0,78.0,63.0
4087,448,81,1,4076.0,4061.0,448.0,450.0,78.0,78.0
4093,451,80,1,4087.0,4076.0,448.0,448.0,81.0,78.0
4101,459,82,1,4093.0,4087.0,451.0,448.0,80.0,81.0
4104,465,79,1,4101.0,4093.0,459.0,451.0,82.0,80.0
4102,462,71,1,4104.0,4101.0,465.0,459.0,79.0,82.0
4085,466,65,1,4102.0,4104.0,462.0,465.0,71.0,79.0
4080,473,63,1,4085.0,4102.0,466.0,462.0,65.0,71.0
4058,473,57,1,4080.0,4085.0,473.0,466.0,63.0,65.0
4049,477,63,1,4058.0,4080.0,473.0,473.0,57.0,63.0
4075,477,78,1,4049.0,4058.0,477.0,473.0,63.0,57.0
4080,475,74,1,4075.0,4049.0,477.0,477.0,78.0,63.0
4088,478,75,1,4080.0,4075.0,475.0,477.0,74.0,78.0
4090,478,75,1,4088.0,4080.0,478.0,475.0,75.0,74.0
4092,481,78,1,4090.0,4088.0,478.0,478.0,75.0,75.0
4080,478,72,1,4092.0,4090.0,481.0,478.0,78.0,75.0
4065,479,69,1,4080.0,4092.0,478.0,481.0,72.0,78.0
4063,479,70,1,4065.0,4080.0,479.0,478.0,69.0,72.0
4060,483,72,1,4063.0,4065.0,479.0,479.0,70.0,69.0
4069,484,72,1,4060.0,4063.0,483.0,479.0,72.0,70.0
4077,486,72,1,4069.0,4060.0,484.0,483.0,72.0,72.0
4082,487,74,1,4077.0,4069.0,486.0,484.0,72.0,72.0
4082,492,70,1,4082.0,4077.0,487.0,486.0,74.0,72.0
4082,490,69,1,4082.0,4082.0,492.0,487.0,70.0,74.0
4080,485,69,1,4082.0,4082.0,490.0,492.0,69.0,70.0
4084,483,65,1,4080.0,4082.0,485.0,490.0,69.0,69.0
4084,485,69,1,4084.0,4080.0,483.0,485.0,65.0,69.0
4090,488,67,1,4084.0,4084.0,485.0,483.0,69.0,65.0
4090,487,63,1,4090.0,4084.0,488.0,485.0,67.0,69.0
4095,490,59,1,4090.0,4090.0,487.0,488.0,63.0,67.0
4090,488,58,1,4095.0,4090.0,490.0,487.0,59.0,63.0
4090,487,59,1,4090.0,4095.0,488.0,490.0,58.0,59.0
4092,487,60,1,4090.0,4090.0,487.0,488.0,59.0,58.0
4088,487,65,1,4092.0,4090.0,487.0,487.0,60.0,59.0
4087,486,66,1,4088.0,4092.0,487.0,487.0,65.0,60.0
4085,486,63,1,4087.0,4088.0,486.0,487.0,66.0,65.0
4078,485,64,1,4085.0,4087.0,486.0,486.0,63.0,66.0
4077,484,63,1,4078.0,4085.0,485.0,486.0,64.0,63.0
4075,484,60,1,4077.0,4078.0,484.0,485.0,63.0,64.0
4075,481,54,1,4075.0,4077.0,484.0,484.0,60.0,63.0
4074,475,52,1,4075.0,4075.0,481.0,484.0,54.0,60.0
4074,471,47,1,4074.0,4075.0,475.0,481.0,52.0,54.0
4075,467,45,1,4074.0,4074.0,471.0,475.0,47.0,52.0
4077,465,44,1,4075.0,4074.0,467.0,471.0,45.0,47.0
4076,465,44,1,4077.0,4075.0,465.0,467.0,44.0,45.0
4077,462,40,1,4076.0,4077.0,465.0,465.0,44.0,44.0
4078,462,40,1,4077.0,4076.0,462.0,465.0,40.0,44.0
4076,463,40,1,4078.0,4077.0,462.0,462.0,40.0,40.0
4077,462,43,1,4076.0,4078.0,463.0,462.0,40.0,40.0
4078,463,39,1,4077.0,4076.0,462.0,463.0,43.0,40.0
4076,468,39,1,4078.0,4077.0,463.0,462.0,39.0,43.0
4076,469,40,1,4076.0,4078.0,468.0,463.0,39.0,39.0
4072,468,38,1,4076.0,4076.0,469.0,468.0,40.0,39.0
4075,470,31,1,4072.0,4076.0,468.0,469.0,38.0,40.0
4076,473,28,1,4075.0,4072.0,470.0,468.0,31.0,38.0
4077,472,30,1,4076.0,4075.0,473.0,470.0,28.0,31.0
4076,476,31,1,4077.0,4076.0,472.0,473.0,30.0,28.0
4076,474,30,1,4076.0,4077.0,476.0,472.0,31.0,30.0
4078,476,27,1,4076.0,4076.0,474.0,476.0,30.0,31.0
4078,473,24,1,4078.0,4076.0,476.0,474.0,27.0,30.0
4080,466,24,1,4078.0,4078.0,473.0,476.0,24.0,27.0
4082,468,26,1,4080.0,4078.0,466.0,473.0,24.0,24.0
4080,473,25,1,4082.0,4080.0,468.0,466.0,26.0,24.0
4081,476,25,1,4080.0,4082.0,473.0,468.0,25.0,26.0
4079,475,22,1,4081.0,4080.0,476.0,473.0,25.0,25.0
4075,475,20,1,4079.0,4081.0,475.0,476.0,22.0,25.0
4073,472,21,1,4075.0,4079.0,475.0,475.0,20.0,22.0
4071,474,24,1,4073.0,4075.0,472.0,475.0,21.0,20.0
4072,473,26,1,4071.0,4073.0,474.0,472.0,24.0,21.0
4069,471,21,1,4072.0,4071.0,473.0,474.0,26.0,24.0
4069,472,20,1,4069.0,4072.0,471.0,473.0,21.0,26.0
4067,471,19,1,4069.0,4069.0,472.0,471.0,20.0,21.0
4070,468,21,1,4067.0,4069.0,471.0,472.0,19.0,20.0
4066,465,23,1,4070.0,4067.0,468.0,471.0,21.0,19.0
4068,463,23,1,4066.0,4070.0,465.0,468.0,23.0,21.0
4068,463,28,1,4068.0,4066.0,463.0,465.0,23.0,23.0
4075,460,30,1,4068.0,4068.0,463.0,463.0,28.0,23.0
4075,460,30,1,4075.0,4068.0,460.0,463.0,30.0,28.0
4078,460,33,1,4075.0,4075.0,460.0,460.0,30.0,30.0
4080,457,34,1,4078.0,4075.0,460.0,460.0,33.0,30.0
4081,459,34,1,4080.0,4078.0,457.0,460.0,34.0,33.0
4079,461,33,1,4081.0,4080.0,459.0,457.0,34.0,34.0
4079,459,35,1,4079.0,4081.0,461.0,459.0,33.0,34.0
4076,456,36,1,4079.0,4079.0,459.0,461.0,35.0,33.0
4074,457,34,1,4076.0,4079.0,456.0,459.0,36.0,35.0
4070,454,34,1,4074.0,4076.0,457.0,456.0,34.0,36.0
4070,455,32,1,4070.0,4074.0,454.0,457.0,34.0,34.0
4070,454,28,1,4070.0,4070.0,455.0,454.0,32.0,34.0
4068,458,29,1,4070.0,4070.0,454.0,455.0,28.0,32.0
4069,458,25,1,4068.0,4070.0,458.0,454.0,29.0,28.0
4067,464,28,1,4069.0,4068.0,458.0,458.0,25.0,29.0
4070,465,27,1,4067.0,4069.0,464.0,458.0,28.0,25.0
4068,473,23,1,4070.0,4067.0,465.0,464.0,27.0,28.0
4069,476,18,1,4068.0,4070.0,473.0,465.0,23.0,27.0
4065,477,15,1,4069.0,4068.0,476.0,473.0,18.0,23.0
4061,478,16,1,4065.0,4069.0,477.0,476.0,15.0,18.0
4065,480,19,1,4061.0,4065.0,478.0,477.0,16.0,15.0
4068,483,25,1,4065.0,4061.0,480.0,478.0,19.0,16.0
4072,480,26,1,4068.0,4065.0,483.0,480.0,25.0,19.0
4073,484,31,1,4072.0,4068.0,480.0,483.0,26.0,25.0
4077,487,36,1,4073.0,4072.0,484.0,480.0,31.0,26.0
4075,491,35,1,4077.0,4073.0,487.0,484.0,36.0,31.0
4076,490,32,1,4075.0,4077.0,491.0,487.0,35.0,36.0
4074,493,28,1,4076.0,4075.0,490.0,491.0,32.0,35.0
4075,494,25,1,4074.0,4076.0,493.0,490.0,28.0,32.0
4078,497,19,1,4075.0,4074.0,494.0,493.0,25.0,28.0
4078,496,18,1,4078.0,4075.0,497.0,494.0,19.0,25.0
4078,503,16,1,4078.0,4078.0,496.0,497.0,18.0,19.0
4078,499,17,1,4078.0,4078.0,503.0,496.0,16.0,18.0
4079,495,27,1,4078.0,4078.0,499.0,503.0,17.0,16.0
4079,486,40,1,4079.0,4078.0,495.0,499.0,27.0,17.0
4080,483,48,1,4079.0,4079.0,486.0,495.0,40.0,27.0
4080,481,48,1,4080.0,4079.0,483.0,486.0,48.0,40.0
4080,482,44,1,4080.0,4080.0,481.0,483.0,48.0,48.0
4077,488,36,1,4080.0,4080.0,482.0,481.0,44.0,48.0
4072,485,30,1,4077.0,4080.0,488.0,482.0,36.0,44.0
4073,483,32,1,4072.0,4077.0,485.0,488.0,30.0,36.0
4081,474,39,1,4073.0,4072.0,483.0,485.0,32.0,30.0
4090,469,48,1,4081.0,4073.0,474.0,483.0,39.0,32.0
4090,467,51,1,4090.0,4081.0,469.0,474.0,48.0,39.0
4087,469,52,1,4090.0,4090.0,467.0,469.0,51.0,48.0
4091,472,53,1,4087.0,4090.0,469.0,467.0,52.0,51.0
4093,471,53,1,4091.0,4087.0,472.0,469.0,53.0,52.0
4094,472,54,1,4093.0,4091.0,471.0,472.0,53.0,53.0
4092,474,56,1,4094.0,4093.0,472.0,471.0,54.0,53.0
4087,477,56,1,4092.0,4094.0,474.0,472.0,56.0,54.0
4082,482,58,1,4087.0,4092.0,477.0,474.0,56.0,56.0
4073,486,51,1,4082.0,4087.0,482.0,477.0,58.0,56.0
4069,490,51,1,4073.0,4082.0,486.0,482.0,51.0,58.0
4067,487,47,1,4069.0,4073.0,490.0,486.0,51.0,51.0
4064,484,47,1,4067.0,4069.0,487.0,490.0,47.0,51.0
4064,484,45,1,4064.0,4067.0,484.0,487.0,47.0,47.0
4067,480,41,1,4064.0,4064.0,484.0,484.0,45.0,47.0
4066,474,44,1,4067.0,4064.0,480.0,484.0,41.0,45.0
4068,473,43,1,4066.0,4067.0,474.0,480.0,44.0,41.0
4071,474,38,1,4068.0,4066.0,473.0,474.0,43.0,44.0
4072,480,32,1,4071.0,4068.0,474.0,473.0,38.0,43.0
4071,477,30,1,4072.0,4071.0,480.0,474.0,32.0,38.0
4072,480,30,1,4071.0,4072.0,477.0,480.0,30.0,32.0
4075,476,27,1,4072.0,4071.0,480.0,477.0,30.0,30.0
4075,486,31,1,4075.0,4072.0,476.0,480.0,27.0,30.0
4078,492,26,1,4075.0,4075.0,486.0,476.0,31.0,27.0
4080,492,23,1,4078.0,4075.0,492.0,486.0,26.0,31.0
4078,505,25,1,4080.0,4078.0,492.0,492.0,23.0,26.0
4078,509,22,1,4078.0,4080.0,505.0,492.0,25.0,23.0
4079,512,17,1,4078.0,4078.0,509.0,505.0,22.0,25.0
4082,511,15,1,4079.0,4078.0,512.0,509.0,17.0,22.0
4085,510,14,1,4082.0,4079.0,511.0,512.0,15.0,17.0
4082,514,14,1,4085.0,4082.0,510.0,511.0,14.0,15.0
4084,511,11,1,4082.0,4085.0,514.0,510.0,14.0,14.0
4078,516,12,1,4084.0,4082.0,511.0,514.0,11.0,14.0
4077,513,10,1,4078.0,4084.0,516.0,511.0,12.0,11.0
4073,509,14,1,4077.0,4078.0,513.0,516.0,10.0,12.0
4073,505,8,1,4073.0,4077.0,509.0,513.0,14.0,10.0
4070,504,6,1,4073.0,4073.0,505.0,509.0,8.0,14.0
4074,504,6,1,4070.0,4073.0,504.0,505.0,6.0,8.0
4074,503,6,1,4074.0,4070.0,504.0,504.0,6.0,6.0
4073,502,7,1,4074.0,4074.0,503.0,504.0,6.0,6.0
4072,501,7,1,4073.0,4074.0,502.0,503.0,7.0,6.0
4071,497,5,1,4072.0,4073.0,501.0,502.0,7.0,7.0
4074,497,1,1,4071.0,4072.0,497.0,501.0,5.0,7.0
4075,489,-2,1,4074.0,4071.0,497.0,497.0,1.0,5.0
4077,474,-6,1,4075.0,4074.0,489.0,497.0,-2.0,1.0
4082,474,0,1,4077.0,4075.0,474.0,489.0,-6.0,-2.0
4082,467,1,1,4082.0,4077.0,474.0,474.0,0.0,-6.0
4081,462,4,1,4082.0,4082.0,467.0,474.0,1.0,0.0
4078,470,8,1,4081.0,4082.0,462.0,467.0,4.0,1.0
4076,465,9,1,4078.0,4081.0,470.0,462.0,8.0,4.0
4069,460,7,1,4076.0,4078.0,465.0,470.0,9.0,8.0
4069,462,9,1,4069.0,4076.0,460.0,465.0,7.0,9.0
4068,460,10,1,4069.0,4069.0,462.0,460.0,9.0,7.0
4061,458,8,1,4068.0,4069.0,460.0,462.0,10.0,9.0
4057,459,8,1,4061.0,4068.0,458.0,460.0,8.0,10.0
4063,459,7,1,4057.0,4061.0,459.0,458.0,8.0,8.0
4071,467,8,1,4063.0,4057.0,459.0,459.0,7.0,8.0
4072,468,9,1,4071.0,4063.0,467.0,459.0,8.0,7.0
4076,461,18,1,4072.0,4071.0,468.0,467.0,9.0,8.0
4075,454,23,1,4076.0,4072.0,461.0,468.0,18.0,9.0
4078,459,27,1,4075.0,4076.0,454.0,461.0,23.0,18.0
4078,467,30,1,4078.0,4075.0,459.0,454.0,27.0,23.0
4077,473,23,1,4078.0,4078.0,467.0,459.0,30.0,27.0
4075,472,19,1,4077.0,4078.0,473.0,467.0,23.0,30.0
4078,473,20,1,4075.0,4077.0,472.0,473.0,19.0,23.0
4084,473,22,1,4078.0,4075.0,473.0,472.0,20.0,19.0
4089,474,19,1,4084.0,4078.0,473.0,473.0,22.0,20.0
4094,477,23,1,4089.0,4084.0,474.0,473.0,19.0,22.0
4097,475,25,1,4094.0,4089.0,477.0,474.0,23.0,19.0
4097,472,29,1,4097.0,4094.0,475.0,477.0,25.0,23.0
4096,473,24,1,4097.0,4097.0,472.0,475.0,29.0,25.0
4096,480,19,1,4096.0,4097.0,473.0,472.0,24.0,29.0
4095,486,18,1,4096.0,4096.0,480.0,473.0,19.0,24.0
4091,489,19,1,4095.0,4096.0,486.0,480.0,18.0,19.0
4084,485,18,1,4091.0,4095.0,489.0,486.0,19.0,18.0
4080,484,13,1,4084.0,4091.0,485.0,489.0,18.0,19.0
4074,489,11,1,4080.0,4084.0,484.0,485.0,13.0,18.0
4070,487,10,1,4074.0,4080.0,489.0,484.0,11.0,13.0
4068,489,10,1,4070.0,4074.0,487.0,489.0,10.0,11.0
4065,495,11,1,4068.0,4070.0,489.0,487.0,10.0,10.0
4063,500,11,1,4065.0,4068.0,495.0,489.0,11.0,10.0
4066,507,13,1,4063.0,4065.0,500.0,495.0,11.0,11.0
4070,513,16,1,4066.0,4063.0,507.0,500.0,13.0,11.0
4071,512,14,1,4070.0,4066.0,513.0,507.0,16.0,13.0
4085,507,22,1,4071.0,4070.0,512.0,513.0,14.0,16.0
4093,502,14,1,4085.0,4071.0,507.0,512.0,22.0,14.0
4089,514,12,1,4093.0,4085.0,502.0,507.0,14.0,22.0
4076,520,8,1,4089.0,4093.0,514.0,502.0,12.0,14.0
4060,514,8,1,4076.0,4089.0,520.0,514.0,8.0,12.0
4055,512,9,1,4060.0,4076.0,514.0,520.0,8.0,8.0
4053,510,12,1,4055.0,4060.0,512.0,514.0,9.0,8.0
4057,511,8,1,4053.0,4055.0,510.0,512.0,12.0,9.0
4065,502,5,1,4057.0,4053.0,511.0,510.0,8.0,12.0
4065,502,5,1,4065.0,4057.0,502.0,511.0,5.0,8.0
4067,501,2,1,4065.0,4065.0,502.0,502.0,5.0,5.0
4067,501,3,1,4067.0,4065.0,501.0,502.0,2.0,5.0
4072,498,3,1,4067.0,4067.0,501.0,501.0,3.0,2.0
4073,493,2,1,4072.0,4067.0,498.0,501.0,3.0,3.0
4072,488,4,1,4073.0,4072.0,493.0,498.0,2.0,3.0
4068,484,3,1,4072.0,4073.0,488.0,493.0,4.0,2.0
4069,490,2,1,4068.0,4072.0,484.0,488.0,3.0,4.0
4075,495,4,1,4069.0,4068.0,490.0,484.0,2.0,3.0
4080,495,4,1,4075.0,4069.0,495.0,490.0,4.0,2.0
4087,495,4,1,4080.0,4075.0,495.0,495.0,4.0,4.0
4092,498,3,1,4087.0,4080.0,495.0,495.0,4.0,4.0
4088,506,3,1,4092.0,4087.0,498.0,495.0,3.0,4.0
4083,517,6,1,4088.0,4092.0,506.0,498.0,3.0,3.0
4079,518,8,1,4083.0,4088.0,517.0,506.0,6.0,3.0
4079,505,5,1,4079.0,4083.0,518.0,517.0,8.0,6.0
4078,493,-1,1,4079.0,4079.0,505.0,518.0,5.0,8.0
4074,489,-10,1,4078.0,4079.0,493.0,505.0,-1.0,5.0
4072,497,-10,1,4074.0,4078.0,489.0,493.0,-10.0,-1.0
4073,508,-6,1,4072.0,4074.0,497.0,489.0,-10.0,-10.0
4070,515,-2,1,4073.0,4072.0,508.0,497.0,-6.0,-10.0
4063,520,3,1,4070.0,4073.0,515.0,508.0,-2.0,-6.0
4056,519,11,1,4063.0,4070.0,520.0,515.0,3.0,-2.0
4056,516,18,1,4056.0,4063.0,519.0,520.0,11.0,3.0
4065,506,12,1,4056.0,4056.0,516.0,519.0,18.0,11.0
4080,503,9,1,4065.0,4056.0,506.0,516.0,12.0,18.0
4087,512,6,1,4080.0,4065.0,503.0,506.0,9.0,12.0
4081,516,-1,1,4087.0,4080.0,512.0,503.0,6.0,9.0
4076,508,-9,1,4081.0,4087.0,516.0,512.0,-1.0,6.0
4064,510,-5,1,4076.0,4081.0,508.0,516.0,-9.0,-1.0
4042,508,-7,1,4064.0,4076.0,510.0,508.0,-5.0,-9.0
4043,504,1,1,4042.0,4064.0,508.0,510.0,-7.0,-5.0
4048,495,5,1,4043.0,4042.0,504.0,508.0,1.0,-7.0
4060,492,7,1,4048.0,4043.0,495.0,504.0,5.0,1.0
4071,489,6,1,4060.0,4048.0,492.0,495.0,7.0,5.0
4078,486,6,1,4071.0,4060.0,489.0,492.0,6.0,7.0
4083,484,8,1,4078.0,4071.0,486.0,489.0,6.0,6.0
4083,489,10,1,4083.0,4078.0,484.0,486.0,8.0,6.0
4083,495,18,1,4083.0,4083.0,489.0,484.0,10.0,8.0
4085,497,23,1,4083.0,4083.0,495.0,489.0,18.0,10.0
4088,500,24,1,4085.0,4083.0,497.0,495.0,23.0,18.0
4091,495,23,1,4088.0,4085.0,500.0,497.0,24.0,23.0
4088,503,31,1,4091.0,4088.0,495.0,500.0,23.0,24.0
4086,501,23,1,4088.0,4091.0,503.0,495.0,31.0,23.0
4083,495,23,1,4086.0,4088.0,501.0,503.0,23.0,31.0
4085,493,19,1,4083.0,4086.0,495.0,501.0,23.0,23.0
4086,492,18,1,4085.0,4083.0,493.0,495.0,19.0,23.0
4086,489,16,1,4086.0,4085.0,492.0,493.0,18.0,19.0
4087,490,17,1,4086.0,4086.0,489.0,492.0,16.0,18.0
4086,487,17,1,4087.0,4086.0,490.0,489.0,17.0,16.0
4082,483,17,1,4086.0,4087.0,487.0,490.0,17.0,17.0
4083,485,14,1,4082.0,4086.0,483.0,487.0,17.0,17.0
4082,484,13,1,4083.0,4082.0,485.0,483.0,14.0,17.0
4080,484,10,1,4082.0,4083.0,484.0,485.0,13.0,14.0
4077,490,5,1,4080.0,4082.0,484.0,484.0,10.0,13.0
4076,488,4,1,4077.0,4080.0,490.0,484.0,5.0,10.0
4076,492,3,1,4076.0,4077.0,488.0,490.0,4.0,5.0
4078,494,4,1,4076.0,4076.0,492.0,488.0,3.0,4.0
4080,497,6,1,4078.0,4076.0,494.0,492.0,4.0,3.0
4080,500,11,1,4080.0,4078.0,497.0,494.0,6.0,4.0
4080,503,14,1,4080.0,4080.0,500.0,497.0,11.0,6.0
4079,510,16,1,4080.0,4080.0,503.0,500.0,14.0,11.0
4081,509,18,1,4079.0,4080.0,510.0,503.0,16.0,14.0
4080,508,16,1,4081.0,4079.0,509.0,510.0,18.0,16.0
4079,511,13,1,4080.0,4081.0,508.0,509.0,16.0,18.0
4071,512,14,1,4079.0,4080.0,511.0,508.0,13.0,16.0
4069,515,11,1,4071.0,4079.0,512.0,511.0,14.0,13.0
4069,518,8,1,4069.0,4071.0,515.0,512.0,11.0,14.0
4060,518,6,1,4069.0,4069.0,518.0,515.0,8.0,11.0
4056,516,1,1,4060.0,4069.0,518.0,518.0,6.0,8.0
4056,514,1,1,4056.0,4060.0,516.0,518.0,1.0,6.0
4062,510,0,1,4056.0,4056.0,514.0,516.0,1.0,1.0
4066,510,2,1,4062.0,4056.0,510.0,514.0,0.0,1.0
4065,505,2,1,4066.0,4062.0,510.0,510.0,2.0,0.0
4067,500,3,1,4065.0,4066.0,505.0,510.0,2.0,2.0
4065,496,4,1,4067.0,4065.0,500.0,505.0,3.0,2.0
4068,488,6,1,4065.0,4067.0,496.0,500.0,4.0,3.0
4075,483,12,1,4068.0,4065.0,488.0,496.0,6.0,4.0
4080,482,14,1,4075.0,4068.0,483.0,488.0,12.0,6.0
4085,482,16,1,4080.0,4075.0,482.0,483.0,14.0,12.0
4087,478,18,1,4085.0,4080.0,482.0,482.0,16.0,14.0
4089,478,16,1,4087.0,4085.0,478.0,482.0,18.0,16.0
4092,477,22,1,4089.0,4087.0,478.0,478.0,16.0,18.0
4090,478,23,1,4092.0,4089.0,477.0,478.0,22.0,16.0
4089,481,21,1,4090.0,4092.0,478.0,477.0,23.0,22.0
4091,480,18,1,4089.0,4090.0,481.0,478.0,21.0,23.0
4092,483,16,1,4091.0,4089.0,480.0,481.0,18.0,21.0
4092,484,11,1,4092.0,4091.0,483.0,480.0,16.0,18.0
4088,483,13,1,4092.0,4092.0,484.0,483.0,11.0,16.0
4083,484,10,1,4088.0,4092.0,483.0,484.0,13.0,11.0
4081,485,8,1,4083.0,4088.0,484.0,483.0,10.0,13.0
4080,483,7,1,4081.0,4083.0,485.0,484.0,8.0,10.0
4079,484,8,1,4080.0,4081.0,483.0,485.0,7.0,8.0
4081,483,9,1,4079.0,4080.0,484.0,483.0,8.0,7.0
4080,486,9,1,4081.0,4079.0,483.0,484.0,9.0,8.0
4079,487,11,1,4080.0,4081.0,486.0,483.0,9.0,9.0
4074,489,9,1,4079.0,4080.0,487.0,486.0,11.0,9.0
4074,492,8,1,4074.0,4079.0,489.0,487.0,9.0,11.0
4073,500,11,1,4074.0,4074.0,492.0,489.0,8.0,9.0
4072,499,11,1,4073.0,4074.0,500.0,492.0,11.0,8.0
4076,499,9,1,4072.0,4073.0,499.0,500.0,11.0,11.0
4073,500,11,1,4076.0,4072.0,499.0,499.0,9.0,11.0
4076,497,13,1,4073.0,4076.0,500.0,499.0,11.0,9.0
4077,498,14,1,4076.0,4073.0,497.0,500.0,13.0,11.0
4077,499,16,1,4077.0,4076.0,498.0,497.0,14.0,13.0
4075,497,18,1,4077.0,4077.0,499.0,498.0,16.0,14.0
4079,497,18,1,4075.0,4077.0,497.0,499.0,18.0,16.0
4080,498,15,1,4079.0,4075.0,497.0,497.0,18.0,18.0
4080,499,12,1,4080.0,4079.0,498.0,497.0,15.0,18.0
4080,497,12,1,4080.0,4080.0,499.0,498.0,12.0,15.0
4077,500,10,1,4080.0,4080.0,497.0,499.0,12.0,12.0
4074,504,7,1,4077.0,4080.0,500.0,497.0,10.0,12.0
4072,505,4,1,4074.0,4077.0,504.0,500.0,7.0,10.0
4068,508,5,1,4072.0,4074.0,505.0,504.0,4.0,7.0
4068,510,8,1,4068.0,4072.0,508.0,505.0,5.0,4.0
4069,508,9,1,4068.0,4068.0,510.0,508.0,8.0,5.0
4072,505,5,1,4069.0,4068.0,508.0,510.0,9.0,8.0
4074,503,6,1,4072.0,4069.0,505.0,508.0,5.0,9.0
4076,502,8,1,4074.0,4072.0,503.0,505.0,6.0,5.0
4079,504,7,1,4076.0,4074.0,502.0,503.0,8.0,6.0
4080,503,8,1,4079.0,4076.0,504.0,502.0,7.0,8.0
4079,500,15,1,4080.0,4079.0,503.0,504.0,8.0,7.0
4080,496,20,1,4079.0,4080.0,500.0,503.0,15.0,8.0
4081,495,23,1,4080.0,4079.0,496.0,500.0,20.0,15.0
4080,493,22,1,4081.0,4080.0,495.0,496.0,23.0,20.0
4073,494,20,1,4080.0,4081.0,493.0,495.0,22.0,23.0
4071,498,15,1,4073.0,4080.0,494.0,493.0,20.0,22.0
4070,498,15,1,4071.0,4073.0,498.0,494.0,15.0,20.0
4071,497,17,1,4070.0,4071.0,498.0,498.0,15.0,15.0
4072,496,26,1,4071.0,4070.0,497.0,498.0,17.0,15.0
4076,491,23,1,4072.0,4071.0,496.0,497.0,26.0,17.0
4074,486,21,1,4076.0,4072.0,491.0,496.0,23.0,26.0
4074,479,16,1,4074.0,4076.0,486.0,491.0,21.0,23.0
4068,480,12,1,4074.0,4074.0,479.0,486.0,16.0,21.0
4068,478,10,1,4068.0,4074.0,480.0,479.0,12.0,16.0
4070,475,8,1,4068.0,4068.0,478.0,480.0,10.0,12.0
4070,471,7,1,4070.0,4068.0,475.0,478.0,8.0,10.0
4070,471,4,1,4070.0,4070.0,471.0,475.0,7.0,8.0
4072,467,1,1,4070.0,4070.0,471.0,471.0,4.0,7.0
4071,464,0,1,4072.0,4070.0,467.0,471.0,1.0,4.0
4066,471,-4,1,4071.0,4072.0,464.0,467.0,0.0,1.0
4060,473,-1,1,4066.0,4071.0,471.0,464.0,-4.0,0.0
4061,471,2,1,4060.0,4066.0,473.0,471.0,-1.0,-4.0
4065,466,9,1,4061.0,4060.0,471.0,473.0,2.0,-1.0
4072,462,20,1,4065.0,4061.0,466.0,471.0,9.0,2.0
4082,465,30,1,4072.0,4065.0,462.0,466.0,20.0,9.0
4091,464,32,1,4082.0,4072.0,465.0,462.0,30.0,20.0
4095,468,29,1,4091.0,4082.0,464.0,465.0,32.0,30.0
4094,474,26,1,4095.0,4091.0,468.0,464.0,29.0,32.0
4084,485,21,1,4094.0,4095.0,474.0,468.0,26.0,29.0
4066,496,21,1,4084.0,4094.0,485.0,474.0,21.0,26.0
4083,467,30,1,4066.0,4084.0,496.0,485.0,21.0,21.0
4092,453,42,1,4083.0,4066.0,467.0,496.0,30.0,21.0
4096,459,45,1,4092.0,4083.0,453.0,467.0,42.0,30.0
4097,464,43,1,4096.0,4092.0,459.0,453.0,45.0,42.0
4094,456,35,1,4097.0,4096.0,464.0,459.0,43.0,45.0
4086,451,28,1,4094.0,4097.0,456.0,464.0,35.0,43.0
4078,451,27,1,4086.0,4094.0,451.0,456.0,28.0,35.0
4076,451,28,1,4078.0,4086.0,451.0,451.0,27.0,28.0
4075,448,27,1,4076.0,4078.0,451.0,451.0,28.0,27.0
4067,442,24,1,4075.0,4076.0,448.0,451.0,27.0,28.0
4059,452,18,1,4067.0,4075.0,442.0,448.0,24.0,27.0
4053,463,11,1,4059.0,4067.0,452.0,442.0,18.0,24.0
4049,473,7,1,4053.0,4059.0,463.0,452.0,11.0,18.0
4051,483,5,1,4049.0,4053.0,473.0,463.0,7.0,11.0
4057,488,6,1,4051.0,4049.0,483.0,473.0,5.0,7.0
4056,493,7,1,4057.0,4051.0,488.0,483.0,6.0,5.0
4057,502,5,1,4056.0,4057.0,493.0,488.0,7.0,6.0
4061,508,5,1,4057.0,4056.0,502.0,493.0,5.0,7.0
4063,513,6,1,4061.0,4057.0,508.0,502.0,5.0,5.0
4062,517,9,1,4063.0,4061.0,513.0,508.0,6.0,5.0
4067,513,6,1,4062.0,4063.0,517.0,513.0,9.0,6.0
4069,513,6,1,4067.0,4062.0,513.0,517.0,6.0,9.0
4070,512,6,1,4069.0,4067.0,513.0,513.0,6.0,6.0
4071,513,6,1,4070.0,4069.0,512.0,513.0,6.0,6.0
4071,511,7,1,4071.0,4070.0,513.0,512.0,6.0,6.0
4069,509,6,1,4071.0,4071.0,511.0,513.0,7.0,6.0
4070,511,6,1,4069.0,4071.0,509.0,511.0,6.0,7.0
4067,512,6,1,4070.0,4069.0,511.0,509.0,6.0,6.0
4067,511,9,1,4067.0,4070.0,512.0,511.0,6.0,6.0
4066,508,11,1,4067.0,4067.0,511.0,512.0,9.0,6.0
4066,508,13,1,4066.0,4067.0,508.0,511.0,11.0,9.0
4069,510,18,1,4066.0,4066.0,508.0,508.0,13.0,11.0
4071,511,21,1,4069.0,4066.0,510.0,508.0,18.0,13.0
4071,509,25,1,4071.0,4069.0,511.0,510.0,21.0,18.0
4069,510,28,1,4071.0,4071.0,509.0,511.0,25.0,21.0
4071,509,28,1,4069.0,4071.0,510.0,509.0,28.0,25.0
4069,511,32,1,4071.0,4069.0,509.0,510.0,28.0,28.0
4062,513,30,1,4069.0,4071.0,511.0,509.0,32.0,28.0
4063,510,31,1,4062.0,4069.0,513.0,511.0,30.0,32.0
4065,513,25,1,4063.0,4062.0,510.0,513.0,31.0,30.0
4061,515,21,1,4065.0,4063.0,513.0,510.0,25.0,31.0
4057,517,22,1,4061.0,4065.0,515.0,513.0,21.0,25.0
4059,518,24,1,4057.0,4061.0,517.0,515.0,22.0,21.0
4057,517,23,1,4059.0,4057.0,518.0,517.0,24.0,22.0
4056,512,25,1,4057.0,4059.0,517.0,518.0,23.0,24.0
4054,511,28,1,4056.0,4057.0,512.0,517.0,25.0,23.0
4051,513,29,1,4054.0,4056.0,511.0,512.0,28.0,25.0
4053,515,27,1,4051.0,4054.0,513.0,511.0,29.0,28.0
4053,519,27,1,4053.0,4051.0,515.0,513.0,27.0,29.0
4056,520,23,1,4053.0,4053.0,519.0,515.0,27.0,27.0
4062,525,20,1,4056.0,4053.0,520.0,519.0,23.0,27.0
4066,527,17,1,4062.0,4056.0,525.0,520.0,20.0,23.0
4071,528,18,1,4066.0,4062.0,527.0,525.0,17.0,20.0
4070,535,14,1,4071.0,4066.0,528.0,527.0,18.0,17.0
4069,538,11,1,4070.0,4071.0,535.0,528.0,14.0,18.0
4066,539,8,1,4069.0,4070.0,538.0,535.0,11.0,14.0
4066,540,7,1,4066.0,4069.0,539.0,538.0,8.0,11.0
4064,541,7,1,4066.0,4066.0,540.0,539.0,7.0,8.0
4062,543,7,1,4064.0,4066.0,541.0,540.0,7.0,7.0
4057,543,10,1,4062.0,4064.0,543.0,541.0,7.0,7.0
4054,539,12,1,4057.0,4062.0,543.0,543.0,10.0,7.0
4056,540,18,1,4054.0,4057.0,539.0,543.0,12.0,10.0
4062,531,15,1,4056.0,4054.0,540.0,539.0,18.0,12.0
4069,531,18,1,4062.0,4056.0,531.0,540.0,15.0,18.0
4068,529,15,1,4069.0,4062.0,531.0,531.0,18.0,15.0
4063,525,18,1,4068.0,4069.0,529.0,531.0,15.0,18.0
4064,521,18,1,4063.0,4068.0,525.0,529.0,18.0,15.0
4063,517,20,1,4064.0,4063.0,521.0,525.0,18.0,18.0
4065,515,21,1,4063.0,4064.0,517.0,521.0,20.0,18.0
4069,516,27,1,4065.0,4063.0,515.0,517.0,21.0,20.0
4070,525,27,1,4069.0,4065.0,516.0,515.0,27.0,21.0
4068,515,24,1,4070.0,4069.0,525.0,516.0,27.0,27.0
4070,515,24,1,4068.0,4070.0,515.0,525.0,24.0,27.0
4073,508,18,1,4070.0,4068.0,515.0,515.0,24.0,24.0
4072,501,18,1,4073.0,4070.0,508.0,515.0,18.0,24.0
4076,500,19,1,4072.0,4073.0,501.0,508.0,18.0,18.0
4075,489,20,1,4076.0,4072.0,500.0,501.0,19.0,18.0
4075,476,22,1,4075.0,4076.0,489.0,500.0,20.0,19.0
4076,467,21,1,4075.0,4075.0,476.0,489.0,22.0,20.0
4076,455,16,1,4076.0,4075.0,467.0,476.0,21.0,22.0
4077,449,15,1,4076.0,4076.0,455.0,467.0,16.0,21.0
4077,442,12,1,4077.0,4076.0,449.0,455.0,15.0,16.0
4079,434,11,1,4077.0,4077.0,442.0,449.0,12.0,15.0
4079,428,13,1,4079.0,4077.0,434.0,442.0,11.0,12.0
4078,427,16,1,4079.0,4079.0,428.0,434.0,13.0,11.0
4073,427,20,1,4078.0,4079.0,427.0,428.0,16.0,13.0
4068,423,20,1,4073.0,4078.0,427.0,427.0,20.0,16.0
4063,427,25,1,4068.0,4073.0,423.0,427.0,20.0,20.0
4056,428,30,1,4063.0,4068.0,427.0,423.0,25.0,20.0
4048,441,36,1,4056.0,4063.0,428.0,427.0,30.0,25.0
4045,455,36,1,4048.0,4056.0,441.0,428.0,36.0,30.0
4043,465,33,1,4045.0,4048.0,455.0,441.0,36.0,36.0
4049,478,30,1,4043.0,4045.0,465.0,455.0,33.0,36.0
4051,495,37,1,4049.0,4043.0,478.0,465.0,30.0,33.0
4064,501,40,1,4051.0,4049.0,495.0,478.0,37.0,30.0
4078,507,48,1,4064.0,4051.0,501.0,495.0,40.0,37.0
4082,497,49,1,4078.0,4064.0,507.0,501.0,48.0,40.0
4081,489,44,1,4082.0,4078.0,497.0,507.0,49.0,48.0
4078,490,42,1,4081.0,4082.0,489.0,497.0,44.0,49.0
4075,492,32,1,4078.0,4081.0,490.0,489.0,42.0,44.0
4074,491,27,1,4075.0,4078.0,492.0,490.0,32.0,42.0
4072,485,17,1,4074.0,4075.0,491.0,492.0,27.0,32.0
4074,476,9,1,4072.0,4074.0,485.0,491.0,17.0,27.0
4076,472,-2,1,4074.0,4072.0,476.0,485.0,9.0,17.0
4080,469,-8,1,4076.0,4074.0,472.0,476.0,-2.0,9.0
4087,466,-14,1,4080.0,4076.0,469.0,472.0,-8.0,-2.0
4092,457,-12,1,4087.0,4080.0,466.0,469.0,-14.0,-8.0
4094,450,-9,1,4092.0,4087.0,457.0,466.0,-12.0,-14.0
4091,451,-2,1,4094.0,4092.0,450.0,457.0,-9.0,-12.0
4096,452,8,1,4091.0,4094.0,451.0,450.0,-2.0,-9.0
4098,451,20,1,4096.0,4091.0,452.0,451.0,8.0,-2.0
4100,450,35,1,4098.0,4096.0,451.0,452.0,20.0,8.0
4100,457,30,1,4100.0,4098.0,450.0,451.0,35.0,20.0
4098,469,23,1,4100.0,4100.0,457.0,450.0,30.0,35.0
4090,471,14,1,4098.0,4100.0,469.0,457.0,23.0,30.0
4085,479,7,1,4090.0,4098.0,471.0,469.0,14.0,23.0
4081,480,5,1,4085.0,4090.0,479.0,471.0,7.0,14.0
4076,473,9,1,4081.0,4085.0,480.0,479.0,5.0,7.0
4072,464,14,1,4076.0,4081.0,473.0,480.0,9.0,5.0
4069,462,18,1,4072.0,4076.0,464.0,473.0,14.0,9.0
4066,475,18,1,4069.0,4072.0,462.0,464.0,18.0,14.0
4058,480,20,1,4066.0,4069.0,475.0,462.0,18.0,18.0
4056,479,16,1,4058.0,4066.0,480.0,475.0,20.0,18.0
4051,481,12,1,4056.0,4058.0,479.0,480.0,16.0,20.0
4054,483,14,1,4051.0,4056.0,481.0,479.0,12.0,16.0
4055,486,12,1,4054.0,4051.0,483.0,481.0,14.0,12.0
4059,489,10,1,4055.0,4054.0,486.0,483.0,12.0,14.0
4059,492,7,1,4059.0,4055.0,489.0,486.0,10.0,12.0
4056,493,3,1,4059.0,4059.0,492.0,489.0,7.0,10.0
4056,498,2,1,4056.0,4059.0,493.0,492.0,3.0,7.0
4063,500,0,1,4056.0,4056.0,498.0,493.0,2.0,3.0
4070,502,-2,1,4063.0,4056.0,500.0,498.0,0.0,2.0
4081,500,0,1,4070.0,4063.0,502.0,500.0,-2.0,0.0
4080,501,-6,1,4081.0,4070.0,500.0,502.0,0.0,-2.0
4081,506,-5,1,4080.0,4081.0,501.0,500.0,-6.0,0.0
4077,500,-10,1,4081.0,4080.0,506.0,501.0,-5.0,-6.0
4076,502,-7,1,4077.0,4081.0,500.0,506.0,-10.0,-5.0
4079,501,-4,1,4076.0,4077.0,502.0,500.0,-7.0,-10.0
4083,502,-7,1,4079.0,4076.0,501.0,502.0,-4.0,-7.0
4084,507,-7,1,4083.0,4079.0,502.0,501.0,-7.0,-4.0
4082,505,-11,1,4084.0,4083.0,507.0,502.0,-7.0,-7.0
4080,504,-10,1,4082.0,4084.0,505.0,507.0,-11.0,-7.0
4080,506,-12,1,4080.0,4082.0,504.0,505.0,-10.0,-11.0
4080,507,-12,1,4080.0,4080.0,506.0,504.0,-12.0,-10.0
4078,515,-8,1,4080.0,4080.0,507.0,506.0,-12.0,-12.0
4078,509,-8,1,4078.0,4080.0,515.0,507.0,-8.0,-12.0
4081,515,-5,1,4078.0,4078.0,509.0,515.0,-8.0,-8.0
4079,514,-10,1,4081.0,4078.0,515.0,509.0,-5.0,-8.0
4081,512,-6,1,4079.0,4081.0,514.0,515.0,-10.0,-5.0
4085,508,-4,1,4081.0,4079.0,512.0,514.0,-6.0,-10.0
4079,504,-2,1,4085.0,4081.0,508.0,512.0,-4.0,-6.0
4072,508,-3,1,4079.0,4085.0,504.0,508.0,-2.0,-4.0
4070,506,-4,1,4072.0,4079.0,508.0,504.0,-3.0,-2.0
4068,507,-3,1,4070.0,4072.0,506.0,508.0,-4.0,-3.0
4062,503,-4,1,4068.0,4070.0,507.0,506.0,-3.0,-4.0
4070,503,-7,1,4062.0,4068.0,503.0,507.0,-4.0,-3.0
4069,498,-9,1,4070.0,4062.0,503.0,503.0,-7.0,-4.0
4067,492,-14,1,4069.0,4070.0,498.0,503.0,-9.0,-7.0
4067,490,-12,1,4067.0,4069.0,492.0,498.0,-14.0,-9.0
4067,484,-12,1,4067.0,4067.0,490.0,492.0,-12.0,-14.0
4068,484,-15,1,4067.0,4067.0,484.0,490.0,-12.0,-12.0
4069,481,-16,1,4068.0,4067.0,484.0,484.0,-15.0,-12.0
4070,480,-17,1,4069.0,4068.0,481.0,484.0,-16.0,-15.0
4071,482,-15,1,4070.0,4069.0,480.0,481.0,-17.0,-16.0
4078,485,-15,1,4071.0,4070.0,482.0,480.0,-15.0,-17.0
4082,484,-18,1,4078.0,4071.0,485.0,482.0,-15.0,-15.0
4085,490,-19,1,4082.0,4078.0,484.0,485.0,-18.0,-15.0
4084,493,-23,1,4085.0,4082.0,490.0,484.0,-19.0,-18.0
4087,494,-23,1,4084.0,4085.0,493.0,490.0,-23.0,-19.0
4083,491,-24,1,4087.0,4084.0,494.0,493.0,-23.0,-23.0
4081,495,-25,1,4083.0,4087.0,491.0,494.0,-24.0,-23.0
4079,505,-27,1,4081.0,4083.0,495.0,491.0,-25.0,-24.0
4081,506,-25,1,4079.0,4081.0,505.0,495.0,-27.0,-25.0
4083,509,-24,1,4081.0,4079.0,506.0,505.0,-25.0,-27.0
4084,511,-27,1,4083.0,4081.0,509.0,506.0,-24.0,-25.0
4090,512,-23,1,4084.0,4083.0,511.0,509.0,-27.0,-24.0
4085,504,-28,1,4090.0,4084.0,512.0,511.0,-23.0,-27.0
4069,508,-37,1,4085.0,4090.0,504.0,512.0,-28.0,-23.0
4060,511,-36,1,4069.0,4085.0,508.0,504.0,-37.0,-28.0
4053,512,-36,1,4060.0,4069.0,511.0,508.0,-36.0,-37.0
4054,510,-28,1,4053.0,4060.0,512.0,511.0,-36.0,-36.0
4062,509,-24,1,4054.0,4053.0,510.0,512.0,-28.0,-36.0
4066,510,-27,1,4062.0,4054.0,509.0,510.0,-24.0,-28.0
4083,506,-19,1,4066.0,4062.0,510.0,509.0,-27.0,-24.0
4084,503,-25,1,4083.0,4066.0,506.0,510.0,-19.0,-27.0
4077,497,-26,1,4084.0,4083.0,503.0,506.0,-25.0,-19.0
4077,500,-25,1,4077.0,4084.0,497.0,503.0,-26.0,-25.0
4076,495,-29,1,4077.0,4077.0,500.0,497.0,-25.0,-26.0
4063,492,-36,1,4076.0,4077.0,495.0,500.0,-29.0,-25.0
4060,490,-37,1,4063.0,4076.0,492.0,495.0,-36.0,-29.0
4067,492,-32,1,4060.0,4063.0,490.0,492.0,-37.0,-36.0
4071,487,-33,1,4067.0,4060.0,492.0,490.0,-32.0,-37.0
4075,487,-30,1,4071.0,4067.0,487.0,492.0,-33.0,-32.0
4080,491,-29,1,4075.0,4071.0,487.0,487.0,-30.0,-33.0
4089,486,-29,1,4080.0,4075.0,491.0,487.0,-29.0,-30.0
4086,488,-33,1,4089.0,4080.0,486.0,491.0,-29.0,-29.0
4088,486,-31,1,4086.0,4089.0,488.0,486.0,-33.0,-29.0
4095,485,-26,1,4088.0,4086.0,486.0,488.0,-31.0,-33.0
4085,486,-30,1,4095.0,4088.0,485.0,486.0,-26.0,-31.0
4080,485,-32,1,4085.0,4095.0,486.0,485.0,-30.0,-26.0
4074,482,-35,1,4080.0,4085.0,485.0,486.0,-32.0,-30.0
4073,478,-34,1,4074.0,4080.0,482.0,485.0,-35.0,-32.0
4068,485,-39,1,4073.0,4074.0,478.0,482.0,-34.0,-35.0
4055,484,-48,1,4068.0,4073.0,485.0,478.0,-39.0,-34.0
4040,481,-50,1,4055.0,4068.0,484.0,485.0,-48.0,-39.0
4037,486,-38,1,4040.0,4055.0,481.0,484.0,-50.0,-48.0
4038,485,-38,1,4037.0,4040.0,486.0,481.0,-38.0,-50.0
4047,487,-33,1,4038.0,4037.0,485.0,486.0,-38.0,-38.0
4067,487,-21,1,4047.0,4038.0,487.0,485.0,-33.0,-38.0
4080,490,-17,1,4067.0,4047.0,487.0,487.0,-21.0,-33.0
4084,492,-17,1,4080.0,4067.0,490.0,487.0,-17.0,-21.0
4088,503,-18,1,4084.0,4080.0,492.0,490.0,-17.0,-17.0
4092,492,-22,1,4088.0,4084.0,503.0,492.0,-18.0,-17.0
4096,498,-23,1,4092.0,4088.0,492.0,503.0,-22.0,-18.0
4097,503,-33,1,4096.0,4092.0,498.0,492.0,-23.0,-22.0
4096,506,-45,1,4097.0,4096.0,503.0,498.0,-33.0,-23.0
4079,507,-61,1,4096.0,4097.0,506.0,503.0,-45.0,-33.0
4075,509,-59,1,4079.0,4096.0,507.0,506.0,-61.0,-45.0
4080,515,-57,1,4075.0,4079.0,509.0,507.0,-59.0,-61.0
4082,510,-59,1,4080.0,4075.0,515.0,509.0,-57.0,-59.0
4063,510,-61,1,4082.0,4080.0,510.0,515.0,-59.0,-57.0
4056,499,-59,1,4063.0,4082.0,510.0,510.0,-61.0,-59.0
4058,501,-38,1,4056.0,4063.0,499.0,510.0,-59.0,-61.0
4064,497,-19,1,4058.0,4056.0,501.0,499.0,-38.0,-59.0
4082,487,-17,1,4064.0,4058.0,497.0,501.0,-19.0,-38.0
4087,492,-29,1,4082.0,4064.0,487.0,497.0,-17.0,-19.0
4079,491,-42,1,4087.0,4082.0,492.0,487.0,-29.0,-17.0
4088,495,-38,1,4079.0,4087.0,491.0,492.0,-42.0,-29.0
4082,488,-44,1,4088.0,4079.0,495.0,491.0,-38.0,-42.0
4063,484,-45,1,4082.0,4088.0,488.0,495.0,-44.0,-38.0
4053,478,-36,1,4063.0,4082.0,484.0,488.0,-45.0,-44.0
4050,468,-28,1,4053.0,4063.0,478.0,484.0,-36.0,-45.0
4056,465,-22,1,4050.0,4053.0,468.0,478.0,-28.0,-36.0
4062,470,-17,1,4056.0,4050.0,465.0,468.0,-22.0,-28.0
4068,475,-18,1,4062.0,4056.0,470.0,465.0,-17.0,-22.0
4077,473,-26,1,4068.0,4062.0,475.0,470.0,-18.0,-17.0
4074,486,-27,1,4077.0,4068.0,473.0,475.0,-26.0,-18.0
4076,495,-26,1,4074.0,4077.0,486.0,473.0,-27.0,-26.0
4076,495,-22,1,4076.0,4074.0,495.0,486.0,-26.0,-27.0
4079,497,-20,1,4076.0,4076.0,495.0,495.0,-22.0,-26.0
4075,498,-22,1,4079.0,4076.0,497.0,495.0,-20.0,-22.0
4071,498,-29,1,4075.0,4079.0,498.0,497.0,-22.0,-20.0
4068,493,-36,1,4071.0,4075.0,498.0,498.0,-29.0,-22.0
4066,494,-39,1,4068.0,4071.0,493.0,498.0,-36.0,-29.0
4074,497,-32,1,4066.0,4068.0,494.0,493.0,-39.0,-36.0
4084,491,-34,1,4074.0,4066.0,497.0,494.0,-32.0,-39.0
4114,491,-15,1,4084.0,4074.0,491.0,497.0,-34.0,-32.0
4108,496,-22,1,4114.0,4084.0,491.0,491.0,-15.0,-34.0
4088,501,-33,1,4108.0,4114.0,496.0,491.0,-22.0,-15.0
4064,499,-37,1,4088.0,4108.0,501.0,496.0,-33.0,-22.0
4057,510,-24,1,4064.0,4088.0,499.0,501.0,-37.0,-33.0
4058,505,-29,1,4057.0,4064.0,510.0,499.0,-24.0,-37.0
4057,508,-31,1,4058.0,4057.0,505.0,510.0,-29.0,-24.0
4054,510,-31,1,4057.0,4058.0,508.0,505.0,-31.0,-29.0
4058,519,-33,1,4054.0,4057.0,510.0,508.0,-31.0,-31.0
4067,522,-35,1,4058.0,4054.0,519.0,510.0,-33.0,-31.0
4079,525,-30,1,4067.0,4058.0,522.0,519.0,-35.0,-33.0
4077,523,-42,1,4079.0,4067.0,525.0,522.0,-30.0,-35.0
4075,527,-46,1,4077.0,4079.0,523.0,525.0,-42.0,-30.0
4070,520,-53,1,4075.0,4077.0,527.0,523.0,-46.0,-42.0
4064,522,-50,1,4070.0,4075.0,520.0,527.0,-53.0,-46.0
4066,525,-41,1,4064.0,4070.0,522.0,520.0,-50.0,-53.0
4118,527,-13,1,4066.0,4064.0,525.0,522.0,-41.0,-50.0
4129,525,-33,1,4118.0,4066.0,527.0,525.0,-13.0,-41.0
4115,528,-40,1,4129.0,4118.0,525.0,527.0,-33.0,-13.0
4094,519,-43,1,4115.0,4129.0,528.0,525.0,-40.0,-33.0
4072,519,-34,1,4094.0,4115.0,519.0,528.0,-43.0,-40.0
4055,517,-33,1,4072.0,4094.0,519.0,519.0,-34.0,-43.0
4046,513,-34,1,4055.0,4072.0,517.0,519.0,-33.0,-34.0
4043,511,-33,1,4046.0,4055.0,513.0,517.0,-34.0,-33.0
4042,503,-39,1,4043.0,4046.0,511.0,513.0,-33.0,-34.0
4051,500,-33,1,4042.0,4043.0,503.0,511.0,-39.0,-33.0
4062,492,-28,1,4051.0,4042.0,500.0,503.0,-33.0,-39.0
4082,492,-19,1,4062.0,4051.0,492.0,500.0,-28.0,-33.0
4091,490,-25,1,4082.0,4062.0,492.0,492.0,-19.0,-28.0
4089,497,-24,1,4091.0,4082.0,490.0,492.0,-25.0,-19.0
4083,496,-30,1,4089.0,4091.0,497.0,490.0,-24.0,-25.0
4076,490,-40,1,4083.0,4089.0,496.0,497.0,-30.0,-24.0
4065,496,-43,1,4076.0,4083.0,490.0,496.0,-40.0,-30.0
4064,498,-44,1,4065.0,4076.0,496.0,490.0,-43.0,-40.0
4066,498,-42,1,4064.0,4065.0,498.0,496.0,-44.0,-43.0
4069,500,-41,1,4066.0,4064.0,498.0,498.0,-42.0,-44.0
4069,506,-42,1,4069.0,4066.0,500.0,498.0,-41.0,-42.0
4077,509,-35,1,4069.0,4069.0,506.0,500.0,-42.0,-41.0
4087,508,-31,1,4077.0,4069.0,509.0,506.0,-35.0,-42.0
4069,507,-44,1,4087.0,4077.0,508.0,509.0,-31.0,-35.0
4058,508,-46,1,4069.0,4087.0,507.0,508.0,-44.0,-31.0
4060,513,-39,1,4058.0,4069.0,508.0,507.0,-46.0,-44.0
4063,506,-38,1,4060.0,4058.0,513.0,508.0,-39.0,-46.0
4066,508,-37,1,4063.0,4060.0,506.0,513.0,-38.0,-39.0
4065,512,-37,1,4066.0,4063.0,508.0,506.0,-37.0,-38.0
4068,515,-30,1,4065.0,4066.0,512.0,508.0,-37.0,-37.0
4072,517,-26,1,4068.0,4065.0,515.0,512.0,-30.0,-37.0
4075,514,-32,1,4072.0,4068.0,517.0,515.0,-26.0,-30.0
4074,513,-34,1,4075.0,4072.0,514.0,517.0,-32.0,-26.0
4072,518,-34,1,4074.0,4075.0,513.0,514.0,-34.0,-32.0
4072,517,-34,1,4072.0,4074.0,518.0,513.0,-34.0,-34.0
4072,516,-34,1,4072.0,4072.0,517.0,518.0,-34.0,-34.0
4073,514,-37,1,4072.0,4072.0,516.0,517.0,-34.0,-34.0
4075,514,-36,1,4073.0,4072.0,514.0,516.0,-37.0,-34.0
4073,513,-37,1,4075.0,4073.0,514.0,514.0,-36.0,-37.0
4075,514,-36,1,4073.0,4075.0,513.0,514.0,-37.0,-36.0
4076,517,-38,1,4075.0,4073.0,514.0,513.0,-36.0,-37.0
4075,515,-44,1,4076.0,4075.0,517.0,514.0,-38.0,-36.0
4074,514,-48,1,4075.0,4076.0,515.0,517.0,-44.0,-38.0
4074,518,-50,1,4074.0,4075.0,514.0,515.0,-48.0,-44.0
4076,518,-53,1,4074.0,4074.0,518.0,514.0,-50.0,-48.0
4074,516,-54,1,4076.0,4074.0,518.0,518.0,-53.0,-50.0
4073,518,-55,1,4074.0,4076.0,516.0,518.0,-54.0,-53.0
4073,519,-56,1,4073.0,4074.0,518.0,516.0,-55.0,-54.0
4073,519,-57,1,4073.0,4073.0,519.0,518.0,-56.0,-55.0
4072,517,-58,1,4073.0,4073.0,519.0,519.0,-57.0,-56.0
4069,519,-63,1,4072.0,4073.0,517.0,519.0,-58.0,-57.0
4071,520,-66,1,4069.0,4072.0,519.0,517.0,-63.0,-58.0
4072,520,-71,1,4071.0,4069.0,520.0,519.0,-66.0,-63.0
4073,521,-71,1,4072.0,4071.0,520.0,520.0,-71.0,-66.0
4070,523,-68,1,4073.0,4072.0,521.0,520.0,-71.0,-71.0
4071,519,-69,1,4070.0,4073.0,523.0,521.0,-68.0,-71.0
4068,521,-67,1,4071.0,4070.0,519.0,523.0,-69.0,-68.0
4066,523,-65,1,4068.0,4071.0,521.0,519.0,-67.0,-69.0
4068,524,-62,1,4066.0,4068.0,523.0,521.0,-65.0,-67.0
4075,525,-63,1,4068.0,4066.0,524.0,523.0,-62.0,-65.0
4076,531,-62,1,4075.0,4068.0,525.0,524.0,-63.0,-62.0
4079,531,-64,1,4076.0,4075.0,531.0,525.0,-62.0,-63.0
4081,534,-66,1,4079.0,4076.0,531.0,531.0,-64.0,-62.0
4079,536,-74,1,4081.0,4079.0,534.0,531.0,-66.0,-64.0
4077,538,-81,1,4079.0,4081.0,536.0,534.0,-74.0,-66.0
4075,540,-83,1,4077.0,4079.0,538.0,536.0,-81.0,-74.0
4077,539,-86,1,4075.0,4077.0,540.0,538.0,-83.0,-81.0
4078,541,-92,1,4077.0,4075.0,539.0,540.0,-86.0,-83.0
4088,543,-92,1,4078.0,4077.0,541.0,539.0,-92.0,-86.0
4094,546,-98,1,4088.0,4078.0,543.0,541.0,-92.0,-92.0
4087,545,-99,1,4094.0,4088.0,546.0,543.0,-98.0,-92.0
4091,541,-91,1,4087.0,4094.0,545.0,546.0,-99.0,-98.0
4072,535,-85,1,4091.0,4087.0,541.0,545.0,-91.0,-99.0
4057,533,-73,1,4072.0,4091.0,535.0,541.0,-85.0,-91.0
4057,532,-70,1,4057.0,4072.0,533.0,535.0,-73.0,-85.0
4066,523,-75,1,4057.0,4057.0,532.0,533.0,-70.0,-73.0
4069,523,-79,1,4066.0,4057.0,523.0,532.0,-75.0,-70.0
4071,528,-92,1,4069.0,4066.0,523.0,523.0,-79.0,-75.0
4077,523,-94,1,4071.0,4069.0,528.0,523.0,-92.0,-79.0
4088,516,-89,1,4077.0,4071.0,523.0,528.0,-94.0,-92.0
4093,511,-84,1,4088.0,4077.0,516.0,523.0,-89.0,-94.0
4085,512,-80,1,4093.0,4088.0,511.0,516.0,-84.0,-89.0
4079,509,-76,1,4085.0,4093.0,512.0,511.0,-80.0,-84.0
4086,496,-72,1,4079.0,4085.0,509.0,512.0,-76.0,-80.0
4094,482,-75,1,4086.0,4079.0,496.0,509.0,-72.0,-76.0
4089,502,-74,1,4094.0,4086.0,482.0,496.0,-75.0,-72.0
4101,505,-64,1,4089.0,4094.0,502.0,482.0,-74.0,-75.0
4191,483,-46,1,4101.0,4089.0,505.0,502.0,-64.0,-74.0
4150,505,-67,1,4191.0,4101.0,483.0,505.0,-46.0,-64.0
4081,522,-82,1,4150.0,4191.0,505.0,483.0,-67.0,-46.0
4019,527,-84,1,4081.0,4150.0,522.0,505.0,-82.0,-67.0
3989,524,-79,1,4019.0,4081.0,527.0,522.0,-84.0,-82.0
3980,521,-82,1,3989.0,4019.0,524.0,527.0,-79.0,-84.0
3991,528,-71,1,3980.0,3989.0,521.0,524.0,-82.0,-79.0
4020,531,-67,1,3991.0,3980.0,528.0,521.0,-71.0,-82.0
4046,536,-65,1,4020.0,3991.0,531.0,528.0,-67.0,-71.0
4055,535,-67,1,4046.0,4020.0,536.0,531.0,-65.0,-67.0
4059,535,-70,1,4055.0,4046.0,535.0,536.0,-67.0,-65.0
4065,538,-70,1,4059.0,4055.0,535.0,535.0,-70.0,-67.0
4071,535,-75,1,4065.0,4059.0,538.0,535.0,-70.0,-70.0
4071,533,-82,1,4071.0,4065.0,535.0,538.0,-75.0,-70.0
4072,534,-82,1,4071.0,4071.0,533.0,535.0,-82.0,-75.0
4070,536,-85,1,4072.0,4071.0,534.0,533.0,-82.0,-82.0
4070,537,-92,1,4070.0,4072.0,536.0,534.0,-85.0,-82.0
4071,539,-96,1,4070.0,4070.0,537.0,536.0,-92.0,-85.0
4071,542,-98,1,4071.0,4070.0,539.0,537.0,-96.0,-92.0
4070,544,-100,1,4071.0,4071.0,542.0,539.0,-98.0,-96.0
4076,546,-99,1,4070.0,4071.0,544.0,542.0,-100.0,-98.0
4076,543,-99,1,4076.0,4070.0,546.0,544.0,-99.0,-100.0
4075,542,-95,1,4076.0,4076.0,543.0,546.0,-99.0,-99.0
4076,540,-95,1,4075.0,4076.0,542.0,543.0,-95.0,-99.0
4077,540,-94,1,4076.0,4075.0,540.0,542.0,-95.0,-95.0
4073,542,-95,1,4077.0,4076.0,540.0,540.0,-94.0,-95.0
4074,541,-98,1,4073.0,4077.0,542.0,540.0,-95.0,-94.0
4075,542,-99,1,4074.0,4073.0,541.0,542.0,-98.0,-95.0
4074,541,-96,1,4075.0,4074.0,542.0,541.0,-99.0,-98.0
4073,536,-96,1,4074.0,4075.0,541.0,542.0,-96.0,-99.0
4073,528,-98,1,4073.0,4074.0,536.0,541.0,-96.0,-96.0
4066,524,-101,1,4073.0,4073.0,528.0,536.0,-98.0,-96.0
4068,522,-98,1,4066.0,4073.0,524.0,528.0,-101.0,-98.0
4069,521,-97,1,4068.0,4066.0,522.0,524.0,-98.0,-101.0
4070,519,-95,1,4069.0,4068.0,521.0,522.0,-97.0,-98.0
4075,518,-96,1,4070.0,4069.0,519.0,521.0,-95.0,-97.0
4076,517,-98,1,4075.0,4070.0,518.0,519.0,-96.0,-95.0
4075,516,-99,1,4076.0,4075.0,517.0,518.0,-98.0,-96.0
4080,516,-98,1,4075.0,4076.0,516.0,517.0,-99.0,-98.0
4082,508,-97,1,4080.0,4075.0,516.0,516.0,-98.0,-99.0
4081,505,-98,1,4082.0,4080.0,508.0,516.0,-97.0,-98.0
4078,500,-98,1,4081.0,4082.0,505.0,508.0,-98.0,-97.0
4078,497,-96,1,4078.0,4081.0,500.0,505.0,-98.0,-98.0
4080,499,-99,1,4078.0,4078.0,497.0,500.0,-96.0,-98.0
4077,499,-96,1,4080.0,4078.0,499.0,497.0,-99.0,-96.0
4074,498,-96,1,4077.0,4080.0,499.0,499.0,-96.0,-99.0
4070,501,-98,1,4074.0,4077.0,498.0,499.0,-96.0,-96.0
4065,504,-93,1,4070.0,4074.0,501.0,498.0,-98.0,-96.0
4067,505,-94,1,4065.0,4070.0,504.0,501.0,-93.0,-98.0
4065,500,-87,1,4067.0,4065.0,505.0,504.0,-94.0,-93.0
4060,495,-80,1,4065.0,4067.0,500.0,505.0,-87.0,-94.0
4064,489,-78,1,4060.0,4065.0,495.0,500.0,-80.0,-87.0
4065,489,-67,1,4064.0,4060.0,489.0,495.0,-78.0,-80.0
4061,487,-61,1,4065.0,4064.0,489.0,489.0,-67.0,-78.0
4067,486,-57,1,4061.0,4065.0,487.0,489.0,-61.0,-67.0
4071,485,-55,1,4067.0,4061.0,486.0,487.0,-57.0,-61.0
4073,486,-55,1,4071.0,4067.0,485.0,486.0,-55.0,-57.0
4078,487,-57,1,4073.0,4071.0,486.0,485.0,-55.0,-55.0
4082,483,-59,1,4078.0,4073.0,487.0,486.0,-57.0,-55.0
4080,489,-62,1,4082.0,4078.0,483.0,487.0,-59.0,-57.0
4079,490,-62,1,4080.0,4082.0,489.0,483.0,-62.0,-59.0
4082,494,-64,1,4079.0,4080.0,490.0,489.0,-62.0,-62.0
4081,494,-65,1,4082.0,4079.0,494.0,490.0,-64.0,-62.0
4080,497,-66,1,4081.0,4082.0,494.0,494.0,-65.0,-64.0
4079,497,-69,1,4080.0,4081.0,497.0,494.0,-66.0,-65.0
4085,492,-69,1,4079.0,4080.0,497.0,497.0,-69.0,-66.0
4084,492,-70,1,4085.0,4079.0,492.0,497.0,-69.0,-69.0
4085,493,-73,1,4084.0,4085.0,492.0,492.0,-70.0,-69.0
4088,490,-74,1,4085.0,4084.0,493.0,492.0,-73.0,-70.0
4087,485,-72,1,4088.0,4085.0,490.0,493.0,-74.0,-73.0
4085,485,-69,1,4087.0,4088.0,485.0,490.0,-72.0,-74.0
4088,485,-63,1,4085.0,4087.0,485.0,485.0,-69.0,-72.0
4094,483,-60,1,4088.0,4085.0,485.0,485.0,-63.0,-69.0
4093,480,-55,1,4094.0,4088.0,483.0,485.0,-60.0,-63.0
4094,479,-62,1,4093.0,4094.0,480.0,483.0,-55.0,-60.0
4092,482,-60,1,4094.0,4093.0,479.0,480.0,-62.0,-55.0
4088,484,-65,1,4092.0,4094.0,482.0,479.0,-60.0,-62.0
4082,489,-71,1,4088.0,4092.0,484.0,482.0,-65.0,-60.0
4078,497,-74,1,4082.0,4088.0,489.0,484.0,-71.0,-65.0
4074,497,-75,1,4078.0,4082.0,497.0,489.0,-74.0,-71.0
4069,502,-71,1,4074.0,4078.0,497.0,497.0,-75.0,-74.0
4065,506,-64,1,4069.0,4074.0,502.0,497.0,-71.0,-75.0
4066,507,-51,1,4065.0,4069.0,506.0,502.0,-64.0,-71.0
4069,510,-44,1,4066.0,4065.0,507.0,506.0,-51.0,-64.0
4076,509,-40,1,4069.0,4066.0,510.0,507.0,-44.0,-51.0
4077,511,-34,1,4076.0,4069.0,509.0,510.0,-40.0,-44.0
4085,506,-34,1,4077.0,4076.0,511.0,509.0,-34.0,-40.0
4084,505,-37,1,4085.0,4077.0,506.0,511.0,-34.0,-34.0
4087,503,-41,1,4084.0,4085.0,505.0,506.0,-37.0,-34.0
4087,505,-42,1,4087.0,4084.0,503.0,505.0,-41.0,-37.0
4087,503,-45,1,4087.0,4087.0,505.0,503.0,-42.0,-41.0
4085,500,-48,1,4087.0,4087.0,503.0,505.0,-45.0,-42.0
4091,500,-49,1,4085.0,4087.0,500.0,503.0,-48.0,-45.0
4090,503,-54,1,4091.0,4085.0,500.0,500.0,-49.0,-48.0
4089,503,-53,1,4090.0,4091.0,503.0,500.0,-54.0,-49.0
4086,502,-53,1,4089.0,4090.0,503.0,503.0,-53.0,-54.0
4080,498,-52,1,4086.0,4089.0,502.0,503.0,-53.0,-53.0
4074,496,-49,1,4080.0,4086.0,498.0,502.0,-52.0,-53.0
4071,501,-41,1,4074.0,4080.0,496.0,498.0,-49.0,-52.0
4067,498,-28,1,4071.0,4074.0,501.0,496.0,-41.0,-49.0
4073,498,-21,1,4067.0,4071.0,498.0,501.0,-28.0,-41.0
4076,494,-24,1,4073.0,4067.0,498.0,498.0,-21.0,-28.0
4076,492,-26,1,4076.0,4073.0,494.0,498.0,-24.0,-21.0
4074,492,-31,1,4076.0,4076.0,492.0,494.0,-26.0,-24.0
4075,491,-33,1,4074.0,4076.0,492.0,492.0,-31.0,-26.0
4080,485,-34,1,4075.0,4074.0,491.0,492.0,-33.0,-31.0
4078,485,-28,1,4080.0,4075.0,485.0,491.0,-34.0,-33.0
4079,477,-22,1,4078.0,4080.0,485.0,485.0,-28.0,-34.0
4064,476,-25,1,4079.0,4078.0,477.0,485.0,-22.0,-28.0
4074,481,-17,1,4064.0,4079.0,476.0,477.0,-25.0,-22.0
4083,478,-19,1,4074.0,4064.0,481.0,476.0,-17.0,-25.0
4087,481,-19,1,4083.0,4074.0,478.0,481.0,-19.0,-17.0
4080,479,-21,1,4087.0,4083.0,481.0,478.0,-19.0,-19.0
4074,489,-16,1,4080.0,4087.0,479.0,481.0,-21.0,-19.0
4066,493,-14,1,4074.0,4080.0,489.0,479.0,-16.0,-21.0
4062,493,-18,1,4066.0,4074.0,493.0,489.0,-14.0,-16.0
4055,502,-23,1,4062.0,4066.0,493.0,493.0,-18.0,-14.0
4053,502,-32,1,4055.0,4062.0,502.0,493.0,-23.0,-18.0
4053,496,-39,1,4053.0,4055.0,502.0,502.0,-32.0,-23.0
4061,495,-44,1,4053.0,4053.0,496.0,502.0,-39.0,-32.0
4066,501,-48,1,4061.0,4053.0,495.0,496.0,-44.0,-39.0
4068,505,-47,1,4066.0,4061.0,501.0,495.0,-48.0,-44.0
4062,503,-55,1,4068.0,4066.0,505.0,501.0,-47.0,-48.0
4062,511,-53,1,4062.0,4068.0,503.0,505.0,-55.0,-47.0
4055,510,-60,1,4062.0,4062.0,511.0,503.0,-53.0,-55.0
4063,514,-58,1,4055.0,4062.0,510.0,511.0,-60.0,-53.0
4059,517,-58,1,4063.0,4055.0,514.0,510.0,-58.0,-60.0
4060,522,-57,1,4059.0,4063.0,517.0,514.0,-58.0,-58.0
4065,526,-58,1,4060.0,4059.0,522.0,517.0,-57.0,-58.0
4066,531,-62,1,4065.0,4060.0,526.0,522.0,-58.0,-57.0
4064,528,-60,1,4066.0,4065.0,531.0,526.0,-62.0,-58.0
4056,530,-58,1,4064.0,4066.0,528.0,531.0,-60.0,-62.0
4053,533,-50,1,4056.0,4064.0,530.0,528.0,-58.0,-60.0
4054,531,-50,1,4053.0,4056.0,533.0,530.0,-50.0,-58.0
4057,537,-43,1,4054.0,4053.0,531.0,533.0,-50.0,-50.0
4062,537,-40,1,4057.0,4054.0,537.0,531.0,-43.0,-50.0
4059,535,-38,1,4062.0,4057.0,537.0,537.0,-40.0,-43.0
4061,532,-35,1,4059.0,4062.0,535.0,537.0,-38.0,-40.0
4059,525,-33,1,4061.0,4059.0,532.0,535.0,-35.0,-38.0
4057,520,-31,1,4059.0,4061.0,525.0,532.0,-33.0,-35.0
4057,522,-25,1,4057.0,4059.0,520.0,525.0,-31.0,-33.0
4061,521,-22,1,4057.0,4057.0,522.0,520.0,-25.0,-31.0
4064,519,-21,1,4061.0,4057.0,521.0,522.0,-22.0,-25.0
4066,512,-19,1,4064.0,4061.0,519.0,521.0,-21.0,-22.0
4064,506,-17,1,4066.0,4064.0,512.0,519.0,-19.0,-21.0
4066,500,-18,1,4064.0,4066.0,506.0,512.0,-17.0,-19.0
4065,491,-14,1,4066.0,4064.0,500.0,506.0,-18.0,-17.0
4068,487,-6,1,4065.0,4066.0,491.0,500.0,-14.0,-18.0
4069,476,-3,1,4068.0,4065.0,487.0,491.0,-6.0,-14.0
4074,469,-3,1,4069.0,4068.0,476.0,487.0,-3.0,-6.0
4075,469,-2,1,4074.0,4069.0,469.0,476.0,-3.0,-3.0
4073,471,-1,1,4075.0,4074.0,469.0,469.0,-2.0,-3.0
4076,469,-2,1,4073.0,4075.0,471.0,469.0,-1.0,-2.0
4076,465,-3,1,4076.0,4073.0,469.0,471.0,-2.0,-1.0
4076,461,-2,1,4076.0,4076.0,465.0,469.0,-3.0,-2.0
4078,466,0,1,4076.0,4076.0,461.0,465.0,-2.0,-3.0
4077,468,1,1,4078.0,4076.0,466.0,461.0,0.0,-2.0
4077,470,0,1,4077.0,4078.0,468.0,466.0,1.0,0.0
4076,476,-2,1,4077.0,4077.0,470.0,468.0,0.0,1.0
4071,474,-9,1,4076.0,4077.0,476.0,470.0,-2.0,0.0
4072,476,-6,1,4071.0,4076.0,474.0,476.0,-9.0,-2.0
4076,473,-11,1,4072.0,4071.0,476.0,474.0,-6.0,-9.0
4078,477,-14,1,4076.0,4072.0,473.0,476.0,-11.0,-6.0
4079,478,-21,1,4078.0,4076.0,477.0,473.0,-14.0,-11.0
4077,477,-20,1,4079.0,4078.0,478.0,477.0,-21.0,-14.0
4079,479,-16,1,4077.0,4079.0,477.0,478.0,-20.0,-21.0
4080,485,-11,1,4079.0,4077.0,479.0,477.0,-16.0,-20.0
4081,481,-8,1,4080.0,4079.0,485.0,479.0,-11.0,-16.0
4078,486,-5,1,4081.0,4080.0,481.0,485.0,-8.0,-11.0
4080,486,-7,1,4078.0,4081.0,486.0,481.0,-5.0,-8.0
4078,487,-4,1,4080.0,4078.0,486.0,486.0,-7.0,-5.0
4079,483,-5,1,4078.0,4080.0,487.0,486.0,-4.0,-7.0
4082,483,-4,1,4079.0,4078.0,483.0,487.0,-5.0,-4.0
4083,481,-7,1,4082.0,4079.0,483.0,483.0,-4.0,-5.0
4082,481,-10,1,4083.0,4082.0,481.0,483.0,-7.0,-4.0
4081,486,-14,1,4082.0,4083.0,481.0,481.0,-10.0,-7.0
4085,488,-16,1,4081.0,4082.0,486.0,481.0,-14.0,-10.0
4080,478,-18,1,4085.0,4081.0,488.0,486.0,-16.0,-14.0
4075,480,-17,1,4080.0,4085.0,478.0,488.0,-18.0,-16.0
4070,483,-20,1,4075.0,4080.0,480.0,478.0,-17.0,-18.0
4066,483,-15,1,4070.0,4075.0,483.0,480.0,-20.0,-17.0
4072,485,-10,1,4066.0,4070.0,483.0,483.0,-15.0,-20.0
4071,479,-10,1,4072.0,4066.0,485.0,483.0,-10.0,-15.0
4072,477,-10,1,4071.0,4072.0,479.0,485.0,-10.0,-10.0
4069,474,-9,1,4072.0,4071.0,477.0,479.0,-10.0,-10.0
4072,471,-8,1,4069.0,4072.0,474.0,477.0,-9.0,-10.0
4072,471,-10,1,4072.0,4069.0,471.0,474.0,-8.0,-9.0
4071,471,-14,1,4072.0,4072.0,471.0,471.0,-10.0,-8.0
4071,469,-13,1,4071.0,4072.0,471.0,471.0,-14.0,-10.0
4072,470,-16,1,4071.0,4071.0,469.0,471.0,-13.0,-14.0
4071,474,-21,1,4072.0,4071.0,470.0,469.0,-16.0,-13.0
4072,475,-20,1,4071.0,4072.0,474.0,470.0,-21.0,-16.0
4073,479,-18,1,4072.0,4071.0,475.0,474.0,-20.0,-21.0
4069,480,-13,1,4073.0,4072.0,479.0,475.0,-18.0,-20.0
4075,481,-10,1,4069.0,4073.0,480.0,479.0,-13.0,-18.0
4078,480,-5,1,4075.0,4069.0,481.0,480.0,-10.0,-13.0
4081,481,-4,1,4078.0,4075.0,480.0,481.0,-5.0,-10.0
4081,479,-3,1,4081.0,4078.0,481.0,480.0,-4.0,-5.0
4080,484,-4,1,4081.0,4081.0,479.0,481.0,-3.0,-4.0
4079,478,-8,1,4080.0,4081.0,484.0,479.0,-4.0,-3.0
4079,477,-12,1,4079.0,4080.0,478.0,484.0,-8.0,-4.0
4077,474,-8,1,4079.0,4079.0,477.0,478.0,-12.0,-8.0
4072,470,-10,1,4077.0,4079.0,474.0,477.0,-8.0,-12.0
4071,462,-16,1,4072.0,4077.0,470.0,474.0,-10.0,-8.0
4068,460,-30,1,4071.0,4072.0,462.0,470.0,-16.0,-10.0
4066,459,-37,1,4068.0,4071.0,460.0,462.0,-30.0,-16.0
4067,456,-38,1,4066.0,4068.0,459.0,460.0,-37.0,-30.0
4068,452,-35,1,4067.0,4066.0,456.0,459.0,-38.0,-37.0
4072,451,-27,1,4068.0,4067.0,452.0,456.0,-35.0,-38.0
4077,446,-16,1,4072.0,4068.0,451.0,452.0,-27.0,-35.0
4086,442,-6,1,4077.0,4072.0,446.0,451.0,-16.0,-27.0
4093,443,1,1,4086.0,4077.0,442.0,446.0,-6.0,-16.0
4097,446,4,1,4093.0,4086.0,443.0,442.0,1.0,-6.0
4098,455,4,1,4097.0,4093.0,446.0,443.0,4.0,1.0
4096,453,-2,1,4098.0,4097.0,455.0,446.0,4.0,4.0
4097,454,-5,1,4096.0,4098.0,453.0,455.0,-2.0,4.0
4097,457,-4,1,4097.0,4096.0,454.0,453.0,-5.0,-2.0
4092,457,1,1,4097.0,4097.0,457.0,454.0,-4.0,-5.0
4088,460,4,1,4092.0,4097.0,457.0,457.0,1.0,-4.0
4082,458,7,1,4088.0,4092.0,460.0,457.0,4.0,1.0
4079,459,7,1,4082.0,4088.0,458.0,460.0,7.0,4.0
4077,458,4,1,4079.0,4082.0,459.0,458.0,7.0,7.0
4074,466,2,1,4077.0,4079.0,458.0,459.0,4.0,7.0
4075,468,-8,1,4074.0,4077.0,466.0,458.0,2.0,4.0
4068,459,-10,1,4075.0,4074.0,468.0,466.0,-8.0,2.0
4056,468,-20,1,4068.0,4075.0,459.0,468.0,-10.0,-8.0
4048,475,-23,1,4056.0,4068.0,468.0,459.0,-20.0,-10.0
4045,481,-29,1,4048.0,4056.0,475.0,468.0,-23.0,-20.0
4046,484,-34,1,4045.0,4048.0,481.0,475.0,-29.0,-23.0
4048,481,-41,1,4046.0,4045.0,484.0,481.0,-34.0,-29.0
4048,482,-44,1,4048.0,4046.0,481.0,484.0,-41.0,-34.0
4048,479,-53,1,4048.0,4048.0,482.0,481.0,-44.0,-41.0
4050,481,-57,1,4048.0,4048.0,479.0,482.0,-53.0,-44.0
4051,482,-63,1,4050.0,4048.0,481.0,479.0,-57.0,-53.0
4049,477,-66,1,4051.0,4050.0,482.0,481.0,-63.0,-57.0
4054,482,-61,1,4049.0,4051.0,477.0,482.0,-66.0,-63.0
4053,484,-60,1,4054.0,4049.0,482.0,477.0,-61.0,-66.0
4054,485,-59,1,4053.0,4054.0,484.0,482.0,-60.0,-61.0
4053,486,-59,1,4054.0,4053.0,485.0,484.0,-59.0,-60.0
4056,490,-58,1,4053.0,4054.0,486.0,485.0,-59.0,-59.0
4054,490,-61,1,4056.0,4053.0,490.0,486.0,-58.0,-59.0
4065,493,-59,1,4054.0,4056.0,490.0,490.0,-61.0,-58.0
4067,494,-60,1,4065.0,4054.0,493.0,490.0,-59.0,-61.0
4063,496,-58,1,4067.0,4065.0,494.0,493.0,-60.0,-59.0
4061,501,-59,1,4063.0,4067.0,496.0,494.0,-58.0,-60.0
4069,500,-58,1,4061.0,4063.0,501.0,496.0,-59.0,-58.0
4083,499,-54,1,4069.0,4061.0,500.0,501.0,-58.0,-59.0
4075,499,-70,1,4083.0,4069.0,499.0,500.0,-54.0,-58.0
4075,492,-66,1,4075.0,4083.0,499.0,499.0,-70.0,-54.0
4076,497,-63,1,4075.0,4075.0,492.0,499.0,-66.0,-70.0
4067,487,-75,1,4076.0,4075.0,497.0,492.0,-63.0,-66.0
4066,485,-72,1,4067.0,4076.0,487.0,497.0,-75.0,-63.0
4077,488,-69,1,4066.0,4067.0,485.0,487.0,-72.0,-75.0
4083,487,-67,1,4077.0,4066.0,488.0,485.0,-69.0,-72.0
4090,481,-75,1,4083.0,4077.0,487.0,488.0,-67.0,-69.0
4097,464,-80,1,4090.0,4083.0,481.0,487.0,-75.0,-67.0
4098,467,-73,1,4097.0,4090.0,464.0,481.0,-80.0,-75.0
4093,457,-81,1,4098.0,4097.0,467.0,464.0,-73.0,-80.0
4074,456,-92,1,4093.0,4098.0,457.0,467.0,-81.0,-73.0
4064,458,-93,1,4074.0,4093.0,456.0,457.0,-92.0,-81.0
4073,457,-83,1,4064.0,4074.0,458.0,456.0,-93.0,-92.0
4084,448,-76,1,4073.0,4064.0,457.0,458.0,-83.0,-93.0
4087,452,-75,1,4084.0,4073.0,448.0,457.0,-76.0,-83.0
4086,450,-78,1,4087.0,4084.0,452.0,448.0,-75.0,-76.0
4080,446,-89,1,4086.0,4087.0,450.0,452.0,-78.0,-75.0
4068,461,-89,1,4080.0,4086.0,446.0,450.0,-89.0,-78.0
4067,450,-89,1,4068.0,4080.0,461.0,446.0,-89.0,-89.0
4072,469,-80,1,4067.0,4068.0,450.0,461.0,-89.0,-89.0
4076,459,-83,1,4072.0,4067.0,469.0,450.0,-80.0,-89.0
4083,449,-84,1,4076.0,4072.0,459.0,469.0,-83.0,-80.0
4082,453,-83,1,4083.0,4076.0,449.0,459.0,-84.0,-83.0
4090,461,-75,1,4082.0,4083.0,453.0,449.0,-83.0,-84.0
4087,457,-83,1,4090.0,4082.0,461.0,453.0,-75.0,-83.0
4087,466,-88,1,4087.0,4090.0,457.0,461.0,-83.0,-75.0
4090,462,-98,1,4087.0,4087.0,466.0,457.0,-88.0,-83.0
4093,481,-85,1,4090.0,4087.0,462.0,466.0,-98.0,-88.0
4082,471,-110,1,4093.0,4090.0,481.0,462.0,-85.0,-98.0
4081,483,-99,1,4082.0,4093.0,471.0,481.0,-110.0,-85.0
4077,477,-103,1,4081.0,4082.0,483.0,471.0,-99.0,-110.0
4086,492,-97,1,4077.0,4081.0,477.0,483.0,-103.0,-99.0
4093,469,-108,1,4086.0,4077.0,492.0,477.0,-97.0,-103.0
4097,476,-104,1,4093.0,4086.0,469.0,492.0,-108.0,-97.0
4095,457,-130,1,4097.0,4093.0,476.0,469.0,-104.0,-108.0
4092,474,-117,1,4095.0,4097.0,457.0,476.0,-130.0,-104.0
4093,462,-127,1,4092.0,4095.0,474.0,457.0,-117.0,-130.0
4090,468,-128,1,4093.0,4092.0,462.0,474.0,-127.0,-117.0
4095,480,-126,1,4090.0,4093.0,468.0,462.0,-128.0,-127.0
4092,478,-135,1,4095.0,4090.0,480.0,468.0,-126.0,-128.0
4096,473,-148,1,4092.0,4095.0,478.0,480.0,-135.0,-126.0
4090,462,-157,1,4096.0,4092.0,473.0,478.0,-148.0,-135.0
4073,466,-170,1,4090.0,4096.0,462.0,473.0,-157.0,-148.0
4059,448,-176,1,4073.0,4090.0,466.0,462.0,-170.0,-157.0
4050,450,-174,1,4059.0,4073.0,448.0,466.0,-176.0,-170.0
4040,443,-174,1,4050.0,4059.0,450.0,448.0,-174.0,-176.0
4036,445,-168,1,4040.0,4050.0,443.0,450.0,-174.0,-174.0
4041,439,-174,1,4036.0,4040.0,445.0,443.0,-168.0,-174.0
4056,447,-182,1,4041.0,4036.0,439.0,445.0,-174.0,-168.0
4058,469,-174,1,4056.0,4041.0,447.0,439.0,-182.0,-174.0
4055,451,-181,1,4058.0,4056.0,469.0,447.0,-174.0,-182.0
4032,463,-206,1,4055.0,4058.0,451.0,469.0,-181.0,-174.0
4041,467,-194,1,4032.0,4055.0,463.0,451.0,-206.0,-181.0
4052,469,-199,1,4041.0,4032.0,467.0,463.0,-194.0,-206.0
4060,467,-201,1,4052.0,4041.0,469.0,467.0,-199.0,-194.0
4056,460,-210,1,4060.0,4052.0,467.0,469.0,-201.0,-199.0
4049,446,-218,1,4056.0,4060.0,460.0,467.0,-210.0,-201.0
4056,469,-193,1,4049.0,4056.0,446.0,460.0,-218.0,-210.0
4062,442,-218,1,4056.0,4049.0,469.0,446.0,-193.0,-218.0
4047,460,-216,1,4062.0,4056.0,442.0,469.0,-218.0,-193.0
4032,470,-195,1,4047.0,4062.0,460.0,442.0,-216.0,-218.0
4029,472,-194,1,4032.0,4047.0,470.0,460.0,-195.0,-216.0
4036,464,-209,1,4029.0,4032.0,472.0,470.0,-194.0,-195.0
4045,485,-196,1,4036.0,4029.0,464.0,472.0,-209.0,-194.0
4030,462,-227,1,4045.0,4036.0,485.0,464.0,-196.0,-209.0
4019,478,-223,1,4030.0,4045.0,462.0,485.0,-227.0,-196.0
4033,473,-215,1,4019.0,4030.0,478.0,462.0,-223.0,-227.0
4040,465,-219,1,4033.0,4019.0,473.0,478.0,-215.0,-223.0
4032,476,-234,1,4040.0,4033.0,465.0,473.0,-219.0,-215.0
4021,492,-236,1,4032.0,4040.0,476.0,465.0,-234.0,-219.0
4037,468,-242,1,4021.0,4032.0,492.0,476.0,-236.0,-234.0
4047,484,-233,1,4037.0,4021.0,468.0,492.0,-242.0,-236.0
4033,444,-253,1,4047.0,4037.0,484.0,468.0,-233.0,-242.0
4019,454,-247,1,4033.0,4047.0,444.0,484.0,-253.0,-233.0
4016,449,-249,1,4019.0,4033.0,454.0,444.0,-247.0,-253.0
4031,467,-251,1,4016.0,4019.0,449.0,454.0,-249.0,-247.0
4060,459,-248,1,4031.0,4016.0,467.0,449.0,-251.0,-249.0
4050,449,-276,1,4060.0,4031.0,459.0,467.0,-248.0,-251.0
4030,454,-285,1,4050.0,4060.0,449.0,459.0,-276.0,-248.0
4021,459,-275,1,4030.0,4050.0,454.0,449.0,-285.0,-276.0
4024,453,-270,1,4021.0,4030.0,459.0,454.0,-275.0,-285.0
4030,441,-274,1,4024.0,4021.0,453.0,459.0,-270.0,-275.0
4043,453,-259,1,4030.0,4024.0,441.0,453.0,-274.0,-270.0
4043,433,-266,1,4043.0,4030.0,453.0,441.0,-259.0,-274.0
4067,463,-255,1,4043.0,4043.0,433.0,453.0,-266.0,-259.0
4089,440,-267,1,4067.0,4043.0,463.0,433.0,-255.0,-266.0
4105,452,-262,1,4089.0,4067.0,440.0,463.0,-267.0,-255.0
4103,434,-279,1,4105.0,4089.0,452.0,440.0,-262.0,-267.0
4100,436,-278,1,4103.0,4105.0,434.0,452.0,-279.0,-262.0
4095,441,-278,1,4100.0,4103.0,436.0,434.0,-278.0,-279.0
4061,470,-291,1,4095.0,4100.0,441.0,436.0,-278.0,-278.0
4084,465,-268,1,4061.0,4095.0,470.0,441.0,-291.0,-278.0
4083,457,-276,1,4084.0,4061.0,465.0,470.0,-268.0,-291.0
4096,459,-271,1,4083.0,4084.0,457.0,465.0,-276.0,-268.0
4086,463,-289,1,4096.0,4083.0,459.0,457.0,-271.0,-276.0
4134,453,-279,1,4086.0,4096.0,463.0,459.0,-289.0,-271.0
4183,460,-279,1,4134.0,4086.0,453.0,463.0,-279.0,-289.0
4247,465,-286,1,4183.0,4134.0,460.0,453.0,-279.0,-279.0
4701,460,-195,1,4247.0,4183.0,465.0,460.0,-286.0,-279.0
4726,426,-257,1,4701.0,4247.0,460.0,465.0,-195.0,-286.0
4495,403,-353,1,4726.0,4701.0,426.0,460.0,-257.0,-195.0
4044,362,-532,1,4495.0,4726.0,403.0,426.0,-353.0,-257.0
3913,498,-374,1,4044.0,4495.0,362.0,403.0,-532.0,-353.0
3886,414,-296,1,3913.0,4044.0,498.0,362.0,-374.0,-532.0
3804,401,-311,1,3886.0,3913.0,414.0,498.0,-296.0,-374.0
3746,402,-364,1,3804.0,3886.0,401.0,414.0,-311.0,-296.0
3743,444,-347,1,3746.0,3804.0,402.0,401.0,-364.0,-311.0
3831,470,-306,1,3743.0,3746.0,444.0,402.0,-347.0,-364.0
3951,508,-241,1,3831.0,3743.0,470.0,444.0,-306.0,-347.0
3891,480,-331,1,3951.0,3831.0,508.0,470.0,-241.0,-306.0
3835,493,-346,1,3891.0,3951.0,480.0,508.0,-331.0,-241.0
3831,496,-337,1,3835.0,3891.0,493.0,480.0,-346.0,-331.0
4072,542,-216,1,3831.0,3835.0,496.0,493.0,-337.0,-346.0
4159,536,-257,1,4072.0,3831.0,542.0,496.0,-216.0,-337.0
4219,511,-291,1,4159.0,4072.0,536.0,542.0,-257.0,-216.0
4083,492,-373,1,4219.0,4159.0,511.0,536.0,-291.0,-257.0
4083,520,-323,1,4083.0,4219.0,492.0,511.0,-373.0,-291.0
4147,549,-267,1,4083.0,4083.0,520.0,492.0,-323.0,-373.0
4080,470,-334,1,4147.0,4083.0,549.0,520.0,-267.0,-323.0
4016,485,-335,1,4080.0,4147.0,470.0,549.0,-334.0,-267.0
4075,531,-264,1,4016.0,4080.0,485.0,470.0,-335.0,-334.0
4092,503,-267,1,4075.0,4016.0,531.0,485.0,-264.0,-335.0
4068,511,-268,1,4092.0,4075.0,503.0,531.0,-267.0,-264.0
4079,533,-244,1,4068.0,4092.0,511.0,503.0,-268.0,-267.0
4033,521,-271,1,4079.0,4068.0,533.0,511.0,-244.0,-268.0
3925,495,-341,1,4033.0,4079.0,521.0,533.0,-271.0,-244.0
3924,536,-315,1,3925.0,4033.0,495.0,521.0,-341.0,-271.0
4024,495,-274,1,3924.0,3925.0,536.0,495.0,-315.0,-341.0
4068,479,-284,1,4024.0,3924.0,495.0,536.0,-274.0,-315.0
4018,455,-352,1,4068.0,4024.0,479.0,495.0,-284.0,-274.0
3993,476,-343,1,4018.0,4068.0,455.0,479.0,-352.0,-284.0
4021,474,-323,1,3993.0,4018.0,476.0,455.0,-343.0,-352.0
3972,455,-349,1,4021.0,3993.0,474.0,476.0,-323.0,-343.0
3938,507,-322,1,3972.0,4021.0,455.0,474.0,-349.0,-323.0
3927,487,-338,1,3938.0,3972.0,507.0,455.0,-322.0,-349.0
3939,455,-339,1,3927.0,3938.0,487.0,507.0,-338.0,-322.0
3986,500,-315,1,3939.0,3927.0,455.0,487.0,-339.0,-338.0
3935,432,-393,1,3986.0,3939.0,500.0,455.0,-315.0,-339.0
3963,487,-359,1,3935.0,3986.0,432.0,500.0,-393.0,-315.0
3947,446,-407,1,3963.0,3935.0,487.0,432.0,-359.0,-393.0
4037,474,-356,1,3947.0,3963.0,446.0,487.0,-407.0,-359.0
4024,460,-404,1,4037.0,3947.0,474.0,446.0,-356.0,-407.0
4000,478,-439,1,4024.0,4037.0,460.0,474.0,-404.0,-356.0
3971,475,-473,1,4000.0,4024.0,478.0,460.0,-439.0,-404.0
3926,473,-503,1,3971.0,4000.0,475.0,478.0,-473.0,-439.0
3958,525,-458,1,3926.0,3971.0,473.0,475.0,-503.0,-473.0
3968,557,-424,1,3958.0,3926.0,525.0,473.0,-458.0,-503.0
4001,522,-452,1,3968.0,3958.0,557.0,525.0,-424.0,-458.0
4002,531,-490,1,4001.0,3968.0,522.0,557.0,-452.0,-424.0
3976,543,-510,1,4002.0,4001.0,531.0,522.0,-490.0,-452.0
3934,545,-521,1,3976.0,4002.0,543.0,531.0,-510.0,-490.0
3861,542,-541,1,3934.0,3976.0,545.0,543.0,-521.0,-510.0
3937,581,-463,1,3861.0,3934.0,542.0,545.0,-541.0,-521.0
3995,610,-457,1,3937.0,3861.0,581.0,542.0,-463.0,-541.0
4006,597,-501,1,3995.0,3937.0,610.0,581.0,-457.0,-463.0
3971,581,-556,1,4006.0,3995.0,597.0,610.0,-501.0,-457.0
3968,646,-545,1,3971.0,4006.0,581.0,597.0,-556.0,-501.0
3977,633,-583,1,3968.0,3971.0,646.0,581.0,-545.0,-556.0
4004,692,-571,1,3977.0,3968.0,633.0,646.0,-583.0,-545.0
3999,651,-607,1,4004.0,3977.0,692.0,633.0,-571.0,-583.0
3981,673,-608,1,3999.0,4004.0,651.0,692.0,-607.0,-571.0
3944,673,-648,1,3981.0,3999.0,673.0,651.0,-608.0,-607.0
3967,741,-617,1,3944.0,3981.0,673.0,673.0,-648.0,-608.0
4058,784,-585,1,3967.0,3944.0,741.0,673.0,-617.0,-648.0
4060,782,-623,1,4058.0,3967.0,784.0,741.0,-585.0,-617.0
3996,743,-691,1,4060.0,4058.0,782.0,784.0,-623.0,-585.0
3908,729,-721,1,3996.0,4060.0,743.0,782.0,-691.0,-623.0
3873,740,-717,1,3908.0,3996.0,729.0,743.0,-721.0,-691.0
3835,787,-682,1,3873.0,3908.0,740.0,729.0,-717.0,-721.0
3796,811,-653,1,3835.0,3873.0,787.0,740.0,-682.0,-717.0
3739,785,-661,1,3796.0,3835.0,811.0,787.0,-653.0,-682.0
3726,825,-639,1,3739.0,3796.0,785.0,811.0,-661.0,-653.0
3730,850,-620,1,3726.0,3739.0,825.0,785.0,-639.0,-661.0
3740,870,-606,1,3730.0,3726.0,850.0,825.0,-620.0,-639.0
3708,863,-660,1,3740.0,3730.0,870.0,850.0,-606.0,-620.0
3703,940,-637,1,3708.0,3740.0,863.0,870.0,-660.0,-606.0
3720,999,-575,1,3703.0,3708.0,940.0,863.0,-637.0,-660.0
3726,933,-564,1,3720.0,3703.0,999.0,940.0,-575.0,-637.0
3706,985,-526,1,3726.0,3720.0,933.0,999.0,-564.0,-575.0
3711,1006,-492,1,3706.0,3726.0,985.0,933.0,-526.0,-564.0
3716,972,-482,1,3711.0,3706.0,1006.0,985.0,-492.0,-526.0
3721,987,-468,1,3716.0,3711.0,972.0,1006.0,-482.0,-492.0
3710,1078,-483,1,3721.0,3716.0,987.0,972.0,-468.0,-482.0
3738,1221,-471,1,3710.0,3721.0,1078.0,987.0,-483.0,-468.0
3789,1175,-498,1,3738.0,3710.0,1221.0,1078.0,-471.0,-483.0
3781,1117,-562,1,3789.0,3738.0,1175.0,1221.0,-498.0,-471.0
3772,1114,-564,1,3781.0,3789.0,1117.0,1175.0,-562.0,-498.0
3737,1051,-588,1,3772.0,3781.0,1114.0,1117.0,-564.0,-562.0
3668,961,-627,1,3737.0,3772.0,1051.0,1114.0,-588.0,-564.0
3631,964,-591,1,3668.0,3737.0,961.0,1051.0,-627.0,-588.0
3616,867,-580,1,3631.0,3668.0,964.0,961.0,-591.0,-627.0
3649,743,-538,1,3616.0,3631.0,867.0,964.0,-580.0,-591.0
3698,702,-459,1,3649.0,3616.0,743.0,867.0,-538.0,-580.0
3669,537,-504,1,3698.0,3649.0,702.0,743.0,-459.0,-538.0
3682,546,-499,1,3669.0,3698.0,537.0,702.0,-504.0,-459.0
3678,540,-547,1,3682.0,3669.0,546.0,537.0,-499.0,-504.0
3692,516,-589,1,3678.0,3682.0,540.0,546.0,-547.0,-499.0
3699,497,-641,1,3692.0,3678.0,516.0,540.0,-589.0,-547.0
3710,505,-678,1,3699.0,3692.0,497.0,516.0,-641.0,-589.0
3724,473,-692,1,3710.0,3699.0,505.0,497.0,-678.0,-641.0
3740,465,-701,1,3724.0,3710.0,473.0,505.0,-692.0,-678.0
3807,544,-633,1,3740.0,3724.0,465.0,473.0,-701.0,-692.0
3846,560,-598,1,3807.0,3740.0,544.0,465.0,-633.0,-701.0
3937,680,-496,1,3846.0,3807.0,560.0,544.0,-598.0,-633.0
3995,707,-448,1,3937.0,3846.0,680.0,560.0,-496.0,-598.0
4037,791,-357,1,3995.0,3937.0,707.0,680.0,-448.0,-496.0
4071,819,-292,1,4037.0,3995.0,791.0,707.0,-357.0,-448.0
4080,828,-230,1,4071.0,4037.0,819.0,791.0,-292.0,-357.0
4069,813,-177,1,4080.0,4071.0,828.0,819.0,-230.0,-292.0
4084,892,-86,1,4069.0,4080.0,813.0,828.0,-177.0,-230.0
4086,924,-30,1,4084.0,4069.0,892.0,813.0,-86.0,-177.0
4080,890,-4,1,4086.0,4084.0,924.0,892.0,-30.0,-86.0
4081,876,26,1,4080.0,4086.0,890.0,924.0,-4.0,-30.0
4052,872,32,1,4081.0,4080.0,876.0,890.0,26.0,-4.0
4031,879,31,1,4052.0,4081.0,872.0,876.0,32.0,26.0
4001,838,20,1,4031.0,4052.0,879.0,872.0,31.0,32.0
3973,779,0,1,4001.0,4031.0,838.0,879.0,20.0,31.0
3934,750,-31,1,3973.0,4001.0,779.0,838.0,0.0,20.0
3883,761,-63,1,3934.0,3973.0,750.0,779.0,-31.0,0.0
3821,731,-92,1,3883.0,3934.0,761.0,750.0,-63.0,-31.0
3772,758,-106,1,3821.0,3883.0,731.0,761.0,-92.0,-63.0
3717,735,-122,1,3772.0,3821.0,758.0,731.0,-106.0,-92.0
3673,743,-113,1,3717.0,3772.0,735.0,758.0,-122.0,-106.0
3662,727,-91,1,3673.0,3717.0,743.0,735.0,-113.0,-122.0
3643,715,-68,1,3662.0,3673.0,727.0,743.0,-91.0,-113.0
3635,727,-45,1,3643.0,3662.0,715.0,727.0,-68.0,-91.0
3638,739,-21,1,3635.0,3643.0,727.0,715.0,-45.0,-68.0
3630,757,-23,1,3638.0,3635.0,739.0,727.0,-21.0,-45.0
3613,786,-10,1,3630.0,3638.0,757.0,739.0,-23.0,-21.0
3610,739,-3,1,3613.0,3630.0,786.0,757.0,-10.0,-23.0
3617,655,13,1,3610.0,3613.0,739.0,786.0,-3.0,-10.0
3619,590,45,1,3617.0,3610.0,655.0,739.0,13.0,-3.0
3607,527,55,1,3619.0,3617.0,590.0,655.0,45.0,13.0
3608,499,85,1,3607.0,3619.0,527.0,590.0,55.0,45.0
3628,456,122,1,3608.0,3607.0,499.0,527.0,85.0,55.0
3657,444,163,1,3628.0,3608.0,456.0,499.0,122.0,85.0
3700,437,214,1,3657.0,3628.0,444.0,456.0,163.0,122.0
3753,424,270,1,3700.0,3657.0,437.0,444.0,214.0,163.0
3807,372,329,1,3753.0,3700.0,424.0,437.0,270.0,214.0
3841,339,371,1,3807.0,3753.0,372.0,424.0,329.0,270.0
3850,331,348,1,3841.0,3807.0,339.0,372.0,371.0,329.0
3822,375,260,1,3850.0,3841.0,331.0,339.0,348.0,371.0
3755,469,32,1,3822.0,3850.0,375.0,331.0,260.0,348.0
3662,654,-423,1,3755.0,3822.0,469.0,375.0,32.0,260.0
3537,928,-1086,1,3662.0,3755.0,654.0,469.0,-423.0,32.0
3459,1105,-1820,1,3537.0,3662.0,928.0,654.0,-1086.0,-423.0
3468,1113,-2355,1,3459.0,3537.0,1105.0,928.0,-1820.0,-1086.0
3509,950,-2666,1,3468.0,3459.0,1113.0,1105.0,-2355.0,-1820.0
3536,782,-2875,1,3509.0,3468.0,950.0,1113.0,-2666.0,-2355.0
3566,704,-2890,1,3536.0,3509.0,782.0,950.0,-2875.0,-2666.0
3584,701,-2663,1,3566.0,3536.0,704.0,782.0,-2890.0,-2875.0
3619,720,-2240,1,3584.0,3566.0,701.0,704.0,-2663.0,-2890.0
3698,769,-1704,1,3619.0,3584.0,720.0,701.0,-2240.0,-2663.0
3836,822,-1168,1,3698.0,3619.0,769.0,720.0,-1704.0,-2240.0
3999,879,-733,1,3836.0,3698.0,822.0,769.0,-1168.0,-1704.0
4157,947,-462,1,3999.0,3836.0,879.0,822.0,-733.0,-1168.0
4279,1073,-382,1,4157.0,3999.0,947.0,879.0,-462.0,-733.0
4385,1188,-443,1,4279.0,4157.0,1073.0,947.0,-382.0,-462.0
4493,1203,-579,1,4385.0,4279.0,1188.0,1073.0,-443.0,-382.0
4596,1160,-713,1,4493.0,4385.0,1203.0,1188.0,-579.0,-443.0
4690,1090,-851,1,4596.0,4493.0,1160.0,1203.0,-713.0,-579.0
4775,1016,-974,1,4690.0,4596.0,1090.0,1160.0,-851.0,-713.0
4842,963,-1042,1,4775.0,4690.0,1016.0,1090.0,-974.0,-851.0
4882,902,-1087,1,4842.0,4775.0,963.0,1016.0,-1042.0,-974.0
4869,882,-1140,1,4882.0,4842.0,902.0,963.0,-1087.0,-1042.0
4805,900,-1213,1,4869.0,4882.0,882.0,902.0,-1140.0,-1087.0
4686,927,-1291,1,4805.0,4869.0,900.0,882.0,-1213.0,-1140.0
4543,961,-1346,1,4686.0,4805.0,927.0,900.0,-1291.0,-1213.0
4397,1003,-1362,1,4543.0,4686.0,961.0,927.0,-1346.0,-1291.0
4259,1031,-1342,1,4397.0,4543.0,1003.0,961.0,-1362.0,-1346.0
4128,1029,-1300,1,4259.0,4397.0,1031.0,1003.0,-1342.0,-1362.0
4009,1015,-1246,1,4128.0,4259.0,1029.0,1031.0,-1300.0,-1342.0
3894,963,-1192,1,4009.0,4128.0,1015.0,1029.0,-1246.0,-1300.0
3802,888,-1150,1,3894.0,4009.0,963.0,1015.0,-1192.0,-1246.0
3717,823,-1123,1,3802.0,3894.0,888.0,963.0,-1150.0,-1192.0
3663,726,-1122,1,3717.0,3802.0,823.0,888.0,-1123.0,-1150.0
3642,647,-1127,1,3663.0,3717.0,726.0,823.0,-1122.0,-1123.0
3651,561,-1152,1,3642.0,3663.0,647.0,726.0,-1127.0,-1122.0
3688,494,-1206,1,3651.0,3642.0,561.0,647.0,-1152.0,-1127.0
3739,452,-1254,1,3688.0,3651.0,494.0,561.0,-1206.0,-1152.0
3818,308,-1324,1,3739.0,3688.0,452.0,494.0,-1254.0,-1206.0
3891,230,-1373,1,3818.0,3739.0,308.0,452.0,-1324.0,-1254.0
3959,200,-1409,1,3891.0,3818.0,230.0,308.0,-1373.0,-1324.0
4014,183,-1438,1,3959.0,3891.0,200.0,230.0,-1409.0,-1373.0
4056,178,-1449,1,4014.0,3959.0,183.0,200.0,-1438.0,-1409.0
4078,192,-1449,1,4056.0,4014.0,178.0,183.0,-1449.0,-1438.0
4082,180,-1449,1,4078.0,4056.0,192.0,178.0,-1449.0,-1449.0
4090,180,-1445,1,4082.0,4078.0,180.0,192.0,-1449.0,-1449.0
4089,177,-1433,1,4090.0,4082.0,180.0,180.0,-1445.0,-1449.0
4074,169,-1401,1,4089.0,4090.0,177.0,180.0,-1433.0,-1445.0
4036,198,-1374,1,4074.0,4089.0,169.0,177.0,-1401.0,-1433.0
3978,235,-1364,1,4036.0,4074.0,198.0,169.0,-1374.0,-1401.0
3922,280,-1379,1,3978.0,4036.0,235.0,198.0,-1364.0,-1374.0
3879,338,-1433,1,3922.0,3978.0,280.0,235.0,-1379.0,-1364.0
3834,380,-1502,1,3879.0,3922.0,338.0,280.0,-1433.0,-1379.0
3760,396,-1593,1,3834.0,3879.0,380.0,338.0,-1502.0,-1433.0
3707,417,-1642,1,3760.0,3834.0,396.0,380.0,-1593.0,-1502.0
3677,407,-1663,1,3707.0,3760.0,417.0,396.0,-1642.0,-1593.0
3656,406,-1685,1,3677.0,3707.0,407.0,417.0,-1663.0,-1642.0
3685,437,-1665,1,3656.0,3677.0,406.0,407.0,-1685.0,-1663.0
3722,450,-1624,1,3685.0,3656.0,437.0,406.0,-1665.0,-1685.0
3740,439,-1609,1,3722.0,3685.0,450.0,437.0,-1624.0,-1665.0
3749,422,-1593,1,3740.0,3722.0,439.0,450.0,-1609.0,-1624.0
3748,406,-1608,1,3749.0,3740.0,422.0,439.0,-1593.0,-1609.0
3733,394,-1619,1,3748.0,3749.0,406.0,422.0,-1608.0,-1593.0
3747,356,-1639,1,3733.0,3748.0,394.0,406.0,-1619.0,-1608.0
3743,339,-1658,1,3747.0,3733.0,356.0,394.0,-1639.0,-1619.0
3725,328,-1698,1,3743.0,3747.0,339.0,356.0,-1658.0,-1639.0
3719,358,-1723,1,3725.0,3743.0,328.0,339.0,-1698.0,-1658.0
3706,389,-1754,1,3719.0,3725.0,358.0,328.0,-1723.0,-1698.0
3677,501,-1735,1,3706.0,3719.0,389.0,358.0,-1754.0,-1723.0
3671,479,-1767,1,3677.0,3706.0,501.0,389.0,-1735.0,-1754.0
3704,464,-1760,1,3671.0,3677.0,479.0,501.0,-1767.0,-1735.0
3726,470,-1733,1,3704.0,3671.0,464.0,479.0,-1760.0,-1767.0
3749,457,-1713,1,3726.0,3704.0,470.0,464.0,-1733.0,-1760.0
3747,450,-1719,1,3749.0,3726.0,457.0,470.0,-1713.0,-1733.0
3734,450,-1729,1,3747.0,3749.0,450.0,457.0,-1719.0,-1713.0
3731,466,-1718,1,3734.0,3747.0,450.0,450.0,-1729.0,-1719.0
3731,454,-1725,1,3731.0,3734.0,466.0,450.0,-1718.0,-1729.0
3729,456,-1745,1,3731.0,3731.0,454.0,466.0,-1725.0,-1718.0
3726,473,-1746,1,3729.0,3731.0,456.0,454.0,-1745.0,-1725.0
3729,482,-1747,1,3726.0,3729.0,473.0,456.0,-1746.0,-1745.0
3743,459,-1742,1,3729.0,3726.0,482.0,473.0,-1747.0,-1746.0
3747,460,-1729,1,3743.0,3729.0,459.0,482.0,-1742.0,-1747.0
3765,442,-1720,1,3747.0,3743.0,460.0,459.0,-1729.0,-1742.0
3774,455,-1693,1,3765.0,3747.0,442.0,460.0,-1720.0,-1729.0
3765,444,-1688,1,3774.0,3765.0,455.0,442.0,-1693.0,-1720.0
3760,459,-1677,1,3765.0,3774.0,444.0,455.0,-1688.0,-1693.0
3738,422,-1677,1,3760.0,3765.0,459.0,444.0,-1677.0,-1688.0
3686,351,-1705,1,3738.0,3760.0,422.0,459.0,-1677.0,-1677.0
3649,332,-1719,1,3686.0,3738.0,351.0,422.0,-1705.0,-1677.0
3615,266,-1745,1,3649.0,3686.0,332.0,351.0,-1719.0,-1705.0
3579,217,-1732,1,3615.0,3649.0,266.0,332.0,-1745.0,-1719.0
3559,205,-1723,1,3579.0,3615.0,217.0,266.0,-1732.0,-1745.0
3544,221,-1708,1,3559.0,3579.0,205.0,217.0,-1723.0,-1732.0
3526,206,-1704,1,3544.0,3559.0,221.0,205.0,-1708.0,-1723.0
3546,192,-1695,1,3526.0,3544.0,206.0,221.0,-1704.0,-1708.0
3570,171,-1705,1,3546.0,3526.0,192.0,206.0,-1695.0,-1704.0
3585,128,-1704,1,3570.0,3546.0,171.0,192.0,-1705.0,-1695.0
3582,93,-1711,1,3585.0,3570.0,128.0,171.0,-1704.0,-1705.0
3567,65,-1720,1,3582.0,3585.0,93.0,128.0,-1711.0,-1704.0
3542,41,-1731,1,3567.0,3582.0,65.0,93.0,-1720.0,-1711.0
3512,27,-1736,1,3542.0,3567.0,41.0,65.0,-1731.0,-1720.0
3483,19,-1745,1,3512.0,3542.0,27.0,41.0,-1736.0,-1731.0
3456,43,-1747,1,3483.0,3512.0,19.0,27.0,-1745.0,-1736.0
3411,76,-1787,1,3456.0,3483.0,43.0,19.0,-1747.0,-1745.0
3335,246,-1917,1,3411.0,3456.0,76.0,43.0,-1787.0,-1747.0
3308,252,-1980,1,3335.0,3411.0,246.0,76.0,-1917.0,-1787.0
3243,239,-1989,1,3308.0,3335.0,252.0,246.0,-1980.0,-1917.0
3197,282,-2011,1,3243.0,3308.0,239.0,252.0,-1989.0,-1980.0
3169,329,-1993,1,3197.0,3243.0,282.0,239.0,-2011.0,-1989.0
3074,379,-2015,1,3169.0,3197.0,329.0,282.0,-1993.0,-2011.0
2998,444,-2028,1,3074.0,3169.0,379.0,329.0,-2015.0,-1993.0
2960,497,-2026,1,2998.0,3074.0,444.0,379.0,-2028.0,-2015.0
2936,609,-2040,1,2960.0,2998.0,497.0,444.0,-2026.0,-2028.0
2948,654,-2025,1,2936.0,2960.0,609.0,497.0,-2040.0,-2026.0
2951,736,-2061,1,2948.0,2936.0,654.0,609.0,-2025.0,-2040.0
3053,852,-2090,1,2951.0,2948.0,736.0,654.0,-2061.0,-2025.0
3259,889,-2070,1,3053.0,2951.0,852.0,736.0,-2090.0,-2061.0
3340,902,-2130,1,3259.0,3053.0,889.0,852.0,-2070.0,-2090.0
3340,928,-2208,1,3340.0,3259.0,902.0,889.0,-2130.0,-2070.0
3238,977,-2270,1,3340.0,3340.0,928.0,902.0,-2208.0,-2130.0
2947,960,-2342,1,3238.0,3340.0,977.0,928.0,-2270.0,-2208.0
2927,1158,-2224,1,2947.0,3238.0,960.0,977.0,-2342.0,-2270.0
3054,1181,-2113,1,2927.0,2947.0,1158.0,960.0,-2224.0,-2342.0
3387,1431,-2290,1,3054.0,2927.0,1181.0,1158.0,-2113.0,-2224.0
3528,2014,-3335,1,3387.0,3054.0,1431.0,1181.0,-2290.0,-2113.0
3522,3377,-3922,1,3528.0,3387.0,2014.0,1431.0,-3335.0,-2290.0
3488,4326,-4292,1,3522.0,3528.0,3377.0,2014.0,-3922.0,-3335.0
3683,4364,-4357,1,3488.0,3522.0,4326.0,3377.0,-4292.0,-3922.0
4015,3867,-3930,1,3683.0,3488.0,4364.0,4326.0,-4357.0,-4292.0
4294,3477,-3167,1,4015.0,3683.0,3867.0,4364.0,-3930.0,-4357.0
4592,3112,-2445,1,4294.0,4015.0,3477.0,3867.0,-3167.0,-3930.0
4808,2538,-2038,1,4592.0,4294.0,3112.0,3477.0,-2445.0,-3167.0
5034,1548,-1663,1,4808.0,4592.0,2538.0,3112.0,-2038.0,-2445.0
5356,758,-1306,1,5034.0,4808.0,1548.0,2538.0,-1663.0,-2038.0
5735,441,-1274,1,5356.0,5034.0,758.0,1548.0,-1306.0,-1663.0
6007,563,-1566,1,5735.0,5356.0,441.0,758.0,-1274.0,-1306.0
6183,872,-1799,1,6007.0,5735.0,563.0,441.0,-1566.0,-1274.0
6405,1039,-1908,1,6183.0,6007.0,872.0,563.0,-1799.0,-1566.0
6570,965,-2028,1,6405.0,6183.0,1039.0,872.0,-1908.0,-1799.0
6635,803,-2174,1,6570.0,6405.0,965.0,1039.0,-2028.0,-1908.0
6618,697,-2247,1,6635.0,6570.0,803.0,965.0,-2174.0,-2028.0
6333,667,-2220,1,6618.0,6635.0,697.0,803.0,-2247.0,-2174.0
5723,749,-2233,1,6333.0,6618.0,667.0,697.0,-2220.0,-2247.0
5159,817,-2266,1,5723.0,6333.0,749.0,667.0,-2233.0,-2220.0
4673,850,-2190,1,5159.0,5723.0,817.0,749.0,-2266.0,-2233.0
3996,872,-2064,1,4673.0,5159.0,850.0,817.0,-2190.0,-2266.0
3273,837,-2119,1,3996.0,4673.0,872.0,850.0,-2064.0,-2190.0
2713,1081,-2111,1,3273.0,3996.0,837.0,872.0,-2119.0,-2064.0
2303,1261,-2012,1,2713.0,3273.0,1081.0,837.0,-2111.0,-2119.0
2134,1396,-1912,1,2303.0,2713.0,1261.0,1081.0,-2012.0,-2111.0
2220,1558,-1648,1,2134.0,2303.0,1396.0,1261.0,-1912.0,-2012.0
2349,1614,-1371,1,2220.0,2134.0,1558.0,1396.0,-1648.0,-1912.0
2496,1630,-1092,1,2349.0,2220.0,1614.0,1558.0,-1371.0,-1648.0
2680,1599,-864,1,2496.0,2349.0,1630.0,1614.0,-1092.0,-1371.0
2909,1576,-636,1,2680.0,2496.0,1599.0,1630.0,-864.0,-1092.0
3156,1532,-453,1,2909.0,2680.0,1576.0,1599.0,-636.0,-864.0
3351,1433,-337,1,3156.0,2909.0,1532.0,1576.0,-453.0,-636.0
3495,1318,-249,1,3351.0,3156.0,1433.0,1532.0,-337.0,-453.0
3606,1233,-174,1,3495.0,3351.0,1318.0,1433.0,-249.0,-337.0
3660,1124,-163,1,3606.0,3495.0,1233.0,1318.0,-174.0,-249.0
3724,1091,-100,1,3660.0,3606.0,1124.0,1233.0,-163.0,-174.0
3711,1065,-83,1,3724.0,3660.0,1091.0,1124.0,-100.0,-163.0
3726,1061,-75,1,3711.0,3724.0,1065.0,1091.0,-83.0,-100.0
3758,1028,-65,1,3726.0,3711.0,1061.0,1065.0,-75.0,-83.0
3774,977,-79,1,3758.0,3726.0,1028.0,1061.0,-65.0,-75.0
3749,938,-128,1,3774.0,3758.0,977.0,1028.0,-79.0,-65.0
3722,909,-180,1,3749.0,3774.0,938.0,977.0,-128.0,-79.0
3616,931,-260,1,3722.0,3749.0,909.0,938.0,-180.0,-128.0
3535,930,-302,1,3616.0,3722.0,931.0,909.0,-260.0,-180.0
3483,968,-304,1,3535.0,3616.0,930.0,931.0,-302.0,-260.0
3427,1033,-316,1,3483.0,3535.0,968.0,930.0,-304.0,-302.0
3384,1119,-316,1,3427.0,3483.0,1033.0,968.0,-316.0,-304.0
3348,1223,-316,1,3384.0,3427.0,1119.0,1033.0,-316.0,-316.0
3330,1323,-321,1,3348.0,3384.0,1223.0,1119.0,-316.0,-316.0
3323,1402,-332,1,3330.0,3348.0,1323.0,1223.0,-321.0,-316.0
3328,1466,-340,1,3323.0,3330.0,1402.0,1323.0,-332.0,-321.0
3333,1395,-415,1,3328.0,3323.0,1466.0,1402.0,-340.0,-332.0
3329,1537,-383,1,3333.0,3328.0,1395.0,1466.0,-415.0,-340.0
3317,1573,-386,1,3329.0,3333.0,1537.0,1395.0,-383.0,-415.0
3262,1625,-430,1,3317.0,3329.0,1573.0,1537.0,-386.0,-383.0
3217,1640,-486,1,3262.0,3317.0,1625.0,1573.0,-430.0,-386.0
3154,1652,-561,1,3217.0,3262.0,1640.0,1625.0,-486.0,-430.0
3090,1654,-629,1,3154.0,3217.0,1652.0,1640.0,-561.0,-486.0
3019,1647,-686,1,3090.0,3154.0,1654.0,1652.0,-629.0,-561.0
2928,1627,-739,1,3019.0,3090.0,1647.0,1654.0,-686.0,-629.0
2826,1597,-794,1,2928.0,3019.0,1627.0,1647.0,-739.0,-686.0
2730,1528,-881,1,2826.0,2928.0,1597.0,1627.0,-794.0,-739.0
2661,1469,-949,1,2730.0,2826.0,1528.0,1597.0,-881.0,-794.0
2654,1409,-1011,1,2661.0,2730.0,1469.0,1528.0,-949.0,-881.0
2748,1305,-1096,1,2654.0,2661.0,1409.0,1469.0,-1011.0,-949.0
2843,1297,-1112,1,2748.0,2654.0,1305.0,1409.0,-1096.0,-1011.0
2935,1282,-1116,1,2843.0,2748.0,1297.0,1305.0,-1112.0,-1096.0
3017,1223,-1164,1,2935.0,2843.0,1282.0,1297.0,-1116.0,-1112.0
3082,1184,-1169,1,3017.0,2935.0,1223.0,1282.0,-1164.0,-1116.0
3111,1136,-1196,1,3082.0,3017.0,1184.0,1223.0,-1169.0,-1164.0
3093,1091,-1249,1,3111.0,3082.0,1136.0,1184.0,-1196.0,-1169.0
3068,1076,-1325,1,3093.0,3111.0,1091.0,1136.0,-1249.0,-1196.0
3036,1087,-1418,1,3068.0,3093.0,1076.0,1091.0,-1325.0,-1249.0
3000,1090,-1506,1,3036.0,3068.0,1087.0,1076.0,-1418.0,-1325.0
2980,1061,-1582,1,3000.0,3036.0,1090.0,1087.0,-1506.0,-1418.0
2980,1026,-1622,1,2980.0,3000.0,1061.0,1090.0,-1582.0,-1506.0
2939,959,-1666,1,2980.0,2980.0,1026.0,1061.0,-1622.0,-1582.0
2919,897,-1670,1,2939.0,2980.0,959.0,1026.0,-1666.0,-1622.0
2939,839,-1648,1,2919.0,2939.0,897.0,959.0,-1670.0,-1666.0
2891,811,-1787,1,2939.0,2919.0,839.0,897.0,-1648.0,-1670.0
2450,1267,-3061,1,2891.0,2939.0,811.0,839.0,-1787.0,-1648.0
1641,2733,-5426,1,2450.0,2891.0,1267.0,811.0,-3061.0,-1787.0
2202,2965,-5336,1,1641.0,2450.0,2733.0,1267.0,-5426.0,-3061.0
3341,2025,-5514,1,2202.0,1641.0,2965.0,2733.0,-5336.0,-5426.0
4882,1613,-5340,1,3341.0,2202.0,2025.0,2965.0,-5514.0,-5336.0
5579,1334,-5502,1,4882.0,3341.0,1613.0,2025.0,-5340.0,-5514.0
6790,575,-5936,1,5579.0,4882.0,1334.0,1613.0,-5502.0,-5340.0
7638,506,-6905,1,6790.0,5579.0,575.0,1334.0,-5936.0,-5502.0
7264,742,-7570,1,7638.0,6790.0,506.0,575.0,-6905.0,-5936.0
6863,808,-7124,1,7264.0,7638.0,742.0,506.0,-7570.0,-6905.0
6851,652,-5990,1,6863.0,7264.0,808.0,742.0,-7124.0,-7570.0
6782,1186,-4481,1,6851.0,6863.0,652.0,808.0,-5990.0,-7124.0
6672,1898,-3044,1,6782.0,6851.0,1186.0,652.0,-4481.0,-5990.0
6177,2400,-2261,1,6672.0,6782.0,1898.0,1186.0,-3044.0,-4481.0
5287,3001,-1729,1,6177.0,6672.0,2400.0,1898.0,-2261.0,-3044.0
4652,2868,-1418,1,5287.0,6177.0,3001.0,2400.0,-1729.0,-2261.0
4055,2821,-1112,1,4652.0,5287.0,2868.0,3001.0,-1418.0,-1729.0
4013,2794,-917,1,4055.0,4652.0,2821.0,2868.0,-1112.0,-1418.0
4216,2401,-1069,1,4013.0,4055.0,2794.0,2821.0,-917.0,-1112.0
3897,1975,-1537,1,4216.0,4013.0,2401.0,2794.0,-1069.0,-917.0
3351,1641,-2198,1,3897.0,4216.0,1975.0,2401.0,-1537.0,-1069.0
2986,1398,-2810,1,3351.0,3897.0,1641.0,1975.0,-2198.0,-1537.0
2875,1057,-3242,1,2986.0,3351.0,1398.0,1641.0,-2810.0,-2198.0
2792,621,-3567,1,2875.0,2986.0,1057.0,1398.0,-3242.0,-2810.0
2688,330,-3793,1,2792.0,2875.0,621.0,1057.0,-3567.0,-3242.0
2704,125,-3915,1,2688.0,2792.0,330.0,621.0,-3793.0,-3567.0
2870,-14,-3878,1,2704.0,2688.0,125.0,330.0,-3915.0,-3793.0
3075,-171,-3776,1,2870.0,2704.0,-14.0,125.0,-3878.0,-3915.0
3190,-319,-3613,1,3075.0,2870.0,-171.0,-14.0,-3776.0,-3878.0
3223,-454,-3438,1,3190.0,3075.0,-319.0,-171.0,-3613.0,-3776.0
3230,-495,-3252,1,3223.0,3190.0,-454.0,-319.0,-3438.0,-3613.0
3227,-449,-3057,1,3230.0,3223.0,-495.0,-454.0,-3252.0,-3438.0
3238,-403,-2890,1,3227.0,3230.0,-449.0,-495.0,-3057.0,-3252.0
3258,-327,-2728,1,3238.0,3227.0,-403.0,-449.0,-2890.0,-3057.0
3258,-218,-2524,1,3258.0,3238.0,-327.0,-403.0,-2728.0,-2890.0
3244,-134,-2331,1,3258.0,3258.0,-218.0,-327.0,-2524.0,-2728.0
3211,-49,-2148,1,3244.0,3258.0,-134.0,-218.0,-2331.0,-2524.0
3174,40,-1977,1,3211.0,3244.0,-49.0,-134.0,-2148.0,-2331.0
3092,109,-1841,1,3174.0,3211.0,40.0,-49.0,-1977.0,-2148.0
2982,168,-1740,1,3092.0,3174.0,109.0,40.0,-1841.0,-1977.0
2900,228,-1644,1,2982.0,3092.0,168.0,109.0,-1740.0,-1841.0
2808,261,-1576,1,2900.0,2982.0,228.0,168.0,-1644.0,-1740.0
2739,294,-1499,1,2808.0,2900.0,261.0,228.0,-1576.0,-1644.0
2665,273,-1461,1,2739.0,2808.0,294.0,261.0,-1499.0,-1576.0
2581,216,-1483,1,2665.0,2739.0,273.0,294.0,-1461.0,-1499.0
2502,156,-1529,1,2581.0,2665.0,216.0,273.0,-1483.0,-1461.0
2437,75,-1608,1,2502.0,2581.0,156.0,216.0,-1529.0,-1483.0
2384,29,-1728,1,2437.0,2502.0,75.0,156.0,-1608.0,-1529.0
2346,-13,-1874,1,2384.0,2437.0,29.0,75.0,-1728.0,-1608.0
2327,-36,-2011,1,2346.0,2384.0,-13.0,29.0,-1874.0,-1728.0
2328,-64,-2106,1,2327.0,2346.0,-36.0,-13.0,-2011.0,-1874.0
2305,-100,-2175,1,2328.0,2327.0,-64.0,-36.0,-2106.0,-2011.0
2268,-130,-2228,1,2305.0,2328.0,-100.0,-64.0,-2175.0,-2106.0
2231,-152,-2266,1,2268.0,2305.0,-130.0,-100.0,-2228.0,-2175.0
2205,-168,-2306,1,2231.0,2268.0,-152.0,-130.0,-2266.0,-2228.0
2184,-197,-2337,1,2205.0,2231.0,-168.0,-152.0,-2306.0,-2266.0
2181,-200,-2357,1,2184.0,2205.0,-197.0,-168.0,-2337.0,-2306.0
2184,-197,-2381,1,2181.0,2184.0,-200.0,-197.0,-2357.0,-2337.0
2196,-172,-2383,1,2184.0,2181.0,-197.0,-200.0,-2381.0,-2357.0
2203,-120,-2377,1,2196.0,2184.0,-172.0,-197.0,-2383.0,-2381.0
2218,-57,-2357,1,2203.0,2196.0,-120.0,-172.0,-2377.0,-2383.0
2243,6,-2331,1,2218.0,2203.0,-57.0,-120.0,-2357.0,-2377.0
2275,85,-2285,1,2243.0,2218.0,6.0,-57.0,-2331.0,-2357.0
2296,166,-2232,1,2275.0,2243.0,85.0,6.0,-2285.0,-2331.0
2328,241,-2185,1,2296.0,2275.0,166.0,85.0,-2232.0,-2285.0
2372,337,-2137,1,2328.0,2296.0,241.0,166.0,-2185.0,-2232.0
2403,441,-2096,1,2372.0,2328.0,337.0,241.0,-2137.0,-2185.0
2445,531,-2076,1,2403.0,2372.0,441.0,337.0,-2096.0,-2137.0
2472,597,-2081,1,2445.0,2403.0,531.0,441.0,-2076.0,-2096.0
2465,668,-2108,1,2472.0,2445.0,597.0,531.0,-2081.0,-2076.0
2462,714,-2137,1,2465.0,2472.0,668.0,597.0,-2108.0,-2081.0
2464,779,-2171,1,2462.0,2465.0,714.0,668.0,-2137.0,-2108.0
2489,836,-2208,1,2464.0,2462.0,779.0,714.0,-2171.0,-2137.0
2508,896,-2255,1,2489.0,2464.0,836.0,779.0,-2208.0,-2171.0
2528,935,-2306,1,2508.0,2489.0,896.0,836.0,-2255.0,-2208.0
2559,1001,-2341,1,2528.0,2508.0,935.0,896.0,-2306.0,-2255.0
2604,1069,-2355,1,2559.0,2528.0,1001.0,935.0,-2341.0,-2306.0
2619,1150,-2374,1,2604.0,2559.0,1069.0,1001.0,-2355.0,-2341.0
2581,1248,-2467,1,2619.0,2604.0,1150.0,1069.0,-2374.0,-2355.0
2492,1448,-2692,1,2581.0,2619.0,1248.0,1150.0,-2467.0,-2374.0
2263,1900,-3313,1,2492.0,2581.0,1448.0,1248.0,-2692.0,-2467.0
2164,2847,-4073,1,2263.0,2492.0,1900.0,1448.0,-3313.0,-2692.0
2382,4141,-4427,1,2164.0,2263.0,2847.0,1900.0,-4073.0,-3313.0
2587,5048,-4647,1,2382.0,2164.0,4141.0,2847.0,-4427.0,-4073.0
2699,5350,-4721,1,2587.0,2382.0,5048.0,4141.0,-4647.0,-4427.0
2789,5596,-4270,1,2699.0,2587.0,5350.0,5048.0,-4721.0,-4647.0
2844,5569,-3194,1,2789.0,2699.0,5596.0,5350.0,-4270.0,-4721.0
2756,4719,-2305,1,2844.0,2789.0,5569.0,5596.0,-3194.0,-4270.0
2538,3478,-1620,1,2756.0,2844.0,4719.0,5569.0,-2305.0,-3194.0
2582,2213,-941,1,2538.0,2756.0,3478.0,4719.0,-1620.0,-2305.0
2913,1459,-389,1,2582.0,2538.0,2213.0,3478.0,-941.0,-1620.0
3349,1029,-53,1,2913.0,2582.0,1459.0,2213.0,-389.0,-941.0
3753,708,-152,1,3349.0,2913.0,1029.0,1459.0,-53.0,-389.0
4056,425,-697,1,3753.0,3349.0,708.0,1029.0,-152.0,-53.0
4205,101,-1636,1,4056.0,3753.0,425.0,708.0,-697.0,-152.0
4315,-134,-2672,1,4205.0,4056.0,101.0,425.0,-1636.0,-697.0
4382,-271,-3673,1,4315.0,4205.0,-134.0,101.0,-2672.0,-1636.0
4338,-57,-4428,1,4382.0,4315.0,-271.0,-134.0,-3673.0,-2672.0
4309,405,-4748,1,4338.0,4382.0,-57.0,-271.0,-4428.0,-3673.0
4190,1061,-4618,1,4309.0,4338.0,405.0,-57.0,-4748.0,-4428.0
4068,1468,-4261,1,4190.0,4309.0,1061.0,405.0,-4618.0,-4748.0
3915,1731,-3814,1,4068.0,4190.0,1468.0,1061.0,-4261.0,-4618.0
3760,1865,-3393,1,3915.0,4068.0,1731.0,1468.0,-3814.0,-4261.0
3285,2284,-2787,1,3760.0,3915.0,1865.0,1731.0,-3393.0,-3814.0
3067,2490,-2303,1,3285.0,3760.0,2284.0,1865.0,-2787.0,-3393.0
2618,2763,-1747,1,3067.0,3285.0,2490.0,2284.0,-2303.0,-2787.0
2120,3145,-1183,1,2618.0,3067.0,2763.0,2490.0,-1747.0,-2303.0
1888,3248,-679,1,2120.0,2618.0,3145.0,2763.0,-1183.0,-1747.0
1592,3189,-312,1,1888.0,2120.0,3248.0,3145.0,-679.0,-1183.0
1349,3231,-61,1,1592.0,1888.0,3189.0,3248.0,-312.0,-679.0
1272,3080,-28,1,1349.0,1592.0,3231.0,3189.0,-61.0,-312.0
1357,3044,-38,1,1272.0,1349.0,3080.0,3231.0,-28.0,-61.0
1454,2841,-97,1,1357.0,1272.0,3044.0,3080.0,-38.0,-28.0
1659,2575,-132,1,1454.0,1357.0,2841.0,3044.0,-97.0,-38.0
1884,2242,-171,1,1659.0,1454.0,2575.0,2841.0,-132.0,-97.0
2103,2014,-228,1,1884.0,1659.0,2242.0,2575.0,-171.0,-132.0
2172,1826,-247,1,2103.0,1884.0,2014.0,2242.0,-228.0,-171.0
2326,1494,-305,1,2172.0,2103.0,1826.0,2014.0,-247.0,-228.0
2488,1392,-290,1,2326.0,2172.0,1494.0,1826.0,-305.0,-247.0
2597,1343,-272,1,2488.0,2326.0,1392.0,1494.0,-290.0,-305.0
2608,1267,-314,1,2597.0,2488.0,1343.0,1392.0,-272.0,-290.0
2607,1288,-369,1,2608.0,2597.0,1267.0,1343.0,-314.0,-272.0
2604,1055,-546,1,2607.0,2608.0,1288.0,1267.0,-369.0,-314.0
2524,1276,-486,1,2604.0,2607.0,1055.0,1288.0,-546.0,-369.0
2487,1498,-338,1,2524.0,2604.0,1276.0,1055.0,-486.0,-546.0
2467,1461,-234,1,2487.0,2524.0,1498.0,1276.0,-338.0,-486.0
2393,1604,-162,1,2467.0,2487.0,1461.0,1498.0,-234.0,-338.0
2325,1766,-138,1,2393.0,2467.0,1604.0,1461.0,-162.0,-234.0
2248,1898,-124,1,2325.0,2393.0,1766.0,1604.0,-138.0,-162.0
2214,2015,-94,1,2248.0,2325.0,1898.0,1766.0,-124.0,-138.0
2121,2062,-125,1,2214.0,2248.0,2015.0,1898.0,-94.0,-124.0
2002,2220,-66,1,2121.0,2214.0,2062.0,2015.0,-125.0,-94.0
1766,2249,-70,1,2002.0,2121.0,2220.0,2062.0,-66.0,-125.0
1481,2671,-133,1,1766.0,2002.0,2249.0,2220.0,-70.0,-66.0
1575,2965,-86,1,1481.0,1766.0,2671.0,2249.0,-133.0,-70.0
1593,2778,-177,1,1575.0,1481.0,2965.0,2671.0,-86.0,-133.0
1422,2657,-340,1,1593.0,1575.0,2778.0,2965.0,-177.0,-86.0
1155,2457,-549,1,1422.0,1593.0,2657.0,2778.0,-340.0,-177.0
950,2226,-741,1,1155.0,1422.0,2457.0,2657.0,-549.0,-340.0
840,2127,-926,1,950.0,1155.0,2226.0,2457.0,-741.0,-549.0
873,1994,-1124,1,840.0,950.0,2127.0,2226.0,-926.0,-741.0
1021,1934,-1211,1,873.0,840.0,1994.0,2127.0,-1124.0,-926.0
1156,1835,-1261,1,1021.0,873.0,1934.0,1994.0,-1211.0,-1124.0
1250,1744,-1236,1,1156.0,1021.0,1835.0,1934.0,-1261.0,-1211.0
1374,1742,-1170,1,1250.0,1156.0,1744.0,1835.0,-1236.0,-1261.0
1509,1710,-1161,1,1374.0,1250.0,1742.0,1744.0,-1170.0,-1236.0
1656,1733,-1208,1,1509.0,1374.0,1710.0,1742.0,-1161.0,-1170.0
1789,1719,-1323,1,1656.0,1509.0,1733.0,1710.0,-1208.0,-1161.0
1928,1737,-1459,1,1789.0,1656.0,1719.0,1733.0,-1323.0,-1208.0
2047,1876,-1608,1,1928.0,1789.0,1737.0,1719.0,-1459.0,-1323.0
2115,1913,-1769,1,2047.0,1928.0,1876.0,1737.0,-1608.0,-1459.0
2166,2046,-1881,1,2115.0,2047.0,1913.0,1876.0,-1769.0,-1608.0
2098,2041,-2061,1,2166.0,2115.0,2046.0,1913.0,-1881.0,-1769.0
2054,2112,-2217,1,2098.0,2166.0,2041.0,2046.0,-2061.0,-1881.0
2023,2199,-2400,1,2054.0,2098.0,2112.0,2041.0,-2217.0,-2061.0
1945,2394,-2616,1,2023.0,2054.0,2199.0,2112.0,-2400.0,-2217.0
1854,2506,-2859,1,1945.0,2023.0,2394.0,2199.0,-2616.0,-2400.0
1840,2666,-3055,1,1854.0,1945.0,2506.0,2394.0,-2859.0,-2616.0
1968,2716,-3257,1,1840.0,1854.0,2666.0,2506.0,-3055.0,-2859.0
2123,2823,-3490,1,1968.0,1840.0,2716.0,2666.0,-3257.0,-3055.0
2290,2722,-3795,1,2123.0,1968.0,2823.0,2716.0,-3490.0,-3257.0
2387,2672,-4141,1,2290.0,2123.0,2722.0,2823.0,-3795.0,-3490.0
2584,2595,-4424,1,2387.0,2290.0,2672.0,2722.0,-4141.0,-3795.0
2884,2547,-4576,1,2584.0,2387.0,2595.0,2672.0,-4424.0,-4141.0
3178,2673,-4683,1,2884.0,2584.0,2547.0,2595.0,-4576.0,-4424.0
3355,2747,-4852,1,3178.0,2884.0,2673.0,2547.0,-4683.0,-4576.0
3466,2774,-4844,1,3355.0,3178.0,2747.0,2673.0,-4852.0,-4683.0
3549,2627,-4626,1,3466.0,3355.0,2774.0,2747.0,-4844.0,-4852.0
3594,2615,-4265,1,3549.0,3466.0,2627.0,2774.0,-4626.0,-4844.0
3577,2333,-4101,1,3594.0,3549.0,2615.0,2627.0,-4265.0,-4626.0
3630,2476,-3697,1,3577.0,3594.0,2333.0,2615.0,-4101.0,-4265.0
3695,2513,-3371,1,3630.0,3577.0,2476.0,2333.0,-3697.0,-4101.0
3714,2748,-2847,1,3695.0,3630.0,2513.0,2476.0,-3371.0,-3697.0
3680,2882,-2569,1,3714.0,3695.0,2748.0,2513.0,-2847.0,-3371.0
3741,2780,-2418,1,3680.0,3714.0,2882.0,2748.0,-2569.0,-2847.0
3788,2916,-2047,1,3741.0,3680.0,2780.0,2882.0,-2418.0,-2569.0
3859,2741,-1743,1,3788.0,3741.0,2916.0,2780.0,-2047.0,-2418.0
3878,2685,-1419,1,3859.0,3788.0,2741.0,2916.0,-1743.0,-2047.0
3783,2563,-1214,1,3878.0,3859.0,2685.0,2741.0,-1419.0,-1743.0
3681,2296,-1093,1,3783.0,3878.0,2563.0,2685.0,-1214.0,-1419.0
3658,2131,-955,1,3681.0,3783.0,2296.0,2563.0,-1093.0,-1214.0
3529,1839,-942,1,3658.0,3681.0,2131.0,2296.0,-955.0,-1093.0
3374,1523,-919,1,3529.0,3658.0,1839.0,2131.0,-942.0,-955.0
3193,1262,-930,1,3374.0,3529.0,1523.0,1839.0,-919.0,-942.0
3016,1136,-961,1,3193.0,3374.0,1262.0,1523.0,-930.0,-919.0
2857,1090,-1064,1,3016.0,3193.0,1136.0,1262.0,-961.0,-930.0
2768,1146,-1192,1,2857.0,3016.0,1090.0,1136.0,-1064.0,-961.0
2717,1269,-1311,1,2768.0,2857.0,1146.0,1090.0,-1192.0,-1064.0
2759,1351,-1475,1,2717.0,2768.0,1269.0,1146.0,-1311.0,-1192.0
2835,1487,-1655,1,2759.0,2717.0,1351.0,1269.0,-1475.0,-1311.0
2894,1591,-1848,1,2835.0,2759.0,1487.0,1351.0,-1655.0,-1475.0
2919,1735,-2041,1,2894.0,2835.0,1591.0,1487.0,-1848.0,-1655.0
2892,1900,-2291,1,2919.0,2894.0,1735.0,1591.0,-2041.0,-1848.0
2900,2115,-2398,1,2892.0,2919.0,1900.0,1735.0,-2291.0,-2041.0
2959,1876,-2632,1,2900.0,2892.0,2115.0,1900.0,-2398.0,-2291.0
3005,2016,-2700,1,2959.0,2900.0,1876.0,2115.0,-2632.0,-2398.0
3091,1646,-3063,1,3005.0,2959.0,2016.0,1876.0,-2700.0,-2632.0
3163,1923,-3167,1,3091.0,3005.0,1646.0,2016.0,-3063.0,-2700.0
3280,1823,-3350,1,3163.0,3091.0,1923.0,1646.0,-3167.0,-3063.0
3295,1955,-3312,1,3280.0,3163.0,1823.0,1923.0,-3350.0,-3167.0
3417,1859,-3302,1,3295.0,3280.0,1955.0,1823.0,-3312.0,-3350.0
3479,1951,-3172,1,3417.0,3295.0,1859.0,1955.0,-3302.0,-3312.0
3561,1806,-3134,1,3479.0,3417.0,1951.0,1859.0,-3172.0,-3302.0
3511,1771,-3111,1,3561.0,3479.0,1806.0,1951.0,-3134.0,-3172.0
3469,1767,-3054,1,3511.0,3561.0,1771.0,1806.0,-3111.0,-3134.0
3442,1775,-3042,1,3469.0,3511.0,1767.0,1771.0,-3054.0,-3111.0
3449,1932,-2940,1,3442.0,3469.0,1775.0,1767.0,-3042.0,-3054.0
3558,1620,-2958,1,3449.0,3442.0,1932.0,1775.0,-2940.0,-3042.0
3498,2019,-2820,1,3558.0,3449.0,1620.0,1932.0,-2958.0,-2940.0
3266,2094,-2777,1,3498.0,3558.0,2019.0,1620.0,-2820.0,-2958.0
2808,2213,-2585,1,3266.0,3498.0,2094.0,2019.0,-2777.0,-2820.0
2315,2166,-2432,1,2808.0,3266.0,2213.0,2094.0,-2585.0,-2777.0
1932,1899,-2290,1,2315.0,2808.0,2166.0,2213.0,-2432.0,-2585.0
1679,1697,-2191,1,1932.0,2315.0,1899.0,2166.0,-2290.0,-2432.0
1539,1777,-2002,1,1679.0,1932.0,1697.0,1899.0,-2191.0,-2290.0
1589,1615,-1842,1,1539.0,1679.0,1777.0,1697.0,-2002.0,-2191.0
1630,1823,-1537,1,1589.0,1539.0,1615.0,1777.0,-1842.0,-2002.0
1592,2340,-1215,1,1630.0,1589.0,1823.0,1615.0,-1537.0,-1842.0
1936,2956,-991,1,1592.0,1630.0,2340.0,1823.0,-1215.0,-1537.0
2491,3316,-982,1,1936.0,1592.0,2956.0,2340.0,-991.0,-1215.0
3041,3291,-1301,1,2491.0,1936.0,3316.0,2956.0,-982.0,-991.0
3343,3362,-1720,1,3041.0,2491.0,3291.0,3316.0,-1301.0,-982.0
3616,3409,-2071,1,3343.0,3041.0,3362.0,3291.0,-1720.0,-1301.0
3745,3418,-2599,1,3616.0,3343.0,3409.0,3362.0,-2071.0,-1720.0
2805,3128,-3057,1,3745.0,3616.0,3418.0,3409.0,-2599.0,-2071.0
2388,2815,-3176,1,2805.0,3745.0,3128.0,3418.0,-3057.0,-2599.0
2193,3003,-3486,1,2388.0,2805.0,2815.0,3128.0,-3176.0,-3057.0
1646,3042,-3392,1,2193.0,2388.0,3003.0,2815.0,-3486.0,-3176.0
1032,2885,-3606,1,1646.0,2193.0,3042.0,3003.0,-3392.0,-3486.0
448,3025,-3553,1,1032.0,1646.0,2885.0,3042.0,-3606.0,-3392.0
510,2981,-3263,1,448.0,1032.0,3025.0,2885.0,-3553.0,-3606.0
1535,2343,-2910,1,510.0,448.0,2981.0,3025.0,-3263.0,-3553.0
330,3002,-2909,1,1535.0,510.0,2343.0,2981.0,-2910.0,-3263.0
