accelerometer_x,accelerometer_y,accelerometer_z,fall,x_lag_1,x_lag_2,y_lag_1,y_lag_2,z_lag_1,z_lag_2
4071,365,273,0,,,,,,
4071,361,273,0,4071.0,,365.0,,273.0,
4066,359,282,0,4071.0,4071.0,361.0,365.0,273.0,273.0
4059,358,285,0,4066.0,4071.0,359.0,361.0,282.0,273.0
4055,361,290,0,4059.0,4066.0,358.0,359.0,285.0,282.0
4053,359,292,0,4055.0,4059.0,361.0,358.0,290.0,285.0
4050,357,296,0,4053.0,4055.0,359.0,361.0,292.0,290.0
4050,362,297,0,4050.0,4053.0,357.0,359.0,296.0,292.0
4050,365,298,0,4050.0,4050.0,362.0,357.0,297.0,296.0
4051,367,299,0,4050.0,4050.0,365.0,362.0,298.0,297.0
4047,362,299,0,4051.0,4050.0,367.0,365.0,299.0,298.0
4049,357,298,0,4047.0,4051.0,362.0,367.0,299.0,299.0
4049,350,298,0,4049.0,4047.0,357.0,362.0,298.0,299.0
4051,340,303,0,4049.0,4049.0,350.0,357.0,298.0,298.0
4057,330,303,0,4051.0,4049.0,340.0,350.0,303.0,298.0
4060,319,305,0,4057.0,4051.0,330.0,340.0,303.0,303.0
4057,308,305,0,4060.0,4057.0,319.0,330.0,305.0,303.0
4057,300,306,0,4057.0,4060.0,308.0,319.0,305.0,305.0
4058,297,303,0,4057.0,4057.0,300.0,308.0,306.0,305.0
4052,299,301,0,4058.0,4057.0,297.0,300.0,303.0,306.0
4049,300,294,0,4052.0,4058.0,299.0,297.0,301.0,303.0
4045,301,289,0,4049.0,4052.0,300.0,299.0,294.0,301.0
4047,302,286,0,4045.0,4049.0,301.0,300.0,289.0,294.0
4051,308,283,0,4047.0,4045.0,302.0,301.0,286.0,289.0
4053,311,285,0,4051.0,4047.0,308.0,302.0,283.0,286.0
4057,310,287,0,4053.0,4051.0,311.0,308.0,285.0,283.0
4059,314,287,0,4057.0,4053.0,310.0,311.0,287.0,285.0
4063,315,287,0,4059.0,4057.0,314.0,310.0,287.0,287.0
4066,317,289,0,4063.0,4059.0,315.0,314.0,287.0,287.0
4062,314,298,0,4066.0,4063.0,317.0,315.0,289.0,287.0
4058,311,300,0,4062.0,4066.0,314.0,317.0,298.0,289.0
4053,303,295,0,4058.0,4062.0,311.0,314.0,300.0,298.0
4046,293,289,0,4053.0,4058.0,303.0,311.0,295.0,300.0
4033,280,288,0,4046.0,4053.0,293.0,303.0,289.0,295.0
4031,275,287,0,4033.0,4046.0,280.0,293.0,288.0,289.0
4027,266,286,0,4031.0,4033.0,275.0,280.0,287.0,288.0
4023,260,282,0,4027.0,4031.0,266.0,275.0,286.0,287.0
4019,255,280,0,4023.0,4027.0,260.0,266.0,282.0,286.0
4015,255,279,0,4019.0,4023.0,255.0,260.0,280.0,282.0
4014,254,278,0,4015.0,4019.0,255.0,255.0,279.0,280.0
4020,258,277,0,4014.0,4015.0,254.0,255.0,278.0,279.0
4025,262,279,0,4020.0,4014.0,258.0,254.0,277.0,278.0
4033,268,273,0,4025.0,4020.0,262.0,258.0,279.0,277.0
4043,276,279,0,4033.0,4025.0,268.0,262.0,273.0,279.0
4048,279,275,0,4043.0,4033.0,276.0,268.0,279.0,273.0
4053,283,275,0,4048.0,4043.0,279.0,276.0,275.0,279.0
4058,288,271,0,4053.0,4048.0,283.0,279.0,275.0,275.0
4064,293,269,0,4058.0,4053.0,288.0,283.0,271.0,275.0
4067,297,265,0,4064.0,4058.0,293.0,288.0,269.0,271.0
4070,299,264,0,4067.0,4064.0,297.0,293.0,265.0,269.0
4073,300,260,0,4070.0,4067.0,299.0,297.0,264.0,265.0
4073,306,262,0,4073.0,4070.0,300.0,299.0,260.0,264.0
4067,311,263,0,4073.0,4073.0,306.0,300.0,262.0,260.0
4061,312,264,0,4067.0,4073.0,311.0,306.0,263.0,262.0
4056,313,264,0,4061.0,4067.0,312.0,311.0,264.0,263.0
4052,312,267,0,4056.0,4061.0,313.0,312.0,264.0,264.0
4042,308,270,0,4052.0,4056.0,312.0,313.0,267.0,264.0
4032,305,269,0,4042.0,4052.0,308.0,312.0,270.0,267.0
4027,303,276,0,4032.0,4042.0,305.0,308.0,269.0,270.0
4025,299,277,0,4027.0,4032.0,303.0,305.0,276.0,269.0
4026,295,281,0,4025.0,4027.0,299.0,303.0,277.0,276.0
4027,295,284,0,4026.0,4025.0,295.0,299.0,281.0,277.0
4024,293,282,0,4027.0,4026.0,295.0,295.0,284.0,281.0
4030,286,281,0,4024.0,4027.0,293.0,295.0,282.0,284.0
4033,282,280,0,4030.0,4024.0,286.0,293.0,281.0,282.0
4041,277,276,0,4033.0,4030.0,282.0,286.0,280.0,281.0
4047,272,274,0,4041.0,4033.0,277.0,282.0,276.0,280.0
4061,273,274,0,4047.0,4041.0,272.0,277.0,274.0,276.0
4069,271,276,0,4061.0,4047.0,273.0,272.0,274.0,274.0
4079,274,270,0,4069.0,4061.0,271.0,273.0,276.0,274.0
4084,278,267,0,4079.0,4069.0,274.0,271.0,270.0,276.0
4086,280,266,0,4084.0,4079.0,278.0,274.0,267.0,270.0
4084,282,265,0,4086.0,4084.0,280.0,278.0,266.0,267.0
4080,286,262,0,4084.0,4086.0,282.0,280.0,265.0,266.0
4079,290,261,0,4080.0,4084.0,286.0,282.0,262.0,265.0
4073,296,263,0,4079.0,4080.0,290.0,286.0,261.0,262.0
4067,303,267,0,4073.0,4079.0,296.0,290.0,263.0,261.0
4056,309,268,0,4067.0,4073.0,303.0,296.0,267.0,263.0
4049,314,267,0,4056.0,4067.0,309.0,303.0,268.0,267.0
4042,321,269,0,4049.0,4056.0,314.0,309.0,267.0,268.0
4029,333,265,0,4042.0,4049.0,321.0,314.0,269.0,267.0
4024,341,266,0,4029.0,4042.0,333.0,321.0,265.0,269.0
4022,344,269,0,4024.0,4029.0,341.0,333.0,266.0,265.0
4020,348,273,0,4022.0,4024.0,344.0,341.0,269.0,266.0
4027,350,274,0,4020.0,4022.0,348.0,344.0,273.0,269.0
4029,349,273,0,4027.0,4020.0,350.0,348.0,274.0,273.0
4036,355,274,0,4029.0,4027.0,349.0,350.0,273.0,274.0
4041,355,274,0,4036.0,4029.0,355.0,349.0,274.0,273.0
4046,359,276,0,4041.0,4036.0,355.0,355.0,274.0,274.0
4053,357,274,0,4046.0,4041.0,359.0,355.0,276.0,274.0
4058,359,273,0,4053.0,4046.0,357.0,359.0,274.0,276.0
4064,360,271,0,4058.0,4053.0,359.0,357.0,273.0,274.0
4066,359,269,0,4064.0,4058.0,360.0,359.0,271.0,273.0
4069,360,266,0,4066.0,4064.0,359.0,360.0,269.0,271.0
4069,358,269,0,4069.0,4066.0,360.0,359.0,266.0,269.0
4070,356,271,0,4069.0,4069.0,358.0,360.0,269.0,266.0
4068,358,270,0,4070.0,4069.0,356.0,358.0,271.0,269.0
4059,358,271,0,4068.0,4070.0,358.0,356.0,270.0,271.0
4052,361,274,0,4059.0,4068.0,358.0,358.0,271.0,270.0
4046,362,278,0,4052.0,4059.0,361.0,358.0,274.0,271.0
4042,365,274,0,4046.0,4052.0,362.0,361.0,278.0,274.0
4042,368,280,0,4042.0,4046.0,365.0,362.0,274.0,278.0
4038,371,284,0,4042.0,4042.0,368.0,365.0,280.0,274.0
4038,375,287,0,4038.0,4042.0,371.0,368.0,284.0,280.0
4042,376,291,0,4038.0,4038.0,375.0,371.0,287.0,284.0
4044,371,291,0,4042.0,4038.0,376.0,375.0,291.0,287.0
4047,371,291,0,4044.0,4042.0,371.0,376.0,291.0,291.0
4049,368,292,0,4047.0,4044.0,371.0,371.0,291.0,291.0
4057,373,290,0,4049.0,4047.0,368.0,371.0,292.0,291.0
4058,369,285,0,4057.0,4049.0,373.0,368.0,290.0,292.0
4060,366,285,0,4058.0,4057.0,369.0,373.0,285.0,290.0
4055,362,283,0,4060.0,4058.0,366.0,369.0,285.0,285.0
4053,361,286,0,4055.0,4060.0,362.0,366.0,283.0,285.0
4048,359,287,0,4053.0,4055.0,361.0,362.0,286.0,283.0
4041,361,287,0,4048.0,4053.0,359.0,361.0,287.0,286.0
4038,361,295,0,4041.0,4048.0,361.0,359.0,287.0,287.0
4032,358,293,0,4038.0,4041.0,361.0,361.0,295.0,287.0
4029,355,293,0,4032.0,4038.0,358.0,361.0,293.0,295.0
4022,354,297,0,4029.0,4032.0,355.0,358.0,293.0,293.0
4026,349,294,0,4022.0,4029.0,354.0,355.0,297.0,293.0
4031,349,293,0,4026.0,4022.0,349.0,354.0,294.0,297.0
4033,351,293,0,4031.0,4026.0,349.0,349.0,293.0,294.0
4038,348,292,0,4033.0,4031.0,351.0,349.0,293.0,293.0
4046,346,289,0,4038.0,4033.0,348.0,351.0,292.0,293.0
4056,350,288,0,4046.0,4038.0,346.0,348.0,289.0,292.0
4065,351,283,0,4056.0,4046.0,350.0,346.0,288.0,289.0
4070,355,280,0,4065.0,4056.0,351.0,350.0,283.0,288.0
4073,359,278,0,4070.0,4065.0,355.0,351.0,280.0,283.0
4072,363,277,0,4073.0,4070.0,359.0,355.0,278.0,280.0
4070,358,272,0,4072.0,4073.0,363.0,359.0,277.0,278.0
4069,358,275,0,4070.0,4072.0,358.0,363.0,272.0,277.0
4061,355,277,0,4069.0,4070.0,358.0,358.0,275.0,272.0
4053,350,280,0,4061.0,4069.0,355.0,358.0,277.0,275.0
4046,344,282,0,4053.0,4061.0,350.0,355.0,280.0,277.0
4036,342,282,0,4046.0,4053.0,344.0,350.0,282.0,280.0
4031,339,284,0,4036.0,4046.0,342.0,344.0,282.0,282.0
4028,338,286,0,4031.0,4036.0,339.0,342.0,284.0,282.0
4024,338,287,0,4028.0,4031.0,338.0,339.0,286.0,284.0
4023,335,289,0,4024.0,4028.0,338.0,338.0,287.0,286.0
4025,333,287,0,4023.0,4024.0,335.0,338.0,289.0,287.0
4027,339,287,0,4025.0,4023.0,333.0,335.0,287.0,289.0
4031,343,288,0,4027.0,4025.0,339.0,333.0,287.0,287.0
4036,346,292,0,4031.0,4027.0,343.0,339.0,288.0,287.0
4044,353,297,0,4036.0,4031.0,346.0,343.0,292.0,288.0
4049,361,299,0,4044.0,4036.0,353.0,346.0,297.0,292.0
4054,362,301,0,4049.0,4044.0,361.0,353.0,299.0,297.0
4058,353,305,0,4054.0,4049.0,362.0,361.0,301.0,299.0
4062,348,307,0,4058.0,4054.0,353.0,362.0,305.0,301.0
4068,338,304,0,4062.0,4058.0,348.0,353.0,307.0,305.0
4074,329,307,0,4068.0,4062.0,338.0,348.0,304.0,307.0
4072,322,312,0,4074.0,4068.0,329.0,338.0,307.0,304.0
4070,319,311,0,4072.0,4074.0,322.0,329.0,312.0,307.0
4063,320,307,0,4070.0,4072.0,319.0,322.0,311.0,312.0
4050,316,304,0,4063.0,4070.0,320.0,319.0,307.0,311.0
4043,319,299,0,4050.0,4063.0,316.0,320.0,304.0,307.0
4030,321,287,0,4043.0,4050.0,319.0,316.0,299.0,304.0
4023,324,273,0,4030.0,4043.0,321.0,319.0,287.0,299.0
4018,328,268,0,4023.0,4030.0,324.0,321.0,273.0,287.0
4020,333,266,0,4018.0,4023.0,328.0,324.0,268.0,273.0
4027,336,267,0,4020.0,4018.0,333.0,328.0,266.0,268.0
4035,342,269,0,4027.0,4020.0,336.0,333.0,267.0,266.0
4040,347,274,0,4035.0,4027.0,342.0,336.0,269.0,267.0
4044,350,275,0,4040.0,4035.0,347.0,342.0,274.0,269.0
4053,348,275,0,4044.0,4040.0,350.0,347.0,275.0,274.0
4056,349,266,0,4053.0,4044.0,348.0,350.0,275.0,275.0
4061,343,261,0,4056.0,4053.0,349.0,348.0,266.0,275.0
4064,341,260,0,4061.0,4056.0,343.0,349.0,261.0,266.0
4066,339,257,0,4064.0,4061.0,341.0,343.0,260.0,261.0
4067,343,259,0,4066.0,4064.0,339.0,341.0,257.0,260.0
4064,346,268,0,4067.0,4066.0,343.0,339.0,259.0,257.0
4062,351,273,0,4064.0,4067.0,346.0,343.0,268.0,259.0
4057,352,275,0,4062.0,4064.0,351.0,346.0,273.0,268.0
4053,355,272,0,4057.0,4062.0,352.0,351.0,275.0,273.0
4050,357,271,0,4053.0,4057.0,355.0,352.0,272.0,275.0
4049,358,270,0,4050.0,4053.0,357.0,355.0,271.0,272.0
4052,359,267,0,4049.0,4050.0,358.0,357.0,270.0,271.0
4049,357,265,0,4052.0,4049.0,359.0,358.0,267.0,270.0
4049,354,266,0,4049.0,4052.0,357.0,359.0,265.0,267.0
4054,349,272,0,4049.0,4049.0,354.0,357.0,266.0,265.0
4055,346,272,0,4054.0,4049.0,349.0,354.0,272.0,266.0
4050,340,269,0,4055.0,4054.0,346.0,349.0,272.0,272.0
4048,332,269,0,4050.0,4055.0,340.0,346.0,269.0,272.0
4041,329,264,0,4048.0,4050.0,332.0,340.0,269.0,269.0
4033,326,265,0,4041.0,4048.0,329.0,332.0,264.0,269.0
4028,322,265,0,4033.0,4041.0,326.0,329.0,265.0,264.0
4025,319,263,0,4028.0,4033.0,322.0,326.0,265.0,265.0
4018,319,259,0,4025.0,4028.0,319.0,322.0,263.0,265.0
4019,320,258,0,4018.0,4025.0,319.0,319.0,259.0,263.0
4023,322,257,0,4019.0,4018.0,320.0,319.0,258.0,259.0
4029,319,257,0,4023.0,4019.0,322.0,320.0,257.0,258.0
4037,324,253,0,4029.0,4023.0,319.0,322.0,257.0,257.0
4043,322,251,0,4037.0,4029.0,324.0,319.0,253.0,257.0
4044,324,252,0,4043.0,4037.0,322.0,324.0,251.0,253.0
4047,323,250,0,4044.0,4043.0,324.0,322.0,252.0,251.0
4050,320,252,0,4047.0,4044.0,323.0,324.0,250.0,252.0
4052,318,257,0,4050.0,4047.0,320.0,323.0,252.0,250.0
4050,314,262,0,4052.0,4050.0,318.0,320.0,257.0,252.0
4050,310,265,0,4050.0,4052.0,314.0,318.0,262.0,257.0
4045,301,265,0,4050.0,4050.0,310.0,314.0,265.0,262.0
4044,291,269,0,4045.0,4050.0,301.0,310.0,265.0,265.0
4042,281,274,0,4044.0,4045.0,291.0,301.0,269.0,265.0
4039,283,273,0,4042.0,4044.0,281.0,291.0,274.0,269.0
4043,282,272,0,4039.0,4042.0,283.0,281.0,273.0,274.0
4045,280,271,0,4043.0,4039.0,282.0,283.0,272.0,273.0
4044,287,273,0,4045.0,4043.0,280.0,282.0,271.0,272.0
4040,292,272,0,4044.0,4045.0,287.0,280.0,273.0,271.0
4043,302,274,0,4040.0,4044.0,292.0,287.0,272.0,273.0
4046,311,270,0,4043.0,4040.0,302.0,292.0,274.0,272.0
4048,315,267,0,4046.0,4043.0,311.0,302.0,270.0,274.0
4051,317,267,0,4048.0,4046.0,315.0,311.0,267.0,270.0
4056,313,270,0,4051.0,4048.0,317.0,315.0,267.0,267.0
4063,311,270,0,4056.0,4051.0,313.0,317.0,270.0,267.0
4065,307,269,0,4063.0,4056.0,311.0,313.0,270.0,270.0
4071,304,264,0,4065.0,4063.0,307.0,311.0,269.0,270.0
4078,302,260,0,4071.0,4065.0,304.0,307.0,264.0,269.0
4081,296,259,0,4078.0,4071.0,302.0,304.0,260.0,264.0
4086,293,260,0,4081.0,4078.0,296.0,302.0,259.0,260.0
4090,289,264,0,4086.0,4081.0,293.0,296.0,260.0,259.0
4087,287,270,0,4090.0,4086.0,289.0,293.0,264.0,260.0
4083,281,275,0,4087.0,4090.0,287.0,289.0,270.0,264.0
4079,278,275,0,4083.0,4087.0,281.0,287.0,275.0,270.0
4069,277,274,0,4079.0,4083.0,278.0,281.0,275.0,275.0
4063,282,276,0,4069.0,4079.0,277.0,278.0,274.0,275.0
4054,284,276,0,4063.0,4069.0,282.0,277.0,276.0,274.0
4048,290,281,0,4054.0,4063.0,284.0,282.0,276.0,276.0
4041,298,283,0,4048.0,4054.0,290.0,284.0,281.0,276.0
4035,306,282,0,4041.0,4048.0,298.0,290.0,283.0,281.0
4033,318,283,0,4035.0,4041.0,306.0,298.0,282.0,283.0
4031,331,281,0,4033.0,4035.0,318.0,306.0,283.0,282.0
4036,338,285,0,4031.0,4033.0,331.0,318.0,281.0,283.0
4037,350,285,0,4036.0,4031.0,338.0,331.0,285.0,281.0
4042,363,283,0,4037.0,4036.0,350.0,338.0,285.0,285.0
4048,373,281,0,4042.0,4037.0,363.0,350.0,283.0,285.0
4057,380,282,0,4048.0,4042.0,373.0,363.0,281.0,283.0
4064,384,280,0,4057.0,4048.0,380.0,373.0,282.0,281.0
4073,385,272,0,4064.0,4057.0,384.0,380.0,280.0,282.0
4076,376,270,0,4073.0,4064.0,385.0,384.0,272.0,280.0
4076,365,266,0,4076.0,4073.0,376.0,385.0,270.0,272.0
4075,363,262,0,4076.0,4076.0,365.0,376.0,266.0,270.0
4071,356,260,0,4075.0,4076.0,363.0,365.0,262.0,266.0
4067,355,259,0,4071.0,4075.0,356.0,363.0,260.0,262.0
4065,351,260,0,4067.0,4071.0,355.0,356.0,259.0,260.0
4056,353,263,0,4065.0,4067.0,351.0,355.0,260.0,259.0
4052,353,260,0,4056.0,4065.0,353.0,351.0,263.0,260.0
4047,358,260,0,4052.0,4056.0,353.0,353.0,260.0,263.0
4044,361,259,0,4047.0,4052.0,358.0,353.0,260.0,260.0
4043,365,256,0,4044.0,4047.0,361.0,358.0,259.0,260.0
4042,368,256,0,4043.0,4044.0,365.0,361.0,256.0,259.0
4043,369,254,0,4042.0,4043.0,368.0,365.0,256.0,256.0
4043,369,253,0,4043.0,4042.0,369.0,368.0,254.0,256.0
4050,366,254,0,4043.0,4043.0,369.0,369.0,253.0,254.0
4057,362,249,0,4050.0,4043.0,366.0,369.0,254.0,253.0
4062,360,247,0,4057.0,4050.0,362.0,366.0,249.0,254.0
4071,355,245,0,4062.0,4057.0,360.0,362.0,247.0,249.0
4073,348,244,0,4071.0,4062.0,355.0,360.0,245.0,247.0
4073,345,250,0,4073.0,4071.0,348.0,355.0,244.0,245.0
4070,343,254,0,4073.0,4073.0,345.0,348.0,250.0,244.0
4067,338,258,0,4070.0,4073.0,343.0,345.0,254.0,250.0
4060,335,261,0,4067.0,4070.0,338.0,343.0,258.0,254.0
4055,334,257,0,4060.0,4067.0,335.0,338.0,261.0,258.0
4048,336,256,0,4055.0,4060.0,334.0,335.0,257.0,261.0
4042,335,259,0,4048.0,4055.0,336.0,334.0,256.0,257.0
4040,335,261,0,4042.0,4048.0,335.0,336.0,259.0,256.0
4039,338,257,0,4040.0,4042.0,335.0,335.0,261.0,259.0
4040,342,258,0,4039.0,4040.0,338.0,335.0,257.0,261.0
4040,339,256,0,4040.0,4039.0,342.0,338.0,258.0,257.0
4044,345,251,0,4040.0,4040.0,339.0,342.0,256.0,258.0
4043,346,249,0,4044.0,4040.0,345.0,339.0,251.0,256.0
4045,347,250,0,4043.0,4044.0,346.0,345.0,249.0,251.0
4048,349,246,0,4045.0,4043.0,347.0,346.0,250.0,249.0
4051,350,244,0,4048.0,4045.0,349.0,347.0,246.0,250.0
4052,351,244,0,4051.0,4048.0,350.0,349.0,244.0,246.0
4050,353,241,0,4052.0,4051.0,351.0,350.0,244.0,244.0
4050,353,237,0,4050.0,4052.0,353.0,351.0,241.0,244.0
4051,353,234,0,4050.0,4050.0,353.0,353.0,237.0,241.0
4045,359,233,0,4051.0,4050.0,353.0,353.0,234.0,237.0
4040,359,229,0,4045.0,4051.0,359.0,353.0,233.0,234.0
4038,361,231,0,4040.0,4045.0,359.0,359.0,229.0,233.0
4039,364,229,0,4038.0,4040.0,361.0,359.0,231.0,229.0
4036,364,230,0,4039.0,4038.0,364.0,361.0,229.0,231.0
4036,365,233,0,4036.0,4039.0,364.0,364.0,230.0,229.0
4041,364,239,0,4036.0,4036.0,365.0,364.0,233.0,230.0
4046,358,240,0,4041.0,4036.0,364.0,365.0,239.0,233.0
4050,352,243,0,4046.0,4041.0,358.0,364.0,240.0,239.0
4060,346,246,0,4050.0,4046.0,352.0,358.0,243.0,240.0
4064,336,246,0,4060.0,4050.0,346.0,352.0,246.0,243.0
4069,329,243,0,4064.0,4060.0,336.0,346.0,246.0,246.0
4069,327,238,0,4069.0,4064.0,329.0,336.0,243.0,246.0
4068,324,234,0,4069.0,4069.0,327.0,329.0,238.0,243.0
4068,327,233,0,4068.0,4069.0,324.0,327.0,234.0,238.0
4066,336,235,0,4068.0,4068.0,327.0,324.0,233.0,234.0
4065,343,231,0,4066.0,4068.0,336.0,327.0,235.0,233.0
4067,350,233,0,4065.0,4066.0,343.0,336.0,231.0,235.0
4061,355,232,0,4067.0,4065.0,350.0,343.0,233.0,231.0
4061,361,237,0,4061.0,4067.0,355.0,350.0,232.0,233.0
4058,365,243,0,4061.0,4061.0,361.0,355.0,237.0,232.0
4053,363,251,0,4058.0,4061.0,365.0,361.0,243.0,237.0
4048,360,257,0,4053.0,4058.0,363.0,365.0,251.0,243.0
4043,347,261,0,4048.0,4053.0,360.0,363.0,257.0,251.0
4040,338,268,0,4043.0,4048.0,347.0,360.0,261.0,257.0
4039,327,273,0,4040.0,4043.0,338.0,347.0,268.0,261.0
4040,314,282,0,4039.0,4040.0,327.0,338.0,273.0,268.0
4045,301,284,0,4040.0,4039.0,314.0,327.0,282.0,273.0
4044,291,284,0,4045.0,4040.0,301.0,314.0,284.0,282.0
4047,284,280,0,4044.0,4045.0,291.0,301.0,284.0,284.0
4046,282,271,0,4047.0,4044.0,284.0,291.0,280.0,284.0
4048,283,257,0,4046.0,4047.0,282.0,284.0,271.0,280.0
4054,285,249,0,4048.0,4046.0,283.0,282.0,257.0,271.0
4058,292,240,0,4054.0,4048.0,285.0,283.0,249.0,257.0
4062,299,236,0,4058.0,4054.0,292.0,285.0,240.0,249.0
4061,305,239,0,4062.0,4058.0,299.0,292.0,236.0,240.0
4065,315,235,0,4061.0,4062.0,305.0,299.0,239.0,236.0
4069,317,234,0,4065.0,4061.0,315.0,305.0,235.0,239.0
4069,317,233,0,4069.0,4065.0,317.0,315.0,234.0,235.0
4069,318,232,0,4069.0,4069.0,317.0,317.0,233.0,234.0
4067,314,230,0,4069.0,4069.0,318.0,317.0,232.0,233.0
4056,314,231,0,4067.0,4069.0,314.0,318.0,230.0,232.0
4054,316,233,0,4056.0,4067.0,314.0,314.0,231.0,230.0
4051,322,235,0,4054.0,4056.0,316.0,314.0,233.0,231.0
4048,331,238,0,4051.0,4054.0,322.0,316.0,235.0,233.0
4052,338,241,0,4048.0,4051.0,331.0,322.0,238.0,235.0
4049,346,245,0,4052.0,4048.0,338.0,331.0,241.0,238.0
4048,352,248,0,4049.0,4052.0,346.0,338.0,245.0,241.0
4049,352,246,0,4048.0,4049.0,352.0,346.0,248.0,245.0
4051,356,249,0,4049.0,4048.0,352.0,352.0,246.0,248.0
4048,358,252,0,4051.0,4049.0,356.0,352.0,249.0,246.0
4046,359,249,0,4048.0,4051.0,358.0,356.0,252.0,249.0
4046,354,252,0,4046.0,4048.0,359.0,358.0,249.0,252.0
4051,351,253,0,4046.0,4046.0,354.0,359.0,252.0,249.0
4053,344,254,0,4051.0,4046.0,351.0,354.0,253.0,252.0
4060,333,257,0,4053.0,4051.0,344.0,351.0,254.0,253.0
4063,332,256,0,4060.0,4053.0,333.0,344.0,257.0,254.0
4062,325,259,0,4063.0,4060.0,332.0,333.0,256.0,257.0
4066,319,258,0,4062.0,4063.0,325.0,332.0,259.0,256.0
4065,317,264,0,4066.0,4062.0,319.0,325.0,258.0,259.0
4062,319,265,0,4065.0,4066.0,317.0,319.0,264.0,258.0
4056,319,267,0,4062.0,4065.0,319.0,317.0,265.0,264.0
4051,319,267,0,4056.0,4062.0,319.0,319.0,267.0,265.0
4048,320,270,0,4051.0,4056.0,319.0,319.0,267.0,267.0
4042,321,273,0,4048.0,4051.0,320.0,319.0,270.0,267.0
4038,324,275,0,4042.0,4048.0,321.0,320.0,273.0,270.0
4037,327,273,0,4038.0,4042.0,324.0,321.0,275.0,273.0
4036,332,274,0,4037.0,4038.0,327.0,324.0,273.0,275.0
4039,336,274,0,4036.0,4037.0,332.0,327.0,274.0,273.0
4040,336,269,0,4039.0,4036.0,336.0,332.0,274.0,274.0
4041,339,268,0,4040.0,4039.0,336.0,336.0,269.0,274.0
4041,339,270,0,4041.0,4040.0,339.0,336.0,268.0,269.0
4046,339,267,0,4041.0,4041.0,339.0,339.0,270.0,268.0
4049,333,267,0,4046.0,4041.0,339.0,339.0,267.0,270.0
4053,329,265,0,4049.0,4046.0,333.0,339.0,267.0,267.0
4054,324,264,0,4053.0,4049.0,329.0,333.0,265.0,267.0
4060,323,268,0,4054.0,4053.0,324.0,329.0,264.0,265.0
4067,313,269,0,4060.0,4054.0,323.0,324.0,268.0,264.0
4069,313,275,0,4067.0,4060.0,313.0,323.0,269.0,268.0
4070,311,281,0,4069.0,4067.0,313.0,313.0,275.0,269.0
4069,312,284,0,4070.0,4069.0,311.0,313.0,281.0,275.0
4068,314,287,0,4069.0,4070.0,312.0,311.0,284.0,281.0
4065,311,290,0,4068.0,4069.0,314.0,312.0,287.0,284.0
4058,315,292,0,4065.0,4068.0,311.0,314.0,290.0,287.0
4051,316,291,0,4058.0,4065.0,315.0,311.0,292.0,290.0
4047,321,287,0,4051.0,4058.0,316.0,315.0,291.0,292.0
4039,321,285,0,4047.0,4051.0,321.0,316.0,287.0,291.0
4034,321,285,0,4039.0,4047.0,321.0,321.0,285.0,287.0
4033,323,284,0,4034.0,4039.0,321.0,321.0,285.0,285.0
4034,326,282,0,4033.0,4034.0,323.0,321.0,284.0,285.0
4031,328,283,0,4034.0,4033.0,326.0,323.0,282.0,284.0
4030,330,283,0,4031.0,4034.0,328.0,326.0,283.0,282.0
4024,330,279,0,4030.0,4031.0,330.0,328.0,283.0,283.0
4022,329,280,0,4024.0,4030.0,330.0,330.0,279.0,283.0
4025,332,279,0,4022.0,4024.0,329.0,330.0,280.0,279.0
4032,333,279,0,4025.0,4022.0,332.0,329.0,279.0,280.0
4038,333,281,0,4032.0,4025.0,333.0,332.0,279.0,279.0
4042,332,279,0,4038.0,4032.0,333.0,333.0,281.0,279.0
4048,334,280,0,4042.0,4038.0,332.0,333.0,279.0,281.0
4053,330,284,0,4048.0,4042.0,334.0,332.0,280.0,279.0
4059,333,283,0,4053.0,4048.0,330.0,334.0,284.0,280.0
4062,335,281,0,4059.0,4053.0,333.0,330.0,283.0,284.0
4064,335,281,0,4062.0,4059.0,335.0,333.0,281.0,283.0
4065,337,284,0,4064.0,4062.0,335.0,335.0,281.0,281.0
4062,338,285,0,4065.0,4064.0,337.0,335.0,284.0,281.0
4061,339,291,0,4062.0,4065.0,338.0,337.0,285.0,284.0
4054,345,293,0,4061.0,4062.0,339.0,338.0,291.0,285.0
4048,344,290,0,4054.0,4061.0,345.0,339.0,293.0,291.0
4044,344,288,0,4048.0,4054.0,344.0,345.0,290.0,293.0
4038,339,287,0,4044.0,4048.0,344.0,344.0,288.0,290.0
4039,336,286,0,4038.0,4044.0,339.0,344.0,287.0,288.0
4038,335,286,0,4039.0,4038.0,336.0,339.0,286.0,287.0
4041,337,284,0,4038.0,4039.0,335.0,336.0,286.0,286.0
4046,334,284,0,4041.0,4038.0,337.0,335.0,284.0,286.0
4048,334,285,0,4046.0,4041.0,334.0,337.0,284.0,284.0
4054,335,283,0,4048.0,4046.0,334.0,334.0,285.0,284.0
4059,330,281,0,4054.0,4048.0,335.0,334.0,283.0,285.0
4059,327,281,0,4059.0,4054.0,330.0,335.0,281.0,283.0
4060,325,280,0,4059.0,4059.0,327.0,330.0,281.0,281.0
4058,319,281,0,4060.0,4059.0,325.0,327.0,280.0,281.0
4053,319,278,0,4058.0,4060.0,319.0,325.0,281.0,280.0
4052,313,279,0,4053.0,4058.0,319.0,319.0,278.0,281.0
4051,311,278,0,4052.0,4053.0,313.0,319.0,279.0,278.0
4047,312,277,0,4051.0,4052.0,311.0,313.0,278.0,279.0
4044,315,279,0,4047.0,4051.0,312.0,311.0,277.0,278.0
4043,315,279,0,4044.0,4047.0,315.0,312.0,279.0,277.0
4041,313,278,0,4043.0,4044.0,315.0,315.0,279.0,279.0
4043,309,273,0,4041.0,4043.0,313.0,315.0,278.0,279.0
4044,310,270,0,4043.0,4041.0,309.0,313.0,273.0,278.0
4046,308,269,0,4044.0,4043.0,310.0,309.0,270.0,273.0
4049,309,268,0,4046.0,4044.0,308.0,310.0,269.0,270.0
4052,308,266,0,4049.0,4046.0,309.0,308.0,268.0,269.0
4053,307,267,0,4052.0,4049.0,308.0,309.0,266.0,268.0
4050,307,268,0,4053.0,4052.0,307.0,308.0,267.0,266.0
4055,302,269,0,4050.0,4053.0,307.0,307.0,268.0,267.0
4057,299,268,0,4055.0,4050.0,302.0,307.0,269.0,268.0
4055,296,266,0,4057.0,4055.0,299.0,302.0,268.0,269.0
4054,295,263,0,4055.0,4057.0,296.0,299.0,266.0,268.0
4055,295,263,0,4054.0,4055.0,295.0,296.0,263.0,266.0
4054,290,264,0,4055.0,4054.0,295.0,295.0,263.0,263.0
4052,289,265,0,4054.0,4055.0,290.0,295.0,264.0,263.0
4053,291,269,0,4052.0,4054.0,289.0,290.0,265.0,264.0
4050,291,269,0,4053.0,4052.0,291.0,289.0,269.0,265.0
4051,291,268,0,4050.0,4053.0,291.0,291.0,269.0,269.0
4049,292,269,0,4051.0,4050.0,291.0,291.0,268.0,269.0
4052,291,269,0,4049.0,4051.0,292.0,291.0,269.0,268.0
4050,291,270,0,4052.0,4049.0,291.0,292.0,269.0,269.0
4048,290,270,0,4050.0,4052.0,291.0,291.0,270.0,269.0
4047,289,272,0,4048.0,4050.0,290.0,291.0,270.0,270.0
4045,289,269,0,4047.0,4048.0,289.0,290.0,272.0,270.0
4044,292,268,0,4045.0,4047.0,289.0,289.0,269.0,272.0
4044,293,264,0,4044.0,4045.0,292.0,289.0,268.0,269.0
4046,296,265,0,4044.0,4044.0,293.0,292.0,264.0,268.0
4047,300,264,0,4046.0,4044.0,296.0,293.0,265.0,264.0
4047,307,261,0,4047.0,4046.0,300.0,296.0,264.0,265.0
4047,316,257,0,4047.0,4047.0,307.0,300.0,261.0,264.0
4050,325,257,0,4047.0,4047.0,316.0,307.0,257.0,261.0
4052,335,259,0,4050.0,4047.0,325.0,316.0,257.0,257.0
4050,340,258,0,4052.0,4050.0,335.0,325.0,259.0,257.0
4049,344,255,0,4050.0,4052.0,340.0,335.0,258.0,259.0
4051,346,257,0,4049.0,4050.0,344.0,340.0,255.0,258.0
4048,344,260,0,4051.0,4049.0,346.0,344.0,257.0,255.0
4050,339,261,0,4048.0,4051.0,344.0,346.0,260.0,257.0
4053,332,269,0,4050.0,4048.0,339.0,344.0,261.0,260.0
4058,329,271,0,4053.0,4050.0,332.0,339.0,269.0,261.0
4063,319,270,0,4058.0,4053.0,329.0,332.0,271.0,269.0
4068,316,270,0,4063.0,4058.0,319.0,329.0,270.0,271.0
4069,314,265,0,4068.0,4063.0,316.0,319.0,270.0,270.0
4070,310,264,0,4069.0,4068.0,314.0,316.0,265.0,270.0
4069,312,258,0,4070.0,4069.0,310.0,314.0,264.0,265.0
4066,309,261,0,4069.0,4070.0,312.0,310.0,258.0,264.0
4062,308,261,0,4066.0,4069.0,309.0,312.0,261.0,258.0
4056,315,262,0,4062.0,4066.0,308.0,309.0,261.0,261.0
4044,321,265,0,4056.0,4062.0,315.0,308.0,262.0,261.0
4037,320,273,0,4044.0,4056.0,321.0,315.0,265.0,262.0
4032,318,281,0,4037.0,4044.0,320.0,321.0,273.0,265.0
4028,315,288,0,4032.0,4037.0,318.0,320.0,281.0,273.0
4024,311,292,0,4028.0,4032.0,315.0,318.0,288.0,281.0
4027,307,300,0,4024.0,4028.0,311.0,315.0,292.0,288.0
4030,303,303,0,4027.0,4024.0,307.0,311.0,300.0,292.0
4034,300,303,0,4030.0,4027.0,303.0,307.0,303.0,300.0
4039,293,304,0,4034.0,4030.0,300.0,303.0,303.0,303.0
4041,288,295,0,4039.0,4034.0,293.0,300.0,304.0,303.0
4046,287,289,0,4041.0,4039.0,288.0,293.0,295.0,304.0
4046,287,281,0,4046.0,4041.0,287.0,288.0,289.0,295.0
4050,290,273,0,4046.0,4046.0,287.0,287.0,281.0,289.0
4049,299,265,0,4050.0,4046.0,290.0,287.0,273.0,281.0
4053,299,261,0,4049.0,4050.0,299.0,290.0,265.0,273.0
4060,304,259,0,4053.0,4049.0,299.0,299.0,261.0,265.0
4058,306,256,0,4060.0,4053.0,304.0,299.0,259.0,261.0
4065,306,260,0,4058.0,4060.0,306.0,304.0,256.0,259.0
4064,305,259,0,4065.0,4058.0,306.0,306.0,260.0,256.0
4061,306,258,0,4064.0,4065.0,305.0,306.0,259.0,260.0
4061,307,257,0,4061.0,4064.0,306.0,305.0,258.0,259.0
4062,304,252,0,4061.0,4061.0,307.0,306.0,257.0,258.0
4062,301,258,0,4062.0,4061.0,304.0,307.0,252.0,257.0
4067,298,262,0,4062.0,4062.0,301.0,304.0,258.0,252.0
4067,296,265,0,4067.0,4062.0,298.0,301.0,262.0,258.0
4067,291,268,0,4067.0,4067.0,296.0,298.0,265.0,262.0
4066,290,274,0,4067.0,4067.0,291.0,296.0,268.0,265.0
4062,286,278,0,4066.0,4067.0,290.0,291.0,274.0,268.0
4053,288,278,0,4062.0,4066.0,286.0,290.0,278.0,274.0
4045,288,275,0,4053.0,4062.0,288.0,286.0,278.0,278.0
4041,283,274,0,4045.0,4053.0,288.0,288.0,275.0,278.0
4035,279,273,0,4041.0,4045.0,283.0,288.0,274.0,275.0
4035,277,272,0,4035.0,4041.0,279.0,283.0,273.0,274.0
4035,276,269,0,4035.0,4035.0,277.0,279.0,272.0,273.0
4040,276,267,0,4035.0,4035.0,276.0,277.0,269.0,272.0
4049,279,265,0,4040.0,4035.0,276.0,276.0,267.0,269.0
4054,281,265,0,4049.0,4040.0,279.0,276.0,265.0,267.0
4061,285,268,0,4054.0,4049.0,281.0,279.0,265.0,265.0
4064,291,269,0,4061.0,4054.0,285.0,281.0,268.0,265.0
4069,292,271,0,4064.0,4061.0,291.0,285.0,269.0,268.0
4069,297,271,0,4069.0,4064.0,292.0,291.0,271.0,269.0
4068,301,271,0,4069.0,4069.0,297.0,292.0,271.0,271.0
4063,307,270,0,4068.0,4069.0,301.0,297.0,271.0,271.0
4057,314,269,0,4063.0,4068.0,307.0,301.0,270.0,271.0
4052,321,269,0,4057.0,4063.0,314.0,307.0,269.0,270.0
4046,328,272,0,4052.0,4057.0,321.0,314.0,269.0,269.0
4041,336,275,0,4046.0,4052.0,328.0,321.0,272.0,269.0
4038,341,278,0,4041.0,4046.0,336.0,328.0,275.0,272.0
4038,349,275,0,4038.0,4041.0,341.0,336.0,278.0,275.0
4036,349,275,0,4038.0,4038.0,349.0,341.0,275.0,278.0
4032,347,278,0,4036.0,4038.0,349.0,349.0,275.0,275.0
4034,349,276,0,4032.0,4036.0,347.0,349.0,278.0,275.0
4040,345,277,0,4034.0,4032.0,349.0,347.0,276.0,278.0
4042,347,276,0,4040.0,4034.0,345.0,349.0,277.0,276.0
4050,352,275,0,4042.0,4040.0,347.0,345.0,276.0,277.0
4055,359,272,0,4050.0,4042.0,352.0,347.0,275.0,276.0
4055,362,270,0,4055.0,4050.0,359.0,352.0,272.0,275.0
4063,373,270,0,4055.0,4055.0,362.0,359.0,270.0,272.0
4068,379,269,0,4063.0,4055.0,373.0,362.0,270.0,270.0
4070,392,269,0,4068.0,4063.0,379.0,373.0,269.0,270.0
4073,401,266,0,4070.0,4068.0,392.0,379.0,269.0,269.0
4072,412,264,0,4073.0,4070.0,401.0,392.0,266.0,269.0
4068,422,265,0,4072.0,4073.0,412.0,401.0,264.0,266.0
4067,427,264,0,4068.0,4072.0,422.0,412.0,265.0,264.0
4063,431,262,0,4067.0,4068.0,427.0,422.0,264.0,265.0
4063,433,262,0,4063.0,4067.0,431.0,427.0,262.0,264.0
4058,432,260,0,4063.0,4063.0,433.0,431.0,262.0,262.0
4051,429,262,0,4058.0,4063.0,432.0,433.0,260.0,262.0
4046,428,263,0,4051.0,4058.0,429.0,432.0,262.0,260.0
4041,428,261,0,4046.0,4051.0,428.0,429.0,263.0,262.0
4037,427,266,0,4041.0,4046.0,428.0,428.0,261.0,263.0
4035,424,262,0,4037.0,4041.0,427.0,428.0,266.0,261.0
4037,421,256,0,4035.0,4037.0,424.0,427.0,262.0,266.0
4041,417,252,0,4037.0,4035.0,421.0,424.0,256.0,262.0
4048,417,252,0,4041.0,4037.0,417.0,421.0,252.0,256.0
4058,415,253,0,4048.0,4041.0,417.0,417.0,252.0,252.0
4069,415,248,0,4058.0,4048.0,415.0,417.0,253.0,252.0
4081,415,248,0,4069.0,4058.0,415.0,415.0,248.0,253.0
4087,417,243,0,4081.0,4069.0,415.0,415.0,248.0,248.0
4093,419,239,0,4087.0,4081.0,417.0,415.0,243.0,248.0
4097,418,238,0,4093.0,4087.0,419.0,417.0,239.0,243.0
4098,418,232,0,4097.0,4093.0,418.0,419.0,238.0,239.0
4095,422,231,0,4098.0,4097.0,418.0,418.0,232.0,238.0
4086,426,231,0,4095.0,4098.0,422.0,418.0,231.0,232.0
4077,427,231,0,4086.0,4095.0,426.0,422.0,231.0,231.0
4068,426,229,0,4077.0,4086.0,427.0,426.0,231.0,231.0
4058,426,237,0,4068.0,4077.0,426.0,427.0,229.0,231.0
4044,423,237,0,4058.0,4068.0,426.0,426.0,237.0,229.0
4030,421,236,0,4044.0,4058.0,423.0,426.0,237.0,237.0
4023,413,237,0,4030.0,4044.0,421.0,423.0,236.0,237.0
4018,409,238,0,4023.0,4030.0,413.0,421.0,237.0,236.0
4015,399,241,0,4018.0,4023.0,409.0,413.0,238.0,237.0
4017,388,244,0,4015.0,4018.0,399.0,409.0,241.0,238.0
4017,375,246,0,4017.0,4015.0,388.0,399.0,244.0,241.0
4018,365,246,0,4017.0,4017.0,375.0,388.0,246.0,244.0
4027,352,249,0,4018.0,4017.0,365.0,375.0,246.0,246.0
4033,337,247,0,4027.0,4018.0,352.0,365.0,249.0,246.0
4044,324,249,0,4033.0,4027.0,337.0,352.0,247.0,249.0
4050,312,248,0,4044.0,4033.0,324.0,337.0,249.0,247.0
4054,300,246,0,4050.0,4044.0,312.0,324.0,248.0,249.0
4056,289,243,0,4054.0,4050.0,300.0,312.0,246.0,248.0
4057,284,241,0,4056.0,4054.0,289.0,300.0,243.0,246.0
4060,279,240,0,4057.0,4056.0,284.0,289.0,241.0,243.0
4064,276,239,0,4060.0,4057.0,279.0,284.0,240.0,241.0
4068,274,234,0,4064.0,4060.0,276.0,279.0,239.0,240.0
4072,276,233,0,4068.0,4064.0,274.0,276.0,234.0,239.0
4075,281,234,0,4072.0,4068.0,276.0,274.0,233.0,234.0
4070,285,233,0,4075.0,4072.0,281.0,276.0,234.0,233.0
4070,292,234,0,4070.0,4075.0,285.0,281.0,233.0,234.0
4063,297,236,0,4070.0,4070.0,292.0,285.0,234.0,233.0
4053,307,236,0,4063.0,4070.0,297.0,292.0,236.0,234.0
4045,315,236,0,4053.0,4063.0,307.0,297.0,236.0,236.0
4040,322,237,0,4045.0,4053.0,315.0,307.0,236.0,236.0
4034,328,239,0,4040.0,4045.0,322.0,315.0,237.0,236.0
4028,334,241,0,4034.0,4040.0,328.0,322.0,239.0,237.0
4023,336,240,0,4028.0,4034.0,334.0,328.0,241.0,239.0
4020,341,244,0,4023.0,4028.0,336.0,334.0,240.0,241.0
4018,346,246,0,4020.0,4023.0,341.0,336.0,244.0,240.0
4019,348,255,0,4018.0,4020.0,346.0,341.0,246.0,244.0
4025,348,259,0,4019.0,4018.0,348.0,346.0,255.0,246.0
4029,350,265,0,4025.0,4019.0,348.0,348.0,259.0,255.0
4032,352,267,0,4029.0,4025.0,350.0,348.0,265.0,259.0
4037,350,268,0,4032.0,4029.0,352.0,350.0,267.0,265.0
4041,344,270,0,4037.0,4032.0,350.0,352.0,268.0,267.0
4047,342,270,0,4041.0,4037.0,344.0,350.0,270.0,268.0
4054,339,270,0,4047.0,4041.0,342.0,344.0,270.0,270.0
4062,349,263,0,4054.0,4047.0,339.0,342.0,270.0,270.0
4068,362,259,0,4062.0,4054.0,349.0,339.0,263.0,270.0
4076,371,255,0,4068.0,4062.0,362.0,349.0,259.0,263.0
4079,387,244,0,4076.0,4068.0,371.0,362.0,255.0,259.0
4078,407,237,0,4079.0,4076.0,387.0,371.0,244.0,255.0
4080,428,228,0,4078.0,4079.0,407.0,387.0,237.0,244.0
4078,454,221,0,4080.0,4078.0,428.0,407.0,228.0,237.0
4072,480,217,0,4078.0,4080.0,454.0,428.0,221.0,228.0
4061,505,220,0,4072.0,4078.0,480.0,454.0,217.0,221.0
4054,523,233,0,4061.0,4072.0,505.0,480.0,220.0,217.0
4044,532,245,0,4054.0,4061.0,523.0,505.0,233.0,220.0
4041,529,259,0,4044.0,4054.0,532.0,523.0,245.0,233.0
4041,513,271,0,4041.0,4044.0,529.0,532.0,259.0,245.0
4039,481,277,0,4041.0,4041.0,513.0,529.0,271.0,259.0
4037,450,288,0,4039.0,4041.0,481.0,513.0,277.0,271.0
4031,411,290,0,4037.0,4039.0,450.0,481.0,288.0,277.0
4032,373,292,0,4031.0,4037.0,411.0,450.0,290.0,288.0
4029,340,295,0,4032.0,4031.0,373.0,411.0,292.0,290.0
4030,308,296,0,4029.0,4032.0,340.0,373.0,295.0,292.0
4028,283,295,0,4030.0,4029.0,308.0,340.0,296.0,295.0
4032,264,293,0,4028.0,4030.0,283.0,308.0,295.0,296.0
4032,249,295,0,4032.0,4028.0,264.0,283.0,293.0,295.0
4035,230,296,0,4032.0,4032.0,249.0,264.0,295.0,293.0
4039,217,299,0,4035.0,4032.0,230.0,249.0,296.0,295.0
4039,210,306,0,4039.0,4035.0,217.0,230.0,299.0,296.0
4044,201,309,0,4039.0,4039.0,210.0,217.0,306.0,299.0
4044,199,311,0,4044.0,4039.0,201.0,210.0,309.0,306.0
4045,201,313,0,4044.0,4044.0,199.0,201.0,311.0,309.0
4047,210,312,0,4045.0,4044.0,201.0,199.0,313.0,311.0
4048,218,313,0,4047.0,4045.0,210.0,201.0,312.0,313.0
4048,226,309,0,4048.0,4047.0,218.0,210.0,313.0,312.0
4048,242,304,0,4048.0,4048.0,226.0,218.0,309.0,313.0
4050,257,298,0,4048.0,4048.0,242.0,226.0,304.0,309.0
4057,275,296,0,4050.0,4048.0,257.0,242.0,298.0,304.0
4061,293,288,0,4057.0,4050.0,275.0,257.0,296.0,298.0
4063,308,283,0,4061.0,4057.0,293.0,275.0,288.0,296.0
4066,328,281,0,4063.0,4061.0,308.0,293.0,283.0,288.0
4073,341,284,0,4066.0,4063.0,328.0,308.0,281.0,283.0
4071,354,285,0,4073.0,4066.0,341.0,328.0,284.0,281.0
4069,361,288,0,4071.0,4073.0,354.0,341.0,285.0,284.0
4067,363,294,0,4069.0,4071.0,361.0,354.0,288.0,285.0
4065,363,301,0,4067.0,4069.0,363.0,361.0,294.0,288.0
4063,358,309,0,4065.0,4067.0,363.0,363.0,301.0,294.0
4064,350,315,0,4063.0,4065.0,358.0,363.0,309.0,301.0
4061,337,317,0,4064.0,4063.0,350.0,358.0,315.0,309.0
4055,322,321,0,4061.0,4064.0,337.0,350.0,317.0,315.0
4051,305,317,0,4055.0,4061.0,322.0,337.0,321.0,317.0
4047,288,311,0,4051.0,4055.0,305.0,322.0,317.0,321.0
4045,268,300,0,4047.0,4051.0,288.0,305.0,311.0,317.0
4046,251,292,0,4045.0,4047.0,268.0,288.0,300.0,311.0
4050,238,279,0,4046.0,4045.0,251.0,268.0,292.0,300.0
4058,225,274,0,4050.0,4046.0,238.0,251.0,279.0,292.0
4068,215,274,0,4058.0,4050.0,225.0,238.0,274.0,279.0
4076,210,275,0,4068.0,4058.0,215.0,225.0,274.0,274.0
4086,203,276,0,4076.0,4068.0,210.0,215.0,275.0,274.0
4088,199,279,0,4086.0,4076.0,203.0,210.0,276.0,275.0
4088,199,284,0,4088.0,4086.0,199.0,203.0,279.0,276.0
4089,197,293,0,4088.0,4088.0,199.0,199.0,284.0,279.0
4094,201,306,0,4089.0,4088.0,197.0,199.0,293.0,284.0
4090,205,319,0,4094.0,4089.0,201.0,197.0,306.0,293.0
4081,215,325,0,4090.0,4094.0,205.0,201.0,319.0,306.0
4071,223,324,0,4081.0,4090.0,215.0,205.0,325.0,319.0
4055,231,318,0,4071.0,4081.0,223.0,215.0,324.0,325.0
4036,241,309,0,4055.0,4071.0,231.0,223.0,318.0,324.0
4014,248,295,0,4036.0,4055.0,241.0,231.0,309.0,318.0
3997,253,291,0,4014.0,4036.0,248.0,241.0,295.0,309.0
3988,258,289,0,3997.0,4014.0,253.0,248.0,291.0,295.0
3988,265,297,0,3988.0,3997.0,258.0,253.0,289.0,291.0
3991,268,305,0,3988.0,3988.0,265.0,258.0,297.0,289.0
3999,269,316,0,3991.0,3988.0,268.0,265.0,305.0,297.0
4006,278,319,0,3999.0,3991.0,269.0,268.0,316.0,305.0
4020,282,321,0,4006.0,3999.0,278.0,269.0,319.0,316.0
4029,284,318,0,4020.0,4006.0,282.0,278.0,321.0,319.0
4036,285,311,0,4029.0,4020.0,284.0,282.0,318.0,321.0
4044,287,303,0,4036.0,4029.0,285.0,284.0,311.0,318.0
4048,290,301,0,4044.0,4036.0,287.0,285.0,303.0,311.0
4055,292,294,0,4048.0,4044.0,290.0,287.0,301.0,303.0
4052,295,292,0,4055.0,4048.0,292.0,290.0,294.0,301.0
4045,292,291,0,4052.0,4055.0,295.0,292.0,292.0,294.0
4037,291,291,0,4045.0,4052.0,292.0,295.0,291.0,292.0
4030,293,287,0,4037.0,4045.0,291.0,292.0,291.0,291.0
4022,299,286,0,4030.0,4037.0,293.0,291.0,287.0,291.0
4017,303,284,0,4022.0,4030.0,299.0,293.0,286.0,287.0
4017,307,288,0,4017.0,4022.0,303.0,299.0,284.0,286.0
4016,310,291,0,4017.0,4017.0,307.0,303.0,288.0,284.0
4023,313,294,0,4016.0,4017.0,310.0,307.0,291.0,288.0
4035,311,290,0,4023.0,4016.0,313.0,310.0,294.0,291.0
4046,313,287,0,4035.0,4023.0,311.0,313.0,290.0,294.0
4056,310,284,0,4046.0,4035.0,313.0,311.0,287.0,290.0
4068,305,285,0,4056.0,4046.0,310.0,313.0,284.0,287.0
4074,305,286,0,4068.0,4056.0,305.0,310.0,285.0,284.0
4078,304,287,0,4074.0,4068.0,305.0,305.0,286.0,285.0
4079,309,287,0,4078.0,4074.0,304.0,305.0,287.0,286.0
4077,312,288,0,4079.0,4078.0,309.0,304.0,287.0,287.0
4073,316,290,0,4077.0,4079.0,312.0,309.0,288.0,287.0
4064,322,293,0,4073.0,4077.0,316.0,312.0,290.0,288.0
4057,328,294,0,4064.0,4073.0,322.0,316.0,293.0,290.0
4051,333,298,0,4057.0,4064.0,328.0,322.0,294.0,293.0
4050,338,299,0,4051.0,4057.0,333.0,328.0,298.0,294.0
4048,343,303,0,4050.0,4051.0,338.0,333.0,299.0,298.0
4044,343,303,0,4048.0,4050.0,343.0,338.0,303.0,299.0
4040,348,298,0,4044.0,4048.0,343.0,343.0,303.0,303.0
4040,353,295,0,4040.0,4044.0,348.0,343.0,298.0,303.0
4039,353,295,0,4040.0,4040.0,353.0,348.0,295.0,298.0
4043,355,294,0,4039.0,4040.0,353.0,353.0,295.0,295.0
4044,357,292,0,4043.0,4039.0,355.0,353.0,294.0,295.0
4045,356,292,0,4044.0,4043.0,357.0,355.0,292.0,294.0
4047,357,292,0,4045.0,4044.0,356.0,357.0,292.0,292.0
4049,357,293,0,4047.0,4045.0,357.0,356.0,292.0,292.0
4050,356,292,0,4049.0,4047.0,357.0,357.0,293.0,292.0
4055,360,290,0,4050.0,4049.0,356.0,357.0,292.0,293.0
4058,365,293,0,4055.0,4050.0,360.0,356.0,290.0,292.0
4056,368,295,0,4058.0,4055.0,365.0,360.0,293.0,290.0
4053,373,300,0,4056.0,4058.0,368.0,365.0,295.0,293.0
4054,379,300,0,4053.0,4056.0,373.0,368.0,300.0,295.0
4052,382,295,0,4054.0,4053.0,379.0,373.0,300.0,300.0
4049,388,294,0,4052.0,4054.0,382.0,379.0,295.0,300.0
4046,388,295,0,4049.0,4052.0,388.0,382.0,294.0,295.0
4044,391,296,0,4046.0,4049.0,388.0,388.0,295.0,294.0
4040,394,294,0,4044.0,4046.0,391.0,388.0,296.0,295.0
4033,396,297,0,4040.0,4044.0,394.0,391.0,294.0,296.0
4027,397,300,0,4033.0,4040.0,396.0,394.0,297.0,294.0
4023,397,307,0,4027.0,4033.0,397.0,396.0,300.0,297.0
4023,401,306,0,4023.0,4027.0,397.0,397.0,307.0,300.0
4025,403,305,0,4023.0,4023.0,401.0,397.0,306.0,307.0
4028,400,301,0,4025.0,4023.0,403.0,401.0,305.0,306.0
4031,404,297,0,4028.0,4025.0,400.0,403.0,301.0,305.0
4036,405,295,0,4031.0,4028.0,404.0,400.0,297.0,301.0
4040,408,287,0,4036.0,4031.0,405.0,404.0,295.0,297.0
4045,408,281,0,4040.0,4036.0,408.0,405.0,287.0,295.0
4054,408,280,0,4045.0,4040.0,408.0,408.0,281.0,287.0
4062,408,285,0,4054.0,4045.0,408.0,408.0,280.0,281.0
4067,405,289,0,4062.0,4054.0,408.0,408.0,285.0,280.0
4066,407,288,0,4067.0,4062.0,405.0,408.0,289.0,285.0
4060,406,290,0,4066.0,4067.0,407.0,405.0,288.0,289.0
4055,406,290,0,4060.0,4066.0,406.0,407.0,290.0,288.0
4048,405,290,0,4055.0,4060.0,406.0,406.0,290.0,290.0
4043,403,290,0,4048.0,4055.0,405.0,406.0,290.0,290.0
4038,403,289,0,4043.0,4048.0,403.0,405.0,290.0,290.0
4031,401,286,0,4038.0,4043.0,403.0,403.0,289.0,290.0
4032,398,285,0,4031.0,4038.0,401.0,403.0,286.0,289.0
4032,392,286,0,4032.0,4031.0,398.0,401.0,285.0,286.0
4035,387,284,0,4032.0,4032.0,392.0,398.0,286.0,285.0
4041,389,285,0,4035.0,4032.0,387.0,392.0,284.0,286.0
4042,387,289,0,4041.0,4035.0,389.0,387.0,285.0,284.0
4041,381,286,0,4042.0,4041.0,387.0,389.0,289.0,285.0
4043,376,283,0,4041.0,4042.0,381.0,387.0,286.0,289.0
4042,376,283,0,4043.0,4041.0,376.0,381.0,283.0,286.0
4043,378,285,0,4042.0,4043.0,376.0,376.0,283.0,283.0
4045,380,286,0,4043.0,4042.0,378.0,376.0,285.0,283.0
4046,381,290,0,4045.0,4043.0,380.0,378.0,286.0,285.0
4049,381,289,0,4046.0,4045.0,381.0,380.0,290.0,286.0
4049,383,291,0,4049.0,4046.0,381.0,381.0,289.0,290.0
4056,381,289,0,4049.0,4049.0,383.0,381.0,291.0,289.0
4056,383,285,0,4056.0,4049.0,381.0,383.0,289.0,291.0
4060,385,288,0,4056.0,4056.0,383.0,381.0,285.0,289.0
4062,383,287,0,4060.0,4056.0,385.0,383.0,288.0,285.0
4061,381,290,0,4062.0,4060.0,383.0,385.0,287.0,288.0
4061,376,293,0,4061.0,4062.0,381.0,383.0,290.0,287.0
4060,373,293,0,4061.0,4061.0,376.0,381.0,293.0,290.0
4055,368,293,0,4060.0,4061.0,373.0,376.0,293.0,293.0
4050,367,294,0,4055.0,4060.0,368.0,373.0,293.0,293.0
4049,362,297,0,4050.0,4055.0,367.0,368.0,294.0,293.0
4047,360,295,0,4049.0,4050.0,362.0,367.0,297.0,294.0
4043,352,297,0,4047.0,4049.0,360.0,362.0,295.0,297.0
4043,350,301,0,4043.0,4047.0,352.0,360.0,297.0,295.0
4043,343,301,0,4043.0,4043.0,350.0,352.0,301.0,297.0
4042,341,301,0,4043.0,4043.0,343.0,350.0,301.0,301.0
4041,339,303,0,4042.0,4043.0,341.0,343.0,301.0,301.0
4042,337,302,0,4041.0,4042.0,339.0,341.0,303.0,301.0
4044,335,300,0,4042.0,4041.0,337.0,339.0,302.0,303.0
4042,335,299,0,4044.0,4042.0,335.0,337.0,300.0,302.0
4045,336,301,0,4042.0,4044.0,335.0,335.0,299.0,300.0
4044,339,300,0,4045.0,4042.0,336.0,335.0,301.0,299.0
4049,337,299,0,4044.0,4045.0,339.0,336.0,300.0,301.0
4055,344,296,0,4049.0,4044.0,337.0,339.0,299.0,300.0
4055,343,295,0,4055.0,4049.0,344.0,337.0,296.0,299.0
4055,339,290,0,4055.0,4055.0,343.0,344.0,295.0,296.0
4058,340,288,0,4055.0,4055.0,339.0,343.0,290.0,295.0
4057,339,286,0,4058.0,4055.0,340.0,339.0,288.0,290.0
4054,338,282,0,4057.0,4058.0,339.0,340.0,286.0,288.0
4053,336,280,0,4054.0,4057.0,338.0,339.0,282.0,286.0
4051,336,280,0,4053.0,4054.0,336.0,338.0,280.0,282.0
4052,334,283,0,4051.0,4053.0,336.0,336.0,280.0,280.0
4051,328,287,0,4052.0,4051.0,334.0,336.0,283.0,280.0
4047,322,291,0,4051.0,4052.0,328.0,334.0,287.0,283.0
4047,315,298,0,4047.0,4051.0,322.0,328.0,291.0,287.0
4047,309,301,0,4047.0,4047.0,315.0,322.0,298.0,291.0
4047,299,300,0,4047.0,4047.0,309.0,315.0,301.0,298.0
4051,294,299,0,4047.0,4047.0,299.0,309.0,300.0,301.0
4055,290,302,0,4051.0,4047.0,294.0,299.0,299.0,300.0
4052,292,301,0,4055.0,4051.0,290.0,294.0,302.0,299.0
4054,294,294,0,4052.0,4055.0,292.0,290.0,301.0,302.0
4055,297,289,0,4054.0,4052.0,294.0,292.0,294.0,301.0
4057,300,285,0,4055.0,4054.0,297.0,294.0,289.0,294.0
4051,307,278,0,4057.0,4055.0,300.0,297.0,285.0,289.0
4049,316,282,0,4051.0,4057.0,307.0,300.0,278.0,285.0
4044,324,282,0,4049.0,4051.0,316.0,307.0,282.0,278.0
4037,339,288,0,4044.0,4049.0,324.0,316.0,282.0,282.0
4035,351,298,0,4037.0,4044.0,339.0,324.0,288.0,282.0
4029,360,308,0,4035.0,4037.0,351.0,339.0,298.0,288.0
4027,358,314,0,4029.0,4035.0,360.0,351.0,308.0,298.0
4026,355,320,0,4027.0,4029.0,358.0,360.0,314.0,308.0
4020,345,323,0,4026.0,4027.0,355.0,358.0,320.0,314.0
4023,335,326,0,4020.0,4026.0,345.0,355.0,323.0,320.0
4027,322,330,0,4023.0,4020.0,335.0,345.0,326.0,323.0
4033,314,332,0,4027.0,4023.0,322.0,335.0,330.0,326.0
4037,304,334,0,4033.0,4027.0,314.0,322.0,332.0,330.0
4039,300,328,0,4037.0,4033.0,304.0,314.0,334.0,332.0
4045,294,321,0,4039.0,4037.0,300.0,304.0,328.0,334.0
4053,295,311,0,4045.0,4039.0,294.0,300.0,321.0,328.0
4060,300,305,0,4053.0,4045.0,295.0,294.0,311.0,321.0
4061,304,296,0,4060.0,4053.0,300.0,295.0,305.0,311.0
4069,306,291,0,4061.0,4060.0,304.0,300.0,296.0,305.0
4072,312,286,0,4069.0,4061.0,306.0,304.0,291.0,296.0
4070,320,286,0,4072.0,4069.0,312.0,306.0,286.0,291.0
4070,327,287,0,4070.0,4072.0,320.0,312.0,286.0,286.0
4061,326,286,0,4070.0,4070.0,327.0,320.0,287.0,286.0
4051,327,287,0,4061.0,4070.0,326.0,327.0,286.0,287.0
4047,323,288,0,4051.0,4061.0,327.0,326.0,287.0,286.0
4044,321,289,0,4047.0,4051.0,323.0,327.0,288.0,287.0
4043,318,292,0,4044.0,4047.0,321.0,323.0,289.0,288.0
4039,320,297,0,4043.0,4044.0,318.0,321.0,292.0,289.0
4042,324,298,0,4039.0,4043.0,320.0,318.0,297.0,292.0
4044,328,306,0,4042.0,4039.0,324.0,320.0,298.0,297.0
4046,337,309,0,4044.0,4042.0,328.0,324.0,306.0,298.0
4050,340,310,0,4046.0,4044.0,337.0,328.0,309.0,306.0
4051,342,309,0,4050.0,4046.0,340.0,337.0,310.0,309.0
4051,350,313,0,4051.0,4050.0,342.0,340.0,309.0,310.0
4052,354,313,0,4051.0,4051.0,350.0,342.0,313.0,309.0
4053,360,314,0,4052.0,4051.0,354.0,350.0,313.0,313.0
4052,361,316,0,4053.0,4052.0,360.0,354.0,314.0,313.0
4051,357,313,0,4052.0,4053.0,361.0,360.0,316.0,314.0
4050,355,313,0,4051.0,4052.0,357.0,361.0,313.0,316.0
4050,347,312,0,4050.0,4051.0,355.0,357.0,313.0,313.0
4046,338,311,0,4050.0,4050.0,347.0,355.0,312.0,313.0
4047,333,309,0,4046.0,4050.0,338.0,347.0,311.0,312.0
4048,325,310,0,4047.0,4046.0,333.0,338.0,309.0,311.0
4049,324,309,0,4048.0,4047.0,325.0,333.0,310.0,309.0
4051,322,309,0,4049.0,4048.0,324.0,325.0,309.0,310.0
4049,320,309,0,4051.0,4049.0,322.0,324.0,309.0,309.0
4046,316,308,0,4049.0,4051.0,320.0,322.0,309.0,309.0
4044,316,309,0,4046.0,4049.0,316.0,320.0,308.0,309.0
4042,311,310,0,4044.0,4046.0,316.0,316.0,309.0,308.0
4038,310,309,0,4042.0,4044.0,311.0,316.0,310.0,309.0
4038,310,311,0,4038.0,4042.0,310.0,311.0,309.0,310.0
4033,306,310,0,4038.0,4038.0,310.0,310.0,311.0,309.0
4025,304,315,0,4033.0,4038.0,306.0,310.0,310.0,311.0
4029,297,313,0,4025.0,4033.0,304.0,306.0,315.0,310.0
4031,293,316,0,4029.0,4025.0,297.0,304.0,313.0,315.0
4034,289,318,0,4031.0,4029.0,293.0,297.0,316.0,313.0
4041,286,317,0,4034.0,4031.0,289.0,293.0,318.0,316.0
4046,282,314,0,4041.0,4034.0,286.0,289.0,317.0,318.0
4049,279,310,0,4046.0,4041.0,282.0,286.0,314.0,317.0
4051,276,306,0,4049.0,4046.0,279.0,282.0,310.0,314.0
4059,280,306,0,4051.0,4049.0,276.0,279.0,306.0,310.0
4062,285,306,0,4059.0,4051.0,280.0,276.0,306.0,306.0
4068,290,309,0,4062.0,4059.0,285.0,280.0,306.0,306.0
4063,292,312,0,4068.0,4062.0,290.0,285.0,309.0,306.0
4061,296,308,0,4063.0,4068.0,292.0,290.0,312.0,309.0
4061,300,306,0,4061.0,4063.0,296.0,292.0,308.0,312.0
4052,306,304,0,4061.0,4061.0,300.0,296.0,306.0,308.0
4048,311,306,0,4052.0,4061.0,306.0,300.0,304.0,306.0
4039,313,306,0,4048.0,4052.0,311.0,306.0,306.0,304.0
4035,314,306,0,4039.0,4048.0,313.0,311.0,306.0,306.0
4034,314,306,0,4035.0,4039.0,314.0,313.0,306.0,306.0
4032,314,305,0,4034.0,4035.0,314.0,314.0,306.0,306.0
4034,316,307,0,4032.0,4034.0,314.0,314.0,305.0,306.0
4037,314,306,0,4034.0,4032.0,316.0,314.0,307.0,305.0
4040,312,308,0,4037.0,4034.0,314.0,316.0,306.0,307.0
4042,310,307,0,4040.0,4037.0,312.0,314.0,308.0,306.0
4043,315,309,0,4042.0,4040.0,310.0,312.0,307.0,308.0
4044,315,307,0,4043.0,4042.0,315.0,310.0,309.0,307.0
4044,318,310,0,4044.0,4043.0,315.0,315.0,307.0,309.0
4046,319,311,0,4044.0,4044.0,318.0,315.0,310.0,307.0
4047,321,311,0,4046.0,4044.0,319.0,318.0,311.0,310.0
4045,322,307,0,4047.0,4046.0,321.0,319.0,311.0,311.0
4046,321,308,0,4045.0,4047.0,322.0,321.0,307.0,311.0
4045,327,309,0,4046.0,4045.0,321.0,322.0,308.0,307.0
4046,330,307,0,4045.0,4046.0,327.0,321.0,309.0,308.0
4045,331,303,0,4046.0,4045.0,330.0,327.0,307.0,309.0
4047,334,303,0,4045.0,4046.0,331.0,330.0,303.0,307.0
4048,333,302,0,4047.0,4045.0,334.0,331.0,303.0,303.0
4048,338,297,0,4048.0,4047.0,333.0,334.0,302.0,303.0
4054,336,294,0,4048.0,4048.0,338.0,333.0,297.0,302.0
4055,336,295,0,4054.0,4048.0,336.0,338.0,294.0,297.0
4056,339,294,0,4055.0,4054.0,336.0,336.0,295.0,294.0
4053,337,293,0,4056.0,4055.0,339.0,336.0,294.0,295.0
4055,339,295,0,4053.0,4056.0,337.0,339.0,293.0,294.0
4050,340,293,0,4055.0,4053.0,339.0,337.0,295.0,293.0
4056,342,293,0,4050.0,4055.0,340.0,339.0,293.0,295.0
4056,345,293,0,4056.0,4050.0,342.0,340.0,293.0,293.0
4054,347,290,0,4056.0,4056.0,345.0,342.0,293.0,293.0
4055,347,290,0,4054.0,4056.0,347.0,345.0,290.0,293.0
4058,347,294,0,4055.0,4054.0,347.0,347.0,290.0,290.0
4052,348,296,0,4058.0,4055.0,347.0,347.0,294.0,290.0
4048,346,294,0,4052.0,4058.0,348.0,347.0,296.0,294.0
4047,344,294,0,4048.0,4052.0,346.0,348.0,294.0,296.0
4044,340,294,0,4047.0,4048.0,344.0,346.0,294.0,294.0
4047,338,292,0,4044.0,4047.0,340.0,344.0,294.0,294.0
4043,335,294,0,4047.0,4044.0,338.0,340.0,292.0,294.0
4047,331,294,0,4043.0,4047.0,335.0,338.0,294.0,292.0
4046,329,297,0,4047.0,4043.0,331.0,335.0,294.0,294.0
4053,326,295,0,4046.0,4047.0,329.0,331.0,297.0,294.0
4050,324,294,0,4053.0,4046.0,326.0,329.0,295.0,297.0
4049,322,289,0,4050.0,4053.0,324.0,326.0,294.0,295.0
4052,321,290,0,4049.0,4050.0,322.0,324.0,289.0,294.0
4050,320,293,0,4052.0,4049.0,321.0,322.0,290.0,289.0
4049,319,293,0,4050.0,4052.0,320.0,321.0,293.0,290.0
4047,317,296,0,4049.0,4050.0,319.0,320.0,293.0,293.0
4045,318,292,0,4047.0,4049.0,317.0,319.0,296.0,293.0
4039,317,290,0,4045.0,4047.0,318.0,317.0,292.0,296.0
4035,316,286,0,4039.0,4045.0,317.0,318.0,290.0,292.0
4036,316,286,0,4035.0,4039.0,316.0,317.0,286.0,290.0
4038,317,284,0,4036.0,4035.0,316.0,316.0,286.0,286.0
4039,322,282,0,4038.0,4036.0,317.0,316.0,284.0,286.0
4047,323,286,0,4039.0,4038.0,322.0,317.0,282.0,284.0
4048,324,282,0,4047.0,4039.0,323.0,322.0,286.0,282.0
4053,328,282,0,4048.0,4047.0,324.0,323.0,282.0,286.0
4057,331,284,0,4053.0,4048.0,328.0,324.0,282.0,282.0
4060,330,286,0,4057.0,4053.0,331.0,328.0,284.0,282.0
4061,329,286,0,4060.0,4057.0,330.0,331.0,286.0,284.0
4059,327,283,0,4061.0,4060.0,329.0,330.0,286.0,286.0
4057,328,286,0,4059.0,4061.0,327.0,329.0,283.0,286.0
4063,322,286,0,4057.0,4059.0,328.0,327.0,286.0,283.0
4055,320,287,0,4063.0,4057.0,322.0,328.0,286.0,286.0
4052,322,290,0,4055.0,4063.0,320.0,322.0,287.0,286.0
4049,321,289,0,4052.0,4055.0,322.0,320.0,290.0,287.0
4048,321,290,0,4049.0,4052.0,321.0,322.0,289.0,290.0
4046,318,289,0,4048.0,4049.0,321.0,321.0,290.0,289.0
4042,313,288,0,4046.0,4048.0,318.0,321.0,289.0,290.0
4041,316,286,0,4042.0,4046.0,313.0,318.0,288.0,289.0
4036,317,288,0,4041.0,4042.0,316.0,313.0,286.0,288.0
4036,316,287,0,4036.0,4041.0,317.0,316.0,288.0,286.0
4034,320,290,0,4036.0,4036.0,316.0,317.0,287.0,288.0
4035,317,289,0,4034.0,4036.0,320.0,316.0,290.0,287.0
4033,320,292,0,4035.0,4034.0,317.0,320.0,289.0,290.0
4038,323,295,0,4033.0,4035.0,320.0,317.0,292.0,289.0
4038,325,294,0,4038.0,4033.0,323.0,320.0,295.0,292.0
4037,326,297,0,4038.0,4038.0,325.0,323.0,294.0,295.0
4037,327,300,0,4037.0,4038.0,326.0,325.0,297.0,294.0
4040,330,293,0,4037.0,4037.0,327.0,326.0,300.0,297.0
4044,334,289,0,4040.0,4037.0,330.0,327.0,293.0,300.0
4046,339,288,0,4044.0,4040.0,334.0,330.0,289.0,293.0
4049,346,291,0,4046.0,4044.0,339.0,334.0,288.0,289.0
4049,349,293,0,4049.0,4046.0,346.0,339.0,291.0,288.0
4051,349,297,0,4049.0,4049.0,349.0,346.0,293.0,291.0
4056,350,304,0,4051.0,4049.0,349.0,349.0,297.0,293.0
4055,343,308,0,4056.0,4051.0,350.0,349.0,304.0,297.0
4053,339,306,0,4055.0,4056.0,343.0,350.0,308.0,304.0
4049,332,312,0,4053.0,4055.0,339.0,343.0,306.0,308.0
4046,321,316,0,4049.0,4053.0,332.0,339.0,312.0,306.0
4041,315,320,0,4046.0,4049.0,321.0,332.0,316.0,312.0
4040,304,317,0,4041.0,4046.0,315.0,321.0,320.0,316.0
4037,295,310,0,4040.0,4041.0,304.0,315.0,317.0,320.0
4036,288,310,0,4037.0,4040.0,295.0,304.0,310.0,317.0
4034,280,308,0,4036.0,4037.0,288.0,295.0,310.0,310.0
4038,278,302,0,4034.0,4036.0,280.0,288.0,308.0,310.0
4040,277,300,0,4038.0,4034.0,278.0,280.0,302.0,308.0
4045,277,300,0,4040.0,4038.0,277.0,278.0,300.0,302.0
4046,281,301,0,4045.0,4040.0,277.0,277.0,300.0,300.0
4051,279,308,0,4046.0,4045.0,281.0,277.0,301.0,300.0
4049,279,314,0,4051.0,4046.0,279.0,281.0,308.0,301.0
4048,278,318,0,4049.0,4051.0,279.0,279.0,314.0,308.0
4042,272,319,0,4048.0,4049.0,278.0,279.0,318.0,314.0
4045,265,318,0,4042.0,4048.0,272.0,278.0,319.0,318.0
4043,250,319,0,4045.0,4042.0,265.0,272.0,318.0,319.0
4042,239,316,0,4043.0,4045.0,250.0,265.0,319.0,318.0
4042,230,317,0,4042.0,4043.0,239.0,250.0,316.0,319.0
4044,219,315,0,4042.0,4042.0,230.0,239.0,317.0,316.0
4041,208,308,0,4044.0,4042.0,219.0,230.0,315.0,317.0
4041,203,299,0,4041.0,4044.0,208.0,219.0,308.0,315.0
4040,203,294,0,4041.0,4041.0,203.0,208.0,299.0,308.0
4038,203,283,0,4040.0,4041.0,203.0,203.0,294.0,299.0
4045,202,280,0,4038.0,4040.0,203.0,203.0,283.0,294.0
4050,202,279,0,4045.0,4038.0,202.0,203.0,280.0,283.0
4057,200,280,0,4050.0,4045.0,202.0,202.0,279.0,280.0
4062,196,288,0,4057.0,4050.0,200.0,202.0,280.0,279.0
4072,192,298,0,4062.0,4057.0,196.0,200.0,288.0,280.0
4071,186,301,0,4072.0,4062.0,192.0,196.0,298.0,288.0
4068,179,304,0,4071.0,4072.0,186.0,192.0,301.0,298.0
4064,173,304,0,4068.0,4071.0,179.0,186.0,304.0,301.0
4060,163,301,0,4064.0,4068.0,173.0,179.0,304.0,304.0
4050,153,297,0,4060.0,4064.0,163.0,173.0,301.0,304.0
4045,144,296,0,4050.0,4060.0,153.0,163.0,297.0,301.0
4040,141,292,0,4045.0,4050.0,144.0,153.0,296.0,297.0
4034,143,293,0,4040.0,4045.0,141.0,144.0,292.0,296.0
4035,148,292,0,4034.0,4040.0,143.0,141.0,293.0,292.0
4030,157,295,0,4035.0,4034.0,148.0,143.0,292.0,293.0
4028,177,295,0,4030.0,4035.0,157.0,148.0,295.0,292.0
4026,195,295,0,4028.0,4030.0,177.0,157.0,295.0,295.0
4023,215,296,0,4026.0,4028.0,195.0,177.0,295.0,295.0
4023,238,299,0,4023.0,4026.0,215.0,195.0,296.0,295.0
4030,262,301,0,4023.0,4023.0,238.0,215.0,299.0,296.0
4035,287,303,0,4030.0,4023.0,262.0,238.0,301.0,299.0
4037,308,304,0,4035.0,4030.0,287.0,262.0,303.0,301.0
4043,324,305,0,4037.0,4035.0,308.0,287.0,304.0,303.0
4047,338,302,0,4043.0,4037.0,324.0,308.0,305.0,304.0
4048,349,294,0,4047.0,4043.0,338.0,324.0,302.0,305.0
4052,356,283,0,4048.0,4047.0,349.0,338.0,294.0,302.0
4049,355,269,0,4052.0,4048.0,356.0,349.0,283.0,294.0
4046,352,261,0,4049.0,4052.0,355.0,356.0,269.0,283.0
4044,351,252,0,4046.0,4049.0,352.0,355.0,261.0,269.0
4043,343,248,0,4044.0,4046.0,351.0,352.0,252.0,261.0
4048,335,251,0,4043.0,4044.0,343.0,351.0,248.0,252.0
4048,326,257,0,4048.0,4043.0,335.0,343.0,251.0,248.0
4056,318,261,0,4048.0,4048.0,326.0,335.0,257.0,251.0
4061,306,260,0,4056.0,4048.0,318.0,326.0,261.0,257.0
4066,297,262,0,4061.0,4056.0,306.0,318.0,260.0,261.0
4070,290,260,0,4066.0,4061.0,297.0,306.0,262.0,260.0
4075,285,248,0,4070.0,4066.0,290.0,297.0,260.0,262.0
4077,282,238,0,4075.0,4070.0,285.0,290.0,248.0,260.0
4083,278,228,0,4077.0,4075.0,282.0,285.0,238.0,248.0
4090,277,219,0,4083.0,4077.0,278.0,282.0,228.0,238.0
4094,281,213,0,4090.0,4083.0,277.0,278.0,219.0,228.0
4095,285,210,0,4094.0,4090.0,281.0,277.0,213.0,219.0
4096,297,214,0,4095.0,4094.0,285.0,281.0,210.0,213.0
4094,308,219,0,4096.0,4095.0,297.0,285.0,214.0,210.0
4091,321,228,0,4094.0,4096.0,308.0,297.0,219.0,214.0
4085,338,235,0,4091.0,4094.0,321.0,308.0,228.0,219.0
4076,356,243,0,4085.0,4091.0,338.0,321.0,235.0,228.0
4062,370,248,0,4076.0,4085.0,356.0,338.0,243.0,235.0
4049,387,250,0,4062.0,4076.0,370.0,356.0,248.0,243.0
4035,404,249,0,4049.0,4062.0,387.0,370.0,250.0,248.0
4024,424,249,0,4035.0,4049.0,404.0,387.0,249.0,250.0
4017,440,242,0,4024.0,4035.0,424.0,404.0,249.0,249.0
4014,457,237,0,4017.0,4024.0,440.0,424.0,242.0,249.0
4017,472,230,0,4014.0,4017.0,457.0,440.0,237.0,242.0
4021,480,222,0,4017.0,4014.0,472.0,457.0,230.0,237.0
4027,497,218,0,4021.0,4017.0,480.0,472.0,222.0,230.0
4035,515,216,0,4027.0,4021.0,497.0,480.0,218.0,222.0
4044,526,217,0,4035.0,4027.0,515.0,497.0,216.0,218.0
4055,537,219,0,4044.0,4035.0,526.0,515.0,217.0,216.0
4064,543,217,0,4055.0,4044.0,537.0,526.0,219.0,217.0
4070,546,212,0,4064.0,4055.0,543.0,537.0,217.0,219.0
4073,548,208,0,4070.0,4064.0,546.0,543.0,212.0,217.0
4070,549,206,0,4073.0,4070.0,548.0,546.0,208.0,212.0
4070,539,201,0,4070.0,4073.0,549.0,548.0,206.0,208.0
4068,530,197,0,4070.0,4070.0,539.0,549.0,201.0,206.0
4067,520,195,0,4068.0,4070.0,530.0,539.0,197.0,201.0
4061,506,194,0,4067.0,4068.0,520.0,530.0,195.0,197.0
4054,494,190,0,4061.0,4067.0,506.0,520.0,194.0,195.0
4047,486,189,0,4054.0,4061.0,494.0,506.0,190.0,194.0
4048,479,188,0,4047.0,4054.0,486.0,494.0,189.0,190.0
4047,477,192,0,4048.0,4047.0,479.0,486.0,188.0,189.0
4046,476,191,0,4047.0,4048.0,477.0,479.0,192.0,188.0
4048,480,189,0,4046.0,4047.0,476.0,477.0,191.0,192.0
4050,493,189,0,4048.0,4046.0,480.0,476.0,189.0,191.0
4057,508,188,0,4050.0,4048.0,493.0,480.0,189.0,189.0
4063,520,186,0,4057.0,4050.0,508.0,493.0,188.0,189.0
4068,530,187,0,4063.0,4057.0,520.0,508.0,186.0,188.0
4072,541,191,0,4068.0,4063.0,530.0,520.0,187.0,186.0
4079,550,193,0,4072.0,4068.0,541.0,530.0,191.0,187.0
4086,555,195,0,4079.0,4072.0,550.0,541.0,193.0,191.0
4089,554,195,0,4086.0,4079.0,555.0,550.0,195.0,193.0
4088,549,199,0,4089.0,4086.0,554.0,555.0,195.0,195.0
4083,546,204,0,4088.0,4089.0,549.0,554.0,199.0,195.0
4079,539,210,0,4083.0,4088.0,546.0,549.0,204.0,199.0
4077,530,213,0,4079.0,4083.0,539.0,546.0,210.0,204.0
4067,521,216,0,4077.0,4079.0,530.0,539.0,213.0,210.0
4060,510,219,0,4067.0,4077.0,521.0,530.0,216.0,213.0
4056,500,217,0,4060.0,4067.0,510.0,521.0,219.0,216.0
4053,492,217,0,4056.0,4060.0,500.0,510.0,217.0,219.0
4050,483,217,0,4053.0,4056.0,492.0,500.0,217.0,217.0
4044,472,219,0,4050.0,4053.0,483.0,492.0,217.0,217.0
4041,461,214,0,4044.0,4050.0,472.0,483.0,219.0,217.0
4034,451,212,0,4041.0,4044.0,461.0,472.0,214.0,219.0
4033,446,211,0,4034.0,4041.0,451.0,461.0,212.0,214.0
4033,438,213,0,4033.0,4034.0,446.0,451.0,211.0,212.0
4032,437,215,0,4033.0,4033.0,438.0,446.0,213.0,211.0
4032,431,216,0,4032.0,4033.0,437.0,438.0,215.0,213.0
4034,431,212,0,4032.0,4032.0,431.0,437.0,216.0,215.0
4035,425,210,0,4034.0,4032.0,431.0,431.0,212.0,216.0
4043,424,213,0,4035.0,4034.0,425.0,431.0,210.0,212.0
4050,422,208,0,4043.0,4035.0,424.0,425.0,213.0,210.0
4059,419,207,0,4050.0,4043.0,422.0,424.0,208.0,213.0
4067,422,212,0,4059.0,4050.0,419.0,422.0,207.0,208.0
4077,425,208,0,4067.0,4059.0,422.0,419.0,212.0,207.0
4080,428,208,0,4077.0,4067.0,425.0,422.0,208.0,212.0
4088,428,203,0,4080.0,4077.0,428.0,425.0,208.0,208.0
4088,426,202,0,4088.0,4080.0,428.0,428.0,203.0,208.0
4089,425,199,0,4088.0,4088.0,426.0,428.0,202.0,203.0
4086,422,196,0,4089.0,4088.0,425.0,426.0,199.0,202.0
4079,424,197,0,4086.0,4089.0,422.0,425.0,196.0,199.0
4074,421,200,0,4079.0,4086.0,424.0,422.0,197.0,196.0
4068,424,204,0,4074.0,4079.0,421.0,424.0,200.0,197.0
4062,420,215,0,4068.0,4074.0,424.0,421.0,204.0,200.0
4056,416,230,0,4062.0,4068.0,420.0,424.0,215.0,204.0
4053,408,241,0,4056.0,4062.0,416.0,420.0,230.0,215.0
4053,398,248,0,4053.0,4056.0,408.0,416.0,241.0,230.0
4046,391,249,0,4053.0,4053.0,398.0,408.0,248.0,241.0
4040,389,248,0,4046.0,4053.0,391.0,398.0,249.0,248.0
4037,389,248,0,4040.0,4046.0,389.0,391.0,248.0,249.0
4037,391,244,0,4037.0,4040.0,389.0,389.0,248.0,248.0
4041,392,243,0,4037.0,4037.0,391.0,389.0,244.0,248.0
4041,390,239,0,4041.0,4037.0,392.0,391.0,243.0,244.0
4048,391,242,0,4041.0,4041.0,390.0,392.0,239.0,243.0
4060,388,248,0,4048.0,4041.0,391.0,390.0,242.0,239.0
4079,384,267,0,4060.0,4048.0,388.0,391.0,248.0,242.0
4091,379,277,0,4079.0,4060.0,384.0,388.0,267.0,248.0
4100,369,276,0,4091.0,4079.0,379.0,384.0,277.0,267.0
4106,364,269,0,4100.0,4091.0,369.0,379.0,276.0,277.0
4103,365,254,0,4106.0,4100.0,364.0,369.0,269.0,276.0
4095,365,232,0,4103.0,4106.0,365.0,364.0,254.0,269.0
4073,362,211,0,4095.0,4103.0,365.0,365.0,232.0,254.0
4059,356,196,0,4073.0,4095.0,362.0,365.0,211.0,232.0
4044,351,199,0,4059.0,4073.0,356.0,362.0,196.0,211.0
4036,349,213,0,4044.0,4059.0,351.0,356.0,199.0,196.0
4031,349,237,0,4036.0,4044.0,349.0,351.0,213.0,199.0
4032,346,252,0,4031.0,4036.0,349.0,349.0,237.0,213.0
4029,341,260,0,4032.0,4031.0,346.0,349.0,252.0,237.0
4027,333,263,0,4029.0,4032.0,341.0,346.0,260.0,252.0
4026,323,265,0,4027.0,4029.0,333.0,341.0,263.0,260.0
4025,321,262,0,4026.0,4027.0,323.0,333.0,265.0,263.0
4025,312,258,0,4025.0,4026.0,321.0,323.0,262.0,265.0
4027,303,247,0,4025.0,4025.0,312.0,321.0,258.0,262.0
4028,292,237,0,4027.0,4025.0,303.0,312.0,247.0,258.0
4027,286,222,0,4028.0,4027.0,292.0,303.0,237.0,247.0
4030,283,221,0,4027.0,4028.0,286.0,292.0,222.0,237.0
4032,283,227,0,4030.0,4027.0,283.0,286.0,221.0,222.0
4039,286,239,0,4032.0,4030.0,283.0,283.0,227.0,221.0
4045,290,256,0,4039.0,4032.0,286.0,283.0,239.0,227.0
4053,289,276,0,4045.0,4039.0,290.0,286.0,256.0,239.0
4062,283,285,0,4053.0,4045.0,289.0,290.0,276.0,256.0
4065,270,282,0,4062.0,4053.0,283.0,289.0,285.0,276.0
4066,265,273,0,4065.0,4062.0,270.0,283.0,282.0,285.0
4061,259,265,0,4066.0,4065.0,265.0,270.0,273.0,282.0
4066,255,257,0,4061.0,4066.0,259.0,265.0,265.0,273.0
4063,250,254,0,4066.0,4061.0,255.0,259.0,257.0,265.0
4059,248,261,0,4063.0,4066.0,250.0,255.0,254.0,257.0
4052,235,265,0,4059.0,4063.0,248.0,250.0,261.0,254.0
4040,226,273,0,4052.0,4059.0,235.0,248.0,265.0,261.0
4027,213,278,0,4040.0,4052.0,226.0,235.0,273.0,265.0
4018,196,283,0,4027.0,4040.0,213.0,226.0,278.0,273.0
4009,182,296,0,4018.0,4027.0,196.0,213.0,283.0,278.0
4005,167,307,0,4009.0,4018.0,182.0,196.0,296.0,283.0
4010,151,319,0,4005.0,4009.0,167.0,182.0,307.0,296.0
4012,134,327,0,4010.0,4005.0,151.0,167.0,319.0,307.0
4012,120,331,0,4012.0,4010.0,134.0,151.0,327.0,319.0
4017,110,328,0,4012.0,4012.0,120.0,134.0,331.0,327.0
4021,107,321,0,4017.0,4012.0,110.0,120.0,328.0,331.0
4028,110,315,0,4021.0,4017.0,107.0,110.0,321.0,328.0
4041,118,309,0,4028.0,4021.0,110.0,107.0,315.0,321.0
4054,123,305,0,4041.0,4028.0,118.0,110.0,309.0,315.0
4064,127,296,0,4054.0,4041.0,123.0,118.0,305.0,309.0
4070,129,289,0,4064.0,4054.0,127.0,123.0,296.0,305.0
4072,135,289,0,4070.0,4064.0,129.0,127.0,289.0,296.0
4068,142,285,0,4072.0,4070.0,135.0,129.0,289.0,289.0
4056,151,277,0,4068.0,4072.0,142.0,135.0,285.0,289.0
4047,153,279,0,4056.0,4068.0,151.0,142.0,277.0,285.0
4038,157,285,0,4047.0,4056.0,153.0,151.0,279.0,277.0
4035,160,300,0,4038.0,4047.0,157.0,153.0,285.0,279.0
4040,165,318,0,4035.0,4038.0,160.0,157.0,300.0,285.0
4044,167,326,0,4040.0,4035.0,165.0,160.0,318.0,300.0
4046,167,330,0,4044.0,4040.0,167.0,165.0,326.0,318.0
4051,172,328,0,4046.0,4044.0,167.0,167.0,330.0,326.0
4062,183,324,0,4051.0,4046.0,172.0,167.0,328.0,330.0
4070,196,323,0,4062.0,4051.0,183.0,172.0,324.0,328.0
4073,211,323,0,4070.0,4062.0,196.0,183.0,323.0,324.0
4074,219,318,0,4073.0,4070.0,211.0,196.0,323.0,323.0
4071,225,311,0,4074.0,4073.0,219.0,211.0,318.0,323.0
4063,232,303,0,4071.0,4074.0,225.0,219.0,311.0,318.0
4056,232,301,0,4063.0,4071.0,232.0,225.0,303.0,311.0
4052,241,305,0,4056.0,4063.0,232.0,232.0,301.0,303.0
4047,245,312,0,4052.0,4056.0,241.0,232.0,305.0,301.0
4044,255,320,0,4047.0,4052.0,245.0,241.0,312.0,305.0
4038,260,329,0,4044.0,4047.0,255.0,245.0,320.0,312.0
4037,261,331,0,4038.0,4044.0,260.0,255.0,329.0,320.0
4034,264,331,0,4037.0,4038.0,261.0,260.0,331.0,329.0
4030,263,331,0,4034.0,4037.0,264.0,261.0,331.0,331.0
4033,266,338,0,4030.0,4034.0,263.0,264.0,331.0,331.0
4033,268,343,0,4033.0,4030.0,266.0,263.0,338.0,331.0
4035,270,332,0,4033.0,4033.0,268.0,266.0,343.0,338.0
4031,275,317,0,4035.0,4033.0,270.0,268.0,332.0,343.0
4030,284,312,0,4031.0,4035.0,275.0,270.0,317.0,332.0
4038,297,315,0,4030.0,4031.0,284.0,275.0,312.0,317.0
4047,308,328,0,4038.0,4030.0,297.0,284.0,315.0,312.0
4057,317,327,0,4047.0,4038.0,308.0,297.0,328.0,315.0
4060,318,319,0,4057.0,4047.0,317.0,308.0,327.0,328.0
4059,318,314,0,4060.0,4057.0,318.0,317.0,319.0,327.0
4055,312,309,0,4059.0,4060.0,318.0,318.0,314.0,319.0
4053,311,303,0,4055.0,4059.0,312.0,318.0,309.0,314.0
4053,309,307,0,4053.0,4055.0,311.0,312.0,303.0,309.0
4053,305,310,0,4053.0,4053.0,309.0,311.0,307.0,303.0
4052,300,312,0,4053.0,4053.0,305.0,309.0,310.0,307.0
4048,299,313,0,4052.0,4053.0,300.0,305.0,312.0,310.0
4043,293,319,0,4048.0,4052.0,299.0,300.0,313.0,312.0
4039,286,318,0,4043.0,4048.0,293.0,299.0,319.0,313.0
4041,286,320,0,4039.0,4043.0,286.0,293.0,318.0,319.0
4038,284,319,0,4041.0,4039.0,286.0,286.0,320.0,318.0
4036,282,320,0,4038.0,4041.0,284.0,286.0,319.0,320.0
4037,282,323,0,4036.0,4038.0,282.0,284.0,320.0,319.0
4035,279,330,0,4037.0,4036.0,282.0,282.0,323.0,320.0
4031,276,331,0,4035.0,4037.0,279.0,282.0,330.0,323.0
4028,270,328,0,4031.0,4035.0,276.0,279.0,331.0,330.0
4028,264,322,0,4028.0,4031.0,270.0,276.0,328.0,331.0
4032,257,320,0,4028.0,4028.0,264.0,270.0,322.0,328.0
4032,252,319,0,4032.0,4028.0,257.0,264.0,320.0,322.0
4032,247,322,0,4032.0,4032.0,252.0,257.0,319.0,320.0
4030,246,324,0,4032.0,4032.0,247.0,252.0,322.0,319.0
4030,245,323,0,4030.0,4032.0,246.0,247.0,324.0,322.0
4026,240,321,0,4030.0,4030.0,245.0,246.0,323.0,324.0
4026,234,319,0,4026.0,4030.0,240.0,245.0,321.0,323.0
4023,229,321,0,4026.0,4026.0,234.0,240.0,319.0,321.0
4024,225,319,0,4023.0,4026.0,229.0,234.0,321.0,319.0
4029,222,317,0,4024.0,4023.0,225.0,229.0,319.0,321.0
4033,222,314,0,4029.0,4024.0,222.0,225.0,317.0,319.0
4038,221,305,0,4033.0,4029.0,222.0,222.0,314.0,317.0
4042,227,301,0,4038.0,4033.0,221.0,222.0,305.0,314.0
4051,233,301,0,4042.0,4038.0,227.0,221.0,301.0,305.0
4057,243,301,0,4051.0,4042.0,233.0,227.0,301.0,301.0
4061,252,301,0,4057.0,4051.0,243.0,233.0,301.0,301.0
4067,255,302,0,4061.0,4057.0,252.0,243.0,301.0,301.0
4069,257,300,0,4067.0,4061.0,255.0,252.0,302.0,301.0
4070,260,299,0,4069.0,4067.0,257.0,255.0,300.0,302.0
4070,259,294,0,4070.0,4069.0,260.0,257.0,299.0,300.0
4073,256,297,0,4070.0,4070.0,259.0,260.0,294.0,299.0
4071,257,297,0,4073.0,4070.0,256.0,259.0,297.0,294.0
4070,256,301,0,4071.0,4073.0,257.0,256.0,297.0,297.0
4069,259,303,0,4070.0,4071.0,256.0,257.0,301.0,297.0
4066,257,307,0,4069.0,4070.0,259.0,256.0,303.0,301.0
4062,258,309,0,4066.0,4069.0,257.0,259.0,307.0,303.0
4062,261,310,0,4062.0,4066.0,258.0,257.0,309.0,307.0
4056,267,312,0,4062.0,4062.0,261.0,258.0,310.0,309.0
4053,269,312,0,4056.0,4062.0,267.0,261.0,312.0,310.0
4048,276,315,0,4053.0,4056.0,269.0,267.0,312.0,312.0
4048,276,317,0,4048.0,4053.0,276.0,269.0,315.0,312.0
4045,281,318,0,4048.0,4048.0,276.0,276.0,317.0,315.0
4043,284,317,0,4045.0,4048.0,281.0,276.0,318.0,317.0
4041,293,320,0,4043.0,4045.0,284.0,281.0,317.0,318.0
4042,293,319,0,4041.0,4043.0,293.0,284.0,320.0,317.0
4038,289,320,0,4042.0,4041.0,293.0,293.0,319.0,320.0
4039,287,321,0,4038.0,4042.0,289.0,293.0,320.0,319.0
4039,287,316,0,4039.0,4038.0,287.0,289.0,321.0,320.0
4042,286,311,0,4039.0,4039.0,287.0,287.0,316.0,321.0
4042,283,306,0,4042.0,4039.0,286.0,287.0,311.0,316.0
4040,286,299,0,4042.0,4042.0,283.0,286.0,306.0,311.0
4044,287,296,0,4040.0,4042.0,286.0,283.0,299.0,306.0
4047,289,291,0,4044.0,4040.0,287.0,286.0,296.0,299.0
4047,292,288,0,4047.0,4044.0,289.0,287.0,291.0,296.0
4051,298,286,0,4047.0,4047.0,292.0,289.0,288.0,291.0
4058,299,281,0,4051.0,4047.0,298.0,292.0,286.0,288.0
4064,305,275,0,4058.0,4051.0,299.0,298.0,281.0,286.0
4071,308,269,0,4064.0,4058.0,305.0,299.0,275.0,281.0
4073,319,268,0,4071.0,4064.0,308.0,305.0,269.0,275.0
4082,328,273,0,4073.0,4071.0,319.0,308.0,268.0,269.0
4088,341,276,0,4082.0,4073.0,328.0,319.0,273.0,268.0
4092,356,280,0,4088.0,4082.0,341.0,328.0,276.0,273.0
4090,370,274,0,4092.0,4088.0,356.0,341.0,280.0,276.0
4088,381,272,0,4090.0,4092.0,370.0,356.0,274.0,280.0
4087,384,269,0,4088.0,4090.0,381.0,370.0,272.0,274.0
4083,387,268,0,4087.0,4088.0,384.0,381.0,269.0,272.0
4078,389,272,0,4083.0,4087.0,387.0,384.0,268.0,269.0
4074,392,274,0,4078.0,4083.0,389.0,387.0,272.0,268.0
4068,392,280,0,4074.0,4078.0,392.0,389.0,274.0,272.0
4064,388,282,0,4068.0,4074.0,392.0,392.0,280.0,274.0
4053,393,284,0,4064.0,4068.0,388.0,392.0,282.0,280.0
4038,394,284,0,4053.0,4064.0,393.0,388.0,284.0,282.0
4030,397,280,0,4038.0,4053.0,394.0,393.0,284.0,284.0
4025,399,278,0,4030.0,4038.0,397.0,394.0,280.0,284.0
4029,403,278,0,4025.0,4030.0,399.0,397.0,278.0,280.0
4032,402,280,0,4029.0,4025.0,403.0,399.0,278.0,278.0
4031,406,276,0,4032.0,4029.0,402.0,403.0,280.0,278.0
4036,406,280,0,4031.0,4032.0,406.0,402.0,276.0,280.0
4043,402,283,0,4036.0,4031.0,406.0,406.0,280.0,276.0
4047,404,285,0,4043.0,4036.0,402.0,406.0,283.0,280.0
4048,405,287,0,4047.0,4043.0,404.0,402.0,285.0,283.0
4045,404,284,0,4048.0,4047.0,405.0,404.0,287.0,285.0
4045,406,278,0,4045.0,4048.0,404.0,405.0,284.0,287.0
4046,402,274,0,4045.0,4045.0,406.0,404.0,278.0,284.0
4051,400,276,0,4046.0,4045.0,402.0,406.0,274.0,278.0
4061,404,281,0,4051.0,4046.0,400.0,402.0,276.0,274.0
4070,407,291,0,4061.0,4051.0,404.0,400.0,281.0,276.0
4084,410,293,0,4070.0,4061.0,407.0,404.0,291.0,281.0
4092,407,293,0,4084.0,4070.0,410.0,407.0,293.0,291.0
4096,410,284,0,4092.0,4084.0,407.0,410.0,293.0,293.0
4093,412,269,0,4096.0,4092.0,410.0,407.0,284.0,293.0
4079,411,258,0,4093.0,4096.0,412.0,410.0,269.0,284.0
4063,402,244,0,4079.0,4093.0,411.0,412.0,258.0,269.0
4050,387,232,0,4063.0,4079.0,402.0,411.0,244.0,258.0
4036,371,227,0,4050.0,4063.0,387.0,402.0,232.0,244.0
4026,359,235,0,4036.0,4050.0,371.0,387.0,227.0,232.0
4023,348,248,0,4026.0,4036.0,359.0,371.0,235.0,227.0
4021,338,261,0,4023.0,4026.0,348.0,359.0,248.0,235.0
4018,330,273,0,4021.0,4023.0,338.0,348.0,261.0,248.0
4024,311,277,0,4018.0,4021.0,330.0,338.0,273.0,261.0
4031,296,271,0,4024.0,4018.0,311.0,330.0,277.0,273.0
4040,288,261,0,4031.0,4024.0,296.0,311.0,271.0,277.0
4049,285,257,0,4040.0,4031.0,288.0,296.0,261.0,271.0
4059,288,255,0,4049.0,4040.0,285.0,288.0,257.0,261.0
4066,298,258,0,4059.0,4049.0,288.0,285.0,255.0,257.0
4065,308,255,0,4066.0,4059.0,298.0,288.0,258.0,255.0
4068,320,253,0,4065.0,4066.0,308.0,298.0,255.0,258.0
4065,328,256,0,4068.0,4065.0,320.0,308.0,253.0,255.0
4056,329,258,0,4065.0,4068.0,328.0,320.0,256.0,253.0
4051,324,260,0,4056.0,4065.0,329.0,328.0,258.0,256.0
4047,319,264,0,4051.0,4056.0,324.0,329.0,260.0,258.0
4042,312,268,0,4047.0,4051.0,319.0,324.0,264.0,260.0
4042,306,278,0,4042.0,4047.0,312.0,319.0,268.0,264.0
4042,294,286,0,4042.0,4042.0,306.0,312.0,278.0,268.0
4044,285,287,0,4042.0,4042.0,294.0,306.0,286.0,278.0
4048,276,286,0,4044.0,4042.0,285.0,294.0,287.0,286.0
4052,270,289,0,4048.0,4044.0,276.0,285.0,286.0,287.0
4050,257,286,0,4052.0,4048.0,270.0,276.0,289.0,286.0
4048,248,277,0,4050.0,4052.0,257.0,270.0,286.0,289.0
4051,245,270,0,4048.0,4050.0,248.0,257.0,277.0,286.0
4048,252,267,0,4051.0,4048.0,245.0,248.0,270.0,277.0
4052,264,268,0,4048.0,4051.0,252.0,245.0,267.0,270.0
4054,278,267,0,4052.0,4048.0,264.0,252.0,268.0,267.0
4060,288,263,0,4054.0,4052.0,278.0,264.0,267.0,268.0
4064,293,258,0,4060.0,4054.0,288.0,278.0,263.0,267.0
4060,295,256,0,4064.0,4060.0,293.0,288.0,258.0,263.0
4056,296,257,0,4060.0,4064.0,295.0,293.0,256.0,258.0
4056,295,262,0,4056.0,4060.0,296.0,295.0,257.0,256.0
4059,292,267,0,4056.0,4056.0,295.0,296.0,262.0,257.0
4056,286,270,0,4059.0,4056.0,292.0,295.0,267.0,262.0
4051,282,271,0,4056.0,4059.0,286.0,292.0,270.0,267.0
4051,277,274,0,4051.0,4056.0,282.0,286.0,271.0,270.0
4050,275,277,0,4051.0,4051.0,277.0,282.0,274.0,271.0
4046,273,277,0,4050.0,4051.0,275.0,277.0,277.0,274.0
4038,269,273,0,4046.0,4050.0,273.0,275.0,277.0,277.0
4034,270,271,0,4038.0,4046.0,269.0,273.0,273.0,277.0
4032,269,275,0,4034.0,4038.0,270.0,269.0,271.0,273.0
4032,272,277,0,4032.0,4034.0,269.0,270.0,275.0,271.0
4034,274,280,0,4032.0,4032.0,272.0,269.0,277.0,275.0
4041,271,284,0,4034.0,4032.0,274.0,272.0,280.0,277.0
4049,269,281,0,4041.0,4034.0,271.0,274.0,284.0,280.0
4059,266,283,0,4049.0,4041.0,269.0,271.0,281.0,284.0
4067,266,284,0,4059.0,4049.0,266.0,269.0,283.0,281.0
4071,265,290,0,4067.0,4059.0,266.0,266.0,284.0,283.0
4074,264,289,0,4071.0,4067.0,265.0,266.0,290.0,284.0
4076,264,291,0,4074.0,4071.0,264.0,265.0,289.0,290.0
4078,262,294,0,4076.0,4074.0,264.0,264.0,291.0,289.0
4081,255,306,0,4078.0,4076.0,262.0,264.0,294.0,291.0
4083,248,313,0,4081.0,4078.0,255.0,262.0,306.0,294.0
4081,241,307,0,4083.0,4081.0,248.0,255.0,313.0,306.0
4073,238,299,0,4081.0,4083.0,241.0,248.0,307.0,313.0
4058,238,293,0,4073.0,4081.0,238.0,241.0,299.0,307.0
4046,244,291,0,4058.0,4073.0,238.0,238.0,293.0,299.0
4037,248,288,0,4046.0,4058.0,244.0,238.0,291.0,293.0
4028,253,284,0,4037.0,4046.0,248.0,244.0,288.0,291.0
4018,256,284,0,4028.0,4037.0,253.0,248.0,284.0,288.0
4012,251,281,0,4018.0,4028.0,256.0,253.0,284.0,284.0
4011,246,277,0,4012.0,4018.0,251.0,256.0,281.0,284.0
4013,247,275,0,4011.0,4012.0,246.0,251.0,277.0,281.0
4018,245,279,0,4013.0,4011.0,247.0,246.0,275.0,277.0
4028,243,284,0,4018.0,4013.0,245.0,247.0,279.0,275.0
4038,244,287,0,4028.0,4018.0,243.0,245.0,284.0,279.0
4049,245,286,0,4038.0,4028.0,244.0,243.0,287.0,284.0
4058,250,289,0,4049.0,4038.0,245.0,244.0,286.0,287.0
4064,256,290,0,4058.0,4049.0,250.0,245.0,289.0,286.0
4068,263,288,0,4064.0,4058.0,256.0,250.0,290.0,289.0
4070,266,285,0,4068.0,4064.0,263.0,256.0,288.0,290.0
4066,268,284,0,4070.0,4068.0,266.0,263.0,285.0,288.0
4066,269,287,0,4066.0,4070.0,268.0,266.0,284.0,285.0
4064,271,291,0,4066.0,4066.0,269.0,268.0,287.0,284.0
4064,277,295,0,4064.0,4066.0,271.0,269.0,291.0,287.0
4062,284,303,0,4064.0,4064.0,277.0,271.0,295.0,291.0
4056,287,302,0,4062.0,4064.0,284.0,277.0,303.0,295.0
4052,285,298,0,4056.0,4062.0,287.0,284.0,302.0,303.0
4048,279,296,0,4052.0,4056.0,285.0,287.0,298.0,302.0
4042,277,293,0,4048.0,4052.0,279.0,285.0,296.0,298.0
4043,275,294,0,4042.0,4048.0,277.0,279.0,293.0,296.0
4038,279,297,0,4043.0,4042.0,275.0,277.0,294.0,293.0
4040,284,300,0,4038.0,4043.0,279.0,275.0,297.0,294.0
4039,286,305,0,4040.0,4038.0,284.0,279.0,300.0,297.0
4039,285,304,0,4039.0,4040.0,286.0,284.0,305.0,300.0
4044,281,305,0,4039.0,4039.0,285.0,286.0,304.0,305.0
4046,282,304,0,4044.0,4039.0,281.0,285.0,305.0,304.0
4044,275,303,0,4046.0,4044.0,282.0,281.0,304.0,305.0
4042,273,297,0,4044.0,4046.0,275.0,282.0,303.0,304.0
4041,273,294,0,4042.0,4044.0,273.0,275.0,297.0,303.0
4043,269,290,0,4041.0,4042.0,273.0,273.0,294.0,297.0
4042,268,292,0,4043.0,4041.0,269.0,273.0,290.0,294.0
4044,277,297,0,4042.0,4043.0,268.0,269.0,292.0,290.0
4044,285,301,0,4044.0,4042.0,277.0,268.0,297.0,292.0
4044,288,303,0,4044.0,4044.0,285.0,277.0,301.0,297.0
4045,290,305,0,4044.0,4044.0,288.0,285.0,303.0,301.0
4047,287,303,0,4045.0,4044.0,290.0,288.0,305.0,303.0
4050,285,300,0,4047.0,4045.0,287.0,290.0,303.0,305.0
4050,287,295,0,4050.0,4047.0,285.0,287.0,300.0,303.0
4051,289,295,0,4050.0,4050.0,287.0,285.0,295.0,300.0
4046,285,297,0,4051.0,4050.0,289.0,287.0,295.0,295.0
4046,287,298,0,4046.0,4051.0,285.0,289.0,297.0,295.0
4047,289,297,0,4046.0,4046.0,287.0,285.0,298.0,297.0
4050,289,297,0,4047.0,4046.0,289.0,287.0,297.0,298.0
4049,288,294,0,4050.0,4047.0,289.0,289.0,297.0,297.0
4050,287,293,0,4049.0,4050.0,288.0,289.0,294.0,297.0
4049,284,291,0,4050.0,4049.0,287.0,288.0,293.0,294.0
4046,279,288,0,4049.0,4050.0,284.0,287.0,291.0,293.0
4042,275,287,0,4046.0,4049.0,279.0,284.0,288.0,291.0
4038,270,285,0,4042.0,4046.0,275.0,279.0,287.0,288.0
4041,269,287,0,4038.0,4042.0,270.0,275.0,285.0,287.0
4043,265,287,0,4041.0,4038.0,269.0,270.0,287.0,285.0
4047,262,289,0,4043.0,4041.0,265.0,269.0,287.0,287.0
4046,264,289,0,4047.0,4043.0,262.0,265.0,289.0,287.0
4048,260,289,0,4046.0,4047.0,264.0,262.0,289.0,289.0
4058,256,290,0,4048.0,4046.0,260.0,264.0,289.0,289.0
4059,253,290,0,4058.0,4048.0,256.0,260.0,290.0,289.0
4062,254,293,0,4059.0,4058.0,253.0,256.0,290.0,290.0
4062,258,295,0,4062.0,4059.0,254.0,253.0,293.0,290.0
4057,261,294,0,4062.0,4062.0,258.0,254.0,295.0,293.0
4057,262,292,0,4057.0,4062.0,261.0,258.0,294.0,295.0
4054,264,293,0,4057.0,4057.0,262.0,261.0,292.0,294.0
4053,265,296,0,4054.0,4057.0,264.0,262.0,293.0,292.0
4052,264,299,0,4053.0,4054.0,265.0,264.0,296.0,293.0
4053,271,298,0,4052.0,4053.0,264.0,265.0,299.0,296.0
4054,270,300,0,4053.0,4052.0,271.0,264.0,298.0,299.0
4054,272,297,0,4054.0,4053.0,270.0,271.0,300.0,298.0
4057,277,297,0,4054.0,4054.0,272.0,270.0,297.0,300.0
4060,279,297,0,4057.0,4054.0,277.0,272.0,297.0,297.0
4059,287,295,0,4060.0,4057.0,279.0,277.0,297.0,297.0
4059,296,295,0,4059.0,4060.0,287.0,279.0,295.0,297.0
4055,308,297,0,4059.0,4059.0,296.0,287.0,295.0,295.0
4056,317,300,0,4055.0,4059.0,308.0,296.0,297.0,295.0
4053,326,300,0,4056.0,4055.0,317.0,308.0,300.0,297.0
4054,330,301,0,4053.0,4056.0,326.0,317.0,300.0,300.0
4053,334,305,0,4054.0,4053.0,330.0,326.0,301.0,300.0
4047,334,304,0,4053.0,4054.0,334.0,330.0,305.0,301.0
4046,332,301,0,4047.0,4053.0,334.0,334.0,304.0,305.0
4043,335,298,0,4046.0,4047.0,332.0,334.0,301.0,304.0
4038,339,297,0,4043.0,4046.0,335.0,332.0,298.0,301.0
4038,345,298,0,4038.0,4043.0,339.0,335.0,297.0,298.0
4042,351,305,0,4038.0,4038.0,345.0,339.0,298.0,297.0
4047,352,314,0,4042.0,4038.0,351.0,345.0,305.0,298.0
4050,352,313,0,4047.0,4042.0,352.0,351.0,314.0,305.0
4052,352,307,0,4050.0,4047.0,352.0,352.0,313.0,314.0
4059,357,296,0,4052.0,4050.0,352.0,352.0,307.0,313.0
4058,362,291,0,4059.0,4052.0,357.0,352.0,296.0,307.0
4066,364,286,0,4058.0,4059.0,362.0,357.0,291.0,296.0
4066,374,283,0,4066.0,4058.0,364.0,362.0,286.0,291.0
4068,378,286,0,4066.0,4066.0,374.0,364.0,283.0,286.0
4060,388,289,0,4068.0,4066.0,378.0,374.0,286.0,283.0
4057,394,289,0,4060.0,4068.0,388.0,378.0,289.0,286.0
4052,396,294,0,4057.0,4060.0,394.0,388.0,289.0,289.0
4051,399,300,0,4052.0,4057.0,396.0,394.0,294.0,289.0
4049,399,301,0,4051.0,4052.0,399.0,396.0,300.0,294.0
4050,397,301,0,4049.0,4051.0,399.0,399.0,301.0,300.0
4047,393,301,0,4050.0,4049.0,397.0,399.0,301.0,301.0
4052,387,301,0,4047.0,4050.0,393.0,397.0,301.0,301.0
4051,382,298,0,4052.0,4047.0,387.0,393.0,301.0,301.0
4049,372,294,0,4051.0,4052.0,382.0,387.0,298.0,301.0
4052,365,287,0,4049.0,4051.0,372.0,382.0,294.0,298.0
4052,358,282,0,4052.0,4049.0,365.0,372.0,287.0,294.0
4054,357,278,0,4052.0,4052.0,358.0,365.0,282.0,287.0
4058,357,279,0,4054.0,4052.0,357.0,358.0,278.0,282.0
4054,364,284,0,4058.0,4054.0,357.0,357.0,279.0,278.0
4053,368,286,0,4054.0,4058.0,364.0,357.0,284.0,279.0
4050,371,294,0,4053.0,4054.0,368.0,364.0,286.0,284.0
4047,372,300,0,4050.0,4053.0,371.0,368.0,294.0,286.0
4045,367,305,0,4047.0,4050.0,372.0,371.0,300.0,294.0
4042,357,310,0,4045.0,4047.0,367.0,372.0,305.0,300.0
4035,347,310,0,4042.0,4045.0,357.0,367.0,310.0,305.0
4032,335,306,0,4035.0,4042.0,347.0,357.0,310.0,310.0
4025,321,304,0,4032.0,4035.0,335.0,347.0,306.0,310.0
4024,305,309,0,4025.0,4032.0,321.0,335.0,304.0,306.0
4025,293,312,0,4024.0,4025.0,305.0,321.0,309.0,304.0
4031,287,308,0,4025.0,4024.0,293.0,305.0,312.0,309.0
4033,277,307,0,4031.0,4025.0,287.0,293.0,308.0,312.0
4039,273,298,0,4033.0,4031.0,277.0,287.0,307.0,308.0
4041,269,290,0,4039.0,4033.0,273.0,277.0,298.0,307.0
4048,274,285,0,4041.0,4039.0,269.0,273.0,290.0,298.0
4056,279,282,0,4048.0,4041.0,274.0,269.0,285.0,290.0
4061,287,275,0,4056.0,4048.0,279.0,274.0,282.0,285.0
4069,290,271,0,4061.0,4056.0,287.0,279.0,275.0,282.0
4078,298,272,0,4069.0,4061.0,290.0,287.0,271.0,275.0
4077,303,268,0,4078.0,4069.0,298.0,290.0,272.0,271.0
4076,306,265,0,4077.0,4078.0,303.0,298.0,268.0,272.0
4070,307,260,0,4076.0,4077.0,306.0,303.0,265.0,268.0
4068,309,263,0,4070.0,4076.0,307.0,306.0,260.0,265.0
4064,307,269,0,4068.0,4070.0,309.0,307.0,263.0,260.0
4063,305,275,0,4064.0,4068.0,307.0,309.0,269.0,263.0
4057,299,277,0,4063.0,4064.0,305.0,307.0,275.0,269.0
4052,292,282,0,4057.0,4063.0,299.0,305.0,277.0,275.0
4054,287,289,0,4052.0,4057.0,292.0,299.0,282.0,277.0
4054,287,293,0,4054.0,4052.0,287.0,292.0,289.0,282.0
4058,283,291,0,4054.0,4054.0,287.0,287.0,293.0,289.0
4056,280,293,0,4058.0,4054.0,283.0,287.0,291.0,293.0
4060,275,296,0,4056.0,4058.0,280.0,283.0,293.0,291.0
4059,270,302,0,4060.0,4056.0,275.0,280.0,296.0,293.0
4055,268,305,0,4059.0,4060.0,270.0,275.0,302.0,296.0
4048,258,305,0,4055.0,4059.0,268.0,270.0,305.0,302.0
4038,253,304,0,4048.0,4055.0,258.0,268.0,305.0,305.0
4031,253,302,0,4038.0,4048.0,253.0,258.0,304.0,305.0
4023,253,304,0,4031.0,4038.0,253.0,253.0,302.0,304.0
4021,253,304,0,4023.0,4031.0,253.0,253.0,304.0,302.0
4019,254,305,0,4021.0,4023.0,253.0,253.0,304.0,304.0
4021,258,304,0,4019.0,4021.0,254.0,253.0,305.0,304.0
4030,262,304,0,4021.0,4019.0,258.0,254.0,304.0,305.0
4036,274,302,0,4030.0,4021.0,262.0,258.0,304.0,304.0
4043,282,298,0,4036.0,4030.0,274.0,262.0,302.0,304.0
4051,289,292,0,4043.0,4036.0,282.0,274.0,298.0,302.0
4062,297,289,0,4051.0,4043.0,289.0,282.0,292.0,298.0
4068,308,282,0,4062.0,4051.0,297.0,289.0,289.0,292.0
4070,318,280,0,4068.0,4062.0,308.0,297.0,282.0,289.0
4075,325,276,0,4070.0,4068.0,318.0,308.0,280.0,282.0
4077,333,279,0,4075.0,4070.0,325.0,318.0,276.0,280.0
4076,338,280,0,4077.0,4075.0,333.0,325.0,279.0,276.0
4076,344,281,0,4076.0,4077.0,338.0,333.0,280.0,279.0
4082,348,290,0,4076.0,4076.0,344.0,338.0,281.0,280.0
4081,349,297,0,4082.0,4076.0,348.0,344.0,290.0,281.0
4074,347,289,0,4081.0,4082.0,349.0,348.0,297.0,290.0
4061,344,276,0,4074.0,4081.0,347.0,349.0,289.0,297.0
4051,343,267,0,4061.0,4074.0,344.0,347.0,276.0,289.0
4043,339,260,0,4051.0,4061.0,343.0,344.0,267.0,276.0
4040,342,263,0,4043.0,4051.0,339.0,343.0,260.0,267.0
4040,341,269,0,4040.0,4043.0,342.0,339.0,263.0,260.0
4044,341,274,0,4040.0,4040.0,341.0,342.0,269.0,263.0
4045,342,281,0,4044.0,4040.0,341.0,341.0,274.0,269.0
4046,350,282,0,4045.0,4044.0,342.0,341.0,281.0,274.0
4047,346,285,0,4046.0,4045.0,350.0,342.0,282.0,281.0
4046,347,287,0,4047.0,4046.0,346.0,350.0,285.0,282.0
4045,348,289,0,4046.0,4047.0,347.0,346.0,287.0,285.0
4047,349,290,0,4045.0,4046.0,348.0,347.0,289.0,287.0
4046,351,286,0,4047.0,4045.0,349.0,348.0,290.0,289.0
4047,349,285,0,4046.0,4047.0,351.0,349.0,286.0,290.0
4046,346,285,0,4047.0,4046.0,349.0,351.0,285.0,286.0
4045,338,285,0,4046.0,4047.0,346.0,349.0,285.0,285.0
4051,330,287,0,4045.0,4046.0,338.0,346.0,285.0,285.0
4051,322,285,0,4051.0,4045.0,330.0,338.0,287.0,285.0
4053,316,283,0,4051.0,4051.0,322.0,330.0,285.0,287.0
4055,308,283,0,4053.0,4051.0,316.0,322.0,283.0,285.0
4054,302,286,0,4055.0,4053.0,308.0,316.0,283.0,283.0
4058,296,291,0,4054.0,4055.0,302.0,308.0,286.0,283.0
4054,288,298,0,4058.0,4054.0,296.0,302.0,291.0,286.0
4051,283,296,0,4054.0,4058.0,288.0,296.0,298.0,291.0
4047,275,302,0,4051.0,4054.0,283.0,288.0,296.0,298.0
4044,267,300,0,4047.0,4051.0,275.0,283.0,302.0,296.0
4043,259,299,0,4044.0,4047.0,267.0,275.0,300.0,302.0
4043,253,300,0,4043.0,4044.0,259.0,267.0,299.0,300.0
4041,249,296,0,4043.0,4043.0,253.0,259.0,300.0,299.0
4043,248,298,0,4041.0,4043.0,249.0,253.0,296.0,300.0
4045,247,297,0,4043.0,4041.0,248.0,249.0,298.0,296.0
4048,248,297,0,4045.0,4043.0,247.0,248.0,297.0,298.0
4051,250,296,0,4048.0,4045.0,248.0,247.0,297.0,297.0
4055,252,297,0,4051.0,4048.0,250.0,248.0,296.0,297.0
4059,253,298,0,4055.0,4051.0,252.0,250.0,297.0,296.0
4061,258,295,0,4059.0,4055.0,253.0,252.0,298.0,297.0
4066,258,291,0,4061.0,4059.0,258.0,253.0,295.0,298.0
4066,260,287,0,4066.0,4061.0,258.0,258.0,291.0,295.0
4062,267,285,0,4066.0,4066.0,260.0,258.0,287.0,291.0
4061,274,281,0,4062.0,4066.0,267.0,260.0,285.0,287.0
4066,281,282,0,4061.0,4062.0,274.0,267.0,281.0,285.0
4071,284,290,0,4066.0,4061.0,281.0,274.0,282.0,281.0
4069,288,293,0,4071.0,4066.0,284.0,281.0,290.0,282.0
4068,286,295,0,4069.0,4071.0,288.0,284.0,293.0,290.0
4062,284,295,0,4068.0,4069.0,286.0,288.0,295.0,293.0
4060,284,295,0,4062.0,4068.0,284.0,286.0,295.0,295.0
4055,284,295,0,4060.0,4062.0,284.0,284.0,295.0,295.0
4051,287,296,0,4055.0,4060.0,284.0,284.0,295.0,295.0
4048,290,298,0,4051.0,4055.0,287.0,284.0,296.0,295.0
4045,288,300,0,4048.0,4051.0,290.0,287.0,298.0,296.0
4047,283,297,0,4045.0,4048.0,288.0,290.0,300.0,298.0
4047,280,298,0,4047.0,4045.0,283.0,288.0,297.0,300.0
4044,282,295,0,4047.0,4047.0,280.0,283.0,298.0,297.0
4043,277,295,0,4044.0,4047.0,282.0,280.0,295.0,298.0
4040,273,294,0,4043.0,4044.0,277.0,282.0,295.0,295.0
4039,271,292,0,4040.0,4043.0,273.0,277.0,294.0,295.0
4041,273,294,0,4039.0,4040.0,271.0,273.0,292.0,294.0
4042,274,292,0,4041.0,4039.0,273.0,271.0,294.0,292.0
4038,280,295,0,4042.0,4041.0,274.0,273.0,292.0,294.0
4040,283,291,0,4038.0,4042.0,280.0,274.0,295.0,292.0
4038,284,292,0,4040.0,4038.0,283.0,280.0,291.0,295.0
4043,288,295,0,4038.0,4040.0,284.0,283.0,292.0,291.0
4043,289,291,0,4043.0,4038.0,288.0,284.0,295.0,292.0
4043,288,294,0,4043.0,4043.0,289.0,288.0,291.0,295.0
4046,291,291,0,4043.0,4043.0,288.0,289.0,294.0,291.0
4044,295,290,0,4046.0,4043.0,291.0,288.0,291.0,294.0
4048,296,286,0,4044.0,4046.0,295.0,291.0,290.0,291.0
4047,296,286,0,4048.0,4044.0,296.0,295.0,286.0,290.0
4048,298,286,0,4047.0,4048.0,296.0,296.0,286.0,286.0
4051,295,287,0,4048.0,4047.0,298.0,296.0,286.0,286.0
4051,295,285,0,4051.0,4048.0,295.0,298.0,287.0,286.0
4055,290,285,0,4051.0,4051.0,295.0,295.0,285.0,287.0
4046,291,287,0,4055.0,4051.0,290.0,295.0,285.0,285.0
4047,292,285,0,4046.0,4055.0,291.0,290.0,287.0,285.0
4047,293,285,0,4047.0,4046.0,292.0,291.0,285.0,287.0
4047,294,287,0,4047.0,4047.0,293.0,292.0,285.0,285.0
4047,295,288,0,4047.0,4047.0,294.0,293.0,287.0,285.0
4048,299,289,0,4047.0,4047.0,295.0,294.0,288.0,287.0
4051,300,287,0,4048.0,4047.0,299.0,295.0,289.0,288.0
4048,300,286,0,4051.0,4048.0,300.0,299.0,287.0,289.0
4050,300,287,0,4048.0,4051.0,300.0,300.0,286.0,287.0
4053,297,286,0,4050.0,4048.0,300.0,300.0,287.0,286.0
4051,299,286,0,4053.0,4050.0,297.0,300.0,286.0,287.0
4052,297,289,0,4051.0,4053.0,299.0,297.0,286.0,286.0
4050,298,290,0,4052.0,4051.0,297.0,299.0,289.0,286.0
4048,298,294,0,4050.0,4052.0,298.0,297.0,290.0,289.0
4045,294,290,0,4048.0,4050.0,298.0,298.0,294.0,290.0
4041,295,286,0,4045.0,4048.0,294.0,298.0,290.0,294.0
4040,297,285,0,4041.0,4045.0,295.0,294.0,286.0,290.0
4038,300,285,0,4040.0,4041.0,297.0,295.0,285.0,286.0
4041,304,287,0,4038.0,4040.0,300.0,297.0,285.0,285.0
4044,303,282,0,4041.0,4038.0,304.0,300.0,287.0,285.0
4047,308,280,0,4044.0,4041.0,303.0,304.0,282.0,287.0
4045,311,280,0,4047.0,4044.0,308.0,303.0,280.0,282.0
4055,320,280,0,4045.0,4047.0,311.0,308.0,280.0,280.0
4061,321,280,0,4055.0,4045.0,320.0,311.0,280.0,280.0
4066,319,281,0,4061.0,4055.0,321.0,320.0,280.0,280.0
4066,320,285,0,4066.0,4061.0,319.0,321.0,281.0,280.0
4068,318,285,0,4066.0,4066.0,320.0,319.0,285.0,281.0
4066,314,287,0,4068.0,4066.0,318.0,320.0,285.0,285.0
4059,308,288,0,4066.0,4068.0,314.0,318.0,287.0,285.0
4055,300,290,0,4059.0,4066.0,308.0,314.0,288.0,287.0
4053,292,290,0,4055.0,4059.0,300.0,308.0,290.0,288.0
4052,289,287,0,4053.0,4055.0,292.0,300.0,290.0,290.0
4048,282,286,0,4052.0,4053.0,289.0,292.0,287.0,290.0
4047,276,281,0,4048.0,4052.0,282.0,289.0,286.0,287.0
4048,276,274,0,4047.0,4048.0,276.0,282.0,281.0,286.0
4049,285,275,0,4048.0,4047.0,276.0,276.0,274.0,281.0
4051,292,276,0,4049.0,4048.0,285.0,276.0,275.0,274.0
4048,299,280,0,4051.0,4049.0,292.0,285.0,276.0,275.0
4048,305,288,0,4048.0,4051.0,299.0,292.0,280.0,276.0
4044,305,291,0,4048.0,4048.0,305.0,299.0,288.0,280.0
4040,302,293,0,4044.0,4048.0,305.0,305.0,291.0,288.0
4039,296,299,0,4040.0,4044.0,302.0,305.0,293.0,291.0
4042,291,304,0,4039.0,4040.0,296.0,302.0,299.0,293.0
4049,284,310,0,4042.0,4039.0,291.0,296.0,304.0,299.0
4051,281,314,0,4049.0,4042.0,284.0,291.0,310.0,304.0
4054,275,314,0,4051.0,4049.0,281.0,284.0,314.0,310.0
4053,271,308,0,4054.0,4051.0,275.0,281.0,314.0,314.0
4052,274,304,0,4053.0,4054.0,271.0,275.0,308.0,314.0
4046,278,299,0,4052.0,4053.0,274.0,271.0,304.0,308.0
4044,281,292,0,4046.0,4052.0,278.0,274.0,299.0,304.0
4044,290,284,0,4044.0,4046.0,281.0,278.0,292.0,299.0
4045,294,283,0,4044.0,4044.0,290.0,281.0,284.0,292.0
4048,296,279,0,4045.0,4044.0,294.0,290.0,283.0,284.0
4053,298,283,0,4048.0,4045.0,296.0,294.0,279.0,283.0
4058,301,284,0,4053.0,4048.0,298.0,296.0,283.0,279.0
4060,302,284,0,4058.0,4053.0,301.0,298.0,284.0,283.0
4062,298,286,0,4060.0,4058.0,302.0,301.0,284.0,284.0
4059,293,283,0,4062.0,4060.0,298.0,302.0,286.0,284.0
4057,292,276,0,4059.0,4062.0,293.0,298.0,283.0,286.0
4058,289,270,0,4057.0,4059.0,292.0,293.0,276.0,283.0
4058,286,270,0,4058.0,4057.0,289.0,292.0,270.0,276.0
4060,286,272,0,4058.0,4058.0,286.0,289.0,270.0,270.0
4061,289,274,0,4060.0,4058.0,286.0,286.0,272.0,270.0
4062,291,279,0,4061.0,4060.0,289.0,286.0,274.0,272.0
4063,296,280,0,4062.0,4061.0,291.0,289.0,279.0,274.0
4061,297,283,0,4063.0,4062.0,296.0,291.0,280.0,279.0
4065,300,285,0,4061.0,4063.0,297.0,296.0,283.0,280.0
4064,302,284,0,4065.0,4061.0,300.0,297.0,285.0,283.0
4062,305,284,0,4064.0,4065.0,302.0,300.0,284.0,285.0
4058,309,281,0,4062.0,4064.0,305.0,302.0,284.0,284.0
4051,312,282,0,4058.0,4062.0,309.0,305.0,281.0,284.0
4046,315,284,0,4051.0,4058.0,312.0,309.0,282.0,281.0
4048,315,284,0,4046.0,4051.0,315.0,312.0,284.0,282.0
4044,317,283,0,4048.0,4046.0,315.0,315.0,284.0,284.0
4045,313,282,0,4044.0,4048.0,317.0,315.0,283.0,284.0
4046,316,282,0,4045.0,4044.0,313.0,317.0,282.0,283.0
4042,313,281,0,4046.0,4045.0,316.0,313.0,282.0,282.0
4044,316,282,0,4042.0,4046.0,313.0,316.0,281.0,282.0
4049,314,281,0,4044.0,4042.0,316.0,313.0,282.0,281.0
4052,317,284,0,4049.0,4044.0,314.0,316.0,281.0,282.0
4057,317,287,0,4052.0,4049.0,317.0,314.0,284.0,281.0
4056,317,287,0,4057.0,4052.0,317.0,317.0,287.0,284.0
4058,319,289,0,4056.0,4057.0,317.0,317.0,287.0,287.0
4057,320,287,0,4058.0,4056.0,319.0,317.0,289.0,287.0
4053,321,289,0,4057.0,4058.0,320.0,319.0,287.0,289.0
4052,325,289,0,4053.0,4057.0,321.0,320.0,289.0,287.0
4054,323,292,0,4052.0,4053.0,325.0,321.0,289.0,289.0
4051,320,291,0,4054.0,4052.0,323.0,325.0,292.0,289.0
4050,317,289,0,4051.0,4054.0,320.0,323.0,291.0,292.0
4049,308,289,0,4050.0,4051.0,317.0,320.0,289.0,291.0
4045,306,284,0,4049.0,4050.0,308.0,317.0,289.0,289.0
4045,297,279,0,4045.0,4049.0,306.0,308.0,284.0,289.0
4047,293,276,0,4045.0,4045.0,297.0,306.0,279.0,284.0
4046,290,276,0,4047.0,4045.0,293.0,297.0,276.0,279.0
4044,289,274,0,4046.0,4047.0,290.0,293.0,276.0,276.0
4045,287,273,0,4044.0,4046.0,289.0,290.0,274.0,276.0
4044,291,278,0,4045.0,4044.0,287.0,289.0,273.0,274.0
4048,294,283,0,4044.0,4045.0,291.0,287.0,278.0,273.0
4053,295,287,0,4048.0,4044.0,294.0,291.0,283.0,278.0
4051,304,290,0,4053.0,4048.0,295.0,294.0,287.0,283.0
4048,309,289,0,4051.0,4053.0,304.0,295.0,290.0,287.0
4046,305,287,0,4048.0,4051.0,309.0,304.0,289.0,290.0
4045,305,285,0,4046.0,4048.0,305.0,309.0,287.0,289.0
4050,303,285,0,4045.0,4046.0,305.0,305.0,285.0,287.0
4048,301,285,0,4050.0,4045.0,303.0,305.0,285.0,285.0
4050,303,291,0,4048.0,4050.0,301.0,303.0,285.0,285.0
4057,304,288,0,4050.0,4048.0,303.0,301.0,291.0,285.0
4059,300,287,0,4057.0,4050.0,304.0,303.0,288.0,291.0
4059,299,284,0,4059.0,4057.0,300.0,304.0,287.0,288.0
4059,290,282,0,4059.0,4059.0,299.0,300.0,284.0,287.0
4059,288,281,0,4059.0,4059.0,290.0,299.0,282.0,284.0
4057,286,281,0,4059.0,4059.0,288.0,290.0,281.0,282.0
4054,284,283,0,4057.0,4059.0,286.0,288.0,281.0,281.0
4053,284,286,0,4054.0,4057.0,284.0,286.0,283.0,281.0
4051,287,285,0,4053.0,4054.0,284.0,284.0,286.0,283.0
4050,286,290,0,4051.0,4053.0,287.0,284.0,285.0,286.0
4049,284,289,0,4050.0,4051.0,286.0,287.0,290.0,285.0
4047,280,286,0,4049.0,4050.0,284.0,286.0,289.0,290.0
4050,279,289,0,4047.0,4049.0,280.0,284.0,286.0,289.0
4054,283,293,0,4050.0,4047.0,279.0,280.0,289.0,286.0
4056,284,293,0,4054.0,4050.0,283.0,279.0,293.0,289.0
4058,285,294,0,4056.0,4054.0,284.0,283.0,293.0,293.0
4058,287,293,0,4058.0,4056.0,285.0,284.0,294.0,293.0
4056,286,292,0,4058.0,4058.0,287.0,285.0,293.0,294.0
4056,286,292,0,4056.0,4058.0,286.0,287.0,292.0,293.0
4051,283,288,0,4056.0,4056.0,286.0,286.0,292.0,292.0
4050,287,295,0,4051.0,4056.0,283.0,286.0,288.0,292.0
4049,290,298,0,4050.0,4051.0,287.0,283.0,295.0,288.0
4057,288,295,0,4049.0,4050.0,290.0,287.0,298.0,295.0
4056,286,298,0,4057.0,4049.0,288.0,290.0,295.0,298.0
4053,287,295,0,4056.0,4057.0,286.0,288.0,298.0,295.0
4050,285,293,0,4053.0,4056.0,287.0,286.0,295.0,298.0
4050,281,296,0,4050.0,4053.0,285.0,287.0,293.0,295.0
4053,281,298,0,4050.0,4050.0,281.0,285.0,296.0,293.0
4056,285,303,0,4053.0,4050.0,281.0,281.0,298.0,296.0
4057,288,305,0,4056.0,4053.0,285.0,281.0,303.0,298.0
4053,288,304,0,4057.0,4056.0,288.0,285.0,305.0,303.0
4050,288,300,0,4053.0,4057.0,288.0,288.0,304.0,305.0
4046,293,295,0,4050.0,4053.0,288.0,288.0,300.0,304.0
4046,294,290,0,4046.0,4050.0,293.0,288.0,295.0,300.0
4045,297,287,0,4046.0,4046.0,294.0,293.0,290.0,295.0
4044,298,289,0,4045.0,4046.0,297.0,294.0,287.0,290.0
4047,299,290,0,4044.0,4045.0,298.0,297.0,289.0,287.0
4050,302,288,0,4047.0,4044.0,299.0,298.0,290.0,289.0
4052,299,293,0,4050.0,4047.0,302.0,299.0,288.0,290.0
4056,302,293,0,4052.0,4050.0,299.0,302.0,293.0,288.0
4054,303,289,0,4056.0,4052.0,302.0,299.0,293.0,293.0
4055,308,290,0,4054.0,4056.0,303.0,302.0,289.0,293.0
4058,310,293,0,4055.0,4054.0,308.0,303.0,290.0,289.0
4059,307,296,0,4058.0,4055.0,310.0,308.0,293.0,290.0
4059,310,298,0,4059.0,4058.0,307.0,310.0,296.0,293.0
4058,314,299,0,4059.0,4059.0,310.0,307.0,298.0,296.0
4064,316,298,0,4058.0,4059.0,314.0,310.0,299.0,298.0
4065,310,300,0,4064.0,4058.0,316.0,314.0,298.0,299.0
4067,304,301,0,4065.0,4064.0,310.0,316.0,300.0,298.0
4065,299,297,0,4067.0,4065.0,304.0,310.0,301.0,300.0
4059,294,295,0,4065.0,4067.0,299.0,304.0,297.0,301.0
4053,293,293,0,4059.0,4065.0,294.0,299.0,295.0,297.0
4047,294,289,0,4053.0,4059.0,293.0,294.0,293.0,295.0
4044,297,293,0,4047.0,4053.0,294.0,293.0,289.0,293.0
4044,298,297,0,4044.0,4047.0,297.0,294.0,293.0,289.0
4048,296,304,0,4044.0,4044.0,298.0,297.0,297.0,293.0
4049,295,301,0,4048.0,4044.0,296.0,298.0,304.0,297.0
4051,291,301,0,4049.0,4048.0,295.0,296.0,301.0,304.0
4053,293,300,0,4051.0,4049.0,291.0,295.0,301.0,301.0
4057,292,300,0,4053.0,4051.0,293.0,291.0,300.0,301.0
4061,289,308,0,4057.0,4053.0,292.0,293.0,300.0,300.0
4069,285,311,0,4061.0,4057.0,289.0,292.0,308.0,300.0
4071,286,307,0,4069.0,4061.0,285.0,289.0,311.0,308.0
4068,283,301,0,4071.0,4069.0,286.0,285.0,307.0,311.0
4058,286,302,0,4068.0,4071.0,283.0,286.0,301.0,307.0
4054,286,299,0,4058.0,4068.0,286.0,283.0,302.0,301.0
4044,286,297,0,4054.0,4058.0,286.0,286.0,299.0,302.0
4038,283,296,0,4044.0,4054.0,286.0,286.0,297.0,299.0
4033,283,300,0,4038.0,4044.0,283.0,286.0,296.0,297.0
4030,281,305,0,4033.0,4038.0,283.0,283.0,300.0,296.0
4031,278,304,0,4030.0,4033.0,281.0,283.0,305.0,300.0
4031,273,304,0,4031.0,4030.0,278.0,281.0,304.0,305.0
4033,267,299,0,4031.0,4031.0,273.0,278.0,304.0,304.0
4032,262,300,0,4033.0,4031.0,267.0,273.0,299.0,304.0
4034,264,300,0,4032.0,4033.0,262.0,267.0,300.0,299.0
4042,262,300,0,4034.0,4032.0,264.0,262.0,300.0,300.0
4048,261,301,0,4042.0,4034.0,262.0,264.0,300.0,300.0
4053,264,304,0,4048.0,4042.0,261.0,262.0,301.0,300.0
4057,266,304,0,4053.0,4048.0,264.0,261.0,304.0,301.0
4060,271,301,0,4057.0,4053.0,266.0,264.0,304.0,304.0
4060,278,299,0,4060.0,4057.0,271.0,266.0,301.0,304.0
4053,285,298,0,4060.0,4060.0,278.0,271.0,299.0,301.0
4051,289,299,0,4053.0,4060.0,285.0,278.0,298.0,299.0
4045,296,300,0,4051.0,4053.0,289.0,285.0,299.0,298.0
4043,299,301,0,4045.0,4051.0,296.0,289.0,300.0,299.0
4041,301,307,0,4043.0,4045.0,299.0,296.0,301.0,300.0
4041,297,308,0,4041.0,4043.0,301.0,299.0,307.0,301.0
4038,295,310,0,4041.0,4041.0,297.0,301.0,308.0,307.0
4035,291,311,0,4038.0,4041.0,295.0,297.0,310.0,308.0
4044,288,315,0,4035.0,4038.0,291.0,295.0,311.0,310.0
4047,283,311,0,4044.0,4035.0,288.0,291.0,315.0,311.0
4047,280,304,0,4047.0,4044.0,283.0,288.0,311.0,315.0
4052,276,299,0,4047.0,4047.0,280.0,283.0,304.0,311.0
4053,277,297,0,4052.0,4047.0,276.0,280.0,299.0,304.0
4051,280,295,0,4053.0,4052.0,277.0,276.0,297.0,299.0
4050,284,289,0,4051.0,4053.0,280.0,277.0,295.0,297.0
4049,298,292,0,4050.0,4051.0,284.0,280.0,289.0,295.0
4057,307,294,0,4049.0,4050.0,298.0,284.0,292.0,289.0
4061,322,299,0,4057.0,4049.0,307.0,298.0,294.0,292.0
4065,333,305,0,4061.0,4057.0,322.0,307.0,299.0,294.0
4066,334,314,0,4065.0,4061.0,333.0,322.0,305.0,299.0
4069,334,319,0,4066.0,4065.0,334.0,333.0,314.0,305.0
4072,332,324,0,4069.0,4066.0,334.0,334.0,319.0,314.0
4073,328,332,0,4072.0,4069.0,332.0,334.0,324.0,319.0
4076,323,345,0,4073.0,4072.0,328.0,332.0,332.0,324.0
4079,313,350,0,4076.0,4073.0,323.0,328.0,345.0,332.0
4077,304,352,0,4079.0,4076.0,313.0,323.0,350.0,345.0
4074,288,355,0,4077.0,4079.0,304.0,313.0,352.0,350.0
4071,274,358,0,4074.0,4077.0,288.0,304.0,355.0,352.0
4063,265,353,0,4071.0,4074.0,274.0,288.0,358.0,355.0
4054,263,344,0,4063.0,4071.0,265.0,274.0,353.0,358.0
4043,257,334,0,4054.0,4063.0,263.0,265.0,344.0,353.0
4032,252,328,0,4043.0,4054.0,257.0,263.0,334.0,344.0
4021,249,319,0,4032.0,4043.0,252.0,257.0,328.0,334.0
4022,248,315,0,4021.0,4032.0,249.0,252.0,319.0,328.0
4017,245,308,0,4022.0,4021.0,248.0,249.0,315.0,319.0
4023,247,306,0,4017.0,4022.0,245.0,248.0,308.0,315.0
4024,243,307,0,4023.0,4017.0,247.0,245.0,306.0,308.0
4028,248,308,0,4024.0,4023.0,243.0,247.0,307.0,306.0
4035,251,311,0,4028.0,4024.0,248.0,243.0,308.0,307.0
4046,257,314,0,4035.0,4028.0,251.0,248.0,311.0,308.0
4057,259,316,0,4046.0,4035.0,257.0,251.0,314.0,311.0
4062,259,314,0,4057.0,4046.0,259.0,257.0,316.0,314.0
4067,262,310,0,4062.0,4057.0,259.0,259.0,314.0,316.0
4068,266,312,0,4067.0,4062.0,262.0,259.0,310.0,314.0
4065,273,315,0,4068.0,4067.0,266.0,262.0,312.0,310.0
4059,276,316,0,4065.0,4068.0,273.0,266.0,315.0,312.0
4059,275,317,0,4059.0,4065.0,276.0,273.0,316.0,315.0
4052,272,318,0,4059.0,4059.0,275.0,276.0,317.0,316.0
4052,270,320,0,4052.0,4059.0,272.0,275.0,318.0,317.0
4048,273,328,0,4052.0,4052.0,270.0,272.0,320.0,318.0
4047,271,330,0,4048.0,4052.0,273.0,270.0,328.0,320.0
4045,266,327,0,4047.0,4048.0,271.0,273.0,330.0,328.0
4042,261,323,0,4045.0,4047.0,266.0,271.0,327.0,330.0
4039,255,317,0,4042.0,4045.0,261.0,266.0,323.0,327.0
4040,250,312,0,4039.0,4042.0,255.0,261.0,317.0,323.0
4040,247,307,0,4040.0,4039.0,250.0,255.0,312.0,317.0
4041,249,312,0,4040.0,4040.0,247.0,250.0,307.0,312.0
4046,252,319,0,4041.0,4040.0,249.0,247.0,312.0,307.0
4053,259,323,0,4046.0,4041.0,252.0,249.0,319.0,312.0
4056,266,331,0,4053.0,4046.0,259.0,252.0,323.0,319.0
4057,270,329,0,4056.0,4053.0,266.0,259.0,331.0,323.0
4058,279,331,0,4057.0,4056.0,270.0,266.0,329.0,331.0
4062,284,332,0,4058.0,4057.0,279.0,270.0,331.0,329.0
4059,283,331,0,4062.0,4058.0,284.0,279.0,332.0,331.0
4052,286,327,0,4059.0,4062.0,283.0,284.0,331.0,332.0
4045,289,325,0,4052.0,4059.0,286.0,283.0,327.0,331.0
4042,288,330,0,4045.0,4052.0,289.0,286.0,325.0,327.0
4039,289,335,0,4042.0,4045.0,288.0,289.0,330.0,325.0
4038,279,332,0,4039.0,4042.0,289.0,288.0,335.0,330.0
4035,271,327,0,4038.0,4039.0,279.0,289.0,332.0,335.0
4035,267,320,0,4035.0,4038.0,271.0,279.0,327.0,332.0
4029,265,317,0,4035.0,4035.0,267.0,271.0,320.0,327.0
4033,265,315,0,4029.0,4035.0,265.0,267.0,317.0,320.0
4033,267,315,0,4033.0,4029.0,265.0,265.0,315.0,317.0
4034,271,316,0,4033.0,4033.0,267.0,265.0,315.0,315.0
4038,275,317,0,4034.0,4033.0,271.0,267.0,316.0,315.0
4048,278,319,0,4038.0,4034.0,275.0,271.0,317.0,316.0
4052,284,319,0,4048.0,4038.0,278.0,275.0,319.0,317.0
4061,283,320,0,4052.0,4048.0,284.0,278.0,319.0,319.0
4064,280,319,0,4061.0,4052.0,283.0,284.0,320.0,319.0
4069,283,322,0,4064.0,4061.0,280.0,283.0,319.0,320.0
4066,284,324,0,4069.0,4064.0,283.0,280.0,322.0,319.0
4070,282,330,0,4066.0,4069.0,284.0,283.0,324.0,322.0
4071,282,338,0,4070.0,4066.0,282.0,284.0,330.0,324.0
4075,281,337,0,4071.0,4070.0,282.0,282.0,338.0,330.0
4071,278,328,0,4075.0,4071.0,281.0,282.0,337.0,338.0
4063,275,315,0,4071.0,4075.0,278.0,281.0,328.0,337.0
4055,276,305,0,4063.0,4071.0,275.0,278.0,315.0,328.0
4051,278,301,0,4055.0,4063.0,276.0,275.0,305.0,315.0
4046,279,304,0,4051.0,4055.0,278.0,276.0,301.0,305.0
4042,281,308,0,4046.0,4051.0,279.0,278.0,304.0,301.0
4037,282,312,0,4042.0,4046.0,281.0,279.0,308.0,304.0
4036,281,310,0,4037.0,4042.0,282.0,281.0,312.0,308.0
4035,285,314,0,4036.0,4037.0,281.0,282.0,310.0,312.0
4036,285,321,0,4035.0,4036.0,285.0,281.0,314.0,310.0
4037,289,324,0,4036.0,4035.0,285.0,285.0,321.0,314.0
4043,286,323,0,4037.0,4036.0,289.0,285.0,324.0,321.0
4044,284,324,0,4043.0,4037.0,286.0,289.0,323.0,324.0
4049,286,323,0,4044.0,4043.0,284.0,286.0,324.0,323.0
4051,290,330,0,4049.0,4044.0,286.0,284.0,323.0,324.0
4053,297,338,0,4051.0,4049.0,290.0,286.0,330.0,323.0
4058,296,348,0,4053.0,4051.0,297.0,290.0,338.0,330.0
4055,292,348,0,4058.0,4053.0,296.0,297.0,348.0,338.0
4057,287,340,0,4055.0,4058.0,292.0,296.0,348.0,348.0
4048,281,328,0,4057.0,4055.0,287.0,292.0,340.0,348.0
4041,274,323,0,4048.0,4057.0,281.0,287.0,328.0,340.0
4043,272,326,0,4041.0,4048.0,274.0,281.0,323.0,328.0
4046,269,330,0,4043.0,4041.0,272.0,274.0,326.0,323.0
4045,265,335,0,4046.0,4043.0,269.0,272.0,330.0,326.0
4048,262,339,0,4045.0,4046.0,265.0,269.0,335.0,330.0
4051,258,339,0,4048.0,4045.0,262.0,265.0,339.0,335.0
4050,257,335,0,4051.0,4048.0,258.0,262.0,339.0,339.0
4047,254,329,0,4050.0,4051.0,257.0,258.0,335.0,339.0
4045,256,320,0,4047.0,4050.0,254.0,257.0,329.0,335.0
4041,253,319,0,4045.0,4047.0,256.0,254.0,320.0,329.0
4037,254,321,0,4041.0,4045.0,253.0,256.0,319.0,320.0
4035,255,321,0,4037.0,4041.0,254.0,253.0,321.0,319.0
4036,258,323,0,4035.0,4037.0,255.0,254.0,321.0,321.0
4041,259,327,0,4036.0,4035.0,258.0,255.0,323.0,321.0
4044,261,327,0,4041.0,4036.0,259.0,258.0,327.0,323.0
4049,263,328,0,4044.0,4041.0,261.0,259.0,327.0,327.0
4052,265,325,0,4049.0,4044.0,263.0,261.0,328.0,327.0
4053,265,325,0,4052.0,4049.0,265.0,263.0,325.0,328.0
4052,266,330,0,4053.0,4052.0,265.0,265.0,325.0,325.0
4052,267,331,0,4052.0,4053.0,266.0,265.0,330.0,325.0
4053,272,337,0,4052.0,4052.0,267.0,266.0,331.0,330.0
4053,267,337,0,4053.0,4052.0,272.0,267.0,337.0,331.0
4051,266,335,0,4053.0,4053.0,267.0,272.0,337.0,337.0
4048,264,331,0,4051.0,4053.0,266.0,267.0,335.0,337.0
4047,263,340,0,4048.0,4051.0,264.0,266.0,331.0,335.0
4045,270,345,0,4047.0,4048.0,263.0,264.0,340.0,331.0
4042,270,345,0,4045.0,4047.0,270.0,263.0,345.0,340.0
4041,271,341,0,4042.0,4045.0,270.0,270.0,345.0,345.0
4041,267,335,0,4041.0,4042.0,271.0,270.0,341.0,345.0
4037,269,332,0,4041.0,4041.0,267.0,271.0,335.0,341.0
4031,273,330,0,4037.0,4041.0,269.0,267.0,332.0,335.0
4030,279,332,0,4031.0,4037.0,273.0,269.0,330.0,332.0
4030,283,333,0,4030.0,4031.0,279.0,273.0,332.0,330.0
4037,288,336,0,4030.0,4030.0,283.0,279.0,333.0,332.0
4040,289,334,0,4037.0,4030.0,288.0,283.0,336.0,333.0
4045,293,333,0,4040.0,4037.0,289.0,288.0,334.0,336.0
4046,295,334,0,4045.0,4040.0,293.0,289.0,333.0,334.0
4046,290,335,0,4046.0,4045.0,295.0,293.0,334.0,333.0
4049,295,331,0,4046.0,4046.0,290.0,295.0,335.0,334.0
4052,297,333,0,4049.0,4046.0,295.0,290.0,331.0,335.0
4053,296,330,0,4052.0,4049.0,297.0,295.0,333.0,331.0
4049,292,327,0,4053.0,4052.0,296.0,297.0,330.0,333.0
4047,290,323,0,4049.0,4053.0,292.0,296.0,327.0,330.0
4047,288,322,0,4047.0,4049.0,290.0,292.0,323.0,327.0
4047,288,326,0,4047.0,4047.0,288.0,290.0,322.0,323.0
4050,288,330,0,4047.0,4047.0,288.0,288.0,326.0,322.0
4054,283,332,0,4050.0,4047.0,288.0,288.0,330.0,326.0
4054,280,332,0,4054.0,4050.0,283.0,288.0,332.0,330.0
4050,274,326,0,4054.0,4054.0,280.0,283.0,332.0,332.0
4049,271,319,0,4050.0,4054.0,274.0,280.0,326.0,332.0
4045,270,322,0,4049.0,4050.0,271.0,274.0,319.0,326.0
4043,272,327,0,4045.0,4049.0,270.0,271.0,322.0,319.0
4038,278,332,0,4043.0,4045.0,272.0,270.0,327.0,322.0
4035,282,333,0,4038.0,4043.0,278.0,272.0,332.0,327.0
4035,287,331,0,4035.0,4038.0,282.0,278.0,333.0,332.0
4035,285,333,0,4035.0,4035.0,287.0,282.0,331.0,333.0
4035,288,335,0,4035.0,4035.0,285.0,287.0,333.0,331.0
4038,288,339,0,4035.0,4035.0,288.0,285.0,335.0,333.0
4045,289,343,0,4038.0,4035.0,288.0,288.0,339.0,335.0
4054,281,346,0,4045.0,4038.0,289.0,288.0,343.0,339.0
4059,277,341,0,4054.0,4045.0,281.0,289.0,346.0,343.0
4058,279,339,0,4059.0,4054.0,277.0,281.0,341.0,346.0
4056,282,336,0,4058.0,4059.0,279.0,277.0,339.0,341.0
4054,283,334,0,4056.0,4058.0,282.0,279.0,336.0,339.0
4057,285,331,0,4054.0,4056.0,283.0,282.0,334.0,336.0
4054,287,324,0,4057.0,4054.0,285.0,283.0,331.0,334.0
4049,288,318,0,4054.0,4057.0,287.0,285.0,324.0,331.0
4048,289,321,0,4049.0,4054.0,288.0,287.0,318.0,324.0
4046,289,327,0,4048.0,4049.0,289.0,288.0,321.0,318.0
4047,291,335,0,4046.0,4048.0,289.0,289.0,327.0,321.0
4047,286,339,0,4047.0,4046.0,291.0,289.0,335.0,327.0
4042,281,337,0,4047.0,4047.0,286.0,291.0,339.0,335.0
4036,275,332,0,4042.0,4047.0,281.0,286.0,337.0,339.0
4034,267,331,0,4036.0,4042.0,275.0,281.0,332.0,337.0
4034,264,329,0,4034.0,4036.0,267.0,275.0,331.0,332.0
4037,256,328,0,4034.0,4034.0,264.0,267.0,329.0,331.0
4041,255,323,0,4037.0,4034.0,256.0,264.0,328.0,329.0
4045,257,325,0,4041.0,4037.0,255.0,256.0,323.0,328.0
4048,265,322,0,4045.0,4041.0,257.0,255.0,325.0,323.0
4052,274,321,0,4048.0,4045.0,265.0,257.0,322.0,325.0
4054,286,326,0,4052.0,4048.0,274.0,265.0,321.0,322.0
4053,299,321,0,4054.0,4052.0,286.0,274.0,326.0,321.0
4053,309,320,0,4053.0,4054.0,299.0,286.0,321.0,326.0
4050,318,332,0,4053.0,4053.0,309.0,299.0,320.0,321.0
4054,326,345,0,4050.0,4053.0,318.0,309.0,332.0,320.0
4051,322,355,0,4054.0,4050.0,326.0,318.0,345.0,332.0
4049,309,359,0,4051.0,4054.0,322.0,326.0,355.0,345.0
4047,300,357,0,4049.0,4051.0,309.0,322.0,359.0,355.0
4042,289,354,0,4047.0,4049.0,300.0,309.0,357.0,359.0
4041,278,354,0,4042.0,4047.0,289.0,300.0,354.0,357.0
4045,267,351,0,4041.0,4042.0,278.0,289.0,354.0,354.0
4044,258,347,0,4045.0,4041.0,267.0,278.0,351.0,354.0
4043,250,342,0,4044.0,4045.0,258.0,267.0,347.0,351.0
4044,252,337,0,4043.0,4044.0,250.0,258.0,342.0,347.0
4044,251,339,0,4044.0,4043.0,252.0,250.0,337.0,342.0
4047,257,335,0,4044.0,4044.0,251.0,252.0,339.0,337.0
4048,264,327,0,4047.0,4044.0,257.0,251.0,335.0,339.0
4053,271,322,0,4048.0,4047.0,264.0,257.0,327.0,335.0
4052,281,323,0,4053.0,4048.0,271.0,264.0,322.0,327.0
4059,295,325,0,4052.0,4053.0,281.0,271.0,323.0,322.0
4057,300,322,0,4059.0,4052.0,295.0,281.0,325.0,323.0
4061,301,319,0,4057.0,4059.0,300.0,295.0,322.0,325.0
4057,304,314,0,4061.0,4057.0,301.0,300.0,319.0,322.0
4055,307,308,0,4057.0,4061.0,304.0,301.0,314.0,319.0
4052,307,311,0,4055.0,4057.0,307.0,304.0,308.0,314.0
4053,308,320,0,4052.0,4055.0,307.0,307.0,311.0,308.0
4059,302,323,0,4053.0,4052.0,308.0,307.0,320.0,311.0
4063,303,325,0,4059.0,4053.0,302.0,308.0,323.0,320.0
4063,299,325,0,4063.0,4059.0,303.0,302.0,325.0,323.0
4062,294,325,0,4063.0,4063.0,299.0,303.0,325.0,325.0
4060,292,329,0,4062.0,4063.0,294.0,299.0,325.0,325.0
4061,295,329,0,4060.0,4062.0,292.0,294.0,329.0,325.0
4054,295,331,0,4061.0,4060.0,295.0,292.0,329.0,329.0
4053,293,332,0,4054.0,4061.0,295.0,295.0,331.0,329.0
4052,290,333,0,4053.0,4054.0,293.0,295.0,332.0,331.0
4048,288,332,0,4052.0,4053.0,290.0,293.0,333.0,332.0
4044,288,331,0,4048.0,4052.0,288.0,290.0,332.0,333.0
4043,288,326,0,4044.0,4048.0,288.0,288.0,331.0,332.0
4044,288,322,0,4043.0,4044.0,288.0,288.0,326.0,331.0
4043,291,320,0,4044.0,4043.0,288.0,288.0,322.0,326.0
4045,299,317,0,4043.0,4044.0,291.0,288.0,320.0,322.0
4050,308,315,0,4045.0,4043.0,299.0,291.0,317.0,320.0
4062,320,309,0,4050.0,4045.0,308.0,299.0,315.0,317.0
4068,328,312,0,4062.0,4050.0,320.0,308.0,309.0,315.0
4077,335,308,0,4068.0,4062.0,328.0,320.0,312.0,309.0
4085,344,308,0,4077.0,4068.0,335.0,328.0,308.0,312.0
4090,347,305,0,4085.0,4077.0,344.0,335.0,308.0,308.0
4087,352,305,0,4090.0,4085.0,347.0,344.0,305.0,308.0
4081,354,308,0,4087.0,4090.0,352.0,347.0,305.0,305.0
4075,354,310,0,4081.0,4087.0,354.0,352.0,308.0,305.0
4066,352,314,0,4075.0,4081.0,354.0,354.0,310.0,308.0
4057,353,319,0,4066.0,4075.0,352.0,354.0,314.0,310.0
4048,353,325,0,4057.0,4066.0,353.0,352.0,319.0,314.0
4042,353,327,0,4048.0,4057.0,353.0,353.0,325.0,319.0
4035,348,326,0,4042.0,4048.0,353.0,353.0,327.0,325.0
4029,346,321,0,4035.0,4042.0,348.0,353.0,326.0,327.0
4030,334,313,0,4029.0,4035.0,346.0,348.0,321.0,326.0
4035,327,302,0,4030.0,4029.0,334.0,346.0,313.0,321.0
4040,330,300,0,4035.0,4030.0,327.0,334.0,302.0,313.0
4052,327,303,0,4040.0,4035.0,330.0,327.0,300.0,302.0
4067,331,312,0,4052.0,4040.0,327.0,330.0,303.0,300.0
4078,332,323,0,4067.0,4052.0,331.0,327.0,312.0,303.0
4089,335,325,0,4078.0,4067.0,332.0,331.0,323.0,312.0
4095,338,330,0,4089.0,4078.0,335.0,332.0,325.0,323.0
4097,343,336,0,4095.0,4089.0,338.0,335.0,330.0,325.0
4098,345,337,0,4097.0,4095.0,343.0,338.0,336.0,330.0
4091,352,338,0,4098.0,4097.0,345.0,343.0,337.0,336.0
4084,364,343,0,4091.0,4098.0,352.0,345.0,338.0,337.0
4083,371,347,0,4084.0,4091.0,364.0,352.0,343.0,338.0
4077,374,341,0,4083.0,4084.0,371.0,364.0,347.0,343.0
4065,381,322,0,4077.0,4083.0,374.0,371.0,341.0,347.0
4048,386,301,0,4065.0,4077.0,381.0,374.0,322.0,341.0
4040,393,284,0,4048.0,4065.0,386.0,381.0,301.0,322.0
4033,410,279,0,4040.0,4048.0,393.0,386.0,284.0,301.0
4034,423,280,0,4033.0,4040.0,410.0,393.0,279.0,284.0
4047,432,295,0,4034.0,4033.0,423.0,410.0,280.0,279.0
4061,441,314,0,4047.0,4034.0,432.0,423.0,295.0,280.0
4081,447,336,0,4061.0,4047.0,441.0,432.0,314.0,295.0
4107,447,355,0,4081.0,4061.0,447.0,441.0,336.0,314.0
4126,447,361,0,4107.0,4081.0,447.0,447.0,355.0,336.0
4132,450,352,0,4126.0,4107.0,447.0,447.0,361.0,355.0
4126,458,336,0,4132.0,4126.0,450.0,447.0,352.0,361.0
4113,466,313,0,4126.0,4132.0,458.0,450.0,336.0,352.0
4097,464,274,0,4113.0,4126.0,466.0,458.0,313.0,336.0
4083,466,242,0,4097.0,4113.0,464.0,466.0,274.0,313.0
4059,469,220,0,4083.0,4097.0,466.0,464.0,242.0,274.0
4043,484,230,0,4059.0,4083.0,469.0,466.0,220.0,242.0
4043,502,268,0,4043.0,4059.0,484.0,469.0,230.0,220.0
4047,516,306,0,4043.0,4043.0,502.0,484.0,268.0,230.0
4048,523,320,0,4047.0,4043.0,516.0,502.0,306.0,268.0
4050,526,321,0,4048.0,4047.0,523.0,516.0,320.0,306.0
4048,527,319,0,4050.0,4048.0,526.0,523.0,321.0,320.0
4041,529,302,0,4048.0,4050.0,527.0,526.0,319.0,321.0
4029,531,269,0,4041.0,4048.0,529.0,527.0,302.0,319.0
4018,538,239,0,4029.0,4041.0,531.0,529.0,269.0,302.0
4016,547,228,0,4018.0,4029.0,538.0,531.0,239.0,269.0
4024,558,238,0,4016.0,4018.0,547.0,538.0,228.0,239.0
4036,571,249,0,4024.0,4016.0,558.0,547.0,238.0,228.0
4050,582,255,0,4036.0,4024.0,571.0,558.0,249.0,238.0
4068,591,286,0,4050.0,4036.0,582.0,571.0,255.0,249.0
4086,612,343,0,4068.0,4050.0,591.0,582.0,286.0,255.0
4100,628,374,0,4086.0,4068.0,612.0,591.0,343.0,286.0
4097,629,351,0,4100.0,4086.0,628.0,612.0,374.0,343.0
4075,625,294,0,4097.0,4100.0,629.0,628.0,351.0,374.0
4036,616,230,0,4075.0,4097.0,625.0,629.0,294.0,351.0
3998,617,180,0,4036.0,4075.0,616.0,625.0,230.0,294.0
3966,622,165,0,3998.0,4036.0,617.0,616.0,180.0,230.0
3947,639,168,0,3966.0,3998.0,622.0,617.0,165.0,180.0
3945,657,188,0,3947.0,3966.0,639.0,622.0,168.0,165.0
3945,677,211,0,3945.0,3947.0,657.0,639.0,188.0,168.0
3950,689,228,0,3945.0,3945.0,677.0,657.0,211.0,188.0
3964,690,237,0,3950.0,3945.0,689.0,677.0,228.0,211.0
3983,689,250,0,3964.0,3950.0,690.0,689.0,237.0,228.0
4003,684,261,0,3983.0,3964.0,689.0,690.0,250.0,237.0
4022,670,258,0,4003.0,3983.0,684.0,689.0,261.0,250.0
4038,654,253,0,4022.0,4003.0,670.0,684.0,258.0,261.0
4044,642,243,0,4038.0,4022.0,654.0,670.0,253.0,258.0
4047,637,229,0,4044.0,4038.0,642.0,654.0,243.0,253.0
4039,636,207,0,4047.0,4044.0,637.0,642.0,229.0,243.0
4029,636,194,0,4039.0,4047.0,636.0,637.0,207.0,229.0
4022,639,201,0,4029.0,4039.0,636.0,636.0,194.0,207.0
4017,637,208,0,4022.0,4029.0,639.0,636.0,201.0,194.0
4013,637,221,0,4017.0,4022.0,637.0,639.0,208.0,201.0
4014,629,233,0,4013.0,4017.0,637.0,637.0,221.0,208.0
4013,619,242,0,4014.0,4013.0,629.0,637.0,233.0,221.0
4013,603,244,0,4013.0,4014.0,619.0,629.0,242.0,233.0
4011,587,244,0,4013.0,4013.0,603.0,619.0,244.0,242.0
4015,568,249,0,4011.0,4013.0,587.0,603.0,244.0,244.0
4017,559,254,0,4015.0,4011.0,568.0,587.0,249.0,244.0
4016,554,266,0,4017.0,4015.0,559.0,568.0,254.0,249.0
4015,548,266,0,4016.0,4017.0,554.0,559.0,266.0,254.0
4011,546,269,0,4015.0,4016.0,548.0,554.0,266.0,266.0
4008,544,269,0,4011.0,4015.0,546.0,548.0,269.0,266.0
4002,545,272,0,4008.0,4011.0,544.0,546.0,269.0,269.0
3992,551,272,0,4002.0,4008.0,545.0,544.0,272.0,269.0
3983,548,267,0,3992.0,4002.0,551.0,545.0,272.0,272.0
3979,548,265,0,3983.0,3992.0,548.0,551.0,267.0,272.0
3973,550,267,0,3979.0,3983.0,548.0,548.0,265.0,267.0
3970,555,268,0,3973.0,3979.0,550.0,548.0,267.0,265.0
3973,554,274,0,3970.0,3973.0,555.0,550.0,268.0,267.0
3973,550,275,0,3973.0,3970.0,554.0,555.0,274.0,268.0
3977,545,276,0,3973.0,3973.0,550.0,554.0,275.0,274.0
3980,540,270,0,3977.0,3973.0,545.0,550.0,276.0,275.0
3990,533,266,0,3980.0,3977.0,540.0,545.0,270.0,276.0
3998,524,264,0,3990.0,3980.0,533.0,540.0,266.0,270.0
4011,520,269,0,3998.0,3990.0,524.0,533.0,264.0,266.0
4015,518,267,0,4011.0,3998.0,520.0,524.0,269.0,264.0
4021,517,270,0,4015.0,4011.0,518.0,520.0,267.0,269.0
4026,517,273,0,4021.0,4015.0,517.0,518.0,270.0,267.0
4029,515,281,0,4026.0,4021.0,517.0,517.0,273.0,270.0
4035,511,282,0,4029.0,4026.0,515.0,517.0,281.0,273.0
4037,511,282,0,4035.0,4029.0,511.0,515.0,282.0,281.0
4041,513,277,0,4037.0,4035.0,511.0,511.0,282.0,282.0
4050,508,277,0,4041.0,4037.0,513.0,511.0,277.0,282.0
4054,514,287,0,4050.0,4041.0,508.0,513.0,277.0,277.0
4050,531,295,0,4054.0,4050.0,514.0,508.0,287.0,277.0
4039,547,309,0,4050.0,4054.0,531.0,514.0,295.0,287.0
4031,562,321,0,4039.0,4050.0,547.0,531.0,309.0,295.0
4016,579,322,0,4031.0,4039.0,562.0,547.0,321.0,309.0
4005,592,317,0,4016.0,4031.0,579.0,562.0,322.0,321.0
3995,600,315,0,4005.0,4016.0,592.0,579.0,317.0,322.0
3995,605,311,0,3995.0,4005.0,600.0,592.0,315.0,317.0
3991,606,313,0,3995.0,3995.0,605.0,600.0,311.0,315.0
3999,606,318,0,3991.0,3995.0,606.0,605.0,313.0,311.0
4000,612,317,0,3999.0,3991.0,606.0,606.0,318.0,313.0
3998,618,309,0,4000.0,3999.0,612.0,606.0,317.0,318.0
3991,623,306,0,3998.0,4000.0,618.0,612.0,309.0,317.0
3997,630,305,0,3991.0,3998.0,623.0,618.0,306.0,309.0
4007,634,307,0,3997.0,3991.0,630.0,623.0,305.0,306.0
4011,631,310,0,4007.0,3997.0,634.0,630.0,307.0,305.0
4015,628,315,0,4011.0,4007.0,631.0,634.0,310.0,307.0
4018,622,315,0,4015.0,4011.0,628.0,631.0,315.0,310.0
4013,614,308,0,4018.0,4015.0,622.0,628.0,315.0,315.0
4007,606,298,0,4013.0,4018.0,614.0,622.0,308.0,315.0
3996,605,291,0,4007.0,4013.0,606.0,614.0,298.0,308.0
3979,610,286,0,3996.0,4007.0,605.0,606.0,291.0,298.0
3971,621,286,0,3979.0,3996.0,610.0,605.0,286.0,291.0
3967,642,302,0,3971.0,3979.0,621.0,610.0,286.0,286.0
3967,671,328,0,3967.0,3971.0,642.0,621.0,302.0,286.0
3974,698,349,0,3967.0,3967.0,671.0,642.0,328.0,302.0
3982,720,366,0,3974.0,3967.0,698.0,671.0,349.0,328.0
4000,747,384,0,3982.0,3974.0,720.0,698.0,366.0,349.0
4019,773,400,0,4000.0,3982.0,747.0,720.0,384.0,366.0
4028,795,407,0,4019.0,4000.0,773.0,747.0,400.0,384.0
4029,818,404,0,4028.0,4019.0,795.0,773.0,407.0,400.0
4021,836,397,0,4029.0,4028.0,818.0,795.0,404.0,407.0
4013,856,399,0,4021.0,4029.0,836.0,818.0,397.0,404.0
3999,873,402,0,4013.0,4021.0,856.0,836.0,399.0,397.0
3989,882,410,0,3999.0,4013.0,873.0,856.0,402.0,399.0
3979,883,417,0,3989.0,3999.0,882.0,873.0,410.0,402.0
3969,877,431,0,3979.0,3989.0,883.0,882.0,417.0,410.0
3958,868,446,0,3969.0,3979.0,877.0,883.0,431.0,417.0
3958,860,481,0,3958.0,3969.0,868.0,877.0,446.0,431.0
3965,849,527,0,3958.0,3958.0,860.0,868.0,481.0,446.0
3969,825,566,0,3965.0,3958.0,849.0,860.0,527.0,481.0
3972,791,588,0,3969.0,3965.0,825.0,849.0,566.0,527.0
3975,753,616,0,3972.0,3969.0,791.0,825.0,588.0,566.0
3981,714,670,0,3975.0,3972.0,753.0,791.0,616.0,588.0
3996,672,714,0,3981.0,3975.0,714.0,753.0,670.0,616.0
3986,618,708,0,3996.0,3981.0,672.0,714.0,714.0,670.0
3955,559,668,0,3986.0,3996.0,618.0,672.0,708.0,714.0
3917,505,636,0,3955.0,3986.0,559.0,618.0,668.0,708.0
3880,452,618,0,3917.0,3955.0,505.0,559.0,636.0,668.0
3848,392,620,0,3880.0,3917.0,452.0,505.0,618.0,636.0
3822,331,632,0,3848.0,3880.0,392.0,452.0,620.0,618.0
3800,273,649,0,3822.0,3848.0,331.0,392.0,632.0,620.0
3782,216,665,0,3800.0,3822.0,273.0,331.0,649.0,632.0
3766,173,685,0,3782.0,3800.0,216.0,273.0,665.0,649.0
3745,149,700,0,3766.0,3782.0,173.0,216.0,685.0,665.0
3741,125,717,0,3745.0,3766.0,149.0,173.0,700.0,685.0
3751,77,718,0,3741.0,3745.0,125.0,149.0,717.0,700.0
3757,31,716,0,3751.0,3741.0,77.0,125.0,718.0,717.0
3751,1,707,0,3757.0,3751.0,31.0,77.0,716.0,718.0
3759,-16,715,0,3751.0,3757.0,1.0,31.0,707.0,716.0
3771,-30,743,0,3759.0,3751.0,-16.0,1.0,715.0,707.0
3795,-21,779,0,3771.0,3759.0,-30.0,-16.0,743.0,715.0
3840,-3,819,0,3795.0,3771.0,-21.0,-30.0,779.0,743.0
3897,23,857,0,3840.0,3795.0,-3.0,-21.0,819.0,779.0
3971,62,909,0,3897.0,3840.0,23.0,-3.0,857.0,819.0
4043,114,960,0,3971.0,3897.0,62.0,23.0,909.0,857.0
4103,156,957,0,4043.0,3971.0,114.0,62.0,960.0,909.0
4141,187,925,0,4103.0,4043.0,156.0,114.0,957.0,960.0
4175,230,901,0,4141.0,4103.0,187.0,156.0,925.0,957.0
4189,286,890,0,4175.0,4141.0,230.0,187.0,901.0,925.0
4182,351,875,0,4189.0,4175.0,286.0,230.0,890.0,901.0
4152,407,858,0,4182.0,4189.0,351.0,286.0,875.0,890.0
4107,447,845,0,4152.0,4182.0,407.0,351.0,858.0,875.0
4042,468,829,0,4107.0,4152.0,447.0,407.0,845.0,858.0
3945,477,813,0,4042.0,4107.0,468.0,447.0,829.0,845.0
3824,473,782,0,3945.0,4042.0,477.0,468.0,813.0,829.0
3689,463,748,0,3824.0,3945.0,473.0,477.0,782.0,813.0
3545,435,702,0,3689.0,3824.0,463.0,473.0,748.0,782.0
3397,400,652,0,3545.0,3689.0,435.0,463.0,702.0,748.0
3243,376,608,0,3397.0,3545.0,400.0,435.0,652.0,702.0
3098,361,564,0,3243.0,3397.0,376.0,400.0,608.0,652.0
2976,356,526,0,3098.0,3243.0,361.0,376.0,564.0,608.0
2878,364,495,0,2976.0,3098.0,356.0,361.0,526.0,564.0
2803,390,483,0,2878.0,2976.0,364.0,356.0,495.0,526.0
2763,436,490,0,2803.0,2878.0,390.0,364.0,483.0,495.0
2756,490,494,0,2763.0,2803.0,436.0,390.0,490.0,483.0
2768,562,474,0,2756.0,2763.0,490.0,436.0,494.0,490.0
2797,638,425,0,2768.0,2756.0,562.0,490.0,474.0,494.0
2829,718,341,0,2797.0,2768.0,638.0,562.0,425.0,474.0
2862,805,234,0,2829.0,2797.0,718.0,638.0,341.0,425.0
2914,895,129,0,2862.0,2829.0,805.0,718.0,234.0,341.0
2981,989,54,0,2914.0,2862.0,895.0,805.0,129.0,234.0
3069,1093,-2,0,2981.0,2914.0,989.0,895.0,54.0,129.0
3168,1216,-30,0,3069.0,2981.0,1093.0,989.0,-2.0,54.0
3277,1345,-26,0,3168.0,3069.0,1216.0,1093.0,-30.0,-2.0
3395,1488,-13,0,3277.0,3168.0,1345.0,1216.0,-26.0,-30.0
3517,1615,6,0,3395.0,3277.0,1488.0,1345.0,-13.0,-26.0
3632,1744,32,0,3517.0,3395.0,1615.0,1488.0,6.0,-13.0
3729,1866,70,0,3632.0,3517.0,1744.0,1615.0,32.0,6.0
3812,1979,119,0,3729.0,3632.0,1866.0,1744.0,70.0,32.0
3879,2088,182,0,3812.0,3729.0,1979.0,1866.0,119.0,70.0
3928,2185,253,0,3879.0,3812.0,2088.0,1979.0,182.0,119.0
3947,2264,331,0,3928.0,3879.0,2185.0,2088.0,253.0,182.0
3946,2319,418,0,3947.0,3928.0,2264.0,2185.0,331.0,253.0
3918,2340,494,0,3946.0,3947.0,2319.0,2264.0,418.0,331.0
3869,2319,551,0,3918.0,3946.0,2340.0,2319.0,494.0,418.0
3806,2276,602,0,3869.0,3918.0,2319.0,2340.0,551.0,494.0
3740,2192,634,0,3806.0,3869.0,2276.0,2319.0,602.0,551.0
3674,2076,632,0,3740.0,3806.0,2192.0,2276.0,634.0,602.0
3610,1933,609,0,3674.0,3740.0,2076.0,2192.0,632.0,634.0
3540,1765,565,0,3610.0,3674.0,1933.0,2076.0,609.0,632.0
3470,1597,514,0,3540.0,3610.0,1765.0,1933.0,565.0,609.0
3415,1429,452,0,3470.0,3540.0,1597.0,1765.0,514.0,565.0
3369,1276,399,0,3415.0,3470.0,1429.0,1597.0,452.0,514.0
3338,1128,351,0,3369.0,3415.0,1276.0,1429.0,399.0,452.0
3304,985,304,0,3338.0,3369.0,1128.0,1276.0,351.0,399.0
3263,856,266,0,3304.0,3338.0,985.0,1128.0,304.0,351.0
3214,738,233,0,3263.0,3304.0,856.0,985.0,266.0,304.0
3140,630,220,0,3214.0,3263.0,738.0,856.0,233.0,266.0
3056,528,207,0,3140.0,3214.0,630.0,738.0,220.0,233.0
2953,477,179,0,3056.0,3140.0,528.0,630.0,207.0,220.0
2845,440,171,0,2953.0,3056.0,477.0,528.0,179.0,207.0
2757,417,174,0,2845.0,2953.0,440.0,477.0,171.0,179.0
2703,408,200,0,2757.0,2845.0,417.0,440.0,174.0,171.0
2672,427,237,0,2703.0,2757.0,408.0,417.0,200.0,174.0
2667,471,283,0,2672.0,2703.0,427.0,408.0,237.0,200.0
2699,535,334,0,2667.0,2672.0,471.0,427.0,283.0,237.0
2768,625,379,0,2699.0,2667.0,535.0,471.0,334.0,283.0
2879,725,407,0,2768.0,2699.0,625.0,535.0,379.0,334.0
3028,836,415,0,2879.0,2768.0,725.0,625.0,407.0,379.0
3203,950,404,0,3028.0,2879.0,836.0,725.0,415.0,407.0
3393,1032,357,0,3203.0,3028.0,950.0,836.0,404.0,415.0
3586,1155,297,0,3393.0,3203.0,1032.0,950.0,357.0,404.0
3796,1317,256,0,3586.0,3393.0,1155.0,1032.0,297.0,357.0
4033,1432,216,0,3796.0,3586.0,1317.0,1155.0,256.0,297.0
4263,1520,163,0,4033.0,3796.0,1432.0,1317.0,216.0,256.0
4460,1590,82,0,4263.0,4033.0,1520.0,1432.0,163.0,216.0
4598,1635,-11,0,4460.0,4263.0,1590.0,1520.0,82.0,163.0
4651,1660,-110,0,4598.0,4460.0,1635.0,1590.0,-11.0,82.0
4633,1670,-197,0,4651.0,4598.0,1660.0,1635.0,-110.0,-11.0
4553,1665,-262,0,4633.0,4651.0,1670.0,1660.0,-197.0,-110.0
4433,1632,-295,0,4553.0,4633.0,1665.0,1670.0,-262.0,-197.0
4270,1607,-300,0,4433.0,4553.0,1632.0,1665.0,-295.0,-262.0
4087,1580,-287,0,4270.0,4433.0,1607.0,1632.0,-300.0,-295.0
3907,1580,-272,0,4087.0,4270.0,1580.0,1607.0,-287.0,-300.0
3738,1614,-260,0,3907.0,4087.0,1580.0,1580.0,-272.0,-287.0
3602,1675,-243,0,3738.0,3907.0,1614.0,1580.0,-260.0,-272.0
3500,1767,-243,0,3602.0,3738.0,1675.0,1614.0,-243.0,-260.0
3432,1874,-225,0,3500.0,3602.0,1767.0,1675.0,-243.0,-243.0
3416,1988,-195,0,3432.0,3500.0,1874.0,1767.0,-225.0,-243.0
3446,2107,-141,0,3416.0,3432.0,1988.0,1874.0,-195.0,-225.0
3528,2210,-76,0,3446.0,3416.0,2107.0,1988.0,-141.0,-195.0
3656,2295,-8,0,3528.0,3446.0,2210.0,2107.0,-76.0,-141.0
3813,2378,60,0,3656.0,3528.0,2295.0,2210.0,-8.0,-76.0
3964,2440,110,0,3813.0,3656.0,2378.0,2295.0,60.0,-8.0
4111,2498,128,0,3964.0,3813.0,2440.0,2378.0,110.0,60.0
4236,2542,107,0,4111.0,3964.0,2498.0,2440.0,128.0,110.0
4339,2563,52,0,4236.0,4111.0,2542.0,2498.0,107.0,128.0
4405,2548,-42,0,4339.0,4236.0,2563.0,2542.0,52.0,107.0
4426,2520,-138,0,4405.0,4339.0,2548.0,2563.0,-42.0,52.0
4407,2477,-232,0,4426.0,4405.0,2520.0,2548.0,-138.0,-42.0
4361,2403,-327,0,4407.0,4426.0,2477.0,2520.0,-232.0,-138.0
4284,2312,-407,0,4361.0,4407.0,2403.0,2477.0,-327.0,-232.0
4197,2203,-472,0,4284.0,4361.0,2312.0,2403.0,-407.0,-327.0
4121,2080,-514,0,4197.0,4284.0,2203.0,2312.0,-472.0,-407.0
4045,1954,-521,0,4121.0,4197.0,2080.0,2203.0,-514.0,-472.0
3967,1830,-510,0,4045.0,4121.0,1954.0,2080.0,-521.0,-514.0
3893,1726,-498,0,3967.0,4045.0,1830.0,1954.0,-510.0,-521.0
3824,1630,-489,0,3893.0,3967.0,1726.0,1830.0,-498.0,-510.0
3777,1550,-493,0,3824.0,3893.0,1630.0,1726.0,-489.0,-498.0
3749,1473,-499,0,3777.0,3824.0,1550.0,1630.0,-493.0,-489.0
3733,1411,-510,0,3749.0,3777.0,1473.0,1550.0,-499.0,-493.0
3726,1359,-519,0,3733.0,3749.0,1411.0,1473.0,-510.0,-499.0
3725,1294,-520,0,3726.0,3733.0,1359.0,1411.0,-519.0,-510.0
3738,1237,-508,0,3725.0,3726.0,1294.0,1359.0,-520.0,-519.0
3767,1193,-478,0,3738.0,3725.0,1237.0,1294.0,-508.0,-520.0
3798,1162,-438,0,3767.0,3738.0,1193.0,1237.0,-478.0,-508.0
3831,1137,-414,0,3798.0,3767.0,1162.0,1193.0,-438.0,-478.0
3847,1131,-417,0,3831.0,3798.0,1137.0,1162.0,-414.0,-438.0
3857,1139,-420,0,3847.0,3831.0,1131.0,1137.0,-417.0,-414.0
3866,1150,-430,0,3857.0,3847.0,1139.0,1131.0,-420.0,-417.0
3854,1188,-450,0,3866.0,3857.0,1150.0,1139.0,-430.0,-420.0
3827,1245,-481,0,3854.0,3866.0,1188.0,1150.0,-450.0,-430.0
