accelerometer_x,accelerometer_y,accelerometer_z,fall,x_lag_1,x_lag_2,y_lag_1,y_lag_2,z_lag_1,z_lag_2
4103,-620,318,0,,,,,,
4106,-603,324,0,4103.0,,-620.0,,318.0,
4107,-587,339,0,4106.0,4103.0,-603.0,-620.0,324.0,318.0
4109,-583,354,0,4107.0,4106.0,-587.0,-603.0,339.0,324.0
4120,-605,370,0,4109.0,4107.0,-583.0,-587.0,354.0,339.0
4131,-626,381,0,4120.0,4109.0,-605.0,-583.0,370.0,354.0
4133,-642,382,0,4131.0,4120.0,-626.0,-605.0,381.0,370.0
4132,-658,385,0,4133.0,4131.0,-642.0,-626.0,382.0,381.0
4133,-682,388,0,4132.0,4133.0,-658.0,-642.0,385.0,382.0
4130,-698,392,0,4133.0,4132.0,-682.0,-658.0,388.0,385.0
4129,-718,391,0,4130.0,4133.0,-698.0,-682.0,392.0,388.0
4124,-743,384,0,4129.0,4130.0,-718.0,-698.0,391.0,392.0
4126,-773,372,0,4124.0,4129.0,-743.0,-718.0,384.0,391.0
4127,-801,368,0,4126.0,4124.0,-773.0,-743.0,372.0,384.0
4129,-821,378,0,4127.0,4126.0,-801.0,-773.0,368.0,372.0
4133,-836,390,0,4129.0,4127.0,-821.0,-801.0,378.0,368.0
4138,-848,395,0,4133.0,4129.0,-836.0,-821.0,390.0,378.0
4135,-847,392,0,4138.0,4133.0,-848.0,-836.0,395.0,390.0
4131,-847,369,0,4135.0,4138.0,-847.0,-848.0,392.0,395.0
4131,-849,347,0,4131.0,4135.0,-847.0,-847.0,369.0,392.0
4135,-853,331,0,4131.0,4131.0,-849.0,-847.0,347.0,369.0
4145,-871,313,0,4135.0,4131.0,-853.0,-849.0,331.0,347.0
4164,-879,292,0,4145.0,4135.0,-871.0,-853.0,313.0,331.0
4181,-883,281,0,4164.0,4145.0,-879.0,-871.0,292.0,313.0
4205,-880,286,0,4181.0,4164.0,-883.0,-879.0,281.0,292.0
4228,-873,296,0,4205.0,4181.0,-880.0,-883.0,286.0,281.0
4248,-859,299,0,4228.0,4205.0,-873.0,-880.0,296.0,286.0
4261,-835,300,0,4248.0,4228.0,-859.0,-873.0,299.0,296.0
4278,-785,307,0,4261.0,4248.0,-835.0,-859.0,300.0,299.0
4294,-745,319,0,4278.0,4261.0,-785.0,-835.0,307.0,300.0
4311,-703,341,0,4294.0,4278.0,-745.0,-785.0,319.0,307.0
4326,-661,371,0,4311.0,4294.0,-703.0,-745.0,341.0,319.0
4341,-620,414,0,4326.0,4311.0,-661.0,-703.0,371.0,341.0
4351,-594,454,0,4341.0,4326.0,-620.0,-661.0,414.0,371.0
4359,-586,506,0,4351.0,4341.0,-594.0,-620.0,454.0,414.0
4363,-577,558,0,4359.0,4351.0,-586.0,-594.0,506.0,454.0
4359,-581,602,0,4363.0,4359.0,-577.0,-586.0,558.0,506.0
4351,-595,636,0,4359.0,4363.0,-581.0,-577.0,602.0,558.0
4331,-615,659,0,4351.0,4359.0,-595.0,-581.0,636.0,602.0
4304,-633,670,0,4331.0,4351.0,-615.0,-595.0,659.0,636.0
4261,-649,673,0,4304.0,4331.0,-633.0,-615.0,670.0,659.0
4215,-669,671,0,4261.0,4304.0,-649.0,-633.0,673.0,670.0
4161,-681,665,0,4215.0,4261.0,-669.0,-649.0,671.0,673.0
4110,-690,656,0,4161.0,4215.0,-681.0,-669.0,665.0,671.0
4057,-701,635,0,4110.0,4161.0,-690.0,-681.0,656.0,665.0
3999,-710,619,0,4057.0,4110.0,-701.0,-690.0,635.0,656.0
3948,-718,609,0,3999.0,4057.0,-710.0,-701.0,619.0,635.0
3902,-708,609,0,3948.0,3999.0,-718.0,-710.0,609.0,619.0
3872,-691,626,0,3902.0,3948.0,-708.0,-718.0,609.0,609.0
3839,-655,643,0,3872.0,3902.0,-691.0,-708.0,626.0,609.0
3819,-596,662,0,3839.0,3872.0,-655.0,-691.0,643.0,626.0
3811,-532,685,0,3819.0,3839.0,-596.0,-655.0,662.0,643.0
3811,-454,707,0,3811.0,3819.0,-532.0,-596.0,685.0,662.0
3816,-366,745,0,3811.0,3811.0,-454.0,-532.0,707.0,685.0
3833,-267,786,0,3816.0,3811.0,-366.0,-454.0,745.0,707.0
3869,-177,830,0,3833.0,3816.0,-267.0,-366.0,786.0,745.0
3912,-89,897,0,3869.0,3833.0,-177.0,-267.0,830.0,786.0
3965,-13,975,0,3912.0,3869.0,-89.0,-177.0,897.0,830.0
4026,53,1067,0,3965.0,3912.0,-13.0,-89.0,975.0,897.0
4075,104,1159,0,4026.0,3965.0,53.0,-13.0,1067.0,975.0
4123,146,1242,0,4075.0,4026.0,104.0,53.0,1159.0,1067.0
4170,166,1309,0,4123.0,4075.0,146.0,104.0,1242.0,1159.0
4203,171,1353,0,4170.0,4123.0,166.0,146.0,1309.0,1242.0
4221,159,1369,0,4203.0,4170.0,171.0,166.0,1353.0,1309.0
4230,136,1372,0,4221.0,4203.0,159.0,171.0,1369.0,1353.0
4232,87,1358,0,4230.0,4221.0,136.0,159.0,1372.0,1369.0
4218,33,1334,0,4232.0,4230.0,87.0,136.0,1358.0,1372.0
4199,-36,1306,0,4218.0,4232.0,33.0,87.0,1334.0,1358.0
4167,-101,1273,0,4199.0,4218.0,-36.0,33.0,1306.0,1334.0
4134,-160,1235,0,4167.0,4199.0,-101.0,-36.0,1273.0,1306.0
4097,-210,1197,0,4134.0,4167.0,-160.0,-101.0,1235.0,1273.0
4062,-252,1167,0,4097.0,4134.0,-210.0,-160.0,1197.0,1235.0
4018,-280,1159,0,4062.0,4097.0,-252.0,-210.0,1167.0,1197.0
3981,-305,1172,0,4018.0,4062.0,-280.0,-252.0,1159.0,1167.0
3947,-322,1206,0,3981.0,4018.0,-305.0,-280.0,1172.0,1159.0
3898,-329,1243,0,3947.0,3981.0,-322.0,-305.0,1206.0,1172.0
3854,-337,1278,0,3898.0,3947.0,-329.0,-322.0,1243.0,1206.0
3817,-354,1308,0,3854.0,3898.0,-337.0,-329.0,1278.0,1243.0
3777,-380,1332,0,3817.0,3854.0,-354.0,-337.0,1308.0,1278.0
3736,-421,1346,0,3777.0,3817.0,-380.0,-354.0,1332.0,1308.0
3686,-454,1362,0,3736.0,3777.0,-421.0,-380.0,1346.0,1332.0
3631,-488,1380,0,3686.0,3736.0,-454.0,-421.0,1362.0,1346.0
3579,-521,1380,0,3631.0,3686.0,-488.0,-454.0,1380.0,1362.0
3519,-537,1365,0,3579.0,3631.0,-521.0,-488.0,1380.0,1380.0
3458,-540,1340,0,3519.0,3579.0,-537.0,-521.0,1365.0,1380.0
3394,-527,1315,0,3458.0,3519.0,-540.0,-537.0,1340.0,1365.0
3333,-505,1278,0,3394.0,3458.0,-527.0,-540.0,1315.0,1340.0
3277,-483,1238,0,3333.0,3394.0,-505.0,-527.0,1278.0,1315.0
3236,-449,1199,0,3277.0,3333.0,-483.0,-505.0,1238.0,1278.0
3220,-419,1170,0,3236.0,3277.0,-449.0,-483.0,1199.0,1238.0
3225,-386,1154,0,3220.0,3236.0,-419.0,-449.0,1170.0,1199.0
3249,-352,1157,0,3225.0,3220.0,-386.0,-419.0,1154.0,1170.0
3286,-320,1190,0,3249.0,3225.0,-352.0,-386.0,1157.0,1154.0
3343,-278,1257,0,3286.0,3249.0,-320.0,-352.0,1190.0,1157.0
3404,-231,1356,0,3343.0,3286.0,-278.0,-320.0,1257.0,1190.0
3466,-171,1473,0,3404.0,3343.0,-231.0,-278.0,1356.0,1257.0
3522,-97,1598,0,3466.0,3404.0,-171.0,-231.0,1473.0,1356.0
3577,-21,1709,0,3522.0,3466.0,-97.0,-171.0,1598.0,1473.0
3622,66,1792,0,3577.0,3522.0,-21.0,-97.0,1709.0,1598.0
3656,151,1848,0,3622.0,3577.0,66.0,-21.0,1792.0,1709.0
3682,237,1873,0,3656.0,3622.0,151.0,66.0,1848.0,1792.0
3706,306,1885,0,3682.0,3656.0,237.0,151.0,1873.0,1848.0
3723,360,1893,0,3706.0,3682.0,306.0,237.0,1885.0,1873.0
3737,399,1891,0,3723.0,3706.0,360.0,306.0,1893.0,1885.0
3746,418,1880,0,3737.0,3723.0,399.0,360.0,1891.0,1893.0
3760,424,1861,0,3746.0,3737.0,418.0,399.0,1880.0,1891.0
3770,416,1839,0,3760.0,3746.0,424.0,418.0,1861.0,1880.0
3782,397,1822,0,3770.0,3760.0,416.0,424.0,1839.0,1861.0
3796,372,1804,0,3782.0,3770.0,397.0,416.0,1822.0,1839.0
3815,347,1792,0,3796.0,3782.0,372.0,397.0,1804.0,1822.0
3825,322,1785,0,3815.0,3796.0,347.0,372.0,1792.0,1804.0
3834,294,1787,0,3825.0,3815.0,322.0,347.0,1785.0,1792.0
3837,272,1794,0,3834.0,3825.0,294.0,322.0,1787.0,1785.0
3844,249,1794,0,3837.0,3834.0,272.0,294.0,1794.0,1787.0
3846,224,1791,0,3844.0,3837.0,249.0,272.0,1794.0,1794.0
3838,202,1797,0,3846.0,3844.0,224.0,249.0,1791.0,1794.0
3815,193,1805,0,3838.0,3846.0,202.0,224.0,1797.0,1791.0
3786,189,1812,0,3815.0,3838.0,193.0,202.0,1805.0,1797.0
3742,191,1807,0,3786.0,3815.0,189.0,193.0,1812.0,1805.0
3691,200,1799,0,3742.0,3786.0,191.0,189.0,1807.0,1812.0
3636,213,1797,0,3691.0,3742.0,200.0,191.0,1799.0,1807.0
3577,236,1797,0,3636.0,3691.0,213.0,200.0,1797.0,1799.0
3516,266,1811,0,3577.0,3636.0,236.0,213.0,1797.0,1797.0
3459,294,1825,0,3516.0,3577.0,266.0,236.0,1811.0,1797.0
3394,322,1836,0,3459.0,3516.0,294.0,266.0,1825.0,1811.0
3342,336,1848,0,3394.0,3459.0,322.0,294.0,1836.0,1825.0
3298,353,1875,0,3342.0,3394.0,336.0,322.0,1848.0,1836.0
3271,367,1912,0,3298.0,3342.0,353.0,336.0,1875.0,1848.0
3257,376,1954,0,3271.0,3298.0,367.0,353.0,1912.0,1875.0
3258,376,1996,0,3257.0,3271.0,376.0,367.0,1954.0,1912.0
3286,358,2024,0,3258.0,3257.0,376.0,376.0,1996.0,1954.0
3329,331,2036,0,3286.0,3258.0,358.0,376.0,2024.0,1996.0
3383,299,2031,0,3329.0,3286.0,331.0,358.0,2036.0,2024.0
3437,270,2010,0,3383.0,3329.0,299.0,331.0,2031.0,2036.0
3484,259,1990,0,3437.0,3383.0,270.0,299.0,2010.0,2031.0
3529,258,1966,0,3484.0,3437.0,259.0,270.0,1990.0,2010.0
3573,259,1948,0,3529.0,3484.0,258.0,259.0,1966.0,1990.0
3616,259,1934,0,3573.0,3529.0,259.0,258.0,1948.0,1966.0
3659,261,1929,0,3616.0,3573.0,259.0,259.0,1934.0,1948.0
3693,269,1921,0,3659.0,3616.0,261.0,259.0,1929.0,1934.0
3720,281,1911,0,3693.0,3659.0,269.0,261.0,1921.0,1929.0
3747,292,1895,0,3720.0,3693.0,281.0,269.0,1911.0,1921.0
3763,311,1881,0,3747.0,3720.0,292.0,281.0,1895.0,1911.0
3783,322,1867,0,3763.0,3747.0,311.0,292.0,1881.0,1895.0
3793,334,1864,0,3783.0,3763.0,322.0,311.0,1867.0,1881.0
3804,337,1853,0,3793.0,3783.0,334.0,322.0,1864.0,1867.0
3795,348,1841,0,3804.0,3793.0,337.0,334.0,1853.0,1864.0
3774,362,1825,0,3795.0,3804.0,348.0,337.0,1841.0,1853.0
3739,375,1804,0,3774.0,3795.0,362.0,348.0,1825.0,1841.0
3696,384,1786,0,3739.0,3774.0,375.0,362.0,1804.0,1825.0
3654,388,1766,0,3696.0,3739.0,384.0,375.0,1786.0,1804.0
3601,392,1746,0,3654.0,3696.0,388.0,384.0,1766.0,1786.0
3556,387,1728,0,3601.0,3654.0,392.0,388.0,1746.0,1766.0
3509,378,1720,0,3556.0,3601.0,387.0,392.0,1728.0,1746.0
3469,369,1714,0,3509.0,3556.0,378.0,387.0,1720.0,1728.0
3436,357,1709,0,3469.0,3509.0,369.0,378.0,1714.0,1720.0
3403,351,1693,0,3436.0,3469.0,357.0,369.0,1709.0,1714.0
3381,342,1675,0,3403.0,3436.0,351.0,357.0,1693.0,1709.0
3366,328,1661,0,3381.0,3403.0,342.0,351.0,1675.0,1693.0
3352,323,1660,0,3366.0,3381.0,328.0,342.0,1661.0,1675.0
3344,321,1652,0,3352.0,3366.0,323.0,328.0,1660.0,1661.0
3345,326,1647,0,3344.0,3352.0,321.0,323.0,1652.0,1660.0
3358,329,1632,0,3345.0,3344.0,326.0,321.0,1647.0,1652.0
3343,358,1629,0,3358.0,3345.0,329.0,326.0,1632.0,1647.0
3348,374,1632,0,3343.0,3358.0,358.0,329.0,1629.0,1632.0
3364,376,1642,0,3348.0,3343.0,374.0,358.0,1632.0,1629.0
3378,377,1661,0,3364.0,3348.0,376.0,374.0,1642.0,1632.0
3390,387,1681,0,3378.0,3364.0,377.0,376.0,1661.0,1642.0
3396,396,1700,0,3390.0,3378.0,387.0,377.0,1681.0,1661.0
3393,407,1717,0,3396.0,3390.0,396.0,387.0,1700.0,1681.0
3389,414,1731,0,3393.0,3396.0,407.0,396.0,1717.0,1700.0
3383,418,1753,0,3389.0,3393.0,414.0,407.0,1731.0,1717.0
3386,415,1761,0,3383.0,3389.0,418.0,414.0,1753.0,1731.0
3407,396,1770,0,3386.0,3383.0,415.0,418.0,1761.0,1753.0
3433,381,1781,0,3407.0,3386.0,396.0,415.0,1770.0,1761.0
3461,363,1784,0,3433.0,3407.0,381.0,396.0,1781.0,1770.0
3497,348,1773,0,3461.0,3433.0,363.0,381.0,1784.0,1781.0
3528,338,1758,0,3497.0,3461.0,348.0,363.0,1773.0,1784.0
3560,335,1743,0,3528.0,3497.0,338.0,348.0,1758.0,1773.0
3592,336,1727,0,3560.0,3528.0,335.0,338.0,1743.0,1758.0
3621,338,1708,0,3592.0,3560.0,336.0,335.0,1727.0,1743.0
3649,342,1701,0,3621.0,3592.0,338.0,336.0,1708.0,1727.0
3660,358,1696,0,3649.0,3621.0,342.0,338.0,1701.0,1708.0
3668,363,1690,0,3660.0,3649.0,358.0,342.0,1696.0,1701.0
3671,359,1682,0,3668.0,3660.0,363.0,358.0,1690.0,1696.0
3668,353,1676,0,3671.0,3668.0,359.0,363.0,1682.0,1690.0
3659,346,1663,0,3668.0,3671.0,353.0,359.0,1676.0,1682.0
3636,345,1651,0,3659.0,3668.0,346.0,353.0,1663.0,1676.0
3601,352,1650,0,3636.0,3659.0,345.0,346.0,1651.0,1663.0
3575,348,1652,0,3601.0,3636.0,352.0,345.0,1650.0,1651.0
3556,340,1665,0,3575.0,3601.0,348.0,352.0,1652.0,1650.0
3534,341,1678,0,3556.0,3575.0,340.0,348.0,1665.0,1652.0
3529,321,1692,0,3534.0,3556.0,341.0,340.0,1678.0,1665.0
3532,294,1693,0,3529.0,3534.0,321.0,341.0,1692.0,1678.0
3542,278,1680,0,3532.0,3529.0,294.0,321.0,1693.0,1692.0
3552,267,1667,0,3542.0,3532.0,278.0,294.0,1680.0,1693.0
3562,263,1667,0,3552.0,3542.0,267.0,278.0,1667.0,1680.0
3591,266,1665,0,3562.0,3552.0,263.0,267.0,1667.0,1667.0
3625,274,1667,0,3591.0,3562.0,266.0,263.0,1665.0,1667.0
3655,289,1668,0,3625.0,3591.0,274.0,266.0,1667.0,1665.0
3675,309,1663,0,3655.0,3625.0,289.0,274.0,1668.0,1667.0
3692,325,1653,0,3675.0,3655.0,309.0,289.0,1663.0,1668.0
3719,321,1632,0,3692.0,3675.0,325.0,309.0,1653.0,1663.0
3743,295,1617,0,3719.0,3692.0,321.0,325.0,1632.0,1653.0
3732,306,1628,0,3743.0,3719.0,295.0,321.0,1617.0,1632.0
3709,325,1646,0,3732.0,3743.0,306.0,295.0,1628.0,1617.0
3680,341,1663,0,3709.0,3732.0,325.0,306.0,1646.0,1628.0
3649,351,1676,0,3680.0,3709.0,341.0,325.0,1663.0,1646.0
3628,357,1694,0,3649.0,3680.0,351.0,341.0,1676.0,1663.0
3606,364,1709,0,3628.0,3649.0,357.0,351.0,1694.0,1676.0
3584,389,1728,0,3606.0,3628.0,364.0,357.0,1709.0,1694.0
3571,405,1747,0,3584.0,3606.0,389.0,364.0,1728.0,1709.0
3575,398,1754,0,3571.0,3584.0,405.0,389.0,1747.0,1728.0
3581,409,1764,0,3575.0,3571.0,398.0,405.0,1754.0,1747.0
3592,421,1772,0,3581.0,3575.0,409.0,398.0,1764.0,1754.0
3609,425,1788,0,3592.0,3581.0,421.0,409.0,1772.0,1764.0
3620,426,1781,0,3609.0,3592.0,425.0,421.0,1788.0,1772.0
3628,424,1769,0,3620.0,3609.0,426.0,425.0,1781.0,1788.0
3640,414,1770,0,3628.0,3620.0,424.0,426.0,1769.0,1781.0
3645,407,1774,0,3640.0,3628.0,414.0,424.0,1770.0,1769.0
3648,411,1764,0,3645.0,3640.0,407.0,414.0,1774.0,1770.0
3666,408,1762,0,3648.0,3645.0,411.0,407.0,1764.0,1774.0
3687,398,1749,0,3666.0,3648.0,408.0,411.0,1762.0,1764.0
3707,390,1748,0,3687.0,3666.0,398.0,408.0,1749.0,1762.0
3720,384,1741,0,3707.0,3687.0,390.0,398.0,1748.0,1749.0
3735,385,1732,0,3720.0,3707.0,384.0,390.0,1741.0,1748.0
3745,357,1720,0,3735.0,3720.0,385.0,384.0,1732.0,1741.0
3752,339,1724,0,3745.0,3735.0,357.0,385.0,1720.0,1732.0
3734,355,1728,0,3752.0,3745.0,339.0,357.0,1724.0,1720.0
3736,324,1741,0,3734.0,3752.0,355.0,339.0,1728.0,1724.0
3740,284,1766,0,3736.0,3734.0,324.0,355.0,1741.0,1728.0
3733,258,1796,0,3740.0,3736.0,284.0,324.0,1766.0,1741.0
3720,241,1810,0,3733.0,3740.0,258.0,284.0,1796.0,1766.0
3698,257,1827,0,3720.0,3733.0,241.0,258.0,1810.0,1796.0
3679,261,1826,0,3698.0,3720.0,257.0,241.0,1827.0,1810.0
3671,257,1825,0,3679.0,3698.0,261.0,257.0,1826.0,1827.0
3669,230,1820,0,3671.0,3679.0,257.0,261.0,1825.0,1826.0
3666,205,1817,0,3669.0,3671.0,230.0,257.0,1820.0,1825.0
3654,194,1824,0,3666.0,3669.0,205.0,230.0,1817.0,1820.0
3642,191,1821,0,3654.0,3666.0,194.0,205.0,1824.0,1817.0
3629,180,1810,0,3642.0,3654.0,191.0,194.0,1821.0,1824.0
3619,164,1807,0,3629.0,3642.0,180.0,191.0,1810.0,1821.0
3610,152,1807,0,3619.0,3629.0,164.0,180.0,1807.0,1810.0
3615,142,1817,0,3610.0,3619.0,152.0,164.0,1807.0,1807.0
3619,127,1822,0,3615.0,3610.0,142.0,152.0,1817.0,1807.0
3617,132,1833,0,3619.0,3615.0,127.0,142.0,1822.0,1817.0
3610,139,1836,0,3617.0,3619.0,132.0,127.0,1833.0,1822.0
3612,144,1835,0,3610.0,3617.0,139.0,132.0,1836.0,1833.0
3606,153,1826,0,3612.0,3610.0,144.0,139.0,1835.0,1836.0
3598,158,1816,0,3606.0,3612.0,153.0,144.0,1826.0,1835.0
3587,171,1805,0,3598.0,3606.0,158.0,153.0,1816.0,1826.0
3584,193,1808,0,3587.0,3598.0,171.0,158.0,1805.0,1816.0
3589,212,1822,0,3584.0,3587.0,193.0,171.0,1808.0,1805.0
3605,225,1835,0,3589.0,3584.0,212.0,193.0,1822.0,1808.0
3623,247,1850,0,3605.0,3589.0,225.0,212.0,1835.0,1822.0
3636,275,1853,0,3623.0,3605.0,247.0,225.0,1850.0,1835.0
3649,307,1856,0,3636.0,3623.0,275.0,247.0,1853.0,1850.0
3663,317,1852,0,3649.0,3636.0,307.0,275.0,1856.0,1853.0
3671,319,1841,0,3663.0,3649.0,317.0,307.0,1852.0,1856.0
3664,304,1834,0,3671.0,3663.0,319.0,317.0,1841.0,1852.0
3649,303,1836,0,3664.0,3671.0,304.0,319.0,1834.0,1841.0
3631,293,1831,0,3649.0,3664.0,303.0,304.0,1836.0,1834.0
3604,276,1817,0,3631.0,3649.0,293.0,303.0,1831.0,1836.0
3581,254,1804,0,3604.0,3631.0,276.0,293.0,1817.0,1831.0
3555,231,1800,0,3581.0,3604.0,254.0,276.0,1804.0,1817.0
3545,200,1792,0,3555.0,3581.0,231.0,254.0,1800.0,1804.0
3544,162,1793,0,3545.0,3555.0,200.0,231.0,1792.0,1800.0
3543,124,1801,0,3544.0,3545.0,162.0,200.0,1793.0,1792.0
3545,92,1809,0,3543.0,3544.0,124.0,162.0,1801.0,1793.0
3539,70,1823,0,3545.0,3543.0,92.0,124.0,1809.0,1801.0
3529,45,1826,0,3539.0,3545.0,70.0,92.0,1823.0,1809.0
3511,16,1833,0,3529.0,3539.0,45.0,70.0,1826.0,1823.0
3490,-7,1838,0,3511.0,3529.0,16.0,45.0,1833.0,1826.0
3462,-15,1843,0,3490.0,3511.0,-7.0,16.0,1838.0,1833.0
3445,-19,1845,0,3462.0,3490.0,-15.0,-7.0,1843.0,1838.0
3438,-11,1847,0,3445.0,3462.0,-19.0,-15.0,1845.0,1843.0
3449,-2,1856,0,3438.0,3445.0,-11.0,-19.0,1847.0,1845.0
3478,16,1870,0,3449.0,3438.0,-2.0,-11.0,1856.0,1847.0
3518,37,1889,0,3478.0,3449.0,16.0,-2.0,1870.0,1856.0
3555,56,1895,0,3518.0,3478.0,37.0,16.0,1889.0,1870.0
3593,64,1891,0,3555.0,3518.0,56.0,37.0,1895.0,1889.0
3623,66,1885,0,3593.0,3555.0,64.0,56.0,1891.0,1895.0
3644,66,1882,0,3623.0,3593.0,66.0,64.0,1885.0,1891.0
3660,70,1877,0,3644.0,3623.0,66.0,66.0,1882.0,1885.0
3672,68,1870,0,3660.0,3644.0,70.0,66.0,1877.0,1882.0
3682,68,1867,0,3672.0,3660.0,68.0,70.0,1870.0,1877.0
3692,67,1866,0,3682.0,3672.0,68.0,68.0,1867.0,1870.0
3706,61,1861,0,3692.0,3682.0,67.0,68.0,1866.0,1867.0
3711,50,1865,0,3706.0,3692.0,61.0,67.0,1861.0,1866.0
3714,37,1859,0,3711.0,3706.0,50.0,61.0,1865.0,1861.0
3708,23,1854,0,3714.0,3711.0,37.0,50.0,1859.0,1865.0
3705,8,1858,0,3708.0,3714.0,23.0,37.0,1854.0,1859.0
3708,-8,1862,0,3705.0,3708.0,8.0,23.0,1858.0,1854.0
3706,-32,1861,0,3708.0,3705.0,-8.0,8.0,1862.0,1858.0
3696,-49,1866,0,3706.0,3708.0,-32.0,-8.0,1861.0,1862.0
3684,-59,1868,0,3696.0,3706.0,-49.0,-32.0,1866.0,1861.0
3670,-66,1882,0,3684.0,3696.0,-59.0,-49.0,1868.0,1866.0
3663,-82,1913,0,3670.0,3684.0,-66.0,-59.0,1882.0,1868.0
3664,-92,1952,0,3663.0,3670.0,-82.0,-66.0,1913.0,1882.0
3672,-98,1996,0,3664.0,3663.0,-92.0,-82.0,1952.0,1913.0
3682,-109,2027,0,3672.0,3664.0,-98.0,-92.0,1996.0,1952.0
3695,-128,2063,0,3682.0,3672.0,-109.0,-98.0,2027.0,1996.0
3698,-148,2082,0,3695.0,3682.0,-128.0,-109.0,2063.0,2027.0
3700,-169,2091,0,3698.0,3695.0,-148.0,-128.0,2082.0,2063.0
3685,-181,2078,0,3700.0,3698.0,-169.0,-148.0,2091.0,2082.0
3670,-180,2048,0,3685.0,3700.0,-181.0,-169.0,2078.0,2091.0
3661,-189,2013,0,3670.0,3685.0,-180.0,-181.0,2048.0,2078.0
3643,-197,1958,0,3661.0,3670.0,-189.0,-180.0,2013.0,2048.0
3628,-195,1890,0,3643.0,3661.0,-197.0,-189.0,1958.0,2013.0
3624,-201,1823,0,3628.0,3643.0,-195.0,-197.0,1890.0,1958.0
3615,-200,1770,0,3624.0,3628.0,-201.0,-195.0,1823.0,1890.0
3616,-197,1727,0,3615.0,3624.0,-200.0,-201.0,1770.0,1823.0
3615,-193,1699,0,3616.0,3615.0,-197.0,-200.0,1727.0,1770.0
3609,-196,1680,0,3615.0,3616.0,-193.0,-197.0,1699.0,1727.0
3608,-192,1662,0,3609.0,3615.0,-196.0,-193.0,1680.0,1699.0
3601,-181,1648,0,3608.0,3609.0,-192.0,-196.0,1662.0,1680.0
3601,-177,1635,0,3601.0,3608.0,-181.0,-192.0,1648.0,1662.0
3607,-178,1618,0,3601.0,3601.0,-177.0,-181.0,1635.0,1648.0
3616,-166,1598,0,3607.0,3601.0,-178.0,-177.0,1618.0,1635.0
3638,-167,1578,0,3616.0,3607.0,-166.0,-178.0,1598.0,1618.0
3662,-184,1568,0,3638.0,3616.0,-167.0,-166.0,1578.0,1598.0
3681,-192,1561,0,3662.0,3638.0,-184.0,-167.0,1568.0,1578.0
3698,-199,1568,0,3681.0,3662.0,-192.0,-184.0,1561.0,1568.0
3717,-208,1574,0,3698.0,3681.0,-199.0,-192.0,1568.0,1561.0
3729,-204,1583,0,3717.0,3698.0,-208.0,-199.0,1574.0,1568.0
3736,-199,1579,0,3729.0,3717.0,-204.0,-208.0,1583.0,1574.0
3746,-203,1565,0,3736.0,3729.0,-199.0,-204.0,1579.0,1583.0
3758,-215,1540,0,3746.0,3736.0,-203.0,-199.0,1565.0,1579.0
3762,-226,1506,0,3758.0,3746.0,-215.0,-203.0,1540.0,1565.0
3762,-245,1466,0,3762.0,3758.0,-226.0,-215.0,1506.0,1540.0
3761,-265,1414,0,3762.0,3762.0,-245.0,-226.0,1466.0,1506.0
3761,-288,1360,0,3761.0,3762.0,-265.0,-245.0,1414.0,1466.0
3761,-301,1310,0,3761.0,3761.0,-288.0,-265.0,1360.0,1414.0
3769,-316,1269,0,3761.0,3761.0,-301.0,-288.0,1310.0,1360.0
3787,-334,1239,0,3769.0,3761.0,-316.0,-301.0,1269.0,1310.0
3804,-351,1219,0,3787.0,3769.0,-334.0,-316.0,1239.0,1269.0
3820,-358,1199,0,3804.0,3787.0,-351.0,-334.0,1219.0,1239.0
3836,-364,1177,0,3820.0,3804.0,-358.0,-351.0,1199.0,1219.0
3854,-367,1150,0,3836.0,3820.0,-364.0,-358.0,1177.0,1199.0
3868,-372,1120,0,3854.0,3836.0,-367.0,-364.0,1150.0,1177.0
3887,-392,1093,0,3868.0,3854.0,-372.0,-367.0,1120.0,1150.0
3903,-425,1065,0,3887.0,3868.0,-392.0,-372.0,1093.0,1120.0
3926,-463,1034,0,3903.0,3887.0,-425.0,-392.0,1065.0,1093.0
3948,-498,1004,0,3926.0,3903.0,-463.0,-425.0,1034.0,1065.0
3967,-523,979,0,3948.0,3926.0,-498.0,-463.0,1004.0,1034.0
3983,-552,958,0,3967.0,3948.0,-523.0,-498.0,979.0,1004.0
3996,-568,946,0,3983.0,3967.0,-552.0,-523.0,958.0,979.0
4001,-575,945,0,3996.0,3983.0,-568.0,-552.0,946.0,958.0
4005,-577,950,0,4001.0,3996.0,-575.0,-568.0,945.0,946.0
4005,-575,958,0,4005.0,4001.0,-577.0,-575.0,950.0,945.0
4005,-569,970,0,4005.0,4005.0,-575.0,-577.0,958.0,950.0
4001,-564,985,0,4005.0,4005.0,-569.0,-575.0,970.0,958.0
4002,-569,1002,0,4001.0,4005.0,-564.0,-569.0,985.0,970.0
4005,-584,1021,0,4002.0,4001.0,-569.0,-564.0,1002.0,985.0
4008,-595,1041,0,4005.0,4002.0,-584.0,-569.0,1021.0,1002.0
4010,-607,1053,0,4008.0,4005.0,-595.0,-584.0,1041.0,1021.0
4021,-635,1061,0,4010.0,4008.0,-607.0,-595.0,1053.0,1041.0
4043,-661,1060,0,4021.0,4010.0,-635.0,-607.0,1061.0,1053.0
4061,-685,1058,0,4043.0,4021.0,-661.0,-635.0,1060.0,1061.0
4076,-693,1061,0,4061.0,4043.0,-685.0,-661.0,1058.0,1060.0
4090,-703,1054,0,4076.0,4061.0,-693.0,-685.0,1061.0,1058.0
4099,-719,1045,0,4090.0,4076.0,-703.0,-693.0,1054.0,1061.0
4126,-736,1033,0,4099.0,4090.0,-719.0,-703.0,1045.0,1054.0
4150,-754,1014,0,4126.0,4099.0,-736.0,-719.0,1033.0,1045.0
4180,-770,994,0,4150.0,4126.0,-754.0,-736.0,1014.0,1033.0
4210,-790,962,0,4180.0,4150.0,-770.0,-754.0,994.0,1014.0
4244,-809,931,0,4210.0,4180.0,-790.0,-770.0,962.0,994.0
4271,-835,893,0,4244.0,4210.0,-809.0,-790.0,931.0,962.0
4304,-868,845,0,4271.0,4244.0,-835.0,-809.0,893.0,931.0
4336,-895,788,0,4304.0,4271.0,-868.0,-835.0,845.0,893.0
4367,-912,739,0,4336.0,4304.0,-895.0,-868.0,788.0,845.0
4390,-918,700,0,4367.0,4336.0,-912.0,-895.0,739.0,788.0
4406,-912,660,0,4390.0,4367.0,-918.0,-912.0,700.0,739.0
4415,-897,633,0,4406.0,4390.0,-912.0,-918.0,660.0,700.0
4414,-877,614,0,4415.0,4406.0,-897.0,-912.0,633.0,660.0
4403,-852,604,0,4414.0,4415.0,-877.0,-897.0,614.0,633.0
4383,-816,603,0,4403.0,4414.0,-852.0,-877.0,604.0,614.0
4363,-780,600,0,4383.0,4403.0,-816.0,-852.0,603.0,604.0
4338,-737,605,0,4363.0,4383.0,-780.0,-816.0,600.0,603.0
4303,-703,612,0,4338.0,4363.0,-737.0,-780.0,605.0,600.0
4261,-674,628,0,4303.0,4338.0,-703.0,-737.0,612.0,605.0
4213,-642,646,0,4261.0,4303.0,-674.0,-703.0,628.0,612.0
4167,-614,668,0,4213.0,4261.0,-642.0,-674.0,646.0,628.0
4125,-586,683,0,4167.0,4213.0,-614.0,-642.0,668.0,646.0
4080,-559,698,0,4125.0,4167.0,-586.0,-614.0,683.0,668.0
4043,-546,711,0,4080.0,4125.0,-559.0,-586.0,698.0,683.0
3998,-537,717,0,4043.0,4080.0,-546.0,-559.0,711.0,698.0
3960,-524,727,0,3998.0,4043.0,-537.0,-546.0,717.0,711.0
3927,-509,737,0,3960.0,3998.0,-524.0,-537.0,727.0,717.0
3894,-492,737,0,3927.0,3960.0,-509.0,-524.0,737.0,727.0
3865,-481,734,0,3894.0,3927.0,-492.0,-509.0,737.0,737.0
3843,-472,729,0,3865.0,3894.0,-481.0,-492.0,734.0,737.0
3828,-459,729,0,3843.0,3865.0,-472.0,-481.0,729.0,734.0
3823,-445,724,0,3828.0,3843.0,-459.0,-472.0,729.0,729.0
3817,-430,719,0,3823.0,3828.0,-445.0,-459.0,724.0,729.0
3812,-420,728,0,3817.0,3823.0,-430.0,-445.0,719.0,724.0
3826,-444,730,0,3812.0,3817.0,-420.0,-430.0,728.0,719.0
3846,-453,706,0,3826.0,3812.0,-444.0,-420.0,730.0,728.0
3859,-455,690,0,3846.0,3826.0,-453.0,-444.0,706.0,730.0
3862,-447,688,0,3859.0,3846.0,-455.0,-453.0,690.0,706.0
3869,-437,684,0,3862.0,3859.0,-447.0,-455.0,688.0,690.0
3880,-441,687,0,3869.0,3862.0,-437.0,-447.0,684.0,688.0
3890,-451,690,0,3880.0,3869.0,-441.0,-437.0,687.0,684.0
3905,-467,700,0,3890.0,3880.0,-451.0,-441.0,690.0,687.0
3923,-485,708,0,3905.0,3890.0,-467.0,-451.0,700.0,690.0
3935,-501,716,0,3923.0,3905.0,-485.0,-467.0,708.0,700.0
3949,-519,736,0,3935.0,3923.0,-501.0,-485.0,716.0,708.0
3952,-532,752,0,3949.0,3935.0,-519.0,-501.0,736.0,716.0
3954,-542,767,0,3952.0,3949.0,-532.0,-519.0,752.0,736.0
3958,-559,777,0,3954.0,3952.0,-542.0,-532.0,767.0,752.0
3955,-575,784,0,3958.0,3954.0,-559.0,-542.0,777.0,767.0
3953,-597,791,0,3955.0,3958.0,-575.0,-559.0,784.0,777.0
3952,-617,802,0,3953.0,3955.0,-597.0,-575.0,791.0,784.0
3943,-636,816,0,3952.0,3953.0,-617.0,-597.0,802.0,791.0
3932,-651,834,0,3943.0,3952.0,-636.0,-617.0,816.0,802.0
3935,-668,842,0,3932.0,3943.0,-651.0,-636.0,834.0,816.0
3931,-684,850,0,3935.0,3932.0,-668.0,-651.0,842.0,834.0
3928,-691,857,0,3931.0,3935.0,-684.0,-668.0,850.0,842.0
3926,-689,870,0,3928.0,3931.0,-691.0,-684.0,857.0,850.0
3927,-686,887,0,3926.0,3928.0,-689.0,-691.0,870.0,857.0
3929,-685,911,0,3927.0,3926.0,-686.0,-689.0,887.0,870.0
3929,-685,936,0,3929.0,3927.0,-685.0,-686.0,911.0,887.0
3931,-685,954,0,3929.0,3929.0,-685.0,-685.0,936.0,911.0
3936,-693,985,0,3931.0,3929.0,-685.0,-685.0,954.0,936.0
3941,-707,1017,0,3936.0,3931.0,-693.0,-685.0,985.0,954.0
3944,-718,1052,0,3941.0,3936.0,-707.0,-693.0,1017.0,985.0
3945,-728,1076,0,3944.0,3941.0,-718.0,-707.0,1052.0,1017.0
3948,-732,1101,0,3945.0,3944.0,-728.0,-718.0,1076.0,1052.0
3950,-742,1121,0,3948.0,3945.0,-732.0,-728.0,1101.0,1076.0
3952,-754,1138,0,3950.0,3948.0,-742.0,-732.0,1121.0,1101.0
3951,-765,1158,0,3952.0,3950.0,-754.0,-742.0,1138.0,1121.0
3949,-762,1191,0,3951.0,3952.0,-765.0,-754.0,1158.0,1138.0
3948,-759,1222,0,3949.0,3951.0,-762.0,-765.0,1191.0,1158.0
3944,-755,1255,0,3948.0,3949.0,-759.0,-762.0,1222.0,1191.0
3938,-749,1286,0,3944.0,3948.0,-755.0,-759.0,1255.0,1222.0
3926,-745,1317,0,3938.0,3944.0,-749.0,-755.0,1286.0,1255.0
3913,-738,1360,0,3926.0,3938.0,-745.0,-749.0,1317.0,1286.0
3898,-736,1405,0,3913.0,3926.0,-738.0,-745.0,1360.0,1317.0
3880,-744,1445,0,3898.0,3913.0,-736.0,-738.0,1405.0,1360.0
3863,-753,1485,0,3880.0,3898.0,-744.0,-736.0,1445.0,1405.0
3844,-764,1524,0,3863.0,3880.0,-753.0,-744.0,1485.0,1445.0
3817,-776,1555,0,3844.0,3863.0,-764.0,-753.0,1524.0,1485.0
3789,-794,1577,0,3817.0,3844.0,-776.0,-764.0,1555.0,1524.0
3765,-813,1588,0,3789.0,3817.0,-794.0,-776.0,1577.0,1555.0
3746,-833,1596,0,3765.0,3789.0,-813.0,-794.0,1588.0,1577.0
3729,-848,1599,0,3746.0,3765.0,-833.0,-813.0,1596.0,1588.0
3718,-865,1608,0,3729.0,3746.0,-848.0,-833.0,1599.0,1596.0
3713,-878,1616,0,3718.0,3729.0,-865.0,-848.0,1608.0,1599.0
3712,-893,1620,0,3713.0,3718.0,-878.0,-865.0,1616.0,1608.0
3708,-900,1623,0,3712.0,3713.0,-893.0,-878.0,1620.0,1616.0
3702,-905,1630,0,3708.0,3712.0,-900.0,-893.0,1623.0,1620.0
3696,-905,1631,0,3702.0,3708.0,-905.0,-900.0,1630.0,1623.0
3689,-901,1632,0,3696.0,3702.0,-905.0,-905.0,1631.0,1630.0
3678,-890,1639,0,3689.0,3696.0,-901.0,-905.0,1632.0,1631.0
3668,-888,1653,0,3678.0,3689.0,-890.0,-901.0,1639.0,1632.0
3660,-891,1668,0,3668.0,3678.0,-888.0,-890.0,1653.0,1639.0
3647,-895,1676,0,3660.0,3668.0,-891.0,-888.0,1668.0,1653.0
3634,-899,1684,0,3647.0,3660.0,-895.0,-891.0,1676.0,1668.0
3627,-920,1682,0,3634.0,3647.0,-899.0,-895.0,1684.0,1676.0
3623,-942,1676,0,3627.0,3634.0,-920.0,-899.0,1682.0,1684.0
3619,-970,1662,0,3623.0,3627.0,-942.0,-920.0,1676.0,1682.0
3624,-994,1661,0,3619.0,3623.0,-970.0,-942.0,1662.0,1676.0
3631,-1019,1656,0,3624.0,3619.0,-994.0,-970.0,1661.0,1662.0
3637,-1035,1650,0,3631.0,3624.0,-1019.0,-994.0,1656.0,1661.0
3640,-1039,1646,0,3637.0,3631.0,-1035.0,-1019.0,1650.0,1656.0
3634,-1036,1646,0,3640.0,3637.0,-1039.0,-1035.0,1646.0,1650.0
3644,-1023,1650,0,3634.0,3640.0,-1036.0,-1039.0,1646.0,1646.0
3653,-1022,1660,0,3644.0,3634.0,-1023.0,-1036.0,1650.0,1646.0
3657,-1018,1668,0,3653.0,3644.0,-1022.0,-1023.0,1660.0,1650.0
3660,-1010,1670,0,3657.0,3653.0,-1018.0,-1022.0,1668.0,1660.0
3648,-998,1668,0,3660.0,3657.0,-1010.0,-1018.0,1670.0,1668.0
3637,-994,1671,0,3648.0,3660.0,-998.0,-1010.0,1668.0,1670.0
3631,-992,1680,0,3637.0,3648.0,-994.0,-998.0,1671.0,1668.0
3617,-972,1690,0,3631.0,3637.0,-992.0,-994.0,1680.0,1671.0
3608,-954,1705,0,3617.0,3631.0,-972.0,-992.0,1690.0,1680.0
3590,-931,1708,0,3608.0,3617.0,-954.0,-972.0,1705.0,1690.0
3584,-932,1709,0,3590.0,3608.0,-931.0,-954.0,1708.0,1705.0
3583,-937,1695,0,3584.0,3590.0,-932.0,-931.0,1709.0,1708.0
3583,-937,1683,0,3583.0,3584.0,-937.0,-932.0,1695.0,1709.0
3600,-942,1683,0,3583.0,3583.0,-937.0,-937.0,1683.0,1695.0
3614,-944,1673,0,3600.0,3583.0,-942.0,-937.0,1683.0,1683.0
3634,-942,1659,0,3614.0,3600.0,-944.0,-942.0,1673.0,1683.0
3651,-928,1647,0,3634.0,3614.0,-942.0,-944.0,1659.0,1673.0
3670,-918,1636,0,3651.0,3634.0,-928.0,-942.0,1647.0,1659.0
3690,-910,1633,0,3670.0,3651.0,-918.0,-928.0,1636.0,1647.0
3708,-897,1628,0,3690.0,3670.0,-910.0,-918.0,1633.0,1636.0
3728,-887,1620,0,3708.0,3690.0,-897.0,-910.0,1628.0,1633.0
3735,-880,1614,0,3728.0,3708.0,-887.0,-897.0,1620.0,1628.0
3746,-875,1607,0,3735.0,3728.0,-880.0,-887.0,1614.0,1620.0
3760,-880,1613,0,3746.0,3735.0,-875.0,-880.0,1607.0,1614.0
3780,-893,1621,0,3760.0,3746.0,-880.0,-875.0,1613.0,1607.0
3803,-904,1634,0,3780.0,3760.0,-893.0,-880.0,1621.0,1613.0
3828,-916,1649,0,3803.0,3780.0,-904.0,-893.0,1634.0,1621.0
3842,-916,1667,0,3828.0,3803.0,-916.0,-904.0,1649.0,1634.0
3850,-917,1685,0,3842.0,3828.0,-916.0,-916.0,1667.0,1649.0
3855,-920,1686,0,3850.0,3842.0,-917.0,-916.0,1685.0,1667.0
3858,-920,1689,0,3855.0,3850.0,-920.0,-917.0,1686.0,1685.0
3851,-922,1678,0,3858.0,3855.0,-920.0,-920.0,1689.0,1686.0
3833,-929,1663,0,3851.0,3858.0,-922.0,-920.0,1678.0,1689.0
3815,-935,1649,0,3833.0,3851.0,-929.0,-922.0,1663.0,1678.0
3790,-936,1631,0,3815.0,3833.0,-935.0,-929.0,1649.0,1663.0
3761,-941,1613,0,3790.0,3815.0,-936.0,-935.0,1631.0,1649.0
3725,-933,1597,0,3761.0,3790.0,-941.0,-936.0,1613.0,1631.0
3686,-931,1584,0,3725.0,3761.0,-933.0,-941.0,1597.0,1613.0
3653,-925,1583,0,3686.0,3725.0,-931.0,-933.0,1584.0,1597.0
3618,-908,1585,0,3653.0,3686.0,-925.0,-931.0,1583.0,1584.0
3587,-895,1593,0,3618.0,3653.0,-908.0,-925.0,1585.0,1583.0
3560,-886,1603,0,3587.0,3618.0,-895.0,-908.0,1593.0,1585.0
3543,-866,1610,0,3560.0,3587.0,-886.0,-895.0,1603.0,1593.0
3522,-850,1617,0,3543.0,3560.0,-866.0,-886.0,1610.0,1603.0
3509,-834,1627,0,3522.0,3543.0,-850.0,-866.0,1617.0,1610.0
3505,-821,1632,0,3509.0,3522.0,-834.0,-850.0,1627.0,1617.0
3507,-812,1640,0,3505.0,3509.0,-821.0,-834.0,1632.0,1627.0
3517,-804,1651,0,3507.0,3505.0,-812.0,-821.0,1640.0,1632.0
3528,-790,1659,0,3517.0,3507.0,-804.0,-812.0,1651.0,1640.0
3543,-768,1662,0,3528.0,3517.0,-790.0,-804.0,1659.0,1651.0
3553,-740,1669,0,3543.0,3528.0,-768.0,-790.0,1662.0,1659.0
3561,-722,1673,0,3553.0,3543.0,-740.0,-768.0,1669.0,1662.0
3563,-699,1673,0,3561.0,3553.0,-722.0,-740.0,1673.0,1669.0
3564,-666,1695,0,3563.0,3561.0,-699.0,-722.0,1673.0,1673.0
3569,-631,1714,0,3564.0,3563.0,-666.0,-699.0,1695.0,1673.0
3563,-597,1714,0,3569.0,3564.0,-631.0,-666.0,1714.0,1695.0
3561,-575,1714,0,3563.0,3569.0,-597.0,-631.0,1714.0,1714.0
3563,-554,1709,0,3561.0,3563.0,-575.0,-597.0,1714.0,1714.0
3568,-546,1708,0,3563.0,3561.0,-554.0,-575.0,1709.0,1714.0
3576,-541,1708,0,3568.0,3563.0,-546.0,-554.0,1708.0,1709.0
3585,-532,1699,0,3576.0,3568.0,-541.0,-546.0,1708.0,1708.0
3595,-515,1690,0,3585.0,3576.0,-532.0,-541.0,1699.0,1708.0
3605,-497,1694,0,3595.0,3585.0,-515.0,-532.0,1690.0,1699.0
3619,-470,1696,0,3605.0,3595.0,-497.0,-515.0,1694.0,1690.0
3632,-441,1701,0,3619.0,3605.0,-470.0,-497.0,1696.0,1694.0
3647,-413,1703,0,3632.0,3619.0,-441.0,-470.0,1701.0,1696.0
3658,-380,1709,0,3647.0,3632.0,-413.0,-441.0,1703.0,1701.0
3671,-355,1710,0,3658.0,3647.0,-380.0,-413.0,1709.0,1703.0
3678,-323,1714,0,3671.0,3658.0,-355.0,-380.0,1710.0,1709.0
3678,-291,1718,0,3678.0,3671.0,-323.0,-355.0,1714.0,1710.0
3682,-264,1724,0,3678.0,3678.0,-291.0,-323.0,1718.0,1714.0
3679,-246,1728,0,3682.0,3678.0,-264.0,-291.0,1724.0,1718.0
3674,-235,1727,0,3679.0,3682.0,-246.0,-264.0,1728.0,1724.0
3665,-227,1735,0,3674.0,3679.0,-235.0,-246.0,1727.0,1728.0
3649,-219,1734,0,3665.0,3674.0,-227.0,-235.0,1735.0,1727.0
3633,-213,1720,0,3649.0,3665.0,-219.0,-227.0,1734.0,1735.0
3617,-207,1710,0,3633.0,3649.0,-213.0,-219.0,1720.0,1734.0
3597,-208,1699,0,3617.0,3633.0,-207.0,-213.0,1710.0,1720.0
3580,-209,1685,0,3597.0,3617.0,-208.0,-207.0,1699.0,1710.0
3562,-208,1675,0,3580.0,3597.0,-209.0,-208.0,1685.0,1699.0
3550,-213,1671,0,3562.0,3580.0,-208.0,-209.0,1675.0,1685.0
3537,-213,1661,0,3550.0,3562.0,-213.0,-208.0,1671.0,1675.0
3529,-215,1659,0,3537.0,3550.0,-213.0,-213.0,1661.0,1671.0
3521,-224,1662,0,3529.0,3537.0,-215.0,-213.0,1659.0,1661.0
3517,-233,1666,0,3521.0,3529.0,-224.0,-215.0,1662.0,1659.0
3508,-248,1671,0,3517.0,3521.0,-233.0,-224.0,1666.0,1662.0
3499,-259,1682,0,3508.0,3517.0,-248.0,-233.0,1671.0,1666.0
3493,-266,1693,0,3499.0,3508.0,-259.0,-248.0,1682.0,1671.0
3488,-278,1702,0,3493.0,3499.0,-266.0,-259.0,1693.0,1682.0
3479,-293,1711,0,3488.0,3493.0,-278.0,-266.0,1702.0,1693.0
3470,-308,1709,0,3479.0,3488.0,-293.0,-278.0,1711.0,1702.0
3462,-326,1712,0,3470.0,3479.0,-308.0,-293.0,1709.0,1711.0
3462,-344,1725,0,3462.0,3470.0,-326.0,-308.0,1712.0,1709.0
3466,-365,1729,0,3462.0,3462.0,-344.0,-326.0,1725.0,1712.0
3468,-386,1730,0,3466.0,3462.0,-365.0,-344.0,1729.0,1725.0
3482,-412,1730,0,3468.0,3466.0,-386.0,-365.0,1730.0,1729.0
3492,-430,1731,0,3482.0,3468.0,-412.0,-386.0,1730.0,1730.0
3509,-449,1732,0,3492.0,3482.0,-430.0,-412.0,1731.0,1730.0
3524,-470,1735,0,3509.0,3492.0,-449.0,-430.0,1732.0,1731.0
3542,-491,1735,0,3524.0,3509.0,-470.0,-449.0,1735.0,1732.0
3558,-503,1738,0,3542.0,3524.0,-491.0,-470.0,1735.0,1735.0
3573,-518,1747,0,3558.0,3542.0,-503.0,-491.0,1738.0,1735.0
3586,-520,1751,0,3573.0,3558.0,-518.0,-503.0,1747.0,1738.0
3599,-525,1755,0,3586.0,3573.0,-520.0,-518.0,1751.0,1747.0
3617,-532,1766,0,3599.0,3586.0,-525.0,-520.0,1755.0,1751.0
3626,-539,1779,0,3617.0,3599.0,-532.0,-525.0,1766.0,1755.0
3638,-547,1794,0,3626.0,3617.0,-539.0,-532.0,1779.0,1766.0
3650,-559,1812,0,3638.0,3626.0,-547.0,-539.0,1794.0,1779.0
3656,-564,1833,0,3650.0,3638.0,-559.0,-547.0,1812.0,1794.0
3657,-568,1850,0,3656.0,3650.0,-564.0,-559.0,1833.0,1812.0
3657,-575,1862,0,3657.0,3656.0,-568.0,-564.0,1850.0,1833.0
3652,-587,1873,0,3657.0,3657.0,-575.0,-568.0,1862.0,1850.0
3645,-602,1885,0,3652.0,3657.0,-587.0,-575.0,1873.0,1862.0
3638,-615,1898,0,3645.0,3652.0,-602.0,-587.0,1885.0,1873.0
3627,-629,1908,0,3638.0,3645.0,-615.0,-602.0,1898.0,1885.0
3620,-650,1918,0,3627.0,3638.0,-629.0,-615.0,1908.0,1898.0
3608,-664,1927,0,3620.0,3627.0,-650.0,-629.0,1918.0,1908.0
3597,-679,1934,0,3608.0,3620.0,-664.0,-650.0,1927.0,1918.0
3582,-687,1939,0,3597.0,3608.0,-679.0,-664.0,1934.0,1927.0
3577,-696,1938,0,3582.0,3597.0,-687.0,-679.0,1939.0,1934.0
3567,-703,1934,0,3577.0,3582.0,-696.0,-687.0,1938.0,1939.0
3558,-709,1931,0,3567.0,3577.0,-703.0,-696.0,1934.0,1938.0
3554,-713,1930,0,3558.0,3567.0,-709.0,-703.0,1931.0,1934.0
3548,-718,1934,0,3554.0,3558.0,-713.0,-709.0,1930.0,1931.0
3539,-718,1940,0,3548.0,3554.0,-718.0,-713.0,1934.0,1930.0
3539,-720,1943,0,3539.0,3548.0,-718.0,-718.0,1940.0,1934.0
3538,-722,1940,0,3539.0,3539.0,-720.0,-718.0,1943.0,1940.0
3539,-722,1934,0,3538.0,3539.0,-722.0,-720.0,1940.0,1943.0
3541,-718,1928,0,3539.0,3538.0,-722.0,-722.0,1934.0,1940.0
3539,-719,1923,0,3541.0,3539.0,-718.0,-722.0,1928.0,1934.0
3540,-721,1912,0,3539.0,3541.0,-719.0,-718.0,1923.0,1928.0
3544,-723,1899,0,3540.0,3539.0,-721.0,-719.0,1912.0,1923.0
3550,-723,1887,0,3544.0,3540.0,-723.0,-721.0,1899.0,1912.0
3557,-728,1883,0,3550.0,3544.0,-723.0,-723.0,1887.0,1899.0
3568,-732,1876,0,3557.0,3550.0,-728.0,-723.0,1883.0,1887.0
3577,-736,1872,0,3568.0,3557.0,-732.0,-728.0,1876.0,1883.0
3585,-743,1873,0,3577.0,3568.0,-736.0,-732.0,1872.0,1876.0
3585,-752,1874,0,3585.0,3577.0,-743.0,-736.0,1873.0,1872.0
3576,-759,1866,0,3585.0,3585.0,-752.0,-743.0,1874.0,1873.0
3572,-773,1863,0,3576.0,3585.0,-759.0,-752.0,1866.0,1874.0
3564,-784,1852,0,3572.0,3576.0,-773.0,-759.0,1863.0,1866.0
3558,-799,1839,0,3564.0,3572.0,-784.0,-773.0,1852.0,1863.0
3556,-813,1829,0,3558.0,3564.0,-799.0,-784.0,1839.0,1852.0
3557,-820,1814,0,3556.0,3558.0,-813.0,-799.0,1829.0,1839.0
3555,-827,1800,0,3557.0,3556.0,-820.0,-813.0,1814.0,1829.0
3556,-833,1786,0,3555.0,3557.0,-827.0,-820.0,1800.0,1814.0
3557,-838,1776,0,3556.0,3555.0,-833.0,-827.0,1786.0,1800.0
3562,-842,1769,0,3557.0,3556.0,-838.0,-833.0,1776.0,1786.0
3576,-848,1761,0,3562.0,3557.0,-842.0,-838.0,1769.0,1776.0
3589,-853,1752,0,3576.0,3562.0,-848.0,-842.0,1761.0,1769.0
3597,-862,1740,0,3589.0,3576.0,-853.0,-848.0,1752.0,1761.0
3607,-860,1736,0,3597.0,3589.0,-862.0,-853.0,1740.0,1752.0
3615,-854,1728,0,3607.0,3597.0,-860.0,-862.0,1736.0,1740.0
3621,-851,1716,0,3615.0,3607.0,-854.0,-860.0,1728.0,1736.0
3625,-848,1710,0,3621.0,3615.0,-851.0,-854.0,1716.0,1728.0
3632,-845,1708,0,3625.0,3621.0,-848.0,-851.0,1710.0,1716.0
3637,-837,1706,0,3632.0,3625.0,-845.0,-848.0,1708.0,1710.0
3641,-826,1701,0,3637.0,3632.0,-837.0,-845.0,1706.0,1708.0
3644,-810,1694,0,3641.0,3637.0,-826.0,-837.0,1701.0,1706.0
3646,-798,1694,0,3644.0,3641.0,-810.0,-826.0,1694.0,1701.0
3648,-788,1699,0,3646.0,3644.0,-798.0,-810.0,1694.0,1694.0
3648,-774,1705,0,3648.0,3646.0,-788.0,-798.0,1699.0,1694.0
3657,-761,1714,0,3648.0,3648.0,-774.0,-788.0,1705.0,1699.0
3657,-742,1722,0,3657.0,3648.0,-761.0,-774.0,1714.0,1705.0
3656,-733,1721,0,3657.0,3657.0,-742.0,-761.0,1722.0,1714.0
3655,-732,1724,0,3656.0,3657.0,-733.0,-742.0,1721.0,1722.0
3652,-728,1723,0,3655.0,3656.0,-732.0,-733.0,1724.0,1721.0
3648,-717,1723,0,3652.0,3655.0,-728.0,-732.0,1723.0,1724.0
3636,-705,1723,0,3648.0,3652.0,-717.0,-728.0,1723.0,1723.0
3630,-695,1723,0,3636.0,3648.0,-705.0,-717.0,1723.0,1723.0
3624,-691,1715,0,3630.0,3636.0,-695.0,-705.0,1723.0,1723.0
3623,-696,1712,0,3624.0,3630.0,-691.0,-695.0,1715.0,1723.0
3620,-702,1710,0,3623.0,3624.0,-696.0,-691.0,1712.0,1715.0
3617,-710,1711,0,3620.0,3623.0,-702.0,-696.0,1710.0,1712.0
3620,-723,1712,0,3617.0,3620.0,-710.0,-702.0,1711.0,1710.0
3622,-732,1715,0,3620.0,3617.0,-723.0,-710.0,1712.0,1711.0
3622,-738,1717,0,3622.0,3620.0,-732.0,-723.0,1715.0,1712.0
3620,-745,1726,0,3622.0,3622.0,-738.0,-732.0,1717.0,1715.0
3621,-758,1731,0,3620.0,3622.0,-745.0,-738.0,1726.0,1717.0
3614,-768,1729,0,3621.0,3620.0,-758.0,-745.0,1731.0,1726.0
3611,-779,1729,0,3614.0,3621.0,-768.0,-758.0,1729.0,1731.0
3607,-793,1729,0,3611.0,3614.0,-779.0,-768.0,1729.0,1729.0
3603,-801,1729,0,3607.0,3611.0,-793.0,-779.0,1729.0,1729.0
3597,-813,1729,0,3603.0,3607.0,-801.0,-793.0,1729.0,1729.0
3596,-831,1723,0,3597.0,3603.0,-813.0,-801.0,1729.0,1729.0
3593,-843,1717,0,3596.0,3597.0,-831.0,-813.0,1723.0,1729.0
3586,-854,1706,0,3593.0,3596.0,-843.0,-831.0,1717.0,1723.0
3589,-862,1698,0,3586.0,3593.0,-854.0,-843.0,1706.0,1717.0
3588,-866,1697,0,3589.0,3586.0,-862.0,-854.0,1698.0,1706.0
3591,-873,1691,0,3588.0,3589.0,-866.0,-862.0,1697.0,1698.0
3596,-875,1687,0,3591.0,3588.0,-873.0,-866.0,1691.0,1697.0
3605,-876,1685,0,3596.0,3591.0,-875.0,-873.0,1687.0,1691.0
3608,-872,1682,0,3605.0,3596.0,-876.0,-875.0,1685.0,1687.0
3612,-873,1677,0,3608.0,3605.0,-872.0,-876.0,1682.0,1685.0
3615,-874,1673,0,3612.0,3608.0,-873.0,-872.0,1677.0,1682.0
3613,-874,1669,0,3615.0,3612.0,-874.0,-873.0,1673.0,1677.0
3614,-881,1667,0,3613.0,3615.0,-874.0,-874.0,1669.0,1673.0
3614,-887,1657,0,3614.0,3613.0,-881.0,-874.0,1667.0,1669.0
3620,-891,1645,0,3614.0,3614.0,-887.0,-881.0,1657.0,1667.0
3616,-892,1640,0,3620.0,3614.0,-891.0,-887.0,1645.0,1657.0
3603,-886,1634,0,3616.0,3620.0,-892.0,-891.0,1640.0,1645.0
3613,-904,1624,0,3603.0,3616.0,-886.0,-892.0,1634.0,1640.0
3631,-918,1616,0,3613.0,3603.0,-904.0,-886.0,1624.0,1634.0
3644,-916,1611,0,3631.0,3613.0,-918.0,-904.0,1616.0,1624.0
3653,-914,1597,0,3644.0,3631.0,-916.0,-918.0,1611.0,1616.0
3661,-911,1588,0,3653.0,3644.0,-914.0,-916.0,1597.0,1611.0
3672,-912,1575,0,3661.0,3653.0,-911.0,-914.0,1588.0,1597.0
3679,-914,1567,0,3672.0,3661.0,-912.0,-911.0,1575.0,1588.0
3682,-915,1562,0,3679.0,3672.0,-914.0,-912.0,1567.0,1575.0
3683,-918,1552,0,3682.0,3679.0,-915.0,-914.0,1562.0,1567.0
3690,-919,1541,0,3683.0,3682.0,-918.0,-915.0,1552.0,1562.0
3694,-918,1534,0,3690.0,3683.0,-919.0,-918.0,1541.0,1552.0
3696,-923,1530,0,3694.0,3690.0,-918.0,-919.0,1534.0,1541.0
3700,-927,1525,0,3696.0,3694.0,-923.0,-918.0,1530.0,1534.0
3702,-928,1522,0,3700.0,3696.0,-927.0,-923.0,1525.0,1530.0
3704,-927,1522,0,3702.0,3700.0,-928.0,-927.0,1522.0,1525.0
3684,-912,1527,0,3704.0,3702.0,-927.0,-928.0,1522.0,1522.0
3691,-926,1522,0,3684.0,3704.0,-912.0,-927.0,1527.0,1522.0
3705,-951,1518,0,3691.0,3684.0,-926.0,-912.0,1522.0,1527.0
3712,-959,1508,0,3705.0,3691.0,-951.0,-926.0,1518.0,1522.0
3714,-958,1503,0,3712.0,3705.0,-959.0,-951.0,1508.0,1518.0
3715,-956,1503,0,3714.0,3712.0,-958.0,-959.0,1503.0,1508.0
3717,-953,1503,0,3715.0,3714.0,-956.0,-958.0,1503.0,1503.0
3717,-949,1505,0,3717.0,3715.0,-953.0,-956.0,1503.0,1503.0
3712,-947,1505,0,3717.0,3717.0,-949.0,-953.0,1505.0,1503.0
3707,-943,1505,0,3712.0,3717.0,-947.0,-949.0,1505.0,1505.0
3701,-936,1501,0,3707.0,3712.0,-943.0,-947.0,1505.0,1505.0
3697,-933,1499,0,3701.0,3707.0,-936.0,-943.0,1501.0,1505.0
3697,-933,1502,0,3697.0,3701.0,-933.0,-936.0,1499.0,1501.0
3694,-935,1507,0,3697.0,3697.0,-933.0,-933.0,1502.0,1499.0
3678,-920,1516,0,3694.0,3697.0,-935.0,-933.0,1507.0,1502.0
3685,-935,1513,0,3678.0,3694.0,-920.0,-935.0,1516.0,1507.0
3700,-947,1513,0,3685.0,3678.0,-935.0,-920.0,1513.0,1516.0
3711,-944,1505,0,3700.0,3685.0,-947.0,-935.0,1513.0,1513.0
3720,-938,1500,0,3711.0,3700.0,-944.0,-947.0,1505.0,1513.0
3727,-927,1495,0,3720.0,3711.0,-938.0,-944.0,1500.0,1505.0
3735,-921,1491,0,3727.0,3720.0,-927.0,-938.0,1495.0,1500.0
3744,-913,1494,0,3735.0,3727.0,-921.0,-927.0,1491.0,1495.0
3742,-907,1498,0,3744.0,3735.0,-913.0,-921.0,1494.0,1491.0
3744,-900,1503,0,3742.0,3744.0,-907.0,-913.0,1498.0,1494.0
3742,-895,1506,0,3744.0,3742.0,-900.0,-907.0,1503.0,1498.0
3741,-890,1510,0,3742.0,3744.0,-895.0,-900.0,1506.0,1503.0
3735,-885,1512,0,3741.0,3742.0,-890.0,-895.0,1510.0,1506.0
3731,-878,1513,0,3735.0,3741.0,-885.0,-890.0,1512.0,1510.0
3729,-875,1515,0,3731.0,3735.0,-878.0,-885.0,1513.0,1512.0
3723,-869,1519,0,3729.0,3731.0,-875.0,-878.0,1515.0,1513.0
3720,-862,1523,0,3723.0,3729.0,-869.0,-875.0,1519.0,1515.0
3719,-855,1529,0,3720.0,3723.0,-862.0,-869.0,1523.0,1519.0
3720,-851,1532,0,3719.0,3720.0,-855.0,-862.0,1529.0,1523.0
3721,-850,1535,0,3720.0,3719.0,-851.0,-855.0,1532.0,1529.0
3723,-844,1538,0,3721.0,3720.0,-850.0,-851.0,1535.0,1532.0
3722,-835,1539,0,3723.0,3721.0,-844.0,-850.0,1538.0,1535.0
3727,-832,1539,0,3722.0,3723.0,-835.0,-844.0,1539.0,1538.0
3729,-828,1542,0,3727.0,3722.0,-832.0,-835.0,1539.0,1539.0
3730,-824,1542,0,3729.0,3727.0,-828.0,-832.0,1542.0,1539.0
3727,-821,1542,0,3730.0,3729.0,-824.0,-828.0,1542.0,1542.0
3726,-822,1543,0,3727.0,3730.0,-821.0,-824.0,1542.0,1542.0
3724,-821,1544,0,3726.0,3727.0,-822.0,-821.0,1543.0,1542.0
3724,-820,1546,0,3724.0,3726.0,-821.0,-822.0,1544.0,1543.0
3725,-821,1547,0,3724.0,3724.0,-820.0,-821.0,1546.0,1544.0
3724,-829,1547,0,3725.0,3724.0,-821.0,-820.0,1547.0,1546.0
3723,-834,1547,0,3724.0,3725.0,-829.0,-821.0,1547.0,1547.0
3722,-840,1548,0,3723.0,3724.0,-834.0,-829.0,1547.0,1547.0
3718,-847,1551,0,3722.0,3723.0,-840.0,-834.0,1548.0,1547.0
3712,-852,1552,0,3718.0,3722.0,-847.0,-840.0,1551.0,1548.0
3709,-860,1555,0,3712.0,3718.0,-852.0,-847.0,1552.0,1551.0
3702,-868,1552,0,3709.0,3712.0,-860.0,-852.0,1555.0,1552.0
3696,-871,1543,0,3702.0,3709.0,-868.0,-860.0,1552.0,1555.0
3692,-876,1539,0,3696.0,3702.0,-871.0,-868.0,1543.0,1552.0
3692,-879,1529,0,3692.0,3696.0,-876.0,-871.0,1539.0,1543.0
3691,-882,1525,0,3692.0,3692.0,-879.0,-876.0,1529.0,1539.0
3690,-883,1520,0,3691.0,3692.0,-882.0,-879.0,1525.0,1529.0
3687,-883,1518,0,3690.0,3691.0,-883.0,-882.0,1520.0,1525.0
3687,-884,1515,0,3687.0,3690.0,-883.0,-883.0,1518.0,1520.0
3683,-889,1511,0,3687.0,3687.0,-884.0,-883.0,1515.0,1518.0
3682,-888,1510,0,3683.0,3687.0,-889.0,-884.0,1511.0,1515.0
3679,-886,1506,0,3682.0,3683.0,-888.0,-889.0,1510.0,1511.0
3679,-883,1505,0,3679.0,3682.0,-886.0,-888.0,1506.0,1510.0
3672,-878,1507,0,3679.0,3679.0,-883.0,-886.0,1505.0,1506.0
3672,-878,1508,0,3672.0,3679.0,-878.0,-883.0,1507.0,1505.0
3678,-877,1508,0,3672.0,3672.0,-878.0,-878.0,1508.0,1507.0
3685,-871,1506,0,3678.0,3672.0,-877.0,-878.0,1508.0,1508.0
3689,-868,1507,0,3685.0,3678.0,-871.0,-877.0,1506.0,1508.0
3693,-873,1506,0,3689.0,3685.0,-868.0,-871.0,1507.0,1506.0
3702,-869,1503,0,3693.0,3689.0,-873.0,-868.0,1506.0,1507.0
3712,-867,1504,0,3702.0,3693.0,-869.0,-873.0,1503.0,1506.0
3719,-859,1503,0,3712.0,3702.0,-867.0,-869.0,1504.0,1503.0
3725,-854,1509,0,3719.0,3712.0,-859.0,-867.0,1503.0,1504.0
3724,-851,1510,0,3725.0,3719.0,-854.0,-859.0,1509.0,1503.0
3718,-844,1516,0,3724.0,3725.0,-851.0,-854.0,1510.0,1509.0
3708,-841,1522,0,3718.0,3724.0,-844.0,-851.0,1516.0,1510.0
3696,-840,1524,0,3708.0,3718.0,-841.0,-844.0,1522.0,1516.0
3682,-839,1527,0,3696.0,3708.0,-840.0,-841.0,1524.0,1522.0
3673,-841,1526,0,3682.0,3696.0,-839.0,-840.0,1527.0,1524.0
3665,-838,1525,0,3673.0,3682.0,-841.0,-839.0,1526.0,1527.0
3663,-834,1525,0,3665.0,3673.0,-838.0,-841.0,1525.0,1526.0
3661,-832,1528,0,3663.0,3665.0,-834.0,-838.0,1525.0,1525.0
3661,-830,1530,0,3661.0,3663.0,-832.0,-834.0,1528.0,1525.0
3670,-832,1536,0,3661.0,3661.0,-830.0,-832.0,1530.0,1528.0
3676,-828,1536,0,3670.0,3661.0,-832.0,-830.0,1536.0,1530.0
3688,-822,1536,0,3676.0,3670.0,-828.0,-832.0,1536.0,1536.0
3701,-820,1530,0,3688.0,3676.0,-822.0,-828.0,1536.0,1536.0
3712,-820,1527,0,3701.0,3688.0,-820.0,-822.0,1530.0,1536.0
3724,-821,1522,0,3712.0,3701.0,-820.0,-820.0,1527.0,1530.0
3729,-818,1521,0,3724.0,3712.0,-821.0,-820.0,1522.0,1527.0
3734,-813,1526,0,3729.0,3724.0,-818.0,-821.0,1521.0,1522.0
3738,-806,1524,0,3734.0,3729.0,-813.0,-818.0,1526.0,1521.0
3739,-803,1524,0,3738.0,3734.0,-806.0,-813.0,1524.0,1526.0
3736,-798,1522,0,3739.0,3738.0,-803.0,-806.0,1524.0,1524.0
3729,-795,1521,0,3736.0,3739.0,-798.0,-803.0,1522.0,1524.0
3728,-796,1523,0,3729.0,3736.0,-795.0,-798.0,1521.0,1522.0
3727,-794,1523,0,3728.0,3729.0,-796.0,-795.0,1523.0,1521.0
3719,-792,1520,0,3727.0,3728.0,-794.0,-796.0,1523.0,1523.0
3711,-795,1521,0,3719.0,3727.0,-792.0,-794.0,1520.0,1523.0
3705,-791,1524,0,3711.0,3719.0,-795.0,-792.0,1521.0,1520.0
3699,-789,1528,0,3705.0,3711.0,-791.0,-795.0,1524.0,1521.0
3694,-787,1534,0,3699.0,3705.0,-789.0,-791.0,1528.0,1524.0
3689,-788,1536,0,3694.0,3699.0,-787.0,-789.0,1534.0,1528.0
3688,-789,1540,0,3689.0,3694.0,-788.0,-787.0,1536.0,1534.0
3685,-793,1539,0,3688.0,3689.0,-789.0,-788.0,1540.0,1536.0
3678,-792,1540,0,3685.0,3688.0,-793.0,-789.0,1539.0,1540.0
3677,-790,1539,0,3678.0,3685.0,-792.0,-793.0,1540.0,1539.0
3676,-793,1539,0,3677.0,3678.0,-790.0,-792.0,1539.0,1540.0
3674,-798,1543,0,3676.0,3677.0,-793.0,-790.0,1539.0,1539.0
3673,-803,1541,0,3674.0,3676.0,-798.0,-793.0,1543.0,1539.0
3677,-800,1535,0,3673.0,3674.0,-803.0,-798.0,1541.0,1543.0
3680,-801,1533,0,3677.0,3673.0,-800.0,-803.0,1535.0,1541.0
3678,-801,1535,0,3680.0,3677.0,-801.0,-800.0,1533.0,1535.0
3684,-796,1537,0,3678.0,3680.0,-801.0,-801.0,1535.0,1533.0
3687,-793,1541,0,3684.0,3678.0,-796.0,-801.0,1537.0,1535.0
3689,-793,1544,0,3687.0,3684.0,-793.0,-796.0,1541.0,1537.0
3698,-797,1544,0,3689.0,3687.0,-793.0,-793.0,1544.0,1541.0
3697,-797,1547,0,3698.0,3689.0,-797.0,-793.0,1544.0,1544.0
3701,-803,1545,0,3697.0,3698.0,-797.0,-797.0,1547.0,1544.0
3697,-809,1540,0,3701.0,3697.0,-803.0,-797.0,1545.0,1547.0
3695,-814,1538,0,3697.0,3701.0,-809.0,-803.0,1540.0,1545.0
3696,-817,1537,0,3695.0,3697.0,-814.0,-809.0,1538.0,1540.0
3697,-823,1534,0,3696.0,3695.0,-817.0,-814.0,1537.0,1538.0
3694,-826,1527,0,3697.0,3696.0,-823.0,-817.0,1534.0,1537.0
3691,-828,1524,0,3694.0,3697.0,-826.0,-823.0,1527.0,1534.0
3690,-825,1522,0,3691.0,3694.0,-828.0,-826.0,1524.0,1527.0
3686,-821,1520,0,3690.0,3691.0,-825.0,-828.0,1522.0,1524.0
3682,-816,1518,0,3686.0,3690.0,-821.0,-825.0,1520.0,1522.0
3681,-811,1512,0,3682.0,3686.0,-816.0,-821.0,1518.0,1520.0
3678,-807,1505,0,3681.0,3682.0,-811.0,-816.0,1512.0,1518.0
3674,-800,1501,0,3678.0,3681.0,-807.0,-811.0,1505.0,1512.0
3675,-796,1505,0,3674.0,3678.0,-800.0,-807.0,1501.0,1505.0
3680,-787,1506,0,3675.0,3674.0,-796.0,-800.0,1505.0,1501.0
3683,-783,1508,0,3680.0,3675.0,-787.0,-796.0,1506.0,1505.0
3688,-778,1509,0,3683.0,3680.0,-783.0,-787.0,1508.0,1506.0
3689,-772,1510,0,3688.0,3683.0,-778.0,-783.0,1509.0,1508.0
3685,-772,1512,0,3689.0,3688.0,-772.0,-778.0,1510.0,1509.0
3689,-768,1516,0,3685.0,3689.0,-772.0,-772.0,1512.0,1510.0
3692,-766,1521,0,3689.0,3685.0,-768.0,-772.0,1516.0,1512.0
3697,-762,1524,0,3692.0,3689.0,-766.0,-768.0,1521.0,1516.0
3701,-761,1522,0,3697.0,3692.0,-762.0,-766.0,1524.0,1521.0
3703,-761,1523,0,3701.0,3697.0,-761.0,-762.0,1522.0,1524.0
3707,-760,1527,0,3703.0,3701.0,-761.0,-761.0,1523.0,1522.0
3705,-765,1524,0,3707.0,3703.0,-760.0,-761.0,1527.0,1523.0
3708,-767,1526,0,3705.0,3707.0,-765.0,-760.0,1524.0,1527.0
3708,-772,1529,0,3708.0,3705.0,-767.0,-765.0,1526.0,1524.0
3706,-776,1528,0,3708.0,3708.0,-772.0,-767.0,1529.0,1526.0
3707,-776,1526,0,3706.0,3708.0,-776.0,-772.0,1528.0,1529.0
3708,-777,1524,0,3707.0,3706.0,-776.0,-776.0,1526.0,1528.0
3708,-773,1526,0,3708.0,3707.0,-777.0,-776.0,1524.0,1526.0
3712,-777,1525,0,3708.0,3708.0,-773.0,-777.0,1526.0,1524.0
3711,-777,1530,0,3712.0,3708.0,-777.0,-773.0,1525.0,1526.0
3710,-778,1537,0,3711.0,3712.0,-777.0,-777.0,1530.0,1525.0
3704,-777,1537,0,3710.0,3711.0,-778.0,-777.0,1537.0,1530.0
3705,-776,1536,0,3704.0,3710.0,-777.0,-778.0,1537.0,1537.0
3703,-778,1536,0,3705.0,3704.0,-776.0,-777.0,1536.0,1537.0
3700,-776,1535,0,3703.0,3705.0,-778.0,-776.0,1536.0,1536.0
3699,-781,1533,0,3700.0,3703.0,-776.0,-778.0,1535.0,1536.0
3697,-785,1533,0,3699.0,3700.0,-781.0,-776.0,1533.0,1535.0
3698,-788,1532,0,3697.0,3699.0,-785.0,-781.0,1533.0,1533.0
3696,-791,1530,0,3698.0,3697.0,-788.0,-785.0,1532.0,1533.0
3695,-795,1528,0,3696.0,3698.0,-791.0,-788.0,1530.0,1532.0
3695,-797,1524,0,3695.0,3696.0,-795.0,-791.0,1528.0,1530.0
3696,-801,1522,0,3695.0,3695.0,-797.0,-795.0,1524.0,1528.0
3696,-804,1522,0,3696.0,3695.0,-801.0,-797.0,1522.0,1524.0
3696,-803,1519,0,3696.0,3696.0,-804.0,-801.0,1522.0,1522.0
3695,-803,1516,0,3696.0,3696.0,-803.0,-804.0,1519.0,1522.0
3696,-807,1514,0,3695.0,3696.0,-803.0,-803.0,1516.0,1519.0
3695,-809,1514,0,3696.0,3695.0,-807.0,-803.0,1514.0,1516.0
3697,-810,1513,0,3695.0,3696.0,-809.0,-807.0,1514.0,1514.0
3695,-811,1512,0,3697.0,3695.0,-810.0,-809.0,1513.0,1514.0
3700,-812,1509,0,3695.0,3697.0,-811.0,-810.0,1512.0,1513.0
3702,-817,1509,0,3700.0,3695.0,-812.0,-811.0,1509.0,1512.0
3702,-817,1511,0,3702.0,3700.0,-817.0,-812.0,1509.0,1509.0
3705,-818,1510,0,3702.0,3702.0,-817.0,-817.0,1511.0,1509.0
3706,-818,1510,0,3705.0,3702.0,-818.0,-817.0,1510.0,1511.0
3704,-818,1512,0,3706.0,3705.0,-818.0,-818.0,1510.0,1510.0
3703,-818,1511,0,3704.0,3706.0,-818.0,-818.0,1512.0,1510.0
3705,-821,1508,0,3703.0,3704.0,-818.0,-818.0,1511.0,1512.0
3704,-815,1504,0,3705.0,3703.0,-821.0,-818.0,1508.0,1511.0
3705,-821,1501,0,3704.0,3705.0,-815.0,-821.0,1504.0,1508.0
3706,-822,1499,0,3705.0,3704.0,-821.0,-815.0,1501.0,1504.0
3705,-823,1495,0,3706.0,3705.0,-822.0,-821.0,1499.0,1501.0
3708,-825,1494,0,3705.0,3706.0,-823.0,-822.0,1495.0,1499.0
3713,-821,1493,0,3708.0,3705.0,-825.0,-823.0,1494.0,1495.0
3715,-818,1493,0,3713.0,3708.0,-821.0,-825.0,1493.0,1494.0
3715,-815,1493,0,3715.0,3713.0,-818.0,-821.0,1493.0,1493.0
3720,-815,1490,0,3715.0,3715.0,-815.0,-818.0,1493.0,1493.0
3718,-817,1491,0,3720.0,3715.0,-815.0,-815.0,1490.0,1493.0
3721,-814,1491,0,3718.0,3720.0,-817.0,-815.0,1491.0,1490.0
3719,-813,1487,0,3721.0,3718.0,-814.0,-817.0,1491.0,1491.0
3720,-813,1486,0,3719.0,3721.0,-813.0,-814.0,1487.0,1491.0
3720,-811,1490,0,3720.0,3719.0,-813.0,-813.0,1486.0,1487.0
3719,-811,1491,0,3720.0,3720.0,-811.0,-813.0,1490.0,1486.0
3717,-813,1488,0,3719.0,3720.0,-811.0,-811.0,1491.0,1490.0
3720,-814,1484,0,3717.0,3719.0,-813.0,-811.0,1488.0,1491.0
3718,-821,1485,0,3720.0,3717.0,-814.0,-813.0,1484.0,1488.0
3713,-826,1485,0,3718.0,3720.0,-821.0,-814.0,1485.0,1484.0
3713,-828,1481,0,3713.0,3718.0,-826.0,-821.0,1485.0,1485.0
3714,-829,1478,0,3713.0,3713.0,-828.0,-826.0,1481.0,1485.0
3714,-829,1479,0,3714.0,3713.0,-829.0,-828.0,1478.0,1481.0
3708,-832,1476,0,3714.0,3714.0,-829.0,-829.0,1479.0,1478.0
3711,-833,1476,0,3708.0,3714.0,-832.0,-829.0,1476.0,1479.0
3714,-833,1475,0,3711.0,3708.0,-833.0,-832.0,1476.0,1476.0
3718,-834,1478,0,3714.0,3711.0,-833.0,-833.0,1475.0,1476.0
3719,-833,1475,0,3718.0,3714.0,-834.0,-833.0,1478.0,1475.0
3718,-830,1476,0,3719.0,3718.0,-833.0,-834.0,1475.0,1478.0
3720,-829,1478,0,3718.0,3719.0,-830.0,-833.0,1476.0,1475.0
3724,-824,1477,0,3720.0,3718.0,-829.0,-830.0,1478.0,1476.0
3726,-824,1474,0,3724.0,3720.0,-824.0,-829.0,1477.0,1478.0
3727,-821,1467,0,3726.0,3724.0,-824.0,-824.0,1474.0,1477.0
3731,-818,1463,0,3727.0,3726.0,-821.0,-824.0,1467.0,1474.0
3733,-821,1459,0,3731.0,3727.0,-818.0,-821.0,1463.0,1467.0
3737,-816,1459,0,3733.0,3731.0,-821.0,-818.0,1459.0,1463.0
3736,-809,1461,0,3737.0,3733.0,-816.0,-821.0,1459.0,1459.0
3735,-812,1455,0,3736.0,3737.0,-809.0,-816.0,1461.0,1459.0
3731,-808,1452,0,3735.0,3736.0,-812.0,-809.0,1455.0,1461.0
3730,-807,1455,0,3731.0,3735.0,-808.0,-812.0,1452.0,1455.0
3728,-800,1457,0,3730.0,3731.0,-807.0,-808.0,1455.0,1452.0
3731,-804,1457,0,3728.0,3730.0,-800.0,-807.0,1457.0,1455.0
3732,-808,1455,0,3731.0,3728.0,-804.0,-800.0,1457.0,1457.0
3730,-810,1454,0,3732.0,3731.0,-808.0,-804.0,1455.0,1457.0
3733,-814,1455,0,3730.0,3732.0,-810.0,-808.0,1454.0,1455.0
3730,-810,1453,0,3733.0,3730.0,-814.0,-810.0,1455.0,1454.0
3728,-811,1456,0,3730.0,3733.0,-810.0,-814.0,1453.0,1455.0
3727,-812,1455,0,3728.0,3730.0,-811.0,-810.0,1456.0,1453.0
3726,-817,1456,0,3727.0,3728.0,-812.0,-811.0,1455.0,1456.0
3731,-817,1455,0,3726.0,3727.0,-817.0,-812.0,1456.0,1455.0
3737,-819,1455,0,3731.0,3726.0,-817.0,-817.0,1455.0,1456.0
3740,-817,1457,0,3737.0,3731.0,-819.0,-817.0,1455.0,1455.0
3738,-818,1457,0,3740.0,3737.0,-817.0,-819.0,1457.0,1455.0
3737,-819,1460,0,3738.0,3740.0,-818.0,-817.0,1457.0,1457.0
3735,-819,1459,0,3737.0,3738.0,-819.0,-818.0,1460.0,1457.0
3742,-822,1455,0,3735.0,3737.0,-819.0,-819.0,1459.0,1460.0
3747,-825,1456,0,3742.0,3735.0,-822.0,-819.0,1455.0,1459.0
3749,-821,1454,0,3747.0,3742.0,-825.0,-822.0,1456.0,1455.0
3739,-820,1458,0,3749.0,3747.0,-821.0,-825.0,1454.0,1456.0
3723,-826,1460,0,3739.0,3749.0,-820.0,-821.0,1458.0,1454.0
3710,-831,1457,0,3723.0,3739.0,-826.0,-820.0,1460.0,1458.0
3700,-837,1454,0,3710.0,3723.0,-831.0,-826.0,1457.0,1460.0
3692,-836,1447,0,3700.0,3710.0,-837.0,-831.0,1454.0,1457.0
3686,-839,1440,0,3692.0,3700.0,-836.0,-837.0,1447.0,1454.0
3689,-840,1435,0,3686.0,3692.0,-839.0,-836.0,1440.0,1447.0
3694,-834,1435,0,3689.0,3686.0,-840.0,-839.0,1435.0,1440.0
3701,-829,1439,0,3694.0,3689.0,-834.0,-840.0,1435.0,1435.0
3709,-830,1443,0,3701.0,3694.0,-829.0,-834.0,1439.0,1435.0
3719,-831,1441,0,3709.0,3701.0,-830.0,-829.0,1443.0,1439.0
3734,-835,1439,0,3719.0,3709.0,-831.0,-830.0,1441.0,1443.0
3747,-831,1444,0,3734.0,3719.0,-835.0,-831.0,1439.0,1441.0
3759,-829,1440,0,3747.0,3734.0,-831.0,-835.0,1444.0,1439.0
3767,-829,1445,0,3759.0,3747.0,-829.0,-831.0,1440.0,1444.0
3776,-822,1446,0,3767.0,3759.0,-829.0,-829.0,1445.0,1440.0
3774,-822,1448,0,3776.0,3767.0,-822.0,-829.0,1446.0,1445.0
3769,-818,1449,0,3774.0,3776.0,-822.0,-822.0,1448.0,1446.0
3765,-820,1449,0,3769.0,3774.0,-818.0,-822.0,1449.0,1448.0
3759,-821,1448,0,3765.0,3769.0,-820.0,-818.0,1449.0,1449.0
3754,-825,1453,0,3759.0,3765.0,-821.0,-820.0,1448.0,1449.0
3749,-826,1454,0,3754.0,3759.0,-825.0,-821.0,1453.0,1448.0
3737,-826,1455,0,3749.0,3754.0,-826.0,-825.0,1454.0,1453.0
3727,-829,1459,0,3737.0,3749.0,-826.0,-826.0,1455.0,1454.0
3718,-830,1460,0,3727.0,3737.0,-829.0,-826.0,1459.0,1455.0
3711,-827,1457,0,3718.0,3727.0,-830.0,-829.0,1460.0,1459.0
3708,-826,1457,0,3711.0,3718.0,-827.0,-830.0,1457.0,1460.0
3704,-829,1456,0,3708.0,3711.0,-826.0,-827.0,1457.0,1457.0
3705,-833,1459,0,3704.0,3708.0,-829.0,-826.0,1456.0,1457.0
3708,-831,1463,0,3705.0,3704.0,-833.0,-829.0,1459.0,1456.0
3714,-830,1467,0,3708.0,3705.0,-831.0,-833.0,1463.0,1459.0
3717,-826,1463,0,3714.0,3708.0,-830.0,-831.0,1467.0,1463.0
3721,-830,1461,0,3717.0,3714.0,-826.0,-830.0,1463.0,1467.0
3726,-827,1460,0,3721.0,3717.0,-830.0,-826.0,1461.0,1463.0
3733,-827,1456,0,3726.0,3721.0,-827.0,-830.0,1460.0,1461.0
3735,-828,1453,0,3733.0,3726.0,-827.0,-827.0,1456.0,1460.0
3736,-829,1451,0,3735.0,3733.0,-828.0,-827.0,1453.0,1456.0
3736,-829,1450,0,3736.0,3735.0,-829.0,-828.0,1451.0,1453.0
3737,-828,1448,0,3736.0,3736.0,-829.0,-829.0,1450.0,1451.0
3732,-826,1444,0,3737.0,3736.0,-828.0,-829.0,1448.0,1450.0
3733,-827,1444,0,3732.0,3737.0,-826.0,-828.0,1444.0,1448.0
3729,-827,1443,0,3733.0,3732.0,-827.0,-826.0,1444.0,1444.0
3723,-828,1444,0,3729.0,3733.0,-827.0,-827.0,1443.0,1444.0
3721,-824,1447,0,3723.0,3729.0,-828.0,-827.0,1444.0,1443.0
3719,-822,1450,0,3721.0,3723.0,-824.0,-828.0,1447.0,1444.0
3713,-819,1452,0,3719.0,3721.0,-822.0,-824.0,1450.0,1447.0
3710,-818,1453,0,3713.0,3719.0,-819.0,-822.0,1452.0,1450.0
3705,-820,1455,0,3710.0,3713.0,-818.0,-819.0,1453.0,1452.0
3707,-816,1454,0,3705.0,3710.0,-820.0,-818.0,1455.0,1453.0
3711,-820,1454,0,3707.0,3705.0,-816.0,-820.0,1454.0,1455.0
3713,-820,1454,0,3711.0,3707.0,-820.0,-816.0,1454.0,1454.0
3715,-821,1453,0,3713.0,3711.0,-820.0,-820.0,1454.0,1454.0
3717,-817,1453,0,3715.0,3713.0,-821.0,-820.0,1453.0,1454.0
3719,-817,1452,0,3717.0,3715.0,-817.0,-821.0,1453.0,1453.0
3720,-816,1453,0,3719.0,3717.0,-817.0,-817.0,1452.0,1453.0
3721,-820,1452,0,3720.0,3719.0,-816.0,-817.0,1453.0,1452.0
3722,-823,1452,0,3721.0,3720.0,-820.0,-816.0,1452.0,1453.0
3726,-821,1453,0,3722.0,3721.0,-823.0,-820.0,1452.0,1452.0
3724,-822,1455,0,3726.0,3722.0,-821.0,-823.0,1453.0,1452.0
3723,-823,1460,0,3724.0,3726.0,-822.0,-821.0,1455.0,1453.0
3722,-822,1462,0,3723.0,3724.0,-823.0,-822.0,1460.0,1455.0
3721,-823,1464,0,3722.0,3723.0,-822.0,-823.0,1462.0,1460.0
3714,-819,1465,0,3721.0,3722.0,-823.0,-822.0,1464.0,1462.0
3704,-820,1472,0,3714.0,3721.0,-819.0,-823.0,1465.0,1464.0
3699,-820,1474,0,3704.0,3714.0,-820.0,-819.0,1472.0,1465.0
3698,-821,1473,0,3699.0,3704.0,-820.0,-820.0,1474.0,1472.0
3697,-819,1476,0,3698.0,3699.0,-821.0,-820.0,1473.0,1474.0
3699,-822,1483,0,3697.0,3698.0,-819.0,-821.0,1476.0,1473.0
3701,-822,1486,0,3699.0,3697.0,-822.0,-819.0,1483.0,1476.0
3702,-827,1486,0,3701.0,3699.0,-822.0,-822.0,1486.0,1483.0
3704,-827,1490,0,3702.0,3701.0,-827.0,-822.0,1486.0,1486.0
3704,-827,1492,0,3704.0,3702.0,-827.0,-827.0,1490.0,1486.0
3701,-822,1492,0,3704.0,3704.0,-827.0,-827.0,1492.0,1490.0
3699,-820,1497,0,3701.0,3704.0,-822.0,-827.0,1492.0,1492.0
3708,-819,1494,0,3699.0,3701.0,-820.0,-822.0,1497.0,1492.0
3710,-821,1492,0,3708.0,3699.0,-819.0,-820.0,1494.0,1497.0
3714,-825,1488,0,3710.0,3708.0,-821.0,-819.0,1492.0,1494.0
3715,-823,1485,0,3714.0,3710.0,-825.0,-821.0,1488.0,1492.0
3720,-826,1481,0,3715.0,3714.0,-823.0,-825.0,1485.0,1488.0
3720,-827,1478,0,3720.0,3715.0,-826.0,-823.0,1481.0,1485.0
3719,-826,1481,0,3720.0,3720.0,-827.0,-826.0,1478.0,1481.0
3721,-825,1485,0,3719.0,3720.0,-826.0,-827.0,1481.0,1478.0
3720,-825,1487,0,3721.0,3719.0,-825.0,-826.0,1485.0,1481.0
3721,-828,1489,0,3720.0,3721.0,-825.0,-825.0,1487.0,1485.0
3721,-832,1491,0,3721.0,3720.0,-828.0,-825.0,1489.0,1487.0
3720,-831,1493,0,3721.0,3721.0,-832.0,-828.0,1491.0,1489.0
3719,-829,1495,0,3720.0,3721.0,-831.0,-832.0,1493.0,1491.0
3716,-828,1499,0,3719.0,3720.0,-829.0,-831.0,1495.0,1493.0
3711,-834,1501,0,3716.0,3719.0,-828.0,-829.0,1499.0,1495.0
3707,-838,1499,0,3711.0,3716.0,-834.0,-828.0,1501.0,1499.0
3701,-841,1499,0,3707.0,3711.0,-838.0,-834.0,1499.0,1501.0
3701,-840,1506,0,3701.0,3707.0,-841.0,-838.0,1499.0,1499.0
3701,-842,1503,0,3701.0,3701.0,-840.0,-841.0,1506.0,1499.0
3699,-846,1500,0,3701.0,3701.0,-842.0,-840.0,1503.0,1506.0
3702,-850,1500,0,3699.0,3701.0,-846.0,-842.0,1500.0,1503.0
3702,-850,1499,0,3702.0,3699.0,-850.0,-846.0,1500.0,1500.0
3703,-847,1496,0,3702.0,3702.0,-850.0,-850.0,1499.0,1500.0
3700,-849,1496,0,3703.0,3702.0,-847.0,-850.0,1496.0,1499.0
3701,-849,1496,0,3700.0,3703.0,-849.0,-847.0,1496.0,1496.0
3702,-848,1499,0,3701.0,3700.0,-849.0,-849.0,1496.0,1496.0
3703,-849,1501,0,3702.0,3701.0,-848.0,-849.0,1499.0,1496.0
3707,-848,1501,0,3703.0,3702.0,-849.0,-848.0,1501.0,1499.0
3713,-849,1506,0,3707.0,3703.0,-848.0,-849.0,1501.0,1501.0
3714,-844,1507,0,3713.0,3707.0,-849.0,-848.0,1506.0,1501.0
3714,-840,1506,0,3714.0,3713.0,-844.0,-849.0,1507.0,1506.0
3715,-838,1504,0,3714.0,3714.0,-840.0,-844.0,1506.0,1507.0
3714,-837,1503,0,3715.0,3714.0,-838.0,-840.0,1504.0,1506.0
3712,-837,1506,0,3714.0,3715.0,-837.0,-838.0,1503.0,1504.0
3709,-840,1502,0,3712.0,3714.0,-837.0,-837.0,1506.0,1503.0
3710,-843,1504,0,3709.0,3712.0,-840.0,-837.0,1502.0,1506.0
3711,-839,1503,0,3710.0,3709.0,-843.0,-840.0,1504.0,1502.0
3712,-839,1504,0,3711.0,3710.0,-839.0,-843.0,1503.0,1504.0
3711,-837,1511,0,3712.0,3711.0,-839.0,-839.0,1504.0,1503.0
3707,-837,1511,0,3711.0,3712.0,-837.0,-839.0,1511.0,1504.0
3706,-835,1513,0,3707.0,3711.0,-837.0,-837.0,1511.0,1511.0
3709,-835,1510,0,3706.0,3707.0,-835.0,-837.0,1513.0,1511.0
3710,-836,1513,0,3709.0,3706.0,-835.0,-835.0,1510.0,1513.0
3705,-834,1513,0,3710.0,3709.0,-836.0,-835.0,1513.0,1510.0
3704,-832,1513,0,3705.0,3710.0,-834.0,-836.0,1513.0,1513.0
3708,-830,1509,0,3704.0,3705.0,-832.0,-834.0,1513.0,1513.0
3704,-829,1505,0,3708.0,3704.0,-830.0,-832.0,1509.0,1513.0
3703,-828,1507,0,3704.0,3708.0,-829.0,-830.0,1505.0,1509.0
3698,-826,1509,0,3703.0,3704.0,-828.0,-829.0,1507.0,1505.0
3698,-827,1510,0,3698.0,3703.0,-826.0,-828.0,1509.0,1507.0
3697,-827,1510,0,3698.0,3698.0,-827.0,-826.0,1510.0,1509.0
3696,-826,1510,0,3697.0,3698.0,-827.0,-827.0,1510.0,1510.0
3696,-824,1511,0,3696.0,3697.0,-826.0,-827.0,1510.0,1510.0
3695,-825,1511,0,3696.0,3696.0,-824.0,-826.0,1511.0,1510.0
3697,-828,1511,0,3695.0,3696.0,-825.0,-824.0,1511.0,1511.0
3701,-827,1513,0,3697.0,3695.0,-828.0,-825.0,1511.0,1511.0
3701,-827,1516,0,3701.0,3697.0,-827.0,-828.0,1513.0,1511.0
3703,-828,1515,0,3701.0,3701.0,-827.0,-827.0,1516.0,1513.0
3701,-825,1516,0,3703.0,3701.0,-828.0,-827.0,1515.0,1516.0
3706,-822,1519,0,3701.0,3703.0,-825.0,-828.0,1516.0,1515.0
3709,-820,1519,0,3706.0,3701.0,-822.0,-825.0,1519.0,1516.0
3711,-823,1519,0,3709.0,3706.0,-820.0,-822.0,1519.0,1519.0
3713,-822,1518,0,3711.0,3709.0,-823.0,-820.0,1519.0,1519.0
3708,-824,1518,0,3713.0,3711.0,-822.0,-823.0,1518.0,1519.0
3705,-827,1520,0,3708.0,3713.0,-824.0,-822.0,1518.0,1518.0
3699,-824,1515,0,3705.0,3708.0,-827.0,-824.0,1520.0,1518.0
3700,-819,1514,0,3699.0,3705.0,-824.0,-827.0,1515.0,1520.0
3697,-818,1514,0,3700.0,3699.0,-819.0,-824.0,1514.0,1515.0
3693,-819,1516,0,3697.0,3700.0,-818.0,-819.0,1514.0,1514.0
3689,-819,1518,0,3693.0,3697.0,-819.0,-818.0,1516.0,1514.0
3692,-820,1518,0,3689.0,3693.0,-819.0,-819.0,1518.0,1516.0
3687,-821,1515,0,3692.0,3689.0,-820.0,-819.0,1518.0,1518.0
3687,-820,1514,0,3687.0,3692.0,-821.0,-820.0,1515.0,1518.0
3682,-825,1518,0,3687.0,3687.0,-820.0,-821.0,1514.0,1515.0
3682,-826,1524,0,3682.0,3687.0,-825.0,-820.0,1518.0,1514.0
3683,-826,1522,0,3682.0,3682.0,-826.0,-825.0,1524.0,1518.0
3686,-828,1522,0,3683.0,3682.0,-826.0,-826.0,1522.0,1524.0
3692,-828,1523,0,3686.0,3683.0,-828.0,-826.0,1522.0,1522.0
3692,-829,1527,0,3692.0,3686.0,-828.0,-828.0,1523.0,1522.0
3693,-829,1528,0,3692.0,3692.0,-829.0,-828.0,1527.0,1523.0
3698,-830,1526,0,3693.0,3692.0,-829.0,-829.0,1528.0,1527.0
3705,-828,1527,0,3698.0,3693.0,-830.0,-829.0,1526.0,1528.0
3710,-828,1529,0,3705.0,3698.0,-828.0,-830.0,1527.0,1526.0
3713,-829,1533,0,3710.0,3705.0,-828.0,-828.0,1529.0,1527.0
3710,-829,1530,0,3713.0,3710.0,-829.0,-828.0,1533.0,1529.0
3710,-833,1531,0,3710.0,3713.0,-829.0,-829.0,1530.0,1533.0
3702,-840,1535,0,3710.0,3710.0,-833.0,-829.0,1531.0,1530.0
3690,-841,1534,0,3702.0,3710.0,-840.0,-833.0,1535.0,1531.0
3680,-842,1528,0,3690.0,3702.0,-841.0,-840.0,1534.0,1535.0
3675,-844,1521,0,3680.0,3690.0,-842.0,-841.0,1528.0,1534.0
3669,-840,1520,0,3675.0,3680.0,-844.0,-842.0,1521.0,1528.0
3663,-839,1524,0,3669.0,3675.0,-840.0,-844.0,1520.0,1521.0
3662,-834,1526,0,3663.0,3669.0,-839.0,-840.0,1524.0,1520.0
3664,-834,1534,0,3662.0,3663.0,-834.0,-839.0,1526.0,1524.0
3669,-836,1536,0,3664.0,3662.0,-834.0,-834.0,1534.0,1526.0
3676,-839,1533,0,3669.0,3664.0,-836.0,-834.0,1536.0,1534.0
3681,-838,1532,0,3676.0,3669.0,-839.0,-836.0,1533.0,1536.0
3690,-840,1532,0,3681.0,3676.0,-838.0,-839.0,1532.0,1533.0
3705,-839,1532,0,3690.0,3681.0,-840.0,-838.0,1532.0,1532.0
3709,-841,1534,0,3705.0,3690.0,-839.0,-840.0,1532.0,1532.0
3716,-843,1535,0,3709.0,3705.0,-841.0,-839.0,1534.0,1532.0
3718,-842,1532,0,3716.0,3709.0,-843.0,-841.0,1535.0,1534.0
3723,-839,1529,0,3718.0,3716.0,-842.0,-843.0,1532.0,1535.0
3724,-836,1526,0,3723.0,3718.0,-839.0,-842.0,1529.0,1532.0
3723,-834,1530,0,3724.0,3723.0,-836.0,-839.0,1526.0,1529.0
3717,-832,1536,0,3723.0,3724.0,-834.0,-836.0,1530.0,1526.0
3713,-831,1537,0,3717.0,3723.0,-832.0,-834.0,1536.0,1530.0
3709,-833,1538,0,3713.0,3717.0,-831.0,-832.0,1537.0,1536.0
3705,-836,1537,0,3709.0,3713.0,-833.0,-831.0,1538.0,1537.0
3696,-834,1537,0,3705.0,3709.0,-836.0,-833.0,1537.0,1538.0
3689,-835,1539,0,3696.0,3705.0,-834.0,-836.0,1537.0,1537.0
3684,-836,1545,0,3689.0,3696.0,-835.0,-834.0,1539.0,1537.0
3679,-837,1547,0,3684.0,3689.0,-836.0,-835.0,1545.0,1539.0
3677,-838,1549,0,3679.0,3684.0,-837.0,-836.0,1547.0,1545.0
3676,-837,1553,0,3677.0,3679.0,-838.0,-837.0,1549.0,1547.0
3672,-839,1551,0,3676.0,3677.0,-837.0,-838.0,1553.0,1549.0
3676,-842,1550,0,3672.0,3676.0,-839.0,-837.0,1551.0,1553.0
3674,-841,1556,0,3676.0,3672.0,-842.0,-839.0,1550.0,1551.0
3669,-842,1558,0,3674.0,3676.0,-841.0,-842.0,1556.0,1550.0
3668,-843,1557,0,3669.0,3674.0,-842.0,-841.0,1558.0,1556.0
3672,-846,1557,0,3668.0,3669.0,-843.0,-842.0,1557.0,1558.0
3672,-846,1557,0,3672.0,3668.0,-846.0,-843.0,1557.0,1557.0
3674,-848,1556,0,3672.0,3672.0,-846.0,-846.0,1557.0,1557.0
3674,-850,1552,0,3674.0,3672.0,-848.0,-846.0,1556.0,1557.0
3672,-852,1553,0,3674.0,3674.0,-850.0,-848.0,1552.0,1556.0
3671,-852,1555,0,3672.0,3674.0,-852.0,-850.0,1553.0,1552.0
3675,-855,1559,0,3671.0,3672.0,-852.0,-852.0,1555.0,1553.0
3676,-856,1560,0,3675.0,3671.0,-855.0,-852.0,1559.0,1555.0
3675,-856,1560,0,3676.0,3675.0,-856.0,-855.0,1560.0,1559.0
3676,-854,1561,0,3675.0,3676.0,-856.0,-856.0,1560.0,1560.0
3679,-855,1564,0,3676.0,3675.0,-854.0,-856.0,1561.0,1560.0
3677,-852,1559,0,3679.0,3676.0,-855.0,-854.0,1564.0,1561.0
3679,-853,1558,0,3677.0,3679.0,-852.0,-855.0,1559.0,1564.0
3677,-851,1561,0,3679.0,3677.0,-853.0,-852.0,1558.0,1559.0
3674,-851,1561,0,3677.0,3679.0,-851.0,-853.0,1561.0,1558.0
3674,-851,1557,0,3674.0,3677.0,-851.0,-851.0,1561.0,1561.0
3676,-851,1557,0,3674.0,3674.0,-851.0,-851.0,1557.0,1561.0
3675,-846,1555,0,3676.0,3674.0,-851.0,-851.0,1557.0,1557.0
3677,-844,1555,0,3675.0,3676.0,-846.0,-851.0,1555.0,1557.0
3672,-842,1552,0,3677.0,3675.0,-844.0,-846.0,1555.0,1555.0
3675,-844,1552,0,3672.0,3677.0,-842.0,-844.0,1552.0,1555.0
3670,-845,1552,0,3675.0,3672.0,-844.0,-842.0,1552.0,1552.0
3670,-845,1552,0,3670.0,3675.0,-845.0,-844.0,1552.0,1552.0
3673,-843,1551,0,3670.0,3670.0,-845.0,-845.0,1552.0,1552.0
3674,-843,1551,0,3673.0,3670.0,-843.0,-845.0,1551.0,1552.0
3673,-843,1551,0,3674.0,3673.0,-843.0,-843.0,1551.0,1551.0
3675,-844,1555,0,3673.0,3674.0,-843.0,-843.0,1551.0,1551.0
3672,-845,1554,0,3675.0,3673.0,-844.0,-843.0,1555.0,1551.0
3667,-846,1558,0,3672.0,3675.0,-845.0,-844.0,1554.0,1555.0
3665,-844,1558,0,3667.0,3672.0,-846.0,-845.0,1558.0,1554.0
3667,-840,1559,0,3665.0,3667.0,-844.0,-846.0,1558.0,1558.0
3670,-839,1562,0,3667.0,3665.0,-840.0,-844.0,1559.0,1558.0
3677,-838,1566,0,3670.0,3667.0,-839.0,-840.0,1562.0,1559.0
3677,-841,1569,0,3677.0,3670.0,-838.0,-839.0,1566.0,1562.0
3677,-843,1571,0,3677.0,3677.0,-841.0,-838.0,1569.0,1566.0
3679,-843,1574,0,3677.0,3677.0,-843.0,-841.0,1571.0,1569.0
3679,-840,1574,0,3679.0,3677.0,-843.0,-843.0,1574.0,1571.0
3675,-838,1572,0,3679.0,3679.0,-840.0,-843.0,1574.0,1574.0
3677,-840,1569,0,3675.0,3679.0,-838.0,-840.0,1572.0,1574.0
3678,-840,1566,0,3677.0,3675.0,-840.0,-838.0,1569.0,1572.0
3674,-841,1570,0,3678.0,3677.0,-840.0,-840.0,1566.0,1569.0
3673,-840,1568,0,3674.0,3678.0,-841.0,-840.0,1570.0,1566.0
3673,-838,1566,0,3673.0,3674.0,-840.0,-841.0,1568.0,1570.0
3672,-834,1569,0,3673.0,3673.0,-838.0,-840.0,1566.0,1568.0
3669,-835,1568,0,3672.0,3673.0,-834.0,-838.0,1569.0,1566.0
3668,-840,1568,0,3669.0,3672.0,-835.0,-834.0,1568.0,1569.0
3667,-844,1563,0,3668.0,3669.0,-840.0,-835.0,1568.0,1568.0
3671,-844,1562,0,3667.0,3668.0,-844.0,-840.0,1563.0,1568.0
3671,-841,1566,0,3671.0,3667.0,-844.0,-844.0,1562.0,1563.0
3674,-837,1570,0,3671.0,3671.0,-841.0,-844.0,1566.0,1562.0
3672,-837,1572,0,3674.0,3671.0,-837.0,-841.0,1570.0,1566.0
3671,-837,1577,0,3672.0,3674.0,-837.0,-837.0,1572.0,1570.0
3670,-833,1582,0,3671.0,3672.0,-837.0,-837.0,1577.0,1572.0
3666,-836,1585,0,3670.0,3671.0,-833.0,-837.0,1582.0,1577.0
3666,-840,1589,0,3666.0,3670.0,-836.0,-833.0,1585.0,1582.0
3663,-839,1590,0,3666.0,3666.0,-840.0,-836.0,1589.0,1585.0
3662,-842,1589,0,3663.0,3666.0,-839.0,-840.0,1590.0,1589.0
3661,-844,1586,0,3662.0,3663.0,-842.0,-839.0,1589.0,1590.0
3661,-845,1585,0,3661.0,3662.0,-844.0,-842.0,1586.0,1589.0
3660,-845,1584,0,3661.0,3661.0,-845.0,-844.0,1585.0,1586.0
3662,-849,1577,0,3660.0,3661.0,-845.0,-845.0,1584.0,1585.0
3667,-850,1573,0,3662.0,3660.0,-849.0,-845.0,1577.0,1584.0
3668,-850,1577,0,3667.0,3662.0,-850.0,-849.0,1573.0,1577.0
3676,-853,1573,0,3668.0,3667.0,-850.0,-850.0,1577.0,1573.0
3677,-853,1571,0,3676.0,3668.0,-853.0,-850.0,1573.0,1577.0
3681,-850,1571,0,3677.0,3676.0,-853.0,-853.0,1571.0,1573.0
3680,-848,1570,0,3681.0,3677.0,-850.0,-853.0,1571.0,1571.0
3682,-849,1567,0,3680.0,3681.0,-848.0,-850.0,1570.0,1571.0
3683,-849,1569,0,3682.0,3680.0,-849.0,-848.0,1567.0,1570.0
3685,-849,1567,0,3683.0,3682.0,-849.0,-849.0,1569.0,1567.0
3683,-848,1568,0,3685.0,3683.0,-849.0,-849.0,1567.0,1569.0
3682,-847,1566,0,3683.0,3685.0,-848.0,-849.0,1568.0,1567.0
3679,-848,1568,0,3682.0,3683.0,-847.0,-848.0,1566.0,1568.0
3677,-849,1571,0,3679.0,3682.0,-848.0,-847.0,1568.0,1566.0
3672,-848,1572,0,3677.0,3679.0,-849.0,-848.0,1571.0,1568.0
3667,-844,1572,0,3672.0,3677.0,-848.0,-849.0,1572.0,1571.0
3665,-845,1574,0,3667.0,3672.0,-844.0,-848.0,1572.0,1572.0
3664,-844,1575,0,3665.0,3667.0,-845.0,-844.0,1574.0,1572.0
3667,-846,1572,0,3664.0,3665.0,-844.0,-845.0,1575.0,1574.0
3669,-846,1569,0,3667.0,3664.0,-846.0,-844.0,1572.0,1575.0
3669,-845,1567,0,3669.0,3667.0,-846.0,-846.0,1569.0,1572.0
3667,-840,1570,0,3669.0,3669.0,-845.0,-846.0,1567.0,1569.0
3669,-840,1572,0,3667.0,3669.0,-840.0,-845.0,1570.0,1567.0
3673,-840,1572,0,3669.0,3667.0,-840.0,-840.0,1572.0,1570.0
3672,-840,1571,0,3673.0,3669.0,-840.0,-840.0,1572.0,1572.0
3673,-839,1567,0,3672.0,3673.0,-840.0,-840.0,1571.0,1572.0
3673,-837,1567,0,3673.0,3672.0,-839.0,-840.0,1567.0,1571.0
3678,-839,1567,0,3673.0,3673.0,-837.0,-839.0,1567.0,1567.0
3678,-839,1570,0,3678.0,3673.0,-839.0,-837.0,1567.0,1567.0
3680,-838,1572,0,3678.0,3678.0,-839.0,-839.0,1570.0,1567.0
3681,-838,1572,0,3680.0,3678.0,-838.0,-839.0,1572.0,1570.0
3680,-839,1572,0,3681.0,3680.0,-838.0,-838.0,1572.0,1572.0
3678,-839,1571,0,3680.0,3681.0,-839.0,-838.0,1572.0,1572.0
3676,-836,1570,0,3678.0,3680.0,-839.0,-839.0,1571.0,1572.0
3674,-835,1566,0,3676.0,3678.0,-836.0,-839.0,1570.0,1571.0
3674,-836,1566,0,3674.0,3676.0,-835.0,-836.0,1566.0,1570.0
3673,-837,1566,0,3674.0,3674.0,-836.0,-835.0,1566.0,1566.0
3674,-837,1566,0,3673.0,3674.0,-837.0,-836.0,1566.0,1566.0
3677,-838,1568,0,3674.0,3673.0,-837.0,-837.0,1566.0,1566.0
3673,-833,1570,0,3677.0,3674.0,-838.0,-837.0,1568.0,1566.0
3671,-833,1572,0,3673.0,3677.0,-833.0,-838.0,1570.0,1568.0
3667,-834,1573,0,3671.0,3673.0,-833.0,-833.0,1572.0,1570.0
3664,-834,1573,0,3667.0,3671.0,-834.0,-833.0,1573.0,1572.0
3662,-836,1573,0,3664.0,3667.0,-834.0,-834.0,1573.0,1573.0
3661,-837,1576,0,3662.0,3664.0,-836.0,-834.0,1573.0,1573.0
3659,-836,1575,0,3661.0,3662.0,-837.0,-836.0,1576.0,1573.0
3660,-839,1575,0,3659.0,3661.0,-836.0,-837.0,1575.0,1576.0
3667,-840,1574,0,3660.0,3659.0,-839.0,-836.0,1575.0,1575.0
3666,-840,1573,0,3667.0,3660.0,-840.0,-839.0,1574.0,1575.0
3666,-842,1575,0,3666.0,3667.0,-840.0,-840.0,1573.0,1574.0
3667,-840,1574,0,3666.0,3666.0,-842.0,-840.0,1575.0,1573.0
3671,-840,1572,0,3667.0,3666.0,-840.0,-842.0,1574.0,1575.0
3671,-840,1576,0,3671.0,3667.0,-840.0,-840.0,1572.0,1574.0
3674,-843,1578,0,3671.0,3671.0,-840.0,-840.0,1576.0,1572.0
3678,-844,1573,0,3674.0,3671.0,-843.0,-840.0,1578.0,1576.0
3680,-846,1574,0,3678.0,3674.0,-844.0,-843.0,1573.0,1578.0
3683,-843,1572,0,3680.0,3678.0,-846.0,-844.0,1574.0,1573.0
3682,-843,1574,0,3683.0,3680.0,-843.0,-846.0,1572.0,1574.0
3681,-840,1571,0,3682.0,3683.0,-843.0,-843.0,1574.0,1572.0
3676,-840,1574,0,3681.0,3682.0,-840.0,-843.0,1571.0,1574.0
3673,-838,1577,0,3676.0,3681.0,-840.0,-840.0,1574.0,1571.0
3666,-841,1578,0,3673.0,3676.0,-838.0,-840.0,1577.0,1574.0
3661,-842,1580,0,3666.0,3673.0,-841.0,-838.0,1578.0,1577.0
3660,-841,1580,0,3661.0,3666.0,-842.0,-841.0,1580.0,1578.0
3656,-842,1580,0,3660.0,3661.0,-841.0,-842.0,1580.0,1580.0
3653,-842,1581,0,3656.0,3660.0,-842.0,-841.0,1580.0,1580.0
3659,-848,1578,0,3653.0,3656.0,-842.0,-842.0,1581.0,1580.0
3663,-849,1575,0,3659.0,3653.0,-848.0,-842.0,1578.0,1581.0
3677,-854,1579,0,3663.0,3659.0,-849.0,-848.0,1575.0,1578.0
3683,-853,1582,0,3677.0,3663.0,-854.0,-849.0,1579.0,1575.0
3686,-844,1578,0,3683.0,3677.0,-853.0,-854.0,1582.0,1579.0
3694,-839,1574,0,3686.0,3683.0,-844.0,-853.0,1578.0,1582.0
3701,-837,1575,0,3694.0,3686.0,-839.0,-844.0,1574.0,1578.0
3704,-837,1573,0,3701.0,3694.0,-837.0,-839.0,1575.0,1574.0
3702,-842,1573,0,3704.0,3701.0,-837.0,-837.0,1573.0,1575.0
3699,-840,1574,0,3702.0,3704.0,-842.0,-837.0,1573.0,1573.0
3696,-844,1575,0,3699.0,3702.0,-840.0,-842.0,1574.0,1573.0
3685,-847,1571,0,3696.0,3699.0,-844.0,-840.0,1575.0,1574.0
3673,-850,1569,0,3685.0,3696.0,-847.0,-844.0,1571.0,1575.0
3658,-847,1569,0,3673.0,3685.0,-850.0,-847.0,1569.0,1571.0
3645,-846,1570,0,3658.0,3673.0,-847.0,-850.0,1569.0,1569.0
3641,-843,1570,0,3645.0,3658.0,-846.0,-847.0,1570.0,1569.0
3633,-843,1576,0,3641.0,3645.0,-843.0,-846.0,1570.0,1570.0
3633,-842,1574,0,3633.0,3641.0,-843.0,-843.0,1576.0,1570.0
3637,-844,1575,0,3633.0,3633.0,-842.0,-843.0,1574.0,1576.0
3643,-848,1575,0,3637.0,3633.0,-844.0,-842.0,1575.0,1574.0
3654,-843,1576,0,3643.0,3637.0,-848.0,-844.0,1575.0,1575.0
3662,-837,1578,0,3654.0,3643.0,-843.0,-848.0,1576.0,1575.0
3671,-841,1578,0,3662.0,3654.0,-837.0,-843.0,1578.0,1576.0
3680,-841,1575,0,3671.0,3662.0,-841.0,-837.0,1578.0,1578.0
3685,-839,1574,0,3680.0,3671.0,-841.0,-841.0,1575.0,1578.0
3692,-841,1571,0,3685.0,3680.0,-839.0,-841.0,1574.0,1575.0
3696,-839,1567,0,3692.0,3685.0,-841.0,-839.0,1571.0,1574.0
3696,-841,1565,0,3696.0,3692.0,-839.0,-841.0,1567.0,1571.0
3696,-838,1563,0,3696.0,3696.0,-841.0,-839.0,1565.0,1567.0
3700,-838,1571,0,3696.0,3696.0,-838.0,-841.0,1563.0,1565.0
3700,-841,1576,0,3700.0,3696.0,-838.0,-838.0,1571.0,1563.0
3698,-838,1577,0,3700.0,3700.0,-841.0,-838.0,1576.0,1571.0
3695,-837,1574,0,3698.0,3700.0,-838.0,-841.0,1577.0,1576.0
3692,-835,1572,0,3695.0,3698.0,-837.0,-838.0,1574.0,1577.0
3686,-838,1574,0,3692.0,3695.0,-835.0,-837.0,1572.0,1574.0
3681,-841,1576,0,3686.0,3692.0,-838.0,-835.0,1574.0,1572.0
3671,-840,1580,0,3681.0,3686.0,-841.0,-838.0,1576.0,1574.0
3667,-841,1579,0,3671.0,3681.0,-840.0,-841.0,1580.0,1576.0
3660,-845,1581,0,3667.0,3671.0,-841.0,-840.0,1579.0,1580.0
3661,-841,1582,0,3660.0,3667.0,-845.0,-841.0,1581.0,1579.0
3662,-843,1584,0,3661.0,3660.0,-841.0,-845.0,1582.0,1581.0
3662,-844,1583,0,3662.0,3661.0,-843.0,-841.0,1584.0,1582.0
3660,-847,1581,0,3662.0,3662.0,-844.0,-843.0,1583.0,1584.0
3663,-849,1579,0,3660.0,3662.0,-847.0,-844.0,1581.0,1583.0
3663,-849,1575,0,3663.0,3660.0,-849.0,-847.0,1579.0,1581.0
3664,-854,1574,0,3663.0,3663.0,-849.0,-849.0,1575.0,1579.0
3663,-851,1571,0,3664.0,3663.0,-854.0,-849.0,1574.0,1575.0
3664,-851,1571,0,3663.0,3664.0,-851.0,-854.0,1571.0,1574.0
3662,-851,1575,0,3664.0,3663.0,-851.0,-851.0,1571.0,1571.0
3665,-853,1573,0,3662.0,3664.0,-851.0,-851.0,1575.0,1571.0
3664,-858,1576,0,3665.0,3662.0,-853.0,-851.0,1573.0,1575.0
3666,-858,1579,0,3664.0,3665.0,-858.0,-853.0,1576.0,1573.0
3666,-856,1583,0,3666.0,3664.0,-858.0,-858.0,1579.0,1576.0
3666,-856,1586,0,3666.0,3666.0,-856.0,-858.0,1583.0,1579.0
3665,-856,1587,0,3666.0,3666.0,-856.0,-856.0,1586.0,1583.0
3662,-858,1585,0,3665.0,3666.0,-856.0,-856.0,1587.0,1586.0
3661,-859,1586,0,3662.0,3665.0,-858.0,-856.0,1585.0,1587.0
3663,-858,1585,0,3661.0,3662.0,-859.0,-858.0,1586.0,1585.0
3661,-855,1583,0,3663.0,3661.0,-858.0,-859.0,1585.0,1586.0
3668,-855,1578,0,3661.0,3663.0,-855.0,-858.0,1583.0,1585.0
3667,-855,1576,0,3668.0,3661.0,-855.0,-855.0,1578.0,1583.0
3665,-857,1575,0,3667.0,3668.0,-855.0,-855.0,1576.0,1578.0
3665,-851,1570,0,3665.0,3667.0,-857.0,-855.0,1575.0,1576.0
3665,-850,1568,0,3665.0,3665.0,-851.0,-857.0,1570.0,1575.0
3664,-848,1565,0,3665.0,3665.0,-850.0,-851.0,1568.0,1570.0
3666,-848,1565,0,3664.0,3665.0,-848.0,-850.0,1565.0,1568.0
3667,-851,1562,0,3666.0,3664.0,-848.0,-848.0,1565.0,1565.0
3667,-851,1564,0,3667.0,3666.0,-851.0,-848.0,1562.0,1565.0
3668,-854,1566,0,3667.0,3667.0,-851.0,-851.0,1564.0,1562.0
3675,-851,1566,0,3668.0,3667.0,-854.0,-851.0,1566.0,1564.0
3673,-848,1571,0,3675.0,3668.0,-851.0,-854.0,1566.0,1566.0
3670,-846,1573,0,3673.0,3675.0,-848.0,-851.0,1571.0,1566.0
3666,-848,1575,0,3670.0,3673.0,-846.0,-848.0,1573.0,1571.0
3661,-847,1576,0,3666.0,3670.0,-848.0,-846.0,1575.0,1573.0
3656,-847,1574,0,3661.0,3666.0,-847.0,-848.0,1576.0,1575.0
3658,-846,1576,0,3656.0,3661.0,-847.0,-847.0,1574.0,1576.0
3659,-844,1577,0,3658.0,3656.0,-846.0,-847.0,1576.0,1574.0
3662,-845,1578,0,3659.0,3658.0,-844.0,-846.0,1577.0,1576.0
3666,-843,1583,0,3662.0,3659.0,-845.0,-844.0,1578.0,1577.0
3666,-838,1584,0,3666.0,3662.0,-843.0,-845.0,1583.0,1578.0
3667,-839,1587,0,3666.0,3666.0,-838.0,-843.0,1584.0,1583.0
3673,-840,1588,0,3667.0,3666.0,-839.0,-838.0,1587.0,1584.0
3676,-839,1588,0,3673.0,3667.0,-840.0,-839.0,1588.0,1587.0
3672,-840,1589,0,3676.0,3673.0,-839.0,-840.0,1588.0,1588.0
3671,-839,1586,0,3672.0,3676.0,-840.0,-839.0,1589.0,1588.0
3676,-838,1589,0,3671.0,3672.0,-839.0,-840.0,1586.0,1589.0
3677,-836,1585,0,3676.0,3671.0,-838.0,-839.0,1589.0,1586.0
3675,-839,1585,0,3677.0,3676.0,-836.0,-838.0,1585.0,1589.0
3670,-840,1586,0,3675.0,3677.0,-839.0,-836.0,1585.0,1585.0
3663,-838,1587,0,3670.0,3675.0,-840.0,-839.0,1586.0,1585.0
3661,-838,1590,0,3663.0,3670.0,-838.0,-840.0,1587.0,1586.0
3662,-845,1591,0,3661.0,3663.0,-838.0,-838.0,1590.0,1587.0
3660,-849,1590,0,3662.0,3661.0,-845.0,-838.0,1591.0,1590.0
3659,-852,1593,0,3660.0,3662.0,-849.0,-845.0,1590.0,1591.0
3661,-854,1588,0,3659.0,3660.0,-852.0,-849.0,1593.0,1590.0
3661,-856,1585,0,3661.0,3659.0,-854.0,-852.0,1588.0,1593.0
3662,-851,1590,0,3661.0,3661.0,-856.0,-854.0,1585.0,1588.0
3662,-850,1588,0,3662.0,3661.0,-851.0,-856.0,1590.0,1585.0
3661,-848,1591,0,3662.0,3662.0,-850.0,-851.0,1588.0,1590.0
3661,-846,1591,0,3661.0,3662.0,-848.0,-850.0,1591.0,1588.0
3660,-849,1584,0,3661.0,3661.0,-846.0,-848.0,1591.0,1591.0
3662,-851,1583,0,3660.0,3661.0,-849.0,-846.0,1584.0,1591.0
3664,-855,1585,0,3662.0,3660.0,-851.0,-849.0,1583.0,1584.0
3667,-855,1581,0,3664.0,3662.0,-855.0,-851.0,1585.0,1583.0
3667,-855,1584,0,3667.0,3664.0,-855.0,-855.0,1581.0,1585.0
3670,-856,1586,0,3667.0,3667.0,-855.0,-855.0,1584.0,1581.0
3674,-855,1586,0,3670.0,3667.0,-856.0,-855.0,1586.0,1584.0
3675,-856,1585,0,3674.0,3670.0,-855.0,-856.0,1586.0,1586.0
3674,-856,1584,0,3675.0,3674.0,-856.0,-855.0,1585.0,1586.0
3671,-856,1581,0,3674.0,3675.0,-856.0,-856.0,1584.0,1585.0
3668,-852,1580,0,3671.0,3674.0,-856.0,-856.0,1581.0,1584.0
3670,-851,1580,0,3668.0,3671.0,-852.0,-856.0,1580.0,1581.0
3665,-852,1576,0,3670.0,3668.0,-851.0,-852.0,1580.0,1580.0
3663,-852,1578,0,3665.0,3670.0,-852.0,-851.0,1576.0,1580.0
3664,-850,1581,0,3663.0,3665.0,-852.0,-852.0,1578.0,1576.0
3663,-848,1581,0,3664.0,3663.0,-850.0,-852.0,1581.0,1578.0
3663,-849,1579,0,3663.0,3664.0,-848.0,-850.0,1581.0,1581.0
3665,-844,1578,0,3663.0,3663.0,-849.0,-848.0,1579.0,1581.0
3667,-846,1579,0,3665.0,3663.0,-844.0,-849.0,1578.0,1579.0
3667,-848,1579,0,3667.0,3665.0,-846.0,-844.0,1579.0,1578.0
3672,-848,1580,0,3667.0,3667.0,-848.0,-846.0,1579.0,1579.0
3673,-846,1584,0,3672.0,3667.0,-848.0,-848.0,1580.0,1579.0
3669,-843,1586,0,3673.0,3672.0,-846.0,-848.0,1584.0,1580.0
3670,-842,1588,0,3669.0,3673.0,-843.0,-846.0,1586.0,1584.0
3669,-847,1588,0,3670.0,3669.0,-842.0,-843.0,1588.0,1586.0
3670,-849,1584,0,3669.0,3670.0,-847.0,-842.0,1588.0,1588.0
3669,-846,1591,0,3670.0,3669.0,-849.0,-847.0,1584.0,1588.0
3666,-843,1584,0,3669.0,3670.0,-846.0,-849.0,1591.0,1584.0
3665,-841,1580,0,3666.0,3669.0,-843.0,-846.0,1584.0,1591.0
3666,-845,1580,0,3665.0,3666.0,-841.0,-843.0,1580.0,1584.0
3665,-842,1583,0,3666.0,3665.0,-845.0,-841.0,1580.0,1580.0
3663,-841,1582,0,3665.0,3666.0,-842.0,-845.0,1583.0,1580.0
3667,-843,1579,0,3663.0,3665.0,-841.0,-842.0,1582.0,1583.0
3668,-840,1579,0,3667.0,3663.0,-843.0,-841.0,1579.0,1582.0
3668,-842,1578,0,3668.0,3667.0,-840.0,-843.0,1579.0,1579.0
3672,-841,1575,0,3668.0,3668.0,-842.0,-840.0,1578.0,1579.0
3669,-841,1577,0,3672.0,3668.0,-841.0,-842.0,1575.0,1578.0
3676,-841,1578,0,3669.0,3672.0,-841.0,-841.0,1577.0,1575.0
3677,-840,1579,0,3676.0,3669.0,-841.0,-841.0,1578.0,1577.0
3676,-843,1577,0,3677.0,3676.0,-840.0,-841.0,1579.0,1578.0
3670,-839,1580,0,3676.0,3677.0,-843.0,-840.0,1577.0,1579.0
3665,-842,1581,0,3670.0,3676.0,-839.0,-843.0,1580.0,1577.0
3668,-840,1581,0,3665.0,3670.0,-842.0,-839.0,1581.0,1580.0
3668,-841,1582,0,3668.0,3665.0,-840.0,-842.0,1581.0,1581.0
3664,-840,1580,0,3668.0,3668.0,-841.0,-840.0,1582.0,1581.0
3661,-842,1581,0,3664.0,3668.0,-840.0,-841.0,1580.0,1582.0
3658,-840,1581,0,3661.0,3664.0,-842.0,-840.0,1581.0,1580.0
3657,-843,1583,0,3658.0,3661.0,-840.0,-842.0,1581.0,1581.0
3661,-845,1580,0,3657.0,3658.0,-843.0,-840.0,1583.0,1581.0
3660,-845,1581,0,3661.0,3657.0,-845.0,-843.0,1580.0,1583.0
3659,-849,1579,0,3660.0,3661.0,-845.0,-845.0,1581.0,1580.0
3659,-847,1583,0,3659.0,3660.0,-849.0,-845.0,1579.0,1581.0
3665,-848,1582,0,3659.0,3659.0,-847.0,-849.0,1583.0,1579.0
3663,-851,1580,0,3665.0,3659.0,-848.0,-847.0,1582.0,1583.0
3664,-852,1585,0,3663.0,3665.0,-851.0,-848.0,1580.0,1582.0
3665,-852,1581,0,3664.0,3663.0,-852.0,-851.0,1585.0,1580.0
3665,-853,1585,0,3665.0,3664.0,-852.0,-852.0,1581.0,1585.0
3665,-854,1584,0,3665.0,3665.0,-853.0,-852.0,1585.0,1581.0
3669,-850,1582,0,3665.0,3665.0,-854.0,-853.0,1584.0,1585.0
3669,-852,1585,0,3669.0,3665.0,-850.0,-854.0,1582.0,1584.0
3670,-851,1583,0,3669.0,3669.0,-852.0,-850.0,1585.0,1582.0
3667,-850,1583,0,3670.0,3669.0,-851.0,-852.0,1583.0,1585.0
3663,-849,1583,0,3667.0,3670.0,-850.0,-851.0,1583.0,1583.0
3663,-845,1585,0,3663.0,3667.0,-849.0,-850.0,1583.0,1583.0
3659,-842,1586,0,3663.0,3663.0,-845.0,-849.0,1585.0,1583.0
3661,-841,1586,0,3659.0,3663.0,-842.0,-845.0,1586.0,1585.0
3667,-843,1588,0,3661.0,3659.0,-841.0,-842.0,1586.0,1586.0
3673,-843,1587,0,3667.0,3661.0,-843.0,-841.0,1588.0,1586.0
3678,-843,1586,0,3673.0,3667.0,-843.0,-843.0,1587.0,1588.0
3678,-843,1588,0,3678.0,3673.0,-843.0,-843.0,1586.0,1587.0
3679,-842,1587,0,3678.0,3678.0,-843.0,-843.0,1588.0,1586.0
3676,-841,1590,0,3679.0,3678.0,-842.0,-843.0,1587.0,1588.0
3675,-838,1589,0,3676.0,3679.0,-841.0,-842.0,1590.0,1587.0
3674,-842,1589,0,3675.0,3676.0,-838.0,-841.0,1589.0,1590.0
3674,-843,1589,0,3674.0,3675.0,-842.0,-838.0,1589.0,1589.0
3673,-843,1586,0,3674.0,3674.0,-843.0,-842.0,1589.0,1589.0
3665,-844,1590,0,3673.0,3674.0,-843.0,-843.0,1586.0,1589.0
3666,-846,1587,0,3665.0,3673.0,-844.0,-843.0,1590.0,1586.0
3664,-847,1585,0,3666.0,3665.0,-846.0,-844.0,1587.0,1590.0
3661,-848,1587,0,3664.0,3666.0,-847.0,-846.0,1585.0,1587.0
3659,-846,1591,0,3661.0,3664.0,-848.0,-847.0,1587.0,1585.0
3654,-844,1589,0,3659.0,3661.0,-846.0,-848.0,1591.0,1587.0
3651,-845,1592,0,3654.0,3659.0,-844.0,-846.0,1589.0,1591.0
3651,-845,1592,0,3651.0,3654.0,-845.0,-844.0,1592.0,1589.0
3659,-845,1587,0,3651.0,3651.0,-845.0,-845.0,1592.0,1592.0
3664,-845,1588,0,3659.0,3651.0,-845.0,-845.0,1587.0,1592.0
3673,-849,1589,0,3664.0,3659.0,-845.0,-845.0,1588.0,1587.0
3675,-847,1589,0,3673.0,3664.0,-849.0,-845.0,1589.0,1588.0
3682,-843,1587,0,3675.0,3673.0,-847.0,-849.0,1589.0,1589.0
3689,-839,1584,0,3682.0,3675.0,-843.0,-847.0,1587.0,1589.0
3699,-839,1581,0,3689.0,3682.0,-839.0,-843.0,1584.0,1587.0
3702,-839,1581,0,3699.0,3689.0,-839.0,-839.0,1581.0,1584.0
3700,-837,1583,0,3702.0,3699.0,-839.0,-839.0,1581.0,1581.0
3694,-833,1584,0,3700.0,3702.0,-837.0,-839.0,1583.0,1581.0
3690,-836,1582,0,3694.0,3700.0,-833.0,-837.0,1584.0,1583.0
3679,-839,1579,0,3690.0,3694.0,-836.0,-833.0,1582.0,1584.0
3666,-836,1578,0,3679.0,3690.0,-839.0,-836.0,1579.0,1582.0
3650,-834,1579,0,3666.0,3679.0,-836.0,-839.0,1578.0,1579.0
3641,-838,1579,0,3650.0,3666.0,-834.0,-836.0,1579.0,1578.0
3635,-839,1580,0,3641.0,3650.0,-838.0,-834.0,1579.0,1579.0
3630,-838,1578,0,3635.0,3641.0,-839.0,-838.0,1580.0,1579.0
3630,-840,1581,0,3630.0,3635.0,-838.0,-839.0,1578.0,1580.0
3635,-844,1578,0,3630.0,3630.0,-840.0,-838.0,1581.0,1578.0
3646,-846,1578,0,3635.0,3630.0,-844.0,-840.0,1578.0,1581.0
3659,-843,1580,0,3646.0,3635.0,-846.0,-844.0,1578.0,1578.0
3664,-840,1581,0,3659.0,3646.0,-843.0,-846.0,1580.0,1578.0
3670,-838,1580,0,3664.0,3659.0,-840.0,-843.0,1581.0,1580.0
3676,-839,1577,0,3670.0,3664.0,-838.0,-840.0,1580.0,1581.0
3683,-837,1572,0,3676.0,3670.0,-839.0,-838.0,1577.0,1580.0
3686,-835,1570,0,3683.0,3676.0,-837.0,-839.0,1572.0,1577.0
3688,-834,1572,0,3686.0,3683.0,-835.0,-837.0,1570.0,1572.0
3691,-834,1570,0,3688.0,3686.0,-834.0,-835.0,1572.0,1570.0
3696,-832,1577,0,3691.0,3688.0,-834.0,-834.0,1570.0,1572.0
3699,-830,1578,0,3696.0,3691.0,-832.0,-834.0,1577.0,1570.0
3701,-833,1581,0,3699.0,3696.0,-830.0,-832.0,1578.0,1577.0
3696,-833,1582,0,3701.0,3699.0,-833.0,-830.0,1581.0,1578.0
3693,-831,1583,0,3696.0,3701.0,-833.0,-833.0,1582.0,1581.0
3691,-832,1584,0,3693.0,3696.0,-831.0,-833.0,1583.0,1582.0
3686,-837,1585,0,3691.0,3693.0,-832.0,-831.0,1584.0,1583.0
3677,-835,1589,0,3686.0,3691.0,-837.0,-832.0,1585.0,1584.0
3674,-836,1596,0,3677.0,3686.0,-835.0,-837.0,1589.0,1585.0
3668,-835,1595,0,3674.0,3677.0,-836.0,-835.0,1596.0,1589.0
3664,-837,1592,0,3668.0,3674.0,-835.0,-836.0,1595.0,1596.0
3655,-840,1591,0,3664.0,3668.0,-837.0,-835.0,1592.0,1595.0
3655,-841,1593,0,3655.0,3664.0,-840.0,-837.0,1591.0,1592.0
3656,-844,1589,0,3655.0,3655.0,-841.0,-840.0,1593.0,1591.0
3653,-847,1582,0,3656.0,3655.0,-844.0,-841.0,1589.0,1593.0
3654,-849,1584,0,3653.0,3656.0,-847.0,-844.0,1582.0,1589.0
3653,-851,1583,0,3654.0,3653.0,-849.0,-847.0,1584.0,1582.0
3657,-853,1584,0,3653.0,3654.0,-851.0,-849.0,1583.0,1584.0
3658,-854,1589,0,3657.0,3653.0,-853.0,-851.0,1584.0,1583.0
3661,-853,1588,0,3658.0,3657.0,-854.0,-853.0,1589.0,1584.0
3662,-857,1583,0,3661.0,3658.0,-853.0,-854.0,1588.0,1589.0
3665,-855,1581,0,3662.0,3661.0,-857.0,-853.0,1583.0,1588.0
3663,-850,1583,0,3665.0,3662.0,-855.0,-857.0,1581.0,1583.0
3662,-844,1584,0,3663.0,3665.0,-850.0,-855.0,1583.0,1581.0
3661,-840,1583,0,3662.0,3663.0,-844.0,-850.0,1584.0,1583.0
3659,-839,1589,0,3661.0,3662.0,-840.0,-844.0,1583.0,1584.0
3660,-838,1588,0,3659.0,3661.0,-839.0,-840.0,1589.0,1583.0
3662,-839,1590,0,3660.0,3659.0,-838.0,-839.0,1588.0,1589.0
3663,-840,1588,0,3662.0,3660.0,-839.0,-838.0,1590.0,1588.0
3660,-839,1587,0,3663.0,3662.0,-840.0,-839.0,1588.0,1590.0
3663,-837,1588,0,3660.0,3663.0,-839.0,-840.0,1587.0,1588.0
3663,-838,1588,0,3663.0,3660.0,-837.0,-839.0,1588.0,1587.0
3662,-836,1587,0,3663.0,3663.0,-838.0,-837.0,1588.0,1588.0
3664,-842,1588,0,3662.0,3663.0,-836.0,-838.0,1587.0,1588.0
3665,-842,1585,0,3664.0,3662.0,-842.0,-836.0,1588.0,1587.0
3665,-846,1586,0,3665.0,3664.0,-842.0,-842.0,1585.0,1588.0
3664,-846,1583,0,3665.0,3665.0,-846.0,-842.0,1586.0,1585.0
3671,-848,1579,0,3664.0,3665.0,-846.0,-846.0,1583.0,1586.0
3672,-849,1578,0,3671.0,3664.0,-848.0,-846.0,1579.0,1583.0
3670,-844,1579,0,3672.0,3671.0,-849.0,-848.0,1578.0,1579.0
3669,-844,1578,0,3670.0,3672.0,-844.0,-849.0,1579.0,1578.0
3667,-842,1578,0,3669.0,3670.0,-844.0,-844.0,1578.0,1579.0
3662,-838,1582,0,3667.0,3669.0,-842.0,-844.0,1578.0,1578.0
3656,-837,1585,0,3662.0,3667.0,-838.0,-842.0,1582.0,1578.0
3651,-836,1586,0,3656.0,3662.0,-837.0,-838.0,1585.0,1582.0
3653,-837,1587,0,3651.0,3656.0,-836.0,-837.0,1586.0,1585.0
3656,-837,1593,0,3653.0,3651.0,-837.0,-836.0,1587.0,1586.0
3658,-834,1597,0,3656.0,3653.0,-837.0,-837.0,1593.0,1587.0
3659,-833,1599,0,3658.0,3656.0,-834.0,-837.0,1597.0,1593.0
3663,-834,1599,0,3659.0,3658.0,-833.0,-834.0,1599.0,1597.0
3661,-840,1599,0,3663.0,3659.0,-834.0,-833.0,1599.0,1599.0
3665,-840,1600,0,3661.0,3663.0,-840.0,-834.0,1599.0,1599.0
3663,-843,1596,0,3665.0,3661.0,-840.0,-840.0,1600.0,1599.0
3667,-844,1593,0,3663.0,3665.0,-843.0,-840.0,1596.0,1600.0
3666,-841,1590,0,3667.0,3663.0,-844.0,-843.0,1593.0,1596.0
3673,-844,1588,0,3666.0,3667.0,-841.0,-844.0,1590.0,1593.0
3675,-843,1590,0,3673.0,3666.0,-844.0,-841.0,1588.0,1590.0
3674,-842,1589,0,3675.0,3673.0,-843.0,-844.0,1590.0,1588.0
3671,-842,1587,0,3674.0,3675.0,-842.0,-843.0,1589.0,1590.0
3670,-841,1586,0,3671.0,3674.0,-842.0,-842.0,1587.0,1589.0
3665,-844,1591,0,3670.0,3671.0,-841.0,-842.0,1586.0,1587.0
3662,-843,1590,0,3665.0,3670.0,-844.0,-841.0,1591.0,1586.0
3660,-842,1592,0,3662.0,3665.0,-843.0,-844.0,1590.0,1591.0
3657,-844,1596,0,3660.0,3662.0,-842.0,-843.0,1592.0,1590.0
3656,-849,1599,0,3657.0,3660.0,-844.0,-842.0,1596.0,1592.0
3657,-848,1600,0,3656.0,3657.0,-849.0,-844.0,1599.0,1596.0
3660,-850,1603,0,3657.0,3656.0,-848.0,-849.0,1600.0,1599.0
3657,-850,1604,0,3660.0,3657.0,-850.0,-848.0,1603.0,1600.0
3656,-848,1603,0,3657.0,3660.0,-850.0,-850.0,1604.0,1603.0
3659,-849,1602,0,3656.0,3657.0,-848.0,-850.0,1603.0,1604.0
3659,-848,1601,0,3659.0,3656.0,-849.0,-848.0,1602.0,1603.0
3657,-846,1600,0,3659.0,3659.0,-848.0,-849.0,1601.0,1602.0
3660,-848,1599,0,3657.0,3659.0,-846.0,-848.0,1600.0,1601.0
3662,-849,1596,0,3660.0,3657.0,-848.0,-846.0,1599.0,1600.0
3664,-854,1596,0,3662.0,3660.0,-849.0,-848.0,1596.0,1599.0
3668,-855,1596,0,3664.0,3662.0,-854.0,-849.0,1596.0,1596.0
3668,-855,1595,0,3668.0,3664.0,-855.0,-854.0,1596.0,1596.0
3667,-853,1592,0,3668.0,3668.0,-855.0,-855.0,1595.0,1596.0
3667,-849,1591,0,3667.0,3668.0,-853.0,-855.0,1592.0,1595.0
3670,-848,1589,0,3667.0,3667.0,-849.0,-853.0,1591.0,1592.0
3670,-846,1587,0,3670.0,3667.0,-848.0,-849.0,1589.0,1591.0
3667,-851,1587,0,3670.0,3670.0,-846.0,-848.0,1587.0,1589.0
3665,-850,1588,0,3667.0,3670.0,-851.0,-846.0,1587.0,1587.0
3665,-850,1587,0,3665.0,3667.0,-850.0,-851.0,1588.0,1587.0
3666,-849,1587,0,3665.0,3665.0,-850.0,-850.0,1587.0,1588.0
3663,-851,1588,0,3666.0,3665.0,-849.0,-850.0,1587.0,1587.0
3663,-849,1590,0,3663.0,3666.0,-851.0,-849.0,1588.0,1587.0
3663,-850,1583,0,3663.0,3663.0,-849.0,-851.0,1590.0,1588.0
3661,-847,1582,0,3663.0,3663.0,-850.0,-849.0,1583.0,1590.0
3661,-846,1587,0,3661.0,3663.0,-847.0,-850.0,1582.0,1583.0
3659,-843,1587,0,3661.0,3661.0,-846.0,-847.0,1587.0,1582.0
3663,-841,1587,0,3659.0,3661.0,-843.0,-846.0,1587.0,1587.0
3664,-845,1591,0,3663.0,3659.0,-841.0,-843.0,1587.0,1587.0
3669,-842,1592,0,3664.0,3663.0,-845.0,-841.0,1591.0,1587.0
3667,-838,1590,0,3669.0,3664.0,-842.0,-845.0,1592.0,1591.0
3669,-836,1592,0,3667.0,3669.0,-838.0,-842.0,1590.0,1592.0
3668,-832,1590,0,3669.0,3667.0,-836.0,-838.0,1592.0,1590.0
3664,-833,1590,0,3668.0,3669.0,-832.0,-836.0,1590.0,1592.0
3664,-836,1590,0,3664.0,3668.0,-833.0,-832.0,1590.0,1590.0
3667,-839,1588,0,3664.0,3664.0,-836.0,-833.0,1590.0,1590.0
3667,-841,1589,0,3667.0,3664.0,-839.0,-836.0,1588.0,1590.0
3668,-841,1590,0,3667.0,3667.0,-841.0,-839.0,1589.0,1588.0
3669,-845,1588,0,3668.0,3667.0,-841.0,-841.0,1590.0,1589.0
3664,-840,1591,0,3669.0,3668.0,-845.0,-841.0,1588.0,1590.0
3663,-839,1589,0,3664.0,3669.0,-840.0,-845.0,1591.0,1588.0
3661,-839,1588,0,3663.0,3664.0,-839.0,-840.0,1589.0,1591.0
3658,-840,1588,0,3661.0,3663.0,-839.0,-839.0,1588.0,1589.0
3657,-838,1589,0,3658.0,3661.0,-840.0,-839.0,1588.0,1588.0
3658,-837,1582,0,3657.0,3658.0,-838.0,-840.0,1589.0,1588.0
3659,-839,1585,0,3658.0,3657.0,-837.0,-838.0,1582.0,1589.0
3658,-840,1586,0,3659.0,3658.0,-839.0,-837.0,1585.0,1582.0
3661,-842,1583,0,3658.0,3659.0,-840.0,-839.0,1586.0,1585.0
3661,-839,1582,0,3661.0,3658.0,-842.0,-840.0,1583.0,1586.0
3662,-840,1585,0,3661.0,3661.0,-839.0,-842.0,1582.0,1583.0
3661,-841,1588,0,3662.0,3661.0,-840.0,-839.0,1585.0,1582.0
3662,-839,1589,0,3661.0,3662.0,-841.0,-840.0,1588.0,1585.0
3665,-842,1592,0,3662.0,3661.0,-839.0,-841.0,1589.0,1588.0
3665,-841,1588,0,3665.0,3662.0,-842.0,-839.0,1592.0,1589.0
3667,-840,1585,0,3665.0,3665.0,-841.0,-842.0,1588.0,1592.0
3666,-843,1587,0,3667.0,3665.0,-840.0,-841.0,1585.0,1588.0
3666,-845,1589,0,3666.0,3667.0,-843.0,-840.0,1587.0,1585.0
3666,-844,1590,0,3666.0,3666.0,-845.0,-843.0,1589.0,1587.0
3666,-845,1586,0,3666.0,3666.0,-844.0,-845.0,1590.0,1589.0
3664,-843,1586,0,3666.0,3666.0,-845.0,-844.0,1586.0,1590.0
3663,-844,1587,0,3664.0,3666.0,-843.0,-845.0,1586.0,1586.0
3665,-841,1587,0,3663.0,3664.0,-844.0,-843.0,1587.0,1586.0
3665,-845,1591,0,3665.0,3663.0,-841.0,-844.0,1587.0,1587.0
3668,-844,1591,0,3665.0,3665.0,-845.0,-841.0,1591.0,1587.0
3669,-843,1590,0,3668.0,3665.0,-844.0,-845.0,1591.0,1591.0
3673,-844,1593,0,3669.0,3668.0,-843.0,-844.0,1590.0,1591.0
3667,-844,1589,0,3673.0,3669.0,-844.0,-843.0,1593.0,1590.0
3666,-845,1587,0,3667.0,3673.0,-844.0,-844.0,1589.0,1593.0
3668,-840,1591,0,3666.0,3667.0,-845.0,-844.0,1587.0,1589.0
3666,-845,1595,0,3668.0,3666.0,-840.0,-845.0,1591.0,1587.0
3667,-844,1597,0,3666.0,3668.0,-845.0,-840.0,1595.0,1591.0
3667,-846,1595,0,3667.0,3666.0,-844.0,-845.0,1597.0,1595.0
3665,-844,1594,0,3667.0,3667.0,-846.0,-844.0,1595.0,1597.0
3664,-846,1591,0,3665.0,3667.0,-844.0,-846.0,1594.0,1595.0
3661,-846,1592,0,3664.0,3665.0,-846.0,-844.0,1591.0,1594.0
3658,-845,1595,0,3661.0,3664.0,-846.0,-846.0,1592.0,1591.0
3656,-846,1592,0,3658.0,3661.0,-845.0,-846.0,1595.0,1592.0
3655,-846,1588,0,3656.0,3658.0,-846.0,-845.0,1592.0,1595.0
3654,-846,1589,0,3655.0,3656.0,-846.0,-846.0,1588.0,1592.0
3657,-842,1592,0,3654.0,3655.0,-846.0,-846.0,1589.0,1588.0
3656,-839,1594,0,3657.0,3654.0,-842.0,-846.0,1592.0,1589.0
3654,-841,1593,0,3656.0,3657.0,-839.0,-842.0,1594.0,1592.0
3652,-839,1591,0,3654.0,3656.0,-841.0,-839.0,1593.0,1594.0
3652,-838,1591,0,3652.0,3654.0,-839.0,-841.0,1591.0,1593.0
3656,-837,1594,0,3652.0,3652.0,-838.0,-839.0,1591.0,1591.0
3660,-840,1596,0,3656.0,3652.0,-837.0,-838.0,1594.0,1591.0
3667,-840,1598,0,3660.0,3656.0,-840.0,-837.0,1596.0,1594.0
3669,-837,1598,0,3667.0,3660.0,-840.0,-840.0,1598.0,1596.0
3673,-838,1596,0,3669.0,3667.0,-837.0,-840.0,1598.0,1598.0
3677,-840,1598,0,3673.0,3669.0,-838.0,-837.0,1596.0,1598.0
3679,-849,1594,0,3677.0,3673.0,-840.0,-838.0,1598.0,1596.0
3679,-849,1591,0,3679.0,3677.0,-849.0,-840.0,1594.0,1598.0
3679,-845,1588,0,3679.0,3679.0,-849.0,-849.0,1591.0,1594.0
3680,-846,1586,0,3679.0,3679.0,-845.0,-849.0,1588.0,1591.0
3681,-847,1584,0,3680.0,3679.0,-846.0,-845.0,1586.0,1588.0
3674,-846,1584,0,3681.0,3680.0,-847.0,-846.0,1584.0,1586.0
3673,-846,1585,0,3674.0,3681.0,-846.0,-847.0,1584.0,1584.0
3670,-844,1586,0,3673.0,3674.0,-846.0,-846.0,1585.0,1584.0
3664,-841,1587,0,3670.0,3673.0,-844.0,-846.0,1586.0,1585.0
3653,-840,1591,0,3664.0,3670.0,-841.0,-844.0,1587.0,1586.0
3648,-839,1592,0,3653.0,3664.0,-840.0,-841.0,1591.0,1587.0
3649,-839,1589,0,3648.0,3653.0,-839.0,-840.0,1592.0,1591.0
3652,-841,1593,0,3649.0,3648.0,-839.0,-839.0,1589.0,1592.0
3655,-842,1593,0,3652.0,3649.0,-841.0,-839.0,1593.0,1589.0
3656,-843,1595,0,3655.0,3652.0,-842.0,-841.0,1593.0,1593.0
3659,-844,1594,0,3656.0,3655.0,-843.0,-842.0,1595.0,1593.0
3663,-841,1597,0,3659.0,3656.0,-844.0,-843.0,1594.0,1595.0
3671,-835,1594,0,3663.0,3659.0,-841.0,-844.0,1597.0,1594.0
3678,-834,1590,0,3671.0,3663.0,-835.0,-841.0,1594.0,1597.0
3680,-836,1590,0,3678.0,3671.0,-834.0,-835.0,1590.0,1594.0
3686,-834,1592,0,3680.0,3678.0,-836.0,-834.0,1590.0,1590.0
3691,-837,1587,0,3686.0,3680.0,-834.0,-836.0,1592.0,1590.0
3689,-838,1583,0,3691.0,3686.0,-837.0,-834.0,1587.0,1592.0
3686,-840,1580,0,3689.0,3691.0,-838.0,-837.0,1583.0,1587.0
3678,-835,1576,0,3686.0,3689.0,-840.0,-838.0,1580.0,1583.0
3665,-837,1579,0,3678.0,3686.0,-835.0,-840.0,1576.0,1580.0
3655,-835,1579,0,3665.0,3678.0,-837.0,-835.0,1579.0,1576.0
3646,-835,1579,0,3655.0,3665.0,-835.0,-837.0,1579.0,1579.0
3642,-834,1579,0,3646.0,3655.0,-835.0,-835.0,1579.0,1579.0
3643,-832,1580,0,3642.0,3646.0,-834.0,-835.0,1579.0,1579.0
3645,-833,1582,0,3643.0,3642.0,-832.0,-834.0,1580.0,1579.0
3649,-833,1583,0,3645.0,3643.0,-833.0,-832.0,1582.0,1580.0
3656,-834,1585,0,3649.0,3645.0,-833.0,-833.0,1583.0,1582.0
3660,-836,1586,0,3656.0,3649.0,-834.0,-833.0,1585.0,1583.0
3664,-836,1585,0,3660.0,3656.0,-836.0,-834.0,1586.0,1585.0
3668,-839,1582,0,3664.0,3660.0,-836.0,-836.0,1585.0,1586.0
3671,-841,1580,0,3668.0,3664.0,-839.0,-836.0,1582.0,1585.0
3676,-839,1579,0,3671.0,3668.0,-841.0,-839.0,1580.0,1582.0
3680,-842,1579,0,3676.0,3671.0,-839.0,-841.0,1579.0,1580.0
3684,-845,1580,0,3680.0,3676.0,-842.0,-839.0,1579.0,1579.0
3685,-842,1587,0,3684.0,3680.0,-845.0,-842.0,1580.0,1579.0
3690,-840,1588,0,3685.0,3684.0,-842.0,-845.0,1587.0,1580.0
3692,-838,1585,0,3690.0,3685.0,-840.0,-842.0,1588.0,1587.0
3693,-841,1585,0,3692.0,3690.0,-838.0,-840.0,1585.0,1588.0
3691,-843,1587,0,3693.0,3692.0,-841.0,-838.0,1585.0,1585.0
3692,-841,1589,0,3691.0,3693.0,-843.0,-841.0,1587.0,1585.0
3687,-839,1593,0,3692.0,3691.0,-841.0,-843.0,1589.0,1587.0
3685,-839,1595,0,3687.0,3692.0,-839.0,-841.0,1593.0,1589.0
3679,-837,1595,0,3685.0,3687.0,-839.0,-839.0,1595.0,1593.0
3677,-837,1597,0,3679.0,3685.0,-837.0,-839.0,1595.0,1595.0
3675,-838,1600,0,3677.0,3679.0,-837.0,-837.0,1597.0,1595.0
3669,-841,1603,0,3675.0,3677.0,-838.0,-837.0,1600.0,1597.0
3667,-844,1603,0,3669.0,3675.0,-841.0,-838.0,1603.0,1600.0
3663,-845,1604,0,3667.0,3669.0,-844.0,-841.0,1603.0,1603.0
3662,-845,1600,0,3663.0,3667.0,-845.0,-844.0,1604.0,1603.0
3660,-849,1598,0,3662.0,3663.0,-845.0,-845.0,1600.0,1604.0
3662,-855,1595,0,3660.0,3662.0,-849.0,-845.0,1598.0,1600.0
3662,-860,1596,0,3662.0,3660.0,-855.0,-849.0,1595.0,1598.0
3663,-861,1592,0,3662.0,3662.0,-860.0,-855.0,1596.0,1595.0
3663,-860,1587,0,3663.0,3662.0,-861.0,-860.0,1592.0,1596.0
3661,-857,1586,0,3663.0,3663.0,-860.0,-861.0,1587.0,1592.0
3658,-854,1588,0,3661.0,3663.0,-857.0,-860.0,1586.0,1587.0
3657,-852,1590,0,3658.0,3661.0,-854.0,-857.0,1588.0,1586.0
3658,-855,1590,0,3657.0,3658.0,-852.0,-854.0,1590.0,1588.0
3658,-856,1588,0,3658.0,3657.0,-855.0,-852.0,1590.0,1590.0
3659,-856,1591,0,3658.0,3658.0,-856.0,-855.0,1588.0,1590.0
3660,-853,1592,0,3659.0,3658.0,-856.0,-856.0,1591.0,1588.0
3657,-849,1596,0,3660.0,3659.0,-853.0,-856.0,1592.0,1591.0
3660,-849,1595,0,3657.0,3660.0,-849.0,-853.0,1596.0,1592.0
3660,-844,1595,0,3660.0,3657.0,-849.0,-849.0,1595.0,1596.0
3662,-842,1599,0,3660.0,3660.0,-844.0,-849.0,1595.0,1595.0
3663,-843,1595,0,3662.0,3660.0,-842.0,-844.0,1599.0,1595.0
3663,-842,1592,0,3663.0,3662.0,-843.0,-842.0,1595.0,1599.0
3660,-840,1586,0,3663.0,3663.0,-842.0,-843.0,1592.0,1595.0
3662,-843,1588,0,3660.0,3663.0,-840.0,-842.0,1586.0,1592.0
3663,-847,1584,0,3662.0,3660.0,-843.0,-840.0,1588.0,1586.0
3662,-848,1581,0,3663.0,3662.0,-847.0,-843.0,1584.0,1588.0
3663,-845,1579,0,3662.0,3663.0,-848.0,-847.0,1581.0,1584.0
3660,-840,1574,0,3663.0,3662.0,-845.0,-848.0,1579.0,1581.0
3661,-842,1572,0,3660.0,3663.0,-840.0,-845.0,1574.0,1579.0
3662,-840,1574,0,3661.0,3660.0,-842.0,-840.0,1572.0,1574.0
3663,-840,1575,0,3662.0,3661.0,-840.0,-842.0,1574.0,1572.0
3662,-841,1577,0,3663.0,3662.0,-840.0,-840.0,1575.0,1574.0
3661,-838,1584,0,3662.0,3663.0,-841.0,-840.0,1577.0,1575.0
3656,-832,1586,0,3661.0,3662.0,-838.0,-841.0,1584.0,1577.0
3656,-831,1589,0,3656.0,3661.0,-832.0,-838.0,1586.0,1584.0
3660,-830,1596,0,3656.0,3656.0,-831.0,-832.0,1589.0,1586.0
3657,-832,1599,0,3660.0,3656.0,-830.0,-831.0,1596.0,1589.0
3660,-835,1599,0,3657.0,3660.0,-832.0,-830.0,1599.0,1596.0
3659,-839,1600,0,3660.0,3657.0,-835.0,-832.0,1599.0,1599.0
3658,-841,1601,0,3659.0,3660.0,-839.0,-835.0,1600.0,1599.0
3660,-842,1599,0,3658.0,3659.0,-841.0,-839.0,1601.0,1600.0
3657,-845,1599,0,3660.0,3658.0,-842.0,-841.0,1599.0,1601.0
3657,-843,1599,0,3657.0,3660.0,-845.0,-842.0,1599.0,1599.0
3658,-845,1594,0,3657.0,3657.0,-843.0,-845.0,1599.0,1599.0
3658,-845,1592,0,3658.0,3657.0,-845.0,-843.0,1594.0,1599.0
3661,-846,1588,0,3658.0,3658.0,-845.0,-845.0,1592.0,1594.0
3663,-846,1586,0,3661.0,3658.0,-846.0,-845.0,1588.0,1592.0
3663,-846,1586,0,3663.0,3661.0,-846.0,-846.0,1586.0,1588.0
3662,-844,1588,0,3663.0,3663.0,-846.0,-846.0,1586.0,1586.0
3660,-842,1586,0,3662.0,3663.0,-844.0,-846.0,1588.0,1586.0
3662,-843,1591,0,3660.0,3662.0,-842.0,-844.0,1586.0,1588.0
3666,-849,1591,0,3662.0,3660.0,-843.0,-842.0,1591.0,1586.0
3667,-849,1594,0,3666.0,3662.0,-849.0,-843.0,1591.0,1591.0
3671,-850,1594,0,3667.0,3666.0,-849.0,-849.0,1594.0,1591.0
3669,-846,1593,0,3671.0,3667.0,-850.0,-849.0,1594.0,1594.0
3667,-852,1597,0,3669.0,3671.0,-846.0,-850.0,1593.0,1594.0
3667,-853,1596,0,3667.0,3669.0,-852.0,-846.0,1597.0,1593.0
3667,-854,1596,0,3667.0,3667.0,-853.0,-852.0,1596.0,1597.0
3671,-854,1597,0,3667.0,3667.0,-854.0,-853.0,1596.0,1596.0
3667,-857,1594,0,3671.0,3667.0,-854.0,-854.0,1597.0,1596.0
3666,-857,1589,0,3667.0,3671.0,-857.0,-854.0,1594.0,1597.0
3660,-857,1588,0,3666.0,3667.0,-857.0,-857.0,1589.0,1594.0
3659,-859,1585,0,3660.0,3666.0,-857.0,-857.0,1588.0,1589.0
3659,-857,1587,0,3659.0,3660.0,-859.0,-857.0,1585.0,1588.0
3661,-860,1583,0,3659.0,3659.0,-857.0,-859.0,1587.0,1585.0
3661,-859,1582,0,3661.0,3659.0,-860.0,-857.0,1583.0,1587.0
3664,-856,1576,0,3661.0,3661.0,-859.0,-860.0,1582.0,1583.0
3662,-858,1575,0,3664.0,3661.0,-856.0,-859.0,1576.0,1582.0
3665,-857,1573,0,3662.0,3664.0,-858.0,-856.0,1575.0,1576.0
3669,-857,1575,0,3665.0,3662.0,-857.0,-858.0,1573.0,1575.0
3670,-857,1574,0,3669.0,3665.0,-857.0,-857.0,1575.0,1573.0
3672,-856,1574,0,3670.0,3669.0,-857.0,-857.0,1574.0,1575.0
3669,-853,1570,0,3672.0,3670.0,-856.0,-857.0,1574.0,1574.0
3672,-850,1570,0,3669.0,3672.0,-853.0,-856.0,1570.0,1574.0
3672,-853,1570,0,3672.0,3669.0,-850.0,-853.0,1570.0,1570.0
3669,-850,1570,0,3672.0,3672.0,-853.0,-850.0,1570.0,1570.0
3675,-849,1572,0,3669.0,3672.0,-850.0,-853.0,1570.0,1570.0
3671,-845,1572,0,3675.0,3669.0,-849.0,-850.0,1572.0,1570.0
3668,-842,1570,0,3671.0,3675.0,-845.0,-849.0,1572.0,1572.0
3668,-842,1569,0,3668.0,3671.0,-842.0,-845.0,1570.0,1572.0
3669,-843,1568,0,3668.0,3668.0,-842.0,-842.0,1569.0,1570.0
3668,-842,1570,0,3669.0,3668.0,-843.0,-842.0,1568.0,1569.0
3675,-842,1573,0,3668.0,3669.0,-842.0,-843.0,1570.0,1568.0
3677,-842,1571,0,3675.0,3668.0,-842.0,-842.0,1573.0,1570.0
3671,-842,1569,0,3677.0,3675.0,-842.0,-842.0,1571.0,1573.0
3674,-841,1570,0,3671.0,3677.0,-842.0,-842.0,1569.0,1571.0
3677,-840,1569,0,3674.0,3671.0,-841.0,-842.0,1570.0,1569.0
3681,-841,1569,0,3677.0,3674.0,-840.0,-841.0,1569.0,1570.0
3678,-839,1570,0,3681.0,3677.0,-841.0,-840.0,1569.0,1569.0
3679,-842,1569,0,3678.0,3681.0,-839.0,-841.0,1570.0,1569.0
3681,-845,1566,0,3679.0,3678.0,-842.0,-839.0,1569.0,1570.0
3679,-846,1562,0,3681.0,3679.0,-845.0,-842.0,1566.0,1569.0
3681,-846,1559,0,3679.0,3681.0,-846.0,-845.0,1562.0,1566.0
3681,-844,1555,0,3681.0,3679.0,-846.0,-846.0,1559.0,1562.0
3681,-849,1551,0,3681.0,3681.0,-844.0,-846.0,1555.0,1559.0
3681,-847,1551,0,3681.0,3681.0,-849.0,-844.0,1551.0,1555.0
3677,-845,1555,0,3681.0,3681.0,-847.0,-849.0,1551.0,1551.0
3679,-842,1553,0,3677.0,3681.0,-845.0,-847.0,1555.0,1551.0
3677,-845,1552,0,3679.0,3677.0,-842.0,-845.0,1553.0,1555.0
3681,-847,1556,0,3677.0,3679.0,-845.0,-842.0,1552.0,1553.0
3682,-849,1561,0,3681.0,3677.0,-847.0,-845.0,1556.0,1552.0
3679,-848,1558,0,3682.0,3681.0,-849.0,-847.0,1561.0,1556.0
3683,-846,1558,0,3679.0,3682.0,-848.0,-849.0,1558.0,1561.0
3686,-847,1561,0,3683.0,3679.0,-846.0,-848.0,1558.0,1558.0
3686,-852,1559,0,3686.0,3683.0,-847.0,-846.0,1561.0,1558.0
3686,-857,1558,0,3686.0,3686.0,-852.0,-847.0,1559.0,1561.0
3684,-851,1554,0,3686.0,3686.0,-857.0,-852.0,1558.0,1559.0
3683,-851,1556,0,3684.0,3686.0,-851.0,-857.0,1554.0,1558.0
3683,-852,1555,0,3683.0,3684.0,-851.0,-851.0,1556.0,1554.0
3682,-853,1553,0,3683.0,3683.0,-852.0,-851.0,1555.0,1556.0
3682,-850,1552,0,3682.0,3683.0,-853.0,-852.0,1553.0,1555.0
3677,-851,1550,0,3682.0,3682.0,-850.0,-853.0,1552.0,1553.0
3679,-846,1549,0,3677.0,3682.0,-851.0,-850.0,1550.0,1552.0
3680,-846,1549,0,3679.0,3677.0,-846.0,-851.0,1549.0,1550.0
3677,-847,1550,0,3680.0,3679.0,-846.0,-846.0,1549.0,1549.0
3678,-849,1547,0,3677.0,3680.0,-847.0,-846.0,1550.0,1549.0
3680,-845,1544,0,3678.0,3677.0,-849.0,-847.0,1547.0,1550.0
3682,-847,1546,0,3680.0,3678.0,-845.0,-849.0,1544.0,1547.0
3679,-846,1544,0,3682.0,3680.0,-847.0,-845.0,1546.0,1544.0
3680,-845,1547,0,3679.0,3682.0,-846.0,-847.0,1544.0,1546.0
3678,-848,1547,0,3680.0,3679.0,-845.0,-846.0,1547.0,1544.0
3681,-845,1548,0,3678.0,3680.0,-848.0,-845.0,1547.0,1547.0
3682,-844,1546,0,3681.0,3678.0,-845.0,-848.0,1548.0,1547.0
3685,-843,1548,0,3682.0,3681.0,-844.0,-845.0,1546.0,1548.0
3686,-842,1547,0,3685.0,3682.0,-843.0,-844.0,1548.0,1546.0
3687,-844,1546,0,3686.0,3685.0,-842.0,-843.0,1547.0,1548.0
3687,-841,1546,0,3687.0,3686.0,-844.0,-842.0,1546.0,1547.0
3685,-844,1543,0,3687.0,3687.0,-841.0,-844.0,1546.0,1546.0
3686,-844,1544,0,3685.0,3687.0,-844.0,-841.0,1543.0,1546.0
3686,-847,1540,0,3686.0,3685.0,-844.0,-844.0,1544.0,1543.0
3686,-848,1537,0,3686.0,3686.0,-847.0,-844.0,1540.0,1544.0
3685,-841,1539,0,3686.0,3686.0,-848.0,-847.0,1537.0,1540.0
3682,-841,1537,0,3685.0,3686.0,-841.0,-848.0,1539.0,1537.0
3683,-843,1535,0,3682.0,3685.0,-841.0,-841.0,1537.0,1539.0
3683,-843,1537,0,3683.0,3682.0,-843.0,-841.0,1535.0,1537.0
3677,-842,1540,0,3683.0,3683.0,-843.0,-843.0,1537.0,1535.0
3682,-843,1541,0,3677.0,3683.0,-842.0,-843.0,1540.0,1537.0
3686,-838,1544,0,3682.0,3677.0,-843.0,-842.0,1541.0,1540.0
3689,-839,1544,0,3686.0,3682.0,-838.0,-843.0,1544.0,1541.0
3692,-837,1542,0,3689.0,3686.0,-839.0,-838.0,1544.0,1544.0
3692,-834,1541,0,3692.0,3689.0,-837.0,-839.0,1542.0,1544.0
3694,-834,1536,0,3692.0,3692.0,-834.0,-837.0,1541.0,1542.0
3696,-834,1535,0,3694.0,3692.0,-834.0,-834.0,1536.0,1541.0
3697,-835,1532,0,3696.0,3694.0,-834.0,-834.0,1535.0,1536.0
3700,-838,1532,0,3697.0,3696.0,-835.0,-834.0,1532.0,1535.0
3702,-835,1535,0,3700.0,3697.0,-838.0,-835.0,1532.0,1532.0
3701,-835,1536,0,3702.0,3700.0,-835.0,-838.0,1535.0,1532.0
3702,-840,1533,0,3701.0,3702.0,-835.0,-835.0,1536.0,1535.0
3701,-845,1530,0,3702.0,3701.0,-840.0,-835.0,1533.0,1536.0
3700,-848,1529,0,3701.0,3702.0,-845.0,-840.0,1530.0,1533.0
3696,-850,1526,0,3700.0,3701.0,-848.0,-845.0,1529.0,1530.0
3698,-849,1523,0,3696.0,3700.0,-850.0,-848.0,1526.0,1529.0
3693,-848,1526,0,3698.0,3696.0,-849.0,-850.0,1523.0,1526.0
3689,-847,1525,0,3693.0,3698.0,-848.0,-849.0,1526.0,1523.0
3685,-847,1523,0,3689.0,3693.0,-847.0,-848.0,1525.0,1526.0
3686,-848,1525,0,3685.0,3689.0,-847.0,-847.0,1523.0,1525.0
3685,-849,1523,0,3686.0,3685.0,-848.0,-847.0,1525.0,1523.0
3689,-850,1521,0,3685.0,3686.0,-849.0,-848.0,1523.0,1525.0
3692,-850,1521,0,3689.0,3685.0,-850.0,-849.0,1521.0,1523.0
3695,-848,1519,0,3692.0,3689.0,-850.0,-850.0,1521.0,1521.0
3695,-846,1522,0,3695.0,3692.0,-848.0,-850.0,1519.0,1521.0
3694,-841,1522,0,3695.0,3695.0,-846.0,-848.0,1522.0,1519.0
3699,-842,1523,0,3694.0,3695.0,-841.0,-846.0,1522.0,1522.0
3708,-839,1518,0,3699.0,3694.0,-842.0,-841.0,1523.0,1522.0
3711,-838,1517,0,3708.0,3699.0,-839.0,-842.0,1518.0,1523.0
3709,-838,1517,0,3711.0,3708.0,-838.0,-839.0,1517.0,1518.0
3704,-839,1516,0,3709.0,3711.0,-838.0,-838.0,1517.0,1517.0
3698,-842,1516,0,3704.0,3709.0,-839.0,-838.0,1516.0,1517.0
3689,-846,1515,0,3698.0,3704.0,-842.0,-839.0,1516.0,1516.0
3680,-849,1512,0,3689.0,3698.0,-846.0,-842.0,1515.0,1516.0
3678,-847,1506,0,3680.0,3689.0,-849.0,-846.0,1512.0,1515.0
3675,-847,1505,0,3678.0,3680.0,-847.0,-849.0,1506.0,1512.0
3675,-844,1507,0,3675.0,3678.0,-847.0,-847.0,1505.0,1506.0
3680,-835,1509,0,3675.0,3675.0,-844.0,-847.0,1507.0,1505.0
3684,-829,1509,0,3680.0,3675.0,-835.0,-844.0,1509.0,1507.0
3691,-833,1515,0,3684.0,3680.0,-829.0,-835.0,1509.0,1509.0
3698,-836,1514,0,3691.0,3684.0,-833.0,-829.0,1515.0,1509.0
3701,-836,1507,0,3698.0,3691.0,-836.0,-833.0,1514.0,1515.0
3709,-835,1506,0,3701.0,3698.0,-836.0,-836.0,1507.0,1514.0
3719,-837,1506,0,3709.0,3701.0,-835.0,-836.0,1506.0,1507.0
3721,-834,1510,0,3719.0,3709.0,-837.0,-835.0,1506.0,1506.0
3725,-829,1508,0,3721.0,3719.0,-834.0,-837.0,1510.0,1506.0
3728,-829,1510,0,3725.0,3721.0,-829.0,-834.0,1508.0,1510.0
3727,-829,1511,0,3728.0,3725.0,-829.0,-829.0,1510.0,1508.0
3723,-830,1515,0,3727.0,3728.0,-829.0,-829.0,1511.0,1510.0
3720,-830,1517,0,3723.0,3727.0,-830.0,-829.0,1515.0,1511.0
3715,-833,1517,0,3720.0,3723.0,-830.0,-830.0,1517.0,1515.0
3707,-837,1520,0,3715.0,3720.0,-833.0,-830.0,1517.0,1517.0
3703,-840,1519,0,3707.0,3715.0,-837.0,-833.0,1520.0,1517.0
3697,-841,1525,0,3703.0,3707.0,-840.0,-837.0,1519.0,1520.0
3694,-845,1526,0,3697.0,3703.0,-841.0,-840.0,1525.0,1519.0
3691,-848,1527,0,3694.0,3697.0,-845.0,-841.0,1526.0,1525.0
3689,-851,1532,0,3691.0,3694.0,-848.0,-845.0,1527.0,1526.0
3690,-850,1527,0,3689.0,3691.0,-851.0,-848.0,1532.0,1527.0
3691,-851,1526,0,3690.0,3689.0,-850.0,-851.0,1527.0,1532.0
3690,-853,1522,0,3691.0,3690.0,-851.0,-850.0,1526.0,1527.0
3691,-853,1521,0,3690.0,3691.0,-853.0,-851.0,1522.0,1526.0
3695,-850,1519,0,3691.0,3690.0,-853.0,-853.0,1521.0,1522.0
3699,-849,1522,0,3695.0,3691.0,-850.0,-853.0,1519.0,1521.0
3698,-853,1519,0,3699.0,3695.0,-849.0,-850.0,1522.0,1519.0
3702,-853,1517,0,3698.0,3699.0,-853.0,-849.0,1519.0,1522.0
3699,-850,1517,0,3702.0,3698.0,-853.0,-853.0,1517.0,1519.0
3696,-850,1518,0,3699.0,3702.0,-850.0,-853.0,1517.0,1517.0
3698,-852,1515,0,3696.0,3699.0,-850.0,-850.0,1518.0,1517.0
3698,-849,1513,0,3698.0,3696.0,-852.0,-850.0,1515.0,1518.0
3701,-852,1510,0,3698.0,3698.0,-849.0,-852.0,1513.0,1515.0
3696,-851,1515,0,3701.0,3698.0,-852.0,-849.0,1510.0,1513.0
3697,-852,1514,0,3696.0,3701.0,-851.0,-852.0,1515.0,1510.0
3697,-854,1513,0,3697.0,3696.0,-852.0,-851.0,1514.0,1515.0
3692,-856,1513,0,3697.0,3697.0,-854.0,-852.0,1513.0,1514.0
3689,-851,1508,0,3692.0,3697.0,-856.0,-854.0,1513.0,1513.0
3691,-851,1508,0,3689.0,3692.0,-851.0,-856.0,1508.0,1513.0
3689,-853,1509,0,3691.0,3689.0,-851.0,-851.0,1508.0,1508.0
3688,-848,1510,0,3689.0,3691.0,-853.0,-851.0,1509.0,1508.0
3688,-848,1508,0,3688.0,3689.0,-848.0,-853.0,1510.0,1509.0
3689,-848,1508,0,3688.0,3688.0,-848.0,-848.0,1508.0,1510.0
3689,-841,1508,0,3689.0,3688.0,-848.0,-848.0,1508.0,1508.0
3689,-840,1505,0,3689.0,3689.0,-841.0,-848.0,1508.0,1508.0
3694,-840,1506,0,3689.0,3689.0,-840.0,-841.0,1505.0,1508.0
3700,-842,1503,0,3694.0,3689.0,-840.0,-840.0,1506.0,1505.0
3701,-841,1503,0,3700.0,3694.0,-842.0,-840.0,1503.0,1506.0
3703,-842,1500,0,3701.0,3700.0,-841.0,-842.0,1503.0,1503.0
3705,-844,1500,0,3703.0,3701.0,-842.0,-841.0,1500.0,1503.0
3706,-842,1502,0,3705.0,3703.0,-844.0,-842.0,1500.0,1500.0
3700,-842,1503,0,3706.0,3705.0,-842.0,-844.0,1502.0,1500.0
3695,-841,1506,0,3700.0,3706.0,-842.0,-842.0,1503.0,1502.0
3687,-841,1510,0,3695.0,3700.0,-841.0,-842.0,1506.0,1503.0
3682,-843,1510,0,3687.0,3695.0,-841.0,-841.0,1510.0,1506.0
3681,-840,1509,0,3682.0,3687.0,-843.0,-841.0,1510.0,1510.0
3683,-844,1512,0,3681.0,3682.0,-840.0,-843.0,1509.0,1510.0
3687,-844,1513,0,3683.0,3681.0,-844.0,-840.0,1512.0,1509.0
3688,-842,1510,0,3687.0,3683.0,-844.0,-844.0,1513.0,1512.0
3691,-844,1515,0,3688.0,3687.0,-842.0,-844.0,1510.0,1513.0
3694,-843,1517,0,3691.0,3688.0,-844.0,-842.0,1515.0,1510.0
3699,-842,1518,0,3694.0,3691.0,-843.0,-844.0,1517.0,1515.0
3696,-840,1516,0,3699.0,3694.0,-842.0,-843.0,1518.0,1517.0
3696,-841,1514,0,3696.0,3699.0,-840.0,-842.0,1516.0,1518.0
3695,-843,1516,0,3696.0,3696.0,-841.0,-840.0,1514.0,1516.0
3695,-846,1516,0,3695.0,3696.0,-843.0,-841.0,1516.0,1514.0
3690,-846,1515,0,3695.0,3695.0,-846.0,-843.0,1516.0,1516.0
3691,-844,1510,0,3690.0,3695.0,-846.0,-846.0,1515.0,1516.0
3694,-843,1513,0,3691.0,3690.0,-844.0,-846.0,1510.0,1515.0
3695,-844,1513,0,3694.0,3691.0,-843.0,-844.0,1513.0,1510.0
3697,-844,1516,0,3695.0,3694.0,-844.0,-843.0,1513.0,1513.0
3697,-846,1516,0,3697.0,3695.0,-844.0,-844.0,1516.0,1513.0
3696,-845,1514,0,3697.0,3697.0,-846.0,-844.0,1516.0,1516.0
3698,-842,1518,0,3696.0,3697.0,-845.0,-846.0,1514.0,1516.0
3698,-844,1519,0,3698.0,3696.0,-842.0,-845.0,1518.0,1514.0
3698,-846,1521,0,3698.0,3698.0,-844.0,-842.0,1519.0,1518.0
3701,-846,1521,0,3698.0,3698.0,-846.0,-844.0,1521.0,1519.0
3697,-849,1518,0,3701.0,3698.0,-846.0,-846.0,1521.0,1521.0
3697,-849,1512,0,3697.0,3701.0,-849.0,-846.0,1518.0,1521.0
3697,-850,1515,0,3697.0,3697.0,-849.0,-849.0,1512.0,1518.0
3692,-856,1517,0,3697.0,3697.0,-850.0,-849.0,1515.0,1512.0
3695,-857,1515,0,3692.0,3697.0,-856.0,-850.0,1517.0,1515.0
3696,-862,1516,0,3695.0,3692.0,-857.0,-856.0,1515.0,1517.0
3695,-858,1513,0,3696.0,3695.0,-862.0,-857.0,1516.0,1515.0
3695,-858,1511,0,3695.0,3696.0,-858.0,-862.0,1513.0,1516.0
3694,-857,1510,0,3695.0,3695.0,-858.0,-858.0,1511.0,1513.0
3696,-859,1511,0,3694.0,3695.0,-857.0,-858.0,1510.0,1511.0
3698,-856,1512,0,3696.0,3694.0,-859.0,-857.0,1511.0,1510.0
3703,-855,1511,0,3698.0,3696.0,-856.0,-859.0,1512.0,1511.0
3701,-856,1513,0,3703.0,3698.0,-855.0,-856.0,1511.0,1512.0
3703,-856,1509,0,3701.0,3703.0,-856.0,-855.0,1513.0,1511.0
3697,-851,1511,0,3703.0,3701.0,-856.0,-856.0,1509.0,1513.0
3696,-851,1508,0,3697.0,3703.0,-851.0,-856.0,1511.0,1509.0
3695,-848,1511,0,3696.0,3697.0,-851.0,-851.0,1508.0,1511.0
3696,-855,1513,0,3695.0,3696.0,-848.0,-851.0,1511.0,1508.0
3693,-852,1507,0,3696.0,3695.0,-855.0,-848.0,1513.0,1511.0
3693,-850,1510,0,3693.0,3696.0,-852.0,-855.0,1507.0,1513.0
3694,-856,1511,0,3693.0,3693.0,-850.0,-852.0,1510.0,1507.0
3695,-853,1513,0,3694.0,3693.0,-856.0,-850.0,1511.0,1510.0
3696,-851,1510,0,3695.0,3694.0,-853.0,-856.0,1513.0,1511.0
3694,-849,1510,0,3696.0,3695.0,-851.0,-853.0,1510.0,1513.0
3696,-854,1509,0,3694.0,3696.0,-849.0,-851.0,1510.0,1510.0
3695,-853,1507,0,3696.0,3694.0,-854.0,-849.0,1509.0,1510.0
3698,-849,1507,0,3695.0,3696.0,-853.0,-854.0,1507.0,1509.0
3699,-849,1507,0,3698.0,3695.0,-849.0,-853.0,1507.0,1507.0
3701,-850,1505,0,3699.0,3698.0,-849.0,-849.0,1507.0,1507.0
3705,-847,1499,0,3701.0,3699.0,-850.0,-849.0,1505.0,1507.0
3708,-844,1498,0,3705.0,3701.0,-847.0,-850.0,1499.0,1505.0
3707,-843,1501,0,3708.0,3705.0,-844.0,-847.0,1498.0,1499.0
3709,-843,1499,0,3707.0,3708.0,-843.0,-844.0,1501.0,1498.0
3711,-840,1499,0,3709.0,3707.0,-843.0,-843.0,1499.0,1501.0
3709,-840,1496,0,3711.0,3709.0,-840.0,-843.0,1499.0,1499.0
3707,-839,1498,0,3709.0,3711.0,-840.0,-840.0,1496.0,1499.0
3704,-837,1501,0,3707.0,3709.0,-839.0,-840.0,1498.0,1496.0
3699,-840,1502,0,3704.0,3707.0,-837.0,-839.0,1501.0,1498.0
3702,-839,1503,0,3699.0,3704.0,-840.0,-837.0,1502.0,1501.0
3700,-842,1504,0,3702.0,3699.0,-839.0,-840.0,1503.0,1502.0
3700,-842,1505,0,3700.0,3702.0,-842.0,-839.0,1504.0,1503.0
3699,-844,1507,0,3700.0,3700.0,-842.0,-842.0,1505.0,1504.0
3701,-847,1507,0,3699.0,3700.0,-844.0,-842.0,1507.0,1505.0
3699,-848,1503,0,3701.0,3699.0,-847.0,-844.0,1507.0,1507.0
3699,-848,1505,0,3699.0,3701.0,-848.0,-847.0,1503.0,1507.0
3698,-849,1505,0,3699.0,3699.0,-848.0,-848.0,1505.0,1503.0
3697,-849,1507,0,3698.0,3699.0,-849.0,-848.0,1505.0,1505.0
3702,-848,1507,0,3697.0,3698.0,-849.0,-849.0,1507.0,1505.0
3702,-845,1509,0,3702.0,3697.0,-848.0,-849.0,1507.0,1507.0
3700,-846,1506,0,3702.0,3702.0,-845.0,-848.0,1509.0,1507.0
3702,-848,1509,0,3700.0,3702.0,-846.0,-845.0,1506.0,1509.0
3699,-844,1507,0,3702.0,3700.0,-848.0,-846.0,1509.0,1506.0
3701,-847,1504,0,3699.0,3702.0,-844.0,-848.0,1507.0,1509.0
3703,-846,1508,0,3701.0,3699.0,-847.0,-844.0,1504.0,1507.0
3703,-847,1512,0,3703.0,3701.0,-846.0,-847.0,1508.0,1504.0
3701,-846,1517,0,3703.0,3703.0,-847.0,-846.0,1512.0,1508.0
3698,-848,1518,0,3701.0,3703.0,-846.0,-847.0,1517.0,1512.0
3697,-851,1515,0,3698.0,3701.0,-848.0,-846.0,1518.0,1517.0
3696,-851,1516,0,3697.0,3698.0,-851.0,-848.0,1515.0,1518.0
3692,-852,1515,0,3696.0,3697.0,-851.0,-851.0,1516.0,1515.0
3692,-850,1516,0,3692.0,3696.0,-852.0,-851.0,1515.0,1516.0
3687,-851,1518,0,3692.0,3692.0,-850.0,-852.0,1516.0,1515.0
3682,-856,1524,0,3687.0,3692.0,-851.0,-850.0,1518.0,1516.0
3680,-854,1524,0,3682.0,3687.0,-856.0,-851.0,1524.0,1518.0
3680,-858,1527,0,3680.0,3682.0,-854.0,-856.0,1524.0,1524.0
3680,-858,1529,0,3680.0,3680.0,-858.0,-854.0,1527.0,1524.0
3684,-859,1527,0,3680.0,3680.0,-858.0,-858.0,1529.0,1527.0
3687,-858,1528,0,3684.0,3680.0,-859.0,-858.0,1527.0,1529.0
3690,-860,1530,0,3687.0,3684.0,-858.0,-859.0,1528.0,1527.0
3694,-858,1530,0,3690.0,3687.0,-860.0,-858.0,1530.0,1528.0
3699,-854,1533,0,3694.0,3690.0,-858.0,-860.0,1530.0,1530.0
3706,-856,1537,0,3699.0,3694.0,-854.0,-858.0,1533.0,1530.0
3710,-854,1539,0,3706.0,3699.0,-856.0,-854.0,1537.0,1533.0
3712,-852,1541,0,3710.0,3706.0,-854.0,-856.0,1539.0,1537.0
3716,-851,1538,0,3712.0,3710.0,-852.0,-854.0,1541.0,1539.0
3716,-847,1537,0,3716.0,3712.0,-851.0,-852.0,1538.0,1541.0
3718,-840,1534,0,3716.0,3716.0,-847.0,-851.0,1537.0,1538.0
3710,-835,1532,0,3718.0,3716.0,-840.0,-847.0,1534.0,1537.0
3707,-833,1529,0,3710.0,3718.0,-835.0,-840.0,1532.0,1534.0
3708,-833,1528,0,3707.0,3710.0,-833.0,-835.0,1529.0,1532.0
3703,-833,1525,0,3708.0,3707.0,-833.0,-833.0,1528.0,1529.0
3701,-833,1523,0,3703.0,3708.0,-833.0,-833.0,1525.0,1528.0
3697,-835,1523,0,3701.0,3703.0,-833.0,-833.0,1523.0,1525.0
3696,-834,1525,0,3697.0,3701.0,-835.0,-833.0,1523.0,1523.0
3693,-836,1524,0,3696.0,3697.0,-834.0,-835.0,1525.0,1523.0
3691,-833,1527,0,3693.0,3696.0,-836.0,-834.0,1524.0,1525.0
3688,-836,1527,0,3691.0,3693.0,-833.0,-836.0,1527.0,1524.0
3687,-840,1529,0,3688.0,3691.0,-836.0,-833.0,1527.0,1527.0
3686,-841,1528,0,3687.0,3688.0,-840.0,-836.0,1529.0,1527.0
3690,-842,1524,0,3686.0,3687.0,-841.0,-840.0,1528.0,1529.0
3695,-844,1524,0,3690.0,3686.0,-842.0,-841.0,1524.0,1528.0
3695,-847,1527,0,3695.0,3690.0,-844.0,-842.0,1524.0,1524.0
3695,-844,1529,0,3695.0,3695.0,-847.0,-844.0,1527.0,1524.0
3695,-843,1530,0,3695.0,3695.0,-844.0,-847.0,1529.0,1527.0
3693,-840,1529,0,3695.0,3695.0,-843.0,-844.0,1530.0,1529.0
3693,-843,1529,0,3693.0,3695.0,-840.0,-843.0,1529.0,1530.0
3691,-846,1525,0,3693.0,3693.0,-843.0,-840.0,1529.0,1529.0
3692,-846,1526,0,3691.0,3693.0,-846.0,-843.0,1525.0,1529.0
3692,-847,1527,0,3692.0,3691.0,-846.0,-846.0,1526.0,1525.0
3690,-848,1528,0,3692.0,3692.0,-847.0,-846.0,1527.0,1526.0
3691,-850,1532,0,3690.0,3692.0,-848.0,-847.0,1528.0,1527.0
3691,-846,1534,0,3691.0,3690.0,-850.0,-848.0,1532.0,1528.0
3688,-843,1537,0,3691.0,3691.0,-846.0,-850.0,1534.0,1532.0
3687,-845,1539,0,3688.0,3691.0,-843.0,-846.0,1537.0,1534.0
3686,-844,1541,0,3687.0,3688.0,-845.0,-843.0,1539.0,1537.0
3683,-841,1548,0,3686.0,3687.0,-844.0,-845.0,1541.0,1539.0
3684,-845,1549,0,3683.0,3686.0,-841.0,-844.0,1548.0,1541.0
3684,-844,1553,0,3684.0,3683.0,-845.0,-841.0,1549.0,1548.0
3685,-846,1558,0,3684.0,3684.0,-844.0,-845.0,1553.0,1549.0
3687,-850,1558,0,3685.0,3684.0,-846.0,-844.0,1558.0,1553.0
3694,-853,1559,0,3687.0,3685.0,-850.0,-846.0,1558.0,1558.0
3698,-850,1562,0,3694.0,3687.0,-853.0,-850.0,1559.0,1558.0
3698,-853,1560,0,3698.0,3694.0,-850.0,-853.0,1562.0,1559.0
3697,-852,1561,0,3698.0,3698.0,-853.0,-850.0,1560.0,1562.0
3698,-851,1564,0,3697.0,3698.0,-852.0,-853.0,1561.0,1560.0
3695,-850,1562,0,3698.0,3697.0,-851.0,-852.0,1564.0,1561.0
3696,-850,1563,0,3695.0,3698.0,-850.0,-851.0,1562.0,1564.0
3696,-847,1567,0,3696.0,3695.0,-850.0,-850.0,1563.0,1562.0
3691,-845,1567,0,3696.0,3696.0,-847.0,-850.0,1567.0,1563.0
3686,-848,1567,0,3691.0,3696.0,-845.0,-847.0,1567.0,1567.0
3679,-849,1572,0,3686.0,3691.0,-848.0,-845.0,1567.0,1567.0
3676,-847,1575,0,3679.0,3686.0,-849.0,-848.0,1572.0,1567.0
3671,-851,1575,0,3676.0,3679.0,-847.0,-849.0,1575.0,1572.0
3671,-855,1576,0,3671.0,3676.0,-851.0,-847.0,1575.0,1575.0
3666,-860,1576,0,3671.0,3671.0,-855.0,-851.0,1576.0,1575.0
3663,-863,1581,0,3666.0,3671.0,-860.0,-855.0,1576.0,1576.0
3659,-859,1581,0,3663.0,3666.0,-863.0,-860.0,1581.0,1576.0
3656,-861,1583,0,3659.0,3663.0,-859.0,-863.0,1581.0,1581.0
3657,-861,1584,0,3656.0,3659.0,-861.0,-859.0,1583.0,1581.0
3652,-862,1586,0,3657.0,3656.0,-861.0,-861.0,1584.0,1583.0
3652,-864,1582,0,3652.0,3657.0,-862.0,-861.0,1586.0,1584.0
3655,-863,1584,0,3652.0,3652.0,-864.0,-862.0,1582.0,1586.0
3651,-864,1588,0,3655.0,3652.0,-863.0,-864.0,1584.0,1582.0
3652,-863,1593,0,3651.0,3655.0,-864.0,-863.0,1588.0,1584.0
3649,-867,1592,0,3652.0,3651.0,-863.0,-864.0,1593.0,1588.0
3650,-865,1592,0,3649.0,3652.0,-867.0,-863.0,1592.0,1593.0
3652,-867,1590,0,3650.0,3649.0,-865.0,-867.0,1592.0,1592.0
3652,-869,1592,0,3652.0,3650.0,-867.0,-865.0,1590.0,1592.0
3652,-868,1593,0,3652.0,3652.0,-869.0,-867.0,1592.0,1590.0
3648,-866,1595,0,3652.0,3652.0,-868.0,-869.0,1593.0,1592.0
3646,-871,1595,0,3648.0,3652.0,-866.0,-868.0,1595.0,1593.0
3644,-872,1599,0,3646.0,3648.0,-871.0,-866.0,1595.0,1595.0
3647,-871,1597,0,3644.0,3646.0,-872.0,-871.0,1599.0,1595.0
3646,-871,1596,0,3647.0,3644.0,-871.0,-872.0,1597.0,1599.0
3643,-870,1596,0,3646.0,3647.0,-871.0,-871.0,1596.0,1597.0
3642,-873,1597,0,3643.0,3646.0,-870.0,-871.0,1596.0,1596.0
3646,-871,1600,0,3642.0,3643.0,-873.0,-870.0,1597.0,1596.0
