accelerometer_x,accelerometer_y,accelerometer_z,fall,x_lag_1,x_lag_2,y_lag_1,y_lag_2,z_lag_1,z_lag_2
4094,1058,-586,1,,,,,,
3957,954,-610,1,4094.0,,1058.0,,-586.0,
3802,831,-599,1,3957.0,4094.0,954.0,1058.0,-610.0,-586.0
3640,707,-522,1,3802.0,3957.0,831.0,954.0,-599.0,-610.0
3518,551,-412,1,3640.0,3802.0,707.0,831.0,-522.0,-599.0
3398,376,-308,1,3518.0,3640.0,551.0,707.0,-412.0,-522.0
3282,223,-197,1,3398.0,3518.0,376.0,551.0,-308.0,-412.0
3161,72,-112,1,3282.0,3398.0,223.0,376.0,-197.0,-308.0
3042,-42,-54,1,3161.0,3282.0,72.0,223.0,-112.0,-197.0
2926,-163,-33,1,3042.0,3161.0,-42.0,72.0,-54.0,-112.0
2821,-265,-49,1,2926.0,3042.0,-163.0,-42.0,-33.0,-54.0
2726,-366,-59,1,2821.0,2926.0,-265.0,-163.0,-49.0,-33.0
2631,-429,-55,1,2726.0,2821.0,-366.0,-265.0,-59.0,-49.0
2514,-483,-84,1,2631.0,2726.0,-429.0,-366.0,-55.0,-59.0
2375,-478,-106,1,2514.0,2631.0,-483.0,-429.0,-84.0,-55.0
2239,-419,-105,1,2375.0,2514.0,-478.0,-483.0,-106.0,-84.0
2117,-349,-135,1,2239.0,2375.0,-419.0,-478.0,-105.0,-106.0
1987,-265,-157,1,2117.0,2239.0,-349.0,-419.0,-135.0,-105.0
1883,-146,-155,1,1987.0,2117.0,-265.0,-349.0,-157.0,-135.0
1799,-32,-151,1,1883.0,1987.0,-146.0,-265.0,-155.0,-157.0
1698,97,-156,1,1799.0,1883.0,-32.0,-146.0,-151.0,-155.0
1612,230,-159,1,1698.0,1799.0,97.0,-32.0,-156.0,-151.0
1520,377,-170,1,1612.0,1698.0,230.0,97.0,-159.0,-156.0
1451,488,-189,1,1520.0,1612.0,377.0,230.0,-170.0,-159.0
1400,579,-202,1,1451.0,1520.0,488.0,377.0,-189.0,-170.0
1333,688,-220,1,1400.0,1451.0,579.0,488.0,-202.0,-189.0
1251,786,-248,1,1333.0,1400.0,688.0,579.0,-220.0,-202.0
1184,865,-260,1,1251.0,1333.0,786.0,688.0,-248.0,-220.0
1160,927,-249,1,1184.0,1251.0,865.0,786.0,-260.0,-248.0
1167,972,-256,1,1160.0,1184.0,927.0,865.0,-249.0,-260.0
1162,1030,-265,1,1167.0,1160.0,972.0,927.0,-256.0,-249.0
1183,1091,-283,1,1162.0,1167.0,1030.0,972.0,-265.0,-256.0
1213,1160,-301,1,1183.0,1162.0,1091.0,1030.0,-283.0,-265.0
1247,1235,-335,1,1213.0,1183.0,1160.0,1091.0,-301.0,-283.0
1299,1303,-369,1,1247.0,1213.0,1235.0,1160.0,-335.0,-301.0
1351,1368,-395,1,1299.0,1247.0,1303.0,1235.0,-369.0,-335.0
1400,1414,-403,1,1351.0,1299.0,1368.0,1303.0,-395.0,-369.0
1447,1449,-389,1,1400.0,1351.0,1414.0,1368.0,-403.0,-395.0
1472,1481,-382,1,1447.0,1400.0,1449.0,1414.0,-389.0,-403.0
1463,1545,-380,1,1472.0,1447.0,1481.0,1449.0,-382.0,-389.0
1430,1677,-348,1,1463.0,1472.0,1545.0,1481.0,-380.0,-382.0
1390,1908,-310,1,1430.0,1463.0,1677.0,1545.0,-348.0,-380.0
1382,2157,-388,1,1390.0,1430.0,1908.0,1677.0,-310.0,-348.0
1445,2381,-645,1,1382.0,1390.0,2157.0,1908.0,-388.0,-310.0
1579,2540,-1039,1,1445.0,1382.0,2381.0,2157.0,-645.0,-388.0
1808,2671,-1451,1,1579.0,1445.0,2540.0,2381.0,-1039.0,-645.0
2168,2790,-1774,1,1808.0,1579.0,2671.0,2540.0,-1451.0,-1039.0
2717,2949,-1875,1,2168.0,1808.0,2790.0,2671.0,-1774.0,-1451.0
3453,3207,-1720,1,2717.0,2168.0,2949.0,2790.0,-1875.0,-1774.0
4375,3595,-1311,1,3453.0,2717.0,3207.0,2949.0,-1720.0,-1875.0
5363,3989,-877,1,4375.0,3453.0,3595.0,3207.0,-1311.0,-1720.0
6324,4453,-449,1,5363.0,4375.0,3989.0,3595.0,-877.0,-1311.0
7218,4829,-121,1,6324.0,5363.0,4453.0,3989.0,-449.0,-877.0
8127,5047,83,1,7218.0,6324.0,4829.0,4453.0,-121.0,-449.0
9030,5144,96,1,8127.0,7218.0,5047.0,4829.0,83.0,-121.0
9986,5046,6,1,9030.0,8127.0,5144.0,5047.0,96.0,83.0
10797,4541,-240,1,9986.0,9030.0,5046.0,5144.0,6.0,96.0
11251,3722,-515,1,10797.0,9986.0,4541.0,5046.0,-240.0,6.0
10737,3097,-797,1,11251.0,10797.0,3722.0,4541.0,-515.0,-240.0
9642,2798,-792,1,10737.0,11251.0,3097.0,3722.0,-797.0,-515.0
8599,2445,-706,1,9642.0,10737.0,2798.0,3097.0,-792.0,-797.0
7710,2061,-685,1,8599.0,9642.0,2445.0,2798.0,-706.0,-792.0
7021,1722,-725,1,7710.0,8599.0,2061.0,2445.0,-685.0,-706.0
6546,1437,-717,1,7021.0,7710.0,1722.0,2061.0,-725.0,-685.0
6271,1208,-616,1,6546.0,7021.0,1437.0,1722.0,-717.0,-725.0
6136,1004,-439,1,6271.0,6546.0,1208.0,1437.0,-616.0,-717.0
6079,807,-257,1,6136.0,6271.0,1004.0,1208.0,-439.0,-616.0
6055,661,-137,1,6079.0,6136.0,807.0,1004.0,-257.0,-439.0
6087,583,-70,1,6055.0,6079.0,661.0,807.0,-137.0,-257.0
6127,522,-69,1,6087.0,6055.0,583.0,661.0,-70.0,-137.0
6134,482,-134,1,6127.0,6087.0,522.0,583.0,-69.0,-70.0
6084,486,-225,1,6134.0,6127.0,482.0,522.0,-134.0,-69.0
5998,506,-344,1,6084.0,6134.0,486.0,482.0,-225.0,-134.0
5876,573,-454,1,5998.0,6084.0,506.0,486.0,-344.0,-225.0
5753,631,-554,1,5876.0,5998.0,573.0,506.0,-454.0,-344.0
5640,706,-597,1,5753.0,5876.0,631.0,573.0,-554.0,-454.0
5540,803,-578,1,5640.0,5753.0,706.0,631.0,-597.0,-554.0
5435,884,-535,1,5540.0,5640.0,803.0,706.0,-578.0,-597.0
5326,968,-469,1,5435.0,5540.0,884.0,803.0,-535.0,-578.0
5213,1067,-369,1,5326.0,5435.0,968.0,884.0,-469.0,-535.0
5077,1162,-246,1,5213.0,5326.0,1067.0,968.0,-369.0,-469.0
4836,1243,-144,1,5077.0,5213.0,1162.0,1067.0,-246.0,-369.0
4623,1311,-57,1,4836.0,5077.0,1243.0,1162.0,-144.0,-246.0
4408,1357,39,1,4623.0,4836.0,1311.0,1243.0,-57.0,-144.0
4222,1350,148,1,4408.0,4623.0,1357.0,1311.0,39.0,-57.0
4004,1307,222,1,4222.0,4408.0,1350.0,1357.0,148.0,39.0
3722,1277,281,1,4004.0,4222.0,1307.0,1350.0,222.0,148.0
3455,1229,351,1,3722.0,4004.0,1277.0,1307.0,281.0,222.0
3217,1155,405,1,3455.0,3722.0,1229.0,1277.0,351.0,281.0
3007,1060,463,1,3217.0,3455.0,1155.0,1229.0,405.0,351.0
2836,931,516,1,3007.0,3217.0,1060.0,1155.0,463.0,405.0
2683,812,573,1,2836.0,3007.0,931.0,1060.0,516.0,463.0
2514,766,629,1,2683.0,2836.0,812.0,931.0,573.0,516.0
2333,763,668,1,2514.0,2683.0,766.0,812.0,629.0,573.0
2147,765,698,1,2333.0,2514.0,763.0,766.0,668.0,629.0
1997,721,749,1,2147.0,2333.0,765.0,763.0,698.0,668.0
1873,664,784,1,1997.0,2147.0,721.0,765.0,749.0,698.0
1778,593,815,1,1873.0,1997.0,664.0,721.0,784.0,749.0
1701,518,826,1,1778.0,1873.0,593.0,664.0,815.0,784.0
1643,459,804,1,1701.0,1778.0,518.0,593.0,826.0,815.0
1587,384,716,1,1643.0,1701.0,459.0,518.0,804.0,826.0
1530,282,599,1,1587.0,1643.0,384.0,459.0,716.0,804.0
1486,162,472,1,1530.0,1587.0,282.0,384.0,599.0,716.0
1439,49,351,1,1486.0,1530.0,162.0,282.0,472.0,599.0
1380,-25,235,1,1439.0,1486.0,49.0,162.0,351.0,472.0
1313,-73,123,1,1380.0,1439.0,-25.0,49.0,235.0,351.0
1254,-108,40,1,1313.0,1380.0,-73.0,-25.0,123.0,235.0
1186,-143,-88,1,1254.0,1313.0,-108.0,-73.0,40.0,123.0
1118,-136,-192,1,1186.0,1254.0,-143.0,-108.0,-88.0,40.0
1065,-142,-277,1,1118.0,1186.0,-136.0,-143.0,-192.0,-88.0
1047,-127,-316,1,1065.0,1118.0,-142.0,-136.0,-277.0,-192.0
1040,-89,-315,1,1047.0,1065.0,-127.0,-142.0,-316.0,-277.0
1049,-78,-301,1,1040.0,1047.0,-89.0,-127.0,-315.0,-316.0
1098,-93,-288,1,1049.0,1040.0,-78.0,-89.0,-301.0,-315.0
1128,-96,-279,1,1098.0,1049.0,-93.0,-78.0,-288.0,-301.0
1167,-103,-257,1,1128.0,1098.0,-96.0,-93.0,-279.0,-288.0
1198,-131,-248,1,1167.0,1128.0,-103.0,-96.0,-257.0,-279.0
1265,-172,-213,1,1198.0,1167.0,-131.0,-103.0,-248.0,-257.0
1362,-208,-162,1,1265.0,1198.0,-172.0,-131.0,-213.0,-248.0
1513,-274,-75,1,1362.0,1265.0,-208.0,-172.0,-162.0,-213.0
1700,-359,45,1,1513.0,1362.0,-274.0,-208.0,-75.0,-162.0
1903,-415,215,1,1700.0,1513.0,-359.0,-274.0,45.0,-75.0
2106,-410,403,1,1903.0,1700.0,-415.0,-359.0,215.0,45.0
2294,-340,582,1,2106.0,1903.0,-410.0,-415.0,403.0,215.0
2448,-176,715,1,2294.0,2106.0,-340.0,-410.0,582.0,403.0
2523,87,748,1,2448.0,2294.0,-176.0,-340.0,715.0,582.0
2512,420,662,1,2523.0,2448.0,87.0,-176.0,748.0,715.0
2488,776,487,1,2512.0,2523.0,420.0,87.0,662.0,748.0
2457,1140,218,1,2488.0,2512.0,776.0,420.0,487.0,662.0
2459,1502,-125,1,2457.0,2488.0,1140.0,776.0,218.0,487.0
2480,1841,-546,1,2459.0,2457.0,1502.0,1140.0,-125.0,218.0
2560,2147,-1005,1,2480.0,2459.0,1841.0,1502.0,-546.0,-125.0
2746,2422,-1472,1,2560.0,2480.0,2147.0,1841.0,-1005.0,-546.0
3153,2675,-1870,1,2746.0,2560.0,2422.0,2147.0,-1472.0,-1005.0
3939,2909,-2148,1,3153.0,2746.0,2675.0,2422.0,-1870.0,-1472.0
5162,3105,-2327,1,3939.0,3153.0,2909.0,2675.0,-2148.0,-1870.0
6669,3361,-2316,1,5162.0,3939.0,3105.0,2909.0,-2327.0,-2148.0
8082,3828,-2097,1,6669.0,5162.0,3361.0,3105.0,-2316.0,-2327.0
9188,4462,-1754,1,8082.0,6669.0,3828.0,3361.0,-2097.0,-2316.0
9858,4891,-1522,1,9188.0,8082.0,4462.0,3828.0,-1754.0,-2097.0
10081,4762,-1552,1,9858.0,9188.0,4891.0,4462.0,-1522.0,-1754.0
9912,4276,-1582,1,10081.0,9858.0,4762.0,4891.0,-1552.0,-1522.0
9401,3562,-1467,1,9912.0,10081.0,4276.0,4762.0,-1582.0,-1552.0
8682,2846,-1155,1,9401.0,9912.0,3562.0,4276.0,-1467.0,-1582.0
7892,2232,-777,1,8682.0,9401.0,2846.0,3562.0,-1155.0,-1467.0
7121,1752,-502,1,7892.0,8682.0,2232.0,2846.0,-777.0,-1155.0
6463,1392,-391,1,7121.0,7892.0,1752.0,2232.0,-502.0,-777.0
6013,1168,-383,1,6463.0,7121.0,1392.0,1752.0,-391.0,-502.0
5652,1123,-503,1,6013.0,6463.0,1168.0,1392.0,-383.0,-391.0
5287,1274,-687,1,5652.0,6013.0,1123.0,1168.0,-503.0,-383.0
4938,1485,-819,1,5287.0,5652.0,1274.0,1123.0,-687.0,-503.0
4727,1692,-782,1,4938.0,5287.0,1485.0,1274.0,-819.0,-687.0
4549,1794,-696,1,4727.0,4938.0,1692.0,1485.0,-782.0,-819.0
4380,1821,-668,1,4549.0,4727.0,1794.0,1692.0,-696.0,-782.0
4274,1815,-705,1,4380.0,4549.0,1821.0,1794.0,-668.0,-696.0
4412,1790,-718,1,4274.0,4380.0,1815.0,1821.0,-705.0,-668.0
4672,1787,-765,1,4412.0,4274.0,1790.0,1815.0,-718.0,-705.0
4987,1760,-834,1,4672.0,4412.0,1787.0,1790.0,-765.0,-718.0
5297,1723,-913,1,4987.0,4672.0,1760.0,1787.0,-834.0,-765.0
5521,1732,-955,1,5297.0,4987.0,1723.0,1760.0,-913.0,-834.0
5645,1740,-983,1,5521.0,5297.0,1732.0,1723.0,-955.0,-913.0
5706,1806,-955,1,5645.0,5521.0,1740.0,1732.0,-983.0,-955.0
5776,1889,-874,1,5706.0,5645.0,1806.0,1740.0,-955.0,-983.0
5784,1931,-858,1,5776.0,5706.0,1889.0,1806.0,-874.0,-955.0
5604,1952,-995,1,5784.0,5776.0,1931.0,1889.0,-858.0,-874.0
5368,2037,-1121,1,5604.0,5784.0,1952.0,1931.0,-995.0,-858.0
5125,2067,-1275,1,5368.0,5604.0,2037.0,1952.0,-1121.0,-995.0
4871,2053,-1388,1,5125.0,5368.0,2067.0,2037.0,-1275.0,-1121.0
4646,2041,-1383,1,4871.0,5125.0,2053.0,2067.0,-1388.0,-1275.0
4416,1977,-1311,1,4646.0,4871.0,2041.0,2053.0,-1383.0,-1388.0
4239,1876,-1179,1,4416.0,4646.0,1977.0,2041.0,-1311.0,-1383.0
4102,1730,-991,1,4239.0,4416.0,1876.0,1977.0,-1179.0,-1311.0
3954,1560,-809,1,4102.0,4239.0,1730.0,1876.0,-991.0,-1179.0
3821,1284,-681,1,3954.0,4102.0,1560.0,1730.0,-809.0,-991.0
3733,952,-607,1,3821.0,3954.0,1284.0,1560.0,-681.0,-809.0
3638,707,-543,1,3733.0,3821.0,952.0,1284.0,-607.0,-681.0
3576,517,-478,1,3638.0,3733.0,707.0,952.0,-543.0,-607.0
3487,352,-450,1,3576.0,3638.0,517.0,707.0,-478.0,-543.0
3320,173,-427,1,3487.0,3576.0,352.0,517.0,-450.0,-478.0
3172,4,-364,1,3320.0,3487.0,173.0,352.0,-427.0,-450.0
3063,-146,-312,1,3172.0,3320.0,4.0,173.0,-364.0,-427.0
2990,-293,-297,1,3063.0,3172.0,-146.0,4.0,-312.0,-364.0
2925,-420,-311,1,2990.0,3063.0,-293.0,-146.0,-297.0,-312.0
2852,-483,-304,1,2925.0,2990.0,-420.0,-293.0,-311.0,-297.0
2801,-539,-300,1,2852.0,2925.0,-483.0,-420.0,-304.0,-311.0
2730,-613,-326,1,2801.0,2852.0,-539.0,-483.0,-300.0,-304.0
2647,-670,-347,1,2730.0,2801.0,-613.0,-539.0,-326.0,-300.0
2589,-688,-335,1,2647.0,2730.0,-670.0,-613.0,-347.0,-326.0
2551,-661,-311,1,2589.0,2647.0,-688.0,-670.0,-335.0,-347.0
2526,-609,-288,1,2551.0,2589.0,-661.0,-688.0,-311.0,-335.0
2513,-501,-267,1,2526.0,2551.0,-609.0,-661.0,-288.0,-311.0
2541,-420,-285,1,2513.0,2526.0,-501.0,-609.0,-267.0,-288.0
2577,-338,-315,1,2541.0,2513.0,-420.0,-501.0,-285.0,-267.0
2601,-257,-327,1,2577.0,2541.0,-338.0,-420.0,-315.0,-285.0
2605,-161,-324,1,2601.0,2577.0,-257.0,-338.0,-327.0,-315.0
2596,-81,-305,1,2605.0,2601.0,-161.0,-257.0,-324.0,-327.0
2556,-8,-267,1,2596.0,2605.0,-81.0,-161.0,-305.0,-324.0
2508,22,-250,1,2556.0,2596.0,-8.0,-81.0,-267.0,-305.0
2451,8,-259,1,2508.0,2556.0,22.0,-8.0,-250.0,-267.0
2375,4,-254,1,2451.0,2508.0,8.0,22.0,-259.0,-250.0
2319,-26,-246,1,2375.0,2451.0,4.0,8.0,-254.0,-259.0
2277,-52,-245,1,2319.0,2375.0,-26.0,4.0,-246.0,-254.0
2243,-83,-271,1,2277.0,2319.0,-52.0,-26.0,-245.0,-246.0
2222,-84,-304,1,2243.0,2277.0,-83.0,-52.0,-271.0,-245.0
2207,-66,-353,1,2222.0,2243.0,-84.0,-83.0,-304.0,-271.0
2193,-36,-425,1,2207.0,2222.0,-66.0,-84.0,-353.0,-304.0
2189,34,-496,1,2193.0,2207.0,-36.0,-66.0,-425.0,-353.0
2195,119,-551,1,2189.0,2193.0,34.0,-36.0,-496.0,-425.0
2210,220,-590,1,2195.0,2189.0,119.0,34.0,-551.0,-496.0
2242,353,-606,1,2210.0,2195.0,220.0,119.0,-590.0,-551.0
2297,513,-604,1,2242.0,2210.0,353.0,220.0,-606.0,-590.0
2378,695,-589,1,2297.0,2242.0,513.0,353.0,-604.0,-606.0
2459,874,-581,1,2378.0,2297.0,695.0,513.0,-589.0,-604.0
2526,1064,-528,1,2459.0,2378.0,874.0,695.0,-581.0,-589.0
2553,1237,-453,1,2526.0,2459.0,1064.0,874.0,-528.0,-581.0
2527,1377,-418,1,2553.0,2526.0,1237.0,1064.0,-453.0,-528.0
2442,1542,-482,1,2527.0,2553.0,1377.0,1237.0,-418.0,-453.0
2376,1742,-582,1,2442.0,2527.0,1542.0,1377.0,-482.0,-418.0
2420,2012,-691,1,2376.0,2442.0,1742.0,1542.0,-582.0,-482.0
2607,2265,-913,1,2420.0,2376.0,2012.0,1742.0,-691.0,-582.0
2922,2466,-1247,1,2607.0,2420.0,2265.0,2012.0,-913.0,-691.0
3355,2656,-1631,1,2922.0,2607.0,2466.0,2265.0,-1247.0,-913.0
3890,2872,-1981,1,3355.0,2922.0,2656.0,2466.0,-1631.0,-1247.0
4542,3125,-2160,1,3890.0,3355.0,2872.0,2656.0,-1981.0,-1631.0
5257,3392,-2132,1,4542.0,3890.0,3125.0,2872.0,-2160.0,-1981.0
5926,3650,-1943,1,5257.0,4542.0,3392.0,3125.0,-2132.0,-2160.0
6512,3874,-1640,1,5926.0,5257.0,3650.0,3392.0,-1943.0,-2132.0
6971,4009,-1276,1,6512.0,5926.0,3874.0,3650.0,-1640.0,-1943.0
7339,4057,-871,1,6971.0,6512.0,4009.0,3874.0,-1276.0,-1640.0
7548,3976,-474,1,7339.0,6971.0,4057.0,4009.0,-871.0,-1276.0
7568,3738,-114,1,7548.0,7339.0,3976.0,4057.0,-474.0,-871.0
7390,3399,208,1,7568.0,7548.0,3738.0,3976.0,-114.0,-474.0
7019,2962,436,1,7390.0,7568.0,3399.0,3738.0,208.0,-114.0
6571,2526,597,1,7019.0,7390.0,2962.0,3399.0,436.0,208.0
6144,2134,627,1,6571.0,7019.0,2526.0,2962.0,597.0,436.0
5805,1762,503,1,6144.0,6571.0,2134.0,2526.0,627.0,597.0
5582,1410,242,1,5805.0,6144.0,1762.0,2134.0,503.0,627.0
5458,1162,-109,1,5582.0,5805.0,1410.0,1762.0,242.0,503.0
5393,1008,-504,1,5458.0,5582.0,1162.0,1410.0,-109.0,242.0
5365,925,-877,1,5393.0,5458.0,1008.0,1162.0,-504.0,-109.0
5422,982,-1145,1,5365.0,5393.0,925.0,1008.0,-877.0,-504.0
5502,1138,-1347,1,5422.0,5365.0,982.0,925.0,-1145.0,-877.0
5600,1270,-1484,1,5502.0,5422.0,1138.0,982.0,-1347.0,-1145.0
5697,1423,-1504,1,5600.0,5502.0,1270.0,1138.0,-1484.0,-1347.0
5853,1489,-1408,1,5697.0,5600.0,1423.0,1270.0,-1504.0,-1484.0
5940,1564,-1234,1,5853.0,5697.0,1489.0,1423.0,-1408.0,-1504.0
5981,1599,-1052,1,5940.0,5853.0,1564.0,1489.0,-1234.0,-1408.0
5957,1583,-903,1,5981.0,5940.0,1599.0,1564.0,-1052.0,-1234.0
5874,1535,-803,1,5957.0,5981.0,1583.0,1599.0,-903.0,-1052.0
5724,1493,-776,1,5874.0,5957.0,1535.0,1583.0,-803.0,-903.0
5540,1473,-744,1,5724.0,5874.0,1493.0,1535.0,-776.0,-803.0
5334,1476,-687,1,5540.0,5724.0,1473.0,1493.0,-744.0,-776.0
5124,1467,-612,1,5334.0,5540.0,1476.0,1473.0,-687.0,-744.0
4926,1448,-529,1,5124.0,5334.0,1467.0,1476.0,-612.0,-687.0
4729,1434,-435,1,4926.0,5124.0,1448.0,1467.0,-529.0,-612.0
4555,1408,-329,1,4729.0,4926.0,1434.0,1448.0,-435.0,-529.0
4396,1363,-220,1,4555.0,4729.0,1408.0,1434.0,-329.0,-435.0
4248,1300,-103,1,4396.0,4555.0,1363.0,1408.0,-220.0,-329.0
4102,1233,13,1,4248.0,4396.0,1300.0,1363.0,-103.0,-220.0
3978,1168,131,1,4102.0,4248.0,1233.0,1300.0,13.0,-103.0
3858,1089,209,1,3978.0,4102.0,1168.0,1233.0,131.0,13.0
3735,1011,263,1,3858.0,3978.0,1089.0,1168.0,209.0,131.0
3630,919,310,1,3735.0,3858.0,1011.0,1089.0,263.0,209.0
3530,837,350,1,3630.0,3735.0,919.0,1011.0,310.0,263.0
3440,748,360,1,3530.0,3630.0,837.0,919.0,350.0,310.0
3337,683,336,1,3440.0,3530.0,748.0,837.0,360.0,350.0
3234,623,303,1,3337.0,3440.0,683.0,748.0,336.0,360.0
3154,571,275,1,3234.0,3337.0,623.0,683.0,303.0,336.0
3081,547,258,1,3154.0,3234.0,571.0,623.0,275.0,303.0
3025,538,252,1,3081.0,3154.0,547.0,571.0,258.0,275.0
3011,511,232,1,3025.0,3081.0,538.0,547.0,252.0,258.0
2924,522,201,1,3011.0,3025.0,511.0,538.0,232.0,252.0
2786,550,188,1,2924.0,3011.0,522.0,511.0,201.0,232.0
2685,578,182,1,2786.0,2924.0,550.0,522.0,188.0,201.0
2575,620,173,1,2685.0,2786.0,578.0,550.0,182.0,188.0
2476,700,193,1,2575.0,2685.0,620.0,578.0,173.0,182.0
2412,770,219,1,2476.0,2575.0,700.0,620.0,193.0,173.0
2383,809,265,1,2412.0,2476.0,770.0,700.0,219.0,193.0
2380,813,324,1,2383.0,2412.0,809.0,770.0,265.0,219.0
2380,793,369,1,2380.0,2383.0,813.0,809.0,324.0,265.0
2371,779,395,1,2380.0,2380.0,793.0,813.0,369.0,324.0
2352,777,389,1,2371.0,2380.0,779.0,793.0,395.0,369.0
2339,790,388,1,2352.0,2371.0,777.0,779.0,389.0,395.0
2326,789,371,1,2339.0,2352.0,790.0,777.0,388.0,389.0
2306,756,334,1,2326.0,2339.0,789.0,790.0,371.0,388.0
2293,709,306,1,2306.0,2326.0,756.0,789.0,334.0,371.0
2295,641,302,1,2293.0,2306.0,709.0,756.0,306.0,334.0
2317,555,337,1,2295.0,2293.0,641.0,709.0,302.0,306.0
2336,484,389,1,2317.0,2295.0,555.0,641.0,337.0,302.0
2375,421,453,1,2336.0,2317.0,484.0,555.0,389.0,337.0
2382,367,464,1,2375.0,2336.0,421.0,484.0,453.0,389.0
2403,320,443,1,2382.0,2375.0,367.0,421.0,464.0,453.0
2403,292,380,1,2403.0,2382.0,320.0,367.0,443.0,464.0
2402,252,284,1,2403.0,2403.0,292.0,320.0,380.0,443.0
2398,193,178,1,2402.0,2403.0,252.0,292.0,284.0,380.0
2430,159,105,1,2398.0,2402.0,193.0,252.0,178.0,284.0
2441,133,56,1,2430.0,2398.0,159.0,193.0,105.0,178.0
2446,149,36,1,2441.0,2430.0,133.0,159.0,56.0,105.0
2462,209,60,1,2446.0,2441.0,149.0,133.0,36.0,56.0
2495,269,110,1,2462.0,2446.0,209.0,149.0,60.0,36.0
2602,334,197,1,2495.0,2462.0,269.0,209.0,110.0,60.0
2765,346,289,1,2602.0,2495.0,334.0,269.0,197.0,110.0
2918,366,340,1,2765.0,2602.0,346.0,334.0,289.0,197.0
3046,425,331,1,2918.0,2765.0,366.0,346.0,340.0,289.0
3167,587,229,1,3046.0,2918.0,425.0,366.0,331.0,340.0
3293,831,35,1,3167.0,3046.0,587.0,425.0,229.0,331.0
3441,1118,-269,1,3293.0,3167.0,831.0,587.0,35.0,229.0
3595,1409,-700,1,3441.0,3293.0,1118.0,831.0,-269.0,35.0
3782,1637,-1221,1,3595.0,3441.0,1409.0,1118.0,-700.0,-269.0
4001,1809,-1754,1,3782.0,3595.0,1637.0,1409.0,-1221.0,-700.0
4235,2015,-2173,1,4001.0,3782.0,1809.0,1637.0,-1754.0,-1221.0
4456,2294,-2366,1,4235.0,4001.0,2015.0,1809.0,-2173.0,-1754.0
4672,2613,-2307,1,4456.0,4235.0,2294.0,2015.0,-2366.0,-2173.0
4883,2947,-2049,1,4672.0,4456.0,2613.0,2294.0,-2307.0,-2366.0
5067,3275,-1666,1,4883.0,4672.0,2947.0,2613.0,-2049.0,-2307.0
5164,3572,-1252,1,5067.0,4883.0,3275.0,2947.0,-1666.0,-2049.0
5198,3791,-880,1,5164.0,5067.0,3572.0,3275.0,-1252.0,-1666.0
5228,3897,-583,1,5198.0,5164.0,3791.0,3572.0,-880.0,-1252.0
5222,3917,-374,1,5228.0,5198.0,3897.0,3791.0,-583.0,-880.0
5192,3767,-269,1,5222.0,5228.0,3917.0,3897.0,-374.0,-583.0
5016,3443,-359,1,5192.0,5222.0,3767.0,3917.0,-269.0,-374.0
4782,3003,-577,1,5016.0,5192.0,3443.0,3767.0,-359.0,-269.0
4521,2534,-871,1,4782.0,5016.0,3003.0,3443.0,-577.0,-359.0
4252,2078,-1204,1,4521.0,4782.0,2534.0,3003.0,-871.0,-577.0
4067,1662,-1485,1,4252.0,4521.0,2078.0,2534.0,-1204.0,-871.0
4036,1317,-1660,1,4067.0,4252.0,1662.0,2078.0,-1485.0,-1204.0
4095,1101,-1740,1,4036.0,4067.0,1317.0,1662.0,-1660.0,-1485.0
4204,963,-1749,1,4095.0,4036.0,1101.0,1317.0,-1740.0,-1660.0
4374,857,-1697,1,4204.0,4095.0,963.0,1101.0,-1749.0,-1740.0
4590,794,-1612,1,4374.0,4204.0,857.0,963.0,-1697.0,-1749.0
4829,788,-1509,1,4590.0,4374.0,794.0,857.0,-1612.0,-1697.0
5081,812,-1411,1,4829.0,4590.0,788.0,794.0,-1509.0,-1612.0
5325,853,-1322,1,5081.0,4829.0,812.0,788.0,-1411.0,-1509.0
5535,920,-1252,1,5325.0,5081.0,853.0,812.0,-1322.0,-1411.0
5713,997,-1212,1,5535.0,5325.0,920.0,853.0,-1252.0,-1322.0
5826,1073,-1204,1,5713.0,5535.0,997.0,920.0,-1212.0,-1252.0
5846,1132,-1226,1,5826.0,5713.0,1073.0,997.0,-1204.0,-1212.0
5758,1178,-1267,1,5846.0,5826.0,1132.0,1073.0,-1226.0,-1204.0
5622,1268,-1275,1,5758.0,5846.0,1178.0,1132.0,-1267.0,-1226.0
5483,1419,-1227,1,5622.0,5758.0,1268.0,1178.0,-1275.0,-1267.0
5344,1572,-1166,1,5483.0,5622.0,1419.0,1268.0,-1227.0,-1275.0
5184,1732,-1088,1,5344.0,5483.0,1572.0,1419.0,-1166.0,-1227.0
5056,1869,-986,1,5184.0,5344.0,1732.0,1572.0,-1088.0,-1166.0
4904,1965,-909,1,5056.0,5184.0,1869.0,1732.0,-986.0,-1088.0
4748,1981,-869,1,4904.0,5056.0,1965.0,1869.0,-909.0,-986.0
4577,1933,-854,1,4748.0,4904.0,1981.0,1965.0,-869.0,-909.0
4397,1846,-823,1,4577.0,4748.0,1933.0,1981.0,-854.0,-869.0
4265,1726,-725,1,4397.0,4577.0,1846.0,1933.0,-823.0,-854.0
4168,1561,-629,1,4265.0,4397.0,1726.0,1846.0,-725.0,-823.0
4086,1384,-554,1,4168.0,4265.0,1561.0,1726.0,-629.0,-725.0
4010,1218,-495,1,4086.0,4168.0,1384.0,1561.0,-554.0,-629.0
3935,1076,-465,1,4010.0,4086.0,1218.0,1384.0,-495.0,-554.0
3850,936,-498,1,3935.0,4010.0,1076.0,1218.0,-465.0,-495.0
3770,802,-538,1,3850.0,3935.0,936.0,1076.0,-498.0,-465.0
3702,694,-560,1,3770.0,3850.0,802.0,936.0,-538.0,-498.0
3635,608,-596,1,3702.0,3770.0,694.0,802.0,-560.0,-538.0
3587,538,-626,1,3635.0,3702.0,608.0,694.0,-596.0,-560.0
3539,483,-661,1,3587.0,3635.0,538.0,608.0,-626.0,-596.0
3488,463,-687,1,3539.0,3587.0,483.0,538.0,-661.0,-626.0
3445,454,-713,1,3488.0,3539.0,463.0,483.0,-687.0,-661.0
3390,423,-764,1,3445.0,3488.0,454.0,463.0,-713.0,-687.0
3329,428,-792,1,3390.0,3445.0,423.0,454.0,-764.0,-713.0
3283,416,-809,1,3329.0,3390.0,428.0,423.0,-792.0,-764.0
3288,347,-835,1,3283.0,3329.0,416.0,428.0,-809.0,-792.0
3302,285,-847,1,3288.0,3283.0,347.0,416.0,-835.0,-809.0
3296,231,-838,1,3302.0,3288.0,285.0,347.0,-847.0,-835.0
3255,186,-809,1,3296.0,3302.0,231.0,285.0,-838.0,-847.0
3191,166,-761,1,3255.0,3296.0,186.0,231.0,-809.0,-838.0
3140,200,-677,1,3191.0,3255.0,166.0,186.0,-761.0,-809.0
3110,228,-574,1,3140.0,3191.0,200.0,166.0,-677.0,-761.0
3084,221,-503,1,3110.0,3140.0,228.0,200.0,-574.0,-677.0
3086,234,-427,1,3084.0,3110.0,221.0,228.0,-503.0,-574.0
3101,222,-393,1,3086.0,3084.0,234.0,221.0,-427.0,-503.0
3116,225,-366,1,3101.0,3086.0,222.0,234.0,-393.0,-427.0
3124,239,-311,1,3116.0,3101.0,225.0,222.0,-366.0,-393.0
3118,194,-269,1,3124.0,3116.0,239.0,225.0,-311.0,-366.0
3138,194,-165,1,3118.0,3124.0,194.0,239.0,-269.0,-311.0
3152,192,-62,1,3138.0,3118.0,194.0,194.0,-165.0,-269.0
3124,190,-20,1,3152.0,3138.0,192.0,194.0,-62.0,-165.0
3108,198,-4,1,3124.0,3152.0,190.0,192.0,-20.0,-62.0
3083,199,-1,1,3108.0,3124.0,198.0,190.0,-4.0,-20.0
3052,233,27,1,3083.0,3108.0,199.0,198.0,-1.0,-4.0
3040,239,74,1,3052.0,3083.0,233.0,199.0,27.0,-1.0
3029,275,149,1,3040.0,3052.0,239.0,233.0,74.0,27.0
2996,320,217,1,3029.0,3040.0,275.0,239.0,149.0,74.0
2960,357,258,1,2996.0,3029.0,320.0,275.0,217.0,149.0
2958,399,289,1,2960.0,2996.0,357.0,320.0,258.0,217.0
2973,435,314,1,2958.0,2960.0,399.0,357.0,289.0,258.0
2991,418,298,1,2973.0,2958.0,435.0,399.0,314.0,289.0
2986,402,253,1,2991.0,2973.0,418.0,435.0,298.0,314.0
2984,393,197,1,2986.0,2991.0,402.0,418.0,253.0,298.0
2993,371,137,1,2984.0,2986.0,393.0,402.0,197.0,253.0
3003,342,77,1,2993.0,2984.0,371.0,393.0,137.0,197.0
3023,291,-9,1,3003.0,2993.0,342.0,371.0,77.0,137.0
3045,230,-113,1,3023.0,3003.0,291.0,342.0,-9.0,77.0
3075,199,-217,1,3045.0,3023.0,230.0,291.0,-113.0,-9.0
3108,200,-322,1,3075.0,3045.0,199.0,230.0,-217.0,-113.0
3155,245,-417,1,3108.0,3075.0,200.0,199.0,-322.0,-217.0
3236,316,-501,1,3155.0,3108.0,245.0,200.0,-417.0,-322.0
3334,420,-582,1,3236.0,3155.0,316.0,245.0,-501.0,-417.0
3420,573,-646,1,3334.0,3236.0,420.0,316.0,-582.0,-501.0
3474,764,-690,1,3420.0,3334.0,573.0,420.0,-646.0,-582.0
3482,974,-714,1,3474.0,3420.0,764.0,573.0,-690.0,-646.0
3418,1167,-768,1,3482.0,3474.0,974.0,764.0,-714.0,-690.0
3290,1364,-857,1,3418.0,3482.0,1167.0,974.0,-768.0,-714.0
3121,1563,-966,1,3290.0,3418.0,1364.0,1167.0,-857.0,-768.0
2942,1810,-1066,1,3121.0,3290.0,1563.0,1364.0,-966.0,-857.0
2818,2087,-1175,1,2942.0,3121.0,1810.0,1563.0,-1066.0,-966.0
2776,2327,-1383,1,2818.0,2942.0,2087.0,1810.0,-1175.0,-1066.0
2861,2510,-1730,1,2776.0,2818.0,2327.0,2087.0,-1383.0,-1175.0
3046,2717,-2158,1,2861.0,2776.0,2510.0,2327.0,-1730.0,-1383.0
3379,3007,-2423,1,3046.0,2861.0,2717.0,2510.0,-2158.0,-1730.0
3821,3479,-2364,1,3379.0,3046.0,3007.0,2717.0,-2423.0,-2158.0
4363,3974,-2065,1,3821.0,3379.0,3479.0,3007.0,-2364.0,-2423.0
4894,4379,-1696,1,4363.0,3821.0,3974.0,3479.0,-2065.0,-2364.0
5353,4579,-1375,1,4894.0,4363.0,4379.0,3974.0,-1696.0,-2065.0
5725,4583,-1113,1,5353.0,4894.0,4579.0,4379.0,-1375.0,-1696.0
5994,4387,-928,1,5725.0,5353.0,4583.0,4579.0,-1113.0,-1375.0
6129,4048,-802,1,5994.0,5725.0,4387.0,4583.0,-928.0,-1113.0
6121,3623,-656,1,6129.0,5994.0,4048.0,4387.0,-802.0,-928.0
6013,3159,-478,1,6121.0,6129.0,3623.0,4048.0,-656.0,-802.0
5832,2701,-301,1,6013.0,6121.0,3159.0,3623.0,-478.0,-656.0
5627,2310,-195,1,5832.0,6013.0,2701.0,3159.0,-301.0,-478.0
5473,2062,-170,1,5627.0,5832.0,2310.0,2701.0,-195.0,-301.0
5426,1924,-182,1,5473.0,5627.0,2062.0,2310.0,-170.0,-195.0
5501,1879,-243,1,5426.0,5473.0,1924.0,2062.0,-182.0,-170.0
5644,1884,-373,1,5501.0,5426.0,1879.0,1924.0,-243.0,-182.0
5799,1922,-540,1,5644.0,5501.0,1884.0,1879.0,-373.0,-243.0
5952,1953,-719,1,5799.0,5644.0,1922.0,1884.0,-540.0,-373.0
6072,1955,-907,1,5952.0,5799.0,1953.0,1922.0,-719.0,-540.0
6176,1922,-1097,1,6072.0,5952.0,1955.0,1953.0,-907.0,-719.0
6261,1875,-1255,1,6176.0,6072.0,1922.0,1955.0,-1097.0,-907.0
6281,1785,-1376,1,6261.0,6176.0,1875.0,1922.0,-1255.0,-1097.0
6247,1666,-1452,1,6281.0,6261.0,1785.0,1875.0,-1376.0,-1255.0
6166,1540,-1468,1,6247.0,6281.0,1666.0,1785.0,-1452.0,-1376.0
6048,1449,-1426,1,6166.0,6247.0,1540.0,1666.0,-1468.0,-1452.0
5889,1400,-1355,1,6048.0,6166.0,1449.0,1540.0,-1426.0,-1468.0
5703,1390,-1270,1,5889.0,6048.0,1400.0,1449.0,-1355.0,-1426.0
5514,1430,-1169,1,5703.0,5889.0,1390.0,1400.0,-1270.0,-1355.0
5317,1503,-1081,1,5514.0,5703.0,1430.0,1390.0,-1169.0,-1270.0
5146,1591,-993,1,5317.0,5514.0,1503.0,1430.0,-1081.0,-1169.0
4974,1655,-917,1,5146.0,5317.0,1591.0,1503.0,-993.0,-1081.0
4811,1691,-836,1,4974.0,5146.0,1655.0,1591.0,-917.0,-993.0
4659,1681,-756,1,4811.0,4974.0,1691.0,1655.0,-836.0,-917.0
4514,1658,-663,1,4659.0,4811.0,1681.0,1691.0,-756.0,-836.0
4372,1618,-562,1,4514.0,4659.0,1658.0,1681.0,-663.0,-756.0
4237,1629,-432,1,4372.0,4514.0,1618.0,1658.0,-562.0,-663.0
4121,1647,-291,1,4237.0,4372.0,1629.0,1618.0,-432.0,-562.0
4011,1630,-164,1,4121.0,4237.0,1647.0,1629.0,-291.0,-432.0
3924,1600,-40,1,4011.0,4121.0,1630.0,1647.0,-164.0,-291.0
3856,1573,85,1,3924.0,4011.0,1600.0,1630.0,-40.0,-164.0
3795,1512,173,1,3856.0,3924.0,1573.0,1600.0,85.0,-40.0
3731,1415,192,1,3795.0,3856.0,1512.0,1573.0,173.0,85.0
3609,1347,155,1,3731.0,3795.0,1415.0,1512.0,192.0,173.0
3459,1344,131,1,3609.0,3731.0,1347.0,1415.0,155.0,192.0
3287,1364,125,1,3459.0,3609.0,1344.0,1347.0,131.0,155.0
3123,1382,129,1,3287.0,3459.0,1364.0,1344.0,125.0,131.0
3003,1355,124,1,3123.0,3287.0,1382.0,1364.0,129.0,125.0
2901,1321,122,1,3003.0,3123.0,1355.0,1382.0,124.0,129.0
2807,1272,97,1,2901.0,3003.0,1321.0,1355.0,122.0,124.0
2724,1244,94,1,2807.0,2901.0,1272.0,1321.0,97.0,122.0
2648,1211,101,1,2724.0,2807.0,1244.0,1272.0,94.0,97.0
2581,1148,106,1,2648.0,2724.0,1211.0,1244.0,101.0,94.0
2500,1067,100,1,2581.0,2648.0,1148.0,1211.0,106.0,101.0
2413,978,121,1,2500.0,2581.0,1067.0,1148.0,100.0,106.0
2336,928,188,1,2413.0,2500.0,978.0,1067.0,121.0,100.0
2293,860,270,1,2336.0,2413.0,928.0,978.0,188.0,121.0
2264,760,321,1,2293.0,2336.0,860.0,928.0,270.0,188.0
2222,650,329,1,2264.0,2293.0,760.0,860.0,321.0,270.0
2172,546,300,1,2222.0,2264.0,650.0,760.0,329.0,321.0
2122,484,278,1,2172.0,2222.0,546.0,650.0,300.0,329.0
2101,421,273,1,2122.0,2172.0,484.0,546.0,278.0,300.0
2076,343,241,1,2101.0,2122.0,421.0,484.0,273.0,278.0
2054,272,207,1,2076.0,2101.0,343.0,421.0,241.0,273.0
2029,203,170,1,2054.0,2076.0,272.0,343.0,207.0,241.0
1998,147,137,1,2029.0,2054.0,203.0,272.0,170.0,207.0
1983,76,94,1,1998.0,2029.0,147.0,203.0,137.0,170.0
1962,-8,37,1,1983.0,1998.0,76.0,147.0,94.0,137.0
1944,-124,-53,1,1962.0,1983.0,-8.0,76.0,37.0,94.0
1930,-253,-144,1,1944.0,1962.0,-124.0,-8.0,-53.0,37.0
1931,-379,-228,1,1930.0,1944.0,-253.0,-124.0,-144.0,-53.0
1929,-478,-313,1,1931.0,1930.0,-379.0,-253.0,-228.0,-144.0
1925,-537,-381,1,1929.0,1931.0,-478.0,-379.0,-313.0,-228.0
1921,-546,-401,1,1925.0,1929.0,-537.0,-478.0,-381.0,-313.0
1945,-518,-347,1,1921.0,1925.0,-546.0,-537.0,-401.0,-381.0
2006,-458,-220,1,1945.0,1921.0,-518.0,-546.0,-347.0,-401.0
2079,-340,-33,1,2006.0,1945.0,-458.0,-518.0,-220.0,-347.0
2140,-172,146,1,2079.0,2006.0,-340.0,-458.0,-33.0,-220.0
2202,37,260,1,2140.0,2079.0,-172.0,-340.0,146.0,-33.0
2275,313,294,1,2202.0,2140.0,37.0,-172.0,260.0,146.0
2423,684,285,1,2275.0,2202.0,313.0,37.0,294.0,260.0
2607,1078,221,1,2423.0,2275.0,684.0,313.0,285.0,294.0
2791,1430,61,1,2607.0,2423.0,1078.0,684.0,221.0,285.0
2986,1722,-199,1,2791.0,2607.0,1430.0,1078.0,61.0,221.0
3229,1960,-433,1,2986.0,2791.0,1722.0,1430.0,-199.0,61.0
3535,2147,-631,1,3229.0,2986.0,1960.0,1722.0,-433.0,-199.0
3857,2297,-816,1,3535.0,3229.0,2147.0,1960.0,-631.0,-433.0
4186,2464,-959,1,3857.0,3535.0,2297.0,2147.0,-816.0,-631.0
4524,2614,-1066,1,4186.0,3857.0,2464.0,2297.0,-959.0,-816.0
4870,2738,-1148,1,4524.0,4186.0,2614.0,2464.0,-1066.0,-959.0
5237,2840,-1230,1,4870.0,4524.0,2738.0,2614.0,-1148.0,-1066.0
5578,2988,-1313,1,5237.0,4870.0,2840.0,2738.0,-1230.0,-1148.0
5875,3181,-1400,1,5578.0,5237.0,2988.0,2840.0,-1313.0,-1230.0
6072,3345,-1503,1,5875.0,5578.0,3181.0,2988.0,-1400.0,-1313.0
6164,3377,-1596,1,6072.0,5875.0,3345.0,3181.0,-1503.0,-1400.0
6052,3235,-1729,1,6164.0,6072.0,3377.0,3345.0,-1596.0,-1503.0
5727,2942,-1913,1,6052.0,6164.0,3235.0,3377.0,-1729.0,-1596.0
5404,2619,-1979,1,5727.0,6052.0,2942.0,3235.0,-1913.0,-1729.0
5161,2290,-1940,1,5404.0,5727.0,2619.0,2942.0,-1979.0,-1913.0
5037,1960,-1820,1,5161.0,5404.0,2290.0,2619.0,-1940.0,-1979.0
5027,1688,-1624,1,5037.0,5161.0,1960.0,2290.0,-1820.0,-1940.0
5088,1464,-1421,1,5027.0,5037.0,1688.0,1960.0,-1624.0,-1820.0
5180,1274,-1259,1,5088.0,5027.0,1464.0,1688.0,-1421.0,-1624.0
5274,1142,-1145,1,5180.0,5088.0,1274.0,1464.0,-1259.0,-1421.0
5374,1077,-1068,1,5274.0,5180.0,1142.0,1274.0,-1145.0,-1259.0
5484,1054,-1042,1,5374.0,5274.0,1077.0,1142.0,-1068.0,-1145.0
5592,1052,-1055,1,5484.0,5374.0,1054.0,1077.0,-1042.0,-1068.0
5694,1053,-1095,1,5592.0,5484.0,1052.0,1054.0,-1055.0,-1042.0
5764,1058,-1151,1,5694.0,5592.0,1053.0,1052.0,-1095.0,-1055.0
5806,1069,-1197,1,5764.0,5694.0,1058.0,1053.0,-1151.0,-1095.0
5823,1109,-1232,1,5806.0,5764.0,1069.0,1058.0,-1197.0,-1151.0
5825,1195,-1255,1,5823.0,5806.0,1109.0,1069.0,-1232.0,-1197.0
5824,1321,-1269,1,5825.0,5823.0,1195.0,1109.0,-1255.0,-1232.0
5799,1460,-1283,1,5824.0,5825.0,1321.0,1195.0,-1269.0,-1255.0
5637,1526,-1303,1,5799.0,5824.0,1460.0,1321.0,-1283.0,-1269.0
5511,1756,-1179,1,5637.0,5799.0,1526.0,1460.0,-1303.0,-1283.0
5411,1921,-1070,1,5511.0,5637.0,1756.0,1526.0,-1179.0,-1303.0
5251,2082,-1010,1,5411.0,5511.0,1921.0,1756.0,-1070.0,-1179.0
5065,2242,-936,1,5251.0,5411.0,2082.0,1921.0,-1010.0,-1070.0
4869,2352,-859,1,5065.0,5251.0,2242.0,2082.0,-936.0,-1010.0
4707,2435,-752,1,4869.0,5065.0,2352.0,2242.0,-859.0,-936.0
4557,2465,-689,1,4707.0,4869.0,2435.0,2352.0,-752.0,-859.0
4409,2448,-673,1,4557.0,4707.0,2465.0,2435.0,-689.0,-752.0
4276,2394,-675,1,4409.0,4557.0,2448.0,2465.0,-673.0,-689.0
4189,2233,-700,1,4276.0,4409.0,2394.0,2448.0,-675.0,-673.0
4132,2020,-733,1,4189.0,4276.0,2233.0,2394.0,-700.0,-675.0
4047,1819,-787,1,4132.0,4189.0,2020.0,2233.0,-733.0,-700.0
3929,1611,-813,1,4047.0,4132.0,1819.0,2020.0,-787.0,-733.0
3820,1412,-783,1,3929.0,4047.0,1611.0,1819.0,-813.0,-787.0
3723,1207,-708,1,3820.0,3929.0,1412.0,1611.0,-783.0,-813.0
3632,990,-613,1,3723.0,3820.0,1207.0,1412.0,-708.0,-783.0
3550,750,-566,1,3632.0,3723.0,990.0,1207.0,-613.0,-708.0
3482,517,-546,1,3550.0,3632.0,750.0,990.0,-566.0,-613.0
3427,316,-530,1,3482.0,3550.0,517.0,750.0,-546.0,-566.0
3371,122,-553,1,3427.0,3482.0,316.0,517.0,-530.0,-546.0
3331,-55,-570,1,3371.0,3427.0,122.0,316.0,-553.0,-530.0
3274,-193,-579,1,3331.0,3371.0,-55.0,122.0,-570.0,-553.0
3175,-334,-583,1,3274.0,3331.0,-193.0,-55.0,-579.0,-570.0
3069,-442,-536,1,3175.0,3274.0,-334.0,-193.0,-583.0,-579.0
2941,-485,-489,1,3069.0,3175.0,-442.0,-334.0,-536.0,-583.0
2846,-513,-448,1,2941.0,3069.0,-485.0,-442.0,-489.0,-536.0
2721,-561,-453,1,2846.0,2941.0,-513.0,-485.0,-448.0,-489.0
2580,-501,-401,1,2721.0,2846.0,-561.0,-513.0,-453.0,-448.0
2482,-413,-305,1,2580.0,2721.0,-501.0,-561.0,-401.0,-453.0
2436,-348,-199,1,2482.0,2580.0,-413.0,-501.0,-305.0,-401.0
2390,-256,-59,1,2436.0,2482.0,-348.0,-413.0,-199.0,-305.0
2337,-138,78,1,2390.0,2436.0,-256.0,-348.0,-59.0,-199.0
2255,-32,142,1,2337.0,2390.0,-138.0,-256.0,78.0,-59.0
2156,114,176,1,2255.0,2337.0,-32.0,-138.0,142.0,78.0
2096,255,169,1,2156.0,2255.0,114.0,-32.0,176.0,142.0
2078,397,177,1,2096.0,2156.0,255.0,114.0,169.0,176.0
2110,567,226,1,2078.0,2096.0,397.0,255.0,177.0,169.0
2134,773,247,1,2110.0,2078.0,567.0,397.0,226.0,177.0
2195,903,229,1,2134.0,2110.0,773.0,567.0,247.0,226.0
2249,1016,186,1,2195.0,2134.0,903.0,773.0,229.0,247.0
2319,1177,204,1,2249.0,2195.0,1016.0,903.0,186.0,229.0
2361,1276,208,1,2319.0,2249.0,1177.0,1016.0,204.0,186.0
2403,1368,223,1,2361.0,2319.0,1276.0,1177.0,208.0,204.0
2386,1363,164,1,2403.0,2361.0,1368.0,1276.0,223.0,208.0
2392,1387,148,1,2386.0,2403.0,1363.0,1368.0,164.0,223.0
2363,1331,81,1,2392.0,2386.0,1387.0,1363.0,148.0,164.0
2290,1333,40,1,2363.0,2392.0,1331.0,1387.0,81.0,148.0
2263,1256,-20,1,2290.0,2363.0,1333.0,1331.0,40.0,81.0
2204,1156,-118,1,2263.0,2290.0,1256.0,1333.0,-20.0,40.0
2169,1077,-230,1,2204.0,2263.0,1156.0,1256.0,-118.0,-20.0
2158,1044,-309,1,2169.0,2204.0,1077.0,1156.0,-230.0,-118.0
2148,1004,-364,1,2158.0,2169.0,1044.0,1077.0,-309.0,-230.0
2133,984,-444,1,2148.0,2158.0,1004.0,1044.0,-364.0,-309.0
2130,980,-514,1,2133.0,2148.0,984.0,1004.0,-444.0,-364.0
2150,1038,-563,1,2130.0,2133.0,980.0,984.0,-514.0,-444.0
2142,1150,-624,1,2150.0,2130.0,1038.0,980.0,-563.0,-514.0
2111,1298,-745,1,2142.0,2150.0,1150.0,1038.0,-624.0,-563.0
2061,1448,-960,1,2111.0,2142.0,1298.0,1150.0,-745.0,-624.0
2002,1666,-1220,1,2061.0,2111.0,1448.0,1298.0,-960.0,-745.0
1997,1943,-1476,1,2002.0,2061.0,1666.0,1448.0,-1220.0,-960.0
2096,2213,-1744,1,1997.0,2002.0,1943.0,1666.0,-1476.0,-1220.0
2294,2417,-2036,1,2096.0,1997.0,2213.0,1943.0,-1744.0,-1476.0
2596,2569,-2285,1,2294.0,2096.0,2417.0,2213.0,-2036.0,-1744.0
2972,2799,-2335,1,2596.0,2294.0,2569.0,2417.0,-2285.0,-2036.0
3478,3110,-2166,1,2972.0,2596.0,2799.0,2569.0,-2335.0,-2285.0
4006,3470,-1859,1,3478.0,2972.0,3110.0,2799.0,-2166.0,-2335.0
4700,3754,-1466,1,4006.0,3478.0,3470.0,3110.0,-1859.0,-2166.0
5537,3942,-1114,1,4700.0,4006.0,3754.0,3470.0,-1466.0,-1859.0
6432,4105,-888,1,5537.0,4700.0,3942.0,3754.0,-1114.0,-1466.0
7214,4162,-877,1,6432.0,5537.0,4105.0,3942.0,-888.0,-1114.0
7706,4124,-1060,1,7214.0,6432.0,4162.0,4105.0,-877.0,-888.0
7819,4009,-1278,1,7706.0,7214.0,4124.0,4162.0,-1060.0,-877.0
7706,3843,-1383,1,7819.0,7706.0,4009.0,4124.0,-1278.0,-1060.0
7474,3607,-1422,1,7706.0,7819.0,3843.0,4009.0,-1383.0,-1278.0
7195,3322,-1392,1,7474.0,7706.0,3607.0,3843.0,-1422.0,-1383.0
6936,3067,-1322,1,7195.0,7474.0,3322.0,3607.0,-1392.0,-1422.0
6720,2815,-1258,1,6936.0,7195.0,3067.0,3322.0,-1322.0,-1392.0
6605,2546,-1198,1,6720.0,6936.0,2815.0,3067.0,-1258.0,-1322.0
6403,2462,-1119,1,6605.0,6720.0,2546.0,2815.0,-1198.0,-1258.0
6298,2288,-1058,1,6403.0,6605.0,2462.0,2546.0,-1119.0,-1198.0
6221,2090,-1091,1,6298.0,6403.0,2288.0,2462.0,-1058.0,-1119.0
6193,1956,-1142,1,6221.0,6298.0,2090.0,2288.0,-1091.0,-1058.0
6202,1803,-1212,1,6193.0,6221.0,1956.0,2090.0,-1142.0,-1091.0
6191,1583,-1327,1,6202.0,6193.0,1803.0,1956.0,-1212.0,-1142.0
6212,1399,-1429,1,6191.0,6202.0,1583.0,1803.0,-1327.0,-1212.0
6215,1325,-1432,1,6212.0,6191.0,1399.0,1583.0,-1429.0,-1327.0
6218,1219,-1431,1,6215.0,6212.0,1325.0,1399.0,-1432.0,-1429.0
6175,1203,-1444,1,6218.0,6215.0,1219.0,1325.0,-1431.0,-1432.0
6090,1262,-1437,1,6175.0,6218.0,1203.0,1219.0,-1444.0,-1431.0
5993,1282,-1427,1,6090.0,6175.0,1262.0,1203.0,-1437.0,-1444.0
5868,1314,-1437,1,5993.0,6090.0,1282.0,1262.0,-1427.0,-1437.0
5753,1365,-1427,1,5868.0,5993.0,1314.0,1282.0,-1437.0,-1427.0
5638,1400,-1390,1,5753.0,5868.0,1365.0,1314.0,-1427.0,-1437.0
5523,1421,-1326,1,5638.0,5753.0,1400.0,1365.0,-1390.0,-1427.0
5423,1404,-1223,1,5523.0,5638.0,1421.0,1400.0,-1326.0,-1390.0
5298,1381,-1084,1,5423.0,5523.0,1404.0,1421.0,-1223.0,-1326.0
5154,1375,-890,1,5298.0,5423.0,1381.0,1404.0,-1084.0,-1223.0
5015,1360,-656,1,5154.0,5298.0,1375.0,1381.0,-890.0,-1084.0
4904,1307,-424,1,5015.0,5154.0,1360.0,1375.0,-656.0,-890.0
4696,1282,-213,1,4904.0,5015.0,1307.0,1360.0,-424.0,-656.0
4549,1247,-19,1,4696.0,4904.0,1282.0,1307.0,-213.0,-424.0
4337,1208,79,1,4549.0,4696.0,1247.0,1282.0,-19.0,-213.0
4117,1188,151,1,4337.0,4549.0,1208.0,1247.0,79.0,-19.0
3918,1167,192,1,4117.0,4337.0,1188.0,1208.0,151.0,79.0
3760,1093,199,1,3918.0,4117.0,1167.0,1188.0,192.0,151.0
3639,1029,206,1,3760.0,3918.0,1093.0,1167.0,199.0,192.0
3540,986,197,1,3639.0,3760.0,1029.0,1093.0,206.0,199.0
3454,921,159,1,3540.0,3639.0,986.0,1029.0,197.0,206.0
3370,856,132,1,3454.0,3540.0,921.0,986.0,159.0,197.0
3229,812,118,1,3370.0,3454.0,856.0,921.0,132.0,159.0
3044,837,131,1,3229.0,3370.0,812.0,856.0,118.0,132.0
2833,880,175,1,3044.0,3229.0,837.0,812.0,131.0,118.0
2620,895,227,1,2833.0,3044.0,880.0,837.0,175.0,131.0
2451,909,298,1,2620.0,2833.0,895.0,880.0,227.0,175.0
2306,884,365,1,2451.0,2620.0,909.0,895.0,298.0,227.0
2183,840,425,1,2306.0,2451.0,884.0,909.0,365.0,298.0
2096,744,444,1,2183.0,2306.0,840.0,884.0,425.0,365.0
2035,652,461,1,2096.0,2183.0,744.0,840.0,444.0,425.0
1988,559,494,1,2035.0,2096.0,652.0,744.0,461.0,444.0
1946,456,518,1,1988.0,2035.0,559.0,652.0,494.0,461.0
1876,362,525,1,1946.0,1988.0,456.0,559.0,518.0,494.0
1827,244,513,1,1876.0,1946.0,362.0,456.0,525.0,518.0
1769,175,505,1,1827.0,1876.0,244.0,362.0,513.0,525.0
1702,88,472,1,1769.0,1827.0,175.0,244.0,505.0,513.0
1628,-17,415,1,1702.0,1769.0,88.0,175.0,472.0,505.0
1562,-121,358,1,1628.0,1702.0,-17.0,88.0,415.0,472.0
1525,-235,306,1,1562.0,1628.0,-121.0,-17.0,358.0,415.0
1481,-312,259,1,1525.0,1562.0,-235.0,-121.0,306.0,358.0
1429,-411,169,1,1481.0,1525.0,-312.0,-235.0,259.0,306.0
1389,-433,105,1,1429.0,1481.0,-411.0,-312.0,169.0,259.0
1342,-413,55,1,1389.0,1429.0,-433.0,-411.0,105.0,169.0
1311,-410,-29,1,1342.0,1389.0,-413.0,-433.0,55.0,105.0
1285,-409,-130,1,1311.0,1342.0,-410.0,-413.0,-29.0,55.0
1268,-427,-233,1,1285.0,1311.0,-409.0,-410.0,-130.0,-29.0
1304,-398,-236,1,1268.0,1285.0,-427.0,-409.0,-233.0,-130.0
1354,-367,-191,1,1304.0,1268.0,-398.0,-427.0,-236.0,-233.0
1381,-361,-157,1,1354.0,1304.0,-367.0,-398.0,-191.0,-236.0
1419,-365,-119,1,1381.0,1354.0,-361.0,-367.0,-157.0,-191.0
1488,-337,-47,1,1419.0,1381.0,-365.0,-361.0,-119.0,-157.0
1536,-294,6,1,1488.0,1419.0,-337.0,-365.0,-47.0,-119.0
1622,-180,105,1,1536.0,1488.0,-294.0,-337.0,6.0,-47.0
1739,-5,238,1,1622.0,1536.0,-180.0,-294.0,105.0,6.0
1876,219,404,1,1739.0,1622.0,-5.0,-180.0,238.0,105.0
2022,382,523,1,1876.0,1739.0,219.0,-5.0,404.0,238.0
2155,548,624,1,2022.0,1876.0,382.0,219.0,523.0,404.0
2248,694,619,1,2155.0,2022.0,548.0,382.0,624.0,523.0
2313,833,443,1,2248.0,2155.0,694.0,548.0,619.0,624.0
2304,1019,226,1,2313.0,2248.0,833.0,694.0,443.0,619.0
2265,1292,86,1,2304.0,2313.0,1019.0,833.0,226.0,443.0
2237,1611,-87,1,2265.0,2304.0,1292.0,1019.0,86.0,226.0
2205,1945,-399,1,2237.0,2265.0,1611.0,1292.0,-87.0,86.0
2206,2260,-836,1,2205.0,2237.0,1945.0,1611.0,-399.0,-87.0
2377,2637,-1259,1,2206.0,2205.0,2260.0,1945.0,-836.0,-399.0
2874,3025,-1517,1,2377.0,2206.0,2637.0,2260.0,-1259.0,-836.0
3774,3337,-1506,1,2874.0,2377.0,3025.0,2637.0,-1517.0,-1259.0
4867,3455,-1298,1,3774.0,2874.0,3337.0,3025.0,-1506.0,-1517.0
5827,3517,-1062,1,4867.0,3774.0,3455.0,3337.0,-1298.0,-1506.0
6501,3636,-970,1,5827.0,4867.0,3517.0,3455.0,-1062.0,-1298.0
6938,3811,-1090,1,6501.0,5827.0,3636.0,3517.0,-970.0,-1062.0
7296,3967,-1370,1,6938.0,6501.0,3811.0,3636.0,-1090.0,-970.0
7538,3978,-1788,1,7296.0,6938.0,3967.0,3811.0,-1370.0,-1090.0
7708,3779,-2199,1,7538.0,7296.0,3978.0,3967.0,-1788.0,-1370.0
7841,3614,-2466,1,7708.0,7538.0,3779.0,3978.0,-2199.0,-1788.0
7812,3391,-2539,1,7841.0,7708.0,3614.0,3779.0,-2466.0,-2199.0
7336,3170,-2578,1,7812.0,7841.0,3391.0,3614.0,-2539.0,-2466.0
6880,2742,-2450,1,7336.0,7812.0,3170.0,3391.0,-2578.0,-2539.0
6577,2345,-2002,1,6880.0,7336.0,2742.0,3170.0,-2450.0,-2578.0
6327,1953,-1495,1,6577.0,6880.0,2345.0,2742.0,-2002.0,-2450.0
6063,1567,-1120,1,6327.0,6577.0,1953.0,2345.0,-1495.0,-2002.0
5800,1257,-875,1,6063.0,6327.0,1567.0,1953.0,-1120.0,-1495.0
5590,1065,-728,1,5800.0,6063.0,1257.0,1567.0,-875.0,-1120.0
5461,1038,-651,1,5590.0,5800.0,1065.0,1257.0,-728.0,-875.0
5439,1090,-643,1,5461.0,5590.0,1038.0,1065.0,-651.0,-728.0
5505,1208,-668,1,5439.0,5461.0,1090.0,1038.0,-643.0,-651.0
5583,1401,-711,1,5505.0,5439.0,1208.0,1090.0,-668.0,-643.0
5681,1562,-771,1,5583.0,5505.0,1401.0,1208.0,-711.0,-668.0
5774,1676,-845,1,5681.0,5583.0,1562.0,1401.0,-771.0,-711.0
5815,1782,-919,1,5774.0,5681.0,1676.0,1562.0,-845.0,-771.0
5858,1824,-1003,1,5815.0,5774.0,1782.0,1676.0,-919.0,-845.0
5940,1835,-1110,1,5858.0,5815.0,1824.0,1782.0,-1003.0,-919.0
6006,1826,-1227,1,5940.0,5858.0,1835.0,1824.0,-1110.0,-1003.0
6018,1840,-1339,1,6006.0,5940.0,1826.0,1835.0,-1227.0,-1110.0
5895,1851,-1421,1,6018.0,6006.0,1840.0,1826.0,-1339.0,-1227.0
5731,1860,-1392,1,5895.0,6018.0,1851.0,1840.0,-1421.0,-1339.0
5573,1881,-1296,1,5731.0,5895.0,1860.0,1851.0,-1392.0,-1421.0
5406,1898,-1201,1,5573.0,5731.0,1881.0,1860.0,-1296.0,-1392.0
5186,1970,-1112,1,5406.0,5573.0,1898.0,1881.0,-1201.0,-1296.0
4953,2060,-1001,1,5186.0,5406.0,1970.0,1898.0,-1112.0,-1201.0
4771,2063,-871,1,4953.0,5186.0,2060.0,1970.0,-1001.0,-1112.0
4606,2044,-753,1,4771.0,4953.0,2063.0,2060.0,-871.0,-1001.0
4433,1987,-689,1,4606.0,4771.0,2044.0,2063.0,-753.0,-871.0
4262,1881,-659,1,4433.0,4606.0,1987.0,2044.0,-689.0,-753.0
4097,1691,-703,1,4262.0,4433.0,1881.0,1987.0,-659.0,-689.0
3954,1483,-754,1,4097.0,4262.0,1691.0,1881.0,-703.0,-659.0
3791,1298,-784,1,3954.0,4097.0,1483.0,1691.0,-754.0,-703.0
3665,1051,-819,1,3791.0,3954.0,1298.0,1483.0,-784.0,-754.0
3534,839,-840,1,3665.0,3791.0,1051.0,1298.0,-819.0,-784.0
3402,673,-826,1,3534.0,3665.0,839.0,1051.0,-840.0,-819.0
3323,548,-774,1,3402.0,3534.0,673.0,839.0,-826.0,-840.0
3289,460,-674,1,3323.0,3402.0,548.0,673.0,-774.0,-826.0
3255,387,-559,1,3289.0,3323.0,460.0,548.0,-674.0,-774.0
3197,312,-475,1,3255.0,3289.0,387.0,460.0,-559.0,-674.0
3151,213,-429,1,3197.0,3255.0,312.0,387.0,-475.0,-559.0
3086,135,-407,1,3151.0,3197.0,213.0,312.0,-429.0,-475.0
3060,30,-395,1,3086.0,3151.0,135.0,213.0,-407.0,-429.0
2968,-89,-407,1,3060.0,3086.0,30.0,135.0,-395.0,-407.0
2888,-206,-356,1,2968.0,3060.0,-89.0,30.0,-407.0,-395.0
2781,-267,-281,1,2888.0,2968.0,-206.0,-89.0,-356.0,-407.0
2642,-298,-184,1,2781.0,2888.0,-267.0,-206.0,-281.0,-356.0
2513,-304,-77,1,2642.0,2781.0,-298.0,-267.0,-184.0,-281.0
2360,-219,19,1,2513.0,2642.0,-304.0,-298.0,-77.0,-184.0
2294,-163,119,1,2360.0,2513.0,-219.0,-304.0,19.0,-77.0
2185,-61,210,1,2294.0,2360.0,-163.0,-219.0,119.0,19.0
2098,79,281,1,2185.0,2294.0,-61.0,-163.0,210.0,119.0
1999,180,310,1,2098.0,2185.0,79.0,-61.0,281.0,210.0
1886,268,311,1,1999.0,2098.0,180.0,79.0,310.0,281.0
1884,372,381,1,1886.0,1999.0,268.0,180.0,311.0,310.0
1905,458,395,1,1884.0,1886.0,372.0,268.0,381.0,311.0
1899,530,372,1,1905.0,1884.0,458.0,372.0,395.0,381.0
1920,582,327,1,1899.0,1905.0,530.0,458.0,372.0,395.0
1943,639,290,1,1920.0,1899.0,582.0,530.0,327.0,372.0
1901,673,244,1,1943.0,1920.0,639.0,582.0,290.0,327.0
1834,702,186,1,1901.0,1943.0,673.0,639.0,244.0,290.0
1767,717,148,1,1834.0,1901.0,702.0,673.0,186.0,244.0
1774,708,176,1,1767.0,1834.0,717.0,702.0,148.0,186.0
1835,652,209,1,1774.0,1767.0,708.0,717.0,176.0,148.0
1912,601,241,1,1835.0,1774.0,652.0,708.0,209.0,176.0
1997,562,260,1,1912.0,1835.0,601.0,652.0,241.0,209.0
2078,517,230,1,1997.0,1912.0,562.0,601.0,260.0,241.0
2198,503,210,1,2078.0,1997.0,517.0,562.0,230.0,260.0
2329,486,174,1,2198.0,2078.0,503.0,517.0,210.0,230.0
2474,460,124,1,2329.0,2198.0,486.0,503.0,174.0,210.0
2632,429,66,1,2474.0,2329.0,460.0,486.0,124.0,174.0
2772,396,-26,1,2632.0,2474.0,429.0,460.0,66.0,124.0
2890,356,-137,1,2772.0,2632.0,396.0,429.0,-26.0,66.0
2976,343,-237,1,2890.0,2772.0,356.0,396.0,-137.0,-26.0
3033,374,-328,1,2976.0,2890.0,343.0,356.0,-237.0,-137.0
3063,410,-411,1,3033.0,2976.0,374.0,343.0,-328.0,-237.0
3023,439,-520,1,3063.0,3033.0,410.0,374.0,-411.0,-328.0
2908,488,-641,1,3023.0,3063.0,439.0,410.0,-520.0,-411.0
2729,556,-792,1,2908.0,3023.0,488.0,439.0,-641.0,-520.0
2538,666,-956,1,2729.0,2908.0,556.0,488.0,-792.0,-641.0
2364,802,-1107,1,2538.0,2729.0,666.0,556.0,-956.0,-792.0
2236,990,-1225,1,2364.0,2538.0,802.0,666.0,-1107.0,-956.0
2171,1167,-1427,1,2236.0,2364.0,990.0,802.0,-1225.0,-1107.0
2177,1306,-1748,1,2171.0,2236.0,1167.0,990.0,-1427.0,-1225.0
2261,1442,-2120,1,2177.0,2171.0,1306.0,1167.0,-1748.0,-1427.0
2431,1656,-2370,1,2261.0,2177.0,1442.0,1306.0,-2120.0,-1748.0
2719,2020,-2323,1,2431.0,2261.0,1656.0,1442.0,-2370.0,-2120.0
3086,2506,-2014,1,2719.0,2431.0,2020.0,1656.0,-2323.0,-2370.0
3523,3034,-1568,1,3086.0,2719.0,2506.0,2020.0,-2014.0,-2323.0
4058,3519,-1101,1,3523.0,3086.0,3034.0,2506.0,-1568.0,-2014.0
4660,3965,-730,1,4058.0,3523.0,3519.0,3034.0,-1101.0,-1568.0
5289,4370,-525,1,4660.0,4058.0,3965.0,3519.0,-730.0,-1101.0
5976,4719,-486,1,5289.0,4660.0,4370.0,3965.0,-525.0,-730.0
6776,5043,-536,1,5976.0,5289.0,4719.0,4370.0,-486.0,-525.0
7699,5355,-602,1,6776.0,5976.0,5043.0,4719.0,-536.0,-486.0
8660,5450,-742,1,7699.0,6776.0,5355.0,5043.0,-602.0,-536.0
9424,5314,-863,1,8660.0,7699.0,5450.0,5355.0,-742.0,-602.0
9722,4731,-1056,1,9424.0,8660.0,5314.0,5450.0,-863.0,-742.0
8892,4222,-1416,1,9722.0,9424.0,4731.0,5314.0,-1056.0,-863.0
7841,3925,-1445,1,8892.0,9722.0,4222.0,4731.0,-1416.0,-1056.0
7065,3461,-1336,1,7841.0,8892.0,3925.0,4222.0,-1445.0,-1416.0
6583,2885,-1227,1,7065.0,7841.0,3461.0,3925.0,-1336.0,-1445.0
6258,2331,-1224,1,6583.0,7065.0,2885.0,3461.0,-1227.0,-1336.0
6074,1912,-1240,1,6258.0,6583.0,2331.0,2885.0,-1224.0,-1227.0
6012,1569,-1197,1,6074.0,6258.0,1912.0,2331.0,-1240.0,-1224.0
6026,1267,-1066,1,6012.0,6074.0,1569.0,1912.0,-1197.0,-1240.0
6062,1016,-905,1,6026.0,6012.0,1267.0,1569.0,-1066.0,-1197.0
6099,811,-785,1,6062.0,6026.0,1016.0,1267.0,-905.0,-1066.0
6118,650,-726,1,6099.0,6062.0,811.0,1016.0,-785.0,-905.0
6140,486,-729,1,6118.0,6099.0,650.0,811.0,-726.0,-785.0
6142,371,-768,1,6140.0,6118.0,486.0,650.0,-729.0,-726.0
6104,255,-826,1,6142.0,6140.0,371.0,486.0,-768.0,-729.0
6040,191,-864,1,6104.0,6142.0,255.0,371.0,-826.0,-768.0
5964,139,-882,1,6040.0,6104.0,191.0,255.0,-864.0,-826.0
5843,162,-868,1,5964.0,6040.0,139.0,191.0,-882.0,-864.0
5707,230,-820,1,5843.0,5964.0,162.0,139.0,-868.0,-882.0
5567,312,-788,1,5707.0,5843.0,230.0,162.0,-820.0,-868.0
5417,431,-740,1,5567.0,5707.0,312.0,230.0,-788.0,-820.0
5267,593,-622,1,5417.0,5567.0,431.0,312.0,-740.0,-788.0
5092,666,-549,1,5267.0,5417.0,593.0,431.0,-622.0,-740.0
4928,803,-443,1,5092.0,5267.0,666.0,593.0,-549.0,-622.0
4741,898,-324,1,4928.0,5092.0,803.0,666.0,-443.0,-549.0
4519,1059,-160,1,4741.0,4928.0,898.0,803.0,-324.0,-443.0
4282,1181,-83,1,4519.0,4741.0,1059.0,898.0,-160.0,-324.0
4052,1286,-35,1,4282.0,4519.0,1181.0,1059.0,-83.0,-160.0
3842,1358,-13,1,4052.0,4282.0,1286.0,1181.0,-35.0,-83.0
3633,1370,-1,1,3842.0,4052.0,1358.0,1286.0,-13.0,-35.0
3429,1356,35,1,3633.0,3842.0,1370.0,1358.0,-1.0,-13.0
3229,1351,95,1,3429.0,3633.0,1356.0,1370.0,35.0,-1.0
3043,1325,179,1,3229.0,3429.0,1351.0,1356.0,95.0,35.0
2869,1310,254,1,3043.0,3229.0,1325.0,1351.0,179.0,95.0
2712,1267,304,1,2869.0,3043.0,1310.0,1325.0,254.0,179.0
2579,1255,382,1,2712.0,2869.0,1267.0,1310.0,304.0,254.0
2468,1229,420,1,2579.0,2712.0,1255.0,1267.0,382.0,304.0
2361,1169,412,1,2468.0,2579.0,1229.0,1255.0,420.0,382.0
2225,1167,419,1,2361.0,2468.0,1169.0,1229.0,412.0,420.0
2095,1165,452,1,2225.0,2361.0,1167.0,1169.0,419.0,412.0
1998,1130,496,1,2095.0,2225.0,1165.0,1167.0,452.0,419.0
1907,1040,506,1,1998.0,2095.0,1130.0,1165.0,496.0,452.0
1842,937,513,1,1907.0,1998.0,1040.0,1130.0,506.0,496.0
1811,816,523,1,1842.0,1907.0,937.0,1040.0,513.0,506.0
1783,702,526,1,1811.0,1842.0,816.0,937.0,523.0,513.0
1750,621,518,1,1783.0,1811.0,702.0,816.0,526.0,523.0
1710,544,511,1,1750.0,1783.0,621.0,702.0,518.0,526.0
1678,449,497,1,1710.0,1750.0,544.0,621.0,511.0,518.0
1639,348,442,1,1678.0,1710.0,449.0,544.0,497.0,511.0
1598,264,398,1,1639.0,1678.0,348.0,449.0,442.0,497.0
1543,187,357,1,1598.0,1639.0,264.0,348.0,398.0,442.0
1517,85,309,1,1543.0,1598.0,187.0,264.0,357.0,398.0
1518,2,282,1,1517.0,1543.0,85.0,187.0,309.0,357.0
1512,-52,282,1,1518.0,1517.0,2.0,85.0,282.0,309.0
1507,-66,286,1,1512.0,1518.0,-52.0,2.0,282.0,282.0
1492,-73,258,1,1507.0,1512.0,-66.0,-52.0,286.0,282.0
1451,-57,200,1,1492.0,1507.0,-73.0,-66.0,258.0,286.0
1392,13,96,1,1451.0,1492.0,-57.0,-73.0,200.0,258.0
1347,97,-46,1,1392.0,1451.0,13.0,-57.0,96.0,200.0
1301,237,-178,1,1347.0,1392.0,97.0,13.0,-46.0,96.0
1266,404,-323,1,1301.0,1347.0,237.0,97.0,-178.0,-46.0
1307,586,-416,1,1266.0,1301.0,404.0,237.0,-323.0,-178.0
1413,716,-481,1,1307.0,1266.0,586.0,404.0,-416.0,-323.0
1572,775,-468,1,1413.0,1307.0,716.0,586.0,-481.0,-416.0
1773,831,-343,1,1572.0,1413.0,775.0,716.0,-468.0,-481.0
1996,908,-163,1,1773.0,1572.0,831.0,775.0,-343.0,-468.0
2258,1048,69,1,1996.0,1773.0,908.0,831.0,-163.0,-343.0
2527,1295,213,1,2258.0,1996.0,1048.0,908.0,69.0,-163.0
2784,1594,150,1,2527.0,2258.0,1295.0,1048.0,213.0,69.0
3066,1885,42,1,2784.0,2527.0,1594.0,1295.0,150.0,213.0
3423,2150,2,1,3066.0,2784.0,1885.0,1594.0,42.0,150.0
3827,2378,45,1,3423.0,3066.0,2150.0,1885.0,2.0,42.0
4266,2496,134,1,3827.0,3423.0,2378.0,2150.0,45.0,2.0
4630,2496,127,1,4266.0,3827.0,2496.0,2378.0,134.0,45.0
4884,2414,-97,1,4630.0,4266.0,2496.0,2496.0,127.0,134.0
5154,2375,-401,1,4884.0,4630.0,2414.0,2496.0,-97.0,127.0
5490,2409,-673,1,5154.0,4884.0,2375.0,2414.0,-401.0,-97.0
5834,2451,-859,1,5490.0,5154.0,2409.0,2375.0,-673.0,-401.0
6051,2508,-929,1,5834.0,5490.0,2451.0,2409.0,-859.0,-673.0
6121,2520,-954,1,6051.0,5834.0,2508.0,2451.0,-929.0,-859.0
6131,2424,-1050,1,6121.0,6051.0,2520.0,2508.0,-954.0,-929.0
6086,2138,-1281,1,6131.0,6121.0,2424.0,2520.0,-1050.0,-954.0
5989,1764,-1566,1,6086.0,6131.0,2138.0,2424.0,-1281.0,-1050.0
5929,1423,-1805,1,5989.0,6086.0,1764.0,2138.0,-1566.0,-1281.0
5946,1088,-1942,1,5929.0,5989.0,1423.0,1764.0,-1805.0,-1566.0
6005,840,-1986,1,5946.0,5929.0,1088.0,1423.0,-1942.0,-1805.0
6091,566,-1940,1,6005.0,5946.0,840.0,1088.0,-1986.0,-1942.0
6118,306,-1854,1,6091.0,6005.0,566.0,840.0,-1940.0,-1986.0
6067,109,-1791,1,6118.0,6091.0,306.0,566.0,-1854.0,-1940.0
5900,-3,-1763,1,6067.0,6118.0,109.0,306.0,-1791.0,-1854.0
5705,-33,-1717,1,5900.0,6067.0,-3.0,109.0,-1763.0,-1791.0
5489,52,-1636,1,5705.0,5900.0,-33.0,-3.0,-1717.0,-1763.0
5434,230,-1497,1,5489.0,5705.0,52.0,-33.0,-1636.0,-1717.0
5565,463,-1373,1,5434.0,5489.0,230.0,52.0,-1497.0,-1636.0
5651,719,-1370,1,5565.0,5434.0,463.0,230.0,-1373.0,-1497.0
5698,982,-1383,1,5651.0,5565.0,719.0,463.0,-1370.0,-1373.0
5747,1251,-1340,1,5698.0,5651.0,982.0,719.0,-1383.0,-1370.0
5787,1485,-1271,1,5747.0,5698.0,1251.0,982.0,-1340.0,-1383.0
5808,1712,-1172,1,5787.0,5747.0,1485.0,1251.0,-1271.0,-1340.0
5821,1939,-1056,1,5808.0,5787.0,1712.0,1485.0,-1172.0,-1271.0
5827,2146,-966,1,5821.0,5808.0,1939.0,1712.0,-1056.0,-1172.0
5828,2301,-921,1,5827.0,5821.0,2146.0,1939.0,-966.0,-1056.0
5796,2457,-928,1,5828.0,5827.0,2301.0,2146.0,-921.0,-966.0
5683,2571,-960,1,5796.0,5828.0,2457.0,2301.0,-928.0,-921.0
5489,2704,-946,1,5683.0,5796.0,2571.0,2457.0,-960.0,-928.0
5280,2733,-898,1,5489.0,5683.0,2704.0,2571.0,-946.0,-960.0
5058,2762,-807,1,5280.0,5489.0,2733.0,2704.0,-898.0,-946.0
4814,2772,-667,1,5058.0,5280.0,2762.0,2733.0,-807.0,-898.0
4566,2768,-531,1,4814.0,5058.0,2772.0,2762.0,-667.0,-807.0
4365,2706,-402,1,4566.0,4814.0,2768.0,2772.0,-531.0,-667.0
4222,2591,-311,1,4365.0,4566.0,2706.0,2768.0,-402.0,-531.0
4123,2427,-268,1,4222.0,4365.0,2591.0,2706.0,-311.0,-402.0
4056,2218,-267,1,4123.0,4222.0,2427.0,2591.0,-268.0,-311.0
3994,2000,-304,1,4056.0,4123.0,2218.0,2427.0,-267.0,-268.0
3926,1762,-397,1,3994.0,4056.0,2000.0,2218.0,-304.0,-267.0
3889,1483,-498,1,3926.0,3994.0,1762.0,2000.0,-397.0,-304.0
3848,1203,-595,1,3889.0,3926.0,1483.0,1762.0,-498.0,-397.0
3789,939,-660,1,3848.0,3889.0,1203.0,1483.0,-595.0,-498.0
3698,716,-678,1,3789.0,3848.0,939.0,1203.0,-660.0,-595.0
3588,535,-590,1,3698.0,3789.0,716.0,939.0,-678.0,-660.0
3459,369,-494,1,3588.0,3698.0,535.0,716.0,-590.0,-678.0
3325,199,-449,1,3459.0,3588.0,369.0,535.0,-494.0,-590.0
3260,80,-360,1,3325.0,3459.0,199.0,369.0,-449.0,-494.0
3179,-8,-235,1,3260.0,3325.0,80.0,199.0,-360.0,-449.0
3085,-46,-126,1,3179.0,3260.0,-8.0,80.0,-235.0,-360.0
2943,6,-38,1,3085.0,3179.0,-46.0,-8.0,-126.0,-235.0
2873,-65,-20,1,2943.0,3085.0,6.0,-46.0,-38.0,-126.0
2803,-133,-72,1,2873.0,2943.0,-65.0,6.0,-20.0,-38.0
2773,-216,-139,1,2803.0,2873.0,-133.0,-65.0,-72.0,-20.0
2726,-210,-185,1,2773.0,2803.0,-216.0,-133.0,-139.0,-72.0
2630,-195,-244,1,2726.0,2773.0,-210.0,-216.0,-185.0,-139.0
2483,-205,-274,1,2630.0,2726.0,-195.0,-210.0,-244.0,-185.0
2315,-166,-227,1,2483.0,2630.0,-205.0,-195.0,-274.0,-244.0
2180,-134,-123,1,2315.0,2483.0,-166.0,-205.0,-227.0,-274.0
2057,-123,-35,1,2180.0,2315.0,-134.0,-166.0,-123.0,-227.0
1945,-116,46,1,2057.0,2180.0,-123.0,-134.0,-35.0,-123.0
1876,-80,115,1,1945.0,2057.0,-116.0,-123.0,46.0,-35.0
1869,-46,161,1,1876.0,1945.0,-80.0,-116.0,115.0,46.0
1848,-32,214,1,1869.0,1876.0,-46.0,-80.0,161.0,115.0
1796,-17,216,1,1848.0,1869.0,-32.0,-46.0,214.0,161.0
1723,28,191,1,1796.0,1848.0,-17.0,-32.0,216.0,214.0
1709,75,173,1,1723.0,1796.0,28.0,-17.0,191.0,216.0
1733,120,149,1,1709.0,1723.0,75.0,28.0,173.0,191.0
1787,192,164,1,1733.0,1709.0,120.0,75.0,149.0,173.0
1842,267,207,1,1787.0,1733.0,192.0,120.0,164.0,149.0
1924,361,278,1,1842.0,1787.0,267.0,192.0,207.0,164.0
2013,462,361,1,1924.0,1842.0,361.0,267.0,278.0,207.0
2093,549,437,1,2013.0,1924.0,462.0,361.0,361.0,278.0
2137,608,440,1,2093.0,2013.0,549.0,462.0,437.0,361.0
2180,699,448,1,2137.0,2093.0,608.0,549.0,440.0,437.0
2269,723,433,1,2180.0,2137.0,699.0,608.0,448.0,440.0
2325,726,365,1,2269.0,2180.0,723.0,699.0,433.0,448.0
2376,691,263,1,2325.0,2269.0,726.0,723.0,365.0,433.0
2424,641,145,1,2376.0,2325.0,691.0,726.0,263.0,365.0
2434,591,5,1,2424.0,2376.0,641.0,691.0,145.0,263.0
2434,505,-174,1,2434.0,2424.0,591.0,641.0,5.0,145.0
2451,449,-320,1,2434.0,2434.0,505.0,591.0,-174.0,5.0
2497,438,-397,1,2451.0,2434.0,449.0,505.0,-320.0,-174.0
2536,430,-451,1,2497.0,2451.0,438.0,449.0,-397.0,-320.0
2558,490,-482,1,2536.0,2497.0,430.0,438.0,-451.0,-397.0
2594,581,-487,1,2558.0,2536.0,490.0,430.0,-482.0,-451.0
2607,686,-490,1,2594.0,2558.0,581.0,490.0,-487.0,-482.0
2569,786,-532,1,2607.0,2594.0,686.0,581.0,-490.0,-487.0
2459,856,-616,1,2569.0,2607.0,786.0,686.0,-532.0,-490.0
2276,963,-711,1,2459.0,2569.0,856.0,786.0,-616.0,-532.0
2078,1168,-814,1,2276.0,2459.0,963.0,856.0,-711.0,-616.0
1943,1441,-925,1,2078.0,2276.0,1168.0,963.0,-814.0,-711.0
1889,1717,-1121,1,1943.0,2078.0,1441.0,1168.0,-925.0,-814.0
1927,1922,-1625,1,1889.0,1943.0,1717.0,1441.0,-1121.0,-925.0
2067,2011,-2452,1,1927.0,1889.0,1922.0,1717.0,-1625.0,-1121.0
2302,2061,-3304,1,2067.0,1927.0,2011.0,1922.0,-2452.0,-1625.0
2690,2290,-3776,1,2302.0,2067.0,2061.0,2011.0,-3304.0,-2452.0
3310,2749,-3702,1,2690.0,2302.0,2290.0,2061.0,-3776.0,-3304.0
4088,3420,-3225,1,3310.0,2690.0,2749.0,2290.0,-3702.0,-3776.0
5057,4130,-2645,1,4088.0,3310.0,3420.0,2749.0,-3225.0,-3702.0
6241,4876,-2108,1,5057.0,4088.0,4130.0,3420.0,-2645.0,-3225.0
7499,5615,-1636,1,6241.0,5057.0,4876.0,4130.0,-2108.0,-2645.0
8711,6315,-1113,1,7499.0,6241.0,5615.0,4876.0,-1636.0,-2108.0
9686,6752,-662,1,8711.0,7499.0,6315.0,5615.0,-1113.0,-1636.0
10209,6701,-385,1,9686.0,8711.0,6752.0,6315.0,-662.0,-1113.0
10019,6187,-301,1,10209.0,9686.0,6701.0,6752.0,-385.0,-662.0
9220,5423,-204,1,10019.0,10209.0,6187.0,6701.0,-301.0,-385.0
8225,4562,-81,1,9220.0,10019.0,5423.0,6187.0,-204.0,-301.0
7273,3694,83,1,8225.0,9220.0,4562.0,5423.0,-81.0,-204.0
6497,3026,25,1,7273.0,8225.0,3694.0,4562.0,83.0,-81.0
5959,2490,-170,1,6497.0,7273.0,3026.0,3694.0,25.0,83.0
5633,2067,-406,1,5959.0,6497.0,2490.0,3026.0,-170.0,25.0
5499,1805,-623,1,5633.0,5959.0,2067.0,2490.0,-406.0,-170.0
5513,1690,-816,1,5499.0,5633.0,1805.0,2067.0,-623.0,-406.0
5660,1612,-1022,1,5513.0,5499.0,1690.0,1805.0,-816.0,-623.0
5861,1532,-1223,1,5660.0,5513.0,1612.0,1690.0,-1022.0,-816.0
6021,1435,-1417,1,5861.0,5660.0,1532.0,1612.0,-1223.0,-1022.0
6119,1354,-1547,1,6021.0,5861.0,1435.0,1532.0,-1417.0,-1223.0
6171,1267,-1595,1,6119.0,6021.0,1354.0,1435.0,-1547.0,-1417.0
6190,1156,-1574,1,6171.0,6119.0,1267.0,1354.0,-1595.0,-1547.0
6171,1071,-1490,1,6190.0,6171.0,1156.0,1267.0,-1574.0,-1595.0
6156,1005,-1347,1,6171.0,6190.0,1071.0,1156.0,-1490.0,-1574.0
6122,965,-1191,1,6156.0,6171.0,1005.0,1071.0,-1347.0,-1490.0
6062,969,-1037,1,6122.0,6156.0,965.0,1005.0,-1191.0,-1347.0
5950,1014,-892,1,6062.0,6122.0,969.0,965.0,-1037.0,-1191.0
5807,1070,-766,1,5950.0,6062.0,1014.0,969.0,-892.0,-1037.0
5628,1093,-678,1,5807.0,5950.0,1070.0,1014.0,-766.0,-892.0
5433,1077,-616,1,5628.0,5807.0,1093.0,1070.0,-678.0,-766.0
5244,1073,-530,1,5433.0,5628.0,1077.0,1093.0,-616.0,-678.0
5038,1075,-418,1,5244.0,5433.0,1073.0,1077.0,-530.0,-616.0
4856,1063,-272,1,5038.0,5244.0,1075.0,1073.0,-418.0,-530.0
4611,1061,-140,1,4856.0,5038.0,1063.0,1075.0,-272.0,-418.0
4374,1104,-18,1,4611.0,4856.0,1061.0,1063.0,-140.0,-272.0
4153,1132,77,1,4374.0,4611.0,1104.0,1061.0,-18.0,-140.0
3960,1105,153,1,4153.0,4374.0,1132.0,1104.0,77.0,-18.0
3789,1098,224,1,3960.0,4153.0,1105.0,1132.0,153.0,77.0
3631,1102,281,1,3789.0,3960.0,1098.0,1105.0,224.0,153.0
3449,1077,276,1,3631.0,3789.0,1102.0,1098.0,281.0,224.0
3271,1086,260,1,3449.0,3631.0,1077.0,1102.0,276.0,281.0
3129,1047,228,1,3271.0,3449.0,1086.0,1077.0,260.0,276.0
2971,976,153,1,3129.0,3271.0,1047.0,1086.0,228.0,260.0
2818,906,89,1,2971.0,3129.0,976.0,1047.0,153.0,228.0
2687,826,52,1,2818.0,2971.0,906.0,976.0,89.0,153.0
2555,711,9,1,2687.0,2818.0,826.0,906.0,52.0,89.0
2394,628,-16,1,2555.0,2687.0,711.0,826.0,9.0,52.0
2237,638,27,1,2394.0,2555.0,628.0,711.0,-16.0,9.0
2075,613,66,1,2237.0,2394.0,638.0,628.0,27.0,-16.0
1920,634,134,1,2075.0,2237.0,613.0,638.0,66.0,27.0
1781,630,207,1,1920.0,2075.0,634.0,613.0,134.0,66.0
1666,633,288,1,1781.0,1920.0,630.0,634.0,207.0,134.0
1559,616,353,1,1666.0,1781.0,633.0,630.0,288.0,207.0
1470,572,402,1,1559.0,1666.0,616.0,633.0,353.0,288.0
1408,519,427,1,1470.0,1559.0,572.0,616.0,402.0,353.0
1366,482,435,1,1408.0,1470.0,519.0,572.0,427.0,402.0
1336,444,436,1,1366.0,1408.0,482.0,519.0,435.0,427.0
1318,420,441,1,1336.0,1366.0,444.0,482.0,436.0,435.0
1297,386,397,1,1318.0,1336.0,420.0,444.0,441.0,436.0
1287,364,356,1,1297.0,1318.0,386.0,420.0,397.0,441.0
1302,337,325,1,1287.0,1297.0,364.0,386.0,356.0,397.0
1314,318,305,1,1302.0,1287.0,337.0,364.0,325.0,356.0
1328,293,277,1,1314.0,1302.0,318.0,337.0,305.0,325.0
1342,277,235,1,1328.0,1314.0,293.0,318.0,277.0,305.0
1336,275,169,1,1342.0,1328.0,277.0,293.0,235.0,277.0
1323,271,80,1,1336.0,1342.0,275.0,277.0,169.0,235.0
1332,263,-10,1,1323.0,1336.0,271.0,275.0,80.0,169.0
1346,259,-101,1,1332.0,1323.0,263.0,271.0,-10.0,80.0
1356,245,-196,1,1346.0,1332.0,259.0,263.0,-101.0,-10.0
1379,251,-274,1,1356.0,1346.0,245.0,259.0,-196.0,-101.0
1420,299,-323,1,1379.0,1356.0,251.0,245.0,-274.0,-196.0
1486,354,-360,1,1420.0,1379.0,299.0,251.0,-323.0,-274.0
1585,403,-377,1,1486.0,1420.0,354.0,299.0,-360.0,-323.0
1696,454,-368,1,1585.0,1486.0,403.0,354.0,-377.0,-360.0
1818,511,-319,1,1696.0,1585.0,454.0,403.0,-368.0,-377.0
1965,578,-227,1,1818.0,1696.0,511.0,454.0,-319.0,-368.0
2152,662,-94,1,1965.0,1818.0,578.0,511.0,-227.0,-319.0
2361,736,65,1,2152.0,1965.0,662.0,578.0,-94.0,-227.0
2582,818,240,1,2361.0,2152.0,736.0,662.0,65.0,-94.0
2783,886,412,1,2582.0,2361.0,818.0,736.0,240.0,65.0
2991,1006,573,1,2783.0,2582.0,886.0,818.0,412.0,240.0
3178,1172,660,1,2991.0,2783.0,1006.0,886.0,573.0,412.0
3350,1414,646,1,3178.0,2991.0,1172.0,1006.0,660.0,573.0
3467,1697,468,1,3350.0,3178.0,1414.0,1172.0,646.0,660.0
3562,2031,151,1,3467.0,3350.0,1697.0,1414.0,468.0,646.0
3616,2445,-315,1,3562.0,3467.0,2031.0,1697.0,151.0,468.0
3747,2902,-875,1,3616.0,3562.0,2445.0,2031.0,-315.0,151.0
4065,3339,-1362,1,3747.0,3616.0,2902.0,2445.0,-875.0,-315.0
4727,3831,-1676,1,4065.0,3747.0,3339.0,2902.0,-1362.0,-875.0
5800,4329,-1774,1,4727.0,4065.0,3831.0,3339.0,-1676.0,-1362.0
7091,4988,-1488,1,5800.0,4727.0,4329.0,3831.0,-1774.0,-1676.0
8180,5623,-949,1,7091.0,5800.0,4988.0,4329.0,-1488.0,-1774.0
8776,5821,-735,1,8180.0,7091.0,5623.0,4988.0,-949.0,-1488.0
8880,5460,-891,1,8776.0,8180.0,5821.0,5623.0,-735.0,-949.0
8486,4628,-1401,1,8880.0,8776.0,5460.0,5821.0,-891.0,-735.0
7726,3588,-2016,1,8486.0,8880.0,4628.0,5460.0,-1401.0,-891.0
6824,2650,-2470,1,7726.0,8486.0,3588.0,4628.0,-2016.0,-1401.0
5988,1854,-2652,1,6824.0,7726.0,2650.0,3588.0,-2470.0,-2016.0
5285,1320,-2598,1,5988.0,6824.0,1854.0,2650.0,-2652.0,-2470.0
4827,927,-2419,1,5285.0,5988.0,1320.0,1854.0,-2598.0,-2652.0
4588,589,-2220,1,4827.0,5285.0,927.0,1320.0,-2419.0,-2598.0
4494,367,-1959,1,4588.0,4827.0,589.0,927.0,-2220.0,-2419.0
4484,344,-1826,1,4494.0,4588.0,367.0,589.0,-1959.0,-2220.0
4535,394,-1768,1,4484.0,4494.0,344.0,367.0,-1826.0,-1959.0
4571,496,-1696,1,4535.0,4484.0,394.0,344.0,-1768.0,-1826.0
4607,613,-1614,1,4571.0,4535.0,496.0,394.0,-1696.0,-1768.0
4655,737,-1509,1,4607.0,4571.0,613.0,496.0,-1614.0,-1696.0
4720,846,-1377,1,4655.0,4607.0,737.0,613.0,-1509.0,-1614.0
4838,1006,-1194,1,4720.0,4655.0,846.0,737.0,-1377.0,-1509.0
4979,1217,-995,1,4838.0,4720.0,1006.0,846.0,-1194.0,-1377.0
5134,1466,-803,1,4979.0,4838.0,1217.0,1006.0,-995.0,-1194.0
5272,1729,-646,1,5134.0,4979.0,1466.0,1217.0,-803.0,-995.0
5375,1978,-563,1,5272.0,5134.0,1729.0,1466.0,-646.0,-803.0
5429,2209,-533,1,5375.0,5272.0,1978.0,1729.0,-563.0,-646.0
5424,2402,-595,1,5429.0,5375.0,2209.0,1978.0,-533.0,-563.0
5345,2621,-724,1,5424.0,5429.0,2402.0,2209.0,-595.0,-533.0
5226,2856,-862,1,5345.0,5424.0,2621.0,2402.0,-724.0,-595.0
5124,3096,-992,1,5226.0,5345.0,2856.0,2621.0,-862.0,-724.0
5031,3261,-1082,1,5124.0,5226.0,3096.0,2856.0,-992.0,-862.0
4904,3423,-1090,1,5031.0,5124.0,3261.0,3096.0,-1082.0,-992.0
4721,3534,-1035,1,4904.0,5031.0,3423.0,3261.0,-1090.0,-1082.0
4534,3562,-926,1,4721.0,4904.0,3534.0,3423.0,-1035.0,-1090.0
4381,3469,-833,1,4534.0,4721.0,3562.0,3534.0,-926.0,-1035.0
4248,3332,-802,1,4381.0,4534.0,3469.0,3562.0,-833.0,-926.0
4194,3120,-761,1,4248.0,4381.0,3332.0,3469.0,-802.0,-833.0
4141,2867,-755,1,4194.0,4248.0,3120.0,3332.0,-761.0,-802.0
4121,2525,-762,1,4141.0,4194.0,2867.0,3120.0,-755.0,-761.0
4142,2121,-816,1,4121.0,4141.0,2525.0,2867.0,-762.0,-755.0
4168,1771,-878,1,4142.0,4121.0,2121.0,2525.0,-816.0,-762.0
4147,1422,-946,1,4168.0,4142.0,1771.0,2121.0,-878.0,-816.0
4110,1097,-966,1,4147.0,4168.0,1422.0,1771.0,-946.0,-878.0
4108,821,-956,1,4110.0,4147.0,1097.0,1422.0,-966.0,-946.0
4103,569,-958,1,4108.0,4110.0,821.0,1097.0,-956.0,-966.0
4059,355,-955,1,4103.0,4108.0,569.0,821.0,-958.0,-956.0
3985,206,-973,1,4059.0,4103.0,355.0,569.0,-955.0,-958.0
3885,58,-983,1,3985.0,4059.0,206.0,355.0,-973.0,-955.0
3754,-46,-928,1,3885.0,3985.0,58.0,206.0,-983.0,-973.0
3680,-172,-863,1,3754.0,3885.0,-46.0,58.0,-928.0,-983.0
3606,-251,-814,1,3680.0,3754.0,-172.0,-46.0,-863.0,-928.0
3552,-387,-812,1,3606.0,3680.0,-251.0,-172.0,-814.0,-863.0
3494,-442,-807,1,3552.0,3606.0,-387.0,-251.0,-812.0,-814.0
3393,-426,-790,1,3494.0,3552.0,-442.0,-387.0,-807.0,-812.0
3292,-401,-774,1,3393.0,3494.0,-426.0,-442.0,-790.0,-807.0
3164,-343,-734,1,3292.0,3393.0,-401.0,-426.0,-774.0,-790.0
3018,-246,-653,1,3164.0,3292.0,-343.0,-401.0,-734.0,-774.0
2889,-154,-562,1,3018.0,3164.0,-246.0,-343.0,-653.0,-734.0
2797,-47,-453,1,2889.0,3018.0,-154.0,-246.0,-562.0,-653.0
2729,95,-348,1,2797.0,2889.0,-47.0,-154.0,-453.0,-562.0
2682,245,-254,1,2729.0,2797.0,95.0,-47.0,-348.0,-453.0
2643,394,-162,1,2682.0,2729.0,245.0,95.0,-254.0,-348.0
2598,524,-80,1,2643.0,2682.0,394.0,245.0,-162.0,-254.0
2538,646,-18,1,2598.0,2643.0,524.0,394.0,-80.0,-162.0
2476,739,35,1,2538.0,2598.0,646.0,524.0,-18.0,-80.0
2406,810,68,1,2476.0,2538.0,739.0,646.0,35.0,-18.0
2328,847,65,1,2406.0,2476.0,810.0,739.0,68.0,35.0
2247,861,36,1,2328.0,2406.0,847.0,810.0,65.0,68.0
2167,840,25,1,2247.0,2328.0,861.0,847.0,36.0,65.0
2093,797,-4,1,2167.0,2247.0,840.0,861.0,25.0,36.0
2019,718,-63,1,2093.0,2167.0,797.0,840.0,-4.0,25.0
1931,632,-147,1,2019.0,2093.0,718.0,797.0,-63.0,-4.0
1846,542,-248,1,1931.0,2019.0,632.0,718.0,-147.0,-63.0
1773,461,-358,1,1846.0,1931.0,542.0,632.0,-248.0,-147.0
1714,387,-466,1,1773.0,1846.0,461.0,542.0,-358.0,-248.0
1648,331,-574,1,1714.0,1773.0,387.0,461.0,-466.0,-358.0
1578,297,-685,1,1648.0,1714.0,331.0,387.0,-574.0,-466.0
1508,275,-794,1,1578.0,1648.0,297.0,331.0,-685.0,-574.0
1449,263,-889,1,1508.0,1578.0,275.0,297.0,-794.0,-685.0
1408,269,-975,1,1449.0,1508.0,263.0,275.0,-889.0,-794.0
1386,273,-1067,1,1408.0,1449.0,269.0,263.0,-975.0,-889.0
1384,278,-1142,1,1386.0,1408.0,273.0,269.0,-1067.0,-975.0
1373,296,-1195,1,1384.0,1386.0,278.0,273.0,-1142.0,-1067.0
1364,339,-1219,1,1373.0,1384.0,296.0,278.0,-1195.0,-1142.0
1368,387,-1211,1,1364.0,1373.0,339.0,296.0,-1219.0,-1195.0
1376,439,-1186,1,1368.0,1364.0,387.0,339.0,-1211.0,-1219.0
1393,496,-1141,1,1376.0,1368.0,439.0,387.0,-1186.0,-1211.0
1415,577,-1071,1,1393.0,1376.0,496.0,439.0,-1141.0,-1186.0
1414,682,-973,1,1415.0,1393.0,577.0,496.0,-1071.0,-1141.0
1410,811,-867,1,1414.0,1415.0,682.0,577.0,-973.0,-1071.0
1433,974,-698,1,1410.0,1414.0,811.0,682.0,-867.0,-973.0
1531,1156,-554,1,1433.0,1410.0,974.0,811.0,-698.0,-867.0
1747,1325,-547,1,1531.0,1433.0,1156.0,974.0,-554.0,-698.0
2120,1572,-583,1,1747.0,1531.0,1325.0,1156.0,-547.0,-554.0
2649,1980,-564,1,2120.0,1747.0,1572.0,1325.0,-583.0,-547.0
3318,2579,-465,1,2649.0,2120.0,1980.0,1572.0,-564.0,-583.0
4109,3216,-331,1,3318.0,2649.0,2579.0,1980.0,-465.0,-564.0
4993,3839,-193,1,4109.0,3318.0,3216.0,2579.0,-331.0,-465.0
5932,4328,-91,1,4993.0,4109.0,3839.0,3216.0,-193.0,-331.0
6865,4705,-127,1,5932.0,4993.0,4328.0,3839.0,-91.0,-193.0
7789,5021,-290,1,6865.0,5932.0,4705.0,4328.0,-127.0,-91.0
8636,5189,-537,1,7789.0,6865.0,5021.0,4705.0,-290.0,-127.0
9249,4964,-837,1,8636.0,7789.0,5189.0,5021.0,-537.0,-290.0
9362,4304,-1167,1,9249.0,8636.0,4964.0,5189.0,-837.0,-537.0
8974,3510,-1266,1,9362.0,9249.0,4304.0,4964.0,-1167.0,-837.0
8350,2668,-1120,1,8974.0,9362.0,3510.0,4304.0,-1266.0,-1167.0
7664,1806,-781,1,8350.0,8974.0,2668.0,3510.0,-1120.0,-1266.0
7004,1241,-408,1,7664.0,8350.0,1806.0,2668.0,-781.0,-1120.0
6483,912,-80,1,7004.0,7664.0,1241.0,1806.0,-408.0,-781.0
6154,810,151,1,6483.0,7004.0,912.0,1241.0,-80.0,-408.0
5987,871,232,1,6154.0,6483.0,810.0,912.0,151.0,-80.0
5907,1014,166,1,5987.0,6154.0,871.0,810.0,232.0,151.0
5903,1217,53,1,5907.0,5987.0,1014.0,871.0,166.0,232.0
5948,1458,-37,1,5903.0,5907.0,1217.0,1014.0,53.0,166.0
6016,1673,-88,1,5948.0,5903.0,1458.0,1217.0,-37.0,53.0
6071,1798,-123,1,6016.0,5948.0,1673.0,1458.0,-88.0,-37.0
6102,1859,-135,1,6071.0,6016.0,1798.0,1673.0,-123.0,-88.0
6137,1861,-146,1,6102.0,6071.0,1859.0,1798.0,-135.0,-123.0
6152,1834,-137,1,6137.0,6102.0,1861.0,1859.0,-146.0,-135.0
6148,1805,-136,1,6152.0,6137.0,1834.0,1861.0,-137.0,-146.0
6106,1787,-136,1,6148.0,6152.0,1805.0,1834.0,-136.0,-137.0
6040,1805,-142,1,6106.0,6148.0,1787.0,1805.0,-136.0,-136.0
5925,1844,-174,1,6040.0,6106.0,1805.0,1787.0,-142.0,-136.0
5762,1886,-201,1,5925.0,6040.0,1844.0,1805.0,-174.0,-142.0
5619,1962,-194,1,5762.0,5925.0,1886.0,1844.0,-201.0,-174.0
5469,1978,-184,1,5619.0,5762.0,1962.0,1886.0,-194.0,-201.0
5317,2000,-144,1,5469.0,5619.0,1978.0,1962.0,-184.0,-194.0
5156,1984,-89,1,5317.0,5469.0,2000.0,1978.0,-144.0,-184.0
4991,1932,-30,1,5156.0,5317.0,1984.0,2000.0,-89.0,-144.0
4825,1860,40,1,4991.0,5156.0,1932.0,1984.0,-30.0,-89.0
4654,1743,109,1,4825.0,4991.0,1860.0,1932.0,40.0,-30.0
4485,1631,196,1,4654.0,4825.0,1743.0,1860.0,109.0,40.0
4318,1544,279,1,4485.0,4654.0,1631.0,1743.0,196.0,109.0
4158,1426,338,1,4318.0,4485.0,1544.0,1631.0,279.0,196.0
3991,1329,385,1,4158.0,4318.0,1426.0,1544.0,338.0,279.0
3799,1240,404,1,3991.0,4158.0,1329.0,1426.0,385.0,338.0
3605,1123,364,1,3799.0,3991.0,1240.0,1329.0,404.0,385.0
3431,1037,324,1,3605.0,3799.0,1123.0,1240.0,364.0,404.0
3292,952,307,1,3431.0,3605.0,1037.0,1123.0,324.0,364.0
3180,868,287,1,3292.0,3431.0,952.0,1037.0,307.0,324.0
3035,819,283,1,3180.0,3292.0,868.0,952.0,287.0,307.0
2907,780,273,1,3035.0,3180.0,819.0,868.0,283.0,287.0
2816,747,251,1,2907.0,3035.0,780.0,819.0,273.0,283.0
2735,802,301,1,2816.0,2907.0,747.0,780.0,251.0,273.0
2646,859,330,1,2735.0,2816.0,802.0,747.0,301.0,251.0
2550,910,345,1,2646.0,2735.0,859.0,802.0,330.0,301.0
2469,978,382,1,2550.0,2646.0,910.0,859.0,345.0,330.0
2400,1046,410,1,2469.0,2550.0,978.0,910.0,382.0,345.0
2334,1094,405,1,2400.0,2469.0,1046.0,978.0,410.0,382.0
2282,1137,391,1,2334.0,2400.0,1094.0,1046.0,405.0,410.0
2230,1164,358,1,2282.0,2334.0,1137.0,1094.0,391.0,405.0
2188,1183,335,1,2230.0,2282.0,1164.0,1137.0,358.0,391.0
2165,1176,305,1,2188.0,2230.0,1183.0,1164.0,335.0,358.0
2143,1115,230,1,2165.0,2188.0,1176.0,1183.0,305.0,335.0
2131,1075,168,1,2143.0,2165.0,1115.0,1176.0,230.0,305.0
2122,1003,111,1,2131.0,2143.0,1075.0,1115.0,168.0,230.0
2102,938,78,1,2122.0,2131.0,1003.0,1075.0,111.0,168.0
2090,892,82,1,2102.0,2122.0,938.0,1003.0,78.0,111.0
2074,839,100,1,2090.0,2102.0,892.0,938.0,82.0,78.0
2054,796,135,1,2074.0,2090.0,839.0,892.0,100.0,82.0
2024,755,168,1,2054.0,2074.0,796.0,839.0,135.0,100.0
1989,714,205,1,2024.0,2054.0,755.0,796.0,168.0,135.0
1936,687,251,1,1989.0,2024.0,714.0,755.0,205.0,168.0
1879,678,290,1,1936.0,1989.0,687.0,714.0,251.0,205.0
1853,636,350,1,1879.0,1936.0,678.0,687.0,290.0,251.0
1831,608,424,1,1853.0,1879.0,636.0,678.0,350.0,290.0
1847,552,517,1,1831.0,1853.0,608.0,636.0,424.0,350.0
1886,504,598,1,1847.0,1831.0,552.0,608.0,517.0,424.0
1952,444,646,1,1886.0,1847.0,504.0,552.0,598.0,517.0
1981,415,620,1,1952.0,1886.0,444.0,504.0,646.0,598.0
1988,420,507,1,1981.0,1952.0,415.0,444.0,620.0,646.0
2001,455,338,1,1988.0,1981.0,420.0,415.0,507.0,620.0
2032,547,172,1,2001.0,1988.0,455.0,420.0,338.0,507.0
2087,679,40,1,2032.0,2001.0,547.0,455.0,172.0,338.0
2180,850,-13,1,2087.0,2032.0,679.0,547.0,40.0,172.0
2307,1044,23,1,2180.0,2087.0,850.0,679.0,-13.0,40.0
2466,1234,94,1,2307.0,2180.0,1044.0,850.0,23.0,-13.0
2639,1420,110,1,2466.0,2307.0,1234.0,1044.0,94.0,23.0
2816,1598,25,1,2639.0,2466.0,1420.0,1234.0,110.0,94.0
3004,1786,-179,1,2816.0,2639.0,1598.0,1420.0,25.0,110.0
3223,1996,-472,1,3004.0,2816.0,1786.0,1598.0,-179.0,25.0
3528,2215,-781,1,3223.0,3004.0,1996.0,1786.0,-472.0,-179.0
3943,2422,-1048,1,3528.0,3223.0,2215.0,1996.0,-781.0,-472.0
4444,2638,-1248,1,3943.0,3528.0,2422.0,2215.0,-1048.0,-781.0
4973,2881,-1398,1,4444.0,3943.0,2638.0,2422.0,-1248.0,-1048.0
5476,3152,-1544,1,4973.0,4444.0,2881.0,2638.0,-1398.0,-1248.0
5878,3342,-1786,1,5476.0,4973.0,3152.0,2881.0,-1544.0,-1398.0
6196,3485,-1983,1,5878.0,5476.0,3342.0,3152.0,-1786.0,-1544.0
6335,3501,-2126,1,6196.0,5878.0,3485.0,3342.0,-1983.0,-1786.0
6317,3395,-2178,1,6335.0,6196.0,3501.0,3485.0,-2126.0,-1983.0
6155,3162,-2166,1,6317.0,6335.0,3395.0,3501.0,-2178.0,-2126.0
5880,2820,-2111,1,6155.0,6317.0,3162.0,3395.0,-2166.0,-2178.0
5545,2403,-2007,1,5880.0,6155.0,2820.0,3162.0,-2111.0,-2166.0
5201,1991,-1837,1,5545.0,5880.0,2403.0,2820.0,-2007.0,-2111.0
4875,1621,-1636,1,5201.0,5545.0,1991.0,2403.0,-1837.0,-2007.0
4614,1314,-1411,1,4875.0,5201.0,1621.0,1991.0,-1636.0,-1837.0
4417,1074,-1188,1,4614.0,4875.0,1314.0,1621.0,-1411.0,-1636.0
4274,886,-1028,1,4417.0,4614.0,1074.0,1314.0,-1188.0,-1411.0
4202,756,-927,1,4274.0,4417.0,886.0,1074.0,-1028.0,-1188.0
4184,700,-877,1,4202.0,4274.0,756.0,886.0,-927.0,-1028.0
4237,690,-881,1,4184.0,4202.0,700.0,756.0,-877.0,-927.0
4344,742,-921,1,4237.0,4184.0,690.0,700.0,-881.0,-877.0
4492,798,-1003,1,4344.0,4237.0,742.0,690.0,-921.0,-881.0
4666,880,-1078,1,4492.0,4344.0,798.0,742.0,-1003.0,-921.0
4854,975,-1092,1,4666.0,4492.0,880.0,798.0,-1078.0,-1003.0
5035,1064,-1060,1,4854.0,4666.0,975.0,880.0,-1092.0,-1078.0
5223,1142,-1022,1,5035.0,4854.0,1064.0,975.0,-1060.0,-1092.0
5411,1228,-1001,1,5223.0,5035.0,1142.0,1064.0,-1022.0,-1060.0
5546,1324,-1026,1,5411.0,5223.0,1228.0,1142.0,-1001.0,-1022.0
5548,1499,-1068,1,5546.0,5411.0,1324.0,1228.0,-1026.0,-1001.0
5535,1521,-1158,1,5548.0,5546.0,1499.0,1324.0,-1068.0,-1026.0
5505,1532,-1230,1,5535.0,5548.0,1521.0,1499.0,-1158.0,-1068.0
5423,1639,-1241,1,5505.0,5535.0,1532.0,1521.0,-1230.0,-1158.0
5345,1521,-1355,1,5423.0,5505.0,1639.0,1532.0,-1241.0,-1230.0
5244,1411,-1432,1,5345.0,5423.0,1521.0,1639.0,-1355.0,-1241.0
5132,1378,-1422,1,5244.0,5345.0,1411.0,1521.0,-1432.0,-1355.0
5004,1326,-1351,1,5132.0,5244.0,1378.0,1411.0,-1422.0,-1432.0
4848,1232,-1289,1,5004.0,5132.0,1326.0,1378.0,-1351.0,-1422.0
4669,1099,-1226,1,4848.0,5004.0,1232.0,1326.0,-1289.0,-1351.0
4468,951,-1154,1,4669.0,4848.0,1099.0,1232.0,-1226.0,-1289.0
4284,844,-1079,1,4468.0,4669.0,951.0,1099.0,-1154.0,-1226.0
4154,744,-1005,1,4284.0,4468.0,844.0,951.0,-1079.0,-1154.0
4050,670,-930,1,4154.0,4284.0,744.0,844.0,-1005.0,-1079.0
3957,643,-847,1,4050.0,4154.0,670.0,744.0,-930.0,-1005.0
3848,622,-805,1,3957.0,4050.0,643.0,670.0,-847.0,-930.0
3754,601,-784,1,3848.0,3957.0,622.0,643.0,-805.0,-847.0
3668,580,-767,1,3754.0,3848.0,601.0,622.0,-784.0,-805.0
3594,605,-717,1,3668.0,3754.0,580.0,601.0,-767.0,-784.0
3532,611,-679,1,3594.0,3668.0,605.0,580.0,-717.0,-767.0
3477,587,-682,1,3532.0,3594.0,611.0,605.0,-679.0,-717.0
3428,549,-706,1,3477.0,3532.0,587.0,611.0,-682.0,-679.0
3362,592,-679,1,3428.0,3477.0,549.0,587.0,-706.0,-682.0
3308,573,-662,1,3362.0,3428.0,592.0,549.0,-679.0,-706.0
3253,533,-701,1,3308.0,3362.0,573.0,592.0,-662.0,-679.0
3199,526,-689,1,3253.0,3308.0,533.0,573.0,-701.0,-662.0
3158,540,-635,1,3199.0,3253.0,526.0,533.0,-689.0,-701.0
3110,503,-617,1,3158.0,3199.0,540.0,526.0,-635.0,-689.0
3064,470,-596,1,3110.0,3158.0,503.0,540.0,-617.0,-635.0
3048,472,-509,1,3064.0,3110.0,470.0,503.0,-596.0,-617.0
3045,461,-441,1,3048.0,3064.0,472.0,470.0,-509.0,-596.0
3069,438,-364,1,3045.0,3048.0,461.0,472.0,-441.0,-509.0
3124,371,-345,1,3069.0,3045.0,438.0,461.0,-364.0,-441.0
3165,310,-329,1,3124.0,3069.0,371.0,438.0,-345.0,-364.0
3204,324,-244,1,3165.0,3124.0,310.0,371.0,-329.0,-345.0
3335,240,-163,1,3204.0,3165.0,324.0,310.0,-244.0,-329.0
3478,227,-99,1,3335.0,3204.0,240.0,324.0,-163.0,-244.0
3611,178,-64,1,3478.0,3335.0,227.0,240.0,-99.0,-163.0
3719,139,-30,1,3611.0,3478.0,178.0,227.0,-64.0,-99.0
3777,98,5,1,3719.0,3611.0,139.0,178.0,-30.0,-64.0
3801,88,63,1,3777.0,3719.0,98.0,139.0,5.0,-30.0
3825,79,140,1,3801.0,3777.0,88.0,98.0,63.0,5.0
3854,78,234,1,3825.0,3801.0,79.0,88.0,140.0,63.0
3872,87,312,1,3854.0,3825.0,78.0,79.0,234.0,140.0
3881,119,361,1,3872.0,3854.0,87.0,78.0,312.0,234.0
3885,163,360,1,3881.0,3872.0,119.0,87.0,361.0,312.0
3888,234,333,1,3885.0,3881.0,163.0,119.0,360.0,361.0
3898,293,281,1,3888.0,3885.0,234.0,163.0,333.0,360.0
3908,340,213,1,3898.0,3888.0,293.0,234.0,281.0,333.0
3935,375,128,1,3908.0,3898.0,340.0,293.0,213.0,281.0
3958,401,46,1,3935.0,3908.0,375.0,340.0,128.0,213.0
3983,421,-33,1,3958.0,3935.0,401.0,375.0,46.0,128.0
3993,428,-105,1,3983.0,3958.0,421.0,401.0,-33.0,46.0
3996,436,-146,1,3993.0,3983.0,428.0,421.0,-105.0,-33.0
4000,442,-152,1,3996.0,3993.0,436.0,428.0,-146.0,-105.0
4008,460,-122,1,4000.0,3996.0,442.0,436.0,-152.0,-146.0
4018,490,-64,1,4008.0,4000.0,460.0,442.0,-122.0,-152.0
4020,528,-19,1,4018.0,4008.0,490.0,460.0,-64.0,-122.0
4014,593,7,1,4020.0,4018.0,528.0,490.0,-19.0,-64.0
3994,685,-3,1,4014.0,4020.0,593.0,528.0,7.0,-19.0
3947,794,-72,1,3994.0,4014.0,685.0,593.0,-3.0,7.0
3867,894,-209,1,3947.0,3994.0,794.0,685.0,-72.0,-3.0
3745,1018,-383,1,3867.0,3947.0,894.0,794.0,-209.0,-72.0
3586,1150,-603,1,3745.0,3867.0,1018.0,894.0,-383.0,-209.0
3408,1305,-843,1,3586.0,3745.0,1150.0,1018.0,-603.0,-383.0
3254,1511,-1041,1,3408.0,3586.0,1305.0,1150.0,-843.0,-603.0
3164,1752,-1162,1,3254.0,3408.0,1511.0,1305.0,-1041.0,-843.0
3143,1996,-1200,1,3164.0,3254.0,1752.0,1511.0,-1162.0,-1041.0
3161,2222,-1153,1,3143.0,3164.0,1996.0,1752.0,-1200.0,-1162.0
3213,2409,-1046,1,3161.0,3143.0,2222.0,1996.0,-1153.0,-1200.0
3285,2550,-948,1,3213.0,3161.0,2409.0,2222.0,-1046.0,-1153.0
3388,2664,-864,1,3285.0,3213.0,2550.0,2409.0,-948.0,-1046.0
3467,2713,-814,1,3388.0,3285.0,2664.0,2550.0,-864.0,-948.0
3537,2722,-748,1,3467.0,3388.0,2713.0,2664.0,-814.0,-864.0
3564,2684,-664,1,3537.0,3467.0,2722.0,2713.0,-748.0,-814.0
3565,2577,-569,1,3564.0,3537.0,2684.0,2722.0,-664.0,-748.0
3530,2433,-480,1,3565.0,3564.0,2577.0,2684.0,-569.0,-664.0
3514,2282,-401,1,3530.0,3565.0,2433.0,2577.0,-480.0,-569.0
3524,2142,-333,1,3514.0,3530.0,2282.0,2433.0,-401.0,-480.0
3563,2039,-294,1,3524.0,3514.0,2142.0,2282.0,-333.0,-401.0
3643,1959,-301,1,3563.0,3524.0,2039.0,2142.0,-294.0,-333.0
3784,1960,-327,1,3643.0,3563.0,1959.0,2039.0,-301.0,-294.0
3979,2024,-389,1,3784.0,3643.0,1960.0,1959.0,-327.0,-301.0
4227,2146,-496,1,3979.0,3784.0,2024.0,1960.0,-389.0,-327.0
4498,2291,-637,1,4227.0,3979.0,2146.0,2024.0,-496.0,-389.0
4783,2405,-802,1,4498.0,4227.0,2291.0,2146.0,-637.0,-496.0
5047,2464,-986,1,4783.0,4498.0,2405.0,2291.0,-802.0,-637.0
5309,2482,-1164,1,5047.0,4783.0,2464.0,2405.0,-986.0,-802.0
5586,2471,-1303,1,5309.0,5047.0,2482.0,2464.0,-1164.0,-986.0
5898,2365,-1431,1,5586.0,5309.0,2471.0,2482.0,-1303.0,-1164.0
6086,2287,-1520,1,5898.0,5586.0,2365.0,2471.0,-1431.0,-1303.0
6240,2187,-1483,1,6086.0,5898.0,2287.0,2365.0,-1520.0,-1431.0
6371,2065,-1395,1,6240.0,6086.0,2187.0,2287.0,-1483.0,-1520.0
6442,2020,-1260,1,6371.0,6240.0,2065.0,2187.0,-1395.0,-1483.0
6479,2003,-1087,1,6442.0,6371.0,2020.0,2065.0,-1260.0,-1395.0
6492,1949,-951,1,6479.0,6442.0,2003.0,2020.0,-1087.0,-1260.0
6440,1899,-892,1,6492.0,6479.0,1949.0,2003.0,-951.0,-1087.0
6358,1896,-852,1,6440.0,6492.0,1899.0,1949.0,-892.0,-951.0
6243,1897,-806,1,6358.0,6440.0,1896.0,1899.0,-852.0,-892.0
6158,1881,-747,1,6243.0,6358.0,1897.0,1896.0,-806.0,-852.0
5855,1900,-709,1,6158.0,6243.0,1881.0,1897.0,-747.0,-806.0
5641,1965,-599,1,5855.0,6158.0,1900.0,1881.0,-709.0,-747.0
5422,2022,-511,1,5641.0,5855.0,1965.0,1900.0,-599.0,-709.0
5235,2154,-406,1,5422.0,5641.0,2022.0,1965.0,-511.0,-599.0
5053,2247,-327,1,5235.0,5422.0,2154.0,2022.0,-406.0,-511.0
4944,2293,-225,1,5053.0,5235.0,2247.0,2154.0,-327.0,-406.0
4842,2323,-147,1,4944.0,5053.0,2293.0,2247.0,-225.0,-327.0
4702,2401,-62,1,4842.0,4944.0,2323.0,2293.0,-147.0,-225.0
4604,2333,-28,1,4702.0,4842.0,2401.0,2323.0,-62.0,-147.0
4533,2271,44,1,4604.0,4702.0,2333.0,2401.0,-28.0,-62.0
4480,2219,135,1,4533.0,4604.0,2271.0,2333.0,44.0,-28.0
4374,2188,204,1,4480.0,4533.0,2219.0,2271.0,135.0,44.0
4276,2074,207,1,4374.0,4480.0,2188.0,2219.0,204.0,135.0
4204,1912,200,1,4276.0,4374.0,2074.0,2188.0,207.0,204.0
4149,1729,202,1,4204.0,4276.0,1912.0,2074.0,200.0,207.0
4107,1583,221,1,4149.0,4204.0,1729.0,1912.0,202.0,200.0
4033,1383,146,1,4107.0,4149.0,1583.0,1729.0,221.0,202.0
3949,1234,112,1,4033.0,4107.0,1383.0,1583.0,146.0,221.0
3832,1091,107,1,3949.0,4033.0,1234.0,1383.0,112.0,146.0
3690,1003,145,1,3832.0,3949.0,1091.0,1234.0,107.0,112.0
3507,993,206,1,3690.0,3832.0,1003.0,1091.0,145.0,107.0
3315,929,241,1,3507.0,3690.0,993.0,1003.0,206.0,145.0
3152,832,241,1,3315.0,3507.0,929.0,993.0,241.0,206.0
3038,713,242,1,3152.0,3315.0,832.0,929.0,241.0,241.0
2948,572,192,1,3038.0,3152.0,713.0,832.0,242.0,241.0
2858,595,217,1,2948.0,3038.0,572.0,713.0,192.0,242.0
2782,589,275,1,2858.0,2948.0,595.0,572.0,217.0,192.0
2721,594,379,1,2782.0,2858.0,589.0,595.0,275.0,217.0
2659,578,478,1,2721.0,2782.0,594.0,589.0,379.0,275.0
2576,463,454,1,2659.0,2721.0,578.0,594.0,478.0,379.0
2515,327,398,1,2576.0,2659.0,463.0,578.0,454.0,478.0
2491,226,366,1,2515.0,2576.0,327.0,463.0,398.0,454.0
2473,166,375,1,2491.0,2515.0,226.0,327.0,366.0,398.0
2458,95,373,1,2473.0,2491.0,166.0,226.0,375.0,366.0
2385,-21,328,1,2458.0,2473.0,95.0,166.0,373.0,375.0
2314,-120,280,1,2385.0,2458.0,-21.0,95.0,328.0,373.0
2236,-290,197,1,2314.0,2385.0,-120.0,-21.0,280.0,328.0
2143,-550,72,1,2236.0,2314.0,-290.0,-120.0,197.0,280.0
2098,-750,41,1,2143.0,2236.0,-550.0,-290.0,72.0,197.0
2050,-966,30,1,2098.0,2143.0,-750.0,-550.0,41.0,72.0
1957,-1044,58,1,2050.0,2098.0,-966.0,-750.0,30.0,41.0
1830,-1017,79,1,1957.0,2050.0,-1044.0,-966.0,58.0,30.0
1686,-928,94,1,1830.0,1957.0,-1017.0,-1044.0,79.0,58.0
1575,-889,86,1,1686.0,1830.0,-928.0,-1017.0,94.0,79.0
1446,-843,51,1,1575.0,1686.0,-889.0,-928.0,86.0,94.0
1363,-745,110,1,1446.0,1575.0,-843.0,-889.0,51.0,86.0
1283,-640,137,1,1363.0,1446.0,-745.0,-843.0,110.0,51.0
1178,-507,134,1,1283.0,1363.0,-640.0,-745.0,137.0,110.0
1123,-389,174,1,1178.0,1283.0,-507.0,-640.0,134.0,137.0
1124,-303,257,1,1123.0,1178.0,-389.0,-507.0,174.0,134.0
1152,-157,379,1,1124.0,1123.0,-303.0,-389.0,257.0,174.0
1216,-34,460,1,1152.0,1124.0,-157.0,-303.0,379.0,257.0
1279,108,504,1,1216.0,1152.0,-34.0,-157.0,460.0,379.0
1339,214,467,1,1279.0,1216.0,108.0,-34.0,504.0,460.0
1440,361,406,1,1339.0,1279.0,214.0,108.0,467.0,504.0
1569,552,380,1,1440.0,1339.0,361.0,214.0,406.0,467.0
1747,759,337,1,1569.0,1440.0,552.0,361.0,380.0,406.0
1942,1008,263,1,1747.0,1569.0,759.0,552.0,337.0,380.0
2125,1268,114,1,1942.0,1747.0,1008.0,759.0,263.0,337.0
2331,1566,-76,1,2125.0,1942.0,1268.0,1008.0,114.0,263.0
2649,1884,-261,1,2331.0,2125.0,1566.0,1268.0,-76.0,114.0
3099,2139,-352,1,2649.0,2331.0,1884.0,1566.0,-261.0,-76.0
3647,2335,-370,1,3099.0,2649.0,2139.0,1884.0,-352.0,-261.0
4300,2578,-394,1,3647.0,3099.0,2335.0,2139.0,-370.0,-352.0
4999,2863,-472,1,4300.0,3647.0,2578.0,2335.0,-394.0,-370.0
5605,3112,-629,1,4999.0,4300.0,2863.0,2578.0,-472.0,-394.0
6167,3367,-713,1,5605.0,4999.0,3112.0,2863.0,-629.0,-472.0
6639,3480,-784,1,6167.0,5605.0,3367.0,3112.0,-713.0,-629.0
7008,3609,-873,1,6639.0,6167.0,3480.0,3367.0,-784.0,-713.0
7251,3628,-1027,1,7008.0,6639.0,3609.0,3480.0,-873.0,-784.0
7264,3480,-1366,1,7251.0,7008.0,3628.0,3609.0,-1027.0,-873.0
7104,3210,-1724,1,7264.0,7251.0,3480.0,3628.0,-1366.0,-1027.0
6866,2848,-1948,1,7104.0,7264.0,3210.0,3480.0,-1724.0,-1366.0
6637,2532,-1987,1,6866.0,7104.0,2848.0,3210.0,-1948.0,-1724.0
6354,2253,-1963,1,6637.0,6866.0,2532.0,2848.0,-1987.0,-1948.0
6088,1976,-1874,1,6354.0,6637.0,2253.0,2532.0,-1963.0,-1987.0
5854,1746,-1670,1,6088.0,6354.0,1976.0,2253.0,-1874.0,-1963.0
5565,1403,-1518,1,5854.0,6088.0,1746.0,1976.0,-1670.0,-1874.0
5316,1164,-1269,1,5565.0,5854.0,1403.0,1746.0,-1518.0,-1670.0
5153,1120,-971,1,5316.0,5565.0,1164.0,1403.0,-1269.0,-1518.0
5020,1070,-752,1,5153.0,5316.0,1120.0,1164.0,-971.0,-1269.0
4985,1005,-580,1,5020.0,5153.0,1070.0,1120.0,-752.0,-971.0
4993,997,-472,1,4985.0,5020.0,1005.0,1070.0,-580.0,-752.0
5060,1085,-388,1,4993.0,4985.0,997.0,1005.0,-472.0,-580.0
5123,1175,-366,1,5060.0,4993.0,1085.0,997.0,-388.0,-472.0
5155,1346,-317,1,5123.0,5060.0,1175.0,1085.0,-366.0,-388.0
5188,1515,-233,1,5155.0,5123.0,1346.0,1175.0,-317.0,-366.0
5206,1648,-226,1,5188.0,5155.0,1515.0,1346.0,-233.0,-317.0
5251,1749,-284,1,5206.0,5188.0,1648.0,1515.0,-226.0,-233.0
5289,1876,-387,1,5251.0,5206.0,1749.0,1648.0,-284.0,-226.0
5300,2010,-514,1,5289.0,5251.0,1876.0,1749.0,-387.0,-284.0
5298,2110,-640,1,5300.0,5289.0,2010.0,1876.0,-514.0,-387.0
5269,2192,-739,1,5298.0,5300.0,2110.0,2010.0,-640.0,-514.0
5235,2249,-791,1,5269.0,5298.0,2192.0,2110.0,-739.0,-640.0
5200,2276,-798,1,5235.0,5269.0,2249.0,2192.0,-791.0,-739.0
5146,2240,-821,1,5200.0,5235.0,2276.0,2249.0,-798.0,-791.0
5058,2136,-840,1,5146.0,5200.0,2240.0,2276.0,-821.0,-798.0
4940,1984,-852,1,5058.0,5146.0,2136.0,2240.0,-840.0,-821.0
4816,1790,-803,1,4940.0,5058.0,1984.0,2136.0,-852.0,-840.0
4742,1564,-723,1,4816.0,4940.0,1790.0,1984.0,-803.0,-852.0
4701,1318,-661,1,4742.0,4816.0,1564.0,1790.0,-723.0,-803.0
4604,1104,-684,1,4701.0,4742.0,1318.0,1564.0,-661.0,-723.0
4445,868,-725,1,4604.0,4701.0,1104.0,1318.0,-684.0,-661.0
4280,659,-710,1,4445.0,4604.0,868.0,1104.0,-725.0,-684.0
4134,524,-628,1,4280.0,4445.0,659.0,868.0,-710.0,-725.0
3985,460,-494,1,4134.0,4280.0,524.0,659.0,-628.0,-710.0
3873,408,-392,1,3985.0,4134.0,460.0,524.0,-494.0,-628.0
3786,344,-330,1,3873.0,3985.0,408.0,460.0,-392.0,-494.0
3682,313,-311,1,3786.0,3873.0,344.0,408.0,-330.0,-392.0
3578,233,-341,1,3682.0,3786.0,313.0,344.0,-311.0,-330.0
3491,192,-362,1,3578.0,3682.0,233.0,313.0,-341.0,-311.0
3373,189,-394,1,3491.0,3578.0,192.0,233.0,-362.0,-341.0
3254,176,-409,1,3373.0,3491.0,189.0,192.0,-394.0,-362.0
3180,165,-382,1,3254.0,3373.0,176.0,189.0,-409.0,-394.0
3102,145,-395,1,3180.0,3254.0,165.0,176.0,-382.0,-409.0
2994,95,-447,1,3102.0,3180.0,145.0,165.0,-395.0,-382.0
2880,75,-483,1,2994.0,3102.0,95.0,145.0,-447.0,-395.0
2784,99,-473,1,2880.0,2994.0,75.0,95.0,-483.0,-447.0
2720,64,-402,1,2784.0,2880.0,99.0,75.0,-473.0,-483.0
2651,65,-345,1,2720.0,2784.0,64.0,99.0,-402.0,-473.0
2611,62,-282,1,2651.0,2720.0,65.0,64.0,-345.0,-402.0
2592,76,-211,1,2611.0,2651.0,62.0,65.0,-282.0,-345.0
2549,49,-163,1,2592.0,2611.0,76.0,62.0,-211.0,-282.0
2481,36,-119,1,2549.0,2592.0,49.0,76.0,-163.0,-211.0
2436,24,-102,1,2481.0,2549.0,36.0,49.0,-119.0,-163.0
2412,15,-100,1,2436.0,2481.0,24.0,36.0,-102.0,-119.0
2374,38,-95,1,2412.0,2436.0,15.0,24.0,-100.0,-102.0
2362,61,-49,1,2374.0,2412.0,38.0,15.0,-95.0,-100.0
2349,122,-57,1,2362.0,2374.0,61.0,38.0,-49.0,-95.0
2315,203,-54,1,2349.0,2362.0,122.0,61.0,-57.0,-49.0
2306,330,-27,1,2315.0,2349.0,203.0,122.0,-54.0,-57.0
2321,466,-27,1,2306.0,2315.0,330.0,203.0,-27.0,-54.0
2354,639,-11,1,2321.0,2306.0,466.0,330.0,-27.0,-27.0
2399,781,12,1,2354.0,2321.0,639.0,466.0,-11.0,-27.0
2455,907,19,1,2399.0,2354.0,781.0,639.0,12.0,-11.0
2517,993,31,1,2455.0,2399.0,907.0,781.0,19.0,12.0
2584,1075,72,1,2517.0,2455.0,993.0,907.0,31.0,19.0
2641,1067,85,1,2584.0,2517.0,1075.0,993.0,72.0,31.0
2665,1039,97,1,2641.0,2584.0,1067.0,1075.0,85.0,72.0
2680,955,103,1,2665.0,2641.0,1039.0,1067.0,97.0,85.0
2693,862,107,1,2680.0,2665.0,955.0,1039.0,103.0,97.0
2714,770,98,1,2693.0,2680.0,862.0,955.0,107.0,103.0
2773,661,115,1,2714.0,2693.0,770.0,862.0,98.0,107.0
2781,588,101,1,2773.0,2714.0,661.0,770.0,115.0,98.0
2784,522,61,1,2781.0,2773.0,588.0,661.0,101.0,115.0
2803,472,6,1,2784.0,2781.0,522.0,588.0,61.0,101.0
2849,448,-67,1,2803.0,2784.0,472.0,522.0,6.0,61.0
2908,452,-154,1,2849.0,2803.0,448.0,472.0,-67.0,6.0
2952,460,-276,1,2908.0,2849.0,452.0,448.0,-154.0,-67.0
2991,503,-383,1,2952.0,2908.0,460.0,452.0,-276.0,-154.0
2976,594,-490,1,2991.0,2952.0,503.0,460.0,-383.0,-276.0
2919,725,-589,1,2976.0,2991.0,594.0,503.0,-490.0,-383.0
2815,889,-705,1,2919.0,2976.0,725.0,594.0,-589.0,-490.0
2674,1116,-836,1,2815.0,2919.0,889.0,725.0,-705.0,-589.0
2559,1391,-963,1,2674.0,2815.0,1116.0,889.0,-836.0,-705.0
2542,1701,-1142,1,2559.0,2674.0,1391.0,1116.0,-963.0,-836.0
2641,1952,-1410,1,2542.0,2559.0,1701.0,1391.0,-1142.0,-963.0
2820,2164,-1679,1,2641.0,2542.0,1952.0,1701.0,-1410.0,-1142.0
3044,2388,-1828,1,2820.0,2641.0,2164.0,1952.0,-1679.0,-1410.0
3329,2656,-1817,1,3044.0,2820.0,2388.0,2164.0,-1828.0,-1679.0
3705,2932,-1650,1,3329.0,3044.0,2656.0,2388.0,-1817.0,-1828.0
4155,3173,-1403,1,3705.0,3329.0,2932.0,2656.0,-1650.0,-1817.0
4627,3371,-1159,1,4155.0,3705.0,3173.0,2932.0,-1403.0,-1650.0
5079,3519,-955,1,4627.0,4155.0,3371.0,3173.0,-1159.0,-1403.0
5500,3600,-761,1,5079.0,4627.0,3519.0,3371.0,-955.0,-1159.0
5919,3625,-538,1,5500.0,5079.0,3600.0,3519.0,-761.0,-955.0
6349,3570,-316,1,5919.0,5500.0,3625.0,3600.0,-538.0,-761.0
6724,3480,-150,1,6349.0,5919.0,3570.0,3625.0,-316.0,-538.0
7022,3360,-47,1,6724.0,6349.0,3480.0,3570.0,-150.0,-316.0
7199,3242,-30,1,7022.0,6724.0,3360.0,3480.0,-47.0,-150.0
7229,3151,-79,1,7199.0,7022.0,3242.0,3360.0,-30.0,-47.0
7176,3097,-140,1,7229.0,7199.0,3151.0,3242.0,-79.0,-30.0
7106,3065,-215,1,7176.0,7229.0,3097.0,3151.0,-140.0,-79.0
7031,3005,-365,1,7106.0,7176.0,3065.0,3097.0,-215.0,-140.0
6967,2864,-544,1,7031.0,7106.0,3005.0,3065.0,-365.0,-215.0
6937,2718,-692,1,6967.0,7031.0,2864.0,3005.0,-544.0,-365.0
6883,2474,-850,1,6937.0,6967.0,2718.0,2864.0,-692.0,-544.0
6787,2166,-992,1,6883.0,6937.0,2474.0,2718.0,-850.0,-692.0
6668,1873,-1052,1,6787.0,6883.0,2166.0,2474.0,-992.0,-850.0
6556,1605,-1066,1,6668.0,6787.0,1873.0,2166.0,-1052.0,-992.0
6470,1371,-1046,1,6556.0,6668.0,1605.0,1873.0,-1066.0,-1052.0
6385,1102,-1032,1,6470.0,6556.0,1371.0,1605.0,-1046.0,-1066.0
6283,865,-1012,1,6385.0,6470.0,1102.0,1371.0,-1032.0,-1046.0
6161,692,-967,1,6283.0,6385.0,865.0,1102.0,-1012.0,-1032.0
6021,583,-895,1,6161.0,6283.0,692.0,865.0,-967.0,-1012.0
5855,557,-794,1,6021.0,6161.0,583.0,692.0,-895.0,-967.0
5696,587,-677,1,5855.0,6021.0,557.0,583.0,-794.0,-895.0
5530,647,-583,1,5696.0,5855.0,587.0,557.0,-677.0,-794.0
5379,724,-520,1,5530.0,5696.0,647.0,587.0,-583.0,-677.0
5213,831,-496,1,5379.0,5530.0,724.0,647.0,-520.0,-583.0
5076,941,-462,1,5213.0,5379.0,831.0,724.0,-496.0,-520.0
4997,1021,-409,1,5076.0,5213.0,941.0,831.0,-462.0,-496.0
4702,1136,-383,1,4997.0,5076.0,1021.0,941.0,-409.0,-462.0
4475,1297,-269,1,4702.0,4997.0,1136.0,1021.0,-383.0,-409.0
4281,1399,-194,1,4475.0,4702.0,1297.0,1136.0,-269.0,-383.0
4127,1507,-122,1,4281.0,4475.0,1399.0,1297.0,-194.0,-269.0
4001,1587,-64,1,4127.0,4281.0,1507.0,1399.0,-122.0,-194.0
3848,1637,-15,1,4001.0,4127.0,1587.0,1507.0,-64.0,-122.0
3672,1634,30,1,3848.0,4001.0,1637.0,1587.0,-15.0,-64.0
3486,1639,52,1,3672.0,3848.0,1634.0,1637.0,30.0,-15.0
3271,1641,60,1,3486.0,3672.0,1639.0,1634.0,52.0,30.0
3039,1763,193,1,3271.0,3486.0,1641.0,1639.0,60.0,52.0
2860,1835,320,1,3039.0,3271.0,1763.0,1641.0,193.0,60.0
2726,1830,427,1,2860.0,3039.0,1835.0,1763.0,320.0,193.0
2631,1740,499,1,2726.0,2860.0,1830.0,1835.0,427.0,320.0
2549,1643,591,1,2631.0,2726.0,1740.0,1830.0,499.0,427.0
2473,1490,620,1,2549.0,2631.0,1643.0,1740.0,591.0,499.0
2372,1375,604,1,2473.0,2549.0,1490.0,1643.0,620.0,591.0
2244,1260,611,1,2372.0,2473.0,1375.0,1490.0,604.0,620.0
2123,1121,583,1,2244.0,2372.0,1260.0,1375.0,611.0,604.0
2003,894,485,1,2123.0,2244.0,1121.0,1260.0,583.0,611.0
1886,699,379,1,2003.0,2123.0,894.0,1121.0,485.0,583.0
1797,524,314,1,1886.0,2003.0,699.0,894.0,379.0,485.0
1721,311,256,1,1797.0,1886.0,524.0,699.0,314.0,379.0
1692,107,262,1,1721.0,1797.0,311.0,524.0,256.0,314.0
1677,-93,297,1,1692.0,1721.0,107.0,311.0,262.0,256.0
1627,-310,280,1,1677.0,1692.0,-93.0,107.0,297.0,262.0
1625,-493,332,1,1627.0,1677.0,-310.0,-93.0,280.0,297.0
1609,-654,373,1,1625.0,1627.0,-493.0,-310.0,332.0,280.0
1559,-792,374,1,1609.0,1625.0,-654.0,-493.0,373.0,332.0
1510,-889,379,1,1559.0,1609.0,-792.0,-654.0,374.0,373.0
1478,-955,342,1,1510.0,1559.0,-889.0,-792.0,379.0,374.0
1448,-958,244,1,1478.0,1510.0,-955.0,-889.0,342.0,379.0
1386,-941,55,1,1448.0,1478.0,-958.0,-955.0,244.0,342.0
1294,-820,-150,1,1386.0,1448.0,-941.0,-958.0,55.0,244.0
1223,-692,-330,1,1294.0,1386.0,-820.0,-941.0,-150.0,55.0
1215,-543,-438,1,1223.0,1294.0,-692.0,-820.0,-330.0,-150.0
1223,-408,-515,1,1215.0,1223.0,-543.0,-692.0,-438.0,-330.0
1210,-247,-543,1,1223.0,1215.0,-408.0,-543.0,-515.0,-438.0
1205,-70,-476,1,1210.0,1223.0,-247.0,-408.0,-543.0,-515.0
1253,13,-377,1,1205.0,1210.0,-70.0,-247.0,-476.0,-543.0
1311,114,-274,1,1253.0,1205.0,13.0,-70.0,-377.0,-476.0
1353,170,-196,1,1311.0,1253.0,114.0,13.0,-274.0,-377.0
1420,180,-122,1,1353.0,1311.0,170.0,114.0,-196.0,-274.0
1507,184,-43,1,1420.0,1353.0,180.0,170.0,-122.0,-196.0
1605,148,52,1,1507.0,1420.0,184.0,180.0,-43.0,-122.0
1687,171,90,1,1605.0,1507.0,148.0,184.0,52.0,-43.0
1754,283,38,1,1687.0,1605.0,171.0,148.0,90.0,52.0
1802,488,-57,1,1754.0,1687.0,283.0,171.0,38.0,90.0
1838,761,-209,1,1802.0,1754.0,488.0,283.0,-57.0,38.0
1893,1070,-398,1,1838.0,1802.0,761.0,488.0,-209.0,-57.0
1956,1406,-661,1,1893.0,1838.0,1070.0,761.0,-398.0,-209.0
2071,1778,-1018,1,1956.0,1893.0,1406.0,1070.0,-661.0,-398.0
2388,2161,-1275,1,2071.0,1956.0,1778.0,1406.0,-1018.0,-661.0
3030,2514,-1247,1,2388.0,2071.0,2161.0,1778.0,-1275.0,-1018.0
4062,2832,-914,1,3030.0,2388.0,2514.0,2161.0,-1247.0,-1275.0
5343,3146,-413,1,4062.0,3030.0,2832.0,2514.0,-914.0,-1247.0
6574,3554,-85,1,5343.0,4062.0,3146.0,2832.0,-413.0,-914.0
7599,3931,-86,1,6574.0,5343.0,3554.0,3146.0,-85.0,-413.0
8369,4304,-446,1,7599.0,6574.0,3931.0,3554.0,-86.0,-85.0
8807,4522,-944,1,8369.0,7599.0,4304.0,3931.0,-446.0,-86.0
8876,4498,-1459,1,8807.0,8369.0,4522.0,4304.0,-944.0,-446.0
8468,4269,-2255,1,8876.0,8807.0,4498.0,4522.0,-1459.0,-944.0
7930,4039,-3045,1,8468.0,8876.0,4269.0,4498.0,-2255.0,-1459.0
7386,3663,-3397,1,7930.0,8468.0,4039.0,4269.0,-3045.0,-2255.0
6911,3210,-3143,1,7386.0,7930.0,3663.0,4039.0,-3397.0,-3045.0
6547,2733,-2472,1,6911.0,7386.0,3210.0,3663.0,-3143.0,-3397.0
6243,2262,-1712,1,6547.0,6911.0,2733.0,3210.0,-2472.0,-3143.0
5978,1793,-1068,1,6243.0,6547.0,2262.0,2733.0,-1712.0,-2472.0
5745,1387,-627,1,5978.0,6243.0,1793.0,2262.0,-1068.0,-1712.0
5546,1119,-346,1,5745.0,5978.0,1387.0,1793.0,-627.0,-1068.0
5352,1062,-186,1,5546.0,5745.0,1119.0,1387.0,-346.0,-627.0
5139,1116,-137,1,5352.0,5546.0,1062.0,1119.0,-186.0,-346.0
4932,1263,-148,1,5139.0,5352.0,1116.0,1062.0,-137.0,-186.0
4787,1472,-146,1,4932.0,5139.0,1263.0,1116.0,-148.0,-137.0
4854,1668,-105,1,4787.0,4932.0,1472.0,1263.0,-146.0,-148.0
5009,1776,-210,1,4854.0,4787.0,1668.0,1472.0,-105.0,-146.0
5119,1864,-362,1,5009.0,4854.0,1776.0,1668.0,-210.0,-105.0
5223,1920,-474,1,5119.0,5009.0,1864.0,1776.0,-362.0,-210.0
5307,1903,-584,1,5223.0,5119.0,1920.0,1864.0,-474.0,-362.0
5377,1918,-681,1,5307.0,5223.0,1903.0,1920.0,-584.0,-474.0
5460,1970,-742,1,5377.0,5307.0,1918.0,1903.0,-681.0,-584.0
5534,1981,-811,1,5460.0,5377.0,1970.0,1918.0,-742.0,-681.0
5595,1936,-878,1,5534.0,5460.0,1981.0,1970.0,-811.0,-742.0
5674,1910,-901,1,5595.0,5534.0,1936.0,1981.0,-878.0,-811.0
5720,1917,-931,1,5674.0,5595.0,1910.0,1936.0,-901.0,-878.0
5697,1970,-969,1,5720.0,5674.0,1917.0,1910.0,-931.0,-901.0
5566,2032,-1025,1,5697.0,5720.0,1970.0,1917.0,-969.0,-931.0
5378,2054,-1036,1,5566.0,5697.0,2032.0,1970.0,-1025.0,-969.0
5182,1994,-994,1,5378.0,5566.0,2054.0,2032.0,-1036.0,-1025.0
5007,1867,-973,1,5182.0,5378.0,1994.0,2054.0,-994.0,-1036.0
4873,1676,-947,1,5007.0,5182.0,1867.0,1994.0,-973.0,-994.0
4759,1453,-918,1,4873.0,5007.0,1676.0,1867.0,-947.0,-973.0
4664,1245,-902,1,4759.0,4873.0,1453.0,1676.0,-918.0,-947.0
4512,1119,-895,1,4664.0,4759.0,1245.0,1453.0,-902.0,-918.0
4353,906,-929,1,4512.0,4664.0,1119.0,1245.0,-895.0,-902.0
4193,605,-882,1,4353.0,4512.0,906.0,1119.0,-929.0,-895.0
4024,338,-783,1,4193.0,4353.0,605.0,906.0,-882.0,-929.0
3839,184,-663,1,4024.0,4193.0,338.0,605.0,-783.0,-882.0
3672,68,-561,1,3839.0,4024.0,184.0,338.0,-663.0,-783.0
3552,-12,-471,1,3672.0,3839.0,68.0,184.0,-561.0,-663.0
3423,-66,-383,1,3552.0,3672.0,-12.0,68.0,-471.0,-561.0
3235,-38,-247,1,3423.0,3552.0,-66.0,-12.0,-383.0,-471.0
3119,-79,-158,1,3235.0,3423.0,-38.0,-66.0,-247.0,-383.0
3100,-227,-223,1,3119.0,3235.0,-79.0,-38.0,-158.0,-247.0
3074,-291,-302,1,3100.0,3119.0,-227.0,-79.0,-223.0,-158.0
3000,-307,-351,1,3074.0,3100.0,-291.0,-227.0,-302.0,-223.0
2891,-314,-351,1,3000.0,3074.0,-307.0,-291.0,-351.0,-302.0
2763,-311,-311,1,2891.0,3000.0,-314.0,-307.0,-351.0,-351.0
2659,-302,-236,1,2763.0,2891.0,-311.0,-314.0,-311.0,-351.0
2541,-277,-158,1,2659.0,2763.0,-302.0,-311.0,-236.0,-311.0
2439,-255,-106,1,2541.0,2659.0,-277.0,-302.0,-158.0,-236.0
2368,-246,-95,1,2439.0,2541.0,-255.0,-277.0,-106.0,-158.0
2292,-230,-83,1,2368.0,2439.0,-246.0,-255.0,-95.0,-106.0
2210,-228,-66,1,2292.0,2368.0,-230.0,-246.0,-83.0,-95.0
2148,-224,-34,1,2210.0,2292.0,-228.0,-230.0,-66.0,-83.0
2097,-192,9,1,2148.0,2210.0,-224.0,-228.0,-34.0,-66.0
2046,-160,63,1,2097.0,2148.0,-192.0,-224.0,9.0,-34.0
1978,-110,76,1,2046.0,2097.0,-160.0,-192.0,63.0,9.0
1922,-32,115,1,1978.0,2046.0,-110.0,-160.0,76.0,63.0
1888,36,130,1,1922.0,1978.0,-32.0,-110.0,115.0,76.0
1882,115,172,1,1888.0,1922.0,36.0,-32.0,130.0,115.0
1885,218,238,1,1882.0,1888.0,115.0,36.0,172.0,130.0
1900,316,291,1,1885.0,1882.0,218.0,115.0,238.0,172.0
1931,424,331,1,1900.0,1885.0,316.0,218.0,291.0,238.0
1971,519,336,1,1931.0,1900.0,424.0,316.0,331.0,291.0
2010,597,332,1,1971.0,1931.0,519.0,424.0,336.0,331.0
2039,637,286,1,2010.0,1971.0,597.0,519.0,332.0,336.0
2058,650,212,1,2039.0,2010.0,637.0,597.0,286.0,332.0
2070,650,126,1,2058.0,2039.0,650.0,637.0,212.0,286.0
2077,625,20,1,2070.0,2058.0,650.0,650.0,126.0,212.0
2065,606,-105,1,2077.0,2070.0,625.0,650.0,20.0,126.0
2055,579,-239,1,2065.0,2077.0,606.0,625.0,-105.0,20.0
2052,558,-357,1,2055.0,2065.0,579.0,606.0,-239.0,-105.0
2048,558,-451,1,2052.0,2055.0,558.0,579.0,-357.0,-239.0
2042,577,-506,1,2048.0,2052.0,558.0,558.0,-451.0,-357.0
2035,610,-535,1,2042.0,2048.0,577.0,558.0,-506.0,-451.0
2020,659,-525,1,2035.0,2042.0,610.0,577.0,-535.0,-506.0
1993,732,-477,1,2020.0,2035.0,659.0,610.0,-525.0,-535.0
1954,831,-393,1,1993.0,2020.0,732.0,659.0,-477.0,-525.0
1890,967,-330,1,1954.0,1993.0,831.0,732.0,-393.0,-477.0
1816,1153,-319,1,1890.0,1954.0,967.0,831.0,-330.0,-393.0
1773,1389,-307,1,1816.0,1890.0,1153.0,967.0,-319.0,-330.0
1779,1675,-401,1,1773.0,1816.0,1389.0,1153.0,-307.0,-319.0
1834,1930,-812,1,1779.0,1773.0,1675.0,1389.0,-401.0,-307.0
1966,2122,-1458,1,1834.0,1779.0,1930.0,1675.0,-812.0,-401.0
2233,2335,-2062,1,1966.0,1834.0,2122.0,1930.0,-1458.0,-812.0
2691,2675,-2349,1,2233.0,1966.0,2335.0,2122.0,-2062.0,-1458.0
3416,3247,-2188,1,2691.0,2233.0,2675.0,2335.0,-2349.0,-2062.0
4449,3867,-1680,1,3416.0,2691.0,3247.0,2675.0,-2188.0,-2349.0
5610,4410,-1067,1,4449.0,3416.0,3867.0,3247.0,-1680.0,-2188.0
6721,4818,-575,1,5610.0,4449.0,4410.0,3867.0,-1067.0,-1680.0
7745,5150,-223,1,6721.0,5610.0,4818.0,4410.0,-575.0,-1067.0
8722,5360,36,1,7745.0,6721.0,5150.0,4818.0,-223.0,-575.0
9626,5349,162,1,8722.0,7745.0,5360.0,5150.0,36.0,-223.0
10186,5064,54,1,9626.0,8722.0,5349.0,5360.0,162.0,36.0
9892,4639,-273,1,10186.0,9626.0,5064.0,5349.0,54.0,162.0
9271,4078,-380,1,9892.0,10186.0,4639.0,5064.0,-273.0,54.0
8545,3508,-272,1,9271.0,9892.0,4078.0,4639.0,-380.0,-273.0
7833,2995,-89,1,8545.0,9271.0,3508.0,4078.0,-272.0,-380.0
7272,2563,59,1,7833.0,8545.0,2995.0,3508.0,-89.0,-272.0
6860,2128,114,1,7272.0,7833.0,2563.0,2995.0,59.0,-89.0
6540,1759,108,1,6860.0,7272.0,2128.0,2563.0,114.0,59.0
6334,1479,112,1,6540.0,6860.0,1759.0,2128.0,108.0,114.0
6163,1288,95,1,6334.0,6540.0,1479.0,1759.0,112.0,108.0
6011,1123,49,1,6163.0,6334.0,1288.0,1479.0,95.0,112.0
5903,989,-13,1,6011.0,6163.0,1123.0,1288.0,49.0,95.0
5835,906,-87,1,5903.0,6011.0,989.0,1123.0,-13.0,49.0
5821,806,-187,1,5835.0,5903.0,906.0,989.0,-87.0,-13.0
5837,630,-334,1,5821.0,5835.0,806.0,906.0,-187.0,-87.0
5871,460,-447,1,5837.0,5821.0,630.0,806.0,-334.0,-187.0
5870,321,-507,1,5871.0,5837.0,460.0,630.0,-447.0,-334.0
5827,238,-551,1,5870.0,5871.0,321.0,460.0,-507.0,-447.0
5743,284,-552,1,5827.0,5870.0,238.0,321.0,-551.0,-507.0
5617,372,-561,1,5743.0,5827.0,284.0,238.0,-552.0,-551.0
5453,512,-562,1,5617.0,5743.0,372.0,284.0,-561.0,-552.0
5324,618,-574,1,5453.0,5617.0,512.0,372.0,-562.0,-561.0
5190,692,-599,1,5324.0,5453.0,618.0,512.0,-574.0,-562.0
4970,885,-556,1,5190.0,5324.0,692.0,618.0,-599.0,-574.0
4721,1049,-499,1,4970.0,5190.0,885.0,692.0,-556.0,-599.0
4474,1112,-397,1,4721.0,4970.0,1049.0,885.0,-499.0,-556.0
4265,1152,-257,1,4474.0,4721.0,1112.0,1049.0,-397.0,-499.0
4087,1156,-82,1,4265.0,4474.0,1152.0,1112.0,-257.0,-397.0
3928,1106,65,1,4087.0,4265.0,1156.0,1152.0,-82.0,-257.0
3781,1020,188,1,3928.0,4087.0,1106.0,1156.0,65.0,-82.0
3660,938,291,1,3781.0,3928.0,1020.0,1106.0,188.0,65.0
3516,918,373,1,3660.0,3781.0,938.0,1020.0,291.0,188.0
3366,859,414,1,3516.0,3660.0,918.0,938.0,373.0,291.0
3198,858,467,1,3366.0,3516.0,859.0,918.0,414.0,373.0
3043,862,527,1,3198.0,3366.0,858.0,859.0,467.0,414.0
2907,864,578,1,3043.0,3198.0,862.0,858.0,527.0,467.0
2744,882,609,1,2907.0,3043.0,864.0,862.0,578.0,527.0
2591,838,588,1,2744.0,2907.0,882.0,864.0,609.0,578.0
2487,768,549,1,2591.0,2744.0,838.0,882.0,588.0,609.0
2414,692,520,1,2487.0,2591.0,768.0,838.0,549.0,588.0
2344,644,515,1,2414.0,2487.0,692.0,768.0,520.0,549.0
2242,613,496,1,2344.0,2414.0,644.0,692.0,515.0,520.0
2147,634,495,1,2242.0,2344.0,613.0,644.0,496.0,515.0
2029,639,494,1,2147.0,2242.0,634.0,613.0,495.0,496.0
1950,608,530,1,2029.0,2147.0,639.0,634.0,494.0,495.0
1855,579,568,1,1950.0,2029.0,608.0,639.0,530.0,494.0
1755,571,605,1,1855.0,1950.0,579.0,608.0,568.0,530.0
1610,602,634,1,1755.0,1855.0,571.0,579.0,605.0,568.0
1481,618,673,1,1610.0,1755.0,602.0,571.0,634.0,605.0
1397,575,647,1,1481.0,1610.0,618.0,602.0,673.0,634.0
1317,555,597,1,1397.0,1481.0,575.0,618.0,647.0,673.0
1330,543,577,1,1317.0,1397.0,555.0,575.0,597.0,647.0
1376,526,547,1,1330.0,1317.0,543.0,555.0,577.0,597.0
1431,484,490,1,1376.0,1330.0,526.0,543.0,547.0,577.0
1506,424,412,1,1431.0,1376.0,484.0,526.0,490.0,547.0
1549,308,310,1,1506.0,1431.0,424.0,484.0,412.0,490.0
1564,207,178,1,1549.0,1506.0,308.0,424.0,310.0,412.0
1584,105,83,1,1564.0,1549.0,207.0,308.0,178.0,310.0
1620,-11,5,1,1584.0,1564.0,105.0,207.0,83.0,178.0
1584,-80,-57,1,1620.0,1584.0,-11.0,105.0,5.0,83.0
1570,-160,-97,1,1584.0,1620.0,-80.0,-11.0,-57.0,5.0
1591,-226,-130,1,1570.0,1584.0,-160.0,-80.0,-97.0,-57.0
1640,-262,-159,1,1591.0,1570.0,-226.0,-160.0,-130.0,-97.0
1688,-265,-185,1,1640.0,1591.0,-262.0,-226.0,-159.0,-130.0
1781,-246,-176,1,1688.0,1640.0,-265.0,-262.0,-185.0,-159.0
1875,-205,-171,1,1781.0,1688.0,-246.0,-265.0,-176.0,-185.0
1982,-129,-118,1,1875.0,1781.0,-205.0,-246.0,-171.0,-176.0
2098,-26,-64,1,1982.0,1875.0,-129.0,-205.0,-118.0,-171.0
2225,135,-17,1,2098.0,1982.0,-26.0,-129.0,-64.0,-118.0
2399,281,53,1,2225.0,2098.0,135.0,-26.0,-17.0,-64.0
2569,401,149,1,2399.0,2225.0,281.0,135.0,53.0,-17.0
2842,537,317,1,2569.0,2399.0,401.0,281.0,149.0,53.0
3075,674,481,1,2842.0,2569.0,537.0,401.0,317.0,149.0
3272,926,603,1,3075.0,2842.0,674.0,537.0,481.0,317.0
3419,1224,599,1,3272.0,3075.0,926.0,674.0,603.0,481.0
3503,1570,493,1,3419.0,3272.0,1224.0,926.0,599.0,603.0
3524,1912,287,1,3503.0,3419.0,1570.0,1224.0,493.0,599.0
3489,2246,-24,1,3524.0,3503.0,1912.0,1570.0,287.0,493.0
3479,2567,-325,1,3489.0,3524.0,2246.0,1912.0,-24.0,287.0
3572,2888,-574,1,3479.0,3489.0,2567.0,2246.0,-325.0,-24.0
3906,3131,-694,1,3572.0,3479.0,2888.0,2567.0,-574.0,-325.0
4682,3236,-555,1,3906.0,3572.0,3131.0,2888.0,-694.0,-574.0
5957,3181,-143,1,4682.0,3906.0,3236.0,3131.0,-555.0,-694.0
7488,3236,444,1,5957.0,4682.0,3181.0,3236.0,-143.0,-555.0
8607,3388,541,1,7488.0,5957.0,3236.0,3181.0,444.0,-143.0
9115,3555,92,1,8607.0,7488.0,3388.0,3236.0,541.0,444.0
9037,3529,-711,1,9115.0,8607.0,3555.0,3388.0,92.0,541.0
8624,3319,-1412,1,9037.0,9115.0,3529.0,3555.0,-711.0,92.0
8068,2899,-1836,1,8624.0,9037.0,3319.0,3529.0,-1412.0,-711.0
7485,2438,-1923,1,8068.0,8624.0,2899.0,3319.0,-1836.0,-1412.0
6927,2072,-1705,1,7485.0,8068.0,2438.0,2899.0,-1923.0,-1836.0
6228,1922,-1852,1,6927.0,7485.0,2072.0,2438.0,-1705.0,-1923.0
5851,1609,-1454,1,6228.0,6927.0,1922.0,2072.0,-1852.0,-1705.0
5492,1559,-976,1,5851.0,6228.0,1609.0,1922.0,-1454.0,-1852.0
5143,1515,-753,1,5492.0,5851.0,1559.0,1609.0,-976.0,-1454.0
4837,1494,-652,1,5143.0,5492.0,1515.0,1559.0,-753.0,-976.0
4672,1515,-576,1,4837.0,5143.0,1494.0,1515.0,-652.0,-753.0
4619,1531,-521,1,4672.0,4837.0,1515.0,1494.0,-576.0,-652.0
4553,1569,-437,1,4619.0,4672.0,1531.0,1515.0,-521.0,-576.0
4476,1614,-289,1,4553.0,4619.0,1569.0,1531.0,-437.0,-521.0
4429,1762,-73,1,4476.0,4553.0,1614.0,1569.0,-289.0,-437.0
4509,1918,141,1,4429.0,4476.0,1762.0,1614.0,-73.0,-289.0
4742,1986,256,1,4509.0,4429.0,1918.0,1762.0,141.0,-73.0
4981,2109,291,1,4742.0,4509.0,1986.0,1918.0,256.0,141.0
5195,2222,280,1,4981.0,4742.0,2109.0,1986.0,291.0,256.0
5355,2312,202,1,5195.0,4981.0,2222.0,2109.0,280.0,291.0
5417,2401,45,1,5355.0,5195.0,2312.0,2222.0,202.0,280.0
5398,2475,-162,1,5417.0,5355.0,2401.0,2312.0,45.0,202.0
5326,2515,-417,1,5398.0,5417.0,2475.0,2401.0,-162.0,45.0
5202,2514,-678,1,5326.0,5398.0,2515.0,2475.0,-417.0,-162.0
5048,2516,-869,1,5202.0,5326.0,2514.0,2515.0,-678.0,-417.0
4895,2465,-990,1,5048.0,5202.0,2516.0,2514.0,-869.0,-678.0
4738,2415,-1045,1,4895.0,5048.0,2465.0,2516.0,-990.0,-869.0
4597,2323,-1051,1,4738.0,4895.0,2415.0,2465.0,-1045.0,-990.0
4436,2202,-1006,1,4597.0,4738.0,2323.0,2415.0,-1051.0,-1045.0
4342,1984,-951,1,4436.0,4597.0,2202.0,2323.0,-1006.0,-1051.0
4279,1800,-914,1,4342.0,4436.0,1984.0,2202.0,-951.0,-1006.0
4242,1540,-953,1,4279.0,4342.0,1800.0,1984.0,-914.0,-951.0
4252,1188,-1077,1,4242.0,4279.0,1540.0,1800.0,-953.0,-914.0
4237,932,-1184,1,4252.0,4242.0,1188.0,1540.0,-1077.0,-953.0
4244,689,-1260,1,4237.0,4252.0,932.0,1188.0,-1184.0,-1077.0
4197,416,-1346,1,4244.0,4237.0,689.0,932.0,-1260.0,-1184.0
4130,206,-1365,1,4197.0,4244.0,416.0,689.0,-1346.0,-1260.0
4017,-56,-1337,1,4130.0,4197.0,206.0,416.0,-1365.0,-1346.0
3899,-328,-1222,1,4017.0,4130.0,-56.0,206.0,-1337.0,-1365.0
3785,-625,-1092,1,3899.0,4017.0,-328.0,-56.0,-1222.0,-1337.0
3625,-807,-956,1,3785.0,3899.0,-625.0,-328.0,-1092.0,-1222.0
3457,-947,-828,1,3625.0,3785.0,-807.0,-625.0,-956.0,-1092.0
3390,-1023,-681,1,3457.0,3625.0,-947.0,-807.0,-828.0,-956.0
3299,-1013,-547,1,3390.0,3457.0,-1023.0,-947.0,-681.0,-828.0
3219,-1022,-514,1,3299.0,3390.0,-1013.0,-1023.0,-547.0,-681.0
3074,-923,-548,1,3219.0,3299.0,-1022.0,-1013.0,-514.0,-547.0
2965,-919,-585,1,3074.0,3219.0,-923.0,-1022.0,-548.0,-514.0
3004,-1045,-703,1,2965.0,3074.0,-919.0,-923.0,-585.0,-548.0
2992,-1089,-893,1,3004.0,2965.0,-1045.0,-919.0,-703.0,-585.0
2942,-994,-948,1,2992.0,3004.0,-1089.0,-1045.0,-893.0,-703.0
2896,-793,-795,1,2942.0,2992.0,-994.0,-1089.0,-948.0,-893.0
2766,-652,-638,1,2896.0,2942.0,-793.0,-994.0,-795.0,-948.0
2610,-472,-401,1,2766.0,2896.0,-652.0,-793.0,-638.0,-795.0
2563,-322,-148,1,2610.0,2766.0,-472.0,-652.0,-401.0,-638.0
2515,-206,-29,1,2563.0,2610.0,-322.0,-472.0,-148.0,-401.0
2519,-104,52,1,2515.0,2563.0,-206.0,-322.0,-29.0,-148.0
2542,-16,133,1,2519.0,2515.0,-104.0,-206.0,52.0,-29.0
2576,32,169,1,2542.0,2519.0,-16.0,-104.0,133.0,52.0
2575,68,182,1,2576.0,2542.0,32.0,-16.0,169.0,133.0
2598,104,201,1,2575.0,2576.0,68.0,32.0,182.0,169.0
2611,122,189,1,2598.0,2575.0,104.0,68.0,201.0,182.0
2624,95,155,1,2611.0,2598.0,122.0,104.0,189.0,201.0
2635,65,118,1,2624.0,2611.0,95.0,122.0,155.0,189.0
2644,13,60,1,2635.0,2624.0,65.0,95.0,118.0,155.0
2654,-44,15,1,2644.0,2635.0,13.0,65.0,60.0,118.0
2684,-99,-31,1,2654.0,2644.0,-44.0,13.0,15.0,60.0
2746,-171,-95,1,2684.0,2654.0,-99.0,-44.0,-31.0,15.0
2832,-218,-130,1,2746.0,2684.0,-171.0,-99.0,-95.0,-31.0
2948,-200,-107,1,2832.0,2746.0,-218.0,-171.0,-130.0,-95.0
3079,-205,-107,1,2948.0,2832.0,-200.0,-218.0,-107.0,-130.0
3216,-197,-111,1,3079.0,2948.0,-205.0,-200.0,-107.0,-107.0
3351,-165,-120,1,3216.0,3079.0,-197.0,-205.0,-111.0,-107.0
3483,-136,-144,1,3351.0,3216.0,-165.0,-197.0,-120.0,-111.0
3599,-95,-176,1,3483.0,3351.0,-136.0,-165.0,-144.0,-120.0
3715,-52,-203,1,3599.0,3483.0,-95.0,-136.0,-176.0,-144.0
3787,-13,-247,1,3715.0,3599.0,-52.0,-95.0,-203.0,-176.0
3859,36,-269,1,3787.0,3715.0,-13.0,-52.0,-247.0,-203.0
3894,82,-299,1,3859.0,3787.0,36.0,-13.0,-269.0,-247.0
3982,145,-264,1,3894.0,3859.0,82.0,36.0,-299.0,-269.0
4044,196,-250,1,3982.0,3894.0,145.0,82.0,-264.0,-299.0
4077,306,-226,1,4044.0,3982.0,196.0,145.0,-250.0,-264.0
4114,426,-174,1,4077.0,4044.0,306.0,196.0,-226.0,-250.0
4126,537,-134,1,4114.0,4077.0,426.0,306.0,-174.0,-226.0
4093,675,-105,1,4126.0,4114.0,537.0,426.0,-134.0,-174.0
3975,788,-157,1,4093.0,4126.0,675.0,537.0,-105.0,-134.0
3755,911,-293,1,3975.0,4093.0,788.0,675.0,-157.0,-105.0
3494,1105,-463,1,3755.0,3975.0,911.0,788.0,-293.0,-157.0
3301,1423,-595,1,3494.0,3755.0,1105.0,911.0,-463.0,-293.0
3224,1804,-705,1,3301.0,3494.0,1423.0,1105.0,-595.0,-463.0
3289,2229,-788,1,3224.0,3301.0,1804.0,1423.0,-705.0,-595.0
3455,2639,-849,1,3289.0,3224.0,2229.0,1804.0,-788.0,-705.0
3704,2981,-854,1,3455.0,3289.0,2639.0,2229.0,-849.0,-788.0
3999,3230,-806,1,3704.0,3455.0,2981.0,2639.0,-854.0,-849.0
4343,3394,-717,1,3999.0,3704.0,3230.0,2981.0,-806.0,-854.0
4695,3486,-615,1,4343.0,3999.0,3394.0,3230.0,-717.0,-806.0
4978,3441,-597,1,4695.0,4343.0,3486.0,3394.0,-615.0,-717.0
5208,3254,-622,1,4978.0,4695.0,3441.0,3486.0,-597.0,-615.0
5402,2976,-616,1,5208.0,4978.0,3254.0,3441.0,-622.0,-597.0
5487,2769,-446,1,5402.0,5208.0,2976.0,3254.0,-616.0,-622.0
5532,2566,-122,1,5487.0,5402.0,2769.0,2976.0,-446.0,-616.0
5503,2385,221,1,5532.0,5487.0,2566.0,2769.0,-122.0,-446.0
5486,2264,507,1,5503.0,5532.0,2385.0,2566.0,221.0,-122.0
5458,2173,625,1,5486.0,5503.0,2264.0,2385.0,507.0,221.0
5414,2080,568,1,5458.0,5486.0,2173.0,2264.0,625.0,507.0
5382,1950,385,1,5414.0,5458.0,2080.0,2173.0,568.0,625.0
5376,1875,121,1,5382.0,5414.0,1950.0,2080.0,385.0,568.0
5403,1836,-176,1,5376.0,5382.0,1875.0,1950.0,121.0,385.0
5487,1836,-418,1,5403.0,5376.0,1836.0,1875.0,-176.0,121.0
5623,1837,-552,1,5487.0,5403.0,1836.0,1836.0,-418.0,-176.0
5801,1821,-602,1,5623.0,5487.0,1837.0,1836.0,-552.0,-418.0
5984,1771,-632,1,5801.0,5623.0,1821.0,1837.0,-602.0,-552.0
6144,1694,-655,1,5984.0,5801.0,1771.0,1821.0,-632.0,-602.0
6266,1585,-671,1,6144.0,5984.0,1694.0,1771.0,-655.0,-632.0
6319,1442,-683,1,6266.0,6144.0,1585.0,1694.0,-671.0,-655.0
6319,1259,-662,1,6319.0,6266.0,1442.0,1585.0,-683.0,-671.0
6261,1072,-620,1,6319.0,6319.0,1259.0,1442.0,-662.0,-683.0
6124,908,-560,1,6261.0,6319.0,1072.0,1259.0,-620.0,-662.0
5926,763,-488,1,6124.0,6261.0,908.0,1072.0,-560.0,-620.0
5700,697,-387,1,5926.0,6124.0,763.0,908.0,-488.0,-560.0
5476,690,-290,1,5700.0,5926.0,697.0,763.0,-387.0,-488.0
5258,721,-207,1,5476.0,5700.0,690.0,697.0,-290.0,-387.0
5058,766,-127,1,5258.0,5476.0,721.0,690.0,-207.0,-290.0
4871,806,-62,1,5058.0,5258.0,766.0,721.0,-127.0,-207.0
4712,826,-14,1,4871.0,5058.0,806.0,766.0,-62.0,-127.0
4582,826,20,1,4712.0,4871.0,826.0,806.0,-14.0,-62.0
4489,806,45,1,4582.0,4712.0,826.0,826.0,20.0,-14.0
4446,772,85,1,4489.0,4582.0,806.0,826.0,45.0,20.0
4260,721,101,1,4446.0,4489.0,772.0,806.0,85.0,45.0
4101,732,170,1,4260.0,4446.0,721.0,772.0,101.0,85.0
3980,695,184,1,4101.0,4260.0,732.0,721.0,170.0,101.0
3856,675,180,1,3980.0,4101.0,695.0,732.0,184.0,170.0
3753,668,204,1,3856.0,3980.0,675.0,695.0,180.0,184.0
3688,670,268,1,3753.0,3856.0,668.0,675.0,204.0,180.0
3651,657,338,1,3688.0,3753.0,670.0,668.0,268.0,204.0
3617,645,395,1,3651.0,3688.0,657.0,670.0,338.0,268.0
3561,672,419,1,3617.0,3651.0,645.0,657.0,395.0,338.0
3487,777,448,1,3561.0,3617.0,672.0,645.0,419.0,395.0
3391,851,472,1,3487.0,3561.0,777.0,672.0,448.0,419.0
3300,903,487,1,3391.0,3487.0,851.0,777.0,472.0,448.0
3184,978,529,1,3300.0,3391.0,903.0,851.0,487.0,472.0
3064,1002,562,1,3184.0,3300.0,978.0,903.0,529.0,487.0
2970,980,601,1,3064.0,3184.0,1002.0,978.0,562.0,529.0
2880,994,671,1,2970.0,3064.0,980.0,1002.0,601.0,562.0
2784,974,728,1,2880.0,2970.0,994.0,980.0,671.0,601.0
2685,937,795,1,2784.0,2880.0,974.0,994.0,728.0,671.0
2626,839,839,1,2685.0,2784.0,937.0,974.0,795.0,728.0
2587,756,841,1,2626.0,2685.0,839.0,937.0,839.0,795.0
2554,657,794,1,2587.0,2626.0,756.0,839.0,841.0,839.0
2531,577,737,1,2554.0,2587.0,657.0,756.0,794.0,841.0
2498,505,658,1,2531.0,2554.0,577.0,657.0,737.0,794.0
2430,466,545,1,2498.0,2531.0,505.0,577.0,658.0,737.0
2319,458,407,1,2430.0,2498.0,466.0,505.0,545.0,658.0
2238,420,254,1,2319.0,2430.0,458.0,466.0,407.0,545.0
2179,403,152,1,2238.0,2319.0,420.0,458.0,254.0,407.0
2137,310,76,1,2179.0,2238.0,403.0,420.0,152.0,254.0
2101,258,60,1,2137.0,2179.0,310.0,403.0,76.0,152.0
2048,202,52,1,2101.0,2137.0,258.0,310.0,60.0,76.0
1984,174,40,1,2048.0,2101.0,202.0,258.0,52.0,60.0
1927,167,26,1,1984.0,2048.0,174.0,202.0,40.0,52.0
1877,149,5,1,1927.0,1984.0,167.0,174.0,26.0,40.0
1856,140,15,1,1877.0,1927.0,149.0,167.0,5.0,26.0
1863,133,61,1,1856.0,1877.0,140.0,149.0,15.0,5.0
1902,119,138,1,1863.0,1856.0,133.0,140.0,61.0,15.0
1927,101,234,1,1902.0,1863.0,119.0,133.0,138.0,61.0
1958,89,350,1,1927.0,1902.0,101.0,119.0,234.0,138.0
1987,72,472,1,1958.0,1927.0,89.0,101.0,350.0,234.0
2002,77,584,1,1987.0,1958.0,72.0,89.0,472.0,350.0
2017,96,647,1,2002.0,1987.0,77.0,72.0,584.0,472.0
2019,158,666,1,2017.0,2002.0,96.0,77.0,647.0,584.0
2014,266,646,1,2019.0,2017.0,158.0,96.0,666.0,647.0
2017,406,576,1,2014.0,2019.0,266.0,158.0,646.0,666.0
2015,585,485,1,2017.0,2014.0,406.0,266.0,576.0,646.0
1993,781,389,1,2015.0,2017.0,585.0,406.0,485.0,576.0
1938,1012,251,1,1993.0,2015.0,781.0,585.0,389.0,485.0
1859,1255,20,1,1938.0,1993.0,1012.0,781.0,251.0,389.0
1789,1503,-304,1,1859.0,1938.0,1255.0,1012.0,20.0,251.0
1747,1745,-713,1,1789.0,1859.0,1503.0,1255.0,-304.0,20.0
1774,1986,-1163,1,1747.0,1789.0,1745.0,1503.0,-713.0,-304.0
1914,2245,-1595,1,1774.0,1747.0,1986.0,1745.0,-1163.0,-713.0
2287,2462,-1915,1,1914.0,1774.0,2245.0,1986.0,-1595.0,-1163.0
3050,2668,-1977,1,2287.0,1914.0,2462.0,2245.0,-1915.0,-1595.0
4221,2865,-1668,1,3050.0,2287.0,2668.0,2462.0,-1977.0,-1915.0
5646,3268,-1124,1,4221.0,3050.0,2865.0,2668.0,-1668.0,-1977.0
6921,3722,-709,1,5646.0,4221.0,3268.0,2865.0,-1124.0,-1668.0
7770,4033,-742,1,6921.0,5646.0,3722.0,3268.0,-709.0,-1124.0
8291,4155,-1102,1,7770.0,6921.0,4033.0,3722.0,-742.0,-709.0
8546,3969,-1601,1,8291.0,7770.0,4155.0,4033.0,-1102.0,-742.0
8370,3559,-2011,1,8546.0,8291.0,3969.0,4155.0,-1601.0,-1102.0
7812,3112,-2043,1,8370.0,8546.0,3559.0,3969.0,-2011.0,-1601.0
7121,2603,-1815,1,7812.0,8370.0,3112.0,3559.0,-2043.0,-2011.0
6518,2060,-1512,1,7121.0,7812.0,2603.0,3112.0,-1815.0,-2043.0
6053,1580,-1260,1,6518.0,7121.0,2060.0,2603.0,-1512.0,-1815.0
5720,1185,-1082,1,6053.0,6518.0,1580.0,2060.0,-1260.0,-1512.0
5461,892,-983,1,5720.0,6053.0,1185.0,1580.0,-1082.0,-1260.0
5235,700,-931,1,5461.0,5720.0,892.0,1185.0,-983.0,-1082.0
5054,565,-917,1,5235.0,5461.0,700.0,892.0,-931.0,-983.0
4937,481,-915,1,5054.0,5235.0,565.0,700.0,-917.0,-931.0
4950,459,-933,1,4937.0,5054.0,481.0,565.0,-915.0,-917.0
5100,531,-963,1,4950.0,4937.0,459.0,481.0,-933.0,-915.0
5315,700,-992,1,5100.0,4950.0,531.0,459.0,-963.0,-933.0
5553,918,-996,1,5315.0,5100.0,700.0,531.0,-992.0,-963.0
5793,1144,-964,1,5553.0,5315.0,918.0,700.0,-996.0,-992.0
6008,1349,-915,1,5793.0,5553.0,1144.0,918.0,-964.0,-996.0
6164,1547,-879,1,6008.0,5793.0,1349.0,1144.0,-915.0,-964.0
6245,1732,-878,1,6164.0,6008.0,1547.0,1349.0,-879.0,-915.0
6266,1928,-915,1,6245.0,6164.0,1732.0,1547.0,-878.0,-879.0
6263,2110,-965,1,6266.0,6245.0,1928.0,1732.0,-915.0,-878.0
6200,2241,-1020,1,6263.0,6266.0,2110.0,1928.0,-965.0,-915.0
6040,2342,-1059,1,6200.0,6263.0,2241.0,2110.0,-1020.0,-965.0
5820,2422,-1083,1,6040.0,6200.0,2342.0,2241.0,-1059.0,-1020.0
5589,2471,-1087,1,5820.0,6040.0,2422.0,2342.0,-1083.0,-1059.0
5324,2424,-1118,1,5589.0,5820.0,2471.0,2422.0,-1087.0,-1083.0
5073,2347,-1137,1,5324.0,5589.0,2424.0,2471.0,-1118.0,-1087.0
4858,2242,-1148,1,5073.0,5324.0,2347.0,2424.0,-1137.0,-1118.0
4673,2092,-1168,1,4858.0,5073.0,2242.0,2347.0,-1148.0,-1137.0
4514,1904,-1188,1,4673.0,4858.0,2092.0,2242.0,-1168.0,-1148.0
4374,1670,-1196,1,4514.0,4673.0,1904.0,2092.0,-1188.0,-1168.0
4273,1441,-1170,1,4374.0,4514.0,1670.0,1904.0,-1196.0,-1188.0
4221,1196,-1113,1,4273.0,4374.0,1441.0,1670.0,-1170.0,-1196.0
4162,946,-1061,1,4221.0,4273.0,1196.0,1441.0,-1113.0,-1170.0
4068,728,-1039,1,4162.0,4221.0,946.0,1196.0,-1061.0,-1113.0
3957,536,-1023,1,4068.0,4162.0,728.0,946.0,-1039.0,-1061.0
3862,378,-991,1,3957.0,4068.0,536.0,728.0,-1023.0,-1039.0
3764,248,-952,1,3862.0,3957.0,378.0,536.0,-991.0,-1023.0
3649,141,-928,1,3764.0,3862.0,248.0,378.0,-952.0,-991.0
3540,81,-890,1,3649.0,3764.0,141.0,248.0,-928.0,-952.0
3511,-50,-862,1,3540.0,3649.0,81.0,141.0,-890.0,-928.0
3486,-129,-857,1,3511.0,3540.0,-50.0,81.0,-862.0,-890.0
3449,-172,-861,1,3486.0,3511.0,-129.0,-50.0,-857.0,-862.0
3454,-248,-866,1,3449.0,3486.0,-172.0,-129.0,-861.0,-857.0
3499,-356,-882,1,3454.0,3449.0,-248.0,-172.0,-866.0,-861.0
3523,-455,-913,1,3499.0,3454.0,-356.0,-248.0,-882.0,-866.0
3487,-508,-917,1,3523.0,3499.0,-455.0,-356.0,-913.0,-882.0
3407,-534,-899,1,3487.0,3523.0,-508.0,-455.0,-917.0,-913.0
3313,-579,-855,1,3407.0,3487.0,-534.0,-508.0,-899.0,-917.0
3213,-610,-769,1,3313.0,3407.0,-579.0,-534.0,-855.0,-899.0
3098,-653,-654,1,3213.0,3313.0,-610.0,-579.0,-769.0,-855.0
3016,-705,-525,1,3098.0,3213.0,-653.0,-610.0,-654.0,-769.0
2927,-708,-414,1,3016.0,3098.0,-705.0,-653.0,-525.0,-654.0
2839,-689,-301,1,2927.0,3016.0,-708.0,-705.0,-414.0,-525.0
2735,-618,-155,1,2839.0,2927.0,-689.0,-708.0,-301.0,-414.0
2735,-700,-86,1,2735.0,2839.0,-618.0,-689.0,-155.0,-301.0
2755,-735,-49,1,2735.0,2735.0,-700.0,-618.0,-86.0,-155.0
2760,-658,62,1,2755.0,2735.0,-735.0,-700.0,-49.0,-86.0
2763,-667,191,1,2760.0,2755.0,-658.0,-735.0,62.0,-49.0
2734,-668,304,1,2763.0,2760.0,-667.0,-658.0,191.0,62.0
2709,-678,389,1,2734.0,2763.0,-668.0,-667.0,304.0,191.0
2669,-740,426,1,2709.0,2734.0,-678.0,-668.0,389.0,304.0
2642,-811,416,1,2669.0,2709.0,-740.0,-678.0,426.0,389.0
2628,-861,373,1,2642.0,2669.0,-811.0,-740.0,416.0,426.0
2586,-898,286,1,2628.0,2642.0,-861.0,-811.0,373.0,416.0
2498,-914,146,1,2586.0,2628.0,-898.0,-861.0,286.0,373.0
2426,-849,40,1,2498.0,2586.0,-914.0,-898.0,146.0,286.0
2397,-817,-77,1,2426.0,2498.0,-849.0,-914.0,40.0,146.0
2352,-776,-228,1,2397.0,2426.0,-817.0,-849.0,-77.0,40.0
2334,-695,-342,1,2352.0,2397.0,-776.0,-817.0,-228.0,-77.0
2358,-628,-472,1,2334.0,2352.0,-695.0,-776.0,-342.0,-228.0
2410,-529,-579,1,2358.0,2334.0,-628.0,-695.0,-472.0,-342.0
2503,-440,-654,1,2410.0,2358.0,-529.0,-628.0,-579.0,-472.0
2611,-347,-673,1,2503.0,2410.0,-440.0,-529.0,-654.0,-579.0
2715,-271,-651,1,2611.0,2503.0,-347.0,-440.0,-673.0,-654.0
2793,-157,-580,1,2715.0,2611.0,-271.0,-347.0,-651.0,-673.0
2856,-46,-482,1,2793.0,2715.0,-157.0,-271.0,-580.0,-651.0
2865,43,-420,1,2856.0,2793.0,-46.0,-157.0,-482.0,-580.0
2794,129,-419,1,2865.0,2856.0,43.0,-46.0,-420.0,-482.0
2623,256,-490,1,2794.0,2865.0,129.0,43.0,-419.0,-420.0
2411,457,-620,1,2623.0,2794.0,256.0,129.0,-490.0,-419.0
2253,759,-718,1,2411.0,2623.0,457.0,256.0,-620.0,-490.0
2188,1142,-774,1,2253.0,2411.0,759.0,457.0,-718.0,-620.0
2249,1572,-806,1,2188.0,2253.0,1142.0,759.0,-774.0,-718.0
2428,2064,-792,1,2249.0,2188.0,1572.0,1142.0,-806.0,-774.0
2741,2512,-818,1,2428.0,2249.0,2064.0,1572.0,-792.0,-806.0
3164,2972,-786,1,2741.0,2428.0,2512.0,2064.0,-818.0,-792.0
3657,3452,-588,1,3164.0,2741.0,2972.0,2512.0,-786.0,-818.0
4158,3849,-279,1,3657.0,3164.0,3452.0,2972.0,-588.0,-786.0
4604,4164,20,1,4158.0,3657.0,3849.0,3452.0,-279.0,-588.0
5057,4369,312,1,4604.0,4158.0,4164.0,3849.0,20.0,-279.0
5515,4462,514,1,5057.0,4604.0,4369.0,4164.0,312.0,20.0
6021,4329,637,1,5515.0,5057.0,4462.0,4369.0,514.0,312.0
6543,3981,675,1,6021.0,5515.0,4329.0,4462.0,637.0,514.0
6921,3401,614,1,6543.0,6021.0,3981.0,4329.0,675.0,637.0
6805,2859,418,1,6921.0,6543.0,3401.0,3981.0,614.0,675.0
6406,2547,400,1,6805.0,6921.0,2859.0,3401.0,418.0,614.0
6075,2236,438,1,6406.0,6805.0,2547.0,2859.0,400.0,418.0
5786,1938,441,1,6075.0,6406.0,2236.0,2547.0,438.0,400.0
5569,1791,381,1,5786.0,6075.0,1938.0,2236.0,441.0,438.0
5442,1706,267,1,5569.0,5786.0,1791.0,1938.0,381.0,441.0
5400,1669,85,1,5442.0,5569.0,1706.0,1791.0,267.0,381.0
5482,1733,-132,1,5400.0,5442.0,1669.0,1706.0,85.0,267.0
5695,1805,-382,1,5482.0,5400.0,1733.0,1669.0,-132.0,85.0
6030,1901,-614,1,5695.0,5482.0,1805.0,1733.0,-382.0,-132.0
6279,1905,-866,1,6030.0,5695.0,1901.0,1805.0,-614.0,-382.0
6682,2084,-971,1,6279.0,6030.0,1905.0,1901.0,-866.0,-614.0
6913,2061,-1103,1,6682.0,6279.0,2084.0,1905.0,-971.0,-866.0
7097,2154,-1103,1,6913.0,6682.0,2061.0,2084.0,-1103.0,-971.0
7189,2169,-1073,1,7097.0,6913.0,2154.0,2061.0,-1103.0,-1103.0
7193,2135,-1028,1,7189.0,7097.0,2169.0,2154.0,-1073.0,-1103.0
7206,2086,-989,1,7193.0,7189.0,2135.0,2169.0,-1028.0,-1073.0
7140,1942,-1076,1,7206.0,7193.0,2086.0,2135.0,-989.0,-1028.0
6953,1884,-1123,1,7140.0,7206.0,1942.0,2086.0,-1076.0,-989.0
6667,2193,-933,1,6953.0,7140.0,1884.0,1942.0,-1123.0,-1076.0
6342,2174,-858,1,6667.0,6953.0,2193.0,1884.0,-933.0,-1123.0
5786,2395,-744,1,6342.0,6667.0,2174.0,2193.0,-858.0,-933.0
5277,2613,-632,1,5786.0,6342.0,2395.0,2174.0,-744.0,-858.0
4885,2695,-543,1,5277.0,5786.0,2613.0,2395.0,-632.0,-744.0
4636,2693,-489,1,4885.0,5277.0,2695.0,2613.0,-543.0,-632.0
4419,2660,-433,1,4636.0,4885.0,2693.0,2695.0,-489.0,-543.0
4224,2593,-342,1,4419.0,4636.0,2660.0,2693.0,-433.0,-489.0
4064,2513,-247,1,4224.0,4419.0,2593.0,2660.0,-342.0,-433.0
3918,2224,-236,1,4064.0,4224.0,2513.0,2593.0,-247.0,-342.0
3820,1916,-237,1,3918.0,4064.0,2224.0,2513.0,-236.0,-247.0
3712,1678,-231,1,3820.0,3918.0,1916.0,2224.0,-237.0,-236.0
3533,1459,-254,1,3712.0,3820.0,1678.0,1916.0,-231.0,-237.0
3294,1422,-187,1,3533.0,3712.0,1459.0,1678.0,-254.0,-231.0
3083,1393,-75,1,3294.0,3533.0,1422.0,1459.0,-187.0,-254.0
2883,1250,-78,1,3083.0,3294.0,1393.0,1422.0,-75.0,-187.0
2772,1048,-85,1,2883.0,3083.0,1250.0,1393.0,-78.0,-75.0
