accelerometer_x,accelerometer_y,accelerometer_z,fall,x_lag_1,x_lag_2,y_lag_1,y_lag_2,z_lag_1,z_lag_2
3826,1258,-352,0,,,,,,
3827,1258,-352,0,3826.0,,1258.0,,-352.0,
3824,1253,-351,0,3827.0,3826.0,1258.0,1258.0,-352.0,-352.0
3819,1246,-357,0,3824.0,3827.0,1253.0,1258.0,-351.0,-352.0
3819,1243,-354,0,3819.0,3824.0,1246.0,1253.0,-357.0,-351.0
3817,1241,-350,0,3819.0,3819.0,1243.0,1246.0,-354.0,-357.0
3816,1237,-353,0,3817.0,3819.0,1241.0,1243.0,-350.0,-354.0
3813,1241,-351,0,3816.0,3817.0,1237.0,1241.0,-353.0,-350.0
3810,1240,-351,0,3813.0,3816.0,1241.0,1237.0,-351.0,-353.0
3805,1240,-347,0,3810.0,3813.0,1240.0,1241.0,-351.0,-351.0
3804,1242,-344,0,3805.0,3810.0,1240.0,1240.0,-347.0,-351.0
3799,1241,-346,0,3804.0,3805.0,1242.0,1240.0,-344.0,-347.0
3800,1240,-347,0,3799.0,3804.0,1241.0,1242.0,-346.0,-344.0
3799,1239,-347,0,3800.0,3799.0,1240.0,1241.0,-347.0,-346.0
3802,1236,-350,0,3799.0,3800.0,1239.0,1240.0,-347.0,-347.0
3805,1236,-350,0,3802.0,3799.0,1236.0,1239.0,-350.0,-347.0
3808,1240,-352,0,3805.0,3802.0,1236.0,1236.0,-350.0,-350.0
3814,1242,-358,0,3808.0,3805.0,1240.0,1236.0,-352.0,-350.0
3819,1243,-357,0,3814.0,3808.0,1242.0,1240.0,-358.0,-352.0
3822,1241,-354,0,3819.0,3814.0,1243.0,1242.0,-357.0,-358.0
3828,1241,-353,0,3822.0,3819.0,1241.0,1243.0,-354.0,-357.0
3836,1240,-350,0,3828.0,3822.0,1241.0,1241.0,-353.0,-354.0
3843,1243,-348,0,3836.0,3828.0,1240.0,1241.0,-350.0,-353.0
3842,1240,-345,0,3843.0,3836.0,1243.0,1240.0,-348.0,-350.0
3843,1239,-338,0,3842.0,3843.0,1240.0,1243.0,-345.0,-348.0
3841,1238,-335,0,3843.0,3842.0,1239.0,1240.0,-338.0,-345.0
3837,1238,-337,0,3841.0,3843.0,1238.0,1239.0,-335.0,-338.0
3833,1238,-344,0,3837.0,3841.0,1238.0,1238.0,-337.0,-335.0
3830,1240,-351,0,3833.0,3837.0,1238.0,1238.0,-344.0,-337.0
3826,1242,-356,0,3830.0,3833.0,1240.0,1238.0,-351.0,-344.0
3823,1240,-362,0,3826.0,3830.0,1242.0,1240.0,-356.0,-351.0
3818,1237,-368,0,3823.0,3826.0,1240.0,1242.0,-362.0,-356.0
3817,1231,-374,0,3818.0,3823.0,1237.0,1240.0,-368.0,-362.0
3820,1232,-377,0,3817.0,3818.0,1231.0,1237.0,-374.0,-368.0
3824,1232,-377,0,3820.0,3817.0,1232.0,1231.0,-377.0,-374.0
3833,1229,-365,0,3824.0,3820.0,1232.0,1232.0,-377.0,-377.0
3845,1224,-352,0,3833.0,3824.0,1229.0,1232.0,-365.0,-377.0
3857,1223,-341,0,3845.0,3833.0,1224.0,1229.0,-352.0,-365.0
3866,1218,-331,0,3857.0,3845.0,1223.0,1224.0,-341.0,-352.0
3861,1219,-333,0,3866.0,3857.0,1218.0,1223.0,-331.0,-341.0
3858,1225,-332,0,3861.0,3866.0,1219.0,1218.0,-333.0,-331.0
3851,1233,-331,0,3858.0,3861.0,1225.0,1219.0,-332.0,-333.0
3840,1235,-331,0,3851.0,3858.0,1233.0,1225.0,-331.0,-332.0
3830,1241,-326,0,3840.0,3851.0,1235.0,1233.0,-331.0,-331.0
3820,1242,-327,0,3830.0,3840.0,1241.0,1235.0,-326.0,-331.0
3807,1239,-330,0,3820.0,3830.0,1242.0,1241.0,-327.0,-326.0
3800,1234,-332,0,3807.0,3820.0,1239.0,1242.0,-330.0,-327.0
3796,1228,-326,0,3800.0,3807.0,1234.0,1239.0,-332.0,-330.0
3793,1229,-329,0,3796.0,3800.0,1228.0,1234.0,-326.0,-332.0
3794,1227,-328,0,3793.0,3796.0,1229.0,1228.0,-329.0,-326.0
3799,1226,-324,0,3794.0,3793.0,1227.0,1229.0,-328.0,-329.0
3804,1222,-320,0,3799.0,3794.0,1226.0,1227.0,-324.0,-328.0
3812,1220,-322,0,3804.0,3799.0,1222.0,1226.0,-320.0,-324.0
3816,1221,-326,0,3812.0,3804.0,1220.0,1222.0,-322.0,-320.0
3817,1223,-329,0,3816.0,3812.0,1221.0,1220.0,-326.0,-322.0
3817,1226,-333,0,3817.0,3816.0,1223.0,1221.0,-329.0,-326.0
3821,1225,-338,0,3817.0,3817.0,1226.0,1223.0,-333.0,-329.0
3825,1231,-341,0,3821.0,3817.0,1225.0,1226.0,-338.0,-333.0
3832,1231,-346,0,3825.0,3821.0,1231.0,1225.0,-341.0,-338.0
3835,1228,-345,0,3832.0,3825.0,1231.0,1231.0,-346.0,-341.0
3839,1228,-346,0,3835.0,3832.0,1228.0,1231.0,-345.0,-346.0
3842,1226,-347,0,3839.0,3835.0,1228.0,1228.0,-346.0,-345.0
3840,1226,-347,0,3842.0,3839.0,1226.0,1228.0,-347.0,-346.0
3834,1231,-349,0,3840.0,3842.0,1226.0,1226.0,-347.0,-347.0
3825,1239,-351,0,3834.0,3840.0,1231.0,1226.0,-349.0,-347.0
3821,1245,-351,0,3825.0,3834.0,1239.0,1231.0,-351.0,-349.0
3814,1249,-353,0,3821.0,3825.0,1245.0,1239.0,-351.0,-351.0
3811,1252,-349,0,3814.0,3821.0,1249.0,1245.0,-353.0,-351.0
3809,1261,-349,0,3811.0,3814.0,1252.0,1249.0,-349.0,-353.0
3812,1263,-346,0,3809.0,3811.0,1261.0,1252.0,-349.0,-349.0
3816,1270,-345,0,3812.0,3809.0,1263.0,1261.0,-346.0,-349.0
3819,1274,-348,0,3816.0,3812.0,1270.0,1263.0,-345.0,-346.0
3822,1276,-347,0,3819.0,3816.0,1274.0,1270.0,-348.0,-345.0
3823,1276,-345,0,3822.0,3819.0,1276.0,1274.0,-347.0,-348.0
3828,1273,-344,0,3823.0,3822.0,1276.0,1276.0,-345.0,-347.0
3834,1272,-346,0,3828.0,3823.0,1273.0,1276.0,-344.0,-345.0
3835,1268,-346,0,3834.0,3828.0,1272.0,1273.0,-346.0,-344.0
3836,1266,-344,0,3835.0,3834.0,1268.0,1272.0,-346.0,-346.0
3836,1261,-343,0,3836.0,3835.0,1266.0,1268.0,-344.0,-346.0
3837,1257,-337,0,3836.0,3836.0,1261.0,1266.0,-343.0,-344.0
3832,1255,-333,0,3837.0,3836.0,1257.0,1261.0,-337.0,-343.0
3830,1250,-330,0,3832.0,3837.0,1255.0,1257.0,-333.0,-337.0
3827,1247,-330,0,3830.0,3832.0,1250.0,1255.0,-330.0,-333.0
3823,1239,-330,0,3827.0,3830.0,1247.0,1250.0,-330.0,-330.0
3820,1234,-329,0,3823.0,3827.0,1239.0,1247.0,-330.0,-330.0
3816,1229,-328,0,3820.0,3823.0,1234.0,1239.0,-329.0,-330.0
3815,1231,-329,0,3816.0,3820.0,1229.0,1234.0,-328.0,-329.0
3810,1229,-324,0,3815.0,3816.0,1231.0,1229.0,-329.0,-328.0
3808,1232,-320,0,3810.0,3815.0,1229.0,1231.0,-324.0,-329.0
3810,1235,-318,0,3808.0,3810.0,1232.0,1229.0,-320.0,-324.0
3808,1236,-317,0,3810.0,3808.0,1235.0,1232.0,-318.0,-320.0
3806,1236,-316,0,3808.0,3810.0,1236.0,1235.0,-317.0,-318.0
3810,1235,-315,0,3806.0,3808.0,1236.0,1236.0,-316.0,-317.0
3810,1235,-316,0,3810.0,3806.0,1235.0,1236.0,-315.0,-316.0
3815,1233,-321,0,3810.0,3810.0,1235.0,1235.0,-316.0,-315.0
3818,1229,-323,0,3815.0,3810.0,1233.0,1235.0,-321.0,-316.0
3819,1227,-327,0,3818.0,3815.0,1229.0,1233.0,-323.0,-321.0
3825,1225,-330,0,3819.0,3818.0,1227.0,1229.0,-327.0,-323.0
3825,1224,-334,0,3825.0,3819.0,1225.0,1227.0,-330.0,-327.0
3827,1227,-332,0,3825.0,3825.0,1224.0,1225.0,-334.0,-330.0
3830,1227,-325,0,3827.0,3825.0,1227.0,1224.0,-332.0,-334.0
3834,1228,-317,0,3830.0,3827.0,1227.0,1227.0,-325.0,-332.0
3837,1222,-308,0,3834.0,3830.0,1228.0,1227.0,-317.0,-325.0
3843,1223,-304,0,3837.0,3834.0,1222.0,1228.0,-308.0,-317.0
3844,1220,-300,0,3843.0,3837.0,1223.0,1222.0,-304.0,-308.0
3840,1215,-297,0,3844.0,3843.0,1220.0,1223.0,-300.0,-304.0
3835,1216,-299,0,3840.0,3844.0,1215.0,1220.0,-297.0,-300.0
3828,1214,-306,0,3835.0,3840.0,1216.0,1215.0,-299.0,-297.0
3828,1215,-311,0,3828.0,3835.0,1214.0,1216.0,-306.0,-299.0
3829,1214,-316,0,3828.0,3828.0,1215.0,1214.0,-311.0,-306.0
3827,1216,-326,0,3829.0,3828.0,1214.0,1215.0,-316.0,-311.0
3828,1218,-334,0,3827.0,3829.0,1216.0,1214.0,-326.0,-316.0
3826,1217,-344,0,3828.0,3827.0,1218.0,1216.0,-334.0,-326.0
3828,1216,-348,0,3826.0,3828.0,1217.0,1218.0,-344.0,-334.0
3833,1217,-347,0,3828.0,3826.0,1216.0,1217.0,-348.0,-344.0
3841,1215,-338,0,3833.0,3828.0,1217.0,1216.0,-347.0,-348.0
3850,1214,-325,0,3841.0,3833.0,1215.0,1217.0,-338.0,-347.0
3856,1213,-311,0,3850.0,3841.0,1214.0,1215.0,-325.0,-338.0
3856,1211,-298,0,3856.0,3850.0,1213.0,1214.0,-311.0,-325.0
3854,1216,-289,0,3856.0,3856.0,1211.0,1213.0,-298.0,-311.0
3851,1224,-284,0,3854.0,3856.0,1216.0,1211.0,-289.0,-298.0
3847,1227,-283,0,3851.0,3854.0,1224.0,1216.0,-284.0,-289.0
3837,1228,-288,0,3847.0,3851.0,1227.0,1224.0,-283.0,-284.0
3825,1236,-293,0,3837.0,3847.0,1228.0,1227.0,-288.0,-283.0
3817,1231,-291,0,3825.0,3837.0,1236.0,1228.0,-293.0,-288.0
3815,1234,-290,0,3817.0,3825.0,1231.0,1236.0,-291.0,-293.0
3808,1235,-288,0,3815.0,3817.0,1234.0,1231.0,-290.0,-291.0
3805,1238,-285,0,3808.0,3815.0,1235.0,1234.0,-288.0,-290.0
3800,1237,-283,0,3805.0,3808.0,1238.0,1235.0,-285.0,-288.0
3799,1237,-283,0,3800.0,3805.0,1237.0,1238.0,-283.0,-285.0
3798,1240,-277,0,3799.0,3800.0,1237.0,1237.0,-283.0,-283.0
3803,1240,-272,0,3798.0,3799.0,1240.0,1237.0,-277.0,-283.0
3808,1234,-274,0,3803.0,3798.0,1240.0,1240.0,-272.0,-277.0
3809,1236,-279,0,3808.0,3803.0,1234.0,1240.0,-274.0,-272.0
3813,1237,-286,0,3809.0,3808.0,1236.0,1234.0,-279.0,-274.0
3814,1235,-294,0,3813.0,3809.0,1237.0,1236.0,-286.0,-279.0
3821,1241,-296,0,3814.0,3813.0,1235.0,1237.0,-294.0,-286.0
3827,1243,-299,0,3821.0,3814.0,1241.0,1235.0,-296.0,-294.0
3837,1249,-303,0,3827.0,3821.0,1243.0,1241.0,-299.0,-296.0
3841,1249,-303,0,3837.0,3827.0,1249.0,1243.0,-303.0,-299.0
3850,1248,-301,0,3841.0,3837.0,1249.0,1249.0,-303.0,-303.0
3856,1253,-298,0,3850.0,3841.0,1248.0,1249.0,-301.0,-303.0
3855,1256,-297,0,3856.0,3850.0,1253.0,1248.0,-298.0,-301.0
3854,1256,-303,0,3855.0,3856.0,1256.0,1253.0,-297.0,-298.0
3849,1264,-311,0,3854.0,3855.0,1256.0,1256.0,-303.0,-297.0
3843,1268,-318,0,3849.0,3854.0,1264.0,1256.0,-311.0,-303.0
3837,1276,-319,0,3843.0,3849.0,1268.0,1264.0,-318.0,-311.0
3838,1280,-315,0,3837.0,3843.0,1276.0,1268.0,-319.0,-318.0
3843,1283,-309,0,3838.0,3837.0,1280.0,1276.0,-315.0,-319.0
3842,1285,-301,0,3843.0,3838.0,1283.0,1280.0,-309.0,-315.0
3839,1285,-299,0,3842.0,3843.0,1285.0,1283.0,-301.0,-309.0
3837,1290,-299,0,3839.0,3842.0,1285.0,1285.0,-299.0,-301.0
3837,1290,-299,0,3837.0,3839.0,1290.0,1285.0,-299.0,-299.0
3831,1287,-298,0,3837.0,3837.0,1290.0,1290.0,-299.0,-299.0
3837,1288,-288,0,3831.0,3837.0,1287.0,1290.0,-298.0,-299.0
3842,1282,-280,0,3837.0,3831.0,1288.0,1287.0,-288.0,-298.0
3843,1279,-274,0,3842.0,3837.0,1282.0,1288.0,-280.0,-288.0
3844,1272,-278,0,3843.0,3842.0,1279.0,1282.0,-274.0,-280.0
3840,1263,-282,0,3844.0,3843.0,1272.0,1279.0,-278.0,-274.0
3843,1256,-282,0,3840.0,3844.0,1263.0,1272.0,-282.0,-278.0
3837,1246,-281,0,3843.0,3840.0,1256.0,1263.0,-282.0,-282.0
3840,1235,-287,0,3837.0,3843.0,1246.0,1256.0,-281.0,-282.0
3837,1227,-292,0,3840.0,3837.0,1235.0,1246.0,-287.0,-281.0
3830,1224,-301,0,3837.0,3840.0,1227.0,1235.0,-292.0,-287.0
3823,1222,-307,0,3830.0,3837.0,1224.0,1227.0,-301.0,-292.0
3819,1221,-302,0,3823.0,3830.0,1222.0,1224.0,-307.0,-301.0
3815,1220,-299,0,3819.0,3823.0,1221.0,1222.0,-302.0,-307.0
3815,1227,-298,0,3815.0,3819.0,1220.0,1221.0,-299.0,-302.0
3812,1227,-297,0,3815.0,3815.0,1227.0,1220.0,-298.0,-299.0
3810,1228,-292,0,3812.0,3815.0,1227.0,1227.0,-297.0,-298.0
3807,1225,-291,0,3810.0,3812.0,1228.0,1227.0,-292.0,-297.0
3804,1221,-289,0,3807.0,3810.0,1225.0,1228.0,-291.0,-292.0
3806,1216,-285,0,3804.0,3807.0,1221.0,1225.0,-289.0,-291.0
3807,1217,-284,0,3806.0,3804.0,1216.0,1221.0,-285.0,-289.0
3812,1209,-281,0,3807.0,3806.0,1217.0,1216.0,-284.0,-285.0
3811,1206,-278,0,3812.0,3807.0,1209.0,1217.0,-281.0,-284.0
3810,1200,-281,0,3811.0,3812.0,1206.0,1209.0,-278.0,-281.0
3805,1193,-283,0,3810.0,3811.0,1200.0,1206.0,-281.0,-278.0
3808,1191,-289,0,3805.0,3810.0,1193.0,1200.0,-283.0,-281.0
3813,1185,-288,0,3808.0,3805.0,1191.0,1193.0,-289.0,-283.0
3819,1180,-287,0,3813.0,3808.0,1185.0,1191.0,-288.0,-289.0
3829,1171,-280,0,3819.0,3813.0,1180.0,1185.0,-287.0,-288.0
3836,1166,-283,0,3829.0,3819.0,1171.0,1180.0,-280.0,-287.0
3840,1163,-277,0,3836.0,3829.0,1166.0,1171.0,-283.0,-280.0
3843,1163,-275,0,3840.0,3836.0,1163.0,1166.0,-277.0,-283.0
3848,1160,-270,0,3843.0,3840.0,1163.0,1163.0,-275.0,-277.0
3854,1157,-267,0,3848.0,3843.0,1160.0,1163.0,-270.0,-275.0
3849,1156,-270,0,3854.0,3848.0,1157.0,1160.0,-267.0,-270.0
3849,1160,-273,0,3849.0,3854.0,1156.0,1157.0,-270.0,-267.0
3850,1167,-275,0,3849.0,3849.0,1160.0,1156.0,-273.0,-270.0
3848,1168,-281,0,3850.0,3849.0,1167.0,1160.0,-275.0,-273.0
3840,1170,-286,0,3848.0,3850.0,1168.0,1167.0,-281.0,-275.0
3834,1175,-294,0,3840.0,3848.0,1170.0,1168.0,-286.0,-281.0
3830,1177,-299,0,3834.0,3840.0,1175.0,1170.0,-294.0,-286.0
3832,1174,-296,0,3830.0,3834.0,1177.0,1175.0,-299.0,-294.0
3840,1177,-288,0,3832.0,3830.0,1174.0,1177.0,-296.0,-299.0
3851,1170,-273,0,3840.0,3832.0,1177.0,1174.0,-288.0,-296.0
3856,1165,-259,0,3851.0,3840.0,1170.0,1177.0,-273.0,-288.0
3857,1158,-249,0,3856.0,3851.0,1165.0,1170.0,-259.0,-273.0
3856,1154,-242,0,3857.0,3856.0,1158.0,1165.0,-249.0,-259.0
3849,1150,-242,0,3856.0,3857.0,1154.0,1158.0,-242.0,-249.0
3837,1151,-245,0,3849.0,3856.0,1150.0,1154.0,-242.0,-242.0
3828,1156,-249,0,3837.0,3849.0,1151.0,1150.0,-245.0,-242.0
3824,1162,-246,0,3828.0,3837.0,1156.0,1151.0,-249.0,-245.0
3827,1170,-243,0,3824.0,3828.0,1162.0,1156.0,-246.0,-249.0
3824,1171,-244,0,3827.0,3824.0,1170.0,1162.0,-243.0,-246.0
3828,1172,-248,0,3824.0,3827.0,1171.0,1170.0,-244.0,-243.0
3836,1170,-252,0,3828.0,3824.0,1172.0,1171.0,-248.0,-244.0
3844,1171,-252,0,3836.0,3828.0,1170.0,1172.0,-252.0,-248.0
3855,1171,-256,0,3844.0,3836.0,1171.0,1170.0,-252.0,-252.0
3860,1171,-255,0,3855.0,3844.0,1171.0,1171.0,-256.0,-252.0
3862,1170,-256,0,3860.0,3855.0,1171.0,1171.0,-255.0,-256.0
3863,1172,-253,0,3862.0,3860.0,1170.0,1171.0,-256.0,-255.0
3863,1171,-252,0,3863.0,3862.0,1172.0,1170.0,-253.0,-256.0
3860,1170,-254,0,3863.0,3863.0,1171.0,1172.0,-252.0,-253.0
3853,1174,-255,0,3860.0,3863.0,1170.0,1171.0,-254.0,-252.0
3847,1172,-261,0,3853.0,3860.0,1174.0,1170.0,-255.0,-254.0
3838,1174,-262,0,3847.0,3853.0,1172.0,1174.0,-261.0,-255.0
3828,1176,-260,0,3838.0,3847.0,1174.0,1172.0,-262.0,-261.0
3826,1177,-255,0,3828.0,3838.0,1176.0,1174.0,-260.0,-262.0
3827,1179,-251,0,3826.0,3828.0,1177.0,1176.0,-255.0,-260.0
3825,1181,-250,0,3827.0,3826.0,1179.0,1177.0,-251.0,-255.0
3822,1187,-246,0,3825.0,3827.0,1181.0,1179.0,-250.0,-251.0
3821,1191,-252,0,3822.0,3825.0,1187.0,1181.0,-246.0,-250.0
3815,1200,-259,0,3821.0,3822.0,1191.0,1187.0,-252.0,-246.0
3812,1211,-260,0,3815.0,3821.0,1200.0,1191.0,-259.0,-252.0
3813,1217,-259,0,3812.0,3815.0,1211.0,1200.0,-260.0,-259.0
3815,1224,-251,0,3813.0,3812.0,1217.0,1211.0,-259.0,-260.0
3816,1228,-250,0,3815.0,3813.0,1224.0,1217.0,-251.0,-259.0
3822,1232,-252,0,3816.0,3815.0,1228.0,1224.0,-250.0,-251.0
3823,1237,-255,0,3822.0,3816.0,1232.0,1228.0,-252.0,-250.0
3828,1239,-259,0,3823.0,3822.0,1237.0,1232.0,-255.0,-252.0
3833,1244,-258,0,3828.0,3823.0,1239.0,1237.0,-259.0,-255.0
3836,1247,-256,0,3833.0,3828.0,1244.0,1239.0,-258.0,-259.0
3843,1249,-253,0,3836.0,3833.0,1247.0,1244.0,-256.0,-258.0
3847,1241,-250,0,3843.0,3836.0,1249.0,1247.0,-253.0,-256.0
3848,1240,-249,0,3847.0,3843.0,1241.0,1249.0,-250.0,-253.0
3851,1238,-248,0,3848.0,3847.0,1240.0,1241.0,-249.0,-250.0
3849,1235,-244,0,3851.0,3848.0,1238.0,1240.0,-248.0,-249.0
3846,1232,-242,0,3849.0,3851.0,1235.0,1238.0,-244.0,-248.0
3848,1232,-244,0,3846.0,3849.0,1232.0,1235.0,-242.0,-244.0
3840,1228,-243,0,3848.0,3846.0,1232.0,1232.0,-244.0,-242.0
3831,1227,-246,0,3840.0,3848.0,1228.0,1232.0,-243.0,-244.0
3825,1228,-245,0,3831.0,3840.0,1227.0,1228.0,-246.0,-243.0
3820,1225,-246,0,3825.0,3831.0,1228.0,1227.0,-245.0,-246.0
3814,1220,-252,0,3820.0,3825.0,1225.0,1228.0,-246.0,-245.0
3812,1217,-258,0,3814.0,3820.0,1220.0,1225.0,-252.0,-246.0
3810,1216,-261,0,3812.0,3814.0,1217.0,1220.0,-258.0,-252.0
3809,1213,-261,0,3810.0,3812.0,1216.0,1217.0,-261.0,-258.0
3805,1211,-263,0,3809.0,3810.0,1213.0,1216.0,-261.0,-261.0
3806,1210,-266,0,3805.0,3809.0,1211.0,1213.0,-263.0,-261.0
3807,1213,-267,0,3806.0,3805.0,1210.0,1211.0,-266.0,-263.0
3809,1222,-268,0,3807.0,3806.0,1213.0,1210.0,-267.0,-266.0
3812,1232,-269,0,3809.0,3807.0,1222.0,1213.0,-268.0,-267.0
3816,1237,-267,0,3812.0,3809.0,1232.0,1222.0,-269.0,-268.0
3821,1247,-265,0,3816.0,3812.0,1237.0,1232.0,-267.0,-269.0
3830,1255,-266,0,3821.0,3816.0,1247.0,1237.0,-265.0,-267.0
3831,1261,-269,0,3830.0,3821.0,1255.0,1247.0,-266.0,-265.0
3829,1271,-277,0,3831.0,3830.0,1261.0,1255.0,-269.0,-266.0
3827,1274,-282,0,3829.0,3831.0,1271.0,1261.0,-277.0,-269.0
3834,1279,-280,0,3827.0,3829.0,1274.0,1271.0,-282.0,-277.0
3841,1282,-270,0,3834.0,3827.0,1279.0,1274.0,-280.0,-282.0
3845,1284,-259,0,3841.0,3834.0,1282.0,1279.0,-270.0,-280.0
3848,1281,-260,0,3845.0,3841.0,1284.0,1282.0,-259.0,-270.0
3845,1274,-262,0,3848.0,3845.0,1281.0,1284.0,-260.0,-259.0
3839,1267,-263,0,3845.0,3848.0,1274.0,1281.0,-262.0,-260.0
3834,1259,-268,0,3839.0,3845.0,1267.0,1274.0,-263.0,-262.0
3834,1252,-275,0,3834.0,3839.0,1259.0,1267.0,-268.0,-263.0
3836,1242,-282,0,3834.0,3834.0,1252.0,1259.0,-275.0,-268.0
3840,1232,-290,0,3836.0,3834.0,1242.0,1252.0,-282.0,-275.0
3840,1229,-305,0,3840.0,3836.0,1232.0,1242.0,-290.0,-282.0
3840,1225,-319,0,3840.0,3840.0,1229.0,1232.0,-305.0,-290.0
3841,1223,-333,0,3840.0,3840.0,1225.0,1229.0,-319.0,-305.0
3842,1222,-339,0,3841.0,3840.0,1223.0,1225.0,-333.0,-319.0
3847,1218,-338,0,3842.0,3841.0,1222.0,1223.0,-339.0,-333.0
3853,1216,-326,0,3847.0,3842.0,1218.0,1222.0,-338.0,-339.0
3865,1206,-311,0,3853.0,3847.0,1216.0,1218.0,-326.0,-338.0
3877,1203,-295,0,3865.0,3853.0,1206.0,1216.0,-311.0,-326.0
3882,1193,-286,0,3877.0,3865.0,1203.0,1206.0,-295.0,-311.0
3879,1185,-275,0,3882.0,3877.0,1193.0,1203.0,-286.0,-295.0
3873,1180,-272,0,3879.0,3882.0,1185.0,1193.0,-275.0,-286.0
3861,1177,-272,0,3873.0,3879.0,1180.0,1185.0,-272.0,-275.0
3847,1175,-276,0,3861.0,3873.0,1177.0,1180.0,-272.0,-272.0
3837,1173,-274,0,3847.0,3861.0,1175.0,1177.0,-276.0,-272.0
3831,1171,-267,0,3837.0,3847.0,1173.0,1175.0,-274.0,-276.0
3826,1166,-266,0,3831.0,3837.0,1171.0,1173.0,-267.0,-274.0
3821,1161,-270,0,3826.0,3831.0,1166.0,1171.0,-266.0,-267.0
3820,1156,-273,0,3821.0,3826.0,1161.0,1166.0,-270.0,-266.0
3815,1154,-269,0,3820.0,3821.0,1156.0,1161.0,-273.0,-270.0
3814,1152,-268,0,3815.0,3820.0,1154.0,1156.0,-269.0,-273.0
3816,1156,-266,0,3814.0,3815.0,1152.0,1154.0,-268.0,-269.0
3818,1162,-267,0,3816.0,3814.0,1156.0,1152.0,-266.0,-268.0
3819,1168,-268,0,3818.0,3816.0,1162.0,1156.0,-267.0,-266.0
3825,1172,-276,0,3819.0,3818.0,1168.0,1162.0,-268.0,-267.0
3832,1182,-277,0,3825.0,3819.0,1172.0,1168.0,-276.0,-268.0
3838,1189,-284,0,3832.0,3825.0,1182.0,1172.0,-277.0,-276.0
3843,1195,-294,0,3838.0,3832.0,1189.0,1182.0,-284.0,-277.0
3847,1204,-299,0,3843.0,3838.0,1195.0,1189.0,-294.0,-284.0
3856,1213,-301,0,3847.0,3843.0,1204.0,1195.0,-299.0,-294.0
3860,1219,-306,0,3856.0,3847.0,1213.0,1204.0,-301.0,-299.0
3859,1222,-306,0,3860.0,3856.0,1219.0,1213.0,-306.0,-301.0
3859,1222,-305,0,3859.0,3860.0,1222.0,1219.0,-306.0,-306.0
3856,1226,-301,0,3859.0,3859.0,1222.0,1222.0,-305.0,-306.0
3851,1226,-295,0,3856.0,3859.0,1226.0,1222.0,-301.0,-305.0
3841,1229,-294,0,3851.0,3856.0,1226.0,1226.0,-295.0,-301.0
3832,1232,-293,0,3841.0,3851.0,1229.0,1226.0,-294.0,-295.0
3825,1231,-289,0,3832.0,3841.0,1232.0,1229.0,-293.0,-294.0
3820,1230,-288,0,3825.0,3832.0,1231.0,1232.0,-289.0,-293.0
3815,1233,-288,0,3820.0,3825.0,1230.0,1231.0,-288.0,-289.0
3810,1232,-288,0,3815.0,3820.0,1233.0,1230.0,-288.0,-288.0
3810,1233,-283,0,3810.0,3815.0,1232.0,1233.0,-288.0,-288.0
3810,1235,-281,0,3810.0,3810.0,1233.0,1232.0,-283.0,-288.0
3813,1235,-280,0,3810.0,3810.0,1235.0,1233.0,-281.0,-283.0
3820,1238,-280,0,3813.0,3810.0,1235.0,1235.0,-280.0,-281.0
3824,1242,-279,0,3820.0,3813.0,1238.0,1235.0,-280.0,-280.0
3827,1244,-277,0,3824.0,3820.0,1242.0,1238.0,-279.0,-280.0
3826,1243,-278,0,3827.0,3824.0,1244.0,1242.0,-277.0,-279.0
3826,1245,-280,0,3826.0,3827.0,1243.0,1244.0,-278.0,-277.0
3824,1248,-283,0,3826.0,3826.0,1245.0,1243.0,-280.0,-278.0
3825,1250,-282,0,3824.0,3826.0,1248.0,1245.0,-283.0,-280.0
3830,1250,-278,0,3825.0,3824.0,1250.0,1248.0,-282.0,-283.0
3827,1253,-273,0,3830.0,3825.0,1250.0,1250.0,-278.0,-282.0
3829,1253,-271,0,3827.0,3830.0,1253.0,1250.0,-273.0,-278.0
3824,1253,-267,0,3829.0,3827.0,1253.0,1253.0,-271.0,-273.0
3821,1250,-265,0,3824.0,3829.0,1253.0,1253.0,-267.0,-271.0
3817,1249,-263,0,3821.0,3824.0,1250.0,1253.0,-265.0,-267.0
3817,1249,-265,0,3817.0,3821.0,1249.0,1250.0,-263.0,-265.0
3818,1251,-268,0,3817.0,3817.0,1249.0,1249.0,-265.0,-263.0
3815,1251,-267,0,3818.0,3817.0,1251.0,1249.0,-268.0,-265.0
3813,1253,-263,0,3815.0,3818.0,1251.0,1251.0,-267.0,-268.0
3804,1258,-263,0,3813.0,3815.0,1253.0,1251.0,-263.0,-267.0
3803,1266,-263,0,3804.0,3813.0,1258.0,1253.0,-263.0,-263.0
3804,1271,-265,0,3803.0,3804.0,1266.0,1258.0,-263.0,-263.0
3801,1274,-271,0,3804.0,3803.0,1271.0,1266.0,-265.0,-263.0
3806,1276,-273,0,3801.0,3804.0,1274.0,1271.0,-271.0,-265.0
3812,1279,-275,0,3806.0,3801.0,1276.0,1274.0,-273.0,-271.0
3817,1280,-274,0,3812.0,3806.0,1279.0,1276.0,-275.0,-273.0
3819,1283,-277,0,3817.0,3812.0,1280.0,1279.0,-274.0,-275.0
3826,1283,-283,0,3819.0,3817.0,1283.0,1280.0,-277.0,-274.0
3829,1283,-284,0,3826.0,3819.0,1283.0,1283.0,-283.0,-277.0
3835,1285,-281,0,3829.0,3826.0,1283.0,1283.0,-284.0,-283.0
3839,1283,-277,0,3835.0,3829.0,1285.0,1283.0,-281.0,-284.0
3843,1282,-269,0,3839.0,3835.0,1283.0,1285.0,-277.0,-281.0
3845,1276,-266,0,3843.0,3839.0,1282.0,1283.0,-269.0,-277.0
3844,1271,-262,0,3845.0,3843.0,1276.0,1282.0,-266.0,-269.0
3843,1262,-260,0,3844.0,3845.0,1271.0,1276.0,-262.0,-266.0
3842,1257,-258,0,3843.0,3844.0,1262.0,1271.0,-260.0,-262.0
3840,1249,-257,0,3842.0,3843.0,1257.0,1262.0,-258.0,-260.0
3831,1248,-263,0,3840.0,3842.0,1249.0,1257.0,-257.0,-258.0
3824,1247,-265,0,3831.0,3840.0,1248.0,1249.0,-263.0,-257.0
3820,1249,-270,0,3824.0,3831.0,1247.0,1248.0,-265.0,-263.0
3811,1251,-280,0,3820.0,3824.0,1249.0,1247.0,-270.0,-265.0
3802,1250,-293,0,3811.0,3820.0,1251.0,1249.0,-280.0,-270.0
3794,1249,-306,0,3802.0,3811.0,1250.0,1251.0,-293.0,-280.0
3794,1246,-312,0,3794.0,3802.0,1249.0,1250.0,-306.0,-293.0
3794,1245,-312,0,3794.0,3794.0,1246.0,1249.0,-312.0,-306.0
3808,1245,-299,0,3794.0,3794.0,1245.0,1246.0,-312.0,-312.0
3821,1244,-280,0,3808.0,3794.0,1245.0,1245.0,-299.0,-312.0
3836,1246,-262,0,3821.0,3808.0,1244.0,1245.0,-280.0,-299.0
3845,1246,-252,0,3836.0,3821.0,1246.0,1244.0,-262.0,-280.0
3850,1246,-249,0,3845.0,3836.0,1246.0,1246.0,-252.0,-262.0
3843,1246,-253,0,3850.0,3845.0,1246.0,1246.0,-249.0,-252.0
3842,1247,-256,0,3843.0,3850.0,1246.0,1246.0,-253.0,-249.0
3835,1249,-255,0,3842.0,3843.0,1247.0,1246.0,-256.0,-253.0
3832,1250,-254,0,3835.0,3842.0,1249.0,1247.0,-255.0,-256.0
3831,1250,-248,0,3832.0,3835.0,1250.0,1249.0,-254.0,-255.0
3833,1251,-246,0,3831.0,3832.0,1250.0,1250.0,-248.0,-254.0
3831,1248,-247,0,3833.0,3831.0,1251.0,1250.0,-246.0,-248.0
3827,1243,-249,0,3831.0,3833.0,1248.0,1251.0,-247.0,-246.0
3821,1247,-247,0,3827.0,3831.0,1243.0,1248.0,-249.0,-247.0
3819,1251,-246,0,3821.0,3827.0,1247.0,1243.0,-247.0,-249.0
3818,1253,-243,0,3819.0,3821.0,1251.0,1247.0,-246.0,-247.0
3815,1256,-242,0,3818.0,3819.0,1253.0,1251.0,-243.0,-246.0
3814,1253,-244,0,3815.0,3818.0,1256.0,1253.0,-242.0,-243.0
3813,1248,-250,0,3814.0,3815.0,1253.0,1256.0,-244.0,-242.0
3812,1244,-254,0,3813.0,3814.0,1248.0,1253.0,-250.0,-244.0
3815,1246,-263,0,3812.0,3813.0,1244.0,1248.0,-254.0,-250.0
3820,1249,-266,0,3815.0,3812.0,1246.0,1244.0,-263.0,-254.0
3824,1250,-268,0,3820.0,3815.0,1249.0,1246.0,-266.0,-263.0
3832,1252,-272,0,3824.0,3820.0,1250.0,1249.0,-268.0,-266.0
3837,1254,-273,0,3832.0,3824.0,1252.0,1250.0,-272.0,-268.0
3839,1255,-275,0,3837.0,3832.0,1254.0,1252.0,-273.0,-272.0
3840,1252,-273,0,3839.0,3837.0,1255.0,1254.0,-275.0,-273.0
3844,1256,-279,0,3840.0,3839.0,1252.0,1255.0,-273.0,-275.0
3840,1258,-281,0,3844.0,3840.0,1256.0,1252.0,-279.0,-273.0
3833,1257,-282,0,3840.0,3844.0,1258.0,1256.0,-281.0,-279.0
3829,1264,-279,0,3833.0,3840.0,1257.0,1258.0,-282.0,-281.0
3826,1268,-271,0,3829.0,3833.0,1264.0,1257.0,-279.0,-282.0
3828,1273,-273,0,3826.0,3829.0,1268.0,1264.0,-271.0,-279.0
3827,1272,-271,0,3828.0,3826.0,1273.0,1268.0,-273.0,-271.0
3830,1272,-266,0,3827.0,3828.0,1272.0,1273.0,-271.0,-273.0
3831,1274,-264,0,3830.0,3827.0,1272.0,1272.0,-266.0,-271.0
3834,1269,-268,0,3831.0,3830.0,1274.0,1272.0,-264.0,-266.0
3838,1267,-265,0,3834.0,3831.0,1269.0,1274.0,-268.0,-264.0
3839,1266,-264,0,3838.0,3834.0,1267.0,1269.0,-265.0,-268.0
3839,1265,-256,0,3839.0,3838.0,1266.0,1267.0,-264.0,-265.0
3837,1262,-255,0,3839.0,3839.0,1265.0,1266.0,-256.0,-264.0
3836,1257,-251,0,3837.0,3839.0,1262.0,1265.0,-255.0,-256.0
3835,1253,-250,0,3836.0,3837.0,1257.0,1262.0,-251.0,-255.0
3829,1255,-253,0,3835.0,3836.0,1253.0,1257.0,-250.0,-251.0
3822,1253,-255,0,3829.0,3835.0,1255.0,1253.0,-253.0,-250.0
3820,1246,-251,0,3822.0,3829.0,1253.0,1255.0,-255.0,-253.0
3821,1247,-248,0,3820.0,3822.0,1246.0,1253.0,-251.0,-255.0
3820,1247,-247,0,3821.0,3820.0,1247.0,1246.0,-248.0,-251.0
3817,1246,-246,0,3820.0,3821.0,1247.0,1247.0,-247.0,-248.0
3814,1240,-246,0,3817.0,3820.0,1246.0,1247.0,-246.0,-247.0
3811,1240,-244,0,3814.0,3817.0,1240.0,1246.0,-246.0,-246.0
3807,1229,-245,0,3811.0,3814.0,1240.0,1240.0,-244.0,-246.0
3806,1224,-244,0,3807.0,3811.0,1229.0,1240.0,-245.0,-244.0
3808,1222,-246,0,3806.0,3807.0,1224.0,1229.0,-244.0,-245.0
3810,1216,-243,0,3808.0,3806.0,1222.0,1224.0,-246.0,-244.0
3814,1215,-242,0,3810.0,3808.0,1216.0,1222.0,-243.0,-246.0
3816,1211,-244,0,3814.0,3810.0,1215.0,1216.0,-242.0,-243.0
3816,1206,-245,0,3816.0,3814.0,1211.0,1215.0,-244.0,-242.0
3819,1206,-247,0,3816.0,3816.0,1206.0,1211.0,-245.0,-244.0
3824,1205,-244,0,3819.0,3816.0,1206.0,1206.0,-247.0,-245.0
3827,1204,-248,0,3824.0,3819.0,1205.0,1206.0,-244.0,-247.0
3832,1205,-253,0,3827.0,3824.0,1204.0,1205.0,-248.0,-244.0
3839,1205,-258,0,3832.0,3827.0,1205.0,1204.0,-253.0,-248.0
3844,1207,-255,0,3839.0,3832.0,1205.0,1205.0,-258.0,-253.0
3845,1208,-260,0,3844.0,3839.0,1207.0,1205.0,-255.0,-258.0
3851,1208,-258,0,3845.0,3844.0,1208.0,1207.0,-260.0,-255.0
3853,1211,-255,0,3851.0,3845.0,1208.0,1208.0,-258.0,-260.0
3858,1209,-249,0,3853.0,3851.0,1211.0,1208.0,-255.0,-258.0
3862,1210,-243,0,3858.0,3853.0,1209.0,1211.0,-249.0,-255.0
3863,1210,-241,0,3862.0,3858.0,1210.0,1209.0,-243.0,-249.0
3862,1211,-243,0,3863.0,3862.0,1210.0,1210.0,-241.0,-243.0
3857,1211,-242,0,3862.0,3863.0,1211.0,1210.0,-243.0,-241.0
3856,1212,-245,0,3857.0,3862.0,1211.0,1211.0,-242.0,-243.0
3850,1215,-247,0,3856.0,3857.0,1212.0,1211.0,-245.0,-242.0
3841,1219,-252,0,3850.0,3856.0,1215.0,1212.0,-247.0,-245.0
3837,1219,-253,0,3841.0,3850.0,1219.0,1215.0,-252.0,-247.0
3831,1220,-258,0,3837.0,3841.0,1219.0,1219.0,-253.0,-252.0
3826,1220,-265,0,3831.0,3837.0,1220.0,1219.0,-258.0,-253.0
3822,1216,-272,0,3826.0,3831.0,1220.0,1220.0,-265.0,-258.0
3820,1213,-273,0,3822.0,3826.0,1216.0,1220.0,-272.0,-265.0
3823,1208,-266,0,3820.0,3822.0,1213.0,1216.0,-273.0,-272.0
3833,1203,-256,0,3823.0,3820.0,1208.0,1213.0,-266.0,-273.0
3842,1199,-243,0,3833.0,3823.0,1203.0,1208.0,-256.0,-266.0
3849,1195,-231,0,3842.0,3833.0,1199.0,1203.0,-243.0,-256.0
3851,1194,-226,0,3849.0,3842.0,1195.0,1199.0,-231.0,-243.0
3851,1194,-220,0,3851.0,3849.0,1194.0,1195.0,-226.0,-231.0
3844,1200,-222,0,3851.0,3851.0,1194.0,1194.0,-220.0,-226.0
3833,1204,-227,0,3844.0,3851.0,1200.0,1194.0,-222.0,-220.0
3827,1211,-232,0,3833.0,3844.0,1204.0,1200.0,-227.0,-222.0
3821,1217,-228,0,3827.0,3833.0,1211.0,1204.0,-232.0,-227.0
3818,1221,-226,0,3821.0,3827.0,1217.0,1211.0,-228.0,-232.0
3813,1224,-230,0,3818.0,3821.0,1221.0,1217.0,-226.0,-228.0
3804,1224,-232,0,3813.0,3818.0,1224.0,1221.0,-230.0,-226.0
3800,1226,-235,0,3804.0,3813.0,1224.0,1224.0,-232.0,-230.0
3802,1229,-228,0,3800.0,3804.0,1226.0,1224.0,-235.0,-232.0
3805,1232,-222,0,3802.0,3800.0,1229.0,1226.0,-228.0,-235.0
3807,1240,-223,0,3805.0,3802.0,1232.0,1229.0,-222.0,-228.0
3807,1238,-226,0,3807.0,3805.0,1240.0,1232.0,-223.0,-222.0
3811,1242,-237,0,3807.0,3807.0,1238.0,1240.0,-226.0,-223.0
3814,1240,-245,0,3811.0,3807.0,1242.0,1238.0,-237.0,-226.0
3818,1237,-250,0,3814.0,3811.0,1240.0,1242.0,-245.0,-237.0
3824,1232,-253,0,3818.0,3814.0,1237.0,1240.0,-250.0,-245.0
3835,1231,-254,0,3824.0,3818.0,1232.0,1237.0,-253.0,-250.0
3847,1232,-259,0,3835.0,3824.0,1231.0,1232.0,-254.0,-253.0
3854,1232,-261,0,3847.0,3835.0,1232.0,1231.0,-259.0,-254.0
3864,1234,-260,0,3854.0,3847.0,1232.0,1232.0,-261.0,-259.0
3871,1232,-260,0,3864.0,3854.0,1234.0,1232.0,-260.0,-261.0
3874,1228,-257,0,3871.0,3864.0,1232.0,1234.0,-260.0,-260.0
3872,1224,-261,0,3874.0,3871.0,1228.0,1232.0,-257.0,-260.0
3870,1218,-264,0,3872.0,3874.0,1224.0,1228.0,-261.0,-257.0
3870,1216,-269,0,3870.0,3872.0,1218.0,1224.0,-264.0,-261.0
3858,1212,-269,0,3870.0,3870.0,1216.0,1218.0,-269.0,-264.0
3853,1214,-264,0,3858.0,3870.0,1212.0,1216.0,-269.0,-269.0
3848,1214,-258,0,3853.0,3858.0,1214.0,1212.0,-264.0,-269.0
3845,1212,-258,0,3848.0,3853.0,1214.0,1214.0,-258.0,-264.0
3844,1208,-258,0,3845.0,3848.0,1212.0,1214.0,-258.0,-258.0
3839,1210,-257,0,3844.0,3845.0,1208.0,1212.0,-258.0,-258.0
3834,1211,-255,0,3839.0,3844.0,1210.0,1208.0,-257.0,-258.0
3829,1209,-251,0,3834.0,3839.0,1211.0,1210.0,-255.0,-257.0
3832,1213,-245,0,3829.0,3834.0,1209.0,1211.0,-251.0,-255.0
3834,1210,-241,0,3832.0,3829.0,1213.0,1209.0,-245.0,-251.0
3836,1210,-238,0,3834.0,3832.0,1210.0,1213.0,-241.0,-245.0
3838,1215,-240,0,3836.0,3834.0,1210.0,1210.0,-238.0,-241.0
3837,1218,-239,0,3838.0,3836.0,1215.0,1210.0,-240.0,-238.0
3840,1218,-237,0,3837.0,3838.0,1218.0,1215.0,-239.0,-240.0
3839,1212,-236,0,3840.0,3837.0,1218.0,1218.0,-237.0,-239.0
3839,1214,-236,0,3839.0,3840.0,1212.0,1218.0,-236.0,-237.0
3838,1213,-233,0,3839.0,3839.0,1214.0,1212.0,-236.0,-236.0
3834,1209,-233,0,3838.0,3839.0,1213.0,1214.0,-233.0,-236.0
3836,1207,-234,0,3834.0,3838.0,1209.0,1213.0,-233.0,-233.0
3829,1203,-234,0,3836.0,3834.0,1207.0,1209.0,-234.0,-233.0
3826,1200,-235,0,3829.0,3836.0,1203.0,1207.0,-234.0,-234.0
3826,1200,-236,0,3826.0,3829.0,1200.0,1203.0,-235.0,-234.0
3824,1198,-232,0,3826.0,3826.0,1200.0,1200.0,-236.0,-235.0
3821,1197,-235,0,3824.0,3826.0,1198.0,1200.0,-232.0,-236.0
3820,1196,-235,0,3821.0,3824.0,1197.0,1198.0,-235.0,-232.0
3820,1199,-238,0,3820.0,3821.0,1196.0,1197.0,-235.0,-235.0
3821,1197,-239,0,3820.0,3820.0,1199.0,1196.0,-238.0,-235.0
3824,1197,-238,0,3821.0,3820.0,1197.0,1199.0,-239.0,-238.0
3830,1196,-234,0,3824.0,3821.0,1197.0,1197.0,-238.0,-239.0
3834,1197,-236,0,3830.0,3824.0,1196.0,1197.0,-234.0,-238.0
3838,1192,-232,0,3834.0,3830.0,1197.0,1196.0,-236.0,-234.0
3840,1195,-233,0,3838.0,3834.0,1192.0,1197.0,-232.0,-236.0
3843,1193,-237,0,3840.0,3838.0,1195.0,1192.0,-233.0,-232.0
3844,1192,-241,0,3843.0,3840.0,1193.0,1195.0,-237.0,-233.0
3848,1191,-245,0,3844.0,3843.0,1192.0,1193.0,-241.0,-237.0
3848,1192,-247,0,3848.0,3844.0,1191.0,1192.0,-245.0,-241.0
3851,1191,-243,0,3848.0,3848.0,1192.0,1191.0,-247.0,-245.0
3853,1191,-242,0,3851.0,3848.0,1191.0,1192.0,-243.0,-247.0
3854,1190,-238,0,3853.0,3851.0,1191.0,1191.0,-242.0,-243.0
3856,1188,-233,0,3854.0,3853.0,1190.0,1191.0,-238.0,-242.0
3853,1184,-230,0,3856.0,3854.0,1188.0,1190.0,-233.0,-238.0
3851,1185,-228,0,3853.0,3856.0,1184.0,1188.0,-230.0,-233.0
3844,1185,-233,0,3851.0,3853.0,1185.0,1184.0,-228.0,-230.0
3842,1186,-235,0,3844.0,3851.0,1185.0,1185.0,-233.0,-228.0
3837,1187,-238,0,3842.0,3844.0,1186.0,1185.0,-235.0,-233.0
3834,1188,-236,0,3837.0,3842.0,1187.0,1186.0,-238.0,-235.0
3829,1186,-244,0,3834.0,3837.0,1188.0,1187.0,-236.0,-238.0
3824,1189,-253,0,3829.0,3834.0,1186.0,1188.0,-244.0,-236.0
3824,1190,-259,0,3824.0,3829.0,1189.0,1186.0,-253.0,-244.0
3825,1188,-263,0,3824.0,3824.0,1190.0,1189.0,-259.0,-253.0
3827,1187,-259,0,3825.0,3824.0,1188.0,1190.0,-263.0,-259.0
3833,1182,-255,0,3827.0,3825.0,1187.0,1188.0,-259.0,-263.0
3844,1182,-246,0,3833.0,3827.0,1182.0,1187.0,-255.0,-259.0
3854,1178,-237,0,3844.0,3833.0,1182.0,1182.0,-246.0,-255.0
3862,1176,-227,0,3854.0,3844.0,1178.0,1182.0,-237.0,-246.0
3869,1177,-217,0,3862.0,3854.0,1176.0,1178.0,-227.0,-237.0
3873,1182,-216,0,3869.0,3862.0,1177.0,1176.0,-217.0,-227.0
3876,1188,-216,0,3873.0,3869.0,1182.0,1177.0,-216.0,-217.0
3878,1200,-218,0,3876.0,3873.0,1188.0,1182.0,-216.0,-216.0
3880,1209,-219,0,3878.0,3876.0,1200.0,1188.0,-218.0,-216.0
3878,1213,-220,0,3880.0,3878.0,1209.0,1200.0,-219.0,-218.0
3869,1209,-219,0,3878.0,3880.0,1213.0,1209.0,-220.0,-219.0
3872,1208,-214,0,3869.0,3878.0,1209.0,1213.0,-219.0,-220.0
3869,1206,-209,0,3872.0,3869.0,1208.0,1209.0,-214.0,-219.0
3861,1206,-203,0,3869.0,3872.0,1206.0,1208.0,-209.0,-214.0
3852,1206,-197,0,3861.0,3869.0,1206.0,1206.0,-203.0,-209.0
3839,1206,-193,0,3852.0,3861.0,1206.0,1206.0,-197.0,-203.0
3825,1203,-193,0,3839.0,3852.0,1206.0,1206.0,-193.0,-197.0
3817,1195,-193,0,3825.0,3839.0,1203.0,1206.0,-193.0,-193.0
3808,1188,-196,0,3817.0,3825.0,1195.0,1203.0,-193.0,-193.0
3800,1178,-203,0,3808.0,3817.0,1188.0,1195.0,-196.0,-193.0
3795,1176,-205,0,3800.0,3808.0,1178.0,1188.0,-203.0,-196.0
3795,1174,-209,0,3795.0,3800.0,1176.0,1178.0,-205.0,-203.0
3795,1175,-208,0,3795.0,3795.0,1174.0,1176.0,-209.0,-205.0
3801,1175,-215,0,3795.0,3795.0,1175.0,1174.0,-208.0,-209.0
3812,1178,-216,0,3801.0,3795.0,1175.0,1175.0,-215.0,-208.0
3821,1180,-224,0,3812.0,3801.0,1178.0,1175.0,-216.0,-215.0
3834,1183,-230,0,3821.0,3812.0,1180.0,1178.0,-224.0,-216.0
3843,1183,-238,0,3834.0,3821.0,1183.0,1180.0,-230.0,-224.0
3855,1187,-243,0,3843.0,3834.0,1183.0,1183.0,-238.0,-230.0
3868,1192,-241,0,3855.0,3843.0,1187.0,1183.0,-243.0,-238.0
3873,1195,-248,0,3868.0,3855.0,1192.0,1187.0,-241.0,-243.0
3878,1202,-254,0,3873.0,3868.0,1195.0,1192.0,-248.0,-241.0
3880,1205,-253,0,3878.0,3873.0,1202.0,1195.0,-254.0,-248.0
3881,1206,-251,0,3880.0,3878.0,1205.0,1202.0,-253.0,-254.0
3880,1209,-249,0,3881.0,3880.0,1206.0,1205.0,-251.0,-253.0
3875,1212,-244,0,3880.0,3881.0,1209.0,1206.0,-249.0,-251.0
3869,1214,-237,0,3875.0,3880.0,1212.0,1209.0,-244.0,-249.0
3861,1215,-235,0,3869.0,3875.0,1214.0,1212.0,-237.0,-244.0
3852,1213,-231,0,3861.0,3869.0,1215.0,1214.0,-235.0,-237.0
3842,1215,-231,0,3852.0,3861.0,1213.0,1215.0,-231.0,-235.0
3833,1213,-231,0,3842.0,3852.0,1215.0,1213.0,-231.0,-231.0
3820,1213,-227,0,3833.0,3842.0,1213.0,1215.0,-231.0,-231.0
3817,1213,-223,0,3820.0,3833.0,1213.0,1213.0,-227.0,-231.0
3814,1211,-222,0,3817.0,3820.0,1213.0,1213.0,-223.0,-227.0
3813,1204,-228,0,3814.0,3817.0,1211.0,1213.0,-222.0,-223.0
3812,1206,-236,0,3813.0,3814.0,1204.0,1211.0,-228.0,-222.0
3814,1205,-239,0,3812.0,3813.0,1206.0,1204.0,-236.0,-228.0
3818,1202,-238,0,3814.0,3812.0,1205.0,1206.0,-239.0,-236.0
3826,1200,-236,0,3818.0,3814.0,1202.0,1205.0,-238.0,-239.0
3838,1200,-238,0,3826.0,3818.0,1200.0,1202.0,-236.0,-238.0
3843,1196,-241,0,3838.0,3826.0,1200.0,1200.0,-238.0,-236.0
3847,1190,-243,0,3843.0,3838.0,1196.0,1200.0,-241.0,-238.0
3851,1189,-242,0,3847.0,3843.0,1190.0,1196.0,-243.0,-241.0
3852,1187,-243,0,3851.0,3847.0,1189.0,1190.0,-242.0,-243.0
3854,1185,-244,0,3852.0,3851.0,1187.0,1189.0,-243.0,-242.0
3852,1183,-239,0,3854.0,3852.0,1185.0,1187.0,-244.0,-243.0
3847,1185,-238,0,3852.0,3854.0,1183.0,1185.0,-239.0,-244.0
3844,1187,-234,0,3847.0,3852.0,1185.0,1183.0,-238.0,-239.0
3836,1190,-231,0,3844.0,3847.0,1187.0,1185.0,-234.0,-238.0
3827,1193,-228,0,3836.0,3844.0,1190.0,1187.0,-231.0,-234.0
3822,1199,-228,0,3827.0,3836.0,1193.0,1190.0,-228.0,-231.0
3817,1202,-228,0,3822.0,3827.0,1199.0,1193.0,-228.0,-228.0
3815,1206,-229,0,3817.0,3822.0,1202.0,1199.0,-228.0,-228.0
3819,1206,-228,0,3815.0,3817.0,1206.0,1202.0,-229.0,-228.0
3824,1207,-227,0,3819.0,3815.0,1206.0,1206.0,-228.0,-229.0
3834,1206,-228,0,3824.0,3819.0,1207.0,1206.0,-227.0,-228.0
3840,1206,-227,0,3834.0,3824.0,1206.0,1207.0,-228.0,-227.0
3849,1205,-223,0,3840.0,3834.0,1206.0,1206.0,-227.0,-228.0
3856,1199,-222,0,3849.0,3840.0,1205.0,1206.0,-223.0,-227.0
3864,1194,-221,0,3856.0,3849.0,1199.0,1205.0,-222.0,-223.0
3867,1189,-221,0,3864.0,3856.0,1194.0,1199.0,-221.0,-222.0
3866,1183,-222,0,3867.0,3864.0,1189.0,1194.0,-221.0,-221.0
3858,1177,-223,0,3866.0,3867.0,1183.0,1189.0,-222.0,-221.0
3849,1176,-223,0,3858.0,3866.0,1177.0,1183.0,-223.0,-222.0
3842,1177,-226,0,3849.0,3858.0,1176.0,1177.0,-223.0,-223.0
3831,1176,-230,0,3842.0,3849.0,1177.0,1176.0,-226.0,-223.0
3821,1181,-241,0,3831.0,3842.0,1176.0,1177.0,-230.0,-226.0
3809,1184,-249,0,3821.0,3831.0,1181.0,1176.0,-241.0,-230.0
3807,1184,-254,0,3809.0,3821.0,1184.0,1181.0,-249.0,-241.0
3815,1178,-252,0,3807.0,3809.0,1184.0,1184.0,-254.0,-249.0
3820,1176,-250,0,3815.0,3807.0,1178.0,1184.0,-252.0,-254.0
3836,1181,-246,0,3820.0,3815.0,1176.0,1178.0,-250.0,-252.0
3852,1181,-238,0,3836.0,3820.0,1181.0,1176.0,-246.0,-250.0
3861,1178,-234,0,3852.0,3836.0,1181.0,1181.0,-238.0,-246.0
3870,1176,-227,0,3861.0,3852.0,1178.0,1181.0,-234.0,-238.0
3877,1177,-223,0,3870.0,3861.0,1176.0,1178.0,-227.0,-234.0
3876,1179,-222,0,3877.0,3870.0,1177.0,1176.0,-223.0,-227.0
3874,1181,-227,0,3876.0,3877.0,1179.0,1177.0,-222.0,-223.0
3866,1188,-226,0,3874.0,3876.0,1181.0,1179.0,-227.0,-222.0
3862,1190,-223,0,3866.0,3874.0,1188.0,1181.0,-226.0,-227.0
3855,1191,-222,0,3862.0,3866.0,1190.0,1188.0,-223.0,-226.0
3844,1189,-220,0,3855.0,3862.0,1191.0,1190.0,-222.0,-223.0
3839,1189,-217,0,3844.0,3855.0,1189.0,1191.0,-220.0,-222.0
3836,1192,-207,0,3839.0,3844.0,1189.0,1189.0,-217.0,-220.0
3835,1190,-210,0,3836.0,3839.0,1192.0,1189.0,-207.0,-217.0
3826,1189,-214,0,3835.0,3836.0,1190.0,1192.0,-210.0,-207.0
3822,1187,-214,0,3826.0,3835.0,1189.0,1190.0,-214.0,-210.0
3819,1184,-215,0,3822.0,3826.0,1187.0,1189.0,-214.0,-214.0
3825,1183,-216,0,3819.0,3822.0,1184.0,1187.0,-215.0,-214.0
3828,1180,-219,0,3825.0,3819.0,1183.0,1184.0,-216.0,-215.0
3832,1176,-224,0,3828.0,3825.0,1180.0,1183.0,-219.0,-216.0
3838,1177,-228,0,3832.0,3828.0,1176.0,1180.0,-224.0,-219.0
3848,1177,-232,0,3838.0,3832.0,1177.0,1176.0,-228.0,-224.0
3859,1179,-230,0,3848.0,3838.0,1177.0,1177.0,-232.0,-228.0
3867,1177,-233,0,3859.0,3848.0,1179.0,1177.0,-230.0,-232.0
3873,1171,-238,0,3867.0,3859.0,1177.0,1179.0,-233.0,-230.0
3880,1166,-245,0,3873.0,3867.0,1171.0,1177.0,-238.0,-233.0
3881,1160,-240,0,3880.0,3873.0,1166.0,1171.0,-245.0,-238.0
3879,1157,-238,0,3881.0,3880.0,1160.0,1166.0,-240.0,-245.0
3871,1156,-238,0,3879.0,3881.0,1157.0,1160.0,-238.0,-240.0
3864,1157,-245,0,3871.0,3879.0,1156.0,1157.0,-238.0,-238.0
3851,1160,-244,0,3864.0,3871.0,1157.0,1156.0,-245.0,-238.0
3840,1166,-245,0,3851.0,3864.0,1160.0,1157.0,-244.0,-245.0
3833,1174,-238,0,3840.0,3851.0,1166.0,1160.0,-245.0,-244.0
3827,1176,-236,0,3833.0,3840.0,1174.0,1166.0,-238.0,-245.0
3825,1180,-231,0,3827.0,3833.0,1176.0,1174.0,-236.0,-238.0
3826,1182,-230,0,3825.0,3827.0,1180.0,1176.0,-231.0,-236.0
3828,1182,-230,0,3826.0,3825.0,1182.0,1180.0,-230.0,-231.0
3836,1184,-228,0,3828.0,3826.0,1182.0,1182.0,-230.0,-230.0
3836,1189,-225,0,3836.0,3828.0,1184.0,1182.0,-228.0,-230.0
3835,1193,-224,0,3836.0,3836.0,1189.0,1184.0,-225.0,-228.0
3840,1198,-226,0,3835.0,3836.0,1193.0,1189.0,-224.0,-225.0
3841,1202,-229,0,3840.0,3835.0,1198.0,1193.0,-226.0,-224.0
3847,1205,-233,0,3841.0,3840.0,1202.0,1198.0,-229.0,-226.0
3855,1204,-234,0,3847.0,3841.0,1205.0,1202.0,-233.0,-229.0
3856,1204,-236,0,3855.0,3847.0,1204.0,1205.0,-234.0,-233.0
3857,1204,-236,0,3856.0,3855.0,1204.0,1204.0,-236.0,-234.0
3861,1202,-243,0,3857.0,3856.0,1204.0,1204.0,-236.0,-236.0
3865,1204,-241,0,3861.0,3857.0,1202.0,1204.0,-243.0,-236.0
3868,1204,-239,0,3865.0,3861.0,1204.0,1202.0,-241.0,-243.0
3865,1202,-238,0,3868.0,3865.0,1204.0,1204.0,-239.0,-241.0
3862,1201,-237,0,3865.0,3868.0,1202.0,1204.0,-238.0,-239.0
3857,1196,-233,0,3862.0,3865.0,1201.0,1202.0,-237.0,-238.0
3853,1192,-232,0,3857.0,3862.0,1196.0,1201.0,-233.0,-237.0
3852,1190,-230,0,3853.0,3857.0,1192.0,1196.0,-232.0,-233.0
3850,1188,-229,0,3852.0,3853.0,1190.0,1192.0,-230.0,-232.0
3847,1187,-226,0,3850.0,3852.0,1188.0,1190.0,-229.0,-230.0
3839,1184,-223,0,3847.0,3850.0,1187.0,1188.0,-226.0,-229.0
3834,1182,-223,0,3839.0,3847.0,1184.0,1187.0,-223.0,-226.0
3832,1180,-219,0,3834.0,3839.0,1182.0,1184.0,-223.0,-223.0
3829,1182,-219,0,3832.0,3834.0,1180.0,1182.0,-219.0,-223.0
3826,1179,-216,0,3829.0,3832.0,1182.0,1180.0,-219.0,-219.0
3823,1182,-218,0,3826.0,3829.0,1179.0,1182.0,-216.0,-219.0
3823,1182,-223,0,3823.0,3826.0,1182.0,1179.0,-218.0,-216.0
3823,1182,-225,0,3823.0,3823.0,1182.0,1182.0,-223.0,-218.0
3826,1180,-228,0,3823.0,3823.0,1182.0,1182.0,-225.0,-223.0
3830,1181,-226,0,3826.0,3823.0,1180.0,1182.0,-228.0,-225.0
3839,1181,-222,0,3830.0,3826.0,1181.0,1180.0,-226.0,-228.0
3850,1181,-215,0,3839.0,3830.0,1181.0,1181.0,-222.0,-226.0
3860,1183,-212,0,3850.0,3839.0,1181.0,1181.0,-215.0,-222.0
3869,1182,-208,0,3860.0,3850.0,1183.0,1181.0,-212.0,-215.0
3877,1181,-204,0,3869.0,3860.0,1182.0,1183.0,-208.0,-212.0
3882,1179,-204,0,3877.0,3869.0,1181.0,1182.0,-204.0,-208.0
3879,1180,-207,0,3882.0,3877.0,1179.0,1181.0,-204.0,-204.0
3877,1183,-211,0,3879.0,3882.0,1180.0,1179.0,-207.0,-204.0
3872,1186,-217,0,3877.0,3879.0,1183.0,1180.0,-211.0,-207.0
3869,1184,-225,0,3872.0,3877.0,1186.0,1183.0,-217.0,-211.0
3863,1184,-233,0,3869.0,3872.0,1184.0,1186.0,-225.0,-217.0
3861,1188,-235,0,3863.0,3869.0,1184.0,1184.0,-233.0,-225.0
3857,1187,-239,0,3861.0,3863.0,1188.0,1184.0,-235.0,-233.0
3857,1184,-240,0,3857.0,3861.0,1187.0,1188.0,-239.0,-235.0
3857,1184,-237,0,3857.0,3857.0,1184.0,1187.0,-240.0,-239.0
3860,1180,-230,0,3857.0,3857.0,1184.0,1184.0,-237.0,-240.0
3868,1181,-217,0,3860.0,3857.0,1180.0,1184.0,-230.0,-237.0
3878,1175,-211,0,3868.0,3860.0,1181.0,1180.0,-217.0,-230.0
3881,1173,-206,0,3878.0,3868.0,1175.0,1181.0,-211.0,-217.0
3883,1174,-198,0,3881.0,3878.0,1173.0,1175.0,-206.0,-211.0
3883,1173,-195,0,3883.0,3881.0,1174.0,1173.0,-198.0,-206.0
3885,1181,-193,0,3883.0,3883.0,1173.0,1174.0,-195.0,-198.0
3881,1184,-189,0,3885.0,3883.0,1181.0,1173.0,-193.0,-195.0
3873,1187,-187,0,3881.0,3885.0,1184.0,1181.0,-189.0,-193.0
3870,1192,-190,0,3873.0,3881.0,1187.0,1184.0,-187.0,-189.0
3863,1191,-192,0,3870.0,3873.0,1192.0,1187.0,-190.0,-187.0
3856,1188,-193,0,3863.0,3870.0,1191.0,1192.0,-192.0,-190.0
3852,1186,-190,0,3856.0,3863.0,1188.0,1191.0,-193.0,-192.0
3848,1183,-190,0,3852.0,3856.0,1186.0,1188.0,-190.0,-193.0
3845,1176,-192,0,3848.0,3852.0,1183.0,1186.0,-190.0,-190.0
3834,1173,-191,0,3845.0,3848.0,1176.0,1183.0,-192.0,-190.0
3830,1168,-189,0,3834.0,3845.0,1173.0,1176.0,-191.0,-192.0
3825,1171,-188,0,3830.0,3834.0,1168.0,1173.0,-189.0,-191.0
3823,1170,-185,0,3825.0,3830.0,1171.0,1168.0,-188.0,-189.0
3825,1171,-182,0,3823.0,3825.0,1170.0,1171.0,-185.0,-188.0
3831,1171,-181,0,3825.0,3823.0,1171.0,1170.0,-182.0,-185.0
3834,1171,-180,0,3831.0,3825.0,1171.0,1171.0,-181.0,-182.0
3835,1168,-188,0,3834.0,3831.0,1171.0,1171.0,-180.0,-181.0
3840,1165,-188,0,3835.0,3834.0,1168.0,1171.0,-188.0,-180.0
3844,1161,-189,0,3840.0,3835.0,1165.0,1168.0,-188.0,-188.0
3848,1152,-189,0,3844.0,3840.0,1161.0,1165.0,-189.0,-188.0
3852,1148,-193,0,3848.0,3844.0,1152.0,1161.0,-189.0,-189.0
3852,1148,-197,0,3852.0,3848.0,1148.0,1152.0,-193.0,-189.0
3849,1148,-198,0,3852.0,3852.0,1148.0,1148.0,-197.0,-193.0
3850,1154,-198,0,3849.0,3852.0,1148.0,1148.0,-198.0,-197.0
3846,1156,-196,0,3850.0,3849.0,1154.0,1148.0,-198.0,-198.0
3847,1156,-191,0,3846.0,3850.0,1156.0,1154.0,-196.0,-198.0
3846,1160,-193,0,3847.0,3846.0,1156.0,1156.0,-191.0,-196.0
3843,1163,-193,0,3846.0,3847.0,1160.0,1156.0,-193.0,-191.0
3840,1163,-191,0,3843.0,3846.0,1163.0,1160.0,-193.0,-193.0
3843,1165,-188,0,3840.0,3843.0,1163.0,1163.0,-191.0,-193.0
3841,1166,-182,0,3843.0,3840.0,1165.0,1163.0,-188.0,-191.0
3845,1172,-182,0,3841.0,3843.0,1166.0,1165.0,-182.0,-188.0
3843,1170,-179,0,3845.0,3841.0,1172.0,1166.0,-182.0,-182.0
3844,1173,-178,0,3843.0,3845.0,1170.0,1172.0,-179.0,-182.0
3842,1173,-181,0,3844.0,3843.0,1173.0,1170.0,-178.0,-179.0
3841,1175,-186,0,3842.0,3844.0,1173.0,1173.0,-181.0,-178.0
3837,1175,-187,0,3841.0,3842.0,1175.0,1173.0,-186.0,-181.0
3841,1172,-186,0,3837.0,3841.0,1175.0,1175.0,-187.0,-186.0
3836,1175,-187,0,3841.0,3837.0,1172.0,1175.0,-186.0,-187.0
3833,1176,-190,0,3836.0,3841.0,1175.0,1172.0,-187.0,-186.0
3835,1173,-188,0,3833.0,3836.0,1176.0,1175.0,-190.0,-187.0
3835,1177,-191,0,3835.0,3833.0,1173.0,1176.0,-188.0,-190.0
3835,1178,-191,0,3835.0,3835.0,1177.0,1173.0,-191.0,-188.0
3834,1179,-193,0,3835.0,3835.0,1178.0,1177.0,-191.0,-191.0
3830,1182,-197,0,3834.0,3835.0,1179.0,1178.0,-193.0,-191.0
3834,1187,-195,0,3830.0,3834.0,1182.0,1179.0,-197.0,-193.0
3836,1190,-189,0,3834.0,3830.0,1187.0,1182.0,-195.0,-197.0
3834,1197,-189,0,3836.0,3834.0,1190.0,1187.0,-189.0,-195.0
3831,1199,-187,0,3834.0,3836.0,1197.0,1190.0,-189.0,-189.0
3829,1201,-185,0,3831.0,3834.0,1199.0,1197.0,-187.0,-189.0
3829,1202,-187,0,3829.0,3831.0,1201.0,1199.0,-185.0,-187.0
3829,1202,-190,0,3829.0,3829.0,1202.0,1201.0,-187.0,-185.0
3830,1201,-187,0,3829.0,3829.0,1202.0,1202.0,-190.0,-187.0
3833,1198,-186,0,3830.0,3829.0,1201.0,1202.0,-187.0,-190.0
3837,1198,-183,0,3833.0,3830.0,1198.0,1201.0,-186.0,-187.0
3836,1197,-184,0,3837.0,3833.0,1198.0,1198.0,-183.0,-186.0
3836,1197,-189,0,3836.0,3837.0,1197.0,1198.0,-184.0,-183.0
3840,1196,-188,0,3836.0,3836.0,1197.0,1197.0,-189.0,-184.0
3843,1195,-184,0,3840.0,3836.0,1196.0,1197.0,-188.0,-189.0
3848,1195,-182,0,3843.0,3840.0,1195.0,1196.0,-184.0,-188.0
3856,1197,-176,0,3848.0,3843.0,1195.0,1195.0,-182.0,-184.0
3865,1199,-171,0,3856.0,3848.0,1197.0,1195.0,-176.0,-182.0
3870,1198,-172,0,3865.0,3856.0,1199.0,1197.0,-171.0,-176.0
3866,1197,-172,0,3870.0,3865.0,1198.0,1199.0,-172.0,-171.0
3862,1195,-167,0,3866.0,3870.0,1197.0,1198.0,-172.0,-172.0
3858,1197,-171,0,3862.0,3866.0,1195.0,1197.0,-167.0,-172.0
3854,1202,-170,0,3858.0,3862.0,1197.0,1195.0,-171.0,-167.0
3848,1207,-171,0,3854.0,3858.0,1202.0,1197.0,-170.0,-171.0
3844,1208,-180,0,3848.0,3854.0,1207.0,1202.0,-171.0,-170.0
3834,1212,-188,0,3844.0,3848.0,1208.0,1207.0,-180.0,-171.0
3826,1212,-194,0,3834.0,3844.0,1212.0,1208.0,-188.0,-180.0
3822,1215,-198,0,3826.0,3834.0,1212.0,1212.0,-194.0,-188.0
3820,1211,-205,0,3822.0,3826.0,1215.0,1212.0,-198.0,-194.0
3823,1204,-205,0,3820.0,3822.0,1211.0,1215.0,-205.0,-198.0
3825,1197,-200,0,3823.0,3820.0,1204.0,1211.0,-205.0,-205.0
3836,1194,-189,0,3825.0,3823.0,1197.0,1204.0,-200.0,-205.0
3844,1194,-178,0,3836.0,3825.0,1194.0,1197.0,-189.0,-200.0
3850,1190,-165,0,3844.0,3836.0,1194.0,1194.0,-178.0,-189.0
3854,1191,-161,0,3850.0,3844.0,1190.0,1194.0,-165.0,-178.0
3851,1193,-158,0,3854.0,3850.0,1191.0,1190.0,-161.0,-165.0
3852,1197,-155,0,3851.0,3854.0,1193.0,1191.0,-158.0,-161.0
3847,1203,-152,0,3852.0,3851.0,1197.0,1193.0,-155.0,-158.0
3843,1210,-150,0,3847.0,3852.0,1203.0,1197.0,-152.0,-155.0
3837,1216,-153,0,3843.0,3847.0,1210.0,1203.0,-150.0,-152.0
3831,1216,-155,0,3837.0,3843.0,1216.0,1210.0,-153.0,-150.0
3833,1218,-153,0,3831.0,3837.0,1216.0,1216.0,-155.0,-153.0
3834,1220,-148,0,3833.0,3831.0,1218.0,1216.0,-153.0,-155.0
3838,1222,-144,0,3834.0,3833.0,1220.0,1218.0,-148.0,-153.0
3845,1222,-140,0,3838.0,3834.0,1222.0,1220.0,-144.0,-148.0
3847,1226,-133,0,3845.0,3838.0,1222.0,1222.0,-140.0,-144.0
3849,1228,-128,0,3847.0,3845.0,1226.0,1222.0,-133.0,-140.0
3850,1231,-133,0,3849.0,3847.0,1228.0,1226.0,-128.0,-133.0
3845,1235,-142,0,3850.0,3849.0,1231.0,1228.0,-133.0,-128.0
3841,1232,-150,0,3845.0,3850.0,1235.0,1231.0,-142.0,-133.0
3835,1235,-156,0,3841.0,3845.0,1232.0,1235.0,-150.0,-142.0
3830,1232,-163,0,3835.0,3841.0,1235.0,1232.0,-156.0,-150.0
3829,1230,-166,0,3830.0,3835.0,1232.0,1235.0,-163.0,-156.0
3829,1228,-169,0,3829.0,3830.0,1230.0,1232.0,-166.0,-163.0
3836,1227,-168,0,3829.0,3829.0,1228.0,1230.0,-169.0,-166.0
3841,1225,-163,0,3836.0,3829.0,1227.0,1228.0,-168.0,-169.0
3847,1226,-157,0,3841.0,3836.0,1225.0,1227.0,-163.0,-168.0
3852,1226,-152,0,3847.0,3841.0,1226.0,1225.0,-157.0,-163.0
3851,1226,-152,0,3852.0,3847.0,1226.0,1226.0,-152.0,-157.0
3850,1225,-154,0,3851.0,3852.0,1226.0,1226.0,-152.0,-152.0
3847,1224,-156,0,3850.0,3851.0,1225.0,1226.0,-154.0,-152.0
3843,1224,-161,0,3847.0,3850.0,1224.0,1225.0,-156.0,-154.0
3836,1220,-163,0,3843.0,3847.0,1224.0,1224.0,-161.0,-156.0
3827,1218,-170,0,3836.0,3843.0,1220.0,1224.0,-163.0,-161.0
3823,1215,-174,0,3827.0,3836.0,1218.0,1220.0,-170.0,-163.0
3819,1210,-177,0,3823.0,3827.0,1215.0,1218.0,-174.0,-170.0
3818,1208,-180,0,3819.0,3823.0,1210.0,1215.0,-177.0,-174.0
3818,1204,-176,0,3818.0,3819.0,1208.0,1210.0,-180.0,-177.0
3819,1205,-173,0,3818.0,3818.0,1204.0,1208.0,-176.0,-180.0
3822,1202,-168,0,3819.0,3818.0,1205.0,1204.0,-173.0,-176.0
3821,1199,-165,0,3822.0,3819.0,1202.0,1205.0,-168.0,-173.0
3825,1202,-159,0,3821.0,3822.0,1199.0,1202.0,-165.0,-168.0
3832,1207,-157,0,3825.0,3821.0,1202.0,1199.0,-159.0,-165.0
3833,1213,-154,0,3832.0,3825.0,1207.0,1202.0,-157.0,-159.0
3839,1213,-148,0,3833.0,3832.0,1213.0,1207.0,-154.0,-157.0
3847,1220,-146,0,3839.0,3833.0,1213.0,1213.0,-148.0,-154.0
3858,1224,-143,0,3847.0,3839.0,1220.0,1213.0,-146.0,-148.0
3866,1231,-137,0,3858.0,3847.0,1224.0,1220.0,-143.0,-146.0
3873,1233,-135,0,3866.0,3858.0,1231.0,1224.0,-137.0,-143.0
3874,1231,-135,0,3873.0,3866.0,1233.0,1231.0,-135.0,-137.0
3871,1224,-134,0,3874.0,3873.0,1231.0,1233.0,-135.0,-135.0
3866,1219,-135,0,3871.0,3874.0,1224.0,1231.0,-134.0,-135.0
3865,1210,-139,0,3866.0,3871.0,1219.0,1224.0,-135.0,-134.0
3863,1204,-142,0,3865.0,3866.0,1210.0,1219.0,-139.0,-135.0
3861,1196,-140,0,3863.0,3865.0,1204.0,1210.0,-142.0,-139.0
3856,1188,-141,0,3861.0,3863.0,1196.0,1204.0,-140.0,-142.0
3853,1181,-138,0,3856.0,3861.0,1188.0,1196.0,-141.0,-140.0
3849,1176,-137,0,3853.0,3856.0,1181.0,1188.0,-138.0,-141.0
3846,1170,-136,0,3849.0,3853.0,1176.0,1181.0,-137.0,-138.0
3841,1163,-136,0,3846.0,3849.0,1170.0,1176.0,-136.0,-137.0
3833,1160,-134,0,3841.0,3846.0,1163.0,1170.0,-136.0,-136.0
3828,1154,-135,0,3833.0,3841.0,1160.0,1163.0,-134.0,-136.0
3825,1147,-137,0,3828.0,3833.0,1154.0,1160.0,-135.0,-134.0
3816,1144,-141,0,3825.0,3828.0,1147.0,1154.0,-137.0,-135.0
3815,1140,-141,0,3816.0,3825.0,1144.0,1147.0,-141.0,-137.0
3813,1142,-138,0,3815.0,3816.0,1140.0,1144.0,-141.0,-141.0
3814,1142,-130,0,3813.0,3815.0,1142.0,1140.0,-138.0,-141.0
3816,1146,-127,0,3814.0,3813.0,1142.0,1142.0,-130.0,-138.0
3819,1148,-125,0,3816.0,3814.0,1146.0,1142.0,-127.0,-130.0
3828,1153,-118,0,3819.0,3816.0,1148.0,1146.0,-125.0,-127.0
3835,1158,-115,0,3828.0,3819.0,1153.0,1148.0,-118.0,-125.0
3837,1161,-116,0,3835.0,3828.0,1158.0,1153.0,-115.0,-118.0
3840,1168,-119,0,3837.0,3835.0,1161.0,1158.0,-116.0,-115.0
3845,1175,-124,0,3840.0,3837.0,1168.0,1161.0,-119.0,-116.0
3846,1183,-131,0,3845.0,3840.0,1175.0,1168.0,-124.0,-119.0
3851,1190,-132,0,3846.0,3845.0,1183.0,1175.0,-131.0,-124.0
3853,1197,-141,0,3851.0,3846.0,1190.0,1183.0,-132.0,-131.0
3854,1203,-150,0,3853.0,3851.0,1197.0,1190.0,-141.0,-132.0
3860,1202,-157,0,3854.0,3853.0,1203.0,1197.0,-150.0,-141.0
3862,1199,-156,0,3860.0,3854.0,1202.0,1203.0,-157.0,-150.0
3867,1197,-143,0,3862.0,3860.0,1199.0,1202.0,-156.0,-157.0
3873,1190,-130,0,3867.0,3862.0,1197.0,1199.0,-143.0,-156.0
3875,1187,-120,0,3873.0,3867.0,1190.0,1197.0,-130.0,-143.0
3879,1185,-109,0,3875.0,3873.0,1187.0,1190.0,-120.0,-130.0
3874,1188,-97,0,3879.0,3875.0,1185.0,1187.0,-109.0,-120.0
3864,1187,-92,0,3874.0,3879.0,1188.0,1185.0,-97.0,-109.0
3853,1188,-97,0,3864.0,3874.0,1187.0,1188.0,-92.0,-97.0
3838,1186,-103,0,3853.0,3864.0,1188.0,1187.0,-97.0,-92.0
3827,1186,-107,0,3838.0,3853.0,1186.0,1188.0,-103.0,-97.0
3816,1185,-107,0,3827.0,3838.0,1186.0,1186.0,-107.0,-103.0
3807,1184,-109,0,3816.0,3827.0,1185.0,1186.0,-107.0,-107.0
3801,1184,-111,0,3807.0,3816.0,1184.0,1185.0,-109.0,-107.0
3793,1184,-120,0,3801.0,3807.0,1184.0,1184.0,-111.0,-109.0
3790,1181,-121,0,3793.0,3801.0,1184.0,1184.0,-120.0,-111.0
3793,1180,-122,0,3790.0,3793.0,1181.0,1184.0,-121.0,-120.0
3797,1182,-125,0,3793.0,3790.0,1180.0,1181.0,-122.0,-121.0
3800,1183,-126,0,3797.0,3793.0,1182.0,1180.0,-125.0,-122.0
3808,1187,-127,0,3800.0,3797.0,1183.0,1182.0,-126.0,-125.0
3817,1192,-131,0,3808.0,3800.0,1187.0,1183.0,-127.0,-126.0
3832,1193,-140,0,3817.0,3808.0,1192.0,1187.0,-131.0,-127.0
3847,1199,-141,0,3832.0,3817.0,1193.0,1192.0,-140.0,-131.0
3859,1201,-147,0,3847.0,3832.0,1199.0,1193.0,-141.0,-140.0
3870,1203,-155,0,3859.0,3847.0,1201.0,1199.0,-147.0,-141.0
3877,1207,-158,0,3870.0,3859.0,1203.0,1201.0,-155.0,-147.0
3885,1207,-160,0,3877.0,3870.0,1207.0,1203.0,-158.0,-155.0
3892,1208,-159,0,3885.0,3877.0,1207.0,1207.0,-160.0,-158.0
3896,1208,-156,0,3892.0,3885.0,1208.0,1207.0,-159.0,-160.0
3897,1205,-157,0,3896.0,3892.0,1208.0,1208.0,-156.0,-159.0
3892,1205,-156,0,3897.0,3896.0,1205.0,1208.0,-157.0,-156.0
3886,1210,-154,0,3892.0,3897.0,1205.0,1205.0,-156.0,-157.0
3876,1210,-152,0,3886.0,3892.0,1210.0,1205.0,-154.0,-156.0
3867,1210,-150,0,3876.0,3886.0,1210.0,1210.0,-152.0,-154.0
3862,1210,-145,0,3867.0,3876.0,1210.0,1210.0,-150.0,-152.0
3854,1207,-141,0,3862.0,3867.0,1210.0,1210.0,-145.0,-150.0
3845,1206,-139,0,3854.0,3862.0,1207.0,1210.0,-141.0,-145.0
3836,1205,-141,0,3845.0,3854.0,1206.0,1207.0,-139.0,-141.0
3831,1200,-137,0,3836.0,3845.0,1205.0,1206.0,-141.0,-139.0
3828,1198,-132,0,3831.0,3836.0,1200.0,1205.0,-137.0,-141.0
3827,1196,-130,0,3828.0,3831.0,1198.0,1200.0,-132.0,-137.0
3827,1193,-129,0,3827.0,3828.0,1196.0,1198.0,-130.0,-132.0
3822,1192,-130,0,3827.0,3827.0,1193.0,1196.0,-129.0,-130.0
3823,1192,-127,0,3822.0,3827.0,1192.0,1193.0,-130.0,-129.0
3821,1194,-125,0,3823.0,3822.0,1192.0,1192.0,-127.0,-130.0
3823,1197,-124,0,3821.0,3823.0,1194.0,1192.0,-125.0,-127.0
3822,1198,-128,0,3823.0,3821.0,1197.0,1194.0,-124.0,-125.0
3823,1199,-130,0,3822.0,3823.0,1198.0,1197.0,-128.0,-124.0
3824,1200,-130,0,3823.0,3822.0,1199.0,1198.0,-130.0,-128.0
3827,1202,-124,0,3824.0,3823.0,1200.0,1199.0,-130.0,-130.0
3829,1200,-121,0,3827.0,3824.0,1202.0,1200.0,-124.0,-130.0
3836,1201,-120,0,3829.0,3827.0,1200.0,1202.0,-121.0,-124.0
3842,1198,-123,0,3836.0,3829.0,1201.0,1200.0,-120.0,-121.0
3844,1193,-127,0,3842.0,3836.0,1198.0,1201.0,-123.0,-120.0
3847,1197,-127,0,3844.0,3842.0,1193.0,1198.0,-127.0,-123.0
3850,1195,-129,0,3847.0,3844.0,1197.0,1193.0,-127.0,-127.0
3852,1191,-127,0,3850.0,3847.0,1195.0,1197.0,-129.0,-127.0
3850,1191,-128,0,3852.0,3850.0,1191.0,1195.0,-127.0,-129.0
3852,1192,-127,0,3850.0,3852.0,1191.0,1191.0,-128.0,-127.0
3853,1195,-125,0,3852.0,3850.0,1192.0,1191.0,-127.0,-128.0
3852,1196,-125,0,3853.0,3852.0,1195.0,1192.0,-125.0,-127.0
3852,1197,-125,0,3852.0,3853.0,1196.0,1195.0,-125.0,-125.0
3851,1197,-125,0,3852.0,3852.0,1197.0,1196.0,-125.0,-125.0
3851,1197,-122,0,3851.0,3852.0,1197.0,1197.0,-125.0,-125.0
3848,1196,-126,0,3851.0,3851.0,1197.0,1197.0,-122.0,-125.0
3844,1199,-129,0,3848.0,3851.0,1196.0,1197.0,-126.0,-122.0
3845,1199,-135,0,3844.0,3848.0,1199.0,1196.0,-129.0,-126.0
3843,1196,-136,0,3845.0,3844.0,1199.0,1199.0,-135.0,-129.0
3847,1194,-136,0,3843.0,3845.0,1196.0,1199.0,-136.0,-135.0
3850,1193,-132,0,3847.0,3843.0,1194.0,1196.0,-136.0,-136.0
3853,1193,-127,0,3850.0,3847.0,1193.0,1194.0,-132.0,-136.0
3856,1189,-128,0,3853.0,3850.0,1193.0,1193.0,-127.0,-132.0
3855,1190,-129,0,3856.0,3853.0,1189.0,1193.0,-128.0,-127.0
3853,1191,-134,0,3855.0,3856.0,1190.0,1189.0,-129.0,-128.0
3854,1195,-138,0,3853.0,3855.0,1191.0,1190.0,-134.0,-129.0
3854,1202,-143,0,3854.0,3853.0,1195.0,1191.0,-138.0,-134.0
3853,1208,-146,0,3854.0,3854.0,1202.0,1195.0,-143.0,-138.0
3851,1219,-153,0,3853.0,3854.0,1208.0,1202.0,-146.0,-143.0
3851,1226,-159,0,3851.0,3853.0,1219.0,1208.0,-153.0,-146.0
3845,1226,-164,0,3851.0,3851.0,1226.0,1219.0,-159.0,-153.0
3843,1228,-172,0,3845.0,3851.0,1226.0,1226.0,-164.0,-159.0
3846,1228,-173,0,3843.0,3845.0,1228.0,1226.0,-172.0,-164.0
3851,1227,-167,0,3846.0,3843.0,1228.0,1228.0,-173.0,-172.0
3858,1226,-161,0,3851.0,3846.0,1227.0,1228.0,-167.0,-173.0
3866,1222,-148,0,3858.0,3851.0,1226.0,1227.0,-161.0,-167.0
3875,1216,-137,0,3866.0,3858.0,1222.0,1226.0,-148.0,-161.0
3880,1214,-129,0,3875.0,3866.0,1216.0,1222.0,-137.0,-148.0
3881,1216,-122,0,3880.0,3875.0,1214.0,1216.0,-129.0,-137.0
3877,1214,-122,0,3881.0,3880.0,1216.0,1214.0,-122.0,-129.0
3877,1213,-120,0,3877.0,3881.0,1214.0,1216.0,-122.0,-122.0
3867,1217,-118,0,3877.0,3877.0,1213.0,1214.0,-120.0,-122.0
3859,1223,-114,0,3867.0,3877.0,1217.0,1213.0,-118.0,-120.0
3851,1225,-113,0,3859.0,3867.0,1223.0,1217.0,-114.0,-118.0
3844,1227,-110,0,3851.0,3859.0,1225.0,1223.0,-113.0,-114.0
3838,1230,-111,0,3844.0,3851.0,1227.0,1225.0,-110.0,-113.0
3827,1229,-109,0,3838.0,3844.0,1230.0,1227.0,-111.0,-110.0
3818,1231,-110,0,3827.0,3838.0,1229.0,1230.0,-109.0,-111.0
3809,1228,-107,0,3818.0,3827.0,1231.0,1229.0,-110.0,-109.0
3801,1227,-109,0,3809.0,3818.0,1228.0,1231.0,-107.0,-110.0
3800,1223,-109,0,3801.0,3809.0,1227.0,1228.0,-109.0,-107.0
3797,1216,-109,0,3800.0,3801.0,1223.0,1227.0,-109.0,-109.0
3795,1209,-109,0,3797.0,3800.0,1216.0,1223.0,-109.0,-109.0
3803,1201,-113,0,3795.0,3797.0,1209.0,1216.0,-109.0,-109.0
3810,1194,-116,0,3803.0,3795.0,1201.0,1209.0,-113.0,-109.0
3815,1190,-118,0,3810.0,3803.0,1194.0,1201.0,-116.0,-113.0
3822,1188,-122,0,3815.0,3810.0,1190.0,1194.0,-118.0,-116.0
3831,1188,-132,0,3822.0,3815.0,1188.0,1190.0,-122.0,-118.0
3839,1188,-135,0,3831.0,3822.0,1188.0,1188.0,-132.0,-122.0
3847,1185,-136,0,3839.0,3831.0,1188.0,1188.0,-135.0,-132.0
3853,1181,-138,0,3847.0,3839.0,1185.0,1188.0,-136.0,-135.0
3858,1182,-140,0,3853.0,3847.0,1181.0,1185.0,-138.0,-136.0
3867,1182,-139,0,3858.0,3853.0,1182.0,1181.0,-140.0,-138.0
3867,1174,-137,0,3867.0,3858.0,1182.0,1182.0,-139.0,-140.0
3869,1173,-138,0,3867.0,3867.0,1174.0,1182.0,-137.0,-139.0
3864,1171,-136,0,3869.0,3867.0,1173.0,1174.0,-138.0,-137.0
3865,1168,-134,0,3864.0,3869.0,1171.0,1173.0,-136.0,-138.0
3860,1168,-129,0,3865.0,3864.0,1168.0,1171.0,-134.0,-136.0
3857,1165,-130,0,3860.0,3865.0,1168.0,1168.0,-129.0,-134.0
3855,1163,-126,0,3857.0,3860.0,1165.0,1168.0,-130.0,-129.0
3853,1160,-124,0,3855.0,3857.0,1163.0,1165.0,-126.0,-130.0
3855,1157,-124,0,3853.0,3855.0,1160.0,1163.0,-124.0,-126.0
3854,1156,-122,0,3855.0,3853.0,1157.0,1160.0,-124.0,-124.0
3854,1161,-122,0,3854.0,3855.0,1156.0,1157.0,-122.0,-124.0
3855,1163,-117,0,3854.0,3854.0,1161.0,1156.0,-122.0,-122.0
3855,1166,-116,0,3855.0,3854.0,1163.0,1161.0,-117.0,-122.0
3854,1170,-117,0,3855.0,3855.0,1166.0,1163.0,-116.0,-117.0
3854,1169,-119,0,3854.0,3855.0,1170.0,1166.0,-117.0,-116.0
3852,1171,-119,0,3854.0,3854.0,1169.0,1170.0,-119.0,-117.0
3854,1172,-118,0,3852.0,3854.0,1171.0,1169.0,-119.0,-119.0
3852,1175,-120,0,3854.0,3852.0,1172.0,1171.0,-118.0,-119.0
3851,1175,-125,0,3852.0,3854.0,1175.0,1172.0,-120.0,-118.0
3851,1176,-133,0,3851.0,3852.0,1175.0,1175.0,-125.0,-120.0
3849,1181,-132,0,3851.0,3851.0,1176.0,1175.0,-133.0,-125.0
3847,1182,-131,0,3849.0,3851.0,1181.0,1176.0,-132.0,-133.0
3845,1186,-136,0,3847.0,3849.0,1182.0,1181.0,-131.0,-132.0
3846,1187,-136,0,3845.0,3847.0,1186.0,1182.0,-136.0,-131.0
3843,1186,-133,0,3846.0,3845.0,1187.0,1186.0,-136.0,-136.0
3841,1188,-135,0,3843.0,3846.0,1186.0,1187.0,-133.0,-136.0
3834,1185,-138,0,3841.0,3843.0,1188.0,1186.0,-135.0,-133.0
3830,1187,-142,0,3834.0,3841.0,1185.0,1188.0,-138.0,-135.0
3831,1184,-144,0,3830.0,3834.0,1187.0,1185.0,-142.0,-138.0
3825,1183,-149,0,3831.0,3830.0,1184.0,1187.0,-144.0,-142.0
3824,1181,-147,0,3825.0,3831.0,1183.0,1184.0,-149.0,-144.0
3824,1180,-143,0,3824.0,3825.0,1181.0,1183.0,-147.0,-149.0
3822,1178,-143,0,3824.0,3824.0,1180.0,1181.0,-143.0,-147.0
3826,1178,-146,0,3822.0,3824.0,1178.0,1180.0,-143.0,-143.0
3829,1179,-140,0,3826.0,3822.0,1178.0,1178.0,-146.0,-143.0
3834,1180,-132,0,3829.0,3826.0,1179.0,1178.0,-140.0,-146.0
3838,1180,-123,0,3834.0,3829.0,1180.0,1179.0,-132.0,-140.0
3845,1185,-109,0,3838.0,3834.0,1180.0,1180.0,-123.0,-132.0
3850,1186,-100,0,3845.0,3838.0,1185.0,1180.0,-109.0,-123.0
3850,1189,-97,0,3850.0,3845.0,1186.0,1185.0,-100.0,-109.0
3845,1196,-94,0,3850.0,3850.0,1189.0,1186.0,-97.0,-100.0
3841,1201,-94,0,3845.0,3850.0,1196.0,1189.0,-94.0,-97.0
3838,1207,-94,0,3841.0,3845.0,1201.0,1196.0,-94.0,-94.0
3833,1212,-96,0,3838.0,3841.0,1207.0,1201.0,-94.0,-94.0
3829,1219,-100,0,3833.0,3838.0,1212.0,1207.0,-96.0,-94.0
3824,1221,-106,0,3829.0,3833.0,1219.0,1212.0,-100.0,-96.0
3823,1222,-121,0,3824.0,3829.0,1221.0,1219.0,-106.0,-100.0
3816,1223,-136,0,3823.0,3824.0,1222.0,1221.0,-121.0,-106.0
3814,1220,-148,0,3816.0,3823.0,1223.0,1222.0,-136.0,-121.0
3812,1215,-155,0,3814.0,3816.0,1220.0,1223.0,-148.0,-136.0
3820,1210,-155,0,3812.0,3814.0,1215.0,1220.0,-155.0,-148.0
3834,1205,-149,0,3820.0,3812.0,1210.0,1215.0,-155.0,-155.0
3845,1193,-140,0,3834.0,3820.0,1205.0,1210.0,-149.0,-155.0
3851,1181,-141,0,3845.0,3834.0,1193.0,1205.0,-140.0,-149.0
3854,1173,-139,0,3851.0,3845.0,1181.0,1193.0,-141.0,-140.0
3857,1166,-128,0,3854.0,3851.0,1173.0,1181.0,-139.0,-141.0
3856,1163,-128,0,3857.0,3854.0,1166.0,1173.0,-128.0,-139.0
3856,1164,-134,0,3856.0,3857.0,1163.0,1166.0,-128.0,-128.0
3853,1172,-135,0,3856.0,3856.0,1164.0,1163.0,-134.0,-128.0
3849,1174,-130,0,3853.0,3856.0,1172.0,1164.0,-135.0,-134.0
3851,1171,-125,0,3849.0,3853.0,1174.0,1172.0,-130.0,-135.0
3850,1172,-125,0,3851.0,3849.0,1171.0,1174.0,-125.0,-130.0
3846,1172,-134,0,3850.0,3851.0,1172.0,1171.0,-125.0,-125.0
3846,1168,-135,0,3846.0,3850.0,1172.0,1172.0,-134.0,-125.0
3848,1166,-127,0,3846.0,3846.0,1168.0,1172.0,-135.0,-134.0
3847,1164,-123,0,3848.0,3846.0,1166.0,1168.0,-127.0,-135.0
3849,1160,-120,0,3847.0,3848.0,1164.0,1166.0,-123.0,-127.0
3849,1159,-120,0,3849.0,3847.0,1160.0,1164.0,-120.0,-123.0
3849,1152,-122,0,3849.0,3849.0,1159.0,1160.0,-120.0,-120.0
3852,1153,-122,0,3849.0,3849.0,1152.0,1159.0,-122.0,-120.0
3852,1156,-127,0,3852.0,3849.0,1153.0,1152.0,-122.0,-122.0
3857,1157,-129,0,3852.0,3852.0,1156.0,1153.0,-127.0,-122.0
3860,1161,-131,0,3857.0,3852.0,1157.0,1156.0,-129.0,-127.0
3861,1165,-131,0,3860.0,3857.0,1161.0,1157.0,-131.0,-129.0
3861,1170,-134,0,3861.0,3860.0,1165.0,1161.0,-131.0,-131.0
3863,1174,-131,0,3861.0,3861.0,1170.0,1165.0,-134.0,-131.0
3864,1175,-134,0,3863.0,3861.0,1174.0,1170.0,-131.0,-134.0
3862,1170,-139,0,3864.0,3863.0,1175.0,1174.0,-134.0,-131.0
3861,1170,-137,0,3862.0,3864.0,1170.0,1175.0,-139.0,-134.0
3854,1170,-142,0,3861.0,3862.0,1170.0,1170.0,-137.0,-139.0
3850,1171,-147,0,3854.0,3861.0,1170.0,1170.0,-142.0,-137.0
3847,1172,-146,0,3850.0,3854.0,1171.0,1170.0,-147.0,-142.0
3847,1173,-143,0,3847.0,3850.0,1172.0,1171.0,-146.0,-147.0
3848,1175,-142,0,3847.0,3847.0,1173.0,1172.0,-143.0,-146.0
3848,1174,-139,0,3848.0,3847.0,1175.0,1173.0,-142.0,-143.0
3850,1178,-142,0,3848.0,3848.0,1174.0,1175.0,-139.0,-142.0
3851,1178,-141,0,3850.0,3848.0,1178.0,1174.0,-142.0,-139.0
3852,1182,-140,0,3851.0,3850.0,1178.0,1178.0,-141.0,-142.0
3854,1184,-141,0,3852.0,3851.0,1182.0,1178.0,-140.0,-141.0
3854,1188,-138,0,3854.0,3852.0,1184.0,1182.0,-141.0,-140.0
3853,1196,-138,0,3854.0,3854.0,1188.0,1184.0,-138.0,-141.0
3854,1200,-139,0,3853.0,3854.0,1196.0,1188.0,-138.0,-138.0
3855,1208,-134,0,3854.0,3853.0,1200.0,1196.0,-139.0,-138.0
3855,1214,-131,0,3855.0,3854.0,1208.0,1200.0,-134.0,-139.0
3853,1221,-131,0,3855.0,3855.0,1214.0,1208.0,-131.0,-134.0
3851,1229,-131,0,3853.0,3855.0,1221.0,1214.0,-131.0,-131.0
3849,1232,-132,0,3851.0,3853.0,1229.0,1221.0,-131.0,-131.0
3848,1232,-138,0,3849.0,3851.0,1232.0,1229.0,-132.0,-131.0
3848,1230,-141,0,3848.0,3849.0,1232.0,1232.0,-138.0,-132.0
3847,1227,-146,0,3848.0,3848.0,1230.0,1232.0,-141.0,-138.0
3847,1223,-148,0,3847.0,3848.0,1227.0,1230.0,-146.0,-141.0
3846,1217,-154,0,3847.0,3847.0,1223.0,1227.0,-148.0,-146.0
3842,1209,-152,0,3846.0,3847.0,1217.0,1223.0,-154.0,-148.0
3848,1203,-151,0,3842.0,3846.0,1209.0,1217.0,-152.0,-154.0
3850,1194,-153,0,3848.0,3842.0,1203.0,1209.0,-151.0,-152.0
3850,1189,-153,0,3850.0,3848.0,1194.0,1203.0,-153.0,-151.0
3847,1186,-156,0,3850.0,3850.0,1189.0,1194.0,-153.0,-153.0
3849,1184,-155,0,3847.0,3850.0,1186.0,1189.0,-156.0,-153.0
3846,1187,-153,0,3849.0,3847.0,1184.0,1186.0,-155.0,-156.0
3844,1191,-149,0,3846.0,3849.0,1187.0,1184.0,-153.0,-155.0
3839,1194,-144,0,3844.0,3846.0,1191.0,1187.0,-149.0,-153.0
3835,1199,-141,0,3839.0,3844.0,1194.0,1191.0,-144.0,-149.0
3830,1201,-142,0,3835.0,3839.0,1199.0,1194.0,-141.0,-144.0
3826,1207,-146,0,3830.0,3835.0,1201.0,1199.0,-142.0,-141.0
3826,1217,-150,0,3826.0,3830.0,1207.0,1201.0,-146.0,-142.0
3825,1223,-152,0,3826.0,3826.0,1217.0,1207.0,-150.0,-146.0
3827,1225,-150,0,3825.0,3826.0,1223.0,1217.0,-152.0,-150.0
3830,1231,-145,0,3827.0,3825.0,1225.0,1223.0,-150.0,-152.0
3837,1235,-143,0,3830.0,3827.0,1231.0,1225.0,-145.0,-150.0
3841,1235,-143,0,3837.0,3830.0,1235.0,1231.0,-143.0,-145.0
3844,1237,-142,0,3841.0,3837.0,1235.0,1235.0,-143.0,-143.0
3846,1240,-141,0,3844.0,3841.0,1237.0,1235.0,-142.0,-143.0
3851,1243,-141,0,3846.0,3844.0,1240.0,1237.0,-141.0,-142.0
3849,1239,-140,0,3851.0,3846.0,1243.0,1240.0,-141.0,-141.0
3846,1236,-144,0,3849.0,3851.0,1239.0,1243.0,-140.0,-141.0
3843,1233,-147,0,3846.0,3849.0,1236.0,1239.0,-144.0,-140.0
3834,1226,-159,0,3843.0,3846.0,1233.0,1236.0,-147.0,-144.0
3832,1215,-173,0,3834.0,3843.0,1226.0,1233.0,-159.0,-147.0
3827,1208,-186,0,3832.0,3834.0,1215.0,1226.0,-173.0,-159.0
3828,1198,-195,0,3827.0,3832.0,1208.0,1215.0,-186.0,-173.0
3828,1188,-197,0,3828.0,3827.0,1198.0,1208.0,-195.0,-186.0
3837,1179,-194,0,3828.0,3828.0,1188.0,1198.0,-197.0,-195.0
3848,1172,-186,0,3837.0,3828.0,1179.0,1188.0,-194.0,-197.0
3864,1164,-173,0,3848.0,3837.0,1172.0,1179.0,-186.0,-194.0
3877,1160,-160,0,3864.0,3848.0,1164.0,1172.0,-173.0,-186.0
3885,1154,-151,0,3877.0,3864.0,1160.0,1164.0,-160.0,-173.0
3888,1154,-142,0,3885.0,3877.0,1154.0,1160.0,-151.0,-160.0
3887,1155,-142,0,3888.0,3885.0,1154.0,1154.0,-142.0,-151.0
3880,1157,-147,0,3887.0,3888.0,1155.0,1154.0,-142.0,-142.0
3875,1160,-147,0,3880.0,3887.0,1157.0,1155.0,-147.0,-142.0
3868,1164,-144,0,3875.0,3880.0,1160.0,1157.0,-147.0,-147.0
3866,1168,-140,0,3868.0,3875.0,1164.0,1160.0,-144.0,-147.0
3861,1168,-138,0,3866.0,3868.0,1168.0,1164.0,-140.0,-144.0
3854,1168,-134,0,3861.0,3866.0,1168.0,1168.0,-138.0,-140.0
3847,1170,-134,0,3854.0,3861.0,1168.0,1168.0,-134.0,-138.0
3839,1175,-128,0,3847.0,3854.0,1170.0,1168.0,-134.0,-134.0
3833,1179,-127,0,3839.0,3847.0,1175.0,1170.0,-128.0,-134.0
3826,1181,-127,0,3833.0,3839.0,1179.0,1175.0,-127.0,-128.0
3822,1182,-127,0,3826.0,3833.0,1181.0,1179.0,-127.0,-127.0
3822,1177,-127,0,3822.0,3826.0,1182.0,1181.0,-127.0,-127.0
3818,1175,-131,0,3822.0,3822.0,1177.0,1182.0,-127.0,-127.0
3823,1173,-138,0,3818.0,3822.0,1175.0,1177.0,-131.0,-127.0
3833,1172,-139,0,3823.0,3818.0,1173.0,1175.0,-138.0,-131.0
3839,1174,-143,0,3833.0,3823.0,1172.0,1173.0,-139.0,-138.0
3848,1171,-150,0,3839.0,3833.0,1174.0,1172.0,-143.0,-139.0
3852,1171,-151,0,3848.0,3839.0,1171.0,1174.0,-150.0,-143.0
3856,1169,-150,0,3852.0,3848.0,1171.0,1171.0,-151.0,-150.0
3865,1170,-152,0,3856.0,3852.0,1169.0,1171.0,-150.0,-151.0
3866,1168,-156,0,3865.0,3856.0,1170.0,1169.0,-152.0,-150.0
3865,1164,-154,0,3866.0,3865.0,1168.0,1170.0,-156.0,-152.0
3866,1167,-154,0,3865.0,3866.0,1164.0,1168.0,-154.0,-156.0
3863,1169,-158,0,3866.0,3865.0,1167.0,1164.0,-154.0,-154.0
3858,1167,-156,0,3863.0,3866.0,1169.0,1167.0,-158.0,-154.0
3850,1168,-156,0,3858.0,3863.0,1167.0,1169.0,-156.0,-158.0
3844,1174,-156,0,3850.0,3858.0,1168.0,1167.0,-156.0,-156.0
3838,1177,-155,0,3844.0,3850.0,1174.0,1168.0,-156.0,-156.0
3835,1181,-153,0,3838.0,3844.0,1177.0,1174.0,-155.0,-156.0
3830,1180,-151,0,3835.0,3838.0,1181.0,1177.0,-153.0,-155.0
3831,1181,-152,0,3830.0,3835.0,1180.0,1181.0,-151.0,-153.0
3828,1185,-154,0,3831.0,3830.0,1181.0,1180.0,-152.0,-151.0
3835,1187,-156,0,3828.0,3831.0,1185.0,1181.0,-154.0,-152.0
3837,1190,-157,0,3835.0,3828.0,1187.0,1185.0,-156.0,-154.0
3841,1195,-163,0,3837.0,3835.0,1190.0,1187.0,-157.0,-156.0
3847,1199,-161,0,3841.0,3837.0,1195.0,1190.0,-163.0,-157.0
3849,1201,-163,0,3847.0,3841.0,1199.0,1195.0,-161.0,-163.0
3854,1203,-168,0,3849.0,3847.0,1201.0,1199.0,-163.0,-161.0
3864,1199,-169,0,3854.0,3849.0,1203.0,1201.0,-168.0,-163.0
3871,1198,-168,0,3864.0,3854.0,1199.0,1203.0,-169.0,-168.0
3871,1194,-172,0,3871.0,3864.0,1198.0,1199.0,-168.0,-169.0
3875,1191,-173,0,3871.0,3871.0,1194.0,1198.0,-172.0,-168.0
3877,1191,-171,0,3875.0,3871.0,1191.0,1194.0,-173.0,-172.0
3876,1188,-174,0,3877.0,3875.0,1191.0,1191.0,-171.0,-173.0
3878,1186,-174,0,3876.0,3877.0,1188.0,1191.0,-174.0,-171.0
3876,1182,-173,0,3878.0,3876.0,1186.0,1188.0,-174.0,-174.0
3874,1179,-171,0,3876.0,3878.0,1182.0,1186.0,-173.0,-174.0
3870,1178,-170,0,3874.0,3876.0,1179.0,1182.0,-171.0,-173.0
3861,1175,-170,0,3870.0,3874.0,1178.0,1179.0,-170.0,-171.0
3857,1167,-167,0,3861.0,3870.0,1175.0,1178.0,-170.0,-170.0
3853,1165,-163,0,3857.0,3861.0,1167.0,1175.0,-167.0,-170.0
3845,1167,-158,0,3853.0,3857.0,1165.0,1167.0,-163.0,-167.0
3843,1167,-155,0,3845.0,3853.0,1167.0,1165.0,-158.0,-163.0
3839,1165,-151,0,3843.0,3845.0,1167.0,1167.0,-155.0,-158.0
3841,1162,-147,0,3839.0,3843.0,1165.0,1167.0,-151.0,-155.0
3837,1161,-146,0,3841.0,3839.0,1162.0,1165.0,-147.0,-151.0
3831,1165,-148,0,3837.0,3841.0,1161.0,1162.0,-146.0,-147.0
3831,1163,-150,0,3831.0,3837.0,1165.0,1161.0,-148.0,-146.0
3828,1163,-154,0,3831.0,3831.0,1163.0,1165.0,-150.0,-148.0
3831,1166,-152,0,3828.0,3831.0,1163.0,1163.0,-154.0,-150.0
3836,1166,-148,0,3831.0,3828.0,1166.0,1163.0,-152.0,-154.0
3843,1169,-145,0,3836.0,3831.0,1166.0,1166.0,-148.0,-152.0
3846,1167,-141,0,3843.0,3836.0,1169.0,1166.0,-145.0,-148.0
3850,1167,-137,0,3846.0,3843.0,1167.0,1169.0,-141.0,-145.0
3853,1169,-134,0,3850.0,3846.0,1167.0,1167.0,-137.0,-141.0
3852,1169,-133,0,3853.0,3850.0,1169.0,1167.0,-134.0,-137.0
3850,1173,-139,0,3852.0,3853.0,1169.0,1169.0,-133.0,-134.0
3848,1176,-146,0,3850.0,3852.0,1173.0,1169.0,-139.0,-133.0
3841,1178,-155,0,3848.0,3850.0,1176.0,1173.0,-146.0,-139.0
3841,1181,-169,0,3841.0,3848.0,1178.0,1176.0,-155.0,-146.0
3838,1176,-179,0,3841.0,3841.0,1181.0,1178.0,-169.0,-155.0
3838,1172,-190,0,3838.0,3841.0,1176.0,1181.0,-179.0,-169.0
3840,1171,-198,0,3838.0,3838.0,1172.0,1176.0,-190.0,-179.0
3846,1174,-203,0,3840.0,3838.0,1171.0,1172.0,-198.0,-190.0
3854,1172,-199,0,3846.0,3840.0,1174.0,1171.0,-203.0,-198.0
3865,1170,-191,0,3854.0,3846.0,1172.0,1174.0,-199.0,-203.0
3875,1170,-180,0,3865.0,3854.0,1170.0,1172.0,-191.0,-199.0
3881,1176,-166,0,3875.0,3865.0,1170.0,1170.0,-180.0,-191.0
3885,1176,-157,0,3881.0,3875.0,1176.0,1170.0,-166.0,-180.0
3886,1175,-154,0,3885.0,3881.0,1176.0,1176.0,-157.0,-166.0
3877,1180,-159,0,3886.0,3885.0,1175.0,1176.0,-154.0,-157.0
3872,1178,-160,0,3877.0,3886.0,1180.0,1175.0,-159.0,-154.0
3865,1181,-162,0,3872.0,3877.0,1178.0,1180.0,-160.0,-159.0
3865,1181,-162,0,3865.0,3872.0,1181.0,1178.0,-162.0,-160.0
3862,1179,-164,0,3865.0,3865.0,1181.0,1181.0,-162.0,-162.0
3856,1171,-164,0,3862.0,3865.0,1179.0,1181.0,-164.0,-162.0
3849,1170,-166,0,3856.0,3862.0,1171.0,1179.0,-164.0,-164.0
3841,1170,-161,0,3849.0,3856.0,1170.0,1171.0,-166.0,-164.0
3834,1168,-159,0,3841.0,3849.0,1170.0,1170.0,-161.0,-166.0
3827,1171,-154,0,3834.0,3841.0,1168.0,1170.0,-159.0,-161.0
3827,1171,-154,0,3827.0,3834.0,1171.0,1168.0,-154.0,-159.0
3826,1172,-159,0,3827.0,3827.0,1171.0,1171.0,-154.0,-154.0
3823,1174,-161,0,3826.0,3827.0,1172.0,1171.0,-159.0,-154.0
3825,1172,-165,0,3823.0,3826.0,1174.0,1172.0,-161.0,-159.0
3826,1174,-167,0,3825.0,3823.0,1172.0,1174.0,-165.0,-161.0
3829,1172,-172,0,3826.0,3825.0,1174.0,1172.0,-167.0,-165.0
3835,1172,-174,0,3829.0,3826.0,1172.0,1174.0,-172.0,-167.0
3845,1174,-182,0,3835.0,3829.0,1172.0,1172.0,-174.0,-172.0
3855,1174,-186,0,3845.0,3835.0,1174.0,1172.0,-182.0,-174.0
3860,1172,-192,0,3855.0,3845.0,1174.0,1174.0,-186.0,-182.0
3869,1172,-192,0,3860.0,3855.0,1172.0,1174.0,-192.0,-186.0
3873,1171,-194,0,3869.0,3860.0,1172.0,1172.0,-192.0,-192.0
3875,1170,-196,0,3873.0,3869.0,1171.0,1172.0,-194.0,-192.0
3879,1168,-195,0,3875.0,3873.0,1170.0,1171.0,-196.0,-194.0
3876,1171,-198,0,3879.0,3875.0,1168.0,1170.0,-195.0,-196.0
3867,1176,-197,0,3876.0,3879.0,1171.0,1168.0,-198.0,-195.0
3863,1175,-196,0,3867.0,3876.0,1176.0,1171.0,-197.0,-198.0
3857,1176,-201,0,3863.0,3867.0,1175.0,1176.0,-196.0,-197.0
3854,1180,-200,0,3857.0,3863.0,1176.0,1175.0,-201.0,-196.0
3851,1176,-198,0,3854.0,3857.0,1180.0,1176.0,-200.0,-201.0
3849,1180,-194,0,3851.0,3854.0,1176.0,1180.0,-198.0,-200.0
3848,1185,-193,0,3849.0,3851.0,1180.0,1176.0,-194.0,-198.0
3844,1189,-188,0,3848.0,3849.0,1185.0,1180.0,-193.0,-194.0
3844,1190,-189,0,3844.0,3848.0,1189.0,1185.0,-188.0,-193.0
3844,1193,-190,0,3844.0,3844.0,1190.0,1189.0,-189.0,-188.0
3843,1192,-191,0,3844.0,3844.0,1193.0,1190.0,-190.0,-189.0
3845,1191,-193,0,3843.0,3844.0,1192.0,1193.0,-191.0,-190.0
3844,1192,-194,0,3845.0,3843.0,1191.0,1192.0,-193.0,-191.0
3849,1190,-195,0,3844.0,3845.0,1192.0,1191.0,-194.0,-193.0
3850,1190,-193,0,3849.0,3844.0,1190.0,1192.0,-195.0,-194.0
3850,1192,-198,0,3850.0,3849.0,1190.0,1190.0,-193.0,-195.0
3851,1194,-196,0,3850.0,3850.0,1192.0,1190.0,-198.0,-193.0
3853,1194,-192,0,3851.0,3850.0,1194.0,1192.0,-196.0,-198.0
3853,1192,-192,0,3853.0,3851.0,1194.0,1194.0,-192.0,-196.0
3852,1187,-194,0,3853.0,3853.0,1192.0,1194.0,-192.0,-192.0
3852,1186,-198,0,3852.0,3853.0,1187.0,1192.0,-194.0,-192.0
3851,1183,-195,0,3852.0,3852.0,1186.0,1187.0,-198.0,-194.0
3850,1179,-193,0,3851.0,3852.0,1183.0,1186.0,-195.0,-198.0
3849,1179,-191,0,3850.0,3851.0,1179.0,1183.0,-193.0,-195.0
3850,1176,-190,0,3849.0,3850.0,1179.0,1179.0,-191.0,-193.0
3848,1176,-194,0,3850.0,3849.0,1176.0,1179.0,-190.0,-191.0
3847,1175,-194,0,3848.0,3850.0,1176.0,1176.0,-194.0,-190.0
3843,1179,-191,0,3847.0,3848.0,1175.0,1176.0,-194.0,-194.0
3842,1176,-193,0,3843.0,3847.0,1179.0,1175.0,-191.0,-194.0
3838,1178,-193,0,3842.0,3843.0,1176.0,1179.0,-193.0,-191.0
3837,1180,-195,0,3838.0,3842.0,1178.0,1176.0,-193.0,-193.0
3834,1181,-195,0,3837.0,3838.0,1180.0,1178.0,-195.0,-193.0
3838,1179,-201,0,3834.0,3837.0,1181.0,1180.0,-195.0,-195.0
3838,1179,-205,0,3838.0,3834.0,1179.0,1181.0,-201.0,-195.0
3837,1181,-207,0,3838.0,3838.0,1179.0,1179.0,-205.0,-201.0
3841,1184,-204,0,3837.0,3838.0,1181.0,1179.0,-207.0,-205.0
3844,1185,-201,0,3841.0,3837.0,1184.0,1181.0,-204.0,-207.0
3850,1187,-196,0,3844.0,3841.0,1185.0,1184.0,-201.0,-204.0
3856,1183,-192,0,3850.0,3844.0,1187.0,1185.0,-196.0,-201.0
3858,1183,-191,0,3856.0,3850.0,1183.0,1187.0,-192.0,-196.0
3865,1181,-189,0,3858.0,3856.0,1183.0,1183.0,-191.0,-192.0
3863,1182,-196,0,3865.0,3858.0,1181.0,1183.0,-189.0,-191.0
3863,1179,-202,0,3863.0,3865.0,1182.0,1181.0,-196.0,-189.0
3859,1178,-208,0,3863.0,3863.0,1179.0,1182.0,-202.0,-196.0
3856,1181,-214,0,3859.0,3863.0,1178.0,1179.0,-208.0,-202.0
3852,1188,-226,0,3856.0,3859.0,1181.0,1178.0,-214.0,-208.0
3844,1194,-236,0,3852.0,3856.0,1188.0,1181.0,-226.0,-214.0
3843,1193,-245,0,3844.0,3852.0,1194.0,1188.0,-236.0,-226.0
3844,1195,-250,0,3843.0,3844.0,1193.0,1194.0,-245.0,-236.0
3846,1198,-245,0,3844.0,3843.0,1195.0,1193.0,-250.0,-245.0
3850,1198,-239,0,3846.0,3844.0,1198.0,1195.0,-245.0,-250.0
3856,1200,-229,0,3850.0,3846.0,1198.0,1198.0,-239.0,-245.0
3859,1202,-221,0,3856.0,3850.0,1200.0,1198.0,-229.0,-239.0
3868,1205,-210,0,3859.0,3856.0,1202.0,1200.0,-221.0,-229.0
3872,1200,-198,0,3868.0,3859.0,1205.0,1202.0,-210.0,-221.0
3871,1197,-198,0,3872.0,3868.0,1200.0,1205.0,-198.0,-210.0
3871,1201,-201,0,3871.0,3872.0,1197.0,1200.0,-198.0,-198.0
3861,1203,-204,0,3871.0,3871.0,1201.0,1197.0,-201.0,-198.0
3854,1212,-203,0,3861.0,3871.0,1203.0,1201.0,-204.0,-201.0
3849,1219,-205,0,3854.0,3861.0,1212.0,1203.0,-203.0,-204.0
3841,1221,-204,0,3849.0,3854.0,1219.0,1212.0,-205.0,-203.0
3836,1221,-205,0,3841.0,3849.0,1221.0,1219.0,-204.0,-205.0
3828,1219,-204,0,3836.0,3841.0,1221.0,1221.0,-205.0,-204.0
3822,1216,-204,0,3828.0,3836.0,1219.0,1221.0,-204.0,-205.0
3817,1213,-207,0,3822.0,3828.0,1216.0,1219.0,-204.0,-204.0
3813,1212,-211,0,3817.0,3822.0,1213.0,1216.0,-207.0,-204.0
3813,1215,-208,0,3813.0,3817.0,1212.0,1213.0,-211.0,-207.0
3815,1216,-206,0,3813.0,3813.0,1215.0,1212.0,-208.0,-211.0
3815,1216,-210,0,3815.0,3813.0,1216.0,1215.0,-206.0,-208.0
3817,1219,-217,0,3815.0,3815.0,1216.0,1216.0,-210.0,-206.0
3821,1221,-221,0,3817.0,3815.0,1219.0,1216.0,-217.0,-210.0
3824,1226,-223,0,3821.0,3817.0,1221.0,1219.0,-221.0,-217.0
3833,1232,-220,0,3824.0,3821.0,1226.0,1221.0,-223.0,-221.0
3838,1234,-224,0,3833.0,3824.0,1232.0,1226.0,-220.0,-223.0
3840,1235,-224,0,3838.0,3833.0,1234.0,1232.0,-224.0,-220.0
3845,1236,-223,0,3840.0,3838.0,1235.0,1234.0,-224.0,-224.0
3851,1234,-221,0,3845.0,3840.0,1236.0,1235.0,-223.0,-224.0
3853,1232,-218,0,3851.0,3845.0,1234.0,1236.0,-221.0,-223.0
3854,1230,-224,0,3853.0,3851.0,1232.0,1234.0,-218.0,-221.0
3855,1229,-228,0,3854.0,3853.0,1230.0,1232.0,-224.0,-218.0
3853,1231,-230,0,3855.0,3854.0,1229.0,1230.0,-228.0,-224.0
3851,1232,-232,0,3853.0,3855.0,1231.0,1229.0,-230.0,-228.0
3848,1236,-231,0,3851.0,3853.0,1232.0,1231.0,-232.0,-230.0
3840,1237,-232,0,3848.0,3851.0,1236.0,1232.0,-231.0,-232.0
3837,1242,-231,0,3840.0,3848.0,1237.0,1236.0,-232.0,-231.0
3833,1244,-226,0,3837.0,3840.0,1242.0,1237.0,-231.0,-232.0
3828,1249,-218,0,3833.0,3837.0,1244.0,1242.0,-226.0,-231.0
3829,1253,-213,0,3828.0,3833.0,1249.0,1244.0,-218.0,-226.0
3825,1251,-215,0,3829.0,3828.0,1253.0,1249.0,-213.0,-218.0
3823,1253,-213,0,3825.0,3829.0,1251.0,1253.0,-215.0,-213.0
3825,1256,-207,0,3823.0,3825.0,1253.0,1251.0,-213.0,-215.0
3828,1254,-206,0,3825.0,3823.0,1256.0,1253.0,-207.0,-213.0
3824,1251,-210,0,3828.0,3825.0,1254.0,1256.0,-206.0,-207.0
3828,1248,-213,0,3824.0,3828.0,1251.0,1254.0,-210.0,-206.0
3830,1245,-208,0,3828.0,3824.0,1248.0,1251.0,-213.0,-210.0
3832,1244,-202,0,3830.0,3828.0,1245.0,1248.0,-208.0,-213.0
3834,1245,-203,0,3832.0,3830.0,1244.0,1245.0,-202.0,-208.0
3835,1241,-205,0,3834.0,3832.0,1245.0,1244.0,-203.0,-202.0
3835,1241,-206,0,3835.0,3834.0,1241.0,1245.0,-205.0,-203.0
3835,1242,-206,0,3835.0,3835.0,1241.0,1241.0,-206.0,-205.0
3831,1240,-205,0,3835.0,3835.0,1242.0,1241.0,-206.0,-206.0
3827,1234,-211,0,3831.0,3835.0,1240.0,1242.0,-205.0,-206.0
3831,1230,-214,0,3827.0,3831.0,1234.0,1240.0,-211.0,-205.0
3828,1229,-212,0,3831.0,3827.0,1230.0,1234.0,-214.0,-211.0
3827,1227,-215,0,3828.0,3831.0,1229.0,1230.0,-212.0,-214.0
3827,1222,-216,0,3827.0,3828.0,1227.0,1229.0,-215.0,-212.0
3826,1225,-219,0,3827.0,3827.0,1222.0,1227.0,-216.0,-215.0
3824,1224,-220,0,3826.0,3827.0,1225.0,1222.0,-219.0,-216.0
3828,1225,-217,0,3824.0,3826.0,1224.0,1225.0,-220.0,-219.0
3830,1222,-216,0,3828.0,3824.0,1225.0,1224.0,-217.0,-220.0
3830,1219,-217,0,3830.0,3828.0,1222.0,1225.0,-216.0,-217.0
3829,1219,-222,0,3830.0,3830.0,1219.0,1222.0,-217.0,-216.0
3831,1219,-226,0,3829.0,3830.0,1219.0,1219.0,-222.0,-217.0
3836,1218,-228,0,3831.0,3829.0,1219.0,1219.0,-226.0,-222.0
3833,1215,-229,0,3836.0,3831.0,1218.0,1219.0,-228.0,-226.0
3834,1212,-226,0,3833.0,3836.0,1215.0,1218.0,-229.0,-228.0
3840,1208,-223,0,3834.0,3833.0,1212.0,1215.0,-226.0,-229.0
3848,1204,-218,0,3840.0,3834.0,1208.0,1212.0,-223.0,-226.0
3857,1198,-211,0,3848.0,3840.0,1204.0,1208.0,-218.0,-223.0
3860,1198,-207,0,3857.0,3848.0,1198.0,1204.0,-211.0,-218.0
3859,1193,-203,0,3860.0,3857.0,1198.0,1198.0,-207.0,-211.0
3860,1193,-202,0,3859.0,3860.0,1193.0,1198.0,-203.0,-207.0
3857,1190,-206,0,3860.0,3859.0,1193.0,1193.0,-202.0,-203.0
3858,1191,-210,0,3857.0,3860.0,1190.0,1193.0,-206.0,-202.0
3855,1193,-216,0,3858.0,3857.0,1191.0,1190.0,-210.0,-206.0
3852,1193,-223,0,3855.0,3858.0,1193.0,1191.0,-216.0,-210.0
3844,1193,-232,0,3852.0,3855.0,1193.0,1193.0,-223.0,-216.0
3839,1192,-235,0,3844.0,3852.0,1193.0,1193.0,-232.0,-223.0
3837,1193,-237,0,3839.0,3844.0,1192.0,1193.0,-235.0,-232.0
3839,1190,-237,0,3837.0,3839.0,1193.0,1192.0,-237.0,-235.0
3842,1186,-235,0,3839.0,3837.0,1190.0,1193.0,-237.0,-237.0
3843,1187,-234,0,3842.0,3839.0,1186.0,1190.0,-235.0,-237.0
3842,1188,-228,0,3843.0,3842.0,1187.0,1186.0,-234.0,-235.0
3845,1186,-218,0,3842.0,3843.0,1188.0,1187.0,-228.0,-234.0
3849,1188,-210,0,3845.0,3842.0,1186.0,1188.0,-218.0,-228.0
3851,1192,-203,0,3849.0,3845.0,1188.0,1186.0,-210.0,-218.0
3850,1194,-200,0,3851.0,3849.0,1192.0,1188.0,-203.0,-210.0
3849,1199,-199,0,3850.0,3851.0,1194.0,1192.0,-200.0,-203.0
3844,1202,-195,0,3849.0,3850.0,1199.0,1194.0,-199.0,-200.0
3840,1206,-192,0,3844.0,3849.0,1202.0,1199.0,-195.0,-199.0
3837,1207,-193,0,3840.0,3844.0,1206.0,1202.0,-192.0,-195.0
3829,1210,-196,0,3837.0,3840.0,1207.0,1206.0,-193.0,-192.0
3822,1208,-198,0,3829.0,3837.0,1210.0,1207.0,-196.0,-193.0
3821,1207,-194,0,3822.0,3829.0,1208.0,1210.0,-198.0,-196.0
3820,1203,-192,0,3821.0,3822.0,1207.0,1208.0,-194.0,-198.0
3819,1202,-191,0,3820.0,3821.0,1203.0,1207.0,-192.0,-194.0
3821,1201,-191,0,3819.0,3820.0,1202.0,1203.0,-191.0,-192.0
3819,1202,-193,0,3821.0,3819.0,1201.0,1202.0,-191.0,-191.0
3825,1200,-192,0,3819.0,3821.0,1202.0,1201.0,-193.0,-191.0
3825,1202,-191,0,3825.0,3819.0,1200.0,1202.0,-192.0,-193.0
3829,1206,-194,0,3825.0,3825.0,1202.0,1200.0,-191.0,-192.0
3835,1206,-196,0,3829.0,3825.0,1206.0,1202.0,-194.0,-191.0
3838,1207,-195,0,3835.0,3829.0,1206.0,1206.0,-196.0,-194.0
3843,1206,-196,0,3838.0,3835.0,1207.0,1206.0,-195.0,-196.0
3848,1200,-202,0,3843.0,3838.0,1206.0,1207.0,-196.0,-195.0
3852,1196,-208,0,3848.0,3843.0,1200.0,1206.0,-202.0,-196.0
3859,1198,-208,0,3852.0,3848.0,1196.0,1200.0,-208.0,-202.0
3862,1193,-214,0,3859.0,3852.0,1198.0,1196.0,-208.0,-208.0
3864,1195,-217,0,3862.0,3859.0,1193.0,1198.0,-214.0,-208.0
3862,1193,-222,0,3864.0,3862.0,1195.0,1193.0,-217.0,-214.0
3858,1196,-220,0,3862.0,3864.0,1193.0,1195.0,-222.0,-217.0
3854,1194,-221,0,3858.0,3862.0,1196.0,1193.0,-220.0,-222.0
3852,1197,-220,0,3854.0,3858.0,1194.0,1196.0,-221.0,-220.0
3844,1193,-219,0,3852.0,3854.0,1197.0,1194.0,-220.0,-221.0
3841,1194,-214,0,3844.0,3852.0,1193.0,1197.0,-219.0,-220.0
3842,1197,-212,0,3841.0,3844.0,1194.0,1193.0,-214.0,-219.0
3839,1202,-210,0,3842.0,3841.0,1197.0,1194.0,-212.0,-214.0
3835,1200,-213,0,3839.0,3842.0,1202.0,1197.0,-210.0,-212.0
3832,1202,-214,0,3835.0,3839.0,1200.0,1202.0,-213.0,-210.0
3833,1205,-214,0,3832.0,3835.0,1202.0,1200.0,-214.0,-213.0
3835,1207,-214,0,3833.0,3832.0,1205.0,1202.0,-214.0,-214.0
3837,1209,-215,0,3835.0,3833.0,1207.0,1205.0,-214.0,-214.0
3846,1211,-214,0,3837.0,3835.0,1209.0,1207.0,-215.0,-214.0
3848,1211,-214,0,3846.0,3837.0,1211.0,1209.0,-214.0,-215.0
3852,1213,-214,0,3848.0,3846.0,1211.0,1211.0,-214.0,-214.0
3853,1213,-215,0,3852.0,3848.0,1213.0,1211.0,-214.0,-214.0
3857,1215,-215,0,3853.0,3852.0,1213.0,1213.0,-215.0,-214.0
3858,1214,-216,0,3857.0,3853.0,1215.0,1213.0,-215.0,-215.0
3859,1214,-220,0,3858.0,3857.0,1214.0,1215.0,-216.0,-215.0
3858,1212,-221,0,3859.0,3858.0,1214.0,1214.0,-220.0,-216.0
3859,1211,-218,0,3858.0,3859.0,1212.0,1214.0,-221.0,-220.0
3864,1209,-216,0,3859.0,3858.0,1211.0,1212.0,-218.0,-221.0
3862,1211,-216,0,3864.0,3859.0,1209.0,1211.0,-216.0,-218.0
3864,1209,-215,0,3862.0,3864.0,1211.0,1209.0,-216.0,-216.0
3858,1206,-219,0,3864.0,3862.0,1209.0,1211.0,-215.0,-216.0
3855,1208,-223,0,3858.0,3864.0,1206.0,1209.0,-219.0,-215.0
3848,1207,-225,0,3855.0,3858.0,1208.0,1206.0,-223.0,-219.0
3839,1209,-230,0,3848.0,3855.0,1207.0,1208.0,-225.0,-223.0
3827,1208,-242,0,3839.0,3848.0,1209.0,1207.0,-230.0,-225.0
3812,1208,-252,0,3827.0,3839.0,1208.0,1209.0,-242.0,-230.0
3791,1205,-269,0,3812.0,3827.0,1208.0,1208.0,-252.0,-242.0
3769,1209,-277,0,3791.0,3812.0,1205.0,1208.0,-269.0,-252.0
3752,1210,-275,0,3769.0,3791.0,1209.0,1205.0,-277.0,-269.0
3749,1215,-253,0,3752.0,3769.0,1210.0,1209.0,-275.0,-277.0
3758,1211,-226,0,3749.0,3752.0,1215.0,1210.0,-253.0,-275.0
3774,1206,-203,0,3758.0,3749.0,1211.0,1215.0,-226.0,-253.0
3784,1203,-198,0,3774.0,3758.0,1206.0,1211.0,-203.0,-226.0
3785,1201,-215,0,3784.0,3774.0,1203.0,1206.0,-198.0,-203.0
3785,1200,-227,0,3785.0,3784.0,1201.0,1203.0,-215.0,-198.0
3797,1196,-239,0,3785.0,3785.0,1200.0,1201.0,-227.0,-215.0
3824,1186,-243,0,3797.0,3785.0,1196.0,1200.0,-239.0,-227.0
3855,1175,-245,0,3824.0,3797.0,1186.0,1196.0,-243.0,-239.0
3877,1170,-257,0,3855.0,3824.0,1175.0,1186.0,-245.0,-243.0
3889,1175,-273,0,3877.0,3855.0,1170.0,1175.0,-257.0,-245.0
3888,1187,-289,0,3889.0,3877.0,1175.0,1170.0,-273.0,-257.0
3884,1200,-300,0,3888.0,3889.0,1187.0,1175.0,-289.0,-273.0
3879,1218,-304,0,3884.0,3888.0,1200.0,1187.0,-300.0,-289.0
3877,1235,-303,0,3879.0,3884.0,1218.0,1200.0,-304.0,-300.0
3870,1252,-303,0,3877.0,3879.0,1235.0,1218.0,-303.0,-304.0
3860,1269,-300,0,3870.0,3877.0,1252.0,1235.0,-303.0,-303.0
3853,1287,-293,0,3860.0,3870.0,1269.0,1252.0,-300.0,-303.0
3840,1301,-279,0,3853.0,3860.0,1287.0,1269.0,-293.0,-300.0
3833,1313,-265,0,3840.0,3853.0,1301.0,1287.0,-279.0,-293.0
3825,1325,-252,0,3833.0,3840.0,1313.0,1301.0,-265.0,-279.0
3817,1333,-240,0,3825.0,3833.0,1325.0,1313.0,-252.0,-265.0
3812,1339,-230,0,3817.0,3825.0,1333.0,1325.0,-240.0,-252.0
3803,1341,-225,0,3812.0,3817.0,1339.0,1333.0,-230.0,-240.0
3787,1339,-229,0,3803.0,3812.0,1341.0,1339.0,-225.0,-230.0
3778,1338,-237,0,3787.0,3803.0,1339.0,1341.0,-229.0,-225.0
3772,1336,-248,0,3778.0,3787.0,1338.0,1339.0,-237.0,-229.0
3770,1333,-252,0,3772.0,3778.0,1336.0,1338.0,-248.0,-237.0
3764,1331,-262,0,3770.0,3772.0,1333.0,1336.0,-252.0,-248.0
3768,1331,-268,0,3764.0,3770.0,1331.0,1333.0,-262.0,-252.0
3770,1328,-270,0,3768.0,3764.0,1331.0,1331.0,-268.0,-262.0
3778,1329,-273,0,3770.0,3768.0,1328.0,1331.0,-270.0,-268.0
3786,1335,-277,0,3778.0,3770.0,1329.0,1328.0,-273.0,-270.0
3796,1342,-282,0,3786.0,3778.0,1335.0,1329.0,-277.0,-273.0
3805,1354,-283,0,3796.0,3786.0,1342.0,1335.0,-282.0,-277.0
3810,1366,-286,0,3805.0,3796.0,1354.0,1342.0,-283.0,-282.0
3813,1378,-289,0,3810.0,3805.0,1366.0,1354.0,-286.0,-283.0
3821,1394,-300,0,3813.0,3810.0,1378.0,1366.0,-289.0,-286.0
3822,1412,-312,0,3821.0,3813.0,1394.0,1378.0,-300.0,-289.0
3823,1428,-321,0,3822.0,3821.0,1412.0,1394.0,-312.0,-300.0
3824,1448,-331,0,3823.0,3822.0,1428.0,1412.0,-321.0,-312.0
3828,1461,-337,0,3824.0,3823.0,1448.0,1428.0,-331.0,-321.0
3831,1476,-342,0,3828.0,3824.0,1461.0,1448.0,-337.0,-331.0
3836,1491,-342,0,3831.0,3828.0,1476.0,1461.0,-342.0,-337.0
3837,1499,-343,0,3836.0,3831.0,1491.0,1476.0,-342.0,-342.0
3840,1507,-341,0,3837.0,3836.0,1499.0,1491.0,-343.0,-342.0
3841,1511,-337,0,3840.0,3837.0,1507.0,1499.0,-341.0,-343.0
3836,1518,-334,0,3841.0,3840.0,1511.0,1507.0,-337.0,-341.0
3830,1522,-328,0,3836.0,3841.0,1518.0,1511.0,-334.0,-337.0
3826,1525,-325,0,3830.0,3836.0,1522.0,1518.0,-328.0,-334.0
3821,1527,-318,0,3826.0,3830.0,1525.0,1522.0,-325.0,-328.0
3810,1527,-313,0,3821.0,3826.0,1527.0,1525.0,-318.0,-325.0
3803,1530,-311,0,3810.0,3821.0,1527.0,1527.0,-313.0,-318.0
3796,1529,-310,0,3803.0,3810.0,1530.0,1527.0,-311.0,-313.0
3791,1531,-305,0,3796.0,3803.0,1529.0,1530.0,-310.0,-311.0
3788,1538,-307,0,3791.0,3796.0,1531.0,1529.0,-305.0,-310.0
3789,1539,-305,0,3788.0,3791.0,1538.0,1531.0,-307.0,-305.0
3786,1545,-305,0,3789.0,3788.0,1539.0,1538.0,-305.0,-307.0
3786,1551,-306,0,3786.0,3789.0,1545.0,1539.0,-305.0,-305.0
3786,1556,-308,0,3786.0,3786.0,1551.0,1545.0,-306.0,-305.0
3788,1562,-313,0,3786.0,3786.0,1556.0,1551.0,-308.0,-306.0
3789,1571,-322,0,3788.0,3786.0,1562.0,1556.0,-313.0,-308.0
3790,1575,-332,0,3789.0,3788.0,1571.0,1562.0,-322.0,-313.0
3791,1583,-347,0,3790.0,3789.0,1575.0,1571.0,-332.0,-322.0
3795,1595,-353,0,3791.0,3790.0,1583.0,1575.0,-347.0,-332.0
3796,1611,-361,0,3795.0,3791.0,1595.0,1583.0,-353.0,-347.0
3803,1623,-366,0,3796.0,3795.0,1611.0,1595.0,-361.0,-353.0
3799,1641,-377,0,3803.0,3796.0,1623.0,1611.0,-366.0,-361.0
3796,1660,-386,0,3799.0,3803.0,1641.0,1623.0,-377.0,-366.0
3786,1682,-395,0,3796.0,3799.0,1660.0,1641.0,-386.0,-377.0
3776,1697,-395,0,3786.0,3796.0,1682.0,1660.0,-395.0,-386.0
3771,1715,-380,0,3776.0,3786.0,1697.0,1682.0,-395.0,-395.0
3769,1728,-357,0,3771.0,3776.0,1715.0,1697.0,-380.0,-395.0
3770,1746,-329,0,3769.0,3771.0,1728.0,1715.0,-357.0,-380.0
3767,1765,-298,0,3770.0,3769.0,1746.0,1728.0,-329.0,-357.0
3766,1787,-269,0,3767.0,3770.0,1765.0,1746.0,-298.0,-329.0
3764,1810,-241,0,3766.0,3767.0,1787.0,1765.0,-269.0,-298.0
3760,1831,-222,0,3764.0,3766.0,1810.0,1787.0,-241.0,-269.0
3758,1847,-208,0,3760.0,3764.0,1831.0,1810.0,-222.0,-241.0
3745,1858,-205,0,3758.0,3760.0,1847.0,1831.0,-208.0,-222.0
3724,1865,-210,0,3745.0,3758.0,1858.0,1847.0,-205.0,-208.0
3717,1854,-232,0,3724.0,3745.0,1865.0,1858.0,-210.0,-205.0
3708,1847,-248,0,3717.0,3724.0,1854.0,1865.0,-232.0,-210.0
3700,1843,-253,0,3708.0,3717.0,1847.0,1854.0,-248.0,-232.0
3689,1834,-256,0,3700.0,3708.0,1843.0,1847.0,-253.0,-248.0
3681,1819,-260,0,3689.0,3700.0,1834.0,1843.0,-256.0,-253.0
3673,1801,-261,0,3681.0,3689.0,1819.0,1834.0,-260.0,-256.0
3667,1796,-255,0,3673.0,3681.0,1801.0,1819.0,-261.0,-260.0
3660,1786,-249,0,3667.0,3673.0,1796.0,1801.0,-255.0,-261.0
3650,1777,-247,0,3660.0,3667.0,1786.0,1796.0,-249.0,-255.0
3634,1773,-247,0,3650.0,3660.0,1777.0,1786.0,-247.0,-249.0
3618,1772,-248,0,3634.0,3650.0,1773.0,1777.0,-247.0,-247.0
3601,1771,-246,0,3618.0,3634.0,1772.0,1773.0,-248.0,-247.0
3583,1765,-241,0,3601.0,3618.0,1771.0,1772.0,-246.0,-248.0
3559,1760,-239,0,3583.0,3601.0,1765.0,1771.0,-241.0,-246.0
3544,1752,-236,0,3559.0,3583.0,1760.0,1765.0,-239.0,-241.0
3532,1744,-236,0,3544.0,3559.0,1752.0,1760.0,-236.0,-239.0
3518,1731,-232,0,3532.0,3544.0,1744.0,1752.0,-236.0,-236.0
3511,1718,-226,0,3518.0,3532.0,1731.0,1744.0,-232.0,-236.0
3505,1703,-216,0,3511.0,3518.0,1718.0,1731.0,-226.0,-232.0
3508,1688,-204,0,3505.0,3511.0,1703.0,1718.0,-216.0,-226.0
3514,1666,-187,0,3508.0,3505.0,1688.0,1703.0,-204.0,-216.0
3529,1649,-170,0,3514.0,3508.0,1666.0,1688.0,-187.0,-204.0
3541,1634,-147,0,3529.0,3514.0,1649.0,1666.0,-170.0,-187.0
3551,1618,-127,0,3541.0,3529.0,1634.0,1649.0,-147.0,-170.0
3565,1600,-107,0,3551.0,3541.0,1618.0,1634.0,-127.0,-147.0
3586,1581,-85,0,3565.0,3551.0,1600.0,1618.0,-107.0,-127.0
3610,1556,-56,0,3586.0,3565.0,1581.0,1600.0,-85.0,-107.0
3631,1530,-23,0,3610.0,3586.0,1556.0,1581.0,-56.0,-85.0
3655,1497,14,0,3631.0,3610.0,1530.0,1556.0,-23.0,-56.0
3674,1461,42,0,3655.0,3631.0,1497.0,1530.0,14.0,-23.0
3689,1417,65,0,3674.0,3655.0,1461.0,1497.0,42.0,14.0
3707,1375,85,0,3689.0,3674.0,1417.0,1461.0,65.0,42.0
3720,1334,98,0,3707.0,3689.0,1375.0,1417.0,85.0,65.0
3728,1289,107,0,3720.0,3707.0,1334.0,1375.0,98.0,85.0
3730,1254,116,0,3728.0,3720.0,1289.0,1334.0,107.0,98.0
3734,1220,127,0,3730.0,3728.0,1254.0,1289.0,116.0,107.0
3735,1193,144,0,3734.0,3730.0,1220.0,1254.0,127.0,116.0
3739,1175,158,0,3735.0,3734.0,1193.0,1220.0,144.0,127.0
3742,1166,177,0,3739.0,3735.0,1175.0,1193.0,158.0,144.0
3751,1161,199,0,3742.0,3739.0,1166.0,1175.0,177.0,158.0
3760,1154,223,0,3751.0,3742.0,1161.0,1166.0,199.0,177.0
3768,1141,250,0,3760.0,3751.0,1154.0,1161.0,223.0,199.0
3779,1130,275,0,3768.0,3760.0,1141.0,1154.0,250.0,223.0
3792,1122,295,0,3779.0,3768.0,1130.0,1141.0,275.0,250.0
3799,1107,308,0,3792.0,3779.0,1122.0,1130.0,295.0,275.0
3799,1085,318,0,3799.0,3792.0,1107.0,1122.0,308.0,295.0
3798,1058,325,0,3799.0,3799.0,1085.0,1107.0,318.0,308.0
3793,1032,336,0,3798.0,3799.0,1058.0,1085.0,325.0,318.0
3783,1013,347,0,3793.0,3798.0,1032.0,1058.0,336.0,325.0
3782,994,361,0,3783.0,3793.0,1013.0,1032.0,347.0,336.0
3780,973,380,0,3782.0,3783.0,994.0,1013.0,361.0,347.0
3783,957,393,0,3780.0,3782.0,973.0,994.0,380.0,361.0
3787,950,407,0,3783.0,3780.0,957.0,973.0,393.0,380.0
3788,946,422,0,3787.0,3783.0,950.0,957.0,407.0,393.0
3793,952,425,0,3788.0,3787.0,946.0,950.0,422.0,407.0
3803,967,426,0,3793.0,3788.0,952.0,946.0,425.0,422.0
3813,985,423,0,3803.0,3793.0,967.0,952.0,426.0,425.0
3829,1012,410,0,3813.0,3803.0,985.0,967.0,423.0,426.0
3846,1045,399,0,3829.0,3813.0,1012.0,985.0,410.0,423.0
3869,1071,382,0,3846.0,3829.0,1045.0,1012.0,399.0,410.0
3894,1102,365,0,3869.0,3846.0,1071.0,1045.0,382.0,399.0
3914,1135,348,0,3894.0,3869.0,1102.0,1071.0,365.0,382.0
3934,1161,330,0,3914.0,3894.0,1135.0,1102.0,348.0,365.0
3952,1189,310,0,3934.0,3914.0,1161.0,1135.0,330.0,348.0
3963,1226,303,0,3952.0,3934.0,1189.0,1161.0,310.0,330.0
3964,1260,300,0,3963.0,3952.0,1226.0,1189.0,303.0,310.0
3957,1299,292,0,3964.0,3963.0,1260.0,1226.0,300.0,303.0
3941,1331,280,0,3957.0,3964.0,1299.0,1260.0,292.0,300.0
3920,1363,279,0,3941.0,3957.0,1331.0,1299.0,280.0,292.0
3899,1394,279,0,3920.0,3941.0,1363.0,1331.0,279.0,280.0
3870,1422,283,0,3899.0,3920.0,1394.0,1363.0,279.0,279.0
3841,1445,294,0,3870.0,3899.0,1422.0,1394.0,283.0,279.0
3808,1465,309,0,3841.0,3870.0,1445.0,1422.0,294.0,283.0
3780,1479,326,0,3808.0,3841.0,1465.0,1445.0,309.0,294.0
3750,1481,346,0,3780.0,3808.0,1479.0,1465.0,326.0,309.0
3723,1473,358,0,3750.0,3780.0,1481.0,1479.0,346.0,326.0
3696,1462,366,0,3723.0,3750.0,1473.0,1481.0,358.0,346.0
3666,1452,368,0,3696.0,3723.0,1462.0,1473.0,366.0,358.0
3632,1440,358,0,3666.0,3696.0,1452.0,1462.0,368.0,366.0
3599,1421,344,0,3632.0,3666.0,1440.0,1452.0,358.0,368.0
3566,1406,326,0,3599.0,3632.0,1421.0,1440.0,344.0,358.0
3541,1395,313,0,3566.0,3599.0,1406.0,1421.0,326.0,344.0
3524,1382,310,0,3541.0,3566.0,1395.0,1406.0,313.0,326.0
3516,1372,309,0,3524.0,3541.0,1382.0,1395.0,310.0,313.0
3521,1361,318,0,3516.0,3524.0,1372.0,1382.0,309.0,310.0
3530,1354,326,0,3521.0,3516.0,1361.0,1372.0,318.0,309.0
3544,1352,333,0,3530.0,3521.0,1354.0,1361.0,326.0,318.0
3552,1351,341,0,3544.0,3530.0,1352.0,1354.0,333.0,326.0
3563,1346,348,0,3552.0,3544.0,1351.0,1352.0,341.0,333.0
3568,1342,339,0,3563.0,3552.0,1346.0,1351.0,348.0,341.0
3574,1341,321,0,3568.0,3563.0,1342.0,1346.0,339.0,348.0
3584,1338,304,0,3574.0,3568.0,1341.0,1342.0,321.0,339.0
3599,1332,290,0,3584.0,3574.0,1338.0,1341.0,304.0,321.0
3618,1328,284,0,3599.0,3584.0,1332.0,1338.0,290.0,304.0
3640,1324,281,0,3618.0,3599.0,1328.0,1332.0,284.0,290.0
3662,1326,275,0,3640.0,3618.0,1324.0,1328.0,281.0,284.0
3693,1327,276,0,3662.0,3640.0,1326.0,1324.0,275.0,281.0
3724,1324,286,0,3693.0,3662.0,1327.0,1326.0,276.0,275.0
3755,1314,301,0,3724.0,3693.0,1324.0,1327.0,286.0,276.0
3787,1300,310,0,3755.0,3724.0,1314.0,1324.0,301.0,286.0
3808,1289,320,0,3787.0,3755.0,1300.0,1314.0,310.0,301.0
3823,1273,333,0,3808.0,3787.0,1289.0,1300.0,320.0,310.0
3835,1258,329,0,3823.0,3808.0,1273.0,1289.0,333.0,320.0
3840,1246,323,0,3835.0,3823.0,1258.0,1273.0,329.0,333.0
3844,1234,321,0,3840.0,3835.0,1246.0,1258.0,323.0,329.0
3841,1222,323,0,3844.0,3840.0,1234.0,1246.0,321.0,323.0
3842,1208,333,0,3841.0,3844.0,1222.0,1234.0,323.0,321.0
3842,1200,349,0,3842.0,3841.0,1208.0,1222.0,333.0,323.0
3845,1193,363,0,3842.0,3842.0,1200.0,1208.0,349.0,333.0
3837,1187,373,0,3845.0,3842.0,1193.0,1200.0,363.0,349.0
3824,1177,384,0,3837.0,3845.0,1187.0,1193.0,373.0,363.0
3808,1167,392,0,3824.0,3837.0,1177.0,1187.0,384.0,373.0
3791,1164,391,0,3808.0,3824.0,1167.0,1177.0,392.0,384.0
3773,1159,389,0,3791.0,3808.0,1164.0,1167.0,391.0,392.0
3758,1150,388,0,3773.0,3791.0,1159.0,1164.0,389.0,391.0
3748,1138,392,0,3758.0,3773.0,1150.0,1159.0,388.0,389.0
3742,1133,394,0,3748.0,3758.0,1138.0,1150.0,392.0,388.0
3743,1136,390,0,3742.0,3748.0,1133.0,1138.0,394.0,392.0
3743,1148,386,0,3743.0,3742.0,1136.0,1133.0,390.0,394.0
3754,1157,390,0,3743.0,3743.0,1148.0,1136.0,386.0,390.0
3778,1173,398,0,3754.0,3743.0,1157.0,1148.0,390.0,386.0
3808,1195,400,0,3778.0,3754.0,1173.0,1157.0,398.0,390.0
3835,1214,394,0,3808.0,3778.0,1195.0,1173.0,400.0,398.0
3861,1237,387,0,3835.0,3808.0,1214.0,1195.0,394.0,400.0
3888,1250,382,0,3861.0,3835.0,1237.0,1214.0,387.0,394.0
3917,1259,378,0,3888.0,3861.0,1250.0,1237.0,382.0,387.0
3943,1268,378,0,3917.0,3888.0,1259.0,1250.0,378.0,382.0
3964,1282,369,0,3943.0,3917.0,1268.0,1259.0,378.0,378.0
3973,1299,350,0,3964.0,3943.0,1282.0,1268.0,369.0,378.0
3978,1323,327,0,3973.0,3964.0,1299.0,1282.0,350.0,369.0
3977,1355,297,0,3978.0,3973.0,1323.0,1299.0,327.0,350.0
3976,1387,268,0,3977.0,3978.0,1355.0,1323.0,297.0,327.0
3971,1427,233,0,3976.0,3977.0,1387.0,1355.0,268.0,297.0
3965,1478,198,0,3971.0,3976.0,1427.0,1387.0,233.0,268.0
3960,1529,167,0,3965.0,3971.0,1478.0,1427.0,198.0,233.0
3958,1576,141,0,3960.0,3965.0,1529.0,1478.0,167.0,198.0
3965,1618,126,0,3958.0,3960.0,1576.0,1529.0,141.0,167.0
3969,1650,125,0,3965.0,3958.0,1618.0,1576.0,126.0,141.0
3973,1665,134,0,3969.0,3965.0,1650.0,1618.0,125.0,126.0
3971,1665,147,0,3973.0,3969.0,1665.0,1650.0,134.0,125.0
3960,1651,163,0,3971.0,3973.0,1665.0,1665.0,147.0,134.0
3947,1630,180,0,3960.0,3971.0,1651.0,1665.0,163.0,147.0
3922,1602,193,0,3947.0,3960.0,1630.0,1651.0,180.0,163.0
3887,1575,199,0,3922.0,3947.0,1602.0,1630.0,193.0,180.0
3845,1551,211,0,3887.0,3922.0,1575.0,1602.0,199.0,193.0
3800,1533,213,0,3845.0,3887.0,1551.0,1575.0,211.0,199.0
3757,1516,221,0,3800.0,3845.0,1533.0,1551.0,213.0,211.0
3716,1497,227,0,3757.0,3800.0,1516.0,1533.0,221.0,213.0
3684,1482,245,0,3716.0,3757.0,1497.0,1516.0,227.0,221.0
3660,1461,264,0,3684.0,3716.0,1482.0,1497.0,245.0,227.0
3642,1434,274,0,3660.0,3684.0,1461.0,1482.0,264.0,245.0
3625,1405,273,0,3642.0,3660.0,1434.0,1461.0,274.0,264.0
3609,1366,264,0,3625.0,3642.0,1405.0,1434.0,273.0,274.0
3602,1328,250,0,3609.0,3625.0,1366.0,1405.0,264.0,273.0
3602,1294,236,0,3602.0,3609.0,1328.0,1366.0,250.0,264.0
3608,1259,222,0,3602.0,3602.0,1294.0,1328.0,236.0,250.0
3621,1236,207,0,3608.0,3602.0,1259.0,1294.0,222.0,236.0
3638,1216,193,0,3621.0,3608.0,1236.0,1259.0,207.0,222.0
3650,1209,178,0,3638.0,3621.0,1216.0,1236.0,193.0,207.0
3653,1207,155,0,3650.0,3638.0,1209.0,1216.0,178.0,193.0
3655,1211,126,0,3653.0,3650.0,1207.0,1209.0,155.0,178.0
3659,1214,105,0,3655.0,3653.0,1211.0,1207.0,126.0,155.0
3678,1221,97,0,3659.0,3655.0,1214.0,1211.0,105.0,126.0
3706,1236,94,0,3678.0,3659.0,1221.0,1214.0,97.0,105.0
3723,1254,87,0,3706.0,3678.0,1236.0,1221.0,94.0,97.0
3733,1280,64,0,3723.0,3706.0,1254.0,1236.0,87.0,94.0
3722,1304,33,0,3733.0,3723.0,1280.0,1254.0,64.0,87.0
3706,1330,-3,0,3722.0,3733.0,1304.0,1280.0,33.0,64.0
3697,1369,-15,0,3706.0,3722.0,1330.0,1304.0,-3.0,33.0
3712,1409,-6,0,3697.0,3706.0,1369.0,1330.0,-15.0,-3.0
3743,1460,26,0,3712.0,3697.0,1409.0,1369.0,-6.0,-15.0
3796,1517,71,0,3743.0,3712.0,1460.0,1409.0,26.0,-6.0
3849,1568,104,0,3796.0,3743.0,1517.0,1460.0,71.0,26.0
3893,1603,111,0,3849.0,3796.0,1568.0,1517.0,104.0,71.0
3914,1627,90,0,3893.0,3849.0,1603.0,1568.0,111.0,104.0
3913,1638,63,0,3914.0,3893.0,1627.0,1603.0,90.0,111.0
3906,1637,35,0,3913.0,3914.0,1638.0,1627.0,63.0,90.0
3885,1617,7,0,3906.0,3913.0,1637.0,1638.0,35.0,63.0
3864,1584,-14,0,3885.0,3906.0,1617.0,1637.0,7.0,35.0
3844,1545,-13,0,3864.0,3885.0,1584.0,1617.0,-14.0,7.0
3830,1510,-1,0,3844.0,3864.0,1545.0,1584.0,-13.0,-14.0
3811,1490,6,0,3830.0,3844.0,1510.0,1545.0,-1.0,-13.0
3778,1482,0,0,3811.0,3830.0,1490.0,1510.0,6.0,-1.0
3737,1477,-19,0,3778.0,3811.0,1482.0,1490.0,0.0,6.0
3699,1482,-39,0,3737.0,3778.0,1477.0,1482.0,-19.0,0.0
3679,1496,-45,0,3699.0,3737.0,1482.0,1477.0,-39.0,-19.0
3689,1503,-28,0,3679.0,3699.0,1496.0,1482.0,-45.0,-39.0
3710,1504,-9,0,3689.0,3679.0,1503.0,1496.0,-28.0,-45.0
3717,1501,-7,0,3710.0,3689.0,1504.0,1503.0,-9.0,-28.0
3699,1497,-34,0,3717.0,3710.0,1501.0,1504.0,-7.0,-9.0
3676,1481,-78,0,3699.0,3717.0,1497.0,1501.0,-34.0,-7.0
3650,1460,-127,0,3676.0,3699.0,1481.0,1497.0,-78.0,-34.0
3624,1436,-165,0,3650.0,3676.0,1460.0,1481.0,-127.0,-78.0
3601,1414,-205,0,3624.0,3650.0,1436.0,1460.0,-165.0,-127.0
3582,1401,-236,0,3601.0,3624.0,1414.0,1436.0,-205.0,-165.0
3567,1405,-264,0,3582.0,3601.0,1401.0,1414.0,-236.0,-205.0
3561,1421,-283,0,3567.0,3582.0,1405.0,1401.0,-264.0,-236.0
3568,1456,-293,0,3561.0,3567.0,1421.0,1405.0,-283.0,-264.0
3586,1489,-284,0,3568.0,3561.0,1456.0,1421.0,-293.0,-283.0
3609,1514,-271,0,3586.0,3568.0,1489.0,1456.0,-284.0,-293.0
3624,1524,-256,0,3609.0,3586.0,1514.0,1489.0,-271.0,-284.0
3639,1516,-244,0,3624.0,3609.0,1524.0,1514.0,-256.0,-271.0
3642,1501,-248,0,3639.0,3624.0,1516.0,1524.0,-244.0,-256.0
3637,1482,-262,0,3642.0,3639.0,1501.0,1516.0,-248.0,-244.0
3624,1463,-294,0,3637.0,3642.0,1482.0,1501.0,-262.0,-248.0
3613,1452,-334,0,3624.0,3637.0,1463.0,1482.0,-294.0,-262.0
3594,1468,-373,0,3613.0,3624.0,1452.0,1463.0,-334.0,-294.0
3582,1507,-393,0,3594.0,3613.0,1468.0,1452.0,-373.0,-334.0
3586,1561,-393,0,3582.0,3594.0,1507.0,1468.0,-393.0,-373.0
3605,1626,-373,0,3586.0,3582.0,1561.0,1507.0,-393.0,-393.0
3633,1694,-331,0,3605.0,3586.0,1626.0,1561.0,-373.0,-393.0
3670,1755,-280,0,3633.0,3605.0,1694.0,1626.0,-331.0,-373.0
3712,1807,-229,0,3670.0,3633.0,1755.0,1694.0,-280.0,-331.0
3748,1841,-187,0,3712.0,3670.0,1807.0,1755.0,-229.0,-280.0
3773,1863,-167,0,3748.0,3712.0,1841.0,1807.0,-187.0,-229.0
3795,1874,-150,0,3773.0,3748.0,1863.0,1841.0,-167.0,-187.0
3806,1884,-135,0,3795.0,3773.0,1874.0,1863.0,-150.0,-167.0
3814,1887,-131,0,3806.0,3795.0,1884.0,1874.0,-135.0,-150.0
3815,1886,-139,0,3814.0,3806.0,1887.0,1884.0,-131.0,-135.0
3810,1888,-151,0,3815.0,3814.0,1886.0,1887.0,-139.0,-131.0
3800,1889,-170,0,3810.0,3815.0,1888.0,1886.0,-151.0,-139.0
3791,1889,-185,0,3800.0,3810.0,1889.0,1888.0,-170.0,-151.0
3786,1883,-193,0,3791.0,3800.0,1889.0,1889.0,-185.0,-170.0
3783,1866,-202,0,3786.0,3791.0,1883.0,1889.0,-193.0,-185.0
3781,1849,-212,0,3783.0,3786.0,1866.0,1883.0,-202.0,-193.0
3778,1823,-220,0,3781.0,3783.0,1849.0,1866.0,-212.0,-202.0
3773,1788,-239,0,3778.0,3781.0,1823.0,1849.0,-220.0,-212.0
3772,1739,-257,0,3773.0,3778.0,1788.0,1823.0,-239.0,-220.0
3766,1680,-275,0,3772.0,3773.0,1739.0,1788.0,-257.0,-239.0
3765,1617,-298,0,3766.0,3772.0,1680.0,1739.0,-275.0,-257.0
3760,1544,-321,0,3765.0,3766.0,1617.0,1680.0,-298.0,-275.0
3758,1468,-345,0,3760.0,3765.0,1544.0,1617.0,-321.0,-298.0
3758,1393,-371,0,3758.0,3760.0,1468.0,1544.0,-345.0,-321.0
3758,1323,-406,0,3758.0,3758.0,1393.0,1468.0,-371.0,-345.0
3757,1253,-439,0,3758.0,3758.0,1323.0,1393.0,-406.0,-371.0
3761,1188,-470,0,3757.0,3758.0,1253.0,1323.0,-439.0,-406.0
3770,1134,-500,0,3761.0,3757.0,1188.0,1253.0,-470.0,-439.0
3793,1081,-514,0,3770.0,3761.0,1134.0,1188.0,-500.0,-470.0
3812,1033,-512,0,3793.0,3770.0,1081.0,1134.0,-514.0,-500.0
3834,995,-509,0,3812.0,3793.0,1033.0,1081.0,-512.0,-514.0
3855,961,-502,0,3834.0,3812.0,995.0,1033.0,-509.0,-512.0
3867,932,-500,0,3855.0,3834.0,961.0,995.0,-502.0,-509.0
3875,914,-499,0,3867.0,3855.0,932.0,961.0,-500.0,-502.0
3875,900,-501,0,3875.0,3867.0,914.0,932.0,-499.0,-500.0
3875,894,-497,0,3875.0,3875.0,900.0,914.0,-501.0,-499.0
3877,896,-492,0,3875.0,3875.0,894.0,900.0,-497.0,-501.0
3891,901,-475,0,3877.0,3875.0,896.0,894.0,-492.0,-497.0
3902,925,-452,0,3891.0,3877.0,901.0,896.0,-475.0,-492.0
3916,962,-430,0,3902.0,3891.0,925.0,901.0,-452.0,-475.0
3929,1009,-416,0,3916.0,3902.0,962.0,925.0,-430.0,-452.0
3943,1059,-400,0,3929.0,3916.0,1009.0,962.0,-416.0,-430.0
3953,1108,-384,0,3943.0,3929.0,1059.0,1009.0,-400.0,-416.0
3966,1154,-370,0,3953.0,3943.0,1108.0,1059.0,-384.0,-400.0
3978,1191,-358,0,3966.0,3953.0,1154.0,1108.0,-370.0,-384.0
3985,1221,-359,0,3978.0,3966.0,1191.0,1154.0,-358.0,-370.0
3987,1249,-368,0,3985.0,3978.0,1221.0,1191.0,-359.0,-358.0
3981,1265,-377,0,3987.0,3985.0,1249.0,1221.0,-368.0,-359.0
3974,1281,-386,0,3981.0,3987.0,1265.0,1249.0,-377.0,-368.0
3963,1287,-386,0,3974.0,3981.0,1281.0,1265.0,-386.0,-377.0
3950,1281,-380,0,3963.0,3974.0,1287.0,1281.0,-386.0,-386.0
3946,1268,-368,0,3950.0,3963.0,1281.0,1287.0,-380.0,-386.0
3941,1238,-353,0,3946.0,3950.0,1268.0,1281.0,-368.0,-380.0
3929,1207,-331,0,3941.0,3946.0,1238.0,1268.0,-353.0,-368.0
3917,1171,-313,0,3929.0,3941.0,1207.0,1238.0,-331.0,-353.0
3904,1136,-305,0,3917.0,3929.0,1171.0,1207.0,-313.0,-331.0
3894,1108,-287,0,3904.0,3917.0,1136.0,1171.0,-305.0,-313.0
3889,1085,-264,0,3894.0,3904.0,1108.0,1136.0,-287.0,-305.0
3888,1064,-241,0,3889.0,3894.0,1085.0,1108.0,-264.0,-287.0
3890,1050,-221,0,3888.0,3889.0,1064.0,1085.0,-241.0,-264.0
3887,1035,-205,0,3890.0,3888.0,1050.0,1064.0,-221.0,-241.0
3880,1014,-193,0,3887.0,3890.0,1035.0,1050.0,-205.0,-221.0
3866,993,-197,0,3880.0,3887.0,1014.0,1035.0,-193.0,-205.0
3857,969,-201,0,3866.0,3880.0,993.0,1014.0,-197.0,-193.0
3848,951,-208,0,3857.0,3866.0,969.0,993.0,-201.0,-197.0
3841,931,-216,0,3848.0,3857.0,951.0,969.0,-208.0,-201.0
3840,923,-225,0,3841.0,3848.0,931.0,951.0,-216.0,-208.0
3840,922,-237,0,3840.0,3841.0,923.0,931.0,-225.0,-216.0
3844,932,-248,0,3840.0,3840.0,922.0,923.0,-237.0,-225.0
3852,948,-251,0,3844.0,3840.0,932.0,922.0,-248.0,-237.0
3858,966,-250,0,3852.0,3844.0,948.0,932.0,-251.0,-248.0
3868,978,-257,0,3858.0,3852.0,966.0,948.0,-250.0,-251.0
3873,991,-267,0,3868.0,3858.0,978.0,966.0,-257.0,-250.0
3880,992,-280,0,3873.0,3868.0,991.0,978.0,-267.0,-257.0
3891,990,-298,0,3880.0,3873.0,992.0,991.0,-280.0,-267.0
3899,981,-309,0,3891.0,3880.0,990.0,992.0,-298.0,-280.0
3908,979,-319,0,3899.0,3891.0,981.0,990.0,-309.0,-298.0
3912,980,-329,0,3908.0,3899.0,979.0,981.0,-319.0,-309.0
3924,989,-337,0,3912.0,3908.0,980.0,979.0,-329.0,-319.0
3928,1008,-339,0,3924.0,3912.0,989.0,980.0,-337.0,-329.0
3929,1021,-343,0,3928.0,3924.0,1008.0,989.0,-339.0,-337.0
3929,1033,-345,0,3929.0,3928.0,1021.0,1008.0,-343.0,-339.0
3924,1043,-347,0,3929.0,3929.0,1033.0,1021.0,-345.0,-343.0
3915,1050,-355,0,3924.0,3929.0,1043.0,1033.0,-347.0,-345.0
3898,1053,-373,0,3915.0,3924.0,1050.0,1043.0,-355.0,-347.0
3881,1055,-387,0,3898.0,3915.0,1053.0,1050.0,-373.0,-355.0
3865,1063,-397,0,3881.0,3898.0,1055.0,1053.0,-387.0,-373.0
3849,1079,-408,0,3865.0,3881.0,1063.0,1055.0,-397.0,-387.0
3840,1101,-411,0,3849.0,3865.0,1079.0,1063.0,-408.0,-397.0
3830,1123,-414,0,3840.0,3849.0,1101.0,1079.0,-411.0,-408.0
3821,1147,-415,0,3830.0,3840.0,1123.0,1101.0,-414.0,-411.0
3819,1167,-417,0,3821.0,3830.0,1147.0,1123.0,-415.0,-414.0
3821,1189,-411,0,3819.0,3821.0,1167.0,1147.0,-417.0,-415.0
3821,1205,-404,0,3821.0,3819.0,1189.0,1167.0,-411.0,-417.0
3816,1225,-410,0,3821.0,3821.0,1205.0,1189.0,-404.0,-411.0
3807,1242,-416,0,3816.0,3821.0,1225.0,1205.0,-410.0,-404.0
3805,1258,-419,0,3807.0,3816.0,1242.0,1225.0,-416.0,-410.0
3810,1271,-421,0,3805.0,3807.0,1258.0,1242.0,-419.0,-416.0
3815,1284,-426,0,3810.0,3805.0,1271.0,1258.0,-421.0,-419.0
3821,1293,-440,0,3815.0,3810.0,1284.0,1271.0,-426.0,-421.0
3833,1298,-448,0,3821.0,3815.0,1293.0,1284.0,-440.0,-426.0
3849,1302,-454,0,3833.0,3821.0,1298.0,1293.0,-448.0,-440.0
3869,1296,-451,0,3849.0,3833.0,1302.0,1298.0,-454.0,-448.0
3890,1284,-446,0,3869.0,3849.0,1296.0,1302.0,-451.0,-454.0
3911,1276,-444,0,3890.0,3869.0,1284.0,1296.0,-446.0,-451.0
3923,1264,-456,0,3911.0,3890.0,1276.0,1284.0,-444.0,-446.0
3928,1246,-469,0,3923.0,3911.0,1264.0,1276.0,-456.0,-444.0
3930,1234,-486,0,3928.0,3923.0,1246.0,1264.0,-469.0,-456.0
3935,1210,-500,0,3930.0,3928.0,1234.0,1246.0,-486.0,-469.0
3938,1188,-505,0,3935.0,3930.0,1210.0,1234.0,-500.0,-486.0
3942,1167,-512,0,3938.0,3935.0,1188.0,1210.0,-505.0,-500.0
3945,1153,-518,0,3942.0,3938.0,1167.0,1188.0,-512.0,-505.0
3953,1135,-521,0,3945.0,3942.0,1153.0,1167.0,-518.0,-512.0
3958,1119,-525,0,3953.0,3945.0,1135.0,1153.0,-521.0,-518.0
3963,1104,-531,0,3958.0,3953.0,1119.0,1135.0,-525.0,-521.0
3974,1088,-528,0,3963.0,3958.0,1104.0,1119.0,-531.0,-525.0
3983,1074,-529,0,3974.0,3963.0,1088.0,1104.0,-528.0,-531.0
3992,1050,-537,0,3983.0,3974.0,1074.0,1088.0,-529.0,-528.0
3996,1023,-542,0,3992.0,3983.0,1050.0,1074.0,-537.0,-529.0
3996,1001,-554,0,3996.0,3992.0,1023.0,1050.0,-542.0,-537.0
3992,977,-562,0,3996.0,3996.0,1001.0,1023.0,-554.0,-542.0
3986,949,-569,0,3992.0,3996.0,977.0,1001.0,-562.0,-554.0
3980,926,-579,0,3986.0,3992.0,949.0,977.0,-569.0,-562.0
3974,899,-586,0,3980.0,3986.0,926.0,949.0,-579.0,-569.0
3968,873,-588,0,3974.0,3980.0,899.0,926.0,-586.0,-579.0
3970,849,-592,0,3968.0,3974.0,873.0,899.0,-588.0,-586.0
3966,823,-596,0,3970.0,3968.0,849.0,873.0,-592.0,-588.0
3968,803,-602,0,3966.0,3970.0,823.0,849.0,-596.0,-592.0
3973,791,-605,0,3968.0,3966.0,803.0,823.0,-602.0,-596.0
3979,789,-596,0,3973.0,3968.0,791.0,803.0,-605.0,-602.0
3980,801,-578,0,3979.0,3973.0,789.0,791.0,-596.0,-605.0
3984,818,-555,0,3980.0,3979.0,801.0,789.0,-578.0,-596.0
3984,838,-528,0,3984.0,3980.0,818.0,801.0,-555.0,-578.0
3983,861,-500,0,3984.0,3984.0,838.0,818.0,-528.0,-555.0
3976,880,-475,0,3983.0,3984.0,861.0,838.0,-500.0,-528.0
3965,888,-454,0,3976.0,3983.0,880.0,861.0,-475.0,-500.0
3951,891,-444,0,3965.0,3976.0,888.0,880.0,-454.0,-475.0
3934,887,-436,0,3951.0,3965.0,891.0,888.0,-444.0,-454.0
3923,881,-429,0,3934.0,3951.0,887.0,891.0,-436.0,-444.0
3915,874,-417,0,3923.0,3934.0,881.0,887.0,-429.0,-436.0
3907,862,-394,0,3915.0,3923.0,874.0,881.0,-417.0,-429.0
3908,858,-366,0,3907.0,3915.0,862.0,874.0,-394.0,-417.0
3910,859,-343,0,3908.0,3907.0,858.0,862.0,-366.0,-394.0
3912,858,-321,0,3910.0,3908.0,859.0,858.0,-343.0,-366.0
3908,858,-306,0,3912.0,3910.0,858.0,859.0,-321.0,-343.0
3897,859,-300,0,3908.0,3912.0,858.0,858.0,-306.0,-321.0
3884,856,-284,0,3897.0,3908.0,859.0,858.0,-300.0,-306.0
3870,857,-273,0,3884.0,3897.0,856.0,859.0,-284.0,-300.0
3855,858,-274,0,3870.0,3884.0,857.0,856.0,-273.0,-284.0
3831,865,-292,0,3855.0,3870.0,858.0,857.0,-274.0,-273.0
3821,869,-299,0,3831.0,3855.0,865.0,858.0,-292.0,-274.0
3821,869,-295,0,3821.0,3831.0,869.0,865.0,-299.0,-292.0
3829,873,-291,0,3821.0,3821.0,869.0,869.0,-295.0,-299.0
3850,881,-286,0,3829.0,3821.0,873.0,869.0,-291.0,-295.0
3882,889,-279,0,3850.0,3829.0,881.0,873.0,-286.0,-291.0
3919,901,-273,0,3882.0,3850.0,889.0,881.0,-279.0,-286.0
3952,914,-286,0,3919.0,3882.0,901.0,889.0,-273.0,-279.0
3981,933,-310,0,3952.0,3919.0,914.0,901.0,-286.0,-273.0
4003,947,-342,0,3981.0,3952.0,933.0,914.0,-310.0,-286.0
4027,971,-367,0,4003.0,3981.0,947.0,933.0,-342.0,-310.0
4049,1003,-387,0,4027.0,4003.0,971.0,947.0,-367.0,-342.0
4064,1047,-397,0,4049.0,4027.0,1003.0,971.0,-387.0,-367.0
4070,1097,-398,0,4064.0,4049.0,1047.0,1003.0,-397.0,-387.0
4052,1155,-402,0,4070.0,4064.0,1097.0,1047.0,-398.0,-397.0
4022,1206,-400,0,4052.0,4070.0,1155.0,1097.0,-402.0,-398.0
3984,1247,-388,0,4022.0,4052.0,1206.0,1155.0,-400.0,-402.0
3937,1268,-370,0,3984.0,4022.0,1247.0,1206.0,-388.0,-400.0
3891,1272,-354,0,3937.0,3984.0,1268.0,1247.0,-370.0,-388.0
3841,1256,-343,0,3891.0,3937.0,1272.0,1268.0,-354.0,-370.0
3795,1221,-342,0,3841.0,3891.0,1256.0,1272.0,-343.0,-354.0
3760,1173,-337,0,3795.0,3841.0,1221.0,1256.0,-342.0,-343.0
3736,1118,-336,0,3760.0,3795.0,1173.0,1221.0,-337.0,-342.0
3715,1059,-345,0,3736.0,3760.0,1118.0,1173.0,-336.0,-337.0
3699,1009,-361,0,3715.0,3736.0,1059.0,1118.0,-345.0,-336.0
3692,964,-375,0,3699.0,3715.0,1009.0,1059.0,-361.0,-345.0
3697,925,-382,0,3692.0,3699.0,964.0,1009.0,-375.0,-361.0
3711,897,-387,0,3697.0,3692.0,925.0,964.0,-382.0,-375.0
3726,884,-404,0,3711.0,3697.0,897.0,925.0,-387.0,-382.0
3750,884,-420,0,3726.0,3711.0,884.0,897.0,-404.0,-387.0
3766,903,-445,0,3750.0,3726.0,884.0,884.0,-420.0,-404.0
3788,940,-472,0,3766.0,3750.0,903.0,884.0,-445.0,-420.0
3816,986,-491,0,3788.0,3766.0,940.0,903.0,-472.0,-445.0
3847,1039,-504,0,3816.0,3788.0,986.0,940.0,-491.0,-472.0
3878,1105,-512,0,3847.0,3816.0,1039.0,986.0,-504.0,-491.0
3916,1171,-509,0,3878.0,3847.0,1105.0,1039.0,-512.0,-504.0
3954,1233,-497,0,3916.0,3878.0,1171.0,1105.0,-509.0,-512.0
3982,1287,-483,0,3954.0,3916.0,1233.0,1171.0,-497.0,-509.0
3999,1330,-480,0,3982.0,3954.0,1287.0,1233.0,-483.0,-497.0
4003,1360,-481,0,3999.0,3982.0,1330.0,1287.0,-480.0,-483.0
3991,1373,-480,0,4003.0,3999.0,1360.0,1330.0,-481.0,-480.0
3977,1379,-484,0,3991.0,4003.0,1373.0,1360.0,-480.0,-481.0
3958,1382,-481,0,3977.0,3991.0,1379.0,1373.0,-484.0,-480.0
3936,1385,-468,0,3958.0,3977.0,1382.0,1379.0,-481.0,-484.0
3913,1391,-457,0,3936.0,3958.0,1385.0,1382.0,-468.0,-481.0
3892,1403,-444,0,3913.0,3936.0,1391.0,1385.0,-457.0,-468.0
3876,1423,-424,0,3892.0,3913.0,1403.0,1391.0,-444.0,-457.0
3864,1444,-397,0,3876.0,3892.0,1423.0,1403.0,-424.0,-444.0
3849,1470,-372,0,3864.0,3876.0,1444.0,1423.0,-397.0,-424.0
3826,1497,-361,0,3849.0,3864.0,1470.0,1444.0,-372.0,-397.0
3793,1524,-359,0,3826.0,3849.0,1497.0,1470.0,-361.0,-372.0
3757,1546,-348,0,3793.0,3826.0,1524.0,1497.0,-359.0,-361.0
3722,1567,-332,0,3757.0,3793.0,1546.0,1524.0,-348.0,-359.0
3697,1580,-299,0,3722.0,3757.0,1567.0,1546.0,-332.0,-348.0
3685,1592,-265,0,3697.0,3722.0,1580.0,1567.0,-299.0,-332.0
3677,1600,-229,0,3685.0,3697.0,1592.0,1580.0,-265.0,-299.0
3675,1618,-196,0,3677.0,3685.0,1600.0,1592.0,-229.0,-265.0
3664,1640,-173,0,3675.0,3677.0,1618.0,1600.0,-196.0,-229.0
3645,1664,-160,0,3664.0,3675.0,1640.0,1618.0,-173.0,-196.0
3622,1694,-160,0,3645.0,3664.0,1664.0,1640.0,-160.0,-173.0
3604,1730,-167,0,3622.0,3645.0,1694.0,1664.0,-160.0,-160.0
3590,1764,-174,0,3604.0,3622.0,1730.0,1694.0,-167.0,-160.0
3583,1791,-179,0,3590.0,3604.0,1764.0,1730.0,-174.0,-167.0
3576,1817,-183,0,3583.0,3590.0,1791.0,1764.0,-179.0,-174.0
3574,1838,-187,0,3576.0,3583.0,1817.0,1791.0,-183.0,-179.0
3574,1855,-191,0,3574.0,3576.0,1838.0,1817.0,-187.0,-183.0
3582,1865,-189,0,3574.0,3574.0,1855.0,1838.0,-191.0,-187.0
3600,1868,-184,0,3582.0,3574.0,1865.0,1855.0,-189.0,-191.0
3626,1869,-173,0,3600.0,3582.0,1868.0,1865.0,-184.0,-189.0
3658,1857,-161,0,3626.0,3600.0,1869.0,1868.0,-173.0,-184.0
3694,1843,-148,0,3658.0,3626.0,1857.0,1869.0,-161.0,-173.0
3724,1820,-136,0,3694.0,3658.0,1843.0,1857.0,-148.0,-161.0
3747,1793,-131,0,3724.0,3694.0,1820.0,1843.0,-136.0,-148.0
3770,1761,-137,0,3747.0,3724.0,1793.0,1820.0,-131.0,-136.0
3788,1737,-151,0,3770.0,3747.0,1761.0,1793.0,-137.0,-131.0
3801,1715,-168,0,3788.0,3770.0,1737.0,1761.0,-151.0,-137.0
3810,1690,-191,0,3801.0,3788.0,1715.0,1737.0,-168.0,-151.0
3814,1664,-206,0,3810.0,3801.0,1690.0,1715.0,-191.0,-168.0
3813,1635,-220,0,3814.0,3810.0,1664.0,1690.0,-206.0,-191.0
3808,1608,-231,0,3813.0,3814.0,1635.0,1664.0,-220.0,-206.0
3786,1574,-253,0,3808.0,3813.0,1608.0,1635.0,-231.0,-220.0
3758,1531,-269,0,3786.0,3808.0,1574.0,1608.0,-253.0,-231.0
3736,1478,-271,0,3758.0,3786.0,1531.0,1574.0,-269.0,-253.0
3732,1416,-252,0,3736.0,3758.0,1478.0,1531.0,-271.0,-269.0
3739,1363,-224,0,3732.0,3736.0,1416.0,1478.0,-252.0,-271.0
3747,1314,-195,0,3739.0,3732.0,1363.0,1416.0,-224.0,-252.0
3751,1280,-174,0,3747.0,3739.0,1314.0,1363.0,-195.0,-224.0
3751,1259,-164,0,3751.0,3747.0,1280.0,1314.0,-174.0,-195.0
3753,1251,-159,0,3751.0,3751.0,1259.0,1280.0,-164.0,-174.0
3755,1253,-155,0,3753.0,3751.0,1251.0,1259.0,-159.0,-164.0
3759,1266,-150,0,3755.0,3753.0,1253.0,1251.0,-155.0,-159.0
3769,1276,-141,0,3759.0,3755.0,1266.0,1253.0,-150.0,-155.0
3786,1287,-129,0,3769.0,3759.0,1276.0,1266.0,-141.0,-150.0
3804,1298,-112,0,3786.0,3769.0,1287.0,1276.0,-129.0,-141.0
3818,1312,-105,0,3804.0,3786.0,1298.0,1287.0,-112.0,-129.0
3834,1322,-96,0,3818.0,3804.0,1312.0,1298.0,-105.0,-112.0
3849,1328,-84,0,3834.0,3818.0,1322.0,1312.0,-96.0,-105.0
3864,1339,-65,0,3849.0,3834.0,1328.0,1322.0,-84.0,-96.0
3879,1349,-44,0,3864.0,3849.0,1339.0,1328.0,-65.0,-84.0
3892,1367,-20,0,3879.0,3864.0,1349.0,1339.0,-44.0,-65.0
3905,1389,8,0,3892.0,3879.0,1367.0,1349.0,-20.0,-44.0
3913,1411,39,0,3905.0,3892.0,1389.0,1367.0,8.0,-20.0
3918,1427,79,0,3913.0,3905.0,1411.0,1389.0,39.0,8.0
3914,1436,107,0,3918.0,3913.0,1427.0,1411.0,79.0,39.0
3908,1440,133,0,3914.0,3918.0,1436.0,1427.0,107.0,79.0
3894,1431,156,0,3908.0,3914.0,1440.0,1436.0,133.0,107.0
3872,1421,178,0,3894.0,3908.0,1431.0,1440.0,156.0,133.0
3849,1400,197,0,3872.0,3894.0,1421.0,1431.0,178.0,156.0
3822,1369,216,0,3849.0,3872.0,1400.0,1421.0,197.0,178.0
3791,1339,233,0,3822.0,3849.0,1369.0,1400.0,216.0,197.0
3761,1304,239,0,3791.0,3822.0,1339.0,1369.0,233.0,216.0
3730,1267,248,0,3761.0,3791.0,1304.0,1339.0,239.0,233.0
3701,1230,251,0,3730.0,3761.0,1267.0,1304.0,248.0,239.0
3676,1200,255,0,3701.0,3730.0,1230.0,1267.0,251.0,248.0
3654,1167,253,0,3676.0,3701.0,1200.0,1230.0,255.0,251.0
3631,1136,251,0,3654.0,3676.0,1167.0,1200.0,253.0,255.0
3615,1108,239,0,3631.0,3654.0,1136.0,1167.0,251.0,253.0
3610,1088,224,0,3615.0,3631.0,1108.0,1136.0,239.0,251.0
3607,1072,205,0,3610.0,3615.0,1088.0,1108.0,224.0,239.0
3609,1056,188,0,3607.0,3610.0,1072.0,1088.0,205.0,224.0
3614,1040,169,0,3609.0,3607.0,1056.0,1072.0,188.0,205.0
3622,1030,146,0,3614.0,3609.0,1040.0,1056.0,169.0,188.0
3635,1024,132,0,3622.0,3614.0,1030.0,1040.0,146.0,169.0
3647,1027,125,0,3635.0,3622.0,1024.0,1030.0,132.0,146.0
3656,1038,113,0,3647.0,3635.0,1027.0,1024.0,125.0,132.0
3668,1065,101,0,3656.0,3647.0,1038.0,1027.0,113.0,125.0
3686,1102,102,0,3668.0,3656.0,1065.0,1038.0,101.0,113.0
3702,1151,106,0,3686.0,3668.0,1102.0,1065.0,102.0,101.0
3714,1207,113,0,3702.0,3686.0,1151.0,1102.0,106.0,102.0
3719,1268,122,0,3714.0,3702.0,1207.0,1151.0,113.0,106.0
3719,1343,124,0,3719.0,3714.0,1268.0,1207.0,122.0,113.0
3714,1419,127,0,3719.0,3719.0,1343.0,1268.0,124.0,122.0
3704,1494,134,0,3714.0,3719.0,1419.0,1343.0,127.0,124.0
3696,1566,140,0,3704.0,3714.0,1494.0,1419.0,134.0,127.0
3681,1635,147,0,3696.0,3704.0,1566.0,1494.0,140.0,134.0
3662,1695,156,0,3681.0,3696.0,1635.0,1566.0,147.0,140.0
3645,1748,160,0,3662.0,3681.0,1695.0,1635.0,156.0,147.0
3626,1795,158,0,3645.0,3662.0,1748.0,1695.0,160.0,156.0
3607,1824,162,0,3626.0,3645.0,1795.0,1748.0,158.0,160.0
3592,1844,166,0,3607.0,3626.0,1824.0,1795.0,162.0,158.0
3578,1851,175,0,3592.0,3607.0,1844.0,1824.0,166.0,162.0
3570,1848,189,0,3578.0,3592.0,1851.0,1844.0,175.0,166.0
3566,1835,203,0,3570.0,3578.0,1848.0,1851.0,189.0,175.0
3566,1810,212,0,3566.0,3570.0,1835.0,1848.0,203.0,189.0
3566,1784,220,0,3566.0,3566.0,1810.0,1835.0,212.0,203.0
3571,1747,231,0,3566.0,3566.0,1784.0,1810.0,220.0,212.0
3578,1700,250,0,3571.0,3566.0,1747.0,1784.0,231.0,220.0
3587,1645,254,0,3578.0,3571.0,1700.0,1747.0,250.0,231.0
3586,1593,240,0,3587.0,3578.0,1645.0,1700.0,254.0,250.0
3592,1542,230,0,3586.0,3587.0,1593.0,1645.0,240.0,254.0
3601,1502,221,0,3592.0,3586.0,1542.0,1593.0,230.0,240.0
3623,1471,219,0,3601.0,3592.0,1502.0,1542.0,221.0,230.0
3647,1458,220,0,3623.0,3601.0,1471.0,1502.0,219.0,221.0
3682,1457,224,0,3647.0,3623.0,1458.0,1471.0,220.0,219.0
3723,1464,233,0,3682.0,3647.0,1457.0,1458.0,224.0,220.0
3772,1472,250,0,3723.0,3682.0,1464.0,1457.0,233.0,224.0
3823,1482,265,0,3772.0,3723.0,1472.0,1464.0,250.0,233.0
3869,1486,275,0,3823.0,3772.0,1482.0,1472.0,265.0,250.0
3907,1485,278,0,3869.0,3823.0,1486.0,1482.0,275.0,265.0
3942,1472,277,0,3907.0,3869.0,1485.0,1486.0,278.0,275.0
3969,1450,272,0,3942.0,3907.0,1472.0,1485.0,277.0,278.0
3987,1413,265,0,3969.0,3942.0,1450.0,1472.0,272.0,277.0
3996,1365,261,0,3987.0,3969.0,1413.0,1450.0,265.0,272.0
3991,1317,249,0,3996.0,3987.0,1365.0,1413.0,261.0,265.0
3978,1266,244,0,3991.0,3996.0,1317.0,1365.0,249.0,261.0
3960,1217,244,0,3978.0,3991.0,1266.0,1317.0,244.0,249.0
3933,1172,245,0,3960.0,3978.0,1217.0,1266.0,244.0,244.0
3900,1134,252,0,3933.0,3960.0,1172.0,1217.0,245.0,244.0
3862,1107,262,0,3900.0,3933.0,1134.0,1172.0,252.0,245.0
3819,1093,269,0,3862.0,3900.0,1107.0,1134.0,262.0,252.0
3774,1086,275,0,3819.0,3862.0,1093.0,1107.0,269.0,262.0
3730,1088,294,0,3774.0,3819.0,1086.0,1093.0,275.0,269.0
3689,1104,313,0,3730.0,3774.0,1088.0,1086.0,294.0,275.0
3653,1124,329,0,3689.0,3730.0,1104.0,1088.0,313.0,294.0
3616,1151,342,0,3653.0,3689.0,1124.0,1104.0,329.0,313.0
3582,1177,338,0,3616.0,3653.0,1151.0,1124.0,342.0,329.0
3550,1204,336,0,3582.0,3616.0,1177.0,1151.0,338.0,342.0
3530,1225,330,0,3550.0,3582.0,1204.0,1177.0,336.0,338.0
3521,1243,325,0,3530.0,3550.0,1225.0,1204.0,330.0,336.0
3522,1262,316,0,3521.0,3530.0,1243.0,1225.0,325.0,330.0
3530,1277,318,0,3522.0,3521.0,1262.0,1243.0,316.0,325.0
3544,1294,322,0,3530.0,3522.0,1277.0,1262.0,318.0,316.0
3564,1310,329,0,3544.0,3530.0,1294.0,1277.0,322.0,318.0
3595,1329,332,0,3564.0,3544.0,1310.0,1294.0,329.0,322.0
3621,1350,334,0,3595.0,3564.0,1329.0,1310.0,332.0,329.0
3652,1373,327,0,3621.0,3595.0,1350.0,1329.0,334.0,332.0
3689,1389,327,0,3652.0,3621.0,1373.0,1350.0,327.0,334.0
3737,1394,329,0,3689.0,3652.0,1389.0,1373.0,327.0,327.0
3782,1393,327,0,3737.0,3689.0,1394.0,1389.0,329.0,327.0
3827,1387,321,0,3782.0,3737.0,1393.0,1394.0,327.0,329.0
3878,1376,326,0,3827.0,3782.0,1387.0,1393.0,321.0,327.0
3931,1368,325,0,3878.0,3827.0,1376.0,1387.0,326.0,321.0
3971,1376,311,0,3931.0,3878.0,1368.0,1376.0,325.0,326.0
4002,1396,291,0,3971.0,3931.0,1376.0,1368.0,311.0,325.0
4036,1417,276,0,4002.0,3971.0,1396.0,1376.0,291.0,311.0
4066,1436,270,0,4036.0,4002.0,1417.0,1396.0,276.0,291.0
4087,1447,272,0,4066.0,4036.0,1436.0,1417.0,270.0,276.0
4106,1459,273,0,4087.0,4066.0,1447.0,1436.0,272.0,270.0
4110,1469,265,0,4106.0,4087.0,1459.0,1447.0,273.0,272.0
4106,1478,265,0,4110.0,4106.0,1469.0,1459.0,265.0,273.0
4103,1470,285,0,4106.0,4110.0,1478.0,1469.0,265.0,265.0
4095,1451,311,0,4103.0,4106.0,1470.0,1478.0,285.0,265.0
4072,1428,334,0,4095.0,4103.0,1451.0,1470.0,311.0,285.0
4028,1404,341,0,4072.0,4095.0,1428.0,1451.0,334.0,311.0
3972,1389,347,0,4028.0,4072.0,1404.0,1428.0,341.0,334.0
3912,1364,351,0,3972.0,4028.0,1389.0,1404.0,347.0,341.0
3856,1338,360,0,3912.0,3972.0,1364.0,1389.0,351.0,347.0
3803,1310,366,0,3856.0,3912.0,1338.0,1364.0,360.0,351.0
3751,1282,381,0,3803.0,3856.0,1310.0,1338.0,366.0,360.0
3707,1252,403,0,3751.0,3803.0,1282.0,1310.0,381.0,366.0
3669,1225,422,0,3707.0,3751.0,1252.0,1282.0,403.0,381.0
3640,1205,447,0,3669.0,3707.0,1225.0,1252.0,422.0,403.0
3604,1203,465,0,3640.0,3669.0,1205.0,1225.0,447.0,422.0
3572,1219,471,0,3604.0,3640.0,1203.0,1205.0,465.0,447.0
3552,1240,476,0,3572.0,3604.0,1219.0,1203.0,471.0,465.0
3543,1272,468,0,3552.0,3572.0,1240.0,1219.0,476.0,471.0
3532,1307,449,0,3543.0,3552.0,1272.0,1240.0,468.0,476.0
3532,1340,430,0,3532.0,3543.0,1307.0,1272.0,449.0,468.0
3540,1367,412,0,3532.0,3532.0,1340.0,1307.0,430.0,449.0
3552,1390,391,0,3540.0,3532.0,1367.0,1340.0,412.0,430.0
3566,1410,370,0,3552.0,3540.0,1390.0,1367.0,391.0,412.0
3587,1425,363,0,3566.0,3552.0,1410.0,1390.0,370.0,391.0
3612,1430,363,0,3587.0,3566.0,1425.0,1410.0,363.0,370.0
3638,1430,358,0,3612.0,3587.0,1430.0,1425.0,363.0,363.0
3658,1431,355,0,3638.0,3612.0,1430.0,1430.0,358.0,363.0
3674,1429,354,0,3658.0,3638.0,1431.0,1430.0,355.0,358.0
3685,1432,356,0,3674.0,3658.0,1429.0,1431.0,354.0,355.0
3696,1432,366,0,3685.0,3674.0,1432.0,1429.0,356.0,354.0
3701,1429,361,0,3696.0,3685.0,1432.0,1432.0,366.0,356.0
