accelerometer_x,accelerometer_y,accelerometer_z,fall,x_lag_1,x_lag_2,y_lag_1,y_lag_2,z_lag_1,z_lag_2
2696,1070,754,0,,,,,,
2730,1037,759,0,2696.0,,1070.0,,754.0,
2772,1008,768,0,2730.0,2696.0,1037.0,1070.0,759.0,754.0
2823,1003,774,0,2772.0,2730.0,1008.0,1037.0,768.0,759.0
2885,1020,771,0,2823.0,2772.0,1003.0,1008.0,774.0,768.0
2940,1041,764,0,2885.0,2823.0,1020.0,1003.0,771.0,774.0
2991,1063,749,0,2940.0,2885.0,1041.0,1020.0,764.0,771.0
3035,1095,733,0,2991.0,2940.0,1063.0,1041.0,749.0,764.0
3074,1125,724,0,3035.0,2991.0,1095.0,1063.0,733.0,749.0
3092,1155,727,0,3074.0,3035.0,1125.0,1095.0,724.0,733.0
3097,1190,734,0,3092.0,3074.0,1155.0,1125.0,727.0,724.0
3086,1223,755,0,3097.0,3092.0,1190.0,1155.0,734.0,727.0
3056,1249,757,0,3086.0,3097.0,1223.0,1190.0,755.0,734.0
3019,1278,754,0,3056.0,3086.0,1249.0,1223.0,757.0,755.0
2970,1297,744,0,3019.0,3056.0,1278.0,1249.0,754.0,757.0
2911,1307,730,0,2970.0,3019.0,1297.0,1278.0,744.0,754.0
2847,1314,705,0,2911.0,2970.0,1307.0,1297.0,730.0,744.0
2785,1316,685,0,2847.0,2911.0,1314.0,1307.0,705.0,730.0
2722,1315,669,0,2785.0,2847.0,1316.0,1314.0,685.0,705.0
2655,1313,660,0,2722.0,2785.0,1315.0,1316.0,669.0,685.0
2606,1296,652,0,2655.0,2722.0,1313.0,1315.0,660.0,669.0
2579,1269,641,0,2606.0,2655.0,1296.0,1313.0,652.0,660.0
2567,1235,627,0,2579.0,2606.0,1269.0,1296.0,641.0,652.0
2569,1201,618,0,2567.0,2579.0,1235.0,1269.0,627.0,641.0
2583,1160,611,0,2569.0,2567.0,1201.0,1235.0,618.0,627.0
2597,1117,609,0,2583.0,2569.0,1160.0,1201.0,611.0,618.0
2606,1087,615,0,2597.0,2583.0,1117.0,1160.0,609.0,611.0
2612,1055,622,0,2606.0,2597.0,1087.0,1117.0,615.0,609.0
2627,1029,642,0,2612.0,2606.0,1055.0,1087.0,622.0,615.0
2641,1021,662,0,2627.0,2612.0,1029.0,1055.0,642.0,622.0
2656,1016,685,0,2641.0,2627.0,1021.0,1029.0,662.0,642.0
2675,1021,718,0,2656.0,2641.0,1016.0,1021.0,685.0,662.0
2692,1036,758,0,2675.0,2656.0,1021.0,1016.0,718.0,685.0
2718,1059,805,0,2692.0,2675.0,1036.0,1021.0,758.0,718.0
2751,1090,859,0,2718.0,2692.0,1059.0,1036.0,805.0,758.0
2782,1136,903,0,2751.0,2718.0,1090.0,1059.0,859.0,805.0
2826,1200,962,0,2782.0,2751.0,1136.0,1090.0,903.0,859.0
2869,1272,1028,0,2826.0,2782.0,1200.0,1136.0,962.0,903.0
2912,1350,1088,0,2869.0,2826.0,1272.0,1200.0,1028.0,962.0
2955,1437,1159,0,2912.0,2869.0,1350.0,1272.0,1088.0,1028.0
3007,1519,1235,0,2955.0,2912.0,1437.0,1350.0,1159.0,1088.0
3058,1606,1306,0,3007.0,2955.0,1519.0,1437.0,1235.0,1159.0
3111,1679,1363,0,3058.0,3007.0,1606.0,1519.0,1306.0,1235.0
3143,1751,1400,0,3111.0,3058.0,1679.0,1606.0,1363.0,1306.0
3168,1806,1428,0,3143.0,3111.0,1751.0,1679.0,1400.0,1363.0
3186,1855,1440,0,3168.0,3143.0,1806.0,1751.0,1428.0,1400.0
3194,1901,1441,0,3186.0,3168.0,1855.0,1806.0,1440.0,1428.0
3190,1947,1428,0,3194.0,3186.0,1901.0,1855.0,1441.0,1440.0
3178,1995,1411,0,3190.0,3194.0,1947.0,1901.0,1428.0,1441.0
3163,2044,1375,0,3178.0,3190.0,1995.0,1947.0,1411.0,1428.0
3142,2099,1325,0,3163.0,3178.0,2044.0,1995.0,1375.0,1411.0
3139,2129,1243,0,3142.0,3163.0,2099.0,2044.0,1325.0,1375.0
3156,2114,1123,0,3139.0,3142.0,2129.0,2099.0,1243.0,1325.0
3210,2041,981,0,3156.0,3139.0,2114.0,2129.0,1123.0,1243.0
3276,1927,821,0,3210.0,3156.0,2041.0,2114.0,981.0,1123.0
3360,1778,660,0,3276.0,3210.0,1927.0,2041.0,821.0,981.0
3477,1609,517,0,3360.0,3276.0,1778.0,1927.0,660.0,821.0
3640,1441,419,0,3477.0,3360.0,1609.0,1778.0,517.0,660.0
3867,1295,376,0,3640.0,3477.0,1441.0,1609.0,419.0,517.0
4133,1199,412,0,3867.0,3640.0,1295.0,1441.0,376.0,419.0
4440,1152,496,0,4133.0,3867.0,1199.0,1295.0,412.0,376.0
4729,1198,612,0,4440.0,4133.0,1152.0,1199.0,496.0,412.0
4993,1351,765,0,4729.0,4440.0,1198.0,1152.0,612.0,496.0
5215,1628,982,0,4993.0,4729.0,1351.0,1198.0,765.0,612.0
5380,1991,1296,0,5215.0,4993.0,1628.0,1351.0,982.0,765.0
5465,2356,1677,0,5380.0,5215.0,1991.0,1628.0,1296.0,982.0
5481,2631,2048,0,5465.0,5380.0,2356.0,1991.0,1677.0,1296.0
5410,2784,2350,0,5481.0,5465.0,2631.0,2356.0,2048.0,1677.0
5262,2846,2609,0,5410.0,5481.0,2784.0,2631.0,2350.0,2048.0
5064,2829,2845,0,5262.0,5410.0,2846.0,2784.0,2609.0,2350.0
4863,2738,3056,0,5064.0,5262.0,2829.0,2846.0,2845.0,2609.0
4719,2565,3187,0,4863.0,5064.0,2738.0,2829.0,3056.0,2845.0
4692,2352,3198,0,4719.0,4863.0,2565.0,2738.0,3187.0,3056.0
4802,2172,3045,0,4692.0,4719.0,2352.0,2565.0,3198.0,3187.0
5031,2112,2726,0,4802.0,4692.0,2172.0,2352.0,3045.0,3198.0
5329,2187,2281,0,5031.0,4802.0,2112.0,2172.0,2726.0,3045.0
5659,2321,1751,0,5329.0,5031.0,2187.0,2112.0,2281.0,2726.0
6035,2441,1235,0,5659.0,5329.0,2321.0,2187.0,1751.0,2281.0
6447,2472,836,0,6035.0,5659.0,2441.0,2321.0,1235.0,1751.0
6813,2362,589,0,6447.0,6035.0,2472.0,2441.0,836.0,1235.0
7025,2169,501,0,6813.0,6447.0,2362.0,2472.0,589.0,836.0
6993,1927,497,0,7025.0,6813.0,2169.0,2362.0,501.0,589.0
6692,1620,494,0,6993.0,7025.0,1927.0,2169.0,497.0,501.0
6160,1219,526,0,6692.0,6993.0,1620.0,1927.0,494.0,497.0
5528,787,644,0,6160.0,6692.0,1219.0,1620.0,526.0,494.0
4912,425,814,0,5528.0,6160.0,787.0,1219.0,644.0,526.0
4369,165,906,0,4912.0,5528.0,425.0,787.0,814.0,644.0
3853,-4,919,0,4369.0,4912.0,165.0,425.0,906.0,814.0
3342,-118,928,0,3853.0,4369.0,-4.0,165.0,919.0,906.0
2838,-201,913,0,3342.0,3853.0,-118.0,-4.0,928.0,919.0
2380,-270,838,0,2838.0,3342.0,-201.0,-118.0,913.0,928.0
2003,-350,700,0,2380.0,2838.0,-270.0,-201.0,838.0,913.0
1716,-423,527,0,2003.0,2380.0,-350.0,-270.0,700.0,838.0
1529,-451,345,0,1716.0,2003.0,-423.0,-350.0,527.0,700.0
1459,-435,212,0,1529.0,1716.0,-451.0,-423.0,345.0,527.0
1496,-387,125,0,1459.0,1529.0,-435.0,-451.0,212.0,345.0
1647,-331,66,0,1496.0,1459.0,-387.0,-435.0,125.0,212.0
1894,-257,32,0,1647.0,1496.0,-331.0,-387.0,66.0,125.0
2201,-146,4,0,1894.0,1647.0,-257.0,-331.0,32.0,66.0
2554,7,2,0,2201.0,1894.0,-146.0,-257.0,4.0,32.0
2945,193,6,0,2554.0,2201.0,7.0,-146.0,2.0,4.0
3357,380,19,0,2945.0,2554.0,193.0,7.0,6.0,2.0
3779,562,53,0,3357.0,2945.0,380.0,193.0,19.0,6.0
4201,727,108,0,3779.0,3357.0,562.0,380.0,53.0,19.0
4622,888,169,0,4201.0,3779.0,727.0,562.0,108.0,53.0
5000,1044,207,0,4622.0,4201.0,888.0,727.0,169.0,108.0
5297,1177,209,0,5000.0,4622.0,1044.0,888.0,207.0,169.0
5517,1256,177,0,5297.0,5000.0,1177.0,1044.0,209.0,207.0
5650,1268,152,0,5517.0,5297.0,1256.0,1177.0,177.0,209.0
5700,1207,138,0,5650.0,5517.0,1268.0,1256.0,152.0,177.0
5661,1079,142,0,5700.0,5650.0,1207.0,1268.0,138.0,152.0
5514,920,172,0,5661.0,5700.0,1079.0,1207.0,142.0,138.0
5321,753,217,0,5514.0,5661.0,920.0,1079.0,172.0,142.0
5110,594,279,0,5321.0,5514.0,753.0,920.0,217.0,172.0
4902,479,343,0,5110.0,5321.0,594.0,753.0,279.0,217.0
4724,396,391,0,4902.0,5110.0,479.0,594.0,343.0,279.0
4601,323,425,0,4724.0,4902.0,396.0,479.0,391.0,343.0
4528,250,457,0,4601.0,4724.0,323.0,396.0,425.0,391.0
4493,194,474,0,4528.0,4601.0,250.0,323.0,457.0,425.0
4458,152,447,0,4493.0,4528.0,194.0,250.0,474.0,457.0
4412,146,412,0,4458.0,4493.0,152.0,194.0,447.0,474.0
4329,178,354,0,4412.0,4458.0,146.0,152.0,412.0,447.0
4206,251,280,0,4329.0,4412.0,178.0,146.0,354.0,412.0
4054,354,208,0,4206.0,4329.0,251.0,178.0,280.0,354.0
3901,479,155,0,4054.0,4206.0,354.0,251.0,208.0,280.0
3746,627,133,0,3901.0,4054.0,479.0,354.0,155.0,208.0
3587,791,124,0,3746.0,3901.0,627.0,479.0,133.0,155.0
3439,952,136,0,3587.0,3746.0,791.0,627.0,124.0,133.0
3313,1093,152,0,3439.0,3587.0,952.0,791.0,136.0,124.0
3199,1211,164,0,3313.0,3439.0,1093.0,952.0,152.0,136.0
3109,1320,180,0,3199.0,3313.0,1211.0,1093.0,164.0,152.0
3045,1415,195,0,3109.0,3199.0,1320.0,1211.0,180.0,164.0
3010,1503,186,0,3045.0,3109.0,1415.0,1320.0,195.0,180.0
2996,1595,185,0,3010.0,3045.0,1503.0,1415.0,186.0,195.0
3013,1652,187,0,2996.0,3010.0,1595.0,1503.0,185.0,186.0
3059,1668,183,0,3013.0,2996.0,1652.0,1595.0,187.0,185.0
3139,1662,176,0,3059.0,3013.0,1668.0,1652.0,183.0,187.0
3235,1629,176,0,3139.0,3059.0,1662.0,1668.0,176.0,183.0
3335,1584,169,0,3235.0,3139.0,1629.0,1662.0,176.0,176.0
3434,1540,167,0,3335.0,3235.0,1584.0,1629.0,169.0,176.0
3526,1495,179,0,3434.0,3335.0,1540.0,1584.0,167.0,169.0
3618,1438,192,0,3526.0,3434.0,1495.0,1540.0,179.0,167.0
3705,1366,209,0,3618.0,3526.0,1438.0,1495.0,192.0,179.0
3779,1289,218,0,3705.0,3618.0,1366.0,1438.0,209.0,192.0
3837,1209,209,0,3779.0,3705.0,1289.0,1366.0,218.0,209.0
3885,1118,194,0,3837.0,3779.0,1209.0,1289.0,209.0,218.0
3914,1024,203,0,3885.0,3837.0,1118.0,1209.0,194.0,209.0
3912,936,217,0,3914.0,3885.0,1024.0,1118.0,203.0,194.0
3881,876,215,0,3912.0,3914.0,936.0,1024.0,217.0,203.0
3827,835,212,0,3881.0,3912.0,876.0,936.0,215.0,217.0
3756,825,203,0,3827.0,3881.0,835.0,876.0,212.0,215.0
3674,845,204,0,3756.0,3827.0,825.0,835.0,203.0,212.0
3602,884,217,0,3674.0,3756.0,845.0,825.0,204.0,203.0
3544,951,238,0,3602.0,3674.0,884.0,845.0,217.0,204.0
3501,1051,268,0,3544.0,3602.0,951.0,884.0,238.0,217.0
3477,1177,303,0,3501.0,3544.0,1051.0,951.0,268.0,238.0
3485,1319,337,0,3477.0,3501.0,1177.0,1051.0,303.0,268.0
3502,1463,370,0,3485.0,3477.0,1319.0,1177.0,337.0,303.0
3531,1601,410,0,3502.0,3485.0,1463.0,1319.0,370.0,337.0
3558,1738,489,0,3531.0,3502.0,1601.0,1463.0,410.0,370.0
3566,1850,540,0,3558.0,3531.0,1738.0,1601.0,489.0,410.0
3561,1918,494,0,3566.0,3558.0,1850.0,1738.0,540.0,489.0
3532,1963,388,0,3561.0,3566.0,1918.0,1850.0,494.0,540.0
3490,2015,341,0,3532.0,3561.0,1963.0,1918.0,388.0,494.0
3458,2047,354,0,3490.0,3532.0,2015.0,1963.0,341.0,388.0
3422,2048,367,0,3458.0,3490.0,2047.0,2015.0,354.0,341.0
3396,2050,386,0,3422.0,3458.0,2048.0,2047.0,367.0,354.0
3367,2076,400,0,3396.0,3422.0,2050.0,2048.0,386.0,367.0
3335,2109,410,0,3367.0,3396.0,2076.0,2050.0,400.0,386.0
3316,2142,471,0,3335.0,3367.0,2109.0,2076.0,410.0,400.0
3313,2151,485,0,3316.0,3335.0,2142.0,2109.0,471.0,410.0
3321,2163,429,0,3313.0,3316.0,2151.0,2142.0,485.0,471.0
3336,2202,409,0,3321.0,3313.0,2163.0,2151.0,429.0,485.0
3355,2248,397,0,3336.0,3321.0,2202.0,2163.0,409.0,429.0
3381,2275,370,0,3355.0,3336.0,2248.0,2202.0,397.0,409.0
3416,2296,387,0,3381.0,3355.0,2275.0,2248.0,370.0,397.0
3441,2312,420,0,3416.0,3381.0,2296.0,2275.0,387.0,370.0
3457,2316,438,0,3441.0,3416.0,2312.0,2296.0,420.0,387.0
3460,2311,470,0,3457.0,3441.0,2316.0,2312.0,438.0,420.0
3451,2306,523,0,3460.0,3457.0,2311.0,2316.0,470.0,438.0
3439,2283,560,0,3451.0,3460.0,2306.0,2311.0,523.0,470.0
3432,2260,553,0,3439.0,3451.0,2283.0,2306.0,560.0,523.0
3430,2254,546,0,3432.0,3439.0,2260.0,2283.0,553.0,560.0
3430,2270,564,0,3430.0,3432.0,2254.0,2260.0,546.0,553.0
3433,2279,579,0,3430.0,3430.0,2270.0,2254.0,564.0,546.0
3434,2283,587,0,3433.0,3430.0,2279.0,2270.0,579.0,564.0
3423,2269,591,0,3434.0,3433.0,2283.0,2279.0,587.0,579.0
3398,2246,620,0,3423.0,3434.0,2269.0,2283.0,591.0,587.0
3367,2210,657,0,3398.0,3423.0,2246.0,2269.0,620.0,591.0
3319,2162,662,0,3367.0,3398.0,2210.0,2246.0,657.0,620.0
3276,2117,663,0,3319.0,3367.0,2162.0,2210.0,662.0,657.0
3227,2079,688,0,3276.0,3319.0,2117.0,2162.0,663.0,662.0
3201,2035,723,0,3227.0,3276.0,2079.0,2117.0,688.0,663.0
3197,1981,772,0,3201.0,3227.0,2035.0,2079.0,723.0,688.0
3205,1925,837,0,3197.0,3201.0,1981.0,2035.0,772.0,723.0
3237,1862,878,0,3205.0,3197.0,1925.0,1981.0,837.0,772.0
3287,1798,853,0,3237.0,3205.0,1862.0,1925.0,878.0,837.0
3351,1756,788,0,3287.0,3237.0,1798.0,1862.0,853.0,878.0
3428,1727,755,0,3351.0,3287.0,1756.0,1798.0,788.0,853.0
3505,1714,758,0,3428.0,3351.0,1727.0,1756.0,755.0,788.0
3583,1699,742,0,3505.0,3428.0,1714.0,1727.0,758.0,755.0
3660,1681,675,0,3583.0,3505.0,1699.0,1714.0,742.0,758.0
3710,1681,535,0,3660.0,3583.0,1681.0,1699.0,675.0,742.0
3739,1710,355,0,3710.0,3660.0,1681.0,1681.0,535.0,675.0
3755,1750,258,0,3739.0,3710.0,1710.0,1681.0,355.0,535.0
3757,1762,235,0,3755.0,3739.0,1750.0,1710.0,258.0,355.0
3729,1742,266,0,3757.0,3755.0,1762.0,1750.0,235.0,258.0
3672,1705,269,0,3729.0,3757.0,1742.0,1762.0,266.0,235.0
3593,1673,214,0,3672.0,3729.0,1705.0,1742.0,269.0,266.0
3513,1686,145,0,3593.0,3672.0,1673.0,1705.0,214.0,269.0
3451,1727,109,0,3513.0,3593.0,1686.0,1673.0,145.0,214.0
3421,1774,128,0,3451.0,3513.0,1727.0,1686.0,109.0,145.0
3425,1796,234,0,3421.0,3451.0,1774.0,1727.0,128.0,109.0
3442,1789,394,0,3425.0,3421.0,1796.0,1774.0,234.0,128.0
3454,1768,542,0,3442.0,3425.0,1789.0,1796.0,394.0,234.0
3437,1728,661,0,3454.0,3442.0,1768.0,1789.0,542.0,394.0
3406,1658,773,0,3437.0,3454.0,1728.0,1768.0,661.0,542.0
3374,1542,896,0,3406.0,3437.0,1658.0,1728.0,773.0,661.0
3354,1354,986,0,3374.0,3406.0,1542.0,1658.0,896.0,773.0
3361,1107,1010,0,3354.0,3374.0,1354.0,1542.0,986.0,896.0
3399,838,1032,0,3361.0,3354.0,1107.0,1354.0,1010.0,986.0
3495,604,1106,0,3399.0,3361.0,838.0,1107.0,1032.0,1010.0
3662,411,1223,0,3495.0,3399.0,604.0,838.0,1106.0,1032.0
3885,250,1308,0,3662.0,3495.0,411.0,604.0,1223.0,1106.0
4135,106,1314,0,3885.0,3662.0,250.0,411.0,1308.0,1223.0
4384,-16,1266,0,4135.0,3885.0,106.0,250.0,1314.0,1308.0
4585,-110,1188,0,4384.0,4135.0,-16.0,106.0,1266.0,1314.0
4732,-127,1086,0,4585.0,4384.0,-110.0,-16.0,1188.0,1266.0
4818,-61,962,0,4732.0,4585.0,-127.0,-110.0,1086.0,1188.0
4856,84,851,0,4818.0,4732.0,-61.0,-127.0,962.0,1086.0
4849,298,772,0,4856.0,4818.0,84.0,-61.0,851.0,962.0
4813,531,698,0,4849.0,4856.0,298.0,84.0,772.0,851.0
4760,741,623,0,4813.0,4849.0,531.0,298.0,698.0,772.0
4702,951,587,0,4760.0,4813.0,741.0,531.0,623.0,698.0
4678,1137,595,0,4702.0,4760.0,951.0,741.0,587.0,623.0
4650,1317,636,0,4678.0,4702.0,1137.0,951.0,595.0,587.0
4675,1450,691,0,4650.0,4678.0,1317.0,1137.0,636.0,595.0
4709,1559,737,0,4675.0,4650.0,1450.0,1317.0,691.0,636.0
4751,1626,689,0,4709.0,4675.0,1559.0,1450.0,737.0,691.0
4781,1648,588,0,4751.0,4709.0,1626.0,1559.0,689.0,737.0
4793,1637,468,0,4781.0,4751.0,1648.0,1626.0,588.0,689.0
4771,1555,334,0,4793.0,4781.0,1637.0,1648.0,468.0,588.0
4707,1394,227,0,4771.0,4793.0,1555.0,1637.0,334.0,468.0
4592,1168,179,0,4707.0,4771.0,1394.0,1555.0,227.0,334.0
4457,899,197,0,4592.0,4707.0,1168.0,1394.0,179.0,227.0
4323,619,261,0,4457.0,4592.0,899.0,1168.0,197.0,179.0
4203,353,346,0,4323.0,4457.0,619.0,899.0,261.0,197.0
4089,113,440,0,4203.0,4323.0,353.0,619.0,346.0,261.0
3986,-81,535,0,4089.0,4203.0,113.0,353.0,440.0,346.0
3922,-210,624,0,3986.0,4089.0,-81.0,113.0,535.0,440.0
3908,-266,701,0,3922.0,3986.0,-210.0,-81.0,624.0,535.0
3939,-270,759,0,3908.0,3922.0,-266.0,-210.0,701.0,624.0
4010,-223,820,0,3939.0,3908.0,-270.0,-266.0,759.0,701.0
4111,-128,904,0,4010.0,3939.0,-223.0,-270.0,820.0,759.0
4261,-17,1008,0,4111.0,4010.0,-128.0,-223.0,904.0,820.0
4439,93,1126,0,4261.0,4111.0,-17.0,-128.0,1008.0,904.0
4625,183,1234,0,4439.0,4261.0,93.0,-17.0,1126.0,1008.0
4804,246,1326,0,4625.0,4439.0,183.0,93.0,1234.0,1126.0
4954,292,1422,0,4804.0,4625.0,246.0,183.0,1326.0,1234.0
5056,307,1522,0,4954.0,4804.0,292.0,246.0,1422.0,1326.0
5097,259,1549,0,5056.0,4954.0,307.0,292.0,1522.0,1422.0
5094,189,1437,0,5097.0,5056.0,259.0,307.0,1549.0,1522.0
5058,142,1259,0,5094.0,5097.0,189.0,259.0,1437.0,1549.0
4998,152,1118,0,5058.0,5094.0,142.0,189.0,1259.0,1437.0
4907,217,1049,0,4998.0,5058.0,152.0,142.0,1118.0,1259.0
4820,309,1052,0,4907.0,4998.0,217.0,152.0,1049.0,1118.0
4726,418,1068,0,4820.0,4907.0,309.0,217.0,1052.0,1049.0
4637,558,1046,0,4726.0,4820.0,418.0,309.0,1068.0,1052.0
4577,732,995,0,4637.0,4726.0,558.0,418.0,1046.0,1068.0
4534,921,947,0,4577.0,4637.0,732.0,558.0,995.0,1046.0
4515,1126,911,0,4534.0,4577.0,921.0,732.0,947.0,995.0
4501,1354,847,0,4515.0,4534.0,1126.0,921.0,911.0,947.0
4482,1576,768,0,4501.0,4515.0,1354.0,1126.0,847.0,911.0
4457,1774,726,0,4482.0,4501.0,1576.0,1354.0,768.0,847.0
4442,1914,753,0,4457.0,4482.0,1774.0,1576.0,726.0,768.0
4430,1993,789,0,4442.0,4457.0,1914.0,1774.0,753.0,726.0
4413,2020,795,0,4430.0,4442.0,1993.0,1914.0,789.0,753.0
4407,2004,764,0,4413.0,4430.0,2020.0,1993.0,795.0,789.0
4396,1946,709,0,4407.0,4413.0,2004.0,2020.0,764.0,795.0
4380,1877,687,0,4396.0,4407.0,1946.0,2004.0,709.0,764.0
4344,1799,675,0,4380.0,4396.0,1877.0,1946.0,687.0,709.0
4304,1691,669,0,4344.0,4380.0,1799.0,1877.0,675.0,687.0
4235,1584,660,0,4304.0,4344.0,1691.0,1799.0,669.0,675.0
4164,1473,624,0,4235.0,4304.0,1584.0,1691.0,660.0,669.0
4064,1357,583,0,4164.0,4235.0,1473.0,1584.0,624.0,660.0
3938,1259,536,0,4064.0,4164.0,1357.0,1473.0,583.0,624.0
3790,1186,494,0,3938.0,4064.0,1259.0,1357.0,536.0,583.0
3642,1131,468,0,3790.0,3938.0,1186.0,1259.0,494.0,536.0
3501,1065,464,0,3642.0,3790.0,1131.0,1186.0,468.0,494.0
3375,987,461,0,3501.0,3642.0,1065.0,1131.0,464.0,468.0
3267,906,459,0,3375.0,3501.0,987.0,1065.0,461.0,464.0
3181,822,461,0,3267.0,3375.0,906.0,987.0,459.0,461.0
3130,753,502,0,3181.0,3267.0,822.0,906.0,461.0,459.0
3115,696,571,0,3130.0,3181.0,753.0,822.0,502.0,461.0
3103,657,604,0,3115.0,3130.0,696.0,753.0,571.0,502.0
3093,637,592,0,3103.0,3115.0,657.0,696.0,604.0,571.0
3069,652,547,0,3093.0,3103.0,637.0,657.0,592.0,604.0
3034,687,505,0,3069.0,3093.0,652.0,637.0,547.0,592.0
3010,733,491,0,3034.0,3069.0,687.0,652.0,505.0,547.0
2999,792,510,0,3010.0,3034.0,733.0,687.0,491.0,505.0
3002,866,544,0,2999.0,3010.0,792.0,733.0,510.0,491.0
3016,964,584,0,3002.0,2999.0,866.0,792.0,544.0,510.0
3031,1072,623,0,3016.0,3002.0,964.0,866.0,584.0,544.0
3047,1184,668,0,3031.0,3016.0,1072.0,964.0,623.0,584.0
3062,1283,717,0,3047.0,3031.0,1184.0,1072.0,668.0,623.0
3065,1379,784,0,3062.0,3047.0,1283.0,1184.0,717.0,668.0
3063,1464,845,0,3065.0,3062.0,1379.0,1283.0,784.0,717.0
3049,1525,891,0,3063.0,3065.0,1464.0,1379.0,845.0,784.0
3029,1581,916,0,3049.0,3063.0,1525.0,1464.0,891.0,845.0
2993,1632,926,0,3029.0,3049.0,1581.0,1525.0,916.0,891.0
2951,1669,929,0,2993.0,3029.0,1632.0,1581.0,926.0,916.0
2903,1688,924,0,2951.0,2993.0,1669.0,1632.0,929.0,926.0
2858,1686,912,0,2903.0,2951.0,1688.0,1669.0,924.0,929.0
2812,1676,903,0,2858.0,2903.0,1686.0,1688.0,912.0,924.0
2768,1670,898,0,2812.0,2858.0,1676.0,1686.0,903.0,912.0
2722,1669,894,0,2768.0,2812.0,1670.0,1676.0,898.0,903.0
2678,1674,899,0,2722.0,2768.0,1669.0,1670.0,894.0,898.0
2639,1676,915,0,2678.0,2722.0,1674.0,1669.0,899.0,894.0
2599,1672,945,0,2639.0,2678.0,1676.0,1674.0,915.0,899.0
2560,1664,974,0,2599.0,2639.0,1672.0,1676.0,945.0,915.0
2519,1655,1000,0,2560.0,2599.0,1664.0,1672.0,974.0,945.0
2477,1647,1032,0,2519.0,2560.0,1655.0,1664.0,1000.0,974.0
2433,1636,1056,0,2477.0,2519.0,1647.0,1655.0,1032.0,1000.0
2389,1624,1081,0,2433.0,2477.0,1636.0,1647.0,1056.0,1032.0
2344,1609,1104,0,2389.0,2433.0,1624.0,1636.0,1081.0,1056.0
2298,1596,1122,0,2344.0,2389.0,1609.0,1624.0,1104.0,1081.0
2256,1580,1143,0,2298.0,2344.0,1596.0,1609.0,1122.0,1104.0
2216,1565,1164,0,2256.0,2298.0,1580.0,1596.0,1143.0,1122.0
2179,1556,1181,0,2216.0,2256.0,1565.0,1580.0,1164.0,1143.0
2146,1557,1206,0,2179.0,2216.0,1556.0,1565.0,1181.0,1164.0
2126,1562,1225,0,2146.0,2179.0,1557.0,1556.0,1206.0,1181.0
2115,1567,1240,0,2126.0,2146.0,1562.0,1557.0,1225.0,1206.0
2123,1572,1253,0,2115.0,2126.0,1567.0,1562.0,1240.0,1225.0
2139,1570,1270,0,2123.0,2115.0,1572.0,1567.0,1253.0,1240.0
2165,1570,1288,0,2139.0,2123.0,1570.0,1572.0,1270.0,1253.0
2196,1590,1315,0,2165.0,2139.0,1570.0,1570.0,1288.0,1270.0
2226,1621,1341,0,2196.0,2165.0,1590.0,1570.0,1315.0,1288.0
2258,1655,1374,0,2226.0,2196.0,1621.0,1590.0,1341.0,1315.0
2288,1700,1415,0,2258.0,2226.0,1655.0,1621.0,1374.0,1341.0
2325,1733,1469,0,2288.0,2258.0,1700.0,1655.0,1415.0,1374.0
2366,1748,1527,0,2325.0,2288.0,1733.0,1700.0,1469.0,1415.0
2411,1762,1597,0,2366.0,2325.0,1748.0,1733.0,1527.0,1469.0
2452,1785,1678,0,2411.0,2366.0,1762.0,1748.0,1597.0,1527.0
2495,1807,1774,0,2452.0,2411.0,1785.0,1762.0,1678.0,1597.0
2533,1833,1869,0,2495.0,2452.0,1807.0,1785.0,1774.0,1678.0
2577,1866,1949,0,2533.0,2495.0,1833.0,1807.0,1869.0,1774.0
2620,1911,1991,0,2577.0,2533.0,1866.0,1833.0,1949.0,1869.0
2662,1982,1947,0,2620.0,2577.0,1911.0,1866.0,1991.0,1949.0
2702,2090,1804,0,2662.0,2620.0,1982.0,1911.0,1947.0,1991.0
2759,2200,1552,0,2702.0,2662.0,2090.0,1982.0,1804.0,1947.0
2850,2269,1229,0,2759.0,2702.0,2200.0,2090.0,1552.0,1804.0
2981,2275,899,0,2850.0,2759.0,2269.0,2200.0,1229.0,1552.0
3135,2246,633,0,2981.0,2850.0,2275.0,2269.0,899.0,1229.0
3298,2199,485,0,3135.0,2981.0,2246.0,2275.0,633.0,899.0
3482,2133,460,0,3298.0,3135.0,2199.0,2246.0,485.0,633.0
3677,2035,513,0,3482.0,3298.0,2133.0,2199.0,460.0,485.0
3885,1942,628,0,3677.0,3482.0,2035.0,2133.0,513.0,460.0
4085,1874,787,0,3885.0,3677.0,1942.0,2035.0,628.0,513.0
4279,1859,982,0,4085.0,3885.0,1874.0,1942.0,787.0,628.0
4462,1894,1198,0,4279.0,4085.0,1859.0,1874.0,982.0,787.0
4613,1976,1420,0,4462.0,4279.0,1894.0,1859.0,1198.0,982.0
4726,2090,1623,0,4613.0,4462.0,1976.0,1894.0,1420.0,1198.0
4796,2233,1832,0,4726.0,4613.0,2090.0,1976.0,1623.0,1420.0
4818,2363,2043,0,4796.0,4726.0,2233.0,2090.0,1832.0,1623.0
4765,2443,2240,0,4818.0,4796.0,2363.0,2233.0,2043.0,1832.0
4613,2486,2397,0,4765.0,4818.0,2443.0,2363.0,2240.0,2043.0
4374,2524,2547,0,4613.0,4765.0,2486.0,2443.0,2397.0,2240.0
4106,2560,2689,0,4374.0,4613.0,2524.0,2486.0,2547.0,2397.0
3826,2596,2779,0,4106.0,4374.0,2560.0,2524.0,2689.0,2547.0
3547,2647,2784,0,3826.0,4106.0,2596.0,2560.0,2779.0,2689.0
3296,2705,2728,0,3547.0,3826.0,2647.0,2596.0,2784.0,2779.0
3076,2739,2604,0,3296.0,3547.0,2705.0,2647.0,2728.0,2784.0
2871,2731,2461,0,3076.0,3296.0,2739.0,2705.0,2604.0,2728.0
2702,2676,2373,0,2871.0,3076.0,2731.0,2739.0,2461.0,2604.0
2610,2589,2358,0,2702.0,2871.0,2676.0,2731.0,2373.0,2461.0
2641,2440,2353,0,2610.0,2702.0,2589.0,2676.0,2358.0,2373.0
2834,2268,2291,0,2641.0,2610.0,2440.0,2589.0,2353.0,2358.0
3189,2124,2193,0,2834.0,2641.0,2268.0,2440.0,2291.0,2353.0
3668,2010,2102,0,3189.0,2834.0,2124.0,2268.0,2193.0,2291.0
4240,1877,2012,0,3668.0,3189.0,2010.0,2124.0,2102.0,2193.0
4879,1733,1906,0,4240.0,3668.0,1877.0,2010.0,2012.0,2102.0
5534,1575,1775,0,4879.0,4240.0,1733.0,1877.0,1906.0,2012.0
6139,1405,1620,0,5534.0,4879.0,1575.0,1733.0,1775.0,1906.0
6620,1208,1484,0,6139.0,5534.0,1405.0,1575.0,1620.0,1775.0
6899,958,1415,0,6620.0,6139.0,1208.0,1405.0,1484.0,1620.0
6894,643,1427,0,6899.0,6620.0,958.0,1208.0,1415.0,1484.0
6621,256,1523,0,6894.0,6899.0,643.0,958.0,1427.0,1415.0
6168,-161,1601,0,6621.0,6894.0,256.0,643.0,1523.0,1427.0
5637,-535,1621,0,6168.0,6621.0,-161.0,256.0,1601.0,1523.0
5092,-832,1558,0,5637.0,6168.0,-535.0,-161.0,1621.0,1601.0
4602,-1066,1357,0,5092.0,5637.0,-832.0,-535.0,1558.0,1621.0
4171,-1208,1068,0,4602.0,5092.0,-1066.0,-832.0,1357.0,1558.0
3772,-1293,735,0,4171.0,4602.0,-1208.0,-1066.0,1068.0,1357.0
3399,-1335,425,0,3772.0,4171.0,-1293.0,-1208.0,735.0,1068.0
3072,-1319,153,0,3399.0,3772.0,-1335.0,-1293.0,425.0,735.0
2813,-1227,-81,0,3072.0,3399.0,-1319.0,-1335.0,153.0,425.0
2640,-1085,-236,0,2813.0,3072.0,-1227.0,-1319.0,-81.0,153.0
2558,-899,-316,0,2640.0,2813.0,-1085.0,-1227.0,-236.0,-81.0
2549,-635,-332,0,2558.0,2640.0,-899.0,-1085.0,-316.0,-236.0
2607,-296,-292,0,2549.0,2558.0,-635.0,-899.0,-332.0,-316.0
2735,83,-229,0,2607.0,2549.0,-296.0,-635.0,-292.0,-332.0
2935,447,-158,0,2735.0,2607.0,83.0,-296.0,-229.0,-292.0
3204,765,-99,0,2935.0,2735.0,447.0,83.0,-158.0,-229.0
3512,1040,-38,0,3204.0,2935.0,765.0,447.0,-99.0,-158.0
3836,1282,41,0,3512.0,3204.0,1040.0,765.0,-38.0,-99.0
4166,1476,136,0,3836.0,3512.0,1282.0,1040.0,41.0,-38.0
4458,1623,232,0,4166.0,3836.0,1476.0,1282.0,136.0,41.0
4710,1715,302,0,4458.0,4166.0,1623.0,1476.0,232.0,136.0
4887,1752,336,0,4710.0,4458.0,1715.0,1623.0,302.0,232.0
4992,1717,337,0,4887.0,4710.0,1752.0,1715.0,336.0,302.0
5030,1611,310,0,4992.0,4887.0,1717.0,1752.0,337.0,336.0
4997,1469,258,0,5030.0,4992.0,1611.0,1717.0,310.0,337.0
4917,1291,185,0,4997.0,5030.0,1469.0,1611.0,258.0,310.0
4807,1081,113,0,4917.0,4997.0,1291.0,1469.0,185.0,258.0
4701,866,62,0,4807.0,4917.0,1081.0,1291.0,113.0,185.0
4606,650,34,0,4701.0,4807.0,866.0,1081.0,62.0,113.0
4530,451,36,0,4606.0,4701.0,650.0,866.0,34.0,62.0
4499,267,66,0,4530.0,4606.0,451.0,650.0,36.0,34.0
4509,113,112,0,4499.0,4530.0,267.0,451.0,66.0,36.0
4503,-5,155,0,4509.0,4499.0,113.0,267.0,112.0,66.0
4495,-100,198,0,4503.0,4509.0,-5.0,113.0,155.0,112.0
4489,-183,219,0,4495.0,4503.0,-100.0,-5.0,198.0,155.0
4456,-240,193,0,4489.0,4495.0,-183.0,-100.0,219.0,198.0
4394,-251,151,0,4456.0,4489.0,-240.0,-183.0,193.0,219.0
4322,-229,116,0,4394.0,4456.0,-251.0,-240.0,151.0,193.0
4241,-185,74,0,4322.0,4394.0,-229.0,-251.0,116.0,151.0
4178,-130,35,0,4241.0,4322.0,-185.0,-229.0,74.0,116.0
4139,-63,21,0,4178.0,4241.0,-130.0,-185.0,35.0,74.0
4088,40,15,0,4139.0,4178.0,-63.0,-130.0,21.0,35.0
4047,158,29,0,4088.0,4139.0,40.0,-63.0,15.0,21.0
4010,282,55,0,4047.0,4088.0,158.0,40.0,29.0,15.0
3972,425,35,0,4010.0,4047.0,282.0,158.0,55.0,29.0
3934,569,1,0,3972.0,4010.0,425.0,282.0,35.0,55.0
3910,699,1,0,3934.0,3972.0,569.0,425.0,1.0,35.0
3891,801,15,0,3910.0,3934.0,699.0,569.0,1.0,1.0
3864,886,12,0,3891.0,3910.0,801.0,699.0,15.0,1.0
3818,968,-2,0,3864.0,3891.0,886.0,801.0,12.0,15.0
3758,1039,-37,0,3818.0,3864.0,968.0,886.0,-2.0,12.0
3703,1083,-72,0,3758.0,3818.0,1039.0,968.0,-37.0,-2.0
3649,1107,-89,0,3703.0,3758.0,1083.0,1039.0,-72.0,-37.0
3604,1117,-101,0,3649.0,3703.0,1107.0,1083.0,-89.0,-72.0
3568,1114,-111,0,3604.0,3649.0,1117.0,1107.0,-101.0,-89.0
3549,1112,-125,0,3568.0,3604.0,1114.0,1117.0,-111.0,-101.0
3540,1113,-152,0,3549.0,3568.0,1112.0,1114.0,-125.0,-111.0
3542,1134,-183,0,3540.0,3549.0,1113.0,1112.0,-152.0,-125.0
3551,1175,-213,0,3542.0,3540.0,1134.0,1113.0,-183.0,-152.0
3574,1221,-221,0,3551.0,3542.0,1175.0,1134.0,-213.0,-183.0
3604,1275,-194,0,3574.0,3551.0,1221.0,1175.0,-221.0,-213.0
3640,1307,-156,0,3604.0,3574.0,1275.0,1221.0,-194.0,-221.0
3677,1326,-132,0,3640.0,3604.0,1307.0,1275.0,-156.0,-194.0
3709,1357,-119,0,3677.0,3640.0,1326.0,1307.0,-132.0,-156.0
3728,1395,-111,0,3709.0,3677.0,1357.0,1326.0,-119.0,-132.0
3734,1442,-95,0,3728.0,3709.0,1395.0,1357.0,-111.0,-119.0
3724,1477,-81,0,3734.0,3728.0,1442.0,1395.0,-95.0,-111.0
3702,1495,-76,0,3724.0,3734.0,1477.0,1442.0,-81.0,-95.0
3680,1512,-75,0,3702.0,3724.0,1495.0,1477.0,-76.0,-81.0
3656,1539,-75,0,3680.0,3702.0,1512.0,1495.0,-75.0,-76.0
3643,1572,-75,0,3656.0,3680.0,1539.0,1512.0,-75.0,-75.0
3638,1612,-62,0,3643.0,3656.0,1572.0,1539.0,-75.0,-75.0
3634,1682,-43,0,3638.0,3643.0,1612.0,1572.0,-62.0,-75.0
3638,1758,-26,0,3634.0,3638.0,1682.0,1612.0,-43.0,-62.0
3653,1838,-8,0,3638.0,3634.0,1758.0,1682.0,-26.0,-43.0
3664,1920,18,0,3653.0,3638.0,1838.0,1758.0,-8.0,-26.0
3671,1997,56,0,3664.0,3653.0,1920.0,1838.0,18.0,-8.0
3669,2079,76,0,3671.0,3664.0,1997.0,1920.0,56.0,18.0
3658,2148,79,0,3669.0,3671.0,2079.0,1997.0,76.0,56.0
3642,2198,75,0,3658.0,3669.0,2148.0,2079.0,79.0,76.0
3623,2227,90,0,3642.0,3658.0,2198.0,2148.0,75.0,79.0
3602,2249,134,0,3623.0,3642.0,2227.0,2198.0,90.0,75.0
3569,2260,142,0,3602.0,3623.0,2249.0,2227.0,134.0,90.0
3535,2275,128,0,3569.0,3602.0,2260.0,2249.0,142.0,134.0
3504,2297,133,0,3535.0,3569.0,2275.0,2260.0,128.0,142.0
3468,2318,156,0,3504.0,3535.0,2297.0,2275.0,133.0,128.0
3446,2326,202,0,3468.0,3504.0,2318.0,2297.0,156.0,133.0
3434,2328,234,0,3446.0,3468.0,2326.0,2318.0,202.0,156.0
3405,2350,244,0,3434.0,3446.0,2328.0,2326.0,234.0,202.0
3371,2370,253,0,3405.0,3434.0,2350.0,2328.0,244.0,234.0
3337,2385,308,0,3371.0,3405.0,2370.0,2350.0,253.0,244.0
3300,2376,371,0,3337.0,3371.0,2385.0,2370.0,308.0,253.0
3258,2347,366,0,3300.0,3337.0,2376.0,2385.0,371.0,308.0
3224,2313,342,0,3258.0,3300.0,2347.0,2376.0,366.0,371.0
3202,2291,329,0,3224.0,3258.0,2313.0,2347.0,342.0,366.0
3202,2257,313,0,3202.0,3224.0,2291.0,2313.0,329.0,342.0
3203,2222,333,0,3202.0,3202.0,2257.0,2291.0,313.0,329.0
3206,2181,352,0,3203.0,3202.0,2222.0,2257.0,333.0,313.0
3210,2134,306,0,3206.0,3203.0,2181.0,2222.0,352.0,333.0
3203,2112,272,0,3210.0,3206.0,2134.0,2181.0,306.0,352.0
3194,2108,267,0,3203.0,3210.0,2112.0,2134.0,272.0,306.0
3201,2097,259,0,3194.0,3203.0,2108.0,2112.0,267.0,272.0
3201,2084,253,0,3201.0,3194.0,2097.0,2108.0,259.0,267.0
3213,2072,298,0,3201.0,3201.0,2084.0,2097.0,253.0,259.0
3230,2067,348,0,3213.0,3201.0,2072.0,2084.0,298.0,253.0
3241,2079,348,0,3230.0,3213.0,2067.0,2072.0,348.0,298.0
3254,2114,303,0,3241.0,3230.0,2079.0,2067.0,348.0,348.0
3269,2173,291,0,3254.0,3241.0,2114.0,2079.0,303.0,348.0
3294,2213,331,0,3269.0,3254.0,2173.0,2114.0,291.0,303.0
3328,2232,381,0,3294.0,3269.0,2213.0,2173.0,331.0,291.0
3365,2237,424,0,3328.0,3294.0,2232.0,2213.0,381.0,331.0
3393,2228,442,0,3365.0,3328.0,2237.0,2232.0,424.0,381.0
3424,2205,441,0,3393.0,3365.0,2228.0,2237.0,442.0,424.0
3455,2181,415,0,3424.0,3393.0,2205.0,2228.0,441.0,442.0
3477,2159,395,0,3455.0,3424.0,2181.0,2205.0,415.0,441.0
3487,2126,367,0,3477.0,3455.0,2159.0,2181.0,395.0,415.0
3496,2074,340,0,3487.0,3477.0,2126.0,2159.0,367.0,395.0
3505,2007,291,0,3496.0,3487.0,2074.0,2126.0,340.0,367.0
3516,1937,206,0,3505.0,3496.0,2007.0,2074.0,291.0,340.0
3532,1890,130,0,3516.0,3505.0,1937.0,2007.0,206.0,291.0
3555,1869,110,0,3532.0,3516.0,1890.0,1937.0,130.0,206.0
3586,1864,136,0,3555.0,3532.0,1869.0,1890.0,110.0,130.0
3629,1861,166,0,3586.0,3555.0,1864.0,1869.0,136.0,110.0
3678,1845,174,0,3629.0,3586.0,1861.0,1864.0,166.0,136.0
3738,1815,187,0,3678.0,3629.0,1845.0,1861.0,174.0,166.0
3788,1771,211,0,3738.0,3678.0,1815.0,1845.0,187.0,174.0
3849,1716,252,0,3788.0,3738.0,1771.0,1815.0,211.0,187.0
3911,1665,264,0,3849.0,3788.0,1716.0,1771.0,252.0,211.0
3957,1635,243,0,3911.0,3849.0,1665.0,1716.0,264.0,252.0
3999,1636,220,0,3957.0,3911.0,1635.0,1665.0,243.0,264.0
4025,1670,201,0,3999.0,3957.0,1636.0,1635.0,220.0,243.0
4033,1726,214,0,4025.0,3999.0,1670.0,1636.0,201.0,220.0
4023,1784,261,0,4033.0,4025.0,1726.0,1670.0,214.0,201.0
4001,1824,350,0,4023.0,4033.0,1784.0,1726.0,261.0,214.0
3959,1840,436,0,4001.0,4023.0,1824.0,1784.0,350.0,261.0
3899,1820,506,0,3959.0,4001.0,1840.0,1824.0,436.0,350.0
3818,1775,566,0,3899.0,3959.0,1820.0,1840.0,506.0,436.0
3740,1716,619,0,3818.0,3899.0,1775.0,1820.0,566.0,506.0
3680,1661,704,0,3740.0,3818.0,1716.0,1775.0,619.0,566.0
3655,1599,792,0,3680.0,3740.0,1661.0,1716.0,704.0,619.0
3665,1542,851,0,3655.0,3680.0,1599.0,1661.0,792.0,704.0
3704,1484,851,0,3665.0,3655.0,1542.0,1599.0,851.0,792.0
3761,1443,809,0,3704.0,3665.0,1484.0,1542.0,851.0,851.0
3829,1405,754,0,3761.0,3704.0,1443.0,1484.0,809.0,851.0
3889,1372,725,0,3829.0,3761.0,1405.0,1443.0,754.0,809.0
3947,1334,726,0,3889.0,3829.0,1372.0,1405.0,725.0,754.0
3997,1286,757,0,3947.0,3889.0,1334.0,1372.0,726.0,725.0
4035,1224,802,0,3997.0,3947.0,1286.0,1334.0,757.0,726.0
4067,1170,835,0,4035.0,3997.0,1224.0,1286.0,802.0,757.0
4084,1135,829,0,4067.0,4035.0,1170.0,1224.0,835.0,802.0
4076,1118,771,0,4084.0,4067.0,1135.0,1170.0,829.0,835.0
4011,1117,665,0,4076.0,4084.0,1118.0,1135.0,771.0,829.0
3943,1175,575,0,4011.0,4076.0,1117.0,1118.0,665.0,771.0
3877,1277,536,0,3943.0,4011.0,1175.0,1117.0,575.0,665.0
3826,1414,555,0,3877.0,3943.0,1277.0,1175.0,536.0,575.0
3834,1563,670,0,3826.0,3877.0,1414.0,1277.0,555.0,536.0
3825,1728,753,0,3834.0,3826.0,1563.0,1414.0,670.0,555.0
3835,1866,798,0,3825.0,3834.0,1728.0,1563.0,753.0,670.0
3859,1991,815,0,3835.0,3825.0,1866.0,1728.0,798.0,753.0
3878,2082,741,0,3859.0,3835.0,1991.0,1866.0,815.0,798.0
3909,2153,625,0,3878.0,3859.0,2082.0,1991.0,741.0,815.0
3922,2206,460,0,3909.0,3878.0,2153.0,2082.0,625.0,741.0
3902,2248,267,0,3922.0,3909.0,2206.0,2153.0,460.0,625.0
3849,2250,91,0,3902.0,3922.0,2248.0,2206.0,267.0,460.0
3763,2181,-38,0,3849.0,3902.0,2250.0,2248.0,91.0,267.0
3644,2047,-121,0,3763.0,3849.0,2181.0,2250.0,-38.0,91.0
3537,1857,-127,0,3644.0,3763.0,2047.0,2181.0,-121.0,-38.0
3435,1609,-93,0,3537.0,3644.0,1857.0,2047.0,-127.0,-121.0
3377,1358,-16,0,3435.0,3537.0,1609.0,1857.0,-93.0,-127.0
3361,1136,94,0,3377.0,3435.0,1358.0,1609.0,-16.0,-93.0
3421,974,273,0,3361.0,3377.0,1136.0,1358.0,94.0,-16.0
3570,860,493,0,3421.0,3361.0,974.0,1136.0,273.0,94.0
3766,801,692,0,3570.0,3421.0,860.0,974.0,493.0,273.0
3973,814,860,0,3766.0,3570.0,801.0,860.0,692.0,493.0
4211,875,981,0,3973.0,3766.0,814.0,801.0,860.0,692.0
4474,964,1067,0,4211.0,3973.0,875.0,814.0,981.0,860.0
4777,1065,1160,0,4474.0,4211.0,964.0,875.0,1067.0,981.0
5085,1147,1265,0,4777.0,4474.0,1065.0,964.0,1160.0,1067.0
5362,1181,1388,0,5085.0,4777.0,1147.0,1065.0,1265.0,1160.0
5585,1176,1505,0,5362.0,5085.0,1181.0,1147.0,1388.0,1265.0
5757,1139,1619,0,5585.0,5362.0,1176.0,1181.0,1505.0,1388.0
5849,1090,1677,0,5757.0,5585.0,1139.0,1176.0,1619.0,1505.0
5859,1025,1632,0,5849.0,5757.0,1090.0,1139.0,1677.0,1619.0
5801,990,1522,0,5859.0,5849.0,1025.0,1090.0,1632.0,1677.0
5688,972,1414,0,5801.0,5859.0,990.0,1025.0,1522.0,1632.0
5538,954,1336,0,5688.0,5801.0,972.0,990.0,1414.0,1522.0
5341,943,1329,0,5538.0,5688.0,954.0,972.0,1336.0,1414.0
5098,925,1257,0,5341.0,5538.0,943.0,954.0,1329.0,1336.0
4842,946,1128,0,5098.0,5341.0,925.0,943.0,1257.0,1329.0
4590,1013,1015,0,4842.0,5098.0,946.0,925.0,1128.0,1257.0
4341,1137,969,0,4590.0,4842.0,1013.0,946.0,1015.0,1128.0
4121,1293,1017,0,4341.0,4590.0,1137.0,1013.0,969.0,1015.0
3924,1483,1058,0,4121.0,4341.0,1293.0,1137.0,1017.0,969.0
3783,1688,1011,0,3924.0,4121.0,1483.0,1293.0,1058.0,1017.0
3702,1894,888,0,3783.0,3924.0,1688.0,1483.0,1011.0,1058.0
3660,2087,788,0,3702.0,3783.0,1894.0,1688.0,888.0,1011.0
3647,2255,781,0,3660.0,3702.0,2087.0,1894.0,788.0,888.0
3681,2374,788,0,3647.0,3660.0,2255.0,2087.0,781.0,788.0
3752,2455,797,0,3681.0,3647.0,2374.0,2255.0,788.0,781.0
3831,2505,828,0,3752.0,3681.0,2455.0,2374.0,797.0,788.0
3908,2550,876,0,3831.0,3752.0,2505.0,2455.0,828.0,797.0
3972,2586,920,0,3908.0,3831.0,2550.0,2505.0,876.0,828.0
4022,2582,946,0,3972.0,3908.0,2586.0,2550.0,920.0,876.0
4036,2553,937,0,4022.0,3972.0,2582.0,2586.0,946.0,920.0
4025,2476,908,0,4036.0,4022.0,2553.0,2582.0,937.0,946.0
3995,2374,846,0,4025.0,4036.0,2476.0,2553.0,908.0,937.0
3940,2263,795,0,3995.0,4025.0,2374.0,2476.0,846.0,908.0
3880,2127,750,0,3940.0,3995.0,2263.0,2374.0,795.0,846.0
3804,1975,715,0,3880.0,3940.0,2127.0,2263.0,750.0,795.0
3700,1817,694,0,3804.0,3880.0,1975.0,2127.0,715.0,750.0
3580,1677,679,0,3700.0,3804.0,1817.0,1975.0,694.0,715.0
3445,1544,663,0,3580.0,3700.0,1677.0,1817.0,679.0,694.0
3309,1416,626,0,3445.0,3580.0,1544.0,1677.0,663.0,679.0
3194,1296,535,0,3309.0,3445.0,1416.0,1544.0,626.0,663.0
3108,1169,409,0,3194.0,3309.0,1296.0,1416.0,535.0,626.0
3042,1076,304,0,3108.0,3194.0,1169.0,1296.0,409.0,535.0
2995,1019,285,0,3042.0,3108.0,1076.0,1169.0,304.0,409.0
2965,978,338,0,2995.0,3042.0,1019.0,1076.0,285.0,304.0
2935,955,416,0,2965.0,2995.0,978.0,1019.0,338.0,285.0
2898,965,515,0,2935.0,2965.0,955.0,978.0,416.0,338.0
2865,1016,608,0,2898.0,2935.0,965.0,955.0,515.0,416.0
2824,1084,673,0,2865.0,2898.0,1016.0,965.0,608.0,515.0
2785,1148,707,0,2824.0,2865.0,1084.0,1016.0,673.0,608.0
2756,1207,727,0,2785.0,2824.0,1148.0,1084.0,707.0,673.0
2737,1258,740,0,2756.0,2785.0,1207.0,1148.0,727.0,707.0
2713,1301,743,0,2737.0,2756.0,1258.0,1207.0,740.0,727.0
2680,1342,744,0,2713.0,2737.0,1301.0,1258.0,743.0,740.0
2641,1392,755,0,2680.0,2713.0,1342.0,1301.0,744.0,743.0
2597,1444,781,0,2641.0,2680.0,1392.0,1342.0,755.0,744.0
2548,1494,827,0,2597.0,2641.0,1444.0,1392.0,781.0,755.0
2507,1540,888,0,2548.0,2597.0,1494.0,1444.0,827.0,781.0
2468,1589,952,0,2507.0,2548.0,1540.0,1494.0,888.0,827.0
2438,1631,995,0,2468.0,2507.0,1589.0,1540.0,952.0,888.0
2421,1667,1022,0,2438.0,2468.0,1631.0,1589.0,995.0,952.0
2415,1694,1050,0,2421.0,2438.0,1667.0,1631.0,1022.0,995.0
2411,1713,1064,0,2415.0,2421.0,1694.0,1667.0,1050.0,1022.0
2400,1740,1089,0,2411.0,2415.0,1713.0,1694.0,1064.0,1050.0
2391,1755,1118,0,2400.0,2411.0,1740.0,1713.0,1089.0,1064.0
2385,1760,1162,0,2391.0,2400.0,1755.0,1740.0,1118.0,1089.0
2385,1756,1209,0,2385.0,2391.0,1760.0,1755.0,1162.0,1118.0
2380,1764,1259,0,2385.0,2385.0,1756.0,1760.0,1209.0,1162.0
2378,1783,1307,0,2380.0,2385.0,1764.0,1756.0,1259.0,1209.0
2374,1806,1352,0,2378.0,2380.0,1783.0,1764.0,1307.0,1259.0
2365,1832,1389,0,2374.0,2378.0,1806.0,1783.0,1352.0,1307.0
2359,1861,1419,0,2365.0,2374.0,1832.0,1806.0,1389.0,1352.0
2337,1880,1437,0,2359.0,2365.0,1861.0,1832.0,1419.0,1389.0
2299,1886,1445,0,2337.0,2359.0,1880.0,1861.0,1437.0,1419.0
2258,1882,1443,0,2299.0,2337.0,1886.0,1880.0,1445.0,1437.0
2204,1871,1447,0,2258.0,2299.0,1882.0,1886.0,1443.0,1445.0
2148,1859,1458,0,2204.0,2258.0,1871.0,1882.0,1447.0,1443.0
2085,1829,1472,0,2148.0,2204.0,1859.0,1871.0,1458.0,1447.0
2023,1795,1498,0,2085.0,2148.0,1829.0,1859.0,1472.0,1458.0
1969,1766,1533,0,2023.0,2085.0,1795.0,1829.0,1498.0,1472.0
1932,1745,1581,0,1969.0,2023.0,1766.0,1795.0,1533.0,1498.0
1904,1708,1631,0,1932.0,1969.0,1745.0,1766.0,1581.0,1533.0
1906,1676,1675,0,1904.0,1932.0,1708.0,1745.0,1631.0,1581.0
1922,1646,1715,0,1906.0,1904.0,1676.0,1708.0,1675.0,1631.0
1951,1638,1751,0,1922.0,1906.0,1646.0,1676.0,1715.0,1675.0
1991,1648,1782,0,1951.0,1922.0,1638.0,1646.0,1751.0,1715.0
2045,1662,1794,0,1991.0,1951.0,1648.0,1638.0,1782.0,1751.0
2116,1670,1785,0,2045.0,1991.0,1662.0,1648.0,1794.0,1782.0
2189,1682,1774,0,2116.0,2045.0,1670.0,1662.0,1785.0,1794.0
2275,1706,1783,0,2189.0,2116.0,1682.0,1670.0,1774.0,1785.0
2381,1742,1812,0,2275.0,2189.0,1706.0,1682.0,1783.0,1774.0
2506,1784,1842,0,2381.0,2275.0,1742.0,1706.0,1812.0,1783.0
2635,1844,1888,0,2506.0,2381.0,1784.0,1742.0,1842.0,1812.0
2776,1886,1959,0,2635.0,2506.0,1844.0,1784.0,1888.0,1842.0
2941,1915,2062,0,2776.0,2635.0,1886.0,1844.0,1959.0,1888.0
3125,1942,2196,0,2941.0,2776.0,1915.0,1886.0,2062.0,1959.0
3322,1937,2323,0,3125.0,2941.0,1942.0,1915.0,2196.0,2062.0
3529,1882,2415,0,3322.0,3125.0,1937.0,1942.0,2323.0,2196.0
3739,1769,2476,0,3529.0,3322.0,1882.0,1937.0,2415.0,2323.0
3923,1608,2496,0,3739.0,3529.0,1769.0,1882.0,2476.0,2415.0
4087,1417,2507,0,3923.0,3739.0,1608.0,1769.0,2496.0,2476.0
4237,1234,2527,0,4087.0,3923.0,1417.0,1608.0,2507.0,2496.0
4411,1046,2548,0,4237.0,4087.0,1234.0,1417.0,2527.0,2507.0
4628,852,2522,0,4411.0,4237.0,1046.0,1234.0,2548.0,2527.0
4904,675,2441,0,4628.0,4411.0,852.0,1046.0,2522.0,2548.0
5237,566,2311,0,4904.0,4628.0,675.0,852.0,2441.0,2522.0
5613,567,2141,0,5237.0,4904.0,566.0,675.0,2311.0,2441.0
5963,724,1982,0,5613.0,5237.0,567.0,566.0,2141.0,2311.0
6211,1023,1875,0,5963.0,5613.0,724.0,567.0,1982.0,2141.0
6300,1402,1891,0,6211.0,5963.0,1023.0,724.0,1875.0,1982.0
6216,1803,1998,0,6300.0,6211.0,1402.0,1023.0,1891.0,1875.0
5939,2178,2176,0,6216.0,6300.0,1803.0,1402.0,1998.0,1891.0
5482,2505,2377,0,5939.0,6216.0,2178.0,1803.0,2176.0,1998.0
4874,2773,2568,0,5482.0,5939.0,2505.0,2178.0,2377.0,2176.0
4149,2963,2784,0,4874.0,5482.0,2773.0,2505.0,2568.0,2377.0
3324,3090,2915,0,4149.0,4874.0,2963.0,2773.0,2784.0,2568.0
2561,3180,3064,0,3324.0,4149.0,3090.0,2963.0,2915.0,2784.0
1975,3202,3254,0,2561.0,3324.0,3180.0,3090.0,3064.0,2915.0
1663,3172,3408,0,1975.0,2561.0,3202.0,3180.0,3254.0,3064.0
1665,3098,3487,0,1663.0,1975.0,3172.0,3202.0,3408.0,3254.0
1937,3007,3368,0,1665.0,1663.0,3098.0,3172.0,3487.0,3408.0
2412,2913,2973,0,1937.0,1665.0,3007.0,3098.0,3368.0,3487.0
3055,2810,2359,0,2412.0,1937.0,2913.0,3007.0,2973.0,3368.0
3811,2706,1700,0,3055.0,2412.0,2810.0,2913.0,2359.0,2973.0
4625,2535,1165,0,3811.0,3055.0,2706.0,2810.0,1700.0,2359.0
5400,2238,817,0,4625.0,3811.0,2535.0,2706.0,1165.0,1700.0
6052,1835,612,0,5400.0,4625.0,2238.0,2535.0,817.0,1165.0
6518,1373,420,0,6052.0,5400.0,1835.0,2238.0,612.0,817.0
6744,886,213,0,6518.0,6052.0,1373.0,1835.0,420.0,612.0
6642,446,119,0,6744.0,6518.0,886.0,1373.0,213.0,420.0
6180,169,308,0,6642.0,6744.0,446.0,886.0,119.0,213.0
5521,37,716,0,6180.0,6642.0,169.0,446.0,308.0,119.0
4937,-61,1056,0,5521.0,6180.0,37.0,169.0,716.0,308.0
4528,-225,1104,0,4937.0,5521.0,-61.0,37.0,1056.0,716.0
4172,-445,921,0,4528.0,4937.0,-225.0,-61.0,1104.0,1056.0
3748,-620,809,0,4172.0,4528.0,-445.0,-225.0,921.0,1104.0
3272,-733,907,0,3748.0,4172.0,-620.0,-445.0,809.0,921.0
2903,-778,1093,0,3272.0,3748.0,-733.0,-620.0,907.0,809.0
2766,-793,1166,0,2903.0,3272.0,-778.0,-733.0,1093.0,907.0
2800,-770,966,0,2766.0,2903.0,-793.0,-778.0,1166.0,1093.0
2890,-666,591,0,2800.0,2766.0,-770.0,-793.0,966.0,1166.0
2977,-437,231,0,2890.0,2800.0,-666.0,-770.0,591.0,966.0
3104,-159,-34,0,2977.0,2890.0,-437.0,-666.0,231.0,591.0
3283,88,-189,0,3104.0,2977.0,-159.0,-437.0,-34.0,231.0
3482,301,-242,0,3283.0,3104.0,88.0,-159.0,-189.0,-34.0
3658,527,-206,0,3482.0,3283.0,301.0,88.0,-242.0,-189.0
3803,791,-120,0,3658.0,3482.0,527.0,301.0,-206.0,-242.0
3924,1049,-28,0,3803.0,3658.0,791.0,527.0,-120.0,-206.0
4012,1271,50,0,3924.0,3803.0,1049.0,791.0,-28.0,-120.0
4073,1431,79,0,4012.0,3924.0,1271.0,1049.0,50.0,-28.0
4126,1496,17,0,4073.0,4012.0,1431.0,1271.0,79.0,50.0
4165,1501,-69,0,4126.0,4073.0,1496.0,1431.0,17.0,79.0
4166,1493,-119,0,4165.0,4126.0,1501.0,1496.0,-69.0,17.0
4134,1466,-126,0,4166.0,4165.0,1493.0,1501.0,-119.0,-69.0
4077,1401,-131,0,4134.0,4166.0,1466.0,1493.0,-126.0,-119.0
3996,1313,-149,0,4077.0,4134.0,1401.0,1466.0,-131.0,-126.0
3894,1240,-168,0,3996.0,4077.0,1313.0,1401.0,-149.0,-131.0
3802,1168,-160,0,3894.0,3996.0,1240.0,1313.0,-168.0,-149.0
3736,1108,-139,0,3802.0,3894.0,1168.0,1240.0,-160.0,-168.0
3708,1056,-103,0,3736.0,3802.0,1108.0,1168.0,-139.0,-160.0
3715,1003,-69,0,3708.0,3736.0,1056.0,1108.0,-103.0,-139.0
3765,974,-17,0,3715.0,3708.0,1003.0,1056.0,-69.0,-103.0
3839,974,67,0,3765.0,3715.0,974.0,1003.0,-17.0,-69.0
3934,987,160,0,3839.0,3765.0,974.0,974.0,67.0,-17.0
4032,994,255,0,3934.0,3839.0,987.0,974.0,160.0,67.0
4114,1006,341,0,4032.0,3934.0,994.0,987.0,255.0,160.0
4173,1024,423,0,4114.0,4032.0,1006.0,994.0,341.0,255.0
4187,1051,485,0,4173.0,4114.0,1024.0,1006.0,423.0,341.0
4167,1057,526,0,4187.0,4173.0,1051.0,1024.0,485.0,423.0
4131,1053,551,0,4167.0,4187.0,1057.0,1051.0,526.0,485.0
4071,1030,560,0,4131.0,4167.0,1053.0,1057.0,551.0,526.0
3987,1009,560,0,4071.0,4131.0,1030.0,1053.0,560.0,551.0
3882,997,572,0,3987.0,4071.0,1009.0,1030.0,560.0,560.0
3765,994,592,0,3882.0,3987.0,997.0,1009.0,572.0,560.0
3650,1003,607,0,3765.0,3882.0,994.0,997.0,592.0,572.0
3535,1038,614,0,3650.0,3765.0,1003.0,994.0,607.0,592.0
3436,1089,612,0,3535.0,3650.0,1038.0,1003.0,614.0,607.0
3356,1158,613,0,3436.0,3535.0,1089.0,1038.0,612.0,614.0
3304,1232,625,0,3356.0,3436.0,1158.0,1089.0,613.0,612.0
3272,1304,657,0,3304.0,3356.0,1232.0,1158.0,625.0,613.0
3242,1378,686,0,3272.0,3304.0,1304.0,1232.0,657.0,625.0
3213,1438,698,0,3242.0,3272.0,1378.0,1304.0,686.0,657.0
3182,1474,696,0,3213.0,3242.0,1438.0,1378.0,698.0,686.0
3147,1490,692,0,3182.0,3213.0,1474.0,1438.0,696.0,698.0
3107,1497,690,0,3147.0,3182.0,1490.0,1474.0,692.0,696.0
3070,1493,672,0,3107.0,3147.0,1497.0,1490.0,690.0,692.0
3027,1489,620,0,3070.0,3107.0,1493.0,1497.0,672.0,690.0
2991,1481,580,0,3027.0,3070.0,1489.0,1493.0,620.0,672.0
2966,1477,537,0,2991.0,3027.0,1481.0,1489.0,580.0,620.0
2961,1475,514,0,2966.0,2991.0,1477.0,1481.0,537.0,580.0
2972,1490,512,0,2961.0,2966.0,1475.0,1477.0,514.0,537.0
2990,1512,514,0,2972.0,2961.0,1490.0,1475.0,512.0,514.0
3014,1536,513,0,2990.0,2972.0,1512.0,1490.0,514.0,512.0
3051,1546,513,0,3014.0,2990.0,1536.0,1512.0,513.0,514.0
3104,1556,521,0,3051.0,3014.0,1546.0,1536.0,513.0,513.0
3164,1573,539,0,3104.0,3051.0,1556.0,1546.0,521.0,513.0
3233,1581,554,0,3164.0,3104.0,1573.0,1556.0,539.0,521.0
3286,1579,561,0,3233.0,3164.0,1581.0,1573.0,554.0,539.0
3316,1592,562,0,3286.0,3233.0,1579.0,1581.0,561.0,554.0
3319,1619,563,0,3316.0,3286.0,1592.0,1579.0,562.0,561.0
3319,1628,537,0,3319.0,3316.0,1619.0,1592.0,563.0,562.0
3313,1613,516,0,3319.0,3319.0,1628.0,1619.0,537.0,563.0
3293,1593,524,0,3313.0,3319.0,1613.0,1628.0,516.0,537.0
3260,1576,548,0,3293.0,3313.0,1593.0,1613.0,524.0,516.0
3233,1561,574,0,3260.0,3293.0,1576.0,1593.0,548.0,524.0
3204,1551,581,0,3233.0,3260.0,1561.0,1576.0,574.0,548.0
3178,1551,570,0,3204.0,3233.0,1551.0,1561.0,581.0,574.0
3164,1549,556,0,3178.0,3204.0,1551.0,1551.0,570.0,581.0
3171,1548,558,0,3164.0,3178.0,1549.0,1551.0,556.0,570.0
3194,1545,565,0,3171.0,3164.0,1548.0,1549.0,558.0,556.0
3218,1546,572,0,3194.0,3171.0,1545.0,1548.0,565.0,558.0
3246,1556,562,0,3218.0,3194.0,1546.0,1545.0,572.0,565.0
3279,1573,548,0,3246.0,3218.0,1556.0,1546.0,562.0,572.0
3309,1582,545,0,3279.0,3246.0,1573.0,1556.0,548.0,562.0
3337,1589,539,0,3309.0,3279.0,1582.0,1573.0,545.0,548.0
3366,1596,523,0,3337.0,3309.0,1589.0,1582.0,539.0,545.0
3399,1600,514,0,3366.0,3337.0,1596.0,1589.0,523.0,539.0
3422,1615,517,0,3399.0,3366.0,1600.0,1596.0,514.0,523.0
3424,1652,528,0,3422.0,3399.0,1615.0,1600.0,517.0,514.0
3411,1691,539,0,3424.0,3422.0,1652.0,1615.0,528.0,517.0
3391,1713,549,0,3411.0,3424.0,1691.0,1652.0,539.0,528.0
3368,1729,568,0,3391.0,3411.0,1713.0,1691.0,549.0,539.0
3334,1737,580,0,3368.0,3391.0,1729.0,1713.0,568.0,549.0
3291,1734,570,0,3334.0,3368.0,1737.0,1729.0,580.0,568.0
3249,1731,548,0,3291.0,3334.0,1734.0,1737.0,570.0,580.0
3208,1727,527,0,3249.0,3291.0,1731.0,1734.0,548.0,570.0
3172,1726,505,0,3208.0,3249.0,1727.0,1731.0,527.0,548.0
3150,1724,497,0,3172.0,3208.0,1726.0,1727.0,505.0,527.0
3146,1724,494,0,3150.0,3172.0,1724.0,1726.0,497.0,505.0
3167,1727,490,0,3146.0,3150.0,1724.0,1724.0,494.0,497.0
3194,1739,474,0,3167.0,3146.0,1727.0,1724.0,490.0,494.0
3220,1755,459,0,3194.0,3167.0,1739.0,1727.0,474.0,490.0
3249,1772,453,0,3220.0,3194.0,1755.0,1739.0,459.0,474.0
3279,1782,433,0,3249.0,3220.0,1772.0,1755.0,453.0,459.0
3313,1804,415,0,3279.0,3249.0,1782.0,1772.0,433.0,453.0
3353,1836,420,0,3313.0,3279.0,1804.0,1782.0,415.0,433.0
3401,1861,421,0,3353.0,3313.0,1836.0,1804.0,420.0,415.0
3451,1865,428,0,3401.0,3353.0,1861.0,1836.0,421.0,420.0
3492,1863,448,0,3451.0,3401.0,1865.0,1861.0,428.0,421.0
3528,1845,493,0,3492.0,3451.0,1863.0,1865.0,448.0,428.0
3566,1804,570,0,3528.0,3492.0,1845.0,1863.0,493.0,448.0
3608,1736,674,0,3566.0,3528.0,1804.0,1845.0,570.0,493.0
3649,1668,813,0,3608.0,3566.0,1736.0,1804.0,674.0,570.0
3690,1593,963,0,3649.0,3608.0,1668.0,1736.0,813.0,674.0
3739,1494,1084,0,3690.0,3649.0,1593.0,1668.0,963.0,813.0
3821,1353,1185,0,3739.0,3690.0,1494.0,1593.0,1084.0,963.0
3928,1185,1232,0,3821.0,3739.0,1353.0,1494.0,1185.0,1084.0
4045,985,1176,0,3928.0,3821.0,1185.0,1353.0,1232.0,1185.0
4164,777,1000,0,4045.0,3928.0,985.0,1185.0,1176.0,1232.0
4279,632,754,0,4164.0,4045.0,777.0,985.0,1000.0,1176.0
4344,588,485,0,4279.0,4164.0,632.0,777.0,754.0,1000.0
4356,649,262,0,4344.0,4279.0,588.0,632.0,485.0,754.0
4318,803,134,0,4356.0,4344.0,649.0,588.0,262.0,485.0
4233,1015,76,0,4318.0,4356.0,803.0,649.0,134.0,262.0
4109,1251,90,0,4233.0,4318.0,1015.0,803.0,76.0,134.0
3950,1501,136,0,4109.0,4233.0,1251.0,1015.0,90.0,76.0
3773,1734,192,0,3950.0,4109.0,1501.0,1251.0,136.0,90.0
3583,1935,261,0,3773.0,3950.0,1734.0,1501.0,192.0,136.0
3412,2087,330,0,3583.0,3773.0,1935.0,1734.0,261.0,192.0
3279,2199,400,0,3412.0,3583.0,2087.0,1935.0,330.0,261.0
3213,2281,466,0,3279.0,3412.0,2199.0,2087.0,400.0,330.0
3224,2315,482,0,3213.0,3279.0,2281.0,2199.0,466.0,400.0
3309,2309,439,0,3224.0,3213.0,2315.0,2281.0,482.0,466.0
3456,2284,370,0,3309.0,3224.0,2309.0,2315.0,439.0,482.0
3650,2265,320,0,3456.0,3309.0,2284.0,2309.0,370.0,439.0
3872,2249,319,0,3650.0,3456.0,2265.0,2284.0,320.0,370.0
4095,2224,377,0,3872.0,3650.0,2249.0,2265.0,319.0,320.0
4317,2175,486,0,4095.0,3872.0,2224.0,2249.0,377.0,319.0
4538,2122,621,0,4317.0,4095.0,2175.0,2224.0,486.0,377.0
4715,2070,729,0,4538.0,4317.0,2122.0,2175.0,621.0,486.0
4808,1997,774,0,4715.0,4538.0,2070.0,2122.0,729.0,621.0
4819,1903,760,0,4808.0,4715.0,1997.0,2070.0,774.0,729.0
4775,1791,718,0,4819.0,4808.0,1903.0,1997.0,760.0,774.0
4703,1639,687,0,4775.0,4819.0,1791.0,1903.0,718.0,760.0
4642,1509,698,0,4703.0,4775.0,1639.0,1791.0,687.0,718.0
4617,1450,752,0,4642.0,4703.0,1509.0,1639.0,698.0,687.0
4615,1467,809,0,4617.0,4642.0,1450.0,1509.0,752.0,698.0
4606,1533,804,0,4615.0,4617.0,1467.0,1450.0,809.0,752.0
4592,1642,738,0,4606.0,4615.0,1533.0,1467.0,804.0,809.0
4544,1715,584,0,4592.0,4606.0,1642.0,1533.0,738.0,804.0
4464,1739,399,0,4544.0,4592.0,1715.0,1642.0,584.0,738.0
4342,1679,216,0,4464.0,4544.0,1739.0,1715.0,399.0,584.0
4196,1548,82,0,4342.0,4464.0,1679.0,1739.0,216.0,399.0
4031,1402,31,0,4196.0,4342.0,1548.0,1679.0,82.0,216.0
3838,1219,-2,0,4031.0,4196.0,1402.0,1548.0,31.0,82.0
3691,1054,16,0,3838.0,4031.0,1219.0,1402.0,-2.0,31.0
3597,902,57,0,3691.0,3838.0,1054.0,1219.0,16.0,-2.0
3571,786,148,0,3597.0,3691.0,902.0,1054.0,57.0,16.0
3598,696,304,0,3571.0,3597.0,786.0,902.0,148.0,57.0
3673,618,522,0,3598.0,3571.0,696.0,786.0,304.0,148.0
3802,582,775,0,3673.0,3598.0,618.0,696.0,522.0,304.0
3964,590,1028,0,3802.0,3673.0,582.0,618.0,775.0,522.0
4153,635,1249,0,3964.0,3802.0,590.0,582.0,1028.0,775.0
4374,700,1442,0,4153.0,3964.0,635.0,590.0,1249.0,1028.0
4594,780,1551,0,4374.0,4153.0,700.0,635.0,1442.0,1249.0
4805,874,1572,0,4594.0,4374.0,780.0,700.0,1551.0,1442.0
5007,936,1519,0,4805.0,4594.0,874.0,780.0,1572.0,1551.0
5178,933,1415,0,5007.0,4805.0,936.0,874.0,1519.0,1572.0
5314,862,1275,0,5178.0,5007.0,933.0,936.0,1415.0,1519.0
5381,751,1117,0,5314.0,5178.0,862.0,933.0,1275.0,1415.0
5397,650,1036,0,5381.0,5314.0,751.0,862.0,1117.0,1275.0
5366,585,1044,0,5397.0,5381.0,650.0,751.0,1036.0,1117.0
5293,537,1070,0,5366.0,5397.0,585.0,650.0,1044.0,1036.0
5202,522,1118,0,5293.0,5366.0,537.0,585.0,1070.0,1044.0
5099,547,1157,0,5202.0,5293.0,522.0,537.0,1118.0,1070.0
5001,609,1174,0,5099.0,5202.0,547.0,522.0,1157.0,1118.0
4919,708,1189,0,5001.0,5099.0,609.0,547.0,1174.0,1157.0
4851,846,1179,0,4919.0,5001.0,708.0,609.0,1189.0,1174.0
4806,993,1119,0,4851.0,4919.0,846.0,708.0,1179.0,1189.0
4776,1160,1020,0,4806.0,4851.0,993.0,846.0,1119.0,1179.0
4751,1352,917,0,4776.0,4806.0,1160.0,993.0,1020.0,1119.0
4715,1562,856,0,4751.0,4776.0,1352.0,1160.0,917.0,1020.0
4658,1778,836,0,4715.0,4751.0,1562.0,1352.0,856.0,917.0
4577,1970,843,0,4658.0,4715.0,1778.0,1562.0,836.0,856.0
4466,2125,839,0,4577.0,4658.0,1970.0,1778.0,843.0,836.0
4339,2236,822,0,4466.0,4577.0,2125.0,1970.0,839.0,843.0
4207,2312,789,0,4339.0,4466.0,2236.0,2125.0,822.0,839.0
4080,2367,749,0,4207.0,4339.0,2312.0,2236.0,789.0,822.0
3966,2392,718,0,4080.0,4207.0,2367.0,2312.0,749.0,789.0
3865,2404,703,0,3966.0,4080.0,2392.0,2367.0,718.0,749.0
3778,2408,678,0,3865.0,3966.0,2404.0,2392.0,703.0,718.0
3701,2398,637,0,3778.0,3865.0,2408.0,2404.0,678.0,703.0
3620,2384,605,0,3701.0,3778.0,2398.0,2408.0,637.0,678.0
3536,2360,583,0,3620.0,3701.0,2384.0,2398.0,605.0,637.0
3452,2316,573,0,3536.0,3620.0,2360.0,2384.0,583.0,605.0
3372,2255,553,0,3452.0,3536.0,2316.0,2360.0,573.0,583.0
3280,2185,529,0,3372.0,3452.0,2255.0,2316.0,553.0,573.0
3195,2115,501,0,3280.0,3372.0,2185.0,2255.0,529.0,553.0
3115,2033,484,0,3195.0,3280.0,2115.0,2185.0,501.0,529.0
3036,1944,468,0,3115.0,3195.0,2033.0,2115.0,484.0,501.0
2965,1851,438,0,3036.0,3115.0,1944.0,2033.0,468.0,484.0
2919,1747,405,0,2965.0,3036.0,1851.0,1944.0,438.0,468.0
2890,1637,389,0,2919.0,2965.0,1747.0,1851.0,405.0,438.0
2873,1521,403,0,2890.0,2919.0,1637.0,1747.0,389.0,405.0
2850,1407,412,0,2873.0,2890.0,1521.0,1637.0,403.0,389.0
2822,1304,415,0,2850.0,2873.0,1407.0,1521.0,412.0,403.0
2780,1227,419,0,2822.0,2850.0,1304.0,1407.0,415.0,412.0
2724,1173,426,0,2780.0,2822.0,1227.0,1304.0,419.0,415.0
2663,1125,429,0,2724.0,2780.0,1173.0,1227.0,426.0,419.0
2615,1093,449,0,2663.0,2724.0,1125.0,1173.0,429.0,426.0
2571,1084,463,0,2615.0,2663.0,1093.0,1125.0,449.0,429.0
2527,1082,462,0,2571.0,2615.0,1084.0,1093.0,463.0,449.0
2477,1077,451,0,2527.0,2571.0,1082.0,1084.0,462.0,463.0
2424,1062,434,0,2477.0,2527.0,1077.0,1082.0,451.0,462.0
2378,1043,423,0,2424.0,2477.0,1062.0,1077.0,434.0,451.0
2349,1030,414,0,2378.0,2424.0,1043.0,1062.0,423.0,434.0
2333,1030,407,0,2349.0,2378.0,1030.0,1043.0,414.0,423.0
2335,1042,408,0,2333.0,2349.0,1030.0,1030.0,407.0,414.0
2358,1043,416,0,2335.0,2333.0,1042.0,1030.0,408.0,407.0
2392,1039,426,0,2358.0,2335.0,1043.0,1042.0,416.0,408.0
2443,1026,437,0,2392.0,2358.0,1039.0,1043.0,426.0,416.0
2503,996,454,0,2443.0,2392.0,1026.0,1039.0,437.0,426.0
2559,948,473,0,2503.0,2443.0,996.0,1026.0,454.0,437.0
2613,893,479,0,2559.0,2503.0,948.0,996.0,473.0,454.0
2659,839,491,0,2613.0,2559.0,893.0,948.0,479.0,473.0
2702,792,512,0,2659.0,2613.0,839.0,893.0,491.0,479.0
2746,742,518,0,2702.0,2659.0,792.0,839.0,512.0,491.0
2780,699,517,0,2746.0,2702.0,742.0,792.0,518.0,512.0
2808,675,509,0,2780.0,2746.0,699.0,742.0,517.0,518.0
2821,664,481,0,2808.0,2780.0,675.0,699.0,509.0,517.0
2834,665,449,0,2821.0,2808.0,664.0,675.0,481.0,509.0
2842,678,401,0,2834.0,2821.0,665.0,664.0,449.0,481.0
2852,698,354,0,2842.0,2834.0,678.0,665.0,401.0,449.0
2870,711,308,0,2852.0,2842.0,698.0,678.0,354.0,401.0
2924,718,276,0,2870.0,2852.0,711.0,698.0,308.0,354.0
2991,713,252,0,2924.0,2870.0,718.0,711.0,276.0,308.0
3067,699,249,0,2991.0,2924.0,713.0,718.0,252.0,276.0
3133,697,241,0,3067.0,2991.0,699.0,713.0,249.0,252.0
3199,706,239,0,3133.0,3067.0,697.0,699.0,241.0,249.0
3269,733,258,0,3199.0,3133.0,706.0,697.0,239.0,241.0
3337,770,297,0,3269.0,3199.0,733.0,706.0,258.0,239.0
3410,813,363,0,3337.0,3269.0,770.0,733.0,297.0,258.0
3484,859,453,0,3410.0,3337.0,813.0,770.0,363.0,297.0
3541,924,551,0,3484.0,3410.0,859.0,813.0,453.0,363.0
3582,990,652,0,3541.0,3484.0,924.0,859.0,551.0,453.0
3612,1057,760,0,3582.0,3541.0,990.0,924.0,652.0,551.0
3635,1128,867,0,3612.0,3582.0,1057.0,990.0,760.0,652.0
3636,1202,963,0,3635.0,3612.0,1128.0,1057.0,867.0,760.0
3616,1277,1048,0,3636.0,3635.0,1202.0,1128.0,963.0,867.0
3579,1349,1121,0,3616.0,3636.0,1277.0,1202.0,1048.0,963.0
3534,1405,1177,0,3579.0,3616.0,1349.0,1277.0,1121.0,1048.0
3477,1459,1227,0,3534.0,3579.0,1405.0,1349.0,1177.0,1121.0
3420,1509,1275,0,3477.0,3534.0,1459.0,1405.0,1227.0,1177.0
3357,1555,1324,0,3420.0,3477.0,1509.0,1459.0,1275.0,1227.0
3300,1606,1379,0,3357.0,3420.0,1555.0,1509.0,1324.0,1275.0
3241,1659,1424,0,3300.0,3357.0,1606.0,1555.0,1379.0,1324.0
3185,1736,1465,0,3241.0,3300.0,1659.0,1606.0,1424.0,1379.0
3131,1819,1503,0,3185.0,3241.0,1736.0,1659.0,1465.0,1424.0
3084,1908,1527,0,3131.0,3185.0,1819.0,1736.0,1503.0,1465.0
3044,2001,1540,0,3084.0,3131.0,1908.0,1819.0,1527.0,1503.0
3008,2100,1544,0,3044.0,3084.0,2001.0,1908.0,1540.0,1527.0
2978,2196,1541,0,3008.0,3044.0,2100.0,2001.0,1544.0,1540.0
2952,2280,1522,0,2978.0,3008.0,2196.0,2100.0,1541.0,1544.0
2932,2353,1504,0,2952.0,2978.0,2280.0,2196.0,1522.0,1541.0
2916,2406,1483,0,2932.0,2952.0,2353.0,2280.0,1504.0,1522.0
2911,2439,1462,0,2916.0,2932.0,2406.0,2353.0,1483.0,1504.0
2926,2431,1414,0,2911.0,2916.0,2439.0,2406.0,1462.0,1483.0
2952,2360,1317,0,2926.0,2911.0,2431.0,2439.0,1414.0,1462.0
2997,2210,1157,0,2952.0,2926.0,2360.0,2431.0,1317.0,1414.0
3067,2019,949,0,2997.0,2952.0,2210.0,2360.0,1157.0,1317.0
3164,1838,727,0,3067.0,2997.0,2019.0,2210.0,949.0,1157.0
3298,1687,531,0,3164.0,3067.0,1838.0,2019.0,727.0,949.0
3488,1585,391,0,3298.0,3164.0,1687.0,1838.0,531.0,727.0
3747,1543,338,0,3488.0,3298.0,1585.0,1687.0,391.0,531.0
4043,1593,371,0,3747.0,3488.0,1543.0,1585.0,338.0,391.0
4349,1730,459,0,4043.0,3747.0,1593.0,1543.0,371.0,338.0
4636,1960,606,0,4349.0,4043.0,1730.0,1593.0,459.0,371.0
4895,2267,848,0,4636.0,4349.0,1960.0,1730.0,606.0,459.0
5090,2626,1178,0,4895.0,4636.0,2267.0,1960.0,848.0,606.0
5210,2981,1552,0,5090.0,4895.0,2626.0,2267.0,1178.0,848.0
5240,3263,1860,0,5210.0,5090.0,2981.0,2626.0,1552.0,1178.0
5172,3455,2083,0,5240.0,5210.0,3263.0,2981.0,1860.0,1552.0
5025,3560,2229,0,5172.0,5240.0,3455.0,3263.0,2083.0,1860.0
4820,3586,2307,0,5025.0,5172.0,3560.0,3455.0,2229.0,2083.0
4569,3530,2309,0,4820.0,5025.0,3586.0,3560.0,2307.0,2229.0
4312,3375,2261,0,4569.0,4820.0,3530.0,3586.0,2309.0,2307.0
4041,3116,2213,0,4312.0,4569.0,3375.0,3530.0,2261.0,2309.0
3807,2810,2223,0,4041.0,4312.0,3116.0,3375.0,2213.0,2261.0
3681,2483,2274,0,3807.0,4041.0,2810.0,3116.0,2223.0,2213.0
3775,2170,2339,0,3681.0,3807.0,2483.0,2810.0,2274.0,2223.0
4160,1868,2285,0,3775.0,3681.0,2170.0,2483.0,2339.0,2274.0
4845,1553,2023,0,4160.0,3775.0,1868.0,2170.0,2285.0,2339.0
5732,1269,1617,0,4845.0,4160.0,1553.0,1868.0,2023.0,2285.0
6718,1102,1256,0,5732.0,4845.0,1269.0,1553.0,1617.0,2023.0
7723,1030,1045,0,6718.0,5732.0,1102.0,1269.0,1256.0,1617.0
8636,1004,926,0,7723.0,6718.0,1030.0,1102.0,1045.0,1256.0
9247,922,716,0,8636.0,7723.0,1004.0,1030.0,926.0,1045.0
9385,691,378,0,9247.0,8636.0,922.0,1004.0,716.0,926.0
9013,361,124,0,9385.0,9247.0,691.0,922.0,378.0,716.0
8275,52,72,0,9013.0,9385.0,361.0,691.0,124.0,378.0
7284,-149,127,0,8275.0,9013.0,52.0,361.0,72.0,124.0
6181,-202,182,0,7284.0,8275.0,-149.0,52.0,127.0,72.0
5017,-168,228,0,6181.0,7284.0,-202.0,-149.0,182.0,127.0
3842,-164,305,0,5017.0,6181.0,-168.0,-202.0,228.0,182.0
2752,-282,342,0,3842.0,5017.0,-164.0,-168.0,305.0,228.0
1821,-456,252,0,2752.0,3842.0,-282.0,-164.0,342.0,305.0
1107,-599,111,0,1821.0,2752.0,-456.0,-282.0,252.0,342.0
656,-647,-41,0,1107.0,1821.0,-599.0,-456.0,111.0,252.0
466,-600,-109,0,656.0,1107.0,-647.0,-599.0,-41.0,111.0
478,-525,-71,0,466.0,656.0,-600.0,-647.0,-109.0,-41.0
635,-460,6,0,478.0,466.0,-525.0,-600.0,-71.0,-109.0
906,-405,62,0,635.0,478.0,-460.0,-525.0,6.0,-71.0
1238,-320,53,0,906.0,635.0,-405.0,-460.0,62.0,6.0
1584,-202,-14,0,1238.0,906.0,-320.0,-405.0,53.0,62.0
1913,-87,-106,0,1584.0,1238.0,-202.0,-320.0,-14.0,53.0
2227,4,-211,0,1913.0,1584.0,-87.0,-202.0,-106.0,-14.0
2532,95,-274,0,2227.0,1913.0,4.0,-87.0,-211.0,-106.0
2840,222,-273,0,2532.0,2227.0,95.0,4.0,-274.0,-211.0
3160,385,-237,0,2840.0,2532.0,222.0,95.0,-273.0,-274.0
3503,576,-176,0,3160.0,2840.0,385.0,222.0,-237.0,-273.0
3862,785,-97,0,3503.0,3160.0,576.0,385.0,-176.0,-237.0
4267,998,-2,0,3862.0,3503.0,785.0,576.0,-97.0,-176.0
4697,1197,123,0,4267.0,3862.0,998.0,785.0,-2.0,-97.0
5114,1354,258,0,4697.0,4267.0,1197.0,998.0,123.0,-2.0
5491,1420,361,0,5114.0,4697.0,1354.0,1197.0,258.0,123.0
5761,1381,414,0,5491.0,5114.0,1420.0,1354.0,361.0,258.0
5907,1261,431,0,5761.0,5491.0,1381.0,1420.0,414.0,361.0
5943,1078,433,0,5907.0,5761.0,1261.0,1381.0,431.0,414.0
5889,867,449,0,5943.0,5907.0,1078.0,1261.0,433.0,431.0
5817,650,515,0,5889.0,5943.0,867.0,1078.0,449.0,433.0
5744,451,607,0,5817.0,5889.0,650.0,867.0,515.0,449.0
5680,278,694,0,5744.0,5817.0,451.0,650.0,607.0,515.0
5615,134,720,0,5680.0,5744.0,278.0,451.0,694.0,607.0
5531,33,698,0,5615.0,5680.0,134.0,278.0,720.0,694.0
5419,-47,643,0,5531.0,5615.0,33.0,134.0,698.0,720.0
5261,-100,553,0,5419.0,5531.0,-47.0,33.0,643.0,698.0
5026,-107,435,0,5261.0,5419.0,-100.0,-47.0,553.0,643.0
4753,-73,313,0,5026.0,5261.0,-107.0,-100.0,435.0,553.0
4448,5,192,0,4753.0,5026.0,-73.0,-107.0,313.0,435.0
4156,140,121,0,4448.0,4753.0,5.0,-73.0,192.0,313.0
3904,297,102,0,4156.0,4448.0,140.0,5.0,121.0,192.0
3681,456,122,0,3904.0,4156.0,297.0,140.0,102.0,121.0
3472,631,150,0,3681.0,3904.0,456.0,297.0,122.0,102.0
3285,801,180,0,3472.0,3681.0,631.0,456.0,150.0,122.0
3116,986,196,0,3285.0,3472.0,801.0,631.0,180.0,150.0
2964,1149,215,0,3116.0,3285.0,986.0,801.0,196.0,180.0
2846,1279,218,0,2964.0,3116.0,1149.0,986.0,215.0,196.0
2774,1373,215,0,2846.0,2964.0,1279.0,1149.0,218.0,215.0
2741,1464,192,0,2774.0,2846.0,1373.0,1279.0,215.0,218.0
2741,1551,192,0,2741.0,2774.0,1464.0,1373.0,192.0,215.0
2787,1614,203,0,2741.0,2741.0,1551.0,1464.0,192.0,192.0
2865,1655,216,0,2787.0,2741.0,1614.0,1551.0,203.0,192.0
2969,1672,228,0,2865.0,2787.0,1655.0,1614.0,216.0,203.0
3084,1677,251,0,2969.0,2865.0,1672.0,1655.0,228.0,216.0
3220,1646,276,0,3084.0,2969.0,1677.0,1672.0,251.0,228.0
3343,1599,301,0,3220.0,3084.0,1646.0,1677.0,276.0,251.0
3462,1500,300,0,3343.0,3220.0,1599.0,1646.0,301.0,276.0
3565,1374,266,0,3462.0,3343.0,1500.0,1599.0,300.0,301.0
3651,1260,214,0,3565.0,3462.0,1374.0,1500.0,266.0,300.0
3719,1154,179,0,3651.0,3565.0,1260.0,1374.0,214.0,266.0
3780,1044,183,0,3719.0,3651.0,1154.0,1260.0,179.0,214.0
3828,927,234,0,3780.0,3719.0,1044.0,1154.0,183.0,179.0
3859,809,302,0,3828.0,3780.0,927.0,1044.0,234.0,183.0
3882,689,367,0,3859.0,3828.0,809.0,927.0,302.0,234.0
3880,592,433,0,3882.0,3859.0,689.0,809.0,367.0,302.0
3843,533,499,0,3880.0,3882.0,592.0,689.0,433.0,367.0
3767,533,540,0,3843.0,3880.0,533.0,592.0,499.0,433.0
3668,587,543,0,3767.0,3843.0,533.0,533.0,540.0,499.0
3561,668,539,0,3668.0,3767.0,587.0,533.0,543.0,540.0
3469,763,541,0,3561.0,3668.0,668.0,587.0,539.0,543.0
3399,869,559,0,3469.0,3561.0,763.0,668.0,541.0,539.0
3342,992,597,0,3399.0,3469.0,869.0,763.0,559.0,541.0
3278,1131,639,0,3342.0,3399.0,992.0,869.0,597.0,559.0
3221,1270,694,0,3278.0,3342.0,1131.0,992.0,639.0,597.0
3193,1360,714,0,3221.0,3278.0,1270.0,1131.0,694.0,639.0
3179,1382,685,0,3193.0,3221.0,1360.0,1270.0,714.0,694.0
3193,1411,675,0,3179.0,3193.0,1382.0,1360.0,685.0,714.0
3219,1430,694,0,3193.0,3179.0,1411.0,1382.0,675.0,685.0
3261,1443,725,0,3219.0,3193.0,1430.0,1411.0,694.0,675.0
3286,1450,751,0,3261.0,3219.0,1443.0,1430.0,725.0,694.0
3301,1456,782,0,3286.0,3261.0,1450.0,1443.0,751.0,725.0
3301,1431,776,0,3301.0,3286.0,1456.0,1450.0,782.0,751.0
3308,1384,763,0,3301.0,3301.0,1431.0,1456.0,776.0,782.0
3312,1353,742,0,3308.0,3301.0,1384.0,1431.0,763.0,776.0
3323,1354,719,0,3312.0,3308.0,1353.0,1384.0,742.0,763.0
3339,1371,716,0,3323.0,3312.0,1354.0,1353.0,719.0,742.0
3354,1403,724,0,3339.0,3323.0,1371.0,1354.0,716.0,719.0
3372,1463,699,0,3354.0,3339.0,1403.0,1371.0,724.0,716.0
3396,1564,665,0,3372.0,3354.0,1463.0,1403.0,699.0,724.0
3426,1692,652,0,3396.0,3372.0,1564.0,1463.0,665.0,699.0
3461,1835,686,0,3426.0,3396.0,1692.0,1564.0,652.0,665.0
3488,1983,745,0,3461.0,3426.0,1835.0,1692.0,686.0,652.0
3515,2127,797,0,3488.0,3461.0,1983.0,1835.0,745.0,686.0
3528,2279,834,0,3515.0,3488.0,2127.0,1983.0,797.0,745.0
3521,2415,846,0,3528.0,3515.0,2279.0,2127.0,834.0,797.0
3502,2520,856,0,3521.0,3528.0,2415.0,2279.0,846.0,834.0
3474,2598,874,0,3502.0,3521.0,2520.0,2415.0,856.0,846.0
3452,2643,876,0,3474.0,3502.0,2598.0,2520.0,874.0,856.0
3442,2663,866,0,3452.0,3474.0,2643.0,2598.0,876.0,874.0
3445,2665,854,0,3442.0,3452.0,2663.0,2643.0,866.0,876.0
3461,2657,838,0,3445.0,3442.0,2665.0,2663.0,854.0,866.0
3495,2630,816,0,3461.0,3445.0,2657.0,2665.0,838.0,854.0
3543,2582,795,0,3495.0,3461.0,2630.0,2657.0,816.0,838.0
3600,2498,772,0,3543.0,3495.0,2582.0,2630.0,795.0,816.0
3664,2372,747,0,3600.0,3543.0,2498.0,2582.0,772.0,795.0
3710,2216,707,0,3664.0,3600.0,2372.0,2498.0,747.0,772.0
3736,2043,647,0,3710.0,3664.0,2216.0,2372.0,707.0,747.0
3746,1872,592,0,3736.0,3710.0,2043.0,2216.0,647.0,707.0
3734,1728,567,0,3746.0,3736.0,1872.0,2043.0,592.0,647.0
3705,1584,585,0,3734.0,3746.0,1728.0,1872.0,567.0,592.0
3660,1417,599,0,3705.0,3734.0,1584.0,1728.0,585.0,567.0
3609,1235,576,0,3660.0,3705.0,1417.0,1584.0,599.0,585.0
3558,1056,529,0,3609.0,3660.0,1235.0,1417.0,576.0,599.0
3504,930,476,0,3558.0,3609.0,1056.0,1235.0,529.0,576.0
3470,845,405,0,3504.0,3558.0,930.0,1056.0,476.0,529.0
3464,822,301,0,3470.0,3504.0,845.0,930.0,405.0,476.0
3477,900,202,0,3464.0,3470.0,822.0,845.0,301.0,405.0
3504,1079,166,0,3477.0,3464.0,900.0,822.0,202.0,301.0
3533,1313,207,0,3504.0,3477.0,1079.0,900.0,166.0,202.0
3545,1542,303,0,3533.0,3504.0,1313.0,1079.0,207.0,166.0
3519,1720,439,0,3545.0,3533.0,1542.0,1313.0,303.0,207.0
3446,1807,591,0,3519.0,3545.0,1720.0,1542.0,439.0,303.0
3319,1814,754,0,3446.0,3519.0,1807.0,1720.0,591.0,439.0
3156,1747,881,0,3319.0,3446.0,1814.0,1807.0,754.0,591.0
2999,1650,977,0,3156.0,3319.0,1747.0,1814.0,881.0,754.0
2882,1528,997,0,2999.0,3156.0,1650.0,1747.0,977.0,881.0
2837,1407,943,0,2882.0,2999.0,1528.0,1650.0,997.0,977.0
2873,1312,848,0,2837.0,2882.0,1407.0,1528.0,943.0,997.0
2987,1265,810,0,2873.0,2837.0,1312.0,1407.0,848.0,943.0
3189,1265,861,0,2987.0,2873.0,1265.0,1312.0,810.0,848.0
3453,1278,971,0,3189.0,2987.0,1265.0,1265.0,861.0,810.0
3742,1260,1036,0,3453.0,3189.0,1278.0,1265.0,971.0,861.0
4013,1184,1067,0,3742.0,3453.0,1260.0,1278.0,1036.0,971.0
4257,1047,1055,0,4013.0,3742.0,1184.0,1260.0,1067.0,1036.0
4452,868,1025,0,4257.0,4013.0,1047.0,1184.0,1055.0,1067.0
4589,703,990,0,4452.0,4257.0,868.0,1047.0,1025.0,1055.0
4677,595,979,0,4589.0,4452.0,703.0,868.0,990.0,1025.0
4726,547,966,0,4677.0,4589.0,595.0,703.0,979.0,990.0
4754,549,946,0,4726.0,4677.0,547.0,595.0,966.0,979.0
4746,601,865,0,4754.0,4726.0,549.0,547.0,946.0,966.0
4734,701,774,0,4746.0,4754.0,601.0,549.0,865.0,946.0
4706,827,676,0,4734.0,4746.0,701.0,601.0,774.0,865.0
4659,938,595,0,4706.0,4734.0,827.0,701.0,676.0,774.0
4596,1003,549,0,4659.0,4706.0,938.0,827.0,595.0,676.0
4523,1024,541,0,4596.0,4659.0,1003.0,938.0,549.0,595.0
4437,1025,547,0,4523.0,4596.0,1024.0,1003.0,541.0,549.0
4333,1007,546,0,4437.0,4523.0,1025.0,1024.0,547.0,541.0
4242,976,563,0,4333.0,4437.0,1007.0,1025.0,546.0,547.0
4175,917,562,0,4242.0,4333.0,976.0,1007.0,563.0,546.0
4134,853,551,0,4175.0,4242.0,917.0,976.0,562.0,563.0
4106,765,521,0,4134.0,4175.0,853.0,917.0,551.0,562.0
4085,668,477,0,4106.0,4134.0,765.0,853.0,521.0,551.0
4099,603,482,0,4085.0,4106.0,668.0,765.0,477.0,521.0
4156,569,525,0,4099.0,4085.0,603.0,668.0,482.0,477.0
4262,558,636,0,4156.0,4099.0,569.0,603.0,525.0,482.0
4449,547,833,0,4262.0,4156.0,558.0,569.0,636.0,525.0
4712,524,1088,0,4449.0,4262.0,547.0,558.0,833.0,636.0
5022,471,1332,0,4712.0,4449.0,524.0,547.0,1088.0,833.0
5339,394,1538,0,5022.0,4712.0,471.0,524.0,1332.0,1088.0
5644,296,1689,0,5339.0,5022.0,394.0,471.0,1538.0,1332.0
5888,182,1793,0,5644.0,5339.0,296.0,394.0,1689.0,1538.0
6043,54,1834,0,5888.0,5644.0,182.0,296.0,1793.0,1689.0
6111,-87,1864,0,6043.0,5888.0,54.0,182.0,1834.0,1793.0
6101,-246,1867,0,6111.0,6043.0,-87.0,54.0,1864.0,1834.0
6039,-408,1829,0,6101.0,6111.0,-246.0,-87.0,1867.0,1864.0
5937,-539,1765,0,6039.0,6101.0,-408.0,-246.0,1829.0,1867.0
5804,-639,1701,0,5937.0,6039.0,-539.0,-408.0,1765.0,1829.0
5641,-722,1589,0,5804.0,5937.0,-639.0,-539.0,1701.0,1765.0
5459,-741,1472,0,5641.0,5804.0,-722.0,-639.0,1589.0,1701.0
5280,-685,1368,0,5459.0,5641.0,-741.0,-722.0,1472.0,1589.0
5112,-561,1260,0,5280.0,5459.0,-685.0,-741.0,1368.0,1472.0
4970,-375,1150,0,5112.0,5280.0,-561.0,-685.0,1260.0,1368.0
4833,-138,1086,0,4970.0,5112.0,-375.0,-561.0,1150.0,1260.0
4689,149,1078,0,4833.0,4970.0,-138.0,-375.0,1086.0,1150.0
4534,468,1102,0,4689.0,4833.0,149.0,-138.0,1078.0,1086.0
4410,778,1102,0,4534.0,4689.0,468.0,149.0,1102.0,1078.0
4332,1083,1036,0,4410.0,4534.0,778.0,468.0,1102.0,1102.0
4278,1366,943,0,4332.0,4410.0,1083.0,778.0,1036.0,1102.0
4206,1616,868,0,4278.0,4332.0,1366.0,1083.0,943.0,1036.0
4122,1823,796,0,4206.0,4278.0,1616.0,1366.0,868.0,943.0
4023,1987,731,0,4122.0,4206.0,1823.0,1616.0,796.0,868.0
3918,2127,699,0,4023.0,4122.0,1987.0,1823.0,731.0,796.0
3800,2234,702,0,3918.0,4023.0,2127.0,1987.0,699.0,731.0
3688,2296,707,0,3800.0,3918.0,2234.0,2127.0,702.0,699.0
3573,2340,698,0,3688.0,3800.0,2296.0,2234.0,707.0,702.0
3459,2370,706,0,3573.0,3688.0,2340.0,2296.0,698.0,707.0
3356,2362,722,0,3459.0,3573.0,2370.0,2340.0,706.0,698.0
3284,2323,705,0,3356.0,3459.0,2362.0,2370.0,722.0,706.0
3233,2266,650,0,3284.0,3356.0,2323.0,2362.0,705.0,722.0
3193,2197,584,0,3233.0,3284.0,2266.0,2323.0,650.0,705.0
3157,2103,552,0,3193.0,3233.0,2197.0,2266.0,584.0,650.0
3117,1978,562,0,3157.0,3193.0,2103.0,2197.0,552.0,584.0
3067,1841,587,0,3117.0,3157.0,1978.0,2103.0,562.0,552.0
3012,1702,600,0,3067.0,3117.0,1841.0,1978.0,587.0,562.0
2951,1543,618,0,3012.0,3067.0,1702.0,1841.0,600.0,587.0
2888,1387,633,0,2951.0,3012.0,1543.0,1702.0,618.0,600.0
2823,1254,651,0,2888.0,2951.0,1387.0,1543.0,633.0,618.0
2747,1139,660,0,2823.0,2888.0,1254.0,1387.0,651.0,633.0
2681,1028,669,0,2747.0,2823.0,1139.0,1254.0,660.0,651.0
2640,934,676,0,2681.0,2747.0,1028.0,1139.0,669.0,660.0
2629,844,697,0,2640.0,2681.0,934.0,1028.0,676.0,669.0
2633,755,724,0,2629.0,2640.0,844.0,934.0,697.0,676.0
2670,675,745,0,2633.0,2629.0,755.0,844.0,724.0,697.0
2726,612,756,0,2670.0,2633.0,675.0,755.0,745.0,724.0
2799,570,755,0,2726.0,2670.0,612.0,675.0,756.0,745.0
2871,550,741,0,2799.0,2726.0,570.0,612.0,755.0,756.0
2948,554,704,0,2871.0,2799.0,550.0,570.0,741.0,755.0
3027,585,663,0,2948.0,2871.0,554.0,550.0,704.0,741.0
3100,634,624,0,3027.0,2948.0,585.0,554.0,663.0,704.0
3172,696,602,0,3100.0,3027.0,634.0,585.0,624.0,663.0
3239,766,589,0,3172.0,3100.0,696.0,634.0,602.0,624.0
3288,850,592,0,3239.0,3172.0,766.0,696.0,589.0,602.0
3321,949,619,0,3288.0,3239.0,850.0,766.0,592.0,589.0
3326,1051,662,0,3321.0,3288.0,949.0,850.0,619.0,592.0
3312,1134,720,0,3326.0,3321.0,1051.0,949.0,662.0,619.0
3269,1192,782,0,3312.0,3326.0,1134.0,1051.0,720.0,662.0
3207,1209,845,0,3269.0,3312.0,1192.0,1134.0,782.0,720.0
3124,1192,893,0,3207.0,3269.0,1209.0,1192.0,845.0,782.0
3019,1141,937,0,3124.0,3207.0,1192.0,1209.0,893.0,845.0
2901,1068,961,0,3019.0,3124.0,1141.0,1192.0,937.0,893.0
2780,991,979,0,2901.0,3019.0,1068.0,1141.0,961.0,937.0
2666,904,986,0,2780.0,2901.0,991.0,1068.0,979.0,961.0
2556,815,994,0,2666.0,2780.0,904.0,991.0,986.0,979.0
2462,724,996,0,2556.0,2666.0,815.0,904.0,994.0,986.0
2382,642,999,0,2462.0,2556.0,724.0,815.0,996.0,994.0
2317,576,1004,0,2382.0,2462.0,642.0,724.0,999.0,996.0
2269,524,1021,0,2317.0,2382.0,576.0,642.0,1004.0,999.0
2235,488,1040,0,2269.0,2317.0,524.0,576.0,1021.0,1004.0
2216,466,1064,0,2235.0,2269.0,488.0,524.0,1040.0,1021.0
2216,455,1093,0,2216.0,2235.0,466.0,488.0,1064.0,1040.0
2230,465,1124,0,2216.0,2216.0,455.0,466.0,1093.0,1064.0
2257,491,1153,0,2230.0,2216.0,465.0,455.0,1124.0,1093.0
2297,537,1160,0,2257.0,2230.0,491.0,465.0,1153.0,1124.0
2351,610,1174,0,2297.0,2257.0,537.0,491.0,1160.0,1153.0
2417,703,1191,0,2351.0,2297.0,610.0,537.0,1174.0,1160.0
2499,811,1218,0,2417.0,2351.0,703.0,610.0,1191.0,1174.0
2603,921,1254,0,2499.0,2417.0,811.0,703.0,1218.0,1191.0
2711,1036,1299,0,2603.0,2499.0,921.0,811.0,1254.0,1218.0
2821,1161,1338,0,2711.0,2603.0,1036.0,921.0,1299.0,1254.0
2925,1291,1370,0,2821.0,2711.0,1161.0,1036.0,1338.0,1299.0
3024,1433,1394,0,2925.0,2821.0,1291.0,1161.0,1370.0,1338.0
3109,1595,1410,0,3024.0,2925.0,1433.0,1291.0,1394.0,1370.0
3184,1773,1423,0,3109.0,3024.0,1595.0,1433.0,1410.0,1394.0
3242,1964,1420,0,3184.0,3109.0,1773.0,1595.0,1423.0,1410.0
3278,2165,1384,0,3242.0,3184.0,1964.0,1773.0,1420.0,1423.0
3311,2362,1302,0,3278.0,3242.0,2165.0,1964.0,1384.0,1420.0
3341,2531,1161,0,3311.0,3278.0,2362.0,2165.0,1302.0,1384.0
3369,2646,951,0,3341.0,3311.0,2531.0,2362.0,1161.0,1302.0
3410,2702,708,0,3369.0,3341.0,2646.0,2531.0,951.0,1161.0
3478,2698,494,0,3410.0,3369.0,2702.0,2646.0,708.0,951.0
3570,2646,353,0,3478.0,3410.0,2698.0,2702.0,494.0,708.0
3685,2581,319,0,3570.0,3478.0,2646.0,2698.0,353.0,494.0
3821,2506,377,0,3685.0,3570.0,2581.0,2646.0,319.0,353.0
3971,2425,497,0,3821.0,3685.0,2506.0,2581.0,377.0,319.0
4129,2346,636,0,3971.0,3821.0,2425.0,2506.0,497.0,377.0
4312,2278,772,0,4129.0,3971.0,2346.0,2425.0,636.0,497.0
4514,2254,911,0,4312.0,4129.0,2278.0,2346.0,772.0,636.0
4710,2306,1076,0,4514.0,4312.0,2254.0,2278.0,911.0,772.0
4886,2417,1275,0,4710.0,4514.0,2306.0,2254.0,1076.0,911.0
5025,2554,1483,0,4886.0,4710.0,2417.0,2306.0,1275.0,1076.0
5089,2698,1678,0,5025.0,4886.0,2554.0,2417.0,1483.0,1275.0
5054,2817,1851,0,5089.0,5025.0,2698.0,2554.0,1678.0,1483.0
4908,2897,1992,0,5054.0,5089.0,2817.0,2698.0,1851.0,1678.0
4662,2962,2165,0,4908.0,5054.0,2897.0,2817.0,1992.0,1851.0
4324,3014,2325,0,4662.0,4908.0,2962.0,2897.0,2165.0,1992.0
3913,3032,2464,0,4324.0,4662.0,3014.0,2962.0,2325.0,2165.0
3493,2999,2517,0,3913.0,4324.0,3032.0,3014.0,2464.0,2325.0
3094,2928,2454,0,3493.0,3913.0,2999.0,3032.0,2517.0,2464.0
2746,2839,2287,0,3094.0,3493.0,2928.0,2999.0,2454.0,2517.0
2471,2748,2093,0,2746.0,3094.0,2839.0,2928.0,2287.0,2454.0
2259,2658,1934,0,2471.0,2746.0,2748.0,2839.0,2093.0,2287.0
2086,2565,1871,0,2259.0,2471.0,2658.0,2748.0,1934.0,2093.0
1945,2477,1922,0,2086.0,2259.0,2565.0,2658.0,1871.0,1934.0
1874,2363,2072,0,1945.0,2086.0,2477.0,2565.0,1922.0,1871.0
1905,2137,2182,0,1874.0,1945.0,2363.0,2477.0,2072.0,1922.0
2076,1745,2148,0,1905.0,1874.0,2137.0,2363.0,2182.0,2072.0
2386,1290,2017,0,2076.0,1905.0,1745.0,2137.0,2148.0,2182.0
2814,923,1914,0,2386.0,2076.0,1290.0,1745.0,2017.0,2148.0
3354,710,1856,0,2814.0,2386.0,923.0,1290.0,1914.0,2017.0
4020,655,1855,0,3354.0,2814.0,710.0,923.0,1856.0,1914.0
4802,708,1893,0,4020.0,3354.0,655.0,710.0,1855.0,1856.0
5623,764,1898,0,4802.0,4020.0,708.0,655.0,1893.0,1855.0
6341,765,1847,0,5623.0,4802.0,764.0,708.0,1898.0,1893.0
6860,694,1744,0,6341.0,5623.0,765.0,764.0,1847.0,1898.0
7110,550,1528,0,6860.0,6341.0,694.0,765.0,1744.0,1847.0
7059,342,1173,0,7110.0,6860.0,550.0,694.0,1528.0,1744.0
6758,148,768,0,7059.0,7110.0,342.0,550.0,1173.0,1528.0
6311,-35,371,0,6758.0,7059.0,148.0,342.0,768.0,1173.0
5806,-222,-35,0,6311.0,6758.0,-35.0,148.0,371.0,768.0
5307,-422,-420,0,5806.0,6311.0,-222.0,-35.0,-35.0,371.0
4845,-633,-742,0,5307.0,5806.0,-422.0,-222.0,-420.0,-35.0
4423,-806,-988,0,4845.0,5307.0,-633.0,-422.0,-742.0,-420.0
4084,-884,-1070,0,4423.0,4845.0,-806.0,-633.0,-988.0,-742.0
3828,-811,-981,0,4084.0,4423.0,-884.0,-806.0,-1070.0,-988.0
3653,-604,-765,0,3828.0,4084.0,-811.0,-884.0,-981.0,-1070.0
3545,-299,-501,0,3653.0,3828.0,-604.0,-811.0,-765.0,-981.0
3493,2,-219,0,3545.0,3653.0,-299.0,-604.0,-501.0,-765.0
3498,249,17,0,3493.0,3545.0,2.0,-299.0,-219.0,-501.0
3544,445,170,0,3498.0,3493.0,249.0,2.0,17.0,-219.0
3637,589,246,0,3544.0,3498.0,445.0,249.0,170.0,17.0
3764,679,279,0,3637.0,3544.0,589.0,445.0,246.0,170.0
3908,729,266,0,3764.0,3637.0,679.0,589.0,279.0,246.0
4053,770,237,0,3908.0,3764.0,729.0,679.0,266.0,279.0
4188,785,209,0,4053.0,3908.0,770.0,729.0,237.0,266.0
4294,793,202,0,4188.0,4053.0,785.0,770.0,209.0,237.0
4371,799,211,0,4294.0,4188.0,793.0,785.0,202.0,209.0
4422,781,247,0,4371.0,4294.0,799.0,793.0,211.0,202.0
4430,771,258,0,4422.0,4371.0,781.0,799.0,247.0,211.0
4414,752,238,0,4430.0,4422.0,771.0,781.0,258.0,247.0
4384,742,192,0,4414.0,4430.0,752.0,771.0,238.0,258.0
4357,739,139,0,4384.0,4414.0,742.0,752.0,192.0,238.0
4343,738,78,0,4357.0,4384.0,739.0,742.0,139.0,192.0
4341,726,19,0,4343.0,4357.0,738.0,739.0,78.0,139.0
4354,711,-43,0,4341.0,4343.0,726.0,738.0,19.0,78.0
4386,710,-117,0,4354.0,4341.0,711.0,726.0,-43.0,19.0
4423,735,-162,0,4386.0,4354.0,710.0,711.0,-117.0,-43.0
4467,739,-198,0,4423.0,4386.0,735.0,710.0,-162.0,-117.0
4521,702,-234,0,4467.0,4423.0,739.0,735.0,-198.0,-162.0
4579,645,-257,0,4521.0,4467.0,702.0,739.0,-234.0,-198.0
4633,593,-267,0,4579.0,4521.0,645.0,702.0,-257.0,-234.0
4671,543,-274,0,4633.0,4579.0,593.0,645.0,-267.0,-257.0
4695,490,-291,0,4671.0,4633.0,543.0,593.0,-274.0,-267.0
4714,431,-303,0,4695.0,4671.0,490.0,543.0,-291.0,-274.0
4713,389,-318,0,4714.0,4695.0,431.0,490.0,-303.0,-291.0
4701,368,-330,0,4713.0,4714.0,389.0,431.0,-318.0,-303.0
4666,369,-345,0,4701.0,4713.0,368.0,389.0,-330.0,-318.0
4621,401,-366,0,4666.0,4701.0,369.0,368.0,-345.0,-330.0
4554,464,-397,0,4621.0,4666.0,401.0,369.0,-366.0,-345.0
4496,521,-415,0,4554.0,4621.0,464.0,401.0,-397.0,-366.0
4439,575,-395,0,4496.0,4554.0,521.0,464.0,-415.0,-397.0
4355,637,-373,0,4439.0,4496.0,575.0,521.0,-395.0,-415.0
4249,708,-383,0,4355.0,4439.0,637.0,575.0,-373.0,-395.0
4142,765,-404,0,4249.0,4355.0,708.0,637.0,-383.0,-373.0
4040,789,-415,0,4142.0,4249.0,765.0,708.0,-404.0,-383.0
3950,803,-405,0,4040.0,4142.0,789.0,765.0,-415.0,-404.0
3877,810,-380,0,3950.0,4040.0,803.0,789.0,-405.0,-415.0
3807,810,-361,0,3877.0,3950.0,810.0,803.0,-380.0,-405.0
3745,814,-357,0,3807.0,3877.0,810.0,810.0,-361.0,-380.0
3692,817,-375,0,3745.0,3807.0,814.0,810.0,-357.0,-361.0
3651,824,-411,0,3692.0,3745.0,817.0,814.0,-375.0,-357.0
3623,847,-443,0,3651.0,3692.0,824.0,817.0,-411.0,-375.0
3605,883,-481,0,3623.0,3651.0,847.0,824.0,-443.0,-411.0
3616,919,-512,0,3605.0,3623.0,883.0,847.0,-481.0,-443.0
3652,934,-523,0,3616.0,3605.0,919.0,883.0,-512.0,-481.0
3709,943,-519,0,3652.0,3616.0,934.0,919.0,-523.0,-512.0
3770,970,-510,0,3709.0,3652.0,943.0,934.0,-519.0,-523.0
3833,1023,-493,0,3770.0,3709.0,970.0,943.0,-510.0,-519.0
3890,1102,-463,0,3833.0,3770.0,1023.0,970.0,-493.0,-510.0
3928,1185,-442,0,3890.0,3833.0,1102.0,1023.0,-463.0,-493.0
3953,1254,-443,0,3928.0,3890.0,1185.0,1102.0,-442.0,-463.0
3955,1323,-447,0,3953.0,3928.0,1254.0,1185.0,-443.0,-442.0
3935,1400,-441,0,3955.0,3953.0,1323.0,1254.0,-447.0,-443.0
3901,1471,-437,0,3935.0,3955.0,1400.0,1323.0,-441.0,-447.0
3860,1530,-442,0,3901.0,3935.0,1471.0,1400.0,-437.0,-441.0
3804,1591,-442,0,3860.0,3901.0,1530.0,1471.0,-442.0,-437.0
3726,1665,-432,0,3804.0,3860.0,1591.0,1530.0,-442.0,-442.0
3635,1768,-368,0,3726.0,3804.0,1665.0,1591.0,-432.0,-442.0
3554,1878,-288,0,3635.0,3726.0,1768.0,1665.0,-368.0,-432.0
3512,1964,-252,0,3554.0,3635.0,1878.0,1768.0,-288.0,-368.0
3511,2029,-281,0,3512.0,3554.0,1964.0,1878.0,-252.0,-288.0
3538,2120,-307,0,3511.0,3512.0,2029.0,1964.0,-281.0,-252.0
3577,2243,-279,0,3538.0,3511.0,2120.0,2029.0,-307.0,-281.0
3621,2366,-209,0,3577.0,3538.0,2243.0,2120.0,-279.0,-307.0
3649,2464,-166,0,3621.0,3577.0,2366.0,2243.0,-209.0,-279.0
3634,2561,-163,0,3649.0,3621.0,2464.0,2366.0,-166.0,-209.0
3588,2654,-167,0,3634.0,3649.0,2561.0,2464.0,-163.0,-166.0
3523,2721,-150,0,3588.0,3634.0,2654.0,2561.0,-167.0,-163.0
3458,2759,-105,0,3523.0,3588.0,2721.0,2654.0,-150.0,-167.0
3391,2758,-51,0,3458.0,3523.0,2759.0,2721.0,-105.0,-150.0
3330,2714,-22,0,3391.0,3458.0,2758.0,2759.0,-51.0,-105.0
3292,2657,5,0,3330.0,3391.0,2714.0,2758.0,-22.0,-51.0
3276,2606,56,0,3292.0,3330.0,2657.0,2714.0,5.0,-22.0
3273,2557,116,0,3276.0,3292.0,2606.0,2657.0,56.0,5.0
3273,2496,195,0,3273.0,3276.0,2557.0,2606.0,116.0,56.0
3262,2436,240,0,3273.0,3273.0,2496.0,2557.0,195.0,116.0
3257,2380,243,0,3262.0,3273.0,2436.0,2496.0,240.0,195.0
3266,2317,211,0,3257.0,3262.0,2380.0,2436.0,243.0,240.0
3279,2264,172,0,3266.0,3257.0,2317.0,2380.0,211.0,243.0
3290,2238,152,0,3279.0,3266.0,2264.0,2317.0,172.0,211.0
3298,2216,148,0,3290.0,3279.0,2238.0,2264.0,152.0,172.0
3305,2196,168,0,3298.0,3290.0,2216.0,2238.0,148.0,152.0
3304,2189,204,0,3305.0,3298.0,2196.0,2216.0,168.0,148.0
3296,2197,265,0,3304.0,3305.0,2189.0,2196.0,204.0,168.0
3279,2213,303,0,3296.0,3304.0,2197.0,2189.0,265.0,204.0
3251,2242,304,0,3279.0,3296.0,2213.0,2197.0,303.0,265.0
3213,2284,285,0,3251.0,3279.0,2242.0,2213.0,304.0,303.0
3172,2328,289,0,3213.0,3251.0,2284.0,2242.0,285.0,304.0
3145,2369,327,0,3172.0,3213.0,2328.0,2284.0,289.0,285.0
3120,2389,352,0,3145.0,3172.0,2369.0,2328.0,327.0,289.0
3098,2399,364,0,3120.0,3145.0,2389.0,2369.0,352.0,327.0
3077,2384,393,0,3098.0,3120.0,2399.0,2389.0,364.0,352.0
3070,2350,447,0,3077.0,3098.0,2384.0,2399.0,393.0,364.0
3069,2321,494,0,3070.0,3077.0,2350.0,2384.0,447.0,393.0
3077,2290,511,0,3069.0,3070.0,2321.0,2350.0,494.0,447.0
3089,2271,498,0,3077.0,3069.0,2290.0,2321.0,511.0,494.0
3113,2264,479,0,3089.0,3077.0,2271.0,2290.0,498.0,511.0
3157,2263,483,0,3113.0,3089.0,2264.0,2271.0,479.0,498.0
3224,2248,510,0,3157.0,3113.0,2263.0,2264.0,483.0,479.0
3302,2227,531,0,3224.0,3157.0,2248.0,2263.0,510.0,483.0
3379,2199,522,0,3302.0,3224.0,2227.0,2248.0,531.0,510.0
3454,2184,495,0,3379.0,3302.0,2199.0,2227.0,522.0,531.0
3518,2165,397,0,3454.0,3379.0,2184.0,2199.0,495.0,522.0
3597,2142,279,0,3518.0,3454.0,2165.0,2184.0,397.0,495.0
3674,2154,269,0,3597.0,3518.0,2142.0,2165.0,279.0,397.0
3743,2170,346,0,3674.0,3597.0,2154.0,2142.0,269.0,279.0
3800,2182,446,0,3743.0,3674.0,2170.0,2154.0,346.0,269.0
3834,2178,511,0,3800.0,3743.0,2182.0,2170.0,446.0,346.0
3846,2136,549,0,3834.0,3800.0,2178.0,2182.0,511.0,446.0
3832,2056,582,0,3846.0,3834.0,2136.0,2178.0,549.0,511.0
3799,1942,607,0,3832.0,3846.0,2056.0,2136.0,582.0,549.0
3755,1821,614,0,3799.0,3832.0,1942.0,2056.0,607.0,582.0
3711,1704,582,0,3755.0,3799.0,1821.0,1942.0,614.0,607.0
3673,1602,500,0,3711.0,3755.0,1704.0,1821.0,582.0,614.0
3634,1545,378,0,3673.0,3711.0,1602.0,1704.0,500.0,582.0
3606,1549,269,0,3634.0,3673.0,1545.0,1602.0,378.0,500.0
3571,1619,220,0,3606.0,3634.0,1549.0,1545.0,269.0,378.0
3525,1725,250,0,3571.0,3606.0,1619.0,1549.0,220.0,269.0
3465,1832,344,0,3525.0,3571.0,1725.0,1619.0,250.0,220.0
3391,1927,486,0,3465.0,3525.0,1832.0,1725.0,344.0,250.0
3311,1981,631,0,3391.0,3465.0,1927.0,1832.0,486.0,344.0
3237,2005,760,0,3311.0,3391.0,1981.0,1927.0,631.0,486.0
3174,1990,848,0,3237.0,3311.0,2005.0,1981.0,760.0,631.0
3137,1954,895,0,3174.0,3237.0,1990.0,2005.0,848.0,760.0
3129,1909,928,0,3137.0,3174.0,1954.0,1990.0,895.0,848.0
3164,1847,936,0,3129.0,3137.0,1909.0,1954.0,928.0,895.0
3228,1750,898,0,3164.0,3129.0,1847.0,1909.0,936.0,928.0
3309,1608,796,0,3228.0,3164.0,1750.0,1847.0,898.0,936.0
3408,1425,690,0,3309.0,3228.0,1608.0,1750.0,796.0,898.0
3539,1219,688,0,3408.0,3309.0,1425.0,1608.0,690.0,796.0
3712,995,794,0,3539.0,3408.0,1219.0,1425.0,688.0,690.0
3910,784,922,0,3712.0,3539.0,995.0,1219.0,794.0,688.0
4122,581,991,0,3910.0,3712.0,784.0,995.0,922.0,794.0
4329,401,952,0,4122.0,3910.0,581.0,784.0,991.0,922.0
4486,292,816,0,4329.0,4122.0,401.0,581.0,952.0,991.0
4583,280,655,0,4486.0,4329.0,292.0,401.0,816.0,952.0
4617,335,517,0,4583.0,4486.0,280.0,292.0,655.0,816.0
4595,408,395,0,4617.0,4583.0,335.0,280.0,517.0,655.0
4529,471,294,0,4595.0,4617.0,408.0,335.0,395.0,517.0
4431,518,221,0,4529.0,4595.0,471.0,408.0,294.0,395.0
4322,587,168,0,4431.0,4529.0,518.0,471.0,221.0,294.0
4238,644,177,0,4322.0,4431.0,587.0,518.0,168.0,221.0
4173,741,195,0,4238.0,4322.0,644.0,587.0,177.0,168.0
4139,834,145,0,4173.0,4238.0,741.0,644.0,195.0,177.0
4153,922,74,0,4139.0,4173.0,834.0,741.0,145.0,195.0
4161,1036,-20,0,4153.0,4139.0,922.0,834.0,74.0,145.0
4148,1115,-132,0,4161.0,4153.0,1036.0,922.0,-20.0,74.0
4124,1161,-191,0,4148.0,4161.0,1115.0,1036.0,-132.0,-20.0
4054,1159,-238,0,4124.0,4148.0,1161.0,1115.0,-191.0,-132.0
3976,1111,-232,0,4054.0,4124.0,1159.0,1161.0,-238.0,-191.0
3893,1047,-185,0,3976.0,4054.0,1111.0,1159.0,-232.0,-238.0
3807,959,-109,0,3893.0,3976.0,1047.0,1111.0,-185.0,-232.0
3730,873,4,0,3807.0,3893.0,959.0,1047.0,-109.0,-185.0
3668,812,170,0,3730.0,3807.0,873.0,959.0,4.0,-109.0
3618,778,369,0,3668.0,3730.0,812.0,873.0,170.0,4.0
3590,810,601,0,3618.0,3668.0,778.0,812.0,369.0,170.0
3600,874,839,0,3590.0,3618.0,810.0,778.0,601.0,369.0
3653,941,1062,0,3600.0,3590.0,874.0,810.0,839.0,601.0
3790,990,1321,0,3653.0,3600.0,941.0,874.0,1062.0,839.0
4002,997,1539,0,3790.0,3653.0,990.0,941.0,1321.0,1062.0
4245,993,1607,0,4002.0,3790.0,997.0,990.0,1539.0,1321.0
4546,1015,1590,0,4245.0,4002.0,993.0,997.0,1607.0,1539.0
4889,1066,1571,0,4546.0,4245.0,1015.0,993.0,1590.0,1607.0
5237,1115,1549,0,4889.0,4546.0,1066.0,1015.0,1571.0,1590.0
5517,1157,1489,0,5237.0,4889.0,1115.0,1066.0,1549.0,1571.0
5689,1217,1388,0,5517.0,5237.0,1157.0,1115.0,1489.0,1549.0
5745,1293,1271,0,5689.0,5517.0,1217.0,1157.0,1388.0,1489.0
5685,1395,1215,0,5745.0,5689.0,1293.0,1217.0,1271.0,1388.0
5516,1496,1165,0,5685.0,5745.0,1395.0,1293.0,1215.0,1271.0
5261,1610,1065,0,5516.0,5685.0,1496.0,1395.0,1165.0,1215.0
4953,1747,919,0,5261.0,5516.0,1610.0,1496.0,1065.0,1165.0
4626,1906,796,0,4953.0,5261.0,1747.0,1610.0,919.0,1065.0
4325,2075,760,0,4626.0,4953.0,1906.0,1747.0,796.0,919.0
4077,2222,836,0,4325.0,4626.0,2075.0,1906.0,760.0,796.0
3876,2337,958,0,4077.0,4325.0,2222.0,2075.0,836.0,760.0
3720,2455,1009,0,3876.0,4077.0,2337.0,2222.0,958.0,836.0
3616,2593,946,0,3720.0,3876.0,2455.0,2337.0,1009.0,958.0
3572,2747,847,0,3616.0,3720.0,2593.0,2455.0,946.0,1009.0
3568,2873,802,0,3572.0,3616.0,2747.0,2593.0,847.0,946.0
3612,2946,863,0,3568.0,3572.0,2873.0,2747.0,802.0,847.0
3709,2941,937,0,3612.0,3568.0,2946.0,2873.0,863.0,802.0
3824,2861,957,0,3709.0,3612.0,2941.0,2946.0,937.0,863.0
3959,2754,961,0,3824.0,3709.0,2861.0,2941.0,957.0,937.0
4079,2645,942,0,3959.0,3824.0,2754.0,2861.0,961.0,957.0
4168,2529,901,0,4079.0,3959.0,2645.0,2754.0,942.0,961.0
4232,2364,868,0,4168.0,4079.0,2529.0,2645.0,901.0,942.0
4256,2172,854,0,4232.0,4168.0,2364.0,2529.0,868.0,901.0
4243,1959,866,0,4256.0,4232.0,2172.0,2364.0,854.0,868.0
4204,1738,874,0,4243.0,4256.0,1959.0,2172.0,866.0,854.0
4159,1529,878,0,4204.0,4243.0,1738.0,1959.0,874.0,866.0
4129,1329,864,0,4159.0,4204.0,1529.0,1738.0,878.0,874.0
4085,1152,840,0,4129.0,4159.0,1329.0,1529.0,864.0,878.0
4001,1016,802,0,4085.0,4129.0,1152.0,1329.0,840.0,864.0
3882,901,747,0,4001.0,4085.0,1016.0,1152.0,802.0,840.0
3752,775,696,0,3882.0,4001.0,901.0,1016.0,747.0,802.0
3617,652,644,0,3752.0,3882.0,775.0,901.0,696.0,747.0
3484,551,603,0,3617.0,3752.0,652.0,775.0,644.0,696.0
3352,472,564,0,3484.0,3617.0,551.0,652.0,603.0,644.0
3242,410,539,0,3352.0,3484.0,472.0,551.0,564.0,603.0
3151,376,536,0,3242.0,3352.0,410.0,472.0,539.0,564.0
3100,383,544,0,3151.0,3242.0,376.0,410.0,536.0,539.0
3082,424,550,0,3100.0,3151.0,383.0,376.0,544.0,536.0
3083,488,556,0,3082.0,3100.0,424.0,383.0,550.0,544.0
3103,564,569,0,3083.0,3082.0,488.0,424.0,556.0,550.0
3136,648,591,0,3103.0,3083.0,564.0,488.0,569.0,556.0
3173,735,629,0,3136.0,3103.0,648.0,564.0,591.0,569.0
3205,833,678,0,3173.0,3136.0,735.0,648.0,629.0,591.0
3236,924,730,0,3205.0,3173.0,833.0,735.0,678.0,629.0
3258,1011,763,0,3236.0,3205.0,924.0,833.0,730.0,678.0
3277,1105,804,0,3258.0,3236.0,1011.0,924.0,763.0,730.0
3294,1203,841,0,3277.0,3258.0,1105.0,1011.0,804.0,763.0
3304,1294,861,0,3294.0,3277.0,1203.0,1105.0,841.0,804.0
3280,1392,877,0,3304.0,3294.0,1294.0,1203.0,861.0,841.0
3231,1486,898,0,3280.0,3304.0,1392.0,1294.0,877.0,861.0
3175,1552,911,0,3231.0,3280.0,1486.0,1392.0,898.0,877.0
3106,1608,926,0,3175.0,3231.0,1552.0,1486.0,911.0,898.0
3022,1654,936,0,3106.0,3175.0,1608.0,1552.0,926.0,911.0
2933,1698,938,0,3022.0,3106.0,1654.0,1608.0,936.0,926.0
2839,1714,938,0,2933.0,3022.0,1698.0,1654.0,938.0,936.0
2753,1712,936,0,2839.0,2933.0,1714.0,1698.0,938.0,938.0
2676,1709,933,0,2753.0,2839.0,1712.0,1714.0,936.0,938.0
2597,1717,938,0,2676.0,2753.0,1709.0,1712.0,933.0,936.0
2523,1729,954,0,2597.0,2676.0,1717.0,1709.0,938.0,933.0
2458,1741,977,0,2523.0,2597.0,1729.0,1717.0,954.0,938.0
2401,1746,1007,0,2458.0,2523.0,1741.0,1729.0,977.0,954.0
2349,1748,1045,0,2401.0,2458.0,1746.0,1741.0,1007.0,977.0
2304,1751,1080,0,2349.0,2401.0,1748.0,1746.0,1045.0,1007.0
2263,1754,1124,0,2304.0,2349.0,1751.0,1748.0,1080.0,1045.0
2237,1756,1167,0,2263.0,2304.0,1754.0,1751.0,1124.0,1080.0
2219,1753,1209,0,2237.0,2263.0,1756.0,1754.0,1167.0,1124.0
2205,1763,1253,0,2219.0,2237.0,1753.0,1756.0,1209.0,1167.0
2197,1776,1296,0,2205.0,2219.0,1763.0,1753.0,1253.0,1209.0
2190,1785,1340,0,2197.0,2205.0,1776.0,1763.0,1296.0,1253.0
2190,1793,1393,0,2190.0,2197.0,1785.0,1776.0,1340.0,1296.0
2215,1785,1473,0,2190.0,2190.0,1793.0,1785.0,1393.0,1340.0
2242,1774,1552,0,2215.0,2190.0,1785.0,1793.0,1473.0,1393.0
2268,1760,1605,0,2242.0,2215.0,1774.0,1785.0,1552.0,1473.0
2290,1761,1620,0,2268.0,2242.0,1760.0,1774.0,1605.0,1552.0
2316,1764,1613,0,2290.0,2268.0,1761.0,1760.0,1620.0,1605.0
2336,1780,1600,0,2316.0,2290.0,1764.0,1761.0,1613.0,1620.0
2342,1803,1596,0,2336.0,2316.0,1780.0,1764.0,1600.0,1613.0
2339,1829,1604,0,2342.0,2336.0,1803.0,1780.0,1596.0,1600.0
2316,1859,1626,0,2339.0,2342.0,1829.0,1803.0,1604.0,1596.0
2290,1877,1647,0,2316.0,2339.0,1859.0,1829.0,1626.0,1604.0
2246,1901,1665,0,2290.0,2316.0,1877.0,1859.0,1647.0,1626.0
2204,1922,1678,0,2246.0,2290.0,1901.0,1877.0,1665.0,1647.0
2172,1949,1689,0,2204.0,2246.0,1922.0,1901.0,1678.0,1665.0
2148,1980,1699,0,2172.0,2204.0,1949.0,1922.0,1689.0,1678.0
2136,2003,1717,0,2148.0,2172.0,1980.0,1949.0,1699.0,1689.0
2139,2029,1728,0,2136.0,2148.0,2003.0,1980.0,1717.0,1699.0
2163,2075,1748,0,2139.0,2136.0,2029.0,2003.0,1728.0,1717.0
2206,2162,1773,0,2163.0,2139.0,2075.0,2029.0,1748.0,1728.0
2254,2287,1810,0,2206.0,2163.0,2162.0,2075.0,1773.0,1748.0
2313,2438,1854,0,2254.0,2206.0,2287.0,2162.0,1810.0,1773.0
2384,2592,1878,0,2313.0,2254.0,2438.0,2287.0,1854.0,1810.0
2485,2700,1868,0,2384.0,2313.0,2592.0,2438.0,1878.0,1854.0
2626,2725,1796,0,2485.0,2384.0,2700.0,2592.0,1868.0,1878.0
2811,2655,1673,0,2626.0,2485.0,2725.0,2700.0,1796.0,1868.0
3028,2498,1525,0,2811.0,2626.0,2655.0,2725.0,1673.0,1796.0
3271,2239,1386,0,3028.0,2811.0,2498.0,2655.0,1525.0,1673.0
3513,1877,1282,0,3271.0,3028.0,2239.0,2498.0,1386.0,1525.0
3733,1475,1243,0,3513.0,3271.0,1877.0,2239.0,1282.0,1386.0
3931,1082,1247,0,3733.0,3513.0,1475.0,1877.0,1243.0,1282.0
4157,728,1297,0,3931.0,3733.0,1082.0,1475.0,1247.0,1243.0
4447,427,1400,0,4157.0,3931.0,728.0,1082.0,1297.0,1247.0
4798,224,1536,0,4447.0,4157.0,427.0,728.0,1400.0,1297.0
5176,186,1682,0,4798.0,4447.0,224.0,427.0,1536.0,1400.0
5544,379,1833,0,5176.0,4798.0,186.0,224.0,1682.0,1536.0
5883,751,1989,0,5544.0,5176.0,379.0,186.0,1833.0,1682.0
6190,1216,2162,0,5883.0,5544.0,751.0,379.0,1989.0,1833.0
6411,1663,2333,0,6190.0,5883.0,1216.0,751.0,2162.0,1989.0
6451,2107,2488,0,6411.0,6190.0,1663.0,1216.0,2333.0,2162.0
6329,2449,2620,0,6451.0,6411.0,2107.0,1663.0,2488.0,2333.0
6060,2688,2746,0,6329.0,6451.0,2449.0,2107.0,2620.0,2488.0
5652,2863,2887,0,6060.0,6329.0,2688.0,2449.0,2746.0,2620.0
5136,2997,3003,0,5652.0,6060.0,2863.0,2688.0,2887.0,2746.0
4570,3089,3064,0,5136.0,5652.0,2997.0,2863.0,3003.0,2887.0
3947,3125,3085,0,4570.0,5136.0,3089.0,2997.0,3064.0,3003.0
3274,3080,3025,0,3947.0,4570.0,3125.0,3089.0,3085.0,3064.0
2611,2999,2926,0,3274.0,3947.0,3080.0,3125.0,3025.0,3085.0
2040,2935,2823,0,2611.0,3274.0,2999.0,3080.0,2926.0,3025.0
1617,2909,2772,0,2040.0,2611.0,2935.0,2999.0,2823.0,2926.0
1443,2889,2727,0,1617.0,2040.0,2909.0,2935.0,2772.0,2823.0
1580,2860,2666,0,1443.0,1617.0,2889.0,2909.0,2727.0,2772.0
2044,2803,2523,0,1580.0,1443.0,2860.0,2889.0,2666.0,2727.0
2786,2737,2250,0,2044.0,1580.0,2803.0,2860.0,2523.0,2666.0
3697,2698,1864,0,2786.0,2044.0,2737.0,2803.0,2250.0,2523.0
4678,2689,1404,0,3697.0,2786.0,2698.0,2737.0,1864.0,2250.0
5590,2590,858,0,4678.0,3697.0,2689.0,2698.0,1404.0,1864.0
6205,2369,311,0,5590.0,4678.0,2590.0,2689.0,858.0,1404.0
6433,1997,-59,0,6205.0,5590.0,2369.0,2590.0,311.0,858.0
6248,1460,-232,0,6433.0,6205.0,1997.0,2369.0,-59.0,311.0
5739,864,-129,0,6248.0,6433.0,1460.0,1997.0,-232.0,-59.0
5088,352,205,0,5739.0,6248.0,864.0,1460.0,-129.0,-232.0
4516,-59,571,0,5088.0,5739.0,352.0,864.0,205.0,-129.0
4073,-351,733,0,4516.0,5088.0,-59.0,352.0,571.0,205.0
3721,-564,698,0,4073.0,4516.0,-351.0,-59.0,733.0,571.0
3363,-699,641,0,3721.0,4073.0,-564.0,-351.0,698.0,733.0
3022,-804,678,0,3363.0,3721.0,-699.0,-564.0,641.0,698.0
2781,-904,722,0,3022.0,3363.0,-804.0,-699.0,678.0,641.0
2667,-933,675,0,2781.0,3022.0,-904.0,-804.0,722.0,678.0
2656,-828,555,0,2667.0,2781.0,-933.0,-904.0,675.0,722.0
2715,-628,391,0,2656.0,2667.0,-828.0,-933.0,555.0,675.0
2830,-396,225,0,2715.0,2656.0,-628.0,-828.0,391.0,555.0
3003,-171,115,0,2830.0,2715.0,-396.0,-628.0,225.0,391.0
3206,44,75,0,3003.0,2830.0,-171.0,-396.0,115.0,225.0
3411,258,50,0,3206.0,3003.0,44.0,-171.0,75.0,115.0
3586,467,20,0,3411.0,3206.0,258.0,44.0,50.0,75.0
3696,682,-13,0,3586.0,3411.0,467.0,258.0,20.0,50.0
3743,879,-10,0,3696.0,3586.0,682.0,467.0,-13.0,20.0
3755,1022,29,0,3743.0,3696.0,879.0,682.0,-10.0,-13.0
3754,1094,109,0,3755.0,3743.0,1022.0,879.0,29.0,-10.0
3771,1103,185,0,3754.0,3755.0,1094.0,1022.0,109.0,29.0
3819,1072,218,0,3771.0,3754.0,1103.0,1094.0,185.0,109.0
3893,1029,207,0,3819.0,3771.0,1072.0,1103.0,218.0,185.0
3990,983,172,0,3893.0,3819.0,1029.0,1072.0,207.0,218.0
4085,926,128,0,3990.0,3893.0,983.0,1029.0,172.0,207.0
4180,877,103,0,4085.0,3990.0,926.0,983.0,128.0,172.0
4250,834,56,0,4180.0,4085.0,877.0,926.0,103.0,128.0
4277,785,-16,0,4250.0,4180.0,834.0,877.0,56.0,103.0
4289,738,-55,0,4277.0,4250.0,785.0,834.0,-16.0,56.0
4288,700,-24,0,4289.0,4277.0,738.0,785.0,-55.0,-16.0
4314,677,68,0,4288.0,4289.0,700.0,738.0,-24.0,-55.0
4369,657,171,0,4314.0,4288.0,677.0,700.0,68.0,-24.0
4453,655,299,0,4369.0,4314.0,657.0,677.0,171.0,68.0
4544,656,430,0,4453.0,4369.0,655.0,657.0,299.0,171.0
4622,670,528,0,4544.0,4453.0,656.0,655.0,430.0,299.0
4667,689,566,0,4622.0,4544.0,670.0,656.0,528.0,430.0
4665,735,564,0,4667.0,4622.0,689.0,670.0,566.0,528.0
4611,791,516,0,4665.0,4667.0,735.0,689.0,564.0,566.0
4520,832,453,0,4611.0,4665.0,791.0,735.0,516.0,564.0
4416,868,405,0,4520.0,4611.0,832.0,791.0,453.0,516.0
4283,908,356,0,4416.0,4520.0,868.0,832.0,405.0,453.0
4139,955,334,0,4283.0,4416.0,908.0,868.0,356.0,405.0
3971,1016,324,0,4139.0,4283.0,955.0,908.0,334.0,356.0
3809,1081,336,0,3971.0,4139.0,1016.0,955.0,324.0,334.0
3661,1155,357,0,3809.0,3971.0,1081.0,1016.0,336.0,324.0
3538,1255,400,0,3661.0,3809.0,1155.0,1081.0,357.0,336.0
3429,1372,442,0,3538.0,3661.0,1255.0,1155.0,400.0,357.0
3339,1498,467,0,3429.0,3538.0,1372.0,1255.0,442.0,400.0
3263,1613,483,0,3339.0,3429.0,1498.0,1372.0,467.0,442.0
3216,1720,513,0,3263.0,3339.0,1613.0,1498.0,483.0,467.0
3176,1817,545,0,3216.0,3263.0,1720.0,1613.0,513.0,483.0
3142,1888,559,0,3176.0,3216.0,1817.0,1720.0,545.0,513.0
3113,1940,561,0,3142.0,3176.0,1888.0,1817.0,559.0,545.0
3095,1970,565,0,3113.0,3142.0,1940.0,1888.0,561.0,559.0
3101,1975,603,0,3095.0,3113.0,1970.0,1940.0,565.0,561.0
3118,1947,657,0,3101.0,3095.0,1975.0,1970.0,603.0,565.0
3146,1896,690,0,3118.0,3101.0,1947.0,1975.0,657.0,603.0
3163,1823,695,0,3146.0,3118.0,1896.0,1947.0,690.0,657.0
3181,1735,690,0,3163.0,3146.0,1823.0,1896.0,695.0,690.0
3205,1635,671,0,3181.0,3163.0,1735.0,1823.0,690.0,695.0
3235,1524,648,0,3205.0,3181.0,1635.0,1735.0,671.0,690.0
3266,1424,643,0,3235.0,3205.0,1524.0,1635.0,648.0,671.0
3288,1347,637,0,3266.0,3235.0,1424.0,1524.0,643.0,648.0
3304,1277,603,0,3288.0,3266.0,1347.0,1424.0,637.0,643.0
3318,1213,561,0,3304.0,3288.0,1277.0,1347.0,603.0,637.0
3332,1160,529,0,3318.0,3304.0,1213.0,1277.0,561.0,603.0
3343,1108,507,0,3332.0,3318.0,1160.0,1213.0,529.0,561.0
3356,1059,473,0,3343.0,3332.0,1108.0,1160.0,507.0,529.0
3354,1036,434,0,3356.0,3343.0,1059.0,1108.0,473.0,507.0
3348,1043,425,0,3354.0,3356.0,1036.0,1059.0,434.0,473.0
3338,1068,430,0,3348.0,3354.0,1043.0,1036.0,425.0,434.0
3324,1101,440,0,3338.0,3348.0,1068.0,1043.0,430.0,425.0
3310,1148,463,0,3324.0,3338.0,1101.0,1068.0,440.0,430.0
3293,1203,514,0,3310.0,3324.0,1148.0,1101.0,463.0,440.0
3282,1264,580,0,3293.0,3310.0,1203.0,1148.0,514.0,463.0
3291,1321,631,0,3282.0,3293.0,1264.0,1203.0,580.0,514.0
3322,1392,681,0,3291.0,3282.0,1321.0,1264.0,631.0,580.0
3363,1477,740,0,3322.0,3291.0,1392.0,1321.0,681.0,631.0
3398,1555,769,0,3363.0,3322.0,1477.0,1392.0,740.0,681.0
3415,1613,765,0,3398.0,3363.0,1555.0,1477.0,769.0,740.0
3420,1657,746,0,3415.0,3398.0,1613.0,1555.0,765.0,769.0
3402,1683,727,0,3420.0,3415.0,1657.0,1613.0,746.0,765.0
3378,1701,706,0,3402.0,3420.0,1683.0,1657.0,727.0,746.0
3366,1711,682,0,3378.0,3402.0,1701.0,1683.0,706.0,727.0
3365,1718,667,0,3366.0,3378.0,1711.0,1701.0,682.0,706.0
3361,1728,664,0,3365.0,3366.0,1718.0,1711.0,667.0,682.0
3348,1741,679,0,3361.0,3365.0,1728.0,1718.0,664.0,667.0
3333,1755,697,0,3348.0,3361.0,1741.0,1728.0,679.0,664.0
3306,1784,723,0,3333.0,3348.0,1755.0,1741.0,697.0,679.0
3279,1807,738,0,3306.0,3333.0,1784.0,1755.0,723.0,697.0
3260,1816,731,0,3279.0,3306.0,1807.0,1784.0,738.0,723.0
3239,1843,715,0,3260.0,3279.0,1816.0,1807.0,731.0,738.0
3208,1880,699,0,3239.0,3260.0,1843.0,1816.0,715.0,731.0
3181,1915,701,0,3208.0,3239.0,1880.0,1843.0,699.0,715.0
3151,1939,728,0,3181.0,3208.0,1915.0,1880.0,701.0,699.0
3126,1964,746,0,3151.0,3181.0,1939.0,1915.0,728.0,701.0
3114,1983,749,0,3126.0,3151.0,1964.0,1939.0,746.0,728.0
3115,1994,741,0,3114.0,3126.0,1983.0,1964.0,749.0,746.0
3127,2002,728,0,3115.0,3114.0,1994.0,1983.0,741.0,749.0
3146,2004,702,0,3127.0,3115.0,2002.0,1994.0,728.0,741.0
3160,2007,664,0,3146.0,3127.0,2004.0,2002.0,702.0,728.0
3166,2010,618,0,3160.0,3146.0,2007.0,2004.0,664.0,702.0
3170,2012,560,0,3166.0,3160.0,2010.0,2007.0,618.0,664.0
3184,2006,499,0,3170.0,3166.0,2012.0,2010.0,560.0,618.0
3196,1995,442,0,3184.0,3170.0,2006.0,2012.0,499.0,560.0
3221,1991,403,0,3196.0,3184.0,1995.0,2006.0,442.0,499.0
3248,1997,381,0,3221.0,3196.0,1991.0,1995.0,403.0,442.0
3288,2007,366,0,3248.0,3221.0,1997.0,1991.0,381.0,403.0
3337,2014,357,0,3288.0,3248.0,2007.0,1997.0,366.0,381.0
3400,2007,349,0,3337.0,3288.0,2014.0,2007.0,357.0,366.0
3460,1983,351,0,3400.0,3337.0,2007.0,2014.0,349.0,357.0
3522,1944,387,0,3460.0,3400.0,1983.0,2007.0,351.0,349.0
3585,1898,452,0,3522.0,3460.0,1944.0,1983.0,387.0,351.0
3648,1837,536,0,3585.0,3522.0,1898.0,1944.0,452.0,387.0
3707,1738,613,0,3648.0,3585.0,1837.0,1898.0,536.0,452.0
3777,1605,692,0,3707.0,3648.0,1738.0,1837.0,613.0,536.0
3857,1441,763,0,3777.0,3707.0,1605.0,1738.0,692.0,613.0
3955,1239,783,0,3857.0,3777.0,1441.0,1605.0,763.0,692.0
4073,1009,728,0,3955.0,3857.0,1239.0,1441.0,783.0,763.0
4205,783,567,0,4073.0,3955.0,1009.0,1239.0,728.0,783.0
4349,610,357,0,4205.0,4073.0,783.0,1009.0,567.0,728.0
4481,519,176,0,4349.0,4205.0,610.0,783.0,357.0,567.0
4570,536,63,0,4481.0,4349.0,519.0,610.0,176.0,357.0
4609,643,33,0,4570.0,4481.0,536.0,519.0,63.0,176.0
4579,810,62,0,4609.0,4570.0,643.0,536.0,33.0,63.0
4503,1003,125,0,4579.0,4609.0,810.0,643.0,62.0,33.0
4391,1196,221,0,4503.0,4579.0,1003.0,810.0,125.0,62.0
4242,1383,331,0,4391.0,4503.0,1196.0,1003.0,221.0,125.0
4086,1546,428,0,4242.0,4391.0,1383.0,1196.0,331.0,221.0
3930,1674,487,0,4086.0,4242.0,1546.0,1383.0,428.0,331.0
3797,1781,511,0,3930.0,4086.0,1674.0,1546.0,487.0,428.0
3709,1882,542,0,3797.0,3930.0,1781.0,1674.0,511.0,487.0
3681,1958,593,0,3709.0,3797.0,1882.0,1781.0,542.0,511.0
3728,2003,638,0,3681.0,3709.0,1958.0,1882.0,593.0,542.0
3833,2032,651,0,3728.0,3681.0,2003.0,1958.0,638.0,593.0
3965,2041,617,0,3833.0,3728.0,2032.0,2003.0,651.0,638.0
4098,2037,560,0,3965.0,3833.0,2041.0,2032.0,617.0,651.0
4209,2022,510,0,4098.0,3965.0,2037.0,2041.0,560.0,617.0
4298,2022,505,0,4209.0,4098.0,2022.0,2037.0,510.0,560.0
4359,2035,536,0,4298.0,4209.0,2022.0,2022.0,505.0,510.0
4401,2096,583,0,4359.0,4298.0,2035.0,2022.0,536.0,505.0
4406,2170,594,0,4401.0,4359.0,2096.0,2035.0,583.0,536.0
4349,2247,585,0,4406.0,4401.0,2170.0,2096.0,594.0,583.0
4259,2333,590,0,4349.0,4406.0,2247.0,2170.0,585.0,594.0
4179,2398,605,0,4259.0,4349.0,2333.0,2247.0,590.0,585.0
4102,2399,591,0,4179.0,4259.0,2398.0,2333.0,605.0,590.0
4040,2348,545,0,4102.0,4179.0,2399.0,2398.0,591.0,605.0
4006,2282,493,0,4040.0,4102.0,2348.0,2399.0,545.0,591.0
3991,2221,440,0,4006.0,4040.0,2282.0,2348.0,493.0,545.0
4000,2184,423,0,3991.0,4006.0,2221.0,2282.0,440.0,493.0
4044,2167,425,0,4000.0,3991.0,2184.0,2221.0,423.0,440.0
4074,2146,423,0,4044.0,4000.0,2167.0,2184.0,425.0,423.0
4088,2113,405,0,4074.0,4044.0,2146.0,2167.0,423.0,425.0
4069,2083,357,0,4088.0,4074.0,2113.0,2146.0,405.0,423.0
3997,2036,229,0,4069.0,4088.0,2083.0,2113.0,357.0,405.0
3893,1961,68,0,3997.0,4069.0,2036.0,2083.0,229.0,357.0
3784,1812,-66,0,3893.0,3997.0,1961.0,2036.0,68.0,229.0
3675,1651,-154,0,3784.0,3893.0,1812.0,1961.0,-66.0,68.0
3587,1474,-168,0,3675.0,3784.0,1651.0,1812.0,-154.0,-66.0
3500,1300,-155,0,3587.0,3675.0,1474.0,1651.0,-168.0,-154.0
3434,1137,-102,0,3500.0,3587.0,1300.0,1474.0,-155.0,-168.0
3408,995,-19,0,3434.0,3500.0,1137.0,1300.0,-102.0,-155.0
3417,850,61,0,3408.0,3434.0,995.0,1137.0,-19.0,-102.0
3461,715,188,0,3417.0,3408.0,850.0,995.0,61.0,-19.0
3534,599,346,0,3461.0,3417.0,715.0,850.0,188.0,61.0
3616,483,512,0,3534.0,3461.0,599.0,715.0,346.0,188.0
3721,411,713,0,3616.0,3534.0,483.0,599.0,512.0,346.0
3834,383,926,0,3721.0,3616.0,411.0,483.0,713.0,512.0
3943,395,1115,0,3834.0,3721.0,383.0,411.0,926.0,713.0
4042,435,1279,0,3943.0,3834.0,395.0,383.0,1115.0,926.0
4153,479,1412,0,4042.0,3943.0,435.0,395.0,1279.0,1115.0
4280,512,1500,0,4153.0,4042.0,479.0,435.0,1412.0,1279.0
4428,534,1546,0,4280.0,4153.0,512.0,479.0,1500.0,1412.0
4618,539,1545,0,4428.0,4280.0,534.0,512.0,1546.0,1500.0
4819,512,1498,0,4618.0,4428.0,539.0,534.0,1545.0,1546.0
5025,473,1432,0,4819.0,4618.0,512.0,539.0,1498.0,1545.0
5222,428,1363,0,5025.0,4819.0,473.0,512.0,1432.0,1498.0
5389,401,1306,0,5222.0,5025.0,428.0,473.0,1363.0,1432.0
5511,405,1271,0,5389.0,5222.0,401.0,428.0,1306.0,1363.0
5575,437,1246,0,5511.0,5389.0,405.0,401.0,1271.0,1306.0
5571,504,1214,0,5575.0,5511.0,437.0,405.0,1246.0,1271.0
5501,600,1170,0,5571.0,5575.0,504.0,437.0,1214.0,1246.0
5371,748,1130,0,5501.0,5571.0,600.0,504.0,1170.0,1214.0
5204,927,1085,0,5371.0,5501.0,748.0,600.0,1130.0,1170.0
5017,1136,1058,0,5204.0,5371.0,927.0,748.0,1085.0,1130.0
4828,1376,1044,0,5017.0,5204.0,1136.0,927.0,1058.0,1085.0
4649,1628,1031,0,4828.0,5017.0,1376.0,1136.0,1044.0,1058.0
4463,1888,1005,0,4649.0,4828.0,1628.0,1376.0,1031.0,1044.0
4302,2150,980,0,4463.0,4649.0,1888.0,1628.0,1005.0,1031.0
4175,2379,953,0,4302.0,4463.0,2150.0,1888.0,980.0,1005.0
4074,2580,920,0,4175.0,4302.0,2379.0,2150.0,953.0,980.0
3992,2747,904,0,4074.0,4175.0,2580.0,2379.0,920.0,953.0
3943,2865,891,0,3992.0,4074.0,2747.0,2580.0,904.0,920.0
3927,2929,888,0,3943.0,3992.0,2865.0,2747.0,891.0,904.0
3932,2964,877,0,3927.0,3943.0,2929.0,2865.0,888.0,891.0
3952,2954,862,0,3932.0,3927.0,2964.0,2929.0,877.0,888.0
3977,2901,843,0,3952.0,3932.0,2954.0,2964.0,862.0,877.0
3992,2826,823,0,3977.0,3952.0,2901.0,2954.0,843.0,862.0
3980,2735,799,0,3992.0,3977.0,2826.0,2901.0,823.0,843.0
3946,2627,762,0,3980.0,3992.0,2735.0,2826.0,799.0,823.0
3886,2522,724,0,3946.0,3980.0,2627.0,2735.0,762.0,799.0
3797,2411,695,0,3886.0,3946.0,2522.0,2627.0,724.0,762.0
3682,2296,669,0,3797.0,3886.0,2411.0,2522.0,695.0,724.0
3565,2176,625,0,3682.0,3797.0,2296.0,2411.0,669.0,695.0
3450,2049,581,0,3565.0,3682.0,2176.0,2296.0,625.0,669.0
3348,1914,571,0,3450.0,3565.0,2049.0,2176.0,581.0,625.0
3244,1779,564,0,3348.0,3450.0,1914.0,2049.0,571.0,581.0
3156,1656,544,0,3244.0,3348.0,1779.0,1914.0,564.0,571.0
3082,1530,532,0,3156.0,3244.0,1656.0,1779.0,544.0,564.0
3010,1415,519,0,3082.0,3156.0,1530.0,1656.0,532.0,544.0
2942,1323,493,0,3010.0,3082.0,1415.0,1530.0,519.0,532.0
2877,1241,475,0,2942.0,3010.0,1323.0,1415.0,493.0,519.0
2811,1157,449,0,2877.0,2942.0,1241.0,1323.0,475.0,493.0
2748,1077,414,0,2811.0,2877.0,1157.0,1241.0,449.0,475.0
2693,996,390,0,2748.0,2811.0,1077.0,1157.0,414.0,449.0
2653,930,386,0,2693.0,2748.0,996.0,1077.0,390.0,414.0
2622,881,384,0,2653.0,2693.0,930.0,996.0,386.0,390.0
2593,831,383,0,2622.0,2653.0,881.0,930.0,384.0,386.0
2563,785,382,0,2593.0,2622.0,831.0,881.0,383.0,384.0
2550,737,380,0,2563.0,2593.0,785.0,831.0,382.0,383.0
2550,692,379,0,2550.0,2563.0,737.0,785.0,380.0,382.0
2560,660,374,0,2550.0,2550.0,692.0,737.0,379.0,380.0
2579,635,368,0,2560.0,2550.0,660.0,692.0,374.0,379.0
2597,612,364,0,2579.0,2560.0,635.0,660.0,368.0,374.0
2613,591,366,0,2597.0,2579.0,612.0,635.0,364.0,368.0
2625,571,374,0,2613.0,2597.0,591.0,612.0,366.0,364.0
2633,544,394,0,2625.0,2613.0,571.0,591.0,374.0,366.0
2636,518,423,0,2633.0,2625.0,544.0,571.0,394.0,374.0
2638,491,455,0,2636.0,2633.0,518.0,544.0,423.0,394.0
2643,463,486,0,2638.0,2636.0,491.0,518.0,455.0,423.0
2641,442,504,0,2643.0,2638.0,463.0,491.0,486.0,455.0
2637,430,504,0,2641.0,2643.0,442.0,463.0,504.0,486.0
2641,430,500,0,2637.0,2641.0,430.0,442.0,504.0,504.0
2649,443,498,0,2641.0,2637.0,430.0,430.0,500.0,504.0
2655,474,507,0,2649.0,2641.0,443.0,430.0,498.0,500.0
2653,515,508,0,2655.0,2649.0,474.0,443.0,507.0,498.0
2657,563,509,0,2653.0,2655.0,515.0,474.0,508.0,507.0
2662,616,502,0,2657.0,2653.0,563.0,515.0,509.0,508.0
2676,672,496,0,2662.0,2657.0,616.0,563.0,502.0,509.0
2697,722,495,0,2676.0,2662.0,672.0,616.0,496.0,502.0
2732,760,493,0,2697.0,2676.0,722.0,672.0,495.0,496.0
2768,793,495,0,2732.0,2697.0,760.0,722.0,493.0,495.0
2813,814,501,0,2768.0,2732.0,793.0,760.0,495.0,493.0
2876,831,506,0,2813.0,2768.0,814.0,793.0,501.0,495.0
2940,864,531,0,2876.0,2813.0,831.0,814.0,506.0,501.0
2996,901,561,0,2940.0,2876.0,864.0,831.0,531.0,506.0
3038,925,580,0,2996.0,2940.0,901.0,864.0,561.0,531.0
3070,959,615,0,3038.0,2996.0,925.0,901.0,580.0,561.0
3091,988,643,0,3070.0,3038.0,959.0,925.0,615.0,580.0
3094,1023,674,0,3091.0,3070.0,988.0,959.0,643.0,615.0
3093,1054,706,0,3094.0,3091.0,1023.0,988.0,674.0,643.0
3085,1089,731,0,3093.0,3094.0,1054.0,1023.0,706.0,674.0
3067,1121,768,0,3085.0,3093.0,1089.0,1054.0,731.0,706.0
3049,1147,813,0,3067.0,3085.0,1121.0,1089.0,768.0,731.0
3029,1177,880,0,3049.0,3067.0,1147.0,1121.0,813.0,768.0
3012,1200,965,0,3029.0,3049.0,1177.0,1147.0,880.0,813.0
2982,1236,1064,0,3012.0,3029.0,1200.0,1177.0,965.0,880.0
2955,1273,1187,0,2982.0,3012.0,1236.0,1200.0,1064.0,965.0
2937,1321,1330,0,2955.0,2982.0,1273.0,1236.0,1187.0,1064.0
2915,1377,1496,0,2937.0,2955.0,1321.0,1273.0,1330.0,1187.0
2897,1446,1659,0,2915.0,2937.0,1377.0,1321.0,1496.0,1330.0
2893,1535,1781,0,2897.0,2915.0,1446.0,1377.0,1659.0,1496.0
2906,1625,1846,0,2893.0,2897.0,1535.0,1446.0,1781.0,1659.0
2934,1715,1848,0,2906.0,2893.0,1625.0,1535.0,1846.0,1781.0
2970,1811,1799,0,2934.0,2906.0,1715.0,1625.0,1848.0,1846.0
3031,1893,1715,0,2970.0,2934.0,1811.0,1715.0,1799.0,1848.0
3122,1926,1580,0,3031.0,2970.0,1893.0,1811.0,1715.0,1799.0
3238,1895,1390,0,3122.0,3031.0,1926.0,1893.0,1580.0,1715.0
3374,1793,1139,0,3238.0,3122.0,1895.0,1926.0,1390.0,1580.0
3533,1644,867,0,3374.0,3238.0,1793.0,1895.0,1139.0,1390.0
3691,1505,635,0,3533.0,3374.0,1644.0,1793.0,867.0,1139.0
3857,1391,470,0,3691.0,3533.0,1505.0,1644.0,635.0,867.0
4026,1305,373,0,3857.0,3691.0,1391.0,1505.0,470.0,635.0
4246,1261,340,0,4026.0,3857.0,1305.0,1391.0,373.0,470.0
4512,1279,386,0,4246.0,4026.0,1261.0,1305.0,340.0,373.0
4823,1362,482,0,4512.0,4246.0,1279.0,1261.0,386.0,340.0
5160,1525,608,0,4823.0,4512.0,1362.0,1279.0,482.0,386.0
5491,1812,837,0,5160.0,4823.0,1525.0,1362.0,608.0,482.0
5770,2218,1215,0,5491.0,5160.0,1812.0,1525.0,837.0,608.0
5920,2690,1718,0,5770.0,5491.0,2218.0,1812.0,1215.0,837.0
5888,3134,2218,0,5920.0,5770.0,2690.0,2218.0,1718.0,1215.0
5684,3484,2626,0,5888.0,5920.0,3134.0,2690.0,2218.0,1718.0
5368,3671,2867,0,5684.0,5888.0,3484.0,3134.0,2626.0,2218.0
5008,3712,2907,0,5368.0,5684.0,3671.0,3484.0,2867.0,2626.0
4645,3661,2791,0,5008.0,5368.0,3712.0,3671.0,2907.0,2867.0
4309,3546,2606,0,4645.0,5008.0,3661.0,3712.0,2791.0,2907.0
3982,3385,2464,0,4309.0,4645.0,3546.0,3661.0,2606.0,2791.0
3697,3166,2442,0,3982.0,4309.0,3385.0,3546.0,2464.0,2606.0
3559,2877,2527,0,3697.0,3982.0,3166.0,3385.0,2442.0,2464.0
3620,2524,2579,0,3559.0,3697.0,2877.0,3166.0,2527.0,2442.0
3938,2163,2481,0,3620.0,3559.0,2524.0,2877.0,2579.0,2527.0
4491,1938,2289,0,3938.0,3620.0,2163.0,2524.0,2481.0,2579.0
5209,1885,2064,0,4491.0,3938.0,1938.0,2163.0,2289.0,2481.0
6042,1942,1883,0,5209.0,4491.0,1885.0,1938.0,2064.0,2289.0
6924,2025,1753,0,6042.0,5209.0,1942.0,1885.0,1883.0,2064.0
7768,2055,1602,0,6924.0,6042.0,2025.0,1942.0,1753.0,1883.0
8461,2014,1358,0,7768.0,6924.0,2055.0,2025.0,1602.0,1753.0
8709,1844,987,0,8461.0,7768.0,2014.0,2055.0,1358.0,1602.0
8408,1481,661,0,8709.0,8461.0,1844.0,2014.0,987.0,1358.0
7662,976,564,0,8408.0,8709.0,1481.0,1844.0,661.0,987.0
6678,483,669,0,7662.0,8408.0,976.0,1481.0,564.0,661.0
5654,113,754,0,6678.0,7662.0,483.0,976.0,669.0,564.0
4692,-132,692,0,5654.0,6678.0,113.0,483.0,754.0,669.0
3777,-335,542,0,4692.0,5654.0,-132.0,113.0,692.0,754.0
2883,-554,322,0,3777.0,4692.0,-335.0,-132.0,542.0,692.0
2030,-720,85,0,2883.0,3777.0,-554.0,-335.0,322.0,542.0
1227,-754,-125,0,2030.0,2883.0,-720.0,-554.0,85.0,322.0
573,-658,-226,0,1227.0,2030.0,-754.0,-720.0,-125.0,85.0
142,-527,-264,0,573.0,1227.0,-658.0,-754.0,-226.0,-125.0
-9,-407,-273,0,142.0,573.0,-527.0,-658.0,-264.0,-226.0
63,-319,-298,0,-9.0,142.0,-407.0,-527.0,-273.0,-264.0
327,-224,-342,0,63.0,-9.0,-319.0,-407.0,-298.0,-273.0
737,-118,-374,0,327.0,63.0,-224.0,-319.0,-342.0,-298.0
1266,-46,-374,0,737.0,327.0,-118.0,-224.0,-374.0,-342.0
1876,-21,-344,0,1266.0,737.0,-46.0,-118.0,-374.0,-374.0
2570,8,-283,0,1876.0,1266.0,-21.0,-46.0,-344.0,-374.0
3325,68,-185,0,2570.0,1876.0,8.0,-21.0,-283.0,-344.0
4137,168,-45,0,3325.0,2570.0,68.0,8.0,-185.0,-283.0
4962,342,99,0,4137.0,3325.0,168.0,68.0,-45.0,-185.0
5757,589,181,0,4962.0,4137.0,342.0,168.0,99.0,-45.0
6456,860,183,0,5757.0,4962.0,589.0,342.0,181.0,99.0
6994,1081,158,0,6456.0,5757.0,860.0,589.0,183.0,181.0
7306,1210,143,0,6994.0,6456.0,1081.0,860.0,158.0,183.0
7355,1235,169,0,7306.0,6994.0,1210.0,1081.0,143.0,158.0
7127,1149,206,0,7355.0,7306.0,1235.0,1210.0,169.0,143.0
6657,960,228,0,7127.0,7355.0,1149.0,1235.0,206.0,169.0
6041,692,231,0,6657.0,7127.0,960.0,1149.0,228.0,206.0
5384,420,218,0,6041.0,6657.0,692.0,960.0,231.0,228.0
4810,156,166,0,5384.0,6041.0,420.0,692.0,218.0,231.0
4428,-100,113,0,4810.0,5384.0,156.0,420.0,166.0,218.0
4250,-320,95,0,4428.0,4810.0,-100.0,156.0,113.0,166.0
4243,-460,130,0,4250.0,4428.0,-320.0,-100.0,95.0,113.0
4363,-524,207,0,4243.0,4250.0,-460.0,-320.0,130.0,95.0
4535,-504,287,0,4363.0,4243.0,-524.0,-460.0,207.0,130.0
4687,-419,351,0,4535.0,4363.0,-504.0,-524.0,287.0,207.0
4777,-307,370,0,4687.0,4535.0,-419.0,-504.0,351.0,287.0
4791,-179,341,0,4777.0,4687.0,-307.0,-419.0,370.0,351.0
4719,-30,309,0,4791.0,4777.0,-179.0,-307.0,341.0,370.0
4567,139,266,0,4719.0,4791.0,-30.0,-179.0,309.0,341.0
4367,309,219,0,4567.0,4719.0,139.0,-30.0,266.0,309.0
4150,472,177,0,4367.0,4567.0,309.0,139.0,219.0,266.0
3899,644,140,0,4150.0,4367.0,472.0,309.0,177.0,219.0
3646,830,109,0,3899.0,4150.0,644.0,472.0,140.0,177.0
3407,1030,89,0,3646.0,3899.0,830.0,644.0,109.0,140.0
3195,1217,83,0,3407.0,3646.0,1030.0,830.0,89.0,109.0
3002,1384,101,0,3195.0,3407.0,1217.0,1030.0,83.0,89.0
2825,1525,97,0,3002.0,3195.0,1384.0,1217.0,101.0,83.0
2684,1639,56,0,2825.0,3002.0,1525.0,1384.0,97.0,101.0
2602,1716,14,0,2684.0,2825.0,1639.0,1525.0,56.0,97.0
2585,1771,-23,0,2602.0,2684.0,1716.0,1639.0,14.0,56.0
2626,1799,-46,0,2585.0,2602.0,1771.0,1716.0,-23.0,14.0
2724,1813,-66,0,2626.0,2585.0,1799.0,1771.0,-46.0,-23.0
2873,1823,-69,0,2724.0,2626.0,1813.0,1799.0,-66.0,-46.0
3056,1834,-71,0,2873.0,2724.0,1823.0,1813.0,-69.0,-66.0
3263,1859,-94,0,3056.0,2873.0,1834.0,1823.0,-71.0,-69.0
3483,1888,-131,0,3263.0,3056.0,1859.0,1834.0,-94.0,-71.0
3710,1918,-153,0,3483.0,3263.0,1888.0,1859.0,-131.0,-94.0
3922,1935,-160,0,3710.0,3483.0,1918.0,1888.0,-153.0,-131.0
4121,1921,-150,0,3922.0,3710.0,1935.0,1918.0,-160.0,-153.0
4290,1865,-125,0,4121.0,3922.0,1921.0,1935.0,-150.0,-160.0
4416,1760,-101,0,4290.0,4121.0,1865.0,1921.0,-125.0,-150.0
4500,1620,-64,0,4416.0,4290.0,1760.0,1865.0,-101.0,-125.0
4530,1456,-15,0,4500.0,4416.0,1620.0,1760.0,-64.0,-101.0
4503,1280,25,0,4530.0,4500.0,1456.0,1620.0,-15.0,-64.0
4402,1118,46,0,4503.0,4530.0,1280.0,1456.0,25.0,-15.0
4268,999,59,0,4402.0,4503.0,1118.0,1280.0,46.0,25.0
4103,933,76,0,4268.0,4402.0,999.0,1118.0,59.0,46.0
3919,924,99,0,4103.0,4268.0,933.0,999.0,76.0,59.0
3731,979,140,0,3919.0,4103.0,924.0,933.0,99.0,76.0
3564,1089,198,0,3731.0,3919.0,979.0,924.0,140.0,99.0
3418,1230,264,0,3564.0,3731.0,1089.0,979.0,198.0,140.0
3308,1388,331,0,3418.0,3564.0,1230.0,1089.0,264.0,198.0
3241,1545,402,0,3308.0,3418.0,1388.0,1230.0,331.0,264.0
3212,1698,480,0,3241.0,3308.0,1545.0,1388.0,402.0,331.0
3211,1840,553,0,3212.0,3241.0,1698.0,1545.0,480.0,402.0
3222,1969,579,0,3211.0,3212.0,1840.0,1698.0,553.0,480.0
3229,2094,556,0,3222.0,3211.0,1969.0,1840.0,579.0,553.0
3225,2206,506,0,3229.0,3222.0,2094.0,1969.0,556.0,579.0
3212,2288,452,0,3225.0,3229.0,2206.0,2094.0,506.0,556.0
3192,2341,410,0,3212.0,3225.0,2288.0,2206.0,452.0,506.0
3172,2361,378,0,3192.0,3212.0,2341.0,2288.0,410.0,452.0
3144,2370,357,0,3172.0,3192.0,2361.0,2341.0,378.0,410.0
3100,2397,361,0,3144.0,3172.0,2370.0,2361.0,357.0,378.0
3048,2433,386,0,3100.0,3144.0,2397.0,2370.0,361.0,357.0
2987,2478,429,0,3048.0,3100.0,2433.0,2397.0,386.0,361.0
2920,2512,470,0,2987.0,3048.0,2478.0,2433.0,429.0,386.0
2863,2530,499,0,2920.0,2987.0,2512.0,2478.0,470.0,429.0
2830,2546,505,0,2863.0,2920.0,2530.0,2512.0,499.0,470.0
2801,2556,518,0,2830.0,2863.0,2546.0,2530.0,505.0,499.0
2780,2555,550,0,2801.0,2830.0,2556.0,2546.0,518.0,505.0
2770,2522,587,0,2780.0,2801.0,2555.0,2556.0,550.0,518.0
2760,2471,612,0,2770.0,2780.0,2522.0,2555.0,587.0,550.0
2745,2418,628,0,2760.0,2770.0,2471.0,2522.0,612.0,587.0
2729,2356,659,0,2745.0,2760.0,2418.0,2471.0,628.0,612.0
2727,2277,702,0,2729.0,2745.0,2356.0,2418.0,659.0,628.0
2738,2169,727,0,2727.0,2729.0,2277.0,2356.0,702.0,659.0
2755,2036,724,0,2738.0,2727.0,2169.0,2277.0,727.0,702.0
2777,1893,710,0,2755.0,2738.0,2036.0,2169.0,724.0,727.0
2815,1760,692,0,2777.0,2755.0,1893.0,2036.0,710.0,724.0
2872,1636,692,0,2815.0,2777.0,1760.0,1893.0,692.0,710.0
2935,1528,694,0,2872.0,2815.0,1636.0,1760.0,692.0,692.0
3000,1425,676,0,2935.0,2872.0,1528.0,1636.0,694.0,692.0
3049,1337,664,0,3000.0,2935.0,1425.0,1528.0,676.0,694.0
3094,1252,663,0,3049.0,3000.0,1337.0,1425.0,664.0,676.0
3120,1136,632,0,3094.0,3049.0,1252.0,1337.0,663.0,664.0
3116,1004,542,0,3120.0,3094.0,1136.0,1252.0,632.0,663.0
3103,877,474,0,3116.0,3120.0,1004.0,1136.0,542.0,632.0
3083,758,483,0,3103.0,3116.0,877.0,1004.0,474.0,542.0
3055,654,559,0,3083.0,3103.0,758.0,877.0,483.0,474.0
2993,536,594,0,3055.0,3083.0,654.0,758.0,559.0,483.0
2897,399,511,0,2993.0,3055.0,536.0,654.0,594.0,559.0
2778,302,332,0,2897.0,2993.0,399.0,536.0,511.0,594.0
2669,284,119,0,2778.0,2897.0,302.0,399.0,332.0,511.0
2600,376,-51,0,2669.0,2778.0,284.0,302.0,119.0,332.0
2586,584,-102,0,2600.0,2669.0,376.0,284.0,-51.0,119.0
2616,839,-41,0,2586.0,2600.0,584.0,376.0,-102.0,-51.0
2676,1142,105,0,2616.0,2586.0,839.0,584.0,-41.0,-102.0
2738,1465,272,0,2676.0,2616.0,1142.0,839.0,105.0,-41.0
2793,1791,430,0,2738.0,2676.0,1465.0,1142.0,272.0,105.0
2815,2088,552,0,2793.0,2738.0,1791.0,1465.0,430.0,272.0
2801,2304,624,0,2815.0,2793.0,2088.0,1791.0,552.0,430.0
2759,2383,624,0,2801.0,2815.0,2304.0,2088.0,624.0,552.0
2672,2328,548,0,2759.0,2801.0,2383.0,2304.0,624.0,624.0
2573,2149,450,0,2672.0,2759.0,2328.0,2383.0,548.0,624.0
2502,1904,393,0,2573.0,2672.0,2149.0,2328.0,450.0,548.0
2468,1634,386,0,2502.0,2573.0,1904.0,2149.0,393.0,450.0
2483,1359,389,0,2468.0,2502.0,1634.0,1904.0,386.0,393.0
2550,1099,391,0,2483.0,2468.0,1359.0,1634.0,389.0,386.0
2683,874,398,0,2550.0,2483.0,1099.0,1359.0,391.0,389.0
2865,666,425,0,2683.0,2550.0,874.0,1099.0,398.0,391.0
3077,459,473,0,2865.0,2683.0,666.0,874.0,425.0,398.0
3329,271,537,0,3077.0,2865.0,459.0,666.0,473.0,425.0
3615,124,604,0,3329.0,3077.0,271.0,459.0,537.0,473.0
3912,33,672,0,3615.0,3329.0,124.0,271.0,604.0,537.0
4207,-11,720,0,3912.0,3615.0,33.0,124.0,672.0,604.0
4508,-37,740,0,4207.0,3912.0,-11.0,33.0,720.0,672.0
4794,-21,736,0,4508.0,4207.0,-37.0,-11.0,740.0,720.0
5036,28,737,0,4794.0,4508.0,-21.0,-37.0,736.0,740.0
5238,113,770,0,5036.0,4794.0,28.0,-21.0,737.0,736.0
5390,215,819,0,5238.0,5036.0,113.0,28.0,770.0,737.0
5453,356,857,0,5390.0,5238.0,215.0,113.0,819.0,770.0
5417,573,865,0,5453.0,5390.0,356.0,215.0,857.0,819.0
5285,827,829,0,5417.0,5453.0,573.0,356.0,865.0,857.0
5072,1100,791,0,5285.0,5417.0,827.0,573.0,829.0,865.0
4840,1400,724,0,5072.0,5285.0,1100.0,827.0,791.0,829.0
4680,1758,707,0,4840.0,5072.0,1400.0,1100.0,724.0,791.0
4558,2077,660,0,4680.0,4840.0,1758.0,1400.0,707.0,724.0
4460,2381,618,0,4558.0,4680.0,2077.0,1758.0,660.0,707.0
4398,2679,634,0,4460.0,4558.0,2381.0,2077.0,618.0,660.0
4388,2942,787,0,4398.0,4460.0,2679.0,2381.0,634.0,618.0
4445,3083,1028,0,4388.0,4398.0,2942.0,2679.0,787.0,634.0
4515,3058,1168,0,4445.0,4388.0,3083.0,2942.0,1028.0,787.0
4624,2925,1257,0,4515.0,4445.0,3058.0,3083.0,1168.0,1028.0
4706,2781,1388,0,4624.0,4515.0,2925.0,3058.0,1257.0,1168.0
4801,2653,1498,0,4706.0,4624.0,2781.0,2925.0,1388.0,1257.0
4899,2559,1501,0,4801.0,4706.0,2653.0,2781.0,1498.0,1388.0
5021,2472,1410,0,4899.0,4801.0,2559.0,2653.0,1501.0,1498.0
5199,2358,1351,0,5021.0,4899.0,2472.0,2559.0,1410.0,1501.0
5325,2270,1402,0,5199.0,5021.0,2358.0,2472.0,1351.0,1410.0
5410,2235,1515,0,5325.0,5199.0,2270.0,2358.0,1402.0,1351.0
5504,2242,1685,0,5410.0,5325.0,2235.0,2270.0,1515.0,1402.0
5506,2123,1698,0,5504.0,5410.0,2242.0,2235.0,1685.0,1515.0
5482,1918,1628,0,5506.0,5504.0,2123.0,2242.0,1698.0,1685.0
5389,1744,1558,0,5482.0,5506.0,1918.0,2123.0,1628.0,1698.0
5266,1613,1535,0,5389.0,5482.0,1744.0,1918.0,1558.0,1628.0
5130,1570,1548,0,5266.0,5389.0,1613.0,1744.0,1535.0,1558.0
4977,1616,1548,0,5130.0,5266.0,1570.0,1613.0,1548.0,1535.0
4881,1692,1478,0,4977.0,5130.0,1616.0,1570.0,1548.0,1548.0
4901,1788,1337,0,4881.0,4977.0,1692.0,1616.0,1478.0,1548.0
5033,1880,1195,0,4901.0,4881.0,1788.0,1692.0,1337.0,1478.0
5252,1973,1096,0,5033.0,4901.0,1880.0,1788.0,1195.0,1337.0
5467,2028,1027,0,5252.0,5033.0,1973.0,1880.0,1096.0,1195.0
5602,2016,983,0,5467.0,5252.0,2028.0,1973.0,1027.0,1096.0
5637,1975,1019,0,5602.0,5467.0,2016.0,2028.0,983.0,1027.0
5575,1920,1098,0,5637.0,5602.0,1975.0,2016.0,1019.0,983.0
5441,1821,1189,0,5575.0,5637.0,1920.0,1975.0,1098.0,1019.0
5224,1694,1268,0,5441.0,5575.0,1821.0,1920.0,1189.0,1098.0
4957,1555,1327,0,5224.0,5441.0,1694.0,1821.0,1268.0,1189.0
4643,1392,1322,0,4957.0,5224.0,1555.0,1694.0,1327.0,1268.0
4319,1233,1285,0,4643.0,4957.0,1392.0,1555.0,1322.0,1327.0
3995,1132,1252,0,4319.0,4643.0,1233.0,1392.0,1285.0,1322.0
3687,1049,1228,0,3995.0,4319.0,1132.0,1233.0,1252.0,1285.0
3448,1006,1250,0,3687.0,3995.0,1049.0,1132.0,1228.0,1252.0
3265,1008,1257,0,3448.0,3687.0,1006.0,1049.0,1250.0,1228.0
3129,1039,1205,0,3265.0,3448.0,1008.0,1006.0,1257.0,1250.0
3012,1048,1099,0,3129.0,3265.0,1039.0,1008.0,1205.0,1257.0
2896,1090,1002,0,3012.0,3129.0,1048.0,1039.0,1099.0,1205.0
2820,1173,931,0,2896.0,3012.0,1090.0,1048.0,1002.0,1099.0
2809,1276,908,0,2820.0,2896.0,1173.0,1090.0,931.0,1002.0
2839,1359,926,0,2809.0,2820.0,1276.0,1173.0,908.0,931.0
2877,1431,967,0,2839.0,2809.0,1359.0,1276.0,926.0,908.0
2930,1545,1020,0,2877.0,2839.0,1431.0,1359.0,967.0,926.0
2963,1648,1040,0,2930.0,2877.0,1545.0,1431.0,1020.0,967.0
2979,1678,1042,0,2963.0,2930.0,1648.0,1545.0,1040.0,1020.0
2967,1719,1039,0,2979.0,2963.0,1678.0,1648.0,1042.0,1040.0
2923,1768,1039,0,2967.0,2979.0,1719.0,1678.0,1039.0,1042.0
2853,1725,995,0,2923.0,2967.0,1768.0,1719.0,1039.0,1039.0
2766,1665,983,0,2853.0,2923.0,1725.0,1768.0,995.0,1039.0
2659,1594,961,0,2766.0,2853.0,1665.0,1725.0,983.0,995.0
2564,1517,945,0,2659.0,2766.0,1594.0,1665.0,961.0,983.0
2490,1413,982,0,2564.0,2659.0,1517.0,1594.0,945.0,961.0
2409,1304,1030,0,2490.0,2564.0,1413.0,1517.0,982.0,945.0
2345,1245,1123,0,2409.0,2490.0,1304.0,1413.0,1030.0,982.0
2284,1167,1160,0,2345.0,2409.0,1245.0,1304.0,1123.0,1030.0
2230,1019,1181,0,2284.0,2345.0,1167.0,1245.0,1160.0,1123.0
2158,904,1216,0,2230.0,2284.0,1019.0,1167.0,1181.0,1160.0
2074,845,1265,0,2158.0,2230.0,904.0,1019.0,1216.0,1181.0
1985,795,1319,0,2074.0,2158.0,845.0,904.0,1265.0,1216.0
1917,747,1368,0,1985.0,2074.0,795.0,845.0,1319.0,1265.0
1866,679,1381,0,1917.0,1985.0,747.0,795.0,1368.0,1319.0
1867,599,1365,0,1866.0,1917.0,679.0,747.0,1381.0,1368.0
1918,465,1360,0,1867.0,1866.0,599.0,679.0,1365.0,1381.0
1970,398,1366,0,1918.0,1867.0,465.0,599.0,1360.0,1365.0
2031,362,1353,0,1970.0,1918.0,398.0,465.0,1366.0,1360.0
2079,320,1301,0,2031.0,1970.0,362.0,398.0,1353.0,1366.0
2109,324,1228,0,2079.0,2031.0,320.0,362.0,1301.0,1353.0
2176,264,1198,0,2109.0,2079.0,324.0,320.0,1228.0,1301.0
2210,274,1243,0,2176.0,2109.0,264.0,324.0,1198.0,1228.0
2222,315,1277,0,2210.0,2176.0,274.0,264.0,1243.0,1198.0
2242,394,1291,0,2222.0,2210.0,315.0,274.0,1277.0,1243.0
2279,414,1218,0,2242.0,2222.0,394.0,315.0,1291.0,1277.0
2331,419,1149,0,2279.0,2242.0,414.0,394.0,1218.0,1291.0
2387,445,1078,0,2331.0,2279.0,419.0,414.0,1149.0,1218.0
2446,452,1006,0,2387.0,2331.0,445.0,419.0,1078.0,1149.0
2507,495,981,0,2446.0,2387.0,452.0,445.0,1006.0,1078.0
2598,533,972,0,2507.0,2446.0,495.0,452.0,981.0,1006.0
2714,546,968,0,2598.0,2507.0,533.0,495.0,972.0,981.0
2812,569,964,0,2714.0,2598.0,546.0,533.0,968.0,972.0
2880,572,948,0,2812.0,2714.0,569.0,546.0,964.0,968.0
2952,544,938,0,2880.0,2812.0,572.0,569.0,948.0,964.0
3040,521,946,0,2952.0,2880.0,544.0,572.0,938.0,948.0
3156,499,991,0,3040.0,2952.0,521.0,544.0,946.0,938.0
3287,447,1049,0,3156.0,3040.0,499.0,521.0,991.0,946.0
3457,377,1108,0,3287.0,3156.0,447.0,499.0,1049.0,991.0
3724,368,1208,0,3457.0,3287.0,377.0,447.0,1108.0,1049.0
4077,471,1325,0,3724.0,3457.0,368.0,377.0,1208.0,1108.0
4528,582,1403,0,4077.0,3724.0,471.0,368.0,1325.0,1208.0
5034,721,1480,0,4528.0,4077.0,582.0,471.0,1403.0,1325.0
5516,905,1511,0,5034.0,4528.0,721.0,582.0,1480.0,1403.0
5936,1051,1489,0,5516.0,5034.0,905.0,721.0,1511.0,1480.0
6198,1195,1459,0,5936.0,5516.0,1051.0,905.0,1489.0,1511.0
6355,1287,1455,0,6198.0,5936.0,1195.0,1051.0,1459.0,1489.0
6400,1300,1463,0,6355.0,6198.0,1287.0,1195.0,1455.0,1459.0
6334,1272,1526,0,6400.0,6355.0,1300.0,1287.0,1463.0,1455.0
6165,1198,1558,0,6334.0,6400.0,1272.0,1300.0,1526.0,1463.0
5904,1006,1491,0,6165.0,6334.0,1198.0,1272.0,1558.0,1526.0
5347,726,1311,0,5904.0,6165.0,1006.0,1198.0,1491.0,1558.0
4705,441,1085,0,5347.0,5904.0,726.0,1006.0,1311.0,1491.0
4063,180,845,0,4705.0,5347.0,441.0,726.0,1085.0,1311.0
3512,-87,690,0,4063.0,4705.0,180.0,441.0,845.0,1085.0
3056,-267,623,0,3512.0,4063.0,-87.0,180.0,690.0,845.0
2724,-360,671,0,3056.0,3512.0,-267.0,-87.0,623.0,690.0
2463,-430,774,0,2724.0,3056.0,-360.0,-267.0,671.0,623.0
1986,-666,536,0,2463.0,2724.0,-430.0,-360.0,774.0,671.0
2440,-908,1110,0,1986.0,2463.0,-666.0,-430.0,536.0,774.0
2781,-751,1052,0,2440.0,1986.0,-908.0,-666.0,1110.0,536.0
3088,-508,1258,0,2781.0,2440.0,-751.0,-908.0,1052.0,1110.0
3411,-434,1466,0,3088.0,2781.0,-508.0,-751.0,1258.0,1052.0
3696,-439,1450,0,3411.0,3088.0,-434.0,-508.0,1466.0,1258.0
3944,-478,1304,0,3696.0,3411.0,-439.0,-434.0,1450.0,1466.0
4083,-423,1157,0,3944.0,3696.0,-478.0,-439.0,1304.0,1450.0
