accelerometer_x,accelerometer_y,accelerometer_z,fall,x_lag_1,x_lag_2,y_lag_1,y_lag_2,z_lag_1,z_lag_2
3385,1408,2029,0,,,,,,
3370,1389,2019,0,3385.0,,1408.0,,2029.0,
3348,1366,2008,0,3370.0,3385.0,1389.0,1408.0,2019.0,2029.0
3312,1344,1988,0,3348.0,3370.0,1366.0,1389.0,2008.0,2019.0
3276,1316,1967,0,3312.0,3348.0,1344.0,1366.0,1988.0,2008.0
3234,1289,1949,0,3276.0,3312.0,1316.0,1344.0,1967.0,1988.0
3204,1269,1940,0,3234.0,3276.0,1289.0,1316.0,1949.0,1967.0
3179,1258,1939,0,3204.0,3234.0,1269.0,1289.0,1940.0,1949.0
3165,1254,1940,0,3179.0,3204.0,1258.0,1269.0,1939.0,1940.0
3165,1247,1947,0,3165.0,3179.0,1254.0,1258.0,1940.0,1939.0
3174,1242,1969,0,3165.0,3165.0,1247.0,1254.0,1947.0,1940.0
3192,1231,2001,0,3174.0,3165.0,1242.0,1247.0,1969.0,1947.0
3213,1216,2016,0,3192.0,3174.0,1231.0,1242.0,2001.0,1969.0
3226,1201,2030,0,3213.0,3192.0,1216.0,1231.0,2016.0,2001.0
3232,1196,2026,0,3226.0,3213.0,1201.0,1216.0,2030.0,2016.0
3242,1185,2024,0,3232.0,3226.0,1196.0,1201.0,2026.0,2030.0
3247,1165,2020,0,3242.0,3232.0,1185.0,1196.0,2024.0,2026.0
3241,1157,2013,0,3247.0,3242.0,1165.0,1185.0,2020.0,2024.0
3242,1143,2005,0,3241.0,3247.0,1157.0,1165.0,2013.0,2020.0
3245,1130,1997,0,3242.0,3241.0,1143.0,1157.0,2005.0,2013.0
3238,1122,1990,0,3245.0,3242.0,1130.0,1143.0,1997.0,2005.0
3231,1131,1989,0,3238.0,3245.0,1122.0,1130.0,1990.0,1997.0
3227,1137,1992,0,3231.0,3238.0,1131.0,1122.0,1989.0,1990.0
3224,1147,1997,0,3227.0,3231.0,1137.0,1131.0,1992.0,1989.0
3217,1169,2005,0,3224.0,3227.0,1147.0,1137.0,1997.0,1992.0
3203,1185,2017,0,3217.0,3224.0,1169.0,1147.0,2005.0,1997.0
3195,1194,2023,0,3203.0,3217.0,1185.0,1169.0,2017.0,2005.0
3179,1205,2036,0,3195.0,3203.0,1194.0,1185.0,2023.0,2017.0
3170,1207,2047,0,3179.0,3195.0,1205.0,1194.0,2036.0,2023.0
3168,1228,2054,0,3170.0,3179.0,1207.0,1205.0,2047.0,2036.0
3167,1241,2072,0,3168.0,3170.0,1228.0,1207.0,2054.0,2047.0
3173,1258,2098,0,3167.0,3168.0,1241.0,1228.0,2072.0,2054.0
3185,1271,2120,0,3173.0,3167.0,1258.0,1241.0,2098.0,2072.0
3187,1316,2134,0,3185.0,3173.0,1271.0,1258.0,2120.0,2098.0
3202,1349,2142,0,3187.0,3185.0,1316.0,1271.0,2134.0,2120.0
3220,1375,2159,0,3202.0,3187.0,1349.0,1316.0,2142.0,2134.0
3240,1392,2163,0,3220.0,3202.0,1375.0,1349.0,2159.0,2142.0
3257,1401,2170,0,3240.0,3220.0,1392.0,1375.0,2163.0,2159.0
3268,1439,2170,0,3257.0,3240.0,1401.0,1392.0,2170.0,2163.0
3288,1450,2163,0,3268.0,3257.0,1439.0,1401.0,2170.0,2170.0
3310,1449,2155,0,3288.0,3268.0,1450.0,1439.0,2163.0,2170.0
3329,1448,2142,0,3310.0,3288.0,1449.0,1450.0,2155.0,2163.0
3335,1463,2131,0,3329.0,3310.0,1448.0,1449.0,2142.0,2155.0
3341,1472,2119,0,3335.0,3329.0,1463.0,1448.0,2131.0,2142.0
3341,1475,2103,0,3341.0,3335.0,1472.0,1463.0,2119.0,2131.0
3340,1472,2094,0,3341.0,3341.0,1475.0,1472.0,2103.0,2119.0
3333,1460,2082,0,3340.0,3341.0,1472.0,1475.0,2094.0,2103.0
3318,1451,2065,0,3333.0,3340.0,1460.0,1472.0,2082.0,2094.0
3300,1432,2049,0,3318.0,3333.0,1451.0,1460.0,2065.0,2082.0
3288,1414,2030,0,3300.0,3318.0,1432.0,1451.0,2049.0,2065.0
3273,1402,2014,0,3288.0,3300.0,1414.0,1432.0,2030.0,2049.0
3258,1399,1998,0,3273.0,3288.0,1402.0,1414.0,2014.0,2030.0
3246,1398,1983,0,3258.0,3273.0,1399.0,1402.0,1998.0,2014.0
3241,1396,1970,0,3246.0,3258.0,1398.0,1399.0,1983.0,1998.0
3243,1395,1959,0,3241.0,3246.0,1396.0,1398.0,1970.0,1983.0
3242,1387,1941,0,3243.0,3241.0,1395.0,1396.0,1959.0,1970.0
3243,1370,1922,0,3242.0,3243.0,1387.0,1395.0,1941.0,1959.0
3243,1365,1902,0,3243.0,3242.0,1370.0,1387.0,1922.0,1941.0
3243,1369,1887,0,3243.0,3243.0,1365.0,1370.0,1902.0,1922.0
3248,1368,1878,0,3243.0,3243.0,1369.0,1365.0,1887.0,1902.0
3258,1367,1864,0,3248.0,3243.0,1368.0,1369.0,1878.0,1887.0
3264,1372,1848,0,3258.0,3248.0,1367.0,1368.0,1864.0,1878.0
3265,1377,1831,0,3264.0,3258.0,1372.0,1367.0,1848.0,1864.0
3276,1385,1830,0,3265.0,3264.0,1377.0,1372.0,1831.0,1848.0
3290,1395,1839,0,3276.0,3265.0,1385.0,1377.0,1830.0,1831.0
3303,1407,1842,0,3290.0,3276.0,1395.0,1385.0,1839.0,1830.0
3320,1409,1844,0,3303.0,3290.0,1407.0,1395.0,1842.0,1839.0
3323,1416,1851,0,3320.0,3303.0,1409.0,1407.0,1844.0,1842.0
3322,1428,1847,0,3323.0,3320.0,1416.0,1409.0,1851.0,1844.0
3326,1429,1842,0,3322.0,3323.0,1428.0,1416.0,1847.0,1851.0
3320,1423,1831,0,3326.0,3322.0,1429.0,1428.0,1842.0,1847.0
3312,1420,1809,0,3320.0,3326.0,1423.0,1429.0,1831.0,1842.0
3295,1418,1790,0,3312.0,3320.0,1420.0,1423.0,1809.0,1831.0
3287,1417,1792,0,3295.0,3312.0,1418.0,1420.0,1790.0,1809.0
3280,1423,1800,0,3287.0,3295.0,1417.0,1418.0,1792.0,1790.0
3280,1434,1825,0,3280.0,3287.0,1423.0,1417.0,1800.0,1792.0
3283,1435,1835,0,3280.0,3280.0,1434.0,1423.0,1825.0,1800.0
3292,1432,1851,0,3283.0,3280.0,1435.0,1434.0,1835.0,1825.0
3303,1427,1871,0,3292.0,3283.0,1432.0,1435.0,1851.0,1835.0
3316,1422,1895,0,3303.0,3292.0,1427.0,1432.0,1871.0,1851.0
3325,1420,1903,0,3316.0,3303.0,1422.0,1427.0,1895.0,1871.0
3333,1415,1901,0,3325.0,3316.0,1420.0,1422.0,1903.0,1895.0
3338,1408,1896,0,3333.0,3325.0,1415.0,1420.0,1901.0,1903.0
3344,1406,1893,0,3338.0,3333.0,1408.0,1415.0,1896.0,1901.0
3352,1407,1885,0,3344.0,3338.0,1406.0,1408.0,1893.0,1896.0
3364,1407,1879,0,3352.0,3344.0,1407.0,1406.0,1885.0,1893.0
3377,1417,1883,0,3364.0,3352.0,1407.0,1407.0,1879.0,1885.0
3390,1430,1888,0,3377.0,3364.0,1417.0,1407.0,1883.0,1879.0
3401,1423,1887,0,3390.0,3377.0,1430.0,1417.0,1888.0,1883.0
3415,1404,1896,0,3401.0,3390.0,1423.0,1430.0,1887.0,1888.0
3414,1377,1905,0,3415.0,3401.0,1404.0,1423.0,1896.0,1887.0
3414,1357,1914,0,3414.0,3415.0,1377.0,1404.0,1905.0,1896.0
3405,1333,1919,0,3414.0,3414.0,1357.0,1377.0,1914.0,1905.0
3389,1307,1924,0,3405.0,3414.0,1333.0,1357.0,1919.0,1914.0
3376,1285,1936,0,3389.0,3405.0,1307.0,1333.0,1924.0,1919.0
3358,1258,1943,0,3376.0,3389.0,1285.0,1307.0,1936.0,1924.0
3342,1237,1956,0,3358.0,3376.0,1258.0,1285.0,1943.0,1936.0
3326,1215,1969,0,3342.0,3358.0,1237.0,1258.0,1956.0,1943.0
3310,1199,1982,0,3326.0,3342.0,1215.0,1237.0,1969.0,1956.0
3305,1183,1992,0,3310.0,3326.0,1199.0,1215.0,1982.0,1969.0
3298,1164,2004,0,3305.0,3310.0,1183.0,1199.0,1992.0,1982.0
3287,1151,2013,0,3298.0,3305.0,1164.0,1183.0,2004.0,1992.0
3281,1143,2024,0,3287.0,3298.0,1151.0,1164.0,2013.0,2004.0
3276,1141,2031,0,3281.0,3287.0,1143.0,1151.0,2024.0,2013.0
3272,1140,2040,0,3276.0,3281.0,1141.0,1143.0,2031.0,2024.0
3262,1140,2041,0,3272.0,3276.0,1140.0,1141.0,2040.0,2031.0
3253,1143,2045,0,3262.0,3272.0,1140.0,1140.0,2041.0,2040.0
3246,1153,2045,0,3253.0,3262.0,1143.0,1140.0,2045.0,2041.0
3236,1167,2042,0,3246.0,3253.0,1153.0,1143.0,2045.0,2045.0
3227,1183,2042,0,3236.0,3246.0,1167.0,1153.0,2042.0,2045.0
3221,1201,2041,0,3227.0,3236.0,1183.0,1167.0,2042.0,2042.0
3216,1219,2033,0,3221.0,3227.0,1201.0,1183.0,2041.0,2042.0
3203,1238,2024,0,3216.0,3221.0,1219.0,1201.0,2033.0,2041.0
3199,1252,2017,0,3203.0,3216.0,1238.0,1219.0,2024.0,2033.0
3192,1263,2013,0,3199.0,3203.0,1252.0,1238.0,2017.0,2024.0
3186,1283,2004,0,3192.0,3199.0,1263.0,1252.0,2013.0,2017.0
3184,1297,1996,0,3186.0,3192.0,1283.0,1263.0,2004.0,2013.0
3179,1309,1985,0,3184.0,3186.0,1297.0,1283.0,1996.0,2004.0
3171,1325,1976,0,3179.0,3184.0,1309.0,1297.0,1985.0,1996.0
3173,1341,1963,0,3171.0,3179.0,1325.0,1309.0,1976.0,1985.0
3179,1359,1956,0,3173.0,3171.0,1341.0,1325.0,1963.0,1976.0
3183,1377,1946,0,3179.0,3173.0,1359.0,1341.0,1956.0,1963.0
3191,1395,1938,0,3183.0,3179.0,1377.0,1359.0,1946.0,1956.0
3198,1410,1930,0,3191.0,3183.0,1395.0,1377.0,1938.0,1946.0
3211,1431,1929,0,3198.0,3191.0,1410.0,1395.0,1930.0,1938.0
3225,1444,1923,0,3211.0,3198.0,1431.0,1410.0,1929.0,1930.0
3238,1450,1913,0,3225.0,3211.0,1444.0,1431.0,1923.0,1929.0
3251,1457,1907,0,3238.0,3225.0,1450.0,1444.0,1913.0,1923.0
3259,1464,1897,0,3251.0,3238.0,1457.0,1450.0,1907.0,1913.0
3268,1466,1888,0,3259.0,3251.0,1464.0,1457.0,1897.0,1907.0
3275,1464,1877,0,3268.0,3259.0,1466.0,1464.0,1888.0,1897.0
3286,1465,1870,0,3275.0,3268.0,1464.0,1466.0,1877.0,1888.0
3298,1464,1862,0,3286.0,3275.0,1465.0,1464.0,1870.0,1877.0
3309,1460,1858,0,3298.0,3286.0,1464.0,1465.0,1862.0,1870.0
3319,1458,1856,0,3309.0,3298.0,1460.0,1464.0,1858.0,1862.0
3329,1453,1856,0,3319.0,3309.0,1458.0,1460.0,1856.0,1858.0
3332,1444,1859,0,3329.0,3319.0,1453.0,1458.0,1856.0,1856.0
3335,1433,1861,0,3332.0,3329.0,1444.0,1453.0,1859.0,1856.0
3337,1422,1864,0,3335.0,3332.0,1433.0,1444.0,1861.0,1859.0
3337,1412,1866,0,3337.0,3335.0,1422.0,1433.0,1864.0,1861.0
3336,1399,1867,0,3337.0,3337.0,1412.0,1422.0,1866.0,1864.0
3331,1390,1872,0,3336.0,3337.0,1399.0,1412.0,1867.0,1866.0
3326,1382,1873,0,3331.0,3336.0,1390.0,1399.0,1872.0,1867.0
3322,1372,1881,0,3326.0,3331.0,1382.0,1390.0,1873.0,1872.0
3316,1363,1881,0,3322.0,3326.0,1372.0,1382.0,1881.0,1873.0
3313,1356,1878,0,3316.0,3322.0,1363.0,1372.0,1881.0,1881.0
3312,1352,1878,0,3313.0,3316.0,1356.0,1363.0,1878.0,1881.0
3307,1352,1885,0,3312.0,3313.0,1352.0,1356.0,1878.0,1878.0
3305,1349,1885,0,3307.0,3312.0,1352.0,1352.0,1885.0,1878.0
3304,1349,1885,0,3305.0,3307.0,1349.0,1352.0,1885.0,1885.0
3303,1350,1885,0,3304.0,3305.0,1349.0,1349.0,1885.0,1885.0
3301,1357,1884,0,3303.0,3304.0,1350.0,1349.0,1885.0,1885.0
3303,1356,1883,0,3301.0,3303.0,1357.0,1350.0,1884.0,1885.0
3306,1360,1884,0,3303.0,3301.0,1356.0,1357.0,1883.0,1884.0
3307,1365,1878,0,3306.0,3303.0,1360.0,1356.0,1884.0,1883.0
3307,1369,1879,0,3307.0,3306.0,1365.0,1360.0,1878.0,1884.0
3309,1369,1881,0,3307.0,3307.0,1369.0,1365.0,1879.0,1878.0
3310,1370,1878,0,3309.0,3307.0,1369.0,1369.0,1881.0,1879.0
3309,1374,1880,0,3310.0,3309.0,1370.0,1369.0,1878.0,1881.0
3308,1375,1883,0,3309.0,3310.0,1374.0,1370.0,1880.0,1878.0
3308,1376,1886,0,3308.0,3309.0,1375.0,1374.0,1883.0,1880.0
3306,1381,1886,0,3308.0,3308.0,1376.0,1375.0,1886.0,1883.0
3301,1383,1887,0,3306.0,3308.0,1381.0,1376.0,1886.0,1886.0
3300,1387,1886,0,3301.0,3306.0,1383.0,1381.0,1887.0,1886.0
3299,1388,1890,0,3300.0,3301.0,1387.0,1383.0,1886.0,1887.0
3300,1390,1893,0,3299.0,3300.0,1388.0,1387.0,1890.0,1886.0
3299,1392,1897,0,3300.0,3299.0,1390.0,1388.0,1893.0,1890.0
3298,1395,1906,0,3299.0,3300.0,1392.0,1390.0,1897.0,1893.0
3294,1393,1909,0,3298.0,3299.0,1395.0,1392.0,1906.0,1897.0
3292,1391,1914,0,3294.0,3298.0,1393.0,1395.0,1909.0,1906.0
3287,1392,1913,0,3292.0,3294.0,1391.0,1393.0,1914.0,1909.0
3285,1391,1918,0,3287.0,3292.0,1392.0,1391.0,1913.0,1914.0
3277,1389,1921,0,3285.0,3287.0,1391.0,1392.0,1918.0,1913.0
3273,1389,1924,0,3277.0,3285.0,1389.0,1391.0,1921.0,1918.0
3270,1385,1928,0,3273.0,3277.0,1389.0,1389.0,1924.0,1921.0
3268,1381,1931,0,3270.0,3273.0,1385.0,1389.0,1928.0,1924.0
3263,1372,1933,0,3268.0,3270.0,1381.0,1385.0,1931.0,1928.0
3258,1374,1936,0,3263.0,3268.0,1372.0,1381.0,1933.0,1931.0
3254,1369,1933,0,3258.0,3263.0,1374.0,1372.0,1936.0,1933.0
3251,1364,1934,0,3254.0,3258.0,1369.0,1374.0,1933.0,1936.0
3249,1358,1935,0,3251.0,3254.0,1364.0,1369.0,1934.0,1933.0
3251,1355,1935,0,3249.0,3251.0,1358.0,1364.0,1935.0,1934.0
3253,1349,1935,0,3251.0,3249.0,1355.0,1358.0,1935.0,1935.0
3259,1343,1936,0,3253.0,3251.0,1349.0,1355.0,1935.0,1935.0
3267,1343,1940,0,3259.0,3253.0,1343.0,1349.0,1936.0,1935.0
3273,1342,1942,0,3267.0,3259.0,1343.0,1343.0,1940.0,1936.0
3276,1343,1942,0,3273.0,3267.0,1342.0,1343.0,1942.0,1940.0
3276,1342,1941,0,3276.0,3273.0,1343.0,1342.0,1942.0,1942.0
3276,1341,1937,0,3276.0,3276.0,1342.0,1343.0,1941.0,1942.0
3275,1338,1929,0,3276.0,3276.0,1341.0,1342.0,1937.0,1941.0
3273,1337,1927,0,3275.0,3276.0,1338.0,1341.0,1929.0,1937.0
3270,1340,1925,0,3273.0,3275.0,1337.0,1338.0,1927.0,1929.0
3270,1341,1926,0,3270.0,3273.0,1340.0,1337.0,1925.0,1927.0
3272,1343,1928,0,3270.0,3270.0,1341.0,1340.0,1926.0,1925.0
3273,1345,1930,0,3272.0,3270.0,1343.0,1341.0,1928.0,1926.0
3275,1344,1933,0,3273.0,3272.0,1345.0,1343.0,1930.0,1928.0
3272,1344,1930,0,3275.0,3273.0,1344.0,1345.0,1933.0,1930.0
3271,1342,1932,0,3272.0,3275.0,1344.0,1344.0,1930.0,1933.0
3271,1336,1932,0,3271.0,3272.0,1342.0,1344.0,1932.0,1930.0
3270,1334,1930,0,3271.0,3271.0,1336.0,1342.0,1932.0,1932.0
3266,1337,1927,0,3270.0,3271.0,1334.0,1336.0,1930.0,1932.0
3267,1339,1932,0,3266.0,3270.0,1337.0,1334.0,1927.0,1930.0
3264,1339,1935,0,3267.0,3266.0,1339.0,1337.0,1932.0,1927.0
3264,1338,1938,0,3264.0,3267.0,1339.0,1339.0,1935.0,1932.0
3268,1342,1937,0,3264.0,3264.0,1338.0,1339.0,1938.0,1935.0
3270,1344,1937,0,3268.0,3264.0,1342.0,1338.0,1937.0,1938.0
3274,1345,1933,0,3270.0,3268.0,1344.0,1342.0,1937.0,1937.0
3276,1348,1932,0,3274.0,3270.0,1345.0,1344.0,1933.0,1937.0
3280,1352,1932,0,3276.0,3274.0,1348.0,1345.0,1932.0,1933.0
3283,1353,1932,0,3280.0,3276.0,1352.0,1348.0,1932.0,1932.0
3291,1355,1932,0,3283.0,3280.0,1353.0,1352.0,1932.0,1932.0
3295,1360,1930,0,3291.0,3283.0,1355.0,1353.0,1932.0,1932.0
3297,1362,1929,0,3295.0,3291.0,1360.0,1355.0,1930.0,1932.0
3299,1362,1931,0,3297.0,3295.0,1362.0,1360.0,1929.0,1930.0
3296,1359,1932,0,3299.0,3297.0,1362.0,1362.0,1931.0,1929.0
3291,1355,1932,0,3296.0,3299.0,1359.0,1362.0,1932.0,1931.0
3288,1359,1925,0,3291.0,3296.0,1355.0,1359.0,1932.0,1932.0
3286,1356,1921,0,3288.0,3291.0,1359.0,1355.0,1925.0,1932.0
3282,1357,1923,0,3286.0,3288.0,1356.0,1359.0,1921.0,1925.0
3284,1359,1924,0,3282.0,3286.0,1357.0,1356.0,1923.0,1921.0
3288,1360,1916,0,3284.0,3282.0,1359.0,1357.0,1924.0,1923.0
3288,1362,1913,0,3288.0,3284.0,1360.0,1359.0,1916.0,1924.0
3287,1367,1914,0,3288.0,3288.0,1362.0,1360.0,1913.0,1916.0
3290,1372,1913,0,3287.0,3288.0,1367.0,1362.0,1914.0,1913.0
3292,1375,1909,0,3290.0,3287.0,1372.0,1367.0,1913.0,1914.0
3294,1376,1905,0,3292.0,3290.0,1375.0,1372.0,1909.0,1913.0
3292,1377,1905,0,3294.0,3292.0,1376.0,1375.0,1905.0,1909.0
3286,1373,1902,0,3292.0,3294.0,1377.0,1376.0,1905.0,1905.0
3281,1365,1896,0,3286.0,3292.0,1373.0,1377.0,1902.0,1905.0
3276,1366,1897,0,3281.0,3286.0,1365.0,1373.0,1896.0,1902.0
3275,1366,1897,0,3276.0,3281.0,1366.0,1365.0,1897.0,1896.0
3275,1368,1897,0,3275.0,3276.0,1366.0,1366.0,1897.0,1897.0
3277,1365,1899,0,3275.0,3275.0,1368.0,1366.0,1897.0,1897.0
3278,1366,1899,0,3277.0,3275.0,1365.0,1368.0,1899.0,1897.0
3278,1368,1906,0,3278.0,3277.0,1366.0,1365.0,1899.0,1899.0
3277,1366,1911,0,3278.0,3278.0,1368.0,1366.0,1906.0,1899.0
3278,1365,1907,0,3277.0,3278.0,1366.0,1368.0,1911.0,1906.0
3280,1366,1907,0,3278.0,3277.0,1365.0,1366.0,1907.0,1911.0
3283,1366,1904,0,3280.0,3278.0,1366.0,1365.0,1907.0,1907.0
3281,1369,1904,0,3283.0,3280.0,1366.0,1366.0,1904.0,1907.0
3280,1363,1903,0,3281.0,3283.0,1369.0,1366.0,1904.0,1904.0
3284,1363,1904,0,3280.0,3281.0,1363.0,1369.0,1903.0,1904.0
3284,1365,1904,0,3284.0,3280.0,1363.0,1363.0,1904.0,1903.0
3286,1370,1905,0,3284.0,3284.0,1365.0,1363.0,1904.0,1904.0
3284,1371,1905,0,3286.0,3284.0,1370.0,1365.0,1905.0,1904.0
3287,1374,1908,0,3284.0,3286.0,1371.0,1370.0,1905.0,1905.0
3289,1372,1908,0,3287.0,3284.0,1374.0,1371.0,1908.0,1905.0
3296,1371,1907,0,3289.0,3287.0,1372.0,1374.0,1908.0,1908.0
3294,1368,1911,0,3296.0,3289.0,1371.0,1372.0,1907.0,1908.0
3294,1366,1911,0,3294.0,3296.0,1368.0,1371.0,1911.0,1907.0
3289,1367,1909,0,3294.0,3294.0,1366.0,1368.0,1911.0,1911.0
3289,1366,1908,0,3289.0,3294.0,1367.0,1366.0,1909.0,1911.0
3290,1369,1912,0,3289.0,3289.0,1366.0,1367.0,1908.0,1909.0
3287,1365,1913,0,3290.0,3289.0,1369.0,1366.0,1912.0,1908.0
3284,1365,1911,0,3287.0,3290.0,1365.0,1369.0,1913.0,1912.0
3285,1366,1908,0,3284.0,3287.0,1365.0,1365.0,1911.0,1913.0
3283,1365,1911,0,3285.0,3284.0,1366.0,1365.0,1908.0,1911.0
3284,1368,1913,0,3283.0,3285.0,1365.0,1366.0,1911.0,1908.0
3287,1366,1914,0,3284.0,3283.0,1368.0,1365.0,1913.0,1911.0
3286,1368,1914,0,3287.0,3284.0,1366.0,1368.0,1914.0,1913.0
3282,1367,1916,0,3286.0,3287.0,1368.0,1366.0,1914.0,1914.0
3282,1366,1917,0,3282.0,3286.0,1367.0,1368.0,1916.0,1914.0
3280,1372,1921,0,3282.0,3282.0,1366.0,1367.0,1917.0,1916.0
3282,1372,1923,0,3280.0,3282.0,1372.0,1366.0,1921.0,1917.0
3280,1369,1923,0,3282.0,3280.0,1372.0,1372.0,1923.0,1921.0
3279,1369,1925,0,3280.0,3282.0,1369.0,1372.0,1923.0,1923.0
3276,1369,1928,0,3279.0,3280.0,1369.0,1369.0,1925.0,1923.0
3276,1365,1926,0,3276.0,3279.0,1369.0,1369.0,1928.0,1925.0
3270,1367,1925,0,3276.0,3276.0,1365.0,1369.0,1926.0,1928.0
3270,1365,1927,0,3270.0,3276.0,1367.0,1365.0,1925.0,1926.0
3270,1367,1926,0,3270.0,3270.0,1365.0,1367.0,1927.0,1925.0
3274,1371,1925,0,3270.0,3270.0,1367.0,1365.0,1926.0,1927.0
3275,1370,1923,0,3274.0,3270.0,1371.0,1367.0,1925.0,1926.0
3281,1371,1924,0,3275.0,3274.0,1370.0,1371.0,1923.0,1925.0
3281,1370,1920,0,3281.0,3275.0,1371.0,1370.0,1924.0,1923.0
3286,1366,1919,0,3281.0,3281.0,1370.0,1371.0,1920.0,1924.0
3283,1364,1916,0,3286.0,3281.0,1366.0,1370.0,1919.0,1920.0
3282,1362,1917,0,3283.0,3286.0,1364.0,1366.0,1916.0,1919.0
3277,1363,1912,0,3282.0,3283.0,1362.0,1364.0,1917.0,1916.0
3280,1359,1908,0,3277.0,3282.0,1363.0,1362.0,1912.0,1917.0
3281,1359,1907,0,3280.0,3277.0,1359.0,1363.0,1908.0,1912.0
3281,1362,1908,0,3281.0,3280.0,1359.0,1359.0,1907.0,1908.0
3278,1359,1911,0,3281.0,3281.0,1362.0,1359.0,1908.0,1907.0
3277,1359,1913,0,3278.0,3281.0,1359.0,1362.0,1911.0,1908.0
3276,1358,1915,0,3277.0,3278.0,1359.0,1359.0,1913.0,1911.0
3275,1356,1915,0,3276.0,3277.0,1358.0,1359.0,1915.0,1913.0
3272,1354,1919,0,3275.0,3276.0,1356.0,1358.0,1915.0,1915.0
3269,1352,1918,0,3272.0,3275.0,1354.0,1356.0,1919.0,1915.0
3267,1350,1918,0,3269.0,3272.0,1352.0,1354.0,1918.0,1919.0
3266,1350,1920,0,3267.0,3269.0,1350.0,1352.0,1918.0,1918.0
3268,1350,1925,0,3266.0,3267.0,1350.0,1350.0,1920.0,1918.0
3274,1354,1925,0,3268.0,3266.0,1350.0,1350.0,1925.0,1920.0
3274,1354,1923,0,3274.0,3268.0,1354.0,1350.0,1925.0,1925.0
3275,1355,1925,0,3274.0,3274.0,1354.0,1354.0,1923.0,1925.0
3279,1356,1926,0,3275.0,3274.0,1355.0,1354.0,1925.0,1923.0
3277,1354,1924,0,3279.0,3275.0,1356.0,1355.0,1926.0,1925.0
3273,1353,1925,0,3277.0,3279.0,1354.0,1356.0,1924.0,1926.0
3273,1355,1923,0,3273.0,3277.0,1353.0,1354.0,1925.0,1924.0
3270,1354,1928,0,3273.0,3273.0,1355.0,1353.0,1923.0,1925.0
3267,1354,1927,0,3270.0,3273.0,1354.0,1355.0,1928.0,1923.0
3266,1358,1928,0,3267.0,3270.0,1354.0,1354.0,1927.0,1928.0
3268,1359,1929,0,3266.0,3267.0,1358.0,1354.0,1928.0,1927.0
3271,1358,1926,0,3268.0,3266.0,1359.0,1358.0,1929.0,1928.0
3271,1356,1925,0,3271.0,3268.0,1358.0,1359.0,1926.0,1929.0
3271,1358,1925,0,3271.0,3271.0,1356.0,1358.0,1925.0,1926.0
3271,1362,1923,0,3271.0,3271.0,1358.0,1356.0,1925.0,1925.0
3272,1366,1922,0,3271.0,3271.0,1362.0,1358.0,1923.0,1925.0
3276,1369,1916,0,3272.0,3271.0,1366.0,1362.0,1922.0,1923.0
3279,1371,1914,0,3276.0,3272.0,1369.0,1366.0,1916.0,1922.0
3282,1372,1914,0,3279.0,3276.0,1371.0,1369.0,1914.0,1916.0
3283,1371,1910,0,3282.0,3279.0,1372.0,1371.0,1914.0,1914.0
3285,1367,1911,0,3283.0,3282.0,1371.0,1372.0,1910.0,1914.0
3286,1373,1909,0,3285.0,3283.0,1367.0,1371.0,1911.0,1910.0
3284,1376,1908,0,3286.0,3285.0,1373.0,1367.0,1909.0,1911.0
3283,1375,1907,0,3284.0,3286.0,1376.0,1373.0,1908.0,1909.0
3281,1377,1908,0,3283.0,3284.0,1375.0,1376.0,1907.0,1908.0
3282,1375,1908,0,3281.0,3283.0,1377.0,1375.0,1908.0,1907.0
3281,1374,1910,0,3282.0,3281.0,1375.0,1377.0,1908.0,1908.0
3279,1371,1909,0,3281.0,3282.0,1374.0,1375.0,1910.0,1908.0
3280,1368,1907,0,3279.0,3281.0,1371.0,1374.0,1909.0,1910.0
3281,1366,1908,0,3280.0,3279.0,1368.0,1371.0,1907.0,1909.0
3281,1364,1909,0,3281.0,3280.0,1366.0,1368.0,1908.0,1907.0
3279,1361,1909,0,3281.0,3281.0,1364.0,1366.0,1909.0,1908.0
3275,1364,1912,0,3279.0,3281.0,1361.0,1364.0,1909.0,1909.0
3272,1362,1914,0,3275.0,3279.0,1364.0,1361.0,1912.0,1909.0
3275,1365,1909,0,3272.0,3275.0,1362.0,1364.0,1914.0,1912.0
3276,1361,1908,0,3275.0,3272.0,1365.0,1362.0,1909.0,1914.0
3277,1362,1908,0,3276.0,3275.0,1361.0,1365.0,1908.0,1909.0
3275,1359,1909,0,3277.0,3276.0,1362.0,1361.0,1908.0,1908.0
3278,1362,1909,0,3275.0,3277.0,1359.0,1362.0,1909.0,1908.0
3283,1360,1910,0,3278.0,3275.0,1362.0,1359.0,1909.0,1909.0
3284,1363,1907,0,3283.0,3278.0,1360.0,1362.0,1910.0,1909.0
3285,1364,1908,0,3284.0,3283.0,1363.0,1360.0,1907.0,1910.0
3287,1364,1908,0,3285.0,3284.0,1364.0,1363.0,1908.0,1907.0
3285,1368,1906,0,3287.0,3285.0,1364.0,1364.0,1908.0,1908.0
3281,1373,1906,0,3285.0,3287.0,1368.0,1364.0,1906.0,1908.0
3282,1372,1910,0,3281.0,3285.0,1373.0,1368.0,1906.0,1906.0
3287,1369,1911,0,3282.0,3281.0,1372.0,1373.0,1910.0,1906.0
3288,1367,1914,0,3287.0,3282.0,1369.0,1372.0,1911.0,1910.0
3292,1362,1909,0,3288.0,3287.0,1367.0,1369.0,1914.0,1911.0
3291,1363,1908,0,3292.0,3288.0,1362.0,1367.0,1909.0,1914.0
3291,1361,1905,0,3291.0,3292.0,1363.0,1362.0,1908.0,1909.0
3289,1367,1905,0,3291.0,3291.0,1361.0,1363.0,1905.0,1908.0
3292,1371,1900,0,3289.0,3291.0,1367.0,1361.0,1905.0,1905.0
3290,1374,1902,0,3292.0,3289.0,1371.0,1367.0,1900.0,1905.0
3293,1374,1902,0,3290.0,3292.0,1374.0,1371.0,1902.0,1900.0
3293,1375,1902,0,3293.0,3290.0,1374.0,1374.0,1902.0,1902.0
3293,1374,1902,0,3293.0,3293.0,1375.0,1374.0,1902.0,1902.0
3293,1372,1899,0,3293.0,3293.0,1374.0,1375.0,1902.0,1902.0
3290,1373,1895,0,3293.0,3293.0,1372.0,1374.0,1899.0,1902.0
3290,1372,1890,0,3290.0,3293.0,1373.0,1372.0,1895.0,1899.0
3290,1376,1882,0,3290.0,3290.0,1372.0,1373.0,1890.0,1895.0
3293,1377,1880,0,3290.0,3290.0,1376.0,1372.0,1882.0,1890.0
3291,1378,1880,0,3293.0,3290.0,1377.0,1376.0,1880.0,1882.0
3296,1378,1883,0,3291.0,3293.0,1378.0,1377.0,1880.0,1880.0
3296,1383,1883,0,3296.0,3291.0,1378.0,1378.0,1883.0,1880.0
3294,1381,1882,0,3296.0,3296.0,1383.0,1378.0,1883.0,1883.0
3294,1382,1884,0,3294.0,3296.0,1381.0,1383.0,1882.0,1883.0
3294,1383,1887,0,3294.0,3294.0,1382.0,1381.0,1884.0,1882.0
3297,1380,1888,0,3294.0,3294.0,1383.0,1382.0,1887.0,1884.0
3292,1379,1891,0,3297.0,3294.0,1380.0,1383.0,1888.0,1887.0
3287,1379,1892,0,3292.0,3297.0,1379.0,1380.0,1891.0,1888.0
3293,1380,1890,0,3287.0,3292.0,1379.0,1379.0,1892.0,1891.0
3295,1381,1889,0,3293.0,3287.0,1380.0,1379.0,1890.0,1892.0
3290,1381,1886,0,3295.0,3293.0,1381.0,1380.0,1889.0,1890.0
3289,1382,1886,0,3290.0,3295.0,1381.0,1381.0,1886.0,1889.0
3291,1381,1884,0,3289.0,3290.0,1382.0,1381.0,1886.0,1886.0
3288,1379,1886,0,3291.0,3289.0,1381.0,1382.0,1884.0,1886.0
3288,1380,1891,0,3288.0,3291.0,1379.0,1381.0,1886.0,1884.0
3291,1380,1892,0,3288.0,3288.0,1380.0,1379.0,1891.0,1886.0
3289,1380,1890,0,3291.0,3288.0,1380.0,1380.0,1892.0,1891.0
3286,1380,1887,0,3289.0,3291.0,1380.0,1380.0,1890.0,1892.0
3287,1380,1890,0,3286.0,3289.0,1380.0,1380.0,1887.0,1890.0
3290,1379,1892,0,3287.0,3286.0,1380.0,1380.0,1890.0,1887.0
3288,1377,1893,0,3290.0,3287.0,1379.0,1380.0,1892.0,1890.0
3287,1380,1895,0,3288.0,3290.0,1377.0,1379.0,1893.0,1892.0
3287,1379,1895,0,3287.0,3288.0,1380.0,1377.0,1895.0,1893.0
3284,1377,1894,0,3287.0,3287.0,1379.0,1380.0,1895.0,1895.0
3282,1376,1895,0,3284.0,3287.0,1377.0,1379.0,1894.0,1895.0
3280,1375,1894,0,3282.0,3284.0,1376.0,1377.0,1895.0,1894.0
3282,1375,1889,0,3280.0,3282.0,1375.0,1376.0,1894.0,1895.0
3282,1375,1889,0,3282.0,3280.0,1375.0,1375.0,1889.0,1894.0
3281,1375,1891,0,3282.0,3282.0,1375.0,1375.0,1889.0,1889.0
3282,1379,1889,0,3281.0,3282.0,1375.0,1375.0,1891.0,1889.0
3283,1379,1890,0,3282.0,3281.0,1379.0,1375.0,1889.0,1891.0
3286,1379,1887,0,3283.0,3282.0,1379.0,1379.0,1890.0,1889.0
3280,1382,1889,0,3286.0,3283.0,1379.0,1379.0,1887.0,1890.0
3285,1383,1890,0,3280.0,3286.0,1382.0,1379.0,1889.0,1887.0
3285,1385,1891,0,3285.0,3280.0,1383.0,1382.0,1890.0,1889.0
3289,1388,1891,0,3285.0,3285.0,1385.0,1383.0,1891.0,1890.0
3286,1388,1889,0,3289.0,3285.0,1388.0,1385.0,1891.0,1891.0
3288,1386,1891,0,3286.0,3289.0,1388.0,1388.0,1889.0,1891.0
3290,1383,1894,0,3288.0,3286.0,1386.0,1388.0,1891.0,1889.0
3289,1382,1894,0,3290.0,3288.0,1383.0,1386.0,1894.0,1891.0
3292,1379,1893,0,3289.0,3290.0,1382.0,1383.0,1894.0,1894.0
3292,1378,1891,0,3292.0,3289.0,1379.0,1382.0,1893.0,1894.0
3296,1377,1892,0,3292.0,3292.0,1378.0,1379.0,1891.0,1893.0
3290,1381,1894,0,3296.0,3292.0,1377.0,1378.0,1892.0,1891.0
3291,1381,1895,0,3290.0,3296.0,1381.0,1377.0,1894.0,1892.0
3294,1380,1892,0,3291.0,3290.0,1381.0,1381.0,1895.0,1894.0
3293,1379,1886,0,3294.0,3291.0,1380.0,1381.0,1892.0,1895.0
3296,1377,1881,0,3293.0,3294.0,1379.0,1380.0,1886.0,1892.0
3293,1379,1881,0,3296.0,3293.0,1377.0,1379.0,1881.0,1886.0
3294,1382,1878,0,3293.0,3296.0,1379.0,1377.0,1881.0,1881.0
3293,1385,1875,0,3294.0,3293.0,1382.0,1379.0,1878.0,1881.0
3293,1384,1872,0,3293.0,3294.0,1385.0,1382.0,1875.0,1878.0
3285,1387,1872,0,3293.0,3293.0,1384.0,1385.0,1872.0,1875.0
3284,1390,1872,0,3285.0,3293.0,1387.0,1384.0,1872.0,1872.0
3284,1394,1875,0,3284.0,3285.0,1390.0,1387.0,1872.0,1872.0
3284,1393,1878,0,3284.0,3284.0,1394.0,1390.0,1875.0,1872.0
3285,1393,1880,0,3284.0,3284.0,1393.0,1394.0,1878.0,1875.0
3293,1396,1881,0,3285.0,3284.0,1393.0,1393.0,1880.0,1878.0
3294,1398,1877,0,3293.0,3285.0,1396.0,1393.0,1881.0,1880.0
3299,1396,1878,0,3294.0,3293.0,1398.0,1396.0,1877.0,1881.0
3301,1394,1876,0,3299.0,3294.0,1396.0,1398.0,1878.0,1877.0
3301,1391,1877,0,3301.0,3299.0,1394.0,1396.0,1876.0,1878.0
3303,1389,1877,0,3301.0,3301.0,1391.0,1394.0,1877.0,1876.0
3304,1385,1877,0,3303.0,3301.0,1389.0,1391.0,1877.0,1877.0
3301,1388,1875,0,3304.0,3303.0,1385.0,1389.0,1877.0,1877.0
3301,1385,1873,0,3301.0,3304.0,1388.0,1385.0,1875.0,1877.0
3303,1389,1871,0,3301.0,3301.0,1385.0,1388.0,1873.0,1875.0
3301,1389,1869,0,3303.0,3301.0,1389.0,1385.0,1871.0,1873.0
3299,1391,1869,0,3301.0,3303.0,1389.0,1389.0,1869.0,1871.0
3292,1391,1869,0,3299.0,3301.0,1391.0,1389.0,1869.0,1869.0
3288,1392,1867,0,3292.0,3299.0,1391.0,1391.0,1869.0,1869.0
3287,1394,1866,0,3288.0,3292.0,1392.0,1391.0,1867.0,1869.0
3282,1396,1866,0,3287.0,3288.0,1394.0,1392.0,1866.0,1867.0
3282,1401,1866,0,3282.0,3287.0,1396.0,1394.0,1866.0,1866.0
3284,1403,1864,0,3282.0,3282.0,1401.0,1396.0,1866.0,1866.0
3285,1404,1864,0,3284.0,3282.0,1403.0,1401.0,1864.0,1866.0
3283,1404,1869,0,3285.0,3284.0,1404.0,1403.0,1864.0,1864.0
3285,1404,1871,0,3283.0,3285.0,1404.0,1404.0,1869.0,1864.0
3281,1402,1870,0,3285.0,3283.0,1404.0,1404.0,1871.0,1869.0
3279,1402,1868,0,3281.0,3285.0,1402.0,1404.0,1870.0,1871.0
3289,1405,1876,0,3279.0,3281.0,1402.0,1402.0,1868.0,1870.0
3292,1406,1876,0,3289.0,3279.0,1405.0,1402.0,1876.0,1868.0
3294,1406,1877,0,3292.0,3289.0,1406.0,1405.0,1876.0,1876.0
3292,1406,1877,0,3294.0,3292.0,1406.0,1406.0,1877.0,1876.0
3296,1407,1876,0,3292.0,3294.0,1406.0,1406.0,1877.0,1877.0
3298,1405,1878,0,3296.0,3292.0,1407.0,1406.0,1876.0,1877.0
3300,1403,1882,0,3298.0,3296.0,1405.0,1407.0,1878.0,1876.0
3298,1405,1880,0,3300.0,3298.0,1403.0,1405.0,1882.0,1878.0
3294,1405,1877,0,3298.0,3300.0,1405.0,1403.0,1880.0,1882.0
3294,1407,1879,0,3294.0,3298.0,1405.0,1405.0,1877.0,1880.0
3295,1405,1881,0,3294.0,3294.0,1407.0,1405.0,1879.0,1877.0
3290,1402,1882,0,3295.0,3294.0,1405.0,1407.0,1881.0,1879.0
3284,1396,1877,0,3290.0,3295.0,1402.0,1405.0,1882.0,1881.0
3283,1394,1875,0,3284.0,3290.0,1396.0,1402.0,1877.0,1882.0
3286,1391,1877,0,3283.0,3284.0,1394.0,1396.0,1875.0,1877.0
3283,1392,1876,0,3286.0,3283.0,1391.0,1394.0,1877.0,1875.0
3282,1387,1879,0,3283.0,3286.0,1392.0,1391.0,1876.0,1877.0
3285,1387,1876,0,3282.0,3283.0,1387.0,1392.0,1879.0,1876.0
3281,1390,1880,0,3285.0,3282.0,1387.0,1387.0,1876.0,1879.0
3278,1391,1878,0,3281.0,3285.0,1390.0,1387.0,1880.0,1876.0
3280,1392,1878,0,3278.0,3281.0,1391.0,1390.0,1878.0,1880.0
3286,1396,1881,0,3280.0,3278.0,1392.0,1391.0,1878.0,1878.0
3285,1399,1882,0,3286.0,3280.0,1396.0,1392.0,1881.0,1878.0
3287,1400,1881,0,3285.0,3286.0,1399.0,1396.0,1882.0,1881.0
3291,1399,1881,0,3287.0,3285.0,1400.0,1399.0,1881.0,1882.0
3294,1400,1877,0,3291.0,3287.0,1399.0,1400.0,1881.0,1881.0
3295,1403,1877,0,3294.0,3291.0,1400.0,1399.0,1877.0,1881.0
3293,1397,1877,0,3295.0,3294.0,1403.0,1400.0,1877.0,1877.0
3293,1395,1880,0,3293.0,3295.0,1397.0,1403.0,1877.0,1877.0
3298,1390,1881,0,3293.0,3293.0,1395.0,1397.0,1880.0,1877.0
3295,1384,1888,0,3298.0,3293.0,1390.0,1395.0,1881.0,1880.0
3292,1384,1886,0,3295.0,3298.0,1384.0,1390.0,1888.0,1881.0
3289,1385,1885,0,3292.0,3295.0,1384.0,1384.0,1886.0,1888.0
3286,1385,1886,0,3289.0,3292.0,1385.0,1384.0,1885.0,1886.0
3284,1381,1880,0,3286.0,3289.0,1385.0,1385.0,1886.0,1885.0
3290,1382,1882,0,3284.0,3286.0,1381.0,1385.0,1880.0,1886.0
3289,1386,1879,0,3290.0,3284.0,1382.0,1381.0,1882.0,1880.0
3292,1388,1876,0,3289.0,3290.0,1386.0,1382.0,1879.0,1882.0
3291,1392,1876,0,3292.0,3289.0,1388.0,1386.0,1876.0,1879.0
3292,1394,1876,0,3291.0,3292.0,1392.0,1388.0,1876.0,1876.0
3291,1396,1874,0,3292.0,3291.0,1394.0,1392.0,1876.0,1876.0
3287,1398,1876,0,3291.0,3292.0,1396.0,1394.0,1874.0,1876.0
3282,1401,1871,0,3287.0,3291.0,1398.0,1396.0,1876.0,1874.0
3280,1398,1871,0,3282.0,3287.0,1401.0,1398.0,1871.0,1876.0
3281,1394,1870,0,3280.0,3282.0,1398.0,1401.0,1871.0,1871.0
3277,1398,1869,0,3281.0,3280.0,1394.0,1398.0,1870.0,1871.0
3281,1399,1870,0,3277.0,3281.0,1398.0,1394.0,1869.0,1870.0
3280,1397,1871,0,3281.0,3277.0,1399.0,1398.0,1870.0,1869.0
3286,1399,1870,0,3280.0,3281.0,1397.0,1399.0,1871.0,1870.0
3283,1399,1874,0,3286.0,3280.0,1399.0,1397.0,1870.0,1871.0
3289,1399,1872,0,3283.0,3286.0,1399.0,1399.0,1874.0,1870.0
3291,1401,1874,0,3289.0,3283.0,1399.0,1399.0,1872.0,1874.0
3294,1401,1872,0,3291.0,3289.0,1401.0,1399.0,1874.0,1872.0
3291,1398,1871,0,3294.0,3291.0,1401.0,1401.0,1872.0,1874.0
3294,1401,1874,0,3291.0,3294.0,1398.0,1401.0,1871.0,1872.0
3296,1400,1873,0,3294.0,3291.0,1401.0,1398.0,1874.0,1871.0
3294,1401,1873,0,3296.0,3294.0,1400.0,1401.0,1873.0,1874.0
3296,1401,1876,0,3294.0,3296.0,1401.0,1400.0,1873.0,1873.0
3298,1397,1877,0,3296.0,3294.0,1401.0,1401.0,1876.0,1873.0
3298,1399,1876,0,3298.0,3296.0,1397.0,1401.0,1877.0,1876.0
3298,1402,1878,0,3298.0,3298.0,1399.0,1397.0,1876.0,1877.0
3297,1400,1878,0,3298.0,3298.0,1402.0,1399.0,1878.0,1876.0
3292,1402,1879,0,3297.0,3298.0,1400.0,1402.0,1878.0,1878.0
3289,1400,1876,0,3292.0,3297.0,1402.0,1400.0,1879.0,1878.0
3283,1398,1877,0,3289.0,3292.0,1400.0,1402.0,1876.0,1879.0
3282,1397,1875,0,3283.0,3289.0,1398.0,1400.0,1877.0,1876.0
3280,1397,1880,0,3282.0,3283.0,1397.0,1398.0,1875.0,1877.0
3279,1399,1880,0,3280.0,3282.0,1397.0,1397.0,1880.0,1875.0
3277,1402,1880,0,3279.0,3280.0,1399.0,1397.0,1880.0,1880.0
3276,1400,1881,0,3277.0,3279.0,1402.0,1399.0,1880.0,1880.0
3277,1403,1877,0,3276.0,3277.0,1400.0,1402.0,1881.0,1880.0
3279,1398,1877,0,3277.0,3276.0,1403.0,1400.0,1877.0,1881.0
3279,1399,1879,0,3279.0,3277.0,1398.0,1403.0,1877.0,1877.0
3279,1399,1878,0,3279.0,3279.0,1399.0,1398.0,1879.0,1877.0
3283,1402,1877,0,3279.0,3279.0,1399.0,1399.0,1878.0,1879.0
3284,1401,1879,0,3283.0,3279.0,1402.0,1399.0,1877.0,1878.0
3287,1403,1881,0,3284.0,3283.0,1401.0,1402.0,1879.0,1877.0
3287,1401,1880,0,3287.0,3284.0,1403.0,1401.0,1881.0,1879.0
3291,1397,1884,0,3287.0,3287.0,1401.0,1403.0,1880.0,1881.0
3291,1396,1883,0,3291.0,3287.0,1397.0,1401.0,1884.0,1880.0
3287,1397,1883,0,3291.0,3291.0,1396.0,1397.0,1883.0,1884.0
3294,1395,1882,0,3287.0,3291.0,1397.0,1396.0,1883.0,1883.0
3293,1394,1879,0,3294.0,3287.0,1395.0,1397.0,1882.0,1883.0
3291,1395,1879,0,3293.0,3294.0,1394.0,1395.0,1879.0,1882.0
3290,1397,1875,0,3291.0,3293.0,1395.0,1394.0,1879.0,1879.0
3290,1401,1872,0,3290.0,3291.0,1397.0,1395.0,1875.0,1879.0
3292,1400,1872,0,3290.0,3290.0,1401.0,1397.0,1872.0,1875.0
3291,1402,1873,0,3292.0,3290.0,1400.0,1401.0,1872.0,1872.0
3288,1399,1874,0,3291.0,3292.0,1402.0,1400.0,1873.0,1872.0
3290,1399,1868,0,3288.0,3291.0,1399.0,1402.0,1874.0,1873.0
3290,1400,1865,0,3290.0,3288.0,1399.0,1399.0,1868.0,1874.0
3286,1401,1868,0,3290.0,3290.0,1400.0,1399.0,1865.0,1868.0
3289,1404,1867,0,3286.0,3290.0,1401.0,1400.0,1868.0,1865.0
3286,1407,1868,0,3289.0,3286.0,1404.0,1401.0,1867.0,1868.0
3283,1408,1870,0,3286.0,3289.0,1407.0,1404.0,1868.0,1867.0
3281,1407,1868,0,3283.0,3286.0,1408.0,1407.0,1870.0,1868.0
3281,1404,1868,0,3281.0,3283.0,1407.0,1408.0,1868.0,1870.0
3282,1404,1870,0,3281.0,3281.0,1404.0,1407.0,1868.0,1868.0
3283,1400,1869,0,3282.0,3281.0,1404.0,1404.0,1870.0,1868.0
3285,1400,1871,0,3283.0,3282.0,1400.0,1404.0,1869.0,1870.0
3291,1401,1873,0,3285.0,3283.0,1400.0,1400.0,1871.0,1869.0
3291,1402,1873,0,3291.0,3285.0,1401.0,1400.0,1873.0,1871.0
3291,1403,1873,0,3291.0,3291.0,1402.0,1401.0,1873.0,1873.0
3291,1402,1868,0,3291.0,3291.0,1403.0,1402.0,1873.0,1873.0
3289,1403,1868,0,3291.0,3291.0,1402.0,1403.0,1868.0,1873.0
3290,1402,1869,0,3289.0,3291.0,1403.0,1402.0,1868.0,1868.0
3291,1404,1870,0,3290.0,3289.0,1402.0,1403.0,1869.0,1868.0
3292,1403,1875,0,3291.0,3290.0,1404.0,1402.0,1870.0,1869.0
3294,1402,1872,0,3292.0,3291.0,1403.0,1404.0,1875.0,1870.0
3291,1404,1871,0,3294.0,3292.0,1402.0,1403.0,1872.0,1875.0
3290,1404,1871,0,3291.0,3294.0,1404.0,1402.0,1871.0,1872.0
3295,1406,1870,0,3290.0,3291.0,1404.0,1404.0,1871.0,1871.0
3294,1409,1872,0,3295.0,3290.0,1406.0,1404.0,1870.0,1871.0
3293,1410,1871,0,3294.0,3295.0,1409.0,1406.0,1872.0,1870.0
3292,1406,1872,0,3293.0,3294.0,1410.0,1409.0,1871.0,1872.0
3291,1405,1874,0,3292.0,3293.0,1406.0,1410.0,1872.0,1871.0
3291,1406,1872,0,3291.0,3292.0,1405.0,1406.0,1874.0,1872.0
3292,1403,1871,0,3291.0,3291.0,1406.0,1405.0,1872.0,1874.0
3290,1406,1871,0,3292.0,3291.0,1403.0,1406.0,1871.0,1872.0
3288,1409,1871,0,3290.0,3292.0,1406.0,1403.0,1871.0,1871.0
3291,1405,1870,0,3288.0,3290.0,1409.0,1406.0,1871.0,1871.0
3290,1407,1868,0,3291.0,3288.0,1405.0,1409.0,1870.0,1871.0
3288,1409,1869,0,3290.0,3291.0,1407.0,1405.0,1868.0,1870.0
3288,1408,1870,0,3288.0,3290.0,1409.0,1407.0,1869.0,1868.0
3286,1406,1868,0,3288.0,3288.0,1408.0,1409.0,1870.0,1869.0
3285,1405,1873,0,3286.0,3288.0,1406.0,1408.0,1868.0,1870.0
3286,1402,1874,0,3285.0,3286.0,1405.0,1406.0,1873.0,1868.0
3284,1404,1872,0,3286.0,3285.0,1402.0,1405.0,1874.0,1873.0
3284,1406,1871,0,3284.0,3286.0,1404.0,1402.0,1872.0,1874.0
3285,1407,1871,0,3284.0,3284.0,1406.0,1404.0,1871.0,1872.0
3282,1409,1868,0,3285.0,3284.0,1407.0,1406.0,1871.0,1871.0
3284,1408,1869,0,3282.0,3285.0,1409.0,1407.0,1868.0,1871.0
3283,1408,1876,0,3284.0,3282.0,1408.0,1409.0,1869.0,1868.0
3290,1407,1876,0,3283.0,3284.0,1408.0,1408.0,1876.0,1869.0
3292,1406,1874,0,3290.0,3283.0,1407.0,1408.0,1876.0,1876.0
3295,1404,1874,0,3292.0,3290.0,1406.0,1407.0,1874.0,1876.0
3289,1398,1879,0,3295.0,3292.0,1404.0,1406.0,1874.0,1874.0
3288,1395,1878,0,3289.0,3295.0,1398.0,1404.0,1879.0,1874.0
3287,1395,1877,0,3288.0,3289.0,1395.0,1398.0,1878.0,1879.0
3285,1394,1875,0,3287.0,3288.0,1395.0,1395.0,1877.0,1878.0
3284,1398,1874,0,3285.0,3287.0,1394.0,1395.0,1875.0,1877.0
3284,1398,1874,0,3284.0,3285.0,1398.0,1394.0,1874.0,1875.0
3284,1402,1876,0,3284.0,3284.0,1398.0,1398.0,1874.0,1874.0
3281,1402,1874,0,3284.0,3284.0,1402.0,1398.0,1876.0,1874.0
3281,1406,1873,0,3281.0,3284.0,1402.0,1402.0,1874.0,1876.0
3282,1412,1873,0,3281.0,3281.0,1406.0,1402.0,1873.0,1874.0
3282,1412,1876,0,3282.0,3281.0,1412.0,1406.0,1873.0,1873.0
3283,1413,1877,0,3282.0,3282.0,1412.0,1412.0,1876.0,1873.0
3281,1411,1875,0,3283.0,3282.0,1413.0,1412.0,1877.0,1876.0
3282,1411,1877,0,3281.0,3283.0,1411.0,1413.0,1875.0,1877.0
3286,1406,1879,0,3282.0,3281.0,1411.0,1411.0,1877.0,1875.0
3286,1408,1878,0,3286.0,3282.0,1406.0,1411.0,1879.0,1877.0
3288,1405,1881,0,3286.0,3286.0,1408.0,1406.0,1878.0,1879.0
3293,1404,1882,0,3288.0,3286.0,1405.0,1408.0,1881.0,1878.0
3297,1399,1887,0,3293.0,3288.0,1404.0,1405.0,1882.0,1881.0
3295,1395,1887,0,3297.0,3293.0,1399.0,1404.0,1887.0,1882.0
3297,1391,1888,0,3295.0,3297.0,1395.0,1399.0,1887.0,1887.0
3297,1392,1886,0,3297.0,3295.0,1391.0,1395.0,1888.0,1887.0
3291,1392,1883,0,3297.0,3297.0,1392.0,1391.0,1886.0,1888.0
3286,1396,1876,0,3291.0,3297.0,1392.0,1392.0,1883.0,1886.0
3284,1397,1874,0,3286.0,3291.0,1396.0,1392.0,1876.0,1883.0
3286,1398,1873,0,3284.0,3286.0,1397.0,1396.0,1874.0,1876.0
3288,1397,1871,0,3286.0,3284.0,1398.0,1397.0,1873.0,1874.0
3288,1404,1872,0,3288.0,3286.0,1397.0,1398.0,1871.0,1873.0
3286,1405,1873,0,3288.0,3288.0,1404.0,1397.0,1872.0,1871.0
3285,1406,1869,0,3286.0,3288.0,1405.0,1404.0,1873.0,1872.0
3280,1405,1867,0,3285.0,3286.0,1406.0,1405.0,1869.0,1873.0
3280,1404,1865,0,3280.0,3285.0,1405.0,1406.0,1867.0,1869.0
3281,1407,1869,0,3280.0,3280.0,1404.0,1405.0,1865.0,1867.0
3281,1410,1869,0,3281.0,3280.0,1407.0,1404.0,1869.0,1865.0
3280,1410,1872,0,3281.0,3281.0,1410.0,1407.0,1869.0,1869.0
3285,1410,1870,0,3280.0,3281.0,1410.0,1410.0,1872.0,1869.0
3287,1409,1874,0,3285.0,3280.0,1410.0,1410.0,1870.0,1872.0
3290,1410,1875,0,3287.0,3285.0,1409.0,1410.0,1874.0,1870.0
3291,1412,1876,0,3290.0,3287.0,1410.0,1409.0,1875.0,1874.0
3295,1412,1876,0,3291.0,3290.0,1412.0,1410.0,1876.0,1875.0
3293,1408,1875,0,3295.0,3291.0,1412.0,1412.0,1876.0,1876.0
3297,1408,1875,0,3293.0,3295.0,1408.0,1412.0,1875.0,1876.0
3293,1406,1876,0,3297.0,3293.0,1408.0,1408.0,1875.0,1875.0
3292,1401,1873,0,3293.0,3297.0,1406.0,1408.0,1876.0,1875.0
3291,1400,1876,0,3292.0,3293.0,1401.0,1406.0,1873.0,1876.0
3289,1400,1873,0,3291.0,3292.0,1400.0,1401.0,1876.0,1873.0
3290,1399,1873,0,3289.0,3291.0,1400.0,1400.0,1873.0,1876.0
3293,1397,1877,0,3290.0,3289.0,1399.0,1400.0,1873.0,1873.0
3289,1403,1879,0,3293.0,3290.0,1397.0,1399.0,1877.0,1873.0
3286,1404,1878,0,3289.0,3293.0,1403.0,1397.0,1879.0,1877.0
3286,1400,1878,0,3286.0,3289.0,1404.0,1403.0,1878.0,1879.0
3285,1406,1874,0,3286.0,3286.0,1400.0,1404.0,1878.0,1878.0
3282,1405,1874,0,3285.0,3286.0,1406.0,1400.0,1874.0,1878.0
3285,1406,1874,0,3282.0,3285.0,1405.0,1406.0,1874.0,1874.0
3282,1406,1869,0,3285.0,3282.0,1406.0,1405.0,1874.0,1874.0
3284,1408,1871,0,3282.0,3285.0,1406.0,1406.0,1869.0,1874.0
3283,1404,1870,0,3284.0,3282.0,1408.0,1406.0,1871.0,1869.0
3282,1404,1872,0,3283.0,3284.0,1404.0,1408.0,1870.0,1871.0
3286,1404,1873,0,3282.0,3283.0,1404.0,1404.0,1872.0,1870.0
3284,1405,1877,0,3286.0,3282.0,1404.0,1404.0,1873.0,1872.0
3287,1406,1876,0,3284.0,3286.0,1405.0,1404.0,1877.0,1873.0
3288,1409,1875,0,3287.0,3284.0,1406.0,1405.0,1876.0,1877.0
3289,1407,1880,0,3288.0,3287.0,1409.0,1406.0,1875.0,1876.0
3288,1408,1883,0,3289.0,3288.0,1407.0,1409.0,1880.0,1875.0
3290,1407,1881,0,3288.0,3289.0,1408.0,1407.0,1883.0,1880.0
3289,1405,1880,0,3290.0,3288.0,1407.0,1408.0,1881.0,1883.0
3288,1408,1883,0,3289.0,3290.0,1405.0,1407.0,1880.0,1881.0
3283,1409,1888,0,3288.0,3289.0,1408.0,1405.0,1883.0,1880.0
3286,1410,1886,0,3283.0,3288.0,1409.0,1408.0,1888.0,1883.0
3287,1406,1884,0,3286.0,3283.0,1410.0,1409.0,1886.0,1888.0
3289,1406,1884,0,3287.0,3286.0,1406.0,1410.0,1884.0,1886.0
3287,1405,1886,0,3289.0,3287.0,1406.0,1406.0,1884.0,1884.0
3283,1405,1885,0,3287.0,3289.0,1405.0,1406.0,1886.0,1884.0
3281,1405,1885,0,3283.0,3287.0,1405.0,1405.0,1885.0,1886.0
3278,1406,1884,0,3281.0,3283.0,1405.0,1405.0,1885.0,1885.0
3276,1406,1879,0,3278.0,3281.0,1406.0,1405.0,1884.0,1885.0
3276,1406,1873,0,3276.0,3278.0,1406.0,1406.0,1879.0,1884.0
3280,1405,1875,0,3276.0,3276.0,1406.0,1406.0,1873.0,1879.0
3279,1409,1872,0,3280.0,3276.0,1405.0,1406.0,1875.0,1873.0
3278,1410,1876,0,3279.0,3280.0,1409.0,1405.0,1872.0,1875.0
3278,1409,1879,0,3278.0,3279.0,1410.0,1409.0,1876.0,1872.0
3276,1409,1881,0,3278.0,3278.0,1409.0,1410.0,1879.0,1876.0
3276,1409,1879,0,3276.0,3278.0,1409.0,1409.0,1881.0,1879.0
3278,1409,1880,0,3276.0,3276.0,1409.0,1409.0,1879.0,1881.0
3282,1409,1880,0,3278.0,3276.0,1409.0,1409.0,1880.0,1879.0
3282,1402,1879,0,3282.0,3278.0,1409.0,1409.0,1880.0,1880.0
3280,1402,1885,0,3282.0,3282.0,1402.0,1409.0,1879.0,1880.0
3283,1402,1886,0,3280.0,3282.0,1402.0,1402.0,1885.0,1879.0
3280,1401,1888,0,3283.0,3280.0,1402.0,1402.0,1886.0,1885.0
3282,1405,1887,0,3280.0,3283.0,1401.0,1402.0,1888.0,1886.0
3283,1406,1889,0,3282.0,3280.0,1405.0,1401.0,1887.0,1888.0
3285,1402,1884,0,3283.0,3282.0,1406.0,1405.0,1889.0,1887.0
3285,1400,1886,0,3285.0,3283.0,1402.0,1406.0,1884.0,1889.0
3285,1401,1885,0,3285.0,3285.0,1400.0,1402.0,1886.0,1884.0
3284,1399,1887,0,3285.0,3285.0,1401.0,1400.0,1885.0,1886.0
3283,1399,1885,0,3284.0,3285.0,1399.0,1401.0,1887.0,1885.0
3284,1399,1884,0,3283.0,3284.0,1399.0,1399.0,1885.0,1887.0
3282,1400,1887,0,3284.0,3283.0,1399.0,1399.0,1884.0,1885.0
3281,1402,1887,0,3282.0,3284.0,1400.0,1399.0,1887.0,1884.0
3282,1400,1884,0,3281.0,3282.0,1402.0,1400.0,1887.0,1887.0
3281,1401,1886,0,3282.0,3281.0,1400.0,1402.0,1884.0,1887.0
3279,1405,1887,0,3281.0,3282.0,1401.0,1400.0,1886.0,1884.0
3276,1402,1887,0,3279.0,3281.0,1405.0,1401.0,1887.0,1886.0
3278,1403,1888,0,3276.0,3279.0,1402.0,1405.0,1887.0,1887.0
3277,1402,1888,0,3278.0,3276.0,1403.0,1402.0,1888.0,1887.0
3276,1401,1887,0,3277.0,3278.0,1402.0,1403.0,1888.0,1888.0
3273,1403,1884,0,3276.0,3277.0,1401.0,1402.0,1887.0,1888.0
3273,1404,1886,0,3273.0,3276.0,1403.0,1401.0,1884.0,1887.0
3274,1404,1886,0,3273.0,3273.0,1404.0,1403.0,1886.0,1884.0
3274,1402,1885,0,3274.0,3273.0,1404.0,1404.0,1886.0,1886.0
3274,1401,1884,0,3274.0,3274.0,1402.0,1404.0,1885.0,1886.0
3275,1399,1890,0,3274.0,3274.0,1401.0,1402.0,1884.0,1885.0
3275,1399,1892,0,3275.0,3274.0,1399.0,1401.0,1890.0,1884.0
3275,1401,1889,0,3275.0,3275.0,1399.0,1399.0,1892.0,1890.0
3278,1405,1889,0,3275.0,3275.0,1401.0,1399.0,1889.0,1892.0
3282,1407,1890,0,3278.0,3275.0,1405.0,1401.0,1889.0,1889.0
3283,1408,1890,0,3282.0,3278.0,1407.0,1405.0,1890.0,1889.0
3281,1406,1892,0,3283.0,3282.0,1408.0,1407.0,1890.0,1890.0
3284,1408,1889,0,3281.0,3283.0,1406.0,1408.0,1892.0,1890.0
3286,1407,1892,0,3284.0,3281.0,1408.0,1406.0,1889.0,1892.0
3284,1409,1895,0,3286.0,3284.0,1407.0,1408.0,1892.0,1889.0
3281,1403,1896,0,3284.0,3286.0,1409.0,1407.0,1895.0,1892.0
3280,1405,1897,0,3281.0,3284.0,1403.0,1409.0,1896.0,1895.0
3280,1405,1896,0,3280.0,3281.0,1405.0,1403.0,1897.0,1896.0
3279,1405,1896,0,3280.0,3280.0,1405.0,1405.0,1896.0,1897.0
3278,1401,1895,0,3279.0,3280.0,1405.0,1405.0,1896.0,1896.0
3276,1402,1895,0,3278.0,3279.0,1401.0,1405.0,1895.0,1896.0
3275,1400,1897,0,3276.0,3278.0,1402.0,1401.0,1895.0,1895.0
3274,1400,1896,0,3275.0,3276.0,1400.0,1402.0,1897.0,1895.0
3275,1393,1896,0,3274.0,3275.0,1400.0,1400.0,1896.0,1897.0
3274,1395,1891,0,3275.0,3274.0,1393.0,1400.0,1896.0,1896.0
3273,1394,1891,0,3274.0,3275.0,1395.0,1393.0,1891.0,1896.0
3276,1390,1892,0,3273.0,3274.0,1394.0,1395.0,1891.0,1891.0
3278,1393,1889,0,3276.0,3273.0,1390.0,1394.0,1892.0,1891.0
3279,1399,1885,0,3278.0,3276.0,1393.0,1390.0,1889.0,1892.0
3278,1402,1889,0,3279.0,3278.0,1399.0,1393.0,1885.0,1889.0
3280,1405,1887,0,3278.0,3279.0,1402.0,1399.0,1889.0,1885.0
3283,1403,1888,0,3280.0,3278.0,1405.0,1402.0,1887.0,1889.0
3282,1405,1889,0,3283.0,3280.0,1403.0,1405.0,1888.0,1887.0
3283,1406,1891,0,3282.0,3283.0,1405.0,1403.0,1889.0,1888.0
3280,1408,1892,0,3283.0,3282.0,1406.0,1405.0,1891.0,1889.0
3280,1410,1895,0,3280.0,3283.0,1408.0,1406.0,1892.0,1891.0
3278,1406,1896,0,3280.0,3280.0,1410.0,1408.0,1895.0,1892.0
3280,1402,1899,0,3278.0,3280.0,1406.0,1410.0,1896.0,1895.0
3283,1395,1900,0,3280.0,3278.0,1402.0,1406.0,1899.0,1896.0
3283,1390,1902,0,3283.0,3280.0,1395.0,1402.0,1900.0,1899.0
3281,1391,1906,0,3283.0,3283.0,1390.0,1395.0,1902.0,1900.0
3279,1392,1904,0,3281.0,3283.0,1391.0,1390.0,1906.0,1902.0
3278,1391,1899,0,3279.0,3281.0,1392.0,1391.0,1904.0,1906.0
3276,1389,1898,0,3278.0,3279.0,1391.0,1392.0,1899.0,1904.0
3283,1391,1895,0,3276.0,3278.0,1389.0,1391.0,1898.0,1899.0
3283,1390,1893,0,3283.0,3276.0,1391.0,1389.0,1895.0,1898.0
3281,1390,1895,0,3283.0,3283.0,1390.0,1391.0,1893.0,1895.0
3280,1393,1892,0,3281.0,3283.0,1390.0,1390.0,1895.0,1893.0
3279,1395,1890,0,3280.0,3281.0,1393.0,1390.0,1892.0,1895.0
3274,1396,1889,0,3279.0,3280.0,1395.0,1393.0,1890.0,1892.0
3275,1397,1888,0,3274.0,3279.0,1396.0,1395.0,1889.0,1890.0
3273,1399,1885,0,3275.0,3274.0,1397.0,1396.0,1888.0,1889.0
3271,1400,1887,0,3273.0,3275.0,1399.0,1397.0,1885.0,1888.0
3271,1400,1891,0,3271.0,3273.0,1400.0,1399.0,1887.0,1885.0
3273,1405,1890,0,3271.0,3271.0,1400.0,1400.0,1891.0,1887.0
3273,1403,1888,0,3273.0,3271.0,1405.0,1400.0,1890.0,1891.0
3276,1401,1889,0,3273.0,3273.0,1403.0,1405.0,1888.0,1890.0
3277,1400,1889,0,3276.0,3273.0,1401.0,1403.0,1889.0,1888.0
3278,1396,1890,0,3277.0,3276.0,1400.0,1401.0,1889.0,1889.0
3278,1393,1890,0,3278.0,3277.0,1396.0,1400.0,1890.0,1889.0
3275,1392,1891,0,3278.0,3278.0,1393.0,1396.0,1890.0,1890.0
3274,1395,1892,0,3275.0,3278.0,1392.0,1393.0,1891.0,1890.0
3278,1393,1894,0,3274.0,3275.0,1395.0,1392.0,1892.0,1891.0
3281,1394,1898,0,3278.0,3274.0,1393.0,1395.0,1894.0,1892.0
3283,1396,1901,0,3281.0,3278.0,1394.0,1393.0,1898.0,1894.0
3283,1396,1903,0,3283.0,3281.0,1396.0,1394.0,1901.0,1898.0
3285,1395,1903,0,3283.0,3283.0,1396.0,1396.0,1903.0,1901.0
3285,1393,1904,0,3285.0,3283.0,1395.0,1396.0,1903.0,1903.0
3286,1395,1904,0,3285.0,3285.0,1393.0,1395.0,1904.0,1903.0
3285,1394,1906,0,3286.0,3285.0,1395.0,1393.0,1904.0,1904.0
3282,1398,1904,0,3285.0,3286.0,1394.0,1395.0,1906.0,1904.0
3280,1396,1900,0,3282.0,3285.0,1398.0,1394.0,1904.0,1906.0
3278,1396,1897,0,3280.0,3282.0,1396.0,1398.0,1900.0,1904.0
3274,1398,1897,0,3278.0,3280.0,1396.0,1396.0,1897.0,1900.0
3270,1398,1899,0,3274.0,3278.0,1398.0,1396.0,1897.0,1897.0
3271,1398,1897,0,3270.0,3274.0,1398.0,1398.0,1899.0,1897.0
3271,1400,1896,0,3271.0,3270.0,1398.0,1398.0,1897.0,1899.0
3271,1401,1895,0,3271.0,3271.0,1400.0,1398.0,1896.0,1897.0
3269,1402,1896,0,3271.0,3271.0,1401.0,1400.0,1895.0,1896.0
3267,1403,1896,0,3269.0,3271.0,1402.0,1401.0,1896.0,1895.0
3270,1404,1896,0,3267.0,3269.0,1403.0,1402.0,1896.0,1896.0
3270,1400,1897,0,3270.0,3267.0,1404.0,1403.0,1896.0,1896.0
3269,1404,1897,0,3270.0,3270.0,1400.0,1404.0,1897.0,1896.0
3266,1404,1901,0,3269.0,3270.0,1404.0,1400.0,1897.0,1897.0
3268,1402,1903,0,3266.0,3269.0,1404.0,1404.0,1901.0,1897.0
3270,1398,1902,0,3268.0,3266.0,1402.0,1404.0,1903.0,1901.0
3273,1399,1903,0,3270.0,3268.0,1398.0,1402.0,1902.0,1903.0
3271,1395,1903,0,3273.0,3270.0,1399.0,1398.0,1903.0,1902.0
3272,1398,1906,0,3271.0,3273.0,1395.0,1399.0,1903.0,1903.0
3269,1396,1909,0,3272.0,3271.0,1398.0,1395.0,1906.0,1903.0
3273,1391,1910,0,3269.0,3272.0,1396.0,1398.0,1909.0,1906.0
3276,1392,1907,0,3273.0,3269.0,1391.0,1396.0,1910.0,1909.0
3276,1393,1904,0,3276.0,3273.0,1392.0,1391.0,1907.0,1910.0
3280,1389,1903,0,3276.0,3276.0,1393.0,1392.0,1904.0,1907.0
3279,1387,1906,0,3280.0,3276.0,1389.0,1393.0,1903.0,1904.0
3285,1387,1906,0,3279.0,3280.0,1387.0,1389.0,1906.0,1903.0
3284,1390,1909,0,3285.0,3279.0,1387.0,1387.0,1906.0,1906.0
3282,1390,1907,0,3284.0,3285.0,1390.0,1387.0,1909.0,1906.0
3275,1387,1905,0,3282.0,3284.0,1390.0,1390.0,1907.0,1909.0
3273,1388,1902,0,3275.0,3282.0,1387.0,1390.0,1905.0,1907.0
3271,1388,1902,0,3273.0,3275.0,1388.0,1387.0,1902.0,1905.0
3273,1388,1902,0,3271.0,3273.0,1388.0,1388.0,1902.0,1902.0
3272,1389,1898,0,3273.0,3271.0,1388.0,1388.0,1902.0,1902.0
3271,1391,1899,0,3272.0,3273.0,1389.0,1388.0,1898.0,1902.0
3268,1392,1900,0,3271.0,3272.0,1391.0,1389.0,1899.0,1898.0
3267,1393,1902,0,3268.0,3271.0,1392.0,1391.0,1900.0,1899.0
3270,1400,1905,0,3267.0,3268.0,1393.0,1392.0,1902.0,1900.0
3272,1399,1906,0,3270.0,3267.0,1400.0,1393.0,1905.0,1902.0
3273,1398,1909,0,3272.0,3270.0,1399.0,1400.0,1906.0,1905.0
3278,1398,1905,0,3273.0,3272.0,1398.0,1399.0,1909.0,1906.0
3278,1398,1905,0,3278.0,3273.0,1398.0,1398.0,1905.0,1909.0
3278,1398,1904,0,3278.0,3278.0,1398.0,1398.0,1905.0,1905.0
3282,1396,1903,0,3278.0,3278.0,1398.0,1398.0,1904.0,1905.0
3281,1393,1905,0,3282.0,3278.0,1396.0,1398.0,1903.0,1904.0
3280,1393,1902,0,3281.0,3282.0,1393.0,1396.0,1905.0,1903.0
3279,1392,1905,0,3280.0,3281.0,1393.0,1393.0,1902.0,1905.0
3278,1395,1899,0,3279.0,3280.0,1392.0,1393.0,1905.0,1902.0
3277,1396,1904,0,3278.0,3279.0,1395.0,1392.0,1899.0,1905.0
3278,1396,1906,0,3277.0,3278.0,1396.0,1395.0,1904.0,1899.0
3279,1397,1905,0,3278.0,3277.0,1396.0,1396.0,1906.0,1904.0
3277,1397,1904,0,3279.0,3278.0,1397.0,1396.0,1905.0,1906.0
3277,1396,1908,0,3277.0,3279.0,1397.0,1397.0,1904.0,1905.0
3279,1394,1903,0,3277.0,3277.0,1396.0,1397.0,1908.0,1904.0
3279,1394,1901,0,3279.0,3277.0,1394.0,1396.0,1903.0,1908.0
3279,1391,1903,0,3279.0,3279.0,1394.0,1394.0,1901.0,1903.0
3278,1389,1904,0,3279.0,3279.0,1391.0,1394.0,1903.0,1901.0
3279,1391,1903,0,3278.0,3279.0,1389.0,1391.0,1904.0,1903.0
3276,1391,1903,0,3279.0,3278.0,1391.0,1389.0,1903.0,1904.0
3278,1393,1901,0,3276.0,3279.0,1391.0,1391.0,1903.0,1903.0
3276,1394,1903,0,3278.0,3276.0,1393.0,1391.0,1901.0,1903.0
3277,1393,1905,0,3276.0,3278.0,1394.0,1393.0,1903.0,1901.0
3280,1393,1903,0,3277.0,3276.0,1393.0,1394.0,1905.0,1903.0
3280,1394,1904,0,3280.0,3277.0,1393.0,1393.0,1903.0,1905.0
3280,1396,1902,0,3280.0,3280.0,1394.0,1393.0,1904.0,1903.0
3281,1396,1902,0,3280.0,3280.0,1396.0,1394.0,1902.0,1904.0
3277,1393,1902,0,3281.0,3280.0,1396.0,1396.0,1902.0,1902.0
3280,1393,1901,0,3277.0,3281.0,1393.0,1396.0,1902.0,1902.0
3276,1389,1901,0,3280.0,3277.0,1393.0,1393.0,1901.0,1902.0
3276,1392,1904,0,3276.0,3280.0,1389.0,1393.0,1901.0,1901.0
3275,1391,1907,0,3276.0,3276.0,1392.0,1389.0,1904.0,1901.0
3275,1391,1904,0,3275.0,3276.0,1391.0,1392.0,1907.0,1904.0
3275,1387,1906,0,3275.0,3275.0,1391.0,1391.0,1904.0,1907.0
3275,1388,1903,0,3275.0,3275.0,1387.0,1391.0,1906.0,1904.0
3275,1388,1903,0,3275.0,3275.0,1388.0,1387.0,1903.0,1906.0
3276,1388,1900,0,3275.0,3275.0,1388.0,1388.0,1903.0,1903.0
3274,1387,1904,0,3276.0,3275.0,1388.0,1388.0,1900.0,1903.0
3273,1390,1903,0,3274.0,3276.0,1387.0,1388.0,1904.0,1900.0
3273,1392,1902,0,3273.0,3274.0,1390.0,1387.0,1903.0,1904.0
3270,1392,1901,0,3273.0,3273.0,1392.0,1390.0,1902.0,1903.0
3270,1389,1907,0,3270.0,3273.0,1392.0,1392.0,1901.0,1902.0
3270,1387,1908,0,3270.0,3270.0,1389.0,1392.0,1907.0,1901.0
3273,1389,1910,0,3270.0,3270.0,1387.0,1389.0,1908.0,1907.0
3272,1391,1911,0,3273.0,3270.0,1389.0,1387.0,1910.0,1908.0
3276,1392,1912,0,3272.0,3273.0,1391.0,1389.0,1911.0,1910.0
3276,1392,1913,0,3276.0,3272.0,1392.0,1391.0,1912.0,1911.0
3278,1391,1913,0,3276.0,3276.0,1392.0,1392.0,1913.0,1912.0
3279,1392,1912,0,3278.0,3276.0,1391.0,1392.0,1913.0,1913.0
3282,1392,1915,0,3279.0,3278.0,1392.0,1391.0,1912.0,1913.0
3282,1397,1914,0,3282.0,3279.0,1392.0,1392.0,1915.0,1912.0
3282,1391,1916,0,3282.0,3282.0,1397.0,1392.0,1914.0,1915.0
3281,1388,1919,0,3282.0,3282.0,1391.0,1397.0,1916.0,1914.0
3281,1385,1920,0,3281.0,3282.0,1388.0,1391.0,1919.0,1916.0
3281,1384,1920,0,3281.0,3281.0,1385.0,1388.0,1920.0,1919.0
3280,1382,1924,0,3281.0,3281.0,1384.0,1385.0,1920.0,1920.0
3274,1380,1918,0,3280.0,3281.0,1382.0,1384.0,1924.0,1920.0
3275,1379,1916,0,3274.0,3280.0,1380.0,1382.0,1918.0,1924.0
3273,1378,1910,0,3275.0,3274.0,1379.0,1380.0,1916.0,1918.0
3275,1377,1909,0,3273.0,3275.0,1378.0,1379.0,1910.0,1916.0
3275,1382,1906,0,3275.0,3273.0,1377.0,1378.0,1909.0,1910.0
3274,1382,1906,0,3275.0,3275.0,1382.0,1377.0,1906.0,1909.0
3273,1382,1906,0,3274.0,3275.0,1382.0,1382.0,1906.0,1906.0
3270,1384,1907,0,3273.0,3274.0,1382.0,1382.0,1906.0,1906.0
3270,1381,1909,0,3270.0,3273.0,1384.0,1382.0,1907.0,1906.0
3270,1381,1906,0,3270.0,3270.0,1381.0,1384.0,1909.0,1907.0
3271,1381,1904,0,3270.0,3270.0,1381.0,1381.0,1906.0,1909.0
3271,1379,1907,0,3271.0,3270.0,1381.0,1381.0,1904.0,1906.0
3270,1380,1909,0,3271.0,3271.0,1379.0,1381.0,1907.0,1904.0
3272,1380,1911,0,3270.0,3271.0,1380.0,1379.0,1909.0,1907.0
3273,1383,1911,0,3272.0,3270.0,1380.0,1380.0,1911.0,1909.0
3281,1384,1912,0,3273.0,3272.0,1383.0,1380.0,1911.0,1911.0
3283,1390,1909,0,3281.0,3273.0,1384.0,1383.0,1912.0,1911.0
3283,1392,1907,0,3283.0,3281.0,1390.0,1384.0,1909.0,1912.0
3283,1393,1906,0,3283.0,3283.0,1392.0,1390.0,1907.0,1909.0
3282,1393,1909,0,3283.0,3283.0,1393.0,1392.0,1906.0,1907.0
3279,1393,1910,0,3282.0,3283.0,1393.0,1393.0,1909.0,1906.0
3277,1396,1908,0,3279.0,3282.0,1393.0,1393.0,1910.0,1909.0
3276,1392,1906,0,3277.0,3279.0,1396.0,1393.0,1908.0,1910.0
3273,1390,1908,0,3276.0,3277.0,1392.0,1396.0,1906.0,1908.0
3273,1390,1911,0,3273.0,3276.0,1390.0,1392.0,1908.0,1906.0
3274,1387,1909,0,3273.0,3273.0,1390.0,1390.0,1911.0,1908.0
3275,1388,1909,0,3274.0,3273.0,1387.0,1390.0,1909.0,1911.0
3277,1385,1909,0,3275.0,3274.0,1388.0,1387.0,1909.0,1909.0
3278,1382,1907,0,3277.0,3275.0,1385.0,1388.0,1909.0,1909.0
3276,1381,1908,0,3278.0,3277.0,1382.0,1385.0,1907.0,1909.0
3276,1383,1907,0,3276.0,3278.0,1381.0,1382.0,1908.0,1907.0
3272,1384,1906,0,3276.0,3276.0,1383.0,1381.0,1907.0,1908.0
3271,1382,1905,0,3272.0,3276.0,1384.0,1383.0,1906.0,1907.0
3271,1382,1903,0,3271.0,3272.0,1382.0,1384.0,1905.0,1906.0
3266,1385,1905,0,3271.0,3271.0,1382.0,1382.0,1903.0,1905.0
3267,1386,1909,0,3266.0,3271.0,1385.0,1382.0,1905.0,1903.0
3267,1387,1911,0,3267.0,3266.0,1386.0,1385.0,1909.0,1905.0
3267,1390,1912,0,3267.0,3267.0,1387.0,1386.0,1911.0,1909.0
3270,1392,1911,0,3267.0,3267.0,1390.0,1387.0,1912.0,1911.0
3270,1388,1912,0,3270.0,3267.0,1392.0,1390.0,1911.0,1912.0
3268,1388,1912,0,3270.0,3270.0,1388.0,1392.0,1912.0,1911.0
3274,1388,1914,0,3268.0,3270.0,1388.0,1388.0,1912.0,1912.0
3277,1387,1916,0,3274.0,3268.0,1388.0,1388.0,1914.0,1912.0
3275,1388,1916,0,3277.0,3274.0,1387.0,1388.0,1916.0,1914.0
3278,1385,1916,0,3275.0,3277.0,1388.0,1387.0,1916.0,1916.0
3279,1381,1918,0,3278.0,3275.0,1385.0,1388.0,1916.0,1916.0
3279,1379,1918,0,3279.0,3278.0,1381.0,1385.0,1918.0,1916.0
3276,1379,1919,0,3279.0,3279.0,1379.0,1381.0,1918.0,1918.0
3272,1377,1922,0,3276.0,3279.0,1379.0,1379.0,1919.0,1918.0
3275,1377,1918,0,3272.0,3276.0,1377.0,1379.0,1922.0,1919.0
3273,1375,1920,0,3275.0,3272.0,1377.0,1377.0,1918.0,1922.0
3270,1374,1919,0,3273.0,3275.0,1375.0,1377.0,1920.0,1918.0
3272,1373,1918,0,3270.0,3273.0,1374.0,1375.0,1919.0,1920.0
3271,1376,1920,0,3272.0,3270.0,1373.0,1374.0,1918.0,1919.0
3268,1379,1916,0,3271.0,3272.0,1376.0,1373.0,1920.0,1918.0
3267,1382,1914,0,3268.0,3271.0,1379.0,1376.0,1916.0,1920.0
3266,1379,1918,0,3267.0,3268.0,1382.0,1379.0,1914.0,1916.0
3269,1379,1914,0,3266.0,3267.0,1379.0,1382.0,1918.0,1914.0
3265,1381,1916,0,3269.0,3266.0,1379.0,1379.0,1914.0,1918.0
3268,1380,1913,0,3265.0,3269.0,1381.0,1379.0,1916.0,1914.0
3267,1380,1911,0,3268.0,3265.0,1380.0,1381.0,1913.0,1916.0
3268,1381,1913,0,3267.0,3268.0,1380.0,1380.0,1911.0,1913.0
3271,1378,1913,0,3268.0,3267.0,1381.0,1380.0,1913.0,1911.0
3271,1381,1913,0,3271.0,3268.0,1378.0,1381.0,1913.0,1913.0
3276,1378,1911,0,3271.0,3271.0,1381.0,1378.0,1913.0,1913.0
3279,1379,1909,0,3276.0,3271.0,1378.0,1381.0,1911.0,1913.0
3279,1377,1909,0,3279.0,3276.0,1379.0,1378.0,1909.0,1911.0
3281,1378,1907,0,3279.0,3279.0,1377.0,1379.0,1909.0,1909.0
3284,1379,1909,0,3281.0,3279.0,1378.0,1377.0,1907.0,1909.0
3286,1377,1909,0,3284.0,3281.0,1379.0,1378.0,1909.0,1907.0
3289,1377,1907,0,3286.0,3284.0,1377.0,1379.0,1909.0,1909.0
3285,1377,1907,0,3289.0,3286.0,1377.0,1377.0,1907.0,1909.0
3281,1378,1910,0,3285.0,3289.0,1377.0,1377.0,1907.0,1907.0
3281,1382,1908,0,3281.0,3285.0,1378.0,1377.0,1910.0,1907.0
3278,1380,1908,0,3281.0,3281.0,1382.0,1378.0,1908.0,1910.0
3279,1378,1909,0,3278.0,3281.0,1380.0,1382.0,1908.0,1908.0
3279,1380,1911,0,3279.0,3278.0,1378.0,1380.0,1909.0,1908.0
3277,1380,1908,0,3279.0,3279.0,1380.0,1378.0,1911.0,1909.0
3275,1379,1908,0,3277.0,3279.0,1380.0,1380.0,1908.0,1911.0
3272,1381,1907,0,3275.0,3277.0,1379.0,1380.0,1908.0,1908.0
3270,1381,1909,0,3272.0,3275.0,1381.0,1379.0,1907.0,1908.0
3271,1384,1912,0,3270.0,3272.0,1381.0,1381.0,1909.0,1907.0
3270,1387,1910,0,3271.0,3270.0,1384.0,1381.0,1912.0,1909.0
3270,1385,1909,0,3270.0,3271.0,1387.0,1384.0,1910.0,1912.0
3272,1381,1906,0,3270.0,3270.0,1385.0,1387.0,1909.0,1910.0
3272,1378,1904,0,3272.0,3270.0,1381.0,1385.0,1906.0,1909.0
3272,1382,1910,0,3272.0,3272.0,1378.0,1381.0,1904.0,1906.0
3276,1385,1920,0,3272.0,3272.0,1382.0,1378.0,1910.0,1904.0
3276,1385,1922,0,3276.0,3272.0,1385.0,1382.0,1920.0,1910.0
3277,1386,1919,0,3276.0,3276.0,1385.0,1385.0,1922.0,1920.0
3276,1381,1919,0,3277.0,3276.0,1386.0,1385.0,1919.0,1922.0
3277,1379,1919,0,3276.0,3277.0,1381.0,1386.0,1919.0,1919.0
3278,1380,1923,0,3277.0,3276.0,1379.0,1381.0,1919.0,1919.0
3279,1380,1921,0,3278.0,3277.0,1380.0,1379.0,1923.0,1919.0
3278,1379,1918,0,3279.0,3278.0,1380.0,1380.0,1921.0,1923.0
3278,1378,1919,0,3278.0,3279.0,1379.0,1380.0,1918.0,1921.0
3284,1380,1919,0,3278.0,3278.0,1378.0,1379.0,1919.0,1918.0
3280,1379,1916,0,3284.0,3278.0,1380.0,1378.0,1919.0,1919.0
3279,1380,1919,0,3280.0,3284.0,1379.0,1380.0,1916.0,1919.0
3274,1377,1917,0,3279.0,3280.0,1380.0,1379.0,1919.0,1916.0
3272,1375,1916,0,3274.0,3279.0,1377.0,1380.0,1917.0,1919.0
3269,1374,1915,0,3272.0,3274.0,1375.0,1377.0,1916.0,1917.0
3266,1375,1912,0,3269.0,3272.0,1374.0,1375.0,1915.0,1916.0
3268,1376,1913,0,3266.0,3269.0,1375.0,1374.0,1912.0,1915.0
3267,1371,1913,0,3268.0,3266.0,1376.0,1375.0,1913.0,1912.0
3266,1373,1916,0,3267.0,3268.0,1371.0,1376.0,1913.0,1913.0
3262,1373,1918,0,3266.0,3267.0,1373.0,1371.0,1916.0,1913.0
3262,1376,1919,0,3262.0,3266.0,1373.0,1373.0,1918.0,1916.0
3263,1377,1919,0,3262.0,3262.0,1376.0,1373.0,1919.0,1918.0
3271,1374,1922,0,3263.0,3262.0,1377.0,1376.0,1919.0,1919.0
3272,1376,1921,0,3271.0,3263.0,1374.0,1377.0,1922.0,1919.0
3273,1377,1921,0,3272.0,3271.0,1376.0,1374.0,1921.0,1922.0
3276,1376,1925,0,3273.0,3272.0,1377.0,1376.0,1921.0,1921.0
3277,1375,1926,0,3276.0,3273.0,1376.0,1377.0,1925.0,1921.0
3275,1378,1924,0,3277.0,3276.0,1375.0,1376.0,1926.0,1925.0
3277,1377,1927,0,3275.0,3277.0,1378.0,1375.0,1924.0,1926.0
3277,1374,1926,0,3277.0,3275.0,1377.0,1378.0,1927.0,1924.0
3277,1367,1923,0,3277.0,3277.0,1374.0,1377.0,1926.0,1927.0
3276,1364,1922,0,3277.0,3277.0,1367.0,1374.0,1923.0,1926.0
3275,1362,1920,0,3276.0,3277.0,1364.0,1367.0,1922.0,1923.0
3273,1360,1918,0,3275.0,3276.0,1362.0,1364.0,1920.0,1922.0
3277,1364,1917,0,3273.0,3275.0,1360.0,1362.0,1918.0,1920.0
3279,1366,1912,0,3277.0,3273.0,1364.0,1360.0,1917.0,1918.0
3278,1370,1912,0,3279.0,3277.0,1366.0,1364.0,1912.0,1917.0
3280,1376,1914,0,3278.0,3279.0,1370.0,1366.0,1912.0,1912.0
3281,1376,1909,0,3280.0,3278.0,1376.0,1370.0,1914.0,1912.0
3281,1379,1909,0,3281.0,3280.0,1376.0,1376.0,1909.0,1914.0
3276,1380,1906,0,3281.0,3281.0,1379.0,1376.0,1909.0,1909.0
3276,1382,1904,0,3276.0,3281.0,1380.0,1379.0,1906.0,1909.0
3273,1381,1902,0,3276.0,3276.0,1382.0,1380.0,1904.0,1906.0
3273,1381,1902,0,3273.0,3276.0,1381.0,1382.0,1902.0,1904.0
3270,1380,1900,0,3273.0,3273.0,1381.0,1381.0,1902.0,1902.0
3272,1378,1901,0,3270.0,3273.0,1380.0,1381.0,1900.0,1902.0
3271,1373,1903,0,3272.0,3270.0,1378.0,1380.0,1901.0,1900.0
3273,1373,1907,0,3271.0,3272.0,1373.0,1378.0,1903.0,1901.0
3274,1370,1908,0,3273.0,3271.0,1373.0,1373.0,1907.0,1903.0
3277,1370,1912,0,3274.0,3273.0,1370.0,1373.0,1908.0,1907.0
3278,1370,1912,0,3277.0,3274.0,1370.0,1370.0,1912.0,1908.0
3284,1372,1914,0,3278.0,3277.0,1370.0,1370.0,1912.0,1912.0
3285,1372,1916,0,3284.0,3278.0,1372.0,1370.0,1914.0,1912.0
3284,1372,1916,0,3285.0,3284.0,1372.0,1372.0,1916.0,1914.0
3285,1372,1918,0,3284.0,3285.0,1372.0,1372.0,1916.0,1916.0
3284,1372,1912,0,3285.0,3284.0,1372.0,1372.0,1918.0,1916.0
3287,1372,1913,0,3284.0,3285.0,1372.0,1372.0,1912.0,1918.0
3285,1374,1914,0,3287.0,3284.0,1372.0,1372.0,1913.0,1912.0
3285,1375,1917,0,3285.0,3287.0,1374.0,1372.0,1914.0,1913.0
3281,1372,1919,0,3285.0,3285.0,1375.0,1374.0,1917.0,1914.0
3281,1372,1915,0,3281.0,3285.0,1372.0,1375.0,1919.0,1917.0
3278,1373,1917,0,3281.0,3281.0,1372.0,1372.0,1915.0,1919.0
3280,1372,1916,0,3278.0,3281.0,1373.0,1372.0,1917.0,1915.0
3275,1372,1917,0,3280.0,3278.0,1372.0,1373.0,1916.0,1917.0
3271,1370,1917,0,3275.0,3280.0,1372.0,1372.0,1917.0,1916.0
3269,1371,1921,0,3271.0,3275.0,1370.0,1372.0,1917.0,1917.0
3273,1371,1922,0,3269.0,3271.0,1371.0,1370.0,1921.0,1917.0
3272,1371,1919,0,3273.0,3269.0,1371.0,1371.0,1922.0,1921.0
3270,1369,1919,0,3272.0,3273.0,1371.0,1371.0,1919.0,1922.0
3275,1371,1921,0,3270.0,3272.0,1369.0,1371.0,1919.0,1919.0
3274,1371,1917,0,3275.0,3270.0,1371.0,1369.0,1921.0,1919.0
3275,1372,1916,0,3274.0,3275.0,1371.0,1371.0,1917.0,1921.0
3277,1374,1917,0,3275.0,3274.0,1372.0,1371.0,1916.0,1917.0
3279,1377,1912,0,3277.0,3275.0,1374.0,1372.0,1917.0,1916.0
3278,1378,1910,0,3279.0,3277.0,1377.0,1374.0,1912.0,1917.0
3277,1378,1912,0,3278.0,3279.0,1378.0,1377.0,1910.0,1912.0
3276,1376,1907,0,3277.0,3278.0,1378.0,1378.0,1912.0,1910.0
3274,1377,1914,0,3276.0,3277.0,1376.0,1378.0,1907.0,1912.0
3276,1375,1914,0,3274.0,3276.0,1377.0,1376.0,1914.0,1907.0
3275,1375,1918,0,3276.0,3274.0,1375.0,1377.0,1914.0,1914.0
3277,1376,1916,0,3275.0,3276.0,1375.0,1375.0,1918.0,1914.0
3281,1378,1916,0,3277.0,3275.0,1376.0,1375.0,1916.0,1918.0
3278,1378,1913,0,3281.0,3277.0,1378.0,1376.0,1916.0,1916.0
3277,1376,1913,0,3278.0,3281.0,1378.0,1378.0,1913.0,1916.0
3276,1374,1914,0,3277.0,3278.0,1376.0,1378.0,1913.0,1913.0
3279,1377,1915,0,3276.0,3277.0,1374.0,1376.0,1914.0,1913.0
3279,1379,1913,0,3279.0,3276.0,1377.0,1374.0,1915.0,1914.0
3277,1379,1914,0,3279.0,3279.0,1379.0,1377.0,1913.0,1915.0
3279,1379,1916,0,3277.0,3279.0,1379.0,1379.0,1914.0,1913.0
3277,1382,1915,0,3279.0,3277.0,1379.0,1379.0,1916.0,1914.0
3271,1380,1913,0,3277.0,3279.0,1382.0,1379.0,1915.0,1916.0
3269,1375,1912,0,3271.0,3277.0,1380.0,1382.0,1913.0,1915.0
3266,1376,1913,0,3269.0,3271.0,1375.0,1380.0,1912.0,1913.0
3268,1379,1914,0,3266.0,3269.0,1376.0,1375.0,1913.0,1912.0
3269,1379,1915,0,3268.0,3266.0,1379.0,1376.0,1914.0,1913.0
3275,1377,1912,0,3269.0,3268.0,1379.0,1379.0,1915.0,1914.0
3277,1377,1914,0,3275.0,3269.0,1377.0,1379.0,1912.0,1915.0
3276,1378,1913,0,3277.0,3275.0,1377.0,1377.0,1914.0,1912.0
3280,1378,1916,0,3276.0,3277.0,1378.0,1377.0,1913.0,1914.0
3281,1380,1918,0,3280.0,3276.0,1378.0,1378.0,1916.0,1913.0
3283,1377,1914,0,3281.0,3280.0,1380.0,1378.0,1918.0,1916.0
3282,1377,1915,0,3283.0,3281.0,1377.0,1380.0,1914.0,1918.0
3279,1374,1916,0,3282.0,3283.0,1377.0,1377.0,1915.0,1914.0
3281,1371,1914,0,3279.0,3282.0,1374.0,1377.0,1916.0,1915.0
3282,1374,1914,0,3281.0,3279.0,1371.0,1374.0,1914.0,1916.0
3281,1375,1914,0,3282.0,3281.0,1374.0,1371.0,1914.0,1914.0
3280,1375,1915,0,3281.0,3282.0,1375.0,1374.0,1914.0,1914.0
3277,1372,1913,0,3280.0,3281.0,1375.0,1375.0,1915.0,1914.0
3277,1370,1915,0,3277.0,3280.0,1372.0,1375.0,1913.0,1915.0
3274,1367,1916,0,3277.0,3277.0,1370.0,1372.0,1915.0,1913.0
3274,1370,1919,0,3274.0,3277.0,1367.0,1370.0,1916.0,1915.0
3274,1371,1924,0,3274.0,3274.0,1370.0,1367.0,1919.0,1916.0
3273,1372,1921,0,3274.0,3274.0,1371.0,1370.0,1924.0,1919.0
3267,1375,1920,0,3273.0,3274.0,1372.0,1371.0,1921.0,1924.0
3266,1372,1918,0,3267.0,3273.0,1375.0,1372.0,1920.0,1921.0
3267,1371,1918,0,3266.0,3267.0,1372.0,1375.0,1918.0,1920.0
3270,1373,1919,0,3267.0,3266.0,1371.0,1372.0,1918.0,1918.0
3267,1374,1920,0,3270.0,3267.0,1373.0,1371.0,1919.0,1918.0
3270,1373,1919,0,3267.0,3270.0,1374.0,1373.0,1920.0,1919.0
3269,1373,1921,0,3270.0,3267.0,1373.0,1374.0,1919.0,1920.0
3269,1375,1919,0,3269.0,3270.0,1373.0,1373.0,1921.0,1919.0
3273,1380,1923,0,3269.0,3269.0,1375.0,1373.0,1919.0,1921.0
3274,1379,1920,0,3273.0,3269.0,1380.0,1375.0,1923.0,1919.0
3277,1383,1921,0,3274.0,3273.0,1379.0,1380.0,1920.0,1923.0
3278,1382,1922,0,3277.0,3274.0,1383.0,1379.0,1921.0,1920.0
3276,1383,1920,0,3278.0,3277.0,1382.0,1383.0,1922.0,1921.0
3275,1383,1916,0,3276.0,3278.0,1383.0,1382.0,1920.0,1922.0
3277,1383,1918,0,3275.0,3276.0,1383.0,1383.0,1916.0,1920.0
3276,1382,1919,0,3277.0,3275.0,1383.0,1383.0,1918.0,1916.0
3276,1382,1921,0,3276.0,3277.0,1382.0,1383.0,1919.0,1918.0
3276,1381,1919,0,3276.0,3276.0,1382.0,1382.0,1921.0,1919.0
3278,1380,1918,0,3276.0,3276.0,1381.0,1382.0,1919.0,1921.0
3280,1377,1918,0,3278.0,3276.0,1380.0,1381.0,1918.0,1919.0
3278,1375,1915,0,3280.0,3278.0,1377.0,1380.0,1918.0,1918.0
3279,1374,1914,0,3278.0,3280.0,1375.0,1377.0,1915.0,1918.0
3278,1374,1911,0,3279.0,3278.0,1374.0,1375.0,1914.0,1915.0
3276,1377,1912,0,3278.0,3279.0,1374.0,1374.0,1911.0,1914.0
3274,1381,1908,0,3276.0,3278.0,1377.0,1374.0,1912.0,1911.0
3272,1384,1910,0,3274.0,3276.0,1381.0,1377.0,1908.0,1912.0
3271,1380,1908,0,3272.0,3274.0,1384.0,1381.0,1910.0,1908.0
3271,1383,1911,0,3271.0,3272.0,1380.0,1384.0,1908.0,1910.0
3272,1386,1909,0,3271.0,3271.0,1383.0,1380.0,1911.0,1908.0
3275,1388,1908,0,3272.0,3271.0,1386.0,1383.0,1909.0,1911.0
3276,1387,1910,0,3275.0,3272.0,1388.0,1386.0,1908.0,1909.0
3277,1385,1911,0,3276.0,3275.0,1387.0,1388.0,1910.0,1908.0
3278,1386,1912,0,3277.0,3276.0,1385.0,1387.0,1911.0,1910.0
3279,1387,1916,0,3278.0,3277.0,1386.0,1385.0,1912.0,1911.0
3280,1386,1918,0,3279.0,3278.0,1387.0,1386.0,1916.0,1912.0
3282,1382,1919,0,3280.0,3279.0,1386.0,1387.0,1918.0,1916.0
3279,1376,1920,0,3282.0,3280.0,1382.0,1386.0,1919.0,1918.0
3280,1371,1927,0,3279.0,3282.0,1376.0,1382.0,1920.0,1919.0
3277,1370,1928,0,3280.0,3279.0,1371.0,1376.0,1927.0,1920.0
3277,1371,1923,0,3277.0,3280.0,1370.0,1371.0,1928.0,1927.0
3276,1371,1920,0,3277.0,3277.0,1371.0,1370.0,1923.0,1928.0
3276,1373,1916,0,3276.0,3277.0,1371.0,1371.0,1920.0,1923.0
3279,1374,1912,0,3276.0,3276.0,1373.0,1371.0,1916.0,1920.0
3282,1378,1912,0,3279.0,3276.0,1374.0,1373.0,1912.0,1916.0
3283,1380,1913,0,3282.0,3279.0,1378.0,1374.0,1912.0,1912.0
3282,1380,1911,0,3283.0,3282.0,1380.0,1378.0,1913.0,1912.0
3279,1380,1912,0,3282.0,3283.0,1380.0,1380.0,1911.0,1913.0
3277,1379,1910,0,3279.0,3282.0,1380.0,1380.0,1912.0,1911.0
3272,1377,1908,0,3277.0,3279.0,1379.0,1380.0,1910.0,1912.0
3271,1378,1908,0,3272.0,3277.0,1377.0,1379.0,1908.0,1910.0
3271,1379,1915,0,3271.0,3272.0,1378.0,1377.0,1908.0,1908.0
3270,1377,1914,0,3271.0,3271.0,1379.0,1378.0,1915.0,1908.0
3272,1376,1915,0,3270.0,3271.0,1377.0,1379.0,1914.0,1915.0
3273,1377,1912,0,3272.0,3270.0,1376.0,1377.0,1915.0,1914.0
3277,1377,1913,0,3273.0,3272.0,1377.0,1376.0,1912.0,1915.0
3281,1378,1918,0,3277.0,3273.0,1377.0,1377.0,1913.0,1912.0
3280,1377,1920,0,3281.0,3277.0,1378.0,1377.0,1918.0,1913.0
3282,1379,1918,0,3280.0,3281.0,1377.0,1378.0,1920.0,1918.0
3280,1380,1917,0,3282.0,3280.0,1379.0,1377.0,1918.0,1920.0
3280,1377,1915,0,3280.0,3282.0,1380.0,1379.0,1917.0,1918.0
3280,1374,1915,0,3280.0,3280.0,1377.0,1380.0,1915.0,1917.0
3276,1375,1916,0,3280.0,3280.0,1374.0,1377.0,1915.0,1915.0
3273,1379,1918,0,3276.0,3280.0,1375.0,1374.0,1916.0,1915.0
3273,1381,1920,0,3273.0,3276.0,1379.0,1375.0,1918.0,1916.0
3273,1382,1922,0,3273.0,3273.0,1381.0,1379.0,1920.0,1918.0
3274,1382,1921,0,3273.0,3273.0,1382.0,1381.0,1922.0,1920.0
3273,1381,1923,0,3274.0,3273.0,1382.0,1382.0,1921.0,1922.0
3269,1380,1921,0,3273.0,3274.0,1381.0,1382.0,1923.0,1921.0
3268,1379,1918,0,3269.0,3273.0,1380.0,1381.0,1921.0,1923.0
3271,1376,1919,0,3268.0,3269.0,1379.0,1380.0,1918.0,1921.0
3267,1377,1920,0,3271.0,3268.0,1376.0,1379.0,1919.0,1918.0
3267,1380,1919,0,3267.0,3271.0,1377.0,1376.0,1920.0,1919.0
3270,1378,1920,0,3267.0,3267.0,1380.0,1377.0,1919.0,1920.0
3268,1380,1916,0,3270.0,3267.0,1378.0,1380.0,1920.0,1919.0
3267,1379,1918,0,3268.0,3270.0,1380.0,1378.0,1916.0,1920.0
3267,1376,1921,0,3267.0,3268.0,1379.0,1380.0,1918.0,1916.0
3270,1374,1922,0,3267.0,3267.0,1376.0,1379.0,1921.0,1918.0
3275,1375,1922,0,3270.0,3267.0,1374.0,1376.0,1922.0,1921.0
3274,1380,1920,0,3275.0,3270.0,1375.0,1374.0,1922.0,1922.0
3273,1379,1918,0,3274.0,3275.0,1380.0,1375.0,1920.0,1922.0
3274,1379,1917,0,3273.0,3274.0,1379.0,1380.0,1918.0,1920.0
3275,1379,1919,0,3274.0,3273.0,1379.0,1379.0,1917.0,1918.0
3274,1379,1921,0,3275.0,3274.0,1379.0,1379.0,1919.0,1917.0
3275,1377,1923,0,3274.0,3275.0,1379.0,1379.0,1921.0,1919.0
3274,1382,1920,0,3275.0,3274.0,1377.0,1379.0,1923.0,1921.0
3270,1380,1922,0,3274.0,3275.0,1382.0,1377.0,1920.0,1923.0
3270,1381,1919,0,3270.0,3274.0,1380.0,1382.0,1922.0,1920.0
3269,1378,1922,0,3270.0,3270.0,1381.0,1380.0,1919.0,1922.0
3267,1378,1923,0,3269.0,3270.0,1378.0,1381.0,1922.0,1919.0
3266,1376,1919,0,3267.0,3269.0,1378.0,1378.0,1923.0,1922.0
3268,1379,1919,0,3266.0,3267.0,1376.0,1378.0,1919.0,1923.0
3269,1377,1920,0,3268.0,3266.0,1379.0,1376.0,1919.0,1919.0
3270,1376,1917,0,3269.0,3268.0,1377.0,1379.0,1920.0,1919.0
3271,1376,1918,0,3270.0,3269.0,1376.0,1377.0,1917.0,1920.0
3275,1376,1918,0,3271.0,3270.0,1376.0,1376.0,1918.0,1917.0
3273,1374,1918,0,3275.0,3271.0,1376.0,1376.0,1918.0,1918.0
3277,1373,1918,0,3273.0,3275.0,1374.0,1376.0,1918.0,1918.0
3275,1373,1915,0,3277.0,3273.0,1373.0,1374.0,1918.0,1918.0
3277,1374,1914,0,3275.0,3277.0,1373.0,1373.0,1915.0,1918.0
3278,1371,1916,0,3277.0,3275.0,1374.0,1373.0,1914.0,1915.0
3275,1372,1915,0,3278.0,3277.0,1371.0,1374.0,1916.0,1914.0
3273,1374,1914,0,3275.0,3278.0,1372.0,1371.0,1915.0,1916.0
3273,1375,1916,0,3273.0,3275.0,1374.0,1372.0,1914.0,1915.0
3272,1375,1916,0,3273.0,3273.0,1375.0,1374.0,1916.0,1914.0
3273,1379,1911,0,3272.0,3273.0,1375.0,1375.0,1916.0,1916.0
3273,1380,1911,0,3273.0,3272.0,1379.0,1375.0,1911.0,1916.0
3273,1384,1912,0,3273.0,3273.0,1380.0,1379.0,1911.0,1911.0
3272,1389,1912,0,3273.0,3273.0,1384.0,1380.0,1912.0,1911.0
3272,1386,1915,0,3272.0,3273.0,1389.0,1384.0,1912.0,1912.0
3273,1387,1913,0,3272.0,3272.0,1386.0,1389.0,1915.0,1912.0
3277,1384,1913,0,3273.0,3272.0,1387.0,1386.0,1913.0,1915.0
3279,1385,1908,0,3277.0,3273.0,1384.0,1387.0,1913.0,1913.0
3279,1387,1913,0,3279.0,3277.0,1385.0,1384.0,1908.0,1913.0
3277,1386,1914,0,3279.0,3279.0,1387.0,1385.0,1913.0,1908.0
3277,1388,1916,0,3277.0,3279.0,1386.0,1387.0,1914.0,1913.0
3278,1385,1916,0,3277.0,3277.0,1388.0,1386.0,1916.0,1914.0
3279,1386,1916,0,3278.0,3277.0,1385.0,1388.0,1916.0,1916.0
3279,1389,1912,0,3279.0,3278.0,1386.0,1385.0,1916.0,1916.0
3281,1383,1913,0,3279.0,3279.0,1389.0,1386.0,1912.0,1916.0
3275,1381,1913,0,3281.0,3279.0,1383.0,1389.0,1913.0,1912.0
3271,1381,1916,0,3275.0,3281.0,1381.0,1383.0,1913.0,1913.0
3271,1380,1917,0,3271.0,3275.0,1381.0,1381.0,1916.0,1913.0
3271,1377,1917,0,3271.0,3271.0,1380.0,1381.0,1917.0,1916.0
3273,1377,1919,0,3271.0,3271.0,1377.0,1380.0,1917.0,1917.0
3269,1378,1917,0,3273.0,3271.0,1377.0,1377.0,1919.0,1917.0
3273,1379,1915,0,3269.0,3273.0,1378.0,1377.0,1917.0,1919.0
3272,1381,1915,0,3273.0,3269.0,1379.0,1378.0,1915.0,1917.0
3272,1381,1917,0,3272.0,3273.0,1381.0,1379.0,1915.0,1915.0
3272,1378,1920,0,3272.0,3272.0,1381.0,1381.0,1917.0,1915.0
3270,1379,1922,0,3272.0,3272.0,1378.0,1381.0,1920.0,1917.0
3274,1384,1917,0,3270.0,3272.0,1379.0,1378.0,1922.0,1920.0
3269,1380,1921,0,3274.0,3270.0,1384.0,1379.0,1917.0,1922.0
3265,1383,1920,0,3269.0,3274.0,1380.0,1384.0,1921.0,1917.0
3270,1384,1919,0,3265.0,3269.0,1383.0,1380.0,1920.0,1921.0
3274,1387,1923,0,3270.0,3265.0,1384.0,1383.0,1919.0,1920.0
3275,1383,1924,0,3274.0,3270.0,1387.0,1384.0,1923.0,1919.0
3271,1381,1926,0,3275.0,3274.0,1383.0,1387.0,1924.0,1923.0
3273,1377,1927,0,3271.0,3275.0,1381.0,1383.0,1926.0,1924.0
3277,1377,1924,0,3273.0,3271.0,1377.0,1381.0,1927.0,1926.0
3274,1372,1925,0,3277.0,3273.0,1377.0,1377.0,1924.0,1927.0
3272,1374,1922,0,3274.0,3277.0,1372.0,1377.0,1925.0,1924.0
3272,1371,1918,0,3272.0,3274.0,1374.0,1372.0,1922.0,1925.0
3269,1371,1915,0,3272.0,3272.0,1371.0,1374.0,1918.0,1922.0
3269,1374,1915,0,3269.0,3272.0,1371.0,1371.0,1915.0,1918.0
3269,1376,1921,0,3269.0,3269.0,1374.0,1371.0,1915.0,1915.0
3269,1377,1918,0,3269.0,3269.0,1376.0,1374.0,1921.0,1915.0
3270,1379,1918,0,3269.0,3269.0,1377.0,1376.0,1918.0,1921.0
3269,1382,1915,0,3270.0,3269.0,1379.0,1377.0,1918.0,1918.0
3268,1381,1917,0,3269.0,3270.0,1382.0,1379.0,1915.0,1918.0
3271,1381,1916,0,3268.0,3269.0,1381.0,1382.0,1917.0,1915.0
3271,1386,1920,0,3271.0,3268.0,1381.0,1381.0,1916.0,1917.0
3273,1383,1917,0,3271.0,3271.0,1386.0,1381.0,1920.0,1916.0
3273,1385,1917,0,3273.0,3271.0,1383.0,1386.0,1917.0,1920.0
3275,1387,1917,0,3273.0,3273.0,1385.0,1383.0,1917.0,1917.0
3275,1387,1919,0,3275.0,3273.0,1387.0,1385.0,1917.0,1917.0
3277,1382,1922,0,3275.0,3275.0,1387.0,1387.0,1919.0,1917.0
3280,1376,1924,0,3277.0,3275.0,1382.0,1387.0,1922.0,1919.0
3281,1374,1928,0,3280.0,3277.0,1376.0,1382.0,1924.0,1922.0
3281,1373,1926,0,3281.0,3280.0,1374.0,1376.0,1928.0,1924.0
3278,1372,1923,0,3281.0,3281.0,1373.0,1374.0,1926.0,1928.0
3277,1376,1923,0,3278.0,3281.0,1372.0,1373.0,1923.0,1926.0
3276,1376,1921,0,3277.0,3278.0,1376.0,1372.0,1923.0,1923.0
3276,1376,1914,0,3276.0,3277.0,1376.0,1376.0,1921.0,1923.0
3276,1376,1913,0,3276.0,3276.0,1376.0,1376.0,1914.0,1921.0
3274,1376,1913,0,3276.0,3276.0,1376.0,1376.0,1913.0,1914.0
3275,1379,1915,0,3274.0,3276.0,1376.0,1376.0,1913.0,1913.0
3274,1380,1910,0,3275.0,3274.0,1379.0,1376.0,1915.0,1913.0
3271,1380,1914,0,3274.0,3275.0,1380.0,1379.0,1910.0,1915.0
3270,1382,1916,0,3271.0,3274.0,1380.0,1380.0,1914.0,1910.0
3272,1380,1915,0,3270.0,3271.0,1382.0,1380.0,1916.0,1914.0
3272,1386,1914,0,3272.0,3270.0,1380.0,1382.0,1915.0,1916.0
3271,1385,1913,0,3272.0,3272.0,1386.0,1380.0,1914.0,1915.0
3276,1383,1913,0,3271.0,3272.0,1385.0,1386.0,1913.0,1914.0
3275,1383,1913,0,3276.0,3271.0,1383.0,1385.0,1913.0,1913.0
3278,1382,1919,0,3275.0,3276.0,1383.0,1383.0,1913.0,1913.0
3278,1385,1914,0,3278.0,3275.0,1382.0,1383.0,1919.0,1913.0
3280,1387,1915,0,3278.0,3278.0,1385.0,1382.0,1914.0,1919.0
3277,1384,1915,0,3280.0,3278.0,1387.0,1385.0,1915.0,1914.0
3274,1383,1913,0,3277.0,3280.0,1384.0,1387.0,1915.0,1915.0
3271,1383,1914,0,3274.0,3277.0,1383.0,1384.0,1913.0,1915.0
3270,1380,1911,0,3271.0,3274.0,1383.0,1383.0,1914.0,1913.0
3274,1379,1913,0,3270.0,3271.0,1380.0,1383.0,1911.0,1914.0
3276,1382,1914,0,3274.0,3270.0,1379.0,1380.0,1913.0,1911.0
3280,1382,1916,0,3276.0,3274.0,1382.0,1379.0,1914.0,1913.0
3276,1382,1916,0,3280.0,3276.0,1382.0,1382.0,1916.0,1914.0
3277,1382,1919,0,3276.0,3280.0,1382.0,1382.0,1916.0,1916.0
3278,1383,1919,0,3277.0,3276.0,1382.0,1382.0,1919.0,1916.0
3278,1385,1920,0,3278.0,3277.0,1383.0,1382.0,1919.0,1919.0
3278,1385,1921,0,3278.0,3278.0,1385.0,1383.0,1920.0,1919.0
3273,1382,1920,0,3278.0,3278.0,1385.0,1385.0,1921.0,1920.0
3275,1377,1921,0,3273.0,3278.0,1382.0,1385.0,1920.0,1921.0
3273,1376,1921,0,3275.0,3273.0,1377.0,1382.0,1921.0,1920.0
3272,1378,1920,0,3273.0,3275.0,1376.0,1377.0,1921.0,1921.0
3270,1375,1920,0,3272.0,3273.0,1378.0,1376.0,1920.0,1921.0
3268,1378,1920,0,3270.0,3272.0,1375.0,1378.0,1920.0,1920.0
3267,1380,1917,0,3268.0,3270.0,1378.0,1375.0,1920.0,1920.0
3268,1379,1917,0,3267.0,3268.0,1380.0,1378.0,1917.0,1920.0
3268,1379,1918,0,3268.0,3267.0,1379.0,1380.0,1917.0,1917.0
3267,1379,1920,0,3268.0,3268.0,1379.0,1379.0,1918.0,1917.0
3266,1380,1919,0,3267.0,3268.0,1379.0,1379.0,1920.0,1918.0
3265,1382,1922,0,3266.0,3267.0,1380.0,1379.0,1919.0,1920.0
3263,1386,1922,0,3265.0,3266.0,1382.0,1380.0,1922.0,1919.0
3266,1388,1920,0,3263.0,3265.0,1386.0,1382.0,1922.0,1922.0
3266,1386,1920,0,3266.0,3263.0,1388.0,1386.0,1920.0,1922.0
3268,1383,1922,0,3266.0,3266.0,1386.0,1388.0,1920.0,1920.0
3268,1385,1920,0,3268.0,3266.0,1383.0,1386.0,1922.0,1920.0
3271,1386,1922,0,3268.0,3268.0,1385.0,1383.0,1920.0,1922.0
3273,1383,1922,0,3271.0,3268.0,1386.0,1385.0,1922.0,1920.0
3273,1381,1921,0,3273.0,3271.0,1383.0,1386.0,1922.0,1922.0
3275,1379,1918,0,3273.0,3273.0,1381.0,1383.0,1921.0,1922.0
3279,1379,1916,0,3275.0,3273.0,1379.0,1381.0,1918.0,1921.0
3276,1378,1917,0,3279.0,3275.0,1379.0,1379.0,1916.0,1918.0
3274,1378,1918,0,3276.0,3279.0,1378.0,1379.0,1917.0,1916.0
3274,1381,1917,0,3274.0,3276.0,1378.0,1378.0,1918.0,1917.0
3273,1381,1915,0,3274.0,3274.0,1381.0,1378.0,1917.0,1918.0
3273,1382,1914,0,3273.0,3274.0,1381.0,1381.0,1915.0,1917.0
3271,1383,1916,0,3273.0,3273.0,1382.0,1381.0,1914.0,1915.0
3271,1383,1913,0,3271.0,3273.0,1383.0,1382.0,1916.0,1914.0
3267,1384,1910,0,3271.0,3271.0,1383.0,1383.0,1913.0,1916.0
3267,1383,1906,0,3267.0,3271.0,1384.0,1383.0,1910.0,1913.0
3265,1385,1908,0,3267.0,3267.0,1383.0,1384.0,1906.0,1910.0
3267,1384,1906,0,3265.0,3267.0,1385.0,1383.0,1908.0,1906.0
3269,1388,1906,0,3267.0,3265.0,1384.0,1385.0,1906.0,1908.0
3271,1391,1907,0,3269.0,3267.0,1388.0,1384.0,1906.0,1906.0
3272,1385,1909,0,3271.0,3269.0,1391.0,1388.0,1907.0,1906.0
3271,1389,1913,0,3272.0,3271.0,1385.0,1391.0,1909.0,1907.0
3273,1388,1913,0,3271.0,3272.0,1389.0,1385.0,1913.0,1909.0
3275,1389,1915,0,3273.0,3271.0,1388.0,1389.0,1913.0,1913.0
3275,1388,1916,0,3275.0,3273.0,1389.0,1388.0,1915.0,1913.0
3279,1384,1915,0,3275.0,3275.0,1388.0,1389.0,1916.0,1915.0
3281,1384,1917,0,3279.0,3275.0,1384.0,1388.0,1915.0,1916.0
3278,1384,1914,0,3281.0,3279.0,1384.0,1384.0,1917.0,1915.0
3278,1383,1912,0,3278.0,3281.0,1384.0,1384.0,1914.0,1917.0
3278,1383,1913,0,3278.0,3278.0,1383.0,1384.0,1912.0,1914.0
3277,1384,1914,0,3278.0,3278.0,1383.0,1383.0,1913.0,1912.0
3276,1384,1917,0,3277.0,3278.0,1384.0,1383.0,1914.0,1913.0
3273,1385,1913,0,3276.0,3277.0,1384.0,1384.0,1917.0,1914.0
3275,1386,1912,0,3273.0,3276.0,1385.0,1384.0,1913.0,1917.0
3272,1384,1908,0,3275.0,3273.0,1386.0,1385.0,1912.0,1913.0
3269,1383,1909,0,3272.0,3275.0,1384.0,1386.0,1908.0,1912.0
3268,1388,1912,0,3269.0,3272.0,1383.0,1384.0,1909.0,1908.0
3266,1387,1914,0,3268.0,3269.0,1388.0,1383.0,1912.0,1909.0
3265,1387,1913,0,3266.0,3268.0,1387.0,1388.0,1914.0,1912.0
3265,1388,1913,0,3265.0,3266.0,1387.0,1387.0,1913.0,1914.0
3265,1389,1912,0,3265.0,3265.0,1388.0,1387.0,1913.0,1913.0
3264,1393,1912,0,3265.0,3265.0,1389.0,1388.0,1912.0,1913.0
3262,1388,1911,0,3264.0,3265.0,1393.0,1389.0,1912.0,1912.0
3264,1388,1912,0,3262.0,3264.0,1388.0,1393.0,1911.0,1912.0
3267,1389,1913,0,3264.0,3262.0,1388.0,1388.0,1912.0,1911.0
3264,1389,1910,0,3267.0,3264.0,1389.0,1388.0,1913.0,1912.0
3267,1391,1913,0,3264.0,3267.0,1389.0,1389.0,1910.0,1913.0
3270,1391,1911,0,3267.0,3264.0,1391.0,1389.0,1913.0,1910.0
3272,1393,1913,0,3270.0,3267.0,1391.0,1391.0,1911.0,1913.0
3272,1391,1916,0,3272.0,3270.0,1393.0,1391.0,1913.0,1911.0
3276,1390,1922,0,3272.0,3272.0,1391.0,1393.0,1916.0,1913.0
3275,1385,1919,0,3276.0,3272.0,1390.0,1391.0,1922.0,1916.0
3277,1383,1920,0,3275.0,3276.0,1385.0,1390.0,1919.0,1922.0
3275,1384,1919,0,3277.0,3275.0,1383.0,1385.0,1920.0,1919.0
3277,1383,1917,0,3275.0,3277.0,1384.0,1383.0,1919.0,1920.0
3275,1386,1917,0,3277.0,3275.0,1383.0,1384.0,1917.0,1919.0
3275,1384,1916,0,3275.0,3277.0,1386.0,1383.0,1917.0,1917.0
3271,1386,1915,0,3275.0,3275.0,1384.0,1386.0,1916.0,1917.0
3270,1381,1915,0,3271.0,3275.0,1386.0,1384.0,1915.0,1916.0
3269,1381,1913,0,3270.0,3271.0,1381.0,1386.0,1915.0,1915.0
3268,1380,1912,0,3269.0,3270.0,1381.0,1381.0,1913.0,1915.0
3266,1382,1914,0,3268.0,3269.0,1380.0,1381.0,1912.0,1913.0
3262,1382,1911,0,3266.0,3268.0,1382.0,1380.0,1914.0,1912.0
3262,1384,1915,0,3262.0,3266.0,1382.0,1382.0,1911.0,1914.0
3265,1385,1914,0,3262.0,3262.0,1384.0,1382.0,1915.0,1911.0
3265,1385,1915,0,3265.0,3262.0,1385.0,1384.0,1914.0,1915.0
3266,1390,1913,0,3265.0,3265.0,1385.0,1385.0,1915.0,1914.0
3268,1388,1910,0,3266.0,3265.0,1390.0,1385.0,1913.0,1915.0
3270,1386,1911,0,3268.0,3266.0,1388.0,1390.0,1910.0,1913.0
3268,1391,1911,0,3270.0,3268.0,1386.0,1388.0,1911.0,1910.0
3267,1393,1911,0,3268.0,3270.0,1391.0,1386.0,1911.0,1911.0
3272,1394,1914,0,3267.0,3268.0,1393.0,1391.0,1911.0,1911.0
3270,1393,1917,0,3272.0,3267.0,1394.0,1393.0,1914.0,1911.0
3274,1390,1917,0,3270.0,3272.0,1393.0,1394.0,1917.0,1914.0
3280,1385,1917,0,3274.0,3270.0,1390.0,1393.0,1917.0,1917.0
3277,1384,1918,0,3280.0,3274.0,1385.0,1390.0,1917.0,1917.0
3276,1382,1923,0,3277.0,3280.0,1384.0,1385.0,1918.0,1917.0
3274,1383,1921,0,3276.0,3277.0,1382.0,1384.0,1923.0,1918.0
3276,1384,1922,0,3274.0,3276.0,1383.0,1382.0,1921.0,1923.0
3274,1387,1915,0,3276.0,3274.0,1384.0,1383.0,1922.0,1921.0
3275,1391,1912,0,3274.0,3276.0,1387.0,1384.0,1915.0,1922.0
3277,1390,1910,0,3275.0,3274.0,1391.0,1387.0,1912.0,1915.0
3274,1394,1907,0,3277.0,3275.0,1390.0,1391.0,1910.0,1912.0
3271,1392,1906,0,3274.0,3277.0,1394.0,1390.0,1907.0,1910.0
3268,1394,1904,0,3271.0,3274.0,1392.0,1394.0,1906.0,1907.0
3267,1394,1904,0,3268.0,3271.0,1394.0,1392.0,1904.0,1906.0
3262,1392,1903,0,3267.0,3268.0,1394.0,1394.0,1904.0,1904.0
3262,1392,1905,0,3262.0,3267.0,1392.0,1394.0,1903.0,1904.0
3264,1394,1905,0,3262.0,3262.0,1392.0,1392.0,1905.0,1903.0
3266,1392,1902,0,3264.0,3262.0,1394.0,1392.0,1905.0,1905.0
3268,1393,1902,0,3266.0,3264.0,1392.0,1394.0,1902.0,1905.0
3275,1395,1902,0,3268.0,3266.0,1393.0,1392.0,1902.0,1902.0
3278,1393,1902,0,3275.0,3268.0,1395.0,1393.0,1902.0,1902.0
3279,1393,1903,0,3278.0,3275.0,1393.0,1395.0,1902.0,1902.0
3277,1395,1906,0,3279.0,3278.0,1393.0,1393.0,1903.0,1902.0
3276,1396,1906,0,3277.0,3279.0,1395.0,1393.0,1906.0,1903.0
3279,1397,1904,0,3276.0,3277.0,1396.0,1395.0,1906.0,1906.0
3276,1399,1905,0,3279.0,3276.0,1397.0,1396.0,1904.0,1906.0
3275,1394,1903,0,3276.0,3279.0,1399.0,1397.0,1905.0,1904.0
3273,1392,1904,0,3275.0,3276.0,1394.0,1399.0,1903.0,1905.0
3275,1389,1905,0,3273.0,3275.0,1392.0,1394.0,1904.0,1903.0
3273,1390,1904,0,3275.0,3273.0,1389.0,1392.0,1905.0,1904.0
3276,1391,1905,0,3273.0,3275.0,1390.0,1389.0,1904.0,1905.0
3275,1390,1910,0,3276.0,3273.0,1391.0,1390.0,1905.0,1904.0
3271,1389,1911,0,3275.0,3276.0,1390.0,1391.0,1910.0,1905.0
3274,1391,1911,0,3271.0,3275.0,1389.0,1390.0,1911.0,1910.0
3278,1393,1913,0,3274.0,3271.0,1391.0,1389.0,1911.0,1911.0
3278,1392,1911,0,3278.0,3274.0,1393.0,1391.0,1913.0,1911.0
3275,1390,1912,0,3278.0,3278.0,1392.0,1393.0,1911.0,1913.0
3274,1393,1910,0,3275.0,3278.0,1390.0,1392.0,1912.0,1911.0
3273,1395,1907,0,3274.0,3275.0,1393.0,1390.0,1910.0,1912.0
3271,1391,1908,0,3273.0,3274.0,1395.0,1393.0,1907.0,1910.0
3272,1388,1905,0,3271.0,3273.0,1391.0,1395.0,1908.0,1907.0
3273,1389,1906,0,3272.0,3271.0,1388.0,1391.0,1905.0,1908.0
3271,1387,1907,0,3273.0,3272.0,1389.0,1388.0,1906.0,1905.0
3270,1387,1905,0,3271.0,3273.0,1387.0,1389.0,1907.0,1906.0
3268,1393,1908,0,3270.0,3271.0,1387.0,1387.0,1905.0,1907.0
3269,1393,1908,0,3268.0,3270.0,1393.0,1387.0,1908.0,1905.0
3268,1392,1909,0,3269.0,3268.0,1393.0,1393.0,1908.0,1908.0
3264,1392,1910,0,3268.0,3269.0,1392.0,1393.0,1909.0,1908.0
3264,1391,1913,0,3264.0,3268.0,1392.0,1392.0,1910.0,1909.0
3264,1387,1912,0,3264.0,3264.0,1391.0,1392.0,1913.0,1910.0
3266,1390,1913,0,3264.0,3264.0,1387.0,1391.0,1912.0,1913.0
3266,1389,1914,0,3266.0,3264.0,1390.0,1387.0,1913.0,1912.0
3270,1390,1911,0,3266.0,3266.0,1389.0,1390.0,1914.0,1913.0
3271,1390,1913,0,3270.0,3266.0,1390.0,1389.0,1911.0,1914.0
3269,1394,1908,0,3271.0,3270.0,1390.0,1390.0,1913.0,1911.0
3270,1393,1912,0,3269.0,3271.0,1394.0,1390.0,1908.0,1913.0
3269,1393,1914,0,3270.0,3269.0,1393.0,1394.0,1912.0,1908.0
3271,1393,1913,0,3269.0,3270.0,1393.0,1393.0,1914.0,1912.0
3271,1392,1911,0,3271.0,3269.0,1393.0,1393.0,1913.0,1914.0
3273,1392,1909,0,3271.0,3271.0,1392.0,1393.0,1911.0,1913.0
3269,1396,1908,0,3273.0,3271.0,1392.0,1392.0,1909.0,1911.0
3273,1395,1909,0,3269.0,3273.0,1396.0,1392.0,1908.0,1909.0
3280,1396,1907,0,3273.0,3269.0,1395.0,1396.0,1909.0,1908.0
3279,1394,1905,0,3280.0,3273.0,1396.0,1395.0,1907.0,1909.0
3275,1395,1907,0,3279.0,3280.0,1394.0,1396.0,1905.0,1907.0
3276,1397,1903,0,3275.0,3279.0,1395.0,1394.0,1907.0,1905.0
3276,1397,1902,0,3276.0,3275.0,1397.0,1395.0,1903.0,1907.0
3277,1398,1900,0,3276.0,3276.0,1397.0,1397.0,1902.0,1903.0
3275,1400,1898,0,3277.0,3276.0,1398.0,1397.0,1900.0,1902.0
3273,1397,1901,0,3275.0,3277.0,1400.0,1398.0,1898.0,1900.0
3275,1397,1901,0,3273.0,3275.0,1397.0,1400.0,1901.0,1898.0
3276,1396,1902,0,3275.0,3273.0,1397.0,1397.0,1901.0,1901.0
3277,1396,1900,0,3276.0,3275.0,1396.0,1397.0,1902.0,1901.0
3277,1395,1899,0,3277.0,3276.0,1396.0,1396.0,1900.0,1902.0
3277,1398,1902,0,3277.0,3277.0,1395.0,1396.0,1899.0,1900.0
3277,1393,1901,0,3277.0,3277.0,1398.0,1395.0,1902.0,1899.0
3277,1398,1901,0,3277.0,3277.0,1393.0,1398.0,1901.0,1902.0
3276,1399,1899,0,3277.0,3277.0,1398.0,1393.0,1901.0,1901.0
3277,1401,1900,0,3276.0,3277.0,1399.0,1398.0,1899.0,1901.0
3277,1394,1899,0,3277.0,3276.0,1401.0,1399.0,1900.0,1899.0
3271,1396,1899,0,3277.0,3277.0,1394.0,1401.0,1899.0,1900.0
3273,1394,1901,0,3271.0,3277.0,1396.0,1394.0,1899.0,1899.0
3273,1395,1903,0,3273.0,3271.0,1394.0,1396.0,1901.0,1899.0
3274,1396,1904,0,3273.0,3273.0,1395.0,1394.0,1903.0,1901.0
3276,1398,1900,0,3274.0,3273.0,1396.0,1395.0,1904.0,1903.0
3277,1398,1897,0,3276.0,3274.0,1398.0,1396.0,1900.0,1904.0
3275,1400,1900,0,3277.0,3276.0,1398.0,1398.0,1897.0,1900.0
3275,1398,1902,0,3275.0,3277.0,1400.0,1398.0,1900.0,1897.0
3275,1398,1900,0,3275.0,3275.0,1398.0,1400.0,1902.0,1900.0
3274,1397,1903,0,3275.0,3275.0,1398.0,1398.0,1900.0,1902.0
3274,1397,1900,0,3274.0,3275.0,1397.0,1398.0,1903.0,1900.0
3274,1399,1901,0,3274.0,3274.0,1397.0,1397.0,1900.0,1903.0
3273,1396,1901,0,3274.0,3274.0,1399.0,1397.0,1901.0,1900.0
3277,1396,1901,0,3273.0,3274.0,1396.0,1399.0,1901.0,1901.0
3278,1400,1901,0,3277.0,3273.0,1396.0,1396.0,1901.0,1901.0
3277,1403,1898,0,3278.0,3277.0,1400.0,1396.0,1901.0,1901.0
3277,1406,1896,0,3277.0,3278.0,1403.0,1400.0,1898.0,1901.0
3273,1403,1898,0,3277.0,3277.0,1406.0,1403.0,1896.0,1898.0
3273,1402,1903,0,3273.0,3277.0,1403.0,1406.0,1898.0,1896.0
3272,1403,1901,0,3273.0,3273.0,1402.0,1403.0,1903.0,1898.0
3270,1400,1899,0,3272.0,3273.0,1403.0,1402.0,1901.0,1903.0
3271,1402,1904,0,3270.0,3272.0,1400.0,1403.0,1899.0,1901.0
3274,1401,1903,0,3271.0,3270.0,1402.0,1400.0,1904.0,1899.0
3270,1400,1903,0,3274.0,3271.0,1401.0,1402.0,1903.0,1904.0
3269,1402,1899,0,3270.0,3274.0,1400.0,1401.0,1903.0,1903.0
3276,1400,1898,0,3269.0,3270.0,1402.0,1400.0,1899.0,1903.0
3278,1402,1896,0,3276.0,3269.0,1400.0,1402.0,1898.0,1899.0
3282,1400,1896,0,3278.0,3276.0,1402.0,1400.0,1896.0,1898.0
3279,1399,1898,0,3282.0,3278.0,1400.0,1402.0,1896.0,1896.0
3276,1396,1898,0,3279.0,3282.0,1399.0,1400.0,1898.0,1896.0
3275,1394,1898,0,3276.0,3279.0,1396.0,1399.0,1898.0,1898.0
3272,1394,1901,0,3275.0,3276.0,1394.0,1396.0,1898.0,1898.0
3269,1393,1901,0,3272.0,3275.0,1394.0,1394.0,1901.0,1898.0
3271,1398,1899,0,3269.0,3272.0,1393.0,1394.0,1901.0,1901.0
3271,1395,1896,0,3271.0,3269.0,1398.0,1393.0,1899.0,1901.0
3273,1397,1895,0,3271.0,3271.0,1395.0,1398.0,1896.0,1899.0
3275,1398,1896,0,3273.0,3271.0,1397.0,1395.0,1895.0,1896.0
3274,1397,1894,0,3275.0,3273.0,1398.0,1397.0,1896.0,1895.0
3275,1401,1896,0,3274.0,3275.0,1397.0,1398.0,1894.0,1896.0
3272,1400,1897,0,3275.0,3274.0,1401.0,1397.0,1896.0,1894.0
3275,1400,1897,0,3272.0,3275.0,1400.0,1401.0,1897.0,1896.0
3273,1401,1901,0,3275.0,3272.0,1400.0,1400.0,1897.0,1897.0
3274,1398,1901,0,3273.0,3275.0,1401.0,1400.0,1901.0,1897.0
3273,1403,1905,0,3274.0,3273.0,1398.0,1401.0,1901.0,1901.0
3274,1405,1906,0,3273.0,3274.0,1403.0,1398.0,1905.0,1901.0
3278,1403,1906,0,3274.0,3273.0,1405.0,1403.0,1906.0,1905.0
3277,1406,1907,0,3278.0,3274.0,1403.0,1405.0,1906.0,1906.0
3278,1404,1905,0,3277.0,3278.0,1406.0,1403.0,1907.0,1906.0
3277,1402,1909,0,3278.0,3277.0,1404.0,1406.0,1905.0,1907.0
3279,1398,1908,0,3277.0,3278.0,1402.0,1404.0,1909.0,1905.0
3278,1395,1911,0,3279.0,3277.0,1398.0,1402.0,1908.0,1909.0
3275,1388,1911,0,3278.0,3279.0,1395.0,1398.0,1911.0,1908.0
3274,1388,1909,0,3275.0,3278.0,1388.0,1395.0,1911.0,1911.0
3280,1395,1904,0,3274.0,3275.0,1388.0,1388.0,1909.0,1911.0
3284,1399,1899,0,3280.0,3274.0,1395.0,1388.0,1904.0,1909.0
3286,1400,1895,0,3284.0,3280.0,1399.0,1395.0,1899.0,1904.0
3281,1401,1894,0,3286.0,3284.0,1400.0,1399.0,1895.0,1899.0
3281,1401,1894,0,3281.0,3286.0,1401.0,1400.0,1894.0,1895.0
3277,1402,1892,0,3281.0,3281.0,1401.0,1401.0,1894.0,1894.0
3270,1402,1895,0,3277.0,3281.0,1402.0,1401.0,1892.0,1894.0
3262,1402,1895,0,3270.0,3277.0,1402.0,1402.0,1895.0,1892.0
3261,1402,1897,0,3262.0,3270.0,1402.0,1402.0,1895.0,1895.0
3262,1403,1895,0,3261.0,3262.0,1402.0,1402.0,1897.0,1895.0
3267,1404,1893,0,3262.0,3261.0,1403.0,1402.0,1895.0,1897.0
3271,1406,1893,0,3267.0,3262.0,1404.0,1403.0,1893.0,1895.0
3276,1406,1893,0,3271.0,3267.0,1406.0,1404.0,1893.0,1893.0
3277,1403,1891,0,3276.0,3271.0,1406.0,1406.0,1893.0,1893.0
3281,1406,1893,0,3277.0,3276.0,1403.0,1406.0,1891.0,1893.0
3279,1406,1895,0,3281.0,3277.0,1406.0,1403.0,1893.0,1891.0
3281,1405,1892,0,3279.0,3281.0,1406.0,1406.0,1895.0,1893.0
3280,1405,1893,0,3281.0,3279.0,1405.0,1406.0,1892.0,1895.0
3281,1403,1892,0,3280.0,3281.0,1405.0,1405.0,1893.0,1892.0
3282,1402,1893,0,3281.0,3280.0,1403.0,1405.0,1892.0,1893.0
3280,1406,1898,0,3282.0,3281.0,1402.0,1403.0,1893.0,1892.0
3275,1402,1897,0,3280.0,3282.0,1406.0,1402.0,1898.0,1893.0
3274,1399,1899,0,3275.0,3280.0,1402.0,1406.0,1897.0,1898.0
3276,1401,1902,0,3274.0,3275.0,1399.0,1402.0,1899.0,1897.0
3275,1402,1900,0,3276.0,3274.0,1401.0,1399.0,1902.0,1899.0
3273,1402,1899,0,3275.0,3276.0,1402.0,1401.0,1900.0,1902.0
3277,1405,1901,0,3273.0,3275.0,1402.0,1402.0,1899.0,1900.0
3276,1407,1901,0,3277.0,3273.0,1405.0,1402.0,1901.0,1899.0
3276,1408,1899,0,3276.0,3277.0,1407.0,1405.0,1901.0,1901.0
3277,1407,1900,0,3276.0,3276.0,1408.0,1407.0,1899.0,1901.0
3279,1404,1904,0,3277.0,3276.0,1407.0,1408.0,1900.0,1899.0
3283,1404,1901,0,3279.0,3277.0,1404.0,1407.0,1904.0,1900.0
3277,1402,1900,0,3283.0,3279.0,1404.0,1404.0,1901.0,1904.0
3276,1403,1900,0,3277.0,3283.0,1402.0,1404.0,1900.0,1901.0
3274,1402,1900,0,3276.0,3277.0,1403.0,1402.0,1900.0,1900.0
3279,1401,1898,0,3274.0,3276.0,1402.0,1403.0,1900.0,1900.0
3276,1403,1901,0,3279.0,3274.0,1401.0,1402.0,1898.0,1900.0
3275,1402,1899,0,3276.0,3279.0,1403.0,1401.0,1901.0,1898.0
3276,1401,1899,0,3275.0,3276.0,1402.0,1403.0,1899.0,1901.0
3269,1401,1899,0,3276.0,3275.0,1401.0,1402.0,1899.0,1899.0
3267,1399,1898,0,3269.0,3276.0,1401.0,1401.0,1899.0,1899.0
3266,1400,1899,0,3267.0,3269.0,1399.0,1401.0,1898.0,1899.0
3267,1402,1901,0,3266.0,3267.0,1400.0,1399.0,1899.0,1898.0
3268,1402,1902,0,3267.0,3266.0,1402.0,1400.0,1901.0,1899.0
3274,1404,1903,0,3268.0,3267.0,1402.0,1402.0,1902.0,1901.0
3273,1401,1901,0,3274.0,3268.0,1404.0,1402.0,1903.0,1902.0
3275,1401,1900,0,3273.0,3274.0,1401.0,1404.0,1901.0,1903.0
3275,1401,1901,0,3275.0,3273.0,1401.0,1401.0,1900.0,1901.0
3274,1399,1900,0,3275.0,3275.0,1401.0,1401.0,1901.0,1900.0
3275,1402,1896,0,3274.0,3275.0,1399.0,1401.0,1900.0,1901.0
3276,1402,1894,0,3275.0,3274.0,1402.0,1399.0,1896.0,1900.0
3281,1403,1897,0,3276.0,3275.0,1402.0,1402.0,1894.0,1896.0
3282,1401,1894,0,3281.0,3276.0,1403.0,1402.0,1897.0,1894.0
3279,1402,1896,0,3282.0,3281.0,1401.0,1403.0,1894.0,1897.0
3275,1402,1894,0,3279.0,3282.0,1402.0,1401.0,1896.0,1894.0
3274,1403,1892,0,3275.0,3279.0,1402.0,1402.0,1894.0,1896.0
3272,1405,1893,0,3274.0,3275.0,1403.0,1402.0,1892.0,1894.0
3274,1407,1896,0,3272.0,3274.0,1405.0,1403.0,1893.0,1892.0
3274,1408,1900,0,3274.0,3272.0,1407.0,1405.0,1896.0,1893.0
3276,1405,1898,0,3274.0,3274.0,1408.0,1407.0,1900.0,1896.0
3278,1401,1895,0,3276.0,3274.0,1405.0,1408.0,1898.0,1900.0
3278,1400,1896,0,3278.0,3276.0,1401.0,1405.0,1895.0,1898.0
3275,1402,1897,0,3278.0,3278.0,1400.0,1401.0,1896.0,1895.0
3276,1402,1899,0,3275.0,3278.0,1402.0,1400.0,1897.0,1896.0
3275,1405,1897,0,3276.0,3275.0,1402.0,1402.0,1899.0,1897.0
3276,1405,1896,0,3275.0,3276.0,1405.0,1402.0,1897.0,1899.0
3276,1406,1894,0,3276.0,3275.0,1405.0,1405.0,1896.0,1897.0
3282,1404,1894,0,3276.0,3276.0,1406.0,1405.0,1894.0,1896.0
3282,1403,1888,0,3282.0,3276.0,1404.0,1406.0,1894.0,1894.0
3278,1405,1890,0,3282.0,3282.0,1403.0,1404.0,1888.0,1894.0
3276,1404,1892,0,3278.0,3282.0,1405.0,1403.0,1890.0,1888.0
3274,1405,1893,0,3276.0,3278.0,1404.0,1405.0,1892.0,1890.0
3275,1408,1896,0,3274.0,3276.0,1405.0,1404.0,1893.0,1892.0
3274,1403,1896,0,3275.0,3274.0,1408.0,1405.0,1896.0,1893.0
3274,1404,1892,0,3274.0,3275.0,1403.0,1408.0,1896.0,1896.0
3275,1401,1893,0,3274.0,3274.0,1404.0,1403.0,1892.0,1896.0
3275,1404,1896,0,3275.0,3274.0,1401.0,1404.0,1893.0,1892.0
3276,1406,1898,0,3275.0,3275.0,1404.0,1401.0,1896.0,1893.0
3278,1407,1894,0,3276.0,3275.0,1406.0,1404.0,1898.0,1896.0
3275,1406,1899,0,3278.0,3276.0,1407.0,1406.0,1894.0,1898.0
3275,1404,1899,0,3275.0,3278.0,1406.0,1407.0,1899.0,1894.0
3275,1403,1899,0,3275.0,3275.0,1404.0,1406.0,1899.0,1899.0
3273,1403,1899,0,3275.0,3275.0,1403.0,1404.0,1899.0,1899.0
3271,1402,1903,0,3273.0,3275.0,1403.0,1403.0,1899.0,1899.0
3272,1399,1905,0,3271.0,3273.0,1402.0,1403.0,1903.0,1899.0
3272,1400,1905,0,3272.0,3271.0,1399.0,1402.0,1905.0,1903.0
3274,1400,1902,0,3272.0,3272.0,1400.0,1399.0,1905.0,1905.0
3275,1398,1901,0,3274.0,3272.0,1400.0,1400.0,1902.0,1905.0
3277,1400,1900,0,3275.0,3274.0,1398.0,1400.0,1901.0,1902.0
3273,1400,1906,0,3277.0,3275.0,1400.0,1398.0,1900.0,1901.0
3272,1401,1904,0,3273.0,3277.0,1400.0,1400.0,1906.0,1900.0
3275,1401,1901,0,3272.0,3273.0,1401.0,1400.0,1904.0,1906.0
3273,1401,1902,0,3275.0,3272.0,1401.0,1401.0,1901.0,1904.0
3270,1401,1901,0,3273.0,3275.0,1401.0,1401.0,1902.0,1901.0
3271,1402,1902,0,3270.0,3273.0,1401.0,1401.0,1901.0,1902.0
3268,1404,1900,0,3271.0,3270.0,1402.0,1401.0,1902.0,1901.0
3270,1400,1899,0,3268.0,3271.0,1404.0,1402.0,1900.0,1902.0
3270,1405,1900,0,3270.0,3268.0,1400.0,1404.0,1899.0,1900.0
3263,1402,1900,0,3270.0,3270.0,1405.0,1400.0,1900.0,1899.0
3267,1402,1899,0,3263.0,3270.0,1402.0,1405.0,1900.0,1900.0
3270,1402,1901,0,3267.0,3263.0,1402.0,1402.0,1899.0,1900.0
3270,1400,1904,0,3270.0,3267.0,1402.0,1402.0,1901.0,1899.0
3271,1401,1902,0,3270.0,3270.0,1400.0,1402.0,1904.0,1901.0
3273,1400,1905,0,3271.0,3270.0,1401.0,1400.0,1902.0,1904.0
3274,1398,1907,0,3273.0,3271.0,1400.0,1401.0,1905.0,1902.0
3274,1399,1907,0,3274.0,3273.0,1398.0,1400.0,1907.0,1905.0
3273,1400,1909,0,3274.0,3274.0,1399.0,1398.0,1907.0,1907.0
3274,1400,1908,0,3273.0,3274.0,1400.0,1399.0,1909.0,1907.0
3270,1401,1905,0,3274.0,3273.0,1400.0,1400.0,1908.0,1909.0
3272,1399,1906,0,3270.0,3274.0,1401.0,1400.0,1905.0,1908.0
3272,1397,1903,0,3272.0,3270.0,1399.0,1401.0,1906.0,1905.0
3271,1394,1905,0,3272.0,3272.0,1397.0,1399.0,1903.0,1906.0
3268,1395,1901,0,3271.0,3272.0,1394.0,1397.0,1905.0,1903.0
3267,1399,1896,0,3268.0,3271.0,1395.0,1394.0,1901.0,1905.0
3265,1401,1900,0,3267.0,3268.0,1399.0,1395.0,1896.0,1901.0
3266,1397,1901,0,3265.0,3267.0,1401.0,1399.0,1900.0,1896.0
3266,1403,1901,0,3266.0,3265.0,1397.0,1401.0,1901.0,1900.0
3262,1402,1901,0,3266.0,3266.0,1403.0,1397.0,1901.0,1901.0
3266,1406,1901,0,3262.0,3266.0,1402.0,1403.0,1901.0,1901.0
3268,1407,1904,0,3266.0,3262.0,1406.0,1402.0,1901.0,1901.0
3272,1406,1906,0,3268.0,3266.0,1407.0,1406.0,1904.0,1901.0
3270,1411,1905,0,3272.0,3268.0,1406.0,1407.0,1906.0,1904.0
3273,1410,1909,0,3270.0,3272.0,1411.0,1406.0,1905.0,1906.0
3276,1406,1910,0,3273.0,3270.0,1410.0,1411.0,1909.0,1905.0
3275,1403,1909,0,3276.0,3273.0,1406.0,1410.0,1910.0,1909.0
3277,1398,1906,0,3275.0,3276.0,1403.0,1406.0,1909.0,1910.0
3279,1399,1907,0,3277.0,3275.0,1398.0,1403.0,1906.0,1909.0
3282,1394,1913,0,3279.0,3277.0,1399.0,1398.0,1907.0,1906.0
3279,1391,1912,0,3282.0,3279.0,1394.0,1399.0,1913.0,1907.0
3279,1393,1910,0,3279.0,3282.0,1391.0,1394.0,1912.0,1913.0
3280,1389,1906,0,3279.0,3279.0,1393.0,1391.0,1910.0,1912.0
3278,1389,1902,0,3280.0,3279.0,1389.0,1393.0,1906.0,1910.0
3274,1391,1899,0,3278.0,3280.0,1389.0,1389.0,1902.0,1906.0
3274,1394,1899,0,3274.0,3278.0,1391.0,1389.0,1899.0,1902.0
3271,1396,1897,0,3274.0,3274.0,1394.0,1391.0,1899.0,1899.0
3272,1402,1895,0,3271.0,3274.0,1396.0,1394.0,1897.0,1899.0
3271,1401,1894,0,3272.0,3271.0,1402.0,1396.0,1895.0,1897.0
3269,1403,1895,0,3271.0,3272.0,1401.0,1402.0,1894.0,1895.0
3271,1401,1895,0,3269.0,3271.0,1403.0,1401.0,1895.0,1894.0
3269,1401,1896,0,3271.0,3269.0,1401.0,1403.0,1895.0,1895.0
3265,1403,1896,0,3269.0,3271.0,1401.0,1401.0,1896.0,1895.0
3261,1400,1894,0,3265.0,3269.0,1403.0,1401.0,1896.0,1896.0
3260,1401,1893,0,3261.0,3265.0,1400.0,1403.0,1894.0,1896.0
3268,1401,1893,0,3260.0,3261.0,1401.0,1400.0,1893.0,1894.0
3271,1403,1894,0,3268.0,3260.0,1401.0,1401.0,1893.0,1893.0
3276,1402,1895,0,3271.0,3268.0,1403.0,1401.0,1894.0,1893.0
3278,1403,1896,0,3276.0,3271.0,1402.0,1403.0,1895.0,1894.0
3282,1402,1898,0,3278.0,3276.0,1403.0,1402.0,1896.0,1895.0
3278,1402,1901,0,3282.0,3278.0,1402.0,1403.0,1898.0,1896.0
3275,1401,1903,0,3278.0,3282.0,1402.0,1402.0,1901.0,1898.0
3275,1400,1903,0,3275.0,3278.0,1401.0,1402.0,1903.0,1901.0
3274,1401,1905,0,3275.0,3275.0,1400.0,1401.0,1903.0,1903.0
3274,1401,1905,0,3274.0,3275.0,1401.0,1400.0,1905.0,1903.0
3276,1400,1904,0,3274.0,3274.0,1401.0,1401.0,1905.0,1905.0
3277,1398,1907,0,3276.0,3274.0,1400.0,1401.0,1904.0,1905.0
3271,1397,1906,0,3277.0,3276.0,1398.0,1400.0,1907.0,1904.0
3273,1399,1907,0,3271.0,3277.0,1397.0,1398.0,1906.0,1907.0
3276,1398,1908,0,3273.0,3271.0,1399.0,1397.0,1907.0,1906.0
3275,1400,1909,0,3276.0,3273.0,1398.0,1399.0,1908.0,1907.0
3277,1401,1913,0,3275.0,3276.0,1400.0,1398.0,1909.0,1908.0
3276,1398,1910,0,3277.0,3275.0,1401.0,1400.0,1913.0,1909.0
3275,1398,1910,0,3276.0,3277.0,1398.0,1401.0,1910.0,1913.0
3271,1398,1913,0,3275.0,3276.0,1398.0,1398.0,1910.0,1910.0
3270,1398,1912,0,3271.0,3275.0,1398.0,1398.0,1913.0,1910.0
3265,1395,1908,0,3270.0,3271.0,1398.0,1398.0,1912.0,1913.0
3261,1392,1911,0,3265.0,3270.0,1395.0,1398.0,1908.0,1912.0
3263,1389,1912,0,3261.0,3265.0,1392.0,1395.0,1911.0,1908.0
3262,1389,1910,0,3263.0,3261.0,1389.0,1392.0,1912.0,1911.0
3264,1392,1910,0,3262.0,3263.0,1389.0,1389.0,1910.0,1912.0
3263,1391,1912,0,3264.0,3262.0,1392.0,1389.0,1910.0,1910.0
3264,1391,1914,0,3263.0,3264.0,1391.0,1392.0,1912.0,1910.0
3265,1394,1912,0,3264.0,3263.0,1391.0,1391.0,1914.0,1912.0
3265,1393,1913,0,3265.0,3264.0,1394.0,1391.0,1912.0,1914.0
3266,1394,1916,0,3265.0,3265.0,1393.0,1394.0,1913.0,1912.0
3266,1394,1918,0,3266.0,3265.0,1394.0,1393.0,1916.0,1913.0
3266,1388,1916,0,3266.0,3266.0,1394.0,1394.0,1918.0,1916.0
3267,1392,1914,0,3266.0,3266.0,1388.0,1394.0,1916.0,1918.0
3271,1390,1920,0,3267.0,3266.0,1392.0,1388.0,1914.0,1916.0
3272,1391,1918,0,3271.0,3267.0,1390.0,1392.0,1920.0,1914.0
3274,1390,1916,0,3272.0,3271.0,1391.0,1390.0,1918.0,1920.0
3272,1393,1912,0,3274.0,3272.0,1390.0,1391.0,1916.0,1918.0
3270,1396,1914,0,3272.0,3274.0,1393.0,1390.0,1912.0,1916.0
3270,1396,1912,0,3270.0,3272.0,1396.0,1393.0,1914.0,1912.0
3269,1394,1910,0,3270.0,3270.0,1396.0,1396.0,1912.0,1914.0
3265,1389,1912,0,3269.0,3270.0,1394.0,1396.0,1910.0,1912.0
3267,1391,1911,0,3265.0,3269.0,1389.0,1394.0,1912.0,1910.0
3272,1388,1913,0,3267.0,3265.0,1391.0,1389.0,1911.0,1912.0
3268,1388,1910,0,3272.0,3267.0,1388.0,1391.0,1913.0,1911.0
3269,1388,1910,0,3268.0,3272.0,1388.0,1388.0,1910.0,1913.0
3271,1392,1907,0,3269.0,3268.0,1388.0,1388.0,1910.0,1910.0
3269,1397,1908,0,3271.0,3269.0,1392.0,1388.0,1907.0,1910.0
3267,1394,1905,0,3269.0,3271.0,1397.0,1392.0,1908.0,1907.0
3266,1394,1904,0,3267.0,3269.0,1394.0,1397.0,1905.0,1908.0
3272,1394,1905,0,3266.0,3267.0,1394.0,1394.0,1904.0,1905.0
3272,1397,1907,0,3272.0,3266.0,1394.0,1394.0,1905.0,1904.0
3270,1397,1904,0,3272.0,3272.0,1397.0,1394.0,1907.0,1905.0
3270,1395,1905,0,3270.0,3272.0,1397.0,1397.0,1904.0,1907.0
3271,1392,1906,0,3270.0,3270.0,1395.0,1397.0,1905.0,1904.0
3272,1391,1909,0,3271.0,3270.0,1392.0,1395.0,1906.0,1905.0
3274,1392,1908,0,3272.0,3271.0,1391.0,1392.0,1909.0,1906.0
3275,1394,1909,0,3274.0,3272.0,1392.0,1391.0,1908.0,1909.0
3276,1396,1907,0,3275.0,3274.0,1394.0,1392.0,1909.0,1908.0
3274,1396,1907,0,3276.0,3275.0,1396.0,1394.0,1907.0,1909.0
3274,1396,1908,0,3274.0,3276.0,1396.0,1396.0,1907.0,1907.0
3278,1398,1906,0,3274.0,3274.0,1396.0,1396.0,1908.0,1907.0
3277,1397,1907,0,3278.0,3274.0,1398.0,1396.0,1906.0,1908.0
3277,1397,1908,0,3277.0,3278.0,1397.0,1398.0,1907.0,1906.0
3276,1397,1907,0,3277.0,3277.0,1397.0,1397.0,1908.0,1907.0
3273,1401,1904,0,3276.0,3277.0,1397.0,1397.0,1907.0,1908.0
3271,1399,1905,0,3273.0,3276.0,1401.0,1397.0,1904.0,1907.0
3271,1397,1910,0,3271.0,3273.0,1399.0,1401.0,1905.0,1904.0
3271,1398,1911,0,3271.0,3271.0,1397.0,1399.0,1910.0,1905.0
3270,1398,1908,0,3271.0,3271.0,1398.0,1397.0,1911.0,1910.0
3271,1394,1912,0,3270.0,3271.0,1398.0,1398.0,1908.0,1911.0
3270,1392,1912,0,3271.0,3270.0,1394.0,1398.0,1912.0,1908.0
3266,1393,1910,0,3270.0,3271.0,1392.0,1394.0,1912.0,1912.0
3262,1393,1912,0,3266.0,3270.0,1393.0,1392.0,1910.0,1912.0
3265,1395,1913,0,3262.0,3266.0,1393.0,1393.0,1912.0,1910.0
3264,1393,1915,0,3265.0,3262.0,1395.0,1393.0,1913.0,1912.0
3267,1391,1916,0,3264.0,3265.0,1393.0,1395.0,1915.0,1913.0
3268,1388,1912,0,3267.0,3264.0,1391.0,1393.0,1916.0,1915.0
3269,1390,1910,0,3268.0,3267.0,1388.0,1391.0,1912.0,1916.0
3268,1388,1909,0,3269.0,3268.0,1390.0,1388.0,1910.0,1912.0
3269,1389,1918,0,3268.0,3269.0,1388.0,1390.0,1909.0,1910.0
3269,1388,1917,0,3269.0,3268.0,1389.0,1388.0,1918.0,1909.0
3272,1389,1917,0,3269.0,3269.0,1388.0,1389.0,1917.0,1918.0
3275,1387,1916,0,3272.0,3269.0,1389.0,1388.0,1917.0,1917.0
3272,1387,1916,0,3275.0,3272.0,1387.0,1389.0,1916.0,1917.0
3273,1391,1913,0,3272.0,3275.0,1387.0,1387.0,1916.0,1916.0
3273,1391,1915,0,3273.0,3272.0,1391.0,1387.0,1913.0,1916.0
3271,1394,1916,0,3273.0,3273.0,1391.0,1391.0,1915.0,1913.0
3273,1393,1914,0,3271.0,3273.0,1394.0,1391.0,1916.0,1915.0
3274,1394,1915,0,3273.0,3271.0,1393.0,1394.0,1914.0,1916.0
3273,1389,1914,0,3274.0,3273.0,1394.0,1393.0,1915.0,1914.0
3269,1389,1915,0,3273.0,3274.0,1389.0,1394.0,1914.0,1915.0
3268,1391,1914,0,3269.0,3273.0,1389.0,1389.0,1915.0,1914.0
3269,1392,1914,0,3268.0,3269.0,1391.0,1389.0,1914.0,1915.0
3267,1391,1910,0,3269.0,3268.0,1392.0,1391.0,1914.0,1914.0
3269,1393,1915,0,3267.0,3269.0,1391.0,1392.0,1910.0,1914.0
3269,1391,1916,0,3269.0,3267.0,1393.0,1391.0,1915.0,1910.0
3268,1388,1915,0,3269.0,3269.0,1391.0,1393.0,1916.0,1915.0
3264,1389,1912,0,3268.0,3269.0,1388.0,1391.0,1915.0,1916.0
3265,1388,1910,0,3264.0,3268.0,1389.0,1388.0,1912.0,1915.0
3268,1387,1911,0,3265.0,3264.0,1388.0,1389.0,1910.0,1912.0
3266,1385,1908,0,3268.0,3265.0,1387.0,1388.0,1911.0,1910.0
3266,1384,1908,0,3266.0,3268.0,1385.0,1387.0,1908.0,1911.0
3264,1386,1907,0,3266.0,3266.0,1384.0,1385.0,1908.0,1908.0
3267,1387,1908,0,3264.0,3266.0,1386.0,1384.0,1907.0,1908.0
3266,1389,1912,0,3267.0,3264.0,1387.0,1386.0,1908.0,1907.0
3269,1393,1912,0,3266.0,3267.0,1389.0,1387.0,1912.0,1908.0
3271,1394,1915,0,3269.0,3266.0,1393.0,1389.0,1912.0,1912.0
3268,1395,1916,0,3271.0,3269.0,1394.0,1393.0,1915.0,1912.0
3272,1392,1918,0,3268.0,3271.0,1395.0,1394.0,1916.0,1915.0
3272,1393,1920,0,3272.0,3268.0,1392.0,1395.0,1918.0,1916.0
3271,1395,1916,0,3272.0,3272.0,1393.0,1392.0,1920.0,1918.0
3274,1393,1921,0,3271.0,3272.0,1395.0,1393.0,1916.0,1920.0
3273,1394,1921,0,3274.0,3271.0,1393.0,1395.0,1921.0,1916.0
3275,1392,1924,0,3273.0,3274.0,1394.0,1393.0,1921.0,1921.0
3273,1387,1923,0,3275.0,3273.0,1392.0,1394.0,1924.0,1921.0
3275,1382,1924,0,3273.0,3275.0,1387.0,1392.0,1923.0,1924.0
3274,1380,1925,0,3275.0,3273.0,1382.0,1387.0,1924.0,1923.0
3270,1378,1925,0,3274.0,3275.0,1380.0,1382.0,1925.0,1924.0
3269,1377,1923,0,3270.0,3274.0,1378.0,1380.0,1925.0,1925.0
3269,1378,1920,0,3269.0,3270.0,1377.0,1378.0,1923.0,1925.0
3269,1379,1914,0,3269.0,3269.0,1378.0,1377.0,1920.0,1923.0
3272,1379,1914,0,3269.0,3269.0,1379.0,1378.0,1914.0,1920.0
3272,1385,1910,0,3272.0,3269.0,1379.0,1379.0,1914.0,1914.0
3274,1386,1908,0,3272.0,3272.0,1385.0,1379.0,1910.0,1914.0
3269,1384,1911,0,3274.0,3272.0,1386.0,1385.0,1908.0,1910.0
3266,1385,1912,0,3269.0,3274.0,1384.0,1386.0,1911.0,1908.0
3266,1386,1912,0,3266.0,3269.0,1385.0,1384.0,1912.0,1911.0
3262,1389,1909,0,3266.0,3266.0,1386.0,1385.0,1912.0,1912.0
3257,1387,1907,0,3262.0,3266.0,1389.0,1386.0,1909.0,1912.0
3261,1386,1908,0,3257.0,3262.0,1387.0,1389.0,1907.0,1909.0
3262,1385,1906,0,3261.0,3257.0,1386.0,1387.0,1908.0,1907.0
3266,1384,1909,0,3262.0,3261.0,1385.0,1386.0,1906.0,1908.0
3268,1382,1908,0,3266.0,3262.0,1384.0,1385.0,1909.0,1906.0
3271,1382,1911,0,3268.0,3266.0,1382.0,1384.0,1908.0,1909.0
3270,1379,1912,0,3271.0,3268.0,1382.0,1382.0,1911.0,1908.0
3273,1379,1915,0,3270.0,3271.0,1379.0,1382.0,1912.0,1911.0
3276,1381,1914,0,3273.0,3270.0,1379.0,1379.0,1915.0,1912.0
3277,1384,1914,0,3276.0,3273.0,1381.0,1379.0,1914.0,1915.0
3278,1382,1912,0,3277.0,3276.0,1384.0,1381.0,1914.0,1914.0
3278,1387,1916,0,3278.0,3277.0,1382.0,1384.0,1912.0,1914.0
3278,1386,1916,0,3278.0,3278.0,1387.0,1382.0,1916.0,1912.0
3277,1390,1918,0,3278.0,3278.0,1386.0,1387.0,1916.0,1916.0
3276,1391,1916,0,3277.0,3278.0,1390.0,1386.0,1918.0,1916.0
3276,1391,1913,0,3276.0,3277.0,1391.0,1390.0,1916.0,1918.0
3274,1391,1914,0,3276.0,3276.0,1391.0,1391.0,1913.0,1916.0
3274,1387,1915,0,3274.0,3276.0,1391.0,1391.0,1914.0,1913.0
3275,1385,1917,0,3274.0,3274.0,1387.0,1391.0,1915.0,1914.0
3275,1386,1916,0,3275.0,3274.0,1385.0,1387.0,1917.0,1915.0
3272,1382,1916,0,3275.0,3275.0,1386.0,1385.0,1916.0,1917.0
3264,1382,1916,0,3272.0,3275.0,1382.0,1386.0,1916.0,1916.0
3265,1386,1918,0,3264.0,3272.0,1382.0,1382.0,1916.0,1916.0
3266,1386,1917,0,3265.0,3264.0,1386.0,1382.0,1918.0,1916.0
3271,1386,1919,0,3266.0,3265.0,1386.0,1386.0,1917.0,1918.0
3269,1386,1917,0,3271.0,3266.0,1386.0,1386.0,1919.0,1917.0
3271,1388,1917,0,3269.0,3271.0,1386.0,1386.0,1917.0,1919.0
3271,1390,1919,0,3271.0,3269.0,1388.0,1386.0,1917.0,1917.0
3273,1390,1919,0,3271.0,3271.0,1390.0,1388.0,1919.0,1917.0
3273,1386,1921,0,3273.0,3271.0,1390.0,1390.0,1919.0,1919.0
3272,1388,1920,0,3273.0,3273.0,1386.0,1390.0,1921.0,1919.0
3272,1385,1917,0,3272.0,3273.0,1388.0,1386.0,1920.0,1921.0
3274,1383,1921,0,3272.0,3272.0,1385.0,1388.0,1917.0,1920.0
3275,1383,1920,0,3274.0,3272.0,1383.0,1385.0,1921.0,1917.0
3277,1383,1918,0,3275.0,3274.0,1383.0,1383.0,1920.0,1921.0
3276,1383,1918,0,3277.0,3275.0,1383.0,1383.0,1918.0,1920.0
3274,1384,1916,0,3276.0,3277.0,1383.0,1383.0,1918.0,1918.0
3274,1385,1915,0,3274.0,3276.0,1384.0,1383.0,1916.0,1918.0
3271,1383,1916,0,3274.0,3274.0,1385.0,1384.0,1915.0,1916.0
3269,1387,1917,0,3271.0,3274.0,1383.0,1385.0,1916.0,1915.0
3273,1384,1913,0,3269.0,3271.0,1387.0,1383.0,1917.0,1916.0
3275,1385,1915,0,3273.0,3269.0,1384.0,1387.0,1913.0,1917.0
3272,1388,1913,0,3275.0,3273.0,1385.0,1384.0,1915.0,1913.0
3269,1384,1912,0,3272.0,3275.0,1388.0,1385.0,1913.0,1915.0
3268,1380,1911,0,3269.0,3272.0,1384.0,1388.0,1912.0,1913.0
3268,1379,1915,0,3268.0,3269.0,1380.0,1384.0,1911.0,1912.0
3272,1376,1915,0,3268.0,3268.0,1379.0,1380.0,1915.0,1911.0
3271,1377,1914,0,3272.0,3268.0,1376.0,1379.0,1915.0,1915.0
3272,1377,1914,0,3271.0,3272.0,1377.0,1376.0,1914.0,1915.0
3271,1377,1915,0,3272.0,3271.0,1377.0,1377.0,1914.0,1914.0
3272,1382,1915,0,3271.0,3272.0,1377.0,1377.0,1915.0,1914.0
3272,1382,1914,0,3272.0,3271.0,1382.0,1377.0,1915.0,1915.0
3275,1381,1915,0,3272.0,3272.0,1382.0,1382.0,1914.0,1915.0
3276,1384,1914,0,3275.0,3272.0,1381.0,1382.0,1915.0,1914.0
3272,1383,1910,0,3276.0,3275.0,1384.0,1381.0,1914.0,1915.0
3272,1383,1909,0,3272.0,3276.0,1383.0,1384.0,1910.0,1914.0
3274,1384,1914,0,3272.0,3272.0,1383.0,1383.0,1909.0,1910.0
3278,1379,1915,0,3274.0,3272.0,1384.0,1383.0,1914.0,1909.0
3278,1381,1913,0,3278.0,3274.0,1379.0,1384.0,1915.0,1914.0
3278,1384,1914,0,3278.0,3278.0,1381.0,1379.0,1913.0,1915.0
3279,1383,1914,0,3278.0,3278.0,1384.0,1381.0,1914.0,1913.0
3280,1381,1916,0,3279.0,3278.0,1383.0,1384.0,1914.0,1914.0
3279,1382,1915,0,3280.0,3279.0,1381.0,1383.0,1916.0,1914.0
3278,1381,1915,0,3279.0,3280.0,1382.0,1381.0,1915.0,1916.0
3279,1383,1913,0,3278.0,3279.0,1381.0,1382.0,1915.0,1915.0
3279,1381,1917,0,3279.0,3278.0,1383.0,1381.0,1913.0,1915.0
3279,1385,1921,0,3279.0,3279.0,1381.0,1383.0,1917.0,1913.0
3277,1384,1924,0,3279.0,3279.0,1385.0,1381.0,1921.0,1917.0
3276,1383,1922,0,3277.0,3279.0,1384.0,1385.0,1924.0,1921.0
3277,1380,1919,0,3276.0,3277.0,1383.0,1384.0,1922.0,1924.0
3274,1381,1922,0,3277.0,3276.0,1380.0,1383.0,1919.0,1922.0
3273,1377,1921,0,3274.0,3277.0,1381.0,1380.0,1922.0,1919.0
3271,1378,1922,0,3273.0,3274.0,1377.0,1381.0,1921.0,1922.0
3268,1375,1923,0,3271.0,3273.0,1378.0,1377.0,1922.0,1921.0
3270,1377,1924,0,3268.0,3271.0,1375.0,1378.0,1923.0,1922.0
3270,1377,1924,0,3270.0,3268.0,1377.0,1375.0,1924.0,1923.0
3267,1380,1920,0,3270.0,3270.0,1377.0,1377.0,1924.0,1924.0
3271,1379,1919,0,3267.0,3270.0,1380.0,1377.0,1920.0,1924.0
3272,1377,1919,0,3271.0,3267.0,1379.0,1380.0,1919.0,1920.0
3272,1378,1922,0,3272.0,3271.0,1377.0,1379.0,1919.0,1919.0
3268,1377,1921,0,3272.0,3272.0,1378.0,1377.0,1922.0,1919.0
3269,1378,1921,0,3268.0,3272.0,1377.0,1378.0,1921.0,1922.0
3267,1383,1918,0,3269.0,3268.0,1378.0,1377.0,1921.0,1921.0
3268,1381,1914,0,3267.0,3269.0,1383.0,1378.0,1918.0,1921.0
3270,1380,1917,0,3268.0,3267.0,1381.0,1383.0,1914.0,1918.0
3271,1377,1918,0,3270.0,3268.0,1380.0,1381.0,1917.0,1914.0
3271,1380,1921,0,3271.0,3270.0,1377.0,1380.0,1918.0,1917.0
3274,1376,1920,0,3271.0,3271.0,1380.0,1377.0,1921.0,1918.0
3273,1378,1918,0,3274.0,3271.0,1376.0,1380.0,1920.0,1921.0
3274,1377,1916,0,3273.0,3274.0,1378.0,1376.0,1918.0,1920.0
3277,1378,1915,0,3274.0,3273.0,1377.0,1378.0,1916.0,1918.0
3276,1380,1912,0,3277.0,3274.0,1378.0,1377.0,1915.0,1916.0
3272,1379,1915,0,3276.0,3277.0,1380.0,1378.0,1912.0,1915.0
3270,1379,1919,0,3272.0,3276.0,1379.0,1380.0,1915.0,1912.0
3273,1380,1920,0,3270.0,3272.0,1379.0,1379.0,1919.0,1915.0
3269,1379,1919,0,3273.0,3270.0,1380.0,1379.0,1920.0,1919.0
3266,1379,1917,0,3269.0,3273.0,1379.0,1380.0,1919.0,1920.0
3269,1378,1919,0,3266.0,3269.0,1379.0,1379.0,1917.0,1919.0
3267,1374,1921,0,3269.0,3266.0,1378.0,1379.0,1919.0,1917.0
3267,1371,1918,0,3267.0,3269.0,1374.0,1378.0,1921.0,1919.0
3266,1372,1920,0,3267.0,3267.0,1371.0,1374.0,1918.0,1921.0
3264,1372,1918,0,3266.0,3267.0,1372.0,1371.0,1920.0,1918.0
3266,1377,1919,0,3264.0,3266.0,1372.0,1372.0,1918.0,1920.0
3265,1377,1919,0,3266.0,3264.0,1377.0,1372.0,1919.0,1918.0
3266,1377,1921,0,3265.0,3266.0,1377.0,1377.0,1919.0,1919.0
3266,1377,1920,0,3266.0,3265.0,1377.0,1377.0,1921.0,1919.0
3271,1382,1923,0,3266.0,3266.0,1377.0,1377.0,1920.0,1921.0
3275,1383,1922,0,3271.0,3266.0,1382.0,1377.0,1923.0,1920.0
3278,1385,1921,0,3275.0,3271.0,1383.0,1382.0,1922.0,1923.0
3282,1385,1922,0,3278.0,3275.0,1385.0,1383.0,1921.0,1922.0
3284,1383,1922,0,3282.0,3278.0,1385.0,1385.0,1922.0,1921.0
3283,1382,1921,0,3284.0,3282.0,1383.0,1385.0,1922.0,1922.0
3278,1384,1920,0,3283.0,3284.0,1382.0,1383.0,1921.0,1922.0
3276,1387,1922,0,3278.0,3283.0,1384.0,1382.0,1920.0,1921.0
3275,1385,1922,0,3276.0,3278.0,1387.0,1384.0,1922.0,1920.0
3273,1381,1926,0,3275.0,3276.0,1385.0,1387.0,1922.0,1922.0
3273,1377,1929,0,3273.0,3275.0,1381.0,1385.0,1926.0,1922.0
3272,1375,1928,0,3273.0,3273.0,1377.0,1381.0,1929.0,1926.0
3273,1375,1925,0,3272.0,3273.0,1375.0,1377.0,1928.0,1929.0
3275,1377,1922,0,3273.0,3272.0,1375.0,1375.0,1925.0,1928.0
3276,1378,1917,0,3275.0,3273.0,1377.0,1375.0,1922.0,1925.0
3277,1378,1918,0,3276.0,3275.0,1378.0,1377.0,1917.0,1922.0
3280,1380,1920,0,3277.0,3276.0,1378.0,1378.0,1918.0,1917.0
3279,1380,1915,0,3280.0,3277.0,1380.0,1378.0,1920.0,1918.0
3278,1382,1915,0,3279.0,3280.0,1380.0,1380.0,1915.0,1920.0
3275,1377,1917,0,3278.0,3279.0,1382.0,1380.0,1915.0,1915.0
3274,1379,1915,0,3275.0,3278.0,1377.0,1382.0,1917.0,1915.0
3276,1376,1915,0,3274.0,3275.0,1379.0,1377.0,1915.0,1917.0
3273,1379,1917,0,3276.0,3274.0,1376.0,1379.0,1915.0,1915.0
3270,1377,1912,0,3273.0,3276.0,1379.0,1376.0,1917.0,1915.0
3272,1378,1911,0,3270.0,3273.0,1377.0,1379.0,1912.0,1917.0
3271,1382,1912,0,3272.0,3270.0,1378.0,1377.0,1911.0,1912.0
3270,1383,1915,0,3271.0,3272.0,1382.0,1378.0,1912.0,1911.0
3268,1383,1916,0,3270.0,3271.0,1383.0,1382.0,1915.0,1912.0
3270,1382,1918,0,3268.0,3270.0,1383.0,1383.0,1916.0,1915.0
3273,1382,1920,0,3270.0,3268.0,1382.0,1383.0,1918.0,1916.0
3274,1383,1923,0,3273.0,3270.0,1382.0,1382.0,1920.0,1918.0
3277,1386,1922,0,3274.0,3273.0,1383.0,1382.0,1923.0,1920.0
3276,1381,1924,0,3277.0,3274.0,1386.0,1383.0,1922.0,1923.0
3281,1383,1925,0,3276.0,3277.0,1381.0,1386.0,1924.0,1922.0
3284,1382,1922,0,3281.0,3276.0,1383.0,1381.0,1925.0,1924.0
3285,1382,1921,0,3284.0,3281.0,1382.0,1383.0,1922.0,1925.0
3286,1380,1922,0,3285.0,3284.0,1382.0,1382.0,1921.0,1922.0
3283,1383,1921,0,3286.0,3285.0,1380.0,1382.0,1922.0,1921.0
3282,1381,1924,0,3283.0,3286.0,1383.0,1380.0,1921.0,1922.0
3278,1384,1931,0,3282.0,3283.0,1381.0,1383.0,1924.0,1921.0
3275,1382,1933,0,3278.0,3282.0,1384.0,1381.0,1931.0,1924.0
3274,1381,1934,0,3275.0,3278.0,1382.0,1384.0,1933.0,1931.0
3269,1380,1932,0,3274.0,3275.0,1381.0,1382.0,1934.0,1933.0
3263,1380,1929,0,3269.0,3274.0,1380.0,1381.0,1932.0,1934.0
3254,1377,1927,0,3263.0,3269.0,1380.0,1380.0,1929.0,1932.0
3250,1371,1924,0,3254.0,3263.0,1377.0,1380.0,1927.0,1929.0
3249,1365,1930,0,3250.0,3254.0,1371.0,1377.0,1924.0,1927.0
3254,1359,1937,0,3249.0,3250.0,1365.0,1371.0,1930.0,1924.0
3267,1352,1946,0,3254.0,3249.0,1359.0,1365.0,1937.0,1930.0
3275,1353,1950,0,3267.0,3254.0,1352.0,1359.0,1946.0,1937.0
3278,1349,1951,0,3275.0,3267.0,1353.0,1352.0,1950.0,1946.0
3278,1357,1946,0,3278.0,3275.0,1349.0,1353.0,1951.0,1950.0
3274,1366,1937,0,3278.0,3278.0,1357.0,1349.0,1946.0,1951.0
3267,1378,1924,0,3274.0,3278.0,1366.0,1357.0,1937.0,1946.0
3259,1397,1917,0,3267.0,3274.0,1378.0,1366.0,1924.0,1937.0
3252,1409,1912,0,3259.0,3267.0,1397.0,1378.0,1917.0,1924.0
3247,1412,1907,0,3252.0,3259.0,1409.0,1397.0,1912.0,1917.0
3241,1412,1909,0,3247.0,3252.0,1412.0,1409.0,1907.0,1912.0
3247,1404,1914,0,3241.0,3247.0,1412.0,1412.0,1909.0,1907.0
3257,1391,1928,0,3247.0,3241.0,1404.0,1412.0,1914.0,1909.0
3271,1380,1943,0,3257.0,3247.0,1391.0,1404.0,1928.0,1914.0
3288,1375,1952,0,3271.0,3257.0,1380.0,1391.0,1943.0,1928.0
3298,1369,1955,0,3288.0,3271.0,1375.0,1380.0,1952.0,1943.0
3303,1366,1952,0,3298.0,3288.0,1369.0,1375.0,1955.0,1952.0
3301,1362,1953,0,3303.0,3298.0,1366.0,1369.0,1952.0,1955.0
3290,1353,1952,0,3301.0,3303.0,1362.0,1366.0,1953.0,1952.0
3281,1348,1944,0,3290.0,3301.0,1353.0,1362.0,1952.0,1953.0
3269,1340,1939,0,3281.0,3290.0,1348.0,1353.0,1944.0,1952.0
3255,1328,1938,0,3269.0,3281.0,1340.0,1348.0,1939.0,1944.0
3240,1314,1942,0,3255.0,3269.0,1328.0,1340.0,1938.0,1939.0
3228,1301,1946,0,3240.0,3255.0,1314.0,1328.0,1942.0,1938.0
3221,1290,1954,0,3228.0,3240.0,1301.0,1314.0,1946.0,1942.0
3215,1281,1953,0,3221.0,3228.0,1290.0,1301.0,1954.0,1946.0
3206,1274,1956,0,3215.0,3221.0,1281.0,1290.0,1953.0,1954.0
3200,1272,1959,0,3206.0,3215.0,1274.0,1281.0,1956.0,1953.0
3192,1269,1962,0,3200.0,3206.0,1272.0,1274.0,1959.0,1956.0
3191,1274,1966,0,3192.0,3200.0,1269.0,1272.0,1962.0,1959.0
3192,1283,1965,0,3191.0,3192.0,1274.0,1269.0,1966.0,1962.0
3196,1288,1969,0,3192.0,3191.0,1283.0,1274.0,1965.0,1966.0
3201,1300,1975,0,3196.0,3192.0,1288.0,1283.0,1969.0,1965.0
3206,1313,1976,0,3201.0,3196.0,1300.0,1288.0,1975.0,1969.0
3210,1325,1974,0,3206.0,3201.0,1313.0,1300.0,1976.0,1975.0
3221,1339,1969,0,3210.0,3206.0,1325.0,1313.0,1974.0,1976.0
3235,1347,1970,0,3221.0,3210.0,1339.0,1325.0,1969.0,1974.0
3247,1361,1968,0,3235.0,3221.0,1347.0,1339.0,1970.0,1969.0
3254,1371,1963,0,3247.0,3235.0,1361.0,1347.0,1968.0,1970.0
3266,1375,1966,0,3254.0,3247.0,1371.0,1361.0,1963.0,1968.0
3273,1384,1973,0,3266.0,3254.0,1375.0,1371.0,1966.0,1963.0
3279,1382,1977,0,3273.0,3266.0,1384.0,1375.0,1973.0,1966.0
3281,1377,1977,0,3279.0,3273.0,1382.0,1384.0,1977.0,1973.0
3279,1374,1972,0,3281.0,3279.0,1377.0,1382.0,1977.0,1977.0
3282,1369,1969,0,3279.0,3281.0,1374.0,1377.0,1972.0,1977.0
3282,1366,1968,0,3282.0,3279.0,1369.0,1374.0,1969.0,1972.0
3282,1361,1961,0,3282.0,3282.0,1366.0,1369.0,1968.0,1969.0
3281,1352,1958,0,3282.0,3282.0,1361.0,1366.0,1961.0,1968.0
3279,1347,1953,0,3281.0,3282.0,1352.0,1361.0,1958.0,1961.0
3279,1345,1948,0,3279.0,3281.0,1347.0,1352.0,1953.0,1958.0
3278,1343,1943,0,3279.0,3279.0,1345.0,1347.0,1948.0,1953.0
3278,1341,1934,0,3278.0,3279.0,1343.0,1345.0,1943.0,1948.0
3276,1337,1927,0,3278.0,3278.0,1341.0,1343.0,1934.0,1943.0
3278,1331,1928,0,3276.0,3278.0,1337.0,1341.0,1927.0,1934.0
3279,1327,1928,0,3278.0,3276.0,1331.0,1337.0,1928.0,1927.0
3276,1321,1925,0,3279.0,3278.0,1327.0,1331.0,1928.0,1928.0
3274,1315,1925,0,3276.0,3279.0,1321.0,1327.0,1925.0,1928.0
3266,1312,1923,0,3274.0,3276.0,1315.0,1321.0,1925.0,1925.0
3257,1312,1919,0,3266.0,3274.0,1312.0,1315.0,1923.0,1925.0
3249,1314,1921,0,3257.0,3266.0,1312.0,1312.0,1919.0,1923.0
3244,1312,1919,0,3249.0,3257.0,1314.0,1312.0,1921.0,1919.0
3241,1310,1924,0,3244.0,3249.0,1312.0,1314.0,1919.0,1921.0
3238,1314,1925,0,3241.0,3244.0,1310.0,1312.0,1924.0,1919.0
3242,1319,1931,0,3238.0,3241.0,1314.0,1310.0,1925.0,1924.0
3244,1324,1935,0,3242.0,3238.0,1319.0,1314.0,1931.0,1925.0
3250,1332,1944,0,3244.0,3242.0,1324.0,1319.0,1935.0,1931.0
3252,1341,1947,0,3250.0,3244.0,1332.0,1324.0,1944.0,1935.0
3256,1346,1951,0,3252.0,3250.0,1341.0,1332.0,1947.0,1944.0
3255,1349,1952,0,3256.0,3252.0,1346.0,1341.0,1951.0,1947.0
3255,1357,1958,0,3255.0,3256.0,1349.0,1346.0,1952.0,1951.0
3260,1365,1963,0,3255.0,3255.0,1357.0,1349.0,1958.0,1952.0
3266,1370,1969,0,3260.0,3255.0,1365.0,1357.0,1963.0,1958.0
3273,1366,1974,0,3266.0,3260.0,1370.0,1365.0,1969.0,1963.0
3283,1365,1975,0,3273.0,3266.0,1366.0,1370.0,1974.0,1969.0
3290,1357,1977,0,3283.0,3273.0,1365.0,1366.0,1975.0,1974.0
3299,1349,1978,0,3290.0,3283.0,1357.0,1365.0,1977.0,1975.0
3301,1342,1977,0,3299.0,3290.0,1349.0,1357.0,1978.0,1977.0
3309,1336,1973,0,3301.0,3299.0,1342.0,1349.0,1977.0,1978.0
3312,1336,1974,0,3309.0,3301.0,1336.0,1342.0,1973.0,1977.0
3318,1336,1976,0,3312.0,3309.0,1336.0,1336.0,1974.0,1973.0
3321,1334,1978,0,3318.0,3312.0,1336.0,1336.0,1976.0,1974.0
3319,1331,1975,0,3321.0,3318.0,1334.0,1336.0,1978.0,1976.0
3316,1331,1975,0,3319.0,3321.0,1331.0,1334.0,1975.0,1978.0
3314,1337,1974,0,3316.0,3319.0,1331.0,1331.0,1975.0,1975.0
3309,1338,1977,0,3314.0,3316.0,1337.0,1331.0,1974.0,1975.0
3302,1345,1978,0,3309.0,3314.0,1338.0,1337.0,1977.0,1974.0
3303,1351,1978,0,3302.0,3309.0,1345.0,1338.0,1978.0,1977.0
3301,1355,1978,0,3303.0,3302.0,1351.0,1345.0,1978.0,1978.0
3293,1362,1983,0,3301.0,3303.0,1355.0,1351.0,1978.0,1978.0
3283,1369,1987,0,3293.0,3301.0,1362.0,1355.0,1983.0,1978.0
3272,1367,1989,0,3283.0,3293.0,1369.0,1362.0,1987.0,1983.0
3266,1357,1987,0,3272.0,3283.0,1367.0,1369.0,1989.0,1987.0
3256,1347,1987,0,3266.0,3272.0,1357.0,1367.0,1987.0,1989.0
3250,1348,1988,0,3256.0,3266.0,1347.0,1357.0,1987.0,1987.0
3241,1345,1985,0,3250.0,3256.0,1348.0,1347.0,1988.0,1987.0
3236,1346,1985,0,3241.0,3250.0,1345.0,1348.0,1985.0,1988.0
3236,1347,1984,0,3236.0,3241.0,1346.0,1345.0,1985.0,1985.0
3243,1340,1980,0,3236.0,3236.0,1347.0,1346.0,1984.0,1985.0
3246,1340,1981,0,3243.0,3236.0,1340.0,1347.0,1980.0,1984.0
3247,1345,1985,0,3246.0,3243.0,1340.0,1340.0,1981.0,1980.0
3249,1348,1981,0,3247.0,3246.0,1345.0,1340.0,1985.0,1981.0
3256,1340,1975,0,3249.0,3247.0,1348.0,1345.0,1981.0,1985.0
3262,1341,1968,0,3256.0,3249.0,1340.0,1348.0,1975.0,1981.0
3265,1336,1968,0,3262.0,3256.0,1341.0,1340.0,1968.0,1975.0
3269,1327,1961,0,3265.0,3262.0,1336.0,1341.0,1968.0,1968.0
3274,1325,1956,0,3269.0,3265.0,1327.0,1336.0,1961.0,1968.0
3277,1320,1959,0,3274.0,3269.0,1325.0,1327.0,1956.0,1961.0
3279,1320,1957,0,3277.0,3274.0,1320.0,1325.0,1959.0,1956.0
3289,1306,1953,0,3279.0,3277.0,1320.0,1320.0,1957.0,1959.0
3292,1308,1953,0,3289.0,3279.0,1306.0,1320.0,1953.0,1957.0
3296,1314,1955,0,3292.0,3289.0,1308.0,1306.0,1953.0,1953.0
3299,1315,1956,0,3296.0,3292.0,1314.0,1308.0,1955.0,1953.0
3309,1314,1958,0,3299.0,3296.0,1315.0,1314.0,1956.0,1955.0
3315,1311,1955,0,3309.0,3299.0,1314.0,1315.0,1958.0,1956.0
3324,1302,1952,0,3315.0,3309.0,1311.0,1314.0,1955.0,1958.0
3326,1312,1958,0,3324.0,3315.0,1302.0,1311.0,1952.0,1955.0
3327,1314,1962,0,3326.0,3324.0,1312.0,1302.0,1958.0,1952.0
3324,1317,1966,0,3327.0,3326.0,1314.0,1312.0,1962.0,1958.0
3322,1317,1963,0,3324.0,3327.0,1317.0,1314.0,1966.0,1962.0
3323,1303,1959,0,3322.0,3324.0,1317.0,1317.0,1963.0,1966.0
3315,1306,1959,0,3323.0,3322.0,1303.0,1317.0,1959.0,1963.0
3309,1306,1964,0,3315.0,3323.0,1306.0,1303.0,1959.0,1959.0
3301,1301,1968,0,3309.0,3315.0,1306.0,1306.0,1964.0,1959.0
3295,1297,1971,0,3301.0,3309.0,1301.0,1306.0,1968.0,1964.0
3294,1279,1967,0,3295.0,3301.0,1297.0,1301.0,1971.0,1968.0
3293,1274,1969,0,3294.0,3295.0,1279.0,1297.0,1967.0,1971.0
3287,1275,1976,0,3293.0,3294.0,1274.0,1279.0,1969.0,1967.0
3288,1271,1976,0,3287.0,3293.0,1275.0,1274.0,1976.0,1969.0
3284,1265,1974,0,3288.0,3287.0,1271.0,1275.0,1976.0,1976.0
3282,1261,1973,0,3284.0,3288.0,1265.0,1271.0,1974.0,1976.0
3282,1259,1977,0,3282.0,3284.0,1261.0,1265.0,1973.0,1974.0
3280,1256,1982,0,3282.0,3282.0,1259.0,1261.0,1977.0,1973.0
3283,1254,1985,0,3280.0,3282.0,1256.0,1259.0,1982.0,1977.0
3285,1251,1985,0,3283.0,3280.0,1254.0,1256.0,1985.0,1982.0
3290,1245,1985,0,3285.0,3283.0,1251.0,1254.0,1985.0,1985.0
3295,1251,1989,0,3290.0,3285.0,1245.0,1251.0,1985.0,1985.0
3299,1256,1987,0,3295.0,3290.0,1251.0,1245.0,1989.0,1985.0
3303,1259,1994,0,3299.0,3295.0,1256.0,1251.0,1987.0,1989.0
3305,1247,1988,0,3303.0,3299.0,1259.0,1256.0,1994.0,1987.0
3306,1247,1991,0,3305.0,3303.0,1247.0,1259.0,1988.0,1994.0
3306,1251,1992,0,3306.0,3305.0,1247.0,1247.0,1991.0,1988.0
3304,1250,1995,0,3306.0,3306.0,1251.0,1247.0,1992.0,1991.0
3305,1251,1991,0,3304.0,3306.0,1250.0,1251.0,1995.0,1992.0
3304,1249,1992,0,3305.0,3304.0,1251.0,1250.0,1991.0,1995.0
3306,1247,1992,0,3304.0,3305.0,1249.0,1251.0,1992.0,1991.0
3311,1252,1995,0,3306.0,3304.0,1247.0,1249.0,1992.0,1992.0
3316,1250,2004,0,3311.0,3306.0,1252.0,1247.0,1995.0,1992.0
3321,1249,2006,0,3316.0,3311.0,1250.0,1252.0,2004.0,1995.0
3320,1251,2011,0,3321.0,3316.0,1249.0,1250.0,2006.0,2004.0
3321,1240,2009,0,3320.0,3321.0,1251.0,1249.0,2011.0,2006.0
3323,1227,2002,0,3321.0,3320.0,1240.0,1251.0,2009.0,2011.0
3321,1219,1994,0,3323.0,3321.0,1227.0,1240.0,2002.0,2009.0
3318,1219,1986,0,3321.0,3323.0,1219.0,1227.0,1994.0,2002.0
3316,1222,1983,0,3318.0,3321.0,1219.0,1219.0,1986.0,1994.0
3322,1217,1981,0,3316.0,3318.0,1222.0,1219.0,1983.0,1986.0
3327,1224,1987,0,3322.0,3316.0,1217.0,1222.0,1981.0,1983.0
3330,1221,1990,0,3327.0,3322.0,1224.0,1217.0,1987.0,1981.0
3340,1227,1995,0,3330.0,3327.0,1221.0,1224.0,1990.0,1987.0
3352,1236,2009,0,3340.0,3330.0,1227.0,1221.0,1995.0,1990.0
