accelerometer_x,accelerometer_y,accelerometer_z,fall,x_lag_1,x_lag_2,y_lag_1,y_lag_2,z_lag_1,z_lag_2
5498,-16,-1190,0,,,,,,
5078,-38,-1229,0,5498.0,,-16.0,,-1190.0,
4670,-82,-1244,0,5078.0,5498.0,-38.0,-16.0,-1229.0,-1190.0
4309,-147,-1236,0,4670.0,5078.0,-82.0,-38.0,-1244.0,-1229.0
3999,-223,-1217,0,4309.0,4670.0,-147.0,-82.0,-1236.0,-1244.0
3728,-275,-1193,0,3999.0,4309.0,-223.0,-147.0,-1217.0,-1236.0
3491,-320,-1168,0,3728.0,3999.0,-275.0,-223.0,-1193.0,-1217.0
3270,-340,-1157,0,3491.0,3728.0,-320.0,-275.0,-1168.0,-1193.0
3060,-322,-1147,0,3270.0,3491.0,-340.0,-320.0,-1157.0,-1168.0
2865,-270,-1130,0,3060.0,3270.0,-322.0,-340.0,-1147.0,-1157.0
2681,-177,-1098,0,2865.0,3060.0,-270.0,-322.0,-1130.0,-1147.0
2516,-71,-1064,0,2681.0,2865.0,-177.0,-270.0,-1098.0,-1130.0
2376,22,-1060,0,2516.0,2681.0,-71.0,-177.0,-1064.0,-1098.0
2243,98,-1059,0,2376.0,2516.0,22.0,-71.0,-1060.0,-1064.0
2120,162,-1045,0,2243.0,2376.0,98.0,22.0,-1059.0,-1060.0
2002,202,-1042,0,2120.0,2243.0,162.0,98.0,-1045.0,-1059.0
1892,207,-1074,0,2002.0,2120.0,202.0,162.0,-1042.0,-1045.0
1800,193,-1130,0,1892.0,2002.0,207.0,202.0,-1074.0,-1042.0
1739,193,-1179,0,1800.0,1892.0,193.0,207.0,-1130.0,-1074.0
1715,217,-1217,0,1739.0,1800.0,193.0,193.0,-1179.0,-1130.0
1734,240,-1237,0,1715.0,1739.0,217.0,193.0,-1217.0,-1179.0
1807,254,-1257,0,1734.0,1715.0,240.0,217.0,-1237.0,-1217.0
1939,259,-1268,0,1807.0,1734.0,254.0,240.0,-1257.0,-1237.0
2132,249,-1265,0,1939.0,1807.0,259.0,254.0,-1268.0,-1257.0
2385,230,-1242,0,2132.0,1939.0,249.0,259.0,-1265.0,-1268.0
2697,209,-1227,0,2385.0,2132.0,230.0,249.0,-1242.0,-1265.0
3059,202,-1221,0,2697.0,2385.0,209.0,230.0,-1227.0,-1242.0
3432,223,-1187,0,3059.0,2697.0,202.0,209.0,-1221.0,-1227.0
3797,248,-1148,0,3432.0,3059.0,223.0,202.0,-1187.0,-1221.0
4147,248,-1140,0,3797.0,3432.0,248.0,223.0,-1148.0,-1187.0
4463,235,-1161,0,4147.0,3797.0,248.0,248.0,-1140.0,-1148.0
4738,235,-1137,0,4463.0,4147.0,235.0,248.0,-1161.0,-1140.0
4960,257,-1069,0,4738.0,4463.0,235.0,235.0,-1137.0,-1161.0
5120,280,-967,0,4960.0,4738.0,257.0,235.0,-1069.0,-1137.0
5217,284,-858,0,5120.0,4960.0,280.0,257.0,-967.0,-1069.0
5254,291,-759,0,5217.0,5120.0,284.0,280.0,-858.0,-967.0
5234,300,-680,0,5254.0,5217.0,291.0,284.0,-759.0,-858.0
5170,326,-633,0,5234.0,5254.0,300.0,291.0,-680.0,-759.0
5067,343,-610,0,5170.0,5234.0,326.0,300.0,-633.0,-680.0
4937,372,-616,0,5067.0,5170.0,343.0,326.0,-610.0,-633.0
4782,394,-659,0,4937.0,5067.0,372.0,343.0,-616.0,-610.0
4634,400,-714,0,4782.0,4937.0,394.0,372.0,-659.0,-616.0
4473,412,-757,0,4634.0,4782.0,400.0,394.0,-714.0,-659.0
4314,427,-789,0,4473.0,4634.0,412.0,400.0,-757.0,-714.0
4171,431,-821,0,4314.0,4473.0,427.0,412.0,-789.0,-757.0
4033,420,-846,0,4171.0,4314.0,431.0,427.0,-821.0,-789.0
3904,408,-878,0,4033.0,4171.0,420.0,431.0,-846.0,-821.0
3779,399,-914,0,3904.0,4033.0,408.0,420.0,-878.0,-846.0
3667,399,-952,0,3779.0,3904.0,399.0,408.0,-914.0,-878.0
3564,405,-994,0,3667.0,3779.0,399.0,399.0,-952.0,-914.0
3480,404,-1031,0,3564.0,3667.0,405.0,399.0,-994.0,-952.0
3418,401,-1061,0,3480.0,3564.0,404.0,405.0,-1031.0,-994.0
3364,392,-1083,0,3418.0,3480.0,401.0,404.0,-1061.0,-1031.0
3324,373,-1108,0,3364.0,3418.0,392.0,401.0,-1083.0,-1061.0
3302,346,-1132,0,3324.0,3364.0,373.0,392.0,-1108.0,-1083.0
3293,306,-1159,0,3302.0,3324.0,346.0,373.0,-1132.0,-1108.0
3295,276,-1162,0,3293.0,3302.0,306.0,346.0,-1159.0,-1132.0
3305,246,-1150,0,3295.0,3293.0,276.0,306.0,-1162.0,-1159.0
3332,219,-1123,0,3305.0,3295.0,246.0,276.0,-1150.0,-1162.0
3359,190,-1077,0,3332.0,3305.0,219.0,246.0,-1123.0,-1150.0
3396,158,-1015,0,3359.0,3332.0,190.0,219.0,-1077.0,-1123.0
3440,123,-950,0,3396.0,3359.0,158.0,190.0,-1015.0,-1077.0
3498,87,-876,0,3440.0,3396.0,123.0,158.0,-950.0,-1015.0
3552,46,-812,0,3498.0,3440.0,87.0,123.0,-876.0,-950.0
3593,7,-772,0,3552.0,3498.0,46.0,87.0,-812.0,-876.0
3636,-41,-739,0,3593.0,3552.0,7.0,46.0,-772.0,-812.0
3663,-76,-723,0,3636.0,3593.0,-41.0,7.0,-739.0,-772.0
3680,-106,-729,0,3663.0,3636.0,-76.0,-41.0,-723.0,-739.0
3687,-130,-731,0,3680.0,3663.0,-106.0,-76.0,-729.0,-723.0
3678,-157,-752,0,3687.0,3680.0,-130.0,-106.0,-731.0,-729.0
3668,-184,-777,0,3678.0,3687.0,-157.0,-130.0,-752.0,-731.0
3662,-199,-802,0,3668.0,3678.0,-184.0,-157.0,-777.0,-752.0
3661,-201,-818,0,3662.0,3668.0,-199.0,-184.0,-802.0,-777.0
3664,-190,-822,0,3661.0,3662.0,-201.0,-199.0,-818.0,-802.0
3676,-171,-810,0,3664.0,3661.0,-190.0,-201.0,-822.0,-818.0
3698,-146,-788,0,3676.0,3664.0,-171.0,-190.0,-810.0,-822.0
3725,-113,-771,0,3698.0,3676.0,-146.0,-171.0,-788.0,-810.0
3757,-78,-749,0,3725.0,3698.0,-113.0,-146.0,-771.0,-788.0
3792,-44,-732,0,3757.0,3725.0,-78.0,-113.0,-749.0,-771.0
3825,-11,-718,0,3792.0,3757.0,-44.0,-78.0,-732.0,-749.0
3853,19,-721,0,3825.0,3792.0,-11.0,-44.0,-718.0,-732.0
3871,41,-746,0,3853.0,3825.0,19.0,-11.0,-721.0,-718.0
3875,69,-773,0,3871.0,3853.0,41.0,19.0,-746.0,-721.0
3879,103,-797,0,3875.0,3871.0,69.0,41.0,-773.0,-746.0
3876,148,-802,0,3879.0,3875.0,103.0,69.0,-797.0,-773.0
3866,212,-791,0,3876.0,3879.0,148.0,103.0,-802.0,-797.0
3856,272,-770,0,3866.0,3876.0,212.0,148.0,-791.0,-802.0
3848,316,-757,0,3856.0,3866.0,272.0,212.0,-770.0,-791.0
3835,349,-731,0,3848.0,3856.0,316.0,272.0,-757.0,-770.0
3822,368,-702,0,3835.0,3848.0,349.0,316.0,-731.0,-757.0
3809,376,-678,0,3822.0,3835.0,368.0,349.0,-702.0,-731.0
3805,379,-658,0,3809.0,3822.0,376.0,368.0,-678.0,-702.0
3804,387,-640,0,3805.0,3809.0,379.0,376.0,-658.0,-678.0
3807,399,-628,0,3804.0,3805.0,387.0,379.0,-640.0,-658.0
3814,405,-616,0,3807.0,3804.0,399.0,387.0,-628.0,-640.0
3820,411,-614,0,3814.0,3807.0,405.0,399.0,-616.0,-628.0
3831,414,-620,0,3820.0,3814.0,411.0,405.0,-614.0,-616.0
3838,419,-631,0,3831.0,3820.0,414.0,411.0,-620.0,-614.0
3846,419,-653,0,3838.0,3831.0,419.0,414.0,-631.0,-620.0
3850,424,-690,0,3846.0,3838.0,419.0,419.0,-653.0,-631.0
3862,431,-745,0,3850.0,3846.0,424.0,419.0,-690.0,-653.0
3869,444,-802,0,3862.0,3850.0,431.0,424.0,-745.0,-690.0
3874,456,-869,0,3869.0,3862.0,444.0,431.0,-802.0,-745.0
3879,469,-950,0,3874.0,3869.0,456.0,444.0,-869.0,-802.0
3882,484,-1034,0,3879.0,3874.0,469.0,456.0,-950.0,-869.0
3872,498,-1099,0,3882.0,3879.0,484.0,469.0,-1034.0,-950.0
3862,506,-1137,0,3872.0,3882.0,498.0,484.0,-1099.0,-1034.0
3864,506,-1142,0,3862.0,3872.0,506.0,498.0,-1137.0,-1099.0
3886,493,-1122,0,3864.0,3862.0,506.0,506.0,-1142.0,-1137.0
3941,460,-1077,0,3886.0,3864.0,493.0,506.0,-1122.0,-1142.0
4020,410,-1043,0,3941.0,3886.0,460.0,493.0,-1077.0,-1122.0
4106,368,-1023,0,4020.0,3941.0,410.0,460.0,-1043.0,-1077.0
4214,334,-974,0,4106.0,4020.0,368.0,410.0,-1023.0,-1043.0
4330,326,-894,0,4214.0,4106.0,334.0,368.0,-974.0,-1023.0
4446,340,-816,0,4330.0,4214.0,326.0,334.0,-894.0,-974.0
4550,380,-732,0,4446.0,4330.0,340.0,326.0,-816.0,-894.0
4631,431,-656,0,4550.0,4446.0,380.0,340.0,-732.0,-816.0
4683,474,-574,0,4631.0,4550.0,431.0,380.0,-656.0,-732.0
4721,497,-491,0,4683.0,4631.0,474.0,431.0,-574.0,-656.0
4751,485,-429,0,4721.0,4683.0,497.0,474.0,-491.0,-574.0
4776,433,-390,0,4751.0,4721.0,485.0,497.0,-429.0,-491.0
4809,365,-366,0,4776.0,4751.0,433.0,485.0,-390.0,-429.0
4854,294,-361,0,4809.0,4776.0,365.0,433.0,-366.0,-390.0
4910,236,-380,0,4854.0,4809.0,294.0,365.0,-361.0,-366.0
4975,217,-429,0,4910.0,4854.0,236.0,294.0,-380.0,-361.0
5040,240,-522,0,4975.0,4910.0,217.0,236.0,-429.0,-380.0
5119,300,-652,0,5040.0,4975.0,240.0,217.0,-522.0,-429.0
5212,382,-808,0,5119.0,5040.0,300.0,240.0,-652.0,-522.0
5309,483,-981,0,5212.0,5119.0,382.0,300.0,-808.0,-652.0
5388,606,-1152,0,5309.0,5212.0,483.0,382.0,-981.0,-808.0
5453,745,-1314,0,5388.0,5309.0,606.0,483.0,-1152.0,-981.0
5489,900,-1465,0,5453.0,5388.0,745.0,606.0,-1314.0,-1152.0
5495,1045,-1599,0,5489.0,5453.0,900.0,745.0,-1465.0,-1314.0
5489,1163,-1725,0,5495.0,5489.0,1045.0,900.0,-1599.0,-1465.0
5455,1239,-1824,0,5489.0,5495.0,1163.0,1045.0,-1725.0,-1599.0
5400,1257,-1895,0,5455.0,5489.0,1239.0,1163.0,-1824.0,-1725.0
5322,1215,-1940,0,5400.0,5455.0,1257.0,1239.0,-1895.0,-1824.0
5227,1123,-1967,0,5322.0,5400.0,1215.0,1257.0,-1940.0,-1895.0
5115,986,-1976,0,5227.0,5322.0,1123.0,1215.0,-1967.0,-1940.0
4983,846,-1967,0,5115.0,5227.0,986.0,1123.0,-1976.0,-1967.0
4839,705,-1948,0,4983.0,5115.0,846.0,986.0,-1967.0,-1976.0
4683,568,-1937,0,4839.0,4983.0,705.0,846.0,-1948.0,-1967.0
4536,421,-1934,0,4683.0,4839.0,568.0,705.0,-1937.0,-1948.0
4394,264,-1943,0,4536.0,4683.0,421.0,568.0,-1934.0,-1937.0
4253,106,-1969,0,4394.0,4536.0,264.0,421.0,-1943.0,-1934.0
4128,-42,-1993,0,4253.0,4394.0,106.0,264.0,-1969.0,-1943.0
4000,-162,-2000,0,4128.0,4253.0,-42.0,106.0,-1993.0,-1969.0
3873,-260,-1977,0,4000.0,4128.0,-162.0,-42.0,-2000.0,-1993.0
3748,-345,-1936,0,3873.0,4000.0,-260.0,-162.0,-1977.0,-2000.0
3617,-413,-1873,0,3748.0,3873.0,-345.0,-260.0,-1936.0,-1977.0
3503,-474,-1795,0,3617.0,3748.0,-413.0,-345.0,-1873.0,-1936.0
3410,-519,-1679,0,3503.0,3617.0,-474.0,-413.0,-1795.0,-1873.0
3339,-539,-1535,0,3410.0,3503.0,-519.0,-474.0,-1679.0,-1795.0
3288,-560,-1385,0,3339.0,3410.0,-539.0,-519.0,-1535.0,-1679.0
3261,-584,-1222,0,3288.0,3339.0,-560.0,-539.0,-1385.0,-1535.0
3248,-614,-1062,0,3261.0,3288.0,-584.0,-560.0,-1222.0,-1385.0
3252,-664,-947,0,3248.0,3261.0,-614.0,-584.0,-1062.0,-1222.0
3283,-731,-875,0,3252.0,3248.0,-664.0,-614.0,-947.0,-1062.0
3329,-794,-846,0,3283.0,3252.0,-731.0,-664.0,-875.0,-947.0
3393,-834,-839,0,3329.0,3283.0,-794.0,-731.0,-846.0,-875.0
3478,-840,-826,0,3393.0,3329.0,-834.0,-794.0,-839.0,-846.0
3579,-817,-808,0,3478.0,3393.0,-840.0,-834.0,-826.0,-839.0
3691,-773,-791,0,3579.0,3478.0,-817.0,-840.0,-808.0,-826.0
3807,-749,-801,0,3691.0,3579.0,-773.0,-817.0,-791.0,-808.0
3920,-739,-838,0,3807.0,3691.0,-749.0,-773.0,-801.0,-791.0
4013,-744,-902,0,3920.0,3807.0,-739.0,-749.0,-838.0,-801.0
4090,-751,-984,0,4013.0,3920.0,-744.0,-739.0,-902.0,-838.0
4156,-738,-1064,0,4090.0,4013.0,-751.0,-744.0,-984.0,-902.0
4194,-679,-1159,0,4156.0,4090.0,-738.0,-751.0,-1064.0,-984.0
4215,-600,-1256,0,4194.0,4156.0,-679.0,-738.0,-1159.0,-1064.0
4231,-517,-1336,0,4215.0,4194.0,-600.0,-679.0,-1256.0,-1159.0
4233,-418,-1391,0,4231.0,4215.0,-517.0,-600.0,-1336.0,-1256.0
4223,-310,-1402,0,4233.0,4231.0,-418.0,-517.0,-1391.0,-1336.0
4220,-222,-1382,0,4223.0,4233.0,-310.0,-418.0,-1402.0,-1391.0
4221,-160,-1334,0,4220.0,4223.0,-222.0,-310.0,-1382.0,-1402.0
4229,-139,-1275,0,4221.0,4220.0,-160.0,-222.0,-1334.0,-1382.0
4233,-151,-1216,0,4229.0,4221.0,-139.0,-160.0,-1275.0,-1334.0
4222,-185,-1161,0,4233.0,4229.0,-151.0,-139.0,-1216.0,-1275.0
4187,-205,-1089,0,4222.0,4233.0,-185.0,-151.0,-1161.0,-1216.0
4144,-198,-994,0,4187.0,4222.0,-205.0,-185.0,-1089.0,-1161.0
4093,-167,-884,0,4144.0,4187.0,-198.0,-205.0,-994.0,-1089.0
4032,-138,-801,0,4093.0,4144.0,-167.0,-198.0,-884.0,-994.0
3968,-118,-742,0,4032.0,4093.0,-138.0,-167.0,-801.0,-884.0
3906,-96,-708,0,3968.0,4032.0,-118.0,-138.0,-742.0,-801.0
3847,-77,-687,0,3906.0,3968.0,-96.0,-118.0,-708.0,-742.0
3793,-55,-676,0,3847.0,3906.0,-77.0,-96.0,-687.0,-708.0
3747,-41,-654,0,3793.0,3847.0,-55.0,-77.0,-676.0,-687.0
3699,-27,-617,0,3747.0,3793.0,-41.0,-55.0,-654.0,-676.0
3663,-20,-584,0,3699.0,3747.0,-27.0,-41.0,-617.0,-654.0
3636,-20,-566,0,3663.0,3699.0,-20.0,-27.0,-584.0,-617.0
3614,-33,-563,0,3636.0,3663.0,-20.0,-20.0,-566.0,-584.0
3597,-56,-564,0,3614.0,3636.0,-33.0,-20.0,-563.0,-566.0
3581,-85,-568,0,3597.0,3614.0,-56.0,-33.0,-564.0,-563.0
3574,-111,-575,0,3581.0,3597.0,-85.0,-56.0,-568.0,-564.0
3570,-144,-593,0,3574.0,3581.0,-111.0,-85.0,-575.0,-568.0
3566,-171,-605,0,3570.0,3574.0,-144.0,-111.0,-593.0,-575.0
3564,-192,-607,0,3566.0,3570.0,-171.0,-144.0,-605.0,-593.0
3556,-214,-603,0,3564.0,3566.0,-192.0,-171.0,-607.0,-605.0
3543,-232,-602,0,3556.0,3564.0,-214.0,-192.0,-603.0,-607.0
3536,-242,-587,0,3543.0,3556.0,-232.0,-214.0,-602.0,-603.0
3531,-252,-579,0,3536.0,3543.0,-242.0,-232.0,-587.0,-602.0
3522,-264,-561,0,3531.0,3536.0,-252.0,-242.0,-579.0,-587.0
3511,-272,-555,0,3522.0,3531.0,-264.0,-252.0,-561.0,-579.0
3491,-278,-551,0,3511.0,3522.0,-272.0,-264.0,-555.0,-561.0
3476,-270,-535,0,3491.0,3511.0,-278.0,-272.0,-551.0,-555.0
3470,-247,-507,0,3476.0,3491.0,-270.0,-278.0,-535.0,-551.0
3464,-216,-472,0,3470.0,3476.0,-247.0,-270.0,-507.0,-535.0
3460,-176,-424,0,3464.0,3470.0,-216.0,-247.0,-472.0,-507.0
3459,-145,-368,0,3460.0,3464.0,-176.0,-216.0,-424.0,-472.0
3454,-113,-308,0,3459.0,3460.0,-145.0,-176.0,-368.0,-424.0
3449,-94,-263,0,3454.0,3459.0,-113.0,-145.0,-308.0,-368.0
3443,-87,-224,0,3449.0,3454.0,-94.0,-113.0,-263.0,-308.0
3435,-91,-182,0,3443.0,3449.0,-87.0,-94.0,-224.0,-263.0
3416,-94,-141,0,3435.0,3443.0,-91.0,-87.0,-182.0,-224.0
3389,-101,-105,0,3416.0,3435.0,-94.0,-91.0,-141.0,-182.0
3361,-108,-72,0,3389.0,3416.0,-101.0,-94.0,-105.0,-141.0
3335,-109,-45,0,3361.0,3389.0,-108.0,-101.0,-72.0,-105.0
3317,-117,-28,0,3335.0,3361.0,-109.0,-108.0,-45.0,-72.0
3299,-128,-12,0,3317.0,3335.0,-117.0,-109.0,-28.0,-45.0
3299,-144,3,0,3299.0,3317.0,-128.0,-117.0,-12.0,-28.0
3298,-155,27,0,3299.0,3299.0,-144.0,-128.0,3.0,-12.0
3305,-172,52,0,3298.0,3299.0,-155.0,-144.0,27.0,3.0
3323,-188,82,0,3305.0,3298.0,-172.0,-155.0,52.0,27.0
3353,-206,117,0,3323.0,3305.0,-188.0,-172.0,82.0,52.0
3384,-227,146,0,3353.0,3323.0,-206.0,-188.0,117.0,82.0
3423,-252,166,0,3384.0,3353.0,-227.0,-206.0,146.0,117.0
3456,-277,175,0,3423.0,3384.0,-252.0,-227.0,166.0,146.0
3486,-309,167,0,3456.0,3423.0,-277.0,-252.0,175.0,166.0
3509,-326,155,0,3486.0,3456.0,-309.0,-277.0,167.0,175.0
3528,-338,129,0,3509.0,3486.0,-326.0,-309.0,155.0,167.0
3557,-356,86,0,3528.0,3509.0,-338.0,-326.0,129.0,155.0
3590,-400,21,0,3557.0,3528.0,-356.0,-338.0,86.0,129.0
3629,-456,-54,0,3590.0,3557.0,-400.0,-356.0,21.0,86.0
3667,-513,-117,0,3629.0,3590.0,-456.0,-400.0,-54.0,21.0
3708,-564,-156,0,3667.0,3629.0,-513.0,-456.0,-117.0,-54.0
3753,-601,-169,0,3708.0,3667.0,-564.0,-513.0,-156.0,-117.0
3812,-629,-153,0,3753.0,3708.0,-601.0,-564.0,-169.0,-156.0
3894,-664,-127,0,3812.0,3753.0,-629.0,-601.0,-153.0,-169.0
3992,-685,-90,0,3894.0,3812.0,-664.0,-629.0,-127.0,-153.0
4103,-711,-56,0,3992.0,3894.0,-685.0,-664.0,-90.0,-127.0
4239,-731,-22,0,4103.0,3992.0,-711.0,-685.0,-56.0,-90.0
4389,-745,12,0,4239.0,4103.0,-731.0,-711.0,-22.0,-56.0
4548,-742,42,0,4389.0,4239.0,-745.0,-731.0,12.0,-22.0
4703,-734,66,0,4548.0,4389.0,-742.0,-745.0,42.0,12.0
4846,-730,80,0,4703.0,4548.0,-734.0,-742.0,66.0,42.0
4976,-728,94,0,4846.0,4703.0,-730.0,-734.0,80.0,66.0
5072,-720,111,0,4976.0,4846.0,-728.0,-730.0,94.0,80.0
5143,-716,138,0,5072.0,4976.0,-720.0,-728.0,111.0,94.0
5182,-693,184,0,5143.0,5072.0,-716.0,-720.0,138.0,111.0
5179,-643,226,0,5182.0,5143.0,-693.0,-716.0,184.0,138.0
5137,-589,251,0,5179.0,5182.0,-643.0,-693.0,226.0,184.0
5066,-528,268,0,5137.0,5179.0,-589.0,-643.0,251.0,226.0
4975,-454,260,0,5066.0,5137.0,-528.0,-589.0,268.0,251.0
4853,-367,251,0,4975.0,5066.0,-454.0,-528.0,260.0,268.0
4721,-271,246,0,4853.0,4975.0,-367.0,-454.0,251.0,260.0
4576,-178,252,0,4721.0,4853.0,-271.0,-367.0,246.0,251.0
4430,-98,256,0,4576.0,4721.0,-178.0,-271.0,252.0,246.0
4298,-37,256,0,4430.0,4576.0,-98.0,-178.0,256.0,252.0
4181,3,247,0,4298.0,4430.0,-37.0,-98.0,256.0,256.0
4067,26,194,0,4181.0,4298.0,3.0,-37.0,247.0,256.0
3957,25,97,0,4067.0,4181.0,26.0,3.0,194.0,247.0
3856,34,-27,0,3957.0,4067.0,25.0,26.0,97.0,194.0
3786,38,-165,0,3856.0,3957.0,34.0,25.0,-27.0,97.0
3742,36,-319,0,3786.0,3856.0,38.0,34.0,-165.0,-27.0
3725,32,-459,0,3742.0,3786.0,36.0,38.0,-319.0,-165.0
3741,18,-580,0,3725.0,3742.0,32.0,36.0,-459.0,-319.0
3805,-2,-671,0,3741.0,3725.0,18.0,32.0,-580.0,-459.0
3913,-21,-717,0,3805.0,3741.0,-2.0,18.0,-671.0,-580.0
4045,-58,-720,0,3913.0,3805.0,-21.0,-2.0,-717.0,-671.0
4216,-111,-707,0,4045.0,3913.0,-58.0,-21.0,-720.0,-717.0
4426,-175,-689,0,4216.0,4045.0,-111.0,-58.0,-707.0,-720.0
4662,-231,-683,0,4426.0,4216.0,-175.0,-111.0,-689.0,-707.0
4924,-281,-697,0,4662.0,4426.0,-231.0,-175.0,-683.0,-689.0
5212,-338,-743,0,4924.0,4662.0,-281.0,-231.0,-697.0,-683.0
5531,-403,-824,0,5212.0,4924.0,-338.0,-281.0,-743.0,-697.0
5863,-464,-940,0,5531.0,5212.0,-403.0,-338.0,-824.0,-743.0
6189,-509,-1052,0,5863.0,5531.0,-464.0,-403.0,-940.0,-824.0
6472,-522,-1138,0,6189.0,5863.0,-509.0,-464.0,-1052.0,-940.0
6664,-507,-1187,0,6472.0,6189.0,-522.0,-509.0,-1138.0,-1052.0
6725,-460,-1205,0,6664.0,6472.0,-507.0,-522.0,-1187.0,-1138.0
6614,-365,-1190,0,6725.0,6664.0,-460.0,-507.0,-1205.0,-1187.0
6341,-241,-1180,0,6614.0,6725.0,-365.0,-460.0,-1190.0,-1205.0
5937,-106,-1161,0,6341.0,6614.0,-241.0,-365.0,-1180.0,-1190.0
5460,36,-1143,0,5937.0,6341.0,-106.0,-241.0,-1161.0,-1180.0
4976,126,-1130,0,5460.0,5937.0,36.0,-106.0,-1143.0,-1161.0
4529,149,-1130,0,4976.0,5460.0,126.0,36.0,-1130.0,-1143.0
4133,117,-1110,0,4529.0,4976.0,149.0,126.0,-1130.0,-1130.0
3794,56,-1076,0,4133.0,4529.0,117.0,149.0,-1110.0,-1130.0
3515,-5,-1034,0,3794.0,4133.0,56.0,117.0,-1076.0,-1110.0
3275,-59,-998,0,3515.0,3794.0,-5.0,56.0,-1034.0,-1076.0
3064,-75,-961,0,3275.0,3515.0,-59.0,-5.0,-998.0,-1034.0
2881,-43,-905,0,3064.0,3275.0,-75.0,-59.0,-961.0,-998.0
2715,23,-836,0,2881.0,3064.0,-43.0,-75.0,-905.0,-961.0
2573,91,-780,0,2715.0,2881.0,23.0,-43.0,-836.0,-905.0
2447,145,-759,0,2573.0,2715.0,91.0,23.0,-780.0,-836.0
2342,184,-763,0,2447.0,2573.0,145.0,91.0,-759.0,-780.0
2242,225,-772,0,2342.0,2447.0,184.0,145.0,-763.0,-759.0
2153,261,-791,0,2242.0,2342.0,225.0,184.0,-772.0,-763.0
2079,289,-817,0,2153.0,2242.0,261.0,225.0,-791.0,-772.0
2012,306,-862,0,2079.0,2153.0,289.0,261.0,-817.0,-791.0
1957,303,-933,0,2012.0,2079.0,306.0,289.0,-862.0,-817.0
1930,283,-1043,0,1957.0,2012.0,303.0,306.0,-933.0,-862.0
1924,275,-1151,0,1930.0,1957.0,283.0,303.0,-1043.0,-933.0
1958,298,-1241,0,1924.0,1930.0,275.0,283.0,-1151.0,-1043.0
2043,340,-1300,0,1958.0,1924.0,298.0,275.0,-1241.0,-1151.0
2171,400,-1322,0,2043.0,1958.0,340.0,298.0,-1300.0,-1241.0
2349,457,-1321,0,2171.0,2043.0,400.0,340.0,-1322.0,-1300.0
2583,473,-1318,0,2349.0,2171.0,457.0,400.0,-1321.0,-1322.0
2864,447,-1315,0,2583.0,2349.0,473.0,457.0,-1318.0,-1321.0
3187,401,-1308,0,2864.0,2583.0,447.0,473.0,-1315.0,-1318.0
3541,349,-1297,0,3187.0,2864.0,401.0,447.0,-1308.0,-1315.0
3897,302,-1290,0,3541.0,3187.0,349.0,401.0,-1297.0,-1308.0
4244,258,-1266,0,3897.0,3541.0,302.0,349.0,-1290.0,-1297.0
4556,232,-1180,0,4244.0,3897.0,258.0,302.0,-1266.0,-1290.0
4826,217,-1067,0,4556.0,4244.0,232.0,258.0,-1180.0,-1266.0
5032,207,-957,0,4826.0,4556.0,217.0,232.0,-1067.0,-1180.0
5182,185,-855,0,5032.0,4826.0,207.0,217.0,-957.0,-1067.0
5277,165,-773,0,5182.0,5032.0,185.0,207.0,-855.0,-957.0
5305,150,-704,0,5277.0,5182.0,165.0,185.0,-773.0,-855.0
5276,139,-648,0,5305.0,5277.0,150.0,165.0,-704.0,-773.0
5203,147,-598,0,5276.0,5305.0,139.0,150.0,-648.0,-704.0
5104,149,-563,0,5203.0,5276.0,147.0,139.0,-598.0,-648.0
4988,144,-555,0,5104.0,5203.0,149.0,147.0,-563.0,-598.0
4860,135,-554,0,4988.0,5104.0,144.0,149.0,-555.0,-563.0
4723,138,-570,0,4860.0,4988.0,135.0,144.0,-554.0,-555.0
4588,140,-591,0,4723.0,4860.0,138.0,135.0,-570.0,-554.0
4454,142,-610,0,4588.0,4723.0,140.0,138.0,-591.0,-570.0
4338,138,-627,0,4454.0,4588.0,142.0,140.0,-610.0,-591.0
4226,137,-654,0,4338.0,4454.0,138.0,142.0,-627.0,-610.0
4123,144,-684,0,4226.0,4338.0,137.0,138.0,-654.0,-627.0
4016,156,-707,0,4123.0,4226.0,144.0,137.0,-684.0,-654.0
3923,170,-730,0,4016.0,4123.0,156.0,144.0,-707.0,-684.0
3828,183,-747,0,3923.0,4016.0,170.0,156.0,-730.0,-707.0
3731,195,-765,0,3828.0,3923.0,183.0,170.0,-747.0,-730.0
3637,210,-781,0,3731.0,3828.0,195.0,183.0,-765.0,-747.0
3546,222,-804,0,3637.0,3731.0,210.0,195.0,-781.0,-765.0
3459,242,-827,0,3546.0,3637.0,222.0,210.0,-804.0,-781.0
3381,261,-847,0,3459.0,3546.0,242.0,222.0,-827.0,-804.0
3325,277,-857,0,3381.0,3459.0,261.0,242.0,-847.0,-827.0
3278,294,-866,0,3325.0,3381.0,277.0,261.0,-857.0,-847.0
3252,306,-869,0,3278.0,3325.0,294.0,277.0,-866.0,-857.0
3241,312,-863,0,3252.0,3278.0,306.0,294.0,-869.0,-866.0
3249,310,-860,0,3241.0,3252.0,312.0,306.0,-863.0,-869.0
3267,307,-852,0,3249.0,3241.0,310.0,312.0,-860.0,-863.0
3298,308,-843,0,3267.0,3249.0,307.0,310.0,-852.0,-860.0
3343,318,-823,0,3298.0,3267.0,308.0,307.0,-843.0,-852.0
3394,327,-799,0,3343.0,3298.0,318.0,308.0,-823.0,-843.0
3453,336,-783,0,3394.0,3343.0,327.0,318.0,-799.0,-823.0
3513,337,-777,0,3453.0,3394.0,336.0,327.0,-783.0,-799.0
3570,336,-779,0,3513.0,3453.0,337.0,336.0,-777.0,-783.0
3630,331,-789,0,3570.0,3513.0,336.0,337.0,-779.0,-777.0
3690,323,-802,0,3630.0,3570.0,331.0,336.0,-789.0,-779.0
3746,318,-808,0,3690.0,3630.0,323.0,331.0,-802.0,-789.0
3797,310,-811,0,3746.0,3690.0,318.0,323.0,-808.0,-802.0
3840,293,-805,0,3797.0,3746.0,310.0,318.0,-811.0,-808.0
3881,268,-785,0,3840.0,3797.0,293.0,310.0,-805.0,-811.0
3921,234,-768,0,3881.0,3840.0,268.0,293.0,-785.0,-805.0
3951,200,-745,0,3921.0,3881.0,234.0,268.0,-768.0,-785.0
3978,163,-721,0,3951.0,3921.0,200.0,234.0,-745.0,-768.0
4001,117,-698,0,3978.0,3951.0,163.0,200.0,-721.0,-745.0
4023,80,-676,0,4001.0,3978.0,117.0,163.0,-698.0,-721.0
4040,49,-659,0,4023.0,4001.0,80.0,117.0,-676.0,-698.0
4046,24,-641,0,4040.0,4023.0,49.0,80.0,-659.0,-676.0
4055,4,-626,0,4046.0,4040.0,24.0,49.0,-641.0,-659.0
4067,-10,-611,0,4055.0,4046.0,4.0,24.0,-626.0,-641.0
4083,-24,-595,0,4067.0,4055.0,-10.0,4.0,-611.0,-626.0
4092,-36,-566,0,4083.0,4067.0,-24.0,-10.0,-595.0,-611.0
4096,-42,-538,0,4092.0,4083.0,-36.0,-24.0,-566.0,-595.0
4099,-39,-504,0,4096.0,4092.0,-42.0,-36.0,-538.0,-566.0
4100,-33,-476,0,4099.0,4096.0,-39.0,-42.0,-504.0,-538.0
4092,-22,-451,0,4100.0,4099.0,-33.0,-39.0,-476.0,-504.0
4071,-13,-435,0,4092.0,4100.0,-22.0,-33.0,-451.0,-476.0
4040,-3,-421,0,4071.0,4092.0,-13.0,-22.0,-435.0,-451.0
4004,13,-413,0,4040.0,4071.0,-3.0,-13.0,-421.0,-435.0
3962,31,-423,0,4004.0,4040.0,13.0,-3.0,-413.0,-421.0
3921,56,-441,0,3962.0,4004.0,31.0,13.0,-423.0,-413.0
3879,83,-462,0,3921.0,3962.0,56.0,31.0,-441.0,-423.0
3842,113,-478,0,3879.0,3921.0,83.0,56.0,-462.0,-441.0
3807,152,-494,0,3842.0,3879.0,113.0,83.0,-478.0,-462.0
3787,187,-523,0,3807.0,3842.0,152.0,113.0,-494.0,-478.0
3764,233,-563,0,3787.0,3807.0,187.0,152.0,-523.0,-494.0
3760,270,-609,0,3764.0,3787.0,233.0,187.0,-563.0,-523.0
3755,317,-646,0,3760.0,3764.0,270.0,233.0,-609.0,-563.0
3758,358,-681,0,3755.0,3760.0,317.0,270.0,-646.0,-609.0
3772,406,-707,0,3758.0,3755.0,358.0,317.0,-681.0,-646.0
3793,450,-716,0,3772.0,3758.0,406.0,358.0,-707.0,-681.0
3822,496,-706,0,3793.0,3772.0,450.0,406.0,-716.0,-707.0
3861,540,-687,0,3822.0,3793.0,496.0,450.0,-706.0,-716.0
3905,580,-661,0,3861.0,3822.0,540.0,496.0,-687.0,-706.0
3960,616,-633,0,3905.0,3861.0,580.0,540.0,-661.0,-687.0
4012,641,-600,0,3960.0,3905.0,616.0,580.0,-633.0,-661.0
4056,657,-574,0,4012.0,3960.0,641.0,616.0,-600.0,-633.0
4094,672,-555,0,4056.0,4012.0,657.0,641.0,-574.0,-600.0
4129,672,-545,0,4094.0,4056.0,672.0,657.0,-555.0,-574.0
4151,672,-553,0,4129.0,4094.0,672.0,672.0,-545.0,-555.0
4156,668,-571,0,4151.0,4129.0,672.0,672.0,-553.0,-545.0
4151,662,-593,0,4156.0,4151.0,668.0,672.0,-571.0,-553.0
4146,649,-627,0,4151.0,4156.0,662.0,668.0,-593.0,-571.0
4146,638,-656,0,4146.0,4151.0,649.0,662.0,-627.0,-593.0
4142,626,-701,0,4146.0,4146.0,638.0,649.0,-656.0,-627.0
4148,612,-743,0,4142.0,4146.0,626.0,638.0,-701.0,-656.0
4159,600,-774,0,4148.0,4142.0,612.0,626.0,-743.0,-701.0
4171,589,-798,0,4159.0,4148.0,600.0,612.0,-774.0,-743.0
4191,572,-790,0,4171.0,4159.0,589.0,600.0,-798.0,-774.0
4218,553,-766,0,4191.0,4171.0,572.0,589.0,-790.0,-798.0
4245,516,-725,0,4218.0,4191.0,553.0,572.0,-766.0,-790.0
4271,464,-670,0,4245.0,4218.0,516.0,553.0,-725.0,-766.0
4289,409,-595,0,4271.0,4245.0,464.0,516.0,-670.0,-725.0
4301,330,-508,0,4289.0,4271.0,409.0,464.0,-595.0,-670.0
4311,240,-416,0,4301.0,4289.0,330.0,409.0,-508.0,-595.0
4306,158,-350,0,4311.0,4301.0,240.0,330.0,-416.0,-508.0
4293,72,-289,0,4306.0,4311.0,158.0,240.0,-350.0,-416.0
4270,-11,-224,0,4293.0,4306.0,72.0,158.0,-289.0,-350.0
4246,-87,-170,0,4270.0,4293.0,-11.0,72.0,-224.0,-289.0
4215,-153,-139,0,4246.0,4270.0,-87.0,-11.0,-170.0,-224.0
4188,-189,-129,0,4215.0,4246.0,-153.0,-87.0,-139.0,-170.0
4168,-198,-139,0,4188.0,4215.0,-189.0,-153.0,-129.0,-139.0
4157,-169,-155,0,4168.0,4188.0,-198.0,-189.0,-139.0,-129.0
4159,-99,-184,0,4157.0,4168.0,-169.0,-198.0,-155.0,-139.0
4176,-5,-224,0,4159.0,4157.0,-99.0,-169.0,-184.0,-155.0
4213,112,-279,0,4176.0,4159.0,-5.0,-99.0,-224.0,-184.0
4275,233,-366,0,4213.0,4176.0,112.0,-5.0,-279.0,-224.0
4363,346,-482,0,4275.0,4213.0,233.0,112.0,-366.0,-279.0
4465,448,-602,0,4363.0,4275.0,346.0,233.0,-482.0,-366.0
4580,544,-723,0,4465.0,4363.0,448.0,346.0,-602.0,-482.0
4717,647,-848,0,4580.0,4465.0,544.0,448.0,-723.0,-602.0
4853,762,-984,0,4717.0,4580.0,647.0,544.0,-848.0,-723.0
4991,880,-1118,0,4853.0,4717.0,762.0,647.0,-984.0,-848.0
5128,988,-1253,0,4991.0,4853.0,880.0,762.0,-1118.0,-984.0
5250,1076,-1370,0,5128.0,4991.0,988.0,880.0,-1253.0,-1118.0
5342,1129,-1454,0,5250.0,5128.0,1076.0,988.0,-1370.0,-1253.0
5405,1146,-1506,0,5342.0,5250.0,1129.0,1076.0,-1454.0,-1370.0
5430,1128,-1526,0,5405.0,5342.0,1146.0,1129.0,-1506.0,-1454.0
5427,1074,-1528,0,5430.0,5405.0,1128.0,1146.0,-1526.0,-1506.0
5403,979,-1539,0,5427.0,5430.0,1074.0,1128.0,-1528.0,-1526.0
5357,855,-1553,0,5403.0,5427.0,979.0,1074.0,-1539.0,-1528.0
5278,722,-1562,0,5357.0,5403.0,855.0,979.0,-1553.0,-1539.0
5178,595,-1561,0,5278.0,5357.0,722.0,855.0,-1562.0,-1553.0
5053,469,-1544,0,5178.0,5278.0,595.0,722.0,-1561.0,-1562.0
4913,343,-1541,0,5053.0,5178.0,469.0,595.0,-1544.0,-1561.0
4755,226,-1556,0,4913.0,5053.0,343.0,469.0,-1541.0,-1544.0
4581,121,-1578,0,4755.0,4913.0,226.0,343.0,-1556.0,-1541.0
4401,38,-1609,0,4581.0,4755.0,121.0,226.0,-1578.0,-1556.0
4233,-35,-1646,0,4401.0,4581.0,38.0,121.0,-1609.0,-1578.0
4060,-104,-1689,0,4233.0,4401.0,-35.0,38.0,-1646.0,-1609.0
3900,-163,-1732,0,4060.0,4233.0,-104.0,-35.0,-1689.0,-1646.0
3745,-217,-1754,0,3900.0,4060.0,-163.0,-104.0,-1732.0,-1689.0
3602,-271,-1749,0,3745.0,3900.0,-217.0,-163.0,-1754.0,-1732.0
3466,-311,-1713,0,3602.0,3745.0,-271.0,-217.0,-1749.0,-1754.0
3342,-340,-1649,0,3466.0,3602.0,-311.0,-271.0,-1713.0,-1749.0
3224,-390,-1573,0,3342.0,3466.0,-340.0,-311.0,-1649.0,-1713.0
3108,-452,-1521,0,3224.0,3342.0,-390.0,-340.0,-1573.0,-1649.0
3026,-549,-1479,0,3108.0,3224.0,-452.0,-390.0,-1521.0,-1573.0
2962,-609,-1374,0,3026.0,3108.0,-549.0,-452.0,-1479.0,-1521.0
2921,-626,-1187,0,2962.0,3026.0,-609.0,-549.0,-1374.0,-1479.0
2906,-626,-971,0,2921.0,2962.0,-626.0,-609.0,-1187.0,-1374.0
2925,-630,-776,0,2906.0,2921.0,-626.0,-626.0,-971.0,-1187.0
2980,-658,-632,0,2925.0,2906.0,-630.0,-626.0,-776.0,-971.0
3067,-710,-539,0,2980.0,2925.0,-658.0,-630.0,-632.0,-776.0
3181,-779,-486,0,3067.0,2980.0,-710.0,-658.0,-539.0,-632.0
3315,-845,-459,0,3181.0,3067.0,-779.0,-710.0,-486.0,-539.0
3467,-884,-445,0,3315.0,3181.0,-845.0,-779.0,-459.0,-486.0
3627,-891,-448,0,3467.0,3315.0,-884.0,-845.0,-445.0,-459.0
3791,-888,-454,0,3627.0,3467.0,-891.0,-884.0,-448.0,-445.0
3952,-871,-477,0,3791.0,3627.0,-888.0,-891.0,-454.0,-448.0
4116,-859,-514,0,3952.0,3791.0,-871.0,-888.0,-477.0,-454.0
4266,-839,-557,0,4116.0,3952.0,-859.0,-871.0,-514.0,-477.0
4406,-812,-597,0,4266.0,4116.0,-839.0,-859.0,-557.0,-514.0
4530,-767,-615,0,4406.0,4266.0,-812.0,-839.0,-597.0,-557.0
4633,-709,-614,0,4530.0,4406.0,-767.0,-812.0,-615.0,-597.0
4720,-636,-595,0,4633.0,4530.0,-709.0,-767.0,-614.0,-615.0
4794,-537,-574,0,4720.0,4633.0,-636.0,-709.0,-595.0,-614.0
4850,-453,-548,0,4794.0,4720.0,-537.0,-636.0,-574.0,-595.0
4880,-392,-532,0,4850.0,4794.0,-453.0,-537.0,-548.0,-574.0
4870,-340,-524,0,4880.0,4850.0,-392.0,-453.0,-532.0,-548.0
4827,-302,-526,0,4870.0,4880.0,-340.0,-392.0,-524.0,-532.0
4752,-272,-548,0,4827.0,4870.0,-302.0,-340.0,-526.0,-524.0
4653,-242,-596,0,4752.0,4827.0,-272.0,-302.0,-548.0,-526.0
4534,-211,-655,0,4653.0,4752.0,-242.0,-272.0,-596.0,-548.0
4406,-172,-712,0,4534.0,4653.0,-211.0,-242.0,-655.0,-596.0
4274,-145,-768,0,4406.0,4534.0,-172.0,-211.0,-712.0,-655.0
4158,-130,-814,0,4274.0,4406.0,-145.0,-172.0,-768.0,-712.0
4049,-133,-848,0,4158.0,4274.0,-130.0,-145.0,-814.0,-768.0
3945,-144,-870,0,4049.0,4158.0,-133.0,-130.0,-848.0,-814.0
3847,-148,-866,0,3945.0,4049.0,-144.0,-133.0,-870.0,-848.0
3758,-141,-844,0,3847.0,3945.0,-148.0,-144.0,-866.0,-870.0
3679,-130,-812,0,3758.0,3847.0,-141.0,-148.0,-844.0,-866.0
3610,-112,-776,0,3679.0,3758.0,-130.0,-141.0,-812.0,-844.0
3546,-92,-732,0,3610.0,3679.0,-112.0,-130.0,-776.0,-812.0
3480,-74,-690,0,3546.0,3610.0,-92.0,-112.0,-732.0,-776.0
3423,-53,-653,0,3480.0,3546.0,-74.0,-92.0,-690.0,-732.0
3366,-36,-619,0,3423.0,3480.0,-53.0,-74.0,-653.0,-690.0
3306,-16,-587,0,3366.0,3423.0,-36.0,-53.0,-619.0,-653.0
3243,19,-553,0,3306.0,3366.0,-16.0,-36.0,-587.0,-619.0
3189,58,-524,0,3243.0,3306.0,19.0,-16.0,-553.0,-587.0
3149,94,-496,0,3189.0,3243.0,58.0,19.0,-524.0,-553.0
3125,125,-472,0,3149.0,3189.0,94.0,58.0,-496.0,-524.0
3124,143,-451,0,3125.0,3149.0,125.0,94.0,-472.0,-496.0
3144,143,-435,0,3124.0,3125.0,143.0,125.0,-451.0,-472.0
3190,122,-412,0,3144.0,3124.0,143.0,143.0,-435.0,-451.0
3254,91,-394,0,3190.0,3144.0,122.0,143.0,-412.0,-435.0
3336,50,-361,0,3254.0,3190.0,91.0,122.0,-394.0,-412.0
3427,9,-324,0,3336.0,3254.0,50.0,91.0,-361.0,-394.0
3538,-38,-286,0,3427.0,3336.0,9.0,50.0,-324.0,-361.0
3641,-79,-252,0,3538.0,3427.0,-38.0,9.0,-286.0,-324.0
3735,-128,-232,0,3641.0,3538.0,-79.0,-38.0,-252.0,-286.0
3814,-170,-210,0,3735.0,3641.0,-128.0,-79.0,-232.0,-252.0
3881,-205,-187,0,3814.0,3735.0,-170.0,-128.0,-210.0,-232.0
3932,-235,-165,0,3881.0,3814.0,-205.0,-170.0,-187.0,-210.0
3972,-254,-145,0,3932.0,3881.0,-235.0,-205.0,-165.0,-187.0
4003,-280,-156,0,3972.0,3932.0,-254.0,-235.0,-145.0,-165.0
4017,-295,-161,0,4003.0,3972.0,-280.0,-254.0,-156.0,-145.0
4012,-294,-144,0,4017.0,4003.0,-295.0,-280.0,-161.0,-156.0
3992,-278,-106,0,4012.0,4017.0,-294.0,-295.0,-144.0,-161.0
3964,-248,-67,0,3992.0,4012.0,-278.0,-294.0,-106.0,-144.0
3918,-210,-28,0,3964.0,3992.0,-248.0,-278.0,-67.0,-106.0
3869,-168,12,0,3918.0,3964.0,-210.0,-248.0,-28.0,-67.0
3809,-136,42,0,3869.0,3918.0,-168.0,-210.0,12.0,-28.0
3740,-105,65,0,3809.0,3869.0,-136.0,-168.0,42.0,12.0
3659,-65,88,0,3740.0,3809.0,-105.0,-136.0,65.0,42.0
3568,-8,116,0,3659.0,3740.0,-65.0,-105.0,88.0,65.0
3476,70,161,0,3568.0,3659.0,-8.0,-65.0,116.0,88.0
3388,140,211,0,3476.0,3568.0,70.0,-8.0,161.0,116.0
3312,184,248,0,3388.0,3476.0,140.0,70.0,211.0,161.0
3244,194,272,0,3312.0,3388.0,184.0,140.0,248.0,211.0
3185,179,289,0,3244.0,3312.0,194.0,184.0,272.0,248.0
3133,147,305,0,3185.0,3244.0,179.0,194.0,289.0,272.0
3079,105,304,0,3133.0,3185.0,147.0,179.0,305.0,289.0
3016,64,297,0,3079.0,3133.0,105.0,147.0,304.0,305.0
2951,27,289,0,3016.0,3079.0,64.0,105.0,297.0,304.0
2879,-29,272,0,2951.0,3016.0,27.0,64.0,289.0,297.0
2808,-96,245,0,2879.0,2951.0,-29.0,27.0,272.0,289.0
2729,-175,205,0,2808.0,2879.0,-96.0,-29.0,245.0,272.0
2643,-250,170,0,2729.0,2808.0,-175.0,-96.0,205.0,245.0
2550,-322,133,0,2643.0,2729.0,-250.0,-175.0,170.0,205.0
2461,-392,100,0,2550.0,2643.0,-322.0,-250.0,133.0,170.0
2381,-443,71,0,2461.0,2550.0,-392.0,-322.0,100.0,133.0
2314,-483,42,0,2381.0,2461.0,-443.0,-392.0,71.0,100.0
2272,-508,10,0,2314.0,2381.0,-483.0,-443.0,42.0,71.0
2248,-512,-20,0,2272.0,2314.0,-508.0,-483.0,10.0,42.0
2241,-500,-54,0,2248.0,2272.0,-512.0,-508.0,-20.0,10.0
2258,-467,-75,0,2241.0,2248.0,-500.0,-512.0,-54.0,-20.0
2287,-407,-95,0,2258.0,2241.0,-467.0,-500.0,-75.0,-54.0
2323,-326,-112,0,2287.0,2258.0,-407.0,-467.0,-95.0,-75.0
2356,-231,-127,0,2323.0,2287.0,-326.0,-407.0,-112.0,-95.0
2390,-116,-125,0,2356.0,2323.0,-231.0,-326.0,-127.0,-112.0
2422,12,-116,0,2390.0,2356.0,-116.0,-231.0,-125.0,-127.0
2450,152,-87,0,2422.0,2390.0,12.0,-116.0,-116.0,-125.0
2476,277,-44,0,2450.0,2422.0,152.0,12.0,-87.0,-116.0
2513,366,13,0,2476.0,2450.0,277.0,152.0,-44.0,-87.0
2567,406,77,0,2513.0,2476.0,366.0,277.0,13.0,-44.0
2640,394,142,0,2567.0,2513.0,406.0,366.0,77.0,13.0
2741,336,202,0,2640.0,2567.0,394.0,406.0,142.0,77.0
2863,247,254,0,2741.0,2640.0,336.0,394.0,202.0,142.0
3014,137,305,0,2863.0,2741.0,247.0,336.0,254.0,202.0
3182,10,338,0,3014.0,2863.0,137.0,247.0,305.0,254.0
3366,-129,359,0,3182.0,3014.0,10.0,137.0,338.0,305.0
3567,-274,366,0,3366.0,3182.0,-129.0,10.0,359.0,338.0
3782,-417,359,0,3567.0,3366.0,-274.0,-129.0,366.0,359.0
3999,-548,342,0,3782.0,3567.0,-417.0,-274.0,359.0,366.0
4227,-661,318,0,3999.0,3782.0,-548.0,-417.0,342.0,359.0
4441,-751,296,0,4227.0,3999.0,-661.0,-548.0,318.0,342.0
4647,-812,297,0,4441.0,4227.0,-751.0,-661.0,296.0,318.0
4831,-850,333,0,4647.0,4441.0,-812.0,-751.0,297.0,296.0
4960,-864,384,0,4831.0,4647.0,-850.0,-812.0,333.0,297.0
5042,-862,459,0,4960.0,4831.0,-864.0,-850.0,384.0,333.0
5067,-843,527,0,5042.0,4960.0,-862.0,-864.0,459.0,384.0
5029,-803,569,0,5067.0,5042.0,-843.0,-862.0,527.0,459.0
4929,-748,568,0,5029.0,5067.0,-803.0,-843.0,569.0,527.0
4798,-678,535,0,4929.0,5029.0,-748.0,-803.0,568.0,569.0
4643,-589,486,0,4798.0,4929.0,-678.0,-748.0,535.0,568.0
4483,-501,418,0,4643.0,4798.0,-589.0,-678.0,486.0,535.0
4325,-408,355,0,4483.0,4643.0,-501.0,-589.0,418.0,486.0
4175,-321,304,0,4325.0,4483.0,-408.0,-501.0,355.0,418.0
4032,-237,264,0,4175.0,4325.0,-321.0,-408.0,304.0,355.0
3900,-167,234,0,4032.0,4175.0,-237.0,-321.0,264.0,304.0
3780,-109,213,0,3900.0,4032.0,-167.0,-237.0,234.0,264.0
3681,-60,194,0,3780.0,3900.0,-109.0,-167.0,213.0,234.0
3606,-28,181,0,3681.0,3780.0,-60.0,-109.0,194.0,213.0
3558,-5,176,0,3606.0,3681.0,-28.0,-60.0,181.0,194.0
3538,2,182,0,3558.0,3606.0,-5.0,-28.0,176.0,181.0
3542,3,186,0,3538.0,3558.0,2.0,-5.0,182.0,176.0
3574,-4,201,0,3542.0,3538.0,3.0,2.0,186.0,182.0
3617,-2,222,0,3574.0,3542.0,-4.0,3.0,201.0,186.0
3663,16,256,0,3617.0,3574.0,-2.0,-4.0,222.0,201.0
3712,58,309,0,3663.0,3617.0,16.0,-2.0,256.0,222.0
3752,103,384,0,3712.0,3663.0,58.0,16.0,309.0,256.0
3794,143,455,0,3752.0,3712.0,103.0,58.0,384.0,309.0
3832,168,521,0,3794.0,3752.0,143.0,103.0,455.0,384.0
3857,177,568,0,3832.0,3794.0,168.0,143.0,521.0,455.0
3884,128,568,0,3857.0,3832.0,177.0,168.0,568.0,521.0
3926,28,493,0,3884.0,3857.0,128.0,177.0,568.0,568.0
3969,-105,382,0,3926.0,3884.0,28.0,128.0,493.0,568.0
4021,-261,253,0,3969.0,3926.0,-105.0,28.0,382.0,493.0
4079,-434,126,0,4021.0,3969.0,-261.0,-105.0,253.0,382.0
4184,-615,-15,0,4079.0,4021.0,-434.0,-261.0,126.0,253.0
4373,-850,-243,0,4184.0,4079.0,-615.0,-434.0,-15.0,126.0
4608,-1102,-520,0,4373.0,4184.0,-850.0,-615.0,-243.0,-15.0
4823,-1306,-731,0,4608.0,4373.0,-1102.0,-850.0,-520.0,-243.0
5024,-1431,-786,0,4823.0,4608.0,-1306.0,-1102.0,-731.0,-520.0
5224,-1417,-766,0,5024.0,4823.0,-1431.0,-1306.0,-786.0,-731.0
5408,-1238,-748,0,5224.0,5024.0,-1417.0,-1431.0,-766.0,-786.0
5579,-987,-765,0,5408.0,5224.0,-1238.0,-1417.0,-748.0,-766.0
5742,-759,-788,0,5579.0,5408.0,-987.0,-1238.0,-765.0,-748.0
5868,-578,-785,0,5742.0,5579.0,-759.0,-987.0,-788.0,-765.0
5954,-491,-806,0,5868.0,5742.0,-578.0,-759.0,-785.0,-788.0
5994,-493,-878,0,5954.0,5868.0,-491.0,-578.0,-806.0,-785.0
5989,-538,-1016,0,5994.0,5954.0,-493.0,-491.0,-878.0,-806.0
5948,-566,-1217,0,5989.0,5994.0,-538.0,-493.0,-1016.0,-878.0
5875,-508,-1462,0,5948.0,5989.0,-566.0,-538.0,-1217.0,-1016.0
5781,-356,-1670,0,5875.0,5948.0,-508.0,-566.0,-1462.0,-1217.0
5662,-101,-1742,0,5781.0,5875.0,-356.0,-508.0,-1670.0,-1462.0
5517,217,-1684,0,5662.0,5781.0,-101.0,-356.0,-1742.0,-1670.0
5369,475,-1557,0,5517.0,5662.0,217.0,-101.0,-1684.0,-1742.0
5250,628,-1364,0,5369.0,5517.0,475.0,217.0,-1557.0,-1684.0
5156,656,-1115,0,5250.0,5369.0,628.0,475.0,-1364.0,-1557.0
5107,557,-850,0,5156.0,5250.0,656.0,628.0,-1115.0,-1364.0
5102,376,-630,0,5107.0,5156.0,557.0,656.0,-850.0,-1115.0
5131,177,-463,0,5102.0,5107.0,376.0,557.0,-630.0,-850.0
5186,-24,-357,0,5131.0,5102.0,177.0,376.0,-463.0,-630.0
5255,-195,-299,0,5186.0,5131.0,-24.0,177.0,-357.0,-463.0
5334,-326,-277,0,5255.0,5186.0,-195.0,-24.0,-299.0,-357.0
5419,-414,-300,0,5334.0,5255.0,-326.0,-195.0,-277.0,-299.0
5508,-455,-348,0,5419.0,5334.0,-414.0,-326.0,-300.0,-277.0
5584,-451,-403,0,5508.0,5419.0,-455.0,-414.0,-348.0,-300.0
5635,-386,-450,0,5584.0,5508.0,-451.0,-455.0,-403.0,-348.0
5675,-276,-511,0,5635.0,5584.0,-386.0,-451.0,-450.0,-403.0
5703,-124,-588,0,5675.0,5635.0,-276.0,-386.0,-511.0,-450.0
5709,67,-670,0,5703.0,5675.0,-124.0,-276.0,-588.0,-511.0
5673,274,-741,0,5709.0,5703.0,67.0,-124.0,-670.0,-588.0
5599,476,-801,0,5673.0,5709.0,274.0,67.0,-741.0,-670.0
5484,661,-852,0,5599.0,5673.0,476.0,274.0,-801.0,-741.0
5323,828,-893,0,5484.0,5599.0,661.0,476.0,-852.0,-801.0
5137,950,-922,0,5323.0,5484.0,828.0,661.0,-893.0,-852.0
4933,1012,-941,0,5137.0,5323.0,950.0,828.0,-922.0,-893.0
4727,1007,-955,0,4933.0,5137.0,1012.0,950.0,-941.0,-922.0
4530,946,-942,0,4727.0,4933.0,1007.0,1012.0,-955.0,-941.0
4351,853,-907,0,4530.0,4727.0,946.0,1007.0,-942.0,-955.0
4199,749,-855,0,4351.0,4530.0,853.0,946.0,-907.0,-942.0
4067,653,-771,0,4199.0,4351.0,749.0,853.0,-855.0,-907.0
3948,557,-677,0,4067.0,4199.0,653.0,749.0,-771.0,-855.0
3847,468,-581,0,3948.0,4067.0,557.0,653.0,-677.0,-771.0
3768,382,-486,0,3847.0,3948.0,468.0,557.0,-581.0,-677.0
3709,290,-403,0,3768.0,3847.0,382.0,468.0,-486.0,-581.0
3656,181,-337,0,3709.0,3768.0,290.0,382.0,-403.0,-486.0
3613,59,-296,0,3656.0,3709.0,181.0,290.0,-337.0,-403.0
3571,-58,-276,0,3613.0,3656.0,59.0,181.0,-296.0,-337.0
3537,-165,-270,0,3571.0,3613.0,-58.0,59.0,-276.0,-296.0
3505,-256,-284,0,3537.0,3571.0,-165.0,-58.0,-270.0,-276.0
3485,-320,-320,0,3505.0,3537.0,-256.0,-165.0,-284.0,-270.0
3464,-349,-370,0,3485.0,3505.0,-320.0,-256.0,-320.0,-284.0
3451,-353,-426,0,3464.0,3485.0,-349.0,-320.0,-370.0,-320.0
3442,-330,-478,0,3451.0,3464.0,-353.0,-349.0,-426.0,-370.0
3438,-298,-530,0,3442.0,3451.0,-330.0,-353.0,-478.0,-426.0
3437,-263,-575,0,3438.0,3442.0,-298.0,-330.0,-530.0,-478.0
3438,-231,-617,0,3437.0,3438.0,-263.0,-298.0,-575.0,-530.0
3436,-198,-647,0,3438.0,3437.0,-231.0,-263.0,-617.0,-575.0
3421,-165,-670,0,3436.0,3438.0,-198.0,-231.0,-647.0,-617.0
3393,-124,-679,0,3421.0,3436.0,-165.0,-198.0,-670.0,-647.0
3372,-91,-683,0,3393.0,3421.0,-124.0,-165.0,-679.0,-670.0
3338,-76,-688,0,3372.0,3393.0,-91.0,-124.0,-683.0,-679.0
3300,-76,-687,0,3338.0,3372.0,-76.0,-91.0,-688.0,-683.0
3259,-86,-685,0,3300.0,3338.0,-76.0,-76.0,-687.0,-688.0
3217,-102,-682,0,3259.0,3300.0,-86.0,-76.0,-685.0,-687.0
3178,-117,-670,0,3217.0,3259.0,-102.0,-86.0,-682.0,-685.0
3143,-125,-654,0,3178.0,3217.0,-117.0,-102.0,-670.0,-682.0
3120,-134,-640,0,3143.0,3178.0,-125.0,-117.0,-654.0,-670.0
3103,-144,-617,0,3120.0,3143.0,-134.0,-125.0,-640.0,-654.0
3091,-152,-595,0,3103.0,3120.0,-144.0,-134.0,-617.0,-640.0
3082,-168,-576,0,3091.0,3103.0,-152.0,-144.0,-595.0,-617.0
3087,-178,-561,0,3082.0,3091.0,-168.0,-152.0,-576.0,-595.0
3107,-193,-537,0,3087.0,3082.0,-178.0,-168.0,-561.0,-576.0
3140,-211,-500,0,3107.0,3087.0,-193.0,-178.0,-537.0,-561.0
3187,-240,-456,0,3140.0,3107.0,-211.0,-193.0,-500.0,-537.0
3245,-271,-409,0,3187.0,3140.0,-240.0,-211.0,-456.0,-500.0
3309,-302,-362,0,3245.0,3187.0,-271.0,-240.0,-409.0,-456.0
3378,-320,-310,0,3309.0,3245.0,-302.0,-271.0,-362.0,-409.0
3454,-322,-248,0,3378.0,3309.0,-320.0,-302.0,-310.0,-362.0
3528,-312,-184,0,3454.0,3378.0,-322.0,-320.0,-248.0,-310.0
3599,-294,-119,0,3528.0,3454.0,-312.0,-322.0,-184.0,-248.0
3664,-266,-65,0,3599.0,3528.0,-294.0,-312.0,-119.0,-184.0
3720,-234,-32,0,3664.0,3599.0,-266.0,-294.0,-65.0,-119.0
3758,-181,-13,0,3720.0,3664.0,-234.0,-266.0,-32.0,-65.0
3771,-103,1,0,3758.0,3720.0,-181.0,-234.0,-13.0,-32.0
3757,-17,7,0,3771.0,3758.0,-103.0,-181.0,1.0,-13.0
3706,73,5,0,3757.0,3771.0,-17.0,-103.0,7.0,1.0
3631,165,-22,0,3706.0,3757.0,73.0,-17.0,5.0,7.0
3532,256,-69,0,3631.0,3706.0,165.0,73.0,-22.0,5.0
3411,344,-140,0,3532.0,3631.0,256.0,165.0,-69.0,-22.0
3273,426,-227,0,3411.0,3532.0,344.0,256.0,-140.0,-69.0
3120,495,-322,0,3273.0,3411.0,426.0,344.0,-227.0,-140.0
2970,538,-395,0,3120.0,3273.0,495.0,426.0,-322.0,-227.0
2828,547,-452,0,2970.0,3120.0,538.0,495.0,-395.0,-322.0
2710,504,-493,0,2828.0,2970.0,547.0,538.0,-452.0,-395.0
2621,430,-523,0,2710.0,2828.0,504.0,547.0,-493.0,-452.0
2572,331,-542,0,2621.0,2710.0,430.0,504.0,-523.0,-493.0
2563,227,-525,0,2572.0,2621.0,331.0,430.0,-542.0,-523.0
2602,126,-480,0,2563.0,2572.0,227.0,331.0,-525.0,-542.0
2692,40,-417,0,2602.0,2563.0,126.0,227.0,-480.0,-525.0
2829,-43,-347,0,2692.0,2602.0,40.0,126.0,-417.0,-480.0
3006,-114,-274,0,2829.0,2692.0,-43.0,40.0,-347.0,-417.0
3214,-170,-183,0,3006.0,2829.0,-114.0,-43.0,-274.0,-347.0
3427,-215,-73,0,3214.0,3006.0,-170.0,-114.0,-183.0,-274.0
3631,-246,9,0,3427.0,3214.0,-215.0,-170.0,-73.0,-183.0
3828,-288,52,0,3631.0,3427.0,-246.0,-215.0,9.0,-73.0
3985,-318,60,0,3828.0,3631.0,-288.0,-246.0,52.0,9.0
4116,-326,38,0,3985.0,3828.0,-318.0,-288.0,60.0,52.0
4205,-289,11,0,4116.0,3985.0,-326.0,-318.0,38.0,60.0
4235,-205,-20,0,4205.0,4116.0,-289.0,-326.0,11.0,38.0
4215,-85,-60,0,4235.0,4205.0,-205.0,-289.0,-20.0,11.0
4155,56,-116,0,4215.0,4235.0,-85.0,-205.0,-60.0,-20.0
4057,208,-158,0,4155.0,4215.0,56.0,-85.0,-116.0,-60.0
3916,353,-180,0,4057.0,4155.0,208.0,56.0,-158.0,-116.0
3743,467,-189,0,3916.0,4057.0,353.0,208.0,-180.0,-158.0
3564,523,-205,0,3743.0,3916.0,467.0,353.0,-189.0,-180.0
3395,535,-202,0,3564.0,3743.0,523.0,467.0,-205.0,-189.0
3238,527,-162,0,3395.0,3564.0,535.0,523.0,-202.0,-205.0
3103,509,-82,0,3238.0,3395.0,527.0,535.0,-162.0,-202.0
2991,481,11,0,3103.0,3238.0,509.0,527.0,-82.0,-162.0
2904,453,104,0,2991.0,3103.0,481.0,509.0,11.0,-82.0
2841,425,177,0,2904.0,2991.0,453.0,481.0,104.0,11.0
2799,401,239,0,2841.0,2904.0,425.0,453.0,177.0,104.0
2783,385,314,0,2799.0,2841.0,401.0,425.0,239.0,177.0
2798,377,409,0,2783.0,2799.0,385.0,401.0,314.0,239.0
2828,365,502,0,2798.0,2783.0,377.0,385.0,409.0,314.0
2877,343,574,0,2828.0,2798.0,365.0,377.0,502.0,409.0
2949,296,617,0,2877.0,2828.0,343.0,365.0,574.0,502.0
3032,243,635,0,2949.0,2877.0,296.0,343.0,617.0,574.0
3126,201,631,0,3032.0,2949.0,243.0,296.0,635.0,617.0
3218,182,604,0,3126.0,3032.0,201.0,243.0,631.0,635.0
3303,185,561,0,3218.0,3126.0,182.0,201.0,604.0,631.0
3384,209,489,0,3303.0,3218.0,185.0,182.0,561.0,604.0
3454,254,391,0,3384.0,3303.0,209.0,185.0,489.0,561.0
3506,330,280,0,3454.0,3384.0,254.0,209.0,391.0,489.0
3540,438,170,0,3506.0,3454.0,330.0,254.0,280.0,391.0
3564,555,67,0,3540.0,3506.0,438.0,330.0,170.0,280.0
3580,677,-38,0,3564.0,3540.0,555.0,438.0,67.0,170.0
3582,797,-126,0,3580.0,3564.0,677.0,555.0,-38.0,67.0
3581,908,-183,0,3582.0,3580.0,797.0,677.0,-126.0,-38.0
3599,971,-222,0,3581.0,3582.0,908.0,797.0,-183.0,-126.0
3653,937,-330,0,3599.0,3581.0,971.0,908.0,-222.0,-183.0
3770,799,-543,0,3653.0,3599.0,937.0,971.0,-330.0,-222.0
3945,600,-800,0,3770.0,3653.0,799.0,937.0,-543.0,-330.0
4188,413,-1009,0,3945.0,3770.0,600.0,799.0,-800.0,-543.0
4485,269,-1143,0,4188.0,3945.0,413.0,600.0,-1009.0,-800.0
4822,140,-1173,0,4485.0,4188.0,269.0,413.0,-1143.0,-1009.0
5181,1,-1129,0,4822.0,4485.0,140.0,269.0,-1173.0,-1143.0
5506,-147,-1026,0,5181.0,4822.0,1.0,140.0,-1129.0,-1173.0
5785,-277,-886,0,5506.0,5181.0,-147.0,1.0,-1026.0,-1129.0
5993,-367,-704,0,5785.0,5506.0,-277.0,-147.0,-886.0,-1026.0
6127,-432,-531,0,5993.0,5785.0,-367.0,-277.0,-704.0,-886.0
6181,-470,-377,0,6127.0,5993.0,-432.0,-367.0,-531.0,-704.0
6162,-497,-254,0,6181.0,6127.0,-470.0,-432.0,-377.0,-531.0
6083,-534,-185,0,6162.0,6181.0,-497.0,-470.0,-254.0,-377.0
5974,-610,-203,0,6083.0,6162.0,-534.0,-497.0,-185.0,-254.0
5865,-742,-297,0,5974.0,6083.0,-610.0,-534.0,-203.0,-185.0
5773,-932,-424,0,5865.0,5974.0,-742.0,-610.0,-297.0,-203.0
5721,-1152,-547,0,5773.0,5865.0,-932.0,-742.0,-424.0,-297.0
5716,-1385,-637,0,5721.0,5773.0,-1152.0,-932.0,-547.0,-424.0
5763,-1583,-668,0,5716.0,5721.0,-1385.0,-1152.0,-637.0,-547.0
5861,-1708,-628,0,5763.0,5716.0,-1583.0,-1385.0,-668.0,-637.0
5993,-1717,-519,0,5861.0,5763.0,-1708.0,-1583.0,-628.0,-668.0
6138,-1585,-344,0,5993.0,5861.0,-1717.0,-1708.0,-519.0,-628.0
6273,-1350,-149,0,6138.0,5993.0,-1585.0,-1717.0,-344.0,-519.0
6378,-1085,-18,0,6273.0,6138.0,-1350.0,-1585.0,-149.0,-344.0
6445,-870,1,0,6378.0,6273.0,-1085.0,-1350.0,-18.0,-149.0
6477,-705,-29,0,6445.0,6378.0,-870.0,-1085.0,1.0,-18.0
6488,-561,-33,0,6477.0,6445.0,-705.0,-870.0,-29.0,1.0
6468,-427,-14,0,6488.0,6477.0,-561.0,-705.0,-33.0,-29.0
6416,-329,-5,0,6468.0,6488.0,-427.0,-561.0,-14.0,-33.0
6318,-263,-34,0,6416.0,6468.0,-329.0,-427.0,-5.0,-14.0
6178,-229,-85,0,6318.0,6416.0,-263.0,-329.0,-34.0,-5.0
6001,-210,-144,0,6178.0,6318.0,-229.0,-263.0,-85.0,-34.0
5796,-211,-209,0,6001.0,6178.0,-210.0,-229.0,-144.0,-85.0
5575,-239,-276,0,5796.0,6001.0,-211.0,-210.0,-209.0,-144.0
5363,-308,-328,0,5575.0,5796.0,-239.0,-211.0,-276.0,-209.0
5173,-443,-364,0,5363.0,5575.0,-308.0,-239.0,-328.0,-276.0
5039,-633,-376,0,5173.0,5363.0,-443.0,-308.0,-364.0,-328.0
4952,-827,-348,0,5039.0,5173.0,-633.0,-443.0,-376.0,-364.0
4899,-998,-270,0,4952.0,5039.0,-827.0,-633.0,-348.0,-376.0
4887,-1158,-144,0,4899.0,4952.0,-998.0,-827.0,-270.0,-348.0
4883,-1298,-21,0,4887.0,4899.0,-1158.0,-998.0,-144.0,-270.0
4877,-1401,111,0,4883.0,4887.0,-1298.0,-1158.0,-21.0,-144.0
4860,-1463,254,0,4877.0,4883.0,-1401.0,-1298.0,111.0,-21.0
4825,-1501,379,0,4860.0,4877.0,-1463.0,-1401.0,254.0,111.0
4775,-1516,468,0,4825.0,4860.0,-1501.0,-1463.0,379.0,254.0
4723,-1517,521,0,4775.0,4825.0,-1516.0,-1501.0,468.0,379.0
4658,-1503,533,0,4723.0,4775.0,-1517.0,-1516.0,521.0,468.0
4596,-1491,505,0,4658.0,4723.0,-1503.0,-1517.0,533.0,521.0
4530,-1473,445,0,4596.0,4658.0,-1491.0,-1503.0,505.0,533.0
4463,-1453,367,0,4530.0,4596.0,-1473.0,-1491.0,445.0,505.0
4399,-1439,284,0,4463.0,4530.0,-1453.0,-1473.0,367.0,445.0
4335,-1421,200,0,4399.0,4463.0,-1439.0,-1453.0,284.0,367.0
4259,-1397,113,0,4335.0,4399.0,-1421.0,-1439.0,200.0,284.0
4178,-1377,21,0,4259.0,4335.0,-1397.0,-1421.0,113.0,200.0
4080,-1363,-76,0,4178.0,4259.0,-1377.0,-1397.0,21.0,113.0
3976,-1336,-154,0,4080.0,4178.0,-1363.0,-1377.0,-76.0,21.0
3869,-1299,-211,0,3976.0,4080.0,-1336.0,-1363.0,-154.0,-76.0
3763,-1239,-241,0,3869.0,3976.0,-1299.0,-1336.0,-211.0,-154.0
3655,-1171,-247,0,3763.0,3869.0,-1239.0,-1299.0,-241.0,-211.0
3552,-1105,-244,0,3655.0,3763.0,-1171.0,-1239.0,-247.0,-241.0
3442,-1038,-225,0,3552.0,3655.0,-1105.0,-1171.0,-244.0,-247.0
3337,-979,-197,0,3442.0,3552.0,-1038.0,-1105.0,-225.0,-244.0
3239,-935,-157,0,3337.0,3442.0,-979.0,-1038.0,-197.0,-225.0
3162,-896,-100,0,3239.0,3337.0,-935.0,-979.0,-157.0,-197.0
3092,-839,-29,0,3162.0,3239.0,-896.0,-935.0,-100.0,-157.0
3040,-791,36,0,3092.0,3162.0,-839.0,-896.0,-29.0,-100.0
3009,-756,85,0,3040.0,3092.0,-791.0,-839.0,36.0,-29.0
2985,-722,112,0,3009.0,3040.0,-756.0,-791.0,85.0,36.0
2964,-686,125,0,2985.0,3009.0,-722.0,-756.0,112.0,85.0
2944,-647,140,0,2964.0,2985.0,-686.0,-722.0,125.0,112.0
2922,-583,160,0,2944.0,2964.0,-647.0,-686.0,140.0,125.0
2896,-509,178,0,2922.0,2944.0,-583.0,-647.0,160.0,140.0
2878,-430,193,0,2896.0,2922.0,-509.0,-583.0,178.0,160.0
2862,-363,201,0,2878.0,2896.0,-430.0,-509.0,193.0,178.0
2849,-297,211,0,2862.0,2878.0,-363.0,-430.0,201.0,193.0
2835,-238,208,0,2849.0,2862.0,-297.0,-363.0,211.0,201.0
2818,-188,206,0,2835.0,2849.0,-238.0,-297.0,208.0,211.0
2797,-145,195,0,2818.0,2835.0,-188.0,-238.0,206.0,208.0
2766,-110,180,0,2797.0,2818.0,-145.0,-188.0,195.0,206.0
2740,-77,165,0,2766.0,2797.0,-110.0,-145.0,180.0,195.0
2704,-45,148,0,2740.0,2766.0,-77.0,-110.0,165.0,180.0
2669,-21,139,0,2704.0,2740.0,-45.0,-77.0,148.0,165.0
2635,-9,143,0,2669.0,2704.0,-21.0,-45.0,139.0,148.0
2601,3,160,0,2635.0,2669.0,-9.0,-21.0,143.0,139.0
2572,9,190,0,2601.0,2635.0,3.0,-9.0,160.0,143.0
2545,12,233,0,2572.0,2601.0,9.0,3.0,190.0,160.0
2521,12,279,0,2545.0,2572.0,12.0,9.0,233.0,190.0
2503,12,330,0,2521.0,2545.0,12.0,12.0,279.0,233.0
2493,14,394,0,2503.0,2521.0,12.0,12.0,330.0,279.0
2492,14,469,0,2493.0,2503.0,14.0,12.0,394.0,330.0
2499,14,556,0,2492.0,2493.0,14.0,14.0,469.0,394.0
2516,13,646,0,2499.0,2492.0,14.0,14.0,556.0,469.0
2544,9,729,0,2516.0,2499.0,13.0,14.0,646.0,556.0
2583,1,809,0,2544.0,2516.0,9.0,13.0,729.0,646.0
2624,-10,878,0,2583.0,2544.0,1.0,9.0,809.0,729.0
2670,-23,932,0,2624.0,2583.0,-10.0,1.0,878.0,809.0
2717,-33,971,0,2670.0,2624.0,-23.0,-10.0,932.0,878.0
2759,-44,983,0,2717.0,2670.0,-33.0,-23.0,971.0,932.0
2796,-66,960,0,2759.0,2717.0,-44.0,-33.0,983.0,971.0
2826,-89,899,0,2796.0,2759.0,-66.0,-44.0,960.0,983.0
2827,-107,825,0,2826.0,2796.0,-89.0,-66.0,899.0,960.0
2817,-117,753,0,2827.0,2826.0,-107.0,-89.0,825.0,899.0
2798,-131,685,0,2817.0,2827.0,-117.0,-107.0,753.0,825.0
2781,-149,625,0,2798.0,2817.0,-131.0,-117.0,685.0,753.0
2767,-181,550,0,2781.0,2798.0,-149.0,-131.0,625.0,685.0
2756,-221,459,0,2767.0,2781.0,-181.0,-149.0,550.0,625.0
2745,-274,371,0,2756.0,2767.0,-221.0,-181.0,459.0,550.0
2733,-320,304,0,2745.0,2756.0,-274.0,-221.0,371.0,459.0
2720,-362,290,0,2733.0,2745.0,-320.0,-274.0,304.0,371.0
2725,-403,308,0,2720.0,2733.0,-362.0,-320.0,290.0,304.0
2728,-444,339,0,2725.0,2720.0,-403.0,-362.0,308.0,290.0
2741,-491,365,0,2728.0,2725.0,-444.0,-403.0,339.0,308.0
2753,-546,386,0,2741.0,2728.0,-491.0,-444.0,365.0,339.0
2775,-604,398,0,2753.0,2741.0,-546.0,-491.0,386.0,365.0
2798,-646,405,0,2775.0,2753.0,-604.0,-546.0,398.0,386.0
2833,-674,402,0,2798.0,2775.0,-646.0,-604.0,405.0,398.0
2878,-681,390,0,2833.0,2798.0,-674.0,-646.0,402.0,405.0
2942,-658,376,0,2878.0,2833.0,-681.0,-674.0,390.0,402.0
3019,-593,344,0,2942.0,2878.0,-658.0,-681.0,376.0,390.0
3125,-488,332,0,3019.0,2942.0,-593.0,-658.0,344.0,376.0
3270,-368,308,0,3125.0,3019.0,-488.0,-593.0,332.0,344.0
3452,-252,272,0,3270.0,3125.0,-368.0,-488.0,308.0,332.0
3636,-132,305,0,3452.0,3270.0,-252.0,-368.0,272.0,308.0
3798,-30,427,0,3636.0,3452.0,-132.0,-252.0,305.0,272.0
3925,51,598,0,3798.0,3636.0,-30.0,-132.0,427.0,305.0
4016,104,784,0,3925.0,3798.0,51.0,-30.0,598.0,427.0
4077,151,951,0,4016.0,3925.0,104.0,51.0,784.0,598.0
4101,185,1083,0,4077.0,4016.0,151.0,104.0,951.0,784.0
4096,201,1168,0,4101.0,4077.0,185.0,151.0,1083.0,951.0
4054,212,1204,0,4096.0,4101.0,201.0,185.0,1168.0,1083.0
4005,185,1223,0,4054.0,4096.0,212.0,201.0,1204.0,1168.0
3977,109,1226,0,4005.0,4054.0,185.0,212.0,1223.0,1204.0
3979,-28,1190,0,3977.0,4005.0,109.0,185.0,1226.0,1223.0
4006,-252,1086,0,3979.0,3977.0,-28.0,109.0,1190.0,1226.0
4083,-596,874,0,4006.0,3979.0,-252.0,-28.0,1086.0,1190.0
4277,-1039,631,0,4083.0,4006.0,-596.0,-252.0,874.0,1086.0
4600,-1513,333,0,4277.0,4083.0,-1039.0,-596.0,631.0,874.0
4973,-1906,-18,0,4600.0,4277.0,-1513.0,-1039.0,333.0,631.0
5415,-2142,-274,0,4973.0,4600.0,-1906.0,-1513.0,-18.0,333.0
5928,-2186,-417,0,5415.0,4973.0,-2142.0,-1906.0,-274.0,-18.0
6444,-1946,-476,0,5928.0,5415.0,-2186.0,-2142.0,-417.0,-274.0
6914,-1445,-424,0,6444.0,5928.0,-1946.0,-2186.0,-476.0,-417.0
7310,-881,-269,0,6914.0,6444.0,-1445.0,-1946.0,-424.0,-476.0
7570,-390,-136,0,7310.0,6914.0,-881.0,-1445.0,-269.0,-424.0
7650,-27,-96,0,7570.0,7310.0,-390.0,-881.0,-136.0,-269.0
7565,214,-157,0,7650.0,7570.0,-27.0,-390.0,-96.0,-136.0
7358,380,-323,0,7565.0,7650.0,214.0,-27.0,-157.0,-96.0
7089,504,-574,0,7358.0,7565.0,380.0,214.0,-323.0,-157.0
6778,634,-861,0,7089.0,7358.0,504.0,380.0,-574.0,-323.0
6451,767,-1105,0,6778.0,7089.0,634.0,504.0,-861.0,-574.0
6162,853,-1257,0,6451.0,6778.0,767.0,634.0,-1105.0,-861.0
5962,830,-1320,0,6162.0,6451.0,853.0,767.0,-1257.0,-1105.0
5855,711,-1313,0,5962.0,6162.0,830.0,853.0,-1320.0,-1257.0
5833,512,-1229,0,5855.0,5962.0,711.0,830.0,-1313.0,-1320.0
5872,273,-1103,0,5833.0,5855.0,512.0,711.0,-1229.0,-1313.0
5938,69,-982,0,5872.0,5833.0,273.0,512.0,-1103.0,-1229.0
5989,-47,-911,0,5938.0,5872.0,69.0,273.0,-982.0,-1103.0
6019,-84,-886,0,5989.0,5938.0,-47.0,69.0,-911.0,-982.0
6026,-60,-907,0,6019.0,5989.0,-84.0,-47.0,-886.0,-911.0
5995,-16,-958,0,6026.0,6019.0,-60.0,-84.0,-907.0,-886.0
5917,31,-989,0,5995.0,6026.0,-16.0,-60.0,-958.0,-907.0
5797,59,-951,0,5917.0,5995.0,31.0,-16.0,-989.0,-958.0
5638,62,-854,0,5797.0,5917.0,59.0,31.0,-951.0,-989.0
5444,40,-748,0,5638.0,5797.0,62.0,59.0,-854.0,-951.0
5222,43,-619,0,5444.0,5638.0,40.0,62.0,-748.0,-854.0
4985,54,-476,0,5222.0,5444.0,43.0,40.0,-619.0,-748.0
4751,52,-334,0,4985.0,5222.0,54.0,43.0,-476.0,-619.0
4545,24,-221,0,4751.0,4985.0,52.0,54.0,-334.0,-476.0
4357,-22,-126,0,4545.0,4751.0,24.0,52.0,-221.0,-334.0
4202,-86,-62,0,4357.0,4545.0,-22.0,24.0,-126.0,-221.0
4055,-161,-28,0,4202.0,4357.0,-86.0,-22.0,-62.0,-126.0
3937,-246,-10,0,4055.0,4202.0,-161.0,-86.0,-28.0,-62.0
3847,-339,-6,0,3937.0,4055.0,-246.0,-161.0,-10.0,-28.0
3780,-409,-25,0,3847.0,3937.0,-339.0,-246.0,-6.0,-10.0
3741,-453,-49,0,3780.0,3847.0,-409.0,-339.0,-25.0,-6.0
3722,-453,-86,0,3741.0,3780.0,-453.0,-409.0,-49.0,-25.0
3725,-411,-142,0,3722.0,3741.0,-453.0,-453.0,-86.0,-49.0
3754,-341,-224,0,3725.0,3722.0,-411.0,-453.0,-142.0,-86.0
3801,-245,-318,0,3754.0,3725.0,-341.0,-411.0,-224.0,-142.0
3861,-126,-423,0,3801.0,3754.0,-245.0,-341.0,-318.0,-224.0
3935,-1,-533,0,3861.0,3801.0,-126.0,-245.0,-423.0,-318.0
3998,141,-636,0,3935.0,3861.0,-1.0,-126.0,-533.0,-423.0
4050,292,-704,0,3998.0,3935.0,141.0,-1.0,-636.0,-533.0
4083,421,-751,0,4050.0,3998.0,292.0,141.0,-704.0,-636.0
4107,518,-796,0,4083.0,4050.0,421.0,292.0,-751.0,-704.0
4111,588,-839,0,4107.0,4083.0,518.0,421.0,-796.0,-751.0
4105,633,-870,0,4111.0,4107.0,588.0,518.0,-839.0,-796.0
4083,644,-888,0,4105.0,4111.0,633.0,588.0,-870.0,-839.0
4055,638,-883,0,4083.0,4105.0,644.0,633.0,-888.0,-870.0
4023,608,-855,0,4055.0,4083.0,638.0,644.0,-883.0,-888.0
3991,556,-806,0,4023.0,4055.0,608.0,638.0,-855.0,-883.0
3961,483,-746,0,3991.0,4023.0,556.0,608.0,-806.0,-855.0
3937,401,-668,0,3961.0,3991.0,483.0,556.0,-746.0,-806.0
3906,312,-582,0,3937.0,3961.0,401.0,483.0,-668.0,-746.0
3877,220,-490,0,3906.0,3937.0,312.0,401.0,-582.0,-668.0
3838,133,-403,0,3877.0,3906.0,220.0,312.0,-490.0,-582.0
3795,49,-334,0,3838.0,3877.0,133.0,220.0,-403.0,-490.0
3746,-28,-277,0,3795.0,3838.0,49.0,133.0,-334.0,-403.0
3695,-103,-237,0,3746.0,3795.0,-28.0,49.0,-277.0,-334.0
3633,-160,-211,0,3695.0,3746.0,-103.0,-28.0,-237.0,-277.0
3558,-201,-197,0,3633.0,3695.0,-160.0,-103.0,-211.0,-237.0
3484,-228,-202,0,3558.0,3633.0,-201.0,-160.0,-197.0,-211.0
3411,-244,-221,0,3484.0,3558.0,-228.0,-201.0,-202.0,-197.0
3340,-251,-250,0,3411.0,3484.0,-244.0,-228.0,-221.0,-202.0
3275,-253,-289,0,3340.0,3411.0,-251.0,-244.0,-250.0,-221.0
3216,-262,-333,0,3275.0,3340.0,-253.0,-251.0,-289.0,-250.0
3173,-269,-373,0,3216.0,3275.0,-262.0,-253.0,-333.0,-289.0
3144,-277,-408,0,3173.0,3216.0,-269.0,-262.0,-373.0,-333.0
3135,-281,-434,0,3144.0,3173.0,-277.0,-269.0,-408.0,-373.0
3141,-278,-454,0,3135.0,3144.0,-281.0,-277.0,-434.0,-408.0
3166,-266,-465,0,3141.0,3135.0,-278.0,-281.0,-454.0,-434.0
3215,-244,-463,0,3166.0,3141.0,-266.0,-278.0,-465.0,-454.0
3282,-209,-455,0,3215.0,3166.0,-244.0,-266.0,-463.0,-465.0
3361,-159,-452,0,3282.0,3215.0,-209.0,-244.0,-455.0,-463.0
3441,-109,-433,0,3361.0,3282.0,-159.0,-209.0,-452.0,-455.0
3514,-56,-391,0,3441.0,3361.0,-109.0,-159.0,-433.0,-452.0
3572,-5,-345,0,3514.0,3441.0,-56.0,-109.0,-391.0,-433.0
3616,44,-295,0,3572.0,3514.0,-5.0,-56.0,-345.0,-391.0
3637,84,-252,0,3616.0,3572.0,44.0,-5.0,-295.0,-345.0
3639,119,-208,0,3637.0,3616.0,84.0,44.0,-252.0,-295.0
3621,146,-161,0,3639.0,3637.0,119.0,84.0,-208.0,-252.0
3591,172,-124,0,3621.0,3639.0,146.0,119.0,-161.0,-208.0
3541,206,-89,0,3591.0,3621.0,172.0,146.0,-124.0,-161.0
3469,247,-61,0,3541.0,3591.0,206.0,172.0,-89.0,-124.0
3387,291,-25,0,3469.0,3541.0,247.0,206.0,-61.0,-89.0
3306,326,22,0,3387.0,3469.0,291.0,247.0,-25.0,-61.0
3237,340,70,0,3306.0,3387.0,326.0,291.0,22.0,-25.0
3192,346,106,0,3237.0,3306.0,340.0,326.0,70.0,22.0
3173,342,145,0,3192.0,3237.0,346.0,340.0,106.0,70.0
3181,347,182,0,3173.0,3192.0,342.0,346.0,145.0,106.0
3212,364,231,0,3181.0,3173.0,347.0,342.0,182.0,145.0
3262,394,278,0,3212.0,3181.0,364.0,347.0,231.0,182.0
3326,426,325,0,3262.0,3212.0,394.0,364.0,278.0,231.0
3399,456,338,0,3326.0,3262.0,426.0,394.0,325.0,278.0
3465,484,305,0,3399.0,3326.0,456.0,426.0,338.0,325.0
3520,509,253,0,3465.0,3399.0,484.0,456.0,305.0,338.0
3558,544,194,0,3520.0,3465.0,509.0,484.0,253.0,305.0
3579,569,133,0,3558.0,3520.0,544.0,509.0,194.0,253.0
3606,577,79,0,3579.0,3558.0,569.0,544.0,133.0,194.0
3616,566,11,0,3606.0,3579.0,577.0,569.0,79.0,133.0
3626,526,-69,0,3616.0,3606.0,566.0,577.0,11.0,79.0
3627,466,-149,0,3626.0,3616.0,526.0,566.0,-69.0,11.0
3620,397,-207,0,3627.0,3626.0,466.0,526.0,-149.0,-69.0
3607,344,-241,0,3620.0,3627.0,397.0,466.0,-207.0,-149.0
3580,303,-251,0,3607.0,3620.0,344.0,397.0,-241.0,-207.0
3546,271,-249,0,3580.0,3607.0,303.0,344.0,-251.0,-241.0
3491,244,-249,0,3546.0,3580.0,271.0,303.0,-249.0,-251.0
3418,220,-261,0,3491.0,3546.0,244.0,271.0,-249.0,-249.0
3333,197,-270,0,3418.0,3491.0,220.0,244.0,-261.0,-249.0
3227,200,-265,0,3333.0,3418.0,197.0,220.0,-270.0,-261.0
3108,211,-215,0,3227.0,3333.0,200.0,197.0,-265.0,-270.0
2998,221,-125,0,3108.0,3227.0,211.0,200.0,-215.0,-265.0
2895,225,8,0,2998.0,3108.0,221.0,211.0,-125.0,-215.0
2815,229,174,0,2895.0,2998.0,225.0,221.0,8.0,-125.0
2750,224,349,0,2815.0,2895.0,229.0,225.0,174.0,8.0
2707,194,490,0,2750.0,2815.0,224.0,229.0,349.0,174.0
2696,148,586,0,2707.0,2750.0,194.0,224.0,490.0,349.0
2724,102,650,0,2696.0,2707.0,148.0,194.0,586.0,490.0
2785,79,685,0,2724.0,2696.0,102.0,148.0,650.0,586.0
2876,87,714,0,2785.0,2724.0,79.0,102.0,685.0,650.0
2987,130,735,0,2876.0,2785.0,87.0,79.0,714.0,685.0
3116,180,725,0,2987.0,2876.0,130.0,87.0,735.0,714.0
3254,230,655,0,3116.0,2987.0,180.0,130.0,725.0,735.0
3388,264,545,0,3254.0,3116.0,230.0,180.0,655.0,725.0
3499,292,424,0,3388.0,3254.0,264.0,230.0,545.0,655.0
3572,344,300,0,3499.0,3388.0,292.0,264.0,424.0,545.0
3612,407,204,0,3572.0,3499.0,344.0,292.0,300.0,424.0
3622,471,127,0,3612.0,3572.0,407.0,344.0,204.0,300.0
3593,528,78,0,3622.0,3612.0,471.0,407.0,127.0,204.0
3536,595,47,0,3593.0,3622.0,528.0,471.0,78.0,127.0
3461,684,67,0,3536.0,3593.0,595.0,528.0,47.0,78.0
3392,770,109,0,3461.0,3536.0,684.0,595.0,67.0,47.0
3348,846,147,0,3392.0,3461.0,770.0,684.0,109.0,67.0
3321,917,144,0,3348.0,3392.0,846.0,770.0,147.0,109.0
3310,980,81,0,3321.0,3348.0,917.0,846.0,144.0,147.0
3325,1023,-31,0,3310.0,3321.0,980.0,917.0,81.0,144.0
3384,1018,-185,0,3325.0,3310.0,1023.0,980.0,-31.0,81.0
3483,954,-391,0,3384.0,3325.0,1018.0,1023.0,-185.0,-31.0
3646,791,-663,0,3483.0,3384.0,954.0,1018.0,-391.0,-185.0
3894,554,-1017,0,3646.0,3483.0,791.0,954.0,-663.0,-391.0
4254,311,-1407,0,3894.0,3646.0,554.0,791.0,-1017.0,-663.0
4717,100,-1755,0,4254.0,3894.0,311.0,554.0,-1407.0,-1017.0
5253,-109,-2003,0,4717.0,4254.0,100.0,311.0,-1755.0,-1407.0
5812,-340,-2098,0,5253.0,4717.0,-109.0,100.0,-2003.0,-1755.0
6326,-594,-2048,0,5812.0,5253.0,-340.0,-109.0,-2098.0,-2003.0
6748,-869,-1820,0,6326.0,5812.0,-594.0,-340.0,-2048.0,-2098.0
7015,-1110,-1452,0,6748.0,6326.0,-869.0,-594.0,-1820.0,-2048.0
7088,-1237,-1044,0,7015.0,6748.0,-1110.0,-869.0,-1452.0,-1820.0
6958,-1225,-680,0,7088.0,7015.0,-1237.0,-1110.0,-1044.0,-1452.0
6636,-1092,-391,0,6958.0,7088.0,-1225.0,-1237.0,-680.0,-1044.0
6187,-894,-193,0,6636.0,6958.0,-1092.0,-1225.0,-391.0,-680.0
5691,-734,-99,0,6187.0,6636.0,-894.0,-1092.0,-193.0,-391.0
5215,-660,-130,0,5691.0,6187.0,-734.0,-894.0,-99.0,-193.0
4815,-691,-268,0,5215.0,5691.0,-660.0,-734.0,-130.0,-99.0
4543,-806,-441,0,4815.0,5215.0,-691.0,-660.0,-268.0,-130.0
4407,-967,-569,0,4543.0,4815.0,-806.0,-691.0,-441.0,-268.0
4416,-1159,-616,0,4407.0,4543.0,-967.0,-806.0,-569.0,-441.0
4572,-1426,-605,0,4416.0,4407.0,-1159.0,-967.0,-616.0,-569.0
4864,-1785,-575,0,4572.0,4416.0,-1426.0,-1159.0,-605.0,-616.0
5293,-2202,-539,0,4864.0,4572.0,-1785.0,-1426.0,-575.0,-605.0
5863,-2579,-470,0,5293.0,4864.0,-2202.0,-1785.0,-539.0,-575.0
6535,-2817,-294,0,5863.0,5293.0,-2579.0,-2202.0,-470.0,-539.0
7232,-2866,-21,0,6535.0,5863.0,-2817.0,-2579.0,-294.0,-470.0
7836,-2706,261,0,7232.0,6535.0,-2866.0,-2817.0,-21.0,-294.0
8273,-2333,497,0,7836.0,7232.0,-2706.0,-2866.0,261.0,-21.0
8442,-1804,654,0,8273.0,7836.0,-2333.0,-2706.0,497.0,261.0
8332,-1261,712,0,8442.0,8273.0,-1804.0,-2333.0,654.0,497.0
7987,-805,673,0,8332.0,8442.0,-1261.0,-1804.0,712.0,654.0
7483,-476,550,0,7987.0,8332.0,-805.0,-1261.0,673.0,712.0
6907,-270,357,0,7483.0,7987.0,-476.0,-805.0,550.0,673.0
6336,-167,132,0,6907.0,7483.0,-270.0,-476.0,357.0,550.0
5798,-121,-83,0,6336.0,6907.0,-167.0,-270.0,132.0,357.0
5322,-109,-267,0,5798.0,6336.0,-121.0,-167.0,-83.0,132.0
4930,-113,-391,0,5322.0,5798.0,-109.0,-121.0,-267.0,-83.0
4630,-111,-461,0,4930.0,5322.0,-113.0,-109.0,-391.0,-267.0
4419,-113,-486,0,4630.0,4930.0,-111.0,-113.0,-461.0,-391.0
4293,-119,-485,0,4419.0,4630.0,-113.0,-111.0,-486.0,-461.0
4244,-130,-434,0,4293.0,4419.0,-119.0,-113.0,-485.0,-486.0
4262,-131,-339,0,4244.0,4293.0,-130.0,-119.0,-434.0,-485.0
4330,-116,-217,0,4262.0,4244.0,-131.0,-130.0,-339.0,-434.0
4421,-100,-106,0,4330.0,4262.0,-116.0,-131.0,-217.0,-339.0
4489,-105,-26,0,4421.0,4330.0,-100.0,-116.0,-106.0,-217.0
4529,-141,29,0,4489.0,4421.0,-105.0,-100.0,-26.0,-106.0
4533,-182,68,0,4529.0,4489.0,-141.0,-105.0,29.0,-26.0
4497,-217,119,0,4533.0,4529.0,-182.0,-141.0,68.0,29.0
4449,-255,162,0,4497.0,4533.0,-217.0,-182.0,119.0,68.0
4386,-275,185,0,4449.0,4497.0,-255.0,-217.0,162.0,119.0
4306,-300,184,0,4386.0,4449.0,-275.0,-255.0,185.0,162.0
4210,-339,183,0,4306.0,4386.0,-300.0,-275.0,184.0,185.0
4104,-395,172,0,4210.0,4306.0,-339.0,-300.0,183.0,184.0
3976,-466,160,0,4104.0,4210.0,-395.0,-339.0,172.0,183.0
3836,-544,147,0,3976.0,4104.0,-466.0,-395.0,160.0,172.0
3687,-635,126,0,3836.0,3976.0,-544.0,-466.0,147.0,160.0
3527,-725,99,0,3687.0,3836.0,-635.0,-544.0,126.0,147.0
3362,-803,64,0,3527.0,3687.0,-725.0,-635.0,99.0,126.0
3195,-868,30,0,3362.0,3527.0,-803.0,-725.0,64.0,99.0
3033,-917,-7,0,3195.0,3362.0,-868.0,-803.0,30.0,64.0
2878,-949,-39,0,3033.0,3195.0,-917.0,-868.0,-7.0,30.0
2742,-973,-65,0,2878.0,3033.0,-949.0,-917.0,-39.0,-7.0
2620,-990,-81,0,2742.0,2878.0,-973.0,-949.0,-65.0,-39.0
2513,-1000,-76,0,2620.0,2742.0,-990.0,-973.0,-81.0,-65.0
2423,-1026,-72,0,2513.0,2620.0,-1000.0,-990.0,-76.0,-81.0
2346,-1019,-42,0,2423.0,2513.0,-1026.0,-1000.0,-72.0,-76.0
2301,-1015,-18,0,2346.0,2423.0,-1019.0,-1026.0,-42.0,-72.0
2274,-1009,10,0,2301.0,2346.0,-1015.0,-1019.0,-18.0,-42.0
2274,-1004,48,0,2274.0,2301.0,-1009.0,-1015.0,10.0,-18.0
2284,-972,110,0,2274.0,2274.0,-1004.0,-1009.0,48.0,10.0
2298,-919,165,0,2284.0,2274.0,-972.0,-1004.0,110.0,48.0
2310,-854,215,0,2298.0,2284.0,-919.0,-972.0,165.0,110.0
2323,-766,264,0,2310.0,2298.0,-854.0,-919.0,215.0,165.0
2335,-664,298,0,2323.0,2310.0,-766.0,-854.0,264.0,215.0
2353,-557,319,0,2335.0,2323.0,-664.0,-766.0,298.0,264.0
2378,-457,338,0,2353.0,2335.0,-557.0,-664.0,319.0,298.0
2418,-368,366,0,2378.0,2353.0,-457.0,-557.0,338.0,319.0
2468,-300,399,0,2418.0,2378.0,-368.0,-457.0,366.0,338.0
2527,-253,432,0,2468.0,2418.0,-300.0,-368.0,399.0,366.0
2589,-219,450,0,2527.0,2468.0,-253.0,-300.0,432.0,399.0
2660,-196,462,0,2589.0,2527.0,-219.0,-253.0,450.0,432.0
2727,-184,450,0,2660.0,2589.0,-196.0,-219.0,462.0,450.0
2794,-176,413,0,2727.0,2660.0,-184.0,-196.0,450.0,462.0
2854,-186,334,0,2794.0,2727.0,-176.0,-184.0,413.0,450.0
2901,-216,243,0,2854.0,2794.0,-186.0,-176.0,334.0,413.0
2930,-249,161,0,2901.0,2854.0,-216.0,-186.0,243.0,334.0
2945,-284,90,0,2930.0,2901.0,-249.0,-216.0,161.0,243.0
2955,-327,19,0,2945.0,2930.0,-284.0,-249.0,90.0,161.0
2957,-380,-63,0,2955.0,2945.0,-327.0,-284.0,19.0,90.0
2962,-438,-148,0,2957.0,2955.0,-380.0,-327.0,-63.0,19.0
2959,-505,-223,0,2962.0,2957.0,-438.0,-380.0,-148.0,-63.0
2975,-585,-262,0,2959.0,2962.0,-505.0,-438.0,-223.0,-148.0
2984,-679,-296,0,2975.0,2959.0,-585.0,-505.0,-262.0,-223.0
2994,-772,-299,0,2984.0,2975.0,-679.0,-585.0,-296.0,-262.0
2996,-842,-255,0,2994.0,2984.0,-772.0,-679.0,-299.0,-296.0
2992,-894,-183,0,2996.0,2994.0,-842.0,-772.0,-255.0,-299.0
2982,-929,-110,0,2992.0,2996.0,-894.0,-842.0,-183.0,-255.0
2965,-941,-50,0,2982.0,2992.0,-929.0,-894.0,-110.0,-183.0
2948,-938,-1,0,2965.0,2982.0,-941.0,-929.0,-50.0,-110.0
2921,-924,32,0,2948.0,2965.0,-938.0,-941.0,-1.0,-50.0
2898,-910,42,0,2921.0,2948.0,-924.0,-938.0,32.0,-1.0
2895,-882,24,0,2898.0,2921.0,-910.0,-924.0,42.0,32.0
2924,-842,-19,0,2895.0,2898.0,-882.0,-910.0,24.0,42.0
2981,-775,-81,0,2924.0,2895.0,-842.0,-882.0,-19.0,24.0
3078,-688,-156,0,2981.0,2924.0,-775.0,-842.0,-81.0,-19.0
3211,-587,-194,0,3078.0,2981.0,-688.0,-775.0,-156.0,-81.0
3364,-480,-174,0,3211.0,3078.0,-587.0,-688.0,-194.0,-156.0
3529,-366,-106,0,3364.0,3211.0,-480.0,-587.0,-174.0,-194.0
3694,-265,-2,0,3529.0,3364.0,-366.0,-480.0,-106.0,-174.0
3853,-185,121,0,3694.0,3529.0,-265.0,-366.0,-2.0,-106.0
3981,-128,244,0,3853.0,3694.0,-185.0,-265.0,121.0,-2.0
4093,-85,345,0,3981.0,3853.0,-128.0,-185.0,244.0,121.0
4174,-56,418,0,4093.0,3981.0,-85.0,-128.0,345.0,244.0
4224,-27,472,0,4174.0,4093.0,-56.0,-85.0,418.0,345.0
4250,20,502,0,4224.0,4174.0,-27.0,-56.0,472.0,418.0
4243,76,504,0,4250.0,4224.0,20.0,-27.0,502.0,472.0
4204,138,488,0,4243.0,4250.0,76.0,20.0,504.0,502.0
4156,212,467,0,4204.0,4243.0,138.0,76.0,488.0,504.0
4091,293,452,0,4156.0,4204.0,212.0,138.0,467.0,488.0
4014,370,450,0,4091.0,4156.0,293.0,212.0,452.0,467.0
3938,434,450,0,4014.0,4091.0,370.0,293.0,450.0,452.0
3853,483,454,0,3938.0,4014.0,434.0,370.0,450.0,450.0
3774,514,444,0,3853.0,3938.0,483.0,434.0,454.0,450.0
3693,543,426,0,3774.0,3853.0,514.0,483.0,444.0,454.0
3612,583,412,0,3693.0,3774.0,543.0,514.0,426.0,444.0
3538,620,408,0,3612.0,3693.0,583.0,543.0,412.0,426.0
3483,660,424,0,3538.0,3612.0,620.0,583.0,408.0,412.0
3437,685,444,0,3483.0,3538.0,660.0,620.0,424.0,408.0
3407,710,469,0,3437.0,3483.0,685.0,660.0,444.0,424.0
3397,719,508,0,3407.0,3437.0,710.0,685.0,469.0,444.0
3390,723,571,0,3397.0,3407.0,719.0,710.0,508.0,469.0
3394,717,644,0,3390.0,3397.0,723.0,719.0,571.0,508.0
3414,687,711,0,3394.0,3390.0,717.0,723.0,644.0,571.0
3440,645,782,0,3414.0,3394.0,687.0,717.0,711.0,644.0
3466,589,850,0,3440.0,3414.0,645.0,687.0,782.0,711.0
3497,498,907,0,3466.0,3440.0,589.0,645.0,850.0,782.0
3547,344,893,0,3497.0,3466.0,498.0,589.0,907.0,850.0
3611,140,799,0,3547.0,3497.0,344.0,498.0,893.0,907.0
3697,-113,664,0,3611.0,3547.0,140.0,344.0,799.0,893.0
3810,-393,501,0,3697.0,3611.0,-113.0,140.0,664.0,799.0
3953,-649,337,0,3810.0,3697.0,-393.0,-113.0,501.0,664.0
4141,-878,202,0,3953.0,3810.0,-649.0,-393.0,337.0,501.0
4390,-1139,30,0,4141.0,3953.0,-878.0,-649.0,202.0,337.0
4699,-1443,-225,0,4390.0,4141.0,-1139.0,-878.0,30.0,202.0
5044,-1718,-421,0,4699.0,4390.0,-1443.0,-1139.0,-225.0,30.0
5420,-1842,-436,0,5044.0,4699.0,-1718.0,-1443.0,-421.0,-225.0
5815,-1798,-348,0,5420.0,5044.0,-1842.0,-1718.0,-436.0,-421.0
6198,-1631,-288,0,5815.0,5420.0,-1798.0,-1842.0,-348.0,-436.0
6546,-1414,-263,0,6198.0,5815.0,-1631.0,-1798.0,-288.0,-348.0
6795,-1217,-282,0,6546.0,6198.0,-1414.0,-1631.0,-263.0,-288.0
6899,-1069,-339,0,6795.0,6546.0,-1217.0,-1414.0,-282.0,-263.0
6874,-970,-401,0,6899.0,6795.0,-1069.0,-1217.0,-339.0,-282.0
6712,-880,-505,0,6874.0,6899.0,-970.0,-1069.0,-401.0,-339.0
6451,-827,-717,0,6712.0,6874.0,-880.0,-970.0,-505.0,-401.0
6145,-799,-1037,0,6451.0,6712.0,-827.0,-880.0,-717.0,-505.0
5841,-711,-1345,0,6145.0,6451.0,-799.0,-827.0,-1037.0,-717.0
5561,-518,-1543,0,5841.0,6145.0,-711.0,-799.0,-1345.0,-1037.0
5311,-249,-1610,0,5561.0,5841.0,-518.0,-711.0,-1543.0,-1345.0
5098,28,-1596,0,5311.0,5561.0,-249.0,-518.0,-1610.0,-1543.0
4938,212,-1534,0,5098.0,5311.0,28.0,-249.0,-1596.0,-1610.0
4841,260,-1450,0,4938.0,5098.0,212.0,28.0,-1534.0,-1596.0
4801,247,-1314,0,4841.0,4938.0,260.0,212.0,-1450.0,-1534.0
4804,214,-1148,0,4801.0,4841.0,247.0,260.0,-1314.0,-1450.0
4838,177,-982,0,4804.0,4801.0,214.0,247.0,-1148.0,-1314.0
4914,180,-840,0,4838.0,4804.0,177.0,214.0,-982.0,-1148.0
5030,203,-759,0,4914.0,4838.0,180.0,177.0,-840.0,-982.0
5180,228,-766,0,5030.0,4914.0,203.0,180.0,-759.0,-840.0
5336,261,-847,0,5180.0,5030.0,228.0,203.0,-766.0,-759.0
5494,325,-965,0,5336.0,5180.0,261.0,228.0,-847.0,-766.0
5628,441,-1087,0,5494.0,5336.0,325.0,261.0,-965.0,-847.0
5722,618,-1197,0,5628.0,5494.0,441.0,325.0,-1087.0,-965.0
5792,839,-1279,0,5722.0,5628.0,618.0,441.0,-1197.0,-1087.0
5829,1076,-1336,0,5792.0,5722.0,839.0,618.0,-1279.0,-1197.0
5843,1293,-1357,0,5829.0,5792.0,1076.0,839.0,-1336.0,-1279.0
5824,1465,-1344,0,5843.0,5829.0,1293.0,1076.0,-1357.0,-1336.0
5788,1551,-1308,0,5824.0,5843.0,1465.0,1293.0,-1344.0,-1357.0
5740,1548,-1255,0,5788.0,5824.0,1551.0,1465.0,-1308.0,-1344.0
5661,1493,-1170,0,5740.0,5788.0,1548.0,1551.0,-1255.0,-1308.0
5565,1392,-1052,0,5661.0,5740.0,1493.0,1548.0,-1170.0,-1255.0
5455,1265,-920,0,5565.0,5661.0,1392.0,1493.0,-1052.0,-1170.0
5317,1132,-795,0,5455.0,5565.0,1265.0,1392.0,-920.0,-1052.0
5173,966,-667,0,5317.0,5455.0,1132.0,1265.0,-795.0,-920.0
5016,765,-549,0,5173.0,5317.0,966.0,1132.0,-667.0,-795.0
4859,538,-470,0,5016.0,5173.0,765.0,966.0,-549.0,-667.0
4693,306,-423,0,4859.0,5016.0,538.0,765.0,-470.0,-549.0
4532,111,-394,0,4693.0,4859.0,306.0,538.0,-423.0,-470.0
4382,-47,-388,0,4532.0,4693.0,111.0,306.0,-394.0,-423.0
4241,-166,-405,0,4382.0,4532.0,-47.0,111.0,-388.0,-394.0
4111,-256,-437,0,4241.0,4382.0,-166.0,-47.0,-405.0,-388.0
3988,-319,-481,0,4111.0,4241.0,-256.0,-166.0,-437.0,-405.0
3867,-366,-533,0,3988.0,4111.0,-319.0,-256.0,-481.0,-437.0
3751,-385,-582,0,3867.0,3988.0,-366.0,-319.0,-533.0,-481.0
3637,-396,-630,0,3751.0,3867.0,-385.0,-366.0,-582.0,-533.0
3531,-392,-674,0,3637.0,3751.0,-396.0,-385.0,-630.0,-582.0
3429,-389,-712,0,3531.0,3637.0,-392.0,-396.0,-674.0,-630.0
3340,-379,-726,0,3429.0,3531.0,-389.0,-392.0,-712.0,-674.0
3273,-379,-731,0,3340.0,3429.0,-379.0,-389.0,-726.0,-712.0
3225,-387,-723,0,3273.0,3340.0,-379.0,-379.0,-731.0,-726.0
3200,-401,-708,0,3225.0,3273.0,-387.0,-379.0,-723.0,-731.0
3194,-416,-693,0,3200.0,3225.0,-401.0,-387.0,-708.0,-723.0
3214,-430,-685,0,3194.0,3200.0,-416.0,-401.0,-693.0,-708.0
3246,-438,-675,0,3214.0,3194.0,-430.0,-416.0,-685.0,-693.0
3288,-436,-663,0,3246.0,3214.0,-438.0,-430.0,-675.0,-685.0
3334,-429,-652,0,3288.0,3246.0,-436.0,-438.0,-663.0,-675.0
3380,-420,-639,0,3334.0,3288.0,-429.0,-436.0,-652.0,-663.0
3425,-411,-624,0,3380.0,3334.0,-420.0,-429.0,-639.0,-652.0
3473,-403,-604,0,3425.0,3380.0,-411.0,-420.0,-624.0,-639.0
3522,-394,-581,0,3473.0,3425.0,-403.0,-411.0,-604.0,-624.0
3563,-379,-550,0,3522.0,3473.0,-394.0,-403.0,-581.0,-604.0
3605,-372,-514,0,3563.0,3522.0,-379.0,-394.0,-550.0,-581.0
3643,-366,-472,0,3605.0,3563.0,-372.0,-379.0,-514.0,-550.0
3670,-347,-429,0,3643.0,3605.0,-366.0,-372.0,-472.0,-514.0
3687,-328,-391,0,3670.0,3643.0,-347.0,-366.0,-429.0,-472.0
3687,-287,-369,0,3687.0,3670.0,-328.0,-347.0,-391.0,-429.0
3676,-236,-374,0,3687.0,3687.0,-287.0,-328.0,-369.0,-391.0
3650,-176,-405,0,3676.0,3687.0,-236.0,-287.0,-374.0,-369.0
3619,-101,-448,0,3650.0,3676.0,-176.0,-236.0,-405.0,-374.0
3578,-18,-504,0,3619.0,3650.0,-101.0,-176.0,-448.0,-405.0
3538,74,-562,0,3578.0,3619.0,-18.0,-101.0,-504.0,-448.0
3509,170,-616,0,3538.0,3578.0,74.0,-18.0,-562.0,-504.0
3486,257,-648,0,3509.0,3538.0,170.0,74.0,-616.0,-562.0
3476,335,-661,0,3486.0,3509.0,257.0,170.0,-648.0,-616.0
3481,400,-642,0,3476.0,3486.0,335.0,257.0,-661.0,-648.0
3497,449,-604,0,3481.0,3476.0,400.0,335.0,-642.0,-661.0
3531,470,-546,0,3497.0,3481.0,449.0,400.0,-604.0,-642.0
3575,467,-485,0,3531.0,3497.0,470.0,449.0,-546.0,-604.0
3625,448,-432,0,3575.0,3531.0,467.0,470.0,-485.0,-546.0
3676,419,-386,0,3625.0,3575.0,448.0,467.0,-432.0,-485.0
3720,390,-357,0,3676.0,3625.0,419.0,448.0,-386.0,-432.0
3770,363,-346,0,3720.0,3676.0,390.0,419.0,-357.0,-386.0
3822,356,-343,0,3770.0,3720.0,363.0,390.0,-346.0,-357.0
3869,364,-349,0,3822.0,3770.0,356.0,363.0,-343.0,-346.0
3902,386,-354,0,3869.0,3822.0,364.0,356.0,-349.0,-343.0
3925,420,-348,0,3902.0,3869.0,386.0,364.0,-354.0,-349.0
3931,474,-325,0,3925.0,3902.0,420.0,386.0,-348.0,-354.0
3925,527,-289,0,3931.0,3925.0,474.0,420.0,-325.0,-348.0
3910,555,-242,0,3925.0,3931.0,527.0,474.0,-289.0,-325.0
3895,574,-197,0,3910.0,3925.0,555.0,527.0,-242.0,-289.0
3877,586,-151,0,3895.0,3910.0,574.0,555.0,-197.0,-242.0
3863,598,-123,0,3877.0,3895.0,586.0,574.0,-151.0,-197.0
3851,606,-81,0,3863.0,3877.0,598.0,586.0,-123.0,-151.0
3839,616,-42,0,3851.0,3863.0,606.0,598.0,-81.0,-123.0
3827,646,-16,0,3839.0,3851.0,616.0,606.0,-42.0,-81.0
3813,672,-4,0,3827.0,3839.0,646.0,616.0,-16.0,-42.0
3798,695,-1,0,3813.0,3827.0,672.0,646.0,-4.0,-16.0
3775,714,-14,0,3798.0,3813.0,695.0,672.0,-1.0,-4.0
3738,713,-39,0,3775.0,3798.0,714.0,695.0,-14.0,-1.0
3703,698,-70,0,3738.0,3775.0,713.0,714.0,-39.0,-14.0
3665,659,-96,0,3703.0,3738.0,698.0,713.0,-70.0,-39.0
3626,609,-107,0,3665.0,3703.0,659.0,698.0,-96.0,-70.0
3591,554,-116,0,3626.0,3665.0,609.0,659.0,-107.0,-96.0
3563,495,-113,0,3591.0,3626.0,554.0,609.0,-116.0,-107.0
3543,445,-105,0,3563.0,3591.0,495.0,554.0,-113.0,-116.0
3529,392,-88,0,3543.0,3563.0,445.0,495.0,-105.0,-113.0
3520,345,-76,0,3529.0,3543.0,392.0,445.0,-88.0,-105.0
3512,302,-64,0,3520.0,3529.0,345.0,392.0,-76.0,-88.0
3493,270,-49,0,3512.0,3520.0,302.0,345.0,-64.0,-76.0
3470,247,-33,0,3493.0,3512.0,270.0,302.0,-49.0,-64.0
3436,233,-15,0,3470.0,3493.0,247.0,270.0,-33.0,-49.0
3409,219,-2,0,3436.0,3470.0,233.0,247.0,-15.0,-33.0
3386,184,-7,0,3409.0,3436.0,219.0,233.0,-2.0,-15.0
3376,130,-27,0,3386.0,3409.0,184.0,219.0,-7.0,-2.0
3383,86,-54,0,3376.0,3386.0,130.0,184.0,-27.0,-7.0
3406,61,-69,0,3383.0,3376.0,86.0,130.0,-54.0,-27.0
3443,50,-71,0,3406.0,3383.0,61.0,86.0,-69.0,-54.0
3495,47,-70,0,3443.0,3406.0,50.0,61.0,-71.0,-69.0
3558,53,-73,0,3495.0,3443.0,47.0,50.0,-70.0,-71.0
3617,71,-85,0,3558.0,3495.0,53.0,47.0,-73.0,-70.0
3679,87,-127,0,3617.0,3558.0,71.0,53.0,-85.0,-73.0
3723,103,-192,0,3679.0,3617.0,87.0,71.0,-127.0,-85.0
3755,119,-262,0,3723.0,3679.0,103.0,87.0,-192.0,-127.0
3762,144,-316,0,3755.0,3723.0,119.0,103.0,-262.0,-192.0
3745,188,-332,0,3762.0,3755.0,144.0,119.0,-316.0,-262.0
3704,234,-327,0,3745.0,3762.0,188.0,144.0,-332.0,-316.0
3646,257,-334,0,3704.0,3745.0,234.0,188.0,-327.0,-332.0
3574,261,-359,0,3646.0,3704.0,257.0,234.0,-334.0,-327.0
3483,262,-371,0,3574.0,3646.0,261.0,257.0,-359.0,-334.0
3381,275,-352,0,3483.0,3574.0,262.0,261.0,-371.0,-359.0
3287,291,-317,0,3381.0,3483.0,275.0,262.0,-352.0,-371.0
3200,306,-286,0,3287.0,3381.0,291.0,275.0,-317.0,-352.0
3131,310,-251,0,3200.0,3287.0,306.0,291.0,-286.0,-317.0
3079,300,-200,0,3131.0,3200.0,310.0,306.0,-251.0,-286.0
3048,284,-139,0,3079.0,3131.0,300.0,310.0,-200.0,-251.0
3044,254,-82,0,3048.0,3079.0,284.0,300.0,-139.0,-200.0
3055,236,-28,0,3044.0,3048.0,254.0,284.0,-82.0,-139.0
3077,225,29,0,3055.0,3044.0,236.0,254.0,-28.0,-82.0
3107,212,96,0,3077.0,3055.0,225.0,236.0,29.0,-28.0
3137,194,146,0,3107.0,3077.0,212.0,225.0,96.0,29.0
3171,174,184,0,3137.0,3107.0,194.0,212.0,146.0,96.0
3205,152,221,0,3171.0,3137.0,174.0,194.0,184.0,146.0
3235,134,248,0,3205.0,3171.0,152.0,174.0,221.0,184.0
3261,108,247,0,3235.0,3205.0,134.0,152.0,248.0,221.0
3281,97,235,0,3261.0,3235.0,108.0,134.0,247.0,248.0
3288,95,242,0,3281.0,3261.0,97.0,108.0,235.0,247.0
3287,105,292,0,3288.0,3281.0,95.0,97.0,242.0,235.0
3296,129,378,0,3287.0,3288.0,105.0,95.0,292.0,242.0
3301,154,468,0,3296.0,3287.0,129.0,105.0,378.0,292.0
3311,172,540,0,3301.0,3296.0,154.0,129.0,468.0,378.0
3330,194,592,0,3311.0,3301.0,172.0,154.0,540.0,468.0
3353,210,610,0,3330.0,3311.0,194.0,172.0,592.0,540.0
3386,241,601,0,3353.0,3330.0,210.0,194.0,610.0,592.0
3418,286,573,0,3386.0,3353.0,241.0,210.0,601.0,610.0
3452,339,534,0,3418.0,3386.0,286.0,241.0,573.0,601.0
3482,400,476,0,3452.0,3418.0,339.0,286.0,534.0,573.0
3497,495,407,0,3482.0,3452.0,400.0,339.0,476.0,534.0
3494,639,327,0,3497.0,3482.0,495.0,400.0,407.0,476.0
3472,783,197,0,3494.0,3497.0,639.0,495.0,327.0,407.0
3434,929,38,0,3472.0,3494.0,783.0,639.0,197.0,327.0
3393,1068,-138,0,3434.0,3472.0,929.0,783.0,38.0,197.0
3347,1222,-320,0,3393.0,3434.0,1068.0,929.0,-138.0,38.0
3310,1336,-516,0,3347.0,3393.0,1222.0,1068.0,-320.0,-138.0
3323,1364,-679,0,3310.0,3347.0,1336.0,1222.0,-516.0,-320.0
3427,1289,-834,0,3323.0,3310.0,1364.0,1336.0,-679.0,-516.0
3608,1123,-1035,0,3427.0,3323.0,1289.0,1364.0,-834.0,-679.0
3870,887,-1241,0,3608.0,3427.0,1123.0,1289.0,-1035.0,-834.0
4213,586,-1446,0,3870.0,3608.0,887.0,1123.0,-1241.0,-1035.0
4625,267,-1674,0,4213.0,3870.0,586.0,887.0,-1446.0,-1241.0
5087,-17,-1840,0,4625.0,4213.0,267.0,586.0,-1674.0,-1446.0
5591,-237,-1858,0,5087.0,4625.0,-17.0,267.0,-1840.0,-1674.0
6089,-379,-1718,0,5591.0,5087.0,-237.0,-17.0,-1858.0,-1840.0
6543,-449,-1460,0,6089.0,5591.0,-379.0,-237.0,-1718.0,-1858.0
6898,-454,-1128,0,6543.0,6089.0,-449.0,-379.0,-1460.0,-1718.0
7120,-410,-786,0,6898.0,6543.0,-454.0,-449.0,-1128.0,-1460.0
7196,-345,-500,0,7120.0,6898.0,-410.0,-454.0,-786.0,-1128.0
7124,-291,-312,0,7196.0,7120.0,-345.0,-410.0,-500.0,-786.0
6929,-249,-236,0,7124.0,7196.0,-291.0,-345.0,-312.0,-500.0
6642,-206,-254,0,6929.0,7124.0,-249.0,-291.0,-236.0,-312.0
6315,-154,-348,0,6642.0,6929.0,-206.0,-249.0,-254.0,-236.0
6013,-91,-501,0,6315.0,6642.0,-154.0,-206.0,-348.0,-254.0
5776,-57,-679,0,6013.0,6315.0,-91.0,-154.0,-501.0,-348.0
5640,-110,-868,0,5776.0,6013.0,-57.0,-91.0,-679.0,-501.0
5623,-268,-1046,0,5640.0,5776.0,-110.0,-57.0,-868.0,-679.0
5740,-495,-1191,0,5623.0,5640.0,-268.0,-110.0,-1046.0,-868.0
6007,-718,-1262,0,5740.0,5623.0,-495.0,-268.0,-1191.0,-1046.0
6418,-871,-1209,0,6007.0,5740.0,-718.0,-495.0,-1262.0,-1191.0
6919,-947,-1021,0,6418.0,6007.0,-871.0,-718.0,-1209.0,-1262.0
7453,-991,-754,0,6919.0,6418.0,-947.0,-871.0,-1021.0,-1209.0
7940,-1055,-483,0,7453.0,6919.0,-991.0,-947.0,-754.0,-1021.0
8319,-1145,-255,0,7940.0,7453.0,-1055.0,-991.0,-483.0,-754.0
8524,-1236,-105,0,8319.0,7940.0,-1145.0,-1055.0,-255.0,-483.0
8527,-1299,-51,0,8524.0,8319.0,-1236.0,-1145.0,-105.0,-255.0
8339,-1312,-77,0,8527.0,8524.0,-1299.0,-1236.0,-51.0,-105.0
7961,-1261,-153,0,8339.0,8527.0,-1312.0,-1299.0,-77.0,-51.0
7457,-1156,-225,0,7961.0,8339.0,-1261.0,-1312.0,-153.0,-77.0
6896,-1027,-282,0,7457.0,7961.0,-1156.0,-1261.0,-225.0,-153.0
6329,-910,-330,0,6896.0,7457.0,-1027.0,-1156.0,-282.0,-225.0
5785,-810,-376,0,6329.0,6896.0,-910.0,-1027.0,-330.0,-282.0
5284,-715,-415,0,5785.0,6329.0,-810.0,-910.0,-376.0,-330.0
4842,-630,-450,0,5284.0,5785.0,-715.0,-810.0,-415.0,-376.0
4470,-542,-481,0,4842.0,5284.0,-630.0,-715.0,-450.0,-415.0
4155,-457,-509,0,4470.0,4842.0,-542.0,-630.0,-481.0,-450.0
3897,-378,-541,0,4155.0,4470.0,-457.0,-542.0,-509.0,-481.0
3690,-314,-585,0,3897.0,4155.0,-378.0,-457.0,-541.0,-509.0
3529,-264,-635,0,3690.0,3897.0,-314.0,-378.0,-585.0,-541.0
3399,-199,-673,0,3529.0,3690.0,-264.0,-314.0,-635.0,-585.0
3295,-138,-698,0,3399.0,3529.0,-199.0,-264.0,-673.0,-635.0
3217,-88,-708,0,3295.0,3399.0,-138.0,-199.0,-698.0,-673.0
3152,-52,-697,0,3217.0,3295.0,-88.0,-138.0,-708.0,-698.0
3112,-48,-663,0,3152.0,3217.0,-52.0,-88.0,-697.0,-708.0
3078,-67,-596,0,3112.0,3152.0,-48.0,-52.0,-663.0,-697.0
3050,-115,-524,0,3078.0,3112.0,-67.0,-48.0,-596.0,-663.0
3022,-186,-459,0,3050.0,3078.0,-115.0,-67.0,-524.0,-596.0
2992,-277,-405,0,3022.0,3050.0,-186.0,-115.0,-459.0,-524.0
2953,-374,-357,0,2992.0,3022.0,-277.0,-186.0,-405.0,-459.0
2900,-477,-338,0,2953.0,2992.0,-374.0,-277.0,-357.0,-405.0
2830,-574,-337,0,2900.0,2953.0,-477.0,-374.0,-338.0,-357.0
2748,-657,-342,0,2830.0,2900.0,-574.0,-477.0,-337.0,-338.0
2660,-727,-363,0,2748.0,2830.0,-657.0,-574.0,-342.0,-337.0
2568,-774,-387,0,2660.0,2748.0,-727.0,-657.0,-363.0,-342.0
2478,-795,-416,0,2568.0,2660.0,-774.0,-727.0,-387.0,-363.0
2401,-796,-432,0,2478.0,2568.0,-795.0,-774.0,-416.0,-387.0
2339,-774,-435,0,2401.0,2478.0,-796.0,-795.0,-432.0,-416.0
2297,-734,-418,0,2339.0,2401.0,-774.0,-796.0,-435.0,-432.0
2269,-684,-381,0,2297.0,2339.0,-734.0,-774.0,-418.0,-435.0
2268,-625,-331,0,2269.0,2297.0,-684.0,-734.0,-381.0,-418.0
2294,-570,-271,0,2268.0,2269.0,-625.0,-684.0,-331.0,-381.0
2340,-523,-207,0,2294.0,2268.0,-570.0,-625.0,-271.0,-331.0
2414,-479,-152,0,2340.0,2294.0,-523.0,-570.0,-207.0,-271.0
2499,-435,-117,0,2414.0,2340.0,-479.0,-523.0,-152.0,-207.0
2583,-393,-86,0,2499.0,2414.0,-435.0,-479.0,-117.0,-152.0
2658,-340,-52,0,2583.0,2499.0,-393.0,-435.0,-86.0,-117.0
2728,-283,-26,0,2658.0,2583.0,-340.0,-393.0,-52.0,-86.0
2785,-216,-5,0,2728.0,2658.0,-283.0,-340.0,-26.0,-52.0
2834,-153,15,0,2785.0,2728.0,-216.0,-283.0,-5.0,-26.0
2879,-97,40,0,2834.0,2785.0,-153.0,-216.0,15.0,-5.0
2917,-61,68,0,2879.0,2834.0,-97.0,-153.0,40.0,15.0
2960,-51,94,0,2917.0,2879.0,-61.0,-97.0,68.0,40.0
3003,-57,119,0,2960.0,2917.0,-51.0,-61.0,94.0,68.0
3053,-73,149,0,3003.0,2960.0,-57.0,-51.0,119.0,94.0
3104,-87,179,0,3053.0,3003.0,-73.0,-57.0,149.0,119.0
3156,-94,205,0,3104.0,3053.0,-87.0,-73.0,179.0,149.0
3209,-95,220,0,3156.0,3104.0,-94.0,-87.0,205.0,179.0
3261,-105,223,0,3209.0,3156.0,-95.0,-94.0,220.0,205.0
3307,-122,205,0,3261.0,3209.0,-105.0,-95.0,223.0,220.0
3357,-150,165,0,3307.0,3261.0,-122.0,-105.0,205.0,223.0
3403,-185,115,0,3357.0,3307.0,-150.0,-122.0,165.0,205.0
3442,-220,68,0,3403.0,3357.0,-185.0,-150.0,115.0,165.0
3476,-248,31,0,3442.0,3403.0,-220.0,-185.0,68.0,115.0
3498,-268,2,0,3476.0,3442.0,-248.0,-220.0,31.0,68.0
3507,-289,-23,0,3498.0,3476.0,-268.0,-248.0,2.0,31.0
3509,-312,-40,0,3507.0,3498.0,-289.0,-268.0,-23.0,2.0
3507,-340,-59,0,3509.0,3507.0,-312.0,-289.0,-40.0,-23.0
3507,-376,-67,0,3507.0,3509.0,-340.0,-312.0,-59.0,-40.0
3510,-429,-74,0,3507.0,3507.0,-376.0,-340.0,-67.0,-59.0
3511,-494,-72,0,3510.0,3507.0,-429.0,-376.0,-74.0,-67.0
3518,-560,-75,0,3511.0,3510.0,-494.0,-429.0,-72.0,-74.0
3524,-620,-76,0,3518.0,3511.0,-560.0,-494.0,-75.0,-72.0
3531,-678,-66,0,3524.0,3518.0,-620.0,-560.0,-76.0,-75.0
3548,-742,-40,0,3531.0,3524.0,-678.0,-620.0,-66.0,-76.0
3571,-797,-12,0,3548.0,3531.0,-742.0,-678.0,-40.0,-66.0
3605,-839,4,0,3571.0,3548.0,-797.0,-742.0,-12.0,-40.0
3642,-860,19,0,3605.0,3571.0,-839.0,-797.0,4.0,-12.0
3678,-841,17,0,3642.0,3605.0,-860.0,-839.0,19.0,4.0
3707,-776,10,0,3678.0,3642.0,-841.0,-860.0,17.0,19.0
3725,-679,-10,0,3707.0,3678.0,-776.0,-841.0,10.0,17.0
3723,-545,-36,0,3725.0,3707.0,-679.0,-776.0,-10.0,10.0
3692,-395,-71,0,3723.0,3725.0,-545.0,-679.0,-36.0,-10.0
3633,-248,-124,0,3692.0,3723.0,-395.0,-545.0,-71.0,-36.0
3560,-127,-182,0,3633.0,3692.0,-248.0,-395.0,-124.0,-71.0
3479,-34,-220,0,3560.0,3633.0,-127.0,-248.0,-182.0,-124.0
3404,43,-235,0,3479.0,3560.0,-34.0,-127.0,-220.0,-182.0
3348,100,-226,0,3404.0,3479.0,43.0,-34.0,-235.0,-220.0
3313,153,-186,0,3348.0,3404.0,100.0,43.0,-226.0,-235.0
3308,200,-130,0,3313.0,3348.0,153.0,100.0,-186.0,-226.0
3326,240,-66,0,3308.0,3313.0,200.0,153.0,-130.0,-186.0
3368,271,-7,0,3326.0,3308.0,240.0,200.0,-66.0,-130.0
3428,289,46,0,3368.0,3326.0,271.0,240.0,-7.0,-66.0
3515,280,100,0,3428.0,3368.0,289.0,271.0,46.0,-7.0
3610,258,152,0,3515.0,3428.0,280.0,289.0,100.0,46.0
3708,224,208,0,3610.0,3515.0,258.0,280.0,152.0,100.0
3799,183,275,0,3708.0,3610.0,224.0,258.0,208.0,152.0
3878,148,349,0,3799.0,3708.0,183.0,224.0,275.0,208.0
3928,125,439,0,3878.0,3799.0,148.0,183.0,349.0,275.0
3940,131,531,0,3928.0,3878.0,125.0,148.0,439.0,349.0
3921,155,611,0,3940.0,3928.0,131.0,125.0,531.0,439.0
3881,181,655,0,3921.0,3940.0,155.0,131.0,611.0,531.0
3814,210,667,0,3881.0,3921.0,181.0,155.0,655.0,611.0
3727,231,650,0,3814.0,3881.0,210.0,181.0,667.0,655.0
3624,256,617,0,3727.0,3814.0,231.0,210.0,650.0,667.0
3519,279,576,0,3624.0,3727.0,256.0,231.0,617.0,650.0
3421,306,544,0,3519.0,3624.0,279.0,256.0,576.0,617.0
3327,326,527,0,3421.0,3519.0,306.0,279.0,544.0,576.0
3244,337,534,0,3327.0,3421.0,326.0,306.0,527.0,544.0
3195,324,560,0,3244.0,3327.0,337.0,326.0,534.0,527.0
3167,292,577,0,3195.0,3244.0,324.0,337.0,560.0,534.0
3160,241,579,0,3167.0,3195.0,292.0,324.0,577.0,560.0
3165,190,562,0,3160.0,3167.0,241.0,292.0,579.0,577.0
3175,154,554,0,3165.0,3160.0,190.0,241.0,562.0,579.0
3190,138,557,0,3175.0,3165.0,154.0,190.0,554.0,562.0
3216,134,574,0,3190.0,3175.0,138.0,154.0,557.0,554.0
3267,93,563,0,3216.0,3190.0,134.0,138.0,574.0,557.0
3368,-15,484,0,3267.0,3216.0,93.0,134.0,563.0,574.0
3512,-170,370,0,3368.0,3267.0,-15.0,93.0,484.0,563.0
3669,-337,257,0,3512.0,3368.0,-170.0,-15.0,370.0,484.0
3852,-538,165,0,3669.0,3512.0,-337.0,-170.0,257.0,370.0
4080,-771,16,0,3852.0,3669.0,-538.0,-337.0,165.0,257.0
4380,-1046,-258,0,4080.0,3852.0,-771.0,-538.0,16.0,165.0
4715,-1292,-587,0,4380.0,4080.0,-1046.0,-771.0,-258.0,16.0
5049,-1519,-877,0,4715.0,4380.0,-1292.0,-1046.0,-587.0,-258.0
5419,-1721,-1136,0,5049.0,4715.0,-1519.0,-1292.0,-877.0,-587.0
5853,-1822,-1382,0,5419.0,5049.0,-1721.0,-1519.0,-1136.0,-877.0
6373,-1782,-1559,0,5853.0,5419.0,-1822.0,-1721.0,-1382.0,-1136.0
6949,-1590,-1564,0,6373.0,5853.0,-1782.0,-1822.0,-1559.0,-1382.0
7501,-1306,-1414,0,6949.0,6373.0,-1590.0,-1782.0,-1564.0,-1559.0
7904,-1009,-1200,0,7501.0,6949.0,-1306.0,-1590.0,-1414.0,-1564.0
8071,-734,-991,0,7904.0,7501.0,-1009.0,-1306.0,-1200.0,-1414.0
7970,-506,-846,0,8071.0,7904.0,-734.0,-1009.0,-991.0,-1200.0
7644,-310,-778,0,7970.0,8071.0,-506.0,-734.0,-846.0,-991.0
7181,-84,-788,0,7644.0,7970.0,-310.0,-506.0,-778.0,-846.0
6636,180,-837,0,7181.0,7644.0,-84.0,-310.0,-788.0,-778.0
6046,386,-933,0,6636.0,7181.0,180.0,-84.0,-837.0,-788.0
5454,472,-1041,0,6046.0,6636.0,386.0,180.0,-933.0,-837.0
4905,444,-1123,0,5454.0,6046.0,472.0,386.0,-1041.0,-933.0
4436,357,-1143,0,4905.0,5454.0,444.0,472.0,-1123.0,-1041.0
4061,211,-1125,0,4436.0,4905.0,357.0,444.0,-1143.0,-1123.0
3820,-8,-1111,0,4061.0,4436.0,211.0,357.0,-1125.0,-1143.0
3713,-251,-1109,0,3820.0,4061.0,-8.0,211.0,-1111.0,-1125.0
3743,-496,-1098,0,3713.0,3820.0,-251.0,-8.0,-1109.0,-1111.0
3903,-724,-1063,0,3743.0,3713.0,-496.0,-251.0,-1098.0,-1109.0
4158,-904,-998,0,3903.0,3743.0,-724.0,-496.0,-1063.0,-1098.0
4493,-1009,-914,0,4158.0,3903.0,-904.0,-724.0,-998.0,-1063.0
4884,-985,-779,0,4493.0,4158.0,-1009.0,-904.0,-914.0,-998.0
5281,-824,-597,0,4884.0,4493.0,-985.0,-1009.0,-779.0,-914.0
5629,-583,-437,0,5281.0,4884.0,-824.0,-985.0,-597.0,-779.0
5862,-354,-372,0,5629.0,5281.0,-583.0,-824.0,-437.0,-597.0
5934,-181,-410,0,5862.0,5629.0,-354.0,-583.0,-372.0,-437.0
5843,-52,-490,0,5934.0,5862.0,-181.0,-354.0,-410.0,-372.0
5613,105,-575,0,5843.0,5934.0,-52.0,-181.0,-490.0,-410.0
5319,311,-665,0,5613.0,5843.0,105.0,-52.0,-575.0,-490.0
5018,564,-755,0,5319.0,5613.0,311.0,105.0,-665.0,-575.0
4728,835,-831,0,5018.0,5319.0,564.0,311.0,-755.0,-665.0
4485,1071,-893,0,4728.0,5018.0,835.0,564.0,-831.0,-755.0
4311,1245,-916,0,4485.0,4728.0,1071.0,835.0,-893.0,-831.0
4228,1357,-884,0,4311.0,4485.0,1245.0,1071.0,-916.0,-893.0
4235,1388,-808,0,4228.0,4311.0,1357.0,1245.0,-884.0,-916.0
4315,1364,-670,0,4235.0,4228.0,1388.0,1357.0,-808.0,-884.0
4432,1282,-517,0,4315.0,4235.0,1364.0,1388.0,-670.0,-808.0
4548,1176,-379,0,4432.0,4315.0,1282.0,1364.0,-517.0,-670.0
4636,1058,-283,0,4548.0,4432.0,1176.0,1282.0,-379.0,-517.0
4693,929,-243,0,4636.0,4548.0,1058.0,1176.0,-283.0,-379.0
4697,804,-250,0,4693.0,4636.0,929.0,1058.0,-243.0,-283.0
4666,687,-288,0,4697.0,4693.0,804.0,929.0,-250.0,-243.0
4600,591,-337,0,4666.0,4697.0,687.0,804.0,-288.0,-250.0
4508,515,-386,0,4600.0,4666.0,591.0,687.0,-337.0,-288.0
4405,447,-431,0,4508.0,4600.0,515.0,591.0,-386.0,-337.0
4303,392,-446,0,4405.0,4508.0,447.0,515.0,-431.0,-386.0
4206,351,-451,0,4303.0,4405.0,392.0,447.0,-446.0,-431.0
4123,322,-448,0,4206.0,4303.0,351.0,392.0,-451.0,-446.0
4033,274,-438,0,4123.0,4206.0,322.0,351.0,-448.0,-451.0
3943,214,-425,0,4033.0,4123.0,274.0,322.0,-438.0,-448.0
3859,131,-421,0,3943.0,4033.0,214.0,274.0,-425.0,-438.0
3785,32,-418,0,3859.0,3943.0,131.0,214.0,-421.0,-425.0
3713,-70,-416,0,3785.0,3859.0,32.0,131.0,-418.0,-421.0
3653,-163,-412,0,3713.0,3785.0,-70.0,32.0,-416.0,-418.0
3608,-244,-414,0,3653.0,3713.0,-163.0,-70.0,-412.0,-416.0
3580,-311,-433,0,3608.0,3653.0,-244.0,-163.0,-414.0,-412.0
3567,-355,-466,0,3580.0,3608.0,-311.0,-244.0,-433.0,-414.0
3576,-393,-500,0,3567.0,3580.0,-355.0,-311.0,-466.0,-433.0
3595,-424,-524,0,3576.0,3567.0,-393.0,-355.0,-500.0,-466.0
3629,-451,-532,0,3595.0,3576.0,-424.0,-393.0,-524.0,-500.0
3671,-475,-524,0,3629.0,3595.0,-451.0,-424.0,-532.0,-524.0
3715,-502,-498,0,3671.0,3629.0,-475.0,-451.0,-524.0,-532.0
3756,-524,-461,0,3715.0,3671.0,-502.0,-475.0,-498.0,-524.0
3791,-528,-409,0,3756.0,3715.0,-524.0,-502.0,-461.0,-498.0
3808,-526,-360,0,3791.0,3756.0,-528.0,-524.0,-409.0,-461.0
3807,-518,-322,0,3808.0,3791.0,-526.0,-528.0,-360.0,-409.0
3783,-503,-300,0,3807.0,3808.0,-518.0,-526.0,-322.0,-360.0
3738,-474,-301,0,3783.0,3807.0,-503.0,-518.0,-300.0,-322.0
3678,-433,-328,0,3738.0,3783.0,-474.0,-503.0,-301.0,-300.0
3602,-377,-368,0,3678.0,3738.0,-433.0,-474.0,-328.0,-301.0
3524,-319,-418,0,3602.0,3678.0,-377.0,-433.0,-368.0,-328.0
3458,-256,-466,0,3524.0,3602.0,-319.0,-377.0,-418.0,-368.0
3410,-197,-512,0,3458.0,3524.0,-256.0,-319.0,-466.0,-418.0
3384,-145,-543,0,3410.0,3458.0,-197.0,-256.0,-512.0,-466.0
3387,-97,-556,0,3384.0,3410.0,-145.0,-197.0,-543.0,-512.0
3411,-60,-555,0,3387.0,3384.0,-97.0,-145.0,-556.0,-543.0
3456,-32,-536,0,3411.0,3387.0,-60.0,-97.0,-555.0,-556.0
3511,-6,-506,0,3456.0,3411.0,-32.0,-60.0,-536.0,-555.0
3567,13,-476,0,3511.0,3456.0,-6.0,-32.0,-506.0,-536.0
3611,31,-445,0,3567.0,3511.0,13.0,-6.0,-476.0,-506.0
3662,42,-423,0,3611.0,3567.0,31.0,13.0,-445.0,-476.0
3707,58,-406,0,3662.0,3611.0,42.0,31.0,-423.0,-445.0
3741,84,-388,0,3707.0,3662.0,58.0,42.0,-406.0,-423.0
3775,107,-370,0,3741.0,3707.0,84.0,58.0,-388.0,-406.0
3807,120,-345,0,3775.0,3741.0,107.0,84.0,-370.0,-388.0
3827,130,-327,0,3807.0,3775.0,120.0,107.0,-345.0,-370.0
3838,141,-311,0,3827.0,3807.0,130.0,120.0,-327.0,-345.0
3846,151,-295,0,3838.0,3827.0,141.0,130.0,-311.0,-327.0
3844,158,-278,0,3846.0,3838.0,151.0,141.0,-295.0,-311.0
3839,171,-257,0,3844.0,3846.0,158.0,151.0,-278.0,-295.0
3825,184,-227,0,3839.0,3844.0,171.0,158.0,-257.0,-278.0
3815,200,-198,0,3825.0,3839.0,184.0,171.0,-227.0,-257.0
3814,205,-163,0,3815.0,3825.0,200.0,184.0,-198.0,-227.0
3813,217,-130,0,3814.0,3815.0,205.0,200.0,-163.0,-198.0
3812,225,-98,0,3813.0,3814.0,217.0,205.0,-130.0,-163.0
3815,240,-66,0,3812.0,3813.0,225.0,217.0,-98.0,-130.0
3820,263,-47,0,3815.0,3812.0,240.0,225.0,-66.0,-98.0
3818,293,-30,0,3820.0,3815.0,263.0,240.0,-47.0,-66.0
3808,330,-35,0,3818.0,3820.0,293.0,263.0,-30.0,-47.0
3776,375,-64,0,3808.0,3818.0,330.0,293.0,-35.0,-30.0
3721,411,-119,0,3776.0,3808.0,375.0,330.0,-64.0,-35.0
3646,454,-175,0,3721.0,3776.0,411.0,375.0,-119.0,-64.0
3551,508,-226,0,3646.0,3721.0,454.0,411.0,-175.0,-119.0
3452,562,-283,0,3551.0,3646.0,508.0,454.0,-226.0,-175.0
3349,609,-328,0,3452.0,3551.0,562.0,508.0,-283.0,-226.0
3239,642,-372,0,3349.0,3452.0,609.0,562.0,-328.0,-283.0
3144,647,-411,0,3239.0,3349.0,642.0,609.0,-372.0,-328.0
3064,621,-437,0,3144.0,3239.0,647.0,642.0,-411.0,-372.0
3010,569,-434,0,3064.0,3144.0,621.0,647.0,-437.0,-411.0
2989,497,-404,0,3010.0,3064.0,569.0,621.0,-434.0,-437.0
2992,420,-344,0,2989.0,3010.0,497.0,569.0,-404.0,-434.0
3023,346,-251,0,2992.0,2989.0,420.0,497.0,-344.0,-404.0
3078,285,-125,0,3023.0,2992.0,346.0,420.0,-251.0,-344.0
3154,227,2,0,3078.0,3023.0,285.0,346.0,-125.0,-251.0
3237,155,96,0,3154.0,3078.0,227.0,285.0,2.0,-125.0
3318,75,139,0,3237.0,3154.0,155.0,227.0,96.0,2.0
3390,4,136,0,3318.0,3237.0,75.0,155.0,139.0,96.0
3446,-38,110,0,3390.0,3318.0,4.0,75.0,136.0,139.0
3490,-45,83,0,3446.0,3390.0,-38.0,4.0,110.0,136.0
3527,-32,60,0,3490.0,3446.0,-45.0,-38.0,83.0,110.0
3562,-17,50,0,3527.0,3490.0,-32.0,-45.0,60.0,83.0
3582,2,36,0,3562.0,3527.0,-17.0,-32.0,50.0,60.0
3597,17,21,0,3582.0,3562.0,2.0,-17.0,36.0,50.0
3593,31,15,0,3597.0,3582.0,17.0,2.0,21.0,36.0
3577,33,16,0,3593.0,3597.0,31.0,17.0,15.0,21.0
3548,35,19,0,3577.0,3593.0,33.0,31.0,16.0,15.0
3508,55,35,0,3548.0,3577.0,35.0,33.0,19.0,16.0
3457,92,56,0,3508.0,3548.0,55.0,35.0,35.0,19.0
3401,143,83,0,3457.0,3508.0,92.0,55.0,56.0,35.0
3342,199,98,0,3401.0,3457.0,143.0,92.0,83.0,56.0
3284,240,97,0,3342.0,3401.0,199.0,143.0,98.0,83.0
3231,263,95,0,3284.0,3342.0,240.0,199.0,97.0,98.0
3178,277,91,0,3231.0,3284.0,263.0,240.0,95.0,97.0
3139,285,84,0,3178.0,3231.0,277.0,263.0,91.0,95.0
3099,290,73,0,3139.0,3178.0,285.0,277.0,84.0,91.0
3069,287,68,0,3099.0,3139.0,290.0,285.0,73.0,84.0
3052,284,77,0,3069.0,3099.0,287.0,290.0,68.0,73.0
3047,281,103,0,3052.0,3069.0,284.0,287.0,77.0,68.0
3049,286,170,0,3047.0,3052.0,281.0,284.0,103.0,77.0
3059,298,284,0,3049.0,3047.0,286.0,281.0,170.0,103.0
3077,310,420,0,3059.0,3049.0,298.0,286.0,284.0,170.0
3094,305,533,0,3077.0,3059.0,310.0,298.0,420.0,284.0
3106,272,589,0,3094.0,3077.0,305.0,310.0,533.0,420.0
3105,234,582,0,3106.0,3094.0,272.0,305.0,589.0,533.0
3099,204,547,0,3105.0,3106.0,234.0,272.0,582.0,589.0
3086,190,511,0,3099.0,3105.0,204.0,234.0,547.0,582.0
3071,205,504,0,3086.0,3099.0,190.0,204.0,511.0,547.0
3059,232,514,0,3071.0,3086.0,205.0,190.0,504.0,511.0
3057,255,523,0,3059.0,3071.0,232.0,205.0,514.0,504.0
3062,259,527,0,3057.0,3059.0,255.0,232.0,523.0,514.0
3074,247,522,0,3062.0,3057.0,259.0,255.0,527.0,523.0
3082,258,503,0,3074.0,3062.0,247.0,259.0,522.0,527.0
3079,331,458,0,3082.0,3074.0,258.0,247.0,503.0,522.0
3060,412,354,0,3079.0,3082.0,331.0,258.0,458.0,503.0
3039,496,236,0,3060.0,3079.0,412.0,331.0,354.0,458.0
3007,605,122,0,3039.0,3060.0,496.0,412.0,236.0,354.0
2971,717,-51,0,3007.0,3039.0,605.0,496.0,122.0,236.0
2945,775,-307,0,2971.0,3007.0,717.0,605.0,-51.0,122.0
2950,767,-571,0,2945.0,2971.0,775.0,717.0,-307.0,-51.0
3001,697,-850,0,2950.0,2945.0,767.0,775.0,-571.0,-307.0
3102,580,-1159,0,3001.0,2950.0,697.0,767.0,-850.0,-571.0
3258,438,-1427,0,3102.0,3001.0,580.0,697.0,-1159.0,-850.0
3489,279,-1608,0,3258.0,3102.0,438.0,580.0,-1427.0,-1159.0
3799,115,-1690,0,3489.0,3258.0,279.0,438.0,-1608.0,-1427.0
4180,-42,-1662,0,3799.0,3489.0,115.0,279.0,-1690.0,-1608.0
4630,-205,-1535,0,4180.0,3799.0,-42.0,115.0,-1662.0,-1690.0
5120,-371,-1368,0,4630.0,4180.0,-205.0,-42.0,-1535.0,-1662.0
5616,-516,-1147,0,5120.0,4630.0,-371.0,-205.0,-1368.0,-1535.0
6073,-612,-852,0,5616.0,5120.0,-516.0,-371.0,-1147.0,-1368.0
6458,-647,-505,0,6073.0,5616.0,-612.0,-516.0,-852.0,-1147.0
6739,-615,-204,0,6458.0,6073.0,-647.0,-612.0,-505.0,-852.0
6906,-552,-23,0,6739.0,6458.0,-615.0,-647.0,-204.0,-505.0
6962,-488,-8,0,6906.0,6739.0,-552.0,-615.0,-23.0,-204.0
6963,-500,-171,0,6962.0,6906.0,-488.0,-552.0,-8.0,-23.0
6944,-629,-477,0,6963.0,6962.0,-500.0,-488.0,-171.0,-8.0
6949,-889,-856,0,6944.0,6963.0,-629.0,-500.0,-477.0,-171.0
6993,-1259,-1229,0,6949.0,6944.0,-889.0,-629.0,-856.0,-477.0
7106,-1641,-1502,0,6993.0,6949.0,-1259.0,-889.0,-1229.0,-856.0
7281,-1905,-1559,0,7106.0,6993.0,-1641.0,-1259.0,-1502.0,-1229.0
7522,-2029,-1403,0,7281.0,7106.0,-1905.0,-1641.0,-1559.0,-1502.0
7798,-2073,-1135,0,7522.0,7281.0,-2029.0,-1905.0,-1403.0,-1559.0
8059,-2065,-824,0,7798.0,7522.0,-2073.0,-2029.0,-1135.0,-1403.0
8268,-2015,-496,0,8059.0,7798.0,-2065.0,-2073.0,-824.0,-1135.0
8367,-1904,-212,0,8268.0,8059.0,-2015.0,-2065.0,-496.0,-824.0
8346,-1745,-14,0,8367.0,8268.0,-1904.0,-2015.0,-212.0,-496.0
8210,-1554,60,0,8346.0,8367.0,-1745.0,-1904.0,-14.0,-212.0
7958,-1384,30,0,8210.0,8346.0,-1554.0,-1745.0,60.0,-14.0
7606,-1222,-78,0,7958.0,8210.0,-1384.0,-1554.0,30.0,60.0
7184,-1068,-217,0,7606.0,7958.0,-1222.0,-1384.0,-78.0,30.0
6714,-907,-353,0,7184.0,7606.0,-1068.0,-1222.0,-217.0,-78.0
6228,-743,-478,0,6714.0,7184.0,-907.0,-1068.0,-353.0,-217.0
5744,-585,-610,0,6228.0,6714.0,-743.0,-907.0,-478.0,-353.0
5285,-425,-735,0,5744.0,6228.0,-585.0,-743.0,-610.0,-478.0
4874,-274,-810,0,5285.0,5744.0,-425.0,-585.0,-735.0,-610.0
4526,-159,-833,0,4874.0,5285.0,-274.0,-425.0,-810.0,-735.0
4248,-116,-820,0,4526.0,4874.0,-159.0,-274.0,-833.0,-810.0
4032,-145,-788,0,4248.0,4526.0,-116.0,-159.0,-820.0,-833.0
3878,-230,-739,0,4032.0,4248.0,-145.0,-116.0,-788.0,-820.0
3788,-334,-670,0,3878.0,4032.0,-230.0,-145.0,-739.0,-788.0
3778,-402,-568,0,3788.0,3878.0,-334.0,-230.0,-670.0,-739.0
3836,-426,-457,0,3778.0,3788.0,-402.0,-334.0,-568.0,-670.0
3935,-438,-334,0,3836.0,3778.0,-426.0,-402.0,-457.0,-568.0
4057,-473,-237,0,3935.0,3836.0,-438.0,-426.0,-334.0,-457.0
4168,-518,-161,0,4057.0,3935.0,-473.0,-438.0,-237.0,-334.0
4256,-564,-109,0,4168.0,4057.0,-518.0,-473.0,-161.0,-237.0
4318,-610,-85,0,4256.0,4168.0,-564.0,-518.0,-109.0,-161.0
4340,-657,-82,0,4318.0,4256.0,-610.0,-564.0,-85.0,-109.0
4332,-702,-88,0,4340.0,4318.0,-657.0,-610.0,-82.0,-85.0
4296,-737,-106,0,4332.0,4340.0,-702.0,-657.0,-88.0,-82.0
4232,-754,-140,0,4296.0,4332.0,-737.0,-702.0,-106.0,-88.0
4155,-756,-172,0,4232.0,4296.0,-754.0,-737.0,-140.0,-106.0
4052,-745,-200,0,4155.0,4232.0,-756.0,-754.0,-172.0,-140.0
3930,-724,-221,0,4052.0,4155.0,-745.0,-756.0,-200.0,-172.0
3799,-690,-230,0,3930.0,4052.0,-724.0,-745.0,-221.0,-200.0
3661,-650,-230,0,3799.0,3930.0,-690.0,-724.0,-230.0,-221.0
3524,-612,-234,0,3661.0,3799.0,-650.0,-690.0,-230.0,-230.0
3387,-569,-232,0,3524.0,3661.0,-612.0,-650.0,-234.0,-230.0
3257,-528,-228,0,3387.0,3524.0,-569.0,-612.0,-232.0,-234.0
3133,-485,-233,0,3257.0,3387.0,-528.0,-569.0,-228.0,-232.0
3017,-437,-225,0,3133.0,3257.0,-485.0,-528.0,-233.0,-228.0
2904,-377,-226,0,3017.0,3133.0,-437.0,-485.0,-225.0,-233.0
2803,-304,-229,0,2904.0,3017.0,-377.0,-437.0,-226.0,-225.0
2726,-226,-224,0,2803.0,2904.0,-304.0,-377.0,-229.0,-226.0
2680,-155,-217,0,2726.0,2803.0,-226.0,-304.0,-224.0,-229.0
2654,-85,-212,0,2680.0,2726.0,-155.0,-226.0,-217.0,-224.0
2645,-14,-190,0,2654.0,2680.0,-85.0,-155.0,-212.0,-217.0
2652,60,-144,0,2645.0,2654.0,-14.0,-85.0,-190.0,-212.0
2671,130,-85,0,2652.0,2645.0,60.0,-14.0,-144.0,-190.0
2702,200,-30,0,2671.0,2652.0,130.0,60.0,-85.0,-144.0
2737,262,29,0,2702.0,2671.0,200.0,130.0,-30.0,-85.0
2778,315,80,0,2737.0,2702.0,262.0,200.0,29.0,-30.0
2825,354,121,0,2778.0,2737.0,315.0,262.0,80.0,29.0
2871,380,151,0,2825.0,2778.0,354.0,315.0,121.0,80.0
2909,391,173,0,2871.0,2825.0,380.0,354.0,151.0,121.0
2942,388,185,0,2909.0,2871.0,391.0,380.0,173.0,151.0
2954,368,179,0,2942.0,2909.0,388.0,391.0,185.0,173.0
2964,338,153,0,2954.0,2942.0,368.0,388.0,179.0,185.0
2958,300,113,0,2964.0,2954.0,338.0,368.0,153.0,179.0
2942,258,63,0,2958.0,2964.0,300.0,338.0,113.0,153.0
2914,221,8,0,2942.0,2958.0,258.0,300.0,63.0,113.0
2886,191,-50,0,2914.0,2942.0,221.0,258.0,8.0,63.0
2854,162,-88,0,2886.0,2914.0,191.0,221.0,-50.0,8.0
2826,129,-112,0,2854.0,2886.0,162.0,191.0,-88.0,-50.0
2807,91,-121,0,2826.0,2854.0,129.0,162.0,-112.0,-88.0
2799,38,-127,0,2807.0,2826.0,91.0,129.0,-121.0,-112.0
2801,-22,-119,0,2799.0,2807.0,38.0,91.0,-127.0,-121.0
2820,-99,-101,0,2801.0,2799.0,-22.0,38.0,-119.0,-127.0
2857,-178,-78,0,2820.0,2801.0,-99.0,-22.0,-101.0,-119.0
2901,-249,-42,0,2857.0,2820.0,-178.0,-99.0,-78.0,-101.0
2959,-315,-15,0,2901.0,2857.0,-249.0,-178.0,-42.0,-78.0
3021,-377,22,0,2959.0,2901.0,-315.0,-249.0,-15.0,-42.0
3085,-425,54,0,3021.0,2959.0,-377.0,-315.0,22.0,-15.0
3149,-467,80,0,3085.0,3021.0,-425.0,-377.0,54.0,22.0
3207,-492,90,0,3149.0,3085.0,-467.0,-425.0,80.0,54.0
3248,-508,93,0,3207.0,3149.0,-492.0,-467.0,90.0,80.0
3274,-519,82,0,3248.0,3207.0,-508.0,-492.0,93.0,90.0
3282,-523,54,0,3274.0,3248.0,-519.0,-508.0,82.0,93.0
3281,-522,20,0,3282.0,3274.0,-523.0,-519.0,54.0,82.0
3282,-516,-13,0,3281.0,3282.0,-522.0,-523.0,20.0,54.0
3286,-510,-42,0,3282.0,3281.0,-516.0,-522.0,-13.0,20.0
3301,-496,-68,0,3286.0,3282.0,-510.0,-516.0,-42.0,-13.0
3344,-489,-86,0,3301.0,3286.0,-496.0,-510.0,-68.0,-42.0
3403,-476,-106,0,3344.0,3301.0,-489.0,-496.0,-86.0,-68.0
3480,-458,-123,0,3403.0,3344.0,-476.0,-489.0,-106.0,-86.0
3569,-429,-119,0,3480.0,3403.0,-458.0,-476.0,-123.0,-106.0
3672,-397,-114,0,3569.0,3480.0,-429.0,-458.0,-119.0,-123.0
3765,-359,-100,0,3672.0,3569.0,-397.0,-429.0,-114.0,-119.0
3847,-306,-74,0,3765.0,3672.0,-359.0,-397.0,-100.0,-114.0
3908,-238,-42,0,3847.0,3765.0,-306.0,-359.0,-74.0,-100.0
3946,-165,-9,0,3908.0,3847.0,-238.0,-306.0,-42.0,-74.0
3964,-93,34,0,3946.0,3908.0,-165.0,-238.0,-9.0,-42.0
3958,-42,73,0,3964.0,3946.0,-93.0,-165.0,34.0,-9.0
3933,-1,117,0,3958.0,3964.0,-42.0,-93.0,73.0,34.0
3893,29,160,0,3933.0,3958.0,-1.0,-42.0,117.0,73.0
3846,46,211,0,3893.0,3933.0,29.0,-1.0,160.0,117.0
3790,55,263,0,3846.0,3893.0,46.0,29.0,211.0,160.0
3732,59,300,0,3790.0,3846.0,55.0,46.0,263.0,211.0
3678,47,325,0,3732.0,3790.0,59.0,55.0,300.0,263.0
3638,24,342,0,3678.0,3732.0,47.0,59.0,325.0,300.0
3609,1,343,0,3638.0,3678.0,24.0,47.0,342.0,325.0
3605,-20,348,0,3609.0,3638.0,1.0,24.0,343.0,342.0
3622,-41,360,0,3605.0,3609.0,-20.0,1.0,348.0,343.0
3646,-60,387,0,3622.0,3605.0,-41.0,-20.0,360.0,348.0
3685,-69,426,0,3646.0,3622.0,-60.0,-41.0,387.0,360.0
3725,-75,461,0,3685.0,3646.0,-69.0,-60.0,426.0,387.0
3755,-82,486,0,3725.0,3685.0,-75.0,-69.0,461.0,426.0
3778,-77,506,0,3755.0,3725.0,-82.0,-75.0,486.0,461.0
3787,-73,517,0,3778.0,3755.0,-77.0,-82.0,506.0,486.0
3768,-64,516,0,3787.0,3778.0,-73.0,-77.0,517.0,506.0
3725,-40,507,0,3768.0,3787.0,-64.0,-73.0,516.0,517.0
3655,-19,490,0,3725.0,3768.0,-40.0,-64.0,507.0,516.0
3573,5,459,0,3655.0,3725.0,-19.0,-40.0,490.0,507.0
3494,28,424,0,3573.0,3655.0,5.0,-19.0,459.0,490.0
3430,52,390,0,3494.0,3573.0,28.0,5.0,424.0,459.0
3381,79,369,0,3430.0,3494.0,52.0,28.0,390.0,424.0
3344,122,353,0,3381.0,3430.0,79.0,52.0,369.0,390.0
3318,174,363,0,3344.0,3381.0,122.0,79.0,353.0,369.0
3295,220,393,0,3318.0,3344.0,174.0,122.0,363.0,353.0
3283,258,423,0,3295.0,3318.0,220.0,174.0,393.0,363.0
3283,265,452,0,3283.0,3295.0,258.0,220.0,423.0,393.0
3301,239,496,0,3283.0,3283.0,265.0,258.0,452.0,423.0
3348,146,495,0,3301.0,3283.0,239.0,265.0,496.0,452.0
3429,-24,429,0,3348.0,3301.0,146.0,239.0,495.0,496.0
3542,-234,325,0,3429.0,3348.0,-24.0,146.0,429.0,495.0
3660,-442,235,0,3542.0,3429.0,-234.0,-24.0,325.0,429.0
3799,-669,162,0,3660.0,3542.0,-442.0,-234.0,235.0,325.0
3997,-946,42,0,3799.0,3660.0,-669.0,-442.0,162.0,235.0
4242,-1227,-164,0,3997.0,3799.0,-946.0,-669.0,42.0,162.0
4496,-1447,-378,0,4242.0,3997.0,-1227.0,-946.0,-164.0,42.0
4821,-1655,-580,0,4496.0,4242.0,-1447.0,-1227.0,-378.0,-164.0
5256,-1825,-812,0,4821.0,4496.0,-1655.0,-1447.0,-580.0,-378.0
5822,-1870,-1060,0,5256.0,4821.0,-1825.0,-1655.0,-812.0,-580.0
6516,-1749,-1245,0,5822.0,5256.0,-1870.0,-1825.0,-1060.0,-812.0
7289,-1472,-1264,0,6516.0,5822.0,-1749.0,-1870.0,-1245.0,-1060.0
8013,-1133,-1180,0,7289.0,6516.0,-1472.0,-1749.0,-1264.0,-1245.0
8555,-862,-1111,0,8013.0,7289.0,-1133.0,-1472.0,-1180.0,-1264.0
8767,-681,-1111,0,8555.0,8013.0,-862.0,-1133.0,-1111.0,-1180.0
8611,-568,-1161,0,8767.0,8555.0,-681.0,-862.0,-1111.0,-1111.0
8164,-402,-1206,0,8611.0,8767.0,-568.0,-681.0,-1161.0,-1111.0
7487,-87,-1217,0,8164.0,8611.0,-402.0,-568.0,-1206.0,-1161.0
6701,317,-1213,0,7487.0,8164.0,-87.0,-402.0,-1217.0,-1206.0
5914,637,-1193,0,6701.0,7487.0,317.0,-87.0,-1213.0,-1217.0
5183,775,-1172,0,5914.0,6701.0,637.0,317.0,-1193.0,-1213.0
4560,718,-1110,0,5183.0,5914.0,775.0,637.0,-1172.0,-1193.0
4070,494,-998,0,4560.0,5183.0,718.0,775.0,-1110.0,-1172.0
3720,205,-873,0,4070.0,4560.0,494.0,718.0,-998.0,-1110.0
3481,-75,-747,0,3720.0,4070.0,205.0,494.0,-873.0,-998.0
3357,-296,-619,0,3481.0,3720.0,-75.0,205.0,-747.0,-873.0
3315,-453,-513,0,3357.0,3481.0,-296.0,-75.0,-619.0,-747.0
3379,-570,-435,0,3315.0,3357.0,-453.0,-296.0,-513.0,-619.0
3543,-673,-390,0,3379.0,3315.0,-570.0,-453.0,-435.0,-513.0
3772,-751,-400,0,3543.0,3379.0,-673.0,-570.0,-390.0,-435.0
4033,-801,-456,0,3772.0,3543.0,-751.0,-673.0,-400.0,-390.0
4331,-811,-540,0,4033.0,3772.0,-801.0,-751.0,-456.0,-400.0
4638,-765,-650,0,4331.0,4033.0,-811.0,-801.0,-540.0,-456.0
4920,-664,-777,0,4638.0,4331.0,-765.0,-811.0,-650.0,-540.0
5142,-524,-881,0,4920.0,4638.0,-664.0,-765.0,-777.0,-650.0
5261,-335,-900,0,5142.0,4920.0,-524.0,-664.0,-881.0,-777.0
5277,-98,-852,0,5261.0,5142.0,-335.0,-524.0,-900.0,-881.0
5200,138,-801,0,5277.0,5261.0,-98.0,-335.0,-852.0,-900.0
5047,362,-774,0,5200.0,5277.0,138.0,-98.0,-801.0,-852.0
4855,547,-808,0,5047.0,5200.0,362.0,138.0,-774.0,-801.0
4650,708,-896,0,4855.0,5047.0,547.0,362.0,-808.0,-774.0
4446,845,-990,0,4650.0,4855.0,708.0,547.0,-896.0,-808.0
4285,954,-1062,0,4446.0,4650.0,845.0,708.0,-990.0,-896.0
4191,1042,-1095,0,4285.0,4446.0,954.0,845.0,-1062.0,-990.0
4156,1075,-1071,0,4191.0,4285.0,1042.0,954.0,-1095.0,-1062.0
4196,1049,-996,0,4156.0,4191.0,1075.0,1042.0,-1071.0,-1095.0
4278,981,-890,0,4196.0,4156.0,1049.0,1075.0,-996.0,-1071.0
4375,880,-753,0,4278.0,4196.0,981.0,1049.0,-890.0,-996.0
4472,748,-607,0,4375.0,4278.0,880.0,981.0,-753.0,-890.0
4562,586,-495,0,4472.0,4375.0,748.0,880.0,-607.0,-753.0
4613,419,-440,0,4562.0,4472.0,586.0,748.0,-495.0,-607.0
4624,266,-432,0,4613.0,4562.0,419.0,586.0,-440.0,-495.0
4589,139,-461,0,4624.0,4613.0,266.0,419.0,-432.0,-440.0
4514,62,-514,0,4589.0,4624.0,139.0,266.0,-461.0,-432.0
4410,27,-586,0,4514.0,4589.0,62.0,139.0,-514.0,-461.0
4286,27,-650,0,4410.0,4514.0,27.0,62.0,-586.0,-514.0
4173,59,-701,0,4286.0,4410.0,27.0,27.0,-650.0,-586.0
4060,104,-733,0,4173.0,4286.0,59.0,27.0,-701.0,-650.0
3961,146,-743,0,4060.0,4173.0,104.0,59.0,-733.0,-701.0
3880,179,-741,0,3961.0,4060.0,146.0,104.0,-743.0,-733.0
3811,202,-718,0,3880.0,3961.0,179.0,146.0,-741.0,-743.0
3761,197,-693,0,3811.0,3880.0,202.0,179.0,-718.0,-741.0
3725,182,-664,0,3761.0,3811.0,197.0,202.0,-693.0,-718.0
3707,159,-644,0,3725.0,3761.0,182.0,197.0,-664.0,-693.0
3697,127,-640,0,3707.0,3725.0,159.0,182.0,-644.0,-664.0
3692,99,-645,0,3697.0,3707.0,127.0,159.0,-640.0,-644.0
3688,84,-653,0,3692.0,3697.0,99.0,127.0,-645.0,-640.0
3684,80,-646,0,3688.0,3692.0,84.0,99.0,-653.0,-645.0
3672,76,-636,0,3684.0,3688.0,80.0,84.0,-646.0,-653.0
3662,73,-617,0,3672.0,3684.0,76.0,80.0,-636.0,-646.0
3644,62,-587,0,3662.0,3672.0,73.0,76.0,-617.0,-636.0
3629,39,-553,0,3644.0,3662.0,62.0,73.0,-587.0,-617.0
3612,18,-515,0,3629.0,3644.0,39.0,62.0,-553.0,-587.0
3590,-1,-467,0,3612.0,3629.0,18.0,39.0,-515.0,-553.0
3565,-18,-435,0,3590.0,3612.0,-1.0,18.0,-467.0,-515.0
3540,-34,-409,0,3565.0,3590.0,-18.0,-1.0,-435.0,-467.0
3519,-43,-398,0,3540.0,3565.0,-34.0,-18.0,-409.0,-435.0
3498,-43,-402,0,3519.0,3540.0,-43.0,-34.0,-398.0,-409.0
3487,-36,-421,0,3498.0,3519.0,-43.0,-43.0,-402.0,-398.0
3484,-28,-436,0,3487.0,3498.0,-36.0,-43.0,-421.0,-402.0
3491,-13,-457,0,3484.0,3487.0,-28.0,-36.0,-436.0,-421.0
3516,13,-471,0,3491.0,3484.0,-13.0,-28.0,-457.0,-436.0
3541,51,-478,0,3516.0,3491.0,13.0,-13.0,-471.0,-457.0
3568,90,-487,0,3541.0,3516.0,51.0,13.0,-478.0,-471.0
3591,135,-497,0,3568.0,3541.0,90.0,51.0,-487.0,-478.0
3617,177,-488,0,3591.0,3568.0,135.0,90.0,-497.0,-487.0
3634,217,-464,0,3617.0,3591.0,177.0,135.0,-488.0,-497.0
3644,253,-416,0,3634.0,3617.0,217.0,177.0,-464.0,-488.0
3655,278,-357,0,3644.0,3634.0,253.0,217.0,-416.0,-464.0
3664,289,-284,0,3655.0,3644.0,278.0,253.0,-357.0,-416.0
3670,290,-209,0,3664.0,3655.0,289.0,278.0,-284.0,-357.0
3670,287,-139,0,3670.0,3664.0,290.0,289.0,-209.0,-284.0
3667,285,-80,0,3670.0,3670.0,287.0,290.0,-139.0,-209.0
3669,288,-36,0,3667.0,3670.0,285.0,287.0,-80.0,-139.0
3674,292,-7,0,3669.0,3667.0,288.0,285.0,-36.0,-80.0
3680,306,8,0,3674.0,3669.0,292.0,288.0,-7.0,-36.0
3692,321,18,0,3680.0,3674.0,306.0,292.0,8.0,-7.0
3713,335,23,0,3692.0,3680.0,321.0,306.0,18.0,8.0
3750,345,16,0,3713.0,3692.0,335.0,321.0,23.0,18.0
3794,361,6,0,3750.0,3713.0,345.0,335.0,16.0,23.0
3833,376,-25,0,3794.0,3750.0,361.0,345.0,6.0,16.0
3870,398,-58,0,3833.0,3794.0,376.0,361.0,-25.0,6.0
3897,429,-97,0,3870.0,3833.0,398.0,376.0,-58.0,-25.0
3916,460,-140,0,3897.0,3870.0,429.0,398.0,-97.0,-58.0
3915,493,-176,0,3916.0,3897.0,460.0,429.0,-140.0,-97.0
3897,527,-208,0,3915.0,3916.0,493.0,460.0,-176.0,-140.0
3860,543,-236,0,3897.0,3915.0,527.0,493.0,-208.0,-176.0
3811,543,-261,0,3860.0,3897.0,543.0,527.0,-236.0,-208.0
3755,523,-292,0,3811.0,3860.0,543.0,543.0,-261.0,-236.0
3711,486,-315,0,3755.0,3811.0,523.0,543.0,-292.0,-261.0
3683,445,-341,0,3711.0,3755.0,486.0,523.0,-315.0,-292.0
3669,394,-382,0,3683.0,3711.0,445.0,486.0,-341.0,-315.0
3662,354,-426,0,3669.0,3683.0,394.0,445.0,-382.0,-341.0
3652,334,-463,0,3662.0,3669.0,354.0,394.0,-426.0,-382.0
3635,336,-481,0,3652.0,3662.0,334.0,354.0,-463.0,-426.0
3606,350,-476,0,3635.0,3652.0,336.0,334.0,-481.0,-463.0
3559,364,-456,0,3606.0,3635.0,350.0,336.0,-476.0,-481.0
3495,379,-412,0,3559.0,3606.0,364.0,350.0,-456.0,-476.0
3414,360,-370,0,3495.0,3559.0,379.0,364.0,-412.0,-456.0
3321,308,-342,0,3414.0,3495.0,360.0,379.0,-370.0,-412.0
3226,244,-325,0,3321.0,3414.0,308.0,360.0,-342.0,-370.0
3136,172,-306,0,3226.0,3321.0,244.0,308.0,-325.0,-342.0
3057,107,-276,0,3136.0,3226.0,172.0,244.0,-306.0,-325.0
2987,67,-230,0,3057.0,3136.0,107.0,172.0,-276.0,-306.0
2923,49,-173,0,2987.0,3057.0,67.0,107.0,-230.0,-276.0
2879,45,-110,0,2923.0,2987.0,49.0,67.0,-173.0,-230.0
2842,53,-54,0,2879.0,2923.0,45.0,49.0,-110.0,-173.0
2819,67,-5,0,2842.0,2879.0,53.0,45.0,-54.0,-110.0
2810,84,50,0,2819.0,2842.0,67.0,53.0,-5.0,-54.0
2816,98,87,0,2810.0,2819.0,84.0,67.0,50.0,-5.0
2833,86,123,0,2816.0,2810.0,98.0,84.0,87.0,50.0
2857,55,164,0,2833.0,2816.0,86.0,98.0,123.0,87.0
2896,19,200,0,2857.0,2833.0,55.0,86.0,164.0,123.0
2946,-24,240,0,2896.0,2857.0,19.0,55.0,200.0,164.0
3002,-65,287,0,2946.0,2896.0,-24.0,19.0,240.0,200.0
3066,-109,338,0,3002.0,2946.0,-65.0,-24.0,287.0,240.0
3140,-163,384,0,3066.0,3002.0,-109.0,-65.0,338.0,287.0
3219,-220,413,0,3140.0,3066.0,-163.0,-109.0,384.0,338.0
3302,-275,432,0,3219.0,3140.0,-220.0,-163.0,413.0,384.0
3379,-308,447,0,3302.0,3219.0,-275.0,-220.0,432.0,413.0
3434,-307,475,0,3379.0,3302.0,-308.0,-275.0,447.0,432.0
3466,-269,495,0,3434.0,3379.0,-307.0,-308.0,475.0,447.0
3480,-201,499,0,3466.0,3434.0,-269.0,-307.0,495.0,475.0
3477,-111,482,0,3480.0,3466.0,-201.0,-269.0,499.0,495.0
3472,-27,467,0,3477.0,3480.0,-111.0,-201.0,482.0,499.0
3458,56,454,0,3472.0,3477.0,-27.0,-111.0,467.0,482.0
3431,127,435,0,3458.0,3472.0,56.0,-27.0,454.0,467.0
3390,187,399,0,3431.0,3458.0,127.0,56.0,435.0,454.0
3341,241,352,0,3390.0,3431.0,187.0,127.0,399.0,435.0
3294,295,318,0,3341.0,3390.0,241.0,187.0,352.0,399.0
3257,354,314,0,3294.0,3341.0,295.0,241.0,318.0,352.0
3233,431,338,0,3257.0,3294.0,354.0,295.0,314.0,318.0
3217,509,386,0,3233.0,3257.0,431.0,354.0,338.0,314.0
3213,571,441,0,3217.0,3233.0,509.0,431.0,386.0,338.0
3217,617,496,0,3213.0,3217.0,571.0,509.0,441.0,386.0
3226,642,542,0,3217.0,3213.0,617.0,571.0,496.0,441.0
3226,706,602,0,3226.0,3217.0,642.0,617.0,542.0,496.0
3223,771,626,0,3226.0,3226.0,706.0,642.0,602.0,542.0
3223,846,621,0,3223.0,3226.0,771.0,706.0,626.0,602.0
3217,961,588,0,3223.0,3223.0,846.0,771.0,621.0,626.0
3221,1026,459,0,3217.0,3223.0,961.0,846.0,588.0,621.0
3261,1002,217,0,3221.0,3217.0,1026.0,961.0,459.0,588.0
3347,903,-127,0,3261.0,3221.0,1002.0,1026.0,217.0,459.0
3483,772,-529,0,3347.0,3261.0,903.0,1002.0,-127.0,217.0
3695,615,-956,0,3483.0,3347.0,772.0,903.0,-529.0,-127.0
3999,458,-1357,0,3695.0,3483.0,615.0,772.0,-956.0,-529.0
4415,290,-1688,0,3999.0,3695.0,458.0,615.0,-1357.0,-956.0
4911,98,-1875,0,4415.0,3999.0,290.0,458.0,-1688.0,-1357.0
5445,-102,-1874,0,4911.0,4415.0,98.0,290.0,-1875.0,-1688.0
5981,-289,-1718,0,5445.0,4911.0,-102.0,98.0,-1874.0,-1875.0
6460,-447,-1463,0,5981.0,5445.0,-289.0,-102.0,-1718.0,-1874.0
6833,-569,-1165,0,6460.0,5981.0,-447.0,-289.0,-1463.0,-1718.0
7044,-614,-877,0,6833.0,6460.0,-569.0,-447.0,-1165.0,-1463.0
7068,-568,-656,0,7044.0,6833.0,-614.0,-569.0,-877.0,-1165.0
6949,-496,-535,0,7068.0,7044.0,-568.0,-614.0,-656.0,-877.0
6751,-452,-510,0,6949.0,7068.0,-496.0,-568.0,-535.0,-656.0
6547,-515,-556,0,6751.0,6949.0,-452.0,-496.0,-510.0,-535.0
6399,-767,-695,0,6547.0,6751.0,-515.0,-452.0,-556.0,-510.0
6332,-1240,-919,0,6399.0,6547.0,-767.0,-515.0,-695.0,-556.0
6371,-1828,-1138,0,6332.0,6399.0,-1240.0,-767.0,-919.0,-695.0
6495,-2324,-1221,0,6371.0,6332.0,-1828.0,-1240.0,-1138.0,-919.0
6681,-2553,-1067,0,6495.0,6371.0,-2324.0,-1828.0,-1221.0,-1138.0
6927,-2502,-677,0,6681.0,6495.0,-2553.0,-2324.0,-1067.0,-1221.0
7216,-2241,-204,0,6927.0,6681.0,-2502.0,-2553.0,-677.0,-1067.0
7506,-1857,206,0,7216.0,6927.0,-2241.0,-2502.0,-204.0,-677.0
7740,-1443,440,0,7506.0,7216.0,-1857.0,-2241.0,206.0,-204.0
7859,-1061,477,0,7740.0,7506.0,-1443.0,-1857.0,440.0,206.0
7842,-730,375,0,7859.0,7740.0,-1061.0,-1443.0,477.0,440.0
7691,-429,202,0,7842.0,7859.0,-730.0,-1061.0,375.0,477.0
7423,-158,-12,0,7691.0,7842.0,-429.0,-730.0,202.0,375.0
7065,76,-233,0,7423.0,7691.0,-158.0,-429.0,-12.0,202.0
6637,277,-428,0,7065.0,7423.0,76.0,-158.0,-233.0,-12.0
6183,445,-589,0,6637.0,7065.0,277.0,76.0,-428.0,-233.0
5731,569,-737,0,6183.0,6637.0,445.0,277.0,-589.0,-428.0
5302,658,-864,0,5731.0,6183.0,569.0,445.0,-737.0,-589.0
4927,711,-946,0,5302.0,5731.0,658.0,569.0,-864.0,-737.0
4630,691,-974,0,4927.0,5302.0,711.0,658.0,-946.0,-864.0
4434,604,-942,0,4630.0,4927.0,691.0,711.0,-974.0,-946.0
4345,482,-825,0,4434.0,4630.0,604.0,691.0,-942.0,-974.0
4345,326,-641,0,4345.0,4434.0,482.0,604.0,-825.0,-942.0
4402,140,-438,0,4345.0,4345.0,326.0,482.0,-641.0,-825.0
4496,-75,-240,0,4402.0,4345.0,140.0,326.0,-438.0,-641.0
4582,-281,-73,0,4496.0,4402.0,-75.0,140.0,-240.0,-438.0
4628,-476,38,0,4582.0,4496.0,-281.0,-75.0,-73.0,-240.0
4627,-629,89,0,4628.0,4582.0,-476.0,-281.0,38.0,-73.0
4590,-717,102,0,4627.0,4628.0,-629.0,-476.0,89.0,38.0
4525,-750,85,0,4590.0,4627.0,-717.0,-629.0,102.0,89.0
4429,-765,46,0,4525.0,4590.0,-750.0,-717.0,85.0,102.0
4309,-772,-22,0,4429.0,4525.0,-765.0,-750.0,46.0,85.0
4181,-775,-120,0,4309.0,4429.0,-772.0,-765.0,-22.0,46.0
4038,-782,-244,0,4181.0,4309.0,-775.0,-772.0,-120.0,-22.0
3884,-770,-383,0,4038.0,4181.0,-782.0,-775.0,-244.0,-120.0
3731,-739,-519,0,3884.0,4038.0,-770.0,-782.0,-383.0,-244.0
3575,-697,-636,0,3731.0,3884.0,-739.0,-770.0,-519.0,-383.0
3420,-645,-724,0,3575.0,3731.0,-697.0,-739.0,-636.0,-519.0
3271,-593,-777,0,3420.0,3575.0,-645.0,-697.0,-724.0,-636.0
3133,-557,-799,0,3271.0,3420.0,-593.0,-645.0,-777.0,-724.0
3010,-533,-788,0,3133.0,3271.0,-557.0,-593.0,-799.0,-777.0
2911,-526,-756,0,3010.0,3133.0,-533.0,-557.0,-788.0,-799.0
2839,-545,-711,0,2911.0,3010.0,-526.0,-533.0,-756.0,-788.0
2788,-572,-647,0,2839.0,2911.0,-545.0,-526.0,-711.0,-756.0
2752,-611,-574,0,2788.0,2839.0,-572.0,-545.0,-647.0,-711.0
2737,-646,-484,0,2752.0,2788.0,-611.0,-572.0,-574.0,-647.0
2738,-681,-378,0,2737.0,2752.0,-646.0,-611.0,-484.0,-574.0
2749,-711,-274,0,2738.0,2737.0,-681.0,-646.0,-378.0,-484.0
2761,-724,-177,0,2749.0,2738.0,-711.0,-681.0,-274.0,-378.0
2778,-723,-95,0,2761.0,2749.0,-724.0,-711.0,-177.0,-274.0
2799,-706,-36,0,2778.0,2761.0,-723.0,-724.0,-95.0,-177.0
2822,-674,3,0,2799.0,2778.0,-706.0,-723.0,-36.0,-95.0
2841,-629,25,0,2822.0,2799.0,-674.0,-706.0,3.0,-36.0
2851,-581,36,0,2841.0,2822.0,-629.0,-674.0,25.0,3.0
2858,-529,39,0,2851.0,2841.0,-581.0,-629.0,36.0,25.0
2858,-464,43,0,2858.0,2851.0,-529.0,-581.0,39.0,36.0
2856,-397,47,0,2858.0,2858.0,-464.0,-529.0,43.0,39.0
2854,-327,55,0,2856.0,2858.0,-397.0,-464.0,47.0,43.0
2865,-263,54,0,2854.0,2856.0,-327.0,-397.0,55.0,47.0
2891,-220,45,0,2865.0,2854.0,-263.0,-327.0,54.0,55.0
2933,-198,33,0,2891.0,2865.0,-220.0,-263.0,45.0,54.0
2988,-189,24,0,2933.0,2891.0,-198.0,-220.0,33.0,45.0
3061,-200,22,0,2988.0,2933.0,-189.0,-198.0,24.0,33.0
3150,-210,19,0,3061.0,2988.0,-200.0,-189.0,22.0,24.0
3244,-220,20,0,3150.0,3061.0,-210.0,-200.0,19.0,22.0
3340,-232,21,0,3244.0,3150.0,-220.0,-210.0,20.0,19.0
3438,-242,19,0,3340.0,3244.0,-232.0,-220.0,21.0,20.0
3537,-257,18,0,3438.0,3340.0,-242.0,-232.0,19.0,21.0
3631,-272,17,0,3537.0,3438.0,-257.0,-242.0,18.0,19.0
3714,-279,14,0,3631.0,3537.0,-272.0,-257.0,17.0,18.0
3781,-291,15,0,3714.0,3631.0,-279.0,-272.0,14.0,17.0
3829,-302,21,0,3781.0,3714.0,-291.0,-279.0,15.0,14.0
3854,-311,26,0,3829.0,3781.0,-302.0,-291.0,21.0,15.0
3857,-316,30,0,3854.0,3829.0,-311.0,-302.0,26.0,21.0
3835,-306,32,0,3857.0,3854.0,-316.0,-311.0,30.0,26.0
3796,-286,47,0,3835.0,3857.0,-306.0,-316.0,32.0,30.0
3744,-256,63,0,3796.0,3835.0,-286.0,-306.0,47.0,32.0
3685,-233,83,0,3744.0,3796.0,-256.0,-286.0,63.0,47.0
3622,-220,97,0,3685.0,3744.0,-233.0,-256.0,83.0,63.0
3569,-213,109,0,3622.0,3685.0,-220.0,-233.0,97.0,83.0
3534,-223,103,0,3569.0,3622.0,-213.0,-220.0,109.0,97.0
3516,-245,94,0,3534.0,3569.0,-223.0,-213.0,103.0,109.0
3513,-277,98,0,3516.0,3534.0,-245.0,-223.0,94.0,103.0
3529,-316,106,0,3513.0,3516.0,-277.0,-245.0,98.0,94.0
3565,-369,113,0,3529.0,3513.0,-316.0,-277.0,106.0,98.0
3618,-425,116,0,3565.0,3529.0,-369.0,-316.0,113.0,106.0
3677,-481,126,0,3618.0,3565.0,-425.0,-369.0,116.0,113.0
3730,-529,132,0,3677.0,3618.0,-481.0,-425.0,126.0,116.0
3781,-571,136,0,3730.0,3677.0,-529.0,-481.0,132.0,126.0
3826,-589,137,0,3781.0,3730.0,-571.0,-529.0,136.0,132.0
3859,-585,134,0,3826.0,3781.0,-589.0,-571.0,137.0,136.0
3884,-556,139,0,3859.0,3826.0,-585.0,-589.0,134.0,137.0
3909,-514,131,0,3884.0,3859.0,-556.0,-585.0,139.0,134.0
3929,-458,112,0,3909.0,3884.0,-514.0,-556.0,131.0,139.0
3939,-378,86,0,3929.0,3909.0,-458.0,-514.0,112.0,131.0
3937,-292,60,0,3939.0,3929.0,-378.0,-458.0,86.0,112.0
3921,-204,37,0,3937.0,3939.0,-292.0,-378.0,60.0,86.0
3894,-129,17,0,3921.0,3937.0,-204.0,-292.0,37.0,60.0
3852,-65,-11,0,3894.0,3921.0,-129.0,-204.0,17.0,37.0
3791,-12,-36,0,3852.0,3894.0,-65.0,-129.0,-11.0,17.0
3711,45,-48,0,3791.0,3852.0,-12.0,-65.0,-36.0,-11.0
3615,106,-43,0,3711.0,3791.0,45.0,-12.0,-48.0,-36.0
3506,161,-23,0,3615.0,3711.0,106.0,45.0,-43.0,-48.0
3401,195,12,0,3506.0,3615.0,161.0,106.0,-23.0,-43.0
3302,198,59,0,3401.0,3506.0,195.0,161.0,12.0,-23.0
3214,170,116,0,3302.0,3401.0,198.0,195.0,59.0,12.0
3144,127,180,0,3214.0,3302.0,170.0,198.0,116.0,59.0
3084,73,240,0,3144.0,3214.0,127.0,170.0,180.0,116.0
3048,9,290,0,3084.0,3144.0,73.0,127.0,240.0,180.0
3027,-49,342,0,3048.0,3084.0,9.0,73.0,290.0,240.0
3025,-107,396,0,3027.0,3048.0,-49.0,9.0,342.0,290.0
3046,-164,454,0,3025.0,3027.0,-107.0,-49.0,396.0,342.0
3085,-216,513,0,3046.0,3025.0,-164.0,-107.0,454.0,396.0
3140,-256,571,0,3085.0,3046.0,-216.0,-164.0,513.0,454.0
3199,-286,619,0,3140.0,3085.0,-256.0,-216.0,571.0,513.0
3257,-301,662,0,3199.0,3140.0,-286.0,-256.0,619.0,571.0
3311,-292,690,0,3257.0,3199.0,-301.0,-286.0,662.0,619.0
3346,-288,691,0,3311.0,3257.0,-292.0,-301.0,690.0,662.0
3365,-262,673,0,3346.0,3311.0,-288.0,-292.0,691.0,690.0
3368,-227,638,0,3365.0,3346.0,-262.0,-288.0,673.0,691.0
3357,-185,606,0,3368.0,3365.0,-227.0,-262.0,638.0,673.0
3323,-118,558,0,3357.0,3368.0,-185.0,-227.0,606.0,638.0
3277,-56,525,0,3323.0,3357.0,-118.0,-185.0,558.0,606.0
3220,-3,490,0,3277.0,3323.0,-56.0,-118.0,525.0,558.0
3157,39,454,0,3220.0,3277.0,-3.0,-56.0,490.0,525.0
3103,74,425,0,3157.0,3220.0,39.0,-3.0,454.0,490.0
3055,91,406,0,3103.0,3157.0,74.0,39.0,425.0,454.0
3026,92,402,0,3055.0,3103.0,91.0,74.0,406.0,425.0
3023,76,420,0,3026.0,3055.0,92.0,91.0,402.0,406.0
3048,52,461,0,3023.0,3026.0,76.0,92.0,420.0,402.0
3096,21,511,0,3048.0,3023.0,52.0,76.0,461.0,420.0
3152,-13,552,0,3096.0,3048.0,21.0,52.0,511.0,461.0
3218,-44,606,0,3152.0,3096.0,-13.0,21.0,552.0,511.0
3293,-82,638,0,3218.0,3152.0,-44.0,-13.0,606.0,552.0
3366,-114,660,0,3293.0,3218.0,-82.0,-44.0,638.0,606.0
3426,-140,674,0,3366.0,3293.0,-114.0,-82.0,660.0,638.0
3472,-146,688,0,3426.0,3366.0,-140.0,-114.0,674.0,660.0
3507,-151,686,0,3472.0,3426.0,-146.0,-140.0,688.0,674.0
3526,-158,674,0,3507.0,3472.0,-151.0,-146.0,686.0,688.0
3523,-171,635,0,3526.0,3507.0,-158.0,-151.0,674.0,686.0
3529,-234,588,0,3523.0,3526.0,-171.0,-158.0,635.0,674.0
3566,-354,492,0,3529.0,3523.0,-234.0,-171.0,588.0,635.0
3627,-509,373,0,3566.0,3529.0,-354.0,-234.0,492.0,588.0
3708,-667,275,0,3627.0,3566.0,-509.0,-354.0,373.0,492.0
3826,-882,174,0,3708.0,3627.0,-667.0,-509.0,275.0,373.0
4006,-1185,16,0,3826.0,3708.0,-882.0,-667.0,174.0,275.0
4232,-1521,-223,0,4006.0,3826.0,-1185.0,-882.0,16.0,174.0
4482,-1794,-442,0,4232.0,4006.0,-1521.0,-1185.0,-223.0,16.0
4761,-1980,-616,0,4482.0,4232.0,-1794.0,-1521.0,-442.0,-223.0
5107,-2102,-829,0,4761.0,4482.0,-1980.0,-1794.0,-616.0,-442.0
5569,-2109,-1060,0,5107.0,4761.0,-2102.0,-1980.0,-829.0,-616.0
6138,-1918,-1218,0,5569.0,5107.0,-2109.0,-2102.0,-1060.0,-829.0
6757,-1540,-1202,0,6138.0,5569.0,-1918.0,-2109.0,-1218.0,-1060.0
7324,-1070,-932,0,6757.0,6138.0,-1540.0,-1918.0,-1202.0,-1218.0
7735,-633,-549,0,7324.0,6757.0,-1070.0,-1540.0,-932.0,-1202.0
7916,-351,-233,0,7735.0,7324.0,-633.0,-1070.0,-549.0,-932.0
7903,-263,-61,0,7916.0,7735.0,-351.0,-633.0,-233.0,-549.0
7737,-250,-38,0,7903.0,7916.0,-263.0,-351.0,-61.0,-233.0
7422,-225,-175,0,7737.0,7903.0,-250.0,-263.0,-38.0,-61.0
7006,-175,-425,0,7422.0,7737.0,-225.0,-250.0,-175.0,-38.0
6549,-82,-664,0,7006.0,7422.0,-175.0,-225.0,-425.0,-175.0
6107,31,-806,0,6549.0,7006.0,-82.0,-175.0,-664.0,-425.0
5711,99,-852,0,6107.0,6549.0,31.0,-82.0,-806.0,-664.0
5420,41,-868,0,5711.0,6107.0,99.0,31.0,-852.0,-806.0
5259,-112,-902,0,5420.0,5711.0,41.0,99.0,-868.0,-852.0
5209,-300,-968,0,5259.0,5420.0,-112.0,41.0,-902.0,-868.0
5244,-433,-999,0,5209.0,5259.0,-300.0,-112.0,-968.0,-902.0
5304,-454,-1022,0,5244.0,5209.0,-433.0,-300.0,-999.0,-968.0
5366,-347,-987,0,5304.0,5244.0,-454.0,-433.0,-1022.0,-999.0
5391,-169,-889,0,5366.0,5304.0,-347.0,-454.0,-987.0,-1022.0
5325,29,-776,0,5391.0,5366.0,-169.0,-347.0,-889.0,-987.0
5196,198,-649,0,5325.0,5391.0,29.0,-169.0,-776.0,-889.0
