accelerometer_x,accelerometer_y,accelerometer_z,fall,x_lag_1,x_lag_2,y_lag_1,y_lag_2,z_lag_1,z_lag_2
2438,-788,1470,0,,,,,,
3797,-846,1154,0,2438.0,,-788.0,,1470.0,
5601,-721,1150,0,3797.0,2438.0,-846.0,-788.0,1154.0,1470.0
7828,-672,1006,0,5601.0,3797.0,-721.0,-846.0,1150.0,1154.0
10401,-349,532,0,7828.0,5601.0,-672.0,-721.0,1006.0,1150.0
13293,443,464,0,10401.0,7828.0,-349.0,-672.0,532.0,1006.0
15998,1300,945,0,13293.0,10401.0,443.0,-349.0,464.0,532.0
17725,1773,1531,0,15998.0,13293.0,1300.0,443.0,945.0,464.0
17677,1741,1753,0,17725.0,15998.0,1773.0,1300.0,1531.0,945.0
15586,1570,1882,0,17677.0,17725.0,1741.0,1773.0,1753.0,1531.0
11980,1706,1999,0,15586.0,17677.0,1570.0,1741.0,1882.0,1753.0
8084,2111,1883,0,11980.0,15586.0,1706.0,1570.0,1999.0,1882.0
5170,2289,1300,0,8084.0,11980.0,2111.0,1706.0,1883.0,1999.0
3717,2035,727,0,5170.0,8084.0,2289.0,2111.0,1300.0,1883.0
3591,1484,554,0,3717.0,5170.0,2035.0,2289.0,727.0,1300.0
4322,1069,713,0,3591.0,3717.0,1484.0,2035.0,554.0,727.0
5473,946,1003,0,4322.0,3591.0,1069.0,1484.0,713.0,554.0
6666,1042,1343,0,5473.0,4322.0,946.0,1069.0,1003.0,713.0
7684,1210,1650,0,6666.0,5473.0,1042.0,946.0,1343.0,1003.0
8408,1427,1885,0,7684.0,6666.0,1210.0,1042.0,1650.0,1343.0
8798,1625,1988,0,8408.0,7684.0,1427.0,1210.0,1885.0,1650.0
8882,1781,1955,0,8798.0,8408.0,1625.0,1427.0,1988.0,1885.0
8711,1949,1868,0,8882.0,8798.0,1781.0,1625.0,1955.0,1988.0
8402,2167,1768,0,8711.0,8882.0,1949.0,1781.0,1868.0,1955.0
8037,2449,1677,0,8402.0,8711.0,2167.0,1949.0,1768.0,1868.0
7707,2758,1634,0,8037.0,8402.0,2449.0,2167.0,1677.0,1768.0
7434,3055,1674,0,7707.0,8037.0,2758.0,2449.0,1634.0,1677.0
7233,3242,1703,0,7434.0,7707.0,3055.0,2758.0,1674.0,1634.0
7111,3286,1673,0,7233.0,7434.0,3242.0,3055.0,1703.0,1674.0
7003,3294,1597,0,7111.0,7233.0,3286.0,3242.0,1673.0,1703.0
6929,3261,1534,0,7003.0,7111.0,3294.0,3286.0,1597.0,1673.0
6866,3192,1501,0,6929.0,7003.0,3261.0,3294.0,1534.0,1597.0
6800,3046,1445,0,6866.0,6929.0,3192.0,3261.0,1501.0,1534.0
6705,2834,1357,0,6800.0,6866.0,3046.0,3192.0,1445.0,1501.0
6599,2594,1248,0,6705.0,6800.0,2834.0,3046.0,1357.0,1445.0
6472,2383,1154,0,6599.0,6705.0,2594.0,2834.0,1248.0,1357.0
6296,2232,1069,0,6472.0,6599.0,2383.0,2594.0,1154.0,1248.0
6078,2095,975,0,6296.0,6472.0,2232.0,2383.0,1069.0,1154.0
5857,1969,909,0,6078.0,6296.0,2095.0,2232.0,975.0,1069.0
5655,1813,867,0,5857.0,6078.0,1969.0,2095.0,909.0,975.0
5492,1637,841,0,5655.0,5857.0,1813.0,1969.0,867.0,909.0
5346,1464,821,0,5492.0,5655.0,1637.0,1813.0,841.0,867.0
5222,1336,818,0,5346.0,5492.0,1464.0,1637.0,821.0,841.0
5085,1246,810,0,5222.0,5346.0,1336.0,1464.0,818.0,821.0
4920,1187,797,0,5085.0,5222.0,1246.0,1336.0,810.0,818.0
4721,1176,781,0,4920.0,5085.0,1187.0,1246.0,797.0,810.0
4500,1209,770,0,4721.0,4920.0,1176.0,1187.0,781.0,797.0
4281,1266,772,0,4500.0,4721.0,1209.0,1176.0,770.0,781.0
4021,1320,747,0,4281.0,4500.0,1266.0,1209.0,772.0,770.0
3747,1422,759,0,4021.0,4281.0,1320.0,1266.0,747.0,772.0
3474,1501,787,0,3747.0,4021.0,1422.0,1320.0,759.0,747.0
3192,1535,837,0,3474.0,3747.0,1501.0,1422.0,787.0,759.0
2934,1502,875,0,3192.0,3474.0,1535.0,1501.0,837.0,787.0
2688,1475,920,0,2934.0,3192.0,1502.0,1535.0,875.0,837.0
2451,1461,931,0,2688.0,2934.0,1475.0,1502.0,920.0,875.0
2264,1436,934,0,2451.0,2688.0,1461.0,1475.0,931.0,920.0
2123,1373,953,0,2264.0,2451.0,1436.0,1461.0,934.0,931.0
2016,1319,974,0,2123.0,2264.0,1373.0,1436.0,953.0,934.0
1908,1289,1002,0,2016.0,2123.0,1319.0,1373.0,974.0,953.0
1828,1259,1054,0,1908.0,2016.0,1289.0,1319.0,1002.0,974.0
1721,1226,1056,0,1828.0,1908.0,1259.0,1289.0,1054.0,1002.0
1616,1215,984,0,1721.0,1828.0,1226.0,1259.0,1056.0,1054.0
1507,1192,866,0,1616.0,1721.0,1215.0,1226.0,984.0,1056.0
1392,1151,762,0,1507.0,1616.0,1192.0,1215.0,866.0,984.0
1282,1079,673,0,1392.0,1507.0,1151.0,1192.0,762.0,866.0
1204,1002,612,0,1282.0,1392.0,1079.0,1151.0,673.0,762.0
1099,897,545,0,1204.0,1282.0,1002.0,1079.0,612.0,673.0
992,759,481,0,1099.0,1204.0,897.0,1002.0,545.0,612.0
873,637,415,0,992.0,1099.0,759.0,897.0,481.0,545.0
716,518,280,0,873.0,992.0,637.0,759.0,415.0,481.0
552,421,151,0,716.0,873.0,518.0,637.0,280.0,415.0
388,330,44,0,552.0,716.0,421.0,518.0,151.0,280.0
232,262,-44,0,388.0,552.0,330.0,421.0,44.0,151.0
75,182,-138,0,232.0,388.0,262.0,330.0,-44.0,44.0
-71,116,-155,0,75.0,232.0,182.0,262.0,-138.0,-44.0
-187,93,-111,0,-71.0,75.0,116.0,182.0,-155.0,-138.0
-298,85,-86,0,-187.0,-71.0,93.0,116.0,-111.0,-155.0
-419,79,-78,0,-298.0,-187.0,85.0,93.0,-86.0,-111.0
-522,55,-49,0,-419.0,-298.0,79.0,85.0,-78.0,-86.0
-597,13,-4,0,-522.0,-419.0,55.0,79.0,-49.0,-78.0
-650,-54,60,0,-597.0,-522.0,13.0,55.0,-4.0,-49.0
-688,-144,106,0,-650.0,-597.0,-54.0,13.0,60.0,-4.0
-695,-270,121,0,-688.0,-650.0,-144.0,-54.0,106.0,60.0
-672,-412,134,0,-695.0,-688.0,-270.0,-144.0,121.0,106.0
-641,-550,159,0,-672.0,-695.0,-412.0,-270.0,134.0,121.0
-604,-684,182,0,-641.0,-672.0,-550.0,-412.0,159.0,134.0
-548,-813,197,0,-604.0,-641.0,-684.0,-550.0,182.0,159.0
-485,-919,188,0,-548.0,-604.0,-813.0,-684.0,197.0,182.0
-437,-974,153,0,-485.0,-548.0,-919.0,-813.0,188.0,197.0
-399,-980,107,0,-437.0,-485.0,-974.0,-919.0,153.0,188.0
-368,-951,68,0,-399.0,-437.0,-980.0,-974.0,107.0,153.0
-335,-916,42,0,-368.0,-399.0,-951.0,-980.0,68.0,107.0
-325,-890,-23,0,-335.0,-368.0,-916.0,-951.0,42.0,68.0
-354,-858,-227,0,-325.0,-335.0,-890.0,-916.0,-23.0,42.0
-408,-871,-562,0,-354.0,-325.0,-858.0,-890.0,-227.0,-23.0
-423,-924,-901,0,-408.0,-354.0,-871.0,-858.0,-562.0,-227.0
-342,-977,-1057,0,-423.0,-408.0,-924.0,-871.0,-901.0,-562.0
-142,-946,-861,0,-342.0,-423.0,-977.0,-924.0,-1057.0,-901.0
141,-803,-342,0,-142.0,-342.0,-946.0,-977.0,-861.0,-1057.0
463,-636,258,0,141.0,-142.0,-803.0,-946.0,-342.0,-861.0
804,-566,683,0,463.0,141.0,-636.0,-803.0,258.0,-342.0
1194,-635,851,0,804.0,463.0,-566.0,-636.0,683.0,258.0
1670,-771,833,0,1194.0,804.0,-635.0,-566.0,851.0,683.0
2287,-841,852,0,1670.0,1194.0,-771.0,-635.0,833.0,851.0
3081,-792,1068,0,2287.0,1670.0,-841.0,-771.0,852.0,833.0
4073,-671,1443,0,3081.0,2287.0,-792.0,-841.0,1068.0,852.0
5435,-507,1790,0,4073.0,3081.0,-671.0,-792.0,1443.0,1068.0
7496,-325,2057,0,5435.0,4073.0,-507.0,-671.0,1790.0,1443.0
10291,-458,1983,0,7496.0,5435.0,-325.0,-507.0,2057.0,1790.0
13545,-1118,1460,0,10291.0,7496.0,-458.0,-325.0,1983.0,2057.0
16410,-1668,1058,0,13545.0,10291.0,-1118.0,-458.0,1460.0,1983.0
18315,-1834,1038,0,16410.0,13545.0,-1668.0,-1118.0,1058.0,1460.0
18255,-1797,926,0,18315.0,16410.0,-1834.0,-1668.0,1038.0,1058.0
16327,-1606,1401,0,18255.0,18315.0,-1797.0,-1834.0,926.0,1038.0
12909,-1206,2176,0,16327.0,18255.0,-1606.0,-1797.0,1401.0,926.0
9105,-844,2614,0,12909.0,16327.0,-1206.0,-1606.0,2176.0,1401.0
6107,-647,2479,0,9105.0,12909.0,-844.0,-1206.0,2614.0,2176.0
4426,-464,2030,0,6107.0,9105.0,-647.0,-844.0,2479.0,2614.0
4130,-173,1554,0,4426.0,6107.0,-464.0,-647.0,2030.0,2479.0
4770,317,1365,0,4130.0,4426.0,-173.0,-464.0,1554.0,2030.0
5911,877,1498,0,4770.0,4130.0,317.0,-173.0,1365.0,1554.0
7211,1369,1826,0,5911.0,4770.0,877.0,317.0,1498.0,1365.0
8447,1710,2175,0,7211.0,5911.0,1369.0,877.0,1826.0,1498.0
9389,1920,2396,0,8447.0,7211.0,1710.0,1369.0,2175.0,1826.0
9966,2121,2508,0,9389.0,8447.0,1920.0,1710.0,2396.0,2175.0
10211,2340,2514,0,9966.0,9389.0,2121.0,1920.0,2508.0,2396.0
10167,2567,2438,0,10211.0,9966.0,2340.0,2121.0,2514.0,2508.0
9929,2742,2344,0,10167.0,10211.0,2567.0,2340.0,2438.0,2514.0
9563,2851,2248,0,9929.0,10167.0,2742.0,2567.0,2344.0,2438.0
9149,2935,2167,0,9563.0,9929.0,2851.0,2742.0,2248.0,2344.0
8745,2996,2111,0,9149.0,9563.0,2935.0,2851.0,2167.0,2248.0
8381,3027,2077,0,8745.0,9149.0,2996.0,2935.0,2111.0,2167.0
8061,3016,2087,0,8381.0,8745.0,3027.0,2996.0,2077.0,2111.0
7819,2945,2139,0,8061.0,8381.0,3016.0,3027.0,2087.0,2077.0
7619,2785,2189,0,7819.0,8061.0,2945.0,3016.0,2139.0,2087.0
7463,2559,2225,0,7619.0,7819.0,2785.0,2945.0,2189.0,2139.0
7317,2306,2280,0,7463.0,7619.0,2559.0,2785.0,2225.0,2189.0
7148,2076,2343,0,7317.0,7463.0,2306.0,2559.0,2280.0,2225.0
6959,1875,2372,0,7148.0,7317.0,2076.0,2306.0,2343.0,2280.0
6772,1699,2345,0,6959.0,7148.0,1875.0,2076.0,2372.0,2343.0
6595,1517,2277,0,6772.0,6959.0,1699.0,1875.0,2345.0,2372.0
6409,1329,2188,0,6595.0,6772.0,1517.0,1699.0,2277.0,2345.0
6194,1173,2069,0,6409.0,6595.0,1329.0,1517.0,2188.0,2277.0
5939,1067,1945,0,6194.0,6409.0,1173.0,1329.0,2069.0,2188.0
5651,1015,1857,0,5939.0,6194.0,1067.0,1173.0,1945.0,2069.0
5327,968,1778,0,5651.0,5939.0,1015.0,1067.0,1857.0,1945.0
5013,888,1710,0,5327.0,5651.0,968.0,1015.0,1778.0,1857.0
4713,795,1648,0,5013.0,5327.0,888.0,968.0,1710.0,1778.0
4438,731,1576,0,4713.0,5013.0,795.0,888.0,1648.0,1710.0
4199,661,1469,0,4438.0,4713.0,731.0,795.0,1576.0,1648.0
3942,588,1340,0,4199.0,4438.0,661.0,731.0,1469.0,1576.0
3682,503,1187,0,3942.0,4199.0,588.0,661.0,1340.0,1469.0
3414,426,1030,0,3682.0,3942.0,503.0,588.0,1187.0,1340.0
3141,350,902,0,3414.0,3682.0,426.0,503.0,1030.0,1187.0
2862,300,803,0,3141.0,3414.0,350.0,426.0,902.0,1030.0
2600,250,745,0,2862.0,3141.0,300.0,350.0,803.0,902.0
2353,197,698,0,2600.0,2862.0,250.0,300.0,745.0,803.0
2106,130,635,0,2353.0,2600.0,197.0,250.0,698.0,745.0
1883,79,576,0,2106.0,2353.0,130.0,197.0,635.0,698.0
1671,39,517,0,1883.0,2106.0,79.0,130.0,576.0,635.0
1467,13,432,0,1671.0,1883.0,39.0,79.0,517.0,576.0
1243,-7,317,0,1467.0,1671.0,13.0,39.0,432.0,517.0
1035,-7,216,0,1243.0,1467.0,-7.0,13.0,317.0,432.0
817,15,111,0,1035.0,1243.0,-7.0,-7.0,216.0,317.0
583,50,34,0,817.0,1035.0,15.0,-7.0,111.0,216.0
326,79,-23,0,583.0,817.0,50.0,15.0,34.0,111.0
22,118,-69,0,326.0,583.0,79.0,50.0,-23.0,34.0
-287,144,-59,0,22.0,326.0,118.0,79.0,-69.0,-23.0
-607,154,-44,0,-287.0,22.0,144.0,118.0,-59.0,-69.0
-913,167,-37,0,-607.0,-287.0,154.0,144.0,-44.0,-59.0
-1213,191,-55,0,-913.0,-607.0,167.0,154.0,-37.0,-44.0
-1494,229,-93,0,-1213.0,-913.0,191.0,167.0,-55.0,-37.0
-1790,266,-154,0,-1494.0,-1213.0,229.0,191.0,-93.0,-55.0
-2055,255,-213,0,-1790.0,-1494.0,266.0,229.0,-154.0,-93.0
-2268,191,-259,0,-2055.0,-1790.0,255.0,266.0,-213.0,-154.0
-2448,101,-324,0,-2268.0,-2055.0,191.0,255.0,-259.0,-213.0
-2567,15,-398,0,-2448.0,-2268.0,101.0,191.0,-324.0,-259.0
-2639,-84,-493,0,-2567.0,-2448.0,15.0,101.0,-398.0,-324.0
-2646,-196,-607,0,-2639.0,-2567.0,-84.0,15.0,-493.0,-398.0
-2577,-322,-714,0,-2646.0,-2639.0,-196.0,-84.0,-607.0,-493.0
-2412,-438,-777,0,-2577.0,-2646.0,-322.0,-196.0,-714.0,-607.0
-2166,-502,-807,0,-2412.0,-2577.0,-438.0,-322.0,-777.0,-714.0
-1853,-523,-793,0,-2166.0,-2412.0,-502.0,-438.0,-807.0,-777.0
-1488,-493,-714,0,-1853.0,-2166.0,-523.0,-502.0,-793.0,-807.0
-1086,-467,-613,0,-1488.0,-1853.0,-493.0,-523.0,-714.0,-793.0
-679,-432,-516,0,-1086.0,-1488.0,-467.0,-493.0,-613.0,-714.0
-299,-368,-422,0,-679.0,-1086.0,-432.0,-467.0,-516.0,-613.0
56,-263,-365,0,-299.0,-679.0,-368.0,-432.0,-422.0,-516.0
375,-134,-344,0,56.0,-299.0,-263.0,-368.0,-365.0,-422.0
651,0,-348,0,375.0,56.0,-134.0,-263.0,-344.0,-365.0
895,128,-361,0,651.0,375.0,0.0,-134.0,-348.0,-344.0
1087,264,-367,0,895.0,651.0,128.0,0.0,-361.0,-348.0
1255,409,-315,0,1087.0,895.0,264.0,128.0,-367.0,-361.0
1371,551,-207,0,1255.0,1087.0,409.0,264.0,-315.0,-367.0
1415,672,-48,0,1371.0,1255.0,551.0,409.0,-207.0,-315.0
1397,744,192,0,1415.0,1371.0,672.0,551.0,-48.0,-207.0
1318,716,498,0,1397.0,1415.0,744.0,672.0,192.0,-48.0
1190,569,862,0,1318.0,1397.0,716.0,744.0,498.0,192.0
1031,297,1175,0,1190.0,1318.0,569.0,716.0,862.0,498.0
852,-63,1282,0,1031.0,1190.0,297.0,569.0,1175.0,862.0
724,-426,1099,0,852.0,1031.0,-63.0,297.0,1282.0,1175.0
729,-646,749,0,724.0,852.0,-426.0,-63.0,1099.0,1282.0
916,-643,490,0,729.0,724.0,-646.0,-426.0,749.0,1099.0
1243,-496,516,0,916.0,729.0,-643.0,-646.0,490.0,749.0
1729,-377,821,0,1243.0,916.0,-496.0,-643.0,516.0,490.0
2405,-326,1143,0,1729.0,1243.0,-377.0,-496.0,821.0,516.0
3225,-320,1168,0,2405.0,1729.0,-326.0,-377.0,1143.0,821.0
4320,-466,939,0,3225.0,2405.0,-320.0,-326.0,1168.0,1143.0
5784,-588,795,0,4320.0,3225.0,-466.0,-320.0,939.0,1168.0
7895,-459,934,0,5784.0,4320.0,-588.0,-466.0,795.0,939.0
10421,196,1273,0,7895.0,5784.0,-459.0,-588.0,934.0,795.0
13010,1044,1512,0,10421.0,7895.0,196.0,-459.0,1273.0,934.0
15402,1616,1654,0,13010.0,10421.0,1044.0,196.0,1512.0,1273.0
17054,1789,1649,0,15402.0,13010.0,1616.0,1044.0,1654.0,1512.0
17289,1598,1516,0,17054.0,15402.0,1789.0,1616.0,1649.0,1654.0
15864,1215,1569,0,17289.0,17054.0,1598.0,1789.0,1516.0,1649.0
12911,964,1827,0,15864.0,17289.0,1215.0,1598.0,1569.0,1516.0
9335,865,1909,0,12911.0,15864.0,964.0,1215.0,1827.0,1569.0
6200,672,1544,0,9335.0,12911.0,865.0,964.0,1909.0,1827.0
4289,158,838,0,6200.0,9335.0,672.0,865.0,1544.0,1909.0
3719,-420,317,0,4289.0,6200.0,158.0,672.0,838.0,1544.0
4173,-825,222,0,3719.0,4289.0,-420.0,158.0,317.0,838.0
5152,-855,396,0,4173.0,3719.0,-825.0,-420.0,222.0,317.0
6306,-530,726,0,5152.0,4173.0,-855.0,-825.0,396.0,222.0
7429,-74,1090,0,6306.0,5152.0,-530.0,-855.0,726.0,396.0
8407,336,1350,0,7429.0,6306.0,-74.0,-530.0,1090.0,726.0
9137,739,1488,0,8407.0,7429.0,336.0,-74.0,1350.0,1090.0
9587,1198,1541,0,9137.0,8407.0,739.0,336.0,1488.0,1350.0
9776,1691,1505,0,9587.0,9137.0,1198.0,739.0,1541.0,1488.0
9757,2155,1417,0,9776.0,9587.0,1691.0,1198.0,1505.0,1541.0
9582,2554,1330,0,9757.0,9776.0,2155.0,1691.0,1417.0,1505.0
9329,2885,1250,0,9582.0,9757.0,2554.0,2155.0,1330.0,1417.0
9022,3211,1195,0,9329.0,9582.0,2885.0,2554.0,1250.0,1330.0
8720,3502,1194,0,9022.0,9329.0,3211.0,2885.0,1195.0,1250.0
8460,3733,1229,0,8720.0,9022.0,3502.0,3211.0,1194.0,1195.0
8234,3869,1254,0,8460.0,8720.0,3733.0,3502.0,1229.0,1194.0
8010,3887,1249,0,8234.0,8460.0,3869.0,3733.0,1254.0,1229.0
7730,3819,1214,0,8010.0,8234.0,3887.0,3869.0,1249.0,1254.0
7451,3684,1164,0,7730.0,8010.0,3819.0,3887.0,1214.0,1249.0
7168,3463,1115,0,7451.0,7730.0,3684.0,3819.0,1164.0,1214.0
6883,3200,1067,0,7168.0,7451.0,3463.0,3684.0,1115.0,1164.0
6587,2957,1066,0,6883.0,7168.0,3200.0,3463.0,1067.0,1115.0
6310,2720,1067,0,6587.0,6883.0,2957.0,3200.0,1066.0,1067.0
6063,2466,1066,0,6310.0,6587.0,2720.0,2957.0,1067.0,1066.0
5839,2215,1046,0,6063.0,6310.0,2466.0,2720.0,1066.0,1067.0
5612,1981,1000,0,5839.0,6063.0,2215.0,2466.0,1046.0,1066.0
5393,1772,948,0,5612.0,5839.0,1981.0,2215.0,1000.0,1046.0
5155,1583,882,0,5393.0,5612.0,1772.0,1981.0,948.0,1000.0
4927,1415,829,0,5155.0,5393.0,1583.0,1772.0,882.0,948.0
4723,1278,767,0,4927.0,5155.0,1415.0,1583.0,829.0,882.0
4520,1131,711,0,4723.0,4927.0,1278.0,1415.0,767.0,829.0
4313,965,686,0,4520.0,4723.0,1131.0,1278.0,711.0,767.0
4091,838,675,0,4313.0,4520.0,965.0,1131.0,686.0,711.0
3843,773,659,0,4091.0,4313.0,838.0,965.0,675.0,686.0
3598,746,636,0,3843.0,4091.0,773.0,838.0,659.0,675.0
3346,776,629,0,3598.0,3843.0,746.0,773.0,636.0,659.0
3097,816,625,0,3346.0,3598.0,776.0,746.0,629.0,636.0
2863,855,666,0,3097.0,3346.0,816.0,776.0,625.0,629.0
2681,855,739,0,2863.0,3097.0,855.0,816.0,666.0,625.0
2488,857,775,0,2681.0,2863.0,855.0,855.0,739.0,666.0
2325,885,820,0,2488.0,2681.0,857.0,855.0,775.0,739.0
2168,971,866,0,2325.0,2488.0,885.0,857.0,820.0,775.0
2026,1027,917,0,2168.0,2325.0,971.0,885.0,866.0,820.0
1867,1077,964,0,2026.0,2168.0,1027.0,971.0,917.0,866.0
1695,1095,964,0,1867.0,2026.0,1077.0,1027.0,964.0,917.0
1509,1125,958,0,1695.0,1867.0,1095.0,1077.0,964.0,964.0
1335,1178,995,0,1509.0,1695.0,1125.0,1095.0,958.0,964.0
1159,1267,1011,0,1335.0,1509.0,1178.0,1125.0,995.0,958.0
1032,1351,971,0,1159.0,1335.0,1267.0,1178.0,1011.0,995.0
888,1418,816,0,1032.0,1159.0,1351.0,1267.0,971.0,1011.0
751,1429,580,0,888.0,1032.0,1418.0,1351.0,816.0,971.0
680,1428,388,0,751.0,888.0,1429.0,1418.0,580.0,816.0
671,1390,282,0,680.0,751.0,1428.0,1429.0,388.0,580.0
706,1297,254,0,671.0,680.0,1390.0,1428.0,282.0,388.0
743,1184,259,0,706.0,671.0,1297.0,1390.0,254.0,282.0
714,1090,246,0,743.0,706.0,1184.0,1297.0,259.0,254.0
599,1052,246,0,714.0,743.0,1090.0,1184.0,246.0,259.0
400,1057,252,0,599.0,714.0,1052.0,1090.0,246.0,246.0
164,1031,270,0,400.0,599.0,1057.0,1052.0,252.0,246.0
-64,928,300,0,164.0,400.0,1031.0,1057.0,270.0,252.0
-256,778,316,0,-64.0,164.0,928.0,1031.0,300.0,270.0
-413,622,355,0,-256.0,-64.0,778.0,928.0,316.0,300.0
-534,485,408,0,-413.0,-256.0,622.0,778.0,355.0,316.0
-609,354,472,0,-534.0,-413.0,485.0,622.0,408.0,355.0
-645,208,510,0,-609.0,-534.0,354.0,485.0,472.0,408.0
-656,59,486,0,-645.0,-609.0,208.0,354.0,510.0,472.0
-636,-89,455,0,-656.0,-645.0,59.0,208.0,486.0,510.0
-603,-219,430,0,-636.0,-656.0,-89.0,59.0,455.0,486.0
-581,-365,382,0,-603.0,-636.0,-219.0,-89.0,430.0,455.0
-567,-498,324,0,-581.0,-603.0,-365.0,-219.0,382.0,430.0
-576,-609,216,0,-567.0,-581.0,-498.0,-365.0,324.0,382.0
-600,-670,75,0,-576.0,-567.0,-609.0,-498.0,216.0,324.0
-616,-693,-47,0,-600.0,-576.0,-670.0,-609.0,75.0,216.0
-615,-694,-126,0,-616.0,-600.0,-693.0,-670.0,-47.0,75.0
-612,-663,-122,0,-615.0,-616.0,-694.0,-693.0,-126.0,-47.0
-610,-601,-63,0,-612.0,-615.0,-663.0,-694.0,-122.0,-126.0
-625,-532,10,0,-610.0,-612.0,-601.0,-663.0,-63.0,-122.0
-670,-447,47,0,-625.0,-610.0,-532.0,-601.0,10.0,-63.0
-746,-392,-26,0,-670.0,-625.0,-447.0,-532.0,47.0,10.0
-830,-414,-244,0,-746.0,-670.0,-392.0,-447.0,-26.0,47.0
-904,-523,-589,0,-830.0,-746.0,-414.0,-392.0,-244.0,-26.0
-947,-685,-1015,0,-904.0,-830.0,-523.0,-414.0,-589.0,-244.0
-902,-850,-1259,0,-947.0,-904.0,-685.0,-523.0,-1015.0,-589.0
-702,-986,-1061,0,-902.0,-947.0,-850.0,-685.0,-1259.0,-1015.0
-398,-1035,-506,0,-702.0,-902.0,-986.0,-850.0,-1061.0,-1259.0
-64,-1036,76,0,-398.0,-702.0,-1035.0,-986.0,-506.0,-1061.0
287,-1083,421,0,-64.0,-398.0,-1036.0,-1035.0,76.0,-506.0
670,-1196,476,0,287.0,-64.0,-1083.0,-1036.0,421.0,76.0
1136,-1378,348,0,670.0,287.0,-1196.0,-1083.0,476.0,421.0
1731,-1535,202,0,1136.0,670.0,-1378.0,-1196.0,348.0,476.0
2514,-1582,259,0,1731.0,1136.0,-1535.0,-1378.0,202.0,348.0
3623,-1470,543,0,2514.0,1731.0,-1582.0,-1535.0,259.0,202.0
5413,-1296,908,0,3623.0,2514.0,-1470.0,-1582.0,543.0,259.0
8486,-1389,1391,0,5413.0,3623.0,-1296.0,-1470.0,908.0,543.0
12978,-1678,1505,0,8486.0,5413.0,-1389.0,-1296.0,1391.0,908.0
17945,-1624,996,0,12978.0,8486.0,-1678.0,-1389.0,1505.0,1391.0
22111,-872,1203,0,17945.0,12978.0,-1624.0,-1678.0,996.0,1505.0
24126,-136,1394,0,22111.0,17945.0,-872.0,-1624.0,1203.0,996.0
22877,76,1589,0,24126.0,22111.0,-136.0,-872.0,1394.0,1203.0
18439,410,2138,0,22877.0,24126.0,76.0,-136.0,1589.0,1394.0
12697,874,2798,0,18439.0,22877.0,410.0,76.0,2138.0,1589.0
7826,644,2611,0,12697.0,18439.0,874.0,410.0,2798.0,2138.0
4722,91,1695,0,7826.0,12697.0,644.0,874.0,2611.0,2798.0
3372,-27,1076,0,4722.0,7826.0,91.0,644.0,1695.0,2611.0
3417,251,1035,0,3372.0,4722.0,-27.0,91.0,1076.0,1695.0
4394,643,1417,0,3417.0,3372.0,251.0,-27.0,1035.0,1076.0
5967,995,1997,0,4394.0,3417.0,643.0,251.0,1417.0,1035.0
7823,1449,2672,0,5967.0,4394.0,995.0,643.0,1997.0,1417.0
9602,2006,3120,0,7823.0,5967.0,1449.0,995.0,2672.0,1997.0
11022,2586,3271,0,9602.0,7823.0,2006.0,1449.0,3120.0,2672.0
11932,3067,3193,0,11022.0,9602.0,2586.0,2006.0,3271.0,3120.0
12282,3444,2986,0,11932.0,11022.0,3067.0,2586.0,3193.0,3271.0
12117,3716,2720,0,12282.0,11932.0,3444.0,3067.0,2986.0,3193.0
11583,3879,2486,0,12117.0,12282.0,3716.0,3444.0,2720.0,2986.0
10859,3896,2317,0,11583.0,12117.0,3879.0,3716.0,2486.0,2720.0
10105,3790,2221,0,10859.0,11583.0,3896.0,3879.0,2317.0,2486.0
9420,3595,2197,0,10105.0,10859.0,3790.0,3896.0,2221.0,2317.0
8867,3333,2213,0,9420.0,10105.0,3595.0,3790.0,2197.0,2221.0
8479,3021,2231,0,8867.0,9420.0,3333.0,3595.0,2213.0,2197.0
8198,2705,2247,0,8479.0,8867.0,3021.0,3333.0,2231.0,2213.0
7999,2394,2241,0,8198.0,8479.0,2705.0,3021.0,2247.0,2231.0
7853,2151,2243,0,7999.0,8198.0,2394.0,2705.0,2241.0,2247.0
7701,1929,2263,0,7853.0,7999.0,2151.0,2394.0,2243.0,2241.0
7514,1683,2251,0,7701.0,7853.0,1929.0,2151.0,2263.0,2243.0
7309,1440,2207,0,7514.0,7701.0,1683.0,1929.0,2251.0,2263.0
7076,1209,2171,0,7309.0,7514.0,1440.0,1683.0,2207.0,2251.0
6783,965,2126,0,7076.0,7309.0,1209.0,1440.0,2171.0,2207.0
6452,764,2040,0,6783.0,7076.0,965.0,1209.0,2126.0,2171.0
6104,620,1943,0,6452.0,6783.0,764.0,965.0,2040.0,2126.0
5731,524,1856,0,6104.0,6452.0,620.0,764.0,1943.0,2040.0
5332,471,1751,0,5731.0,6104.0,524.0,620.0,1856.0,1943.0
4926,461,1626,0,5332.0,5731.0,471.0,524.0,1751.0,1856.0
4529,506,1501,0,4926.0,5332.0,461.0,471.0,1626.0,1751.0
4141,601,1367,0,4529.0,4926.0,506.0,461.0,1501.0,1626.0
3736,718,1237,0,4141.0,4529.0,601.0,506.0,1367.0,1501.0
3332,838,1116,0,3736.0,4141.0,718.0,601.0,1237.0,1367.0
2949,956,1007,0,3332.0,3736.0,838.0,718.0,1116.0,1237.0
2585,1060,927,0,2949.0,3332.0,956.0,838.0,1007.0,1116.0
2242,1105,870,0,2585.0,2949.0,1060.0,956.0,927.0,1007.0
1925,1085,811,0,2242.0,2585.0,1105.0,1060.0,870.0,927.0
1633,1009,730,0,1925.0,2242.0,1085.0,1105.0,811.0,870.0
1361,888,627,0,1633.0,1925.0,1009.0,1085.0,730.0,811.0
1106,759,510,0,1361.0,1633.0,888.0,1009.0,627.0,730.0
861,622,387,0,1106.0,1361.0,759.0,888.0,510.0,627.0
614,489,282,0,861.0,1106.0,622.0,759.0,387.0,510.0
363,342,200,0,614.0,861.0,489.0,622.0,282.0,387.0
121,182,121,0,363.0,614.0,342.0,489.0,200.0,282.0
-131,51,52,0,121.0,363.0,182.0,342.0,121.0,200.0
-377,-77,1,0,-131.0,121.0,51.0,182.0,52.0,121.0
-635,-189,-44,0,-377.0,-131.0,-77.0,51.0,1.0,52.0
-910,-314,-109,0,-635.0,-377.0,-189.0,-77.0,-44.0,1.0
-1209,-441,-181,0,-910.0,-635.0,-314.0,-189.0,-109.0,-44.0
-1538,-574,-264,0,-1209.0,-910.0,-441.0,-314.0,-181.0,-109.0
-1874,-707,-343,0,-1538.0,-1209.0,-574.0,-441.0,-264.0,-181.0
-2205,-836,-407,0,-1874.0,-1538.0,-707.0,-574.0,-343.0,-264.0
-2531,-951,-461,0,-2205.0,-1874.0,-836.0,-707.0,-407.0,-343.0
-2817,-1081,-510,0,-2531.0,-2205.0,-951.0,-836.0,-461.0,-407.0
-3051,-1194,-537,0,-2817.0,-2531.0,-1081.0,-951.0,-510.0,-461.0
-3209,-1272,-524,0,-3051.0,-2817.0,-1194.0,-1081.0,-537.0,-510.0
-3292,-1318,-503,0,-3209.0,-3051.0,-1272.0,-1194.0,-524.0,-537.0
-3284,-1355,-487,0,-3292.0,-3209.0,-1318.0,-1272.0,-503.0,-524.0
-3209,-1379,-475,0,-3284.0,-3292.0,-1355.0,-1318.0,-487.0,-503.0
-3098,-1377,-472,0,-3209.0,-3284.0,-1379.0,-1355.0,-475.0,-487.0
-2946,-1350,-478,0,-3098.0,-3209.0,-1377.0,-1379.0,-472.0,-475.0
-2750,-1307,-484,0,-2946.0,-3098.0,-1350.0,-1377.0,-478.0,-472.0
-2490,-1242,-466,0,-2750.0,-2946.0,-1307.0,-1350.0,-484.0,-478.0
-2204,-1160,-458,0,-2490.0,-2750.0,-1242.0,-1307.0,-466.0,-484.0
-1880,-1073,-479,0,-2204.0,-2490.0,-1160.0,-1242.0,-458.0,-466.0
-1520,-971,-505,0,-1880.0,-2204.0,-1073.0,-1160.0,-479.0,-458.0
-1131,-840,-535,0,-1520.0,-1880.0,-971.0,-1073.0,-505.0,-479.0
-748,-694,-560,0,-1131.0,-1520.0,-840.0,-971.0,-535.0,-505.0
-392,-545,-574,0,-748.0,-1131.0,-694.0,-840.0,-560.0,-535.0
-44,-396,-556,0,-392.0,-748.0,-545.0,-694.0,-574.0,-560.0
286,-223,-528,0,-44.0,-392.0,-396.0,-545.0,-556.0,-574.0
625,-50,-479,0,286.0,-44.0,-223.0,-396.0,-528.0,-556.0
959,134,-394,0,625.0,286.0,-50.0,-223.0,-479.0,-528.0
1260,352,-298,0,959.0,625.0,134.0,-50.0,-394.0,-479.0
1506,566,-182,0,1260.0,959.0,352.0,134.0,-298.0,-394.0
1677,746,-90,0,1506.0,1260.0,566.0,352.0,-182.0,-298.0
1777,887,-56,0,1677.0,1506.0,746.0,566.0,-90.0,-182.0
1801,978,-77,0,1777.0,1677.0,887.0,746.0,-56.0,-90.0
1755,986,-114,0,1801.0,1777.0,978.0,887.0,-77.0,-56.0
1662,927,-122,0,1755.0,1801.0,986.0,978.0,-114.0,-77.0
1530,813,39,0,1662.0,1755.0,927.0,986.0,-122.0,-114.0
1436,569,515,0,1530.0,1662.0,813.0,927.0,39.0,-122.0
1463,125,1221,0,1436.0,1530.0,569.0,813.0,515.0,39.0
1517,-565,1555,0,1463.0,1436.0,125.0,569.0,1221.0,515.0
1545,-1363,1216,0,1517.0,1463.0,-565.0,125.0,1555.0,1221.0
1647,-1858,591,0,1545.0,1517.0,-1363.0,-565.0,1216.0,1555.0
1801,-1722,0,0,1647.0,1545.0,-1858.0,-1363.0,591.0,1216.0
2129,-1097,39,0,1801.0,1647.0,-1722.0,-1858.0,0.0,591.0
2753,-613,672,0,2129.0,1801.0,-1097.0,-1722.0,39.0,0.0
3578,-684,1081,0,2753.0,2129.0,-613.0,-1097.0,672.0,39.0
4497,-1026,1108,0,3578.0,2753.0,-684.0,-613.0,1081.0,672.0
5650,-1398,1044,0,4497.0,3578.0,-1026.0,-684.0,1108.0,1081.0
7231,-1687,798,0,5650.0,4497.0,-1398.0,-1026.0,1044.0,1108.0
9045,-1617,563,0,7231.0,5650.0,-1687.0,-1398.0,798.0,1044.0
10754,-1192,552,0,9045.0,7231.0,-1617.0,-1687.0,563.0,798.0
12239,-583,662,0,10754.0,9045.0,-1192.0,-1617.0,552.0,563.0
13361,-28,904,0,12239.0,10754.0,-583.0,-1192.0,662.0,552.0
13802,487,1381,0,13361.0,12239.0,-28.0,-583.0,904.0,662.0
13126,1083,1747,0,13802.0,13361.0,487.0,-28.0,1381.0,904.0
11400,1626,1762,0,13126.0,13802.0,1083.0,487.0,1747.0,1381.0
9253,1968,1567,0,11400.0,13126.0,1626.0,1083.0,1762.0,1747.0
7334,2033,1382,0,9253.0,11400.0,1968.0,1626.0,1567.0,1762.0
6039,1874,1220,0,7334.0,9253.0,2033.0,1968.0,1382.0,1567.0
5507,1687,1154,0,6039.0,7334.0,1874.0,2033.0,1220.0,1382.0
5606,1595,1156,0,5507.0,6039.0,1687.0,1874.0,1154.0,1220.0
6177,1673,1362,0,5606.0,5507.0,1595.0,1687.0,1156.0,1154.0
7066,1843,1691,0,6177.0,5606.0,1673.0,1595.0,1362.0,1156.0
8010,2031,1944,0,7066.0,6177.0,1843.0,1673.0,1691.0,1362.0
8832,2279,1989,0,8010.0,7066.0,2031.0,1843.0,1944.0,1691.0
9398,2588,1964,0,8832.0,8010.0,2279.0,2031.0,1989.0,1944.0
9671,2840,1899,0,9398.0,8832.0,2588.0,2279.0,1964.0,1989.0
9649,3038,1803,0,9671.0,9398.0,2840.0,2588.0,1899.0,1964.0
9415,3272,1739,0,9649.0,9671.0,3038.0,2840.0,1803.0,1899.0
9066,3562,1664,0,9415.0,9649.0,3272.0,3038.0,1739.0,1803.0
8663,3928,1628,0,9066.0,9415.0,3562.0,3272.0,1664.0,1739.0
8282,4262,1657,0,8663.0,9066.0,3928.0,3562.0,1628.0,1664.0
7976,4438,1650,0,8282.0,8663.0,4262.0,3928.0,1657.0,1628.0
7706,4547,1616,0,7976.0,8282.0,4438.0,4262.0,1650.0,1657.0
7450,4601,1594,0,7706.0,7976.0,4547.0,4438.0,1616.0,1650.0
7226,4548,1577,0,7450.0,7706.0,4601.0,4547.0,1594.0,1616.0
7054,4315,1537,0,7226.0,7450.0,4548.0,4601.0,1577.0,1594.0
6951,4017,1480,0,7054.0,7226.0,4315.0,4548.0,1537.0,1577.0
6942,3722,1418,0,6951.0,7054.0,4017.0,4315.0,1480.0,1537.0
6933,3400,1312,0,6942.0,6951.0,3722.0,4017.0,1418.0,1480.0
6856,3067,1214,0,6933.0,6942.0,3400.0,3722.0,1312.0,1418.0
6763,2764,1127,0,6856.0,6933.0,3067.0,3400.0,1214.0,1312.0
6669,2475,1080,0,6763.0,6856.0,2764.0,3067.0,1127.0,1214.0
6557,2199,1042,0,6669.0,6763.0,2475.0,2764.0,1080.0,1127.0
6432,1970,1045,0,6557.0,6669.0,2199.0,2475.0,1042.0,1080.0
6268,1777,1058,0,6432.0,6557.0,1970.0,2199.0,1045.0,1042.0
6077,1614,1032,0,6268.0,6432.0,1777.0,1970.0,1058.0,1045.0
5851,1513,997,0,6077.0,6268.0,1614.0,1777.0,1032.0,1058.0
5582,1456,941,0,5851.0,6077.0,1513.0,1614.0,997.0,1032.0
5304,1417,904,0,5582.0,5851.0,1456.0,1513.0,941.0,997.0
5002,1405,891,0,5304.0,5582.0,1417.0,1456.0,904.0,941.0
4693,1409,878,0,5002.0,5304.0,1405.0,1417.0,891.0,904.0
4397,1394,878,0,4693.0,5002.0,1409.0,1405.0,878.0,891.0
4088,1395,907,0,4397.0,4693.0,1394.0,1409.0,878.0,878.0
3784,1395,939,0,4088.0,4397.0,1395.0,1394.0,907.0,878.0
3502,1365,969,0,3784.0,4088.0,1395.0,1395.0,939.0,907.0
3206,1308,965,0,3502.0,3784.0,1365.0,1395.0,969.0,939.0
2974,1241,933,0,3206.0,3502.0,1308.0,1365.0,965.0,969.0
2757,1172,880,0,2974.0,3206.0,1241.0,1308.0,933.0,965.0
2548,1112,830,0,2757.0,2974.0,1172.0,1241.0,880.0,933.0
2349,1065,806,0,2548.0,2757.0,1112.0,1172.0,830.0,880.0
2196,1018,875,0,2349.0,2548.0,1065.0,1112.0,806.0,830.0
2057,991,935,0,2196.0,2349.0,1018.0,1065.0,875.0,806.0
1913,978,926,0,2057.0,2196.0,991.0,1018.0,935.0,875.0
1713,1015,854,0,1913.0,2057.0,978.0,991.0,926.0,935.0
1525,1041,776,0,1713.0,1913.0,1015.0,978.0,854.0,926.0
1294,1057,661,0,1525.0,1713.0,1041.0,1015.0,776.0,854.0
1066,1024,518,0,1294.0,1525.0,1057.0,1041.0,661.0,776.0
838,984,363,0,1066.0,1294.0,1024.0,1057.0,518.0,661.0
635,959,248,0,838.0,1066.0,984.0,1024.0,363.0,518.0
448,949,161,0,635.0,838.0,959.0,984.0,248.0,363.0
291,950,86,0,448.0,635.0,949.0,959.0,161.0,248.0
162,920,41,0,291.0,448.0,950.0,949.0,86.0,161.0
94,862,112,0,162.0,291.0,920.0,950.0,41.0,86.0
43,794,193,0,94.0,162.0,862.0,920.0,112.0,41.0
-36,737,144,0,43.0,94.0,794.0,862.0,193.0,112.0
-150,756,-20,0,-36.0,43.0,737.0,794.0,144.0,193.0
-272,823,-210,0,-150.0,-36.0,756.0,737.0,-20.0,144.0
-369,882,-308,0,-272.0,-150.0,823.0,756.0,-210.0,-20.0
-452,915,-244,0,-369.0,-272.0,882.0,823.0,-308.0,-210.0
-508,895,-80,0,-452.0,-369.0,915.0,882.0,-244.0,-308.0
-535,815,83,0,-508.0,-452.0,895.0,915.0,-80.0,-244.0
-580,733,170,0,-535.0,-508.0,815.0,895.0,83.0,-80.0
-636,664,185,0,-580.0,-535.0,733.0,815.0,170.0,83.0
-692,617,195,0,-636.0,-580.0,664.0,733.0,185.0,170.0
-727,527,217,0,-692.0,-636.0,617.0,664.0,195.0,185.0
-758,404,226,0,-727.0,-692.0,527.0,617.0,217.0,195.0
-770,210,238,0,-758.0,-727.0,404.0,527.0,226.0,217.0
-775,-10,243,0,-770.0,-758.0,210.0,404.0,238.0,226.0
-788,-241,207,0,-775.0,-770.0,-10.0,210.0,243.0,238.0
-785,-473,139,0,-788.0,-775.0,-241.0,-10.0,207.0,243.0
-770,-678,60,0,-785.0,-788.0,-473.0,-241.0,139.0,207.0
-734,-855,-21,0,-770.0,-785.0,-678.0,-473.0,60.0,139.0
-685,-993,-63,0,-734.0,-770.0,-855.0,-678.0,-21.0,60.0
-634,-1077,-60,0,-685.0,-734.0,-993.0,-855.0,-63.0,-21.0
-581,-1123,-73,0,-634.0,-685.0,-1077.0,-993.0,-60.0,-63.0
-532,-1167,-93,0,-581.0,-634.0,-1123.0,-1077.0,-73.0,-60.0
-504,-1206,-100,0,-532.0,-581.0,-1167.0,-1123.0,-93.0,-73.0
-501,-1235,-110,0,-504.0,-532.0,-1206.0,-1167.0,-100.0,-93.0
-556,-1263,-305,0,-501.0,-504.0,-1235.0,-1206.0,-110.0,-100.0
-649,-1296,-738,0,-556.0,-501.0,-1263.0,-1235.0,-305.0,-110.0
-711,-1370,-1291,0,-649.0,-556.0,-1296.0,-1263.0,-738.0,-305.0
-692,-1465,-1809,0,-711.0,-649.0,-1370.0,-1296.0,-1291.0,-738.0
-539,-1526,-1955,0,-692.0,-711.0,-1465.0,-1370.0,-1809.0,-1291.0
-249,-1483,-1510,0,-539.0,-692.0,-1526.0,-1465.0,-1955.0,-1809.0
135,-1321,-623,0,-249.0,-539.0,-1483.0,-1526.0,-1510.0,-1955.0
529,-1197,211,0,135.0,-249.0,-1321.0,-1483.0,-623.0,-1510.0
919,-1200,573,0,529.0,135.0,-1197.0,-1321.0,211.0,-623.0
1366,-1258,607,0,919.0,529.0,-1200.0,-1197.0,573.0,211.0
1907,-1284,598,0,1366.0,919.0,-1258.0,-1200.0,607.0,573.0
2592,-1250,651,0,1907.0,1366.0,-1284.0,-1258.0,598.0,607.0
3511,-1081,760,0,2592.0,1907.0,-1250.0,-1284.0,651.0,598.0
4921,-800,953,0,3511.0,2592.0,-1081.0,-1250.0,760.0,651.0
7250,-669,1247,0,4921.0,3511.0,-800.0,-1081.0,953.0,760.0
10807,-1033,1510,0,7250.0,4921.0,-669.0,-800.0,1247.0,953.0
15009,-1683,1459,0,10807.0,7250.0,-1033.0,-669.0,1510.0,1247.0
18712,-1897,1648,0,15009.0,10807.0,-1683.0,-1033.0,1459.0,1510.0
21063,-1896,1822,0,18712.0,15009.0,-1897.0,-1683.0,1648.0,1459.0
21101,-2396,1294,0,21063.0,18712.0,-1896.0,-1897.0,1822.0,1648.0
19006,-2715,1256,0,21101.0,21063.0,-2396.0,-1896.0,1294.0,1822.0
15151,-2509,1851,0,19006.0,21101.0,-2715.0,-2396.0,1256.0,1294.0
10619,-2008,2587,0,15151.0,19006.0,-2509.0,-2715.0,1851.0,1256.0
6822,-1921,2540,0,10619.0,15151.0,-2008.0,-2509.0,2587.0,1851.0
4572,-2033,1930,0,6822.0,10619.0,-1921.0,-2008.0,2540.0,2587.0
3881,-1850,1353,0,4572.0,6822.0,-2033.0,-1921.0,1930.0,2540.0
4447,-1327,1059,0,3881.0,4572.0,-1850.0,-2033.0,1353.0,1930.0
5831,-512,1186,0,4447.0,3881.0,-1327.0,-1850.0,1059.0,1353.0
7450,330,1448,0,5831.0,4447.0,-512.0,-1327.0,1186.0,1059.0
8971,1115,1730,0,7450.0,5831.0,330.0,-512.0,1448.0,1186.0
10235,1797,1998,0,8971.0,7450.0,1115.0,330.0,1730.0,1448.0
11032,2340,2102,0,10235.0,8971.0,1797.0,1115.0,1998.0,1730.0
11339,2786,2119,0,11032.0,10235.0,2340.0,1797.0,2102.0,1998.0
11256,3184,2095,0,11339.0,11032.0,2786.0,2340.0,2119.0,2102.0
10895,3544,2074,0,11256.0,11339.0,3184.0,2786.0,2095.0,2119.0
10376,3872,2076,0,10895.0,11256.0,3544.0,3184.0,2074.0,2095.0
9798,4152,2086,0,10376.0,10895.0,3872.0,3544.0,2076.0,2074.0
9256,4347,2082,0,9798.0,10376.0,4152.0,3872.0,2086.0,2076.0
8808,4412,2056,0,9256.0,9798.0,4347.0,4152.0,2082.0,2086.0
8474,4321,2015,0,8808.0,9256.0,4412.0,4347.0,2056.0,2082.0
8253,4112,2000,0,8474.0,8808.0,4321.0,4412.0,2015.0,2056.0
8111,3866,2026,0,8253.0,8474.0,4112.0,4321.0,2000.0,2015.0
7988,3626,2086,0,8111.0,8253.0,3866.0,4112.0,2026.0,2000.0
7846,3387,2153,0,7988.0,8111.0,3626.0,3866.0,2086.0,2026.0
7681,3131,2236,0,7846.0,7988.0,3387.0,3626.0,2153.0,2086.0
7493,2849,2291,0,7681.0,7846.0,3131.0,3387.0,2236.0,2153.0
7294,2542,2286,0,7493.0,7681.0,2849.0,3131.0,2291.0,2236.0
7077,2247,2254,0,7294.0,7493.0,2542.0,2849.0,2286.0,2291.0
6799,1999,2205,0,7077.0,7294.0,2247.0,2542.0,2254.0,2286.0
6453,1782,2138,0,6799.0,7077.0,1999.0,2247.0,2205.0,2254.0
6046,1584,2054,0,6453.0,6799.0,1782.0,1999.0,2138.0,2205.0
5610,1387,1954,0,6046.0,6453.0,1584.0,1782.0,2054.0,2138.0
5163,1203,1853,0,5610.0,6046.0,1387.0,1584.0,1954.0,2054.0
4729,1030,1740,0,5163.0,5610.0,1203.0,1387.0,1853.0,1954.0
4341,847,1620,0,4729.0,5163.0,1030.0,1203.0,1740.0,1853.0
3978,642,1476,0,4341.0,4729.0,847.0,1030.0,1620.0,1740.0
3659,425,1306,0,3978.0,4341.0,642.0,847.0,1476.0,1620.0
3370,225,1098,0,3659.0,3978.0,425.0,642.0,1306.0,1476.0
3098,66,887,0,3370.0,3659.0,225.0,425.0,1098.0,1306.0
2836,-60,703,0,3098.0,3370.0,66.0,225.0,887.0,1098.0
2593,-170,537,0,2836.0,3098.0,-60.0,66.0,703.0,887.0
2360,-248,394,0,2593.0,2836.0,-170.0,-60.0,537.0,703.0
2136,-296,298,0,2360.0,2593.0,-248.0,-170.0,394.0,537.0
1934,-318,244,0,2136.0,2360.0,-296.0,-248.0,298.0,394.0
1725,-321,248,0,1934.0,2136.0,-318.0,-296.0,244.0,298.0
1507,-318,268,0,1725.0,1934.0,-321.0,-318.0,248.0,244.0
1264,-298,274,0,1507.0,1725.0,-318.0,-321.0,268.0,248.0
1005,-252,258,0,1264.0,1507.0,-298.0,-318.0,274.0,268.0
733,-178,209,0,1005.0,1264.0,-252.0,-298.0,258.0,274.0
466,-110,113,0,733.0,1005.0,-178.0,-252.0,209.0,258.0
212,-77,5,0,466.0,733.0,-110.0,-178.0,113.0,209.0
-41,-69,-96,0,212.0,466.0,-77.0,-110.0,5.0,113.0
-301,-56,-151,0,-41.0,212.0,-69.0,-77.0,-96.0,5.0
-557,-45,-197,0,-301.0,-41.0,-56.0,-69.0,-151.0,-96.0
-811,-28,-242,0,-557.0,-301.0,-45.0,-56.0,-197.0,-151.0
-1056,-25,-284,0,-811.0,-557.0,-28.0,-45.0,-242.0,-197.0
-1287,-53,-317,0,-1056.0,-811.0,-25.0,-28.0,-284.0,-242.0
-1519,-91,-336,0,-1287.0,-1056.0,-53.0,-25.0,-317.0,-284.0
-1741,-122,-338,0,-1519.0,-1287.0,-91.0,-53.0,-336.0,-317.0
-1954,-147,-353,0,-1741.0,-1519.0,-122.0,-91.0,-338.0,-336.0
-2156,-186,-365,0,-1954.0,-1741.0,-147.0,-122.0,-353.0,-338.0
-2326,-228,-365,0,-2156.0,-1954.0,-186.0,-147.0,-365.0,-353.0
-2465,-255,-355,0,-2326.0,-2156.0,-228.0,-186.0,-365.0,-365.0
-2556,-304,-334,0,-2465.0,-2326.0,-255.0,-228.0,-355.0,-365.0
-2601,-368,-330,0,-2556.0,-2465.0,-304.0,-255.0,-334.0,-355.0
-2613,-440,-352,0,-2601.0,-2556.0,-368.0,-304.0,-330.0,-334.0
-2549,-556,-372,0,-2613.0,-2601.0,-440.0,-368.0,-352.0,-330.0
-2410,-694,-388,0,-2549.0,-2613.0,-556.0,-440.0,-372.0,-352.0
-2209,-840,-397,0,-2410.0,-2549.0,-694.0,-556.0,-388.0,-372.0
-1940,-968,-377,0,-2209.0,-2410.0,-840.0,-694.0,-397.0,-388.0
-1638,-1061,-342,0,-1940.0,-2209.0,-968.0,-840.0,-377.0,-397.0
-1270,-1109,-277,0,-1638.0,-1940.0,-1061.0,-968.0,-342.0,-377.0
-911,-1095,-246,0,-1270.0,-1638.0,-1109.0,-1061.0,-277.0,-342.0
-558,-1045,-248,0,-911.0,-1270.0,-1095.0,-1109.0,-246.0,-277.0
-241,-964,-274,0,-558.0,-911.0,-1045.0,-1095.0,-248.0,-246.0
49,-855,-327,0,-241.0,-558.0,-964.0,-1045.0,-274.0,-248.0
327,-720,-357,0,49.0,-241.0,-855.0,-964.0,-327.0,-274.0
558,-547,-368,0,327.0,49.0,-720.0,-855.0,-357.0,-327.0
743,-328,-361,0,558.0,327.0,-547.0,-720.0,-368.0,-357.0
887,-75,-363,0,743.0,558.0,-328.0,-547.0,-361.0,-368.0
989,225,-366,0,887.0,743.0,-75.0,-328.0,-363.0,-361.0
1054,547,-346,0,989.0,887.0,225.0,-75.0,-366.0,-363.0
1084,864,-280,0,1054.0,989.0,547.0,225.0,-346.0,-366.0
1066,1181,-151,0,1084.0,1054.0,864.0,547.0,-280.0,-346.0
998,1458,37,0,1066.0,1084.0,1181.0,864.0,-151.0,-280.0
884,1640,345,0,998.0,1066.0,1458.0,1181.0,37.0,-151.0
751,1642,931,0,884.0,998.0,1640.0,1458.0,345.0,37.0
659,1343,1756,0,751.0,884.0,1642.0,1640.0,931.0,345.0
668,638,2277,0,659.0,751.0,1343.0,1642.0,1756.0,931.0
739,-220,1952,0,668.0,659.0,638.0,1343.0,2277.0,1756.0
922,-700,1329,0,739.0,668.0,-220.0,638.0,1952.0,2277.0
1226,-645,1013,0,922.0,739.0,-700.0,-220.0,1329.0,1952.0
1683,-336,1031,0,1226.0,922.0,-645.0,-700.0,1013.0,1329.0
2327,-41,1177,0,1683.0,1226.0,-336.0,-645.0,1031.0,1013.0
3171,112,1280,0,2327.0,1683.0,-41.0,-336.0,1177.0,1031.0
4344,-12,1195,0,3171.0,2327.0,112.0,-41.0,1280.0,1177.0
6033,-338,996,0,4344.0,3171.0,-12.0,112.0,1195.0,1280.0
8316,-397,906,0,6033.0,4344.0,-338.0,-12.0,996.0,1195.0
10786,178,999,0,8316.0,6033.0,-397.0,-338.0,906.0,996.0
13253,929,1171,0,10786.0,8316.0,178.0,-397.0,999.0,906.0
15513,1353,1443,0,13253.0,10786.0,929.0,178.0,1171.0,999.0
17035,1319,1546,0,15513.0,13253.0,1353.0,929.0,1443.0,1171.0
17158,960,1466,0,17035.0,15513.0,1319.0,1353.0,1546.0,1443.0
15527,591,1728,0,17158.0,17035.0,960.0,1319.0,1466.0,1546.0
12441,430,2216,0,15527.0,17158.0,591.0,960.0,1728.0,1466.0
8870,568,2304,0,12441.0,15527.0,430.0,591.0,2216.0,1728.0
5939,716,1526,0,8870.0,12441.0,568.0,430.0,2304.0,2216.0
4213,760,610,0,5939.0,8870.0,716.0,568.0,1526.0,2304.0
3758,532,220,0,4213.0,5939.0,760.0,716.0,610.0,1526.0
4323,176,346,0,3758.0,4213.0,532.0,760.0,220.0,610.0
5466,78,690,0,4323.0,3758.0,176.0,532.0,346.0,220.0
6818,307,1093,0,5466.0,4323.0,78.0,176.0,690.0,346.0
7884,704,1382,0,6818.0,5466.0,307.0,78.0,1093.0,690.0
8553,1064,1526,0,7884.0,6818.0,704.0,307.0,1382.0,1093.0
8903,1270,1552,0,8553.0,7884.0,1064.0,704.0,1526.0,1382.0
9058,1461,1544,0,8903.0,8553.0,1270.0,1064.0,1552.0,1526.0
9072,1750,1467,0,9058.0,8903.0,1461.0,1270.0,1544.0,1552.0
9033,2098,1357,0,9072.0,9058.0,1750.0,1461.0,1467.0,1544.0
9024,2447,1272,0,9033.0,9072.0,2098.0,1750.0,1357.0,1467.0
9092,2818,1261,0,9024.0,9033.0,2447.0,2098.0,1272.0,1357.0
9125,3208,1259,0,9092.0,9024.0,2818.0,2447.0,1261.0,1272.0
9015,3577,1234,0,9125.0,9092.0,3208.0,2818.0,1259.0,1261.0
8749,3866,1221,0,9015.0,9125.0,3577.0,3208.0,1234.0,1259.0
8428,4011,1183,0,8749.0,9015.0,3866.0,3577.0,1221.0,1234.0
8074,4016,1123,0,8428.0,8749.0,4011.0,3866.0,1183.0,1221.0
7733,3931,1074,0,8074.0,8428.0,4016.0,4011.0,1123.0,1183.0
7441,3760,1012,0,7733.0,8074.0,3931.0,4016.0,1074.0,1123.0
7202,3518,944,0,7441.0,7733.0,3760.0,3931.0,1012.0,1074.0
6994,3248,878,0,7202.0,7441.0,3518.0,3760.0,944.0,1012.0
6797,2983,797,0,6994.0,7202.0,3248.0,3518.0,878.0,944.0
6592,2740,717,0,6797.0,6994.0,2983.0,3248.0,797.0,878.0
6368,2510,654,0,6592.0,6797.0,2740.0,2983.0,717.0,797.0
6138,2304,595,0,6368.0,6592.0,2510.0,2740.0,654.0,717.0
5882,2131,519,0,6138.0,6368.0,2304.0,2510.0,595.0,654.0
5617,1988,471,0,5882.0,6138.0,2131.0,2304.0,519.0,595.0
5351,1908,464,0,5617.0,5882.0,1988.0,2131.0,471.0,519.0
5090,1845,487,0,5351.0,5617.0,1908.0,1988.0,464.0,471.0
4818,1800,510,0,5090.0,5351.0,1845.0,1908.0,487.0,464.0
4558,1756,541,0,4818.0,5090.0,1800.0,1845.0,510.0,487.0
4313,1702,558,0,4558.0,4818.0,1756.0,1800.0,541.0,510.0
4061,1624,569,0,4313.0,4558.0,1702.0,1756.0,558.0,541.0
3810,1543,589,0,4061.0,4313.0,1624.0,1702.0,569.0,558.0
3566,1447,613,0,3810.0,4061.0,1543.0,1624.0,589.0,569.0
3340,1353,656,0,3566.0,3810.0,1447.0,1543.0,613.0,589.0
3112,1263,732,0,3340.0,3566.0,1353.0,1447.0,656.0,613.0
2891,1145,851,0,3112.0,3340.0,1263.0,1353.0,732.0,656.0
2699,1093,982,0,2891.0,3112.0,1145.0,1263.0,851.0,732.0
2529,1030,1054,0,2699.0,2891.0,1093.0,1145.0,982.0,851.0
2327,952,1102,0,2529.0,2699.0,1030.0,1093.0,1054.0,982.0
2088,910,1143,0,2327.0,2529.0,952.0,1030.0,1102.0,1054.0
1873,890,1181,0,2088.0,2327.0,910.0,952.0,1143.0,1102.0
1671,911,1142,0,1873.0,2088.0,890.0,910.0,1181.0,1143.0
1484,940,1028,0,1671.0,1873.0,911.0,890.0,1142.0,1181.0
1319,981,928,0,1484.0,1671.0,940.0,911.0,1028.0,1142.0
1184,1041,858,0,1319.0,1484.0,981.0,940.0,928.0,1028.0
1031,1093,747,0,1184.0,1319.0,1041.0,981.0,858.0,928.0
859,1119,601,0,1031.0,1184.0,1093.0,1041.0,747.0,858.0
700,1128,507,0,859.0,1031.0,1119.0,1093.0,601.0,747.0
571,1112,498,0,700.0,859.0,1128.0,1119.0,507.0,601.0
431,1075,468,0,571.0,700.0,1112.0,1128.0,498.0,507.0
278,1005,377,0,431.0,571.0,1075.0,1112.0,468.0,498.0
125,922,258,0,278.0,431.0,1005.0,1075.0,377.0,468.0
-62,871,155,0,125.0,278.0,922.0,1005.0,258.0,377.0
-224,831,115,0,-62.0,125.0,871.0,922.0,155.0,258.0
-366,781,110,0,-224.0,-62.0,831.0,871.0,115.0,155.0
-514,709,89,0,-366.0,-224.0,781.0,831.0,110.0,115.0
-635,635,53,0,-514.0,-366.0,709.0,781.0,89.0,110.0
-742,571,-19,0,-635.0,-514.0,635.0,709.0,53.0,89.0
-826,526,-47,0,-742.0,-635.0,571.0,635.0,-19.0,53.0
-868,481,-8,0,-826.0,-742.0,526.0,571.0,-47.0,-19.0
-879,383,17,0,-868.0,-826.0,481.0,526.0,-8.0,-47.0
-873,242,42,0,-879.0,-868.0,383.0,481.0,17.0,-8.0
-857,71,92,0,-873.0,-879.0,242.0,383.0,42.0,17.0
-817,-140,156,0,-857.0,-873.0,71.0,242.0,92.0,42.0
-745,-398,174,0,-817.0,-857.0,-140.0,71.0,156.0,92.0
-684,-675,152,0,-745.0,-817.0,-398.0,-140.0,174.0,156.0
-631,-953,111,0,-684.0,-745.0,-675.0,-398.0,152.0,174.0
-583,-1218,19,0,-631.0,-684.0,-953.0,-675.0,111.0,152.0
-515,-1458,-113,0,-583.0,-631.0,-1218.0,-953.0,19.0,111.0
-431,-1638,-221,0,-515.0,-583.0,-1458.0,-1218.0,-113.0,19.0
-333,-1726,-260,0,-431.0,-515.0,-1638.0,-1458.0,-221.0,-113.0
-241,-1736,-262,0,-333.0,-431.0,-1726.0,-1638.0,-260.0,-221.0
-157,-1701,-226,0,-241.0,-333.0,-1736.0,-1726.0,-262.0,-260.0
-101,-1624,-178,0,-157.0,-241.0,-1701.0,-1736.0,-226.0,-262.0
-80,-1525,-188,0,-101.0,-157.0,-1624.0,-1701.0,-178.0,-226.0
-90,-1451,-231,0,-80.0,-101.0,-1525.0,-1624.0,-188.0,-178.0
-116,-1424,-308,0,-90.0,-80.0,-1451.0,-1525.0,-231.0,-188.0
-161,-1427,-464,0,-116.0,-90.0,-1424.0,-1451.0,-308.0,-231.0
-195,-1413,-537,0,-161.0,-116.0,-1427.0,-1424.0,-464.0,-308.0
-166,-1388,-277,0,-195.0,-161.0,-1413.0,-1427.0,-537.0,-464.0
-73,-1364,262,0,-166.0,-195.0,-1388.0,-1413.0,-277.0,-537.0
52,-1347,783,0,-73.0,-166.0,-1364.0,-1388.0,262.0,-277.0
214,-1335,1040,0,52.0,-73.0,-1347.0,-1364.0,783.0,262.0
417,-1281,936,0,214.0,52.0,-1335.0,-1347.0,1040.0,783.0
665,-1203,539,0,417.0,214.0,-1281.0,-1335.0,936.0,1040.0
987,-1135,-20,0,665.0,417.0,-1203.0,-1281.0,539.0,936.0
1412,-1088,-495,0,987.0,665.0,-1135.0,-1203.0,-20.0,539.0
1928,-1057,-678,0,1412.0,987.0,-1088.0,-1135.0,-495.0,-20.0
2558,-992,-401,0,1928.0,1412.0,-1057.0,-1088.0,-678.0,-495.0
3328,-892,242,0,2558.0,1928.0,-992.0,-1057.0,-401.0,-678.0
4406,-764,898,0,3328.0,2558.0,-892.0,-992.0,242.0,-401.0
6012,-591,1391,0,4406.0,3328.0,-764.0,-892.0,898.0,242.0
8246,-435,1785,0,6012.0,4406.0,-591.0,-764.0,1391.0,898.0
10985,-414,1971,0,8246.0,6012.0,-435.0,-591.0,1785.0,1391.0
13797,-462,1861,0,10985.0,8246.0,-414.0,-435.0,1971.0,1785.0
16027,-177,1868,0,13797.0,10985.0,-462.0,-414.0,1861.0,1971.0
17060,236,1853,0,16027.0,13797.0,-177.0,-462.0,1868.0,1861.0
16225,321,1644,0,17060.0,16027.0,236.0,-177.0,1853.0,1868.0
14065,492,1915,0,16225.0,17060.0,321.0,236.0,1644.0,1853.0
11280,827,2255,0,14065.0,16225.0,492.0,321.0,1915.0,1644.0
8598,1145,2388,0,11280.0,14065.0,827.0,492.0,2255.0,1915.0
6740,1401,2414,0,8598.0,11280.0,1145.0,827.0,2388.0,2255.0
6021,1658,2393,0,6740.0,8598.0,1401.0,1145.0,2414.0,2388.0
6210,1848,2349,0,6021.0,6740.0,1658.0,1401.0,2393.0,2414.0
6943,1950,2362,0,6210.0,6021.0,1848.0,1658.0,2349.0,2393.0
7836,1973,2419,0,6943.0,6210.0,1950.0,1848.0,2362.0,2349.0
8621,1914,2486,0,7836.0,6943.0,1973.0,1950.0,2419.0,2362.0
9154,1861,2571,0,8621.0,7836.0,1914.0,1973.0,2486.0,2419.0
9404,1906,2705,0,9154.0,8621.0,1861.0,1914.0,2571.0,2486.0
9471,2010,2872,0,9404.0,9154.0,1906.0,1861.0,2705.0,2571.0
9503,2093,3012,0,9471.0,9404.0,2010.0,1906.0,2872.0,2705.0
9551,2133,3063,0,9503.0,9471.0,2093.0,2010.0,3012.0,2872.0
9595,2175,3056,0,9551.0,9503.0,2133.0,2093.0,3063.0,3012.0
9590,2276,2972,0,9595.0,9551.0,2175.0,2133.0,3056.0,3063.0
9544,2418,2800,0,9590.0,9595.0,2276.0,2175.0,2972.0,3056.0
9461,2541,2619,0,9544.0,9590.0,2418.0,2276.0,2800.0,2972.0
9322,2605,2462,0,9461.0,9544.0,2541.0,2418.0,2619.0,2800.0
9115,2602,2273,0,9322.0,9461.0,2605.0,2541.0,2462.0,2619.0
8851,2522,2088,0,9115.0,9322.0,2602.0,2605.0,2273.0,2462.0
8540,2354,1912,0,8851.0,9115.0,2522.0,2602.0,2088.0,2273.0
8196,2138,1806,0,8540.0,8851.0,2354.0,2522.0,1912.0,2088.0
7818,1901,1780,0,8196.0,8540.0,2138.0,2354.0,1806.0,1912.0
7448,1632,1754,0,7818.0,8196.0,1901.0,2138.0,1780.0,1806.0
7173,1331,1686,0,7448.0,7818.0,1632.0,1901.0,1754.0,1780.0
6966,1026,1545,0,7173.0,7448.0,1331.0,1632.0,1686.0,1754.0
6794,750,1353,0,6966.0,7173.0,1026.0,1331.0,1545.0,1686.0
6597,568,1149,0,6794.0,6966.0,750.0,1026.0,1353.0,1545.0
6350,464,958,0,6597.0,6794.0,568.0,750.0,1149.0,1353.0
6054,387,809,0,6350.0,6597.0,464.0,568.0,958.0,1149.0
5733,313,708,0,6054.0,6350.0,387.0,464.0,809.0,958.0
5416,241,655,0,5733.0,6054.0,313.0,387.0,708.0,809.0
5116,174,665,0,5416.0,5733.0,241.0,313.0,655.0,708.0
4827,114,671,0,5116.0,5416.0,174.0,241.0,665.0,655.0
4544,57,646,0,4827.0,5116.0,114.0,174.0,671.0,665.0
4287,-33,579,0,4544.0,4827.0,57.0,114.0,646.0,671.0
4017,-106,489,0,4287.0,4544.0,-33.0,57.0,579.0,646.0
3745,-146,403,0,4017.0,4287.0,-106.0,-33.0,489.0,579.0
3470,-199,289,0,3745.0,4017.0,-146.0,-106.0,403.0,489.0
3201,-282,138,0,3470.0,3745.0,-199.0,-146.0,289.0,403.0
2933,-379,-14,0,3201.0,3470.0,-282.0,-199.0,138.0,289.0
2626,-416,-118,0,2933.0,3201.0,-379.0,-282.0,-14.0,138.0
2291,-406,-193,0,2626.0,2933.0,-416.0,-379.0,-118.0,-14.0
1959,-395,-284,0,2291.0,2626.0,-406.0,-416.0,-193.0,-118.0
1645,-410,-388,0,1959.0,2291.0,-395.0,-406.0,-284.0,-193.0
1337,-452,-518,0,1645.0,1959.0,-410.0,-395.0,-388.0,-284.0
1025,-478,-649,0,1337.0,1645.0,-452.0,-410.0,-518.0,-388.0
691,-428,-710,0,1025.0,1337.0,-478.0,-452.0,-649.0,-518.0
333,-298,-719,0,691.0,1025.0,-428.0,-478.0,-710.0,-649.0
-10,-204,-729,0,333.0,691.0,-298.0,-428.0,-719.0,-710.0
-300,-222,-747,0,-10.0,333.0,-204.0,-298.0,-729.0,-719.0
-548,-282,-753,0,-300.0,-10.0,-222.0,-204.0,-747.0,-729.0
-775,-340,-724,0,-548.0,-300.0,-282.0,-222.0,-753.0,-747.0
-1006,-363,-679,0,-775.0,-548.0,-340.0,-282.0,-724.0,-753.0
-1250,-342,-623,0,-1006.0,-775.0,-363.0,-340.0,-679.0,-724.0
-1506,-297,-592,0,-1250.0,-1006.0,-342.0,-363.0,-623.0,-679.0
-1765,-260,-601,0,-1506.0,-1250.0,-297.0,-342.0,-592.0,-623.0
-2007,-254,-655,0,-1765.0,-1506.0,-260.0,-297.0,-601.0,-592.0
-2235,-268,-741,0,-2007.0,-1765.0,-254.0,-260.0,-655.0,-601.0
-2424,-290,-852,0,-2235.0,-2007.0,-268.0,-254.0,-741.0,-655.0
-2583,-332,-1021,0,-2424.0,-2235.0,-290.0,-268.0,-852.0,-741.0
-2684,-354,-1181,0,-2583.0,-2424.0,-332.0,-290.0,-1021.0,-852.0
-2742,-337,-1289,0,-2684.0,-2583.0,-354.0,-332.0,-1181.0,-1021.0
-2759,-269,-1341,0,-2742.0,-2684.0,-337.0,-354.0,-1289.0,-1181.0
-2743,-174,-1343,0,-2759.0,-2742.0,-269.0,-337.0,-1341.0,-1289.0
-2671,-33,-1249,0,-2743.0,-2759.0,-174.0,-269.0,-1343.0,-1341.0
-2539,180,-1103,0,-2671.0,-2743.0,-33.0,-174.0,-1249.0,-1343.0
-2404,393,-1011,0,-2539.0,-2671.0,180.0,-33.0,-1103.0,-1249.0
-2176,496,-909,0,-2404.0,-2539.0,393.0,180.0,-1011.0,-1103.0
-1837,447,-783,0,-2176.0,-2404.0,496.0,393.0,-909.0,-1011.0
-1450,399,-626,0,-1837.0,-2176.0,447.0,496.0,-783.0,-909.0
-1076,433,-460,0,-1450.0,-1837.0,399.0,447.0,-626.0,-783.0
-733,552,-330,0,-1076.0,-1450.0,433.0,399.0,-460.0,-626.0
-438,689,-288,0,-733.0,-1076.0,552.0,433.0,-330.0,-460.0
-177,789,-339,0,-438.0,-733.0,689.0,552.0,-288.0,-330.0
41,865,-426,0,-177.0,-438.0,789.0,689.0,-339.0,-288.0
250,942,-509,0,41.0,-177.0,865.0,789.0,-426.0,-339.0
426,1036,-540,0,250.0,41.0,942.0,865.0,-509.0,-426.0
597,1153,-454,0,426.0,250.0,1036.0,942.0,-540.0,-509.0
742,1291,-281,0,597.0,426.0,1153.0,1036.0,-454.0,-540.0
840,1421,-67,0,742.0,597.0,1291.0,1153.0,-281.0,-454.0
871,1504,117,0,840.0,742.0,1421.0,1291.0,-67.0,-281.0
849,1539,252,0,871.0,840.0,1504.0,1421.0,117.0,-67.0
811,1495,363,0,849.0,871.0,1539.0,1504.0,252.0,117.0
799,1333,445,0,811.0,849.0,1495.0,1539.0,363.0,252.0
883,1045,455,0,799.0,811.0,1333.0,1495.0,445.0,363.0
1053,699,259,0,883.0,799.0,1045.0,1333.0,455.0,445.0
1258,461,-85,0,1053.0,883.0,699.0,1045.0,259.0,455.0
1584,362,-402,0,1258.0,1053.0,461.0,699.0,-85.0,259.0
2092,276,-617,0,1584.0,1258.0,362.0,461.0,-402.0,-85.0
2807,130,-793,0,2092.0,1584.0,276.0,362.0,-617.0,-402.0
3684,-9,-775,0,2807.0,2092.0,130.0,276.0,-793.0,-617.0
4765,-87,-443,0,3684.0,2807.0,-9.0,130.0,-775.0,-793.0
6022,-52,178,0,4765.0,3684.0,-87.0,-9.0,-443.0,-775.0
7657,97,1078,0,6022.0,4765.0,-52.0,-87.0,178.0,-443.0
9963,440,2027,0,7657.0,6022.0,97.0,-52.0,1078.0,178.0
12332,1072,2418,0,9963.0,7657.0,440.0,97.0,2027.0,1078.0
14246,1664,2030,0,12332.0,9963.0,1072.0,440.0,2418.0,2027.0
15670,1806,1288,0,14246.0,12332.0,1664.0,1072.0,2030.0,2418.0
16492,1519,590,0,15670.0,14246.0,1806.0,1664.0,1288.0,2030.0
16471,1072,233,0,16492.0,15670.0,1519.0,1806.0,590.0,1288.0
15419,609,384,0,16471.0,16492.0,1072.0,1519.0,233.0,590.0
13116,179,853,0,15419.0,16471.0,609.0,1072.0,384.0,233.0
10006,-235,1337,0,13116.0,15419.0,179.0,609.0,853.0,384.0
6859,-645,1418,0,10006.0,13116.0,-235.0,179.0,1337.0,853.0
4389,-843,998,0,6859.0,10006.0,-645.0,-235.0,1418.0,1337.0
3041,-873,191,0,4389.0,6859.0,-843.0,-645.0,998.0,1418.0
2791,-619,-360,0,3041.0,4389.0,-873.0,-843.0,191.0,998.0
3489,-141,-310,0,2791.0,3041.0,-619.0,-873.0,-360.0,191.0
4719,361,74,0,3489.0,2791.0,-141.0,-619.0,-310.0,-360.0
6113,770,455,0,4719.0,3489.0,361.0,-141.0,74.0,-310.0
7445,1139,665,0,6113.0,4719.0,770.0,361.0,455.0,74.0
8647,1537,675,0,7445.0,6113.0,1139.0,770.0,665.0,455.0
9674,1916,565,0,8647.0,7445.0,1537.0,1139.0,675.0,665.0
10506,2290,461,0,9674.0,8647.0,1916.0,1537.0,565.0,675.0
11091,2666,413,0,10506.0,9674.0,2290.0,1916.0,461.0,565.0
11346,3027,389,0,11091.0,10506.0,2666.0,2290.0,413.0,461.0
11249,3329,348,0,11346.0,11091.0,3027.0,2666.0,389.0,413.0
10832,3541,326,0,11249.0,11346.0,3329.0,3027.0,348.0,389.0
10248,3618,369,0,10832.0,11249.0,3541.0,3329.0,326.0,348.0
9624,3572,469,0,10248.0,10832.0,3618.0,3541.0,369.0,326.0
9070,3406,572,0,9624.0,10248.0,3572.0,3618.0,469.0,369.0
8606,3182,642,0,9070.0,9624.0,3406.0,3572.0,572.0,469.0
8204,2947,665,0,8606.0,9070.0,3182.0,3406.0,642.0,572.0
7892,2702,667,0,8204.0,8606.0,2947.0,3182.0,665.0,642.0
7672,2453,654,0,7892.0,8204.0,2702.0,2947.0,667.0,665.0
7494,2199,618,0,7672.0,7892.0,2453.0,2702.0,654.0,667.0
7303,1943,555,0,7494.0,7672.0,2199.0,2453.0,618.0,654.0
7071,1689,480,0,7303.0,7494.0,1943.0,2199.0,555.0,618.0
6788,1428,414,0,7071.0,7303.0,1689.0,1943.0,480.0,555.0
6476,1179,355,0,6788.0,7071.0,1428.0,1689.0,414.0,480.0
6165,967,288,0,6476.0,6788.0,1179.0,1428.0,355.0,414.0
5853,793,203,0,6165.0,6476.0,967.0,1179.0,288.0,355.0
5585,678,114,0,5853.0,6165.0,793.0,967.0,203.0,288.0
5382,612,54,0,5585.0,5853.0,678.0,793.0,114.0,203.0
5221,568,27,0,5382.0,5585.0,612.0,678.0,54.0,114.0
5083,541,22,0,5221.0,5382.0,568.0,612.0,27.0,54.0
4965,521,36,0,5083.0,5221.0,541.0,568.0,22.0,27.0
4819,517,10,0,4965.0,5083.0,521.0,541.0,36.0,22.0
4641,537,-52,0,4819.0,4965.0,517.0,521.0,10.0,36.0
4447,555,-139,0,4641.0,4819.0,537.0,517.0,-52.0,10.0
4239,574,-244,0,4447.0,4641.0,555.0,537.0,-139.0,-52.0
4038,635,-311,0,4239.0,4447.0,574.0,555.0,-244.0,-139.0
3830,815,-352,0,4038.0,4239.0,635.0,574.0,-311.0,-244.0
3582,1038,-405,0,3830.0,4038.0,815.0,635.0,-352.0,-311.0
3323,1266,-394,0,3582.0,3830.0,1038.0,815.0,-405.0,-352.0
3083,1502,-330,0,3323.0,3582.0,1266.0,1038.0,-394.0,-405.0
2892,1707,-189,0,3083.0,3323.0,1502.0,1266.0,-330.0,-394.0
2702,1866,1,0,2892.0,3083.0,1707.0,1502.0,-189.0,-330.0
2535,1962,139,0,2702.0,2892.0,1866.0,1707.0,1.0,-189.0
2322,2066,158,0,2535.0,2702.0,1962.0,1866.0,139.0,1.0
2113,2143,157,0,2322.0,2535.0,2066.0,1962.0,158.0,139.0
1907,2157,189,0,2113.0,2322.0,2143.0,2066.0,157.0,158.0
1747,2143,292,0,1907.0,2113.0,2157.0,2143.0,189.0,157.0
1552,2095,332,0,1747.0,1907.0,2143.0,2157.0,292.0,189.0
1329,1994,320,0,1552.0,1747.0,2095.0,2143.0,332.0,292.0
1103,1851,312,0,1329.0,1552.0,1994.0,2095.0,320.0,332.0
912,1699,299,0,1103.0,1329.0,1851.0,1994.0,312.0,320.0
721,1567,229,0,912.0,1103.0,1699.0,1851.0,299.0,312.0
512,1460,137,0,721.0,912.0,1567.0,1699.0,229.0,299.0
339,1366,93,0,512.0,721.0,1460.0,1567.0,137.0,229.0
184,1303,59,0,339.0,512.0,1366.0,1460.0,93.0,137.0
35,1254,33,0,184.0,339.0,1303.0,1366.0,59.0,93.0
-118,1221,31,0,35.0,184.0,1254.0,1303.0,33.0,59.0
-229,1187,22,0,-118.0,35.0,1221.0,1254.0,31.0,33.0
-322,1155,34,0,-229.0,-118.0,1187.0,1221.0,22.0,31.0
-384,1136,43,0,-322.0,-229.0,1155.0,1187.0,34.0,22.0
-458,1150,31,0,-384.0,-322.0,1136.0,1155.0,43.0,34.0
-537,1186,16,0,-458.0,-384.0,1150.0,1136.0,31.0,43.0
-581,1211,32,0,-537.0,-458.0,1186.0,1150.0,16.0,31.0
-611,1212,97,0,-581.0,-537.0,1211.0,1186.0,32.0,16.0
-633,1156,140,0,-611.0,-581.0,1212.0,1211.0,97.0,32.0
-637,1026,148,0,-633.0,-611.0,1156.0,1212.0,140.0,97.0
-625,861,153,0,-637.0,-633.0,1026.0,1156.0,148.0,140.0
-611,701,165,0,-625.0,-637.0,861.0,1026.0,153.0,148.0
-579,541,199,0,-611.0,-625.0,701.0,861.0,165.0,153.0
-524,379,255,0,-579.0,-611.0,541.0,701.0,199.0,165.0
-447,213,317,0,-524.0,-579.0,379.0,541.0,255.0,199.0
-351,39,366,0,-447.0,-524.0,213.0,379.0,317.0,255.0
-244,-137,413,0,-351.0,-447.0,39.0,213.0,366.0,317.0
-123,-296,452,0,-244.0,-351.0,-137.0,39.0,413.0,366.0
-13,-432,482,0,-123.0,-244.0,-296.0,-137.0,452.0,413.0
96,-575,512,0,-13.0,-123.0,-432.0,-296.0,482.0,452.0
169,-684,481,0,96.0,-13.0,-575.0,-432.0,512.0,482.0
194,-805,299,0,169.0,96.0,-684.0,-575.0,481.0,512.0
176,-900,-8,0,194.0,169.0,-805.0,-684.0,299.0,481.0
131,-1010,-386,0,176.0,194.0,-900.0,-805.0,-8.0,299.0
95,-1139,-827,0,131.0,176.0,-1010.0,-900.0,-386.0,-8.0
100,-1248,-1209,0,95.0,131.0,-1139.0,-1010.0,-827.0,-386.0
207,-1320,-1230,0,100.0,95.0,-1248.0,-1139.0,-1209.0,-827.0
405,-1331,-817,0,207.0,100.0,-1320.0,-1248.0,-1230.0,-1209.0
610,-1263,-258,0,405.0,207.0,-1331.0,-1320.0,-817.0,-1230.0
763,-1195,11,0,610.0,405.0,-1263.0,-1331.0,-258.0,-817.0
884,-1126,-43,0,763.0,610.0,-1195.0,-1263.0,11.0,-258.0
1072,-1087,-101,0,884.0,763.0,-1126.0,-1195.0,-43.0,11.0
1352,-1135,-72,0,1072.0,884.0,-1087.0,-1126.0,-101.0,-43.0
1741,-1275,-82,0,1352.0,1072.0,-1135.0,-1087.0,-72.0,-101.0
2266,-1442,-29,0,1741.0,1352.0,-1275.0,-1135.0,-82.0,-72.0
2945,-1530,125,0,2266.0,1741.0,-1442.0,-1275.0,-29.0,-82.0
3835,-1522,251,0,2945.0,2266.0,-1530.0,-1442.0,125.0,-29.0
5108,-1454,376,0,3835.0,2945.0,-1522.0,-1530.0,251.0,125.0
7058,-1450,652,0,5108.0,3835.0,-1454.0,-1522.0,376.0,251.0
9811,-1495,816,0,7058.0,5108.0,-1450.0,-1454.0,652.0,376.0
12897,-1177,761,0,9811.0,7058.0,-1495.0,-1450.0,816.0,652.0
15548,-430,541,0,12897.0,9811.0,-1177.0,-1495.0,761.0,816.0
17331,351,374,0,15548.0,12897.0,-430.0,-1177.0,541.0,761.0
17718,898,260,0,17331.0,15548.0,351.0,-430.0,374.0,541.0
16430,1267,346,0,17718.0,17331.0,898.0,351.0,260.0,374.0
13626,1640,786,0,16430.0,17718.0,1267.0,898.0,346.0,260.0
10273,1898,1177,0,13626.0,16430.0,1640.0,1267.0,786.0,346.0
7294,1796,1153,0,10273.0,13626.0,1898.0,1640.0,1177.0,786.0
5343,1342,747,0,7294.0,10273.0,1796.0,1898.0,1153.0,1177.0
4573,985,429,0,5343.0,7294.0,1342.0,1796.0,747.0,1153.0
4799,932,492,0,4573.0,5343.0,985.0,1342.0,429.0,747.0
5621,996,712,0,4799.0,4573.0,932.0,985.0,492.0,429.0
6767,1119,950,0,5621.0,4799.0,996.0,932.0,712.0,492.0
7989,1296,1197,0,6767.0,5621.0,1119.0,996.0,950.0,712.0
9130,1577,1514,0,7989.0,6767.0,1296.0,1119.0,1197.0,950.0
10091,1903,1801,0,9130.0,7989.0,1577.0,1296.0,1514.0,1197.0
10730,2204,1918,0,10091.0,9130.0,1903.0,1577.0,1801.0,1514.0
11037,2500,1894,0,10730.0,10091.0,2204.0,1903.0,1918.0,1801.0
11029,2813,1762,0,11037.0,10730.0,2500.0,2204.0,1894.0,1918.0
10751,3110,1577,0,11029.0,11037.0,2813.0,2500.0,1762.0,1894.0
10288,3346,1413,0,10751.0,11029.0,3110.0,2813.0,1577.0,1762.0
9722,3497,1330,0,10288.0,10751.0,3346.0,3110.0,1413.0,1577.0
9129,3554,1315,0,9722.0,10288.0,3497.0,3346.0,1330.0,1413.0
8592,3520,1366,0,9129.0,9722.0,3554.0,3497.0,1315.0,1330.0
8123,3406,1448,0,8592.0,9129.0,3520.0,3554.0,1366.0,1315.0
7737,3246,1544,0,8123.0,8592.0,3406.0,3520.0,1448.0,1366.0
7429,3089,1637,0,7737.0,8123.0,3246.0,3406.0,1544.0,1448.0
7187,2951,1715,0,7429.0,7737.0,3089.0,3246.0,1637.0,1544.0
6979,2805,1777,0,7187.0,7429.0,2951.0,3089.0,1715.0,1637.0
6816,2662,1819,0,6979.0,7187.0,2805.0,2951.0,1777.0,1715.0
6679,2513,1810,0,6816.0,6979.0,2662.0,2805.0,1819.0,1777.0
6534,2332,1769,0,6679.0,6816.0,2513.0,2662.0,1810.0,1819.0
6350,2134,1720,0,6534.0,6679.0,2332.0,2513.0,1769.0,1810.0
6133,1934,1649,0,6350.0,6534.0,2134.0,2332.0,1720.0,1769.0
5905,1722,1548,0,6133.0,6350.0,1934.0,2134.0,1649.0,1720.0
5645,1525,1445,0,5905.0,6133.0,1722.0,1934.0,1548.0,1649.0
5361,1364,1352,0,5645.0,5905.0,1525.0,1722.0,1445.0,1548.0
5059,1243,1251,0,5361.0,5645.0,1364.0,1525.0,1352.0,1445.0
4729,1151,1137,0,5059.0,5361.0,1243.0,1364.0,1251.0,1352.0
4400,1068,1007,0,4729.0,5059.0,1151.0,1243.0,1137.0,1251.0
4061,996,879,0,4400.0,4729.0,1068.0,1151.0,1007.0,1137.0
3728,927,754,0,4061.0,4400.0,996.0,1068.0,879.0,1007.0
3388,848,658,0,3728.0,4061.0,927.0,996.0,754.0,879.0
3059,741,611,0,3388.0,3728.0,848.0,927.0,658.0,754.0
2740,617,592,0,3059.0,3388.0,741.0,848.0,611.0,658.0
2435,501,571,0,2740.0,3059.0,617.0,741.0,592.0,611.0
2152,418,538,0,2435.0,2740.0,501.0,617.0,571.0,592.0
1897,346,476,0,2152.0,2435.0,418.0,501.0,538.0,571.0
1659,300,423,0,1897.0,2152.0,346.0,418.0,476.0,538.0
1437,263,401,0,1659.0,1897.0,300.0,346.0,423.0,476.0
1224,243,404,0,1437.0,1659.0,263.0,300.0,401.0,423.0
1027,255,427,0,1224.0,1437.0,243.0,263.0,404.0,401.0
854,295,432,0,1027.0,1224.0,255.0,243.0,427.0,404.0
695,355,410,0,854.0,1027.0,295.0,255.0,432.0,427.0
544,430,345,0,695.0,854.0,355.0,295.0,410.0,432.0
386,503,246,0,544.0,695.0,430.0,355.0,345.0,410.0
213,561,134,0,386.0,544.0,503.0,430.0,246.0,345.0
21,599,34,0,213.0,386.0,561.0,503.0,134.0,246.0
-188,605,-53,0,21.0,213.0,599.0,561.0,34.0,134.0
-408,582,-99,0,-188.0,21.0,605.0,599.0,-53.0,34.0
-621,519,-138,0,-408.0,-188.0,582.0,605.0,-99.0,-53.0
-831,428,-176,0,-621.0,-408.0,519.0,582.0,-138.0,-99.0
-1042,295,-214,0,-831.0,-621.0,428.0,519.0,-176.0,-138.0
-1235,145,-237,0,-1042.0,-831.0,295.0,428.0,-214.0,-176.0
-1417,-2,-240,0,-1235.0,-1042.0,145.0,295.0,-237.0,-214.0
-1581,-141,-232,0,-1417.0,-1235.0,-2.0,145.0,-240.0,-237.0
-1734,-289,-218,0,-1581.0,-1417.0,-141.0,-2.0,-232.0,-240.0
-1882,-412,-249,0,-1734.0,-1581.0,-289.0,-141.0,-218.0,-232.0
-1994,-549,-320,0,-1882.0,-1734.0,-412.0,-289.0,-249.0,-218.0
-2082,-676,-403,0,-1994.0,-1882.0,-549.0,-412.0,-320.0,-249.0
-2147,-777,-481,0,-2082.0,-1994.0,-676.0,-549.0,-403.0,-320.0
-2179,-838,-541,0,-2147.0,-2082.0,-777.0,-676.0,-481.0,-403.0
-2183,-873,-580,0,-2179.0,-2147.0,-838.0,-777.0,-541.0,-481.0
-2136,-909,-629,0,-2183.0,-2179.0,-873.0,-838.0,-580.0,-541.0
-2047,-933,-722,0,-2136.0,-2183.0,-909.0,-873.0,-629.0,-580.0
-1932,-935,-839,0,-2047.0,-2136.0,-933.0,-909.0,-722.0,-629.0
-1761,-914,-964,0,-1932.0,-2047.0,-935.0,-933.0,-839.0,-722.0
-1522,-838,-996,0,-1761.0,-1932.0,-914.0,-935.0,-964.0,-839.0
-1234,-700,-959,0,-1522.0,-1761.0,-838.0,-914.0,-996.0,-964.0
-933,-497,-898,0,-1234.0,-1522.0,-700.0,-838.0,-959.0,-996.0
-637,-226,-837,0,-933.0,-1234.0,-497.0,-700.0,-898.0,-959.0
-358,84,-771,0,-637.0,-933.0,-226.0,-497.0,-837.0,-898.0
-126,386,-732,0,-358.0,-637.0,84.0,-226.0,-771.0,-837.0
71,610,-734,0,-126.0,-358.0,386.0,84.0,-732.0,-771.0
229,732,-720,0,71.0,-126.0,610.0,386.0,-734.0,-732.0
352,748,-691,0,229.0,71.0,732.0,610.0,-720.0,-734.0
437,698,-588,0,352.0,229.0,748.0,732.0,-691.0,-720.0
502,602,-429,0,437.0,352.0,698.0,748.0,-588.0,-691.0
534,458,-241,0,502.0,437.0,602.0,698.0,-429.0,-588.0
556,283,7,0,534.0,502.0,458.0,602.0,-241.0,-429.0
594,82,372,0,556.0,534.0,283.0,458.0,7.0,-241.0
688,-93,837,0,594.0,556.0,82.0,283.0,372.0,7.0
875,-181,1341,0,688.0,594.0,-93.0,82.0,837.0,372.0
1167,-243,1694,0,875.0,688.0,-181.0,-93.0,1341.0,837.0
1604,-415,1709,0,1167.0,875.0,-243.0,-181.0,1694.0,1341.0
2162,-696,1487,0,1604.0,1167.0,-415.0,-243.0,1709.0,1694.0
2878,-989,1221,0,2162.0,1604.0,-696.0,-415.0,1487.0,1709.0
3940,-1198,935,0,2878.0,2162.0,-989.0,-696.0,1221.0,1487.0
5361,-1109,675,0,3940.0,2878.0,-1198.0,-989.0,935.0,1221.0
7251,-624,703,0,5361.0,3940.0,-1109.0,-1198.0,675.0,935.0
10000,151,670,0,7251.0,5361.0,-624.0,-1109.0,703.0,675.0
12777,1366,414,0,10000.0,7251.0,151.0,-624.0,670.0,703.0
15154,2377,300,0,12777.0,10000.0,1366.0,151.0,414.0,670.0
16970,2782,520,0,15154.0,12777.0,2377.0,1366.0,300.0,414.0
17619,2725,663,0,16970.0,15154.0,2782.0,2377.0,520.0,300.0
16692,2599,615,0,17619.0,16970.0,2725.0,2782.0,663.0,520.0
14145,2497,756,0,16692.0,17619.0,2599.0,2725.0,615.0,663.0
10622,2268,1227,0,14145.0,16692.0,2497.0,2599.0,756.0,615.0
6924,1890,1656,0,10622.0,14145.0,2268.0,2497.0,1227.0,756.0
4039,1363,1537,0,6924.0,10622.0,1890.0,2268.0,1656.0,1227.0
2511,817,827,0,4039.0,6924.0,1363.0,1890.0,1537.0,1656.0
2238,459,256,0,2511.0,4039.0,817.0,1363.0,827.0,1537.0
2895,425,274,0,2238.0,2511.0,459.0,817.0,256.0,827.0
4153,624,811,0,2895.0,2238.0,425.0,459.0,274.0,256.0
5610,872,1341,0,4153.0,2895.0,624.0,425.0,811.0,274.0
6927,1129,1569,0,5610.0,4153.0,872.0,624.0,1341.0,811.0
8046,1384,1574,0,6927.0,5610.0,1129.0,872.0,1569.0,1341.0
8900,1709,1517,0,8046.0,6927.0,1384.0,1129.0,1574.0,1569.0
9454,2120,1471,0,8900.0,8046.0,1709.0,1384.0,1517.0,1574.0
9646,2511,1410,0,9454.0,8900.0,2120.0,1709.0,1471.0,1517.0
9467,2858,1352,0,9646.0,9454.0,2511.0,2120.0,1410.0,1471.0
9028,3132,1329,0,9467.0,9646.0,2858.0,2511.0,1352.0,1410.0
8504,3338,1339,0,9028.0,9467.0,3132.0,2858.0,1329.0,1352.0
8006,3493,1367,0,8504.0,9028.0,3338.0,3132.0,1339.0,1329.0
7607,3611,1420,0,8006.0,8504.0,3493.0,3338.0,1367.0,1339.0
7320,3711,1486,0,7607.0,8006.0,3611.0,3493.0,1420.0,1367.0
7077,3811,1565,0,7320.0,7607.0,3711.0,3611.0,1486.0,1420.0
6931,3788,1595,0,7077.0,7320.0,3811.0,3711.0,1565.0,1486.0
6847,3665,1566,0,6931.0,7077.0,3788.0,3811.0,1595.0,1565.0
6779,3494,1509,0,6847.0,6931.0,3665.0,3788.0,1566.0,1595.0
6730,3293,1442,0,6779.0,6847.0,3494.0,3665.0,1509.0,1566.0
6674,3084,1418,0,6730.0,6779.0,3293.0,3494.0,1442.0,1509.0
6601,2900,1450,0,6674.0,6730.0,3084.0,3293.0,1418.0,1442.0
6492,2709,1470,0,6601.0,6674.0,2900.0,3084.0,1450.0,1418.0
6357,2531,1462,0,6492.0,6601.0,2709.0,2900.0,1470.0,1450.0
6206,2381,1443,0,6357.0,6492.0,2531.0,2709.0,1462.0,1470.0
6069,2277,1433,0,6206.0,6357.0,2381.0,2531.0,1443.0,1462.0
5904,2182,1394,0,6069.0,6206.0,2277.0,2381.0,1433.0,1443.0
5763,2096,1365,0,5904.0,6069.0,2182.0,2277.0,1394.0,1433.0
5638,2022,1353,0,5763.0,5904.0,2096.0,2182.0,1365.0,1394.0
5518,1963,1343,0,5638.0,5763.0,2022.0,2096.0,1353.0,1365.0
5394,1898,1318,0,5518.0,5638.0,1963.0,2022.0,1343.0,1353.0
5261,1841,1311,0,5394.0,5518.0,1898.0,1963.0,1318.0,1343.0
5107,1851,1317,0,5261.0,5394.0,1841.0,1898.0,1311.0,1318.0
4960,1870,1333,0,5107.0,5261.0,1851.0,1841.0,1317.0,1311.0
4797,1885,1328,0,4960.0,5107.0,1870.0,1851.0,1333.0,1317.0
4596,1910,1304,0,4797.0,4960.0,1885.0,1870.0,1328.0,1333.0
4375,1958,1268,0,4596.0,4797.0,1910.0,1885.0,1304.0,1328.0
4171,2032,1253,0,4375.0,4596.0,1958.0,1910.0,1268.0,1304.0
3970,2098,1245,0,4171.0,4375.0,2032.0,1958.0,1253.0,1268.0
3757,2152,1242,0,3970.0,4171.0,2098.0,2032.0,1245.0,1253.0
3547,2182,1206,0,3757.0,3970.0,2152.0,2098.0,1242.0,1245.0
3313,2183,1093,0,3547.0,3757.0,2182.0,2152.0,1206.0,1242.0
3074,2164,970,0,3313.0,3547.0,2183.0,2182.0,1093.0,1206.0
2850,2180,903,0,3074.0,3313.0,2164.0,2183.0,970.0,1093.0
2590,2197,793,0,2850.0,3074.0,2180.0,2164.0,903.0,970.0
2324,2222,679,0,2590.0,2850.0,2197.0,2180.0,793.0,903.0
2079,2244,584,0,2324.0,2590.0,2222.0,2197.0,679.0,793.0
1897,2238,573,0,2079.0,2324.0,2244.0,2222.0,584.0,679.0
1711,2214,600,0,1897.0,2079.0,2238.0,2244.0,573.0,584.0
1516,2161,608,0,1711.0,1897.0,2214.0,2238.0,600.0,573.0
1326,2100,578,0,1516.0,1711.0,2161.0,2214.0,608.0,600.0
1133,2008,500,0,1326.0,1516.0,2100.0,2161.0,578.0,608.0
925,1884,402,0,1133.0,1326.0,2008.0,2100.0,500.0,578.0
719,1748,323,0,925.0,1133.0,1884.0,2008.0,402.0,500.0
524,1600,288,0,719.0,925.0,1748.0,1884.0,323.0,402.0
317,1426,273,0,524.0,719.0,1600.0,1748.0,288.0,323.0
108,1218,268,0,317.0,524.0,1426.0,1600.0,273.0,288.0
-108,983,203,0,108.0,317.0,1218.0,1426.0,268.0,273.0
-301,756,75,0,-108.0,108.0,983.0,1218.0,203.0,268.0
-484,540,-67,0,-301.0,-108.0,756.0,983.0,75.0,203.0
-626,336,-181,0,-484.0,-301.0,540.0,756.0,-67.0,75.0
-723,149,-298,0,-626.0,-484.0,336.0,540.0,-181.0,-67.0
-787,-14,-420,0,-723.0,-626.0,149.0,336.0,-298.0,-181.0
-813,-134,-517,0,-787.0,-723.0,-14.0,149.0,-420.0,-298.0
-823,-229,-551,0,-813.0,-787.0,-134.0,-14.0,-517.0,-420.0
-821,-318,-544,0,-823.0,-813.0,-229.0,-134.0,-551.0,-517.0
-804,-400,-500,0,-821.0,-823.0,-318.0,-229.0,-544.0,-551.0
-775,-479,-431,0,-804.0,-821.0,-400.0,-318.0,-500.0,-544.0
-751,-537,-338,0,-775.0,-804.0,-479.0,-400.0,-431.0,-500.0
-719,-594,-255,0,-751.0,-775.0,-537.0,-479.0,-338.0,-431.0
-670,-653,-201,0,-719.0,-751.0,-594.0,-537.0,-255.0,-338.0
-606,-695,-182,0,-670.0,-719.0,-653.0,-594.0,-201.0,-255.0
-535,-722,-176,0,-606.0,-670.0,-695.0,-653.0,-182.0,-201.0
-456,-736,-134,0,-535.0,-606.0,-722.0,-695.0,-176.0,-182.0
-380,-754,-82,0,-456.0,-535.0,-736.0,-722.0,-134.0,-176.0
-324,-769,-55,0,-380.0,-456.0,-754.0,-736.0,-82.0,-134.0
-275,-817,-78,0,-324.0,-380.0,-769.0,-754.0,-55.0,-82.0
-231,-882,-152,0,-275.0,-324.0,-817.0,-769.0,-78.0,-55.0
-178,-960,-264,0,-231.0,-275.0,-882.0,-817.0,-152.0,-78.0
-95,-1039,-405,0,-178.0,-231.0,-960.0,-882.0,-264.0,-152.0
14,-1115,-548,0,-95.0,-178.0,-1039.0,-960.0,-405.0,-264.0
155,-1180,-704,0,14.0,-95.0,-1115.0,-1039.0,-548.0,-405.0
325,-1232,-853,0,155.0,14.0,-1180.0,-1115.0,-704.0,-548.0
565,-1268,-897,0,325.0,155.0,-1232.0,-1180.0,-853.0,-704.0
902,-1275,-754,0,565.0,325.0,-1268.0,-1232.0,-897.0,-853.0
1300,-1239,-481,0,902.0,565.0,-1275.0,-1268.0,-754.0,-897.0
1699,-1126,-159,0,1300.0,902.0,-1239.0,-1275.0,-481.0,-754.0
2060,-937,146,0,1699.0,1300.0,-1126.0,-1239.0,-159.0,-481.0
2383,-740,353,0,2060.0,1699.0,-937.0,-1126.0,146.0,-159.0
2684,-602,456,0,2383.0,2060.0,-740.0,-937.0,353.0,146.0
3019,-526,485,0,2684.0,2383.0,-602.0,-740.0,456.0,353.0
3434,-525,421,0,3019.0,2684.0,-526.0,-602.0,485.0,456.0
3993,-559,282,0,3434.0,3019.0,-525.0,-526.0,421.0,485.0
4748,-556,142,0,3993.0,3434.0,-559.0,-525.0,282.0,421.0
5763,-505,95,0,4748.0,3993.0,-556.0,-559.0,142.0,282.0
7003,-428,185,0,5763.0,4748.0,-505.0,-556.0,95.0,142.0
8283,-343,331,0,7003.0,5763.0,-428.0,-505.0,185.0,95.0
9345,-241,462,0,8283.0,7003.0,-343.0,-428.0,331.0,185.0
9975,-122,599,0,9345.0,8283.0,-241.0,-343.0,462.0,331.0
10048,14,758,0,9975.0,9345.0,-122.0,-241.0,599.0,462.0
9630,221,910,0,10048.0,9975.0,14.0,-122.0,758.0,599.0
8913,640,1067,0,9630.0,10048.0,221.0,14.0,910.0,758.0
8113,1303,1280,0,8913.0,9630.0,640.0,221.0,1067.0,910.0
7480,1983,1456,0,8113.0,8913.0,1303.0,640.0,1280.0,1067.0
7137,2486,1484,0,7480.0,8113.0,1983.0,1303.0,1456.0,1280.0
7142,2722,1408,0,7137.0,7480.0,2486.0,1983.0,1484.0,1456.0
7490,2752,1392,0,7142.0,7137.0,2722.0,2486.0,1408.0,1484.0
8092,2710,1529,0,7490.0,7142.0,2752.0,2722.0,1392.0,1408.0
8839,2697,1771,0,8092.0,7490.0,2710.0,2752.0,1529.0,1392.0
9537,2661,1977,0,8839.0,8092.0,2697.0,2710.0,1771.0,1529.0
10017,2584,2097,0,9537.0,8839.0,2661.0,2697.0,1977.0,1771.0
10247,2497,2124,0,10017.0,9537.0,2584.0,2661.0,2097.0,1977.0
10238,2488,2102,0,10247.0,10017.0,2497.0,2584.0,2124.0,2097.0
10000,2503,2065,0,10238.0,10247.0,2488.0,2497.0,2102.0,2124.0
9569,2524,2042,0,10000.0,10238.0,2503.0,2488.0,2065.0,2102.0
9081,2549,2035,0,9569.0,10000.0,2524.0,2503.0,2042.0,2065.0
8616,2564,2045,0,9081.0,9569.0,2549.0,2524.0,2035.0,2042.0
8227,2619,2047,0,8616.0,9081.0,2564.0,2549.0,2045.0,2035.0
7951,2739,2046,0,8227.0,8616.0,2619.0,2564.0,2047.0,2045.0
7780,2878,2040,0,7951.0,8227.0,2739.0,2619.0,2046.0,2047.0
7676,3024,2024,0,7780.0,7951.0,2878.0,2739.0,2040.0,2046.0
7620,3163,1979,0,7676.0,7780.0,3024.0,2878.0,2024.0,2040.0
7589,3264,1925,0,7620.0,7676.0,3163.0,3024.0,1979.0,2024.0
7546,3315,1882,0,7589.0,7620.0,3264.0,3163.0,1925.0,1979.0
7468,3310,1845,0,7546.0,7589.0,3315.0,3264.0,1882.0,1925.0
7351,3278,1799,0,7468.0,7546.0,3310.0,3315.0,1845.0,1882.0
7202,3244,1737,0,7351.0,7468.0,3278.0,3310.0,1799.0,1845.0
7046,3215,1685,0,7202.0,7351.0,3244.0,3278.0,1737.0,1799.0
6887,3173,1646,0,7046.0,7202.0,3215.0,3244.0,1685.0,1737.0
6724,3125,1582,0,6887.0,7046.0,3173.0,3215.0,1646.0,1685.0
6544,3074,1508,0,6724.0,6887.0,3125.0,3173.0,1582.0,1646.0
6325,3025,1418,0,6544.0,6724.0,3074.0,3125.0,1508.0,1582.0
6072,2962,1297,0,6325.0,6544.0,3025.0,3074.0,1418.0,1508.0
5807,2840,1171,0,6072.0,6325.0,2962.0,3025.0,1297.0,1418.0
5525,2658,1050,0,5807.0,6072.0,2840.0,2962.0,1171.0,1297.0
5228,2432,913,0,5525.0,5807.0,2658.0,2840.0,1050.0,1171.0
4935,2153,777,0,5228.0,5525.0,2432.0,2658.0,913.0,1050.0
4642,1846,637,0,4935.0,5228.0,2153.0,2432.0,777.0,913.0
4364,1543,499,0,4642.0,4935.0,1846.0,2153.0,637.0,777.0
4096,1242,355,0,4364.0,4642.0,1543.0,1846.0,499.0,637.0
3855,951,247,0,4096.0,4364.0,1242.0,1543.0,355.0,499.0
3636,677,169,0,3855.0,4096.0,951.0,1242.0,247.0,355.0
3436,438,133,0,3636.0,3855.0,677.0,951.0,169.0,247.0
3220,261,116,0,3436.0,3636.0,438.0,677.0,133.0,169.0
2976,143,139,0,3220.0,3436.0,261.0,438.0,116.0,133.0
2712,64,143,0,2976.0,3220.0,143.0,261.0,139.0,116.0
2426,14,102,0,2712.0,2976.0,64.0,143.0,143.0,139.0
2113,7,49,0,2426.0,2712.0,14.0,64.0,102.0,143.0
1798,21,-18,0,2113.0,2426.0,7.0,14.0,49.0,102.0
1481,33,-115,0,1798.0,2113.0,21.0,7.0,-18.0,49.0
1198,19,-212,0,1481.0,1798.0,33.0,21.0,-115.0,-18.0
911,-7,-275,0,1198.0,1481.0,19.0,33.0,-212.0,-115.0
640,-68,-312,0,911.0,1198.0,-7.0,19.0,-275.0,-212.0
372,-145,-333,0,640.0,911.0,-68.0,-7.0,-312.0,-275.0
115,-240,-375,0,372.0,640.0,-145.0,-68.0,-333.0,-312.0
-131,-364,-429,0,115.0,372.0,-240.0,-145.0,-375.0,-333.0
-366,-494,-498,0,-131.0,115.0,-364.0,-240.0,-429.0,-375.0
-576,-633,-573,0,-366.0,-131.0,-494.0,-364.0,-498.0,-429.0
-755,-767,-662,0,-576.0,-366.0,-633.0,-494.0,-573.0,-498.0
-897,-872,-817,0,-755.0,-576.0,-767.0,-633.0,-662.0,-573.0
-997,-1015,-1076,0,-897.0,-755.0,-872.0,-767.0,-817.0,-662.0
-1046,-1223,-1388,0,-997.0,-897.0,-1015.0,-872.0,-1076.0,-817.0
-1050,-1448,-1617,0,-1046.0,-997.0,-1223.0,-1015.0,-1388.0,-1076.0
-1032,-1627,-1664,0,-1050.0,-1046.0,-1448.0,-1223.0,-1617.0,-1388.0
-1012,-1724,-1532,0,-1032.0,-1050.0,-1627.0,-1448.0,-1664.0,-1617.0
-984,-1767,-1311,0,-1012.0,-1032.0,-1724.0,-1627.0,-1532.0,-1664.0
-954,-1753,-1066,0,-984.0,-1012.0,-1767.0,-1724.0,-1311.0,-1532.0
-904,-1686,-877,0,-954.0,-984.0,-1753.0,-1767.0,-1066.0,-1311.0
-809,-1586,-769,0,-904.0,-954.0,-1686.0,-1753.0,-877.0,-1066.0
-674,-1457,-721,0,-809.0,-904.0,-1586.0,-1686.0,-769.0,-877.0
-522,-1305,-656,0,-674.0,-809.0,-1457.0,-1586.0,-721.0,-769.0
-349,-1136,-480,0,-522.0,-674.0,-1305.0,-1457.0,-656.0,-721.0
-170,-973,-259,0,-349.0,-522.0,-1136.0,-1305.0,-480.0,-656.0
2,-815,-173,0,-170.0,-349.0,-973.0,-1136.0,-259.0,-480.0
172,-656,-263,0,2.0,-170.0,-815.0,-973.0,-173.0,-259.0
318,-453,-424,0,172.0,2.0,-656.0,-815.0,-263.0,-173.0
438,-187,-532,0,318.0,172.0,-453.0,-656.0,-424.0,-263.0
529,105,-571,0,438.0,318.0,-187.0,-453.0,-532.0,-424.0
589,374,-504,0,529.0,438.0,105.0,-187.0,-571.0,-532.0
604,578,-414,0,589.0,529.0,374.0,105.0,-504.0,-571.0
589,688,-286,0,604.0,589.0,578.0,374.0,-414.0,-504.0
580,687,-17,0,589.0,604.0,688.0,578.0,-286.0,-414.0
588,553,426,0,580.0,589.0,687.0,688.0,-17.0,-286.0
670,260,1114,0,588.0,580.0,553.0,687.0,426.0,-17.0
918,-246,1729,0,670.0,588.0,260.0,553.0,1114.0,426.0
1221,-885,1449,0,918.0,670.0,-246.0,260.0,1729.0,1114.0
1399,-1177,557,0,1221.0,918.0,-885.0,-246.0,1449.0,1729.0
1363,-686,-310,0,1399.0,1221.0,-1177.0,-885.0,557.0,1449.0
1354,168,-667,0,1363.0,1399.0,-686.0,-1177.0,-310.0,557.0
1539,857,-310,0,1354.0,1363.0,168.0,-686.0,-667.0,-310.0
2009,1010,560,0,1539.0,1354.0,857.0,168.0,-310.0,-667.0
2763,630,1421,0,2009.0,1539.0,1010.0,857.0,560.0,-310.0
3724,217,2077,0,2763.0,2009.0,630.0,1010.0,1421.0,560.0
4992,-55,2414,0,3724.0,2763.0,217.0,630.0,2077.0,1421.0
6612,-329,2412,0,4992.0,3724.0,-55.0,217.0,2414.0,2077.0
8381,-537,2049,0,6612.0,4992.0,-329.0,-55.0,2412.0,2414.0
9912,-524,1506,0,8381.0,6612.0,-537.0,-329.0,2049.0,2412.0
11053,-244,1275,0,9912.0,8381.0,-524.0,-537.0,1506.0,2049.0
11623,436,1550,0,11053.0,9912.0,-244.0,-524.0,1275.0,1506.0
11408,1492,2103,0,11623.0,11053.0,436.0,-244.0,1550.0,1275.0
10406,2636,2551,0,11408.0,11623.0,1492.0,436.0,2103.0,1550.0
8709,3562,2703,0,10406.0,11408.0,2636.0,1492.0,2551.0,2103.0
6841,4016,2533,0,8709.0,10406.0,3562.0,2636.0,2703.0,2551.0
5282,3917,1991,0,6841.0,8709.0,4016.0,3562.0,2533.0,2703.0
4200,3328,1350,0,5282.0,6841.0,3917.0,4016.0,1991.0,2533.0
3691,2447,899,0,4200.0,5282.0,3328.0,3917.0,1350.0,1991.0
3620,1544,579,0,3691.0,4200.0,2447.0,3328.0,899.0,1350.0
3858,870,440,0,3620.0,3691.0,1544.0,2447.0,579.0,899.0
4398,516,591,0,3858.0,3620.0,870.0,1544.0,440.0,579.0
5219,345,841,0,4398.0,3858.0,516.0,870.0,591.0,440.0
6251,346,1050,0,5219.0,4398.0,345.0,516.0,841.0,591.0
7367,514,1203,0,6251.0,5219.0,346.0,345.0,1050.0,841.0
8404,844,1310,0,7367.0,6251.0,514.0,346.0,1203.0,1050.0
9204,1268,1396,0,8404.0,7367.0,844.0,514.0,1310.0,1203.0
9676,1680,1417,0,9204.0,8404.0,1268.0,844.0,1396.0,1310.0
9774,2070,1369,0,9676.0,9204.0,1680.0,1268.0,1417.0,1396.0
9541,2472,1301,0,9774.0,9676.0,2070.0,1680.0,1369.0,1417.0
9096,2849,1247,0,9541.0,9774.0,2472.0,2070.0,1301.0,1369.0
8603,3084,1174,0,9096.0,9541.0,2849.0,2472.0,1247.0,1301.0
8116,3222,1087,0,8603.0,9096.0,3084.0,2849.0,1174.0,1247.0
7756,3239,1010,0,8116.0,8603.0,3222.0,3084.0,1087.0,1174.0
7557,3102,953,0,7756.0,8116.0,3239.0,3222.0,1010.0,1087.0
7467,2921,862,0,7557.0,7756.0,3102.0,3239.0,953.0,1010.0
7457,2688,779,0,7467.0,7557.0,2921.0,3102.0,862.0,953.0
7474,2419,679,0,7457.0,7467.0,2688.0,2921.0,779.0,862.0
7468,2169,590,0,7474.0,7457.0,2419.0,2688.0,679.0,779.0
7447,1924,531,0,7468.0,7474.0,2169.0,2419.0,590.0,679.0
7384,1720,528,0,7447.0,7468.0,1924.0,2169.0,531.0,590.0
7302,1528,563,0,7384.0,7447.0,1720.0,1924.0,528.0,531.0
7220,1325,599,0,7302.0,7384.0,1528.0,1720.0,563.0,528.0
7065,1177,601,0,7220.0,7302.0,1325.0,1528.0,599.0,563.0
6893,1061,615,0,7065.0,7220.0,1177.0,1325.0,601.0,599.0
6728,965,671,0,6893.0,7065.0,1061.0,1177.0,615.0,601.0
6550,965,736,0,6728.0,6893.0,965.0,1061.0,671.0,615.0
6384,994,760,0,6550.0,6728.0,965.0,965.0,736.0,671.0
6205,1057,773,0,6384.0,6550.0,994.0,965.0,760.0,736.0
6019,1122,830,0,6205.0,6384.0,1057.0,994.0,773.0,760.0
5812,1169,915,0,6019.0,6205.0,1122.0,1057.0,830.0,773.0
5582,1170,990,0,5812.0,6019.0,1169.0,1122.0,915.0,830.0
5361,1147,1040,0,5582.0,5812.0,1170.0,1169.0,990.0,915.0
5163,1078,1109,0,5361.0,5582.0,1147.0,1170.0,1040.0,990.0
4997,1030,1162,0,5163.0,5361.0,1078.0,1147.0,1109.0,1040.0
4834,978,1174,0,4997.0,5163.0,1030.0,1078.0,1162.0,1109.0
4650,1040,1193,0,4834.0,4997.0,978.0,1030.0,1174.0,1162.0
4439,1145,1113,0,4650.0,4834.0,1040.0,978.0,1193.0,1174.0
4210,1270,938,0,4439.0,4650.0,1145.0,1040.0,1113.0,1193.0
3951,1374,743,0,4210.0,4439.0,1270.0,1145.0,938.0,1113.0
3673,1442,601,0,3951.0,4210.0,1374.0,1270.0,743.0,938.0
3377,1485,537,0,3673.0,3951.0,1442.0,1374.0,601.0,743.0
3058,1527,489,0,3377.0,3673.0,1485.0,1442.0,537.0,601.0
2726,1568,388,0,3058.0,3377.0,1527.0,1485.0,489.0,537.0
2401,1634,281,0,2726.0,3058.0,1568.0,1527.0,388.0,489.0
2123,1717,216,0,2401.0,2726.0,1634.0,1568.0,281.0,388.0
1844,1787,170,0,2123.0,2401.0,1717.0,1634.0,216.0,281.0
1579,1837,127,0,1844.0,2123.0,1787.0,1717.0,170.0,216.0
1302,1857,89,0,1579.0,1844.0,1837.0,1787.0,127.0,170.0
1003,1879,103,0,1302.0,1579.0,1857.0,1837.0,89.0,127.0
687,1895,101,0,1003.0,1302.0,1879.0,1857.0,103.0,89.0
368,1862,-19,0,687.0,1003.0,1895.0,1879.0,101.0,103.0
74,1809,-230,0,368.0,687.0,1862.0,1895.0,-19.0,101.0
-151,1746,-415,0,74.0,368.0,1809.0,1862.0,-230.0,-19.0
-339,1693,-545,0,-151.0,74.0,1746.0,1809.0,-415.0,-230.0
-499,1636,-644,0,-339.0,-151.0,1693.0,1746.0,-545.0,-415.0
-660,1582,-703,0,-499.0,-339.0,1636.0,1693.0,-644.0,-545.0
-798,1508,-729,0,-660.0,-499.0,1582.0,1636.0,-703.0,-644.0
-918,1399,-751,0,-798.0,-660.0,1508.0,1582.0,-729.0,-703.0
-1017,1265,-803,0,-918.0,-798.0,1399.0,1508.0,-751.0,-729.0
-1083,1117,-857,0,-1017.0,-918.0,1265.0,1399.0,-803.0,-751.0
-1116,967,-887,0,-1083.0,-1017.0,1117.0,1265.0,-857.0,-803.0
-1134,805,-916,0,-1116.0,-1083.0,967.0,1117.0,-887.0,-857.0
-1133,634,-941,0,-1134.0,-1116.0,805.0,967.0,-916.0,-887.0
-1122,471,-926,0,-1133.0,-1134.0,634.0,805.0,-941.0,-916.0
-1076,301,-858,0,-1122.0,-1133.0,471.0,634.0,-926.0,-941.0
-1009,149,-764,0,-1076.0,-1122.0,301.0,471.0,-858.0,-926.0
-924,11,-704,0,-1009.0,-1076.0,149.0,301.0,-764.0,-858.0
-813,-121,-674,0,-924.0,-1009.0,11.0,149.0,-704.0,-764.0
-664,-245,-618,0,-813.0,-924.0,-121.0,11.0,-674.0,-704.0
-502,-344,-551,0,-664.0,-813.0,-245.0,-121.0,-618.0,-674.0
-358,-422,-519,0,-502.0,-664.0,-344.0,-245.0,-551.0,-618.0
-241,-478,-523,0,-358.0,-502.0,-422.0,-344.0,-519.0,-551.0
-153,-531,-543,0,-241.0,-358.0,-478.0,-422.0,-523.0,-519.0
-83,-596,-581,0,-153.0,-241.0,-531.0,-478.0,-543.0,-523.0
-28,-694,-654,0,-83.0,-153.0,-596.0,-531.0,-581.0,-543.0
25,-815,-759,0,-28.0,-83.0,-694.0,-596.0,-654.0,-581.0
83,-961,-870,0,25.0,-28.0,-815.0,-694.0,-759.0,-654.0
158,-1118,-983,0,83.0,25.0,-961.0,-815.0,-870.0,-759.0
235,-1287,-1136,0,158.0,83.0,-1118.0,-961.0,-983.0,-870.0
320,-1458,-1336,0,235.0,158.0,-1287.0,-1118.0,-1136.0,-983.0
433,-1617,-1520,0,320.0,235.0,-1458.0,-1287.0,-1336.0,-1136.0
592,-1741,-1575,0,433.0,320.0,-1617.0,-1458.0,-1520.0,-1336.0
813,-1809,-1449,0,592.0,433.0,-1741.0,-1617.0,-1575.0,-1520.0
1054,-1792,-1234,0,813.0,592.0,-1809.0,-1741.0,-1449.0,-1575.0
1306,-1714,-1021,0,1054.0,813.0,-1792.0,-1809.0,-1234.0,-1449.0
1562,-1634,-807,0,1306.0,1054.0,-1714.0,-1792.0,-1021.0,-1234.0
1855,-1611,-593,0,1562.0,1306.0,-1634.0,-1714.0,-807.0,-1021.0
2217,-1642,-396,0,1855.0,1562.0,-1611.0,-1634.0,-593.0,-807.0
2657,-1678,-279,0,2217.0,1855.0,-1642.0,-1611.0,-396.0,-593.0
3215,-1684,-230,0,2657.0,2217.0,-1678.0,-1642.0,-279.0,-396.0
3942,-1670,-187,0,3215.0,2657.0,-1684.0,-1678.0,-230.0,-279.0
4931,-1641,-53,0,3942.0,3215.0,-1670.0,-1684.0,-187.0,-230.0
6319,-1579,282,0,4931.0,3942.0,-1641.0,-1670.0,-53.0,-187.0
8142,-1442,764,0,6319.0,4931.0,-1579.0,-1641.0,282.0,-53.0
10289,-1127,1265,0,8142.0,6319.0,-1442.0,-1579.0,764.0,282.0
12358,-553,1674,0,10289.0,8142.0,-1127.0,-1442.0,1265.0,764.0
13615,-160,1646,0,12358.0,10289.0,-553.0,-1127.0,1674.0,1265.0
13829,-185,1449,0,13615.0,12358.0,-160.0,-553.0,1646.0,1674.0
13028,-323,1340,0,13829.0,13615.0,-185.0,-160.0,1449.0,1646.0
11460,-232,1400,0,13028.0,13829.0,-323.0,-185.0,1340.0,1449.0
9652,107,1608,0,11460.0,13028.0,-232.0,-323.0,1400.0,1340.0
8104,456,1713,0,9652.0,11460.0,107.0,-232.0,1608.0,1400.0
7105,713,1645,0,8104.0,9652.0,456.0,107.0,1713.0,1608.0
6742,904,1516,0,7105.0,8104.0,713.0,456.0,1645.0,1713.0
6969,1102,1496,0,6742.0,7105.0,904.0,713.0,1516.0,1645.0
7587,1297,1591,0,6969.0,6742.0,1102.0,904.0,1496.0,1516.0
8396,1473,1784,0,7587.0,6969.0,1297.0,1102.0,1591.0,1496.0
9184,1623,1927,0,8396.0,7587.0,1473.0,1297.0,1784.0,1591.0
9801,1760,1998,0,9184.0,8396.0,1623.0,1473.0,1927.0,1784.0
10171,1919,2058,0,9801.0,9184.0,1760.0,1623.0,1998.0,1927.0
10307,2085,2089,0,10171.0,9801.0,1919.0,1760.0,2058.0,1998.0
10225,2276,2098,0,10307.0,10171.0,2085.0,1919.0,2089.0,2058.0
9998,2494,2109,0,10225.0,10307.0,2276.0,2085.0,2098.0,2089.0
9710,2729,2135,0,9998.0,10225.0,2494.0,2276.0,2109.0,2098.0
9420,2968,2151,0,9710.0,9998.0,2729.0,2494.0,2135.0,2109.0
9167,3198,2159,0,9420.0,9710.0,2968.0,2729.0,2151.0,2135.0
8963,3439,2187,0,9167.0,9420.0,3198.0,2968.0,2159.0,2151.0
8805,3630,2214,0,8963.0,9167.0,3439.0,3198.0,2187.0,2159.0
8692,3730,2217,0,8805.0,8963.0,3630.0,3439.0,2214.0,2187.0
8586,3731,2185,0,8692.0,8805.0,3730.0,3630.0,2217.0,2214.0
8474,3661,2125,0,8586.0,8692.0,3731.0,3730.0,2185.0,2217.0
8332,3577,2048,0,8474.0,8586.0,3661.0,3731.0,2125.0,2185.0
8164,3507,1982,0,8332.0,8474.0,3577.0,3661.0,2048.0,2125.0
7970,3456,1913,0,8164.0,8332.0,3507.0,3577.0,1982.0,2048.0
7762,3399,1826,0,7970.0,8164.0,3456.0,3507.0,1913.0,1982.0
7552,3298,1716,0,7762.0,7970.0,3399.0,3456.0,1826.0,1913.0
7336,3188,1603,0,7552.0,7762.0,3298.0,3399.0,1716.0,1826.0
7097,3087,1500,0,7336.0,7552.0,3188.0,3298.0,1603.0,1716.0
6823,2997,1410,0,7097.0,7336.0,3087.0,3188.0,1500.0,1603.0
6518,2888,1306,0,6823.0,7097.0,2997.0,3087.0,1410.0,1500.0
6175,2755,1220,0,6518.0,6823.0,2888.0,2997.0,1306.0,1410.0
5802,2608,1144,0,6175.0,6518.0,2755.0,2888.0,1220.0,1306.0
5401,2458,1096,0,5802.0,6175.0,2608.0,2755.0,1144.0,1220.0
4987,2288,1040,0,5401.0,5802.0,2458.0,2608.0,1096.0,1144.0
4606,2069,978,0,4987.0,5401.0,2288.0,2458.0,1040.0,1096.0
4274,1779,925,0,4606.0,4987.0,2069.0,2288.0,978.0,1040.0
3990,1463,867,0,4274.0,4606.0,1779.0,2069.0,925.0,978.0
3761,1166,805,0,3990.0,4274.0,1463.0,1779.0,867.0,925.0
3606,926,734,0,3761.0,3990.0,1166.0,1463.0,805.0,867.0
3505,763,683,0,3606.0,3761.0,926.0,1166.0,734.0,805.0
3426,662,592,0,3505.0,3606.0,763.0,926.0,683.0,734.0
3354,606,446,0,3426.0,3505.0,662.0,763.0,592.0,683.0
3266,576,232,0,3354.0,3426.0,606.0,662.0,446.0,592.0
3159,527,-48,0,3266.0,3354.0,576.0,606.0,232.0,446.0
3034,433,-370,0,3159.0,3266.0,527.0,576.0,-48.0,232.0
2827,315,-634,0,3034.0,3159.0,433.0,527.0,-370.0,-48.0
2529,221,-769,0,2827.0,3034.0,315.0,433.0,-634.0,-370.0
2171,159,-770,0,2529.0,2827.0,221.0,315.0,-769.0,-634.0
1793,105,-688,0,2171.0,2529.0,159.0,221.0,-770.0,-769.0
1415,9,-645,0,1793.0,2171.0,105.0,159.0,-688.0,-770.0
1076,-147,-666,0,1415.0,1793.0,9.0,105.0,-645.0,-688.0
778,-305,-704,0,1076.0,1415.0,-147.0,9.0,-666.0,-645.0
487,-416,-782,0,778.0,1076.0,-305.0,-147.0,-704.0,-666.0
197,-478,-871,0,487.0,778.0,-416.0,-305.0,-782.0,-704.0
-115,-547,-979,0,197.0,487.0,-478.0,-416.0,-871.0,-782.0
-444,-658,-1065,0,-115.0,197.0,-547.0,-478.0,-979.0,-871.0
-778,-800,-1083,0,-444.0,-115.0,-658.0,-547.0,-1065.0,-979.0
-1087,-961,-1042,0,-778.0,-444.0,-800.0,-658.0,-1083.0,-1065.0
-1381,-1118,-973,0,-1087.0,-778.0,-961.0,-800.0,-1042.0,-1083.0
-1631,-1260,-903,0,-1381.0,-1087.0,-1118.0,-961.0,-973.0,-1042.0
-1846,-1387,-853,0,-1631.0,-1381.0,-1260.0,-1118.0,-903.0,-973.0
-2022,-1512,-818,0,-1846.0,-1631.0,-1387.0,-1260.0,-853.0,-903.0
-2152,-1597,-761,0,-2022.0,-1846.0,-1512.0,-1387.0,-818.0,-853.0
-2234,-1644,-722,0,-2152.0,-2022.0,-1597.0,-1512.0,-761.0,-818.0
-2255,-1654,-698,0,-2234.0,-2152.0,-1644.0,-1597.0,-722.0,-761.0
-2200,-1605,-657,0,-2255.0,-2234.0,-1654.0,-1644.0,-698.0,-722.0
-2087,-1488,-640,0,-2200.0,-2255.0,-1605.0,-1654.0,-657.0,-698.0
-1908,-1309,-639,0,-2087.0,-2200.0,-1488.0,-1605.0,-640.0,-657.0
-1675,-1087,-661,0,-1908.0,-2087.0,-1309.0,-1488.0,-639.0,-640.0
-1397,-838,-675,0,-1675.0,-1908.0,-1087.0,-1309.0,-661.0,-639.0
-1075,-607,-668,0,-1397.0,-1675.0,-838.0,-1087.0,-675.0,-661.0
-747,-421,-654,0,-1075.0,-1397.0,-607.0,-838.0,-668.0,-675.0
-403,-265,-612,0,-747.0,-1075.0,-421.0,-607.0,-654.0,-668.0
-61,-142,-566,0,-403.0,-747.0,-265.0,-421.0,-612.0,-654.0
267,-65,-491,0,-61.0,-403.0,-142.0,-265.0,-566.0,-612.0
528,18,-425,0,267.0,-61.0,-65.0,-142.0,-491.0,-566.0
734,133,-333,0,528.0,267.0,18.0,-65.0,-425.0,-491.0
888,258,-236,0,734.0,528.0,133.0,18.0,-333.0,-425.0
986,363,-153,0,888.0,734.0,258.0,133.0,-236.0,-333.0
1040,473,-53,0,986.0,888.0,363.0,258.0,-153.0,-236.0
1063,571,62,0,1040.0,986.0,473.0,363.0,-53.0,-153.0
1050,631,181,0,1063.0,1040.0,571.0,473.0,62.0,-53.0
984,631,444,0,1050.0,1063.0,631.0,571.0,181.0,62.0
968,512,1066,0,984.0,1050.0,631.0,631.0,444.0,181.0
1087,168,1710,0,968.0,984.0,512.0,631.0,1066.0,444.0
1262,-478,1703,0,1087.0,968.0,168.0,512.0,1710.0,1066.0
1399,-1163,1098,0,1262.0,1087.0,-478.0,168.0,1703.0,1710.0
1444,-1221,469,0,1399.0,1262.0,-1163.0,-478.0,1098.0,1703.0
1400,-494,389,0,1444.0,1399.0,-1221.0,-1163.0,469.0,1098.0
1508,253,733,0,1400.0,1444.0,-494.0,-1221.0,389.0,469.0
1787,574,1116,0,1508.0,1400.0,253.0,-494.0,733.0,389.0
2295,468,1533,0,1787.0,1508.0,574.0,253.0,1116.0,733.0
3091,138,1841,0,2295.0,1787.0,468.0,574.0,1533.0,1116.0
4201,-276,1941,0,3091.0,2295.0,138.0,468.0,1841.0,1533.0
5604,-567,1899,0,4201.0,3091.0,-276.0,138.0,1941.0,1841.0
7253,-799,1624,0,5604.0,4201.0,-567.0,-276.0,1899.0,1941.0
8841,-744,1125,0,7253.0,5604.0,-799.0,-567.0,1624.0,1899.0
10246,-209,902,0,8841.0,7253.0,-744.0,-799.0,1125.0,1624.0
11503,491,1184,0,10246.0,8841.0,-209.0,-744.0,902.0,1125.0
12297,902,1486,0,11503.0,10246.0,491.0,-209.0,1184.0,902.0
12353,858,1593,0,12297.0,11503.0,902.0,491.0,1486.0,1184.0
11514,618,1674,0,12353.0,12297.0,858.0,902.0,1593.0,1486.0
9840,518,1882,0,11514.0,12353.0,618.0,858.0,1674.0,1593.0
7748,611,1985,0,9840.0,11514.0,518.0,618.0,1882.0,1674.0
5781,860,1894,0,7748.0,9840.0,611.0,518.0,1985.0,1882.0
4371,1039,1694,0,5781.0,7748.0,860.0,611.0,1894.0,1985.0
3596,1050,1407,0,4371.0,5781.0,1039.0,860.0,1694.0,1894.0
3368,974,1183,0,3596.0,4371.0,1050.0,1039.0,1407.0,1694.0
3646,863,1120,0,3368.0,3596.0,974.0,1050.0,1183.0,1407.0
4334,812,1199,0,3646.0,3368.0,863.0,974.0,1120.0,1183.0
5323,907,1452,0,4334.0,3646.0,812.0,863.0,1199.0,1120.0
6403,1111,1761,0,5323.0,4334.0,907.0,812.0,1452.0,1199.0
7384,1334,1956,0,6403.0,5323.0,1111.0,907.0,1761.0,1452.0
8201,1563,2045,0,7384.0,6403.0,1334.0,1111.0,1956.0,1761.0
8764,1835,2064,0,8201.0,7384.0,1563.0,1334.0,2045.0,1956.0
9018,2118,2023,0,8764.0,8201.0,1835.0,1563.0,2064.0,2045.0
8982,2391,1951,0,9018.0,8764.0,2118.0,1835.0,2023.0,2064.0
8702,2679,1835,0,8982.0,9018.0,2391.0,2118.0,1951.0,2023.0
8272,2967,1683,0,8702.0,8982.0,2679.0,2391.0,1835.0,1951.0
7817,3211,1585,0,8272.0,8702.0,2967.0,2679.0,1683.0,1835.0
7475,3420,1563,0,7817.0,8272.0,3211.0,2967.0,1585.0,1683.0
7266,3589,1577,0,7475.0,7817.0,3420.0,3211.0,1563.0,1585.0
7187,3686,1558,0,7266.0,7475.0,3589.0,3420.0,1577.0,1563.0
7182,3735,1509,0,7187.0,7266.0,3686.0,3589.0,1558.0,1577.0
7194,3717,1431,0,7182.0,7187.0,3735.0,3686.0,1509.0,1558.0
7186,3610,1344,0,7194.0,7182.0,3717.0,3735.0,1431.0,1509.0
7145,3427,1254,0,7186.0,7194.0,3610.0,3717.0,1344.0,1431.0
7070,3202,1163,0,7145.0,7186.0,3427.0,3610.0,1254.0,1344.0
6956,2939,1069,0,7070.0,7145.0,3202.0,3427.0,1163.0,1254.0
6799,2667,999,0,6956.0,7070.0,2939.0,3202.0,1069.0,1163.0
6632,2397,946,0,6799.0,6956.0,2667.0,2939.0,999.0,1069.0
6469,2172,907,0,6632.0,6799.0,2397.0,2667.0,946.0,999.0
6323,1984,883,0,6469.0,6632.0,2172.0,2397.0,907.0,946.0
6189,1844,877,0,6323.0,6469.0,1984.0,2172.0,883.0,907.0
6060,1754,885,0,6189.0,6323.0,1844.0,1984.0,877.0,883.0
5960,1698,875,0,6060.0,6189.0,1754.0,1844.0,885.0,877.0
5856,1668,855,0,5960.0,6060.0,1698.0,1754.0,875.0,885.0
5768,1660,836,0,5856.0,5960.0,1668.0,1698.0,855.0,875.0
5651,1650,793,0,5768.0,5856.0,1660.0,1668.0,836.0,855.0
5516,1635,764,0,5651.0,5768.0,1650.0,1660.0,793.0,836.0
5341,1621,758,0,5516.0,5651.0,1635.0,1650.0,764.0,793.0
5066,1578,741,0,5341.0,5516.0,1621.0,1635.0,758.0,764.0
4796,1538,786,0,5066.0,5341.0,1578.0,1621.0,741.0,758.0
4511,1452,823,0,4796.0,5066.0,1538.0,1578.0,786.0,741.0
4227,1329,865,0,4511.0,4796.0,1452.0,1538.0,823.0,786.0
3965,1229,945,0,4227.0,4511.0,1329.0,1452.0,865.0,823.0
3740,1136,1028,0,3965.0,4227.0,1229.0,1329.0,945.0,865.0
3541,1021,1089,0,3740.0,3965.0,1136.0,1229.0,1028.0,945.0
3376,886,1135,0,3541.0,3740.0,1021.0,1136.0,1089.0,1028.0
3230,755,1176,0,3376.0,3541.0,886.0,1021.0,1135.0,1089.0
3078,653,1210,0,3230.0,3376.0,755.0,886.0,1176.0,1135.0
2938,609,1198,0,3078.0,3230.0,653.0,755.0,1210.0,1176.0
2786,599,1135,0,2938.0,3078.0,609.0,653.0,1198.0,1210.0
2621,617,1072,0,2786.0,2938.0,599.0,609.0,1135.0,1198.0
2421,658,979,0,2621.0,2786.0,617.0,599.0,1072.0,1135.0
2209,700,859,0,2421.0,2621.0,658.0,617.0,979.0,1072.0
1933,720,706,0,2209.0,2421.0,700.0,658.0,859.0,979.0
1656,722,585,0,1933.0,2209.0,720.0,700.0,706.0,859.0
1387,717,445,0,1656.0,1933.0,722.0,720.0,585.0,706.0
1064,671,219,0,1387.0,1656.0,717.0,722.0,445.0,585.0
722,624,6,0,1064.0,1387.0,671.0,717.0,219.0,445.0
407,595,-130,0,722.0,1064.0,624.0,671.0,6.0,219.0
126,557,-209,0,407.0,722.0,595.0,624.0,-130.0,6.0
-134,531,-265,0,126.0,407.0,557.0,595.0,-209.0,-130.0
-394,508,-334,0,-134.0,126.0,531.0,557.0,-265.0,-209.0
-609,543,-364,0,-394.0,-134.0,508.0,531.0,-334.0,-265.0
-788,599,-388,0,-609.0,-394.0,543.0,508.0,-364.0,-334.0
-946,681,-387,0,-788.0,-609.0,599.0,543.0,-388.0,-364.0
-1081,761,-353,0,-946.0,-788.0,681.0,599.0,-387.0,-388.0
-1197,816,-296,0,-1081.0,-946.0,761.0,681.0,-353.0,-387.0
-1297,828,-205,0,-1197.0,-1081.0,816.0,761.0,-296.0,-353.0
-1374,793,-79,0,-1297.0,-1197.0,828.0,816.0,-205.0,-296.0
-1451,752,-21,0,-1374.0,-1297.0,793.0,828.0,-79.0,-205.0
-1532,719,-22,0,-1451.0,-1374.0,752.0,793.0,-21.0,-79.0
-1589,667,-55,0,-1532.0,-1451.0,719.0,752.0,-22.0,-21.0
-1612,570,-115,0,-1589.0,-1532.0,667.0,719.0,-55.0,-22.0
-1591,445,-199,0,-1612.0,-1589.0,570.0,667.0,-115.0,-55.0
-1539,321,-270,0,-1591.0,-1612.0,445.0,570.0,-199.0,-115.0
-1452,227,-332,0,-1539.0,-1591.0,321.0,445.0,-270.0,-199.0
-1340,174,-364,0,-1452.0,-1539.0,227.0,321.0,-332.0,-270.0
-1209,167,-369,0,-1340.0,-1452.0,174.0,227.0,-364.0,-332.0
-1054,160,-358,0,-1209.0,-1340.0,167.0,174.0,-369.0,-364.0
-892,145,-389,0,-1054.0,-1209.0,160.0,167.0,-358.0,-369.0
-744,113,-500,0,-892.0,-1054.0,145.0,160.0,-389.0,-358.0
-606,39,-664,0,-744.0,-892.0,113.0,145.0,-500.0,-389.0
-472,-103,-858,0,-606.0,-744.0,39.0,113.0,-664.0,-500.0
-326,-304,-1029,0,-472.0,-606.0,-103.0,39.0,-858.0,-664.0
-143,-527,-1090,0,-326.0,-472.0,-304.0,-103.0,-1029.0,-858.0
80,-690,-987,0,-143.0,-326.0,-527.0,-304.0,-1090.0,-1029.0
324,-760,-815,0,80.0,-143.0,-690.0,-527.0,-987.0,-1090.0
588,-770,-595,0,324.0,80.0,-760.0,-690.0,-815.0,-987.0
885,-831,-354,0,588.0,324.0,-770.0,-760.0,-595.0,-815.0
1229,-999,-131,0,885.0,588.0,-831.0,-770.0,-354.0,-595.0
1618,-1255,30,0,1229.0,885.0,-999.0,-831.0,-131.0,-354.0
2058,-1534,118,0,1618.0,1229.0,-1255.0,-999.0,30.0,-131.0
2598,-1770,203,0,2058.0,1618.0,-1534.0,-1255.0,118.0,30.0
3282,-1937,365,0,2598.0,2058.0,-1770.0,-1534.0,203.0,118.0
4139,-2010,574,0,3282.0,2598.0,-1937.0,-1770.0,365.0,203.0
5347,-2014,758,0,4139.0,3282.0,-2010.0,-1937.0,574.0,365.0
7201,-2041,964,0,5347.0,4139.0,-2014.0,-2010.0,758.0,574.0
9899,-2281,1184,0,7201.0,5347.0,-2041.0,-2014.0,964.0,758.0
12973,-2687,1174,0,9899.0,7201.0,-2281.0,-2041.0,1184.0,964.0
15646,-2955,1030,0,12973.0,9899.0,-2687.0,-2281.0,1174.0,1184.0
17505,-2815,1190,0,15646.0,12973.0,-2955.0,-2687.0,1030.0,1174.0
17608,-2552,1003,0,17505.0,15646.0,-2815.0,-2955.0,1190.0,1030.0
16078,-2034,1030,0,17608.0,17505.0,-2552.0,-2815.0,1003.0,1190.0
13329,-1118,1436,0,16078.0,17608.0,-2034.0,-2552.0,1030.0,1003.0
10159,-175,1848,0,13329.0,16078.0,-1118.0,-2034.0,1436.0,1030.0
7494,391,1834,0,10159.0,13329.0,-175.0,-1118.0,1848.0,1436.0
5865,701,1507,0,7494.0,10159.0,391.0,-175.0,1834.0,1848.0
5352,1066,1310,0,5865.0,7494.0,701.0,391.0,1507.0,1834.0
5689,1539,1343,0,5352.0,5865.0,1066.0,701.0,1310.0,1507.0
6559,2038,1550,0,5689.0,5352.0,1539.0,1066.0,1343.0,1310.0
7674,2446,1782,0,6559.0,5689.0,2038.0,1539.0,1550.0,1343.0
8791,2706,1885,0,7674.0,6559.0,2446.0,2038.0,1782.0,1550.0
9717,2877,1967,0,8791.0,7674.0,2706.0,2446.0,1885.0,1782.0
10317,3030,1975,0,9717.0,8791.0,2877.0,2706.0,1967.0,1885.0
10513,3172,1907,0,10317.0,9717.0,3030.0,2877.0,1975.0,1967.0
10399,3277,1833,0,10513.0,10317.0,3172.0,3030.0,1907.0,1975.0
10094,3311,1791,0,10399.0,10513.0,3277.0,3172.0,1833.0,1907.0
9690,3302,1789,0,10094.0,10399.0,3311.0,3277.0,1791.0,1833.0
9244,3261,1803,0,9690.0,10094.0,3302.0,3311.0,1789.0,1791.0
8843,3197,1803,0,9244.0,9690.0,3261.0,3302.0,1803.0,1789.0
8546,3129,1818,0,8843.0,9244.0,3197.0,3261.0,1803.0,1803.0
8388,3012,1847,0,8546.0,8843.0,3129.0,3197.0,1818.0,1803.0
8338,2825,1889,0,8388.0,8546.0,3012.0,3129.0,1847.0,1818.0
8313,2585,1912,0,8338.0,8388.0,2825.0,3012.0,1889.0,1847.0
8250,2322,1890,0,8313.0,8338.0,2585.0,2825.0,1912.0,1889.0
8112,2078,1874,0,8250.0,8313.0,2322.0,2585.0,1890.0,1912.0
7934,1835,1861,0,8112.0,8250.0,2078.0,2322.0,1874.0,1890.0
7728,1586,1835,0,7934.0,8112.0,1835.0,2078.0,1861.0,1874.0
7487,1345,1794,0,7728.0,7934.0,1586.0,1835.0,1835.0,1861.0
7224,1136,1751,0,7487.0,7728.0,1345.0,1586.0,1794.0,1835.0
6963,993,1736,0,7224.0,7487.0,1136.0,1345.0,1751.0,1794.0
6676,922,1747,0,6963.0,7224.0,993.0,1136.0,1736.0,1751.0
6359,895,1744,0,6676.0,6963.0,922.0,993.0,1747.0,1736.0
6014,920,1706,0,6359.0,6676.0,895.0,922.0,1744.0,1747.0
5639,975,1648,0,6014.0,6359.0,920.0,895.0,1706.0,1744.0
5237,1036,1576,0,5639.0,6014.0,975.0,920.0,1648.0,1706.0
4844,1076,1468,0,5237.0,5639.0,1036.0,975.0,1576.0,1648.0
4473,1092,1334,0,4844.0,5237.0,1076.0,1036.0,1468.0,1576.0
4123,1099,1184,0,4473.0,4844.0,1092.0,1076.0,1334.0,1468.0
3820,1051,1035,0,4123.0,4473.0,1099.0,1092.0,1184.0,1334.0
3573,944,855,0,3820.0,4123.0,1051.0,1099.0,1035.0,1184.0
3371,809,664,0,3573.0,3820.0,944.0,1051.0,855.0,1035.0
3187,672,474,0,3371.0,3573.0,809.0,944.0,664.0,855.0
3014,562,312,0,3187.0,3371.0,672.0,809.0,474.0,664.0
2808,486,212,0,3014.0,3187.0,562.0,672.0,312.0,474.0
2559,429,147,0,2808.0,3014.0,486.0,562.0,212.0,312.0
2281,352,112,0,2559.0,2808.0,429.0,486.0,147.0,212.0
1977,252,88,0,2281.0,2559.0,352.0,429.0,112.0,147.0
1661,140,84,0,1977.0,2281.0,252.0,352.0,88.0,112.0
1352,57,84,0,1661.0,1977.0,140.0,252.0,84.0,88.0
1048,-14,72,0,1352.0,1661.0,57.0,140.0,84.0,84.0
760,-64,59,0,1048.0,1352.0,-14.0,57.0,72.0,84.0
473,-94,38,0,760.0,1048.0,-64.0,-14.0,59.0,72.0
180,-140,-41,0,473.0,760.0,-94.0,-64.0,38.0,59.0
-124,-214,-154,0,180.0,473.0,-140.0,-94.0,-41.0,38.0
-449,-280,-262,0,-124.0,180.0,-214.0,-140.0,-154.0,-41.0
-793,-340,-334,0,-449.0,-124.0,-280.0,-214.0,-262.0,-154.0
-1126,-375,-357,0,-793.0,-449.0,-340.0,-280.0,-334.0,-262.0
-1452,-405,-340,0,-1126.0,-793.0,-375.0,-340.0,-357.0,-334.0
-1756,-427,-287,0,-1452.0,-1126.0,-405.0,-375.0,-340.0,-357.0
-2032,-462,-233,0,-1756.0,-1452.0,-427.0,-405.0,-287.0,-340.0
-2259,-510,-165,0,-2032.0,-1756.0,-462.0,-427.0,-233.0,-287.0
-2426,-585,-114,0,-2259.0,-2032.0,-510.0,-462.0,-165.0,-233.0
-2525,-656,-93,0,-2426.0,-2259.0,-585.0,-510.0,-114.0,-165.0
-2552,-736,-112,0,-2525.0,-2426.0,-656.0,-585.0,-93.0,-114.0
-2513,-822,-159,0,-2552.0,-2525.0,-736.0,-656.0,-112.0,-93.0
-2413,-885,-207,0,-2513.0,-2552.0,-822.0,-736.0,-159.0,-112.0
-2262,-929,-284,0,-2413.0,-2513.0,-885.0,-822.0,-207.0,-159.0
-2060,-947,-357,0,-2262.0,-2413.0,-929.0,-885.0,-284.0,-207.0
-1826,-937,-436,0,-2060.0,-2262.0,-947.0,-929.0,-357.0,-284.0
-1588,-902,-506,0,-1826.0,-2060.0,-937.0,-947.0,-436.0,-357.0
-1330,-847,-559,0,-1588.0,-1826.0,-902.0,-937.0,-506.0,-436.0
-1053,-769,-592,0,-1330.0,-1588.0,-847.0,-902.0,-559.0,-506.0
-765,-666,-596,0,-1053.0,-1330.0,-769.0,-847.0,-592.0,-559.0
-462,-542,-573,0,-765.0,-1053.0,-666.0,-769.0,-596.0,-592.0
-166,-399,-533,0,-462.0,-765.0,-542.0,-666.0,-573.0,-596.0
117,-249,-495,0,-166.0,-462.0,-399.0,-542.0,-533.0,-573.0
367,-121,-464,0,117.0,-166.0,-249.0,-399.0,-495.0,-533.0
586,2,-442,0,367.0,117.0,-121.0,-249.0,-464.0,-495.0
774,132,-417,0,586.0,367.0,2.0,-121.0,-442.0,-464.0
924,291,-374,0,774.0,586.0,132.0,2.0,-417.0,-442.0
1042,446,-331,0,924.0,774.0,291.0,132.0,-374.0,-417.0
1125,571,-289,0,1042.0,924.0,446.0,291.0,-331.0,-374.0
1174,695,-199,0,1125.0,1042.0,571.0,446.0,-289.0,-331.0
1177,830,-68,0,1174.0,1125.0,695.0,571.0,-199.0,-289.0
1131,955,110,0,1177.0,1174.0,830.0,695.0,-68.0,-199.0
1053,1038,378,0,1131.0,1177.0,955.0,830.0,110.0,-68.0
929,1054,778,0,1053.0,1131.0,1038.0,955.0,378.0,110.0
798,951,1385,0,929.0,1053.0,1054.0,1038.0,778.0,378.0
760,602,2192,0,798.0,929.0,951.0,1054.0,1385.0,778.0
815,-129,2646,0,760.0,798.0,602.0,951.0,2192.0,1385.0
945,-1127,2332,0,815.0,760.0,-129.0,602.0,2646.0,2192.0
1128,-1795,1582,0,945.0,815.0,-1127.0,-129.0,2332.0,2646.0
1288,-1650,977,0,1128.0,945.0,-1795.0,-1127.0,1582.0,2332.0
1559,-1121,909,0,1288.0,1128.0,-1650.0,-1795.0,977.0,1582.0
2052,-812,1259,0,1559.0,1288.0,-1121.0,-1650.0,909.0,977.0
2770,-875,1476,0,2052.0,1559.0,-812.0,-1121.0,1259.0,909.0
3753,-1027,1452,0,2770.0,2052.0,-875.0,-812.0,1476.0,1259.0
4952,-1013,1244,0,3753.0,2770.0,-1027.0,-875.0,1452.0,1476.0
6288,-881,924,0,4952.0,3753.0,-1013.0,-1027.0,1244.0,1452.0
7771,-833,554,0,6288.0,4952.0,-881.0,-1013.0,924.0,1244.0
9266,-762,365,0,7771.0,6288.0,-833.0,-881.0,554.0,924.0
10696,-451,565,0,9266.0,7771.0,-762.0,-833.0,365.0,554.0
11964,-78,925,0,10696.0,9266.0,-451.0,-762.0,565.0,365.0
12697,192,1083,0,11964.0,10696.0,-78.0,-451.0,925.0,565.0
12575,288,1045,0,12697.0,11964.0,192.0,-78.0,1083.0,925.0
11664,206,1077,0,12575.0,12697.0,288.0,192.0,1045.0,1083.0
10001,284,1221,0,11664.0,12575.0,206.0,288.0,1077.0,1045.0
7981,717,1360,0,10001.0,11664.0,284.0,206.0,1221.0,1077.0
6181,1257,1232,0,7981.0,10001.0,717.0,284.0,1360.0,1221.0
5029,1618,845,0,6181.0,7981.0,1257.0,717.0,1232.0,1360.0
4577,1646,566,0,5029.0,6181.0,1618.0,1257.0,845.0,1232.0
4802,1360,652,0,4577.0,5029.0,1646.0,1618.0,566.0,845.0
5501,1044,893,0,4802.0,4577.0,1360.0,1646.0,652.0,566.0
6384,976,1160,0,5501.0,4802.0,1044.0,1360.0,893.0,652.0
7255,1059,1341,0,6384.0,5501.0,976.0,1044.0,1160.0,893.0
7993,1127,1444,0,7255.0,6384.0,1059.0,976.0,1341.0,1160.0
8514,1234,1519,0,7993.0,7255.0,1127.0,1059.0,1444.0,1341.0
8779,1415,1499,0,8514.0,7993.0,1234.0,1127.0,1519.0,1444.0
8809,1641,1413,0,8779.0,8514.0,1415.0,1234.0,1499.0,1519.0
8680,1904,1311,0,8809.0,8779.0,1641.0,1415.0,1413.0,1499.0
8485,2209,1266,0,8680.0,8809.0,1904.0,1641.0,1311.0,1413.0
8320,2532,1276,0,8485.0,8680.0,2209.0,1904.0,1266.0,1311.0
8191,2872,1306,0,8320.0,8485.0,2532.0,2209.0,1276.0,1266.0
8113,3166,1352,0,8191.0,8320.0,2872.0,2532.0,1306.0,1276.0
8075,3363,1393,0,8113.0,8191.0,3166.0,2872.0,1352.0,1306.0
8031,3472,1377,0,8075.0,8113.0,3363.0,3166.0,1393.0,1352.0
7954,3516,1344,0,8031.0,8075.0,3472.0,3363.0,1377.0,1393.0
7848,3451,1313,0,7954.0,8031.0,3516.0,3472.0,1344.0,1377.0
7735,3262,1265,0,7848.0,7954.0,3451.0,3516.0,1313.0,1344.0
7612,3006,1174,0,7735.0,7848.0,3262.0,3451.0,1265.0,1313.0
7458,2762,1065,0,7612.0,7735.0,3006.0,3262.0,1174.0,1265.0
7282,2563,991,0,7458.0,7612.0,2762.0,3006.0,1065.0,1174.0
7069,2384,967,0,7282.0,7458.0,2563.0,2762.0,991.0,1065.0
6877,2143,921,0,7069.0,7282.0,2384.0,2563.0,967.0,991.0
6681,1923,889,0,6877.0,7069.0,2143.0,2384.0,921.0,967.0
6488,1757,862,0,6681.0,6877.0,1923.0,2143.0,889.0,921.0
6314,1633,856,0,6488.0,6681.0,1757.0,1923.0,862.0,889.0
6130,1560,873,0,6314.0,6488.0,1633.0,1757.0,856.0,862.0
5952,1525,925,0,6130.0,6314.0,1560.0,1633.0,873.0,856.0
5770,1498,985,0,5952.0,6130.0,1525.0,1560.0,925.0,873.0
5587,1476,1005,0,5770.0,5952.0,1498.0,1525.0,985.0,925.0
5399,1464,971,0,5587.0,5770.0,1476.0,1498.0,1005.0,985.0
5186,1482,947,0,5399.0,5587.0,1464.0,1476.0,971.0,1005.0
4917,1495,932,0,5186.0,5399.0,1482.0,1464.0,947.0,971.0
4628,1476,926,0,4917.0,5186.0,1495.0,1482.0,932.0,947.0
4339,1451,936,0,4628.0,4917.0,1476.0,1495.0,926.0,932.0
4042,1459,962,0,4339.0,4628.0,1451.0,1476.0,936.0,926.0
3715,1480,963,0,4042.0,4339.0,1459.0,1451.0,962.0,936.0
3429,1504,982,0,3715.0,4042.0,1480.0,1459.0,963.0,962.0
3176,1515,980,0,3429.0,3715.0,1504.0,1480.0,982.0,963.0
2960,1498,946,0,3176.0,3429.0,1515.0,1504.0,980.0,982.0
2757,1473,937,0,2960.0,3176.0,1498.0,1515.0,946.0,980.0
2586,1452,966,0,2757.0,2960.0,1473.0,1498.0,937.0,946.0
2448,1422,1012,0,2586.0,2757.0,1452.0,1473.0,966.0,937.0
2333,1381,1040,0,2448.0,2586.0,1422.0,1452.0,1012.0,966.0
2217,1339,1042,0,2333.0,2448.0,1381.0,1422.0,1040.0,1012.0
2089,1306,1049,0,2217.0,2333.0,1339.0,1381.0,1042.0,1040.0
1938,1232,1057,0,2089.0,2217.0,1306.0,1339.0,1049.0,1042.0
1763,1160,1082,0,1938.0,2089.0,1232.0,1306.0,1057.0,1049.0
1595,1101,1037,0,1763.0,1938.0,1160.0,1232.0,1082.0,1057.0
1386,1052,825,0,1595.0,1763.0,1101.0,1160.0,1037.0,1082.0
1163,986,614,0,1386.0,1595.0,1052.0,1101.0,825.0,1037.0
974,959,534,0,1163.0,1386.0,986.0,1052.0,614.0,825.0
782,918,487,0,974.0,1163.0,959.0,986.0,534.0,614.0
553,851,374,0,782.0,974.0,918.0,959.0,487.0,534.0
324,785,202,0,553.0,782.0,851.0,918.0,374.0,487.0
102,703,8,0,324.0,553.0,785.0,851.0,202.0,374.0
-120,633,-144,0,102.0,324.0,703.0,785.0,8.0,202.0
-318,572,-210,0,-120.0,102.0,633.0,703.0,-144.0,8.0
-446,520,-201,0,-318.0,-120.0,572.0,633.0,-210.0,-144.0
-541,452,-189,0,-446.0,-318.0,520.0,572.0,-201.0,-210.0
-636,394,-184,0,-541.0,-446.0,452.0,520.0,-189.0,-201.0
-717,339,-155,0,-636.0,-541.0,394.0,452.0,-184.0,-189.0
-781,251,-82,0,-717.0,-636.0,339.0,394.0,-155.0,-184.0
-848,132,16,0,-781.0,-717.0,251.0,339.0,-82.0,-155.0
-901,-33,108,0,-848.0,-781.0,132.0,251.0,16.0,-82.0
-950,-218,172,0,-901.0,-848.0,-33.0,132.0,108.0,16.0
-1001,-404,173,0,-950.0,-901.0,-218.0,-33.0,172.0,108.0
-1039,-575,132,0,-1001.0,-950.0,-404.0,-218.0,173.0,172.0
-1050,-746,83,0,-1039.0,-1001.0,-575.0,-404.0,132.0,173.0
-1041,-909,47,0,-1050.0,-1039.0,-746.0,-575.0,83.0,132.0
-1008,-1051,49,0,-1041.0,-1050.0,-909.0,-746.0,47.0,83.0
-949,-1171,93,0,-1008.0,-1041.0,-1051.0,-909.0,49.0,47.0
-878,-1250,121,0,-949.0,-1008.0,-1171.0,-1051.0,93.0,49.0
-822,-1276,106,0,-878.0,-949.0,-1250.0,-1171.0,121.0,93.0
-778,-1244,59,0,-822.0,-878.0,-1276.0,-1250.0,106.0,121.0
-739,-1159,-18,0,-778.0,-822.0,-1244.0,-1276.0,59.0,106.0
-684,-1058,-63,0,-739.0,-778.0,-1159.0,-1244.0,-18.0,59.0
-615,-950,-48,0,-684.0,-739.0,-1058.0,-1159.0,-63.0,-18.0
-531,-854,-10,0,-615.0,-684.0,-950.0,-1058.0,-48.0,-63.0
-452,-774,62,0,-531.0,-615.0,-854.0,-950.0,-10.0,-48.0
-374,-707,165,0,-452.0,-531.0,-774.0,-854.0,62.0,-10.0
-302,-643,266,0,-374.0,-452.0,-707.0,-774.0,165.0,62.0
-244,-587,290,0,-302.0,-374.0,-643.0,-707.0,266.0,165.0
-204,-548,57,0,-244.0,-302.0,-587.0,-643.0,290.0,266.0
-173,-526,-420,0,-204.0,-244.0,-548.0,-587.0,57.0,290.0
-102,-542,-980,0,-173.0,-204.0,-526.0,-548.0,-420.0,57.0
69,-570,-1339,0,-102.0,-173.0,-542.0,-526.0,-980.0,-420.0
382,-604,-1155,0,69.0,-102.0,-570.0,-542.0,-1339.0,-980.0
743,-598,-624,0,382.0,69.0,-604.0,-570.0,-1155.0,-1339.0
1084,-543,-154,0,743.0,382.0,-598.0,-604.0,-624.0,-1155.0
1462,-550,160,0,1084.0,743.0,-543.0,-598.0,-154.0,-624.0
1973,-765,356,0,1462.0,1084.0,-550.0,-543.0,160.0,-154.0
2666,-1221,701,0,1973.0,1462.0,-765.0,-550.0,356.0,160.0
3550,-1731,1363,0,2666.0,1973.0,-1221.0,-765.0,701.0,356.0
4708,-1946,2130,0,3550.0,2666.0,-1731.0,-1221.0,1363.0,701.0
6347,-1786,2585,0,4708.0,3550.0,-1946.0,-1731.0,2130.0,1363.0
8677,-1530,2487,0,6347.0,4708.0,-1786.0,-1946.0,2585.0,2130.0
11776,-1472,2216,0,8677.0,6347.0,-1530.0,-1786.0,2487.0,2585.0
15332,-1787,1783,0,11776.0,8677.0,-1472.0,-1530.0,2216.0,2487.0
18788,-1788,2081,0,15332.0,11776.0,-1787.0,-1472.0,1783.0,2216.0
20075,-2299,1722,0,18788.0,15332.0,-1788.0,-1787.0,2081.0,1783.0
18876,-2862,1583,0,20075.0,18788.0,-2299.0,-1788.0,1722.0,2081.0
15739,-2569,1878,0,18876.0,20075.0,-2862.0,-2299.0,1583.0,1722.0
11843,-1210,2611,0,15739.0,18876.0,-2569.0,-2862.0,1878.0,1583.0
8413,279,3207,0,11843.0,15739.0,-1210.0,-2569.0,2611.0,1878.0
6255,1160,3241,0,8413.0,11843.0,279.0,-1210.0,3207.0,2611.0
5464,1357,2864,0,6255.0,8413.0,1160.0,279.0,3241.0,3207.0
5668,1294,2494,0,5464.0,6255.0,1357.0,1160.0,2864.0,3241.0
6548,1214,2385,0,5668.0,5464.0,1294.0,1357.0,2494.0,2864.0
7729,1155,2532,0,6548.0,5668.0,1214.0,1294.0,2385.0,2494.0
8914,1088,2722,0,7729.0,6548.0,1155.0,1214.0,2532.0,2385.0
9829,1073,2757,0,8914.0,7729.0,1088.0,1155.0,2722.0,2532.0
10328,1125,2599,0,9829.0,8914.0,1073.0,1088.0,2757.0,2722.0
10425,1192,2358,0,10328.0,9829.0,1125.0,1073.0,2599.0,2757.0
10265,1272,2161,0,10425.0,10328.0,1192.0,1125.0,2358.0,2599.0
10020,1426,2099,0,10265.0,10425.0,1272.0,1192.0,2161.0,2358.0
9792,1598,2085,0,10020.0,10265.0,1426.0,1272.0,2099.0,2161.0
9587,1795,2048,0,9792.0,10020.0,1598.0,1426.0,2085.0,2099.0
9415,2000,1955,0,9587.0,9792.0,1795.0,1598.0,2048.0,2085.0
9238,2192,1798,0,9415.0,9587.0,2000.0,1795.0,1955.0,2048.0
9051,2383,1638,0,9238.0,9415.0,2192.0,2000.0,1798.0,1955.0
8852,2544,1547,0,9051.0,9238.0,2383.0,2192.0,1638.0,1798.0
8649,2623,1518,0,8852.0,9051.0,2544.0,2383.0,1547.0,1638.0
8408,2599,1542,0,8649.0,8852.0,2623.0,2544.0,1518.0,1547.0
8133,2487,1594,0,8408.0,8649.0,2599.0,2623.0,1542.0,1518.0
7815,2307,1699,0,8133.0,8408.0,2487.0,2599.0,1594.0,1542.0
7499,2112,1863,0,7815.0,8133.0,2307.0,2487.0,1699.0,1594.0
7192,1922,1961,0,7499.0,7815.0,2112.0,2307.0,1863.0,1699.0
6927,1697,1970,0,7192.0,7499.0,1922.0,2112.0,1961.0,1863.0
6704,1460,1903,0,6927.0,7192.0,1697.0,1922.0,1970.0,1961.0
6487,1260,1782,0,6704.0,6927.0,1460.0,1697.0,1903.0,1970.0
6255,1115,1632,0,6487.0,6704.0,1260.0,1460.0,1782.0,1903.0
5976,1020,1487,0,6255.0,6487.0,1115.0,1260.0,1632.0,1782.0
5623,985,1375,0,5976.0,6255.0,1020.0,1115.0,1487.0,1632.0
5208,962,1287,0,5623.0,5976.0,985.0,1020.0,1375.0,1487.0
4764,873,1192,0,5208.0,5623.0,962.0,985.0,1287.0,1375.0
4325,738,1082,0,4764.0,5208.0,873.0,962.0,1192.0,1287.0
3935,578,1006,0,4325.0,4764.0,738.0,873.0,1082.0,1192.0
3596,404,950,0,3935.0,4325.0,578.0,738.0,1006.0,1082.0
3289,214,848,0,3596.0,3935.0,404.0,578.0,950.0,1006.0
2990,33,681,0,3289.0,3596.0,214.0,404.0,848.0,950.0
2692,-110,505,0,2990.0,3289.0,33.0,214.0,681.0,848.0
2422,-227,352,0,2692.0,2990.0,-110.0,33.0,505.0,681.0
2170,-321,214,0,2422.0,2692.0,-227.0,-110.0,352.0,505.0
1942,-376,124,0,2170.0,2422.0,-321.0,-227.0,214.0,352.0
1744,-386,71,0,1942.0,2170.0,-376.0,-321.0,124.0,214.0
1561,-331,79,0,1744.0,1942.0,-386.0,-376.0,71.0,124.0
1385,-217,132,0,1561.0,1744.0,-331.0,-386.0,79.0,71.0
1233,-60,244,0,1385.0,1561.0,-217.0,-331.0,132.0,79.0
1104,18,327,0,1233.0,1385.0,-60.0,-217.0,244.0,132.0
989,-47,255,0,1104.0,1233.0,18.0,-60.0,327.0,244.0
900,-233,52,0,989.0,1104.0,-47.0,18.0,255.0,327.0
809,-405,-179,0,900.0,989.0,-233.0,-47.0,52.0,255.0
641,-437,-303,0,809.0,900.0,-405.0,-233.0,-179.0,52.0
407,-350,-277,0,641.0,809.0,-437.0,-405.0,-303.0,-179.0
169,-229,-231,0,407.0,641.0,-350.0,-437.0,-277.0,-303.0
-73,-114,-214,0,169.0,407.0,-229.0,-350.0,-231.0,-277.0
-318,-17,-199,0,-73.0,169.0,-114.0,-229.0,-214.0,-231.0
-574,100,-170,0,-318.0,-73.0,-17.0,-114.0,-199.0,-214.0
-863,216,-186,0,-574.0,-318.0,100.0,-17.0,-170.0,-199.0
-1179,341,-230,0,-863.0,-574.0,216.0,100.0,-186.0,-170.0
-1483,439,-292,0,-1179.0,-863.0,341.0,216.0,-230.0,-186.0
-1755,508,-363,0,-1483.0,-1179.0,439.0,341.0,-292.0,-230.0
-1983,555,-388,0,-1755.0,-1483.0,508.0,439.0,-363.0,-292.0
-2165,587,-370,0,-1983.0,-1755.0,555.0,508.0,-388.0,-363.0
-2304,604,-344,0,-2165.0,-1983.0,587.0,555.0,-370.0,-388.0
-2385,589,-337,0,-2304.0,-2165.0,604.0,587.0,-344.0,-370.0
-2415,556,-383,0,-2385.0,-2304.0,589.0,604.0,-337.0,-344.0
-2399,536,-463,0,-2415.0,-2385.0,556.0,589.0,-383.0,-337.0
-2325,529,-518,0,-2399.0,-2415.0,536.0,556.0,-463.0,-383.0
-2209,534,-546,0,-2325.0,-2399.0,529.0,536.0,-518.0,-463.0
-2033,539,-555,0,-2209.0,-2325.0,534.0,529.0,-546.0,-518.0
-1797,535,-565,0,-2033.0,-2209.0,539.0,534.0,-555.0,-546.0
-1523,518,-580,0,-1797.0,-2033.0,535.0,539.0,-565.0,-555.0
-1209,470,-570,0,-1523.0,-1797.0,518.0,535.0,-580.0,-565.0
-884,398,-554,0,-1209.0,-1523.0,470.0,518.0,-570.0,-580.0
-528,310,-537,0,-884.0,-1209.0,398.0,470.0,-554.0,-570.0
-204,223,-533,0,-528.0,-884.0,310.0,398.0,-537.0,-554.0
103,149,-484,0,-204.0,-528.0,223.0,310.0,-533.0,-537.0
367,133,-381,0,103.0,-204.0,149.0,223.0,-484.0,-533.0
605,157,-245,0,367.0,103.0,133.0,149.0,-381.0,-484.0
800,232,-97,0,605.0,367.0,157.0,133.0,-245.0,-381.0
947,378,75,0,800.0,605.0,232.0,157.0,-97.0,-245.0
1053,578,232,0,947.0,800.0,378.0,232.0,75.0,-97.0
1094,776,322,0,1053.0,947.0,578.0,378.0,232.0,75.0
1092,963,412,0,1094.0,1053.0,776.0,578.0,322.0,232.0
1051,1141,524,0,1092.0,1094.0,963.0,776.0,412.0,322.0
972,1308,679,0,1051.0,1092.0,1141.0,963.0,524.0,412.0
864,1438,901,0,972.0,1051.0,1308.0,1141.0,679.0,524.0
753,1468,1256,0,864.0,972.0,1438.0,1308.0,901.0,679.0
660,1291,1570,0,753.0,864.0,1468.0,1438.0,1256.0,901.0
625,767,1642,0,660.0,753.0,1291.0,1468.0,1570.0,1256.0
680,50,1408,0,625.0,660.0,767.0,1291.0,1642.0,1570.0
801,-497,1062,0,680.0,625.0,50.0,767.0,1408.0,1642.0
1017,-662,846,0,801.0,680.0,-497.0,50.0,1062.0,1408.0
1370,-575,730,0,1017.0,801.0,-662.0,-497.0,846.0,1062.0
1856,-469,565,0,1370.0,1017.0,-575.0,-662.0,730.0,846.0
2526,-468,444,0,1856.0,1370.0,-469.0,-575.0,565.0,730.0
3398,-532,540,0,2526.0,1856.0,-468.0,-469.0,444.0,565.0
4501,-557,820,0,3398.0,2526.0,-532.0,-468.0,540.0,444.0
5831,-488,1146,0,4501.0,3398.0,-557.0,-532.0,820.0,540.0
7483,-377,1311,0,5831.0,4501.0,-488.0,-557.0,1146.0,820.0
9558,-161,1215,0,7483.0,5831.0,-377.0,-488.0,1311.0,1146.0
11946,243,1075,0,9558.0,7483.0,-161.0,-377.0,1215.0,1311.0
14363,694,1160,0,11946.0,9558.0,243.0,-161.0,1075.0,1215.0
16388,1022,1417,0,14363.0,11946.0,694.0,243.0,1160.0,1075.0
17478,1034,1571,0,16388.0,14363.0,1022.0,694.0,1417.0,1160.0
17078,659,1701,0,17478.0,16388.0,1034.0,1022.0,1571.0,1417.0
15093,104,1932,0,17078.0,17478.0,659.0,1034.0,1701.0,1571.0
11900,-189,2069,0,15093.0,17078.0,104.0,659.0,1932.0,1701.0
8361,-5,1861,0,11900.0,15093.0,-189.0,104.0,2069.0,1932.0
5408,412,1135,0,8361.0,11900.0,-5.0,-189.0,1861.0,2069.0
3693,695,349,0,5408.0,8361.0,412.0,-5.0,1135.0,1861.0
3370,607,95,0,3693.0,5408.0,695.0,412.0,349.0,1135.0
4130,428,369,0,3370.0,3693.0,607.0,695.0,95.0,349.0
5349,563,846,0,4130.0,3370.0,428.0,607.0,369.0,95.0
6588,933,1217,0,5349.0,4130.0,563.0,428.0,846.0,369.0
7565,1281,1393,0,6588.0,5349.0,933.0,563.0,1217.0,846.0
8244,1447,1386,0,7565.0,6588.0,1281.0,933.0,1393.0,1217.0
8554,1449,1229,0,8244.0,7565.0,1447.0,1281.0,1386.0,1393.0
8554,1435,1067,0,8554.0,8244.0,1449.0,1447.0,1229.0,1386.0
8398,1541,978,0,8554.0,8554.0,1435.0,1449.0,1067.0,1229.0
8226,1794,891,0,8398.0,8554.0,1541.0,1435.0,978.0,1067.0
8134,2093,777,0,8226.0,8398.0,1794.0,1541.0,891.0,978.0
8197,2362,725,0,8134.0,8226.0,2093.0,1794.0,777.0,891.0
8416,2607,773,0,8197.0,8134.0,2362.0,2093.0,725.0,777.0
8656,2873,874,0,8416.0,8197.0,2607.0,2362.0,773.0,725.0
8811,3117,922,0,8656.0,8416.0,2873.0,2607.0,874.0,773.0
8826,3302,858,0,8811.0,8656.0,3117.0,2873.0,922.0,874.0
8729,3373,769,0,8826.0,8811.0,3302.0,3117.0,858.0,922.0
8556,3348,692,0,8729.0,8826.0,3373.0,3302.0,769.0,858.0
8346,3267,639,0,8556.0,8729.0,3348.0,3373.0,692.0,769.0
8116,3135,634,0,8346.0,8556.0,3267.0,3348.0,639.0,692.0
7861,2985,629,0,8116.0,8346.0,3135.0,3267.0,634.0,639.0
7603,2822,610,0,7861.0,8116.0,2985.0,3135.0,629.0,634.0
7348,2659,580,0,7603.0,7861.0,2822.0,2985.0,610.0,629.0
7120,2499,541,0,7348.0,7603.0,2659.0,2822.0,580.0,610.0
6900,2358,504,0,7120.0,7348.0,2499.0,2659.0,541.0,580.0
6686,2230,461,0,6900.0,7120.0,2358.0,2499.0,504.0,541.0
6460,2105,397,0,6686.0,6900.0,2230.0,2358.0,461.0,504.0
6219,1982,329,0,6460.0,6686.0,2105.0,2230.0,397.0,461.0
5963,1865,278,0,6219.0,6460.0,1982.0,2105.0,329.0,397.0
5699,1762,258,0,5963.0,6219.0,1865.0,1982.0,278.0,329.0
5408,1654,251,0,5699.0,5963.0,1762.0,1865.0,258.0,278.0
5115,1550,240,0,5408.0,5699.0,1654.0,1762.0,251.0,258.0
4841,1455,259,0,5115.0,5408.0,1550.0,1654.0,240.0,251.0
4554,1370,279,0,4841.0,5115.0,1455.0,1550.0,259.0,240.0
4290,1289,312,0,4554.0,4841.0,1370.0,1455.0,279.0,259.0
4045,1210,350,0,4290.0,4554.0,1289.0,1370.0,312.0,279.0
3815,1126,383,0,4045.0,4290.0,1210.0,1289.0,350.0,312.0
3594,1040,417,0,3815.0,4045.0,1126.0,1210.0,383.0,350.0
3367,986,467,0,3594.0,3815.0,1040.0,1126.0,417.0,383.0
3152,926,506,0,3367.0,3594.0,986.0,1040.0,467.0,417.0
2958,880,544,0,3152.0,3367.0,926.0,986.0,506.0,467.0
2790,878,615,0,2958.0,3152.0,880.0,926.0,544.0,506.0
2637,896,697,0,2790.0,2958.0,878.0,880.0,615.0,544.0
2500,894,751,0,2637.0,2790.0,896.0,878.0,697.0,615.0
2357,914,822,0,2500.0,2637.0,894.0,896.0,751.0,697.0
2191,956,890,0,2357.0,2500.0,914.0,894.0,822.0,751.0
2035,1015,898,0,2191.0,2357.0,956.0,914.0,890.0,822.0
1861,1095,868,0,2035.0,2191.0,1015.0,956.0,898.0,890.0
1683,1161,839,0,1861.0,2035.0,1095.0,1015.0,868.0,898.0
1492,1191,828,0,1683.0,1861.0,1161.0,1095.0,839.0,868.0
1291,1229,777,0,1492.0,1683.0,1191.0,1161.0,828.0,839.0
1107,1240,654,0,1291.0,1492.0,1229.0,1191.0,777.0,828.0
948,1200,569,0,1107.0,1291.0,1240.0,1229.0,654.0,777.0
800,1130,558,0,948.0,1107.0,1200.0,1240.0,569.0,654.0
632,1039,521,0,800.0,948.0,1130.0,1200.0,558.0,569.0
477,967,374,0,632.0,800.0,1039.0,1130.0,521.0,558.0
324,934,127,0,477.0,632.0,967.0,1039.0,374.0,521.0
169,898,-137,0,324.0,477.0,934.0,967.0,127.0,374.0
24,870,-282,0,169.0,324.0,898.0,934.0,-137.0,127.0
-99,880,-307,0,24.0,169.0,870.0,898.0,-282.0,-137.0
-220,908,-251,0,-99.0,24.0,880.0,870.0,-307.0,-282.0
-344,942,-181,0,-220.0,-99.0,908.0,880.0,-251.0,-307.0
-464,967,-113,0,-344.0,-220.0,942.0,908.0,-181.0,-251.0
-580,959,-62,0,-464.0,-344.0,967.0,942.0,-113.0,-181.0
-697,930,-50,0,-580.0,-464.0,959.0,967.0,-62.0,-113.0
-795,871,-82,0,-697.0,-580.0,930.0,959.0,-50.0,-62.0
-845,773,-85,0,-795.0,-697.0,871.0,930.0,-82.0,-50.0
-861,650,-6,0,-845.0,-795.0,773.0,871.0,-85.0,-82.0
-850,501,103,0,-861.0,-845.0,650.0,773.0,-6.0,-85.0
-818,337,191,0,-850.0,-861.0,501.0,650.0,103.0,-6.0
-778,190,265,0,-818.0,-850.0,337.0,501.0,191.0,103.0
-743,56,311,0,-778.0,-818.0,190.0,337.0,265.0,191.0
-690,-84,332,0,-743.0,-778.0,56.0,190.0,311.0,265.0
-623,-236,360,0,-690.0,-743.0,-84.0,56.0,332.0,311.0
-557,-375,345,0,-623.0,-690.0,-236.0,-84.0,360.0,332.0
-484,-514,296,0,-557.0,-623.0,-375.0,-236.0,345.0,360.0
-405,-611,273,0,-484.0,-557.0,-514.0,-375.0,296.0,345.0
-316,-655,286,0,-405.0,-484.0,-611.0,-514.0,273.0,296.0
-224,-670,326,0,-316.0,-405.0,-655.0,-611.0,286.0,273.0
-131,-663,412,0,-224.0,-316.0,-670.0,-655.0,326.0,286.0
-44,-659,534,0,-131.0,-224.0,-663.0,-670.0,412.0,326.0
34,-677,640,0,-44.0,-131.0,-659.0,-663.0,534.0,412.0
85,-702,635,0,34.0,-44.0,-677.0,-659.0,640.0,534.0
86,-748,395,0,85.0,34.0,-702.0,-677.0,635.0,640.0
44,-797,-63,0,86.0,85.0,-748.0,-702.0,395.0,635.0
13,-846,-575,0,44.0,86.0,-797.0,-748.0,-63.0,395.0
42,-899,-849,0,13.0,44.0,-846.0,-797.0,-575.0,-63.0
196,-985,-667,0,42.0,13.0,-899.0,-846.0,-849.0,-575.0
470,-1090,-48,0,196.0,42.0,-985.0,-899.0,-667.0,-849.0
788,-1184,624,0,470.0,196.0,-1090.0,-985.0,-48.0,-667.0
1135,-1303,982,0,788.0,470.0,-1184.0,-1090.0,624.0,-48.0
1555,-1494,1022,0,1135.0,788.0,-1303.0,-1184.0,982.0,624.0
2076,-1809,915,0,1555.0,1135.0,-1494.0,-1303.0,1022.0,982.0
2703,-2153,840,0,2076.0,1555.0,-1809.0,-1494.0,915.0,1022.0
3517,-2300,884,0,2703.0,2076.0,-2153.0,-1809.0,840.0,915.0
4769,-2113,1136,0,3517.0,2703.0,-2300.0,-2153.0,884.0,840.0
6674,-1769,1557,0,4769.0,3517.0,-2113.0,-2300.0,1136.0,884.0
9232,-1617,1892,0,6674.0,4769.0,-1769.0,-2113.0,1557.0,1136.0
12277,-1851,1810,0,9232.0,6674.0,-1617.0,-1769.0,1892.0,1557.0
15245,-2164,1467,0,12277.0,9232.0,-1851.0,-1617.0,1810.0,1892.0
17497,-2396,1090,0,15245.0,12277.0,-2164.0,-1851.0,1467.0,1810.0
18433,-2524,849,0,17497.0,15245.0,-2396.0,-2164.0,1090.0,1467.0
17393,-2221,804,0,18433.0,17497.0,-2524.0,-2396.0,849.0,1090.0
14552,-1335,924,0,17393.0,18433.0,-2221.0,-2524.0,804.0,849.0
10877,180,1253,0,14552.0,17393.0,-1335.0,-2221.0,924.0,804.0
7484,1775,1671,0,10877.0,14552.0,180.0,-1335.0,1253.0,924.0
5416,2640,1860,0,7484.0,10877.0,1775.0,180.0,1671.0,1253.0
4953,2884,1815,0,5416.0,7484.0,2640.0,1775.0,1860.0,1671.0
5388,2989,1665,0,4953.0,5416.0,2884.0,2640.0,1815.0,1860.0
6341,3169,1832,0,5388.0,4953.0,2989.0,2884.0,1665.0,1815.0
7542,3249,2219,0,6341.0,5388.0,3169.0,2989.0,1832.0,1665.0
8685,3120,2581,0,7542.0,6341.0,3249.0,3169.0,2219.0,1832.0
9551,2877,2842,0,8685.0,7542.0,3120.0,3249.0,2581.0,2219.0
10040,2656,2976,0,9551.0,8685.0,2877.0,3120.0,2842.0,2581.0
10164,2506,2996,0,10040.0,9551.0,2656.0,2877.0,2976.0,2842.0
10141,2436,2959,0,10164.0,10040.0,2506.0,2656.0,2996.0,2976.0
10079,2424,2830,0,10141.0,10164.0,2436.0,2506.0,2959.0,2996.0
9964,2496,2624,0,10079.0,10141.0,2424.0,2436.0,2830.0,2959.0
9758,2605,2362,0,9964.0,10079.0,2496.0,2424.0,2624.0,2830.0
9441,2737,2125,0,9758.0,9964.0,2605.0,2496.0,2362.0,2624.0
9045,2863,1976,0,9441.0,9758.0,2737.0,2605.0,2125.0,2362.0
8616,2940,1908,0,9045.0,9441.0,2863.0,2737.0,1976.0,2125.0
8197,2937,1917,0,8616.0,9045.0,2940.0,2863.0,1908.0,1976.0
7810,2824,1953,0,8197.0,8616.0,2937.0,2940.0,1917.0,1908.0
7466,2619,1962,0,7810.0,8197.0,2824.0,2937.0,1953.0,1917.0
7163,2382,1949,0,7466.0,7810.0,2619.0,2824.0,1962.0,1953.0
6890,2151,1941,0,7163.0,7466.0,2382.0,2619.0,1949.0,1962.0
6629,1960,1915,0,6890.0,7163.0,2151.0,2382.0,1941.0,1949.0
6400,1807,1875,0,6629.0,6890.0,1960.0,2151.0,1915.0,1941.0
6191,1666,1786,0,6400.0,6629.0,1807.0,1960.0,1875.0,1915.0
5998,1518,1664,0,6191.0,6400.0,1666.0,1807.0,1786.0,1875.0
5813,1385,1553,0,5998.0,6191.0,1518.0,1666.0,1664.0,1786.0
5608,1272,1452,0,5813.0,5998.0,1385.0,1518.0,1553.0,1664.0
5393,1195,1382,0,5608.0,5813.0,1272.0,1385.0,1452.0,1553.0
5157,1131,1309,0,5393.0,5608.0,1195.0,1272.0,1382.0,1452.0
4892,1070,1247,0,5157.0,5393.0,1131.0,1195.0,1309.0,1382.0
4616,1021,1224,0,4892.0,5157.0,1070.0,1131.0,1247.0,1309.0
4352,960,1180,0,4616.0,4892.0,1021.0,1070.0,1224.0,1247.0
4091,836,1073,0,4352.0,4616.0,960.0,1021.0,1180.0,1224.0
3827,678,945,0,4091.0,4352.0,836.0,960.0,1073.0,1180.0
3558,523,838,0,3827.0,4091.0,678.0,836.0,945.0,1073.0
3281,408,777,0,3558.0,3827.0,523.0,678.0,838.0,945.0
2998,308,720,0,3281.0,3558.0,408.0,523.0,777.0,838.0
2705,215,659,0,2998.0,3281.0,308.0,408.0,720.0,777.0
2424,116,596,0,2705.0,2998.0,215.0,308.0,659.0,720.0
2135,36,547,0,2424.0,2705.0,116.0,215.0,596.0,659.0
1846,-31,516,0,2135.0,2424.0,36.0,116.0,547.0,596.0
1573,-87,499,0,1846.0,2135.0,-31.0,36.0,516.0,547.0
1303,-134,481,0,1573.0,1846.0,-87.0,-31.0,499.0,516.0
1040,-183,458,0,1303.0,1573.0,-134.0,-87.0,481.0,499.0
789,-230,415,0,1040.0,1303.0,-183.0,-134.0,458.0,481.0
543,-264,331,0,789.0,1040.0,-230.0,-183.0,415.0,458.0
302,-288,228,0,543.0,789.0,-264.0,-230.0,331.0,415.0
73,-303,146,0,302.0,543.0,-288.0,-264.0,228.0,331.0
-169,-291,96,0,73.0,302.0,-303.0,-288.0,146.0,228.0
-372,-278,74,0,-169.0,73.0,-291.0,-303.0,96.0,146.0
-539,-234,61,0,-372.0,-169.0,-278.0,-291.0,74.0,96.0
-685,-170,31,0,-539.0,-372.0,-234.0,-278.0,61.0,74.0
-827,-97,-3,0,-685.0,-539.0,-170.0,-234.0,31.0,61.0
-969,-38,-71,0,-827.0,-685.0,-97.0,-170.0,-3.0,31.0
-1128,19,-135,0,-969.0,-827.0,-38.0,-97.0,-71.0,-3.0
-1295,50,-208,0,-1128.0,-969.0,19.0,-38.0,-135.0,-71.0
-1459,75,-275,0,-1295.0,-1128.0,50.0,19.0,-208.0,-135.0
-1619,86,-348,0,-1459.0,-1295.0,75.0,50.0,-275.0,-208.0
-1762,95,-382,0,-1619.0,-1459.0,86.0,75.0,-348.0,-275.0
-1888,91,-421,0,-1762.0,-1619.0,95.0,86.0,-382.0,-348.0
-1992,56,-470,0,-1888.0,-1762.0,91.0,95.0,-421.0,-382.0
-2045,6,-508,0,-1992.0,-1888.0,56.0,91.0,-470.0,-421.0
-2034,-33,-515,0,-2045.0,-1992.0,6.0,56.0,-508.0,-470.0
-1994,-51,-541,0,-2034.0,-2045.0,-33.0,6.0,-515.0,-508.0
-1910,-87,-580,0,-1994.0,-2034.0,-51.0,-33.0,-541.0,-515.0
-1775,-124,-604,0,-1910.0,-1994.0,-87.0,-51.0,-580.0,-541.0
-1571,-161,-603,0,-1775.0,-1910.0,-124.0,-87.0,-604.0,-580.0
-1325,-186,-594,0,-1571.0,-1775.0,-161.0,-124.0,-603.0,-604.0
-1037,-226,-589,0,-1325.0,-1571.0,-186.0,-161.0,-594.0,-603.0
-709,-285,-650,0,-1037.0,-1325.0,-226.0,-186.0,-589.0,-594.0
-400,-296,-713,0,-709.0,-1037.0,-285.0,-226.0,-650.0,-589.0
-104,-245,-729,0,-400.0,-709.0,-296.0,-285.0,-713.0,-650.0
174,-155,-730,0,-104.0,-400.0,-245.0,-296.0,-729.0,-713.0
431,-46,-702,0,174.0,-104.0,-155.0,-245.0,-730.0,-729.0
632,86,-668,0,431.0,174.0,-46.0,-155.0,-702.0,-730.0
764,243,-651,0,632.0,431.0,86.0,-46.0,-668.0,-702.0
849,407,-578,0,764.0,632.0,243.0,86.0,-651.0,-668.0
894,551,-457,0,849.0,764.0,407.0,243.0,-578.0,-651.0
886,644,-300,0,894.0,849.0,551.0,407.0,-457.0,-578.0
822,689,-121,0,886.0,894.0,644.0,551.0,-300.0,-457.0
750,674,74,0,822.0,886.0,689.0,644.0,-121.0,-300.0
686,553,236,0,750.0,822.0,674.0,689.0,74.0,-121.0
658,313,362,0,686.0,750.0,553.0,674.0,236.0,74.0
687,6,406,0,658.0,686.0,313.0,553.0,362.0,236.0
795,-259,397,0,687.0,658.0,6.0,313.0,406.0,362.0
1000,-393,464,0,795.0,687.0,-259.0,6.0,397.0,406.0
1288,-408,602,0,1000.0,795.0,-393.0,-259.0,464.0,397.0
1658,-401,801,0,1288.0,1000.0,-408.0,-393.0,602.0,464.0
2134,-447,1050,0,1658.0,1288.0,-401.0,-408.0,801.0,602.0
2755,-591,1246,0,2134.0,1658.0,-447.0,-401.0,1050.0,801.0
3560,-765,1294,0,2755.0,2134.0,-591.0,-447.0,1246.0,1050.0
4620,-852,1216,0,3560.0,2755.0,-765.0,-591.0,1294.0,1246.0
6113,-821,1089,0,4620.0,3560.0,-852.0,-765.0,1216.0,1294.0
8213,-563,908,0,6113.0,4620.0,-821.0,-852.0,1089.0,1216.0
10744,21,729,0,8213.0,6113.0,-563.0,-821.0,908.0,1089.0
13233,663,609,0,10744.0,8213.0,21.0,-563.0,729.0,908.0
15286,1039,685,0,13233.0,10744.0,663.0,21.0,609.0,729.0
16450,1212,790,0,15286.0,13233.0,1039.0,663.0,685.0,609.0
16316,1208,749,0,16450.0,15286.0,1212.0,1039.0,790.0,685.0
14696,1011,795,0,16316.0,16450.0,1208.0,1212.0,749.0,790.0
11698,777,1059,0,14696.0,16316.0,1011.0,1208.0,795.0,749.0
8129,680,1250,0,11698.0,14696.0,777.0,1011.0,1059.0,795.0
4961,778,934,0,8129.0,11698.0,680.0,777.0,1250.0,1059.0
2953,992,262,0,4961.0,8129.0,778.0,680.0,934.0,1250.0
2225,1196,-170,0,2953.0,4961.0,992.0,778.0,262.0,934.0
2493,1220,-222,0,2225.0,2953.0,1196.0,992.0,-170.0,262.0
3394,1145,50,0,2493.0,2225.0,1220.0,1196.0,-222.0,-170.0
4621,1151,424,0,3394.0,2493.0,1145.0,1220.0,50.0,-222.0
