accelerometer_x,accelerometer_y,accelerometer_z,fall,x_lag_1,x_lag_2,y_lag_1,y_lag_2,z_lag_1,z_lag_2
3386,-178,155,1,,,,,,
3350,-232,132,1,3386.0,,-178.0,,155.0,
3334,-294,118,1,3350.0,3386.0,-232.0,-178.0,132.0,155.0
3312,-362,107,1,3334.0,3350.0,-294.0,-232.0,118.0,132.0
3323,-423,118,1,3312.0,3334.0,-362.0,-294.0,107.0,118.0
3338,-469,155,1,3323.0,3312.0,-423.0,-362.0,118.0,107.0
3356,-507,178,1,3338.0,3323.0,-469.0,-423.0,155.0,118.0
3367,-525,206,1,3356.0,3338.0,-507.0,-469.0,178.0,155.0
3353,-522,221,1,3367.0,3356.0,-525.0,-507.0,206.0,178.0
3325,-473,241,1,3353.0,3367.0,-522.0,-525.0,221.0,206.0
3329,-480,235,1,3325.0,3353.0,-473.0,-522.0,241.0,221.0
3374,-523,264,1,3329.0,3325.0,-480.0,-473.0,235.0,241.0
3446,-585,292,1,3374.0,3329.0,-523.0,-480.0,264.0,235.0
3522,-629,328,1,3446.0,3374.0,-585.0,-523.0,292.0,264.0
3595,-667,325,1,3522.0,3446.0,-629.0,-585.0,328.0,292.0
3675,-774,272,1,3595.0,3522.0,-667.0,-629.0,325.0,328.0
3715,-858,256,1,3675.0,3595.0,-774.0,-667.0,272.0,325.0
3711,-876,273,1,3715.0,3675.0,-858.0,-774.0,256.0,272.0
3695,-860,309,1,3711.0,3715.0,-876.0,-858.0,273.0,256.0
3665,-822,367,1,3695.0,3711.0,-860.0,-876.0,309.0,273.0
3644,-799,407,1,3665.0,3695.0,-822.0,-860.0,367.0,309.0
3634,-778,442,1,3644.0,3665.0,-799.0,-822.0,407.0,367.0
3640,-777,472,1,3634.0,3644.0,-778.0,-799.0,442.0,407.0
3656,-761,498,1,3640.0,3634.0,-777.0,-778.0,472.0,442.0
3683,-728,525,1,3656.0,3640.0,-761.0,-777.0,498.0,472.0
3696,-704,533,1,3683.0,3656.0,-728.0,-761.0,525.0,498.0
3709,-695,517,1,3696.0,3683.0,-704.0,-728.0,533.0,525.0
3730,-695,498,1,3709.0,3696.0,-695.0,-704.0,517.0,533.0
3740,-699,491,1,3730.0,3709.0,-695.0,-695.0,498.0,517.0
3750,-712,497,1,3740.0,3730.0,-699.0,-695.0,491.0,498.0
3751,-722,523,1,3750.0,3740.0,-712.0,-699.0,497.0,491.0
3751,-740,559,1,3751.0,3750.0,-722.0,-712.0,523.0,497.0
3750,-782,578,1,3751.0,3751.0,-740.0,-722.0,559.0,523.0
3740,-817,587,1,3750.0,3751.0,-782.0,-740.0,578.0,559.0
3722,-861,606,1,3740.0,3750.0,-817.0,-782.0,587.0,578.0
3709,-896,616,1,3722.0,3740.0,-861.0,-817.0,606.0,587.0
3684,-939,618,1,3709.0,3722.0,-896.0,-861.0,616.0,606.0
3663,-983,621,1,3684.0,3709.0,-939.0,-896.0,618.0,616.0
3642,-1021,624,1,3663.0,3684.0,-983.0,-939.0,621.0,618.0
3631,-1052,642,1,3642.0,3663.0,-1021.0,-983.0,624.0,621.0
3615,-1079,660,1,3631.0,3642.0,-1052.0,-1021.0,642.0,624.0
3602,-1096,649,1,3615.0,3631.0,-1079.0,-1052.0,660.0,642.0
3597,-1104,641,1,3602.0,3615.0,-1096.0,-1079.0,649.0,660.0
3588,-1097,650,1,3597.0,3602.0,-1104.0,-1096.0,641.0,649.0
3587,-1081,661,1,3588.0,3597.0,-1097.0,-1104.0,650.0,641.0
3597,-1044,685,1,3587.0,3588.0,-1081.0,-1097.0,661.0,650.0
3611,-1013,712,1,3597.0,3587.0,-1044.0,-1081.0,685.0,661.0
3640,-978,755,1,3611.0,3597.0,-1013.0,-1044.0,712.0,685.0
3672,-935,828,1,3640.0,3611.0,-978.0,-1013.0,755.0,712.0
3698,-895,873,1,3672.0,3640.0,-935.0,-978.0,828.0,755.0
3731,-857,883,1,3698.0,3672.0,-895.0,-935.0,873.0,828.0
3747,-813,846,1,3731.0,3698.0,-857.0,-895.0,883.0,873.0
3760,-751,795,1,3747.0,3731.0,-813.0,-857.0,846.0,883.0
3741,-714,701,1,3760.0,3747.0,-751.0,-813.0,795.0,846.0
3732,-685,626,1,3741.0,3760.0,-714.0,-751.0,701.0,795.0
3743,-675,558,1,3732.0,3741.0,-685.0,-714.0,626.0,701.0
3766,-657,521,1,3743.0,3732.0,-675.0,-685.0,558.0,626.0
3790,-658,473,1,3766.0,3743.0,-657.0,-675.0,521.0,558.0
3752,-679,459,1,3790.0,3766.0,-658.0,-657.0,473.0,521.0
3751,-666,439,1,3752.0,3790.0,-679.0,-658.0,459.0,473.0
3791,-639,423,1,3751.0,3752.0,-666.0,-679.0,439.0,459.0
3833,-613,403,1,3791.0,3751.0,-639.0,-666.0,423.0,439.0
3874,-597,378,1,3833.0,3791.0,-613.0,-639.0,403.0,423.0
3905,-584,353,1,3874.0,3833.0,-597.0,-613.0,378.0,403.0
3941,-579,351,1,3905.0,3874.0,-584.0,-597.0,353.0,378.0
3973,-582,340,1,3941.0,3905.0,-579.0,-584.0,351.0,353.0
4008,-596,331,1,3973.0,3941.0,-582.0,-579.0,340.0,351.0
4041,-625,341,1,4008.0,3973.0,-596.0,-582.0,331.0,340.0
4080,-683,348,1,4041.0,4008.0,-625.0,-596.0,341.0,331.0
4130,-762,341,1,4080.0,4041.0,-683.0,-625.0,348.0,341.0
4178,-855,336,1,4130.0,4080.0,-762.0,-683.0,341.0,348.0
4224,-962,355,1,4178.0,4130.0,-855.0,-762.0,336.0,341.0
4270,-1048,417,1,4224.0,4178.0,-962.0,-855.0,355.0,336.0
4313,-1144,486,1,4270.0,4224.0,-1048.0,-962.0,417.0,355.0
4361,-1219,562,1,4313.0,4270.0,-1144.0,-1048.0,486.0,417.0
4400,-1272,641,1,4361.0,4313.0,-1219.0,-1144.0,562.0,486.0
4443,-1299,714,1,4400.0,4361.0,-1272.0,-1219.0,641.0,562.0
4461,-1315,755,1,4443.0,4400.0,-1299.0,-1272.0,714.0,641.0
4420,-1331,754,1,4461.0,4443.0,-1315.0,-1299.0,755.0,714.0
4381,-1308,735,1,4420.0,4461.0,-1331.0,-1315.0,754.0,755.0
4342,-1297,719,1,4381.0,4420.0,-1308.0,-1331.0,735.0,754.0
4335,-1291,753,1,4342.0,4381.0,-1297.0,-1308.0,719.0,735.0
4334,-1282,801,1,4335.0,4342.0,-1291.0,-1297.0,753.0,719.0
4333,-1250,807,1,4334.0,4335.0,-1282.0,-1291.0,801.0,753.0
4322,-1197,779,1,4333.0,4334.0,-1250.0,-1282.0,807.0,801.0
4305,-1150,750,1,4322.0,4333.0,-1197.0,-1250.0,779.0,807.0
4316,-1120,745,1,4305.0,4322.0,-1150.0,-1197.0,750.0,779.0
4326,-1071,735,1,4316.0,4305.0,-1120.0,-1150.0,745.0,750.0
4357,-1033,700,1,4326.0,4316.0,-1071.0,-1120.0,735.0,745.0
4368,-981,651,1,4357.0,4326.0,-1033.0,-1071.0,700.0,735.0
4387,-925,583,1,4368.0,4357.0,-981.0,-1033.0,651.0,700.0
4388,-843,499,1,4387.0,4368.0,-925.0,-981.0,583.0,651.0
4391,-778,427,1,4388.0,4387.0,-843.0,-925.0,499.0,583.0
4473,-738,400,1,4391.0,4388.0,-778.0,-843.0,427.0,499.0
4592,-682,481,1,4473.0,4391.0,-738.0,-778.0,400.0,427.0
4709,-690,478,1,4592.0,4473.0,-682.0,-738.0,481.0,400.0
4830,-630,496,1,4709.0,4592.0,-690.0,-682.0,478.0,481.0
4935,-618,425,1,4830.0,4709.0,-630.0,-690.0,496.0,478.0
5001,-580,331,1,4935.0,4830.0,-618.0,-630.0,425.0,496.0
5094,-521,310,1,5001.0,4935.0,-580.0,-618.0,331.0,425.0
5240,-455,343,1,5094.0,5001.0,-521.0,-580.0,310.0,331.0
5358,-328,374,1,5240.0,5094.0,-455.0,-521.0,343.0,310.0
5438,-177,277,1,5358.0,5240.0,-328.0,-455.0,374.0,343.0
5454,45,134,1,5438.0,5358.0,-177.0,-328.0,277.0,374.0
5430,302,21,1,5454.0,5438.0,45.0,-177.0,134.0,277.0
5324,555,-58,1,5430.0,5454.0,302.0,45.0,21.0,134.0
5155,787,-154,1,5324.0,5430.0,555.0,302.0,-58.0,21.0
4968,968,-201,1,5155.0,5324.0,787.0,555.0,-154.0,-58.0
4738,1124,-237,1,4968.0,5155.0,968.0,787.0,-201.0,-154.0
4567,1299,-224,1,4738.0,4968.0,1124.0,968.0,-237.0,-201.0
4460,1435,-178,1,4567.0,4738.0,1299.0,1124.0,-224.0,-237.0
4422,1532,-77,1,4460.0,4567.0,1435.0,1299.0,-178.0,-224.0
4351,1627,-9,1,4422.0,4460.0,1532.0,1435.0,-77.0,-178.0
4266,1702,47,1,4351.0,4422.0,1627.0,1532.0,-9.0,-77.0
4216,1742,106,1,4266.0,4351.0,1702.0,1627.0,47.0,-9.0
4197,1756,165,1,4216.0,4266.0,1742.0,1702.0,106.0,47.0
4213,1725,257,1,4197.0,4216.0,1756.0,1742.0,165.0,106.0
4272,1666,390,1,4213.0,4197.0,1725.0,1756.0,257.0,165.0
4346,1593,556,1,4272.0,4213.0,1666.0,1725.0,390.0,257.0
4452,1522,734,1,4346.0,4272.0,1593.0,1666.0,556.0,390.0
4547,1420,848,1,4452.0,4346.0,1522.0,1593.0,734.0,556.0
4603,1317,912,1,4547.0,4452.0,1420.0,1522.0,848.0,734.0
4637,1168,922,1,4603.0,4547.0,1317.0,1420.0,912.0,848.0
4680,1011,928,1,4637.0,4603.0,1168.0,1317.0,922.0,912.0
4707,866,959,1,4680.0,4637.0,1011.0,1168.0,928.0,922.0
4757,711,973,1,4707.0,4680.0,866.0,1011.0,959.0,928.0
4783,553,987,1,4757.0,4707.0,711.0,866.0,973.0,959.0
4806,406,1026,1,4783.0,4757.0,553.0,711.0,987.0,973.0
4814,250,1011,1,4806.0,4783.0,406.0,553.0,1026.0,987.0
4799,121,971,1,4814.0,4806.0,250.0,406.0,1011.0,1026.0
4774,21,918,1,4799.0,4814.0,121.0,250.0,971.0,1011.0
4726,-44,854,1,4774.0,4799.0,21.0,121.0,918.0,971.0
4673,-84,779,1,4726.0,4774.0,-44.0,21.0,854.0,918.0
4631,-110,727,1,4673.0,4726.0,-84.0,-44.0,779.0,854.0
4604,-143,710,1,4631.0,4673.0,-110.0,-84.0,727.0,779.0
4581,-180,702,1,4604.0,4631.0,-143.0,-110.0,710.0,727.0
4547,-214,684,1,4581.0,4604.0,-180.0,-143.0,702.0,710.0
4474,-242,645,1,4547.0,4581.0,-214.0,-180.0,684.0,702.0
4379,-249,609,1,4474.0,4547.0,-242.0,-214.0,645.0,684.0
4259,-229,563,1,4379.0,4474.0,-249.0,-242.0,609.0,645.0
4126,-202,530,1,4259.0,4379.0,-229.0,-249.0,563.0,609.0
3987,-158,524,1,4126.0,4259.0,-202.0,-229.0,530.0,563.0
3832,-128,475,1,3987.0,4126.0,-158.0,-202.0,524.0,530.0
3681,-75,433,1,3832.0,3987.0,-128.0,-158.0,475.0,524.0
3532,-42,382,1,3681.0,3832.0,-75.0,-128.0,433.0,475.0
3379,-14,332,1,3532.0,3681.0,-42.0,-75.0,382.0,433.0
3260,27,304,1,3379.0,3532.0,-14.0,-42.0,332.0,382.0
3163,57,273,1,3260.0,3379.0,27.0,-14.0,304.0,332.0
3077,93,249,1,3163.0,3260.0,57.0,27.0,273.0,304.0
3026,134,273,1,3077.0,3163.0,93.0,57.0,249.0,273.0
2984,149,312,1,3026.0,3077.0,134.0,93.0,273.0,249.0
2942,177,329,1,2984.0,3026.0,149.0,134.0,312.0,273.0
2913,217,338,1,2942.0,2984.0,177.0,149.0,329.0,312.0
2898,233,361,1,2913.0,2942.0,217.0,177.0,338.0,329.0
2880,263,371,1,2898.0,2913.0,233.0,217.0,361.0,338.0
2855,307,379,1,2880.0,2898.0,263.0,233.0,371.0,361.0
2855,341,379,1,2855.0,2880.0,307.0,263.0,379.0,371.0
2847,352,390,1,2855.0,2855.0,341.0,307.0,379.0,379.0
2876,356,421,1,2847.0,2855.0,352.0,341.0,390.0,379.0
2925,376,470,1,2876.0,2847.0,356.0,352.0,421.0,390.0
2960,401,527,1,2925.0,2876.0,376.0,356.0,470.0,421.0
2957,419,552,1,2960.0,2925.0,401.0,376.0,527.0,470.0
2970,446,559,1,2957.0,2960.0,419.0,401.0,552.0,527.0
2988,467,570,1,2970.0,2957.0,446.0,419.0,559.0,552.0
3008,458,594,1,2988.0,2970.0,467.0,446.0,570.0,559.0
3031,449,627,1,3008.0,2988.0,458.0,467.0,594.0,570.0
3062,433,667,1,3031.0,3008.0,449.0,458.0,627.0,594.0
3100,391,694,1,3062.0,3031.0,433.0,449.0,667.0,627.0
3142,336,714,1,3100.0,3062.0,391.0,433.0,694.0,667.0
3163,284,730,1,3142.0,3100.0,336.0,391.0,714.0,694.0
3196,221,752,1,3163.0,3142.0,284.0,336.0,730.0,714.0
3237,161,791,1,3196.0,3163.0,221.0,284.0,752.0,730.0
3272,109,823,1,3237.0,3196.0,161.0,221.0,791.0,752.0
3308,54,845,1,3272.0,3237.0,109.0,161.0,823.0,791.0
3340,12,855,1,3308.0,3272.0,54.0,109.0,845.0,823.0
3370,-27,860,1,3340.0,3308.0,12.0,54.0,855.0,845.0
3392,-66,857,1,3370.0,3340.0,-27.0,12.0,860.0,855.0
3404,-105,851,1,3392.0,3370.0,-66.0,-27.0,857.0,860.0
3412,-144,842,1,3404.0,3392.0,-105.0,-66.0,851.0,857.0
3418,-183,838,1,3412.0,3404.0,-144.0,-105.0,842.0,851.0
3432,-209,855,1,3418.0,3412.0,-183.0,-144.0,838.0,842.0
3438,-245,872,1,3432.0,3418.0,-209.0,-183.0,855.0,838.0
3434,-282,882,1,3438.0,3432.0,-245.0,-209.0,872.0,855.0
3422,-322,886,1,3434.0,3438.0,-282.0,-245.0,882.0,872.0
3401,-366,896,1,3422.0,3434.0,-322.0,-282.0,886.0,882.0
3389,-406,908,1,3401.0,3422.0,-366.0,-322.0,896.0,886.0
3382,-438,923,1,3389.0,3401.0,-406.0,-366.0,908.0,896.0
3375,-476,935,1,3382.0,3389.0,-438.0,-406.0,923.0,908.0
3384,-505,949,1,3375.0,3382.0,-476.0,-438.0,935.0,923.0
3385,-533,971,1,3384.0,3375.0,-505.0,-476.0,949.0,935.0
3392,-570,1009,1,3385.0,3384.0,-533.0,-505.0,971.0,949.0
3407,-621,1082,1,3392.0,3385.0,-570.0,-533.0,1009.0,971.0
3408,-654,1206,1,3407.0,3392.0,-621.0,-570.0,1082.0,1009.0
3406,-701,1280,1,3408.0,3407.0,-654.0,-621.0,1206.0,1082.0
3397,-760,1275,1,3406.0,3408.0,-701.0,-654.0,1280.0,1206.0
3383,-828,1221,1,3397.0,3406.0,-760.0,-701.0,1275.0,1280.0
3363,-887,1155,1,3383.0,3397.0,-828.0,-760.0,1221.0,1275.0
3350,-941,1094,1,3363.0,3383.0,-887.0,-828.0,1155.0,1221.0
3340,-994,1050,1,3350.0,3363.0,-941.0,-887.0,1094.0,1155.0
3336,-1035,1019,1,3340.0,3350.0,-994.0,-941.0,1050.0,1094.0
3337,-1056,1001,1,3336.0,3340.0,-1035.0,-994.0,1019.0,1050.0
3349,-1070,987,1,3337.0,3336.0,-1056.0,-1035.0,1001.0,1019.0
3364,-1073,957,1,3349.0,3337.0,-1070.0,-1056.0,987.0,1001.0
3395,-1063,917,1,3364.0,3349.0,-1073.0,-1070.0,957.0,987.0
3417,-1027,881,1,3395.0,3364.0,-1063.0,-1073.0,917.0,957.0
3477,-961,884,1,3417.0,3395.0,-1027.0,-1063.0,881.0,917.0
3557,-900,921,1,3477.0,3417.0,-961.0,-1027.0,884.0,881.0
3662,-819,1011,1,3557.0,3477.0,-900.0,-961.0,921.0,884.0
3779,-737,1127,1,3662.0,3557.0,-819.0,-900.0,1011.0,921.0
3883,-683,1226,1,3779.0,3662.0,-737.0,-819.0,1127.0,1011.0
3977,-627,1319,1,3883.0,3779.0,-683.0,-737.0,1226.0,1127.0
4039,-576,1358,1,3977.0,3883.0,-627.0,-683.0,1319.0,1226.0
4081,-550,1335,1,4039.0,3977.0,-576.0,-627.0,1358.0,1319.0
4124,-497,1314,1,4081.0,4039.0,-550.0,-576.0,1335.0,1358.0
4155,-451,1294,1,4124.0,4081.0,-497.0,-550.0,1314.0,1335.0
4186,-425,1243,1,4155.0,4124.0,-451.0,-497.0,1294.0,1314.0
4234,-460,1207,1,4186.0,4155.0,-425.0,-451.0,1243.0,1294.0
4269,-533,1181,1,4234.0,4186.0,-460.0,-425.0,1207.0,1243.0
4296,-622,1189,1,4269.0,4234.0,-533.0,-460.0,1181.0,1207.0
4301,-745,1225,1,4296.0,4269.0,-622.0,-533.0,1189.0,1181.0
4315,-920,1303,1,4301.0,4296.0,-745.0,-622.0,1225.0,1189.0
4343,-1107,1426,1,4315.0,4301.0,-920.0,-745.0,1303.0,1225.0
4369,-1291,1550,1,4343.0,4315.0,-1107.0,-920.0,1426.0,1303.0
4390,-1482,1678,1,4369.0,4343.0,-1291.0,-1107.0,1550.0,1426.0
4400,-1623,1797,1,4390.0,4369.0,-1482.0,-1291.0,1678.0,1550.0
4370,-1726,1882,1,4400.0,4390.0,-1623.0,-1482.0,1797.0,1678.0
4363,-1800,1959,1,4370.0,4400.0,-1726.0,-1623.0,1882.0,1797.0
4360,-1832,2040,1,4363.0,4370.0,-1800.0,-1726.0,1959.0,1882.0
4408,-1807,2115,1,4360.0,4363.0,-1832.0,-1800.0,2040.0,1959.0
4489,-1710,2159,1,4408.0,4360.0,-1807.0,-1832.0,2115.0,2040.0
4583,-1608,2174,1,4489.0,4408.0,-1710.0,-1807.0,2159.0,2115.0
4646,-1527,2187,1,4583.0,4489.0,-1608.0,-1710.0,2174.0,2159.0
4763,-1502,2230,1,4646.0,4583.0,-1527.0,-1608.0,2187.0,2174.0
4877,-1503,2211,1,4763.0,4646.0,-1502.0,-1527.0,2230.0,2187.0
4984,-1415,2157,1,4877.0,4763.0,-1503.0,-1502.0,2211.0,2230.0
5079,-1288,2050,1,4984.0,4877.0,-1415.0,-1503.0,2157.0,2211.0
5212,-1142,1932,1,5079.0,4984.0,-1288.0,-1415.0,2050.0,2157.0
5340,-958,1843,1,5212.0,5079.0,-1142.0,-1288.0,1932.0,2050.0
5409,-774,1711,1,5340.0,5212.0,-958.0,-1142.0,1843.0,1932.0
5531,-494,1542,1,5409.0,5340.0,-774.0,-958.0,1711.0,1843.0
5689,-189,1279,1,5531.0,5409.0,-494.0,-774.0,1542.0,1711.0
5914,187,942,1,5689.0,5531.0,-189.0,-494.0,1279.0,1542.0
6218,504,565,1,5914.0,5689.0,187.0,-189.0,942.0,1279.0
6561,759,247,1,6218.0,5914.0,504.0,187.0,565.0,942.0
6776,918,3,1,6561.0,6218.0,759.0,504.0,247.0,565.0
6860,1058,-150,1,6776.0,6561.0,918.0,759.0,3.0,247.0
6857,1141,-214,1,6860.0,6776.0,1058.0,918.0,-150.0,3.0
6663,1142,-290,1,6857.0,6860.0,1141.0,1058.0,-214.0,-150.0
6186,1128,-266,1,6663.0,6857.0,1142.0,1141.0,-290.0,-214.0
5556,1035,35,1,6186.0,6663.0,1128.0,1142.0,-266.0,-290.0
4834,908,404,1,5556.0,6186.0,1035.0,1128.0,35.0,-266.0
4085,756,656,1,4834.0,5556.0,908.0,1035.0,404.0,35.0
3527,641,838,1,4085.0,4834.0,756.0,908.0,656.0,404.0
3216,488,871,1,3527.0,4085.0,641.0,756.0,838.0,656.0
3187,322,853,1,3216.0,3527.0,488.0,641.0,871.0,838.0
3325,122,821,1,3187.0,3216.0,322.0,488.0,853.0,871.0
3406,-62,800,1,3325.0,3187.0,122.0,322.0,821.0,853.0
3400,-194,757,1,3406.0,3325.0,-62.0,122.0,800.0,821.0
3335,-251,747,1,3400.0,3406.0,-194.0,-62.0,757.0,800.0
3264,-286,767,1,3335.0,3400.0,-251.0,-194.0,747.0,757.0
3199,-317,776,1,3264.0,3335.0,-286.0,-251.0,767.0,747.0
3121,-361,658,1,3199.0,3264.0,-317.0,-286.0,776.0,767.0
3059,-422,428,1,3121.0,3199.0,-361.0,-317.0,658.0,776.0
3015,-499,151,1,3059.0,3121.0,-422.0,-361.0,428.0,658.0
3014,-558,-116,1,3015.0,3059.0,-499.0,-422.0,151.0,428.0
3045,-586,-336,1,3014.0,3015.0,-558.0,-499.0,-116.0,151.0
3104,-599,-510,1,3045.0,3014.0,-586.0,-558.0,-336.0,-116.0
3175,-597,-616,1,3104.0,3045.0,-599.0,-586.0,-510.0,-336.0
3270,-600,-684,1,3175.0,3104.0,-597.0,-599.0,-616.0,-510.0
3373,-576,-707,1,3270.0,3175.0,-600.0,-597.0,-684.0,-616.0
3502,-531,-692,1,3373.0,3270.0,-576.0,-600.0,-707.0,-684.0
3659,-465,-641,1,3502.0,3373.0,-531.0,-576.0,-692.0,-707.0
3844,-367,-574,1,3659.0,3502.0,-465.0,-531.0,-641.0,-692.0
4020,-288,-511,1,3844.0,3659.0,-367.0,-465.0,-574.0,-641.0
4169,-213,-444,1,4020.0,3844.0,-288.0,-367.0,-511.0,-574.0
4295,-144,-390,1,4169.0,4020.0,-213.0,-288.0,-444.0,-511.0
4396,-71,-306,1,4295.0,4169.0,-144.0,-213.0,-390.0,-444.0
4487,-2,-232,1,4396.0,4295.0,-71.0,-144.0,-306.0,-390.0
4546,66,-156,1,4487.0,4396.0,-2.0,-71.0,-232.0,-306.0
4605,137,-81,1,4546.0,4487.0,66.0,-2.0,-156.0,-232.0
4628,189,-14,1,4605.0,4546.0,137.0,66.0,-81.0,-156.0
4601,236,73,1,4628.0,4605.0,189.0,137.0,-14.0,-81.0
4548,275,170,1,4601.0,4628.0,236.0,189.0,73.0,-14.0
4489,296,259,1,4548.0,4601.0,275.0,236.0,170.0,73.0
4409,301,356,1,4489.0,4548.0,296.0,275.0,259.0,170.0
4316,287,437,1,4409.0,4489.0,301.0,296.0,356.0,259.0
4232,279,484,1,4316.0,4409.0,287.0,301.0,437.0,356.0
4135,263,481,1,4232.0,4316.0,279.0,287.0,484.0,437.0
4048,257,485,1,4135.0,4232.0,263.0,279.0,481.0,484.0
3960,233,471,1,4048.0,4135.0,257.0,263.0,485.0,481.0
3873,198,448,1,3960.0,4048.0,233.0,257.0,471.0,485.0
3788,164,416,1,3873.0,3960.0,198.0,233.0,448.0,471.0
3714,132,351,1,3788.0,3873.0,164.0,198.0,416.0,448.0
3642,100,293,1,3714.0,3788.0,132.0,164.0,351.0,416.0
3607,85,245,1,3642.0,3714.0,100.0,132.0,293.0,351.0
3664,36,246,1,3607.0,3642.0,85.0,100.0,245.0,293.0
3528,-45,207,1,3664.0,3607.0,36.0,85.0,246.0,245.0
3398,-56,197,1,3528.0,3664.0,-45.0,36.0,207.0,246.0
3381,-110,189,1,3398.0,3528.0,-56.0,-45.0,197.0,207.0
3389,-159,188,1,3381.0,3398.0,-110.0,-56.0,189.0,197.0
3411,-190,196,1,3389.0,3381.0,-159.0,-110.0,188.0,189.0
3429,-240,161,1,3411.0,3389.0,-190.0,-159.0,196.0,188.0
3456,-345,102,1,3429.0,3411.0,-240.0,-190.0,161.0,196.0
3474,-461,59,1,3456.0,3429.0,-345.0,-240.0,102.0,161.0
3494,-537,58,1,3474.0,3456.0,-461.0,-345.0,59.0,102.0
3524,-590,90,1,3494.0,3474.0,-537.0,-461.0,58.0,59.0
3540,-618,107,1,3524.0,3494.0,-590.0,-537.0,90.0,58.0
3539,-635,119,1,3540.0,3524.0,-618.0,-590.0,107.0,90.0
3521,-638,127,1,3539.0,3540.0,-635.0,-618.0,119.0,107.0
3489,-597,157,1,3521.0,3539.0,-638.0,-635.0,127.0,119.0
3492,-574,182,1,3489.0,3521.0,-597.0,-638.0,157.0,127.0
3560,-599,214,1,3492.0,3489.0,-574.0,-597.0,182.0,157.0
3676,-668,266,1,3560.0,3492.0,-599.0,-574.0,214.0,182.0
3760,-741,289,1,3676.0,3560.0,-668.0,-599.0,266.0,214.0
3782,-759,271,1,3760.0,3676.0,-741.0,-668.0,289.0,266.0
3773,-752,242,1,3782.0,3760.0,-759.0,-741.0,271.0,289.0
3743,-709,209,1,3773.0,3782.0,-752.0,-759.0,242.0,271.0
3713,-678,188,1,3743.0,3773.0,-709.0,-752.0,209.0,242.0
3705,-655,190,1,3713.0,3743.0,-678.0,-709.0,188.0,209.0
3713,-642,206,1,3705.0,3713.0,-655.0,-678.0,190.0,188.0
3719,-635,222,1,3713.0,3705.0,-642.0,-655.0,206.0,190.0
3723,-616,217,1,3719.0,3713.0,-635.0,-642.0,222.0,206.0
3729,-601,203,1,3723.0,3719.0,-616.0,-635.0,217.0,222.0
3749,-589,214,1,3729.0,3723.0,-601.0,-616.0,203.0,217.0
3768,-577,244,1,3749.0,3729.0,-589.0,-601.0,214.0,203.0
3780,-571,260,1,3768.0,3749.0,-577.0,-589.0,244.0,214.0
3797,-556,261,1,3780.0,3768.0,-571.0,-577.0,260.0,244.0
3814,-539,265,1,3797.0,3780.0,-556.0,-571.0,261.0,260.0
3828,-524,278,1,3814.0,3797.0,-539.0,-556.0,265.0,261.0
3850,-513,318,1,3828.0,3814.0,-524.0,-539.0,278.0,265.0
3875,-507,360,1,3850.0,3828.0,-513.0,-524.0,318.0,278.0
3919,-517,379,1,3875.0,3850.0,-507.0,-513.0,360.0,318.0
3853,-594,407,1,3919.0,3875.0,-517.0,-507.0,379.0,360.0
3832,-623,438,1,3853.0,3919.0,-594.0,-517.0,407.0,379.0
3819,-642,447,1,3832.0,3853.0,-623.0,-594.0,438.0,407.0
3818,-659,438,1,3819.0,3832.0,-642.0,-623.0,447.0,438.0
3811,-678,434,1,3818.0,3819.0,-659.0,-642.0,438.0,447.0
3804,-701,439,1,3811.0,3818.0,-678.0,-659.0,434.0,438.0
3804,-716,439,1,3804.0,3811.0,-701.0,-678.0,439.0,434.0
3794,-714,439,1,3804.0,3804.0,-716.0,-701.0,439.0,439.0
3789,-712,451,1,3794.0,3804.0,-714.0,-716.0,439.0,439.0
3784,-709,477,1,3789.0,3794.0,-712.0,-714.0,451.0,439.0
3774,-709,500,1,3784.0,3789.0,-709.0,-712.0,477.0,451.0
3761,-700,513,1,3774.0,3784.0,-709.0,-709.0,500.0,477.0
3748,-689,533,1,3761.0,3774.0,-700.0,-709.0,513.0,500.0
3741,-664,559,1,3748.0,3761.0,-689.0,-700.0,533.0,513.0
3758,-628,595,1,3741.0,3748.0,-664.0,-689.0,559.0,533.0
3789,-576,672,1,3758.0,3741.0,-628.0,-664.0,595.0,559.0
3826,-519,750,1,3789.0,3758.0,-576.0,-628.0,672.0,595.0
3873,-433,841,1,3826.0,3789.0,-519.0,-576.0,750.0,672.0
3910,-373,888,1,3873.0,3826.0,-433.0,-519.0,841.0,750.0
3940,-326,899,1,3910.0,3873.0,-373.0,-433.0,888.0,841.0
3956,-287,843,1,3940.0,3910.0,-326.0,-373.0,899.0,888.0
3956,-251,758,1,3956.0,3940.0,-287.0,-326.0,843.0,899.0
3941,-219,655,1,3956.0,3956.0,-251.0,-287.0,758.0,843.0
3920,-191,560,1,3941.0,3956.0,-219.0,-251.0,655.0,758.0
3899,-188,460,1,3920.0,3941.0,-191.0,-219.0,560.0,655.0
3870,-202,335,1,3899.0,3920.0,-188.0,-191.0,460.0,560.0
3846,-215,202,1,3870.0,3899.0,-202.0,-188.0,335.0,460.0
3824,-278,60,1,3846.0,3870.0,-215.0,-202.0,202.0,335.0
3825,-351,-15,1,3824.0,3846.0,-278.0,-215.0,60.0,202.0
3856,-451,-57,1,3825.0,3824.0,-351.0,-278.0,-15.0,60.0
3903,-534,-55,1,3856.0,3825.0,-451.0,-351.0,-57.0,-15.0
3962,-622,-41,1,3903.0,3856.0,-534.0,-451.0,-55.0,-57.0
4010,-679,-17,1,3962.0,3903.0,-622.0,-534.0,-41.0,-55.0
4052,-744,20,1,4010.0,3962.0,-679.0,-622.0,-17.0,-41.0
4077,-804,52,1,4052.0,4010.0,-744.0,-679.0,20.0,-17.0
4105,-855,94,1,4077.0,4052.0,-804.0,-744.0,52.0,20.0
4132,-885,147,1,4105.0,4077.0,-855.0,-804.0,94.0,52.0
4148,-898,191,1,4132.0,4105.0,-885.0,-855.0,147.0,94.0
4161,-917,236,1,4148.0,4132.0,-898.0,-885.0,191.0,147.0
4183,-945,303,1,4161.0,4148.0,-917.0,-898.0,236.0,191.0
4210,-972,381,1,4183.0,4161.0,-945.0,-917.0,303.0,236.0
4228,-977,444,1,4210.0,4183.0,-972.0,-945.0,381.0,303.0
4227,-920,510,1,4228.0,4210.0,-977.0,-972.0,444.0,381.0
4233,-901,534,1,4227.0,4228.0,-920.0,-977.0,510.0,444.0
4253,-917,583,1,4233.0,4227.0,-901.0,-920.0,534.0,510.0
4288,-938,650,1,4253.0,4233.0,-917.0,-901.0,583.0,534.0
4324,-944,700,1,4288.0,4253.0,-938.0,-917.0,650.0,583.0
4343,-916,691,1,4324.0,4288.0,-944.0,-938.0,700.0,650.0
4356,-883,635,1,4343.0,4324.0,-916.0,-944.0,691.0,700.0
4362,-865,576,1,4356.0,4343.0,-883.0,-916.0,635.0,691.0
4364,-868,534,1,4362.0,4356.0,-865.0,-883.0,576.0,635.0
4349,-838,514,1,4364.0,4362.0,-868.0,-865.0,534.0,576.0
4408,-773,536,1,4349.0,4364.0,-838.0,-868.0,514.0,534.0
4490,-691,557,1,4408.0,4349.0,-773.0,-838.0,536.0,514.0
4570,-582,578,1,4490.0,4408.0,-691.0,-773.0,557.0,536.0
4635,-466,593,1,4570.0,4490.0,-582.0,-691.0,578.0,557.0
4696,-371,614,1,4635.0,4570.0,-466.0,-582.0,593.0,578.0
4787,-298,656,1,4696.0,4635.0,-371.0,-466.0,614.0,593.0
4881,-237,675,1,4787.0,4696.0,-298.0,-371.0,656.0,614.0
4981,-199,657,1,4881.0,4787.0,-237.0,-298.0,675.0,656.0
5083,-171,616,1,4981.0,4881.0,-199.0,-237.0,657.0,675.0
5163,-176,544,1,5083.0,4981.0,-171.0,-199.0,616.0,657.0
5233,-160,483,1,5163.0,5083.0,-176.0,-171.0,544.0,616.0
5313,-117,440,1,5233.0,5163.0,-160.0,-176.0,483.0,544.0
5350,-20,354,1,5313.0,5233.0,-117.0,-160.0,440.0,483.0
5365,134,196,1,5350.0,5313.0,-20.0,-117.0,354.0,440.0
5320,300,36,1,5365.0,5350.0,134.0,-20.0,196.0,354.0
5223,465,-106,1,5320.0,5365.0,300.0,134.0,36.0,196.0
5080,613,-167,1,5223.0,5320.0,465.0,300.0,-106.0,36.0
4940,758,-148,1,5080.0,5223.0,613.0,465.0,-167.0,-106.0
4805,947,-96,1,4940.0,5080.0,758.0,613.0,-148.0,-167.0
4683,1170,-47,1,4805.0,4940.0,947.0,758.0,-96.0,-148.0
4573,1397,-4,1,4683.0,4805.0,1170.0,947.0,-47.0,-96.0
4481,1621,37,1,4573.0,4683.0,1397.0,1170.0,-4.0,-47.0
4352,1830,62,1,4481.0,4573.0,1621.0,1397.0,37.0,-4.0
4280,2029,81,1,4352.0,4481.0,1830.0,1621.0,62.0,37.0
4296,2177,172,1,4280.0,4352.0,2029.0,1830.0,81.0,62.0
4418,2288,332,1,4296.0,4280.0,2177.0,2029.0,172.0,81.0
4507,2370,466,1,4418.0,4296.0,2288.0,2177.0,332.0,172.0
4535,2437,568,1,4507.0,4418.0,2370.0,2288.0,466.0,332.0
4549,2439,651,1,4535.0,4507.0,2437.0,2370.0,568.0,466.0
4551,2406,744,1,4549.0,4535.0,2439.0,2437.0,651.0,568.0
4588,2332,848,1,4551.0,4549.0,2406.0,2439.0,744.0,651.0
4623,2215,928,1,4588.0,4551.0,2332.0,2406.0,848.0,744.0
4621,2047,973,1,4623.0,4588.0,2215.0,2332.0,928.0,848.0
4617,1840,1017,1,4621.0,4623.0,2047.0,2215.0,973.0,928.0
4617,1605,1051,1,4617.0,4621.0,1840.0,2047.0,1017.0,973.0
4615,1379,1061,1,4617.0,4617.0,1605.0,1840.0,1051.0,1017.0
4603,1143,1011,1,4615.0,4617.0,1379.0,1605.0,1061.0,1051.0
4563,918,946,1,4603.0,4615.0,1143.0,1379.0,1011.0,1061.0
4516,709,877,1,4563.0,4603.0,918.0,1143.0,946.0,1011.0
4513,557,841,1,4516.0,4563.0,709.0,918.0,877.0,946.0
4518,443,822,1,4513.0,4516.0,557.0,709.0,841.0,877.0
4548,346,796,1,4518.0,4513.0,443.0,557.0,822.0,841.0
4560,269,777,1,4548.0,4518.0,346.0,443.0,796.0,822.0
4558,194,750,1,4560.0,4548.0,269.0,346.0,777.0,796.0
4560,143,695,1,4558.0,4560.0,194.0,269.0,750.0,777.0
4539,107,595,1,4560.0,4558.0,143.0,194.0,695.0,750.0
4495,55,497,1,4539.0,4560.0,107.0,143.0,595.0,695.0
4440,39,469,1,4495.0,4539.0,55.0,107.0,497.0,595.0
4364,32,525,1,4440.0,4495.0,39.0,55.0,469.0,497.0
4276,36,579,1,4364.0,4440.0,32.0,39.0,525.0,469.0
4166,58,533,1,4276.0,4364.0,36.0,32.0,579.0,525.0
4037,87,431,1,4166.0,4276.0,58.0,36.0,533.0,579.0
3884,133,326,1,4037.0,4166.0,87.0,58.0,431.0,533.0
3741,174,232,1,3884.0,4037.0,133.0,87.0,326.0,431.0
3625,213,199,1,3741.0,3884.0,174.0,133.0,232.0,326.0
3513,239,200,1,3625.0,3741.0,213.0,174.0,199.0,232.0
3447,248,217,1,3513.0,3625.0,239.0,213.0,200.0,199.0
3384,271,256,1,3447.0,3513.0,248.0,239.0,217.0,200.0
3342,326,300,1,3384.0,3447.0,271.0,248.0,256.0,217.0
3338,378,319,1,3342.0,3384.0,326.0,271.0,300.0,256.0
3338,403,308,1,3338.0,3342.0,378.0,326.0,319.0,300.0
3291,429,280,1,3338.0,3338.0,403.0,378.0,308.0,319.0
3243,440,259,1,3291.0,3338.0,429.0,403.0,280.0,308.0
3217,460,265,1,3243.0,3291.0,440.0,429.0,259.0,280.0
3203,475,286,1,3217.0,3243.0,460.0,440.0,265.0,259.0
3204,502,301,1,3203.0,3217.0,475.0,460.0,286.0,265.0
3202,542,318,1,3204.0,3203.0,502.0,475.0,301.0,286.0
3213,567,346,1,3202.0,3204.0,542.0,502.0,318.0,301.0
3234,589,394,1,3213.0,3202.0,567.0,542.0,346.0,318.0
3256,608,443,1,3234.0,3213.0,589.0,567.0,394.0,346.0
3279,616,490,1,3256.0,3234.0,608.0,589.0,443.0,394.0
3287,621,520,1,3279.0,3256.0,616.0,608.0,490.0,443.0
3283,614,538,1,3287.0,3279.0,621.0,616.0,520.0,490.0
3280,583,537,1,3283.0,3287.0,614.0,621.0,538.0,520.0
3270,550,532,1,3280.0,3283.0,583.0,614.0,537.0,538.0
3253,523,528,1,3270.0,3280.0,550.0,583.0,532.0,537.0
3249,491,518,1,3253.0,3270.0,523.0,550.0,528.0,532.0
3257,472,539,1,3249.0,3253.0,491.0,523.0,518.0,528.0
3270,435,549,1,3257.0,3249.0,472.0,491.0,539.0,518.0
3288,377,568,1,3270.0,3257.0,435.0,472.0,549.0,539.0
3312,317,592,1,3288.0,3270.0,377.0,435.0,568.0,549.0
3330,266,609,1,3312.0,3288.0,317.0,377.0,592.0,568.0
3339,217,602,1,3330.0,3312.0,266.0,317.0,609.0,592.0
3346,168,590,1,3339.0,3330.0,217.0,266.0,602.0,609.0
3350,127,575,1,3346.0,3339.0,168.0,217.0,590.0,602.0
3357,75,571,1,3350.0,3346.0,127.0,168.0,575.0,590.0
3366,24,578,1,3357.0,3350.0,75.0,127.0,571.0,575.0
3370,-25,589,1,3366.0,3357.0,24.0,75.0,578.0,571.0
3375,-85,593,1,3370.0,3366.0,-25.0,24.0,589.0,578.0
3377,-138,594,1,3375.0,3370.0,-85.0,-25.0,593.0,589.0
3376,-193,592,1,3377.0,3375.0,-138.0,-85.0,594.0,593.0
3380,-249,595,1,3376.0,3377.0,-193.0,-138.0,592.0,594.0
3392,-282,602,1,3380.0,3376.0,-249.0,-193.0,595.0,592.0
3403,-316,623,1,3392.0,3380.0,-282.0,-249.0,602.0,595.0
3390,-355,650,1,3403.0,3392.0,-316.0,-282.0,623.0,602.0
3370,-375,674,1,3390.0,3403.0,-355.0,-316.0,650.0,623.0
3361,-390,692,1,3370.0,3390.0,-375.0,-355.0,674.0,650.0
3366,-395,717,1,3361.0,3370.0,-390.0,-375.0,692.0,674.0
3368,-410,718,1,3366.0,3361.0,-395.0,-390.0,717.0,692.0
3368,-422,721,1,3368.0,3366.0,-410.0,-395.0,718.0,717.0
3377,-432,734,1,3368.0,3368.0,-422.0,-410.0,721.0,718.0
3389,-454,751,1,3377.0,3368.0,-432.0,-422.0,734.0,721.0
3404,-483,784,1,3389.0,3377.0,-454.0,-432.0,751.0,734.0
3419,-502,824,1,3404.0,3389.0,-483.0,-454.0,784.0,751.0
3454,-531,888,1,3419.0,3404.0,-502.0,-483.0,824.0,784.0
3486,-548,943,1,3454.0,3419.0,-531.0,-502.0,888.0,824.0
3502,-558,981,1,3486.0,3454.0,-548.0,-531.0,943.0,888.0
3514,-581,996,1,3502.0,3486.0,-558.0,-548.0,981.0,943.0
3511,-607,981,1,3514.0,3502.0,-581.0,-558.0,996.0,981.0
3513,-629,970,1,3511.0,3514.0,-607.0,-581.0,981.0,996.0
3460,-660,952,1,3513.0,3511.0,-629.0,-607.0,970.0,981.0
3477,-689,950,1,3460.0,3513.0,-660.0,-629.0,952.0,970.0
3460,-718,937,1,3477.0,3460.0,-689.0,-660.0,950.0,952.0
3482,-754,936,1,3460.0,3477.0,-718.0,-689.0,937.0,950.0
3522,-781,951,1,3482.0,3460.0,-754.0,-718.0,936.0,937.0
3583,-821,934,1,3522.0,3482.0,-781.0,-754.0,951.0,936.0
3649,-845,915,1,3583.0,3522.0,-821.0,-781.0,934.0,951.0
3721,-867,896,1,3649.0,3583.0,-845.0,-821.0,915.0,934.0
3790,-889,886,1,3721.0,3649.0,-867.0,-845.0,896.0,915.0
3821,-898,880,1,3790.0,3721.0,-889.0,-867.0,886.0,896.0
3835,-898,881,1,3821.0,3790.0,-898.0,-889.0,880.0,886.0
3840,-891,903,1,3835.0,3821.0,-898.0,-898.0,881.0,880.0
3869,-903,925,1,3840.0,3835.0,-891.0,-898.0,903.0,881.0
3915,-921,975,1,3869.0,3840.0,-903.0,-891.0,925.0,903.0
3933,-942,1007,1,3915.0,3869.0,-921.0,-903.0,975.0,925.0
3975,-999,1067,1,3933.0,3915.0,-942.0,-921.0,1007.0,975.0
4018,-1043,1094,1,3975.0,3933.0,-999.0,-942.0,1067.0,1007.0
4102,-1057,1105,1,4018.0,3975.0,-1043.0,-999.0,1094.0,1067.0
4146,-1035,1130,1,4102.0,4018.0,-1057.0,-1043.0,1105.0,1094.0
4220,-1031,1145,1,4146.0,4102.0,-1035.0,-1057.0,1130.0,1105.0
4291,-1028,1151,1,4220.0,4146.0,-1031.0,-1035.0,1145.0,1130.0
4438,-1031,1164,1,4291.0,4220.0,-1028.0,-1031.0,1151.0,1145.0
4492,-1062,1206,1,4438.0,4291.0,-1031.0,-1028.0,1164.0,1151.0
4590,-1091,1203,1,4492.0,4438.0,-1062.0,-1031.0,1206.0,1164.0
4614,-1079,1193,1,4590.0,4492.0,-1091.0,-1062.0,1203.0,1206.0
4610,-1092,1186,1,4614.0,4590.0,-1079.0,-1091.0,1193.0,1203.0
4606,-1091,1213,1,4610.0,4614.0,-1092.0,-1079.0,1186.0,1193.0
4615,-1082,1242,1,4606.0,4610.0,-1091.0,-1092.0,1213.0,1186.0
4633,-1041,1281,1,4615.0,4606.0,-1082.0,-1091.0,1242.0,1213.0
4666,-970,1301,1,4633.0,4615.0,-1041.0,-1082.0,1281.0,1242.0
4715,-877,1276,1,4666.0,4633.0,-970.0,-1041.0,1301.0,1281.0
4771,-764,1213,1,4715.0,4666.0,-877.0,-970.0,1276.0,1301.0
4837,-644,1149,1,4771.0,4715.0,-764.0,-877.0,1213.0,1276.0
4888,-500,1072,1,4837.0,4771.0,-644.0,-764.0,1149.0,1213.0
4928,-330,952,1,4888.0,4837.0,-500.0,-644.0,1072.0,1149.0
4988,-147,778,1,4928.0,4888.0,-330.0,-500.0,952.0,1072.0
5079,25,631,1,4988.0,4928.0,-147.0,-330.0,778.0,952.0
5201,167,570,1,5079.0,4988.0,25.0,-147.0,631.0,778.0
5328,282,608,1,5201.0,5079.0,167.0,25.0,570.0,631.0
5455,381,713,1,5328.0,5201.0,282.0,167.0,608.0,570.0
5562,475,813,1,5455.0,5328.0,381.0,282.0,713.0,608.0
5681,574,871,1,5562.0,5455.0,475.0,381.0,813.0,713.0
5719,683,871,1,5681.0,5562.0,574.0,475.0,871.0,813.0
5573,784,759,1,5719.0,5681.0,683.0,574.0,871.0,871.0
5369,888,609,1,5573.0,5719.0,784.0,683.0,759.0,871.0
5167,965,460,1,5369.0,5573.0,888.0,784.0,609.0,759.0
4958,984,314,1,5167.0,5369.0,965.0,888.0,460.0,609.0
4746,970,222,1,4958.0,5167.0,984.0,965.0,314.0,460.0
4580,932,209,1,4746.0,4958.0,970.0,984.0,222.0,314.0
4443,861,243,1,4580.0,4746.0,932.0,970.0,209.0,222.0
4318,805,263,1,4443.0,4580.0,861.0,932.0,243.0,209.0
4210,751,230,1,4318.0,4443.0,805.0,861.0,263.0,243.0
4106,711,215,1,4210.0,4318.0,751.0,805.0,230.0,263.0
4000,642,183,1,4106.0,4210.0,711.0,751.0,215.0,230.0
3899,590,132,1,4000.0,4106.0,642.0,711.0,183.0,215.0
3790,508,66,1,3899.0,4000.0,590.0,642.0,132.0,183.0
3691,437,7,1,3790.0,3899.0,508.0,590.0,66.0,132.0
3598,367,-46,1,3691.0,3790.0,437.0,508.0,7.0,66.0
3523,311,-94,1,3598.0,3691.0,367.0,437.0,-46.0,7.0
3460,257,-146,1,3523.0,3598.0,311.0,367.0,-94.0,-46.0
3427,214,-207,1,3460.0,3523.0,257.0,311.0,-146.0,-94.0
3419,158,-291,1,3427.0,3460.0,214.0,257.0,-207.0,-146.0
3434,118,-386,1,3419.0,3427.0,158.0,214.0,-291.0,-207.0
3470,77,-471,1,3434.0,3419.0,118.0,158.0,-386.0,-291.0
3530,39,-532,1,3470.0,3434.0,77.0,118.0,-471.0,-386.0
3603,9,-568,1,3530.0,3470.0,39.0,77.0,-532.0,-471.0
3682,-16,-592,1,3603.0,3530.0,9.0,39.0,-568.0,-532.0
3788,-35,-585,1,3682.0,3603.0,-16.0,9.0,-592.0,-568.0
3903,-56,-526,1,3788.0,3682.0,-35.0,-16.0,-585.0,-592.0
4019,-74,-465,1,3903.0,3788.0,-56.0,-35.0,-526.0,-585.0
4124,-94,-434,1,4019.0,3903.0,-74.0,-56.0,-465.0,-526.0
4224,-91,-404,1,4124.0,4019.0,-94.0,-74.0,-434.0,-465.0
4316,-69,-366,1,4224.0,4124.0,-91.0,-94.0,-404.0,-434.0
4403,-37,-309,1,4316.0,4224.0,-69.0,-91.0,-366.0,-404.0
4467,-12,-245,1,4403.0,4316.0,-37.0,-69.0,-309.0,-366.0
4520,9,-184,1,4467.0,4403.0,-12.0,-37.0,-245.0,-309.0
4554,30,-146,1,4520.0,4467.0,9.0,-12.0,-184.0,-245.0
4578,36,-114,1,4554.0,4520.0,30.0,9.0,-146.0,-184.0
4573,34,-87,1,4578.0,4554.0,36.0,30.0,-114.0,-146.0
4555,13,-62,1,4573.0,4578.0,34.0,36.0,-87.0,-114.0
4524,-17,-42,1,4555.0,4573.0,13.0,34.0,-62.0,-87.0
4472,-50,-29,1,4524.0,4555.0,-17.0,13.0,-42.0,-62.0
4412,-67,-27,1,4472.0,4524.0,-50.0,-17.0,-29.0,-42.0
4340,-78,-49,1,4412.0,4472.0,-67.0,-50.0,-27.0,-29.0
4256,-86,-94,1,4340.0,4412.0,-78.0,-67.0,-49.0,-27.0
4179,-113,-126,1,4256.0,4340.0,-86.0,-78.0,-94.0,-49.0
4131,-134,-136,1,4179.0,4256.0,-113.0,-86.0,-126.0,-94.0
4070,-143,-155,1,4131.0,4179.0,-134.0,-113.0,-136.0,-126.0
3994,-136,-194,1,4070.0,4131.0,-143.0,-134.0,-155.0,-136.0
3922,-143,-251,1,3994.0,4070.0,-136.0,-143.0,-194.0,-155.0
3866,-143,-303,1,3922.0,3994.0,-143.0,-136.0,-251.0,-194.0
3829,-113,-321,1,3866.0,3922.0,-143.0,-143.0,-303.0,-251.0
3804,-93,-326,1,3829.0,3866.0,-113.0,-143.0,-321.0,-303.0
3786,-99,-331,1,3804.0,3829.0,-93.0,-113.0,-326.0,-321.0
3780,-115,-341,1,3786.0,3804.0,-99.0,-93.0,-331.0,-326.0
3806,-113,-318,1,3780.0,3786.0,-115.0,-99.0,-341.0,-331.0
3836,-99,-275,1,3806.0,3780.0,-113.0,-115.0,-318.0,-341.0
3863,-97,-210,1,3836.0,3806.0,-99.0,-113.0,-275.0,-318.0
3896,-99,-143,1,3863.0,3836.0,-97.0,-99.0,-210.0,-275.0
3914,-77,-82,1,3896.0,3863.0,-99.0,-97.0,-143.0,-210.0
3949,-136,-106,1,3914.0,3896.0,-77.0,-99.0,-82.0,-143.0
3988,-233,-153,1,3949.0,3914.0,-136.0,-77.0,-106.0,-82.0
4036,-261,-173,1,3988.0,3949.0,-233.0,-136.0,-153.0,-106.0
4057,-274,-211,1,4036.0,3988.0,-261.0,-233.0,-173.0,-153.0
4067,-248,-225,1,4057.0,4036.0,-274.0,-261.0,-211.0,-173.0
4073,-226,-230,1,4067.0,4057.0,-248.0,-274.0,-225.0,-211.0
4083,-232,-221,1,4073.0,4067.0,-226.0,-248.0,-230.0,-225.0
4098,-242,-200,1,4083.0,4073.0,-232.0,-226.0,-221.0,-230.0
4099,-261,-163,1,4098.0,4083.0,-242.0,-232.0,-200.0,-221.0
4097,-259,-128,1,4099.0,4098.0,-261.0,-242.0,-163.0,-200.0
4099,-262,-114,1,4097.0,4099.0,-259.0,-261.0,-128.0,-163.0
4102,-283,-139,1,4099.0,4097.0,-262.0,-259.0,-114.0,-128.0
4082,-290,-196,1,4102.0,4099.0,-283.0,-262.0,-139.0,-114.0
4078,-316,-206,1,4082.0,4102.0,-290.0,-283.0,-196.0,-139.0
4099,-340,-131,1,4078.0,4082.0,-316.0,-290.0,-206.0,-196.0
4123,-383,-78,1,4099.0,4078.0,-340.0,-316.0,-131.0,-206.0
4145,-423,-62,1,4123.0,4099.0,-383.0,-340.0,-78.0,-131.0
4142,-470,-47,1,4145.0,4123.0,-423.0,-383.0,-62.0,-78.0
4130,-557,-48,1,4142.0,4145.0,-470.0,-423.0,-47.0,-62.0
4120,-611,-81,1,4130.0,4142.0,-557.0,-470.0,-48.0,-47.0
4111,-661,-140,1,4120.0,4130.0,-611.0,-557.0,-81.0,-48.0
4097,-708,-160,1,4111.0,4120.0,-661.0,-611.0,-140.0,-81.0
4082,-728,-136,1,4097.0,4111.0,-708.0,-661.0,-160.0,-140.0
4007,-495,-36,1,4082.0,4097.0,-728.0,-708.0,-136.0,-160.0
3970,-859,-214,1,4007.0,4082.0,-495.0,-728.0,-36.0,-136.0
3973,-1014,-192,1,3970.0,4007.0,-859.0,-495.0,-214.0,-36.0
3931,-1086,-216,1,3973.0,3970.0,-1014.0,-859.0,-192.0,-214.0
3890,-1165,-176,1,3931.0,3973.0,-1086.0,-1014.0,-216.0,-192.0
3841,-1236,-172,1,3890.0,3931.0,-1165.0,-1086.0,-176.0,-216.0
3782,-1292,-213,1,3841.0,3890.0,-1236.0,-1165.0,-172.0,-176.0
3711,-1331,-243,1,3782.0,3841.0,-1292.0,-1236.0,-213.0,-172.0
3675,-1378,-240,1,3711.0,3782.0,-1331.0,-1292.0,-243.0,-213.0
3663,-1412,-183,1,3675.0,3711.0,-1378.0,-1331.0,-240.0,-243.0
3665,-1388,-110,1,3663.0,3675.0,-1412.0,-1378.0,-183.0,-240.0
3667,-1366,-56,1,3665.0,3663.0,-1388.0,-1412.0,-110.0,-183.0
3645,-1356,-40,1,3667.0,3665.0,-1366.0,-1388.0,-56.0,-110.0
3621,-1329,-37,1,3645.0,3667.0,-1356.0,-1366.0,-40.0,-56.0
3641,-1269,6,1,3621.0,3645.0,-1329.0,-1356.0,-37.0,-40.0
3675,-1217,50,1,3641.0,3621.0,-1269.0,-1329.0,6.0,-37.0
3710,-1166,84,1,3675.0,3641.0,-1217.0,-1269.0,50.0,6.0
3746,-1120,115,1,3710.0,3675.0,-1166.0,-1217.0,84.0,50.0
3781,-1066,144,1,3746.0,3710.0,-1120.0,-1166.0,115.0,84.0
3801,-1033,167,1,3781.0,3746.0,-1066.0,-1120.0,144.0,115.0
3819,-1009,199,1,3801.0,3781.0,-1033.0,-1066.0,167.0,144.0
3859,-996,232,1,3819.0,3801.0,-1009.0,-1033.0,199.0,167.0
3898,-990,268,1,3859.0,3819.0,-996.0,-1009.0,232.0,199.0
3919,-989,283,1,3898.0,3859.0,-990.0,-996.0,268.0,232.0
3917,-996,276,1,3919.0,3898.0,-989.0,-990.0,283.0,268.0
3927,-1002,270,1,3917.0,3919.0,-996.0,-989.0,276.0,283.0
3957,-1016,282,1,3927.0,3917.0,-1002.0,-996.0,270.0,276.0
3982,-1040,296,1,3957.0,3927.0,-1016.0,-1002.0,282.0,270.0
4013,-1070,336,1,3982.0,3957.0,-1040.0,-1016.0,296.0,282.0
4032,-1107,396,1,4013.0,3982.0,-1070.0,-1040.0,336.0,296.0
4036,-1140,429,1,4032.0,4013.0,-1107.0,-1070.0,396.0,336.0
4022,-1163,442,1,4036.0,4032.0,-1140.0,-1107.0,429.0,396.0
3998,-1192,453,1,4022.0,4036.0,-1163.0,-1140.0,442.0,429.0
3978,-1214,485,1,3998.0,4022.0,-1192.0,-1163.0,453.0,442.0
3966,-1237,538,1,3978.0,3998.0,-1214.0,-1192.0,485.0,453.0
3954,-1256,583,1,3966.0,3978.0,-1237.0,-1214.0,538.0,485.0
3930,-1269,609,1,3954.0,3966.0,-1256.0,-1237.0,583.0,538.0
3924,-1277,633,1,3930.0,3954.0,-1269.0,-1256.0,609.0,583.0
3934,-1274,664,1,3924.0,3930.0,-1277.0,-1269.0,633.0,609.0
3923,-1268,631,1,3934.0,3924.0,-1274.0,-1277.0,664.0,633.0
3887,-1264,502,1,3923.0,3934.0,-1268.0,-1274.0,631.0,664.0
3857,-1308,408,1,3887.0,3923.0,-1264.0,-1268.0,502.0,631.0
3853,-1336,373,1,3857.0,3887.0,-1308.0,-1264.0,408.0,502.0
3858,-1331,330,1,3853.0,3857.0,-1336.0,-1308.0,373.0,408.0
3876,-1296,307,1,3858.0,3853.0,-1331.0,-1336.0,330.0,373.0
3905,-1257,340,1,3876.0,3858.0,-1296.0,-1331.0,307.0,330.0
3939,-1216,407,1,3905.0,3876.0,-1257.0,-1296.0,340.0,307.0
3978,-1167,462,1,3939.0,3905.0,-1216.0,-1257.0,407.0,340.0
4017,-1109,479,1,3978.0,3939.0,-1167.0,-1216.0,462.0,407.0
4050,-1057,466,1,4017.0,3978.0,-1109.0,-1167.0,479.0,462.0
4076,-1007,461,1,4050.0,4017.0,-1057.0,-1109.0,466.0,479.0
4106,-960,449,1,4076.0,4050.0,-1007.0,-1057.0,461.0,466.0
4132,-924,448,1,4106.0,4076.0,-960.0,-1007.0,449.0,461.0
4140,-887,422,1,4132.0,4106.0,-924.0,-960.0,448.0,449.0
4158,-836,398,1,4140.0,4132.0,-887.0,-924.0,422.0,448.0
4168,-814,392,1,4158.0,4140.0,-836.0,-887.0,398.0,422.0
4180,-808,415,1,4168.0,4158.0,-814.0,-836.0,392.0,398.0
4193,-809,457,1,4180.0,4168.0,-808.0,-814.0,415.0,392.0
4203,-817,491,1,4193.0,4180.0,-809.0,-808.0,457.0,415.0
4211,-813,516,1,4203.0,4193.0,-817.0,-809.0,491.0,457.0
4225,-760,553,1,4211.0,4203.0,-813.0,-817.0,516.0,491.0
4198,-751,559,1,4225.0,4211.0,-760.0,-813.0,553.0,516.0
4225,-718,612,1,4198.0,4225.0,-751.0,-760.0,559.0,553.0
4259,-744,643,1,4225.0,4198.0,-718.0,-751.0,612.0,559.0
4273,-740,707,1,4259.0,4225.0,-744.0,-718.0,643.0,612.0
4288,-768,711,1,4273.0,4259.0,-740.0,-744.0,707.0,643.0
4303,-769,731,1,4288.0,4273.0,-768.0,-740.0,711.0,707.0
4319,-754,733,1,4303.0,4288.0,-769.0,-768.0,731.0,711.0
4342,-744,711,1,4319.0,4303.0,-754.0,-769.0,733.0,731.0
4352,-760,663,1,4342.0,4319.0,-744.0,-754.0,711.0,733.0
4357,-770,630,1,4352.0,4342.0,-760.0,-744.0,663.0,711.0
4363,-764,607,1,4357.0,4352.0,-770.0,-760.0,630.0,663.0
4388,-720,590,1,4363.0,4357.0,-764.0,-770.0,607.0,630.0
4425,-644,581,1,4388.0,4363.0,-720.0,-764.0,590.0,607.0
4476,-562,591,1,4425.0,4388.0,-644.0,-720.0,581.0,590.0
4554,-488,622,1,4476.0,4425.0,-562.0,-644.0,591.0,581.0
4635,-414,676,1,4554.0,4476.0,-488.0,-562.0,622.0,591.0
4716,-337,718,1,4635.0,4554.0,-414.0,-488.0,676.0,622.0
4810,-274,745,1,4716.0,4635.0,-337.0,-414.0,718.0,676.0
4897,-253,749,1,4810.0,4716.0,-274.0,-337.0,745.0,718.0
4991,-277,754,1,4897.0,4810.0,-253.0,-274.0,749.0,745.0
5072,-335,760,1,4991.0,4897.0,-277.0,-253.0,754.0,749.0
5112,-408,727,1,5072.0,4991.0,-335.0,-277.0,760.0,754.0
5105,-494,685,1,5112.0,5072.0,-408.0,-335.0,727.0,760.0
5076,-571,641,1,5105.0,5112.0,-494.0,-408.0,685.0,727.0
5053,-580,581,1,5076.0,5105.0,-571.0,-494.0,641.0,685.0
5026,-559,485,1,5053.0,5076.0,-580.0,-571.0,581.0,641.0
4975,-505,363,1,5026.0,5053.0,-559.0,-580.0,485.0,581.0
4907,-426,252,1,4975.0,5026.0,-505.0,-559.0,363.0,485.0
4847,-349,151,1,4907.0,4975.0,-426.0,-505.0,252.0,363.0
4790,-233,57,1,4847.0,4907.0,-349.0,-426.0,151.0,252.0
4752,-109,-34,1,4790.0,4847.0,-233.0,-349.0,57.0,151.0
4704,34,-69,1,4752.0,4790.0,-109.0,-233.0,-34.0,57.0
4680,170,-42,1,4704.0,4752.0,34.0,-109.0,-69.0,-34.0
4682,283,59,1,4680.0,4704.0,170.0,34.0,-42.0,-69.0
4691,418,100,1,4682.0,4680.0,283.0,170.0,59.0,-42.0
4652,593,29,1,4691.0,4682.0,418.0,283.0,100.0,59.0
4588,786,-64,1,4652.0,4691.0,593.0,418.0,29.0,100.0
4506,989,-104,1,4588.0,4652.0,786.0,593.0,-64.0,29.0
4418,1171,-48,1,4506.0,4588.0,989.0,786.0,-104.0,-64.0
4336,1307,86,1,4418.0,4506.0,1171.0,989.0,-48.0,-104.0
4259,1407,259,1,4336.0,4418.0,1307.0,1171.0,86.0,-48.0
4143,1463,395,1,4259.0,4336.0,1407.0,1307.0,259.0,86.0
3981,1511,428,1,4143.0,4259.0,1463.0,1407.0,395.0,259.0
3788,1526,423,1,3981.0,4143.0,1511.0,1463.0,428.0,395.0
3643,1513,490,1,3788.0,3981.0,1526.0,1511.0,423.0,428.0
3554,1466,599,1,3643.0,3788.0,1513.0,1526.0,490.0,423.0
3531,1405,711,1,3554.0,3643.0,1466.0,1513.0,599.0,490.0
3535,1336,729,1,3531.0,3554.0,1405.0,1466.0,711.0,599.0
3555,1276,655,1,3535.0,3531.0,1336.0,1405.0,729.0,711.0
3542,1196,519,1,3555.0,3535.0,1276.0,1336.0,655.0,729.0
3547,1124,401,1,3542.0,3555.0,1196.0,1276.0,519.0,655.0
3560,1046,350,1,3547.0,3542.0,1124.0,1196.0,401.0,519.0
3598,969,365,1,3560.0,3547.0,1046.0,1124.0,350.0,401.0
3710,917,398,1,3598.0,3560.0,969.0,1046.0,365.0,350.0
3820,843,414,1,3710.0,3598.0,917.0,969.0,398.0,365.0
3915,772,436,1,3820.0,3710.0,843.0,917.0,414.0,398.0
3990,727,468,1,3915.0,3820.0,772.0,843.0,436.0,414.0
4046,688,478,1,3990.0,3915.0,727.0,772.0,468.0,436.0
4077,639,469,1,4046.0,3990.0,688.0,727.0,478.0,468.0
4088,570,453,1,4077.0,4046.0,639.0,688.0,469.0,478.0
4099,500,440,1,4088.0,4077.0,570.0,639.0,453.0,469.0
4113,434,406,1,4099.0,4088.0,500.0,570.0,440.0,453.0
4123,358,356,1,4113.0,4099.0,434.0,500.0,406.0,440.0
4132,302,335,1,4123.0,4113.0,358.0,434.0,356.0,406.0
4130,268,316,1,4132.0,4123.0,302.0,358.0,335.0,356.0
4115,236,301,1,4130.0,4132.0,268.0,302.0,316.0,335.0
4105,194,327,1,4115.0,4130.0,236.0,268.0,301.0,316.0
4083,164,347,1,4105.0,4115.0,194.0,236.0,327.0,301.0
4053,143,352,1,4083.0,4105.0,164.0,194.0,347.0,327.0
4007,129,354,1,4053.0,4083.0,143.0,164.0,352.0,347.0
3968,129,381,1,4007.0,4053.0,129.0,143.0,354.0,352.0
3920,119,414,1,3968.0,4007.0,129.0,129.0,381.0,354.0
3868,138,438,1,3920.0,3968.0,119.0,129.0,414.0,381.0
3802,155,461,1,3868.0,3920.0,138.0,119.0,438.0,414.0
3775,114,496,1,3802.0,3868.0,155.0,138.0,461.0,438.0
3749,75,569,1,3775.0,3802.0,114.0,155.0,496.0,461.0
3682,60,602,1,3749.0,3775.0,75.0,114.0,569.0,496.0
3587,82,601,1,3682.0,3749.0,60.0,75.0,602.0,569.0
3497,118,578,1,3587.0,3682.0,82.0,60.0,601.0,602.0
3452,144,587,1,3497.0,3587.0,118.0,82.0,578.0,601.0
3409,181,627,1,3452.0,3497.0,144.0,118.0,587.0,578.0
3383,216,673,1,3409.0,3452.0,181.0,144.0,627.0,587.0
3375,230,707,1,3383.0,3409.0,216.0,181.0,673.0,627.0
3361,246,729,1,3375.0,3383.0,230.0,216.0,707.0,673.0
3346,284,740,1,3361.0,3375.0,246.0,230.0,729.0,707.0
3339,324,755,1,3346.0,3361.0,284.0,246.0,740.0,729.0
3335,354,760,1,3339.0,3346.0,324.0,284.0,755.0,740.0
3331,367,764,1,3335.0,3339.0,354.0,324.0,760.0,755.0
3325,359,771,1,3331.0,3335.0,367.0,354.0,764.0,760.0
3324,331,774,1,3325.0,3331.0,359.0,367.0,771.0,764.0
3328,301,769,1,3324.0,3325.0,331.0,359.0,774.0,771.0
3335,266,749,1,3328.0,3324.0,301.0,331.0,769.0,774.0
3328,240,711,1,3335.0,3328.0,266.0,301.0,749.0,769.0
3334,177,694,1,3328.0,3335.0,240.0,266.0,711.0,749.0
3348,100,717,1,3334.0,3328.0,177.0,240.0,694.0,711.0
3353,40,745,1,3348.0,3334.0,100.0,177.0,717.0,694.0
3353,-21,750,1,3353.0,3348.0,40.0,100.0,745.0,717.0
3358,-89,747,1,3353.0,3353.0,-21.0,40.0,750.0,745.0
3348,-139,760,1,3358.0,3353.0,-89.0,-21.0,747.0,750.0
3331,-202,779,1,3348.0,3358.0,-139.0,-89.0,760.0,747.0
3328,-255,807,1,3331.0,3348.0,-202.0,-139.0,779.0,760.0
3311,-299,843,1,3328.0,3331.0,-255.0,-202.0,807.0,779.0
3283,-322,883,1,3311.0,3328.0,-299.0,-255.0,843.0,807.0
3251,-336,906,1,3283.0,3311.0,-322.0,-299.0,883.0,843.0
3228,-347,932,1,3251.0,3283.0,-336.0,-322.0,906.0,883.0
3198,-359,951,1,3228.0,3251.0,-347.0,-336.0,932.0,906.0
3183,-363,975,1,3198.0,3228.0,-359.0,-347.0,951.0,932.0
3169,-367,989,1,3183.0,3198.0,-363.0,-359.0,975.0,951.0
3157,-371,990,1,3169.0,3183.0,-367.0,-363.0,989.0,975.0
3150,-376,985,1,3157.0,3169.0,-371.0,-367.0,990.0,989.0
3141,-383,976,1,3150.0,3157.0,-376.0,-371.0,985.0,990.0
3136,-390,979,1,3141.0,3150.0,-383.0,-376.0,976.0,985.0
3140,-397,1003,1,3136.0,3141.0,-390.0,-383.0,979.0,976.0
3159,-414,1022,1,3140.0,3136.0,-397.0,-390.0,1003.0,979.0
3185,-431,1063,1,3159.0,3140.0,-414.0,-397.0,1022.0,1003.0
3215,-448,1097,1,3185.0,3159.0,-431.0,-414.0,1063.0,1022.0
3243,-465,1134,1,3215.0,3185.0,-448.0,-431.0,1097.0,1063.0
3278,-482,1172,1,3243.0,3215.0,-465.0,-448.0,1134.0,1097.0
3328,-490,1213,1,3278.0,3243.0,-482.0,-465.0,1172.0,1134.0
3365,-500,1214,1,3328.0,3278.0,-490.0,-482.0,1213.0,1172.0
3402,-501,1200,1,3365.0,3328.0,-500.0,-490.0,1214.0,1213.0
3428,-504,1180,1,3402.0,3365.0,-501.0,-500.0,1200.0,1214.0
3446,-525,1156,1,3428.0,3402.0,-504.0,-501.0,1180.0,1200.0
3451,-541,1141,1,3446.0,3428.0,-525.0,-504.0,1156.0,1180.0
3458,-563,1139,1,3451.0,3446.0,-541.0,-525.0,1141.0,1156.0
3468,-584,1160,1,3458.0,3451.0,-563.0,-541.0,1139.0,1141.0
3470,-608,1178,1,3468.0,3458.0,-584.0,-563.0,1160.0,1139.0
3472,-627,1178,1,3470.0,3468.0,-608.0,-584.0,1178.0,1160.0
3467,-644,1168,1,3472.0,3470.0,-627.0,-608.0,1178.0,1178.0
3460,-665,1169,1,3467.0,3472.0,-644.0,-627.0,1168.0,1178.0
3456,-679,1160,1,3460.0,3467.0,-665.0,-644.0,1169.0,1168.0
3460,-690,1168,1,3456.0,3460.0,-679.0,-665.0,1160.0,1169.0
3472,-699,1178,1,3460.0,3456.0,-690.0,-679.0,1168.0,1160.0
3485,-698,1186,1,3472.0,3460.0,-699.0,-690.0,1178.0,1168.0
3508,-679,1207,1,3485.0,3472.0,-698.0,-699.0,1186.0,1178.0
3538,-651,1230,1,3508.0,3485.0,-679.0,-698.0,1207.0,1186.0
3575,-620,1259,1,3538.0,3508.0,-651.0,-679.0,1230.0,1207.0
3629,-596,1292,1,3575.0,3538.0,-620.0,-651.0,1259.0,1230.0
3683,-582,1326,1,3629.0,3575.0,-596.0,-620.0,1292.0,1259.0
3730,-576,1359,1,3683.0,3629.0,-582.0,-596.0,1326.0,1292.0
3769,-582,1390,1,3730.0,3683.0,-576.0,-582.0,1359.0,1326.0
3813,-591,1410,1,3769.0,3730.0,-582.0,-576.0,1390.0,1359.0
3864,-596,1423,1,3813.0,3769.0,-591.0,-582.0,1410.0,1390.0
3917,-604,1458,1,3864.0,3813.0,-596.0,-591.0,1423.0,1410.0
3962,-609,1474,1,3917.0,3864.0,-604.0,-596.0,1458.0,1423.0
4000,-619,1472,1,3962.0,3917.0,-609.0,-604.0,1474.0,1458.0
4046,-636,1482,1,4000.0,3962.0,-619.0,-609.0,1472.0,1474.0
4102,-670,1512,1,4046.0,4000.0,-636.0,-619.0,1482.0,1472.0
4183,-720,1558,1,4102.0,4046.0,-670.0,-636.0,1512.0,1482.0
4234,-767,1547,1,4183.0,4102.0,-720.0,-670.0,1558.0,1512.0
4278,-833,1530,1,4234.0,4183.0,-767.0,-720.0,1547.0,1558.0
4344,-894,1566,1,4278.0,4234.0,-833.0,-767.0,1530.0,1547.0
4433,-938,1680,1,4344.0,4278.0,-894.0,-833.0,1566.0,1530.0
4538,-1022,1825,1,4433.0,4344.0,-938.0,-894.0,1680.0,1566.0
4618,-1073,1978,1,4538.0,4433.0,-1022.0,-938.0,1825.0,1680.0
4699,-1105,2113,1,4618.0,4538.0,-1073.0,-1022.0,1978.0,1825.0
4808,-1141,2264,1,4699.0,4618.0,-1105.0,-1073.0,2113.0,1978.0
4875,-1184,2345,1,4808.0,4699.0,-1141.0,-1105.0,2264.0,2113.0
4936,-1126,2371,1,4875.0,4808.0,-1184.0,-1141.0,2345.0,2264.0
5009,-1013,2336,1,4936.0,4875.0,-1126.0,-1184.0,2371.0,2345.0
5057,-861,2261,1,5009.0,4936.0,-1013.0,-1126.0,2336.0,2371.0
5122,-726,2248,1,5057.0,5009.0,-861.0,-1013.0,2261.0,2336.0
5182,-650,2252,1,5122.0,5057.0,-726.0,-861.0,2248.0,2261.0
5235,-564,2272,1,5182.0,5122.0,-650.0,-726.0,2252.0,2248.0
5293,-499,2281,1,5235.0,5182.0,-564.0,-650.0,2272.0,2252.0
5361,-469,2271,1,5293.0,5235.0,-499.0,-564.0,2281.0,2272.0
5389,-426,2244,1,5361.0,5293.0,-469.0,-499.0,2271.0,2281.0
5378,-358,2193,1,5389.0,5361.0,-426.0,-469.0,2244.0,2271.0
5362,-335,2134,1,5378.0,5389.0,-358.0,-426.0,2193.0,2244.0
5327,-274,2070,1,5362.0,5378.0,-335.0,-358.0,2134.0,2193.0
5309,-211,1997,1,5327.0,5362.0,-274.0,-335.0,2070.0,2134.0
5319,-134,1900,1,5309.0,5327.0,-211.0,-274.0,1997.0,2070.0
5351,-48,1798,1,5319.0,5309.0,-134.0,-211.0,1900.0,1997.0
5391,64,1663,1,5351.0,5319.0,-48.0,-134.0,1798.0,1900.0
5392,186,1455,1,5391.0,5351.0,64.0,-48.0,1663.0,1798.0
5340,298,1173,1,5392.0,5391.0,186.0,64.0,1455.0,1663.0
5273,420,847,1,5340.0,5392.0,298.0,186.0,1173.0,1455.0
5173,536,555,1,5273.0,5340.0,420.0,298.0,847.0,1173.0
5038,614,360,1,5173.0,5273.0,536.0,420.0,555.0,847.0
4838,656,293,1,5038.0,5173.0,614.0,536.0,360.0,555.0
4590,695,301,1,4838.0,5038.0,656.0,614.0,293.0,360.0
4370,731,340,1,4590.0,4838.0,695.0,656.0,301.0,293.0
4166,783,375,1,4370.0,4590.0,731.0,695.0,340.0,301.0
4044,794,455,1,4166.0,4370.0,783.0,731.0,375.0,340.0
3950,749,551,1,4044.0,4166.0,794.0,783.0,455.0,375.0
3868,638,602,1,3950.0,4044.0,749.0,794.0,551.0,455.0
3804,518,558,1,3868.0,3950.0,638.0,749.0,602.0,551.0
3797,410,472,1,3804.0,3868.0,518.0,638.0,558.0,602.0
3781,305,381,1,3797.0,3804.0,410.0,518.0,472.0,558.0
3741,203,290,1,3781.0,3797.0,305.0,410.0,381.0,472.0
3694,133,211,1,3741.0,3781.0,203.0,305.0,290.0,381.0
3644,84,131,1,3694.0,3741.0,133.0,203.0,211.0,290.0
3609,54,87,1,3644.0,3694.0,84.0,133.0,131.0,211.0
3601,26,36,1,3609.0,3644.0,54.0,84.0,87.0,131.0
3609,3,-30,1,3601.0,3609.0,26.0,54.0,36.0,87.0
3629,-39,-113,1,3609.0,3601.0,3.0,26.0,-30.0,36.0
3658,-96,-196,1,3629.0,3609.0,-39.0,3.0,-113.0,-30.0
3685,-156,-260,1,3658.0,3629.0,-96.0,-39.0,-196.0,-113.0
3718,-214,-331,1,3685.0,3658.0,-156.0,-96.0,-260.0,-196.0
3752,-261,-418,1,3718.0,3685.0,-214.0,-156.0,-331.0,-260.0
3801,-277,-488,1,3752.0,3718.0,-261.0,-214.0,-418.0,-331.0
3859,-281,-542,1,3801.0,3752.0,-277.0,-261.0,-488.0,-418.0
3940,-268,-569,1,3859.0,3801.0,-281.0,-277.0,-542.0,-488.0
4013,-247,-582,1,3940.0,3859.0,-268.0,-281.0,-569.0,-542.0
4078,-241,-558,1,4013.0,3940.0,-247.0,-268.0,-582.0,-569.0
4163,-240,-498,1,4078.0,4013.0,-241.0,-247.0,-558.0,-582.0
4235,-250,-441,1,4163.0,4078.0,-240.0,-241.0,-498.0,-558.0
4301,-262,-363,1,4235.0,4163.0,-250.0,-240.0,-441.0,-498.0
4348,-267,-285,1,4301.0,4235.0,-262.0,-250.0,-363.0,-441.0
4388,-232,-182,1,4348.0,4301.0,-267.0,-262.0,-285.0,-363.0
4397,-238,-84,1,4388.0,4348.0,-232.0,-267.0,-182.0,-285.0
4401,-190,-6,1,4397.0,4388.0,-238.0,-232.0,-84.0,-182.0
4391,-130,31,1,4401.0,4397.0,-190.0,-238.0,-6.0,-84.0
4365,-66,66,1,4391.0,4401.0,-130.0,-190.0,31.0,-6.0
4330,-16,101,1,4365.0,4391.0,-66.0,-130.0,66.0,31.0
4284,34,152,1,4330.0,4365.0,-16.0,-66.0,101.0,66.0
4234,80,183,1,4284.0,4330.0,34.0,-16.0,152.0,101.0
4192,112,219,1,4234.0,4284.0,80.0,34.0,183.0,152.0
4146,135,243,1,4192.0,4234.0,112.0,80.0,219.0,183.0
4104,163,255,1,4146.0,4192.0,135.0,112.0,243.0,219.0
4044,175,250,1,4104.0,4146.0,163.0,135.0,255.0,243.0
4002,179,223,1,4044.0,4104.0,175.0,163.0,250.0,255.0
4013,188,197,1,4002.0,4044.0,179.0,175.0,223.0,250.0
4037,109,173,1,4013.0,4002.0,188.0,179.0,197.0,223.0
3812,106,119,1,4037.0,4013.0,109.0,188.0,173.0,197.0
3642,101,62,1,3812.0,4037.0,106.0,109.0,119.0,173.0
3567,67,25,1,3642.0,3812.0,101.0,106.0,62.0,119.0
3538,25,10,1,3567.0,3642.0,67.0,101.0,25.0,62.0
3513,-29,-13,1,3538.0,3567.0,25.0,67.0,10.0,25.0
3494,-62,-7,1,3513.0,3538.0,-29.0,25.0,-13.0,10.0
3484,-110,6,1,3494.0,3513.0,-62.0,-29.0,-7.0,-13.0
3481,-163,29,1,3484.0,3494.0,-110.0,-62.0,6.0,-7.0
3458,-191,45,1,3481.0,3484.0,-163.0,-110.0,29.0,6.0
3406,-155,86,1,3458.0,3481.0,-191.0,-163.0,45.0,29.0
3354,-199,54,1,3406.0,3458.0,-155.0,-191.0,86.0,45.0
3352,-310,26,1,3354.0,3406.0,-199.0,-155.0,54.0,86.0
3417,-418,25,1,3352.0,3354.0,-310.0,-199.0,26.0,54.0
3518,-520,38,1,3417.0,3352.0,-418.0,-310.0,25.0,26.0
3569,-605,61,1,3518.0,3417.0,-520.0,-418.0,38.0,25.0
3582,-633,104,1,3569.0,3518.0,-605.0,-520.0,61.0,38.0
3575,-647,129,1,3582.0,3569.0,-633.0,-605.0,104.0,61.0
3570,-656,146,1,3575.0,3582.0,-647.0,-633.0,129.0,104.0
3573,-668,180,1,3570.0,3575.0,-656.0,-647.0,146.0,129.0
3551,-673,195,1,3573.0,3570.0,-668.0,-656.0,180.0,146.0
3529,-671,184,1,3551.0,3573.0,-673.0,-668.0,195.0,180.0
3533,-675,183,1,3529.0,3551.0,-671.0,-673.0,184.0,195.0
3507,-705,197,1,3533.0,3529.0,-675.0,-671.0,183.0,184.0
3499,-719,208,1,3507.0,3533.0,-705.0,-675.0,197.0,183.0
3486,-723,208,1,3499.0,3507.0,-719.0,-705.0,208.0,197.0
3512,-721,223,1,3486.0,3499.0,-723.0,-719.0,208.0,208.0
3545,-725,241,1,3512.0,3486.0,-721.0,-723.0,223.0,208.0
3589,-723,287,1,3545.0,3512.0,-725.0,-721.0,241.0,223.0
3630,-714,307,1,3589.0,3545.0,-723.0,-725.0,287.0,241.0
3670,-693,330,1,3630.0,3589.0,-714.0,-723.0,307.0,287.0
3697,-677,355,1,3670.0,3630.0,-693.0,-714.0,330.0,307.0
3717,-671,388,1,3697.0,3670.0,-677.0,-693.0,355.0,330.0
3738,-671,433,1,3717.0,3697.0,-671.0,-677.0,388.0,355.0
3765,-683,473,1,3738.0,3717.0,-671.0,-671.0,433.0,388.0
3784,-711,502,1,3765.0,3738.0,-683.0,-671.0,473.0,433.0
3783,-737,507,1,3784.0,3765.0,-711.0,-683.0,502.0,473.0
3790,-761,515,1,3783.0,3784.0,-737.0,-711.0,507.0,502.0
3788,-791,528,1,3790.0,3783.0,-761.0,-737.0,515.0,507.0
3785,-818,550,1,3788.0,3790.0,-791.0,-761.0,528.0,515.0
3772,-849,553,1,3785.0,3788.0,-818.0,-791.0,550.0,528.0
3761,-878,543,1,3772.0,3785.0,-849.0,-818.0,553.0,550.0
3730,-901,547,1,3761.0,3772.0,-878.0,-849.0,543.0,553.0
3717,-923,555,1,3730.0,3761.0,-901.0,-878.0,547.0,543.0
3712,-933,556,1,3717.0,3730.0,-923.0,-901.0,555.0,547.0
3733,-916,558,1,3712.0,3717.0,-933.0,-923.0,556.0,555.0
3648,-959,543,1,3733.0,3712.0,-916.0,-933.0,558.0,556.0
3605,-985,598,1,3648.0,3733.0,-959.0,-916.0,543.0,558.0
3595,-1001,608,1,3605.0,3648.0,-985.0,-959.0,598.0,543.0
3587,-996,602,1,3595.0,3605.0,-1001.0,-985.0,608.0,598.0
3599,-978,580,1,3587.0,3595.0,-996.0,-1001.0,602.0,608.0
3624,-954,563,1,3599.0,3587.0,-978.0,-996.0,580.0,602.0
3639,-923,545,1,3624.0,3599.0,-954.0,-978.0,563.0,580.0
3645,-893,535,1,3639.0,3624.0,-923.0,-954.0,545.0,563.0
3655,-853,525,1,3645.0,3639.0,-893.0,-923.0,535.0,545.0
3673,-815,519,1,3655.0,3645.0,-853.0,-893.0,525.0,535.0
3690,-793,513,1,3673.0,3655.0,-815.0,-853.0,519.0,525.0
3705,-783,499,1,3690.0,3673.0,-793.0,-815.0,513.0,519.0
3712,-768,471,1,3705.0,3690.0,-783.0,-793.0,499.0,513.0
3720,-756,425,1,3712.0,3705.0,-768.0,-783.0,471.0,499.0
3728,-743,384,1,3720.0,3712.0,-756.0,-768.0,425.0,471.0
3740,-733,351,1,3728.0,3720.0,-743.0,-756.0,384.0,425.0
3756,-728,329,1,3740.0,3728.0,-733.0,-743.0,351.0,384.0
3772,-723,306,1,3756.0,3740.0,-728.0,-733.0,329.0,351.0
3800,-715,295,1,3772.0,3756.0,-723.0,-728.0,306.0,329.0
3827,-703,275,1,3800.0,3772.0,-715.0,-723.0,295.0,306.0
3864,-683,250,1,3827.0,3800.0,-703.0,-715.0,275.0,295.0
3905,-652,224,1,3864.0,3827.0,-683.0,-703.0,250.0,275.0
3946,-594,208,1,3905.0,3864.0,-652.0,-683.0,224.0,250.0
3997,-545,203,1,3946.0,3905.0,-594.0,-652.0,208.0,224.0
4048,-502,208,1,3997.0,3946.0,-545.0,-594.0,203.0,208.0
4092,-467,222,1,4048.0,3997.0,-502.0,-545.0,208.0,203.0
4147,-463,217,1,4092.0,4048.0,-467.0,-502.0,222.0,208.0
4189,-485,198,1,4147.0,4092.0,-463.0,-467.0,217.0,222.0
4231,-549,171,1,4189.0,4147.0,-485.0,-463.0,198.0,217.0
4267,-645,148,1,4231.0,4189.0,-549.0,-485.0,171.0,198.0
4313,-773,156,1,4267.0,4231.0,-645.0,-549.0,148.0,171.0
4367,-919,181,1,4313.0,4267.0,-773.0,-645.0,156.0,148.0
4422,-1054,246,1,4367.0,4313.0,-919.0,-773.0,181.0,156.0
4479,-1151,325,1,4422.0,4367.0,-1054.0,-919.0,246.0,181.0
4535,-1210,408,1,4479.0,4422.0,-1151.0,-1054.0,325.0,246.0
4566,-1283,462,1,4535.0,4479.0,-1210.0,-1151.0,408.0,325.0
4593,-1316,526,1,4566.0,4535.0,-1283.0,-1210.0,462.0,408.0
4611,-1353,584,1,4593.0,4566.0,-1316.0,-1283.0,526.0,462.0
4633,-1365,623,1,4611.0,4593.0,-1353.0,-1316.0,584.0,526.0
4651,-1362,631,1,4633.0,4611.0,-1365.0,-1353.0,623.0,584.0
4657,-1333,597,1,4651.0,4633.0,-1362.0,-1365.0,631.0,623.0
4658,-1291,553,1,4657.0,4651.0,-1333.0,-1362.0,597.0,631.0
4667,-1241,541,1,4658.0,4657.0,-1291.0,-1333.0,553.0,597.0
4682,-1205,566,1,4667.0,4658.0,-1241.0,-1291.0,541.0,553.0
4716,-1161,622,1,4682.0,4667.0,-1205.0,-1241.0,566.0,541.0
4766,-1097,654,1,4716.0,4682.0,-1161.0,-1205.0,622.0,566.0
4823,-1012,669,1,4766.0,4716.0,-1097.0,-1161.0,654.0,622.0
4898,-917,655,1,4823.0,4766.0,-1012.0,-1097.0,669.0,654.0
4982,-852,619,1,4898.0,4823.0,-917.0,-1012.0,655.0,669.0
5019,-769,564,1,4982.0,4898.0,-852.0,-917.0,619.0,655.0
5027,-695,470,1,5019.0,4982.0,-769.0,-852.0,564.0,619.0
5034,-640,380,1,5027.0,5019.0,-695.0,-769.0,470.0,564.0
5059,-597,379,1,5034.0,5027.0,-640.0,-695.0,380.0,470.0
5116,-611,386,1,5059.0,5034.0,-597.0,-640.0,379.0,380.0
5224,-615,393,1,5116.0,5059.0,-611.0,-597.0,386.0,379.0
5354,-623,378,1,5224.0,5116.0,-615.0,-611.0,393.0,386.0
5424,-601,316,1,5354.0,5224.0,-623.0,-615.0,378.0,393.0
5443,-583,190,1,5424.0,5354.0,-601.0,-623.0,316.0,378.0
5443,-480,113,1,5443.0,5424.0,-583.0,-601.0,190.0,316.0
5404,-336,43,1,5443.0,5443.0,-480.0,-583.0,113.0,190.0
5333,-186,-67,1,5404.0,5443.0,-336.0,-480.0,43.0,113.0
5256,13,-119,1,5333.0,5404.0,-186.0,-336.0,-67.0,43.0
5141,184,-130,1,5256.0,5333.0,13.0,-186.0,-119.0,-67.0
4996,386,-82,1,5141.0,5256.0,184.0,13.0,-130.0,-119.0
4801,566,-55,1,4996.0,5141.0,386.0,184.0,-82.0,-130.0
4583,755,-76,1,4801.0,4996.0,566.0,386.0,-55.0,-82.0
4362,984,-95,1,4583.0,4801.0,755.0,566.0,-76.0,-55.0
4195,1181,-107,1,4362.0,4583.0,984.0,755.0,-95.0,-76.0
4052,1333,-87,1,4195.0,4362.0,1181.0,984.0,-107.0,-95.0
3941,1449,-37,1,4052.0,4195.0,1333.0,1181.0,-87.0,-107.0
3883,1541,24,1,3941.0,4052.0,1449.0,1333.0,-37.0,-87.0
3859,1601,94,1,3883.0,3941.0,1541.0,1449.0,24.0,-37.0
3820,1634,167,1,3859.0,3883.0,1601.0,1541.0,94.0,24.0
3840,1613,253,1,3820.0,3859.0,1634.0,1601.0,167.0,94.0
3882,1545,335,1,3840.0,3820.0,1613.0,1634.0,253.0,167.0
3973,1436,430,1,3882.0,3840.0,1545.0,1613.0,335.0,253.0
4085,1320,553,1,3973.0,3882.0,1436.0,1545.0,430.0,335.0
4231,1188,656,1,4085.0,3973.0,1320.0,1436.0,553.0,430.0
4345,1041,735,1,4231.0,4085.0,1188.0,1320.0,656.0,553.0
4419,918,778,1,4345.0,4231.0,1041.0,1188.0,735.0,656.0
4464,820,772,1,4419.0,4345.0,918.0,1041.0,778.0,735.0
4519,715,731,1,4464.0,4419.0,820.0,918.0,772.0,778.0
4573,596,724,1,4519.0,4464.0,715.0,820.0,731.0,772.0
4596,475,727,1,4573.0,4519.0,596.0,715.0,724.0,731.0
4579,365,692,1,4596.0,4573.0,475.0,596.0,727.0,724.0
4549,290,667,1,4579.0,4596.0,365.0,475.0,692.0,727.0
4504,227,619,1,4549.0,4579.0,290.0,365.0,667.0,692.0
4477,185,588,1,4504.0,4549.0,227.0,290.0,619.0,667.0
4467,138,563,1,4477.0,4504.0,185.0,227.0,588.0,619.0
4437,63,523,1,4467.0,4477.0,138.0,185.0,563.0,588.0
4450,21,506,1,4437.0,4467.0,63.0,138.0,523.0,563.0
4463,-19,469,1,4450.0,4437.0,21.0,63.0,506.0,523.0
4440,-65,417,1,4463.0,4450.0,-19.0,21.0,469.0,506.0
4397,-79,365,1,4440.0,4463.0,-65.0,-19.0,417.0,469.0
4330,-87,281,1,4397.0,4440.0,-79.0,-65.0,365.0,417.0
4266,-88,227,1,4330.0,4397.0,-87.0,-79.0,281.0,365.0
4184,-79,218,1,4266.0,4330.0,-88.0,-87.0,227.0,281.0
4102,-48,236,1,4184.0,4266.0,-79.0,-88.0,218.0,227.0
4028,-8,271,1,4102.0,4184.0,-48.0,-79.0,236.0,218.0
3944,37,297,1,4028.0,4102.0,-8.0,-48.0,271.0,236.0
3842,81,300,1,3944.0,4028.0,37.0,-8.0,297.0,271.0
3736,121,348,1,3842.0,3944.0,81.0,37.0,300.0,297.0
3635,146,425,1,3736.0,3842.0,121.0,81.0,348.0,300.0
3556,190,483,1,3635.0,3736.0,146.0,121.0,425.0,348.0
3472,233,473,1,3556.0,3635.0,190.0,146.0,483.0,425.0
3388,261,436,1,3472.0,3556.0,233.0,190.0,473.0,483.0
3331,293,420,1,3388.0,3472.0,261.0,233.0,436.0,473.0
3274,321,407,1,3331.0,3388.0,293.0,261.0,420.0,436.0
3239,362,405,1,3274.0,3331.0,321.0,293.0,407.0,420.0
3259,354,463,1,3239.0,3274.0,362.0,321.0,405.0,407.0
3251,358,509,1,3259.0,3239.0,354.0,362.0,463.0,405.0
3237,385,525,1,3251.0,3259.0,358.0,354.0,509.0,463.0
3213,421,525,1,3237.0,3251.0,385.0,358.0,525.0,509.0
3208,432,532,1,3213.0,3237.0,421.0,385.0,525.0,525.0
3200,431,532,1,3208.0,3213.0,432.0,421.0,532.0,525.0
3178,427,546,1,3200.0,3208.0,431.0,432.0,532.0,532.0
3139,411,542,1,3178.0,3200.0,427.0,431.0,546.0,532.0
3101,425,542,1,3139.0,3178.0,411.0,427.0,542.0,546.0
3107,405,552,1,3101.0,3139.0,425.0,411.0,542.0,542.0
3122,388,588,1,3107.0,3101.0,405.0,425.0,552.0,542.0
3138,354,624,1,3122.0,3107.0,388.0,405.0,588.0,552.0
3142,324,663,1,3138.0,3122.0,354.0,388.0,624.0,588.0
3140,280,696,1,3142.0,3138.0,324.0,354.0,663.0,624.0
3132,247,722,1,3140.0,3142.0,280.0,324.0,696.0,663.0
3134,205,733,1,3132.0,3140.0,247.0,280.0,722.0,696.0
3135,170,747,1,3134.0,3132.0,205.0,247.0,733.0,722.0
3152,131,760,1,3135.0,3134.0,170.0,205.0,747.0,733.0
3167,96,772,1,3152.0,3135.0,131.0,170.0,760.0,747.0
3165,58,782,1,3167.0,3152.0,96.0,131.0,772.0,760.0
3158,25,791,1,3165.0,3167.0,58.0,96.0,782.0,772.0
3161,-19,792,1,3158.0,3165.0,25.0,58.0,791.0,782.0
3175,-59,802,1,3161.0,3158.0,-19.0,25.0,792.0,791.0
3191,-100,820,1,3175.0,3161.0,-59.0,-19.0,802.0,792.0
3195,-143,839,1,3191.0,3175.0,-100.0,-59.0,820.0,802.0
3204,-180,857,1,3195.0,3191.0,-143.0,-100.0,839.0,820.0
3201,-208,863,1,3204.0,3195.0,-180.0,-143.0,857.0,839.0
3199,-223,867,1,3201.0,3204.0,-208.0,-180.0,863.0,857.0
3192,-239,863,1,3199.0,3201.0,-223.0,-208.0,867.0,863.0
3181,-251,845,1,3192.0,3199.0,-239.0,-223.0,863.0,867.0
3178,-257,839,1,3181.0,3192.0,-251.0,-239.0,845.0,863.0
3177,-262,825,1,3178.0,3181.0,-257.0,-251.0,839.0,845.0
3178,-280,823,1,3177.0,3178.0,-262.0,-257.0,825.0,839.0
3190,-305,835,1,3178.0,3177.0,-280.0,-262.0,823.0,825.0
3201,-356,824,1,3190.0,3178.0,-305.0,-280.0,835.0,823.0
3210,-421,840,1,3201.0,3190.0,-356.0,-305.0,824.0,835.0
3220,-482,863,1,3210.0,3201.0,-421.0,-356.0,840.0,824.0
3235,-546,896,1,3220.0,3210.0,-482.0,-421.0,863.0,840.0
3258,-596,952,1,3235.0,3220.0,-546.0,-482.0,896.0,863.0
3285,-662,994,1,3258.0,3235.0,-596.0,-546.0,952.0,896.0
3319,-740,1021,1,3285.0,3258.0,-662.0,-596.0,994.0,952.0
3356,-808,1060,1,3319.0,3285.0,-740.0,-662.0,1021.0,994.0
3387,-878,1064,1,3356.0,3319.0,-808.0,-740.0,1060.0,1021.0
3414,-942,1032,1,3387.0,3356.0,-878.0,-808.0,1064.0,1060.0
3436,-980,994,1,3414.0,3387.0,-942.0,-878.0,1032.0,1064.0
3449,-1008,954,1,3436.0,3414.0,-980.0,-942.0,994.0,1032.0
3467,-1024,941,1,3449.0,3436.0,-1008.0,-980.0,954.0,994.0
3494,-1025,946,1,3467.0,3449.0,-1024.0,-1008.0,941.0,954.0
3533,-1018,959,1,3494.0,3467.0,-1025.0,-1024.0,946.0,941.0
3600,-991,1006,1,3533.0,3494.0,-1018.0,-1025.0,959.0,946.0
3675,-966,1087,1,3600.0,3533.0,-991.0,-1018.0,1006.0,959.0
3754,-946,1165,1,3675.0,3600.0,-966.0,-991.0,1087.0,1006.0
3822,-924,1229,1,3754.0,3675.0,-946.0,-966.0,1165.0,1087.0
3870,-902,1242,1,3822.0,3754.0,-924.0,-946.0,1229.0,1165.0
3903,-865,1225,1,3870.0,3822.0,-902.0,-924.0,1242.0,1229.0
3907,-832,1183,1,3903.0,3870.0,-865.0,-902.0,1225.0,1242.0
3906,-791,1150,1,3907.0,3903.0,-832.0,-865.0,1183.0,1225.0
3916,-745,1124,1,3906.0,3907.0,-791.0,-832.0,1150.0,1183.0
3929,-699,1109,1,3916.0,3906.0,-745.0,-791.0,1124.0,1150.0
3949,-642,1136,1,3929.0,3916.0,-699.0,-745.0,1109.0,1124.0
3990,-594,1178,1,3949.0,3929.0,-642.0,-699.0,1136.0,1109.0
4023,-574,1232,1,3990.0,3949.0,-594.0,-642.0,1178.0,1136.0
4052,-562,1281,1,4023.0,3990.0,-574.0,-594.0,1232.0,1178.0
4075,-560,1323,1,4052.0,4023.0,-562.0,-574.0,1281.0,1232.0
4087,-561,1366,1,4075.0,4052.0,-560.0,-562.0,1323.0,1281.0
4093,-577,1405,1,4087.0,4075.0,-561.0,-560.0,1366.0,1323.0
4098,-606,1440,1,4093.0,4087.0,-577.0,-561.0,1405.0,1366.0
4107,-654,1448,1,4098.0,4093.0,-606.0,-577.0,1440.0,1405.0
4107,-672,1416,1,4107.0,4098.0,-654.0,-606.0,1448.0,1440.0
4113,-664,1367,1,4107.0,4107.0,-672.0,-654.0,1416.0,1448.0
4116,-681,1346,1,4113.0,4107.0,-664.0,-672.0,1367.0,1416.0
4162,-680,1376,1,4116.0,4113.0,-681.0,-664.0,1346.0,1367.0
4193,-682,1440,1,4162.0,4116.0,-680.0,-681.0,1376.0,1346.0
4258,-649,1538,1,4193.0,4162.0,-682.0,-680.0,1440.0,1376.0
4347,-636,1606,1,4258.0,4193.0,-649.0,-682.0,1538.0,1440.0
4442,-554,1665,1,4347.0,4258.0,-636.0,-649.0,1606.0,1538.0
4567,-413,1636,1,4442.0,4347.0,-554.0,-636.0,1665.0,1606.0
4733,-238,1508,1,4567.0,4442.0,-413.0,-554.0,1636.0,1665.0
4965,-44,1337,1,4733.0,4567.0,-238.0,-413.0,1508.0,1636.0
5280,125,1119,1,4965.0,4733.0,-44.0,-238.0,1337.0,1508.0
5666,272,879,1,5280.0,4965.0,125.0,-44.0,1119.0,1337.0
6146,405,656,1,5666.0,5280.0,272.0,125.0,879.0,1119.0
6685,537,527,1,6146.0,5666.0,405.0,272.0,656.0,879.0
7193,659,460,1,6685.0,6146.0,537.0,405.0,527.0,656.0
7648,736,401,1,7193.0,6685.0,659.0,537.0,460.0,527.0
7886,725,254,1,7648.0,7193.0,736.0,659.0,401.0,460.0
7804,641,125,1,7886.0,7648.0,725.0,736.0,254.0,401.0
7393,497,92,1,7804.0,7886.0,641.0,725.0,125.0,254.0
6721,320,118,1,7393.0,7804.0,497.0,641.0,92.0,125.0
5890,167,189,1,6721.0,7393.0,320.0,497.0,118.0,92.0
5027,127,329,1,5890.0,6721.0,167.0,320.0,189.0,118.0
4318,57,494,1,5027.0,5890.0,127.0,167.0,329.0,189.0
3871,22,635,1,4318.0,5027.0,57.0,127.0,494.0,329.0
3620,-49,712,1,3871.0,4318.0,22.0,57.0,635.0,494.0
3454,-132,781,1,3620.0,3871.0,-49.0,22.0,712.0,635.0
3377,-240,877,1,3454.0,3620.0,-132.0,-49.0,781.0,712.0
3453,-369,921,1,3377.0,3454.0,-240.0,-132.0,877.0,781.0
3586,-456,935,1,3453.0,3377.0,-369.0,-240.0,921.0,877.0
3653,-518,942,1,3586.0,3453.0,-456.0,-369.0,935.0,921.0
3670,-556,908,1,3653.0,3586.0,-518.0,-456.0,942.0,935.0
3643,-598,792,1,3670.0,3653.0,-556.0,-518.0,908.0,942.0
3594,-646,588,1,3643.0,3670.0,-598.0,-556.0,792.0,908.0
3553,-688,329,1,3594.0,3643.0,-646.0,-598.0,588.0,792.0
3524,-723,50,1,3553.0,3594.0,-688.0,-646.0,329.0,588.0
3494,-767,-259,1,3524.0,3553.0,-723.0,-688.0,50.0,329.0
3486,-803,-559,1,3494.0,3524.0,-767.0,-723.0,-259.0,50.0
3510,-841,-747,1,3486.0,3494.0,-803.0,-767.0,-559.0,-259.0
3557,-877,-856,1,3510.0,3486.0,-841.0,-803.0,-747.0,-559.0
3607,-906,-964,1,3557.0,3510.0,-877.0,-841.0,-856.0,-747.0
3675,-895,-1049,1,3607.0,3557.0,-906.0,-877.0,-964.0,-856.0
3744,-884,-1095,1,3675.0,3607.0,-895.0,-906.0,-1049.0,-964.0
3815,-852,-1116,1,3744.0,3675.0,-884.0,-895.0,-1095.0,-1049.0
3906,-808,-1112,1,3815.0,3744.0,-852.0,-884.0,-1116.0,-1095.0
4100,-725,-1075,1,3906.0,3815.0,-808.0,-852.0,-1112.0,-1116.0
4277,-713,-1029,1,4100.0,3906.0,-725.0,-808.0,-1075.0,-1112.0
4183,-623,-914,1,4277.0,4100.0,-713.0,-725.0,-1029.0,-1075.0
4196,-515,-803,1,4183.0,4277.0,-623.0,-713.0,-914.0,-1029.0
4272,-427,-738,1,4196.0,4183.0,-515.0,-623.0,-803.0,-914.0
4324,-332,-636,1,4272.0,4196.0,-427.0,-515.0,-738.0,-803.0
4382,-259,-533,1,4324.0,4272.0,-332.0,-427.0,-636.0,-738.0
4432,-208,-446,1,4382.0,4324.0,-259.0,-332.0,-533.0,-636.0
4454,-143,-389,1,4432.0,4382.0,-208.0,-259.0,-446.0,-533.0
4443,-114,-345,1,4454.0,4432.0,-143.0,-208.0,-389.0,-446.0
4411,-80,-269,1,4443.0,4454.0,-114.0,-143.0,-345.0,-389.0
4363,-46,-195,1,4411.0,4443.0,-80.0,-114.0,-269.0,-345.0
4346,-14,-102,1,4363.0,4411.0,-46.0,-80.0,-195.0,-269.0
4316,23,-28,1,4346.0,4363.0,-14.0,-46.0,-102.0,-195.0
4263,61,18,1,4316.0,4346.0,23.0,-14.0,-28.0,-102.0
4218,105,49,1,4263.0,4316.0,61.0,23.0,18.0,-28.0
4215,138,90,1,4218.0,4263.0,105.0,61.0,49.0,18.0
4063,118,107,1,4215.0,4218.0,138.0,105.0,90.0,49.0
3963,147,138,1,4063.0,4215.0,118.0,138.0,107.0,90.0
3880,166,132,1,3963.0,4063.0,147.0,118.0,138.0,107.0
3797,151,107,1,3880.0,3963.0,166.0,147.0,132.0,138.0
3730,104,80,1,3797.0,3880.0,151.0,166.0,107.0,132.0
3687,56,69,1,3730.0,3797.0,104.0,151.0,80.0,107.0
3669,29,61,1,3687.0,3730.0,56.0,104.0,69.0,80.0
3601,-40,39,1,3669.0,3687.0,29.0,56.0,61.0,69.0
3525,-103,6,1,3601.0,3669.0,-40.0,29.0,39.0,61.0
3456,-165,-26,1,3525.0,3601.0,-103.0,-40.0,6.0,39.0
3398,-173,-9,1,3456.0,3525.0,-165.0,-103.0,-26.0,6.0
3376,-266,-54,1,3398.0,3456.0,-173.0,-165.0,-9.0,-26.0
3379,-353,-95,1,3376.0,3398.0,-266.0,-173.0,-54.0,-9.0
3368,-456,-130,1,3379.0,3376.0,-353.0,-266.0,-95.0,-54.0
3427,-564,-122,1,3368.0,3379.0,-456.0,-353.0,-130.0,-95.0
3545,-660,-91,1,3427.0,3368.0,-564.0,-456.0,-122.0,-130.0
3646,-743,-62,1,3545.0,3427.0,-660.0,-564.0,-91.0,-122.0
3665,-785,-51,1,3646.0,3545.0,-743.0,-660.0,-62.0,-91.0
3641,-798,-61,1,3665.0,3646.0,-785.0,-743.0,-51.0,-62.0
3604,-787,-66,1,3641.0,3665.0,-798.0,-785.0,-61.0,-51.0
3589,-771,-70,1,3604.0,3641.0,-787.0,-798.0,-66.0,-61.0
3591,-749,-35,1,3589.0,3604.0,-771.0,-787.0,-70.0,-66.0
3578,-723,-12,1,3591.0,3589.0,-749.0,-771.0,-35.0,-70.0
3536,-697,-34,1,3578.0,3591.0,-723.0,-749.0,-12.0,-35.0
3488,-669,-82,1,3536.0,3578.0,-697.0,-723.0,-34.0,-12.0
3463,-668,-114,1,3488.0,3536.0,-669.0,-697.0,-82.0,-34.0
3453,-669,-132,1,3463.0,3488.0,-668.0,-669.0,-114.0,-82.0
3463,-667,-145,1,3453.0,3463.0,-669.0,-668.0,-132.0,-114.0
3479,-663,-152,1,3463.0,3453.0,-667.0,-669.0,-145.0,-132.0
3506,-623,-146,1,3479.0,3463.0,-663.0,-667.0,-152.0,-145.0
3551,-582,-134,1,3506.0,3479.0,-623.0,-663.0,-146.0,-152.0
3606,-550,-134,1,3551.0,3506.0,-582.0,-623.0,-134.0,-146.0
3662,-509,-121,1,3606.0,3551.0,-550.0,-582.0,-134.0,-134.0
3729,-462,-92,1,3662.0,3606.0,-509.0,-550.0,-121.0,-134.0
3796,-421,-61,1,3729.0,3662.0,-462.0,-509.0,-92.0,-121.0
3861,-393,-38,1,3796.0,3729.0,-421.0,-462.0,-61.0,-92.0
3920,-370,-28,1,3861.0,3796.0,-393.0,-421.0,-38.0,-61.0
3971,-362,-13,1,3920.0,3861.0,-370.0,-393.0,-28.0,-38.0
4000,-356,-5,1,3971.0,3920.0,-362.0,-370.0,-13.0,-28.0
4023,-355,3,1,4000.0,3971.0,-356.0,-362.0,-5.0,-13.0
4045,-352,22,1,4023.0,4000.0,-355.0,-356.0,3.0,-5.0
4065,-366,54,1,4045.0,4023.0,-352.0,-355.0,22.0,3.0
4074,-376,81,1,4065.0,4045.0,-366.0,-352.0,54.0,22.0
4069,-377,79,1,4074.0,4065.0,-376.0,-366.0,81.0,54.0
4065,-387,112,1,4069.0,4074.0,-377.0,-376.0,79.0,81.0
4055,-411,156,1,4065.0,4069.0,-387.0,-377.0,112.0,79.0
4030,-449,167,1,4055.0,4065.0,-411.0,-387.0,156.0,112.0
3994,-499,141,1,4030.0,4055.0,-449.0,-411.0,167.0,156.0
3957,-561,88,1,3994.0,4030.0,-499.0,-449.0,141.0,167.0
3920,-603,60,1,3957.0,3994.0,-561.0,-499.0,88.0,141.0
3888,-642,70,1,3920.0,3957.0,-603.0,-561.0,60.0,88.0
3879,-691,107,1,3888.0,3920.0,-642.0,-603.0,70.0,60.0
3876,-731,140,1,3879.0,3888.0,-691.0,-642.0,107.0,70.0
3880,-756,166,1,3876.0,3879.0,-731.0,-691.0,140.0,107.0
3893,-769,207,1,3880.0,3876.0,-756.0,-731.0,166.0,140.0
3913,-769,252,1,3893.0,3880.0,-769.0,-756.0,207.0,166.0
3939,-759,294,1,3913.0,3893.0,-769.0,-769.0,252.0,207.0
3969,-732,319,1,3939.0,3913.0,-759.0,-769.0,294.0,252.0
3998,-709,317,1,3969.0,3939.0,-732.0,-759.0,319.0,294.0
4021,-687,296,1,3998.0,3969.0,-709.0,-732.0,317.0,319.0
4044,-659,269,1,4021.0,3998.0,-687.0,-709.0,296.0,317.0
4059,-647,245,1,4044.0,4021.0,-659.0,-687.0,269.0,296.0
4079,-639,221,1,4059.0,4044.0,-647.0,-659.0,245.0,269.0
4090,-620,196,1,4079.0,4059.0,-639.0,-647.0,221.0,245.0
4099,-610,161,1,4090.0,4079.0,-620.0,-639.0,196.0,221.0
4103,-596,119,1,4099.0,4090.0,-610.0,-620.0,161.0,196.0
4107,-578,86,1,4103.0,4099.0,-596.0,-610.0,119.0,161.0
4117,-551,86,1,4107.0,4103.0,-578.0,-596.0,86.0,119.0
4129,-531,87,1,4117.0,4107.0,-551.0,-578.0,86.0,86.0
4128,-528,47,1,4129.0,4117.0,-531.0,-551.0,87.0,86.0
4118,-515,-7,1,4128.0,4129.0,-528.0,-531.0,47.0,87.0
4113,-510,-70,1,4118.0,4128.0,-515.0,-528.0,-7.0,47.0
4108,-518,-99,1,4113.0,4118.0,-510.0,-515.0,-70.0,-7.0
4109,-523,-97,1,4108.0,4113.0,-518.0,-510.0,-99.0,-70.0
4117,-528,-62,1,4109.0,4108.0,-523.0,-518.0,-97.0,-99.0
4145,-539,-14,1,4117.0,4109.0,-528.0,-523.0,-62.0,-97.0
4181,-545,41,1,4145.0,4117.0,-539.0,-528.0,-14.0,-62.0
4224,-555,105,1,4181.0,4145.0,-545.0,-539.0,41.0,-14.0
4262,-558,181,1,4224.0,4181.0,-555.0,-545.0,105.0,41.0
4311,-556,255,1,4262.0,4224.0,-558.0,-555.0,181.0,105.0
4362,-559,311,1,4311.0,4262.0,-556.0,-558.0,255.0,181.0
4403,-561,357,1,4362.0,4311.0,-559.0,-556.0,311.0,255.0
4448,-565,405,1,4403.0,4362.0,-561.0,-559.0,357.0,311.0
4497,-584,441,1,4448.0,4403.0,-565.0,-561.0,405.0,357.0
4536,-604,463,1,4497.0,4448.0,-584.0,-565.0,441.0,405.0
4555,-638,482,1,4536.0,4497.0,-604.0,-584.0,463.0,441.0
4566,-691,500,1,4555.0,4536.0,-638.0,-604.0,482.0,463.0
4567,-732,536,1,4566.0,4555.0,-691.0,-638.0,500.0,482.0
4545,-823,534,1,4567.0,4566.0,-732.0,-691.0,536.0,500.0
4520,-900,548,1,4545.0,4567.0,-823.0,-732.0,534.0,536.0
4479,-979,549,1,4520.0,4545.0,-900.0,-823.0,548.0,534.0
4436,-1062,537,1,4479.0,4520.0,-979.0,-900.0,549.0,548.0
4382,-1162,505,1,4436.0,4479.0,-1062.0,-979.0,537.0,549.0
4299,-1212,484,1,4382.0,4436.0,-1162.0,-1062.0,505.0,537.0
4231,-1324,406,1,4299.0,4382.0,-1212.0,-1162.0,484.0,505.0
4164,-1386,337,1,4231.0,4299.0,-1324.0,-1212.0,406.0,484.0
4111,-1430,275,1,4164.0,4231.0,-1386.0,-1324.0,337.0,406.0
4052,-1460,249,1,4111.0,4164.0,-1430.0,-1386.0,275.0,337.0
4052,-1499,259,1,4052.0,4111.0,-1460.0,-1430.0,249.0,275.0
4079,-1522,283,1,4052.0,4052.0,-1499.0,-1460.0,259.0,249.0
4145,-1531,331,1,4079.0,4052.0,-1522.0,-1499.0,283.0,259.0
4253,-1531,341,1,4145.0,4079.0,-1531.0,-1522.0,331.0,283.0
4348,-1479,293,1,4253.0,4145.0,-1531.0,-1531.0,341.0,331.0
4417,-1382,212,1,4348.0,4253.0,-1479.0,-1531.0,293.0,341.0
4473,-1286,118,1,4417.0,4348.0,-1382.0,-1479.0,212.0,293.0
4505,-1163,14,1,4473.0,4417.0,-1286.0,-1382.0,118.0,212.0
4506,-1039,-95,1,4505.0,4473.0,-1163.0,-1286.0,14.0,118.0
4493,-885,-187,1,4506.0,4505.0,-1039.0,-1163.0,-95.0,14.0
4488,-740,-284,1,4493.0,4506.0,-885.0,-1039.0,-187.0,-95.0
4476,-583,-381,1,4488.0,4493.0,-740.0,-885.0,-284.0,-187.0
4486,-454,-473,1,4476.0,4488.0,-583.0,-740.0,-381.0,-284.0
4552,-329,-524,1,4486.0,4476.0,-454.0,-583.0,-473.0,-381.0
4637,-196,-550,1,4552.0,4486.0,-329.0,-454.0,-524.0,-473.0
4712,-86,-546,1,4637.0,4552.0,-196.0,-329.0,-550.0,-524.0
4780,12,-549,1,4712.0,4637.0,-86.0,-196.0,-546.0,-550.0
4834,101,-543,1,4780.0,4712.0,12.0,-86.0,-549.0,-546.0
4862,166,-528,1,4834.0,4780.0,101.0,12.0,-543.0,-549.0
4818,252,-503,1,4862.0,4834.0,166.0,101.0,-528.0,-543.0
4681,344,-513,1,4818.0,4862.0,252.0,166.0,-503.0,-528.0
4484,431,-536,1,4681.0,4818.0,344.0,252.0,-513.0,-503.0
4273,489,-562,1,4484.0,4681.0,431.0,344.0,-536.0,-513.0
4089,521,-564,1,4273.0,4484.0,489.0,431.0,-562.0,-536.0
3940,547,-533,1,4089.0,4273.0,521.0,489.0,-564.0,-562.0
3824,592,-454,1,3940.0,4089.0,547.0,521.0,-533.0,-564.0
3751,650,-353,1,3824.0,3940.0,592.0,547.0,-454.0,-533.0
3732,727,-269,1,3751.0,3824.0,650.0,592.0,-353.0,-454.0
3782,806,-184,1,3732.0,3751.0,727.0,650.0,-269.0,-353.0
3867,893,-99,1,3782.0,3732.0,806.0,727.0,-184.0,-269.0
3948,988,-25,1,3867.0,3782.0,893.0,806.0,-99.0,-184.0
4047,1037,70,1,3948.0,3867.0,988.0,893.0,-25.0,-99.0
4170,1074,182,1,4047.0,3948.0,1037.0,988.0,70.0,-25.0
4287,1077,313,1,4170.0,4047.0,1074.0,1037.0,182.0,70.0
4389,1044,426,1,4287.0,4170.0,1077.0,1074.0,313.0,182.0
4447,968,508,1,4389.0,4287.0,1044.0,1077.0,426.0,313.0
4471,855,564,1,4447.0,4389.0,968.0,1044.0,508.0,426.0
4486,699,609,1,4471.0,4447.0,855.0,968.0,564.0,508.0
4507,515,643,1,4486.0,4471.0,699.0,855.0,609.0,564.0
4500,322,674,1,4507.0,4486.0,515.0,699.0,643.0,609.0
4499,129,688,1,4500.0,4507.0,322.0,515.0,674.0,643.0
4479,-92,669,1,4499.0,4500.0,129.0,322.0,688.0,674.0
4455,-307,618,1,4479.0,4499.0,-92.0,129.0,669.0,688.0
4429,-486,577,1,4455.0,4479.0,-307.0,-92.0,618.0,669.0
4378,-673,526,1,4429.0,4455.0,-486.0,-307.0,577.0,618.0
4340,-827,494,1,4378.0,4429.0,-673.0,-486.0,526.0,577.0
4316,-942,461,1,4340.0,4378.0,-827.0,-673.0,494.0,526.0
4295,-1026,429,1,4316.0,4340.0,-942.0,-827.0,461.0,494.0
4274,-1065,393,1,4295.0,4316.0,-1026.0,-942.0,429.0,461.0
4256,-1047,369,1,4274.0,4295.0,-1065.0,-1026.0,393.0,429.0
4229,-1012,327,1,4256.0,4274.0,-1047.0,-1065.0,369.0,393.0
4192,-971,290,1,4229.0,4256.0,-1012.0,-1047.0,327.0,369.0
4146,-905,268,1,4192.0,4229.0,-971.0,-1012.0,290.0,327.0
4097,-838,244,1,4146.0,4192.0,-905.0,-971.0,268.0,290.0
4037,-768,231,1,4097.0,4146.0,-838.0,-905.0,244.0,268.0
3965,-699,231,1,4037.0,4097.0,-768.0,-838.0,231.0,244.0
3870,-621,225,1,3965.0,4037.0,-699.0,-768.0,231.0,231.0
3765,-528,237,1,3870.0,3965.0,-621.0,-699.0,225.0,231.0
3667,-424,259,1,3765.0,3870.0,-528.0,-621.0,237.0,225.0
3610,-294,284,1,3667.0,3765.0,-424.0,-528.0,259.0,237.0
3555,-211,291,1,3610.0,3667.0,-294.0,-424.0,284.0,259.0
3492,-142,302,1,3555.0,3610.0,-211.0,-294.0,291.0,284.0
3433,-65,322,1,3492.0,3555.0,-142.0,-211.0,302.0,291.0
3373,19,346,1,3433.0,3492.0,-65.0,-142.0,322.0,302.0
3327,98,359,1,3373.0,3433.0,19.0,-65.0,346.0,322.0
3299,135,360,1,3327.0,3373.0,98.0,19.0,359.0,346.0
3303,165,358,1,3299.0,3327.0,135.0,98.0,360.0,359.0
3300,200,357,1,3303.0,3299.0,165.0,135.0,358.0,360.0
3301,248,372,1,3300.0,3303.0,200.0,165.0,357.0,358.0
3321,253,389,1,3301.0,3300.0,248.0,200.0,372.0,357.0
3346,242,393,1,3321.0,3301.0,253.0,248.0,389.0,372.0
3381,247,405,1,3346.0,3321.0,242.0,253.0,393.0,389.0
3400,255,400,1,3381.0,3346.0,247.0,242.0,405.0,393.0
3435,239,408,1,3400.0,3381.0,255.0,247.0,400.0,405.0
3475,224,432,1,3435.0,3400.0,239.0,255.0,408.0,400.0
3506,198,446,1,3475.0,3435.0,224.0,239.0,432.0,408.0
3562,154,446,1,3506.0,3475.0,198.0,224.0,446.0,432.0
3628,109,444,1,3562.0,3506.0,154.0,198.0,446.0,446.0
3694,84,444,1,3628.0,3562.0,109.0,154.0,444.0,446.0
3757,72,446,1,3694.0,3628.0,84.0,109.0,444.0,444.0
3793,56,429,1,3757.0,3694.0,72.0,84.0,446.0,444.0
3805,33,412,1,3793.0,3757.0,56.0,72.0,429.0,446.0
3802,59,420,1,3805.0,3793.0,33.0,56.0,412.0,429.0
3842,42,416,1,3802.0,3805.0,59.0,33.0,420.0,412.0
3877,34,412,1,3842.0,3802.0,42.0,59.0,416.0,420.0
3903,20,413,1,3877.0,3842.0,34.0,42.0,412.0,416.0
3901,-7,404,1,3903.0,3877.0,20.0,34.0,413.0,412.0
3905,-39,407,1,3901.0,3903.0,-7.0,20.0,404.0,413.0
3902,-53,415,1,3905.0,3901.0,-39.0,-7.0,407.0,404.0
3913,-62,428,1,3902.0,3905.0,-53.0,-39.0,415.0,407.0
3919,-77,449,1,3913.0,3902.0,-62.0,-53.0,428.0,415.0
3936,-84,481,1,3919.0,3913.0,-77.0,-62.0,449.0,428.0
3946,-84,525,1,3936.0,3919.0,-84.0,-77.0,481.0,449.0
3943,-72,566,1,3946.0,3936.0,-84.0,-84.0,525.0,481.0
3928,-65,595,1,3943.0,3946.0,-72.0,-84.0,566.0,525.0
3903,-64,616,1,3928.0,3943.0,-65.0,-72.0,595.0,566.0
3865,-52,632,1,3903.0,3928.0,-64.0,-65.0,616.0,595.0
3822,-69,636,1,3865.0,3903.0,-52.0,-64.0,632.0,616.0
3774,-93,634,1,3822.0,3865.0,-69.0,-52.0,636.0,632.0
3738,-105,650,1,3774.0,3822.0,-93.0,-69.0,634.0,636.0
3714,-96,685,1,3738.0,3774.0,-105.0,-93.0,650.0,634.0
3691,-103,716,1,3714.0,3738.0,-96.0,-105.0,685.0,650.0
3672,-108,745,1,3691.0,3714.0,-103.0,-96.0,716.0,685.0
3649,-123,760,1,3672.0,3691.0,-108.0,-103.0,745.0,716.0
3632,-144,780,1,3649.0,3672.0,-123.0,-108.0,760.0,745.0
3642,-160,794,1,3632.0,3649.0,-144.0,-123.0,780.0,760.0
3667,-172,809,1,3642.0,3632.0,-160.0,-144.0,794.0,780.0
3687,-180,821,1,3667.0,3642.0,-172.0,-160.0,809.0,794.0
3706,-182,830,1,3687.0,3667.0,-180.0,-172.0,821.0,809.0
3714,-183,828,1,3706.0,3687.0,-182.0,-180.0,830.0,821.0
3714,-191,805,1,3714.0,3706.0,-183.0,-182.0,828.0,830.0
3707,-200,788,1,3714.0,3714.0,-191.0,-183.0,805.0,828.0
3698,-216,777,1,3707.0,3714.0,-200.0,-191.0,788.0,805.0
3680,-227,788,1,3698.0,3707.0,-216.0,-200.0,777.0,788.0
3662,-236,785,1,3680.0,3698.0,-227.0,-216.0,788.0,777.0
3647,-248,772,1,3662.0,3680.0,-236.0,-227.0,785.0,788.0
3629,-260,752,1,3647.0,3662.0,-248.0,-236.0,772.0,785.0
3604,-273,731,1,3629.0,3647.0,-260.0,-248.0,752.0,772.0
3592,-291,700,1,3604.0,3629.0,-273.0,-260.0,731.0,752.0
3570,-298,697,1,3592.0,3604.0,-291.0,-273.0,700.0,731.0
3565,-319,734,1,3570.0,3592.0,-298.0,-291.0,697.0,700.0
3565,-355,783,1,3565.0,3570.0,-319.0,-298.0,734.0,697.0
3560,-396,834,1,3565.0,3565.0,-355.0,-319.0,783.0,734.0
3557,-441,873,1,3560.0,3565.0,-396.0,-355.0,834.0,783.0
3559,-490,905,1,3557.0,3560.0,-441.0,-396.0,873.0,834.0
3554,-535,926,1,3559.0,3557.0,-490.0,-441.0,905.0,873.0
3546,-581,944,1,3554.0,3559.0,-535.0,-490.0,926.0,905.0
3540,-612,953,1,3546.0,3554.0,-581.0,-535.0,944.0,926.0
3541,-624,951,1,3540.0,3546.0,-612.0,-581.0,953.0,944.0
3539,-629,958,1,3541.0,3540.0,-624.0,-612.0,951.0,953.0
3563,-591,977,1,3539.0,3541.0,-629.0,-624.0,958.0,951.0
3600,-512,952,1,3563.0,3539.0,-591.0,-629.0,977.0,958.0
3637,-448,920,1,3600.0,3563.0,-512.0,-591.0,952.0,977.0
3680,-387,856,1,3637.0,3600.0,-448.0,-512.0,920.0,952.0
3715,-359,803,1,3680.0,3637.0,-387.0,-448.0,856.0,920.0
3741,-361,781,1,3715.0,3680.0,-359.0,-387.0,803.0,856.0
3781,-377,807,1,3741.0,3715.0,-361.0,-359.0,781.0,803.0
3826,-395,839,1,3781.0,3741.0,-377.0,-361.0,807.0,781.0
3876,-410,872,1,3826.0,3781.0,-395.0,-377.0,839.0,807.0
3916,-435,906,1,3876.0,3826.0,-410.0,-395.0,872.0,839.0
3944,-494,931,1,3916.0,3876.0,-435.0,-410.0,906.0,872.0
3937,-573,918,1,3944.0,3916.0,-494.0,-435.0,931.0,906.0
3910,-636,867,1,3937.0,3944.0,-573.0,-494.0,918.0,931.0
3898,-688,818,1,3910.0,3937.0,-636.0,-573.0,867.0,918.0
3907,-753,792,1,3898.0,3910.0,-688.0,-636.0,818.0,867.0
3931,-820,805,1,3907.0,3898.0,-753.0,-688.0,792.0,818.0
3979,-922,851,1,3931.0,3907.0,-820.0,-753.0,805.0,792.0
4019,-1011,906,1,3979.0,3931.0,-922.0,-820.0,851.0,805.0
4056,-1107,967,1,4019.0,3979.0,-1011.0,-922.0,906.0,851.0
4079,-1207,1031,1,4056.0,4019.0,-1107.0,-1011.0,967.0,906.0
4102,-1323,1101,1,4079.0,4056.0,-1207.0,-1107.0,1031.0,967.0
4129,-1440,1177,1,4102.0,4079.0,-1323.0,-1207.0,1101.0,1031.0
4152,-1552,1248,1,4129.0,4102.0,-1440.0,-1323.0,1177.0,1101.0
4165,-1673,1325,1,4152.0,4129.0,-1552.0,-1440.0,1248.0,1177.0
4172,-1771,1425,1,4165.0,4152.0,-1673.0,-1552.0,1325.0,1248.0
4188,-1862,1525,1,4172.0,4165.0,-1771.0,-1673.0,1425.0,1325.0
4150,-1916,1594,1,4188.0,4172.0,-1862.0,-1771.0,1525.0,1425.0
4125,-2003,1652,1,4150.0,4188.0,-1916.0,-1862.0,1594.0,1525.0
4104,-2099,1686,1,4125.0,4150.0,-2003.0,-1916.0,1652.0,1594.0
4102,-2200,1701,1,4104.0,4125.0,-2099.0,-2003.0,1686.0,1652.0
4100,-2267,1733,1,4102.0,4104.0,-2200.0,-2099.0,1701.0,1686.0
4058,-2293,1736,1,4100.0,4102.0,-2267.0,-2200.0,1733.0,1701.0
4047,-2300,1750,1,4058.0,4100.0,-2293.0,-2267.0,1736.0,1733.0
4040,-2309,1736,1,4047.0,4058.0,-2300.0,-2293.0,1750.0,1736.0
4060,-2299,1678,1,4040.0,4047.0,-2309.0,-2300.0,1736.0,1750.0
4112,-2217,1597,1,4060.0,4040.0,-2299.0,-2309.0,1678.0,1736.0
4186,-2080,1481,1,4112.0,4060.0,-2217.0,-2299.0,1597.0,1678.0
4292,-1847,1334,1,4186.0,4112.0,-2080.0,-2217.0,1481.0,1597.0
4433,-1602,1131,1,4292.0,4186.0,-1847.0,-2080.0,1334.0,1481.0
4642,-1253,933,1,4433.0,4292.0,-1602.0,-1847.0,1131.0,1334.0
4855,-966,579,1,4642.0,4433.0,-1253.0,-1602.0,933.0,1131.0
5087,-641,257,1,4855.0,4642.0,-966.0,-1253.0,579.0,933.0
5328,-335,-32,1,5087.0,4855.0,-641.0,-966.0,257.0,579.0
5564,-93,-265,1,5328.0,5087.0,-335.0,-641.0,-32.0,257.0
5726,142,-399,1,5564.0,5328.0,-93.0,-335.0,-265.0,-32.0
5840,296,-342,1,5726.0,5564.0,142.0,-93.0,-399.0,-265.0
5933,483,-128,1,5840.0,5726.0,296.0,142.0,-342.0,-399.0
6000,634,33,1,5933.0,5840.0,483.0,296.0,-128.0,-342.0
6029,814,156,1,6000.0,5933.0,634.0,483.0,33.0,-128.0
6014,1048,291,1,6029.0,6000.0,814.0,634.0,156.0,33.0
5940,1216,446,1,6014.0,6029.0,1048.0,814.0,291.0,156.0
5725,1217,571,1,5940.0,6014.0,1216.0,1048.0,446.0,291.0
5346,1129,682,1,5725.0,5940.0,1217.0,1216.0,571.0,446.0
4906,1007,783,1,5346.0,5725.0,1129.0,1217.0,682.0,571.0
4491,903,866,1,4906.0,5346.0,1007.0,1129.0,783.0,682.0
4153,830,884,1,4491.0,4906.0,903.0,1007.0,866.0,783.0
3946,728,813,1,4153.0,4491.0,830.0,903.0,884.0,866.0
3845,612,710,1,3946.0,4153.0,728.0,830.0,813.0,884.0
3764,472,607,1,3845.0,3946.0,612.0,728.0,710.0,813.0
3664,322,511,1,3764.0,3845.0,472.0,612.0,607.0,710.0
3569,185,432,1,3664.0,3764.0,322.0,472.0,511.0,607.0
3477,71,328,1,3569.0,3664.0,185.0,322.0,432.0,511.0
3381,-14,208,1,3477.0,3569.0,71.0,185.0,328.0,432.0
3285,-81,35,1,3381.0,3477.0,-14.0,71.0,208.0,328.0
3210,-151,-185,1,3285.0,3381.0,-81.0,-14.0,35.0,208.0
3164,-212,-401,1,3210.0,3285.0,-151.0,-81.0,-185.0,35.0
3160,-269,-583,1,3164.0,3210.0,-212.0,-151.0,-401.0,-185.0
3212,-319,-696,1,3160.0,3164.0,-269.0,-212.0,-583.0,-401.0
3323,-344,-757,1,3212.0,3160.0,-319.0,-269.0,-696.0,-583.0
3466,-382,-762,1,3323.0,3212.0,-344.0,-319.0,-757.0,-696.0
3640,-358,-738,1,3466.0,3323.0,-382.0,-344.0,-762.0,-757.0
3832,-313,-707,1,3640.0,3466.0,-358.0,-382.0,-738.0,-762.0
4025,-236,-658,1,3832.0,3640.0,-313.0,-358.0,-707.0,-738.0
4186,-192,-626,1,4025.0,3832.0,-236.0,-313.0,-658.0,-707.0
4341,-121,-560,1,4186.0,4025.0,-192.0,-236.0,-626.0,-658.0
4465,-62,-493,1,4341.0,4186.0,-121.0,-192.0,-560.0,-626.0
4564,34,-400,1,4465.0,4341.0,-62.0,-121.0,-493.0,-560.0
4591,79,-342,1,4564.0,4465.0,34.0,-62.0,-400.0,-493.0
4591,136,-250,1,4591.0,4564.0,79.0,34.0,-342.0,-400.0
4569,202,-160,1,4591.0,4591.0,136.0,79.0,-250.0,-342.0
4556,284,-62,1,4569.0,4591.0,202.0,136.0,-160.0,-250.0
4544,344,30,1,4556.0,4569.0,284.0,202.0,-62.0,-160.0
4521,394,117,1,4544.0,4556.0,344.0,284.0,30.0,-62.0
4490,438,196,1,4521.0,4544.0,394.0,344.0,117.0,30.0
4467,488,289,1,4490.0,4521.0,438.0,394.0,196.0,117.0
4444,514,372,1,4467.0,4490.0,488.0,438.0,289.0,196.0
4405,513,430,1,4444.0,4467.0,514.0,488.0,372.0,289.0
4332,486,428,1,4405.0,4444.0,513.0,514.0,430.0,372.0
4249,486,381,1,4332.0,4405.0,486.0,513.0,428.0,430.0
4281,447,341,1,4249.0,4332.0,486.0,486.0,381.0,428.0
4018,409,254,1,4281.0,4249.0,447.0,486.0,341.0,381.0
3809,392,203,1,4018.0,4281.0,409.0,447.0,254.0,341.0
3711,361,157,1,3809.0,4018.0,392.0,409.0,203.0,254.0
3637,345,123,1,3711.0,3809.0,361.0,392.0,157.0,203.0
3580,320,82,1,3637.0,3711.0,345.0,361.0,123.0,157.0
3539,288,47,1,3580.0,3637.0,320.0,345.0,82.0,123.0
3515,243,35,1,3539.0,3580.0,288.0,320.0,47.0,82.0
3480,173,13,1,3515.0,3539.0,243.0,288.0,35.0,47.0
3507,29,-24,1,3480.0,3515.0,173.0,243.0,13.0,35.0
3520,-47,-54,1,3507.0,3480.0,29.0,173.0,-24.0,13.0
3503,-66,-67,1,3520.0,3507.0,-47.0,29.0,-54.0,-24.0
3446,-71,-44,1,3503.0,3520.0,-66.0,-47.0,-67.0,-54.0
3341,-17,30,1,3446.0,3503.0,-71.0,-66.0,-44.0,-67.0
3272,-50,0,1,3341.0,3446.0,-17.0,-71.0,30.0,-44.0
3303,-174,-87,1,3272.0,3341.0,-50.0,-17.0,0.0,30.0
3399,-319,-117,1,3303.0,3272.0,-174.0,-50.0,-87.0,0.0
3524,-416,-99,1,3399.0,3303.0,-319.0,-174.0,-117.0,-87.0
3555,-372,-66,1,3524.0,3399.0,-416.0,-319.0,-99.0,-117.0
3550,-230,-9,1,3555.0,3524.0,-372.0,-416.0,-66.0,-99.0
3575,-350,-13,1,3550.0,3555.0,-230.0,-372.0,-9.0,-66.0
3584,-379,4,1,3575.0,3550.0,-350.0,-230.0,-13.0,-9.0
3608,-438,-33,1,3584.0,3575.0,-379.0,-350.0,4.0,-13.0
3613,-469,-53,1,3608.0,3584.0,-438.0,-379.0,-33.0,4.0
3643,-481,-80,1,3613.0,3608.0,-469.0,-438.0,-53.0,-33.0
3724,-500,-110,1,3643.0,3613.0,-481.0,-469.0,-80.0,-53.0
3685,-579,-155,1,3724.0,3643.0,-500.0,-481.0,-110.0,-80.0
3677,-595,-147,1,3685.0,3724.0,-579.0,-500.0,-155.0,-110.0
3661,-577,-145,1,3677.0,3685.0,-595.0,-579.0,-147.0,-155.0
3653,-539,-111,1,3661.0,3677.0,-577.0,-595.0,-145.0,-147.0
3677,-513,-64,1,3653.0,3661.0,-539.0,-577.0,-111.0,-145.0
3738,-472,2,1,3677.0,3653.0,-513.0,-539.0,-64.0,-111.0
3795,-442,-3,1,3738.0,3677.0,-472.0,-513.0,2.0,-64.0
3847,-415,-3,1,3795.0,3738.0,-442.0,-472.0,-3.0,2.0
3895,-371,17,1,3847.0,3795.0,-415.0,-442.0,-3.0,-3.0
3953,-337,47,1,3895.0,3847.0,-371.0,-415.0,17.0,-3.0
4014,-314,91,1,3953.0,3895.0,-337.0,-371.0,47.0,17.0
4060,-307,130,1,4014.0,3953.0,-314.0,-337.0,91.0,47.0
4080,-298,146,1,4060.0,4014.0,-307.0,-314.0,130.0,91.0
4095,-265,183,1,4080.0,4060.0,-298.0,-307.0,146.0,130.0
4114,-258,235,1,4095.0,4080.0,-265.0,-298.0,183.0,146.0
4139,-251,308,1,4114.0,4095.0,-258.0,-265.0,235.0,183.0
4137,-263,352,1,4139.0,4114.0,-251.0,-258.0,308.0,235.0
4131,-284,376,1,4137.0,4139.0,-263.0,-251.0,352.0,308.0
4116,-321,391,1,4131.0,4137.0,-284.0,-263.0,376.0,352.0
4098,-343,405,1,4116.0,4131.0,-321.0,-284.0,391.0,376.0
4050,-382,403,1,4098.0,4116.0,-343.0,-321.0,405.0,391.0
4025,-415,405,1,4050.0,4098.0,-382.0,-343.0,403.0,405.0
3981,-472,397,1,4025.0,4050.0,-415.0,-382.0,405.0,403.0
3949,-502,402,1,3981.0,4025.0,-472.0,-415.0,397.0,405.0
3901,-541,406,1,3949.0,3981.0,-502.0,-472.0,402.0,397.0
3867,-573,414,1,3901.0,3949.0,-541.0,-502.0,406.0,402.0
3847,-612,412,1,3867.0,3901.0,-573.0,-541.0,414.0,406.0
3825,-641,412,1,3847.0,3867.0,-612.0,-573.0,412.0,414.0
3821,-663,420,1,3825.0,3847.0,-641.0,-612.0,412.0,412.0
3833,-689,421,1,3821.0,3825.0,-663.0,-641.0,420.0,412.0
3848,-703,435,1,3833.0,3821.0,-689.0,-663.0,421.0,420.0
3856,-724,446,1,3848.0,3833.0,-703.0,-689.0,435.0,421.0
3875,-751,461,1,3856.0,3848.0,-724.0,-703.0,446.0,435.0
3888,-773,462,1,3875.0,3856.0,-751.0,-724.0,461.0,446.0
3901,-786,447,1,3888.0,3875.0,-773.0,-751.0,462.0,461.0
3924,-796,434,1,3901.0,3888.0,-786.0,-773.0,447.0,462.0
3940,-798,424,1,3924.0,3901.0,-796.0,-786.0,434.0,447.0
3944,-804,406,1,3940.0,3924.0,-798.0,-796.0,424.0,434.0
3963,-804,388,1,3944.0,3940.0,-804.0,-798.0,406.0,424.0
3986,-810,374,1,3963.0,3944.0,-804.0,-804.0,388.0,406.0
4017,-815,360,1,3986.0,3963.0,-810.0,-804.0,374.0,388.0
4044,-816,341,1,4017.0,3986.0,-815.0,-810.0,360.0,374.0
4056,-810,325,1,4044.0,4017.0,-816.0,-815.0,341.0,360.0
4068,-790,301,1,4056.0,4044.0,-810.0,-816.0,325.0,341.0
4076,-785,281,1,4068.0,4056.0,-790.0,-810.0,301.0,325.0
4088,-775,282,1,4076.0,4068.0,-785.0,-790.0,281.0,301.0
4100,-755,291,1,4088.0,4076.0,-775.0,-785.0,282.0,281.0
4109,-724,321,1,4100.0,4088.0,-755.0,-775.0,291.0,282.0
4114,-687,365,1,4109.0,4100.0,-724.0,-755.0,321.0,291.0
4118,-635,408,1,4114.0,4109.0,-687.0,-724.0,365.0,321.0
4132,-587,458,1,4118.0,4114.0,-635.0,-687.0,408.0,365.0
4163,-530,516,1,4132.0,4118.0,-587.0,-635.0,458.0,408.0
4189,-475,565,1,4163.0,4132.0,-530.0,-587.0,516.0,458.0
4209,-429,594,1,4189.0,4163.0,-475.0,-530.0,565.0,516.0
4232,-392,627,1,4209.0,4189.0,-429.0,-475.0,594.0,565.0
4248,-393,646,1,4232.0,4209.0,-392.0,-429.0,627.0,594.0
4265,-409,674,1,4248.0,4232.0,-393.0,-392.0,646.0,627.0
4282,-440,707,1,4265.0,4248.0,-409.0,-393.0,674.0,646.0
4296,-463,735,1,4282.0,4265.0,-440.0,-409.0,707.0,674.0
4299,-520,724,1,4296.0,4282.0,-463.0,-440.0,735.0,707.0
4306,-576,717,1,4299.0,4296.0,-520.0,-463.0,724.0,735.0
4300,-617,702,1,4306.0,4299.0,-576.0,-520.0,717.0,724.0
4292,-659,657,1,4300.0,4306.0,-617.0,-576.0,702.0,717.0
4270,-689,614,1,4292.0,4300.0,-659.0,-617.0,657.0,702.0
4247,-697,557,1,4270.0,4292.0,-689.0,-659.0,614.0,657.0
4213,-718,456,1,4247.0,4270.0,-697.0,-689.0,557.0,614.0
4189,-718,370,1,4213.0,4247.0,-718.0,-697.0,456.0,557.0
4167,-742,268,1,4189.0,4213.0,-718.0,-718.0,370.0,456.0
4151,-755,201,1,4167.0,4189.0,-742.0,-718.0,268.0,370.0
4148,-752,161,1,4151.0,4167.0,-755.0,-742.0,201.0,268.0
4150,-735,146,1,4148.0,4151.0,-752.0,-755.0,161.0,201.0
4172,-728,111,1,4150.0,4148.0,-735.0,-752.0,146.0,161.0
4220,-727,62,1,4172.0,4150.0,-728.0,-735.0,111.0,146.0
4294,-711,21,1,4220.0,4172.0,-727.0,-728.0,62.0,111.0
4382,-684,-31,1,4294.0,4220.0,-711.0,-727.0,21.0,62.0
4460,-636,-111,1,4382.0,4294.0,-684.0,-711.0,-31.0,21.0
4540,-589,-224,1,4460.0,4382.0,-636.0,-684.0,-111.0,-31.0
4623,-532,-300,1,4540.0,4460.0,-589.0,-636.0,-224.0,-111.0
4684,-502,-361,1,4623.0,4540.0,-532.0,-589.0,-300.0,-224.0
4758,-452,-372,1,4684.0,4623.0,-502.0,-532.0,-361.0,-300.0
4825,-415,-412,1,4758.0,4684.0,-452.0,-502.0,-372.0,-361.0
4889,-325,-424,1,4825.0,4758.0,-415.0,-452.0,-412.0,-372.0
4933,-243,-459,1,4889.0,4825.0,-325.0,-415.0,-424.0,-412.0
4964,-131,-462,1,4933.0,4889.0,-243.0,-325.0,-459.0,-424.0
4967,-12,-420,1,4964.0,4933.0,-131.0,-243.0,-462.0,-459.0
4929,87,-387,1,4967.0,4964.0,-12.0,-131.0,-420.0,-462.0
4851,213,-357,1,4929.0,4967.0,87.0,-12.0,-387.0,-420.0
4772,358,-337,1,4851.0,4929.0,213.0,87.0,-357.0,-387.0
4703,521,-318,1,4772.0,4851.0,358.0,213.0,-337.0,-357.0
4645,696,-257,1,4703.0,4772.0,521.0,358.0,-318.0,-337.0
4610,858,-198,1,4645.0,4703.0,696.0,521.0,-257.0,-318.0
4585,1004,-125,1,4610.0,4645.0,858.0,696.0,-198.0,-257.0
4576,1119,-61,1,4585.0,4610.0,1004.0,858.0,-125.0,-198.0
4577,1197,-5,1,4576.0,4585.0,1119.0,1004.0,-61.0,-125.0
4588,1234,69,1,4577.0,4576.0,1197.0,1119.0,-5.0,-61.0
4581,1229,130,1,4588.0,4577.0,1234.0,1197.0,69.0,-5.0
4577,1191,189,1,4581.0,4588.0,1229.0,1234.0,130.0,69.0
4588,1108,234,1,4577.0,4581.0,1191.0,1229.0,189.0,130.0
4637,982,299,1,4588.0,4577.0,1108.0,1191.0,234.0,189.0
4688,828,366,1,4637.0,4588.0,982.0,1108.0,299.0,234.0
4728,656,428,1,4688.0,4637.0,828.0,982.0,366.0,299.0
4754,430,456,1,4728.0,4688.0,656.0,828.0,428.0,366.0
4733,197,462,1,4754.0,4728.0,430.0,656.0,456.0,428.0
4688,-54,444,1,4733.0,4754.0,197.0,430.0,462.0,456.0
4637,-289,424,1,4688.0,4733.0,-54.0,197.0,444.0,462.0
4598,-540,403,1,4637.0,4688.0,-289.0,-54.0,424.0,444.0
4574,-722,420,1,4598.0,4637.0,-540.0,-289.0,403.0,424.0
4545,-900,408,1,4574.0,4598.0,-722.0,-540.0,420.0,403.0
4541,-1011,432,1,4545.0,4574.0,-900.0,-722.0,408.0,420.0
4536,-1080,427,1,4541.0,4545.0,-1011.0,-900.0,432.0,408.0
4546,-1100,420,1,4536.0,4541.0,-1080.0,-1011.0,427.0,432.0
4565,-1099,420,1,4546.0,4536.0,-1100.0,-1080.0,420.0,427.0
4563,-1083,421,1,4565.0,4546.0,-1099.0,-1100.0,420.0,420.0
4533,-1047,402,1,4563.0,4565.0,-1083.0,-1099.0,421.0,420.0
4500,-997,386,1,4533.0,4563.0,-1047.0,-1083.0,402.0,421.0
4440,-924,345,1,4500.0,4533.0,-997.0,-1047.0,386.0,402.0
4369,-826,328,1,4440.0,4500.0,-924.0,-997.0,345.0,386.0
4292,-737,317,1,4369.0,4440.0,-826.0,-924.0,328.0,345.0
4179,-661,296,1,4292.0,4369.0,-737.0,-826.0,317.0,328.0
4040,-571,279,1,4179.0,4292.0,-661.0,-737.0,296.0,317.0
3899,-469,279,1,4040.0,4179.0,-571.0,-661.0,279.0,296.0
3769,-380,302,1,3899.0,4040.0,-469.0,-571.0,279.0,279.0
3665,-301,330,1,3769.0,3899.0,-380.0,-469.0,302.0,279.0
3577,-232,373,1,3665.0,3769.0,-301.0,-380.0,330.0,302.0
3518,-167,417,1,3577.0,3665.0,-232.0,-301.0,373.0,330.0
3411,-118,422,1,3518.0,3577.0,-167.0,-232.0,417.0,373.0
3314,-45,442,1,3411.0,3518.0,-118.0,-167.0,422.0,417.0
3226,16,459,1,3314.0,3411.0,-45.0,-118.0,442.0,422.0
3215,128,484,1,3226.0,3314.0,16.0,-45.0,459.0,442.0
3181,226,470,1,3215.0,3226.0,128.0,16.0,484.0,459.0
3149,279,446,1,3181.0,3215.0,226.0,128.0,470.0,484.0
3130,307,413,1,3149.0,3181.0,279.0,226.0,446.0,470.0
3119,335,396,1,3130.0,3149.0,307.0,279.0,413.0,446.0
3109,377,389,1,3119.0,3130.0,335.0,307.0,396.0,413.0
3096,411,387,1,3109.0,3119.0,377.0,335.0,389.0,396.0
3081,450,384,1,3096.0,3109.0,411.0,377.0,387.0,389.0
3106,425,378,1,3081.0,3096.0,450.0,411.0,384.0,387.0
3150,375,372,1,3106.0,3081.0,425.0,450.0,378.0,384.0
3187,339,376,1,3150.0,3106.0,375.0,425.0,372.0,378.0
3225,305,389,1,3187.0,3150.0,339.0,375.0,376.0,372.0
3261,246,429,1,3225.0,3187.0,305.0,339.0,389.0,376.0
3296,198,463,1,3261.0,3225.0,246.0,305.0,429.0,389.0
3347,154,480,1,3296.0,3261.0,198.0,246.0,463.0,429.0
3409,113,499,1,3347.0,3296.0,154.0,198.0,480.0,463.0
3458,73,518,1,3409.0,3347.0,113.0,154.0,499.0,480.0
3501,46,527,1,3458.0,3409.0,73.0,113.0,518.0,499.0
3518,16,518,1,3501.0,3458.0,46.0,73.0,527.0,518.0
3544,-28,498,1,3518.0,3501.0,16.0,46.0,518.0,527.0
3568,-90,489,1,3544.0,3518.0,-28.0,16.0,498.0,518.0
3588,-113,536,1,3568.0,3544.0,-90.0,-28.0,489.0,498.0
3594,-106,574,1,3588.0,3568.0,-113.0,-90.0,536.0,489.0
3608,-80,615,1,3594.0,3588.0,-106.0,-113.0,574.0,536.0
3607,-99,631,1,3608.0,3594.0,-80.0,-106.0,615.0,574.0
3610,-119,665,1,3607.0,3608.0,-99.0,-80.0,631.0,615.0
3614,-146,690,1,3610.0,3607.0,-119.0,-99.0,665.0,631.0
3600,-171,713,1,3614.0,3610.0,-146.0,-119.0,690.0,665.0
3580,-180,752,1,3600.0,3614.0,-171.0,-146.0,713.0,690.0
3554,-198,792,1,3580.0,3600.0,-180.0,-171.0,752.0,713.0
3523,-203,819,1,3554.0,3580.0,-198.0,-180.0,792.0,752.0
3498,-213,815,1,3523.0,3554.0,-203.0,-198.0,819.0,792.0
3472,-234,802,1,3498.0,3523.0,-213.0,-203.0,815.0,819.0
3464,-249,817,1,3472.0,3498.0,-234.0,-213.0,802.0,815.0
3464,-260,863,1,3464.0,3472.0,-249.0,-234.0,817.0,802.0
3459,-281,930,1,3464.0,3464.0,-260.0,-249.0,863.0,817.0
3478,-285,976,1,3459.0,3464.0,-281.0,-260.0,930.0,863.0
3505,-297,986,1,3478.0,3459.0,-285.0,-281.0,976.0,930.0
3531,-290,983,1,3505.0,3478.0,-297.0,-285.0,986.0,976.0
3549,-297,952,1,3531.0,3505.0,-290.0,-297.0,983.0,986.0
3549,-297,911,1,3549.0,3531.0,-297.0,-290.0,952.0,983.0
3531,-289,829,1,3549.0,3549.0,-297.0,-297.0,911.0,952.0
3503,-281,705,1,3531.0,3549.0,-289.0,-297.0,829.0,911.0
3466,-268,600,1,3503.0,3531.0,-281.0,-289.0,705.0,829.0
3447,-279,576,1,3466.0,3503.0,-268.0,-281.0,600.0,705.0
3444,-318,614,1,3447.0,3466.0,-279.0,-268.0,576.0,600.0
3456,-374,692,1,3444.0,3447.0,-318.0,-279.0,614.0,576.0
3474,-446,775,1,3456.0,3444.0,-374.0,-318.0,692.0,614.0
3504,-509,850,1,3474.0,3456.0,-446.0,-374.0,775.0,692.0
3520,-558,889,1,3504.0,3474.0,-509.0,-446.0,850.0,775.0
3525,-597,913,1,3520.0,3504.0,-558.0,-509.0,889.0,850.0
3523,-633,911,1,3525.0,3520.0,-597.0,-558.0,913.0,889.0
3523,-659,909,1,3523.0,3525.0,-633.0,-597.0,911.0,913.0
3513,-693,907,1,3523.0,3523.0,-659.0,-633.0,909.0,911.0
3503,-713,907,1,3513.0,3523.0,-693.0,-659.0,907.0,909.0
3524,-727,946,1,3503.0,3513.0,-713.0,-693.0,907.0,907.0
3547,-731,975,1,3524.0,3503.0,-727.0,-713.0,946.0,907.0
3585,-672,989,1,3547.0,3524.0,-731.0,-727.0,975.0,946.0
3655,-571,1025,1,3585.0,3547.0,-672.0,-731.0,989.0,975.0
3729,-489,1060,1,3655.0,3585.0,-571.0,-672.0,1025.0,989.0
3788,-458,1117,1,3729.0,3655.0,-489.0,-571.0,1060.0,1025.0
3818,-464,1166,1,3788.0,3729.0,-458.0,-489.0,1117.0,1060.0
3840,-472,1199,1,3818.0,3788.0,-464.0,-458.0,1166.0,1117.0
3847,-493,1185,1,3840.0,3818.0,-472.0,-464.0,1199.0,1166.0
3845,-516,1130,1,3847.0,3840.0,-493.0,-472.0,1185.0,1199.0
3847,-538,1069,1,3845.0,3847.0,-516.0,-493.0,1130.0,1185.0
3867,-564,1030,1,3847.0,3845.0,-538.0,-516.0,1069.0,1130.0
3908,-596,1002,1,3867.0,3847.0,-564.0,-538.0,1030.0,1069.0
3957,-627,987,1,3908.0,3867.0,-596.0,-564.0,1002.0,1030.0
4002,-667,972,1,3957.0,3908.0,-627.0,-596.0,987.0,1002.0
4045,-724,976,1,4002.0,3957.0,-667.0,-627.0,972.0,987.0
4078,-809,1015,1,4045.0,4002.0,-724.0,-667.0,976.0,972.0
4109,-929,1075,1,4078.0,4045.0,-809.0,-724.0,1015.0,976.0
4138,-1059,1161,1,4109.0,4078.0,-929.0,-809.0,1075.0,1015.0
4165,-1200,1242,1,4138.0,4109.0,-1059.0,-929.0,1161.0,1075.0
4184,-1340,1304,1,4165.0,4138.0,-1200.0,-1059.0,1242.0,1161.0
4189,-1468,1360,1,4184.0,4165.0,-1340.0,-1200.0,1304.0,1242.0
4157,-1600,1413,1,4189.0,4184.0,-1468.0,-1340.0,1360.0,1304.0
4160,-1710,1485,1,4157.0,4189.0,-1600.0,-1468.0,1413.0,1360.0
4182,-1777,1581,1,4160.0,4157.0,-1710.0,-1600.0,1485.0,1413.0
4207,-1822,1649,1,4182.0,4160.0,-1777.0,-1710.0,1581.0,1485.0
4212,-1843,1640,1,4207.0,4182.0,-1822.0,-1777.0,1649.0,1581.0
4202,-1847,1577,1,4212.0,4207.0,-1843.0,-1822.0,1640.0,1649.0
4202,-1875,1560,1,4202.0,4212.0,-1847.0,-1843.0,1577.0,1640.0
4229,-1907,1566,1,4202.0,4202.0,-1875.0,-1847.0,1560.0,1577.0
4261,-1870,1593,1,4229.0,4202.0,-1907.0,-1875.0,1566.0,1560.0
4337,-1835,1601,1,4261.0,4229.0,-1870.0,-1907.0,1593.0,1566.0
4388,-1804,1499,1,4337.0,4261.0,-1835.0,-1870.0,1601.0,1593.0
4476,-1719,1391,1,4388.0,4337.0,-1804.0,-1835.0,1499.0,1601.0
4564,-1600,1282,1,4476.0,4388.0,-1719.0,-1804.0,1391.0,1499.0
4693,-1412,1168,1,4564.0,4476.0,-1600.0,-1719.0,1282.0,1391.0
4829,-1152,1015,1,4693.0,4564.0,-1412.0,-1600.0,1168.0,1282.0
4975,-815,804,1,4829.0,4693.0,-1152.0,-1412.0,1015.0,1168.0
5161,-502,612,1,4975.0,4829.0,-815.0,-1152.0,804.0,1015.0
5270,-207,497,1,5161.0,4975.0,-502.0,-815.0,612.0,804.0
5452,57,470,1,5270.0,5161.0,-207.0,-502.0,497.0,612.0
5600,231,520,1,5452.0,5270.0,57.0,-207.0,470.0,497.0
5791,331,670,1,5600.0,5452.0,231.0,57.0,520.0,470.0
5925,518,822,1,5791.0,5600.0,331.0,231.0,670.0,520.0
6012,593,842,1,5925.0,5791.0,518.0,331.0,822.0,670.0
6023,707,834,1,6012.0,5925.0,593.0,518.0,842.0,822.0
5927,796,843,1,6023.0,6012.0,707.0,593.0,834.0,842.0
5613,799,853,1,5927.0,6023.0,796.0,707.0,843.0,834.0
5160,735,867,1,5613.0,5927.0,799.0,796.0,853.0,843.0
4693,570,861,1,5160.0,5613.0,735.0,799.0,867.0,853.0
4236,403,810,1,4693.0,5160.0,570.0,735.0,861.0,867.0
3930,232,766,1,4236.0,4693.0,403.0,570.0,810.0,861.0
3779,54,730,1,3930.0,4236.0,232.0,403.0,766.0,810.0
3667,-99,641,1,3779.0,3930.0,54.0,232.0,730.0,766.0
3535,-224,515,1,3667.0,3779.0,-99.0,54.0,641.0,730.0
3389,-340,336,1,3535.0,3667.0,-224.0,-99.0,515.0,641.0
3252,-446,184,1,3389.0,3535.0,-340.0,-224.0,336.0,515.0
3139,-573,14,1,3252.0,3389.0,-446.0,-340.0,184.0,336.0
3061,-695,-147,1,3139.0,3252.0,-573.0,-446.0,14.0,184.0
3013,-801,-308,1,3061.0,3139.0,-695.0,-573.0,-147.0,14.0
2995,-891,-466,1,3013.0,3061.0,-801.0,-695.0,-308.0,-147.0
3021,-960,-572,1,2995.0,3013.0,-891.0,-801.0,-466.0,-308.0
3091,-1018,-638,1,3021.0,2995.0,-960.0,-891.0,-572.0,-466.0
3201,-1044,-654,1,3091.0,3021.0,-1018.0,-960.0,-638.0,-572.0
3331,-1058,-633,1,3201.0,3091.0,-1044.0,-1018.0,-654.0,-638.0
3470,-1042,-587,1,3331.0,3201.0,-1058.0,-1044.0,-633.0,-654.0
3614,-996,-520,1,3470.0,3331.0,-1042.0,-1058.0,-587.0,-633.0
3744,-925,-467,1,3614.0,3470.0,-996.0,-1042.0,-520.0,-587.0
3874,-823,-405,1,3744.0,3614.0,-925.0,-996.0,-467.0,-520.0
4006,-685,-334,1,3874.0,3744.0,-823.0,-925.0,-405.0,-467.0
4140,-556,-288,1,4006.0,3874.0,-685.0,-823.0,-334.0,-405.0
4300,-401,-249,1,4140.0,4006.0,-556.0,-685.0,-288.0,-334.0
4421,-295,-208,1,4300.0,4140.0,-401.0,-556.0,-249.0,-288.0
4521,-207,-153,1,4421.0,4300.0,-295.0,-401.0,-208.0,-249.0
4569,-108,-107,1,4521.0,4421.0,-207.0,-295.0,-153.0,-208.0
4607,-4,-51,1,4569.0,4521.0,-108.0,-207.0,-107.0,-153.0
4645,63,11,1,4607.0,4569.0,-4.0,-108.0,-51.0,-107.0
4663,132,80,1,4645.0,4607.0,63.0,-4.0,11.0,-51.0
4651,159,117,1,4663.0,4645.0,132.0,63.0,80.0,11.0
4616,208,189,1,4651.0,4663.0,159.0,132.0,117.0,80.0
4572,237,246,1,4616.0,4651.0,208.0,159.0,189.0,117.0
4511,262,279,1,4572.0,4616.0,237.0,208.0,246.0,189.0
4439,285,306,1,4511.0,4572.0,262.0,237.0,279.0,246.0
4364,294,315,1,4439.0,4511.0,285.0,262.0,306.0,279.0
4269,280,316,1,4364.0,4439.0,294.0,285.0,315.0,306.0
4178,264,310,1,4269.0,4364.0,280.0,294.0,316.0,315.0
4099,259,322,1,4178.0,4269.0,264.0,280.0,310.0,316.0
4018,232,321,1,4099.0,4178.0,259.0,264.0,322.0,310.0
3932,181,305,1,4018.0,4099.0,232.0,259.0,321.0,322.0
3859,130,297,1,3932.0,4018.0,181.0,232.0,305.0,321.0
3795,58,263,1,3859.0,3932.0,130.0,181.0,297.0,305.0
3746,-6,245,1,3795.0,3859.0,58.0,130.0,263.0,297.0
3688,-75,225,1,3746.0,3795.0,-6.0,58.0,245.0,263.0
3617,-143,193,1,3688.0,3746.0,-75.0,-6.0,225.0,245.0
3562,-209,140,1,3617.0,3688.0,-143.0,-75.0,193.0,225.0
3518,-264,97,1,3562.0,3617.0,-209.0,-143.0,140.0,193.0
3474,-312,74,1,3518.0,3562.0,-264.0,-209.0,97.0,140.0
3438,-312,100,1,3474.0,3518.0,-312.0,-264.0,74.0,97.0
3437,-434,45,1,3438.0,3474.0,-312.0,-312.0,100.0,74.0
3444,-538,44,1,3437.0,3438.0,-434.0,-312.0,45.0,100.0
3438,-621,50,1,3444.0,3437.0,-538.0,-434.0,44.0,45.0
3428,-656,62,1,3438.0,3444.0,-621.0,-538.0,50.0,44.0
3470,-653,84,1,3428.0,3438.0,-656.0,-621.0,62.0,50.0
3456,-672,78,1,3470.0,3428.0,-653.0,-656.0,84.0,62.0
3414,-697,99,1,3456.0,3470.0,-672.0,-653.0,78.0,84.0
3406,-690,98,1,3414.0,3456.0,-697.0,-672.0,99.0,78.0
3433,-661,90,1,3406.0,3414.0,-690.0,-697.0,98.0,99.0
3484,-647,93,1,3433.0,3406.0,-661.0,-690.0,90.0,98.0
3528,-630,90,1,3484.0,3433.0,-647.0,-661.0,93.0,90.0
3569,-602,84,1,3528.0,3484.0,-630.0,-647.0,90.0,93.0
3605,-565,74,1,3569.0,3528.0,-602.0,-630.0,84.0,90.0
3627,-525,59,1,3605.0,3569.0,-565.0,-602.0,74.0,84.0
3637,-502,55,1,3627.0,3605.0,-525.0,-565.0,59.0,74.0
3670,-479,85,1,3637.0,3627.0,-502.0,-525.0,55.0,59.0
3728,-480,123,1,3670.0,3637.0,-479.0,-502.0,85.0,55.0
3801,-492,157,1,3728.0,3670.0,-480.0,-479.0,123.0,85.0
3865,-493,179,1,3801.0,3728.0,-492.0,-480.0,157.0,123.0
3906,-500,199,1,3865.0,3801.0,-493.0,-492.0,179.0,157.0
3918,-500,214,1,3906.0,3865.0,-500.0,-493.0,199.0,179.0
3909,-469,206,1,3918.0,3906.0,-500.0,-500.0,214.0,199.0
3899,-436,185,1,3909.0,3918.0,-469.0,-500.0,206.0,214.0
3900,-412,176,1,3899.0,3909.0,-436.0,-469.0,185.0,206.0
3914,-400,169,1,3900.0,3899.0,-412.0,-436.0,176.0,185.0
3906,-421,159,1,3914.0,3900.0,-400.0,-412.0,169.0,176.0
3905,-440,169,1,3906.0,3914.0,-421.0,-400.0,159.0,169.0
3913,-461,207,1,3905.0,3906.0,-440.0,-421.0,169.0,159.0
3920,-488,260,1,3913.0,3905.0,-461.0,-440.0,207.0,169.0
3918,-511,284,1,3920.0,3913.0,-488.0,-461.0,260.0,207.0
3918,-526,271,1,3918.0,3920.0,-511.0,-488.0,284.0,260.0
3905,-541,255,1,3918.0,3918.0,-526.0,-511.0,271.0,284.0
3896,-552,255,1,3905.0,3918.0,-541.0,-526.0,255.0,271.0
3894,-565,269,1,3896.0,3905.0,-552.0,-541.0,255.0,255.0
3903,-568,288,1,3894.0,3896.0,-565.0,-552.0,269.0,255.0
3907,-573,306,1,3903.0,3894.0,-568.0,-565.0,288.0,269.0
3899,-585,298,1,3907.0,3903.0,-573.0,-568.0,306.0,288.0
3903,-591,339,1,3899.0,3907.0,-585.0,-573.0,298.0,306.0
3928,-578,425,1,3903.0,3899.0,-591.0,-585.0,339.0,298.0
3944,-579,478,1,3928.0,3903.0,-578.0,-591.0,425.0,339.0
3958,-596,495,1,3944.0,3928.0,-579.0,-578.0,478.0,425.0
3974,-605,504,1,3958.0,3944.0,-596.0,-579.0,495.0,478.0
3995,-592,512,1,3974.0,3958.0,-605.0,-596.0,504.0,495.0
4013,-572,538,1,3995.0,3974.0,-592.0,-605.0,512.0,504.0
4032,-542,581,1,4013.0,3995.0,-572.0,-592.0,538.0,512.0
4067,-511,623,1,4032.0,4013.0,-542.0,-572.0,581.0,538.0
4085,-465,642,1,4067.0,4032.0,-511.0,-542.0,623.0,581.0
4097,-408,649,1,4085.0,4067.0,-465.0,-511.0,642.0,623.0
4117,-355,648,1,4097.0,4085.0,-408.0,-465.0,649.0,642.0
4116,-319,648,1,4117.0,4097.0,-355.0,-408.0,648.0,649.0
4108,-301,632,1,4116.0,4117.0,-319.0,-355.0,648.0,648.0
4097,-286,579,1,4108.0,4116.0,-301.0,-319.0,632.0,648.0
4086,-289,504,1,4097.0,4108.0,-286.0,-301.0,579.0,632.0
4058,-320,425,1,4086.0,4097.0,-289.0,-286.0,504.0,579.0
4029,-371,339,1,4058.0,4086.0,-320.0,-289.0,425.0,504.0
3991,-426,247,1,4029.0,4058.0,-371.0,-320.0,339.0,425.0
3952,-493,164,1,3991.0,4029.0,-426.0,-371.0,247.0,339.0
3920,-574,94,1,3952.0,3991.0,-493.0,-426.0,164.0,247.0
3905,-638,52,1,3920.0,3952.0,-574.0,-493.0,94.0,164.0
3898,-693,24,1,3905.0,3920.0,-638.0,-574.0,52.0,94.0
3911,-738,8,1,3898.0,3905.0,-693.0,-638.0,24.0,52.0
3943,-777,-11,1,3911.0,3898.0,-738.0,-693.0,8.0,24.0
3969,-813,-32,1,3943.0,3911.0,-777.0,-738.0,-11.0,8.0
3998,-847,-44,1,3969.0,3943.0,-813.0,-777.0,-32.0,-11.0
4021,-898,-50,1,3998.0,3969.0,-847.0,-813.0,-44.0,-32.0
4038,-947,-26,1,4021.0,3998.0,-898.0,-847.0,-50.0,-44.0
4057,-1001,29,1,4038.0,4021.0,-947.0,-898.0,-26.0,-50.0
4083,-1052,89,1,4057.0,4038.0,-1001.0,-947.0,29.0,-26.0
4104,-1063,166,1,4083.0,4057.0,-1052.0,-1001.0,89.0,29.0
4131,-999,267,1,4104.0,4083.0,-1063.0,-1052.0,166.0,89.0
4154,-972,291,1,4131.0,4104.0,-999.0,-1063.0,267.0,166.0
4210,-957,321,1,4154.0,4131.0,-972.0,-999.0,291.0,267.0
4271,-907,390,1,4210.0,4154.0,-957.0,-972.0,321.0,291.0
4318,-857,435,1,4271.0,4210.0,-907.0,-957.0,390.0,321.0
4368,-800,459,1,4318.0,4271.0,-857.0,-907.0,435.0,390.0
4414,-708,498,1,4368.0,4318.0,-800.0,-857.0,459.0,435.0
4430,-720,450,1,4414.0,4368.0,-708.0,-800.0,498.0,459.0
4447,-730,447,1,4430.0,4414.0,-720.0,-708.0,450.0,498.0
4499,-740,451,1,4447.0,4430.0,-730.0,-720.0,447.0,450.0
4527,-722,444,1,4499.0,4447.0,-740.0,-730.0,451.0,447.0
4548,-678,438,1,4527.0,4499.0,-722.0,-740.0,444.0,451.0
4567,-611,425,1,4548.0,4527.0,-678.0,-722.0,438.0,444.0
4593,-529,406,1,4567.0,4548.0,-611.0,-678.0,425.0,438.0
4628,-452,401,1,4593.0,4567.0,-529.0,-611.0,406.0,425.0
4677,-401,395,1,4628.0,4593.0,-452.0,-529.0,401.0,406.0
4723,-358,393,1,4677.0,4628.0,-401.0,-452.0,395.0,401.0
4781,-313,401,1,4723.0,4677.0,-358.0,-401.0,393.0,395.0
4845,-258,407,1,4781.0,4723.0,-313.0,-358.0,401.0,393.0
4924,-216,398,1,4845.0,4781.0,-258.0,-313.0,407.0,401.0
4980,-176,403,1,4924.0,4845.0,-216.0,-258.0,398.0,407.0
5006,-156,422,1,4980.0,4924.0,-176.0,-216.0,403.0,398.0
5034,-140,441,1,5006.0,4980.0,-156.0,-176.0,422.0,403.0
5049,-118,455,1,5034.0,5006.0,-140.0,-156.0,441.0,422.0
5049,-112,453,1,5049.0,5034.0,-118.0,-140.0,455.0,441.0
5036,-89,429,1,5049.0,5049.0,-112.0,-118.0,453.0,455.0
5024,-80,382,1,5036.0,5049.0,-89.0,-112.0,429.0,453.0
4983,-43,293,1,5024.0,5036.0,-80.0,-89.0,382.0,429.0
4931,26,191,1,4983.0,5024.0,-43.0,-80.0,293.0,382.0
4883,150,102,1,4931.0,4983.0,26.0,-43.0,191.0,293.0
4835,305,56,1,4883.0,4931.0,150.0,26.0,102.0,191.0
4773,467,48,1,4835.0,4883.0,305.0,150.0,56.0,102.0
4702,645,64,1,4773.0,4835.0,467.0,305.0,48.0,56.0
4656,812,87,1,4702.0,4773.0,645.0,467.0,64.0,48.0
4585,984,138,1,4656.0,4702.0,812.0,645.0,87.0,64.0
4503,1146,156,1,4585.0,4656.0,984.0,812.0,138.0,87.0
4405,1304,145,1,4503.0,4585.0,1146.0,984.0,156.0,138.0
4292,1470,122,1,4405.0,4503.0,1304.0,1146.0,145.0,156.0
4176,1615,97,1,4292.0,4405.0,1470.0,1304.0,122.0,145.0
4069,1725,81,1,4176.0,4292.0,1615.0,1470.0,97.0,122.0
3991,1804,121,1,4069.0,4176.0,1725.0,1615.0,81.0,97.0
3961,1843,234,1,3991.0,4069.0,1804.0,1725.0,121.0,81.0
3956,1845,381,1,3961.0,3991.0,1843.0,1804.0,234.0,121.0
3939,1833,520,1,3956.0,3961.0,1845.0,1843.0,381.0,234.0
3924,1806,627,1,3939.0,3956.0,1833.0,1845.0,520.0,381.0
3917,1782,696,1,3924.0,3939.0,1806.0,1833.0,627.0,520.0
3931,1734,750,1,3917.0,3924.0,1782.0,1806.0,696.0,627.0
3956,1648,806,1,3931.0,3917.0,1734.0,1782.0,750.0,696.0
3986,1559,861,1,3956.0,3931.0,1648.0,1734.0,806.0,750.0
3997,1422,933,1,3986.0,3956.0,1559.0,1648.0,861.0,806.0
4015,1299,1050,1,3997.0,3986.0,1422.0,1559.0,933.0,861.0
4033,1168,1106,1,4015.0,3997.0,1299.0,1422.0,1050.0,933.0
4050,1042,1084,1,4033.0,4015.0,1168.0,1299.0,1106.0,1050.0
4067,934,1007,1,4050.0,4033.0,1042.0,1168.0,1084.0,1106.0
4083,828,917,1,4067.0,4050.0,934.0,1042.0,1007.0,1084.0
4094,733,861,1,4083.0,4067.0,828.0,934.0,917.0,1007.0
4133,648,848,1,4094.0,4083.0,733.0,828.0,861.0,917.0
4186,572,940,1,4133.0,4094.0,648.0,733.0,848.0,861.0
4237,479,1031,1,4186.0,4133.0,572.0,648.0,940.0,848.0
4281,381,1046,1,4237.0,4186.0,479.0,572.0,1031.0,940.0
4307,282,950,1,4281.0,4237.0,381.0,479.0,1046.0,1031.0
4319,185,809,1,4307.0,4281.0,282.0,381.0,950.0,1046.0
4289,104,642,1,4319.0,4307.0,185.0,282.0,809.0,950.0
4245,51,549,1,4289.0,4319.0,104.0,185.0,642.0,809.0
4194,22,471,1,4245.0,4289.0,51.0,104.0,549.0,642.0
4142,-5,387,1,4194.0,4245.0,22.0,51.0,471.0,549.0
4129,-3,333,1,4142.0,4194.0,-5.0,22.0,387.0,471.0
4136,-36,291,1,4129.0,4142.0,-3.0,-5.0,333.0,387.0
4118,-105,298,1,4136.0,4129.0,-36.0,-3.0,291.0,333.0
4043,-145,311,1,4118.0,4136.0,-105.0,-36.0,298.0,291.0
3972,-137,345,1,4043.0,4118.0,-145.0,-105.0,311.0,298.0
3904,-145,373,1,3972.0,4043.0,-137.0,-145.0,345.0,311.0
3850,-139,410,1,3904.0,3972.0,-145.0,-137.0,373.0,345.0
3788,-123,461,1,3850.0,3904.0,-139.0,-145.0,410.0,373.0
3739,-90,522,1,3788.0,3850.0,-123.0,-139.0,461.0,410.0
3698,-50,574,1,3739.0,3788.0,-90.0,-123.0,522.0,461.0
3653,-13,597,1,3698.0,3739.0,-50.0,-90.0,574.0,522.0
3593,60,607,1,3653.0,3698.0,-13.0,-50.0,597.0,574.0
3540,130,615,1,3593.0,3653.0,60.0,-13.0,607.0,597.0
3485,181,621,1,3540.0,3593.0,130.0,60.0,615.0,607.0
3424,247,641,1,3485.0,3540.0,181.0,130.0,621.0,615.0
3365,302,655,1,3424.0,3485.0,247.0,181.0,641.0,621.0
3318,364,657,1,3365.0,3424.0,302.0,247.0,655.0,641.0
3288,393,639,1,3318.0,3365.0,364.0,302.0,657.0,655.0
3263,421,630,1,3288.0,3318.0,393.0,364.0,639.0,657.0
3245,440,626,1,3263.0,3288.0,421.0,393.0,630.0,639.0
3244,453,635,1,3245.0,3263.0,440.0,421.0,626.0,630.0
3256,440,649,1,3244.0,3245.0,453.0,440.0,635.0,626.0
3254,433,673,1,3256.0,3244.0,440.0,453.0,649.0,635.0
3254,414,691,1,3254.0,3256.0,433.0,440.0,673.0,649.0
3275,382,698,1,3254.0,3254.0,414.0,433.0,691.0,673.0
3285,333,703,1,3275.0,3254.0,382.0,414.0,698.0,691.0
3308,269,725,1,3285.0,3275.0,333.0,382.0,703.0,698.0
3325,203,756,1,3308.0,3285.0,269.0,333.0,725.0,703.0
3341,152,784,1,3325.0,3308.0,203.0,269.0,756.0,725.0
3361,105,809,1,3341.0,3325.0,152.0,203.0,784.0,756.0
3372,65,821,1,3361.0,3341.0,105.0,152.0,809.0,784.0
3370,52,795,1,3372.0,3361.0,65.0,105.0,821.0,809.0
3363,91,719,1,3370.0,3372.0,52.0,65.0,795.0,821.0
3335,133,657,1,3363.0,3370.0,91.0,52.0,719.0,795.0
3309,119,650,1,3335.0,3363.0,133.0,91.0,657.0,719.0
3295,65,702,1,3309.0,3335.0,119.0,133.0,650.0,657.0
3291,-4,777,1,3295.0,3309.0,65.0,119.0,702.0,650.0
3300,-58,865,1,3291.0,3295.0,-4.0,65.0,777.0,702.0
3303,-99,931,1,3300.0,3291.0,-58.0,-4.0,865.0,777.0
3293,-135,971,1,3303.0,3300.0,-99.0,-58.0,931.0,865.0
3269,-164,990,1,3293.0,3303.0,-135.0,-99.0,971.0,931.0
3246,-191,1014,1,3269.0,3293.0,-164.0,-135.0,990.0,971.0
3225,-219,1034,1,3246.0,3269.0,-191.0,-164.0,1014.0,990.0
3201,-255,1048,1,3225.0,3246.0,-219.0,-191.0,1034.0,1014.0
3185,-281,1062,1,3201.0,3225.0,-255.0,-219.0,1048.0,1034.0
3175,-298,1052,1,3185.0,3201.0,-281.0,-255.0,1062.0,1048.0
3164,-316,1032,1,3175.0,3185.0,-298.0,-281.0,1052.0,1062.0
3158,-328,1017,1,3164.0,3175.0,-316.0,-298.0,1032.0,1052.0
3150,-348,994,1,3158.0,3164.0,-328.0,-316.0,1017.0,1032.0
3151,-363,986,1,3150.0,3158.0,-348.0,-328.0,994.0,1017.0
3169,-370,992,1,3151.0,3150.0,-363.0,-348.0,986.0,994.0
3188,-378,999,1,3169.0,3151.0,-370.0,-363.0,992.0,986.0
3210,-399,1008,1,3188.0,3169.0,-378.0,-370.0,999.0,992.0
3174,-434,993,1,3210.0,3188.0,-399.0,-378.0,1008.0,999.0
3233,-424,987,1,3174.0,3210.0,-434.0,-399.0,993.0,1008.0
3310,-436,992,1,3233.0,3174.0,-424.0,-434.0,987.0,993.0
3355,-464,1032,1,3310.0,3233.0,-436.0,-424.0,992.0,987.0
3387,-485,1065,1,3355.0,3310.0,-464.0,-436.0,1032.0,992.0
3414,-494,1076,1,3387.0,3355.0,-485.0,-464.0,1065.0,1032.0
3453,-505,1073,1,3414.0,3387.0,-494.0,-485.0,1076.0,1065.0
3484,-520,1060,1,3453.0,3414.0,-505.0,-494.0,1073.0,1076.0
3516,-523,1043,1,3484.0,3453.0,-520.0,-505.0,1060.0,1073.0
3545,-522,1016,1,3516.0,3484.0,-523.0,-520.0,1043.0,1060.0
3581,-506,981,1,3545.0,3516.0,-522.0,-523.0,1016.0,1043.0
3623,-488,954,1,3581.0,3545.0,-506.0,-522.0,981.0,1016.0
3672,-465,921,1,3623.0,3581.0,-488.0,-506.0,954.0,981.0
3736,-438,889,1,3672.0,3623.0,-465.0,-488.0,921.0,954.0
3810,-417,876,1,3736.0,3672.0,-438.0,-465.0,889.0,921.0
3875,-420,871,1,3810.0,3736.0,-417.0,-438.0,876.0,889.0
3948,-418,874,1,3875.0,3810.0,-420.0,-417.0,871.0,876.0
4020,-422,876,1,3948.0,3875.0,-418.0,-420.0,874.0,871.0
4091,-435,877,1,4020.0,3948.0,-422.0,-418.0,876.0,874.0
4173,-463,891,1,4091.0,4020.0,-435.0,-422.0,877.0,876.0
4274,-491,918,1,4173.0,4091.0,-463.0,-435.0,891.0,877.0
4374,-539,969,1,4274.0,4173.0,-491.0,-463.0,918.0,891.0
4465,-602,1021,1,4374.0,4274.0,-539.0,-491.0,969.0,918.0
4536,-688,1052,1,4465.0,4374.0,-602.0,-539.0,1021.0,969.0
4609,-817,1131,1,4536.0,4465.0,-688.0,-602.0,1052.0,1021.0
4656,-1016,1186,1,4609.0,4536.0,-817.0,-688.0,1131.0,1052.0
4671,-1264,1241,1,4656.0,4609.0,-1016.0,-817.0,1186.0,1131.0
4674,-1507,1317,1,4671.0,4656.0,-1264.0,-1016.0,1241.0,1186.0
4671,-1702,1378,1,4674.0,4671.0,-1507.0,-1264.0,1317.0,1241.0
4652,-1843,1451,1,4671.0,4674.0,-1702.0,-1507.0,1378.0,1317.0
4618,-1947,1533,1,4652.0,4671.0,-1843.0,-1702.0,1451.0,1378.0
4589,-2014,1616,1,4618.0,4652.0,-1947.0,-1843.0,1533.0,1451.0
4552,-1929,1727,1,4589.0,4618.0,-2014.0,-1947.0,1616.0,1533.0
4543,-1764,1807,1,4552.0,4589.0,-1929.0,-2014.0,1727.0,1616.0
4560,-1566,1859,1,4543.0,4552.0,-1764.0,-1929.0,1807.0,1727.0
4610,-1340,1875,1,4560.0,4543.0,-1566.0,-1764.0,1859.0,1807.0
4684,-1119,1826,1,4610.0,4560.0,-1340.0,-1566.0,1875.0,1859.0
4774,-870,1733,1,4684.0,4610.0,-1119.0,-1340.0,1826.0,1875.0
4874,-621,1613,1,4774.0,4684.0,-870.0,-1119.0,1733.0,1826.0
4906,-398,1471,1,4874.0,4774.0,-621.0,-870.0,1613.0,1733.0
4923,-205,1382,1,4906.0,4874.0,-398.0,-621.0,1471.0,1613.0
4933,-58,1328,1,4923.0,4906.0,-205.0,-398.0,1382.0,1471.0
4865,51,1287,1,4933.0,4923.0,-58.0,-205.0,1328.0,1382.0
4784,139,1226,1,4865.0,4933.0,51.0,-58.0,1287.0,1328.0
4698,209,1149,1,4784.0,4865.0,139.0,51.0,1226.0,1287.0
4606,276,1082,1,4698.0,4784.0,209.0,139.0,1149.0,1226.0
4517,343,1010,1,4606.0,4698.0,276.0,209.0,1082.0,1149.0
4467,430,921,1,4517.0,4606.0,343.0,276.0,1010.0,1082.0
4463,540,808,1,4467.0,4517.0,430.0,343.0,921.0,1010.0
4513,647,701,1,4463.0,4467.0,540.0,430.0,808.0,921.0
4596,735,630,1,4513.0,4463.0,647.0,540.0,701.0,808.0
4683,789,583,1,4596.0,4513.0,735.0,647.0,630.0,701.0
4747,822,529,1,4683.0,4596.0,789.0,735.0,583.0,630.0
4785,852,473,1,4747.0,4683.0,822.0,789.0,529.0,583.0
4844,889,409,1,4785.0,4747.0,852.0,822.0,473.0,529.0
4840,904,312,1,4844.0,4785.0,889.0,852.0,409.0,473.0
4841,937,224,1,4840.0,4844.0,904.0,889.0,312.0,409.0
4850,953,141,1,4841.0,4840.0,937.0,904.0,224.0,312.0
4811,950,47,1,4850.0,4841.0,953.0,937.0,141.0,224.0
4765,888,-39,1,4811.0,4850.0,950.0,953.0,47.0,141.0
4696,763,-97,1,4765.0,4811.0,888.0,950.0,-39.0,47.0
4582,596,-117,1,4696.0,4765.0,763.0,888.0,-97.0,-39.0
4447,433,-96,1,4582.0,4696.0,596.0,763.0,-117.0,-97.0
4293,314,-47,1,4447.0,4582.0,433.0,596.0,-96.0,-117.0
4125,237,15,1,4293.0,4447.0,314.0,433.0,-47.0,-96.0
3976,185,71,1,4125.0,4293.0,237.0,314.0,15.0,-47.0
3843,153,93,1,3976.0,4125.0,185.0,237.0,71.0,15.0
3714,131,55,1,3843.0,3976.0,153.0,185.0,93.0,71.0
3609,104,-26,1,3714.0,3843.0,131.0,153.0,55.0,93.0
3524,84,-78,1,3609.0,3714.0,104.0,131.0,-26.0,55.0
3460,64,-100,1,3524.0,3609.0,84.0,104.0,-78.0,-26.0
3406,36,-137,1,3460.0,3524.0,64.0,84.0,-100.0,-78.0
3365,19,-199,1,3406.0,3460.0,36.0,64.0,-137.0,-100.0
3332,4,-273,1,3365.0,3406.0,19.0,36.0,-199.0,-137.0
3322,-28,-355,1,3332.0,3365.0,4.0,19.0,-273.0,-199.0
3351,-60,-406,1,3322.0,3332.0,-28.0,4.0,-355.0,-273.0
3534,-62,-440,1,3351.0,3322.0,-60.0,-28.0,-406.0,-355.0
3603,-168,-496,1,3534.0,3351.0,-62.0,-60.0,-440.0,-406.0
3476,-136,-512,1,3603.0,3534.0,-168.0,-62.0,-496.0,-440.0
3498,-127,-522,1,3476.0,3603.0,-136.0,-168.0,-512.0,-496.0
3613,-107,-471,1,3498.0,3476.0,-127.0,-136.0,-522.0,-512.0
3751,-85,-385,1,3613.0,3498.0,-107.0,-127.0,-471.0,-522.0
3893,-66,-303,1,3751.0,3613.0,-85.0,-107.0,-385.0,-471.0
4012,-38,-235,1,3893.0,3751.0,-66.0,-85.0,-303.0,-385.0
4124,-9,-206,1,4012.0,3893.0,-38.0,-66.0,-235.0,-303.0
4216,62,-186,1,4124.0,4012.0,-9.0,-38.0,-206.0,-235.0
4286,128,-192,1,4216.0,4124.0,62.0,-9.0,-186.0,-206.0
4322,211,-192,1,4286.0,4216.0,128.0,62.0,-192.0,-186.0
4342,245,-207,1,4322.0,4286.0,211.0,128.0,-192.0,-192.0
4402,208,-224,1,4342.0,4322.0,245.0,211.0,-207.0,-192.0
4447,147,-234,1,4402.0,4342.0,208.0,245.0,-224.0,-207.0
4365,69,-224,1,4447.0,4402.0,147.0,208.0,-234.0,-224.0
4287,53,-197,1,4365.0,4447.0,69.0,147.0,-224.0,-234.0
4245,76,-184,1,4287.0,4365.0,53.0,69.0,-197.0,-224.0
4220,83,-164,1,4245.0,4287.0,76.0,53.0,-184.0,-197.0
4191,64,-161,1,4220.0,4245.0,83.0,76.0,-164.0,-184.0
4128,19,-169,1,4191.0,4220.0,64.0,83.0,-161.0,-164.0
4056,-20,-155,1,4128.0,4191.0,19.0,64.0,-169.0,-161.0
3977,-61,-137,1,4056.0,4128.0,-20.0,19.0,-155.0,-169.0
3894,-98,-120,1,3977.0,4056.0,-61.0,-20.0,-137.0,-155.0
3836,-126,-115,1,3894.0,3977.0,-98.0,-61.0,-120.0,-137.0
3795,-134,-130,1,3836.0,3894.0,-126.0,-98.0,-115.0,-120.0
3759,-160,-168,1,3795.0,3836.0,-134.0,-126.0,-130.0,-115.0
3703,-198,-241,1,3759.0,3795.0,-160.0,-134.0,-168.0,-130.0
3668,-229,-334,1,3703.0,3759.0,-198.0,-160.0,-241.0,-168.0
3636,-245,-426,1,3668.0,3703.0,-229.0,-198.0,-334.0,-241.0
3589,-263,-496,1,3636.0,3668.0,-245.0,-229.0,-426.0,-334.0
3579,-276,-501,1,3589.0,3636.0,-263.0,-245.0,-496.0,-426.0
3570,-276,-497,1,3579.0,3589.0,-276.0,-263.0,-501.0,-496.0
3553,-258,-514,1,3570.0,3579.0,-276.0,-276.0,-497.0,-501.0
3525,-229,-582,1,3553.0,3570.0,-258.0,-276.0,-514.0,-497.0
3475,-187,-674,1,3525.0,3553.0,-229.0,-258.0,-582.0,-514.0
3427,-166,-780,1,3475.0,3525.0,-187.0,-229.0,-674.0,-582.0
3398,-154,-854,1,3427.0,3475.0,-166.0,-187.0,-780.0,-674.0
3367,-151,-893,1,3398.0,3427.0,-154.0,-166.0,-854.0,-780.0
3334,-136,-897,1,3367.0,3398.0,-151.0,-154.0,-893.0,-854.0
3291,-112,-872,1,3334.0,3367.0,-136.0,-151.0,-897.0,-893.0
3242,-91,-834,1,3291.0,3334.0,-112.0,-136.0,-872.0,-897.0
3185,-95,-759,1,3242.0,3291.0,-91.0,-112.0,-834.0,-872.0
3115,-109,-649,1,3185.0,3242.0,-95.0,-91.0,-759.0,-834.0
3034,-115,-517,1,3115.0,3185.0,-109.0,-95.0,-649.0,-759.0
2976,-120,-370,1,3034.0,3115.0,-115.0,-109.0,-517.0,-649.0
2942,-139,-222,1,2976.0,3034.0,-120.0,-115.0,-370.0,-517.0
2905,-156,-81,1,2942.0,2976.0,-139.0,-120.0,-222.0,-370.0
2861,-181,12,1,2905.0,2942.0,-156.0,-139.0,-81.0,-222.0
2800,-220,73,1,2861.0,2905.0,-181.0,-156.0,12.0,-81.0
2749,-278,101,1,2800.0,2861.0,-220.0,-181.0,73.0,12.0
2677,-358,103,1,2749.0,2800.0,-278.0,-220.0,101.0,73.0
2609,-419,108,1,2677.0,2749.0,-358.0,-278.0,103.0,101.0
2544,-504,105,1,2609.0,2677.0,-419.0,-358.0,108.0,103.0
2477,-565,101,1,2544.0,2609.0,-504.0,-419.0,105.0,108.0
2416,-607,66,1,2477.0,2544.0,-565.0,-504.0,101.0,105.0
2374,-623,24,1,2416.0,2477.0,-607.0,-565.0,66.0,101.0
2349,-619,-9,1,2374.0,2416.0,-623.0,-607.0,24.0,66.0
2351,-597,-70,1,2349.0,2374.0,-619.0,-623.0,-9.0,24.0
2367,-540,-142,1,2351.0,2349.0,-597.0,-619.0,-70.0,-9.0
2401,-443,-197,1,2367.0,2351.0,-540.0,-597.0,-142.0,-70.0
2464,-379,-215,1,2401.0,2367.0,-443.0,-540.0,-197.0,-142.0
2520,-326,-199,1,2464.0,2401.0,-379.0,-443.0,-215.0,-197.0
2586,-322,-122,1,2520.0,2464.0,-326.0,-379.0,-199.0,-215.0
2649,-338,-15,1,2586.0,2520.0,-322.0,-326.0,-122.0,-199.0
2703,-386,122,1,2649.0,2586.0,-338.0,-322.0,-15.0,-122.0
2738,-475,257,1,2703.0,2649.0,-386.0,-338.0,122.0,-15.0
2765,-596,374,1,2738.0,2703.0,-475.0,-386.0,257.0,122.0
2785,-738,438,1,2765.0,2738.0,-596.0,-475.0,374.0,257.0
2778,-868,456,1,2785.0,2765.0,-738.0,-596.0,438.0,374.0
2789,-1010,469,1,2778.0,2785.0,-868.0,-738.0,456.0,438.0
2823,-1149,490,1,2789.0,2778.0,-1010.0,-868.0,469.0,456.0
2838,-1242,572,1,2823.0,2789.0,-1149.0,-1010.0,490.0,469.0
2887,-1300,711,1,2838.0,2823.0,-1242.0,-1149.0,572.0,490.0
2947,-1341,857,1,2887.0,2838.0,-1300.0,-1242.0,711.0,572.0
3010,-1359,990,1,2947.0,2887.0,-1341.0,-1300.0,857.0,711.0
