accelerometer_x,accelerometer_y,accelerometer_z,fall,x_lag_1,x_lag_2,y_lag_1,y_lag_2,z_lag_1,z_lag_2
-572,3690,1417,1,,,,,,
-575,3691,1416,1,-572.0,,3690.0,,1417.0,
-573,3694,1414,1,-575.0,-572.0,3691.0,3690.0,1416.0,1417.0
-575,3698,1420,1,-573.0,-575.0,3694.0,3691.0,1414.0,1416.0
-565,3702,1421,1,-575.0,-573.0,3698.0,3694.0,1420.0,1414.0
-552,3709,1421,1,-565.0,-575.0,3702.0,3698.0,1421.0,1420.0
-542,3715,1421,1,-552.0,-565.0,3709.0,3702.0,1421.0,1421.0
-536,3730,1422,1,-542.0,-552.0,3715.0,3709.0,1421.0,1421.0
-531,3751,1424,1,-536.0,-542.0,3730.0,3715.0,1422.0,1421.0
-530,3764,1423,1,-531.0,-536.0,3751.0,3730.0,1424.0,1422.0
-528,3773,1424,1,-530.0,-531.0,3764.0,3751.0,1423.0,1424.0
-527,3782,1418,1,-528.0,-530.0,3773.0,3764.0,1424.0,1423.0
-529,3785,1418,1,-527.0,-528.0,3782.0,3773.0,1418.0,1424.0
-530,3790,1415,1,-529.0,-527.0,3785.0,3782.0,1418.0,1418.0
-536,3799,1416,1,-530.0,-529.0,3790.0,3785.0,1415.0,1418.0
-540,3804,1419,1,-536.0,-530.0,3799.0,3790.0,1416.0,1415.0
-538,3805,1418,1,-540.0,-536.0,3804.0,3799.0,1419.0,1416.0
-543,3806,1412,1,-538.0,-540.0,3805.0,3804.0,1418.0,1419.0
-546,3808,1403,1,-543.0,-538.0,3806.0,3805.0,1412.0,1418.0
-552,3815,1390,1,-546.0,-543.0,3808.0,3806.0,1403.0,1412.0
-555,3822,1388,1,-552.0,-546.0,3815.0,3808.0,1390.0,1403.0
-554,3821,1390,1,-555.0,-552.0,3822.0,3815.0,1388.0,1390.0
-553,3824,1397,1,-554.0,-555.0,3821.0,3822.0,1390.0,1388.0
-548,3824,1407,1,-553.0,-554.0,3824.0,3821.0,1397.0,1390.0
-545,3822,1416,1,-548.0,-553.0,3824.0,3824.0,1407.0,1397.0
-542,3820,1417,1,-545.0,-548.0,3822.0,3824.0,1416.0,1407.0
-537,3819,1412,1,-542.0,-545.0,3820.0,3822.0,1417.0,1416.0
-530,3818,1406,1,-537.0,-542.0,3819.0,3820.0,1412.0,1417.0
-525,3813,1406,1,-530.0,-537.0,3818.0,3819.0,1406.0,1412.0
-525,3811,1409,1,-525.0,-530.0,3813.0,3818.0,1406.0,1406.0
-523,3804,1417,1,-525.0,-525.0,3811.0,3813.0,1409.0,1406.0
-523,3793,1424,1,-523.0,-525.0,3804.0,3811.0,1417.0,1409.0
-521,3784,1425,1,-523.0,-523.0,3793.0,3804.0,1424.0,1417.0
-523,3782,1427,1,-521.0,-523.0,3784.0,3793.0,1425.0,1424.0
-525,3779,1425,1,-523.0,-521.0,3782.0,3784.0,1427.0,1425.0
-535,3784,1425,1,-525.0,-523.0,3779.0,3782.0,1425.0,1427.0
-544,3795,1414,1,-535.0,-525.0,3784.0,3779.0,1425.0,1425.0
-551,3798,1408,1,-544.0,-535.0,3795.0,3784.0,1414.0,1425.0
-559,3791,1404,1,-551.0,-544.0,3798.0,3795.0,1408.0,1414.0
-562,3795,1405,1,-559.0,-551.0,3791.0,3798.0,1404.0,1408.0
-570,3796,1407,1,-562.0,-559.0,3795.0,3791.0,1405.0,1404.0
-566,3799,1404,1,-570.0,-562.0,3796.0,3795.0,1407.0,1405.0
-563,3797,1407,1,-566.0,-570.0,3799.0,3796.0,1404.0,1407.0
-560,3789,1411,1,-563.0,-566.0,3797.0,3799.0,1407.0,1404.0
-553,3791,1414,1,-560.0,-563.0,3789.0,3797.0,1411.0,1407.0
-552,3793,1413,1,-553.0,-560.0,3791.0,3789.0,1414.0,1411.0
-546,3799,1402,1,-552.0,-553.0,3793.0,3791.0,1413.0,1414.0
-548,3803,1397,1,-546.0,-552.0,3799.0,3793.0,1402.0,1413.0
-549,3796,1393,1,-548.0,-546.0,3803.0,3799.0,1397.0,1402.0
-548,3795,1397,1,-549.0,-548.0,3796.0,3803.0,1393.0,1397.0
-550,3801,1405,1,-548.0,-549.0,3795.0,3796.0,1397.0,1393.0
-552,3804,1414,1,-550.0,-548.0,3801.0,3795.0,1405.0,1397.0
-552,3806,1419,1,-552.0,-550.0,3804.0,3801.0,1414.0,1405.0
-548,3809,1421,1,-552.0,-552.0,3806.0,3804.0,1419.0,1414.0
-550,3814,1416,1,-548.0,-552.0,3809.0,3806.0,1421.0,1419.0
-552,3814,1406,1,-550.0,-548.0,3814.0,3809.0,1416.0,1421.0
-553,3814,1408,1,-552.0,-550.0,3814.0,3814.0,1406.0,1416.0
-555,3812,1408,1,-553.0,-552.0,3814.0,3814.0,1408.0,1406.0
-553,3810,1415,1,-555.0,-553.0,3812.0,3814.0,1408.0,1408.0
-549,3809,1419,1,-553.0,-555.0,3810.0,3812.0,1415.0,1408.0
-550,3809,1420,1,-549.0,-553.0,3809.0,3810.0,1419.0,1415.0
-549,3807,1417,1,-550.0,-549.0,3809.0,3809.0,1420.0,1419.0
-552,3804,1415,1,-549.0,-550.0,3807.0,3809.0,1417.0,1420.0
-549,3797,1417,1,-552.0,-549.0,3804.0,3807.0,1415.0,1417.0
-549,3790,1420,1,-549.0,-552.0,3797.0,3804.0,1417.0,1415.0
-548,3789,1421,1,-549.0,-549.0,3790.0,3797.0,1420.0,1417.0
-550,3793,1415,1,-548.0,-549.0,3789.0,3790.0,1421.0,1420.0
-552,3789,1408,1,-550.0,-548.0,3793.0,3789.0,1415.0,1421.0
-553,3796,1399,1,-552.0,-550.0,3789.0,3793.0,1408.0,1415.0
-554,3804,1399,1,-553.0,-552.0,3796.0,3789.0,1399.0,1408.0
-552,3800,1407,1,-554.0,-553.0,3804.0,3796.0,1399.0,1399.0
-550,3798,1412,1,-552.0,-554.0,3800.0,3804.0,1407.0,1399.0
-548,3795,1416,1,-550.0,-552.0,3798.0,3800.0,1412.0,1407.0
-548,3786,1426,1,-548.0,-550.0,3795.0,3798.0,1416.0,1412.0
-547,3781,1432,1,-548.0,-548.0,3786.0,3795.0,1426.0,1416.0
-547,3778,1433,1,-547.0,-548.0,3781.0,3786.0,1432.0,1426.0
-550,3773,1431,1,-547.0,-547.0,3778.0,3781.0,1433.0,1432.0
-553,3769,1429,1,-550.0,-547.0,3773.0,3778.0,1431.0,1433.0
-556,3763,1423,1,-553.0,-550.0,3769.0,3773.0,1429.0,1431.0
-553,3762,1417,1,-556.0,-553.0,3763.0,3769.0,1423.0,1429.0
-551,3758,1411,1,-553.0,-556.0,3762.0,3763.0,1417.0,1423.0
-546,3762,1407,1,-551.0,-553.0,3758.0,3762.0,1411.0,1417.0
-541,3773,1403,1,-546.0,-551.0,3762.0,3758.0,1407.0,1411.0
-540,3788,1401,1,-541.0,-546.0,3773.0,3762.0,1403.0,1407.0
-531,3803,1399,1,-540.0,-541.0,3788.0,3773.0,1401.0,1403.0
-521,3818,1409,1,-531.0,-540.0,3803.0,3788.0,1399.0,1401.0
-512,3820,1428,1,-521.0,-531.0,3818.0,3803.0,1409.0,1399.0
-506,3824,1446,1,-512.0,-521.0,3820.0,3818.0,1428.0,1409.0
-498,3823,1458,1,-506.0,-512.0,3824.0,3820.0,1446.0,1428.0
-492,3823,1456,1,-498.0,-506.0,3823.0,3824.0,1458.0,1446.0
-488,3815,1449,1,-492.0,-498.0,3823.0,3823.0,1456.0,1458.0
-490,3795,1436,1,-488.0,-492.0,3815.0,3823.0,1449.0,1456.0
-494,3775,1426,1,-490.0,-488.0,3795.0,3815.0,1436.0,1449.0
-498,3761,1421,1,-494.0,-490.0,3775.0,3795.0,1426.0,1436.0
-508,3753,1420,1,-498.0,-494.0,3761.0,3775.0,1421.0,1426.0
-522,3749,1428,1,-508.0,-498.0,3753.0,3761.0,1420.0,1421.0
-534,3748,1432,1,-522.0,-508.0,3749.0,3753.0,1428.0,1420.0
-545,3754,1437,1,-534.0,-522.0,3748.0,3749.0,1432.0,1428.0
-552,3754,1440,1,-545.0,-534.0,3754.0,3748.0,1437.0,1432.0
-558,3762,1446,1,-552.0,-545.0,3754.0,3754.0,1440.0,1437.0
-566,3769,1439,1,-558.0,-552.0,3762.0,3754.0,1446.0,1440.0
-571,3773,1436,1,-566.0,-558.0,3769.0,3762.0,1439.0,1446.0
-575,3765,1433,1,-571.0,-566.0,3773.0,3769.0,1436.0,1439.0
-575,3758,1435,1,-575.0,-571.0,3765.0,3773.0,1433.0,1436.0
-576,3752,1439,1,-575.0,-575.0,3758.0,3765.0,1435.0,1433.0
-572,3750,1439,1,-576.0,-575.0,3752.0,3758.0,1439.0,1435.0
-567,3749,1435,1,-572.0,-576.0,3750.0,3752.0,1439.0,1439.0
-565,3749,1439,1,-567.0,-572.0,3749.0,3750.0,1435.0,1439.0
-564,3747,1441,1,-565.0,-567.0,3749.0,3749.0,1439.0,1435.0
-561,3747,1445,1,-564.0,-565.0,3747.0,3749.0,1441.0,1439.0
-560,3758,1441,1,-561.0,-564.0,3747.0,3747.0,1445.0,1441.0
-560,3762,1427,1,-560.0,-561.0,3758.0,3747.0,1441.0,1445.0
-564,3769,1409,1,-560.0,-560.0,3762.0,3758.0,1427.0,1441.0
-566,3772,1407,1,-564.0,-560.0,3769.0,3762.0,1409.0,1427.0
-566,3772,1414,1,-566.0,-564.0,3772.0,3769.0,1407.0,1409.0
-565,3769,1428,1,-566.0,-566.0,3772.0,3772.0,1414.0,1407.0
-561,3768,1442,1,-565.0,-566.0,3769.0,3772.0,1428.0,1414.0
-560,3772,1441,1,-561.0,-565.0,3768.0,3769.0,1442.0,1428.0
-560,3779,1425,1,-560.0,-561.0,3772.0,3768.0,1441.0,1442.0
-557,3784,1411,1,-560.0,-560.0,3779.0,3772.0,1425.0,1441.0
-559,3790,1403,1,-557.0,-560.0,3784.0,3779.0,1411.0,1425.0
-559,3794,1401,1,-559.0,-557.0,3790.0,3784.0,1403.0,1411.0
-558,3795,1408,1,-559.0,-559.0,3794.0,3790.0,1401.0,1403.0
-551,3798,1413,1,-558.0,-559.0,3795.0,3794.0,1408.0,1401.0
-549,3799,1413,1,-551.0,-558.0,3798.0,3795.0,1413.0,1408.0
-544,3800,1411,1,-549.0,-551.0,3799.0,3798.0,1413.0,1413.0
-538,3799,1411,1,-544.0,-549.0,3800.0,3799.0,1411.0,1413.0
-533,3801,1413,1,-538.0,-544.0,3799.0,3800.0,1411.0,1411.0
-529,3800,1416,1,-533.0,-538.0,3801.0,3799.0,1413.0,1411.0
-526,3804,1417,1,-529.0,-533.0,3800.0,3801.0,1416.0,1413.0
-526,3806,1420,1,-526.0,-529.0,3804.0,3800.0,1417.0,1416.0
-522,3807,1419,1,-526.0,-526.0,3806.0,3804.0,1420.0,1417.0
-526,3803,1420,1,-522.0,-526.0,3807.0,3806.0,1419.0,1420.0
-528,3806,1421,1,-526.0,-522.0,3803.0,3807.0,1420.0,1419.0
-529,3807,1417,1,-528.0,-526.0,3806.0,3803.0,1421.0,1420.0
-533,3805,1413,1,-529.0,-528.0,3807.0,3806.0,1417.0,1421.0
-535,3804,1412,1,-533.0,-529.0,3805.0,3807.0,1413.0,1417.0
-535,3802,1415,1,-535.0,-533.0,3804.0,3805.0,1412.0,1413.0
-537,3805,1419,1,-535.0,-535.0,3802.0,3804.0,1415.0,1412.0
-533,3803,1420,1,-537.0,-535.0,3805.0,3802.0,1419.0,1415.0
-530,3800,1420,1,-533.0,-537.0,3803.0,3805.0,1420.0,1419.0
-536,3802,1419,1,-530.0,-533.0,3800.0,3803.0,1420.0,1420.0
-538,3802,1422,1,-536.0,-530.0,3802.0,3800.0,1419.0,1420.0
-536,3796,1421,1,-538.0,-536.0,3802.0,3802.0,1422.0,1419.0
-535,3792,1418,1,-536.0,-538.0,3796.0,3802.0,1421.0,1422.0
-542,3788,1418,1,-535.0,-536.0,3792.0,3796.0,1418.0,1421.0
-545,3789,1424,1,-542.0,-535.0,3788.0,3792.0,1418.0,1418.0
-546,3787,1423,1,-545.0,-542.0,3789.0,3788.0,1424.0,1418.0
-546,3783,1423,1,-546.0,-545.0,3787.0,3789.0,1423.0,1424.0
-546,3773,1430,1,-546.0,-546.0,3783.0,3787.0,1423.0,1423.0
-543,3772,1435,1,-546.0,-546.0,3773.0,3783.0,1430.0,1423.0
-544,3778,1433,1,-543.0,-546.0,3772.0,3773.0,1435.0,1430.0
-548,3787,1427,1,-544.0,-543.0,3778.0,3772.0,1433.0,1435.0
-553,3791,1418,1,-548.0,-544.0,3787.0,3778.0,1427.0,1433.0
-553,3789,1421,1,-553.0,-548.0,3791.0,3787.0,1418.0,1427.0
-550,3789,1427,1,-553.0,-553.0,3789.0,3791.0,1421.0,1418.0
-546,3787,1432,1,-550.0,-553.0,3789.0,3789.0,1427.0,1421.0
-547,3790,1433,1,-546.0,-550.0,3787.0,3789.0,1432.0,1427.0
-547,3798,1428,1,-547.0,-546.0,3790.0,3787.0,1433.0,1432.0
-548,3800,1418,1,-547.0,-547.0,3798.0,3790.0,1428.0,1433.0
-552,3800,1410,1,-548.0,-547.0,3800.0,3798.0,1418.0,1428.0
-549,3794,1411,1,-552.0,-548.0,3800.0,3800.0,1410.0,1418.0
-549,3788,1416,1,-549.0,-552.0,3794.0,3800.0,1411.0,1410.0
-547,3783,1424,1,-549.0,-549.0,3788.0,3794.0,1416.0,1411.0
-547,3781,1435,1,-547.0,-549.0,3783.0,3788.0,1424.0,1416.0
-547,3784,1439,1,-547.0,-547.0,3781.0,3783.0,1435.0,1424.0
-549,3796,1430,1,-547.0,-547.0,3784.0,3781.0,1439.0,1435.0
-548,3804,1422,1,-549.0,-547.0,3796.0,3784.0,1430.0,1439.0
-550,3797,1416,1,-548.0,-549.0,3804.0,3796.0,1422.0,1430.0
-549,3787,1415,1,-550.0,-548.0,3797.0,3804.0,1416.0,1422.0
-546,3785,1415,1,-549.0,-550.0,3787.0,3797.0,1415.0,1416.0
-546,3784,1419,1,-546.0,-549.0,3785.0,3787.0,1415.0,1415.0
-544,3790,1425,1,-546.0,-546.0,3784.0,3785.0,1419.0,1415.0
-545,3791,1433,1,-544.0,-546.0,3790.0,3784.0,1425.0,1419.0
-548,3790,1438,1,-545.0,-544.0,3791.0,3790.0,1433.0,1425.0
-547,3782,1437,1,-548.0,-545.0,3790.0,3791.0,1438.0,1433.0
-547,3772,1442,1,-547.0,-548.0,3782.0,3790.0,1437.0,1438.0
-548,3770,1438,1,-547.0,-547.0,3772.0,3782.0,1442.0,1437.0
-547,3777,1430,1,-548.0,-547.0,3770.0,3772.0,1438.0,1442.0
-550,3782,1414,1,-547.0,-548.0,3777.0,3770.0,1430.0,1438.0
-559,3782,1402,1,-550.0,-547.0,3782.0,3777.0,1414.0,1430.0
-560,3777,1402,1,-559.0,-550.0,3782.0,3782.0,1402.0,1414.0
-555,3777,1408,1,-560.0,-559.0,3777.0,3782.0,1402.0,1402.0
-556,3776,1416,1,-555.0,-560.0,3777.0,3777.0,1408.0,1402.0
-554,3780,1424,1,-556.0,-555.0,3776.0,3777.0,1416.0,1408.0
-547,3787,1432,1,-554.0,-556.0,3780.0,3776.0,1424.0,1416.0
-544,3792,1432,1,-547.0,-554.0,3787.0,3780.0,1432.0,1424.0
-543,3792,1426,1,-544.0,-547.0,3792.0,3787.0,1432.0,1432.0
-545,3791,1417,1,-543.0,-544.0,3792.0,3792.0,1426.0,1432.0
-547,3788,1415,1,-545.0,-543.0,3791.0,3792.0,1417.0,1426.0
-549,3781,1417,1,-547.0,-545.0,3788.0,3791.0,1415.0,1417.0
-549,3771,1415,1,-549.0,-547.0,3781.0,3788.0,1417.0,1415.0
-545,3775,1412,1,-549.0,-549.0,3771.0,3781.0,1415.0,1417.0
-545,3777,1408,1,-545.0,-549.0,3775.0,3771.0,1412.0,1415.0
-542,3779,1403,1,-545.0,-545.0,3777.0,3775.0,1408.0,1412.0
-539,3788,1406,1,-542.0,-545.0,3779.0,3777.0,1403.0,1408.0
-531,3801,1408,1,-539.0,-542.0,3788.0,3779.0,1406.0,1403.0
-522,3814,1414,1,-531.0,-539.0,3801.0,3788.0,1408.0,1406.0
-518,3821,1427,1,-522.0,-531.0,3814.0,3801.0,1414.0,1408.0
-512,3828,1436,1,-518.0,-522.0,3821.0,3814.0,1427.0,1414.0
-500,3824,1444,1,-512.0,-518.0,3828.0,3821.0,1436.0,1427.0
-501,3816,1447,1,-500.0,-512.0,3824.0,3828.0,1444.0,1436.0
-495,3801,1445,1,-501.0,-500.0,3816.0,3824.0,1447.0,1444.0
-501,3788,1439,1,-495.0,-501.0,3801.0,3816.0,1445.0,1447.0
-505,3774,1434,1,-501.0,-495.0,3788.0,3801.0,1439.0,1445.0
-516,3765,1430,1,-505.0,-501.0,3774.0,3788.0,1434.0,1439.0
-523,3760,1427,1,-516.0,-505.0,3765.0,3774.0,1430.0,1434.0
-535,3755,1428,1,-523.0,-516.0,3760.0,3765.0,1427.0,1430.0
-546,3757,1426,1,-535.0,-523.0,3755.0,3760.0,1428.0,1427.0
-552,3767,1433,1,-546.0,-535.0,3757.0,3755.0,1426.0,1428.0
-554,3771,1440,1,-552.0,-546.0,3767.0,3757.0,1433.0,1426.0
-557,3770,1447,1,-554.0,-552.0,3771.0,3767.0,1440.0,1433.0
-560,3761,1449,1,-557.0,-554.0,3770.0,3771.0,1447.0,1440.0
-562,3757,1454,1,-560.0,-557.0,3761.0,3770.0,1449.0,1447.0
-564,3750,1467,1,-562.0,-560.0,3757.0,3761.0,1454.0,1449.0
-571,3747,1469,1,-564.0,-562.0,3750.0,3757.0,1467.0,1454.0
-576,3744,1458,1,-571.0,-564.0,3747.0,3750.0,1469.0,1467.0
-582,3745,1443,1,-576.0,-571.0,3744.0,3747.0,1458.0,1469.0
-587,3749,1429,1,-582.0,-576.0,3745.0,3744.0,1443.0,1458.0
-592,3749,1419,1,-587.0,-582.0,3749.0,3745.0,1429.0,1443.0
-592,3748,1409,1,-592.0,-587.0,3749.0,3749.0,1419.0,1429.0
-584,3748,1403,1,-592.0,-592.0,3748.0,3749.0,1409.0,1419.0
-573,3749,1404,1,-584.0,-592.0,3748.0,3748.0,1403.0,1409.0
-570,3753,1409,1,-573.0,-584.0,3749.0,3748.0,1404.0,1403.0
-562,3765,1413,1,-570.0,-573.0,3753.0,3749.0,1409.0,1404.0
-550,3775,1414,1,-562.0,-570.0,3765.0,3753.0,1413.0,1409.0
-543,3778,1413,1,-550.0,-562.0,3775.0,3765.0,1414.0,1413.0
-542,3781,1408,1,-543.0,-550.0,3778.0,3775.0,1413.0,1414.0
-539,3785,1403,1,-542.0,-543.0,3781.0,3778.0,1408.0,1413.0
-541,3794,1405,1,-539.0,-542.0,3785.0,3781.0,1403.0,1408.0
-545,3801,1407,1,-541.0,-539.0,3794.0,3785.0,1405.0,1403.0
-548,3805,1412,1,-545.0,-541.0,3801.0,3794.0,1407.0,1405.0
-553,3809,1415,1,-548.0,-545.0,3805.0,3801.0,1412.0,1407.0
-553,3812,1412,1,-553.0,-548.0,3809.0,3805.0,1415.0,1412.0
-551,3815,1407,1,-553.0,-553.0,3812.0,3809.0,1412.0,1415.0
-547,3818,1408,1,-551.0,-553.0,3815.0,3812.0,1407.0,1412.0
-544,3817,1413,1,-547.0,-551.0,3818.0,3815.0,1408.0,1407.0
-534,3820,1413,1,-544.0,-547.0,3817.0,3818.0,1413.0,1408.0
-527,3819,1410,1,-534.0,-544.0,3820.0,3817.0,1413.0,1413.0
-523,3822,1401,1,-527.0,-534.0,3819.0,3820.0,1410.0,1413.0
-521,3822,1396,1,-523.0,-527.0,3822.0,3819.0,1401.0,1410.0
-519,3817,1395,1,-521.0,-523.0,3822.0,3822.0,1396.0,1401.0
-520,3813,1401,1,-519.0,-521.0,3817.0,3822.0,1395.0,1396.0
-519,3809,1399,1,-520.0,-519.0,3813.0,3817.0,1401.0,1395.0
-518,3810,1400,1,-519.0,-520.0,3809.0,3813.0,1399.0,1401.0
-521,3809,1405,1,-518.0,-519.0,3810.0,3809.0,1400.0,1399.0
-524,3807,1409,1,-521.0,-518.0,3809.0,3810.0,1405.0,1400.0
-522,3803,1413,1,-524.0,-521.0,3807.0,3809.0,1409.0,1405.0
-519,3797,1416,1,-522.0,-524.0,3803.0,3807.0,1413.0,1409.0
-517,3795,1417,1,-519.0,-522.0,3797.0,3803.0,1416.0,1413.0
-520,3800,1413,1,-517.0,-519.0,3795.0,3797.0,1417.0,1416.0
-526,3804,1413,1,-520.0,-517.0,3800.0,3795.0,1413.0,1417.0
-533,3808,1416,1,-526.0,-520.0,3804.0,3800.0,1413.0,1413.0
-536,3798,1419,1,-533.0,-526.0,3808.0,3804.0,1416.0,1413.0
-539,3788,1415,1,-536.0,-533.0,3798.0,3808.0,1419.0,1416.0
-544,3788,1411,1,-539.0,-536.0,3788.0,3798.0,1415.0,1419.0
-551,3792,1405,1,-544.0,-539.0,3788.0,3788.0,1411.0,1415.0
-557,3797,1404,1,-551.0,-544.0,3792.0,3788.0,1405.0,1411.0
-561,3797,1410,1,-557.0,-551.0,3797.0,3792.0,1404.0,1405.0
-561,3797,1412,1,-561.0,-557.0,3797.0,3797.0,1410.0,1404.0
-559,3791,1414,1,-561.0,-561.0,3797.0,3797.0,1412.0,1410.0
-556,3793,1417,1,-559.0,-561.0,3791.0,3797.0,1414.0,1412.0
-557,3797,1419,1,-556.0,-559.0,3793.0,3791.0,1417.0,1414.0
-557,3795,1421,1,-557.0,-556.0,3797.0,3793.0,1419.0,1417.0
-558,3794,1420,1,-557.0,-557.0,3795.0,3797.0,1421.0,1419.0
-556,3797,1419,1,-558.0,-557.0,3794.0,3795.0,1420.0,1421.0
-556,3798,1418,1,-556.0,-558.0,3797.0,3794.0,1419.0,1420.0
-551,3801,1416,1,-556.0,-556.0,3798.0,3797.0,1418.0,1419.0
-549,3797,1418,1,-551.0,-556.0,3801.0,3798.0,1416.0,1418.0
-547,3796,1417,1,-549.0,-551.0,3797.0,3801.0,1418.0,1416.0
-551,3802,1416,1,-547.0,-549.0,3796.0,3797.0,1417.0,1418.0
-551,3806,1417,1,-551.0,-547.0,3802.0,3796.0,1416.0,1417.0
-551,3807,1414,1,-551.0,-551.0,3806.0,3802.0,1417.0,1416.0
-556,3806,1414,1,-551.0,-551.0,3807.0,3806.0,1414.0,1417.0
-559,3801,1416,1,-556.0,-551.0,3806.0,3807.0,1414.0,1414.0
-563,3800,1416,1,-559.0,-556.0,3801.0,3806.0,1416.0,1414.0
-560,3793,1414,1,-563.0,-559.0,3800.0,3801.0,1416.0,1416.0
-558,3786,1414,1,-560.0,-563.0,3793.0,3800.0,1414.0,1416.0
-561,3783,1410,1,-558.0,-560.0,3786.0,3793.0,1414.0,1414.0
-560,3779,1410,1,-561.0,-558.0,3783.0,3786.0,1410.0,1414.0
-554,3774,1408,1,-560.0,-561.0,3779.0,3783.0,1410.0,1410.0
-547,3772,1408,1,-554.0,-560.0,3774.0,3779.0,1408.0,1410.0
-544,3770,1409,1,-547.0,-554.0,3772.0,3774.0,1408.0,1408.0
-540,3774,1411,1,-544.0,-547.0,3770.0,3772.0,1409.0,1408.0
-538,3776,1412,1,-540.0,-544.0,3774.0,3770.0,1411.0,1409.0
-540,3777,1414,1,-538.0,-540.0,3776.0,3774.0,1412.0,1411.0
-543,3781,1414,1,-540.0,-538.0,3777.0,3776.0,1414.0,1412.0
-544,3785,1414,1,-543.0,-540.0,3781.0,3777.0,1414.0,1414.0
-549,3787,1418,1,-544.0,-543.0,3785.0,3781.0,1414.0,1414.0
-549,3789,1418,1,-549.0,-544.0,3787.0,3785.0,1418.0,1414.0
-546,3789,1413,1,-549.0,-549.0,3789.0,3787.0,1418.0,1418.0
-540,3780,1410,1,-546.0,-549.0,3789.0,3789.0,1413.0,1418.0
-537,3778,1411,1,-540.0,-546.0,3780.0,3789.0,1410.0,1413.0
-532,3781,1415,1,-537.0,-540.0,3778.0,3780.0,1411.0,1410.0
-526,3787,1417,1,-532.0,-537.0,3781.0,3778.0,1415.0,1411.0
-521,3791,1421,1,-526.0,-532.0,3787.0,3781.0,1417.0,1415.0
-524,3790,1429,1,-521.0,-526.0,3791.0,3787.0,1421.0,1417.0
-529,3786,1437,1,-524.0,-521.0,3790.0,3791.0,1429.0,1421.0
-533,3780,1433,1,-529.0,-524.0,3786.0,3790.0,1437.0,1429.0
-542,3771,1439,1,-533.0,-529.0,3780.0,3786.0,1433.0,1437.0
-547,3772,1443,1,-542.0,-533.0,3771.0,3780.0,1439.0,1433.0
-554,3768,1441,1,-547.0,-542.0,3772.0,3771.0,1443.0,1439.0
-559,3765,1442,1,-554.0,-547.0,3768.0,3772.0,1441.0,1443.0
-555,3768,1442,1,-559.0,-554.0,3765.0,3768.0,1442.0,1441.0
-553,3774,1424,1,-555.0,-559.0,3768.0,3765.0,1442.0,1442.0
-559,3785,1403,1,-553.0,-555.0,3774.0,3768.0,1424.0,1442.0
-554,3788,1378,1,-559.0,-553.0,3785.0,3774.0,1403.0,1424.0
-539,3790,1367,1,-554.0,-559.0,3788.0,3785.0,1378.0,1403.0
-525,3797,1367,1,-539.0,-554.0,3790.0,3788.0,1367.0,1378.0
-511,3809,1374,1,-525.0,-539.0,3797.0,3790.0,1367.0,1367.0
-500,3822,1392,1,-511.0,-525.0,3809.0,3797.0,1374.0,1367.0
-482,3833,1414,1,-500.0,-511.0,3822.0,3809.0,1392.0,1374.0
-476,3840,1433,1,-482.0,-500.0,3833.0,3822.0,1414.0,1392.0
-472,3842,1439,1,-476.0,-482.0,3840.0,3833.0,1433.0,1414.0
-473,3835,1440,1,-472.0,-476.0,3842.0,3840.0,1439.0,1433.0
-484,3824,1434,1,-473.0,-472.0,3835.0,3842.0,1440.0,1439.0
-489,3803,1436,1,-484.0,-473.0,3824.0,3835.0,1434.0,1440.0
-501,3786,1437,1,-489.0,-484.0,3803.0,3824.0,1436.0,1434.0
-514,3773,1434,1,-501.0,-489.0,3786.0,3803.0,1437.0,1436.0
-528,3766,1437,1,-514.0,-501.0,3773.0,3786.0,1434.0,1437.0
-542,3765,1438,1,-528.0,-514.0,3766.0,3773.0,1437.0,1434.0
-554,3770,1432,1,-542.0,-528.0,3765.0,3766.0,1438.0,1437.0
-564,3775,1429,1,-554.0,-542.0,3770.0,3765.0,1432.0,1438.0
-573,3778,1435,1,-564.0,-554.0,3775.0,3770.0,1429.0,1432.0
-577,3773,1438,1,-573.0,-564.0,3778.0,3775.0,1435.0,1429.0
-578,3768,1441,1,-577.0,-573.0,3773.0,3778.0,1438.0,1435.0
-580,3764,1444,1,-578.0,-577.0,3768.0,3773.0,1441.0,1438.0
-577,3764,1438,1,-580.0,-578.0,3764.0,3768.0,1444.0,1441.0
-579,3764,1430,1,-577.0,-580.0,3764.0,3764.0,1438.0,1444.0
-579,3759,1421,1,-579.0,-577.0,3764.0,3764.0,1430.0,1438.0
-583,3758,1417,1,-579.0,-579.0,3759.0,3764.0,1421.0,1430.0
-580,3753,1416,1,-583.0,-579.0,3758.0,3759.0,1417.0,1421.0
-577,3752,1415,1,-580.0,-583.0,3753.0,3758.0,1416.0,1417.0
-570,3752,1415,1,-577.0,-580.0,3752.0,3753.0,1415.0,1416.0
-566,3755,1410,1,-570.0,-577.0,3752.0,3752.0,1415.0,1415.0
-565,3755,1407,1,-566.0,-570.0,3755.0,3752.0,1410.0,1415.0
-564,3762,1406,1,-565.0,-566.0,3755.0,3755.0,1407.0,1410.0
-558,3761,1412,1,-564.0,-565.0,3762.0,3755.0,1406.0,1407.0
-556,3765,1416,1,-558.0,-564.0,3761.0,3762.0,1412.0,1406.0
-546,3774,1419,1,-556.0,-558.0,3765.0,3761.0,1416.0,1412.0
-550,3786,1412,1,-546.0,-556.0,3774.0,3765.0,1419.0,1416.0
-546,3792,1411,1,-550.0,-546.0,3786.0,3774.0,1412.0,1419.0
-546,3797,1407,1,-546.0,-550.0,3792.0,3786.0,1411.0,1412.0
-546,3802,1402,1,-546.0,-546.0,3797.0,3792.0,1407.0,1411.0
-547,3805,1409,1,-546.0,-546.0,3802.0,3797.0,1402.0,1407.0
-547,3808,1411,1,-547.0,-546.0,3805.0,3802.0,1409.0,1402.0
-544,3809,1415,1,-547.0,-547.0,3808.0,3805.0,1411.0,1409.0
-543,3810,1412,1,-544.0,-547.0,3809.0,3808.0,1415.0,1411.0
-549,3811,1405,1,-543.0,-544.0,3810.0,3809.0,1412.0,1415.0
-543,3808,1402,1,-549.0,-543.0,3811.0,3810.0,1405.0,1412.0
-538,3808,1408,1,-543.0,-549.0,3808.0,3811.0,1402.0,1405.0
-536,3811,1410,1,-538.0,-543.0,3808.0,3808.0,1408.0,1402.0
-532,3811,1405,1,-536.0,-538.0,3811.0,3808.0,1410.0,1408.0
-529,3811,1400,1,-532.0,-536.0,3811.0,3811.0,1405.0,1410.0
-529,3814,1397,1,-529.0,-532.0,3811.0,3811.0,1400.0,1405.0
-525,3817,1400,1,-529.0,-529.0,3814.0,3811.0,1397.0,1400.0
-520,3820,1405,1,-525.0,-529.0,3817.0,3814.0,1400.0,1397.0
-512,3822,1408,1,-520.0,-525.0,3820.0,3817.0,1405.0,1400.0
-513,3821,1414,1,-512.0,-520.0,3822.0,3820.0,1408.0,1405.0
-516,3819,1410,1,-513.0,-512.0,3821.0,3822.0,1414.0,1408.0
-518,3820,1412,1,-516.0,-513.0,3819.0,3821.0,1410.0,1414.0
-520,3822,1409,1,-518.0,-516.0,3820.0,3819.0,1412.0,1410.0
-519,3819,1413,1,-520.0,-518.0,3822.0,3820.0,1409.0,1412.0
-522,3813,1416,1,-519.0,-520.0,3819.0,3822.0,1413.0,1409.0
-529,3804,1417,1,-522.0,-519.0,3813.0,3819.0,1416.0,1413.0
-533,3799,1417,1,-529.0,-522.0,3804.0,3813.0,1417.0,1416.0
-537,3790,1414,1,-533.0,-529.0,3799.0,3804.0,1417.0,1417.0
-539,3784,1416,1,-537.0,-533.0,3790.0,3799.0,1414.0,1417.0
-539,3779,1415,1,-539.0,-537.0,3784.0,3790.0,1416.0,1414.0
-537,3776,1422,1,-539.0,-539.0,3779.0,3784.0,1415.0,1416.0
-538,3772,1427,1,-537.0,-539.0,3776.0,3779.0,1422.0,1415.0
-537,3771,1426,1,-538.0,-537.0,3772.0,3776.0,1427.0,1422.0
-543,3776,1427,1,-537.0,-538.0,3771.0,3772.0,1426.0,1427.0
-543,3780,1417,1,-543.0,-537.0,3776.0,3771.0,1427.0,1426.0
-547,3779,1414,1,-543.0,-543.0,3780.0,3776.0,1417.0,1427.0
-546,3780,1406,1,-547.0,-543.0,3779.0,3780.0,1414.0,1417.0
-541,3786,1410,1,-546.0,-547.0,3780.0,3779.0,1406.0,1414.0
-543,3797,1409,1,-541.0,-546.0,3786.0,3780.0,1410.0,1406.0
-543,3797,1408,1,-543.0,-541.0,3797.0,3786.0,1409.0,1410.0
-546,3799,1411,1,-543.0,-543.0,3797.0,3797.0,1408.0,1409.0
-546,3800,1414,1,-546.0,-543.0,3799.0,3797.0,1411.0,1408.0
-546,3798,1419,1,-546.0,-546.0,3800.0,3799.0,1414.0,1411.0
-549,3797,1421,1,-546.0,-546.0,3798.0,3800.0,1419.0,1414.0
-546,3802,1420,1,-549.0,-546.0,3797.0,3798.0,1421.0,1419.0
-544,3803,1422,1,-546.0,-549.0,3802.0,3797.0,1420.0,1421.0
-545,3803,1420,1,-544.0,-546.0,3803.0,3802.0,1422.0,1420.0
-545,3799,1417,1,-545.0,-544.0,3803.0,3803.0,1420.0,1422.0
-544,3794,1414,1,-545.0,-545.0,3799.0,3803.0,1417.0,1420.0
-544,3792,1413,1,-544.0,-545.0,3794.0,3799.0,1414.0,1417.0
-546,3798,1413,1,-544.0,-544.0,3792.0,3794.0,1413.0,1414.0
-545,3797,1414,1,-546.0,-544.0,3798.0,3792.0,1413.0,1413.0
-546,3799,1417,1,-545.0,-546.0,3797.0,3798.0,1414.0,1413.0
-548,3794,1412,1,-546.0,-545.0,3799.0,3797.0,1417.0,1414.0
-550,3786,1413,1,-548.0,-546.0,3794.0,3799.0,1412.0,1417.0
-548,3780,1414,1,-550.0,-548.0,3786.0,3794.0,1413.0,1412.0
-548,3778,1416,1,-548.0,-550.0,3780.0,3786.0,1414.0,1413.0
-550,3772,1421,1,-548.0,-548.0,3778.0,3780.0,1416.0,1414.0
-554,3771,1424,1,-550.0,-548.0,3772.0,3778.0,1421.0,1416.0
-552,3777,1426,1,-554.0,-550.0,3771.0,3772.0,1424.0,1421.0
-549,3780,1428,1,-552.0,-554.0,3777.0,3771.0,1426.0,1424.0
-550,3784,1419,1,-549.0,-552.0,3780.0,3777.0,1428.0,1426.0
-552,3787,1412,1,-550.0,-549.0,3784.0,3780.0,1419.0,1428.0
-558,3790,1402,1,-552.0,-550.0,3787.0,3784.0,1412.0,1419.0
-557,3789,1396,1,-558.0,-552.0,3790.0,3787.0,1402.0,1412.0
-558,3782,1395,1,-557.0,-558.0,3789.0,3790.0,1396.0,1402.0
-552,3783,1397,1,-558.0,-557.0,3782.0,3789.0,1395.0,1396.0
-546,3785,1399,1,-552.0,-558.0,3783.0,3782.0,1397.0,1395.0
-543,3790,1402,1,-546.0,-552.0,3785.0,3783.0,1399.0,1397.0
-539,3797,1410,1,-543.0,-546.0,3790.0,3785.0,1402.0,1399.0
-539,3802,1418,1,-539.0,-543.0,3797.0,3790.0,1410.0,1402.0
-540,3806,1424,1,-539.0,-539.0,3802.0,3797.0,1418.0,1410.0
-542,3805,1433,1,-540.0,-539.0,3806.0,3802.0,1424.0,1418.0
-547,3802,1429,1,-542.0,-540.0,3805.0,3806.0,1433.0,1424.0
-551,3801,1427,1,-547.0,-542.0,3802.0,3805.0,1429.0,1433.0
-563,3797,1421,1,-551.0,-547.0,3801.0,3802.0,1427.0,1429.0
-568,3794,1423,1,-563.0,-551.0,3797.0,3801.0,1421.0,1427.0
-572,3790,1422,1,-568.0,-563.0,3794.0,3797.0,1423.0,1421.0
-571,3785,1421,1,-572.0,-568.0,3790.0,3794.0,1422.0,1423.0
-566,3783,1415,1,-571.0,-572.0,3785.0,3790.0,1421.0,1422.0
-555,3783,1396,1,-566.0,-571.0,3783.0,3785.0,1415.0,1421.0
-543,3781,1382,1,-555.0,-566.0,3783.0,3783.0,1396.0,1415.0
-534,3784,1374,1,-543.0,-555.0,3781.0,3783.0,1382.0,1396.0
-520,3789,1372,1,-534.0,-543.0,3784.0,3781.0,1374.0,1382.0
-504,3802,1376,1,-520.0,-534.0,3789.0,3784.0,1372.0,1374.0
-493,3817,1383,1,-504.0,-520.0,3802.0,3789.0,1376.0,1372.0
-484,3830,1400,1,-493.0,-504.0,3817.0,3802.0,1383.0,1376.0
-478,3832,1425,1,-484.0,-493.0,3830.0,3817.0,1400.0,1383.0
-475,3832,1448,1,-478.0,-484.0,3832.0,3830.0,1425.0,1400.0
-474,3826,1457,1,-475.0,-478.0,3832.0,3832.0,1448.0,1425.0
-475,3822,1456,1,-474.0,-475.0,3826.0,3832.0,1457.0,1448.0
-483,3814,1457,1,-475.0,-474.0,3822.0,3826.0,1456.0,1457.0
-490,3793,1459,1,-483.0,-475.0,3814.0,3822.0,1457.0,1456.0
-501,3775,1457,1,-490.0,-483.0,3793.0,3814.0,1459.0,1457.0
-512,3767,1451,1,-501.0,-490.0,3775.0,3793.0,1457.0,1459.0
-529,3763,1441,1,-512.0,-501.0,3767.0,3775.0,1451.0,1457.0
-543,3758,1429,1,-529.0,-512.0,3763.0,3767.0,1441.0,1451.0
-559,3759,1423,1,-543.0,-529.0,3758.0,3763.0,1429.0,1441.0
-572,3756,1419,1,-559.0,-543.0,3759.0,3758.0,1423.0,1429.0
-579,3748,1422,1,-572.0,-559.0,3756.0,3759.0,1419.0,1423.0
-580,3747,1431,1,-579.0,-572.0,3748.0,3756.0,1422.0,1419.0
-578,3748,1434,1,-580.0,-579.0,3747.0,3748.0,1431.0,1422.0
-575,3748,1438,1,-578.0,-580.0,3748.0,3747.0,1434.0,1431.0
-572,3748,1440,1,-575.0,-578.0,3748.0,3748.0,1438.0,1434.0
-567,3750,1433,1,-572.0,-575.0,3748.0,3748.0,1440.0,1438.0
-561,3750,1430,1,-567.0,-572.0,3750.0,3748.0,1433.0,1440.0
-560,3752,1425,1,-561.0,-567.0,3750.0,3750.0,1430.0,1433.0
-561,3750,1419,1,-560.0,-561.0,3752.0,3750.0,1425.0,1430.0
-557,3749,1414,1,-561.0,-560.0,3750.0,3752.0,1419.0,1425.0
-555,3752,1412,1,-557.0,-561.0,3749.0,3750.0,1414.0,1419.0
-558,3760,1404,1,-555.0,-557.0,3752.0,3749.0,1412.0,1414.0
-558,3766,1406,1,-558.0,-555.0,3760.0,3752.0,1404.0,1412.0
-558,3769,1405,1,-558.0,-558.0,3766.0,3760.0,1406.0,1404.0
-554,3774,1411,1,-558.0,-558.0,3769.0,3766.0,1405.0,1406.0
-553,3775,1414,1,-554.0,-558.0,3774.0,3769.0,1411.0,1405.0
-551,3779,1416,1,-553.0,-554.0,3775.0,3774.0,1414.0,1411.0
-548,3782,1420,1,-551.0,-553.0,3779.0,3775.0,1416.0,1414.0
-547,3792,1422,1,-548.0,-551.0,3782.0,3779.0,1420.0,1416.0
-544,3799,1420,1,-547.0,-548.0,3792.0,3782.0,1422.0,1420.0
-546,3803,1418,1,-544.0,-547.0,3799.0,3792.0,1420.0,1422.0
-549,3802,1417,1,-546.0,-544.0,3803.0,3799.0,1418.0,1420.0
-547,3800,1412,1,-549.0,-546.0,3802.0,3803.0,1417.0,1418.0
-545,3797,1404,1,-547.0,-549.0,3800.0,3802.0,1412.0,1417.0
-545,3796,1403,1,-545.0,-547.0,3797.0,3800.0,1404.0,1412.0
-544,3800,1402,1,-545.0,-545.0,3796.0,3797.0,1403.0,1404.0
-544,3806,1404,1,-544.0,-545.0,3800.0,3796.0,1402.0,1403.0
-541,3809,1408,1,-544.0,-544.0,3806.0,3800.0,1404.0,1402.0
-537,3810,1402,1,-541.0,-544.0,3809.0,3806.0,1408.0,1404.0
-537,3808,1402,1,-537.0,-541.0,3810.0,3809.0,1402.0,1408.0
-527,3809,1397,1,-537.0,-537.0,3808.0,3810.0,1402.0,1402.0
-527,3815,1396,1,-527.0,-537.0,3809.0,3808.0,1397.0,1402.0
-524,3815,1396,1,-527.0,-527.0,3815.0,3809.0,1396.0,1397.0
-521,3814,1396,1,-524.0,-527.0,3815.0,3815.0,1396.0,1396.0
-520,3813,1397,1,-521.0,-524.0,3814.0,3815.0,1396.0,1396.0
-518,3812,1397,1,-520.0,-521.0,3813.0,3814.0,1397.0,1396.0
-513,3812,1402,1,-518.0,-520.0,3812.0,3813.0,1397.0,1397.0
-513,3811,1408,1,-513.0,-518.0,3812.0,3812.0,1402.0,1397.0
-513,3809,1416,1,-513.0,-513.0,3811.0,3812.0,1408.0,1402.0
-510,3811,1417,1,-513.0,-513.0,3809.0,3811.0,1416.0,1408.0
-519,3809,1414,1,-510.0,-513.0,3811.0,3809.0,1417.0,1416.0
-522,3810,1412,1,-519.0,-510.0,3809.0,3811.0,1414.0,1417.0
-529,3806,1413,1,-522.0,-519.0,3810.0,3809.0,1412.0,1414.0
-537,3802,1409,1,-529.0,-522.0,3806.0,3810.0,1413.0,1412.0
-543,3801,1408,1,-537.0,-529.0,3802.0,3806.0,1409.0,1413.0
-552,3795,1411,1,-543.0,-537.0,3801.0,3802.0,1408.0,1409.0
-555,3793,1412,1,-552.0,-543.0,3795.0,3801.0,1411.0,1408.0
-556,3790,1416,1,-555.0,-552.0,3793.0,3795.0,1412.0,1411.0
-555,3789,1418,1,-556.0,-555.0,3790.0,3793.0,1416.0,1412.0
-555,3788,1421,1,-555.0,-556.0,3789.0,3790.0,1418.0,1416.0
-559,3786,1422,1,-555.0,-555.0,3788.0,3789.0,1421.0,1418.0
-555,3785,1424,1,-559.0,-555.0,3786.0,3788.0,1422.0,1421.0
-552,3789,1424,1,-555.0,-559.0,3785.0,3786.0,1424.0,1422.0
-549,3790,1425,1,-552.0,-555.0,3789.0,3785.0,1424.0,1424.0
-548,3789,1427,1,-549.0,-552.0,3790.0,3789.0,1425.0,1424.0
-544,3786,1434,1,-548.0,-549.0,3789.0,3790.0,1427.0,1425.0
-543,3784,1434,1,-544.0,-548.0,3786.0,3789.0,1434.0,1427.0
-542,3785,1426,1,-543.0,-544.0,3784.0,3786.0,1434.0,1434.0
-540,3785,1420,1,-542.0,-543.0,3785.0,3784.0,1426.0,1434.0
-537,3787,1419,1,-540.0,-542.0,3785.0,3785.0,1420.0,1426.0
-537,3793,1423,1,-537.0,-540.0,3787.0,3785.0,1419.0,1420.0
-534,3794,1429,1,-537.0,-537.0,3793.0,3787.0,1423.0,1419.0
-534,3792,1423,1,-534.0,-537.0,3794.0,3793.0,1429.0,1423.0
-535,3793,1423,1,-534.0,-534.0,3792.0,3794.0,1423.0,1429.0
-538,3792,1423,1,-535.0,-534.0,3793.0,3792.0,1423.0,1423.0
-538,3789,1419,1,-538.0,-535.0,3792.0,3793.0,1423.0,1423.0
-540,3788,1419,1,-538.0,-538.0,3789.0,3792.0,1419.0,1423.0
-539,3778,1416,1,-540.0,-538.0,3788.0,3789.0,1419.0,1419.0
-542,3775,1416,1,-539.0,-540.0,3778.0,3788.0,1416.0,1419.0
-545,3778,1417,1,-542.0,-539.0,3775.0,3778.0,1416.0,1416.0
-546,3782,1422,1,-545.0,-542.0,3778.0,3775.0,1417.0,1416.0
-550,3780,1421,1,-546.0,-545.0,3782.0,3778.0,1422.0,1417.0
-552,3780,1426,1,-550.0,-546.0,3780.0,3782.0,1421.0,1422.0
-556,3778,1425,1,-552.0,-550.0,3780.0,3780.0,1426.0,1421.0
-557,3775,1423,1,-556.0,-552.0,3778.0,3780.0,1425.0,1426.0
-556,3775,1422,1,-557.0,-556.0,3775.0,3778.0,1423.0,1425.0
-552,3774,1424,1,-556.0,-557.0,3775.0,3775.0,1422.0,1423.0
-549,3775,1430,1,-552.0,-556.0,3774.0,3775.0,1424.0,1422.0
-545,3777,1433,1,-549.0,-552.0,3775.0,3774.0,1430.0,1424.0
-540,3775,1436,1,-545.0,-549.0,3777.0,3775.0,1433.0,1430.0
-536,3775,1440,1,-540.0,-545.0,3775.0,3777.0,1436.0,1433.0
-527,3782,1441,1,-536.0,-540.0,3775.0,3775.0,1440.0,1436.0
-520,3786,1440,1,-527.0,-536.0,3782.0,3775.0,1441.0,1440.0
-520,3791,1439,1,-520.0,-527.0,3786.0,3782.0,1440.0,1441.0
-515,3790,1438,1,-520.0,-520.0,3791.0,3786.0,1439.0,1440.0
-516,3791,1434,1,-515.0,-520.0,3790.0,3791.0,1438.0,1439.0
-509,3789,1437,1,-516.0,-515.0,3791.0,3790.0,1434.0,1438.0
-509,3787,1439,1,-509.0,-516.0,3789.0,3791.0,1437.0,1434.0
-507,3788,1447,1,-509.0,-509.0,3787.0,3789.0,1439.0,1437.0
-504,3792,1453,1,-507.0,-509.0,3788.0,3787.0,1447.0,1439.0
-506,3791,1463,1,-504.0,-507.0,3792.0,3788.0,1453.0,1447.0
-510,3789,1466,1,-506.0,-504.0,3791.0,3792.0,1463.0,1453.0
-512,3785,1471,1,-510.0,-506.0,3789.0,3791.0,1466.0,1463.0
-518,3778,1473,1,-512.0,-510.0,3785.0,3789.0,1471.0,1466.0
-525,3771,1464,1,-518.0,-512.0,3778.0,3785.0,1473.0,1471.0
-529,3763,1457,1,-525.0,-518.0,3771.0,3778.0,1464.0,1473.0
-536,3758,1452,1,-529.0,-525.0,3763.0,3771.0,1457.0,1464.0
-536,3754,1442,1,-536.0,-529.0,3758.0,3763.0,1452.0,1457.0
-539,3753,1434,1,-536.0,-536.0,3754.0,3758.0,1442.0,1452.0
-532,3758,1429,1,-539.0,-536.0,3753.0,3754.0,1434.0,1442.0
-524,3762,1423,1,-532.0,-539.0,3758.0,3753.0,1429.0,1434.0
-511,3769,1418,1,-524.0,-532.0,3762.0,3758.0,1423.0,1429.0
-500,3784,1415,1,-511.0,-524.0,3769.0,3762.0,1418.0,1423.0
-488,3795,1415,1,-500.0,-511.0,3784.0,3769.0,1415.0,1418.0
-476,3802,1427,1,-488.0,-500.0,3795.0,3784.0,1415.0,1415.0
-467,3801,1442,1,-476.0,-488.0,3802.0,3795.0,1427.0,1415.0
-459,3801,1458,1,-467.0,-476.0,3801.0,3802.0,1442.0,1427.0
-455,3795,1466,1,-459.0,-467.0,3801.0,3801.0,1458.0,1442.0
-460,3783,1465,1,-455.0,-459.0,3795.0,3801.0,1466.0,1458.0
-468,3776,1461,1,-460.0,-455.0,3783.0,3795.0,1465.0,1466.0
-476,3763,1458,1,-468.0,-460.0,3776.0,3783.0,1461.0,1465.0
-486,3754,1452,1,-476.0,-468.0,3763.0,3776.0,1458.0,1461.0
-499,3745,1449,1,-486.0,-476.0,3754.0,3763.0,1452.0,1458.0
-512,3741,1449,1,-499.0,-486.0,3745.0,3754.0,1449.0,1452.0
-520,3742,1453,1,-512.0,-499.0,3741.0,3745.0,1449.0,1449.0
-528,3748,1451,1,-520.0,-512.0,3742.0,3741.0,1453.0,1449.0
-543,3759,1449,1,-528.0,-520.0,3748.0,3742.0,1451.0,1453.0
-552,3766,1451,1,-543.0,-528.0,3759.0,3748.0,1449.0,1451.0
-557,3764,1451,1,-552.0,-543.0,3766.0,3759.0,1451.0,1449.0
-560,3757,1455,1,-557.0,-552.0,3764.0,3766.0,1451.0,1451.0
-558,3755,1461,1,-560.0,-557.0,3757.0,3764.0,1455.0,1451.0
-555,3755,1462,1,-558.0,-560.0,3755.0,3757.0,1461.0,1455.0
-556,3758,1459,1,-555.0,-558.0,3755.0,3755.0,1462.0,1461.0
-556,3762,1448,1,-556.0,-555.0,3758.0,3755.0,1459.0,1462.0
-559,3761,1442,1,-556.0,-556.0,3762.0,3758.0,1448.0,1459.0
-562,3758,1429,1,-559.0,-556.0,3761.0,3762.0,1442.0,1448.0
-565,3758,1427,1,-562.0,-559.0,3758.0,3761.0,1429.0,1442.0
-573,3757,1428,1,-565.0,-562.0,3758.0,3758.0,1427.0,1429.0
-573,3758,1434,1,-573.0,-565.0,3757.0,3758.0,1428.0,1427.0
-575,3759,1431,1,-573.0,-573.0,3758.0,3757.0,1434.0,1428.0
-571,3763,1432,1,-575.0,-573.0,3759.0,3758.0,1431.0,1434.0
-568,3764,1432,1,-571.0,-575.0,3763.0,3759.0,1432.0,1431.0
-558,3772,1426,1,-568.0,-571.0,3764.0,3763.0,1432.0,1432.0
-552,3778,1428,1,-558.0,-568.0,3772.0,3764.0,1426.0,1432.0
-545,3784,1422,1,-552.0,-558.0,3778.0,3772.0,1428.0,1426.0
-535,3787,1426,1,-545.0,-552.0,3784.0,3778.0,1422.0,1428.0
-529,3794,1427,1,-535.0,-545.0,3787.0,3784.0,1426.0,1422.0
-528,3798,1427,1,-529.0,-535.0,3794.0,3787.0,1427.0,1426.0
-523,3796,1429,1,-528.0,-529.0,3798.0,3794.0,1427.0,1427.0
-522,3797,1425,1,-523.0,-528.0,3796.0,3798.0,1429.0,1427.0
-524,3799,1422,1,-522.0,-523.0,3797.0,3796.0,1425.0,1429.0
-528,3803,1421,1,-524.0,-522.0,3799.0,3797.0,1422.0,1425.0
-527,3806,1418,1,-528.0,-524.0,3803.0,3799.0,1421.0,1422.0
-530,3803,1418,1,-527.0,-528.0,3806.0,3803.0,1418.0,1421.0
-529,3806,1418,1,-530.0,-527.0,3803.0,3806.0,1418.0,1418.0
-525,3809,1412,1,-529.0,-530.0,3806.0,3803.0,1418.0,1418.0
-529,3811,1411,1,-525.0,-529.0,3809.0,3806.0,1412.0,1418.0
-527,3817,1405,1,-529.0,-525.0,3811.0,3809.0,1411.0,1412.0
-523,3817,1409,1,-527.0,-529.0,3817.0,3811.0,1405.0,1411.0
-519,3816,1411,1,-523.0,-527.0,3817.0,3817.0,1409.0,1405.0
-517,3819,1412,1,-519.0,-523.0,3816.0,3817.0,1411.0,1409.0
-514,3819,1412,1,-517.0,-519.0,3819.0,3816.0,1412.0,1411.0
-510,3814,1417,1,-514.0,-517.0,3819.0,3819.0,1412.0,1412.0
-503,3815,1419,1,-510.0,-514.0,3814.0,3819.0,1417.0,1412.0
-501,3815,1422,1,-503.0,-510.0,3815.0,3814.0,1419.0,1417.0
-499,3814,1424,1,-501.0,-503.0,3815.0,3815.0,1422.0,1419.0
-505,3814,1427,1,-499.0,-501.0,3814.0,3815.0,1424.0,1422.0
-508,3810,1424,1,-505.0,-499.0,3814.0,3814.0,1427.0,1424.0
-512,3807,1420,1,-508.0,-505.0,3810.0,3814.0,1424.0,1427.0
-520,3807,1420,1,-512.0,-508.0,3807.0,3810.0,1420.0,1424.0
-524,3801,1417,1,-520.0,-512.0,3807.0,3807.0,1420.0,1420.0
-529,3801,1418,1,-524.0,-520.0,3801.0,3807.0,1417.0,1420.0
-531,3798,1420,1,-529.0,-524.0,3801.0,3801.0,1418.0,1417.0
-529,3796,1420,1,-531.0,-529.0,3798.0,3801.0,1420.0,1418.0
-529,3801,1423,1,-529.0,-531.0,3796.0,3798.0,1420.0,1420.0
-526,3798,1427,1,-529.0,-529.0,3801.0,3796.0,1423.0,1420.0
-524,3790,1429,1,-526.0,-529.0,3798.0,3801.0,1427.0,1423.0
-523,3785,1433,1,-524.0,-526.0,3790.0,3798.0,1429.0,1427.0
-518,3787,1437,1,-523.0,-524.0,3785.0,3790.0,1433.0,1429.0
-516,3788,1438,1,-518.0,-523.0,3787.0,3785.0,1437.0,1433.0
-520,3788,1438,1,-516.0,-518.0,3788.0,3787.0,1438.0,1437.0
-525,3792,1437,1,-520.0,-516.0,3788.0,3788.0,1438.0,1438.0
-529,3788,1435,1,-525.0,-520.0,3792.0,3788.0,1437.0,1438.0
-530,3787,1436,1,-529.0,-525.0,3788.0,3792.0,1435.0,1437.0
-535,3787,1434,1,-530.0,-529.0,3787.0,3788.0,1436.0,1435.0
-537,3787,1433,1,-535.0,-530.0,3787.0,3787.0,1434.0,1436.0
-541,3786,1431,1,-537.0,-535.0,3787.0,3787.0,1433.0,1434.0
-545,3787,1431,1,-541.0,-537.0,3786.0,3787.0,1431.0,1433.0
-545,3788,1433,1,-545.0,-541.0,3787.0,3786.0,1431.0,1431.0
-550,3790,1435,1,-545.0,-545.0,3788.0,3787.0,1433.0,1431.0
-552,3789,1431,1,-550.0,-545.0,3790.0,3788.0,1435.0,1433.0
-548,3788,1428,1,-552.0,-550.0,3789.0,3790.0,1431.0,1435.0
-545,3786,1426,1,-548.0,-552.0,3788.0,3789.0,1428.0,1431.0
-543,3784,1427,1,-545.0,-548.0,3786.0,3788.0,1426.0,1428.0
-545,3784,1430,1,-543.0,-545.0,3784.0,3786.0,1427.0,1426.0
-543,3784,1427,1,-545.0,-543.0,3784.0,3784.0,1430.0,1427.0
-539,3781,1427,1,-543.0,-545.0,3784.0,3784.0,1427.0,1430.0
-537,3777,1428,1,-539.0,-543.0,3781.0,3784.0,1427.0,1427.0
-534,3777,1430,1,-537.0,-539.0,3777.0,3781.0,1428.0,1427.0
-527,3774,1431,1,-534.0,-537.0,3777.0,3777.0,1430.0,1428.0
-525,3773,1433,1,-527.0,-534.0,3774.0,3777.0,1431.0,1430.0
-524,3778,1430,1,-525.0,-527.0,3773.0,3774.0,1433.0,1431.0
-524,3780,1434,1,-524.0,-525.0,3778.0,3773.0,1430.0,1433.0
-531,3777,1428,1,-524.0,-524.0,3780.0,3778.0,1434.0,1430.0
-533,3775,1427,1,-531.0,-524.0,3777.0,3780.0,1428.0,1434.0
-537,3770,1425,1,-533.0,-531.0,3775.0,3777.0,1427.0,1428.0
-540,3767,1425,1,-537.0,-533.0,3770.0,3775.0,1425.0,1427.0
-543,3770,1429,1,-540.0,-537.0,3767.0,3770.0,1425.0,1425.0
-541,3774,1436,1,-543.0,-540.0,3770.0,3767.0,1429.0,1425.0
-536,3777,1435,1,-541.0,-543.0,3774.0,3770.0,1436.0,1429.0
-536,3779,1440,1,-536.0,-541.0,3777.0,3774.0,1435.0,1436.0
-525,3782,1439,1,-536.0,-536.0,3779.0,3777.0,1440.0,1435.0
-520,3783,1441,1,-525.0,-536.0,3782.0,3779.0,1439.0,1440.0
-516,3782,1436,1,-520.0,-525.0,3783.0,3782.0,1441.0,1439.0
-512,3780,1432,1,-516.0,-520.0,3782.0,3783.0,1436.0,1441.0
-512,3780,1430,1,-512.0,-516.0,3780.0,3782.0,1432.0,1436.0
-510,3781,1428,1,-512.0,-512.0,3780.0,3780.0,1430.0,1432.0
-510,3783,1435,1,-510.0,-512.0,3781.0,3780.0,1428.0,1430.0
-511,3782,1438,1,-510.0,-510.0,3783.0,3781.0,1435.0,1428.0
-518,3776,1439,1,-511.0,-510.0,3782.0,3783.0,1438.0,1435.0
-523,3774,1441,1,-518.0,-511.0,3776.0,3782.0,1439.0,1438.0
-522,3773,1445,1,-523.0,-518.0,3774.0,3776.0,1441.0,1439.0
-530,3772,1448,1,-522.0,-523.0,3773.0,3774.0,1445.0,1441.0
-534,3774,1450,1,-530.0,-522.0,3772.0,3773.0,1448.0,1445.0
-537,3778,1449,1,-534.0,-530.0,3774.0,3772.0,1450.0,1448.0
-537,3777,1445,1,-537.0,-534.0,3778.0,3774.0,1449.0,1450.0
-538,3779,1439,1,-537.0,-537.0,3777.0,3778.0,1445.0,1449.0
-542,3776,1435,1,-538.0,-537.0,3779.0,3777.0,1439.0,1445.0
-542,3775,1422,1,-542.0,-538.0,3776.0,3779.0,1435.0,1439.0
-537,3777,1421,1,-542.0,-542.0,3775.0,3776.0,1422.0,1435.0
-536,3782,1412,1,-537.0,-542.0,3777.0,3775.0,1421.0,1422.0
-528,3791,1408,1,-536.0,-537.0,3782.0,3777.0,1412.0,1421.0
-519,3800,1414,1,-528.0,-536.0,3791.0,3782.0,1408.0,1412.0
-510,3810,1424,1,-519.0,-528.0,3800.0,3791.0,1414.0,1408.0
-501,3816,1438,1,-510.0,-519.0,3810.0,3800.0,1424.0,1414.0
-490,3817,1447,1,-501.0,-510.0,3816.0,3810.0,1438.0,1424.0
-480,3816,1451,1,-490.0,-501.0,3817.0,3816.0,1447.0,1438.0
-479,3808,1455,1,-480.0,-490.0,3816.0,3817.0,1451.0,1447.0
-476,3796,1455,1,-479.0,-480.0,3808.0,3816.0,1455.0,1451.0
-479,3783,1453,1,-476.0,-479.0,3796.0,3808.0,1455.0,1455.0
-487,3766,1449,1,-479.0,-476.0,3783.0,3796.0,1453.0,1455.0
-495,3756,1440,1,-487.0,-479.0,3766.0,3783.0,1449.0,1453.0
-502,3748,1441,1,-495.0,-487.0,3756.0,3766.0,1440.0,1449.0
-512,3749,1439,1,-502.0,-495.0,3748.0,3756.0,1441.0,1440.0
-525,3753,1437,1,-512.0,-502.0,3749.0,3748.0,1439.0,1441.0
-537,3759,1435,1,-525.0,-512.0,3753.0,3749.0,1437.0,1439.0
-550,3769,1435,1,-537.0,-525.0,3759.0,3753.0,1435.0,1437.0
-558,3768,1439,1,-550.0,-537.0,3769.0,3759.0,1435.0,1435.0
-562,3774,1440,1,-558.0,-550.0,3768.0,3769.0,1439.0,1435.0
-565,3770,1440,1,-562.0,-558.0,3774.0,3768.0,1440.0,1439.0
-568,3763,1436,1,-565.0,-562.0,3770.0,3774.0,1440.0,1440.0
-565,3762,1441,1,-568.0,-565.0,3763.0,3770.0,1436.0,1440.0
-563,3759,1445,1,-565.0,-568.0,3762.0,3763.0,1441.0,1436.0
-556,3758,1447,1,-563.0,-565.0,3759.0,3762.0,1445.0,1441.0
-551,3759,1453,1,-556.0,-563.0,3758.0,3759.0,1447.0,1445.0
-545,3760,1458,1,-551.0,-556.0,3759.0,3758.0,1453.0,1447.0
-541,3766,1456,1,-545.0,-551.0,3760.0,3759.0,1458.0,1453.0
-546,3773,1449,1,-541.0,-545.0,3766.0,3760.0,1456.0,1458.0
-552,3780,1437,1,-546.0,-541.0,3773.0,3766.0,1449.0,1456.0
-560,3781,1424,1,-552.0,-546.0,3780.0,3773.0,1437.0,1449.0
-563,3783,1406,1,-560.0,-552.0,3781.0,3780.0,1424.0,1437.0
-568,3785,1394,1,-563.0,-560.0,3783.0,3781.0,1406.0,1424.0
-567,3781,1394,1,-568.0,-563.0,3785.0,3783.0,1394.0,1406.0
-561,3782,1400,1,-567.0,-568.0,3781.0,3785.0,1394.0,1394.0
-557,3790,1410,1,-561.0,-567.0,3782.0,3781.0,1400.0,1394.0
-546,3797,1425,1,-557.0,-561.0,3790.0,3782.0,1410.0,1400.0
-544,3803,1430,1,-546.0,-557.0,3797.0,3790.0,1425.0,1410.0
-536,3806,1428,1,-544.0,-546.0,3803.0,3797.0,1430.0,1425.0
-539,3809,1422,1,-536.0,-544.0,3806.0,3803.0,1428.0,1430.0
-537,3808,1417,1,-539.0,-536.0,3809.0,3806.0,1422.0,1428.0
-529,3808,1412,1,-537.0,-539.0,3808.0,3809.0,1417.0,1422.0
-528,3811,1412,1,-529.0,-537.0,3808.0,3808.0,1412.0,1417.0
-525,3807,1415,1,-528.0,-529.0,3811.0,3808.0,1412.0,1412.0
-521,3804,1417,1,-525.0,-528.0,3807.0,3811.0,1415.0,1412.0
-518,3807,1415,1,-521.0,-525.0,3804.0,3807.0,1417.0,1415.0
-518,3802,1413,1,-518.0,-521.0,3807.0,3804.0,1415.0,1417.0
-518,3802,1416,1,-518.0,-518.0,3802.0,3807.0,1413.0,1415.0
-511,3804,1419,1,-518.0,-518.0,3802.0,3802.0,1416.0,1413.0
-509,3806,1421,1,-511.0,-518.0,3804.0,3802.0,1419.0,1416.0
-504,3808,1418,1,-509.0,-511.0,3806.0,3804.0,1421.0,1419.0
-502,3811,1412,1,-504.0,-509.0,3808.0,3806.0,1418.0,1421.0
-503,3811,1415,1,-502.0,-504.0,3811.0,3808.0,1412.0,1418.0
-505,3810,1418,1,-503.0,-502.0,3811.0,3811.0,1415.0,1412.0
-507,3809,1416,1,-505.0,-503.0,3810.0,3811.0,1418.0,1415.0
-509,3808,1416,1,-507.0,-505.0,3809.0,3810.0,1416.0,1418.0
-505,3802,1416,1,-509.0,-507.0,3808.0,3809.0,1416.0,1416.0
-507,3799,1413,1,-505.0,-509.0,3802.0,3808.0,1416.0,1416.0
-508,3798,1418,1,-507.0,-505.0,3799.0,3802.0,1413.0,1416.0
-514,3795,1422,1,-508.0,-507.0,3798.0,3799.0,1418.0,1413.0
-515,3791,1424,1,-514.0,-508.0,3795.0,3798.0,1422.0,1418.0
-516,3793,1424,1,-515.0,-514.0,3791.0,3795.0,1424.0,1422.0
-517,3797,1426,1,-516.0,-515.0,3793.0,3791.0,1424.0,1424.0
-527,3793,1428,1,-517.0,-516.0,3797.0,3793.0,1426.0,1424.0
-531,3787,1436,1,-527.0,-517.0,3793.0,3797.0,1428.0,1426.0
-540,3779,1438,1,-531.0,-527.0,3787.0,3793.0,1436.0,1428.0
-540,3777,1438,1,-540.0,-531.0,3779.0,3787.0,1438.0,1436.0
-548,3774,1439,1,-540.0,-540.0,3777.0,3779.0,1438.0,1438.0
-550,3772,1436,1,-548.0,-540.0,3774.0,3777.0,1439.0,1438.0
-551,3774,1435,1,-550.0,-548.0,3772.0,3774.0,1436.0,1439.0
-550,3779,1439,1,-551.0,-550.0,3774.0,3772.0,1435.0,1436.0
-552,3781,1439,1,-550.0,-551.0,3779.0,3774.0,1439.0,1435.0
-551,3788,1435,1,-552.0,-550.0,3781.0,3779.0,1439.0,1439.0
-548,3787,1431,1,-551.0,-552.0,3788.0,3781.0,1435.0,1439.0
-545,3788,1433,1,-548.0,-551.0,3787.0,3788.0,1431.0,1435.0
-540,3783,1429,1,-545.0,-548.0,3788.0,3787.0,1433.0,1431.0
-539,3781,1425,1,-540.0,-545.0,3783.0,3788.0,1429.0,1433.0
-536,3783,1423,1,-539.0,-540.0,3781.0,3783.0,1425.0,1429.0
-537,3792,1426,1,-536.0,-539.0,3783.0,3781.0,1423.0,1425.0
-533,3791,1428,1,-537.0,-536.0,3792.0,3783.0,1426.0,1423.0
-533,3793,1426,1,-533.0,-537.0,3791.0,3792.0,1428.0,1426.0
-530,3787,1421,1,-533.0,-533.0,3793.0,3791.0,1426.0,1428.0
-530,3791,1422,1,-530.0,-533.0,3787.0,3793.0,1421.0,1426.0
-531,3792,1417,1,-530.0,-530.0,3791.0,3787.0,1422.0,1421.0
-536,3792,1419,1,-531.0,-530.0,3792.0,3791.0,1417.0,1422.0
-540,3792,1417,1,-536.0,-531.0,3792.0,3792.0,1419.0,1417.0
-537,3788,1415,1,-540.0,-536.0,3792.0,3792.0,1417.0,1419.0
-538,3794,1418,1,-537.0,-540.0,3788.0,3792.0,1415.0,1417.0
-540,3797,1417,1,-538.0,-537.0,3794.0,3788.0,1418.0,1415.0
-542,3795,1417,1,-540.0,-538.0,3797.0,3794.0,1417.0,1418.0
-537,3788,1419,1,-542.0,-540.0,3795.0,3797.0,1417.0,1417.0
-539,3787,1418,1,-537.0,-542.0,3788.0,3795.0,1419.0,1417.0
-538,3788,1416,1,-539.0,-537.0,3787.0,3788.0,1418.0,1419.0
-537,3789,1415,1,-538.0,-539.0,3788.0,3787.0,1416.0,1418.0
-536,3784,1421,1,-537.0,-538.0,3789.0,3788.0,1415.0,1416.0
-529,3781,1421,1,-536.0,-537.0,3784.0,3789.0,1421.0,1415.0
-529,3780,1420,1,-529.0,-536.0,3781.0,3784.0,1421.0,1421.0
-529,3779,1419,1,-529.0,-529.0,3780.0,3781.0,1420.0,1421.0
-524,3782,1419,1,-529.0,-529.0,3779.0,3780.0,1419.0,1420.0
-521,3785,1417,1,-524.0,-529.0,3782.0,3779.0,1419.0,1419.0
-517,3789,1414,1,-521.0,-524.0,3785.0,3782.0,1417.0,1419.0
-518,3791,1416,1,-517.0,-521.0,3789.0,3785.0,1414.0,1417.0
-517,3793,1414,1,-518.0,-517.0,3791.0,3789.0,1416.0,1414.0
-518,3790,1414,1,-517.0,-518.0,3793.0,3791.0,1414.0,1416.0
-519,3788,1415,1,-518.0,-517.0,3790.0,3793.0,1414.0,1414.0
-521,3791,1419,1,-519.0,-518.0,3788.0,3790.0,1415.0,1414.0
-515,3794,1428,1,-521.0,-519.0,3791.0,3788.0,1419.0,1415.0
-504,3786,1447,1,-515.0,-521.0,3794.0,3791.0,1428.0,1419.0
-499,3790,1454,1,-504.0,-515.0,3786.0,3794.0,1447.0,1428.0
-501,3788,1455,1,-499.0,-504.0,3790.0,3786.0,1454.0,1447.0
-505,3789,1448,1,-501.0,-499.0,3788.0,3790.0,1455.0,1454.0
-515,3788,1440,1,-505.0,-501.0,3789.0,3788.0,1448.0,1455.0
-527,3786,1432,1,-515.0,-505.0,3788.0,3789.0,1440.0,1448.0
-533,3783,1426,1,-527.0,-515.0,3786.0,3788.0,1432.0,1440.0
-543,3778,1425,1,-533.0,-527.0,3783.0,3786.0,1426.0,1432.0
-552,3774,1421,1,-543.0,-533.0,3778.0,3783.0,1425.0,1426.0
-559,3771,1422,1,-552.0,-543.0,3774.0,3778.0,1421.0,1425.0
-565,3771,1422,1,-559.0,-552.0,3771.0,3774.0,1422.0,1421.0
-563,3774,1422,1,-565.0,-559.0,3771.0,3771.0,1422.0,1422.0
-558,3781,1414,1,-563.0,-565.0,3774.0,3771.0,1422.0,1422.0
-553,3787,1406,1,-558.0,-563.0,3781.0,3774.0,1414.0,1422.0
-543,3793,1397,1,-553.0,-558.0,3787.0,3781.0,1406.0,1414.0
-530,3797,1389,1,-543.0,-553.0,3793.0,3787.0,1397.0,1406.0
-511,3813,1390,1,-530.0,-543.0,3797.0,3793.0,1389.0,1397.0
-498,3824,1397,1,-511.0,-530.0,3813.0,3797.0,1390.0,1389.0
-483,3831,1412,1,-498.0,-511.0,3824.0,3813.0,1397.0,1390.0
-470,3833,1427,1,-483.0,-498.0,3831.0,3824.0,1412.0,1397.0
-461,3829,1438,1,-470.0,-483.0,3833.0,3831.0,1427.0,1412.0
-456,3823,1441,1,-461.0,-470.0,3829.0,3833.0,1438.0,1427.0
-460,3818,1444,1,-456.0,-461.0,3823.0,3829.0,1441.0,1438.0
-471,3804,1440,1,-460.0,-456.0,3818.0,3823.0,1444.0,1441.0
-484,3787,1433,1,-471.0,-460.0,3804.0,3818.0,1440.0,1444.0
-499,3768,1431,1,-484.0,-471.0,3787.0,3804.0,1433.0,1440.0
-516,3755,1431,1,-499.0,-484.0,3768.0,3787.0,1431.0,1433.0
-532,3749,1428,1,-516.0,-499.0,3755.0,3768.0,1431.0,1431.0
-544,3748,1435,1,-532.0,-516.0,3749.0,3755.0,1428.0,1431.0
-553,3747,1438,1,-544.0,-532.0,3748.0,3749.0,1435.0,1428.0
-557,3749,1436,1,-553.0,-544.0,3747.0,3748.0,1438.0,1435.0
-566,3754,1436,1,-557.0,-553.0,3749.0,3747.0,1436.0,1438.0
-572,3754,1436,1,-566.0,-557.0,3754.0,3749.0,1436.0,1436.0
-569,3753,1432,1,-572.0,-566.0,3754.0,3754.0,1436.0,1436.0
-572,3756,1430,1,-569.0,-572.0,3753.0,3754.0,1432.0,1436.0
-574,3758,1430,1,-572.0,-569.0,3756.0,3753.0,1430.0,1432.0
-573,3754,1432,1,-574.0,-572.0,3758.0,3756.0,1430.0,1430.0
-574,3753,1433,1,-573.0,-574.0,3754.0,3758.0,1432.0,1430.0
-573,3756,1430,1,-574.0,-573.0,3753.0,3754.0,1433.0,1432.0
-569,3757,1424,1,-573.0,-574.0,3756.0,3753.0,1430.0,1433.0
-567,3760,1416,1,-569.0,-573.0,3757.0,3756.0,1424.0,1430.0
-561,3762,1414,1,-567.0,-569.0,3760.0,3757.0,1416.0,1424.0
-557,3765,1416,1,-561.0,-567.0,3762.0,3760.0,1414.0,1416.0
-549,3772,1415,1,-557.0,-561.0,3765.0,3762.0,1416.0,1414.0
-539,3778,1412,1,-549.0,-557.0,3772.0,3765.0,1415.0,1416.0
-529,3790,1415,1,-539.0,-549.0,3778.0,3772.0,1412.0,1415.0
-524,3793,1410,1,-529.0,-539.0,3790.0,3778.0,1415.0,1412.0
-520,3801,1416,1,-524.0,-529.0,3793.0,3790.0,1410.0,1415.0
-514,3806,1417,1,-520.0,-524.0,3801.0,3793.0,1416.0,1410.0
-510,3809,1420,1,-514.0,-520.0,3806.0,3801.0,1417.0,1416.0
-513,3811,1422,1,-510.0,-514.0,3809.0,3806.0,1420.0,1417.0
-514,3809,1421,1,-513.0,-510.0,3811.0,3809.0,1422.0,1420.0
-514,3810,1418,1,-514.0,-513.0,3809.0,3811.0,1421.0,1422.0
-518,3814,1415,1,-514.0,-514.0,3810.0,3809.0,1418.0,1421.0
-523,3807,1408,1,-518.0,-514.0,3814.0,3810.0,1415.0,1418.0
-523,3808,1407,1,-523.0,-518.0,3807.0,3814.0,1408.0,1415.0
-526,3808,1405,1,-523.0,-523.0,3808.0,3807.0,1407.0,1408.0
-522,3807,1404,1,-526.0,-523.0,3808.0,3808.0,1405.0,1407.0
-517,3801,1402,1,-522.0,-526.0,3807.0,3808.0,1404.0,1405.0
-512,3804,1402,1,-517.0,-522.0,3801.0,3807.0,1402.0,1404.0
-503,3806,1401,1,-512.0,-517.0,3804.0,3801.0,1402.0,1402.0
-502,3808,1406,1,-503.0,-512.0,3806.0,3804.0,1401.0,1402.0
-501,3815,1407,1,-502.0,-503.0,3808.0,3806.0,1406.0,1401.0
-498,3820,1410,1,-501.0,-502.0,3815.0,3808.0,1407.0,1406.0
-496,3820,1411,1,-498.0,-501.0,3820.0,3815.0,1410.0,1407.0
-496,3816,1415,1,-496.0,-498.0,3820.0,3820.0,1411.0,1410.0
-501,3812,1417,1,-496.0,-496.0,3816.0,3820.0,1415.0,1411.0
-506,3810,1419,1,-501.0,-496.0,3812.0,3816.0,1417.0,1415.0
-508,3809,1414,1,-506.0,-501.0,3810.0,3812.0,1419.0,1417.0
-511,3805,1413,1,-508.0,-506.0,3809.0,3810.0,1414.0,1419.0
-517,3798,1415,1,-511.0,-508.0,3805.0,3809.0,1413.0,1414.0
-519,3797,1414,1,-517.0,-511.0,3798.0,3805.0,1415.0,1413.0
-517,3794,1418,1,-519.0,-517.0,3797.0,3798.0,1414.0,1415.0
-526,3792,1422,1,-517.0,-519.0,3794.0,3797.0,1418.0,1414.0
-526,3794,1426,1,-526.0,-517.0,3792.0,3794.0,1422.0,1418.0
-524,3791,1421,1,-526.0,-526.0,3794.0,3792.0,1426.0,1422.0
-526,3792,1424,1,-524.0,-526.0,3791.0,3794.0,1421.0,1426.0
-525,3792,1421,1,-526.0,-524.0,3792.0,3791.0,1424.0,1421.0
-528,3788,1418,1,-525.0,-526.0,3792.0,3792.0,1421.0,1424.0
-528,3789,1416,1,-528.0,-525.0,3788.0,3792.0,1418.0,1421.0
-530,3789,1417,1,-528.0,-528.0,3789.0,3788.0,1416.0,1418.0
-530,3791,1417,1,-530.0,-528.0,3789.0,3789.0,1417.0,1416.0
-534,3792,1423,1,-530.0,-530.0,3791.0,3789.0,1417.0,1417.0
-534,3787,1425,1,-534.0,-530.0,3792.0,3791.0,1423.0,1417.0
-535,3790,1424,1,-534.0,-534.0,3787.0,3792.0,1425.0,1423.0
-534,3799,1421,1,-535.0,-534.0,3790.0,3787.0,1424.0,1425.0
-537,3803,1421,1,-534.0,-535.0,3799.0,3790.0,1421.0,1424.0
-542,3804,1421,1,-537.0,-534.0,3803.0,3799.0,1421.0,1421.0
-539,3796,1425,1,-542.0,-537.0,3804.0,3803.0,1421.0,1421.0
-538,3798,1431,1,-539.0,-542.0,3796.0,3804.0,1425.0,1421.0
-543,3799,1432,1,-538.0,-539.0,3798.0,3796.0,1431.0,1425.0
-543,3798,1432,1,-543.0,-538.0,3799.0,3798.0,1432.0,1431.0
-541,3801,1429,1,-543.0,-543.0,3798.0,3799.0,1432.0,1432.0
-543,3800,1426,1,-541.0,-543.0,3801.0,3798.0,1429.0,1432.0
-545,3799,1420,1,-543.0,-541.0,3800.0,3801.0,1426.0,1429.0
-541,3794,1418,1,-545.0,-543.0,3799.0,3800.0,1420.0,1426.0
-540,3784,1413,1,-541.0,-545.0,3794.0,3799.0,1418.0,1420.0
-536,3780,1416,1,-540.0,-541.0,3784.0,3794.0,1413.0,1418.0
-534,3785,1419,1,-536.0,-540.0,3780.0,3784.0,1416.0,1413.0
-531,3780,1420,1,-534.0,-536.0,3785.0,3780.0,1419.0,1416.0
-532,3779,1421,1,-531.0,-534.0,3780.0,3785.0,1420.0,1419.0
-532,3775,1424,1,-532.0,-531.0,3779.0,3780.0,1421.0,1420.0
-535,3771,1421,1,-532.0,-532.0,3775.0,3779.0,1424.0,1421.0
-537,3768,1415,1,-535.0,-532.0,3771.0,3775.0,1421.0,1424.0
-540,3764,1408,1,-537.0,-535.0,3768.0,3771.0,1415.0,1421.0
-544,3762,1411,1,-540.0,-537.0,3764.0,3768.0,1408.0,1415.0
-548,3762,1410,1,-544.0,-540.0,3762.0,3764.0,1411.0,1408.0
-538,3766,1410,1,-548.0,-544.0,3762.0,3762.0,1410.0,1411.0
-535,3769,1416,1,-538.0,-548.0,3766.0,3762.0,1410.0,1410.0
-533,3775,1419,1,-535.0,-538.0,3769.0,3766.0,1416.0,1410.0
-526,3779,1418,1,-533.0,-535.0,3775.0,3769.0,1419.0,1416.0
-519,3780,1420,1,-526.0,-533.0,3779.0,3775.0,1418.0,1419.0
-511,3782,1421,1,-519.0,-526.0,3780.0,3779.0,1420.0,1418.0
-509,3782,1421,1,-511.0,-519.0,3782.0,3780.0,1421.0,1420.0
-508,3790,1419,1,-509.0,-511.0,3782.0,3782.0,1421.0,1421.0
-505,3795,1416,1,-508.0,-509.0,3790.0,3782.0,1419.0,1421.0
-507,3801,1414,1,-505.0,-508.0,3795.0,3790.0,1416.0,1419.0
-510,3803,1414,1,-507.0,-505.0,3801.0,3795.0,1414.0,1416.0
-509,3800,1414,1,-510.0,-507.0,3803.0,3801.0,1414.0,1414.0
-508,3800,1415,1,-509.0,-510.0,3800.0,3803.0,1414.0,1414.0
-504,3798,1420,1,-508.0,-509.0,3800.0,3800.0,1415.0,1414.0
-511,3800,1422,1,-504.0,-508.0,3798.0,3800.0,1420.0,1415.0
-511,3800,1426,1,-511.0,-504.0,3800.0,3798.0,1422.0,1420.0
-509,3797,1434,1,-511.0,-511.0,3800.0,3800.0,1426.0,1422.0
-510,3798,1437,1,-509.0,-511.0,3797.0,3800.0,1434.0,1426.0
-518,3792,1437,1,-510.0,-509.0,3798.0,3797.0,1437.0,1434.0
-521,3789,1444,1,-518.0,-510.0,3792.0,3798.0,1437.0,1437.0
-526,3788,1439,1,-521.0,-518.0,3789.0,3792.0,1444.0,1437.0
-532,3790,1437,1,-526.0,-521.0,3788.0,3789.0,1439.0,1444.0
-535,3796,1435,1,-532.0,-526.0,3790.0,3788.0,1437.0,1439.0
-537,3798,1427,1,-535.0,-532.0,3796.0,3790.0,1435.0,1437.0
-540,3788,1419,1,-537.0,-535.0,3798.0,3796.0,1427.0,1435.0
-542,3785,1413,1,-540.0,-537.0,3788.0,3798.0,1419.0,1427.0
-537,3784,1413,1,-542.0,-540.0,3785.0,3788.0,1413.0,1419.0
-527,3788,1411,1,-537.0,-542.0,3784.0,3785.0,1413.0,1413.0
-520,3794,1404,1,-527.0,-537.0,3788.0,3784.0,1411.0,1413.0
-512,3801,1401,1,-520.0,-527.0,3794.0,3788.0,1404.0,1411.0
-504,3808,1402,1,-512.0,-520.0,3801.0,3794.0,1401.0,1404.0
-492,3806,1411,1,-504.0,-512.0,3808.0,3801.0,1402.0,1401.0
-487,3809,1421,1,-492.0,-504.0,3806.0,3808.0,1411.0,1402.0
-481,3820,1439,1,-487.0,-492.0,3809.0,3806.0,1421.0,1411.0
-478,3832,1445,1,-481.0,-487.0,3820.0,3809.0,1439.0,1421.0
-475,3835,1455,1,-478.0,-481.0,3832.0,3820.0,1445.0,1439.0
-472,3823,1457,1,-475.0,-478.0,3835.0,3832.0,1455.0,1445.0
-472,3800,1451,1,-472.0,-475.0,3823.0,3835.0,1457.0,1455.0
-476,3776,1448,1,-472.0,-472.0,3800.0,3823.0,1451.0,1457.0
-490,3764,1446,1,-476.0,-472.0,3776.0,3800.0,1448.0,1451.0
-506,3752,1446,1,-490.0,-476.0,3764.0,3776.0,1446.0,1448.0
-527,3749,1444,1,-506.0,-490.0,3752.0,3764.0,1446.0,1446.0
-543,3757,1443,1,-527.0,-506.0,3749.0,3752.0,1444.0,1446.0
-559,3764,1447,1,-543.0,-527.0,3757.0,3749.0,1443.0,1444.0
-567,3761,1438,1,-559.0,-543.0,3764.0,3757.0,1447.0,1443.0
-576,3755,1432,1,-567.0,-559.0,3761.0,3764.0,1438.0,1447.0
-579,3759,1430,1,-576.0,-567.0,3755.0,3761.0,1432.0,1438.0
-585,3771,1430,1,-579.0,-576.0,3759.0,3755.0,1430.0,1432.0
-588,3779,1435,1,-585.0,-579.0,3771.0,3759.0,1430.0,1430.0
-586,3773,1430,1,-588.0,-585.0,3779.0,3771.0,1435.0,1430.0
-586,3764,1424,1,-586.0,-588.0,3773.0,3779.0,1430.0,1435.0
-583,3768,1428,1,-586.0,-586.0,3764.0,3773.0,1424.0,1430.0
-580,3776,1424,1,-583.0,-586.0,3768.0,3764.0,1428.0,1424.0
-575,3783,1424,1,-580.0,-583.0,3776.0,3768.0,1424.0,1428.0
-569,3780,1415,1,-575.0,-580.0,3783.0,3776.0,1424.0,1424.0
-567,3776,1408,1,-569.0,-575.0,3780.0,3783.0,1415.0,1424.0
-560,3775,1410,1,-567.0,-569.0,3776.0,3780.0,1408.0,1415.0
-553,3778,1410,1,-560.0,-567.0,3775.0,3776.0,1410.0,1408.0
-550,3781,1410,1,-553.0,-560.0,3778.0,3775.0,1410.0,1410.0
-547,3782,1405,1,-550.0,-553.0,3781.0,3778.0,1410.0,1410.0
-541,3783,1409,1,-547.0,-550.0,3782.0,3781.0,1405.0,1410.0
-536,3792,1415,1,-541.0,-547.0,3783.0,3782.0,1409.0,1405.0
-532,3799,1413,1,-536.0,-541.0,3792.0,3783.0,1415.0,1409.0
-529,3801,1416,1,-532.0,-536.0,3799.0,3792.0,1413.0,1415.0
-526,3797,1414,1,-529.0,-532.0,3801.0,3799.0,1416.0,1413.0
-519,3802,1416,1,-526.0,-529.0,3797.0,3801.0,1414.0,1416.0
-519,3804,1414,1,-519.0,-526.0,3802.0,3797.0,1416.0,1414.0
-520,3810,1411,1,-519.0,-519.0,3804.0,3802.0,1414.0,1416.0
-529,3808,1407,1,-520.0,-519.0,3810.0,3804.0,1411.0,1414.0
-530,3804,1396,1,-529.0,-520.0,3808.0,3810.0,1407.0,1411.0
-528,3806,1391,1,-530.0,-529.0,3804.0,3808.0,1396.0,1407.0
-526,3808,1393,1,-528.0,-530.0,3806.0,3804.0,1391.0,1396.0
-525,3810,1392,1,-526.0,-528.0,3808.0,3806.0,1393.0,1391.0
-520,3816,1396,1,-525.0,-526.0,3810.0,3808.0,1392.0,1393.0
-512,3817,1402,1,-520.0,-525.0,3816.0,3810.0,1396.0,1392.0
-506,3821,1408,1,-512.0,-520.0,3817.0,3816.0,1402.0,1396.0
-503,3829,1408,1,-506.0,-512.0,3821.0,3817.0,1408.0,1402.0
-495,3832,1408,1,-503.0,-506.0,3829.0,3821.0,1408.0,1408.0
-491,3829,1412,1,-495.0,-503.0,3832.0,3829.0,1408.0,1408.0
-490,3826,1415,1,-491.0,-495.0,3829.0,3832.0,1412.0,1408.0
-489,3819,1419,1,-490.0,-491.0,3826.0,3829.0,1415.0,1412.0
-491,3812,1416,1,-489.0,-490.0,3819.0,3826.0,1419.0,1415.0
-492,3802,1418,1,-491.0,-489.0,3812.0,3819.0,1416.0,1419.0
-497,3794,1424,1,-492.0,-491.0,3802.0,3812.0,1418.0,1416.0
-496,3788,1427,1,-497.0,-492.0,3794.0,3802.0,1424.0,1418.0
-499,3788,1428,1,-496.0,-497.0,3788.0,3794.0,1427.0,1424.0
-508,3785,1429,1,-499.0,-496.0,3788.0,3788.0,1428.0,1427.0
-513,3790,1429,1,-508.0,-499.0,3785.0,3788.0,1429.0,1428.0
-516,3787,1430,1,-513.0,-508.0,3790.0,3785.0,1429.0,1429.0
-521,3783,1433,1,-516.0,-513.0,3787.0,3790.0,1430.0,1429.0
-527,3779,1436,1,-521.0,-516.0,3783.0,3787.0,1433.0,1430.0
-529,3778,1439,1,-527.0,-521.0,3779.0,3783.0,1436.0,1433.0
-534,3774,1435,1,-529.0,-527.0,3778.0,3779.0,1439.0,1436.0
-538,3775,1430,1,-534.0,-529.0,3774.0,3778.0,1435.0,1439.0
-542,3773,1432,1,-538.0,-534.0,3775.0,3774.0,1430.0,1435.0
-538,3773,1431,1,-542.0,-538.0,3773.0,3775.0,1432.0,1430.0
-535,3772,1436,1,-538.0,-542.0,3773.0,3773.0,1431.0,1432.0
-529,3773,1436,1,-535.0,-538.0,3772.0,3773.0,1436.0,1431.0
-523,3769,1437,1,-529.0,-535.0,3773.0,3772.0,1436.0,1436.0
-518,3769,1438,1,-523.0,-529.0,3769.0,3773.0,1437.0,1436.0
-516,3771,1439,1,-518.0,-523.0,3769.0,3769.0,1438.0,1437.0
-517,3769,1435,1,-516.0,-518.0,3771.0,3769.0,1439.0,1438.0
-519,3767,1430,1,-517.0,-516.0,3769.0,3771.0,1435.0,1439.0
-526,3768,1426,1,-519.0,-517.0,3767.0,3769.0,1430.0,1435.0
-529,3768,1426,1,-526.0,-519.0,3768.0,3767.0,1426.0,1430.0
-530,3775,1426,1,-529.0,-526.0,3768.0,3768.0,1426.0,1426.0
-531,3783,1427,1,-530.0,-529.0,3775.0,3768.0,1426.0,1426.0
-535,3783,1435,1,-531.0,-530.0,3783.0,3775.0,1427.0,1426.0
-539,3783,1440,1,-535.0,-531.0,3783.0,3783.0,1435.0,1427.0
-540,3783,1438,1,-539.0,-535.0,3783.0,3783.0,1440.0,1435.0
-539,3786,1437,1,-540.0,-539.0,3783.0,3783.0,1438.0,1440.0
-546,3780,1435,1,-539.0,-540.0,3786.0,3783.0,1437.0,1438.0
-544,3774,1428,1,-546.0,-539.0,3780.0,3786.0,1435.0,1437.0
-545,3776,1425,1,-544.0,-546.0,3774.0,3780.0,1428.0,1435.0
-543,3773,1425,1,-545.0,-544.0,3776.0,3774.0,1425.0,1428.0
-547,3778,1426,1,-543.0,-545.0,3773.0,3776.0,1425.0,1425.0
-546,3777,1426,1,-547.0,-543.0,3778.0,3773.0,1426.0,1425.0
-543,3771,1426,1,-546.0,-547.0,3777.0,3778.0,1426.0,1426.0
-539,3769,1424,1,-543.0,-546.0,3771.0,3777.0,1426.0,1426.0
-537,3765,1428,1,-539.0,-543.0,3769.0,3771.0,1424.0,1426.0
-540,3769,1428,1,-537.0,-539.0,3765.0,3769.0,1428.0,1424.0
-538,3771,1430,1,-540.0,-537.0,3769.0,3765.0,1428.0,1428.0
-535,3775,1426,1,-538.0,-540.0,3771.0,3769.0,1430.0,1428.0
-536,3777,1426,1,-535.0,-538.0,3775.0,3771.0,1426.0,1430.0
-529,3775,1429,1,-536.0,-535.0,3777.0,3775.0,1426.0,1426.0
-527,3774,1428,1,-529.0,-536.0,3775.0,3777.0,1429.0,1426.0
-527,3774,1430,1,-527.0,-529.0,3774.0,3775.0,1428.0,1429.0
-520,3774,1432,1,-527.0,-527.0,3774.0,3774.0,1430.0,1428.0
-520,3777,1432,1,-520.0,-527.0,3774.0,3774.0,1432.0,1430.0
-517,3780,1437,1,-520.0,-520.0,3777.0,3774.0,1432.0,1432.0
-512,3776,1435,1,-517.0,-520.0,3780.0,3777.0,1437.0,1432.0
-512,3774,1429,1,-512.0,-517.0,3776.0,3780.0,1435.0,1437.0
-512,3772,1420,1,-512.0,-512.0,3774.0,3776.0,1429.0,1435.0
-503,3777,1412,1,-512.0,-512.0,3772.0,3774.0,1420.0,1429.0
-503,3784,1411,1,-503.0,-512.0,3777.0,3772.0,1412.0,1420.0
-504,3799,1412,1,-503.0,-503.0,3784.0,3777.0,1411.0,1412.0
-507,3812,1422,1,-504.0,-503.0,3799.0,3784.0,1412.0,1411.0
-513,3817,1435,1,-507.0,-504.0,3812.0,3799.0,1422.0,1412.0
-512,3818,1445,1,-513.0,-507.0,3817.0,3812.0,1435.0,1422.0
-514,3821,1452,1,-512.0,-513.0,3818.0,3817.0,1445.0,1435.0
-519,3820,1446,1,-514.0,-512.0,3821.0,3818.0,1452.0,1445.0
-529,3819,1444,1,-519.0,-514.0,3820.0,3821.0,1446.0,1452.0
-539,3813,1434,1,-529.0,-519.0,3819.0,3820.0,1444.0,1446.0
-542,3799,1429,1,-539.0,-529.0,3813.0,3819.0,1434.0,1444.0
-547,3788,1426,1,-542.0,-539.0,3799.0,3813.0,1429.0,1434.0
-550,3786,1424,1,-547.0,-542.0,3788.0,3799.0,1426.0,1429.0
-549,3783,1422,1,-550.0,-547.0,3786.0,3788.0,1424.0,1426.0
-546,3786,1419,1,-549.0,-550.0,3783.0,3786.0,1422.0,1424.0
-536,3785,1416,1,-546.0,-549.0,3786.0,3783.0,1419.0,1422.0
-529,3790,1411,1,-536.0,-546.0,3785.0,3786.0,1416.0,1419.0
-520,3797,1403,1,-529.0,-536.0,3790.0,3785.0,1411.0,1416.0
-507,3808,1410,1,-520.0,-529.0,3797.0,3790.0,1403.0,1411.0
-499,3817,1416,1,-507.0,-520.0,3808.0,3797.0,1410.0,1403.0
-487,3816,1428,1,-499.0,-507.0,3817.0,3808.0,1416.0,1410.0
-471,3815,1442,1,-487.0,-499.0,3816.0,3817.0,1428.0,1416.0
-463,3809,1449,1,-471.0,-487.0,3815.0,3816.0,1442.0,1428.0
-460,3808,1451,1,-463.0,-471.0,3809.0,3815.0,1449.0,1442.0
-465,3810,1453,1,-460.0,-463.0,3808.0,3809.0,1451.0,1449.0
-471,3798,1456,1,-465.0,-460.0,3810.0,3808.0,1453.0,1451.0
-479,3778,1447,1,-471.0,-465.0,3798.0,3810.0,1456.0,1453.0
-496,3761,1441,1,-479.0,-471.0,3778.0,3798.0,1447.0,1456.0
-509,3749,1438,1,-496.0,-479.0,3761.0,3778.0,1441.0,1447.0
-532,3748,1435,1,-509.0,-496.0,3749.0,3761.0,1438.0,1441.0
-550,3753,1436,1,-532.0,-509.0,3748.0,3749.0,1435.0,1438.0
-569,3762,1437,1,-550.0,-532.0,3753.0,3748.0,1436.0,1435.0
-583,3768,1439,1,-569.0,-550.0,3762.0,3753.0,1437.0,1436.0
-590,3773,1445,1,-583.0,-569.0,3768.0,3762.0,1439.0,1437.0
-591,3776,1451,1,-590.0,-583.0,3773.0,3768.0,1445.0,1439.0
-590,3782,1452,1,-591.0,-590.0,3776.0,3773.0,1451.0,1445.0
-584,3788,1447,1,-590.0,-591.0,3782.0,3776.0,1452.0,1451.0
-586,3788,1444,1,-584.0,-590.0,3788.0,3782.0,1447.0,1452.0
-581,3782,1437,1,-586.0,-584.0,3788.0,3788.0,1444.0,1447.0
-574,3776,1425,1,-581.0,-586.0,3782.0,3788.0,1437.0,1444.0
-569,3769,1420,1,-574.0,-581.0,3776.0,3782.0,1425.0,1437.0
-568,3764,1417,1,-569.0,-574.0,3769.0,3776.0,1420.0,1425.0
-565,3760,1419,1,-568.0,-569.0,3764.0,3769.0,1417.0,1420.0
-560,3758,1413,1,-565.0,-568.0,3760.0,3764.0,1419.0,1417.0
-550,3757,1415,1,-560.0,-565.0,3758.0,3760.0,1413.0,1419.0
-547,3756,1419,1,-550.0,-560.0,3757.0,3758.0,1415.0,1413.0
-545,3764,1423,1,-547.0,-550.0,3756.0,3757.0,1419.0,1415.0
-541,3765,1420,1,-545.0,-547.0,3764.0,3756.0,1423.0,1419.0
-534,3766,1422,1,-541.0,-545.0,3765.0,3764.0,1420.0,1423.0
-532,3772,1426,1,-534.0,-541.0,3766.0,3765.0,1422.0,1420.0
-528,3778,1430,1,-532.0,-534.0,3772.0,3766.0,1426.0,1422.0
-524,3785,1433,1,-528.0,-532.0,3778.0,3772.0,1430.0,1426.0
-523,3787,1429,1,-524.0,-528.0,3785.0,3778.0,1433.0,1430.0
-526,3786,1426,1,-523.0,-524.0,3787.0,3785.0,1429.0,1433.0
-527,3790,1427,1,-526.0,-523.0,3786.0,3787.0,1426.0,1429.0
-528,3792,1433,1,-527.0,-526.0,3790.0,3786.0,1427.0,1426.0
-530,3795,1432,1,-528.0,-527.0,3792.0,3790.0,1433.0,1427.0
-530,3793,1431,1,-530.0,-528.0,3795.0,3792.0,1432.0,1433.0
-535,3792,1431,1,-530.0,-530.0,3793.0,3795.0,1431.0,1432.0
-540,3800,1427,1,-535.0,-530.0,3792.0,3793.0,1431.0,1431.0
-545,3800,1424,1,-540.0,-535.0,3800.0,3792.0,1427.0,1431.0
-546,3798,1418,1,-545.0,-540.0,3800.0,3800.0,1424.0,1427.0
-549,3793,1415,1,-546.0,-545.0,3798.0,3800.0,1418.0,1424.0
-549,3786,1415,1,-549.0,-546.0,3793.0,3798.0,1415.0,1418.0
-543,3785,1416,1,-549.0,-549.0,3786.0,3793.0,1415.0,1415.0
-537,3789,1418,1,-543.0,-549.0,3785.0,3786.0,1416.0,1415.0
-531,3795,1420,1,-537.0,-543.0,3789.0,3785.0,1418.0,1416.0
-523,3793,1420,1,-531.0,-537.0,3795.0,3789.0,1420.0,1418.0
-518,3786,1425,1,-523.0,-531.0,3793.0,3795.0,1420.0,1420.0
-510,3783,1437,1,-518.0,-523.0,3786.0,3793.0,1425.0,1420.0
-501,3786,1445,1,-510.0,-518.0,3783.0,3786.0,1437.0,1425.0
-495,3792,1444,1,-501.0,-510.0,3786.0,3783.0,1445.0,1437.0
-495,3797,1435,1,-495.0,-501.0,3792.0,3786.0,1444.0,1445.0
-498,3798,1428,1,-495.0,-495.0,3797.0,3792.0,1435.0,1444.0
-506,3797,1429,1,-498.0,-495.0,3798.0,3797.0,1428.0,1435.0
-508,3790,1430,1,-506.0,-498.0,3797.0,3798.0,1429.0,1428.0
-515,3789,1437,1,-508.0,-506.0,3790.0,3797.0,1430.0,1429.0
-524,3788,1436,1,-515.0,-508.0,3789.0,3790.0,1437.0,1430.0
-532,3791,1434,1,-524.0,-515.0,3788.0,3789.0,1436.0,1437.0
-539,3793,1430,1,-532.0,-524.0,3791.0,3788.0,1434.0,1436.0
-544,3793,1432,1,-539.0,-532.0,3793.0,3791.0,1430.0,1434.0
-545,3784,1433,1,-544.0,-539.0,3793.0,3793.0,1432.0,1430.0
-544,3763,1430,1,-545.0,-544.0,3784.0,3793.0,1433.0,1432.0
-548,3751,1430,1,-544.0,-545.0,3763.0,3784.0,1430.0,1433.0
-552,3763,1436,1,-548.0,-544.0,3751.0,3763.0,1430.0,1430.0
-552,3780,1443,1,-552.0,-548.0,3763.0,3751.0,1436.0,1430.0
-552,3786,1445,1,-552.0,-552.0,3780.0,3763.0,1443.0,1436.0
-551,3776,1437,1,-552.0,-552.0,3786.0,3780.0,1445.0,1443.0
-551,3769,1428,1,-551.0,-552.0,3776.0,3786.0,1437.0,1445.0
-551,3779,1431,1,-551.0,-551.0,3769.0,3776.0,1428.0,1437.0
-553,3795,1426,1,-551.0,-551.0,3779.0,3769.0,1431.0,1428.0
-551,3803,1426,1,-553.0,-551.0,3795.0,3779.0,1426.0,1431.0
-551,3805,1428,1,-551.0,-553.0,3803.0,3795.0,1426.0,1426.0
-546,3796,1427,1,-551.0,-551.0,3805.0,3803.0,1428.0,1426.0
-541,3788,1436,1,-546.0,-551.0,3796.0,3805.0,1427.0,1428.0
-538,3783,1438,1,-541.0,-546.0,3788.0,3796.0,1436.0,1427.0
-541,3781,1439,1,-538.0,-541.0,3783.0,3788.0,1438.0,1436.0
-543,3785,1448,1,-541.0,-538.0,3781.0,3783.0,1439.0,1438.0
-546,3786,1447,1,-543.0,-541.0,3785.0,3781.0,1448.0,1439.0
-545,3781,1445,1,-546.0,-543.0,3786.0,3785.0,1447.0,1448.0
-551,3777,1436,1,-545.0,-546.0,3781.0,3786.0,1445.0,1447.0
-552,3775,1429,1,-551.0,-545.0,3777.0,3781.0,1436.0,1445.0
-558,3774,1429,1,-552.0,-551.0,3775.0,3777.0,1429.0,1436.0
-563,3773,1425,1,-558.0,-552.0,3774.0,3775.0,1429.0,1429.0
-560,3773,1428,1,-563.0,-558.0,3773.0,3774.0,1425.0,1429.0
-557,3770,1431,1,-560.0,-563.0,3773.0,3773.0,1428.0,1425.0
-549,3768,1435,1,-557.0,-560.0,3770.0,3773.0,1431.0,1428.0
-547,3774,1438,1,-549.0,-557.0,3768.0,3770.0,1435.0,1431.0
-546,3778,1435,1,-547.0,-549.0,3774.0,3768.0,1438.0,1435.0
-546,3777,1433,1,-546.0,-547.0,3778.0,3774.0,1435.0,1438.0
-543,3777,1434,1,-546.0,-546.0,3777.0,3778.0,1433.0,1435.0
-541,3778,1434,1,-543.0,-546.0,3777.0,3777.0,1434.0,1433.0
-536,3780,1436,1,-541.0,-543.0,3778.0,3777.0,1434.0,1434.0
-537,3786,1437,1,-536.0,-541.0,3780.0,3778.0,1436.0,1434.0
-540,3796,1433,1,-537.0,-536.0,3786.0,3780.0,1437.0,1436.0
-539,3799,1432,1,-540.0,-537.0,3796.0,3786.0,1433.0,1437.0
-538,3802,1429,1,-539.0,-540.0,3799.0,3796.0,1432.0,1433.0
-534,3795,1429,1,-538.0,-539.0,3802.0,3799.0,1429.0,1432.0
-533,3789,1434,1,-534.0,-538.0,3795.0,3802.0,1429.0,1429.0
-531,3785,1431,1,-533.0,-534.0,3789.0,3795.0,1434.0,1429.0
-532,3785,1427,1,-531.0,-533.0,3785.0,3789.0,1431.0,1434.0
-535,3785,1421,1,-532.0,-531.0,3785.0,3785.0,1427.0,1431.0
-531,3793,1419,1,-535.0,-532.0,3785.0,3785.0,1421.0,1427.0
-532,3799,1419,1,-531.0,-535.0,3793.0,3785.0,1419.0,1421.0
-531,3800,1425,1,-532.0,-531.0,3799.0,3793.0,1419.0,1419.0
-529,3797,1435,1,-531.0,-532.0,3800.0,3799.0,1425.0,1419.0
-530,3792,1447,1,-529.0,-531.0,3797.0,3800.0,1435.0,1425.0
-528,3791,1453,1,-530.0,-529.0,3792.0,3797.0,1447.0,1435.0
-529,3790,1453,1,-528.0,-530.0,3791.0,3792.0,1453.0,1447.0
-530,3790,1452,1,-529.0,-528.0,3790.0,3791.0,1453.0,1453.0
-536,3789,1450,1,-530.0,-529.0,3790.0,3790.0,1452.0,1453.0
-539,3783,1440,1,-536.0,-530.0,3789.0,3790.0,1450.0,1452.0
-547,3776,1434,1,-539.0,-536.0,3783.0,3789.0,1440.0,1450.0
-552,3770,1433,1,-547.0,-539.0,3776.0,3783.0,1434.0,1440.0
-556,3770,1428,1,-552.0,-547.0,3770.0,3776.0,1433.0,1434.0
-554,3771,1428,1,-556.0,-552.0,3770.0,3770.0,1428.0,1433.0
-552,3773,1423,1,-554.0,-556.0,3771.0,3770.0,1428.0,1428.0
-546,3776,1418,1,-552.0,-554.0,3773.0,3771.0,1423.0,1428.0
-544,3779,1405,1,-546.0,-552.0,3776.0,3773.0,1418.0,1423.0
-535,3787,1398,1,-544.0,-546.0,3779.0,3776.0,1405.0,1418.0
-532,3800,1399,1,-535.0,-544.0,3787.0,3779.0,1398.0,1405.0
-525,3811,1407,1,-532.0,-535.0,3800.0,3787.0,1399.0,1398.0
-516,3820,1426,1,-525.0,-532.0,3811.0,3800.0,1407.0,1399.0
-504,3818,1442,1,-516.0,-525.0,3820.0,3811.0,1426.0,1407.0
-497,3820,1454,1,-504.0,-516.0,3818.0,3820.0,1442.0,1426.0
-490,3819,1461,1,-497.0,-504.0,3820.0,3818.0,1454.0,1442.0
-486,3816,1466,1,-490.0,-497.0,3819.0,3820.0,1461.0,1454.0
-487,3809,1460,1,-486.0,-490.0,3816.0,3819.0,1466.0,1461.0
-493,3788,1457,1,-487.0,-486.0,3809.0,3816.0,1460.0,1466.0
-501,3769,1452,1,-493.0,-487.0,3788.0,3809.0,1457.0,1460.0
-507,3758,1451,1,-501.0,-493.0,3769.0,3788.0,1452.0,1457.0
-519,3755,1448,1,-507.0,-501.0,3758.0,3769.0,1451.0,1452.0
-534,3752,1446,1,-519.0,-507.0,3755.0,3758.0,1448.0,1451.0
-544,3754,1443,1,-534.0,-519.0,3752.0,3755.0,1446.0,1448.0
-554,3754,1436,1,-544.0,-534.0,3754.0,3752.0,1443.0,1446.0
-566,3754,1437,1,-554.0,-544.0,3754.0,3754.0,1436.0,1443.0
-573,3755,1440,1,-566.0,-554.0,3754.0,3754.0,1437.0,1436.0
-579,3758,1442,1,-573.0,-566.0,3755.0,3754.0,1440.0,1437.0
-585,3760,1439,1,-579.0,-573.0,3758.0,3755.0,1442.0,1440.0
-590,3761,1443,1,-585.0,-579.0,3760.0,3758.0,1439.0,1442.0
-586,3762,1444,1,-590.0,-585.0,3761.0,3760.0,1443.0,1439.0
-586,3757,1445,1,-586.0,-590.0,3762.0,3761.0,1444.0,1443.0
-585,3755,1439,1,-586.0,-586.0,3757.0,3762.0,1445.0,1444.0
-589,3756,1439,1,-585.0,-586.0,3755.0,3757.0,1439.0,1445.0
-585,3758,1437,1,-589.0,-585.0,3756.0,3755.0,1439.0,1439.0
-581,3763,1433,1,-585.0,-589.0,3758.0,3756.0,1437.0,1439.0
-578,3763,1431,1,-581.0,-585.0,3763.0,3758.0,1433.0,1437.0
-577,3761,1434,1,-578.0,-581.0,3763.0,3763.0,1431.0,1433.0
-572,3761,1438,1,-577.0,-578.0,3761.0,3763.0,1434.0,1431.0
-566,3765,1441,1,-572.0,-577.0,3761.0,3761.0,1438.0,1434.0
-558,3769,1432,1,-566.0,-572.0,3765.0,3761.0,1441.0,1438.0
-551,3774,1435,1,-558.0,-566.0,3769.0,3765.0,1432.0,1441.0
-545,3781,1436,1,-551.0,-558.0,3774.0,3769.0,1435.0,1432.0
-542,3789,1439,1,-545.0,-551.0,3781.0,3774.0,1436.0,1435.0
-542,3794,1442,1,-542.0,-545.0,3789.0,3781.0,1439.0,1436.0
-538,3795,1445,1,-542.0,-542.0,3794.0,3789.0,1442.0,1439.0
-540,3793,1445,1,-538.0,-542.0,3795.0,3794.0,1445.0,1442.0
-537,3794,1438,1,-540.0,-538.0,3793.0,3795.0,1445.0,1445.0
-536,3795,1427,1,-537.0,-540.0,3794.0,3793.0,1438.0,1445.0
-534,3792,1417,1,-536.0,-537.0,3795.0,3794.0,1427.0,1438.0
-535,3785,1412,1,-534.0,-536.0,3792.0,3795.0,1417.0,1427.0
-530,3779,1408,1,-535.0,-534.0,3785.0,3792.0,1412.0,1417.0
-525,3776,1407,1,-530.0,-535.0,3779.0,3785.0,1408.0,1412.0
-518,3782,1412,1,-525.0,-530.0,3776.0,3779.0,1407.0,1408.0
-510,3789,1420,1,-518.0,-525.0,3782.0,3776.0,1412.0,1407.0
-512,3797,1427,1,-510.0,-518.0,3789.0,3782.0,1420.0,1412.0
-518,3799,1428,1,-512.0,-510.0,3797.0,3789.0,1427.0,1420.0
-518,3791,1434,1,-518.0,-512.0,3799.0,3797.0,1428.0,1427.0
-522,3787,1428,1,-518.0,-518.0,3791.0,3799.0,1434.0,1428.0
-521,3793,1428,1,-522.0,-518.0,3787.0,3791.0,1428.0,1434.0
-528,3801,1428,1,-521.0,-522.0,3793.0,3787.0,1428.0,1428.0
-528,3808,1423,1,-528.0,-521.0,3801.0,3793.0,1428.0,1428.0
-529,3813,1423,1,-528.0,-528.0,3808.0,3801.0,1423.0,1428.0
-524,3809,1425,1,-529.0,-528.0,3813.0,3808.0,1423.0,1423.0
-520,3804,1427,1,-524.0,-529.0,3809.0,3813.0,1425.0,1423.0
-521,3803,1428,1,-520.0,-524.0,3804.0,3809.0,1427.0,1425.0
-519,3804,1425,1,-521.0,-520.0,3803.0,3804.0,1428.0,1427.0
-521,3805,1426,1,-519.0,-521.0,3804.0,3803.0,1425.0,1428.0
-520,3801,1428,1,-521.0,-519.0,3805.0,3804.0,1426.0,1425.0
-523,3794,1429,1,-520.0,-521.0,3801.0,3805.0,1428.0,1426.0
-529,3785,1432,1,-523.0,-520.0,3794.0,3801.0,1429.0,1428.0
-534,3780,1428,1,-529.0,-523.0,3785.0,3794.0,1432.0,1429.0
-541,3778,1433,1,-534.0,-529.0,3780.0,3785.0,1428.0,1432.0
-544,3771,1434,1,-541.0,-534.0,3778.0,3780.0,1433.0,1428.0
-547,3767,1432,1,-544.0,-541.0,3771.0,3778.0,1434.0,1433.0
-552,3763,1429,1,-547.0,-544.0,3767.0,3771.0,1432.0,1434.0
-549,3766,1426,1,-552.0,-547.0,3763.0,3767.0,1429.0,1432.0
-547,3769,1428,1,-549.0,-552.0,3766.0,3763.0,1426.0,1429.0
-538,3773,1434,1,-547.0,-549.0,3769.0,3766.0,1428.0,1426.0
-538,3777,1434,1,-538.0,-547.0,3773.0,3769.0,1434.0,1428.0
-541,3773,1438,1,-538.0,-538.0,3777.0,3773.0,1434.0,1434.0
-542,3771,1441,1,-541.0,-538.0,3773.0,3777.0,1438.0,1434.0
-545,3772,1439,1,-542.0,-541.0,3771.0,3773.0,1441.0,1438.0
-545,3776,1435,1,-545.0,-542.0,3772.0,3771.0,1439.0,1441.0
-551,3783,1432,1,-545.0,-545.0,3776.0,3772.0,1435.0,1439.0
-560,3786,1430,1,-551.0,-545.0,3783.0,3776.0,1432.0,1435.0
-559,3788,1429,1,-560.0,-551.0,3786.0,3783.0,1430.0,1432.0
-562,3790,1431,1,-559.0,-560.0,3788.0,3786.0,1429.0,1430.0
-565,3798,1430,1,-562.0,-559.0,3790.0,3788.0,1431.0,1429.0
-565,3804,1423,1,-565.0,-562.0,3798.0,3790.0,1430.0,1431.0
-562,3802,1423,1,-565.0,-565.0,3804.0,3798.0,1423.0,1430.0
-562,3801,1423,1,-562.0,-565.0,3802.0,3804.0,1423.0,1423.0
-561,3801,1428,1,-562.0,-562.0,3801.0,3802.0,1423.0,1423.0
-556,3802,1429,1,-561.0,-562.0,3801.0,3801.0,1428.0,1423.0
-551,3801,1427,1,-556.0,-561.0,3802.0,3801.0,1429.0,1428.0
-549,3791,1422,1,-551.0,-556.0,3801.0,3802.0,1427.0,1429.0
-543,3782,1419,1,-549.0,-551.0,3791.0,3801.0,1422.0,1427.0
-540,3777,1415,1,-543.0,-549.0,3782.0,3791.0,1419.0,1422.0
-541,3776,1417,1,-540.0,-543.0,3777.0,3782.0,1415.0,1419.0
-537,3778,1423,1,-541.0,-540.0,3776.0,3777.0,1417.0,1415.0
-535,3779,1423,1,-537.0,-541.0,3778.0,3776.0,1423.0,1417.0
-537,3778,1424,1,-535.0,-537.0,3779.0,3778.0,1423.0,1423.0
-538,3774,1421,1,-537.0,-535.0,3778.0,3779.0,1424.0,1423.0
-541,3768,1421,1,-538.0,-537.0,3774.0,3778.0,1421.0,1424.0
-544,3769,1422,1,-541.0,-538.0,3768.0,3774.0,1421.0,1421.0
-547,3774,1421,1,-544.0,-541.0,3769.0,3768.0,1422.0,1421.0
-550,3780,1424,1,-547.0,-544.0,3774.0,3769.0,1421.0,1422.0
-549,3789,1426,1,-550.0,-547.0,3780.0,3774.0,1424.0,1421.0
-547,3794,1424,1,-549.0,-550.0,3789.0,3780.0,1426.0,1424.0
-546,3794,1426,1,-547.0,-549.0,3794.0,3789.0,1424.0,1426.0
-544,3790,1432,1,-546.0,-547.0,3794.0,3794.0,1426.0,1424.0
-543,3792,1437,1,-544.0,-546.0,3790.0,3794.0,1432.0,1426.0
-540,3797,1440,1,-543.0,-544.0,3792.0,3790.0,1437.0,1432.0
-539,3803,1433,1,-540.0,-543.0,3797.0,3792.0,1440.0,1437.0
-542,3805,1423,1,-539.0,-540.0,3803.0,3797.0,1433.0,1440.0
-544,3805,1422,1,-542.0,-539.0,3805.0,3803.0,1423.0,1433.0
-541,3802,1423,1,-544.0,-542.0,3805.0,3805.0,1422.0,1423.0
-539,3801,1429,1,-541.0,-544.0,3802.0,3805.0,1423.0,1422.0
-540,3803,1439,1,-539.0,-541.0,3801.0,3802.0,1429.0,1423.0
-538,3803,1437,1,-540.0,-539.0,3803.0,3801.0,1439.0,1429.0
-536,3800,1431,1,-538.0,-540.0,3803.0,3803.0,1437.0,1439.0
-531,3794,1428,1,-536.0,-538.0,3800.0,3803.0,1431.0,1437.0
-531,3792,1430,1,-531.0,-536.0,3794.0,3800.0,1428.0,1431.0
-529,3786,1433,1,-531.0,-531.0,3792.0,3794.0,1430.0,1428.0
-530,3782,1437,1,-529.0,-531.0,3786.0,3792.0,1433.0,1430.0
-533,3777,1438,1,-530.0,-529.0,3782.0,3786.0,1437.0,1433.0
-538,3769,1436,1,-533.0,-530.0,3777.0,3782.0,1438.0,1437.0
-545,3762,1434,1,-538.0,-533.0,3769.0,3777.0,1436.0,1438.0
-549,3754,1430,1,-545.0,-538.0,3762.0,3769.0,1434.0,1436.0
-551,3752,1419,1,-549.0,-545.0,3754.0,3762.0,1430.0,1434.0
-551,3756,1415,1,-551.0,-549.0,3752.0,3754.0,1419.0,1430.0
-548,3760,1408,1,-551.0,-551.0,3756.0,3752.0,1415.0,1419.0
-542,3768,1400,1,-548.0,-551.0,3760.0,3756.0,1408.0,1415.0
-533,3776,1394,1,-542.0,-548.0,3768.0,3760.0,1400.0,1408.0
-524,3786,1397,1,-533.0,-542.0,3776.0,3768.0,1394.0,1400.0
-518,3799,1409,1,-524.0,-533.0,3786.0,3776.0,1397.0,1394.0
-505,3807,1431,1,-518.0,-524.0,3799.0,3786.0,1409.0,1397.0
-497,3811,1452,1,-505.0,-518.0,3807.0,3799.0,1431.0,1409.0
-490,3811,1461,1,-497.0,-505.0,3811.0,3807.0,1452.0,1431.0
-489,3809,1463,1,-490.0,-497.0,3811.0,3811.0,1461.0,1452.0
-495,3803,1460,1,-489.0,-490.0,3809.0,3811.0,1463.0,1461.0
-503,3789,1454,1,-495.0,-489.0,3803.0,3809.0,1460.0,1463.0
-514,3770,1452,1,-503.0,-495.0,3789.0,3803.0,1454.0,1460.0
-528,3757,1447,1,-514.0,-503.0,3770.0,3789.0,1452.0,1454.0
-544,3752,1448,1,-528.0,-514.0,3757.0,3770.0,1447.0,1452.0
-557,3753,1447,1,-544.0,-528.0,3752.0,3757.0,1448.0,1447.0
-566,3755,1442,1,-557.0,-544.0,3753.0,3752.0,1447.0,1448.0
-571,3758,1438,1,-566.0,-557.0,3755.0,3753.0,1442.0,1447.0
-574,3764,1434,1,-571.0,-566.0,3758.0,3755.0,1438.0,1442.0
-578,3769,1432,1,-574.0,-571.0,3764.0,3758.0,1434.0,1438.0
-579,3771,1436,1,-578.0,-574.0,3769.0,3764.0,1432.0,1434.0
-582,3768,1438,1,-579.0,-578.0,3771.0,3769.0,1436.0,1432.0
-578,3769,1441,1,-582.0,-579.0,3768.0,3771.0,1438.0,1436.0
-577,3770,1447,1,-578.0,-582.0,3769.0,3768.0,1441.0,1438.0
-576,3771,1448,1,-577.0,-578.0,3770.0,3769.0,1447.0,1441.0
-575,3773,1443,1,-576.0,-577.0,3771.0,3770.0,1448.0,1447.0
-578,3770,1433,1,-575.0,-576.0,3773.0,3771.0,1443.0,1448.0
-581,3771,1424,1,-578.0,-575.0,3770.0,3773.0,1433.0,1443.0
-581,3770,1421,1,-581.0,-578.0,3771.0,3770.0,1424.0,1433.0
-581,3767,1418,1,-581.0,-581.0,3770.0,3771.0,1421.0,1424.0
-578,3766,1416,1,-581.0,-581.0,3767.0,3770.0,1418.0,1421.0
-571,3774,1419,1,-578.0,-581.0,3766.0,3767.0,1416.0,1418.0
-567,3774,1422,1,-571.0,-578.0,3774.0,3766.0,1419.0,1416.0
-563,3780,1417,1,-567.0,-571.0,3774.0,3774.0,1422.0,1419.0
-557,3781,1412,1,-563.0,-567.0,3780.0,3774.0,1417.0,1422.0
-559,3785,1412,1,-557.0,-563.0,3781.0,3780.0,1412.0,1417.0
-554,3788,1413,1,-559.0,-557.0,3785.0,3781.0,1412.0,1412.0
-549,3793,1412,1,-554.0,-559.0,3788.0,3785.0,1413.0,1412.0
-543,3799,1412,1,-549.0,-554.0,3793.0,3788.0,1412.0,1413.0
-538,3803,1411,1,-543.0,-549.0,3799.0,3793.0,1412.0,1412.0
-529,3807,1414,1,-538.0,-543.0,3803.0,3799.0,1411.0,1412.0
-527,3808,1412,1,-529.0,-538.0,3807.0,3803.0,1414.0,1411.0
-522,3808,1405,1,-527.0,-529.0,3808.0,3807.0,1412.0,1414.0
-517,3807,1400,1,-522.0,-527.0,3808.0,3808.0,1405.0,1412.0
-513,3804,1404,1,-517.0,-522.0,3807.0,3808.0,1400.0,1405.0
-508,3804,1410,1,-513.0,-517.0,3804.0,3807.0,1404.0,1400.0
-506,3804,1411,1,-508.0,-513.0,3804.0,3804.0,1410.0,1404.0
-507,3809,1409,1,-506.0,-508.0,3804.0,3804.0,1411.0,1410.0
-509,3810,1408,1,-507.0,-506.0,3809.0,3804.0,1409.0,1411.0
-510,3813,1406,1,-509.0,-507.0,3810.0,3809.0,1408.0,1409.0
-515,3812,1407,1,-510.0,-509.0,3813.0,3810.0,1406.0,1408.0
-520,3815,1411,1,-515.0,-510.0,3812.0,3813.0,1407.0,1406.0
-521,3819,1411,1,-520.0,-515.0,3815.0,3812.0,1411.0,1407.0
-517,3816,1414,1,-521.0,-520.0,3819.0,3815.0,1411.0,1411.0
-517,3811,1417,1,-517.0,-521.0,3816.0,3819.0,1414.0,1411.0
-515,3807,1419,1,-517.0,-517.0,3811.0,3816.0,1417.0,1414.0
-514,3812,1422,1,-515.0,-517.0,3807.0,3811.0,1419.0,1417.0
-515,3810,1422,1,-514.0,-515.0,3812.0,3807.0,1422.0,1419.0
-512,3809,1415,1,-515.0,-514.0,3810.0,3812.0,1422.0,1422.0
-517,3805,1413,1,-512.0,-515.0,3809.0,3810.0,1415.0,1422.0
-521,3805,1412,1,-517.0,-512.0,3805.0,3809.0,1413.0,1415.0
-533,3805,1415,1,-521.0,-517.0,3805.0,3805.0,1412.0,1413.0
-544,3802,1416,1,-533.0,-521.0,3805.0,3805.0,1415.0,1412.0
-549,3798,1422,1,-544.0,-533.0,3802.0,3805.0,1416.0,1415.0
-552,3793,1428,1,-549.0,-544.0,3798.0,3802.0,1422.0,1416.0
-556,3787,1429,1,-552.0,-549.0,3793.0,3798.0,1428.0,1422.0
-555,3787,1424,1,-556.0,-552.0,3787.0,3793.0,1429.0,1428.0
-559,3785,1423,1,-555.0,-556.0,3787.0,3787.0,1424.0,1429.0
-558,3784,1423,1,-559.0,-555.0,3785.0,3787.0,1423.0,1424.0
-555,3782,1431,1,-558.0,-559.0,3784.0,3785.0,1423.0,1423.0
-551,3782,1434,1,-555.0,-558.0,3782.0,3784.0,1431.0,1423.0
-545,3783,1433,1,-551.0,-555.0,3782.0,3782.0,1434.0,1431.0
-545,3785,1427,1,-545.0,-551.0,3783.0,3782.0,1433.0,1434.0
-544,3787,1427,1,-545.0,-545.0,3785.0,3783.0,1427.0,1433.0
-544,3787,1429,1,-544.0,-545.0,3787.0,3785.0,1427.0,1427.0
-545,3783,1428,1,-544.0,-544.0,3787.0,3787.0,1429.0,1427.0
-549,3779,1426,1,-545.0,-544.0,3783.0,3787.0,1428.0,1429.0
-552,3776,1432,1,-549.0,-545.0,3779.0,3783.0,1426.0,1428.0
-556,3779,1434,1,-552.0,-549.0,3776.0,3779.0,1432.0,1426.0
-559,3787,1428,1,-556.0,-552.0,3779.0,3776.0,1434.0,1432.0
-564,3795,1430,1,-559.0,-556.0,3787.0,3779.0,1428.0,1434.0
-566,3792,1429,1,-564.0,-559.0,3795.0,3787.0,1430.0,1428.0
-567,3794,1427,1,-566.0,-564.0,3792.0,3795.0,1429.0,1430.0
-572,3800,1422,1,-567.0,-566.0,3794.0,3792.0,1427.0,1429.0
-575,3802,1421,1,-572.0,-567.0,3800.0,3794.0,1422.0,1427.0
-571,3798,1416,1,-575.0,-572.0,3802.0,3800.0,1421.0,1422.0
-569,3790,1409,1,-571.0,-575.0,3798.0,3802.0,1416.0,1421.0
-564,3788,1407,1,-569.0,-571.0,3790.0,3798.0,1409.0,1416.0
-561,3789,1408,1,-564.0,-569.0,3788.0,3790.0,1407.0,1409.0
-556,3795,1409,1,-561.0,-564.0,3789.0,3788.0,1408.0,1407.0
-555,3802,1411,1,-556.0,-561.0,3795.0,3789.0,1409.0,1408.0
-557,3807,1409,1,-555.0,-556.0,3802.0,3795.0,1411.0,1409.0
-561,3813,1404,1,-557.0,-555.0,3807.0,3802.0,1409.0,1411.0
-564,3817,1400,1,-561.0,-557.0,3813.0,3807.0,1404.0,1409.0
-567,3814,1398,1,-564.0,-561.0,3817.0,3813.0,1400.0,1404.0
-567,3813,1401,1,-567.0,-564.0,3814.0,3817.0,1398.0,1400.0
-566,3803,1407,1,-567.0,-567.0,3813.0,3814.0,1401.0,1398.0
-563,3794,1413,1,-566.0,-567.0,3803.0,3813.0,1407.0,1401.0
-558,3788,1415,1,-563.0,-566.0,3794.0,3803.0,1413.0,1407.0
-555,3782,1413,1,-558.0,-563.0,3788.0,3794.0,1415.0,1413.0
-553,3786,1413,1,-555.0,-558.0,3782.0,3788.0,1413.0,1415.0
-553,3794,1409,1,-553.0,-555.0,3786.0,3782.0,1413.0,1413.0
-555,3797,1402,1,-553.0,-553.0,3794.0,3786.0,1409.0,1413.0
-553,3794,1397,1,-555.0,-553.0,3797.0,3794.0,1402.0,1409.0
-548,3798,1391,1,-553.0,-555.0,3794.0,3797.0,1397.0,1402.0
-540,3799,1389,1,-548.0,-553.0,3798.0,3794.0,1391.0,1397.0
-534,3799,1393,1,-540.0,-548.0,3799.0,3798.0,1389.0,1391.0
-526,3795,1406,1,-534.0,-540.0,3799.0,3799.0,1393.0,1389.0
-515,3801,1418,1,-526.0,-534.0,3795.0,3799.0,1406.0,1393.0
-516,3803,1426,1,-515.0,-526.0,3801.0,3795.0,1418.0,1406.0
-520,3797,1435,1,-516.0,-515.0,3803.0,3801.0,1426.0,1418.0
-519,3789,1438,1,-520.0,-516.0,3797.0,3803.0,1435.0,1426.0
-517,3781,1444,1,-519.0,-520.0,3789.0,3797.0,1438.0,1435.0
-522,3775,1448,1,-517.0,-519.0,3781.0,3789.0,1444.0,1438.0
-527,3768,1446,1,-522.0,-517.0,3775.0,3781.0,1448.0,1444.0
-535,3767,1446,1,-527.0,-522.0,3768.0,3775.0,1446.0,1448.0
-538,3768,1446,1,-535.0,-527.0,3767.0,3768.0,1446.0,1446.0
-538,3769,1444,1,-538.0,-535.0,3768.0,3767.0,1446.0,1446.0
-542,3770,1440,1,-538.0,-538.0,3769.0,3768.0,1444.0,1446.0
-540,3767,1434,1,-542.0,-538.0,3770.0,3769.0,1440.0,1444.0
-537,3765,1427,1,-540.0,-542.0,3767.0,3770.0,1434.0,1440.0
-532,3762,1421,1,-537.0,-540.0,3765.0,3767.0,1427.0,1434.0
-527,3766,1417,1,-532.0,-537.0,3762.0,3765.0,1421.0,1427.0
-522,3776,1408,1,-527.0,-532.0,3766.0,3762.0,1417.0,1421.0
-522,3779,1404,1,-522.0,-527.0,3776.0,3766.0,1408.0,1417.0
-516,3779,1400,1,-522.0,-522.0,3779.0,3776.0,1404.0,1408.0
-505,3784,1398,1,-516.0,-522.0,3779.0,3779.0,1400.0,1404.0
-499,3785,1394,1,-505.0,-516.0,3784.0,3779.0,1398.0,1400.0
-493,3796,1395,1,-499.0,-505.0,3785.0,3784.0,1394.0,1398.0
-488,3800,1405,1,-493.0,-499.0,3796.0,3785.0,1395.0,1394.0
-485,3802,1418,1,-488.0,-493.0,3800.0,3796.0,1405.0,1395.0
-486,3802,1433,1,-485.0,-488.0,3802.0,3800.0,1418.0,1405.0
-489,3799,1437,1,-486.0,-485.0,3802.0,3802.0,1433.0,1418.0
-498,3795,1436,1,-489.0,-486.0,3799.0,3802.0,1437.0,1433.0
-506,3792,1431,1,-498.0,-489.0,3795.0,3799.0,1436.0,1437.0
-518,3784,1426,1,-506.0,-498.0,3792.0,3795.0,1431.0,1436.0
-529,3769,1424,1,-518.0,-506.0,3784.0,3792.0,1426.0,1431.0
-542,3759,1423,1,-529.0,-518.0,3769.0,3784.0,1424.0,1426.0
-558,3751,1428,1,-542.0,-529.0,3759.0,3769.0,1423.0,1424.0
-563,3750,1432,1,-558.0,-542.0,3751.0,3759.0,1428.0,1423.0
-573,3753,1431,1,-563.0,-558.0,3750.0,3751.0,1432.0,1428.0
-584,3758,1429,1,-573.0,-563.0,3753.0,3750.0,1431.0,1432.0
-588,3763,1429,1,-584.0,-573.0,3758.0,3753.0,1429.0,1431.0
-590,3766,1429,1,-588.0,-584.0,3763.0,3758.0,1429.0,1429.0
-589,3769,1432,1,-590.0,-588.0,3766.0,3763.0,1429.0,1429.0
-583,3771,1431,1,-589.0,-590.0,3769.0,3766.0,1432.0,1429.0
-583,3776,1435,1,-583.0,-589.0,3771.0,3769.0,1431.0,1432.0
-580,3788,1432,1,-583.0,-583.0,3776.0,3771.0,1435.0,1431.0
-579,3794,1424,1,-580.0,-583.0,3788.0,3776.0,1432.0,1435.0
-580,3792,1416,1,-579.0,-580.0,3794.0,3788.0,1424.0,1432.0
-579,3789,1413,1,-580.0,-579.0,3792.0,3794.0,1416.0,1424.0
-571,3785,1411,1,-579.0,-580.0,3789.0,3792.0,1413.0,1416.0
-567,3780,1411,1,-571.0,-579.0,3785.0,3789.0,1411.0,1413.0
-560,3781,1412,1,-567.0,-571.0,3780.0,3785.0,1411.0,1411.0
-553,3783,1412,1,-560.0,-567.0,3781.0,3780.0,1412.0,1411.0
-549,3784,1408,1,-553.0,-560.0,3783.0,3781.0,1412.0,1412.0
-543,3787,1407,1,-549.0,-553.0,3784.0,3783.0,1408.0,1412.0
-543,3783,1404,1,-543.0,-549.0,3787.0,3784.0,1407.0,1408.0
-545,3782,1399,1,-543.0,-543.0,3783.0,3787.0,1404.0,1407.0
-552,3783,1401,1,-545.0,-543.0,3782.0,3783.0,1399.0,1404.0
-553,3786,1400,1,-552.0,-545.0,3783.0,3782.0,1401.0,1399.0
-556,3790,1402,1,-553.0,-552.0,3786.0,3783.0,1400.0,1401.0
-561,3795,1402,1,-556.0,-553.0,3790.0,3786.0,1402.0,1400.0
-564,3799,1403,1,-561.0,-556.0,3795.0,3790.0,1402.0,1402.0
-558,3800,1407,1,-564.0,-561.0,3799.0,3795.0,1403.0,1402.0
-553,3800,1410,1,-558.0,-564.0,3800.0,3799.0,1407.0,1403.0
-548,3803,1412,1,-553.0,-558.0,3800.0,3800.0,1410.0,1407.0
-542,3808,1409,1,-548.0,-553.0,3803.0,3800.0,1412.0,1410.0
-535,3813,1400,1,-542.0,-548.0,3808.0,3803.0,1409.0,1412.0
-531,3812,1397,1,-535.0,-542.0,3813.0,3808.0,1400.0,1409.0
-528,3813,1396,1,-531.0,-535.0,3812.0,3813.0,1397.0,1400.0
-523,3814,1395,1,-528.0,-531.0,3813.0,3812.0,1396.0,1397.0
-520,3820,1391,1,-523.0,-528.0,3814.0,3813.0,1395.0,1396.0
-521,3826,1395,1,-520.0,-523.0,3820.0,3814.0,1391.0,1395.0
-521,3835,1394,1,-521.0,-520.0,3826.0,3820.0,1395.0,1391.0
-516,3837,1398,1,-521.0,-521.0,3835.0,3826.0,1394.0,1395.0
-518,3836,1400,1,-516.0,-521.0,3837.0,3835.0,1398.0,1394.0
-517,3836,1400,1,-518.0,-516.0,3836.0,3837.0,1400.0,1398.0
-519,3835,1403,1,-517.0,-518.0,3836.0,3836.0,1400.0,1400.0
-524,3832,1401,1,-519.0,-517.0,3835.0,3836.0,1403.0,1400.0
-529,3831,1396,1,-524.0,-519.0,3832.0,3835.0,1401.0,1403.0
-529,3830,1394,1,-529.0,-524.0,3831.0,3832.0,1396.0,1401.0
-536,3830,1397,1,-529.0,-529.0,3830.0,3831.0,1394.0,1396.0
-540,3827,1400,1,-536.0,-529.0,3830.0,3830.0,1397.0,1394.0
-537,3819,1406,1,-540.0,-536.0,3827.0,3830.0,1400.0,1397.0
-541,3810,1416,1,-537.0,-540.0,3819.0,3827.0,1406.0,1400.0
-545,3804,1423,1,-541.0,-537.0,3810.0,3819.0,1416.0,1406.0
-545,3803,1425,1,-545.0,-541.0,3804.0,3810.0,1423.0,1416.0
-554,3798,1419,1,-545.0,-545.0,3803.0,3804.0,1425.0,1423.0
-560,3794,1407,1,-554.0,-545.0,3798.0,3803.0,1419.0,1425.0
-563,3794,1395,1,-560.0,-554.0,3794.0,3798.0,1407.0,1419.0
-564,3793,1388,1,-563.0,-560.0,3794.0,3794.0,1395.0,1407.0
-564,3792,1387,1,-564.0,-563.0,3793.0,3794.0,1388.0,1395.0
-560,3788,1403,1,-564.0,-564.0,3792.0,3793.0,1387.0,1388.0
-552,3782,1415,1,-560.0,-564.0,3788.0,3792.0,1403.0,1387.0
-547,3771,1425,1,-552.0,-560.0,3782.0,3788.0,1415.0,1403.0
-545,3773,1432,1,-547.0,-552.0,3771.0,3782.0,1425.0,1415.0
-545,3773,1430,1,-545.0,-547.0,3773.0,3771.0,1432.0,1425.0
-547,3780,1422,1,-545.0,-545.0,3773.0,3773.0,1430.0,1432.0
-545,3780,1409,1,-547.0,-545.0,3780.0,3773.0,1422.0,1430.0
-541,3786,1403,1,-545.0,-547.0,3780.0,3780.0,1409.0,1422.0
-537,3787,1401,1,-541.0,-545.0,3786.0,3780.0,1403.0,1409.0
-537,3790,1408,1,-537.0,-541.0,3787.0,3786.0,1401.0,1403.0
-535,3796,1411,1,-537.0,-537.0,3790.0,3787.0,1408.0,1401.0
-532,3794,1416,1,-535.0,-537.0,3796.0,3790.0,1411.0,1408.0
-528,3792,1416,1,-532.0,-535.0,3794.0,3796.0,1416.0,1411.0
-525,3789,1415,1,-528.0,-532.0,3792.0,3794.0,1416.0,1416.0
-524,3792,1415,1,-525.0,-528.0,3789.0,3792.0,1415.0,1416.0
-527,3791,1413,1,-524.0,-525.0,3792.0,3789.0,1415.0,1415.0
-531,3793,1405,1,-527.0,-524.0,3791.0,3792.0,1413.0,1415.0
-539,3790,1401,1,-531.0,-527.0,3793.0,3791.0,1405.0,1413.0
-550,3789,1399,1,-539.0,-531.0,3790.0,3793.0,1401.0,1405.0
-556,3789,1395,1,-550.0,-539.0,3789.0,3790.0,1399.0,1401.0
-561,3789,1396,1,-556.0,-550.0,3789.0,3789.0,1395.0,1399.0
-565,3795,1394,1,-561.0,-556.0,3789.0,3789.0,1396.0,1395.0
-567,3797,1396,1,-565.0,-561.0,3795.0,3789.0,1394.0,1396.0
-571,3798,1395,1,-567.0,-565.0,3797.0,3795.0,1396.0,1394.0
-570,3790,1393,1,-571.0,-567.0,3798.0,3797.0,1395.0,1396.0
-571,3785,1394,1,-570.0,-571.0,3790.0,3798.0,1393.0,1395.0
-567,3780,1396,1,-571.0,-570.0,3785.0,3790.0,1394.0,1393.0
-568,3781,1393,1,-567.0,-571.0,3780.0,3785.0,1396.0,1394.0
-569,3792,1395,1,-568.0,-567.0,3781.0,3780.0,1393.0,1396.0
-568,3795,1395,1,-569.0,-568.0,3792.0,3781.0,1395.0,1393.0
-567,3791,1391,1,-568.0,-569.0,3795.0,3792.0,1395.0,1395.0
-565,3793,1391,1,-567.0,-568.0,3791.0,3795.0,1391.0,1395.0
-561,3789,1388,1,-565.0,-567.0,3793.0,3791.0,1391.0,1391.0
-557,3785,1389,1,-561.0,-565.0,3789.0,3793.0,1388.0,1391.0
-547,3786,1389,1,-557.0,-561.0,3785.0,3789.0,1389.0,1388.0
-539,3785,1390,1,-547.0,-557.0,3786.0,3785.0,1389.0,1389.0
-528,3783,1394,1,-539.0,-547.0,3785.0,3786.0,1390.0,1389.0
-525,3780,1400,1,-528.0,-539.0,3783.0,3785.0,1394.0,1390.0
-516,3779,1404,1,-525.0,-528.0,3780.0,3783.0,1400.0,1394.0
-510,3776,1412,1,-516.0,-525.0,3779.0,3780.0,1404.0,1400.0
-509,3780,1418,1,-510.0,-516.0,3776.0,3779.0,1412.0,1404.0
-509,3780,1428,1,-509.0,-510.0,3780.0,3776.0,1418.0,1412.0
-507,3776,1430,1,-509.0,-509.0,3780.0,3780.0,1428.0,1418.0
-515,3772,1432,1,-507.0,-509.0,3776.0,3780.0,1430.0,1428.0
-518,3765,1430,1,-515.0,-507.0,3772.0,3776.0,1432.0,1430.0
-529,3766,1429,1,-518.0,-515.0,3765.0,3772.0,1430.0,1432.0
-539,3765,1425,1,-529.0,-518.0,3766.0,3765.0,1429.0,1430.0
-551,3760,1422,1,-539.0,-529.0,3765.0,3766.0,1425.0,1429.0
-557,3759,1418,1,-551.0,-539.0,3760.0,3765.0,1422.0,1425.0
-556,3759,1415,1,-557.0,-551.0,3759.0,3760.0,1418.0,1422.0
-553,3764,1414,1,-556.0,-557.0,3759.0,3759.0,1415.0,1418.0
-546,3772,1411,1,-553.0,-556.0,3764.0,3759.0,1414.0,1415.0
-542,3779,1408,1,-546.0,-553.0,3772.0,3764.0,1411.0,1414.0
-532,3789,1395,1,-542.0,-546.0,3779.0,3772.0,1408.0,1411.0
-519,3798,1386,1,-532.0,-542.0,3789.0,3779.0,1395.0,1408.0
-508,3807,1385,1,-519.0,-532.0,3798.0,3789.0,1386.0,1395.0
-500,3820,1391,1,-508.0,-519.0,3807.0,3798.0,1385.0,1386.0
-491,3832,1405,1,-500.0,-508.0,3820.0,3807.0,1391.0,1385.0
-486,3832,1429,1,-491.0,-500.0,3832.0,3820.0,1405.0,1391.0
-486,3825,1443,1,-486.0,-491.0,3832.0,3832.0,1429.0,1405.0
-488,3815,1449,1,-486.0,-486.0,3825.0,3832.0,1443.0,1429.0
-490,3802,1453,1,-488.0,-486.0,3815.0,3825.0,1449.0,1443.0
-501,3797,1447,1,-490.0,-488.0,3802.0,3815.0,1453.0,1449.0
-514,3786,1441,1,-501.0,-490.0,3797.0,3802.0,1447.0,1453.0
-532,3775,1436,1,-514.0,-501.0,3786.0,3797.0,1441.0,1447.0
-544,3763,1440,1,-532.0,-514.0,3775.0,3786.0,1436.0,1441.0
-552,3753,1447,1,-544.0,-532.0,3763.0,3775.0,1440.0,1436.0
-563,3743,1449,1,-552.0,-544.0,3753.0,3763.0,1447.0,1440.0
-574,3741,1444,1,-563.0,-552.0,3743.0,3753.0,1449.0,1447.0
-583,3741,1436,1,-574.0,-563.0,3741.0,3743.0,1444.0,1449.0
-588,3741,1425,1,-583.0,-574.0,3741.0,3741.0,1436.0,1444.0
-591,3745,1425,1,-588.0,-583.0,3741.0,3741.0,1425.0,1436.0
-587,3749,1421,1,-591.0,-588.0,3745.0,3741.0,1425.0,1425.0
-586,3747,1423,1,-587.0,-591.0,3749.0,3745.0,1421.0,1425.0
-585,3752,1431,1,-586.0,-587.0,3747.0,3749.0,1423.0,1421.0
-578,3755,1431,1,-585.0,-586.0,3752.0,3747.0,1431.0,1423.0
-570,3764,1425,1,-578.0,-585.0,3755.0,3752.0,1431.0,1431.0
-566,3768,1413,1,-570.0,-578.0,3764.0,3755.0,1425.0,1431.0
-566,3772,1400,1,-566.0,-570.0,3768.0,3764.0,1413.0,1425.0
-568,3775,1391,1,-566.0,-566.0,3772.0,3768.0,1400.0,1413.0
-570,3779,1384,1,-568.0,-566.0,3775.0,3772.0,1391.0,1400.0
-572,3778,1377,1,-570.0,-568.0,3779.0,3775.0,1384.0,1391.0
-572,3781,1375,1,-572.0,-570.0,3778.0,3779.0,1377.0,1384.0
-570,3787,1378,1,-572.0,-572.0,3781.0,3778.0,1375.0,1377.0
-573,3796,1385,1,-570.0,-572.0,3787.0,3781.0,1378.0,1375.0
-563,3802,1391,1,-573.0,-570.0,3796.0,3787.0,1385.0,1378.0
-553,3809,1401,1,-563.0,-573.0,3802.0,3796.0,1391.0,1385.0
-547,3817,1405,1,-553.0,-563.0,3809.0,3802.0,1401.0,1391.0
-546,3826,1407,1,-547.0,-553.0,3817.0,3809.0,1405.0,1401.0
-540,3827,1411,1,-546.0,-547.0,3826.0,3817.0,1407.0,1405.0
-541,3827,1411,1,-540.0,-546.0,3827.0,3826.0,1411.0,1407.0
-540,3835,1404,1,-541.0,-540.0,3827.0,3827.0,1411.0,1411.0
-542,3834,1399,1,-540.0,-541.0,3835.0,3827.0,1404.0,1411.0
-541,3828,1394,1,-542.0,-540.0,3834.0,3835.0,1399.0,1404.0
-538,3827,1387,1,-541.0,-542.0,3828.0,3834.0,1394.0,1399.0
-541,3823,1384,1,-538.0,-541.0,3827.0,3828.0,1387.0,1394.0
-546,3819,1379,1,-541.0,-538.0,3823.0,3827.0,1384.0,1387.0
-538,3818,1376,1,-546.0,-541.0,3819.0,3823.0,1379.0,1384.0
-535,3816,1381,1,-538.0,-546.0,3818.0,3819.0,1376.0,1379.0
-535,3819,1382,1,-535.0,-538.0,3816.0,3818.0,1381.0,1376.0
-529,3822,1384,1,-535.0,-535.0,3819.0,3816.0,1382.0,1381.0
-531,3829,1382,1,-529.0,-535.0,3822.0,3819.0,1384.0,1382.0
-529,3834,1387,1,-531.0,-529.0,3829.0,3822.0,1382.0,1384.0
-528,3834,1393,1,-529.0,-531.0,3834.0,3829.0,1387.0,1382.0
-525,3835,1397,1,-528.0,-529.0,3834.0,3834.0,1393.0,1387.0
-524,3832,1395,1,-525.0,-528.0,3835.0,3834.0,1397.0,1393.0
-528,3831,1392,1,-524.0,-525.0,3832.0,3835.0,1395.0,1397.0
-530,3826,1390,1,-528.0,-524.0,3831.0,3832.0,1392.0,1395.0
-531,3828,1388,1,-530.0,-528.0,3826.0,3831.0,1390.0,1392.0
-535,3820,1391,1,-531.0,-530.0,3828.0,3826.0,1388.0,1390.0
-537,3814,1394,1,-535.0,-531.0,3820.0,3828.0,1391.0,1388.0
-537,3806,1402,1,-537.0,-535.0,3814.0,3820.0,1394.0,1391.0
-534,3803,1407,1,-537.0,-537.0,3806.0,3814.0,1402.0,1394.0
-533,3801,1406,1,-534.0,-537.0,3803.0,3806.0,1407.0,1402.0
-537,3795,1408,1,-533.0,-534.0,3801.0,3803.0,1406.0,1407.0
-538,3796,1412,1,-537.0,-533.0,3795.0,3801.0,1408.0,1406.0
-538,3796,1412,1,-538.0,-537.0,3796.0,3795.0,1412.0,1408.0
-535,3798,1414,1,-538.0,-538.0,3796.0,3796.0,1412.0,1412.0
-541,3796,1414,1,-535.0,-538.0,3798.0,3796.0,1414.0,1412.0
-547,3790,1417,1,-541.0,-535.0,3796.0,3798.0,1414.0,1414.0
-547,3785,1421,1,-547.0,-541.0,3790.0,3796.0,1417.0,1414.0
-547,3779,1419,1,-547.0,-547.0,3785.0,3790.0,1421.0,1417.0
-547,3782,1418,1,-547.0,-547.0,3779.0,3785.0,1419.0,1421.0
-548,3784,1416,1,-547.0,-547.0,3782.0,3779.0,1418.0,1419.0
-550,3787,1420,1,-548.0,-547.0,3784.0,3782.0,1416.0,1418.0
-550,3787,1422,1,-550.0,-548.0,3787.0,3784.0,1420.0,1416.0
-550,3792,1424,1,-550.0,-550.0,3787.0,3787.0,1422.0,1420.0
-548,3791,1423,1,-550.0,-550.0,3792.0,3787.0,1424.0,1422.0
-547,3786,1421,1,-548.0,-550.0,3791.0,3792.0,1423.0,1424.0
-545,3780,1415,1,-547.0,-548.0,3786.0,3791.0,1421.0,1423.0
-547,3773,1406,1,-545.0,-547.0,3780.0,3786.0,1415.0,1421.0
-551,3769,1404,1,-547.0,-545.0,3773.0,3780.0,1406.0,1415.0
-550,3769,1410,1,-551.0,-547.0,3769.0,3773.0,1404.0,1406.0
-545,3768,1411,1,-550.0,-551.0,3769.0,3769.0,1410.0,1404.0
-544,3772,1415,1,-545.0,-550.0,3768.0,3769.0,1411.0,1410.0
-550,3779,1416,1,-544.0,-545.0,3772.0,3768.0,1415.0,1411.0
-555,3779,1412,1,-550.0,-544.0,3779.0,3772.0,1416.0,1415.0
-555,3781,1412,1,-555.0,-550.0,3779.0,3779.0,1412.0,1416.0
-557,3780,1415,1,-555.0,-555.0,3781.0,3779.0,1412.0,1412.0
-558,3779,1416,1,-557.0,-555.0,3780.0,3781.0,1415.0,1412.0
-557,3777,1416,1,-558.0,-557.0,3779.0,3780.0,1416.0,1415.0
-556,3776,1414,1,-557.0,-558.0,3777.0,3779.0,1416.0,1416.0
-553,3772,1417,1,-556.0,-557.0,3776.0,3777.0,1414.0,1416.0
-552,3773,1418,1,-553.0,-556.0,3772.0,3776.0,1417.0,1414.0
-549,3772,1418,1,-552.0,-553.0,3773.0,3772.0,1418.0,1417.0
-551,3771,1416,1,-549.0,-552.0,3772.0,3773.0,1418.0,1418.0
-549,3767,1414,1,-551.0,-549.0,3771.0,3772.0,1416.0,1418.0
-542,3768,1418,1,-549.0,-551.0,3767.0,3771.0,1414.0,1416.0
-538,3774,1418,1,-542.0,-549.0,3768.0,3767.0,1418.0,1414.0
-533,3777,1417,1,-538.0,-542.0,3774.0,3768.0,1418.0,1418.0
-531,3784,1418,1,-533.0,-538.0,3777.0,3774.0,1417.0,1418.0
-534,3786,1417,1,-531.0,-533.0,3784.0,3777.0,1418.0,1417.0
-534,3788,1420,1,-534.0,-531.0,3786.0,3784.0,1417.0,1418.0
-534,3787,1418,1,-534.0,-534.0,3788.0,3786.0,1420.0,1417.0
-534,3787,1420,1,-534.0,-534.0,3787.0,3788.0,1418.0,1420.0
-534,3791,1424,1,-534.0,-534.0,3787.0,3787.0,1420.0,1418.0
-532,3792,1426,1,-534.0,-534.0,3791.0,3787.0,1424.0,1420.0
-531,3798,1425,1,-532.0,-534.0,3792.0,3791.0,1426.0,1424.0
-534,3795,1418,1,-531.0,-532.0,3798.0,3792.0,1425.0,1426.0
-536,3792,1411,1,-534.0,-531.0,3795.0,3798.0,1418.0,1425.0
-535,3786,1411,1,-536.0,-534.0,3792.0,3795.0,1411.0,1418.0
-537,3782,1414,1,-535.0,-536.0,3786.0,3792.0,1411.0,1411.0
-536,3778,1417,1,-537.0,-535.0,3782.0,3786.0,1414.0,1411.0
-535,3772,1425,1,-536.0,-537.0,3778.0,3782.0,1417.0,1414.0
-536,3769,1436,1,-535.0,-536.0,3772.0,3778.0,1425.0,1417.0
-537,3765,1445,1,-536.0,-535.0,3769.0,3772.0,1436.0,1425.0
-540,3770,1446,1,-537.0,-536.0,3765.0,3769.0,1445.0,1436.0
-546,3773,1437,1,-540.0,-537.0,3770.0,3765.0,1446.0,1445.0
-555,3776,1424,1,-546.0,-540.0,3773.0,3770.0,1437.0,1446.0
-562,3773,1404,1,-555.0,-546.0,3776.0,3773.0,1424.0,1437.0
-565,3772,1392,1,-562.0,-555.0,3773.0,3776.0,1404.0,1424.0
-568,3769,1387,1,-565.0,-562.0,3772.0,3773.0,1392.0,1404.0
-559,3770,1388,1,-568.0,-565.0,3769.0,3772.0,1387.0,1392.0
-556,3777,1388,1,-559.0,-568.0,3770.0,3769.0,1388.0,1387.0
-550,3788,1392,1,-556.0,-559.0,3777.0,3770.0,1388.0,1388.0
-541,3797,1392,1,-550.0,-556.0,3788.0,3777.0,1392.0,1388.0
-528,3804,1388,1,-541.0,-550.0,3797.0,3788.0,1392.0,1392.0
-523,3816,1380,1,-528.0,-541.0,3804.0,3797.0,1388.0,1392.0
-515,3829,1383,1,-523.0,-528.0,3816.0,3804.0,1380.0,1388.0
-512,3836,1389,1,-515.0,-523.0,3829.0,3816.0,1383.0,1380.0
-510,3838,1407,1,-512.0,-515.0,3836.0,3829.0,1389.0,1383.0
-506,3835,1421,1,-510.0,-512.0,3838.0,3836.0,1407.0,1389.0
-505,3829,1436,1,-506.0,-510.0,3835.0,3838.0,1421.0,1407.0
-502,3821,1444,1,-505.0,-506.0,3829.0,3835.0,1436.0,1421.0
-506,3812,1447,1,-502.0,-505.0,3821.0,3829.0,1444.0,1436.0
-509,3804,1447,1,-506.0,-502.0,3812.0,3821.0,1447.0,1444.0
-518,3789,1440,1,-509.0,-506.0,3804.0,3812.0,1447.0,1447.0
-528,3777,1432,1,-518.0,-509.0,3789.0,3804.0,1440.0,1447.0
-542,3768,1425,1,-528.0,-518.0,3777.0,3789.0,1432.0,1440.0
-555,3760,1426,1,-542.0,-528.0,3768.0,3777.0,1425.0,1432.0
-567,3764,1429,1,-555.0,-542.0,3760.0,3768.0,1426.0,1425.0
-573,3767,1431,1,-567.0,-555.0,3764.0,3760.0,1429.0,1426.0
-581,3773,1431,1,-573.0,-567.0,3767.0,3764.0,1431.0,1429.0
-590,3775,1431,1,-581.0,-573.0,3773.0,3767.0,1431.0,1431.0
-592,3776,1423,1,-590.0,-581.0,3775.0,3773.0,1431.0,1431.0
-594,3775,1422,1,-592.0,-590.0,3776.0,3775.0,1423.0,1431.0
-591,3773,1413,1,-594.0,-592.0,3775.0,3776.0,1422.0,1423.0
-587,3773,1412,1,-591.0,-594.0,3773.0,3775.0,1413.0,1422.0
-584,3775,1404,1,-587.0,-591.0,3773.0,3773.0,1412.0,1413.0
-584,3780,1398,1,-584.0,-587.0,3775.0,3773.0,1404.0,1412.0
-580,3779,1399,1,-584.0,-584.0,3780.0,3775.0,1398.0,1404.0
-575,3778,1397,1,-580.0,-584.0,3779.0,3780.0,1399.0,1398.0
-574,3778,1396,1,-575.0,-580.0,3778.0,3779.0,1397.0,1399.0
-569,3777,1395,1,-574.0,-575.0,3778.0,3778.0,1396.0,1397.0
-571,3782,1394,1,-569.0,-574.0,3777.0,3778.0,1395.0,1396.0
-563,3792,1394,1,-571.0,-569.0,3782.0,3777.0,1394.0,1395.0
-565,3796,1395,1,-563.0,-571.0,3792.0,3782.0,1394.0,1394.0
-562,3801,1394,1,-565.0,-563.0,3796.0,3792.0,1395.0,1394.0
-563,3804,1394,1,-562.0,-565.0,3801.0,3796.0,1394.0,1395.0
-562,3808,1404,1,-563.0,-562.0,3804.0,3801.0,1394.0,1394.0
-557,3810,1405,1,-562.0,-563.0,3808.0,3804.0,1404.0,1394.0
-551,3813,1407,1,-557.0,-562.0,3810.0,3808.0,1405.0,1404.0
-550,3817,1415,1,-551.0,-557.0,3813.0,3810.0,1407.0,1405.0
-549,3813,1410,1,-550.0,-551.0,3817.0,3813.0,1415.0,1407.0
-546,3814,1403,1,-549.0,-550.0,3813.0,3817.0,1410.0,1415.0
-544,3812,1400,1,-546.0,-549.0,3814.0,3813.0,1403.0,1410.0
-542,3808,1394,1,-544.0,-546.0,3812.0,3814.0,1400.0,1403.0
-537,3801,1394,1,-542.0,-544.0,3808.0,3812.0,1394.0,1400.0
-533,3800,1394,1,-537.0,-542.0,3801.0,3808.0,1394.0,1394.0
-529,3804,1395,1,-533.0,-537.0,3800.0,3801.0,1394.0,1394.0
-529,3807,1390,1,-529.0,-533.0,3804.0,3800.0,1395.0,1394.0
-525,3807,1390,1,-529.0,-529.0,3807.0,3804.0,1390.0,1395.0
-527,3808,1394,1,-525.0,-529.0,3807.0,3807.0,1390.0,1390.0
-522,3812,1396,1,-527.0,-525.0,3808.0,3807.0,1394.0,1390.0
-518,3813,1396,1,-522.0,-527.0,3812.0,3808.0,1396.0,1394.0
-517,3812,1398,1,-518.0,-522.0,3813.0,3812.0,1396.0,1396.0
-520,3815,1400,1,-517.0,-518.0,3812.0,3813.0,1398.0,1396.0
-523,3820,1404,1,-520.0,-517.0,3815.0,3812.0,1400.0,1398.0
-526,3820,1409,1,-523.0,-520.0,3820.0,3815.0,1404.0,1400.0
-527,3818,1411,1,-526.0,-523.0,3820.0,3820.0,1409.0,1404.0
-525,3812,1415,1,-527.0,-526.0,3818.0,3820.0,1411.0,1409.0
-522,3804,1424,1,-525.0,-527.0,3812.0,3818.0,1415.0,1411.0
-524,3802,1419,1,-522.0,-525.0,3804.0,3812.0,1424.0,1415.0
-523,3800,1412,1,-524.0,-522.0,3802.0,3804.0,1419.0,1424.0
-528,3795,1400,1,-523.0,-524.0,3800.0,3802.0,1412.0,1419.0
-531,3787,1394,1,-528.0,-523.0,3795.0,3800.0,1400.0,1412.0
-533,3782,1398,1,-531.0,-528.0,3787.0,3795.0,1394.0,1400.0
-539,3782,1404,1,-533.0,-531.0,3782.0,3787.0,1398.0,1394.0
-547,3781,1412,1,-539.0,-533.0,3782.0,3782.0,1404.0,1398.0
-550,3781,1420,1,-547.0,-539.0,3781.0,3782.0,1412.0,1404.0
-553,3779,1431,1,-550.0,-547.0,3781.0,3781.0,1420.0,1412.0
-555,3777,1434,1,-553.0,-550.0,3779.0,3781.0,1431.0,1420.0
-558,3774,1435,1,-555.0,-553.0,3777.0,3779.0,1434.0,1431.0
-559,3774,1430,1,-558.0,-555.0,3774.0,3777.0,1435.0,1434.0
-564,3770,1422,1,-559.0,-558.0,3774.0,3774.0,1430.0,1435.0
-564,3765,1419,1,-564.0,-559.0,3770.0,3774.0,1422.0,1430.0
-562,3764,1418,1,-564.0,-564.0,3765.0,3770.0,1419.0,1422.0
-559,3762,1417,1,-562.0,-564.0,3764.0,3765.0,1418.0,1419.0
-553,3765,1418,1,-559.0,-562.0,3762.0,3764.0,1417.0,1418.0
-550,3776,1422,1,-553.0,-559.0,3765.0,3762.0,1418.0,1417.0
-551,3779,1424,1,-550.0,-553.0,3776.0,3765.0,1422.0,1418.0
-551,3778,1424,1,-551.0,-550.0,3779.0,3776.0,1424.0,1422.0
-554,3779,1423,1,-551.0,-551.0,3778.0,3779.0,1424.0,1424.0
-556,3778,1421,1,-554.0,-551.0,3779.0,3778.0,1423.0,1424.0
-560,3779,1417,1,-556.0,-554.0,3778.0,3779.0,1421.0,1423.0
-561,3778,1418,1,-560.0,-556.0,3779.0,3778.0,1417.0,1421.0
-562,3778,1420,1,-561.0,-560.0,3778.0,3779.0,1418.0,1417.0
-563,3778,1422,1,-562.0,-561.0,3778.0,3778.0,1420.0,1418.0
-569,3777,1421,1,-563.0,-562.0,3778.0,3778.0,1422.0,1420.0
-570,3778,1419,1,-569.0,-563.0,3777.0,3778.0,1421.0,1422.0
-569,3777,1417,1,-570.0,-569.0,3778.0,3777.0,1419.0,1421.0
-570,3778,1414,1,-569.0,-570.0,3777.0,3778.0,1417.0,1419.0
-568,3779,1410,1,-570.0,-569.0,3778.0,3777.0,1414.0,1417.0
-568,3778,1410,1,-568.0,-570.0,3779.0,3778.0,1410.0,1414.0
-564,3778,1405,1,-568.0,-568.0,3778.0,3779.0,1410.0,1410.0
-559,3778,1412,1,-564.0,-568.0,3778.0,3778.0,1405.0,1410.0
-555,3778,1414,1,-559.0,-564.0,3778.0,3778.0,1412.0,1405.0
-550,3786,1422,1,-555.0,-559.0,3778.0,3778.0,1414.0,1412.0
-546,3787,1423,1,-550.0,-555.0,3786.0,3778.0,1422.0,1414.0
-542,3791,1421,1,-546.0,-550.0,3787.0,3786.0,1423.0,1422.0
-542,3798,1420,1,-542.0,-546.0,3791.0,3787.0,1421.0,1423.0
-541,3797,1418,1,-542.0,-542.0,3798.0,3791.0,1420.0,1421.0
-543,3795,1418,1,-541.0,-542.0,3797.0,3798.0,1418.0,1420.0
-542,3792,1416,1,-543.0,-541.0,3795.0,3797.0,1418.0,1418.0
-545,3791,1412,1,-542.0,-543.0,3792.0,3795.0,1416.0,1418.0
-539,3793,1416,1,-545.0,-542.0,3791.0,3792.0,1412.0,1416.0
-537,3792,1417,1,-539.0,-545.0,3793.0,3791.0,1416.0,1412.0
-538,3799,1423,1,-537.0,-539.0,3792.0,3793.0,1417.0,1416.0
-541,3798,1416,1,-538.0,-537.0,3799.0,3792.0,1423.0,1417.0
-538,3798,1409,1,-541.0,-538.0,3798.0,3799.0,1416.0,1423.0
-540,3799,1402,1,-538.0,-541.0,3798.0,3798.0,1409.0,1416.0
-542,3792,1400,1,-540.0,-538.0,3799.0,3798.0,1402.0,1409.0
-545,3790,1403,1,-542.0,-540.0,3792.0,3799.0,1400.0,1402.0
-546,3788,1402,1,-545.0,-542.0,3790.0,3792.0,1403.0,1400.0
-546,3791,1409,1,-546.0,-545.0,3788.0,3790.0,1402.0,1403.0
-545,3793,1413,1,-546.0,-546.0,3791.0,3788.0,1409.0,1402.0
-544,3789,1418,1,-545.0,-546.0,3793.0,3791.0,1413.0,1409.0
-540,3787,1423,1,-544.0,-545.0,3789.0,3793.0,1418.0,1413.0
-539,3788,1426,1,-540.0,-544.0,3787.0,3789.0,1423.0,1418.0
-542,3786,1430,1,-539.0,-540.0,3788.0,3787.0,1426.0,1423.0
-543,3783,1431,1,-542.0,-539.0,3786.0,3788.0,1430.0,1426.0
-547,3779,1433,1,-543.0,-542.0,3783.0,3786.0,1431.0,1430.0
-555,3779,1426,1,-547.0,-543.0,3779.0,3783.0,1433.0,1431.0
-563,3778,1419,1,-555.0,-547.0,3779.0,3779.0,1426.0,1433.0
-571,3777,1409,1,-563.0,-555.0,3778.0,3779.0,1419.0,1426.0
-571,3776,1402,1,-571.0,-563.0,3777.0,3778.0,1409.0,1419.0
-567,3777,1398,1,-571.0,-571.0,3776.0,3777.0,1402.0,1409.0
-565,3784,1394,1,-567.0,-571.0,3777.0,3776.0,1398.0,1402.0
-554,3791,1391,1,-565.0,-567.0,3784.0,3777.0,1394.0,1398.0
-541,3801,1393,1,-554.0,-565.0,3791.0,3784.0,1391.0,1394.0
-529,3808,1395,1,-541.0,-554.0,3801.0,3791.0,1393.0,1391.0
-520,3822,1399,1,-529.0,-541.0,3808.0,3801.0,1395.0,1393.0
-508,3834,1408,1,-520.0,-529.0,3822.0,3808.0,1399.0,1395.0
-503,3837,1422,1,-508.0,-520.0,3834.0,3822.0,1408.0,1399.0
-493,3842,1434,1,-503.0,-508.0,3837.0,3834.0,1422.0,1408.0
-493,3837,1441,1,-493.0,-503.0,3842.0,3837.0,1434.0,1422.0
-498,3827,1438,1,-493.0,-493.0,3837.0,3842.0,1441.0,1434.0
-504,3818,1430,1,-498.0,-493.0,3827.0,3837.0,1438.0,1441.0
-512,3801,1426,1,-504.0,-498.0,3818.0,3827.0,1430.0,1438.0
-518,3786,1420,1,-512.0,-504.0,3801.0,3818.0,1426.0,1430.0
-528,3770,1417,1,-518.0,-512.0,3786.0,3801.0,1420.0,1426.0
-540,3757,1418,1,-528.0,-518.0,3770.0,3786.0,1417.0,1420.0
-550,3752,1420,1,-540.0,-528.0,3757.0,3770.0,1418.0,1417.0
-559,3757,1420,1,-550.0,-540.0,3752.0,3757.0,1420.0,1418.0
-574,3767,1421,1,-559.0,-550.0,3757.0,3752.0,1420.0,1420.0
-583,3770,1420,1,-574.0,-559.0,3767.0,3757.0,1421.0,1420.0
-590,3774,1418,1,-583.0,-574.0,3770.0,3767.0,1420.0,1421.0
-595,3776,1413,1,-590.0,-583.0,3774.0,3770.0,1418.0,1420.0
-595,3779,1416,1,-595.0,-590.0,3776.0,3774.0,1413.0,1418.0
-597,3777,1415,1,-595.0,-595.0,3779.0,3776.0,1416.0,1413.0
-594,3771,1419,1,-597.0,-595.0,3777.0,3779.0,1415.0,1416.0
-588,3770,1417,1,-594.0,-597.0,3771.0,3777.0,1419.0,1415.0
-583,3767,1414,1,-588.0,-594.0,3770.0,3771.0,1417.0,1419.0
-573,3766,1408,1,-583.0,-588.0,3767.0,3770.0,1414.0,1417.0
-570,3760,1400,1,-573.0,-583.0,3766.0,3767.0,1408.0,1414.0
-560,3758,1401,1,-570.0,-573.0,3760.0,3766.0,1400.0,1408.0
-559,3763,1400,1,-560.0,-570.0,3758.0,3760.0,1401.0,1400.0
-563,3770,1400,1,-559.0,-560.0,3763.0,3758.0,1400.0,1401.0
-569,3774,1398,1,-563.0,-559.0,3770.0,3763.0,1400.0,1400.0
-574,3783,1392,1,-569.0,-563.0,3774.0,3770.0,1398.0,1400.0
-574,3787,1383,1,-574.0,-569.0,3783.0,3774.0,1392.0,1398.0
-577,3795,1377,1,-574.0,-574.0,3787.0,3783.0,1383.0,1392.0
-578,3801,1380,1,-577.0,-574.0,3795.0,3787.0,1377.0,1383.0
-576,3806,1391,1,-578.0,-577.0,3801.0,3795.0,1380.0,1377.0
-568,3809,1404,1,-576.0,-578.0,3806.0,3801.0,1391.0,1380.0
-565,3809,1422,1,-568.0,-576.0,3809.0,3806.0,1404.0,1391.0
-558,3806,1436,1,-565.0,-568.0,3809.0,3809.0,1422.0,1404.0
-551,3796,1434,1,-558.0,-565.0,3806.0,3809.0,1436.0,1422.0
-550,3786,1421,1,-551.0,-558.0,3796.0,3806.0,1434.0,1436.0
-552,3778,1393,1,-550.0,-551.0,3786.0,3796.0,1421.0,1434.0
-549,3774,1363,1,-552.0,-550.0,3778.0,3786.0,1393.0,1421.0
-545,3783,1355,1,-549.0,-552.0,3774.0,3778.0,1363.0,1393.0
-534,3794,1358,1,-545.0,-549.0,3783.0,3774.0,1355.0,1363.0
-523,3801,1370,1,-534.0,-545.0,3794.0,3783.0,1358.0,1355.0
-516,3803,1382,1,-523.0,-534.0,3801.0,3794.0,1370.0,1358.0
-508,3803,1394,1,-516.0,-523.0,3803.0,3801.0,1382.0,1370.0
-496,3804,1395,1,-508.0,-516.0,3803.0,3803.0,1394.0,1382.0
-494,3810,1391,1,-496.0,-508.0,3804.0,3803.0,1395.0,1394.0
-494,3818,1380,1,-494.0,-496.0,3810.0,3804.0,1391.0,1395.0
-496,3823,1378,1,-494.0,-494.0,3818.0,3810.0,1380.0,1391.0
-500,3822,1381,1,-496.0,-494.0,3823.0,3818.0,1378.0,1380.0
-502,3815,1384,1,-500.0,-496.0,3822.0,3823.0,1381.0,1378.0
-503,3811,1392,1,-502.0,-500.0,3815.0,3822.0,1384.0,1381.0
-506,3807,1391,1,-503.0,-502.0,3811.0,3815.0,1392.0,1384.0
-509,3807,1388,1,-506.0,-503.0,3807.0,3811.0,1391.0,1392.0
-517,3804,1382,1,-509.0,-506.0,3807.0,3807.0,1388.0,1391.0
-523,3798,1382,1,-517.0,-509.0,3804.0,3807.0,1382.0,1388.0
-528,3789,1385,1,-523.0,-517.0,3798.0,3804.0,1382.0,1382.0
-532,3784,1385,1,-528.0,-523.0,3789.0,3798.0,1385.0,1382.0
-535,3786,1390,1,-532.0,-528.0,3784.0,3789.0,1385.0,1385.0
-540,3797,1389,1,-535.0,-532.0,3786.0,3784.0,1390.0,1385.0
-549,3804,1395,1,-540.0,-535.0,3797.0,3786.0,1389.0,1390.0
-552,3808,1395,1,-549.0,-540.0,3804.0,3797.0,1395.0,1389.0
-561,3806,1404,1,-552.0,-549.0,3808.0,3804.0,1395.0,1395.0
-562,3802,1406,1,-561.0,-552.0,3806.0,3808.0,1404.0,1395.0
-564,3804,1400,1,-562.0,-561.0,3802.0,3806.0,1406.0,1404.0
-568,3807,1389,1,-564.0,-562.0,3804.0,3802.0,1400.0,1406.0
-571,3803,1379,1,-568.0,-564.0,3807.0,3804.0,1389.0,1400.0
-571,3800,1370,1,-571.0,-568.0,3803.0,3807.0,1379.0,1389.0
-572,3798,1365,1,-571.0,-571.0,3800.0,3803.0,1370.0,1379.0
-569,3792,1367,1,-572.0,-571.0,3798.0,3800.0,1365.0,1370.0
-571,3785,1369,1,-569.0,-572.0,3792.0,3798.0,1367.0,1365.0
-569,3785,1367,1,-571.0,-569.0,3785.0,3792.0,1369.0,1367.0
-570,3789,1363,1,-569.0,-571.0,3785.0,3785.0,1367.0,1369.0
-570,3792,1358,1,-570.0,-569.0,3789.0,3785.0,1363.0,1367.0
-574,3795,1352,1,-570.0,-570.0,3792.0,3789.0,1358.0,1363.0
-578,3804,1350,1,-574.0,-570.0,3795.0,3792.0,1352.0,1358.0
-586,3810,1356,1,-578.0,-574.0,3804.0,3795.0,1350.0,1352.0
-588,3816,1361,1,-586.0,-578.0,3810.0,3804.0,1356.0,1350.0
-586,3818,1367,1,-588.0,-586.0,3816.0,3810.0,1361.0,1356.0
-579,3815,1371,1,-586.0,-588.0,3818.0,3816.0,1367.0,1361.0
-577,3816,1375,1,-579.0,-586.0,3815.0,3818.0,1371.0,1367.0
-576,3821,1373,1,-577.0,-579.0,3816.0,3815.0,1375.0,1371.0
-572,3819,1369,1,-576.0,-577.0,3821.0,3816.0,1373.0,1375.0
-569,3822,1364,1,-572.0,-576.0,3819.0,3821.0,1369.0,1373.0
-566,3819,1361,1,-569.0,-572.0,3822.0,3819.0,1364.0,1369.0
-563,3818,1362,1,-566.0,-569.0,3819.0,3822.0,1361.0,1364.0
-559,3818,1358,1,-563.0,-566.0,3818.0,3819.0,1362.0,1361.0
-557,3816,1357,1,-559.0,-563.0,3818.0,3818.0,1358.0,1362.0
-554,3816,1356,1,-557.0,-559.0,3816.0,3818.0,1357.0,1358.0
-551,3812,1359,1,-554.0,-557.0,3816.0,3816.0,1356.0,1357.0
-551,3806,1363,1,-551.0,-554.0,3812.0,3816.0,1359.0,1356.0
-548,3806,1366,1,-551.0,-551.0,3806.0,3812.0,1363.0,1359.0
-548,3803,1368,1,-548.0,-551.0,3806.0,3806.0,1366.0,1363.0
-554,3806,1371,1,-548.0,-548.0,3803.0,3806.0,1368.0,1366.0
-556,3808,1372,1,-554.0,-548.0,3806.0,3803.0,1371.0,1368.0
-565,3809,1370,1,-556.0,-554.0,3808.0,3806.0,1372.0,1371.0
-572,3811,1367,1,-565.0,-556.0,3809.0,3808.0,1370.0,1372.0
-574,3814,1365,1,-572.0,-565.0,3811.0,3809.0,1367.0,1370.0
-575,3814,1371,1,-574.0,-572.0,3814.0,3811.0,1365.0,1367.0
-574,3811,1374,1,-575.0,-574.0,3814.0,3814.0,1371.0,1365.0
-577,3808,1376,1,-574.0,-575.0,3811.0,3814.0,1374.0,1371.0
-575,3797,1381,1,-577.0,-574.0,3808.0,3811.0,1376.0,1374.0
-571,3787,1383,1,-575.0,-577.0,3797.0,3808.0,1381.0,1376.0
-565,3785,1382,1,-571.0,-575.0,3787.0,3797.0,1383.0,1381.0
-558,3785,1381,1,-565.0,-571.0,3785.0,3787.0,1382.0,1383.0
-554,3782,1380,1,-558.0,-565.0,3785.0,3785.0,1381.0,1382.0
-551,3782,1379,1,-554.0,-558.0,3782.0,3785.0,1380.0,1381.0
-548,3780,1380,1,-551.0,-554.0,3782.0,3782.0,1379.0,1380.0
-545,3779,1385,1,-548.0,-551.0,3780.0,3782.0,1380.0,1379.0
-547,3777,1397,1,-545.0,-548.0,3779.0,3780.0,1385.0,1380.0
-547,3774,1400,1,-547.0,-545.0,3777.0,3779.0,1397.0,1385.0
-547,3770,1396,1,-547.0,-547.0,3774.0,3777.0,1400.0,1397.0
-550,3768,1390,1,-547.0,-547.0,3770.0,3774.0,1396.0,1400.0
-554,3766,1386,1,-550.0,-547.0,3768.0,3770.0,1390.0,1396.0
-552,3763,1383,1,-554.0,-550.0,3766.0,3768.0,1386.0,1390.0
-551,3766,1384,1,-552.0,-554.0,3763.0,3766.0,1383.0,1386.0
-547,3771,1384,1,-551.0,-552.0,3766.0,3763.0,1384.0,1383.0
-547,3778,1384,1,-547.0,-551.0,3771.0,3766.0,1384.0,1384.0
-540,3779,1379,1,-547.0,-547.0,3778.0,3771.0,1384.0,1384.0
-532,3784,1372,1,-540.0,-547.0,3779.0,3778.0,1379.0,1384.0
-525,3788,1374,1,-532.0,-540.0,3784.0,3779.0,1372.0,1379.0
-518,3797,1365,1,-525.0,-532.0,3788.0,3784.0,1374.0,1372.0
-517,3804,1359,1,-518.0,-525.0,3797.0,3788.0,1365.0,1374.0
-512,3815,1353,1,-517.0,-518.0,3804.0,3797.0,1359.0,1365.0
-509,3830,1350,1,-512.0,-517.0,3815.0,3804.0,1353.0,1359.0
-503,3841,1362,1,-509.0,-512.0,3830.0,3815.0,1350.0,1353.0
-496,3850,1378,1,-503.0,-509.0,3841.0,3830.0,1362.0,1350.0
-491,3848,1401,1,-496.0,-503.0,3850.0,3841.0,1378.0,1362.0
-482,3841,1416,1,-491.0,-496.0,3848.0,3850.0,1401.0,1378.0
-479,3837,1418,1,-482.0,-491.0,3841.0,3848.0,1416.0,1401.0
-480,3828,1411,1,-479.0,-482.0,3837.0,3841.0,1418.0,1416.0
-487,3822,1406,1,-480.0,-479.0,3828.0,3837.0,1411.0,1418.0
-501,3815,1396,1,-487.0,-480.0,3822.0,3828.0,1406.0,1411.0
-517,3806,1391,1,-501.0,-487.0,3815.0,3822.0,1396.0,1406.0
-540,3793,1386,1,-517.0,-501.0,3806.0,3815.0,1391.0,1396.0
-564,3785,1389,1,-540.0,-517.0,3793.0,3806.0,1386.0,1391.0
-584,3782,1390,1,-564.0,-540.0,3785.0,3793.0,1389.0,1386.0
-598,3783,1385,1,-584.0,-564.0,3782.0,3785.0,1390.0,1389.0
-611,3786,1384,1,-598.0,-584.0,3783.0,3782.0,1385.0,1390.0
-618,3780,1374,1,-611.0,-598.0,3786.0,3783.0,1384.0,1385.0
-620,3769,1375,1,-618.0,-611.0,3780.0,3786.0,1374.0,1384.0
-619,3763,1378,1,-620.0,-618.0,3769.0,3780.0,1375.0,1374.0
-612,3762,1382,1,-619.0,-620.0,3763.0,3769.0,1378.0,1375.0
-607,3766,1385,1,-612.0,-619.0,3762.0,3763.0,1382.0,1378.0
-602,3770,1384,1,-607.0,-612.0,3766.0,3762.0,1385.0,1382.0
-596,3774,1380,1,-602.0,-607.0,3770.0,3766.0,1384.0,1385.0
-595,3772,1377,1,-596.0,-602.0,3774.0,3770.0,1380.0,1384.0
-592,3771,1372,1,-595.0,-596.0,3772.0,3774.0,1377.0,1380.0
-590,3772,1367,1,-592.0,-595.0,3771.0,3772.0,1372.0,1377.0
-588,3769,1358,1,-590.0,-592.0,3772.0,3771.0,1367.0,1372.0
-586,3768,1354,1,-588.0,-590.0,3769.0,3772.0,1358.0,1367.0
-585,3767,1349,1,-586.0,-588.0,3768.0,3769.0,1354.0,1358.0
-583,3764,1350,1,-585.0,-586.0,3767.0,3768.0,1349.0,1354.0
-583,3769,1350,1,-583.0,-585.0,3764.0,3767.0,1350.0,1349.0
-577,3777,1351,1,-583.0,-583.0,3769.0,3764.0,1350.0,1350.0
-572,3779,1355,1,-577.0,-583.0,3777.0,3769.0,1351.0,1350.0
-565,3784,1362,1,-572.0,-577.0,3779.0,3777.0,1355.0,1351.0
-558,3787,1366,1,-565.0,-572.0,3784.0,3779.0,1362.0,1355.0
-551,3783,1365,1,-558.0,-565.0,3787.0,3784.0,1366.0,1362.0
-552,3787,1360,1,-551.0,-558.0,3783.0,3787.0,1365.0,1366.0
-546,3792,1357,1,-552.0,-551.0,3787.0,3783.0,1360.0,1365.0
-542,3780,1360,1,-546.0,-552.0,3792.0,3787.0,1357.0,1360.0
-546,3765,1348,1,-542.0,-546.0,3780.0,3792.0,1360.0,1357.0
-545,3762,1342,1,-546.0,-542.0,3765.0,3780.0,1348.0,1360.0
-542,3770,1351,1,-545.0,-546.0,3762.0,3765.0,1342.0,1348.0
-539,3783,1354,1,-542.0,-545.0,3770.0,3762.0,1351.0,1342.0
-534,3786,1359,1,-539.0,-542.0,3783.0,3770.0,1354.0,1351.0
-526,3783,1357,1,-534.0,-539.0,3786.0,3783.0,1359.0,1354.0
-522,3782,1353,1,-526.0,-534.0,3783.0,3786.0,1357.0,1359.0
-518,3780,1352,1,-522.0,-526.0,3782.0,3783.0,1353.0,1357.0
-518,3784,1352,1,-518.0,-522.0,3780.0,3782.0,1352.0,1353.0
-520,3792,1358,1,-518.0,-518.0,3784.0,3780.0,1352.0,1352.0
-524,3800,1368,1,-520.0,-518.0,3792.0,3784.0,1358.0,1352.0
-524,3811,1372,1,-524.0,-520.0,3800.0,3792.0,1368.0,1358.0
-520,3820,1375,1,-524.0,-524.0,3811.0,3800.0,1372.0,1368.0
-520,3829,1380,1,-520.0,-524.0,3820.0,3811.0,1375.0,1372.0
-524,3833,1382,1,-520.0,-520.0,3829.0,3820.0,1380.0,1375.0
-529,3833,1386,1,-524.0,-520.0,3833.0,3829.0,1382.0,1380.0
-528,3831,1391,1,-529.0,-524.0,3833.0,3833.0,1386.0,1382.0
-529,3834,1383,1,-528.0,-529.0,3831.0,3833.0,1391.0,1386.0
-537,3842,1380,1,-529.0,-528.0,3834.0,3831.0,1383.0,1391.0
-531,3844,1374,1,-537.0,-529.0,3842.0,3834.0,1380.0,1383.0
-533,3832,1364,1,-531.0,-537.0,3844.0,3842.0,1374.0,1380.0
-529,3815,1350,1,-533.0,-531.0,3832.0,3844.0,1364.0,1374.0
-530,3801,1358,1,-529.0,-533.0,3815.0,3832.0,1350.0,1364.0
-527,3793,1362,1,-530.0,-529.0,3801.0,3815.0,1358.0,1350.0
-526,3794,1371,1,-527.0,-530.0,3793.0,3801.0,1362.0,1358.0
-525,3793,1375,1,-526.0,-527.0,3794.0,3793.0,1371.0,1362.0
-528,3788,1370,1,-525.0,-526.0,3793.0,3794.0,1375.0,1371.0
-536,3786,1369,1,-528.0,-525.0,3788.0,3793.0,1370.0,1375.0
-544,3781,1365,1,-536.0,-528.0,3786.0,3788.0,1369.0,1370.0
-546,3782,1365,1,-544.0,-536.0,3781.0,3786.0,1365.0,1369.0
-549,3778,1363,1,-546.0,-544.0,3782.0,3781.0,1365.0,1365.0
-553,3777,1372,1,-549.0,-546.0,3778.0,3782.0,1363.0,1365.0
-553,3777,1373,1,-553.0,-549.0,3777.0,3778.0,1372.0,1363.0
-551,3774,1360,1,-553.0,-553.0,3777.0,3777.0,1373.0,1372.0
-552,3768,1350,1,-551.0,-553.0,3774.0,3777.0,1360.0,1373.0
-550,3767,1336,1,-552.0,-551.0,3768.0,3774.0,1350.0,1360.0
-552,3765,1327,1,-550.0,-552.0,3767.0,3768.0,1336.0,1350.0
-553,3768,1325,1,-552.0,-550.0,3765.0,3767.0,1327.0,1336.0
-552,3753,1316,1,-553.0,-552.0,3768.0,3765.0,1325.0,1327.0
-560,3756,1301,1,-552.0,-553.0,3753.0,3768.0,1316.0,1325.0
-564,3779,1306,1,-560.0,-552.0,3756.0,3753.0,1301.0,1316.0
-565,3797,1317,1,-564.0,-560.0,3779.0,3756.0,1306.0,1301.0
-564,3814,1331,1,-565.0,-564.0,3797.0,3779.0,1317.0,1306.0
-560,3823,1343,1,-564.0,-565.0,3814.0,3797.0,1331.0,1317.0
-562,3835,1347,1,-560.0,-564.0,3823.0,3814.0,1343.0,1331.0
-561,3855,1348,1,-562.0,-560.0,3835.0,3823.0,1347.0,1343.0
-568,3873,1343,1,-561.0,-562.0,3855.0,3835.0,1348.0,1347.0
-573,3881,1327,1,-568.0,-561.0,3873.0,3855.0,1343.0,1348.0
-580,3881,1317,1,-573.0,-568.0,3881.0,3873.0,1327.0,1343.0
-588,3876,1312,1,-580.0,-573.0,3881.0,3881.0,1317.0,1327.0
-591,3866,1312,1,-588.0,-580.0,3876.0,3881.0,1312.0,1317.0
-594,3858,1312,1,-591.0,-588.0,3866.0,3876.0,1312.0,1312.0
-591,3852,1312,1,-594.0,-591.0,3858.0,3866.0,1312.0,1312.0
-588,3848,1308,1,-591.0,-594.0,3852.0,3858.0,1312.0,1312.0
-583,3843,1300,1,-588.0,-591.0,3848.0,3852.0,1308.0,1312.0
-577,3832,1288,1,-583.0,-588.0,3843.0,3848.0,1300.0,1308.0
-573,3820,1284,1,-577.0,-583.0,3832.0,3843.0,1288.0,1300.0
-574,3810,1283,1,-573.0,-577.0,3820.0,3832.0,1284.0,1288.0
-576,3797,1285,1,-574.0,-573.0,3810.0,3820.0,1283.0,1284.0
-576,3784,1290,1,-576.0,-574.0,3797.0,3810.0,1285.0,1283.0
-574,3784,1300,1,-576.0,-576.0,3784.0,3797.0,1290.0,1285.0
-574,3803,1307,1,-574.0,-576.0,3784.0,3784.0,1300.0,1290.0
-573,3827,1314,1,-574.0,-574.0,3803.0,3784.0,1307.0,1300.0
-569,3841,1315,1,-573.0,-574.0,3827.0,3803.0,1314.0,1307.0
-565,3835,1311,1,-569.0,-573.0,3841.0,3827.0,1315.0,1314.0
-558,3819,1306,1,-565.0,-569.0,3835.0,3841.0,1311.0,1315.0
-559,3802,1309,1,-558.0,-565.0,3819.0,3835.0,1306.0,1311.0
-561,3798,1311,1,-559.0,-558.0,3802.0,3819.0,1309.0,1306.0
-567,3803,1307,1,-561.0,-559.0,3798.0,3802.0,1311.0,1309.0
-571,3807,1304,1,-567.0,-561.0,3803.0,3798.0,1307.0,1311.0
-579,3808,1296,1,-571.0,-567.0,3807.0,3803.0,1304.0,1307.0
-578,3812,1300,1,-579.0,-571.0,3808.0,3807.0,1296.0,1304.0
-578,3808,1306,1,-578.0,-579.0,3812.0,3808.0,1300.0,1296.0
-580,3805,1316,1,-578.0,-578.0,3808.0,3812.0,1306.0,1300.0
-576,3805,1322,1,-580.0,-578.0,3805.0,3808.0,1316.0,1306.0
-572,3805,1320,1,-576.0,-580.0,3805.0,3805.0,1322.0,1316.0
-566,3804,1314,1,-572.0,-576.0,3805.0,3805.0,1320.0,1322.0
-567,3797,1297,1,-566.0,-572.0,3804.0,3805.0,1314.0,1320.0
-562,3793,1282,1,-567.0,-566.0,3797.0,3804.0,1297.0,1314.0
-557,3794,1274,1,-562.0,-567.0,3793.0,3797.0,1282.0,1297.0
-550,3793,1266,1,-557.0,-562.0,3794.0,3793.0,1274.0,1282.0
-535,3796,1264,1,-550.0,-557.0,3793.0,3794.0,1266.0,1274.0
-522,3790,1262,1,-535.0,-550.0,3796.0,3793.0,1264.0,1266.0
-506,3786,1268,1,-522.0,-535.0,3790.0,3796.0,1262.0,1264.0
-489,3787,1274,1,-506.0,-522.0,3786.0,3790.0,1268.0,1262.0
-479,3788,1285,1,-489.0,-506.0,3787.0,3786.0,1274.0,1268.0
-464,3792,1301,1,-479.0,-489.0,3788.0,3787.0,1285.0,1274.0
-459,3788,1318,1,-464.0,-479.0,3792.0,3788.0,1301.0,1285.0
-454,3777,1335,1,-459.0,-464.0,3788.0,3792.0,1318.0,1301.0
-452,3769,1346,1,-454.0,-459.0,3777.0,3788.0,1335.0,1318.0
-458,3759,1344,1,-452.0,-454.0,3769.0,3777.0,1346.0,1335.0
-465,3742,1342,1,-458.0,-452.0,3759.0,3769.0,1344.0,1346.0
-473,3726,1336,1,-465.0,-458.0,3742.0,3759.0,1342.0,1344.0
-482,3714,1334,1,-473.0,-465.0,3726.0,3742.0,1336.0,1342.0
-486,3699,1336,1,-482.0,-473.0,3714.0,3726.0,1334.0,1336.0
-495,3679,1345,1,-486.0,-482.0,3699.0,3714.0,1336.0,1334.0
-502,3668,1349,1,-495.0,-486.0,3679.0,3699.0,1345.0,1336.0
-516,3662,1352,1,-502.0,-495.0,3668.0,3679.0,1349.0,1345.0
-527,3659,1351,1,-516.0,-502.0,3662.0,3668.0,1352.0,1349.0
-536,3652,1344,1,-527.0,-516.0,3659.0,3662.0,1351.0,1352.0
-549,3649,1334,1,-536.0,-527.0,3652.0,3659.0,1344.0,1351.0
-560,3645,1328,1,-549.0,-536.0,3649.0,3652.0,1334.0,1344.0
-569,3645,1324,1,-560.0,-549.0,3645.0,3649.0,1328.0,1334.0
-573,3644,1320,1,-569.0,-560.0,3645.0,3645.0,1324.0,1328.0
-579,3642,1329,1,-573.0,-569.0,3644.0,3645.0,1320.0,1324.0
-569,3644,1340,1,-579.0,-573.0,3642.0,3644.0,1329.0,1320.0
-559,3648,1355,1,-569.0,-579.0,3644.0,3642.0,1340.0,1329.0
-544,3647,1355,1,-559.0,-569.0,3648.0,3644.0,1355.0,1340.0
-533,3645,1347,1,-544.0,-559.0,3647.0,3648.0,1355.0,1355.0
-525,3644,1328,1,-533.0,-544.0,3645.0,3647.0,1347.0,1355.0
-515,3644,1307,1,-525.0,-533.0,3644.0,3645.0,1328.0,1347.0
-511,3637,1290,1,-515.0,-525.0,3644.0,3644.0,1307.0,1328.0
-507,3636,1282,1,-511.0,-515.0,3637.0,3644.0,1290.0,1307.0
