accelerometer_x,accelerometer_y,accelerometer_z,fall,x_lag_1,x_lag_2,y_lag_1,y_lag_2,z_lag_1,z_lag_2
3980,-953,160,0,,,,,,
3981,-942,157,0,3980.0,,-953.0,,160.0,
3983,-932,152,0,3981.0,3980.0,-942.0,-953.0,157.0,160.0
3988,-922,153,0,3983.0,3981.0,-932.0,-942.0,152.0,157.0
3996,-915,156,0,3988.0,3983.0,-922.0,-932.0,153.0,152.0
3996,-909,150,0,3996.0,3988.0,-915.0,-922.0,156.0,153.0
3999,-907,148,0,3996.0,3996.0,-909.0,-915.0,150.0,156.0
3999,-905,146,0,3999.0,3996.0,-907.0,-909.0,148.0,150.0
4007,-903,143,0,3999.0,3999.0,-905.0,-907.0,146.0,148.0
4011,-903,142,0,4007.0,3999.0,-903.0,-905.0,143.0,146.0
4010,-902,142,0,4011.0,4007.0,-903.0,-903.0,142.0,143.0
4009,-904,141,0,4010.0,4011.0,-902.0,-903.0,142.0,142.0
4010,-903,142,0,4009.0,4010.0,-904.0,-902.0,141.0,142.0
4010,-901,143,0,4010.0,4009.0,-903.0,-904.0,142.0,141.0
4009,-901,139,0,4010.0,4010.0,-901.0,-903.0,143.0,142.0
4010,-904,135,0,4009.0,4010.0,-901.0,-901.0,139.0,143.0
4009,-900,139,0,4010.0,4009.0,-904.0,-901.0,135.0,139.0
4007,-897,138,0,4009.0,4010.0,-900.0,-904.0,139.0,135.0
4006,-895,138,0,4007.0,4009.0,-897.0,-900.0,138.0,139.0
4006,-894,143,0,4006.0,4007.0,-895.0,-897.0,138.0,138.0
4003,-891,146,0,4006.0,4006.0,-894.0,-895.0,143.0,138.0
3997,-889,147,0,4003.0,4006.0,-891.0,-894.0,146.0,143.0
3995,-887,147,0,3997.0,4003.0,-889.0,-891.0,147.0,146.0
3988,-892,147,0,3995.0,3997.0,-887.0,-889.0,147.0,147.0
3984,-895,148,0,3988.0,3995.0,-892.0,-887.0,147.0,147.0
3983,-899,148,0,3984.0,3988.0,-895.0,-892.0,148.0,147.0
3981,-899,150,0,3983.0,3984.0,-899.0,-895.0,148.0,148.0
3978,-902,144,0,3981.0,3983.0,-899.0,-899.0,150.0,148.0
3975,-906,142,0,3978.0,3981.0,-902.0,-899.0,144.0,150.0
3971,-911,143,0,3975.0,3978.0,-906.0,-902.0,142.0,144.0
3971,-908,148,0,3971.0,3975.0,-911.0,-906.0,143.0,142.0
3970,-904,153,0,3971.0,3971.0,-908.0,-911.0,148.0,143.0
3968,-903,154,0,3970.0,3971.0,-904.0,-908.0,153.0,148.0
3967,-902,152,0,3968.0,3970.0,-903.0,-904.0,154.0,153.0
3962,-904,150,0,3967.0,3968.0,-902.0,-903.0,152.0,154.0
3960,-905,140,0,3962.0,3967.0,-904.0,-902.0,150.0,152.0
3962,-904,133,0,3960.0,3962.0,-905.0,-904.0,140.0,150.0
3962,-902,135,0,3962.0,3960.0,-904.0,-905.0,133.0,140.0
3963,-901,131,0,3962.0,3962.0,-902.0,-904.0,135.0,133.0
3971,-904,132,0,3963.0,3962.0,-901.0,-902.0,131.0,135.0
3975,-903,130,0,3971.0,3963.0,-904.0,-901.0,132.0,131.0
3979,-905,134,0,3975.0,3971.0,-903.0,-904.0,130.0,132.0
3989,-907,137,0,3979.0,3975.0,-905.0,-903.0,134.0,130.0
3994,-913,138,0,3989.0,3979.0,-907.0,-905.0,137.0,134.0
3997,-920,134,0,3994.0,3989.0,-913.0,-907.0,138.0,137.0
3999,-921,130,0,3997.0,3994.0,-920.0,-913.0,134.0,138.0
4001,-924,131,0,3999.0,3997.0,-921.0,-920.0,130.0,134.0
4004,-935,126,0,4001.0,3999.0,-924.0,-921.0,131.0,130.0
4007,-935,123,0,4004.0,4001.0,-935.0,-924.0,126.0,131.0
4008,-938,119,0,4007.0,4004.0,-935.0,-935.0,123.0,126.0
4008,-943,120,0,4008.0,4007.0,-938.0,-935.0,119.0,123.0
4008,-941,125,0,4008.0,4008.0,-943.0,-938.0,120.0,119.0
4007,-945,129,0,4008.0,4008.0,-941.0,-943.0,125.0,120.0
4003,-947,133,0,4007.0,4008.0,-945.0,-941.0,129.0,125.0
4000,-953,136,0,4003.0,4007.0,-947.0,-945.0,133.0,129.0
3999,-960,132,0,4000.0,4003.0,-953.0,-947.0,136.0,133.0
3994,-961,126,0,3999.0,4000.0,-960.0,-953.0,132.0,136.0
3989,-961,117,0,3994.0,3999.0,-961.0,-960.0,126.0,132.0
3981,-966,110,0,3989.0,3994.0,-961.0,-961.0,117.0,126.0
3980,-970,104,0,3981.0,3989.0,-966.0,-961.0,110.0,117.0
3973,-963,100,0,3980.0,3981.0,-970.0,-966.0,104.0,110.0
3972,-960,103,0,3973.0,3980.0,-963.0,-970.0,100.0,104.0
3970,-959,105,0,3972.0,3973.0,-960.0,-963.0,103.0,100.0
3968,-956,111,0,3970.0,3972.0,-959.0,-960.0,105.0,103.0
3967,-951,117,0,3968.0,3970.0,-956.0,-959.0,111.0,105.0
3966,-944,126,0,3967.0,3968.0,-951.0,-956.0,117.0,111.0
3967,-940,134,0,3966.0,3967.0,-944.0,-951.0,126.0,117.0
3962,-937,143,0,3967.0,3966.0,-940.0,-944.0,134.0,126.0
3961,-935,147,0,3962.0,3967.0,-937.0,-940.0,143.0,134.0
3962,-929,147,0,3961.0,3962.0,-935.0,-937.0,147.0,143.0
3958,-924,142,0,3962.0,3961.0,-929.0,-935.0,147.0,147.0
3960,-925,134,0,3958.0,3962.0,-924.0,-929.0,142.0,147.0
3964,-928,131,0,3960.0,3958.0,-925.0,-924.0,134.0,142.0
3971,-934,127,0,3964.0,3960.0,-928.0,-925.0,131.0,134.0
3977,-935,121,0,3971.0,3964.0,-934.0,-928.0,127.0,131.0
3980,-934,113,0,3977.0,3971.0,-935.0,-934.0,121.0,127.0
3980,-932,106,0,3980.0,3977.0,-934.0,-935.0,113.0,121.0
3979,-931,102,0,3980.0,3980.0,-932.0,-934.0,106.0,113.0
3979,-924,105,0,3979.0,3980.0,-931.0,-932.0,102.0,106.0
3979,-919,114,0,3979.0,3979.0,-924.0,-931.0,105.0,102.0
3981,-920,121,0,3979.0,3979.0,-919.0,-924.0,114.0,105.0
3980,-923,130,0,3981.0,3979.0,-920.0,-919.0,121.0,114.0
3980,-922,129,0,3980.0,3981.0,-923.0,-920.0,130.0,121.0
3983,-927,133,0,3980.0,3980.0,-922.0,-923.0,129.0,130.0
3986,-931,138,0,3983.0,3980.0,-927.0,-922.0,133.0,129.0
3988,-932,142,0,3986.0,3983.0,-931.0,-927.0,138.0,133.0
3984,-933,138,0,3988.0,3986.0,-932.0,-931.0,142.0,138.0
3976,-939,127,0,3984.0,3988.0,-933.0,-932.0,138.0,142.0
3962,-943,116,0,3976.0,3984.0,-939.0,-933.0,127.0,138.0
3952,-942,110,0,3962.0,3976.0,-943.0,-939.0,116.0,127.0
3947,-943,106,0,3952.0,3962.0,-942.0,-943.0,110.0,116.0
3947,-943,106,0,3947.0,3952.0,-943.0,-942.0,106.0,110.0
3951,-947,107,0,3947.0,3947.0,-943.0,-943.0,106.0,106.0
3959,-947,114,0,3951.0,3947.0,-947.0,-943.0,107.0,106.0
3958,-949,115,0,3959.0,3951.0,-947.0,-947.0,114.0,107.0
3961,-953,118,0,3958.0,3959.0,-949.0,-947.0,115.0,114.0
3962,-956,119,0,3961.0,3958.0,-953.0,-949.0,118.0,115.0
3966,-959,121,0,3962.0,3961.0,-956.0,-953.0,119.0,118.0
3961,-961,121,0,3966.0,3962.0,-959.0,-956.0,121.0,119.0
3965,-971,119,0,3961.0,3966.0,-961.0,-959.0,121.0,121.0
3963,-977,114,0,3965.0,3961.0,-971.0,-961.0,119.0,121.0
3961,-980,112,0,3963.0,3965.0,-977.0,-971.0,114.0,119.0
3968,-978,117,0,3961.0,3963.0,-980.0,-977.0,112.0,114.0
3972,-980,116,0,3968.0,3961.0,-978.0,-980.0,117.0,112.0
3974,-978,116,0,3972.0,3968.0,-980.0,-978.0,116.0,117.0
3981,-974,119,0,3974.0,3972.0,-978.0,-980.0,116.0,116.0
3984,-968,119,0,3981.0,3974.0,-974.0,-978.0,119.0,116.0
3987,-962,118,0,3984.0,3981.0,-968.0,-974.0,119.0,119.0
3986,-955,115,0,3987.0,3984.0,-962.0,-968.0,118.0,119.0
3984,-948,116,0,3986.0,3987.0,-955.0,-962.0,115.0,118.0
3982,-941,119,0,3984.0,3986.0,-948.0,-955.0,116.0,115.0
3981,-934,118,0,3982.0,3984.0,-941.0,-948.0,119.0,116.0
3983,-930,117,0,3981.0,3982.0,-934.0,-941.0,118.0,119.0
3989,-927,123,0,3983.0,3981.0,-930.0,-934.0,117.0,118.0
3993,-926,123,0,3989.0,3983.0,-927.0,-930.0,123.0,117.0
3997,-922,120,0,3993.0,3989.0,-926.0,-927.0,123.0,123.0
3995,-916,116,0,3997.0,3993.0,-922.0,-926.0,120.0,123.0
3993,-913,107,0,3995.0,3997.0,-916.0,-922.0,116.0,120.0
3988,-911,103,0,3993.0,3995.0,-913.0,-916.0,107.0,116.0
3987,-905,103,0,3988.0,3993.0,-911.0,-913.0,103.0,107.0
3987,-901,105,0,3987.0,3988.0,-905.0,-911.0,103.0,103.0
3983,-894,107,0,3987.0,3987.0,-901.0,-905.0,105.0,103.0
3982,-889,107,0,3983.0,3987.0,-894.0,-901.0,107.0,105.0
3982,-886,106,0,3982.0,3983.0,-889.0,-894.0,107.0,107.0
3980,-881,103,0,3982.0,3982.0,-886.0,-889.0,106.0,107.0
3980,-877,101,0,3980.0,3982.0,-881.0,-886.0,103.0,106.0
3979,-875,105,0,3980.0,3980.0,-877.0,-881.0,101.0,103.0
3976,-872,108,0,3979.0,3980.0,-875.0,-877.0,105.0,101.0
3978,-868,113,0,3976.0,3979.0,-872.0,-875.0,108.0,105.0
3982,-872,116,0,3978.0,3976.0,-868.0,-872.0,113.0,108.0
3985,-877,119,0,3982.0,3978.0,-872.0,-868.0,116.0,113.0
3989,-879,119,0,3985.0,3982.0,-877.0,-872.0,119.0,116.0
3993,-887,118,0,3989.0,3985.0,-879.0,-877.0,119.0,119.0
3993,-897,113,0,3993.0,3989.0,-887.0,-879.0,118.0,119.0
3988,-899,105,0,3993.0,3993.0,-897.0,-887.0,113.0,118.0
3985,-903,102,0,3988.0,3993.0,-899.0,-897.0,105.0,113.0
3981,-910,98,0,3985.0,3988.0,-903.0,-899.0,102.0,105.0
3977,-919,93,0,3981.0,3985.0,-910.0,-903.0,98.0,102.0
3975,-926,91,0,3977.0,3981.0,-919.0,-910.0,93.0,98.0
3970,-930,88,0,3975.0,3977.0,-926.0,-919.0,91.0,93.0
3967,-931,93,0,3970.0,3975.0,-930.0,-926.0,88.0,91.0
3966,-936,93,0,3967.0,3970.0,-931.0,-930.0,93.0,88.0
3963,-940,95,0,3966.0,3967.0,-936.0,-931.0,93.0,93.0
3963,-940,97,0,3963.0,3966.0,-940.0,-936.0,95.0,93.0
3964,-941,98,0,3963.0,3963.0,-940.0,-940.0,97.0,95.0
3966,-941,100,0,3964.0,3963.0,-941.0,-940.0,98.0,97.0
3966,-942,99,0,3966.0,3964.0,-941.0,-941.0,100.0,98.0
3970,-947,110,0,3966.0,3966.0,-942.0,-941.0,99.0,100.0
3974,-945,120,0,3970.0,3966.0,-947.0,-942.0,110.0,99.0
3979,-945,118,0,3974.0,3970.0,-945.0,-947.0,120.0,110.0
3978,-950,110,0,3979.0,3974.0,-945.0,-945.0,118.0,120.0
3977,-953,102,0,3978.0,3979.0,-950.0,-945.0,110.0,118.0
3974,-952,95,0,3977.0,3978.0,-953.0,-950.0,102.0,110.0
3975,-956,86,0,3974.0,3977.0,-952.0,-953.0,95.0,102.0
3978,-959,81,0,3975.0,3974.0,-956.0,-952.0,86.0,95.0
3978,-955,78,0,3978.0,3975.0,-959.0,-956.0,81.0,86.0
3978,-954,74,0,3978.0,3978.0,-955.0,-959.0,78.0,81.0
3978,-952,76,0,3978.0,3978.0,-954.0,-955.0,74.0,78.0
3981,-949,78,0,3978.0,3978.0,-952.0,-954.0,76.0,74.0
3985,-948,86,0,3981.0,3978.0,-949.0,-952.0,78.0,76.0
3985,-945,86,0,3985.0,3981.0,-948.0,-949.0,86.0,78.0
3984,-941,86,0,3985.0,3985.0,-945.0,-948.0,86.0,86.0
3989,-946,87,0,3984.0,3985.0,-941.0,-945.0,86.0,86.0
3986,-947,87,0,3989.0,3984.0,-946.0,-941.0,87.0,86.0
3987,-945,86,0,3986.0,3989.0,-947.0,-946.0,87.0,87.0
3990,-948,88,0,3987.0,3986.0,-945.0,-947.0,86.0,87.0
3989,-945,95,0,3990.0,3987.0,-948.0,-945.0,88.0,86.0
3988,-941,98,0,3989.0,3990.0,-945.0,-948.0,95.0,88.0
3990,-935,98,0,3988.0,3989.0,-941.0,-945.0,98.0,95.0
3989,-927,103,0,3990.0,3988.0,-935.0,-941.0,98.0,98.0
3989,-919,107,0,3989.0,3990.0,-927.0,-935.0,103.0,98.0
3986,-915,111,0,3989.0,3989.0,-919.0,-927.0,107.0,103.0
3987,-916,112,0,3986.0,3989.0,-915.0,-919.0,111.0,107.0
3985,-915,105,0,3987.0,3986.0,-916.0,-915.0,112.0,111.0
3985,-918,101,0,3985.0,3987.0,-915.0,-916.0,105.0,112.0
3983,-916,99,0,3985.0,3985.0,-918.0,-915.0,101.0,105.0
3982,-918,95,0,3983.0,3985.0,-916.0,-918.0,99.0,101.0
3982,-916,93,0,3982.0,3983.0,-918.0,-916.0,95.0,99.0
3983,-917,95,0,3982.0,3982.0,-916.0,-918.0,93.0,95.0
3985,-913,98,0,3983.0,3982.0,-917.0,-916.0,95.0,93.0
3986,-910,101,0,3985.0,3983.0,-913.0,-917.0,98.0,95.0
3991,-909,100,0,3986.0,3985.0,-910.0,-913.0,101.0,98.0
3990,-909,106,0,3991.0,3986.0,-909.0,-910.0,100.0,101.0
4000,-909,101,0,3990.0,3991.0,-909.0,-909.0,106.0,100.0
4006,-909,101,0,4000.0,3990.0,-909.0,-909.0,101.0,106.0
4009,-904,102,0,4006.0,4000.0,-909.0,-909.0,101.0,101.0
4017,-902,112,0,4009.0,4006.0,-904.0,-909.0,102.0,101.0
4024,-903,122,0,4017.0,4009.0,-902.0,-904.0,112.0,102.0
4027,-899,126,0,4024.0,4017.0,-903.0,-902.0,122.0,112.0
4029,-895,127,0,4027.0,4024.0,-899.0,-903.0,126.0,122.0
4023,-895,125,0,4029.0,4027.0,-895.0,-899.0,127.0,126.0
4022,-899,123,0,4023.0,4029.0,-895.0,-895.0,125.0,127.0
4015,-902,117,0,4022.0,4023.0,-899.0,-895.0,123.0,125.0
4007,-900,111,0,4015.0,4022.0,-902.0,-899.0,117.0,123.0
4003,-900,106,0,4007.0,4015.0,-900.0,-902.0,111.0,117.0
4000,-908,100,0,4003.0,4007.0,-900.0,-900.0,106.0,111.0
3991,-914,98,0,4000.0,4003.0,-908.0,-900.0,100.0,106.0
3986,-919,104,0,3991.0,4000.0,-914.0,-908.0,98.0,100.0
3980,-928,112,0,3986.0,3991.0,-919.0,-914.0,104.0,98.0
3978,-936,115,0,3980.0,3986.0,-928.0,-919.0,112.0,104.0
3979,-946,122,0,3978.0,3980.0,-936.0,-928.0,115.0,112.0
3981,-947,130,0,3979.0,3978.0,-946.0,-936.0,122.0,115.0
3982,-947,136,0,3981.0,3979.0,-947.0,-946.0,130.0,122.0
3983,-946,145,0,3982.0,3981.0,-947.0,-947.0,136.0,130.0
3981,-944,151,0,3983.0,3982.0,-946.0,-947.0,145.0,136.0
3978,-948,146,0,3981.0,3983.0,-944.0,-946.0,151.0,145.0
3974,-953,144,0,3978.0,3981.0,-948.0,-944.0,146.0,151.0
3969,-957,143,0,3974.0,3978.0,-953.0,-948.0,144.0,146.0
3968,-959,141,0,3969.0,3974.0,-957.0,-953.0,143.0,144.0
3968,-954,142,0,3968.0,3969.0,-959.0,-957.0,141.0,143.0
3968,-949,145,0,3968.0,3968.0,-954.0,-959.0,142.0,141.0
3971,-949,146,0,3968.0,3968.0,-949.0,-954.0,145.0,142.0
3977,-953,147,0,3971.0,3968.0,-949.0,-949.0,146.0,145.0
3977,-956,139,0,3977.0,3971.0,-953.0,-949.0,147.0,146.0
3974,-959,129,0,3977.0,3977.0,-956.0,-953.0,139.0,147.0
3970,-959,119,0,3974.0,3977.0,-959.0,-956.0,129.0,139.0
3972,-962,111,0,3970.0,3974.0,-959.0,-959.0,119.0,129.0
3972,-963,107,0,3972.0,3970.0,-962.0,-959.0,111.0,119.0
3975,-962,108,0,3972.0,3972.0,-963.0,-962.0,107.0,111.0
3977,-955,114,0,3975.0,3972.0,-962.0,-963.0,108.0,107.0
3976,-947,119,0,3977.0,3975.0,-955.0,-962.0,114.0,108.0
3981,-945,120,0,3976.0,3977.0,-947.0,-955.0,119.0,114.0
3983,-939,122,0,3981.0,3976.0,-945.0,-947.0,120.0,119.0
3984,-935,125,0,3983.0,3981.0,-939.0,-945.0,122.0,120.0
3987,-934,127,0,3984.0,3983.0,-935.0,-939.0,125.0,122.0
3996,-926,127,0,3987.0,3984.0,-934.0,-935.0,127.0,125.0
3995,-923,128,0,3996.0,3987.0,-926.0,-934.0,127.0,127.0
4000,-925,127,0,3995.0,3996.0,-923.0,-926.0,128.0,127.0
4002,-925,122,0,4000.0,3995.0,-925.0,-923.0,127.0,128.0
4001,-930,117,0,4002.0,4000.0,-925.0,-925.0,122.0,127.0
3993,-927,109,0,4001.0,4002.0,-930.0,-925.0,117.0,122.0
3986,-923,107,0,3993.0,4001.0,-927.0,-930.0,109.0,117.0
3982,-918,110,0,3986.0,3993.0,-923.0,-927.0,107.0,109.0
3982,-913,113,0,3982.0,3986.0,-918.0,-923.0,110.0,107.0
3979,-911,117,0,3982.0,3982.0,-913.0,-918.0,113.0,110.0
3976,-908,119,0,3979.0,3982.0,-911.0,-913.0,117.0,113.0
3978,-907,123,0,3976.0,3979.0,-908.0,-911.0,119.0,117.0
3979,-904,123,0,3978.0,3976.0,-907.0,-908.0,123.0,119.0
3979,-902,127,0,3979.0,3978.0,-904.0,-907.0,123.0,123.0
3978,-896,129,0,3979.0,3979.0,-902.0,-904.0,127.0,123.0
3981,-897,130,0,3978.0,3979.0,-896.0,-902.0,129.0,127.0
3986,-901,138,0,3981.0,3978.0,-897.0,-896.0,130.0,129.0
3989,-904,149,0,3986.0,3981.0,-901.0,-897.0,138.0,130.0
3990,-904,155,0,3989.0,3986.0,-904.0,-901.0,149.0,138.0
3986,-909,155,0,3990.0,3989.0,-904.0,-904.0,155.0,149.0
3983,-918,151,0,3986.0,3990.0,-909.0,-904.0,155.0,155.0
3979,-924,142,0,3983.0,3986.0,-918.0,-909.0,151.0,155.0
3977,-927,142,0,3979.0,3983.0,-924.0,-918.0,142.0,151.0
3974,-931,142,0,3977.0,3979.0,-927.0,-924.0,142.0,142.0
3970,-934,134,0,3974.0,3977.0,-931.0,-927.0,142.0,142.0
3964,-936,128,0,3970.0,3974.0,-934.0,-931.0,134.0,142.0
3961,-938,120,0,3964.0,3970.0,-936.0,-934.0,128.0,134.0
3957,-935,117,0,3961.0,3964.0,-938.0,-936.0,120.0,128.0
3958,-937,121,0,3957.0,3961.0,-935.0,-938.0,117.0,120.0
3959,-938,126,0,3958.0,3957.0,-937.0,-935.0,121.0,117.0
3962,-936,135,0,3959.0,3958.0,-938.0,-937.0,126.0,121.0
3970,-934,139,0,3962.0,3959.0,-936.0,-938.0,135.0,126.0
3971,-935,143,0,3970.0,3962.0,-934.0,-936.0,139.0,135.0
3969,-934,145,0,3971.0,3970.0,-935.0,-934.0,143.0,139.0
3967,-933,142,0,3969.0,3971.0,-934.0,-935.0,145.0,143.0
3970,-936,144,0,3967.0,3969.0,-933.0,-934.0,142.0,145.0
3970,-936,147,0,3970.0,3967.0,-936.0,-933.0,144.0,142.0
3973,-932,150,0,3970.0,3970.0,-936.0,-936.0,147.0,144.0
3971,-934,152,0,3973.0,3970.0,-932.0,-936.0,150.0,147.0
3973,-935,160,0,3971.0,3973.0,-934.0,-932.0,152.0,150.0
3970,-932,166,0,3973.0,3971.0,-935.0,-934.0,160.0,152.0
3965,-932,163,0,3970.0,3973.0,-932.0,-935.0,166.0,160.0
3957,-929,161,0,3965.0,3970.0,-932.0,-932.0,163.0,166.0
3953,-929,157,0,3957.0,3965.0,-929.0,-932.0,161.0,163.0
3946,-925,155,0,3953.0,3957.0,-929.0,-929.0,157.0,161.0
3946,-926,155,0,3946.0,3953.0,-925.0,-929.0,155.0,157.0
3945,-925,157,0,3946.0,3946.0,-926.0,-925.0,155.0,155.0
3944,-927,162,0,3945.0,3946.0,-925.0,-926.0,157.0,155.0
3945,-935,170,0,3944.0,3945.0,-927.0,-925.0,162.0,157.0
3950,-942,172,0,3945.0,3944.0,-935.0,-927.0,170.0,162.0
3951,-947,172,0,3950.0,3945.0,-942.0,-935.0,172.0,170.0
3952,-957,169,0,3951.0,3950.0,-947.0,-942.0,172.0,172.0
3954,-964,166,0,3952.0,3951.0,-957.0,-947.0,169.0,172.0
3954,-974,167,0,3954.0,3952.0,-964.0,-957.0,166.0,169.0
3960,-982,165,0,3954.0,3954.0,-974.0,-964.0,167.0,166.0
3968,-985,161,0,3960.0,3954.0,-982.0,-974.0,165.0,167.0
3974,-986,162,0,3968.0,3960.0,-985.0,-982.0,161.0,165.0
3974,-984,158,0,3974.0,3968.0,-986.0,-985.0,162.0,161.0
3975,-983,158,0,3974.0,3974.0,-984.0,-986.0,158.0,162.0
3973,-978,157,0,3975.0,3974.0,-983.0,-984.0,158.0,158.0
3975,-974,159,0,3973.0,3975.0,-978.0,-983.0,157.0,158.0
3976,-968,160,0,3975.0,3973.0,-974.0,-978.0,159.0,157.0
3980,-965,168,0,3976.0,3975.0,-968.0,-974.0,160.0,159.0
3983,-962,175,0,3980.0,3976.0,-965.0,-968.0,168.0,160.0
3993,-960,184,0,3983.0,3980.0,-962.0,-965.0,175.0,168.0
3998,-960,179,0,3993.0,3983.0,-960.0,-962.0,184.0,175.0
3990,-961,166,0,3998.0,3993.0,-960.0,-960.0,179.0,184.0
3981,-955,148,0,3990.0,3998.0,-961.0,-960.0,166.0,179.0
3970,-942,139,0,3981.0,3990.0,-955.0,-961.0,148.0,166.0
3962,-938,131,0,3970.0,3981.0,-942.0,-955.0,139.0,148.0
3957,-936,129,0,3962.0,3970.0,-938.0,-942.0,131.0,139.0
3956,-932,136,0,3957.0,3962.0,-936.0,-938.0,129.0,131.0
3961,-930,145,0,3956.0,3957.0,-932.0,-936.0,136.0,129.0
3968,-927,148,0,3961.0,3956.0,-930.0,-932.0,145.0,136.0
3971,-925,148,0,3968.0,3961.0,-927.0,-930.0,148.0,145.0
3972,-926,142,0,3971.0,3968.0,-925.0,-927.0,148.0,148.0
3974,-928,138,0,3972.0,3971.0,-926.0,-925.0,142.0,148.0
3977,-936,138,0,3974.0,3972.0,-928.0,-926.0,138.0,142.0
3981,-935,136,0,3977.0,3974.0,-936.0,-928.0,138.0,138.0
3981,-937,137,0,3981.0,3977.0,-935.0,-936.0,136.0,138.0
3984,-938,132,0,3981.0,3981.0,-937.0,-935.0,137.0,136.0
3983,-942,125,0,3984.0,3981.0,-938.0,-937.0,132.0,137.0
3981,-943,122,0,3983.0,3984.0,-942.0,-938.0,125.0,132.0
3979,-940,120,0,3981.0,3983.0,-943.0,-942.0,122.0,125.0
3977,-933,120,0,3979.0,3981.0,-940.0,-943.0,120.0,122.0
3975,-929,117,0,3977.0,3979.0,-933.0,-940.0,120.0,120.0
3972,-916,117,0,3975.0,3977.0,-929.0,-933.0,117.0,120.0
3976,-911,121,0,3972.0,3975.0,-916.0,-929.0,117.0,117.0
3980,-912,133,0,3976.0,3972.0,-911.0,-916.0,121.0,117.0
3985,-911,137,0,3980.0,3976.0,-912.0,-911.0,133.0,121.0
3996,-907,144,0,3985.0,3980.0,-911.0,-912.0,137.0,133.0
3999,-901,143,0,3996.0,3985.0,-907.0,-911.0,144.0,137.0
3998,-901,132,0,3999.0,3996.0,-901.0,-907.0,143.0,144.0
3992,-900,117,0,3998.0,3999.0,-901.0,-901.0,132.0,143.0
3983,-903,101,0,3992.0,3998.0,-900.0,-901.0,117.0,132.0
3980,-905,90,0,3983.0,3992.0,-903.0,-900.0,101.0,117.0
3980,-913,87,0,3980.0,3983.0,-905.0,-903.0,90.0,101.0
3977,-914,87,0,3980.0,3980.0,-913.0,-905.0,87.0,90.0
3982,-920,96,0,3977.0,3980.0,-914.0,-913.0,87.0,87.0
3980,-928,106,0,3982.0,3977.0,-920.0,-914.0,96.0,87.0
3978,-933,116,0,3980.0,3982.0,-928.0,-920.0,106.0,96.0
3976,-940,118,0,3978.0,3980.0,-933.0,-928.0,116.0,106.0
3972,-954,118,0,3976.0,3978.0,-940.0,-933.0,118.0,116.0
3971,-965,117,0,3972.0,3976.0,-954.0,-940.0,118.0,118.0
3965,-975,120,0,3971.0,3972.0,-965.0,-954.0,117.0,118.0
3959,-984,120,0,3965.0,3971.0,-975.0,-965.0,120.0,117.0
3951,-991,118,0,3959.0,3965.0,-984.0,-975.0,120.0,120.0
3944,-996,120,0,3951.0,3959.0,-991.0,-984.0,118.0,120.0
3942,-999,127,0,3944.0,3951.0,-996.0,-991.0,120.0,118.0
3936,-1002,143,0,3942.0,3944.0,-999.0,-996.0,127.0,120.0
3939,-999,155,0,3936.0,3942.0,-1002.0,-999.0,143.0,127.0
3939,-1000,154,0,3939.0,3936.0,-999.0,-1002.0,155.0,143.0
3937,-1000,147,0,3939.0,3939.0,-1000.0,-999.0,154.0,155.0
3937,-998,138,0,3937.0,3939.0,-1000.0,-1000.0,147.0,154.0
3939,-994,133,0,3937.0,3937.0,-998.0,-1000.0,138.0,147.0
3942,-989,130,0,3939.0,3937.0,-994.0,-998.0,133.0,138.0
3947,-987,128,0,3942.0,3939.0,-989.0,-994.0,130.0,133.0
3952,-985,126,0,3947.0,3942.0,-987.0,-989.0,128.0,130.0
3957,-985,127,0,3952.0,3947.0,-985.0,-987.0,126.0,128.0
3963,-985,127,0,3957.0,3952.0,-985.0,-985.0,127.0,126.0
3967,-986,128,0,3963.0,3957.0,-985.0,-985.0,127.0,127.0
3967,-980,123,0,3967.0,3963.0,-986.0,-985.0,128.0,127.0
3971,-980,122,0,3967.0,3967.0,-980.0,-986.0,123.0,128.0
3971,-975,118,0,3971.0,3967.0,-980.0,-980.0,122.0,123.0
3970,-969,120,0,3971.0,3971.0,-975.0,-980.0,118.0,122.0
3975,-964,118,0,3970.0,3971.0,-969.0,-975.0,120.0,118.0
3974,-959,118,0,3975.0,3970.0,-964.0,-969.0,118.0,120.0
3980,-951,121,0,3974.0,3975.0,-959.0,-964.0,118.0,118.0
3989,-945,123,0,3980.0,3974.0,-951.0,-959.0,121.0,118.0
3989,-940,120,0,3989.0,3980.0,-945.0,-951.0,123.0,121.0
3989,-937,117,0,3989.0,3989.0,-940.0,-945.0,120.0,123.0
3987,-937,116,0,3989.0,3989.0,-937.0,-940.0,117.0,120.0
3987,-938,117,0,3987.0,3989.0,-937.0,-937.0,116.0,117.0
3993,-939,121,0,3987.0,3987.0,-938.0,-937.0,117.0,116.0
3993,-934,129,0,3993.0,3987.0,-939.0,-938.0,121.0,117.0
3993,-936,130,0,3993.0,3993.0,-934.0,-939.0,129.0,121.0
3991,-939,136,0,3993.0,3993.0,-936.0,-934.0,130.0,129.0
3992,-946,134,0,3991.0,3993.0,-939.0,-936.0,136.0,130.0
3986,-951,133,0,3992.0,3991.0,-946.0,-939.0,134.0,136.0
3983,-965,133,0,3986.0,3992.0,-951.0,-946.0,133.0,134.0
3980,-972,134,0,3983.0,3986.0,-965.0,-951.0,133.0,133.0
3979,-979,138,0,3980.0,3983.0,-972.0,-965.0,134.0,133.0
3980,-984,142,0,3979.0,3980.0,-979.0,-972.0,138.0,134.0
3975,-985,145,0,3980.0,3979.0,-984.0,-979.0,142.0,138.0
3971,-985,146,0,3975.0,3980.0,-985.0,-984.0,145.0,142.0
3968,-989,152,0,3971.0,3975.0,-985.0,-985.0,146.0,145.0
3969,-987,158,0,3968.0,3971.0,-989.0,-985.0,152.0,146.0
3974,-992,171,0,3969.0,3968.0,-987.0,-989.0,158.0,152.0
3978,-992,187,0,3974.0,3969.0,-992.0,-987.0,171.0,158.0
3977,-992,187,0,3978.0,3974.0,-992.0,-992.0,187.0,171.0
3968,-987,174,0,3977.0,3978.0,-992.0,-992.0,187.0,187.0
3958,-980,157,0,3968.0,3977.0,-987.0,-992.0,174.0,187.0
3951,-973,141,0,3958.0,3968.0,-980.0,-987.0,157.0,174.0
3945,-968,129,0,3951.0,3958.0,-973.0,-980.0,141.0,157.0
3946,-964,128,0,3945.0,3951.0,-968.0,-973.0,129.0,141.0
3948,-952,124,0,3946.0,3945.0,-964.0,-968.0,128.0,129.0
3952,-944,118,0,3948.0,3946.0,-952.0,-964.0,124.0,128.0
3959,-935,115,0,3952.0,3948.0,-944.0,-952.0,118.0,124.0
3965,-933,111,0,3959.0,3952.0,-935.0,-944.0,115.0,118.0
3973,-926,113,0,3965.0,3959.0,-933.0,-935.0,111.0,115.0
3981,-918,109,0,3973.0,3965.0,-926.0,-933.0,113.0,111.0
3994,-912,111,0,3981.0,3973.0,-918.0,-926.0,109.0,113.0
3999,-905,108,0,3994.0,3981.0,-912.0,-918.0,111.0,109.0
4008,-902,112,0,3999.0,3994.0,-905.0,-912.0,108.0,111.0
4012,-901,114,0,4008.0,3999.0,-902.0,-905.0,112.0,108.0
4018,-899,113,0,4012.0,4008.0,-901.0,-902.0,114.0,112.0
4021,-899,116,0,4018.0,4012.0,-899.0,-901.0,113.0,114.0
4021,-896,110,0,4021.0,4018.0,-899.0,-899.0,116.0,113.0
4019,-896,103,0,4021.0,4021.0,-896.0,-899.0,110.0,116.0
4019,-895,92,0,4019.0,4021.0,-896.0,-896.0,103.0,110.0
4019,-896,86,0,4019.0,4019.0,-895.0,-896.0,92.0,103.0
4017,-893,84,0,4019.0,4019.0,-896.0,-895.0,86.0,92.0
4019,-890,78,0,4017.0,4019.0,-893.0,-896.0,84.0,86.0
4022,-887,78,0,4019.0,4017.0,-890.0,-893.0,78.0,84.0
4019,-890,79,0,4022.0,4019.0,-887.0,-890.0,78.0,78.0
4025,-890,85,0,4019.0,4022.0,-890.0,-887.0,79.0,78.0
4028,-887,90,0,4025.0,4019.0,-890.0,-890.0,85.0,79.0
4025,-885,88,0,4028.0,4025.0,-887.0,-890.0,90.0,85.0
4018,-887,79,0,4025.0,4028.0,-885.0,-887.0,88.0,90.0
4012,-891,72,0,4018.0,4025.0,-887.0,-885.0,79.0,88.0
4006,-894,69,0,4012.0,4018.0,-891.0,-887.0,72.0,79.0
4006,-891,68,0,4006.0,4012.0,-894.0,-891.0,69.0,72.0
4006,-894,71,0,4006.0,4006.0,-891.0,-894.0,68.0,69.0
4008,-892,75,0,4006.0,4006.0,-894.0,-891.0,71.0,68.0
4012,-890,79,0,4008.0,4006.0,-892.0,-894.0,75.0,71.0
4013,-889,86,0,4012.0,4008.0,-890.0,-892.0,79.0,75.0
4013,-889,83,0,4013.0,4012.0,-889.0,-890.0,86.0,79.0
4015,-889,82,0,4013.0,4013.0,-889.0,-889.0,83.0,86.0
4010,-891,79,0,4015.0,4013.0,-889.0,-889.0,82.0,83.0
4010,-893,81,0,4010.0,4015.0,-891.0,-889.0,79.0,82.0
4003,-894,84,0,4010.0,4010.0,-893.0,-891.0,81.0,79.0
3999,-895,91,0,4003.0,4010.0,-894.0,-893.0,84.0,81.0
3992,-894,94,0,3999.0,4003.0,-895.0,-894.0,91.0,84.0
3982,-894,106,0,3992.0,3999.0,-894.0,-895.0,94.0,91.0
3974,-892,117,0,3982.0,3992.0,-894.0,-894.0,106.0,94.0
3970,-891,133,0,3974.0,3982.0,-892.0,-894.0,117.0,106.0
3972,-889,143,0,3970.0,3974.0,-891.0,-892.0,133.0,117.0
3971,-883,144,0,3972.0,3970.0,-889.0,-891.0,143.0,133.0
3972,-881,135,0,3971.0,3972.0,-883.0,-889.0,144.0,143.0
3974,-881,118,0,3972.0,3971.0,-881.0,-883.0,135.0,144.0
3977,-881,100,0,3974.0,3972.0,-881.0,-881.0,118.0,135.0
3978,-885,88,0,3977.0,3974.0,-881.0,-881.0,100.0,118.0
3979,-890,78,0,3978.0,3977.0,-885.0,-881.0,88.0,100.0
3983,-896,79,0,3979.0,3978.0,-890.0,-885.0,78.0,88.0
3989,-911,81,0,3983.0,3979.0,-896.0,-890.0,79.0,78.0
3994,-927,83,0,3989.0,3983.0,-911.0,-896.0,81.0,79.0
3999,-948,89,0,3994.0,3989.0,-927.0,-911.0,83.0,81.0
4003,-967,99,0,3999.0,3994.0,-948.0,-927.0,89.0,83.0
4000,-986,100,0,4003.0,3999.0,-967.0,-948.0,99.0,89.0
3993,-1011,95,0,4000.0,4003.0,-986.0,-967.0,100.0,99.0
3977,-1035,87,0,3993.0,4000.0,-1011.0,-986.0,95.0,100.0
3960,-1054,73,0,3977.0,3993.0,-1035.0,-1011.0,87.0,95.0
3948,-1065,66,0,3960.0,3977.0,-1054.0,-1035.0,73.0,87.0
3938,-1073,68,0,3948.0,3960.0,-1065.0,-1054.0,66.0,73.0
3929,-1075,69,0,3938.0,3948.0,-1073.0,-1065.0,68.0,66.0
3920,-1070,73,0,3929.0,3938.0,-1075.0,-1073.0,69.0,68.0
3919,-1058,79,0,3920.0,3929.0,-1070.0,-1075.0,73.0,69.0
3923,-1045,86,0,3919.0,3920.0,-1058.0,-1070.0,79.0,73.0
3927,-1030,86,0,3923.0,3919.0,-1045.0,-1058.0,86.0,79.0
3938,-1020,86,0,3927.0,3923.0,-1030.0,-1045.0,86.0,86.0
3946,-1010,78,0,3938.0,3927.0,-1020.0,-1030.0,86.0,86.0
3957,-1002,70,0,3946.0,3938.0,-1010.0,-1020.0,78.0,86.0
3963,-988,61,0,3957.0,3946.0,-1002.0,-1010.0,70.0,78.0
3969,-977,60,0,3963.0,3957.0,-988.0,-1002.0,61.0,70.0
3976,-963,59,0,3969.0,3963.0,-977.0,-988.0,60.0,61.0
3989,-950,70,0,3976.0,3969.0,-963.0,-977.0,59.0,60.0
3994,-933,81,0,3989.0,3976.0,-950.0,-963.0,70.0,59.0
4000,-910,91,0,3994.0,3989.0,-933.0,-950.0,81.0,70.0
4004,-881,96,0,4000.0,3994.0,-910.0,-933.0,91.0,81.0
4002,-856,110,0,4004.0,4000.0,-881.0,-910.0,96.0,91.0
4001,-829,120,0,4002.0,4004.0,-856.0,-881.0,110.0,96.0
3995,-806,130,0,4001.0,4002.0,-829.0,-856.0,120.0,110.0
3989,-788,133,0,3995.0,4001.0,-806.0,-829.0,130.0,120.0
3985,-776,129,0,3989.0,3995.0,-788.0,-806.0,133.0,130.0
3982,-773,126,0,3985.0,3989.0,-776.0,-788.0,129.0,133.0
3981,-768,126,0,3982.0,3985.0,-773.0,-776.0,126.0,129.0
3983,-770,128,0,3981.0,3982.0,-768.0,-773.0,126.0,126.0
3988,-774,131,0,3983.0,3981.0,-770.0,-768.0,128.0,126.0
3992,-780,140,0,3988.0,3983.0,-774.0,-770.0,131.0,128.0
3999,-783,142,0,3992.0,3988.0,-780.0,-774.0,140.0,131.0
4003,-786,146,0,3999.0,3992.0,-783.0,-780.0,142.0,140.0
4009,-785,152,0,4003.0,3999.0,-786.0,-783.0,146.0,142.0
4015,-786,157,0,4009.0,4003.0,-785.0,-786.0,152.0,146.0
4021,-786,161,0,4015.0,4009.0,-786.0,-785.0,157.0,152.0
4023,-792,166,0,4021.0,4015.0,-786.0,-786.0,161.0,157.0
4024,-794,170,0,4023.0,4021.0,-792.0,-786.0,166.0,161.0
4023,-792,178,0,4024.0,4023.0,-794.0,-792.0,170.0,166.0
4023,-799,186,0,4023.0,4024.0,-792.0,-794.0,178.0,170.0
4020,-802,196,0,4023.0,4023.0,-799.0,-792.0,186.0,178.0
4019,-808,204,0,4020.0,4023.0,-802.0,-799.0,196.0,186.0
4015,-817,210,0,4019.0,4020.0,-808.0,-802.0,204.0,196.0
4007,-825,207,0,4015.0,4019.0,-817.0,-808.0,210.0,204.0
3998,-836,208,0,4007.0,4015.0,-825.0,-817.0,207.0,210.0
3989,-848,213,0,3998.0,4007.0,-836.0,-825.0,208.0,207.0
3987,-858,213,0,3989.0,3998.0,-848.0,-836.0,213.0,208.0
3981,-869,218,0,3987.0,3989.0,-858.0,-848.0,213.0,213.0
3982,-878,223,0,3981.0,3987.0,-869.0,-858.0,218.0,213.0
3982,-887,231,0,3982.0,3981.0,-878.0,-869.0,223.0,218.0
3981,-891,237,0,3982.0,3982.0,-887.0,-878.0,231.0,223.0
3977,-887,244,0,3981.0,3982.0,-891.0,-887.0,237.0,231.0
3977,-883,253,0,3977.0,3981.0,-887.0,-891.0,244.0,237.0
3975,-881,257,0,3977.0,3977.0,-883.0,-887.0,253.0,244.0
3971,-874,263,0,3975.0,3977.0,-881.0,-883.0,257.0,253.0
3970,-864,271,0,3971.0,3975.0,-874.0,-881.0,263.0,257.0
3966,-853,275,0,3970.0,3971.0,-864.0,-874.0,271.0,263.0
3959,-839,283,0,3966.0,3970.0,-853.0,-864.0,275.0,271.0
3952,-831,288,0,3959.0,3966.0,-839.0,-853.0,283.0,275.0
3942,-817,287,0,3952.0,3959.0,-831.0,-839.0,288.0,283.0
3932,-806,284,0,3942.0,3952.0,-817.0,-831.0,287.0,288.0
3926,-802,274,0,3932.0,3942.0,-806.0,-817.0,284.0,287.0
3926,-804,261,0,3926.0,3932.0,-802.0,-806.0,274.0,284.0
3934,-808,251,0,3926.0,3926.0,-804.0,-802.0,261.0,274.0
3944,-808,239,0,3934.0,3926.0,-808.0,-804.0,251.0,261.0
3964,-811,234,0,3944.0,3934.0,-808.0,-808.0,239.0,251.0
3986,-820,222,0,3964.0,3944.0,-811.0,-808.0,234.0,239.0
4005,-825,214,0,3986.0,3964.0,-820.0,-811.0,222.0,234.0
4020,-832,202,0,4005.0,3986.0,-825.0,-820.0,214.0,222.0
4038,-836,197,0,4020.0,4005.0,-832.0,-825.0,202.0,214.0
4054,-839,187,0,4038.0,4020.0,-836.0,-832.0,197.0,202.0
4058,-841,178,0,4054.0,4038.0,-839.0,-836.0,187.0,197.0
4055,-845,168,0,4058.0,4054.0,-841.0,-839.0,178.0,187.0
4050,-850,163,0,4055.0,4058.0,-845.0,-841.0,168.0,178.0
4043,-850,166,0,4050.0,4055.0,-850.0,-845.0,163.0,168.0
4039,-853,167,0,4043.0,4050.0,-850.0,-850.0,166.0,163.0
4032,-857,166,0,4039.0,4043.0,-853.0,-850.0,167.0,166.0
4022,-861,163,0,4032.0,4039.0,-857.0,-853.0,166.0,167.0
4016,-868,160,0,4022.0,4032.0,-861.0,-857.0,163.0,166.0
4015,-876,161,0,4016.0,4022.0,-868.0,-861.0,160.0,163.0
4014,-878,166,0,4015.0,4016.0,-876.0,-868.0,161.0,160.0
4018,-884,172,0,4014.0,4015.0,-878.0,-876.0,166.0,161.0
4022,-887,174,0,4018.0,4014.0,-884.0,-878.0,172.0,166.0
4027,-887,179,0,4022.0,4018.0,-887.0,-884.0,174.0,172.0
4033,-891,181,0,4027.0,4022.0,-887.0,-887.0,179.0,174.0
4039,-891,183,0,4033.0,4027.0,-891.0,-887.0,181.0,179.0
4048,-893,192,0,4039.0,4033.0,-891.0,-891.0,183.0,181.0
4051,-895,186,0,4048.0,4039.0,-893.0,-891.0,192.0,183.0
4048,-896,178,0,4051.0,4048.0,-895.0,-893.0,186.0,192.0
4040,-894,173,0,4048.0,4051.0,-896.0,-895.0,178.0,186.0
4039,-892,167,0,4040.0,4048.0,-894.0,-896.0,173.0,178.0
4028,-887,161,0,4039.0,4040.0,-892.0,-894.0,167.0,173.0
4015,-878,148,0,4028.0,4039.0,-887.0,-892.0,161.0,167.0
4001,-868,141,0,4015.0,4028.0,-878.0,-887.0,148.0,161.0
3994,-855,135,0,4001.0,4015.0,-868.0,-878.0,141.0,148.0
3981,-841,135,0,3994.0,4001.0,-855.0,-868.0,135.0,141.0
3974,-832,138,0,3981.0,3994.0,-841.0,-855.0,135.0,135.0
3975,-820,134,0,3974.0,3981.0,-832.0,-841.0,138.0,135.0
3974,-812,129,0,3975.0,3974.0,-820.0,-832.0,134.0,138.0
3973,-810,123,0,3974.0,3975.0,-812.0,-820.0,129.0,134.0
3970,-807,124,0,3973.0,3974.0,-810.0,-812.0,123.0,129.0
3966,-814,119,0,3970.0,3973.0,-807.0,-810.0,124.0,123.0
3965,-820,116,0,3966.0,3970.0,-814.0,-807.0,119.0,124.0
3964,-829,114,0,3965.0,3966.0,-820.0,-814.0,116.0,119.0
3968,-839,109,0,3964.0,3965.0,-829.0,-820.0,114.0,116.0
3973,-853,105,0,3968.0,3964.0,-839.0,-829.0,109.0,114.0
3977,-862,101,0,3973.0,3968.0,-853.0,-839.0,105.0,109.0
3980,-874,96,0,3977.0,3973.0,-862.0,-853.0,101.0,105.0
3981,-884,98,0,3980.0,3977.0,-874.0,-862.0,96.0,101.0
3983,-895,104,0,3981.0,3980.0,-884.0,-874.0,98.0,96.0
3988,-905,112,0,3983.0,3981.0,-895.0,-884.0,104.0,98.0
3990,-913,123,0,3988.0,3983.0,-905.0,-895.0,112.0,104.0
3995,-922,138,0,3990.0,3988.0,-913.0,-905.0,123.0,112.0
3997,-930,161,0,3995.0,3990.0,-922.0,-913.0,138.0,123.0
3992,-933,169,0,3997.0,3995.0,-930.0,-922.0,161.0,138.0
3979,-936,163,0,3992.0,3997.0,-933.0,-930.0,169.0,161.0
3964,-942,141,0,3979.0,3992.0,-936.0,-933.0,163.0,169.0
3947,-950,118,0,3964.0,3979.0,-942.0,-936.0,141.0,163.0
3934,-950,105,0,3947.0,3964.0,-950.0,-942.0,118.0,141.0
3928,-948,98,0,3934.0,3947.0,-950.0,-950.0,105.0,118.0
3929,-947,101,0,3928.0,3934.0,-948.0,-950.0,98.0,105.0
3938,-943,105,0,3929.0,3928.0,-947.0,-948.0,101.0,98.0
3947,-940,104,0,3938.0,3929.0,-943.0,-947.0,105.0,101.0
3954,-941,98,0,3947.0,3938.0,-940.0,-943.0,104.0,105.0
3964,-945,92,0,3954.0,3947.0,-941.0,-940.0,98.0,104.0
3974,-946,87,0,3964.0,3954.0,-945.0,-941.0,92.0,98.0
3975,-943,88,0,3974.0,3964.0,-946.0,-945.0,87.0,92.0
3980,-945,92,0,3975.0,3974.0,-943.0,-946.0,88.0,87.0
3988,-941,101,0,3980.0,3975.0,-945.0,-943.0,92.0,88.0
3987,-938,108,0,3988.0,3980.0,-941.0,-945.0,101.0,92.0
3987,-935,116,0,3987.0,3988.0,-938.0,-941.0,108.0,101.0
3986,-929,124,0,3987.0,3987.0,-935.0,-938.0,116.0,108.0
3980,-920,129,0,3986.0,3987.0,-929.0,-935.0,124.0,116.0
3971,-913,134,0,3980.0,3986.0,-920.0,-929.0,129.0,124.0
3961,-904,142,0,3971.0,3980.0,-913.0,-920.0,134.0,129.0
3957,-896,145,0,3961.0,3971.0,-904.0,-913.0,142.0,134.0
3953,-893,149,0,3957.0,3961.0,-896.0,-904.0,145.0,142.0
3947,-889,157,0,3953.0,3957.0,-893.0,-896.0,149.0,145.0
3948,-887,161,0,3947.0,3953.0,-889.0,-893.0,157.0,149.0
3952,-887,169,0,3948.0,3947.0,-887.0,-889.0,161.0,157.0
3955,-888,174,0,3952.0,3948.0,-887.0,-887.0,169.0,161.0
3962,-884,178,0,3955.0,3952.0,-888.0,-887.0,174.0,169.0
3967,-884,179,0,3962.0,3955.0,-884.0,-888.0,178.0,174.0
3973,-888,182,0,3967.0,3962.0,-884.0,-884.0,179.0,178.0
3983,-887,185,0,3973.0,3967.0,-888.0,-884.0,182.0,179.0
3989,-879,179,0,3983.0,3973.0,-887.0,-888.0,185.0,182.0
3999,-874,176,0,3989.0,3983.0,-879.0,-887.0,179.0,185.0
4004,-872,178,0,3999.0,3989.0,-874.0,-879.0,176.0,179.0
4008,-870,185,0,4004.0,3999.0,-872.0,-874.0,178.0,176.0
4010,-865,193,0,4008.0,4004.0,-870.0,-872.0,185.0,178.0
4018,-859,197,0,4010.0,4008.0,-865.0,-870.0,193.0,185.0
4016,-857,199,0,4018.0,4010.0,-859.0,-865.0,197.0,193.0
4009,-862,198,0,4016.0,4018.0,-857.0,-859.0,199.0,197.0
4004,-872,198,0,4009.0,4016.0,-862.0,-857.0,198.0,199.0
4000,-878,200,0,4004.0,4009.0,-872.0,-862.0,198.0,198.0
3990,-877,205,0,4000.0,4004.0,-878.0,-872.0,200.0,198.0
3984,-884,210,0,3990.0,4000.0,-877.0,-878.0,205.0,200.0
3980,-888,211,0,3984.0,3990.0,-884.0,-877.0,210.0,205.0
3980,-893,212,0,3980.0,3984.0,-888.0,-884.0,211.0,210.0
3981,-904,213,0,3980.0,3980.0,-893.0,-888.0,212.0,211.0
3976,-913,217,0,3981.0,3980.0,-904.0,-893.0,213.0,212.0
3975,-926,218,0,3976.0,3981.0,-913.0,-904.0,217.0,213.0
3976,-935,216,0,3975.0,3976.0,-926.0,-913.0,218.0,217.0
3972,-941,213,0,3976.0,3975.0,-935.0,-926.0,216.0,218.0
3961,-946,211,0,3972.0,3976.0,-941.0,-935.0,213.0,216.0
3957,-956,212,0,3961.0,3972.0,-946.0,-941.0,211.0,213.0
3948,-963,215,0,3957.0,3961.0,-956.0,-946.0,212.0,211.0
3936,-966,219,0,3948.0,3957.0,-963.0,-956.0,215.0,212.0
3930,-970,224,0,3936.0,3948.0,-966.0,-963.0,219.0,215.0
3928,-978,224,0,3930.0,3936.0,-970.0,-966.0,224.0,219.0
3926,-981,223,0,3928.0,3930.0,-978.0,-970.0,224.0,224.0
3927,-987,222,0,3926.0,3928.0,-981.0,-978.0,223.0,224.0
3924,-992,219,0,3927.0,3926.0,-987.0,-981.0,222.0,223.0
3931,-995,217,0,3924.0,3927.0,-992.0,-987.0,219.0,222.0
3942,-996,219,0,3931.0,3924.0,-995.0,-992.0,217.0,219.0
3952,-999,222,0,3942.0,3931.0,-996.0,-995.0,219.0,217.0
3962,-996,219,0,3952.0,3942.0,-999.0,-996.0,222.0,219.0
3978,-997,218,0,3962.0,3952.0,-996.0,-999.0,219.0,222.0
3987,-997,216,0,3978.0,3962.0,-997.0,-996.0,218.0,219.0
3996,-996,216,0,3987.0,3978.0,-997.0,-997.0,216.0,218.0
4004,-993,215,0,3996.0,3987.0,-996.0,-997.0,216.0,216.0
4006,-990,218,0,4004.0,3996.0,-993.0,-996.0,215.0,216.0
4005,-987,219,0,4006.0,4004.0,-990.0,-993.0,218.0,215.0
4000,-984,224,0,4005.0,4006.0,-987.0,-990.0,219.0,218.0
3991,-971,229,0,4000.0,4005.0,-984.0,-987.0,224.0,219.0
3984,-958,233,0,3991.0,4000.0,-971.0,-984.0,229.0,224.0
3978,-947,244,0,3984.0,3991.0,-958.0,-971.0,233.0,229.0
3976,-936,251,0,3978.0,3984.0,-947.0,-958.0,244.0,233.0
3971,-920,251,0,3976.0,3978.0,-936.0,-947.0,251.0,244.0
3966,-910,257,0,3971.0,3976.0,-920.0,-936.0,251.0,251.0
3965,-903,261,0,3966.0,3971.0,-910.0,-920.0,257.0,251.0
3960,-897,259,0,3965.0,3966.0,-903.0,-910.0,261.0,257.0
3961,-897,257,0,3960.0,3965.0,-897.0,-903.0,259.0,261.0
3960,-895,254,0,3961.0,3960.0,-897.0,-897.0,257.0,259.0
3959,-895,252,0,3960.0,3961.0,-895.0,-897.0,254.0,257.0
3967,-895,256,0,3959.0,3960.0,-895.0,-895.0,252.0,254.0
3969,-894,252,0,3967.0,3959.0,-895.0,-895.0,256.0,252.0
3977,-896,247,0,3969.0,3967.0,-894.0,-895.0,252.0,256.0
3982,-897,245,0,3977.0,3969.0,-896.0,-894.0,247.0,252.0
3987,-896,242,0,3982.0,3977.0,-897.0,-896.0,245.0,247.0
4000,-893,237,0,3987.0,3982.0,-896.0,-897.0,242.0,245.0
4007,-892,228,0,4000.0,3987.0,-893.0,-896.0,237.0,242.0
4010,-888,222,0,4007.0,4000.0,-892.0,-893.0,228.0,237.0
4008,-881,220,0,4010.0,4007.0,-888.0,-892.0,222.0,228.0
4005,-878,227,0,4008.0,4010.0,-881.0,-888.0,220.0,222.0
4005,-870,229,0,4005.0,4008.0,-878.0,-881.0,227.0,220.0
3999,-867,226,0,4005.0,4005.0,-870.0,-878.0,229.0,227.0
3996,-866,230,0,3999.0,4005.0,-867.0,-870.0,226.0,229.0
3994,-860,227,0,3996.0,3999.0,-866.0,-867.0,230.0,226.0
3992,-855,228,0,3994.0,3996.0,-860.0,-866.0,227.0,230.0
3988,-853,227,0,3992.0,3994.0,-855.0,-860.0,228.0,227.0
3992,-856,222,0,3988.0,3992.0,-853.0,-855.0,227.0,228.0
3996,-860,215,0,3992.0,3988.0,-856.0,-853.0,222.0,227.0
4000,-867,216,0,3996.0,3992.0,-860.0,-856.0,215.0,222.0
4002,-868,218,0,4000.0,3996.0,-867.0,-860.0,216.0,215.0
4002,-871,218,0,4002.0,4000.0,-868.0,-867.0,218.0,216.0
4004,-880,218,0,4002.0,4002.0,-871.0,-868.0,218.0,218.0
3997,-890,220,0,4004.0,4002.0,-880.0,-871.0,218.0,218.0
3985,-902,216,0,3997.0,4004.0,-890.0,-880.0,220.0,218.0
3979,-910,214,0,3985.0,3997.0,-902.0,-890.0,216.0,220.0
3969,-919,211,0,3979.0,3985.0,-910.0,-902.0,214.0,216.0
3963,-930,215,0,3969.0,3979.0,-919.0,-910.0,211.0,214.0
3959,-942,218,0,3963.0,3969.0,-930.0,-919.0,215.0,211.0
3960,-954,223,0,3959.0,3963.0,-942.0,-930.0,218.0,215.0
3959,-967,226,0,3960.0,3959.0,-954.0,-942.0,223.0,218.0
3967,-978,228,0,3959.0,3960.0,-967.0,-954.0,226.0,223.0
3972,-983,236,0,3967.0,3959.0,-978.0,-967.0,228.0,226.0
3978,-987,247,0,3972.0,3967.0,-983.0,-978.0,236.0,228.0
3982,-992,250,0,3978.0,3972.0,-987.0,-983.0,247.0,236.0
3986,-999,238,0,3982.0,3978.0,-992.0,-987.0,250.0,247.0
3982,-1006,227,0,3986.0,3982.0,-999.0,-992.0,238.0,250.0
3975,-1013,215,0,3982.0,3986.0,-1006.0,-999.0,227.0,238.0
3972,-1008,204,0,3975.0,3982.0,-1013.0,-1006.0,215.0,227.0
3962,-998,200,0,3972.0,3975.0,-1008.0,-1013.0,204.0,215.0
3957,-990,198,0,3962.0,3972.0,-998.0,-1008.0,200.0,204.0
3957,-984,201,0,3957.0,3962.0,-990.0,-998.0,198.0,200.0
3956,-976,204,0,3957.0,3957.0,-984.0,-990.0,201.0,198.0
3951,-969,207,0,3956.0,3957.0,-976.0,-984.0,204.0,201.0
3949,-964,206,0,3951.0,3956.0,-969.0,-976.0,207.0,204.0
3951,-960,199,0,3949.0,3951.0,-964.0,-969.0,206.0,207.0
3947,-964,184,0,3951.0,3949.0,-960.0,-964.0,199.0,206.0
3941,-969,176,0,3947.0,3951.0,-964.0,-960.0,184.0,199.0
3938,-968,171,0,3941.0,3947.0,-969.0,-964.0,176.0,184.0
3939,-969,169,0,3938.0,3941.0,-968.0,-969.0,171.0,176.0
3944,-969,165,0,3939.0,3938.0,-969.0,-968.0,169.0,171.0
3947,-968,165,0,3944.0,3939.0,-969.0,-969.0,165.0,169.0
3949,-961,162,0,3947.0,3944.0,-968.0,-969.0,165.0,165.0
3951,-963,159,0,3949.0,3947.0,-961.0,-968.0,162.0,165.0
3954,-963,147,0,3951.0,3949.0,-963.0,-961.0,159.0,162.0
3955,-962,139,0,3954.0,3951.0,-963.0,-963.0,147.0,159.0
3953,-966,130,0,3955.0,3954.0,-962.0,-963.0,139.0,147.0
3949,-960,124,0,3953.0,3955.0,-966.0,-962.0,130.0,139.0
3945,-964,120,0,3949.0,3953.0,-960.0,-966.0,124.0,130.0
3944,-967,118,0,3945.0,3949.0,-964.0,-960.0,120.0,124.0
3936,-970,117,0,3944.0,3945.0,-967.0,-964.0,118.0,120.0
3931,-973,120,0,3936.0,3944.0,-970.0,-967.0,117.0,118.0
3923,-979,124,0,3931.0,3936.0,-973.0,-970.0,120.0,117.0
3915,-985,128,0,3923.0,3931.0,-979.0,-973.0,124.0,120.0
3909,-993,131,0,3915.0,3923.0,-985.0,-979.0,128.0,124.0
3904,-997,135,0,3909.0,3915.0,-993.0,-985.0,131.0,128.0
3900,-1005,137,0,3904.0,3909.0,-997.0,-993.0,135.0,131.0
3899,-1014,143,0,3900.0,3904.0,-1005.0,-997.0,137.0,135.0
3898,-1026,148,0,3899.0,3900.0,-1014.0,-1005.0,143.0,137.0
3901,-1038,153,0,3898.0,3899.0,-1026.0,-1014.0,148.0,143.0
3909,-1044,160,0,3901.0,3898.0,-1038.0,-1026.0,153.0,148.0
3912,-1050,161,0,3909.0,3901.0,-1044.0,-1038.0,160.0,153.0
3915,-1055,167,0,3912.0,3909.0,-1050.0,-1044.0,161.0,160.0
3925,-1059,175,0,3915.0,3912.0,-1055.0,-1050.0,167.0,161.0
3930,-1059,182,0,3925.0,3915.0,-1059.0,-1055.0,175.0,167.0
3937,-1056,188,0,3930.0,3925.0,-1059.0,-1059.0,182.0,175.0
3943,-1049,193,0,3937.0,3930.0,-1056.0,-1059.0,188.0,182.0
3945,-1039,200,0,3943.0,3937.0,-1049.0,-1056.0,193.0,188.0
3947,-1023,202,0,3945.0,3943.0,-1039.0,-1049.0,200.0,193.0
3948,-1005,200,0,3947.0,3945.0,-1023.0,-1039.0,202.0,200.0
3948,-990,196,0,3948.0,3947.0,-1005.0,-1023.0,200.0,202.0
3944,-972,188,0,3948.0,3948.0,-990.0,-1005.0,196.0,200.0
3947,-956,184,0,3944.0,3948.0,-972.0,-990.0,188.0,196.0
3949,-939,177,0,3947.0,3944.0,-956.0,-972.0,184.0,188.0
3953,-928,173,0,3949.0,3947.0,-939.0,-956.0,177.0,184.0
3952,-919,172,0,3953.0,3949.0,-928.0,-939.0,173.0,177.0
3958,-916,168,0,3952.0,3953.0,-919.0,-928.0,172.0,173.0
3969,-910,167,0,3958.0,3952.0,-916.0,-919.0,168.0,172.0
3975,-908,165,0,3969.0,3958.0,-910.0,-916.0,167.0,168.0
3984,-906,167,0,3975.0,3969.0,-908.0,-910.0,165.0,167.0
3992,-903,160,0,3984.0,3975.0,-906.0,-908.0,167.0,165.0
4000,-902,159,0,3992.0,3984.0,-903.0,-906.0,160.0,167.0
4007,-902,158,0,4000.0,3992.0,-902.0,-903.0,159.0,160.0
4015,-905,160,0,4007.0,4000.0,-902.0,-902.0,158.0,159.0
4019,-904,163,0,4015.0,4007.0,-905.0,-902.0,160.0,158.0
4021,-904,164,0,4019.0,4015.0,-904.0,-905.0,163.0,160.0
4028,-905,166,0,4021.0,4019.0,-904.0,-904.0,164.0,163.0
4031,-901,168,0,4028.0,4021.0,-905.0,-904.0,166.0,164.0
4035,-897,171,0,4031.0,4028.0,-901.0,-905.0,168.0,166.0
4037,-891,176,0,4035.0,4031.0,-897.0,-901.0,171.0,168.0
4037,-888,181,0,4037.0,4035.0,-891.0,-897.0,176.0,171.0
4038,-885,182,0,4037.0,4037.0,-888.0,-891.0,181.0,176.0
4036,-881,189,0,4038.0,4037.0,-885.0,-888.0,182.0,181.0
4027,-875,192,0,4036.0,4038.0,-881.0,-885.0,189.0,182.0
4021,-872,194,0,4027.0,4036.0,-875.0,-881.0,192.0,189.0
4015,-871,197,0,4021.0,4027.0,-872.0,-875.0,194.0,192.0
4011,-869,201,0,4015.0,4021.0,-871.0,-872.0,197.0,194.0
4005,-864,203,0,4011.0,4015.0,-869.0,-871.0,201.0,197.0
3994,-862,207,0,4005.0,4011.0,-864.0,-869.0,203.0,201.0
3986,-864,206,0,3994.0,4005.0,-862.0,-864.0,207.0,203.0
3984,-863,206,0,3986.0,3994.0,-864.0,-862.0,206.0,207.0
3982,-865,200,0,3984.0,3986.0,-863.0,-864.0,206.0,206.0
3978,-867,199,0,3982.0,3984.0,-865.0,-863.0,200.0,206.0
3979,-863,192,0,3978.0,3982.0,-867.0,-865.0,199.0,200.0
3986,-863,193,0,3979.0,3978.0,-863.0,-867.0,192.0,199.0
3988,-857,192,0,3986.0,3979.0,-863.0,-863.0,193.0,192.0
3992,-856,192,0,3988.0,3986.0,-857.0,-863.0,192.0,193.0
4003,-850,190,0,3992.0,3988.0,-856.0,-857.0,192.0,192.0
4009,-850,190,0,4003.0,3992.0,-850.0,-856.0,190.0,192.0
4019,-850,184,0,4009.0,4003.0,-850.0,-850.0,190.0,190.0
4031,-850,179,0,4019.0,4009.0,-850.0,-850.0,184.0,190.0
4037,-849,169,0,4031.0,4019.0,-850.0,-850.0,179.0,184.0
4039,-850,161,0,4037.0,4031.0,-849.0,-850.0,169.0,179.0
4041,-858,154,0,4039.0,4037.0,-850.0,-849.0,161.0,169.0
4044,-860,154,0,4041.0,4039.0,-858.0,-850.0,154.0,161.0
4042,-863,156,0,4044.0,4041.0,-860.0,-858.0,154.0,154.0
4041,-864,156,0,4042.0,4044.0,-863.0,-860.0,156.0,154.0
4035,-865,157,0,4041.0,4042.0,-864.0,-863.0,156.0,156.0
4026,-866,155,0,4035.0,4041.0,-865.0,-864.0,157.0,156.0
4020,-866,152,0,4026.0,4035.0,-866.0,-865.0,155.0,157.0
4011,-864,154,0,4020.0,4026.0,-866.0,-866.0,152.0,155.0
3998,-864,155,0,4011.0,4020.0,-864.0,-866.0,154.0,152.0
3984,-862,158,0,3998.0,4011.0,-864.0,-864.0,155.0,154.0
3969,-857,166,0,3984.0,3998.0,-862.0,-864.0,158.0,155.0
3961,-857,180,0,3969.0,3984.0,-857.0,-862.0,166.0,158.0
3956,-854,192,0,3961.0,3969.0,-857.0,-857.0,180.0,166.0
3949,-852,200,0,3956.0,3961.0,-854.0,-857.0,192.0,180.0
3947,-857,200,0,3949.0,3956.0,-852.0,-854.0,200.0,192.0
3946,-865,193,0,3947.0,3949.0,-857.0,-852.0,200.0,200.0
3948,-872,185,0,3946.0,3947.0,-865.0,-857.0,193.0,200.0
3950,-883,176,0,3948.0,3946.0,-872.0,-865.0,185.0,193.0
3952,-890,171,0,3950.0,3948.0,-883.0,-872.0,176.0,185.0
3955,-896,169,0,3952.0,3950.0,-890.0,-883.0,171.0,176.0
3963,-904,170,0,3955.0,3952.0,-896.0,-890.0,169.0,171.0
3967,-913,170,0,3963.0,3955.0,-904.0,-896.0,170.0,169.0
3967,-921,165,0,3967.0,3963.0,-913.0,-904.0,170.0,170.0
3974,-925,162,0,3967.0,3967.0,-921.0,-913.0,165.0,170.0
3980,-927,162,0,3974.0,3967.0,-925.0,-921.0,162.0,165.0
3988,-926,167,0,3980.0,3974.0,-927.0,-925.0,162.0,162.0
3990,-928,165,0,3988.0,3980.0,-926.0,-927.0,167.0,162.0
3984,-934,150,0,3990.0,3988.0,-928.0,-926.0,165.0,167.0
3980,-945,134,0,3984.0,3990.0,-934.0,-928.0,150.0,165.0
3980,-961,118,0,3980.0,3984.0,-945.0,-934.0,134.0,150.0
3977,-968,112,0,3980.0,3980.0,-961.0,-945.0,118.0,134.0
3983,-975,109,0,3977.0,3980.0,-968.0,-961.0,112.0,118.0
3987,-977,108,0,3983.0,3977.0,-975.0,-968.0,109.0,112.0
3990,-976,110,0,3987.0,3983.0,-977.0,-975.0,108.0,109.0
3990,-977,114,0,3990.0,3987.0,-976.0,-977.0,110.0,108.0
3992,-976,115,0,3990.0,3990.0,-977.0,-976.0,114.0,110.0
3991,-974,116,0,3992.0,3990.0,-976.0,-977.0,115.0,114.0
3987,-969,111,0,3991.0,3992.0,-974.0,-976.0,116.0,115.0
3982,-963,110,0,3987.0,3991.0,-969.0,-974.0,111.0,116.0
3977,-951,111,0,3982.0,3987.0,-963.0,-969.0,110.0,111.0
3971,-943,108,0,3977.0,3982.0,-951.0,-963.0,111.0,110.0
3967,-935,109,0,3971.0,3977.0,-943.0,-951.0,108.0,111.0
3967,-925,108,0,3967.0,3971.0,-935.0,-943.0,109.0,108.0
3974,-920,108,0,3967.0,3967.0,-925.0,-935.0,108.0,109.0
3979,-912,103,0,3974.0,3967.0,-920.0,-925.0,108.0,108.0
3989,-904,96,0,3979.0,3974.0,-912.0,-920.0,103.0,108.0
3992,-896,86,0,3989.0,3979.0,-904.0,-912.0,96.0,103.0
3999,-889,83,0,3992.0,3989.0,-896.0,-904.0,86.0,96.0
4003,-880,75,0,3999.0,3992.0,-889.0,-896.0,83.0,86.0
4008,-875,69,0,4003.0,3999.0,-880.0,-889.0,75.0,83.0
4011,-868,68,0,4008.0,4003.0,-875.0,-880.0,69.0,75.0
4010,-861,70,0,4011.0,4008.0,-868.0,-875.0,68.0,69.0
4011,-853,70,0,4010.0,4011.0,-861.0,-868.0,70.0,68.0
4010,-850,71,0,4011.0,4010.0,-853.0,-861.0,70.0,70.0
4005,-845,75,0,4010.0,4011.0,-850.0,-853.0,71.0,70.0
4004,-841,75,0,4005.0,4010.0,-845.0,-850.0,75.0,71.0
4000,-838,77,0,4004.0,4005.0,-841.0,-845.0,75.0,75.0
3999,-839,78,0,4000.0,4004.0,-838.0,-841.0,77.0,75.0
4003,-838,81,0,3999.0,4000.0,-839.0,-838.0,78.0,77.0
4006,-836,78,0,4003.0,3999.0,-838.0,-839.0,81.0,78.0
4008,-828,78,0,4006.0,4003.0,-836.0,-838.0,78.0,81.0
4011,-826,75,0,4008.0,4006.0,-828.0,-836.0,78.0,78.0
4016,-826,73,0,4011.0,4008.0,-826.0,-828.0,75.0,78.0
4020,-823,71,0,4016.0,4011.0,-826.0,-826.0,73.0,75.0
4023,-825,72,0,4020.0,4016.0,-823.0,-826.0,71.0,73.0
4019,-819,73,0,4023.0,4020.0,-825.0,-823.0,72.0,71.0
4017,-818,75,0,4019.0,4023.0,-819.0,-825.0,73.0,72.0
4015,-814,77,0,4017.0,4019.0,-818.0,-819.0,75.0,73.0
4014,-808,83,0,4015.0,4017.0,-814.0,-818.0,77.0,75.0
4014,-805,89,0,4014.0,4015.0,-808.0,-814.0,83.0,77.0
4008,-805,96,0,4014.0,4014.0,-805.0,-808.0,89.0,83.0
4006,-806,101,0,4008.0,4014.0,-805.0,-805.0,96.0,89.0
4004,-808,106,0,4006.0,4008.0,-806.0,-805.0,101.0,96.0
4000,-812,109,0,4004.0,4006.0,-808.0,-806.0,106.0,101.0
4000,-817,113,0,4000.0,4004.0,-812.0,-808.0,109.0,106.0
3998,-826,117,0,4000.0,4000.0,-817.0,-812.0,113.0,109.0
3994,-830,116,0,3998.0,4000.0,-826.0,-817.0,117.0,113.0
3988,-843,122,0,3994.0,3998.0,-830.0,-826.0,116.0,117.0
3979,-851,126,0,3988.0,3994.0,-843.0,-830.0,122.0,116.0
3974,-864,128,0,3979.0,3988.0,-851.0,-843.0,126.0,122.0
3969,-873,130,0,3974.0,3979.0,-864.0,-851.0,128.0,126.0
3963,-882,131,0,3969.0,3974.0,-873.0,-864.0,130.0,128.0
3959,-891,132,0,3963.0,3969.0,-882.0,-873.0,131.0,130.0
3957,-905,132,0,3959.0,3963.0,-891.0,-882.0,132.0,131.0
3958,-919,132,0,3957.0,3959.0,-905.0,-891.0,132.0,132.0
3956,-931,132,0,3958.0,3957.0,-919.0,-905.0,132.0,132.0
3957,-942,130,0,3956.0,3958.0,-931.0,-919.0,132.0,132.0
3965,-954,128,0,3957.0,3956.0,-942.0,-931.0,130.0,132.0
3964,-964,124,0,3965.0,3957.0,-954.0,-942.0,128.0,130.0
3965,-967,117,0,3964.0,3965.0,-964.0,-954.0,124.0,128.0
3970,-970,114,0,3965.0,3964.0,-967.0,-964.0,117.0,124.0
3972,-968,105,0,3970.0,3965.0,-970.0,-967.0,114.0,117.0
3978,-964,108,0,3972.0,3970.0,-968.0,-970.0,105.0,114.0
3979,-964,105,0,3978.0,3972.0,-964.0,-968.0,108.0,105.0
3979,-963,108,0,3979.0,3978.0,-964.0,-964.0,105.0,108.0
3986,-965,111,0,3979.0,3979.0,-963.0,-964.0,108.0,105.0
3993,-961,113,0,3986.0,3979.0,-965.0,-963.0,111.0,108.0
3998,-963,116,0,3993.0,3986.0,-961.0,-965.0,113.0,111.0
3996,-961,115,0,3998.0,3993.0,-963.0,-961.0,116.0,113.0
3996,-959,111,0,3996.0,3998.0,-961.0,-963.0,115.0,116.0
3995,-956,107,0,3996.0,3996.0,-959.0,-961.0,111.0,115.0
3997,-949,105,0,3995.0,3996.0,-956.0,-959.0,107.0,111.0
3995,-943,103,0,3997.0,3995.0,-949.0,-956.0,105.0,107.0
3993,-939,102,0,3995.0,3997.0,-943.0,-949.0,103.0,105.0
3988,-934,104,0,3993.0,3995.0,-939.0,-943.0,102.0,103.0
3988,-927,103,0,3988.0,3993.0,-934.0,-939.0,104.0,102.0
3985,-918,106,0,3988.0,3988.0,-927.0,-934.0,103.0,104.0
3983,-918,107,0,3985.0,3988.0,-918.0,-927.0,106.0,103.0
3981,-914,111,0,3983.0,3985.0,-918.0,-918.0,107.0,106.0
3979,-911,114,0,3981.0,3983.0,-914.0,-918.0,111.0,107.0
3979,-907,114,0,3979.0,3981.0,-911.0,-914.0,114.0,111.0
3979,-903,112,0,3979.0,3979.0,-907.0,-911.0,114.0,114.0
3979,-905,112,0,3979.0,3979.0,-903.0,-907.0,112.0,114.0
3985,-901,107,0,3979.0,3979.0,-905.0,-903.0,112.0,112.0
3992,-899,105,0,3985.0,3979.0,-901.0,-905.0,107.0,112.0
3995,-899,97,0,3992.0,3985.0,-899.0,-901.0,105.0,107.0
3996,-898,95,0,3995.0,3992.0,-899.0,-899.0,97.0,105.0
4001,-896,88,0,3996.0,3995.0,-898.0,-899.0,95.0,97.0
4006,-888,87,0,4001.0,3996.0,-896.0,-898.0,88.0,95.0
4011,-882,85,0,4006.0,4001.0,-888.0,-896.0,87.0,88.0
4011,-876,85,0,4011.0,4006.0,-882.0,-888.0,85.0,87.0
4008,-874,85,0,4011.0,4011.0,-876.0,-882.0,85.0,85.0
4009,-871,85,0,4008.0,4011.0,-874.0,-876.0,85.0,85.0
4012,-869,84,0,4009.0,4008.0,-871.0,-874.0,85.0,85.0
4010,-866,83,0,4012.0,4009.0,-869.0,-871.0,84.0,85.0
4008,-868,81,0,4010.0,4012.0,-866.0,-869.0,83.0,84.0
4011,-867,77,0,4008.0,4010.0,-868.0,-866.0,81.0,83.0
4012,-865,78,0,4011.0,4008.0,-867.0,-868.0,77.0,81.0
4011,-865,79,0,4012.0,4011.0,-865.0,-867.0,78.0,77.0
4015,-867,84,0,4011.0,4012.0,-865.0,-865.0,79.0,78.0
4014,-868,90,0,4015.0,4011.0,-867.0,-865.0,84.0,79.0
4012,-868,91,0,4014.0,4015.0,-868.0,-867.0,90.0,84.0
4007,-870,93,0,4012.0,4014.0,-868.0,-868.0,91.0,90.0
4002,-871,96,0,4007.0,4012.0,-870.0,-868.0,93.0,91.0
3995,-873,98,0,4002.0,4007.0,-871.0,-870.0,96.0,93.0
3995,-878,104,0,3995.0,4002.0,-873.0,-871.0,98.0,96.0
3994,-879,109,0,3995.0,3995.0,-878.0,-873.0,104.0,98.0
3992,-884,118,0,3994.0,3995.0,-879.0,-878.0,109.0,104.0
3992,-888,125,0,3992.0,3994.0,-884.0,-879.0,118.0,109.0
3994,-893,132,0,3992.0,3992.0,-888.0,-884.0,125.0,118.0
3995,-894,139,0,3994.0,3992.0,-893.0,-888.0,132.0,125.0
3991,-897,145,0,3995.0,3994.0,-894.0,-893.0,139.0,132.0
3991,-904,143,0,3991.0,3995.0,-897.0,-894.0,145.0,139.0
3989,-912,133,0,3991.0,3991.0,-904.0,-897.0,143.0,145.0
3983,-920,124,0,3989.0,3991.0,-912.0,-904.0,133.0,143.0
3977,-927,119,0,3983.0,3989.0,-920.0,-912.0,124.0,133.0
3978,-930,118,0,3977.0,3983.0,-927.0,-920.0,119.0,124.0
3977,-933,113,0,3978.0,3977.0,-930.0,-927.0,118.0,119.0
3975,-935,109,0,3977.0,3978.0,-933.0,-930.0,113.0,118.0
3981,-938,111,0,3975.0,3977.0,-935.0,-933.0,109.0,113.0
3983,-934,111,0,3981.0,3975.0,-938.0,-935.0,111.0,109.0
3984,-934,111,0,3983.0,3981.0,-934.0,-938.0,111.0,111.0
3990,-938,110,0,3984.0,3983.0,-934.0,-934.0,111.0,111.0
3986,-942,112,0,3990.0,3984.0,-938.0,-934.0,110.0,111.0
3988,-946,105,0,3986.0,3990.0,-942.0,-938.0,112.0,110.0
3986,-948,103,0,3988.0,3986.0,-946.0,-942.0,105.0,112.0
3985,-951,107,0,3986.0,3988.0,-948.0,-946.0,103.0,105.0
3989,-956,111,0,3985.0,3986.0,-951.0,-948.0,107.0,103.0
3997,-952,117,0,3989.0,3985.0,-956.0,-951.0,111.0,107.0
3992,-950,122,0,3997.0,3989.0,-952.0,-956.0,117.0,111.0
3993,-946,127,0,3992.0,3997.0,-950.0,-952.0,122.0,117.0
3993,-943,131,0,3993.0,3992.0,-946.0,-950.0,127.0,122.0
3993,-938,137,0,3993.0,3993.0,-943.0,-946.0,131.0,127.0
3991,-937,143,0,3993.0,3993.0,-938.0,-943.0,137.0,131.0
3990,-932,144,0,3991.0,3993.0,-937.0,-938.0,143.0,137.0
3985,-930,144,0,3990.0,3991.0,-932.0,-937.0,144.0,143.0
3982,-929,141,0,3985.0,3990.0,-930.0,-932.0,144.0,144.0
3980,-925,136,0,3982.0,3985.0,-929.0,-930.0,141.0,144.0
3980,-925,130,0,3980.0,3982.0,-925.0,-929.0,136.0,141.0
3977,-921,127,0,3980.0,3980.0,-925.0,-925.0,130.0,136.0
3982,-919,129,0,3977.0,3980.0,-921.0,-925.0,127.0,130.0
3981,-917,131,0,3982.0,3977.0,-919.0,-921.0,129.0,127.0
3981,-913,129,0,3981.0,3982.0,-917.0,-919.0,131.0,129.0
3984,-909,125,0,3981.0,3981.0,-913.0,-917.0,129.0,131.0
3987,-903,127,0,3984.0,3981.0,-909.0,-913.0,125.0,129.0
3986,-899,129,0,3987.0,3984.0,-903.0,-909.0,127.0,125.0
3990,-900,127,0,3986.0,3987.0,-899.0,-903.0,129.0,127.0
3990,-902,126,0,3990.0,3986.0,-900.0,-899.0,127.0,129.0
3992,-899,124,0,3990.0,3990.0,-902.0,-900.0,126.0,127.0
3988,-899,123,0,3992.0,3990.0,-899.0,-902.0,124.0,126.0
3988,-897,127,0,3988.0,3992.0,-899.0,-899.0,123.0,124.0
3989,-900,121,0,3988.0,3988.0,-897.0,-899.0,127.0,123.0
3988,-898,120,0,3989.0,3988.0,-900.0,-897.0,121.0,127.0
3984,-899,120,0,3988.0,3989.0,-898.0,-900.0,120.0,121.0
3981,-901,118,0,3984.0,3988.0,-899.0,-898.0,120.0,120.0
3978,-902,122,0,3981.0,3984.0,-901.0,-899.0,118.0,120.0
3976,-904,125,0,3978.0,3981.0,-902.0,-901.0,122.0,118.0
3974,-901,130,0,3976.0,3978.0,-904.0,-902.0,125.0,122.0
3973,-900,130,0,3974.0,3976.0,-901.0,-904.0,130.0,125.0
3974,-900,130,0,3973.0,3974.0,-900.0,-901.0,130.0,130.0
3975,-903,126,0,3974.0,3973.0,-900.0,-900.0,130.0,130.0
3976,-908,124,0,3975.0,3974.0,-903.0,-900.0,126.0,130.0
3981,-907,122,0,3976.0,3975.0,-908.0,-903.0,124.0,126.0
3978,-909,117,0,3981.0,3976.0,-907.0,-908.0,122.0,124.0
3982,-909,111,0,3978.0,3981.0,-909.0,-907.0,117.0,122.0
3980,-909,110,0,3982.0,3978.0,-909.0,-909.0,111.0,117.0
3980,-914,113,0,3980.0,3982.0,-909.0,-909.0,110.0,111.0
3981,-916,116,0,3980.0,3980.0,-914.0,-909.0,113.0,110.0
3981,-918,121,0,3981.0,3980.0,-916.0,-914.0,116.0,113.0
3983,-920,125,0,3981.0,3981.0,-918.0,-916.0,121.0,116.0
3981,-923,128,0,3983.0,3981.0,-920.0,-918.0,125.0,121.0
3977,-926,123,0,3981.0,3983.0,-923.0,-920.0,128.0,125.0
3977,-930,125,0,3977.0,3981.0,-926.0,-923.0,123.0,128.0
3976,-931,128,0,3977.0,3977.0,-930.0,-926.0,125.0,123.0
3976,-930,130,0,3976.0,3977.0,-931.0,-930.0,128.0,125.0
3982,-929,134,0,3976.0,3976.0,-930.0,-931.0,130.0,128.0
3983,-929,137,0,3982.0,3976.0,-929.0,-930.0,134.0,130.0
3983,-929,136,0,3983.0,3982.0,-929.0,-929.0,137.0,134.0
3984,-930,135,0,3983.0,3983.0,-929.0,-929.0,136.0,137.0
3987,-929,136,0,3984.0,3983.0,-930.0,-929.0,135.0,136.0
3989,-933,134,0,3987.0,3984.0,-929.0,-930.0,136.0,135.0
3989,-930,139,0,3989.0,3987.0,-933.0,-929.0,134.0,136.0
3988,-927,141,0,3989.0,3989.0,-930.0,-933.0,139.0,134.0
3989,-924,140,0,3988.0,3989.0,-927.0,-930.0,141.0,139.0
3985,-925,143,0,3989.0,3988.0,-924.0,-927.0,140.0,141.0
3984,-924,142,0,3985.0,3989.0,-925.0,-924.0,143.0,140.0
3978,-919,142,0,3984.0,3985.0,-924.0,-925.0,142.0,143.0
3978,-916,147,0,3978.0,3984.0,-919.0,-924.0,142.0,142.0
3978,-914,147,0,3978.0,3978.0,-916.0,-919.0,147.0,142.0
3978,-915,147,0,3978.0,3978.0,-914.0,-916.0,147.0,147.0
3976,-915,153,0,3978.0,3978.0,-915.0,-914.0,147.0,147.0
3973,-916,156,0,3976.0,3978.0,-915.0,-915.0,153.0,147.0
3971,-915,155,0,3973.0,3976.0,-916.0,-915.0,156.0,153.0
3968,-915,157,0,3971.0,3973.0,-915.0,-916.0,155.0,156.0
3968,-918,155,0,3968.0,3971.0,-915.0,-915.0,157.0,155.0
3961,-918,155,0,3968.0,3968.0,-918.0,-915.0,155.0,157.0
3957,-920,155,0,3961.0,3968.0,-918.0,-918.0,155.0,155.0
3960,-926,157,0,3957.0,3961.0,-920.0,-918.0,155.0,155.0
3962,-928,155,0,3960.0,3957.0,-926.0,-920.0,157.0,155.0
3967,-932,156,0,3962.0,3960.0,-928.0,-926.0,155.0,157.0
3967,-934,154,0,3967.0,3962.0,-932.0,-928.0,156.0,155.0
3971,-938,148,0,3967.0,3967.0,-934.0,-932.0,154.0,156.0
3974,-939,150,0,3971.0,3967.0,-938.0,-934.0,148.0,154.0
3977,-941,144,0,3974.0,3971.0,-939.0,-938.0,150.0,148.0
3974,-939,141,0,3977.0,3974.0,-941.0,-939.0,144.0,150.0
3971,-933,145,0,3974.0,3977.0,-939.0,-941.0,141.0,144.0
3967,-929,152,0,3971.0,3974.0,-933.0,-939.0,145.0,141.0
3961,-929,159,0,3967.0,3971.0,-929.0,-933.0,152.0,145.0
3958,-928,159,0,3961.0,3967.0,-929.0,-929.0,159.0,152.0
3954,-925,163,0,3958.0,3961.0,-928.0,-929.0,159.0,159.0
3954,-931,166,0,3954.0,3958.0,-925.0,-928.0,163.0,159.0
3950,-937,169,0,3954.0,3954.0,-931.0,-925.0,166.0,163.0
3947,-939,168,0,3950.0,3954.0,-937.0,-931.0,169.0,166.0
3946,-942,167,0,3947.0,3950.0,-939.0,-937.0,168.0,169.0
3947,-939,165,0,3946.0,3947.0,-942.0,-939.0,167.0,168.0
3949,-940,164,0,3947.0,3946.0,-939.0,-942.0,165.0,167.0
3953,-939,162,0,3949.0,3947.0,-940.0,-939.0,164.0,165.0
3954,-938,163,0,3953.0,3949.0,-939.0,-940.0,162.0,164.0
3954,-935,163,0,3954.0,3953.0,-938.0,-939.0,163.0,162.0
3954,-932,166,0,3954.0,3954.0,-935.0,-938.0,163.0,163.0
3953,-932,171,0,3954.0,3954.0,-932.0,-935.0,166.0,163.0
3952,-934,174,0,3953.0,3954.0,-932.0,-932.0,171.0,166.0
3952,-940,176,0,3952.0,3953.0,-934.0,-932.0,174.0,171.0
3956,-943,180,0,3952.0,3952.0,-940.0,-934.0,176.0,174.0
3965,-943,183,0,3956.0,3952.0,-943.0,-940.0,180.0,176.0
3970,-944,188,0,3965.0,3956.0,-943.0,-943.0,183.0,180.0
3975,-947,188,0,3970.0,3965.0,-944.0,-943.0,188.0,183.0
3969,-949,181,0,3975.0,3970.0,-947.0,-944.0,188.0,188.0
3962,-954,167,0,3969.0,3975.0,-949.0,-947.0,181.0,188.0
3958,-956,154,0,3962.0,3969.0,-954.0,-949.0,167.0,181.0
3956,-957,144,0,3958.0,3962.0,-956.0,-954.0,154.0,167.0
3954,-957,139,0,3956.0,3958.0,-957.0,-956.0,144.0,154.0
3956,-954,134,0,3954.0,3956.0,-957.0,-957.0,139.0,144.0
3961,-945,133,0,3956.0,3954.0,-954.0,-957.0,134.0,139.0
3967,-941,132,0,3961.0,3956.0,-945.0,-954.0,133.0,134.0
3971,-931,129,0,3967.0,3961.0,-941.0,-945.0,132.0,133.0
3979,-927,128,0,3971.0,3967.0,-931.0,-941.0,129.0,132.0
3987,-927,125,0,3979.0,3971.0,-927.0,-931.0,128.0,129.0
3993,-927,123,0,3987.0,3979.0,-927.0,-927.0,125.0,128.0
4000,-935,123,0,3993.0,3987.0,-927.0,-927.0,123.0,125.0
4003,-941,120,0,4000.0,3993.0,-935.0,-927.0,123.0,123.0
4003,-948,122,0,4003.0,4000.0,-941.0,-935.0,120.0,123.0
4004,-952,126,0,4003.0,4003.0,-948.0,-941.0,122.0,120.0
4006,-959,130,0,4004.0,4003.0,-952.0,-948.0,126.0,122.0
4008,-959,135,0,4006.0,4004.0,-959.0,-952.0,130.0,126.0
4010,-960,141,0,4008.0,4006.0,-959.0,-959.0,135.0,130.0
4007,-960,145,0,4010.0,4008.0,-960.0,-959.0,141.0,135.0
4005,-962,151,0,4007.0,4010.0,-960.0,-960.0,145.0,141.0
3999,-961,149,0,4005.0,4007.0,-962.0,-960.0,151.0,145.0
3993,-960,146,0,3999.0,4005.0,-961.0,-962.0,149.0,151.0
3985,-957,146,0,3993.0,3999.0,-960.0,-961.0,146.0,149.0
3974,-955,144,0,3985.0,3993.0,-957.0,-960.0,146.0,146.0
3967,-954,139,0,3974.0,3985.0,-955.0,-957.0,144.0,146.0
3962,-953,138,0,3967.0,3974.0,-954.0,-955.0,139.0,144.0
3952,-948,137,0,3962.0,3967.0,-953.0,-954.0,138.0,139.0
3951,-941,136,0,3952.0,3962.0,-948.0,-953.0,137.0,138.0
3952,-936,137,0,3951.0,3952.0,-941.0,-948.0,136.0,137.0
3952,-931,135,0,3952.0,3951.0,-936.0,-941.0,137.0,136.0
3959,-926,135,0,3952.0,3952.0,-931.0,-936.0,135.0,137.0
3959,-917,139,0,3959.0,3952.0,-926.0,-931.0,135.0,135.0
3961,-915,140,0,3959.0,3959.0,-917.0,-926.0,139.0,135.0
3968,-910,138,0,3961.0,3959.0,-915.0,-917.0,140.0,139.0
3971,-910,135,0,3968.0,3961.0,-910.0,-915.0,138.0,140.0
3979,-909,135,0,3971.0,3968.0,-910.0,-910.0,135.0,138.0
3981,-907,135,0,3979.0,3971.0,-909.0,-910.0,135.0,135.0
3985,-909,140,0,3981.0,3979.0,-907.0,-909.0,135.0,135.0
3982,-913,141,0,3985.0,3981.0,-909.0,-907.0,140.0,135.0
3984,-920,141,0,3982.0,3985.0,-913.0,-909.0,141.0,140.0
3989,-925,137,0,3984.0,3982.0,-920.0,-913.0,141.0,141.0
3989,-932,134,0,3989.0,3984.0,-925.0,-920.0,137.0,141.0
3989,-933,133,0,3989.0,3989.0,-932.0,-925.0,134.0,137.0
3988,-933,132,0,3989.0,3989.0,-933.0,-932.0,133.0,134.0
3983,-937,129,0,3988.0,3989.0,-933.0,-933.0,132.0,133.0
3982,-936,128,0,3983.0,3988.0,-937.0,-933.0,129.0,132.0
3982,-933,129,0,3982.0,3983.0,-936.0,-937.0,128.0,129.0
3983,-935,126,0,3982.0,3982.0,-933.0,-936.0,129.0,128.0
3982,-937,127,0,3983.0,3982.0,-935.0,-933.0,126.0,129.0
3983,-936,128,0,3982.0,3983.0,-937.0,-935.0,127.0,126.0
3982,-938,128,0,3983.0,3982.0,-936.0,-937.0,128.0,127.0
3980,-941,128,0,3982.0,3983.0,-938.0,-936.0,128.0,128.0
3977,-939,129,0,3980.0,3982.0,-941.0,-938.0,128.0,128.0
3977,-936,128,0,3977.0,3980.0,-939.0,-941.0,129.0,128.0
3980,-937,125,0,3977.0,3977.0,-936.0,-939.0,128.0,129.0
3979,-938,123,0,3980.0,3977.0,-937.0,-936.0,125.0,128.0
3979,-935,119,0,3979.0,3980.0,-938.0,-937.0,123.0,125.0
3981,-931,118,0,3979.0,3979.0,-935.0,-938.0,119.0,123.0
3979,-927,117,0,3981.0,3979.0,-931.0,-935.0,118.0,119.0
3980,-921,120,0,3979.0,3981.0,-927.0,-931.0,117.0,118.0
3980,-919,124,0,3980.0,3979.0,-921.0,-927.0,120.0,117.0
3978,-914,123,0,3980.0,3980.0,-919.0,-921.0,124.0,120.0
3975,-914,127,0,3978.0,3980.0,-914.0,-919.0,123.0,124.0
3974,-914,126,0,3975.0,3978.0,-914.0,-914.0,127.0,123.0
3972,-918,125,0,3974.0,3975.0,-914.0,-914.0,126.0,127.0
3972,-917,124,0,3972.0,3974.0,-918.0,-914.0,125.0,126.0
3973,-918,128,0,3972.0,3972.0,-917.0,-918.0,124.0,125.0
3975,-924,127,0,3973.0,3972.0,-918.0,-917.0,128.0,124.0
3973,-928,127,0,3975.0,3973.0,-924.0,-918.0,127.0,128.0
3971,-926,130,0,3973.0,3975.0,-928.0,-924.0,127.0,127.0
3966,-928,133,0,3971.0,3973.0,-926.0,-928.0,130.0,127.0
3966,-924,136,0,3966.0,3971.0,-928.0,-926.0,133.0,130.0
3966,-919,139,0,3966.0,3966.0,-924.0,-928.0,136.0,133.0
3968,-920,142,0,3966.0,3966.0,-919.0,-924.0,139.0,136.0
3969,-920,136,0,3968.0,3966.0,-920.0,-919.0,142.0,139.0
3969,-919,132,0,3969.0,3968.0,-920.0,-920.0,136.0,142.0
3971,-919,129,0,3969.0,3969.0,-919.0,-920.0,132.0,136.0
3976,-921,127,0,3971.0,3969.0,-919.0,-919.0,129.0,132.0
3977,-921,124,0,3976.0,3971.0,-921.0,-919.0,127.0,129.0
3982,-917,123,0,3977.0,3976.0,-921.0,-921.0,124.0,127.0
3984,-914,122,0,3982.0,3977.0,-917.0,-921.0,123.0,124.0
3987,-910,119,0,3984.0,3982.0,-914.0,-917.0,122.0,123.0
3992,-907,113,0,3987.0,3984.0,-910.0,-914.0,119.0,122.0
3990,-908,110,0,3992.0,3987.0,-907.0,-910.0,113.0,119.0
3990,-906,105,0,3990.0,3992.0,-908.0,-907.0,110.0,113.0
3988,-905,105,0,3990.0,3990.0,-906.0,-908.0,105.0,110.0
3988,-901,101,0,3988.0,3990.0,-905.0,-906.0,105.0,105.0
3991,-901,99,0,3988.0,3988.0,-901.0,-905.0,101.0,105.0
3991,-904,100,0,3991.0,3988.0,-901.0,-901.0,99.0,101.0
3991,-906,100,0,3991.0,3991.0,-904.0,-901.0,100.0,99.0
3994,-908,102,0,3991.0,3991.0,-906.0,-904.0,100.0,100.0
3998,-911,109,0,3994.0,3991.0,-908.0,-906.0,102.0,100.0
4002,-916,117,0,3998.0,3994.0,-911.0,-908.0,109.0,102.0
4003,-919,117,0,4002.0,3998.0,-916.0,-911.0,117.0,109.0
4000,-920,118,0,4003.0,4002.0,-919.0,-916.0,117.0,117.0
3995,-926,115,0,4000.0,4003.0,-920.0,-919.0,118.0,117.0
3990,-932,113,0,3995.0,4000.0,-926.0,-920.0,115.0,118.0
3988,-935,116,0,3990.0,3995.0,-932.0,-926.0,113.0,115.0
3983,-942,120,0,3988.0,3990.0,-935.0,-932.0,116.0,113.0
3978,-941,117,0,3983.0,3988.0,-942.0,-935.0,120.0,116.0
3977,-945,113,0,3978.0,3983.0,-941.0,-942.0,117.0,120.0
3973,-950,107,0,3977.0,3978.0,-945.0,-941.0,113.0,117.0
3969,-953,102,0,3973.0,3977.0,-950.0,-945.0,107.0,113.0
3965,-959,106,0,3969.0,3973.0,-953.0,-950.0,102.0,107.0
3956,-955,108,0,3965.0,3969.0,-959.0,-953.0,106.0,102.0
3957,-951,111,0,3956.0,3965.0,-955.0,-959.0,108.0,106.0
3964,-956,116,0,3957.0,3956.0,-951.0,-955.0,111.0,108.0
3969,-961,118,0,3964.0,3957.0,-956.0,-951.0,116.0,111.0
3983,-963,119,0,3969.0,3964.0,-961.0,-956.0,118.0,116.0
3994,-962,127,0,3983.0,3969.0,-963.0,-961.0,119.0,118.0
3997,-959,131,0,3994.0,3983.0,-962.0,-963.0,127.0,119.0
3993,-961,126,0,3997.0,3994.0,-959.0,-962.0,131.0,127.0
3985,-963,112,0,3993.0,3997.0,-961.0,-959.0,126.0,131.0
3977,-967,104,0,3985.0,3993.0,-963.0,-961.0,112.0,126.0
3970,-966,100,0,3977.0,3985.0,-967.0,-963.0,104.0,112.0
3968,-964,99,0,3970.0,3977.0,-966.0,-967.0,100.0,104.0
3973,-956,99,0,3968.0,3970.0,-964.0,-966.0,99.0,100.0
3974,-949,103,0,3973.0,3968.0,-956.0,-964.0,99.0,99.0
3977,-939,107,0,3974.0,3973.0,-949.0,-956.0,103.0,99.0
3981,-932,109,0,3977.0,3974.0,-939.0,-949.0,107.0,103.0
3982,-932,107,0,3981.0,3977.0,-932.0,-939.0,109.0,107.0
3981,-932,106,0,3982.0,3981.0,-932.0,-932.0,107.0,109.0
3976,-930,106,0,3981.0,3982.0,-932.0,-932.0,106.0,107.0
3974,-929,106,0,3976.0,3981.0,-930.0,-932.0,106.0,106.0
3973,-926,104,0,3974.0,3976.0,-929.0,-930.0,106.0,106.0
3975,-923,103,0,3973.0,3974.0,-926.0,-929.0,104.0,106.0
3978,-923,105,0,3975.0,3973.0,-923.0,-926.0,103.0,104.0
3984,-917,108,0,3978.0,3975.0,-923.0,-923.0,105.0,103.0
3986,-911,113,0,3984.0,3978.0,-917.0,-923.0,108.0,105.0
3995,-909,109,0,3986.0,3984.0,-911.0,-917.0,113.0,108.0
3999,-904,103,0,3995.0,3986.0,-909.0,-911.0,109.0,113.0
4003,-901,104,0,3999.0,3995.0,-904.0,-909.0,103.0,109.0
4005,-898,105,0,4003.0,3999.0,-901.0,-904.0,104.0,103.0
4005,-896,102,0,4005.0,4003.0,-898.0,-901.0,105.0,104.0
4004,-892,98,0,4005.0,4005.0,-896.0,-898.0,102.0,105.0
4003,-894,95,0,4004.0,4005.0,-892.0,-896.0,98.0,102.0
4005,-890,94,0,4003.0,4004.0,-894.0,-892.0,95.0,98.0
4003,-886,94,0,4005.0,4003.0,-890.0,-894.0,94.0,95.0
4001,-887,91,0,4003.0,4005.0,-886.0,-890.0,94.0,94.0
4000,-887,89,0,4001.0,4003.0,-887.0,-886.0,91.0,94.0
3998,-884,88,0,4000.0,4001.0,-887.0,-887.0,89.0,91.0
4001,-880,90,0,3998.0,4000.0,-884.0,-887.0,88.0,89.0
4004,-876,89,0,4001.0,3998.0,-880.0,-884.0,90.0,88.0
4009,-872,87,0,4004.0,4001.0,-876.0,-880.0,89.0,90.0
4012,-872,85,0,4009.0,4004.0,-872.0,-876.0,87.0,89.0
4012,-871,84,0,4012.0,4009.0,-872.0,-872.0,85.0,87.0
4012,-872,81,0,4012.0,4012.0,-871.0,-872.0,84.0,85.0
4015,-871,82,0,4012.0,4012.0,-872.0,-871.0,81.0,84.0
4014,-872,83,0,4015.0,4012.0,-871.0,-872.0,82.0,81.0
4015,-875,88,0,4014.0,4015.0,-872.0,-871.0,83.0,82.0
4017,-878,91,0,4015.0,4014.0,-875.0,-872.0,88.0,83.0
4014,-879,93,0,4017.0,4015.0,-878.0,-875.0,91.0,88.0
4012,-882,95,0,4014.0,4017.0,-879.0,-878.0,93.0,91.0
4006,-884,98,0,4012.0,4014.0,-882.0,-879.0,95.0,93.0
4001,-885,102,0,4006.0,4012.0,-884.0,-882.0,98.0,95.0
4001,-887,99,0,4001.0,4006.0,-885.0,-884.0,102.0,98.0
3991,-889,100,0,4001.0,4001.0,-887.0,-885.0,99.0,102.0
3985,-894,100,0,3991.0,4001.0,-889.0,-887.0,100.0,99.0
3980,-891,98,0,3985.0,3991.0,-894.0,-889.0,100.0,100.0
3976,-892,98,0,3980.0,3985.0,-891.0,-894.0,98.0,100.0
3976,-896,100,0,3976.0,3980.0,-892.0,-891.0,98.0,98.0
3970,-895,104,0,3976.0,3976.0,-896.0,-892.0,100.0,98.0
3962,-897,106,0,3970.0,3976.0,-895.0,-896.0,104.0,100.0
3967,-900,109,0,3962.0,3970.0,-897.0,-895.0,106.0,104.0
3967,-898,109,0,3967.0,3962.0,-900.0,-897.0,109.0,106.0
3962,-903,111,0,3967.0,3967.0,-898.0,-900.0,109.0,109.0
3965,-906,111,0,3962.0,3967.0,-903.0,-898.0,111.0,109.0
3969,-908,113,0,3965.0,3962.0,-906.0,-903.0,111.0,111.0
3971,-912,116,0,3969.0,3965.0,-908.0,-906.0,113.0,111.0
3979,-914,116,0,3971.0,3969.0,-912.0,-908.0,116.0,113.0
3989,-916,116,0,3979.0,3971.0,-914.0,-912.0,116.0,116.0
3991,-915,112,0,3989.0,3979.0,-916.0,-914.0,116.0,116.0
3993,-914,113,0,3991.0,3989.0,-915.0,-916.0,112.0,116.0
3995,-919,113,0,3993.0,3991.0,-914.0,-915.0,113.0,112.0
3994,-920,113,0,3995.0,3993.0,-919.0,-914.0,113.0,113.0
3996,-919,114,0,3994.0,3995.0,-920.0,-919.0,113.0,113.0
3994,-917,118,0,3996.0,3994.0,-919.0,-920.0,114.0,113.0
3990,-917,122,0,3994.0,3996.0,-917.0,-919.0,118.0,114.0
3989,-918,120,0,3990.0,3994.0,-917.0,-917.0,122.0,118.0
3986,-920,118,0,3989.0,3990.0,-918.0,-917.0,120.0,122.0
3987,-927,116,0,3986.0,3989.0,-920.0,-918.0,118.0,120.0
3987,-931,115,0,3987.0,3986.0,-927.0,-920.0,116.0,118.0
3992,-930,110,0,3987.0,3987.0,-931.0,-927.0,115.0,116.0
3989,-930,110,0,3992.0,3987.0,-930.0,-931.0,110.0,115.0
3985,-929,109,0,3989.0,3992.0,-930.0,-930.0,110.0,110.0
3982,-935,108,0,3985.0,3989.0,-929.0,-930.0,109.0,110.0
3985,-936,112,0,3982.0,3985.0,-935.0,-929.0,108.0,109.0
3984,-938,114,0,3985.0,3982.0,-936.0,-935.0,112.0,108.0
3985,-938,113,0,3984.0,3985.0,-938.0,-936.0,114.0,112.0
3990,-937,119,0,3985.0,3984.0,-938.0,-938.0,113.0,114.0
3988,-945,122,0,3990.0,3985.0,-937.0,-938.0,119.0,113.0
3987,-940,123,0,3988.0,3990.0,-945.0,-937.0,122.0,119.0
3989,-941,127,0,3987.0,3988.0,-940.0,-945.0,123.0,122.0
3988,-941,130,0,3989.0,3987.0,-941.0,-940.0,127.0,123.0
3986,-943,129,0,3988.0,3989.0,-941.0,-941.0,130.0,127.0
3985,-944,126,0,3986.0,3988.0,-943.0,-941.0,129.0,130.0
3978,-943,126,0,3985.0,3986.0,-944.0,-943.0,126.0,129.0
3976,-948,129,0,3978.0,3985.0,-943.0,-944.0,126.0,126.0
3975,-948,131,0,3976.0,3978.0,-948.0,-943.0,129.0,126.0
3973,-949,132,0,3975.0,3976.0,-948.0,-948.0,131.0,129.0
3968,-947,132,0,3973.0,3975.0,-949.0,-948.0,132.0,131.0
3965,-947,131,0,3968.0,3973.0,-947.0,-949.0,132.0,132.0
3963,-946,127,0,3965.0,3968.0,-947.0,-947.0,131.0,132.0
3961,-946,120,0,3963.0,3965.0,-946.0,-947.0,127.0,131.0
3960,-947,115,0,3961.0,3963.0,-946.0,-946.0,120.0,127.0
3963,-942,118,0,3960.0,3961.0,-947.0,-946.0,115.0,120.0
3965,-940,122,0,3963.0,3960.0,-942.0,-947.0,118.0,115.0
3967,-936,127,0,3965.0,3963.0,-940.0,-942.0,122.0,118.0
3969,-940,131,0,3967.0,3965.0,-936.0,-940.0,127.0,122.0
3970,-935,135,0,3969.0,3967.0,-940.0,-936.0,131.0,127.0
3973,-933,137,0,3970.0,3969.0,-935.0,-940.0,135.0,131.0
3978,-926,134,0,3973.0,3970.0,-933.0,-935.0,137.0,135.0
3982,-925,138,0,3978.0,3973.0,-926.0,-933.0,134.0,137.0
3987,-923,138,0,3982.0,3978.0,-925.0,-926.0,138.0,134.0
3994,-924,132,0,3987.0,3982.0,-923.0,-925.0,138.0,138.0
3996,-917,127,0,3994.0,3987.0,-924.0,-923.0,132.0,138.0
3993,-906,121,0,3996.0,3994.0,-917.0,-924.0,127.0,132.0
3990,-904,119,0,3993.0,3996.0,-906.0,-917.0,121.0,127.0
3992,-902,123,0,3990.0,3993.0,-904.0,-906.0,119.0,121.0
3989,-903,127,0,3992.0,3990.0,-902.0,-904.0,123.0,119.0
3990,-894,131,0,3989.0,3992.0,-903.0,-902.0,127.0,123.0
3988,-890,138,0,3990.0,3989.0,-894.0,-903.0,131.0,127.0
3988,-885,147,0,3988.0,3990.0,-890.0,-894.0,138.0,131.0
3990,-882,153,0,3988.0,3988.0,-885.0,-890.0,147.0,138.0
3987,-884,154,0,3990.0,3988.0,-882.0,-885.0,153.0,147.0
3981,-888,149,0,3987.0,3990.0,-884.0,-882.0,154.0,153.0
3975,-896,145,0,3981.0,3987.0,-888.0,-884.0,149.0,154.0
3972,-902,136,0,3975.0,3981.0,-896.0,-888.0,145.0,149.0
3975,-905,129,0,3972.0,3975.0,-902.0,-896.0,136.0,145.0
3974,-909,126,0,3975.0,3972.0,-905.0,-902.0,129.0,136.0
3978,-907,124,0,3974.0,3975.0,-909.0,-905.0,126.0,129.0
3982,-903,125,0,3978.0,3974.0,-907.0,-909.0,124.0,126.0
3986,-899,125,0,3982.0,3978.0,-903.0,-907.0,125.0,124.0
3988,-896,129,0,3986.0,3982.0,-899.0,-903.0,125.0,125.0
3990,-896,128,0,3988.0,3986.0,-896.0,-899.0,129.0,125.0
3996,-894,129,0,3990.0,3988.0,-896.0,-896.0,128.0,129.0
3996,-893,131,0,3996.0,3990.0,-894.0,-896.0,129.0,128.0
3993,-894,129,0,3996.0,3996.0,-893.0,-894.0,131.0,129.0
3992,-897,132,0,3993.0,3996.0,-894.0,-893.0,129.0,131.0
3987,-901,135,0,3992.0,3993.0,-897.0,-894.0,132.0,129.0
3993,-903,139,0,3987.0,3992.0,-901.0,-897.0,135.0,132.0
3992,-899,142,0,3993.0,3987.0,-903.0,-901.0,139.0,135.0
3995,-896,147,0,3992.0,3993.0,-899.0,-903.0,142.0,139.0
3998,-893,151,0,3995.0,3992.0,-896.0,-899.0,147.0,142.0
3994,-898,153,0,3998.0,3995.0,-893.0,-896.0,151.0,147.0
4000,-897,147,0,3994.0,3998.0,-898.0,-893.0,153.0,151.0
4002,-898,140,0,4000.0,3994.0,-897.0,-898.0,147.0,153.0
3996,-901,139,0,4002.0,4000.0,-898.0,-897.0,140.0,147.0
3995,-903,142,0,3996.0,4002.0,-901.0,-898.0,139.0,140.0
3993,-905,141,0,3995.0,3996.0,-903.0,-901.0,142.0,139.0
3993,-902,138,0,3993.0,3995.0,-905.0,-903.0,141.0,142.0
3990,-896,144,0,3993.0,3993.0,-902.0,-905.0,138.0,141.0
3988,-895,145,0,3990.0,3993.0,-896.0,-902.0,144.0,138.0
3988,-890,147,0,3988.0,3990.0,-895.0,-896.0,145.0,144.0
3985,-880,149,0,3988.0,3988.0,-890.0,-895.0,147.0,145.0
3983,-872,151,0,3985.0,3988.0,-880.0,-890.0,149.0,147.0
3982,-861,159,0,3983.0,3985.0,-872.0,-880.0,151.0,149.0
3983,-853,162,0,3982.0,3983.0,-861.0,-872.0,159.0,151.0
3984,-841,167,0,3983.0,3982.0,-853.0,-861.0,162.0,159.0
3979,-838,171,0,3984.0,3983.0,-841.0,-853.0,167.0,162.0
3976,-839,174,0,3979.0,3984.0,-838.0,-841.0,171.0,167.0
3974,-841,180,0,3976.0,3979.0,-839.0,-838.0,174.0,171.0
3970,-852,180,0,3974.0,3976.0,-841.0,-839.0,180.0,174.0
3964,-863,183,0,3970.0,3974.0,-852.0,-841.0,180.0,180.0
3964,-876,185,0,3964.0,3970.0,-863.0,-852.0,183.0,180.0
3962,-887,188,0,3964.0,3964.0,-876.0,-863.0,185.0,183.0
3965,-897,187,0,3962.0,3964.0,-887.0,-876.0,188.0,185.0
3965,-906,185,0,3965.0,3962.0,-897.0,-887.0,187.0,188.0
3964,-916,178,0,3965.0,3965.0,-906.0,-897.0,185.0,187.0
3966,-932,170,0,3964.0,3965.0,-916.0,-906.0,178.0,185.0
3970,-944,165,0,3966.0,3964.0,-932.0,-916.0,170.0,178.0
3972,-953,156,0,3970.0,3966.0,-944.0,-932.0,165.0,170.0
3975,-957,149,0,3972.0,3970.0,-953.0,-944.0,156.0,165.0
3977,-963,148,0,3975.0,3972.0,-957.0,-953.0,149.0,156.0
3978,-967,146,0,3977.0,3975.0,-963.0,-957.0,148.0,149.0
3980,-974,143,0,3978.0,3977.0,-967.0,-963.0,146.0,148.0
3978,-977,147,0,3980.0,3978.0,-974.0,-967.0,143.0,146.0
3973,-984,145,0,3978.0,3980.0,-977.0,-974.0,147.0,143.0
3968,-990,145,0,3973.0,3978.0,-984.0,-977.0,145.0,147.0
3964,-993,146,0,3968.0,3973.0,-990.0,-984.0,145.0,145.0
3957,-995,145,0,3964.0,3968.0,-993.0,-990.0,146.0,145.0
3951,-993,149,0,3957.0,3964.0,-995.0,-993.0,145.0,146.0
3945,-991,150,0,3951.0,3957.0,-993.0,-995.0,149.0,145.0
3943,-995,156,0,3945.0,3951.0,-991.0,-993.0,150.0,149.0
3942,-991,161,0,3943.0,3945.0,-995.0,-991.0,156.0,150.0
3944,-984,157,0,3942.0,3943.0,-991.0,-995.0,161.0,156.0
3942,-982,158,0,3944.0,3942.0,-984.0,-991.0,157.0,161.0
3945,-982,155,0,3942.0,3944.0,-982.0,-984.0,158.0,157.0
3947,-977,156,0,3945.0,3942.0,-982.0,-982.0,155.0,158.0
3949,-975,149,0,3947.0,3945.0,-977.0,-982.0,156.0,155.0
3955,-975,142,0,3949.0,3947.0,-975.0,-977.0,149.0,156.0
3956,-974,134,0,3955.0,3949.0,-975.0,-975.0,142.0,149.0
3964,-975,131,0,3956.0,3955.0,-974.0,-975.0,134.0,142.0
3970,-977,124,0,3964.0,3956.0,-975.0,-974.0,131.0,134.0
3976,-977,120,0,3970.0,3964.0,-977.0,-975.0,124.0,131.0
3980,-977,119,0,3976.0,3970.0,-977.0,-977.0,120.0,124.0
3983,-979,118,0,3980.0,3976.0,-977.0,-977.0,119.0,120.0
3986,-980,115,0,3983.0,3980.0,-979.0,-977.0,118.0,119.0
3985,-976,121,0,3986.0,3983.0,-980.0,-979.0,115.0,118.0
3981,-972,123,0,3985.0,3986.0,-976.0,-980.0,121.0,115.0
3981,-973,129,0,3981.0,3985.0,-972.0,-976.0,123.0,121.0
3977,-971,135,0,3981.0,3981.0,-973.0,-972.0,129.0,123.0
3969,-969,140,0,3977.0,3981.0,-971.0,-973.0,135.0,129.0
3961,-970,145,0,3969.0,3977.0,-969.0,-971.0,140.0,135.0
3953,-969,150,0,3961.0,3969.0,-970.0,-969.0,145.0,140.0
3948,-972,152,0,3953.0,3961.0,-969.0,-970.0,150.0,145.0
3947,-975,157,0,3948.0,3953.0,-972.0,-969.0,152.0,150.0
3944,-978,159,0,3947.0,3948.0,-975.0,-972.0,157.0,152.0
3948,-980,157,0,3944.0,3947.0,-978.0,-975.0,159.0,157.0
3950,-979,154,0,3948.0,3944.0,-980.0,-978.0,157.0,159.0
3950,-974,155,0,3950.0,3948.0,-979.0,-980.0,154.0,157.0
3951,-969,161,0,3950.0,3950.0,-974.0,-979.0,155.0,154.0
3949,-960,162,0,3951.0,3950.0,-969.0,-974.0,161.0,155.0
3947,-955,162,0,3949.0,3951.0,-960.0,-969.0,162.0,161.0
3949,-952,163,0,3947.0,3949.0,-955.0,-960.0,162.0,162.0
3955,-942,164,0,3949.0,3947.0,-952.0,-955.0,163.0,162.0
3958,-937,164,0,3955.0,3949.0,-942.0,-952.0,164.0,163.0
3969,-930,165,0,3958.0,3955.0,-937.0,-942.0,164.0,164.0
3979,-928,163,0,3969.0,3958.0,-930.0,-937.0,165.0,164.0
3988,-929,158,0,3979.0,3969.0,-928.0,-930.0,163.0,165.0
4000,-930,155,0,3988.0,3979.0,-929.0,-928.0,158.0,163.0
4003,-932,151,0,4000.0,3988.0,-930.0,-929.0,155.0,158.0
4002,-926,154,0,4003.0,4000.0,-932.0,-930.0,151.0,155.0
3999,-921,156,0,4002.0,4003.0,-926.0,-932.0,154.0,151.0
3993,-912,157,0,3999.0,4002.0,-921.0,-926.0,156.0,154.0
3992,-898,156,0,3993.0,3999.0,-912.0,-921.0,157.0,156.0
3991,-888,155,0,3992.0,3993.0,-898.0,-912.0,156.0,157.0
3987,-878,150,0,3991.0,3992.0,-888.0,-898.0,155.0,156.0
3986,-868,147,0,3987.0,3991.0,-878.0,-888.0,150.0,155.0
3982,-859,151,0,3986.0,3987.0,-868.0,-878.0,147.0,150.0
3984,-853,161,0,3982.0,3986.0,-859.0,-868.0,151.0,147.0
3989,-847,170,0,3984.0,3982.0,-853.0,-859.0,161.0,151.0
3998,-840,181,0,3989.0,3984.0,-847.0,-853.0,170.0,161.0
4005,-834,186,0,3998.0,3989.0,-840.0,-847.0,181.0,170.0
4016,-831,190,0,4005.0,3998.0,-834.0,-840.0,186.0,181.0
4020,-824,184,0,4016.0,4005.0,-831.0,-834.0,190.0,186.0
4024,-824,172,0,4020.0,4016.0,-824.0,-831.0,184.0,190.0
4022,-826,158,0,4024.0,4020.0,-824.0,-824.0,172.0,184.0
4022,-823,145,0,4022.0,4024.0,-826.0,-824.0,158.0,172.0
4027,-822,135,0,4022.0,4022.0,-823.0,-826.0,145.0,158.0
4027,-815,129,0,4027.0,4022.0,-822.0,-823.0,135.0,145.0
4031,-804,130,0,4027.0,4027.0,-815.0,-822.0,129.0,135.0
4031,-798,128,0,4031.0,4027.0,-804.0,-815.0,130.0,129.0
4030,-790,130,0,4031.0,4031.0,-798.0,-804.0,128.0,130.0
4031,-783,130,0,4030.0,4031.0,-790.0,-798.0,130.0,128.0
4024,-778,131,0,4031.0,4030.0,-783.0,-790.0,130.0,130.0
4024,-775,131,0,4024.0,4031.0,-778.0,-783.0,131.0,130.0
4016,-776,134,0,4024.0,4024.0,-775.0,-778.0,131.0,131.0
4011,-784,139,0,4016.0,4024.0,-776.0,-775.0,134.0,131.0
4009,-790,145,0,4011.0,4016.0,-784.0,-776.0,139.0,134.0
4008,-800,148,0,4009.0,4011.0,-790.0,-784.0,145.0,139.0
4004,-809,157,0,4008.0,4009.0,-800.0,-790.0,148.0,145.0
4003,-819,164,0,4004.0,4008.0,-809.0,-800.0,157.0,148.0
4005,-831,167,0,4003.0,4004.0,-819.0,-809.0,164.0,157.0
4002,-842,172,0,4005.0,4003.0,-831.0,-819.0,167.0,164.0
3999,-853,173,0,4002.0,4005.0,-842.0,-831.0,172.0,167.0
3998,-860,172,0,3999.0,4002.0,-853.0,-842.0,173.0,172.0
3990,-867,170,0,3998.0,3999.0,-860.0,-853.0,172.0,173.0
3987,-875,170,0,3990.0,3998.0,-867.0,-860.0,170.0,172.0
3981,-882,166,0,3987.0,3990.0,-875.0,-867.0,170.0,170.0
3977,-893,163,0,3981.0,3987.0,-882.0,-875.0,166.0,170.0
3981,-899,159,0,3977.0,3981.0,-893.0,-882.0,163.0,166.0
3981,-905,153,0,3981.0,3977.0,-899.0,-893.0,159.0,163.0
3983,-913,146,0,3981.0,3981.0,-905.0,-899.0,153.0,159.0
3984,-915,141,0,3983.0,3981.0,-913.0,-905.0,146.0,153.0
3984,-916,137,0,3984.0,3983.0,-915.0,-913.0,141.0,146.0
3984,-913,134,0,3984.0,3984.0,-916.0,-915.0,137.0,141.0
3983,-908,131,0,3984.0,3984.0,-913.0,-916.0,134.0,137.0
3983,-905,128,0,3983.0,3984.0,-908.0,-913.0,131.0,134.0
3984,-898,125,0,3983.0,3983.0,-905.0,-908.0,128.0,131.0
3986,-895,127,0,3984.0,3983.0,-898.0,-905.0,125.0,128.0
3993,-891,125,0,3986.0,3984.0,-895.0,-898.0,127.0,125.0
3988,-892,125,0,3993.0,3986.0,-891.0,-895.0,125.0,127.0
3981,-888,124,0,3988.0,3993.0,-892.0,-891.0,125.0,125.0
3974,-887,128,0,3981.0,3988.0,-888.0,-892.0,124.0,125.0
3970,-889,133,0,3974.0,3981.0,-887.0,-888.0,128.0,124.0
3968,-891,140,0,3970.0,3974.0,-889.0,-887.0,133.0,128.0
3966,-895,141,0,3968.0,3970.0,-891.0,-889.0,140.0,133.0
3966,-903,144,0,3966.0,3968.0,-895.0,-891.0,141.0,140.0
3966,-909,146,0,3966.0,3966.0,-903.0,-895.0,144.0,141.0
3971,-911,145,0,3966.0,3966.0,-909.0,-903.0,146.0,144.0
3978,-912,145,0,3971.0,3966.0,-911.0,-909.0,145.0,146.0
3981,-915,140,0,3978.0,3971.0,-912.0,-911.0,145.0,145.0
3983,-917,136,0,3981.0,3978.0,-915.0,-912.0,140.0,145.0
3980,-914,133,0,3983.0,3981.0,-917.0,-915.0,136.0,140.0
3977,-914,131,0,3980.0,3983.0,-914.0,-917.0,133.0,136.0
3976,-908,125,0,3977.0,3980.0,-914.0,-914.0,131.0,133.0
3973,-905,125,0,3976.0,3977.0,-908.0,-914.0,125.0,131.0
3968,-901,121,0,3973.0,3976.0,-905.0,-908.0,125.0,125.0
3966,-903,118,0,3968.0,3973.0,-901.0,-905.0,121.0,125.0
3970,-903,112,0,3966.0,3968.0,-903.0,-901.0,118.0,121.0
3974,-903,109,0,3970.0,3966.0,-903.0,-903.0,112.0,118.0
3976,-902,107,0,3974.0,3970.0,-903.0,-903.0,109.0,112.0
3982,-905,105,0,3976.0,3974.0,-902.0,-903.0,107.0,109.0
3994,-905,102,0,3982.0,3976.0,-905.0,-902.0,105.0,107.0
4004,-909,103,0,3994.0,3982.0,-905.0,-905.0,102.0,105.0
4008,-911,104,0,4004.0,3994.0,-909.0,-905.0,103.0,102.0
4012,-907,108,0,4008.0,4004.0,-911.0,-909.0,104.0,103.0
4013,-899,111,0,4012.0,4008.0,-907.0,-911.0,108.0,104.0
4013,-896,114,0,4013.0,4012.0,-899.0,-907.0,111.0,108.0
4008,-890,117,0,4013.0,4013.0,-896.0,-899.0,114.0,111.0
4004,-887,124,0,4008.0,4013.0,-890.0,-896.0,117.0,114.0
3994,-888,125,0,4004.0,4008.0,-887.0,-890.0,124.0,117.0
3989,-889,130,0,3994.0,4004.0,-888.0,-887.0,125.0,124.0
3981,-897,133,0,3989.0,3994.0,-889.0,-888.0,130.0,125.0
3976,-900,139,0,3981.0,3989.0,-897.0,-889.0,133.0,130.0
3973,-903,147,0,3976.0,3981.0,-900.0,-897.0,139.0,133.0
3975,-908,153,0,3973.0,3976.0,-903.0,-900.0,147.0,139.0
3978,-916,153,0,3975.0,3973.0,-908.0,-903.0,153.0,147.0
3978,-924,156,0,3978.0,3975.0,-916.0,-908.0,153.0,153.0
3976,-923,160,0,3978.0,3978.0,-924.0,-916.0,156.0,153.0
3977,-922,164,0,3976.0,3978.0,-923.0,-924.0,160.0,156.0
3976,-924,160,0,3977.0,3976.0,-922.0,-923.0,164.0,160.0
3972,-924,159,0,3976.0,3977.0,-924.0,-922.0,160.0,164.0
3966,-920,158,0,3972.0,3976.0,-924.0,-924.0,159.0,160.0
3966,-920,160,0,3966.0,3972.0,-920.0,-924.0,158.0,159.0
3969,-918,158,0,3966.0,3966.0,-920.0,-920.0,160.0,158.0
3965,-923,158,0,3969.0,3966.0,-918.0,-920.0,158.0,160.0
3965,-924,156,0,3965.0,3969.0,-923.0,-918.0,158.0,158.0
3963,-924,154,0,3965.0,3965.0,-924.0,-923.0,156.0,158.0
3963,-927,151,0,3963.0,3965.0,-924.0,-924.0,154.0,156.0
3963,-929,153,0,3963.0,3963.0,-927.0,-924.0,151.0,154.0
3965,-931,147,0,3963.0,3963.0,-929.0,-927.0,153.0,151.0
3966,-932,152,0,3965.0,3963.0,-931.0,-929.0,147.0,153.0
3966,-936,154,0,3966.0,3965.0,-932.0,-931.0,152.0,147.0
3969,-936,157,0,3966.0,3966.0,-936.0,-932.0,154.0,152.0
3974,-940,158,0,3969.0,3966.0,-936.0,-936.0,157.0,154.0
3975,-946,155,0,3974.0,3969.0,-940.0,-936.0,158.0,157.0
3981,-953,156,0,3975.0,3974.0,-946.0,-940.0,155.0,158.0
3984,-952,155,0,3981.0,3975.0,-953.0,-946.0,156.0,155.0
3984,-947,157,0,3984.0,3981.0,-952.0,-953.0,155.0,156.0
3985,-950,160,0,3984.0,3984.0,-947.0,-952.0,157.0,155.0
3987,-948,161,0,3985.0,3984.0,-950.0,-947.0,160.0,157.0
3985,-949,161,0,3987.0,3985.0,-948.0,-950.0,161.0,160.0
3983,-949,161,0,3985.0,3987.0,-949.0,-948.0,161.0,161.0
3983,-950,157,0,3983.0,3985.0,-949.0,-949.0,161.0,161.0
3984,-953,152,0,3983.0,3983.0,-950.0,-949.0,157.0,161.0
3983,-954,146,0,3984.0,3983.0,-953.0,-950.0,152.0,157.0
3983,-957,143,0,3983.0,3984.0,-954.0,-953.0,146.0,152.0
3982,-961,136,0,3983.0,3983.0,-957.0,-954.0,143.0,146.0
3982,-968,133,0,3982.0,3983.0,-961.0,-957.0,136.0,143.0
3982,-969,134,0,3982.0,3982.0,-968.0,-961.0,133.0,136.0
3981,-968,138,0,3982.0,3982.0,-969.0,-968.0,134.0,133.0
3979,-969,146,0,3981.0,3982.0,-968.0,-969.0,138.0,134.0
3978,-967,150,0,3979.0,3981.0,-969.0,-968.0,146.0,138.0
3981,-962,161,0,3978.0,3979.0,-967.0,-969.0,150.0,146.0
3991,-954,176,0,3981.0,3978.0,-962.0,-967.0,161.0,150.0
3996,-945,187,0,3991.0,3981.0,-954.0,-962.0,176.0,161.0
3993,-945,186,0,3996.0,3991.0,-945.0,-954.0,187.0,176.0
3988,-944,175,0,3993.0,3996.0,-945.0,-945.0,186.0,187.0
3980,-939,162,0,3988.0,3993.0,-944.0,-945.0,175.0,186.0
3974,-933,151,0,3980.0,3988.0,-939.0,-944.0,162.0,175.0
3973,-927,144,0,3974.0,3980.0,-933.0,-939.0,151.0,162.0
3975,-918,142,0,3973.0,3974.0,-927.0,-933.0,144.0,151.0
3977,-906,144,0,3975.0,3973.0,-918.0,-927.0,142.0,144.0
3981,-892,142,0,3977.0,3975.0,-906.0,-918.0,144.0,142.0
3984,-876,142,0,3981.0,3977.0,-892.0,-906.0,142.0,144.0
3985,-868,142,0,3984.0,3981.0,-876.0,-892.0,142.0,142.0
3982,-869,136,0,3985.0,3984.0,-868.0,-876.0,142.0,142.0
3980,-872,131,0,3982.0,3985.0,-869.0,-868.0,136.0,142.0
3977,-867,125,0,3980.0,3982.0,-872.0,-869.0,131.0,136.0
3972,-861,118,0,3977.0,3980.0,-867.0,-872.0,125.0,131.0
3972,-857,118,0,3972.0,3977.0,-861.0,-867.0,118.0,125.0
3974,-848,122,0,3972.0,3972.0,-857.0,-861.0,118.0,118.0
3977,-837,126,0,3974.0,3972.0,-848.0,-857.0,122.0,118.0
3986,-828,129,0,3977.0,3974.0,-837.0,-848.0,126.0,122.0
3989,-821,135,0,3986.0,3977.0,-828.0,-837.0,129.0,126.0
3996,-816,136,0,3989.0,3986.0,-821.0,-828.0,135.0,129.0
4003,-813,136,0,3996.0,3989.0,-816.0,-821.0,136.0,135.0
4007,-809,137,0,4003.0,3996.0,-813.0,-816.0,136.0,136.0
4010,-805,136,0,4007.0,4003.0,-809.0,-813.0,137.0,136.0
4011,-804,134,0,4010.0,4007.0,-805.0,-809.0,136.0,137.0
4009,-807,134,0,4011.0,4010.0,-804.0,-805.0,134.0,136.0
4016,-806,132,0,4009.0,4011.0,-807.0,-804.0,134.0,134.0
4017,-809,131,0,4016.0,4009.0,-806.0,-807.0,132.0,134.0
4021,-815,128,0,4017.0,4016.0,-809.0,-806.0,131.0,132.0
4020,-822,126,0,4021.0,4017.0,-815.0,-809.0,128.0,131.0
4021,-827,128,0,4020.0,4021.0,-822.0,-815.0,126.0,128.0
4024,-832,125,0,4021.0,4020.0,-827.0,-822.0,128.0,126.0
4022,-834,124,0,4024.0,4021.0,-832.0,-827.0,125.0,128.0
4023,-832,121,0,4022.0,4024.0,-834.0,-832.0,124.0,125.0
4023,-832,121,0,4023.0,4022.0,-832.0,-834.0,121.0,124.0
4020,-831,121,0,4023.0,4023.0,-832.0,-832.0,121.0,121.0
4015,-827,120,0,4020.0,4023.0,-831.0,-832.0,121.0,121.0
4012,-823,119,0,4015.0,4020.0,-827.0,-831.0,120.0,121.0
4009,-818,121,0,4012.0,4015.0,-823.0,-827.0,119.0,120.0
4005,-814,126,0,4009.0,4012.0,-818.0,-823.0,121.0,119.0
3997,-811,130,0,4005.0,4009.0,-814.0,-818.0,126.0,121.0
3993,-807,134,0,3997.0,4005.0,-811.0,-814.0,130.0,126.0
3988,-811,138,0,3993.0,3997.0,-807.0,-811.0,134.0,130.0
3983,-814,137,0,3988.0,3993.0,-811.0,-807.0,138.0,134.0
3978,-822,140,0,3983.0,3988.0,-814.0,-811.0,137.0,138.0
3973,-826,144,0,3978.0,3983.0,-822.0,-814.0,140.0,137.0
3973,-834,148,0,3973.0,3978.0,-826.0,-822.0,144.0,140.0
3974,-847,144,0,3973.0,3973.0,-834.0,-826.0,148.0,144.0
3980,-856,143,0,3974.0,3973.0,-847.0,-834.0,144.0,148.0
3981,-867,145,0,3980.0,3974.0,-856.0,-847.0,143.0,144.0
3984,-875,147,0,3981.0,3980.0,-867.0,-856.0,145.0,143.0
3984,-883,143,0,3984.0,3981.0,-875.0,-867.0,147.0,145.0
3986,-886,143,0,3984.0,3984.0,-883.0,-875.0,143.0,147.0
3989,-891,144,0,3986.0,3984.0,-886.0,-883.0,143.0,143.0
3988,-899,142,0,3989.0,3986.0,-891.0,-886.0,144.0,143.0
3988,-901,143,0,3988.0,3989.0,-899.0,-891.0,142.0,144.0
3987,-909,144,0,3988.0,3988.0,-901.0,-899.0,143.0,142.0
3990,-915,147,0,3987.0,3988.0,-909.0,-901.0,144.0,143.0
3994,-915,148,0,3990.0,3987.0,-915.0,-909.0,147.0,144.0
3997,-918,152,0,3994.0,3990.0,-915.0,-915.0,148.0,147.0
3999,-920,152,0,3997.0,3994.0,-918.0,-915.0,152.0,148.0
4006,-922,158,0,3999.0,3997.0,-920.0,-918.0,152.0,152.0
4006,-925,160,0,4006.0,3999.0,-922.0,-920.0,158.0,152.0
4005,-929,154,0,4006.0,4006.0,-925.0,-922.0,160.0,158.0
4003,-925,155,0,4005.0,4006.0,-929.0,-925.0,154.0,160.0
4004,-924,153,0,4003.0,4005.0,-925.0,-929.0,155.0,154.0
4002,-920,154,0,4004.0,4003.0,-924.0,-925.0,153.0,155.0
3994,-918,161,0,4002.0,4004.0,-920.0,-924.0,154.0,153.0
3989,-913,164,0,3994.0,4002.0,-918.0,-920.0,161.0,154.0
3980,-908,165,0,3989.0,3994.0,-913.0,-918.0,164.0,161.0
3973,-909,167,0,3980.0,3989.0,-908.0,-913.0,165.0,164.0
3964,-907,166,0,3973.0,3980.0,-909.0,-908.0,167.0,165.0
3958,-909,166,0,3964.0,3973.0,-907.0,-909.0,166.0,167.0
3954,-910,168,0,3958.0,3964.0,-909.0,-907.0,166.0,166.0
3950,-912,163,0,3954.0,3958.0,-910.0,-909.0,168.0,166.0
3950,-919,159,0,3950.0,3954.0,-912.0,-910.0,163.0,168.0
3953,-925,154,0,3950.0,3950.0,-919.0,-912.0,159.0,163.0
3956,-930,156,0,3953.0,3950.0,-925.0,-919.0,154.0,159.0
3960,-929,156,0,3956.0,3953.0,-930.0,-925.0,156.0,154.0
3970,-928,155,0,3960.0,3956.0,-929.0,-930.0,156.0,156.0
3981,-925,150,0,3970.0,3960.0,-928.0,-929.0,155.0,156.0
3982,-922,148,0,3981.0,3970.0,-925.0,-928.0,150.0,155.0
3985,-916,144,0,3982.0,3981.0,-922.0,-925.0,148.0,150.0
3991,-913,144,0,3985.0,3982.0,-916.0,-922.0,144.0,148.0
3995,-911,140,0,3991.0,3985.0,-913.0,-916.0,144.0,144.0
3992,-908,136,0,3995.0,3991.0,-911.0,-913.0,140.0,144.0
3994,-901,135,0,3992.0,3995.0,-908.0,-911.0,136.0,140.0
3997,-899,130,0,3994.0,3992.0,-901.0,-908.0,135.0,136.0
4001,-896,125,0,3997.0,3994.0,-899.0,-901.0,130.0,135.0
4001,-896,122,0,4001.0,3997.0,-896.0,-899.0,125.0,130.0
3993,-892,114,0,4001.0,4001.0,-896.0,-896.0,122.0,125.0
3988,-886,117,0,3993.0,4001.0,-892.0,-896.0,114.0,122.0
3984,-883,120,0,3988.0,3993.0,-886.0,-892.0,117.0,114.0
3980,-878,123,0,3984.0,3988.0,-883.0,-886.0,120.0,117.0
3977,-879,123,0,3980.0,3984.0,-878.0,-883.0,123.0,120.0
3978,-880,123,0,3977.0,3980.0,-879.0,-878.0,123.0,123.0
3981,-879,122,0,3978.0,3977.0,-880.0,-879.0,123.0,123.0
3982,-880,124,0,3981.0,3978.0,-879.0,-880.0,122.0,123.0
3984,-882,126,0,3982.0,3981.0,-880.0,-879.0,124.0,122.0
3988,-882,129,0,3984.0,3982.0,-882.0,-880.0,126.0,124.0
3989,-885,131,0,3988.0,3984.0,-882.0,-882.0,129.0,126.0
3989,-891,136,0,3989.0,3988.0,-885.0,-882.0,131.0,129.0
3984,-892,141,0,3989.0,3989.0,-891.0,-885.0,136.0,131.0
3982,-897,142,0,3984.0,3989.0,-892.0,-891.0,141.0,136.0
3980,-898,141,0,3982.0,3984.0,-897.0,-892.0,142.0,141.0
3979,-902,142,0,3980.0,3982.0,-898.0,-897.0,141.0,142.0
3981,-908,136,0,3979.0,3980.0,-902.0,-898.0,142.0,141.0
3977,-909,132,0,3981.0,3979.0,-908.0,-902.0,136.0,142.0
3980,-912,126,0,3977.0,3981.0,-909.0,-908.0,132.0,136.0
3980,-913,127,0,3980.0,3977.0,-912.0,-909.0,126.0,132.0
3981,-916,129,0,3980.0,3980.0,-913.0,-912.0,127.0,126.0
3983,-914,137,0,3981.0,3980.0,-916.0,-913.0,129.0,127.0
3989,-912,143,0,3983.0,3981.0,-914.0,-916.0,137.0,129.0
3997,-911,153,0,3989.0,3983.0,-912.0,-914.0,143.0,137.0
3999,-903,163,0,3997.0,3989.0,-911.0,-912.0,153.0,143.0
3996,-895,168,0,3999.0,3997.0,-903.0,-911.0,163.0,153.0
3990,-889,158,0,3996.0,3999.0,-895.0,-903.0,168.0,163.0
3982,-885,151,0,3990.0,3996.0,-889.0,-895.0,158.0,168.0
3975,-883,144,0,3982.0,3990.0,-885.0,-889.0,151.0,158.0
3967,-887,134,0,3975.0,3982.0,-883.0,-885.0,144.0,151.0
3970,-888,128,0,3967.0,3975.0,-887.0,-883.0,134.0,144.0
3969,-884,126,0,3970.0,3967.0,-888.0,-887.0,128.0,134.0
3974,-876,127,0,3969.0,3970.0,-884.0,-888.0,126.0,128.0
3977,-874,132,0,3974.0,3969.0,-876.0,-884.0,127.0,126.0
3978,-868,140,0,3977.0,3974.0,-874.0,-876.0,132.0,127.0
3982,-871,141,0,3978.0,3977.0,-868.0,-874.0,140.0,132.0
3984,-875,144,0,3982.0,3978.0,-871.0,-868.0,141.0,140.0
3986,-877,143,0,3984.0,3982.0,-875.0,-871.0,144.0,141.0
3991,-882,141,0,3986.0,3984.0,-877.0,-875.0,143.0,144.0
3997,-881,143,0,3991.0,3986.0,-882.0,-877.0,141.0,143.0
4001,-883,142,0,3997.0,3991.0,-881.0,-882.0,143.0,141.0
4008,-885,146,0,4001.0,3997.0,-883.0,-881.0,142.0,143.0
4011,-882,147,0,4008.0,4001.0,-885.0,-883.0,146.0,142.0
4010,-881,153,0,4011.0,4008.0,-882.0,-885.0,147.0,146.0
4014,-881,155,0,4010.0,4011.0,-881.0,-882.0,153.0,147.0
4013,-884,157,0,4014.0,4010.0,-881.0,-881.0,155.0,153.0
4009,-885,157,0,4013.0,4014.0,-884.0,-881.0,157.0,155.0
4007,-883,156,0,4009.0,4013.0,-885.0,-884.0,157.0,157.0
4008,-882,154,0,4007.0,4009.0,-883.0,-885.0,156.0,157.0
4002,-875,151,0,4008.0,4007.0,-882.0,-883.0,154.0,156.0
3999,-873,149,0,4002.0,4008.0,-875.0,-882.0,151.0,154.0
3998,-869,146,0,3999.0,4002.0,-873.0,-875.0,149.0,151.0
3994,-869,146,0,3998.0,3999.0,-869.0,-873.0,146.0,149.0
3991,-864,147,0,3994.0,3998.0,-869.0,-869.0,146.0,146.0
3995,-865,147,0,3991.0,3994.0,-864.0,-869.0,147.0,146.0
3999,-865,147,0,3995.0,3991.0,-865.0,-864.0,147.0,147.0
3995,-863,144,0,3999.0,3995.0,-865.0,-865.0,147.0,147.0
3998,-861,141,0,3995.0,3999.0,-863.0,-865.0,144.0,147.0
3999,-855,142,0,3998.0,3995.0,-861.0,-863.0,141.0,144.0
4000,-852,140,0,3999.0,3998.0,-855.0,-861.0,142.0,141.0
4001,-847,144,0,4000.0,3999.0,-852.0,-855.0,140.0,142.0
4004,-849,137,0,4001.0,4000.0,-847.0,-852.0,144.0,140.0
4004,-853,133,0,4004.0,4001.0,-849.0,-847.0,137.0,144.0
4003,-855,135,0,4004.0,4004.0,-853.0,-849.0,133.0,137.0
3999,-855,138,0,4003.0,4004.0,-855.0,-853.0,135.0,133.0
3996,-855,142,0,3999.0,4003.0,-855.0,-855.0,138.0,135.0
3996,-855,145,0,3996.0,3999.0,-855.0,-855.0,142.0,138.0
3992,-856,148,0,3996.0,3996.0,-855.0,-855.0,145.0,142.0
3992,-856,149,0,3992.0,3996.0,-856.0,-855.0,148.0,145.0
3989,-857,151,0,3992.0,3992.0,-856.0,-856.0,149.0,148.0
3986,-855,150,0,3989.0,3992.0,-857.0,-856.0,151.0,149.0
3981,-853,151,0,3986.0,3989.0,-855.0,-857.0,150.0,151.0
3978,-855,154,0,3981.0,3986.0,-853.0,-855.0,151.0,150.0
3980,-854,158,0,3978.0,3981.0,-855.0,-853.0,154.0,151.0
3979,-855,159,0,3980.0,3978.0,-854.0,-855.0,158.0,154.0
3983,-856,163,0,3979.0,3980.0,-855.0,-854.0,159.0,158.0
3988,-857,160,0,3983.0,3979.0,-856.0,-855.0,163.0,159.0
3997,-858,157,0,3988.0,3983.0,-857.0,-856.0,160.0,163.0
4007,-858,153,0,3997.0,3988.0,-858.0,-857.0,157.0,160.0
4019,-857,152,0,4007.0,3997.0,-858.0,-858.0,153.0,157.0
4025,-856,146,0,4019.0,4007.0,-857.0,-858.0,152.0,153.0
4023,-852,141,0,4025.0,4019.0,-856.0,-857.0,146.0,152.0
4025,-843,139,0,4023.0,4025.0,-852.0,-856.0,141.0,146.0
4021,-830,137,0,4025.0,4023.0,-843.0,-852.0,139.0,141.0
4021,-822,139,0,4021.0,4025.0,-830.0,-843.0,137.0,139.0
4017,-811,138,0,4021.0,4021.0,-822.0,-830.0,139.0,137.0
4016,-803,137,0,4017.0,4021.0,-811.0,-822.0,138.0,139.0
4015,-803,133,0,4016.0,4017.0,-803.0,-811.0,137.0,138.0
4011,-802,125,0,4015.0,4016.0,-803.0,-803.0,133.0,137.0
4011,-802,120,0,4011.0,4015.0,-802.0,-803.0,125.0,133.0
4013,-803,110,0,4011.0,4011.0,-802.0,-802.0,120.0,125.0
4012,-805,109,0,4013.0,4011.0,-803.0,-802.0,110.0,120.0
4014,-805,108,0,4012.0,4013.0,-805.0,-803.0,109.0,110.0
4017,-804,105,0,4014.0,4012.0,-805.0,-805.0,108.0,109.0
4014,-803,106,0,4017.0,4014.0,-804.0,-805.0,105.0,108.0
4013,-802,107,0,4014.0,4017.0,-803.0,-804.0,106.0,105.0
4006,-805,109,0,4013.0,4014.0,-802.0,-803.0,107.0,106.0
4005,-808,114,0,4006.0,4013.0,-805.0,-802.0,109.0,107.0
4001,-813,121,0,4005.0,4006.0,-808.0,-805.0,114.0,109.0
3995,-817,125,0,4001.0,4005.0,-813.0,-808.0,121.0,114.0
3991,-824,134,0,3995.0,4001.0,-817.0,-813.0,125.0,121.0
3991,-829,130,0,3991.0,3995.0,-824.0,-817.0,134.0,125.0
3993,-833,123,0,3991.0,3991.0,-829.0,-824.0,130.0,134.0
3988,-834,116,0,3993.0,3991.0,-833.0,-829.0,123.0,130.0
3980,-840,110,0,3988.0,3993.0,-834.0,-833.0,116.0,123.0
3982,-843,109,0,3980.0,3988.0,-840.0,-834.0,110.0,116.0
3983,-853,103,0,3982.0,3980.0,-843.0,-840.0,109.0,110.0
3981,-861,104,0,3983.0,3982.0,-853.0,-843.0,103.0,109.0
3984,-868,107,0,3981.0,3983.0,-861.0,-853.0,104.0,103.0
3989,-876,108,0,3984.0,3981.0,-868.0,-861.0,107.0,104.0
3990,-884,116,0,3989.0,3984.0,-876.0,-868.0,108.0,107.0
3990,-889,120,0,3990.0,3989.0,-884.0,-876.0,116.0,108.0
3997,-898,126,0,3990.0,3990.0,-889.0,-884.0,120.0,116.0
3999,-915,130,0,3997.0,3990.0,-898.0,-889.0,126.0,120.0
3997,-926,137,0,3999.0,3997.0,-915.0,-898.0,130.0,126.0
4000,-938,142,0,3997.0,3999.0,-926.0,-915.0,137.0,130.0
3998,-947,144,0,4000.0,3997.0,-938.0,-926.0,142.0,137.0
3990,-950,142,0,3998.0,4000.0,-947.0,-938.0,144.0,142.0
3976,-955,140,0,3990.0,3998.0,-950.0,-947.0,142.0,144.0
3967,-959,148,0,3976.0,3990.0,-955.0,-950.0,140.0,142.0
3956,-956,153,0,3967.0,3976.0,-959.0,-955.0,148.0,140.0
3939,-955,161,0,3956.0,3967.0,-956.0,-959.0,153.0,148.0
3931,-956,164,0,3939.0,3956.0,-955.0,-956.0,161.0,153.0
3925,-960,160,0,3931.0,3939.0,-956.0,-955.0,164.0,161.0
3924,-965,162,0,3925.0,3931.0,-960.0,-956.0,160.0,164.0
3925,-965,163,0,3924.0,3925.0,-965.0,-960.0,162.0,160.0
3929,-960,164,0,3925.0,3924.0,-965.0,-965.0,163.0,162.0
3937,-957,165,0,3929.0,3925.0,-960.0,-965.0,164.0,163.0
3944,-954,163,0,3937.0,3929.0,-957.0,-960.0,165.0,164.0
3954,-950,160,0,3944.0,3937.0,-954.0,-957.0,163.0,165.0
3959,-944,159,0,3954.0,3944.0,-950.0,-954.0,160.0,163.0
3968,-941,165,0,3959.0,3954.0,-944.0,-950.0,159.0,160.0
3974,-935,160,0,3968.0,3959.0,-941.0,-944.0,165.0,159.0
3978,-925,157,0,3974.0,3968.0,-935.0,-941.0,160.0,165.0
3981,-924,151,0,3978.0,3974.0,-925.0,-935.0,157.0,160.0
3987,-922,141,0,3981.0,3978.0,-924.0,-925.0,151.0,157.0
3986,-918,133,0,3987.0,3981.0,-922.0,-924.0,141.0,151.0
3991,-920,131,0,3986.0,3987.0,-918.0,-922.0,133.0,141.0
3996,-918,131,0,3991.0,3986.0,-920.0,-918.0,131.0,133.0
3998,-916,132,0,3996.0,3991.0,-918.0,-920.0,131.0,131.0
4001,-912,139,0,3998.0,3996.0,-916.0,-918.0,132.0,131.0
4006,-911,148,0,4001.0,3998.0,-912.0,-916.0,139.0,132.0
4009,-908,159,0,4006.0,4001.0,-911.0,-912.0,148.0,139.0
4009,-904,166,0,4009.0,4006.0,-908.0,-911.0,159.0,148.0
4005,-900,164,0,4009.0,4009.0,-904.0,-908.0,166.0,159.0
3996,-906,161,0,4005.0,4009.0,-900.0,-904.0,164.0,166.0
3994,-911,152,0,3996.0,4005.0,-906.0,-900.0,161.0,164.0
3987,-916,145,0,3994.0,3996.0,-911.0,-906.0,152.0,161.0
3984,-915,143,0,3987.0,3994.0,-916.0,-911.0,145.0,152.0
3983,-914,143,0,3984.0,3987.0,-915.0,-916.0,143.0,145.0
3988,-917,147,0,3983.0,3984.0,-914.0,-915.0,143.0,143.0
3992,-913,152,0,3988.0,3983.0,-917.0,-914.0,147.0,143.0
3990,-913,156,0,3992.0,3988.0,-913.0,-917.0,152.0,147.0
3986,-914,154,0,3990.0,3992.0,-913.0,-913.0,156.0,152.0
3984,-917,151,0,3986.0,3990.0,-914.0,-913.0,154.0,156.0
3980,-918,149,0,3984.0,3986.0,-917.0,-914.0,151.0,154.0
3977,-921,148,0,3980.0,3984.0,-918.0,-917.0,149.0,151.0
3977,-919,149,0,3977.0,3980.0,-921.0,-918.0,148.0,149.0
3972,-916,154,0,3977.0,3977.0,-919.0,-921.0,149.0,148.0
3971,-916,155,0,3972.0,3977.0,-916.0,-919.0,154.0,149.0
3971,-913,153,0,3971.0,3972.0,-916.0,-916.0,155.0,154.0
3975,-906,155,0,3971.0,3971.0,-913.0,-916.0,153.0,155.0
3980,-898,155,0,3975.0,3971.0,-906.0,-913.0,155.0,153.0
3982,-888,154,0,3980.0,3975.0,-898.0,-906.0,155.0,155.0
3984,-879,152,0,3982.0,3980.0,-888.0,-898.0,154.0,155.0
3983,-869,145,0,3984.0,3982.0,-879.0,-888.0,152.0,154.0
3985,-868,141,0,3983.0,3984.0,-869.0,-879.0,145.0,152.0
3986,-868,136,0,3985.0,3983.0,-868.0,-869.0,141.0,145.0
3987,-865,131,0,3986.0,3985.0,-868.0,-868.0,136.0,141.0
3986,-860,129,0,3987.0,3986.0,-865.0,-868.0,131.0,136.0
3987,-855,129,0,3986.0,3987.0,-860.0,-865.0,129.0,131.0
3989,-855,128,0,3987.0,3986.0,-855.0,-860.0,129.0,129.0
3987,-845,124,0,3989.0,3987.0,-855.0,-855.0,128.0,129.0
3987,-840,120,0,3987.0,3989.0,-845.0,-855.0,124.0,128.0
3984,-835,118,0,3987.0,3987.0,-840.0,-845.0,120.0,124.0
3986,-832,119,0,3984.0,3987.0,-835.0,-840.0,118.0,120.0
3991,-827,114,0,3986.0,3984.0,-832.0,-835.0,119.0,118.0
3995,-825,115,0,3991.0,3986.0,-827.0,-832.0,114.0,119.0
4000,-829,111,0,3995.0,3991.0,-825.0,-827.0,115.0,114.0
4005,-825,115,0,4000.0,3995.0,-829.0,-825.0,111.0,115.0
4008,-831,114,0,4005.0,4000.0,-825.0,-829.0,115.0,111.0
4011,-832,120,0,4008.0,4005.0,-831.0,-825.0,114.0,115.0
4013,-834,123,0,4011.0,4008.0,-832.0,-831.0,120.0,114.0
4012,-841,125,0,4013.0,4011.0,-834.0,-832.0,123.0,120.0
4011,-846,127,0,4012.0,4013.0,-841.0,-834.0,125.0,123.0
4005,-857,128,0,4011.0,4012.0,-846.0,-841.0,127.0,125.0
4001,-864,133,0,4005.0,4011.0,-857.0,-846.0,128.0,127.0
4003,-872,129,0,4001.0,4005.0,-864.0,-857.0,133.0,128.0
3995,-878,132,0,4003.0,4001.0,-872.0,-864.0,129.0,133.0
3993,-881,129,0,3995.0,4003.0,-878.0,-872.0,132.0,129.0
3998,-880,131,0,3993.0,3995.0,-881.0,-878.0,129.0,132.0
3990,-886,128,0,3998.0,3993.0,-880.0,-881.0,131.0,129.0
3991,-886,124,0,3990.0,3998.0,-886.0,-880.0,128.0,131.0
3992,-887,121,0,3991.0,3990.0,-886.0,-886.0,124.0,128.0
3989,-891,118,0,3992.0,3991.0,-887.0,-886.0,121.0,124.0
3985,-886,117,0,3989.0,3992.0,-891.0,-887.0,118.0,121.0
3979,-885,115,0,3985.0,3989.0,-886.0,-891.0,117.0,118.0
3977,-882,113,0,3979.0,3985.0,-885.0,-886.0,115.0,117.0
3979,-879,116,0,3977.0,3979.0,-882.0,-885.0,113.0,115.0
3979,-877,118,0,3979.0,3977.0,-879.0,-882.0,116.0,113.0
3977,-874,117,0,3979.0,3979.0,-877.0,-879.0,118.0,116.0
3975,-872,118,0,3977.0,3979.0,-874.0,-877.0,117.0,118.0
3977,-874,121,0,3975.0,3977.0,-872.0,-874.0,118.0,117.0
3978,-873,123,0,3977.0,3975.0,-874.0,-872.0,121.0,118.0
3978,-877,125,0,3978.0,3977.0,-873.0,-874.0,123.0,121.0
3980,-881,129,0,3978.0,3978.0,-877.0,-873.0,125.0,123.0
3981,-885,132,0,3980.0,3978.0,-881.0,-877.0,129.0,125.0
3983,-889,136,0,3981.0,3980.0,-885.0,-881.0,132.0,129.0
3980,-889,138,0,3983.0,3981.0,-889.0,-885.0,136.0,132.0
3984,-892,141,0,3980.0,3983.0,-889.0,-889.0,138.0,136.0
3984,-892,141,0,3984.0,3980.0,-892.0,-889.0,141.0,138.0
3986,-889,144,0,3984.0,3984.0,-892.0,-892.0,141.0,141.0
3985,-886,147,0,3986.0,3984.0,-889.0,-892.0,144.0,141.0
3989,-886,153,0,3985.0,3986.0,-886.0,-889.0,147.0,144.0
3986,-880,153,0,3989.0,3985.0,-886.0,-886.0,153.0,147.0
3991,-874,154,0,3986.0,3989.0,-880.0,-886.0,153.0,153.0
3994,-867,156,0,3991.0,3986.0,-874.0,-880.0,154.0,153.0
3994,-859,155,0,3994.0,3991.0,-867.0,-874.0,156.0,154.0
3997,-852,151,0,3994.0,3994.0,-859.0,-867.0,155.0,156.0
3999,-849,150,0,3997.0,3994.0,-852.0,-859.0,151.0,155.0
3998,-842,149,0,3999.0,3997.0,-849.0,-852.0,150.0,151.0
3999,-840,147,0,3998.0,3999.0,-842.0,-849.0,149.0,150.0
3997,-839,147,0,3999.0,3998.0,-840.0,-842.0,147.0,149.0
4000,-842,143,0,3997.0,3999.0,-839.0,-840.0,147.0,147.0
4004,-843,140,0,4000.0,3997.0,-842.0,-839.0,143.0,147.0
4005,-845,145,0,4004.0,4000.0,-843.0,-842.0,140.0,143.0
4008,-850,145,0,4005.0,4004.0,-845.0,-843.0,145.0,140.0
4004,-853,144,0,4008.0,4005.0,-850.0,-845.0,145.0,145.0
4004,-853,143,0,4004.0,4008.0,-853.0,-850.0,144.0,145.0
4004,-854,141,0,4004.0,4004.0,-853.0,-853.0,143.0,144.0
4004,-857,144,0,4004.0,4004.0,-854.0,-853.0,141.0,143.0
4005,-860,145,0,4004.0,4004.0,-857.0,-854.0,144.0,141.0
4006,-861,146,0,4005.0,4004.0,-860.0,-857.0,145.0,144.0
4004,-866,146,0,4006.0,4005.0,-861.0,-860.0,146.0,145.0
4001,-868,147,0,4004.0,4006.0,-866.0,-861.0,146.0,146.0
4005,-874,149,0,4001.0,4004.0,-868.0,-866.0,147.0,146.0
4007,-877,150,0,4005.0,4001.0,-874.0,-868.0,149.0,147.0
4007,-883,146,0,4007.0,4005.0,-877.0,-874.0,150.0,149.0
4007,-885,142,0,4007.0,4007.0,-883.0,-877.0,146.0,150.0
4008,-890,139,0,4007.0,4007.0,-885.0,-883.0,142.0,146.0
4008,-889,142,0,4008.0,4007.0,-890.0,-885.0,139.0,142.0
4008,-888,144,0,4008.0,4008.0,-889.0,-890.0,142.0,139.0
4006,-888,147,0,4008.0,4008.0,-888.0,-889.0,144.0,142.0
4000,-889,146,0,4006.0,4008.0,-888.0,-888.0,147.0,144.0
3997,-891,144,0,4000.0,4006.0,-889.0,-888.0,146.0,147.0
3992,-887,146,0,3997.0,4000.0,-891.0,-889.0,144.0,146.0
3985,-885,144,0,3992.0,3997.0,-887.0,-891.0,146.0,144.0
3980,-883,148,0,3985.0,3992.0,-885.0,-887.0,144.0,146.0
3981,-885,150,0,3980.0,3985.0,-883.0,-885.0,148.0,144.0
3980,-888,150,0,3981.0,3980.0,-885.0,-883.0,150.0,148.0
3978,-889,147,0,3980.0,3981.0,-888.0,-885.0,150.0,150.0
3978,-892,144,0,3978.0,3980.0,-889.0,-888.0,147.0,150.0
3980,-892,142,0,3978.0,3978.0,-892.0,-889.0,144.0,147.0
3979,-892,144,0,3980.0,3978.0,-892.0,-892.0,142.0,144.0
3978,-893,142,0,3979.0,3980.0,-892.0,-892.0,144.0,142.0
3985,-895,144,0,3978.0,3979.0,-893.0,-892.0,142.0,144.0
3985,-896,137,0,3985.0,3978.0,-895.0,-893.0,144.0,142.0
3987,-893,131,0,3985.0,3985.0,-896.0,-895.0,137.0,144.0
3991,-892,128,0,3987.0,3985.0,-893.0,-896.0,131.0,137.0
3991,-887,127,0,3991.0,3987.0,-892.0,-893.0,128.0,131.0
3994,-886,132,0,3991.0,3991.0,-887.0,-892.0,127.0,128.0
3995,-886,135,0,3994.0,3991.0,-886.0,-887.0,132.0,127.0
3997,-889,139,0,3995.0,3994.0,-886.0,-886.0,135.0,132.0
4001,-891,147,0,3997.0,3995.0,-889.0,-886.0,139.0,135.0
4004,-890,154,0,4001.0,3997.0,-891.0,-889.0,147.0,139.0
4004,-892,154,0,4004.0,4001.0,-890.0,-891.0,154.0,147.0
4004,-894,152,0,4004.0,4004.0,-892.0,-890.0,154.0,154.0
3999,-897,144,0,4004.0,4004.0,-894.0,-892.0,152.0,154.0
3991,-902,135,0,3999.0,4004.0,-897.0,-894.0,144.0,152.0
3982,-905,128,0,3991.0,3999.0,-902.0,-897.0,135.0,144.0
3978,-905,124,0,3982.0,3991.0,-905.0,-902.0,128.0,135.0
3974,-909,126,0,3978.0,3982.0,-905.0,-905.0,124.0,128.0
3971,-909,129,0,3974.0,3978.0,-909.0,-905.0,126.0,124.0
3971,-907,132,0,3971.0,3974.0,-909.0,-909.0,129.0,126.0
3971,-911,135,0,3971.0,3971.0,-907.0,-909.0,132.0,129.0
3972,-914,135,0,3971.0,3971.0,-911.0,-907.0,135.0,132.0
3972,-921,132,0,3972.0,3971.0,-914.0,-911.0,135.0,135.0
3966,-923,128,0,3972.0,3972.0,-921.0,-914.0,132.0,135.0
3968,-926,127,0,3966.0,3972.0,-923.0,-921.0,128.0,132.0
3966,-930,126,0,3968.0,3966.0,-926.0,-923.0,127.0,128.0
3968,-933,127,0,3966.0,3968.0,-930.0,-926.0,126.0,127.0
3969,-936,134,0,3968.0,3966.0,-933.0,-930.0,127.0,126.0
3978,-935,138,0,3969.0,3968.0,-936.0,-933.0,134.0,127.0
3984,-933,142,0,3978.0,3969.0,-935.0,-936.0,138.0,134.0
3986,-931,142,0,3984.0,3978.0,-933.0,-935.0,142.0,138.0
3994,-932,142,0,3986.0,3984.0,-931.0,-933.0,142.0,142.0
3992,-931,143,0,3994.0,3986.0,-932.0,-931.0,142.0,142.0
3994,-928,141,0,3992.0,3994.0,-931.0,-932.0,143.0,142.0
3999,-926,141,0,3994.0,3992.0,-928.0,-931.0,141.0,143.0
3999,-925,136,0,3999.0,3994.0,-926.0,-928.0,141.0,141.0
3995,-924,133,0,3999.0,3999.0,-925.0,-926.0,136.0,141.0
3994,-919,131,0,3995.0,3999.0,-924.0,-925.0,133.0,136.0
3990,-915,123,0,3994.0,3995.0,-919.0,-924.0,131.0,133.0
3986,-909,119,0,3990.0,3994.0,-915.0,-919.0,123.0,131.0
3985,-901,121,0,3986.0,3990.0,-909.0,-915.0,119.0,123.0
3983,-891,122,0,3985.0,3986.0,-901.0,-909.0,121.0,119.0
3985,-884,121,0,3983.0,3985.0,-891.0,-901.0,122.0,121.0
3984,-879,123,0,3985.0,3983.0,-884.0,-891.0,121.0,122.0
3985,-876,126,0,3984.0,3985.0,-879.0,-884.0,123.0,121.0
3986,-873,125,0,3985.0,3984.0,-876.0,-879.0,126.0,123.0
3987,-872,127,0,3986.0,3985.0,-873.0,-876.0,125.0,126.0
3985,-876,127,0,3987.0,3986.0,-872.0,-873.0,127.0,125.0
3986,-874,128,0,3985.0,3987.0,-876.0,-872.0,127.0,127.0
3990,-877,129,0,3986.0,3985.0,-874.0,-876.0,128.0,127.0
3988,-881,131,0,3990.0,3986.0,-877.0,-874.0,129.0,128.0
3988,-886,131,0,3988.0,3990.0,-881.0,-877.0,131.0,129.0
3992,-894,132,0,3988.0,3988.0,-886.0,-881.0,131.0,131.0
3991,-898,134,0,3992.0,3988.0,-894.0,-886.0,132.0,131.0
3990,-902,134,0,3991.0,3992.0,-898.0,-894.0,134.0,132.0
3990,-906,133,0,3990.0,3991.0,-902.0,-898.0,134.0,134.0
3990,-907,130,0,3990.0,3990.0,-906.0,-902.0,133.0,134.0
3991,-908,130,0,3990.0,3990.0,-907.0,-906.0,130.0,133.0
3993,-907,128,0,3991.0,3990.0,-908.0,-907.0,130.0,130.0
3992,-907,126,0,3993.0,3991.0,-907.0,-908.0,128.0,130.0
3994,-907,123,0,3992.0,3993.0,-907.0,-907.0,126.0,128.0
3994,-909,120,0,3994.0,3992.0,-907.0,-907.0,123.0,126.0
3992,-910,119,0,3994.0,3994.0,-909.0,-907.0,120.0,123.0
3993,-909,117,0,3992.0,3994.0,-910.0,-909.0,119.0,120.0
3990,-912,119,0,3993.0,3992.0,-909.0,-910.0,117.0,119.0
3989,-915,121,0,3990.0,3993.0,-912.0,-909.0,119.0,117.0
3989,-911,120,0,3989.0,3990.0,-915.0,-912.0,121.0,119.0
3990,-909,116,0,3989.0,3989.0,-911.0,-915.0,120.0,121.0
3991,-912,121,0,3990.0,3989.0,-909.0,-911.0,116.0,120.0
3984,-912,124,0,3991.0,3990.0,-912.0,-909.0,121.0,116.0
3984,-918,122,0,3984.0,3991.0,-912.0,-912.0,124.0,121.0
3982,-914,120,0,3984.0,3984.0,-918.0,-912.0,122.0,124.0
3979,-912,122,0,3982.0,3984.0,-914.0,-918.0,120.0,122.0
3978,-907,120,0,3979.0,3982.0,-912.0,-914.0,122.0,120.0
3977,-904,123,0,3978.0,3979.0,-907.0,-912.0,120.0,122.0
3979,-898,127,0,3977.0,3978.0,-904.0,-907.0,123.0,120.0
3977,-896,128,0,3979.0,3977.0,-898.0,-904.0,127.0,123.0
3978,-893,130,0,3977.0,3979.0,-896.0,-898.0,128.0,127.0
3981,-894,127,0,3978.0,3977.0,-893.0,-896.0,130.0,128.0
3982,-894,128,0,3981.0,3978.0,-894.0,-893.0,127.0,130.0
3980,-894,129,0,3982.0,3981.0,-894.0,-894.0,128.0,127.0
3983,-891,129,0,3980.0,3982.0,-894.0,-894.0,129.0,128.0
3993,-893,129,0,3983.0,3980.0,-891.0,-894.0,129.0,129.0
3998,-892,126,0,3993.0,3983.0,-893.0,-891.0,129.0,129.0
4003,-894,128,0,3998.0,3993.0,-892.0,-893.0,126.0,129.0
4003,-893,131,0,4003.0,3998.0,-894.0,-892.0,128.0,126.0
4006,-894,132,0,4003.0,4003.0,-893.0,-894.0,131.0,128.0
4005,-897,128,0,4006.0,4003.0,-894.0,-893.0,132.0,131.0
4005,-897,130,0,4005.0,4006.0,-897.0,-894.0,128.0,132.0
4004,-899,128,0,4005.0,4005.0,-897.0,-897.0,130.0,128.0
4000,-900,130,0,4004.0,4005.0,-899.0,-897.0,128.0,130.0
3995,-904,130,0,4000.0,4004.0,-900.0,-899.0,130.0,128.0
3990,-906,133,0,3995.0,4000.0,-904.0,-900.0,130.0,130.0
3986,-910,137,0,3990.0,3995.0,-906.0,-904.0,133.0,130.0
3984,-910,136,0,3986.0,3990.0,-910.0,-906.0,137.0,133.0
3975,-911,139,0,3984.0,3986.0,-910.0,-910.0,136.0,137.0
3975,-912,139,0,3975.0,3984.0,-911.0,-910.0,139.0,136.0
3971,-914,137,0,3975.0,3975.0,-912.0,-911.0,139.0,139.0
3968,-915,137,0,3971.0,3975.0,-914.0,-912.0,137.0,139.0
3968,-917,138,0,3968.0,3971.0,-915.0,-914.0,137.0,137.0
3963,-920,139,0,3968.0,3968.0,-917.0,-915.0,138.0,137.0
3968,-927,138,0,3963.0,3968.0,-920.0,-917.0,139.0,138.0
3967,-927,134,0,3968.0,3963.0,-927.0,-920.0,138.0,139.0
3971,-930,135,0,3967.0,3968.0,-927.0,-927.0,134.0,138.0
3975,-933,137,0,3971.0,3967.0,-930.0,-927.0,135.0,134.0
3977,-938,138,0,3975.0,3971.0,-933.0,-930.0,137.0,135.0
3978,-942,138,0,3977.0,3975.0,-938.0,-933.0,138.0,137.0
3978,-946,140,0,3978.0,3977.0,-942.0,-938.0,138.0,138.0
3978,-948,141,0,3978.0,3978.0,-946.0,-942.0,140.0,138.0
3979,-942,142,0,3978.0,3978.0,-948.0,-946.0,141.0,140.0
3978,-940,147,0,3979.0,3978.0,-942.0,-948.0,142.0,141.0
3979,-938,146,0,3978.0,3979.0,-940.0,-942.0,147.0,142.0
3978,-937,142,0,3979.0,3978.0,-938.0,-940.0,146.0,147.0
3979,-937,143,0,3978.0,3979.0,-937.0,-938.0,142.0,146.0
3977,-936,143,0,3979.0,3978.0,-937.0,-937.0,143.0,142.0
3974,-934,150,0,3977.0,3979.0,-936.0,-937.0,143.0,143.0
3973,-933,152,0,3974.0,3977.0,-934.0,-936.0,150.0,143.0
3973,-937,159,0,3973.0,3974.0,-933.0,-934.0,152.0,150.0
3972,-939,158,0,3973.0,3973.0,-937.0,-933.0,159.0,152.0
3966,-946,152,0,3972.0,3973.0,-939.0,-937.0,158.0,159.0
3965,-948,154,0,3966.0,3972.0,-946.0,-939.0,152.0,158.0
3966,-949,149,0,3965.0,3966.0,-948.0,-946.0,154.0,152.0
3966,-947,147,0,3966.0,3965.0,-949.0,-948.0,149.0,154.0
3970,-947,145,0,3966.0,3966.0,-947.0,-949.0,147.0,149.0
3970,-942,145,0,3970.0,3966.0,-947.0,-947.0,145.0,147.0
3971,-936,145,0,3970.0,3970.0,-942.0,-947.0,145.0,145.0
3975,-935,141,0,3971.0,3970.0,-936.0,-942.0,145.0,145.0
3974,-935,143,0,3975.0,3971.0,-935.0,-936.0,141.0,145.0
3974,-930,145,0,3974.0,3975.0,-935.0,-935.0,143.0,141.0
3976,-931,147,0,3974.0,3974.0,-930.0,-935.0,145.0,143.0
3976,-933,153,0,3976.0,3974.0,-931.0,-930.0,147.0,145.0
3978,-931,160,0,3976.0,3976.0,-933.0,-931.0,153.0,147.0
3981,-929,169,0,3978.0,3976.0,-931.0,-933.0,160.0,153.0
3985,-925,178,0,3981.0,3978.0,-929.0,-931.0,169.0,160.0
3983,-923,182,0,3985.0,3981.0,-925.0,-929.0,178.0,169.0
3982,-924,179,0,3983.0,3985.0,-923.0,-925.0,182.0,178.0
3972,-927,169,0,3982.0,3983.0,-924.0,-923.0,179.0,182.0
3967,-932,162,0,3972.0,3982.0,-927.0,-924.0,169.0,179.0
3964,-927,160,0,3967.0,3972.0,-932.0,-927.0,162.0,169.0
3964,-924,158,0,3964.0,3967.0,-927.0,-932.0,160.0,162.0
3966,-923,157,0,3964.0,3964.0,-924.0,-927.0,158.0,160.0
3969,-925,156,0,3966.0,3964.0,-923.0,-924.0,157.0,158.0
3975,-927,156,0,3969.0,3966.0,-925.0,-923.0,156.0,157.0
3977,-926,149,0,3975.0,3969.0,-927.0,-925.0,156.0,156.0
3975,-925,144,0,3977.0,3975.0,-926.0,-927.0,149.0,156.0
3978,-922,137,0,3975.0,3977.0,-925.0,-926.0,144.0,149.0
3983,-919,133,0,3978.0,3975.0,-922.0,-925.0,137.0,144.0
3985,-921,133,0,3983.0,3978.0,-919.0,-922.0,133.0,137.0
3984,-918,137,0,3985.0,3983.0,-921.0,-919.0,133.0,133.0
3984,-912,138,0,3984.0,3985.0,-918.0,-921.0,137.0,133.0
3984,-907,146,0,3984.0,3984.0,-912.0,-918.0,138.0,137.0
3985,-900,149,0,3984.0,3984.0,-907.0,-912.0,146.0,138.0
3988,-893,156,0,3985.0,3984.0,-900.0,-907.0,149.0,146.0
3994,-887,160,0,3988.0,3985.0,-893.0,-900.0,156.0,149.0
3993,-884,157,0,3994.0,3988.0,-887.0,-893.0,160.0,156.0
3991,-877,154,0,3993.0,3994.0,-884.0,-887.0,157.0,160.0
3988,-877,153,0,3991.0,3993.0,-877.0,-884.0,154.0,157.0
3993,-874,150,0,3988.0,3991.0,-877.0,-877.0,153.0,154.0
3994,-876,147,0,3993.0,3988.0,-874.0,-877.0,150.0,153.0
3999,-879,142,0,3994.0,3993.0,-876.0,-874.0,147.0,150.0
3997,-879,142,0,3999.0,3994.0,-879.0,-876.0,142.0,147.0
3999,-882,142,0,3997.0,3999.0,-879.0,-879.0,142.0,142.0
4002,-888,142,0,3999.0,3997.0,-882.0,-879.0,142.0,142.0
3995,-896,141,0,4002.0,3999.0,-888.0,-882.0,142.0,142.0
3993,-903,141,0,3995.0,4002.0,-896.0,-888.0,141.0,142.0
3993,-904,142,0,3993.0,3995.0,-903.0,-896.0,141.0,141.0
3993,-905,142,0,3993.0,3993.0,-904.0,-903.0,142.0,141.0
3995,-904,141,0,3993.0,3993.0,-905.0,-904.0,142.0,142.0
3994,-906,142,0,3995.0,3993.0,-904.0,-905.0,141.0,142.0
3993,-905,143,0,3994.0,3995.0,-906.0,-904.0,142.0,141.0
3992,-901,143,0,3993.0,3994.0,-905.0,-906.0,143.0,142.0
3988,-900,148,0,3992.0,3993.0,-901.0,-905.0,143.0,143.0
3986,-896,152,0,3988.0,3992.0,-900.0,-901.0,148.0,143.0
3981,-890,157,0,3986.0,3988.0,-896.0,-900.0,152.0,148.0
3977,-889,162,0,3981.0,3986.0,-890.0,-896.0,157.0,152.0
3970,-885,165,0,3977.0,3981.0,-889.0,-890.0,162.0,157.0
3968,-888,169,0,3970.0,3977.0,-885.0,-889.0,165.0,162.0
3963,-895,171,0,3968.0,3970.0,-888.0,-885.0,169.0,165.0
3962,-896,171,0,3963.0,3968.0,-895.0,-888.0,171.0,169.0
3961,-901,167,0,3962.0,3963.0,-896.0,-895.0,171.0,171.0
3960,-905,163,0,3961.0,3962.0,-901.0,-896.0,167.0,171.0
3962,-914,160,0,3960.0,3961.0,-905.0,-901.0,163.0,167.0
3962,-917,161,0,3962.0,3960.0,-914.0,-905.0,160.0,163.0
3963,-922,162,0,3962.0,3962.0,-917.0,-914.0,161.0,160.0
3970,-921,163,0,3963.0,3962.0,-922.0,-917.0,162.0,161.0
3972,-923,166,0,3970.0,3963.0,-921.0,-922.0,163.0,162.0
3976,-922,171,0,3972.0,3970.0,-923.0,-921.0,166.0,163.0
3977,-922,171,0,3976.0,3972.0,-922.0,-923.0,171.0,166.0
3980,-921,172,0,3977.0,3976.0,-922.0,-922.0,171.0,171.0
3983,-920,173,0,3980.0,3977.0,-921.0,-922.0,172.0,171.0
3982,-922,172,0,3983.0,3980.0,-920.0,-921.0,173.0,172.0
3980,-918,172,0,3982.0,3983.0,-922.0,-920.0,172.0,173.0
3982,-914,176,0,3980.0,3982.0,-918.0,-922.0,172.0,172.0
3983,-911,174,0,3982.0,3980.0,-914.0,-918.0,176.0,172.0
3983,-906,173,0,3983.0,3982.0,-911.0,-914.0,174.0,176.0
3981,-905,173,0,3983.0,3983.0,-906.0,-911.0,173.0,174.0
3980,-901,176,0,3981.0,3983.0,-905.0,-906.0,173.0,173.0
3981,-898,178,0,3980.0,3981.0,-901.0,-905.0,176.0,173.0
3980,-898,173,0,3981.0,3980.0,-898.0,-901.0,178.0,176.0
3979,-898,172,0,3980.0,3981.0,-898.0,-898.0,173.0,178.0
3977,-897,168,0,3979.0,3980.0,-898.0,-898.0,172.0,173.0
3976,-897,170,0,3977.0,3979.0,-897.0,-898.0,168.0,172.0
3969,-902,170,0,3976.0,3977.0,-897.0,-897.0,170.0,168.0
3973,-904,172,0,3969.0,3976.0,-902.0,-897.0,170.0,170.0
3973,-904,173,0,3973.0,3969.0,-904.0,-902.0,172.0,170.0
3969,-908,176,0,3973.0,3973.0,-904.0,-904.0,173.0,172.0
3965,-904,177,0,3969.0,3973.0,-908.0,-904.0,176.0,173.0
3965,-911,176,0,3965.0,3969.0,-904.0,-908.0,177.0,176.0
3967,-910,179,0,3965.0,3965.0,-911.0,-904.0,176.0,177.0
3965,-912,182,0,3967.0,3965.0,-910.0,-911.0,179.0,176.0
3969,-914,184,0,3965.0,3967.0,-912.0,-910.0,182.0,179.0
3971,-918,180,0,3969.0,3965.0,-914.0,-912.0,184.0,182.0
3974,-916,180,0,3971.0,3969.0,-918.0,-914.0,180.0,184.0
3975,-920,180,0,3974.0,3971.0,-916.0,-918.0,180.0,180.0
3975,-920,176,0,3975.0,3974.0,-920.0,-916.0,180.0,180.0
3979,-915,173,0,3975.0,3975.0,-920.0,-920.0,176.0,180.0
3979,-914,170,0,3979.0,3975.0,-915.0,-920.0,173.0,176.0
3978,-911,171,0,3979.0,3979.0,-914.0,-915.0,170.0,173.0
3978,-906,170,0,3978.0,3979.0,-911.0,-914.0,171.0,170.0
3978,-902,167,0,3978.0,3978.0,-906.0,-911.0,170.0,171.0
3978,-899,167,0,3978.0,3978.0,-902.0,-906.0,167.0,170.0
3983,-900,164,0,3978.0,3978.0,-899.0,-902.0,167.0,167.0
3989,-902,164,0,3983.0,3978.0,-900.0,-899.0,164.0,167.0
3996,-907,166,0,3989.0,3983.0,-902.0,-900.0,164.0,164.0
3999,-911,162,0,3996.0,3989.0,-907.0,-902.0,166.0,164.0
4004,-913,153,0,3999.0,3996.0,-911.0,-907.0,162.0,166.0
4007,-916,146,0,4004.0,3999.0,-913.0,-911.0,153.0,162.0
4009,-915,137,0,4007.0,4004.0,-916.0,-913.0,146.0,153.0
4006,-911,136,0,4009.0,4007.0,-915.0,-916.0,137.0,146.0
4001,-905,135,0,4006.0,4009.0,-911.0,-915.0,136.0,137.0
3999,-904,141,0,4001.0,4006.0,-905.0,-911.0,135.0,136.0
3995,-900,145,0,3999.0,4001.0,-904.0,-905.0,141.0,135.0
3985,-897,143,0,3995.0,3999.0,-900.0,-904.0,145.0,141.0
3981,-896,149,0,3985.0,3995.0,-897.0,-900.0,143.0,145.0
3979,-894,154,0,3981.0,3985.0,-896.0,-897.0,149.0,143.0
3980,-894,159,0,3979.0,3981.0,-894.0,-896.0,154.0,149.0
3979,-891,164,0,3980.0,3979.0,-894.0,-894.0,159.0,154.0
3980,-890,164,0,3979.0,3980.0,-891.0,-894.0,164.0,159.0
3979,-895,166,0,3980.0,3979.0,-890.0,-891.0,164.0,164.0
3976,-899,165,0,3979.0,3980.0,-895.0,-890.0,166.0,164.0
3974,-900,163,0,3976.0,3979.0,-899.0,-895.0,165.0,166.0
3973,-897,159,0,3974.0,3976.0,-900.0,-899.0,163.0,165.0
3975,-899,162,0,3973.0,3974.0,-897.0,-900.0,159.0,163.0
3980,-899,165,0,3975.0,3973.0,-899.0,-897.0,162.0,159.0
3979,-891,163,0,3980.0,3975.0,-899.0,-899.0,165.0,162.0
3982,-889,162,0,3979.0,3980.0,-891.0,-899.0,163.0,165.0
3982,-887,155,0,3982.0,3979.0,-889.0,-891.0,162.0,163.0
3980,-886,153,0,3982.0,3982.0,-887.0,-889.0,155.0,162.0
3977,-886,153,0,3980.0,3982.0,-886.0,-887.0,153.0,155.0
3977,-887,159,0,3977.0,3980.0,-886.0,-886.0,153.0,153.0
3978,-885,163,0,3977.0,3977.0,-887.0,-886.0,159.0,153.0
3979,-887,170,0,3978.0,3977.0,-885.0,-887.0,163.0,159.0
3982,-885,180,0,3979.0,3978.0,-887.0,-885.0,170.0,163.0
3985,-882,187,0,3982.0,3979.0,-885.0,-887.0,180.0,170.0
3980,-884,186,0,3985.0,3982.0,-882.0,-885.0,187.0,180.0
3977,-887,179,0,3980.0,3985.0,-884.0,-882.0,186.0,187.0
3974,-891,166,0,3977.0,3980.0,-887.0,-884.0,179.0,186.0
3967,-897,153,0,3974.0,3977.0,-891.0,-887.0,166.0,179.0
3970,-895,144,0,3967.0,3974.0,-897.0,-891.0,153.0,166.0
3974,-895,142,0,3970.0,3967.0,-895.0,-897.0,144.0,153.0
3978,-891,145,0,3974.0,3970.0,-895.0,-895.0,142.0,144.0
3985,-894,148,0,3978.0,3974.0,-891.0,-895.0,145.0,142.0
3992,-891,148,0,3985.0,3978.0,-894.0,-891.0,148.0,145.0
3997,-890,147,0,3992.0,3985.0,-891.0,-894.0,148.0,148.0
3997,-893,144,0,3997.0,3992.0,-890.0,-891.0,147.0,148.0
4002,-896,139,0,3997.0,3997.0,-893.0,-890.0,144.0,147.0
4002,-902,141,0,4002.0,3997.0,-896.0,-893.0,139.0,144.0
4003,-909,136,0,4002.0,4002.0,-902.0,-896.0,141.0,139.0
4004,-909,139,0,4003.0,4002.0,-909.0,-902.0,136.0,141.0
4004,-912,141,0,4004.0,4003.0,-909.0,-909.0,139.0,136.0
4006,-910,147,0,4004.0,4004.0,-912.0,-909.0,141.0,139.0
4006,-911,151,0,4006.0,4004.0,-910.0,-912.0,147.0,141.0
4005,-907,151,0,4006.0,4006.0,-911.0,-910.0,151.0,147.0
4003,-898,154,0,4005.0,4006.0,-907.0,-911.0,151.0,151.0
4000,-893,156,0,4003.0,4005.0,-898.0,-907.0,154.0,151.0
3992,-890,155,0,4000.0,4003.0,-893.0,-898.0,156.0,154.0
3987,-889,154,0,3992.0,4000.0,-890.0,-893.0,155.0,156.0
3983,-885,155,0,3987.0,3992.0,-889.0,-890.0,154.0,155.0
3980,-884,152,0,3983.0,3987.0,-885.0,-889.0,155.0,154.0
3979,-885,151,0,3980.0,3983.0,-884.0,-885.0,152.0,155.0
3975,-888,148,0,3979.0,3980.0,-885.0,-884.0,151.0,152.0
3977,-891,146,0,3975.0,3979.0,-888.0,-885.0,148.0,151.0
3981,-894,143,0,3977.0,3975.0,-891.0,-888.0,146.0,148.0
3978,-894,140,0,3981.0,3977.0,-894.0,-891.0,143.0,146.0
3981,-895,136,0,3978.0,3981.0,-894.0,-894.0,140.0,143.0
3983,-891,139,0,3981.0,3978.0,-895.0,-894.0,136.0,140.0
3986,-893,135,0,3983.0,3981.0,-891.0,-895.0,139.0,136.0
3990,-893,132,0,3986.0,3983.0,-893.0,-891.0,135.0,139.0
3994,-888,131,0,3990.0,3986.0,-893.0,-893.0,132.0,135.0
3995,-883,131,0,3994.0,3990.0,-888.0,-893.0,131.0,132.0
3992,-878,126,0,3995.0,3994.0,-883.0,-888.0,131.0,131.0
3994,-873,126,0,3992.0,3995.0,-878.0,-883.0,126.0,131.0
3992,-869,128,0,3994.0,3992.0,-873.0,-878.0,126.0,126.0
3996,-859,131,0,3992.0,3994.0,-869.0,-873.0,128.0,126.0
3996,-853,140,0,3996.0,3992.0,-859.0,-869.0,131.0,128.0
3997,-849,139,0,3996.0,3996.0,-853.0,-859.0,140.0,131.0
3993,-847,137,0,3997.0,3996.0,-849.0,-853.0,139.0,140.0
3995,-847,133,0,3993.0,3997.0,-847.0,-849.0,137.0,139.0
3993,-848,131,0,3995.0,3993.0,-847.0,-847.0,133.0,137.0
3988,-851,130,0,3993.0,3995.0,-848.0,-847.0,131.0,133.0
3985,-859,124,0,3988.0,3993.0,-851.0,-848.0,130.0,131.0
3986,-861,124,0,3985.0,3988.0,-859.0,-851.0,124.0,130.0
3983,-866,126,0,3986.0,3985.0,-861.0,-859.0,124.0,124.0
3980,-870,125,0,3983.0,3986.0,-866.0,-861.0,126.0,124.0
3980,-874,130,0,3980.0,3983.0,-870.0,-866.0,125.0,126.0
3975,-877,129,0,3980.0,3980.0,-874.0,-870.0,130.0,125.0
3970,-882,130,0,3975.0,3980.0,-877.0,-874.0,129.0,130.0
3966,-889,131,0,3970.0,3975.0,-882.0,-877.0,130.0,129.0
3968,-897,134,0,3966.0,3970.0,-889.0,-882.0,131.0,130.0
3967,-903,134,0,3968.0,3966.0,-897.0,-889.0,134.0,131.0
3973,-912,138,0,3967.0,3968.0,-903.0,-897.0,134.0,134.0
3976,-919,141,0,3973.0,3967.0,-912.0,-903.0,138.0,134.0
3979,-930,148,0,3976.0,3973.0,-919.0,-912.0,141.0,138.0
3982,-939,151,0,3979.0,3976.0,-930.0,-919.0,148.0,141.0
3984,-944,157,0,3982.0,3979.0,-939.0,-930.0,151.0,148.0
3989,-948,160,0,3984.0,3982.0,-944.0,-939.0,157.0,151.0
3986,-946,162,0,3989.0,3984.0,-948.0,-944.0,160.0,157.0
3980,-944,165,0,3986.0,3989.0,-946.0,-948.0,162.0,160.0
3976,-937,164,0,3980.0,3986.0,-944.0,-946.0,165.0,162.0
3977,-932,160,0,3976.0,3980.0,-937.0,-944.0,164.0,165.0
3978,-923,155,0,3977.0,3976.0,-932.0,-937.0,160.0,164.0
3979,-914,152,0,3978.0,3977.0,-923.0,-932.0,155.0,160.0
3979,-905,152,0,3979.0,3978.0,-914.0,-923.0,152.0,155.0
3984,-906,153,0,3979.0,3979.0,-905.0,-914.0,152.0,152.0
3993,-906,164,0,3984.0,3979.0,-906.0,-905.0,153.0,152.0
4014,-909,188,0,3993.0,3984.0,-906.0,-906.0,164.0,153.0
4048,-917,241,0,4014.0,3993.0,-909.0,-906.0,188.0,164.0
4078,-930,304,0,4048.0,4014.0,-917.0,-909.0,241.0,188.0
4113,-935,355,0,4078.0,4048.0,-930.0,-917.0,304.0,241.0
4126,-937,374,0,4113.0,4078.0,-935.0,-930.0,355.0,304.0
4118,-947,343,0,4126.0,4113.0,-937.0,-935.0,374.0,355.0
4106,-955,284,0,4118.0,4126.0,-947.0,-937.0,343.0,374.0
4076,-954,221,0,4106.0,4118.0,-955.0,-947.0,284.0,343.0
4033,-948,158,0,4076.0,4106.0,-954.0,-955.0,221.0,284.0
3980,-943,88,0,4033.0,4076.0,-948.0,-954.0,158.0,221.0
3922,-933,23,0,3980.0,4033.0,-943.0,-948.0,88.0,158.0
3871,-924,-28,0,3922.0,3980.0,-933.0,-943.0,23.0,88.0
3841,-917,-36,0,3871.0,3922.0,-924.0,-933.0,-28.0,23.0
3825,-904,-14,0,3841.0,3871.0,-917.0,-924.0,-36.0,-28.0
3830,-894,23,0,3825.0,3841.0,-904.0,-917.0,-14.0,-36.0
3849,-886,74,0,3830.0,3825.0,-894.0,-904.0,23.0,-14.0
3893,-886,162,0,3849.0,3830.0,-886.0,-894.0,74.0,23.0
3948,-893,254,0,3893.0,3849.0,-886.0,-886.0,162.0,74.0
3994,-909,297,0,3948.0,3893.0,-893.0,-886.0,254.0,162.0
4016,-922,296,0,3994.0,3948.0,-909.0,-893.0,297.0,254.0
4034,-942,276,0,4016.0,3994.0,-922.0,-909.0,296.0,297.0
4056,-969,284,0,4034.0,4016.0,-942.0,-922.0,276.0,296.0
4068,-981,276,0,4056.0,4034.0,-969.0,-942.0,284.0,276.0
4062,-991,233,0,4068.0,4056.0,-981.0,-969.0,276.0,284.0
4031,-992,154,0,4062.0,4068.0,-991.0,-981.0,233.0,276.0
