accelerometer_x,accelerometer_y,accelerometer_z,fall,x_lag_1,x_lag_2,y_lag_1,y_lag_2,z_lag_1,z_lag_2
3816,1286,861,0,,,,,,
3829,1280,857,0,3816.0,,1286.0,,861.0,
3831,1269,852,0,3829.0,3816.0,1280.0,1286.0,857.0,861.0
3835,1263,852,0,3831.0,3829.0,1269.0,1280.0,852.0,857.0
3840,1253,844,0,3835.0,3831.0,1263.0,1269.0,852.0,852.0
3847,1244,844,0,3840.0,3835.0,1253.0,1263.0,844.0,852.0
3847,1235,845,0,3847.0,3840.0,1244.0,1253.0,844.0,844.0
3849,1223,849,0,3847.0,3847.0,1235.0,1244.0,845.0,844.0
3846,1217,851,0,3849.0,3847.0,1223.0,1235.0,849.0,845.0
3843,1214,855,0,3846.0,3849.0,1217.0,1223.0,851.0,849.0
3838,1209,851,0,3843.0,3846.0,1214.0,1217.0,855.0,851.0
3832,1203,853,0,3838.0,3843.0,1209.0,1214.0,851.0,855.0
3826,1198,853,0,3832.0,3838.0,1203.0,1209.0,853.0,851.0
3816,1191,854,0,3826.0,3832.0,1198.0,1203.0,853.0,853.0
3807,1186,855,0,3816.0,3826.0,1191.0,1198.0,854.0,853.0
3798,1182,853,0,3807.0,3816.0,1186.0,1191.0,855.0,854.0
3793,1181,854,0,3798.0,3807.0,1182.0,1186.0,853.0,855.0
3790,1174,847,0,3793.0,3798.0,1181.0,1182.0,854.0,853.0
3784,1163,850,0,3790.0,3793.0,1174.0,1181.0,847.0,854.0
3786,1152,852,0,3784.0,3790.0,1163.0,1174.0,850.0,847.0
3786,1139,859,0,3786.0,3784.0,1152.0,1163.0,852.0,850.0
3788,1122,864,0,3786.0,3786.0,1139.0,1152.0,859.0,852.0
3788,1104,863,0,3788.0,3786.0,1122.0,1139.0,864.0,859.0
3792,1083,862,0,3788.0,3788.0,1104.0,1122.0,863.0,864.0
3797,1065,865,0,3792.0,3788.0,1083.0,1104.0,862.0,863.0
3797,1047,870,0,3797.0,3792.0,1065.0,1083.0,865.0,862.0
3803,1031,870,0,3797.0,3797.0,1047.0,1065.0,870.0,865.0
3807,1013,868,0,3803.0,3797.0,1031.0,1047.0,870.0,870.0
3813,992,862,0,3807.0,3803.0,1013.0,1031.0,868.0,870.0
3819,980,861,0,3813.0,3807.0,992.0,1013.0,862.0,868.0
3819,978,865,0,3819.0,3813.0,980.0,992.0,861.0,862.0
3817,983,865,0,3819.0,3819.0,978.0,980.0,865.0,861.0
3819,989,866,0,3817.0,3819.0,983.0,978.0,865.0,865.0
3817,1006,868,0,3819.0,3817.0,989.0,983.0,866.0,865.0
3811,1020,875,0,3817.0,3819.0,1006.0,989.0,868.0,866.0
3814,1037,882,0,3811.0,3817.0,1020.0,1006.0,875.0,868.0
3819,1053,888,0,3814.0,3811.0,1037.0,1020.0,882.0,875.0
3819,1068,894,0,3819.0,3814.0,1053.0,1037.0,888.0,882.0
3823,1078,897,0,3819.0,3819.0,1068.0,1053.0,894.0,888.0
3827,1085,899,0,3823.0,3819.0,1078.0,1068.0,897.0,894.0
3830,1085,902,0,3827.0,3823.0,1085.0,1078.0,899.0,897.0
3837,1081,908,0,3830.0,3827.0,1085.0,1085.0,902.0,899.0
3844,1073,909,0,3837.0,3830.0,1081.0,1085.0,908.0,902.0
3848,1059,906,0,3844.0,3837.0,1073.0,1081.0,909.0,908.0
3852,1046,901,0,3848.0,3844.0,1059.0,1073.0,906.0,909.0
3860,1028,897,0,3852.0,3848.0,1046.0,1059.0,901.0,906.0
3868,1010,890,0,3860.0,3852.0,1028.0,1046.0,897.0,901.0
3874,996,880,0,3868.0,3860.0,1010.0,1028.0,890.0,897.0
3879,986,871,0,3874.0,3868.0,996.0,1010.0,880.0,890.0
3884,980,867,0,3879.0,3874.0,986.0,996.0,871.0,880.0
3890,978,867,0,3884.0,3879.0,980.0,986.0,867.0,871.0
3901,977,870,0,3890.0,3884.0,978.0,980.0,867.0,867.0
3910,983,870,0,3901.0,3890.0,977.0,978.0,870.0,867.0
3913,989,874,0,3910.0,3901.0,983.0,977.0,870.0,870.0
3914,1003,878,0,3913.0,3910.0,989.0,983.0,874.0,870.0
3914,1017,883,0,3914.0,3913.0,1003.0,989.0,878.0,874.0
3909,1030,887,0,3914.0,3914.0,1017.0,1003.0,883.0,878.0
3901,1040,893,0,3909.0,3914.0,1030.0,1017.0,887.0,883.0
3888,1041,894,0,3901.0,3909.0,1040.0,1030.0,893.0,887.0
3864,1040,888,0,3888.0,3901.0,1041.0,1040.0,894.0,893.0
3847,1046,879,0,3864.0,3888.0,1040.0,1041.0,888.0,894.0
3837,1054,868,0,3847.0,3864.0,1046.0,1040.0,879.0,888.0
3840,1051,862,0,3837.0,3847.0,1054.0,1046.0,868.0,879.0
3845,1041,864,0,3840.0,3837.0,1051.0,1054.0,862.0,868.0
3845,1038,878,0,3845.0,3840.0,1041.0,1051.0,864.0,862.0
3847,1024,900,0,3845.0,3845.0,1038.0,1041.0,878.0,864.0
3849,1003,908,0,3847.0,3845.0,1024.0,1038.0,900.0,878.0
3846,1005,893,0,3849.0,3847.0,1003.0,1024.0,908.0,900.0
3832,1017,872,0,3846.0,3849.0,1005.0,1003.0,893.0,908.0
3820,1014,862,0,3832.0,3846.0,1017.0,1005.0,872.0,893.0
3817,989,861,0,3820.0,3832.0,1014.0,1017.0,862.0,872.0
3821,962,856,0,3817.0,3820.0,989.0,1014.0,861.0,862.0
3824,950,847,0,3821.0,3817.0,962.0,989.0,856.0,861.0
3824,954,840,0,3824.0,3821.0,950.0,962.0,847.0,856.0
3819,977,847,0,3824.0,3824.0,954.0,950.0,840.0,847.0
3816,1014,867,0,3819.0,3824.0,977.0,954.0,847.0,840.0
3817,1034,887,0,3816.0,3819.0,1014.0,977.0,867.0,847.0
3815,1042,915,0,3817.0,3816.0,1034.0,1014.0,887.0,867.0
3814,1048,936,0,3815.0,3817.0,1042.0,1034.0,915.0,887.0
3808,1043,930,0,3814.0,3815.0,1048.0,1042.0,936.0,915.0
3797,1036,911,0,3808.0,3814.0,1043.0,1048.0,930.0,936.0
3784,1033,886,0,3797.0,3808.0,1036.0,1043.0,911.0,930.0
3767,1036,865,0,3784.0,3797.0,1033.0,1036.0,886.0,911.0
3774,1020,851,0,3767.0,3784.0,1036.0,1033.0,865.0,886.0
3793,988,850,0,3774.0,3767.0,1020.0,1036.0,851.0,865.0
3805,957,861,0,3793.0,3774.0,988.0,1020.0,850.0,851.0
3802,951,851,0,3805.0,3793.0,957.0,988.0,861.0,850.0
3797,981,827,0,3802.0,3805.0,951.0,957.0,851.0,861.0
3794,1004,831,0,3797.0,3802.0,981.0,951.0,827.0,851.0
3815,1002,838,0,3794.0,3797.0,1004.0,981.0,831.0,827.0
3835,983,829,0,3815.0,3794.0,1002.0,1004.0,838.0,831.0
3866,958,797,0,3835.0,3815.0,983.0,1002.0,829.0,838.0
3898,941,775,0,3866.0,3835.0,958.0,983.0,797.0,829.0
3937,916,764,0,3898.0,3866.0,941.0,958.0,775.0,797.0
3974,856,770,0,3937.0,3898.0,916.0,941.0,764.0,775.0
4027,776,789,0,3974.0,3937.0,856.0,916.0,770.0,764.0
4065,689,815,0,4027.0,3974.0,776.0,856.0,789.0,770.0
4075,654,851,0,4065.0,4027.0,689.0,776.0,815.0,789.0
4056,637,846,0,4075.0,4065.0,654.0,689.0,851.0,815.0
4015,628,820,0,4056.0,4075.0,637.0,654.0,846.0,851.0
3965,633,798,0,4015.0,4056.0,628.0,637.0,820.0,846.0
3913,653,792,0,3965.0,4015.0,633.0,628.0,798.0,820.0
3852,698,791,0,3913.0,3965.0,653.0,633.0,792.0,798.0
3781,760,799,0,3852.0,3913.0,698.0,653.0,791.0,792.0
3724,828,822,0,3781.0,3852.0,760.0,698.0,799.0,791.0
3688,897,854,0,3724.0,3781.0,828.0,760.0,822.0,799.0
3668,962,891,0,3688.0,3724.0,897.0,828.0,854.0,822.0
3656,1023,920,0,3668.0,3688.0,962.0,897.0,891.0,854.0
3653,1077,941,0,3656.0,3668.0,1023.0,962.0,920.0,891.0
3656,1122,954,0,3653.0,3656.0,1077.0,1023.0,941.0,920.0
3669,1148,962,0,3656.0,3653.0,1122.0,1077.0,954.0,941.0
3686,1159,960,0,3669.0,3656.0,1148.0,1122.0,962.0,954.0
3721,1135,957,0,3686.0,3669.0,1159.0,1148.0,960.0,962.0
3760,1094,943,0,3721.0,3686.0,1135.0,1159.0,957.0,960.0
3803,1044,920,0,3760.0,3721.0,1094.0,1135.0,943.0,957.0
3834,1009,894,0,3803.0,3760.0,1044.0,1094.0,920.0,943.0
3861,979,874,0,3834.0,3803.0,1009.0,1044.0,894.0,920.0
3886,947,866,0,3861.0,3834.0,979.0,1009.0,874.0,894.0
3899,911,875,0,3886.0,3861.0,947.0,979.0,866.0,874.0
3903,888,885,0,3899.0,3886.0,911.0,947.0,875.0,866.0
3895,867,890,0,3903.0,3899.0,888.0,911.0,885.0,875.0
3890,839,894,0,3895.0,3903.0,867.0,888.0,890.0,885.0
3886,802,891,0,3890.0,3895.0,839.0,867.0,894.0,890.0
3882,756,887,0,3886.0,3890.0,802.0,839.0,891.0,894.0
3882,719,878,0,3882.0,3886.0,756.0,802.0,887.0,891.0
3878,698,872,0,3882.0,3882.0,719.0,756.0,878.0,887.0
3877,685,867,0,3878.0,3882.0,698.0,719.0,872.0,878.0
3871,683,871,0,3877.0,3878.0,685.0,698.0,867.0,872.0
3863,686,873,0,3871.0,3877.0,683.0,685.0,871.0,867.0
3854,701,877,0,3863.0,3871.0,686.0,683.0,873.0,871.0
3840,730,875,0,3854.0,3863.0,701.0,686.0,877.0,873.0
3819,764,869,0,3840.0,3854.0,730.0,701.0,875.0,877.0
3804,804,861,0,3819.0,3840.0,764.0,730.0,869.0,875.0
3783,847,855,0,3804.0,3819.0,804.0,764.0,861.0,869.0
3769,885,856,0,3783.0,3804.0,847.0,804.0,855.0,861.0
3758,913,846,0,3769.0,3783.0,885.0,847.0,856.0,855.0
3746,936,841,0,3758.0,3769.0,913.0,885.0,846.0,856.0
3743,958,848,0,3746.0,3758.0,936.0,913.0,841.0,846.0
3751,969,857,0,3743.0,3746.0,958.0,936.0,848.0,841.0
3771,969,869,0,3751.0,3743.0,969.0,958.0,857.0,848.0
3794,963,875,0,3771.0,3751.0,969.0,969.0,869.0,857.0
3815,955,874,0,3794.0,3771.0,963.0,969.0,875.0,869.0
3842,951,870,0,3815.0,3794.0,955.0,963.0,874.0,875.0
3874,950,871,0,3842.0,3815.0,951.0,955.0,870.0,874.0
3901,947,873,0,3874.0,3842.0,950.0,951.0,871.0,870.0
3932,946,876,0,3901.0,3874.0,947.0,950.0,873.0,871.0
3958,955,881,0,3932.0,3901.0,946.0,947.0,876.0,873.0
3984,962,889,0,3958.0,3932.0,955.0,946.0,881.0,876.0
4004,972,899,0,3984.0,3958.0,962.0,955.0,889.0,881.0
4021,981,913,0,4004.0,3984.0,972.0,962.0,899.0,889.0
4034,992,925,0,4021.0,4004.0,981.0,972.0,913.0,899.0
4043,1000,933,0,4034.0,4021.0,992.0,981.0,925.0,913.0
4056,997,947,0,4043.0,4034.0,1000.0,992.0,933.0,925.0
4055,985,959,0,4056.0,4043.0,997.0,1000.0,947.0,933.0
4049,967,962,0,4055.0,4056.0,985.0,997.0,959.0,947.0
4034,940,963,0,4049.0,4055.0,967.0,985.0,962.0,959.0
4011,912,961,0,4034.0,4049.0,940.0,967.0,963.0,962.0
3980,886,954,0,4011.0,4034.0,912.0,940.0,961.0,963.0
3945,857,948,0,3980.0,4011.0,886.0,912.0,954.0,961.0
3910,821,941,0,3945.0,3980.0,857.0,886.0,948.0,954.0
3865,784,932,0,3910.0,3945.0,821.0,857.0,941.0,948.0
3831,744,918,0,3865.0,3910.0,784.0,821.0,932.0,941.0
3800,710,907,0,3831.0,3865.0,744.0,784.0,918.0,932.0
3776,677,899,0,3800.0,3831.0,710.0,744.0,907.0,918.0
3755,646,892,0,3776.0,3800.0,677.0,710.0,899.0,907.0
3740,617,886,0,3755.0,3776.0,646.0,677.0,892.0,899.0
3730,595,887,0,3740.0,3755.0,617.0,646.0,886.0,892.0
3723,578,884,0,3730.0,3740.0,595.0,617.0,887.0,886.0
3726,563,873,0,3723.0,3730.0,578.0,595.0,884.0,887.0
3737,551,860,0,3726.0,3723.0,563.0,578.0,873.0,884.0
3754,550,852,0,3737.0,3726.0,551.0,563.0,860.0,873.0
3779,550,845,0,3754.0,3737.0,550.0,551.0,852.0,860.0
3811,555,836,0,3779.0,3754.0,550.0,550.0,845.0,852.0
3846,563,831,0,3811.0,3779.0,555.0,550.0,836.0,845.0
3884,569,832,0,3846.0,3811.0,563.0,555.0,831.0,836.0
3921,582,833,0,3884.0,3846.0,569.0,563.0,832.0,831.0
3953,602,839,0,3921.0,3884.0,582.0,569.0,833.0,832.0
3984,622,837,0,3953.0,3921.0,602.0,582.0,839.0,833.0
4011,643,835,0,3984.0,3953.0,622.0,602.0,837.0,839.0
4035,667,840,0,4011.0,3984.0,643.0,622.0,835.0,837.0
4055,689,841,0,4035.0,4011.0,667.0,643.0,840.0,835.0
4069,711,850,0,4055.0,4035.0,689.0,667.0,841.0,840.0
4076,733,855,0,4069.0,4055.0,711.0,689.0,850.0,841.0
4074,752,856,0,4076.0,4069.0,733.0,711.0,855.0,850.0
4060,775,845,0,4074.0,4076.0,752.0,733.0,856.0,855.0
4034,788,828,0,4060.0,4074.0,775.0,752.0,845.0,856.0
3999,812,808,0,4034.0,4060.0,788.0,775.0,828.0,845.0
3961,836,799,0,3999.0,4034.0,812.0,788.0,808.0,828.0
3926,857,792,0,3961.0,3999.0,836.0,812.0,799.0,808.0
3893,879,800,0,3926.0,3961.0,857.0,836.0,792.0,799.0
3867,905,812,0,3893.0,3926.0,879.0,857.0,800.0,792.0
3846,932,827,0,3867.0,3893.0,905.0,879.0,812.0,800.0
3833,958,841,0,3846.0,3867.0,932.0,905.0,827.0,812.0
3825,981,846,0,3833.0,3846.0,958.0,932.0,841.0,827.0
3811,1007,853,0,3825.0,3833.0,981.0,958.0,846.0,841.0
3797,1033,849,0,3811.0,3825.0,1007.0,981.0,853.0,846.0
3792,1064,852,0,3797.0,3811.0,1033.0,1007.0,849.0,853.0
3794,1089,853,0,3792.0,3797.0,1064.0,1033.0,852.0,849.0
3794,1109,858,0,3794.0,3792.0,1089.0,1064.0,853.0,852.0
3801,1124,862,0,3794.0,3794.0,1109.0,1089.0,858.0,853.0
3811,1138,867,0,3801.0,3794.0,1124.0,1109.0,862.0,858.0
3825,1151,869,0,3811.0,3801.0,1138.0,1124.0,867.0,862.0
3838,1159,870,0,3825.0,3811.0,1151.0,1138.0,869.0,867.0
3857,1155,870,0,3838.0,3825.0,1159.0,1151.0,870.0,869.0
3870,1155,875,0,3857.0,3838.0,1155.0,1159.0,870.0,870.0
3882,1145,872,0,3870.0,3857.0,1155.0,1155.0,875.0,870.0
3886,1135,868,0,3882.0,3870.0,1145.0,1155.0,872.0,875.0
3890,1117,867,0,3886.0,3882.0,1135.0,1145.0,868.0,872.0
3890,1098,863,0,3890.0,3886.0,1117.0,1135.0,867.0,868.0
3887,1077,856,0,3890.0,3890.0,1098.0,1117.0,863.0,867.0
3884,1054,852,0,3887.0,3890.0,1077.0,1098.0,856.0,863.0
3875,1028,846,0,3884.0,3887.0,1054.0,1077.0,852.0,856.0
3868,1001,839,0,3875.0,3884.0,1028.0,1054.0,846.0,852.0
3854,988,833,0,3868.0,3875.0,1001.0,1028.0,839.0,846.0
3848,977,835,0,3854.0,3868.0,988.0,1001.0,833.0,839.0
3847,961,843,0,3848.0,3854.0,977.0,988.0,835.0,833.0
3851,944,855,0,3847.0,3848.0,961.0,977.0,843.0,835.0
3860,935,863,0,3851.0,3847.0,944.0,961.0,855.0,843.0
3869,925,868,0,3860.0,3851.0,935.0,944.0,863.0,855.0
3876,916,862,0,3869.0,3860.0,925.0,935.0,868.0,863.0
3879,910,858,0,3876.0,3869.0,916.0,925.0,862.0,868.0
3885,907,855,0,3879.0,3876.0,910.0,916.0,858.0,862.0
3895,899,856,0,3885.0,3879.0,907.0,910.0,855.0,858.0
3897,887,854,0,3895.0,3885.0,899.0,907.0,856.0,855.0
3901,878,849,0,3897.0,3895.0,887.0,899.0,854.0,856.0
3904,878,850,0,3901.0,3897.0,878.0,887.0,849.0,854.0
3905,875,847,0,3904.0,3901.0,878.0,878.0,850.0,849.0
3904,868,843,0,3905.0,3904.0,875.0,878.0,847.0,850.0
3908,858,840,0,3904.0,3905.0,868.0,875.0,843.0,847.0
3911,855,841,0,3908.0,3904.0,858.0,868.0,840.0,843.0
3908,860,845,0,3911.0,3908.0,855.0,858.0,841.0,840.0
3898,866,847,0,3908.0,3911.0,860.0,855.0,845.0,841.0
3889,881,845,0,3898.0,3908.0,866.0,860.0,847.0,845.0
3882,893,843,0,3889.0,3898.0,881.0,866.0,845.0,847.0
3874,901,846,0,3882.0,3889.0,893.0,881.0,843.0,845.0
3870,914,850,0,3874.0,3882.0,901.0,893.0,846.0,843.0
3867,922,853,0,3870.0,3874.0,914.0,901.0,850.0,846.0
3867,927,855,0,3867.0,3870.0,922.0,914.0,853.0,850.0
3879,927,859,0,3867.0,3867.0,927.0,922.0,855.0,853.0
3891,928,864,0,3879.0,3867.0,927.0,927.0,859.0,855.0
3898,928,867,0,3891.0,3879.0,928.0,927.0,864.0,859.0
3905,927,868,0,3898.0,3891.0,928.0,928.0,867.0,864.0
3903,932,870,0,3905.0,3898.0,927.0,928.0,868.0,867.0
3894,934,865,0,3903.0,3905.0,932.0,927.0,870.0,868.0
3885,935,860,0,3894.0,3903.0,934.0,932.0,865.0,870.0
3881,936,863,0,3885.0,3894.0,935.0,934.0,860.0,865.0
3868,940,864,0,3881.0,3885.0,936.0,935.0,863.0,860.0
3858,940,862,0,3868.0,3881.0,940.0,936.0,864.0,863.0
3846,937,862,0,3858.0,3868.0,940.0,940.0,862.0,864.0
3841,929,862,0,3846.0,3858.0,937.0,940.0,862.0,862.0
3838,928,861,0,3841.0,3846.0,929.0,937.0,862.0,862.0
3833,921,860,0,3838.0,3841.0,928.0,929.0,861.0,862.0
3829,914,858,0,3833.0,3838.0,921.0,928.0,860.0,861.0
3828,907,854,0,3829.0,3833.0,914.0,921.0,858.0,860.0
3833,897,856,0,3828.0,3829.0,907.0,914.0,854.0,858.0
3837,893,859,0,3833.0,3828.0,897.0,907.0,856.0,854.0
3844,890,860,0,3837.0,3833.0,893.0,897.0,859.0,856.0
3849,889,857,0,3844.0,3837.0,890.0,893.0,860.0,859.0
3856,897,861,0,3849.0,3844.0,889.0,890.0,857.0,860.0
3855,900,860,0,3856.0,3849.0,897.0,889.0,861.0,857.0
3857,906,853,0,3855.0,3856.0,900.0,897.0,860.0,861.0
3859,911,853,0,3857.0,3855.0,906.0,900.0,853.0,860.0
3864,918,856,0,3859.0,3857.0,911.0,906.0,853.0,853.0
3874,921,860,0,3864.0,3859.0,918.0,911.0,856.0,853.0
3881,924,866,0,3874.0,3864.0,921.0,918.0,860.0,856.0
3886,931,865,0,3881.0,3874.0,924.0,921.0,866.0,860.0
3895,931,862,0,3886.0,3881.0,931.0,924.0,865.0,866.0
3898,932,860,0,3895.0,3886.0,931.0,931.0,862.0,865.0
3901,936,862,0,3898.0,3895.0,932.0,931.0,860.0,862.0
3901,937,857,0,3901.0,3898.0,936.0,932.0,862.0,860.0
3900,937,855,0,3901.0,3901.0,937.0,936.0,857.0,862.0
3896,937,851,0,3900.0,3901.0,937.0,937.0,855.0,857.0
3890,933,847,0,3896.0,3900.0,937.0,937.0,851.0,855.0
3887,932,843,0,3890.0,3896.0,933.0,937.0,847.0,851.0
3882,930,843,0,3887.0,3890.0,932.0,933.0,843.0,847.0
3880,934,840,0,3882.0,3887.0,930.0,932.0,843.0,843.0
3872,936,840,0,3880.0,3882.0,934.0,930.0,840.0,843.0
3875,938,842,0,3872.0,3880.0,936.0,934.0,840.0,840.0
3872,942,845,0,3875.0,3872.0,938.0,936.0,842.0,840.0
3874,949,846,0,3872.0,3875.0,942.0,938.0,845.0,842.0
3871,954,845,0,3874.0,3872.0,949.0,942.0,846.0,845.0
3869,957,842,0,3871.0,3874.0,954.0,949.0,845.0,846.0
3864,961,838,0,3869.0,3871.0,957.0,954.0,842.0,845.0
3861,960,836,0,3864.0,3869.0,961.0,957.0,838.0,842.0
3864,967,837,0,3861.0,3864.0,960.0,961.0,836.0,838.0
3862,969,829,0,3864.0,3861.0,967.0,960.0,837.0,836.0
3855,974,825,0,3862.0,3864.0,969.0,967.0,829.0,837.0
3846,976,818,0,3855.0,3862.0,974.0,969.0,825.0,829.0
3838,979,815,0,3846.0,3855.0,976.0,974.0,818.0,825.0
3832,986,813,0,3838.0,3846.0,979.0,976.0,815.0,818.0
3824,995,804,0,3832.0,3838.0,986.0,979.0,813.0,815.0
3816,1003,807,0,3824.0,3832.0,995.0,986.0,804.0,813.0
3811,1014,815,0,3816.0,3824.0,1003.0,995.0,807.0,804.0
3808,1021,829,0,3811.0,3816.0,1014.0,1003.0,815.0,807.0
3806,1035,836,0,3808.0,3811.0,1021.0,1014.0,829.0,815.0
3809,1043,839,0,3806.0,3808.0,1035.0,1021.0,836.0,829.0
3813,1043,843,0,3809.0,3806.0,1043.0,1035.0,839.0,836.0
3819,1033,842,0,3813.0,3809.0,1043.0,1043.0,843.0,839.0
3828,1015,841,0,3819.0,3813.0,1033.0,1043.0,842.0,843.0
3838,997,833,0,3828.0,3819.0,1015.0,1033.0,841.0,842.0
3847,986,821,0,3838.0,3828.0,997.0,1015.0,833.0,841.0
3858,980,819,0,3847.0,3838.0,986.0,997.0,821.0,833.0
3864,980,826,0,3858.0,3847.0,980.0,986.0,819.0,821.0
3872,984,841,0,3864.0,3858.0,980.0,980.0,826.0,819.0
3882,984,861,0,3872.0,3864.0,984.0,980.0,841.0,826.0
3885,992,883,0,3882.0,3872.0,984.0,984.0,861.0,841.0
3883,998,896,0,3885.0,3882.0,992.0,984.0,883.0,861.0
3871,1006,901,0,3883.0,3885.0,998.0,992.0,896.0,883.0
3859,1008,890,0,3871.0,3883.0,1006.0,998.0,901.0,896.0
3849,1007,873,0,3859.0,3871.0,1008.0,1006.0,890.0,901.0
3837,997,848,0,3849.0,3859.0,1007.0,1008.0,873.0,890.0
3825,985,829,0,3837.0,3849.0,997.0,1007.0,848.0,873.0
3819,964,818,0,3825.0,3837.0,985.0,997.0,829.0,848.0
3818,943,801,0,3819.0,3825.0,964.0,985.0,818.0,829.0
3830,921,793,0,3818.0,3819.0,943.0,964.0,801.0,818.0
3842,895,787,0,3830.0,3818.0,921.0,943.0,793.0,801.0
3859,873,782,0,3842.0,3830.0,895.0,921.0,787.0,793.0
3874,854,777,0,3859.0,3842.0,873.0,895.0,782.0,787.0
3892,849,770,0,3874.0,3859.0,854.0,873.0,777.0,782.0
3907,843,764,0,3892.0,3874.0,849.0,854.0,770.0,777.0
3921,842,765,0,3907.0,3892.0,843.0,849.0,764.0,770.0
3929,850,766,0,3921.0,3907.0,842.0,843.0,765.0,764.0
3934,864,767,0,3929.0,3921.0,850.0,842.0,766.0,765.0
3935,874,771,0,3934.0,3929.0,864.0,850.0,767.0,766.0
3930,886,771,0,3935.0,3934.0,874.0,864.0,771.0,767.0
3925,906,770,0,3930.0,3935.0,886.0,874.0,771.0,771.0
3921,919,771,0,3925.0,3930.0,906.0,886.0,770.0,771.0
3915,931,762,0,3921.0,3925.0,919.0,906.0,771.0,770.0
3908,943,755,0,3915.0,3921.0,931.0,919.0,762.0,771.0
3897,952,750,0,3908.0,3915.0,943.0,931.0,755.0,762.0
3894,958,750,0,3897.0,3908.0,952.0,943.0,750.0,755.0
3891,970,754,0,3894.0,3897.0,958.0,952.0,750.0,750.0
3888,981,758,0,3891.0,3894.0,970.0,958.0,754.0,750.0
3883,990,762,0,3888.0,3891.0,981.0,970.0,758.0,754.0
3879,1002,765,0,3883.0,3888.0,990.0,981.0,762.0,758.0
3877,1009,763,0,3879.0,3883.0,1002.0,990.0,765.0,762.0
3871,1015,761,0,3877.0,3879.0,1009.0,1002.0,763.0,765.0
3868,1016,756,0,3871.0,3877.0,1015.0,1009.0,761.0,763.0
3864,1016,752,0,3868.0,3871.0,1016.0,1015.0,756.0,761.0
3859,1010,755,0,3864.0,3868.0,1016.0,1016.0,752.0,756.0
3858,1002,755,0,3859.0,3864.0,1010.0,1016.0,755.0,752.0
3859,994,757,0,3858.0,3859.0,1002.0,1010.0,755.0,755.0
3865,985,753,0,3859.0,3858.0,994.0,1002.0,757.0,755.0
3870,976,755,0,3865.0,3859.0,985.0,994.0,753.0,757.0
3874,972,753,0,3870.0,3865.0,976.0,985.0,755.0,753.0
3876,972,754,0,3874.0,3870.0,972.0,976.0,753.0,755.0
3878,976,758,0,3876.0,3874.0,972.0,972.0,754.0,753.0
3879,976,763,0,3878.0,3876.0,976.0,972.0,758.0,754.0
3878,977,769,0,3879.0,3878.0,976.0,976.0,763.0,758.0
3877,980,776,0,3878.0,3879.0,977.0,976.0,769.0,763.0
3867,984,785,0,3877.0,3878.0,980.0,977.0,776.0,769.0
3859,993,785,0,3867.0,3877.0,984.0,980.0,785.0,776.0
3855,999,784,0,3859.0,3867.0,993.0,984.0,785.0,785.0
3850,995,780,0,3855.0,3859.0,999.0,993.0,784.0,785.0
3848,989,777,0,3850.0,3855.0,995.0,999.0,780.0,784.0
3849,984,769,0,3848.0,3850.0,989.0,995.0,777.0,780.0
3852,976,764,0,3849.0,3848.0,984.0,989.0,769.0,777.0
3852,965,764,0,3852.0,3849.0,976.0,984.0,764.0,769.0
3855,958,765,0,3852.0,3852.0,965.0,976.0,764.0,764.0
3862,953,769,0,3855.0,3852.0,958.0,965.0,765.0,764.0
3868,946,775,0,3862.0,3855.0,953.0,958.0,769.0,765.0
3869,941,778,0,3868.0,3862.0,946.0,953.0,775.0,769.0
3871,937,785,0,3869.0,3868.0,941.0,946.0,778.0,775.0
3875,938,789,0,3871.0,3869.0,937.0,941.0,785.0,778.0
3872,930,791,0,3875.0,3871.0,938.0,937.0,789.0,785.0
3874,931,797,0,3872.0,3875.0,930.0,938.0,791.0,789.0
3869,933,800,0,3874.0,3872.0,931.0,930.0,797.0,791.0
3863,936,800,0,3869.0,3874.0,933.0,931.0,800.0,797.0
3863,941,796,0,3863.0,3869.0,936.0,933.0,800.0,800.0
3859,946,790,0,3863.0,3863.0,941.0,936.0,796.0,800.0
3854,948,792,0,3859.0,3863.0,946.0,941.0,790.0,796.0
3851,950,796,0,3854.0,3859.0,948.0,946.0,792.0,790.0
3851,952,796,0,3851.0,3854.0,950.0,948.0,796.0,792.0
3851,955,798,0,3851.0,3851.0,952.0,950.0,796.0,796.0
3849,961,800,0,3851.0,3851.0,955.0,952.0,798.0,796.0
3845,964,804,0,3849.0,3851.0,961.0,955.0,800.0,798.0
3844,969,804,0,3845.0,3849.0,964.0,961.0,804.0,800.0
3843,969,805,0,3844.0,3845.0,969.0,964.0,804.0,804.0
3845,970,803,0,3843.0,3844.0,969.0,969.0,805.0,804.0
3848,976,805,0,3845.0,3843.0,970.0,969.0,803.0,805.0
3851,975,803,0,3848.0,3845.0,976.0,970.0,805.0,803.0
3854,975,802,0,3851.0,3848.0,975.0,976.0,803.0,805.0
3864,969,802,0,3854.0,3851.0,975.0,975.0,802.0,803.0
3872,964,800,0,3864.0,3854.0,969.0,975.0,802.0,802.0
3881,959,803,0,3872.0,3864.0,964.0,969.0,800.0,802.0
3887,956,802,0,3881.0,3872.0,959.0,964.0,803.0,800.0
3895,958,803,0,3887.0,3881.0,956.0,959.0,802.0,803.0
3901,955,801,0,3895.0,3887.0,958.0,956.0,803.0,802.0
3901,954,798,0,3901.0,3895.0,955.0,958.0,801.0,803.0
3899,956,798,0,3901.0,3901.0,954.0,955.0,798.0,801.0
3893,956,798,0,3899.0,3901.0,956.0,954.0,798.0,798.0
3893,960,796,0,3893.0,3899.0,956.0,956.0,798.0,798.0
3892,966,798,0,3893.0,3893.0,960.0,956.0,796.0,798.0
3891,967,803,0,3892.0,3893.0,966.0,960.0,798.0,796.0
3888,972,802,0,3891.0,3892.0,967.0,966.0,803.0,798.0
3881,974,802,0,3888.0,3891.0,972.0,967.0,802.0,803.0
3873,976,802,0,3881.0,3888.0,974.0,972.0,802.0,802.0
3869,977,801,0,3873.0,3881.0,976.0,974.0,802.0,802.0
3863,979,801,0,3869.0,3873.0,977.0,976.0,801.0,802.0
3856,982,796,0,3863.0,3869.0,979.0,977.0,801.0,801.0
3852,985,795,0,3856.0,3863.0,982.0,979.0,796.0,801.0
3847,992,793,0,3852.0,3856.0,985.0,982.0,795.0,796.0
3840,1003,792,0,3847.0,3852.0,992.0,985.0,793.0,795.0
3831,1013,792,0,3840.0,3847.0,1003.0,992.0,792.0,793.0
3828,1025,792,0,3831.0,3840.0,1013.0,1003.0,792.0,792.0
3829,1031,793,0,3828.0,3831.0,1025.0,1013.0,792.0,792.0
3828,1041,806,0,3829.0,3828.0,1031.0,1025.0,793.0,792.0
3834,1041,817,0,3828.0,3829.0,1041.0,1031.0,806.0,793.0
3836,1037,823,0,3834.0,3828.0,1041.0,1041.0,817.0,806.0
3843,1024,817,0,3836.0,3834.0,1037.0,1041.0,823.0,817.0
3851,1006,803,0,3843.0,3836.0,1024.0,1037.0,817.0,823.0
3860,983,785,0,3851.0,3843.0,1006.0,1024.0,803.0,817.0
3866,972,773,0,3860.0,3851.0,983.0,1006.0,785.0,803.0
3873,984,770,0,3866.0,3860.0,972.0,983.0,773.0,785.0
3877,1004,786,0,3873.0,3866.0,984.0,972.0,770.0,773.0
3877,1032,807,0,3877.0,3873.0,1004.0,984.0,786.0,770.0
3878,1058,837,0,3877.0,3877.0,1032.0,1004.0,807.0,786.0
3878,1077,866,0,3878.0,3877.0,1058.0,1032.0,837.0,807.0
3871,1086,882,0,3878.0,3878.0,1077.0,1058.0,866.0,837.0
3866,1077,886,0,3871.0,3878.0,1086.0,1077.0,882.0,866.0
3856,1064,872,0,3866.0,3871.0,1077.0,1086.0,886.0,882.0
3843,1044,853,0,3856.0,3866.0,1064.0,1077.0,872.0,886.0
3832,1024,826,0,3843.0,3856.0,1044.0,1064.0,853.0,872.0
3823,1000,811,0,3832.0,3843.0,1024.0,1044.0,826.0,853.0
3817,989,800,0,3823.0,3832.0,1000.0,1024.0,811.0,826.0
3823,979,802,0,3817.0,3823.0,989.0,1000.0,800.0,811.0
3833,973,804,0,3823.0,3817.0,979.0,989.0,802.0,800.0
3846,966,806,0,3833.0,3823.0,973.0,979.0,804.0,802.0
3863,965,808,0,3846.0,3833.0,966.0,973.0,806.0,804.0
3877,961,804,0,3863.0,3846.0,965.0,966.0,808.0,806.0
3892,959,798,0,3877.0,3863.0,961.0,965.0,804.0,808.0
3904,957,792,0,3892.0,3877.0,959.0,961.0,798.0,804.0
3912,958,794,0,3904.0,3892.0,957.0,959.0,792.0,798.0
3914,969,795,0,3912.0,3904.0,958.0,957.0,794.0,792.0
3913,981,804,0,3914.0,3912.0,969.0,958.0,795.0,794.0
3904,994,812,0,3913.0,3914.0,981.0,969.0,804.0,795.0
3891,1013,822,0,3904.0,3913.0,994.0,981.0,812.0,804.0
3872,1025,824,0,3891.0,3904.0,1013.0,994.0,822.0,812.0
3851,1042,826,0,3872.0,3891.0,1025.0,1013.0,824.0,822.0
3834,1054,825,0,3851.0,3872.0,1042.0,1025.0,826.0,824.0
3818,1062,827,0,3834.0,3851.0,1054.0,1042.0,825.0,826.0
3809,1066,828,0,3818.0,3834.0,1062.0,1054.0,827.0,825.0
3804,1065,825,0,3809.0,3818.0,1066.0,1062.0,828.0,827.0
3807,1068,823,0,3804.0,3809.0,1065.0,1066.0,825.0,828.0
3812,1062,819,0,3807.0,3804.0,1068.0,1065.0,823.0,825.0
3818,1061,818,0,3812.0,3807.0,1062.0,1068.0,819.0,823.0
3830,1055,813,0,3818.0,3812.0,1061.0,1062.0,818.0,819.0
3841,1048,812,0,3830.0,3818.0,1055.0,1061.0,813.0,818.0
3851,1046,812,0,3841.0,3830.0,1048.0,1055.0,812.0,813.0
3861,1039,811,0,3851.0,3841.0,1046.0,1048.0,812.0,812.0
3871,1032,807,0,3861.0,3851.0,1039.0,1046.0,811.0,812.0
3876,1024,802,0,3871.0,3861.0,1032.0,1039.0,807.0,811.0
3880,1012,803,0,3876.0,3871.0,1024.0,1032.0,802.0,807.0
3881,1002,803,0,3880.0,3876.0,1012.0,1024.0,803.0,802.0
3884,992,801,0,3881.0,3880.0,1002.0,1012.0,803.0,803.0
3882,988,801,0,3884.0,3881.0,992.0,1002.0,801.0,803.0
3883,984,803,0,3882.0,3884.0,988.0,992.0,801.0,801.0
3879,987,802,0,3883.0,3882.0,984.0,988.0,803.0,801.0
3876,997,803,0,3879.0,3883.0,987.0,984.0,802.0,803.0
3869,1010,806,0,3876.0,3879.0,997.0,987.0,803.0,802.0
3861,1025,816,0,3869.0,3876.0,1010.0,997.0,806.0,803.0
3856,1036,822,0,3861.0,3869.0,1025.0,1010.0,816.0,806.0
3851,1049,827,0,3856.0,3861.0,1036.0,1025.0,822.0,816.0
3844,1055,833,0,3851.0,3856.0,1049.0,1036.0,827.0,822.0
3834,1061,838,0,3844.0,3851.0,1055.0,1049.0,833.0,827.0
3824,1058,837,0,3834.0,3844.0,1061.0,1055.0,838.0,833.0
3820,1053,831,0,3824.0,3834.0,1058.0,1061.0,837.0,838.0
3813,1046,825,0,3820.0,3824.0,1053.0,1058.0,831.0,837.0
3807,1038,820,0,3813.0,3820.0,1046.0,1053.0,825.0,831.0
3807,1029,812,0,3807.0,3813.0,1038.0,1046.0,820.0,825.0
3811,1020,810,0,3807.0,3807.0,1029.0,1038.0,812.0,820.0
3817,1010,809,0,3811.0,3807.0,1020.0,1029.0,810.0,812.0
3825,1004,811,0,3817.0,3811.0,1010.0,1020.0,809.0,810.0
3833,1002,811,0,3825.0,3817.0,1004.0,1010.0,811.0,809.0
3843,1001,816,0,3833.0,3825.0,1002.0,1004.0,811.0,811.0
3849,998,824,0,3843.0,3833.0,1001.0,1002.0,816.0,811.0
3858,998,826,0,3849.0,3843.0,998.0,1001.0,824.0,816.0
3864,1000,827,0,3858.0,3849.0,998.0,998.0,826.0,824.0
3865,997,827,0,3864.0,3858.0,1000.0,998.0,827.0,826.0
3862,1002,822,0,3865.0,3864.0,997.0,1000.0,827.0,827.0
3865,1003,820,0,3862.0,3865.0,1002.0,997.0,822.0,827.0
3862,1003,818,0,3865.0,3862.0,1003.0,1002.0,820.0,822.0
3855,1011,816,0,3862.0,3865.0,1003.0,1003.0,818.0,820.0
3855,1021,814,0,3855.0,3862.0,1011.0,1003.0,816.0,818.0
3852,1028,812,0,3855.0,3855.0,1021.0,1011.0,814.0,816.0
3848,1033,817,0,3852.0,3855.0,1028.0,1021.0,812.0,814.0
3843,1040,816,0,3848.0,3852.0,1033.0,1028.0,817.0,812.0
3839,1043,817,0,3843.0,3848.0,1040.0,1033.0,816.0,817.0
3837,1044,820,0,3839.0,3843.0,1043.0,1040.0,817.0,816.0
3834,1041,821,0,3837.0,3839.0,1044.0,1043.0,820.0,817.0
3834,1039,824,0,3834.0,3837.0,1041.0,1044.0,821.0,820.0
3836,1037,825,0,3834.0,3834.0,1039.0,1041.0,824.0,821.0
3840,1031,831,0,3836.0,3834.0,1037.0,1039.0,825.0,824.0
3836,1027,834,0,3840.0,3836.0,1031.0,1037.0,831.0,825.0
3840,1017,835,0,3836.0,3840.0,1027.0,1031.0,834.0,831.0
3842,1011,834,0,3840.0,3836.0,1017.0,1027.0,835.0,834.0
3844,1009,837,0,3842.0,3840.0,1011.0,1017.0,834.0,835.0
3844,1002,833,0,3844.0,3842.0,1009.0,1011.0,837.0,834.0
3846,1000,831,0,3844.0,3844.0,1002.0,1009.0,833.0,837.0
3850,998,827,0,3846.0,3844.0,1000.0,1002.0,831.0,833.0
3855,995,826,0,3850.0,3846.0,998.0,1000.0,827.0,831.0
3855,994,825,0,3855.0,3850.0,995.0,998.0,826.0,827.0
3858,998,824,0,3855.0,3855.0,994.0,995.0,825.0,826.0
3867,1000,826,0,3858.0,3855.0,998.0,994.0,824.0,825.0
3869,997,832,0,3867.0,3858.0,1000.0,998.0,826.0,824.0
3873,1000,833,0,3869.0,3867.0,997.0,1000.0,832.0,826.0
3874,999,837,0,3873.0,3869.0,1000.0,997.0,833.0,832.0
3874,1001,839,0,3874.0,3873.0,999.0,1000.0,837.0,833.0
3874,1007,843,0,3874.0,3874.0,1001.0,999.0,839.0,837.0
3870,1009,841,0,3874.0,3874.0,1007.0,1001.0,843.0,839.0
3868,1006,843,0,3870.0,3874.0,1009.0,1007.0,841.0,843.0
3861,1012,843,0,3868.0,3870.0,1006.0,1009.0,843.0,841.0
3859,1013,845,0,3861.0,3868.0,1012.0,1006.0,843.0,843.0
3853,1011,842,0,3859.0,3861.0,1013.0,1012.0,845.0,843.0
3846,1009,838,0,3853.0,3859.0,1011.0,1013.0,842.0,845.0
3842,1011,831,0,3846.0,3853.0,1009.0,1011.0,838.0,842.0
3832,1019,823,0,3842.0,3846.0,1011.0,1009.0,831.0,838.0
3826,1021,820,0,3832.0,3842.0,1019.0,1011.0,823.0,831.0
3820,1022,822,0,3826.0,3832.0,1021.0,1019.0,820.0,823.0
3817,1027,828,0,3820.0,3826.0,1022.0,1021.0,822.0,820.0
3818,1029,840,0,3817.0,3820.0,1027.0,1022.0,828.0,822.0
3821,1030,847,0,3818.0,3817.0,1029.0,1027.0,840.0,828.0
3828,1026,848,0,3821.0,3818.0,1030.0,1029.0,847.0,840.0
3835,1008,841,0,3828.0,3821.0,1026.0,1030.0,848.0,847.0
3844,989,829,0,3835.0,3828.0,1008.0,1026.0,841.0,848.0
3851,974,817,0,3844.0,3835.0,989.0,1008.0,829.0,841.0
3858,969,805,0,3851.0,3844.0,974.0,989.0,817.0,829.0
3863,970,805,0,3858.0,3851.0,969.0,974.0,805.0,817.0
3865,995,818,0,3863.0,3858.0,970.0,969.0,805.0,805.0
3865,1024,844,0,3865.0,3863.0,995.0,970.0,818.0,805.0
3858,1051,872,0,3865.0,3865.0,1024.0,995.0,844.0,818.0
3853,1076,897,0,3858.0,3865.0,1051.0,1024.0,872.0,844.0
3845,1089,909,0,3853.0,3858.0,1076.0,1051.0,897.0,872.0
3831,1089,909,0,3845.0,3853.0,1089.0,1076.0,909.0,897.0
3824,1077,892,0,3831.0,3845.0,1089.0,1089.0,909.0,909.0
3811,1062,871,0,3824.0,3831.0,1077.0,1089.0,892.0,909.0
3804,1041,853,0,3811.0,3824.0,1062.0,1077.0,871.0,892.0
3801,1019,838,0,3804.0,3811.0,1041.0,1062.0,853.0,871.0
3805,1001,830,0,3801.0,3804.0,1019.0,1041.0,838.0,853.0
3808,987,825,0,3805.0,3801.0,1001.0,1019.0,830.0,838.0
3821,980,816,0,3808.0,3805.0,987.0,1001.0,825.0,830.0
3831,974,813,0,3821.0,3808.0,980.0,987.0,816.0,825.0
3847,966,815,0,3831.0,3821.0,974.0,980.0,813.0,816.0
3864,958,813,0,3847.0,3831.0,966.0,974.0,815.0,813.0
3885,948,809,0,3864.0,3847.0,958.0,966.0,813.0,815.0
3896,945,807,0,3885.0,3864.0,948.0,958.0,809.0,813.0
3901,948,807,0,3896.0,3885.0,945.0,948.0,807.0,809.0
3909,952,808,0,3901.0,3896.0,948.0,945.0,807.0,807.0
3904,957,814,0,3909.0,3901.0,952.0,948.0,808.0,807.0
3892,973,822,0,3904.0,3909.0,957.0,952.0,814.0,808.0
3882,992,825,0,3892.0,3904.0,973.0,957.0,822.0,814.0
3868,1014,833,0,3882.0,3892.0,992.0,973.0,825.0,822.0
3850,1033,841,0,3868.0,3882.0,1014.0,992.0,833.0,825.0
3832,1053,844,0,3850.0,3868.0,1033.0,1014.0,841.0,833.0
3818,1069,846,0,3832.0,3850.0,1053.0,1033.0,844.0,841.0
3806,1082,850,0,3818.0,3832.0,1069.0,1053.0,846.0,844.0
3799,1086,852,0,3806.0,3818.0,1082.0,1069.0,850.0,846.0
3792,1086,854,0,3799.0,3806.0,1086.0,1082.0,852.0,850.0
3795,1082,854,0,3792.0,3799.0,1086.0,1086.0,854.0,852.0
3802,1078,852,0,3795.0,3792.0,1082.0,1086.0,854.0,854.0
3814,1074,850,0,3802.0,3795.0,1078.0,1082.0,852.0,854.0
3826,1066,849,0,3814.0,3802.0,1074.0,1078.0,850.0,852.0
3838,1054,850,0,3826.0,3814.0,1066.0,1074.0,849.0,850.0
3848,1046,847,0,3838.0,3826.0,1054.0,1066.0,850.0,849.0
3855,1037,845,0,3848.0,3838.0,1046.0,1054.0,847.0,850.0
3864,1025,842,0,3855.0,3848.0,1037.0,1046.0,845.0,847.0
3866,1011,838,0,3864.0,3855.0,1025.0,1037.0,842.0,845.0
3866,1002,839,0,3866.0,3864.0,1011.0,1025.0,838.0,842.0
3864,997,837,0,3866.0,3866.0,1002.0,1011.0,839.0,838.0
3861,993,836,0,3864.0,3866.0,997.0,1002.0,837.0,839.0
3858,985,837,0,3861.0,3864.0,993.0,997.0,836.0,837.0
3853,980,838,0,3858.0,3861.0,985.0,993.0,837.0,836.0
3859,974,837,0,3853.0,3858.0,980.0,985.0,838.0,837.0
3859,974,836,0,3859.0,3853.0,974.0,980.0,837.0,838.0
3857,976,839,0,3859.0,3859.0,974.0,974.0,836.0,837.0
3855,990,846,0,3857.0,3859.0,976.0,974.0,839.0,836.0
3856,1005,855,0,3855.0,3857.0,990.0,976.0,846.0,839.0
3853,1017,862,0,3856.0,3855.0,1005.0,990.0,855.0,846.0
3849,1028,862,0,3853.0,3856.0,1017.0,1005.0,862.0,855.0
3841,1037,865,0,3849.0,3853.0,1028.0,1017.0,862.0,862.0
3837,1041,866,0,3841.0,3849.0,1037.0,1028.0,865.0,862.0
3830,1041,865,0,3837.0,3841.0,1041.0,1037.0,866.0,865.0
3822,1039,858,0,3830.0,3837.0,1041.0,1041.0,865.0,866.0
3818,1038,854,0,3822.0,3830.0,1039.0,1041.0,858.0,865.0
3817,1033,852,0,3818.0,3822.0,1038.0,1039.0,854.0,858.0
3816,1025,852,0,3817.0,3818.0,1033.0,1038.0,852.0,854.0
3820,1016,856,0,3816.0,3817.0,1025.0,1033.0,852.0,852.0
3823,1016,856,0,3820.0,3816.0,1016.0,1025.0,856.0,852.0
3834,1005,860,0,3823.0,3820.0,1016.0,1016.0,856.0,856.0
3838,1002,860,0,3834.0,3823.0,1005.0,1016.0,860.0,856.0
3844,997,861,0,3838.0,3834.0,1002.0,1005.0,860.0,860.0
3851,990,864,0,3844.0,3838.0,997.0,1002.0,861.0,860.0
3857,984,870,0,3851.0,3844.0,990.0,997.0,864.0,861.0
3857,979,869,0,3857.0,3851.0,984.0,990.0,870.0,864.0
3865,973,868,0,3857.0,3857.0,979.0,984.0,869.0,870.0
3861,969,865,0,3865.0,3857.0,973.0,979.0,868.0,869.0
3862,969,865,0,3861.0,3865.0,969.0,973.0,865.0,868.0
3858,968,864,0,3862.0,3861.0,969.0,969.0,865.0,865.0
3854,971,862,0,3858.0,3862.0,968.0,969.0,864.0,865.0
3851,974,857,0,3854.0,3858.0,971.0,968.0,862.0,864.0
3849,975,856,0,3851.0,3854.0,974.0,971.0,857.0,862.0
3848,979,860,0,3849.0,3851.0,975.0,974.0,856.0,857.0
3845,983,861,0,3848.0,3849.0,979.0,975.0,860.0,856.0
3846,988,865,0,3845.0,3848.0,983.0,979.0,861.0,860.0
3847,989,865,0,3846.0,3845.0,988.0,983.0,865.0,861.0
3847,990,866,0,3847.0,3846.0,989.0,988.0,865.0,865.0
3847,988,867,0,3847.0,3847.0,990.0,989.0,866.0,865.0
3851,991,873,0,3847.0,3847.0,988.0,990.0,867.0,866.0
3850,993,876,0,3851.0,3847.0,991.0,988.0,873.0,867.0
3848,992,878,0,3850.0,3851.0,993.0,991.0,876.0,873.0
3846,993,876,0,3848.0,3850.0,992.0,993.0,878.0,876.0
3848,994,874,0,3846.0,3848.0,993.0,992.0,876.0,878.0
3850,986,870,0,3848.0,3846.0,994.0,993.0,874.0,876.0
3852,978,870,0,3850.0,3848.0,986.0,994.0,870.0,874.0
3852,971,865,0,3852.0,3850.0,978.0,986.0,870.0,870.0
3855,965,865,0,3852.0,3852.0,971.0,978.0,865.0,870.0
3856,963,864,0,3855.0,3852.0,965.0,971.0,865.0,865.0
3854,957,861,0,3856.0,3855.0,963.0,965.0,864.0,865.0
3854,952,854,0,3854.0,3856.0,957.0,963.0,861.0,864.0
3856,950,855,0,3854.0,3854.0,952.0,957.0,854.0,861.0
3856,949,857,0,3856.0,3854.0,950.0,952.0,855.0,854.0
3858,950,855,0,3856.0,3856.0,949.0,950.0,857.0,855.0
3859,953,853,0,3858.0,3856.0,950.0,949.0,855.0,857.0
3859,957,853,0,3859.0,3858.0,953.0,950.0,853.0,855.0
3860,960,851,0,3859.0,3859.0,957.0,953.0,853.0,853.0
3861,969,858,0,3860.0,3859.0,960.0,957.0,851.0,853.0
3863,976,864,0,3861.0,3860.0,969.0,960.0,858.0,851.0
3863,982,866,0,3863.0,3861.0,976.0,969.0,864.0,858.0
3863,986,868,0,3863.0,3863.0,982.0,976.0,866.0,864.0
3863,989,867,0,3863.0,3863.0,986.0,982.0,868.0,866.0
3861,991,865,0,3863.0,3863.0,989.0,986.0,867.0,868.0
3859,997,866,0,3861.0,3863.0,991.0,989.0,865.0,867.0
3858,1002,864,0,3859.0,3861.0,997.0,991.0,866.0,865.0
3852,1011,865,0,3858.0,3859.0,1002.0,997.0,864.0,866.0
3850,1019,869,0,3852.0,3858.0,1011.0,1002.0,865.0,864.0
3847,1021,875,0,3850.0,3852.0,1019.0,1011.0,869.0,865.0
3845,1026,887,0,3847.0,3850.0,1021.0,1019.0,875.0,869.0
3835,1028,896,0,3845.0,3847.0,1026.0,1021.0,887.0,875.0
3829,1028,900,0,3835.0,3845.0,1028.0,1026.0,896.0,887.0
3827,1012,889,0,3829.0,3835.0,1028.0,1028.0,900.0,896.0
3826,995,868,0,3827.0,3829.0,1012.0,1028.0,889.0,900.0
3825,980,848,0,3826.0,3827.0,995.0,1012.0,868.0,889.0
3826,974,827,0,3825.0,3826.0,980.0,995.0,848.0,868.0
3823,972,822,0,3826.0,3825.0,974.0,980.0,827.0,848.0
3822,977,829,0,3823.0,3826.0,972.0,974.0,822.0,827.0
3827,986,852,0,3822.0,3823.0,977.0,972.0,829.0,822.0
3829,994,882,0,3827.0,3822.0,986.0,977.0,852.0,829.0
3833,1008,907,0,3829.0,3827.0,994.0,986.0,882.0,852.0
3835,1018,921,0,3833.0,3829.0,1008.0,994.0,907.0,882.0
3833,1021,918,0,3835.0,3833.0,1018.0,1008.0,921.0,907.0
3824,1028,911,0,3833.0,3835.0,1021.0,1018.0,918.0,921.0
3820,1023,897,0,3824.0,3833.0,1028.0,1021.0,911.0,918.0
3813,1019,888,0,3820.0,3824.0,1023.0,1028.0,897.0,911.0
3809,1019,880,0,3813.0,3820.0,1019.0,1023.0,888.0,897.0
3803,1024,879,0,3809.0,3813.0,1019.0,1019.0,880.0,888.0
3800,1032,875,0,3803.0,3809.0,1024.0,1019.0,879.0,880.0
3806,1040,871,0,3800.0,3803.0,1032.0,1024.0,875.0,879.0
3815,1033,866,0,3806.0,3800.0,1040.0,1032.0,871.0,875.0
3830,1027,858,0,3815.0,3806.0,1033.0,1040.0,866.0,871.0
3843,1019,860,0,3830.0,3815.0,1027.0,1033.0,858.0,866.0
3859,1009,861,0,3843.0,3830.0,1019.0,1027.0,860.0,858.0
3873,998,866,0,3859.0,3843.0,1009.0,1019.0,861.0,860.0
3887,989,871,0,3873.0,3859.0,998.0,1009.0,866.0,861.0
3898,976,870,0,3887.0,3873.0,989.0,998.0,871.0,866.0
3906,971,870,0,3898.0,3887.0,976.0,989.0,870.0,871.0
3910,966,871,0,3906.0,3898.0,971.0,976.0,870.0,870.0
3909,963,865,0,3910.0,3906.0,966.0,971.0,871.0,870.0
3901,962,865,0,3909.0,3910.0,963.0,966.0,865.0,871.0
3898,963,868,0,3901.0,3909.0,962.0,963.0,865.0,865.0
3891,969,874,0,3898.0,3901.0,963.0,962.0,868.0,865.0
3880,981,874,0,3891.0,3898.0,969.0,963.0,874.0,868.0
3870,994,880,0,3880.0,3891.0,981.0,969.0,874.0,874.0
3862,1004,884,0,3870.0,3880.0,994.0,981.0,880.0,874.0
3846,1014,888,0,3862.0,3870.0,1004.0,994.0,884.0,880.0
3835,1023,885,0,3846.0,3862.0,1014.0,1004.0,888.0,884.0
3829,1030,886,0,3835.0,3846.0,1023.0,1014.0,885.0,888.0
3824,1032,885,0,3829.0,3835.0,1030.0,1023.0,886.0,885.0
3823,1033,886,0,3824.0,3829.0,1032.0,1030.0,885.0,886.0
3819,1033,882,0,3823.0,3824.0,1033.0,1032.0,886.0,885.0
3823,1033,881,0,3819.0,3823.0,1033.0,1033.0,882.0,886.0
3827,1032,880,0,3823.0,3819.0,1033.0,1033.0,881.0,882.0
3831,1031,883,0,3827.0,3823.0,1032.0,1033.0,880.0,881.0
3836,1028,886,0,3831.0,3827.0,1031.0,1032.0,883.0,880.0
3843,1024,883,0,3836.0,3831.0,1028.0,1031.0,886.0,883.0
3846,1022,880,0,3843.0,3836.0,1024.0,1028.0,883.0,886.0
3851,1019,882,0,3846.0,3843.0,1022.0,1024.0,880.0,883.0
3849,1019,879,0,3851.0,3846.0,1019.0,1022.0,882.0,880.0
3852,1019,880,0,3849.0,3851.0,1019.0,1019.0,879.0,882.0
3855,1018,883,0,3852.0,3849.0,1019.0,1019.0,880.0,879.0
3858,1020,887,0,3855.0,3852.0,1018.0,1019.0,883.0,880.0
3852,1019,890,0,3858.0,3855.0,1020.0,1018.0,887.0,883.0
3847,1021,892,0,3852.0,3858.0,1019.0,1020.0,890.0,887.0
3846,1020,893,0,3847.0,3852.0,1021.0,1019.0,892.0,890.0
3841,1018,895,0,3846.0,3847.0,1020.0,1021.0,893.0,892.0
3838,1019,897,0,3841.0,3846.0,1018.0,1020.0,895.0,893.0
3833,1020,896,0,3838.0,3841.0,1019.0,1018.0,897.0,895.0
3829,1022,901,0,3833.0,3838.0,1020.0,1019.0,896.0,897.0
3829,1026,901,0,3829.0,3833.0,1022.0,1020.0,901.0,896.0
3825,1032,902,0,3829.0,3829.0,1026.0,1022.0,901.0,901.0
3820,1031,897,0,3825.0,3829.0,1032.0,1026.0,902.0,901.0
3816,1029,895,0,3820.0,3825.0,1031.0,1032.0,897.0,902.0
3815,1032,892,0,3816.0,3820.0,1029.0,1031.0,895.0,897.0
3816,1027,891,0,3815.0,3816.0,1032.0,1029.0,892.0,895.0
3812,1026,892,0,3816.0,3815.0,1027.0,1032.0,891.0,892.0
3809,1022,889,0,3812.0,3816.0,1026.0,1027.0,892.0,891.0
3806,1017,891,0,3809.0,3812.0,1022.0,1026.0,889.0,892.0
3806,1009,895,0,3806.0,3809.0,1017.0,1022.0,891.0,889.0
3807,1004,895,0,3806.0,3806.0,1009.0,1017.0,895.0,891.0
3810,996,897,0,3807.0,3806.0,1004.0,1009.0,895.0,895.0
3812,988,897,0,3810.0,3807.0,996.0,1004.0,897.0,895.0
3816,983,900,0,3812.0,3810.0,988.0,996.0,897.0,897.0
3820,978,898,0,3816.0,3812.0,983.0,988.0,900.0,897.0
3830,976,899,0,3820.0,3816.0,978.0,983.0,898.0,900.0
3839,975,897,0,3830.0,3820.0,976.0,978.0,899.0,898.0
3844,972,897,0,3839.0,3830.0,975.0,976.0,897.0,899.0
3854,974,898,0,3844.0,3839.0,972.0,975.0,897.0,897.0
3857,975,903,0,3854.0,3844.0,974.0,972.0,898.0,897.0
3858,974,905,0,3857.0,3854.0,975.0,974.0,903.0,898.0
3859,971,904,0,3858.0,3857.0,974.0,975.0,905.0,903.0
3858,970,909,0,3859.0,3858.0,971.0,974.0,904.0,905.0
3854,964,912,0,3858.0,3859.0,970.0,971.0,909.0,904.0
3851,955,911,0,3854.0,3858.0,964.0,970.0,912.0,909.0
3851,952,911,0,3851.0,3854.0,955.0,964.0,911.0,912.0
3847,947,915,0,3851.0,3851.0,952.0,955.0,911.0,911.0
3840,941,913,0,3847.0,3851.0,947.0,952.0,915.0,911.0
3834,939,911,0,3840.0,3847.0,941.0,947.0,913.0,915.0
3831,932,910,0,3834.0,3840.0,939.0,941.0,911.0,913.0
3833,928,911,0,3831.0,3834.0,932.0,939.0,910.0,911.0
3836,922,916,0,3833.0,3831.0,928.0,932.0,911.0,910.0
3842,920,918,0,3836.0,3833.0,922.0,928.0,916.0,911.0
3848,914,918,0,3842.0,3836.0,920.0,922.0,918.0,916.0
3854,908,919,0,3848.0,3842.0,914.0,920.0,918.0,918.0
3864,904,924,0,3854.0,3848.0,908.0,914.0,919.0,918.0
3872,896,920,0,3864.0,3854.0,904.0,908.0,924.0,919.0
3879,890,923,0,3872.0,3864.0,896.0,904.0,920.0,924.0
3883,885,923,0,3879.0,3872.0,890.0,896.0,923.0,920.0
3889,881,921,0,3883.0,3879.0,885.0,890.0,923.0,923.0
3894,878,924,0,3889.0,3883.0,881.0,885.0,921.0,923.0
3896,875,922,0,3894.0,3889.0,878.0,881.0,924.0,921.0
3897,868,923,0,3896.0,3894.0,875.0,878.0,922.0,924.0
3897,863,929,0,3897.0,3896.0,868.0,875.0,923.0,922.0
3897,860,935,0,3897.0,3897.0,863.0,868.0,929.0,923.0
3896,855,937,0,3897.0,3897.0,860.0,863.0,935.0,929.0
3893,858,939,0,3896.0,3897.0,855.0,860.0,937.0,935.0
3890,854,934,0,3893.0,3896.0,858.0,855.0,939.0,937.0
3885,854,934,0,3890.0,3893.0,854.0,858.0,934.0,939.0
3882,856,938,0,3885.0,3890.0,854.0,854.0,934.0,934.0
3872,859,936,0,3882.0,3885.0,856.0,854.0,938.0,934.0
3860,862,935,0,3872.0,3882.0,859.0,856.0,936.0,938.0
3853,864,938,0,3860.0,3872.0,862.0,859.0,935.0,936.0
3846,873,935,0,3853.0,3860.0,864.0,862.0,938.0,935.0
3840,875,937,0,3846.0,3853.0,873.0,864.0,935.0,938.0
3839,885,939,0,3840.0,3846.0,875.0,873.0,937.0,935.0
3837,892,945,0,3839.0,3840.0,885.0,875.0,939.0,937.0
3840,895,953,0,3837.0,3839.0,892.0,885.0,945.0,939.0
3844,896,962,0,3840.0,3837.0,895.0,892.0,953.0,945.0
3850,893,964,0,3844.0,3840.0,896.0,895.0,962.0,953.0
3853,892,962,0,3850.0,3844.0,893.0,896.0,964.0,962.0
3857,884,952,0,3853.0,3850.0,892.0,893.0,962.0,964.0
3853,877,939,0,3857.0,3853.0,884.0,892.0,952.0,962.0
3850,868,924,0,3853.0,3857.0,877.0,884.0,939.0,952.0
3849,859,914,0,3850.0,3853.0,868.0,877.0,924.0,939.0
3847,857,910,0,3849.0,3850.0,859.0,868.0,914.0,924.0
3845,868,926,0,3847.0,3849.0,857.0,859.0,910.0,914.0
3844,879,953,0,3845.0,3847.0,868.0,857.0,926.0,910.0
3842,891,980,0,3844.0,3845.0,879.0,868.0,953.0,926.0
3841,904,1001,0,3842.0,3844.0,891.0,879.0,980.0,953.0
3837,910,1010,0,3841.0,3842.0,904.0,891.0,1001.0,980.0
3830,912,1010,0,3837.0,3841.0,910.0,904.0,1010.0,1001.0
3820,912,995,0,3830.0,3837.0,912.0,910.0,1010.0,1010.0
3813,912,975,0,3820.0,3830.0,912.0,912.0,995.0,1010.0
3806,902,964,0,3813.0,3820.0,912.0,912.0,975.0,995.0
3803,894,954,0,3806.0,3813.0,902.0,912.0,964.0,975.0
3803,889,948,0,3803.0,3806.0,894.0,902.0,954.0,964.0
3810,879,945,0,3803.0,3803.0,889.0,894.0,948.0,954.0
3820,875,943,0,3810.0,3803.0,879.0,889.0,945.0,948.0
3832,872,943,0,3820.0,3810.0,875.0,879.0,943.0,945.0
3842,865,946,0,3832.0,3820.0,872.0,875.0,943.0,943.0
3854,854,942,0,3842.0,3832.0,865.0,872.0,946.0,943.0
3867,846,940,0,3854.0,3842.0,854.0,865.0,942.0,946.0
3877,840,940,0,3867.0,3854.0,846.0,854.0,940.0,942.0
3884,835,942,0,3877.0,3867.0,840.0,846.0,940.0,940.0
3890,834,945,0,3884.0,3877.0,835.0,840.0,942.0,940.0
3894,829,948,0,3890.0,3884.0,834.0,835.0,945.0,942.0
3891,826,954,0,3894.0,3890.0,829.0,834.0,948.0,945.0
3889,829,955,0,3891.0,3894.0,826.0,829.0,954.0,948.0
3885,828,956,0,3889.0,3891.0,829.0,826.0,955.0,954.0
3883,830,956,0,3885.0,3889.0,828.0,829.0,956.0,955.0
3872,838,958,0,3883.0,3885.0,830.0,828.0,956.0,956.0
3863,843,955,0,3872.0,3883.0,838.0,830.0,958.0,956.0
3859,846,958,0,3863.0,3872.0,843.0,838.0,955.0,958.0
3856,853,957,0,3859.0,3863.0,846.0,843.0,958.0,955.0
3855,862,958,0,3856.0,3859.0,853.0,846.0,957.0,958.0
3855,867,964,0,3855.0,3856.0,862.0,853.0,958.0,957.0
3863,872,961,0,3855.0,3855.0,867.0,862.0,964.0,958.0
3862,876,960,0,3863.0,3855.0,872.0,867.0,961.0,964.0
3862,885,961,0,3862.0,3863.0,876.0,872.0,960.0,961.0
3857,896,959,0,3862.0,3862.0,885.0,876.0,961.0,960.0
3857,895,959,0,3857.0,3862.0,896.0,885.0,959.0,961.0
3854,901,965,0,3857.0,3857.0,895.0,896.0,959.0,959.0
3850,902,966,0,3854.0,3857.0,901.0,895.0,965.0,959.0
3848,905,964,0,3850.0,3854.0,902.0,901.0,966.0,965.0
3847,905,962,0,3848.0,3850.0,905.0,902.0,964.0,966.0
3846,909,963,0,3847.0,3848.0,905.0,905.0,962.0,964.0
3843,913,963,0,3846.0,3847.0,909.0,905.0,963.0,962.0
3837,916,960,0,3843.0,3846.0,913.0,909.0,963.0,963.0
3832,921,959,0,3837.0,3843.0,916.0,913.0,960.0,963.0
3832,920,958,0,3832.0,3837.0,921.0,916.0,959.0,960.0
3832,923,959,0,3832.0,3832.0,920.0,921.0,958.0,959.0
3835,923,961,0,3832.0,3832.0,923.0,920.0,959.0,958.0
3833,925,961,0,3835.0,3832.0,923.0,923.0,961.0,959.0
3831,929,957,0,3833.0,3835.0,925.0,923.0,961.0,961.0
3830,931,959,0,3831.0,3833.0,929.0,925.0,957.0,961.0
3826,926,957,0,3830.0,3831.0,931.0,929.0,959.0,957.0
3824,926,954,0,3826.0,3830.0,926.0,931.0,957.0,959.0
3825,924,952,0,3824.0,3826.0,926.0,926.0,954.0,957.0
3822,926,954,0,3825.0,3824.0,924.0,926.0,952.0,954.0
3823,923,956,0,3822.0,3825.0,926.0,924.0,954.0,952.0
3823,919,953,0,3823.0,3822.0,923.0,926.0,956.0,954.0
3822,916,953,0,3823.0,3823.0,919.0,923.0,953.0,956.0
3822,913,955,0,3822.0,3823.0,916.0,919.0,953.0,953.0
3824,910,954,0,3822.0,3822.0,913.0,916.0,955.0,953.0
3832,902,954,0,3824.0,3822.0,910.0,913.0,954.0,955.0
3837,894,955,0,3832.0,3824.0,902.0,910.0,954.0,954.0
3843,888,957,0,3837.0,3832.0,894.0,902.0,955.0,954.0
3849,880,958,0,3843.0,3837.0,888.0,894.0,957.0,955.0
3857,874,963,0,3849.0,3843.0,880.0,888.0,958.0,957.0
3863,872,966,0,3857.0,3849.0,874.0,880.0,963.0,958.0
3867,867,969,0,3863.0,3857.0,872.0,874.0,966.0,963.0
3873,863,974,0,3867.0,3863.0,867.0,872.0,969.0,966.0
3872,857,978,0,3873.0,3867.0,863.0,867.0,974.0,969.0
3866,857,982,0,3872.0,3873.0,857.0,863.0,978.0,974.0
3861,859,978,0,3866.0,3872.0,857.0,857.0,982.0,978.0
3855,863,980,0,3861.0,3866.0,859.0,857.0,978.0,982.0
3853,867,984,0,3855.0,3861.0,863.0,859.0,980.0,978.0
3847,871,985,0,3853.0,3855.0,867.0,863.0,984.0,980.0
3845,874,979,0,3847.0,3853.0,871.0,867.0,985.0,984.0
3837,877,973,0,3845.0,3847.0,874.0,871.0,979.0,985.0
3832,876,972,0,3837.0,3845.0,877.0,874.0,973.0,979.0
3834,873,973,0,3832.0,3837.0,876.0,877.0,972.0,973.0
3836,872,970,0,3834.0,3832.0,873.0,876.0,973.0,972.0
3833,871,965,0,3836.0,3834.0,872.0,873.0,970.0,973.0
3839,865,962,0,3833.0,3836.0,871.0,872.0,965.0,970.0
3843,865,962,0,3839.0,3833.0,865.0,871.0,962.0,965.0
3846,861,960,0,3843.0,3839.0,865.0,865.0,962.0,962.0
3850,862,959,0,3846.0,3843.0,861.0,865.0,960.0,962.0
3850,861,967,0,3850.0,3846.0,862.0,861.0,959.0,960.0
3852,859,973,0,3850.0,3850.0,861.0,862.0,967.0,959.0
3851,857,978,0,3852.0,3850.0,859.0,861.0,973.0,967.0
3855,856,978,0,3851.0,3852.0,857.0,859.0,978.0,973.0
3857,858,983,0,3855.0,3851.0,856.0,857.0,978.0,978.0
3861,860,987,0,3857.0,3855.0,858.0,856.0,983.0,978.0
3859,860,994,0,3861.0,3857.0,860.0,858.0,987.0,983.0
3867,860,1000,0,3859.0,3861.0,860.0,860.0,994.0,987.0
3863,859,1000,0,3867.0,3859.0,860.0,860.0,1000.0,994.0
3863,857,1000,0,3863.0,3867.0,859.0,860.0,1000.0,1000.0
3862,854,1003,0,3863.0,3863.0,857.0,859.0,1000.0,1000.0
3861,852,1002,0,3862.0,3863.0,854.0,857.0,1003.0,1000.0
3859,850,1000,0,3861.0,3862.0,852.0,854.0,1002.0,1003.0
3856,848,997,0,3859.0,3861.0,850.0,852.0,1000.0,1002.0
3852,851,997,0,3856.0,3859.0,848.0,850.0,997.0,1000.0
3851,852,1002,0,3852.0,3856.0,851.0,848.0,997.0,997.0
3847,854,1002,0,3851.0,3852.0,852.0,851.0,1002.0,997.0
3847,853,1002,0,3847.0,3851.0,854.0,852.0,1002.0,1002.0
3848,851,1005,0,3847.0,3847.0,853.0,854.0,1002.0,1002.0
3846,847,1003,0,3848.0,3847.0,851.0,853.0,1005.0,1002.0
3844,842,1005,0,3846.0,3848.0,847.0,851.0,1003.0,1005.0
3840,838,1007,0,3844.0,3846.0,842.0,847.0,1005.0,1003.0
3840,840,1012,0,3840.0,3844.0,838.0,842.0,1007.0,1005.0
3840,838,1012,0,3840.0,3840.0,840.0,838.0,1012.0,1007.0
3837,837,1017,0,3840.0,3840.0,838.0,840.0,1012.0,1012.0
3833,836,1021,0,3837.0,3840.0,837.0,838.0,1017.0,1012.0
3832,835,1022,0,3833.0,3837.0,836.0,837.0,1021.0,1017.0
3832,834,1018,0,3832.0,3833.0,835.0,836.0,1022.0,1021.0
3837,830,1018,0,3832.0,3832.0,834.0,835.0,1018.0,1022.0
3838,824,1024,0,3837.0,3832.0,830.0,834.0,1018.0,1018.0
3842,822,1028,0,3838.0,3837.0,824.0,830.0,1024.0,1018.0
3848,809,1031,0,3842.0,3838.0,822.0,824.0,1028.0,1024.0
3847,799,1025,0,3848.0,3842.0,809.0,822.0,1031.0,1028.0
3849,789,1019,0,3847.0,3848.0,799.0,809.0,1025.0,1031.0
3848,781,1006,0,3849.0,3847.0,789.0,799.0,1019.0,1025.0
3845,777,992,0,3848.0,3849.0,781.0,789.0,1006.0,1019.0
3843,770,976,0,3845.0,3848.0,777.0,781.0,992.0,1006.0
3843,775,976,0,3843.0,3845.0,770.0,777.0,976.0,992.0
3845,779,982,0,3843.0,3843.0,775.0,770.0,976.0,976.0
3850,786,1002,0,3845.0,3843.0,779.0,775.0,982.0,976.0
3854,793,1016,0,3850.0,3845.0,786.0,779.0,1002.0,982.0
3854,796,1026,0,3854.0,3850.0,793.0,786.0,1016.0,1002.0
3852,801,1024,0,3854.0,3854.0,796.0,793.0,1026.0,1016.0
3849,802,1011,0,3852.0,3854.0,801.0,796.0,1024.0,1026.0
3840,806,989,0,3849.0,3852.0,802.0,801.0,1011.0,1024.0
3840,805,979,0,3840.0,3849.0,806.0,802.0,989.0,1011.0
3833,806,970,0,3840.0,3840.0,805.0,806.0,979.0,989.0
3831,807,961,0,3833.0,3840.0,806.0,805.0,970.0,979.0
3829,809,954,0,3831.0,3833.0,807.0,806.0,961.0,970.0
3828,814,947,0,3829.0,3831.0,809.0,807.0,954.0,961.0
3832,819,940,0,3828.0,3829.0,814.0,809.0,947.0,954.0
3838,823,933,0,3832.0,3828.0,819.0,814.0,940.0,947.0
3845,825,920,0,3838.0,3832.0,823.0,819.0,933.0,940.0
3853,830,914,0,3845.0,3838.0,825.0,823.0,920.0,933.0
3856,836,909,0,3853.0,3845.0,830.0,825.0,914.0,920.0
3861,845,911,0,3856.0,3853.0,836.0,830.0,909.0,914.0
3866,855,912,0,3861.0,3856.0,845.0,836.0,911.0,909.0
3871,869,919,0,3866.0,3861.0,855.0,845.0,912.0,911.0
3872,882,925,0,3871.0,3866.0,869.0,855.0,919.0,912.0
3874,898,930,0,3872.0,3871.0,882.0,869.0,925.0,919.0
3870,910,935,0,3874.0,3872.0,898.0,882.0,930.0,925.0
3862,924,927,0,3870.0,3874.0,910.0,898.0,935.0,930.0
3855,937,928,0,3862.0,3870.0,924.0,910.0,927.0,935.0
3846,947,933,0,3855.0,3862.0,937.0,924.0,928.0,927.0
3842,952,937,0,3846.0,3855.0,947.0,937.0,933.0,928.0
3834,959,941,0,3842.0,3846.0,952.0,947.0,937.0,933.0
3834,968,942,0,3834.0,3842.0,959.0,952.0,941.0,937.0
3831,973,947,0,3834.0,3834.0,968.0,959.0,942.0,941.0
3836,974,955,0,3831.0,3834.0,973.0,968.0,947.0,942.0
3837,971,956,0,3836.0,3831.0,974.0,973.0,955.0,947.0
3840,970,961,0,3837.0,3836.0,971.0,974.0,956.0,955.0
3844,962,966,0,3840.0,3837.0,970.0,971.0,961.0,956.0
3850,961,969,0,3844.0,3840.0,962.0,970.0,966.0,961.0
3855,956,968,0,3850.0,3844.0,961.0,962.0,969.0,966.0
3853,953,972,0,3855.0,3850.0,956.0,961.0,968.0,969.0
3854,948,975,0,3853.0,3855.0,953.0,956.0,972.0,968.0
3854,946,974,0,3854.0,3853.0,948.0,953.0,975.0,972.0
3854,942,976,0,3854.0,3854.0,946.0,948.0,974.0,975.0
3853,934,980,0,3854.0,3854.0,942.0,946.0,976.0,974.0
3851,930,984,0,3853.0,3854.0,934.0,942.0,980.0,976.0
3848,922,987,0,3851.0,3853.0,930.0,934.0,984.0,980.0
3848,913,989,0,3848.0,3851.0,922.0,930.0,987.0,984.0
3848,904,987,0,3848.0,3848.0,913.0,922.0,989.0,987.0
3848,891,987,0,3848.0,3848.0,904.0,913.0,987.0,989.0
3850,877,989,0,3848.0,3848.0,891.0,904.0,987.0,987.0
3846,862,985,0,3850.0,3848.0,877.0,891.0,989.0,987.0
3843,854,986,0,3846.0,3850.0,862.0,877.0,985.0,989.0
3839,844,986,0,3843.0,3846.0,854.0,862.0,986.0,985.0
3831,839,985,0,3839.0,3843.0,844.0,854.0,986.0,986.0
3826,828,981,0,3831.0,3839.0,839.0,844.0,985.0,986.0
3821,821,976,0,3826.0,3831.0,828.0,839.0,981.0,985.0
3821,813,973,0,3821.0,3826.0,821.0,828.0,976.0,981.0
3818,808,968,0,3821.0,3821.0,813.0,821.0,973.0,976.0
3817,802,960,0,3818.0,3821.0,808.0,813.0,968.0,973.0
3821,801,955,0,3817.0,3818.0,802.0,808.0,960.0,968.0
3826,801,949,0,3821.0,3817.0,801.0,802.0,955.0,960.0
3836,802,946,0,3826.0,3821.0,801.0,801.0,949.0,955.0
3844,807,950,0,3836.0,3826.0,802.0,801.0,946.0,949.0
3855,812,948,0,3844.0,3836.0,807.0,802.0,950.0,946.0
3868,823,947,0,3855.0,3844.0,812.0,807.0,948.0,950.0
3876,834,951,0,3868.0,3855.0,823.0,812.0,947.0,948.0
3886,847,950,0,3876.0,3868.0,834.0,823.0,951.0,947.0
3895,856,950,0,3886.0,3876.0,847.0,834.0,950.0,951.0
3896,874,954,0,3895.0,3886.0,856.0,847.0,950.0,950.0
3895,887,956,0,3896.0,3895.0,874.0,856.0,954.0,950.0
3892,901,955,0,3895.0,3896.0,887.0,874.0,956.0,954.0
3883,915,961,0,3892.0,3895.0,901.0,887.0,955.0,956.0
3875,927,966,0,3883.0,3892.0,915.0,901.0,961.0,955.0
3870,930,968,0,3875.0,3883.0,927.0,915.0,966.0,961.0
3861,934,973,0,3870.0,3875.0,930.0,927.0,968.0,966.0
3853,936,971,0,3861.0,3870.0,934.0,930.0,973.0,968.0
3843,932,967,0,3853.0,3861.0,936.0,934.0,971.0,973.0
3836,926,964,0,3843.0,3853.0,932.0,936.0,967.0,971.0
3827,921,961,0,3836.0,3843.0,926.0,932.0,964.0,967.0
3822,913,956,0,3827.0,3836.0,921.0,926.0,961.0,964.0
3821,905,947,0,3822.0,3827.0,913.0,921.0,956.0,961.0
3822,902,948,0,3821.0,3822.0,905.0,913.0,947.0,956.0
3823,901,947,0,3822.0,3821.0,902.0,905.0,948.0,947.0
3825,904,947,0,3823.0,3822.0,901.0,902.0,947.0,948.0
3827,910,951,0,3825.0,3823.0,904.0,901.0,947.0,947.0
3834,917,958,0,3827.0,3825.0,910.0,904.0,951.0,947.0
3839,922,967,0,3834.0,3827.0,917.0,910.0,958.0,951.0
3845,930,977,0,3839.0,3834.0,922.0,917.0,967.0,958.0
3844,939,990,0,3845.0,3839.0,930.0,922.0,977.0,967.0
3846,952,997,0,3844.0,3845.0,939.0,930.0,990.0,977.0
3843,967,1003,0,3846.0,3844.0,952.0,939.0,997.0,990.0
3839,972,1006,0,3843.0,3846.0,967.0,952.0,1003.0,997.0
3833,978,1003,0,3839.0,3843.0,972.0,967.0,1006.0,1003.0
3829,979,1004,0,3833.0,3839.0,978.0,972.0,1003.0,1006.0
3826,975,1005,0,3829.0,3833.0,979.0,978.0,1004.0,1003.0
3826,964,1001,0,3826.0,3829.0,975.0,979.0,1005.0,1004.0
3827,953,998,0,3826.0,3826.0,964.0,975.0,1001.0,1005.0
3826,945,993,0,3827.0,3826.0,953.0,964.0,998.0,1001.0
3824,937,993,0,3826.0,3827.0,945.0,953.0,993.0,998.0
3824,928,991,0,3824.0,3826.0,937.0,945.0,993.0,993.0
3823,918,985,0,3824.0,3824.0,928.0,937.0,991.0,993.0
3825,911,980,0,3823.0,3824.0,918.0,928.0,985.0,991.0
3823,901,980,0,3825.0,3823.0,911.0,918.0,980.0,985.0
3830,897,980,0,3823.0,3825.0,901.0,911.0,980.0,980.0
3835,894,974,0,3830.0,3823.0,897.0,901.0,980.0,980.0
3837,895,967,0,3835.0,3830.0,894.0,897.0,974.0,980.0
3843,894,967,0,3837.0,3835.0,895.0,894.0,967.0,974.0
3847,899,969,0,3843.0,3837.0,894.0,895.0,967.0,967.0
3857,900,974,0,3847.0,3843.0,899.0,894.0,969.0,967.0
3863,904,974,0,3857.0,3847.0,900.0,899.0,974.0,969.0
3869,911,975,0,3863.0,3857.0,904.0,900.0,974.0,974.0
3872,921,975,0,3869.0,3863.0,911.0,904.0,975.0,974.0
3873,931,977,0,3872.0,3869.0,921.0,911.0,975.0,975.0
3871,935,982,0,3873.0,3872.0,931.0,921.0,977.0,975.0
3866,939,986,0,3871.0,3873.0,935.0,931.0,982.0,977.0
3865,941,989,0,3866.0,3871.0,939.0,935.0,986.0,982.0
3858,940,991,0,3865.0,3866.0,941.0,939.0,989.0,986.0
3851,943,995,0,3858.0,3865.0,940.0,941.0,991.0,989.0
3841,944,996,0,3851.0,3858.0,943.0,940.0,995.0,991.0
3832,941,999,0,3841.0,3851.0,944.0,943.0,996.0,995.0
3821,932,997,0,3832.0,3841.0,941.0,944.0,999.0,996.0
3813,925,988,0,3821.0,3832.0,932.0,941.0,997.0,999.0
3806,917,980,0,3813.0,3821.0,925.0,932.0,988.0,997.0
3798,913,962,0,3806.0,3813.0,917.0,925.0,980.0,988.0
3796,904,948,0,3798.0,3806.0,913.0,917.0,962.0,980.0
3796,896,941,0,3796.0,3798.0,904.0,913.0,948.0,962.0
3803,890,944,0,3796.0,3796.0,896.0,904.0,941.0,948.0
3818,888,964,0,3803.0,3796.0,890.0,896.0,944.0,941.0
3834,891,987,0,3818.0,3803.0,888.0,890.0,964.0,944.0
3852,899,1004,0,3834.0,3818.0,891.0,888.0,987.0,964.0
3868,910,1012,0,3852.0,3834.0,899.0,891.0,1004.0,987.0
3879,919,1013,0,3868.0,3852.0,910.0,899.0,1012.0,1004.0
3884,928,1004,0,3879.0,3868.0,919.0,910.0,1013.0,1012.0
3887,935,996,0,3884.0,3879.0,928.0,919.0,1004.0,1013.0
3883,944,988,0,3887.0,3884.0,935.0,928.0,996.0,1004.0
3877,948,987,0,3883.0,3887.0,944.0,935.0,988.0,996.0
3870,951,984,0,3877.0,3883.0,948.0,944.0,987.0,988.0
3862,955,979,0,3870.0,3877.0,951.0,948.0,984.0,987.0
3855,961,972,0,3862.0,3870.0,955.0,951.0,979.0,984.0
3845,959,962,0,3855.0,3862.0,961.0,955.0,972.0,979.0
3835,958,958,0,3845.0,3855.0,959.0,961.0,962.0,972.0
3828,951,952,0,3835.0,3845.0,958.0,959.0,958.0,962.0
3824,953,947,0,3828.0,3835.0,951.0,958.0,952.0,958.0
3817,944,947,0,3824.0,3828.0,953.0,951.0,947.0,952.0
3814,941,950,0,3817.0,3824.0,944.0,953.0,947.0,947.0
3810,935,951,0,3814.0,3817.0,941.0,944.0,950.0,947.0
3812,929,951,0,3810.0,3814.0,935.0,941.0,951.0,950.0
3814,924,951,0,3812.0,3810.0,929.0,935.0,951.0,951.0
3814,919,951,0,3814.0,3812.0,924.0,929.0,951.0,951.0
3813,915,951,0,3814.0,3814.0,919.0,924.0,951.0,951.0
3815,915,955,0,3813.0,3814.0,915.0,919.0,951.0,951.0
3822,912,957,0,3815.0,3813.0,915.0,915.0,955.0,951.0
3827,919,958,0,3822.0,3815.0,912.0,915.0,957.0,955.0
3829,924,961,0,3827.0,3822.0,919.0,912.0,958.0,957.0
3834,929,962,0,3829.0,3827.0,924.0,919.0,961.0,958.0
3837,934,964,0,3834.0,3829.0,929.0,924.0,962.0,961.0
3847,935,968,0,3837.0,3834.0,934.0,929.0,964.0,962.0
3851,933,975,0,3847.0,3837.0,935.0,934.0,968.0,964.0
3858,934,976,0,3851.0,3847.0,933.0,935.0,975.0,968.0
3861,931,971,0,3858.0,3851.0,934.0,933.0,976.0,975.0
3865,927,966,0,3861.0,3858.0,931.0,934.0,971.0,976.0
3867,924,956,0,3865.0,3861.0,927.0,931.0,966.0,971.0
3867,922,949,0,3867.0,3865.0,924.0,927.0,956.0,966.0
3864,919,943,0,3867.0,3867.0,922.0,924.0,949.0,956.0
3863,914,945,0,3864.0,3867.0,919.0,922.0,943.0,949.0
3863,914,948,0,3863.0,3864.0,914.0,919.0,945.0,943.0
3863,914,954,0,3863.0,3863.0,914.0,914.0,948.0,945.0
3861,913,958,0,3863.0,3863.0,914.0,914.0,954.0,948.0
3856,915,954,0,3861.0,3863.0,913.0,914.0,958.0,954.0
3847,920,955,0,3856.0,3861.0,915.0,913.0,954.0,958.0
3845,924,956,0,3847.0,3856.0,920.0,915.0,955.0,954.0
3844,927,960,0,3845.0,3847.0,924.0,920.0,956.0,955.0
3838,932,964,0,3844.0,3845.0,927.0,924.0,960.0,956.0
3836,933,963,0,3838.0,3844.0,932.0,927.0,964.0,960.0
3831,936,962,0,3836.0,3838.0,933.0,932.0,963.0,964.0
3831,937,963,0,3831.0,3836.0,936.0,933.0,962.0,963.0
3828,937,966,0,3831.0,3831.0,937.0,936.0,963.0,962.0
3823,935,966,0,3828.0,3831.0,937.0,937.0,966.0,963.0
3821,936,962,0,3823.0,3828.0,935.0,937.0,966.0,966.0
3822,935,963,0,3821.0,3823.0,936.0,935.0,962.0,966.0
3825,933,962,0,3822.0,3821.0,935.0,936.0,963.0,962.0
3829,932,962,0,3825.0,3822.0,933.0,935.0,962.0,963.0
3834,934,967,0,3829.0,3825.0,932.0,933.0,962.0,962.0
3837,932,974,0,3834.0,3829.0,934.0,932.0,967.0,962.0
3840,934,972,0,3837.0,3834.0,932.0,934.0,974.0,967.0
3842,935,975,0,3840.0,3837.0,934.0,932.0,972.0,974.0
3844,936,974,0,3842.0,3840.0,935.0,934.0,975.0,972.0
3843,932,976,0,3844.0,3842.0,936.0,935.0,974.0,975.0
3843,925,972,0,3843.0,3844.0,932.0,936.0,976.0,974.0
3845,923,974,0,3843.0,3843.0,925.0,932.0,972.0,976.0
3846,920,974,0,3845.0,3843.0,923.0,925.0,974.0,972.0
3843,917,972,0,3846.0,3845.0,920.0,923.0,974.0,974.0
3843,912,966,0,3843.0,3846.0,917.0,920.0,972.0,974.0
3843,909,958,0,3843.0,3843.0,912.0,917.0,966.0,972.0
3847,902,952,0,3843.0,3843.0,909.0,912.0,958.0,966.0
3850,899,948,0,3847.0,3843.0,902.0,909.0,952.0,958.0
3859,899,947,0,3850.0,3847.0,899.0,902.0,948.0,952.0
3869,896,947,0,3859.0,3850.0,899.0,899.0,947.0,948.0
3876,898,946,0,3869.0,3859.0,896.0,899.0,947.0,947.0
3880,893,943,0,3876.0,3869.0,898.0,896.0,946.0,947.0
3885,892,940,0,3880.0,3876.0,893.0,898.0,943.0,946.0
3890,893,934,0,3885.0,3880.0,892.0,893.0,940.0,943.0
3887,888,932,0,3890.0,3885.0,893.0,892.0,934.0,940.0
3888,887,924,0,3887.0,3890.0,888.0,893.0,932.0,934.0
3885,888,922,0,3888.0,3887.0,887.0,888.0,924.0,932.0
3876,890,916,0,3885.0,3888.0,888.0,887.0,922.0,924.0
3873,896,916,0,3876.0,3885.0,890.0,888.0,916.0,922.0
3864,911,919,0,3873.0,3876.0,896.0,890.0,916.0,916.0
3858,927,927,0,3864.0,3873.0,911.0,896.0,919.0,916.0
3860,939,939,0,3858.0,3864.0,927.0,911.0,927.0,919.0
3857,952,943,0,3860.0,3858.0,939.0,927.0,939.0,927.0
3863,967,950,0,3857.0,3860.0,952.0,939.0,943.0,939.0
3862,976,953,0,3863.0,3857.0,967.0,952.0,950.0,943.0
3868,982,952,0,3862.0,3863.0,976.0,967.0,953.0,950.0
3867,978,950,0,3868.0,3862.0,982.0,976.0,952.0,953.0
3863,972,948,0,3867.0,3868.0,978.0,982.0,950.0,952.0
3865,965,944,0,3863.0,3867.0,972.0,978.0,948.0,950.0
3869,959,941,0,3865.0,3863.0,965.0,972.0,944.0,948.0
3866,956,937,0,3869.0,3865.0,959.0,965.0,941.0,944.0
3864,956,932,0,3866.0,3869.0,956.0,959.0,937.0,941.0
3862,955,933,0,3864.0,3866.0,956.0,956.0,932.0,937.0
3859,953,935,0,3862.0,3864.0,955.0,956.0,933.0,932.0
3857,957,932,0,3859.0,3862.0,953.0,955.0,935.0,933.0
3855,956,936,0,3857.0,3859.0,957.0,953.0,932.0,935.0
3852,952,939,0,3855.0,3857.0,956.0,957.0,936.0,932.0
3849,956,938,0,3852.0,3855.0,952.0,956.0,939.0,936.0
3845,964,935,0,3849.0,3852.0,956.0,952.0,938.0,939.0
3846,981,938,0,3845.0,3849.0,964.0,956.0,935.0,938.0
3844,996,943,0,3846.0,3845.0,981.0,964.0,938.0,935.0
3835,1013,949,0,3844.0,3846.0,996.0,981.0,943.0,938.0
3829,1035,957,0,3835.0,3844.0,1013.0,996.0,949.0,943.0
3820,1053,961,0,3829.0,3835.0,1035.0,1013.0,957.0,949.0
3813,1067,963,0,3820.0,3829.0,1053.0,1035.0,961.0,957.0
3802,1091,959,0,3813.0,3820.0,1067.0,1053.0,963.0,961.0
3781,1114,958,0,3802.0,3813.0,1091.0,1067.0,959.0,963.0
3767,1138,956,0,3781.0,3802.0,1114.0,1091.0,958.0,959.0
3758,1161,957,0,3767.0,3781.0,1138.0,1114.0,956.0,958.0
3743,1187,967,0,3758.0,3767.0,1161.0,1138.0,957.0,956.0
3732,1204,976,0,3743.0,3758.0,1187.0,1161.0,967.0,957.0
3725,1217,984,0,3732.0,3743.0,1204.0,1187.0,976.0,967.0
3714,1222,989,0,3725.0,3732.0,1217.0,1204.0,984.0,976.0
3708,1218,987,0,3714.0,3725.0,1222.0,1217.0,989.0,984.0
3704,1214,981,0,3708.0,3714.0,1218.0,1222.0,987.0,989.0
3699,1215,971,0,3704.0,3708.0,1214.0,1218.0,981.0,987.0
3693,1224,965,0,3699.0,3704.0,1215.0,1214.0,971.0,981.0
3686,1238,965,0,3693.0,3699.0,1224.0,1215.0,965.0,971.0
3683,1254,989,0,3686.0,3693.0,1238.0,1224.0,965.0,965.0
3681,1270,1023,0,3683.0,3686.0,1254.0,1238.0,989.0,965.0
3676,1288,1050,0,3681.0,3683.0,1270.0,1254.0,1023.0,989.0
3672,1309,1066,0,3676.0,3681.0,1288.0,1270.0,1050.0,1023.0
3667,1325,1073,0,3672.0,3676.0,1309.0,1288.0,1066.0,1050.0
3659,1334,1069,0,3667.0,3672.0,1325.0,1309.0,1073.0,1066.0
3645,1340,1056,0,3659.0,3667.0,1334.0,1325.0,1069.0,1073.0
3627,1341,1045,0,3645.0,3659.0,1340.0,1334.0,1056.0,1069.0
3613,1332,1043,0,3627.0,3645.0,1341.0,1340.0,1045.0,1056.0
3604,1325,1043,0,3613.0,3627.0,1332.0,1341.0,1043.0,1045.0
3609,1308,1047,0,3604.0,3613.0,1325.0,1332.0,1043.0,1043.0
3623,1282,1054,0,3609.0,3604.0,1308.0,1325.0,1047.0,1043.0
3642,1262,1061,0,3623.0,3609.0,1282.0,1308.0,1054.0,1047.0
3668,1236,1071,0,3642.0,3623.0,1262.0,1282.0,1061.0,1054.0
3696,1210,1079,0,3668.0,3642.0,1236.0,1262.0,1071.0,1061.0
3723,1173,1087,0,3696.0,3668.0,1210.0,1236.0,1079.0,1071.0
3757,1128,1095,0,3723.0,3696.0,1173.0,1210.0,1087.0,1079.0
3788,1079,1097,0,3757.0,3723.0,1128.0,1173.0,1095.0,1087.0
3813,1043,1093,0,3788.0,3757.0,1079.0,1128.0,1097.0,1095.0
3828,1024,1082,0,3813.0,3788.0,1043.0,1079.0,1093.0,1097.0
3838,1008,1081,0,3828.0,3813.0,1024.0,1043.0,1082.0,1093.0
3835,1001,1094,0,3838.0,3828.0,1008.0,1024.0,1081.0,1082.0
3826,1006,1105,0,3835.0,3838.0,1001.0,1008.0,1094.0,1081.0
3808,1019,1110,0,3826.0,3835.0,1006.0,1001.0,1105.0,1094.0
3791,1023,1114,0,3808.0,3826.0,1019.0,1006.0,1110.0,1105.0
3764,1028,1123,0,3791.0,3808.0,1023.0,1019.0,1114.0,1110.0
3742,1029,1134,0,3764.0,3791.0,1028.0,1023.0,1123.0,1114.0
3725,1018,1148,0,3742.0,3764.0,1029.0,1028.0,1134.0,1123.0
3708,1005,1141,0,3725.0,3742.0,1018.0,1029.0,1148.0,1134.0
3686,1017,1119,0,3708.0,3725.0,1005.0,1018.0,1141.0,1148.0
3649,1061,1105,0,3686.0,3708.0,1017.0,1005.0,1119.0,1141.0
3627,1055,1116,0,3649.0,3686.0,1061.0,1017.0,1105.0,1119.0
3641,999,1128,0,3627.0,3649.0,1055.0,1061.0,1116.0,1105.0
3673,931,1134,0,3641.0,3627.0,999.0,1055.0,1128.0,1116.0
3711,864,1128,0,3673.0,3641.0,931.0,999.0,1134.0,1128.0
3747,806,1111,0,3711.0,3673.0,864.0,931.0,1128.0,1134.0
3779,754,1087,0,3747.0,3711.0,806.0,864.0,1111.0,1128.0
3813,709,1065,0,3779.0,3747.0,754.0,806.0,1087.0,1111.0
3845,670,1055,0,3813.0,3779.0,709.0,754.0,1065.0,1087.0
3875,644,1065,0,3845.0,3813.0,670.0,709.0,1055.0,1065.0
3906,633,1082,0,3875.0,3845.0,644.0,670.0,1065.0,1055.0
3937,636,1091,0,3906.0,3875.0,633.0,644.0,1082.0,1065.0
3961,634,1092,0,3937.0,3906.0,636.0,633.0,1091.0,1082.0
3976,634,1080,0,3961.0,3937.0,634.0,636.0,1092.0,1091.0
3977,628,1067,0,3976.0,3961.0,634.0,634.0,1080.0,1092.0
3976,630,1054,0,3977.0,3976.0,628.0,634.0,1067.0,1080.0
3983,622,1067,0,3976.0,3977.0,630.0,628.0,1054.0,1067.0
3992,621,1064,0,3983.0,3976.0,622.0,630.0,1067.0,1054.0
3990,611,1055,0,3992.0,3983.0,621.0,622.0,1064.0,1067.0
3982,616,1051,0,3990.0,3992.0,611.0,621.0,1055.0,1064.0
3971,620,1038,0,3982.0,3990.0,616.0,611.0,1051.0,1055.0
3952,619,1021,0,3971.0,3982.0,620.0,616.0,1038.0,1051.0
3936,612,1023,0,3952.0,3971.0,619.0,620.0,1021.0,1038.0
3933,603,1026,0,3936.0,3952.0,612.0,619.0,1023.0,1021.0
3933,592,1017,0,3933.0,3936.0,603.0,612.0,1026.0,1023.0
3937,579,1019,0,3933.0,3933.0,592.0,603.0,1017.0,1026.0
3939,574,1016,0,3937.0,3933.0,579.0,592.0,1019.0,1017.0
3937,571,1020,0,3939.0,3937.0,574.0,579.0,1016.0,1019.0
3927,565,1014,0,3937.0,3939.0,571.0,574.0,1020.0,1016.0
3935,560,1016,0,3927.0,3937.0,565.0,571.0,1014.0,1020.0
3941,553,1003,0,3935.0,3927.0,560.0,565.0,1016.0,1014.0
3929,563,1018,0,3941.0,3935.0,553.0,560.0,1003.0,1016.0
3940,565,1055,0,3929.0,3941.0,563.0,553.0,1018.0,1003.0
3948,562,1059,0,3940.0,3929.0,565.0,563.0,1055.0,1018.0
3930,549,1027,0,3948.0,3940.0,562.0,565.0,1059.0,1055.0
3917,538,994,0,3930.0,3948.0,549.0,562.0,1027.0,1059.0
3887,536,978,0,3917.0,3930.0,538.0,549.0,994.0,1027.0
3881,526,983,0,3887.0,3917.0,536.0,538.0,978.0,994.0
3878,514,987,0,3881.0,3887.0,526.0,536.0,983.0,978.0
3880,494,973,0,3878.0,3881.0,514.0,526.0,987.0,983.0
3885,469,947,0,3880.0,3878.0,494.0,514.0,973.0,987.0
3891,454,927,0,3885.0,3880.0,469.0,494.0,947.0,973.0
3902,452,922,0,3891.0,3885.0,454.0,469.0,927.0,947.0
3909,472,925,0,3902.0,3891.0,452.0,454.0,922.0,927.0
3919,484,926,0,3909.0,3902.0,472.0,452.0,925.0,922.0
3927,499,932,0,3919.0,3909.0,484.0,472.0,926.0,925.0
3921,551,939,0,3927.0,3919.0,499.0,484.0,932.0,926.0
3933,573,947,0,3921.0,3927.0,551.0,499.0,939.0,932.0
3939,600,944,0,3933.0,3921.0,573.0,551.0,947.0,939.0
3948,616,935,0,3939.0,3933.0,600.0,573.0,944.0,947.0
3961,597,921,0,3948.0,3939.0,616.0,600.0,935.0,944.0
3968,599,920,0,3961.0,3948.0,597.0,616.0,921.0,935.0
3968,622,918,0,3968.0,3961.0,599.0,597.0,920.0,921.0
3960,648,912,0,3968.0,3968.0,622.0,599.0,918.0,920.0
3956,665,916,0,3960.0,3968.0,648.0,622.0,912.0,918.0
3953,683,917,0,3956.0,3960.0,665.0,648.0,916.0,912.0
3952,691,908,0,3953.0,3956.0,683.0,665.0,917.0,916.0
3945,707,895,0,3952.0,3953.0,691.0,683.0,908.0,917.0
3933,711,876,0,3945.0,3952.0,707.0,691.0,895.0,908.0
3913,734,858,0,3933.0,3945.0,711.0,707.0,876.0,895.0
3894,782,849,0,3913.0,3933.0,734.0,711.0,858.0,876.0
3876,824,848,0,3894.0,3913.0,782.0,734.0,849.0,858.0
3868,854,858,0,3876.0,3894.0,824.0,782.0,848.0,849.0
3871,853,866,0,3868.0,3876.0,854.0,824.0,858.0,848.0
3876,839,857,0,3871.0,3868.0,853.0,854.0,866.0,858.0
3875,832,847,0,3876.0,3871.0,839.0,853.0,857.0,866.0
3877,844,838,0,3875.0,3876.0,832.0,839.0,847.0,857.0
3877,884,835,0,3877.0,3875.0,844.0,832.0,838.0,847.0
3865,942,831,0,3877.0,3877.0,884.0,844.0,835.0,838.0
3864,1002,837,0,3865.0,3877.0,942.0,884.0,831.0,835.0
3868,1044,856,0,3864.0,3865.0,1002.0,942.0,837.0,831.0
3867,1090,876,0,3868.0,3864.0,1044.0,1002.0,856.0,837.0
3869,1119,879,0,3867.0,3868.0,1090.0,1044.0,876.0,856.0
3849,1155,869,0,3869.0,3867.0,1119.0,1090.0,879.0,876.0
3829,1177,855,0,3849.0,3869.0,1155.0,1119.0,869.0,879.0
3810,1197,848,0,3829.0,3849.0,1177.0,1155.0,855.0,869.0
3787,1221,849,0,3810.0,3829.0,1197.0,1177.0,848.0,855.0
3766,1247,859,0,3787.0,3810.0,1221.0,1197.0,849.0,848.0
3747,1264,865,0,3766.0,3787.0,1247.0,1221.0,859.0,849.0
3739,1269,861,0,3747.0,3766.0,1264.0,1247.0,865.0,859.0
3743,1264,854,0,3739.0,3747.0,1269.0,1264.0,861.0,865.0
3743,1266,848,0,3743.0,3739.0,1264.0,1269.0,854.0,861.0
3743,1269,840,0,3743.0,3743.0,1266.0,1264.0,848.0,854.0
3737,1266,826,0,3743.0,3743.0,1269.0,1266.0,840.0,848.0
3739,1260,805,0,3737.0,3743.0,1266.0,1269.0,826.0,840.0
3740,1248,785,0,3739.0,3737.0,1260.0,1266.0,805.0,826.0
3739,1252,779,0,3740.0,3739.0,1248.0,1260.0,785.0,805.0
3740,1263,776,0,3739.0,3740.0,1252.0,1248.0,779.0,785.0
3749,1272,789,0,3740.0,3739.0,1263.0,1252.0,776.0,779.0
3755,1292,816,0,3749.0,3740.0,1272.0,1263.0,789.0,776.0
3762,1317,855,0,3755.0,3749.0,1292.0,1272.0,816.0,789.0
3768,1343,887,0,3762.0,3755.0,1317.0,1292.0,855.0,816.0
3766,1367,903,0,3768.0,3762.0,1343.0,1317.0,887.0,855.0
3763,1396,897,0,3766.0,3768.0,1367.0,1343.0,903.0,887.0
3752,1418,872,0,3763.0,3766.0,1396.0,1367.0,897.0,903.0
3738,1429,850,0,3752.0,3763.0,1418.0,1396.0,872.0,897.0
3731,1419,831,0,3738.0,3752.0,1429.0,1418.0,850.0,872.0
3731,1402,827,0,3731.0,3738.0,1419.0,1429.0,831.0,850.0
3742,1376,824,0,3731.0,3731.0,1402.0,1419.0,827.0,831.0
3757,1351,828,0,3742.0,3731.0,1376.0,1402.0,824.0,827.0
3775,1324,833,0,3757.0,3742.0,1351.0,1376.0,828.0,824.0
3797,1302,841,0,3775.0,3757.0,1324.0,1351.0,833.0,828.0
3823,1277,852,0,3797.0,3775.0,1302.0,1324.0,841.0,833.0
3845,1249,861,0,3823.0,3797.0,1277.0,1302.0,852.0,841.0
3867,1226,870,0,3845.0,3823.0,1249.0,1277.0,861.0,852.0
3889,1190,877,0,3867.0,3845.0,1226.0,1249.0,870.0,861.0
3905,1151,882,0,3889.0,3867.0,1190.0,1226.0,877.0,870.0
3914,1111,889,0,3905.0,3889.0,1151.0,1190.0,882.0,877.0
3920,1070,892,0,3914.0,3905.0,1111.0,1151.0,889.0,882.0
3921,1027,891,0,3920.0,3914.0,1070.0,1111.0,892.0,889.0
3920,986,889,0,3921.0,3920.0,1027.0,1070.0,891.0,892.0
3910,962,881,0,3920.0,3921.0,986.0,1027.0,889.0,891.0
3896,942,879,0,3910.0,3920.0,962.0,986.0,881.0,889.0
3880,929,878,0,3896.0,3910.0,942.0,962.0,879.0,881.0
3864,921,878,0,3880.0,3896.0,929.0,942.0,878.0,879.0
3850,920,879,0,3864.0,3880.0,921.0,929.0,878.0,878.0
3841,923,884,0,3850.0,3864.0,920.0,921.0,879.0,878.0
3828,935,890,0,3841.0,3850.0,923.0,920.0,884.0,879.0
3813,943,901,0,3828.0,3841.0,935.0,923.0,890.0,884.0
3801,947,907,0,3813.0,3828.0,943.0,935.0,901.0,890.0
3798,951,911,0,3801.0,3813.0,947.0,943.0,907.0,901.0
3798,951,910,0,3798.0,3801.0,951.0,947.0,911.0,907.0
3800,949,909,0,3798.0,3798.0,951.0,951.0,910.0,911.0
3805,945,906,0,3800.0,3798.0,949.0,951.0,909.0,910.0
3814,953,911,0,3805.0,3800.0,945.0,949.0,906.0,909.0
3819,961,913,0,3814.0,3805.0,953.0,945.0,911.0,906.0
3832,971,913,0,3819.0,3814.0,961.0,953.0,913.0,911.0
3839,980,913,0,3832.0,3819.0,971.0,961.0,913.0,913.0
3843,986,914,0,3839.0,3832.0,980.0,971.0,913.0,913.0
3849,990,915,0,3843.0,3839.0,986.0,980.0,914.0,913.0
3850,995,914,0,3849.0,3843.0,990.0,986.0,915.0,914.0
3854,999,916,0,3850.0,3849.0,995.0,990.0,914.0,915.0
3859,1005,920,0,3854.0,3850.0,999.0,995.0,916.0,914.0
3857,1006,917,0,3859.0,3854.0,1005.0,999.0,920.0,916.0
3856,1005,912,0,3857.0,3859.0,1006.0,1005.0,917.0,920.0
3859,1002,906,0,3856.0,3857.0,1005.0,1006.0,912.0,917.0
3859,999,900,0,3859.0,3856.0,1002.0,1005.0,906.0,912.0
3853,998,891,0,3859.0,3859.0,999.0,1002.0,900.0,906.0
3843,997,885,0,3853.0,3859.0,998.0,999.0,891.0,900.0
3837,1000,877,0,3843.0,3853.0,997.0,998.0,885.0,891.0
3834,1002,870,0,3837.0,3843.0,1000.0,997.0,877.0,885.0
3827,1008,873,0,3834.0,3837.0,1002.0,1000.0,870.0,877.0
3825,1010,880,0,3827.0,3834.0,1008.0,1002.0,873.0,870.0
3824,1008,882,0,3825.0,3827.0,1010.0,1008.0,880.0,873.0
3826,1007,881,0,3824.0,3825.0,1008.0,1010.0,882.0,880.0
3829,1002,882,0,3826.0,3824.0,1007.0,1008.0,881.0,882.0
3835,1001,877,0,3829.0,3826.0,1002.0,1007.0,882.0,881.0
3843,996,877,0,3835.0,3829.0,1001.0,1002.0,877.0,882.0
3850,984,883,0,3843.0,3835.0,996.0,1001.0,877.0,877.0
3863,967,894,0,3850.0,3843.0,984.0,996.0,883.0,877.0
3871,947,901,0,3863.0,3850.0,967.0,984.0,894.0,883.0
3881,926,907,0,3871.0,3863.0,947.0,967.0,901.0,894.0
3887,899,908,0,3881.0,3871.0,926.0,947.0,907.0,901.0
3899,867,911,0,3887.0,3881.0,899.0,926.0,908.0,907.0
3896,840,910,0,3899.0,3887.0,867.0,899.0,911.0,908.0
3890,824,908,0,3896.0,3899.0,840.0,867.0,910.0,911.0
3874,815,913,0,3890.0,3896.0,824.0,840.0,908.0,910.0
3864,810,919,0,3874.0,3890.0,815.0,824.0,913.0,908.0
3850,813,929,0,3864.0,3874.0,810.0,815.0,919.0,913.0
3837,815,937,0,3850.0,3864.0,813.0,810.0,929.0,919.0
3827,816,942,0,3837.0,3850.0,815.0,813.0,937.0,929.0
3821,813,939,0,3827.0,3837.0,816.0,815.0,942.0,937.0
3815,807,935,0,3821.0,3827.0,813.0,816.0,939.0,942.0
3811,807,941,0,3815.0,3821.0,807.0,813.0,935.0,939.0
3811,807,947,0,3811.0,3815.0,807.0,807.0,941.0,935.0
3812,802,945,0,3811.0,3811.0,807.0,807.0,947.0,941.0
3815,799,945,0,3812.0,3811.0,802.0,807.0,945.0,947.0
3819,795,941,0,3815.0,3812.0,799.0,802.0,945.0,945.0
3825,784,933,0,3819.0,3815.0,795.0,799.0,941.0,945.0
3842,769,926,0,3825.0,3819.0,784.0,795.0,933.0,941.0
3868,749,921,0,3842.0,3825.0,769.0,784.0,926.0,933.0
3894,727,920,0,3868.0,3842.0,749.0,769.0,921.0,926.0
3919,711,922,0,3894.0,3868.0,727.0,749.0,920.0,921.0
3943,705,922,0,3919.0,3894.0,711.0,727.0,922.0,920.0
3959,704,915,0,3943.0,3919.0,705.0,711.0,922.0,922.0
3978,696,911,0,3959.0,3943.0,704.0,705.0,915.0,922.0
3998,692,916,0,3978.0,3959.0,696.0,704.0,911.0,915.0
4011,690,914,0,3998.0,3978.0,692.0,696.0,916.0,911.0
4018,691,910,0,4011.0,3998.0,690.0,692.0,914.0,916.0
4020,692,909,0,4018.0,4011.0,691.0,690.0,910.0,914.0
4017,683,907,0,4020.0,4018.0,692.0,691.0,909.0,910.0
4009,674,902,0,4017.0,4020.0,683.0,692.0,907.0,909.0
3998,673,894,0,4009.0,4017.0,674.0,683.0,902.0,907.0
3987,665,885,0,3998.0,4009.0,673.0,674.0,894.0,902.0
3966,661,876,0,3987.0,3998.0,665.0,673.0,885.0,894.0
3945,658,865,0,3966.0,3987.0,661.0,665.0,876.0,885.0
3931,659,859,0,3945.0,3966.0,658.0,661.0,865.0,876.0
3911,656,847,0,3931.0,3945.0,659.0,658.0,859.0,865.0
3897,646,837,0,3911.0,3931.0,656.0,659.0,847.0,859.0
3880,646,834,0,3897.0,3911.0,646.0,656.0,837.0,847.0
3867,656,827,0,3880.0,3897.0,646.0,646.0,834.0,837.0
3853,667,819,0,3867.0,3880.0,656.0,646.0,827.0,834.0
3841,677,813,0,3853.0,3867.0,667.0,656.0,819.0,827.0
3836,687,822,0,3841.0,3853.0,677.0,667.0,813.0,819.0
3835,702,835,0,3836.0,3841.0,687.0,677.0,822.0,813.0
3843,717,847,0,3835.0,3836.0,702.0,687.0,835.0,822.0
3854,731,857,0,3843.0,3835.0,717.0,702.0,847.0,835.0
3868,740,865,0,3854.0,3843.0,731.0,717.0,857.0,847.0
3877,740,867,0,3868.0,3854.0,740.0,731.0,865.0,857.0
3881,741,869,0,3877.0,3868.0,740.0,740.0,867.0,865.0
3883,740,871,0,3881.0,3877.0,741.0,740.0,869.0,867.0
3885,739,867,0,3883.0,3881.0,740.0,741.0,871.0,869.0
3878,744,863,0,3885.0,3883.0,739.0,740.0,867.0,871.0
3870,747,851,0,3878.0,3885.0,744.0,739.0,863.0,867.0
3859,747,836,0,3870.0,3878.0,747.0,744.0,851.0,863.0
3846,751,824,0,3859.0,3870.0,747.0,747.0,836.0,851.0
3831,768,817,0,3846.0,3859.0,751.0,747.0,824.0,836.0
3815,785,820,0,3831.0,3846.0,768.0,751.0,817.0,824.0
3808,801,836,0,3815.0,3831.0,785.0,768.0,820.0,817.0
3812,815,875,0,3808.0,3815.0,801.0,785.0,836.0,820.0
3828,829,913,0,3812.0,3808.0,815.0,801.0,875.0,836.0
3843,833,923,0,3828.0,3812.0,829.0,815.0,913.0,875.0
3851,829,914,0,3843.0,3828.0,833.0,829.0,923.0,913.0
3864,823,894,0,3851.0,3843.0,829.0,833.0,914.0,923.0
3876,816,891,0,3864.0,3851.0,823.0,829.0,894.0,914.0
3892,804,889,0,3876.0,3864.0,816.0,823.0,891.0,894.0
3901,786,893,0,3892.0,3876.0,804.0,816.0,889.0,891.0
3914,765,895,0,3901.0,3892.0,786.0,804.0,893.0,889.0
3928,748,893,0,3914.0,3901.0,765.0,786.0,895.0,893.0
3938,734,877,0,3928.0,3914.0,748.0,765.0,893.0,895.0
3948,732,855,0,3938.0,3928.0,734.0,748.0,877.0,893.0
3951,727,835,0,3948.0,3938.0,732.0,734.0,855.0,877.0
3959,735,817,0,3951.0,3948.0,727.0,732.0,835.0,855.0
3964,738,809,0,3959.0,3951.0,735.0,727.0,817.0,835.0
3968,746,811,0,3964.0,3959.0,738.0,735.0,809.0,817.0
3970,745,812,0,3968.0,3964.0,746.0,738.0,811.0,809.0
3970,743,802,0,3970.0,3968.0,745.0,746.0,812.0,811.0
3970,745,806,0,3970.0,3970.0,743.0,745.0,802.0,812.0
3959,743,810,0,3970.0,3970.0,745.0,743.0,806.0,802.0
3952,736,806,0,3959.0,3970.0,743.0,745.0,810.0,806.0
3945,732,810,0,3952.0,3959.0,736.0,743.0,806.0,810.0
3945,731,813,0,3945.0,3952.0,732.0,736.0,810.0,806.0
3947,726,820,0,3945.0,3945.0,731.0,732.0,813.0,810.0
3960,721,817,0,3947.0,3945.0,726.0,731.0,820.0,813.0
3969,711,815,0,3960.0,3947.0,721.0,726.0,817.0,820.0
3974,713,818,0,3969.0,3960.0,711.0,721.0,815.0,817.0
3992,712,825,0,3974.0,3969.0,713.0,711.0,818.0,815.0
4001,723,832,0,3992.0,3974.0,712.0,713.0,825.0,818.0
4005,739,844,0,4001.0,3992.0,723.0,712.0,832.0,825.0
4003,759,853,0,4005.0,4001.0,739.0,723.0,844.0,832.0
3990,788,854,0,4003.0,4005.0,759.0,739.0,853.0,844.0
3981,825,859,0,3990.0,4003.0,788.0,759.0,854.0,853.0
3964,862,868,0,3981.0,3990.0,825.0,788.0,859.0,854.0
3940,907,862,0,3964.0,3981.0,862.0,825.0,868.0,859.0
3914,947,846,0,3940.0,3964.0,907.0,862.0,862.0,868.0
3885,977,828,0,3914.0,3940.0,947.0,907.0,846.0,862.0
3858,1004,812,0,3885.0,3914.0,977.0,947.0,828.0,846.0
3834,1019,796,0,3858.0,3885.0,1004.0,977.0,812.0,828.0
3814,1028,784,0,3834.0,3858.0,1019.0,1004.0,796.0,812.0
3798,1036,777,0,3814.0,3834.0,1028.0,1019.0,784.0,796.0
3796,1048,777,0,3798.0,3814.0,1036.0,1028.0,777.0,784.0
3795,1061,780,0,3796.0,3798.0,1048.0,1036.0,777.0,777.0
3797,1070,777,0,3795.0,3796.0,1061.0,1048.0,780.0,777.0
3804,1063,766,0,3797.0,3795.0,1070.0,1061.0,777.0,780.0
3802,1053,759,0,3804.0,3797.0,1063.0,1070.0,766.0,777.0
3792,1038,743,0,3802.0,3804.0,1053.0,1063.0,759.0,766.0
3789,1015,735,0,3792.0,3802.0,1038.0,1053.0,743.0,759.0
3786,987,724,0,3789.0,3792.0,1015.0,1038.0,735.0,743.0
3787,960,710,0,3786.0,3789.0,987.0,1015.0,724.0,735.0
3784,935,695,0,3787.0,3786.0,960.0,987.0,710.0,724.0
3780,912,683,0,3784.0,3787.0,935.0,960.0,695.0,710.0
3773,893,670,0,3780.0,3784.0,912.0,935.0,683.0,695.0
3770,884,664,0,3773.0,3780.0,893.0,912.0,670.0,683.0
3760,881,653,0,3770.0,3773.0,884.0,893.0,664.0,670.0
3751,886,644,0,3760.0,3770.0,881.0,884.0,653.0,664.0
3738,894,635,0,3751.0,3760.0,886.0,881.0,644.0,653.0
3731,917,638,0,3738.0,3751.0,894.0,886.0,635.0,644.0
3724,943,635,0,3731.0,3738.0,917.0,894.0,638.0,635.0
3725,963,632,0,3724.0,3731.0,943.0,917.0,635.0,638.0
3737,980,636,0,3725.0,3724.0,963.0,943.0,632.0,635.0
3752,990,654,0,3737.0,3725.0,980.0,963.0,636.0,632.0
3774,990,678,0,3752.0,3737.0,990.0,980.0,654.0,636.0
3801,983,699,0,3774.0,3752.0,990.0,990.0,678.0,654.0
3835,975,736,0,3801.0,3774.0,983.0,990.0,699.0,678.0
3863,983,774,0,3835.0,3801.0,975.0,983.0,736.0,699.0
3893,1008,806,0,3863.0,3835.0,983.0,975.0,774.0,736.0
3909,1032,832,0,3893.0,3863.0,1008.0,983.0,806.0,774.0
3931,1049,857,0,3909.0,3893.0,1032.0,1008.0,832.0,806.0
3939,1056,879,0,3931.0,3909.0,1049.0,1032.0,857.0,832.0
3940,1045,888,0,3939.0,3931.0,1056.0,1049.0,879.0,857.0
3942,1020,893,0,3940.0,3939.0,1045.0,1056.0,888.0,879.0
3934,995,896,0,3942.0,3940.0,1020.0,1045.0,893.0,888.0
3924,989,899,0,3934.0,3942.0,995.0,1020.0,896.0,893.0
3905,988,903,0,3924.0,3934.0,989.0,995.0,899.0,896.0
3882,979,905,0,3905.0,3924.0,988.0,989.0,903.0,899.0
3859,978,906,0,3882.0,3905.0,979.0,988.0,905.0,903.0
3829,981,907,0,3859.0,3882.0,978.0,979.0,906.0,905.0
3807,959,904,0,3829.0,3859.0,981.0,978.0,907.0,906.0
3786,939,897,0,3807.0,3829.0,959.0,981.0,904.0,907.0
3767,935,881,0,3786.0,3807.0,939.0,959.0,897.0,904.0
3757,928,862,0,3767.0,3786.0,935.0,939.0,881.0,897.0
3759,927,837,0,3757.0,3767.0,928.0,935.0,862.0,881.0
3768,922,822,0,3759.0,3757.0,927.0,928.0,837.0,862.0
3780,941,820,0,3768.0,3759.0,922.0,927.0,822.0,837.0
3790,965,823,0,3780.0,3768.0,941.0,922.0,820.0,822.0
3805,999,826,0,3790.0,3780.0,965.0,941.0,823.0,820.0
3816,1044,829,0,3805.0,3790.0,999.0,965.0,826.0,823.0
3828,1095,826,0,3816.0,3805.0,1044.0,999.0,829.0,826.0
3854,1121,826,0,3828.0,3816.0,1095.0,1044.0,826.0,829.0
3869,1140,826,0,3854.0,3828.0,1121.0,1095.0,826.0,826.0
3873,1182,822,0,3869.0,3854.0,1140.0,1121.0,826.0,826.0
3874,1249,834,0,3873.0,3869.0,1182.0,1140.0,822.0,826.0
3879,1302,851,0,3874.0,3873.0,1249.0,1182.0,834.0,822.0
3896,1319,865,0,3879.0,3874.0,1302.0,1249.0,851.0,834.0
3902,1316,866,0,3896.0,3879.0,1319.0,1302.0,865.0,851.0
3905,1307,855,0,3902.0,3896.0,1316.0,1319.0,866.0,865.0
3896,1315,846,0,3905.0,3902.0,1307.0,1316.0,855.0,866.0
3891,1319,845,0,3896.0,3905.0,1315.0,1307.0,846.0,855.0
3877,1323,843,0,3891.0,3896.0,1319.0,1315.0,845.0,846.0
3865,1329,839,0,3877.0,3891.0,1323.0,1319.0,843.0,845.0
3854,1333,834,0,3865.0,3877.0,1329.0,1323.0,839.0,843.0
3840,1327,829,0,3854.0,3865.0,1333.0,1329.0,834.0,839.0
3825,1323,824,0,3840.0,3854.0,1327.0,1333.0,829.0,834.0
3809,1320,822,0,3825.0,3840.0,1323.0,1327.0,824.0,829.0
3795,1314,811,0,3809.0,3825.0,1320.0,1323.0,822.0,824.0
3783,1304,798,0,3795.0,3809.0,1314.0,1320.0,811.0,822.0
3771,1289,790,0,3783.0,3795.0,1304.0,1314.0,798.0,811.0
3768,1267,787,0,3771.0,3783.0,1289.0,1304.0,790.0,798.0
3767,1239,777,0,3768.0,3771.0,1267.0,1289.0,787.0,790.0
3775,1209,767,0,3767.0,3768.0,1239.0,1267.0,777.0,787.0
3784,1181,756,0,3775.0,3767.0,1209.0,1239.0,767.0,777.0
3802,1137,747,0,3784.0,3775.0,1181.0,1209.0,756.0,767.0
3822,1093,742,0,3802.0,3784.0,1137.0,1181.0,747.0,756.0
3845,1060,734,0,3822.0,3802.0,1093.0,1137.0,742.0,747.0
3872,1027,733,0,3845.0,3822.0,1060.0,1093.0,734.0,742.0
3900,998,731,0,3872.0,3845.0,1027.0,1060.0,733.0,734.0
3935,970,741,0,3900.0,3872.0,998.0,1027.0,731.0,733.0
3962,957,755,0,3935.0,3900.0,970.0,998.0,741.0,731.0
3991,939,762,0,3962.0,3935.0,957.0,970.0,755.0,741.0
4012,929,771,0,3991.0,3962.0,939.0,957.0,762.0,755.0
4022,928,763,0,4012.0,3991.0,929.0,939.0,771.0,762.0
4020,931,750,0,4022.0,4012.0,928.0,929.0,763.0,771.0
4015,936,739,0,4020.0,4022.0,931.0,928.0,750.0,763.0
4002,947,734,0,4015.0,4020.0,936.0,931.0,739.0,750.0
3986,963,730,0,4002.0,4015.0,947.0,936.0,734.0,739.0
3962,973,735,0,3986.0,4002.0,963.0,947.0,730.0,734.0
3938,986,737,0,3962.0,3986.0,973.0,963.0,735.0,730.0
3908,1003,739,0,3938.0,3962.0,986.0,973.0,737.0,735.0
3880,1015,734,0,3908.0,3938.0,1003.0,986.0,739.0,737.0
3856,1020,730,0,3880.0,3908.0,1015.0,1003.0,734.0,739.0
3834,1027,725,0,3856.0,3880.0,1020.0,1015.0,730.0,734.0
3818,1031,712,0,3834.0,3856.0,1027.0,1020.0,725.0,730.0
3802,1040,697,0,3818.0,3834.0,1031.0,1027.0,712.0,725.0
3793,1055,684,0,3802.0,3818.0,1040.0,1031.0,697.0,712.0
3789,1062,674,0,3793.0,3802.0,1055.0,1040.0,684.0,697.0
3784,1079,667,0,3789.0,3793.0,1062.0,1055.0,674.0,684.0
3783,1089,654,0,3784.0,3789.0,1079.0,1062.0,667.0,674.0
3790,1099,644,0,3783.0,3784.0,1089.0,1079.0,654.0,667.0
3796,1109,640,0,3790.0,3783.0,1099.0,1089.0,644.0,654.0
3805,1119,639,0,3796.0,3790.0,1109.0,1099.0,640.0,644.0
3815,1124,634,0,3805.0,3796.0,1119.0,1109.0,639.0,640.0
3829,1124,629,0,3815.0,3805.0,1124.0,1119.0,634.0,639.0
3846,1117,624,0,3829.0,3815.0,1124.0,1124.0,629.0,634.0
3864,1111,618,0,3846.0,3829.0,1117.0,1124.0,624.0,629.0
3880,1099,605,0,3864.0,3846.0,1111.0,1117.0,618.0,624.0
3896,1087,591,0,3880.0,3864.0,1099.0,1111.0,605.0,618.0
3911,1077,583,0,3896.0,3880.0,1087.0,1099.0,591.0,605.0
3924,1070,573,0,3911.0,3896.0,1077.0,1087.0,583.0,591.0
3934,1063,567,0,3924.0,3911.0,1070.0,1077.0,573.0,583.0
3944,1059,566,0,3934.0,3924.0,1063.0,1070.0,567.0,573.0
3958,1049,567,0,3944.0,3934.0,1059.0,1063.0,566.0,567.0
3963,1044,570,0,3958.0,3944.0,1049.0,1059.0,567.0,566.0
3963,1043,571,0,3963.0,3958.0,1044.0,1049.0,570.0,567.0
3956,1047,572,0,3963.0,3963.0,1043.0,1044.0,571.0,570.0
3951,1051,577,0,3956.0,3963.0,1047.0,1043.0,572.0,571.0
3945,1062,575,0,3951.0,3956.0,1051.0,1047.0,577.0,572.0
3930,1068,572,0,3945.0,3951.0,1062.0,1051.0,575.0,577.0
3913,1081,573,0,3930.0,3945.0,1068.0,1062.0,572.0,575.0
3896,1094,571,0,3913.0,3930.0,1081.0,1068.0,573.0,572.0
3875,1105,569,0,3896.0,3913.0,1094.0,1081.0,571.0,573.0
3852,1119,564,0,3875.0,3896.0,1105.0,1094.0,569.0,571.0
3831,1125,561,0,3852.0,3875.0,1119.0,1105.0,564.0,569.0
3810,1138,557,0,3831.0,3852.0,1125.0,1119.0,561.0,564.0
3794,1148,555,0,3810.0,3831.0,1138.0,1125.0,557.0,561.0
3782,1153,550,0,3794.0,3810.0,1148.0,1138.0,555.0,557.0
3779,1155,548,0,3782.0,3794.0,1153.0,1148.0,550.0,555.0
3777,1152,549,0,3779.0,3782.0,1155.0,1153.0,548.0,550.0
3782,1149,549,0,3777.0,3779.0,1152.0,1155.0,549.0,548.0
3800,1148,553,0,3782.0,3777.0,1149.0,1152.0,549.0,549.0
3819,1142,555,0,3800.0,3782.0,1148.0,1149.0,553.0,549.0
3838,1133,556,0,3819.0,3800.0,1142.0,1148.0,555.0,553.0
3862,1127,562,0,3838.0,3819.0,1133.0,1142.0,556.0,555.0
3886,1118,566,0,3862.0,3838.0,1127.0,1133.0,562.0,556.0
3912,1108,568,0,3886.0,3862.0,1118.0,1127.0,566.0,562.0
3933,1096,573,0,3912.0,3886.0,1108.0,1118.0,568.0,566.0
3955,1085,574,0,3933.0,3912.0,1096.0,1108.0,573.0,568.0
3974,1074,572,0,3955.0,3933.0,1085.0,1096.0,574.0,573.0
3993,1064,577,0,3974.0,3955.0,1074.0,1085.0,572.0,574.0
4009,1060,583,0,3993.0,3974.0,1064.0,1074.0,577.0,572.0
4016,1058,591,0,4009.0,3993.0,1060.0,1064.0,583.0,577.0
4016,1053,596,0,4016.0,4009.0,1058.0,1060.0,591.0,583.0
4019,1052,600,0,4016.0,4016.0,1053.0,1058.0,596.0,591.0
4018,1053,602,0,4019.0,4016.0,1052.0,1053.0,600.0,596.0
4013,1049,604,0,4018.0,4019.0,1053.0,1052.0,602.0,600.0
4003,1042,607,0,4013.0,4018.0,1049.0,1053.0,604.0,602.0
3986,1040,609,0,4003.0,4013.0,1042.0,1049.0,607.0,604.0
3969,1041,612,0,3986.0,4003.0,1040.0,1042.0,609.0,607.0
3952,1038,612,0,3969.0,3986.0,1041.0,1040.0,612.0,609.0
3933,1045,612,0,3952.0,3969.0,1038.0,1041.0,612.0,612.0
3912,1053,610,0,3933.0,3952.0,1045.0,1038.0,612.0,612.0
3893,1058,612,0,3912.0,3933.0,1053.0,1045.0,610.0,612.0
3875,1067,615,0,3893.0,3912.0,1058.0,1053.0,612.0,610.0
3860,1079,618,0,3875.0,3893.0,1067.0,1058.0,615.0,612.0
3846,1087,621,0,3860.0,3875.0,1079.0,1067.0,618.0,615.0
3835,1094,629,0,3846.0,3860.0,1087.0,1079.0,621.0,618.0
3829,1095,631,0,3835.0,3846.0,1094.0,1087.0,629.0,621.0
3824,1092,631,0,3829.0,3835.0,1095.0,1094.0,631.0,629.0
3832,1078,628,0,3824.0,3829.0,1092.0,1095.0,631.0,631.0
3844,1060,626,0,3832.0,3824.0,1078.0,1092.0,628.0,631.0
3857,1037,622,0,3844.0,3832.0,1060.0,1078.0,626.0,628.0
3872,1014,613,0,3857.0,3844.0,1037.0,1060.0,622.0,626.0
3895,989,610,0,3872.0,3857.0,1014.0,1037.0,613.0,622.0
3920,965,613,0,3895.0,3872.0,989.0,1014.0,610.0,613.0
3948,941,619,0,3920.0,3895.0,965.0,989.0,613.0,610.0
3980,918,626,0,3948.0,3920.0,941.0,965.0,619.0,613.0
4006,916,628,0,3980.0,3948.0,918.0,941.0,626.0,619.0
4026,910,634,0,4006.0,3980.0,916.0,918.0,628.0,626.0
4049,905,641,0,4026.0,4006.0,910.0,916.0,634.0,628.0
4069,899,647,0,4049.0,4026.0,905.0,910.0,641.0,634.0
4084,888,658,0,4069.0,4049.0,899.0,905.0,647.0,641.0
4091,871,670,0,4084.0,4069.0,888.0,899.0,658.0,647.0
4079,860,671,0,4091.0,4084.0,871.0,888.0,670.0,658.0
4059,852,650,0,4079.0,4091.0,860.0,871.0,671.0,670.0
4035,838,633,0,4059.0,4079.0,852.0,860.0,650.0,671.0
4008,824,622,0,4035.0,4059.0,838.0,852.0,633.0,650.0
3977,811,620,0,4008.0,4035.0,824.0,838.0,622.0,633.0
3937,810,618,0,3977.0,4008.0,811.0,824.0,620.0,622.0
3894,820,619,0,3937.0,3977.0,810.0,811.0,618.0,620.0
3851,834,617,0,3894.0,3937.0,820.0,810.0,619.0,618.0
3803,863,614,0,3851.0,3894.0,834.0,820.0,617.0,619.0
3767,899,627,0,3803.0,3851.0,863.0,834.0,614.0,617.0
3741,932,646,0,3767.0,3803.0,899.0,863.0,627.0,614.0
3715,949,653,0,3741.0,3767.0,932.0,899.0,646.0,627.0
3697,985,664,0,3715.0,3741.0,949.0,932.0,653.0,646.0
3683,1008,666,0,3697.0,3715.0,985.0,949.0,664.0,653.0
3675,1031,668,0,3683.0,3697.0,1008.0,985.0,666.0,664.0
3671,1055,661,0,3675.0,3683.0,1031.0,1008.0,668.0,666.0
3675,1073,655,0,3671.0,3675.0,1055.0,1031.0,661.0,668.0
3681,1101,663,0,3675.0,3671.0,1073.0,1055.0,655.0,661.0
3698,1120,668,0,3681.0,3675.0,1101.0,1073.0,663.0,655.0
3714,1125,679,0,3698.0,3681.0,1120.0,1101.0,668.0,663.0
3730,1162,677,0,3714.0,3698.0,1125.0,1120.0,679.0,668.0
3737,1193,664,0,3730.0,3714.0,1162.0,1125.0,677.0,679.0
3747,1222,666,0,3737.0,3730.0,1193.0,1162.0,664.0,677.0
3767,1247,695,0,3747.0,3737.0,1222.0,1193.0,666.0,664.0
3795,1271,736,0,3767.0,3747.0,1247.0,1222.0,695.0,666.0
3823,1284,769,0,3795.0,3767.0,1271.0,1247.0,736.0,695.0
3851,1284,792,0,3823.0,3795.0,1284.0,1271.0,769.0,736.0
3873,1280,801,0,3851.0,3823.0,1284.0,1284.0,792.0,769.0
3890,1270,797,0,3873.0,3851.0,1280.0,1284.0,801.0,792.0
3892,1263,791,0,3890.0,3873.0,1270.0,1280.0,797.0,801.0
3896,1253,795,0,3892.0,3890.0,1263.0,1270.0,791.0,797.0
3895,1237,802,0,3896.0,3892.0,1253.0,1263.0,795.0,791.0
3890,1218,810,0,3895.0,3896.0,1237.0,1253.0,802.0,795.0
3883,1197,819,0,3890.0,3895.0,1218.0,1237.0,810.0,802.0
3867,1176,830,0,3883.0,3890.0,1197.0,1218.0,819.0,810.0
3846,1157,836,0,3867.0,3883.0,1176.0,1197.0,830.0,819.0
3822,1139,849,0,3846.0,3867.0,1157.0,1176.0,836.0,830.0
3802,1116,856,0,3822.0,3846.0,1139.0,1157.0,849.0,836.0
3778,1093,858,0,3802.0,3822.0,1116.0,1139.0,856.0,849.0
3762,1074,861,0,3778.0,3802.0,1093.0,1116.0,858.0,856.0
3750,1062,871,0,3762.0,3778.0,1074.0,1093.0,861.0,858.0
3736,1051,882,0,3750.0,3762.0,1062.0,1074.0,871.0,861.0
3725,1047,891,0,3736.0,3750.0,1051.0,1062.0,882.0,871.0
3712,1045,894,0,3725.0,3736.0,1047.0,1051.0,891.0,882.0
3704,1047,901,0,3712.0,3725.0,1045.0,1047.0,894.0,891.0
3704,1058,910,0,3704.0,3712.0,1047.0,1045.0,901.0,894.0
3700,1074,915,0,3704.0,3704.0,1058.0,1047.0,910.0,901.0
3697,1093,919,0,3700.0,3704.0,1074.0,1058.0,915.0,910.0
3698,1107,919,0,3697.0,3700.0,1093.0,1074.0,919.0,915.0
3706,1114,917,0,3698.0,3697.0,1107.0,1093.0,919.0,919.0
3719,1111,922,0,3706.0,3698.0,1114.0,1107.0,917.0,919.0
3737,1103,922,0,3719.0,3706.0,1111.0,1114.0,922.0,917.0
3756,1100,915,0,3737.0,3719.0,1103.0,1111.0,922.0,922.0
3779,1092,917,0,3756.0,3737.0,1100.0,1103.0,915.0,922.0
3801,1086,920,0,3779.0,3756.0,1092.0,1100.0,917.0,915.0
3824,1074,919,0,3801.0,3779.0,1086.0,1092.0,920.0,917.0
3846,1062,913,0,3824.0,3801.0,1074.0,1086.0,919.0,920.0
3863,1053,911,0,3846.0,3824.0,1062.0,1074.0,913.0,919.0
3879,1040,915,0,3863.0,3846.0,1053.0,1062.0,911.0,913.0
3896,1020,922,0,3879.0,3863.0,1040.0,1053.0,915.0,911.0
3906,1012,920,0,3896.0,3879.0,1020.0,1040.0,922.0,915.0
3914,998,917,0,3906.0,3896.0,1012.0,1020.0,920.0,922.0
3916,997,909,0,3914.0,3906.0,998.0,1012.0,917.0,920.0
3905,1004,902,0,3916.0,3914.0,997.0,998.0,909.0,917.0
3886,1020,899,0,3905.0,3916.0,1004.0,997.0,902.0,909.0
3871,1035,904,0,3886.0,3905.0,1020.0,1004.0,899.0,902.0
3853,1048,913,0,3871.0,3886.0,1035.0,1020.0,904.0,899.0
3841,1055,918,0,3853.0,3871.0,1048.0,1035.0,913.0,904.0
3835,1054,919,0,3841.0,3853.0,1055.0,1048.0,918.0,913.0
3829,1043,904,0,3835.0,3841.0,1054.0,1055.0,919.0,918.0
3823,1046,890,0,3829.0,3835.0,1043.0,1054.0,904.0,919.0
3827,1054,878,0,3823.0,3829.0,1046.0,1043.0,890.0,904.0
3841,1059,876,0,3827.0,3823.0,1054.0,1046.0,878.0,890.0
3855,1074,878,0,3841.0,3827.0,1059.0,1054.0,876.0,878.0
3877,1091,875,0,3855.0,3841.0,1074.0,1059.0,878.0,876.0
3892,1120,879,0,3877.0,3855.0,1091.0,1074.0,875.0,878.0
3903,1139,878,0,3892.0,3877.0,1120.0,1091.0,879.0,875.0
3911,1141,886,0,3903.0,3892.0,1139.0,1120.0,878.0,879.0
3934,1106,897,0,3911.0,3903.0,1141.0,1139.0,886.0,878.0
3949,1067,905,0,3934.0,3911.0,1106.0,1141.0,897.0,886.0
3944,1039,912,0,3949.0,3934.0,1067.0,1106.0,905.0,897.0
3923,1016,915,0,3944.0,3949.0,1039.0,1067.0,912.0,905.0
3895,984,917,0,3923.0,3944.0,1016.0,1039.0,915.0,912.0
3856,952,907,0,3895.0,3923.0,984.0,1016.0,917.0,915.0
3820,920,876,0,3856.0,3895.0,952.0,984.0,907.0,917.0
3775,894,831,0,3820.0,3856.0,920.0,952.0,876.0,907.0
3739,869,789,0,3775.0,3820.0,894.0,920.0,831.0,876.0
3700,842,763,0,3739.0,3775.0,869.0,894.0,789.0,831.0
3672,816,743,0,3700.0,3739.0,842.0,869.0,763.0,789.0
3645,797,721,0,3672.0,3700.0,816.0,842.0,743.0,763.0
3629,792,690,0,3645.0,3672.0,797.0,816.0,721.0,743.0
3622,797,670,0,3629.0,3645.0,792.0,797.0,690.0,721.0
3623,805,657,0,3622.0,3629.0,797.0,792.0,670.0,690.0
3633,821,657,0,3623.0,3622.0,805.0,797.0,657.0,670.0
3653,843,668,0,3633.0,3623.0,821.0,805.0,657.0,657.0
3678,874,678,0,3653.0,3633.0,843.0,821.0,668.0,657.0
3709,905,692,0,3678.0,3653.0,874.0,843.0,678.0,668.0
3734,941,700,0,3709.0,3678.0,905.0,874.0,692.0,678.0
3765,982,702,0,3734.0,3709.0,941.0,905.0,700.0,692.0
3794,1017,700,0,3765.0,3734.0,982.0,941.0,702.0,700.0
3820,1060,687,0,3794.0,3765.0,1017.0,982.0,700.0,702.0
3860,1065,692,0,3820.0,3794.0,1060.0,1017.0,687.0,700.0
3904,1035,698,0,3860.0,3820.0,1065.0,1060.0,692.0,687.0
3945,1011,690,0,3904.0,3860.0,1035.0,1065.0,698.0,692.0
3968,1008,669,0,3945.0,3904.0,1011.0,1035.0,690.0,698.0
3980,1015,663,0,3968.0,3945.0,1008.0,1011.0,669.0,690.0
3949,1134,619,0,3980.0,3968.0,1015.0,1008.0,663.0,669.0
3972,1116,688,0,3949.0,3980.0,1134.0,1015.0,619.0,663.0
4031,1030,770,0,3972.0,3949.0,1116.0,1134.0,688.0,619.0
4090,924,818,0,4031.0,3972.0,1030.0,1116.0,770.0,688.0
4118,889,791,0,4090.0,4031.0,924.0,1030.0,818.0,770.0
4126,906,731,0,4118.0,4090.0,889.0,924.0,791.0,818.0
4119,933,683,0,4126.0,4118.0,906.0,889.0,731.0,791.0
4117,957,664,0,4119.0,4126.0,933.0,906.0,683.0,731.0
4112,973,671,0,4117.0,4119.0,957.0,933.0,664.0,683.0
4109,978,685,0,4112.0,4117.0,973.0,957.0,671.0,664.0
4105,972,706,0,4109.0,4112.0,978.0,973.0,685.0,671.0
4099,964,722,0,4105.0,4109.0,972.0,978.0,706.0,685.0
4073,959,730,0,4099.0,4105.0,964.0,972.0,722.0,706.0
4040,956,734,0,4073.0,4099.0,959.0,964.0,730.0,722.0
3993,960,736,0,4040.0,4073.0,956.0,959.0,734.0,730.0
3938,965,733,0,3993.0,4040.0,960.0,956.0,736.0,734.0
3877,970,737,0,3938.0,3993.0,965.0,960.0,733.0,736.0
3815,978,744,0,3877.0,3938.0,970.0,965.0,737.0,733.0
3758,983,750,0,3815.0,3877.0,978.0,970.0,744.0,737.0
3709,983,751,0,3758.0,3815.0,983.0,978.0,750.0,744.0
3673,980,740,0,3709.0,3758.0,983.0,983.0,751.0,750.0
3649,978,728,0,3673.0,3709.0,980.0,983.0,740.0,751.0
3634,975,709,0,3649.0,3673.0,978.0,980.0,728.0,740.0
3633,976,697,0,3634.0,3649.0,975.0,978.0,709.0,728.0
3645,974,691,0,3633.0,3634.0,976.0,975.0,697.0,709.0
3664,971,697,0,3645.0,3633.0,974.0,976.0,691.0,697.0
3695,964,704,0,3664.0,3645.0,971.0,974.0,697.0,691.0
3736,956,714,0,3695.0,3664.0,964.0,971.0,704.0,697.0
3777,950,725,0,3736.0,3695.0,956.0,964.0,714.0,704.0
3817,939,727,0,3777.0,3736.0,950.0,956.0,725.0,714.0
3855,922,716,0,3817.0,3777.0,939.0,950.0,727.0,725.0
3891,902,703,0,3855.0,3817.0,922.0,939.0,716.0,727.0
3929,882,696,0,3891.0,3855.0,902.0,922.0,703.0,716.0
3958,862,692,0,3929.0,3891.0,882.0,902.0,696.0,703.0
3980,838,688,0,3958.0,3929.0,862.0,882.0,692.0,696.0
3998,824,691,0,3980.0,3958.0,838.0,862.0,688.0,692.0
4017,808,702,0,3998.0,3980.0,824.0,838.0,691.0,688.0
4029,801,722,0,4017.0,3998.0,808.0,824.0,702.0,691.0
4033,801,732,0,4029.0,4017.0,801.0,808.0,722.0,702.0
4037,806,731,0,4033.0,4029.0,801.0,801.0,732.0,722.0
4027,821,717,0,4037.0,4033.0,806.0,801.0,731.0,732.0
4009,843,697,0,4027.0,4037.0,821.0,806.0,717.0,731.0
3986,874,685,0,4009.0,4027.0,843.0,821.0,697.0,717.0
3964,910,673,0,3986.0,4009.0,874.0,843.0,685.0,697.0
3940,946,671,0,3964.0,3986.0,910.0,874.0,673.0,685.0
3916,982,676,0,3940.0,3964.0,946.0,910.0,671.0,673.0
3893,1014,673,0,3916.0,3940.0,982.0,946.0,676.0,671.0
3870,1036,668,0,3893.0,3916.0,1014.0,982.0,673.0,676.0
3853,1048,654,0,3870.0,3893.0,1036.0,1014.0,668.0,673.0
3844,1050,636,0,3853.0,3870.0,1048.0,1036.0,654.0,668.0
3844,1037,625,0,3844.0,3853.0,1050.0,1048.0,636.0,654.0
3850,1021,612,0,3844.0,3844.0,1037.0,1050.0,625.0,636.0
3864,1004,605,0,3850.0,3844.0,1021.0,1037.0,612.0,625.0
3885,986,602,0,3864.0,3850.0,1004.0,1021.0,605.0,612.0
3904,972,606,0,3885.0,3864.0,986.0,1004.0,602.0,605.0
3922,967,613,0,3904.0,3885.0,972.0,986.0,606.0,602.0
3942,965,614,0,3922.0,3904.0,967.0,972.0,613.0,606.0
3958,969,608,0,3942.0,3922.0,965.0,967.0,614.0,613.0
3969,980,605,0,3958.0,3942.0,969.0,965.0,608.0,614.0
3979,992,601,0,3969.0,3958.0,980.0,969.0,605.0,608.0
3986,1002,596,0,3979.0,3969.0,992.0,980.0,601.0,605.0
3993,1015,595,0,3986.0,3979.0,1002.0,992.0,596.0,601.0
3990,1034,596,0,3993.0,3986.0,1015.0,1002.0,595.0,596.0
3986,1048,597,0,3990.0,3993.0,1034.0,1015.0,596.0,595.0
3982,1063,597,0,3986.0,3990.0,1048.0,1034.0,597.0,596.0
3977,1075,595,0,3982.0,3986.0,1063.0,1048.0,597.0,597.0
3970,1085,602,0,3977.0,3982.0,1075.0,1063.0,595.0,597.0
3962,1094,599,0,3970.0,3977.0,1085.0,1075.0,602.0,595.0
3947,1107,594,0,3962.0,3970.0,1094.0,1085.0,599.0,602.0
3923,1113,585,0,3947.0,3962.0,1107.0,1094.0,594.0,599.0
3900,1123,585,0,3923.0,3947.0,1113.0,1107.0,585.0,594.0
3879,1133,590,0,3900.0,3923.0,1123.0,1113.0,585.0,585.0
3858,1130,591,0,3879.0,3900.0,1133.0,1123.0,590.0,585.0
3838,1123,578,0,3858.0,3879.0,1130.0,1133.0,591.0,590.0
3826,1118,570,0,3838.0,3858.0,1123.0,1130.0,578.0,591.0
3812,1109,563,0,3826.0,3838.0,1118.0,1123.0,570.0,578.0
3809,1095,563,0,3812.0,3826.0,1109.0,1118.0,563.0,570.0
3810,1086,560,0,3809.0,3812.0,1095.0,1109.0,563.0,563.0
3810,1080,558,0,3810.0,3809.0,1086.0,1095.0,560.0,563.0
3814,1079,557,0,3810.0,3810.0,1080.0,1086.0,558.0,560.0
3815,1075,554,0,3814.0,3810.0,1079.0,1080.0,557.0,558.0
3818,1077,553,0,3815.0,3814.0,1075.0,1079.0,554.0,557.0
3824,1083,555,0,3818.0,3815.0,1077.0,1075.0,553.0,554.0
3833,1087,554,0,3824.0,3818.0,1083.0,1077.0,555.0,553.0
3839,1093,551,0,3833.0,3824.0,1087.0,1083.0,554.0,555.0
3847,1099,543,0,3839.0,3833.0,1093.0,1087.0,551.0,554.0
3862,1100,540,0,3847.0,3839.0,1099.0,1093.0,543.0,551.0
3865,1105,543,0,3862.0,3847.0,1100.0,1099.0,540.0,543.0
3871,1117,542,0,3865.0,3862.0,1105.0,1100.0,543.0,540.0
3874,1124,546,0,3871.0,3865.0,1117.0,1105.0,542.0,543.0
3875,1139,545,0,3874.0,3871.0,1124.0,1117.0,546.0,542.0
3876,1154,545,0,3875.0,3874.0,1139.0,1124.0,545.0,546.0
3882,1167,548,0,3876.0,3875.0,1154.0,1139.0,545.0,545.0
3886,1185,552,0,3882.0,3876.0,1167.0,1154.0,548.0,545.0
3890,1205,553,0,3886.0,3882.0,1185.0,1167.0,552.0,548.0
3892,1227,555,0,3890.0,3886.0,1205.0,1185.0,553.0,552.0
3889,1241,558,0,3892.0,3890.0,1227.0,1205.0,555.0,553.0
3894,1254,565,0,3889.0,3892.0,1241.0,1227.0,558.0,555.0
3898,1267,564,0,3894.0,3889.0,1254.0,1241.0,565.0,558.0
3896,1281,567,0,3898.0,3894.0,1267.0,1254.0,564.0,565.0
3893,1296,567,0,3896.0,3898.0,1281.0,1267.0,567.0,564.0
3889,1308,567,0,3893.0,3896.0,1296.0,1281.0,567.0,567.0
3877,1320,561,0,3889.0,3893.0,1308.0,1296.0,567.0,567.0
3867,1331,561,0,3877.0,3889.0,1320.0,1308.0,561.0,567.0
3860,1332,566,0,3867.0,3877.0,1331.0,1320.0,561.0,561.0
3848,1327,569,0,3860.0,3867.0,1332.0,1331.0,566.0,561.0
3840,1326,565,0,3848.0,3860.0,1327.0,1332.0,569.0,566.0
3830,1322,564,0,3840.0,3848.0,1326.0,1327.0,565.0,569.0
3819,1318,564,0,3830.0,3840.0,1322.0,1326.0,564.0,565.0
3819,1310,565,0,3819.0,3830.0,1318.0,1322.0,564.0,564.0
3821,1294,565,0,3819.0,3819.0,1310.0,1318.0,565.0,564.0
3818,1284,564,0,3821.0,3819.0,1294.0,1310.0,565.0,565.0
3820,1275,565,0,3818.0,3821.0,1284.0,1294.0,564.0,565.0
3829,1268,564,0,3820.0,3818.0,1275.0,1284.0,565.0,564.0
3832,1260,569,0,3829.0,3820.0,1268.0,1275.0,564.0,565.0
3839,1251,571,0,3832.0,3829.0,1260.0,1268.0,569.0,564.0
3845,1251,577,0,3839.0,3832.0,1251.0,1260.0,571.0,569.0
3851,1249,580,0,3845.0,3839.0,1251.0,1251.0,577.0,571.0
3859,1240,585,0,3851.0,3845.0,1249.0,1251.0,580.0,577.0
3871,1230,586,0,3859.0,3851.0,1240.0,1249.0,585.0,580.0
3880,1215,586,0,3871.0,3859.0,1230.0,1240.0,586.0,585.0
3888,1199,586,0,3880.0,3871.0,1215.0,1230.0,586.0,586.0
3891,1184,586,0,3888.0,3880.0,1199.0,1215.0,586.0,586.0
3889,1173,590,0,3891.0,3888.0,1184.0,1199.0,586.0,586.0
3885,1161,591,0,3889.0,3891.0,1173.0,1184.0,590.0,586.0
3880,1149,589,0,3885.0,3889.0,1161.0,1173.0,591.0,590.0
3874,1134,585,0,3880.0,3885.0,1149.0,1161.0,589.0,591.0
3859,1124,584,0,3874.0,3880.0,1134.0,1149.0,585.0,589.0
3850,1115,580,0,3859.0,3874.0,1124.0,1134.0,584.0,585.0
3836,1106,575,0,3850.0,3859.0,1115.0,1124.0,580.0,584.0
3833,1098,573,0,3836.0,3850.0,1106.0,1115.0,575.0,580.0
3829,1091,572,0,3833.0,3836.0,1098.0,1106.0,573.0,575.0
3833,1084,571,0,3829.0,3833.0,1091.0,1098.0,572.0,573.0
3836,1081,574,0,3833.0,3829.0,1084.0,1091.0,571.0,572.0
3839,1079,579,0,3836.0,3833.0,1081.0,1084.0,574.0,571.0
3848,1077,580,0,3839.0,3836.0,1079.0,1081.0,579.0,574.0
3851,1067,582,0,3848.0,3839.0,1077.0,1079.0,580.0,579.0
3853,1069,581,0,3851.0,3848.0,1067.0,1077.0,582.0,580.0
3856,1081,579,0,3853.0,3851.0,1069.0,1067.0,581.0,582.0
3858,1087,581,0,3856.0,3853.0,1081.0,1069.0,579.0,581.0
3867,1087,582,0,3858.0,3856.0,1087.0,1081.0,581.0,579.0
3868,1102,593,0,3867.0,3858.0,1087.0,1087.0,582.0,581.0
3874,1113,606,0,3868.0,3867.0,1102.0,1087.0,593.0,582.0
3878,1117,614,0,3874.0,3868.0,1113.0,1102.0,606.0,593.0
3882,1116,620,0,3878.0,3874.0,1117.0,1113.0,614.0,606.0
3883,1118,618,0,3882.0,3878.0,1116.0,1117.0,620.0,614.0
3885,1109,621,0,3883.0,3882.0,1118.0,1116.0,618.0,620.0
3887,1097,618,0,3885.0,3883.0,1109.0,1118.0,621.0,618.0
3890,1081,613,0,3887.0,3885.0,1097.0,1109.0,618.0,621.0
3894,1069,606,0,3890.0,3887.0,1081.0,1097.0,613.0,618.0
3899,1067,601,0,3894.0,3890.0,1069.0,1081.0,606.0,613.0
3903,1076,609,0,3899.0,3894.0,1067.0,1069.0,601.0,606.0
3905,1088,628,0,3903.0,3899.0,1076.0,1067.0,609.0,601.0
3907,1104,650,0,3905.0,3903.0,1088.0,1076.0,628.0,609.0
3911,1118,666,0,3907.0,3905.0,1104.0,1088.0,650.0,628.0
3910,1130,684,0,3911.0,3907.0,1118.0,1104.0,666.0,650.0
3906,1141,689,0,3910.0,3911.0,1130.0,1118.0,684.0,666.0
3900,1146,685,0,3906.0,3910.0,1141.0,1130.0,689.0,684.0
3897,1143,676,0,3900.0,3906.0,1146.0,1141.0,685.0,689.0
3892,1130,666,0,3897.0,3900.0,1143.0,1146.0,676.0,685.0
3889,1115,662,0,3892.0,3897.0,1130.0,1143.0,666.0,676.0
3887,1095,656,0,3889.0,3892.0,1115.0,1130.0,662.0,666.0
3890,1079,650,0,3887.0,3889.0,1095.0,1115.0,656.0,662.0
3892,1063,642,0,3890.0,3887.0,1079.0,1095.0,650.0,656.0
3893,1044,629,0,3892.0,3890.0,1063.0,1079.0,642.0,650.0
3894,1030,624,0,3893.0,3892.0,1044.0,1063.0,629.0,642.0
3892,1007,616,0,3894.0,3893.0,1030.0,1044.0,624.0,629.0
3894,989,609,0,3892.0,3894.0,1007.0,1030.0,616.0,624.0
3894,973,600,0,3894.0,3892.0,989.0,1007.0,609.0,616.0
3896,959,593,0,3894.0,3894.0,973.0,989.0,600.0,609.0
3889,953,592,0,3896.0,3894.0,959.0,973.0,593.0,600.0
3879,947,589,0,3889.0,3896.0,953.0,959.0,592.0,593.0
3872,946,591,0,3879.0,3889.0,947.0,953.0,589.0,592.0
3863,948,593,0,3872.0,3879.0,946.0,947.0,591.0,589.0
3859,947,591,0,3863.0,3872.0,948.0,946.0,593.0,591.0
3855,955,593,0,3859.0,3863.0,947.0,948.0,591.0,593.0
3850,969,597,0,3855.0,3859.0,955.0,947.0,593.0,591.0
3848,985,598,0,3850.0,3855.0,969.0,955.0,597.0,593.0
3845,1007,606,0,3848.0,3850.0,985.0,969.0,598.0,597.0
3842,1032,613,0,3845.0,3848.0,1007.0,985.0,606.0,598.0
3843,1051,621,0,3842.0,3845.0,1032.0,1007.0,613.0,606.0
3844,1064,627,0,3843.0,3842.0,1051.0,1032.0,621.0,613.0
3846,1073,629,0,3844.0,3843.0,1064.0,1051.0,627.0,621.0
3850,1080,624,0,3846.0,3844.0,1073.0,1064.0,629.0,627.0
3855,1075,613,0,3850.0,3846.0,1080.0,1073.0,624.0,629.0
3860,1070,606,0,3855.0,3850.0,1075.0,1080.0,613.0,624.0
3865,1065,596,0,3860.0,3855.0,1070.0,1075.0,606.0,613.0
3876,1055,590,0,3865.0,3860.0,1065.0,1070.0,596.0,606.0
3883,1040,594,0,3876.0,3865.0,1055.0,1065.0,590.0,596.0
3890,1025,595,0,3883.0,3876.0,1040.0,1055.0,594.0,590.0
3901,1015,597,0,3890.0,3883.0,1025.0,1040.0,595.0,594.0
3905,1006,594,0,3901.0,3890.0,1015.0,1025.0,597.0,595.0
3911,1010,598,0,3905.0,3901.0,1006.0,1015.0,594.0,597.0
3915,1004,600,0,3911.0,3905.0,1010.0,1006.0,598.0,594.0
3914,1012,597,0,3915.0,3911.0,1004.0,1010.0,600.0,598.0
3909,1014,602,0,3914.0,3915.0,1012.0,1004.0,597.0,600.0
3897,1021,600,0,3909.0,3914.0,1014.0,1012.0,602.0,597.0
3886,1037,597,0,3897.0,3909.0,1021.0,1014.0,600.0,602.0
3875,1045,592,0,3886.0,3897.0,1037.0,1021.0,597.0,600.0
3866,1050,590,0,3875.0,3886.0,1045.0,1037.0,592.0,597.0
3859,1052,593,0,3866.0,3875.0,1050.0,1045.0,590.0,592.0
3851,1055,598,0,3859.0,3866.0,1052.0,1050.0,593.0,590.0
3845,1061,597,0,3851.0,3859.0,1055.0,1052.0,598.0,593.0
3844,1071,595,0,3845.0,3851.0,1061.0,1055.0,597.0,598.0
3843,1078,586,0,3844.0,3845.0,1071.0,1061.0,595.0,597.0
3845,1083,583,0,3843.0,3844.0,1078.0,1071.0,586.0,595.0
3851,1088,582,0,3845.0,3843.0,1083.0,1078.0,583.0,586.0
3854,1088,582,0,3851.0,3845.0,1088.0,1083.0,582.0,583.0
3868,1088,585,0,3854.0,3851.0,1088.0,1088.0,582.0,582.0
3886,1092,587,0,3868.0,3854.0,1088.0,1088.0,585.0,582.0
3903,1092,590,0,3886.0,3868.0,1092.0,1088.0,587.0,585.0
3921,1088,593,0,3903.0,3886.0,1092.0,1092.0,590.0,587.0
3935,1085,594,0,3921.0,3903.0,1088.0,1092.0,593.0,590.0
3944,1079,595,0,3935.0,3921.0,1085.0,1088.0,594.0,593.0
3958,1076,599,0,3944.0,3935.0,1079.0,1085.0,595.0,594.0
3964,1075,601,0,3958.0,3944.0,1076.0,1079.0,599.0,595.0
3967,1066,606,0,3964.0,3958.0,1075.0,1076.0,601.0,599.0
3972,1062,613,0,3967.0,3964.0,1066.0,1075.0,606.0,601.0
3967,1059,616,0,3972.0,3967.0,1062.0,1066.0,613.0,606.0
3958,1053,620,0,3967.0,3972.0,1059.0,1062.0,616.0,613.0
3951,1042,620,0,3958.0,3967.0,1053.0,1059.0,620.0,616.0
3934,1032,611,0,3951.0,3958.0,1042.0,1053.0,620.0,620.0
3921,1018,601,0,3934.0,3951.0,1032.0,1042.0,611.0,620.0
3910,1005,596,0,3921.0,3934.0,1018.0,1032.0,601.0,611.0
3900,986,588,0,3910.0,3921.0,1005.0,1018.0,596.0,601.0
3890,969,585,0,3900.0,3910.0,986.0,1005.0,588.0,596.0
3890,953,589,0,3890.0,3900.0,969.0,986.0,585.0,588.0
3889,938,592,0,3890.0,3890.0,953.0,969.0,589.0,585.0
3892,933,598,0,3889.0,3890.0,938.0,953.0,592.0,589.0
3893,924,598,0,3892.0,3889.0,933.0,938.0,598.0,592.0
3891,929,595,0,3893.0,3892.0,924.0,933.0,598.0,598.0
3892,928,596,0,3891.0,3893.0,929.0,924.0,595.0,598.0
3893,933,591,0,3892.0,3891.0,928.0,929.0,596.0,595.0
3893,940,594,0,3893.0,3892.0,933.0,928.0,591.0,596.0
3897,941,601,0,3893.0,3893.0,940.0,933.0,594.0,591.0
3905,948,613,0,3897.0,3893.0,941.0,940.0,601.0,594.0
3910,954,620,0,3905.0,3897.0,948.0,941.0,613.0,601.0
3920,964,628,0,3910.0,3905.0,954.0,948.0,620.0,613.0
3929,966,630,0,3920.0,3910.0,964.0,954.0,628.0,620.0
3936,976,631,0,3929.0,3920.0,966.0,964.0,630.0,628.0
3946,982,628,0,3936.0,3929.0,976.0,966.0,631.0,630.0
3955,986,627,0,3946.0,3936.0,982.0,976.0,628.0,631.0
3962,982,623,0,3955.0,3946.0,986.0,982.0,627.0,628.0
3964,980,621,0,3962.0,3955.0,982.0,986.0,623.0,627.0
3966,978,624,0,3964.0,3962.0,980.0,982.0,621.0,623.0
3967,978,624,0,3966.0,3964.0,978.0,980.0,624.0,621.0
3958,983,620,0,3967.0,3966.0,978.0,978.0,624.0,624.0
3950,988,615,0,3958.0,3967.0,983.0,978.0,620.0,624.0
3938,996,610,0,3950.0,3958.0,988.0,983.0,615.0,620.0
3927,1000,607,0,3938.0,3950.0,996.0,988.0,610.0,615.0
3914,1006,605,0,3927.0,3938.0,1000.0,996.0,607.0,610.0
3900,1006,604,0,3914.0,3927.0,1006.0,1000.0,605.0,607.0
3883,1014,599,0,3900.0,3914.0,1006.0,1006.0,604.0,605.0
3872,1018,591,0,3883.0,3900.0,1014.0,1006.0,599.0,604.0
3862,1020,589,0,3872.0,3883.0,1018.0,1014.0,591.0,599.0
3851,1024,583,0,3862.0,3872.0,1020.0,1018.0,589.0,591.0
3841,1030,576,0,3851.0,3862.0,1024.0,1020.0,583.0,589.0
3838,1033,584,0,3841.0,3851.0,1030.0,1024.0,576.0,583.0
3834,1041,596,0,3838.0,3841.0,1033.0,1030.0,584.0,576.0
3838,1045,608,0,3834.0,3838.0,1041.0,1033.0,596.0,584.0
3842,1046,618,0,3838.0,3834.0,1045.0,1041.0,608.0,596.0
3850,1049,628,0,3842.0,3838.0,1046.0,1045.0,618.0,608.0
3854,1044,627,0,3850.0,3842.0,1049.0,1046.0,628.0,618.0
3864,1041,624,0,3854.0,3850.0,1044.0,1049.0,627.0,628.0
3872,1034,616,0,3864.0,3854.0,1041.0,1044.0,624.0,627.0
3877,1028,600,0,3872.0,3864.0,1034.0,1041.0,616.0,624.0
3886,1017,592,0,3877.0,3872.0,1028.0,1034.0,600.0,616.0
3890,1009,586,0,3886.0,3877.0,1017.0,1028.0,592.0,600.0
3900,1008,590,0,3890.0,3886.0,1009.0,1017.0,586.0,592.0
3910,1016,604,0,3900.0,3890.0,1008.0,1009.0,590.0,586.0
3923,1028,630,0,3910.0,3900.0,1016.0,1008.0,604.0,590.0
3930,1044,652,0,3923.0,3910.0,1028.0,1016.0,630.0,604.0
3937,1058,670,0,3930.0,3923.0,1044.0,1028.0,652.0,630.0
3938,1077,679,0,3937.0,3930.0,1058.0,1044.0,670.0,652.0
3934,1088,675,0,3938.0,3937.0,1077.0,1058.0,679.0,670.0
3925,1099,665,0,3934.0,3938.0,1088.0,1077.0,675.0,679.0
3918,1100,658,0,3925.0,3934.0,1099.0,1088.0,665.0,675.0
3913,1095,650,0,3918.0,3925.0,1100.0,1099.0,658.0,665.0
3904,1090,644,0,3913.0,3918.0,1095.0,1100.0,650.0,658.0
3903,1083,641,0,3904.0,3913.0,1090.0,1095.0,644.0,650.0
3903,1069,637,0,3903.0,3904.0,1083.0,1090.0,641.0,644.0
3901,1056,632,0,3903.0,3903.0,1069.0,1083.0,637.0,641.0
3898,1045,632,0,3901.0,3903.0,1056.0,1069.0,632.0,637.0
3898,1032,630,0,3898.0,3901.0,1045.0,1056.0,632.0,632.0
3901,1021,630,0,3898.0,3898.0,1032.0,1045.0,630.0,632.0
3898,1013,631,0,3901.0,3898.0,1021.0,1032.0,630.0,630.0
3896,1003,636,0,3898.0,3901.0,1013.0,1021.0,631.0,630.0
3892,991,635,0,3896.0,3898.0,1003.0,1013.0,636.0,631.0
3885,978,633,0,3892.0,3896.0,991.0,1003.0,635.0,636.0
3874,973,631,0,3885.0,3892.0,978.0,991.0,633.0,635.0
3868,972,629,0,3874.0,3885.0,973.0,978.0,631.0,633.0
3855,970,626,0,3868.0,3874.0,972.0,973.0,629.0,631.0
3842,972,625,0,3855.0,3868.0,970.0,972.0,626.0,629.0
3831,974,623,0,3842.0,3855.0,972.0,970.0,625.0,626.0
3827,978,624,0,3831.0,3842.0,974.0,972.0,623.0,625.0
3823,981,621,0,3827.0,3831.0,978.0,974.0,624.0,623.0
3827,986,622,0,3823.0,3827.0,981.0,978.0,621.0,624.0
3833,991,624,0,3827.0,3823.0,986.0,981.0,622.0,621.0
3842,999,628,0,3833.0,3827.0,991.0,986.0,624.0,622.0
3856,1002,632,0,3842.0,3833.0,999.0,991.0,628.0,624.0
3870,1006,633,0,3856.0,3842.0,1002.0,999.0,632.0,628.0
3883,1012,644,0,3870.0,3856.0,1006.0,1002.0,633.0,632.0
3895,1019,652,0,3883.0,3870.0,1012.0,1006.0,644.0,633.0
3917,1021,653,0,3895.0,3883.0,1019.0,1012.0,652.0,644.0
3930,1025,654,0,3917.0,3895.0,1021.0,1019.0,653.0,652.0
3940,1025,655,0,3930.0,3917.0,1025.0,1021.0,654.0,653.0
3947,1025,654,0,3940.0,3930.0,1025.0,1025.0,655.0,654.0
3950,1021,654,0,3947.0,3940.0,1025.0,1025.0,654.0,655.0
3956,1015,656,0,3950.0,3947.0,1021.0,1025.0,654.0,654.0
3955,1013,650,0,3956.0,3950.0,1015.0,1021.0,656.0,654.0
3952,1007,652,0,3955.0,3956.0,1013.0,1015.0,650.0,656.0
3947,1004,655,0,3952.0,3955.0,1007.0,1013.0,652.0,650.0
3934,1004,660,0,3947.0,3952.0,1004.0,1007.0,655.0,652.0
3921,1001,665,0,3934.0,3947.0,1004.0,1004.0,660.0,655.0
3904,999,663,0,3921.0,3934.0,1001.0,1004.0,665.0,660.0
3887,998,664,0,3904.0,3921.0,999.0,1001.0,663.0,665.0
3870,996,664,0,3887.0,3904.0,998.0,999.0,664.0,663.0
3858,992,663,0,3870.0,3887.0,996.0,998.0,664.0,664.0
3845,986,660,0,3858.0,3870.0,992.0,996.0,663.0,664.0
3834,978,655,0,3845.0,3858.0,986.0,992.0,660.0,663.0
3824,975,653,0,3834.0,3845.0,978.0,986.0,655.0,660.0
3822,970,653,0,3824.0,3834.0,975.0,978.0,653.0,655.0
3827,967,655,0,3822.0,3824.0,970.0,975.0,653.0,653.0
3829,962,660,0,3827.0,3822.0,967.0,970.0,655.0,653.0
3834,963,660,0,3829.0,3827.0,962.0,967.0,660.0,655.0
3842,956,662,0,3834.0,3829.0,963.0,962.0,660.0,660.0
3852,951,661,0,3842.0,3834.0,956.0,963.0,662.0,660.0
3864,949,662,0,3852.0,3842.0,951.0,956.0,661.0,662.0
3876,949,666,0,3864.0,3852.0,949.0,951.0,662.0,661.0
3891,951,670,0,3876.0,3864.0,949.0,949.0,666.0,662.0
3903,954,680,0,3891.0,3876.0,951.0,949.0,670.0,666.0
3914,965,690,0,3903.0,3891.0,954.0,951.0,680.0,670.0
3920,973,700,0,3914.0,3903.0,965.0,954.0,690.0,680.0
3929,983,702,0,3920.0,3914.0,973.0,965.0,700.0,690.0
3931,994,704,0,3929.0,3920.0,983.0,973.0,702.0,700.0
3934,1003,709,0,3931.0,3929.0,994.0,983.0,704.0,702.0
3929,1007,715,0,3934.0,3931.0,1003.0,994.0,709.0,704.0
3922,1007,714,0,3929.0,3934.0,1007.0,1003.0,715.0,709.0
3910,1001,711,0,3922.0,3929.0,1007.0,1007.0,714.0,715.0
3907,997,703,0,3910.0,3922.0,1001.0,1007.0,711.0,714.0
3895,992,700,0,3907.0,3910.0,997.0,1001.0,703.0,711.0
3879,985,693,0,3895.0,3907.0,992.0,997.0,700.0,703.0
3866,980,688,0,3879.0,3895.0,985.0,992.0,693.0,700.0
3857,974,682,0,3866.0,3879.0,980.0,985.0,688.0,693.0
3842,970,678,0,3857.0,3866.0,974.0,980.0,682.0,688.0
3827,970,679,0,3842.0,3857.0,970.0,974.0,678.0,682.0
3821,968,677,0,3827.0,3842.0,970.0,970.0,679.0,678.0
3815,971,681,0,3821.0,3827.0,968.0,970.0,677.0,679.0
3812,974,685,0,3815.0,3821.0,971.0,968.0,681.0,677.0
3812,974,685,0,3812.0,3815.0,974.0,971.0,685.0,681.0
3815,974,689,0,3812.0,3812.0,974.0,974.0,685.0,685.0
3821,979,694,0,3815.0,3812.0,974.0,974.0,689.0,685.0
3828,980,693,0,3821.0,3815.0,979.0,974.0,694.0,689.0
3835,974,692,0,3828.0,3821.0,980.0,979.0,693.0,694.0
3848,965,693,0,3835.0,3828.0,974.0,980.0,692.0,693.0
3858,956,700,0,3848.0,3835.0,965.0,974.0,693.0,692.0
3869,951,707,0,3858.0,3848.0,956.0,965.0,700.0,693.0
3877,950,711,0,3869.0,3858.0,951.0,956.0,707.0,700.0
3882,950,713,0,3877.0,3869.0,950.0,951.0,711.0,707.0
3884,953,716,0,3882.0,3877.0,950.0,950.0,713.0,711.0
3886,956,716,0,3884.0,3882.0,953.0,950.0,716.0,713.0
3887,965,716,0,3886.0,3884.0,956.0,953.0,716.0,716.0
3887,975,716,0,3887.0,3886.0,965.0,956.0,716.0,716.0
3891,982,708,0,3887.0,3887.0,975.0,965.0,716.0,716.0
3889,987,703,0,3891.0,3887.0,982.0,975.0,708.0,716.0
3891,993,700,0,3889.0,3891.0,987.0,982.0,703.0,708.0
3896,997,700,0,3891.0,3889.0,993.0,987.0,700.0,703.0
3898,1001,700,0,3896.0,3891.0,997.0,993.0,700.0,700.0
3898,1006,706,0,3898.0,3896.0,1001.0,997.0,700.0,700.0
3900,1011,709,0,3898.0,3898.0,1006.0,1001.0,706.0,700.0
3902,1011,708,0,3900.0,3898.0,1011.0,1006.0,709.0,706.0
3904,1012,714,0,3902.0,3900.0,1011.0,1011.0,708.0,709.0
3899,1010,711,0,3904.0,3902.0,1012.0,1011.0,714.0,708.0
3904,1011,714,0,3899.0,3904.0,1010.0,1012.0,711.0,714.0
3905,1005,716,0,3904.0,3899.0,1011.0,1010.0,714.0,711.0
3905,1001,716,0,3905.0,3904.0,1005.0,1011.0,716.0,714.0
3903,995,716,0,3905.0,3905.0,1001.0,1005.0,716.0,716.0
3899,993,719,0,3903.0,3905.0,995.0,1001.0,716.0,716.0
3892,993,722,0,3899.0,3903.0,993.0,995.0,719.0,716.0
3886,993,722,0,3892.0,3899.0,993.0,993.0,722.0,719.0
3879,996,723,0,3886.0,3892.0,993.0,993.0,722.0,722.0
3868,993,724,0,3879.0,3886.0,996.0,993.0,723.0,722.0
3856,990,717,0,3868.0,3879.0,993.0,996.0,724.0,723.0
3838,983,709,0,3856.0,3868.0,990.0,993.0,717.0,724.0
3823,977,703,0,3838.0,3856.0,983.0,990.0,709.0,717.0
3813,971,695,0,3823.0,3838.0,977.0,983.0,703.0,709.0
3804,971,697,0,3813.0,3823.0,971.0,977.0,695.0,703.0
3804,969,707,0,3804.0,3813.0,971.0,971.0,697.0,695.0
3809,967,723,0,3804.0,3804.0,969.0,971.0,707.0,697.0
3822,965,746,0,3809.0,3804.0,967.0,969.0,723.0,707.0
3838,961,765,0,3822.0,3809.0,965.0,967.0,746.0,723.0
3858,961,772,0,3838.0,3822.0,961.0,965.0,765.0,746.0
3873,961,778,0,3858.0,3838.0,961.0,961.0,772.0,765.0
3892,960,779,0,3873.0,3858.0,961.0,961.0,778.0,772.0
3905,961,774,0,3892.0,3873.0,960.0,961.0,779.0,778.0
3911,958,771,0,3905.0,3892.0,961.0,960.0,774.0,779.0
3910,947,760,0,3911.0,3905.0,958.0,961.0,771.0,774.0
3907,936,755,0,3910.0,3911.0,947.0,958.0,760.0,771.0
3899,924,743,0,3907.0,3910.0,936.0,947.0,755.0,760.0
3888,909,734,0,3899.0,3907.0,924.0,936.0,743.0,755.0
3875,887,722,0,3888.0,3899.0,909.0,924.0,734.0,743.0
3857,867,713,0,3875.0,3888.0,887.0,909.0,722.0,734.0
3835,845,697,0,3857.0,3875.0,867.0,887.0,713.0,722.0
3809,825,674,0,3835.0,3857.0,845.0,867.0,697.0,713.0
3779,805,648,0,3809.0,3835.0,825.0,845.0,674.0,697.0
3752,782,621,0,3779.0,3809.0,805.0,825.0,648.0,674.0
3721,754,591,0,3752.0,3779.0,782.0,805.0,621.0,648.0
3695,725,574,0,3721.0,3752.0,754.0,782.0,591.0,621.0
3683,701,560,0,3695.0,3721.0,725.0,754.0,574.0,591.0
3673,676,548,0,3683.0,3695.0,701.0,725.0,560.0,574.0
3674,651,539,0,3673.0,3683.0,676.0,701.0,548.0,560.0
3683,624,534,0,3674.0,3673.0,651.0,676.0,539.0,548.0
3704,607,536,0,3683.0,3674.0,624.0,651.0,534.0,539.0
3737,593,543,0,3704.0,3683.0,607.0,624.0,536.0,534.0
3774,587,556,0,3737.0,3704.0,593.0,607.0,543.0,536.0
3814,592,568,0,3774.0,3737.0,587.0,593.0,556.0,543.0
3859,603,579,0,3814.0,3774.0,592.0,587.0,568.0,556.0
3898,613,593,0,3859.0,3814.0,603.0,592.0,579.0,568.0
3934,628,609,0,3898.0,3859.0,613.0,603.0,593.0,579.0
3968,638,620,0,3934.0,3898.0,628.0,613.0,609.0,593.0
4002,637,630,0,3968.0,3934.0,638.0,628.0,620.0,609.0
4032,631,633,0,4002.0,3968.0,637.0,638.0,630.0,620.0
4066,613,632,0,4032.0,4002.0,631.0,637.0,633.0,630.0
4101,585,635,0,4066.0,4032.0,613.0,631.0,632.0,633.0
4132,553,640,0,4101.0,4066.0,585.0,613.0,635.0,632.0
4164,517,643,0,4132.0,4101.0,553.0,585.0,640.0,635.0
4189,481,647,0,4164.0,4132.0,517.0,553.0,643.0,640.0
4199,448,661,0,4189.0,4164.0,481.0,517.0,647.0,643.0
4197,428,665,0,4199.0,4189.0,448.0,481.0,661.0,647.0
4186,421,659,0,4197.0,4199.0,428.0,448.0,665.0,661.0
4166,423,660,0,4186.0,4197.0,421.0,428.0,659.0,665.0
4140,429,667,0,4166.0,4186.0,423.0,421.0,660.0,659.0
4122,427,674,0,4140.0,4166.0,429.0,423.0,667.0,660.0
4102,432,682,0,4122.0,4140.0,427.0,429.0,674.0,667.0
4087,437,689,0,4102.0,4122.0,432.0,427.0,682.0,674.0
4066,443,692,0,4087.0,4102.0,437.0,432.0,689.0,682.0
4041,463,695,0,4066.0,4087.0,443.0,437.0,692.0,689.0
4021,490,701,0,4041.0,4066.0,463.0,443.0,695.0,692.0
3996,516,709,0,4021.0,4041.0,490.0,463.0,701.0,695.0
3981,553,718,0,3996.0,4021.0,516.0,490.0,709.0,701.0
3968,589,735,0,3981.0,3996.0,553.0,516.0,718.0,709.0
3958,626,752,0,3968.0,3981.0,589.0,553.0,735.0,718.0
3950,657,773,0,3958.0,3968.0,626.0,589.0,752.0,735.0
3949,685,793,0,3950.0,3958.0,657.0,626.0,773.0,752.0
3941,711,807,0,3949.0,3950.0,685.0,657.0,793.0,773.0
3939,729,807,0,3941.0,3949.0,711.0,685.0,807.0,793.0
3935,751,813,0,3939.0,3941.0,729.0,711.0,807.0,807.0
3934,763,826,0,3935.0,3939.0,751.0,729.0,813.0,807.0
3933,769,842,0,3934.0,3935.0,763.0,751.0,826.0,813.0
3933,768,856,0,3933.0,3934.0,769.0,763.0,842.0,826.0
3932,767,865,0,3933.0,3933.0,768.0,769.0,856.0,842.0
3930,766,868,0,3932.0,3933.0,767.0,768.0,865.0,856.0
3925,768,862,0,3930.0,3932.0,766.0,767.0,868.0,865.0
3921,772,850,0,3925.0,3930.0,768.0,766.0,862.0,868.0
3915,777,840,0,3921.0,3925.0,772.0,768.0,850.0,862.0
3909,781,835,0,3915.0,3921.0,777.0,772.0,840.0,850.0
3903,791,834,0,3909.0,3915.0,781.0,777.0,835.0,840.0
3893,804,836,0,3903.0,3909.0,791.0,781.0,834.0,835.0
3883,812,835,0,3893.0,3903.0,804.0,791.0,836.0,834.0
3869,822,829,0,3883.0,3893.0,812.0,804.0,835.0,836.0
3858,823,823,0,3869.0,3883.0,822.0,812.0,829.0,835.0
3842,818,808,0,3858.0,3869.0,823.0,822.0,823.0,829.0
3831,796,786,0,3842.0,3858.0,818.0,823.0,808.0,823.0
3824,768,763,0,3831.0,3842.0,796.0,818.0,786.0,808.0
3821,733,742,0,3824.0,3831.0,768.0,796.0,763.0,786.0
3816,685,717,0,3821.0,3824.0,733.0,768.0,742.0,763.0
3820,633,695,0,3816.0,3821.0,685.0,733.0,717.0,742.0
3834,578,667,0,3820.0,3816.0,633.0,685.0,695.0,717.0
3846,520,639,0,3834.0,3820.0,578.0,633.0,667.0,695.0
3864,465,611,0,3846.0,3834.0,520.0,578.0,639.0,667.0
3882,424,593,0,3864.0,3846.0,465.0,520.0,611.0,639.0
3905,384,575,0,3882.0,3864.0,424.0,465.0,593.0,611.0
3924,354,566,0,3905.0,3882.0,384.0,424.0,575.0,593.0
3953,333,563,0,3924.0,3905.0,354.0,384.0,566.0,575.0
3977,312,564,0,3953.0,3924.0,333.0,354.0,563.0,566.0
4001,303,566,0,3977.0,3953.0,312.0,333.0,564.0,563.0
4024,302,565,0,4001.0,3977.0,303.0,312.0,566.0,564.0
4042,311,567,0,4024.0,4001.0,302.0,303.0,565.0,566.0
4057,324,566,0,4042.0,4024.0,311.0,302.0,567.0,565.0
4061,350,570,0,4057.0,4042.0,324.0,311.0,566.0,567.0
4063,380,574,0,4061.0,4057.0,350.0,324.0,570.0,566.0
4060,409,572,0,4063.0,4061.0,380.0,350.0,574.0,570.0
4050,439,575,0,4060.0,4063.0,409.0,380.0,572.0,574.0
4041,471,575,0,4050.0,4060.0,439.0,409.0,575.0,572.0
4029,507,582,0,4041.0,4050.0,471.0,439.0,575.0,575.0
4016,541,590,0,4029.0,4041.0,507.0,471.0,582.0,575.0
4007,577,602,0,4016.0,4029.0,541.0,507.0,590.0,582.0
3992,610,610,0,4007.0,4016.0,577.0,541.0,602.0,590.0
3978,641,611,0,3992.0,4007.0,610.0,577.0,610.0,602.0
3958,665,615,0,3978.0,3992.0,641.0,610.0,611.0,610.0
3943,691,608,0,3958.0,3978.0,665.0,641.0,615.0,611.0
3932,705,595,0,3943.0,3958.0,691.0,665.0,608.0,615.0
3919,710,579,0,3932.0,3943.0,705.0,691.0,595.0,608.0
3916,707,563,0,3919.0,3932.0,710.0,705.0,579.0,595.0
3915,699,545,0,3916.0,3919.0,707.0,710.0,563.0,579.0
3923,691,524,0,3915.0,3916.0,699.0,707.0,545.0,563.0
3932,676,507,0,3923.0,3915.0,691.0,699.0,524.0,545.0
3948,662,495,0,3932.0,3923.0,676.0,691.0,507.0,524.0
3964,650,485,0,3948.0,3932.0,662.0,676.0,495.0,507.0
3985,635,477,0,3964.0,3948.0,650.0,662.0,485.0,495.0
4000,622,472,0,3985.0,3964.0,635.0,650.0,477.0,485.0
4019,618,476,0,4000.0,3985.0,622.0,635.0,472.0,477.0
4029,616,472,0,4019.0,4000.0,618.0,622.0,476.0,472.0
4034,617,462,0,4029.0,4019.0,616.0,618.0,472.0,476.0
4035,611,450,0,4034.0,4029.0,617.0,616.0,462.0,472.0
4029,602,438,0,4035.0,4034.0,611.0,617.0,450.0,462.0
4024,596,428,0,4029.0,4035.0,602.0,611.0,438.0,450.0
4013,593,418,0,4024.0,4029.0,596.0,602.0,428.0,438.0
4006,599,410,0,4013.0,4024.0,593.0,596.0,418.0,428.0
3996,608,399,0,4006.0,4013.0,599.0,593.0,410.0,418.0
3985,620,384,0,3996.0,4006.0,608.0,599.0,399.0,410.0
3977,632,358,0,3985.0,3996.0,620.0,608.0,384.0,399.0
3969,648,327,0,3977.0,3985.0,632.0,620.0,358.0,384.0
3959,660,302,0,3969.0,3977.0,648.0,632.0,327.0,358.0
3953,668,287,0,3959.0,3969.0,660.0,648.0,302.0,327.0
3956,671,277,0,3953.0,3959.0,668.0,660.0,287.0,302.0
3963,677,272,0,3956.0,3953.0,671.0,668.0,277.0,287.0
3984,676,276,0,3963.0,3956.0,677.0,671.0,272.0,277.0
4013,676,281,0,3984.0,3963.0,676.0,677.0,276.0,272.0
4054,681,292,0,4013.0,3984.0,676.0,676.0,281.0,276.0
4096,700,306,0,4054.0,4013.0,681.0,676.0,292.0,281.0
4144,736,305,0,4096.0,4054.0,700.0,681.0,306.0,292.0
4190,785,291,0,4144.0,4096.0,736.0,700.0,305.0,306.0
4234,840,263,0,4190.0,4144.0,785.0,736.0,291.0,305.0
4266,898,227,0,4234.0,4190.0,840.0,785.0,263.0,291.0
