accelerometer_x,accelerometer_y,accelerometer_z,fall,x_lag_1,x_lag_2,y_lag_1,y_lag_2,z_lag_1,z_lag_2
3954,-401,-107,0,,,,,,
3894,-346,-108,0,3954.0,,-401.0,,-107.0,
3835,-295,-123,0,3894.0,3954.0,-346.0,-401.0,-108.0,-107.0
3778,-244,-149,0,3835.0,3894.0,-295.0,-346.0,-123.0,-108.0
3728,-198,-167,0,3778.0,3835.0,-244.0,-295.0,-149.0,-123.0
3685,-140,-180,0,3728.0,3778.0,-198.0,-244.0,-167.0,-149.0
3660,-93,-181,0,3685.0,3728.0,-140.0,-198.0,-180.0,-167.0
3642,-60,-167,0,3660.0,3685.0,-93.0,-140.0,-181.0,-180.0
3631,-34,-152,0,3642.0,3660.0,-60.0,-93.0,-167.0,-181.0
3616,-19,-143,0,3631.0,3642.0,-34.0,-60.0,-152.0,-167.0
3605,-25,-139,0,3616.0,3631.0,-19.0,-34.0,-143.0,-152.0
3597,-54,-146,0,3605.0,3616.0,-25.0,-19.0,-139.0,-143.0
3588,-85,-161,0,3597.0,3605.0,-54.0,-25.0,-146.0,-139.0
3581,-114,-166,0,3588.0,3597.0,-85.0,-54.0,-161.0,-146.0
3584,-145,-153,0,3581.0,3588.0,-114.0,-85.0,-166.0,-161.0
3599,-178,-132,0,3584.0,3581.0,-145.0,-114.0,-153.0,-166.0
3617,-202,-123,0,3599.0,3584.0,-178.0,-145.0,-132.0,-153.0
3642,-226,-115,0,3617.0,3599.0,-202.0,-178.0,-123.0,-132.0
3672,-249,-106,0,3642.0,3617.0,-226.0,-202.0,-115.0,-123.0
3707,-274,-97,0,3672.0,3642.0,-249.0,-226.0,-106.0,-115.0
3738,-301,-105,0,3707.0,3672.0,-274.0,-249.0,-97.0,-106.0
3771,-333,-123,0,3738.0,3707.0,-301.0,-274.0,-105.0,-97.0
3802,-362,-148,0,3771.0,3738.0,-333.0,-301.0,-123.0,-105.0
3841,-385,-166,0,3802.0,3771.0,-362.0,-333.0,-148.0,-123.0
3872,-397,-173,0,3841.0,3802.0,-385.0,-362.0,-166.0,-148.0
3905,-396,-175,0,3872.0,3841.0,-397.0,-385.0,-173.0,-166.0
3933,-391,-178,0,3905.0,3872.0,-396.0,-397.0,-175.0,-173.0
3960,-380,-182,0,3933.0,3905.0,-391.0,-396.0,-178.0,-175.0
3987,-369,-182,0,3960.0,3933.0,-380.0,-391.0,-182.0,-178.0
4012,-366,-180,0,3987.0,3960.0,-369.0,-380.0,-182.0,-182.0
4030,-367,-180,0,4012.0,3987.0,-366.0,-369.0,-180.0,-182.0
4042,-369,-182,0,4030.0,4012.0,-367.0,-366.0,-180.0,-180.0
4053,-377,-183,0,4042.0,4030.0,-369.0,-367.0,-182.0,-180.0
4060,-384,-185,0,4053.0,4042.0,-377.0,-369.0,-183.0,-182.0
4063,-387,-194,0,4060.0,4053.0,-384.0,-377.0,-185.0,-183.0
4059,-383,-197,0,4063.0,4060.0,-387.0,-384.0,-194.0,-185.0
4059,-373,-189,0,4059.0,4063.0,-383.0,-387.0,-197.0,-194.0
4060,-351,-170,0,4059.0,4059.0,-373.0,-383.0,-189.0,-197.0
4068,-328,-140,0,4060.0,4059.0,-351.0,-373.0,-170.0,-189.0
4081,-296,-95,0,4068.0,4060.0,-328.0,-351.0,-140.0,-170.0
4090,-271,-61,0,4081.0,4068.0,-296.0,-328.0,-95.0,-140.0
4093,-255,-64,0,4090.0,4081.0,-271.0,-296.0,-61.0,-95.0
4084,-256,-87,0,4093.0,4090.0,-255.0,-271.0,-64.0,-61.0
4069,-255,-99,0,4084.0,4093.0,-256.0,-255.0,-87.0,-64.0
4060,-244,-65,0,4069.0,4084.0,-255.0,-256.0,-99.0,-87.0
4058,-223,-8,0,4060.0,4069.0,-244.0,-255.0,-65.0,-99.0
4063,-199,53,0,4058.0,4060.0,-223.0,-244.0,-8.0,-65.0
4069,-181,98,0,4063.0,4058.0,-199.0,-223.0,53.0,-8.0
4074,-183,128,0,4069.0,4063.0,-181.0,-199.0,98.0,53.0
4074,-193,139,0,4074.0,4069.0,-183.0,-181.0,128.0,98.0
4072,-214,136,0,4074.0,4074.0,-193.0,-183.0,139.0,128.0
4069,-235,128,0,4072.0,4074.0,-214.0,-193.0,136.0,139.0
4069,-252,121,0,4069.0,4072.0,-235.0,-214.0,128.0,136.0
4069,-267,115,0,4069.0,4069.0,-252.0,-235.0,121.0,128.0
4068,-266,117,0,4069.0,4069.0,-267.0,-252.0,115.0,121.0
4060,-249,111,0,4068.0,4069.0,-266.0,-267.0,117.0,115.0
4038,-233,65,0,4060.0,4068.0,-249.0,-266.0,111.0,117.0
4003,-210,8,0,4038.0,4060.0,-233.0,-249.0,65.0,111.0
3971,-175,-36,0,4003.0,4038.0,-210.0,-233.0,8.0,65.0
3939,-120,-59,0,3971.0,4003.0,-175.0,-210.0,-36.0,8.0
3910,-50,-61,0,3939.0,3971.0,-120.0,-175.0,-59.0,-36.0
3884,27,-59,0,3910.0,3939.0,-50.0,-120.0,-61.0,-59.0
3860,86,-68,0,3884.0,3910.0,27.0,-50.0,-59.0,-61.0
3845,107,-114,0,3860.0,3884.0,86.0,27.0,-68.0,-59.0
3831,110,-174,0,3845.0,3860.0,107.0,86.0,-114.0,-68.0
3819,99,-230,0,3831.0,3845.0,110.0,107.0,-174.0,-114.0
3805,77,-261,0,3819.0,3831.0,99.0,110.0,-230.0,-174.0
3800,47,-264,0,3805.0,3819.0,77.0,99.0,-261.0,-230.0
3796,6,-241,0,3800.0,3805.0,47.0,77.0,-264.0,-261.0
3796,-60,-206,0,3796.0,3800.0,6.0,47.0,-241.0,-264.0
3797,-156,-181,0,3796.0,3796.0,-60.0,6.0,-206.0,-241.0
3792,-281,-175,0,3797.0,3796.0,-156.0,-60.0,-181.0,-206.0
3786,-423,-182,0,3792.0,3797.0,-281.0,-156.0,-175.0,-181.0
3766,-578,-201,0,3786.0,3792.0,-423.0,-281.0,-182.0,-175.0
3759,-735,-221,0,3766.0,3786.0,-578.0,-423.0,-201.0,-182.0
3752,-888,-242,0,3759.0,3766.0,-735.0,-578.0,-221.0,-201.0
3757,-1023,-265,0,3752.0,3759.0,-888.0,-735.0,-242.0,-221.0
3763,-1129,-301,0,3757.0,3752.0,-1023.0,-888.0,-265.0,-242.0
3771,-1208,-357,0,3763.0,3757.0,-1129.0,-1023.0,-301.0,-265.0
3774,-1246,-420,0,3771.0,3763.0,-1208.0,-1129.0,-357.0,-301.0
3784,-1241,-484,0,3774.0,3771.0,-1246.0,-1208.0,-420.0,-357.0
3795,-1180,-552,0,3784.0,3774.0,-1241.0,-1246.0,-484.0,-420.0
3821,-1081,-612,0,3795.0,3784.0,-1180.0,-1241.0,-552.0,-484.0
3858,-951,-664,0,3821.0,3795.0,-1081.0,-1180.0,-612.0,-552.0
3908,-807,-715,0,3858.0,3821.0,-951.0,-1081.0,-664.0,-612.0
3968,-661,-782,0,3908.0,3858.0,-807.0,-951.0,-715.0,-664.0
4035,-525,-885,0,3968.0,3908.0,-661.0,-807.0,-782.0,-715.0
4103,-403,-1026,0,4035.0,3968.0,-525.0,-661.0,-885.0,-782.0
4198,-281,-1176,0,4103.0,4035.0,-403.0,-525.0,-1026.0,-885.0
4316,-151,-1294,0,4198.0,4103.0,-281.0,-403.0,-1176.0,-1026.0
4475,-13,-1348,0,4316.0,4198.0,-151.0,-281.0,-1294.0,-1176.0
4664,130,-1331,0,4475.0,4316.0,-13.0,-151.0,-1348.0,-1294.0
4875,258,-1264,0,4664.0,4475.0,130.0,-13.0,-1331.0,-1348.0
5102,349,-1169,0,4875.0,4664.0,258.0,130.0,-1264.0,-1331.0
5325,385,-1081,0,5102.0,4875.0,349.0,258.0,-1169.0,-1264.0
5538,358,-1007,0,5325.0,5102.0,385.0,349.0,-1081.0,-1169.0
5725,263,-965,0,5538.0,5325.0,358.0,385.0,-1007.0,-1081.0
5876,120,-965,0,5725.0,5538.0,263.0,358.0,-965.0,-1007.0
5976,-58,-1002,0,5876.0,5725.0,120.0,263.0,-965.0,-965.0
6023,-247,-1053,0,5976.0,5876.0,-58.0,120.0,-1002.0,-965.0
6002,-415,-1087,0,6023.0,5976.0,-247.0,-58.0,-1053.0,-1002.0
5923,-549,-1084,0,6002.0,6023.0,-415.0,-247.0,-1087.0,-1053.0
5802,-644,-1037,0,5923.0,6002.0,-549.0,-415.0,-1084.0,-1087.0
5630,-694,-966,0,5802.0,5923.0,-644.0,-549.0,-1037.0,-1084.0
5412,-715,-891,0,5630.0,5802.0,-694.0,-644.0,-966.0,-1037.0
5154,-711,-820,0,5412.0,5630.0,-715.0,-694.0,-891.0,-966.0
4872,-690,-764,0,5154.0,5412.0,-711.0,-715.0,-820.0,-891.0
4574,-656,-713,0,4872.0,5154.0,-690.0,-711.0,-764.0,-820.0
4282,-617,-673,0,4574.0,4872.0,-656.0,-690.0,-713.0,-764.0
3996,-568,-639,0,4282.0,4574.0,-617.0,-656.0,-673.0,-713.0
3719,-503,-611,0,3996.0,4282.0,-568.0,-617.0,-639.0,-673.0
3459,-421,-583,0,3719.0,3996.0,-503.0,-568.0,-611.0,-639.0
3230,-318,-566,0,3459.0,3719.0,-421.0,-503.0,-583.0,-611.0
3044,-199,-567,0,3230.0,3459.0,-318.0,-421.0,-566.0,-583.0
2895,-70,-591,0,3044.0,3230.0,-199.0,-318.0,-567.0,-566.0
2784,62,-638,0,2895.0,3044.0,-70.0,-199.0,-591.0,-567.0
2713,180,-690,0,2784.0,2895.0,62.0,-70.0,-638.0,-591.0
2689,280,-728,0,2713.0,2784.0,180.0,62.0,-690.0,-638.0
2701,358,-738,0,2689.0,2713.0,280.0,180.0,-728.0,-690.0
2760,413,-718,0,2701.0,2689.0,358.0,280.0,-738.0,-728.0
2852,437,-681,0,2760.0,2701.0,413.0,358.0,-718.0,-738.0
2977,421,-642,0,2852.0,2760.0,437.0,413.0,-681.0,-718.0
3123,359,-607,0,2977.0,2852.0,421.0,437.0,-642.0,-681.0
3279,257,-585,0,3123.0,2977.0,359.0,421.0,-607.0,-642.0
3438,127,-572,0,3279.0,3123.0,257.0,359.0,-585.0,-607.0
3600,-21,-561,0,3438.0,3279.0,127.0,257.0,-572.0,-585.0
3758,-176,-551,0,3600.0,3438.0,-21.0,127.0,-561.0,-572.0
3895,-322,-543,0,3758.0,3600.0,-176.0,-21.0,-551.0,-561.0
4021,-457,-535,0,3895.0,3758.0,-322.0,-176.0,-543.0,-551.0
4137,-570,-528,0,4021.0,3895.0,-457.0,-322.0,-535.0,-543.0
4237,-651,-518,0,4137.0,4021.0,-570.0,-457.0,-528.0,-535.0
4325,-714,-515,0,4237.0,4137.0,-651.0,-570.0,-518.0,-528.0
4408,-764,-519,0,4325.0,4237.0,-714.0,-651.0,-515.0,-518.0
4477,-790,-517,0,4408.0,4325.0,-764.0,-714.0,-519.0,-515.0
4532,-795,-516,0,4477.0,4408.0,-790.0,-764.0,-517.0,-519.0
4572,-773,-515,0,4532.0,4477.0,-795.0,-790.0,-516.0,-517.0
4607,-736,-512,0,4572.0,4532.0,-773.0,-795.0,-515.0,-516.0
4627,-695,-524,0,4607.0,4572.0,-736.0,-773.0,-512.0,-515.0
4635,-648,-534,0,4627.0,4607.0,-695.0,-736.0,-524.0,-512.0
4633,-599,-546,0,4635.0,4627.0,-648.0,-695.0,-534.0,-524.0
4624,-557,-553,0,4633.0,4635.0,-599.0,-648.0,-546.0,-534.0
4606,-519,-553,0,4624.0,4633.0,-557.0,-599.0,-553.0,-546.0
4580,-487,-549,0,4606.0,4624.0,-519.0,-557.0,-553.0,-553.0
4549,-458,-538,0,4580.0,4606.0,-487.0,-519.0,-549.0,-553.0
4507,-429,-531,0,4549.0,4580.0,-458.0,-487.0,-538.0,-549.0
4462,-394,-522,0,4507.0,4549.0,-429.0,-458.0,-531.0,-538.0
4421,-358,-506,0,4462.0,4507.0,-394.0,-429.0,-522.0,-531.0
4389,-326,-489,0,4421.0,4462.0,-358.0,-394.0,-506.0,-522.0
4360,-296,-468,0,4389.0,4421.0,-326.0,-358.0,-489.0,-506.0
4329,-267,-443,0,4360.0,4389.0,-296.0,-326.0,-468.0,-489.0
4303,-246,-418,0,4329.0,4360.0,-267.0,-296.0,-443.0,-468.0
4274,-224,-403,0,4303.0,4329.0,-246.0,-267.0,-418.0,-443.0
4245,-211,-393,0,4274.0,4303.0,-224.0,-246.0,-403.0,-418.0
4205,-198,-387,0,4245.0,4274.0,-211.0,-224.0,-393.0,-403.0
4157,-188,-383,0,4205.0,4245.0,-198.0,-211.0,-387.0,-393.0
4122,-184,-375,0,4157.0,4205.0,-188.0,-198.0,-383.0,-387.0
4081,-187,-358,0,4122.0,4157.0,-184.0,-188.0,-375.0,-383.0
4045,-186,-338,0,4081.0,4122.0,-187.0,-184.0,-358.0,-375.0
4012,-188,-319,0,4045.0,4081.0,-186.0,-187.0,-338.0,-358.0
3985,-193,-299,0,4012.0,4045.0,-188.0,-186.0,-319.0,-338.0
3960,-194,-294,0,3985.0,4012.0,-193.0,-188.0,-299.0,-319.0
3939,-192,-290,0,3960.0,3985.0,-194.0,-193.0,-294.0,-299.0
3925,-193,-289,0,3939.0,3960.0,-192.0,-194.0,-290.0,-294.0
3911,-182,-292,0,3925.0,3939.0,-193.0,-192.0,-289.0,-290.0
3901,-173,-292,0,3911.0,3925.0,-182.0,-193.0,-292.0,-289.0
3898,-147,-289,0,3901.0,3911.0,-173.0,-182.0,-292.0,-292.0
3895,-107,-279,0,3898.0,3901.0,-147.0,-173.0,-289.0,-292.0
3900,-65,-265,0,3895.0,3898.0,-107.0,-147.0,-279.0,-289.0
3908,-16,-244,0,3900.0,3895.0,-65.0,-107.0,-265.0,-279.0
3918,28,-225,0,3908.0,3900.0,-16.0,-65.0,-244.0,-265.0
3933,72,-216,0,3918.0,3908.0,28.0,-16.0,-225.0,-244.0
3952,112,-214,0,3933.0,3918.0,72.0,28.0,-216.0,-225.0
3966,146,-213,0,3952.0,3933.0,112.0,72.0,-214.0,-216.0
3983,163,-210,0,3966.0,3952.0,146.0,112.0,-213.0,-214.0
4002,171,-206,0,3983.0,3966.0,163.0,146.0,-210.0,-213.0
4024,169,-202,0,4002.0,3983.0,171.0,163.0,-206.0,-210.0
4058,151,-202,0,4024.0,4002.0,169.0,171.0,-202.0,-206.0
4083,117,-202,0,4058.0,4024.0,151.0,169.0,-202.0,-202.0
4112,72,-206,0,4083.0,4058.0,117.0,151.0,-202.0,-202.0
4145,23,-208,0,4112.0,4083.0,72.0,117.0,-206.0,-202.0
4175,-31,-224,0,4145.0,4112.0,23.0,72.0,-208.0,-206.0
4202,-80,-239,0,4175.0,4145.0,-31.0,23.0,-224.0,-208.0
4229,-136,-248,0,4202.0,4175.0,-80.0,-31.0,-239.0,-224.0
4251,-185,-256,0,4229.0,4202.0,-136.0,-80.0,-248.0,-239.0
4272,-221,-260,0,4251.0,4229.0,-185.0,-136.0,-256.0,-248.0
4285,-247,-265,0,4272.0,4251.0,-221.0,-185.0,-260.0,-256.0
4292,-263,-268,0,4285.0,4272.0,-247.0,-221.0,-265.0,-260.0
4291,-267,-268,0,4292.0,4285.0,-263.0,-247.0,-268.0,-265.0
4289,-257,-262,0,4291.0,4292.0,-267.0,-263.0,-268.0,-268.0
4278,-235,-246,0,4289.0,4291.0,-257.0,-267.0,-262.0,-268.0
4270,-211,-225,0,4278.0,4289.0,-235.0,-257.0,-246.0,-262.0
4254,-187,-201,0,4270.0,4278.0,-211.0,-235.0,-225.0,-246.0
4240,-164,-175,0,4254.0,4270.0,-187.0,-211.0,-201.0,-225.0
4223,-147,-159,0,4240.0,4254.0,-164.0,-187.0,-175.0,-201.0
4207,-143,-147,0,4223.0,4240.0,-147.0,-164.0,-159.0,-175.0
4183,-151,-145,0,4207.0,4223.0,-143.0,-147.0,-147.0,-159.0
4155,-164,-157,0,4183.0,4207.0,-151.0,-143.0,-145.0,-147.0
4112,-191,-200,0,4155.0,4183.0,-164.0,-151.0,-157.0,-145.0
4046,-219,-249,0,4112.0,4155.0,-191.0,-164.0,-200.0,-157.0
3980,-220,-273,0,4046.0,4112.0,-219.0,-191.0,-249.0,-200.0
3909,-196,-280,0,3980.0,4046.0,-220.0,-219.0,-273.0,-249.0
3836,-162,-283,0,3909.0,3980.0,-196.0,-220.0,-280.0,-273.0
3783,-122,-265,0,3836.0,3909.0,-162.0,-196.0,-283.0,-280.0
3757,-78,-213,0,3783.0,3836.0,-122.0,-162.0,-265.0,-283.0
3762,-37,-139,0,3757.0,3783.0,-78.0,-122.0,-213.0,-265.0
3788,-3,-77,0,3762.0,3757.0,-37.0,-78.0,-139.0,-213.0
3807,22,-65,0,3788.0,3762.0,-3.0,-37.0,-77.0,-139.0
3825,21,-102,0,3807.0,3788.0,22.0,-3.0,-65.0,-77.0
3823,8,-171,0,3825.0,3807.0,21.0,22.0,-102.0,-65.0
3806,-10,-261,0,3823.0,3825.0,8.0,21.0,-171.0,-102.0
3777,-28,-345,0,3806.0,3823.0,-10.0,8.0,-261.0,-171.0
3750,-32,-388,0,3777.0,3806.0,-28.0,-10.0,-345.0,-261.0
3731,-24,-392,0,3750.0,3777.0,-32.0,-28.0,-388.0,-345.0
3725,-12,-371,0,3731.0,3750.0,-24.0,-32.0,-392.0,-388.0
3746,-7,-333,0,3725.0,3731.0,-12.0,-24.0,-371.0,-392.0
3787,-7,-262,0,3746.0,3725.0,-7.0,-12.0,-333.0,-371.0
3847,-16,-171,0,3787.0,3746.0,-7.0,-7.0,-262.0,-333.0
3911,-32,-82,0,3847.0,3787.0,-16.0,-7.0,-171.0,-262.0
3970,-63,-20,0,3911.0,3847.0,-32.0,-16.0,-82.0,-171.0
4014,-104,14,0,3970.0,3911.0,-63.0,-32.0,-20.0,-82.0
4034,-169,-1,0,4014.0,3970.0,-104.0,-63.0,14.0,-20.0
4039,-266,-68,0,4034.0,4014.0,-169.0,-104.0,-1.0,14.0
4031,-358,-124,0,4039.0,4034.0,-266.0,-169.0,-68.0,-1.0
4030,-413,-121,0,4031.0,4039.0,-358.0,-266.0,-124.0,-68.0
4033,-440,-79,0,4030.0,4031.0,-413.0,-358.0,-121.0,-124.0
4036,-455,-36,0,4033.0,4030.0,-440.0,-413.0,-79.0,-121.0
4039,-458,7,0,4036.0,4033.0,-455.0,-440.0,-36.0,-79.0
4042,-453,59,0,4039.0,4036.0,-458.0,-455.0,7.0,-36.0
4049,-452,92,0,4042.0,4039.0,-453.0,-458.0,59.0,7.0
4061,-463,106,0,4049.0,4042.0,-452.0,-453.0,92.0,59.0
4063,-492,76,0,4061.0,4049.0,-463.0,-452.0,106.0,92.0
4067,-518,48,0,4063.0,4061.0,-492.0,-463.0,76.0,106.0
4082,-515,59,0,4067.0,4063.0,-518.0,-492.0,48.0,76.0
4092,-480,91,0,4082.0,4067.0,-515.0,-518.0,59.0,48.0
4108,-429,123,0,4092.0,4082.0,-480.0,-515.0,91.0,59.0
4129,-385,145,0,4108.0,4092.0,-429.0,-480.0,123.0,91.0
4152,-349,155,0,4129.0,4108.0,-385.0,-429.0,145.0,123.0
4171,-326,142,0,4152.0,4129.0,-349.0,-385.0,155.0,145.0
4189,-317,117,0,4171.0,4152.0,-326.0,-349.0,142.0,155.0
4197,-299,98,0,4189.0,4171.0,-317.0,-326.0,117.0,142.0
4199,-283,94,0,4197.0,4189.0,-299.0,-317.0,98.0,117.0
4188,-266,80,0,4199.0,4197.0,-283.0,-299.0,94.0,98.0
4171,-251,68,0,4188.0,4199.0,-266.0,-283.0,80.0,94.0
4157,-228,56,0,4171.0,4188.0,-251.0,-266.0,68.0,80.0
4132,-202,33,0,4157.0,4171.0,-228.0,-251.0,56.0,68.0
4108,-186,6,0,4132.0,4157.0,-202.0,-228.0,33.0,56.0
4081,-168,-14,0,4108.0,4132.0,-186.0,-202.0,6.0,33.0
4061,-149,-11,0,4081.0,4108.0,-168.0,-186.0,-14.0,6.0
4043,-149,28,0,4061.0,4081.0,-149.0,-168.0,-11.0,-14.0
4018,-153,18,0,4043.0,4061.0,-149.0,-149.0,28.0,-11.0
3997,-165,2,0,4018.0,4043.0,-153.0,-149.0,18.0,28.0
3979,-191,7,0,3997.0,4018.0,-165.0,-153.0,2.0,18.0
3972,-221,41,0,3979.0,3997.0,-191.0,-165.0,7.0,2.0
3970,-244,100,0,3972.0,3979.0,-221.0,-191.0,41.0,7.0
3971,-269,144,0,3970.0,3972.0,-244.0,-221.0,100.0,41.0
3965,-314,187,0,3971.0,3970.0,-269.0,-244.0,144.0,100.0
3951,-353,195,0,3965.0,3971.0,-314.0,-269.0,187.0,144.0
3929,-379,192,0,3951.0,3965.0,-353.0,-314.0,195.0,187.0
3899,-399,194,0,3929.0,3951.0,-379.0,-353.0,192.0,195.0
3872,-410,209,0,3899.0,3929.0,-399.0,-379.0,194.0,192.0
3842,-415,225,0,3872.0,3899.0,-410.0,-399.0,209.0,194.0
3807,-416,229,0,3842.0,3872.0,-415.0,-410.0,225.0,209.0
3780,-390,246,0,3807.0,3842.0,-416.0,-415.0,229.0,225.0
3768,-344,291,0,3780.0,3807.0,-390.0,-416.0,246.0,229.0
3759,-279,336,0,3768.0,3780.0,-344.0,-390.0,291.0,246.0
3747,-189,367,0,3759.0,3768.0,-279.0,-344.0,336.0,291.0
3724,-98,365,0,3747.0,3759.0,-189.0,-279.0,367.0,336.0
3688,-11,329,0,3724.0,3747.0,-98.0,-189.0,365.0,367.0
3641,72,275,0,3688.0,3724.0,-11.0,-98.0,329.0,365.0
3592,151,225,0,3641.0,3688.0,72.0,-11.0,275.0,329.0
3557,220,192,0,3592.0,3641.0,151.0,72.0,225.0,275.0
3537,289,177,0,3557.0,3592.0,220.0,151.0,192.0,225.0
3535,352,180,0,3537.0,3557.0,289.0,220.0,177.0,192.0
3550,389,169,0,3535.0,3537.0,352.0,289.0,180.0,177.0
3583,390,149,0,3550.0,3535.0,389.0,352.0,169.0,180.0
3635,375,139,0,3583.0,3550.0,390.0,389.0,149.0,169.0
3704,356,146,0,3635.0,3583.0,375.0,390.0,139.0,149.0
3784,333,157,0,3704.0,3635.0,356.0,375.0,146.0,139.0
3860,297,140,0,3784.0,3704.0,333.0,356.0,157.0,146.0
3929,250,90,0,3860.0,3784.0,297.0,333.0,140.0,157.0
3984,195,18,0,3929.0,3860.0,250.0,297.0,90.0,140.0
4023,141,-66,0,3984.0,3929.0,195.0,250.0,18.0,90.0
4057,99,-120,0,4023.0,3984.0,141.0,195.0,-66.0,18.0
4097,77,-132,0,4057.0,4023.0,99.0,141.0,-120.0,-66.0
4156,64,-136,0,4097.0,4057.0,77.0,99.0,-132.0,-120.0
4236,51,-188,0,4156.0,4097.0,64.0,77.0,-136.0,-132.0
4332,15,-305,0,4236.0,4156.0,51.0,64.0,-188.0,-136.0
4456,-57,-476,0,4332.0,4236.0,15.0,51.0,-305.0,-188.0
4605,-158,-668,0,4456.0,4332.0,-57.0,15.0,-476.0,-305.0
4783,-276,-830,0,4605.0,4456.0,-158.0,-57.0,-668.0,-476.0
4983,-390,-922,0,4783.0,4605.0,-276.0,-158.0,-830.0,-668.0
5186,-475,-921,0,4983.0,4783.0,-390.0,-276.0,-922.0,-830.0
5393,-503,-801,0,5186.0,4983.0,-475.0,-390.0,-921.0,-922.0
5570,-493,-622,0,5393.0,5186.0,-503.0,-475.0,-801.0,-921.0
5699,-488,-456,0,5570.0,5393.0,-493.0,-503.0,-622.0,-801.0
5744,-529,-362,0,5699.0,5570.0,-488.0,-493.0,-456.0,-622.0
5671,-608,-358,0,5744.0,5699.0,-529.0,-488.0,-362.0,-456.0
5488,-699,-398,0,5671.0,5744.0,-608.0,-529.0,-358.0,-362.0
5224,-748,-399,0,5488.0,5671.0,-699.0,-608.0,-398.0,-358.0
4914,-756,-370,0,5224.0,5488.0,-748.0,-699.0,-399.0,-398.0
4584,-735,-356,0,4914.0,5224.0,-756.0,-748.0,-370.0,-399.0
4270,-715,-355,0,4584.0,4914.0,-735.0,-756.0,-356.0,-370.0
3991,-704,-336,0,4270.0,4584.0,-715.0,-735.0,-355.0,-356.0
3750,-711,-312,0,3991.0,4270.0,-704.0,-715.0,-336.0,-355.0
3546,-715,-297,0,3750.0,3991.0,-711.0,-704.0,-312.0,-336.0
3372,-722,-305,0,3546.0,3750.0,-715.0,-711.0,-297.0,-312.0
3236,-731,-333,0,3372.0,3546.0,-722.0,-715.0,-305.0,-297.0
3146,-744,-356,0,3236.0,3372.0,-731.0,-722.0,-333.0,-305.0
3103,-755,-393,0,3146.0,3236.0,-744.0,-731.0,-356.0,-333.0
3101,-774,-442,0,3103.0,3146.0,-755.0,-744.0,-393.0,-356.0
3139,-798,-495,0,3101.0,3103.0,-774.0,-755.0,-442.0,-393.0
3201,-819,-552,0,3139.0,3101.0,-798.0,-774.0,-495.0,-442.0
3281,-840,-616,0,3201.0,3139.0,-819.0,-798.0,-552.0,-495.0
3374,-861,-672,0,3281.0,3201.0,-840.0,-819.0,-616.0,-552.0
3483,-892,-713,0,3374.0,3281.0,-861.0,-840.0,-672.0,-616.0
3604,-920,-740,0,3483.0,3374.0,-892.0,-861.0,-713.0,-672.0
3736,-944,-738,0,3604.0,3483.0,-920.0,-892.0,-740.0,-713.0
3866,-957,-735,0,3736.0,3604.0,-944.0,-920.0,-738.0,-740.0
3983,-964,-723,0,3866.0,3736.0,-957.0,-944.0,-735.0,-738.0
4077,-959,-688,0,3983.0,3866.0,-964.0,-957.0,-723.0,-735.0
4150,-959,-684,0,4077.0,3983.0,-959.0,-964.0,-688.0,-723.0
4207,-972,-680,0,4150.0,4077.0,-959.0,-959.0,-684.0,-688.0
4239,-974,-670,0,4207.0,4150.0,-972.0,-959.0,-680.0,-684.0
4243,-970,-681,0,4239.0,4207.0,-974.0,-972.0,-670.0,-680.0
4225,-960,-709,0,4243.0,4239.0,-970.0,-974.0,-681.0,-670.0
4202,-939,-724,0,4225.0,4243.0,-960.0,-970.0,-709.0,-681.0
4166,-916,-707,0,4202.0,4225.0,-939.0,-960.0,-724.0,-709.0
4133,-895,-681,0,4166.0,4202.0,-916.0,-939.0,-707.0,-724.0
4099,-880,-659,0,4133.0,4166.0,-895.0,-916.0,-681.0,-707.0
4051,-868,-641,0,4099.0,4133.0,-880.0,-895.0,-659.0,-681.0
3987,-872,-645,0,4051.0,4099.0,-868.0,-880.0,-641.0,-659.0
3920,-888,-653,0,3987.0,4051.0,-872.0,-868.0,-645.0,-641.0
3863,-901,-657,0,3920.0,3987.0,-888.0,-872.0,-653.0,-645.0
3811,-904,-654,0,3863.0,3920.0,-901.0,-888.0,-657.0,-653.0
3763,-895,-656,0,3811.0,3863.0,-904.0,-901.0,-654.0,-657.0
3726,-887,-670,0,3763.0,3811.0,-895.0,-904.0,-656.0,-654.0
3697,-869,-692,0,3726.0,3763.0,-887.0,-895.0,-670.0,-656.0
3680,-844,-715,0,3697.0,3726.0,-869.0,-887.0,-692.0,-670.0
3668,-806,-749,0,3680.0,3697.0,-844.0,-869.0,-715.0,-692.0
3657,-754,-791,0,3668.0,3680.0,-806.0,-844.0,-749.0,-715.0
3646,-688,-844,0,3657.0,3668.0,-754.0,-806.0,-791.0,-749.0
3641,-608,-896,0,3646.0,3657.0,-688.0,-754.0,-844.0,-791.0
3649,-523,-917,0,3641.0,3646.0,-608.0,-688.0,-896.0,-844.0
3671,-442,-915,0,3649.0,3641.0,-523.0,-608.0,-917.0,-896.0
3702,-370,-893,0,3671.0,3649.0,-442.0,-523.0,-915.0,-917.0
3738,-307,-859,0,3702.0,3671.0,-370.0,-442.0,-893.0,-915.0
3780,-265,-826,0,3738.0,3702.0,-307.0,-370.0,-859.0,-893.0
3825,-249,-790,0,3780.0,3738.0,-265.0,-307.0,-826.0,-859.0
3874,-252,-746,0,3825.0,3780.0,-249.0,-265.0,-790.0,-826.0
3918,-276,-703,0,3874.0,3825.0,-252.0,-249.0,-746.0,-790.0
3962,-313,-669,0,3918.0,3874.0,-276.0,-252.0,-703.0,-746.0
4001,-352,-649,0,3962.0,3918.0,-313.0,-276.0,-669.0,-703.0
4039,-396,-629,0,4001.0,3962.0,-352.0,-313.0,-649.0,-669.0
4071,-433,-593,0,4039.0,4001.0,-396.0,-352.0,-629.0,-649.0
4108,-470,-568,0,4071.0,4039.0,-433.0,-396.0,-593.0,-629.0
4142,-499,-563,0,4108.0,4071.0,-470.0,-433.0,-568.0,-593.0
4164,-512,-573,0,4142.0,4108.0,-499.0,-470.0,-563.0,-568.0
4184,-502,-578,0,4164.0,4142.0,-512.0,-499.0,-573.0,-563.0
4208,-463,-590,0,4184.0,4164.0,-502.0,-512.0,-578.0,-573.0
4223,-418,-616,0,4208.0,4184.0,-463.0,-502.0,-590.0,-578.0
4237,-375,-646,0,4223.0,4208.0,-418.0,-463.0,-616.0,-590.0
4245,-344,-669,0,4237.0,4223.0,-375.0,-418.0,-646.0,-616.0
4252,-333,-686,0,4245.0,4237.0,-344.0,-375.0,-669.0,-646.0
4251,-331,-681,0,4252.0,4245.0,-333.0,-344.0,-686.0,-669.0
4241,-336,-666,0,4251.0,4252.0,-331.0,-333.0,-681.0,-686.0
4215,-360,-655,0,4241.0,4251.0,-336.0,-331.0,-666.0,-681.0
4179,-393,-642,0,4215.0,4241.0,-360.0,-336.0,-655.0,-666.0
4140,-435,-623,0,4179.0,4215.0,-393.0,-360.0,-642.0,-655.0
4098,-483,-586,0,4140.0,4179.0,-435.0,-393.0,-623.0,-642.0
4059,-533,-531,0,4098.0,4140.0,-483.0,-435.0,-586.0,-623.0
4026,-583,-471,0,4059.0,4098.0,-533.0,-483.0,-531.0,-586.0
3986,-630,-426,0,4026.0,4059.0,-583.0,-533.0,-471.0,-531.0
3950,-694,-418,0,3986.0,4026.0,-630.0,-583.0,-426.0,-471.0
3902,-759,-438,0,3950.0,3986.0,-694.0,-630.0,-418.0,-426.0
3850,-805,-462,0,3902.0,3950.0,-759.0,-694.0,-438.0,-418.0
3797,-836,-475,0,3850.0,3902.0,-805.0,-759.0,-462.0,-438.0
3748,-828,-473,0,3797.0,3850.0,-836.0,-805.0,-475.0,-462.0
3711,-798,-435,0,3748.0,3797.0,-828.0,-836.0,-473.0,-475.0
3686,-754,-387,0,3711.0,3748.0,-798.0,-828.0,-435.0,-473.0
3684,-712,-326,0,3686.0,3711.0,-754.0,-798.0,-387.0,-435.0
3699,-662,-270,0,3684.0,3686.0,-712.0,-754.0,-326.0,-387.0
3721,-629,-238,0,3699.0,3684.0,-662.0,-712.0,-270.0,-326.0
3746,-607,-259,0,3721.0,3699.0,-629.0,-662.0,-238.0,-270.0
3764,-587,-312,0,3746.0,3721.0,-607.0,-629.0,-259.0,-238.0
3789,-559,-348,0,3764.0,3746.0,-587.0,-607.0,-312.0,-259.0
3832,-509,-353,0,3789.0,3764.0,-559.0,-587.0,-348.0,-312.0
3885,-446,-338,0,3832.0,3789.0,-509.0,-559.0,-353.0,-348.0
3932,-379,-329,0,3885.0,3832.0,-446.0,-509.0,-338.0,-353.0
3976,-315,-338,0,3932.0,3885.0,-379.0,-446.0,-329.0,-338.0
4019,-265,-359,0,3976.0,3932.0,-315.0,-379.0,-338.0,-329.0
4051,-224,-379,0,4019.0,3976.0,-265.0,-315.0,-359.0,-338.0
4076,-189,-383,0,4051.0,4019.0,-224.0,-265.0,-379.0,-359.0
4110,-164,-373,0,4076.0,4051.0,-189.0,-224.0,-383.0,-379.0
4143,-140,-354,0,4110.0,4076.0,-164.0,-189.0,-373.0,-383.0
4167,-128,-336,0,4143.0,4110.0,-140.0,-164.0,-354.0,-373.0
4183,-121,-329,0,4167.0,4143.0,-128.0,-140.0,-336.0,-354.0
4187,-121,-325,0,4183.0,4167.0,-121.0,-128.0,-329.0,-336.0
4177,-126,-319,0,4187.0,4183.0,-121.0,-121.0,-325.0,-329.0
4159,-138,-313,0,4177.0,4187.0,-126.0,-121.0,-319.0,-325.0
4131,-150,-308,0,4159.0,4177.0,-138.0,-126.0,-313.0,-319.0
4102,-161,-298,0,4131.0,4159.0,-150.0,-138.0,-308.0,-313.0
4066,-169,-276,0,4102.0,4131.0,-161.0,-150.0,-298.0,-308.0
4032,-177,-255,0,4066.0,4102.0,-169.0,-161.0,-276.0,-298.0
3998,-189,-239,0,4032.0,4066.0,-177.0,-169.0,-255.0,-276.0
3967,-199,-232,0,3998.0,4032.0,-189.0,-177.0,-239.0,-255.0
3937,-211,-226,0,3967.0,3998.0,-199.0,-189.0,-232.0,-239.0
3916,-225,-222,0,3937.0,3967.0,-211.0,-199.0,-226.0,-232.0
3900,-236,-207,0,3916.0,3937.0,-225.0,-211.0,-222.0,-226.0
3894,-238,-192,0,3900.0,3916.0,-236.0,-225.0,-207.0,-222.0
3894,-235,-172,0,3894.0,3900.0,-238.0,-236.0,-192.0,-207.0
3894,-235,-165,0,3894.0,3894.0,-235.0,-238.0,-172.0,-192.0
3897,-237,-167,0,3894.0,3894.0,-235.0,-235.0,-165.0,-172.0
3901,-240,-174,0,3897.0,3894.0,-237.0,-235.0,-167.0,-165.0
3904,-237,-189,0,3901.0,3897.0,-240.0,-237.0,-174.0,-167.0
3899,-232,-204,0,3904.0,3901.0,-237.0,-240.0,-189.0,-174.0
3905,-216,-198,0,3899.0,3904.0,-232.0,-237.0,-204.0,-189.0
3913,-205,-191,0,3905.0,3899.0,-216.0,-232.0,-198.0,-204.0
3922,-198,-193,0,3913.0,3905.0,-205.0,-216.0,-191.0,-198.0
3938,-195,-192,0,3922.0,3913.0,-198.0,-205.0,-193.0,-191.0
3956,-204,-186,0,3938.0,3922.0,-195.0,-198.0,-192.0,-193.0
3967,-215,-182,0,3956.0,3938.0,-204.0,-195.0,-186.0,-192.0
3985,-221,-175,0,3967.0,3956.0,-215.0,-204.0,-182.0,-186.0
4008,-229,-163,0,3985.0,3967.0,-221.0,-215.0,-175.0,-182.0
4026,-241,-145,0,4008.0,3985.0,-229.0,-221.0,-163.0,-175.0
4035,-260,-132,0,4026.0,4008.0,-241.0,-229.0,-145.0,-163.0
4033,-277,-132,0,4035.0,4026.0,-260.0,-241.0,-132.0,-145.0
4021,-298,-137,0,4033.0,4035.0,-277.0,-260.0,-132.0,-132.0
4004,-325,-139,0,4021.0,4033.0,-298.0,-277.0,-137.0,-132.0
3982,-354,-146,0,4004.0,4021.0,-325.0,-298.0,-139.0,-137.0
3959,-386,-154,0,3982.0,4004.0,-354.0,-325.0,-146.0,-139.0
3934,-417,-168,0,3959.0,3982.0,-386.0,-354.0,-154.0,-146.0
3909,-444,-187,0,3934.0,3959.0,-417.0,-386.0,-168.0,-154.0
3886,-462,-209,0,3909.0,3934.0,-444.0,-417.0,-187.0,-168.0
3876,-469,-230,0,3886.0,3909.0,-462.0,-444.0,-209.0,-187.0
3869,-461,-242,0,3876.0,3886.0,-469.0,-462.0,-230.0,-209.0
3873,-433,-251,0,3869.0,3876.0,-461.0,-469.0,-242.0,-230.0
3880,-384,-252,0,3873.0,3869.0,-433.0,-461.0,-251.0,-242.0
3895,-324,-258,0,3880.0,3873.0,-384.0,-433.0,-252.0,-251.0
3916,-260,-270,0,3895.0,3880.0,-324.0,-384.0,-258.0,-252.0
3936,-193,-271,0,3916.0,3895.0,-260.0,-324.0,-270.0,-258.0
3950,-125,-278,0,3936.0,3916.0,-193.0,-260.0,-271.0,-270.0
3961,-61,-280,0,3950.0,3936.0,-125.0,-193.0,-278.0,-271.0
3969,-9,-288,0,3961.0,3950.0,-61.0,-125.0,-280.0,-278.0
3974,28,-300,0,3969.0,3961.0,-9.0,-61.0,-288.0,-280.0
3977,49,-305,0,3974.0,3969.0,28.0,-9.0,-300.0,-288.0
3978,58,-296,0,3977.0,3974.0,49.0,28.0,-305.0,-300.0
3979,64,-273,0,3978.0,3977.0,58.0,49.0,-296.0,-305.0
3978,63,-245,0,3979.0,3978.0,64.0,58.0,-273.0,-296.0
3970,59,-222,0,3978.0,3979.0,63.0,64.0,-245.0,-273.0
3965,50,-206,0,3970.0,3978.0,59.0,63.0,-222.0,-245.0
3955,40,-198,0,3965.0,3970.0,50.0,59.0,-206.0,-222.0
3949,29,-185,0,3955.0,3965.0,40.0,50.0,-198.0,-206.0
3945,26,-165,0,3949.0,3955.0,29.0,40.0,-185.0,-198.0
3942,26,-142,0,3945.0,3949.0,26.0,29.0,-165.0,-185.0
3943,20,-119,0,3942.0,3945.0,26.0,26.0,-142.0,-165.0
3945,8,-109,0,3943.0,3942.0,20.0,26.0,-119.0,-142.0
3944,-9,-105,0,3945.0,3943.0,8.0,20.0,-109.0,-119.0
3945,-37,-106,0,3944.0,3945.0,-9.0,8.0,-105.0,-109.0
3944,-64,-118,0,3945.0,3944.0,-37.0,-9.0,-106.0,-105.0
3936,-86,-149,0,3944.0,3945.0,-64.0,-37.0,-118.0,-106.0
3922,-98,-203,0,3936.0,3944.0,-86.0,-64.0,-149.0,-118.0
3909,-111,-263,0,3922.0,3936.0,-98.0,-86.0,-203.0,-149.0
3911,-113,-320,0,3909.0,3922.0,-111.0,-98.0,-263.0,-203.0
3921,-109,-362,0,3911.0,3909.0,-113.0,-111.0,-320.0,-263.0
3940,-110,-412,0,3921.0,3911.0,-109.0,-113.0,-362.0,-320.0
3958,-120,-478,0,3940.0,3921.0,-110.0,-109.0,-412.0,-362.0
3972,-141,-568,0,3958.0,3940.0,-120.0,-110.0,-478.0,-412.0
3986,-162,-659,0,3972.0,3958.0,-141.0,-120.0,-568.0,-478.0
4005,-174,-729,0,3986.0,3972.0,-162.0,-141.0,-659.0,-568.0
4028,-159,-783,0,4005.0,3986.0,-174.0,-162.0,-729.0,-659.0
4036,-117,-824,0,4028.0,4005.0,-159.0,-174.0,-783.0,-729.0
4043,-53,-823,0,4036.0,4028.0,-117.0,-159.0,-824.0,-783.0
4045,41,-801,0,4043.0,4036.0,-53.0,-117.0,-823.0,-824.0
4055,157,-746,0,4045.0,4043.0,41.0,-53.0,-801.0,-823.0
4078,278,-659,0,4055.0,4045.0,157.0,41.0,-746.0,-801.0
4127,375,-569,0,4078.0,4055.0,278.0,157.0,-659.0,-746.0
4221,450,-493,0,4127.0,4078.0,375.0,278.0,-569.0,-659.0
4365,481,-446,0,4221.0,4127.0,450.0,375.0,-493.0,-569.0
4559,467,-424,0,4365.0,4221.0,481.0,450.0,-446.0,-493.0
4792,416,-428,0,4559.0,4365.0,467.0,481.0,-424.0,-446.0
5042,341,-466,0,4792.0,4559.0,416.0,467.0,-428.0,-424.0
5277,256,-542,0,5042.0,4792.0,341.0,416.0,-466.0,-428.0
5486,167,-649,0,5277.0,5042.0,256.0,341.0,-542.0,-466.0
5657,72,-761,0,5486.0,5277.0,167.0,256.0,-649.0,-542.0
5790,-43,-857,0,5657.0,5486.0,72.0,167.0,-761.0,-649.0
5884,-182,-933,0,5790.0,5657.0,-43.0,72.0,-857.0,-761.0
5940,-349,-979,0,5884.0,5790.0,-182.0,-43.0,-933.0,-857.0
5948,-534,-1007,0,5940.0,5884.0,-349.0,-182.0,-979.0,-933.0
5919,-727,-1017,0,5948.0,5940.0,-534.0,-349.0,-1007.0,-979.0
5846,-925,-1007,0,5919.0,5948.0,-727.0,-534.0,-1017.0,-1007.0
5727,-1099,-977,0,5846.0,5919.0,-925.0,-727.0,-1007.0,-1017.0
5555,-1230,-915,0,5727.0,5846.0,-1099.0,-925.0,-977.0,-1007.0
5330,-1296,-841,0,5555.0,5727.0,-1230.0,-1099.0,-915.0,-977.0
5077,-1304,-772,0,5330.0,5555.0,-1296.0,-1230.0,-841.0,-915.0
4813,-1270,-729,0,5077.0,5330.0,-1304.0,-1296.0,-772.0,-841.0
4555,-1206,-711,0,4813.0,5077.0,-1270.0,-1304.0,-729.0,-772.0
4323,-1123,-719,0,4555.0,4813.0,-1206.0,-1270.0,-711.0,-729.0
4111,-1038,-735,0,4323.0,4555.0,-1123.0,-1206.0,-719.0,-711.0
3934,-954,-748,0,4111.0,4323.0,-1038.0,-1123.0,-735.0,-719.0
3790,-887,-754,0,3934.0,4111.0,-954.0,-1038.0,-748.0,-735.0
3676,-841,-747,0,3790.0,3934.0,-887.0,-954.0,-754.0,-748.0
3584,-807,-718,0,3676.0,3790.0,-841.0,-887.0,-747.0,-754.0
3514,-791,-673,0,3584.0,3676.0,-807.0,-841.0,-718.0,-747.0
3463,-788,-617,0,3514.0,3584.0,-791.0,-807.0,-673.0,-718.0
3424,-796,-548,0,3463.0,3514.0,-788.0,-791.0,-617.0,-673.0
3403,-811,-466,0,3424.0,3463.0,-796.0,-788.0,-548.0,-617.0
3391,-826,-383,0,3403.0,3424.0,-811.0,-796.0,-466.0,-548.0
3396,-835,-305,0,3391.0,3403.0,-826.0,-811.0,-383.0,-466.0
3416,-837,-238,0,3396.0,3391.0,-835.0,-826.0,-305.0,-383.0
3441,-830,-191,0,3416.0,3396.0,-837.0,-835.0,-238.0,-305.0
3471,-825,-156,0,3441.0,3416.0,-830.0,-837.0,-191.0,-238.0
3508,-820,-134,0,3471.0,3441.0,-825.0,-830.0,-156.0,-191.0
3560,-810,-133,0,3508.0,3471.0,-820.0,-825.0,-134.0,-156.0
3632,-793,-137,0,3560.0,3508.0,-810.0,-820.0,-133.0,-134.0
3721,-773,-144,0,3632.0,3560.0,-793.0,-810.0,-137.0,-133.0
3829,-736,-148,0,3721.0,3632.0,-773.0,-793.0,-144.0,-137.0
3964,-686,-140,0,3829.0,3721.0,-736.0,-773.0,-148.0,-144.0
4115,-633,-107,0,3964.0,3829.0,-686.0,-736.0,-140.0,-148.0
4277,-581,-52,0,4115.0,3964.0,-633.0,-686.0,-107.0,-140.0
4434,-524,-11,0,4277.0,4115.0,-581.0,-633.0,-52.0,-107.0
4573,-456,10,0,4434.0,4277.0,-524.0,-581.0,-11.0,-52.0
4690,-384,24,0,4573.0,4434.0,-456.0,-524.0,10.0,-11.0
4787,-318,30,0,4690.0,4573.0,-384.0,-456.0,24.0,10.0
4863,-262,34,0,4787.0,4690.0,-318.0,-384.0,30.0,24.0
4919,-233,37,0,4863.0,4787.0,-262.0,-318.0,34.0,30.0
4945,-229,29,0,4919.0,4863.0,-233.0,-262.0,37.0,34.0
4941,-256,16,0,4945.0,4919.0,-229.0,-233.0,29.0,37.0
4904,-300,-2,0,4941.0,4945.0,-256.0,-229.0,16.0,29.0
4844,-355,-11,0,4904.0,4941.0,-300.0,-256.0,-2.0,16.0
4757,-401,-18,0,4844.0,4904.0,-355.0,-300.0,-11.0,-2.0
4647,-441,-17,0,4757.0,4844.0,-401.0,-355.0,-18.0,-11.0
4513,-481,-24,0,4647.0,4757.0,-441.0,-401.0,-17.0,-18.0
4363,-514,-36,0,4513.0,4647.0,-481.0,-441.0,-24.0,-17.0
4218,-543,-41,0,4363.0,4513.0,-514.0,-481.0,-36.0,-24.0
4078,-564,-22,0,4218.0,4363.0,-543.0,-514.0,-41.0,-36.0
3959,-573,16,0,4078.0,4218.0,-564.0,-543.0,-22.0,-41.0
3855,-581,56,0,3959.0,4078.0,-573.0,-564.0,16.0,-22.0
3760,-590,95,0,3855.0,3959.0,-581.0,-573.0,56.0,16.0
3670,-591,119,0,3760.0,3855.0,-590.0,-581.0,95.0,56.0
3594,-590,137,0,3670.0,3760.0,-591.0,-590.0,119.0,95.0
3530,-579,149,0,3594.0,3670.0,-590.0,-591.0,137.0,119.0
3479,-552,163,0,3530.0,3594.0,-579.0,-590.0,149.0,137.0
3440,-527,187,0,3479.0,3530.0,-552.0,-579.0,163.0,149.0
3413,-500,231,0,3440.0,3479.0,-527.0,-552.0,187.0,163.0
3390,-468,262,0,3413.0,3440.0,-500.0,-527.0,231.0,187.0
3372,-438,290,0,3390.0,3413.0,-468.0,-500.0,262.0,231.0
3365,-410,322,0,3372.0,3390.0,-438.0,-468.0,290.0,262.0
3364,-386,358,0,3365.0,3372.0,-410.0,-438.0,322.0,290.0
3375,-370,387,0,3364.0,3365.0,-386.0,-410.0,358.0,322.0
3391,-360,410,0,3375.0,3364.0,-370.0,-386.0,387.0,358.0
3409,-363,417,0,3391.0,3375.0,-360.0,-370.0,410.0,387.0
3434,-372,420,0,3409.0,3391.0,-363.0,-360.0,417.0,410.0
3465,-387,422,0,3434.0,3409.0,-372.0,-363.0,420.0,417.0
3501,-403,426,0,3465.0,3434.0,-387.0,-372.0,422.0,420.0
3542,-416,430,0,3501.0,3465.0,-403.0,-387.0,426.0,422.0
3588,-426,441,0,3542.0,3501.0,-416.0,-403.0,430.0,426.0
3633,-443,444,0,3588.0,3542.0,-426.0,-416.0,441.0,430.0
3675,-452,452,0,3633.0,3588.0,-443.0,-426.0,444.0,441.0
3716,-458,457,0,3675.0,3633.0,-452.0,-443.0,452.0,444.0
3753,-460,460,0,3716.0,3675.0,-458.0,-452.0,457.0,452.0
3782,-452,467,0,3753.0,3716.0,-460.0,-458.0,460.0,457.0
3804,-436,473,0,3782.0,3753.0,-452.0,-460.0,467.0,460.0
3819,-429,473,0,3804.0,3782.0,-436.0,-452.0,473.0,467.0
3830,-427,464,0,3819.0,3804.0,-429.0,-436.0,473.0,473.0
3830,-427,448,0,3830.0,3819.0,-427.0,-429.0,464.0,473.0
3821,-420,446,0,3830.0,3830.0,-427.0,-427.0,448.0,464.0
3811,-411,448,0,3821.0,3830.0,-420.0,-427.0,446.0,448.0
3802,-396,462,0,3811.0,3821.0,-411.0,-420.0,448.0,446.0
3784,-377,475,0,3802.0,3811.0,-396.0,-411.0,462.0,448.0
3766,-356,495,0,3784.0,3802.0,-377.0,-396.0,475.0,462.0
3748,-341,516,0,3766.0,3784.0,-356.0,-377.0,495.0,475.0
3717,-327,526,0,3748.0,3766.0,-341.0,-356.0,516.0,495.0
3684,-314,527,0,3717.0,3748.0,-327.0,-341.0,526.0,516.0
3647,-304,527,0,3684.0,3717.0,-314.0,-327.0,527.0,526.0
3609,-302,517,0,3647.0,3684.0,-304.0,-314.0,527.0,527.0
3580,-305,519,0,3609.0,3647.0,-302.0,-304.0,517.0,527.0
3555,-318,516,0,3580.0,3609.0,-305.0,-302.0,519.0,517.0
3538,-333,510,0,3555.0,3580.0,-318.0,-305.0,516.0,519.0
3525,-354,506,0,3538.0,3555.0,-333.0,-318.0,510.0,516.0
3518,-371,503,0,3525.0,3538.0,-354.0,-333.0,506.0,510.0
3516,-376,498,0,3518.0,3525.0,-371.0,-354.0,503.0,506.0
3517,-373,497,0,3516.0,3518.0,-376.0,-371.0,498.0,503.0
3526,-373,495,0,3517.0,3516.0,-373.0,-376.0,497.0,498.0
3540,-361,500,0,3526.0,3517.0,-373.0,-373.0,495.0,497.0
3551,-346,511,0,3540.0,3526.0,-361.0,-373.0,500.0,495.0
3563,-329,517,0,3551.0,3540.0,-346.0,-361.0,511.0,500.0
3572,-312,519,0,3563.0,3551.0,-329.0,-346.0,517.0,511.0
3578,-298,521,0,3572.0,3563.0,-312.0,-329.0,519.0,517.0
3593,-287,533,0,3578.0,3572.0,-298.0,-312.0,521.0,519.0
3613,-281,560,0,3593.0,3578.0,-287.0,-298.0,533.0,521.0
3647,-278,605,0,3613.0,3593.0,-281.0,-287.0,560.0,533.0
3695,-266,664,0,3647.0,3613.0,-278.0,-281.0,605.0,560.0
3757,-255,727,0,3695.0,3647.0,-266.0,-278.0,664.0,605.0
3817,-234,782,0,3757.0,3695.0,-255.0,-266.0,727.0,664.0
3872,-200,822,0,3817.0,3757.0,-234.0,-255.0,782.0,727.0
3919,-155,840,0,3872.0,3817.0,-200.0,-234.0,822.0,782.0
3949,-120,830,0,3919.0,3872.0,-155.0,-200.0,840.0,822.0
3962,-99,787,0,3949.0,3919.0,-120.0,-155.0,830.0,840.0
3949,-76,708,0,3962.0,3949.0,-99.0,-120.0,787.0,830.0
3912,-62,618,0,3949.0,3962.0,-76.0,-99.0,708.0,787.0
3860,-37,537,0,3912.0,3949.0,-62.0,-76.0,618.0,708.0
3793,14,493,0,3860.0,3912.0,-37.0,-62.0,537.0,618.0
3733,80,473,0,3793.0,3860.0,14.0,-37.0,493.0,537.0
3682,141,470,0,3733.0,3793.0,80.0,14.0,473.0,493.0
3655,185,478,0,3682.0,3733.0,141.0,80.0,470.0,473.0
3651,196,492,0,3655.0,3682.0,185.0,141.0,478.0,470.0
3655,184,503,0,3651.0,3655.0,196.0,185.0,492.0,478.0
3678,136,504,0,3655.0,3651.0,184.0,196.0,503.0,492.0
3704,61,485,0,3678.0,3655.0,136.0,184.0,504.0,503.0
3738,-43,462,0,3704.0,3678.0,61.0,136.0,485.0,504.0
3771,-163,437,0,3738.0,3704.0,-43.0,61.0,462.0,485.0
3809,-290,420,0,3771.0,3738.0,-163.0,-43.0,437.0,462.0
3847,-415,409,0,3809.0,3771.0,-290.0,-163.0,420.0,437.0
3896,-529,405,0,3847.0,3809.0,-415.0,-290.0,409.0,420.0
3946,-629,407,0,3896.0,3847.0,-529.0,-415.0,405.0,409.0
3996,-710,424,0,3946.0,3896.0,-629.0,-529.0,407.0,405.0
4046,-773,448,0,3996.0,3946.0,-710.0,-629.0,424.0,407.0
4078,-819,483,0,4046.0,3996.0,-773.0,-710.0,448.0,424.0
4110,-841,523,0,4078.0,4046.0,-819.0,-773.0,483.0,448.0
4137,-845,565,0,4110.0,4078.0,-841.0,-819.0,523.0,483.0
4156,-834,610,0,4137.0,4110.0,-845.0,-841.0,565.0,523.0
4177,-809,661,0,4156.0,4137.0,-834.0,-845.0,610.0,565.0
4189,-766,720,0,4177.0,4156.0,-809.0,-834.0,661.0,610.0
4205,-716,771,0,4189.0,4177.0,-766.0,-809.0,720.0,661.0
4212,-660,821,0,4205.0,4189.0,-716.0,-766.0,771.0,720.0
4221,-606,868,0,4212.0,4205.0,-660.0,-716.0,821.0,771.0
4231,-553,908,0,4221.0,4212.0,-606.0,-660.0,868.0,821.0
4246,-499,945,0,4231.0,4221.0,-553.0,-606.0,908.0,868.0
4257,-437,984,0,4246.0,4231.0,-499.0,-553.0,945.0,908.0
4266,-362,1014,0,4257.0,4246.0,-437.0,-499.0,984.0,945.0
4275,-289,1042,0,4266.0,4257.0,-362.0,-437.0,1014.0,984.0
4284,-216,1062,0,4275.0,4266.0,-289.0,-362.0,1042.0,1014.0
4293,-152,1085,0,4284.0,4275.0,-216.0,-289.0,1062.0,1042.0
4324,-101,1123,0,4293.0,4284.0,-152.0,-216.0,1085.0,1062.0
4403,-86,1146,0,4324.0,4293.0,-101.0,-152.0,1123.0,1085.0
4502,-125,995,0,4403.0,4324.0,-86.0,-101.0,1146.0,1123.0
4562,-255,552,0,4502.0,4403.0,-125.0,-86.0,995.0,1146.0
4575,-439,3,0,4562.0,4502.0,-255.0,-125.0,552.0,995.0
4620,-684,-392,0,4575.0,4562.0,-439.0,-255.0,3.0,552.0
4765,-962,-483,0,4620.0,4575.0,-684.0,-439.0,-392.0,3.0
5006,-1176,-245,0,4765.0,4620.0,-962.0,-684.0,-483.0,-392.0
5289,-1271,166,0,5006.0,4765.0,-1176.0,-962.0,-245.0,-483.0
5536,-1269,520,0,5289.0,5006.0,-1271.0,-1176.0,166.0,-245.0
5696,-1263,633,0,5536.0,5289.0,-1269.0,-1271.0,520.0,166.0
5752,-1319,494,0,5696.0,5536.0,-1263.0,-1269.0,633.0,520.0
5753,-1489,221,0,5752.0,5696.0,-1319.0,-1263.0,494.0,633.0
5732,-1711,-57,0,5753.0,5752.0,-1489.0,-1319.0,221.0,494.0
5708,-1892,-236,0,5732.0,5753.0,-1711.0,-1489.0,-57.0,221.0
5686,-1987,-245,0,5708.0,5732.0,-1892.0,-1711.0,-236.0,-57.0
5653,-2005,-124,0,5686.0,5708.0,-1987.0,-1892.0,-245.0,-236.0
5590,-2004,17,0,5653.0,5686.0,-2005.0,-1987.0,-124.0,-245.0
5480,-2026,100,0,5590.0,5653.0,-2004.0,-2005.0,17.0,-124.0
5330,-2059,144,0,5480.0,5590.0,-2026.0,-2004.0,100.0,17.0
5155,-2081,175,0,5330.0,5480.0,-2059.0,-2026.0,144.0,100.0
4943,-2086,196,0,5155.0,5330.0,-2081.0,-2059.0,175.0,144.0
4716,-2059,211,0,4943.0,5155.0,-2086.0,-2081.0,196.0,175.0
4491,-1965,260,0,4716.0,4943.0,-2059.0,-2086.0,211.0,196.0
4277,-1801,332,0,4491.0,4716.0,-1965.0,-2059.0,260.0,211.0
4052,-1590,371,0,4277.0,4491.0,-1801.0,-1965.0,332.0,260.0
3836,-1382,349,0,4052.0,4277.0,-1590.0,-1801.0,371.0,332.0
3634,-1189,296,0,3836.0,4052.0,-1382.0,-1590.0,349.0,371.0
3461,-995,244,0,3634.0,3836.0,-1189.0,-1382.0,296.0,349.0
3316,-797,197,0,3461.0,3634.0,-995.0,-1189.0,244.0,296.0
3200,-593,176,0,3316.0,3461.0,-797.0,-995.0,197.0,244.0
3106,-405,153,0,3200.0,3316.0,-593.0,-797.0,176.0,197.0
3028,-254,102,0,3106.0,3200.0,-405.0,-593.0,153.0,176.0
2960,-130,43,0,3028.0,3106.0,-254.0,-405.0,102.0,153.0
2905,-28,1,0,2960.0,3028.0,-130.0,-254.0,43.0,102.0
2863,58,-35,0,2905.0,2960.0,-28.0,-130.0,1.0,43.0
2821,109,-98,0,2863.0,2905.0,58.0,-28.0,-35.0,1.0
2783,125,-181,0,2821.0,2863.0,109.0,58.0,-98.0,-35.0
2743,101,-284,0,2783.0,2821.0,125.0,109.0,-181.0,-98.0
2708,52,-389,0,2743.0,2783.0,101.0,125.0,-284.0,-181.0
2689,-13,-464,0,2708.0,2743.0,52.0,101.0,-389.0,-284.0
2704,-100,-496,0,2689.0,2708.0,-13.0,52.0,-464.0,-389.0
2744,-201,-486,0,2704.0,2689.0,-100.0,-13.0,-496.0,-464.0
2820,-312,-455,0,2744.0,2704.0,-201.0,-100.0,-486.0,-496.0
2929,-430,-418,0,2820.0,2744.0,-312.0,-201.0,-455.0,-486.0
3062,-549,-404,0,2929.0,2820.0,-430.0,-312.0,-418.0,-455.0
3208,-673,-434,0,3062.0,2929.0,-549.0,-430.0,-404.0,-418.0
3371,-805,-492,0,3208.0,3062.0,-673.0,-549.0,-434.0,-404.0
3547,-935,-561,0,3371.0,3208.0,-805.0,-673.0,-492.0,-434.0
3726,-1044,-621,0,3547.0,3371.0,-935.0,-805.0,-561.0,-492.0
3907,-1127,-672,0,3726.0,3547.0,-1044.0,-935.0,-621.0,-561.0
4081,-1172,-698,0,3907.0,3726.0,-1127.0,-1044.0,-672.0,-621.0
4252,-1197,-698,0,4081.0,3907.0,-1172.0,-1127.0,-698.0,-672.0
4415,-1204,-687,0,4252.0,4081.0,-1197.0,-1172.0,-698.0,-698.0
4548,-1214,-688,0,4415.0,4252.0,-1204.0,-1197.0,-687.0,-698.0
4651,-1237,-700,0,4548.0,4415.0,-1214.0,-1204.0,-688.0,-687.0
4713,-1271,-715,0,4651.0,4548.0,-1237.0,-1214.0,-700.0,-688.0
4730,-1301,-717,0,4713.0,4651.0,-1271.0,-1237.0,-715.0,-700.0
4696,-1324,-703,0,4730.0,4713.0,-1301.0,-1271.0,-717.0,-715.0
4614,-1347,-669,0,4696.0,4730.0,-1324.0,-1301.0,-703.0,-717.0
4495,-1374,-636,0,4614.0,4696.0,-1347.0,-1324.0,-669.0,-703.0
4338,-1386,-598,0,4495.0,4614.0,-1374.0,-1347.0,-636.0,-669.0
4162,-1377,-552,0,4338.0,4495.0,-1386.0,-1374.0,-598.0,-636.0
3970,-1361,-510,0,4162.0,4338.0,-1377.0,-1386.0,-552.0,-598.0
3787,-1343,-468,0,3970.0,4162.0,-1361.0,-1377.0,-510.0,-552.0
3628,-1327,-422,0,3787.0,3970.0,-1343.0,-1361.0,-468.0,-510.0
3495,-1303,-386,0,3628.0,3787.0,-1327.0,-1343.0,-422.0,-468.0
3392,-1272,-361,0,3495.0,3628.0,-1303.0,-1327.0,-386.0,-422.0
3332,-1239,-336,0,3392.0,3495.0,-1272.0,-1303.0,-361.0,-386.0
3330,-1216,-318,0,3332.0,3392.0,-1239.0,-1272.0,-336.0,-361.0
3375,-1197,-310,0,3330.0,3332.0,-1216.0,-1239.0,-318.0,-336.0
3452,-1173,-299,0,3375.0,3330.0,-1197.0,-1216.0,-310.0,-318.0
3551,-1138,-283,0,3452.0,3375.0,-1173.0,-1197.0,-299.0,-310.0
3658,-1093,-250,0,3551.0,3452.0,-1138.0,-1173.0,-283.0,-299.0
3765,-1051,-216,0,3658.0,3551.0,-1093.0,-1138.0,-250.0,-283.0
3860,-1007,-202,0,3765.0,3658.0,-1051.0,-1093.0,-216.0,-250.0
3930,-974,-203,0,3860.0,3765.0,-1007.0,-1051.0,-202.0,-216.0
3969,-940,-219,0,3930.0,3860.0,-974.0,-1007.0,-203.0,-202.0
3994,-906,-240,0,3969.0,3930.0,-940.0,-974.0,-219.0,-203.0
4005,-873,-262,0,3994.0,3969.0,-906.0,-940.0,-240.0,-219.0
4007,-840,-286,0,4005.0,3994.0,-873.0,-906.0,-262.0,-240.0
3992,-806,-304,0,4007.0,4005.0,-840.0,-873.0,-286.0,-262.0
3968,-768,-301,0,3992.0,4007.0,-806.0,-840.0,-304.0,-286.0
3935,-727,-300,0,3968.0,3992.0,-768.0,-806.0,-301.0,-304.0
3893,-693,-293,0,3935.0,3968.0,-727.0,-768.0,-300.0,-301.0
3841,-666,-291,0,3893.0,3935.0,-693.0,-727.0,-293.0,-300.0
3787,-639,-294,0,3841.0,3893.0,-666.0,-693.0,-291.0,-293.0
3734,-614,-288,0,3787.0,3841.0,-639.0,-666.0,-294.0,-291.0
3687,-600,-283,0,3734.0,3787.0,-614.0,-639.0,-288.0,-294.0
3648,-594,-268,0,3687.0,3734.0,-600.0,-614.0,-283.0,-288.0
3624,-601,-261,0,3648.0,3687.0,-594.0,-600.0,-268.0,-283.0
3613,-603,-245,0,3624.0,3648.0,-601.0,-594.0,-261.0,-268.0
3608,-599,-228,0,3613.0,3624.0,-603.0,-601.0,-245.0,-261.0
3614,-590,-204,0,3608.0,3613.0,-599.0,-603.0,-228.0,-245.0
3633,-577,-182,0,3614.0,3608.0,-590.0,-599.0,-204.0,-228.0
3655,-554,-158,0,3633.0,3614.0,-577.0,-590.0,-182.0,-204.0
3685,-537,-144,0,3655.0,3633.0,-554.0,-577.0,-158.0,-182.0
3719,-520,-139,0,3685.0,3655.0,-537.0,-554.0,-144.0,-158.0
3761,-500,-136,0,3719.0,3685.0,-520.0,-537.0,-139.0,-144.0
3800,-482,-137,0,3761.0,3719.0,-500.0,-520.0,-136.0,-139.0
3841,-463,-141,0,3800.0,3761.0,-482.0,-500.0,-137.0,-136.0
3889,-449,-139,0,3841.0,3800.0,-463.0,-482.0,-141.0,-137.0
3935,-436,-133,0,3889.0,3841.0,-449.0,-463.0,-139.0,-141.0
3979,-419,-128,0,3935.0,3889.0,-436.0,-449.0,-133.0,-139.0
4023,-411,-123,0,3979.0,3935.0,-419.0,-436.0,-128.0,-133.0
4061,-406,-119,0,4023.0,3979.0,-411.0,-419.0,-123.0,-128.0
4084,-400,-110,0,4061.0,4023.0,-406.0,-411.0,-119.0,-123.0
4096,-397,-107,0,4084.0,4061.0,-400.0,-406.0,-110.0,-119.0
4104,-394,-104,0,4096.0,4084.0,-397.0,-400.0,-107.0,-110.0
4105,-388,-99,0,4104.0,4096.0,-394.0,-397.0,-104.0,-107.0
4103,-379,-90,0,4105.0,4104.0,-388.0,-394.0,-99.0,-104.0
4093,-371,-79,0,4103.0,4105.0,-379.0,-388.0,-90.0,-99.0
4083,-358,-77,0,4093.0,4103.0,-371.0,-379.0,-79.0,-90.0
4065,-344,-65,0,4083.0,4093.0,-358.0,-371.0,-77.0,-79.0
4051,-333,-53,0,4065.0,4083.0,-344.0,-358.0,-65.0,-77.0
4033,-319,-39,0,4051.0,4065.0,-333.0,-344.0,-53.0,-65.0
4014,-308,-38,0,4033.0,4051.0,-319.0,-333.0,-39.0,-53.0
3992,-298,-44,0,4014.0,4033.0,-308.0,-319.0,-38.0,-39.0
3971,-291,-56,0,3992.0,4014.0,-298.0,-308.0,-44.0,-38.0
3951,-293,-68,0,3971.0,3992.0,-291.0,-298.0,-56.0,-44.0
3935,-296,-77,0,3951.0,3971.0,-293.0,-291.0,-68.0,-56.0
3922,-305,-77,0,3935.0,3951.0,-296.0,-293.0,-77.0,-68.0
3912,-318,-77,0,3922.0,3935.0,-305.0,-296.0,-77.0,-77.0
3903,-340,-82,0,3912.0,3922.0,-318.0,-305.0,-77.0,-77.0
3893,-365,-86,0,3903.0,3912.0,-340.0,-318.0,-82.0,-77.0
3892,-392,-80,0,3893.0,3903.0,-365.0,-340.0,-86.0,-82.0
3895,-421,-80,0,3892.0,3893.0,-392.0,-365.0,-80.0,-86.0
3899,-454,-78,0,3895.0,3892.0,-421.0,-392.0,-80.0,-80.0
3910,-490,-74,0,3899.0,3895.0,-454.0,-421.0,-78.0,-80.0
3919,-529,-67,0,3910.0,3899.0,-490.0,-454.0,-74.0,-78.0
3927,-568,-62,0,3919.0,3910.0,-529.0,-490.0,-67.0,-74.0
3937,-605,-54,0,3927.0,3919.0,-568.0,-529.0,-62.0,-67.0
3940,-641,-52,0,3937.0,3927.0,-605.0,-568.0,-54.0,-62.0
3938,-670,-52,0,3940.0,3937.0,-641.0,-605.0,-52.0,-54.0
3941,-693,-55,0,3938.0,3940.0,-670.0,-641.0,-52.0,-52.0
3949,-710,-55,0,3941.0,3938.0,-693.0,-670.0,-55.0,-52.0
3955,-714,-49,0,3949.0,3941.0,-710.0,-693.0,-55.0,-55.0
3962,-722,-47,0,3955.0,3949.0,-714.0,-710.0,-49.0,-55.0
3964,-725,-49,0,3962.0,3955.0,-722.0,-714.0,-47.0,-49.0
3963,-728,-56,0,3964.0,3962.0,-725.0,-722.0,-49.0,-47.0
3956,-724,-62,0,3963.0,3964.0,-728.0,-725.0,-56.0,-49.0
3949,-725,-70,0,3956.0,3963.0,-724.0,-728.0,-62.0,-56.0
3943,-732,-85,0,3949.0,3956.0,-725.0,-724.0,-70.0,-62.0
3935,-740,-109,0,3943.0,3949.0,-732.0,-725.0,-85.0,-70.0
3920,-750,-151,0,3935.0,3943.0,-740.0,-732.0,-109.0,-85.0
3903,-763,-194,0,3920.0,3935.0,-750.0,-740.0,-151.0,-109.0
3894,-761,-211,0,3903.0,3920.0,-763.0,-750.0,-194.0,-151.0
3884,-735,-200,0,3894.0,3903.0,-761.0,-763.0,-211.0,-194.0
3880,-697,-181,0,3884.0,3894.0,-735.0,-761.0,-200.0,-211.0
3871,-647,-170,0,3880.0,3884.0,-697.0,-735.0,-181.0,-200.0
3862,-586,-180,0,3871.0,3880.0,-647.0,-697.0,-170.0,-181.0
3857,-523,-186,0,3862.0,3871.0,-586.0,-647.0,-180.0,-170.0
3856,-460,-197,0,3857.0,3862.0,-523.0,-586.0,-186.0,-180.0
3860,-401,-217,0,3856.0,3857.0,-460.0,-523.0,-197.0,-186.0
3866,-345,-239,0,3860.0,3856.0,-401.0,-460.0,-217.0,-197.0
3888,-295,-252,0,3866.0,3860.0,-345.0,-401.0,-239.0,-217.0
3919,-248,-256,0,3888.0,3866.0,-295.0,-345.0,-252.0,-239.0
3950,-196,-268,0,3919.0,3888.0,-248.0,-295.0,-256.0,-252.0
3982,-157,-282,0,3950.0,3919.0,-196.0,-248.0,-268.0,-256.0
4014,-125,-300,0,3982.0,3950.0,-157.0,-196.0,-282.0,-268.0
4046,-108,-326,0,4014.0,3982.0,-125.0,-157.0,-300.0,-282.0
4073,-101,-342,0,4046.0,4014.0,-108.0,-125.0,-326.0,-300.0
4094,-95,-358,0,4073.0,4046.0,-101.0,-108.0,-342.0,-326.0
4113,-90,-361,0,4094.0,4073.0,-95.0,-101.0,-358.0,-342.0
4127,-92,-350,0,4113.0,4094.0,-90.0,-95.0,-361.0,-358.0
4139,-107,-341,0,4127.0,4113.0,-92.0,-90.0,-350.0,-361.0
4142,-134,-332,0,4139.0,4127.0,-107.0,-92.0,-341.0,-350.0
4145,-172,-320,0,4142.0,4139.0,-134.0,-107.0,-332.0,-341.0
4141,-215,-315,0,4145.0,4142.0,-172.0,-134.0,-320.0,-332.0
4133,-259,-313,0,4141.0,4145.0,-215.0,-172.0,-315.0,-320.0
4118,-296,-316,0,4133.0,4141.0,-259.0,-215.0,-313.0,-315.0
4106,-319,-327,0,4118.0,4133.0,-296.0,-259.0,-316.0,-313.0
4089,-326,-328,0,4106.0,4118.0,-319.0,-296.0,-327.0,-316.0
4076,-315,-320,0,4089.0,4106.0,-326.0,-319.0,-328.0,-327.0
4066,-284,-296,0,4076.0,4089.0,-315.0,-326.0,-320.0,-328.0
4066,-260,-270,0,4066.0,4076.0,-284.0,-315.0,-296.0,-320.0
4073,-246,-251,0,4066.0,4066.0,-260.0,-284.0,-270.0,-296.0
4087,-247,-237,0,4073.0,4066.0,-246.0,-260.0,-251.0,-270.0
4100,-260,-219,0,4087.0,4073.0,-247.0,-246.0,-237.0,-251.0
4121,-280,-197,0,4100.0,4087.0,-260.0,-247.0,-219.0,-237.0
4156,-300,-176,0,4121.0,4100.0,-280.0,-260.0,-197.0,-219.0
4186,-319,-156,0,4156.0,4121.0,-300.0,-280.0,-176.0,-197.0
4215,-331,-136,0,4186.0,4156.0,-319.0,-300.0,-156.0,-176.0
4243,-336,-117,0,4215.0,4186.0,-331.0,-319.0,-136.0,-156.0
4270,-342,-98,0,4243.0,4215.0,-336.0,-331.0,-117.0,-136.0
4289,-347,-81,0,4270.0,4243.0,-342.0,-336.0,-98.0,-117.0
4304,-350,-68,0,4289.0,4270.0,-347.0,-342.0,-81.0,-98.0
4309,-354,-57,0,4304.0,4289.0,-350.0,-347.0,-68.0,-81.0
4303,-366,-51,0,4309.0,4304.0,-354.0,-350.0,-57.0,-68.0
4293,-373,-33,0,4303.0,4309.0,-366.0,-354.0,-51.0,-57.0
4288,-391,-5,0,4293.0,4303.0,-373.0,-366.0,-33.0,-51.0
4291,-411,33,0,4288.0,4293.0,-391.0,-373.0,-5.0,-33.0
4302,-437,71,0,4291.0,4288.0,-411.0,-391.0,33.0,-5.0
4319,-476,93,0,4302.0,4291.0,-437.0,-411.0,71.0,33.0
4336,-530,93,0,4319.0,4302.0,-476.0,-437.0,93.0,71.0
4358,-604,61,0,4336.0,4319.0,-530.0,-476.0,93.0,93.0
4380,-693,6,0,4358.0,4336.0,-604.0,-530.0,61.0,93.0
4414,-782,-76,0,4380.0,4358.0,-693.0,-604.0,6.0,61.0
4452,-860,-180,0,4414.0,4380.0,-782.0,-693.0,-76.0,6.0
4511,-881,-263,0,4452.0,4414.0,-860.0,-782.0,-180.0,-76.0
4585,-794,-301,0,4511.0,4452.0,-881.0,-860.0,-263.0,-180.0
4655,-609,-303,0,4585.0,4511.0,-794.0,-881.0,-301.0,-263.0
4700,-356,-290,0,4655.0,4585.0,-609.0,-794.0,-303.0,-301.0
4707,-87,-288,0,4700.0,4655.0,-356.0,-609.0,-290.0,-303.0
4665,183,-304,0,4707.0,4700.0,-87.0,-356.0,-288.0,-290.0
4589,405,-331,0,4665.0,4707.0,183.0,-87.0,-304.0,-288.0
4494,582,-350,0,4589.0,4665.0,405.0,183.0,-331.0,-304.0
4412,697,-343,0,4494.0,4589.0,582.0,405.0,-350.0,-331.0
4356,737,-310,0,4412.0,4494.0,697.0,582.0,-343.0,-350.0
4324,684,-284,0,4356.0,4412.0,737.0,697.0,-310.0,-343.0
4318,530,-272,0,4324.0,4356.0,684.0,737.0,-284.0,-310.0
4342,314,-274,0,4318.0,4324.0,530.0,684.0,-272.0,-284.0
4382,82,-297,0,4342.0,4318.0,314.0,530.0,-274.0,-272.0
4426,-150,-353,0,4382.0,4342.0,82.0,314.0,-297.0,-274.0
4470,-345,-442,0,4426.0,4382.0,-150.0,82.0,-353.0,-297.0
4492,-491,-550,0,4470.0,4426.0,-345.0,-150.0,-442.0,-353.0
4506,-576,-649,0,4492.0,4470.0,-491.0,-345.0,-550.0,-442.0
4504,-622,-721,0,4506.0,4492.0,-576.0,-491.0,-649.0,-550.0
4499,-642,-768,0,4504.0,4506.0,-622.0,-576.0,-721.0,-649.0
4488,-669,-781,0,4499.0,4504.0,-642.0,-622.0,-768.0,-721.0
4473,-715,-776,0,4488.0,4499.0,-669.0,-642.0,-781.0,-768.0
4455,-792,-761,0,4473.0,4488.0,-715.0,-669.0,-776.0,-781.0
4437,-895,-755,0,4455.0,4473.0,-792.0,-715.0,-761.0,-776.0
4407,-1020,-757,0,4437.0,4455.0,-895.0,-792.0,-755.0,-761.0
4365,-1148,-757,0,4407.0,4437.0,-1020.0,-895.0,-757.0,-755.0
4316,-1271,-753,0,4365.0,4407.0,-1148.0,-1020.0,-757.0,-757.0
4244,-1369,-749,0,4316.0,4365.0,-1271.0,-1148.0,-753.0,-757.0
4165,-1438,-744,0,4244.0,4316.0,-1369.0,-1271.0,-749.0,-753.0
4069,-1478,-730,0,4165.0,4244.0,-1438.0,-1369.0,-744.0,-749.0
3966,-1478,-694,0,4069.0,4165.0,-1478.0,-1438.0,-730.0,-744.0
3852,-1445,-634,0,3966.0,4069.0,-1478.0,-1478.0,-694.0,-730.0
3733,-1401,-560,0,3852.0,3966.0,-1445.0,-1478.0,-634.0,-694.0
3615,-1362,-488,0,3733.0,3852.0,-1401.0,-1445.0,-560.0,-634.0
3500,-1329,-416,0,3615.0,3733.0,-1362.0,-1401.0,-488.0,-560.0
3392,-1298,-342,0,3500.0,3615.0,-1329.0,-1362.0,-416.0,-488.0
3295,-1274,-256,0,3392.0,3500.0,-1298.0,-1329.0,-342.0,-416.0
3204,-1254,-172,0,3295.0,3392.0,-1274.0,-1298.0,-256.0,-342.0
3133,-1230,-113,0,3204.0,3295.0,-1254.0,-1274.0,-172.0,-256.0
3083,-1199,-71,0,3133.0,3204.0,-1230.0,-1254.0,-113.0,-172.0
3077,-1162,-54,0,3083.0,3133.0,-1199.0,-1230.0,-71.0,-113.0
3105,-1100,-55,0,3077.0,3083.0,-1162.0,-1199.0,-54.0,-71.0
3174,-1015,-66,0,3105.0,3077.0,-1100.0,-1162.0,-55.0,-54.0
3288,-916,-89,0,3174.0,3105.0,-1015.0,-1100.0,-66.0,-55.0
3453,-817,-101,0,3288.0,3174.0,-916.0,-1015.0,-89.0,-66.0
3673,-725,-74,0,3453.0,3288.0,-817.0,-916.0,-101.0,-89.0
3915,-643,-34,0,3673.0,3453.0,-725.0,-817.0,-74.0,-101.0
4178,-597,-5,0,3915.0,3673.0,-643.0,-725.0,-34.0,-74.0
4428,-575,7,0,4178.0,3915.0,-597.0,-643.0,-5.0,-34.0
4652,-583,9,0,4428.0,4178.0,-575.0,-597.0,7.0,-5.0
4851,-611,-7,0,4652.0,4428.0,-583.0,-575.0,9.0,7.0
5007,-657,-41,0,4851.0,4652.0,-611.0,-583.0,-7.0,9.0
5114,-730,-97,0,5007.0,4851.0,-657.0,-611.0,-41.0,-7.0
5170,-806,-169,0,5114.0,5007.0,-730.0,-657.0,-97.0,-41.0
5179,-872,-225,0,5170.0,5114.0,-806.0,-730.0,-169.0,-97.0
5150,-908,-261,0,5179.0,5170.0,-872.0,-806.0,-225.0,-169.0
5087,-923,-262,0,5150.0,5179.0,-908.0,-872.0,-261.0,-225.0
4995,-909,-246,0,5087.0,5150.0,-923.0,-908.0,-262.0,-261.0
4884,-864,-200,0,4995.0,5087.0,-909.0,-923.0,-246.0,-262.0
4769,-804,-124,0,4884.0,4995.0,-864.0,-909.0,-200.0,-246.0
4651,-731,-33,0,4769.0,4884.0,-804.0,-864.0,-124.0,-200.0
4533,-668,63,0,4651.0,4769.0,-731.0,-804.0,-33.0,-124.0
4412,-615,145,0,4533.0,4651.0,-668.0,-731.0,63.0,-33.0
4284,-567,198,0,4412.0,4533.0,-615.0,-668.0,145.0,63.0
4154,-530,220,0,4284.0,4412.0,-567.0,-615.0,198.0,145.0
4009,-513,223,0,4154.0,4284.0,-530.0,-567.0,220.0,198.0
3871,-518,230,0,4009.0,4154.0,-513.0,-530.0,223.0,220.0
3744,-541,252,0,3871.0,4009.0,-518.0,-513.0,230.0,223.0
3634,-568,286,0,3744.0,3871.0,-541.0,-518.0,252.0,230.0
3538,-597,318,0,3634.0,3744.0,-568.0,-541.0,286.0,252.0
3436,-617,314,0,3538.0,3634.0,-597.0,-568.0,318.0,286.0
3344,-624,290,0,3436.0,3538.0,-617.0,-597.0,314.0,318.0
3270,-625,261,0,3344.0,3436.0,-624.0,-617.0,290.0,314.0
3218,-615,238,0,3270.0,3344.0,-625.0,-624.0,261.0,290.0
3176,-587,215,0,3218.0,3270.0,-615.0,-625.0,238.0,261.0
3149,-548,191,0,3176.0,3218.0,-587.0,-615.0,215.0,238.0
3131,-505,165,0,3149.0,3176.0,-548.0,-587.0,191.0,215.0
3124,-464,132,0,3131.0,3149.0,-505.0,-548.0,165.0,191.0
3128,-431,104,0,3124.0,3131.0,-464.0,-505.0,132.0,165.0
3142,-413,87,0,3128.0,3124.0,-431.0,-464.0,104.0,132.0
3179,-410,90,0,3142.0,3128.0,-413.0,-431.0,87.0,104.0
3235,-419,115,0,3179.0,3142.0,-410.0,-413.0,90.0,87.0
3312,-441,157,0,3235.0,3179.0,-419.0,-410.0,115.0,90.0
3402,-481,199,0,3312.0,3235.0,-441.0,-419.0,157.0,115.0
3511,-543,236,0,3402.0,3312.0,-481.0,-441.0,199.0,157.0
3609,-621,264,0,3511.0,3402.0,-543.0,-481.0,236.0,199.0
3701,-704,281,0,3609.0,3511.0,-621.0,-543.0,264.0,236.0
3788,-787,287,0,3701.0,3609.0,-704.0,-621.0,281.0,264.0
3861,-859,292,0,3788.0,3701.0,-787.0,-704.0,287.0,281.0
3926,-912,320,0,3861.0,3788.0,-859.0,-787.0,292.0,287.0
3980,-944,349,0,3926.0,3861.0,-912.0,-859.0,320.0,292.0
4018,-950,380,0,3980.0,3926.0,-944.0,-912.0,349.0,320.0
4045,-941,400,0,4018.0,3980.0,-950.0,-944.0,380.0,349.0
4052,-909,410,0,4045.0,4018.0,-941.0,-950.0,400.0,380.0
4043,-868,413,0,4052.0,4045.0,-909.0,-941.0,410.0,400.0
4021,-820,415,0,4043.0,4052.0,-868.0,-909.0,413.0,410.0
3990,-765,420,0,4021.0,4043.0,-820.0,-868.0,415.0,413.0
3949,-700,427,0,3990.0,4021.0,-765.0,-820.0,420.0,415.0
3902,-632,433,0,3949.0,3990.0,-700.0,-765.0,427.0,420.0
3849,-567,443,0,3902.0,3949.0,-632.0,-700.0,433.0,427.0
3798,-501,451,0,3849.0,3902.0,-567.0,-632.0,443.0,433.0
3747,-445,463,0,3798.0,3849.0,-501.0,-567.0,451.0,443.0
3700,-403,475,0,3747.0,3798.0,-445.0,-501.0,463.0,451.0
3664,-369,489,0,3700.0,3747.0,-403.0,-445.0,475.0,463.0
3643,-347,509,0,3664.0,3700.0,-369.0,-403.0,489.0,475.0
3637,-333,527,0,3643.0,3664.0,-347.0,-369.0,509.0,489.0
3647,-326,549,0,3637.0,3643.0,-333.0,-347.0,527.0,509.0
3670,-332,568,0,3647.0,3637.0,-326.0,-333.0,549.0,527.0
3700,-336,579,0,3670.0,3647.0,-332.0,-326.0,568.0,549.0
3740,-352,589,0,3700.0,3670.0,-336.0,-332.0,579.0,568.0
3776,-371,596,0,3740.0,3700.0,-352.0,-336.0,589.0,579.0
3806,-387,602,0,3776.0,3740.0,-371.0,-352.0,596.0,589.0
3831,-397,602,0,3806.0,3776.0,-387.0,-371.0,602.0,596.0
3854,-409,606,0,3831.0,3806.0,-397.0,-387.0,602.0,602.0
3869,-412,606,0,3854.0,3831.0,-409.0,-397.0,606.0,602.0
3875,-407,608,0,3869.0,3854.0,-412.0,-409.0,606.0,606.0
3878,-396,609,0,3875.0,3869.0,-407.0,-412.0,608.0,606.0
3874,-380,606,0,3878.0,3875.0,-396.0,-407.0,609.0,608.0
3868,-355,604,0,3874.0,3878.0,-380.0,-396.0,606.0,609.0
3857,-325,600,0,3868.0,3874.0,-355.0,-380.0,604.0,606.0
3848,-283,596,0,3857.0,3868.0,-325.0,-355.0,600.0,604.0
3838,-242,587,0,3848.0,3857.0,-283.0,-325.0,596.0,600.0
3818,-197,575,0,3838.0,3848.0,-242.0,-283.0,587.0,596.0
3798,-151,563,0,3818.0,3838.0,-197.0,-242.0,575.0,587.0
3778,-112,535,0,3798.0,3818.0,-151.0,-197.0,563.0,575.0
3761,-84,505,0,3778.0,3798.0,-112.0,-151.0,535.0,563.0
3742,-70,469,0,3761.0,3778.0,-84.0,-112.0,505.0,535.0
3724,-72,447,0,3742.0,3761.0,-70.0,-84.0,469.0,505.0
3717,-87,442,0,3724.0,3742.0,-72.0,-70.0,447.0,469.0
3719,-114,450,0,3717.0,3724.0,-87.0,-72.0,442.0,447.0
3731,-156,470,0,3719.0,3717.0,-114.0,-87.0,450.0,442.0
3746,-216,492,0,3731.0,3719.0,-156.0,-114.0,470.0,450.0
3774,-283,509,0,3746.0,3731.0,-216.0,-156.0,492.0,470.0
3802,-352,528,0,3774.0,3746.0,-283.0,-216.0,509.0,492.0
3831,-432,544,0,3802.0,3774.0,-352.0,-283.0,528.0,509.0
3858,-510,549,0,3831.0,3802.0,-432.0,-352.0,544.0,528.0
3881,-576,548,0,3858.0,3831.0,-510.0,-432.0,549.0,544.0
3895,-639,533,0,3881.0,3858.0,-576.0,-510.0,548.0,549.0
3902,-695,521,0,3895.0,3881.0,-639.0,-576.0,533.0,548.0
3903,-740,504,0,3902.0,3895.0,-695.0,-639.0,521.0,533.0
3901,-781,485,0,3903.0,3902.0,-740.0,-695.0,504.0,521.0
3893,-818,461,0,3901.0,3903.0,-781.0,-740.0,485.0,504.0
3874,-844,431,0,3893.0,3901.0,-818.0,-781.0,461.0,485.0
3850,-867,393,0,3874.0,3893.0,-844.0,-818.0,431.0,461.0
3829,-880,359,0,3850.0,3874.0,-867.0,-844.0,393.0,431.0
3810,-882,336,0,3829.0,3850.0,-880.0,-867.0,359.0,393.0
3812,-882,345,0,3810.0,3829.0,-882.0,-880.0,336.0,359.0
3829,-871,377,0,3812.0,3810.0,-882.0,-882.0,345.0,336.0
3855,-857,431,0,3829.0,3812.0,-871.0,-882.0,377.0,345.0
3885,-846,494,0,3855.0,3829.0,-857.0,-871.0,431.0,377.0
3920,-838,552,0,3885.0,3855.0,-846.0,-857.0,494.0,431.0
3950,-829,599,0,3920.0,3885.0,-838.0,-846.0,552.0,494.0
3972,-817,637,0,3950.0,3920.0,-829.0,-838.0,599.0,552.0
3983,-804,660,0,3972.0,3950.0,-817.0,-829.0,637.0,599.0
3983,-793,661,0,3983.0,3972.0,-804.0,-817.0,660.0,637.0
3978,-778,651,0,3983.0,3983.0,-793.0,-804.0,661.0,660.0
3966,-759,635,0,3978.0,3983.0,-778.0,-793.0,651.0,661.0
3950,-744,626,0,3966.0,3978.0,-759.0,-778.0,635.0,651.0
3939,-734,630,0,3950.0,3966.0,-744.0,-759.0,626.0,635.0
3930,-721,651,0,3939.0,3950.0,-734.0,-744.0,630.0,626.0
3924,-709,689,0,3930.0,3939.0,-721.0,-734.0,651.0,630.0
3926,-690,748,0,3924.0,3930.0,-709.0,-721.0,689.0,651.0
3929,-670,811,0,3926.0,3924.0,-690.0,-709.0,748.0,689.0
3936,-648,875,0,3929.0,3926.0,-670.0,-690.0,811.0,748.0
3943,-622,929,0,3936.0,3929.0,-648.0,-670.0,875.0,811.0
3961,-589,971,0,3943.0,3936.0,-622.0,-648.0,929.0,875.0
3977,-552,1000,0,3961.0,3943.0,-589.0,-622.0,971.0,929.0
4010,-522,1007,0,3977.0,3961.0,-552.0,-589.0,1000.0,971.0
4055,-503,989,0,4010.0,3977.0,-522.0,-552.0,1007.0,1000.0
4120,-509,914,0,4055.0,4010.0,-503.0,-522.0,989.0,1007.0
4204,-548,764,0,4120.0,4055.0,-509.0,-503.0,914.0,989.0
4303,-615,564,0,4204.0,4120.0,-548.0,-509.0,764.0,914.0
4419,-720,345,0,4303.0,4204.0,-615.0,-548.0,564.0,764.0
4554,-850,170,0,4419.0,4303.0,-720.0,-615.0,345.0,564.0
4717,-982,84,0,4554.0,4419.0,-850.0,-720.0,170.0,345.0
4897,-1090,98,0,4717.0,4554.0,-982.0,-850.0,84.0,170.0
5088,-1161,177,0,4897.0,4717.0,-1090.0,-982.0,98.0,84.0
5262,-1205,263,0,5088.0,4897.0,-1161.0,-1090.0,177.0,98.0
5396,-1243,304,0,5262.0,5088.0,-1205.0,-1161.0,263.0,177.0
5480,-1285,284,0,5396.0,5262.0,-1243.0,-1205.0,304.0,263.0
5512,-1345,207,0,5480.0,5396.0,-1285.0,-1243.0,284.0,304.0
5501,-1440,100,0,5512.0,5480.0,-1345.0,-1285.0,207.0,284.0
5488,-1571,-5,0,5501.0,5512.0,-1440.0,-1345.0,100.0,207.0
5476,-1700,-66,0,5488.0,5501.0,-1571.0,-1440.0,-5.0,100.0
5451,-1786,-62,0,5476.0,5488.0,-1700.0,-1571.0,-66.0,-5.0
5395,-1830,-13,0,5451.0,5476.0,-1786.0,-1700.0,-62.0,-66.0
5295,-1839,53,0,5395.0,5451.0,-1830.0,-1786.0,-13.0,-62.0
5151,-1831,130,0,5295.0,5395.0,-1839.0,-1830.0,53.0,-13.0
4974,-1778,228,0,5151.0,5295.0,-1831.0,-1839.0,130.0,53.0
4763,-1680,325,0,4974.0,5151.0,-1778.0,-1831.0,228.0,130.0
4538,-1545,386,0,4763.0,4974.0,-1680.0,-1778.0,325.0,228.0
4308,-1394,416,0,4538.0,4763.0,-1545.0,-1680.0,386.0,325.0
4075,-1230,414,0,4308.0,4538.0,-1394.0,-1545.0,416.0,386.0
3835,-1085,375,0,4075.0,4308.0,-1230.0,-1394.0,414.0,416.0
3602,-981,280,0,3835.0,4075.0,-1085.0,-1230.0,375.0,414.0
3407,-918,187,0,3602.0,3835.0,-981.0,-1085.0,280.0,375.0
3263,-854,174,0,3407.0,3602.0,-918.0,-981.0,187.0,280.0
3152,-762,195,0,3263.0,3407.0,-854.0,-918.0,174.0,187.0
3056,-666,189,0,3152.0,3263.0,-762.0,-854.0,195.0,174.0
3000,-584,171,0,3056.0,3152.0,-666.0,-762.0,189.0,195.0
2976,-525,140,0,3000.0,3056.0,-584.0,-666.0,171.0,189.0
2980,-488,108,0,2976.0,3000.0,-525.0,-584.0,140.0,171.0
3000,-464,62,0,2980.0,2976.0,-488.0,-525.0,108.0,140.0
3029,-458,1,0,3000.0,2980.0,-464.0,-488.0,62.0,108.0
3059,-443,-36,0,3029.0,3000.0,-458.0,-464.0,1.0,62.0
3092,-438,-33,0,3059.0,3029.0,-443.0,-458.0,-36.0,1.0
3113,-462,-85,0,3092.0,3059.0,-438.0,-443.0,-33.0,-36.0
3102,-510,-183,0,3113.0,3092.0,-462.0,-438.0,-85.0,-33.0
3083,-542,-224,0,3102.0,3113.0,-510.0,-462.0,-183.0,-85.0
3071,-571,-234,0,3083.0,3102.0,-542.0,-510.0,-224.0,-183.0
3064,-642,-288,0,3071.0,3083.0,-571.0,-542.0,-234.0,-224.0
3067,-742,-385,0,3064.0,3071.0,-642.0,-571.0,-288.0,-234.0
3073,-850,-504,0,3067.0,3064.0,-742.0,-642.0,-385.0,-288.0
3084,-955,-636,0,3073.0,3067.0,-850.0,-742.0,-504.0,-385.0
3118,-1055,-757,0,3084.0,3073.0,-955.0,-850.0,-636.0,-504.0
3185,-1131,-837,0,3118.0,3084.0,-1055.0,-955.0,-757.0,-636.0
3283,-1173,-868,0,3185.0,3118.0,-1131.0,-1055.0,-837.0,-757.0
3407,-1192,-858,0,3283.0,3185.0,-1173.0,-1131.0,-868.0,-837.0
3556,-1188,-825,0,3407.0,3283.0,-1192.0,-1173.0,-858.0,-868.0
3722,-1163,-761,0,3556.0,3407.0,-1188.0,-1192.0,-825.0,-858.0
3886,-1134,-698,0,3722.0,3556.0,-1163.0,-1188.0,-761.0,-825.0
4041,-1122,-654,0,3886.0,3722.0,-1134.0,-1163.0,-698.0,-761.0
4179,-1121,-642,0,4041.0,3886.0,-1122.0,-1134.0,-654.0,-698.0
4293,-1122,-664,0,4179.0,4041.0,-1121.0,-1122.0,-642.0,-654.0
4387,-1134,-703,0,4293.0,4179.0,-1122.0,-1121.0,-664.0,-642.0
4446,-1155,-737,0,4387.0,4293.0,-1134.0,-1122.0,-703.0,-664.0
4469,-1173,-755,0,4446.0,4387.0,-1155.0,-1134.0,-737.0,-703.0
4458,-1179,-748,0,4469.0,4446.0,-1173.0,-1155.0,-755.0,-737.0
4428,-1181,-714,0,4458.0,4469.0,-1179.0,-1173.0,-748.0,-755.0
4390,-1174,-654,0,4428.0,4458.0,-1181.0,-1179.0,-714.0,-748.0
4332,-1175,-582,0,4390.0,4428.0,-1174.0,-1181.0,-654.0,-714.0
4266,-1164,-502,0,4332.0,4390.0,-1175.0,-1174.0,-582.0,-654.0
4188,-1164,-433,0,4266.0,4332.0,-1164.0,-1175.0,-502.0,-582.0
4111,-1178,-376,0,4188.0,4266.0,-1164.0,-1164.0,-433.0,-502.0
4024,-1197,-342,0,4111.0,4188.0,-1178.0,-1164.0,-376.0,-433.0
3942,-1213,-329,0,4024.0,4111.0,-1197.0,-1178.0,-342.0,-376.0
3871,-1214,-319,0,3942.0,4024.0,-1213.0,-1197.0,-329.0,-342.0
3816,-1190,-323,0,3871.0,3942.0,-1214.0,-1213.0,-319.0,-329.0
3788,-1151,-332,0,3816.0,3871.0,-1190.0,-1214.0,-323.0,-319.0
3799,-1099,-333,0,3788.0,3816.0,-1151.0,-1190.0,-332.0,-323.0
3849,-1029,-324,0,3799.0,3788.0,-1099.0,-1151.0,-333.0,-332.0
3931,-950,-308,0,3849.0,3799.0,-1029.0,-1099.0,-324.0,-333.0
4025,-866,-290,0,3931.0,3849.0,-950.0,-1029.0,-308.0,-324.0
4124,-780,-271,0,4025.0,3931.0,-866.0,-950.0,-290.0,-308.0
4213,-697,-269,0,4124.0,4025.0,-780.0,-866.0,-271.0,-290.0
4280,-624,-283,0,4213.0,4124.0,-697.0,-780.0,-269.0,-271.0
4313,-547,-315,0,4280.0,4213.0,-624.0,-697.0,-283.0,-269.0
4318,-468,-344,0,4313.0,4280.0,-547.0,-624.0,-315.0,-283.0
4297,-397,-363,0,4318.0,4313.0,-468.0,-547.0,-344.0,-315.0
4256,-330,-373,0,4297.0,4318.0,-397.0,-468.0,-363.0,-344.0
4204,-279,-373,0,4256.0,4297.0,-330.0,-397.0,-373.0,-363.0
4147,-238,-374,0,4204.0,4256.0,-279.0,-330.0,-373.0,-373.0
4077,-215,-366,0,4147.0,4204.0,-238.0,-279.0,-374.0,-373.0
4002,-215,-359,0,4077.0,4147.0,-215.0,-238.0,-366.0,-374.0
3925,-240,-355,0,4002.0,4077.0,-215.0,-215.0,-359.0,-366.0
3853,-278,-347,0,3925.0,4002.0,-240.0,-215.0,-355.0,-359.0
3782,-318,-334,0,3853.0,3925.0,-278.0,-240.0,-347.0,-355.0
3733,-358,-319,0,3782.0,3853.0,-318.0,-278.0,-334.0,-347.0
3687,-396,-312,0,3733.0,3782.0,-358.0,-318.0,-319.0,-334.0
3653,-430,-302,0,3687.0,3733.0,-396.0,-358.0,-312.0,-319.0
3629,-453,-292,0,3653.0,3687.0,-430.0,-396.0,-302.0,-312.0
3618,-472,-296,0,3629.0,3653.0,-453.0,-430.0,-292.0,-302.0
3614,-485,-302,0,3618.0,3629.0,-472.0,-453.0,-296.0,-292.0
3626,-497,-304,0,3614.0,3618.0,-485.0,-472.0,-302.0,-296.0
3653,-494,-296,0,3626.0,3614.0,-497.0,-485.0,-304.0,-302.0
3695,-492,-293,0,3653.0,3626.0,-494.0,-497.0,-296.0,-304.0
3746,-495,-293,0,3695.0,3653.0,-492.0,-494.0,-293.0,-296.0
3801,-497,-288,0,3746.0,3695.0,-495.0,-492.0,-293.0,-293.0
3861,-505,-279,0,3801.0,3746.0,-497.0,-495.0,-288.0,-293.0
3925,-514,-266,0,3861.0,3801.0,-505.0,-497.0,-279.0,-288.0
3980,-532,-252,0,3925.0,3861.0,-514.0,-505.0,-266.0,-279.0
4027,-542,-238,0,3980.0,3925.0,-532.0,-514.0,-252.0,-266.0
4060,-551,-224,0,4027.0,3980.0,-542.0,-532.0,-238.0,-252.0
4081,-555,-218,0,4060.0,4027.0,-551.0,-542.0,-224.0,-238.0
4093,-555,-216,0,4081.0,4060.0,-555.0,-551.0,-218.0,-224.0
4100,-545,-205,0,4093.0,4081.0,-555.0,-555.0,-216.0,-218.0
4101,-524,-204,0,4100.0,4093.0,-545.0,-555.0,-205.0,-216.0
4096,-500,-199,0,4101.0,4100.0,-524.0,-545.0,-204.0,-205.0
4083,-470,-188,0,4096.0,4101.0,-500.0,-524.0,-199.0,-204.0
4070,-439,-172,0,4083.0,4096.0,-470.0,-500.0,-188.0,-199.0
4058,-405,-161,0,4070.0,4083.0,-439.0,-470.0,-172.0,-188.0
4045,-370,-156,0,4058.0,4070.0,-405.0,-439.0,-161.0,-172.0
4032,-337,-145,0,4045.0,4058.0,-370.0,-405.0,-156.0,-161.0
4024,-294,-133,0,4032.0,4045.0,-337.0,-370.0,-145.0,-156.0
4012,-256,-113,0,4024.0,4032.0,-294.0,-337.0,-133.0,-145.0
4001,-227,-96,0,4012.0,4024.0,-256.0,-294.0,-113.0,-133.0
3984,-209,-90,0,4001.0,4012.0,-227.0,-256.0,-96.0,-113.0
3968,-198,-87,0,3984.0,4001.0,-209.0,-227.0,-90.0,-96.0
3951,-185,-85,0,3968.0,3984.0,-198.0,-209.0,-87.0,-90.0
3934,-171,-79,0,3951.0,3968.0,-185.0,-198.0,-85.0,-87.0
3918,-158,-73,0,3934.0,3951.0,-171.0,-185.0,-79.0,-85.0
3903,-158,-67,0,3918.0,3934.0,-158.0,-171.0,-73.0,-79.0
3886,-164,-66,0,3903.0,3918.0,-158.0,-158.0,-67.0,-73.0
3873,-175,-73,0,3886.0,3903.0,-164.0,-158.0,-66.0,-67.0
3868,-191,-79,0,3873.0,3886.0,-175.0,-164.0,-73.0,-66.0
3871,-208,-70,0,3868.0,3873.0,-191.0,-175.0,-79.0,-73.0
3884,-231,-46,0,3871.0,3868.0,-208.0,-191.0,-70.0,-79.0
3903,-248,-27,0,3884.0,3871.0,-231.0,-208.0,-46.0,-70.0
3922,-267,-21,0,3903.0,3884.0,-248.0,-231.0,-27.0,-46.0
3944,-286,-18,0,3922.0,3903.0,-267.0,-248.0,-21.0,-27.0
3961,-313,-22,0,3944.0,3922.0,-286.0,-267.0,-18.0,-21.0
3981,-331,-26,0,3961.0,3944.0,-313.0,-286.0,-22.0,-18.0
3996,-345,-24,0,3981.0,3961.0,-331.0,-313.0,-26.0,-22.0
4007,-351,-20,0,3996.0,3981.0,-345.0,-331.0,-24.0,-26.0
4013,-351,-18,0,4007.0,3996.0,-351.0,-345.0,-20.0,-24.0
4013,-354,-28,0,4013.0,4007.0,-351.0,-351.0,-18.0,-20.0
4009,-358,-34,0,4013.0,4013.0,-354.0,-351.0,-28.0,-18.0
3998,-362,-42,0,4009.0,4013.0,-358.0,-354.0,-34.0,-28.0
3984,-357,-42,0,3998.0,4009.0,-362.0,-358.0,-42.0,-34.0
3967,-355,-36,0,3984.0,3998.0,-357.0,-362.0,-42.0,-42.0
3951,-357,-34,0,3967.0,3984.0,-355.0,-357.0,-36.0,-42.0
3935,-359,-29,0,3951.0,3967.0,-357.0,-355.0,-34.0,-36.0
3926,-357,-27,0,3935.0,3951.0,-359.0,-357.0,-29.0,-34.0
3918,-359,-27,0,3926.0,3935.0,-357.0,-359.0,-27.0,-29.0
3911,-355,-31,0,3918.0,3926.0,-359.0,-357.0,-27.0,-27.0
3904,-356,-33,0,3911.0,3918.0,-355.0,-359.0,-31.0,-27.0
3901,-361,-31,0,3904.0,3911.0,-356.0,-355.0,-33.0,-31.0
3906,-359,-33,0,3901.0,3904.0,-361.0,-356.0,-31.0,-33.0
3912,-355,-51,0,3906.0,3901.0,-359.0,-361.0,-33.0,-31.0
3920,-343,-68,0,3912.0,3906.0,-355.0,-359.0,-51.0,-33.0
3939,-327,-86,0,3920.0,3912.0,-343.0,-355.0,-68.0,-51.0
3956,-306,-119,0,3939.0,3920.0,-327.0,-343.0,-86.0,-68.0
3955,-274,-159,0,3956.0,3939.0,-306.0,-327.0,-119.0,-86.0
3956,-241,-203,0,3955.0,3956.0,-274.0,-306.0,-159.0,-119.0
3962,-221,-228,0,3956.0,3955.0,-241.0,-274.0,-203.0,-159.0
3960,-198,-248,0,3962.0,3956.0,-221.0,-241.0,-228.0,-203.0
3955,-187,-262,0,3960.0,3962.0,-198.0,-221.0,-248.0,-228.0
3948,-188,-281,0,3955.0,3960.0,-187.0,-198.0,-262.0,-248.0
3945,-187,-294,0,3948.0,3955.0,-188.0,-187.0,-281.0,-262.0
3935,-194,-294,0,3945.0,3948.0,-187.0,-188.0,-294.0,-281.0
3925,-197,-299,0,3935.0,3945.0,-194.0,-187.0,-294.0,-294.0
3914,-195,-300,0,3925.0,3935.0,-197.0,-194.0,-299.0,-294.0
3911,-190,-302,0,3914.0,3925.0,-195.0,-197.0,-300.0,-299.0
3905,-189,-310,0,3911.0,3914.0,-190.0,-195.0,-302.0,-300.0
3919,-180,-317,0,3905.0,3911.0,-189.0,-190.0,-310.0,-302.0
3939,-171,-316,0,3919.0,3905.0,-180.0,-189.0,-317.0,-310.0
3971,-152,-309,0,3939.0,3919.0,-171.0,-180.0,-316.0,-317.0
4004,-128,-296,0,3971.0,3939.0,-152.0,-171.0,-309.0,-316.0
4042,-113,-284,0,4004.0,3971.0,-128.0,-152.0,-296.0,-309.0
4070,-103,-279,0,4042.0,4004.0,-113.0,-128.0,-284.0,-296.0
4085,-102,-274,0,4070.0,4042.0,-103.0,-113.0,-279.0,-284.0
4095,-112,-264,0,4085.0,4070.0,-102.0,-103.0,-274.0,-279.0
4099,-134,-238,0,4095.0,4085.0,-112.0,-102.0,-264.0,-274.0
4102,-160,-209,0,4099.0,4095.0,-134.0,-112.0,-238.0,-264.0
4101,-189,-164,0,4102.0,4099.0,-160.0,-134.0,-209.0,-238.0
4100,-232,-113,0,4101.0,4102.0,-189.0,-160.0,-164.0,-209.0
4097,-277,-70,0,4100.0,4101.0,-232.0,-189.0,-113.0,-164.0
4091,-325,-41,0,4097.0,4100.0,-277.0,-232.0,-70.0,-113.0
4085,-370,-21,0,4091.0,4097.0,-325.0,-277.0,-41.0,-70.0
4083,-408,-6,0,4085.0,4091.0,-370.0,-325.0,-21.0,-41.0
4089,-438,5,0,4083.0,4085.0,-408.0,-370.0,-6.0,-21.0
4100,-450,26,0,4089.0,4083.0,-438.0,-408.0,5.0,-6.0
4130,-446,34,0,4100.0,4089.0,-450.0,-438.0,26.0,5.0
4172,-430,34,0,4130.0,4100.0,-446.0,-450.0,34.0,26.0
4226,-415,25,0,4172.0,4130.0,-430.0,-446.0,34.0,34.0
4281,-409,-4,0,4226.0,4172.0,-415.0,-430.0,25.0,34.0
4338,-400,-52,0,4281.0,4226.0,-409.0,-415.0,-4.0,25.0
4400,-402,-110,0,4338.0,4281.0,-400.0,-409.0,-52.0,-4.0
4477,-409,-164,0,4400.0,4338.0,-402.0,-400.0,-110.0,-52.0
4566,-410,-203,0,4477.0,4400.0,-409.0,-402.0,-164.0,-110.0
4654,-401,-229,0,4566.0,4477.0,-410.0,-409.0,-203.0,-164.0
4730,-375,-255,0,4654.0,4566.0,-401.0,-410.0,-229.0,-203.0
4784,-328,-293,0,4730.0,4654.0,-375.0,-401.0,-255.0,-229.0
4808,-246,-336,0,4784.0,4730.0,-328.0,-375.0,-293.0,-255.0
4791,-126,-359,0,4808.0,4784.0,-246.0,-328.0,-336.0,-293.0
4750,18,-368,0,4791.0,4808.0,-126.0,-246.0,-359.0,-336.0
4688,177,-371,0,4750.0,4791.0,18.0,-126.0,-368.0,-359.0
4616,330,-371,0,4688.0,4750.0,177.0,18.0,-371.0,-368.0
4561,453,-373,0,4616.0,4688.0,330.0,177.0,-371.0,-371.0
4516,524,-389,0,4561.0,4616.0,453.0,330.0,-373.0,-371.0
4489,512,-416,0,4516.0,4561.0,524.0,453.0,-389.0,-373.0
4476,447,-454,0,4489.0,4516.0,512.0,524.0,-416.0,-389.0
4470,357,-486,0,4476.0,4489.0,447.0,512.0,-454.0,-416.0
4476,250,-515,0,4470.0,4476.0,357.0,447.0,-486.0,-454.0
4494,146,-537,0,4476.0,4470.0,250.0,357.0,-515.0,-486.0
4510,44,-562,0,4494.0,4476.0,146.0,250.0,-537.0,-515.0
4531,-52,-588,0,4510.0,4494.0,44.0,146.0,-562.0,-537.0
4556,-134,-593,0,4531.0,4510.0,-52.0,44.0,-588.0,-562.0
4580,-205,-577,0,4556.0,4531.0,-134.0,-52.0,-593.0,-588.0
4600,-270,-556,0,4580.0,4556.0,-205.0,-134.0,-577.0,-593.0
4616,-338,-528,0,4600.0,4580.0,-270.0,-205.0,-556.0,-577.0
4627,-413,-500,0,4616.0,4600.0,-338.0,-270.0,-528.0,-556.0
4628,-495,-478,0,4627.0,4616.0,-413.0,-338.0,-500.0,-528.0
4609,-581,-469,0,4628.0,4627.0,-495.0,-413.0,-478.0,-500.0
4573,-672,-480,0,4609.0,4628.0,-581.0,-495.0,-469.0,-478.0
4522,-759,-489,0,4573.0,4609.0,-672.0,-581.0,-480.0,-469.0
4453,-837,-507,0,4522.0,4573.0,-759.0,-672.0,-489.0,-480.0
4365,-898,-519,0,4453.0,4522.0,-837.0,-759.0,-507.0,-489.0
4271,-943,-522,0,4365.0,4453.0,-898.0,-837.0,-519.0,-507.0
4182,-969,-527,0,4271.0,4365.0,-943.0,-898.0,-522.0,-519.0
4075,-975,-531,0,4182.0,4271.0,-969.0,-943.0,-527.0,-522.0
3960,-973,-533,0,4075.0,4182.0,-975.0,-969.0,-531.0,-527.0
3838,-969,-541,0,3960.0,4075.0,-973.0,-975.0,-533.0,-531.0
3720,-957,-542,0,3838.0,3960.0,-969.0,-973.0,-541.0,-533.0
3607,-943,-536,0,3720.0,3838.0,-957.0,-969.0,-542.0,-541.0
3499,-929,-508,0,3607.0,3720.0,-943.0,-957.0,-536.0,-542.0
3411,-919,-460,0,3499.0,3607.0,-929.0,-943.0,-508.0,-536.0
3325,-904,-406,0,3411.0,3499.0,-919.0,-929.0,-460.0,-508.0
3246,-895,-350,0,3325.0,3411.0,-904.0,-919.0,-406.0,-460.0
3178,-890,-292,0,3246.0,3325.0,-895.0,-904.0,-350.0,-406.0
3125,-894,-232,0,3178.0,3246.0,-890.0,-895.0,-292.0,-350.0
3092,-896,-167,0,3125.0,3178.0,-894.0,-890.0,-232.0,-292.0
3085,-894,-99,0,3092.0,3125.0,-896.0,-894.0,-167.0,-232.0
3101,-883,-42,0,3085.0,3092.0,-894.0,-896.0,-99.0,-167.0
3140,-863,5,0,3101.0,3085.0,-883.0,-894.0,-42.0,-99.0
3205,-833,32,0,3140.0,3101.0,-863.0,-883.0,5.0,-42.0
3298,-802,38,0,3205.0,3140.0,-833.0,-863.0,32.0,5.0
3421,-770,18,0,3298.0,3205.0,-802.0,-833.0,38.0,32.0
3576,-735,-1,0,3421.0,3298.0,-770.0,-802.0,18.0,38.0
3762,-700,-19,0,3576.0,3421.0,-735.0,-770.0,-1.0,18.0
3952,-657,-35,0,3762.0,3576.0,-700.0,-735.0,-19.0,-1.0
4158,-608,-43,0,3952.0,3762.0,-657.0,-700.0,-35.0,-19.0
4361,-554,-61,0,4158.0,3952.0,-608.0,-657.0,-43.0,-35.0
4548,-489,-100,0,4361.0,4158.0,-554.0,-608.0,-61.0,-43.0
4714,-433,-156,0,4548.0,4361.0,-489.0,-554.0,-100.0,-61.0
4862,-383,-207,0,4714.0,4548.0,-433.0,-489.0,-156.0,-100.0
4999,-344,-230,0,4862.0,4714.0,-383.0,-433.0,-207.0,-156.0
5129,-311,-226,0,4999.0,4862.0,-344.0,-383.0,-230.0,-207.0
5246,-291,-206,0,5129.0,4999.0,-311.0,-344.0,-226.0,-230.0
5339,-281,-154,0,5246.0,5129.0,-291.0,-311.0,-206.0,-226.0
5405,-274,-74,0,5339.0,5246.0,-281.0,-291.0,-154.0,-206.0
5421,-258,7,0,5405.0,5339.0,-274.0,-281.0,-74.0,-154.0
5383,-238,83,0,5421.0,5405.0,-258.0,-274.0,7.0,-74.0
5291,-224,144,0,5383.0,5421.0,-238.0,-258.0,83.0,7.0
5155,-217,193,0,5291.0,5383.0,-224.0,-238.0,144.0,83.0
4990,-223,243,0,5155.0,5291.0,-217.0,-224.0,193.0,144.0
4802,-241,286,0,4990.0,5155.0,-223.0,-217.0,243.0,193.0
4594,-261,320,0,4802.0,4990.0,-241.0,-223.0,286.0,243.0
4379,-270,347,0,4594.0,4802.0,-261.0,-241.0,320.0,286.0
4171,-274,372,0,4379.0,4594.0,-270.0,-261.0,347.0,320.0
3973,-266,403,0,4171.0,4379.0,-274.0,-270.0,372.0,347.0
3794,-256,436,0,3973.0,4171.0,-266.0,-274.0,403.0,372.0
3638,-232,456,0,3794.0,3973.0,-256.0,-266.0,436.0,403.0
3502,-204,469,0,3638.0,3794.0,-232.0,-256.0,456.0,436.0
3390,-172,471,0,3502.0,3638.0,-204.0,-232.0,469.0,456.0
3310,-150,468,0,3390.0,3502.0,-172.0,-204.0,471.0,469.0
3260,-138,452,0,3310.0,3390.0,-150.0,-172.0,468.0,471.0
3229,-129,428,0,3260.0,3310.0,-138.0,-150.0,452.0,468.0
3214,-123,399,0,3229.0,3260.0,-129.0,-138.0,428.0,452.0
3208,-119,373,0,3214.0,3229.0,-123.0,-129.0,399.0,428.0
3212,-121,361,0,3208.0,3214.0,-119.0,-123.0,373.0,399.0
3228,-130,357,0,3212.0,3208.0,-121.0,-119.0,361.0,373.0
3251,-147,354,0,3228.0,3212.0,-130.0,-121.0,357.0,361.0
3288,-171,356,0,3251.0,3228.0,-147.0,-130.0,354.0,357.0
3327,-201,360,0,3288.0,3251.0,-171.0,-147.0,356.0,354.0
3370,-234,374,0,3327.0,3288.0,-201.0,-171.0,360.0,356.0
3420,-266,390,0,3370.0,3327.0,-234.0,-201.0,374.0,360.0
3473,-291,405,0,3420.0,3370.0,-266.0,-234.0,390.0,374.0
3526,-312,415,0,3473.0,3420.0,-291.0,-266.0,405.0,390.0
3581,-334,424,0,3526.0,3473.0,-312.0,-291.0,415.0,405.0
3637,-349,429,0,3581.0,3526.0,-334.0,-312.0,424.0,415.0
3693,-363,431,0,3637.0,3581.0,-349.0,-334.0,429.0,424.0
3749,-371,428,0,3693.0,3637.0,-363.0,-349.0,431.0,429.0
3792,-378,427,0,3749.0,3693.0,-371.0,-363.0,428.0,431.0
3836,-382,419,0,3792.0,3749.0,-378.0,-371.0,427.0,428.0
3872,-375,414,0,3836.0,3792.0,-382.0,-378.0,419.0,427.0
3898,-368,416,0,3872.0,3836.0,-375.0,-382.0,414.0,419.0
3922,-360,432,0,3898.0,3872.0,-368.0,-375.0,416.0,414.0
3932,-352,449,0,3922.0,3898.0,-360.0,-368.0,432.0,416.0
3935,-342,473,0,3932.0,3922.0,-352.0,-360.0,449.0,432.0
3933,-332,499,0,3935.0,3932.0,-342.0,-352.0,473.0,449.0
3927,-331,525,0,3933.0,3935.0,-332.0,-342.0,499.0,473.0
3918,-335,545,0,3927.0,3933.0,-331.0,-332.0,525.0,499.0
3897,-332,558,0,3918.0,3927.0,-335.0,-331.0,545.0,525.0
3864,-332,559,0,3897.0,3918.0,-332.0,-335.0,558.0,545.0
3829,-336,553,0,3864.0,3897.0,-332.0,-332.0,559.0,558.0
3788,-336,546,0,3829.0,3864.0,-336.0,-332.0,553.0,559.0
3750,-334,549,0,3788.0,3829.0,-336.0,-336.0,546.0,553.0
3710,-335,545,0,3750.0,3788.0,-334.0,-336.0,549.0,546.0
3672,-341,523,0,3710.0,3750.0,-335.0,-334.0,545.0,549.0
3639,-348,494,0,3672.0,3710.0,-341.0,-335.0,523.0,545.0
3614,-351,463,0,3639.0,3672.0,-348.0,-341.0,494.0,523.0
3606,-350,451,0,3614.0,3639.0,-351.0,-348.0,463.0,494.0
3614,-340,450,0,3606.0,3614.0,-350.0,-351.0,451.0,463.0
3627,-315,454,0,3614.0,3606.0,-340.0,-350.0,450.0,451.0
3650,-296,458,0,3627.0,3614.0,-315.0,-340.0,454.0,450.0
3674,-280,453,0,3650.0,3627.0,-296.0,-315.0,458.0,454.0
3693,-262,442,0,3674.0,3650.0,-280.0,-296.0,453.0,458.0
3709,-243,434,0,3693.0,3674.0,-262.0,-280.0,442.0,453.0
3722,-219,428,0,3709.0,3693.0,-243.0,-262.0,434.0,442.0
3731,-193,421,0,3722.0,3709.0,-219.0,-243.0,428.0,434.0
3736,-162,419,0,3731.0,3722.0,-193.0,-219.0,421.0,428.0
3741,-129,417,0,3736.0,3731.0,-162.0,-193.0,419.0,421.0
3745,-97,426,0,3741.0,3736.0,-129.0,-162.0,417.0,419.0
3749,-66,438,0,3745.0,3741.0,-97.0,-129.0,426.0,417.0
3760,-41,456,0,3749.0,3745.0,-66.0,-97.0,438.0,426.0
3769,-26,473,0,3760.0,3749.0,-41.0,-66.0,456.0,438.0
3780,-19,490,0,3769.0,3760.0,-26.0,-41.0,473.0,456.0
3801,-22,518,0,3780.0,3769.0,-19.0,-26.0,490.0,473.0
3827,-23,541,0,3801.0,3780.0,-22.0,-19.0,518.0,490.0
3853,-33,549,0,3827.0,3801.0,-23.0,-22.0,541.0,518.0
3866,-48,545,0,3853.0,3827.0,-33.0,-23.0,549.0,541.0
3866,-69,517,0,3866.0,3853.0,-48.0,-33.0,545.0,549.0
3861,-97,486,0,3866.0,3866.0,-69.0,-48.0,517.0,545.0
3853,-127,457,0,3861.0,3866.0,-97.0,-69.0,486.0,517.0
3836,-160,425,0,3853.0,3861.0,-127.0,-97.0,457.0,486.0
3825,-199,400,0,3836.0,3853.0,-160.0,-127.0,425.0,457.0
3811,-240,381,0,3825.0,3836.0,-199.0,-160.0,400.0,425.0
3799,-283,367,0,3811.0,3825.0,-240.0,-199.0,381.0,400.0
3796,-315,372,0,3799.0,3811.0,-283.0,-240.0,367.0,381.0
3797,-336,384,0,3796.0,3799.0,-315.0,-283.0,372.0,367.0
3812,-352,400,0,3797.0,3796.0,-336.0,-315.0,384.0,372.0
3827,-360,419,0,3812.0,3797.0,-352.0,-336.0,400.0,384.0
3852,-372,432,0,3827.0,3812.0,-360.0,-352.0,419.0,400.0
3878,-385,425,0,3852.0,3827.0,-372.0,-360.0,432.0,419.0
3909,-402,413,0,3878.0,3852.0,-385.0,-372.0,425.0,432.0
3938,-429,399,0,3909.0,3878.0,-402.0,-385.0,413.0,425.0
3969,-455,385,0,3938.0,3909.0,-429.0,-402.0,399.0,413.0
3995,-486,364,0,3969.0,3938.0,-455.0,-429.0,385.0,399.0
4012,-519,342,0,3995.0,3969.0,-486.0,-455.0,364.0,385.0
4019,-550,310,0,4012.0,3995.0,-519.0,-486.0,342.0,364.0
4026,-580,283,0,4019.0,4012.0,-550.0,-519.0,310.0,342.0
4026,-605,270,0,4026.0,4019.0,-580.0,-550.0,283.0,310.0
4022,-622,274,0,4026.0,4026.0,-605.0,-580.0,270.0,283.0
4029,-634,298,0,4022.0,4026.0,-622.0,-605.0,274.0,270.0
4040,-636,343,0,4029.0,4022.0,-634.0,-622.0,298.0,274.0
4065,-636,404,0,4040.0,4029.0,-636.0,-634.0,343.0,298.0
4088,-623,479,0,4065.0,4040.0,-636.0,-636.0,404.0,343.0
4128,-598,553,0,4088.0,4065.0,-623.0,-636.0,479.0,404.0
4169,-570,622,0,4128.0,4088.0,-598.0,-623.0,553.0,479.0
4199,-532,673,0,4169.0,4128.0,-570.0,-598.0,622.0,553.0
4220,-486,711,0,4199.0,4169.0,-532.0,-570.0,673.0,622.0
4229,-431,738,0,4220.0,4199.0,-486.0,-532.0,711.0,673.0
4235,-367,759,0,4229.0,4220.0,-431.0,-486.0,738.0,711.0
4232,-297,781,0,4235.0,4229.0,-367.0,-431.0,759.0,738.0
4231,-218,810,0,4232.0,4235.0,-297.0,-367.0,781.0,759.0
4233,-129,855,0,4231.0,4232.0,-218.0,-297.0,810.0,781.0
4234,-35,908,0,4233.0,4231.0,-129.0,-218.0,855.0,810.0
4233,51,954,0,4234.0,4233.0,-35.0,-129.0,908.0,855.0
4228,121,987,0,4233.0,4234.0,51.0,-35.0,954.0,908.0
4228,178,1015,0,4228.0,4233.0,121.0,51.0,987.0,954.0
4250,212,1050,0,4228.0,4228.0,178.0,121.0,1015.0,987.0
4303,198,1069,0,4250.0,4228.0,212.0,178.0,1050.0,1015.0
4386,124,965,0,4303.0,4250.0,198.0,212.0,1069.0,1050.0
4473,-13,667,0,4386.0,4303.0,124.0,198.0,965.0,1069.0
4556,-227,212,0,4473.0,4386.0,-13.0,124.0,667.0,965.0
4673,-490,-227,0,4556.0,4473.0,-227.0,-13.0,212.0,667.0
4856,-762,-444,0,4673.0,4556.0,-490.0,-227.0,-227.0,212.0
5116,-953,-344,0,4856.0,4673.0,-762.0,-490.0,-444.0,-227.0
5397,-1021,-32,0,5116.0,4856.0,-953.0,-762.0,-344.0,-444.0
5642,-1010,297,0,5397.0,5116.0,-1021.0,-953.0,-32.0,-344.0
5795,-986,472,0,5642.0,5397.0,-1010.0,-1021.0,297.0,-32.0
5833,-1027,424,0,5795.0,5642.0,-986.0,-1010.0,472.0,297.0
5790,-1171,216,0,5833.0,5795.0,-1027.0,-986.0,424.0,472.0
5695,-1379,-36,0,5790.0,5833.0,-1171.0,-1027.0,216.0,424.0
5574,-1559,-216,0,5695.0,5790.0,-1379.0,-1171.0,-36.0,216.0
5436,-1635,-222,0,5574.0,5695.0,-1559.0,-1379.0,-216.0,-36.0
5291,-1612,-81,0,5436.0,5574.0,-1635.0,-1559.0,-222.0,-216.0
5144,-1563,97,0,5291.0,5436.0,-1612.0,-1635.0,-81.0,-222.0
5003,-1561,225,0,5144.0,5291.0,-1563.0,-1612.0,97.0,-81.0
4858,-1600,281,0,5003.0,5144.0,-1561.0,-1563.0,225.0,97.0
4713,-1656,296,0,4858.0,5003.0,-1600.0,-1561.0,281.0,225.0
4563,-1703,305,0,4713.0,4858.0,-1656.0,-1600.0,296.0,281.0
4404,-1713,310,0,4563.0,4713.0,-1703.0,-1656.0,305.0,296.0
4238,-1690,302,0,4404.0,4563.0,-1713.0,-1703.0,310.0,305.0
4049,-1630,286,0,4238.0,4404.0,-1690.0,-1713.0,302.0,310.0
3852,-1538,249,0,4049.0,4238.0,-1630.0,-1690.0,286.0,302.0
3664,-1411,211,0,3852.0,4049.0,-1538.0,-1630.0,249.0,286.0
3484,-1258,179,0,3664.0,3852.0,-1411.0,-1538.0,211.0,249.0
3325,-1094,143,0,3484.0,3664.0,-1258.0,-1411.0,179.0,211.0
3193,-923,97,0,3325.0,3484.0,-1094.0,-1258.0,143.0,179.0
3079,-763,52,0,3193.0,3325.0,-923.0,-1094.0,97.0,143.0
2987,-615,3,0,3079.0,3193.0,-763.0,-923.0,52.0,97.0
2928,-484,-25,0,2987.0,3079.0,-615.0,-763.0,3.0,52.0
2897,-359,-15,0,2928.0,2987.0,-484.0,-615.0,-25.0,3.0
2891,-251,8,0,2897.0,2928.0,-359.0,-484.0,-15.0,-25.0
2900,-178,8,0,2891.0,2897.0,-251.0,-359.0,8.0,-15.0
2916,-146,-25,0,2900.0,2891.0,-178.0,-251.0,8.0,8.0
2938,-147,-70,0,2916.0,2900.0,-146.0,-178.0,-25.0,8.0
2953,-159,-115,0,2938.0,2916.0,-147.0,-146.0,-70.0,-25.0
2968,-189,-192,0,2953.0,2938.0,-159.0,-147.0,-115.0,-70.0
2976,-248,-308,0,2968.0,2953.0,-189.0,-159.0,-192.0,-115.0
2993,-319,-409,0,2976.0,2968.0,-248.0,-189.0,-308.0,-192.0
3027,-393,-475,0,2993.0,2976.0,-319.0,-248.0,-409.0,-308.0
3086,-464,-506,0,3027.0,2993.0,-393.0,-319.0,-475.0,-409.0
3176,-538,-523,0,3086.0,3027.0,-464.0,-393.0,-506.0,-475.0
3297,-622,-529,0,3176.0,3086.0,-538.0,-464.0,-523.0,-506.0
3446,-701,-531,0,3297.0,3176.0,-622.0,-538.0,-529.0,-523.0
3615,-773,-541,0,3446.0,3297.0,-701.0,-622.0,-531.0,-529.0
3793,-844,-558,0,3615.0,3446.0,-773.0,-701.0,-541.0,-531.0
3977,-912,-565,0,3793.0,3615.0,-844.0,-773.0,-558.0,-541.0
4162,-977,-560,0,3977.0,3793.0,-912.0,-844.0,-565.0,-558.0
4343,-1029,-538,0,4162.0,3977.0,-977.0,-912.0,-560.0,-565.0
4515,-1074,-497,0,4343.0,4162.0,-1029.0,-977.0,-538.0,-560.0
4664,-1115,-460,0,4515.0,4343.0,-1074.0,-1029.0,-497.0,-538.0
4777,-1156,-429,0,4664.0,4515.0,-1115.0,-1074.0,-460.0,-497.0
4843,-1195,-406,0,4777.0,4664.0,-1156.0,-1115.0,-429.0,-460.0
4862,-1237,-391,0,4843.0,4777.0,-1195.0,-1156.0,-406.0,-429.0
4838,-1281,-382,0,4862.0,4843.0,-1237.0,-1195.0,-391.0,-406.0
4775,-1332,-364,0,4838.0,4862.0,-1281.0,-1237.0,-382.0,-391.0
4669,-1391,-347,0,4775.0,4838.0,-1332.0,-1281.0,-364.0,-382.0
4525,-1439,-326,0,4669.0,4775.0,-1391.0,-1332.0,-347.0,-364.0
4357,-1468,-301,0,4525.0,4669.0,-1439.0,-1391.0,-326.0,-347.0
4174,-1478,-259,0,4357.0,4525.0,-1468.0,-1439.0,-301.0,-326.0
3981,-1458,-214,0,4174.0,4357.0,-1478.0,-1468.0,-259.0,-301.0
3791,-1411,-179,0,3981.0,4174.0,-1458.0,-1478.0,-214.0,-259.0
3617,-1345,-154,0,3791.0,3981.0,-1411.0,-1458.0,-179.0,-214.0
3478,-1278,-131,0,3617.0,3791.0,-1345.0,-1411.0,-154.0,-179.0
3387,-1230,-119,0,3478.0,3617.0,-1278.0,-1345.0,-131.0,-154.0
3344,-1204,-121,0,3387.0,3478.0,-1230.0,-1278.0,-119.0,-131.0
3346,-1190,-130,0,3344.0,3387.0,-1204.0,-1230.0,-121.0,-119.0
3385,-1177,-127,0,3346.0,3344.0,-1190.0,-1204.0,-130.0,-121.0
3456,-1161,-109,0,3385.0,3346.0,-1177.0,-1190.0,-127.0,-130.0
3547,-1137,-85,0,3456.0,3385.0,-1161.0,-1177.0,-109.0,-127.0
3638,-1109,-69,0,3547.0,3456.0,-1137.0,-1161.0,-85.0,-109.0
3724,-1076,-58,0,3638.0,3547.0,-1109.0,-1137.0,-69.0,-85.0
3798,-1046,-57,0,3724.0,3638.0,-1076.0,-1109.0,-58.0,-69.0
3855,-1012,-77,0,3798.0,3724.0,-1046.0,-1076.0,-57.0,-58.0
3888,-987,-108,0,3855.0,3798.0,-1012.0,-1046.0,-77.0,-57.0
3904,-954,-152,0,3888.0,3855.0,-987.0,-1012.0,-108.0,-77.0
3898,-923,-196,0,3904.0,3888.0,-954.0,-987.0,-152.0,-108.0
3879,-892,-232,0,3898.0,3904.0,-923.0,-954.0,-196.0,-152.0
3851,-860,-271,0,3879.0,3898.0,-892.0,-923.0,-232.0,-196.0
3815,-838,-308,0,3851.0,3879.0,-860.0,-892.0,-271.0,-232.0
3774,-814,-356,0,3815.0,3851.0,-838.0,-860.0,-308.0,-271.0
3736,-795,-401,0,3774.0,3815.0,-814.0,-838.0,-356.0,-308.0
3706,-773,-440,0,3736.0,3774.0,-795.0,-814.0,-401.0,-356.0
3682,-753,-450,0,3706.0,3736.0,-773.0,-795.0,-440.0,-401.0
3670,-731,-444,0,3682.0,3706.0,-753.0,-773.0,-450.0,-440.0
3674,-708,-428,0,3670.0,3682.0,-731.0,-753.0,-444.0,-450.0
3680,-692,-411,0,3674.0,3670.0,-708.0,-731.0,-428.0,-444.0
3693,-681,-395,0,3680.0,3674.0,-692.0,-708.0,-411.0,-428.0
3714,-675,-388,0,3693.0,3680.0,-681.0,-692.0,-395.0,-411.0
3742,-674,-379,0,3714.0,3693.0,-675.0,-681.0,-388.0,-395.0
3769,-680,-372,0,3742.0,3714.0,-674.0,-675.0,-379.0,-388.0
3807,-683,-361,0,3769.0,3742.0,-680.0,-674.0,-372.0,-379.0
3848,-673,-332,0,3807.0,3769.0,-683.0,-680.0,-361.0,-372.0
3891,-659,-295,0,3848.0,3807.0,-673.0,-683.0,-332.0,-361.0
3931,-640,-275,0,3891.0,3848.0,-659.0,-673.0,-295.0,-332.0
3969,-612,-259,0,3931.0,3891.0,-640.0,-659.0,-275.0,-295.0
4005,-581,-246,0,3969.0,3931.0,-612.0,-640.0,-259.0,-275.0
4038,-539,-224,0,4005.0,3969.0,-581.0,-612.0,-246.0,-259.0
4061,-495,-198,0,4038.0,4005.0,-539.0,-581.0,-224.0,-246.0
4078,-440,-174,0,4061.0,4038.0,-495.0,-539.0,-198.0,-224.0
4089,-380,-157,0,4078.0,4061.0,-440.0,-495.0,-174.0,-198.0
4095,-321,-139,0,4089.0,4078.0,-380.0,-440.0,-157.0,-174.0
4102,-271,-120,0,4095.0,4089.0,-321.0,-380.0,-139.0,-157.0
4106,-233,-110,0,4102.0,4095.0,-271.0,-321.0,-120.0,-139.0
4104,-203,-105,0,4106.0,4102.0,-233.0,-271.0,-110.0,-120.0
4107,-186,-102,0,4104.0,4106.0,-203.0,-233.0,-105.0,-110.0
4110,-177,-92,0,4107.0,4104.0,-186.0,-203.0,-102.0,-105.0
4114,-169,-68,0,4110.0,4107.0,-177.0,-186.0,-92.0,-102.0
4122,-165,-36,0,4114.0,4110.0,-169.0,-177.0,-68.0,-92.0
4120,-178,-5,0,4122.0,4114.0,-165.0,-169.0,-36.0,-68.0
4112,-197,7,0,4120.0,4122.0,-178.0,-165.0,-5.0,-36.0
4103,-213,13,0,4112.0,4120.0,-197.0,-178.0,7.0,-5.0
4085,-232,22,0,4103.0,4112.0,-213.0,-197.0,13.0,7.0
4072,-255,40,0,4085.0,4103.0,-232.0,-213.0,22.0,13.0
4051,-274,69,0,4072.0,4085.0,-255.0,-232.0,40.0,22.0
4024,-291,104,0,4051.0,4072.0,-274.0,-255.0,69.0,40.0
3991,-311,128,0,4024.0,4051.0,-291.0,-274.0,104.0,69.0
3962,-336,153,0,3991.0,4024.0,-311.0,-291.0,128.0,104.0
3934,-366,174,0,3962.0,3991.0,-336.0,-311.0,153.0,128.0
3910,-393,198,0,3934.0,3962.0,-366.0,-336.0,174.0,153.0
3889,-416,217,0,3910.0,3934.0,-393.0,-366.0,198.0,174.0
3870,-438,234,0,3889.0,3910.0,-416.0,-393.0,217.0,198.0
3855,-469,245,0,3870.0,3889.0,-438.0,-416.0,234.0,217.0
3844,-496,248,0,3855.0,3870.0,-469.0,-438.0,245.0,234.0
3841,-520,252,0,3844.0,3855.0,-496.0,-469.0,248.0,245.0
3843,-537,251,0,3841.0,3844.0,-520.0,-496.0,252.0,248.0
3847,-548,256,0,3843.0,3841.0,-537.0,-520.0,251.0,252.0
3862,-553,264,0,3847.0,3843.0,-548.0,-537.0,256.0,251.0
3870,-548,272,0,3862.0,3847.0,-553.0,-548.0,264.0,256.0
3882,-540,272,0,3870.0,3862.0,-548.0,-553.0,272.0,264.0
3885,-534,268,0,3882.0,3870.0,-540.0,-548.0,272.0,272.0
3885,-532,270,0,3885.0,3882.0,-534.0,-540.0,268.0,272.0
3884,-528,272,0,3885.0,3885.0,-532.0,-534.0,270.0,268.0
3881,-523,275,0,3884.0,3885.0,-528.0,-532.0,272.0,270.0
3874,-515,273,0,3881.0,3884.0,-523.0,-528.0,275.0,272.0
3854,-506,247,0,3874.0,3881.0,-515.0,-523.0,273.0,275.0
3851,-498,229,0,3854.0,3874.0,-506.0,-515.0,247.0,273.0
3852,-472,232,0,3851.0,3854.0,-498.0,-506.0,229.0,247.0
3850,-423,232,0,3852.0,3851.0,-472.0,-498.0,232.0,229.0
3850,-373,216,0,3850.0,3852.0,-423.0,-472.0,232.0,232.0
3855,-321,181,0,3850.0,3850.0,-373.0,-423.0,216.0,232.0
3864,-277,146,0,3855.0,3850.0,-321.0,-373.0,181.0,216.0
3872,-237,118,0,3864.0,3855.0,-277.0,-321.0,146.0,181.0
3882,-203,98,0,3872.0,3864.0,-237.0,-277.0,118.0,146.0
3898,-183,91,0,3882.0,3872.0,-203.0,-237.0,98.0,118.0
3906,-170,93,0,3898.0,3882.0,-183.0,-203.0,91.0,98.0
3917,-166,91,0,3906.0,3898.0,-170.0,-183.0,93.0,91.0
3930,-175,83,0,3917.0,3906.0,-166.0,-170.0,91.0,93.0
3932,-198,71,0,3930.0,3917.0,-175.0,-166.0,83.0,91.0
3937,-232,56,0,3932.0,3930.0,-198.0,-175.0,71.0,83.0
3940,-262,61,0,3937.0,3932.0,-232.0,-198.0,56.0,71.0
3945,-297,76,0,3940.0,3937.0,-262.0,-232.0,61.0,56.0
3950,-327,80,0,3945.0,3940.0,-297.0,-262.0,76.0,61.0
3951,-352,89,0,3950.0,3945.0,-327.0,-297.0,80.0,76.0
3951,-365,98,0,3951.0,3950.0,-352.0,-327.0,89.0,80.0
3945,-375,95,0,3951.0,3951.0,-365.0,-352.0,98.0,89.0
3934,-377,86,0,3945.0,3951.0,-375.0,-365.0,95.0,98.0
3912,-379,76,0,3934.0,3945.0,-377.0,-375.0,86.0,95.0
3900,-374,79,0,3912.0,3934.0,-379.0,-377.0,76.0,86.0
3890,-360,91,0,3900.0,3912.0,-374.0,-379.0,79.0,76.0
3876,-360,93,0,3890.0,3900.0,-360.0,-374.0,91.0,79.0
3861,-357,81,0,3876.0,3890.0,-360.0,-360.0,93.0,91.0
3850,-367,71,0,3861.0,3876.0,-357.0,-360.0,81.0,93.0
3835,-379,53,0,3850.0,3861.0,-367.0,-357.0,71.0,81.0
3819,-402,34,0,3835.0,3850.0,-379.0,-367.0,53.0,71.0
3814,-430,26,0,3819.0,3835.0,-402.0,-379.0,34.0,53.0
3816,-452,25,0,3814.0,3819.0,-430.0,-402.0,26.0,34.0
3820,-467,25,0,3816.0,3814.0,-452.0,-430.0,25.0,26.0
3829,-476,14,0,3820.0,3816.0,-467.0,-452.0,25.0,25.0
3838,-479,9,0,3829.0,3820.0,-476.0,-467.0,14.0,25.0
3850,-476,1,0,3838.0,3829.0,-479.0,-476.0,9.0,14.0
3852,-460,-8,0,3850.0,3838.0,-476.0,-479.0,1.0,9.0
3863,-448,-19,0,3852.0,3850.0,-460.0,-476.0,-8.0,1.0
3876,-425,-27,0,3863.0,3852.0,-448.0,-460.0,-19.0,-8.0
3884,-402,-31,0,3876.0,3863.0,-425.0,-448.0,-27.0,-19.0
3899,-383,-36,0,3884.0,3876.0,-402.0,-425.0,-31.0,-27.0
3917,-364,-35,0,3899.0,3884.0,-383.0,-402.0,-36.0,-31.0
3936,-348,-35,0,3917.0,3899.0,-364.0,-383.0,-35.0,-36.0
3959,-332,-35,0,3936.0,3917.0,-348.0,-364.0,-35.0,-35.0
3988,-320,-35,0,3959.0,3936.0,-332.0,-348.0,-35.0,-35.0
4030,-309,-33,0,3988.0,3959.0,-320.0,-332.0,-35.0,-35.0
4070,-296,-26,0,4030.0,3988.0,-309.0,-320.0,-33.0,-35.0
4115,-287,-28,0,4070.0,4030.0,-296.0,-309.0,-26.0,-33.0
4150,-285,-51,0,4115.0,4070.0,-287.0,-296.0,-28.0,-26.0
4184,-294,-88,0,4150.0,4115.0,-285.0,-287.0,-51.0,-28.0
4212,-309,-130,0,4184.0,4150.0,-294.0,-285.0,-88.0,-51.0
4243,-320,-175,0,4212.0,4184.0,-309.0,-294.0,-130.0,-88.0
4287,-317,-225,0,4243.0,4212.0,-320.0,-309.0,-175.0,-130.0
4342,-292,-267,0,4287.0,4243.0,-317.0,-320.0,-225.0,-175.0
4399,-226,-294,0,4342.0,4287.0,-292.0,-317.0,-267.0,-225.0
4465,-120,-310,0,4399.0,4342.0,-226.0,-292.0,-294.0,-267.0
4533,4,-310,0,4465.0,4399.0,-120.0,-226.0,-310.0,-294.0
4599,144,-308,0,4533.0,4465.0,4.0,-120.0,-310.0,-310.0
4654,289,-313,0,4599.0,4533.0,144.0,4.0,-308.0,-310.0
4707,424,-318,0,4654.0,4599.0,289.0,144.0,-313.0,-308.0
4760,535,-328,0,4707.0,4654.0,424.0,289.0,-318.0,-313.0
4812,615,-346,0,4760.0,4707.0,535.0,424.0,-328.0,-318.0
4858,663,-382,0,4812.0,4760.0,615.0,535.0,-346.0,-328.0
4906,674,-412,0,4858.0,4812.0,663.0,615.0,-382.0,-346.0
4941,655,-406,0,4906.0,4858.0,674.0,663.0,-412.0,-382.0
4978,603,-379,0,4941.0,4906.0,655.0,674.0,-406.0,-412.0
4996,501,-371,0,4978.0,4941.0,603.0,655.0,-379.0,-406.0
4986,348,-399,0,4996.0,4978.0,501.0,603.0,-371.0,-379.0
4951,168,-438,0,4986.0,4996.0,348.0,501.0,-399.0,-371.0
4899,-14,-461,0,4951.0,4986.0,168.0,348.0,-438.0,-399.0
4851,-178,-450,0,4899.0,4951.0,-14.0,168.0,-461.0,-438.0
4799,-315,-419,0,4851.0,4899.0,-178.0,-14.0,-450.0,-461.0
4742,-431,-392,0,4799.0,4851.0,-315.0,-178.0,-419.0,-450.0
4689,-523,-363,0,4742.0,4799.0,-431.0,-315.0,-392.0,-419.0
4639,-595,-326,0,4689.0,4742.0,-523.0,-431.0,-363.0,-392.0
4598,-653,-284,0,4639.0,4689.0,-595.0,-523.0,-326.0,-363.0
4566,-686,-256,0,4598.0,4639.0,-653.0,-595.0,-284.0,-326.0
4519,-699,-264,0,4566.0,4598.0,-686.0,-653.0,-256.0,-284.0
4461,-688,-295,0,4519.0,4566.0,-699.0,-686.0,-264.0,-256.0
4390,-666,-349,0,4461.0,4519.0,-688.0,-699.0,-295.0,-264.0
4310,-624,-398,0,4390.0,4461.0,-666.0,-688.0,-349.0,-295.0
4221,-573,-454,0,4310.0,4390.0,-624.0,-666.0,-398.0,-349.0
4138,-525,-503,0,4221.0,4310.0,-573.0,-624.0,-454.0,-398.0
4048,-479,-552,0,4138.0,4221.0,-525.0,-573.0,-503.0,-454.0
3956,-425,-583,0,4048.0,4138.0,-479.0,-525.0,-552.0,-503.0
3861,-377,-606,0,3956.0,4048.0,-425.0,-479.0,-583.0,-552.0
3761,-334,-617,0,3861.0,3956.0,-377.0,-425.0,-606.0,-583.0
3666,-290,-606,0,3761.0,3861.0,-334.0,-377.0,-617.0,-606.0
3577,-242,-578,0,3666.0,3761.0,-290.0,-334.0,-606.0,-617.0
3498,-196,-532,0,3577.0,3666.0,-242.0,-290.0,-578.0,-606.0
3438,-144,-475,0,3498.0,3577.0,-196.0,-242.0,-532.0,-578.0
3398,-93,-388,0,3438.0,3498.0,-144.0,-196.0,-475.0,-532.0
3373,-49,-283,0,3398.0,3438.0,-93.0,-144.0,-388.0,-475.0
3368,-12,-175,0,3373.0,3398.0,-49.0,-93.0,-283.0,-388.0
3382,16,-70,0,3368.0,3373.0,-12.0,-49.0,-175.0,-283.0
3415,20,17,0,3382.0,3368.0,16.0,-12.0,-70.0,-175.0
3466,6,83,0,3415.0,3382.0,20.0,16.0,17.0,-70.0
3534,-38,102,0,3466.0,3415.0,6.0,20.0,83.0,17.0
3619,-111,79,0,3534.0,3466.0,-38.0,6.0,102.0,83.0
3725,-213,24,0,3619.0,3534.0,-111.0,-38.0,79.0,102.0
3851,-331,-53,0,3725.0,3619.0,-213.0,-111.0,24.0,79.0
3976,-449,-139,0,3851.0,3725.0,-331.0,-213.0,-53.0,24.0
4108,-544,-213,0,3976.0,3851.0,-449.0,-331.0,-139.0,-53.0
4251,-613,-250,0,4108.0,3976.0,-544.0,-449.0,-213.0,-139.0
4406,-668,-265,0,4251.0,4108.0,-613.0,-544.0,-250.0,-213.0
4577,-707,-258,0,4406.0,4251.0,-668.0,-613.0,-265.0,-250.0
4752,-715,-239,0,4577.0,4406.0,-707.0,-668.0,-258.0,-265.0
4929,-700,-214,0,4752.0,4577.0,-715.0,-707.0,-239.0,-258.0
5103,-675,-189,0,4929.0,4752.0,-700.0,-715.0,-214.0,-239.0
5273,-640,-151,0,5103.0,4929.0,-675.0,-700.0,-189.0,-214.0
5424,-595,-103,0,5273.0,5103.0,-640.0,-675.0,-151.0,-189.0
5544,-551,-54,0,5424.0,5273.0,-595.0,-640.0,-103.0,-151.0
5611,-508,-23,0,5544.0,5424.0,-551.0,-595.0,-54.0,-103.0
5629,-464,-3,0,5611.0,5544.0,-508.0,-551.0,-23.0,-54.0
5596,-417,1,0,5629.0,5611.0,-464.0,-508.0,-3.0,-23.0
5505,-386,-22,0,5596.0,5629.0,-417.0,-464.0,1.0,-3.0
5379,-362,-52,0,5505.0,5596.0,-386.0,-417.0,-22.0,1.0
5214,-351,-80,0,5379.0,5505.0,-362.0,-386.0,-52.0,-22.0
5030,-347,-90,0,5214.0,5379.0,-351.0,-362.0,-80.0,-52.0
4833,-333,-84,0,5030.0,5214.0,-347.0,-351.0,-90.0,-80.0
4626,-306,-49,0,4833.0,5030.0,-333.0,-347.0,-84.0,-90.0
4430,-265,3,0,4626.0,4833.0,-306.0,-333.0,-49.0,-84.0
4249,-221,75,0,4430.0,4626.0,-265.0,-306.0,3.0,-49.0
4073,-171,142,0,4249.0,4430.0,-221.0,-265.0,75.0,3.0
3908,-128,198,0,4073.0,4249.0,-171.0,-221.0,142.0,75.0
3766,-100,234,0,3908.0,4073.0,-128.0,-171.0,198.0,142.0
3640,-79,258,0,3766.0,3908.0,-100.0,-128.0,234.0,198.0
3537,-62,274,0,3640.0,3766.0,-79.0,-100.0,258.0,234.0
3453,-47,291,0,3537.0,3640.0,-62.0,-79.0,274.0,258.0
3396,-31,306,0,3453.0,3537.0,-47.0,-62.0,291.0,274.0
3356,-18,316,0,3396.0,3453.0,-31.0,-47.0,306.0,291.0
3334,-9,320,0,3356.0,3396.0,-18.0,-31.0,316.0,306.0
3328,-4,310,0,3334.0,3356.0,-9.0,-18.0,320.0,316.0
3327,-3,297,0,3328.0,3334.0,-4.0,-9.0,310.0,320.0
3340,-4,292,0,3327.0,3328.0,-3.0,-4.0,297.0,310.0
3358,-7,305,0,3340.0,3327.0,-4.0,-3.0,292.0,297.0
3382,-11,317,0,3358.0,3340.0,-7.0,-4.0,305.0,292.0
3407,-15,337,0,3382.0,3358.0,-11.0,-7.0,317.0,305.0
3436,-18,359,0,3407.0,3382.0,-15.0,-11.0,337.0,317.0
3474,-26,391,0,3436.0,3407.0,-18.0,-15.0,359.0,337.0
3518,-38,420,0,3474.0,3436.0,-26.0,-18.0,391.0,359.0
3560,-52,436,0,3518.0,3474.0,-38.0,-26.0,420.0,391.0
3609,-67,440,0,3560.0,3518.0,-52.0,-38.0,436.0,420.0
3667,-87,440,0,3609.0,3560.0,-67.0,-52.0,440.0,436.0
3720,-109,444,0,3667.0,3609.0,-87.0,-67.0,440.0,440.0
3782,-134,457,0,3720.0,3667.0,-109.0,-87.0,444.0,440.0
3844,-175,470,0,3782.0,3720.0,-134.0,-109.0,457.0,444.0
3900,-214,478,0,3844.0,3782.0,-175.0,-134.0,470.0,457.0
3939,-244,485,0,3900.0,3844.0,-214.0,-175.0,478.0,470.0
3969,-280,488,0,3939.0,3900.0,-244.0,-214.0,485.0,478.0
3991,-314,491,0,3969.0,3939.0,-280.0,-244.0,488.0,485.0
4004,-341,498,0,3991.0,3969.0,-314.0,-280.0,491.0,488.0
4007,-359,516,0,4004.0,3991.0,-341.0,-314.0,498.0,491.0
4002,-367,539,0,4007.0,4004.0,-359.0,-341.0,516.0,498.0
3998,-373,562,0,4002.0,4007.0,-367.0,-359.0,539.0,516.0
3994,-363,590,0,3998.0,4002.0,-373.0,-367.0,562.0,539.0
3983,-352,598,0,3994.0,3998.0,-363.0,-373.0,590.0,562.0
3971,-335,604,0,3983.0,3994.0,-352.0,-363.0,598.0,590.0
3956,-318,600,0,3971.0,3983.0,-335.0,-352.0,604.0,598.0
3939,-298,589,0,3956.0,3971.0,-318.0,-335.0,600.0,604.0
3923,-284,580,0,3939.0,3956.0,-298.0,-318.0,589.0,600.0
3914,-266,578,0,3923.0,3939.0,-284.0,-298.0,580.0,589.0
3907,-255,585,0,3914.0,3923.0,-266.0,-284.0,578.0,580.0
3901,-256,584,0,3907.0,3914.0,-255.0,-266.0,585.0,578.0
3891,-263,582,0,3901.0,3907.0,-256.0,-255.0,584.0,585.0
3875,-262,577,0,3891.0,3901.0,-263.0,-256.0,582.0,584.0
3856,-255,560,0,3875.0,3891.0,-262.0,-263.0,577.0,582.0
3837,-253,544,0,3856.0,3875.0,-255.0,-262.0,560.0,577.0
3812,-261,507,0,3837.0,3856.0,-253.0,-255.0,544.0,560.0
3767,-266,460,0,3812.0,3837.0,-261.0,-253.0,507.0,544.0
3719,-268,429,0,3767.0,3812.0,-266.0,-261.0,460.0,507.0
3684,-266,436,0,3719.0,3767.0,-268.0,-266.0,429.0,460.0
3670,-258,494,0,3684.0,3719.0,-266.0,-268.0,436.0,429.0
3668,-248,586,0,3670.0,3684.0,-258.0,-266.0,494.0,436.0
3669,-232,690,0,3668.0,3670.0,-248.0,-258.0,586.0,494.0
3677,-217,769,0,3669.0,3668.0,-232.0,-248.0,690.0,586.0
3685,-215,818,0,3677.0,3669.0,-217.0,-232.0,769.0,690.0
3688,-220,841,0,3685.0,3677.0,-215.0,-217.0,818.0,769.0
3682,-227,844,0,3688.0,3685.0,-220.0,-215.0,841.0,818.0
3675,-232,839,0,3682.0,3688.0,-227.0,-220.0,844.0,841.0
3666,-229,840,0,3675.0,3682.0,-232.0,-227.0,839.0,844.0
3658,-228,838,0,3666.0,3675.0,-229.0,-232.0,840.0,839.0
3646,-239,836,0,3658.0,3666.0,-228.0,-229.0,838.0,840.0
3631,-264,821,0,3646.0,3658.0,-239.0,-228.0,836.0,838.0
3598,-291,797,0,3631.0,3646.0,-264.0,-239.0,821.0,836.0
3565,-303,797,0,3598.0,3631.0,-291.0,-264.0,797.0,821.0
3542,-311,827,0,3565.0,3598.0,-303.0,-291.0,797.0,797.0
3527,-321,886,0,3542.0,3565.0,-311.0,-303.0,827.0,797.0
3526,-322,964,0,3527.0,3542.0,-321.0,-311.0,886.0,827.0
3526,-336,1035,0,3526.0,3527.0,-322.0,-321.0,964.0,886.0
3528,-353,1089,0,3526.0,3526.0,-336.0,-322.0,1035.0,964.0
3529,-374,1127,0,3528.0,3526.0,-353.0,-336.0,1089.0,1035.0
3525,-395,1148,0,3529.0,3528.0,-374.0,-353.0,1127.0,1089.0
3515,-420,1160,0,3525.0,3529.0,-395.0,-374.0,1148.0,1127.0
3499,-435,1164,0,3515.0,3525.0,-420.0,-395.0,1160.0,1148.0
3488,-444,1167,0,3499.0,3515.0,-435.0,-420.0,1164.0,1160.0
3467,-444,1168,0,3488.0,3499.0,-444.0,-435.0,1167.0,1164.0
3448,-433,1179,0,3467.0,3488.0,-444.0,-444.0,1168.0,1167.0
3423,-400,1195,0,3448.0,3467.0,-433.0,-444.0,1179.0,1168.0
3405,-360,1211,0,3423.0,3448.0,-400.0,-433.0,1195.0,1179.0
3395,-312,1222,0,3405.0,3423.0,-360.0,-400.0,1211.0,1195.0
3388,-258,1236,0,3395.0,3405.0,-312.0,-360.0,1222.0,1211.0
3391,-209,1247,0,3388.0,3395.0,-258.0,-312.0,1236.0,1222.0
3399,-167,1253,0,3391.0,3388.0,-209.0,-258.0,1247.0,1236.0
3407,-120,1259,0,3399.0,3391.0,-167.0,-209.0,1253.0,1247.0
3420,-79,1268,0,3407.0,3399.0,-120.0,-167.0,1259.0,1253.0
3437,-46,1279,0,3420.0,3407.0,-79.0,-120.0,1268.0,1259.0
3463,-19,1287,0,3437.0,3420.0,-46.0,-79.0,1279.0,1268.0
3494,1,1292,0,3463.0,3437.0,-19.0,-46.0,1287.0,1279.0
3527,16,1284,0,3494.0,3463.0,1.0,-19.0,1292.0,1287.0
3564,19,1262,0,3527.0,3494.0,16.0,1.0,1284.0,1292.0
3598,20,1233,0,3564.0,3527.0,19.0,16.0,1262.0,1284.0
3639,18,1199,0,3598.0,3564.0,20.0,19.0,1233.0,1262.0
3680,15,1164,0,3639.0,3598.0,18.0,20.0,1199.0,1233.0
3721,8,1129,0,3680.0,3639.0,15.0,18.0,1164.0,1199.0
3763,4,1103,0,3721.0,3680.0,8.0,15.0,1129.0,1164.0
3811,1,1090,0,3763.0,3721.0,4.0,8.0,1103.0,1129.0
3854,3,1085,0,3811.0,3763.0,1.0,4.0,1090.0,1103.0
3887,10,1085,0,3854.0,3811.0,3.0,1.0,1085.0,1090.0
3915,10,1072,0,3887.0,3854.0,10.0,3.0,1085.0,1085.0
3932,-4,1040,0,3915.0,3887.0,10.0,10.0,1072.0,1085.0
3948,-25,1007,0,3932.0,3915.0,-4.0,10.0,1040.0,1072.0
3967,-42,984,0,3948.0,3932.0,-25.0,-4.0,1007.0,1040.0
3994,-60,972,0,3967.0,3948.0,-42.0,-25.0,984.0,1007.0
4016,-80,957,0,3994.0,3967.0,-60.0,-42.0,972.0,984.0
4039,-106,928,0,4016.0,3994.0,-80.0,-60.0,957.0,972.0
4057,-146,892,0,4039.0,4016.0,-106.0,-80.0,928.0,957.0
4070,-201,848,0,4057.0,4039.0,-146.0,-106.0,892.0,928.0
4071,-267,800,0,4070.0,4057.0,-201.0,-146.0,848.0,892.0
4070,-353,747,0,4071.0,4070.0,-267.0,-201.0,800.0,848.0
4075,-447,696,0,4070.0,4071.0,-353.0,-267.0,747.0,800.0
4089,-531,673,0,4075.0,4070.0,-447.0,-353.0,696.0,747.0
4125,-608,667,0,4089.0,4075.0,-531.0,-447.0,673.0,696.0
4188,-687,670,0,4125.0,4089.0,-608.0,-531.0,667.0,673.0
4267,-769,673,0,4188.0,4125.0,-687.0,-608.0,670.0,667.0
4360,-849,658,0,4267.0,4188.0,-769.0,-687.0,673.0,670.0
4459,-945,616,0,4360.0,4267.0,-849.0,-769.0,658.0,673.0
4551,-1055,552,0,4459.0,4360.0,-945.0,-849.0,616.0,658.0
4638,-1176,476,0,4551.0,4459.0,-1055.0,-945.0,552.0,616.0
4715,-1301,404,0,4638.0,4551.0,-1176.0,-1055.0,476.0,552.0
4782,-1422,356,0,4715.0,4638.0,-1301.0,-1176.0,404.0,476.0
4844,-1530,331,0,4782.0,4715.0,-1422.0,-1301.0,356.0,404.0
4889,-1622,332,0,4844.0,4782.0,-1530.0,-1422.0,331.0,356.0
4922,-1720,355,0,4889.0,4844.0,-1622.0,-1530.0,332.0,331.0
4924,-1772,386,0,4922.0,4889.0,-1720.0,-1622.0,355.0,332.0
4899,-1776,435,0,4924.0,4922.0,-1772.0,-1720.0,386.0,355.0
4855,-1758,489,0,4899.0,4924.0,-1776.0,-1772.0,435.0,386.0
4795,-1710,541,0,4855.0,4899.0,-1758.0,-1776.0,489.0,435.0
4718,-1657,588,0,4795.0,4855.0,-1710.0,-1758.0,541.0,489.0
4639,-1604,625,0,4718.0,4795.0,-1657.0,-1710.0,588.0,541.0
4554,-1544,650,0,4639.0,4718.0,-1604.0,-1657.0,625.0,588.0
4463,-1469,665,0,4554.0,4639.0,-1544.0,-1604.0,650.0,625.0
4375,-1395,668,0,4463.0,4554.0,-1469.0,-1544.0,665.0,650.0
4291,-1342,650,0,4375.0,4463.0,-1395.0,-1469.0,668.0,665.0
4208,-1297,609,0,4291.0,4375.0,-1342.0,-1395.0,650.0,668.0
4139,-1265,551,0,4208.0,4291.0,-1297.0,-1342.0,609.0,650.0
4073,-1238,494,0,4139.0,4208.0,-1265.0,-1297.0,551.0,609.0
4023,-1214,439,0,4073.0,4139.0,-1238.0,-1265.0,494.0,551.0
3988,-1197,395,0,4023.0,4073.0,-1214.0,-1238.0,439.0,494.0
3975,-1179,360,0,3988.0,4023.0,-1197.0,-1214.0,395.0,439.0
3982,-1158,337,0,3975.0,3988.0,-1179.0,-1197.0,360.0,395.0
3997,-1131,314,0,3982.0,3975.0,-1158.0,-1179.0,337.0,360.0
4015,-1100,280,0,3997.0,3982.0,-1131.0,-1158.0,314.0,337.0
4039,-1084,240,0,4015.0,3997.0,-1100.0,-1131.0,280.0,314.0
4070,-1076,219,0,4039.0,4015.0,-1084.0,-1100.0,240.0,280.0
4108,-1055,230,0,4070.0,4039.0,-1076.0,-1084.0,219.0,240.0
4138,-1014,282,0,4108.0,4070.0,-1055.0,-1076.0,230.0,219.0
4154,-963,341,0,4138.0,4108.0,-1014.0,-1055.0,282.0,230.0
4150,-921,375,0,4154.0,4138.0,-963.0,-1014.0,341.0,282.0
4121,-913,369,0,4150.0,4154.0,-921.0,-963.0,375.0,341.0
4072,-939,347,0,4121.0,4150.0,-913.0,-921.0,369.0,375.0
4014,-991,334,0,4072.0,4121.0,-939.0,-913.0,347.0,369.0
3957,-1027,339,0,4014.0,4072.0,-991.0,-939.0,334.0,347.0
3900,-1039,363,0,3957.0,4014.0,-1027.0,-991.0,339.0,334.0
3841,-1029,387,0,3900.0,3957.0,-1039.0,-1027.0,363.0,339.0
3781,-1005,396,0,3841.0,3900.0,-1029.0,-1039.0,387.0,363.0
3719,-989,372,0,3781.0,3841.0,-1005.0,-1029.0,396.0,387.0
3655,-988,312,0,3719.0,3781.0,-989.0,-1005.0,372.0,396.0
3594,-994,229,0,3655.0,3719.0,-988.0,-989.0,312.0,372.0
3549,-986,161,0,3594.0,3655.0,-994.0,-988.0,229.0,312.0
3521,-958,121,0,3549.0,3594.0,-986.0,-994.0,161.0,229.0
3507,-924,98,0,3521.0,3549.0,-958.0,-986.0,121.0,161.0
3504,-890,78,0,3507.0,3521.0,-924.0,-958.0,98.0,121.0
3510,-880,31,0,3504.0,3507.0,-890.0,-924.0,78.0,98.0
3526,-900,-62,0,3510.0,3504.0,-880.0,-890.0,31.0,78.0
3546,-929,-177,0,3526.0,3510.0,-900.0,-880.0,-62.0,31.0
3577,-942,-252,0,3546.0,3526.0,-929.0,-900.0,-177.0,-62.0
3619,-903,-253,0,3577.0,3546.0,-942.0,-929.0,-252.0,-177.0
3682,-815,-180,0,3619.0,3577.0,-903.0,-942.0,-253.0,-252.0
3766,-720,-80,0,3682.0,3619.0,-815.0,-903.0,-180.0,-253.0
3861,-649,-6,0,3766.0,3682.0,-720.0,-815.0,-80.0,-180.0
3953,-610,23,0,3861.0,3766.0,-649.0,-720.0,-6.0,-80.0
4026,-596,30,0,3953.0,3861.0,-610.0,-649.0,23.0,-6.0
4074,-573,23,0,4026.0,3953.0,-596.0,-610.0,30.0,23.0
4093,-548,-12,0,4074.0,4026.0,-573.0,-596.0,23.0,30.0
4094,-522,-72,0,4093.0,4074.0,-548.0,-573.0,-12.0,23.0
4065,-505,-142,0,4094.0,4093.0,-522.0,-548.0,-72.0,-12.0
4035,-494,-192,0,4065.0,4094.0,-505.0,-522.0,-142.0,-72.0
4005,-479,-211,0,4035.0,4065.0,-494.0,-505.0,-192.0,-142.0
3979,-465,-206,0,4005.0,4035.0,-479.0,-494.0,-211.0,-192.0
3948,-462,-207,0,3979.0,4005.0,-465.0,-479.0,-206.0,-211.0
3919,-467,-233,0,3948.0,3979.0,-462.0,-465.0,-207.0,-206.0
3889,-479,-267,0,3919.0,3948.0,-467.0,-462.0,-233.0,-207.0
3872,-483,-285,0,3889.0,3919.0,-479.0,-467.0,-267.0,-233.0
3874,-482,-272,0,3872.0,3889.0,-483.0,-479.0,-285.0,-267.0
3889,-499,-257,0,3874.0,3872.0,-482.0,-483.0,-272.0,-285.0
3922,-542,-254,0,3889.0,3874.0,-499.0,-482.0,-257.0,-272.0
3963,-598,-263,0,3922.0,3889.0,-542.0,-499.0,-254.0,-257.0
4007,-660,-265,0,3963.0,3922.0,-598.0,-542.0,-263.0,-254.0
4043,-727,-276,0,4007.0,3963.0,-660.0,-598.0,-265.0,-263.0
4072,-787,-287,0,4043.0,4007.0,-727.0,-660.0,-276.0,-265.0
4093,-843,-300,0,4072.0,4043.0,-787.0,-727.0,-287.0,-276.0
4100,-901,-318,0,4093.0,4072.0,-843.0,-787.0,-300.0,-287.0
4100,-955,-347,0,4100.0,4093.0,-901.0,-843.0,-318.0,-300.0
4087,-1006,-373,0,4100.0,4100.0,-955.0,-901.0,-347.0,-318.0
4058,-1062,-396,0,4087.0,4100.0,-1006.0,-955.0,-373.0,-347.0
4025,-1122,-414,0,4058.0,4087.0,-1062.0,-1006.0,-396.0,-373.0
3991,-1186,-419,0,4025.0,4058.0,-1122.0,-1062.0,-414.0,-396.0
3964,-1252,-407,0,3991.0,4025.0,-1186.0,-1122.0,-419.0,-414.0
3932,-1313,-386,0,3964.0,3991.0,-1252.0,-1186.0,-407.0,-419.0
3899,-1366,-365,0,3932.0,3964.0,-1313.0,-1252.0,-386.0,-407.0
3867,-1411,-354,0,3899.0,3932.0,-1366.0,-1313.0,-365.0,-386.0
3833,-1456,-349,0,3867.0,3899.0,-1411.0,-1366.0,-354.0,-365.0
3798,-1491,-340,0,3833.0,3867.0,-1456.0,-1411.0,-349.0,-354.0
3765,-1513,-323,0,3798.0,3833.0,-1491.0,-1456.0,-340.0,-349.0
3747,-1540,-298,0,3765.0,3798.0,-1513.0,-1491.0,-323.0,-340.0
3738,-1554,-260,0,3747.0,3765.0,-1540.0,-1513.0,-298.0,-323.0
3742,-1563,-222,0,3738.0,3747.0,-1554.0,-1540.0,-260.0,-298.0
3760,-1569,-181,0,3742.0,3738.0,-1563.0,-1554.0,-222.0,-260.0
3783,-1567,-146,0,3760.0,3742.0,-1569.0,-1563.0,-181.0,-222.0
3812,-1547,-109,0,3783.0,3760.0,-1567.0,-1569.0,-146.0,-181.0
3847,-1513,-86,0,3812.0,3783.0,-1547.0,-1567.0,-109.0,-146.0
3876,-1468,-73,0,3847.0,3812.0,-1513.0,-1547.0,-86.0,-109.0
3902,-1418,-74,0,3876.0,3847.0,-1468.0,-1513.0,-73.0,-86.0
3931,-1362,-73,0,3902.0,3876.0,-1418.0,-1468.0,-74.0,-73.0
3961,-1300,-67,0,3931.0,3902.0,-1362.0,-1418.0,-73.0,-74.0
3987,-1238,-71,0,3961.0,3931.0,-1300.0,-1362.0,-67.0,-73.0
4010,-1181,-82,0,3987.0,3961.0,-1238.0,-1300.0,-71.0,-67.0
4025,-1125,-103,0,4010.0,3987.0,-1181.0,-1238.0,-82.0,-71.0
4029,-1070,-120,0,4025.0,4010.0,-1125.0,-1181.0,-103.0,-82.0
4029,-1020,-133,0,4029.0,4025.0,-1070.0,-1125.0,-120.0,-103.0
4023,-962,-140,0,4029.0,4029.0,-1020.0,-1070.0,-133.0,-120.0
4006,-904,-149,0,4023.0,4029.0,-962.0,-1020.0,-140.0,-133.0
3982,-849,-154,0,4006.0,4023.0,-904.0,-962.0,-149.0,-140.0
3955,-797,-160,0,3982.0,4006.0,-849.0,-904.0,-154.0,-149.0
3923,-758,-168,0,3955.0,3982.0,-797.0,-849.0,-160.0,-154.0
3885,-732,-185,0,3923.0,3955.0,-758.0,-797.0,-168.0,-160.0
3844,-722,-206,0,3885.0,3923.0,-732.0,-758.0,-185.0,-168.0
3805,-723,-217,0,3844.0,3885.0,-722.0,-732.0,-206.0,-185.0
3761,-729,-212,0,3805.0,3844.0,-723.0,-722.0,-217.0,-206.0
3728,-743,-212,0,3761.0,3805.0,-729.0,-723.0,-212.0,-217.0
3701,-774,-202,0,3728.0,3761.0,-743.0,-729.0,-212.0,-212.0
3684,-808,-173,0,3701.0,3728.0,-774.0,-743.0,-202.0,-212.0
3673,-845,-144,0,3684.0,3701.0,-808.0,-774.0,-173.0,-202.0
3671,-887,-121,0,3673.0,3684.0,-845.0,-808.0,-144.0,-173.0
3678,-919,-94,0,3671.0,3673.0,-887.0,-845.0,-121.0,-144.0
3697,-947,-64,0,3678.0,3671.0,-919.0,-887.0,-94.0,-121.0
3731,-972,-33,0,3697.0,3678.0,-947.0,-919.0,-64.0,-94.0
3778,-979,2,0,3731.0,3697.0,-972.0,-947.0,-33.0,-64.0
3834,-971,32,0,3778.0,3731.0,-979.0,-972.0,2.0,-33.0
3891,-956,36,0,3834.0,3778.0,-971.0,-979.0,32.0,2.0
3944,-941,4,0,3891.0,3834.0,-956.0,-971.0,36.0,32.0
3985,-912,-56,0,3944.0,3891.0,-941.0,-956.0,4.0,36.0
4010,-873,-129,0,3985.0,3944.0,-912.0,-941.0,-56.0,4.0
4027,-817,-194,0,4010.0,3985.0,-873.0,-912.0,-129.0,-56.0
4038,-754,-234,0,4027.0,4010.0,-817.0,-873.0,-194.0,-129.0
4050,-689,-250,0,4038.0,4027.0,-754.0,-817.0,-234.0,-194.0
4058,-622,-266,0,4050.0,4038.0,-689.0,-754.0,-250.0,-234.0
4063,-556,-270,0,4058.0,4050.0,-622.0,-689.0,-266.0,-250.0
4065,-496,-257,0,4063.0,4058.0,-556.0,-622.0,-270.0,-266.0
4055,-448,-249,0,4065.0,4063.0,-496.0,-556.0,-257.0,-270.0
4031,-417,-251,0,4055.0,4065.0,-448.0,-496.0,-249.0,-257.0
3994,-397,-258,0,4031.0,4055.0,-417.0,-448.0,-251.0,-249.0
3948,-394,-264,0,3994.0,4031.0,-397.0,-417.0,-258.0,-251.0
3904,-411,-261,0,3948.0,3994.0,-394.0,-397.0,-264.0,-258.0
3865,-431,-249,0,3904.0,3948.0,-411.0,-394.0,-261.0,-264.0
3840,-458,-234,0,3865.0,3904.0,-431.0,-411.0,-249.0,-261.0
3826,-487,-224,0,3840.0,3865.0,-458.0,-431.0,-234.0,-249.0
3826,-522,-209,0,3826.0,3840.0,-487.0,-458.0,-224.0,-234.0
3841,-555,-200,0,3826.0,3826.0,-522.0,-487.0,-209.0,-224.0
3860,-580,-193,0,3841.0,3826.0,-555.0,-522.0,-200.0,-209.0
3885,-603,-202,0,3860.0,3841.0,-580.0,-555.0,-193.0,-200.0
3909,-616,-215,0,3885.0,3860.0,-603.0,-580.0,-202.0,-193.0
3934,-626,-230,0,3909.0,3885.0,-616.0,-603.0,-215.0,-202.0
3961,-622,-245,0,3934.0,3909.0,-626.0,-616.0,-230.0,-215.0
3991,-608,-255,0,3961.0,3934.0,-622.0,-626.0,-245.0,-230.0
4019,-582,-254,0,3991.0,3961.0,-608.0,-622.0,-255.0,-245.0
4046,-556,-263,0,4019.0,3991.0,-582.0,-608.0,-254.0,-255.0
4070,-524,-269,0,4046.0,4019.0,-556.0,-582.0,-263.0,-254.0
4085,-496,-255,0,4070.0,4046.0,-524.0,-556.0,-269.0,-263.0
4095,-472,-249,0,4085.0,4070.0,-496.0,-524.0,-255.0,-269.0
4098,-456,-254,0,4095.0,4085.0,-472.0,-496.0,-249.0,-255.0
4099,-442,-258,0,4098.0,4095.0,-456.0,-472.0,-254.0,-249.0
4094,-422,-253,0,4099.0,4098.0,-442.0,-456.0,-258.0,-254.0
4079,-405,-247,0,4094.0,4099.0,-422.0,-442.0,-253.0,-258.0
4060,-394,-253,0,4079.0,4094.0,-405.0,-422.0,-247.0,-253.0
4035,-389,-258,0,4060.0,4079.0,-394.0,-405.0,-253.0,-247.0
4014,-383,-251,0,4035.0,4060.0,-389.0,-394.0,-258.0,-253.0
3992,-377,-253,0,4014.0,4035.0,-383.0,-389.0,-251.0,-258.0
3973,-370,-256,0,3992.0,4014.0,-377.0,-383.0,-253.0,-251.0
3961,-364,-252,0,3973.0,3992.0,-370.0,-377.0,-256.0,-253.0
3965,-359,-247,0,3961.0,3973.0,-364.0,-370.0,-252.0,-256.0
3988,-354,-238,0,3965.0,3961.0,-359.0,-364.0,-247.0,-252.0
4022,-354,-218,0,3988.0,3965.0,-354.0,-359.0,-238.0,-247.0
4059,-361,-202,0,4022.0,3988.0,-354.0,-354.0,-218.0,-238.0
4094,-365,-191,0,4059.0,4022.0,-361.0,-354.0,-202.0,-218.0
4133,-368,-177,0,4094.0,4059.0,-365.0,-361.0,-191.0,-202.0
4164,-375,-171,0,4133.0,4094.0,-368.0,-365.0,-177.0,-191.0
4190,-388,-168,0,4164.0,4133.0,-375.0,-368.0,-171.0,-177.0
4206,-405,-172,0,4190.0,4164.0,-388.0,-375.0,-168.0,-171.0
4210,-416,-177,0,4206.0,4190.0,-405.0,-388.0,-172.0,-168.0
4214,-422,-185,0,4210.0,4206.0,-416.0,-405.0,-177.0,-172.0
4204,-423,-189,0,4214.0,4210.0,-422.0,-416.0,-185.0,-177.0
4186,-419,-191,0,4204.0,4214.0,-423.0,-422.0,-189.0,-185.0
4162,-413,-192,0,4186.0,4204.0,-419.0,-423.0,-191.0,-189.0
4142,-407,-182,0,4162.0,4186.0,-413.0,-419.0,-192.0,-191.0
4122,-402,-165,0,4142.0,4162.0,-407.0,-413.0,-182.0,-192.0
4109,-396,-160,0,4122.0,4142.0,-402.0,-407.0,-165.0,-182.0
4094,-390,-165,0,4109.0,4122.0,-396.0,-402.0,-160.0,-165.0
4078,-384,-177,0,4094.0,4109.0,-390.0,-396.0,-165.0,-160.0
4062,-370,-183,0,4078.0,4094.0,-384.0,-390.0,-177.0,-165.0
4046,-347,-193,0,4062.0,4078.0,-370.0,-384.0,-183.0,-177.0
4037,-315,-200,0,4046.0,4062.0,-347.0,-370.0,-193.0,-183.0
4033,-279,-198,0,4037.0,4046.0,-315.0,-347.0,-200.0,-193.0
4029,-243,-193,0,4033.0,4037.0,-279.0,-315.0,-198.0,-200.0
4026,-214,-185,0,4029.0,4033.0,-243.0,-279.0,-193.0,-198.0
4030,-194,-170,0,4026.0,4029.0,-214.0,-243.0,-185.0,-193.0
4031,-184,-170,0,4030.0,4026.0,-194.0,-214.0,-170.0,-185.0
4035,-182,-166,0,4031.0,4030.0,-184.0,-194.0,-170.0,-170.0
4039,-190,-175,0,4035.0,4031.0,-182.0,-184.0,-166.0,-170.0
4046,-192,-184,0,4039.0,4035.0,-190.0,-182.0,-175.0,-166.0
4050,-192,-194,0,4046.0,4039.0,-192.0,-190.0,-184.0,-175.0
4053,-194,-202,0,4050.0,4046.0,-192.0,-192.0,-194.0,-184.0
4061,-190,-207,0,4053.0,4050.0,-194.0,-192.0,-202.0,-194.0
4064,-181,-216,0,4061.0,4053.0,-190.0,-194.0,-207.0,-202.0
4065,-178,-228,0,4064.0,4061.0,-181.0,-190.0,-216.0,-207.0
4065,-179,-244,0,4065.0,4064.0,-178.0,-181.0,-228.0,-216.0
4065,-183,-251,0,4065.0,4065.0,-179.0,-178.0,-244.0,-228.0
4068,-185,-242,0,4065.0,4065.0,-183.0,-179.0,-251.0,-244.0
4078,-191,-236,0,4068.0,4065.0,-185.0,-183.0,-242.0,-251.0
4084,-200,-231,0,4078.0,4068.0,-191.0,-185.0,-236.0,-242.0
4092,-203,-229,0,4084.0,4078.0,-200.0,-191.0,-231.0,-236.0
4099,-204,-232,0,4092.0,4084.0,-203.0,-200.0,-229.0,-231.0
4108,-208,-242,0,4099.0,4092.0,-204.0,-203.0,-232.0,-229.0
4126,-221,-244,0,4108.0,4099.0,-208.0,-204.0,-242.0,-232.0
4140,-230,-242,0,4126.0,4108.0,-221.0,-208.0,-244.0,-242.0
4146,-240,-247,0,4140.0,4126.0,-230.0,-221.0,-242.0,-244.0
4144,-244,-255,0,4146.0,4140.0,-240.0,-230.0,-247.0,-242.0
4138,-253,-264,0,4144.0,4146.0,-244.0,-240.0,-255.0,-247.0
4121,-262,-271,0,4138.0,4144.0,-253.0,-244.0,-264.0,-255.0
4110,-274,-282,0,4121.0,4138.0,-262.0,-253.0,-271.0,-264.0
4089,-287,-304,0,4110.0,4121.0,-274.0,-262.0,-282.0,-271.0
4057,-300,-328,0,4089.0,4110.0,-287.0,-274.0,-304.0,-282.0
4029,-303,-329,0,4057.0,4089.0,-300.0,-287.0,-328.0,-304.0
4008,-299,-318,0,4029.0,4057.0,-303.0,-300.0,-329.0,-328.0
3984,-295,-319,0,4008.0,4029.0,-299.0,-303.0,-318.0,-329.0
3966,-282,-301,0,3984.0,4008.0,-295.0,-299.0,-319.0,-318.0
3953,-274,-282,0,3966.0,3984.0,-282.0,-295.0,-301.0,-319.0
3947,-266,-268,0,3953.0,3966.0,-274.0,-282.0,-282.0,-301.0
3940,-257,-254,0,3947.0,3953.0,-266.0,-274.0,-268.0,-282.0
3940,-250,-245,0,3940.0,3947.0,-257.0,-266.0,-254.0,-268.0
3948,-244,-242,0,3940.0,3940.0,-250.0,-257.0,-245.0,-254.0
3960,-231,-235,0,3948.0,3940.0,-244.0,-250.0,-242.0,-245.0
3971,-211,-234,0,3960.0,3948.0,-231.0,-244.0,-235.0,-242.0
3984,-189,-245,0,3971.0,3960.0,-211.0,-231.0,-234.0,-235.0
4001,-167,-254,0,3984.0,3971.0,-189.0,-211.0,-245.0,-234.0
4022,-136,-262,0,4001.0,3984.0,-167.0,-189.0,-254.0,-245.0
4043,-100,-269,0,4022.0,4001.0,-136.0,-167.0,-262.0,-254.0
4058,-67,-274,0,4043.0,4022.0,-100.0,-136.0,-269.0,-262.0
4064,-33,-266,0,4058.0,4043.0,-67.0,-100.0,-274.0,-269.0
4063,4,-258,0,4064.0,4058.0,-33.0,-67.0,-266.0,-274.0
4054,37,-247,0,4063.0,4064.0,4.0,-33.0,-258.0,-266.0
4044,65,-234,0,4054.0,4063.0,37.0,4.0,-247.0,-258.0
4030,82,-221,0,4044.0,4054.0,65.0,37.0,-234.0,-247.0
4013,100,-205,0,4030.0,4044.0,82.0,65.0,-221.0,-234.0
3984,105,-212,0,4013.0,4030.0,100.0,82.0,-205.0,-221.0
3958,104,-214,0,3984.0,4013.0,105.0,100.0,-212.0,-205.0
3935,108,-201,0,3958.0,3984.0,104.0,105.0,-214.0,-212.0
3914,121,-190,0,3935.0,3958.0,108.0,104.0,-201.0,-214.0
3890,133,-189,0,3914.0,3935.0,121.0,108.0,-190.0,-201.0
3870,142,-188,0,3890.0,3914.0,133.0,121.0,-189.0,-190.0
3857,154,-177,0,3870.0,3890.0,142.0,133.0,-188.0,-189.0
3851,171,-148,0,3857.0,3870.0,154.0,142.0,-177.0,-188.0
3850,198,-116,0,3851.0,3857.0,171.0,154.0,-148.0,-177.0
3861,209,-80,0,3850.0,3851.0,198.0,171.0,-116.0,-148.0
3878,199,-68,0,3861.0,3850.0,209.0,198.0,-80.0,-116.0
3905,179,-66,0,3878.0,3861.0,199.0,209.0,-68.0,-80.0
3933,152,-60,0,3905.0,3878.0,179.0,199.0,-66.0,-68.0
3964,135,-46,0,3933.0,3905.0,152.0,179.0,-60.0,-66.0
3995,114,-40,0,3964.0,3933.0,135.0,152.0,-46.0,-60.0
4029,97,-37,0,3995.0,3964.0,114.0,135.0,-40.0,-46.0
4055,84,-35,0,4029.0,3995.0,97.0,114.0,-37.0,-40.0
4075,78,-42,0,4055.0,4029.0,84.0,97.0,-35.0,-37.0
4080,78,-63,0,4075.0,4055.0,78.0,84.0,-42.0,-35.0
4074,71,-96,0,4080.0,4075.0,78.0,78.0,-63.0,-42.0
4054,68,-116,0,4074.0,4080.0,71.0,78.0,-96.0,-63.0
4023,75,-122,0,4054.0,4074.0,68.0,71.0,-116.0,-96.0
3991,106,-104,0,4023.0,4054.0,75.0,68.0,-122.0,-116.0
3969,126,-69,0,3991.0,4023.0,106.0,75.0,-104.0,-122.0
3945,129,-52,0,3969.0,3991.0,126.0,106.0,-69.0,-104.0
3920,121,-56,0,3945.0,3969.0,129.0,126.0,-52.0,-69.0
3902,104,-64,0,3920.0,3945.0,121.0,129.0,-56.0,-52.0
3898,79,-87,0,3902.0,3920.0,104.0,121.0,-64.0,-56.0
3904,53,-108,0,3898.0,3902.0,79.0,104.0,-87.0,-64.0
3920,33,-124,0,3904.0,3898.0,53.0,79.0,-108.0,-87.0
3951,26,-124,0,3920.0,3904.0,33.0,53.0,-124.0,-108.0
3993,24,-112,0,3951.0,3920.0,26.0,33.0,-124.0,-124.0
4040,20,-89,0,3993.0,3951.0,24.0,26.0,-112.0,-124.0
4071,6,-81,0,4040.0,3993.0,20.0,24.0,-89.0,-112.0
4093,-33,-102,0,4071.0,4040.0,6.0,20.0,-81.0,-89.0
4118,-83,-127,0,4093.0,4071.0,-33.0,6.0,-102.0,-81.0
4138,-129,-145,0,4118.0,4093.0,-83.0,-33.0,-127.0,-102.0
4159,-177,-167,0,4138.0,4118.0,-129.0,-83.0,-145.0,-127.0
4177,-216,-189,0,4159.0,4138.0,-177.0,-129.0,-167.0,-145.0
4190,-248,-217,0,4177.0,4159.0,-216.0,-177.0,-189.0,-167.0
4199,-275,-235,0,4190.0,4177.0,-248.0,-216.0,-217.0,-189.0
4211,-293,-239,0,4199.0,4190.0,-275.0,-248.0,-235.0,-217.0
4213,-314,-249,0,4211.0,4199.0,-293.0,-275.0,-239.0,-235.0
4218,-339,-255,0,4213.0,4211.0,-314.0,-293.0,-249.0,-239.0
4220,-376,-257,0,4218.0,4213.0,-339.0,-314.0,-255.0,-249.0
4222,-431,-262,0,4220.0,4218.0,-376.0,-339.0,-257.0,-255.0
4221,-510,-264,0,4222.0,4220.0,-431.0,-376.0,-262.0,-257.0
4220,-603,-264,0,4221.0,4222.0,-510.0,-431.0,-264.0,-262.0
4218,-700,-259,0,4220.0,4221.0,-603.0,-510.0,-264.0,-264.0
4213,-799,-253,0,4218.0,4220.0,-700.0,-603.0,-259.0,-264.0
4207,-892,-247,0,4213.0,4218.0,-799.0,-700.0,-253.0,-259.0
4203,-968,-235,0,4207.0,4213.0,-892.0,-799.0,-247.0,-253.0
4193,-1031,-217,0,4203.0,4207.0,-968.0,-892.0,-235.0,-247.0
4182,-1074,-202,0,4193.0,4203.0,-1031.0,-968.0,-217.0,-235.0
4163,-1103,-190,0,4182.0,4193.0,-1074.0,-1031.0,-202.0,-217.0
4141,-1117,-182,0,4163.0,4182.0,-1103.0,-1074.0,-190.0,-202.0
4119,-1122,-173,0,4141.0,4163.0,-1117.0,-1103.0,-182.0,-190.0
4095,-1126,-177,0,4119.0,4141.0,-1122.0,-1117.0,-173.0,-182.0
4073,-1119,-182,0,4095.0,4119.0,-1126.0,-1122.0,-177.0,-173.0
4058,-1114,-186,0,4073.0,4095.0,-1119.0,-1126.0,-182.0,-177.0
4040,-1100,-186,0,4058.0,4073.0,-1114.0,-1119.0,-186.0,-182.0
4024,-1087,-183,0,4040.0,4058.0,-1100.0,-1114.0,-186.0,-186.0
4004,-1078,-177,0,4024.0,4040.0,-1087.0,-1100.0,-183.0,-186.0
3984,-1073,-172,0,4004.0,4024.0,-1078.0,-1087.0,-177.0,-183.0
3966,-1079,-161,0,3984.0,4004.0,-1073.0,-1078.0,-172.0,-177.0
3943,-1091,-148,0,3966.0,3984.0,-1079.0,-1073.0,-161.0,-172.0
3916,-1102,-134,0,3943.0,3966.0,-1091.0,-1079.0,-148.0,-161.0
3890,-1116,-127,0,3916.0,3943.0,-1102.0,-1091.0,-134.0,-148.0
3868,-1134,-122,0,3890.0,3916.0,-1116.0,-1102.0,-127.0,-134.0
3841,-1162,-124,0,3868.0,3890.0,-1134.0,-1116.0,-122.0,-127.0
3818,-1179,-118,0,3841.0,3868.0,-1162.0,-1134.0,-124.0,-122.0
3806,-1201,-110,0,3818.0,3841.0,-1179.0,-1162.0,-118.0,-124.0
3806,-1224,-100,0,3806.0,3818.0,-1201.0,-1179.0,-110.0,-118.0
3813,-1245,-85,0,3806.0,3806.0,-1224.0,-1201.0,-100.0,-110.0
3824,-1276,-67,0,3813.0,3806.0,-1245.0,-1224.0,-85.0,-100.0
3842,-1311,-51,0,3824.0,3813.0,-1276.0,-1245.0,-67.0,-85.0
3873,-1361,-39,0,3842.0,3824.0,-1311.0,-1276.0,-51.0,-67.0
3911,-1414,-30,0,3873.0,3842.0,-1361.0,-1311.0,-39.0,-51.0
3971,-1471,-25,0,3911.0,3873.0,-1414.0,-1361.0,-30.0,-39.0
4037,-1522,-15,0,3971.0,3911.0,-1471.0,-1414.0,-25.0,-30.0
4116,-1556,-12,0,4037.0,3971.0,-1522.0,-1471.0,-15.0,-25.0
4210,-1574,-7,0,4116.0,4037.0,-1556.0,-1522.0,-12.0,-15.0
4305,-1585,-3,0,4210.0,4116.0,-1574.0,-1556.0,-7.0,-12.0
4395,-1590,-3,0,4305.0,4210.0,-1585.0,-1574.0,-3.0,-7.0
4478,-1602,-9,0,4395.0,4305.0,-1590.0,-1585.0,-3.0,-3.0
4539,-1608,-11,0,4478.0,4395.0,-1602.0,-1590.0,-9.0,-3.0
4582,-1613,-10,0,4539.0,4478.0,-1608.0,-1602.0,-11.0,-9.0
4603,-1620,0,0,4582.0,4539.0,-1613.0,-1608.0,-10.0,-11.0
4607,-1628,15,0,4603.0,4582.0,-1620.0,-1613.0,0.0,-10.0
4591,-1633,41,0,4607.0,4603.0,-1628.0,-1620.0,15.0,0.0
4557,-1636,72,0,4591.0,4607.0,-1633.0,-1628.0,41.0,15.0
4500,-1624,117,0,4557.0,4591.0,-1636.0,-1633.0,72.0,41.0
4436,-1601,168,0,4500.0,4557.0,-1624.0,-1636.0,117.0,72.0
4354,-1566,226,0,4436.0,4500.0,-1601.0,-1624.0,168.0,117.0
4264,-1521,283,0,4354.0,4436.0,-1566.0,-1601.0,226.0,168.0
4181,-1472,344,0,4264.0,4354.0,-1521.0,-1566.0,283.0,226.0
4099,-1420,405,0,4181.0,4264.0,-1472.0,-1521.0,344.0,283.0
4020,-1362,466,0,4099.0,4181.0,-1420.0,-1472.0,405.0,344.0
3937,-1308,524,0,4020.0,4099.0,-1362.0,-1420.0,466.0,405.0
3862,-1249,564,0,3937.0,4020.0,-1308.0,-1362.0,524.0,466.0
3797,-1192,597,0,3862.0,3937.0,-1249.0,-1308.0,564.0,524.0
3741,-1133,634,0,3797.0,3862.0,-1192.0,-1249.0,597.0,564.0
3706,-1073,681,0,3741.0,3797.0,-1133.0,-1192.0,634.0,597.0
3681,-1010,716,0,3706.0,3741.0,-1073.0,-1133.0,681.0,634.0
3672,-945,739,0,3681.0,3706.0,-1010.0,-1073.0,716.0,681.0
3691,-879,769,0,3672.0,3681.0,-945.0,-1010.0,739.0,716.0
3723,-819,797,0,3691.0,3672.0,-879.0,-945.0,769.0,739.0
3774,-764,836,0,3723.0,3691.0,-819.0,-879.0,797.0,769.0
3842,-706,879,0,3774.0,3723.0,-764.0,-819.0,836.0,797.0
3929,-662,931,0,3842.0,3774.0,-706.0,-764.0,879.0,836.0
4016,-633,967,0,3929.0,3842.0,-662.0,-706.0,931.0,879.0
4096,-625,988,0,4016.0,3929.0,-633.0,-662.0,967.0,931.0
4153,-634,977,0,4096.0,4016.0,-625.0,-633.0,988.0,967.0
4176,-656,926,0,4153.0,4096.0,-634.0,-625.0,977.0,988.0
4159,-684,863,0,4176.0,4153.0,-656.0,-634.0,926.0,977.0
4128,-701,814,0,4159.0,4176.0,-684.0,-656.0,863.0,926.0
4078,-723,758,0,4128.0,4159.0,-701.0,-684.0,814.0,863.0
4012,-750,707,0,4078.0,4128.0,-723.0,-701.0,758.0,814.0
