accelerometer_x,accelerometer_y,accelerometer_z,fall,x_lag_1,x_lag_2,y_lag_1,y_lag_2,z_lag_1,z_lag_2
3565,403,125,0,,,,,,
3575,341,118,0,3565.0,,403.0,,125.0,
3557,308,109,0,3575.0,3565.0,341.0,403.0,118.0,125.0
3539,281,125,0,3557.0,3575.0,308.0,341.0,109.0,118.0
3532,268,126,0,3539.0,3557.0,281.0,308.0,125.0,109.0
3536,250,115,0,3532.0,3539.0,268.0,281.0,126.0,125.0
3561,232,118,0,3536.0,3532.0,250.0,268.0,115.0,126.0
3581,238,112,0,3561.0,3536.0,232.0,250.0,118.0,115.0
3623,278,114,0,3581.0,3561.0,238.0,232.0,112.0,118.0
3673,343,113,0,3623.0,3581.0,278.0,238.0,114.0,112.0
3757,382,117,0,3673.0,3623.0,343.0,278.0,113.0,114.0
3857,406,150,0,3757.0,3673.0,382.0,343.0,117.0,113.0
3949,381,150,0,3857.0,3757.0,406.0,382.0,150.0,117.0
4020,297,139,0,3949.0,3857.0,381.0,406.0,150.0,150.0
4061,206,138,0,4020.0,3949.0,297.0,381.0,139.0,150.0
4086,187,194,0,4061.0,4020.0,206.0,297.0,138.0,139.0
4095,225,256,0,4086.0,4061.0,187.0,206.0,194.0,138.0
4097,298,311,0,4095.0,4086.0,225.0,187.0,256.0,194.0
4089,346,306,0,4097.0,4095.0,298.0,225.0,311.0,256.0
4069,341,263,0,4089.0,4097.0,346.0,298.0,306.0,311.0
4035,337,238,0,4069.0,4089.0,341.0,346.0,263.0,306.0
3998,325,223,0,4035.0,4069.0,337.0,341.0,238.0,263.0
3952,341,228,0,3998.0,4035.0,325.0,337.0,223.0,238.0
3918,389,252,0,3952.0,3998.0,341.0,325.0,228.0,223.0
3893,447,283,0,3918.0,3952.0,389.0,341.0,252.0,228.0
3868,500,301,0,3893.0,3918.0,447.0,389.0,283.0,252.0
3852,556,316,0,3868.0,3893.0,500.0,447.0,301.0,283.0
3841,597,332,0,3852.0,3868.0,556.0,500.0,316.0,301.0
3839,593,345,0,3841.0,3852.0,597.0,556.0,332.0,316.0
3844,562,357,0,3839.0,3841.0,593.0,597.0,345.0,332.0
3852,523,372,0,3844.0,3839.0,562.0,593.0,357.0,345.0
3856,481,396,0,3852.0,3844.0,523.0,562.0,372.0,357.0
3857,447,416,0,3856.0,3852.0,481.0,523.0,396.0,372.0
3850,416,424,0,3857.0,3856.0,447.0,481.0,416.0,396.0
3843,387,432,0,3850.0,3857.0,416.0,447.0,424.0,416.0
3843,369,445,0,3843.0,3850.0,387.0,416.0,432.0,424.0
3836,362,451,0,3843.0,3843.0,369.0,387.0,445.0,432.0
3830,362,446,0,3836.0,3843.0,362.0,369.0,451.0,445.0
3821,369,448,0,3830.0,3836.0,362.0,362.0,446.0,451.0
3819,377,454,0,3821.0,3830.0,369.0,362.0,448.0,446.0
3814,384,447,0,3819.0,3821.0,377.0,369.0,454.0,448.0
3814,394,441,0,3814.0,3819.0,384.0,377.0,447.0,454.0
3811,406,439,0,3814.0,3814.0,394.0,384.0,441.0,447.0
3809,425,443,0,3811.0,3814.0,406.0,394.0,439.0,441.0
3803,435,427,0,3809.0,3811.0,425.0,406.0,443.0,439.0
3789,441,410,0,3803.0,3809.0,435.0,425.0,427.0,443.0
3775,460,398,0,3789.0,3803.0,441.0,435.0,410.0,427.0
3754,482,374,0,3775.0,3789.0,460.0,441.0,398.0,410.0
3737,510,353,0,3754.0,3775.0,482.0,460.0,374.0,398.0
3715,522,326,0,3737.0,3754.0,510.0,482.0,353.0,374.0
3694,532,302,0,3715.0,3737.0,522.0,510.0,326.0,353.0
3688,526,277,0,3694.0,3715.0,532.0,522.0,302.0,326.0
3696,510,257,0,3688.0,3694.0,526.0,532.0,277.0,302.0
3727,488,238,0,3696.0,3688.0,510.0,526.0,257.0,277.0
3765,469,228,0,3727.0,3696.0,488.0,510.0,238.0,257.0
3810,445,224,0,3765.0,3727.0,469.0,488.0,228.0,238.0
3853,410,216,0,3810.0,3765.0,445.0,469.0,224.0,228.0
3892,373,200,0,3853.0,3810.0,410.0,445.0,216.0,224.0
3930,335,179,0,3892.0,3853.0,373.0,410.0,200.0,216.0
3972,301,178,0,3930.0,3892.0,335.0,373.0,179.0,200.0
4003,273,189,0,3972.0,3930.0,301.0,335.0,178.0,179.0
4018,251,185,0,4003.0,3972.0,273.0,301.0,189.0,178.0
4021,222,174,0,4018.0,4003.0,251.0,273.0,185.0,189.0
4018,189,160,0,4021.0,4018.0,222.0,251.0,174.0,185.0
4005,162,158,0,4018.0,4021.0,189.0,222.0,160.0,174.0
3988,129,172,0,4005.0,4018.0,162.0,189.0,158.0,160.0
3974,87,187,0,3988.0,4005.0,129.0,162.0,172.0,158.0
3968,26,198,0,3974.0,3988.0,87.0,129.0,187.0,172.0
3957,-38,201,0,3968.0,3974.0,26.0,87.0,198.0,187.0
3943,-98,188,0,3957.0,3968.0,-38.0,26.0,201.0,198.0
3938,-146,176,0,3943.0,3957.0,-98.0,-38.0,188.0,201.0
3926,-165,155,0,3938.0,3943.0,-146.0,-98.0,176.0,188.0
3917,-160,126,0,3926.0,3938.0,-165.0,-146.0,155.0,176.0
3900,-126,97,0,3917.0,3926.0,-160.0,-165.0,126.0,155.0
3881,-90,50,0,3900.0,3917.0,-126.0,-160.0,97.0,126.0
3871,-56,7,0,3881.0,3900.0,-90.0,-126.0,50.0,97.0
3861,1,-13,0,3871.0,3881.0,-56.0,-90.0,7.0,50.0
3852,93,2,0,3861.0,3871.0,1.0,-56.0,-13.0,7.0
3861,189,31,0,3852.0,3861.0,93.0,1.0,2.0,-13.0
3875,282,47,0,3861.0,3852.0,189.0,93.0,31.0,2.0
3894,369,44,0,3875.0,3861.0,282.0,189.0,47.0,31.0
3916,448,39,0,3894.0,3875.0,369.0,282.0,44.0,47.0
3957,508,47,0,3916.0,3894.0,448.0,369.0,39.0,44.0
4010,549,63,0,3957.0,3916.0,508.0,448.0,47.0,39.0
4067,579,90,0,4010.0,3957.0,549.0,508.0,63.0,47.0
4132,597,130,0,4067.0,4010.0,579.0,549.0,90.0,63.0
4215,611,173,0,4132.0,4067.0,597.0,579.0,130.0,90.0
4301,622,197,0,4215.0,4132.0,611.0,597.0,173.0,130.0
4394,627,195,0,4301.0,4215.0,622.0,611.0,197.0,173.0
4486,646,189,0,4394.0,4301.0,627.0,622.0,195.0,197.0
4562,680,174,0,4486.0,4394.0,646.0,627.0,189.0,195.0
4624,726,155,0,4562.0,4486.0,680.0,646.0,174.0,189.0
4702,760,147,0,4624.0,4562.0,726.0,680.0,155.0,174.0
4787,801,144,0,4702.0,4624.0,760.0,726.0,147.0,155.0
4877,862,144,0,4787.0,4702.0,801.0,760.0,144.0,147.0
4965,913,129,0,4877.0,4787.0,862.0,801.0,144.0,144.0
5054,941,94,0,4965.0,4877.0,913.0,862.0,129.0,144.0
5111,988,45,0,5054.0,4965.0,941.0,913.0,94.0,129.0
5141,1029,-50,0,5111.0,5054.0,988.0,941.0,45.0,94.0
5153,1088,-166,0,5141.0,5111.0,1029.0,988.0,-50.0,45.0
5147,1153,-286,0,5153.0,5141.0,1088.0,1029.0,-166.0,-50.0
5149,1208,-407,0,5147.0,5153.0,1153.0,1088.0,-286.0,-166.0
5168,1247,-502,0,5149.0,5147.0,1208.0,1153.0,-407.0,-286.0
5211,1251,-577,0,5168.0,5149.0,1247.0,1208.0,-502.0,-407.0
5284,1218,-634,0,5211.0,5168.0,1251.0,1247.0,-577.0,-502.0
5381,1150,-675,0,5284.0,5211.0,1218.0,1251.0,-634.0,-577.0
5477,1084,-720,0,5381.0,5284.0,1150.0,1218.0,-675.0,-634.0
5565,1031,-779,0,5477.0,5381.0,1084.0,1150.0,-720.0,-675.0
5631,998,-845,0,5565.0,5477.0,1031.0,1084.0,-779.0,-720.0
5665,985,-908,0,5631.0,5565.0,998.0,1031.0,-845.0,-779.0
5666,978,-967,0,5665.0,5631.0,985.0,998.0,-908.0,-845.0
5646,928,-1004,0,5666.0,5665.0,978.0,985.0,-967.0,-908.0
5612,820,-1024,0,5646.0,5666.0,928.0,978.0,-1004.0,-967.0
5569,668,-1028,0,5612.0,5646.0,820.0,928.0,-1024.0,-1004.0
5535,460,-1014,0,5569.0,5612.0,668.0,820.0,-1028.0,-1024.0
5499,240,-996,0,5535.0,5569.0,460.0,668.0,-1014.0,-1028.0
5456,36,-982,0,5499.0,5535.0,240.0,460.0,-996.0,-1014.0
5394,-143,-943,0,5456.0,5499.0,36.0,240.0,-982.0,-996.0
5300,-284,-890,0,5394.0,5456.0,-143.0,36.0,-943.0,-982.0
5167,-383,-842,0,5300.0,5394.0,-284.0,-143.0,-890.0,-943.0
5001,-453,-779,0,5167.0,5300.0,-383.0,-284.0,-842.0,-890.0
4798,-496,-722,0,5001.0,5167.0,-453.0,-383.0,-779.0,-842.0
4580,-538,-679,0,4798.0,5001.0,-496.0,-453.0,-722.0,-779.0
4349,-575,-641,0,4580.0,4798.0,-538.0,-496.0,-679.0,-722.0
4127,-599,-609,0,4349.0,4580.0,-575.0,-538.0,-641.0,-679.0
3909,-624,-591,0,4127.0,4349.0,-599.0,-575.0,-609.0,-641.0
3706,-660,-592,0,3909.0,4127.0,-624.0,-599.0,-591.0,-609.0
3530,-679,-563,0,3706.0,3909.0,-660.0,-624.0,-592.0,-591.0
3387,-671,-506,0,3530.0,3706.0,-679.0,-660.0,-563.0,-592.0
3273,-635,-427,0,3387.0,3530.0,-671.0,-679.0,-506.0,-563.0
3169,-569,-352,0,3273.0,3387.0,-635.0,-671.0,-427.0,-506.0
3071,-483,-308,0,3169.0,3273.0,-569.0,-635.0,-352.0,-427.0
2979,-388,-330,0,3071.0,3169.0,-483.0,-569.0,-308.0,-352.0
2888,-288,-412,0,2979.0,3071.0,-388.0,-483.0,-330.0,-308.0
2799,-182,-521,0,2888.0,2979.0,-288.0,-388.0,-412.0,-330.0
2725,-75,-619,0,2799.0,2888.0,-182.0,-288.0,-521.0,-412.0
2675,38,-690,0,2725.0,2799.0,-75.0,-182.0,-619.0,-521.0
2646,165,-722,0,2675.0,2725.0,38.0,-75.0,-690.0,-619.0
2645,298,-706,0,2646.0,2675.0,165.0,38.0,-722.0,-690.0
2676,421,-657,0,2645.0,2646.0,298.0,165.0,-706.0,-722.0
2754,503,-600,0,2676.0,2645.0,421.0,298.0,-657.0,-706.0
2877,530,-547,0,2754.0,2676.0,503.0,421.0,-600.0,-657.0
3033,529,-494,0,2877.0,2754.0,530.0,503.0,-547.0,-600.0
3202,525,-432,0,3033.0,2877.0,529.0,530.0,-494.0,-547.0
3381,509,-377,0,3202.0,3033.0,525.0,529.0,-432.0,-494.0
3579,461,-335,0,3381.0,3202.0,509.0,525.0,-377.0,-432.0
3780,390,-291,0,3579.0,3381.0,461.0,509.0,-335.0,-377.0
3971,308,-272,0,3780.0,3579.0,390.0,461.0,-291.0,-335.0
4165,244,-261,0,3971.0,3780.0,308.0,390.0,-272.0,-291.0
4361,226,-247,0,4165.0,3971.0,244.0,308.0,-261.0,-272.0
4566,244,-238,0,4361.0,4165.0,226.0,244.0,-247.0,-261.0
4767,294,-229,0,4566.0,4361.0,244.0,226.0,-238.0,-247.0
4957,364,-225,0,4767.0,4566.0,294.0,244.0,-229.0,-238.0
5113,461,-233,0,4957.0,4767.0,364.0,294.0,-225.0,-229.0
5226,574,-253,0,5113.0,4957.0,461.0,364.0,-233.0,-225.0
5290,690,-262,0,5226.0,5113.0,574.0,461.0,-253.0,-233.0
5307,795,-255,0,5290.0,5226.0,690.0,574.0,-262.0,-253.0
5272,879,-230,0,5307.0,5290.0,795.0,690.0,-255.0,-262.0
5197,935,-195,0,5272.0,5307.0,879.0,795.0,-230.0,-255.0
5081,962,-154,0,5197.0,5272.0,935.0,879.0,-195.0,-230.0
4940,973,-116,0,5081.0,5197.0,962.0,935.0,-154.0,-195.0
4784,968,-76,0,4940.0,5081.0,973.0,962.0,-116.0,-154.0
4635,946,-41,0,4784.0,4940.0,968.0,973.0,-76.0,-116.0
4490,916,3,0,4635.0,4784.0,946.0,968.0,-41.0,-76.0
4361,885,46,0,4490.0,4635.0,916.0,946.0,3.0,-41.0
4260,847,80,0,4361.0,4490.0,885.0,916.0,46.0,3.0
4183,823,109,0,4260.0,4361.0,847.0,885.0,80.0,46.0
4128,827,143,0,4183.0,4260.0,823.0,847.0,109.0,80.0
4109,824,172,0,4128.0,4183.0,827.0,823.0,143.0,109.0
4105,813,188,0,4109.0,4128.0,824.0,827.0,172.0,143.0
4106,798,193,0,4105.0,4109.0,813.0,824.0,188.0,172.0
4119,761,184,0,4106.0,4105.0,798.0,813.0,193.0,188.0
4137,719,179,0,4119.0,4106.0,761.0,798.0,184.0,193.0
4170,672,187,0,4137.0,4119.0,719.0,761.0,179.0,184.0
4202,618,204,0,4170.0,4137.0,672.0,719.0,187.0,179.0
4229,570,230,0,4202.0,4170.0,618.0,672.0,204.0,187.0
4240,518,245,0,4229.0,4202.0,570.0,618.0,230.0,204.0
4233,465,244,0,4240.0,4229.0,518.0,570.0,245.0,230.0
4196,419,220,0,4233.0,4240.0,465.0,518.0,244.0,245.0
4144,373,193,0,4196.0,4233.0,419.0,465.0,220.0,244.0
4073,330,168,0,4144.0,4196.0,373.0,419.0,193.0,220.0
3974,285,142,0,4073.0,4144.0,330.0,373.0,168.0,193.0
3861,237,132,0,3974.0,4073.0,285.0,330.0,142.0,168.0
3735,180,133,0,3861.0,3974.0,237.0,285.0,132.0,142.0
3586,131,100,0,3735.0,3861.0,180.0,237.0,133.0,132.0
3488,103,122,0,3586.0,3735.0,131.0,180.0,100.0,133.0
3415,111,182,0,3488.0,3586.0,103.0,131.0,122.0,100.0
3370,123,260,0,3415.0,3488.0,111.0,103.0,182.0,122.0
3354,138,342,0,3370.0,3415.0,123.0,111.0,260.0,182.0
3297,76,274,0,3354.0,3370.0,138.0,123.0,342.0,260.0
3267,34,252,0,3297.0,3354.0,76.0,138.0,274.0,342.0
3290,27,344,0,3267.0,3297.0,34.0,76.0,252.0,274.0
3355,21,450,0,3290.0,3267.0,27.0,34.0,344.0,252.0
3425,34,540,0,3355.0,3290.0,21.0,27.0,450.0,344.0
3495,62,610,0,3425.0,3355.0,34.0,21.0,540.0,450.0
3550,107,652,0,3495.0,3425.0,62.0,34.0,610.0,540.0
3585,134,649,0,3550.0,3495.0,107.0,62.0,652.0,610.0
3609,160,618,0,3585.0,3550.0,134.0,107.0,649.0,652.0
3653,159,583,0,3609.0,3585.0,160.0,134.0,618.0,649.0
3694,155,579,0,3653.0,3609.0,159.0,160.0,583.0,618.0
3725,138,551,0,3694.0,3653.0,155.0,159.0,579.0,583.0
3753,151,559,0,3725.0,3694.0,138.0,155.0,551.0,579.0
3773,176,602,0,3753.0,3725.0,151.0,138.0,559.0,551.0
3789,193,620,0,3773.0,3753.0,176.0,151.0,602.0,559.0
3784,176,607,0,3789.0,3773.0,193.0,176.0,620.0,602.0
3753,163,565,0,3784.0,3789.0,176.0,193.0,607.0,620.0
3714,161,526,0,3753.0,3784.0,163.0,176.0,565.0,607.0
3695,156,505,0,3714.0,3753.0,161.0,163.0,526.0,565.0
3693,162,508,0,3695.0,3714.0,156.0,161.0,505.0,526.0
3705,173,521,0,3693.0,3695.0,162.0,156.0,508.0,505.0
3725,179,547,0,3705.0,3693.0,173.0,162.0,521.0,508.0
3755,180,573,0,3725.0,3705.0,179.0,173.0,547.0,521.0
3789,192,597,0,3755.0,3725.0,180.0,179.0,573.0,547.0
3820,202,630,0,3789.0,3755.0,192.0,180.0,597.0,573.0
3849,211,660,0,3820.0,3789.0,202.0,192.0,630.0,597.0
3875,209,700,0,3849.0,3820.0,211.0,202.0,660.0,630.0
3901,206,724,0,3875.0,3849.0,209.0,211.0,700.0,660.0
3911,200,741,0,3901.0,3875.0,206.0,209.0,724.0,700.0
3912,180,746,0,3911.0,3901.0,200.0,206.0,741.0,724.0
3903,169,736,0,3912.0,3911.0,180.0,200.0,746.0,741.0
3876,169,731,0,3903.0,3912.0,169.0,180.0,736.0,746.0
3841,167,706,0,3876.0,3903.0,169.0,169.0,731.0,736.0
3800,157,666,0,3841.0,3876.0,167.0,169.0,706.0,731.0
3770,139,612,0,3800.0,3841.0,157.0,167.0,666.0,706.0
3746,122,601,0,3770.0,3800.0,139.0,157.0,612.0,666.0
3711,134,617,0,3746.0,3770.0,122.0,139.0,601.0,612.0
3683,152,650,0,3711.0,3746.0,134.0,122.0,617.0,601.0
3644,189,672,0,3683.0,3711.0,152.0,134.0,650.0,617.0
3595,242,693,0,3644.0,3683.0,189.0,152.0,672.0,650.0
3561,253,722,0,3595.0,3644.0,242.0,189.0,693.0,672.0
3533,226,735,0,3561.0,3595.0,253.0,242.0,722.0,693.0
3497,204,770,0,3533.0,3561.0,226.0,253.0,735.0,722.0
3476,181,830,0,3497.0,3533.0,204.0,226.0,770.0,735.0
3480,160,915,0,3476.0,3497.0,181.0,204.0,830.0,770.0
3497,157,1019,0,3480.0,3476.0,160.0,181.0,915.0,830.0
3518,174,1125,0,3497.0,3480.0,157.0,160.0,1019.0,915.0
3554,198,1230,0,3518.0,3497.0,174.0,157.0,1125.0,1019.0
3589,236,1345,0,3554.0,3518.0,198.0,174.0,1230.0,1125.0
3624,287,1461,0,3589.0,3554.0,236.0,198.0,1345.0,1230.0
3653,337,1559,0,3624.0,3589.0,287.0,236.0,1461.0,1345.0
3681,379,1634,0,3653.0,3624.0,337.0,287.0,1559.0,1461.0
3706,408,1674,0,3681.0,3653.0,379.0,337.0,1634.0,1559.0
3734,431,1689,0,3706.0,3681.0,408.0,379.0,1674.0,1634.0
3759,457,1696,0,3734.0,3706.0,431.0,408.0,1689.0,1674.0
3764,480,1678,0,3759.0,3734.0,457.0,431.0,1696.0,1689.0
3758,499,1649,0,3764.0,3759.0,480.0,457.0,1678.0,1696.0
3739,525,1633,0,3758.0,3764.0,499.0,480.0,1649.0,1678.0
3723,573,1654,0,3739.0,3758.0,525.0,499.0,1633.0,1649.0
3691,629,1692,0,3723.0,3739.0,573.0,525.0,1654.0,1633.0
3673,686,1746,0,3691.0,3723.0,629.0,573.0,1692.0,1654.0
3640,766,1787,0,3673.0,3691.0,686.0,629.0,1746.0,1692.0
3599,832,1782,0,3640.0,3673.0,766.0,686.0,1787.0,1746.0
3561,851,1728,0,3599.0,3640.0,832.0,766.0,1782.0,1787.0
3528,851,1645,0,3561.0,3599.0,851.0,832.0,1728.0,1782.0
3503,899,1580,0,3528.0,3561.0,851.0,851.0,1645.0,1728.0
3492,974,1565,0,3503.0,3528.0,899.0,851.0,1580.0,1645.0
3477,1079,1554,0,3492.0,3503.0,974.0,899.0,1565.0,1580.0
3474,1185,1551,0,3477.0,3492.0,1079.0,974.0,1554.0,1565.0
3469,1270,1529,0,3474.0,3477.0,1185.0,1079.0,1551.0,1554.0
3456,1320,1475,0,3469.0,3474.0,1270.0,1185.0,1529.0,1551.0
3435,1362,1436,0,3456.0,3469.0,1320.0,1270.0,1475.0,1529.0
3424,1388,1402,0,3435.0,3456.0,1362.0,1320.0,1436.0,1475.0
3419,1394,1387,0,3424.0,3435.0,1388.0,1362.0,1402.0,1436.0
3390,1406,1363,0,3419.0,3424.0,1394.0,1388.0,1387.0,1402.0
3337,1439,1367,0,3390.0,3419.0,1406.0,1394.0,1363.0,1387.0
3310,1422,1355,0,3337.0,3390.0,1439.0,1406.0,1367.0,1363.0
3312,1370,1364,0,3310.0,3337.0,1422.0,1439.0,1355.0,1367.0
3331,1276,1354,0,3312.0,3310.0,1370.0,1422.0,1364.0,1355.0
3332,1203,1349,0,3331.0,3312.0,1276.0,1370.0,1354.0,1364.0
3320,1165,1358,0,3332.0,3331.0,1203.0,1276.0,1349.0,1354.0
3315,1137,1374,0,3320.0,3332.0,1165.0,1203.0,1358.0,1349.0
3314,1079,1383,0,3315.0,3320.0,1137.0,1165.0,1374.0,1358.0
3299,1026,1368,0,3314.0,3315.0,1079.0,1137.0,1383.0,1374.0
3301,970,1356,0,3299.0,3314.0,1026.0,1079.0,1368.0,1383.0
3313,909,1336,0,3301.0,3299.0,970.0,1026.0,1356.0,1368.0
3326,838,1311,0,3313.0,3301.0,909.0,970.0,1336.0,1356.0
3352,761,1283,0,3326.0,3313.0,838.0,909.0,1311.0,1336.0
3382,722,1293,0,3352.0,3326.0,761.0,838.0,1283.0,1311.0
3408,693,1313,0,3382.0,3352.0,722.0,761.0,1293.0,1283.0
3434,646,1320,0,3408.0,3382.0,693.0,722.0,1313.0,1293.0
3484,590,1322,0,3434.0,3408.0,646.0,693.0,1320.0,1313.0
3545,535,1323,0,3484.0,3434.0,590.0,646.0,1322.0,1320.0
3633,463,1313,0,3545.0,3484.0,535.0,590.0,1323.0,1322.0
3757,390,1310,0,3633.0,3545.0,463.0,535.0,1313.0,1323.0
3935,268,1291,0,3757.0,3633.0,390.0,463.0,1310.0,1313.0
4156,102,1235,0,3935.0,3757.0,268.0,390.0,1291.0,1310.0
4437,-125,1148,0,4156.0,3935.0,102.0,268.0,1235.0,1291.0
4741,-371,1036,0,4437.0,4156.0,-125.0,102.0,1148.0,1235.0
5063,-649,895,0,4741.0,4437.0,-371.0,-125.0,1036.0,1148.0
5368,-927,721,0,5063.0,4741.0,-649.0,-371.0,895.0,1036.0
5627,-1159,541,0,5368.0,5063.0,-927.0,-649.0,721.0,895.0
5787,-1238,416,0,5627.0,5368.0,-1159.0,-927.0,541.0,721.0
5844,-1066,422,0,5787.0,5627.0,-1238.0,-1159.0,416.0,541.0
5910,-873,504,0,5844.0,5787.0,-1066.0,-1238.0,422.0,416.0
5952,-734,615,0,5910.0,5844.0,-873.0,-1066.0,504.0,422.0
5915,-548,771,0,5952.0,5910.0,-734.0,-873.0,615.0,504.0
5803,-341,942,0,5915.0,5952.0,-548.0,-734.0,771.0,615.0
5686,-155,1144,0,5803.0,5915.0,-341.0,-548.0,942.0,771.0
5544,-43,1308,0,5686.0,5803.0,-155.0,-341.0,1144.0,942.0
5355,76,1413,0,5544.0,5686.0,-43.0,-155.0,1308.0,1144.0
5128,206,1469,0,5355.0,5544.0,76.0,-43.0,1413.0,1308.0
4861,354,1484,0,5128.0,5355.0,206.0,76.0,1469.0,1413.0
4585,480,1463,0,4861.0,5128.0,354.0,206.0,1484.0,1469.0
4287,638,1461,0,4585.0,4861.0,480.0,354.0,1463.0,1484.0
4031,721,1461,0,4287.0,4585.0,638.0,480.0,1461.0,1463.0
3770,773,1470,0,4031.0,4287.0,721.0,638.0,1461.0,1461.0
3543,764,1489,0,3770.0,4031.0,773.0,721.0,1470.0,1461.0
3355,671,1464,0,3543.0,3770.0,764.0,773.0,1489.0,1470.0
3206,533,1389,0,3355.0,3543.0,671.0,764.0,1464.0,1489.0
3105,400,1289,0,3206.0,3355.0,533.0,671.0,1389.0,1464.0
3061,275,1183,0,3105.0,3206.0,400.0,533.0,1289.0,1389.0
3069,186,1095,0,3061.0,3105.0,275.0,400.0,1183.0,1289.0
3143,155,1056,0,3069.0,3061.0,186.0,275.0,1095.0,1183.0
3309,172,1064,0,3143.0,3069.0,155.0,186.0,1056.0,1095.0
3581,159,1073,0,3309.0,3143.0,172.0,155.0,1064.0,1056.0
3820,92,1007,0,3581.0,3309.0,159.0,172.0,1073.0,1064.0
3960,5,874,0,3820.0,3581.0,92.0,159.0,1007.0,1073.0
4026,-79,706,0,3960.0,3820.0,5.0,92.0,874.0,1007.0
4052,-127,560,0,4026.0,3960.0,-79.0,5.0,706.0,874.0
4059,-133,437,0,4052.0,4026.0,-127.0,-79.0,560.0,706.0
4077,-154,350,0,4059.0,4052.0,-133.0,-127.0,437.0,560.0
4092,-146,318,0,4077.0,4059.0,-154.0,-133.0,350.0,437.0
4132,-140,324,0,4092.0,4077.0,-146.0,-154.0,318.0,350.0
4190,-150,346,0,4132.0,4092.0,-140.0,-146.0,324.0,318.0
4249,-141,352,0,4190.0,4132.0,-150.0,-140.0,346.0,324.0
4310,-147,303,0,4249.0,4190.0,-141.0,-150.0,352.0,346.0
4359,-159,233,0,4310.0,4249.0,-147.0,-141.0,303.0,352.0
4360,-112,190,0,4359.0,4310.0,-159.0,-147.0,233.0,303.0
4327,-78,151,0,4360.0,4359.0,-112.0,-159.0,190.0,233.0
4273,-36,95,0,4327.0,4360.0,-78.0,-112.0,151.0,190.0
4193,6,58,0,4273.0,4327.0,-36.0,-78.0,95.0,151.0
4114,57,43,0,4193.0,4273.0,6.0,-36.0,58.0,95.0
4028,142,41,0,4114.0,4193.0,57.0,6.0,43.0,58.0
3962,193,33,0,4028.0,4114.0,142.0,57.0,41.0,43.0
3911,248,67,0,3962.0,4028.0,193.0,142.0,33.0,41.0
3880,301,106,0,3911.0,3962.0,248.0,193.0,67.0,33.0
3856,357,114,0,3880.0,3911.0,301.0,248.0,106.0,67.0
3847,358,102,0,3856.0,3880.0,357.0,301.0,114.0,106.0
3849,302,62,0,3847.0,3856.0,358.0,357.0,102.0,114.0
3853,226,1,0,3849.0,3847.0,302.0,358.0,62.0,102.0
3853,197,-36,0,3853.0,3849.0,226.0,302.0,1.0,62.0
3846,210,-65,0,3853.0,3853.0,197.0,226.0,-36.0,1.0
3852,237,-92,0,3846.0,3853.0,210.0,197.0,-65.0,-36.0
3866,283,-88,0,3852.0,3846.0,237.0,210.0,-92.0,-65.0
3879,324,-84,0,3866.0,3852.0,283.0,237.0,-88.0,-92.0
3906,317,-74,0,3879.0,3866.0,324.0,283.0,-84.0,-88.0
3915,294,-55,0,3906.0,3879.0,317.0,324.0,-74.0,-84.0
3921,238,-39,0,3915.0,3906.0,294.0,317.0,-55.0,-74.0
3923,169,-10,0,3921.0,3915.0,238.0,294.0,-39.0,-55.0
3929,69,14,0,3923.0,3921.0,169.0,238.0,-10.0,-39.0
3949,-60,32,0,3929.0,3923.0,69.0,169.0,14.0,-10.0
3947,-171,60,0,3949.0,3929.0,-60.0,69.0,32.0,14.0
3945,-282,88,0,3947.0,3949.0,-171.0,-60.0,60.0,32.0
3936,-362,127,0,3945.0,3947.0,-282.0,-171.0,88.0,60.0
3937,-424,171,0,3936.0,3945.0,-362.0,-282.0,127.0,88.0
3941,-464,237,0,3937.0,3936.0,-424.0,-362.0,171.0,127.0
3949,-478,324,0,3941.0,3937.0,-464.0,-424.0,237.0,171.0
3950,-441,410,0,3949.0,3941.0,-478.0,-464.0,324.0,237.0
3952,-396,513,0,3950.0,3949.0,-441.0,-478.0,410.0,324.0
3964,-358,584,0,3952.0,3950.0,-396.0,-441.0,513.0,410.0
4005,-378,644,0,3964.0,3952.0,-358.0,-396.0,584.0,513.0
4015,-402,658,0,4005.0,3964.0,-378.0,-358.0,644.0,584.0
4011,-423,635,0,4015.0,4005.0,-402.0,-378.0,658.0,644.0
3992,-422,597,0,4011.0,4015.0,-423.0,-402.0,635.0,658.0
3944,-372,562,0,3992.0,4011.0,-422.0,-423.0,597.0,635.0
3879,-275,543,0,3944.0,3992.0,-372.0,-422.0,562.0,597.0
3825,-165,511,0,3879.0,3944.0,-275.0,-372.0,543.0,562.0
3776,-80,467,0,3825.0,3879.0,-165.0,-275.0,511.0,543.0
3731,15,408,0,3776.0,3825.0,-80.0,-165.0,467.0,511.0
3705,93,348,0,3731.0,3776.0,15.0,-80.0,408.0,467.0
3706,161,306,0,3705.0,3731.0,93.0,15.0,348.0,408.0
3721,224,285,0,3706.0,3705.0,161.0,93.0,306.0,348.0
3734,322,287,0,3721.0,3706.0,224.0,161.0,285.0,306.0
3750,439,284,0,3734.0,3721.0,322.0,224.0,287.0,285.0
3789,524,277,0,3750.0,3734.0,439.0,322.0,284.0,287.0
3823,577,272,0,3789.0,3750.0,524.0,439.0,277.0,284.0
3840,597,268,0,3823.0,3789.0,577.0,524.0,272.0,277.0
3837,603,266,0,3840.0,3823.0,597.0,577.0,268.0,272.0
3814,583,264,0,3837.0,3840.0,603.0,597.0,266.0,268.0
3785,545,268,0,3814.0,3837.0,583.0,603.0,264.0,266.0
3742,511,272,0,3785.0,3814.0,545.0,583.0,268.0,264.0
3698,474,295,0,3742.0,3785.0,511.0,545.0,272.0,268.0
3668,411,306,0,3698.0,3742.0,474.0,511.0,295.0,272.0
3651,352,306,0,3668.0,3698.0,411.0,474.0,306.0,295.0
3645,297,288,0,3651.0,3668.0,352.0,411.0,306.0,306.0
3632,254,249,0,3645.0,3651.0,297.0,352.0,288.0,306.0
3585,218,183,0,3632.0,3645.0,254.0,297.0,249.0,288.0
3543,177,141,0,3585.0,3632.0,218.0,254.0,183.0,249.0
3516,147,115,0,3543.0,3585.0,177.0,218.0,141.0,183.0
3491,108,99,0,3516.0,3543.0,147.0,177.0,115.0,141.0
3475,78,89,0,3491.0,3516.0,108.0,147.0,99.0,115.0
3475,38,73,0,3475.0,3491.0,78.0,108.0,89.0,99.0
3500,7,67,0,3475.0,3475.0,38.0,78.0,73.0,89.0
3538,-15,76,0,3500.0,3475.0,7.0,38.0,67.0,73.0
3584,-46,87,0,3538.0,3500.0,-15.0,7.0,76.0,67.0
3653,-81,118,0,3584.0,3538.0,-46.0,-15.0,87.0,76.0
3722,-135,144,0,3653.0,3584.0,-81.0,-46.0,118.0,87.0
3791,-201,173,0,3722.0,3653.0,-135.0,-81.0,144.0,118.0
3850,-252,222,0,3791.0,3722.0,-201.0,-135.0,173.0,144.0
3902,-301,260,0,3850.0,3791.0,-252.0,-201.0,222.0,173.0
3936,-350,278,0,3902.0,3850.0,-301.0,-252.0,260.0,222.0
3955,-409,283,0,3936.0,3902.0,-350.0,-301.0,278.0,260.0
3965,-473,268,0,3955.0,3936.0,-409.0,-350.0,283.0,278.0
3963,-506,271,0,3965.0,3955.0,-473.0,-409.0,268.0,283.0
3940,-473,296,0,3963.0,3965.0,-506.0,-473.0,271.0,268.0
3912,-401,321,0,3940.0,3963.0,-473.0,-506.0,296.0,271.0
3890,-311,329,0,3912.0,3940.0,-401.0,-473.0,321.0,296.0
3870,-191,335,0,3890.0,3912.0,-311.0,-401.0,329.0,321.0
3849,-62,332,0,3870.0,3890.0,-191.0,-311.0,335.0,329.0
3833,33,295,0,3849.0,3870.0,-62.0,-191.0,332.0,335.0
3817,78,231,0,3833.0,3849.0,33.0,-62.0,295.0,332.0
3803,100,191,0,3817.0,3833.0,78.0,33.0,231.0,295.0
3787,136,177,0,3803.0,3817.0,100.0,78.0,191.0,231.0
3772,185,180,0,3787.0,3803.0,136.0,100.0,177.0,191.0
3760,221,167,0,3772.0,3787.0,185.0,136.0,180.0,177.0
3758,245,138,0,3760.0,3772.0,221.0,185.0,167.0,180.0
3754,264,102,0,3758.0,3760.0,245.0,221.0,138.0,167.0
3754,291,84,0,3754.0,3758.0,264.0,245.0,102.0,138.0
3763,315,83,0,3754.0,3754.0,291.0,264.0,84.0,102.0
3778,347,111,0,3763.0,3754.0,315.0,291.0,83.0,84.0
3816,380,150,0,3778.0,3763.0,347.0,315.0,111.0,83.0
3875,394,182,0,3816.0,3778.0,380.0,347.0,150.0,111.0
3938,394,222,0,3875.0,3816.0,394.0,380.0,182.0,150.0
4003,378,261,0,3938.0,3875.0,394.0,394.0,222.0,182.0
4052,363,287,0,4003.0,3938.0,378.0,394.0,261.0,222.0
4093,344,325,0,4052.0,4003.0,363.0,378.0,287.0,261.0
4130,348,354,0,4093.0,4052.0,344.0,363.0,325.0,287.0
4151,392,404,0,4130.0,4093.0,348.0,344.0,354.0,325.0
4153,417,441,0,4151.0,4130.0,392.0,348.0,404.0,354.0
4149,402,461,0,4153.0,4151.0,417.0,392.0,441.0,404.0
4136,389,487,0,4149.0,4153.0,402.0,417.0,461.0,441.0
4124,386,535,0,4136.0,4149.0,389.0,402.0,487.0,461.0
4112,384,564,0,4124.0,4136.0,386.0,389.0,535.0,487.0
4100,412,597,0,4112.0,4124.0,384.0,386.0,564.0,535.0
4089,477,632,0,4100.0,4112.0,412.0,384.0,597.0,564.0
4075,553,658,0,4089.0,4100.0,477.0,412.0,632.0,597.0
4061,625,671,0,4075.0,4089.0,553.0,477.0,658.0,632.0
4047,676,661,0,4061.0,4075.0,625.0,553.0,671.0,658.0
4024,722,646,0,4047.0,4061.0,676.0,625.0,661.0,671.0
3992,763,634,0,4024.0,4047.0,722.0,676.0,646.0,661.0
3960,805,613,0,3992.0,4024.0,763.0,722.0,634.0,646.0
3930,843,595,0,3960.0,3992.0,805.0,763.0,613.0,634.0
3895,883,580,0,3930.0,3960.0,843.0,805.0,595.0,613.0
3852,912,547,0,3895.0,3930.0,883.0,843.0,580.0,595.0
3803,927,507,0,3852.0,3895.0,912.0,883.0,547.0,580.0
3755,943,479,0,3803.0,3852.0,927.0,912.0,507.0,547.0
3705,944,450,0,3755.0,3803.0,943.0,927.0,479.0,507.0
3672,928,425,0,3705.0,3755.0,944.0,943.0,450.0,479.0
3653,900,391,0,3672.0,3705.0,928.0,944.0,425.0,450.0
3668,867,371,0,3653.0,3672.0,900.0,928.0,391.0,425.0
3699,827,361,0,3668.0,3653.0,867.0,900.0,371.0,391.0
3750,785,365,0,3699.0,3668.0,827.0,867.0,361.0,371.0
3804,735,369,0,3750.0,3699.0,785.0,827.0,365.0,361.0
3849,678,364,0,3804.0,3750.0,735.0,785.0,369.0,365.0
3900,595,350,0,3849.0,3804.0,678.0,735.0,364.0,369.0
3933,521,348,0,3900.0,3849.0,595.0,678.0,350.0,364.0
3953,463,353,0,3933.0,3900.0,521.0,595.0,348.0,350.0
3963,409,352,0,3953.0,3933.0,463.0,521.0,353.0,348.0
3959,368,339,0,3963.0,3953.0,409.0,463.0,352.0,353.0
3961,327,316,0,3959.0,3963.0,368.0,409.0,339.0,352.0
3939,332,298,0,3961.0,3959.0,327.0,368.0,316.0,339.0
3918,346,255,0,3939.0,3961.0,332.0,327.0,298.0,316.0
3912,358,210,0,3918.0,3939.0,346.0,332.0,255.0,298.0
3918,376,179,0,3912.0,3918.0,358.0,346.0,210.0,255.0
3928,388,156,0,3918.0,3912.0,376.0,358.0,179.0,210.0
3933,409,131,0,3928.0,3918.0,388.0,376.0,156.0,179.0
3925,437,102,0,3933.0,3928.0,409.0,388.0,131.0,156.0
3922,449,63,0,3925.0,3933.0,437.0,409.0,102.0,131.0
3942,446,35,0,3922.0,3925.0,449.0,437.0,63.0,102.0
3972,445,19,0,3942.0,3922.0,446.0,449.0,35.0,63.0
3998,463,22,0,3972.0,3942.0,445.0,446.0,19.0,35.0
4015,504,41,0,3998.0,3972.0,463.0,445.0,22.0,19.0
4040,554,45,0,4015.0,3998.0,504.0,463.0,41.0,22.0
4071,602,40,0,4040.0,4015.0,554.0,504.0,45.0,41.0
4102,650,23,0,4071.0,4040.0,602.0,554.0,40.0,45.0
4152,694,7,0,4102.0,4071.0,650.0,602.0,23.0,40.0
4207,748,-10,0,4152.0,4102.0,694.0,650.0,7.0,23.0
4273,803,-9,0,4207.0,4152.0,748.0,694.0,-10.0,7.0
4342,871,-5,0,4273.0,4207.0,803.0,748.0,-9.0,-10.0
4431,943,-9,0,4342.0,4273.0,871.0,803.0,-5.0,-9.0
4532,1008,-35,0,4431.0,4342.0,943.0,871.0,-9.0,-5.0
4616,1061,-92,0,4532.0,4431.0,1008.0,943.0,-35.0,-9.0
4690,1104,-160,0,4616.0,4532.0,1061.0,1008.0,-92.0,-35.0
4753,1120,-221,0,4690.0,4616.0,1104.0,1061.0,-160.0,-92.0
4798,1121,-244,0,4753.0,4690.0,1120.0,1104.0,-221.0,-160.0
4826,1108,-232,0,4798.0,4753.0,1121.0,1120.0,-244.0,-221.0
4855,1077,-187,0,4826.0,4798.0,1108.0,1121.0,-232.0,-244.0
4888,1044,-140,0,4855.0,4826.0,1077.0,1108.0,-187.0,-232.0
4919,1046,-119,0,4888.0,4855.0,1044.0,1077.0,-140.0,-187.0
4964,1061,-102,0,4919.0,4888.0,1046.0,1044.0,-119.0,-140.0
5017,1078,-69,0,4964.0,4919.0,1061.0,1046.0,-102.0,-119.0
5072,1077,-29,0,5017.0,4964.0,1078.0,1061.0,-69.0,-102.0
5120,1031,16,0,5072.0,5017.0,1077.0,1078.0,-29.0,-69.0
5158,938,51,0,5120.0,5072.0,1031.0,1077.0,16.0,-29.0
5209,800,63,0,5158.0,5120.0,938.0,1031.0,51.0,16.0
5256,656,61,0,5209.0,5158.0,800.0,938.0,63.0,51.0
5294,531,36,0,5256.0,5209.0,656.0,800.0,61.0,63.0
5317,433,4,0,5294.0,5256.0,531.0,656.0,36.0,61.0
5317,359,-43,0,5317.0,5294.0,433.0,531.0,4.0,36.0
5292,316,-104,0,5317.0,5317.0,359.0,433.0,-43.0,4.0
5241,315,-162,0,5292.0,5317.0,316.0,359.0,-104.0,-43.0
5160,339,-215,0,5241.0,5292.0,315.0,316.0,-162.0,-104.0
5059,370,-260,0,5160.0,5241.0,339.0,315.0,-215.0,-162.0
4946,400,-304,0,5059.0,5160.0,370.0,339.0,-260.0,-215.0
4834,420,-342,0,4946.0,5059.0,400.0,370.0,-304.0,-260.0
4737,434,-361,0,4834.0,4946.0,420.0,400.0,-342.0,-304.0
4677,449,-352,0,4737.0,4834.0,434.0,420.0,-361.0,-342.0
4649,476,-326,0,4677.0,4737.0,449.0,434.0,-352.0,-361.0
4652,503,-283,0,4649.0,4677.0,476.0,449.0,-326.0,-352.0
4673,527,-247,0,4652.0,4649.0,503.0,476.0,-283.0,-326.0
4701,541,-243,0,4673.0,4652.0,527.0,503.0,-247.0,-283.0
4729,546,-274,0,4701.0,4673.0,541.0,527.0,-243.0,-247.0
4736,551,-329,0,4729.0,4701.0,546.0,541.0,-274.0,-243.0
4712,563,-392,0,4736.0,4729.0,551.0,546.0,-329.0,-274.0
4660,573,-444,0,4712.0,4736.0,563.0,551.0,-392.0,-329.0
4591,572,-470,0,4660.0,4712.0,573.0,563.0,-444.0,-392.0
4511,552,-473,0,4591.0,4660.0,572.0,573.0,-470.0,-444.0
4422,517,-453,0,4511.0,4591.0,552.0,572.0,-473.0,-470.0
4328,473,-425,0,4422.0,4511.0,517.0,552.0,-453.0,-473.0
4232,416,-393,0,4328.0,4422.0,473.0,517.0,-425.0,-453.0
4152,359,-365,0,4232.0,4328.0,416.0,473.0,-393.0,-425.0
4074,300,-326,0,4152.0,4232.0,359.0,416.0,-365.0,-393.0
3993,243,-305,0,4074.0,4152.0,300.0,359.0,-326.0,-365.0
3910,186,-298,0,3993.0,4074.0,243.0,300.0,-305.0,-326.0
3820,140,-299,0,3910.0,3993.0,186.0,243.0,-298.0,-305.0
3728,104,-308,0,3820.0,3910.0,140.0,186.0,-299.0,-298.0
3640,77,-317,0,3728.0,3820.0,104.0,140.0,-308.0,-299.0
3568,53,-321,0,3640.0,3728.0,77.0,104.0,-317.0,-308.0
3500,26,-329,0,3568.0,3640.0,53.0,77.0,-321.0,-317.0
3453,6,-326,0,3500.0,3568.0,26.0,53.0,-329.0,-321.0
3425,-6,-298,0,3453.0,3500.0,6.0,26.0,-326.0,-329.0
3425,-5,-244,0,3425.0,3453.0,-6.0,6.0,-298.0,-326.0
3454,10,-176,0,3425.0,3425.0,-5.0,-6.0,-244.0,-298.0
3504,45,-111,0,3454.0,3425.0,10.0,-5.0,-176.0,-244.0
3564,90,-65,0,3504.0,3454.0,45.0,10.0,-111.0,-176.0
3630,128,-57,0,3564.0,3504.0,90.0,45.0,-65.0,-111.0
3697,156,-61,0,3630.0,3564.0,128.0,90.0,-57.0,-65.0
3759,186,-70,0,3697.0,3630.0,156.0,128.0,-61.0,-57.0
3822,221,-71,0,3759.0,3697.0,186.0,156.0,-70.0,-61.0
3882,264,-61,0,3822.0,3759.0,221.0,186.0,-71.0,-70.0
3943,309,-41,0,3882.0,3822.0,264.0,221.0,-61.0,-71.0
4010,353,-17,0,3943.0,3882.0,309.0,264.0,-41.0,-61.0
4075,392,23,0,4010.0,3943.0,353.0,309.0,-17.0,-41.0
4149,427,65,0,4075.0,4010.0,392.0,353.0,23.0,-17.0
4225,481,86,0,4149.0,4075.0,427.0,392.0,65.0,23.0
4312,553,109,0,4225.0,4149.0,481.0,427.0,86.0,65.0
4389,651,135,0,4312.0,4225.0,553.0,481.0,109.0,86.0
4468,749,166,0,4389.0,4312.0,651.0,553.0,135.0,109.0
4536,805,169,0,4468.0,4389.0,749.0,651.0,166.0,135.0
4582,814,148,0,4536.0,4468.0,805.0,749.0,169.0,166.0
4601,803,135,0,4582.0,4536.0,814.0,805.0,148.0,169.0
4582,786,145,0,4601.0,4582.0,803.0,814.0,135.0,148.0
4524,778,164,0,4582.0,4601.0,786.0,803.0,145.0,135.0
4444,768,161,0,4524.0,4582.0,778.0,786.0,164.0,145.0
4339,759,164,0,4444.0,4524.0,768.0,778.0,161.0,164.0
4232,750,178,0,4339.0,4444.0,759.0,768.0,164.0,161.0
4141,739,231,0,4232.0,4339.0,750.0,759.0,178.0,164.0
4051,726,296,0,4141.0,4232.0,739.0,750.0,231.0,178.0
3971,693,343,0,4051.0,4141.0,726.0,739.0,296.0,231.0
3894,620,385,0,3971.0,4051.0,693.0,726.0,343.0,296.0
3825,526,404,0,3894.0,3971.0,620.0,693.0,385.0,343.0
3757,417,383,0,3825.0,3894.0,526.0,620.0,404.0,385.0
3677,303,330,0,3757.0,3825.0,417.0,526.0,383.0,404.0
3604,188,278,0,3677.0,3757.0,303.0,417.0,330.0,383.0
3556,98,249,0,3604.0,3677.0,188.0,303.0,278.0,330.0
3527,36,242,0,3556.0,3604.0,98.0,188.0,249.0,278.0
3507,-9,247,0,3527.0,3556.0,36.0,98.0,242.0,249.0
3500,-37,265,0,3507.0,3527.0,-9.0,36.0,247.0,242.0
3513,-62,292,0,3500.0,3507.0,-37.0,-9.0,265.0,247.0
3526,-73,337,0,3513.0,3500.0,-62.0,-37.0,292.0,265.0
3557,-77,400,0,3526.0,3513.0,-73.0,-62.0,337.0,292.0
3603,-73,472,0,3557.0,3526.0,-77.0,-73.0,400.0,337.0
3655,-53,555,0,3603.0,3557.0,-73.0,-77.0,472.0,400.0
3697,-31,618,0,3655.0,3603.0,-53.0,-73.0,555.0,472.0
3713,-48,568,0,3697.0,3655.0,-31.0,-53.0,618.0,555.0
3702,-81,499,0,3713.0,3697.0,-48.0,-31.0,568.0,618.0
3695,-80,503,0,3702.0,3713.0,-81.0,-48.0,499.0,568.0
3697,-38,537,0,3695.0,3702.0,-80.0,-81.0,503.0,499.0
3706,-11,581,0,3697.0,3695.0,-38.0,-80.0,537.0,503.0
3727,39,660,0,3706.0,3697.0,-11.0,-38.0,581.0,537.0
3731,46,656,0,3727.0,3706.0,39.0,-11.0,660.0,581.0
3726,49,673,0,3731.0,3727.0,46.0,39.0,656.0,660.0
3742,115,763,0,3726.0,3731.0,49.0,46.0,673.0,656.0
3742,191,832,0,3742.0,3726.0,115.0,49.0,763.0,673.0
3735,258,882,0,3742.0,3742.0,191.0,115.0,832.0,763.0
3728,274,906,0,3735.0,3742.0,258.0,191.0,882.0,832.0
3715,275,912,0,3728.0,3735.0,274.0,258.0,906.0,882.0
3646,207,746,0,3715.0,3728.0,275.0,274.0,912.0,906.0
3554,131,636,0,3646.0,3715.0,207.0,275.0,746.0,912.0
3476,104,666,0,3554.0,3646.0,131.0,207.0,636.0,746.0
3427,119,777,0,3476.0,3554.0,104.0,131.0,666.0,636.0
3425,176,926,0,3427.0,3476.0,119.0,104.0,777.0,666.0
3440,243,1037,0,3425.0,3427.0,176.0,119.0,926.0,777.0
3461,284,1080,0,3440.0,3425.0,243.0,176.0,1037.0,926.0
3488,329,1111,0,3461.0,3440.0,284.0,243.0,1080.0,1037.0
3543,366,1139,0,3488.0,3461.0,329.0,284.0,1111.0,1080.0
3602,379,1109,0,3543.0,3488.0,366.0,329.0,1139.0,1111.0
3644,341,1015,0,3602.0,3543.0,379.0,366.0,1109.0,1139.0
3641,339,951,0,3644.0,3602.0,341.0,379.0,1015.0,1109.0
3638,334,940,0,3641.0,3644.0,339.0,341.0,951.0,1015.0
3644,231,857,0,3638.0,3641.0,334.0,339.0,940.0,951.0
3613,76,740,0,3644.0,3638.0,231.0,334.0,857.0,940.0
3521,87,726,0,3613.0,3644.0,76.0,231.0,740.0,857.0
3400,248,723,0,3521.0,3613.0,87.0,76.0,726.0,740.0
3285,440,762,0,3400.0,3521.0,248.0,87.0,723.0,726.0
3291,595,1008,0,3285.0,3400.0,440.0,248.0,762.0,723.0
3313,636,1200,0,3291.0,3285.0,595.0,440.0,1008.0,762.0
3382,603,1371,0,3313.0,3291.0,636.0,595.0,1200.0,1008.0
3446,585,1490,0,3382.0,3313.0,603.0,636.0,1371.0,1200.0
3529,550,1555,0,3446.0,3382.0,585.0,603.0,1490.0,1371.0
3601,489,1528,0,3529.0,3446.0,550.0,585.0,1555.0,1490.0
3617,466,1441,0,3601.0,3529.0,489.0,550.0,1528.0,1555.0
3596,465,1358,0,3617.0,3601.0,466.0,489.0,1441.0,1528.0
3562,499,1345,0,3596.0,3617.0,465.0,466.0,1358.0,1441.0
3537,554,1388,0,3562.0,3596.0,499.0,465.0,1345.0,1358.0
3512,629,1433,0,3537.0,3562.0,554.0,499.0,1388.0,1345.0
3486,700,1461,0,3512.0,3537.0,629.0,554.0,1433.0,1388.0
3439,761,1454,0,3486.0,3512.0,700.0,629.0,1461.0,1433.0
3421,790,1491,0,3439.0,3486.0,761.0,700.0,1454.0,1461.0
3410,788,1496,0,3421.0,3439.0,790.0,761.0,1491.0,1454.0
3404,772,1506,0,3410.0,3421.0,788.0,790.0,1496.0,1491.0
3370,754,1501,0,3404.0,3410.0,772.0,788.0,1506.0,1496.0
3339,743,1522,0,3370.0,3404.0,754.0,772.0,1501.0,1506.0
3321,731,1581,0,3339.0,3370.0,743.0,754.0,1522.0,1501.0
3315,748,1648,0,3321.0,3339.0,731.0,743.0,1581.0,1522.0
3344,743,1701,0,3315.0,3321.0,748.0,731.0,1648.0,1581.0
3341,761,1744,0,3344.0,3315.0,743.0,748.0,1701.0,1648.0
3368,738,1765,0,3341.0,3344.0,761.0,743.0,1744.0,1701.0
3387,714,1768,0,3368.0,3341.0,738.0,761.0,1765.0,1744.0
3407,696,1770,0,3387.0,3368.0,714.0,738.0,1768.0,1765.0
3433,692,1764,0,3407.0,3387.0,696.0,714.0,1770.0,1768.0
3457,688,1775,0,3433.0,3407.0,692.0,696.0,1764.0,1770.0
3462,741,1818,0,3457.0,3433.0,688.0,692.0,1775.0,1764.0
3491,772,1859,0,3462.0,3457.0,741.0,688.0,1818.0,1775.0
3495,807,1889,0,3491.0,3462.0,772.0,741.0,1859.0,1818.0
3504,800,1875,0,3495.0,3491.0,807.0,772.0,1889.0,1859.0
3506,808,1863,0,3504.0,3495.0,800.0,807.0,1875.0,1889.0
3538,752,1803,0,3506.0,3504.0,808.0,800.0,1863.0,1875.0
3527,730,1745,0,3538.0,3506.0,752.0,808.0,1803.0,1863.0
3510,720,1716,0,3527.0,3538.0,730.0,752.0,1745.0,1803.0
3463,764,1692,0,3510.0,3527.0,720.0,730.0,1716.0,1745.0
3426,737,1638,0,3463.0,3510.0,764.0,720.0,1692.0,1716.0
3414,660,1564,0,3426.0,3463.0,737.0,764.0,1638.0,1692.0
3359,667,1531,0,3414.0,3426.0,660.0,737.0,1564.0,1638.0
3314,716,1539,0,3359.0,3414.0,667.0,660.0,1531.0,1564.0
3306,778,1575,0,3314.0,3359.0,716.0,667.0,1539.0,1531.0
3305,791,1547,0,3306.0,3314.0,778.0,716.0,1575.0,1539.0
3314,857,1567,0,3305.0,3306.0,791.0,778.0,1547.0,1575.0
3262,912,1560,0,3314.0,3305.0,857.0,791.0,1567.0,1547.0
3276,875,1540,0,3262.0,3314.0,912.0,857.0,1560.0,1567.0
3292,896,1532,0,3276.0,3262.0,875.0,912.0,1540.0,1560.0
3273,890,1476,0,3292.0,3276.0,896.0,875.0,1532.0,1540.0
3320,806,1455,0,3273.0,3292.0,890.0,896.0,1476.0,1532.0
3350,733,1405,0,3320.0,3273.0,806.0,890.0,1455.0,1476.0
3442,684,1449,0,3350.0,3320.0,733.0,806.0,1405.0,1455.0
3591,504,1378,0,3442.0,3350.0,684.0,733.0,1449.0,1405.0
3780,374,1272,0,3591.0,3442.0,504.0,684.0,1378.0,1449.0
4042,244,1248,0,3780.0,3591.0,374.0,504.0,1272.0,1378.0
4434,-15,1203,0,4042.0,3780.0,244.0,374.0,1248.0,1272.0
4835,-196,1192,0,4434.0,4042.0,-15.0,244.0,1203.0,1248.0
5240,-411,1146,0,4835.0,4434.0,-196.0,-15.0,1192.0,1203.0
5623,-686,1086,0,5240.0,4835.0,-411.0,-196.0,1146.0,1192.0
5950,-934,1073,0,5623.0,5240.0,-686.0,-411.0,1086.0,1146.0
6211,-1068,1097,0,5950.0,5623.0,-934.0,-686.0,1073.0,1086.0
6390,-1084,1182,0,6211.0,5950.0,-1068.0,-934.0,1097.0,1073.0
6484,-994,1283,0,6390.0,6211.0,-1084.0,-1068.0,1182.0,1097.0
6541,-709,1457,0,6484.0,6390.0,-994.0,-1084.0,1283.0,1182.0
6554,-372,1631,0,6541.0,6484.0,-709.0,-994.0,1457.0,1283.0
6536,48,1835,0,6554.0,6541.0,-372.0,-709.0,1631.0,1457.0
6429,372,1914,0,6536.0,6554.0,48.0,-372.0,1835.0,1631.0
6164,547,1856,0,6429.0,6536.0,372.0,48.0,1914.0,1835.0
5748,608,1690,0,6164.0,6429.0,547.0,372.0,1856.0,1914.0
5357,659,1555,0,5748.0,6164.0,608.0,547.0,1690.0,1856.0
4977,586,1390,0,5357.0,5748.0,659.0,608.0,1555.0,1690.0
4516,532,1184,0,4977.0,5357.0,586.0,659.0,1390.0,1555.0
4206,542,1124,0,4516.0,4977.0,532.0,586.0,1184.0,1390.0
3934,453,1055,0,4206.0,4516.0,542.0,532.0,1124.0,1184.0
3661,392,1016,0,3934.0,4206.0,453.0,542.0,1055.0,1124.0
3505,382,1143,0,3661.0,3934.0,392.0,453.0,1016.0,1055.0
3379,338,1239,0,3505.0,3661.0,382.0,392.0,1143.0,1016.0
3371,380,1385,0,3379.0,3505.0,338.0,382.0,1239.0,1143.0
3353,292,1293,0,3371.0,3379.0,380.0,338.0,1385.0,1239.0
3292,47,1042,0,3353.0,3371.0,292.0,380.0,1293.0,1385.0
3328,-132,925,0,3292.0,3353.0,47.0,292.0,1042.0,1293.0
3413,-212,873,0,3328.0,3292.0,-132.0,47.0,925.0,1042.0
3511,-228,877,0,3413.0,3328.0,-212.0,-132.0,873.0,925.0
3696,-222,920,0,3511.0,3413.0,-228.0,-212.0,877.0,873.0
3896,-207,943,0,3696.0,3511.0,-222.0,-228.0,920.0,877.0
4130,-204,941,0,3896.0,3696.0,-207.0,-222.0,943.0,920.0
4342,-141,907,0,4130.0,3896.0,-204.0,-207.0,941.0,943.0
4491,-77,872,0,4342.0,4130.0,-141.0,-204.0,907.0,941.0
4556,-43,818,0,4491.0,4342.0,-77.0,-141.0,872.0,907.0
4560,-23,748,0,4556.0,4491.0,-43.0,-77.0,818.0,872.0
4522,-4,682,0,4560.0,4556.0,-23.0,-43.0,748.0,818.0
4462,34,630,0,4522.0,4560.0,-4.0,-23.0,682.0,748.0
4395,95,609,0,4462.0,4522.0,34.0,-4.0,630.0,682.0
4340,158,593,0,4395.0,4462.0,95.0,34.0,609.0,630.0
4272,239,576,0,4340.0,4395.0,158.0,95.0,593.0,609.0
4192,326,544,0,4272.0,4340.0,239.0,158.0,576.0,593.0
4120,418,485,0,4192.0,4272.0,326.0,239.0,544.0,576.0
4047,504,421,0,4120.0,4192.0,418.0,326.0,485.0,544.0
3979,564,324,0,4047.0,4120.0,504.0,418.0,421.0,485.0
3916,619,230,0,3979.0,4047.0,564.0,504.0,324.0,421.0
3880,654,137,0,3916.0,3979.0,619.0,564.0,230.0,324.0
3847,699,57,0,3880.0,3916.0,654.0,619.0,137.0,230.0
3810,777,11,0,3847.0,3880.0,699.0,654.0,57.0,137.0
3771,877,-13,0,3810.0,3847.0,777.0,699.0,11.0,57.0
3746,946,-52,0,3771.0,3810.0,877.0,777.0,-13.0,11.0
3721,987,-81,0,3746.0,3771.0,946.0,877.0,-52.0,-13.0
3708,1004,-100,0,3721.0,3746.0,987.0,946.0,-81.0,-52.0
3686,972,-125,0,3708.0,3721.0,1004.0,987.0,-100.0,-81.0
3654,880,-164,0,3686.0,3708.0,972.0,1004.0,-125.0,-100.0
3602,753,-200,0,3654.0,3686.0,880.0,972.0,-164.0,-125.0
3538,621,-217,0,3602.0,3654.0,753.0,880.0,-200.0,-164.0
3469,477,-207,0,3538.0,3602.0,621.0,753.0,-217.0,-200.0
3414,316,-174,0,3469.0,3538.0,477.0,621.0,-207.0,-217.0
3376,165,-120,0,3414.0,3469.0,316.0,477.0,-174.0,-207.0
3349,29,-81,0,3376.0,3414.0,165.0,316.0,-120.0,-174.0
3356,-160,-66,0,3349.0,3376.0,29.0,165.0,-81.0,-120.0
3386,-326,-30,0,3356.0,3349.0,-160.0,29.0,-66.0,-81.0
3436,-441,4,0,3386.0,3356.0,-326.0,-160.0,-30.0,-66.0
3525,-555,73,0,3436.0,3386.0,-441.0,-326.0,4.0,-30.0
3629,-615,152,0,3525.0,3436.0,-555.0,-441.0,73.0,4.0
3728,-684,230,0,3629.0,3525.0,-615.0,-555.0,152.0,73.0
3854,-706,325,0,3728.0,3629.0,-684.0,-615.0,230.0,152.0
3978,-694,446,0,3854.0,3728.0,-706.0,-684.0,325.0,230.0
4091,-750,526,0,3978.0,3854.0,-694.0,-706.0,446.0,325.0
4159,-862,549,0,4091.0,3978.0,-750.0,-694.0,526.0,446.0
4190,-1024,597,0,4159.0,4091.0,-862.0,-750.0,549.0,526.0
4155,-1140,636,0,4190.0,4159.0,-1024.0,-862.0,597.0,549.0
4064,-1148,641,0,4155.0,4190.0,-1140.0,-1024.0,636.0,597.0
3974,-1072,628,0,4064.0,4155.0,-1148.0,-1140.0,641.0,636.0
3934,-863,642,0,3974.0,4064.0,-1072.0,-1148.0,628.0,641.0
3917,-582,645,0,3934.0,3974.0,-863.0,-1072.0,642.0,628.0
3939,-469,619,0,3917.0,3934.0,-582.0,-863.0,645.0,642.0
3945,-347,591,0,3939.0,3917.0,-469.0,-582.0,619.0,645.0
3912,-196,521,0,3945.0,3939.0,-347.0,-469.0,591.0,619.0
3872,-23,439,0,3912.0,3945.0,-196.0,-347.0,521.0,591.0
3840,141,404,0,3872.0,3912.0,-23.0,-196.0,439.0,521.0
3804,297,401,0,3840.0,3872.0,141.0,-23.0,404.0,439.0
3806,401,409,0,3804.0,3840.0,297.0,141.0,401.0,404.0
3787,424,377,0,3806.0,3804.0,401.0,297.0,409.0,401.0
3758,424,354,0,3787.0,3806.0,424.0,401.0,377.0,409.0
3736,409,334,0,3758.0,3787.0,424.0,424.0,354.0,377.0
3678,396,305,0,3736.0,3758.0,409.0,424.0,334.0,354.0
3587,366,272,0,3678.0,3736.0,396.0,409.0,305.0,334.0
3469,313,211,0,3587.0,3678.0,366.0,396.0,272.0,305.0
3306,260,139,0,3469.0,3587.0,313.0,366.0,211.0,272.0
3119,238,76,0,3306.0,3469.0,260.0,313.0,139.0,211.0
2915,173,-41,0,3119.0,3306.0,238.0,260.0,76.0,139.0
2697,92,-198,0,2915.0,3119.0,173.0,238.0,-41.0,76.0
2434,47,-262,0,2697.0,2915.0,92.0,173.0,-198.0,-41.0
2218,53,-258,0,2434.0,2697.0,47.0,92.0,-262.0,-198.0
2070,248,258,0,2218.0,2434.0,53.0,47.0,-258.0,-262.0
2315,550,621,0,2070.0,2218.0,248.0,53.0,258.0,-258.0
2730,705,539,0,2315.0,2070.0,550.0,248.0,621.0,258.0
3141,750,308,0,2730.0,2315.0,705.0,550.0,539.0,621.0
3505,738,162,0,3141.0,2730.0,750.0,705.0,308.0,539.0
3797,697,130,0,3505.0,3141.0,738.0,750.0,162.0,308.0
4014,629,156,0,3797.0,3505.0,697.0,738.0,130.0,162.0
4163,548,197,0,4014.0,3797.0,629.0,697.0,156.0,130.0
4232,480,219,0,4163.0,4014.0,548.0,629.0,197.0,156.0
4229,418,231,0,4232.0,4163.0,480.0,548.0,219.0,197.0
4171,353,222,0,4229.0,4232.0,418.0,480.0,231.0,219.0
4096,292,211,0,4171.0,4229.0,353.0,418.0,222.0,231.0
3999,242,206,0,4096.0,4171.0,292.0,353.0,211.0,222.0
3894,205,191,0,3999.0,4096.0,242.0,292.0,206.0,211.0
3807,171,186,0,3894.0,3999.0,205.0,242.0,191.0,206.0
3742,143,186,0,3807.0,3894.0,171.0,205.0,186.0,191.0
3713,121,200,0,3742.0,3807.0,143.0,171.0,186.0,186.0
3701,99,229,0,3713.0,3742.0,121.0,143.0,200.0,186.0
3710,70,250,0,3701.0,3713.0,99.0,121.0,229.0,200.0
3737,49,279,0,3710.0,3701.0,70.0,99.0,250.0,229.0
3755,53,297,0,3737.0,3710.0,49.0,70.0,279.0,250.0
3776,64,301,0,3755.0,3737.0,53.0,49.0,297.0,279.0
3800,80,307,0,3776.0,3755.0,64.0,53.0,301.0,297.0
3814,92,319,0,3800.0,3776.0,80.0,64.0,307.0,301.0
3813,132,342,0,3814.0,3800.0,92.0,80.0,319.0,307.0
3809,156,347,0,3813.0,3814.0,132.0,92.0,342.0,319.0
3797,168,335,0,3809.0,3813.0,156.0,132.0,347.0,342.0
3797,202,322,0,3797.0,3809.0,168.0,156.0,335.0,347.0
3799,246,313,0,3797.0,3797.0,202.0,168.0,322.0,335.0
3780,306,305,0,3799.0,3797.0,246.0,202.0,313.0,322.0
3750,352,283,0,3780.0,3799.0,306.0,246.0,305.0,313.0
3720,386,275,0,3750.0,3780.0,352.0,306.0,283.0,305.0
3714,394,261,0,3720.0,3750.0,386.0,352.0,275.0,283.0
3698,447,240,0,3714.0,3720.0,394.0,386.0,261.0,275.0
3704,484,239,0,3698.0,3714.0,447.0,394.0,240.0,261.0
3711,485,244,0,3704.0,3698.0,484.0,447.0,239.0,240.0
3727,478,240,0,3711.0,3704.0,485.0,484.0,244.0,239.0
3734,475,241,0,3727.0,3711.0,478.0,485.0,240.0,244.0
3752,442,253,0,3734.0,3727.0,475.0,478.0,241.0,240.0
3783,402,281,0,3752.0,3734.0,442.0,475.0,253.0,241.0
3817,356,313,0,3783.0,3752.0,402.0,442.0,281.0,253.0
3855,313,338,0,3817.0,3783.0,356.0,402.0,313.0,281.0
3888,327,345,0,3855.0,3817.0,313.0,356.0,338.0,313.0
3921,400,336,0,3888.0,3855.0,327.0,313.0,345.0,338.0
3970,493,337,0,3921.0,3888.0,400.0,327.0,336.0,345.0
4023,547,333,0,3970.0,3921.0,493.0,400.0,337.0,336.0
4067,549,335,0,4023.0,3970.0,547.0,493.0,333.0,337.0
4102,536,351,0,4067.0,4023.0,549.0,547.0,335.0,333.0
4105,507,363,0,4102.0,4067.0,536.0,549.0,351.0,335.0
4102,485,373,0,4105.0,4102.0,507.0,536.0,363.0,351.0
4090,467,368,0,4102.0,4105.0,485.0,507.0,373.0,363.0
4055,462,368,0,4090.0,4102.0,467.0,485.0,368.0,373.0
4016,458,350,0,4055.0,4090.0,462.0,467.0,368.0,368.0
3983,465,330,0,4016.0,4055.0,458.0,462.0,350.0,368.0
3952,493,311,0,3983.0,4016.0,465.0,458.0,330.0,350.0
3930,522,285,0,3952.0,3983.0,493.0,465.0,311.0,330.0
3911,549,265,0,3930.0,3952.0,522.0,493.0,285.0,311.0
3906,575,256,0,3911.0,3930.0,549.0,522.0,265.0,285.0
3912,593,245,0,3906.0,3911.0,575.0,549.0,256.0,265.0
3934,607,237,0,3912.0,3906.0,593.0,575.0,245.0,256.0
3957,628,237,0,3934.0,3912.0,607.0,593.0,237.0,245.0
3972,641,232,0,3957.0,3934.0,628.0,607.0,237.0,237.0
3985,644,219,0,3972.0,3957.0,641.0,628.0,232.0,237.0
3988,628,210,0,3985.0,3972.0,644.0,641.0,219.0,232.0
3992,609,201,0,3988.0,3985.0,628.0,644.0,210.0,219.0
3986,594,206,0,3992.0,3988.0,609.0,628.0,201.0,210.0
3982,581,201,0,3986.0,3992.0,594.0,609.0,206.0,201.0
3981,576,183,0,3982.0,3986.0,581.0,594.0,201.0,206.0
3990,571,161,0,3981.0,3982.0,576.0,581.0,183.0,201.0
4000,566,130,0,3990.0,3981.0,571.0,576.0,161.0,183.0
4016,561,88,0,4000.0,3990.0,566.0,571.0,130.0,161.0
4030,555,51,0,4016.0,4000.0,561.0,566.0,88.0,130.0
4040,541,18,0,4030.0,4016.0,555.0,561.0,51.0,88.0
4043,516,-1,0,4040.0,4030.0,541.0,555.0,18.0,51.0
4041,488,-2,0,4043.0,4040.0,516.0,541.0,-1.0,18.0
4037,440,5,0,4041.0,4043.0,488.0,516.0,-2.0,-1.0
4028,387,6,0,4037.0,4041.0,440.0,488.0,5.0,-2.0
4025,336,6,0,4028.0,4037.0,387.0,440.0,6.0,5.0
4023,276,0,0,4025.0,4028.0,336.0,387.0,6.0,6.0
4031,212,3,0,4023.0,4025.0,276.0,336.0,0.0,6.0
4047,147,18,0,4031.0,4023.0,212.0,276.0,3.0,0.0
4072,92,34,0,4047.0,4031.0,147.0,212.0,18.0,3.0
4102,62,40,0,4072.0,4047.0,92.0,147.0,34.0,18.0
4140,78,57,0,4102.0,4072.0,62.0,92.0,40.0,34.0
4195,120,59,0,4140.0,4102.0,78.0,62.0,57.0,40.0
4237,167,36,0,4195.0,4140.0,120.0,78.0,59.0,57.0
4288,233,35,0,4237.0,4195.0,167.0,120.0,36.0,59.0
4345,301,30,0,4288.0,4237.0,233.0,167.0,35.0,36.0
4389,326,14,0,4345.0,4288.0,301.0,233.0,30.0,35.0
4429,335,-3,0,4389.0,4345.0,326.0,301.0,14.0,30.0
4477,339,-13,0,4429.0,4389.0,335.0,326.0,-3.0,14.0
4528,371,-7,0,4477.0,4429.0,339.0,335.0,-13.0,-3.0
4585,398,-10,0,4528.0,4477.0,371.0,339.0,-7.0,-13.0
4656,458,12,0,4585.0,4528.0,398.0,371.0,-10.0,-7.0
4785,648,99,0,4656.0,4585.0,458.0,398.0,12.0,-10.0
4933,859,130,0,4785.0,4656.0,648.0,458.0,99.0,12.0
5091,914,55,0,4933.0,4785.0,859.0,648.0,130.0,99.0
5248,849,-53,0,5091.0,4933.0,914.0,859.0,55.0,130.0
5315,820,-135,0,5248.0,5091.0,849.0,914.0,-53.0,55.0
5304,873,-212,0,5315.0,5248.0,820.0,849.0,-135.0,-53.0
5226,972,-311,0,5304.0,5315.0,873.0,820.0,-212.0,-135.0
5134,1059,-425,0,5226.0,5304.0,972.0,873.0,-311.0,-212.0
5048,1133,-510,0,5134.0,5226.0,1059.0,972.0,-425.0,-311.0
5006,1200,-524,0,5048.0,5134.0,1133.0,1059.0,-510.0,-425.0
4995,1349,-505,0,5006.0,5048.0,1200.0,1133.0,-524.0,-510.0
5013,1488,-525,0,4995.0,5006.0,1349.0,1200.0,-505.0,-524.0
5052,1557,-582,0,5013.0,4995.0,1488.0,1349.0,-525.0,-505.0
5075,1591,-650,0,5052.0,5013.0,1557.0,1488.0,-582.0,-525.0
5078,1591,-698,0,5075.0,5052.0,1591.0,1557.0,-650.0,-582.0
5052,1533,-724,0,5078.0,5075.0,1591.0,1591.0,-698.0,-650.0
5015,1421,-740,0,5052.0,5078.0,1533.0,1591.0,-724.0,-698.0
4995,1258,-742,0,5015.0,5052.0,1421.0,1533.0,-740.0,-724.0
4980,1106,-715,0,4995.0,5015.0,1258.0,1421.0,-742.0,-740.0
4971,970,-669,0,4980.0,4995.0,1106.0,1258.0,-715.0,-742.0
4969,833,-621,0,4971.0,4980.0,970.0,1106.0,-669.0,-715.0
4964,704,-578,0,4969.0,4971.0,833.0,970.0,-621.0,-669.0
4948,588,-533,0,4964.0,4969.0,704.0,833.0,-578.0,-621.0
4918,471,-489,0,4948.0,4964.0,588.0,704.0,-533.0,-578.0
4861,355,-454,0,4918.0,4948.0,471.0,588.0,-489.0,-533.0
4771,252,-439,0,4861.0,4918.0,355.0,471.0,-454.0,-489.0
4650,165,-453,0,4771.0,4861.0,252.0,355.0,-439.0,-454.0
4507,87,-474,0,4650.0,4771.0,165.0,252.0,-453.0,-439.0
4346,29,-494,0,4507.0,4650.0,87.0,165.0,-474.0,-453.0
4193,-1,-491,0,4346.0,4507.0,29.0,87.0,-494.0,-474.0
4027,-8,-475,0,4193.0,4346.0,-1.0,29.0,-491.0,-494.0
3847,-6,-449,0,4027.0,4193.0,-8.0,-1.0,-475.0,-491.0
3695,-31,-423,0,3847.0,4027.0,-6.0,-8.0,-449.0,-475.0
3577,-79,-390,0,3695.0,3847.0,-31.0,-6.0,-423.0,-449.0
3470,-124,-350,0,3577.0,3695.0,-79.0,-31.0,-390.0,-423.0
3357,-151,-320,0,3470.0,3577.0,-124.0,-79.0,-350.0,-390.0
3225,-156,-303,0,3357.0,3470.0,-151.0,-124.0,-320.0,-350.0
3077,-151,-291,0,3225.0,3357.0,-156.0,-151.0,-303.0,-320.0
2925,-127,-300,0,3077.0,3225.0,-151.0,-156.0,-291.0,-303.0
2786,-97,-308,0,2925.0,3077.0,-127.0,-151.0,-300.0,-291.0
2687,-72,-307,0,2786.0,2925.0,-97.0,-127.0,-308.0,-300.0
2625,-55,-283,0,2687.0,2786.0,-72.0,-97.0,-307.0,-308.0
2597,-28,-260,0,2625.0,2687.0,-55.0,-72.0,-283.0,-307.0
2610,0,-236,0,2597.0,2625.0,-28.0,-55.0,-260.0,-283.0
2663,16,-201,0,2610.0,2597.0,0.0,-28.0,-236.0,-260.0
2745,31,-159,0,2663.0,2610.0,16.0,0.0,-201.0,-236.0
2853,62,-132,0,2745.0,2663.0,31.0,16.0,-159.0,-201.0
2992,115,-120,0,2853.0,2745.0,62.0,31.0,-132.0,-159.0
3169,176,-107,0,2992.0,2853.0,115.0,62.0,-120.0,-132.0
3381,242,-88,0,3169.0,2992.0,176.0,115.0,-107.0,-120.0
3618,303,-42,0,3381.0,3169.0,242.0,176.0,-88.0,-107.0
3872,361,17,0,3618.0,3381.0,303.0,242.0,-42.0,-88.0
4125,425,88,0,3872.0,3618.0,361.0,303.0,17.0,-42.0
4361,496,141,0,4125.0,3872.0,425.0,361.0,88.0,17.0
4567,575,177,0,4361.0,4125.0,496.0,425.0,141.0,88.0
4750,655,206,0,4567.0,4361.0,575.0,496.0,177.0,141.0
4910,730,240,0,4750.0,4567.0,655.0,575.0,206.0,177.0
5051,814,284,0,4910.0,4750.0,730.0,655.0,240.0,206.0
5177,883,321,0,5051.0,4910.0,814.0,730.0,284.0,240.0
5296,928,346,0,5177.0,5051.0,883.0,814.0,321.0,284.0
5390,974,361,0,5296.0,5177.0,928.0,883.0,346.0,321.0
5463,1019,352,0,5390.0,5296.0,974.0,928.0,361.0,346.0
5509,1052,332,0,5463.0,5390.0,1019.0,974.0,352.0,361.0
5528,1086,305,0,5509.0,5463.0,1052.0,1019.0,332.0,352.0
5514,1111,288,0,5528.0,5509.0,1086.0,1052.0,305.0,332.0
5483,1132,294,0,5514.0,5528.0,1111.0,1086.0,288.0,305.0
5422,1160,319,0,5483.0,5514.0,1132.0,1111.0,294.0,288.0
5345,1184,372,0,5422.0,5483.0,1160.0,1132.0,319.0,294.0
5245,1193,451,0,5345.0,5422.0,1184.0,1160.0,372.0,319.0
5126,1193,521,0,5245.0,5345.0,1193.0,1184.0,451.0,372.0
4993,1167,578,0,5126.0,5245.0,1193.0,1193.0,521.0,451.0
4842,1119,600,0,4993.0,5126.0,1167.0,1193.0,578.0,521.0
4683,1046,591,0,4842.0,4993.0,1119.0,1167.0,600.0,578.0
4517,947,550,0,4683.0,4842.0,1046.0,1119.0,591.0,600.0
4344,830,488,0,4517.0,4683.0,947.0,1046.0,550.0,591.0
4170,722,419,0,4344.0,4517.0,830.0,947.0,488.0,550.0
4001,622,347,0,4170.0,4344.0,722.0,830.0,419.0,488.0
3845,502,278,0,4001.0,4170.0,622.0,722.0,347.0,419.0
3688,370,195,0,3845.0,4001.0,502.0,622.0,278.0,347.0
3592,271,143,0,3688.0,3845.0,370.0,502.0,195.0,278.0
3552,203,162,0,3592.0,3688.0,271.0,370.0,143.0,195.0
3562,147,225,0,3552.0,3592.0,203.0,271.0,162.0,143.0
3596,108,288,0,3562.0,3552.0,147.0,203.0,225.0,162.0
3627,72,331,0,3596.0,3562.0,108.0,147.0,288.0,225.0
3668,51,368,0,3627.0,3596.0,72.0,108.0,331.0,288.0
3703,32,413,0,3668.0,3627.0,51.0,72.0,368.0,331.0
3731,23,459,0,3703.0,3668.0,32.0,51.0,413.0,368.0
3743,19,497,0,3731.0,3703.0,23.0,32.0,459.0,413.0
3728,12,520,0,3743.0,3731.0,19.0,23.0,497.0,459.0
3696,4,532,0,3728.0,3743.0,12.0,19.0,520.0,497.0
3644,5,550,0,3696.0,3728.0,4.0,12.0,532.0,520.0
3564,23,572,0,3644.0,3696.0,5.0,4.0,550.0,532.0
3481,24,606,0,3564.0,3644.0,23.0,5.0,572.0,550.0
3392,27,643,0,3481.0,3564.0,24.0,23.0,606.0,572.0
3266,2,602,0,3392.0,3481.0,27.0,24.0,643.0,606.0
3106,-70,487,0,3266.0,3392.0,2.0,27.0,602.0,643.0
2971,-107,484,0,3106.0,3266.0,-70.0,2.0,487.0,602.0
2891,-68,615,0,2971.0,3106.0,-107.0,-70.0,484.0,487.0
2848,-21,771,0,2891.0,2971.0,-68.0,-107.0,615.0,484.0
2822,11,865,0,2848.0,2891.0,-21.0,-68.0,771.0,615.0
2798,47,900,0,2822.0,2848.0,11.0,-21.0,865.0,771.0
2776,32,884,0,2798.0,2822.0,47.0,11.0,900.0,865.0
2769,55,896,0,2776.0,2798.0,32.0,47.0,884.0,900.0
2761,70,878,0,2769.0,2776.0,55.0,32.0,896.0,884.0
2757,95,864,0,2761.0,2769.0,70.0,55.0,878.0,896.0
2761,130,860,0,2757.0,2761.0,95.0,70.0,864.0,878.0
2759,155,839,0,2761.0,2757.0,130.0,95.0,860.0,864.0
2784,198,839,0,2759.0,2761.0,155.0,130.0,839.0,860.0
2806,224,830,0,2784.0,2759.0,198.0,155.0,839.0,839.0
2846,271,838,0,2806.0,2784.0,224.0,198.0,830.0,839.0
2882,277,822,0,2846.0,2806.0,271.0,224.0,838.0,830.0
2913,292,806,0,2882.0,2846.0,277.0,271.0,822.0,838.0
2971,316,828,0,2913.0,2882.0,292.0,277.0,806.0,822.0
3000,289,799,0,2971.0,2913.0,316.0,292.0,828.0,806.0
3045,287,802,0,3000.0,2971.0,289.0,316.0,799.0,828.0
3100,298,836,0,3045.0,3000.0,287.0,289.0,802.0,799.0
3141,258,820,0,3100.0,3045.0,298.0,287.0,836.0,802.0
3166,211,798,0,3141.0,3100.0,258.0,298.0,820.0,836.0
3176,185,789,0,3166.0,3141.0,211.0,258.0,798.0,820.0
3175,182,795,0,3176.0,3166.0,185.0,211.0,789.0,798.0
3180,193,812,0,3175.0,3176.0,182.0,185.0,795.0,789.0
3202,208,847,0,3180.0,3175.0,193.0,182.0,812.0,795.0
3239,216,888,0,3202.0,3180.0,208.0,193.0,847.0,812.0
3269,219,923,0,3239.0,3202.0,216.0,208.0,888.0,847.0
3297,246,996,0,3269.0,3239.0,219.0,216.0,923.0,888.0
3342,312,1107,0,3297.0,3269.0,246.0,219.0,996.0,923.0
3396,322,1183,0,3342.0,3297.0,312.0,246.0,1107.0,996.0
3448,316,1246,0,3396.0,3342.0,322.0,312.0,1183.0,1107.0
3517,302,1288,0,3448.0,3396.0,316.0,322.0,1246.0,1183.0
3571,311,1316,0,3517.0,3448.0,302.0,316.0,1288.0,1246.0
3640,394,1378,0,3571.0,3517.0,311.0,302.0,1316.0,1288.0
3711,469,1405,0,3640.0,3571.0,394.0,311.0,1378.0,1316.0
3765,501,1406,0,3711.0,3640.0,469.0,394.0,1405.0,1378.0
3803,505,1411,0,3765.0,3711.0,501.0,469.0,1406.0,1405.0
3832,527,1475,0,3803.0,3765.0,505.0,501.0,1411.0,1406.0
3856,589,1580,0,3832.0,3803.0,527.0,505.0,1475.0,1411.0
3890,645,1679,0,3856.0,3832.0,589.0,527.0,1580.0,1475.0
3924,697,1772,0,3890.0,3856.0,645.0,589.0,1679.0,1580.0
3949,691,1817,0,3924.0,3890.0,697.0,645.0,1772.0,1679.0
3931,646,1823,0,3949.0,3924.0,691.0,697.0,1817.0,1772.0
3898,609,1827,0,3931.0,3949.0,646.0,691.0,1823.0,1817.0
3877,589,1845,0,3898.0,3931.0,609.0,646.0,1827.0,1823.0
3878,617,1881,0,3877.0,3898.0,589.0,609.0,1845.0,1827.0
3888,676,1898,0,3878.0,3877.0,617.0,589.0,1881.0,1845.0
3900,771,1904,0,3888.0,3878.0,676.0,617.0,1898.0,1881.0
3911,810,1856,0,3900.0,3888.0,771.0,676.0,1904.0,1898.0
3915,802,1762,0,3911.0,3900.0,810.0,771.0,1856.0,1904.0
3915,781,1676,0,3915.0,3911.0,802.0,810.0,1762.0,1856.0
3899,767,1607,0,3915.0,3915.0,781.0,802.0,1676.0,1762.0
3865,804,1591,0,3899.0,3915.0,767.0,781.0,1607.0,1676.0
3829,867,1612,0,3865.0,3899.0,804.0,767.0,1591.0,1607.0
3850,921,1656,0,3829.0,3865.0,867.0,804.0,1612.0,1591.0
3823,810,1545,0,3850.0,3829.0,921.0,867.0,1656.0,1612.0
3741,775,1488,0,3823.0,3850.0,810.0,921.0,1545.0,1656.0
3708,866,1543,0,3741.0,3823.0,775.0,810.0,1488.0,1545.0
3739,945,1612,0,3708.0,3741.0,866.0,775.0,1543.0,1488.0
3731,851,1512,0,3739.0,3708.0,945.0,866.0,1612.0,1543.0
3694,843,1486,0,3731.0,3739.0,851.0,945.0,1512.0,1612.0
3734,881,1549,0,3694.0,3731.0,843.0,851.0,1486.0,1512.0
3765,802,1500,0,3734.0,3694.0,881.0,843.0,1549.0,1486.0
3758,751,1460,0,3765.0,3734.0,802.0,881.0,1500.0,1549.0
3774,761,1466,0,3758.0,3765.0,751.0,802.0,1460.0,1500.0
3825,649,1381,0,3774.0,3758.0,761.0,751.0,1466.0,1460.0
3893,509,1277,0,3825.0,3774.0,649.0,761.0,1381.0,1466.0
4067,488,1291,0,3893.0,3825.0,509.0,649.0,1277.0,1381.0
4382,441,1325,0,4067.0,3893.0,488.0,509.0,1291.0,1277.0
4781,146,1172,0,4382.0,4067.0,441.0,488.0,1325.0,1291.0
5187,-139,1037,0,4781.0,4382.0,146.0,441.0,1172.0,1325.0
5630,-377,939,0,5187.0,4781.0,-139.0,146.0,1037.0,1172.0
5998,-702,736,0,5630.0,5187.0,-377.0,-139.0,939.0,1037.0
6214,-984,518,0,5998.0,5630.0,-702.0,-377.0,736.0,939.0
6327,-935,518,0,6214.0,5998.0,-984.0,-702.0,518.0,736.0
6454,-710,677,0,6327.0,6214.0,-935.0,-984.0,518.0,518.0
6632,-445,875,0,6454.0,6327.0,-710.0,-935.0,677.0,518.0
6788,-267,949,0,6632.0,6454.0,-445.0,-710.0,875.0,677.0
6854,-290,860,0,6788.0,6632.0,-267.0,-445.0,949.0,875.0
6916,-260,865,0,6854.0,6788.0,-290.0,-267.0,860.0,949.0
6915,-351,757,0,6916.0,6854.0,-260.0,-290.0,865.0,860.0
6833,-607,569,0,6915.0,6916.0,-351.0,-260.0,757.0,865.0
6698,-758,551,0,6833.0,6915.0,-607.0,-351.0,569.0,757.0
6414,-878,535,0,6698.0,6833.0,-758.0,-607.0,551.0,569.0
6009,-771,715,0,6414.0,6698.0,-878.0,-758.0,535.0,551.0
5510,-583,897,0,6009.0,6414.0,-771.0,-878.0,715.0,535.0
4974,-286,1194,0,5510.0,6009.0,-583.0,-771.0,897.0,715.0
4464,-20,1383,0,4974.0,5510.0,-286.0,-583.0,1194.0,897.0
3990,190,1455,0,4464.0,4974.0,-20.0,-286.0,1383.0,1194.0
3587,297,1398,0,3990.0,4464.0,190.0,-20.0,1455.0,1383.0
3262,254,1241,0,3587.0,3990.0,297.0,190.0,1398.0,1455.0
3046,193,1130,0,3262.0,3587.0,254.0,297.0,1241.0,1398.0
2842,47,911,0,3046.0,3262.0,193.0,254.0,1130.0,1241.0
2686,-50,778,0,2842.0,3046.0,47.0,193.0,911.0,1130.0
2580,-108,712,0,2686.0,2842.0,-50.0,47.0,778.0,911.0
2496,-174,583,0,2580.0,2686.0,-108.0,-50.0,712.0,778.0
2477,-256,447,0,2496.0,2580.0,-174.0,-108.0,583.0,712.0
2583,-302,344,0,2477.0,2496.0,-256.0,-174.0,447.0,583.0
2784,-226,317,0,2583.0,2477.0,-302.0,-256.0,344.0,447.0
2895,-25,232,0,2784.0,2583.0,-226.0,-302.0,317.0,344.0
2951,80,66,0,2895.0,2784.0,-25.0,-226.0,232.0,317.0
3004,95,-82,0,2951.0,2895.0,80.0,-25.0,66.0,232.0
3083,55,-211,0,3004.0,2951.0,95.0,80.0,-82.0,66.0
3148,-11,-363,0,3083.0,3004.0,55.0,95.0,-211.0,-82.0
3185,-65,-503,0,3148.0,3083.0,-11.0,55.0,-363.0,-211.0
3176,-198,-704,0,3185.0,3148.0,-65.0,-11.0,-503.0,-363.0
3216,-319,-790,0,3176.0,3185.0,-198.0,-65.0,-704.0,-503.0
3321,-311,-791,0,3216.0,3176.0,-319.0,-198.0,-790.0,-704.0
3476,-374,-851,0,3321.0,3216.0,-311.0,-319.0,-791.0,-790.0
3674,-285,-819,0,3476.0,3321.0,-374.0,-311.0,-851.0,-791.0
3898,-176,-738,0,3674.0,3476.0,-285.0,-374.0,-819.0,-851.0
4148,-87,-665,0,3898.0,3674.0,-176.0,-285.0,-738.0,-819.0
4407,31,-542,0,4148.0,3898.0,-87.0,-176.0,-665.0,-738.0
4666,193,-391,0,4407.0,4148.0,31.0,-87.0,-542.0,-665.0
4865,377,-238,0,4666.0,4407.0,193.0,31.0,-391.0,-542.0
5002,533,-120,0,4865.0,4666.0,377.0,193.0,-238.0,-391.0
5044,646,-34,0,5002.0,4865.0,533.0,377.0,-120.0,-238.0
5008,710,41,0,5044.0,5002.0,646.0,533.0,-34.0,-120.0
4890,707,101,0,5008.0,5044.0,710.0,646.0,41.0,-34.0
4723,633,127,0,4890.0,5008.0,707.0,710.0,101.0,41.0
4521,522,125,0,4723.0,4890.0,633.0,707.0,127.0,101.0
4298,417,102,0,4521.0,4723.0,522.0,633.0,125.0,127.0
4082,293,45,0,4298.0,4521.0,417.0,522.0,102.0,125.0
3874,188,-8,0,4082.0,4298.0,293.0,417.0,45.0,102.0
3716,60,-33,0,3874.0,4082.0,188.0,293.0,-8.0,45.0
3566,-73,-62,0,3716.0,3874.0,60.0,188.0,-33.0,-8.0
3458,-229,-100,0,3566.0,3716.0,-73.0,60.0,-62.0,-33.0
3358,-377,-135,0,3458.0,3566.0,-229.0,-73.0,-100.0,-62.0
3298,-548,-148,0,3358.0,3458.0,-377.0,-229.0,-135.0,-100.0
3308,-738,-146,0,3298.0,3358.0,-548.0,-377.0,-148.0,-135.0
3357,-898,-123,0,3308.0,3298.0,-738.0,-548.0,-146.0,-148.0
3427,-1038,-87,0,3357.0,3308.0,-898.0,-738.0,-123.0,-146.0
3523,-1189,-61,0,3427.0,3357.0,-1038.0,-898.0,-87.0,-123.0
3601,-1265,-32,0,3523.0,3427.0,-1189.0,-1038.0,-61.0,-87.0
3680,-1287,-12,0,3601.0,3523.0,-1265.0,-1189.0,-32.0,-61.0
3765,-1253,24,0,3680.0,3601.0,-1287.0,-1265.0,-12.0,-32.0
3823,-1137,72,0,3765.0,3680.0,-1253.0,-1287.0,24.0,-12.0
3882,-1033,79,0,3823.0,3765.0,-1137.0,-1253.0,72.0,24.0
3923,-944,62,0,3882.0,3823.0,-1033.0,-1137.0,79.0,72.0
3956,-850,67,0,3923.0,3882.0,-944.0,-1033.0,62.0,79.0
3996,-756,87,0,3956.0,3923.0,-850.0,-944.0,67.0,62.0
4021,-666,99,0,3996.0,3956.0,-756.0,-850.0,87.0,67.0
4050,-592,114,0,4021.0,3996.0,-666.0,-756.0,99.0,87.0
4074,-506,149,0,4050.0,4021.0,-592.0,-666.0,114.0,99.0
4081,-409,184,0,4074.0,4050.0,-506.0,-592.0,149.0,114.0
4085,-316,233,0,4081.0,4074.0,-409.0,-506.0,184.0,149.0
4079,-223,266,0,4085.0,4081.0,-316.0,-409.0,233.0,184.0
4058,-127,288,0,4079.0,4085.0,-223.0,-316.0,266.0,233.0
4031,-14,297,0,4058.0,4079.0,-127.0,-223.0,288.0,266.0
4000,101,295,0,4031.0,4058.0,-14.0,-127.0,297.0,288.0
3957,137,240,0,4000.0,4031.0,101.0,-14.0,295.0,297.0
3875,184,172,0,3957.0,4000.0,137.0,101.0,240.0,295.0
3776,298,152,0,3875.0,3957.0,184.0,137.0,172.0,240.0
3700,351,109,0,3776.0,3875.0,298.0,184.0,152.0,172.0
3606,281,12,0,3700.0,3776.0,351.0,298.0,109.0,152.0
3495,226,-53,0,3606.0,3700.0,281.0,351.0,12.0,109.0
3379,242,-41,0,3495.0,3606.0,226.0,281.0,-53.0,12.0
3308,418,56,0,3379.0,3495.0,242.0,226.0,-41.0,-53.0
3271,614,110,0,3308.0,3379.0,418.0,242.0,56.0,-41.0
3249,759,127,0,3271.0,3308.0,614.0,418.0,110.0,56.0
3236,820,105,0,3249.0,3271.0,759.0,614.0,127.0,110.0
3226,867,102,0,3236.0,3249.0,820.0,759.0,105.0,127.0
3242,784,43,0,3226.0,3236.0,867.0,820.0,102.0,105.0
3286,704,44,0,3242.0,3226.0,784.0,867.0,43.0,102.0
3327,649,69,0,3286.0,3242.0,704.0,784.0,44.0,43.0
3369,518,37,0,3327.0,3286.0,649.0,704.0,69.0,44.0
3400,347,-11,0,3369.0,3327.0,518.0,649.0,37.0,69.0
3420,196,-5,0,3400.0,3369.0,347.0,518.0,-11.0,37.0
3453,96,30,0,3420.0,3400.0,196.0,347.0,-5.0,-11.0
3509,46,95,0,3453.0,3420.0,96.0,196.0,30.0,-5.0
3572,86,180,0,3509.0,3453.0,46.0,96.0,95.0,30.0
3678,153,244,0,3572.0,3509.0,86.0,46.0,180.0,95.0
3794,187,278,0,3678.0,3572.0,153.0,86.0,244.0,180.0
3923,251,309,0,3794.0,3678.0,187.0,153.0,278.0,244.0
4040,308,346,0,3923.0,3794.0,251.0,187.0,309.0,278.0
4129,318,359,0,4040.0,3923.0,308.0,251.0,346.0,309.0
4187,345,375,0,4129.0,4040.0,318.0,308.0,359.0,346.0
4220,359,380,0,4187.0,4129.0,345.0,318.0,375.0,359.0
4231,376,399,0,4220.0,4187.0,359.0,345.0,380.0,375.0
4213,375,386,0,4231.0,4220.0,376.0,359.0,399.0,380.0
4174,334,370,0,4213.0,4231.0,375.0,376.0,386.0,399.0
4135,297,353,0,4174.0,4213.0,334.0,375.0,370.0,386.0
4074,252,316,0,4135.0,4174.0,297.0,334.0,353.0,370.0
3992,236,278,0,4074.0,4135.0,252.0,297.0,316.0,353.0
3909,244,256,0,3992.0,4074.0,236.0,252.0,278.0,316.0
3834,258,247,0,3909.0,3992.0,244.0,236.0,256.0,278.0
3768,297,252,0,3834.0,3909.0,258.0,244.0,247.0,256.0
3715,343,257,0,3768.0,3834.0,297.0,258.0,252.0,247.0
3682,373,265,0,3715.0,3768.0,343.0,297.0,257.0,252.0
3666,385,274,0,3682.0,3715.0,373.0,343.0,265.0,257.0
3664,394,280,0,3666.0,3682.0,385.0,373.0,274.0,265.0
3676,386,278,0,3664.0,3666.0,394.0,385.0,280.0,274.0
3711,370,297,0,3676.0,3664.0,386.0,394.0,278.0,280.0
3742,332,324,0,3711.0,3676.0,370.0,386.0,297.0,278.0
3798,275,346,0,3742.0,3711.0,332.0,370.0,324.0,297.0
3855,243,367,0,3798.0,3742.0,275.0,332.0,346.0,324.0
3927,216,393,0,3855.0,3798.0,243.0,275.0,367.0,346.0
4005,186,408,0,3927.0,3855.0,216.0,243.0,393.0,367.0
4053,153,405,0,4005.0,3927.0,186.0,216.0,408.0,393.0
4078,120,370,0,4053.0,4005.0,153.0,186.0,405.0,408.0
4097,86,344,0,4078.0,4053.0,120.0,153.0,370.0,405.0
4104,78,341,0,4097.0,4078.0,86.0,120.0,344.0,370.0
4112,63,348,0,4104.0,4097.0,78.0,86.0,341.0,344.0
4107,75,346,0,4112.0,4104.0,63.0,78.0,348.0,341.0
4090,96,329,0,4107.0,4112.0,75.0,63.0,346.0,348.0
4046,85,315,0,4090.0,4107.0,96.0,75.0,329.0,346.0
3977,56,313,0,4046.0,4090.0,85.0,96.0,315.0,329.0
3900,21,313,0,3977.0,4046.0,56.0,85.0,313.0,315.0
3822,-29,335,0,3900.0,3977.0,21.0,56.0,313.0,313.0
3751,-57,370,0,3822.0,3900.0,-29.0,21.0,335.0,313.0
3735,-122,333,0,3751.0,3822.0,-57.0,-29.0,370.0,335.0
3769,-173,255,0,3735.0,3751.0,-122.0,-57.0,333.0,370.0
3792,-137,282,0,3769.0,3735.0,-173.0,-122.0,255.0,333.0
3813,-97,327,0,3792.0,3769.0,-137.0,-173.0,282.0,255.0
3855,-66,375,0,3813.0,3792.0,-97.0,-137.0,327.0,282.0
3910,-23,417,0,3855.0,3813.0,-66.0,-97.0,375.0,327.0
3933,0,417,0,3910.0,3855.0,-23.0,-66.0,417.0,375.0
3938,20,396,0,3933.0,3910.0,0.0,-23.0,417.0,417.0
3917,71,386,0,3938.0,3933.0,20.0,0.0,396.0,417.0
3869,155,380,0,3917.0,3938.0,71.0,20.0,386.0,396.0
3814,180,310,0,3869.0,3917.0,155.0,71.0,380.0,386.0
3768,221,273,0,3814.0,3869.0,180.0,155.0,310.0,380.0
3730,273,261,0,3768.0,3814.0,221.0,180.0,273.0,310.0
3686,310,234,0,3730.0,3768.0,273.0,221.0,261.0,273.0
3678,355,221,0,3686.0,3730.0,310.0,273.0,234.0,261.0
3662,461,207,0,3678.0,3686.0,355.0,310.0,221.0,234.0
3625,571,152,0,3662.0,3678.0,461.0,355.0,207.0,221.0
3652,665,111,0,3625.0,3662.0,571.0,461.0,152.0,207.0
3688,688,12,0,3652.0,3625.0,665.0,571.0,111.0,152.0
3776,694,-35,0,3688.0,3652.0,688.0,665.0,12.0,111.0
3816,715,-51,0,3776.0,3688.0,694.0,688.0,-35.0,12.0
3831,734,-37,0,3816.0,3776.0,715.0,694.0,-51.0,-35.0
3843,708,-38,0,3831.0,3816.0,734.0,715.0,-37.0,-51.0
3866,705,8,0,3843.0,3831.0,708.0,734.0,-38.0,-37.0
3921,683,26,0,3866.0,3843.0,705.0,708.0,8.0,-38.0
3953,635,63,0,3921.0,3866.0,683.0,705.0,26.0,8.0
3957,595,95,0,3953.0,3921.0,635.0,683.0,63.0,26.0
3958,555,160,0,3957.0,3953.0,595.0,635.0,95.0,63.0
3986,503,216,0,3958.0,3957.0,555.0,595.0,160.0,95.0
4028,462,294,0,3986.0,3958.0,503.0,555.0,216.0,160.0
4062,418,363,0,4028.0,3986.0,462.0,503.0,294.0,216.0
4122,378,409,0,4062.0,4028.0,418.0,462.0,363.0,294.0
4229,313,451,0,4122.0,4062.0,378.0,418.0,409.0,363.0
4377,248,492,0,4229.0,4122.0,313.0,378.0,451.0,409.0
4515,213,516,0,4377.0,4229.0,248.0,313.0,492.0,451.0
4650,136,520,0,4515.0,4377.0,213.0,248.0,516.0,492.0
4744,3,522,0,4650.0,4515.0,136.0,213.0,520.0,516.0
4792,-134,590,0,4744.0,4650.0,3.0,136.0,522.0,520.0
4708,-60,722,0,4792.0,4744.0,-134.0,3.0,590.0,522.0
4739,69,632,0,4708.0,4792.0,-60.0,-134.0,722.0,590.0
4726,251,462,0,4739.0,4708.0,69.0,-60.0,632.0,722.0
4716,440,284,0,4726.0,4739.0,251.0,69.0,462.0,632.0
4743,598,137,0,4716.0,4726.0,440.0,251.0,284.0,462.0
4824,731,17,0,4743.0,4716.0,598.0,440.0,137.0,284.0
4882,863,-61,0,4824.0,4743.0,731.0,598.0,17.0,137.0
4909,978,-130,0,4882.0,4824.0,863.0,731.0,-61.0,17.0
4914,1084,-190,0,4909.0,4882.0,978.0,863.0,-130.0,-61.0
4925,1183,-239,0,4914.0,4909.0,1084.0,978.0,-190.0,-130.0
4952,1276,-285,0,4925.0,4914.0,1183.0,1084.0,-239.0,-190.0
4997,1357,-348,0,4952.0,4925.0,1276.0,1183.0,-285.0,-239.0
5051,1400,-422,0,4997.0,4952.0,1357.0,1276.0,-348.0,-285.0
5096,1410,-504,0,5051.0,4997.0,1400.0,1357.0,-422.0,-348.0
5125,1396,-575,0,5096.0,5051.0,1410.0,1400.0,-504.0,-422.0
5130,1378,-624,0,5125.0,5096.0,1396.0,1410.0,-575.0,-504.0
5113,1340,-669,0,5130.0,5125.0,1378.0,1396.0,-624.0,-575.0
5094,1255,-721,0,5113.0,5130.0,1340.0,1378.0,-669.0,-624.0
5072,1149,-769,0,5094.0,5113.0,1255.0,1340.0,-721.0,-669.0
4996,1078,-801,0,5072.0,5094.0,1149.0,1255.0,-769.0,-721.0
4977,919,-833,0,4996.0,5072.0,1078.0,1149.0,-801.0,-769.0
4983,730,-842,0,4977.0,4996.0,919.0,1078.0,-833.0,-801.0
4969,551,-829,0,4983.0,4977.0,730.0,919.0,-842.0,-833.0
4910,400,-807,0,4969.0,4983.0,551.0,730.0,-829.0,-842.0
4813,272,-786,0,4910.0,4969.0,400.0,551.0,-807.0,-829.0
4682,147,-780,0,4813.0,4910.0,272.0,400.0,-786.0,-807.0
4539,26,-775,0,4682.0,4813.0,147.0,272.0,-780.0,-786.0
4390,-91,-763,0,4539.0,4682.0,26.0,147.0,-775.0,-780.0
4246,-217,-738,0,4390.0,4539.0,-91.0,26.0,-763.0,-775.0
4115,-352,-686,0,4246.0,4390.0,-217.0,-91.0,-738.0,-763.0
3990,-491,-624,0,4115.0,4246.0,-352.0,-217.0,-686.0,-738.0
3860,-613,-552,0,3990.0,4115.0,-491.0,-352.0,-624.0,-686.0
3731,-720,-467,0,3860.0,3990.0,-613.0,-491.0,-552.0,-624.0
3580,-797,-387,0,3731.0,3860.0,-720.0,-613.0,-467.0,-552.0
3434,-864,-323,0,3580.0,3731.0,-797.0,-720.0,-387.0,-467.0
3321,-917,-285,0,3434.0,3580.0,-864.0,-797.0,-323.0,-387.0
3245,-939,-259,0,3321.0,3434.0,-917.0,-864.0,-285.0,-323.0
3204,-923,-240,0,3245.0,3321.0,-939.0,-917.0,-259.0,-285.0
3194,-867,-219,0,3204.0,3245.0,-923.0,-939.0,-240.0,-259.0
3215,-773,-207,0,3194.0,3204.0,-867.0,-923.0,-219.0,-240.0
3268,-670,-197,0,3215.0,3194.0,-773.0,-867.0,-207.0,-219.0
3341,-559,-193,0,3268.0,3215.0,-670.0,-773.0,-197.0,-207.0
3437,-457,-194,0,3341.0,3268.0,-559.0,-670.0,-193.0,-197.0
3548,-370,-202,0,3437.0,3341.0,-457.0,-559.0,-194.0,-193.0
3665,-284,-204,0,3548.0,3437.0,-370.0,-457.0,-202.0,-194.0
3789,-188,-210,0,3665.0,3548.0,-284.0,-370.0,-204.0,-202.0
3922,-98,-209,0,3789.0,3665.0,-188.0,-284.0,-210.0,-204.0
4055,-10,-196,0,3922.0,3789.0,-98.0,-188.0,-209.0,-210.0
4211,79,-149,0,4055.0,3922.0,-10.0,-98.0,-196.0,-209.0
4375,188,-73,0,4211.0,4055.0,79.0,-10.0,-149.0,-196.0
4541,333,24,0,4375.0,4211.0,188.0,79.0,-73.0,-149.0
4679,521,104,0,4541.0,4375.0,333.0,188.0,24.0,-73.0
4789,703,140,0,4679.0,4541.0,521.0,333.0,104.0,24.0
4893,849,150,0,4789.0,4679.0,703.0,521.0,140.0,104.0
4993,921,145,0,4893.0,4789.0,849.0,703.0,150.0,140.0
5098,937,159,0,4993.0,4893.0,921.0,849.0,145.0,150.0
5190,983,201,0,5098.0,4993.0,937.0,921.0,159.0,145.0
5259,1034,248,0,5190.0,5098.0,983.0,937.0,201.0,159.0
5320,1045,284,0,5259.0,5190.0,1034.0,983.0,248.0,201.0
5359,1068,321,0,5320.0,5259.0,1045.0,1034.0,284.0,248.0
5357,1083,351,0,5359.0,5320.0,1068.0,1045.0,321.0,284.0
5320,1151,411,0,5357.0,5359.0,1083.0,1068.0,351.0,321.0
5246,1238,464,0,5320.0,5357.0,1151.0,1083.0,411.0,351.0
5164,1249,478,0,5246.0,5320.0,1238.0,1151.0,464.0,411.0
5093,1134,447,0,5164.0,5246.0,1249.0,1238.0,478.0,464.0
5012,949,423,0,5093.0,5164.0,1134.0,1249.0,447.0,478.0
4894,773,415,0,5012.0,5093.0,949.0,1134.0,423.0,447.0
4747,611,413,0,4894.0,5012.0,773.0,949.0,415.0,423.0
4584,499,420,0,4747.0,4894.0,611.0,773.0,413.0,415.0
4409,443,431,0,4584.0,4747.0,499.0,611.0,420.0,413.0
4237,449,453,0,4409.0,4584.0,443.0,499.0,431.0,420.0
4067,479,469,0,4237.0,4409.0,449.0,443.0,453.0,431.0
3908,470,452,0,4067.0,4237.0,479.0,449.0,469.0,453.0
3778,404,413,0,3908.0,4067.0,470.0,479.0,452.0,469.0
3695,300,380,0,3778.0,3908.0,404.0,470.0,413.0,452.0
3628,169,352,0,3695.0,3778.0,300.0,404.0,380.0,413.0
3580,40,337,0,3628.0,3695.0,169.0,300.0,352.0,380.0
3547,-97,342,0,3580.0,3628.0,40.0,169.0,337.0,352.0
3539,-194,379,0,3547.0,3580.0,-97.0,40.0,342.0,337.0
3523,-254,378,0,3539.0,3547.0,-194.0,-97.0,379.0,342.0
3454,-352,216,0,3523.0,3539.0,-254.0,-194.0,378.0,379.0
3422,-348,202,0,3454.0,3523.0,-352.0,-254.0,216.0,378.0
3431,-266,313,0,3422.0,3454.0,-348.0,-352.0,202.0,216.0
3472,-149,445,0,3431.0,3422.0,-266.0,-348.0,313.0,202.0
3534,-18,582,0,3472.0,3431.0,-149.0,-266.0,445.0,313.0
3590,98,677,0,3534.0,3472.0,-18.0,-149.0,582.0,445.0
3634,209,748,0,3590.0,3534.0,98.0,-18.0,677.0,582.0
3652,322,815,0,3634.0,3590.0,209.0,98.0,748.0,677.0
3642,367,827,0,3652.0,3634.0,322.0,209.0,815.0,748.0
3623,355,805,0,3642.0,3652.0,367.0,322.0,827.0,815.0
3596,318,770,0,3623.0,3642.0,355.0,367.0,805.0,827.0
3547,257,732,0,3596.0,3623.0,318.0,355.0,770.0,805.0
3448,153,633,0,3547.0,3596.0,257.0,318.0,732.0,770.0
3375,94,624,0,3448.0,3547.0,153.0,257.0,633.0,732.0
3296,59,634,0,3375.0,3448.0,94.0,153.0,624.0,633.0
3200,75,661,0,3296.0,3375.0,59.0,94.0,634.0,624.0
3125,145,726,0,3200.0,3296.0,75.0,59.0,661.0,634.0
3051,164,726,0,3125.0,3200.0,145.0,75.0,726.0,661.0
3024,167,747,0,3051.0,3125.0,164.0,145.0,726.0,726.0
3003,183,772,0,3024.0,3051.0,167.0,164.0,747.0,726.0
3013,228,814,0,3003.0,3024.0,183.0,167.0,772.0,747.0
3040,272,865,0,3013.0,3003.0,228.0,183.0,814.0,772.0
3061,284,855,0,3040.0,3013.0,272.0,228.0,865.0,814.0
3136,341,931,0,3061.0,3040.0,284.0,272.0,855.0,865.0
3204,328,885,0,3136.0,3061.0,341.0,284.0,931.0,855.0
3253,345,848,0,3204.0,3136.0,328.0,341.0,885.0,931.0
3263,266,716,0,3253.0,3204.0,345.0,328.0,848.0,885.0
3285,252,695,0,3263.0,3253.0,266.0,345.0,716.0,848.0
3275,201,657,0,3285.0,3263.0,252.0,266.0,695.0,716.0
3283,248,728,0,3275.0,3285.0,201.0,252.0,657.0,695.0
3275,250,727,0,3283.0,3275.0,248.0,201.0,728.0,657.0
3271,254,724,0,3275.0,3283.0,250.0,248.0,727.0,728.0
3272,291,756,0,3271.0,3275.0,254.0,250.0,724.0,727.0
3282,341,781,0,3272.0,3271.0,291.0,254.0,756.0,724.0
3305,368,783,0,3282.0,3272.0,341.0,291.0,781.0,756.0
3330,384,751,0,3305.0,3282.0,368.0,341.0,783.0,781.0
3347,389,717,0,3330.0,3305.0,384.0,368.0,751.0,783.0
3369,396,690,0,3347.0,3330.0,389.0,384.0,717.0,751.0
3396,396,660,0,3369.0,3347.0,396.0,389.0,690.0,717.0
3407,380,631,0,3396.0,3369.0,396.0,396.0,660.0,690.0
3406,371,626,0,3407.0,3396.0,380.0,396.0,631.0,660.0
3409,367,655,0,3406.0,3407.0,371.0,380.0,626.0,631.0
3405,371,697,0,3409.0,3406.0,367.0,371.0,655.0,626.0
3381,397,782,0,3405.0,3409.0,371.0,367.0,697.0,655.0
3373,491,923,0,3381.0,3405.0,397.0,371.0,782.0,697.0
3386,608,1061,0,3373.0,3381.0,491.0,397.0,923.0,782.0
3409,655,1132,0,3386.0,3373.0,608.0,491.0,1061.0,923.0
3421,647,1160,0,3409.0,3386.0,655.0,608.0,1132.0,1061.0
3419,607,1173,0,3421.0,3409.0,647.0,655.0,1160.0,1132.0
3421,568,1193,0,3419.0,3421.0,607.0,647.0,1173.0,1160.0
3411,528,1217,0,3421.0,3419.0,568.0,607.0,1193.0,1173.0
3401,538,1282,0,3411.0,3421.0,528.0,568.0,1217.0,1193.0
3405,570,1337,0,3401.0,3411.0,538.0,528.0,1282.0,1217.0
3439,627,1424,0,3405.0,3401.0,570.0,538.0,1337.0,1282.0
3509,657,1514,0,3439.0,3405.0,627.0,570.0,1424.0,1337.0
3596,646,1591,0,3509.0,3439.0,657.0,627.0,1514.0,1424.0
3651,615,1659,0,3596.0,3509.0,646.0,657.0,1591.0,1514.0
3688,558,1700,0,3651.0,3596.0,615.0,646.0,1659.0,1591.0
3730,499,1714,0,3688.0,3651.0,558.0,615.0,1700.0,1659.0
3764,452,1697,0,3730.0,3688.0,499.0,558.0,1714.0,1700.0
3759,427,1626,0,3764.0,3730.0,452.0,499.0,1697.0,1714.0
3724,427,1534,0,3759.0,3764.0,427.0,452.0,1626.0,1697.0
3709,423,1465,0,3724.0,3759.0,427.0,427.0,1534.0,1626.0
3708,420,1423,0,3709.0,3724.0,423.0,427.0,1465.0,1534.0
3707,428,1395,0,3708.0,3709.0,420.0,423.0,1423.0,1465.0
3725,435,1382,0,3707.0,3708.0,428.0,420.0,1395.0,1423.0
3787,422,1388,0,3725.0,3707.0,435.0,428.0,1382.0,1395.0
3857,397,1385,0,3787.0,3725.0,422.0,435.0,1388.0,1382.0
3907,405,1365,0,3857.0,3787.0,397.0,422.0,1385.0,1388.0
3937,448,1318,0,3907.0,3857.0,405.0,397.0,1365.0,1385.0
3971,497,1256,0,3937.0,3907.0,448.0,405.0,1318.0,1365.0
4024,529,1192,0,3971.0,3937.0,497.0,448.0,1256.0,1318.0
4050,574,1116,0,4024.0,3971.0,529.0,497.0,1192.0,1256.0
4036,587,1027,0,4050.0,4024.0,574.0,529.0,1116.0,1192.0
4007,560,935,0,4036.0,4050.0,587.0,574.0,1027.0,1116.0
3971,525,868,0,4007.0,4036.0,560.0,587.0,935.0,1027.0
3962,563,880,0,3971.0,4007.0,525.0,560.0,868.0,935.0
3959,624,914,0,3962.0,3971.0,563.0,525.0,880.0,868.0
3943,668,936,0,3959.0,3962.0,624.0,563.0,914.0,880.0
3937,624,934,0,3943.0,3959.0,668.0,624.0,936.0,914.0
3931,571,954,0,3937.0,3943.0,624.0,668.0,934.0,936.0
3937,571,1011,0,3931.0,3937.0,571.0,624.0,954.0,934.0
3991,576,1094,0,3937.0,3931.0,571.0,571.0,1011.0,954.0
4063,563,1187,0,3991.0,3937.0,576.0,571.0,1094.0,1011.0
4101,557,1275,0,4063.0,3991.0,563.0,576.0,1187.0,1094.0
4128,550,1359,0,4101.0,4063.0,557.0,563.0,1275.0,1187.0
4129,515,1418,0,4128.0,4101.0,550.0,557.0,1359.0,1275.0
4092,520,1465,0,4129.0,4128.0,515.0,550.0,1418.0,1359.0
4046,596,1524,0,4092.0,4129.0,520.0,515.0,1465.0,1418.0
4027,684,1557,0,4046.0,4092.0,596.0,520.0,1524.0,1465.0
3993,788,1563,0,4027.0,4046.0,684.0,596.0,1557.0,1524.0
3942,854,1523,0,3993.0,4027.0,788.0,684.0,1563.0,1557.0
3901,839,1421,0,3942.0,3993.0,854.0,788.0,1523.0,1563.0
3875,877,1360,0,3901.0,3942.0,839.0,854.0,1421.0,1523.0
3971,873,1309,0,3875.0,3901.0,877.0,839.0,1360.0,1421.0
4117,777,1184,0,3971.0,3875.0,873.0,877.0,1309.0,1360.0
4280,528,921,0,4117.0,3971.0,777.0,873.0,1184.0,1309.0
4423,266,640,0,4280.0,4117.0,528.0,777.0,921.0,1184.0
4613,161,524,0,4423.0,4280.0,266.0,528.0,640.0,921.0
4836,143,506,0,4613.0,4423.0,161.0,266.0,524.0,640.0
5057,119,501,0,4836.0,4613.0,143.0,161.0,506.0,524.0
5247,71,491,0,5057.0,4836.0,119.0,143.0,501.0,506.0
5431,-66,443,0,5247.0,5057.0,71.0,119.0,491.0,501.0
5644,-306,375,0,5431.0,5247.0,-66.0,71.0,443.0,491.0
5871,-596,290,0,5644.0,5431.0,-306.0,-66.0,375.0,443.0
6111,-869,193,0,5871.0,5644.0,-596.0,-306.0,290.0,375.0
6381,-1108,96,0,6111.0,5871.0,-869.0,-596.0,193.0,290.0
6696,-1363,-18,0,6381.0,6111.0,-1108.0,-869.0,96.0,193.0
7022,-1618,-117,0,6696.0,6381.0,-1363.0,-1108.0,-18.0,96.0
7279,-1847,-235,0,7022.0,6696.0,-1618.0,-1363.0,-117.0,-18.0
7450,-1986,-270,0,7279.0,7022.0,-1847.0,-1618.0,-235.0,-117.0
7464,-1951,-209,0,7450.0,7279.0,-1986.0,-1847.0,-270.0,-235.0
7338,-1778,-116,0,7464.0,7450.0,-1951.0,-1986.0,-209.0,-270.0
7092,-1502,18,0,7338.0,7464.0,-1778.0,-1951.0,-116.0,-209.0
6741,-1117,112,0,7092.0,7338.0,-1502.0,-1778.0,18.0,-116.0
6314,-679,255,0,6741.0,7092.0,-1117.0,-1502.0,112.0,18.0
5851,-298,365,0,6314.0,6741.0,-679.0,-1117.0,255.0,112.0
5357,-57,407,0,5851.0,6314.0,-298.0,-679.0,365.0,255.0
4834,116,400,0,5357.0,5851.0,-57.0,-298.0,407.0,365.0
4347,359,463,0,4834.0,5357.0,116.0,-57.0,400.0,407.0
3984,377,460,0,4347.0,4834.0,359.0,116.0,463.0,400.0
3613,280,284,0,3984.0,4347.0,377.0,359.0,460.0,463.0
3275,190,96,0,3613.0,3984.0,280.0,377.0,284.0,460.0
2967,125,-16,0,3275.0,3613.0,190.0,280.0,96.0,284.0
2723,37,-157,0,2967.0,3275.0,125.0,190.0,-16.0,96.0
2445,4,-265,0,2723.0,2967.0,37.0,125.0,-157.0,-16.0
2184,4,-284,0,2445.0,2723.0,4.0,37.0,-265.0,-157.0
2009,-7,-251,0,2184.0,2445.0,4.0,4.0,-284.0,-265.0
1884,-6,-214,0,2009.0,2184.0,-7.0,4.0,-251.0,-284.0
1833,-2,-173,0,1884.0,2009.0,-6.0,-7.0,-214.0,-251.0
1849,-12,-185,0,1833.0,1884.0,-2.0,-6.0,-173.0,-214.0
1942,-94,-262,0,1849.0,1833.0,-12.0,-2.0,-185.0,-173.0
2058,-253,-405,0,1942.0,1849.0,-94.0,-12.0,-262.0,-185.0
2142,-431,-589,0,2058.0,1942.0,-253.0,-94.0,-405.0,-262.0
2189,-604,-790,0,2142.0,2058.0,-431.0,-253.0,-589.0,-405.0
2222,-752,-976,0,2189.0,2142.0,-604.0,-431.0,-790.0,-589.0
2280,-862,-1108,0,2222.0,2189.0,-752.0,-604.0,-976.0,-790.0
2417,-852,-1092,0,2280.0,2222.0,-862.0,-752.0,-1108.0,-976.0
2622,-706,-947,0,2417.0,2280.0,-852.0,-862.0,-1092.0,-1108.0
2919,-437,-698,0,2622.0,2417.0,-706.0,-852.0,-947.0,-1092.0
3284,-102,-417,0,2919.0,2622.0,-437.0,-706.0,-698.0,-947.0
3679,136,-223,0,3284.0,2919.0,-102.0,-437.0,-417.0,-698.0
4046,212,-179,0,3679.0,3284.0,136.0,-102.0,-223.0,-417.0
4366,186,-236,0,4046.0,3679.0,212.0,136.0,-179.0,-223.0
4552,214,-276,0,4366.0,4046.0,186.0,212.0,-236.0,-179.0
4667,125,-335,0,4552.0,4366.0,214.0,186.0,-276.0,-236.0
4727,-18,-335,0,4667.0,4552.0,125.0,214.0,-335.0,-276.0
4715,-168,-318,0,4727.0,4667.0,-18.0,125.0,-335.0,-335.0
4639,-269,-262,0,4715.0,4727.0,-168.0,-18.0,-318.0,-335.0
4532,-379,-209,0,4639.0,4715.0,-269.0,-168.0,-262.0,-318.0
4411,-482,-128,0,4532.0,4639.0,-379.0,-269.0,-209.0,-262.0
4273,-523,-53,0,4411.0,4532.0,-482.0,-379.0,-128.0,-209.0
4186,-587,-20,0,4273.0,4411.0,-523.0,-482.0,-53.0,-128.0
4086,-620,38,0,4186.0,4273.0,-587.0,-523.0,-20.0,-53.0
4027,-678,56,0,4086.0,4186.0,-620.0,-587.0,38.0,-20.0
3996,-703,70,0,4027.0,4086.0,-678.0,-620.0,56.0,38.0
3970,-699,76,0,3996.0,4027.0,-703.0,-678.0,70.0,56.0
3960,-683,86,0,3970.0,3996.0,-699.0,-703.0,76.0,70.0
3968,-666,101,0,3960.0,3970.0,-683.0,-699.0,86.0,76.0
4005,-704,133,0,3968.0,3960.0,-666.0,-683.0,101.0,86.0
4049,-674,165,0,4005.0,3968.0,-704.0,-666.0,133.0,101.0
4074,-605,192,0,4049.0,4005.0,-674.0,-704.0,165.0,133.0
4128,-584,210,0,4074.0,4049.0,-605.0,-674.0,192.0,165.0
4212,-572,227,0,4128.0,4074.0,-584.0,-605.0,210.0,192.0
4264,-631,206,0,4212.0,4128.0,-572.0,-584.0,227.0,210.0
4263,-689,198,0,4264.0,4212.0,-631.0,-572.0,206.0,227.0
4236,-675,240,0,4263.0,4264.0,-689.0,-631.0,198.0,206.0
4182,-678,187,0,4236.0,4263.0,-675.0,-689.0,240.0,198.0
4137,-639,176,0,4182.0,4236.0,-678.0,-675.0,187.0,240.0
4082,-603,153,0,4137.0,4182.0,-639.0,-678.0,176.0,187.0
4032,-633,116,0,4082.0,4137.0,-603.0,-639.0,153.0,176.0
3946,-581,122,0,4032.0,4082.0,-633.0,-603.0,116.0,153.0
3844,-445,162,0,3946.0,4032.0,-581.0,-633.0,122.0,116.0
3738,-267,213,0,3844.0,3946.0,-445.0,-581.0,162.0,122.0
3683,-117,236,0,3738.0,3844.0,-267.0,-445.0,213.0,162.0
3658,27,253,0,3683.0,3738.0,-117.0,-267.0,236.0,213.0
3644,200,281,0,3658.0,3683.0,27.0,-117.0,253.0,236.0
3625,361,294,0,3644.0,3658.0,200.0,27.0,281.0,253.0
3609,533,269,0,3625.0,3644.0,361.0,200.0,294.0,281.0
3619,703,251,0,3609.0,3625.0,533.0,361.0,269.0,294.0
3636,642,145,0,3619.0,3609.0,703.0,533.0,251.0,269.0
3614,544,78,0,3636.0,3619.0,642.0,703.0,145.0,251.0
3561,575,110,0,3614.0,3636.0,544.0,642.0,78.0,145.0
3527,651,151,0,3561.0,3614.0,575.0,544.0,110.0,78.0
3490,574,91,0,3527.0,3561.0,651.0,575.0,151.0,110.0
3451,463,42,0,3490.0,3527.0,574.0,651.0,91.0,151.0
3404,387,48,0,3451.0,3490.0,463.0,574.0,42.0,91.0
3409,582,209,0,3404.0,3451.0,387.0,463.0,48.0,42.0
3472,737,264,0,3409.0,3404.0,582.0,387.0,209.0,48.0
3546,769,224,0,3472.0,3409.0,737.0,582.0,264.0,209.0
3622,774,190,0,3546.0,3472.0,769.0,737.0,224.0,264.0
3658,657,104,0,3622.0,3546.0,774.0,769.0,190.0,224.0
3699,588,137,0,3658.0,3622.0,657.0,774.0,104.0,190.0
3732,609,208,0,3699.0,3658.0,588.0,657.0,137.0,104.0
3789,706,297,0,3732.0,3699.0,609.0,588.0,208.0,137.0
3832,722,284,0,3789.0,3732.0,706.0,609.0,297.0,208.0
3863,641,212,0,3832.0,3789.0,722.0,706.0,284.0,297.0
3878,547,197,0,3863.0,3832.0,641.0,722.0,212.0,284.0
3880,450,194,0,3878.0,3863.0,547.0,641.0,197.0,212.0
3870,346,195,0,3880.0,3878.0,450.0,547.0,194.0,197.0
3849,248,192,0,3870.0,3880.0,346.0,450.0,195.0,194.0
3838,190,195,0,3849.0,3870.0,248.0,346.0,192.0,195.0
3843,162,180,0,3838.0,3849.0,190.0,248.0,195.0,192.0
3877,172,193,0,3843.0,3838.0,162.0,190.0,180.0,195.0
3941,259,243,0,3877.0,3843.0,172.0,162.0,193.0,180.0
4020,364,296,0,3941.0,3877.0,259.0,172.0,243.0,193.0
4094,433,309,0,4020.0,3941.0,364.0,259.0,296.0,243.0
4153,466,309,0,4094.0,4020.0,433.0,364.0,309.0,296.0
4188,440,298,0,4153.0,4094.0,466.0,433.0,309.0,309.0
4214,403,316,0,4188.0,4153.0,440.0,466.0,298.0,309.0
4213,429,386,0,4214.0,4188.0,403.0,440.0,316.0,298.0
4192,472,436,0,4213.0,4214.0,429.0,403.0,386.0,316.0
4158,476,441,0,4192.0,4213.0,472.0,429.0,436.0,386.0
4120,451,423,0,4158.0,4192.0,476.0,472.0,441.0,436.0
4062,409,421,0,4120.0,4158.0,451.0,476.0,423.0,441.0
3991,356,422,0,4062.0,4120.0,409.0,451.0,421.0,423.0
3922,307,428,0,3991.0,4062.0,356.0,409.0,422.0,421.0
3852,258,437,0,3922.0,3991.0,307.0,356.0,428.0,422.0
3793,218,438,0,3852.0,3922.0,258.0,307.0,437.0,428.0
3746,179,431,0,3793.0,3852.0,218.0,258.0,438.0,437.0
3717,156,419,0,3746.0,3793.0,179.0,218.0,431.0,438.0
3696,134,409,0,3717.0,3746.0,156.0,179.0,419.0,431.0
3680,116,415,0,3696.0,3717.0,134.0,156.0,409.0,419.0
3672,100,427,0,3680.0,3696.0,116.0,134.0,415.0,409.0
3676,79,438,0,3672.0,3680.0,100.0,116.0,427.0,415.0
3694,66,451,0,3676.0,3672.0,79.0,100.0,438.0,427.0
3715,68,478,0,3694.0,3676.0,66.0,79.0,451.0,438.0
3731,76,503,0,3715.0,3694.0,68.0,66.0,478.0,451.0
3757,71,515,0,3731.0,3715.0,76.0,68.0,503.0,478.0
3789,63,516,0,3757.0,3731.0,71.0,76.0,515.0,503.0
3818,78,529,0,3789.0,3757.0,63.0,71.0,516.0,515.0
3830,140,569,0,3818.0,3789.0,78.0,63.0,529.0,516.0
3830,199,572,0,3830.0,3818.0,140.0,78.0,569.0,529.0
3829,169,516,0,3830.0,3830.0,199.0,140.0,572.0,569.0
3819,100,440,0,3829.0,3830.0,169.0,199.0,516.0,572.0
3810,84,428,0,3819.0,3829.0,100.0,169.0,440.0,516.0
3805,163,486,0,3810.0,3819.0,84.0,100.0,428.0,440.0
3748,214,462,0,3805.0,3810.0,163.0,84.0,486.0,428.0
3683,251,423,0,3748.0,3805.0,214.0,163.0,462.0,486.0
3660,223,384,0,3683.0,3748.0,251.0,214.0,423.0,462.0
3666,163,369,0,3660.0,3683.0,223.0,251.0,384.0,423.0
3685,146,408,0,3666.0,3660.0,163.0,223.0,369.0,384.0
3720,143,416,0,3685.0,3666.0,146.0,163.0,408.0,369.0
3755,134,397,0,3720.0,3685.0,143.0,146.0,416.0,408.0
3800,129,398,0,3755.0,3720.0,134.0,143.0,397.0,416.0
3845,144,382,0,3800.0,3755.0,129.0,134.0,398.0,397.0
3876,178,339,0,3845.0,3800.0,144.0,129.0,382.0,398.0
3886,246,304,0,3876.0,3845.0,178.0,144.0,339.0,382.0
3923,332,292,0,3886.0,3876.0,246.0,178.0,304.0,339.0
3954,403,248,0,3923.0,3886.0,332.0,246.0,292.0,304.0
3995,452,203,0,3954.0,3923.0,403.0,332.0,248.0,292.0
4022,519,160,0,3995.0,3954.0,452.0,403.0,203.0,248.0
4035,567,108,0,4022.0,3995.0,519.0,452.0,160.0,203.0
4047,599,56,0,4035.0,4022.0,567.0,519.0,108.0,160.0
4054,644,23,0,4047.0,4035.0,599.0,567.0,56.0,108.0
4076,717,-14,0,4054.0,4047.0,644.0,599.0,23.0,56.0
4071,842,-7,0,4076.0,4054.0,717.0,644.0,-14.0,23.0
4027,967,-4,0,4071.0,4076.0,842.0,717.0,-7.0,-14.0
3958,1059,17,0,4027.0,4071.0,967.0,842.0,-4.0,-7.0
3877,1100,34,0,3958.0,4027.0,1059.0,967.0,17.0,-4.0
3766,1092,45,0,3877.0,3958.0,1100.0,1059.0,34.0,17.0
3677,1008,58,0,3766.0,3877.0,1092.0,1100.0,45.0,34.0
3645,862,82,0,3677.0,3766.0,1008.0,1092.0,58.0,45.0
3652,720,142,0,3645.0,3677.0,862.0,1008.0,82.0,58.0
3704,590,192,0,3652.0,3645.0,720.0,862.0,142.0,82.0
3821,441,207,0,3704.0,3652.0,590.0,720.0,192.0,142.0
3961,312,239,0,3821.0,3704.0,441.0,590.0,207.0,192.0
4087,222,281,0,3961.0,3821.0,312.0,441.0,239.0,207.0
4196,148,326,0,4087.0,3961.0,222.0,312.0,281.0,239.0
4305,68,366,0,4196.0,4087.0,148.0,222.0,326.0,281.0
4404,-21,386,0,4305.0,4196.0,68.0,148.0,366.0,326.0
4478,-94,419,0,4404.0,4305.0,-21.0,68.0,386.0,366.0
4540,-148,429,0,4478.0,4404.0,-94.0,-21.0,419.0,386.0
4604,-208,430,0,4540.0,4478.0,-148.0,-94.0,429.0,419.0
4668,-251,421,0,4604.0,4540.0,-208.0,-148.0,430.0,429.0
4727,-244,415,0,4668.0,4604.0,-251.0,-208.0,421.0,430.0
4779,-167,400,0,4727.0,4668.0,-244.0,-251.0,415.0,421.0
4818,-56,336,0,4779.0,4727.0,-167.0,-244.0,400.0,415.0
4843,91,248,0,4818.0,4779.0,-56.0,-167.0,336.0,400.0
4857,229,128,0,4843.0,4818.0,91.0,-56.0,248.0,336.0
4868,348,-18,0,4857.0,4843.0,229.0,91.0,128.0,248.0
4873,470,-168,0,4868.0,4857.0,348.0,229.0,-18.0,128.0
4860,604,-320,0,4873.0,4868.0,470.0,348.0,-168.0,-18.0
4851,718,-478,0,4860.0,4873.0,604.0,470.0,-320.0,-168.0
4865,812,-614,0,4851.0,4860.0,718.0,604.0,-478.0,-320.0
4893,897,-730,0,4865.0,4851.0,812.0,718.0,-614.0,-478.0
4928,970,-801,0,4893.0,4865.0,897.0,812.0,-730.0,-614.0
4978,1050,-851,0,4928.0,4893.0,970.0,897.0,-801.0,-730.0
5027,1125,-872,0,4978.0,4928.0,1050.0,970.0,-851.0,-801.0
5076,1197,-901,0,5027.0,4978.0,1125.0,1050.0,-872.0,-851.0
5121,1206,-953,0,5076.0,5027.0,1197.0,1125.0,-901.0,-872.0
5171,1138,-990,0,5121.0,5076.0,1206.0,1197.0,-953.0,-901.0
5221,1032,-1012,0,5171.0,5121.0,1138.0,1206.0,-990.0,-953.0
5260,917,-1009,0,5221.0,5171.0,1032.0,1138.0,-1012.0,-990.0
5299,774,-992,0,5260.0,5221.0,917.0,1032.0,-1009.0,-1012.0
5338,612,-948,0,5299.0,5260.0,774.0,917.0,-992.0,-1009.0
5358,434,-875,0,5338.0,5299.0,612.0,774.0,-948.0,-992.0
5344,258,-779,0,5358.0,5338.0,434.0,612.0,-875.0,-948.0
5295,81,-670,0,5344.0,5358.0,258.0,434.0,-779.0,-875.0
5214,-104,-561,0,5295.0,5344.0,81.0,258.0,-670.0,-779.0
5128,-296,-470,0,5214.0,5295.0,-104.0,81.0,-561.0,-670.0
4999,-469,-398,0,5128.0,5214.0,-296.0,-104.0,-470.0,-561.0
4829,-605,-326,0,4999.0,5128.0,-469.0,-296.0,-398.0,-470.0
4616,-713,-254,0,4829.0,4999.0,-605.0,-469.0,-326.0,-398.0
4393,-823,-191,0,4616.0,4829.0,-713.0,-605.0,-254.0,-326.0
4234,-961,-120,0,4393.0,4616.0,-823.0,-713.0,-191.0,-254.0
4135,-1085,-55,0,4234.0,4393.0,-961.0,-823.0,-120.0,-191.0
4070,-1172,15,0,4135.0,4234.0,-1085.0,-961.0,-55.0,-120.0
4022,-1178,96,0,4070.0,4135.0,-1172.0,-1085.0,15.0,-55.0
3967,-1087,191,0,4022.0,4070.0,-1178.0,-1172.0,96.0,15.0
3908,-940,256,0,3967.0,4022.0,-1087.0,-1178.0,191.0,96.0
3858,-783,255,0,3908.0,3967.0,-940.0,-1087.0,256.0,191.0
3815,-636,219,0,3858.0,3908.0,-783.0,-940.0,255.0,256.0
3789,-508,161,0,3815.0,3858.0,-636.0,-783.0,219.0,255.0
3783,-391,102,0,3789.0,3815.0,-508.0,-636.0,161.0,219.0
3789,-256,57,0,3783.0,3789.0,-391.0,-508.0,102.0,161.0
3806,-109,54,0,3789.0,3783.0,-256.0,-391.0,57.0,102.0
3844,36,79,0,3806.0,3789.0,-109.0,-256.0,54.0,57.0
3896,215,135,0,3844.0,3806.0,36.0,-109.0,79.0,54.0
3941,428,203,0,3896.0,3844.0,215.0,36.0,135.0,79.0
4008,663,301,0,3941.0,3896.0,428.0,215.0,203.0,135.0
4083,967,439,0,4008.0,3941.0,663.0,428.0,301.0,203.0
4167,1263,539,0,4083.0,4008.0,967.0,663.0,439.0,301.0
4270,1501,609,0,4167.0,4083.0,1263.0,967.0,539.0,439.0
4404,1647,607,0,4270.0,4167.0,1501.0,1263.0,609.0,539.0
4579,1711,596,0,4404.0,4270.0,1647.0,1501.0,607.0,609.0
4754,1716,618,0,4579.0,4404.0,1711.0,1647.0,596.0,607.0
4893,1687,638,0,4754.0,4579.0,1716.0,1711.0,618.0,596.0
4990,1646,700,0,4893.0,4754.0,1687.0,1716.0,638.0,618.0
5033,1613,755,0,4990.0,4893.0,1646.0,1687.0,700.0,638.0
5035,1522,766,0,5033.0,4990.0,1613.0,1646.0,755.0,700.0
4987,1261,656,0,5035.0,5033.0,1522.0,1613.0,766.0,755.0
4848,942,516,0,4987.0,5035.0,1261.0,1522.0,656.0,766.0
4641,692,418,0,4848.0,4987.0,942.0,1261.0,516.0,656.0
4392,582,394,0,4641.0,4848.0,692.0,942.0,418.0,516.0
4145,580,433,0,4392.0,4641.0,582.0,692.0,394.0,418.0
3898,650,524,0,4145.0,4392.0,580.0,582.0,433.0,394.0
3680,755,634,0,3898.0,4145.0,650.0,580.0,524.0,433.0
3489,847,707,0,3680.0,3898.0,755.0,650.0,634.0,524.0
3319,887,725,0,3489.0,3680.0,847.0,755.0,707.0,634.0
3186,850,676,0,3319.0,3489.0,887.0,847.0,725.0,707.0
3027,618,343,0,3186.0,3319.0,850.0,887.0,676.0,725.0
2895,413,163,0,3027.0,3186.0,618.0,850.0,343.0,676.0
2847,328,238,0,2895.0,3027.0,413.0,618.0,163.0,343.0
2845,333,395,0,2847.0,2895.0,328.0,413.0,238.0,163.0
2857,401,528,0,2845.0,2847.0,333.0,328.0,395.0,238.0
2895,484,618,0,2857.0,2845.0,401.0,333.0,528.0,395.0
2957,551,669,0,2895.0,2857.0,484.0,401.0,618.0,528.0
3027,578,653,0,2957.0,2895.0,551.0,484.0,669.0,618.0
3120,535,586,0,3027.0,2957.0,578.0,551.0,653.0,669.0
3213,450,461,0,3120.0,3027.0,535.0,578.0,586.0,653.0
3312,323,330,0,3213.0,3120.0,450.0,535.0,461.0,586.0
3407,203,242,0,3312.0,3213.0,323.0,450.0,330.0,461.0
3509,133,226,0,3407.0,3312.0,203.0,323.0,242.0,330.0
3600,56,246,0,3509.0,3407.0,133.0,203.0,226.0,242.0
3677,-29,284,0,3600.0,3509.0,56.0,133.0,246.0,226.0
3760,-108,366,0,3677.0,3600.0,-29.0,56.0,284.0,246.0
3845,-139,482,0,3760.0,3677.0,-108.0,-29.0,366.0,284.0
3894,-178,533,0,3845.0,3760.0,-139.0,-108.0,482.0,366.0
3919,-230,563,0,3894.0,3845.0,-178.0,-139.0,533.0,482.0
3950,-308,593,0,3919.0,3894.0,-230.0,-178.0,563.0,533.0
3969,-327,682,0,3950.0,3919.0,-308.0,-230.0,593.0,563.0
3980,-353,767,0,3969.0,3950.0,-327.0,-308.0,682.0,593.0
3952,-406,797,0,3980.0,3969.0,-353.0,-327.0,767.0,682.0
3902,-486,769,0,3952.0,3980.0,-406.0,-353.0,797.0,767.0
3820,-534,766,0,3902.0,3952.0,-486.0,-406.0,769.0,797.0
3733,-584,767,0,3820.0,3902.0,-534.0,-486.0,766.0,769.0
3650,-616,784,0,3733.0,3820.0,-584.0,-534.0,767.0,766.0
3572,-606,796,0,3650.0,3733.0,-616.0,-584.0,784.0,767.0
3500,-563,825,0,3572.0,3650.0,-606.0,-616.0,796.0,784.0
3440,-495,875,0,3500.0,3572.0,-563.0,-606.0,825.0,796.0
3381,-403,919,0,3440.0,3500.0,-495.0,-563.0,875.0,825.0
3340,-320,952,0,3381.0,3440.0,-403.0,-495.0,919.0,875.0
3307,-243,967,0,3340.0,3381.0,-320.0,-403.0,952.0,919.0
3281,-175,962,0,3307.0,3340.0,-243.0,-320.0,967.0,952.0
3247,-105,940,0,3281.0,3307.0,-175.0,-243.0,962.0,967.0
3231,-47,909,0,3247.0,3281.0,-105.0,-175.0,940.0,962.0
3218,7,853,0,3231.0,3247.0,-47.0,-105.0,909.0,940.0
3214,53,799,0,3218.0,3231.0,7.0,-47.0,853.0,909.0
3218,106,765,0,3214.0,3218.0,53.0,7.0,799.0,853.0
3222,168,749,0,3218.0,3214.0,106.0,53.0,765.0,799.0
3218,236,737,0,3222.0,3218.0,168.0,106.0,749.0,765.0
3203,310,727,0,3218.0,3222.0,236.0,168.0,737.0,749.0
3196,362,733,0,3203.0,3218.0,310.0,236.0,727.0,737.0
3199,393,743,0,3196.0,3203.0,362.0,310.0,733.0,727.0
3203,404,738,0,3199.0,3196.0,393.0,362.0,743.0,733.0
3197,405,723,0,3203.0,3199.0,404.0,393.0,738.0,743.0
3187,402,705,0,3197.0,3203.0,405.0,404.0,723.0,738.0
3162,380,683,0,3187.0,3197.0,402.0,405.0,705.0,723.0
3136,400,741,0,3162.0,3187.0,380.0,402.0,683.0,705.0
3132,507,908,0,3136.0,3162.0,400.0,380.0,741.0,683.0
3144,610,1087,0,3132.0,3136.0,507.0,400.0,908.0,741.0
3150,638,1168,0,3144.0,3132.0,610.0,507.0,1087.0,908.0
3131,623,1198,0,3150.0,3144.0,638.0,610.0,1168.0,1087.0
3086,580,1193,0,3131.0,3150.0,623.0,638.0,1198.0,1168.0
3084,564,1238,0,3086.0,3131.0,580.0,623.0,1193.0,1198.0
3138,591,1332,0,3084.0,3086.0,564.0,580.0,1238.0,1193.0
3222,667,1459,0,3138.0,3084.0,591.0,564.0,1332.0,1238.0
3291,755,1574,0,3222.0,3138.0,667.0,591.0,1459.0,1332.0
3350,789,1646,0,3291.0,3222.0,755.0,667.0,1574.0,1459.0
3419,795,1703,0,3350.0,3291.0,789.0,755.0,1646.0,1574.0
3483,785,1692,0,3419.0,3350.0,795.0,789.0,1703.0,1646.0
3517,759,1625,0,3483.0,3419.0,785.0,795.0,1692.0,1703.0
3526,729,1532,0,3517.0,3483.0,759.0,785.0,1625.0,1692.0
3564,668,1453,0,3526.0,3517.0,729.0,759.0,1532.0,1625.0
3615,643,1431,0,3564.0,3526.0,668.0,729.0,1453.0,1532.0
3669,648,1440,0,3615.0,3564.0,643.0,668.0,1431.0,1453.0
3717,699,1474,0,3669.0,3615.0,648.0,643.0,1440.0,1431.0
3761,771,1489,0,3717.0,3669.0,699.0,648.0,1474.0,1440.0
3833,813,1475,0,3761.0,3717.0,771.0,699.0,1489.0,1474.0
3915,829,1422,0,3833.0,3761.0,813.0,771.0,1475.0,1489.0
3963,838,1307,0,3915.0,3833.0,829.0,813.0,1422.0,1475.0
3952,823,1151,0,3963.0,3915.0,838.0,829.0,1307.0,1422.0
3937,876,1094,0,3952.0,3963.0,823.0,838.0,1151.0,1307.0
3976,904,1085,0,3937.0,3952.0,876.0,823.0,1094.0,1151.0
4001,836,1014,0,3976.0,3937.0,904.0,876.0,1085.0,1094.0
4005,708,922,0,4001.0,3976.0,836.0,904.0,1014.0,1085.0
4053,610,908,0,4005.0,4001.0,708.0,836.0,922.0,1014.0
4106,466,839,0,4053.0,4005.0,610.0,708.0,908.0,922.0
4124,247,698,0,4106.0,4053.0,466.0,610.0,839.0,908.0
4123,78,610,0,4124.0,4106.0,247.0,466.0,698.0,839.0
4137,-48,604,0,4123.0,4124.0,78.0,247.0,610.0,698.0
4155,-155,654,0,4137.0,4123.0,-48.0,78.0,604.0,610.0
4179,-215,773,0,4155.0,4137.0,-155.0,-48.0,654.0,604.0
4222,-240,968,0,4179.0,4155.0,-215.0,-155.0,773.0,654.0
4260,-216,1209,0,4222.0,4179.0,-240.0,-215.0,968.0,773.0
4291,-151,1453,0,4260.0,4222.0,-216.0,-240.0,1209.0,968.0
4307,-67,1670,0,4291.0,4260.0,-151.0,-216.0,1453.0,1209.0
4310,73,1838,0,4307.0,4291.0,-67.0,-151.0,1670.0,1453.0
4312,270,1969,0,4310.0,4307.0,73.0,-67.0,1838.0,1670.0
4321,479,2036,0,4312.0,4310.0,270.0,73.0,1969.0,1838.0
4338,705,2051,0,4321.0,4312.0,479.0,270.0,2036.0,1969.0
4376,895,2004,0,4338.0,4321.0,705.0,479.0,2051.0,2036.0
4410,986,1839,0,4376.0,4338.0,895.0,705.0,2004.0,2051.0
4442,978,1606,0,4410.0,4376.0,986.0,895.0,1839.0,2004.0
4545,1035,1492,0,4442.0,4410.0,978.0,986.0,1606.0,1839.0
4733,995,1357,0,4545.0,4442.0,1035.0,978.0,1492.0,1606.0
4886,744,1078,0,4733.0,4545.0,995.0,1035.0,1357.0,1492.0
5067,588,954,0,4886.0,4733.0,744.0,995.0,1078.0,1357.0
5273,334,798,0,5067.0,4886.0,588.0,744.0,954.0,1078.0
5442,64,619,0,5273.0,5067.0,334.0,588.0,798.0,954.0
5658,-56,609,0,5442.0,5273.0,64.0,334.0,619.0,798.0
5865,-278,543,0,5658.0,5442.0,-56.0,64.0,609.0,619.0
6097,-503,529,0,5865.0,5658.0,-278.0,-56.0,543.0,609.0
6345,-722,522,0,6097.0,5865.0,-503.0,-278.0,529.0,543.0
6585,-1053,394,0,6345.0,6097.0,-722.0,-503.0,522.0,529.0
6766,-1378,231,0,6585.0,6345.0,-1053.0,-722.0,394.0,522.0
6987,-1580,201,0,6766.0,6585.0,-1378.0,-1053.0,231.0,394.0
7076,-1793,34,0,6987.0,6766.0,-1580.0,-1378.0,201.0,231.0
7118,-2014,-97,0,7076.0,6987.0,-1793.0,-1580.0,34.0,201.0
7030,-2055,-98,0,7118.0,7076.0,-2014.0,-1793.0,-97.0,34.0
6821,-1928,-23,0,7030.0,7118.0,-2055.0,-2014.0,-98.0,-97.0
6457,-1786,36,0,6821.0,7030.0,-1928.0,-2055.0,-23.0,-98.0
5983,-1593,78,0,6457.0,6821.0,-1786.0,-1928.0,36.0,-23.0
5517,-1349,124,0,5983.0,6457.0,-1593.0,-1786.0,78.0,36.0
5135,-1106,209,0,5517.0,5983.0,-1349.0,-1593.0,124.0,78.0
4757,-837,314,0,5135.0,5517.0,-1106.0,-1349.0,209.0,124.0
4436,-570,448,0,4757.0,5135.0,-837.0,-1106.0,314.0,209.0
4163,-389,554,0,4436.0,4757.0,-570.0,-837.0,448.0,314.0
3926,-224,623,0,4163.0,4436.0,-389.0,-570.0,554.0,448.0
3723,-97,656,0,3926.0,4163.0,-224.0,-389.0,623.0,554.0
3509,-53,590,0,3723.0,3926.0,-97.0,-224.0,656.0,623.0
3255,-52,474,0,3509.0,3723.0,-53.0,-97.0,590.0,656.0
2972,-26,368,0,3255.0,3509.0,-52.0,-53.0,474.0,590.0
2666,60,265,0,2972.0,3255.0,-26.0,-52.0,368.0,474.0
2361,125,112,0,2666.0,2972.0,60.0,-26.0,265.0,368.0
2102,174,-100,0,2361.0,2666.0,125.0,60.0,112.0,265.0
1860,198,-365,0,2102.0,2361.0,174.0,125.0,-100.0,112.0
1696,244,-575,0,1860.0,2102.0,198.0,174.0,-365.0,-100.0
1637,306,-696,0,1696.0,1860.0,244.0,198.0,-575.0,-365.0
1746,361,-714,0,1637.0,1696.0,306.0,244.0,-696.0,-575.0
1917,352,-755,0,1746.0,1637.0,361.0,306.0,-714.0,-696.0
2059,310,-811,0,1917.0,1746.0,352.0,361.0,-755.0,-714.0
2175,249,-854,0,2059.0,1917.0,310.0,352.0,-811.0,-755.0
2302,138,-906,0,2175.0,2059.0,249.0,310.0,-854.0,-811.0
2472,2,-959,0,2302.0,2175.0,138.0,249.0,-906.0,-854.0
2695,-134,-973,0,2472.0,2302.0,2.0,138.0,-959.0,-906.0
2973,-250,-948,0,2695.0,2472.0,-134.0,2.0,-973.0,-959.0
3325,-317,-842,0,2973.0,2695.0,-250.0,-134.0,-948.0,-973.0
3722,-296,-634,0,3325.0,2973.0,-317.0,-250.0,-842.0,-948.0
4157,-171,-368,0,3722.0,3325.0,-296.0,-317.0,-634.0,-842.0
4620,-25,-85,0,4157.0,3722.0,-171.0,-296.0,-368.0,-634.0
5038,84,121,0,4620.0,4157.0,-25.0,-171.0,-85.0,-368.0
5345,146,211,0,5038.0,4620.0,84.0,-25.0,121.0,-85.0
5505,139,213,0,5345.0,5038.0,146.0,84.0,211.0,121.0
5496,62,153,0,5505.0,5345.0,139.0,146.0,213.0,211.0
5354,-73,92,0,5496.0,5505.0,62.0,139.0,153.0,213.0
5099,-228,23,0,5354.0,5496.0,-73.0,62.0,92.0,153.0
4785,-394,-39,0,5099.0,5354.0,-228.0,-73.0,23.0,92.0
4457,-541,-96,0,4785.0,5099.0,-394.0,-228.0,-39.0,23.0
4136,-675,-152,0,4457.0,4785.0,-541.0,-394.0,-96.0,-39.0
3848,-762,-167,0,4136.0,4457.0,-675.0,-541.0,-152.0,-96.0
3639,-855,-183,0,3848.0,4136.0,-762.0,-675.0,-167.0,-152.0
3498,-932,-160,0,3639.0,3848.0,-855.0,-762.0,-183.0,-167.0
3413,-997,-148,0,3498.0,3639.0,-932.0,-855.0,-160.0,-183.0
3380,-1034,-100,0,3413.0,3498.0,-997.0,-932.0,-148.0,-160.0
3385,-1113,-84,0,3380.0,3413.0,-1034.0,-997.0,-100.0,-148.0
3434,-1193,-41,0,3385.0,3380.0,-1113.0,-1034.0,-84.0,-100.0
3474,-1244,-24,0,3434.0,3385.0,-1193.0,-1113.0,-41.0,-84.0
3542,-1210,17,0,3474.0,3434.0,-1244.0,-1193.0,-24.0,-41.0
3623,-1123,52,0,3542.0,3474.0,-1210.0,-1244.0,17.0,-24.0
3704,-1000,53,0,3623.0,3542.0,-1123.0,-1210.0,52.0,17.0
3825,-938,23,0,3704.0,3623.0,-1000.0,-1123.0,53.0,52.0
3922,-878,12,0,3825.0,3704.0,-938.0,-1000.0,23.0,53.0
3999,-849,-14,0,3922.0,3825.0,-878.0,-938.0,12.0,23.0
4040,-773,-4,0,3999.0,3922.0,-849.0,-878.0,-14.0,12.0
4048,-673,7,0,4040.0,3999.0,-773.0,-849.0,-4.0,-14.0
4034,-559,7,0,4048.0,4040.0,-673.0,-773.0,7.0,-4.0
4003,-437,-1,0,4034.0,4048.0,-559.0,-673.0,7.0,7.0
3984,-319,9,0,4003.0,4034.0,-437.0,-559.0,-1.0,7.0
3969,-158,-29,0,3984.0,4003.0,-319.0,-437.0,9.0,-1.0
3918,46,-67,0,3969.0,3984.0,-158.0,-319.0,-29.0,9.0
3833,295,-84,0,3918.0,3969.0,46.0,-158.0,-67.0,-29.0
3777,486,-81,0,3833.0,3918.0,295.0,46.0,-84.0,-67.0
3729,567,-72,0,3777.0,3833.0,486.0,295.0,-81.0,-84.0
3685,554,-39,0,3729.0,3777.0,567.0,486.0,-72.0,-81.0
3641,540,22,0,3685.0,3729.0,554.0,567.0,-39.0,-72.0
3596,579,87,0,3641.0,3685.0,540.0,554.0,22.0,-39.0
3537,686,108,0,3596.0,3641.0,579.0,540.0,87.0,22.0
3525,821,133,0,3537.0,3596.0,686.0,579.0,108.0,87.0
3546,876,140,0,3525.0,3537.0,821.0,686.0,133.0,108.0
3575,857,120,0,3546.0,3525.0,876.0,821.0,140.0,133.0
3601,874,142,0,3575.0,3546.0,857.0,876.0,120.0,140.0
3645,808,132,0,3601.0,3575.0,874.0,857.0,142.0,120.0
3691,679,130,0,3645.0,3601.0,808.0,874.0,132.0,142.0
3707,579,141,0,3691.0,3645.0,679.0,808.0,130.0,132.0
3702,630,216,0,3707.0,3691.0,579.0,679.0,141.0,130.0
3724,789,320,0,3702.0,3707.0,630.0,579.0,216.0,141.0
3742,836,307,0,3724.0,3702.0,789.0,630.0,320.0,216.0
3754,798,233,0,3742.0,3724.0,836.0,789.0,307.0,320.0
3749,699,169,0,3754.0,3742.0,798.0,836.0,233.0,307.0
3719,584,158,0,3749.0,3754.0,699.0,798.0,169.0,233.0
3704,551,199,0,3719.0,3749.0,584.0,699.0,158.0,169.0
3698,537,218,0,3704.0,3719.0,551.0,584.0,199.0,158.0
3719,554,242,0,3698.0,3704.0,537.0,551.0,218.0,199.0
3759,529,209,0,3719.0,3698.0,554.0,537.0,242.0,218.0
3813,437,156,0,3759.0,3719.0,529.0,554.0,209.0,242.0
3866,349,133,0,3813.0,3759.0,437.0,529.0,156.0,209.0
3913,293,161,0,3866.0,3813.0,349.0,437.0,133.0,156.0
3950,269,205,0,3913.0,3866.0,293.0,349.0,161.0,133.0
3970,265,237,0,3950.0,3913.0,269.0,293.0,205.0,161.0
3980,268,259,0,3970.0,3950.0,265.0,269.0,237.0,205.0
3986,294,272,0,3980.0,3970.0,268.0,265.0,259.0,237.0
3994,343,298,0,3986.0,3980.0,294.0,268.0,272.0,259.0
3998,398,334,0,3994.0,3986.0,343.0,294.0,298.0,272.0
4001,436,348,0,3998.0,3994.0,398.0,343.0,334.0,298.0
3991,445,341,0,4001.0,3998.0,436.0,398.0,348.0,334.0
3977,425,320,0,3991.0,4001.0,445.0,436.0,341.0,348.0
3952,388,312,0,3977.0,3991.0,425.0,445.0,320.0,341.0
3919,342,312,0,3952.0,3977.0,388.0,425.0,312.0,320.0
3885,292,310,0,3919.0,3952.0,342.0,388.0,312.0,312.0
3849,241,311,0,3885.0,3919.0,292.0,342.0,310.0,312.0
3809,191,305,0,3849.0,3885.0,241.0,292.0,311.0,310.0
3773,147,300,0,3809.0,3849.0,191.0,241.0,305.0,311.0
3734,111,317,0,3773.0,3809.0,147.0,191.0,300.0,305.0
3699,96,354,0,3734.0,3773.0,111.0,147.0,317.0,300.0
3673,96,404,0,3699.0,3734.0,96.0,111.0,354.0,317.0
3664,89,447,0,3673.0,3699.0,96.0,96.0,404.0,354.0
3667,89,493,0,3664.0,3673.0,89.0,96.0,447.0,404.0
3681,93,542,0,3667.0,3664.0,89.0,89.0,493.0,447.0
3712,101,600,0,3681.0,3667.0,93.0,89.0,542.0,493.0
3762,114,648,0,3712.0,3681.0,101.0,93.0,600.0,542.0
3820,129,695,0,3762.0,3712.0,114.0,101.0,648.0,600.0
3866,143,725,0,3820.0,3762.0,129.0,114.0,695.0,648.0
3911,162,741,0,3866.0,3820.0,143.0,129.0,725.0,695.0
3946,176,733,0,3911.0,3866.0,162.0,143.0,741.0,725.0
3966,189,687,0,3946.0,3911.0,176.0,162.0,733.0,741.0
3971,197,614,0,3966.0,3946.0,189.0,176.0,687.0,733.0
3962,192,530,0,3971.0,3966.0,197.0,189.0,614.0,687.0
3950,187,444,0,3962.0,3971.0,192.0,197.0,530.0,614.0
3915,194,356,0,3950.0,3962.0,187.0,192.0,444.0,530.0
3883,213,289,0,3915.0,3950.0,194.0,187.0,356.0,444.0
3862,238,238,0,3883.0,3915.0,213.0,194.0,289.0,356.0
3844,278,192,0,3862.0,3883.0,238.0,213.0,238.0,289.0
3845,336,171,0,3844.0,3862.0,278.0,238.0,192.0,238.0
3849,388,123,0,3845.0,3844.0,336.0,278.0,171.0,192.0
3847,437,67,0,3849.0,3845.0,388.0,336.0,123.0,171.0
3832,499,40,0,3847.0,3849.0,437.0,388.0,67.0,123.0
3809,566,24,0,3832.0,3847.0,499.0,437.0,40.0,67.0
3788,624,15,0,3809.0,3832.0,566.0,499.0,24.0,40.0
3774,651,-21,0,3788.0,3809.0,624.0,566.0,15.0,24.0
3767,650,-80,0,3774.0,3788.0,651.0,624.0,-21.0,15.0
3785,669,-124,0,3767.0,3774.0,650.0,651.0,-80.0,-21.0
3820,724,-154,0,3785.0,3767.0,669.0,650.0,-124.0,-80.0
3854,814,-167,0,3820.0,3785.0,724.0,669.0,-154.0,-124.0
3899,900,-168,0,3854.0,3820.0,814.0,724.0,-167.0,-154.0
3928,965,-162,0,3899.0,3854.0,900.0,814.0,-168.0,-167.0
3952,983,-142,0,3928.0,3899.0,965.0,900.0,-162.0,-168.0
3982,948,-86,0,3952.0,3928.0,983.0,965.0,-142.0,-162.0
4011,871,-15,0,3982.0,3952.0,948.0,983.0,-86.0,-142.0
4044,765,69,0,4011.0,3982.0,871.0,948.0,-15.0,-86.0
4083,632,142,0,4044.0,4011.0,765.0,871.0,69.0,-15.0
4165,477,219,0,4083.0,4044.0,632.0,765.0,142.0,69.0
4278,326,298,0,4165.0,4083.0,477.0,632.0,219.0,142.0
4413,159,360,0,4278.0,4165.0,326.0,477.0,298.0,219.0
4564,-2,419,0,4413.0,4278.0,159.0,326.0,360.0,298.0
4713,-151,475,0,4564.0,4413.0,-2.0,159.0,419.0,360.0
4834,-250,539,0,4713.0,4564.0,-151.0,-2.0,475.0,419.0
4910,-322,580,0,4834.0,4713.0,-250.0,-151.0,539.0,475.0
4933,-355,583,0,4910.0,4834.0,-322.0,-250.0,580.0,539.0
4930,-358,567,0,4933.0,4910.0,-355.0,-322.0,583.0,580.0
4937,-321,557,0,4930.0,4933.0,-358.0,-355.0,567.0,583.0
4956,-254,540,0,4937.0,4930.0,-321.0,-358.0,557.0,567.0
5009,-185,506,0,4956.0,4937.0,-254.0,-321.0,540.0,557.0
5053,-101,440,0,5009.0,4956.0,-185.0,-254.0,506.0,540.0
5091,11,362,0,5053.0,5009.0,-101.0,-185.0,440.0,506.0
5117,167,263,0,5091.0,5053.0,11.0,-101.0,362.0,440.0
5131,369,156,0,5117.0,5091.0,167.0,11.0,263.0,362.0
5117,611,46,0,5131.0,5117.0,369.0,167.0,156.0,263.0
5058,871,-103,0,5117.0,5131.0,611.0,369.0,46.0,156.0
4964,1123,-286,0,5058.0,5117.0,871.0,611.0,-103.0,46.0
4910,1334,-425,0,4964.0,5058.0,1123.0,871.0,-286.0,-103.0
4866,1544,-507,0,4910.0,4964.0,1334.0,1123.0,-425.0,-286.0
4832,1722,-538,0,4866.0,4910.0,1544.0,1334.0,-507.0,-425.0
4844,1826,-535,0,4832.0,4866.0,1722.0,1544.0,-538.0,-507.0
4928,1842,-511,0,4844.0,4832.0,1826.0,1722.0,-535.0,-538.0
5047,1795,-478,0,4928.0,4844.0,1842.0,1826.0,-511.0,-535.0
5169,1667,-493,0,5047.0,4928.0,1795.0,1842.0,-478.0,-511.0
5252,1496,-582,0,5169.0,5047.0,1667.0,1795.0,-493.0,-478.0
5277,1318,-731,0,5252.0,5169.0,1496.0,1667.0,-582.0,-493.0
5250,1156,-914,0,5277.0,5252.0,1318.0,1496.0,-731.0,-582.0
5247,936,-1078,0,5250.0,5277.0,1156.0,1318.0,-914.0,-731.0
5313,656,-1147,0,5247.0,5250.0,936.0,1156.0,-1078.0,-914.0
5365,439,-1073,0,5313.0,5247.0,656.0,936.0,-1147.0,-1078.0
5372,247,-969,0,5365.0,5313.0,439.0,656.0,-1073.0,-1147.0
5324,74,-869,0,5372.0,5365.0,247.0,439.0,-969.0,-1073.0
5224,-94,-791,0,5324.0,5372.0,74.0,247.0,-869.0,-969.0
5109,-280,-735,0,5224.0,5324.0,-94.0,74.0,-791.0,-869.0
4988,-448,-673,0,5109.0,5224.0,-280.0,-94.0,-735.0,-791.0
4827,-561,-590,0,4988.0,5109.0,-448.0,-280.0,-673.0,-735.0
4620,-629,-516,0,4827.0,4988.0,-561.0,-448.0,-590.0,-673.0
4330,-698,-473,0,4620.0,4827.0,-629.0,-561.0,-516.0,-590.0
4079,-849,-439,0,4330.0,4620.0,-698.0,-629.0,-473.0,-516.0
3914,-1046,-378,0,4079.0,4330.0,-849.0,-698.0,-439.0,-473.0
3780,-1186,-288,0,3914.0,4079.0,-1046.0,-849.0,-378.0,-439.0
3634,-1235,-196,0,3780.0,3914.0,-1186.0,-1046.0,-288.0,-378.0
3459,-1213,-113,0,3634.0,3780.0,-1235.0,-1186.0,-196.0,-288.0
3276,-1154,-64,0,3459.0,3634.0,-1213.0,-1235.0,-113.0,-196.0
3109,-1080,-56,0,3276.0,3459.0,-1154.0,-1213.0,-64.0,-113.0
2965,-989,-62,0,3109.0,3276.0,-1080.0,-1154.0,-56.0,-64.0
2849,-882,-78,0,2965.0,3109.0,-989.0,-1080.0,-62.0,-56.0
2778,-794,-112,0,2849.0,2965.0,-882.0,-989.0,-78.0,-62.0
2776,-751,-154,0,2778.0,2849.0,-794.0,-882.0,-112.0,-78.0
2833,-719,-181,0,2776.0,2778.0,-751.0,-794.0,-154.0,-112.0
2940,-674,-195,0,2833.0,2776.0,-719.0,-751.0,-181.0,-154.0
3111,-623,-194,0,2940.0,2833.0,-674.0,-719.0,-195.0,-181.0
3302,-537,-167,0,3111.0,2940.0,-623.0,-674.0,-194.0,-195.0
3510,-410,-127,0,3302.0,3111.0,-537.0,-623.0,-167.0,-194.0
3726,-264,-78,0,3510.0,3302.0,-410.0,-537.0,-127.0,-167.0
3935,-111,-26,0,3726.0,3510.0,-264.0,-410.0,-78.0,-127.0
4129,58,45,0,3935.0,3726.0,-111.0,-264.0,-26.0,-78.0
4285,255,96,0,4129.0,3935.0,58.0,-111.0,45.0,-26.0
4417,462,118,0,4285.0,4129.0,255.0,58.0,96.0,45.0
4555,624,124,0,4417.0,4285.0,462.0,255.0,118.0,96.0
4696,759,126,0,4555.0,4417.0,624.0,462.0,124.0,118.0
4841,868,144,0,4696.0,4555.0,759.0,624.0,126.0,124.0
4977,929,158,0,4841.0,4696.0,868.0,759.0,144.0,126.0
5111,931,168,0,4977.0,4841.0,929.0,868.0,158.0,144.0
5234,884,192,0,5111.0,4977.0,931.0,929.0,168.0,158.0
5319,844,239,0,5234.0,5111.0,884.0,931.0,192.0,168.0
5358,821,316,0,5319.0,5234.0,844.0,884.0,239.0,192.0
5343,835,425,0,5358.0,5319.0,821.0,844.0,316.0,239.0
5284,856,516,0,5343.0,5358.0,835.0,821.0,425.0,316.0
5189,849,566,0,5284.0,5343.0,856.0,835.0,516.0,425.0
5081,802,586,0,5189.0,5284.0,849.0,856.0,566.0,516.0
4933,719,561,0,5081.0,5189.0,802.0,849.0,586.0,566.0
4753,638,534,0,4933.0,5081.0,719.0,802.0,561.0,586.0
4534,609,521,0,4753.0,4933.0,638.0,719.0,534.0,561.0
4311,624,512,0,4534.0,4753.0,609.0,638.0,521.0,534.0
4089,643,494,0,4311.0,4534.0,624.0,609.0,512.0,521.0
3870,644,452,0,4089.0,4311.0,643.0,624.0,494.0,512.0
3676,645,407,0,3870.0,4089.0,644.0,643.0,452.0,494.0
3519,627,360,0,3676.0,3870.0,645.0,644.0,407.0,452.0
3383,598,326,0,3519.0,3676.0,627.0,645.0,360.0,407.0
3264,557,305,0,3383.0,3519.0,598.0,627.0,326.0,360.0
3172,512,310,0,3264.0,3383.0,557.0,598.0,305.0,326.0
3086,484,320,0,3172.0,3264.0,512.0,557.0,310.0,305.0
3017,486,351,0,3086.0,3172.0,484.0,512.0,320.0,310.0
2973,489,393,0,3017.0,3086.0,486.0,484.0,351.0,320.0
2966,470,447,0,2973.0,3017.0,489.0,486.0,393.0,351.0
2966,413,473,0,2966.0,2973.0,470.0,489.0,447.0,393.0
2949,275,345,0,2966.0,2966.0,413.0,470.0,473.0,447.0
2917,164,267,0,2949.0,2966.0,275.0,413.0,345.0,473.0
2937,101,315,0,2917.0,2949.0,164.0,275.0,267.0,345.0
2979,75,415,0,2937.0,2917.0,101.0,164.0,315.0,267.0
3038,55,485,0,2979.0,2937.0,75.0,101.0,415.0,315.0
3092,47,523,0,3038.0,2979.0,55.0,75.0,485.0,415.0
3122,46,546,0,3092.0,3038.0,47.0,55.0,523.0,485.0
3153,55,564,0,3122.0,3092.0,46.0,47.0,546.0,523.0
3172,62,572,0,3153.0,3122.0,55.0,46.0,564.0,546.0
3229,65,607,0,3172.0,3153.0,62.0,55.0,572.0,564.0
3317,87,686,0,3229.0,3172.0,65.0,62.0,607.0,572.0
3366,101,711,0,3317.0,3229.0,87.0,65.0,686.0,607.0
3467,128,785,0,3366.0,3317.0,101.0,87.0,711.0,686.0
3548,143,815,0,3467.0,3366.0,128.0,101.0,785.0,711.0
3613,163,822,0,3548.0,3467.0,143.0,128.0,815.0,785.0
3680,172,867,0,3613.0,3548.0,163.0,143.0,822.0,815.0
3701,159,876,0,3680.0,3613.0,172.0,163.0,867.0,822.0
3737,131,892,0,3701.0,3680.0,159.0,172.0,876.0,867.0
3744,111,905,0,3737.0,3701.0,131.0,159.0,892.0,876.0
3744,91,937,0,3744.0,3737.0,111.0,131.0,905.0,892.0
3719,48,953,0,3744.0,3744.0,91.0,111.0,937.0,905.0
3714,60,1032,0,3719.0,3744.0,48.0,91.0,953.0,937.0
3689,63,1052,0,3714.0,3719.0,60.0,48.0,1032.0,953.0
3676,88,1092,0,3689.0,3714.0,63.0,60.0,1052.0,1032.0
3655,107,1110,0,3676.0,3689.0,88.0,63.0,1092.0,1052.0
3606,131,1096,0,3655.0,3676.0,107.0,88.0,1110.0,1092.0
3573,176,1122,0,3606.0,3655.0,131.0,107.0,1096.0,1110.0
3541,206,1112,0,3573.0,3606.0,176.0,131.0,1122.0,1096.0
3480,210,1054,0,3541.0,3573.0,206.0,176.0,1112.0,1122.0
3455,257,1052,0,3480.0,3541.0,210.0,206.0,1054.0,1112.0
3453,272,1016,0,3455.0,3480.0,257.0,210.0,1052.0,1054.0
3402,274,938,0,3453.0,3455.0,272.0,257.0,1016.0,1052.0
3369,315,910,0,3402.0,3453.0,274.0,272.0,938.0,1016.0
3332,326,860,0,3369.0,3402.0,315.0,274.0,910.0,938.0
3307,370,853,0,3332.0,3369.0,326.0,315.0,860.0,910.0
3304,426,884,0,3307.0,3332.0,370.0,326.0,853.0,860.0
3308,476,916,0,3304.0,3307.0,426.0,370.0,884.0,853.0
3316,532,962,0,3308.0,3304.0,476.0,426.0,916.0,884.0
3311,625,1025,0,3316.0,3308.0,532.0,476.0,962.0,916.0
3302,724,1085,0,3311.0,3316.0,625.0,532.0,1025.0,962.0
3291,805,1118,0,3302.0,3311.0,724.0,625.0,1085.0,1025.0
3278,848,1123,0,3291.0,3302.0,805.0,724.0,1118.0,1085.0
3268,873,1125,0,3278.0,3291.0,848.0,805.0,1123.0,1118.0
3262,916,1140,0,3268.0,3278.0,873.0,848.0,1125.0,1123.0
3267,959,1169,0,3262.0,3268.0,916.0,873.0,1140.0,1125.0
3279,1013,1232,0,3267.0,3262.0,959.0,916.0,1169.0,1140.0
3277,1058,1294,0,3279.0,3267.0,1013.0,959.0,1232.0,1169.0
3307,1043,1363,0,3277.0,3279.0,1058.0,1013.0,1294.0,1232.0
3374,1158,1567,0,3307.0,3277.0,1043.0,1058.0,1363.0,1294.0
3488,1122,1633,0,3374.0,3307.0,1158.0,1043.0,1567.0,1363.0
3527,1078,1637,0,3488.0,3374.0,1122.0,1158.0,1633.0,1567.0
3579,1085,1711,0,3527.0,3488.0,1078.0,1122.0,1637.0,1633.0
3649,981,1726,0,3579.0,3527.0,1085.0,1078.0,1711.0,1637.0
3673,909,1725,0,3649.0,3579.0,981.0,1085.0,1726.0,1711.0
3703,906,1765,0,3673.0,3649.0,909.0,981.0,1725.0,1726.0
3714,744,1635,0,3703.0,3673.0,906.0,909.0,1765.0,1725.0
3736,771,1687,0,3714.0,3703.0,744.0,906.0,1635.0,1765.0
3744,617,1566,0,3736.0,3714.0,771.0,744.0,1687.0,1635.0
3773,641,1626,0,3744.0,3736.0,617.0,771.0,1566.0,1687.0
3777,523,1573,0,3773.0,3744.0,641.0,617.0,1626.0,1566.0
3845,613,1709,0,3777.0,3773.0,523.0,641.0,1573.0,1626.0
3904,535,1668,0,3845.0,3777.0,613.0,523.0,1709.0,1573.0
3958,569,1672,0,3904.0,3845.0,535.0,613.0,1668.0,1709.0
4030,571,1623,0,3958.0,3904.0,569.0,535.0,1672.0,1668.0
4057,567,1502,0,4030.0,3958.0,571.0,569.0,1623.0,1672.0
4033,584,1332,0,4057.0,4030.0,567.0,571.0,1502.0,1623.0
3999,554,1146,0,4033.0,4057.0,584.0,567.0,1332.0,1502.0
4001,534,1022,0,3999.0,4033.0,554.0,584.0,1146.0,1332.0
4004,490,887,0,4001.0,3999.0,534.0,554.0,1022.0,1146.0
4018,423,770,0,4004.0,4001.0,490.0,534.0,887.0,1022.0
4065,471,809,0,4018.0,4004.0,423.0,490.0,770.0,887.0
4102,397,761,0,4065.0,4018.0,471.0,423.0,809.0,770.0
4141,428,842,0,4102.0,4065.0,397.0,471.0,761.0,809.0
4168,357,884,0,4141.0,4102.0,428.0,397.0,842.0,761.0
4216,382,1052,0,4168.0,4141.0,357.0,428.0,884.0,842.0
4251,322,1139,0,4216.0,4168.0,382.0,357.0,1052.0,884.0
4274,387,1295,0,4251.0,4216.0,322.0,382.0,1139.0,1052.0
4288,419,1402,0,4274.0,4251.0,387.0,322.0,1295.0,1139.0
4301,546,1571,0,4288.0,4274.0,419.0,387.0,1402.0,1295.0
4304,650,1682,0,4301.0,4288.0,546.0,419.0,1571.0,1402.0
4263,809,1748,0,4304.0,4301.0,650.0,546.0,1682.0,1571.0
4251,1058,1888,0,4263.0,4304.0,809.0,650.0,1748.0,1682.0
4227,1223,1895,0,4251.0,4263.0,1058.0,809.0,1888.0,1748.0
4240,1455,1942,0,4227.0,4251.0,1223.0,1058.0,1895.0,1888.0
4262,1543,1828,0,4240.0,4227.0,1455.0,1223.0,1942.0,1895.0
4366,1606,1742,0,4262.0,4240.0,1543.0,1455.0,1828.0,1942.0
4487,1448,1469,0,4366.0,4262.0,1606.0,1543.0,1742.0,1828.0
4668,1203,1215,0,4487.0,4366.0,1448.0,1606.0,1469.0,1742.0
4844,932,1000,0,4668.0,4487.0,1203.0,1448.0,1215.0,1469.0
5062,625,846,0,4844.0,4668.0,932.0,1203.0,1000.0,1215.0
5292,447,844,0,5062.0,4844.0,625.0,932.0,846.0,1000.0
5508,134,711,0,5292.0,5062.0,447.0,625.0,844.0,846.0
5717,-43,732,0,5508.0,5292.0,134.0,447.0,711.0,844.0
5917,-361,640,0,5717.0,5508.0,-43.0,134.0,732.0,711.0
6124,-664,576,0,5917.0,5717.0,-361.0,-43.0,640.0,732.0
6345,-1035,463,0,6124.0,5917.0,-664.0,-361.0,576.0,640.0
6533,-1393,335,0,6345.0,6124.0,-1035.0,-664.0,463.0,576.0
6616,-1826,78,0,6533.0,6345.0,-1393.0,-1035.0,335.0,463.0
6700,-2102,29,0,6616.0,6533.0,-1826.0,-1393.0,78.0,335.0
6666,-2353,-61,0,6700.0,6616.0,-2102.0,-1826.0,29.0,78.0
6552,-2405,24,0,6666.0,6700.0,-2353.0,-2102.0,-61.0,29.0
6271,-2351,93,0,6552.0,6666.0,-2405.0,-2353.0,24.0,-61.0
5846,-2197,168,0,6271.0,6552.0,-2351.0,-2405.0,93.0,24.0
5358,-1952,217,0,5846.0,6271.0,-2197.0,-2351.0,168.0,93.0
4891,-1748,154,0,5358.0,5846.0,-1952.0,-2197.0,217.0,168.0
4508,-1601,17,0,4891.0,5358.0,-1748.0,-1952.0,154.0,217.0
4232,-1461,-63,0,4508.0,4891.0,-1601.0,-1748.0,17.0,154.0
4017,-1284,-22,0,4232.0,4508.0,-1461.0,-1601.0,-63.0,17.0
3853,-1086,78,0,4017.0,4232.0,-1284.0,-1461.0,-22.0,-63.0
3726,-870,191,0,3853.0,4017.0,-1086.0,-1284.0,78.0,-22.0
3585,-650,258,0,3726.0,3853.0,-870.0,-1086.0,191.0,78.0
3427,-477,229,0,3585.0,3726.0,-650.0,-870.0,258.0,191.0
3229,-355,128,0,3427.0,3585.0,-477.0,-650.0,229.0,258.0
2995,-266,62,0,3229.0,3427.0,-355.0,-477.0,128.0,229.0
2719,-201,-10,0,2995.0,3229.0,-266.0,-355.0,62.0,128.0
2388,-174,-151,0,2719.0,2995.0,-201.0,-266.0,-10.0,62.0
2056,-153,-312,0,2388.0,2719.0,-174.0,-201.0,-151.0,-10.0
1805,-153,-495,0,2056.0,2388.0,-153.0,-174.0,-312.0,-151.0
1627,-149,-686,0,1805.0,2056.0,-153.0,-153.0,-495.0,-312.0
1558,-149,-810,0,1627.0,1805.0,-149.0,-153.0,-686.0,-495.0
1616,-151,-851,0,1558.0,1627.0,-149.0,-149.0,-810.0,-686.0
1765,-183,-857,0,1616.0,1558.0,-151.0,-149.0,-851.0,-810.0
1959,-245,-882,0,1765.0,1616.0,-183.0,-151.0,-857.0,-851.0
2175,-334,-941,0,1959.0,1765.0,-245.0,-183.0,-882.0,-857.0
2422,-414,-987,0,2175.0,1959.0,-334.0,-245.0,-941.0,-882.0
2732,-477,-976,0,2422.0,2175.0,-414.0,-334.0,-987.0,-941.0
3125,-462,-817,0,2732.0,2422.0,-477.0,-414.0,-976.0,-987.0
3611,-391,-531,0,3125.0,2732.0,-462.0,-477.0,-817.0,-976.0
4127,-235,-212,0,3611.0,3125.0,-391.0,-462.0,-531.0,-817.0
4634,-106,1,0,4127.0,3611.0,-235.0,-391.0,-212.0,-531.0
5081,-46,112,0,4634.0,4127.0,-106.0,-235.0,1.0,-212.0
5405,-54,120,0,5081.0,4634.0,-46.0,-106.0,112.0,1.0
5584,-104,118,0,5405.0,5081.0,-54.0,-46.0,120.0,112.0
5581,-157,139,0,5584.0,5405.0,-104.0,-54.0,118.0,120.0
5414,-209,151,0,5581.0,5584.0,-157.0,-104.0,139.0,118.0
5152,-270,117,0,5414.0,5581.0,-209.0,-157.0,151.0,139.0
4845,-354,74,0,5152.0,5414.0,-270.0,-209.0,117.0,151.0
4510,-394,71,0,4845.0,5152.0,-354.0,-270.0,74.0,117.0
4221,-452,78,0,4510.0,4845.0,-394.0,-354.0,71.0,74.0
3978,-526,79,0,4221.0,4510.0,-452.0,-394.0,78.0,71.0
3791,-621,99,0,3978.0,4221.0,-526.0,-452.0,79.0,78.0
3681,-737,134,0,3791.0,3978.0,-621.0,-526.0,99.0,79.0
3622,-828,176,0,3681.0,3791.0,-737.0,-621.0,134.0,99.0
3601,-920,189,0,3622.0,3681.0,-828.0,-737.0,176.0,134.0
3606,-969,197,0,3601.0,3622.0,-920.0,-828.0,189.0,176.0
3619,-1010,236,0,3606.0,3601.0,-969.0,-920.0,197.0,189.0
3635,-990,278,0,3619.0,3606.0,-1010.0,-969.0,236.0,197.0
3643,-914,280,0,3635.0,3619.0,-990.0,-1010.0,278.0,236.0
3671,-850,267,0,3643.0,3635.0,-914.0,-990.0,280.0,278.0
3696,-809,239,0,3671.0,3643.0,-850.0,-914.0,267.0,280.0
3721,-726,252,0,3696.0,3671.0,-809.0,-850.0,239.0,267.0
3757,-642,243,0,3721.0,3696.0,-726.0,-809.0,252.0,239.0
3773,-579,174,0,3757.0,3721.0,-642.0,-726.0,243.0,252.0
3749,-370,95,0,3773.0,3757.0,-579.0,-642.0,174.0,243.0
3765,-335,35,0,3749.0,3773.0,-370.0,-579.0,95.0,174.0
3763,-312,46,0,3765.0,3749.0,-335.0,-370.0,35.0,95.0
3764,-279,102,0,3763.0,3765.0,-312.0,-335.0,46.0,35.0
3747,-253,138,0,3764.0,3763.0,-279.0,-312.0,102.0,46.0
3733,-264,141,0,3747.0,3764.0,-253.0,-279.0,138.0,102.0
3725,-154,161,0,3733.0,3747.0,-264.0,-253.0,141.0,138.0
3708,40,169,0,3725.0,3733.0,-154.0,-264.0,161.0,141.0
3697,185,137,0,3708.0,3725.0,40.0,-154.0,169.0,161.0
3674,235,100,0,3697.0,3708.0,185.0,40.0,137.0,169.0
3654,276,150,0,3674.0,3697.0,235.0,185.0,100.0,137.0
3629,295,206,0,3654.0,3674.0,276.0,235.0,150.0,100.0
3603,366,216,0,3629.0,3654.0,295.0,276.0,206.0,150.0
3567,444,206,0,3603.0,3629.0,366.0,295.0,216.0,206.0
3518,496,215,0,3567.0,3603.0,444.0,366.0,206.0,216.0
3477,544,179,0,3518.0,3567.0,496.0,444.0,215.0,206.0
3481,644,196,0,3477.0,3518.0,544.0,496.0,179.0,215.0
3490,770,146,0,3481.0,3477.0,644.0,544.0,196.0,179.0
3536,841,84,0,3490.0,3481.0,770.0,644.0,146.0,196.0
3597,851,69,0,3536.0,3490.0,841.0,770.0,84.0,146.0
3647,843,120,0,3597.0,3536.0,851.0,841.0,69.0,84.0
3679,834,195,0,3647.0,3597.0,843.0,851.0,120.0,69.0
3731,813,271,0,3679.0,3647.0,834.0,843.0,195.0,120.0
3771,802,303,0,3731.0,3679.0,813.0,834.0,271.0,195.0
3793,832,302,0,3771.0,3731.0,802.0,813.0,303.0,271.0
3823,826,315,0,3793.0,3771.0,832.0,802.0,302.0,303.0
3864,799,341,0,3823.0,3793.0,826.0,832.0,315.0,302.0
3904,750,351,0,3864.0,3823.0,799.0,826.0,341.0,315.0
3919,662,327,0,3904.0,3864.0,750.0,799.0,351.0,341.0
3927,560,328,0,3919.0,3904.0,662.0,750.0,327.0,351.0
3942,497,362,0,3927.0,3919.0,560.0,662.0,328.0,327.0
3959,461,405,0,3942.0,3927.0,497.0,560.0,362.0,328.0
3948,440,446,0,3959.0,3942.0,461.0,497.0,405.0,362.0
3921,424,456,0,3948.0,3959.0,440.0,461.0,446.0,405.0
3886,369,428,0,3921.0,3948.0,424.0,440.0,456.0,446.0
3838,307,407,0,3886.0,3921.0,369.0,424.0,428.0,456.0
3785,256,402,0,3838.0,3886.0,307.0,369.0,407.0,428.0
3735,238,416,0,3785.0,3838.0,256.0,307.0,402.0,407.0
3702,252,440,0,3735.0,3785.0,238.0,256.0,416.0,402.0
3684,260,437,0,3702.0,3735.0,252.0,238.0,440.0,416.0
3692,267,437,0,3684.0,3702.0,260.0,252.0,437.0,440.0
3691,287,426,0,3692.0,3684.0,267.0,260.0,437.0,437.0
3699,315,433,0,3691.0,3692.0,287.0,267.0,426.0,437.0
3718,341,456,0,3699.0,3691.0,315.0,287.0,433.0,426.0
3744,357,472,0,3718.0,3699.0,341.0,315.0,456.0,433.0
3765,375,484,0,3744.0,3718.0,357.0,341.0,472.0,456.0
3788,374,507,0,3765.0,3744.0,375.0,357.0,484.0,472.0
3809,356,530,0,3788.0,3765.0,374.0,375.0,507.0,484.0
3830,324,545,0,3809.0,3788.0,356.0,374.0,530.0,507.0
3845,287,549,0,3830.0,3809.0,324.0,356.0,545.0,530.0
3853,247,550,0,3845.0,3830.0,287.0,324.0,549.0,545.0
3846,208,543,0,3853.0,3845.0,247.0,287.0,550.0,549.0
3838,182,544,0,3846.0,3853.0,208.0,247.0,543.0,550.0
3829,169,563,0,3838.0,3846.0,182.0,208.0,544.0,543.0
3830,161,585,0,3829.0,3838.0,169.0,182.0,563.0,544.0
3833,157,600,0,3830.0,3829.0,161.0,169.0,585.0,563.0
3835,152,596,0,3833.0,3830.0,157.0,161.0,600.0,585.0
3861,149,636,0,3835.0,3833.0,152.0,157.0,596.0,600.0
3895,151,655,0,3861.0,3835.0,149.0,152.0,636.0,596.0
3926,153,621,0,3895.0,3861.0,151.0,149.0,655.0,636.0
3951,142,547,0,3926.0,3895.0,153.0,151.0,621.0,655.0
3968,117,466,0,3951.0,3926.0,142.0,153.0,547.0,621.0
3957,109,401,0,3968.0,3951.0,117.0,142.0,466.0,547.0
3923,117,366,0,3957.0,3968.0,109.0,117.0,401.0,466.0
3876,126,343,0,3923.0,3957.0,117.0,109.0,366.0,401.0
3822,122,324,0,3876.0,3923.0,126.0,117.0,343.0,366.0
3774,102,317,0,3822.0,3876.0,122.0,126.0,324.0,343.0
3738,64,320,0,3774.0,3822.0,102.0,122.0,317.0,324.0
3717,28,324,0,3738.0,3774.0,64.0,102.0,320.0,317.0
3708,-4,319,0,3717.0,3738.0,28.0,64.0,324.0,320.0
3702,-26,309,0,3708.0,3717.0,-4.0,28.0,319.0,324.0
3720,-33,289,0,3702.0,3708.0,-26.0,-4.0,309.0,319.0
3749,-17,266,0,3720.0,3702.0,-33.0,-26.0,289.0,309.0
3783,15,234,0,3749.0,3720.0,-17.0,-33.0,266.0,289.0
3799,105,180,0,3783.0,3749.0,15.0,-17.0,234.0,266.0
3822,206,133,0,3799.0,3783.0,105.0,15.0,180.0,234.0
3842,294,98,0,3822.0,3799.0,206.0,105.0,133.0,180.0
3868,383,75,0,3842.0,3822.0,294.0,206.0,98.0,133.0
3901,467,79,0,3868.0,3842.0,383.0,294.0,75.0,98.0
3951,509,117,0,3901.0,3868.0,467.0,383.0,79.0,75.0
3989,532,136,0,3951.0,3901.0,509.0,467.0,117.0,79.0
4030,560,128,0,3989.0,3951.0,532.0,509.0,136.0,117.0
4070,570,140,0,4030.0,3989.0,560.0,532.0,128.0,136.0
4126,590,180,0,4070.0,4030.0,570.0,560.0,140.0,128.0
4181,615,194,0,4126.0,4070.0,590.0,570.0,180.0,140.0
4253,639,217,0,4181.0,4126.0,615.0,590.0,194.0,180.0
4328,660,269,0,4253.0,4181.0,639.0,615.0,217.0,194.0
4408,665,332,0,4328.0,4253.0,660.0,639.0,269.0,217.0
4480,658,364,0,4408.0,4328.0,665.0,660.0,332.0,269.0
4542,644,399,0,4480.0,4408.0,658.0,665.0,364.0,332.0
4609,618,447,0,4542.0,4480.0,644.0,658.0,399.0,364.0
4677,580,505,0,4609.0,4542.0,618.0,644.0,447.0,399.0
4763,527,549,0,4677.0,4609.0,580.0,618.0,505.0,447.0
4871,472,582,0,4763.0,4677.0,527.0,580.0,549.0,505.0
4987,417,597,0,4871.0,4763.0,472.0,527.0,582.0,549.0
5097,342,577,0,4987.0,4871.0,417.0,472.0,597.0,582.0
5184,263,524,0,5097.0,4987.0,342.0,417.0,577.0,597.0
5237,180,441,0,5184.0,5097.0,263.0,342.0,524.0,577.0
5258,132,350,0,5237.0,5184.0,180.0,263.0,441.0,524.0
5229,159,255,0,5258.0,5237.0,132.0,180.0,350.0,441.0
5169,274,169,0,5229.0,5258.0,159.0,132.0,255.0,350.0
5083,479,88,0,5169.0,5229.0,274.0,159.0,169.0,255.0
4995,711,10,0,5083.0,5169.0,479.0,274.0,88.0,169.0
