accelerometer_x,accelerometer_y,accelerometer_z,fall,x_lag_1,x_lag_2,y_lag_1,y_lag_2,z_lag_1,z_lag_2
-437,-3592,1932,0,,,,,,
-434,-3590,1932,0,-437.0,,-3592.0,,1932.0,
-434,-3591,1927,0,-434.0,-437.0,-3590.0,-3592.0,1932.0,1932.0
-434,-3588,1927,0,-434.0,-434.0,-3591.0,-3590.0,1927.0,1932.0
-435,-3587,1928,0,-434.0,-434.0,-3588.0,-3591.0,1927.0,1927.0
-436,-3584,1928,0,-435.0,-434.0,-3587.0,-3588.0,1928.0,1927.0
-434,-3583,1929,0,-436.0,-435.0,-3584.0,-3587.0,1928.0,1928.0
-435,-3583,1927,0,-434.0,-436.0,-3583.0,-3584.0,1929.0,1928.0
-432,-3583,1927,0,-435.0,-434.0,-3583.0,-3583.0,1927.0,1929.0
-429,-3585,1925,0,-432.0,-435.0,-3583.0,-3583.0,1927.0,1927.0
-433,-3582,1929,0,-429.0,-432.0,-3585.0,-3583.0,1925.0,1927.0
-437,-3582,1929,0,-433.0,-429.0,-3582.0,-3585.0,1929.0,1925.0
-437,-3581,1929,0,-437.0,-433.0,-3582.0,-3582.0,1929.0,1929.0
-433,-3583,1930,0,-437.0,-437.0,-3581.0,-3582.0,1929.0,1929.0
-431,-3584,1929,0,-433.0,-437.0,-3583.0,-3581.0,1930.0,1929.0
-428,-3579,1932,0,-431.0,-433.0,-3584.0,-3583.0,1929.0,1930.0
-425,-3578,1928,0,-428.0,-431.0,-3579.0,-3584.0,1932.0,1929.0
-431,-3578,1930,0,-425.0,-428.0,-3578.0,-3579.0,1928.0,1932.0
-430,-3577,1930,0,-431.0,-425.0,-3578.0,-3578.0,1930.0,1928.0
-432,-3583,1931,0,-430.0,-431.0,-3577.0,-3578.0,1930.0,1930.0
-434,-3583,1932,0,-432.0,-430.0,-3583.0,-3577.0,1931.0,1930.0
-435,-3583,1929,0,-434.0,-432.0,-3583.0,-3583.0,1932.0,1931.0
-438,-3585,1928,0,-435.0,-434.0,-3583.0,-3583.0,1929.0,1932.0
-441,-3582,1925,0,-438.0,-435.0,-3585.0,-3583.0,1928.0,1929.0
-441,-3582,1926,0,-441.0,-438.0,-3582.0,-3585.0,1925.0,1928.0
-439,-3582,1917,0,-441.0,-441.0,-3582.0,-3582.0,1926.0,1925.0
-435,-3582,1920,0,-439.0,-441.0,-3582.0,-3582.0,1917.0,1926.0
-432,-3581,1920,0,-435.0,-439.0,-3582.0,-3582.0,1920.0,1917.0
-433,-3581,1921,0,-432.0,-435.0,-3581.0,-3582.0,1920.0,1920.0
-434,-3581,1921,0,-433.0,-432.0,-3581.0,-3581.0,1921.0,1920.0
-429,-3582,1922,0,-434.0,-433.0,-3581.0,-3581.0,1921.0,1921.0
-430,-3584,1920,0,-429.0,-434.0,-3582.0,-3581.0,1922.0,1921.0
-427,-3586,1924,0,-430.0,-429.0,-3584.0,-3582.0,1920.0,1922.0
-428,-3584,1922,0,-427.0,-430.0,-3586.0,-3584.0,1924.0,1920.0
-427,-3583,1918,0,-428.0,-427.0,-3584.0,-3586.0,1922.0,1924.0
-426,-3589,1913,0,-427.0,-428.0,-3583.0,-3584.0,1918.0,1922.0
-421,-3586,1914,0,-426.0,-427.0,-3589.0,-3583.0,1913.0,1918.0
-425,-3586,1910,0,-421.0,-426.0,-3586.0,-3589.0,1914.0,1913.0
-424,-3588,1908,0,-425.0,-421.0,-3586.0,-3586.0,1910.0,1914.0
-423,-3588,1903,0,-424.0,-425.0,-3588.0,-3586.0,1908.0,1910.0
-423,-3592,1902,0,-423.0,-424.0,-3588.0,-3588.0,1903.0,1908.0
-424,-3592,1902,0,-423.0,-423.0,-3592.0,-3588.0,1902.0,1903.0
-430,-3594,1902,0,-424.0,-423.0,-3592.0,-3592.0,1902.0,1902.0
-432,-3604,1905,0,-430.0,-424.0,-3594.0,-3592.0,1902.0,1902.0
-434,-3604,1906,0,-432.0,-430.0,-3604.0,-3594.0,1905.0,1902.0
-437,-3603,1908,0,-434.0,-432.0,-3604.0,-3604.0,1906.0,1905.0
-439,-3605,1907,0,-437.0,-434.0,-3603.0,-3604.0,1908.0,1906.0
-441,-3608,1906,0,-439.0,-437.0,-3605.0,-3603.0,1907.0,1908.0
-446,-3609,1907,0,-441.0,-439.0,-3608.0,-3605.0,1906.0,1907.0
-451,-3609,1907,0,-446.0,-441.0,-3609.0,-3608.0,1907.0,1906.0
-453,-3609,1906,0,-451.0,-446.0,-3609.0,-3609.0,1907.0,1907.0
-455,-3606,1907,0,-453.0,-451.0,-3609.0,-3609.0,1906.0,1907.0
-450,-3608,1907,0,-455.0,-453.0,-3606.0,-3609.0,1907.0,1906.0
-453,-3607,1906,0,-450.0,-455.0,-3608.0,-3606.0,1907.0,1907.0
-450,-3605,1904,0,-453.0,-450.0,-3607.0,-3608.0,1906.0,1907.0
-451,-3604,1905,0,-450.0,-453.0,-3605.0,-3607.0,1904.0,1906.0
-448,-3602,1906,0,-451.0,-450.0,-3604.0,-3605.0,1905.0,1904.0
-445,-3599,1907,0,-448.0,-451.0,-3602.0,-3604.0,1906.0,1905.0
-440,-3594,1906,0,-445.0,-448.0,-3599.0,-3602.0,1907.0,1906.0
-437,-3593,1904,0,-440.0,-445.0,-3594.0,-3599.0,1906.0,1907.0
-435,-3593,1898,0,-437.0,-440.0,-3593.0,-3594.0,1904.0,1906.0
-437,-3592,1898,0,-435.0,-437.0,-3593.0,-3593.0,1898.0,1904.0
-436,-3590,1898,0,-437.0,-435.0,-3592.0,-3593.0,1898.0,1898.0
-437,-3592,1900,0,-436.0,-437.0,-3590.0,-3592.0,1898.0,1898.0
-440,-3593,1904,0,-437.0,-436.0,-3592.0,-3590.0,1900.0,1898.0
-444,-3596,1907,0,-440.0,-437.0,-3593.0,-3592.0,1904.0,1900.0
-448,-3600,1906,0,-444.0,-440.0,-3596.0,-3593.0,1907.0,1904.0
-451,-3601,1907,0,-448.0,-444.0,-3600.0,-3596.0,1906.0,1907.0
-452,-3602,1906,0,-451.0,-448.0,-3601.0,-3600.0,1907.0,1906.0
-450,-3606,1911,0,-452.0,-451.0,-3602.0,-3601.0,1906.0,1907.0
-451,-3603,1908,0,-450.0,-452.0,-3606.0,-3602.0,1911.0,1906.0
-452,-3600,1907,0,-451.0,-450.0,-3603.0,-3606.0,1908.0,1911.0
-453,-3598,1907,0,-452.0,-451.0,-3600.0,-3603.0,1907.0,1908.0
-449,-3595,1912,0,-453.0,-452.0,-3598.0,-3600.0,1907.0,1907.0
-451,-3593,1914,0,-449.0,-453.0,-3595.0,-3598.0,1912.0,1907.0
-447,-3593,1913,0,-451.0,-449.0,-3593.0,-3595.0,1914.0,1912.0
-447,-3590,1918,0,-447.0,-451.0,-3593.0,-3593.0,1913.0,1914.0
-447,-3592,1921,0,-447.0,-447.0,-3590.0,-3593.0,1918.0,1913.0
-447,-3588,1922,0,-447.0,-447.0,-3592.0,-3590.0,1921.0,1918.0
-448,-3582,1924,0,-447.0,-447.0,-3588.0,-3592.0,1922.0,1921.0
-448,-3584,1924,0,-448.0,-447.0,-3582.0,-3588.0,1924.0,1922.0
-444,-3585,1928,0,-448.0,-448.0,-3584.0,-3582.0,1924.0,1924.0
-445,-3585,1926,0,-444.0,-448.0,-3585.0,-3584.0,1928.0,1924.0
-443,-3583,1927,0,-445.0,-444.0,-3585.0,-3585.0,1926.0,1928.0
-439,-3580,1928,0,-443.0,-445.0,-3583.0,-3585.0,1927.0,1926.0
-438,-3581,1929,0,-439.0,-443.0,-3580.0,-3583.0,1928.0,1927.0
-439,-3576,1930,0,-438.0,-439.0,-3581.0,-3580.0,1929.0,1928.0
-436,-3573,1930,0,-439.0,-438.0,-3576.0,-3581.0,1930.0,1929.0
-434,-3567,1931,0,-436.0,-439.0,-3573.0,-3576.0,1930.0,1930.0
-429,-3566,1932,0,-434.0,-436.0,-3567.0,-3573.0,1931.0,1930.0
-429,-3566,1936,0,-429.0,-434.0,-3566.0,-3567.0,1932.0,1931.0
-430,-3566,1934,0,-429.0,-429.0,-3566.0,-3566.0,1936.0,1932.0
-430,-3565,1932,0,-430.0,-429.0,-3566.0,-3566.0,1934.0,1936.0
-430,-3566,1933,0,-430.0,-430.0,-3565.0,-3566.0,1932.0,1934.0
-434,-3567,1933,0,-430.0,-430.0,-3566.0,-3565.0,1933.0,1932.0
-438,-3568,1932,0,-434.0,-430.0,-3567.0,-3566.0,1933.0,1933.0
-439,-3574,1933,0,-438.0,-434.0,-3568.0,-3567.0,1932.0,1933.0
-444,-3582,1931,0,-439.0,-438.0,-3574.0,-3568.0,1933.0,1932.0
-450,-3586,1927,0,-444.0,-439.0,-3582.0,-3574.0,1931.0,1933.0
-454,-3589,1924,0,-450.0,-444.0,-3586.0,-3582.0,1927.0,1931.0
-452,-3592,1927,0,-454.0,-450.0,-3589.0,-3586.0,1924.0,1927.0
-453,-3593,1930,0,-452.0,-454.0,-3592.0,-3589.0,1927.0,1924.0
-454,-3594,1928,0,-453.0,-452.0,-3593.0,-3592.0,1930.0,1927.0
-454,-3595,1929,0,-454.0,-453.0,-3594.0,-3593.0,1928.0,1930.0
-449,-3593,1927,0,-454.0,-454.0,-3595.0,-3594.0,1929.0,1928.0
-447,-3592,1929,0,-449.0,-454.0,-3593.0,-3595.0,1927.0,1929.0
-445,-3590,1931,0,-447.0,-449.0,-3592.0,-3593.0,1929.0,1927.0
-442,-3587,1931,0,-445.0,-447.0,-3590.0,-3592.0,1931.0,1929.0
-441,-3585,1930,0,-442.0,-445.0,-3587.0,-3590.0,1931.0,1931.0
-433,-3578,1931,0,-441.0,-442.0,-3585.0,-3587.0,1930.0,1931.0
-429,-3574,1930,0,-433.0,-441.0,-3578.0,-3585.0,1931.0,1930.0
-426,-3574,1930,0,-429.0,-433.0,-3574.0,-3578.0,1930.0,1931.0
-426,-3575,1933,0,-426.0,-429.0,-3574.0,-3574.0,1930.0,1930.0
-422,-3576,1933,0,-426.0,-426.0,-3575.0,-3574.0,1933.0,1930.0
-419,-3571,1932,0,-422.0,-426.0,-3576.0,-3575.0,1933.0,1933.0
-420,-3576,1929,0,-419.0,-422.0,-3571.0,-3576.0,1932.0,1933.0
-421,-3575,1928,0,-420.0,-419.0,-3576.0,-3571.0,1929.0,1932.0
-422,-3575,1927,0,-421.0,-420.0,-3575.0,-3576.0,1928.0,1929.0
-420,-3576,1926,0,-422.0,-421.0,-3575.0,-3575.0,1927.0,1928.0
-422,-3572,1931,0,-420.0,-422.0,-3576.0,-3575.0,1926.0,1927.0
-423,-3572,1930,0,-422.0,-420.0,-3572.0,-3576.0,1931.0,1926.0
-424,-3574,1931,0,-423.0,-422.0,-3572.0,-3572.0,1930.0,1931.0
-426,-3575,1933,0,-424.0,-423.0,-3574.0,-3572.0,1931.0,1930.0
-422,-3579,1935,0,-426.0,-424.0,-3575.0,-3574.0,1933.0,1931.0
-424,-3581,1933,0,-422.0,-426.0,-3579.0,-3575.0,1935.0,1933.0
-426,-3580,1931,0,-424.0,-422.0,-3581.0,-3579.0,1933.0,1935.0
-428,-3585,1932,0,-426.0,-424.0,-3580.0,-3581.0,1931.0,1933.0
-430,-3587,1926,0,-428.0,-426.0,-3585.0,-3580.0,1932.0,1931.0
-436,-3587,1925,0,-430.0,-428.0,-3587.0,-3585.0,1926.0,1932.0
-439,-3587,1927,0,-436.0,-430.0,-3587.0,-3587.0,1925.0,1926.0
-436,-3588,1928,0,-439.0,-436.0,-3587.0,-3587.0,1927.0,1925.0
-436,-3587,1931,0,-436.0,-439.0,-3588.0,-3587.0,1928.0,1927.0
-433,-3589,1933,0,-436.0,-436.0,-3587.0,-3588.0,1931.0,1928.0
-434,-3589,1934,0,-433.0,-436.0,-3589.0,-3587.0,1933.0,1931.0
-438,-3592,1933,0,-434.0,-433.0,-3589.0,-3589.0,1934.0,1933.0
-440,-3594,1932,0,-438.0,-434.0,-3592.0,-3589.0,1933.0,1934.0
-441,-3596,1928,0,-440.0,-438.0,-3594.0,-3592.0,1932.0,1933.0
-438,-3595,1928,0,-441.0,-440.0,-3596.0,-3594.0,1928.0,1932.0
-442,-3594,1931,0,-438.0,-441.0,-3595.0,-3596.0,1928.0,1928.0
-443,-3594,1930,0,-442.0,-438.0,-3594.0,-3595.0,1931.0,1928.0
-442,-3593,1932,0,-443.0,-442.0,-3594.0,-3594.0,1930.0,1931.0
-441,-3593,1929,0,-442.0,-443.0,-3593.0,-3594.0,1932.0,1930.0
-442,-3597,1930,0,-441.0,-442.0,-3593.0,-3593.0,1929.0,1932.0
-441,-3596,1933,0,-442.0,-441.0,-3597.0,-3593.0,1930.0,1929.0
-439,-3590,1933,0,-441.0,-442.0,-3596.0,-3597.0,1933.0,1930.0
-436,-3589,1933,0,-439.0,-441.0,-3590.0,-3596.0,1933.0,1933.0
-433,-3585,1938,0,-436.0,-439.0,-3589.0,-3590.0,1933.0,1933.0
-429,-3582,1942,0,-433.0,-436.0,-3585.0,-3589.0,1938.0,1933.0
-429,-3581,1942,0,-429.0,-433.0,-3582.0,-3585.0,1942.0,1938.0
-427,-3576,1943,0,-429.0,-429.0,-3581.0,-3582.0,1942.0,1942.0
-424,-3572,1942,0,-427.0,-429.0,-3576.0,-3581.0,1943.0,1942.0
-422,-3570,1941,0,-424.0,-427.0,-3572.0,-3576.0,1942.0,1943.0
-422,-3566,1943,0,-422.0,-424.0,-3570.0,-3572.0,1941.0,1942.0
-421,-3565,1943,0,-422.0,-422.0,-3566.0,-3570.0,1943.0,1941.0
-420,-3561,1945,0,-421.0,-422.0,-3565.0,-3566.0,1943.0,1943.0
-420,-3558,1949,0,-420.0,-421.0,-3561.0,-3565.0,1945.0,1943.0
-424,-3556,1947,0,-420.0,-420.0,-3558.0,-3561.0,1949.0,1945.0
-426,-3555,1950,0,-424.0,-420.0,-3556.0,-3558.0,1947.0,1949.0
-427,-3558,1951,0,-426.0,-424.0,-3555.0,-3556.0,1950.0,1947.0
-429,-3560,1949,0,-427.0,-426.0,-3558.0,-3555.0,1951.0,1950.0
-428,-3561,1953,0,-429.0,-427.0,-3560.0,-3558.0,1949.0,1951.0
-431,-3562,1955,0,-428.0,-429.0,-3561.0,-3560.0,1953.0,1949.0
-432,-3564,1956,0,-431.0,-428.0,-3562.0,-3561.0,1955.0,1953.0
-438,-3568,1958,0,-432.0,-431.0,-3564.0,-3562.0,1956.0,1955.0
-438,-3573,1957,0,-438.0,-432.0,-3568.0,-3564.0,1958.0,1956.0
-437,-3574,1956,0,-438.0,-438.0,-3573.0,-3568.0,1957.0,1958.0
-439,-3579,1951,0,-437.0,-438.0,-3574.0,-3573.0,1956.0,1957.0
-433,-3577,1954,0,-439.0,-437.0,-3579.0,-3574.0,1951.0,1956.0
-432,-3578,1954,0,-433.0,-439.0,-3577.0,-3579.0,1954.0,1951.0
-429,-3577,1955,0,-432.0,-433.0,-3578.0,-3577.0,1954.0,1954.0
-427,-3575,1955,0,-429.0,-432.0,-3577.0,-3578.0,1955.0,1954.0
-427,-3574,1957,0,-427.0,-429.0,-3575.0,-3577.0,1955.0,1955.0
-423,-3575,1955,0,-427.0,-427.0,-3574.0,-3575.0,1957.0,1955.0
-419,-3574,1958,0,-423.0,-427.0,-3575.0,-3574.0,1955.0,1957.0
-413,-3570,1959,0,-419.0,-423.0,-3574.0,-3575.0,1958.0,1955.0
-412,-3566,1955,0,-413.0,-419.0,-3570.0,-3574.0,1959.0,1958.0
-410,-3565,1960,0,-412.0,-413.0,-3566.0,-3570.0,1955.0,1959.0
-406,-3564,1959,0,-410.0,-412.0,-3565.0,-3566.0,1960.0,1955.0
-404,-3563,1961,0,-406.0,-410.0,-3564.0,-3565.0,1959.0,1960.0
-401,-3561,1964,0,-404.0,-406.0,-3563.0,-3564.0,1961.0,1959.0
-400,-3560,1965,0,-401.0,-404.0,-3561.0,-3563.0,1964.0,1961.0
-400,-3561,1968,0,-400.0,-401.0,-3560.0,-3561.0,1965.0,1964.0
-402,-3562,1970,0,-400.0,-400.0,-3561.0,-3560.0,1968.0,1965.0
-399,-3562,1969,0,-402.0,-400.0,-3562.0,-3561.0,1970.0,1968.0
-399,-3564,1968,0,-399.0,-402.0,-3562.0,-3562.0,1969.0,1970.0
-401,-3564,1966,0,-399.0,-399.0,-3564.0,-3562.0,1968.0,1969.0
-402,-3563,1966,0,-401.0,-399.0,-3564.0,-3564.0,1966.0,1968.0
-400,-3565,1972,0,-402.0,-401.0,-3563.0,-3564.0,1966.0,1966.0
-401,-3565,1968,0,-400.0,-402.0,-3565.0,-3563.0,1972.0,1966.0
-401,-3562,1967,0,-401.0,-400.0,-3565.0,-3565.0,1968.0,1972.0
-402,-3562,1970,0,-401.0,-401.0,-3562.0,-3565.0,1967.0,1968.0
-402,-3563,1967,0,-402.0,-401.0,-3562.0,-3562.0,1970.0,1967.0
-401,-3564,1967,0,-402.0,-402.0,-3563.0,-3562.0,1967.0,1970.0
-399,-3564,1968,0,-401.0,-402.0,-3564.0,-3563.0,1967.0,1967.0
-397,-3564,1966,0,-399.0,-401.0,-3564.0,-3564.0,1968.0,1967.0
-397,-3563,1964,0,-397.0,-399.0,-3564.0,-3564.0,1966.0,1968.0
-398,-3567,1967,0,-397.0,-397.0,-3563.0,-3564.0,1964.0,1966.0
-399,-3568,1966,0,-398.0,-397.0,-3567.0,-3563.0,1967.0,1964.0
-392,-3567,1964,0,-399.0,-398.0,-3568.0,-3567.0,1966.0,1967.0
-395,-3571,1963,0,-392.0,-399.0,-3567.0,-3568.0,1964.0,1966.0
-398,-3572,1966,0,-395.0,-392.0,-3571.0,-3567.0,1963.0,1964.0
-398,-3574,1967,0,-398.0,-395.0,-3572.0,-3571.0,1966.0,1963.0
-401,-3573,1968,0,-398.0,-398.0,-3574.0,-3572.0,1967.0,1966.0
-404,-3575,1972,0,-401.0,-398.0,-3573.0,-3574.0,1968.0,1967.0
-401,-3575,1973,0,-404.0,-401.0,-3575.0,-3573.0,1972.0,1968.0
-403,-3577,1973,0,-401.0,-404.0,-3575.0,-3575.0,1973.0,1972.0
-406,-3578,1973,0,-403.0,-401.0,-3577.0,-3575.0,1973.0,1973.0
-408,-3580,1973,0,-406.0,-403.0,-3578.0,-3577.0,1973.0,1973.0
-412,-3574,1972,0,-408.0,-406.0,-3580.0,-3578.0,1973.0,1973.0
-410,-3575,1972,0,-412.0,-408.0,-3574.0,-3580.0,1972.0,1973.0
-414,-3572,1973,0,-410.0,-412.0,-3575.0,-3574.0,1972.0,1972.0
-411,-3567,1974,0,-414.0,-410.0,-3572.0,-3575.0,1973.0,1972.0
-411,-3567,1974,0,-411.0,-414.0,-3567.0,-3572.0,1974.0,1973.0
-412,-3568,1975,0,-411.0,-411.0,-3567.0,-3567.0,1974.0,1974.0
-407,-3567,1975,0,-412.0,-411.0,-3568.0,-3567.0,1975.0,1974.0
-406,-3563,1979,0,-407.0,-412.0,-3567.0,-3568.0,1975.0,1975.0
-405,-3562,1979,0,-406.0,-407.0,-3563.0,-3567.0,1979.0,1975.0
-397,-3563,1982,0,-405.0,-406.0,-3562.0,-3563.0,1979.0,1979.0
-399,-3561,1982,0,-397.0,-405.0,-3563.0,-3562.0,1982.0,1979.0
-396,-3560,1984,0,-399.0,-397.0,-3561.0,-3563.0,1982.0,1982.0
-400,-3561,1981,0,-396.0,-399.0,-3560.0,-3561.0,1984.0,1982.0
-400,-3558,1979,0,-400.0,-396.0,-3561.0,-3560.0,1981.0,1984.0
-397,-3555,1979,0,-400.0,-400.0,-3558.0,-3561.0,1979.0,1981.0
-396,-3554,1976,0,-397.0,-400.0,-3555.0,-3558.0,1979.0,1979.0
-394,-3548,1975,0,-396.0,-397.0,-3554.0,-3555.0,1976.0,1979.0
-398,-3546,1972,0,-394.0,-396.0,-3548.0,-3554.0,1975.0,1976.0
-400,-3544,1966,0,-398.0,-394.0,-3546.0,-3548.0,1972.0,1975.0
-400,-3547,1967,0,-400.0,-398.0,-3544.0,-3546.0,1966.0,1972.0
-400,-3545,1963,0,-400.0,-400.0,-3547.0,-3544.0,1967.0,1966.0
-399,-3548,1963,0,-400.0,-400.0,-3545.0,-3547.0,1963.0,1967.0
-400,-3547,1962,0,-399.0,-400.0,-3548.0,-3545.0,1963.0,1963.0
-398,-3550,1959,0,-400.0,-399.0,-3547.0,-3548.0,1962.0,1963.0
-396,-3555,1956,0,-398.0,-400.0,-3550.0,-3547.0,1959.0,1962.0
-394,-3558,1954,0,-396.0,-398.0,-3555.0,-3550.0,1956.0,1959.0
-397,-3561,1954,0,-394.0,-396.0,-3558.0,-3555.0,1954.0,1956.0
-399,-3565,1952,0,-397.0,-394.0,-3561.0,-3558.0,1954.0,1954.0
-403,-3572,1949,0,-399.0,-397.0,-3565.0,-3561.0,1952.0,1954.0
-405,-3576,1947,0,-403.0,-399.0,-3572.0,-3565.0,1949.0,1952.0
-406,-3579,1950,0,-405.0,-403.0,-3576.0,-3572.0,1947.0,1949.0
-409,-3583,1947,0,-406.0,-405.0,-3579.0,-3576.0,1950.0,1947.0
-414,-3585,1950,0,-409.0,-406.0,-3583.0,-3579.0,1947.0,1950.0
-420,-3587,1951,0,-414.0,-409.0,-3585.0,-3583.0,1950.0,1947.0
-423,-3587,1952,0,-420.0,-414.0,-3587.0,-3585.0,1951.0,1950.0
-431,-3587,1955,0,-423.0,-420.0,-3587.0,-3587.0,1952.0,1951.0
-434,-3584,1958,0,-431.0,-423.0,-3587.0,-3587.0,1955.0,1952.0
-436,-3579,1958,0,-434.0,-431.0,-3584.0,-3587.0,1958.0,1955.0
-440,-3575,1955,0,-436.0,-434.0,-3579.0,-3584.0,1958.0,1958.0
-437,-3575,1954,0,-440.0,-436.0,-3575.0,-3579.0,1955.0,1958.0
-437,-3572,1955,0,-437.0,-440.0,-3575.0,-3575.0,1954.0,1955.0
-436,-3569,1955,0,-437.0,-437.0,-3572.0,-3575.0,1955.0,1954.0
-436,-3566,1957,0,-436.0,-437.0,-3569.0,-3572.0,1955.0,1955.0
-430,-3561,1954,0,-436.0,-436.0,-3566.0,-3569.0,1957.0,1955.0
-430,-3560,1957,0,-430.0,-436.0,-3561.0,-3566.0,1954.0,1957.0
-427,-3555,1960,0,-430.0,-430.0,-3560.0,-3561.0,1957.0,1954.0
-425,-3554,1961,0,-427.0,-430.0,-3555.0,-3560.0,1960.0,1957.0
-419,-3552,1966,0,-425.0,-427.0,-3554.0,-3555.0,1961.0,1960.0
-418,-3556,1974,0,-419.0,-425.0,-3552.0,-3554.0,1966.0,1961.0
-412,-3565,1979,0,-418.0,-419.0,-3556.0,-3552.0,1974.0,1966.0
-412,-3567,1980,0,-412.0,-418.0,-3565.0,-3556.0,1979.0,1974.0
-415,-3569,1976,0,-412.0,-412.0,-3567.0,-3565.0,1980.0,1979.0
-418,-3569,1977,0,-415.0,-412.0,-3569.0,-3567.0,1976.0,1980.0
-419,-3573,1979,0,-418.0,-415.0,-3569.0,-3569.0,1977.0,1976.0
-427,-3574,1977,0,-419.0,-418.0,-3573.0,-3569.0,1979.0,1977.0
-433,-3573,1970,0,-427.0,-419.0,-3574.0,-3573.0,1977.0,1979.0
-438,-3571,1970,0,-433.0,-427.0,-3573.0,-3574.0,1970.0,1977.0
-438,-3571,1969,0,-438.0,-433.0,-3571.0,-3573.0,1970.0,1970.0
-444,-3571,1963,0,-438.0,-438.0,-3571.0,-3571.0,1969.0,1970.0
-443,-3569,1961,0,-444.0,-438.0,-3571.0,-3571.0,1963.0,1969.0
-449,-3569,1959,0,-443.0,-444.0,-3569.0,-3571.0,1961.0,1963.0
-452,-3569,1954,0,-449.0,-443.0,-3569.0,-3569.0,1959.0,1961.0
-453,-3571,1953,0,-452.0,-449.0,-3569.0,-3569.0,1954.0,1959.0
-455,-3573,1946,0,-453.0,-452.0,-3571.0,-3569.0,1953.0,1954.0
-453,-3579,1946,0,-455.0,-453.0,-3573.0,-3571.0,1946.0,1953.0
-453,-3582,1948,0,-453.0,-455.0,-3579.0,-3573.0,1946.0,1946.0
-451,-3583,1952,0,-453.0,-453.0,-3582.0,-3579.0,1948.0,1946.0
-450,-3583,1948,0,-451.0,-453.0,-3583.0,-3582.0,1952.0,1948.0
-448,-3587,1947,0,-450.0,-451.0,-3583.0,-3583.0,1948.0,1952.0
-444,-3586,1953,0,-448.0,-450.0,-3587.0,-3583.0,1947.0,1948.0
-439,-3579,1948,0,-444.0,-448.0,-3586.0,-3587.0,1953.0,1947.0
-437,-3576,1944,0,-439.0,-444.0,-3579.0,-3586.0,1948.0,1953.0
-432,-3574,1943,0,-437.0,-439.0,-3576.0,-3579.0,1944.0,1948.0
-429,-3572,1945,0,-432.0,-437.0,-3574.0,-3576.0,1943.0,1944.0
-424,-3569,1943,0,-429.0,-432.0,-3572.0,-3574.0,1945.0,1943.0
-421,-3568,1939,0,-424.0,-429.0,-3569.0,-3572.0,1943.0,1945.0
-415,-3562,1934,0,-421.0,-424.0,-3568.0,-3569.0,1939.0,1943.0
-409,-3561,1938,0,-415.0,-421.0,-3562.0,-3568.0,1934.0,1939.0
-407,-3558,1938,0,-409.0,-415.0,-3561.0,-3562.0,1938.0,1934.0
-403,-3560,1938,0,-407.0,-409.0,-3558.0,-3561.0,1938.0,1938.0
-394,-3558,1941,0,-403.0,-407.0,-3560.0,-3558.0,1938.0,1938.0
-394,-3558,1942,0,-394.0,-403.0,-3558.0,-3560.0,1941.0,1938.0
-391,-3557,1942,0,-394.0,-394.0,-3558.0,-3558.0,1942.0,1941.0
-383,-3559,1946,0,-391.0,-394.0,-3557.0,-3558.0,1942.0,1942.0
-382,-3564,1949,0,-383.0,-391.0,-3559.0,-3557.0,1946.0,1942.0
-381,-3563,1948,0,-382.0,-383.0,-3564.0,-3559.0,1949.0,1946.0
-386,-3560,1947,0,-381.0,-382.0,-3563.0,-3564.0,1948.0,1949.0
-389,-3561,1949,0,-386.0,-381.0,-3560.0,-3563.0,1947.0,1948.0
-392,-3563,1952,0,-389.0,-386.0,-3561.0,-3560.0,1949.0,1947.0
-394,-3564,1953,0,-392.0,-389.0,-3563.0,-3561.0,1952.0,1949.0
-400,-3569,1954,0,-394.0,-392.0,-3564.0,-3563.0,1953.0,1952.0
-404,-3574,1949,0,-400.0,-394.0,-3569.0,-3564.0,1954.0,1953.0
-407,-3581,1944,0,-404.0,-400.0,-3574.0,-3569.0,1949.0,1954.0
-407,-3587,1937,0,-407.0,-404.0,-3581.0,-3574.0,1944.0,1949.0
-415,-3586,1935,0,-407.0,-407.0,-3587.0,-3581.0,1937.0,1944.0
-418,-3589,1936,0,-415.0,-407.0,-3586.0,-3587.0,1935.0,1937.0
-424,-3590,1938,0,-418.0,-415.0,-3589.0,-3586.0,1936.0,1935.0
-420,-3591,1940,0,-424.0,-418.0,-3590.0,-3589.0,1938.0,1936.0
-418,-3598,1945,0,-420.0,-424.0,-3591.0,-3590.0,1940.0,1938.0
-416,-3603,1947,0,-418.0,-420.0,-3598.0,-3591.0,1945.0,1940.0
-420,-3600,1943,0,-416.0,-418.0,-3603.0,-3598.0,1947.0,1945.0
-419,-3600,1942,0,-420.0,-416.0,-3600.0,-3603.0,1943.0,1947.0
-422,-3603,1941,0,-419.0,-420.0,-3600.0,-3600.0,1942.0,1943.0
-422,-3602,1935,0,-422.0,-419.0,-3603.0,-3600.0,1941.0,1942.0
-427,-3597,1930,0,-422.0,-422.0,-3602.0,-3603.0,1935.0,1941.0
-425,-3590,1928,0,-427.0,-422.0,-3597.0,-3602.0,1930.0,1935.0
-426,-3587,1930,0,-425.0,-427.0,-3590.0,-3597.0,1928.0,1930.0
-429,-3588,1933,0,-426.0,-425.0,-3587.0,-3590.0,1930.0,1928.0
-432,-3590,1932,0,-429.0,-426.0,-3588.0,-3587.0,1933.0,1930.0
-432,-3586,1933,0,-432.0,-429.0,-3590.0,-3588.0,1932.0,1933.0
-429,-3589,1936,0,-432.0,-432.0,-3586.0,-3590.0,1933.0,1932.0
-430,-3595,1943,0,-429.0,-432.0,-3589.0,-3586.0,1936.0,1933.0
-430,-3596,1946,0,-430.0,-429.0,-3595.0,-3589.0,1943.0,1936.0
-432,-3595,1946,0,-430.0,-430.0,-3596.0,-3595.0,1946.0,1943.0
-432,-3593,1945,0,-432.0,-430.0,-3595.0,-3596.0,1946.0,1946.0
-432,-3591,1941,0,-432.0,-432.0,-3593.0,-3595.0,1945.0,1946.0
-431,-3587,1942,0,-432.0,-432.0,-3591.0,-3593.0,1941.0,1945.0
-433,-3580,1942,0,-431.0,-432.0,-3587.0,-3591.0,1942.0,1941.0
-433,-3577,1939,0,-433.0,-431.0,-3580.0,-3587.0,1942.0,1942.0
-436,-3571,1937,0,-433.0,-433.0,-3577.0,-3580.0,1939.0,1942.0
-436,-3565,1942,0,-436.0,-433.0,-3571.0,-3577.0,1937.0,1939.0
-434,-3566,1944,0,-436.0,-436.0,-3565.0,-3571.0,1942.0,1937.0
-433,-3570,1943,0,-434.0,-436.0,-3566.0,-3565.0,1944.0,1942.0
-430,-3568,1941,0,-433.0,-434.0,-3570.0,-3566.0,1943.0,1944.0
-426,-3568,1938,0,-430.0,-433.0,-3568.0,-3570.0,1941.0,1943.0
-428,-3567,1942,0,-426.0,-430.0,-3568.0,-3568.0,1938.0,1941.0
-427,-3563,1939,0,-428.0,-426.0,-3567.0,-3568.0,1942.0,1938.0
-424,-3564,1940,0,-427.0,-428.0,-3563.0,-3567.0,1939.0,1942.0
-427,-3568,1937,0,-424.0,-427.0,-3564.0,-3563.0,1940.0,1939.0
-428,-3565,1940,0,-427.0,-424.0,-3568.0,-3564.0,1937.0,1940.0
-427,-3569,1942,0,-428.0,-427.0,-3565.0,-3568.0,1940.0,1937.0
-428,-3568,1946,0,-427.0,-428.0,-3569.0,-3565.0,1942.0,1940.0
-429,-3572,1942,0,-428.0,-427.0,-3568.0,-3569.0,1946.0,1942.0
-432,-3569,1941,0,-429.0,-428.0,-3572.0,-3568.0,1942.0,1946.0
-433,-3572,1942,0,-432.0,-429.0,-3569.0,-3572.0,1941.0,1942.0
-439,-3571,1940,0,-433.0,-432.0,-3572.0,-3569.0,1942.0,1941.0
-443,-3574,1944,0,-439.0,-433.0,-3571.0,-3572.0,1940.0,1942.0
-442,-3575,1946,0,-443.0,-439.0,-3574.0,-3571.0,1944.0,1940.0
-446,-3578,1946,0,-442.0,-443.0,-3575.0,-3574.0,1946.0,1944.0
-444,-3579,1944,0,-446.0,-442.0,-3578.0,-3575.0,1946.0,1946.0
-438,-3576,1943,0,-444.0,-446.0,-3579.0,-3578.0,1944.0,1946.0
-440,-3575,1944,0,-438.0,-444.0,-3576.0,-3579.0,1943.0,1944.0
-438,-3574,1939,0,-440.0,-438.0,-3575.0,-3576.0,1944.0,1943.0
-437,-3575,1943,0,-438.0,-440.0,-3574.0,-3575.0,1939.0,1944.0
-433,-3572,1945,0,-437.0,-438.0,-3575.0,-3574.0,1943.0,1939.0
-431,-3569,1952,0,-433.0,-437.0,-3572.0,-3575.0,1945.0,1943.0
-428,-3567,1955,0,-431.0,-433.0,-3569.0,-3572.0,1952.0,1945.0
-425,-3566,1954,0,-428.0,-431.0,-3567.0,-3569.0,1955.0,1952.0
-420,-3563,1954,0,-425.0,-428.0,-3566.0,-3567.0,1954.0,1955.0
-419,-3562,1955,0,-420.0,-425.0,-3563.0,-3566.0,1954.0,1954.0
-416,-3566,1958,0,-419.0,-420.0,-3562.0,-3563.0,1955.0,1954.0
-409,-3565,1958,0,-416.0,-419.0,-3566.0,-3562.0,1958.0,1955.0
-410,-3563,1955,0,-409.0,-416.0,-3565.0,-3566.0,1958.0,1958.0
-409,-3559,1954,0,-410.0,-409.0,-3563.0,-3565.0,1955.0,1958.0
-406,-3558,1955,0,-409.0,-410.0,-3559.0,-3563.0,1954.0,1955.0
-406,-3561,1953,0,-406.0,-409.0,-3558.0,-3559.0,1955.0,1954.0
-408,-3564,1949,0,-406.0,-406.0,-3561.0,-3558.0,1953.0,1955.0
-408,-3563,1945,0,-408.0,-406.0,-3564.0,-3561.0,1949.0,1953.0
-411,-3564,1948,0,-408.0,-408.0,-3563.0,-3564.0,1945.0,1949.0
-414,-3566,1953,0,-411.0,-408.0,-3564.0,-3563.0,1948.0,1945.0
-418,-3567,1954,0,-414.0,-411.0,-3566.0,-3564.0,1953.0,1948.0
-421,-3569,1953,0,-418.0,-414.0,-3567.0,-3566.0,1954.0,1953.0
-420,-3569,1953,0,-421.0,-418.0,-3569.0,-3567.0,1953.0,1954.0
-424,-3572,1952,0,-420.0,-421.0,-3569.0,-3569.0,1953.0,1953.0
-426,-3576,1954,0,-424.0,-420.0,-3572.0,-3569.0,1952.0,1953.0
-422,-3580,1953,0,-426.0,-424.0,-3576.0,-3572.0,1954.0,1952.0
-426,-3585,1952,0,-422.0,-426.0,-3580.0,-3576.0,1953.0,1954.0
-427,-3585,1953,0,-426.0,-422.0,-3585.0,-3580.0,1952.0,1953.0
-424,-3588,1946,0,-427.0,-426.0,-3585.0,-3585.0,1953.0,1952.0
-420,-3591,1943,0,-424.0,-427.0,-3588.0,-3585.0,1946.0,1953.0
-419,-3590,1941,0,-420.0,-424.0,-3591.0,-3588.0,1943.0,1946.0
-417,-3592,1940,0,-419.0,-420.0,-3590.0,-3591.0,1941.0,1943.0
-416,-3594,1938,0,-417.0,-419.0,-3592.0,-3590.0,1940.0,1941.0
-417,-3595,1939,0,-416.0,-417.0,-3594.0,-3592.0,1938.0,1940.0
-416,-3597,1939,0,-417.0,-416.0,-3595.0,-3594.0,1939.0,1938.0
-415,-3596,1941,0,-416.0,-417.0,-3597.0,-3595.0,1939.0,1939.0
-416,-3593,1942,0,-415.0,-416.0,-3596.0,-3597.0,1941.0,1939.0
-417,-3589,1941,0,-416.0,-415.0,-3593.0,-3596.0,1942.0,1941.0
-415,-3586,1939,0,-417.0,-416.0,-3589.0,-3593.0,1941.0,1942.0
-415,-3585,1939,0,-415.0,-417.0,-3586.0,-3589.0,1939.0,1941.0
-416,-3582,1938,0,-415.0,-415.0,-3585.0,-3586.0,1939.0,1939.0
-418,-3585,1937,0,-416.0,-415.0,-3582.0,-3585.0,1938.0,1939.0
-421,-3583,1934,0,-418.0,-416.0,-3585.0,-3582.0,1937.0,1938.0
-422,-3581,1930,0,-421.0,-418.0,-3583.0,-3585.0,1934.0,1937.0
-422,-3583,1931,0,-422.0,-421.0,-3581.0,-3583.0,1930.0,1934.0
-425,-3583,1931,0,-422.0,-422.0,-3583.0,-3581.0,1931.0,1930.0
-426,-3578,1929,0,-425.0,-422.0,-3583.0,-3583.0,1931.0,1931.0
-427,-3579,1928,0,-426.0,-425.0,-3578.0,-3583.0,1929.0,1931.0
-428,-3579,1930,0,-427.0,-426.0,-3579.0,-3578.0,1928.0,1929.0
-434,-3575,1930,0,-428.0,-427.0,-3579.0,-3579.0,1930.0,1928.0
-440,-3572,1931,0,-434.0,-428.0,-3575.0,-3579.0,1930.0,1930.0
-442,-3574,1930,0,-440.0,-434.0,-3572.0,-3575.0,1931.0,1930.0
-440,-3574,1930,0,-442.0,-440.0,-3574.0,-3572.0,1930.0,1931.0
-439,-3578,1933,0,-440.0,-442.0,-3574.0,-3574.0,1930.0,1930.0
-443,-3581,1933,0,-439.0,-440.0,-3578.0,-3574.0,1933.0,1930.0
-445,-3582,1930,0,-443.0,-439.0,-3581.0,-3578.0,1933.0,1933.0
-449,-3578,1931,0,-445.0,-443.0,-3582.0,-3581.0,1930.0,1933.0
-448,-3580,1935,0,-449.0,-445.0,-3578.0,-3582.0,1931.0,1930.0
-448,-3583,1936,0,-448.0,-449.0,-3580.0,-3578.0,1935.0,1931.0
-442,-3584,1935,0,-448.0,-448.0,-3583.0,-3580.0,1936.0,1935.0
-438,-3585,1931,0,-442.0,-448.0,-3584.0,-3583.0,1935.0,1936.0
-434,-3585,1930,0,-438.0,-442.0,-3585.0,-3584.0,1931.0,1935.0
-430,-3585,1928,0,-434.0,-438.0,-3585.0,-3585.0,1930.0,1931.0
-432,-3586,1916,0,-430.0,-434.0,-3585.0,-3585.0,1928.0,1930.0
-427,-3587,1915,0,-432.0,-430.0,-3586.0,-3585.0,1916.0,1928.0
-429,-3589,1915,0,-427.0,-432.0,-3587.0,-3586.0,1915.0,1916.0
-427,-3589,1914,0,-429.0,-427.0,-3589.0,-3587.0,1915.0,1915.0
-425,-3588,1920,0,-427.0,-429.0,-3589.0,-3589.0,1914.0,1915.0
-427,-3587,1925,0,-425.0,-427.0,-3588.0,-3589.0,1920.0,1914.0
-430,-3588,1929,0,-427.0,-425.0,-3587.0,-3588.0,1925.0,1920.0
-435,-3590,1933,0,-430.0,-427.0,-3588.0,-3587.0,1929.0,1925.0
-436,-3591,1937,0,-435.0,-430.0,-3590.0,-3588.0,1933.0,1929.0
-439,-3591,1937,0,-436.0,-435.0,-3591.0,-3590.0,1937.0,1933.0
-439,-3587,1935,0,-439.0,-436.0,-3591.0,-3591.0,1937.0,1937.0
-441,-3587,1940,0,-439.0,-439.0,-3587.0,-3591.0,1935.0,1937.0
-442,-3586,1938,0,-441.0,-439.0,-3587.0,-3587.0,1940.0,1935.0
-440,-3585,1935,0,-442.0,-441.0,-3586.0,-3587.0,1938.0,1940.0
-437,-3581,1934,0,-440.0,-442.0,-3585.0,-3586.0,1935.0,1938.0
-433,-3583,1933,0,-437.0,-440.0,-3581.0,-3585.0,1934.0,1935.0
-430,-3577,1932,0,-433.0,-437.0,-3583.0,-3581.0,1933.0,1934.0
-423,-3573,1932,0,-430.0,-433.0,-3577.0,-3583.0,1932.0,1933.0
-420,-3573,1936,0,-423.0,-430.0,-3573.0,-3577.0,1932.0,1932.0
-414,-3569,1941,0,-420.0,-423.0,-3573.0,-3573.0,1936.0,1932.0
-409,-3568,1943,0,-414.0,-420.0,-3569.0,-3573.0,1941.0,1936.0
-403,-3569,1943,0,-409.0,-414.0,-3568.0,-3569.0,1943.0,1941.0
-400,-3574,1945,0,-403.0,-409.0,-3569.0,-3568.0,1943.0,1943.0
-398,-3577,1947,0,-400.0,-403.0,-3574.0,-3569.0,1945.0,1943.0
-397,-3581,1946,0,-398.0,-400.0,-3577.0,-3574.0,1947.0,1945.0
-398,-3582,1947,0,-397.0,-398.0,-3581.0,-3577.0,1946.0,1947.0
-405,-3584,1944,0,-398.0,-397.0,-3582.0,-3581.0,1947.0,1946.0
-411,-3583,1942,0,-405.0,-398.0,-3584.0,-3582.0,1944.0,1947.0
-416,-3581,1938,0,-411.0,-405.0,-3583.0,-3584.0,1942.0,1944.0
-424,-3578,1943,0,-416.0,-411.0,-3581.0,-3583.0,1938.0,1942.0
-433,-3578,1941,0,-424.0,-416.0,-3578.0,-3581.0,1943.0,1938.0
-442,-3577,1941,0,-433.0,-424.0,-3578.0,-3578.0,1941.0,1943.0
-451,-3574,1939,0,-442.0,-433.0,-3577.0,-3578.0,1941.0,1941.0
-460,-3576,1937,0,-451.0,-442.0,-3574.0,-3577.0,1939.0,1941.0
-461,-3579,1939,0,-460.0,-451.0,-3576.0,-3574.0,1937.0,1939.0
-463,-3580,1936,0,-461.0,-460.0,-3579.0,-3576.0,1939.0,1937.0
-465,-3585,1938,0,-463.0,-461.0,-3580.0,-3579.0,1936.0,1939.0
-469,-3589,1935,0,-465.0,-463.0,-3585.0,-3580.0,1938.0,1936.0
-470,-3593,1934,0,-469.0,-465.0,-3589.0,-3585.0,1935.0,1938.0
-470,-3592,1937,0,-470.0,-469.0,-3593.0,-3589.0,1934.0,1935.0
-466,-3589,1935,0,-470.0,-470.0,-3592.0,-3593.0,1937.0,1934.0
-463,-3591,1934,0,-466.0,-470.0,-3589.0,-3592.0,1935.0,1937.0
-458,-3590,1937,0,-463.0,-466.0,-3591.0,-3589.0,1934.0,1935.0
-456,-3589,1936,0,-458.0,-463.0,-3590.0,-3591.0,1937.0,1934.0
-450,-3588,1938,0,-456.0,-458.0,-3589.0,-3590.0,1936.0,1937.0
-442,-3582,1941,0,-450.0,-456.0,-3588.0,-3589.0,1938.0,1936.0
-437,-3582,1940,0,-442.0,-450.0,-3582.0,-3588.0,1941.0,1938.0
-434,-3580,1940,0,-437.0,-442.0,-3582.0,-3582.0,1940.0,1941.0
-429,-3578,1941,0,-434.0,-437.0,-3580.0,-3582.0,1940.0,1940.0
-427,-3577,1944,0,-429.0,-434.0,-3578.0,-3580.0,1941.0,1940.0
-424,-3575,1942,0,-427.0,-429.0,-3577.0,-3578.0,1944.0,1941.0
-422,-3575,1943,0,-424.0,-427.0,-3575.0,-3577.0,1942.0,1944.0
-425,-3572,1941,0,-422.0,-424.0,-3575.0,-3575.0,1943.0,1942.0
-424,-3570,1937,0,-425.0,-422.0,-3572.0,-3575.0,1941.0,1943.0
-424,-3566,1937,0,-424.0,-425.0,-3570.0,-3572.0,1937.0,1941.0
-426,-3563,1936,0,-424.0,-424.0,-3566.0,-3570.0,1937.0,1937.0
-428,-3564,1938,0,-426.0,-424.0,-3563.0,-3566.0,1936.0,1937.0
-431,-3563,1939,0,-428.0,-426.0,-3564.0,-3563.0,1938.0,1936.0
-432,-3564,1936,0,-431.0,-428.0,-3563.0,-3564.0,1939.0,1938.0
-430,-3563,1937,0,-432.0,-431.0,-3564.0,-3563.0,1936.0,1939.0
-430,-3560,1943,0,-430.0,-432.0,-3563.0,-3564.0,1937.0,1936.0
-425,-3560,1948,0,-430.0,-430.0,-3560.0,-3563.0,1943.0,1937.0
-423,-3563,1946,0,-425.0,-430.0,-3560.0,-3560.0,1948.0,1943.0
-421,-3564,1948,0,-423.0,-425.0,-3563.0,-3560.0,1946.0,1948.0
-419,-3567,1951,0,-421.0,-423.0,-3564.0,-3563.0,1948.0,1946.0
-417,-3568,1953,0,-419.0,-421.0,-3567.0,-3564.0,1951.0,1948.0
-417,-3571,1950,0,-417.0,-419.0,-3568.0,-3567.0,1953.0,1951.0
-419,-3572,1946,0,-417.0,-417.0,-3571.0,-3568.0,1950.0,1953.0
-420,-3574,1944,0,-419.0,-417.0,-3572.0,-3571.0,1946.0,1950.0
-417,-3574,1942,0,-420.0,-419.0,-3574.0,-3572.0,1944.0,1946.0
-415,-3573,1944,0,-417.0,-420.0,-3574.0,-3574.0,1942.0,1944.0
-415,-3573,1945,0,-415.0,-417.0,-3573.0,-3574.0,1944.0,1942.0
-410,-3573,1947,0,-415.0,-415.0,-3573.0,-3573.0,1945.0,1944.0
-412,-3575,1953,0,-410.0,-415.0,-3573.0,-3573.0,1947.0,1945.0
-411,-3575,1955,0,-412.0,-410.0,-3575.0,-3573.0,1953.0,1947.0
-413,-3577,1953,0,-411.0,-412.0,-3575.0,-3575.0,1955.0,1953.0
-412,-3581,1953,0,-413.0,-411.0,-3577.0,-3575.0,1953.0,1955.0
-412,-3580,1950,0,-412.0,-413.0,-3581.0,-3577.0,1953.0,1953.0
-412,-3582,1952,0,-412.0,-412.0,-3580.0,-3581.0,1950.0,1953.0
-414,-3579,1951,0,-412.0,-412.0,-3582.0,-3580.0,1952.0,1950.0
-419,-3580,1954,0,-414.0,-412.0,-3579.0,-3582.0,1951.0,1952.0
-420,-3578,1956,0,-419.0,-414.0,-3580.0,-3579.0,1954.0,1951.0
-423,-3577,1959,0,-420.0,-419.0,-3578.0,-3580.0,1956.0,1954.0
-422,-3580,1960,0,-423.0,-420.0,-3577.0,-3578.0,1959.0,1956.0
-425,-3577,1962,0,-422.0,-423.0,-3580.0,-3577.0,1960.0,1959.0
-426,-3576,1965,0,-425.0,-422.0,-3577.0,-3580.0,1962.0,1960.0
-426,-3576,1968,0,-426.0,-425.0,-3576.0,-3577.0,1965.0,1962.0
-425,-3572,1971,0,-426.0,-426.0,-3576.0,-3576.0,1968.0,1965.0
-420,-3572,1973,0,-425.0,-426.0,-3572.0,-3576.0,1971.0,1968.0
-420,-3566,1976,0,-420.0,-425.0,-3572.0,-3572.0,1973.0,1971.0
-419,-3563,1979,0,-420.0,-420.0,-3566.0,-3572.0,1976.0,1973.0
-419,-3555,1975,0,-419.0,-420.0,-3563.0,-3566.0,1979.0,1976.0
-421,-3554,1976,0,-419.0,-419.0,-3555.0,-3563.0,1975.0,1979.0
-417,-3547,1975,0,-421.0,-419.0,-3554.0,-3555.0,1976.0,1975.0
-413,-3547,1975,0,-417.0,-421.0,-3547.0,-3554.0,1975.0,1976.0
-418,-3540,1977,0,-413.0,-417.0,-3547.0,-3547.0,1975.0,1975.0
-416,-3540,1980,0,-418.0,-413.0,-3540.0,-3547.0,1977.0,1975.0
-415,-3539,1986,0,-416.0,-418.0,-3540.0,-3540.0,1980.0,1977.0
-414,-3536,1986,0,-415.0,-416.0,-3539.0,-3540.0,1986.0,1980.0
-409,-3537,1984,0,-414.0,-415.0,-3536.0,-3539.0,1986.0,1986.0
-414,-3540,1984,0,-409.0,-414.0,-3537.0,-3536.0,1984.0,1986.0
-413,-3543,1987,0,-414.0,-409.0,-3540.0,-3537.0,1984.0,1984.0
-414,-3542,1988,0,-413.0,-414.0,-3543.0,-3540.0,1987.0,1984.0
-414,-3548,1992,0,-414.0,-413.0,-3542.0,-3543.0,1988.0,1987.0
-418,-3550,1993,0,-414.0,-414.0,-3548.0,-3542.0,1992.0,1988.0
-417,-3550,1991,0,-418.0,-414.0,-3550.0,-3548.0,1993.0,1992.0
-419,-3551,1991,0,-417.0,-418.0,-3550.0,-3550.0,1991.0,1993.0
-423,-3553,1988,0,-419.0,-417.0,-3551.0,-3550.0,1991.0,1991.0
-423,-3553,1984,0,-423.0,-419.0,-3553.0,-3551.0,1988.0,1991.0
-425,-3553,1981,0,-423.0,-423.0,-3553.0,-3553.0,1984.0,1988.0
-427,-3554,1983,0,-425.0,-423.0,-3553.0,-3553.0,1981.0,1984.0
-432,-3556,1985,0,-427.0,-425.0,-3554.0,-3553.0,1983.0,1981.0
-435,-3556,1989,0,-432.0,-427.0,-3556.0,-3554.0,1985.0,1983.0
-434,-3557,1991,0,-435.0,-432.0,-3556.0,-3556.0,1989.0,1985.0
-434,-3555,1993,0,-434.0,-435.0,-3557.0,-3556.0,1991.0,1989.0
-430,-3556,1995,0,-434.0,-434.0,-3555.0,-3557.0,1993.0,1991.0
-433,-3561,1996,0,-430.0,-434.0,-3556.0,-3555.0,1995.0,1993.0
-430,-3560,1996,0,-433.0,-430.0,-3561.0,-3556.0,1996.0,1995.0
-427,-3557,1998,0,-430.0,-433.0,-3560.0,-3561.0,1996.0,1996.0
-424,-3558,1996,0,-427.0,-430.0,-3557.0,-3560.0,1998.0,1996.0
-424,-3555,1996,0,-424.0,-427.0,-3558.0,-3557.0,1996.0,1998.0
-421,-3555,2003,0,-424.0,-424.0,-3555.0,-3558.0,1996.0,1996.0
-416,-3548,2000,0,-421.0,-424.0,-3555.0,-3555.0,2003.0,1996.0
-410,-3545,2007,0,-416.0,-421.0,-3548.0,-3555.0,2000.0,2003.0
-413,-3541,2013,0,-410.0,-416.0,-3545.0,-3548.0,2007.0,2000.0
-406,-3537,2011,0,-413.0,-410.0,-3541.0,-3545.0,2013.0,2007.0
-404,-3538,2013,0,-406.0,-413.0,-3537.0,-3541.0,2011.0,2013.0
-401,-3538,2010,0,-404.0,-406.0,-3538.0,-3537.0,2013.0,2011.0
-398,-3539,2008,0,-401.0,-404.0,-3538.0,-3538.0,2010.0,2013.0
-395,-3538,2015,0,-398.0,-401.0,-3539.0,-3538.0,2008.0,2010.0
-392,-3538,2017,0,-395.0,-398.0,-3538.0,-3539.0,2015.0,2008.0
-391,-3534,2022,0,-392.0,-395.0,-3538.0,-3538.0,2017.0,2015.0
-390,-3534,2023,0,-391.0,-392.0,-3534.0,-3538.0,2022.0,2017.0
-391,-3533,2017,0,-390.0,-391.0,-3534.0,-3534.0,2023.0,2022.0
-382,-3532,2021,0,-391.0,-390.0,-3533.0,-3534.0,2017.0,2023.0
-383,-3532,2020,0,-382.0,-391.0,-3532.0,-3533.0,2021.0,2017.0
-384,-3531,2019,0,-383.0,-382.0,-3532.0,-3532.0,2020.0,2021.0
-382,-3533,2024,0,-384.0,-383.0,-3531.0,-3532.0,2019.0,2020.0
-380,-3531,2031,0,-382.0,-384.0,-3533.0,-3531.0,2024.0,2019.0
-374,-3529,2036,0,-380.0,-382.0,-3531.0,-3533.0,2031.0,2024.0
-370,-3527,2036,0,-374.0,-380.0,-3529.0,-3531.0,2036.0,2031.0
-368,-3527,2034,0,-370.0,-374.0,-3527.0,-3529.0,2036.0,2036.0
-371,-3525,2034,0,-368.0,-370.0,-3527.0,-3527.0,2034.0,2036.0
-368,-3522,2034,0,-371.0,-368.0,-3525.0,-3527.0,2034.0,2034.0
-370,-3522,2031,0,-368.0,-371.0,-3522.0,-3525.0,2034.0,2034.0
-372,-3520,2035,0,-370.0,-368.0,-3522.0,-3522.0,2031.0,2034.0
-381,-3508,2012,0,-372.0,-370.0,-3520.0,-3522.0,2035.0,2031.0
-378,-3517,2007,0,-381.0,-372.0,-3508.0,-3520.0,2012.0,2035.0
-377,-3527,2031,0,-378.0,-381.0,-3517.0,-3508.0,2007.0,2012.0
-383,-3522,2050,0,-377.0,-378.0,-3527.0,-3517.0,2031.0,2007.0
-384,-3514,2054,0,-383.0,-377.0,-3522.0,-3527.0,2050.0,2031.0
-386,-3510,2048,0,-384.0,-383.0,-3514.0,-3522.0,2054.0,2050.0
-384,-3509,2045,0,-386.0,-384.0,-3510.0,-3514.0,2048.0,2054.0
-381,-3511,2044,0,-384.0,-386.0,-3509.0,-3510.0,2045.0,2048.0
-383,-3516,2039,0,-381.0,-384.0,-3511.0,-3509.0,2044.0,2045.0
-390,-3511,2031,0,-383.0,-381.0,-3516.0,-3511.0,2039.0,2044.0
-398,-3513,2019,0,-390.0,-383.0,-3511.0,-3516.0,2031.0,2039.0
-391,-3523,2051,0,-398.0,-390.0,-3513.0,-3511.0,2019.0,2031.0
-387,-3525,2072,0,-391.0,-398.0,-3523.0,-3513.0,2051.0,2019.0
-387,-3519,2072,0,-387.0,-391.0,-3525.0,-3523.0,2072.0,2051.0
-386,-3517,2069,0,-387.0,-387.0,-3519.0,-3525.0,2072.0,2072.0
-381,-3520,2067,0,-386.0,-387.0,-3517.0,-3519.0,2069.0,2072.0
-378,-3519,2066,0,-381.0,-386.0,-3520.0,-3517.0,2067.0,2069.0
-375,-3522,2065,0,-378.0,-381.0,-3519.0,-3520.0,2066.0,2067.0
-375,-3526,2062,0,-375.0,-378.0,-3522.0,-3519.0,2065.0,2066.0
-378,-3526,2065,0,-375.0,-375.0,-3526.0,-3522.0,2062.0,2065.0
-378,-3527,2065,0,-378.0,-375.0,-3526.0,-3526.0,2065.0,2062.0
-373,-3532,2065,0,-378.0,-378.0,-3527.0,-3526.0,2065.0,2065.0
-377,-3534,2066,0,-373.0,-378.0,-3532.0,-3527.0,2065.0,2065.0
-381,-3517,2042,0,-377.0,-373.0,-3534.0,-3532.0,2066.0,2065.0
-378,-3531,2048,0,-381.0,-377.0,-3517.0,-3534.0,2042.0,2066.0
-369,-3539,2077,0,-378.0,-381.0,-3531.0,-3517.0,2048.0,2042.0
-365,-3526,2087,0,-369.0,-378.0,-3539.0,-3531.0,2077.0,2048.0
-363,-3508,2080,0,-365.0,-369.0,-3526.0,-3539.0,2087.0,2077.0
-356,-3497,2080,0,-363.0,-365.0,-3508.0,-3526.0,2080.0,2087.0
-352,-3483,2081,0,-356.0,-363.0,-3497.0,-3508.0,2080.0,2080.0
-349,-3479,2077,0,-352.0,-356.0,-3483.0,-3497.0,2081.0,2080.0
-348,-3477,2075,0,-349.0,-352.0,-3479.0,-3483.0,2077.0,2081.0
-347,-3476,2070,0,-348.0,-349.0,-3477.0,-3479.0,2075.0,2077.0
-348,-3475,2067,0,-347.0,-348.0,-3476.0,-3477.0,2070.0,2075.0
-349,-3478,2065,0,-348.0,-347.0,-3475.0,-3476.0,2067.0,2070.0
-351,-3486,2061,0,-349.0,-348.0,-3478.0,-3475.0,2065.0,2067.0
-353,-3490,2059,0,-351.0,-349.0,-3486.0,-3478.0,2061.0,2065.0
-358,-3492,2060,0,-353.0,-351.0,-3490.0,-3486.0,2059.0,2061.0
-363,-3494,2060,0,-358.0,-353.0,-3492.0,-3490.0,2060.0,2059.0
-367,-3501,2063,0,-363.0,-358.0,-3494.0,-3492.0,2060.0,2060.0
-368,-3508,2063,0,-367.0,-363.0,-3501.0,-3494.0,2063.0,2060.0
-369,-3512,2069,0,-368.0,-367.0,-3508.0,-3501.0,2063.0,2063.0
-374,-3512,2068,0,-369.0,-368.0,-3512.0,-3508.0,2069.0,2063.0
-377,-3516,2072,0,-374.0,-369.0,-3512.0,-3512.0,2068.0,2069.0
-375,-3517,2070,0,-377.0,-374.0,-3516.0,-3512.0,2072.0,2068.0
-376,-3519,2074,0,-375.0,-377.0,-3517.0,-3516.0,2070.0,2072.0
-373,-3515,2073,0,-376.0,-375.0,-3519.0,-3517.0,2074.0,2070.0
-372,-3510,2070,0,-373.0,-376.0,-3515.0,-3519.0,2073.0,2074.0
-370,-3512,2069,0,-372.0,-373.0,-3510.0,-3515.0,2070.0,2073.0
-364,-3510,2070,0,-370.0,-372.0,-3512.0,-3510.0,2069.0,2070.0
-360,-3508,2067,0,-364.0,-370.0,-3510.0,-3512.0,2070.0,2069.0
-357,-3506,2062,0,-360.0,-364.0,-3508.0,-3510.0,2067.0,2070.0
-355,-3504,2060,0,-357.0,-360.0,-3506.0,-3508.0,2062.0,2067.0
-356,-3504,2055,0,-355.0,-357.0,-3504.0,-3506.0,2060.0,2062.0
-355,-3499,2057,0,-356.0,-355.0,-3504.0,-3504.0,2055.0,2060.0
-355,-3495,2058,0,-355.0,-356.0,-3499.0,-3504.0,2057.0,2055.0
-352,-3492,2061,0,-355.0,-355.0,-3495.0,-3499.0,2058.0,2057.0
-352,-3496,2064,0,-352.0,-355.0,-3492.0,-3495.0,2061.0,2058.0
-354,-3499,2064,0,-352.0,-352.0,-3496.0,-3492.0,2064.0,2061.0
-351,-3504,2060,0,-354.0,-352.0,-3499.0,-3496.0,2064.0,2064.0
-354,-3503,2060,0,-351.0,-354.0,-3504.0,-3499.0,2060.0,2064.0
-360,-3505,2057,0,-354.0,-351.0,-3503.0,-3504.0,2060.0,2060.0
-371,-3504,2054,0,-360.0,-354.0,-3505.0,-3503.0,2057.0,2060.0
-377,-3505,2054,0,-371.0,-360.0,-3504.0,-3505.0,2054.0,2057.0
-389,-3510,2057,0,-377.0,-371.0,-3505.0,-3504.0,2054.0,2054.0
-398,-3514,2057,0,-389.0,-377.0,-3510.0,-3505.0,2057.0,2054.0
-403,-3519,2054,0,-398.0,-389.0,-3514.0,-3510.0,2057.0,2057.0
-409,-3523,2056,0,-403.0,-398.0,-3519.0,-3514.0,2054.0,2057.0
-411,-3530,2055,0,-409.0,-403.0,-3523.0,-3519.0,2056.0,2054.0
-418,-3531,2055,0,-411.0,-409.0,-3530.0,-3523.0,2055.0,2056.0
-427,-3537,2055,0,-418.0,-411.0,-3531.0,-3530.0,2055.0,2055.0
-428,-3539,2052,0,-427.0,-418.0,-3537.0,-3531.0,2055.0,2055.0
-429,-3540,2047,0,-428.0,-427.0,-3539.0,-3537.0,2052.0,2055.0
-432,-3541,2047,0,-429.0,-428.0,-3540.0,-3539.0,2047.0,2052.0
-433,-3543,2048,0,-432.0,-429.0,-3541.0,-3540.0,2047.0,2047.0
-435,-3543,2048,0,-433.0,-432.0,-3543.0,-3541.0,2048.0,2047.0
-431,-3545,2050,0,-435.0,-433.0,-3543.0,-3543.0,2048.0,2048.0
-429,-3541,2050,0,-431.0,-435.0,-3545.0,-3543.0,2050.0,2048.0
-425,-3537,2051,0,-429.0,-431.0,-3541.0,-3545.0,2050.0,2050.0
-421,-3536,2052,0,-425.0,-429.0,-3537.0,-3541.0,2051.0,2050.0
-415,-3532,2052,0,-421.0,-425.0,-3536.0,-3537.0,2052.0,2051.0
-412,-3529,2051,0,-415.0,-421.0,-3532.0,-3536.0,2052.0,2052.0
-406,-3527,2049,0,-412.0,-415.0,-3529.0,-3532.0,2051.0,2052.0
-404,-3524,2047,0,-406.0,-412.0,-3527.0,-3529.0,2049.0,2051.0
-403,-3520,2044,0,-404.0,-406.0,-3524.0,-3527.0,2047.0,2049.0
-399,-3514,2043,0,-403.0,-404.0,-3520.0,-3524.0,2044.0,2047.0
-401,-3511,2043,0,-399.0,-403.0,-3514.0,-3520.0,2043.0,2044.0
-395,-3509,2042,0,-401.0,-399.0,-3511.0,-3514.0,2043.0,2043.0
-392,-3507,2042,0,-395.0,-401.0,-3509.0,-3511.0,2042.0,2043.0
-387,-3512,2042,0,-392.0,-395.0,-3507.0,-3509.0,2042.0,2042.0
-386,-3513,2039,0,-387.0,-392.0,-3512.0,-3507.0,2042.0,2042.0
-383,-3511,2038,0,-386.0,-387.0,-3513.0,-3512.0,2039.0,2042.0
-379,-3512,2035,0,-383.0,-386.0,-3511.0,-3513.0,2038.0,2039.0
-378,-3515,2034,0,-379.0,-383.0,-3512.0,-3511.0,2035.0,2038.0
-380,-3515,2034,0,-378.0,-379.0,-3515.0,-3512.0,2034.0,2035.0
-372,-3518,2037,0,-380.0,-378.0,-3515.0,-3515.0,2034.0,2034.0
-370,-3518,2033,0,-372.0,-380.0,-3518.0,-3515.0,2037.0,2034.0
-366,-3521,2033,0,-370.0,-372.0,-3518.0,-3518.0,2033.0,2037.0
-368,-3523,2032,0,-366.0,-370.0,-3521.0,-3518.0,2033.0,2033.0
-368,-3526,2029,0,-368.0,-366.0,-3523.0,-3521.0,2032.0,2033.0
-366,-3532,2026,0,-368.0,-368.0,-3526.0,-3523.0,2029.0,2032.0
-363,-3531,2022,0,-366.0,-368.0,-3532.0,-3526.0,2026.0,2029.0
-364,-3530,2023,0,-363.0,-366.0,-3531.0,-3532.0,2022.0,2026.0
-368,-3531,2024,0,-364.0,-363.0,-3530.0,-3531.0,2023.0,2022.0
-372,-3531,2025,0,-368.0,-364.0,-3531.0,-3530.0,2024.0,2023.0
-376,-3534,2023,0,-372.0,-368.0,-3531.0,-3531.0,2025.0,2024.0
-382,-3536,2025,0,-376.0,-372.0,-3534.0,-3531.0,2023.0,2025.0
-388,-3537,2031,0,-382.0,-376.0,-3536.0,-3534.0,2025.0,2023.0
-391,-3537,2029,0,-388.0,-382.0,-3537.0,-3536.0,2031.0,2025.0
-392,-3540,2032,0,-391.0,-388.0,-3537.0,-3537.0,2029.0,2031.0
-399,-3538,2030,0,-392.0,-391.0,-3540.0,-3537.0,2032.0,2029.0
-403,-3537,2029,0,-399.0,-392.0,-3538.0,-3540.0,2030.0,2032.0
-408,-3535,2026,0,-403.0,-399.0,-3537.0,-3538.0,2029.0,2030.0
-409,-3536,2026,0,-408.0,-403.0,-3535.0,-3537.0,2026.0,2029.0
-409,-3536,2027,0,-409.0,-408.0,-3536.0,-3535.0,2026.0,2026.0
-407,-3534,2030,0,-409.0,-409.0,-3536.0,-3536.0,2027.0,2026.0
-408,-3535,2034,0,-407.0,-409.0,-3534.0,-3536.0,2030.0,2027.0
-406,-3537,2034,0,-408.0,-407.0,-3535.0,-3534.0,2034.0,2030.0
-401,-3532,2042,0,-406.0,-408.0,-3537.0,-3535.0,2034.0,2034.0
-395,-3531,2045,0,-401.0,-406.0,-3532.0,-3537.0,2042.0,2034.0
-387,-3531,2049,0,-395.0,-401.0,-3531.0,-3532.0,2045.0,2042.0
-383,-3524,2050,0,-387.0,-395.0,-3531.0,-3531.0,2049.0,2045.0
-376,-3525,2046,0,-383.0,-387.0,-3524.0,-3531.0,2050.0,2049.0
-375,-3519,2046,0,-376.0,-383.0,-3525.0,-3524.0,2046.0,2050.0
-371,-3516,2047,0,-375.0,-376.0,-3519.0,-3525.0,2046.0,2046.0
-370,-3514,2051,0,-371.0,-375.0,-3516.0,-3519.0,2047.0,2046.0
-368,-3510,2050,0,-370.0,-371.0,-3514.0,-3516.0,2051.0,2047.0
-371,-3513,2049,0,-368.0,-370.0,-3510.0,-3514.0,2050.0,2051.0
-376,-3510,2045,0,-371.0,-368.0,-3513.0,-3510.0,2049.0,2050.0
-381,-3509,2045,0,-376.0,-371.0,-3510.0,-3513.0,2045.0,2049.0
-384,-3510,2044,0,-381.0,-376.0,-3509.0,-3510.0,2045.0,2045.0
-389,-3515,2036,0,-384.0,-381.0,-3510.0,-3509.0,2044.0,2045.0
-393,-3518,2035,0,-389.0,-384.0,-3515.0,-3510.0,2036.0,2044.0
-396,-3522,2036,0,-393.0,-389.0,-3518.0,-3515.0,2035.0,2036.0
-400,-3524,2033,0,-396.0,-393.0,-3522.0,-3518.0,2036.0,2035.0
-403,-3526,2036,0,-400.0,-396.0,-3524.0,-3522.0,2033.0,2036.0
-406,-3528,2035,0,-403.0,-400.0,-3526.0,-3524.0,2036.0,2033.0
-410,-3533,2030,0,-406.0,-403.0,-3528.0,-3526.0,2035.0,2036.0
-412,-3534,2027,0,-410.0,-406.0,-3533.0,-3528.0,2030.0,2035.0
-417,-3534,2026,0,-412.0,-410.0,-3534.0,-3533.0,2027.0,2030.0
-419,-3538,2029,0,-417.0,-412.0,-3534.0,-3534.0,2026.0,2027.0
-422,-3537,2029,0,-419.0,-417.0,-3538.0,-3534.0,2029.0,2026.0
-420,-3538,2026,0,-422.0,-419.0,-3537.0,-3538.0,2029.0,2029.0
-424,-3542,2022,0,-420.0,-422.0,-3538.0,-3537.0,2026.0,2029.0
-424,-3544,2021,0,-424.0,-420.0,-3542.0,-3538.0,2022.0,2026.0
-424,-3541,2016,0,-424.0,-424.0,-3544.0,-3542.0,2021.0,2022.0
-422,-3541,2014,0,-424.0,-424.0,-3541.0,-3544.0,2016.0,2021.0
-419,-3538,2016,0,-422.0,-424.0,-3541.0,-3541.0,2014.0,2016.0
-419,-3537,2017,0,-419.0,-422.0,-3538.0,-3541.0,2016.0,2014.0
-421,-3540,2022,0,-419.0,-419.0,-3537.0,-3538.0,2017.0,2016.0
-419,-3538,2019,0,-421.0,-419.0,-3540.0,-3537.0,2022.0,2017.0
-415,-3534,2019,0,-419.0,-421.0,-3538.0,-3540.0,2019.0,2022.0
-412,-3533,2017,0,-415.0,-419.0,-3534.0,-3538.0,2019.0,2019.0
-408,-3530,2020,0,-412.0,-415.0,-3533.0,-3534.0,2017.0,2019.0
-406,-3527,2024,0,-408.0,-412.0,-3530.0,-3533.0,2020.0,2017.0
-401,-3528,2025,0,-406.0,-408.0,-3527.0,-3530.0,2024.0,2020.0
-400,-3527,2026,0,-401.0,-406.0,-3528.0,-3527.0,2025.0,2024.0
-398,-3527,2027,0,-400.0,-401.0,-3527.0,-3528.0,2026.0,2025.0
-397,-3526,2030,0,-398.0,-400.0,-3527.0,-3527.0,2027.0,2026.0
-394,-3527,2030,0,-397.0,-398.0,-3526.0,-3527.0,2030.0,2027.0
-397,-3527,2024,0,-394.0,-397.0,-3527.0,-3526.0,2030.0,2030.0
-394,-3529,2019,0,-397.0,-394.0,-3527.0,-3527.0,2024.0,2030.0
-398,-3528,2023,0,-394.0,-397.0,-3529.0,-3527.0,2019.0,2024.0
-396,-3528,2025,0,-398.0,-394.0,-3528.0,-3529.0,2023.0,2019.0
-396,-3529,2022,0,-396.0,-398.0,-3528.0,-3528.0,2025.0,2023.0
-395,-3529,2023,0,-396.0,-396.0,-3529.0,-3528.0,2022.0,2025.0
-394,-3528,2021,0,-395.0,-396.0,-3529.0,-3529.0,2023.0,2022.0
-394,-3530,2020,0,-394.0,-395.0,-3528.0,-3529.0,2021.0,2023.0
-391,-3530,2018,0,-394.0,-394.0,-3530.0,-3528.0,2020.0,2021.0
-389,-3531,2018,0,-391.0,-394.0,-3530.0,-3530.0,2018.0,2020.0
-393,-3532,2015,0,-389.0,-391.0,-3531.0,-3530.0,2018.0,2018.0
-390,-3531,2017,0,-393.0,-389.0,-3532.0,-3531.0,2015.0,2018.0
-387,-3532,2018,0,-390.0,-393.0,-3531.0,-3532.0,2017.0,2015.0
-393,-3537,2017,0,-387.0,-390.0,-3532.0,-3531.0,2018.0,2017.0
-394,-3537,2015,0,-393.0,-387.0,-3537.0,-3532.0,2017.0,2018.0
-394,-3542,2013,0,-394.0,-393.0,-3537.0,-3537.0,2015.0,2017.0
-391,-3547,2008,0,-394.0,-394.0,-3542.0,-3537.0,2013.0,2015.0
-391,-3546,2009,0,-391.0,-394.0,-3547.0,-3542.0,2008.0,2013.0
-389,-3549,2008,0,-391.0,-391.0,-3546.0,-3547.0,2009.0,2008.0
-392,-3549,2011,0,-389.0,-391.0,-3549.0,-3546.0,2008.0,2009.0
-391,-3551,2010,0,-392.0,-389.0,-3549.0,-3549.0,2011.0,2008.0
-393,-3555,2007,0,-391.0,-392.0,-3551.0,-3549.0,2010.0,2011.0
-397,-3553,2007,0,-393.0,-391.0,-3555.0,-3551.0,2007.0,2010.0
-393,-3552,2010,0,-397.0,-393.0,-3553.0,-3555.0,2007.0,2007.0
-392,-3554,2012,0,-393.0,-397.0,-3552.0,-3553.0,2010.0,2007.0
-394,-3556,2013,0,-392.0,-393.0,-3554.0,-3552.0,2012.0,2010.0
-396,-3556,2013,0,-394.0,-392.0,-3556.0,-3554.0,2013.0,2012.0
-397,-3554,2013,0,-396.0,-394.0,-3556.0,-3556.0,2013.0,2013.0
-399,-3552,2013,0,-397.0,-396.0,-3554.0,-3556.0,2013.0,2013.0
-404,-3549,2012,0,-399.0,-397.0,-3552.0,-3554.0,2013.0,2013.0
-406,-3546,2012,0,-404.0,-399.0,-3549.0,-3552.0,2012.0,2013.0
-403,-3547,2013,0,-406.0,-404.0,-3546.0,-3549.0,2012.0,2012.0
-406,-3545,2009,0,-403.0,-406.0,-3547.0,-3546.0,2013.0,2012.0
-407,-3544,2010,0,-406.0,-403.0,-3545.0,-3547.0,2009.0,2013.0
-409,-3544,2013,0,-407.0,-406.0,-3544.0,-3545.0,2010.0,2009.0
-411,-3541,2016,0,-409.0,-407.0,-3544.0,-3544.0,2013.0,2010.0
-411,-3542,2020,0,-411.0,-409.0,-3541.0,-3544.0,2016.0,2013.0
-408,-3537,2022,0,-411.0,-411.0,-3542.0,-3541.0,2020.0,2016.0
-408,-3534,2026,0,-408.0,-411.0,-3537.0,-3542.0,2022.0,2020.0
-402,-3532,2026,0,-408.0,-408.0,-3534.0,-3537.0,2026.0,2022.0
-402,-3532,2022,0,-402.0,-408.0,-3532.0,-3534.0,2026.0,2026.0
-399,-3531,2020,0,-402.0,-402.0,-3532.0,-3532.0,2022.0,2026.0
-398,-3530,2016,0,-399.0,-402.0,-3531.0,-3532.0,2020.0,2022.0
-398,-3529,2018,0,-398.0,-399.0,-3530.0,-3531.0,2016.0,2020.0
-398,-3529,2016,0,-398.0,-398.0,-3529.0,-3530.0,2018.0,2016.0
-396,-3529,2021,0,-398.0,-398.0,-3529.0,-3529.0,2016.0,2018.0
-397,-3528,2024,0,-396.0,-398.0,-3529.0,-3529.0,2021.0,2016.0
-398,-3527,2027,0,-397.0,-396.0,-3528.0,-3529.0,2024.0,2021.0
-396,-3530,2031,0,-398.0,-397.0,-3527.0,-3528.0,2027.0,2024.0
-396,-3533,2029,0,-396.0,-398.0,-3530.0,-3527.0,2031.0,2027.0
-398,-3533,2028,0,-396.0,-396.0,-3533.0,-3530.0,2029.0,2031.0
-399,-3534,2025,0,-398.0,-396.0,-3533.0,-3533.0,2028.0,2029.0
-401,-3533,2023,0,-399.0,-398.0,-3534.0,-3533.0,2025.0,2028.0
-400,-3530,2020,0,-401.0,-399.0,-3533.0,-3534.0,2023.0,2025.0
-402,-3531,2021,0,-400.0,-401.0,-3530.0,-3533.0,2020.0,2023.0
-404,-3531,2021,0,-402.0,-400.0,-3531.0,-3530.0,2021.0,2020.0
-405,-3528,2017,0,-404.0,-402.0,-3531.0,-3531.0,2021.0,2021.0
-404,-3529,2016,0,-405.0,-404.0,-3528.0,-3531.0,2017.0,2021.0
-403,-3531,2014,0,-404.0,-405.0,-3529.0,-3528.0,2016.0,2017.0
-398,-3531,2011,0,-403.0,-404.0,-3531.0,-3529.0,2014.0,2016.0
-398,-3533,2009,0,-398.0,-403.0,-3531.0,-3531.0,2011.0,2014.0
-398,-3538,2005,0,-398.0,-398.0,-3533.0,-3531.0,2009.0,2011.0
-392,-3537,2002,0,-398.0,-398.0,-3538.0,-3533.0,2005.0,2009.0
-392,-3539,2006,0,-392.0,-398.0,-3537.0,-3538.0,2002.0,2005.0
-391,-3539,2003,0,-392.0,-392.0,-3539.0,-3537.0,2006.0,2002.0
-393,-3539,2000,0,-391.0,-392.0,-3539.0,-3539.0,2003.0,2006.0
-397,-3542,2003,0,-393.0,-391.0,-3539.0,-3539.0,2000.0,2003.0
-403,-3544,2003,0,-397.0,-393.0,-3542.0,-3539.0,2003.0,2000.0
-402,-3546,2010,0,-403.0,-397.0,-3544.0,-3542.0,2003.0,2003.0
-408,-3547,2015,0,-402.0,-403.0,-3546.0,-3544.0,2010.0,2003.0
-415,-3553,2014,0,-408.0,-402.0,-3547.0,-3546.0,2015.0,2010.0
-416,-3551,2017,0,-415.0,-408.0,-3553.0,-3547.0,2014.0,2015.0
-417,-3548,2017,0,-416.0,-415.0,-3551.0,-3553.0,2017.0,2014.0
-421,-3547,2017,0,-417.0,-416.0,-3548.0,-3551.0,2017.0,2017.0
-419,-3547,2018,0,-421.0,-417.0,-3547.0,-3548.0,2017.0,2017.0
-420,-3545,2013,0,-419.0,-421.0,-3547.0,-3547.0,2018.0,2017.0
-420,-3544,2009,0,-420.0,-419.0,-3545.0,-3547.0,2013.0,2018.0
-413,-3545,2008,0,-420.0,-420.0,-3544.0,-3545.0,2009.0,2013.0
-408,-3541,2003,0,-413.0,-420.0,-3545.0,-3544.0,2008.0,2009.0
-403,-3538,2005,0,-408.0,-413.0,-3541.0,-3545.0,2003.0,2008.0
-396,-3535,2009,0,-403.0,-408.0,-3538.0,-3541.0,2005.0,2003.0
-388,-3531,2007,0,-396.0,-403.0,-3535.0,-3538.0,2009.0,2005.0
-380,-3528,2006,0,-388.0,-396.0,-3531.0,-3535.0,2007.0,2009.0
-374,-3527,2013,0,-380.0,-388.0,-3528.0,-3531.0,2006.0,2007.0
-367,-3528,2014,0,-374.0,-380.0,-3527.0,-3528.0,2013.0,2006.0
-366,-3533,2013,0,-367.0,-374.0,-3528.0,-3527.0,2014.0,2013.0
-362,-3534,2014,0,-366.0,-367.0,-3533.0,-3528.0,2013.0,2014.0
-363,-3538,2014,0,-362.0,-366.0,-3534.0,-3533.0,2014.0,2013.0
-359,-3545,2012,0,-363.0,-362.0,-3538.0,-3534.0,2014.0,2014.0
-363,-3549,2005,0,-359.0,-363.0,-3545.0,-3538.0,2012.0,2014.0
-372,-3549,2002,0,-363.0,-359.0,-3549.0,-3545.0,2005.0,2012.0
-379,-3553,2002,0,-372.0,-363.0,-3549.0,-3549.0,2002.0,2005.0
-384,-3552,2000,0,-379.0,-372.0,-3553.0,-3549.0,2002.0,2002.0
-394,-3553,1999,0,-384.0,-379.0,-3552.0,-3553.0,2000.0,2002.0
-406,-3551,1996,0,-394.0,-384.0,-3553.0,-3552.0,1999.0,2000.0
-415,-3552,1996,0,-406.0,-394.0,-3551.0,-3553.0,1996.0,1999.0
-423,-3549,1992,0,-415.0,-406.0,-3552.0,-3551.0,1996.0,1996.0
-430,-3554,1989,0,-423.0,-415.0,-3549.0,-3552.0,1992.0,1996.0
-434,-3558,1990,0,-430.0,-423.0,-3554.0,-3549.0,1989.0,1992.0
-437,-3560,1988,0,-434.0,-430.0,-3558.0,-3554.0,1990.0,1989.0
-439,-3561,1985,0,-437.0,-434.0,-3560.0,-3558.0,1988.0,1990.0
-443,-3561,1986,0,-439.0,-437.0,-3561.0,-3560.0,1985.0,1988.0
-444,-3562,1985,0,-443.0,-439.0,-3561.0,-3561.0,1986.0,1985.0
-444,-3562,1990,0,-444.0,-443.0,-3562.0,-3561.0,1985.0,1986.0
-439,-3562,1989,0,-444.0,-444.0,-3562.0,-3562.0,1990.0,1985.0
-439,-3565,1986,0,-439.0,-444.0,-3562.0,-3562.0,1989.0,1990.0
-435,-3566,1983,0,-439.0,-439.0,-3565.0,-3562.0,1986.0,1989.0
-430,-3566,1983,0,-435.0,-439.0,-3566.0,-3565.0,1983.0,1986.0
-424,-3566,1983,0,-430.0,-435.0,-3566.0,-3566.0,1983.0,1983.0
-423,-3562,1983,0,-424.0,-430.0,-3566.0,-3566.0,1983.0,1983.0
-420,-3560,1979,0,-423.0,-424.0,-3562.0,-3566.0,1983.0,1983.0
-420,-3557,1986,0,-420.0,-423.0,-3560.0,-3562.0,1979.0,1983.0
-414,-3551,1991,0,-420.0,-420.0,-3557.0,-3560.0,1986.0,1979.0
-410,-3551,1995,0,-414.0,-420.0,-3551.0,-3557.0,1991.0,1986.0
-410,-3550,1996,0,-410.0,-414.0,-3551.0,-3551.0,1995.0,1991.0
-408,-3546,1997,0,-410.0,-410.0,-3550.0,-3551.0,1996.0,1995.0
-406,-3542,1994,0,-408.0,-410.0,-3546.0,-3550.0,1997.0,1996.0
-406,-3543,1992,0,-406.0,-408.0,-3542.0,-3546.0,1994.0,1997.0
-404,-3541,1987,0,-406.0,-406.0,-3543.0,-3542.0,1992.0,1994.0
-403,-3535,1988,0,-404.0,-406.0,-3541.0,-3543.0,1987.0,1992.0
-405,-3532,1986,0,-403.0,-404.0,-3535.0,-3541.0,1988.0,1987.0
-403,-3532,1985,0,-405.0,-403.0,-3532.0,-3535.0,1986.0,1988.0
-403,-3534,1985,0,-403.0,-405.0,-3532.0,-3532.0,1985.0,1986.0
-402,-3534,1991,0,-403.0,-403.0,-3534.0,-3532.0,1985.0,1985.0
-401,-3533,1991,0,-402.0,-403.0,-3534.0,-3534.0,1991.0,1985.0
-404,-3535,1990,0,-401.0,-402.0,-3533.0,-3534.0,1991.0,1991.0
-403,-3537,1989,0,-404.0,-401.0,-3535.0,-3533.0,1990.0,1991.0
-407,-3537,1989,0,-403.0,-404.0,-3537.0,-3535.0,1989.0,1990.0
-402,-3540,1992,0,-407.0,-403.0,-3537.0,-3537.0,1989.0,1989.0
-404,-3545,1995,0,-402.0,-407.0,-3540.0,-3537.0,1992.0,1989.0
-402,-3549,1995,0,-404.0,-402.0,-3545.0,-3540.0,1995.0,1992.0
-403,-3553,1993,0,-402.0,-404.0,-3549.0,-3545.0,1995.0,1995.0
-403,-3557,1991,0,-403.0,-402.0,-3553.0,-3549.0,1993.0,1995.0
-406,-3559,1989,0,-403.0,-403.0,-3557.0,-3553.0,1991.0,1993.0
-414,-3560,1984,0,-406.0,-403.0,-3559.0,-3557.0,1989.0,1991.0
-415,-3562,1985,0,-414.0,-406.0,-3560.0,-3559.0,1984.0,1989.0
-418,-3562,1990,0,-415.0,-414.0,-3562.0,-3560.0,1985.0,1984.0
-421,-3564,1988,0,-418.0,-415.0,-3562.0,-3562.0,1990.0,1985.0
-422,-3567,1986,0,-421.0,-418.0,-3564.0,-3562.0,1988.0,1990.0
-423,-3569,1987,0,-422.0,-421.0,-3567.0,-3564.0,1986.0,1988.0
-425,-3570,1988,0,-423.0,-422.0,-3569.0,-3567.0,1987.0,1986.0
-425,-3569,1988,0,-425.0,-423.0,-3570.0,-3569.0,1988.0,1987.0
-425,-3566,1989,0,-425.0,-425.0,-3569.0,-3570.0,1988.0,1988.0
-424,-3563,1991,0,-425.0,-425.0,-3566.0,-3569.0,1989.0,1988.0
-424,-3561,1991,0,-424.0,-425.0,-3563.0,-3566.0,1991.0,1989.0
-424,-3559,1991,0,-424.0,-424.0,-3561.0,-3563.0,1991.0,1991.0
-423,-3557,1990,0,-424.0,-424.0,-3559.0,-3561.0,1991.0,1991.0
-417,-3558,1993,0,-423.0,-424.0,-3557.0,-3559.0,1990.0,1991.0
-413,-3557,1995,0,-417.0,-423.0,-3558.0,-3557.0,1993.0,1990.0
-411,-3553,1997,0,-413.0,-417.0,-3557.0,-3558.0,1995.0,1993.0
-408,-3549,2001,0,-411.0,-413.0,-3553.0,-3557.0,1997.0,1995.0
-405,-3548,2002,0,-408.0,-411.0,-3549.0,-3553.0,2001.0,1997.0
-402,-3548,1999,0,-405.0,-408.0,-3548.0,-3549.0,2002.0,2001.0
-402,-3543,1997,0,-402.0,-405.0,-3548.0,-3548.0,1999.0,2002.0
-400,-3540,1997,0,-402.0,-402.0,-3543.0,-3548.0,1997.0,1999.0
-401,-3537,1995,0,-400.0,-402.0,-3540.0,-3543.0,1997.0,1997.0
-400,-3533,1991,0,-401.0,-400.0,-3537.0,-3540.0,1995.0,1997.0
-400,-3534,1993,0,-400.0,-401.0,-3533.0,-3537.0,1991.0,1995.0
-401,-3532,1993,0,-400.0,-400.0,-3534.0,-3533.0,1993.0,1991.0
-404,-3534,1988,0,-401.0,-400.0,-3532.0,-3534.0,1993.0,1993.0
-408,-3537,1986,0,-404.0,-401.0,-3534.0,-3532.0,1988.0,1993.0
-408,-3535,1980,0,-408.0,-404.0,-3537.0,-3534.0,1986.0,1988.0
-407,-3535,1983,0,-408.0,-408.0,-3535.0,-3537.0,1980.0,1986.0
-408,-3537,1988,0,-407.0,-408.0,-3535.0,-3535.0,1983.0,1980.0
-411,-3541,1990,0,-408.0,-407.0,-3537.0,-3535.0,1988.0,1983.0
-414,-3542,1988,0,-411.0,-408.0,-3541.0,-3537.0,1990.0,1988.0
-419,-3550,1992,0,-414.0,-411.0,-3542.0,-3541.0,1988.0,1990.0
-423,-3553,1986,0,-419.0,-414.0,-3550.0,-3542.0,1992.0,1988.0
-424,-3557,1984,0,-423.0,-419.0,-3553.0,-3550.0,1986.0,1992.0
-423,-3563,1979,0,-424.0,-423.0,-3557.0,-3553.0,1984.0,1986.0
-421,-3565,1975,0,-423.0,-424.0,-3563.0,-3557.0,1979.0,1984.0
-423,-3567,1972,0,-421.0,-423.0,-3565.0,-3563.0,1975.0,1979.0
-429,-3570,1969,0,-423.0,-421.0,-3567.0,-3565.0,1972.0,1975.0
-436,-3572,1964,0,-429.0,-423.0,-3570.0,-3567.0,1969.0,1972.0
-439,-3576,1959,0,-436.0,-429.0,-3572.0,-3570.0,1964.0,1969.0
-445,-3575,1959,0,-439.0,-436.0,-3576.0,-3572.0,1959.0,1964.0
-449,-3580,1956,0,-445.0,-439.0,-3575.0,-3576.0,1959.0,1959.0
-449,-3585,1960,0,-449.0,-445.0,-3580.0,-3575.0,1956.0,1959.0
-444,-3586,1963,0,-449.0,-449.0,-3585.0,-3580.0,1960.0,1956.0
-442,-3585,1963,0,-444.0,-449.0,-3586.0,-3585.0,1963.0,1960.0
-437,-3582,1960,0,-442.0,-444.0,-3585.0,-3586.0,1963.0,1963.0
-432,-3580,1960,0,-437.0,-442.0,-3582.0,-3585.0,1960.0,1963.0
-428,-3574,1958,0,-432.0,-437.0,-3580.0,-3582.0,1960.0,1960.0
-424,-3571,1954,0,-428.0,-432.0,-3574.0,-3580.0,1958.0,1960.0
-423,-3567,1956,0,-424.0,-428.0,-3571.0,-3574.0,1954.0,1958.0
-418,-3566,1958,0,-423.0,-424.0,-3567.0,-3571.0,1956.0,1954.0
-419,-3562,1957,0,-418.0,-423.0,-3566.0,-3567.0,1958.0,1956.0
-418,-3561,1958,0,-419.0,-418.0,-3562.0,-3566.0,1957.0,1958.0
-417,-3562,1962,0,-418.0,-419.0,-3561.0,-3562.0,1958.0,1957.0
-418,-3563,1961,0,-417.0,-418.0,-3562.0,-3561.0,1962.0,1958.0
-420,-3559,1963,0,-418.0,-417.0,-3563.0,-3562.0,1961.0,1962.0
-418,-3561,1966,0,-420.0,-418.0,-3559.0,-3563.0,1963.0,1961.0
-421,-3559,1966,0,-418.0,-420.0,-3561.0,-3559.0,1966.0,1963.0
-417,-3562,1964,0,-421.0,-418.0,-3559.0,-3561.0,1966.0,1966.0
-420,-3560,1966,0,-417.0,-421.0,-3562.0,-3559.0,1964.0,1966.0
-421,-3562,1966,0,-420.0,-417.0,-3560.0,-3562.0,1966.0,1964.0
-420,-3561,1965,0,-421.0,-420.0,-3562.0,-3560.0,1966.0,1966.0
-419,-3561,1967,0,-420.0,-421.0,-3561.0,-3562.0,1965.0,1966.0
-417,-3563,1965,0,-419.0,-420.0,-3561.0,-3561.0,1967.0,1965.0
-416,-3562,1966,0,-417.0,-419.0,-3563.0,-3561.0,1965.0,1967.0
-416,-3562,1969,0,-416.0,-417.0,-3562.0,-3563.0,1966.0,1965.0
-416,-3562,1971,0,-416.0,-416.0,-3562.0,-3562.0,1969.0,1966.0
-413,-3561,1974,0,-416.0,-416.0,-3562.0,-3562.0,1971.0,1969.0
-416,-3562,1971,0,-413.0,-416.0,-3561.0,-3562.0,1974.0,1971.0
-417,-3564,1973,0,-416.0,-413.0,-3562.0,-3561.0,1971.0,1974.0
-416,-3566,1972,0,-417.0,-416.0,-3564.0,-3562.0,1973.0,1971.0
-408,-3566,1976,0,-416.0,-417.0,-3566.0,-3564.0,1972.0,1973.0
-410,-3561,1977,0,-408.0,-416.0,-3566.0,-3566.0,1976.0,1972.0
-412,-3561,1980,0,-410.0,-408.0,-3561.0,-3566.0,1977.0,1976.0
-406,-3561,1985,0,-412.0,-410.0,-3561.0,-3561.0,1980.0,1977.0
-405,-3562,1987,0,-406.0,-412.0,-3561.0,-3561.0,1985.0,1980.0
-408,-3567,1986,0,-405.0,-406.0,-3562.0,-3561.0,1987.0,1985.0
-409,-3567,1988,0,-408.0,-405.0,-3567.0,-3562.0,1986.0,1987.0
-411,-3567,1988,0,-409.0,-408.0,-3567.0,-3567.0,1988.0,1986.0
-415,-3563,1990,0,-411.0,-409.0,-3567.0,-3567.0,1988.0,1988.0
-415,-3563,1989,0,-415.0,-411.0,-3563.0,-3567.0,1990.0,1988.0
-414,-3560,1992,0,-415.0,-415.0,-3563.0,-3563.0,1989.0,1990.0
-416,-3557,1989,0,-414.0,-415.0,-3560.0,-3563.0,1992.0,1989.0
-419,-3555,1991,0,-416.0,-414.0,-3557.0,-3560.0,1989.0,1992.0
-419,-3546,1995,0,-419.0,-416.0,-3555.0,-3557.0,1991.0,1989.0
-420,-3546,1996,0,-419.0,-419.0,-3546.0,-3555.0,1995.0,1991.0
-419,-3544,2000,0,-420.0,-419.0,-3546.0,-3546.0,1996.0,1995.0
-414,-3542,1998,0,-419.0,-420.0,-3544.0,-3546.0,2000.0,1996.0
-409,-3538,2000,0,-414.0,-419.0,-3542.0,-3544.0,1998.0,2000.0
-407,-3536,2008,0,-409.0,-414.0,-3538.0,-3542.0,2000.0,1998.0
-399,-3533,2008,0,-407.0,-409.0,-3536.0,-3538.0,2008.0,2000.0
-396,-3536,2004,0,-399.0,-407.0,-3533.0,-3536.0,2008.0,2008.0
-399,-3538,2006,0,-396.0,-399.0,-3536.0,-3533.0,2004.0,2008.0
-398,-3535,2009,0,-399.0,-396.0,-3538.0,-3536.0,2006.0,2004.0
-398,-3531,2016,0,-398.0,-399.0,-3535.0,-3538.0,2009.0,2006.0
-397,-3535,2015,0,-398.0,-398.0,-3531.0,-3535.0,2016.0,2009.0
-398,-3535,2016,0,-397.0,-398.0,-3535.0,-3531.0,2015.0,2016.0
-399,-3535,2012,0,-398.0,-397.0,-3535.0,-3535.0,2016.0,2015.0
-398,-3533,2014,0,-399.0,-398.0,-3535.0,-3535.0,2012.0,2016.0
-396,-3530,2014,0,-398.0,-399.0,-3533.0,-3535.0,2014.0,2012.0
-399,-3532,2013,0,-396.0,-398.0,-3530.0,-3533.0,2014.0,2014.0
-402,-3530,2015,0,-399.0,-396.0,-3532.0,-3530.0,2013.0,2014.0
-403,-3528,2017,0,-402.0,-399.0,-3530.0,-3532.0,2015.0,2013.0
-403,-3526,2017,0,-403.0,-402.0,-3528.0,-3530.0,2017.0,2015.0
-401,-3528,2014,0,-403.0,-403.0,-3526.0,-3528.0,2017.0,2017.0
-408,-3530,2016,0,-401.0,-403.0,-3528.0,-3526.0,2014.0,2017.0
-409,-3531,2019,0,-408.0,-401.0,-3530.0,-3528.0,2016.0,2014.0
-405,-3527,2020,0,-409.0,-408.0,-3531.0,-3530.0,2019.0,2016.0
-409,-3527,2018,0,-405.0,-409.0,-3527.0,-3531.0,2020.0,2019.0
-411,-3524,2018,0,-409.0,-405.0,-3527.0,-3527.0,2018.0,2020.0
-410,-3529,2018,0,-411.0,-409.0,-3524.0,-3527.0,2018.0,2018.0
-411,-3531,2017,0,-410.0,-411.0,-3529.0,-3524.0,2018.0,2018.0
-412,-3533,2015,0,-411.0,-410.0,-3531.0,-3529.0,2017.0,2018.0
-414,-3533,2016,0,-412.0,-411.0,-3533.0,-3531.0,2015.0,2017.0
-414,-3537,2023,0,-414.0,-412.0,-3533.0,-3533.0,2016.0,2015.0
-418,-3540,2026,0,-414.0,-414.0,-3537.0,-3533.0,2023.0,2016.0
-417,-3539,2025,0,-418.0,-414.0,-3540.0,-3537.0,2026.0,2023.0
-417,-3541,2026,0,-417.0,-418.0,-3539.0,-3540.0,2025.0,2026.0
-415,-3542,2027,0,-417.0,-417.0,-3541.0,-3539.0,2026.0,2025.0
-416,-3544,2030,0,-415.0,-417.0,-3542.0,-3541.0,2027.0,2026.0
-420,-3540,2030,0,-416.0,-415.0,-3544.0,-3542.0,2030.0,2027.0
-417,-3537,2031,0,-420.0,-416.0,-3540.0,-3544.0,2030.0,2030.0
-414,-3537,2031,0,-417.0,-420.0,-3537.0,-3540.0,2031.0,2030.0
-414,-3536,2034,0,-414.0,-417.0,-3537.0,-3537.0,2031.0,2031.0
-410,-3534,2033,0,-414.0,-414.0,-3536.0,-3537.0,2034.0,2031.0
-407,-3534,2035,0,-410.0,-414.0,-3534.0,-3536.0,2033.0,2034.0
-410,-3533,2035,0,-407.0,-410.0,-3534.0,-3534.0,2035.0,2033.0
-405,-3530,2040,0,-410.0,-407.0,-3533.0,-3534.0,2035.0,2035.0
-405,-3529,2041,0,-405.0,-410.0,-3530.0,-3533.0,2040.0,2035.0
-402,-3530,2044,0,-405.0,-405.0,-3529.0,-3530.0,2041.0,2040.0
-394,-3529,2045,0,-402.0,-405.0,-3530.0,-3529.0,2044.0,2041.0
-392,-3530,2046,0,-394.0,-402.0,-3529.0,-3530.0,2045.0,2044.0
-392,-3525,2048,0,-392.0,-394.0,-3530.0,-3529.0,2046.0,2045.0
-394,-3528,2045,0,-392.0,-392.0,-3525.0,-3530.0,2048.0,2046.0
-393,-3523,2047,0,-394.0,-392.0,-3528.0,-3525.0,2045.0,2048.0
-392,-3522,2045,0,-393.0,-394.0,-3523.0,-3528.0,2047.0,2045.0
-392,-3519,2046,0,-392.0,-393.0,-3522.0,-3523.0,2045.0,2047.0
-390,-3518,2046,0,-392.0,-392.0,-3519.0,-3522.0,2046.0,2045.0
-388,-3515,2044,0,-390.0,-392.0,-3518.0,-3519.0,2046.0,2046.0
-384,-3510,2047,0,-388.0,-390.0,-3515.0,-3518.0,2044.0,2046.0
-383,-3510,2046,0,-384.0,-388.0,-3510.0,-3515.0,2047.0,2044.0
-384,-3509,2045,0,-383.0,-384.0,-3510.0,-3510.0,2046.0,2047.0
-379,-3509,2039,0,-384.0,-383.0,-3509.0,-3510.0,2045.0,2046.0
-378,-3514,2038,0,-379.0,-384.0,-3509.0,-3509.0,2039.0,2045.0
-381,-3515,2038,0,-378.0,-379.0,-3514.0,-3509.0,2038.0,2039.0
-379,-3513,2036,0,-381.0,-378.0,-3515.0,-3514.0,2038.0,2038.0
-378,-3518,2037,0,-379.0,-381.0,-3513.0,-3515.0,2036.0,2038.0
-379,-3522,2037,0,-378.0,-379.0,-3518.0,-3513.0,2037.0,2036.0
-378,-3525,2038,0,-379.0,-378.0,-3522.0,-3518.0,2037.0,2037.0
-378,-3523,2041,0,-378.0,-379.0,-3525.0,-3522.0,2038.0,2037.0
-382,-3526,2048,0,-378.0,-378.0,-3523.0,-3525.0,2041.0,2038.0
-380,-3528,2049,0,-382.0,-378.0,-3526.0,-3523.0,2048.0,2041.0
-380,-3530,2052,0,-380.0,-382.0,-3528.0,-3526.0,2049.0,2048.0
-383,-3531,2050,0,-380.0,-380.0,-3530.0,-3528.0,2052.0,2049.0
-381,-3531,2051,0,-383.0,-380.0,-3531.0,-3530.0,2050.0,2052.0
-380,-3530,2056,0,-381.0,-383.0,-3531.0,-3531.0,2051.0,2050.0
-375,-3524,2057,0,-380.0,-381.0,-3530.0,-3531.0,2056.0,2051.0
-371,-3521,2057,0,-375.0,-380.0,-3524.0,-3530.0,2057.0,2056.0
-370,-3518,2056,0,-371.0,-375.0,-3521.0,-3524.0,2057.0,2057.0
-367,-3513,2053,0,-370.0,-371.0,-3518.0,-3521.0,2056.0,2057.0
-361,-3510,2054,0,-367.0,-370.0,-3513.0,-3518.0,2053.0,2056.0
-359,-3506,2053,0,-361.0,-367.0,-3510.0,-3513.0,2054.0,2053.0
-357,-3501,2054,0,-359.0,-361.0,-3506.0,-3510.0,2053.0,2054.0
-357,-3502,2056,0,-357.0,-359.0,-3501.0,-3506.0,2054.0,2053.0
-353,-3501,2061,0,-357.0,-357.0,-3502.0,-3501.0,2056.0,2054.0
-352,-3501,2066,0,-353.0,-357.0,-3501.0,-3502.0,2061.0,2056.0
-349,-3502,2067,0,-352.0,-353.0,-3501.0,-3501.0,2066.0,2061.0
-346,-3503,2067,0,-349.0,-352.0,-3502.0,-3501.0,2067.0,2066.0
-341,-3503,2067,0,-346.0,-349.0,-3503.0,-3502.0,2067.0,2067.0
-342,-3505,2068,0,-341.0,-346.0,-3503.0,-3503.0,2067.0,2067.0
-344,-3502,2064,0,-342.0,-341.0,-3505.0,-3503.0,2068.0,2067.0
-350,-3503,2063,0,-344.0,-342.0,-3502.0,-3505.0,2064.0,2068.0
-359,-3506,2061,0,-350.0,-344.0,-3503.0,-3502.0,2063.0,2064.0
-365,-3505,2060,0,-359.0,-350.0,-3506.0,-3503.0,2061.0,2063.0
-372,-3504,2057,0,-365.0,-359.0,-3505.0,-3506.0,2060.0,2061.0
-381,-3504,2053,0,-372.0,-365.0,-3504.0,-3505.0,2057.0,2060.0
-389,-3504,2055,0,-381.0,-372.0,-3504.0,-3504.0,2053.0,2057.0
-394,-3508,2053,0,-389.0,-381.0,-3504.0,-3504.0,2055.0,2053.0
-401,-3510,2052,0,-394.0,-389.0,-3508.0,-3504.0,2053.0,2055.0
-405,-3513,2050,0,-401.0,-394.0,-3510.0,-3508.0,2052.0,2053.0
-407,-3515,2046,0,-405.0,-401.0,-3513.0,-3510.0,2050.0,2052.0
-411,-3520,2051,0,-407.0,-405.0,-3515.0,-3513.0,2046.0,2050.0
-413,-3524,2054,0,-411.0,-407.0,-3520.0,-3515.0,2051.0,2046.0
-409,-3524,2054,0,-413.0,-411.0,-3524.0,-3520.0,2054.0,2051.0
-404,-3524,2056,0,-409.0,-413.0,-3524.0,-3524.0,2054.0,2054.0
-400,-3525,2054,0,-404.0,-409.0,-3524.0,-3524.0,2056.0,2054.0
-400,-3524,2052,0,-400.0,-404.0,-3525.0,-3524.0,2054.0,2056.0
-397,-3524,2050,0,-400.0,-400.0,-3524.0,-3525.0,2052.0,2054.0
-391,-3521,2046,0,-397.0,-400.0,-3524.0,-3524.0,2050.0,2052.0
-388,-3519,2045,0,-391.0,-397.0,-3521.0,-3524.0,2046.0,2050.0
-387,-3519,2042,0,-388.0,-391.0,-3519.0,-3521.0,2045.0,2046.0
-382,-3519,2039,0,-387.0,-388.0,-3519.0,-3519.0,2042.0,2045.0
-375,-3516,2041,0,-382.0,-387.0,-3519.0,-3519.0,2039.0,2042.0
-371,-3511,2040,0,-375.0,-382.0,-3516.0,-3519.0,2041.0,2039.0
-369,-3510,2041,0,-371.0,-375.0,-3511.0,-3516.0,2040.0,2041.0
-371,-3513,2038,0,-369.0,-371.0,-3510.0,-3511.0,2041.0,2040.0
-369,-3511,2038,0,-371.0,-369.0,-3513.0,-3510.0,2038.0,2041.0
-370,-3511,2037,0,-369.0,-371.0,-3511.0,-3513.0,2038.0,2038.0
-368,-3515,2035,0,-370.0,-369.0,-3511.0,-3511.0,2037.0,2038.0
-372,-3518,2037,0,-368.0,-370.0,-3515.0,-3511.0,2035.0,2037.0
-376,-3516,2036,0,-372.0,-368.0,-3518.0,-3515.0,2037.0,2035.0
-380,-3518,2036,0,-376.0,-372.0,-3516.0,-3518.0,2036.0,2037.0
-381,-3523,2035,0,-380.0,-376.0,-3518.0,-3516.0,2036.0,2036.0
-382,-3527,2038,0,-381.0,-380.0,-3523.0,-3518.0,2035.0,2036.0
-387,-3531,2038,0,-382.0,-381.0,-3527.0,-3523.0,2038.0,2035.0
-385,-3531,2036,0,-387.0,-382.0,-3531.0,-3527.0,2038.0,2038.0
-388,-3535,2035,0,-385.0,-387.0,-3531.0,-3531.0,2036.0,2038.0
-389,-3536,2032,0,-388.0,-385.0,-3535.0,-3531.0,2035.0,2036.0
-388,-3538,2028,0,-389.0,-388.0,-3536.0,-3535.0,2032.0,2035.0
-388,-3546,2026,0,-388.0,-389.0,-3538.0,-3536.0,2028.0,2032.0
-386,-3547,2025,0,-388.0,-388.0,-3546.0,-3538.0,2026.0,2028.0
-391,-3547,2024,0,-386.0,-388.0,-3547.0,-3546.0,2025.0,2026.0
-389,-3553,2016,0,-391.0,-386.0,-3547.0,-3547.0,2024.0,2025.0
-389,-3554,2013,0,-389.0,-391.0,-3553.0,-3547.0,2016.0,2024.0
-392,-3557,2009,0,-389.0,-389.0,-3554.0,-3553.0,2013.0,2016.0
-392,-3556,2014,0,-392.0,-389.0,-3557.0,-3554.0,2009.0,2013.0
-396,-3557,2017,0,-392.0,-392.0,-3556.0,-3557.0,2014.0,2009.0
-393,-3554,2019,0,-396.0,-392.0,-3557.0,-3556.0,2017.0,2014.0
-398,-3558,2023,0,-393.0,-396.0,-3554.0,-3557.0,2019.0,2017.0
-400,-3560,2022,0,-398.0,-393.0,-3558.0,-3554.0,2023.0,2019.0
-398,-3562,2023,0,-400.0,-398.0,-3560.0,-3558.0,2022.0,2023.0
-397,-3562,2019,0,-398.0,-400.0,-3562.0,-3560.0,2023.0,2022.0
-397,-3560,2020,0,-397.0,-398.0,-3562.0,-3562.0,2019.0,2023.0
-401,-3555,2016,0,-397.0,-397.0,-3560.0,-3562.0,2020.0,2019.0
-405,-3556,2012,0,-401.0,-397.0,-3555.0,-3560.0,2016.0,2020.0
-410,-3550,2013,0,-405.0,-401.0,-3556.0,-3555.0,2012.0,2016.0
-409,-3550,2015,0,-410.0,-405.0,-3550.0,-3556.0,2013.0,2012.0
-407,-3550,2019,0,-409.0,-410.0,-3550.0,-3550.0,2015.0,2013.0
-404,-3552,2023,0,-407.0,-409.0,-3550.0,-3550.0,2019.0,2015.0
-404,-3549,2026,0,-404.0,-407.0,-3552.0,-3550.0,2023.0,2019.0
-399,-3544,2029,0,-404.0,-404.0,-3549.0,-3552.0,2026.0,2023.0
-391,-3542,2029,0,-399.0,-404.0,-3544.0,-3549.0,2029.0,2026.0
-388,-3537,2027,0,-391.0,-399.0,-3542.0,-3544.0,2029.0,2029.0
-385,-3533,2027,0,-388.0,-391.0,-3537.0,-3542.0,2027.0,2029.0
-382,-3532,2026,0,-385.0,-388.0,-3533.0,-3537.0,2027.0,2027.0
-380,-3523,2026,0,-382.0,-385.0,-3532.0,-3533.0,2026.0,2027.0
-380,-3517,2020,0,-380.0,-382.0,-3523.0,-3532.0,2026.0,2026.0
-377,-3514,2017,0,-380.0,-380.0,-3517.0,-3523.0,2020.0,2026.0
-372,-3511,2009,0,-377.0,-380.0,-3514.0,-3517.0,2017.0,2020.0
-375,-3508,2012,0,-372.0,-377.0,-3511.0,-3514.0,2009.0,2017.0
-379,-3505,2007,0,-375.0,-372.0,-3508.0,-3511.0,2012.0,2009.0
-386,-3501,2008,0,-379.0,-375.0,-3505.0,-3508.0,2007.0,2012.0
-389,-3503,2010,0,-386.0,-379.0,-3501.0,-3505.0,2008.0,2007.0
-395,-3505,2011,0,-389.0,-386.0,-3503.0,-3501.0,2010.0,2008.0
-402,-3505,2013,0,-395.0,-389.0,-3505.0,-3503.0,2011.0,2010.0
-412,-3508,2015,0,-402.0,-395.0,-3505.0,-3505.0,2013.0,2011.0
-419,-3513,2017,0,-412.0,-402.0,-3508.0,-3505.0,2015.0,2013.0
-428,-3520,2016,0,-419.0,-412.0,-3513.0,-3508.0,2017.0,2015.0
-435,-3526,2017,0,-428.0,-419.0,-3520.0,-3513.0,2016.0,2017.0
-443,-3531,2019,0,-435.0,-428.0,-3526.0,-3520.0,2017.0,2016.0
-452,-3539,2023,0,-443.0,-435.0,-3531.0,-3526.0,2019.0,2017.0
-460,-3545,2025,0,-452.0,-443.0,-3539.0,-3531.0,2023.0,2019.0
-463,-3552,2028,0,-460.0,-452.0,-3545.0,-3539.0,2025.0,2023.0
-466,-3556,2031,0,-463.0,-460.0,-3552.0,-3545.0,2028.0,2025.0
-471,-3559,2030,0,-466.0,-463.0,-3556.0,-3552.0,2031.0,2028.0
-466,-3562,2027,0,-471.0,-466.0,-3559.0,-3556.0,2030.0,2031.0
-458,-3563,2027,0,-466.0,-471.0,-3562.0,-3559.0,2027.0,2030.0
-456,-3562,2025,0,-458.0,-466.0,-3563.0,-3562.0,2027.0,2027.0
-447,-3559,2017,0,-456.0,-458.0,-3562.0,-3563.0,2025.0,2027.0
-438,-3554,2019,0,-447.0,-456.0,-3559.0,-3562.0,2017.0,2025.0
-430,-3553,2022,0,-438.0,-447.0,-3554.0,-3559.0,2019.0,2017.0
-423,-3553,2019,0,-430.0,-438.0,-3553.0,-3554.0,2022.0,2019.0
-410,-3549,2022,0,-423.0,-430.0,-3553.0,-3553.0,2019.0,2022.0
-397,-3539,2024,0,-410.0,-423.0,-3549.0,-3553.0,2022.0,2019.0
-392,-3536,2025,0,-397.0,-410.0,-3539.0,-3549.0,2024.0,2022.0
-384,-3532,2023,0,-392.0,-397.0,-3536.0,-3539.0,2025.0,2024.0
-379,-3527,2023,0,-384.0,-392.0,-3532.0,-3536.0,2023.0,2025.0
-374,-3526,2026,0,-379.0,-384.0,-3527.0,-3532.0,2023.0,2023.0
-375,-3526,2024,0,-374.0,-379.0,-3526.0,-3527.0,2026.0,2023.0
-381,-3520,2024,0,-375.0,-374.0,-3526.0,-3526.0,2024.0,2026.0
-386,-3516,2021,0,-381.0,-375.0,-3520.0,-3526.0,2024.0,2024.0
-389,-3516,2021,0,-386.0,-381.0,-3516.0,-3520.0,2021.0,2024.0
-391,-3518,2018,0,-389.0,-386.0,-3516.0,-3516.0,2021.0,2021.0
-398,-3521,2013,0,-391.0,-389.0,-3518.0,-3516.0,2018.0,2021.0
-405,-3523,2011,0,-398.0,-391.0,-3521.0,-3518.0,2013.0,2018.0
-410,-3525,2009,0,-405.0,-398.0,-3523.0,-3521.0,2011.0,2013.0
-417,-3528,2007,0,-410.0,-405.0,-3525.0,-3523.0,2009.0,2011.0
-418,-3533,2005,0,-417.0,-410.0,-3528.0,-3525.0,2007.0,2009.0
-417,-3533,2002,0,-418.0,-417.0,-3533.0,-3528.0,2005.0,2007.0
-418,-3538,2000,0,-417.0,-418.0,-3533.0,-3533.0,2002.0,2005.0
-413,-3544,1999,0,-418.0,-417.0,-3538.0,-3533.0,2000.0,2002.0
-410,-3547,1998,0,-413.0,-418.0,-3544.0,-3538.0,1999.0,2000.0
-401,-3549,1998,0,-410.0,-413.0,-3547.0,-3544.0,1998.0,1999.0
-394,-3552,1994,0,-401.0,-410.0,-3549.0,-3547.0,1998.0,1998.0
-383,-3551,1996,0,-394.0,-401.0,-3552.0,-3549.0,1994.0,1998.0
-378,-3552,1995,0,-383.0,-394.0,-3551.0,-3552.0,1996.0,1994.0
-371,-3551,1998,0,-378.0,-383.0,-3552.0,-3551.0,1995.0,1996.0
-365,-3551,1994,0,-371.0,-378.0,-3551.0,-3552.0,1998.0,1995.0
-361,-3554,1994,0,-365.0,-371.0,-3551.0,-3551.0,1994.0,1998.0
-363,-3556,1993,0,-361.0,-365.0,-3554.0,-3551.0,1994.0,1994.0
-363,-3556,1995,0,-363.0,-361.0,-3556.0,-3554.0,1993.0,1994.0
-366,-3556,1999,0,-363.0,-363.0,-3556.0,-3556.0,1995.0,1993.0
-368,-3556,1997,0,-366.0,-363.0,-3556.0,-3556.0,1999.0,1995.0
-375,-3558,1996,0,-368.0,-366.0,-3556.0,-3556.0,1997.0,1999.0
-380,-3560,1996,0,-375.0,-368.0,-3558.0,-3556.0,1996.0,1997.0
-388,-3559,1992,0,-380.0,-375.0,-3560.0,-3558.0,1996.0,1996.0
-394,-3559,1988,0,-388.0,-380.0,-3559.0,-3560.0,1992.0,1996.0
-399,-3558,1986,0,-394.0,-388.0,-3559.0,-3559.0,1988.0,1992.0
-402,-3556,1986,0,-399.0,-394.0,-3558.0,-3559.0,1986.0,1988.0
-405,-3556,1983,0,-402.0,-399.0,-3556.0,-3558.0,1986.0,1986.0
-408,-3549,1985,0,-405.0,-402.0,-3556.0,-3556.0,1983.0,1986.0
-407,-3549,1987,0,-408.0,-405.0,-3549.0,-3556.0,1985.0,1983.0
-405,-3548,1992,0,-407.0,-408.0,-3549.0,-3549.0,1987.0,1985.0
-402,-3547,1994,0,-405.0,-407.0,-3548.0,-3549.0,1992.0,1987.0
-399,-3545,1995,0,-402.0,-405.0,-3547.0,-3548.0,1994.0,1992.0
-398,-3543,2000,0,-399.0,-402.0,-3545.0,-3547.0,1995.0,1994.0
-394,-3543,2000,0,-398.0,-399.0,-3543.0,-3545.0,2000.0,1995.0
-392,-3546,2000,0,-394.0,-398.0,-3543.0,-3543.0,2000.0,2000.0
-392,-3544,1999,0,-392.0,-394.0,-3546.0,-3543.0,2000.0,2000.0
-395,-3543,1997,0,-392.0,-392.0,-3544.0,-3546.0,1999.0,2000.0
-397,-3547,2000,0,-395.0,-392.0,-3543.0,-3544.0,1997.0,1999.0
-396,-3549,2000,0,-397.0,-395.0,-3547.0,-3543.0,2000.0,1997.0
-398,-3547,1999,0,-396.0,-397.0,-3549.0,-3547.0,2000.0,2000.0
-403,-3551,1999,0,-398.0,-396.0,-3547.0,-3549.0,1999.0,2000.0
-408,-3553,1996,0,-403.0,-398.0,-3551.0,-3547.0,1999.0,1999.0
-414,-3555,1995,0,-408.0,-403.0,-3553.0,-3551.0,1996.0,1999.0
-420,-3558,1992,0,-414.0,-408.0,-3555.0,-3553.0,1995.0,1996.0
-424,-3556,1992,0,-420.0,-414.0,-3558.0,-3555.0,1992.0,1995.0
-426,-3559,1991,0,-424.0,-420.0,-3556.0,-3558.0,1992.0,1992.0
-427,-3559,1993,0,-426.0,-424.0,-3559.0,-3556.0,1991.0,1992.0
-431,-3558,1994,0,-427.0,-426.0,-3559.0,-3559.0,1993.0,1991.0
-436,-3559,1994,0,-431.0,-427.0,-3558.0,-3559.0,1994.0,1993.0
-435,-3557,1995,0,-436.0,-431.0,-3559.0,-3558.0,1994.0,1994.0
-435,-3554,1993,0,-435.0,-436.0,-3557.0,-3559.0,1995.0,1994.0
-438,-3556,1994,0,-435.0,-435.0,-3554.0,-3557.0,1993.0,1995.0
-432,-3555,1994,0,-438.0,-435.0,-3556.0,-3554.0,1994.0,1993.0
-429,-3554,1997,0,-432.0,-438.0,-3555.0,-3556.0,1994.0,1994.0
-423,-3551,1999,0,-429.0,-432.0,-3554.0,-3555.0,1997.0,1994.0
-421,-3547,1998,0,-423.0,-429.0,-3551.0,-3554.0,1999.0,1997.0
-417,-3547,1997,0,-421.0,-423.0,-3547.0,-3551.0,1998.0,1999.0
-418,-3544,1998,0,-417.0,-421.0,-3547.0,-3547.0,1997.0,1998.0
-416,-3541,2003,0,-418.0,-417.0,-3544.0,-3547.0,1998.0,1997.0
-416,-3537,2007,0,-416.0,-418.0,-3541.0,-3544.0,2003.0,1998.0
-411,-3537,2003,0,-416.0,-416.0,-3537.0,-3541.0,2007.0,2003.0
-408,-3535,2001,0,-411.0,-416.0,-3537.0,-3537.0,2003.0,2007.0
-404,-3535,2000,0,-408.0,-411.0,-3535.0,-3537.0,2001.0,2003.0
-399,-3534,1999,0,-404.0,-408.0,-3535.0,-3535.0,2000.0,2001.0
-401,-3535,1998,0,-399.0,-404.0,-3534.0,-3535.0,1999.0,2000.0
-404,-3535,1998,0,-401.0,-399.0,-3535.0,-3534.0,1998.0,1999.0
-403,-3532,2002,0,-404.0,-401.0,-3535.0,-3535.0,1998.0,1998.0
-401,-3533,2000,0,-403.0,-404.0,-3532.0,-3535.0,2002.0,1998.0
-402,-3532,2000,0,-401.0,-403.0,-3533.0,-3532.0,2000.0,2002.0
-403,-3532,2001,0,-402.0,-401.0,-3532.0,-3533.0,2000.0,2000.0
-404,-3535,2001,0,-403.0,-402.0,-3532.0,-3532.0,2001.0,2000.0
-405,-3534,2002,0,-404.0,-403.0,-3535.0,-3532.0,2001.0,2001.0
-404,-3534,2007,0,-405.0,-404.0,-3534.0,-3535.0,2002.0,2001.0
-404,-3538,2003,0,-404.0,-405.0,-3534.0,-3534.0,2007.0,2002.0
-403,-3539,2000,0,-404.0,-404.0,-3538.0,-3534.0,2003.0,2007.0
-404,-3539,1999,0,-403.0,-404.0,-3539.0,-3538.0,2000.0,2003.0
-402,-3539,1996,0,-404.0,-403.0,-3539.0,-3539.0,1999.0,2000.0
-405,-3539,1997,0,-402.0,-404.0,-3539.0,-3539.0,1996.0,1999.0
-408,-3541,1997,0,-405.0,-402.0,-3539.0,-3539.0,1997.0,1996.0
-411,-3545,2001,0,-408.0,-405.0,-3541.0,-3539.0,1997.0,1997.0
-415,-3544,1997,0,-411.0,-408.0,-3545.0,-3541.0,2001.0,1997.0
-416,-3548,1997,0,-415.0,-411.0,-3544.0,-3545.0,1997.0,2001.0
-417,-3552,1997,0,-416.0,-415.0,-3548.0,-3544.0,1997.0,1997.0
-415,-3550,1997,0,-417.0,-416.0,-3552.0,-3548.0,1997.0,1997.0
-416,-3555,1998,0,-415.0,-417.0,-3550.0,-3552.0,1997.0,1997.0
-414,-3553,1995,0,-416.0,-415.0,-3555.0,-3550.0,1998.0,1997.0
-414,-3550,1992,0,-414.0,-416.0,-3553.0,-3555.0,1995.0,1998.0
-413,-3546,1992,0,-414.0,-414.0,-3550.0,-3553.0,1992.0,1995.0
-413,-3551,1990,0,-413.0,-414.0,-3546.0,-3550.0,1992.0,1992.0
-413,-3550,1990,0,-413.0,-413.0,-3551.0,-3546.0,1990.0,1992.0
-408,-3548,1990,0,-413.0,-413.0,-3550.0,-3551.0,1990.0,1990.0
-405,-3547,1995,0,-408.0,-413.0,-3548.0,-3550.0,1990.0,1990.0
-403,-3549,1990,0,-405.0,-408.0,-3547.0,-3548.0,1995.0,1990.0
-400,-3552,1987,0,-403.0,-405.0,-3549.0,-3547.0,1990.0,1995.0
-397,-3554,1986,0,-400.0,-403.0,-3552.0,-3549.0,1987.0,1990.0
-396,-3553,1984,0,-397.0,-400.0,-3554.0,-3552.0,1986.0,1987.0
-398,-3556,1980,0,-396.0,-397.0,-3553.0,-3554.0,1984.0,1986.0
-397,-3556,1975,0,-398.0,-396.0,-3556.0,-3553.0,1980.0,1984.0
-396,-3558,1971,0,-397.0,-398.0,-3556.0,-3556.0,1975.0,1980.0
-397,-3562,1974,0,-396.0,-397.0,-3558.0,-3556.0,1971.0,1975.0
-403,-3566,1973,0,-397.0,-396.0,-3562.0,-3558.0,1974.0,1971.0
-406,-3569,1973,0,-403.0,-397.0,-3566.0,-3562.0,1973.0,1974.0
-411,-3570,1976,0,-406.0,-403.0,-3569.0,-3566.0,1973.0,1973.0
-413,-3573,1979,0,-411.0,-406.0,-3570.0,-3569.0,1976.0,1973.0
-421,-3574,1982,0,-413.0,-411.0,-3573.0,-3570.0,1979.0,1976.0
-421,-3574,1983,0,-421.0,-413.0,-3574.0,-3573.0,1982.0,1979.0
-418,-3577,1984,0,-421.0,-421.0,-3574.0,-3574.0,1983.0,1982.0
-419,-3578,1980,0,-418.0,-421.0,-3577.0,-3574.0,1984.0,1983.0
-418,-3576,1978,0,-419.0,-418.0,-3578.0,-3577.0,1980.0,1984.0
-416,-3574,1976,0,-418.0,-419.0,-3576.0,-3578.0,1978.0,1980.0
-415,-3573,1973,0,-416.0,-418.0,-3574.0,-3576.0,1976.0,1978.0
-412,-3569,1968,0,-415.0,-416.0,-3573.0,-3574.0,1973.0,1976.0
-405,-3565,1967,0,-412.0,-415.0,-3569.0,-3573.0,1968.0,1973.0
-401,-3557,1965,0,-405.0,-412.0,-3565.0,-3569.0,1967.0,1968.0
-400,-3552,1967,0,-401.0,-405.0,-3557.0,-3565.0,1965.0,1967.0
-398,-3549,1974,0,-400.0,-401.0,-3552.0,-3557.0,1967.0,1965.0
-394,-3550,1980,0,-398.0,-400.0,-3549.0,-3552.0,1974.0,1967.0
-389,-3550,1983,0,-394.0,-398.0,-3550.0,-3549.0,1980.0,1974.0
-388,-3554,1985,0,-389.0,-394.0,-3550.0,-3550.0,1983.0,1980.0
-383,-3554,1985,0,-388.0,-389.0,-3554.0,-3550.0,1985.0,1983.0
-384,-3553,1982,0,-383.0,-388.0,-3554.0,-3554.0,1985.0,1985.0
-386,-3554,1985,0,-384.0,-383.0,-3553.0,-3554.0,1982.0,1985.0
-386,-3551,1982,0,-386.0,-384.0,-3554.0,-3553.0,1985.0,1982.0
-392,-3552,1975,0,-386.0,-386.0,-3551.0,-3554.0,1982.0,1985.0
-400,-3553,1972,0,-392.0,-386.0,-3552.0,-3551.0,1975.0,1982.0
-407,-3548,1971,0,-400.0,-392.0,-3553.0,-3552.0,1972.0,1975.0
-414,-3550,1975,0,-407.0,-400.0,-3548.0,-3553.0,1971.0,1972.0
-425,-3550,1975,0,-414.0,-407.0,-3550.0,-3548.0,1975.0,1971.0
-431,-3549,1974,0,-425.0,-414.0,-3550.0,-3550.0,1975.0,1975.0
-437,-3551,1972,0,-431.0,-425.0,-3549.0,-3550.0,1974.0,1975.0
-442,-3553,1969,0,-437.0,-431.0,-3551.0,-3549.0,1972.0,1974.0
-447,-3555,1969,0,-442.0,-437.0,-3553.0,-3551.0,1969.0,1972.0
-450,-3559,1969,0,-447.0,-442.0,-3555.0,-3553.0,1969.0,1969.0
-451,-3562,1971,0,-450.0,-447.0,-3559.0,-3555.0,1969.0,1969.0
-450,-3567,1970,0,-451.0,-450.0,-3562.0,-3559.0,1971.0,1969.0
-448,-3567,1972,0,-450.0,-451.0,-3567.0,-3562.0,1970.0,1971.0
-448,-3569,1971,0,-448.0,-450.0,-3567.0,-3567.0,1972.0,1970.0
-447,-3568,1969,0,-448.0,-448.0,-3569.0,-3567.0,1971.0,1972.0
-445,-3571,1971,0,-447.0,-448.0,-3568.0,-3569.0,1969.0,1971.0
-444,-3570,1972,0,-445.0,-447.0,-3571.0,-3568.0,1971.0,1969.0
-438,-3568,1974,0,-444.0,-445.0,-3570.0,-3571.0,1972.0,1971.0
-428,-3570,1973,0,-438.0,-444.0,-3568.0,-3570.0,1974.0,1972.0
-425,-3566,1974,0,-428.0,-438.0,-3570.0,-3568.0,1973.0,1974.0
-417,-3565,1972,0,-425.0,-428.0,-3566.0,-3570.0,1974.0,1973.0
-417,-3561,1971,0,-417.0,-425.0,-3565.0,-3566.0,1972.0,1974.0
-410,-3558,1976,0,-417.0,-417.0,-3561.0,-3565.0,1971.0,1972.0
-407,-3557,1979,0,-410.0,-417.0,-3558.0,-3561.0,1976.0,1971.0
-403,-3556,1981,0,-407.0,-410.0,-3557.0,-3558.0,1979.0,1976.0
-401,-3556,1982,0,-403.0,-407.0,-3556.0,-3557.0,1981.0,1979.0
-404,-3553,1974,0,-401.0,-403.0,-3556.0,-3556.0,1982.0,1981.0
-405,-3548,1973,0,-404.0,-401.0,-3553.0,-3556.0,1974.0,1982.0
-406,-3547,1976,0,-405.0,-404.0,-3548.0,-3553.0,1973.0,1974.0
-406,-3547,1977,0,-406.0,-405.0,-3547.0,-3548.0,1976.0,1973.0
-407,-3551,1977,0,-406.0,-406.0,-3547.0,-3547.0,1977.0,1976.0
-407,-3551,1979,0,-407.0,-406.0,-3551.0,-3547.0,1977.0,1977.0
-403,-3551,1984,0,-407.0,-407.0,-3551.0,-3551.0,1979.0,1977.0
-407,-3550,1982,0,-403.0,-407.0,-3551.0,-3551.0,1984.0,1979.0
-411,-3551,1978,0,-407.0,-403.0,-3550.0,-3551.0,1982.0,1984.0
-413,-3552,1976,0,-411.0,-407.0,-3551.0,-3550.0,1978.0,1982.0
-414,-3558,1973,0,-413.0,-411.0,-3552.0,-3551.0,1976.0,1978.0
-417,-3555,1971,0,-414.0,-413.0,-3558.0,-3552.0,1973.0,1976.0
-414,-3558,1973,0,-417.0,-414.0,-3555.0,-3558.0,1971.0,1973.0
-411,-3561,1976,0,-414.0,-417.0,-3558.0,-3555.0,1973.0,1971.0
-416,-3565,1980,0,-411.0,-414.0,-3561.0,-3558.0,1976.0,1973.0
-412,-3568,1971,0,-416.0,-411.0,-3565.0,-3561.0,1980.0,1976.0
-413,-3574,1966,0,-412.0,-416.0,-3568.0,-3565.0,1971.0,1980.0
-406,-3578,1965,0,-413.0,-412.0,-3574.0,-3568.0,1966.0,1971.0
-409,-3577,1960,0,-406.0,-413.0,-3578.0,-3574.0,1965.0,1966.0
-407,-3569,1961,0,-409.0,-406.0,-3577.0,-3578.0,1960.0,1965.0
-405,-3569,1961,0,-407.0,-409.0,-3569.0,-3577.0,1961.0,1960.0
-405,-3569,1965,0,-405.0,-407.0,-3569.0,-3569.0,1961.0,1961.0
-403,-3569,1965,0,-405.0,-405.0,-3569.0,-3569.0,1965.0,1961.0
-403,-3568,1967,0,-403.0,-405.0,-3569.0,-3569.0,1965.0,1965.0
-401,-3567,1967,0,-403.0,-403.0,-3568.0,-3569.0,1967.0,1965.0
-401,-3564,1968,0,-401.0,-403.0,-3567.0,-3568.0,1967.0,1967.0
-406,-3564,1968,0,-401.0,-401.0,-3564.0,-3567.0,1968.0,1967.0
-412,-3564,1967,0,-406.0,-401.0,-3564.0,-3564.0,1968.0,1968.0
-416,-3563,1966,0,-412.0,-406.0,-3564.0,-3564.0,1967.0,1968.0
-418,-3565,1968,0,-416.0,-412.0,-3563.0,-3564.0,1966.0,1967.0
-420,-3566,1968,0,-418.0,-416.0,-3565.0,-3563.0,1968.0,1966.0
-421,-3567,1965,0,-420.0,-418.0,-3566.0,-3565.0,1968.0,1968.0
-428,-3567,1965,0,-421.0,-420.0,-3567.0,-3566.0,1965.0,1968.0
-431,-3568,1965,0,-428.0,-421.0,-3567.0,-3567.0,1965.0,1965.0
-425,-3569,1964,0,-431.0,-428.0,-3568.0,-3567.0,1965.0,1965.0
-426,-3567,1966,0,-425.0,-431.0,-3569.0,-3568.0,1964.0,1965.0
-427,-3566,1964,0,-426.0,-425.0,-3567.0,-3569.0,1966.0,1964.0
-424,-3566,1961,0,-427.0,-426.0,-3566.0,-3567.0,1964.0,1966.0
-422,-3560,1958,0,-424.0,-427.0,-3566.0,-3566.0,1961.0,1964.0
-422,-3559,1960,0,-422.0,-424.0,-3560.0,-3566.0,1958.0,1961.0
-417,-3556,1959,0,-422.0,-422.0,-3559.0,-3560.0,1960.0,1958.0
-415,-3554,1959,0,-417.0,-422.0,-3556.0,-3559.0,1959.0,1960.0
-409,-3550,1960,0,-415.0,-417.0,-3554.0,-3556.0,1959.0,1959.0
-408,-3550,1963,0,-409.0,-415.0,-3550.0,-3554.0,1960.0,1959.0
-405,-3548,1963,0,-408.0,-409.0,-3550.0,-3550.0,1963.0,1960.0
-405,-3550,1966,0,-405.0,-408.0,-3548.0,-3550.0,1963.0,1963.0
-409,-3557,1965,0,-405.0,-405.0,-3550.0,-3548.0,1966.0,1963.0
-413,-3557,1964,0,-409.0,-405.0,-3557.0,-3550.0,1965.0,1966.0
-417,-3561,1963,0,-413.0,-409.0,-3557.0,-3557.0,1964.0,1965.0
-422,-3565,1962,0,-417.0,-413.0,-3561.0,-3557.0,1963.0,1964.0
-427,-3566,1960,0,-422.0,-417.0,-3565.0,-3561.0,1962.0,1963.0
-432,-3567,1958,0,-427.0,-422.0,-3566.0,-3565.0,1960.0,1962.0
-438,-3568,1959,0,-432.0,-427.0,-3567.0,-3566.0,1958.0,1960.0
-441,-3574,1958,0,-438.0,-432.0,-3568.0,-3567.0,1959.0,1958.0
-444,-3573,1956,0,-441.0,-438.0,-3574.0,-3568.0,1958.0,1959.0
-447,-3572,1954,0,-444.0,-441.0,-3573.0,-3574.0,1956.0,1958.0
-451,-3575,1955,0,-447.0,-444.0,-3572.0,-3573.0,1954.0,1956.0
-449,-3580,1957,0,-451.0,-447.0,-3575.0,-3572.0,1955.0,1954.0
-448,-3582,1958,0,-449.0,-451.0,-3580.0,-3575.0,1957.0,1955.0
-452,-3582,1955,0,-448.0,-449.0,-3582.0,-3580.0,1958.0,1957.0
-454,-3584,1959,0,-452.0,-448.0,-3582.0,-3582.0,1955.0,1958.0
-454,-3583,1958,0,-454.0,-452.0,-3584.0,-3582.0,1959.0,1955.0
-457,-3579,1963,0,-454.0,-454.0,-3583.0,-3584.0,1958.0,1959.0
-459,-3582,1965,0,-457.0,-454.0,-3579.0,-3583.0,1963.0,1958.0
-454,-3582,1965,0,-459.0,-457.0,-3582.0,-3579.0,1965.0,1963.0
-455,-3580,1963,0,-454.0,-459.0,-3582.0,-3582.0,1965.0,1965.0
-455,-3578,1963,0,-455.0,-454.0,-3580.0,-3582.0,1963.0,1965.0
-452,-3577,1967,0,-455.0,-455.0,-3578.0,-3580.0,1963.0,1963.0
-450,-3580,1969,0,-452.0,-455.0,-3577.0,-3578.0,1967.0,1963.0
-445,-3576,1969,0,-450.0,-452.0,-3580.0,-3577.0,1969.0,1967.0
-443,-3576,1971,0,-445.0,-450.0,-3576.0,-3580.0,1969.0,1969.0
-440,-3571,1974,0,-443.0,-445.0,-3576.0,-3576.0,1971.0,1969.0
-438,-3571,1975,0,-440.0,-443.0,-3571.0,-3576.0,1974.0,1971.0
-436,-3571,1974,0,-438.0,-440.0,-3571.0,-3571.0,1975.0,1974.0
-432,-3568,1972,0,-436.0,-438.0,-3571.0,-3571.0,1974.0,1975.0
-427,-3565,1979,0,-432.0,-436.0,-3568.0,-3571.0,1972.0,1974.0
-423,-3560,1982,0,-427.0,-432.0,-3565.0,-3568.0,1979.0,1972.0
-415,-3550,1983,0,-423.0,-427.0,-3560.0,-3565.0,1982.0,1979.0
-409,-3542,1983,0,-415.0,-423.0,-3550.0,-3560.0,1983.0,1982.0
-404,-3537,1985,0,-409.0,-415.0,-3542.0,-3550.0,1983.0,1983.0
-400,-3532,1987,0,-404.0,-409.0,-3537.0,-3542.0,1985.0,1983.0
-398,-3529,1986,0,-400.0,-404.0,-3532.0,-3537.0,1987.0,1985.0
-396,-3525,1990,0,-398.0,-400.0,-3529.0,-3532.0,1986.0,1987.0
-392,-3524,1990,0,-396.0,-398.0,-3525.0,-3529.0,1990.0,1986.0
-389,-3530,1994,0,-392.0,-396.0,-3524.0,-3525.0,1990.0,1990.0
-387,-3531,1997,0,-389.0,-392.0,-3530.0,-3524.0,1994.0,1990.0
-387,-3533,1992,0,-387.0,-389.0,-3531.0,-3530.0,1997.0,1994.0
-386,-3537,1988,0,-387.0,-387.0,-3533.0,-3531.0,1992.0,1997.0
-387,-3537,1990,0,-386.0,-387.0,-3537.0,-3533.0,1988.0,1992.0
-390,-3537,1990,0,-387.0,-386.0,-3537.0,-3537.0,1990.0,1988.0
-394,-3546,1990,0,-390.0,-387.0,-3537.0,-3537.0,1990.0,1990.0
-397,-3548,1988,0,-394.0,-390.0,-3546.0,-3537.0,1990.0,1990.0
-395,-3550,1991,0,-397.0,-394.0,-3548.0,-3546.0,1988.0,1990.0
-396,-3549,1994,0,-395.0,-397.0,-3550.0,-3548.0,1991.0,1988.0
-398,-3550,1995,0,-396.0,-395.0,-3549.0,-3550.0,1994.0,1991.0
-398,-3550,2001,0,-398.0,-396.0,-3550.0,-3549.0,1995.0,1994.0
-400,-3554,2003,0,-398.0,-398.0,-3550.0,-3550.0,2001.0,1995.0
-405,-3554,2001,0,-400.0,-398.0,-3554.0,-3550.0,2003.0,2001.0
-404,-3556,2000,0,-405.0,-400.0,-3554.0,-3554.0,2001.0,2003.0
-403,-3556,1999,0,-404.0,-405.0,-3556.0,-3554.0,2000.0,2001.0
-407,-3557,1999,0,-403.0,-404.0,-3556.0,-3556.0,1999.0,2000.0
-409,-3552,1999,0,-407.0,-403.0,-3557.0,-3556.0,1999.0,1999.0
-409,-3554,1998,0,-409.0,-407.0,-3552.0,-3557.0,1999.0,1999.0
-410,-3549,1997,0,-409.0,-409.0,-3554.0,-3552.0,1998.0,1999.0
-408,-3550,1997,0,-410.0,-409.0,-3549.0,-3554.0,1997.0,1998.0
-407,-3551,1998,0,-408.0,-410.0,-3550.0,-3549.0,1997.0,1997.0
-405,-3550,2001,0,-407.0,-408.0,-3551.0,-3550.0,1998.0,1997.0
-401,-3547,2007,0,-405.0,-407.0,-3550.0,-3551.0,2001.0,1998.0
-399,-3543,2008,0,-401.0,-405.0,-3547.0,-3550.0,2007.0,2001.0
-400,-3541,2011,0,-399.0,-401.0,-3543.0,-3547.0,2008.0,2007.0
-396,-3540,2016,0,-400.0,-399.0,-3541.0,-3543.0,2011.0,2008.0
-396,-3539,2019,0,-396.0,-400.0,-3540.0,-3541.0,2016.0,2011.0
-397,-3534,2021,0,-396.0,-396.0,-3539.0,-3540.0,2019.0,2016.0
-395,-3536,2020,0,-397.0,-396.0,-3534.0,-3539.0,2021.0,2019.0
-394,-3533,2021,0,-395.0,-397.0,-3536.0,-3534.0,2020.0,2021.0
-394,-3533,2025,0,-394.0,-395.0,-3533.0,-3536.0,2021.0,2020.0
-394,-3537,2022,0,-394.0,-394.0,-3533.0,-3533.0,2025.0,2021.0
-396,-3539,2021,0,-394.0,-394.0,-3537.0,-3533.0,2022.0,2025.0
-395,-3539,2022,0,-396.0,-394.0,-3539.0,-3537.0,2021.0,2022.0
-395,-3537,2024,0,-395.0,-396.0,-3539.0,-3539.0,2022.0,2021.0
-397,-3539,2025,0,-395.0,-395.0,-3537.0,-3539.0,2024.0,2022.0
-400,-3541,2023,0,-397.0,-395.0,-3539.0,-3537.0,2025.0,2024.0
-401,-3539,2025,0,-400.0,-397.0,-3541.0,-3539.0,2023.0,2025.0
-398,-3536,2023,0,-401.0,-400.0,-3539.0,-3541.0,2025.0,2023.0
-404,-3537,2024,0,-398.0,-401.0,-3536.0,-3539.0,2023.0,2025.0
-403,-3541,2025,0,-404.0,-398.0,-3537.0,-3536.0,2024.0,2023.0
-405,-3540,2024,0,-403.0,-404.0,-3541.0,-3537.0,2025.0,2024.0
-405,-3543,2022,0,-405.0,-403.0,-3540.0,-3541.0,2024.0,2025.0
-403,-3548,2017,0,-405.0,-405.0,-3543.0,-3540.0,2022.0,2024.0
-400,-3547,2011,0,-403.0,-405.0,-3548.0,-3543.0,2017.0,2022.0
-401,-3549,2003,0,-400.0,-403.0,-3547.0,-3548.0,2011.0,2017.0
-398,-3553,1994,0,-401.0,-400.0,-3549.0,-3547.0,2003.0,2011.0
-391,-3556,1982,0,-398.0,-401.0,-3553.0,-3549.0,1994.0,2003.0
-389,-3558,1974,0,-391.0,-398.0,-3556.0,-3553.0,1982.0,1994.0
-382,-3559,1976,0,-389.0,-391.0,-3558.0,-3556.0,1974.0,1982.0
-381,-3564,1984,0,-382.0,-389.0,-3559.0,-3558.0,1976.0,1974.0
-383,-3572,1987,0,-381.0,-382.0,-3564.0,-3559.0,1984.0,1976.0
-388,-3577,1984,0,-383.0,-381.0,-3572.0,-3564.0,1987.0,1984.0
-389,-3587,1984,0,-388.0,-383.0,-3577.0,-3572.0,1984.0,1987.0
-388,-3592,1990,0,-389.0,-388.0,-3587.0,-3577.0,1984.0,1984.0
-386,-3593,1994,0,-388.0,-389.0,-3592.0,-3587.0,1990.0,1984.0
-388,-3594,1999,0,-386.0,-388.0,-3593.0,-3592.0,1994.0,1990.0
-386,-3589,2004,0,-388.0,-386.0,-3594.0,-3593.0,1999.0,1994.0
-385,-3583,2007,0,-386.0,-388.0,-3589.0,-3594.0,2004.0,1999.0
-381,-3576,2005,0,-385.0,-386.0,-3583.0,-3589.0,2007.0,2004.0
-381,-3568,2003,0,-381.0,-385.0,-3576.0,-3583.0,2005.0,2007.0
-382,-3554,2004,0,-381.0,-381.0,-3568.0,-3576.0,2003.0,2005.0
-383,-3545,2004,0,-382.0,-381.0,-3554.0,-3568.0,2004.0,2003.0
-377,-3536,2012,0,-383.0,-382.0,-3545.0,-3554.0,2004.0,2004.0
-373,-3523,2018,0,-377.0,-383.0,-3536.0,-3545.0,2012.0,2004.0
-367,-3509,2022,0,-373.0,-377.0,-3523.0,-3536.0,2018.0,2012.0
-358,-3501,2016,0,-367.0,-373.0,-3509.0,-3523.0,2022.0,2018.0
-352,-3494,2007,0,-358.0,-367.0,-3501.0,-3509.0,2016.0,2022.0
-352,-3484,1995,0,-352.0,-358.0,-3494.0,-3501.0,2007.0,2016.0
-352,-3481,1990,0,-352.0,-352.0,-3484.0,-3494.0,1995.0,2007.0
-350,-3478,1989,0,-352.0,-352.0,-3481.0,-3484.0,1990.0,1995.0
-345,-3484,1989,0,-350.0,-352.0,-3478.0,-3481.0,1989.0,1990.0
-348,-3492,1989,0,-345.0,-350.0,-3484.0,-3478.0,1989.0,1989.0
-343,-3501,2001,0,-348.0,-345.0,-3492.0,-3484.0,1989.0,1989.0
-341,-3518,2007,0,-343.0,-348.0,-3501.0,-3492.0,2001.0,1989.0
-338,-3537,2015,0,-341.0,-343.0,-3518.0,-3501.0,2007.0,2001.0
-337,-3553,2018,0,-338.0,-341.0,-3537.0,-3518.0,2015.0,2007.0
-340,-3570,2019,0,-337.0,-338.0,-3553.0,-3537.0,2018.0,2015.0
-340,-3580,2020,0,-340.0,-337.0,-3570.0,-3553.0,2019.0,2018.0
-343,-3585,2017,0,-340.0,-340.0,-3580.0,-3570.0,2020.0,2019.0
-340,-3586,2021,0,-343.0,-340.0,-3585.0,-3580.0,2017.0,2020.0
-344,-3584,2027,0,-340.0,-343.0,-3586.0,-3585.0,2021.0,2017.0
-350,-3577,2026,0,-344.0,-340.0,-3584.0,-3586.0,2027.0,2021.0
-356,-3576,2026,0,-350.0,-344.0,-3577.0,-3584.0,2026.0,2027.0
-364,-3569,2025,0,-356.0,-350.0,-3576.0,-3577.0,2026.0,2026.0
-376,-3560,2032,0,-364.0,-356.0,-3569.0,-3576.0,2025.0,2026.0
-385,-3553,2031,0,-376.0,-364.0,-3560.0,-3569.0,2032.0,2025.0
-391,-3544,2034,0,-385.0,-376.0,-3553.0,-3560.0,2031.0,2032.0
-403,-3533,2039,0,-391.0,-385.0,-3544.0,-3553.0,2034.0,2031.0
-412,-3526,2037,0,-403.0,-391.0,-3533.0,-3544.0,2039.0,2034.0
-425,-3523,2035,0,-412.0,-403.0,-3526.0,-3533.0,2037.0,2039.0
-434,-3525,2032,0,-425.0,-412.0,-3523.0,-3526.0,2035.0,2037.0
-440,-3521,2030,0,-434.0,-425.0,-3525.0,-3523.0,2032.0,2035.0
-444,-3522,2028,0,-440.0,-434.0,-3521.0,-3525.0,2030.0,2032.0
-443,-3527,2025,0,-444.0,-440.0,-3522.0,-3521.0,2028.0,2030.0
-440,-3532,2027,0,-443.0,-444.0,-3527.0,-3522.0,2025.0,2028.0
-435,-3535,2031,0,-440.0,-443.0,-3532.0,-3527.0,2027.0,2025.0
-429,-3531,2037,0,-435.0,-440.0,-3535.0,-3532.0,2031.0,2027.0
-420,-3540,2042,0,-429.0,-435.0,-3531.0,-3535.0,2037.0,2031.0
-406,-3539,2046,0,-420.0,-429.0,-3540.0,-3531.0,2042.0,2037.0
-392,-3538,2045,0,-406.0,-420.0,-3539.0,-3540.0,2046.0,2042.0
-383,-3537,2050,0,-392.0,-406.0,-3538.0,-3539.0,2045.0,2046.0
-377,-3533,2049,0,-383.0,-392.0,-3537.0,-3538.0,2050.0,2045.0
-371,-3527,2050,0,-377.0,-383.0,-3533.0,-3537.0,2049.0,2050.0
-369,-3524,2052,0,-371.0,-377.0,-3527.0,-3533.0,2050.0,2049.0
-367,-3520,2053,0,-369.0,-371.0,-3524.0,-3527.0,2052.0,2050.0
-369,-3517,2057,0,-367.0,-369.0,-3520.0,-3524.0,2053.0,2052.0
-368,-3512,2056,0,-369.0,-367.0,-3517.0,-3520.0,2057.0,2053.0
-364,-3515,2056,0,-368.0,-369.0,-3512.0,-3517.0,2056.0,2057.0
-367,-3511,2055,0,-364.0,-368.0,-3515.0,-3512.0,2056.0,2056.0
-371,-3510,2051,0,-367.0,-364.0,-3511.0,-3515.0,2055.0,2056.0
-372,-3511,2047,0,-371.0,-367.0,-3510.0,-3511.0,2051.0,2055.0
-375,-3507,2038,0,-372.0,-371.0,-3511.0,-3510.0,2047.0,2051.0
-377,-3503,2038,0,-375.0,-372.0,-3507.0,-3511.0,2038.0,2047.0
-377,-3503,2037,0,-377.0,-375.0,-3503.0,-3507.0,2038.0,2038.0
-382,-3504,2037,0,-377.0,-377.0,-3503.0,-3503.0,2037.0,2038.0
-387,-3501,2041,0,-382.0,-377.0,-3504.0,-3503.0,2037.0,2037.0
-388,-3500,2044,0,-387.0,-382.0,-3501.0,-3504.0,2041.0,2037.0
-390,-3507,2043,0,-388.0,-387.0,-3500.0,-3501.0,2044.0,2041.0
-393,-3509,2042,0,-390.0,-388.0,-3507.0,-3500.0,2043.0,2044.0
-397,-3514,2041,0,-393.0,-390.0,-3509.0,-3507.0,2042.0,2043.0
-405,-3519,2042,0,-397.0,-393.0,-3514.0,-3509.0,2041.0,2042.0
-406,-3525,2041,0,-405.0,-397.0,-3519.0,-3514.0,2042.0,2041.0
-407,-3530,2039,0,-406.0,-405.0,-3525.0,-3519.0,2041.0,2042.0
-406,-3533,2042,0,-407.0,-406.0,-3530.0,-3525.0,2039.0,2041.0
-405,-3531,2045,0,-406.0,-407.0,-3533.0,-3530.0,2042.0,2039.0
-405,-3526,2045,0,-405.0,-406.0,-3531.0,-3533.0,2045.0,2042.0
-405,-3527,2049,0,-405.0,-405.0,-3526.0,-3531.0,2045.0,2045.0
-395,-3520,2052,0,-405.0,-405.0,-3527.0,-3526.0,2049.0,2045.0
-393,-3516,2052,0,-395.0,-405.0,-3520.0,-3527.0,2052.0,2049.0
-389,-3511,2052,0,-393.0,-395.0,-3516.0,-3520.0,2052.0,2052.0
-385,-3508,2050,0,-389.0,-393.0,-3511.0,-3516.0,2052.0,2052.0
-382,-3502,2047,0,-385.0,-389.0,-3508.0,-3511.0,2050.0,2052.0
-380,-3500,2049,0,-382.0,-385.0,-3502.0,-3508.0,2047.0,2050.0
-378,-3498,2050,0,-380.0,-382.0,-3500.0,-3502.0,2049.0,2047.0
-377,-3498,2050,0,-378.0,-380.0,-3498.0,-3500.0,2050.0,2049.0
-380,-3499,2051,0,-377.0,-378.0,-3498.0,-3498.0,2050.0,2050.0
-381,-3503,2048,0,-380.0,-377.0,-3499.0,-3498.0,2051.0,2050.0
-378,-3503,2045,0,-381.0,-380.0,-3503.0,-3499.0,2048.0,2051.0
-380,-3505,2044,0,-378.0,-381.0,-3503.0,-3503.0,2045.0,2048.0
-381,-3507,2044,0,-380.0,-378.0,-3505.0,-3503.0,2044.0,2045.0
-381,-3507,2046,0,-381.0,-380.0,-3507.0,-3505.0,2044.0,2044.0
-381,-3509,2047,0,-381.0,-381.0,-3507.0,-3507.0,2046.0,2044.0
-383,-3512,2046,0,-381.0,-381.0,-3509.0,-3507.0,2047.0,2046.0
-386,-3513,2049,0,-383.0,-381.0,-3512.0,-3509.0,2046.0,2047.0
-388,-3513,2054,0,-386.0,-383.0,-3513.0,-3512.0,2049.0,2046.0
-390,-3519,2056,0,-388.0,-386.0,-3513.0,-3513.0,2054.0,2049.0
-396,-3521,2055,0,-390.0,-388.0,-3519.0,-3513.0,2056.0,2054.0
-398,-3521,2055,0,-396.0,-390.0,-3521.0,-3519.0,2055.0,2056.0
-398,-3526,2055,0,-398.0,-396.0,-3521.0,-3521.0,2055.0,2055.0
-400,-3523,2056,0,-398.0,-398.0,-3526.0,-3521.0,2055.0,2055.0
-403,-3522,2055,0,-400.0,-398.0,-3523.0,-3526.0,2056.0,2055.0
-407,-3522,2058,0,-403.0,-400.0,-3522.0,-3523.0,2055.0,2056.0
-411,-3518,2059,0,-407.0,-403.0,-3522.0,-3522.0,2058.0,2055.0
-413,-3516,2060,0,-411.0,-407.0,-3518.0,-3522.0,2059.0,2058.0
-414,-3514,2061,0,-413.0,-411.0,-3516.0,-3518.0,2060.0,2059.0
-412,-3520,2064,0,-414.0,-413.0,-3514.0,-3516.0,2061.0,2060.0
-408,-3521,2066,0,-412.0,-414.0,-3520.0,-3514.0,2064.0,2061.0
-408,-3524,2066,0,-408.0,-412.0,-3521.0,-3520.0,2066.0,2064.0
-406,-3524,2063,0,-408.0,-408.0,-3524.0,-3521.0,2066.0,2066.0
-404,-3527,2061,0,-406.0,-408.0,-3524.0,-3524.0,2063.0,2066.0
-402,-3524,2062,0,-404.0,-406.0,-3527.0,-3524.0,2061.0,2063.0
-401,-3517,2060,0,-402.0,-404.0,-3524.0,-3527.0,2062.0,2061.0
-401,-3512,2059,0,-401.0,-402.0,-3517.0,-3524.0,2060.0,2062.0
-397,-3509,2060,0,-401.0,-401.0,-3512.0,-3517.0,2059.0,2060.0
-395,-3507,2058,0,-397.0,-401.0,-3509.0,-3512.0,2060.0,2059.0
-392,-3510,2059,0,-395.0,-397.0,-3507.0,-3509.0,2058.0,2060.0
-391,-3508,2062,0,-392.0,-395.0,-3510.0,-3507.0,2059.0,2058.0
-397,-3507,2061,0,-391.0,-392.0,-3508.0,-3510.0,2062.0,2059.0
-397,-3509,2062,0,-397.0,-391.0,-3507.0,-3508.0,2061.0,2062.0
-398,-3515,2062,0,-397.0,-397.0,-3509.0,-3507.0,2062.0,2061.0
-401,-3513,2063,0,-398.0,-397.0,-3515.0,-3509.0,2062.0,2062.0
-404,-3517,2060,0,-401.0,-398.0,-3513.0,-3515.0,2063.0,2062.0
-406,-3516,2057,0,-404.0,-401.0,-3517.0,-3513.0,2060.0,2063.0
-404,-3516,2055,0,-406.0,-404.0,-3516.0,-3517.0,2057.0,2060.0
-406,-3517,2055,0,-404.0,-406.0,-3516.0,-3516.0,2055.0,2057.0
-410,-3515,2054,0,-406.0,-404.0,-3517.0,-3516.0,2055.0,2055.0
-411,-3512,2055,0,-410.0,-406.0,-3515.0,-3517.0,2054.0,2055.0
-414,-3507,2054,0,-411.0,-410.0,-3512.0,-3515.0,2055.0,2054.0
-414,-3506,2052,0,-414.0,-411.0,-3507.0,-3512.0,2054.0,2055.0
-413,-3505,2051,0,-414.0,-414.0,-3506.0,-3507.0,2052.0,2054.0
-411,-3503,2052,0,-413.0,-414.0,-3505.0,-3506.0,2051.0,2052.0
-412,-3504,2052,0,-411.0,-413.0,-3503.0,-3505.0,2052.0,2051.0
-411,-3505,2046,0,-412.0,-411.0,-3504.0,-3503.0,2052.0,2052.0
-410,-3507,2047,0,-411.0,-412.0,-3505.0,-3504.0,2046.0,2052.0
-405,-3507,2053,0,-410.0,-411.0,-3507.0,-3505.0,2047.0,2046.0
-407,-3506,2050,0,-405.0,-410.0,-3507.0,-3507.0,2053.0,2047.0
-404,-3509,2051,0,-407.0,-405.0,-3506.0,-3507.0,2050.0,2053.0
-407,-3505,2049,0,-404.0,-407.0,-3509.0,-3506.0,2051.0,2050.0
-407,-3510,2047,0,-407.0,-404.0,-3505.0,-3509.0,2049.0,2051.0
-407,-3513,2041,0,-407.0,-407.0,-3510.0,-3505.0,2047.0,2049.0
-406,-3512,2042,0,-407.0,-407.0,-3513.0,-3510.0,2041.0,2047.0
-409,-3514,2042,0,-406.0,-407.0,-3512.0,-3513.0,2042.0,2041.0
-409,-3516,2043,0,-409.0,-406.0,-3514.0,-3512.0,2042.0,2042.0
-410,-3519,2044,0,-409.0,-409.0,-3516.0,-3514.0,2043.0,2042.0
-410,-3517,2043,0,-410.0,-409.0,-3519.0,-3516.0,2044.0,2043.0
-410,-3518,2039,0,-410.0,-410.0,-3517.0,-3519.0,2043.0,2044.0
-409,-3516,2035,0,-410.0,-410.0,-3518.0,-3517.0,2039.0,2043.0
-407,-3516,2038,0,-409.0,-410.0,-3516.0,-3518.0,2035.0,2039.0
-410,-3514,2036,0,-407.0,-409.0,-3516.0,-3516.0,2038.0,2035.0
-408,-3516,2034,0,-410.0,-407.0,-3514.0,-3516.0,2036.0,2038.0
-409,-3520,2028,0,-408.0,-410.0,-3516.0,-3514.0,2034.0,2036.0
-412,-3522,2028,0,-409.0,-408.0,-3520.0,-3516.0,2028.0,2034.0
-411,-3522,2029,0,-412.0,-409.0,-3522.0,-3520.0,2028.0,2028.0
-408,-3520,2029,0,-411.0,-412.0,-3522.0,-3522.0,2029.0,2028.0
-404,-3526,2031,0,-408.0,-411.0,-3520.0,-3522.0,2029.0,2029.0
-403,-3524,2032,0,-404.0,-408.0,-3526.0,-3520.0,2031.0,2029.0
-404,-3523,2028,0,-403.0,-404.0,-3524.0,-3526.0,2032.0,2031.0
-403,-3526,2029,0,-404.0,-403.0,-3523.0,-3524.0,2028.0,2032.0
-400,-3525,2027,0,-403.0,-404.0,-3526.0,-3523.0,2029.0,2028.0
-395,-3525,2028,0,-400.0,-403.0,-3525.0,-3526.0,2027.0,2029.0
-393,-3527,2028,0,-395.0,-400.0,-3525.0,-3525.0,2028.0,2027.0
-392,-3529,2030,0,-393.0,-395.0,-3527.0,-3525.0,2028.0,2028.0
-396,-3528,2028,0,-392.0,-393.0,-3529.0,-3527.0,2030.0,2028.0
-397,-3527,2026,0,-396.0,-392.0,-3528.0,-3529.0,2028.0,2030.0
-401,-3530,2021,0,-397.0,-396.0,-3527.0,-3528.0,2026.0,2028.0
-403,-3531,2023,0,-401.0,-397.0,-3530.0,-3527.0,2021.0,2026.0
-405,-3536,2025,0,-403.0,-401.0,-3531.0,-3530.0,2023.0,2021.0
-407,-3539,2024,0,-405.0,-403.0,-3536.0,-3531.0,2025.0,2023.0
-410,-3543,2022,0,-407.0,-405.0,-3539.0,-3536.0,2024.0,2025.0
-413,-3543,2023,0,-410.0,-407.0,-3543.0,-3539.0,2022.0,2024.0
-413,-3547,2024,0,-413.0,-410.0,-3543.0,-3543.0,2023.0,2022.0
-413,-3548,2023,0,-413.0,-413.0,-3547.0,-3543.0,2024.0,2023.0
-415,-3550,2020,0,-413.0,-413.0,-3548.0,-3547.0,2023.0,2024.0
-412,-3553,2019,0,-415.0,-413.0,-3550.0,-3548.0,2020.0,2023.0
-408,-3548,2013,0,-412.0,-415.0,-3553.0,-3550.0,2019.0,2020.0
-403,-3548,2011,0,-408.0,-412.0,-3548.0,-3553.0,2013.0,2019.0
-405,-3554,2007,0,-403.0,-408.0,-3548.0,-3548.0,2011.0,2013.0
-404,-3558,2011,0,-405.0,-403.0,-3554.0,-3548.0,2007.0,2011.0
-401,-3561,2005,0,-404.0,-405.0,-3558.0,-3554.0,2011.0,2007.0
-401,-3563,2005,0,-401.0,-404.0,-3561.0,-3558.0,2005.0,2011.0
-400,-3567,2000,0,-401.0,-401.0,-3563.0,-3561.0,2005.0,2005.0
-396,-3569,2000,0,-400.0,-401.0,-3567.0,-3563.0,2000.0,2005.0
-398,-3577,1998,0,-396.0,-400.0,-3569.0,-3567.0,2000.0,2000.0
-397,-3580,1997,0,-398.0,-396.0,-3577.0,-3569.0,1998.0,2000.0
-393,-3582,1996,0,-397.0,-398.0,-3580.0,-3577.0,1997.0,1998.0
-388,-3584,1999,0,-393.0,-397.0,-3582.0,-3580.0,1996.0,1997.0
-387,-3587,2004,0,-388.0,-393.0,-3584.0,-3582.0,1999.0,1996.0
-383,-3586,2003,0,-387.0,-388.0,-3587.0,-3584.0,2004.0,1999.0
-378,-3589,2000,0,-383.0,-387.0,-3586.0,-3587.0,2003.0,2004.0
-372,-3591,1995,0,-378.0,-383.0,-3589.0,-3586.0,2000.0,2003.0
-372,-3590,1987,0,-372.0,-378.0,-3591.0,-3589.0,1995.0,2000.0
-373,-3592,1977,0,-372.0,-372.0,-3590.0,-3591.0,1987.0,1995.0
-373,-3591,1976,0,-373.0,-372.0,-3592.0,-3590.0,1977.0,1987.0
-371,-3593,1981,0,-373.0,-373.0,-3591.0,-3592.0,1976.0,1977.0
-370,-3593,1986,0,-371.0,-373.0,-3593.0,-3591.0,1981.0,1976.0
-370,-3592,1989,0,-370.0,-371.0,-3593.0,-3593.0,1986.0,1981.0
-376,-3589,1990,0,-370.0,-370.0,-3592.0,-3593.0,1989.0,1986.0
-378,-3587,1996,0,-376.0,-370.0,-3589.0,-3592.0,1990.0,1989.0
-377,-3582,1998,0,-378.0,-376.0,-3587.0,-3589.0,1996.0,1990.0
-375,-3579,1998,0,-377.0,-378.0,-3582.0,-3587.0,1998.0,1996.0
-380,-3570,1988,0,-375.0,-377.0,-3579.0,-3582.0,1998.0,1998.0
-384,-3567,1983,0,-380.0,-375.0,-3570.0,-3579.0,1988.0,1998.0
-389,-3563,1974,0,-384.0,-380.0,-3567.0,-3570.0,1983.0,1988.0
-397,-3555,1970,0,-389.0,-384.0,-3563.0,-3567.0,1974.0,1983.0
-406,-3552,1970,0,-397.0,-389.0,-3555.0,-3563.0,1970.0,1974.0
-407,-3547,1975,0,-406.0,-397.0,-3552.0,-3555.0,1970.0,1970.0
-407,-3548,1975,0,-407.0,-406.0,-3547.0,-3552.0,1975.0,1970.0
-410,-3550,1973,0,-407.0,-407.0,-3548.0,-3547.0,1975.0,1975.0
-419,-3553,1973,0,-410.0,-407.0,-3550.0,-3548.0,1973.0,1975.0
-423,-3554,1971,0,-419.0,-410.0,-3553.0,-3550.0,1973.0,1973.0
-428,-3553,1971,0,-423.0,-419.0,-3554.0,-3553.0,1971.0,1973.0
-426,-3556,1982,0,-428.0,-423.0,-3553.0,-3554.0,1971.0,1971.0
-420,-3562,1981,0,-426.0,-428.0,-3556.0,-3553.0,1982.0,1971.0
-416,-3569,1982,0,-420.0,-426.0,-3562.0,-3556.0,1981.0,1982.0
-410,-3584,1975,0,-416.0,-420.0,-3569.0,-3562.0,1982.0,1981.0
-404,-3593,1967,0,-410.0,-416.0,-3584.0,-3569.0,1975.0,1982.0
-394,-3607,1969,0,-404.0,-410.0,-3593.0,-3584.0,1967.0,1975.0
-381,-3619,1969,0,-394.0,-404.0,-3607.0,-3593.0,1969.0,1967.0
-378,-3629,1967,0,-381.0,-394.0,-3619.0,-3607.0,1969.0,1969.0
-378,-3641,1959,0,-378.0,-381.0,-3629.0,-3619.0,1967.0,1969.0
-383,-3652,1942,0,-378.0,-378.0,-3641.0,-3629.0,1959.0,1967.0
-388,-3665,1935,0,-383.0,-378.0,-3652.0,-3641.0,1942.0,1959.0
-391,-3666,1937,0,-388.0,-383.0,-3665.0,-3652.0,1935.0,1942.0
-391,-3659,1958,0,-391.0,-388.0,-3666.0,-3665.0,1937.0,1935.0
-388,-3642,1988,0,-391.0,-391.0,-3659.0,-3666.0,1958.0,1937.0
-381,-3618,2013,0,-388.0,-391.0,-3642.0,-3659.0,1988.0,1958.0
-380,-3594,2024,0,-381.0,-388.0,-3618.0,-3642.0,2013.0,1988.0
-382,-3577,2021,0,-380.0,-381.0,-3594.0,-3618.0,2024.0,2013.0
-387,-3566,2016,0,-382.0,-380.0,-3577.0,-3594.0,2021.0,2024.0
-396,-3549,2007,0,-387.0,-382.0,-3566.0,-3577.0,2016.0,2021.0
-409,-3534,1997,0,-396.0,-387.0,-3549.0,-3566.0,2007.0,2016.0
-426,-3529,1978,0,-409.0,-396.0,-3534.0,-3549.0,1997.0,2007.0
-447,-3531,1953,0,-426.0,-409.0,-3529.0,-3534.0,1978.0,1997.0
-470,-3542,1926,0,-447.0,-426.0,-3531.0,-3529.0,1953.0,1978.0
-493,-3556,1901,0,-470.0,-447.0,-3542.0,-3531.0,1926.0,1953.0
-510,-3571,1886,0,-493.0,-470.0,-3556.0,-3542.0,1901.0,1926.0
-516,-3594,1877,0,-510.0,-493.0,-3571.0,-3556.0,1886.0,1901.0
-521,-3617,1870,0,-516.0,-510.0,-3594.0,-3571.0,1877.0,1886.0
-527,-3641,1869,0,-521.0,-516.0,-3617.0,-3594.0,1870.0,1877.0
-530,-3654,1862,0,-527.0,-521.0,-3641.0,-3617.0,1869.0,1870.0
-530,-3662,1852,0,-530.0,-527.0,-3654.0,-3641.0,1862.0,1869.0
-528,-3664,1853,0,-530.0,-530.0,-3662.0,-3654.0,1852.0,1862.0
-520,-3662,1874,0,-528.0,-530.0,-3664.0,-3662.0,1853.0,1852.0
-496,-3659,1909,0,-520.0,-528.0,-3662.0,-3664.0,1874.0,1853.0
-468,-3654,1944,0,-496.0,-520.0,-3659.0,-3662.0,1909.0,1874.0
-440,-3646,1973,0,-468.0,-496.0,-3654.0,-3659.0,1944.0,1909.0
-413,-3645,1989,0,-440.0,-468.0,-3646.0,-3654.0,1973.0,1944.0
-390,-3650,1994,0,-413.0,-440.0,-3645.0,-3646.0,1989.0,1973.0
-369,-3656,1997,0,-390.0,-413.0,-3650.0,-3645.0,1994.0,1989.0
-358,-3663,1997,0,-369.0,-390.0,-3656.0,-3650.0,1997.0,1994.0
-351,-3669,1997,0,-358.0,-369.0,-3663.0,-3656.0,1997.0,1997.0
-342,-3674,1995,0,-351.0,-358.0,-3669.0,-3663.0,1997.0,1997.0
-334,-3681,1993,0,-342.0,-351.0,-3674.0,-3669.0,1995.0,1997.0
-326,-3683,1987,0,-334.0,-342.0,-3681.0,-3674.0,1993.0,1995.0
-312,-3685,1996,0,-326.0,-334.0,-3683.0,-3681.0,1987.0,1993.0
-287,-3690,2008,0,-312.0,-326.0,-3685.0,-3683.0,1996.0,1987.0
-267,-3691,2006,0,-287.0,-312.0,-3690.0,-3685.0,2008.0,1996.0
-251,-3678,1995,0,-267.0,-287.0,-3691.0,-3690.0,2006.0,2008.0
-240,-3645,1968,0,-251.0,-267.0,-3678.0,-3691.0,1995.0,2006.0
-225,-3599,1939,0,-240.0,-251.0,-3645.0,-3678.0,1968.0,1995.0
-215,-3545,1918,0,-225.0,-240.0,-3599.0,-3645.0,1939.0,1968.0
-198,-3481,1915,0,-215.0,-225.0,-3545.0,-3599.0,1918.0,1939.0
-169,-3416,1941,0,-198.0,-215.0,-3481.0,-3545.0,1915.0,1918.0
-129,-3365,1991,0,-169.0,-198.0,-3416.0,-3481.0,1941.0,1915.0
-74,-3317,2052,0,-129.0,-169.0,-3365.0,-3416.0,1991.0,1941.0
-28,-3286,2109,0,-74.0,-129.0,-3317.0,-3365.0,2052.0,1991.0
8,-3267,2140,0,-28.0,-74.0,-3286.0,-3317.0,2109.0,2052.0
11,-3253,2129,0,8.0,-28.0,-3267.0,-3286.0,2140.0,2109.0
-8,-3234,2110,0,11.0,8.0,-3253.0,-3267.0,2129.0,2140.0
-55,-3206,2073,0,-8.0,11.0,-3234.0,-3253.0,2110.0,2129.0
-121,-3201,2056,0,-55.0,-8.0,-3206.0,-3234.0,2073.0,2110.0
-198,-3208,2047,0,-121.0,-55.0,-3201.0,-3206.0,2056.0,2073.0
-290,-3219,2015,0,-198.0,-121.0,-3208.0,-3201.0,2047.0,2056.0
-380,-3245,1995,0,-290.0,-198.0,-3219.0,-3208.0,2015.0,2047.0
-466,-3276,1997,0,-380.0,-290.0,-3245.0,-3219.0,1995.0,2015.0
-539,-3305,2007,0,-466.0,-380.0,-3276.0,-3245.0,1997.0,1995.0
-600,-3327,2020,0,-539.0,-466.0,-3305.0,-3276.0,2007.0,1997.0
-636,-3356,2043,0,-600.0,-539.0,-3327.0,-3305.0,2020.0,2007.0
-646,-3384,2057,0,-636.0,-600.0,-3356.0,-3327.0,2043.0,2020.0
-636,-3408,2059,0,-646.0,-636.0,-3384.0,-3356.0,2057.0,2043.0
-607,-3427,2057,0,-636.0,-646.0,-3408.0,-3384.0,2059.0,2057.0
-566,-3440,2059,0,-607.0,-636.0,-3427.0,-3408.0,2057.0,2059.0
-517,-3443,2068,0,-566.0,-607.0,-3440.0,-3427.0,2059.0,2057.0
-459,-3440,2074,0,-517.0,-566.0,-3443.0,-3440.0,2068.0,2059.0
-397,-3439,2072,0,-459.0,-517.0,-3440.0,-3443.0,2074.0,2068.0
-346,-3436,2062,0,-397.0,-459.0,-3439.0,-3440.0,2072.0,2074.0
-309,-3430,2059,0,-346.0,-397.0,-3436.0,-3439.0,2062.0,2072.0
-287,-3431,2075,0,-309.0,-346.0,-3430.0,-3436.0,2059.0,2062.0
-284,-3428,2094,0,-287.0,-309.0,-3431.0,-3430.0,2075.0,2059.0
-296,-3432,2109,0,-284.0,-287.0,-3428.0,-3431.0,2094.0,2075.0
-312,-3455,2123,0,-296.0,-284.0,-3432.0,-3428.0,2109.0,2094.0
-322,-3485,2137,0,-312.0,-296.0,-3455.0,-3432.0,2123.0,2109.0
-337,-3507,2131,0,-322.0,-312.0,-3485.0,-3455.0,2137.0,2123.0
-353,-3536,2139,0,-337.0,-322.0,-3507.0,-3485.0,2131.0,2137.0
-358,-3549,2180,0,-353.0,-337.0,-3536.0,-3507.0,2139.0,2131.0
-355,-3534,2230,0,-358.0,-353.0,-3549.0,-3536.0,2180.0,2139.0
-344,-3512,2273,0,-355.0,-358.0,-3534.0,-3549.0,2230.0,2180.0
-334,-3483,2304,0,-344.0,-355.0,-3512.0,-3534.0,2273.0,2230.0
-324,-3451,2319,0,-334.0,-344.0,-3483.0,-3512.0,2304.0,2273.0
-324,-3414,2327,0,-324.0,-334.0,-3451.0,-3483.0,2319.0,2304.0
-327,-3382,2339,0,-324.0,-324.0,-3414.0,-3451.0,2327.0,2319.0
-338,-3345,2353,0,-327.0,-324.0,-3382.0,-3414.0,2339.0,2327.0
-357,-3312,2368,0,-338.0,-327.0,-3345.0,-3382.0,2353.0,2339.0
-379,-3285,2368,0,-357.0,-338.0,-3312.0,-3345.0,2368.0,2353.0
-405,-3269,2359,0,-379.0,-357.0,-3285.0,-3312.0,2368.0,2368.0
-432,-3254,2348,0,-405.0,-379.0,-3269.0,-3285.0,2359.0,2368.0
-456,-3236,2347,0,-432.0,-405.0,-3254.0,-3269.0,2348.0,2359.0
-479,-3215,2350,0,-456.0,-432.0,-3236.0,-3254.0,2347.0,2348.0
-497,-3184,2369,0,-479.0,-456.0,-3215.0,-3236.0,2350.0,2347.0
-497,-3144,2402,0,-497.0,-479.0,-3184.0,-3215.0,2369.0,2350.0
-486,-3103,2436,0,-497.0,-497.0,-3144.0,-3184.0,2402.0,2369.0
-473,-3065,2464,0,-486.0,-497.0,-3103.0,-3144.0,2436.0,2402.0
-461,-3030,2470,0,-473.0,-486.0,-3065.0,-3103.0,2464.0,2436.0
-447,-2991,2477,0,-461.0,-473.0,-3030.0,-3065.0,2470.0,2464.0
-432,-2956,2485,0,-447.0,-461.0,-2991.0,-3030.0,2477.0,2470.0
-419,-2932,2498,0,-432.0,-447.0,-2956.0,-2991.0,2485.0,2477.0
-415,-2918,2521,0,-419.0,-432.0,-2932.0,-2956.0,2498.0,2485.0
-416,-2915,2542,0,-415.0,-419.0,-2918.0,-2932.0,2521.0,2498.0
-412,-2922,2573,0,-416.0,-415.0,-2915.0,-2918.0,2542.0,2521.0
-408,-2938,2607,0,-412.0,-416.0,-2922.0,-2915.0,2573.0,2542.0
-413,-2966,2630,0,-408.0,-412.0,-2938.0,-2922.0,2607.0,2573.0
-414,-3007,2637,0,-413.0,-408.0,-2966.0,-2938.0,2630.0,2607.0
-411,-3061,2641,0,-414.0,-413.0,-3007.0,-2966.0,2637.0,2630.0
-416,-3100,2641,0,-411.0,-414.0,-3061.0,-3007.0,2641.0,2637.0
-419,-3141,2638,0,-416.0,-411.0,-3100.0,-3061.0,2641.0,2641.0
-422,-3178,2625,0,-419.0,-416.0,-3141.0,-3100.0,2638.0,2641.0
-431,-3199,2632,0,-422.0,-419.0,-3178.0,-3141.0,2625.0,2638.0
-442,-3202,2630,0,-431.0,-422.0,-3199.0,-3178.0,2632.0,2625.0
-455,-3200,2617,0,-442.0,-431.0,-3202.0,-3199.0,2630.0,2632.0
-469,-3208,2595,0,-455.0,-442.0,-3200.0,-3202.0,2617.0,2630.0
-479,-3208,2575,0,-469.0,-455.0,-3208.0,-3200.0,2595.0,2617.0
-485,-3204,2568,0,-479.0,-469.0,-3208.0,-3208.0,2575.0,2595.0
-498,-3191,2587,0,-485.0,-479.0,-3204.0,-3208.0,2568.0,2575.0
-520,-3156,2637,0,-498.0,-485.0,-3191.0,-3204.0,2587.0,2568.0
-537,-3129,2671,0,-520.0,-498.0,-3156.0,-3191.0,2637.0,2587.0
-555,-3114,2683,0,-537.0,-520.0,-3129.0,-3156.0,2671.0,2637.0
-566,-3101,2675,0,-555.0,-537.0,-3114.0,-3129.0,2683.0,2671.0
-585,-3083,2663,0,-566.0,-555.0,-3101.0,-3114.0,2675.0,2683.0
-604,-3059,2659,0,-585.0,-566.0,-3083.0,-3101.0,2663.0,2675.0
-629,-3028,2676,0,-604.0,-585.0,-3059.0,-3083.0,2659.0,2663.0
-641,-3005,2703,0,-629.0,-604.0,-3028.0,-3059.0,2676.0,2659.0
-641,-2989,2719,0,-641.0,-629.0,-3005.0,-3028.0,2703.0,2676.0
-623,-2981,2732,0,-641.0,-641.0,-2989.0,-3005.0,2719.0,2703.0
-594,-2965,2744,0,-623.0,-641.0,-2981.0,-2989.0,2732.0,2719.0
-560,-2948,2743,0,-594.0,-623.0,-2965.0,-2981.0,2744.0,2732.0
-532,-2931,2742,0,-560.0,-594.0,-2948.0,-2965.0,2743.0,2744.0
-499,-2914,2727,0,-532.0,-560.0,-2931.0,-2948.0,2742.0,2743.0
-463,-2907,2713,0,-499.0,-532.0,-2914.0,-2931.0,2727.0,2742.0
-437,-2906,2695,0,-463.0,-499.0,-2907.0,-2914.0,2713.0,2727.0
-420,-2910,2672,0,-437.0,-463.0,-2906.0,-2907.0,2695.0,2713.0
-415,-2915,2649,0,-420.0,-437.0,-2910.0,-2906.0,2672.0,2695.0
-421,-2924,2643,0,-415.0,-420.0,-2915.0,-2910.0,2649.0,2672.0
-443,-2933,2649,0,-421.0,-415.0,-2924.0,-2915.0,2643.0,2649.0
-477,-2942,2658,0,-443.0,-421.0,-2933.0,-2924.0,2649.0,2643.0
-511,-2957,2666,0,-477.0,-443.0,-2942.0,-2933.0,2658.0,2649.0
-548,-2974,2685,0,-511.0,-477.0,-2957.0,-2942.0,2666.0,2658.0
-587,-2985,2710,0,-548.0,-511.0,-2974.0,-2957.0,2685.0,2666.0
-622,-2983,2730,0,-587.0,-548.0,-2985.0,-2974.0,2710.0,2685.0
-649,-2983,2753,0,-622.0,-587.0,-2983.0,-2985.0,2730.0,2710.0
-671,-2979,2760,0,-649.0,-622.0,-2983.0,-2983.0,2753.0,2730.0
-687,-2969,2745,0,-671.0,-649.0,-2979.0,-2983.0,2760.0,2753.0
-705,-2956,2725,0,-687.0,-671.0,-2969.0,-2979.0,2745.0,2760.0
-716,-2941,2706,0,-705.0,-687.0,-2956.0,-2969.0,2725.0,2745.0
-735,-2924,2697,0,-716.0,-705.0,-2941.0,-2956.0,2706.0,2725.0
-750,-2914,2703,0,-735.0,-716.0,-2924.0,-2941.0,2697.0,2706.0
-766,-2899,2700,0,-750.0,-735.0,-2914.0,-2924.0,2703.0,2697.0
-792,-2881,2691,0,-766.0,-750.0,-2899.0,-2914.0,2700.0,2703.0
-819,-2873,2688,0,-792.0,-766.0,-2881.0,-2899.0,2691.0,2700.0
-846,-2882,2678,0,-819.0,-792.0,-2873.0,-2881.0,2688.0,2691.0
-884,-2887,2675,0,-846.0,-819.0,-2882.0,-2873.0,2678.0,2688.0
-921,-2906,2699,0,-884.0,-846.0,-2887.0,-2882.0,2675.0,2678.0
-936,-2946,2728,0,-921.0,-884.0,-2906.0,-2887.0,2699.0,2675.0
-934,-2978,2748,0,-936.0,-921.0,-2946.0,-2906.0,2728.0,2699.0
-923,-3003,2748,0,-934.0,-936.0,-2978.0,-2946.0,2748.0,2728.0
-909,-3016,2752,0,-923.0,-934.0,-3003.0,-2978.0,2748.0,2748.0
-898,-3017,2761,0,-909.0,-923.0,-3016.0,-3003.0,2752.0,2748.0
-895,-3009,2765,0,-898.0,-909.0,-3017.0,-3016.0,2761.0,2752.0
-892,-3003,2779,0,-895.0,-898.0,-3009.0,-3017.0,2765.0,2761.0
-880,-3007,2802,0,-892.0,-895.0,-3003.0,-3009.0,2779.0,2765.0
-860,-3013,2828,0,-880.0,-892.0,-3007.0,-3003.0,2802.0,2779.0
-822,-3017,2845,0,-860.0,-880.0,-3013.0,-3007.0,2828.0,2802.0
-777,-3018,2860,0,-822.0,-860.0,-3017.0,-3013.0,2845.0,2828.0
-737,-3023,2881,0,-777.0,-822.0,-3018.0,-3017.0,2860.0,2845.0
-700,-3021,2904,0,-737.0,-777.0,-3023.0,-3018.0,2881.0,2860.0
-672,-3018,2940,0,-700.0,-737.0,-3021.0,-3023.0,2904.0,2881.0
-662,-3019,2978,0,-672.0,-700.0,-3018.0,-3021.0,2940.0,2904.0
-654,-3024,3029,0,-662.0,-672.0,-3019.0,-3018.0,2978.0,2940.0
-662,-3012,3044,0,-654.0,-662.0,-3024.0,-3019.0,3029.0,2978.0
-680,-2996,3049,0,-662.0,-654.0,-3012.0,-3024.0,3044.0,3029.0
-698,-2978,3049,0,-680.0,-662.0,-2996.0,-3012.0,3049.0,3044.0
-717,-2944,3047,0,-698.0,-680.0,-2978.0,-2996.0,3049.0,3049.0
-734,-2899,3051,0,-717.0,-698.0,-2944.0,-2978.0,3047.0,3049.0
-742,-2841,3074,0,-734.0,-717.0,-2899.0,-2944.0,3051.0,3047.0
-749,-2776,3109,0,-742.0,-734.0,-2841.0,-2899.0,3074.0,3051.0
-757,-2714,3152,0,-749.0,-742.0,-2776.0,-2841.0,3109.0,3074.0
-762,-2650,3187,0,-757.0,-749.0,-2714.0,-2776.0,3152.0,3109.0
-778,-2585,3197,0,-762.0,-757.0,-2650.0,-2714.0,3187.0,3152.0
-799,-2516,3198,0,-778.0,-762.0,-2585.0,-2650.0,3197.0,3187.0
-824,-2434,3208,0,-799.0,-778.0,-2516.0,-2585.0,3198.0,3197.0
-837,-2364,3240,0,-824.0,-799.0,-2434.0,-2516.0,3208.0,3198.0
-848,-2307,3281,0,-837.0,-824.0,-2364.0,-2434.0,3240.0,3208.0
-859,-2261,3328,0,-848.0,-837.0,-2307.0,-2364.0,3281.0,3240.0
-879,-2224,3360,0,-859.0,-848.0,-2261.0,-2307.0,3328.0,3281.0
-911,-2191,3386,0,-879.0,-859.0,-2224.0,-2261.0,3360.0,3328.0
-939,-2173,3409,0,-911.0,-879.0,-2191.0,-2224.0,3386.0,3360.0
-962,-2156,3427,0,-939.0,-911.0,-2173.0,-2191.0,3409.0,3386.0
-984,-2135,3448,0,-962.0,-939.0,-2156.0,-2173.0,3427.0,3409.0
-996,-2122,3480,0,-984.0,-962.0,-2135.0,-2156.0,3448.0,3427.0
-1003,-2117,3534,0,-996.0,-984.0,-2122.0,-2135.0,3480.0,3448.0
-1014,-2096,3588,0,-1003.0,-996.0,-2117.0,-2122.0,3534.0,3480.0
-1034,-2076,3629,0,-1014.0,-1003.0,-2096.0,-2117.0,3588.0,3534.0
-1043,-2057,3657,0,-1034.0,-1014.0,-2076.0,-2096.0,3629.0,3588.0
-1033,-2049,3682,0,-1043.0,-1034.0,-2057.0,-2076.0,3657.0,3629.0
-1017,-2022,3681,0,-1033.0,-1043.0,-2049.0,-2057.0,3682.0,3657.0
-989,-2002,3677,0,-1017.0,-1033.0,-2022.0,-2049.0,3681.0,3682.0
-961,-1966,3675,0,-989.0,-1017.0,-2002.0,-2022.0,3677.0,3681.0
-941,-1921,3660,0,-961.0,-989.0,-1966.0,-2002.0,3675.0,3677.0
-931,-1879,3620,0,-941.0,-961.0,-1921.0,-1966.0,3660.0,3675.0
-934,-1833,3601,0,-931.0,-941.0,-1879.0,-1921.0,3620.0,3660.0
-945,-1784,3593,0,-934.0,-931.0,-1833.0,-1879.0,3601.0,3620.0
-965,-1732,3575,0,-945.0,-934.0,-1784.0,-1833.0,3593.0,3601.0
-986,-1681,3557,0,-965.0,-945.0,-1732.0,-1784.0,3575.0,3593.0
-1003,-1649,3559,0,-986.0,-965.0,-1681.0,-1732.0,3557.0,3575.0
-1012,-1636,3564,0,-1003.0,-986.0,-1649.0,-1681.0,3559.0,3557.0
-1028,-1627,3574,0,-1012.0,-1003.0,-1636.0,-1649.0,3564.0,3559.0
-1043,-1620,3584,0,-1028.0,-1012.0,-1627.0,-1636.0,3574.0,3564.0
-1059,-1628,3603,0,-1043.0,-1028.0,-1620.0,-1627.0,3584.0,3574.0
-1068,-1650,3628,0,-1059.0,-1043.0,-1628.0,-1620.0,3603.0,3584.0
-1077,-1676,3650,0,-1068.0,-1059.0,-1650.0,-1628.0,3628.0,3603.0
-1096,-1699,3663,0,-1077.0,-1068.0,-1676.0,-1650.0,3650.0,3628.0
-1122,-1723,3658,0,-1096.0,-1077.0,-1699.0,-1676.0,3663.0,3650.0
-1153,-1744,3647,0,-1122.0,-1096.0,-1723.0,-1699.0,3658.0,3663.0
-1186,-1767,3625,0,-1153.0,-1122.0,-1744.0,-1723.0,3647.0,3658.0
-1199,-1786,3595,0,-1186.0,-1153.0,-1767.0,-1744.0,3625.0,3647.0
-1203,-1789,3577,0,-1199.0,-1186.0,-1786.0,-1767.0,3595.0,3625.0
-1195,-1787,3582,0,-1203.0,-1199.0,-1789.0,-1786.0,3577.0,3595.0
-1201,-1782,3574,0,-1195.0,-1203.0,-1787.0,-1789.0,3582.0,3577.0
-1217,-1774,3564,0,-1201.0,-1195.0,-1782.0,-1787.0,3574.0,3582.0
-1237,-1778,3559,0,-1217.0,-1201.0,-1774.0,-1782.0,3564.0,3574.0
-1254,-1794,3575,0,-1237.0,-1217.0,-1778.0,-1774.0,3559.0,3564.0
-1251,-1812,3631,0,-1254.0,-1237.0,-1794.0,-1778.0,3575.0,3559.0
-1223,-1821,3688,0,-1251.0,-1254.0,-1812.0,-1794.0,3631.0,3575.0
-1179,-1807,3721,0,-1223.0,-1251.0,-1821.0,-1812.0,3688.0,3631.0
-1123,-1776,3734,0,-1179.0,-1223.0,-1807.0,-1821.0,3721.0,3688.0
-1069,-1738,3729,0,-1123.0,-1179.0,-1776.0,-1807.0,3734.0,3721.0
-1020,-1699,3743,0,-1069.0,-1123.0,-1738.0,-1776.0,3729.0,3734.0
-961,-1686,3768,0,-1020.0,-1069.0,-1699.0,-1738.0,3743.0,3729.0
-901,-1675,3796,0,-961.0,-1020.0,-1686.0,-1699.0,3768.0,3743.0
-834,-1664,3808,0,-901.0,-961.0,-1675.0,-1686.0,3796.0,3768.0
-763,-1642,3796,0,-834.0,-901.0,-1664.0,-1675.0,3808.0,3796.0
-701,-1614,3774,0,-763.0,-834.0,-1642.0,-1664.0,3796.0,3808.0
-659,-1574,3751,0,-701.0,-763.0,-1614.0,-1642.0,3774.0,3796.0
-655,-1529,3728,0,-659.0,-701.0,-1574.0,-1614.0,3751.0,3774.0
-673,-1486,3697,0,-655.0,-659.0,-1529.0,-1574.0,3728.0,3751.0
-718,-1446,3667,0,-673.0,-655.0,-1486.0,-1529.0,3697.0,3728.0
-770,-1397,3630,0,-718.0,-673.0,-1446.0,-1486.0,3667.0,3697.0
-809,-1351,3598,0,-770.0,-718.0,-1397.0,-1446.0,3630.0,3667.0
-839,-1311,3582,0,-809.0,-770.0,-1351.0,-1397.0,3598.0,3630.0
-864,-1293,3580,0,-839.0,-809.0,-1311.0,-1351.0,3582.0,3598.0
-877,-1295,3576,0,-864.0,-839.0,-1293.0,-1311.0,3580.0,3582.0
-875,-1317,3578,0,-877.0,-864.0,-1295.0,-1293.0,3576.0,3580.0
-839,-1349,3588,0,-875.0,-877.0,-1317.0,-1295.0,3578.0,3576.0
-744,-1384,3616,0,-839.0,-875.0,-1349.0,-1317.0,3588.0,3578.0
-619,-1428,3653,0,-744.0,-839.0,-1384.0,-1349.0,3616.0,3588.0
-513,-1467,3685,0,-619.0,-744.0,-1428.0,-1384.0,3653.0,3616.0
-455,-1506,3697,0,-513.0,-619.0,-1467.0,-1428.0,3685.0,3653.0
-425,-1562,3697,0,-455.0,-513.0,-1506.0,-1467.0,3697.0,3685.0
-409,-1633,3691,0,-425.0,-455.0,-1562.0,-1506.0,3697.0,3697.0
-396,-1694,3690,0,-409.0,-425.0,-1633.0,-1562.0,3691.0,3697.0
-388,-1727,3685,0,-396.0,-409.0,-1694.0,-1633.0,3690.0,3691.0
-371,-1757,3678,0,-388.0,-396.0,-1727.0,-1694.0,3685.0,3690.0
-364,-1775,3680,0,-371.0,-388.0,-1757.0,-1727.0,3678.0,3685.0
-366,-1746,3680,0,-364.0,-371.0,-1775.0,-1757.0,3680.0,3678.0
-370,-1688,3701,0,-366.0,-364.0,-1746.0,-1775.0,3680.0,3680.0
-381,-1616,3739,0,-370.0,-366.0,-1688.0,-1746.0,3701.0,3680.0
-405,-1549,3754,0,-381.0,-370.0,-1616.0,-1688.0,3739.0,3701.0
-439,-1483,3754,0,-405.0,-381.0,-1549.0,-1616.0,3754.0,3739.0
-472,-1436,3743,0,-439.0,-405.0,-1483.0,-1549.0,3754.0,3754.0
-504,-1390,3720,0,-472.0,-439.0,-1436.0,-1483.0,3743.0,3754.0
-524,-1348,3695,0,-504.0,-472.0,-1390.0,-1436.0,3720.0,3743.0
-521,-1284,3675,0,-524.0,-504.0,-1348.0,-1390.0,3695.0,3720.0
-479,-1217,3650,0,-521.0,-524.0,-1284.0,-1348.0,3675.0,3695.0
-411,-1155,3647,0,-479.0,-521.0,-1217.0,-1284.0,3650.0,3675.0
-335,-1111,3665,0,-411.0,-479.0,-1155.0,-1217.0,3647.0,3650.0
-276,-1104,3685,0,-335.0,-411.0,-1111.0,-1155.0,3665.0,3647.0
-239,-1129,3699,0,-276.0,-335.0,-1104.0,-1111.0,3685.0,3665.0
-235,-1177,3712,0,-239.0,-276.0,-1129.0,-1104.0,3699.0,3685.0
-250,-1219,3731,0,-235.0,-239.0,-1177.0,-1129.0,3712.0,3699.0
-282,-1240,3752,0,-250.0,-235.0,-1219.0,-1177.0,3731.0,3712.0
-309,-1262,3740,0,-282.0,-250.0,-1240.0,-1219.0,3752.0,3731.0
-359,-1278,3724,0,-309.0,-282.0,-1262.0,-1240.0,3740.0,3752.0
-411,-1294,3706,0,-359.0,-309.0,-1278.0,-1262.0,3724.0,3740.0
-448,-1309,3702,0,-411.0,-359.0,-1294.0,-1278.0,3706.0,3724.0
-458,-1325,3696,0,-448.0,-411.0,-1309.0,-1294.0,3702.0,3706.0
-439,-1343,3705,0,-458.0,-448.0,-1325.0,-1309.0,3696.0,3702.0
-391,-1363,3710,0,-439.0,-458.0,-1343.0,-1325.0,3705.0,3696.0
-322,-1389,3725,0,-391.0,-439.0,-1363.0,-1343.0,3710.0,3705.0
-228,-1423,3725,0,-322.0,-391.0,-1389.0,-1363.0,3725.0,3710.0
-113,-1474,3712,0,-228.0,-322.0,-1423.0,-1389.0,3725.0,3725.0
-10,-1535,3690,0,-113.0,-228.0,-1474.0,-1423.0,3712.0,3725.0
52,-1579,3672,0,-10.0,-113.0,-1535.0,-1474.0,3690.0,3712.0
76,-1595,3646,0,52.0,-10.0,-1579.0,-1535.0,3672.0,3690.0
78,-1573,3641,0,76.0,52.0,-1595.0,-1579.0,3646.0,3672.0
83,-1542,3668,0,78.0,76.0,-1573.0,-1595.0,3641.0,3646.0
102,-1504,3700,0,83.0,78.0,-1542.0,-1573.0,3668.0,3641.0
135,-1479,3708,0,102.0,83.0,-1504.0,-1542.0,3700.0,3668.0
175,-1472,3671,0,135.0,102.0,-1479.0,-1504.0,3708.0,3700.0
211,-1479,3613,0,175.0,135.0,-1472.0,-1479.0,3671.0,3708.0
244,-1489,3558,0,211.0,175.0,-1479.0,-1472.0,3613.0,3671.0
276,-1509,3544,0,244.0,211.0,-1489.0,-1479.0,3558.0,3613.0
304,-1531,3553,0,276.0,244.0,-1509.0,-1489.0,3544.0,3558.0
345,-1551,3579,0,304.0,276.0,-1531.0,-1509.0,3553.0,3544.0
369,-1570,3596,0,345.0,304.0,-1551.0,-1531.0,3579.0,3553.0
364,-1574,3573,0,369.0,345.0,-1570.0,-1551.0,3596.0,3579.0
346,-1582,3541,0,364.0,369.0,-1574.0,-1570.0,3573.0,3596.0
337,-1591,3511,0,346.0,364.0,-1582.0,-1574.0,3541.0,3573.0
340,-1590,3475,0,337.0,346.0,-1591.0,-1582.0,3511.0,3541.0
359,-1589,3446,0,340.0,337.0,-1590.0,-1591.0,3475.0,3511.0
379,-1582,3448,0,359.0,340.0,-1589.0,-1590.0,3446.0,3475.0
414,-1577,3475,0,379.0,359.0,-1582.0,-1589.0,3448.0,3446.0
454,-1583,3517,0,414.0,379.0,-1577.0,-1582.0,3475.0,3448.0
504,-1606,3554,0,454.0,414.0,-1583.0,-1577.0,3517.0,3475.0
541,-1641,3573,0,504.0,454.0,-1606.0,-1583.0,3554.0,3517.0
579,-1683,3600,0,541.0,504.0,-1641.0,-1606.0,3573.0,3554.0
630,-1739,3635,0,579.0,541.0,-1683.0,-1641.0,3600.0,3573.0
