accelerometer_x,accelerometer_y,accelerometer_z,fall,x_lag_1,x_lag_2,y_lag_1,y_lag_2,z_lag_1,z_lag_2
3880,1406,-51,1,,,,,,
3874,1410,-52,1,3880.0,,1406.0,,-51.0,
3877,1416,-53,1,3874.0,3880.0,1410.0,1406.0,-52.0,-51.0
3880,1425,-54,1,3877.0,3874.0,1416.0,1410.0,-53.0,-52.0
3873,1427,-60,1,3880.0,3877.0,1425.0,1416.0,-54.0,-53.0
3868,1422,-68,1,3873.0,3880.0,1427.0,1425.0,-60.0,-54.0
3868,1425,-69,1,3868.0,3873.0,1422.0,1427.0,-68.0,-60.0
3869,1421,-67,1,3868.0,3868.0,1425.0,1422.0,-69.0,-68.0
3874,1427,-64,1,3869.0,3868.0,1421.0,1425.0,-67.0,-69.0
3874,1428,-63,1,3874.0,3869.0,1427.0,1421.0,-64.0,-67.0
3870,1427,-67,1,3874.0,3874.0,1428.0,1427.0,-63.0,-64.0
3872,1428,-69,1,3870.0,3874.0,1427.0,1428.0,-67.0,-63.0
3872,1434,-70,1,3872.0,3870.0,1428.0,1427.0,-69.0,-67.0
3869,1434,-66,1,3872.0,3872.0,1434.0,1428.0,-70.0,-69.0
3867,1428,-63,1,3869.0,3872.0,1434.0,1434.0,-66.0,-70.0
3874,1435,-66,1,3867.0,3869.0,1428.0,1434.0,-63.0,-66.0
3884,1443,-75,1,3874.0,3867.0,1435.0,1428.0,-66.0,-63.0
3886,1438,-76,1,3884.0,3874.0,1443.0,1435.0,-75.0,-66.0
3874,1445,-65,1,3886.0,3884.0,1438.0,1443.0,-76.0,-75.0
3866,1446,-62,1,3874.0,3886.0,1445.0,1438.0,-65.0,-76.0
3869,1438,-58,1,3866.0,3874.0,1446.0,1445.0,-62.0,-65.0
3875,1443,-58,1,3869.0,3866.0,1438.0,1446.0,-58.0,-62.0
3870,1443,-64,1,3875.0,3869.0,1443.0,1438.0,-58.0,-58.0
3866,1447,-70,1,3870.0,3875.0,1443.0,1443.0,-64.0,-58.0
3858,1453,-79,1,3866.0,3870.0,1447.0,1443.0,-70.0,-64.0
3853,1457,-85,1,3858.0,3866.0,1453.0,1447.0,-79.0,-70.0
3858,1461,-89,1,3853.0,3858.0,1457.0,1453.0,-85.0,-79.0
3859,1472,-88,1,3858.0,3853.0,1461.0,1457.0,-89.0,-85.0
3856,1470,-94,1,3859.0,3858.0,1472.0,1461.0,-88.0,-89.0
3859,1473,-90,1,3856.0,3859.0,1470.0,1472.0,-94.0,-88.0
3858,1474,-94,1,3859.0,3856.0,1473.0,1470.0,-90.0,-94.0
3851,1487,-93,1,3858.0,3859.0,1474.0,1473.0,-94.0,-90.0
3842,1498,-90,1,3851.0,3858.0,1487.0,1474.0,-93.0,-94.0
3835,1502,-97,1,3842.0,3851.0,1498.0,1487.0,-90.0,-93.0
3834,1513,-93,1,3835.0,3842.0,1502.0,1498.0,-97.0,-90.0
3828,1513,-99,1,3834.0,3835.0,1513.0,1502.0,-93.0,-97.0
3824,1515,-100,1,3828.0,3834.0,1513.0,1513.0,-99.0,-93.0
3830,1511,-103,1,3824.0,3828.0,1515.0,1513.0,-100.0,-99.0
3842,1507,-103,1,3830.0,3824.0,1511.0,1515.0,-103.0,-100.0
3853,1505,-109,1,3842.0,3830.0,1507.0,1511.0,-103.0,-103.0
3849,1507,-111,1,3853.0,3842.0,1505.0,1507.0,-109.0,-103.0
3847,1505,-115,1,3849.0,3853.0,1507.0,1505.0,-111.0,-109.0
3845,1501,-119,1,3847.0,3849.0,1505.0,1507.0,-115.0,-111.0
3842,1497,-118,1,3845.0,3847.0,1501.0,1505.0,-119.0,-115.0
3840,1500,-119,1,3842.0,3845.0,1497.0,1501.0,-118.0,-119.0
3837,1498,-115,1,3840.0,3842.0,1500.0,1497.0,-119.0,-118.0
3836,1490,-110,1,3837.0,3840.0,1498.0,1500.0,-115.0,-119.0
3828,1480,-101,1,3836.0,3837.0,1490.0,1498.0,-110.0,-115.0
3840,1473,-98,1,3828.0,3836.0,1480.0,1490.0,-101.0,-110.0
3837,1474,-95,1,3840.0,3828.0,1473.0,1480.0,-98.0,-101.0
3836,1473,-98,1,3837.0,3840.0,1474.0,1473.0,-95.0,-98.0
3830,1464,-95,1,3836.0,3837.0,1473.0,1474.0,-98.0,-95.0
3838,1454,-91,1,3830.0,3836.0,1464.0,1473.0,-95.0,-98.0
3836,1445,-91,1,3838.0,3830.0,1454.0,1464.0,-91.0,-95.0
3850,1441,-93,1,3836.0,3838.0,1445.0,1454.0,-91.0,-91.0
3856,1441,-92,1,3850.0,3836.0,1441.0,1445.0,-93.0,-91.0
3860,1441,-90,1,3856.0,3850.0,1441.0,1441.0,-92.0,-93.0
3854,1438,-80,1,3860.0,3856.0,1441.0,1441.0,-90.0,-92.0
3864,1443,-68,1,3854.0,3860.0,1438.0,1441.0,-80.0,-90.0
3873,1440,-69,1,3864.0,3854.0,1443.0,1438.0,-68.0,-80.0
3898,1440,-66,1,3873.0,3864.0,1440.0,1443.0,-69.0,-68.0
3895,1436,-70,1,3898.0,3873.0,1440.0,1440.0,-66.0,-69.0
3887,1419,-73,1,3895.0,3898.0,1436.0,1440.0,-70.0,-66.0
3878,1403,-72,1,3887.0,3895.0,1419.0,1436.0,-73.0,-70.0
3887,1393,-72,1,3878.0,3887.0,1403.0,1419.0,-72.0,-73.0
3894,1393,-70,1,3887.0,3878.0,1393.0,1403.0,-72.0,-72.0
3898,1386,-83,1,3894.0,3887.0,1393.0,1393.0,-70.0,-72.0
3894,1378,-91,1,3898.0,3894.0,1386.0,1393.0,-83.0,-70.0
3891,1380,-93,1,3894.0,3898.0,1378.0,1386.0,-91.0,-83.0
3891,1383,-90,1,3891.0,3894.0,1380.0,1378.0,-93.0,-91.0
3901,1383,-89,1,3891.0,3891.0,1383.0,1380.0,-90.0,-93.0
3907,1363,-87,1,3901.0,3891.0,1383.0,1383.0,-89.0,-90.0
3889,1350,-102,1,3907.0,3901.0,1363.0,1383.0,-87.0,-89.0
3869,1351,-95,1,3889.0,3907.0,1350.0,1363.0,-102.0,-87.0
3875,1332,-71,1,3869.0,3889.0,1351.0,1350.0,-95.0,-102.0
3888,1305,-52,1,3875.0,3869.0,1332.0,1351.0,-71.0,-95.0
3881,1281,-56,1,3888.0,3875.0,1305.0,1332.0,-52.0,-71.0
3883,1281,-64,1,3881.0,3888.0,1281.0,1305.0,-56.0,-52.0
3897,1286,-64,1,3883.0,3881.0,1281.0,1281.0,-64.0,-56.0
3897,1288,-66,1,3897.0,3883.0,1286.0,1281.0,-64.0,-64.0
3891,1282,-62,1,3897.0,3897.0,1288.0,1286.0,-66.0,-64.0
3887,1275,-65,1,3891.0,3897.0,1282.0,1288.0,-62.0,-66.0
3881,1281,-65,1,3887.0,3891.0,1275.0,1282.0,-65.0,-62.0
3879,1282,-62,1,3881.0,3887.0,1281.0,1275.0,-65.0,-65.0
3874,1281,-61,1,3879.0,3881.0,1282.0,1281.0,-62.0,-65.0
3872,1281,-67,1,3874.0,3879.0,1281.0,1282.0,-61.0,-62.0
3872,1284,-70,1,3872.0,3874.0,1281.0,1281.0,-67.0,-61.0
3874,1290,-84,1,3872.0,3872.0,1284.0,1281.0,-70.0,-67.0
3877,1305,-88,1,3874.0,3872.0,1290.0,1284.0,-84.0,-70.0
3870,1308,-103,1,3877.0,3874.0,1305.0,1290.0,-88.0,-84.0
3848,1315,-110,1,3870.0,3877.0,1308.0,1305.0,-103.0,-88.0
3848,1325,-118,1,3848.0,3870.0,1315.0,1308.0,-110.0,-103.0
3842,1330,-120,1,3848.0,3848.0,1325.0,1315.0,-118.0,-110.0
3843,1336,-116,1,3842.0,3848.0,1330.0,1325.0,-120.0,-118.0
3859,1345,-117,1,3843.0,3842.0,1336.0,1330.0,-116.0,-120.0
3850,1331,-121,1,3859.0,3843.0,1345.0,1336.0,-117.0,-116.0
3856,1330,-120,1,3850.0,3859.0,1331.0,1345.0,-121.0,-117.0
3864,1325,-124,1,3856.0,3850.0,1330.0,1331.0,-120.0,-121.0
3881,1323,-136,1,3864.0,3856.0,1325.0,1330.0,-124.0,-120.0
3884,1325,-151,1,3881.0,3864.0,1323.0,1325.0,-136.0,-124.0
3879,1328,-158,1,3884.0,3881.0,1325.0,1323.0,-151.0,-136.0
3887,1355,-163,1,3879.0,3884.0,1328.0,1325.0,-158.0,-151.0
3905,1382,-170,1,3887.0,3879.0,1355.0,1328.0,-163.0,-158.0
3910,1399,-177,1,3905.0,3887.0,1382.0,1355.0,-170.0,-163.0
3894,1389,-178,1,3910.0,3905.0,1399.0,1382.0,-177.0,-170.0
3889,1378,-178,1,3894.0,3910.0,1389.0,1399.0,-178.0,-177.0
3877,1372,-179,1,3889.0,3894.0,1378.0,1389.0,-178.0,-178.0
3871,1366,-182,1,3877.0,3889.0,1372.0,1378.0,-179.0,-178.0
3855,1364,-191,1,3871.0,3877.0,1366.0,1372.0,-182.0,-179.0
3844,1364,-187,1,3855.0,3871.0,1364.0,1366.0,-191.0,-182.0
3839,1376,-183,1,3844.0,3855.0,1364.0,1364.0,-187.0,-191.0
3848,1399,-180,1,3839.0,3844.0,1376.0,1364.0,-183.0,-187.0
3846,1414,-184,1,3848.0,3839.0,1399.0,1376.0,-180.0,-183.0
3847,1427,-181,1,3846.0,3848.0,1414.0,1399.0,-184.0,-180.0
3850,1439,-181,1,3847.0,3846.0,1427.0,1414.0,-181.0,-184.0
3869,1448,-182,1,3850.0,3847.0,1439.0,1427.0,-181.0,-181.0
3911,1463,-186,1,3869.0,3850.0,1448.0,1439.0,-182.0,-181.0
3949,1450,-203,1,3911.0,3869.0,1463.0,1448.0,-186.0,-182.0
3962,1427,-203,1,3949.0,3911.0,1450.0,1463.0,-203.0,-186.0
3958,1438,-202,1,3962.0,3949.0,1427.0,1450.0,-203.0,-203.0
3929,1446,-215,1,3958.0,3962.0,1438.0,1427.0,-202.0,-203.0
3899,1432,-224,1,3929.0,3958.0,1446.0,1438.0,-215.0,-202.0
3908,1406,-219,1,3899.0,3929.0,1432.0,1446.0,-224.0,-215.0
3921,1386,-210,1,3908.0,3899.0,1406.0,1432.0,-219.0,-224.0
3920,1373,-203,1,3921.0,3908.0,1386.0,1406.0,-210.0,-219.0
3934,1377,-199,1,3920.0,3921.0,1373.0,1386.0,-203.0,-210.0
3934,1382,-197,1,3934.0,3920.0,1377.0,1373.0,-199.0,-203.0
3940,1394,-193,1,3934.0,3934.0,1382.0,1377.0,-197.0,-199.0
3915,1393,-191,1,3940.0,3934.0,1394.0,1382.0,-193.0,-197.0
3904,1395,-179,1,3915.0,3940.0,1393.0,1394.0,-191.0,-193.0
3900,1411,-161,1,3904.0,3915.0,1395.0,1393.0,-179.0,-191.0
3891,1421,-154,1,3900.0,3904.0,1411.0,1395.0,-161.0,-179.0
3897,1434,-151,1,3891.0,3900.0,1421.0,1411.0,-154.0,-161.0
3912,1454,-146,1,3897.0,3891.0,1434.0,1421.0,-151.0,-154.0
3917,1459,-149,1,3912.0,3897.0,1454.0,1434.0,-146.0,-151.0
3902,1452,-153,1,3917.0,3912.0,1459.0,1454.0,-149.0,-146.0
3915,1452,-143,1,3902.0,3917.0,1452.0,1459.0,-153.0,-149.0
3931,1447,-140,1,3915.0,3902.0,1452.0,1452.0,-143.0,-153.0
3947,1446,-130,1,3931.0,3915.0,1447.0,1452.0,-140.0,-143.0
3958,1443,-121,1,3947.0,3931.0,1446.0,1447.0,-130.0,-140.0
3970,1426,-116,1,3958.0,3947.0,1443.0,1446.0,-121.0,-130.0
3991,1422,-115,1,3970.0,3958.0,1426.0,1443.0,-116.0,-121.0
3981,1411,-120,1,3991.0,3970.0,1422.0,1426.0,-115.0,-116.0
3963,1392,-126,1,3981.0,3991.0,1411.0,1422.0,-120.0,-115.0
3967,1384,-114,1,3963.0,3981.0,1392.0,1411.0,-126.0,-120.0
3986,1386,-102,1,3967.0,3963.0,1384.0,1392.0,-114.0,-126.0
3943,1374,-115,1,3986.0,3967.0,1386.0,1384.0,-102.0,-114.0
3931,1368,-112,1,3943.0,3986.0,1374.0,1386.0,-115.0,-102.0
3905,1350,-122,1,3931.0,3943.0,1368.0,1374.0,-112.0,-115.0
3885,1334,-113,1,3905.0,3931.0,1350.0,1368.0,-122.0,-112.0
3885,1339,-107,1,3885.0,3905.0,1334.0,1350.0,-113.0,-122.0
3864,1337,-98,1,3885.0,3885.0,1339.0,1334.0,-107.0,-113.0
3850,1337,-92,1,3864.0,3885.0,1337.0,1339.0,-98.0,-107.0
3839,1334,-84,1,3850.0,3864.0,1337.0,1337.0,-92.0,-98.0
3838,1333,-72,1,3839.0,3850.0,1334.0,1337.0,-84.0,-92.0
3855,1340,-65,1,3838.0,3839.0,1333.0,1334.0,-72.0,-84.0
3850,1336,-64,1,3855.0,3838.0,1340.0,1333.0,-65.0,-72.0
3821,1329,-67,1,3850.0,3855.0,1336.0,1340.0,-64.0,-65.0
3818,1327,-56,1,3821.0,3850.0,1329.0,1336.0,-67.0,-64.0
3804,1319,-47,1,3818.0,3821.0,1327.0,1329.0,-56.0,-67.0
3806,1327,-41,1,3804.0,3818.0,1319.0,1327.0,-47.0,-56.0
3784,1327,-46,1,3806.0,3804.0,1327.0,1319.0,-41.0,-47.0
3757,1329,-53,1,3784.0,3806.0,1327.0,1327.0,-46.0,-41.0
3760,1338,-50,1,3757.0,3784.0,1329.0,1327.0,-53.0,-46.0
3756,1343,-47,1,3760.0,3757.0,1338.0,1329.0,-50.0,-53.0
3755,1358,-48,1,3756.0,3760.0,1343.0,1338.0,-47.0,-50.0
3750,1368,-48,1,3755.0,3756.0,1358.0,1343.0,-48.0,-47.0
3761,1378,-52,1,3750.0,3755.0,1368.0,1358.0,-48.0,-48.0
3763,1390,-51,1,3761.0,3750.0,1378.0,1368.0,-52.0,-48.0
3760,1397,-53,1,3763.0,3761.0,1390.0,1378.0,-51.0,-52.0
3769,1411,-39,1,3760.0,3763.0,1397.0,1390.0,-53.0,-51.0
3777,1420,-38,1,3769.0,3760.0,1411.0,1397.0,-39.0,-53.0
3778,1424,-38,1,3777.0,3769.0,1420.0,1411.0,-38.0,-39.0
3783,1425,-45,1,3778.0,3777.0,1424.0,1420.0,-38.0,-38.0
3783,1417,-40,1,3783.0,3778.0,1425.0,1424.0,-45.0,-38.0
3771,1409,-41,1,3783.0,3783.0,1417.0,1425.0,-40.0,-45.0
3769,1405,-39,1,3771.0,3783.0,1409.0,1417.0,-41.0,-40.0
3770,1403,-39,1,3769.0,3771.0,1405.0,1409.0,-39.0,-41.0
3773,1397,-38,1,3770.0,3769.0,1403.0,1405.0,-39.0,-39.0
3754,1383,-42,1,3773.0,3770.0,1397.0,1403.0,-38.0,-39.0
3762,1380,-32,1,3754.0,3773.0,1383.0,1397.0,-42.0,-38.0
3758,1378,-33,1,3762.0,3754.0,1380.0,1383.0,-32.0,-42.0
3762,1371,-32,1,3758.0,3762.0,1378.0,1380.0,-33.0,-32.0
3756,1371,-31,1,3762.0,3758.0,1371.0,1378.0,-32.0,-33.0
3757,1365,-27,1,3756.0,3762.0,1371.0,1371.0,-31.0,-32.0
3764,1366,-14,1,3757.0,3756.0,1365.0,1371.0,-27.0,-31.0
3770,1370,-3,1,3764.0,3757.0,1366.0,1365.0,-14.0,-27.0
3785,1370,4,1,3770.0,3764.0,1370.0,1366.0,-3.0,-14.0
3777,1369,5,1,3785.0,3770.0,1370.0,1370.0,4.0,-3.0
3768,1369,8,1,3777.0,3785.0,1369.0,1370.0,5.0,4.0
3764,1372,8,1,3768.0,3777.0,1369.0,1369.0,8.0,5.0
3762,1367,8,1,3764.0,3768.0,1372.0,1369.0,8.0,8.0
3765,1384,7,1,3762.0,3764.0,1367.0,1372.0,8.0,8.0
3760,1381,8,1,3765.0,3762.0,1384.0,1367.0,7.0,8.0
3761,1377,3,1,3760.0,3765.0,1381.0,1384.0,8.0,7.0
3764,1374,-2,1,3761.0,3760.0,1377.0,1381.0,3.0,8.0
3776,1367,-5,1,3764.0,3761.0,1374.0,1377.0,-2.0,3.0
3784,1365,-18,1,3776.0,3764.0,1367.0,1374.0,-5.0,-2.0
3785,1359,-29,1,3784.0,3776.0,1365.0,1367.0,-18.0,-5.0
3794,1346,-29,1,3785.0,3784.0,1359.0,1365.0,-29.0,-18.0
3794,1344,-32,1,3794.0,3785.0,1346.0,1359.0,-29.0,-29.0
3794,1339,-36,1,3794.0,3794.0,1344.0,1346.0,-32.0,-29.0
3804,1333,-37,1,3794.0,3794.0,1339.0,1344.0,-36.0,-32.0
3807,1325,-36,1,3804.0,3794.0,1333.0,1339.0,-37.0,-36.0
3814,1319,-40,1,3807.0,3804.0,1325.0,1333.0,-36.0,-37.0
3815,1310,-42,1,3814.0,3807.0,1319.0,1325.0,-40.0,-36.0
3820,1311,-47,1,3815.0,3814.0,1310.0,1319.0,-42.0,-40.0
3819,1316,-51,1,3820.0,3815.0,1311.0,1310.0,-47.0,-42.0
3819,1330,-54,1,3819.0,3820.0,1316.0,1311.0,-51.0,-47.0
3832,1340,-55,1,3819.0,3819.0,1330.0,1316.0,-54.0,-51.0
3840,1352,-59,1,3832.0,3819.0,1340.0,1330.0,-55.0,-54.0
3851,1354,-53,1,3840.0,3832.0,1352.0,1340.0,-59.0,-55.0
3848,1357,-53,1,3851.0,3840.0,1354.0,1352.0,-53.0,-59.0
3851,1356,-46,1,3848.0,3851.0,1357.0,1354.0,-53.0,-53.0
3862,1362,-45,1,3851.0,3848.0,1356.0,1357.0,-46.0,-53.0
3872,1370,-42,1,3862.0,3851.0,1362.0,1356.0,-45.0,-46.0
3893,1375,-43,1,3872.0,3862.0,1370.0,1362.0,-42.0,-45.0
3898,1386,-41,1,3893.0,3872.0,1375.0,1370.0,-43.0,-42.0
3908,1386,-37,1,3898.0,3893.0,1386.0,1375.0,-41.0,-43.0
3907,1386,-34,1,3908.0,3898.0,1386.0,1386.0,-37.0,-41.0
3902,1387,-30,1,3907.0,3908.0,1386.0,1386.0,-34.0,-37.0
3899,1391,-25,1,3902.0,3907.0,1387.0,1386.0,-30.0,-34.0
3886,1396,-33,1,3899.0,3902.0,1391.0,1387.0,-25.0,-30.0
3882,1401,-38,1,3886.0,3899.0,1396.0,1391.0,-33.0,-25.0
3871,1406,-47,1,3882.0,3886.0,1401.0,1396.0,-38.0,-33.0
3871,1412,-54,1,3871.0,3882.0,1406.0,1401.0,-47.0,-38.0
3877,1410,-56,1,3871.0,3871.0,1412.0,1406.0,-54.0,-47.0
3877,1408,-62,1,3877.0,3871.0,1410.0,1412.0,-56.0,-54.0
3880,1402,-68,1,3877.0,3877.0,1408.0,1410.0,-62.0,-56.0
3885,1395,-75,1,3880.0,3877.0,1402.0,1408.0,-68.0,-62.0
3895,1387,-79,1,3885.0,3880.0,1395.0,1402.0,-75.0,-68.0
3897,1381,-84,1,3895.0,3885.0,1387.0,1395.0,-79.0,-75.0
3893,1375,-89,1,3897.0,3895.0,1381.0,1387.0,-84.0,-79.0
3888,1372,-90,1,3893.0,3897.0,1375.0,1381.0,-89.0,-84.0
3886,1366,-87,1,3888.0,3893.0,1372.0,1375.0,-90.0,-89.0
3882,1365,-89,1,3886.0,3888.0,1366.0,1372.0,-87.0,-90.0
3887,1362,-80,1,3882.0,3886.0,1365.0,1366.0,-89.0,-87.0
3885,1362,-76,1,3887.0,3882.0,1362.0,1365.0,-80.0,-89.0
3891,1362,-72,1,3885.0,3887.0,1362.0,1362.0,-76.0,-80.0
3893,1362,-73,1,3891.0,3885.0,1362.0,1362.0,-72.0,-76.0
3900,1365,-65,1,3893.0,3891.0,1362.0,1362.0,-73.0,-72.0
3904,1363,-56,1,3900.0,3893.0,1365.0,1362.0,-65.0,-73.0
3911,1367,-49,1,3904.0,3900.0,1363.0,1365.0,-56.0,-65.0
3911,1366,-40,1,3911.0,3904.0,1367.0,1363.0,-49.0,-56.0
3911,1374,-37,1,3911.0,3911.0,1366.0,1367.0,-40.0,-49.0
3916,1388,-37,1,3911.0,3911.0,1374.0,1366.0,-37.0,-40.0
3922,1397,-41,1,3916.0,3911.0,1388.0,1374.0,-37.0,-37.0
3921,1396,-48,1,3922.0,3916.0,1397.0,1388.0,-41.0,-37.0
3918,1392,-46,1,3921.0,3922.0,1396.0,1397.0,-48.0,-41.0
3915,1384,-47,1,3918.0,3921.0,1392.0,1396.0,-46.0,-48.0
3917,1380,-44,1,3915.0,3918.0,1384.0,1392.0,-47.0,-46.0
3921,1373,-49,1,3917.0,3915.0,1380.0,1384.0,-44.0,-47.0
3919,1364,-47,1,3921.0,3917.0,1373.0,1380.0,-49.0,-44.0
3914,1356,-53,1,3919.0,3921.0,1364.0,1373.0,-47.0,-49.0
3900,1349,-67,1,3914.0,3919.0,1356.0,1364.0,-53.0,-47.0
3892,1347,-78,1,3900.0,3914.0,1349.0,1356.0,-67.0,-53.0
3883,1349,-81,1,3892.0,3900.0,1347.0,1349.0,-78.0,-67.0
3882,1352,-83,1,3883.0,3892.0,1349.0,1347.0,-81.0,-78.0
3879,1360,-88,1,3882.0,3883.0,1352.0,1349.0,-83.0,-81.0
3890,1374,-89,1,3879.0,3882.0,1360.0,1352.0,-88.0,-83.0
3897,1389,-93,1,3890.0,3879.0,1374.0,1360.0,-89.0,-88.0
3904,1406,-92,1,3897.0,3890.0,1389.0,1374.0,-93.0,-89.0
3907,1421,-94,1,3904.0,3897.0,1406.0,1389.0,-92.0,-93.0
3913,1424,-92,1,3907.0,3904.0,1421.0,1406.0,-94.0,-92.0
3906,1427,-89,1,3913.0,3907.0,1424.0,1421.0,-92.0,-94.0
3911,1425,-80,1,3906.0,3913.0,1427.0,1424.0,-89.0,-92.0
3912,1423,-78,1,3911.0,3906.0,1425.0,1427.0,-80.0,-89.0
3921,1419,-76,1,3912.0,3911.0,1423.0,1425.0,-78.0,-80.0
3914,1404,-74,1,3921.0,3912.0,1419.0,1423.0,-76.0,-78.0
3907,1377,-72,1,3914.0,3921.0,1404.0,1419.0,-74.0,-76.0
3892,1337,-72,1,3907.0,3914.0,1377.0,1404.0,-72.0,-74.0
3872,1301,-69,1,3892.0,3907.0,1337.0,1377.0,-72.0,-72.0
3835,1259,-70,1,3872.0,3892.0,1301.0,1337.0,-69.0,-72.0
3793,1215,-70,1,3835.0,3872.0,1259.0,1301.0,-70.0,-69.0
3750,1176,-74,1,3793.0,3835.0,1215.0,1259.0,-70.0,-70.0
3731,1140,-74,1,3750.0,3793.0,1176.0,1215.0,-74.0,-70.0
3728,1113,-70,1,3731.0,3750.0,1140.0,1176.0,-74.0,-74.0
3743,1096,-65,1,3728.0,3731.0,1113.0,1140.0,-70.0,-74.0
3775,1089,-56,1,3743.0,3728.0,1096.0,1113.0,-65.0,-70.0
3807,1092,-45,1,3775.0,3743.0,1089.0,1096.0,-56.0,-65.0
3832,1103,-32,1,3807.0,3775.0,1092.0,1089.0,-45.0,-56.0
3853,1116,-24,1,3832.0,3807.0,1103.0,1092.0,-32.0,-45.0
3869,1135,-21,1,3853.0,3832.0,1116.0,1103.0,-24.0,-32.0
3877,1157,-19,1,3869.0,3853.0,1135.0,1116.0,-21.0,-24.0
3883,1178,-13,1,3877.0,3869.0,1157.0,1135.0,-19.0,-21.0
3883,1201,-7,1,3883.0,3877.0,1178.0,1157.0,-13.0,-19.0
3875,1222,-1,1,3883.0,3883.0,1201.0,1178.0,-7.0,-13.0
3872,1245,3,1,3875.0,3883.0,1222.0,1201.0,-1.0,-7.0
3866,1266,10,1,3872.0,3875.0,1245.0,1222.0,3.0,-1.0
3862,1283,16,1,3866.0,3872.0,1266.0,1245.0,10.0,3.0
3859,1304,23,1,3862.0,3866.0,1283.0,1266.0,16.0,10.0
3859,1320,19,1,3859.0,3862.0,1304.0,1283.0,23.0,16.0
3857,1334,16,1,3859.0,3859.0,1320.0,1304.0,19.0,23.0
3860,1341,10,1,3857.0,3859.0,1334.0,1320.0,16.0,19.0
3860,1344,2,1,3860.0,3857.0,1341.0,1334.0,10.0,16.0
3867,1348,-3,1,3860.0,3860.0,1344.0,1341.0,2.0,10.0
3880,1346,-5,1,3867.0,3860.0,1348.0,1344.0,-3.0,2.0
3888,1347,-17,1,3880.0,3867.0,1346.0,1348.0,-5.0,-3.0
3888,1340,-31,1,3888.0,3880.0,1347.0,1346.0,-17.0,-5.0
3889,1343,-51,1,3888.0,3888.0,1340.0,1347.0,-31.0,-17.0
3884,1348,-70,1,3889.0,3888.0,1343.0,1340.0,-51.0,-31.0
3885,1357,-86,1,3884.0,3889.0,1348.0,1343.0,-70.0,-51.0
3888,1378,-100,1,3885.0,3884.0,1357.0,1348.0,-86.0,-70.0
3879,1398,-113,1,3888.0,3885.0,1378.0,1357.0,-100.0,-86.0
3872,1418,-126,1,3879.0,3888.0,1398.0,1378.0,-113.0,-100.0
3873,1445,-139,1,3872.0,3879.0,1418.0,1398.0,-126.0,-113.0
3873,1473,-148,1,3873.0,3872.0,1445.0,1418.0,-139.0,-126.0
3877,1492,-154,1,3873.0,3873.0,1473.0,1445.0,-148.0,-139.0
3878,1516,-162,1,3877.0,3873.0,1492.0,1473.0,-154.0,-148.0
3870,1529,-171,1,3878.0,3877.0,1516.0,1492.0,-162.0,-154.0
3862,1541,-176,1,3870.0,3878.0,1529.0,1516.0,-171.0,-162.0
3858,1541,-174,1,3862.0,3870.0,1541.0,1529.0,-176.0,-171.0
3827,1537,-177,1,3858.0,3862.0,1541.0,1541.0,-174.0,-176.0
3838,1532,-163,1,3827.0,3858.0,1537.0,1541.0,-177.0,-174.0
3884,1539,-162,1,3838.0,3827.0,1532.0,1537.0,-163.0,-177.0
3906,1551,-179,1,3884.0,3838.0,1539.0,1532.0,-162.0,-163.0
3908,1550,-193,1,3906.0,3884.0,1551.0,1539.0,-179.0,-162.0
3904,1535,-190,1,3908.0,3906.0,1550.0,1551.0,-193.0,-179.0
3899,1521,-175,1,3904.0,3908.0,1535.0,1550.0,-190.0,-193.0
3903,1508,-163,1,3899.0,3904.0,1521.0,1535.0,-175.0,-190.0
3920,1494,-160,1,3903.0,3899.0,1508.0,1521.0,-163.0,-175.0
3933,1482,-165,1,3920.0,3903.0,1494.0,1508.0,-160.0,-163.0
3939,1467,-171,1,3933.0,3920.0,1482.0,1494.0,-165.0,-160.0
3927,1446,-181,1,3939.0,3933.0,1467.0,1482.0,-171.0,-165.0
3910,1427,-187,1,3927.0,3939.0,1446.0,1467.0,-181.0,-171.0
3895,1405,-189,1,3910.0,3927.0,1427.0,1446.0,-187.0,-181.0
3873,1376,-194,1,3895.0,3910.0,1405.0,1427.0,-189.0,-187.0
3852,1340,-196,1,3873.0,3895.0,1376.0,1405.0,-194.0,-189.0
3838,1304,-190,1,3852.0,3873.0,1340.0,1376.0,-196.0,-194.0
3822,1268,-181,1,3838.0,3852.0,1304.0,1340.0,-190.0,-196.0
3809,1230,-165,1,3822.0,3838.0,1268.0,1304.0,-181.0,-190.0
3790,1198,-153,1,3809.0,3822.0,1230.0,1268.0,-165.0,-181.0
3817,1169,-131,1,3790.0,3809.0,1198.0,1230.0,-153.0,-165.0
3866,1167,-121,1,3817.0,3790.0,1169.0,1198.0,-131.0,-153.0
3897,1184,-127,1,3866.0,3817.0,1167.0,1169.0,-121.0,-131.0
3903,1199,-140,1,3897.0,3866.0,1184.0,1167.0,-127.0,-121.0
3903,1224,-137,1,3903.0,3897.0,1199.0,1184.0,-140.0,-127.0
3907,1261,-136,1,3903.0,3903.0,1224.0,1199.0,-137.0,-140.0
3921,1304,-138,1,3907.0,3903.0,1261.0,1224.0,-136.0,-137.0
3937,1355,-140,1,3921.0,3907.0,1304.0,1261.0,-138.0,-136.0
3940,1395,-141,1,3937.0,3921.0,1355.0,1304.0,-140.0,-138.0
3952,1455,-127,1,3940.0,3937.0,1395.0,1355.0,-141.0,-140.0
3944,1510,-119,1,3952.0,3940.0,1455.0,1395.0,-127.0,-141.0
3967,1577,-97,1,3944.0,3952.0,1510.0,1455.0,-119.0,-127.0
3972,1650,-95,1,3967.0,3944.0,1577.0,1510.0,-97.0,-119.0
3991,1724,-86,1,3972.0,3967.0,1650.0,1577.0,-95.0,-97.0
3995,1790,-79,1,3991.0,3972.0,1724.0,1650.0,-86.0,-95.0
3977,1840,-82,1,3995.0,3991.0,1790.0,1724.0,-79.0,-86.0
3942,1838,-95,1,3977.0,3995.0,1840.0,1790.0,-82.0,-79.0
3922,1814,-92,1,3942.0,3977.0,1838.0,1840.0,-95.0,-82.0
3866,1770,-97,1,3922.0,3942.0,1814.0,1838.0,-92.0,-95.0
3828,1744,-90,1,3866.0,3922.0,1770.0,1814.0,-97.0,-92.0
3798,1717,-85,1,3828.0,3866.0,1744.0,1770.0,-90.0,-97.0
3807,1691,-80,1,3798.0,3828.0,1717.0,1744.0,-85.0,-90.0
3800,1697,-82,1,3807.0,3798.0,1691.0,1717.0,-80.0,-85.0
3778,1666,-96,1,3800.0,3807.0,1697.0,1691.0,-82.0,-80.0
3780,1618,-109,1,3778.0,3800.0,1666.0,1697.0,-96.0,-82.0
3784,1567,-117,1,3780.0,3778.0,1618.0,1666.0,-109.0,-96.0
3799,1523,-120,1,3784.0,3780.0,1567.0,1618.0,-117.0,-109.0
3816,1480,-126,1,3799.0,3784.0,1523.0,1567.0,-120.0,-117.0
3814,1426,-135,1,3816.0,3799.0,1480.0,1523.0,-126.0,-120.0
3817,1379,-139,1,3814.0,3816.0,1426.0,1480.0,-135.0,-126.0
3804,1332,-139,1,3817.0,3814.0,1379.0,1426.0,-139.0,-135.0
3799,1289,-132,1,3804.0,3817.0,1332.0,1379.0,-139.0,-139.0
3791,1243,-123,1,3799.0,3804.0,1289.0,1332.0,-132.0,-139.0
3790,1204,-122,1,3791.0,3799.0,1243.0,1289.0,-123.0,-132.0
3776,1172,-116,1,3790.0,3791.0,1204.0,1243.0,-122.0,-123.0
3773,1150,-115,1,3776.0,3790.0,1172.0,1204.0,-116.0,-122.0
3773,1138,-109,1,3773.0,3776.0,1150.0,1172.0,-115.0,-116.0
3764,1133,-100,1,3773.0,3773.0,1138.0,1150.0,-109.0,-115.0
3773,1137,-82,1,3764.0,3773.0,1133.0,1138.0,-100.0,-109.0
3786,1156,-67,1,3773.0,3764.0,1137.0,1133.0,-82.0,-100.0
3806,1189,-50,1,3786.0,3773.0,1156.0,1137.0,-67.0,-82.0
3840,1229,-36,1,3806.0,3786.0,1189.0,1156.0,-50.0,-67.0
3858,1273,-35,1,3840.0,3806.0,1229.0,1189.0,-36.0,-50.0
3883,1309,-34,1,3858.0,3840.0,1273.0,1229.0,-35.0,-36.0
3894,1341,-30,1,3883.0,3858.0,1309.0,1273.0,-34.0,-35.0
3891,1367,-36,1,3894.0,3883.0,1341.0,1309.0,-30.0,-34.0
3873,1387,-44,1,3891.0,3894.0,1367.0,1341.0,-36.0,-30.0
3868,1396,-47,1,3873.0,3891.0,1387.0,1367.0,-44.0,-36.0
3876,1414,-53,1,3868.0,3873.0,1396.0,1387.0,-47.0,-44.0
3873,1412,-60,1,3876.0,3868.0,1414.0,1396.0,-53.0,-47.0
3858,1398,-64,1,3873.0,3876.0,1412.0,1414.0,-60.0,-53.0
3842,1383,-63,1,3858.0,3873.0,1398.0,1412.0,-64.0,-60.0
3837,1366,-60,1,3842.0,3858.0,1383.0,1398.0,-63.0,-64.0
3828,1341,-69,1,3837.0,3842.0,1366.0,1383.0,-60.0,-63.0
3818,1320,-72,1,3828.0,3837.0,1341.0,1366.0,-69.0,-60.0
3826,1300,-76,1,3818.0,3828.0,1320.0,1341.0,-72.0,-69.0
3827,1278,-81,1,3826.0,3818.0,1300.0,1320.0,-76.0,-72.0
3852,1260,-82,1,3827.0,3826.0,1278.0,1300.0,-81.0,-76.0
3855,1232,-86,1,3852.0,3827.0,1260.0,1278.0,-82.0,-81.0
3859,1203,-88,1,3855.0,3852.0,1232.0,1260.0,-86.0,-82.0
3863,1176,-85,1,3859.0,3855.0,1203.0,1232.0,-88.0,-86.0
3887,1169,-77,1,3863.0,3859.0,1176.0,1203.0,-85.0,-88.0
3923,1169,-72,1,3887.0,3863.0,1169.0,1176.0,-77.0,-85.0
3934,1172,-75,1,3923.0,3887.0,1169.0,1169.0,-72.0,-77.0
3925,1167,-77,1,3934.0,3923.0,1172.0,1169.0,-75.0,-72.0
3932,1160,-73,1,3925.0,3934.0,1167.0,1172.0,-77.0,-75.0
3942,1163,-62,1,3932.0,3925.0,1160.0,1167.0,-73.0,-77.0
3951,1165,-54,1,3942.0,3932.0,1163.0,1160.0,-62.0,-73.0
3952,1165,-48,1,3951.0,3942.0,1165.0,1163.0,-54.0,-62.0
3955,1166,-40,1,3952.0,3951.0,1165.0,1165.0,-48.0,-54.0
3951,1172,-30,1,3955.0,3952.0,1166.0,1165.0,-40.0,-48.0
3953,1179,-23,1,3951.0,3955.0,1172.0,1166.0,-30.0,-40.0
3953,1185,-14,1,3953.0,3951.0,1179.0,1172.0,-23.0,-30.0
3950,1202,-8,1,3953.0,3953.0,1185.0,1179.0,-14.0,-23.0
3936,1227,2,1,3950.0,3953.0,1202.0,1185.0,-8.0,-14.0
3921,1248,2,1,3936.0,3950.0,1227.0,1202.0,2.0,-8.0
3917,1245,-5,1,3921.0,3936.0,1248.0,1227.0,2.0,2.0
3905,1241,-6,1,3917.0,3921.0,1245.0,1248.0,-5.0,2.0
3888,1221,-6,1,3905.0,3917.0,1241.0,1245.0,-6.0,-5.0
3864,1213,-4,1,3888.0,3905.0,1221.0,1241.0,-6.0,-6.0
3865,1280,7,1,3864.0,3888.0,1213.0,1221.0,-4.0,-6.0
3854,1314,6,1,3865.0,3864.0,1280.0,1213.0,7.0,-4.0
3814,1308,-5,1,3854.0,3865.0,1314.0,1280.0,6.0,7.0
3812,1298,0,1,3814.0,3854.0,1308.0,1314.0,-5.0,6.0
3860,1297,2,1,3812.0,3814.0,1298.0,1308.0,0.0,-5.0
3888,1308,3,1,3860.0,3812.0,1297.0,1298.0,2.0,0.0
3926,1377,6,1,3888.0,3860.0,1308.0,1297.0,3.0,2.0
3937,1454,-21,1,3926.0,3888.0,1377.0,1308.0,6.0,3.0
3938,1482,-33,1,3937.0,3926.0,1454.0,1377.0,-21.0,6.0
3916,1397,-54,1,3938.0,3937.0,1482.0,1454.0,-33.0,-21.0
3956,1430,-50,1,3916.0,3938.0,1397.0,1482.0,-54.0,-33.0
3967,1374,-24,1,3956.0,3916.0,1430.0,1397.0,-50.0,-54.0
3932,1343,-33,1,3967.0,3956.0,1374.0,1430.0,-24.0,-50.0
3947,1375,-26,1,3932.0,3967.0,1343.0,1374.0,-33.0,-24.0
3879,1241,-30,1,3947.0,3932.0,1375.0,1343.0,-26.0,-33.0
3879,1314,-20,1,3879.0,3947.0,1241.0,1375.0,-30.0,-26.0
3881,1276,-14,1,3879.0,3879.0,1314.0,1241.0,-20.0,-30.0
3828,1156,-7,1,3881.0,3879.0,1276.0,1314.0,-14.0,-20.0
3863,1161,11,1,3828.0,3881.0,1156.0,1276.0,-7.0,-14.0
3876,1129,8,1,3863.0,3828.0,1161.0,1156.0,11.0,-7.0
3905,1130,9,1,3876.0,3863.0,1129.0,1161.0,8.0,11.0
3927,1139,5,1,3905.0,3876.0,1130.0,1129.0,9.0,8.0
3937,1123,-22,1,3927.0,3905.0,1139.0,1130.0,5.0,9.0
3962,1128,-38,1,3937.0,3927.0,1123.0,1139.0,-22.0,5.0
3995,1127,-35,1,3962.0,3937.0,1128.0,1123.0,-38.0,-22.0
4004,1124,-27,1,3995.0,3962.0,1127.0,1128.0,-35.0,-38.0
3942,1135,-22,1,4004.0,3995.0,1124.0,1127.0,-27.0,-35.0
3930,1148,-12,1,3942.0,4004.0,1135.0,1124.0,-22.0,-27.0
3951,1164,-9,1,3930.0,3942.0,1148.0,1135.0,-12.0,-22.0
3965,1164,-8,1,3951.0,3930.0,1164.0,1148.0,-9.0,-12.0
3953,1167,-2,1,3965.0,3951.0,1164.0,1164.0,-8.0,-9.0
3947,1176,7,1,3953.0,3965.0,1167.0,1164.0,-2.0,-8.0
3962,1191,14,1,3947.0,3953.0,1176.0,1167.0,7.0,-2.0
3968,1192,18,1,3962.0,3947.0,1191.0,1176.0,14.0,7.0
3985,1217,27,1,3968.0,3962.0,1192.0,1191.0,18.0,14.0
3970,1271,38,1,3985.0,3968.0,1217.0,1192.0,27.0,18.0
3941,1320,49,1,3970.0,3985.0,1271.0,1217.0,38.0,27.0
3926,1357,52,1,3941.0,3970.0,1320.0,1271.0,49.0,38.0
3939,1382,56,1,3926.0,3941.0,1357.0,1320.0,52.0,49.0
3933,1380,58,1,3939.0,3926.0,1382.0,1357.0,56.0,52.0
3929,1362,65,1,3933.0,3939.0,1380.0,1382.0,58.0,56.0
3928,1343,72,1,3929.0,3933.0,1362.0,1380.0,65.0,58.0
3917,1319,76,1,3928.0,3929.0,1343.0,1362.0,72.0,65.0
3909,1287,82,1,3917.0,3928.0,1319.0,1343.0,76.0,72.0
3908,1272,92,1,3909.0,3917.0,1287.0,1319.0,82.0,76.0
3884,1238,87,1,3908.0,3909.0,1272.0,1287.0,92.0,82.0
3881,1212,79,1,3884.0,3908.0,1238.0,1272.0,87.0,92.0
3866,1181,69,1,3881.0,3884.0,1212.0,1238.0,79.0,87.0
3847,1132,66,1,3866.0,3881.0,1181.0,1212.0,69.0,79.0
3845,1103,70,1,3847.0,3866.0,1132.0,1181.0,66.0,69.0
3840,1062,73,1,3845.0,3847.0,1103.0,1132.0,70.0,66.0
3848,1037,83,1,3840.0,3845.0,1062.0,1103.0,73.0,70.0
3852,1025,80,1,3848.0,3840.0,1037.0,1062.0,83.0,73.0
3853,1012,78,1,3852.0,3848.0,1025.0,1037.0,80.0,83.0
3877,1019,87,1,3853.0,3852.0,1012.0,1025.0,78.0,80.0
3880,1002,81,1,3877.0,3853.0,1019.0,1012.0,87.0,78.0
3904,1000,92,1,3880.0,3877.0,1002.0,1019.0,81.0,87.0
3923,997,97,1,3904.0,3880.0,1000.0,1002.0,92.0,81.0
3939,1010,105,1,3923.0,3904.0,997.0,1000.0,97.0,92.0
3952,1017,112,1,3939.0,3923.0,1010.0,997.0,105.0,97.0
3958,1033,118,1,3952.0,3939.0,1017.0,1010.0,112.0,105.0
3963,1062,117,1,3958.0,3952.0,1033.0,1017.0,118.0,112.0
3961,1093,110,1,3963.0,3958.0,1062.0,1033.0,117.0,118.0
3959,1112,102,1,3961.0,3963.0,1093.0,1062.0,110.0,117.0
3972,1144,110,1,3959.0,3961.0,1112.0,1093.0,102.0,110.0
3972,1167,111,1,3972.0,3959.0,1144.0,1112.0,110.0,102.0
3961,1190,111,1,3972.0,3972.0,1167.0,1144.0,111.0,110.0
3953,1208,109,1,3961.0,3972.0,1190.0,1167.0,111.0,111.0
3950,1226,107,1,3953.0,3961.0,1208.0,1190.0,109.0,111.0
3939,1242,103,1,3950.0,3953.0,1226.0,1208.0,107.0,109.0
3926,1257,104,1,3939.0,3950.0,1242.0,1226.0,103.0,107.0
3916,1269,101,1,3926.0,3939.0,1257.0,1242.0,104.0,103.0
3894,1276,96,1,3916.0,3926.0,1269.0,1257.0,101.0,104.0
3882,1275,96,1,3894.0,3916.0,1276.0,1269.0,96.0,101.0
3864,1280,90,1,3882.0,3894.0,1275.0,1276.0,96.0,96.0
3855,1276,87,1,3864.0,3882.0,1280.0,1275.0,90.0,96.0
3848,1274,89,1,3855.0,3864.0,1276.0,1280.0,87.0,90.0
3844,1274,90,1,3848.0,3855.0,1274.0,1276.0,89.0,87.0
3844,1268,89,1,3844.0,3848.0,1274.0,1274.0,90.0,89.0
3847,1259,86,1,3844.0,3844.0,1268.0,1274.0,89.0,90.0
3852,1255,86,1,3847.0,3844.0,1259.0,1268.0,86.0,89.0
3858,1251,84,1,3852.0,3847.0,1255.0,1259.0,86.0,86.0
3866,1244,90,1,3858.0,3852.0,1251.0,1255.0,84.0,86.0
3871,1232,94,1,3866.0,3858.0,1244.0,1251.0,90.0,84.0
3878,1223,94,1,3871.0,3866.0,1232.0,1244.0,94.0,90.0
3882,1212,93,1,3878.0,3871.0,1223.0,1232.0,94.0,94.0
3893,1211,91,1,3882.0,3878.0,1212.0,1223.0,93.0,94.0
3903,1210,93,1,3893.0,3882.0,1211.0,1212.0,91.0,93.0
3921,1216,89,1,3903.0,3893.0,1210.0,1211.0,93.0,91.0
3932,1218,81,1,3921.0,3903.0,1216.0,1210.0,89.0,93.0
3939,1222,80,1,3932.0,3921.0,1218.0,1216.0,81.0,89.0
3947,1246,75,1,3939.0,3932.0,1222.0,1218.0,80.0,81.0
3956,1270,75,1,3947.0,3939.0,1246.0,1222.0,75.0,80.0
3963,1294,70,1,3956.0,3947.0,1270.0,1246.0,75.0,75.0
3962,1311,66,1,3963.0,3956.0,1294.0,1270.0,70.0,75.0
3960,1323,71,1,3962.0,3963.0,1311.0,1294.0,66.0,70.0
3953,1334,74,1,3960.0,3962.0,1323.0,1311.0,71.0,66.0
3944,1342,78,1,3953.0,3960.0,1334.0,1323.0,74.0,71.0
3933,1343,81,1,3944.0,3953.0,1342.0,1334.0,78.0,74.0
3921,1353,87,1,3933.0,3944.0,1343.0,1342.0,81.0,78.0
3918,1366,90,1,3921.0,3933.0,1353.0,1343.0,87.0,81.0
3926,1375,94,1,3918.0,3921.0,1366.0,1353.0,90.0,87.0
3934,1389,95,1,3926.0,3918.0,1375.0,1366.0,94.0,90.0
3938,1397,92,1,3934.0,3926.0,1389.0,1375.0,95.0,94.0
3913,1402,91,1,3938.0,3934.0,1397.0,1389.0,92.0,95.0
3857,1414,90,1,3913.0,3938.0,1402.0,1397.0,91.0,92.0
3828,1432,89,1,3857.0,3913.0,1414.0,1402.0,90.0,91.0
3826,1450,81,1,3828.0,3857.0,1432.0,1414.0,89.0,90.0
3834,1466,76,1,3826.0,3828.0,1450.0,1432.0,81.0,89.0
3837,1472,73,1,3834.0,3826.0,1466.0,1450.0,76.0,81.0
3827,1487,72,1,3837.0,3834.0,1472.0,1466.0,73.0,76.0
3823,1506,74,1,3827.0,3837.0,1487.0,1472.0,72.0,73.0
3822,1534,73,1,3823.0,3827.0,1506.0,1487.0,74.0,72.0
3815,1551,69,1,3822.0,3823.0,1534.0,1506.0,73.0,74.0
3814,1571,66,1,3815.0,3822.0,1551.0,1534.0,69.0,73.0
3825,1586,58,1,3814.0,3815.0,1571.0,1551.0,66.0,69.0
3857,1598,54,1,3825.0,3814.0,1586.0,1571.0,58.0,66.0
3854,1604,36,1,3857.0,3825.0,1598.0,1586.0,54.0,58.0
3841,1614,18,1,3854.0,3857.0,1604.0,1598.0,36.0,54.0
3840,1628,4,1,3841.0,3854.0,1614.0,1604.0,18.0,36.0
3837,1634,-1,1,3840.0,3841.0,1628.0,1614.0,4.0,18.0
3830,1636,-3,1,3837.0,3840.0,1634.0,1628.0,-1.0,4.0
3829,1631,-6,1,3830.0,3837.0,1636.0,1634.0,-3.0,-1.0
3844,1626,-6,1,3829.0,3830.0,1631.0,1636.0,-6.0,-3.0
3829,1612,-19,1,3844.0,3829.0,1626.0,1631.0,-6.0,-6.0
3811,1595,-22,1,3829.0,3844.0,1612.0,1626.0,-19.0,-6.0
3809,1579,-21,1,3811.0,3829.0,1595.0,1612.0,-22.0,-19.0
3814,1571,-23,1,3809.0,3811.0,1579.0,1595.0,-21.0,-22.0
3810,1563,-20,1,3814.0,3809.0,1571.0,1579.0,-23.0,-21.0
3804,1554,-24,1,3810.0,3814.0,1563.0,1571.0,-20.0,-23.0
3795,1540,-23,1,3804.0,3810.0,1554.0,1563.0,-24.0,-20.0
3797,1521,-23,1,3795.0,3804.0,1540.0,1554.0,-23.0,-24.0
3796,1503,-24,1,3797.0,3795.0,1521.0,1540.0,-23.0,-23.0
3789,1474,-31,1,3796.0,3797.0,1503.0,1521.0,-24.0,-23.0
3784,1442,-32,1,3789.0,3796.0,1474.0,1503.0,-31.0,-24.0
3784,1414,-32,1,3784.0,3789.0,1442.0,1474.0,-32.0,-31.0
3780,1386,-30,1,3784.0,3784.0,1414.0,1442.0,-32.0,-32.0
3785,1365,-26,1,3780.0,3784.0,1386.0,1414.0,-30.0,-32.0
3787,1353,-26,1,3785.0,3780.0,1365.0,1386.0,-26.0,-30.0
3796,1344,-28,1,3787.0,3785.0,1353.0,1365.0,-26.0,-26.0
3806,1339,-24,1,3796.0,3787.0,1344.0,1353.0,-28.0,-26.0
3813,1331,-19,1,3806.0,3796.0,1339.0,1344.0,-24.0,-28.0
3821,1321,-18,1,3813.0,3806.0,1331.0,1339.0,-19.0,-24.0
3828,1307,-9,1,3821.0,3813.0,1321.0,1331.0,-18.0,-19.0
3837,1304,-1,1,3828.0,3821.0,1307.0,1321.0,-9.0,-18.0
3844,1295,4,1,3837.0,3828.0,1304.0,1307.0,-1.0,-9.0
3853,1295,14,1,3844.0,3837.0,1295.0,1304.0,4.0,-1.0
3868,1284,22,1,3853.0,3844.0,1295.0,1295.0,14.0,4.0
3877,1279,32,1,3868.0,3853.0,1284.0,1295.0,22.0,14.0
3880,1271,37,1,3877.0,3868.0,1279.0,1284.0,32.0,22.0
3888,1262,43,1,3880.0,3877.0,1271.0,1279.0,37.0,32.0
3891,1255,52,1,3888.0,3880.0,1262.0,1271.0,43.0,37.0
3896,1243,57,1,3891.0,3888.0,1255.0,1262.0,52.0,43.0
3897,1238,65,1,3896.0,3891.0,1243.0,1255.0,57.0,52.0
3902,1235,68,1,3897.0,3896.0,1238.0,1243.0,65.0,57.0
3907,1233,68,1,3902.0,3897.0,1235.0,1238.0,68.0,65.0
3908,1229,75,1,3907.0,3902.0,1233.0,1235.0,68.0,68.0
3913,1227,77,1,3908.0,3907.0,1229.0,1233.0,75.0,68.0
3912,1220,81,1,3913.0,3908.0,1227.0,1229.0,77.0,75.0
3912,1219,81,1,3912.0,3913.0,1220.0,1227.0,81.0,77.0
3912,1208,85,1,3912.0,3912.0,1219.0,1220.0,81.0,81.0
3915,1199,87,1,3912.0,3912.0,1208.0,1219.0,85.0,81.0
3916,1192,92,1,3915.0,3912.0,1199.0,1208.0,87.0,85.0
3918,1182,101,1,3916.0,3915.0,1192.0,1199.0,92.0,87.0
3916,1168,105,1,3918.0,3916.0,1182.0,1192.0,101.0,92.0
3913,1159,107,1,3916.0,3918.0,1168.0,1182.0,105.0,101.0
3909,1143,107,1,3913.0,3916.0,1159.0,1168.0,107.0,105.0
3912,1138,112,1,3909.0,3913.0,1143.0,1159.0,107.0,107.0
3918,1127,112,1,3912.0,3909.0,1138.0,1143.0,112.0,107.0
3923,1121,118,1,3918.0,3912.0,1127.0,1138.0,112.0,112.0
3933,1115,121,1,3923.0,3918.0,1121.0,1127.0,118.0,112.0
3939,1110,123,1,3933.0,3923.0,1115.0,1121.0,121.0,118.0
3944,1112,124,1,3939.0,3933.0,1110.0,1115.0,123.0,121.0
3943,1108,123,1,3944.0,3939.0,1112.0,1110.0,124.0,123.0
3941,1102,120,1,3943.0,3944.0,1108.0,1112.0,123.0,124.0
3941,1105,120,1,3941.0,3943.0,1102.0,1108.0,120.0,123.0
3941,1109,122,1,3941.0,3941.0,1105.0,1102.0,120.0,120.0
3937,1113,126,1,3941.0,3941.0,1109.0,1105.0,122.0,120.0
3937,1118,127,1,3937.0,3941.0,1113.0,1109.0,126.0,122.0
3939,1120,127,1,3937.0,3937.0,1118.0,1113.0,127.0,126.0
3939,1117,129,1,3939.0,3937.0,1120.0,1118.0,127.0,127.0
3933,1121,129,1,3939.0,3939.0,1117.0,1120.0,129.0,127.0
3932,1121,134,1,3933.0,3939.0,1121.0,1117.0,129.0,129.0
3930,1132,138,1,3932.0,3933.0,1121.0,1121.0,134.0,129.0
3926,1130,141,1,3930.0,3932.0,1132.0,1121.0,138.0,134.0
3927,1131,146,1,3926.0,3930.0,1130.0,1132.0,141.0,138.0
3925,1132,150,1,3927.0,3926.0,1131.0,1130.0,146.0,141.0
3923,1133,157,1,3925.0,3927.0,1132.0,1131.0,150.0,146.0
3927,1128,161,1,3923.0,3925.0,1133.0,1132.0,157.0,150.0
3925,1124,166,1,3927.0,3923.0,1128.0,1133.0,161.0,157.0
3926,1117,168,1,3925.0,3927.0,1124.0,1128.0,166.0,161.0
3930,1117,171,1,3926.0,3925.0,1117.0,1124.0,168.0,166.0
3935,1117,176,1,3930.0,3926.0,1117.0,1117.0,171.0,168.0
3936,1112,177,1,3935.0,3930.0,1117.0,1117.0,176.0,171.0
3933,1107,173,1,3936.0,3935.0,1112.0,1117.0,177.0,176.0
3927,1101,169,1,3933.0,3936.0,1107.0,1112.0,173.0,177.0
3926,1101,162,1,3927.0,3933.0,1101.0,1107.0,169.0,173.0
3919,1098,158,1,3926.0,3927.0,1101.0,1101.0,162.0,169.0
3913,1104,153,1,3919.0,3926.0,1098.0,1101.0,158.0,162.0
3909,1106,151,1,3913.0,3919.0,1104.0,1098.0,153.0,158.0
3907,1108,153,1,3909.0,3913.0,1106.0,1104.0,151.0,153.0
3908,1104,141,1,3907.0,3909.0,1108.0,1106.0,153.0,151.0
3907,1115,145,1,3908.0,3907.0,1104.0,1108.0,141.0,153.0
3905,1119,144,1,3907.0,3908.0,1115.0,1104.0,145.0,141.0
3908,1124,138,1,3905.0,3907.0,1119.0,1115.0,144.0,145.0
3911,1129,133,1,3908.0,3905.0,1124.0,1119.0,138.0,144.0
3916,1135,127,1,3911.0,3908.0,1129.0,1124.0,133.0,138.0
3925,1137,125,1,3916.0,3911.0,1135.0,1129.0,127.0,133.0
3931,1143,120,1,3925.0,3916.0,1137.0,1135.0,125.0,127.0
3942,1145,121,1,3931.0,3925.0,1143.0,1137.0,120.0,125.0
3947,1147,122,1,3942.0,3931.0,1145.0,1143.0,121.0,120.0
3949,1148,122,1,3947.0,3942.0,1147.0,1145.0,122.0,121.0
3951,1150,122,1,3949.0,3947.0,1148.0,1147.0,122.0,122.0
3956,1150,122,1,3951.0,3949.0,1150.0,1148.0,122.0,122.0
3961,1148,128,1,3956.0,3951.0,1150.0,1150.0,122.0,122.0
3964,1149,128,1,3961.0,3956.0,1148.0,1150.0,128.0,122.0
3962,1149,124,1,3964.0,3961.0,1149.0,1148.0,128.0,128.0
3957,1147,124,1,3962.0,3964.0,1149.0,1149.0,124.0,128.0
3953,1150,117,1,3957.0,3962.0,1147.0,1149.0,124.0,124.0
3953,1153,109,1,3953.0,3957.0,1150.0,1147.0,117.0,124.0
3948,1152,103,1,3953.0,3953.0,1153.0,1150.0,109.0,117.0
3934,1154,100,1,3948.0,3953.0,1152.0,1153.0,103.0,109.0
3929,1158,96,1,3934.0,3948.0,1154.0,1152.0,100.0,103.0
3923,1158,98,1,3929.0,3934.0,1158.0,1154.0,96.0,100.0
3913,1159,97,1,3923.0,3929.0,1158.0,1158.0,98.0,96.0
3907,1157,93,1,3913.0,3923.0,1159.0,1158.0,97.0,98.0
3904,1158,93,1,3907.0,3913.0,1157.0,1159.0,93.0,97.0
3911,1160,101,1,3904.0,3907.0,1158.0,1157.0,93.0,93.0
3914,1164,99,1,3911.0,3904.0,1160.0,1158.0,101.0,93.0
3919,1169,99,1,3914.0,3911.0,1164.0,1160.0,99.0,101.0
3920,1170,96,1,3919.0,3914.0,1169.0,1164.0,99.0,99.0
3917,1173,96,1,3920.0,3919.0,1170.0,1169.0,96.0,99.0
3917,1177,98,1,3917.0,3920.0,1173.0,1170.0,96.0,96.0
3926,1176,98,1,3917.0,3917.0,1177.0,1173.0,98.0,96.0
3926,1177,96,1,3926.0,3917.0,1176.0,1177.0,98.0,98.0
3916,1172,97,1,3926.0,3926.0,1177.0,1176.0,96.0,98.0
3915,1168,93,1,3916.0,3926.0,1172.0,1177.0,97.0,96.0
3919,1168,86,1,3915.0,3916.0,1168.0,1172.0,93.0,97.0
3920,1171,83,1,3919.0,3915.0,1168.0,1168.0,86.0,93.0
3925,1174,79,1,3920.0,3919.0,1171.0,1168.0,83.0,86.0
3930,1181,70,1,3925.0,3920.0,1174.0,1171.0,79.0,83.0
3937,1194,67,1,3930.0,3925.0,1181.0,1174.0,70.0,79.0
3937,1206,65,1,3937.0,3930.0,1194.0,1181.0,67.0,70.0
3936,1214,61,1,3937.0,3937.0,1206.0,1194.0,65.0,67.0
3933,1229,59,1,3936.0,3937.0,1214.0,1206.0,61.0,65.0
3923,1240,55,1,3933.0,3936.0,1229.0,1214.0,59.0,61.0
3910,1252,52,1,3923.0,3933.0,1240.0,1229.0,55.0,59.0
3902,1262,51,1,3910.0,3923.0,1252.0,1240.0,52.0,55.0
3895,1272,51,1,3902.0,3910.0,1262.0,1252.0,51.0,52.0
3892,1279,50,1,3895.0,3902.0,1272.0,1262.0,51.0,51.0
3889,1285,53,1,3892.0,3895.0,1279.0,1272.0,50.0,51.0
3885,1284,50,1,3889.0,3892.0,1285.0,1279.0,53.0,50.0
3886,1283,47,1,3885.0,3889.0,1284.0,1285.0,50.0,53.0
3885,1286,47,1,3886.0,3885.0,1283.0,1284.0,47.0,50.0
3886,1296,48,1,3885.0,3886.0,1286.0,1283.0,47.0,47.0
3886,1297,49,1,3886.0,3885.0,1296.0,1286.0,48.0,47.0
3891,1303,46,1,3886.0,3886.0,1297.0,1296.0,49.0,48.0
3895,1302,48,1,3891.0,3886.0,1303.0,1297.0,46.0,49.0
3896,1297,45,1,3895.0,3891.0,1302.0,1303.0,48.0,46.0
3899,1293,48,1,3896.0,3895.0,1297.0,1302.0,45.0,48.0
3903,1288,51,1,3899.0,3896.0,1293.0,1297.0,48.0,45.0
3902,1286,48,1,3903.0,3899.0,1288.0,1293.0,51.0,48.0
3904,1285,50,1,3902.0,3903.0,1286.0,1288.0,48.0,51.0
3906,1285,48,1,3904.0,3902.0,1285.0,1286.0,50.0,48.0
3905,1290,49,1,3906.0,3904.0,1285.0,1285.0,48.0,50.0
3904,1289,48,1,3905.0,3906.0,1290.0,1285.0,49.0,48.0
3906,1290,50,1,3904.0,3905.0,1289.0,1290.0,48.0,49.0
3906,1290,51,1,3906.0,3904.0,1290.0,1289.0,50.0,48.0
3905,1288,47,1,3906.0,3906.0,1290.0,1290.0,51.0,50.0
3903,1287,47,1,3905.0,3906.0,1288.0,1290.0,47.0,51.0
3898,1280,49,1,3903.0,3905.0,1287.0,1288.0,47.0,47.0
3899,1283,50,1,3898.0,3903.0,1280.0,1287.0,49.0,47.0
3897,1281,51,1,3899.0,3898.0,1283.0,1280.0,50.0,49.0
3898,1280,52,1,3897.0,3899.0,1281.0,1283.0,51.0,50.0
3894,1285,56,1,3898.0,3897.0,1280.0,1281.0,52.0,51.0
3896,1285,59,1,3894.0,3898.0,1285.0,1280.0,56.0,52.0
3897,1286,60,1,3896.0,3894.0,1285.0,1285.0,59.0,56.0
3898,1288,62,1,3897.0,3896.0,1286.0,1285.0,60.0,59.0
3900,1288,61,1,3898.0,3897.0,1288.0,1286.0,62.0,60.0
3903,1297,62,1,3900.0,3898.0,1288.0,1288.0,61.0,62.0
3904,1294,65,1,3903.0,3900.0,1297.0,1288.0,62.0,61.0
3907,1294,64,1,3904.0,3903.0,1294.0,1297.0,65.0,62.0
3911,1293,63,1,3907.0,3904.0,1294.0,1294.0,64.0,65.0
3909,1299,66,1,3911.0,3907.0,1293.0,1294.0,63.0,64.0
3901,1306,61,1,3909.0,3911.0,1299.0,1293.0,66.0,63.0
3894,1311,63,1,3901.0,3909.0,1306.0,1299.0,61.0,66.0
3890,1314,60,1,3894.0,3901.0,1311.0,1306.0,63.0,61.0
3887,1317,57,1,3890.0,3894.0,1314.0,1311.0,60.0,63.0
3885,1320,50,1,3887.0,3890.0,1317.0,1314.0,57.0,60.0
3884,1323,50,1,3885.0,3887.0,1320.0,1317.0,50.0,57.0
3877,1324,47,1,3884.0,3885.0,1323.0,1320.0,50.0,50.0
3878,1335,48,1,3877.0,3884.0,1324.0,1323.0,47.0,50.0
3877,1341,46,1,3878.0,3877.0,1335.0,1324.0,48.0,47.0
3877,1347,45,1,3877.0,3878.0,1341.0,1335.0,46.0,48.0
3876,1351,44,1,3877.0,3877.0,1347.0,1341.0,45.0,46.0
3874,1352,43,1,3876.0,3877.0,1351.0,1347.0,44.0,45.0
3874,1354,43,1,3874.0,3876.0,1352.0,1351.0,43.0,44.0
3873,1355,45,1,3874.0,3874.0,1354.0,1352.0,43.0,43.0
3874,1355,46,1,3873.0,3874.0,1355.0,1354.0,45.0,43.0
3871,1356,49,1,3874.0,3873.0,1355.0,1355.0,46.0,45.0
3872,1356,49,1,3871.0,3874.0,1356.0,1355.0,49.0,46.0
3867,1356,50,1,3872.0,3871.0,1356.0,1356.0,49.0,49.0
3863,1351,49,1,3867.0,3872.0,1356.0,1356.0,50.0,49.0
3867,1355,56,1,3863.0,3867.0,1351.0,1356.0,49.0,50.0
3869,1352,57,1,3867.0,3863.0,1355.0,1351.0,56.0,49.0
3866,1351,57,1,3869.0,3867.0,1352.0,1355.0,57.0,56.0
3866,1349,57,1,3866.0,3869.0,1351.0,1352.0,57.0,57.0
3865,1354,56,1,3866.0,3866.0,1349.0,1351.0,57.0,57.0
3861,1350,52,1,3865.0,3866.0,1354.0,1349.0,56.0,57.0
3864,1341,48,1,3861.0,3865.0,1350.0,1354.0,52.0,56.0
3871,1334,46,1,3864.0,3861.0,1341.0,1350.0,48.0,52.0
3868,1329,50,1,3871.0,3864.0,1334.0,1341.0,46.0,48.0
3869,1326,49,1,3868.0,3871.0,1329.0,1334.0,50.0,46.0
3869,1318,49,1,3869.0,3868.0,1326.0,1329.0,49.0,50.0
3867,1308,48,1,3869.0,3869.0,1318.0,1326.0,49.0,49.0
3866,1304,47,1,3867.0,3869.0,1308.0,1318.0,48.0,49.0
3867,1302,54,1,3866.0,3867.0,1304.0,1308.0,47.0,48.0
3868,1299,63,1,3867.0,3866.0,1302.0,1304.0,54.0,47.0
3873,1294,68,1,3868.0,3867.0,1299.0,1302.0,63.0,54.0
3875,1296,70,1,3873.0,3868.0,1294.0,1299.0,68.0,63.0
3877,1299,76,1,3875.0,3873.0,1296.0,1294.0,70.0,68.0
3881,1299,83,1,3877.0,3875.0,1299.0,1296.0,76.0,70.0
3884,1300,84,1,3881.0,3877.0,1299.0,1299.0,83.0,76.0
3888,1297,89,1,3884.0,3881.0,1300.0,1299.0,84.0,83.0
3892,1295,94,1,3888.0,3884.0,1297.0,1300.0,89.0,84.0
3892,1293,95,1,3892.0,3888.0,1295.0,1297.0,94.0,89.0
3892,1288,91,1,3892.0,3892.0,1293.0,1295.0,95.0,94.0
3890,1280,91,1,3892.0,3892.0,1288.0,1293.0,91.0,95.0
3887,1272,90,1,3890.0,3892.0,1280.0,1288.0,91.0,91.0
3885,1269,84,1,3887.0,3890.0,1272.0,1280.0,90.0,91.0
3885,1268,86,1,3885.0,3887.0,1269.0,1272.0,84.0,90.0
3886,1266,86,1,3885.0,3885.0,1268.0,1269.0,86.0,84.0
3886,1266,83,1,3886.0,3885.0,1266.0,1268.0,86.0,86.0
3886,1266,81,1,3886.0,3886.0,1266.0,1266.0,83.0,86.0
3885,1267,81,1,3886.0,3886.0,1266.0,1266.0,81.0,83.0
3883,1272,79,1,3885.0,3886.0,1267.0,1266.0,81.0,81.0
3881,1278,79,1,3883.0,3885.0,1272.0,1267.0,79.0,81.0
3880,1278,70,1,3881.0,3883.0,1278.0,1272.0,79.0,79.0
3881,1281,72,1,3880.0,3881.0,1278.0,1278.0,70.0,79.0
3888,1288,76,1,3881.0,3880.0,1281.0,1278.0,72.0,70.0
3888,1292,73,1,3888.0,3881.0,1288.0,1281.0,76.0,72.0
3884,1292,73,1,3888.0,3888.0,1292.0,1288.0,73.0,76.0
3890,1293,77,1,3884.0,3888.0,1292.0,1292.0,73.0,73.0
3896,1293,81,1,3890.0,3884.0,1293.0,1292.0,77.0,73.0
3901,1289,82,1,3896.0,3890.0,1293.0,1293.0,81.0,77.0
3903,1288,80,1,3901.0,3896.0,1289.0,1293.0,82.0,81.0
3898,1283,74,1,3903.0,3901.0,1288.0,1289.0,80.0,82.0
3901,1276,70,1,3898.0,3903.0,1283.0,1288.0,74.0,80.0
3899,1271,67,1,3901.0,3898.0,1276.0,1283.0,70.0,74.0
3899,1267,65,1,3899.0,3901.0,1271.0,1276.0,67.0,70.0
3896,1262,68,1,3899.0,3899.0,1267.0,1271.0,65.0,67.0
3897,1260,65,1,3896.0,3899.0,1262.0,1267.0,68.0,65.0
3899,1262,60,1,3897.0,3896.0,1260.0,1262.0,65.0,68.0
3899,1265,62,1,3899.0,3897.0,1262.0,1260.0,60.0,65.0
3900,1271,65,1,3899.0,3899.0,1265.0,1262.0,62.0,60.0
3899,1272,67,1,3900.0,3899.0,1271.0,1265.0,65.0,62.0
3895,1273,70,1,3899.0,3900.0,1272.0,1271.0,67.0,65.0
3893,1276,73,1,3895.0,3899.0,1273.0,1272.0,70.0,67.0
3893,1275,78,1,3893.0,3895.0,1276.0,1273.0,73.0,70.0
3892,1273,80,1,3893.0,3893.0,1275.0,1276.0,78.0,73.0
3892,1267,83,1,3892.0,3893.0,1273.0,1275.0,80.0,78.0
3891,1269,87,1,3892.0,3892.0,1267.0,1273.0,83.0,80.0
3891,1265,92,1,3891.0,3892.0,1269.0,1267.0,87.0,83.0
3892,1260,94,1,3891.0,3891.0,1265.0,1269.0,92.0,87.0
3899,1258,95,1,3892.0,3891.0,1260.0,1265.0,94.0,92.0
3902,1257,96,1,3899.0,3892.0,1258.0,1260.0,95.0,94.0
3905,1259,94,1,3902.0,3899.0,1257.0,1258.0,96.0,95.0
3908,1260,93,1,3905.0,3902.0,1259.0,1257.0,94.0,96.0
3905,1260,90,1,3908.0,3905.0,1260.0,1259.0,93.0,94.0
3905,1261,89,1,3905.0,3908.0,1260.0,1260.0,90.0,93.0
3903,1263,88,1,3905.0,3905.0,1261.0,1260.0,89.0,90.0
3904,1256,83,1,3903.0,3905.0,1263.0,1261.0,88.0,89.0
3909,1250,87,1,3904.0,3903.0,1256.0,1263.0,83.0,88.0
3908,1247,87,1,3909.0,3904.0,1250.0,1256.0,87.0,83.0
3907,1249,84,1,3908.0,3909.0,1247.0,1250.0,87.0,87.0
3907,1246,82,1,3907.0,3908.0,1249.0,1247.0,84.0,87.0
3907,1243,81,1,3907.0,3907.0,1246.0,1249.0,82.0,84.0
3907,1245,81,1,3907.0,3907.0,1243.0,1246.0,81.0,82.0
3905,1244,81,1,3907.0,3907.0,1245.0,1243.0,81.0,81.0
3903,1245,84,1,3905.0,3907.0,1244.0,1245.0,81.0,81.0
3903,1246,83,1,3903.0,3905.0,1245.0,1244.0,84.0,81.0
3902,1247,80,1,3903.0,3903.0,1246.0,1245.0,83.0,84.0
3903,1245,76,1,3902.0,3903.0,1247.0,1246.0,80.0,83.0
3904,1251,74,1,3903.0,3902.0,1245.0,1247.0,76.0,80.0
3908,1253,76,1,3904.0,3903.0,1251.0,1245.0,74.0,76.0
3903,1252,76,1,3908.0,3904.0,1253.0,1251.0,76.0,74.0
3905,1251,73,1,3903.0,3908.0,1252.0,1253.0,76.0,76.0
3906,1252,75,1,3905.0,3903.0,1251.0,1252.0,73.0,76.0
3907,1256,71,1,3906.0,3905.0,1252.0,1251.0,75.0,73.0
3907,1255,71,1,3907.0,3906.0,1256.0,1252.0,71.0,75.0
3910,1257,69,1,3907.0,3907.0,1255.0,1256.0,71.0,71.0
3912,1263,70,1,3910.0,3907.0,1257.0,1255.0,69.0,71.0
3914,1264,70,1,3912.0,3910.0,1263.0,1257.0,70.0,69.0
3914,1268,66,1,3914.0,3912.0,1264.0,1263.0,70.0,70.0
3916,1270,62,1,3914.0,3914.0,1268.0,1264.0,66.0,70.0
3912,1269,60,1,3916.0,3914.0,1270.0,1268.0,62.0,66.0
3909,1271,56,1,3912.0,3916.0,1269.0,1270.0,60.0,62.0
3907,1273,50,1,3909.0,3912.0,1271.0,1269.0,56.0,60.0
3905,1276,49,1,3907.0,3909.0,1273.0,1271.0,50.0,56.0
3897,1279,49,1,3905.0,3907.0,1276.0,1273.0,49.0,50.0
3894,1282,50,1,3897.0,3905.0,1279.0,1276.0,49.0,49.0
3896,1288,52,1,3894.0,3897.0,1282.0,1279.0,50.0,49.0
3894,1290,52,1,3896.0,3894.0,1288.0,1282.0,52.0,50.0
3894,1288,49,1,3894.0,3896.0,1290.0,1288.0,52.0,52.0
3891,1289,48,1,3894.0,3894.0,1288.0,1290.0,49.0,52.0
3891,1288,54,1,3891.0,3894.0,1289.0,1288.0,48.0,49.0
3893,1290,52,1,3891.0,3891.0,1288.0,1289.0,54.0,48.0
3897,1291,52,1,3893.0,3891.0,1290.0,1288.0,52.0,54.0
3898,1297,57,1,3897.0,3893.0,1291.0,1290.0,52.0,52.0
3901,1296,58,1,3898.0,3897.0,1297.0,1291.0,57.0,52.0
3904,1296,61,1,3901.0,3898.0,1296.0,1297.0,58.0,57.0
3908,1292,61,1,3904.0,3901.0,1296.0,1296.0,61.0,58.0
3908,1290,66,1,3908.0,3904.0,1292.0,1296.0,61.0,61.0
3910,1292,66,1,3908.0,3908.0,1290.0,1292.0,66.0,61.0
3910,1294,68,1,3910.0,3908.0,1292.0,1290.0,66.0,66.0
3907,1293,69,1,3910.0,3910.0,1294.0,1292.0,68.0,66.0
3903,1292,70,1,3907.0,3910.0,1293.0,1294.0,69.0,68.0
3900,1299,69,1,3903.0,3907.0,1292.0,1293.0,70.0,69.0
3897,1303,71,1,3900.0,3903.0,1299.0,1292.0,69.0,70.0
3893,1303,76,1,3897.0,3900.0,1303.0,1299.0,71.0,69.0
3891,1307,76,1,3893.0,3897.0,1303.0,1303.0,76.0,71.0
3892,1311,74,1,3891.0,3893.0,1307.0,1303.0,76.0,76.0
3888,1315,70,1,3892.0,3891.0,1311.0,1307.0,74.0,76.0
3885,1322,72,1,3888.0,3892.0,1315.0,1311.0,70.0,74.0
3881,1326,67,1,3885.0,3888.0,1322.0,1315.0,72.0,70.0
3880,1321,65,1,3881.0,3885.0,1326.0,1322.0,67.0,72.0
3882,1317,66,1,3880.0,3881.0,1321.0,1326.0,65.0,67.0
3883,1313,65,1,3882.0,3880.0,1317.0,1321.0,66.0,65.0
3884,1310,68,1,3883.0,3882.0,1313.0,1317.0,65.0,66.0
3883,1306,64,1,3884.0,3883.0,1310.0,1313.0,68.0,65.0
3887,1307,66,1,3883.0,3884.0,1306.0,1310.0,64.0,68.0
3889,1302,65,1,3887.0,3883.0,1307.0,1306.0,66.0,64.0
3886,1297,63,1,3889.0,3887.0,1302.0,1307.0,65.0,66.0
3883,1296,65,1,3886.0,3889.0,1297.0,1302.0,63.0,65.0
3881,1293,66,1,3883.0,3886.0,1296.0,1297.0,65.0,63.0
3881,1295,63,1,3881.0,3883.0,1293.0,1296.0,66.0,65.0
3881,1296,63,1,3881.0,3881.0,1295.0,1293.0,63.0,66.0
3881,1295,65,1,3881.0,3881.0,1296.0,1295.0,63.0,63.0
3881,1299,65,1,3881.0,3881.0,1295.0,1296.0,65.0,63.0
3882,1299,67,1,3881.0,3881.0,1299.0,1295.0,65.0,65.0
3880,1302,66,1,3882.0,3881.0,1299.0,1299.0,67.0,65.0
3879,1301,66,1,3880.0,3882.0,1302.0,1299.0,66.0,67.0
3878,1299,68,1,3879.0,3880.0,1301.0,1302.0,66.0,66.0
3877,1296,67,1,3878.0,3879.0,1299.0,1301.0,68.0,66.0
3878,1293,67,1,3877.0,3878.0,1296.0,1299.0,67.0,68.0
3877,1291,70,1,3878.0,3877.0,1293.0,1296.0,67.0,67.0
3874,1286,75,1,3877.0,3878.0,1291.0,1293.0,70.0,67.0
3872,1282,75,1,3874.0,3877.0,1286.0,1291.0,75.0,70.0
3875,1278,75,1,3872.0,3874.0,1282.0,1286.0,75.0,75.0
3880,1274,76,1,3875.0,3872.0,1278.0,1282.0,75.0,75.0
3890,1277,76,1,3880.0,3875.0,1274.0,1278.0,76.0,75.0
3894,1276,74,1,3890.0,3880.0,1277.0,1274.0,76.0,76.0
3893,1280,76,1,3894.0,3890.0,1276.0,1277.0,74.0,76.0
3891,1285,79,1,3893.0,3894.0,1280.0,1276.0,76.0,74.0
3888,1284,81,1,3891.0,3893.0,1285.0,1280.0,79.0,76.0
3889,1283,78,1,3888.0,3891.0,1284.0,1285.0,81.0,79.0
3891,1282,76,1,3889.0,3888.0,1283.0,1284.0,78.0,81.0
3889,1279,70,1,3891.0,3889.0,1282.0,1283.0,76.0,78.0
3890,1272,72,1,3889.0,3891.0,1279.0,1282.0,70.0,76.0
3885,1265,68,1,3890.0,3889.0,1272.0,1279.0,72.0,70.0
3879,1258,67,1,3885.0,3890.0,1265.0,1272.0,68.0,72.0
3877,1258,72,1,3879.0,3885.0,1258.0,1265.0,67.0,68.0
3880,1260,72,1,3877.0,3879.0,1258.0,1258.0,72.0,67.0
3886,1260,75,1,3880.0,3877.0,1260.0,1258.0,72.0,72.0
3893,1262,81,1,3886.0,3880.0,1260.0,1260.0,75.0,72.0
3894,1262,86,1,3893.0,3886.0,1262.0,1260.0,81.0,75.0
3891,1261,89,1,3894.0,3893.0,1262.0,1262.0,86.0,81.0
3888,1260,97,1,3891.0,3894.0,1261.0,1262.0,89.0,86.0
3888,1262,100,1,3888.0,3891.0,1260.0,1261.0,97.0,89.0
3887,1264,102,1,3888.0,3888.0,1262.0,1260.0,100.0,97.0
3888,1267,101,1,3887.0,3888.0,1264.0,1262.0,102.0,100.0
3888,1267,101,1,3888.0,3887.0,1267.0,1264.0,101.0,102.0
3892,1266,102,1,3888.0,3888.0,1267.0,1267.0,101.0,101.0
3892,1260,103,1,3892.0,3888.0,1266.0,1267.0,102.0,101.0
3895,1255,108,1,3892.0,3892.0,1260.0,1266.0,103.0,102.0
3899,1256,118,1,3895.0,3892.0,1255.0,1260.0,108.0,103.0
3900,1251,125,1,3899.0,3895.0,1256.0,1255.0,118.0,108.0
3901,1243,126,1,3900.0,3899.0,1251.0,1256.0,125.0,118.0
3892,1231,127,1,3901.0,3900.0,1243.0,1251.0,126.0,125.0
3892,1228,129,1,3892.0,3901.0,1231.0,1243.0,127.0,126.0
3899,1216,120,1,3892.0,3892.0,1228.0,1231.0,129.0,127.0
3909,1204,115,1,3899.0,3892.0,1216.0,1228.0,120.0,129.0
3914,1195,118,1,3909.0,3899.0,1204.0,1216.0,115.0,120.0
3915,1186,124,1,3914.0,3909.0,1195.0,1204.0,118.0,115.0
3916,1182,129,1,3915.0,3914.0,1186.0,1195.0,124.0,118.0
3918,1172,133,1,3916.0,3915.0,1182.0,1186.0,129.0,124.0
3915,1166,130,1,3918.0,3916.0,1172.0,1182.0,133.0,129.0
3915,1166,128,1,3915.0,3918.0,1166.0,1172.0,130.0,133.0
3913,1168,121,1,3915.0,3915.0,1166.0,1166.0,128.0,130.0
3915,1159,113,1,3913.0,3915.0,1168.0,1166.0,121.0,128.0
3922,1149,112,1,3915.0,3913.0,1159.0,1168.0,113.0,121.0
3927,1141,114,1,3922.0,3915.0,1149.0,1159.0,112.0,113.0
3936,1129,112,1,3927.0,3922.0,1141.0,1149.0,114.0,112.0
3940,1113,109,1,3936.0,3927.0,1129.0,1141.0,112.0,114.0
3944,1100,105,1,3940.0,3936.0,1113.0,1129.0,109.0,112.0
3947,1081,98,1,3944.0,3940.0,1100.0,1113.0,105.0,109.0
3949,1068,99,1,3947.0,3944.0,1081.0,1100.0,98.0,105.0
3947,1055,90,1,3949.0,3947.0,1068.0,1081.0,99.0,98.0
3941,1042,75,1,3947.0,3949.0,1055.0,1068.0,90.0,99.0
3934,1034,63,1,3941.0,3947.0,1042.0,1055.0,75.0,90.0
3928,1031,51,1,3934.0,3941.0,1034.0,1042.0,63.0,75.0
3934,1023,42,1,3928.0,3934.0,1031.0,1034.0,51.0,63.0
3947,1007,36,1,3934.0,3928.0,1023.0,1031.0,42.0,51.0
3959,994,36,1,3947.0,3934.0,1007.0,1023.0,36.0,42.0
3972,977,33,1,3959.0,3947.0,994.0,1007.0,36.0,36.0
3980,957,28,1,3972.0,3959.0,977.0,994.0,33.0,36.0
3992,933,23,1,3980.0,3972.0,957.0,977.0,28.0,33.0
4002,915,23,1,3992.0,3980.0,933.0,957.0,23.0,28.0
4008,907,24,1,4002.0,3992.0,915.0,933.0,23.0,23.0
4014,901,21,1,4008.0,4002.0,907.0,915.0,24.0,23.0
4017,896,21,1,4014.0,4008.0,901.0,907.0,21.0,24.0
4025,901,28,1,4017.0,4014.0,896.0,901.0,21.0,21.0
4030,903,28,1,4025.0,4017.0,901.0,896.0,28.0,21.0
4024,916,28,1,4030.0,4025.0,903.0,901.0,28.0,28.0
4017,925,23,1,4024.0,4030.0,916.0,903.0,28.0,28.0
4010,934,19,1,4017.0,4024.0,925.0,916.0,23.0,28.0
3997,942,17,1,4010.0,4017.0,934.0,925.0,19.0,23.0
3989,951,22,1,3997.0,4010.0,942.0,934.0,17.0,19.0
3984,953,31,1,3989.0,3997.0,951.0,942.0,22.0,17.0
3975,958,42,1,3984.0,3989.0,953.0,951.0,31.0,22.0
3970,966,51,1,3975.0,3984.0,958.0,953.0,42.0,31.0
3964,973,58,1,3970.0,3975.0,966.0,958.0,51.0,42.0
3960,983,67,1,3964.0,3970.0,973.0,966.0,58.0,51.0
3957,995,68,1,3960.0,3964.0,983.0,973.0,67.0,58.0
3960,998,63,1,3957.0,3960.0,995.0,983.0,68.0,67.0
3957,1010,61,1,3960.0,3957.0,998.0,995.0,63.0,68.0
3958,1021,60,1,3957.0,3960.0,1010.0,998.0,61.0,63.0
3956,1033,52,1,3958.0,3957.0,1021.0,1010.0,60.0,61.0
3949,1049,49,1,3956.0,3958.0,1033.0,1021.0,52.0,60.0
3937,1064,37,1,3949.0,3956.0,1049.0,1033.0,49.0,52.0
3939,1074,31,1,3937.0,3949.0,1064.0,1049.0,37.0,49.0
3950,1086,28,1,3939.0,3937.0,1074.0,1064.0,31.0,37.0
3952,1103,20,1,3950.0,3939.0,1086.0,1074.0,28.0,31.0
3953,1116,14,1,3952.0,3950.0,1103.0,1086.0,20.0,28.0
3953,1129,9,1,3953.0,3952.0,1116.0,1103.0,14.0,20.0
3950,1145,5,1,3953.0,3953.0,1129.0,1116.0,9.0,14.0
3950,1162,2,1,3950.0,3953.0,1145.0,1129.0,5.0,9.0
3951,1176,1,1,3950.0,3950.0,1162.0,1145.0,2.0,5.0
3949,1190,-4,1,3951.0,3950.0,1176.0,1162.0,1.0,2.0
3946,1202,-11,1,3949.0,3951.0,1190.0,1176.0,-4.0,1.0
3941,1220,-15,1,3946.0,3949.0,1202.0,1190.0,-11.0,-4.0
3933,1236,-24,1,3941.0,3946.0,1220.0,1202.0,-15.0,-11.0
3927,1252,-31,1,3933.0,3941.0,1236.0,1220.0,-24.0,-15.0
3924,1269,-34,1,3927.0,3933.0,1252.0,1236.0,-31.0,-24.0
3920,1290,-35,1,3924.0,3927.0,1269.0,1252.0,-34.0,-31.0
3914,1309,-40,1,3920.0,3924.0,1290.0,1269.0,-35.0,-34.0
3910,1330,-47,1,3914.0,3920.0,1309.0,1290.0,-40.0,-35.0
3901,1349,-57,1,3910.0,3914.0,1330.0,1309.0,-47.0,-40.0
3890,1364,-55,1,3901.0,3910.0,1349.0,1330.0,-57.0,-47.0
3886,1381,-55,1,3890.0,3901.0,1364.0,1349.0,-55.0,-57.0
3883,1397,-60,1,3886.0,3890.0,1381.0,1364.0,-55.0,-55.0
3877,1408,-64,1,3883.0,3886.0,1397.0,1381.0,-60.0,-55.0
3879,1426,-60,1,3877.0,3883.0,1408.0,1397.0,-64.0,-60.0
3880,1438,-64,1,3879.0,3877.0,1426.0,1408.0,-60.0,-64.0
3872,1453,-61,1,3880.0,3879.0,1438.0,1426.0,-64.0,-60.0
3859,1462,-61,1,3872.0,3880.0,1453.0,1438.0,-61.0,-64.0
3846,1470,-53,1,3859.0,3872.0,1462.0,1453.0,-61.0,-61.0
3841,1479,-45,1,3846.0,3859.0,1470.0,1462.0,-53.0,-61.0
3835,1480,-33,1,3841.0,3846.0,1479.0,1470.0,-45.0,-53.0
3840,1479,-28,1,3835.0,3841.0,1480.0,1479.0,-33.0,-45.0
3852,1467,-21,1,3840.0,3835.0,1479.0,1480.0,-28.0,-33.0
3865,1455,-16,1,3852.0,3840.0,1467.0,1479.0,-21.0,-28.0
3868,1455,-10,1,3865.0,3852.0,1455.0,1467.0,-16.0,-21.0
3860,1452,-6,1,3868.0,3865.0,1455.0,1455.0,-10.0,-16.0
3851,1447,-6,1,3860.0,3868.0,1452.0,1455.0,-6.0,-10.0
3846,1445,-8,1,3851.0,3860.0,1447.0,1452.0,-6.0,-6.0
3835,1440,-12,1,3846.0,3851.0,1445.0,1447.0,-8.0,-6.0
3826,1438,-23,1,3835.0,3846.0,1440.0,1445.0,-12.0,-8.0
3815,1430,-29,1,3826.0,3835.0,1438.0,1440.0,-23.0,-12.0
3807,1423,-28,1,3815.0,3826.0,1430.0,1438.0,-29.0,-23.0
3808,1422,-22,1,3807.0,3815.0,1423.0,1430.0,-28.0,-29.0
3812,1420,-21,1,3808.0,3807.0,1422.0,1423.0,-22.0,-28.0
3826,1421,-21,1,3812.0,3808.0,1420.0,1422.0,-21.0,-22.0
3836,1419,-21,1,3826.0,3812.0,1421.0,1420.0,-21.0,-21.0
3845,1422,-18,1,3836.0,3826.0,1419.0,1421.0,-21.0,-21.0
3849,1431,-13,1,3845.0,3836.0,1422.0,1419.0,-18.0,-21.0
3857,1436,-6,1,3849.0,3845.0,1431.0,1422.0,-13.0,-18.0
3863,1444,-5,1,3857.0,3849.0,1436.0,1431.0,-6.0,-13.0
3868,1451,-9,1,3863.0,3857.0,1444.0,1436.0,-5.0,-6.0
3870,1459,-12,1,3868.0,3863.0,1451.0,1444.0,-9.0,-5.0
3864,1466,-18,1,3870.0,3868.0,1459.0,1451.0,-12.0,-9.0
3861,1467,-17,1,3864.0,3870.0,1466.0,1459.0,-18.0,-12.0
3868,1468,-10,1,3861.0,3864.0,1467.0,1466.0,-17.0,-18.0
3866,1471,-3,1,3868.0,3861.0,1468.0,1467.0,-10.0,-17.0
3866,1470,-4,1,3866.0,3868.0,1471.0,1468.0,-3.0,-10.0
3865,1471,-1,1,3866.0,3866.0,1470.0,1471.0,-4.0,-3.0
3867,1471,2,1,3865.0,3866.0,1471.0,1470.0,-1.0,-4.0
3869,1473,2,1,3867.0,3865.0,1471.0,1471.0,2.0,-1.0
3871,1474,2,1,3869.0,3867.0,1473.0,1471.0,2.0,2.0
3865,1468,-4,1,3871.0,3869.0,1474.0,1473.0,2.0,2.0
3862,1465,-8,1,3865.0,3871.0,1468.0,1474.0,-4.0,2.0
3858,1457,-13,1,3862.0,3865.0,1465.0,1468.0,-8.0,-4.0
3856,1452,-18,1,3858.0,3862.0,1457.0,1465.0,-13.0,-8.0
3852,1439,-21,1,3856.0,3858.0,1452.0,1457.0,-18.0,-13.0
3839,1438,-17,1,3852.0,3856.0,1439.0,1452.0,-21.0,-18.0
3829,1441,-22,1,3839.0,3852.0,1438.0,1439.0,-17.0,-21.0
3815,1438,-18,1,3829.0,3839.0,1441.0,1438.0,-22.0,-17.0
3806,1438,-22,1,3815.0,3829.0,1438.0,1441.0,-18.0,-22.0
3799,1444,-26,1,3806.0,3815.0,1438.0,1438.0,-22.0,-18.0
3804,1446,-27,1,3799.0,3806.0,1444.0,1438.0,-26.0,-22.0
3810,1450,-25,1,3804.0,3799.0,1446.0,1444.0,-27.0,-26.0
3809,1453,-26,1,3810.0,3804.0,1450.0,1446.0,-25.0,-27.0
3811,1453,-21,1,3809.0,3810.0,1453.0,1450.0,-26.0,-25.0
3810,1456,-20,1,3811.0,3809.0,1453.0,1453.0,-21.0,-26.0
3814,1455,-17,1,3810.0,3811.0,1456.0,1453.0,-20.0,-21.0
3819,1456,-12,1,3814.0,3810.0,1455.0,1456.0,-17.0,-20.0
3827,1455,-5,1,3819.0,3814.0,1456.0,1455.0,-12.0,-17.0
3837,1451,1,1,3827.0,3819.0,1455.0,1456.0,-5.0,-12.0
3846,1448,5,1,3837.0,3827.0,1451.0,1455.0,1.0,-5.0
3850,1444,9,1,3846.0,3837.0,1448.0,1451.0,5.0,1.0
3851,1441,11,1,3850.0,3846.0,1444.0,1448.0,9.0,5.0
3852,1441,16,1,3851.0,3850.0,1441.0,1444.0,11.0,9.0
3858,1434,16,1,3852.0,3851.0,1441.0,1441.0,16.0,11.0
3870,1427,13,1,3858.0,3852.0,1434.0,1441.0,16.0,16.0
3872,1417,10,1,3870.0,3858.0,1427.0,1434.0,13.0,16.0
3877,1409,6,1,3872.0,3870.0,1417.0,1427.0,10.0,13.0
3881,1400,1,1,3877.0,3872.0,1409.0,1417.0,6.0,10.0
3876,1391,0,1,3881.0,3877.0,1400.0,1409.0,1.0,6.0
3870,1385,-1,1,3876.0,3881.0,1391.0,1400.0,0.0,1.0
3864,1373,-11,1,3870.0,3876.0,1385.0,1391.0,-1.0,0.0
3858,1362,-22,1,3864.0,3870.0,1373.0,1385.0,-11.0,-1.0
3853,1356,-28,1,3858.0,3864.0,1362.0,1373.0,-22.0,-11.0
3851,1349,-33,1,3853.0,3858.0,1356.0,1362.0,-28.0,-22.0
3854,1341,-35,1,3851.0,3853.0,1349.0,1356.0,-33.0,-28.0
3855,1341,-34,1,3854.0,3851.0,1341.0,1349.0,-35.0,-33.0
3850,1340,-32,1,3855.0,3854.0,1341.0,1341.0,-34.0,-35.0
3847,1341,-32,1,3850.0,3855.0,1340.0,1341.0,-32.0,-34.0
3845,1343,-34,1,3847.0,3850.0,1341.0,1340.0,-32.0,-32.0
3847,1349,-33,1,3845.0,3847.0,1343.0,1341.0,-34.0,-32.0
3848,1351,-31,1,3847.0,3845.0,1349.0,1343.0,-33.0,-34.0
3849,1358,-34,1,3848.0,3847.0,1351.0,1349.0,-31.0,-33.0
3845,1371,-36,1,3849.0,3848.0,1358.0,1351.0,-34.0,-31.0
3836,1383,-40,1,3845.0,3849.0,1371.0,1358.0,-36.0,-34.0
3826,1396,-46,1,3836.0,3845.0,1383.0,1371.0,-40.0,-36.0
3808,1406,-49,1,3826.0,3836.0,1396.0,1383.0,-46.0,-40.0
3780,1410,-52,1,3808.0,3826.0,1406.0,1396.0,-49.0,-46.0
3753,1419,-49,1,3780.0,3808.0,1410.0,1406.0,-52.0,-49.0
3736,1427,-47,1,3753.0,3780.0,1419.0,1410.0,-49.0,-52.0
3725,1438,-41,1,3736.0,3753.0,1427.0,1419.0,-47.0,-49.0
3726,1449,-34,1,3725.0,3736.0,1438.0,1427.0,-41.0,-47.0
3726,1462,-26,1,3726.0,3725.0,1449.0,1438.0,-34.0,-41.0
3730,1474,-21,1,3726.0,3726.0,1462.0,1449.0,-26.0,-34.0
3740,1494,-17,1,3730.0,3726.0,1474.0,1462.0,-21.0,-26.0
3743,1512,-12,1,3740.0,3730.0,1494.0,1474.0,-17.0,-21.0
3745,1524,-11,1,3743.0,3740.0,1512.0,1494.0,-12.0,-17.0
3749,1536,-7,1,3745.0,3743.0,1524.0,1512.0,-11.0,-12.0
3757,1551,-8,1,3749.0,3745.0,1536.0,1524.0,-7.0,-11.0
3772,1571,-9,1,3757.0,3749.0,1551.0,1536.0,-8.0,-7.0
3784,1589,-6,1,3772.0,3757.0,1571.0,1551.0,-9.0,-8.0
3800,1607,-6,1,3784.0,3772.0,1589.0,1571.0,-6.0,-9.0
3817,1622,-7,1,3800.0,3784.0,1607.0,1589.0,-6.0,-6.0
3830,1633,-9,1,3817.0,3800.0,1622.0,1607.0,-7.0,-6.0
3843,1641,-5,1,3830.0,3817.0,1633.0,1622.0,-9.0,-7.0
3855,1641,-3,1,3843.0,3830.0,1641.0,1633.0,-5.0,-9.0
3863,1635,0,1,3855.0,3843.0,1641.0,1641.0,-3.0,-5.0
3865,1632,0,1,3863.0,3855.0,1635.0,1641.0,0.0,-3.0
3863,1624,1,1,3865.0,3863.0,1632.0,1635.0,0.0,0.0
3863,1601,1,1,3863.0,3865.0,1624.0,1632.0,1.0,0.0
3858,1583,3,1,3863.0,3863.0,1601.0,1624.0,1.0,1.0
3850,1563,0,1,3858.0,3863.0,1583.0,1601.0,3.0,1.0
3849,1549,-1,1,3850.0,3858.0,1563.0,1583.0,0.0,3.0
3846,1531,-5,1,3849.0,3850.0,1549.0,1563.0,-1.0,0.0
3841,1513,-8,1,3846.0,3849.0,1531.0,1549.0,-5.0,-1.0
3836,1494,-15,1,3841.0,3846.0,1513.0,1531.0,-8.0,-5.0
3834,1476,-18,1,3836.0,3841.0,1494.0,1513.0,-15.0,-8.0
3836,1462,-21,1,3834.0,3836.0,1476.0,1494.0,-18.0,-15.0
3840,1453,-26,1,3836.0,3834.0,1462.0,1476.0,-21.0,-18.0
3843,1444,-26,1,3840.0,3836.0,1453.0,1462.0,-26.0,-21.0
3844,1439,-25,1,3843.0,3840.0,1444.0,1453.0,-26.0,-26.0
3852,1437,-20,1,3844.0,3843.0,1439.0,1444.0,-25.0,-26.0
3864,1429,-20,1,3852.0,3844.0,1437.0,1439.0,-20.0,-25.0
3877,1427,-16,1,3864.0,3852.0,1429.0,1437.0,-20.0,-20.0
3879,1428,-13,1,3877.0,3864.0,1427.0,1429.0,-16.0,-20.0
3879,1423,-8,1,3879.0,3877.0,1428.0,1427.0,-13.0,-16.0
3872,1413,-11,1,3879.0,3879.0,1423.0,1428.0,-8.0,-13.0
3867,1404,-16,1,3872.0,3879.0,1413.0,1423.0,-11.0,-8.0
3862,1401,-19,1,3867.0,3872.0,1404.0,1413.0,-16.0,-11.0
3848,1378,-32,1,3862.0,3867.0,1401.0,1404.0,-19.0,-16.0
3833,1350,-38,1,3848.0,3862.0,1378.0,1401.0,-32.0,-19.0
3828,1317,-43,1,3833.0,3848.0,1350.0,1378.0,-38.0,-32.0
3833,1292,-36,1,3828.0,3833.0,1317.0,1350.0,-43.0,-38.0
3838,1278,-27,1,3833.0,3828.0,1292.0,1317.0,-36.0,-43.0
3849,1267,-19,1,3838.0,3833.0,1278.0,1292.0,-27.0,-36.0
3862,1266,-18,1,3849.0,3838.0,1267.0,1278.0,-19.0,-27.0
3873,1256,-22,1,3862.0,3849.0,1266.0,1267.0,-18.0,-19.0
3881,1255,-17,1,3873.0,3862.0,1256.0,1266.0,-22.0,-18.0
3892,1252,-10,1,3881.0,3873.0,1255.0,1256.0,-17.0,-22.0
3908,1252,-2,1,3892.0,3881.0,1252.0,1255.0,-10.0,-17.0
3921,1255,3,1,3908.0,3892.0,1252.0,1252.0,-2.0,-10.0
3933,1255,3,1,3921.0,3908.0,1255.0,1252.0,3.0,-2.0
3932,1256,-6,1,3933.0,3921.0,1255.0,1255.0,3.0,3.0
3941,1263,-1,1,3932.0,3933.0,1256.0,1255.0,-6.0,3.0
3947,1255,1,1,3941.0,3932.0,1263.0,1256.0,-1.0,-6.0
3959,1251,3,1,3947.0,3941.0,1255.0,1263.0,1.0,-1.0
3953,1235,5,1,3959.0,3947.0,1251.0,1255.0,3.0,1.0
3935,1222,0,1,3953.0,3959.0,1235.0,1251.0,5.0,3.0
3917,1214,-4,1,3935.0,3953.0,1222.0,1235.0,0.0,5.0
3896,1199,-19,1,3917.0,3935.0,1214.0,1222.0,-4.0,0.0
3876,1187,-33,1,3896.0,3917.0,1199.0,1214.0,-19.0,-4.0
3869,1177,-40,1,3876.0,3896.0,1187.0,1199.0,-33.0,-19.0
3884,1180,-44,1,3869.0,3876.0,1177.0,1187.0,-40.0,-33.0
3894,1192,-46,1,3884.0,3869.0,1180.0,1177.0,-44.0,-40.0
3916,1203,-42,1,3894.0,3884.0,1192.0,1180.0,-46.0,-44.0
3920,1200,-43,1,3916.0,3894.0,1203.0,1192.0,-42.0,-46.0
3907,1174,-38,1,3920.0,3916.0,1200.0,1203.0,-43.0,-42.0
3911,1155,-24,1,3907.0,3920.0,1174.0,1200.0,-38.0,-43.0
4007,1128,-4,1,3911.0,3907.0,1155.0,1174.0,-24.0,-38.0
4183,1092,-23,1,4007.0,3911.0,1128.0,1155.0,-4.0,-24.0
4188,1177,-10,1,4183.0,4007.0,1092.0,1128.0,-23.0,-4.0
4140,1237,57,1,4188.0,4183.0,1177.0,1092.0,-10.0,-23.0
4159,1229,68,1,4140.0,4188.0,1237.0,1177.0,57.0,-10.0
4220,1296,99,1,4159.0,4140.0,1229.0,1237.0,68.0,57.0
4259,1198,33,1,4220.0,4159.0,1296.0,1229.0,99.0,68.0
4216,1156,21,1,4259.0,4220.0,1198.0,1296.0,33.0,99.0
4082,1172,56,1,4216.0,4259.0,1156.0,1198.0,21.0,33.0
4018,1127,52,1,4082.0,4216.0,1172.0,1156.0,56.0,21.0
4018,1065,27,1,4018.0,4082.0,1127.0,1172.0,52.0,56.0
4004,1018,3,1,4018.0,4018.0,1065.0,1127.0,27.0,52.0
3970,964,16,1,4004.0,4018.0,1018.0,1065.0,3.0,27.0
3914,950,21,1,3970.0,4004.0,964.0,1018.0,16.0,3.0
3809,926,5,1,3914.0,3970.0,950.0,964.0,21.0,16.0
3741,918,1,1,3809.0,3914.0,926.0,950.0,5.0,21.0
3715,952,1,1,3741.0,3809.0,918.0,926.0,1.0,5.0
3658,995,-1,1,3715.0,3741.0,952.0,918.0,1.0,1.0
3628,1042,-9,1,3658.0,3715.0,995.0,952.0,-1.0,1.0
3647,1072,-20,1,3628.0,3658.0,1042.0,995.0,-9.0,-1.0
3672,1097,-16,1,3647.0,3628.0,1072.0,1042.0,-20.0,-9.0
3672,1109,-1,1,3672.0,3647.0,1097.0,1072.0,-16.0,-20.0
3681,1120,22,1,3672.0,3672.0,1109.0,1097.0,-1.0,-16.0
3685,1117,20,1,3681.0,3672.0,1120.0,1109.0,22.0,-1.0
3708,1108,12,1,3685.0,3681.0,1117.0,1120.0,20.0,22.0
3733,1104,3,1,3708.0,3685.0,1108.0,1117.0,12.0,20.0
3761,1093,-4,1,3733.0,3708.0,1104.0,1108.0,3.0,12.0
3796,1090,-13,1,3761.0,3733.0,1093.0,1104.0,-4.0,3.0
3809,1088,-19,1,3796.0,3761.0,1090.0,1093.0,-13.0,-4.0
3807,1094,-21,1,3809.0,3796.0,1088.0,1090.0,-19.0,-13.0
3801,1110,-24,1,3807.0,3809.0,1094.0,1088.0,-21.0,-19.0
3803,1116,-26,1,3801.0,3807.0,1110.0,1094.0,-24.0,-21.0
3802,1121,-29,1,3803.0,3801.0,1116.0,1110.0,-26.0,-24.0
3810,1127,-30,1,3802.0,3803.0,1121.0,1116.0,-29.0,-26.0
3844,1136,-18,1,3810.0,3802.0,1127.0,1121.0,-30.0,-29.0
3860,1154,-11,1,3844.0,3810.0,1136.0,1127.0,-18.0,-30.0
3873,1182,-3,1,3860.0,3844.0,1154.0,1136.0,-11.0,-18.0
3863,1226,4,1,3873.0,3860.0,1182.0,1154.0,-3.0,-11.0
3826,1273,14,1,3863.0,3873.0,1226.0,1182.0,4.0,-3.0
3794,1302,20,1,3826.0,3863.0,1273.0,1226.0,14.0,4.0
3761,1325,20,1,3794.0,3826.0,1302.0,1273.0,20.0,14.0
3745,1334,13,1,3761.0,3794.0,1325.0,1302.0,20.0,20.0
3736,1335,7,1,3745.0,3761.0,1334.0,1325.0,13.0,20.0
3727,1342,4,1,3736.0,3745.0,1335.0,1334.0,7.0,13.0
3753,1335,3,1,3727.0,3736.0,1342.0,1335.0,4.0,7.0
3798,1308,-15,1,3753.0,3727.0,1335.0,1342.0,3.0,4.0
3839,1292,-26,1,3798.0,3753.0,1308.0,1335.0,-15.0,3.0
3872,1283,-39,1,3839.0,3798.0,1292.0,1308.0,-26.0,-15.0
3893,1288,-43,1,3872.0,3839.0,1283.0,1292.0,-39.0,-26.0
3904,1315,-41,1,3893.0,3872.0,1288.0,1283.0,-43.0,-39.0
3911,1346,-47,1,3904.0,3893.0,1315.0,1288.0,-41.0,-43.0
3935,1390,-52,1,3911.0,3904.0,1346.0,1315.0,-47.0,-41.0
3948,1426,-64,1,3935.0,3911.0,1390.0,1346.0,-52.0,-47.0
3960,1452,-72,1,3948.0,3935.0,1426.0,1390.0,-64.0,-52.0
3969,1466,-76,1,3960.0,3948.0,1452.0,1426.0,-72.0,-64.0
3974,1475,-77,1,3969.0,3960.0,1466.0,1452.0,-76.0,-72.0
3961,1476,-81,1,3974.0,3969.0,1475.0,1466.0,-77.0,-76.0
3945,1472,-93,1,3961.0,3974.0,1476.0,1475.0,-81.0,-77.0
3945,1454,-108,1,3945.0,3961.0,1472.0,1476.0,-93.0,-81.0
3957,1433,-119,1,3945.0,3945.0,1454.0,1472.0,-108.0,-93.0
3969,1415,-119,1,3957.0,3945.0,1433.0,1454.0,-119.0,-108.0
3971,1405,-112,1,3969.0,3957.0,1415.0,1433.0,-119.0,-119.0
3961,1404,-102,1,3971.0,3969.0,1405.0,1415.0,-112.0,-119.0
3942,1396,-96,1,3961.0,3971.0,1404.0,1405.0,-102.0,-112.0
3937,1386,-104,1,3942.0,3961.0,1396.0,1404.0,-96.0,-102.0
3936,1372,-118,1,3937.0,3942.0,1386.0,1396.0,-104.0,-96.0
3950,1354,-126,1,3936.0,3937.0,1372.0,1386.0,-118.0,-104.0
3932,1333,-128,1,3950.0,3936.0,1354.0,1372.0,-126.0,-118.0
3914,1307,-129,1,3932.0,3950.0,1333.0,1354.0,-128.0,-126.0
3913,1281,-127,1,3914.0,3932.0,1307.0,1333.0,-129.0,-128.0
3927,1279,-109,1,3913.0,3914.0,1281.0,1307.0,-127.0,-129.0
3908,1267,-111,1,3927.0,3913.0,1279.0,1281.0,-109.0,-127.0
3888,1260,-109,1,3908.0,3927.0,1267.0,1279.0,-111.0,-109.0
3879,1269,-102,1,3888.0,3908.0,1260.0,1267.0,-109.0,-111.0
3878,1269,-94,1,3879.0,3888.0,1269.0,1260.0,-102.0,-109.0
3863,1287,-107,1,3878.0,3879.0,1269.0,1269.0,-94.0,-102.0
3846,1325,-97,1,3863.0,3878.0,1287.0,1269.0,-107.0,-94.0
3832,1338,-91,1,3846.0,3863.0,1325.0,1287.0,-97.0,-107.0
3835,1341,-99,1,3832.0,3846.0,1338.0,1325.0,-91.0,-97.0
3849,1352,-93,1,3835.0,3832.0,1341.0,1338.0,-99.0,-91.0
3859,1362,-97,1,3849.0,3835.0,1352.0,1341.0,-93.0,-99.0
3865,1362,-96,1,3859.0,3849.0,1362.0,1352.0,-97.0,-93.0
3883,1346,-98,1,3865.0,3859.0,1362.0,1362.0,-96.0,-97.0
3897,1336,-94,1,3883.0,3865.0,1346.0,1362.0,-98.0,-96.0
3925,1326,-80,1,3897.0,3883.0,1336.0,1346.0,-94.0,-98.0
3921,1328,-77,1,3925.0,3897.0,1326.0,1336.0,-80.0,-94.0
3923,1327,-58,1,3921.0,3925.0,1328.0,1326.0,-77.0,-80.0
3937,1305,-58,1,3923.0,3921.0,1327.0,1328.0,-58.0,-77.0
3943,1278,-65,1,3937.0,3923.0,1305.0,1327.0,-58.0,-58.0
3931,1274,-63,1,3943.0,3937.0,1278.0,1305.0,-65.0,-58.0
3937,1267,-59,1,3931.0,3943.0,1274.0,1278.0,-63.0,-65.0
3925,1251,-68,1,3937.0,3931.0,1267.0,1274.0,-59.0,-63.0
3925,1236,-69,1,3925.0,3937.0,1251.0,1267.0,-68.0,-59.0
3906,1232,-77,1,3925.0,3925.0,1236.0,1251.0,-69.0,-68.0
3886,1208,-75,1,3906.0,3925.0,1232.0,1236.0,-77.0,-69.0
3891,1208,-68,1,3886.0,3906.0,1208.0,1232.0,-75.0,-77.0
3877,1213,-72,1,3891.0,3886.0,1208.0,1208.0,-68.0,-75.0
3882,1219,-65,1,3877.0,3891.0,1213.0,1208.0,-72.0,-68.0
3894,1222,-68,1,3882.0,3877.0,1219.0,1213.0,-65.0,-72.0
3902,1222,-67,1,3894.0,3882.0,1222.0,1219.0,-68.0,-65.0
3886,1214,-62,1,3902.0,3894.0,1222.0,1222.0,-67.0,-68.0
3895,1205,-50,1,3886.0,3902.0,1214.0,1222.0,-62.0,-67.0
3874,1205,-45,1,3895.0,3886.0,1205.0,1214.0,-50.0,-62.0
3900,1201,-39,1,3874.0,3895.0,1205.0,1205.0,-45.0,-50.0
3917,1212,-40,1,3900.0,3874.0,1201.0,1205.0,-39.0,-45.0
3954,1233,-39,1,3917.0,3900.0,1212.0,1201.0,-40.0,-39.0
3983,1249,-54,1,3954.0,3917.0,1233.0,1212.0,-39.0,-40.0
3997,1255,-72,1,3983.0,3954.0,1249.0,1233.0,-54.0,-39.0
3987,1263,-76,1,3997.0,3983.0,1255.0,1249.0,-72.0,-54.0
3977,1266,-72,1,3987.0,3997.0,1263.0,1255.0,-76.0,-72.0
3955,1261,-79,1,3977.0,3987.0,1266.0,1263.0,-72.0,-76.0
3950,1257,-79,1,3955.0,3977.0,1261.0,1266.0,-79.0,-72.0
3952,1267,-84,1,3950.0,3955.0,1257.0,1261.0,-79.0,-79.0
3942,1249,-101,1,3952.0,3950.0,1267.0,1257.0,-84.0,-79.0
3947,1254,-98,1,3942.0,3952.0,1249.0,1267.0,-101.0,-84.0
3991,1282,-97,1,3947.0,3942.0,1254.0,1249.0,-98.0,-101.0
3962,1303,-99,1,3991.0,3947.0,1282.0,1254.0,-97.0,-98.0
3940,1281,-121,1,3962.0,3991.0,1303.0,1282.0,-99.0,-97.0
3905,1262,-127,1,3940.0,3962.0,1281.0,1303.0,-121.0,-99.0
3909,1250,-112,1,3905.0,3940.0,1262.0,1281.0,-127.0,-121.0
3923,1242,-113,1,3909.0,3905.0,1250.0,1262.0,-112.0,-127.0
3933,1221,-131,1,3923.0,3909.0,1242.0,1250.0,-113.0,-112.0
3946,1212,-133,1,3933.0,3923.0,1221.0,1242.0,-131.0,-113.0
3960,1214,-125,1,3946.0,3933.0,1212.0,1221.0,-133.0,-131.0
3973,1216,-116,1,3960.0,3946.0,1214.0,1212.0,-125.0,-133.0
3972,1218,-112,1,3973.0,3960.0,1216.0,1214.0,-116.0,-125.0
3958,1215,-115,1,3972.0,3973.0,1218.0,1216.0,-112.0,-116.0
3938,1214,-116,1,3958.0,3972.0,1215.0,1218.0,-115.0,-112.0
3927,1201,-120,1,3938.0,3958.0,1214.0,1215.0,-116.0,-115.0
3932,1200,-121,1,3927.0,3938.0,1201.0,1214.0,-120.0,-116.0
3939,1209,-124,1,3932.0,3927.0,1200.0,1201.0,-121.0,-120.0
3957,1217,-126,1,3939.0,3932.0,1209.0,1200.0,-124.0,-121.0
3968,1235,-127,1,3957.0,3939.0,1217.0,1209.0,-126.0,-124.0
3979,1239,-126,1,3968.0,3957.0,1235.0,1217.0,-127.0,-126.0
3992,1232,-127,1,3979.0,3968.0,1239.0,1235.0,-126.0,-127.0
4018,1230,-128,1,3992.0,3979.0,1232.0,1239.0,-127.0,-126.0
4050,1241,-122,1,4018.0,3992.0,1230.0,1232.0,-128.0,-127.0
4075,1246,-119,1,4050.0,4018.0,1241.0,1230.0,-122.0,-128.0
4074,1250,-116,1,4075.0,4050.0,1246.0,1241.0,-119.0,-122.0
4098,1238,-113,1,4074.0,4075.0,1250.0,1246.0,-116.0,-119.0
4102,1240,-118,1,4098.0,4074.0,1238.0,1250.0,-113.0,-116.0
4122,1238,-110,1,4102.0,4098.0,1240.0,1238.0,-118.0,-113.0
4123,1231,-108,1,4122.0,4102.0,1238.0,1240.0,-110.0,-118.0
4124,1234,-100,1,4123.0,4122.0,1231.0,1238.0,-108.0,-110.0
4112,1240,-87,1,4124.0,4123.0,1234.0,1231.0,-100.0,-108.0
4068,1242,-77,1,4112.0,4124.0,1240.0,1234.0,-87.0,-100.0
3993,1234,-72,1,4068.0,4112.0,1242.0,1240.0,-77.0,-87.0
3905,1223,-68,1,3993.0,4068.0,1234.0,1242.0,-72.0,-77.0
3827,1197,-66,1,3905.0,3993.0,1223.0,1234.0,-68.0,-72.0
3790,1190,-76,1,3827.0,3905.0,1197.0,1223.0,-66.0,-68.0
3767,1210,-76,1,3790.0,3827.0,1190.0,1197.0,-76.0,-66.0
3741,1217,-90,1,3767.0,3790.0,1210.0,1190.0,-76.0,-76.0
3729,1221,-102,1,3741.0,3767.0,1217.0,1210.0,-90.0,-76.0
3726,1226,-113,1,3729.0,3741.0,1221.0,1217.0,-102.0,-90.0
3727,1260,-100,1,3726.0,3729.0,1226.0,1221.0,-113.0,-102.0
3740,1306,-85,1,3727.0,3726.0,1260.0,1226.0,-100.0,-113.0
3805,1342,-79,1,3740.0,3727.0,1306.0,1260.0,-85.0,-100.0
3862,1401,-78,1,3805.0,3740.0,1342.0,1306.0,-79.0,-85.0
3906,1439,-78,1,3862.0,3805.0,1401.0,1342.0,-78.0,-79.0
3977,1459,-71,1,3906.0,3862.0,1439.0,1401.0,-78.0,-78.0
4042,1472,-79,1,3977.0,3906.0,1459.0,1439.0,-71.0,-78.0
4080,1485,-86,1,4042.0,3977.0,1472.0,1459.0,-79.0,-71.0
4071,1484,-82,1,4080.0,4042.0,1485.0,1472.0,-86.0,-79.0
4014,1474,-69,1,4071.0,4080.0,1484.0,1485.0,-82.0,-86.0
3930,1436,-70,1,4014.0,4071.0,1474.0,1484.0,-69.0,-82.0
3853,1388,-78,1,3930.0,4014.0,1436.0,1474.0,-70.0,-69.0
3776,1352,-82,1,3853.0,3930.0,1388.0,1436.0,-78.0,-70.0
3724,1317,-75,1,3776.0,3853.0,1352.0,1388.0,-82.0,-78.0
3683,1292,-62,1,3724.0,3776.0,1317.0,1352.0,-75.0,-82.0
3640,1275,-46,1,3683.0,3724.0,1292.0,1317.0,-62.0,-75.0
3644,1270,-21,1,3640.0,3683.0,1275.0,1292.0,-46.0,-62.0
3686,1259,-24,1,3644.0,3640.0,1270.0,1275.0,-21.0,-46.0
3723,1267,-26,1,3686.0,3644.0,1259.0,1270.0,-24.0,-21.0
3771,1265,-31,1,3723.0,3686.0,1267.0,1259.0,-26.0,-24.0
3829,1256,-41,1,3771.0,3723.0,1265.0,1267.0,-31.0,-26.0
3890,1245,-66,1,3829.0,3771.0,1256.0,1265.0,-41.0,-31.0
3940,1234,-84,1,3890.0,3829.0,1245.0,1256.0,-66.0,-41.0
3998,1232,-96,1,3940.0,3890.0,1234.0,1245.0,-84.0,-66.0
4029,1224,-121,1,3998.0,3940.0,1232.0,1234.0,-96.0,-84.0
4044,1204,-141,1,4029.0,3998.0,1224.0,1232.0,-121.0,-96.0
4062,1180,-153,1,4044.0,4029.0,1204.0,1224.0,-141.0,-121.0
4013,1175,-139,1,4062.0,4044.0,1180.0,1204.0,-153.0,-141.0
3928,1171,-117,1,4013.0,4062.0,1175.0,1180.0,-139.0,-153.0
3859,1151,-124,1,3928.0,4013.0,1171.0,1175.0,-117.0,-139.0
3825,1136,-133,1,3859.0,3928.0,1151.0,1171.0,-124.0,-117.0
3787,1133,-125,1,3825.0,3859.0,1136.0,1151.0,-133.0,-124.0
3766,1141,-107,1,3787.0,3825.0,1133.0,1136.0,-125.0,-133.0
3755,1146,-99,1,3766.0,3787.0,1141.0,1133.0,-107.0,-125.0
3746,1151,-88,1,3755.0,3766.0,1146.0,1141.0,-99.0,-107.0
3725,1168,-79,1,3746.0,3755.0,1151.0,1146.0,-88.0,-99.0
3722,1176,-70,1,3725.0,3746.0,1168.0,1151.0,-79.0,-88.0
3734,1178,-66,1,3722.0,3725.0,1176.0,1168.0,-70.0,-79.0
3742,1187,-60,1,3734.0,3722.0,1178.0,1176.0,-66.0,-70.0
3751,1190,-54,1,3742.0,3734.0,1187.0,1178.0,-60.0,-66.0
3764,1194,-48,1,3751.0,3742.0,1190.0,1187.0,-54.0,-60.0
3753,1205,-48,1,3764.0,3751.0,1194.0,1190.0,-48.0,-54.0
3752,1204,-49,1,3753.0,3764.0,1205.0,1194.0,-48.0,-48.0
3773,1212,-41,1,3752.0,3753.0,1204.0,1205.0,-49.0,-48.0
3796,1208,-52,1,3773.0,3752.0,1212.0,1204.0,-41.0,-49.0
3853,1224,-55,1,3796.0,3773.0,1208.0,1212.0,-52.0,-41.0
3910,1230,-57,1,3853.0,3796.0,1224.0,1208.0,-55.0,-52.0
3921,1264,-58,1,3910.0,3853.0,1230.0,1224.0,-57.0,-55.0
3960,1254,-75,1,3921.0,3910.0,1264.0,1230.0,-58.0,-57.0
4024,1256,-69,1,3960.0,3921.0,1254.0,1264.0,-75.0,-58.0
4014,1278,-72,1,4024.0,3960.0,1256.0,1254.0,-69.0,-75.0
4008,1297,-63,1,4014.0,4024.0,1278.0,1256.0,-72.0,-69.0
3979,1303,-71,1,4008.0,4014.0,1297.0,1278.0,-63.0,-72.0
3957,1295,-68,1,3979.0,4008.0,1303.0,1297.0,-71.0,-63.0
3921,1287,-77,1,3957.0,3979.0,1295.0,1303.0,-68.0,-71.0
3905,1294,-66,1,3921.0,3957.0,1287.0,1295.0,-77.0,-68.0
3878,1302,-57,1,3905.0,3921.0,1294.0,1287.0,-66.0,-77.0
3864,1294,-70,1,3878.0,3905.0,1302.0,1294.0,-57.0,-66.0
3882,1291,-57,1,3864.0,3878.0,1294.0,1302.0,-70.0,-57.0
3871,1314,-54,1,3882.0,3864.0,1291.0,1294.0,-57.0,-70.0
3832,1296,-63,1,3871.0,3882.0,1314.0,1291.0,-54.0,-57.0
3815,1279,-57,1,3832.0,3871.0,1296.0,1314.0,-63.0,-54.0
3822,1257,-65,1,3815.0,3832.0,1279.0,1296.0,-57.0,-63.0
3864,1239,-76,1,3822.0,3815.0,1257.0,1279.0,-65.0,-57.0
3879,1229,-97,1,3864.0,3822.0,1239.0,1257.0,-76.0,-65.0
3884,1208,-103,1,3879.0,3864.0,1229.0,1239.0,-97.0,-76.0
3904,1184,-101,1,3884.0,3879.0,1208.0,1229.0,-103.0,-97.0
3923,1167,-98,1,3904.0,3884.0,1184.0,1208.0,-101.0,-103.0
3939,1160,-93,1,3923.0,3904.0,1167.0,1184.0,-98.0,-101.0
3947,1155,-93,1,3939.0,3923.0,1160.0,1167.0,-93.0,-98.0
3952,1146,-91,1,3947.0,3939.0,1155.0,1160.0,-93.0,-93.0
3948,1141,-93,1,3952.0,3947.0,1146.0,1155.0,-91.0,-93.0
3944,1136,-94,1,3948.0,3952.0,1141.0,1146.0,-93.0,-91.0
3952,1139,-87,1,3944.0,3948.0,1136.0,1141.0,-94.0,-93.0
3935,1138,-83,1,3952.0,3944.0,1139.0,1136.0,-87.0,-94.0
3925,1130,-85,1,3935.0,3952.0,1138.0,1139.0,-83.0,-87.0
3925,1110,-92,1,3925.0,3935.0,1130.0,1138.0,-85.0,-83.0
3935,1098,-93,1,3925.0,3925.0,1110.0,1130.0,-92.0,-85.0
3964,1088,-90,1,3935.0,3925.0,1098.0,1110.0,-93.0,-92.0
3985,1094,-87,1,3964.0,3935.0,1088.0,1098.0,-90.0,-93.0
3984,1102,-81,1,3985.0,3964.0,1094.0,1088.0,-87.0,-90.0
3995,1105,-76,1,3984.0,3985.0,1102.0,1094.0,-81.0,-87.0
4021,1090,-74,1,3995.0,3984.0,1105.0,1102.0,-76.0,-81.0
4075,1094,-80,1,4021.0,3995.0,1090.0,1105.0,-74.0,-76.0
4121,1108,-88,1,4075.0,4021.0,1094.0,1090.0,-80.0,-74.0
4128,1105,-79,1,4121.0,4075.0,1108.0,1094.0,-88.0,-80.0
4128,1096,-71,1,4128.0,4121.0,1105.0,1108.0,-79.0,-88.0
4145,1116,-80,1,4128.0,4128.0,1096.0,1105.0,-71.0,-79.0
4128,1113,-103,1,4145.0,4128.0,1116.0,1096.0,-80.0,-71.0
4121,1108,-110,1,4128.0,4145.0,1113.0,1116.0,-103.0,-80.0
4107,1102,-128,1,4121.0,4128.0,1108.0,1113.0,-110.0,-103.0
4144,1094,-125,1,4107.0,4121.0,1102.0,1108.0,-128.0,-110.0
4175,1119,-151,1,4144.0,4107.0,1094.0,1102.0,-125.0,-128.0
4147,1123,-146,1,4175.0,4144.0,1119.0,1094.0,-151.0,-125.0
4111,1114,-140,1,4147.0,4175.0,1123.0,1119.0,-146.0,-151.0
4077,1099,-151,1,4111.0,4147.0,1114.0,1123.0,-140.0,-146.0
4070,1094,-163,1,4077.0,4111.0,1099.0,1114.0,-151.0,-140.0
4084,1073,-169,1,4070.0,4077.0,1094.0,1099.0,-163.0,-151.0
4101,1045,-165,1,4084.0,4070.0,1073.0,1094.0,-169.0,-163.0
4134,1026,-166,1,4101.0,4084.0,1045.0,1073.0,-165.0,-169.0
4168,1021,-157,1,4134.0,4101.0,1026.0,1045.0,-166.0,-165.0
4184,1013,-153,1,4168.0,4134.0,1021.0,1026.0,-157.0,-166.0
4193,990,-147,1,4184.0,4168.0,1013.0,1021.0,-153.0,-157.0
4203,954,-146,1,4193.0,4184.0,990.0,1013.0,-147.0,-153.0
4228,929,-146,1,4203.0,4193.0,954.0,990.0,-146.0,-147.0
4187,928,-149,1,4228.0,4203.0,929.0,954.0,-146.0,-146.0
4144,918,-141,1,4187.0,4228.0,928.0,929.0,-149.0,-146.0
4136,911,-156,1,4144.0,4187.0,918.0,928.0,-141.0,-149.0
4078,937,-154,1,4136.0,4144.0,911.0,918.0,-156.0,-141.0
3984,950,-137,1,4078.0,4136.0,937.0,911.0,-154.0,-156.0
3858,954,-132,1,3984.0,4078.0,950.0,937.0,-137.0,-154.0
3782,942,-113,1,3858.0,3984.0,954.0,950.0,-132.0,-137.0
3734,944,-103,1,3782.0,3858.0,942.0,954.0,-113.0,-132.0
3714,969,-95,1,3734.0,3782.0,944.0,942.0,-103.0,-113.0
3759,1012,-96,1,3714.0,3734.0,969.0,944.0,-95.0,-103.0
3812,1075,-111,1,3759.0,3714.0,1012.0,969.0,-96.0,-95.0
3762,1123,-125,1,3812.0,3759.0,1075.0,1012.0,-111.0,-96.0
3686,1157,-118,1,3762.0,3812.0,1123.0,1075.0,-125.0,-111.0
3629,1179,-86,1,3686.0,3762.0,1157.0,1123.0,-118.0,-125.0
3628,1211,-60,1,3629.0,3686.0,1179.0,1157.0,-86.0,-118.0
3656,1256,-57,1,3628.0,3629.0,1211.0,1179.0,-60.0,-86.0
3743,1336,-66,1,3656.0,3628.0,1256.0,1211.0,-57.0,-60.0
3849,1441,-82,1,3743.0,3656.0,1336.0,1256.0,-66.0,-57.0
3839,1432,-119,1,3849.0,3743.0,1441.0,1336.0,-82.0,-66.0
3833,1449,-85,1,3839.0,3849.0,1432.0,1441.0,-119.0,-82.0
3860,1481,-78,1,3833.0,3839.0,1449.0,1432.0,-85.0,-119.0
3876,1510,-92,1,3860.0,3833.0,1481.0,1449.0,-78.0,-85.0
3882,1509,-104,1,3876.0,3860.0,1510.0,1481.0,-92.0,-78.0
3894,1503,-101,1,3882.0,3876.0,1509.0,1510.0,-104.0,-92.0
3888,1478,-110,1,3894.0,3882.0,1503.0,1509.0,-101.0,-104.0
3845,1432,-116,1,3888.0,3894.0,1478.0,1503.0,-110.0,-101.0
3803,1393,-112,1,3845.0,3888.0,1432.0,1478.0,-116.0,-110.0
3761,1346,-105,1,3803.0,3845.0,1393.0,1432.0,-112.0,-116.0
3732,1307,-101,1,3761.0,3803.0,1346.0,1393.0,-105.0,-112.0
3740,1268,-94,1,3732.0,3761.0,1307.0,1346.0,-101.0,-105.0
3753,1243,-94,1,3740.0,3732.0,1268.0,1307.0,-94.0,-101.0
3757,1242,-105,1,3753.0,3740.0,1243.0,1268.0,-94.0,-94.0
3758,1243,-107,1,3757.0,3753.0,1242.0,1243.0,-105.0,-94.0
3762,1239,-105,1,3758.0,3757.0,1243.0,1242.0,-107.0,-105.0
3775,1237,-99,1,3762.0,3758.0,1239.0,1243.0,-105.0,-107.0
3800,1236,-101,1,3775.0,3762.0,1237.0,1239.0,-99.0,-105.0
3826,1239,-101,1,3800.0,3775.0,1236.0,1237.0,-101.0,-99.0
3851,1250,-101,1,3826.0,3800.0,1239.0,1236.0,-101.0,-101.0
3869,1261,-101,1,3851.0,3826.0,1250.0,1239.0,-101.0,-101.0
3889,1274,-103,1,3869.0,3851.0,1261.0,1250.0,-101.0,-101.0
3892,1286,-96,1,3889.0,3869.0,1274.0,1261.0,-103.0,-101.0
3886,1286,-90,1,3892.0,3889.0,1286.0,1274.0,-96.0,-103.0
3870,1290,-81,1,3886.0,3892.0,1286.0,1286.0,-90.0,-96.0
3870,1285,-67,1,3870.0,3886.0,1290.0,1286.0,-81.0,-90.0
3899,1301,-51,1,3870.0,3870.0,1285.0,1290.0,-67.0,-81.0
3907,1363,-72,1,3899.0,3870.0,1301.0,1285.0,-51.0,-67.0
3835,1915,-566,1,3907.0,3899.0,1363.0,1301.0,-72.0,-51.0
3853,2528,105,1,3835.0,3907.0,1915.0,1363.0,-566.0,-72.0
3991,1631,3,1,3853.0,3835.0,2528.0,1915.0,105.0,-566.0
4270,1835,85,1,3991.0,3853.0,1631.0,2528.0,3.0,105.0
4358,1775,51,1,4270.0,3991.0,1835.0,1631.0,85.0,3.0
3963,1749,-797,1,4358.0,4270.0,1775.0,1835.0,51.0,85.0
4459,1350,-346,1,3963.0,4358.0,1749.0,1775.0,-797.0,51.0
4826,1253,55,1,4459.0,3963.0,1350.0,1749.0,-346.0,-797.0
4603,1615,21,1,4826.0,4459.0,1253.0,1350.0,55.0,-346.0
4522,1136,109,1,4603.0,4826.0,1615.0,1253.0,21.0,55.0
4095,871,244,1,4522.0,4603.0,1136.0,1615.0,109.0,21.0
3831,1043,203,1,4095.0,4522.0,871.0,1136.0,244.0,109.0
3831,1086,-51,1,3831.0,4095.0,1043.0,871.0,203.0,244.0
3947,1081,60,1,3831.0,3831.0,1086.0,1043.0,-51.0,203.0
4063,958,205,1,3947.0,3831.0,1081.0,1086.0,60.0,-51.0
3930,700,198,1,4063.0,3947.0,958.0,1081.0,205.0,60.0
3832,550,192,1,3930.0,4063.0,700.0,958.0,198.0,205.0
3872,605,246,1,3832.0,3930.0,550.0,700.0,192.0,198.0
3930,695,203,1,3872.0,3832.0,605.0,550.0,246.0,192.0
3812,696,101,1,3930.0,3872.0,695.0,605.0,203.0,246.0
3762,668,111,1,3812.0,3930.0,696.0,695.0,101.0,203.0
3698,653,105,1,3762.0,3812.0,668.0,696.0,111.0,101.0
3641,684,54,1,3698.0,3762.0,653.0,668.0,105.0,111.0
3637,816,19,1,3641.0,3698.0,684.0,653.0,54.0,105.0
3646,931,-4,1,3637.0,3641.0,816.0,684.0,19.0,54.0
3668,1022,-14,1,3646.0,3637.0,931.0,816.0,-4.0,19.0
3690,1095,-6,1,3668.0,3646.0,1022.0,931.0,-14.0,-4.0
3666,1111,-22,1,3690.0,3668.0,1095.0,1022.0,-6.0,-14.0
3675,1116,-6,1,3666.0,3690.0,1111.0,1095.0,-22.0,-6.0
3694,1137,-1,1,3675.0,3666.0,1116.0,1111.0,-6.0,-22.0
3635,1176,-38,1,3694.0,3675.0,1137.0,1116.0,-1.0,-6.0
3681,1193,-42,1,3635.0,3694.0,1176.0,1137.0,-38.0,-1.0
3730,1207,-20,1,3681.0,3635.0,1193.0,1176.0,-42.0,-38.0
3824,1210,13,1,3730.0,3681.0,1207.0,1193.0,-20.0,-42.0
3846,1240,25,1,3824.0,3730.0,1210.0,1207.0,13.0,-20.0
3896,1239,35,1,3846.0,3824.0,1240.0,1210.0,25.0,13.0
3958,1264,41,1,3896.0,3846.0,1239.0,1240.0,35.0,25.0
3988,1278,37,1,3958.0,3896.0,1264.0,1239.0,41.0,35.0
4045,1296,51,1,3988.0,3958.0,1278.0,1264.0,37.0,41.0
4137,1315,67,1,4045.0,3988.0,1296.0,1278.0,51.0,37.0
4248,1411,35,1,4137.0,4045.0,1315.0,1296.0,67.0,51.0
4276,1382,-20,1,4248.0,4137.0,1411.0,1315.0,35.0,67.0
4299,1278,-15,1,4276.0,4248.0,1382.0,1411.0,-20.0,35.0
4249,1144,16,1,4299.0,4276.0,1278.0,1382.0,-15.0,-20.0
4154,1092,12,1,4249.0,4299.0,1144.0,1278.0,16.0,-15.0
4140,936,80,1,4154.0,4249.0,1092.0,1144.0,12.0,16.0
4073,863,139,1,4140.0,4154.0,936.0,1092.0,80.0,12.0
3850,958,72,1,4073.0,4140.0,863.0,936.0,139.0,80.0
3786,932,110,1,3850.0,4073.0,958.0,863.0,72.0,139.0
3701,939,146,1,3786.0,3850.0,932.0,958.0,110.0,72.0
3520,1112,65,1,3701.0,3786.0,939.0,932.0,146.0,110.0
3508,1001,106,1,3520.0,3701.0,1112.0,939.0,65.0,146.0
3367,1180,76,1,3508.0,3520.0,1001.0,1112.0,106.0,65.0
3444,1022,126,1,3367.0,3508.0,1180.0,1001.0,76.0,106.0
3354,1238,133,1,3444.0,3367.0,1022.0,1180.0,126.0,76.0
3502,954,186,1,3354.0,3444.0,1238.0,1022.0,133.0,126.0
3369,1255,126,1,3502.0,3354.0,954.0,1238.0,186.0,133.0
3554,1048,206,1,3369.0,3502.0,1255.0,954.0,126.0,186.0
3486,1134,196,1,3554.0,3369.0,1048.0,1255.0,206.0,126.0
3596,1140,233,1,3486.0,3554.0,1134.0,1048.0,196.0,206.0
3532,1256,125,1,3596.0,3486.0,1140.0,1134.0,233.0,196.0
3647,1236,143,1,3532.0,3596.0,1256.0,1140.0,125.0,233.0
3596,1423,136,1,3647.0,3532.0,1236.0,1256.0,143.0,125.0
3982,1100,152,1,3596.0,3647.0,1423.0,1236.0,136.0,143.0
4234,1138,323,1,3982.0,3596.0,1100.0,1423.0,152.0,136.0
4387,837,143,1,4234.0,3982.0,1138.0,1100.0,323.0,152.0
4623,659,235,1,4387.0,4234.0,837.0,1138.0,143.0,323.0
4581,655,245,1,4623.0,4387.0,659.0,837.0,235.0,143.0
4376,691,227,1,4581.0,4623.0,655.0,659.0,245.0,235.0
4156,696,195,1,4376.0,4581.0,691.0,655.0,227.0,245.0
3962,714,141,1,4156.0,4376.0,696.0,691.0,195.0,227.0
3868,740,88,1,3962.0,4156.0,714.0,696.0,141.0,195.0
3812,794,105,1,3868.0,3962.0,740.0,714.0,88.0,141.0
3719,880,133,1,3812.0,3868.0,794.0,740.0,105.0,88.0
3636,921,157,1,3719.0,3812.0,880.0,794.0,133.0,105.0
3656,921,199,1,3636.0,3719.0,921.0,880.0,157.0,133.0
3694,988,205,1,3656.0,3636.0,921.0,921.0,199.0,157.0
3699,1045,177,1,3694.0,3656.0,988.0,921.0,205.0,199.0
3720,1067,151,1,3699.0,3694.0,1045.0,988.0,177.0,205.0
3731,1090,143,1,3720.0,3699.0,1067.0,1045.0,151.0,177.0
3743,1132,112,1,3731.0,3720.0,1090.0,1067.0,143.0,151.0
3464,1169,-145,1,3743.0,3731.0,1132.0,1090.0,112.0,143.0
3513,1184,-42,1,3464.0,3743.0,1169.0,1132.0,-145.0,112.0
3697,1130,146,1,3513.0,3464.0,1184.0,1169.0,-42.0,-145.0
3769,1114,192,1,3697.0,3513.0,1130.0,1184.0,146.0,-42.0
3767,1133,150,1,3769.0,3697.0,1114.0,1130.0,192.0,146.0
3830,1153,160,1,3767.0,3769.0,1133.0,1114.0,150.0,192.0
3947,1166,170,1,3830.0,3767.0,1153.0,1133.0,160.0,150.0
3998,1113,142,1,3947.0,3830.0,1166.0,1153.0,170.0,160.0
4203,1101,307,1,3998.0,3947.0,1113.0,1166.0,142.0,170.0
4266,1109,176,1,4203.0,3998.0,1101.0,1113.0,307.0,142.0
4193,1141,-10,1,4266.0,4203.0,1109.0,1101.0,176.0,307.0
4210,1156,1,1,4193.0,4266.0,1141.0,1109.0,-10.0,176.0
4266,1146,9,1,4210.0,4193.0,1156.0,1141.0,1.0,-10.0
4337,1164,-17,1,4266.0,4210.0,1146.0,1156.0,9.0,1.0
4412,1160,-1,1,4337.0,4266.0,1164.0,1146.0,-17.0,9.0
4448,1149,19,1,4412.0,4337.0,1160.0,1164.0,-1.0,-17.0
4493,1129,39,1,4448.0,4412.0,1149.0,1160.0,19.0,-1.0
4504,1105,34,1,4493.0,4448.0,1129.0,1149.0,39.0,19.0
4501,1096,41,1,4504.0,4493.0,1105.0,1129.0,34.0,39.0
4468,1092,11,1,4501.0,4504.0,1096.0,1105.0,41.0,34.0
4415,1119,6,1,4468.0,4501.0,1092.0,1096.0,11.0,41.0
4409,1088,46,1,4415.0,4468.0,1119.0,1092.0,6.0,11.0
4319,1089,25,1,4409.0,4415.0,1088.0,1119.0,46.0,6.0
4205,1102,-158,1,4319.0,4409.0,1089.0,1088.0,25.0,46.0
4345,1022,233,1,4205.0,4319.0,1102.0,1089.0,-158.0,25.0
4291,1010,176,1,4345.0,4205.0,1022.0,1102.0,233.0,-158.0
4121,1144,32,1,4291.0,4345.0,1010.0,1022.0,176.0,233.0
3803,1119,-308,1,4121.0,4291.0,1144.0,1010.0,32.0,176.0
3991,1106,4,1,3803.0,4121.0,1119.0,1144.0,-308.0,32.0
4008,1022,128,1,3991.0,3803.0,1106.0,1119.0,4.0,-308.0
3969,1152,50,1,4008.0,3991.0,1022.0,1106.0,128.0,4.0
3936,1146,-22,1,3969.0,4008.0,1152.0,1022.0,50.0,128.0
3893,1159,-4,1,3936.0,3969.0,1146.0,1152.0,-22.0,50.0
3865,1160,0,1,3893.0,3936.0,1159.0,1146.0,-4.0,-22.0
3849,1159,4,1,3865.0,3893.0,1160.0,1159.0,0.0,-4.0
3848,1152,11,1,3849.0,3865.0,1159.0,1160.0,4.0,0.0
3850,1153,22,1,3848.0,3849.0,1152.0,1159.0,11.0,4.0
3857,1154,28,1,3850.0,3848.0,1153.0,1152.0,22.0,11.0
3870,1153,37,1,3857.0,3850.0,1154.0,1153.0,28.0,22.0
3889,1146,47,1,3870.0,3857.0,1153.0,1154.0,37.0,28.0
3910,1131,59,1,3889.0,3870.0,1146.0,1153.0,47.0,37.0
3939,1110,70,1,3910.0,3889.0,1131.0,1146.0,59.0,47.0
3959,1094,69,1,3939.0,3910.0,1110.0,1131.0,70.0,59.0
3966,1077,56,1,3959.0,3939.0,1094.0,1110.0,69.0,70.0
3980,1060,62,1,3966.0,3959.0,1077.0,1094.0,56.0,69.0
3976,1046,41,1,3980.0,3966.0,1060.0,1077.0,62.0,56.0
3977,1036,30,1,3976.0,3980.0,1046.0,1060.0,41.0,62.0
3975,1016,22,1,3977.0,3976.0,1036.0,1046.0,30.0,41.0
3978,1013,28,1,3975.0,3977.0,1016.0,1036.0,22.0,30.0
3973,1012,21,1,3978.0,3975.0,1013.0,1016.0,28.0,22.0
3964,1021,9,1,3973.0,3978.0,1012.0,1013.0,21.0,28.0
3988,1064,39,1,3964.0,3973.0,1021.0,1012.0,9.0,21.0
3963,1043,60,1,3988.0,3964.0,1064.0,1021.0,39.0,9.0
3649,1049,-317,1,3963.0,3988.0,1043.0,1064.0,60.0,39.0
3934,1075,179,1,3649.0,3963.0,1049.0,1043.0,-317.0,60.0
3951,1019,172,1,3934.0,3649.0,1075.0,1049.0,179.0,-317.0
4108,1096,124,1,3951.0,3934.0,1019.0,1075.0,172.0,179.0
4016,1161,59,1,4108.0,3951.0,1096.0,1019.0,124.0,172.0
3719,1301,-383,1,4016.0,4108.0,1161.0,1096.0,59.0,124.0
4038,1204,175,1,3719.0,4016.0,1301.0,1161.0,-383.0,59.0
4088,1209,188,1,4038.0,3719.0,1204.0,1301.0,175.0,-383.0
4093,1306,153,1,4088.0,4038.0,1209.0,1204.0,188.0,175.0
4044,1375,55,1,4093.0,4088.0,1306.0,1209.0,153.0,188.0
4120,1356,143,1,4044.0,4093.0,1375.0,1306.0,55.0,153.0
4133,1344,120,1,4120.0,4044.0,1356.0,1375.0,143.0,55.0
4004,1334,-1,1,4133.0,4120.0,1344.0,1356.0,120.0,143.0
3952,1339,-9,1,4004.0,4133.0,1334.0,1344.0,-1.0,120.0
3943,1526,78,1,3952.0,4004.0,1339.0,1334.0,-9.0,-1.0
3880,1400,22,1,3943.0,3952.0,1526.0,1339.0,78.0,-9.0
3860,1382,48,1,3880.0,3943.0,1400.0,1526.0,22.0,78.0
3850,1360,78,1,3860.0,3880.0,1382.0,1400.0,48.0,22.0
3853,1342,87,1,3850.0,3860.0,1360.0,1382.0,78.0,48.0
3839,1333,86,1,3853.0,3850.0,1342.0,1360.0,87.0,78.0
3833,1311,85,1,3839.0,3853.0,1333.0,1342.0,86.0,87.0
3813,1283,69,1,3833.0,3839.0,1311.0,1333.0,85.0,86.0
3787,1247,56,1,3813.0,3833.0,1283.0,1311.0,69.0,85.0
3781,1228,69,1,3787.0,3813.0,1247.0,1283.0,56.0,69.0
3790,1217,82,1,3781.0,3787.0,1228.0,1247.0,69.0,56.0
3801,1235,104,1,3790.0,3781.0,1217.0,1228.0,82.0,69.0
3831,1244,113,1,3801.0,3790.0,1235.0,1217.0,104.0,82.0
3819,1174,57,1,3831.0,3801.0,1244.0,1235.0,113.0,104.0
3826,1202,80,1,3819.0,3831.0,1174.0,1244.0,57.0,113.0
3866,1218,118,1,3826.0,3819.0,1202.0,1174.0,80.0,57.0
3865,1197,105,1,3866.0,3826.0,1218.0,1202.0,118.0,80.0
3892,1191,120,1,3865.0,3866.0,1197.0,1218.0,105.0,118.0
3918,1253,136,1,3892.0,3865.0,1191.0,1197.0,120.0,105.0
3940,1192,106,1,3918.0,3892.0,1253.0,1191.0,136.0,120.0
3868,1160,18,1,3940.0,3918.0,1192.0,1253.0,106.0,136.0
3930,1105,40,1,3868.0,3940.0,1160.0,1192.0,18.0,106.0
4071,1404,214,1,3930.0,3868.0,1105.0,1160.0,40.0,18.0
3960,1200,38,1,4071.0,3930.0,1404.0,1105.0,214.0,40.0
4036,1116,72,1,3960.0,4071.0,1200.0,1404.0,38.0,214.0
4063,1160,62,1,4036.0,3960.0,1116.0,1200.0,72.0,38.0
4060,1175,34,1,4063.0,4036.0,1160.0,1116.0,62.0,72.0
4034,1188,3,1,4060.0,4063.0,1175.0,1160.0,34.0,62.0
4070,1246,-18,1,4034.0,4060.0,1188.0,1175.0,3.0,34.0
4374,2041,-154,1,4070.0,4034.0,1246.0,1188.0,-18.0,3.0
4333,1919,-308,1,4374.0,4070.0,2041.0,1246.0,-154.0,-18.0
4391,1915,-206,1,4333.0,4374.0,1919.0,2041.0,-308.0,-154.0
4412,1795,-103,1,4391.0,4333.0,1915.0,1919.0,-206.0,-308.0
4251,1430,-123,1,4412.0,4391.0,1795.0,1915.0,-103.0,-206.0
4107,1269,-55,1,4251.0,4412.0,1430.0,1795.0,-123.0,-103.0
4034,1262,-29,1,4107.0,4251.0,1269.0,1430.0,-55.0,-123.0
4024,1348,11,1,4034.0,4107.0,1262.0,1269.0,-29.0,-55.0
4024,1451,16,1,4024.0,4034.0,1348.0,1262.0,11.0,-29.0
3881,1471,-19,1,4024.0,4024.0,1451.0,1348.0,16.0,11.0
3752,1468,-31,1,3881.0,4024.0,1471.0,1451.0,-19.0,16.0
3674,1445,-23,1,3752.0,3881.0,1468.0,1471.0,-31.0,-19.0
3523,1238,-157,1,3674.0,3752.0,1445.0,1468.0,-23.0,-31.0
3432,1116,-203,1,3523.0,3674.0,1238.0,1445.0,-157.0,-23.0
3439,1036,-192,1,3432.0,3523.0,1116.0,1238.0,-203.0,-157.0
3495,1020,-143,1,3439.0,3432.0,1036.0,1116.0,-192.0,-203.0
3561,1034,-94,1,3495.0,3439.0,1020.0,1036.0,-143.0,-192.0
3610,1059,-63,1,3561.0,3495.0,1034.0,1020.0,-94.0,-143.0
3652,1082,-49,1,3610.0,3561.0,1059.0,1034.0,-63.0,-94.0
3688,1093,-36,1,3652.0,3610.0,1082.0,1059.0,-49.0,-63.0
3721,1109,-37,1,3688.0,3652.0,1093.0,1082.0,-36.0,-49.0
3748,1120,-40,1,3721.0,3688.0,1109.0,1093.0,-37.0,-36.0
3775,1129,-44,1,3748.0,3721.0,1120.0,1109.0,-40.0,-37.0
3793,1140,-50,1,3775.0,3748.0,1129.0,1120.0,-44.0,-40.0
3811,1151,-49,1,3793.0,3775.0,1140.0,1129.0,-50.0,-44.0
3827,1159,-44,1,3811.0,3793.0,1151.0,1140.0,-49.0,-50.0
3836,1169,-43,1,3827.0,3811.0,1159.0,1151.0,-44.0,-49.0
3850,1175,-45,1,3836.0,3827.0,1169.0,1159.0,-43.0,-44.0
3861,1188,-46,1,3850.0,3836.0,1175.0,1169.0,-45.0,-43.0
3873,1202,-46,1,3861.0,3850.0,1188.0,1175.0,-46.0,-45.0
3890,1215,-45,1,3873.0,3861.0,1202.0,1188.0,-46.0,-46.0
3910,1234,-48,1,3890.0,3873.0,1215.0,1202.0,-45.0,-46.0
3922,1249,-52,1,3910.0,3890.0,1234.0,1215.0,-48.0,-45.0
3932,1252,-56,1,3922.0,3910.0,1249.0,1234.0,-52.0,-48.0
3952,1257,-56,1,3932.0,3922.0,1252.0,1249.0,-56.0,-52.0
3961,1258,-59,1,3952.0,3932.0,1257.0,1252.0,-56.0,-56.0
3967,1260,-52,1,3961.0,3952.0,1258.0,1257.0,-59.0,-56.0
3972,1257,-51,1,3967.0,3961.0,1260.0,1258.0,-52.0,-59.0
3975,1254,-55,1,3972.0,3967.0,1257.0,1260.0,-51.0,-52.0
3971,1251,-57,1,3975.0,3972.0,1254.0,1257.0,-55.0,-51.0
3965,1244,-61,1,3971.0,3975.0,1251.0,1254.0,-57.0,-55.0
3955,1235,-66,1,3965.0,3971.0,1244.0,1251.0,-61.0,-57.0
3946,1223,-66,1,3955.0,3965.0,1235.0,1244.0,-66.0,-61.0
3928,1208,-62,1,3946.0,3955.0,1223.0,1235.0,-66.0,-66.0
3910,1189,-62,1,3928.0,3946.0,1208.0,1223.0,-62.0,-66.0
3888,1179,-60,1,3910.0,3928.0,1189.0,1208.0,-62.0,-62.0
3865,1173,-60,1,3888.0,3910.0,1179.0,1189.0,-60.0,-62.0
3843,1155,-61,1,3865.0,3888.0,1173.0,1179.0,-60.0,-60.0
3830,1143,-61,1,3843.0,3865.0,1155.0,1173.0,-61.0,-60.0
3825,1133,-59,1,3830.0,3843.0,1143.0,1155.0,-61.0,-61.0
3820,1124,-57,1,3825.0,3830.0,1133.0,1143.0,-59.0,-61.0
3823,1116,-60,1,3820.0,3825.0,1124.0,1133.0,-57.0,-59.0
3832,1109,-58,1,3823.0,3820.0,1116.0,1124.0,-60.0,-57.0
3845,1102,-61,1,3832.0,3823.0,1109.0,1116.0,-58.0,-60.0
3861,1104,-58,1,3845.0,3832.0,1102.0,1109.0,-61.0,-58.0
3863,1106,-60,1,3861.0,3845.0,1104.0,1102.0,-58.0,-61.0
3861,1110,-51,1,3863.0,3861.0,1106.0,1104.0,-60.0,-58.0
3865,1119,-47,1,3861.0,3863.0,1110.0,1106.0,-51.0,-60.0
3869,1126,-47,1,3865.0,3861.0,1119.0,1110.0,-47.0,-51.0
3875,1138,-43,1,3869.0,3865.0,1126.0,1119.0,-47.0,-47.0
3880,1143,-37,1,3875.0,3869.0,1138.0,1126.0,-43.0,-47.0
3883,1159,-29,1,3880.0,3875.0,1143.0,1138.0,-37.0,-43.0
3884,1175,-19,1,3883.0,3880.0,1159.0,1143.0,-29.0,-37.0
3887,1183,-14,1,3884.0,3883.0,1175.0,1159.0,-19.0,-29.0
3897,1193,-7,1,3887.0,3884.0,1183.0,1175.0,-14.0,-19.0
3905,1208,-2,1,3897.0,3887.0,1193.0,1183.0,-7.0,-14.0
3910,1229,-1,1,3905.0,3897.0,1208.0,1193.0,-2.0,-7.0
3910,1245,-1,1,3910.0,3905.0,1229.0,1208.0,-1.0,-2.0
3912,1252,-1,1,3910.0,3910.0,1245.0,1229.0,-1.0,-1.0
3916,1250,0,1,3912.0,3910.0,1252.0,1245.0,-1.0,-1.0
3922,1247,0,1,3916.0,3912.0,1250.0,1252.0,0.0,-1.0
3926,1240,1,1,3922.0,3916.0,1247.0,1250.0,0.0,0.0
3927,1232,0,1,3926.0,3922.0,1240.0,1247.0,1.0,0.0
3932,1224,1,1,3927.0,3926.0,1232.0,1240.0,0.0,1.0
3934,1217,0,1,3932.0,3927.0,1224.0,1232.0,1.0,0.0
3934,1215,2,1,3934.0,3932.0,1217.0,1224.0,0.0,1.0
3933,1210,0,1,3934.0,3934.0,1215.0,1217.0,2.0,0.0
3937,1213,-2,1,3933.0,3934.0,1210.0,1215.0,0.0,2.0
3934,1211,-6,1,3937.0,3933.0,1213.0,1210.0,-2.0,0.0
3929,1215,-12,1,3934.0,3937.0,1211.0,1213.0,-6.0,-2.0
3925,1213,-20,1,3929.0,3934.0,1215.0,1211.0,-12.0,-6.0
3921,1212,-22,1,3925.0,3929.0,1213.0,1215.0,-20.0,-12.0
3915,1211,-24,1,3921.0,3925.0,1212.0,1213.0,-22.0,-20.0
3913,1213,-29,1,3915.0,3921.0,1211.0,1212.0,-24.0,-22.0
3908,1213,-32,1,3913.0,3915.0,1213.0,1211.0,-29.0,-24.0
3905,1218,-34,1,3908.0,3913.0,1213.0,1213.0,-32.0,-29.0
3905,1216,-38,1,3905.0,3908.0,1218.0,1213.0,-34.0,-32.0
3902,1215,-40,1,3905.0,3905.0,1216.0,1218.0,-38.0,-34.0
3892,1220,-37,1,3902.0,3905.0,1215.0,1216.0,-40.0,-38.0
3886,1226,-40,1,3892.0,3902.0,1220.0,1215.0,-37.0,-40.0
3886,1232,-46,1,3886.0,3892.0,1226.0,1220.0,-40.0,-37.0
3892,1241,-47,1,3886.0,3886.0,1232.0,1226.0,-46.0,-40.0
3904,1245,-50,1,3892.0,3886.0,1241.0,1232.0,-47.0,-46.0
3913,1255,-44,1,3904.0,3892.0,1245.0,1241.0,-50.0,-47.0
3917,1263,-45,1,3913.0,3904.0,1255.0,1245.0,-44.0,-50.0
3926,1268,-47,1,3917.0,3913.0,1263.0,1255.0,-45.0,-44.0
3925,1268,-47,1,3926.0,3917.0,1268.0,1263.0,-47.0,-45.0
3924,1274,-46,1,3925.0,3926.0,1268.0,1268.0,-47.0,-47.0
3921,1277,-45,1,3924.0,3925.0,1274.0,1268.0,-46.0,-47.0
3926,1276,-47,1,3921.0,3924.0,1277.0,1274.0,-45.0,-46.0
3924,1279,-49,1,3926.0,3921.0,1276.0,1277.0,-47.0,-45.0
3927,1281,-48,1,3924.0,3926.0,1279.0,1276.0,-49.0,-47.0
3923,1285,-52,1,3927.0,3924.0,1281.0,1279.0,-48.0,-49.0
3916,1285,-54,1,3923.0,3927.0,1285.0,1281.0,-52.0,-48.0
3912,1283,-54,1,3916.0,3923.0,1285.0,1285.0,-54.0,-52.0
3901,1277,-56,1,3912.0,3916.0,1283.0,1285.0,-54.0,-54.0
3894,1271,-57,1,3901.0,3912.0,1277.0,1283.0,-56.0,-54.0
3886,1262,-55,1,3894.0,3901.0,1271.0,1277.0,-57.0,-56.0
3882,1255,-56,1,3886.0,3894.0,1262.0,1271.0,-55.0,-57.0
3878,1252,-55,1,3882.0,3886.0,1255.0,1262.0,-56.0,-55.0
3875,1249,-52,1,3878.0,3882.0,1252.0,1255.0,-55.0,-56.0
3876,1244,-52,1,3875.0,3878.0,1249.0,1252.0,-52.0,-55.0
3876,1237,-54,1,3876.0,3875.0,1244.0,1249.0,-52.0,-52.0
3879,1234,-56,1,3876.0,3876.0,1237.0,1244.0,-54.0,-52.0
3877,1234,-56,1,3879.0,3876.0,1234.0,1237.0,-56.0,-54.0
3877,1231,-54,1,3877.0,3879.0,1234.0,1234.0,-56.0,-56.0
3879,1230,-55,1,3877.0,3877.0,1231.0,1234.0,-54.0,-56.0
3882,1228,-55,1,3879.0,3877.0,1230.0,1231.0,-55.0,-54.0
3882,1226,-55,1,3882.0,3879.0,1228.0,1230.0,-55.0,-55.0
3885,1232,-55,1,3882.0,3882.0,1226.0,1228.0,-55.0,-55.0
3890,1239,-54,1,3885.0,3882.0,1232.0,1226.0,-55.0,-55.0
3888,1242,-52,1,3890.0,3885.0,1239.0,1232.0,-54.0,-55.0
3889,1249,-52,1,3888.0,3890.0,1242.0,1239.0,-52.0,-54.0
3887,1258,-54,1,3889.0,3888.0,1249.0,1242.0,-52.0,-52.0
3885,1261,-52,1,3887.0,3889.0,1258.0,1249.0,-54.0,-52.0
3888,1263,-52,1,3885.0,3887.0,1261.0,1258.0,-52.0,-54.0
3887,1264,-49,1,3888.0,3885.0,1263.0,1261.0,-52.0,-52.0
3882,1265,-51,1,3887.0,3888.0,1264.0,1263.0,-49.0,-52.0
3879,1264,-55,1,3882.0,3887.0,1265.0,1264.0,-51.0,-49.0
3880,1261,-51,1,3879.0,3882.0,1264.0,1265.0,-55.0,-51.0
3879,1258,-50,1,3880.0,3879.0,1261.0,1264.0,-51.0,-55.0
3878,1249,-43,1,3879.0,3880.0,1258.0,1261.0,-50.0,-51.0
3880,1249,-43,1,3878.0,3879.0,1249.0,1258.0,-43.0,-50.0
3883,1242,-45,1,3880.0,3878.0,1249.0,1249.0,-43.0,-43.0
3882,1242,-42,1,3883.0,3880.0,1242.0,1249.0,-45.0,-43.0
3888,1240,-44,1,3882.0,3883.0,1242.0,1242.0,-42.0,-45.0
3896,1239,-46,1,3888.0,3882.0,1240.0,1242.0,-44.0,-42.0
3897,1238,-42,1,3896.0,3888.0,1239.0,1240.0,-46.0,-44.0
3896,1238,-39,1,3897.0,3896.0,1238.0,1239.0,-42.0,-46.0
3902,1238,-37,1,3896.0,3897.0,1238.0,1238.0,-39.0,-42.0
3903,1237,-36,1,3902.0,3896.0,1238.0,1238.0,-37.0,-39.0
3906,1242,-36,1,3903.0,3902.0,1237.0,1238.0,-36.0,-37.0
3907,1243,-33,1,3906.0,3903.0,1242.0,1237.0,-36.0,-36.0
3905,1242,-32,1,3907.0,3906.0,1243.0,1242.0,-33.0,-36.0
3903,1244,-34,1,3905.0,3907.0,1242.0,1243.0,-32.0,-33.0
3904,1245,-33,1,3903.0,3905.0,1244.0,1242.0,-34.0,-32.0
3900,1242,-34,1,3904.0,3903.0,1245.0,1244.0,-33.0,-34.0
3903,1246,-37,1,3900.0,3904.0,1242.0,1245.0,-34.0,-33.0
3909,1244,-37,1,3903.0,3900.0,1246.0,1242.0,-37.0,-34.0
3913,1242,-38,1,3909.0,3903.0,1244.0,1246.0,-37.0,-37.0
3925,1239,-38,1,3913.0,3909.0,1242.0,1244.0,-38.0,-37.0
3932,1244,-43,1,3925.0,3913.0,1239.0,1242.0,-38.0,-38.0
3932,1248,-47,1,3932.0,3925.0,1244.0,1239.0,-43.0,-38.0
3923,1248,-47,1,3932.0,3932.0,1248.0,1244.0,-47.0,-43.0
3914,1251,-50,1,3923.0,3932.0,1248.0,1248.0,-47.0,-47.0
3905,1251,-55,1,3914.0,3923.0,1251.0,1248.0,-50.0,-47.0
3894,1247,-56,1,3905.0,3914.0,1251.0,1251.0,-55.0,-50.0
3889,1251,-56,1,3894.0,3905.0,1247.0,1251.0,-56.0,-55.0
3889,1255,-62,1,3889.0,3894.0,1251.0,1247.0,-56.0,-56.0
3890,1255,-66,1,3889.0,3889.0,1255.0,1251.0,-62.0,-56.0
3896,1258,-62,1,3890.0,3889.0,1255.0,1255.0,-66.0,-62.0
3901,1260,-54,1,3896.0,3890.0,1258.0,1255.0,-62.0,-66.0
3914,1264,-54,1,3901.0,3896.0,1260.0,1258.0,-54.0,-62.0
3926,1271,-53,1,3914.0,3901.0,1264.0,1260.0,-54.0,-54.0
3932,1277,-56,1,3926.0,3914.0,1271.0,1264.0,-53.0,-54.0
3927,1279,-59,1,3932.0,3926.0,1277.0,1271.0,-56.0,-53.0
3921,1275,-58,1,3927.0,3932.0,1279.0,1277.0,-59.0,-56.0
3914,1270,-59,1,3921.0,3927.0,1275.0,1279.0,-58.0,-59.0
3907,1269,-64,1,3914.0,3921.0,1270.0,1275.0,-59.0,-58.0
3901,1270,-71,1,3907.0,3914.0,1269.0,1270.0,-64.0,-59.0
3893,1269,-81,1,3901.0,3907.0,1270.0,1269.0,-71.0,-64.0
3891,1267,-81,1,3893.0,3901.0,1269.0,1270.0,-81.0,-71.0
3889,1264,-78,1,3891.0,3893.0,1267.0,1269.0,-81.0,-81.0
3885,1261,-76,1,3889.0,3891.0,1264.0,1267.0,-78.0,-81.0
3881,1261,-67,1,3885.0,3889.0,1261.0,1264.0,-76.0,-78.0
3880,1259,-66,1,3881.0,3885.0,1261.0,1261.0,-67.0,-76.0
3875,1257,-61,1,3880.0,3881.0,1259.0,1261.0,-66.0,-67.0
3872,1258,-62,1,3875.0,3880.0,1257.0,1259.0,-61.0,-66.0
3874,1262,-61,1,3872.0,3875.0,1258.0,1257.0,-62.0,-61.0
3874,1262,-56,1,3874.0,3872.0,1262.0,1258.0,-61.0,-62.0
3875,1262,-54,1,3874.0,3874.0,1262.0,1262.0,-56.0,-61.0
3876,1256,-49,1,3875.0,3874.0,1262.0,1262.0,-54.0,-56.0
3877,1253,-52,1,3876.0,3875.0,1256.0,1262.0,-49.0,-54.0
3883,1250,-54,1,3877.0,3876.0,1253.0,1256.0,-52.0,-49.0
3885,1248,-56,1,3883.0,3877.0,1250.0,1253.0,-54.0,-52.0
3890,1246,-60,1,3885.0,3883.0,1248.0,1250.0,-56.0,-54.0
3891,1245,-59,1,3890.0,3885.0,1246.0,1248.0,-60.0,-56.0
3894,1244,-56,1,3891.0,3890.0,1245.0,1246.0,-59.0,-60.0
3895,1249,-57,1,3894.0,3891.0,1244.0,1245.0,-56.0,-59.0
3902,1249,-60,1,3895.0,3894.0,1249.0,1244.0,-57.0,-56.0
3904,1249,-63,1,3902.0,3895.0,1249.0,1249.0,-60.0,-57.0
3905,1244,-65,1,3904.0,3902.0,1249.0,1249.0,-63.0,-60.0
3908,1246,-67,1,3905.0,3904.0,1244.0,1249.0,-65.0,-63.0
3909,1246,-72,1,3908.0,3905.0,1246.0,1244.0,-67.0,-65.0
3907,1246,-73,1,3909.0,3908.0,1246.0,1246.0,-72.0,-67.0
3907,1248,-74,1,3907.0,3909.0,1246.0,1246.0,-73.0,-72.0
3906,1247,-73,1,3907.0,3907.0,1248.0,1246.0,-74.0,-73.0
3903,1250,-75,1,3906.0,3907.0,1247.0,1248.0,-73.0,-74.0
3901,1251,-75,1,3903.0,3906.0,1250.0,1247.0,-75.0,-73.0
3896,1254,-72,1,3901.0,3903.0,1251.0,1250.0,-75.0,-75.0
3886,1255,-69,1,3896.0,3901.0,1254.0,1251.0,-72.0,-75.0
3887,1253,-68,1,3886.0,3896.0,1255.0,1254.0,-69.0,-72.0
3884,1255,-69,1,3887.0,3886.0,1253.0,1255.0,-68.0,-69.0
3889,1262,-69,1,3884.0,3887.0,1255.0,1253.0,-69.0,-68.0
3897,1263,-70,1,3889.0,3884.0,1262.0,1255.0,-69.0,-69.0
3905,1270,-68,1,3897.0,3889.0,1263.0,1262.0,-70.0,-69.0
3912,1269,-72,1,3905.0,3897.0,1270.0,1263.0,-68.0,-70.0
3916,1271,-76,1,3912.0,3905.0,1269.0,1270.0,-72.0,-68.0
3917,1273,-86,1,3916.0,3912.0,1271.0,1269.0,-76.0,-72.0
3921,1276,-87,1,3917.0,3916.0,1273.0,1271.0,-86.0,-76.0
3923,1281,-93,1,3921.0,3917.0,1276.0,1273.0,-87.0,-86.0
3925,1284,-99,1,3923.0,3921.0,1281.0,1276.0,-93.0,-87.0
3924,1286,-102,1,3925.0,3923.0,1284.0,1281.0,-99.0,-93.0
3924,1288,-107,1,3924.0,3925.0,1286.0,1284.0,-102.0,-99.0
3921,1295,-107,1,3924.0,3924.0,1288.0,1286.0,-107.0,-102.0
3914,1301,-107,1,3921.0,3924.0,1295.0,1288.0,-107.0,-107.0
3912,1303,-105,1,3914.0,3921.0,1301.0,1295.0,-107.0,-107.0
3908,1300,-104,1,3912.0,3914.0,1303.0,1301.0,-105.0,-107.0
3894,1299,-106,1,3908.0,3912.0,1300.0,1303.0,-104.0,-105.0
3885,1297,-108,1,3894.0,3908.0,1299.0,1300.0,-106.0,-104.0
3875,1295,-105,1,3885.0,3894.0,1297.0,1299.0,-108.0,-106.0
3873,1295,-102,1,3875.0,3885.0,1295.0,1297.0,-105.0,-108.0
3873,1297,-96,1,3873.0,3875.0,1295.0,1295.0,-102.0,-105.0
3867,1291,-94,1,3873.0,3873.0,1297.0,1295.0,-96.0,-102.0
3856,1283,-99,1,3867.0,3873.0,1291.0,1297.0,-94.0,-96.0
3850,1284,-106,1,3856.0,3867.0,1283.0,1291.0,-99.0,-94.0
3849,1284,-112,1,3850.0,3856.0,1284.0,1283.0,-106.0,-99.0
3855,1288,-112,1,3849.0,3850.0,1284.0,1284.0,-112.0,-106.0
3860,1289,-116,1,3855.0,3849.0,1288.0,1284.0,-112.0,-112.0
3856,1285,-130,1,3860.0,3855.0,1289.0,1288.0,-116.0,-112.0
3856,1289,-140,1,3856.0,3860.0,1285.0,1289.0,-130.0,-116.0
3856,1297,-150,1,3856.0,3856.0,1289.0,1285.0,-140.0,-130.0
3867,1314,-157,1,3856.0,3856.0,1297.0,1289.0,-150.0,-140.0
3875,1327,-167,1,3867.0,3856.0,1314.0,1297.0,-157.0,-150.0
3881,1338,-176,1,3875.0,3867.0,1327.0,1314.0,-167.0,-157.0
3883,1350,-176,1,3881.0,3875.0,1338.0,1327.0,-176.0,-167.0
3890,1363,-179,1,3883.0,3881.0,1350.0,1338.0,-176.0,-176.0
3888,1370,-186,1,3890.0,3883.0,1363.0,1350.0,-179.0,-176.0
3886,1382,-193,1,3888.0,3890.0,1370.0,1363.0,-186.0,-179.0
3883,1391,-196,1,3886.0,3888.0,1382.0,1370.0,-193.0,-186.0
3878,1400,-203,1,3883.0,3886.0,1391.0,1382.0,-196.0,-193.0
3868,1399,-209,1,3878.0,3883.0,1400.0,1391.0,-203.0,-196.0
3857,1399,-220,1,3868.0,3878.0,1399.0,1400.0,-209.0,-203.0
3846,1401,-225,1,3857.0,3868.0,1399.0,1399.0,-220.0,-209.0
3834,1405,-228,1,3846.0,3857.0,1401.0,1399.0,-225.0,-220.0
3830,1404,-234,1,3834.0,3846.0,1405.0,1401.0,-228.0,-225.0
3824,1406,-236,1,3830.0,3834.0,1404.0,1405.0,-234.0,-228.0
3823,1402,-255,1,3824.0,3830.0,1406.0,1404.0,-236.0,-234.0
3814,1406,-272,1,3823.0,3824.0,1402.0,1406.0,-255.0,-236.0
3813,1413,-294,1,3814.0,3823.0,1406.0,1402.0,-272.0,-255.0
3821,1420,-307,1,3813.0,3814.0,1413.0,1406.0,-294.0,-272.0
3829,1440,-324,1,3821.0,3813.0,1420.0,1413.0,-307.0,-294.0
3839,1460,-342,1,3829.0,3821.0,1440.0,1420.0,-324.0,-307.0
3831,1478,-353,1,3839.0,3829.0,1460.0,1440.0,-342.0,-324.0
3838,1500,-360,1,3831.0,3839.0,1478.0,1460.0,-353.0,-342.0
3844,1530,-370,1,3838.0,3831.0,1500.0,1478.0,-360.0,-353.0
3851,1562,-377,1,3844.0,3838.0,1530.0,1500.0,-370.0,-360.0
3854,1589,-386,1,3851.0,3844.0,1562.0,1530.0,-377.0,-370.0
3858,1616,-394,1,3854.0,3851.0,1589.0,1562.0,-386.0,-377.0
3853,1639,-404,1,3858.0,3854.0,1616.0,1589.0,-394.0,-386.0
3847,1653,-416,1,3853.0,3858.0,1639.0,1616.0,-404.0,-394.0
3847,1664,-427,1,3847.0,3853.0,1653.0,1639.0,-416.0,-404.0
3853,1683,-437,1,3847.0,3847.0,1664.0,1653.0,-427.0,-416.0
3834,1688,-448,1,3853.0,3847.0,1683.0,1664.0,-437.0,-427.0
3821,1689,-446,1,3834.0,3853.0,1688.0,1683.0,-448.0,-437.0
3790,1697,-445,1,3821.0,3834.0,1689.0,1688.0,-446.0,-448.0
3761,1695,-448,1,3790.0,3821.0,1697.0,1689.0,-445.0,-446.0
3731,1695,-454,1,3761.0,3790.0,1695.0,1697.0,-448.0,-445.0
3710,1687,-458,1,3731.0,3761.0,1695.0,1695.0,-454.0,-448.0
3686,1686,-449,1,3710.0,3731.0,1687.0,1695.0,-458.0,-454.0
3688,1677,-435,1,3686.0,3710.0,1686.0,1687.0,-449.0,-458.0
3694,1672,-430,1,3688.0,3686.0,1677.0,1686.0,-435.0,-449.0
3703,1655,-435,1,3694.0,3688.0,1672.0,1677.0,-430.0,-435.0
3695,1632,-426,1,3703.0,3694.0,1655.0,1672.0,-435.0,-430.0
3695,1638,-412,1,3695.0,3703.0,1632.0,1655.0,-426.0,-435.0
3696,1634,-408,1,3695.0,3695.0,1638.0,1632.0,-412.0,-426.0
3709,1631,-411,1,3696.0,3695.0,1634.0,1638.0,-408.0,-412.0
3733,1636,-412,1,3709.0,3696.0,1631.0,1634.0,-411.0,-408.0
3748,1627,-425,1,3733.0,3709.0,1636.0,1631.0,-412.0,-411.0
3751,1614,-442,1,3748.0,3733.0,1627.0,1636.0,-425.0,-412.0
3730,1597,-454,1,3751.0,3748.0,1614.0,1627.0,-442.0,-425.0
3732,1576,-466,1,3730.0,3751.0,1597.0,1614.0,-454.0,-442.0
3730,1574,-478,1,3732.0,3730.0,1576.0,1597.0,-466.0,-454.0
3724,1560,-488,1,3730.0,3732.0,1574.0,1576.0,-478.0,-466.0
3713,1562,-495,1,3724.0,3730.0,1560.0,1574.0,-488.0,-478.0
3733,1567,-498,1,3713.0,3724.0,1562.0,1560.0,-495.0,-488.0
3722,1583,-508,1,3733.0,3713.0,1567.0,1562.0,-498.0,-495.0
3716,1601,-514,1,3722.0,3733.0,1583.0,1567.0,-508.0,-498.0
3688,1620,-518,1,3716.0,3722.0,1601.0,1583.0,-514.0,-508.0
3678,1641,-522,1,3688.0,3716.0,1620.0,1601.0,-518.0,-514.0
3658,1668,-532,1,3678.0,3688.0,1641.0,1620.0,-522.0,-518.0
3644,1706,-526,1,3658.0,3678.0,1668.0,1641.0,-532.0,-522.0
3648,1726,-531,1,3644.0,3658.0,1706.0,1668.0,-526.0,-532.0
3671,1750,-535,1,3648.0,3644.0,1726.0,1706.0,-531.0,-526.0
3682,1764,-551,1,3671.0,3648.0,1750.0,1726.0,-535.0,-531.0
3659,1758,-566,1,3682.0,3671.0,1764.0,1750.0,-551.0,-535.0
3625,1753,-566,1,3659.0,3682.0,1758.0,1764.0,-566.0,-551.0
3611,1742,-553,1,3625.0,3659.0,1753.0,1758.0,-566.0,-566.0
3612,1725,-551,1,3611.0,3625.0,1742.0,1753.0,-553.0,-566.0
3591,1726,-555,1,3612.0,3611.0,1725.0,1742.0,-551.0,-553.0
3564,1697,-570,1,3591.0,3612.0,1726.0,1725.0,-555.0,-551.0
3557,1690,-569,1,3564.0,3591.0,1697.0,1726.0,-570.0,-555.0
3536,1682,-578,1,3557.0,3564.0,1690.0,1697.0,-569.0,-570.0
3492,1690,-581,1,3536.0,3557.0,1682.0,1690.0,-578.0,-569.0
3475,1699,-570,1,3492.0,3536.0,1690.0,1682.0,-581.0,-578.0
3466,1692,-573,1,3475.0,3492.0,1699.0,1690.0,-570.0,-581.0
3468,1683,-592,1,3466.0,3475.0,1692.0,1699.0,-573.0,-570.0
3472,1690,-608,1,3468.0,3466.0,1683.0,1692.0,-592.0,-573.0
3493,1694,-615,1,3472.0,3468.0,1690.0,1683.0,-608.0,-592.0
3492,1707,-631,1,3493.0,3472.0,1694.0,1690.0,-615.0,-608.0
3503,1727,-618,1,3492.0,3493.0,1707.0,1694.0,-631.0,-615.0
3526,1732,-624,1,3503.0,3492.0,1727.0,1707.0,-618.0,-631.0
3524,1723,-639,1,3526.0,3503.0,1732.0,1727.0,-624.0,-618.0
3504,1728,-645,1,3524.0,3526.0,1723.0,1732.0,-639.0,-624.0
3456,1716,-643,1,3504.0,3524.0,1728.0,1723.0,-645.0,-639.0
3430,1708,-638,1,3456.0,3504.0,1716.0,1728.0,-643.0,-645.0
3429,1726,-608,1,3430.0,3456.0,1708.0,1716.0,-638.0,-643.0
3415,1731,-606,1,3429.0,3430.0,1726.0,1708.0,-608.0,-638.0
3410,1740,-610,1,3415.0,3429.0,1731.0,1726.0,-606.0,-608.0
3420,1743,-627,1,3410.0,3415.0,1740.0,1731.0,-610.0,-606.0
3411,1713,-679,1,3420.0,3410.0,1743.0,1740.0,-627.0,-610.0
3397,1708,-692,1,3411.0,3420.0,1713.0,1743.0,-679.0,-627.0
3400,1694,-695,1,3397.0,3411.0,1708.0,1713.0,-692.0,-679.0
3425,1694,-649,1,3400.0,3397.0,1694.0,1708.0,-695.0,-692.0
3438,1692,-601,1,3425.0,3400.0,1694.0,1694.0,-649.0,-695.0
3451,1695,-564,1,3438.0,3425.0,1692.0,1694.0,-601.0,-649.0
3458,1702,-544,1,3451.0,3438.0,1695.0,1692.0,-564.0,-601.0
3478,1713,-525,1,3458.0,3451.0,1702.0,1695.0,-544.0,-564.0
3480,1725,-522,1,3478.0,3458.0,1713.0,1702.0,-525.0,-544.0
3501,1737,-516,1,3480.0,3478.0,1725.0,1713.0,-522.0,-525.0
3523,1743,-510,1,3501.0,3480.0,1737.0,1725.0,-516.0,-522.0
3537,1743,-518,1,3523.0,3501.0,1743.0,1737.0,-510.0,-516.0
3544,1762,-509,1,3537.0,3523.0,1743.0,1743.0,-518.0,-510.0
3505,1760,-510,1,3544.0,3537.0,1762.0,1743.0,-509.0,-518.0
3475,1763,-501,1,3505.0,3544.0,1760.0,1762.0,-510.0,-509.0
3439,1767,-494,1,3475.0,3505.0,1763.0,1760.0,-501.0,-510.0
3419,1777,-488,1,3439.0,3475.0,1767.0,1763.0,-494.0,-501.0
3402,1785,-482,1,3419.0,3439.0,1777.0,1767.0,-488.0,-494.0
3401,1791,-477,1,3402.0,3419.0,1785.0,1777.0,-482.0,-488.0
3387,1782,-492,1,3401.0,3402.0,1791.0,1785.0,-477.0,-482.0
3381,1772,-484,1,3387.0,3401.0,1782.0,1791.0,-492.0,-477.0
3383,1771,-464,1,3381.0,3387.0,1772.0,1782.0,-484.0,-492.0
3398,1766,-439,1,3383.0,3381.0,1771.0,1772.0,-464.0,-484.0
3409,1758,-425,1,3398.0,3383.0,1766.0,1771.0,-439.0,-464.0
3413,1730,-422,1,3409.0,3398.0,1758.0,1766.0,-425.0,-439.0
3425,1711,-437,1,3413.0,3409.0,1730.0,1758.0,-422.0,-425.0
3443,1689,-457,1,3425.0,3413.0,1711.0,1730.0,-437.0,-422.0
3449,1672,-483,1,3443.0,3425.0,1689.0,1711.0,-457.0,-437.0
3451,1654,-516,1,3449.0,3443.0,1672.0,1689.0,-483.0,-457.0
3445,1646,-555,1,3451.0,3449.0,1654.0,1672.0,-516.0,-483.0
3434,1650,-592,1,3445.0,3451.0,1646.0,1654.0,-555.0,-516.0
3433,1644,-610,1,3434.0,3445.0,1650.0,1646.0,-592.0,-555.0
3433,1655,-608,1,3433.0,3434.0,1644.0,1650.0,-610.0,-592.0
3433,1661,-593,1,3433.0,3433.0,1655.0,1644.0,-608.0,-610.0
3434,1666,-572,1,3433.0,3433.0,1661.0,1655.0,-593.0,-608.0
3431,1667,-566,1,3434.0,3433.0,1666.0,1661.0,-572.0,-593.0
3415,1672,-567,1,3431.0,3434.0,1667.0,1666.0,-566.0,-572.0
3401,1693,-572,1,3415.0,3431.0,1672.0,1667.0,-567.0,-566.0
3388,1711,-585,1,3401.0,3415.0,1693.0,1672.0,-572.0,-567.0
3376,1733,-607,1,3388.0,3401.0,1711.0,1693.0,-585.0,-572.0
3375,1762,-615,1,3376.0,3388.0,1733.0,1711.0,-607.0,-585.0
3382,1790,-597,1,3375.0,3376.0,1762.0,1733.0,-615.0,-607.0
3393,1806,-565,1,3382.0,3375.0,1790.0,1762.0,-597.0,-615.0
3405,1828,-531,1,3393.0,3382.0,1806.0,1790.0,-565.0,-597.0
3433,1861,-511,1,3405.0,3393.0,1828.0,1806.0,-531.0,-565.0
3447,1822,-512,1,3433.0,3405.0,1861.0,1828.0,-511.0,-531.0
3440,1761,-512,1,3447.0,3433.0,1822.0,1861.0,-512.0,-511.0
3438,1696,-538,1,3440.0,3447.0,1761.0,1822.0,-512.0,-512.0
3458,1627,-600,1,3438.0,3440.0,1696.0,1761.0,-538.0,-512.0
3455,1611,-622,1,3458.0,3438.0,1627.0,1696.0,-600.0,-538.0
3457,1638,-630,1,3455.0,3458.0,1611.0,1627.0,-622.0,-600.0
3455,1675,-661,1,3457.0,3455.0,1638.0,1611.0,-630.0,-622.0
3458,1713,-677,1,3455.0,3457.0,1675.0,1638.0,-661.0,-630.0
3466,1735,-683,1,3458.0,3455.0,1713.0,1675.0,-677.0,-661.0
3499,1744,-687,1,3466.0,3458.0,1735.0,1713.0,-683.0,-677.0
3528,1753,-685,1,3499.0,3466.0,1744.0,1735.0,-687.0,-683.0
3537,1767,-685,1,3528.0,3499.0,1753.0,1744.0,-685.0,-687.0
3531,1770,-692,1,3537.0,3528.0,1767.0,1753.0,-685.0,-685.0
3511,1767,-694,1,3531.0,3537.0,1770.0,1767.0,-692.0,-685.0
3484,1755,-678,1,3511.0,3531.0,1767.0,1770.0,-694.0,-692.0
3452,1760,-642,1,3484.0,3511.0,1755.0,1767.0,-678.0,-694.0
3399,1748,-627,1,3452.0,3484.0,1760.0,1755.0,-642.0,-678.0
3339,1753,-617,1,3399.0,3452.0,1748.0,1760.0,-627.0,-642.0
3295,1770,-601,1,3339.0,3399.0,1753.0,1748.0,-617.0,-627.0
3263,1786,-580,1,3295.0,3339.0,1770.0,1753.0,-601.0,-617.0
3253,1828,-552,1,3263.0,3295.0,1786.0,1770.0,-580.0,-601.0
3255,1903,-507,1,3253.0,3263.0,1828.0,1786.0,-552.0,-580.0
3272,1945,-477,1,3255.0,3253.0,1903.0,1828.0,-507.0,-552.0
3309,1981,-456,1,3272.0,3255.0,1945.0,1903.0,-477.0,-507.0
3347,1998,-452,1,3309.0,3272.0,1981.0,1945.0,-456.0,-477.0
3366,2016,-443,1,3347.0,3309.0,1998.0,1981.0,-452.0,-456.0
3390,2023,-447,1,3366.0,3347.0,2016.0,1998.0,-443.0,-452.0
3413,2021,-454,1,3390.0,3366.0,2023.0,2016.0,-447.0,-443.0
3438,2000,-488,1,3413.0,3390.0,2021.0,2023.0,-454.0,-447.0
3451,1961,-531,1,3438.0,3413.0,2000.0,2021.0,-488.0,-454.0
3460,1924,-570,1,3451.0,3438.0,1961.0,2000.0,-531.0,-488.0
3471,1889,-599,1,3460.0,3451.0,1924.0,1961.0,-570.0,-531.0
3493,1864,-603,1,3471.0,3460.0,1889.0,1924.0,-599.0,-570.0
3520,1860,-598,1,3493.0,3471.0,1864.0,1889.0,-603.0,-599.0
3544,1869,-598,1,3520.0,3493.0,1860.0,1864.0,-598.0,-603.0
3563,1897,-598,1,3544.0,3520.0,1869.0,1860.0,-598.0,-598.0
3578,1921,-585,1,3563.0,3544.0,1897.0,1869.0,-598.0,-598.0
3583,1982,-573,1,3578.0,3563.0,1921.0,1897.0,-585.0,-598.0
3586,2036,-584,1,3583.0,3578.0,1982.0,1921.0,-573.0,-585.0
3596,2080,-592,1,3586.0,3583.0,2036.0,1982.0,-584.0,-573.0
3605,2090,-607,1,3596.0,3586.0,2080.0,2036.0,-592.0,-584.0
3622,2100,-602,1,3605.0,3596.0,2090.0,2080.0,-607.0,-592.0
3632,2111,-596,1,3622.0,3605.0,2100.0,2090.0,-602.0,-607.0
3652,2112,-598,1,3632.0,3622.0,2111.0,2100.0,-596.0,-602.0
3655,2139,-598,1,3652.0,3632.0,2112.0,2111.0,-598.0,-596.0
3616,2168,-604,1,3655.0,3652.0,2139.0,2112.0,-598.0,-598.0
3570,2199,-599,1,3616.0,3655.0,2168.0,2139.0,-604.0,-598.0
3528,2204,-585,1,3570.0,3616.0,2199.0,2168.0,-599.0,-604.0
3496,2223,-561,1,3528.0,3570.0,2204.0,2199.0,-585.0,-599.0
3460,2234,-539,1,3496.0,3528.0,2223.0,2204.0,-561.0,-585.0
3435,2246,-526,1,3460.0,3496.0,2234.0,2223.0,-539.0,-561.0
3437,2228,-533,1,3435.0,3460.0,2246.0,2234.0,-526.0,-539.0
3455,2216,-540,1,3437.0,3435.0,2228.0,2246.0,-533.0,-526.0
3486,2222,-524,1,3455.0,3437.0,2216.0,2228.0,-540.0,-533.0
3501,2226,-500,1,3486.0,3455.0,2222.0,2216.0,-524.0,-540.0
3503,2224,-496,1,3501.0,3486.0,2226.0,2222.0,-500.0,-524.0
3513,2203,-493,1,3503.0,3501.0,2224.0,2226.0,-496.0,-500.0
3502,2192,-511,1,3513.0,3503.0,2203.0,2224.0,-493.0,-496.0
3488,2177,-524,1,3502.0,3513.0,2192.0,2203.0,-511.0,-493.0
3457,2193,-530,1,3488.0,3502.0,2177.0,2192.0,-524.0,-511.0
3396,2249,-545,1,3457.0,3488.0,2193.0,2177.0,-530.0,-524.0
3370,2219,-562,1,3396.0,3457.0,2249.0,2193.0,-545.0,-530.0
3344,2213,-595,1,3370.0,3396.0,2219.0,2249.0,-562.0,-545.0
3319,2194,-625,1,3344.0,3370.0,2213.0,2219.0,-595.0,-562.0
3288,2197,-631,1,3319.0,3344.0,2194.0,2213.0,-625.0,-595.0
3264,2218,-627,1,3288.0,3319.0,2197.0,2194.0,-631.0,-625.0
3242,2221,-630,1,3264.0,3288.0,2218.0,2197.0,-627.0,-631.0
3239,2223,-633,1,3242.0,3264.0,2221.0,2218.0,-630.0,-627.0
3227,2221,-664,1,3239.0,3242.0,2223.0,2221.0,-633.0,-630.0
3220,2243,-684,1,3227.0,3239.0,2221.0,2223.0,-664.0,-633.0
3245,2231,-683,1,3220.0,3227.0,2243.0,2221.0,-684.0,-664.0
3271,2251,-671,1,3245.0,3220.0,2231.0,2243.0,-683.0,-684.0
3278,2304,-663,1,3271.0,3245.0,2251.0,2231.0,-671.0,-683.0
3282,2329,-665,1,3278.0,3271.0,2304.0,2251.0,-663.0,-671.0
3275,2346,-673,1,3282.0,3278.0,2329.0,2304.0,-665.0,-663.0
3277,2372,-679,1,3275.0,3282.0,2346.0,2329.0,-673.0,-665.0
3304,2377,-687,1,3277.0,3275.0,2372.0,2346.0,-679.0,-673.0
3338,2366,-694,1,3304.0,3277.0,2377.0,2372.0,-687.0,-679.0
3355,2369,-712,1,3338.0,3304.0,2366.0,2377.0,-694.0,-687.0
3349,2390,-756,1,3355.0,3338.0,2369.0,2366.0,-712.0,-694.0
3325,2407,-800,1,3349.0,3355.0,2390.0,2369.0,-756.0,-712.0
3304,2422,-841,1,3325.0,3349.0,2407.0,2390.0,-800.0,-756.0
3305,2422,-864,1,3304.0,3325.0,2422.0,2407.0,-841.0,-800.0
3283,2466,-867,1,3305.0,3304.0,2422.0,2422.0,-864.0,-841.0
3261,2512,-876,1,3283.0,3305.0,2466.0,2422.0,-867.0,-864.0
3248,2546,-882,1,3261.0,3283.0,2512.0,2466.0,-876.0,-867.0
3232,2580,-892,1,3248.0,3261.0,2546.0,2512.0,-882.0,-876.0
3222,2608,-895,1,3232.0,3248.0,2580.0,2546.0,-892.0,-882.0
3221,2630,-899,1,3222.0,3232.0,2608.0,2580.0,-895.0,-892.0
3223,2672,-906,1,3221.0,3222.0,2630.0,2608.0,-899.0,-895.0
3233,2702,-924,1,3223.0,3221.0,2672.0,2630.0,-906.0,-899.0
3248,2738,-925,1,3233.0,3223.0,2702.0,2672.0,-924.0,-906.0
3270,2768,-921,1,3248.0,3233.0,2738.0,2702.0,-925.0,-924.0
3322,2787,-900,1,3270.0,3248.0,2768.0,2738.0,-921.0,-925.0
3351,2779,-900,1,3322.0,3270.0,2787.0,2768.0,-900.0,-921.0
3338,2773,-921,1,3351.0,3322.0,2779.0,2787.0,-900.0,-900.0
3330,2777,-944,1,3338.0,3351.0,2773.0,2779.0,-921.0,-900.0
3333,2751,-973,1,3330.0,3338.0,2777.0,2773.0,-944.0,-921.0
3307,2754,-1004,1,3333.0,3330.0,2751.0,2777.0,-973.0,-944.0
3287,2769,-1022,1,3307.0,3333.0,2754.0,2751.0,-1004.0,-973.0
3234,2772,-1054,1,3287.0,3307.0,2769.0,2754.0,-1022.0,-1004.0
3186,2770,-1058,1,3234.0,3287.0,2772.0,2769.0,-1054.0,-1022.0
3138,2762,-1082,1,3186.0,3234.0,2770.0,2772.0,-1058.0,-1054.0
3127,2761,-1093,1,3138.0,3186.0,2762.0,2770.0,-1082.0,-1058.0
3110,2787,-1096,1,3127.0,3138.0,2761.0,2762.0,-1093.0,-1082.0
3066,2790,-1127,1,3110.0,3127.0,2787.0,2761.0,-1096.0,-1093.0
3030,2805,-1158,1,3066.0,3110.0,2790.0,2787.0,-1127.0,-1096.0
2974,2832,-1198,1,3030.0,3066.0,2805.0,2790.0,-1158.0,-1127.0
2933,2891,-1235,1,2974.0,3030.0,2832.0,2805.0,-1198.0,-1158.0
2899,2929,-1254,1,2933.0,2974.0,2891.0,2832.0,-1235.0,-1198.0
2865,2961,-1243,1,2899.0,2933.0,2929.0,2891.0,-1254.0,-1235.0
2841,2975,-1235,1,2865.0,2899.0,2961.0,2929.0,-1243.0,-1254.0
2825,3014,-1155,1,2841.0,2865.0,2975.0,2961.0,-1235.0,-1243.0
2788,3029,-1233,1,2825.0,2841.0,3014.0,2975.0,-1155.0,-1235.0
2795,2995,-1244,1,2788.0,2825.0,3029.0,3014.0,-1233.0,-1155.0
2807,3009,-1210,1,2795.0,2788.0,2995.0,3029.0,-1244.0,-1233.0
2819,3005,-1185,1,2807.0,2795.0,3009.0,2995.0,-1210.0,-1244.0
2820,2970,-1141,1,2819.0,2807.0,3005.0,3009.0,-1185.0,-1210.0
2791,2906,-1117,1,2820.0,2819.0,2970.0,3005.0,-1141.0,-1185.0
2738,2881,-1097,1,2791.0,2820.0,2906.0,2970.0,-1117.0,-1141.0
2778,2811,-1102,1,2738.0,2791.0,2881.0,2906.0,-1097.0,-1117.0
2799,2781,-1094,1,2778.0,2738.0,2811.0,2881.0,-1102.0,-1097.0
2788,2746,-1085,1,2799.0,2778.0,2781.0,2811.0,-1094.0,-1102.0
2786,2719,-1112,1,2788.0,2799.0,2746.0,2781.0,-1085.0,-1094.0
2788,2714,-1106,1,2786.0,2788.0,2719.0,2746.0,-1112.0,-1085.0
2763,2722,-1161,1,2788.0,2786.0,2714.0,2719.0,-1106.0,-1112.0
2749,2737,-1198,1,2763.0,2788.0,2722.0,2714.0,-1161.0,-1106.0
2724,2763,-1213,1,2749.0,2763.0,2737.0,2722.0,-1198.0,-1161.0
2700,2802,-1244,1,2724.0,2749.0,2763.0,2737.0,-1213.0,-1198.0
2666,2800,-1303,1,2700.0,2724.0,2802.0,2763.0,-1244.0,-1213.0
2633,2839,-1365,1,2666.0,2700.0,2800.0,2802.0,-1303.0,-1244.0
2572,2909,-1395,1,2633.0,2666.0,2839.0,2800.0,-1365.0,-1303.0
2554,2904,-1458,1,2572.0,2633.0,2909.0,2839.0,-1395.0,-1365.0
2552,2909,-1481,1,2554.0,2572.0,2904.0,2909.0,-1458.0,-1395.0
2517,2956,-1472,1,2552.0,2554.0,2909.0,2904.0,-1481.0,-1458.0
2485,2983,-1477,1,2517.0,2552.0,2956.0,2909.0,-1472.0,-1481.0
2461,3010,-1451,1,2485.0,2517.0,2983.0,2956.0,-1477.0,-1472.0
2456,3022,-1438,1,2461.0,2485.0,3010.0,2983.0,-1451.0,-1477.0
2447,3035,-1395,1,2456.0,2461.0,3022.0,3010.0,-1438.0,-1451.0
2429,3064,-1371,1,2447.0,2456.0,3035.0,3022.0,-1395.0,-1438.0
2417,3090,-1346,1,2429.0,2447.0,3064.0,3035.0,-1371.0,-1395.0
2409,3106,-1319,1,2417.0,2429.0,3090.0,3064.0,-1346.0,-1371.0
2397,3106,-1315,1,2409.0,2417.0,3106.0,3090.0,-1319.0,-1346.0
2380,3108,-1295,1,2397.0,2409.0,3106.0,3106.0,-1315.0,-1319.0
2374,3113,-1290,1,2380.0,2397.0,3108.0,3106.0,-1295.0,-1315.0
2385,3117,-1306,1,2374.0,2380.0,3113.0,3108.0,-1290.0,-1295.0
2387,3122,-1329,1,2385.0,2374.0,3117.0,3113.0,-1306.0,-1290.0
2374,3129,-1363,1,2387.0,2385.0,3122.0,3117.0,-1329.0,-1306.0
2369,3125,-1423,1,2374.0,2387.0,3129.0,3122.0,-1363.0,-1329.0
2337,3150,-1467,1,2369.0,2374.0,3125.0,3129.0,-1423.0,-1363.0
2285,3142,-1507,1,2337.0,2369.0,3150.0,3125.0,-1467.0,-1423.0
2230,3150,-1510,1,2285.0,2337.0,3142.0,3150.0,-1507.0,-1467.0
2209,3146,-1542,1,2230.0,2285.0,3150.0,3142.0,-1510.0,-1507.0
2190,3166,-1546,1,2209.0,2230.0,3146.0,3150.0,-1542.0,-1510.0
2172,3191,-1544,1,2190.0,2209.0,3166.0,3146.0,-1546.0,-1542.0
2165,3205,-1552,1,2172.0,2190.0,3191.0,3166.0,-1544.0,-1546.0
2159,3252,-1540,1,2165.0,2172.0,3205.0,3191.0,-1552.0,-1544.0
2129,3308,-1537,1,2159.0,2165.0,3252.0,3205.0,-1540.0,-1552.0
2104,3334,-1534,1,2129.0,2159.0,3308.0,3252.0,-1537.0,-1540.0
2083,3343,-1516,1,2104.0,2129.0,3334.0,3308.0,-1534.0,-1537.0
2065,3354,-1513,1,2083.0,2104.0,3343.0,3334.0,-1516.0,-1534.0
2036,3393,-1530,1,2065.0,2083.0,3354.0,3343.0,-1513.0,-1516.0
2021,3370,-1509,1,2036.0,2065.0,3393.0,3354.0,-1530.0,-1513.0
2001,3396,-1541,1,2021.0,2036.0,3370.0,3393.0,-1509.0,-1530.0
1964,3354,-1589,1,2001.0,2021.0,3396.0,3370.0,-1541.0,-1509.0
1952,3320,-1594,1,1964.0,2001.0,3354.0,3396.0,-1589.0,-1541.0
1910,3306,-1617,1,1952.0,1964.0,3320.0,3354.0,-1594.0,-1589.0
1904,3322,-1631,1,1910.0,1952.0,3306.0,3320.0,-1617.0,-1594.0
1869,3311,-1657,1,1904.0,1910.0,3322.0,3306.0,-1631.0,-1617.0
1874,3325,-1695,1,1869.0,1904.0,3311.0,3322.0,-1657.0,-1631.0
1847,3331,-1706,1,1874.0,1869.0,3325.0,3311.0,-1695.0,-1657.0
1819,3352,-1706,1,1847.0,1874.0,3331.0,3325.0,-1706.0,-1695.0
1789,3356,-1769,1,1819.0,1847.0,3352.0,3331.0,-1706.0,-1706.0
1828,3346,-1788,1,1789.0,1819.0,3356.0,3352.0,-1769.0,-1706.0
1867,3356,-1758,1,1828.0,1789.0,3346.0,3356.0,-1788.0,-1769.0
1929,3412,-1744,1,1867.0,1828.0,3356.0,3346.0,-1758.0,-1788.0
1987,3350,-1672,1,1929.0,1867.0,3412.0,3356.0,-1744.0,-1758.0
1939,3373,-1699,1,1987.0,1929.0,3350.0,3412.0,-1672.0,-1744.0
1893,3394,-1702,1,1939.0,1987.0,3373.0,3350.0,-1699.0,-1672.0
1907,3415,-1614,1,1893.0,1939.0,3394.0,3373.0,-1702.0,-1699.0
1837,3442,-1624,1,1907.0,1893.0,3415.0,3394.0,-1614.0,-1702.0
1777,3435,-1637,1,1837.0,1907.0,3442.0,3415.0,-1624.0,-1614.0
