accelerometer_x,accelerometer_y,accelerometer_z,fall,x_lag_1,x_lag_2,y_lag_1,y_lag_2,z_lag_1,z_lag_2
3788,1738,558,0,,,,,,
3797,1828,467,0,3788.0,,1738.0,,558.0,
3844,1817,356,0,3797.0,3788.0,1828.0,1738.0,467.0,558.0
3971,1721,276,0,3844.0,3797.0,1817.0,1828.0,356.0,467.0
4227,1610,334,0,3971.0,3844.0,1721.0,1817.0,276.0,356.0
4641,1519,530,0,4227.0,3971.0,1610.0,1721.0,334.0,276.0
5143,1434,801,0,4641.0,4227.0,1519.0,1610.0,530.0,334.0
5617,1345,969,0,5143.0,4641.0,1434.0,1519.0,801.0,530.0
5974,1257,932,0,5617.0,5143.0,1345.0,1434.0,969.0,801.0
6178,1198,739,0,5974.0,5617.0,1257.0,1345.0,932.0,969.0
6245,1158,489,0,6178.0,5974.0,1198.0,1257.0,739.0,932.0
6197,1164,319,0,6245.0,6178.0,1158.0,1198.0,489.0,739.0
6075,1143,246,0,6197.0,6245.0,1164.0,1158.0,319.0,489.0
5867,1066,216,0,6075.0,6197.0,1143.0,1164.0,246.0,319.0
5594,955,202,0,5867.0,6075.0,1066.0,1143.0,216.0,246.0
5281,834,196,0,5594.0,5867.0,955.0,1066.0,202.0,216.0
4979,724,186,0,5281.0,5594.0,834.0,955.0,196.0,202.0
4723,623,174,0,4979.0,5281.0,724.0,834.0,186.0,196.0
4525,508,147,0,4723.0,4979.0,623.0,724.0,174.0,186.0
4403,375,163,0,4525.0,4723.0,508.0,623.0,147.0,174.0
4378,265,280,0,4403.0,4525.0,375.0,508.0,163.0,147.0
4470,186,460,0,4378.0,4403.0,265.0,375.0,280.0,163.0
4659,136,675,0,4470.0,4378.0,186.0,265.0,460.0,280.0
4895,144,912,0,4659.0,4470.0,136.0,186.0,675.0,460.0
5133,200,1138,0,4895.0,4659.0,144.0,136.0,912.0,675.0
5322,268,1302,0,5133.0,4895.0,200.0,144.0,1138.0,912.0
5436,334,1401,0,5322.0,5133.0,268.0,200.0,1302.0,1138.0
5477,376,1435,0,5436.0,5322.0,334.0,268.0,1401.0,1302.0
5456,380,1420,0,5477.0,5436.0,376.0,334.0,1435.0,1401.0
5401,349,1368,0,5456.0,5477.0,380.0,376.0,1420.0,1435.0
5342,291,1288,0,5401.0,5456.0,349.0,380.0,1368.0,1420.0
5282,228,1205,0,5342.0,5401.0,291.0,349.0,1288.0,1368.0
5223,147,1119,0,5282.0,5342.0,228.0,291.0,1205.0,1288.0
5157,70,1029,0,5223.0,5282.0,147.0,228.0,1119.0,1205.0
5080,37,958,0,5157.0,5223.0,70.0,147.0,1029.0,1119.0
4990,46,925,0,5080.0,5157.0,37.0,70.0,958.0,1029.0
4885,95,934,0,4990.0,5080.0,46.0,37.0,925.0,958.0
4777,184,978,0,4885.0,4990.0,95.0,46.0,934.0,925.0
4659,293,1023,0,4777.0,4885.0,184.0,95.0,978.0,934.0
4540,417,1053,0,4659.0,4777.0,293.0,184.0,1023.0,978.0
4432,563,1070,0,4540.0,4659.0,417.0,293.0,1053.0,1023.0
4333,743,1064,0,4432.0,4540.0,563.0,417.0,1070.0,1053.0
4246,954,1028,0,4333.0,4432.0,743.0,563.0,1064.0,1070.0
4185,1184,971,0,4246.0,4333.0,954.0,743.0,1028.0,1064.0
4143,1418,891,0,4185.0,4246.0,1184.0,954.0,971.0,1028.0
4116,1637,809,0,4143.0,4185.0,1418.0,1184.0,891.0,971.0
4112,1812,721,0,4116.0,4143.0,1637.0,1418.0,809.0,891.0
4139,1934,639,0,4112.0,4116.0,1812.0,1637.0,721.0,809.0
4194,2010,560,0,4139.0,4112.0,1934.0,1812.0,639.0,721.0
4266,2039,488,0,4194.0,4139.0,2010.0,1934.0,560.0,639.0
4350,2031,417,0,4266.0,4194.0,2039.0,2010.0,488.0,560.0
4431,1985,347,0,4350.0,4266.0,2031.0,2039.0,417.0,488.0
4484,1898,266,0,4431.0,4350.0,1985.0,2031.0,347.0,417.0
4510,1778,180,0,4484.0,4431.0,1898.0,1985.0,266.0,347.0
4503,1643,99,0,4510.0,4484.0,1778.0,1898.0,180.0,266.0
4493,1499,49,0,4503.0,4510.0,1643.0,1778.0,99.0,180.0
4468,1352,26,0,4493.0,4503.0,1499.0,1643.0,49.0,99.0
4422,1219,27,0,4468.0,4493.0,1352.0,1499.0,26.0,49.0
4360,1106,27,0,4422.0,4468.0,1219.0,1352.0,27.0,26.0
4299,1013,18,0,4360.0,4422.0,1106.0,1219.0,27.0,27.0
4231,928,12,0,4299.0,4360.0,1013.0,1106.0,18.0,27.0
4173,840,17,0,4231.0,4299.0,928.0,1013.0,12.0,18.0
4122,750,56,0,4173.0,4231.0,840.0,928.0,17.0,12.0
4069,645,128,0,4122.0,4173.0,750.0,840.0,56.0,17.0
3992,540,222,0,4069.0,4122.0,645.0,750.0,128.0,56.0
3909,427,329,0,3992.0,4069.0,540.0,645.0,222.0,128.0
3830,310,421,0,3909.0,3992.0,427.0,540.0,329.0,222.0
3740,222,495,0,3830.0,3909.0,310.0,427.0,421.0,329.0
3622,171,564,0,3740.0,3830.0,222.0,310.0,495.0,421.0
3495,135,583,0,3622.0,3740.0,171.0,222.0,564.0,495.0
3378,110,576,0,3495.0,3622.0,135.0,171.0,583.0,564.0
3243,109,578,0,3378.0,3495.0,110.0,135.0,576.0,583.0
3098,130,557,0,3243.0,3378.0,109.0,110.0,578.0,576.0
2940,221,505,0,3098.0,3243.0,130.0,109.0,557.0,578.0
2794,368,431,0,2940.0,3098.0,221.0,130.0,505.0,557.0
2667,528,360,0,2794.0,2940.0,368.0,221.0,431.0,505.0
2585,681,275,0,2667.0,2794.0,528.0,368.0,360.0,431.0
2539,823,186,0,2585.0,2667.0,681.0,528.0,275.0,360.0
2525,966,113,0,2539.0,2585.0,823.0,681.0,186.0,275.0
2533,1112,77,0,2525.0,2539.0,966.0,823.0,113.0,186.0
2559,1218,69,0,2533.0,2525.0,1112.0,966.0,77.0,113.0
2601,1282,54,0,2559.0,2533.0,1218.0,1112.0,69.0,77.0
2650,1330,54,0,2601.0,2559.0,1282.0,1218.0,54.0,69.0
2694,1365,75,0,2650.0,2601.0,1330.0,1282.0,54.0,54.0
2730,1385,97,0,2694.0,2650.0,1365.0,1330.0,75.0,54.0
2768,1370,112,0,2730.0,2694.0,1385.0,1365.0,97.0,75.0
2814,1308,113,0,2768.0,2730.0,1370.0,1385.0,112.0,97.0
2868,1211,111,0,2814.0,2768.0,1308.0,1370.0,113.0,112.0
2924,1094,109,0,2868.0,2814.0,1211.0,1308.0,111.0,113.0
2978,976,104,0,2924.0,2868.0,1094.0,1211.0,109.0,111.0
3026,864,102,0,2978.0,2924.0,976.0,1094.0,104.0,109.0
3055,760,105,0,3026.0,2978.0,864.0,976.0,102.0,104.0
3067,647,109,0,3055.0,3026.0,760.0,864.0,105.0,102.0
3063,538,121,0,3067.0,3055.0,647.0,760.0,109.0,105.0
3048,432,129,0,3063.0,3067.0,538.0,647.0,121.0,109.0
3041,334,146,0,3048.0,3063.0,432.0,538.0,129.0,121.0
3027,257,181,0,3041.0,3048.0,334.0,432.0,146.0,129.0
3004,191,211,0,3027.0,3041.0,257.0,334.0,181.0,146.0
2970,149,241,0,3004.0,3027.0,191.0,257.0,211.0,181.0
2930,136,286,0,2970.0,3004.0,149.0,191.0,241.0,211.0
2880,149,345,0,2930.0,2970.0,136.0,149.0,286.0,241.0
2822,181,415,0,2880.0,2930.0,149.0,136.0,345.0,286.0
2769,227,482,0,2822.0,2880.0,181.0,149.0,415.0,345.0
2715,308,549,0,2769.0,2822.0,227.0,181.0,482.0,415.0
2691,401,620,0,2715.0,2769.0,308.0,227.0,549.0,482.0
2698,509,694,0,2691.0,2715.0,401.0,308.0,620.0,549.0
2739,623,762,0,2698.0,2691.0,509.0,401.0,694.0,620.0
2808,748,824,0,2739.0,2698.0,623.0,509.0,762.0,694.0
2904,861,883,0,2808.0,2739.0,748.0,623.0,824.0,762.0
3013,958,912,0,2904.0,2808.0,861.0,748.0,883.0,824.0
3121,1022,910,0,3013.0,2904.0,958.0,861.0,912.0,883.0
3222,1055,875,0,3121.0,3013.0,1022.0,958.0,910.0,912.0
3299,1058,838,0,3222.0,3121.0,1055.0,1022.0,875.0,910.0
3362,1039,837,0,3299.0,3222.0,1058.0,1055.0,838.0,875.0
3433,986,896,0,3362.0,3299.0,1039.0,1058.0,837.0,838.0
3577,900,1041,0,3433.0,3362.0,986.0,1039.0,896.0,837.0
3776,773,1225,0,3577.0,3433.0,900.0,986.0,1041.0,896.0
3975,614,1428,0,3776.0,3577.0,773.0,900.0,1225.0,1041.0
4150,481,1643,0,3975.0,3776.0,614.0,773.0,1428.0,1225.0
4291,397,1801,0,4150.0,3975.0,481.0,614.0,1643.0,1428.0
4404,332,1864,0,4291.0,4150.0,397.0,481.0,1801.0,1643.0
4471,248,1819,0,4404.0,4291.0,332.0,397.0,1864.0,1801.0
4498,144,1703,0,4471.0,4404.0,248.0,332.0,1819.0,1864.0
4501,23,1552,0,4498.0,4471.0,144.0,248.0,1703.0,1819.0
4512,-86,1414,0,4501.0,4498.0,23.0,144.0,1552.0,1703.0
4577,-166,1263,0,4512.0,4501.0,-86.0,23.0,1414.0,1552.0
4701,-163,1133,0,4577.0,4512.0,-166.0,-86.0,1263.0,1414.0
4868,-49,1063,0,4701.0,4577.0,-163.0,-166.0,1133.0,1263.0
5096,166,1011,0,4868.0,4701.0,-49.0,-163.0,1063.0,1133.0
5318,498,1023,0,5096.0,4868.0,166.0,-49.0,1011.0,1063.0
5426,915,1067,0,5318.0,5096.0,498.0,166.0,1023.0,1011.0
5438,1365,1112,0,5426.0,5318.0,915.0,498.0,1067.0,1023.0
5306,1818,1199,0,5438.0,5426.0,1365.0,915.0,1112.0,1067.0
5051,2223,1262,0,5306.0,5438.0,1818.0,1365.0,1199.0,1112.0
4722,2545,1284,0,5051.0,5306.0,2223.0,1818.0,1262.0,1199.0
4375,2775,1285,0,4722.0,5051.0,2545.0,2223.0,1284.0,1262.0
4025,2906,1287,0,4375.0,4722.0,2775.0,2545.0,1285.0,1284.0
3701,2949,1314,0,4025.0,4375.0,2906.0,2775.0,1287.0,1285.0
3456,2915,1387,0,3701.0,4025.0,2949.0,2906.0,1314.0,1287.0
3335,2810,1513,0,3456.0,3701.0,2915.0,2949.0,1387.0,1314.0
3394,2646,1618,0,3335.0,3456.0,2810.0,2915.0,1513.0,1387.0
3654,2437,1660,0,3394.0,3335.0,2646.0,2810.0,1618.0,1513.0
4033,2230,1603,0,3654.0,3394.0,2437.0,2646.0,1660.0,1618.0
4540,2010,1485,0,4033.0,3654.0,2230.0,2437.0,1603.0,1660.0
5078,1800,1485,0,4540.0,4033.0,2010.0,2230.0,1485.0,1603.0
5638,1499,1474,0,5078.0,4540.0,1800.0,2010.0,1485.0,1485.0
6140,1146,1337,0,5638.0,5078.0,1499.0,1800.0,1474.0,1485.0
6487,835,1115,0,6140.0,5638.0,1146.0,1499.0,1337.0,1474.0
6634,562,890,0,6487.0,6140.0,835.0,1146.0,1115.0,1337.0
6593,325,769,0,6634.0,6487.0,562.0,835.0,890.0,1115.0
6385,112,785,0,6593.0,6634.0,325.0,562.0,769.0,890.0
6013,-44,882,0,6385.0,6593.0,112.0,325.0,785.0,769.0
5535,-175,928,0,6013.0,6385.0,-44.0,112.0,882.0,785.0
5020,-323,779,0,5535.0,6013.0,-175.0,-44.0,928.0,882.0
4496,-457,494,0,5020.0,5535.0,-323.0,-175.0,779.0,928.0
3935,-471,189,0,4496.0,5020.0,-457.0,-323.0,494.0,779.0
3412,-364,-23,0,3935.0,4496.0,-471.0,-457.0,189.0,494.0
2982,-214,-109,0,3412.0,3935.0,-364.0,-471.0,-23.0,189.0
2690,-98,-118,0,2982.0,3412.0,-214.0,-364.0,-109.0,-23.0
2539,-37,-75,0,2690.0,2982.0,-98.0,-214.0,-118.0,-109.0
2509,9,25,0,2539.0,2690.0,-37.0,-98.0,-75.0,-118.0
2577,52,85,0,2509.0,2539.0,9.0,-37.0,25.0,-75.0
2676,122,59,0,2577.0,2509.0,52.0,9.0,85.0,25.0
2769,230,-33,0,2676.0,2577.0,122.0,52.0,59.0,85.0
2834,347,-157,0,2769.0,2676.0,230.0,122.0,-33.0,59.0
2877,431,-253,0,2834.0,2769.0,347.0,230.0,-157.0,-33.0
2907,442,-290,0,2877.0,2834.0,431.0,347.0,-253.0,-157.0
2953,401,-258,0,2907.0,2877.0,442.0,431.0,-290.0,-253.0
3039,349,-187,0,2953.0,2907.0,401.0,442.0,-258.0,-290.0
3164,306,-85,0,3039.0,2953.0,349.0,401.0,-187.0,-258.0
3328,283,6,0,3164.0,3039.0,306.0,349.0,-85.0,-187.0
3520,286,72,0,3328.0,3164.0,283.0,306.0,6.0,-85.0
3735,309,106,0,3520.0,3328.0,286.0,283.0,72.0,6.0
3947,365,111,0,3735.0,3520.0,309.0,286.0,106.0,72.0
4188,449,112,0,3947.0,3735.0,365.0,309.0,111.0,106.0
4459,534,151,0,4188.0,3947.0,449.0,365.0,112.0,111.0
4751,606,220,0,4459.0,4188.0,534.0,449.0,151.0,112.0
5069,644,290,0,4751.0,4459.0,606.0,534.0,220.0,151.0
5373,689,371,0,5069.0,4751.0,644.0,606.0,290.0,220.0
5655,739,436,0,5373.0,5069.0,689.0,644.0,371.0,290.0
5869,805,497,0,5655.0,5373.0,739.0,689.0,436.0,371.0
6009,870,523,0,5869.0,5655.0,805.0,739.0,497.0,436.0
6047,961,553,0,6009.0,5869.0,870.0,805.0,523.0,497.0
5972,1062,564,0,6047.0,6009.0,961.0,870.0,553.0,523.0
5776,1181,564,0,5972.0,6047.0,1062.0,961.0,564.0,553.0
5475,1316,591,0,5776.0,5972.0,1181.0,1062.0,564.0,564.0
5103,1406,615,0,5475.0,5776.0,1316.0,1181.0,591.0,564.0
4695,1420,629,0,5103.0,5475.0,1406.0,1316.0,615.0,591.0
4307,1387,617,0,4695.0,5103.0,1420.0,1406.0,629.0,615.0
3964,1332,601,0,4307.0,4695.0,1387.0,1420.0,617.0,629.0
3694,1248,585,0,3964.0,4307.0,1332.0,1387.0,601.0,617.0
3504,1146,562,0,3694.0,3964.0,1248.0,1332.0,585.0,601.0
3369,1045,547,0,3504.0,3694.0,1146.0,1248.0,562.0,585.0
3282,955,520,0,3369.0,3504.0,1045.0,1146.0,547.0,562.0
3229,886,499,0,3282.0,3369.0,955.0,1045.0,520.0,547.0
3213,833,496,0,3229.0,3282.0,886.0,955.0,499.0,520.0
3220,784,508,0,3213.0,3229.0,833.0,886.0,496.0,499.0
3241,746,522,0,3220.0,3213.0,784.0,833.0,508.0,496.0
3263,717,541,0,3241.0,3220.0,746.0,784.0,522.0,508.0
3285,707,563,0,3263.0,3241.0,717.0,746.0,541.0,522.0
3295,702,578,0,3285.0,3263.0,707.0,717.0,563.0,541.0
3316,690,579,0,3295.0,3285.0,702.0,707.0,578.0,563.0
3329,658,579,0,3316.0,3295.0,690.0,702.0,579.0,578.0
3349,614,560,0,3329.0,3316.0,658.0,690.0,579.0,579.0
3374,572,520,0,3349.0,3329.0,614.0,658.0,560.0,579.0
3405,541,474,0,3374.0,3349.0,572.0,614.0,520.0,560.0
3438,514,425,0,3405.0,3374.0,541.0,572.0,474.0,520.0
3470,482,378,0,3438.0,3405.0,514.0,541.0,425.0,474.0
3494,434,352,0,3470.0,3438.0,482.0,514.0,378.0,425.0
3501,367,347,0,3494.0,3470.0,434.0,482.0,352.0,378.0
3486,284,352,0,3501.0,3494.0,367.0,434.0,347.0,352.0
3448,179,345,0,3486.0,3501.0,284.0,367.0,352.0,347.0
3392,78,330,0,3448.0,3486.0,179.0,284.0,345.0,352.0
3316,-10,306,0,3392.0,3448.0,78.0,179.0,330.0,345.0
3257,-88,298,0,3316.0,3392.0,-10.0,78.0,306.0,330.0
3221,-154,318,0,3257.0,3316.0,-88.0,-10.0,298.0,306.0
3192,-185,327,0,3221.0,3257.0,-154.0,-88.0,318.0,298.0
3174,-174,331,0,3192.0,3221.0,-185.0,-154.0,327.0,318.0
3162,-112,359,0,3174.0,3192.0,-174.0,-185.0,331.0,327.0
3149,-22,405,0,3162.0,3174.0,-112.0,-174.0,359.0,331.0
3129,82,432,0,3149.0,3162.0,-22.0,-112.0,405.0,359.0
3113,202,483,0,3129.0,3149.0,82.0,-22.0,432.0,405.0
3095,339,545,0,3113.0,3129.0,202.0,82.0,483.0,432.0
3098,460,587,0,3095.0,3113.0,339.0,202.0,545.0,483.0
3121,586,593,0,3098.0,3095.0,460.0,339.0,587.0,545.0
3148,698,569,0,3121.0,3098.0,586.0,460.0,593.0,587.0
3190,811,523,0,3148.0,3121.0,698.0,586.0,569.0,593.0
3225,920,472,0,3190.0,3148.0,811.0,698.0,523.0,569.0
3257,1007,400,0,3225.0,3190.0,920.0,811.0,472.0,523.0
3297,1057,337,0,3257.0,3225.0,1007.0,920.0,400.0,472.0
3339,1092,268,0,3297.0,3257.0,1057.0,1007.0,337.0,400.0
3396,1107,208,0,3339.0,3297.0,1092.0,1057.0,268.0,337.0
3459,1122,180,0,3396.0,3339.0,1107.0,1092.0,208.0,268.0
3499,1154,168,0,3459.0,3396.0,1122.0,1107.0,180.0,208.0
3517,1169,176,0,3499.0,3459.0,1154.0,1122.0,168.0,180.0
3543,1160,190,0,3517.0,3499.0,1169.0,1154.0,176.0,168.0
3563,1134,187,0,3543.0,3517.0,1160.0,1169.0,190.0,176.0
3584,1111,178,0,3563.0,3543.0,1134.0,1160.0,187.0,190.0
3599,1102,168,0,3584.0,3563.0,1111.0,1134.0,178.0,187.0
3608,1085,178,0,3599.0,3584.0,1102.0,1111.0,168.0,178.0
3617,1064,230,0,3608.0,3599.0,1085.0,1102.0,178.0,168.0
3637,1010,291,0,3617.0,3608.0,1064.0,1085.0,230.0,178.0
3673,918,363,0,3637.0,3617.0,1010.0,1064.0,291.0,230.0
3730,813,465,0,3673.0,3637.0,918.0,1010.0,363.0,291.0
3809,701,620,0,3730.0,3673.0,813.0,918.0,465.0,363.0
3914,569,811,0,3809.0,3730.0,701.0,813.0,620.0,465.0
4034,412,1013,0,3914.0,3809.0,569.0,701.0,811.0,620.0
4184,245,1170,0,4034.0,3914.0,412.0,569.0,1013.0,811.0
4354,53,1246,0,4184.0,4034.0,245.0,412.0,1170.0,1013.0
4541,-152,1204,0,4354.0,4184.0,53.0,245.0,1246.0,1170.0
4736,-332,1072,0,4541.0,4354.0,-152.0,53.0,1204.0,1246.0
4918,-428,900,0,4736.0,4541.0,-332.0,-152.0,1072.0,1204.0
5044,-408,724,0,4918.0,4736.0,-428.0,-332.0,900.0,1072.0
5101,-250,591,0,5044.0,4918.0,-408.0,-428.0,724.0,900.0
5065,15,515,0,5101.0,5044.0,-250.0,-408.0,591.0,724.0
4939,353,483,0,5065.0,5101.0,15.0,-250.0,515.0,591.0
4760,709,487,0,4939.0,5065.0,353.0,15.0,483.0,515.0
4560,1045,508,0,4760.0,4939.0,709.0,353.0,487.0,483.0
4365,1341,522,0,4560.0,4760.0,1045.0,709.0,508.0,487.0
4205,1583,522,0,4365.0,4560.0,1341.0,1045.0,522.0,508.0
4082,1772,498,0,4205.0,4365.0,1583.0,1341.0,522.0,522.0
3992,1897,418,0,4082.0,4205.0,1772.0,1583.0,498.0,522.0
3933,1930,251,0,3992.0,4082.0,1897.0,1772.0,418.0,498.0
3957,1878,88,0,3933.0,3992.0,1930.0,1897.0,251.0,418.0
4091,1772,20,0,3957.0,3933.0,1878.0,1930.0,88.0,251.0
4439,1682,188,0,4091.0,3957.0,1772.0,1878.0,20.0,88.0
4928,1592,473,0,4439.0,4091.0,1682.0,1772.0,188.0,20.0
5384,1471,687,0,4928.0,4439.0,1592.0,1682.0,473.0,188.0
5728,1311,776,0,5384.0,4928.0,1471.0,1592.0,687.0,473.0
5865,1171,715,0,5728.0,5384.0,1311.0,1471.0,776.0,687.0
5762,1033,538,0,5865.0,5728.0,1171.0,1311.0,715.0,776.0
5468,896,350,0,5762.0,5865.0,1033.0,1171.0,538.0,715.0
5060,771,205,0,5468.0,5762.0,896.0,1033.0,350.0,538.0
4644,659,140,0,5060.0,5468.0,771.0,896.0,205.0,350.0
4266,536,100,0,4644.0,5060.0,659.0,771.0,140.0,205.0
3967,412,65,0,4266.0,4644.0,536.0,659.0,100.0,140.0
3723,298,3,0,3967.0,4266.0,412.0,536.0,65.0,100.0
3550,231,-14,0,3723.0,3967.0,298.0,412.0,3.0,65.0
3521,236,18,0,3550.0,3723.0,231.0,298.0,-14.0,3.0
3594,243,37,0,3521.0,3550.0,236.0,231.0,18.0,-14.0
3696,223,21,0,3594.0,3521.0,243.0,236.0,37.0,18.0
3857,203,27,0,3696.0,3594.0,223.0,243.0,21.0,37.0
4047,251,123,0,3857.0,3696.0,203.0,223.0,27.0,21.0
4250,412,310,0,4047.0,3857.0,251.0,203.0,123.0,27.0
4457,604,551,0,4250.0,4047.0,412.0,251.0,310.0,123.0
4661,763,824,0,4457.0,4250.0,604.0,412.0,551.0,310.0
4839,830,1077,0,4661.0,4457.0,763.0,604.0,824.0,551.0
4979,813,1277,0,4839.0,4661.0,830.0,763.0,1077.0,824.0
5067,735,1382,0,4979.0,4839.0,813.0,830.0,1277.0,1077.0
5123,632,1393,0,5067.0,4979.0,735.0,813.0,1382.0,1277.0
5169,526,1317,0,5123.0,5067.0,632.0,735.0,1393.0,1382.0
5219,424,1194,0,5169.0,5123.0,526.0,632.0,1317.0,1393.0
5275,331,1074,0,5219.0,5169.0,424.0,526.0,1194.0,1317.0
5357,240,962,0,5275.0,5219.0,331.0,424.0,1074.0,1194.0
5461,142,875,0,5357.0,5275.0,240.0,331.0,962.0,1074.0
5561,58,826,0,5461.0,5357.0,142.0,240.0,875.0,962.0
5599,2,805,0,5561.0,5461.0,58.0,142.0,826.0,875.0
5558,-20,818,0,5599.0,5561.0,2.0,58.0,805.0,826.0
5444,-24,862,0,5558.0,5599.0,-20.0,2.0,818.0,805.0
5271,-16,905,0,5444.0,5558.0,-24.0,-20.0,862.0,818.0
5051,27,939,0,5271.0,5444.0,-16.0,-24.0,905.0,862.0
4801,99,940,0,5051.0,5271.0,27.0,-16.0,939.0,905.0
4583,196,910,0,4801.0,5051.0,99.0,27.0,940.0,939.0
4403,324,862,0,4583.0,4801.0,196.0,99.0,910.0,940.0
4290,500,832,0,4403.0,4583.0,324.0,196.0,862.0,910.0
4231,705,812,0,4290.0,4403.0,500.0,324.0,832.0,862.0
4220,925,781,0,4231.0,4290.0,705.0,500.0,812.0,832.0
4253,1134,738,0,4220.0,4231.0,925.0,705.0,781.0,812.0
4318,1323,687,0,4253.0,4220.0,1134.0,925.0,738.0,781.0
4407,1477,634,0,4318.0,4253.0,1323.0,1134.0,687.0,738.0
4503,1586,591,0,4407.0,4318.0,1477.0,1323.0,634.0,687.0
4605,1643,544,0,4503.0,4407.0,1586.0,1477.0,591.0,634.0
4690,1656,492,0,4605.0,4503.0,1643.0,1586.0,544.0,591.0
4749,1622,451,0,4690.0,4605.0,1656.0,1643.0,492.0,544.0
4772,1552,400,0,4749.0,4690.0,1622.0,1656.0,451.0,492.0
4774,1460,350,0,4772.0,4749.0,1552.0,1622.0,400.0,451.0
4753,1360,305,0,4774.0,4772.0,1460.0,1552.0,350.0,400.0
4713,1266,285,0,4753.0,4774.0,1360.0,1460.0,305.0,350.0
4649,1183,300,0,4713.0,4753.0,1266.0,1360.0,285.0,305.0
4561,1129,322,0,4649.0,4713.0,1183.0,1266.0,300.0,285.0
4453,1077,350,0,4561.0,4649.0,1129.0,1183.0,322.0,300.0
4341,1026,374,0,4453.0,4561.0,1077.0,1129.0,350.0,322.0
4213,985,388,0,4341.0,4453.0,1026.0,1077.0,374.0,350.0
4083,958,414,0,4213.0,4341.0,985.0,1026.0,388.0,374.0
3963,944,444,0,4083.0,4213.0,958.0,985.0,414.0,388.0
3860,926,471,0,3963.0,4083.0,944.0,958.0,444.0,414.0
3767,899,489,0,3860.0,3963.0,926.0,944.0,471.0,444.0
3672,857,497,0,3767.0,3860.0,899.0,926.0,489.0,471.0
3562,823,485,0,3672.0,3767.0,857.0,899.0,497.0,489.0
3446,792,459,0,3562.0,3672.0,823.0,857.0,485.0,497.0
3322,763,442,0,3446.0,3562.0,792.0,823.0,459.0,485.0
3189,746,407,0,3322.0,3446.0,763.0,792.0,442.0,459.0
3060,730,367,0,3189.0,3322.0,746.0,763.0,407.0,442.0
2919,739,339,0,3060.0,3189.0,730.0,746.0,367.0,407.0
2792,737,295,0,2919.0,3060.0,739.0,730.0,339.0,367.0
2672,729,253,0,2792.0,2919.0,737.0,739.0,295.0,339.0
2565,719,215,0,2672.0,2792.0,729.0,737.0,253.0,295.0
2480,713,186,0,2565.0,2672.0,719.0,729.0,215.0,253.0
2404,718,180,0,2480.0,2565.0,713.0,719.0,186.0,215.0
2344,724,183,0,2404.0,2480.0,718.0,713.0,180.0,186.0
2291,737,186,0,2344.0,2404.0,724.0,718.0,183.0,180.0
2238,749,182,0,2291.0,2344.0,737.0,724.0,186.0,183.0
2189,755,187,0,2238.0,2291.0,749.0,737.0,182.0,186.0
2154,742,181,0,2189.0,2238.0,755.0,749.0,187.0,182.0
2140,714,161,0,2154.0,2189.0,742.0,755.0,181.0,187.0
2163,668,159,0,2140.0,2154.0,714.0,742.0,161.0,181.0
2207,613,163,0,2163.0,2140.0,668.0,714.0,159.0,161.0
2268,540,153,0,2207.0,2163.0,613.0,668.0,163.0,159.0
2342,452,148,0,2268.0,2207.0,540.0,613.0,153.0,163.0
2429,343,146,0,2342.0,2268.0,452.0,540.0,148.0,153.0
2522,210,145,0,2429.0,2342.0,343.0,452.0,146.0,148.0
2609,75,145,0,2522.0,2429.0,210.0,343.0,145.0,146.0
2685,-58,152,0,2609.0,2522.0,75.0,210.0,145.0,145.0
2741,-187,170,0,2685.0,2609.0,-58.0,75.0,152.0,145.0
2778,-312,198,0,2741.0,2685.0,-187.0,-58.0,170.0,152.0
2811,-412,243,0,2778.0,2741.0,-312.0,-187.0,198.0,170.0
2828,-490,306,0,2811.0,2778.0,-412.0,-312.0,243.0,198.0
2830,-536,363,0,2828.0,2811.0,-490.0,-412.0,306.0,243.0
2823,-557,416,0,2830.0,2828.0,-536.0,-490.0,363.0,306.0
2818,-543,467,0,2823.0,2830.0,-557.0,-536.0,416.0,363.0
2814,-500,508,0,2818.0,2823.0,-543.0,-557.0,467.0,416.0
2821,-435,540,0,2814.0,2818.0,-500.0,-543.0,508.0,467.0
2840,-347,589,0,2821.0,2814.0,-435.0,-500.0,540.0,508.0
2877,-226,657,0,2840.0,2821.0,-347.0,-435.0,589.0,540.0
2920,-91,740,0,2877.0,2840.0,-226.0,-347.0,657.0,589.0
2968,54,832,0,2920.0,2877.0,-91.0,-226.0,740.0,657.0
3022,218,928,0,2968.0,2920.0,54.0,-91.0,832.0,740.0
3085,382,1015,0,3022.0,2968.0,218.0,54.0,928.0,832.0
3156,569,1086,0,3085.0,3022.0,382.0,218.0,1015.0,928.0
3244,748,1106,0,3156.0,3085.0,569.0,382.0,1086.0,1015.0
3347,886,1075,0,3244.0,3156.0,748.0,569.0,1106.0,1086.0
3448,976,1003,0,3347.0,3244.0,886.0,748.0,1075.0,1106.0
3545,1036,920,0,3448.0,3347.0,976.0,886.0,1003.0,1075.0
3637,1063,870,0,3545.0,3448.0,1036.0,976.0,920.0,1003.0
3747,1047,924,0,3637.0,3545.0,1063.0,1036.0,870.0,920.0
3870,992,1078,0,3747.0,3637.0,1047.0,1063.0,924.0,870.0
3996,913,1296,0,3870.0,3747.0,992.0,1047.0,1078.0,924.0
4113,854,1540,0,3996.0,3870.0,913.0,992.0,1296.0,1078.0
4208,817,1734,0,4113.0,3996.0,854.0,913.0,1540.0,1296.0
4295,766,1792,0,4208.0,4113.0,817.0,854.0,1734.0,1540.0
4374,655,1704,0,4295.0,4208.0,766.0,817.0,1792.0,1734.0
4439,520,1558,0,4374.0,4295.0,655.0,766.0,1704.0,1792.0
4507,401,1421,0,4439.0,4374.0,520.0,655.0,1558.0,1704.0
4622,349,1315,0,4507.0,4439.0,401.0,520.0,1421.0,1558.0
4802,399,1244,0,4622.0,4507.0,349.0,401.0,1315.0,1421.0
5025,561,1197,0,4802.0,4622.0,399.0,349.0,1244.0,1315.0
5260,827,1179,0,5025.0,4802.0,561.0,399.0,1197.0,1244.0
5415,1169,1200,0,5260.0,5025.0,827.0,561.0,1179.0,1197.0
5505,1584,1248,0,5415.0,5260.0,1169.0,827.0,1200.0,1179.0
5453,2056,1395,0,5505.0,5415.0,1584.0,1169.0,1248.0,1200.0
5263,2494,1590,0,5453.0,5505.0,2056.0,1584.0,1395.0,1248.0
4970,2854,1759,0,5263.0,5453.0,2494.0,2056.0,1590.0,1395.0
4629,3125,1862,0,4970.0,5263.0,2854.0,2494.0,1759.0,1590.0
4281,3323,1900,0,4629.0,4970.0,3125.0,2854.0,1862.0,1759.0
3963,3457,1897,0,4281.0,4629.0,3323.0,3125.0,1900.0,1862.0
3713,3526,1885,0,3963.0,4281.0,3457.0,3323.0,1897.0,1900.0
3555,3561,1881,0,3713.0,3963.0,3526.0,3457.0,1885.0,1897.0
3522,3562,1896,0,3555.0,3713.0,3561.0,3526.0,1881.0,1885.0
3645,3535,1920,0,3522.0,3555.0,3562.0,3561.0,1896.0,1881.0
3937,3391,1874,0,3645.0,3522.0,3535.0,3562.0,1920.0,1896.0
4382,3150,1710,0,3937.0,3645.0,3391.0,3535.0,1874.0,1920.0
4948,2810,1438,0,4382.0,3937.0,3150.0,3391.0,1710.0,1874.0
5560,2427,1172,0,4948.0,4382.0,2810.0,3150.0,1438.0,1710.0
6172,2034,990,0,5560.0,4948.0,2427.0,2810.0,1172.0,1438.0
6712,1606,858,0,6172.0,5560.0,2034.0,2427.0,990.0,1172.0
7126,1133,722,0,6712.0,6172.0,1606.0,2034.0,858.0,990.0
7379,622,615,0,7126.0,6712.0,1133.0,1606.0,722.0,858.0
7438,114,579,0,7379.0,7126.0,622.0,1133.0,615.0,722.0
7244,-372,594,0,7438.0,7379.0,114.0,622.0,579.0,615.0
6767,-770,663,0,7244.0,7438.0,-372.0,114.0,594.0,579.0
6097,-1013,754,0,6767.0,7244.0,-770.0,-372.0,663.0,594.0
5363,-1117,785,0,6097.0,6767.0,-1013.0,-770.0,754.0,663.0
4667,-1185,715,0,5363.0,6097.0,-1117.0,-1013.0,785.0,754.0
4062,-1262,581,0,4667.0,5363.0,-1185.0,-1117.0,715.0,785.0
3583,-1306,468,0,4062.0,4667.0,-1262.0,-1185.0,581.0,715.0
3240,-1305,387,0,3583.0,4062.0,-1306.0,-1262.0,468.0,581.0
3036,-1258,357,0,3240.0,3583.0,-1305.0,-1306.0,387.0,468.0
2932,-1149,361,0,3036.0,3240.0,-1258.0,-1305.0,357.0,387.0
2899,-1015,362,0,2932.0,3036.0,-1149.0,-1258.0,361.0,357.0
2903,-881,335,0,2899.0,2932.0,-1015.0,-1149.0,362.0,361.0
2874,-785,260,0,2903.0,2899.0,-881.0,-1015.0,335.0,362.0
2807,-717,172,0,2874.0,2903.0,-785.0,-881.0,260.0,335.0
2738,-627,148,0,2807.0,2874.0,-717.0,-785.0,172.0,260.0
2700,-520,111,0,2738.0,2807.0,-627.0,-717.0,148.0,172.0
2728,-446,-4,0,2700.0,2738.0,-520.0,-627.0,111.0,148.0
2798,-410,-145,0,2728.0,2700.0,-446.0,-520.0,-4.0,111.0
2881,-404,-270,0,2798.0,2728.0,-410.0,-446.0,-145.0,-4.0
2970,-399,-351,0,2881.0,2798.0,-404.0,-410.0,-270.0,-145.0
3077,-393,-391,0,2970.0,2881.0,-399.0,-404.0,-351.0,-270.0
3187,-353,-379,0,3077.0,2970.0,-393.0,-399.0,-391.0,-351.0
3296,-278,-296,0,3187.0,3077.0,-353.0,-393.0,-379.0,-391.0
3418,-201,-159,0,3296.0,3187.0,-278.0,-353.0,-296.0,-379.0
3553,-143,3,0,3418.0,3296.0,-201.0,-278.0,-159.0,-296.0
3685,-98,157,0,3553.0,3418.0,-143.0,-201.0,3.0,-159.0
3826,-70,270,0,3685.0,3553.0,-98.0,-143.0,157.0,3.0
4003,-43,356,0,3826.0,3685.0,-70.0,-98.0,270.0,157.0
4246,23,443,0,4003.0,3826.0,-43.0,-70.0,356.0,270.0
4602,135,511,0,4246.0,4003.0,23.0,-43.0,443.0,356.0
5108,275,605,0,4602.0,4246.0,135.0,23.0,511.0,443.0
5727,381,706,0,5108.0,4602.0,275.0,135.0,605.0,511.0
6343,434,763,0,5727.0,5108.0,381.0,275.0,706.0,605.0
6801,479,793,0,6343.0,5727.0,434.0,381.0,763.0,706.0
6972,575,791,0,6801.0,6343.0,479.0,434.0,793.0,763.0
6823,716,736,0,6972.0,6801.0,575.0,479.0,791.0,793.0
6332,912,658,0,6823.0,6972.0,716.0,575.0,736.0,791.0
5620,1141,602,0,6332.0,6823.0,912.0,716.0,658.0,736.0
4806,1342,592,0,5620.0,6332.0,1141.0,912.0,602.0,658.0
4010,1455,584,0,4806.0,5620.0,1342.0,1141.0,592.0,602.0
3325,1478,548,0,4010.0,4806.0,1455.0,1342.0,584.0,592.0
2813,1444,514,0,3325.0,4010.0,1478.0,1455.0,548.0,584.0
2484,1394,500,0,2813.0,3325.0,1444.0,1478.0,514.0,548.0
2320,1370,511,0,2484.0,2813.0,1394.0,1444.0,500.0,514.0
2274,1373,545,0,2320.0,2484.0,1370.0,1394.0,511.0,500.0
2323,1394,580,0,2274.0,2320.0,1373.0,1370.0,545.0,511.0
2428,1427,618,0,2323.0,2274.0,1394.0,1373.0,580.0,545.0
2532,1486,655,0,2428.0,2323.0,1427.0,1394.0,618.0,580.0
2636,1527,647,0,2532.0,2428.0,1486.0,1427.0,655.0,618.0
2735,1551,622,0,2636.0,2532.0,1527.0,1486.0,647.0,655.0
2830,1555,598,0,2735.0,2636.0,1551.0,1527.0,622.0,647.0
2923,1532,567,0,2830.0,2735.0,1555.0,1551.0,598.0,622.0
3005,1484,548,0,2923.0,2830.0,1532.0,1555.0,567.0,598.0
3090,1412,506,0,3005.0,2923.0,1484.0,1532.0,548.0,567.0
3177,1321,482,0,3090.0,3005.0,1412.0,1484.0,506.0,548.0
3267,1213,469,0,3177.0,3090.0,1321.0,1412.0,482.0,506.0
3351,1087,464,0,3267.0,3177.0,1213.0,1321.0,469.0,482.0
3408,935,462,0,3351.0,3267.0,1087.0,1213.0,464.0,469.0
3441,768,439,0,3408.0,3351.0,935.0,1087.0,462.0,464.0
3458,586,406,0,3441.0,3408.0,768.0,935.0,439.0,462.0
3478,392,376,0,3458.0,3441.0,586.0,768.0,406.0,439.0
3497,192,363,0,3478.0,3458.0,392.0,586.0,376.0,406.0
3522,-7,372,0,3497.0,3478.0,192.0,392.0,363.0,376.0
3545,-191,398,0,3522.0,3497.0,-7.0,192.0,372.0,363.0
3576,-341,426,0,3545.0,3522.0,-191.0,-7.0,398.0,372.0
3595,-418,470,0,3576.0,3545.0,-341.0,-191.0,426.0,398.0
3605,-418,530,0,3595.0,3576.0,-418.0,-341.0,470.0,426.0
3608,-343,570,0,3605.0,3595.0,-418.0,-418.0,530.0,470.0
3600,-195,611,0,3608.0,3605.0,-343.0,-418.0,570.0,530.0
3579,19,671,0,3600.0,3608.0,-195.0,-343.0,611.0,570.0
3556,264,736,0,3579.0,3600.0,19.0,-195.0,671.0,611.0
3533,503,807,0,3556.0,3579.0,264.0,19.0,736.0,671.0
3503,721,866,0,3533.0,3556.0,503.0,264.0,807.0,736.0
3475,918,907,0,3503.0,3533.0,721.0,503.0,866.0,807.0
3431,1089,915,0,3475.0,3503.0,918.0,721.0,907.0,866.0
3378,1198,879,0,3431.0,3475.0,1089.0,918.0,915.0,907.0
3305,1251,808,0,3378.0,3431.0,1198.0,1089.0,879.0,915.0
3233,1268,707,0,3305.0,3378.0,1251.0,1198.0,808.0,879.0
3180,1255,622,0,3233.0,3305.0,1268.0,1251.0,707.0,808.0
3152,1230,570,0,3180.0,3233.0,1255.0,1268.0,622.0,707.0
3150,1190,567,0,3152.0,3180.0,1230.0,1255.0,570.0,622.0
3160,1135,586,0,3150.0,3152.0,1190.0,1230.0,567.0,570.0
3174,1105,614,0,3160.0,3150.0,1135.0,1190.0,586.0,567.0
3197,1081,629,0,3174.0,3160.0,1105.0,1135.0,614.0,586.0
3220,1055,620,0,3197.0,3174.0,1081.0,1105.0,629.0,614.0
3239,1017,584,0,3220.0,3197.0,1055.0,1081.0,620.0,629.0
3269,971,538,0,3239.0,3220.0,1017.0,1055.0,584.0,620.0
3322,915,499,0,3269.0,3239.0,971.0,1017.0,538.0,584.0
3397,846,480,0,3322.0,3269.0,915.0,971.0,499.0,538.0
3492,784,484,0,3397.0,3322.0,846.0,915.0,480.0,499.0
3596,711,496,0,3492.0,3397.0,784.0,846.0,484.0,480.0
3714,649,509,0,3596.0,3492.0,711.0,784.0,496.0,484.0
3837,603,517,0,3714.0,3596.0,649.0,711.0,509.0,496.0
3949,585,521,0,3837.0,3714.0,603.0,649.0,517.0,509.0
4037,595,522,0,3949.0,3837.0,585.0,603.0,521.0,517.0
4103,632,531,0,4037.0,3949.0,595.0,585.0,522.0,521.0
4150,682,563,0,4103.0,4037.0,632.0,595.0,531.0,522.0
4183,743,628,0,4150.0,4103.0,682.0,632.0,563.0,531.0
4197,817,712,0,4183.0,4150.0,743.0,682.0,628.0,563.0
4183,898,832,0,4197.0,4183.0,817.0,743.0,712.0,628.0
4155,983,1031,0,4183.0,4197.0,898.0,817.0,832.0,712.0
4112,1047,1253,0,4155.0,4183.0,983.0,898.0,1031.0,832.0
4043,1084,1414,0,4112.0,4155.0,1047.0,983.0,1253.0,1031.0
3964,1084,1455,0,4043.0,4112.0,1084.0,1047.0,1414.0,1253.0
3895,1033,1410,0,3964.0,4043.0,1084.0,1084.0,1455.0,1414.0
3848,984,1288,0,3895.0,3964.0,1033.0,1084.0,1410.0,1455.0
3842,945,1123,0,3848.0,3895.0,984.0,1033.0,1288.0,1410.0
3876,935,973,0,3842.0,3848.0,945.0,984.0,1123.0,1288.0
3949,972,883,0,3876.0,3842.0,935.0,945.0,973.0,1123.0
4025,1027,837,0,3949.0,3876.0,972.0,935.0,883.0,973.0
4066,1094,783,0,4025.0,3949.0,1027.0,972.0,837.0,883.0
4067,1139,683,0,4066.0,4025.0,1094.0,1027.0,783.0,837.0
3996,1141,505,0,4067.0,4066.0,1139.0,1094.0,683.0,783.0
3875,1115,314,0,3996.0,4067.0,1141.0,1139.0,505.0,683.0
3807,1085,226,0,3875.0,3996.0,1115.0,1141.0,314.0,505.0
3862,1044,266,0,3807.0,3875.0,1085.0,1115.0,226.0,314.0
4019,975,385,0,3862.0,3807.0,1044.0,1085.0,266.0,226.0
4230,912,515,0,4019.0,3862.0,975.0,1044.0,385.0,266.0
4410,880,570,0,4230.0,4019.0,912.0,975.0,515.0,385.0
4506,860,508,0,4410.0,4230.0,880.0,912.0,570.0,515.0
4511,811,362,0,4506.0,4410.0,860.0,880.0,508.0,570.0
4466,738,195,0,4511.0,4506.0,811.0,860.0,362.0,508.0
4394,656,105,0,4466.0,4511.0,738.0,811.0,195.0,362.0
4327,586,133,0,4394.0,4466.0,656.0,738.0,105.0,195.0
4275,526,237,0,4327.0,4394.0,586.0,656.0,133.0,105.0
4240,457,381,0,4275.0,4327.0,526.0,586.0,237.0,133.0
4180,389,537,0,4240.0,4275.0,457.0,526.0,381.0,237.0
4116,285,664,0,4180.0,4240.0,389.0,457.0,537.0,381.0
4044,152,770,0,4116.0,4180.0,285.0,389.0,664.0,537.0
3995,39,895,0,4044.0,4116.0,152.0,285.0,770.0,664.0
4010,-38,1039,0,3995.0,4044.0,39.0,152.0,895.0,770.0
4085,-88,1151,0,4010.0,3995.0,-38.0,39.0,1039.0,895.0
4225,-116,1215,0,4085.0,4010.0,-88.0,-38.0,1151.0,1039.0
4441,-176,1222,0,4225.0,4085.0,-116.0,-88.0,1215.0,1151.0
4737,-267,1214,0,4441.0,4225.0,-176.0,-116.0,1222.0,1215.0
5102,-377,1227,0,4737.0,4441.0,-267.0,-176.0,1214.0,1222.0
5518,-504,1194,0,5102.0,4737.0,-377.0,-267.0,1227.0,1214.0
5930,-621,1134,0,5518.0,5102.0,-504.0,-377.0,1194.0,1227.0
6314,-669,1094,0,5930.0,5518.0,-621.0,-504.0,1134.0,1194.0
6620,-685,1043,0,6314.0,5930.0,-669.0,-621.0,1094.0,1134.0
6835,-680,984,0,6620.0,6314.0,-685.0,-669.0,1043.0,1094.0
6950,-684,937,0,6835.0,6620.0,-680.0,-685.0,984.0,1043.0
6943,-704,900,0,6950.0,6835.0,-684.0,-680.0,937.0,984.0
6780,-712,902,0,6943.0,6950.0,-704.0,-684.0,900.0,937.0
6481,-679,943,0,6780.0,6943.0,-712.0,-704.0,902.0,900.0
6078,-586,1006,0,6481.0,6780.0,-679.0,-712.0,943.0,902.0
5632,-427,1082,0,6078.0,6481.0,-586.0,-679.0,1006.0,943.0
5191,-208,1097,0,5632.0,6078.0,-427.0,-586.0,1082.0,1006.0
4821,44,1062,0,5191.0,5632.0,-208.0,-427.0,1097.0,1082.0
4550,321,1012,0,4821.0,5191.0,44.0,-208.0,1062.0,1097.0
4388,620,985,0,4550.0,4821.0,321.0,44.0,1012.0,1062.0
4332,935,985,0,4388.0,4550.0,620.0,321.0,985.0,1012.0
4333,1230,1008,0,4332.0,4388.0,935.0,620.0,985.0,985.0
4383,1463,1035,0,4333.0,4332.0,1230.0,935.0,1008.0,985.0
4428,1621,1059,0,4383.0,4333.0,1463.0,1230.0,1035.0,1008.0
4446,1706,1074,0,4428.0,4383.0,1621.0,1463.0,1059.0,1035.0
4425,1720,1067,0,4446.0,4428.0,1706.0,1621.0,1074.0,1059.0
4366,1687,1041,0,4425.0,4446.0,1720.0,1706.0,1067.0,1074.0
4277,1627,999,0,4366.0,4425.0,1687.0,1720.0,1041.0,1067.0
4189,1543,951,0,4277.0,4366.0,1627.0,1687.0,999.0,1041.0
4111,1437,888,0,4189.0,4277.0,1543.0,1627.0,951.0,999.0
4045,1326,836,0,4111.0,4189.0,1437.0,1543.0,888.0,951.0
3977,1250,807,0,4045.0,4111.0,1326.0,1437.0,836.0,888.0
3912,1200,804,0,3977.0,4045.0,1250.0,1326.0,807.0,836.0
3843,1185,813,0,3912.0,3977.0,1200.0,1250.0,804.0,807.0
3767,1187,832,0,3843.0,3912.0,1185.0,1200.0,813.0,804.0
3689,1195,850,0,3767.0,3843.0,1187.0,1185.0,832.0,813.0
3594,1216,863,0,3689.0,3767.0,1195.0,1187.0,850.0,832.0
3481,1233,884,0,3594.0,3689.0,1216.0,1195.0,863.0,850.0
3377,1225,907,0,3481.0,3594.0,1233.0,1216.0,884.0,863.0
3275,1207,913,0,3377.0,3481.0,1225.0,1233.0,907.0,884.0
3178,1171,896,0,3275.0,3377.0,1207.0,1225.0,913.0,907.0
3077,1125,863,0,3178.0,3275.0,1171.0,1207.0,896.0,913.0
2970,1073,816,0,3077.0,3178.0,1125.0,1171.0,863.0,896.0
2860,1006,779,0,2970.0,3077.0,1073.0,1125.0,816.0,863.0
2774,927,745,0,2860.0,2970.0,1006.0,1073.0,779.0,816.0
2696,866,730,0,2774.0,2860.0,927.0,1006.0,745.0,779.0
2656,838,723,0,2696.0,2774.0,866.0,927.0,730.0,745.0
2645,832,697,0,2656.0,2696.0,838.0,866.0,723.0,730.0
2637,836,662,0,2645.0,2656.0,832.0,838.0,697.0,723.0
2625,855,618,0,2637.0,2645.0,836.0,832.0,662.0,697.0
2605,895,586,0,2625.0,2637.0,855.0,836.0,618.0,662.0
2564,960,567,0,2605.0,2625.0,895.0,855.0,586.0,618.0
2474,1049,559,0,2564.0,2605.0,960.0,895.0,567.0,586.0
2361,1139,569,0,2474.0,2564.0,1049.0,960.0,559.0,567.0
2236,1210,585,0,2361.0,2474.0,1139.0,1049.0,569.0,559.0
2108,1262,603,0,2236.0,2361.0,1210.0,1139.0,585.0,569.0
1979,1288,603,0,2108.0,2236.0,1262.0,1210.0,603.0,585.0
1854,1294,573,0,1979.0,2108.0,1288.0,1262.0,603.0,603.0
1742,1288,498,0,1854.0,1979.0,1294.0,1288.0,573.0,603.0
1649,1275,435,0,1742.0,1854.0,1288.0,1294.0,498.0,573.0
1552,1248,394,0,1649.0,1742.0,1275.0,1288.0,435.0,498.0
1437,1213,374,0,1552.0,1649.0,1248.0,1275.0,394.0,435.0
1309,1170,383,0,1437.0,1552.0,1213.0,1248.0,374.0,394.0
1188,1124,405,0,1309.0,1437.0,1170.0,1213.0,383.0,374.0
1092,1063,436,0,1188.0,1309.0,1124.0,1170.0,405.0,383.0
1023,999,472,0,1092.0,1188.0,1063.0,1124.0,436.0,405.0
985,956,512,0,1023.0,1092.0,999.0,1063.0,472.0,436.0
982,936,559,0,985.0,1023.0,956.0,999.0,512.0,472.0
1002,935,602,0,982.0,985.0,936.0,956.0,559.0,512.0
1032,941,622,0,1002.0,982.0,935.0,936.0,602.0,559.0
1071,957,617,0,1032.0,1002.0,941.0,935.0,622.0,602.0
1112,981,587,0,1071.0,1032.0,957.0,941.0,617.0,622.0
1162,986,539,0,1112.0,1071.0,981.0,957.0,587.0,617.0
1208,983,502,0,1162.0,1112.0,986.0,981.0,539.0,587.0
1254,950,480,0,1208.0,1162.0,983.0,986.0,502.0,539.0
1314,882,485,0,1254.0,1208.0,950.0,983.0,480.0,502.0
1389,790,516,0,1314.0,1254.0,882.0,950.0,485.0,480.0
1473,680,566,0,1389.0,1314.0,790.0,882.0,516.0,485.0
1568,568,631,0,1473.0,1389.0,680.0,790.0,566.0,516.0
1673,488,689,0,1568.0,1473.0,568.0,680.0,631.0,566.0
1792,444,751,0,1673.0,1568.0,488.0,568.0,689.0,631.0
1934,438,806,0,1792.0,1673.0,444.0,488.0,751.0,689.0
2110,466,847,0,1934.0,1792.0,438.0,444.0,806.0,751.0
2327,520,886,0,2110.0,1934.0,466.0,438.0,847.0,806.0
2577,593,923,0,2327.0,2110.0,520.0,466.0,886.0,847.0
2855,670,969,0,2577.0,2327.0,593.0,520.0,923.0,886.0
3143,750,1022,0,2855.0,2577.0,670.0,593.0,969.0,923.0
3428,831,1063,0,3143.0,2855.0,750.0,670.0,1022.0,969.0
3692,913,1097,0,3428.0,3143.0,831.0,750.0,1063.0,1022.0
3897,997,1120,0,3692.0,3428.0,913.0,831.0,1097.0,1063.0
4065,1069,1090,0,3897.0,3692.0,997.0,913.0,1120.0,1097.0
4174,1130,1051,0,4065.0,3897.0,1069.0,997.0,1090.0,1120.0
4220,1187,1007,0,4174.0,4065.0,1130.0,1069.0,1051.0,1090.0
4218,1210,950,0,4220.0,4174.0,1187.0,1130.0,1007.0,1051.0
4167,1235,917,0,4218.0,4220.0,1210.0,1187.0,950.0,1007.0
4073,1242,918,0,4167.0,4218.0,1235.0,1210.0,917.0,950.0
3957,1209,908,0,4073.0,4167.0,1242.0,1235.0,918.0,917.0
3838,1150,897,0,3957.0,4073.0,1209.0,1242.0,908.0,918.0
3713,1081,906,0,3838.0,3957.0,1150.0,1209.0,897.0,908.0
3567,1022,928,0,3713.0,3838.0,1081.0,1150.0,906.0,897.0
3424,948,912,0,3567.0,3713.0,1022.0,1081.0,928.0,906.0
3298,865,900,0,3424.0,3567.0,948.0,1022.0,912.0,928.0
3190,769,917,0,3298.0,3424.0,865.0,948.0,900.0,912.0
3108,672,966,0,3190.0,3298.0,769.0,865.0,917.0,900.0
3060,601,1074,0,3108.0,3190.0,672.0,769.0,966.0,917.0
3058,532,1225,0,3060.0,3108.0,601.0,672.0,1074.0,966.0
3100,427,1331,0,3058.0,3060.0,532.0,601.0,1225.0,1074.0
3212,269,1371,0,3100.0,3058.0,427.0,532.0,1331.0,1225.0
3419,114,1400,0,3212.0,3100.0,269.0,427.0,1371.0,1331.0
3720,37,1530,0,3419.0,3212.0,114.0,269.0,1400.0,1371.0
4117,32,1775,0,3720.0,3419.0,37.0,114.0,1530.0,1400.0
4632,3,2010,0,4117.0,3720.0,32.0,37.0,1775.0,1530.0
5266,-136,2044,0,4632.0,4117.0,3.0,32.0,2010.0,1775.0
5968,-371,1799,0,5266.0,4632.0,-136.0,3.0,2044.0,2010.0
6611,-577,1369,0,5968.0,5266.0,-371.0,-136.0,1799.0,2044.0
7084,-606,950,0,6611.0,5968.0,-577.0,-371.0,1369.0,1799.0
7283,-410,637,0,7084.0,6611.0,-606.0,-577.0,950.0,1369.0
7191,-122,437,0,7283.0,7084.0,-410.0,-606.0,637.0,950.0
6843,78,333,0,7191.0,7283.0,-122.0,-410.0,437.0,637.0
6298,85,254,0,6843.0,7191.0,78.0,-122.0,333.0,437.0
5601,-63,121,0,6298.0,6843.0,85.0,78.0,254.0,333.0
4833,-220,13,0,5601.0,6298.0,-63.0,85.0,121.0,254.0
4124,-339,53,0,4833.0,5601.0,-220.0,-63.0,13.0,121.0
3569,-408,264,0,4124.0,4833.0,-339.0,-220.0,53.0,13.0
3150,-387,375,0,3569.0,4124.0,-408.0,-339.0,264.0,53.0
2760,-170,308,0,3150.0,3569.0,-387.0,-408.0,375.0,264.0
2432,161,210,0,2760.0,3150.0,-170.0,-387.0,308.0,375.0
2328,382,142,0,2432.0,2760.0,161.0,-170.0,210.0,308.0
2533,403,138,0,2328.0,2432.0,382.0,161.0,142.0,210.0
2964,421,172,0,2533.0,2328.0,403.0,382.0,138.0,142.0
3540,599,218,0,2964.0,2533.0,421.0,403.0,172.0,138.0
4242,875,278,0,3540.0,2964.0,599.0,421.0,218.0,172.0
5027,1148,329,0,4242.0,3540.0,875.0,599.0,278.0,218.0
5768,1381,270,0,5027.0,4242.0,1148.0,875.0,329.0,278.0
6378,1587,157,0,5768.0,5027.0,1381.0,1148.0,270.0,329.0
6822,1741,102,0,6378.0,5768.0,1587.0,1381.0,157.0,270.0
7066,1799,151,0,6822.0,6378.0,1741.0,1587.0,102.0,157.0
7087,1774,285,0,7066.0,6822.0,1799.0,1741.0,151.0,102.0
6859,1729,428,0,7087.0,7066.0,1774.0,1799.0,285.0,151.0
6454,1700,551,0,6859.0,7087.0,1729.0,1774.0,428.0,285.0
5988,1667,672,0,6454.0,6859.0,1700.0,1729.0,551.0,428.0
5576,1625,793,0,5988.0,6454.0,1667.0,1700.0,672.0,551.0
5293,1587,882,0,5576.0,5988.0,1625.0,1667.0,793.0,672.0
5165,1562,925,0,5293.0,5576.0,1587.0,1625.0,882.0,793.0
5167,1598,918,0,5165.0,5293.0,1562.0,1587.0,925.0,882.0
5277,1697,892,0,5167.0,5165.0,1598.0,1562.0,918.0,925.0
5458,1802,872,0,5277.0,5167.0,1697.0,1598.0,892.0,918.0
5662,1857,854,0,5458.0,5277.0,1802.0,1697.0,872.0,892.0
5832,1848,839,0,5662.0,5458.0,1857.0,1802.0,854.0,872.0
5930,1784,850,0,5832.0,5662.0,1848.0,1857.0,839.0,854.0
5935,1687,856,0,5930.0,5832.0,1784.0,1848.0,850.0,839.0
5834,1584,843,0,5935.0,5930.0,1687.0,1784.0,856.0,850.0
5636,1488,809,0,5834.0,5935.0,1584.0,1687.0,843.0,856.0
5359,1409,747,0,5636.0,5834.0,1488.0,1584.0,809.0,843.0
5036,1351,652,0,5359.0,5636.0,1409.0,1488.0,747.0,809.0
4706,1315,554,0,5036.0,5359.0,1351.0,1409.0,652.0,747.0
4417,1305,466,0,4706.0,5036.0,1315.0,1351.0,554.0,652.0
4192,1315,401,0,4417.0,4706.0,1305.0,1315.0,466.0,554.0
4020,1343,358,0,4192.0,4417.0,1315.0,1305.0,401.0,466.0
3878,1379,335,0,4020.0,4192.0,1343.0,1315.0,358.0,401.0
3759,1407,314,0,3878.0,4020.0,1379.0,1343.0,335.0,358.0
3652,1408,303,0,3759.0,3878.0,1407.0,1379.0,314.0,335.0
3553,1388,294,0,3652.0,3759.0,1408.0,1407.0,303.0,314.0
3455,1329,291,0,3553.0,3652.0,1388.0,1408.0,294.0,303.0
3357,1240,291,0,3455.0,3553.0,1329.0,1388.0,291.0,294.0
3261,1127,284,0,3357.0,3455.0,1240.0,1329.0,291.0,291.0
3166,1010,268,0,3261.0,3357.0,1127.0,1240.0,284.0,291.0
3090,898,250,0,3166.0,3261.0,1010.0,1127.0,268.0,284.0
3026,820,256,0,3090.0,3166.0,898.0,1010.0,250.0,268.0
2964,775,262,0,3026.0,3090.0,820.0,898.0,256.0,250.0
2921,764,254,0,2964.0,3026.0,775.0,820.0,262.0,256.0
2891,773,264,0,2921.0,2964.0,764.0,775.0,254.0,262.0
2874,802,299,0,2891.0,2921.0,773.0,764.0,264.0,254.0
2875,842,357,0,2874.0,2891.0,802.0,773.0,299.0,264.0
2886,889,432,0,2875.0,2874.0,842.0,802.0,357.0,299.0
2894,938,520,0,2886.0,2875.0,889.0,842.0,432.0,357.0
2905,971,576,0,2894.0,2886.0,938.0,889.0,520.0,432.0
2895,1007,639,0,2905.0,2894.0,971.0,938.0,576.0,520.0
2877,1039,698,0,2895.0,2905.0,1007.0,971.0,639.0,576.0
2852,1050,740,0,2877.0,2895.0,1039.0,1007.0,698.0,639.0
2820,1044,758,0,2852.0,2877.0,1050.0,1039.0,740.0,698.0
2769,1048,750,0,2820.0,2852.0,1044.0,1050.0,758.0,740.0
2699,1064,723,0,2769.0,2820.0,1048.0,1044.0,750.0,758.0
2616,1078,703,0,2699.0,2769.0,1064.0,1048.0,723.0,750.0
2545,1061,682,0,2616.0,2699.0,1078.0,1064.0,703.0,723.0
2477,1026,653,0,2545.0,2616.0,1061.0,1078.0,682.0,703.0
2405,1001,616,0,2477.0,2545.0,1026.0,1061.0,653.0,682.0
2335,986,581,0,2405.0,2477.0,1001.0,1026.0,616.0,653.0
2271,967,556,0,2335.0,2405.0,986.0,1001.0,581.0,616.0
2200,956,552,0,2271.0,2335.0,967.0,986.0,556.0,581.0
2123,961,556,0,2200.0,2271.0,956.0,967.0,552.0,556.0
2030,972,547,0,2123.0,2200.0,961.0,956.0,556.0,552.0
1930,971,525,0,2030.0,2123.0,972.0,961.0,547.0,556.0
1830,971,493,0,1930.0,2030.0,971.0,972.0,525.0,547.0
1743,981,455,0,1830.0,1930.0,971.0,971.0,493.0,525.0
1692,1008,432,0,1743.0,1830.0,981.0,971.0,455.0,493.0
1688,1046,445,0,1692.0,1743.0,1008.0,981.0,432.0,455.0
1732,1098,516,0,1688.0,1692.0,1046.0,1008.0,445.0,432.0
1812,1171,609,0,1732.0,1688.0,1098.0,1046.0,516.0,445.0
1922,1245,676,0,1812.0,1732.0,1171.0,1098.0,609.0,516.0
2063,1315,711,0,1922.0,1812.0,1245.0,1171.0,676.0,609.0
2236,1368,715,0,2063.0,1922.0,1315.0,1245.0,711.0,676.0
2433,1417,683,0,2236.0,2063.0,1368.0,1315.0,715.0,711.0
2625,1473,633,0,2433.0,2236.0,1417.0,1368.0,683.0,715.0
2811,1529,593,0,2625.0,2433.0,1473.0,1417.0,633.0,683.0
2981,1580,586,0,2811.0,2625.0,1529.0,1473.0,593.0,633.0
3107,1613,599,0,2981.0,2811.0,1580.0,1529.0,586.0,593.0
3177,1616,595,0,3107.0,2981.0,1613.0,1580.0,599.0,586.0
3197,1596,558,0,3177.0,3107.0,1616.0,1613.0,595.0,599.0
3131,1576,469,0,3197.0,3177.0,1596.0,1616.0,558.0,595.0
3018,1560,324,0,3131.0,3197.0,1576.0,1596.0,469.0,558.0
2891,1558,219,0,3018.0,3131.0,1560.0,1576.0,324.0,469.0
2766,1532,129,0,2891.0,3018.0,1558.0,1560.0,219.0,324.0
2641,1479,35,0,2766.0,2891.0,1532.0,1558.0,129.0,219.0
2530,1415,-1,0,2641.0,2766.0,1479.0,1532.0,35.0,129.0
2468,1313,33,0,2530.0,2641.0,1415.0,1479.0,-1.0,35.0
2459,1179,126,0,2468.0,2530.0,1313.0,1415.0,33.0,-1.0
2499,1035,269,0,2459.0,2468.0,1179.0,1313.0,126.0,33.0
2578,898,456,0,2499.0,2459.0,1035.0,1179.0,269.0,126.0
2698,753,654,0,2578.0,2499.0,898.0,1035.0,456.0,269.0
2869,585,835,0,2698.0,2578.0,753.0,898.0,654.0,456.0
3104,383,963,0,2869.0,2698.0,585.0,753.0,835.0,654.0
3405,189,1038,0,3104.0,2869.0,383.0,585.0,963.0,835.0
3775,26,1065,0,3405.0,3104.0,189.0,383.0,1038.0,963.0
4235,-92,1078,0,3775.0,3405.0,26.0,189.0,1065.0,1038.0
4777,-146,1099,0,4235.0,3775.0,-92.0,26.0,1078.0,1065.0
5384,-129,1127,0,4777.0,4235.0,-146.0,-92.0,1099.0,1078.0
6000,-51,1190,0,5384.0,4777.0,-129.0,-146.0,1127.0,1099.0
6585,88,1263,0,6000.0,5384.0,-51.0,-129.0,1190.0,1127.0
7096,280,1357,0,6585.0,6000.0,88.0,-51.0,1263.0,1190.0
7482,511,1480,0,7096.0,6585.0,280.0,88.0,1357.0,1263.0
7683,749,1640,0,7482.0,7096.0,511.0,280.0,1480.0,1357.0
7680,897,1739,0,7683.0,7482.0,749.0,511.0,1640.0,1480.0
7493,957,1762,0,7680.0,7683.0,897.0,749.0,1739.0,1640.0
7172,963,1732,0,7493.0,7680.0,957.0,897.0,1762.0,1739.0
6806,936,1715,0,7172.0,7493.0,963.0,957.0,1732.0,1762.0
6455,914,1719,0,6806.0,7172.0,936.0,963.0,1715.0,1732.0
6138,904,1757,0,6455.0,6806.0,914.0,936.0,1719.0,1715.0
5882,900,1765,0,6138.0,6455.0,904.0,914.0,1757.0,1719.0
5754,928,1751,0,5882.0,6138.0,900.0,904.0,1765.0,1757.0
5688,1017,1791,0,5754.0,5882.0,928.0,900.0,1751.0,1765.0
5670,1094,1828,0,5688.0,5754.0,1017.0,928.0,1791.0,1751.0
5695,1128,1865,0,5670.0,5688.0,1094.0,1017.0,1828.0,1791.0
5762,1143,1934,0,5695.0,5670.0,1128.0,1094.0,1865.0,1828.0
5824,1153,2035,0,5762.0,5695.0,1143.0,1128.0,1934.0,1865.0
5877,1155,2143,0,5824.0,5762.0,1153.0,1143.0,2035.0,1934.0
5931,1144,2231,0,5877.0,5824.0,1155.0,1153.0,2143.0,2035.0
5977,1145,2300,0,5931.0,5877.0,1144.0,1155.0,2231.0,2143.0
6018,1174,2325,0,5977.0,5931.0,1145.0,1144.0,2300.0,2231.0
6069,1257,2299,0,6018.0,5977.0,1174.0,1145.0,2325.0,2300.0
6126,1397,2242,0,6069.0,6018.0,1257.0,1174.0,2299.0,2325.0
6183,1574,2189,0,6126.0,6069.0,1397.0,1257.0,2242.0,2299.0
6243,1772,2137,0,6183.0,6126.0,1574.0,1397.0,2189.0,2242.0
6276,1975,2092,0,6243.0,6183.0,1772.0,1574.0,2137.0,2189.0
6249,2140,2027,0,6276.0,6243.0,1975.0,1772.0,2092.0,2137.0
6155,2254,1924,0,6249.0,6276.0,2140.0,1975.0,2027.0,2092.0
5982,2343,1793,0,6155.0,6249.0,2254.0,2140.0,1924.0,2027.0
5733,2397,1653,0,5982.0,6155.0,2343.0,2254.0,1793.0,1924.0
5441,2415,1524,0,5733.0,5982.0,2397.0,2343.0,1653.0,1793.0
5123,2389,1433,0,5441.0,5733.0,2415.0,2397.0,1524.0,1653.0
4802,2351,1358,0,5123.0,5441.0,2389.0,2415.0,1433.0,1524.0
4493,2303,1291,0,4802.0,5123.0,2351.0,2389.0,1358.0,1433.0
4216,2249,1217,0,4493.0,4802.0,2303.0,2351.0,1291.0,1358.0
3970,2164,1135,0,4216.0,4493.0,2249.0,2303.0,1217.0,1291.0
3776,2073,1056,0,3970.0,4216.0,2164.0,2249.0,1135.0,1217.0
3607,1984,976,0,3776.0,3970.0,2073.0,2164.0,1056.0,1135.0
3460,1892,905,0,3607.0,3776.0,1984.0,2073.0,976.0,1056.0
3329,1799,859,0,3460.0,3607.0,1892.0,1984.0,905.0,976.0
3197,1700,835,0,3329.0,3460.0,1799.0,1892.0,859.0,905.0
3073,1582,850,0,3197.0,3329.0,1700.0,1799.0,835.0,859.0
2947,1452,890,0,3073.0,3197.0,1582.0,1700.0,850.0,835.0
2818,1322,944,0,2947.0,3073.0,1452.0,1582.0,890.0,850.0
2688,1188,1008,0,2818.0,2947.0,1322.0,1452.0,944.0,890.0
2561,1043,1104,0,2688.0,2818.0,1188.0,1322.0,1008.0,944.0
2433,900,1209,0,2561.0,2688.0,1043.0,1188.0,1104.0,1008.0
2306,773,1310,0,2433.0,2561.0,900.0,1043.0,1209.0,1104.0
2183,663,1382,0,2306.0,2433.0,773.0,900.0,1310.0,1209.0
2063,565,1414,0,2183.0,2306.0,663.0,773.0,1382.0,1310.0
1946,491,1389,0,2063.0,2183.0,565.0,663.0,1414.0,1382.0
1834,441,1328,0,1946.0,2063.0,491.0,565.0,1389.0,1414.0
1739,407,1247,0,1834.0,1946.0,441.0,491.0,1328.0,1389.0
1663,402,1167,0,1739.0,1834.0,407.0,441.0,1247.0,1328.0
1619,423,1103,0,1663.0,1739.0,402.0,407.0,1167.0,1247.0
1606,453,1046,0,1619.0,1663.0,423.0,402.0,1103.0,1167.0
1613,487,994,0,1606.0,1619.0,453.0,423.0,1046.0,1103.0
1640,522,939,0,1613.0,1606.0,487.0,453.0,994.0,1046.0
1692,567,890,0,1640.0,1613.0,522.0,487.0,939.0,994.0
1757,610,847,0,1692.0,1640.0,567.0,522.0,890.0,939.0
1829,661,795,0,1757.0,1692.0,610.0,567.0,847.0,890.0
1906,713,738,0,1829.0,1757.0,661.0,610.0,795.0,847.0
1976,771,690,0,1906.0,1829.0,713.0,661.0,738.0,795.0
2039,823,647,0,1976.0,1906.0,771.0,713.0,690.0,738.0
2093,865,623,0,2039.0,1976.0,823.0,771.0,647.0,690.0
2130,898,592,0,2093.0,2039.0,865.0,823.0,623.0,647.0
2147,926,573,0,2130.0,2093.0,898.0,865.0,592.0,623.0
2147,938,565,0,2147.0,2130.0,926.0,898.0,573.0,592.0
2137,942,566,0,2147.0,2147.0,938.0,926.0,565.0,573.0
2113,929,578,0,2137.0,2147.0,942.0,938.0,566.0,565.0
2073,891,592,0,2113.0,2137.0,929.0,942.0,578.0,566.0
2015,821,602,0,2073.0,2113.0,891.0,929.0,592.0,578.0
1944,724,598,0,2015.0,2073.0,821.0,891.0,602.0,592.0
1863,611,575,0,1944.0,2015.0,724.0,821.0,598.0,602.0
1786,506,545,0,1863.0,1944.0,611.0,724.0,575.0,598.0
1726,403,523,0,1786.0,1863.0,506.0,611.0,545.0,575.0
1694,303,524,0,1726.0,1786.0,403.0,506.0,523.0,545.0
1680,215,542,0,1694.0,1726.0,303.0,403.0,524.0,523.0
1695,126,570,0,1680.0,1694.0,215.0,303.0,542.0,524.0
1731,52,621,0,1695.0,1680.0,126.0,215.0,570.0,542.0
1807,-8,667,0,1731.0,1695.0,52.0,126.0,621.0,570.0
1905,-10,729,0,1807.0,1731.0,-8.0,52.0,667.0,621.0
2017,47,802,0,1905.0,1807.0,-10.0,-8.0,729.0,667.0
2149,146,888,0,2017.0,1905.0,47.0,-10.0,802.0,729.0
2294,267,956,0,2149.0,2017.0,146.0,47.0,888.0,802.0
2466,389,994,0,2294.0,2149.0,267.0,146.0,956.0,888.0
2666,502,975,0,2466.0,2294.0,389.0,267.0,994.0,956.0
2886,605,950,0,2666.0,2466.0,502.0,389.0,975.0,994.0
3100,691,897,0,2886.0,2666.0,605.0,502.0,950.0,975.0
3285,740,822,0,3100.0,2886.0,691.0,605.0,897.0,950.0
3408,747,763,0,3285.0,3100.0,740.0,691.0,822.0,897.0
3464,733,727,0,3408.0,3285.0,747.0,740.0,763.0,822.0
3464,695,692,0,3464.0,3408.0,733.0,747.0,727.0,763.0
3427,645,655,0,3464.0,3464.0,695.0,733.0,692.0,727.0
3381,589,622,0,3427.0,3464.0,645.0,695.0,655.0,692.0
3334,549,602,0,3381.0,3427.0,589.0,645.0,622.0,655.0
3277,530,607,0,3334.0,3381.0,549.0,589.0,602.0,622.0
3222,541,639,0,3277.0,3334.0,530.0,549.0,607.0,602.0
3148,582,698,0,3222.0,3277.0,541.0,530.0,639.0,607.0
3063,640,774,0,3148.0,3222.0,582.0,541.0,698.0,639.0
2990,698,909,0,3063.0,3148.0,640.0,582.0,774.0,698.0
2921,719,1055,0,2990.0,3063.0,698.0,640.0,909.0,774.0
2823,702,1123,0,2921.0,2990.0,719.0,698.0,1055.0,909.0
2681,686,1134,0,2823.0,2921.0,702.0,719.0,1123.0,1055.0
2525,649,1142,0,2681.0,2823.0,686.0,702.0,1134.0,1123.0
2442,579,1148,0,2525.0,2681.0,649.0,686.0,1142.0,1134.0
2497,532,1222,0,2442.0,2525.0,579.0,649.0,1148.0,1142.0
2709,498,1422,0,2497.0,2442.0,532.0,579.0,1222.0,1148.0
3098,364,1691,0,2709.0,2497.0,498.0,532.0,1422.0,1222.0
3614,95,1873,0,3098.0,2709.0,364.0,498.0,1691.0,1422.0
4212,-250,1877,0,3614.0,3098.0,95.0,364.0,1873.0,1691.0
4873,-557,1687,0,4212.0,3614.0,-250.0,95.0,1877.0,1873.0
5592,-711,1408,0,4873.0,4212.0,-557.0,-250.0,1687.0,1877.0
6345,-676,1166,0,5592.0,4873.0,-711.0,-557.0,1408.0,1687.0
7042,-533,936,0,6345.0,5592.0,-676.0,-711.0,1166.0,1408.0
7579,-439,695,0,7042.0,6345.0,-533.0,-676.0,936.0,1166.0
7831,-454,509,0,7579.0,7042.0,-439.0,-533.0,695.0,936.0
7662,-577,359,0,7831.0,7579.0,-454.0,-439.0,509.0,695.0
7063,-750,288,0,7662.0,7831.0,-577.0,-454.0,359.0,509.0
6191,-916,360,0,7063.0,7662.0,-750.0,-577.0,288.0,359.0
5226,-1024,446,0,6191.0,7063.0,-916.0,-750.0,360.0,288.0
4287,-903,361,0,5226.0,6191.0,-1024.0,-916.0,446.0,360.0
3443,-485,164,0,4287.0,5226.0,-903.0,-1024.0,361.0,446.0
2930,-65,10,0,3443.0,4287.0,-485.0,-903.0,164.0,361.0
2895,114,-56,0,2930.0,3443.0,-65.0,-485.0,10.0,164.0
3251,265,3,0,2895.0,2930.0,114.0,-65.0,-56.0,10.0
3851,657,169,0,3251.0,2895.0,265.0,114.0,3.0,-56.0
4595,1222,431,0,3851.0,3251.0,657.0,265.0,169.0,3.0
5347,1749,733,0,4595.0,3851.0,1222.0,657.0,431.0,169.0
5946,2123,919,0,5347.0,4595.0,1749.0,1222.0,733.0,431.0
6246,2423,901,0,5946.0,5347.0,2123.0,1749.0,919.0,733.0
6276,2673,804,0,6246.0,5946.0,2423.0,2123.0,901.0,919.0
6162,2854,820,0,6276.0,6246.0,2673.0,2423.0,804.0,901.0
6002,2888,949,0,6162.0,6276.0,2854.0,2673.0,820.0,804.0
5865,2810,1097,0,6002.0,6162.0,2888.0,2854.0,949.0,820.0
5803,2719,1221,0,5865.0,6002.0,2810.0,2888.0,1097.0,949.0
5863,2643,1305,0,5803.0,5865.0,2719.0,2810.0,1221.0,1097.0
6047,2595,1357,0,5863.0,5803.0,2643.0,2719.0,1305.0,1221.0
6341,2579,1346,0,6047.0,5863.0,2595.0,2643.0,1357.0,1305.0
6680,2585,1218,0,6341.0,6047.0,2579.0,2595.0,1346.0,1357.0
6964,2611,987,0,6680.0,6341.0,2585.0,2579.0,1218.0,1346.0
7115,2617,699,0,6964.0,6680.0,2611.0,2585.0,987.0,1218.0
7064,2621,481,0,7115.0,6964.0,2617.0,2611.0,699.0,987.0
6830,2610,367,0,7064.0,7115.0,2621.0,2617.0,481.0,699.0
6478,2550,392,0,6830.0,7064.0,2610.0,2621.0,367.0,481.0
6048,2439,517,0,6478.0,6830.0,2550.0,2610.0,392.0,367.0
5586,2324,667,0,6048.0,6478.0,2439.0,2550.0,517.0,392.0
5147,2223,796,0,5586.0,6048.0,2324.0,2439.0,667.0,517.0
4769,2155,900,0,5147.0,5586.0,2223.0,2324.0,796.0,667.0
4475,2111,967,0,4769.0,5147.0,2155.0,2223.0,900.0,796.0
4286,2076,1006,0,4475.0,4769.0,2111.0,2155.0,967.0,900.0
4165,2078,1040,0,4286.0,4475.0,2076.0,2111.0,1006.0,967.0
4109,2078,1075,0,4165.0,4286.0,2078.0,2076.0,1040.0,1006.0
4086,2059,1087,0,4109.0,4165.0,2078.0,2078.0,1075.0,1040.0
4066,2000,1076,0,4086.0,4109.0,2059.0,2078.0,1087.0,1075.0
4055,1887,1014,0,4066.0,4086.0,2000.0,2059.0,1076.0,1087.0
4030,1738,930,0,4055.0,4066.0,1887.0,2000.0,1014.0,1076.0
3994,1578,856,0,4030.0,4055.0,1738.0,1887.0,930.0,1014.0
3948,1419,786,0,3994.0,4030.0,1578.0,1738.0,856.0,930.0
3888,1263,701,0,3948.0,3994.0,1419.0,1578.0,786.0,856.0
3830,1127,624,0,3888.0,3948.0,1263.0,1419.0,701.0,786.0
3778,1013,578,0,3830.0,3888.0,1127.0,1263.0,624.0,701.0
3748,917,547,0,3778.0,3830.0,1013.0,1127.0,578.0,624.0
3725,832,529,0,3748.0,3778.0,917.0,1013.0,547.0,578.0
3714,754,530,0,3725.0,3748.0,832.0,917.0,529.0,547.0
3716,676,550,0,3714.0,3725.0,754.0,832.0,530.0,529.0
3729,589,558,0,3716.0,3714.0,676.0,754.0,550.0,530.0
3741,505,538,0,3729.0,3716.0,589.0,676.0,558.0,550.0
3741,432,505,0,3741.0,3729.0,505.0,589.0,538.0,558.0
3738,376,468,0,3741.0,3741.0,432.0,505.0,505.0,538.0
3727,338,437,0,3738.0,3741.0,376.0,432.0,468.0,505.0
3709,308,416,0,3727.0,3738.0,338.0,376.0,437.0,468.0
3687,289,411,0,3709.0,3727.0,308.0,338.0,416.0,437.0
3654,277,407,0,3687.0,3709.0,289.0,308.0,411.0,416.0
3603,289,396,0,3654.0,3687.0,277.0,289.0,407.0,411.0
3526,331,385,0,3603.0,3654.0,289.0,277.0,396.0,407.0
3427,406,370,0,3526.0,3603.0,331.0,289.0,385.0,396.0
3314,509,359,0,3427.0,3526.0,406.0,331.0,370.0,385.0
3189,621,364,0,3314.0,3427.0,509.0,406.0,359.0,370.0
3060,721,390,0,3189.0,3314.0,621.0,509.0,364.0,359.0
2926,799,437,0,3060.0,3189.0,721.0,621.0,390.0,364.0
2781,847,471,0,2926.0,3060.0,799.0,721.0,437.0,390.0
2626,889,461,0,2781.0,2926.0,847.0,799.0,471.0,437.0
2461,952,414,0,2626.0,2781.0,889.0,847.0,461.0,471.0
2307,1035,381,0,2461.0,2626.0,952.0,889.0,414.0,461.0
2180,1133,386,0,2307.0,2461.0,1035.0,952.0,381.0,414.0
2083,1213,393,0,2180.0,2307.0,1133.0,1035.0,386.0,381.0
2011,1296,426,0,2083.0,2180.0,1213.0,1133.0,393.0,386.0
1970,1380,483,0,2011.0,2083.0,1296.0,1213.0,426.0,393.0
1950,1465,557,0,1970.0,2011.0,1380.0,1296.0,483.0,426.0
1940,1548,633,0,1950.0,1970.0,1465.0,1380.0,557.0,483.0
1934,1630,705,0,1940.0,1950.0,1548.0,1465.0,633.0,557.0
1931,1699,769,0,1934.0,1940.0,1630.0,1548.0,705.0,633.0
1923,1735,807,0,1931.0,1934.0,1699.0,1630.0,769.0,705.0
1914,1733,791,0,1923.0,1931.0,1735.0,1699.0,807.0,769.0
1905,1704,730,0,1914.0,1923.0,1733.0,1735.0,791.0,807.0
1918,1650,642,0,1905.0,1914.0,1704.0,1733.0,730.0,791.0
1965,1583,519,0,1918.0,1905.0,1650.0,1704.0,642.0,730.0
2041,1528,400,0,1965.0,1918.0,1583.0,1650.0,519.0,642.0
2148,1486,323,0,2041.0,1965.0,1528.0,1583.0,400.0,519.0
2276,1437,308,0,2148.0,2041.0,1486.0,1528.0,323.0,400.0
2414,1370,320,0,2276.0,2148.0,1437.0,1486.0,308.0,323.0
2540,1285,337,0,2414.0,2276.0,1370.0,1437.0,320.0,308.0
2633,1207,340,0,2540.0,2414.0,1285.0,1370.0,337.0,320.0
2694,1139,345,0,2633.0,2540.0,1207.0,1285.0,340.0,337.0
2720,1080,346,0,2694.0,2633.0,1139.0,1207.0,345.0,340.0
2728,1025,335,0,2720.0,2694.0,1080.0,1139.0,346.0,345.0
2728,986,329,0,2728.0,2720.0,1025.0,1080.0,335.0,346.0
2729,968,358,0,2728.0,2728.0,986.0,1025.0,329.0,335.0
2728,982,403,0,2729.0,2728.0,968.0,986.0,358.0,329.0
2735,1006,439,0,2728.0,2729.0,982.0,968.0,403.0,358.0
2752,1050,453,0,2735.0,2728.0,1006.0,982.0,439.0,403.0
2797,1112,472,0,2752.0,2735.0,1050.0,1006.0,453.0,439.0
2859,1187,536,0,2797.0,2752.0,1112.0,1050.0,472.0,453.0
2925,1254,632,0,2859.0,2797.0,1187.0,1112.0,536.0,472.0
2972,1304,698,0,2925.0,2859.0,1254.0,1187.0,632.0,536.0
2984,1347,720,0,2972.0,2925.0,1304.0,1254.0,698.0,632.0
2965,1382,695,0,2984.0,2972.0,1347.0,1304.0,720.0,698.0
2943,1400,664,0,2965.0,2984.0,1382.0,1347.0,695.0,720.0
2931,1405,644,0,2943.0,2965.0,1400.0,1382.0,664.0,695.0
2927,1397,642,0,2931.0,2943.0,1405.0,1400.0,644.0,664.0
2921,1377,651,0,2927.0,2931.0,1397.0,1405.0,642.0,644.0
2914,1349,639,0,2921.0,2927.0,1377.0,1397.0,651.0,642.0
2887,1329,590,0,2914.0,2921.0,1349.0,1377.0,639.0,651.0
2851,1293,484,0,2887.0,2914.0,1329.0,1349.0,590.0,639.0
2840,1264,399,0,2851.0,2887.0,1293.0,1329.0,484.0,590.0
2851,1234,335,0,2840.0,2851.0,1264.0,1293.0,399.0,484.0
2867,1217,241,0,2851.0,2840.0,1234.0,1264.0,335.0,399.0
2912,1207,188,0,2867.0,2851.0,1217.0,1234.0,241.0,335.0
3014,1183,195,0,2912.0,2867.0,1207.0,1217.0,188.0,241.0
3168,1136,216,0,3014.0,2912.0,1183.0,1207.0,195.0,188.0
3361,1082,271,0,3168.0,3014.0,1136.0,1183.0,216.0,195.0
3588,1013,352,0,3361.0,3168.0,1082.0,1136.0,271.0,216.0
3834,901,456,0,3588.0,3361.0,1013.0,1082.0,352.0,271.0
4098,763,569,0,3834.0,3588.0,901.0,1013.0,456.0,352.0
4362,605,660,0,4098.0,3834.0,763.0,901.0,569.0,456.0
4622,444,712,0,4362.0,4098.0,605.0,763.0,660.0,569.0
4876,286,742,0,4622.0,4362.0,444.0,605.0,712.0,660.0
5130,140,751,0,4876.0,4622.0,286.0,444.0,742.0,712.0
5401,-10,786,0,5130.0,4876.0,140.0,286.0,751.0,742.0
5693,-137,887,0,5401.0,5130.0,-10.0,140.0,786.0,751.0
5965,-212,1059,0,5693.0,5401.0,-137.0,-10.0,887.0,786.0
6191,-199,1238,0,5965.0,5693.0,-212.0,-137.0,1059.0,887.0
6343,-100,1349,0,6191.0,5965.0,-199.0,-212.0,1238.0,1059.0
6424,70,1439,0,6343.0,6191.0,-100.0,-199.0,1349.0,1238.0
6466,263,1490,0,6424.0,6343.0,70.0,-100.0,1439.0,1349.0
6473,473,1536,0,6466.0,6424.0,263.0,70.0,1490.0,1439.0
6445,661,1583,0,6473.0,6466.0,473.0,263.0,1536.0,1490.0
6377,795,1639,0,6445.0,6473.0,661.0,473.0,1583.0,1536.0
6269,851,1691,0,6377.0,6445.0,795.0,661.0,1639.0,1583.0
6114,860,1700,0,6269.0,6377.0,851.0,795.0,1691.0,1639.0
5904,804,1674,0,6114.0,6269.0,860.0,851.0,1700.0,1691.0
5683,669,1597,0,5904.0,6114.0,804.0,860.0,1674.0,1700.0
5495,482,1510,0,5683.0,5904.0,669.0,804.0,1597.0,1674.0
5355,288,1445,0,5495.0,5683.0,482.0,669.0,1510.0,1597.0
5256,107,1467,0,5355.0,5495.0,288.0,482.0,1445.0,1510.0
5208,-57,1574,0,5256.0,5355.0,107.0,288.0,1467.0,1445.0
5230,-182,1682,0,5208.0,5256.0,-57.0,107.0,1574.0,1467.0
5366,-255,1772,0,5230.0,5208.0,-182.0,-57.0,1682.0,1574.0
5597,-266,1847,0,5366.0,5230.0,-255.0,-182.0,1772.0,1682.0
5844,-200,1892,0,5597.0,5366.0,-266.0,-255.0,1847.0,1772.0
6051,-82,1878,0,5844.0,5597.0,-200.0,-266.0,1892.0,1847.0
6223,121,1833,0,6051.0,5844.0,-82.0,-200.0,1878.0,1892.0
6345,412,1831,0,6223.0,6051.0,121.0,-82.0,1833.0,1878.0
6444,743,1839,0,6345.0,6223.0,412.0,121.0,1831.0,1833.0
6488,1044,1839,0,6444.0,6345.0,743.0,412.0,1839.0,1831.0
6502,1261,1773,0,6488.0,6444.0,1044.0,743.0,1839.0,1839.0
6443,1440,1675,0,6502.0,6488.0,1261.0,1044.0,1773.0,1839.0
6341,1590,1522,0,6443.0,6502.0,1440.0,1261.0,1675.0,1773.0
6206,1707,1355,0,6341.0,6443.0,1590.0,1440.0,1522.0,1675.0
5968,1828,1301,0,6206.0,6341.0,1707.0,1590.0,1355.0,1522.0
5666,1930,1359,0,5968.0,6206.0,1828.0,1707.0,1301.0,1355.0
5362,2000,1445,0,5666.0,5968.0,1930.0,1828.0,1359.0,1301.0
5081,2064,1525,0,5362.0,5666.0,2000.0,1930.0,1445.0,1359.0
4808,2107,1559,0,5081.0,5362.0,2064.0,2000.0,1525.0,1445.0
4556,2128,1553,0,4808.0,5081.0,2107.0,2064.0,1559.0,1525.0
4357,2121,1500,0,4556.0,4808.0,2128.0,2107.0,1553.0,1559.0
4213,2096,1435,0,4357.0,4556.0,2121.0,2128.0,1500.0,1553.0
4071,2081,1371,0,4213.0,4357.0,2096.0,2121.0,1435.0,1500.0
3909,2088,1303,0,4071.0,4213.0,2081.0,2096.0,1371.0,1435.0
3737,2091,1254,0,3909.0,4071.0,2088.0,2081.0,1303.0,1371.0
3572,2052,1237,0,3737.0,3909.0,2091.0,2088.0,1254.0,1303.0
3437,1979,1253,0,3572.0,3737.0,2052.0,2091.0,1237.0,1254.0
3341,1885,1275,0,3437.0,3572.0,1979.0,2052.0,1253.0,1237.0
3290,1790,1262,0,3341.0,3437.0,1885.0,1979.0,1275.0,1253.0
3236,1711,1238,0,3290.0,3341.0,1790.0,1885.0,1262.0,1275.0
3207,1634,1159,0,3236.0,3290.0,1711.0,1790.0,1238.0,1262.0
3175,1586,1087,0,3207.0,3236.0,1634.0,1711.0,1159.0,1238.0
3149,1539,1019,0,3175.0,3207.0,1586.0,1634.0,1087.0,1159.0
3130,1485,959,0,3149.0,3175.0,1539.0,1586.0,1019.0,1087.0
3105,1447,922,0,3130.0,3149.0,1485.0,1539.0,959.0,1019.0
3081,1404,905,0,3105.0,3130.0,1447.0,1485.0,922.0,959.0
3052,1360,902,0,3081.0,3105.0,1404.0,1447.0,905.0,922.0
3005,1323,903,0,3052.0,3081.0,1360.0,1404.0,902.0,905.0
2925,1280,907,0,3005.0,3052.0,1323.0,1360.0,903.0,902.0
2814,1239,914,0,2925.0,3005.0,1280.0,1323.0,907.0,903.0
2680,1190,933,0,2814.0,2925.0,1239.0,1280.0,914.0,907.0
2530,1128,966,0,2680.0,2814.0,1190.0,1239.0,933.0,914.0
2365,1065,996,0,2530.0,2680.0,1128.0,1190.0,966.0,933.0
2193,1009,1014,0,2365.0,2530.0,1065.0,1128.0,996.0,966.0
2018,972,1021,0,2193.0,2365.0,1009.0,1065.0,1014.0,996.0
1846,948,1028,0,2018.0,2193.0,972.0,1009.0,1021.0,1014.0
1687,932,1037,0,1846.0,2018.0,948.0,972.0,1028.0,1021.0
1539,916,1043,0,1687.0,1846.0,932.0,948.0,1037.0,1028.0
1415,895,1040,0,1539.0,1687.0,916.0,932.0,1043.0,1037.0
1314,876,1016,0,1415.0,1539.0,895.0,916.0,1040.0,1043.0
1244,873,982,0,1314.0,1415.0,876.0,895.0,1016.0,1040.0
1197,884,955,0,1244.0,1314.0,873.0,876.0,982.0,1016.0
1179,905,917,0,1197.0,1244.0,884.0,873.0,955.0,982.0
1187,926,879,0,1179.0,1197.0,905.0,884.0,917.0,955.0
1203,943,834,0,1187.0,1179.0,926.0,905.0,879.0,917.0
1238,954,793,0,1203.0,1187.0,943.0,926.0,834.0,879.0
1278,960,751,0,1238.0,1203.0,954.0,943.0,793.0,834.0
1322,950,709,0,1278.0,1238.0,960.0,954.0,751.0,793.0
1365,932,665,0,1322.0,1278.0,950.0,960.0,709.0,751.0
1414,885,626,0,1365.0,1322.0,932.0,950.0,665.0,709.0
1466,806,586,0,1414.0,1365.0,885.0,932.0,626.0,665.0
1491,730,538,0,1466.0,1414.0,806.0,885.0,586.0,626.0
1498,658,509,0,1491.0,1466.0,730.0,806.0,538.0,586.0
1503,566,482,0,1498.0,1491.0,658.0,730.0,509.0,538.0
1497,470,463,0,1503.0,1498.0,566.0,658.0,482.0,509.0
1490,375,466,0,1497.0,1503.0,470.0,566.0,463.0,482.0
1510,295,446,0,1490.0,1497.0,375.0,470.0,466.0,463.0
1540,257,454,0,1510.0,1490.0,295.0,375.0,446.0,466.0
1599,240,466,0,1540.0,1510.0,257.0,295.0,454.0,446.0
1704,245,492,0,1599.0,1540.0,240.0,257.0,466.0,454.0
1850,275,549,0,1704.0,1599.0,245.0,240.0,492.0,466.0
2028,326,623,0,1850.0,1704.0,275.0,245.0,549.0,492.0
2220,388,691,0,2028.0,1850.0,326.0,275.0,623.0,549.0
2438,447,763,0,2220.0,2028.0,388.0,326.0,691.0,623.0
2662,512,823,0,2438.0,2220.0,447.0,388.0,763.0,691.0
2880,591,862,0,2662.0,2438.0,512.0,447.0,823.0,763.0
3089,667,877,0,2880.0,2662.0,591.0,512.0,862.0,823.0
3280,715,874,0,3089.0,2880.0,667.0,591.0,877.0,862.0
3429,735,864,0,3280.0,3089.0,715.0,667.0,874.0,877.0
3554,741,866,0,3429.0,3280.0,735.0,715.0,864.0,874.0
3639,737,867,0,3554.0,3429.0,741.0,735.0,866.0,864.0
3694,720,831,0,3639.0,3554.0,737.0,741.0,867.0,866.0
3722,712,800,0,3694.0,3639.0,720.0,737.0,831.0,867.0
3725,696,786,0,3722.0,3694.0,712.0,720.0,800.0,831.0
3690,646,779,0,3725.0,3722.0,696.0,712.0,786.0,800.0
3625,584,753,0,3690.0,3725.0,646.0,696.0,779.0,786.0
3536,523,757,0,3625.0,3690.0,584.0,646.0,753.0,779.0
3433,470,769,0,3536.0,3625.0,523.0,584.0,757.0,753.0
3338,425,794,0,3433.0,3536.0,470.0,523.0,769.0,757.0
3279,401,892,0,3338.0,3433.0,425.0,470.0,794.0,769.0
3265,394,1051,0,3279.0,3338.0,401.0,425.0,892.0,794.0
3270,403,1194,0,3265.0,3279.0,394.0,401.0,1051.0,892.0
3270,426,1294,0,3270.0,3265.0,403.0,394.0,1194.0,1051.0
3319,458,1410,0,3270.0,3270.0,426.0,403.0,1294.0,1194.0
3462,492,1607,0,3319.0,3270.0,458.0,426.0,1410.0,1294.0
3733,520,1821,0,3462.0,3319.0,492.0,458.0,1607.0,1410.0
4116,505,1944,0,3733.0,3462.0,520.0,492.0,1821.0,1607.0
4610,418,1935,0,4116.0,3733.0,505.0,520.0,1944.0,1821.0
5171,263,1771,0,4610.0,4116.0,418.0,505.0,1935.0,1944.0
5718,123,1496,0,5171.0,4610.0,263.0,418.0,1771.0,1935.0
6194,58,1194,0,5718.0,5171.0,123.0,263.0,1496.0,1771.0
6559,70,917,0,6194.0,5718.0,58.0,123.0,1194.0,1496.0
6796,115,754,0,6559.0,6194.0,70.0,58.0,917.0,1194.0
6918,99,703,0,6796.0,6559.0,115.0,70.0,754.0,917.0
6848,-9,594,0,6918.0,6796.0,99.0,115.0,703.0,754.0
6581,-191,474,0,6848.0,6918.0,-9.0,99.0,594.0,703.0
6171,-417,402,0,6581.0,6848.0,-191.0,-9.0,474.0,594.0
5674,-627,412,0,6171.0,6581.0,-417.0,-191.0,402.0,474.0
5177,-760,439,0,5674.0,6171.0,-627.0,-417.0,412.0,402.0
4730,-778,412,0,5177.0,5674.0,-760.0,-627.0,439.0,412.0
4378,-657,318,0,4730.0,5177.0,-778.0,-760.0,412.0,439.0
4147,-424,185,0,4378.0,4730.0,-657.0,-778.0,318.0,412.0
4100,-172,107,0,4147.0,4378.0,-424.0,-657.0,185.0,318.0
4255,47,168,0,4100.0,4147.0,-172.0,-424.0,107.0,185.0
4561,282,331,0,4255.0,4100.0,47.0,-172.0,168.0,107.0
4911,567,489,0,4561.0,4255.0,282.0,47.0,331.0,168.0
5216,888,599,0,4911.0,4561.0,567.0,282.0,489.0,331.0
5443,1180,694,0,5216.0,4911.0,888.0,567.0,599.0,489.0
5558,1409,761,0,5443.0,5216.0,1180.0,888.0,694.0,599.0
5540,1596,786,0,5558.0,5443.0,1409.0,1180.0,761.0,694.0
5421,1753,747,0,5540.0,5558.0,1596.0,1409.0,786.0,761.0
5219,1867,674,0,5421.0,5540.0,1753.0,1596.0,747.0,786.0
4951,1953,576,0,5219.0,5421.0,1867.0,1753.0,674.0,747.0
4662,2021,486,0,4951.0,5219.0,1953.0,1867.0,576.0,674.0
4375,2075,415,0,4662.0,4951.0,2021.0,1953.0,486.0,576.0
4112,2141,392,0,4375.0,4662.0,2075.0,2021.0,415.0,486.0
3907,2205,451,0,4112.0,4375.0,2141.0,2075.0,392.0,415.0
3789,2264,601,0,3907.0,4112.0,2205.0,2141.0,451.0,392.0
3818,2268,784,0,3789.0,3907.0,2264.0,2205.0,601.0,451.0
3973,2247,964,0,3818.0,3789.0,2268.0,2264.0,784.0,601.0
4238,2229,1112,0,3973.0,3818.0,2247.0,2268.0,964.0,784.0
4611,2235,1196,0,4238.0,3973.0,2229.0,2247.0,1112.0,964.0
5091,2248,1223,0,4611.0,4238.0,2235.0,2229.0,1196.0,1112.0
5634,2251,1177,0,5091.0,4611.0,2248.0,2235.0,1223.0,1196.0
6182,2226,1042,0,5634.0,5091.0,2251.0,2248.0,1177.0,1223.0
6634,2191,829,0,6182.0,5634.0,2226.0,2251.0,1042.0,1177.0
6903,2154,591,0,6634.0,6182.0,2191.0,2226.0,829.0,1042.0
6971,2081,397,0,6903.0,6634.0,2154.0,2191.0,591.0,829.0
6851,1952,313,0,6971.0,6903.0,2081.0,2154.0,397.0,591.0
6580,1792,332,0,6851.0,6971.0,1952.0,2081.0,313.0,397.0
6184,1600,420,0,6580.0,6851.0,1792.0,1952.0,332.0,313.0
5691,1380,502,0,6184.0,6580.0,1600.0,1792.0,420.0,332.0
5147,1177,519,0,5691.0,6184.0,1380.0,1600.0,502.0,420.0
4619,1037,464,0,5147.0,5691.0,1177.0,1380.0,519.0,502.0
4169,982,385,0,4619.0,5147.0,1037.0,1177.0,464.0,519.0
3864,994,342,0,4169.0,4619.0,982.0,1037.0,385.0,464.0
3677,1045,348,0,3864.0,4169.0,994.0,982.0,342.0,385.0
3586,1120,397,0,3677.0,3864.0,1045.0,994.0,348.0,342.0
3543,1197,473,0,3586.0,3677.0,1120.0,1045.0,397.0,348.0
3520,1270,546,0,3543.0,3586.0,1197.0,1120.0,473.0,397.0
3498,1311,629,0,3520.0,3543.0,1270.0,1197.0,546.0,473.0
3469,1317,716,0,3498.0,3520.0,1311.0,1270.0,629.0,546.0
3427,1287,803,0,3469.0,3498.0,1317.0,1311.0,716.0,629.0
3367,1228,881,0,3427.0,3469.0,1287.0,1317.0,803.0,716.0
3292,1171,939,0,3367.0,3427.0,1228.0,1287.0,881.0,803.0
3211,1118,957,0,3292.0,3367.0,1171.0,1228.0,939.0,881.0
3141,1052,941,0,3211.0,3292.0,1118.0,1171.0,957.0,939.0
3093,986,909,0,3141.0,3211.0,1052.0,1118.0,941.0,957.0
3071,932,878,0,3093.0,3141.0,986.0,1052.0,909.0,941.0
3079,897,848,0,3071.0,3093.0,932.0,986.0,878.0,909.0
3115,869,813,0,3079.0,3071.0,897.0,932.0,848.0,878.0
3173,855,768,0,3115.0,3079.0,869.0,897.0,813.0,848.0
3250,837,722,0,3173.0,3115.0,855.0,869.0,768.0,813.0
3334,813,690,0,3250.0,3173.0,837.0,855.0,722.0,768.0
3418,783,666,0,3334.0,3250.0,813.0,837.0,690.0,722.0
3493,736,663,0,3418.0,3334.0,783.0,813.0,666.0,690.0
3542,679,658,0,3493.0,3418.0,736.0,783.0,663.0,666.0
3546,641,606,0,3542.0,3493.0,679.0,736.0,658.0,663.0
3497,652,497,0,3546.0,3542.0,641.0,679.0,606.0,658.0
3426,707,397,0,3497.0,3546.0,652.0,641.0,497.0,606.0
3341,792,329,0,3426.0,3497.0,707.0,652.0,397.0,497.0
3259,877,282,0,3341.0,3426.0,792.0,707.0,329.0,397.0
3179,968,253,0,3259.0,3341.0,877.0,792.0,282.0,329.0
3099,1060,252,0,3179.0,3259.0,968.0,877.0,253.0,282.0
3016,1152,268,0,3099.0,3179.0,1060.0,968.0,252.0,253.0
2927,1246,300,0,3016.0,3099.0,1152.0,1060.0,268.0,252.0
2823,1338,328,0,2927.0,3016.0,1246.0,1152.0,300.0,268.0
2716,1428,357,0,2823.0,2927.0,1338.0,1246.0,328.0,300.0
2606,1519,401,0,2716.0,2823.0,1428.0,1338.0,357.0,328.0
2507,1590,434,0,2606.0,2716.0,1519.0,1428.0,401.0,357.0
2416,1661,452,0,2507.0,2606.0,1590.0,1519.0,434.0,401.0
2345,1725,455,0,2416.0,2507.0,1661.0,1590.0,452.0,434.0
2285,1772,456,0,2345.0,2416.0,1725.0,1661.0,455.0,452.0
2239,1829,462,0,2285.0,2345.0,1772.0,1725.0,456.0,455.0
2210,1888,471,0,2239.0,2285.0,1829.0,1772.0,462.0,456.0
2192,1921,469,0,2210.0,2239.0,1888.0,1829.0,471.0,462.0
2183,1924,438,0,2192.0,2210.0,1921.0,1888.0,469.0,471.0
2187,1919,386,0,2183.0,2192.0,1924.0,1921.0,438.0,469.0
2195,1896,333,0,2187.0,2183.0,1919.0,1924.0,386.0,438.0
2215,1840,288,0,2195.0,2187.0,1896.0,1919.0,333.0,386.0
2231,1755,278,0,2215.0,2195.0,1840.0,1896.0,288.0,333.0
2236,1633,290,0,2231.0,2215.0,1755.0,1840.0,278.0,288.0
2212,1480,303,0,2236.0,2231.0,1633.0,1755.0,290.0,278.0
2153,1323,320,0,2212.0,2236.0,1480.0,1633.0,303.0,290.0
2053,1183,355,0,2153.0,2212.0,1323.0,1480.0,320.0,303.0
1935,1042,417,0,2053.0,2153.0,1183.0,1323.0,355.0,320.0
1817,901,486,0,1935.0,2053.0,1042.0,1183.0,417.0,355.0
1738,790,559,0,1817.0,1935.0,901.0,1042.0,486.0,417.0
1713,728,605,0,1738.0,1817.0,790.0,901.0,559.0,486.0
1765,700,630,0,1713.0,1738.0,728.0,790.0,605.0,559.0
1916,704,658,0,1765.0,1713.0,700.0,728.0,630.0,605.0
2136,734,699,0,1916.0,1765.0,704.0,700.0,658.0,630.0
2376,781,740,0,2136.0,1916.0,734.0,704.0,699.0,658.0
2593,830,757,0,2376.0,2136.0,781.0,734.0,740.0,699.0
2759,860,729,0,2593.0,2376.0,830.0,781.0,757.0,740.0
2873,870,634,0,2759.0,2593.0,860.0,830.0,729.0,757.0
2939,873,508,0,2873.0,2759.0,870.0,860.0,634.0,729.0
2967,873,389,0,2939.0,2873.0,873.0,870.0,508.0,634.0
2946,860,241,0,2967.0,2939.0,873.0,873.0,389.0,508.0
2901,814,65,0,2946.0,2967.0,860.0,873.0,241.0,389.0
2850,762,-61,0,2901.0,2946.0,814.0,860.0,65.0,241.0
2791,716,-149,0,2850.0,2901.0,762.0,814.0,-61.0,65.0
2722,679,-226,0,2791.0,2850.0,716.0,762.0,-149.0,-61.0
2663,649,-253,0,2722.0,2791.0,679.0,716.0,-226.0,-149.0
2645,613,-211,0,2663.0,2722.0,649.0,679.0,-253.0,-226.0
2667,590,-116,0,2645.0,2663.0,613.0,649.0,-211.0,-253.0
2751,580,44,0,2667.0,2645.0,590.0,613.0,-116.0,-211.0
2908,570,259,0,2751.0,2667.0,580.0,590.0,44.0,-116.0
3149,539,496,0,2908.0,2751.0,570.0,580.0,259.0,44.0
3482,484,764,0,3149.0,2908.0,539.0,570.0,496.0,259.0
3917,404,999,0,3482.0,3149.0,484.0,539.0,764.0,496.0
4455,313,1156,0,3917.0,3482.0,404.0,484.0,999.0,764.0
5087,192,1237,0,4455.0,3917.0,313.0,404.0,1156.0,999.0
5760,66,1267,0,5087.0,4455.0,192.0,313.0,1237.0,1156.0
6391,-59,1265,0,5760.0,5087.0,66.0,192.0,1267.0,1237.0
6904,-146,1250,0,6391.0,5760.0,-59.0,66.0,1265.0,1267.0
7235,-169,1239,0,6904.0,6391.0,-146.0,-59.0,1250.0,1265.0
7344,-89,1256,0,7235.0,6904.0,-169.0,-146.0,1239.0,1250.0
7221,96,1320,0,7344.0,7235.0,-89.0,-169.0,1256.0,1239.0
6898,341,1416,0,7221.0,7344.0,96.0,-89.0,1320.0,1256.0
6467,581,1498,0,6898.0,7221.0,341.0,96.0,1416.0,1320.0
5988,780,1582,0,6467.0,6898.0,581.0,341.0,1498.0,1416.0
5556,895,1618,0,5988.0,6467.0,780.0,581.0,1582.0,1498.0
5217,962,1615,0,5556.0,5988.0,895.0,780.0,1618.0,1582.0
4990,1016,1615,0,5217.0,5556.0,962.0,895.0,1615.0,1618.0
4894,1069,1592,0,4990.0,5217.0,1016.0,962.0,1615.0,1615.0
4927,1116,1589,0,4894.0,4990.0,1069.0,1016.0,1592.0,1615.0
5051,1165,1632,0,4927.0,4894.0,1116.0,1069.0,1589.0,1592.0
5237,1174,1715,0,5051.0,4927.0,1165.0,1116.0,1632.0,1589.0
5479,1146,1776,0,5237.0,5051.0,1174.0,1165.0,1715.0,1632.0
5757,1097,1851,0,5479.0,5237.0,1146.0,1174.0,1776.0,1715.0
6084,1057,1993,0,5757.0,5479.0,1097.0,1146.0,1851.0,1776.0
6403,1026,2111,0,6084.0,5757.0,1057.0,1097.0,1993.0,1851.0
6622,1021,2191,0,6403.0,6084.0,1026.0,1057.0,2111.0,1993.0
6759,1020,2238,0,6622.0,6403.0,1021.0,1026.0,2191.0,2111.0
6822,1028,2226,0,6759.0,6622.0,1020.0,1021.0,2238.0,2191.0
6805,1067,2181,0,6822.0,6759.0,1028.0,1020.0,2226.0,2238.0
6727,1151,2159,0,6805.0,6822.0,1067.0,1028.0,2181.0,2226.0
6634,1265,2153,0,6727.0,6805.0,1151.0,1067.0,2159.0,2181.0
6527,1398,2116,0,6634.0,6727.0,1265.0,1151.0,2153.0,2159.0
6407,1555,2049,0,6527.0,6634.0,1398.0,1265.0,2116.0,2153.0
6272,1737,1966,0,6407.0,6527.0,1555.0,1398.0,2049.0,2116.0
6128,1921,1890,0,6272.0,6407.0,1737.0,1555.0,1966.0,2049.0
5970,2092,1825,0,6128.0,6272.0,1921.0,1737.0,1890.0,1966.0
5806,2233,1773,0,5970.0,6128.0,2092.0,1921.0,1825.0,1890.0
5620,2331,1712,0,5806.0,5970.0,2233.0,2092.0,1773.0,1825.0
5401,2401,1627,0,5620.0,5806.0,2331.0,2233.0,1712.0,1773.0
5156,2446,1518,0,5401.0,5620.0,2401.0,2331.0,1627.0,1712.0
4902,2452,1408,0,5156.0,5401.0,2446.0,2401.0,1518.0,1627.0
4660,2413,1316,0,4902.0,5156.0,2452.0,2446.0,1408.0,1518.0
4439,2331,1269,0,4660.0,4902.0,2413.0,2452.0,1316.0,1408.0
4251,2216,1243,0,4439.0,4660.0,2331.0,2413.0,1269.0,1316.0
4063,2079,1238,0,4251.0,4439.0,2216.0,2331.0,1243.0,1269.0
3890,1949,1249,0,4063.0,4251.0,2079.0,2216.0,1238.0,1243.0
3742,1825,1253,0,3890.0,4063.0,1949.0,2079.0,1249.0,1238.0
3633,1693,1250,0,3742.0,3890.0,1825.0,1949.0,1253.0,1249.0
3547,1571,1241,0,3633.0,3742.0,1693.0,1825.0,1250.0,1253.0
3471,1477,1239,0,3547.0,3633.0,1571.0,1693.0,1241.0,1250.0
3399,1399,1239,0,3471.0,3547.0,1477.0,1571.0,1239.0,1241.0
3336,1317,1255,0,3399.0,3471.0,1399.0,1477.0,1239.0,1239.0
3278,1228,1270,0,3336.0,3399.0,1317.0,1399.0,1255.0,1239.0
3217,1133,1287,0,3278.0,3336.0,1228.0,1317.0,1270.0,1255.0
3149,1037,1299,0,3217.0,3278.0,1133.0,1228.0,1287.0,1270.0
3077,944,1293,0,3149.0,3217.0,1037.0,1133.0,1299.0,1287.0
2995,859,1266,0,3077.0,3149.0,944.0,1037.0,1293.0,1299.0
2906,787,1223,0,2995.0,3077.0,859.0,944.0,1266.0,1293.0
2803,734,1175,0,2906.0,2995.0,787.0,859.0,1223.0,1266.0
2690,698,1130,0,2803.0,2906.0,734.0,787.0,1175.0,1223.0
2569,684,1095,0,2690.0,2803.0,698.0,734.0,1130.0,1175.0
2434,688,1066,0,2569.0,2690.0,684.0,698.0,1095.0,1130.0
2290,707,1045,0,2434.0,2569.0,688.0,684.0,1066.0,1095.0
2141,740,1036,0,2290.0,2434.0,707.0,688.0,1045.0,1066.0
1986,778,1026,0,2141.0,2290.0,740.0,707.0,1036.0,1045.0
1833,822,1005,0,1986.0,2141.0,778.0,740.0,1026.0,1036.0
1696,875,972,0,1833.0,1986.0,822.0,778.0,1005.0,1026.0
1584,923,931,0,1696.0,1833.0,875.0,822.0,972.0,1005.0
1498,950,897,0,1584.0,1696.0,923.0,875.0,931.0,972.0
1443,956,873,0,1498.0,1584.0,950.0,923.0,897.0,931.0
1421,944,856,0,1443.0,1498.0,956.0,950.0,873.0,897.0
1428,937,844,0,1421.0,1443.0,944.0,956.0,856.0,873.0
1447,932,838,0,1428.0,1421.0,937.0,944.0,844.0,856.0
1479,937,827,0,1447.0,1428.0,932.0,937.0,838.0,844.0
1511,951,812,0,1479.0,1447.0,937.0,932.0,827.0,838.0
1535,974,790,0,1511.0,1479.0,951.0,937.0,812.0,827.0
1556,989,767,0,1535.0,1511.0,974.0,951.0,790.0,812.0
1571,991,741,0,1556.0,1535.0,989.0,974.0,767.0,790.0
1585,975,724,0,1571.0,1556.0,991.0,989.0,741.0,767.0
1589,950,713,0,1585.0,1571.0,975.0,991.0,724.0,741.0
1591,921,723,0,1589.0,1585.0,950.0,975.0,713.0,724.0
1584,875,744,0,1591.0,1589.0,921.0,950.0,723.0,713.0
1570,803,774,0,1584.0,1591.0,875.0,921.0,744.0,723.0
1552,694,795,0,1570.0,1584.0,803.0,875.0,774.0,744.0
1522,557,833,0,1552.0,1570.0,694.0,803.0,795.0,774.0
1497,408,860,0,1522.0,1552.0,557.0,694.0,833.0,795.0
1487,262,877,0,1497.0,1522.0,408.0,557.0,860.0,833.0
1505,140,900,0,1487.0,1497.0,262.0,408.0,877.0,860.0
1559,43,912,0,1505.0,1487.0,140.0,262.0,900.0,877.0
1648,-32,917,0,1559.0,1505.0,43.0,140.0,912.0,900.0
1781,-74,915,0,1648.0,1559.0,-32.0,43.0,917.0,912.0
1949,-76,917,0,1781.0,1648.0,-74.0,-32.0,915.0,917.0
2146,-39,917,0,1949.0,1781.0,-76.0,-74.0,917.0,915.0
2373,31,912,0,2146.0,1949.0,-39.0,-76.0,917.0,917.0
2625,115,904,0,2373.0,2146.0,31.0,-39.0,912.0,917.0
2855,215,903,0,2625.0,2373.0,115.0,31.0,904.0,912.0
3050,306,853,0,2855.0,2625.0,215.0,115.0,903.0,904.0
3192,381,775,0,3050.0,2855.0,306.0,215.0,853.0,903.0
3285,437,693,0,3192.0,3050.0,381.0,306.0,775.0,853.0
3328,489,619,0,3285.0,3192.0,437.0,381.0,693.0,775.0
3333,535,566,0,3328.0,3285.0,489.0,437.0,619.0,693.0
3317,602,548,0,3333.0,3328.0,535.0,489.0,566.0,619.0
3300,684,548,0,3317.0,3333.0,602.0,535.0,548.0,566.0
3272,781,551,0,3300.0,3317.0,684.0,602.0,548.0,548.0
3228,900,572,0,3272.0,3300.0,781.0,684.0,551.0,548.0
3152,1019,618,0,3228.0,3272.0,900.0,781.0,572.0,551.0
3050,1100,667,0,3152.0,3228.0,1019.0,900.0,618.0,572.0
2938,1129,716,0,3050.0,3152.0,1100.0,1019.0,667.0,618.0
2820,1114,738,0,2938.0,3050.0,1129.0,1100.0,716.0,667.0
2711,1108,805,0,2820.0,2938.0,1114.0,1129.0,738.0,716.0
2623,1123,955,0,2711.0,2820.0,1108.0,1114.0,805.0,738.0
2553,1141,1122,0,2623.0,2711.0,1123.0,1108.0,955.0,805.0
2494,1161,1273,0,2553.0,2623.0,1141.0,1123.0,1122.0,955.0
2448,1180,1400,0,2494.0,2553.0,1161.0,1141.0,1273.0,1122.0
2449,1175,1452,0,2448.0,2494.0,1180.0,1161.0,1400.0,1273.0
2556,1198,1520,0,2449.0,2448.0,1175.0,1180.0,1452.0,1400.0
2796,1283,1729,0,2556.0,2449.0,1198.0,1175.0,1520.0,1452.0
3155,1345,2023,0,2796.0,2556.0,1283.0,1198.0,1729.0,1520.0
3637,1214,2213,0,3155.0,2796.0,1345.0,1283.0,2023.0,1729.0
4267,827,2154,0,3637.0,3155.0,1214.0,1345.0,2213.0,2023.0
5007,345,1854,0,4267.0,3637.0,827.0,1214.0,2154.0,2213.0
5759,31,1432,0,5007.0,4267.0,345.0,827.0,1854.0,2154.0
6492,4,1103,0,5759.0,5007.0,31.0,345.0,1432.0,1854.0
7183,129,886,0,6492.0,5759.0,4.0,31.0,1103.0,1432.0
7712,219,728,0,7183.0,6492.0,129.0,4.0,886.0,1103.0
7986,119,565,0,7712.0,7183.0,219.0,129.0,728.0,886.0
7863,-143,430,0,7986.0,7712.0,119.0,219.0,565.0,728.0
7297,-451,351,0,7863.0,7986.0,-143.0,119.0,430.0,565.0
6467,-732,396,0,7297.0,7863.0,-451.0,-143.0,351.0,430.0
5600,-998,528,0,6467.0,7297.0,-732.0,-451.0,396.0,351.0
4887,-1203,627,0,5600.0,6467.0,-998.0,-732.0,528.0,396.0
4351,-1179,566,0,4887.0,5600.0,-1203.0,-998.0,627.0,528.0
3986,-935,394,0,4351.0,4887.0,-1179.0,-1203.0,566.0,627.0
3927,-674,304,0,3986.0,4351.0,-935.0,-1179.0,394.0,566.0
4228,-493,363,0,3927.0,3986.0,-674.0,-935.0,304.0,394.0
4781,-277,497,0,4228.0,3927.0,-493.0,-674.0,363.0,304.0
5401,107,618,0,4781.0,4228.0,-277.0,-493.0,497.0,363.0
6006,572,694,0,5401.0,4781.0,107.0,-277.0,618.0,497.0
6550,920,741,0,6006.0,5401.0,572.0,107.0,694.0,618.0
6907,1166,771,0,6550.0,6006.0,920.0,572.0,741.0,694.0
6988,1369,734,0,6907.0,6550.0,1166.0,920.0,771.0,741.0
6814,1552,640,0,6988.0,6907.0,1369.0,1166.0,734.0,771.0
6473,1681,548,0,6814.0,6988.0,1552.0,1369.0,640.0,734.0
6030,1745,488,0,6473.0,6814.0,1681.0,1552.0,548.0,640.0
5554,1758,445,0,6030.0,6473.0,1745.0,1681.0,488.0,548.0
5087,1766,428,0,5554.0,6030.0,1758.0,1745.0,445.0,488.0
4687,1768,477,0,5087.0,5554.0,1766.0,1758.0,428.0,445.0
4406,1781,563,0,4687.0,5087.0,1768.0,1766.0,477.0,428.0
4267,1820,681,0,4406.0,4687.0,1781.0,1768.0,563.0,477.0
4280,1881,835,0,4267.0,4406.0,1820.0,1781.0,681.0,563.0
4411,1911,962,0,4280.0,4267.0,1881.0,1820.0,835.0,681.0
4609,1880,975,0,4411.0,4280.0,1911.0,1881.0,962.0,835.0
4823,1852,941,0,4609.0,4411.0,1880.0,1911.0,975.0,962.0
5041,1836,914,0,4823.0,4609.0,1852.0,1880.0,941.0,975.0
5266,1831,897,0,5041.0,4823.0,1836.0,1852.0,914.0,941.0
5503,1805,892,0,5266.0,5041.0,1831.0,1836.0,897.0,914.0
5722,1752,888,0,5503.0,5266.0,1805.0,1831.0,892.0,897.0
5872,1697,864,0,5722.0,5503.0,1752.0,1805.0,888.0,892.0
5930,1656,818,0,5872.0,5722.0,1697.0,1752.0,864.0,888.0
5895,1620,777,0,5930.0,5872.0,1656.0,1697.0,818.0,864.0
5767,1594,756,0,5895.0,5930.0,1620.0,1656.0,777.0,818.0
5554,1553,739,0,5767.0,5895.0,1594.0,1620.0,756.0,777.0
5284,1495,708,0,5554.0,5767.0,1553.0,1594.0,739.0,756.0
4994,1429,680,0,5284.0,5554.0,1495.0,1553.0,708.0,739.0
4715,1388,664,0,4994.0,5284.0,1429.0,1495.0,680.0,708.0
4479,1373,667,0,4715.0,4994.0,1388.0,1429.0,664.0,680.0
4291,1377,678,0,4479.0,4715.0,1373.0,1388.0,667.0,664.0
4160,1390,683,0,4291.0,4479.0,1377.0,1373.0,678.0,667.0
4057,1415,689,0,4160.0,4291.0,1390.0,1377.0,683.0,678.0
3964,1454,699,0,4057.0,4160.0,1415.0,1390.0,689.0,683.0
3862,1500,712,0,3964.0,4057.0,1454.0,1415.0,699.0,689.0
3764,1503,705,0,3862.0,3964.0,1500.0,1454.0,712.0,699.0
3652,1490,685,0,3764.0,3862.0,1503.0,1500.0,705.0,712.0
3534,1451,664,0,3652.0,3764.0,1490.0,1503.0,685.0,705.0
3400,1391,641,0,3534.0,3652.0,1451.0,1490.0,664.0,685.0
3271,1320,627,0,3400.0,3534.0,1391.0,1451.0,641.0,664.0
3151,1251,616,0,3271.0,3400.0,1320.0,1391.0,627.0,641.0
3053,1185,620,0,3151.0,3271.0,1251.0,1320.0,616.0,627.0
2976,1120,636,0,3053.0,3151.0,1185.0,1251.0,620.0,616.0
2918,1047,643,0,2976.0,3053.0,1120.0,1185.0,636.0,620.0
2872,973,618,0,2918.0,2976.0,1047.0,1120.0,643.0,636.0
2838,913,577,0,2872.0,2918.0,973.0,1047.0,618.0,643.0
2816,867,526,0,2838.0,2872.0,913.0,973.0,577.0,618.0
2803,830,486,0,2816.0,2838.0,867.0,913.0,526.0,577.0
2808,796,459,0,2803.0,2816.0,830.0,867.0,486.0,526.0
2835,757,442,0,2808.0,2803.0,796.0,830.0,459.0,486.0
2870,724,442,0,2835.0,2808.0,757.0,796.0,442.0,459.0
2906,691,443,0,2870.0,2835.0,724.0,757.0,442.0,442.0
2941,658,467,0,2906.0,2870.0,691.0,724.0,443.0,442.0
2966,637,516,0,2941.0,2906.0,658.0,691.0,467.0,443.0
2979,619,554,0,2966.0,2941.0,637.0,658.0,516.0,467.0
2969,628,567,0,2979.0,2966.0,619.0,637.0,554.0,516.0
2940,665,557,0,2969.0,2979.0,628.0,619.0,567.0,554.0
2898,716,547,0,2940.0,2969.0,665.0,628.0,557.0,567.0
2845,755,525,0,2898.0,2940.0,716.0,665.0,547.0,557.0
2773,794,485,0,2845.0,2898.0,755.0,716.0,525.0,547.0
2691,844,439,0,2773.0,2845.0,794.0,755.0,485.0,525.0
2613,891,430,0,2691.0,2773.0,844.0,794.0,439.0,485.0
2551,946,459,0,2613.0,2691.0,891.0,844.0,430.0,439.0
2493,1018,492,0,2551.0,2613.0,946.0,891.0,459.0,430.0
2425,1101,523,0,2493.0,2551.0,1018.0,946.0,492.0,459.0
2334,1216,551,0,2425.0,2493.0,1101.0,1018.0,523.0,492.0
2203,1368,538,0,2334.0,2425.0,1216.0,1101.0,551.0,523.0
2049,1513,487,0,2203.0,2334.0,1368.0,1216.0,538.0,551.0
1919,1579,431,0,2049.0,2203.0,1513.0,1368.0,487.0,538.0
1834,1561,387,0,1919.0,2049.0,1579.0,1513.0,431.0,487.0
1786,1502,354,0,1834.0,1919.0,1561.0,1579.0,387.0,431.0
1752,1474,331,0,1786.0,1834.0,1502.0,1561.0,354.0,387.0
1728,1475,341,0,1752.0,1786.0,1474.0,1502.0,331.0,354.0
1724,1450,384,0,1728.0,1752.0,1475.0,1474.0,341.0,331.0
1729,1391,463,0,1724.0,1728.0,1450.0,1475.0,384.0,341.0
1746,1307,605,0,1729.0,1724.0,1391.0,1450.0,463.0,384.0
1768,1189,793,0,1746.0,1729.0,1307.0,1391.0,605.0,463.0
1782,1025,917,0,1768.0,1746.0,1189.0,1307.0,793.0,605.0
1789,817,895,0,1782.0,1768.0,1025.0,1189.0,917.0,793.0
1807,587,765,0,1789.0,1782.0,817.0,1025.0,895.0,917.0
1836,400,534,0,1807.0,1789.0,587.0,817.0,765.0,895.0
1901,268,258,0,1836.0,1807.0,400.0,587.0,534.0,765.0
1996,208,49,0,1901.0,1836.0,268.0,400.0,258.0,534.0
2138,200,-56,0,1996.0,1901.0,208.0,268.0,49.0,258.0
2329,204,-63,0,2138.0,1996.0,200.0,208.0,-56.0,49.0
2564,227,-13,0,2329.0,2138.0,204.0,200.0,-63.0,-56.0
2816,293,38,0,2564.0,2329.0,227.0,204.0,-13.0,-63.0
3067,401,99,0,2816.0,2564.0,293.0,227.0,38.0,-13.0
3297,542,183,0,3067.0,2816.0,401.0,293.0,99.0,38.0
3482,715,248,0,3297.0,3067.0,542.0,401.0,183.0,99.0
3607,890,289,0,3482.0,3297.0,715.0,542.0,248.0,183.0
3676,1054,321,0,3607.0,3482.0,890.0,715.0,289.0,248.0
3695,1181,348,0,3676.0,3607.0,1054.0,890.0,321.0,289.0
3668,1272,352,0,3695.0,3676.0,1181.0,1054.0,348.0,321.0
3596,1333,308,0,3668.0,3695.0,1272.0,1181.0,352.0,348.0
3514,1372,226,0,3596.0,3668.0,1333.0,1272.0,308.0,352.0
3442,1371,178,0,3514.0,3596.0,1372.0,1333.0,226.0,308.0
3356,1326,104,0,3442.0,3514.0,1371.0,1372.0,178.0,226.0
3263,1225,-2,0,3356.0,3442.0,1326.0,1371.0,104.0,178.0
3196,1080,1,0,3263.0,3356.0,1225.0,1326.0,-2.0,104.0
3176,926,122,0,3196.0,3263.0,1080.0,1225.0,1.0,-2.0
3191,794,248,0,3176.0,3196.0,926.0,1080.0,122.0,1.0
3241,694,310,0,3191.0,3176.0,794.0,926.0,248.0,122.0
3361,614,370,0,3241.0,3191.0,694.0,794.0,310.0,248.0
3583,540,530,0,3361.0,3241.0,614.0,694.0,370.0,310.0
3918,463,789,0,3583.0,3361.0,540.0,614.0,530.0,370.0
4351,378,1052,0,3918.0,3583.0,463.0,540.0,789.0,530.0
4853,310,1223,0,4351.0,3918.0,378.0,463.0,1052.0,789.0
5389,269,1298,0,4853.0,4351.0,310.0,378.0,1223.0,1052.0
5925,239,1339,0,5389.0,4853.0,269.0,310.0,1298.0,1223.0
6405,223,1373,0,5925.0,5389.0,239.0,269.0,1339.0,1298.0
6773,240,1377,0,6405.0,5925.0,223.0,239.0,1373.0,1339.0
6992,303,1381,0,6773.0,6405.0,240.0,223.0,1377.0,1373.0
7044,419,1420,0,6992.0,6773.0,303.0,240.0,1381.0,1377.0
6933,583,1488,0,7044.0,6992.0,419.0,303.0,1420.0,1381.0
6697,762,1573,0,6933.0,7044.0,583.0,419.0,1488.0,1420.0
6373,927,1655,0,6697.0,6933.0,762.0,583.0,1573.0,1488.0
6041,1038,1711,0,6373.0,6697.0,927.0,762.0,1655.0,1573.0
5750,1131,1728,0,6041.0,6373.0,1038.0,927.0,1711.0,1655.0
5527,1210,1741,0,5750.0,6041.0,1131.0,1038.0,1728.0,1711.0
5416,1286,1745,0,5527.0,5750.0,1210.0,1131.0,1741.0,1728.0
5408,1344,1745,0,5416.0,5527.0,1286.0,1210.0,1745.0,1741.0
5476,1385,1749,0,5408.0,5416.0,1344.0,1286.0,1745.0,1745.0
5614,1402,1748,0,5476.0,5408.0,1385.0,1344.0,1749.0,1745.0
5746,1431,1766,0,5614.0,5476.0,1402.0,1385.0,1748.0,1749.0
5894,1430,1696,0,5746.0,5614.0,1431.0,1402.0,1766.0,1748.0
5993,1439,1615,0,5894.0,5746.0,1430.0,1431.0,1696.0,1766.0
6064,1443,1568,0,5993.0,5894.0,1439.0,1430.0,1615.0,1696.0
6125,1455,1580,0,6064.0,5993.0,1443.0,1439.0,1568.0,1615.0
6153,1455,1617,0,6125.0,6064.0,1455.0,1443.0,1580.0,1568.0
6123,1431,1661,0,6153.0,6125.0,1455.0,1455.0,1617.0,1580.0
6040,1412,1713,0,6123.0,6153.0,1431.0,1455.0,1661.0,1617.0
5941,1396,1723,0,6040.0,6123.0,1412.0,1431.0,1713.0,1661.0
5810,1414,1680,0,5941.0,6040.0,1396.0,1412.0,1723.0,1713.0
5660,1455,1630,0,5810.0,5941.0,1414.0,1396.0,1680.0,1723.0
5522,1514,1591,0,5660.0,5810.0,1455.0,1414.0,1630.0,1680.0
5402,1600,1583,0,5522.0,5660.0,1514.0,1455.0,1591.0,1630.0
5312,1686,1584,0,5402.0,5522.0,1600.0,1514.0,1583.0,1591.0
5254,1755,1590,0,5312.0,5402.0,1686.0,1600.0,1584.0,1583.0
5240,1805,1586,0,5254.0,5312.0,1755.0,1686.0,1590.0,1584.0
5229,1867,1580,0,5240.0,5254.0,1805.0,1755.0,1586.0,1590.0
5202,1930,1566,0,5229.0,5240.0,1867.0,1805.0,1580.0,1586.0
5150,1992,1554,0,5202.0,5229.0,1930.0,1867.0,1566.0,1580.0
5062,2050,1541,0,5150.0,5202.0,1992.0,1930.0,1554.0,1566.0
4946,2093,1519,0,5062.0,5150.0,2050.0,1992.0,1541.0,1554.0
4785,2135,1484,0,4946.0,5062.0,2093.0,2050.0,1519.0,1541.0
4607,2157,1434,0,4785.0,4946.0,2135.0,2093.0,1484.0,1519.0
4427,2151,1388,0,4607.0,4785.0,2157.0,2135.0,1434.0,1484.0
4267,2123,1353,0,4427.0,4607.0,2151.0,2157.0,1388.0,1434.0
4149,2086,1325,0,4267.0,4427.0,2123.0,2151.0,1353.0,1388.0
4049,2040,1305,0,4149.0,4267.0,2086.0,2123.0,1325.0,1353.0
3959,1972,1289,0,4049.0,4149.0,2040.0,2086.0,1305.0,1325.0
3863,1887,1263,0,3959.0,4049.0,1972.0,2040.0,1289.0,1305.0
3760,1787,1227,0,3863.0,3959.0,1887.0,1972.0,1263.0,1289.0
3651,1694,1192,0,3760.0,3863.0,1787.0,1887.0,1227.0,1263.0
3534,1612,1155,0,3651.0,3760.0,1694.0,1787.0,1192.0,1227.0
3408,1531,1125,0,3534.0,3651.0,1612.0,1694.0,1155.0,1192.0
3275,1459,1097,0,3408.0,3534.0,1531.0,1612.0,1125.0,1155.0
3143,1388,1076,0,3275.0,3408.0,1459.0,1531.0,1097.0,1125.0
3012,1318,1057,0,3143.0,3275.0,1388.0,1459.0,1076.0,1097.0
2884,1247,1040,0,3012.0,3143.0,1318.0,1388.0,1057.0,1076.0
2752,1173,1030,0,2884.0,3012.0,1247.0,1318.0,1040.0,1057.0
2620,1110,1013,0,2752.0,2884.0,1173.0,1247.0,1030.0,1040.0
2486,1051,994,0,2620.0,2752.0,1110.0,1173.0,1013.0,1030.0
2337,993,967,0,2486.0,2620.0,1051.0,1110.0,994.0,1013.0
2182,938,941,0,2337.0,2486.0,993.0,1051.0,967.0,994.0
2021,883,912,0,2182.0,2337.0,938.0,993.0,941.0,967.0
1857,827,896,0,2021.0,2182.0,883.0,938.0,912.0,941.0
1697,782,893,0,1857.0,2021.0,827.0,883.0,896.0,912.0
1551,753,901,0,1697.0,1857.0,782.0,827.0,893.0,896.0
1426,735,924,0,1551.0,1697.0,753.0,782.0,901.0,893.0
1337,722,942,0,1426.0,1551.0,735.0,753.0,924.0,901.0
1289,705,944,0,1337.0,1426.0,722.0,735.0,942.0,924.0
1280,701,930,0,1289.0,1337.0,705.0,722.0,944.0,942.0
1294,707,902,0,1280.0,1289.0,701.0,705.0,930.0,944.0
1329,731,877,0,1294.0,1280.0,707.0,701.0,902.0,930.0
1377,760,863,0,1329.0,1294.0,731.0,707.0,877.0,902.0
1426,783,840,0,1377.0,1329.0,760.0,731.0,863.0,877.0
1463,779,798,0,1426.0,1377.0,783.0,760.0,840.0,863.0
1505,743,736,0,1463.0,1426.0,779.0,783.0,798.0,840.0
1538,688,668,0,1505.0,1463.0,743.0,779.0,736.0,798.0
1549,611,613,0,1538.0,1505.0,688.0,743.0,668.0,736.0
1532,509,570,0,1549.0,1538.0,611.0,688.0,613.0,668.0
1479,397,550,0,1532.0,1549.0,509.0,611.0,570.0,613.0
1389,285,559,0,1479.0,1532.0,397.0,509.0,550.0,570.0
1285,176,592,0,1389.0,1479.0,285.0,397.0,559.0,550.0
1196,63,654,0,1285.0,1389.0,176.0,285.0,592.0,559.0
1153,-43,734,0,1196.0,1285.0,63.0,176.0,654.0,592.0
1165,-119,809,0,1153.0,1196.0,-43.0,63.0,734.0,654.0
1249,-170,854,0,1165.0,1153.0,-119.0,-43.0,809.0,734.0
1388,-207,863,0,1249.0,1165.0,-170.0,-119.0,854.0,809.0
1564,-236,865,0,1388.0,1249.0,-207.0,-170.0,863.0,854.0
1768,-246,866,0,1564.0,1388.0,-236.0,-207.0,865.0,863.0
1997,-227,881,0,1768.0,1564.0,-246.0,-236.0,866.0,865.0
2238,-182,893,0,1997.0,1768.0,-227.0,-246.0,881.0,866.0
2496,-147,869,0,2238.0,1997.0,-182.0,-227.0,893.0,881.0
2744,-119,800,0,2496.0,2238.0,-147.0,-182.0,869.0,893.0
2976,-80,732,0,2744.0,2496.0,-119.0,-147.0,800.0,869.0
3184,-35,689,0,2976.0,2744.0,-80.0,-119.0,732.0,800.0
3363,12,669,0,3184.0,2976.0,-35.0,-80.0,689.0,732.0
3532,72,665,0,3363.0,3184.0,12.0,-35.0,669.0,689.0
3676,154,661,0,3532.0,3363.0,72.0,12.0,665.0,669.0
3780,253,635,0,3676.0,3532.0,154.0,72.0,661.0,665.0
3848,359,577,0,3780.0,3676.0,253.0,154.0,635.0,661.0
3879,484,517,0,3848.0,3780.0,359.0,253.0,577.0,635.0
3857,619,477,0,3879.0,3848.0,484.0,359.0,517.0,577.0
3785,747,472,0,3857.0,3879.0,619.0,484.0,477.0,517.0
3684,822,472,0,3785.0,3857.0,747.0,619.0,472.0,477.0
3553,876,570,0,3684.0,3785.0,822.0,747.0,472.0,472.0
3405,905,793,0,3553.0,3684.0,876.0,822.0,570.0,472.0
3248,885,1051,0,3405.0,3553.0,905.0,876.0,793.0,570.0
3078,825,1244,0,3248.0,3405.0,885.0,905.0,1051.0,793.0
2893,745,1408,0,3078.0,3248.0,825.0,885.0,1244.0,1051.0
2729,628,1595,0,2893.0,3078.0,745.0,825.0,1408.0,1244.0
2632,503,1815,0,2729.0,2893.0,628.0,745.0,1595.0,1408.0
2644,388,2035,0,2632.0,2729.0,503.0,628.0,1815.0,1595.0
2797,223,2178,0,2644.0,2632.0,388.0,503.0,2035.0,1815.0
3115,-45,2091,0,2797.0,2644.0,223.0,388.0,2178.0,2035.0
3572,-321,1771,0,3115.0,2797.0,-45.0,223.0,2091.0,2178.0
4110,-471,1319,0,3572.0,3115.0,-321.0,-45.0,1771.0,2091.0
4697,-461,890,0,4110.0,3572.0,-471.0,-321.0,1319.0,1771.0
5316,-367,609,0,4697.0,4110.0,-461.0,-471.0,890.0,1319.0
5943,-250,490,0,5316.0,4697.0,-367.0,-461.0,609.0,890.0
6521,-156,443,0,5943.0,5316.0,-250.0,-367.0,490.0,609.0
6955,-142,321,0,6521.0,5943.0,-156.0,-250.0,443.0,490.0
7179,-233,223,0,6955.0,6521.0,-142.0,-156.0,321.0,443.0
7182,-464,346,0,7179.0,6955.0,-233.0,-142.0,223.0,321.0
6975,-763,513,0,7182.0,7179.0,-464.0,-233.0,346.0,223.0
6471,-851,398,0,6975.0,7182.0,-763.0,-464.0,513.0,346.0
5635,-653,46,0,6471.0,6975.0,-851.0,-763.0,398.0,513.0
4685,-410,-325,0,5635.0,6471.0,-653.0,-851.0,46.0,398.0
3873,-369,-576,0,4685.0,5635.0,-410.0,-653.0,-325.0,46.0
3289,-434,-693,0,3873.0,4685.0,-369.0,-410.0,-576.0,-325.0
2962,-322,-737,0,3289.0,3873.0,-434.0,-369.0,-693.0,-576.0
2950,21,-679,0,2962.0,3289.0,-322.0,-434.0,-737.0,-693.0
3273,481,-395,0,2950.0,2962.0,21.0,-322.0,-679.0,-737.0
3830,964,44,0,3273.0,2950.0,481.0,21.0,-395.0,-679.0
4455,1402,439,0,3830.0,3273.0,964.0,481.0,44.0,-395.0
4960,1776,692,0,4455.0,3830.0,1402.0,964.0,439.0,44.0
5282,2023,831,0,4960.0,4455.0,1776.0,1402.0,692.0,439.0
5406,2198,1034,0,5282.0,4960.0,2023.0,1776.0,831.0,692.0
5428,2283,1385,0,5406.0,5282.0,2198.0,2023.0,1034.0,831.0
5474,2273,1793,0,5428.0,5406.0,2283.0,2198.0,1385.0,1034.0
5693,2212,2140,0,5474.0,5428.0,2273.0,2283.0,1793.0,1385.0
6183,2157,2316,0,5693.0,5474.0,2212.0,2273.0,2140.0,1793.0
6905,2145,2186,0,6183.0,5693.0,2157.0,2212.0,2316.0,2140.0
7676,2211,1706,0,6905.0,6183.0,2145.0,2157.0,2186.0,2316.0
8297,2361,1028,0,7676.0,6905.0,2211.0,2145.0,1706.0,2186.0
8589,2527,330,0,8297.0,7676.0,2361.0,2211.0,1028.0,1706.0
8508,2618,-217,0,8589.0,8297.0,2527.0,2361.0,330.0,1028.0
8097,2567,-519,0,8508.0,8589.0,2618.0,2527.0,-217.0,330.0
7411,2392,-516,0,8097.0,8508.0,2567.0,2618.0,-519.0,-217.0
6537,2116,-276,0,7411.0,8097.0,2392.0,2567.0,-516.0,-519.0
5587,1823,27,0,6537.0,7411.0,2116.0,2392.0,-276.0,-516.0
4696,1582,278,0,5587.0,6537.0,1823.0,2116.0,27.0,-276.0
3949,1464,369,0,4696.0,5587.0,1582.0,1823.0,278.0,27.0
3443,1518,372,0,3949.0,4696.0,1464.0,1582.0,369.0,278.0
3216,1689,397,0,3443.0,3949.0,1518.0,1464.0,372.0,369.0
3226,1907,488,0,3216.0,3443.0,1689.0,1518.0,397.0,372.0
3410,2120,638,0,3226.0,3216.0,1907.0,1689.0,488.0,397.0
3679,2285,813,0,3410.0,3226.0,2120.0,1907.0,638.0,488.0
3943,2374,966,0,3679.0,3410.0,2285.0,2120.0,813.0,638.0
4145,2398,1080,0,3943.0,3679.0,2374.0,2285.0,966.0,813.0
4249,2384,1138,0,4145.0,3943.0,2398.0,2374.0,1080.0,966.0
4248,2346,1142,0,4249.0,4145.0,2384.0,2398.0,1138.0,1080.0
4167,2294,1102,0,4248.0,4249.0,2346.0,2384.0,1142.0,1138.0
4045,2214,1046,0,4167.0,4248.0,2294.0,2346.0,1102.0,1142.0
3911,2123,968,0,4045.0,4167.0,2214.0,2294.0,1046.0,1102.0
3805,2026,894,0,3911.0,4045.0,2123.0,2214.0,968.0,1046.0
3730,1947,828,0,3805.0,3911.0,2026.0,2123.0,894.0,968.0
3707,1893,784,0,3730.0,3805.0,1947.0,2026.0,828.0,894.0
3721,1854,746,0,3707.0,3730.0,1893.0,1947.0,784.0,828.0
3748,1809,702,0,3721.0,3707.0,1854.0,1893.0,746.0,784.0
3786,1736,654,0,3748.0,3721.0,1809.0,1854.0,702.0,746.0
3807,1640,593,0,3786.0,3748.0,1736.0,1809.0,654.0,702.0
3810,1528,525,0,3807.0,3786.0,1640.0,1736.0,593.0,654.0
3800,1415,471,0,3810.0,3807.0,1528.0,1640.0,525.0,593.0
3777,1298,435,0,3800.0,3810.0,1415.0,1528.0,471.0,525.0
3752,1175,425,0,3777.0,3800.0,1298.0,1415.0,435.0,471.0
3723,1051,432,0,3752.0,3777.0,1175.0,1298.0,425.0,435.0
3693,933,449,0,3723.0,3752.0,1051.0,1175.0,432.0,425.0
3659,828,473,0,3693.0,3723.0,933.0,1051.0,449.0,432.0
3620,747,467,0,3659.0,3693.0,828.0,933.0,473.0,449.0
3575,697,442,0,3620.0,3659.0,747.0,828.0,467.0,473.0
3525,649,415,0,3575.0,3620.0,697.0,747.0,442.0,467.0
3478,601,397,0,3525.0,3575.0,649.0,697.0,415.0,442.0
3420,563,374,0,3478.0,3525.0,601.0,649.0,397.0,415.0
3334,549,340,0,3420.0,3478.0,563.0,601.0,374.0,397.0
3231,569,310,0,3334.0,3420.0,549.0,563.0,340.0,374.0
3130,605,304,0,3231.0,3334.0,569.0,549.0,310.0,340.0
3038,651,309,0,3130.0,3231.0,605.0,569.0,304.0,310.0
2954,716,333,0,3038.0,3130.0,651.0,605.0,309.0,304.0
2887,804,368,0,2954.0,3038.0,716.0,651.0,333.0,309.0
2841,895,430,0,2887.0,2954.0,804.0,716.0,368.0,333.0
2800,976,509,0,2841.0,2887.0,895.0,804.0,430.0,368.0
2765,1031,553,0,2800.0,2841.0,976.0,895.0,509.0,430.0
2727,1079,572,0,2765.0,2800.0,1031.0,976.0,553.0,509.0
2683,1140,598,0,2727.0,2765.0,1079.0,1031.0,572.0,553.0
2644,1215,632,0,2683.0,2727.0,1140.0,1079.0,598.0,572.0
2607,1289,653,0,2644.0,2683.0,1215.0,1140.0,632.0,598.0
2582,1360,680,0,2607.0,2644.0,1289.0,1215.0,653.0,632.0
2560,1442,733,0,2582.0,2607.0,1360.0,1289.0,680.0,653.0
2542,1519,805,0,2560.0,2582.0,1442.0,1360.0,733.0,680.0
2524,1568,847,0,2542.0,2560.0,1519.0,1442.0,805.0,733.0
2498,1565,836,0,2524.0,2542.0,1568.0,1519.0,847.0,805.0
2450,1551,748,0,2498.0,2524.0,1565.0,1568.0,836.0,847.0
2400,1543,623,0,2450.0,2498.0,1551.0,1565.0,748.0,836.0
2358,1529,513,0,2400.0,2450.0,1543.0,1551.0,623.0,748.0
2346,1502,450,0,2358.0,2400.0,1529.0,1543.0,513.0,623.0
2357,1449,437,0,2346.0,2358.0,1502.0,1529.0,450.0,513.0
2386,1362,449,0,2357.0,2346.0,1449.0,1502.0,437.0,450.0
2417,1272,506,0,2386.0,2357.0,1362.0,1449.0,449.0,437.0
2447,1176,583,0,2417.0,2386.0,1272.0,1362.0,506.0,449.0
2476,1068,645,0,2447.0,2417.0,1176.0,1272.0,583.0,506.0
2507,975,679,0,2476.0,2447.0,1068.0,1176.0,645.0,583.0
2556,912,700,0,2507.0,2476.0,975.0,1068.0,679.0,645.0
2619,874,714,0,2556.0,2507.0,912.0,975.0,700.0,679.0
2696,847,698,0,2619.0,2556.0,874.0,912.0,714.0,700.0
2790,836,654,0,2696.0,2619.0,847.0,874.0,698.0,714.0
2890,865,609,0,2790.0,2696.0,836.0,847.0,654.0,698.0
2993,925,593,0,2890.0,2790.0,865.0,836.0,609.0,654.0
3093,1003,624,0,2993.0,2890.0,925.0,865.0,593.0,609.0
3181,1061,671,0,3093.0,2993.0,1003.0,925.0,624.0,593.0
3248,1089,681,0,3181.0,3093.0,1061.0,1003.0,671.0,624.0
3287,1099,655,0,3248.0,3181.0,1089.0,1061.0,681.0,671.0
3293,1087,621,0,3287.0,3248.0,1099.0,1089.0,655.0,681.0
3265,1068,571,0,3293.0,3287.0,1087.0,1099.0,621.0,655.0
3211,1042,518,0,3265.0,3293.0,1068.0,1087.0,571.0,621.0
3142,1026,466,0,3211.0,3265.0,1042.0,1068.0,518.0,571.0
3059,1038,439,0,3142.0,3211.0,1026.0,1042.0,466.0,518.0
2969,1060,424,0,3059.0,3142.0,1038.0,1026.0,439.0,466.0
2862,1085,378,0,2969.0,3059.0,1060.0,1038.0,424.0,439.0
2754,1119,309,0,2862.0,2969.0,1085.0,1060.0,378.0,424.0
2657,1167,252,0,2754.0,2862.0,1119.0,1085.0,309.0,378.0
2582,1223,206,0,2657.0,2754.0,1167.0,1119.0,252.0,309.0
2526,1280,167,0,2582.0,2657.0,1223.0,1167.0,206.0,252.0
2493,1329,129,0,2526.0,2582.0,1280.0,1223.0,167.0,206.0
2485,1353,100,0,2493.0,2526.0,1329.0,1280.0,129.0,167.0
2512,1363,113,0,2485.0,2493.0,1353.0,1329.0,100.0,129.0
2592,1355,209,0,2512.0,2485.0,1363.0,1353.0,113.0,100.0
2733,1321,376,0,2592.0,2512.0,1355.0,1363.0,209.0,113.0
2915,1260,560,0,2733.0,2592.0,1321.0,1355.0,376.0,209.0
3152,1168,721,0,2915.0,2733.0,1260.0,1321.0,560.0,376.0
3432,1064,843,0,3152.0,2915.0,1168.0,1260.0,721.0,560.0
3762,947,950,0,3432.0,3152.0,1064.0,1168.0,843.0,721.0
4127,822,1054,0,3762.0,3432.0,947.0,1064.0,950.0,843.0
4516,684,1179,0,4127.0,3762.0,822.0,947.0,1054.0,950.0
4925,487,1280,0,4516.0,4127.0,684.0,822.0,1179.0,1054.0
5312,273,1312,0,4925.0,4516.0,487.0,684.0,1280.0,1179.0
5650,81,1315,0,5312.0,4925.0,273.0,487.0,1312.0,1280.0
5937,-67,1350,0,5650.0,5312.0,81.0,273.0,1315.0,1312.0
6157,-178,1420,0,5937.0,5650.0,-67.0,81.0,1350.0,1315.0
6267,-272,1465,0,6157.0,5937.0,-178.0,-67.0,1420.0,1350.0
6282,-364,1481,0,6267.0,6157.0,-272.0,-178.0,1465.0,1420.0
6221,-449,1494,0,6282.0,6267.0,-364.0,-272.0,1481.0,1465.0
6109,-509,1538,0,6221.0,6282.0,-449.0,-364.0,1494.0,1481.0
5963,-567,1555,0,6109.0,6221.0,-509.0,-449.0,1538.0,1494.0
5810,-605,1482,0,5963.0,6109.0,-567.0,-509.0,1555.0,1538.0
5661,-573,1411,0,5810.0,5963.0,-605.0,-567.0,1482.0,1555.0
5541,-464,1503,0,5661.0,5810.0,-573.0,-605.0,1411.0,1482.0
5421,-309,1694,0,5541.0,5661.0,-464.0,-573.0,1503.0,1411.0
5360,-197,1815,0,5421.0,5541.0,-309.0,-464.0,1694.0,1503.0
5382,-158,1854,0,5360.0,5421.0,-197.0,-309.0,1815.0,1694.0
5482,-131,1867,0,5382.0,5360.0,-158.0,-197.0,1854.0,1815.0
5636,-60,1887,0,5482.0,5382.0,-131.0,-158.0,1867.0,1854.0
5803,75,1903,0,5636.0,5482.0,-60.0,-131.0,1887.0,1867.0
5979,262,1893,0,5803.0,5636.0,75.0,-60.0,1903.0,1887.0
6138,500,1888,0,5979.0,5803.0,262.0,75.0,1893.0,1903.0
6243,790,1882,0,6138.0,5979.0,500.0,262.0,1888.0,1893.0
6295,1092,1863,0,6243.0,6138.0,790.0,500.0,1882.0,1888.0
6284,1390,1830,0,6295.0,6243.0,1092.0,790.0,1863.0,1882.0
6210,1693,1811,0,6284.0,6295.0,1390.0,1092.0,1830.0,1863.0
6106,1961,1784,0,6210.0,6284.0,1693.0,1390.0,1811.0,1830.0
6002,2198,1725,0,6106.0,6210.0,1961.0,1693.0,1784.0,1811.0
5878,2435,1636,0,6002.0,6106.0,2198.0,1961.0,1725.0,1784.0
5743,2652,1493,0,5878.0,6002.0,2435.0,2198.0,1636.0,1725.0
5590,2869,1332,0,5743.0,5878.0,2652.0,2435.0,1493.0,1636.0
5422,3052,1193,0,5590.0,5743.0,2869.0,2652.0,1332.0,1493.0
5247,3158,1110,0,5422.0,5590.0,3052.0,2869.0,1193.0,1332.0
5060,3183,1083,0,5247.0,5422.0,3158.0,3052.0,1110.0,1193.0
4846,3171,1090,0,5060.0,5247.0,3183.0,3158.0,1083.0,1110.0
4610,3146,1098,0,4846.0,5060.0,3171.0,3183.0,1090.0,1083.0
4374,3087,1111,0,4610.0,4846.0,3146.0,3171.0,1098.0,1090.0
4155,2975,1136,0,4374.0,4610.0,3087.0,3146.0,1111.0,1098.0
3970,2840,1169,0,4155.0,4374.0,2975.0,3087.0,1136.0,1111.0
3835,2708,1210,0,3970.0,4155.0,2840.0,2975.0,1169.0,1136.0
3740,2593,1239,0,3835.0,3970.0,2708.0,2840.0,1210.0,1169.0
3665,2493,1248,0,3740.0,3835.0,2593.0,2708.0,1239.0,1210.0
3606,2404,1248,0,3665.0,3740.0,2493.0,2593.0,1248.0,1239.0
3546,2323,1241,0,3606.0,3665.0,2404.0,2493.0,1248.0,1248.0
3475,2232,1234,0,3546.0,3606.0,2323.0,2404.0,1241.0,1248.0
3393,2130,1231,0,3475.0,3546.0,2232.0,2323.0,1234.0,1241.0
3292,2029,1230,0,3393.0,3475.0,2130.0,2232.0,1231.0,1234.0
3174,1927,1240,0,3292.0,3393.0,2029.0,2130.0,1230.0,1231.0
3035,1828,1251,0,3174.0,3292.0,1927.0,2029.0,1240.0,1230.0
2884,1731,1250,0,3035.0,3174.0,1828.0,1927.0,1251.0,1240.0
2725,1627,1238,0,2884.0,3035.0,1731.0,1828.0,1250.0,1251.0
2576,1513,1228,0,2725.0,2884.0,1627.0,1731.0,1238.0,1250.0
2430,1410,1215,0,2576.0,2725.0,1513.0,1627.0,1228.0,1238.0
2298,1318,1189,0,2430.0,2576.0,1410.0,1513.0,1215.0,1228.0
2183,1240,1150,0,2298.0,2430.0,1318.0,1410.0,1189.0,1215.0
2090,1185,1100,0,2183.0,2298.0,1240.0,1318.0,1150.0,1189.0
2010,1149,1047,0,2090.0,2183.0,1185.0,1240.0,1100.0,1150.0
1946,1114,1008,0,2010.0,2090.0,1149.0,1185.0,1047.0,1100.0
1900,1080,978,0,1946.0,2010.0,1114.0,1149.0,1008.0,1047.0
1865,1050,954,0,1900.0,1946.0,1080.0,1114.0,978.0,1008.0
1849,1036,927,0,1865.0,1900.0,1050.0,1080.0,954.0,978.0
1842,1031,905,0,1849.0,1865.0,1036.0,1050.0,927.0,954.0
1837,1035,883,0,1842.0,1849.0,1031.0,1036.0,905.0,927.0
1836,1040,875,0,1837.0,1842.0,1035.0,1031.0,883.0,905.0
1845,1034,873,0,1836.0,1837.0,1040.0,1035.0,875.0,883.0
1869,1006,844,0,1845.0,1836.0,1034.0,1040.0,873.0,875.0
1919,953,788,0,1869.0,1845.0,1006.0,1034.0,844.0,873.0
1991,898,700,0,1919.0,1869.0,953.0,1006.0,788.0,844.0
2059,858,622,0,1991.0,1919.0,898.0,953.0,700.0,788.0
2115,829,566,0,2059.0,1991.0,858.0,898.0,622.0,700.0
2142,815,542,0,2115.0,2059.0,829.0,858.0,566.0,622.0
2134,798,539,0,2142.0,2115.0,815.0,829.0,542.0,566.0
2095,772,542,0,2134.0,2142.0,798.0,815.0,539.0,542.0
2030,736,542,0,2095.0,2134.0,772.0,798.0,542.0,539.0
1949,695,541,0,2030.0,2095.0,736.0,772.0,542.0,542.0
1865,624,544,0,1949.0,2030.0,695.0,736.0,541.0,542.0
1791,527,548,0,1865.0,1949.0,624.0,695.0,544.0,541.0
1717,419,543,0,1791.0,1865.0,527.0,624.0,548.0,544.0
1643,316,557,0,1717.0,1791.0,419.0,527.0,543.0,548.0
1578,229,569,0,1643.0,1717.0,316.0,419.0,557.0,543.0
1536,162,590,0,1578.0,1643.0,229.0,316.0,569.0,557.0
1517,101,612,0,1536.0,1578.0,162.0,229.0,590.0,569.0
1533,54,642,0,1517.0,1536.0,101.0,162.0,612.0,590.0
1591,44,681,0,1533.0,1517.0,54.0,101.0,642.0,612.0
1692,61,721,0,1591.0,1533.0,44.0,54.0,681.0,642.0
1836,114,772,0,1692.0,1591.0,61.0,44.0,721.0,681.0
1999,191,818,0,1836.0,1692.0,114.0,61.0,772.0,721.0
2193,272,855,0,1999.0,1836.0,191.0,114.0,818.0,772.0
2401,342,861,0,2193.0,1999.0,272.0,191.0,855.0,818.0
2610,396,853,0,2401.0,2193.0,342.0,272.0,861.0,855.0
2816,435,826,0,2610.0,2401.0,396.0,342.0,853.0,861.0
3013,461,792,0,2816.0,2610.0,435.0,396.0,826.0,853.0
3196,487,769,0,3013.0,2816.0,461.0,435.0,792.0,826.0
3347,510,742,0,3196.0,3013.0,487.0,461.0,769.0,792.0
3471,550,729,0,3347.0,3196.0,510.0,487.0,742.0,769.0
3552,590,720,0,3471.0,3347.0,550.0,510.0,729.0,742.0
3581,607,691,0,3552.0,3471.0,590.0,550.0,720.0,729.0
3530,610,675,0,3581.0,3552.0,607.0,590.0,691.0,720.0
3443,590,655,0,3530.0,3581.0,610.0,607.0,675.0,691.0
3329,562,659,0,3443.0,3530.0,590.0,610.0,655.0,675.0
3229,540,722,0,3329.0,3443.0,562.0,590.0,659.0,655.0
3152,544,875,0,3229.0,3329.0,540.0,562.0,722.0,659.0
3080,571,1080,0,3152.0,3229.0,544.0,540.0,875.0,722.0
3032,597,1263,0,3080.0,3152.0,571.0,544.0,1080.0,875.0
3025,612,1406,0,3032.0,3080.0,597.0,571.0,1263.0,1080.0
3091,603,1550,0,3025.0,3032.0,612.0,597.0,1406.0,1263.0
3235,551,1628,0,3091.0,3025.0,603.0,612.0,1550.0,1406.0
3448,470,1526,0,3235.0,3091.0,551.0,603.0,1628.0,1550.0
3712,379,1296,0,3448.0,3235.0,470.0,551.0,1526.0,1628.0
4036,334,1106,0,3712.0,3448.0,379.0,470.0,1296.0,1526.0
4431,356,1044,0,4036.0,3712.0,334.0,379.0,1106.0,1296.0
4868,461,1095,0,4431.0,4036.0,356.0,334.0,1044.0,1106.0
5320,599,1212,0,4868.0,4431.0,461.0,356.0,1095.0,1044.0
5764,685,1359,0,5320.0,4868.0,599.0,461.0,1212.0,1095.0
6179,628,1451,0,5764.0,5320.0,685.0,599.0,1359.0,1212.0
6502,383,1337,0,6179.0,5764.0,628.0,685.0,1451.0,1359.0
6665,73,1055,0,6502.0,6179.0,383.0,628.0,1337.0,1451.0
6608,-130,800,0,6665.0,6502.0,73.0,383.0,1055.0,1337.0
6302,-148,636,0,6608.0,6665.0,-130.0,73.0,800.0,1055.0
5793,-37,535,0,6302.0,6608.0,-148.0,-130.0,636.0,800.0
5165,123,483,0,5793.0,6302.0,-37.0,-148.0,535.0,636.0
4560,235,514,0,5165.0,5793.0,123.0,-37.0,483.0,535.0
4039,262,613,0,4560.0,5165.0,235.0,123.0,514.0,483.0
3667,267,727,0,4039.0,4560.0,262.0,235.0,613.0,514.0
3520,351,768,0,3667.0,4039.0,267.0,262.0,727.0,613.0
3604,584,769,0,3520.0,3667.0,351.0,267.0,768.0,727.0
3887,880,796,0,3604.0,3520.0,584.0,351.0,769.0,768.0
4291,1145,848,0,3887.0,3604.0,880.0,584.0,796.0,769.0
4738,1352,864,0,4291.0,3887.0,1145.0,880.0,848.0,796.0
5122,1532,797,0,4738.0,4291.0,1352.0,1145.0,864.0,848.0
5386,1726,674,0,5122.0,4738.0,1532.0,1352.0,797.0,864.0
5561,1879,542,0,5386.0,5122.0,1726.0,1532.0,674.0,797.0
5700,1948,461,0,5561.0,5386.0,1879.0,1726.0,542.0,674.0
5812,1924,429,0,5700.0,5561.0,1948.0,1879.0,461.0,542.0
5873,1863,402,0,5812.0,5700.0,1924.0,1948.0,429.0,461.0
5882,1852,419,0,5873.0,5812.0,1863.0,1924.0,402.0,429.0
5843,1883,491,0,5882.0,5873.0,1852.0,1863.0,419.0,402.0
5782,1884,595,0,5843.0,5882.0,1883.0,1852.0,491.0,419.0
5670,1854,671,0,5782.0,5843.0,1884.0,1883.0,595.0,491.0
5527,1842,683,0,5670.0,5782.0,1854.0,1884.0,671.0,595.0
5395,1847,666,0,5527.0,5670.0,1842.0,1854.0,683.0,671.0
5309,1851,679,0,5395.0,5527.0,1847.0,1842.0,666.0,683.0
5279,1844,723,0,5309.0,5395.0,1851.0,1847.0,679.0,666.0
5314,1822,790,0,5279.0,5309.0,1844.0,1851.0,723.0,679.0
5412,1761,862,0,5314.0,5279.0,1822.0,1844.0,790.0,723.0
5534,1679,919,0,5412.0,5314.0,1761.0,1822.0,862.0,790.0
5646,1602,951,0,5534.0,5412.0,1679.0,1761.0,919.0,862.0
5727,1526,975,0,5646.0,5534.0,1602.0,1679.0,951.0,919.0
5755,1458,1026,0,5727.0,5646.0,1526.0,1602.0,975.0,951.0
5701,1384,1069,0,5755.0,5727.0,1458.0,1526.0,1026.0,975.0
5570,1304,1088,0,5701.0,5755.0,1384.0,1458.0,1069.0,1026.0
5381,1227,1068,0,5570.0,5701.0,1304.0,1384.0,1088.0,1069.0
5166,1159,1017,0,5381.0,5570.0,1227.0,1304.0,1068.0,1088.0
4956,1112,982,0,5166.0,5381.0,1159.0,1227.0,1017.0,1068.0
4777,1091,966,0,4956.0,5166.0,1112.0,1159.0,982.0,1017.0
4613,1099,947,0,4777.0,4956.0,1091.0,1112.0,966.0,982.0
4468,1119,919,0,4613.0,4777.0,1099.0,1091.0,947.0,966.0
4338,1139,891,0,4468.0,4613.0,1119.0,1099.0,919.0,947.0
4221,1166,867,0,4338.0,4468.0,1139.0,1119.0,891.0,919.0
4124,1202,855,0,4221.0,4338.0,1166.0,1139.0,867.0,891.0
4019,1237,848,0,4124.0,4221.0,1202.0,1166.0,855.0,867.0
3920,1266,846,0,4019.0,4124.0,1237.0,1202.0,848.0,855.0
3830,1286,857,0,3920.0,4019.0,1266.0,1237.0,846.0,848.0
3756,1296,876,0,3830.0,3920.0,1286.0,1266.0,857.0,846.0
3689,1291,897,0,3756.0,3830.0,1296.0,1286.0,876.0,857.0
3633,1272,900,0,3689.0,3756.0,1291.0,1296.0,897.0,876.0
3581,1231,888,0,3633.0,3689.0,1272.0,1291.0,900.0,897.0
3525,1175,851,0,3581.0,3633.0,1231.0,1272.0,888.0,900.0
3479,1118,814,0,3525.0,3581.0,1175.0,1231.0,851.0,888.0
3443,1055,771,0,3479.0,3525.0,1118.0,1175.0,814.0,851.0
3418,992,727,0,3443.0,3479.0,1055.0,1118.0,771.0,814.0
3406,932,690,0,3418.0,3443.0,992.0,1055.0,727.0,771.0
3404,877,655,0,3406.0,3418.0,932.0,992.0,690.0,727.0
3393,821,610,0,3404.0,3406.0,877.0,932.0,655.0,690.0
3382,782,576,0,3393.0,3404.0,821.0,877.0,610.0,655.0
3362,764,559,0,3382.0,3393.0,782.0,821.0,576.0,610.0
3330,776,547,0,3362.0,3382.0,764.0,782.0,559.0,576.0
3288,799,525,0,3330.0,3362.0,776.0,764.0,547.0,559.0
3237,842,501,0,3288.0,3330.0,799.0,776.0,525.0,547.0
3186,887,508,0,3237.0,3288.0,842.0,799.0,501.0,525.0
3120,941,520,0,3186.0,3237.0,887.0,842.0,508.0,501.0
3041,1004,521,0,3120.0,3186.0,941.0,887.0,520.0,508.0
2953,1077,530,0,3041.0,3120.0,1004.0,941.0,521.0,520.0
2866,1162,528,0,2953.0,3041.0,1077.0,1004.0,530.0,521.0
2779,1251,527,0,2866.0,2953.0,1162.0,1077.0,528.0,530.0
2704,1341,528,0,2779.0,2866.0,1251.0,1162.0,527.0,528.0
2648,1429,536,0,2704.0,2779.0,1341.0,1251.0,528.0,527.0
2615,1513,535,0,2648.0,2704.0,1429.0,1341.0,536.0,528.0
2607,1583,531,0,2615.0,2648.0,1513.0,1429.0,535.0,536.0
2618,1642,524,0,2607.0,2615.0,1583.0,1513.0,531.0,535.0
2640,1693,524,0,2618.0,2607.0,1642.0,1583.0,524.0,531.0
2667,1730,537,0,2640.0,2618.0,1693.0,1642.0,524.0,524.0
2687,1749,558,0,2667.0,2640.0,1730.0,1693.0,537.0,524.0
2701,1738,561,0,2687.0,2667.0,1749.0,1730.0,558.0,537.0
2706,1707,538,0,2701.0,2687.0,1738.0,1749.0,561.0,558.0
2694,1679,503,0,2706.0,2701.0,1707.0,1738.0,538.0,561.0
2690,1635,454,0,2694.0,2706.0,1679.0,1707.0,503.0,538.0
2704,1578,419,0,2690.0,2694.0,1635.0,1679.0,454.0,503.0
2717,1536,416,0,2704.0,2690.0,1578.0,1635.0,419.0,454.0
2722,1515,443,0,2717.0,2704.0,1536.0,1578.0,416.0,419.0
2730,1488,475,0,2722.0,2717.0,1515.0,1536.0,443.0,416.0
2730,1464,464,0,2730.0,2722.0,1488.0,1515.0,475.0,443.0
2736,1441,402,0,2730.0,2730.0,1464.0,1488.0,464.0,475.0
2758,1443,332,0,2736.0,2730.0,1441.0,1464.0,402.0,464.0
2797,1480,274,0,2758.0,2736.0,1443.0,1441.0,332.0,402.0
2855,1524,240,0,2797.0,2758.0,1480.0,1443.0,274.0,332.0
2919,1571,225,0,2855.0,2797.0,1524.0,1480.0,240.0,274.0
2978,1614,229,0,2919.0,2855.0,1571.0,1524.0,225.0,240.0
3030,1649,244,0,2978.0,2919.0,1614.0,1571.0,229.0,225.0
3068,1665,268,0,3030.0,2978.0,1649.0,1614.0,244.0,229.0
3100,1670,303,0,3068.0,3030.0,1665.0,1649.0,268.0,244.0
3122,1662,359,0,3100.0,3068.0,1670.0,1665.0,303.0,268.0
3126,1643,420,0,3122.0,3100.0,1662.0,1670.0,359.0,303.0
3130,1612,497,0,3126.0,3122.0,1643.0,1662.0,420.0,359.0
3131,1560,574,0,3130.0,3126.0,1612.0,1643.0,497.0,420.0
3130,1492,647,0,3131.0,3130.0,1560.0,1612.0,574.0,497.0
3123,1408,684,0,3130.0,3131.0,1492.0,1560.0,647.0,574.0
3118,1307,681,0,3123.0,3130.0,1408.0,1492.0,684.0,647.0
3123,1201,648,0,3118.0,3123.0,1307.0,1408.0,681.0,684.0
3133,1085,594,0,3123.0,3118.0,1201.0,1307.0,648.0,681.0
3152,979,525,0,3133.0,3123.0,1085.0,1201.0,594.0,648.0
3178,904,465,0,3152.0,3133.0,979.0,1085.0,525.0,594.0
3190,878,420,0,3178.0,3152.0,904.0,979.0,465.0,525.0
3200,886,379,0,3190.0,3178.0,878.0,904.0,420.0,465.0
3193,925,374,0,3200.0,3190.0,886.0,878.0,379.0,420.0
3171,997,401,0,3193.0,3200.0,925.0,886.0,374.0,379.0
3146,1101,456,0,3171.0,3193.0,997.0,925.0,401.0,374.0
3120,1222,529,0,3146.0,3171.0,1101.0,997.0,456.0,401.0
3080,1338,594,0,3120.0,3146.0,1222.0,1101.0,529.0,456.0
3011,1437,592,0,3080.0,3120.0,1338.0,1222.0,594.0,529.0
2925,1507,527,0,3011.0,3080.0,1437.0,1338.0,592.0,594.0
2841,1549,388,0,2925.0,3011.0,1507.0,1437.0,527.0,592.0
2764,1563,178,0,2841.0,2925.0,1549.0,1507.0,388.0,527.0
2697,1545,-84,0,2764.0,2841.0,1563.0,1549.0,178.0,388.0
2678,1494,-341,0,2697.0,2764.0,1545.0,1563.0,-84.0,178.0
2746,1428,-515,0,2678.0,2697.0,1494.0,1545.0,-341.0,-84.0
2947,1357,-434,0,2746.0,2678.0,1428.0,1494.0,-515.0,-341.0
3301,1246,-24,0,2947.0,2746.0,1357.0,1428.0,-434.0,-515.0
3761,1053,602,0,3301.0,2947.0,1246.0,1357.0,-24.0,-434.0
4225,793,1152,0,3761.0,3301.0,1053.0,1246.0,602.0,-24.0
4632,551,1437,0,4225.0,3761.0,793.0,1053.0,1152.0,602.0
4955,406,1454,0,4632.0,4225.0,551.0,793.0,1437.0,1152.0
5241,329,1344,0,4955.0,4632.0,406.0,551.0,1454.0,1437.0
5540,219,1284,0,5241.0,4955.0,329.0,406.0,1344.0,1454.0
5848,-2,1340,0,5540.0,5241.0,219.0,329.0,1284.0,1344.0
6122,-313,1482,0,5848.0,5540.0,-2.0,219.0,1340.0,1284.0
6306,-673,1565,0,6122.0,5848.0,-313.0,-2.0,1482.0,1340.0
6357,-991,1548,0,6306.0,6122.0,-673.0,-313.0,1565.0,1482.0
6267,-1210,1464,0,6357.0,6306.0,-991.0,-673.0,1548.0,1565.0
6063,-1339,1327,0,6267.0,6357.0,-1210.0,-991.0,1464.0,1548.0
5794,-1406,1184,0,6063.0,6267.0,-1339.0,-1210.0,1327.0,1464.0
5499,-1424,1067,0,5794.0,6063.0,-1406.0,-1339.0,1184.0,1327.0
5215,-1381,979,0,5499.0,5794.0,-1424.0,-1406.0,1067.0,1184.0
4987,-1302,930,0,5215.0,5499.0,-1381.0,-1424.0,979.0,1067.0
4832,-1197,895,0,4987.0,5215.0,-1302.0,-1381.0,930.0,979.0
4766,-1084,859,0,4832.0,4987.0,-1197.0,-1302.0,895.0,930.0
4788,-956,820,0,4766.0,4832.0,-1084.0,-1197.0,859.0,895.0
4879,-797,784,0,4788.0,4766.0,-956.0,-1084.0,820.0,859.0
5016,-584,781,0,4879.0,4788.0,-797.0,-956.0,784.0,820.0
5189,-343,824,0,5016.0,4879.0,-584.0,-797.0,781.0,784.0
5389,-88,939,0,5189.0,5016.0,-343.0,-584.0,824.0,781.0
5595,157,1149,0,5389.0,5189.0,-88.0,-343.0,939.0,824.0
5800,355,1418,0,5595.0,5389.0,157.0,-88.0,1149.0,939.0
6031,520,1795,0,5800.0,5595.0,355.0,157.0,1418.0,1149.0
6217,590,2121,0,6031.0,5800.0,520.0,355.0,1795.0,1418.0
6349,571,2378,0,6217.0,6031.0,590.0,520.0,2121.0,1795.0
6440,503,2547,0,6349.0,6217.0,571.0,590.0,2378.0,2121.0
6503,440,2605,0,6440.0,6349.0,503.0,571.0,2547.0,2378.0
6567,417,2560,0,6503.0,6440.0,440.0,503.0,2605.0,2547.0
6659,469,2434,0,6567.0,6503.0,417.0,440.0,2560.0,2605.0
6767,582,2258,0,6659.0,6567.0,469.0,417.0,2434.0,2560.0
6852,715,2039,0,6767.0,6659.0,582.0,469.0,2258.0,2434.0
6881,833,1810,0,6852.0,6767.0,715.0,582.0,2039.0,2258.0
6836,899,1584,0,6881.0,6852.0,833.0,715.0,1810.0,2039.0
6702,920,1390,0,6836.0,6881.0,899.0,833.0,1584.0,1810.0
6497,924,1257,0,6702.0,6836.0,920.0,899.0,1390.0,1584.0
6224,936,1204,0,6497.0,6702.0,924.0,920.0,1257.0,1390.0
5895,945,1206,0,6224.0,6497.0,936.0,924.0,1204.0,1257.0
5531,965,1221,0,5895.0,6224.0,945.0,936.0,1206.0,1204.0
5148,1021,1230,0,5531.0,5895.0,965.0,945.0,1221.0,1206.0
4764,1144,1237,0,5148.0,5531.0,1021.0,965.0,1230.0,1221.0
4409,1314,1207,0,4764.0,5148.0,1144.0,1021.0,1237.0,1230.0
4091,1488,1171,0,4409.0,4764.0,1314.0,1144.0,1207.0,1237.0
3858,1648,1133,0,4091.0,4409.0,1488.0,1314.0,1171.0,1207.0
3704,1799,1093,0,3858.0,4091.0,1648.0,1488.0,1133.0,1171.0
3611,1945,1036,0,3704.0,3858.0,1799.0,1648.0,1093.0,1133.0
3603,2064,986,0,3611.0,3704.0,1945.0,1799.0,1036.0,1093.0
3636,2145,966,0,3603.0,3611.0,2064.0,1945.0,986.0,1036.0
3680,2195,957,0,3636.0,3603.0,2145.0,2064.0,966.0,986.0
3730,2187,937,0,3680.0,3636.0,2195.0,2145.0,957.0,966.0
3776,2134,913,0,3730.0,3680.0,2187.0,2195.0,937.0,957.0
3820,2055,898,0,3776.0,3730.0,2134.0,2187.0,913.0,937.0
3847,1953,886,0,3820.0,3776.0,2055.0,2134.0,898.0,913.0
3862,1836,844,0,3847.0,3820.0,1953.0,2055.0,886.0,898.0
3855,1725,785,0,3862.0,3847.0,1836.0,1953.0,844.0,886.0
3821,1619,714,0,3855.0,3862.0,1725.0,1836.0,785.0,844.0
3742,1524,635,0,3821.0,3855.0,1619.0,1725.0,714.0,785.0
3629,1432,550,0,3742.0,3821.0,1524.0,1619.0,635.0,714.0
3487,1334,460,0,3629.0,3742.0,1432.0,1524.0,550.0,635.0
3312,1235,366,0,3487.0,3629.0,1334.0,1432.0,460.0,550.0
3134,1136,270,0,3312.0,3487.0,1235.0,1334.0,366.0,460.0
2960,1042,184,0,3134.0,3312.0,1136.0,1235.0,270.0,366.0
2812,945,116,0,2960.0,3134.0,1042.0,1136.0,184.0,270.0
2690,854,63,0,2812.0,2960.0,945.0,1042.0,116.0,184.0
2604,765,30,0,2690.0,2812.0,854.0,945.0,63.0,116.0
2552,676,7,0,2604.0,2690.0,765.0,854.0,30.0,63.0
2536,593,-2,0,2552.0,2604.0,676.0,765.0,7.0,30.0
2559,504,-9,0,2536.0,2552.0,593.0,676.0,-2.0,7.0
2616,413,-2,0,2559.0,2536.0,504.0,593.0,-9.0,-2.0
2694,322,20,0,2616.0,2559.0,413.0,504.0,-2.0,-9.0
2776,232,66,0,2694.0,2616.0,322.0,413.0,20.0,-2.0
2844,149,126,0,2776.0,2694.0,232.0,322.0,66.0,20.0
2888,80,196,0,2844.0,2776.0,149.0,232.0,126.0,66.0
2905,33,262,0,2888.0,2844.0,80.0,149.0,196.0,126.0
2896,-7,333,0,2905.0,2888.0,33.0,80.0,262.0,196.0
2861,-39,396,0,2896.0,2905.0,-7.0,33.0,333.0,262.0
2805,-64,463,0,2861.0,2896.0,-39.0,-7.0,396.0,333.0
2733,-88,526,0,2805.0,2861.0,-64.0,-39.0,463.0,396.0
2640,-105,588,0,2733.0,2805.0,-88.0,-64.0,526.0,463.0
2522,-126,629,0,2640.0,2733.0,-105.0,-88.0,588.0,526.0
2376,-150,651,0,2522.0,2640.0,-126.0,-105.0,629.0,588.0
2216,-159,666,0,2376.0,2522.0,-150.0,-126.0,651.0,629.0
2054,-158,682,0,2216.0,2376.0,-159.0,-150.0,666.0,651.0
1898,-153,697,0,2054.0,2216.0,-158.0,-159.0,682.0,666.0
1755,-142,711,0,1898.0,2054.0,-153.0,-158.0,697.0,682.0
1650,-119,725,0,1755.0,1898.0,-142.0,-153.0,711.0,697.0
1588,-79,755,0,1650.0,1755.0,-119.0,-142.0,725.0,711.0
1593,-19,794,0,1588.0,1650.0,-79.0,-119.0,755.0,725.0
1662,75,833,0,1593.0,1588.0,-19.0,-79.0,794.0,755.0
1795,195,872,0,1662.0,1593.0,75.0,-19.0,833.0,794.0
1976,341,900,0,1795.0,1662.0,195.0,75.0,872.0,833.0
2196,510,907,0,1976.0,1795.0,341.0,195.0,900.0,872.0
2454,691,893,0,2196.0,1976.0,510.0,341.0,907.0,900.0
2751,867,877,0,2454.0,2196.0,691.0,510.0,893.0,907.0
3056,1029,861,0,2751.0,2454.0,867.0,691.0,877.0,893.0
3380,1150,876,0,3056.0,2751.0,1029.0,867.0,861.0,877.0
3720,1208,977,0,3380.0,3056.0,1150.0,1029.0,876.0,861.0
4042,1177,1136,0,3720.0,3380.0,1208.0,1150.0,977.0,876.0
4347,1085,1326,0,4042.0,3720.0,1177.0,1208.0,1136.0,977.0
4610,1020,1566,0,4347.0,4042.0,1085.0,1177.0,1326.0,1136.0
4818,984,1810,0,4610.0,4347.0,1020.0,1085.0,1566.0,1326.0
4975,929,1931,0,4818.0,4610.0,984.0,1020.0,1810.0,1566.0
5062,834,1878,0,4975.0,4818.0,929.0,984.0,1931.0,1810.0
5060,731,1701,0,5062.0,4975.0,834.0,929.0,1878.0,1931.0
5035,672,1506,0,5060.0,5062.0,731.0,834.0,1701.0,1878.0
5035,660,1320,0,5035.0,5060.0,672.0,731.0,1506.0,1701.0
5065,713,1187,0,5035.0,5035.0,660.0,672.0,1320.0,1506.0
5085,835,1097,0,5065.0,5035.0,713.0,660.0,1187.0,1320.0
5062,1025,1038,0,5085.0,5065.0,835.0,713.0,1097.0,1187.0
4979,1298,1003,0,5062.0,5085.0,1025.0,835.0,1038.0,1097.0
4827,1641,1007,0,4979.0,5062.0,1298.0,1025.0,1003.0,1038.0
4608,2026,1061,0,4827.0,4979.0,1641.0,1298.0,1007.0,1003.0
4352,2421,1187,0,4608.0,4827.0,2026.0,1641.0,1061.0,1007.0
4068,2802,1365,0,4352.0,4608.0,2421.0,2026.0,1187.0,1061.0
3780,3142,1556,0,4068.0,4352.0,2802.0,2421.0,1365.0,1187.0
3518,3429,1697,0,3780.0,4068.0,3142.0,2802.0,1556.0,1365.0
3311,3645,1786,0,3518.0,3780.0,3429.0,3142.0,1697.0,1556.0
3167,3793,1849,0,3311.0,3518.0,3645.0,3429.0,1786.0,1697.0
3104,3868,1938,0,3167.0,3311.0,3793.0,3645.0,1849.0,1786.0
3123,3842,2095,0,3104.0,3167.0,3868.0,3793.0,1938.0,1849.0
3234,3708,2315,0,3123.0,3104.0,3842.0,3868.0,2095.0,1938.0
3443,3508,2546,0,3234.0,3123.0,3708.0,3842.0,2315.0,2095.0
3735,3270,2647,0,3443.0,3234.0,3508.0,3708.0,2546.0,2315.0
4090,2980,2571,0,3735.0,3443.0,3270.0,3508.0,2647.0,2546.0
4558,2598,2351,0,4090.0,3735.0,2980.0,3270.0,2571.0,2647.0
5146,2167,2057,0,4558.0,4090.0,2598.0,2980.0,2351.0,2571.0
5839,1694,1712,0,5146.0,4558.0,2167.0,2598.0,2057.0,2351.0
6576,1271,1367,0,5839.0,5146.0,1694.0,2167.0,1712.0,2057.0
7295,891,1051,0,6576.0,5839.0,1271.0,1694.0,1367.0,1712.0
7915,598,812,0,7295.0,6576.0,891.0,1271.0,1051.0,1367.0
8396,391,606,0,7915.0,7295.0,598.0,891.0,812.0,1051.0
8584,213,391,0,8396.0,7915.0,391.0,598.0,606.0,812.0
8367,27,219,0,8584.0,8396.0,213.0,391.0,391.0,606.0
7735,-161,159,0,8367.0,8584.0,27.0,213.0,219.0,391.0
6841,-324,216,0,7735.0,8367.0,-161.0,27.0,159.0,219.0
5844,-485,288,0,6841.0,7735.0,-324.0,-161.0,216.0,159.0
4843,-695,322,0,5844.0,6841.0,-485.0,-324.0,288.0,216.0
3927,-938,316,0,4843.0,5844.0,-695.0,-485.0,322.0,288.0
3184,-1184,243,0,3927.0,4843.0,-938.0,-695.0,316.0,322.0
2659,-1363,101,0,3184.0,3927.0,-1184.0,-938.0,243.0,316.0
2355,-1436,-63,0,2659.0,3184.0,-1363.0,-1184.0,101.0,243.0
2230,-1419,-203,0,2355.0,2659.0,-1436.0,-1363.0,-63.0,101.0
2214,-1370,-312,0,2230.0,2355.0,-1419.0,-1436.0,-203.0,-63.0
2233,-1301,-358,0,2214.0,2230.0,-1370.0,-1419.0,-312.0,-203.0
2249,-1184,-280,0,2233.0,2214.0,-1301.0,-1370.0,-358.0,-312.0
2287,-1052,-151,0,2249.0,2233.0,-1184.0,-1301.0,-280.0,-358.0
2374,-908,-85,0,2287.0,2249.0,-1052.0,-1184.0,-151.0,-280.0
2507,-734,-95,0,2374.0,2287.0,-908.0,-1052.0,-85.0,-151.0
2673,-565,-150,0,2507.0,2374.0,-734.0,-908.0,-95.0,-85.0
2885,-424,-242,0,2673.0,2507.0,-565.0,-734.0,-150.0,-95.0
3135,-317,-335,0,2885.0,2673.0,-424.0,-565.0,-242.0,-150.0
3368,-180,-367,0,3135.0,2885.0,-317.0,-424.0,-335.0,-242.0
3579,-5,-319,0,3368.0,3135.0,-180.0,-317.0,-367.0,-335.0
3781,151,-240,0,3579.0,3368.0,-5.0,-180.0,-319.0,-367.0
3955,286,-135,0,3781.0,3579.0,151.0,-5.0,-240.0,-319.0
4107,386,-28,0,3955.0,3781.0,286.0,151.0,-135.0,-240.0
4253,443,50,0,4107.0,3955.0,386.0,286.0,-28.0,-135.0
4430,450,82,0,4253.0,4107.0,443.0,386.0,50.0,-28.0
4658,439,114,0,4430.0,4253.0,450.0,443.0,82.0,50.0
4960,430,199,0,4658.0,4430.0,439.0,450.0,114.0,82.0
5392,419,342,0,4960.0,4658.0,430.0,439.0,199.0,114.0
5963,383,516,0,5392.0,4960.0,419.0,430.0,342.0,199.0
6584,324,685,0,5963.0,5392.0,383.0,419.0,516.0,342.0
7108,276,815,0,6584.0,5963.0,324.0,383.0,685.0,516.0
7368,260,895,0,7108.0,6584.0,276.0,324.0,815.0,685.0
7284,275,909,0,7368.0,7108.0,260.0,276.0,895.0,815.0
6858,315,851,0,7284.0,7368.0,275.0,260.0,909.0,895.0
6196,368,755,0,6858.0,7284.0,315.0,275.0,851.0,909.0
5398,416,674,0,6196.0,6858.0,368.0,315.0,755.0,851.0
4609,449,631,0,5398.0,6196.0,416.0,368.0,674.0,755.0
3904,481,649,0,4609.0,5398.0,449.0,416.0,631.0,674.0
3356,497,689,0,3904.0,4609.0,481.0,449.0,649.0,631.0
2963,506,722,0,3356.0,3904.0,497.0,481.0,689.0,649.0
2751,525,748,0,2963.0,3356.0,506.0,497.0,722.0,689.0
2668,565,780,0,2751.0,2963.0,525.0,506.0,748.0,722.0
2658,646,812,0,2668.0,2751.0,565.0,525.0,780.0,748.0
2671,764,842,0,2658.0,2668.0,646.0,565.0,812.0,780.0
2694,892,838,0,2671.0,2658.0,764.0,646.0,842.0,812.0
2704,1032,828,0,2694.0,2671.0,892.0,764.0,838.0,842.0
2712,1158,827,0,2704.0,2694.0,1032.0,892.0,828.0,838.0
2715,1242,796,0,2712.0,2704.0,1158.0,1032.0,827.0,828.0
2706,1296,735,0,2715.0,2712.0,1242.0,1158.0,796.0,827.0
2704,1342,664,0,2706.0,2715.0,1296.0,1242.0,735.0,796.0
2722,1372,621,0,2704.0,2706.0,1342.0,1296.0,664.0,735.0
2760,1381,603,0,2722.0,2704.0,1372.0,1342.0,621.0,664.0
2833,1365,598,0,2760.0,2722.0,1381.0,1372.0,603.0,621.0
2925,1332,612,0,2833.0,2760.0,1365.0,1381.0,598.0,603.0
3039,1292,617,0,2925.0,2833.0,1332.0,1365.0,612.0,598.0
3174,1245,598,0,3039.0,2925.0,1292.0,1332.0,617.0,612.0
3334,1190,562,0,3174.0,3039.0,1245.0,1292.0,598.0,617.0
3485,1120,520,0,3334.0,3174.0,1190.0,1245.0,562.0,598.0
3628,1014,502,0,3485.0,3334.0,1120.0,1190.0,520.0,562.0
3736,867,494,0,3628.0,3485.0,1014.0,1120.0,502.0,520.0
3801,692,440,0,3736.0,3628.0,867.0,1014.0,494.0,502.0
3827,518,408,0,3801.0,3736.0,692.0,867.0,440.0,494.0
3831,379,414,0,3827.0,3801.0,518.0,692.0,408.0,440.0
3808,273,428,0,3831.0,3827.0,379.0,518.0,414.0,408.0
3757,178,447,0,3808.0,3831.0,273.0,379.0,428.0,414.0
3689,123,491,0,3757.0,3808.0,178.0,273.0,447.0,428.0
3610,138,546,0,3689.0,3757.0,123.0,178.0,491.0,447.0
3534,214,603,0,3610.0,3689.0,138.0,123.0,546.0,491.0
3462,326,633,0,3534.0,3610.0,214.0,138.0,603.0,546.0
3403,466,658,0,3462.0,3534.0,326.0,214.0,633.0,603.0
