accelerometer_x,accelerometer_y,accelerometer_z,fall,x_lag_1,x_lag_2,y_lag_1,y_lag_2,z_lag_1,z_lag_2
4046,-49,252,0,,,,,,
4045,-49,252,0,4046.0,,-49.0,,252.0,
4041,-51,254,0,4045.0,4046.0,-49.0,-49.0,252.0,252.0
4042,-51,252,0,4041.0,4045.0,-51.0,-49.0,254.0,252.0
4043,-53,249,0,4042.0,4041.0,-51.0,-51.0,252.0,254.0
4050,-50,244,0,4043.0,4042.0,-53.0,-51.0,249.0,252.0
4052,-53,238,0,4050.0,4043.0,-50.0,-53.0,244.0,249.0
4058,-54,232,0,4052.0,4050.0,-53.0,-50.0,238.0,244.0
4066,-55,225,0,4058.0,4052.0,-54.0,-53.0,232.0,238.0
4071,-58,224,0,4066.0,4058.0,-55.0,-54.0,225.0,232.0
4078,-55,224,0,4071.0,4066.0,-58.0,-55.0,224.0,225.0
4088,-49,224,0,4078.0,4071.0,-55.0,-58.0,224.0,224.0
4093,-46,224,0,4088.0,4078.0,-49.0,-55.0,224.0,224.0
4097,-41,226,0,4093.0,4088.0,-46.0,-49.0,224.0,224.0
4099,-41,229,0,4097.0,4093.0,-41.0,-46.0,226.0,224.0
4100,-37,228,0,4099.0,4097.0,-41.0,-41.0,229.0,226.0
4099,-38,232,0,4100.0,4099.0,-37.0,-41.0,228.0,229.0
4094,-36,234,0,4099.0,4100.0,-38.0,-37.0,232.0,228.0
4079,-32,235,0,4094.0,4099.0,-36.0,-38.0,234.0,232.0
4068,-28,242,0,4079.0,4094.0,-32.0,-36.0,235.0,234.0
4060,-24,253,0,4068.0,4079.0,-28.0,-32.0,242.0,235.0
4050,-24,255,0,4060.0,4068.0,-24.0,-28.0,253.0,242.0
4044,-25,256,0,4050.0,4060.0,-24.0,-24.0,255.0,253.0
4036,-26,253,0,4044.0,4050.0,-25.0,-24.0,256.0,255.0
4031,-28,254,0,4036.0,4044.0,-26.0,-25.0,253.0,256.0
4032,-30,245,0,4031.0,4036.0,-28.0,-26.0,254.0,253.0
4037,-33,242,0,4032.0,4031.0,-30.0,-28.0,245.0,254.0
4045,-38,243,0,4037.0,4032.0,-33.0,-30.0,242.0,245.0
4056,-37,244,0,4045.0,4037.0,-38.0,-33.0,243.0,242.0
4063,-39,238,0,4056.0,4045.0,-37.0,-38.0,244.0,243.0
4072,-38,239,0,4063.0,4056.0,-39.0,-37.0,238.0,244.0
4076,-42,240,0,4072.0,4063.0,-38.0,-39.0,239.0,238.0
4073,-45,238,0,4076.0,4072.0,-42.0,-38.0,240.0,239.0
4070,-49,236,0,4073.0,4076.0,-45.0,-42.0,238.0,240.0
4065,-52,235,0,4070.0,4073.0,-49.0,-45.0,236.0,238.0
4061,-52,236,0,4065.0,4070.0,-52.0,-49.0,235.0,236.0
4061,-52,246,0,4061.0,4065.0,-52.0,-52.0,236.0,235.0
4068,-52,255,0,4061.0,4061.0,-52.0,-52.0,246.0,236.0
4076,-58,270,0,4068.0,4061.0,-52.0,-52.0,255.0,246.0
4074,-63,271,0,4076.0,4068.0,-58.0,-52.0,270.0,255.0
4076,-69,262,0,4074.0,4076.0,-63.0,-58.0,271.0,270.0
4076,-73,250,0,4076.0,4074.0,-69.0,-63.0,262.0,271.0
4078,-81,243,0,4076.0,4076.0,-73.0,-69.0,250.0,262.0
4085,-88,240,0,4078.0,4076.0,-81.0,-73.0,243.0,250.0
4086,-90,240,0,4085.0,4078.0,-88.0,-81.0,240.0,243.0
4090,-91,236,0,4086.0,4085.0,-90.0,-88.0,240.0,240.0
4087,-97,235,0,4090.0,4086.0,-91.0,-90.0,236.0,240.0
4074,-100,234,0,4087.0,4090.0,-97.0,-91.0,235.0,236.0
4058,-97,230,0,4074.0,4087.0,-100.0,-97.0,234.0,235.0
4040,-98,228,0,4058.0,4074.0,-97.0,-100.0,230.0,234.0
4026,-96,223,0,4040.0,4058.0,-98.0,-97.0,228.0,230.0
4018,-89,218,0,4026.0,4040.0,-96.0,-98.0,223.0,228.0
4014,-81,215,0,4018.0,4026.0,-89.0,-96.0,218.0,223.0
4017,-71,211,0,4014.0,4018.0,-81.0,-89.0,215.0,218.0
4023,-57,208,0,4017.0,4014.0,-71.0,-81.0,211.0,215.0
4034,-41,208,0,4023.0,4017.0,-57.0,-71.0,208.0,211.0
4049,-30,206,0,4034.0,4023.0,-41.0,-57.0,208.0,208.0
4066,-19,202,0,4049.0,4034.0,-30.0,-41.0,206.0,208.0
4081,-11,207,0,4066.0,4049.0,-19.0,-30.0,202.0,206.0
4085,-4,210,0,4081.0,4066.0,-11.0,-19.0,207.0,202.0
4090,-2,210,0,4085.0,4081.0,-4.0,-11.0,210.0,207.0
4095,-1,215,0,4090.0,4085.0,-2.0,-4.0,210.0,210.0
4097,0,216,0,4095.0,4090.0,-1.0,-2.0,215.0,210.0
4094,4,218,0,4097.0,4095.0,0.0,-1.0,216.0,215.0
4092,5,220,0,4094.0,4097.0,4.0,0.0,218.0,216.0
4088,7,222,0,4092.0,4094.0,5.0,4.0,220.0,218.0
4084,9,221,0,4088.0,4092.0,7.0,5.0,222.0,220.0
4084,15,220,0,4084.0,4088.0,9.0,7.0,221.0,222.0
4083,17,219,0,4084.0,4084.0,15.0,9.0,220.0,221.0
4085,22,216,0,4083.0,4084.0,17.0,15.0,219.0,220.0
4089,18,216,0,4085.0,4083.0,22.0,17.0,216.0,219.0
4093,12,222,0,4089.0,4085.0,18.0,22.0,216.0,216.0
4094,3,229,0,4093.0,4089.0,12.0,18.0,222.0,216.0
4092,-4,231,0,4094.0,4093.0,3.0,12.0,229.0,222.0
4086,-14,234,0,4092.0,4094.0,-4.0,3.0,231.0,229.0
4082,-27,247,0,4086.0,4092.0,-14.0,-4.0,234.0,231.0
4078,-35,261,0,4082.0,4086.0,-27.0,-14.0,247.0,234.0
4071,-44,269,0,4078.0,4082.0,-35.0,-27.0,261.0,247.0
4056,-55,271,0,4071.0,4078.0,-44.0,-35.0,269.0,261.0
4041,-65,267,0,4056.0,4071.0,-55.0,-44.0,271.0,269.0
4031,-74,260,0,4041.0,4056.0,-65.0,-55.0,267.0,271.0
4024,-83,252,0,4031.0,4041.0,-74.0,-65.0,260.0,267.0
4020,-88,246,0,4024.0,4031.0,-83.0,-74.0,252.0,260.0
4021,-85,242,0,4020.0,4024.0,-88.0,-83.0,246.0,252.0
4031,-86,238,0,4021.0,4020.0,-85.0,-88.0,242.0,246.0
4042,-88,237,0,4031.0,4021.0,-86.0,-85.0,238.0,242.0
4057,-88,236,0,4042.0,4031.0,-88.0,-86.0,237.0,238.0
4065,-86,235,0,4057.0,4042.0,-88.0,-88.0,236.0,237.0
4069,-84,229,0,4065.0,4057.0,-86.0,-88.0,235.0,236.0
4070,-85,221,0,4069.0,4065.0,-84.0,-86.0,229.0,235.0
4074,-86,217,0,4070.0,4069.0,-85.0,-84.0,221.0,229.0
4073,-84,217,0,4074.0,4070.0,-86.0,-85.0,217.0,221.0
4076,-81,218,0,4073.0,4074.0,-84.0,-86.0,217.0,217.0
4078,-75,222,0,4076.0,4073.0,-81.0,-84.0,218.0,217.0
4085,-68,226,0,4078.0,4076.0,-75.0,-81.0,222.0,218.0
4092,-65,227,0,4085.0,4078.0,-68.0,-75.0,226.0,222.0
4095,-61,227,0,4092.0,4085.0,-65.0,-68.0,227.0,226.0
4097,-60,225,0,4095.0,4092.0,-61.0,-65.0,227.0,227.0
4097,-59,226,0,4097.0,4095.0,-60.0,-61.0,225.0,227.0
4091,-54,224,0,4097.0,4097.0,-59.0,-60.0,226.0,225.0
4087,-48,225,0,4091.0,4097.0,-54.0,-59.0,224.0,226.0
4082,-41,225,0,4087.0,4091.0,-48.0,-54.0,225.0,224.0
4076,-29,231,0,4082.0,4087.0,-41.0,-48.0,225.0,225.0
4065,-22,231,0,4076.0,4082.0,-29.0,-41.0,231.0,225.0
4058,-15,237,0,4065.0,4076.0,-22.0,-29.0,231.0,231.0
4056,-14,241,0,4058.0,4065.0,-15.0,-22.0,237.0,231.0
4053,-10,242,0,4056.0,4058.0,-14.0,-15.0,241.0,237.0
4048,-9,240,0,4053.0,4056.0,-10.0,-14.0,242.0,241.0
4053,-6,237,0,4048.0,4053.0,-9.0,-10.0,240.0,242.0
4060,-7,237,0,4053.0,4048.0,-6.0,-9.0,237.0,240.0
4066,-5,238,0,4060.0,4053.0,-7.0,-6.0,237.0,237.0
4070,-4,235,0,4066.0,4060.0,-5.0,-7.0,238.0,237.0
4071,-2,234,0,4070.0,4066.0,-4.0,-5.0,235.0,238.0
4072,-3,234,0,4071.0,4070.0,-2.0,-4.0,234.0,235.0
4070,-3,230,0,4072.0,4071.0,-3.0,-2.0,234.0,234.0
4067,-7,228,0,4070.0,4072.0,-3.0,-3.0,230.0,234.0
4063,-8,225,0,4067.0,4070.0,-7.0,-3.0,228.0,230.0
4063,-7,222,0,4063.0,4067.0,-8.0,-7.0,225.0,228.0
4066,-4,226,0,4063.0,4063.0,-7.0,-8.0,222.0,225.0
4067,0,228,0,4066.0,4063.0,-4.0,-7.0,226.0,222.0
4070,5,238,0,4067.0,4066.0,0.0,-4.0,228.0,226.0
4075,10,241,0,4070.0,4067.0,5.0,0.0,238.0,228.0
4073,17,242,0,4075.0,4070.0,10.0,5.0,241.0,238.0
4072,19,240,0,4073.0,4075.0,17.0,10.0,242.0,241.0
4072,20,243,0,4072.0,4073.0,19.0,17.0,240.0,242.0
4073,17,242,0,4072.0,4072.0,20.0,19.0,243.0,240.0
4077,8,243,0,4073.0,4072.0,17.0,20.0,242.0,243.0
4073,1,241,0,4077.0,4073.0,8.0,17.0,243.0,242.0
4071,-12,233,0,4073.0,4077.0,1.0,8.0,241.0,243.0
4073,-24,228,0,4071.0,4073.0,-12.0,1.0,233.0,241.0
4073,-36,224,0,4073.0,4071.0,-24.0,-12.0,228.0,233.0
4074,-48,219,0,4073.0,4073.0,-36.0,-24.0,224.0,228.0
4074,-62,216,0,4074.0,4073.0,-48.0,-36.0,219.0,224.0
4071,-67,217,0,4074.0,4074.0,-62.0,-48.0,216.0,219.0
4075,-71,213,0,4071.0,4074.0,-67.0,-62.0,217.0,216.0
4080,-68,210,0,4075.0,4071.0,-71.0,-67.0,213.0,217.0
4080,-68,212,0,4080.0,4075.0,-68.0,-71.0,210.0,213.0
4079,-65,209,0,4080.0,4080.0,-68.0,-68.0,212.0,210.0
4081,-63,210,0,4079.0,4080.0,-65.0,-68.0,209.0,212.0
4082,-59,215,0,4081.0,4079.0,-63.0,-65.0,210.0,209.0
4078,-54,219,0,4082.0,4081.0,-59.0,-63.0,215.0,210.0
4077,-55,221,0,4078.0,4082.0,-54.0,-59.0,219.0,215.0
4076,-59,229,0,4077.0,4078.0,-55.0,-54.0,221.0,219.0
4077,-63,228,0,4076.0,4077.0,-59.0,-55.0,229.0,221.0
4069,-65,227,0,4077.0,4076.0,-63.0,-59.0,228.0,229.0
4063,-69,223,0,4069.0,4077.0,-65.0,-63.0,227.0,228.0
4056,-74,218,0,4063.0,4069.0,-69.0,-65.0,223.0,227.0
4055,-77,215,0,4056.0,4063.0,-74.0,-69.0,218.0,223.0
4053,-76,212,0,4055.0,4056.0,-77.0,-74.0,215.0,218.0
4057,-70,212,0,4053.0,4055.0,-76.0,-77.0,212.0,215.0
4065,-78,213,0,4057.0,4053.0,-70.0,-76.0,212.0,212.0
4068,-83,210,0,4065.0,4057.0,-78.0,-70.0,213.0,212.0
4071,-90,208,0,4068.0,4065.0,-83.0,-78.0,210.0,213.0
4073,-94,210,0,4071.0,4068.0,-90.0,-83.0,208.0,210.0
4075,-101,212,0,4073.0,4071.0,-94.0,-90.0,210.0,208.0
4074,-103,211,0,4075.0,4073.0,-101.0,-94.0,212.0,210.0
4076,-105,211,0,4074.0,4075.0,-103.0,-101.0,211.0,212.0
4069,-105,216,0,4076.0,4074.0,-105.0,-103.0,211.0,211.0
4063,-101,224,0,4069.0,4076.0,-105.0,-105.0,216.0,211.0
4060,-97,236,0,4063.0,4069.0,-101.0,-105.0,224.0,216.0
4052,-88,245,0,4060.0,4063.0,-97.0,-101.0,236.0,224.0
4048,-77,245,0,4052.0,4060.0,-88.0,-97.0,245.0,236.0
4049,-71,248,0,4048.0,4052.0,-77.0,-88.0,245.0,245.0
4047,-67,243,0,4049.0,4048.0,-71.0,-77.0,248.0,245.0
4047,-59,242,0,4047.0,4049.0,-67.0,-71.0,243.0,248.0
4048,-54,234,0,4047.0,4047.0,-59.0,-67.0,242.0,243.0
4052,-49,226,0,4048.0,4047.0,-54.0,-59.0,234.0,242.0
4061,-45,223,0,4052.0,4048.0,-49.0,-54.0,226.0,234.0
4067,-42,219,0,4061.0,4052.0,-45.0,-49.0,223.0,226.0
4071,-39,216,0,4067.0,4061.0,-42.0,-45.0,219.0,223.0
4076,-37,213,0,4071.0,4067.0,-39.0,-42.0,216.0,219.0
4079,-40,219,0,4076.0,4071.0,-37.0,-39.0,213.0,216.0
4081,-41,219,0,4079.0,4076.0,-40.0,-37.0,219.0,213.0
4079,-44,215,0,4081.0,4079.0,-41.0,-40.0,219.0,219.0
4079,-47,214,0,4079.0,4081.0,-44.0,-41.0,215.0,219.0
4082,-51,216,0,4079.0,4079.0,-47.0,-44.0,214.0,215.0
4085,-55,218,0,4082.0,4079.0,-51.0,-47.0,216.0,214.0
4088,-52,223,0,4085.0,4082.0,-55.0,-51.0,218.0,216.0
4092,-50,226,0,4088.0,4085.0,-52.0,-55.0,223.0,218.0
4096,-49,231,0,4092.0,4088.0,-50.0,-52.0,226.0,223.0
4097,-50,235,0,4096.0,4092.0,-49.0,-50.0,231.0,226.0
4093,-50,238,0,4097.0,4096.0,-50.0,-49.0,235.0,231.0
4088,-50,237,0,4093.0,4097.0,-50.0,-50.0,238.0,235.0
4078,-51,229,0,4088.0,4093.0,-50.0,-50.0,237.0,238.0
4068,-50,225,0,4078.0,4088.0,-51.0,-50.0,229.0,237.0
4057,-52,220,0,4068.0,4078.0,-50.0,-51.0,225.0,229.0
4051,-49,224,0,4057.0,4068.0,-52.0,-50.0,220.0,225.0
4050,-49,228,0,4051.0,4057.0,-49.0,-52.0,224.0,220.0
4048,-44,232,0,4050.0,4051.0,-49.0,-49.0,228.0,224.0
4048,-41,233,0,4048.0,4050.0,-44.0,-49.0,232.0,228.0
4053,-40,233,0,4048.0,4048.0,-41.0,-44.0,233.0,232.0
4056,-41,235,0,4053.0,4048.0,-40.0,-41.0,233.0,233.0
4058,-40,236,0,4056.0,4053.0,-41.0,-40.0,235.0,233.0
4062,-41,241,0,4058.0,4056.0,-40.0,-41.0,236.0,235.0
4064,-43,243,0,4062.0,4058.0,-41.0,-40.0,241.0,236.0
4067,-44,241,0,4064.0,4062.0,-43.0,-41.0,243.0,241.0
4065,-44,240,0,4067.0,4064.0,-44.0,-43.0,241.0,243.0
4059,-44,238,0,4065.0,4067.0,-44.0,-44.0,240.0,241.0
4056,-40,237,0,4059.0,4065.0,-44.0,-44.0,238.0,240.0
4057,-39,237,0,4056.0,4059.0,-40.0,-44.0,237.0,238.0
4056,-38,234,0,4057.0,4056.0,-39.0,-40.0,237.0,237.0
4062,-34,229,0,4056.0,4057.0,-38.0,-39.0,234.0,237.0
4065,-29,229,0,4062.0,4056.0,-34.0,-38.0,229.0,234.0
4070,-27,226,0,4065.0,4062.0,-29.0,-34.0,229.0,229.0
4075,-23,219,0,4070.0,4065.0,-27.0,-29.0,226.0,229.0
4081,-19,215,0,4075.0,4070.0,-23.0,-27.0,219.0,226.0
4089,-17,218,0,4081.0,4075.0,-19.0,-23.0,215.0,219.0
4094,-16,221,0,4089.0,4081.0,-17.0,-19.0,218.0,215.0
4098,-15,225,0,4094.0,4089.0,-16.0,-17.0,221.0,218.0
4099,-14,227,0,4098.0,4094.0,-15.0,-16.0,225.0,221.0
4100,-16,226,0,4099.0,4098.0,-14.0,-15.0,227.0,225.0
4099,-14,229,0,4100.0,4099.0,-16.0,-14.0,226.0,227.0
4096,-16,226,0,4099.0,4100.0,-14.0,-16.0,229.0,226.0
4085,-18,217,0,4096.0,4099.0,-16.0,-14.0,226.0,229.0
4073,-26,214,0,4085.0,4096.0,-18.0,-16.0,217.0,226.0
4064,-33,212,0,4073.0,4085.0,-26.0,-18.0,214.0,217.0
4060,-37,214,0,4064.0,4073.0,-33.0,-26.0,212.0,214.0
4055,-39,218,0,4060.0,4064.0,-37.0,-33.0,214.0,212.0
4050,-41,227,0,4055.0,4060.0,-39.0,-37.0,218.0,214.0
4048,-44,235,0,4050.0,4055.0,-41.0,-39.0,227.0,218.0
4046,-51,239,0,4048.0,4050.0,-44.0,-41.0,235.0,227.0
4045,-60,243,0,4046.0,4048.0,-51.0,-44.0,239.0,235.0
4044,-65,244,0,4045.0,4046.0,-60.0,-51.0,243.0,239.0
4048,-69,242,0,4044.0,4045.0,-65.0,-60.0,244.0,243.0
4052,-72,242,0,4048.0,4044.0,-69.0,-65.0,242.0,244.0
4053,-72,246,0,4052.0,4048.0,-72.0,-69.0,242.0,242.0
4059,-69,241,0,4053.0,4052.0,-72.0,-72.0,246.0,242.0
4061,-67,241,0,4059.0,4053.0,-69.0,-72.0,241.0,246.0
4069,-63,239,0,4061.0,4059.0,-67.0,-69.0,241.0,241.0
4080,-58,235,0,4069.0,4061.0,-63.0,-67.0,239.0,241.0
4088,-52,225,0,4080.0,4069.0,-58.0,-63.0,235.0,239.0
4092,-47,213,0,4088.0,4080.0,-52.0,-58.0,225.0,235.0
4092,-42,205,0,4092.0,4088.0,-47.0,-52.0,213.0,225.0
4087,-36,197,0,4092.0,4092.0,-42.0,-47.0,205.0,213.0
4081,-26,194,0,4087.0,4092.0,-36.0,-42.0,197.0,205.0
4074,-19,194,0,4081.0,4087.0,-26.0,-36.0,194.0,197.0
4067,-10,197,0,4074.0,4081.0,-19.0,-26.0,194.0,194.0
4056,-6,200,0,4067.0,4074.0,-10.0,-19.0,197.0,194.0
4047,-6,206,0,4056.0,4067.0,-6.0,-10.0,200.0,197.0
4044,-9,207,0,4047.0,4056.0,-6.0,-6.0,206.0,200.0
4042,-15,210,0,4044.0,4047.0,-9.0,-6.0,207.0,206.0
4047,-23,212,0,4042.0,4044.0,-15.0,-9.0,210.0,207.0
4047,-22,213,0,4047.0,4042.0,-23.0,-15.0,212.0,210.0
4056,-23,215,0,4047.0,4047.0,-22.0,-23.0,213.0,212.0
4069,-22,210,0,4056.0,4047.0,-23.0,-22.0,215.0,213.0
4072,-16,206,0,4069.0,4056.0,-22.0,-23.0,210.0,215.0
4080,-10,204,0,4072.0,4069.0,-16.0,-22.0,206.0,210.0
4083,-5,204,0,4080.0,4072.0,-10.0,-16.0,204.0,206.0
4088,3,211,0,4083.0,4080.0,-5.0,-10.0,204.0,204.0
4084,5,219,0,4088.0,4083.0,3.0,-5.0,211.0,204.0
4082,4,225,0,4084.0,4088.0,5.0,3.0,219.0,211.0
4077,1,227,0,4082.0,4084.0,4.0,5.0,225.0,219.0
4071,-4,229,0,4077.0,4082.0,1.0,4.0,227.0,225.0
4066,-11,237,0,4071.0,4077.0,-4.0,1.0,229.0,227.0
4060,-19,243,0,4066.0,4071.0,-11.0,-4.0,237.0,229.0
4058,-29,245,0,4060.0,4066.0,-19.0,-11.0,243.0,237.0
4058,-39,251,0,4058.0,4060.0,-29.0,-19.0,245.0,243.0
4060,-43,251,0,4058.0,4058.0,-39.0,-29.0,251.0,245.0
4064,-46,247,0,4060.0,4058.0,-43.0,-39.0,251.0,251.0
4066,-45,239,0,4064.0,4060.0,-46.0,-43.0,247.0,251.0
4062,-42,231,0,4066.0,4064.0,-45.0,-46.0,239.0,247.0
4060,-41,224,0,4062.0,4066.0,-42.0,-45.0,231.0,239.0
4056,-37,215,0,4060.0,4062.0,-41.0,-42.0,224.0,231.0
4060,-28,215,0,4056.0,4060.0,-37.0,-41.0,215.0,224.0
4062,-23,216,0,4060.0,4056.0,-28.0,-37.0,215.0,215.0
4060,-23,212,0,4062.0,4060.0,-23.0,-28.0,216.0,215.0
4060,-26,208,0,4060.0,4062.0,-23.0,-23.0,212.0,216.0
4060,-30,202,0,4060.0,4060.0,-26.0,-23.0,208.0,212.0
4062,-36,199,0,4060.0,4060.0,-30.0,-26.0,202.0,208.0
4065,-39,198,0,4062.0,4060.0,-36.0,-30.0,199.0,202.0
4071,-38,200,0,4065.0,4062.0,-39.0,-36.0,198.0,199.0
4081,-37,205,0,4071.0,4065.0,-38.0,-39.0,200.0,198.0
4087,-34,207,0,4081.0,4071.0,-37.0,-38.0,205.0,200.0
4093,-24,205,0,4087.0,4081.0,-34.0,-37.0,207.0,205.0
4097,-20,211,0,4093.0,4087.0,-24.0,-34.0,205.0,207.0
4099,-17,216,0,4097.0,4093.0,-20.0,-24.0,211.0,205.0
4099,-15,220,0,4099.0,4097.0,-17.0,-20.0,216.0,211.0
4100,-13,221,0,4099.0,4099.0,-15.0,-17.0,220.0,216.0
4091,-17,217,0,4100.0,4099.0,-13.0,-15.0,221.0,220.0
4084,-14,217,0,4091.0,4100.0,-17.0,-13.0,217.0,221.0
4078,-10,217,0,4084.0,4091.0,-14.0,-17.0,217.0,217.0
4072,-8,222,0,4078.0,4084.0,-10.0,-14.0,217.0,217.0
4071,-11,223,0,4072.0,4078.0,-8.0,-10.0,222.0,217.0
4063,-8,221,0,4071.0,4072.0,-11.0,-8.0,223.0,222.0
4056,-5,221,0,4063.0,4071.0,-8.0,-11.0,221.0,223.0
4050,-2,223,0,4056.0,4063.0,-5.0,-8.0,221.0,221.0
4050,-2,219,0,4050.0,4056.0,-2.0,-5.0,223.0,221.0
4054,-2,219,0,4050.0,4050.0,-2.0,-2.0,219.0,223.0
4058,-4,216,0,4054.0,4050.0,-2.0,-2.0,219.0,219.0
4063,-7,210,0,4058.0,4054.0,-4.0,-2.0,216.0,219.0
4067,-11,210,0,4063.0,4058.0,-7.0,-4.0,210.0,216.0
4072,-22,210,0,4067.0,4063.0,-11.0,-7.0,210.0,210.0
4077,-28,207,0,4072.0,4067.0,-22.0,-11.0,210.0,210.0
4082,-35,206,0,4077.0,4072.0,-28.0,-22.0,207.0,210.0
4086,-39,206,0,4082.0,4077.0,-35.0,-28.0,206.0,207.0
4089,-41,209,0,4086.0,4082.0,-39.0,-35.0,206.0,206.0
4085,-42,215,0,4089.0,4086.0,-41.0,-39.0,209.0,206.0
4081,-41,217,0,4085.0,4089.0,-42.0,-41.0,215.0,209.0
4083,-36,221,0,4081.0,4085.0,-41.0,-42.0,217.0,215.0
4079,-35,227,0,4083.0,4081.0,-36.0,-41.0,221.0,217.0
4073,-34,230,0,4079.0,4083.0,-35.0,-36.0,227.0,221.0
4069,-36,235,0,4073.0,4079.0,-34.0,-35.0,230.0,227.0
4066,-33,236,0,4069.0,4073.0,-36.0,-34.0,235.0,230.0
4066,-37,234,0,4066.0,4069.0,-33.0,-36.0,236.0,235.0
4067,-36,229,0,4066.0,4066.0,-37.0,-33.0,234.0,236.0
4069,-38,224,0,4067.0,4066.0,-36.0,-37.0,229.0,234.0
4070,-41,212,0,4069.0,4067.0,-38.0,-36.0,224.0,229.0
4073,-48,205,0,4070.0,4069.0,-41.0,-38.0,212.0,224.0
4074,-51,199,0,4073.0,4070.0,-48.0,-41.0,205.0,212.0
4073,-50,197,0,4074.0,4073.0,-51.0,-48.0,199.0,205.0
4074,-44,198,0,4073.0,4074.0,-50.0,-51.0,197.0,199.0
4080,-38,200,0,4074.0,4073.0,-44.0,-50.0,198.0,197.0
4082,-36,202,0,4080.0,4074.0,-38.0,-44.0,200.0,198.0
4081,-33,207,0,4082.0,4080.0,-36.0,-38.0,202.0,200.0
4081,-32,213,0,4081.0,4082.0,-33.0,-36.0,207.0,202.0
4083,-31,219,0,4081.0,4081.0,-32.0,-33.0,213.0,207.0
4081,-32,226,0,4083.0,4081.0,-31.0,-32.0,219.0,213.0
4074,-30,233,0,4081.0,4083.0,-32.0,-31.0,226.0,219.0
4064,-32,238,0,4074.0,4081.0,-30.0,-32.0,233.0,226.0
4059,-36,236,0,4064.0,4074.0,-32.0,-30.0,238.0,233.0
4050,-37,234,0,4059.0,4064.0,-36.0,-32.0,236.0,238.0
4042,-38,230,0,4050.0,4059.0,-37.0,-36.0,234.0,236.0
4039,-41,224,0,4042.0,4050.0,-38.0,-37.0,230.0,234.0
4042,-44,218,0,4039.0,4042.0,-41.0,-38.0,224.0,230.0
4051,-45,212,0,4042.0,4039.0,-44.0,-41.0,218.0,224.0
4056,-45,209,0,4051.0,4042.0,-45.0,-44.0,212.0,218.0
4069,-40,208,0,4056.0,4051.0,-45.0,-45.0,209.0,212.0
4079,-41,202,0,4069.0,4056.0,-40.0,-45.0,208.0,209.0
4082,-44,202,0,4079.0,4069.0,-41.0,-40.0,202.0,208.0
4083,-39,203,0,4082.0,4079.0,-44.0,-41.0,202.0,202.0
4083,-40,204,0,4083.0,4082.0,-39.0,-44.0,203.0,202.0
4086,-40,205,0,4083.0,4083.0,-40.0,-39.0,204.0,203.0
4086,-33,207,0,4086.0,4083.0,-40.0,-40.0,205.0,204.0
4082,-29,212,0,4086.0,4086.0,-33.0,-40.0,207.0,205.0
4080,-27,216,0,4082.0,4086.0,-29.0,-33.0,212.0,207.0
4077,-27,217,0,4080.0,4082.0,-27.0,-29.0,216.0,212.0
4073,-26,222,0,4077.0,4080.0,-27.0,-27.0,217.0,216.0
4069,-30,223,0,4073.0,4077.0,-26.0,-27.0,222.0,217.0
4065,-28,224,0,4069.0,4073.0,-30.0,-26.0,223.0,222.0
4063,-33,226,0,4065.0,4069.0,-28.0,-30.0,224.0,223.0
4063,-27,226,0,4063.0,4065.0,-33.0,-28.0,226.0,224.0
4059,-30,225,0,4063.0,4063.0,-27.0,-33.0,226.0,226.0
4056,-27,222,0,4059.0,4063.0,-30.0,-27.0,225.0,226.0
4056,-31,220,0,4056.0,4059.0,-27.0,-30.0,222.0,225.0
4057,-33,220,0,4056.0,4056.0,-31.0,-27.0,220.0,222.0
4060,-33,222,0,4057.0,4056.0,-33.0,-31.0,220.0,220.0
4065,-31,224,0,4060.0,4057.0,-33.0,-33.0,222.0,220.0
4069,-31,230,0,4065.0,4060.0,-31.0,-33.0,224.0,222.0
4072,-33,230,0,4069.0,4065.0,-31.0,-31.0,230.0,224.0
4077,-32,232,0,4072.0,4069.0,-33.0,-31.0,230.0,230.0
4077,-37,230,0,4077.0,4072.0,-32.0,-33.0,232.0,230.0
4079,-42,227,0,4077.0,4077.0,-37.0,-32.0,230.0,232.0
4077,-42,226,0,4079.0,4077.0,-42.0,-37.0,227.0,230.0
4076,-41,224,0,4077.0,4079.0,-42.0,-42.0,226.0,227.0
4073,-43,224,0,4076.0,4077.0,-41.0,-42.0,224.0,226.0
4069,-43,223,0,4073.0,4076.0,-43.0,-41.0,224.0,224.0
4072,-39,223,0,4069.0,4073.0,-43.0,-43.0,223.0,224.0
4073,-40,224,0,4072.0,4069.0,-39.0,-43.0,223.0,223.0
4074,-42,219,0,4073.0,4072.0,-40.0,-39.0,224.0,223.0
4077,-41,214,0,4074.0,4073.0,-42.0,-40.0,219.0,224.0
4077,-40,211,0,4077.0,4074.0,-41.0,-42.0,214.0,219.0
4079,-41,209,0,4077.0,4077.0,-40.0,-41.0,211.0,214.0
4079,-41,208,0,4079.0,4077.0,-41.0,-40.0,209.0,211.0
4076,-42,209,0,4079.0,4079.0,-41.0,-41.0,208.0,209.0
4073,-36,213,0,4076.0,4079.0,-42.0,-41.0,209.0,208.0
4071,-33,218,0,4073.0,4076.0,-36.0,-42.0,213.0,209.0
4066,-26,220,0,4071.0,4073.0,-33.0,-36.0,218.0,213.0
4060,-27,218,0,4066.0,4071.0,-26.0,-33.0,220.0,218.0
4053,-25,219,0,4060.0,4066.0,-27.0,-26.0,218.0,220.0
4048,-24,224,0,4053.0,4060.0,-25.0,-27.0,219.0,218.0
4052,-26,232,0,4048.0,4053.0,-24.0,-25.0,224.0,219.0
4056,-26,245,0,4052.0,4048.0,-26.0,-24.0,232.0,224.0
4065,-27,246,0,4056.0,4052.0,-26.0,-26.0,245.0,232.0
4070,-26,248,0,4065.0,4056.0,-27.0,-26.0,246.0,245.0
4071,-28,243,0,4070.0,4065.0,-26.0,-27.0,248.0,246.0
4073,-31,238,0,4071.0,4070.0,-28.0,-26.0,243.0,248.0
4077,-31,231,0,4073.0,4071.0,-31.0,-28.0,238.0,243.0
4081,-32,224,0,4077.0,4073.0,-31.0,-31.0,231.0,238.0
4081,-29,217,0,4081.0,4077.0,-32.0,-31.0,224.0,231.0
4088,-29,218,0,4081.0,4081.0,-29.0,-32.0,217.0,224.0
4087,-28,220,0,4088.0,4081.0,-29.0,-29.0,218.0,217.0
4089,-30,215,0,4087.0,4088.0,-28.0,-29.0,220.0,218.0
4084,-31,215,0,4089.0,4087.0,-30.0,-28.0,215.0,220.0
4082,-33,217,0,4084.0,4089.0,-31.0,-30.0,215.0,215.0
4078,-30,222,0,4082.0,4084.0,-33.0,-31.0,217.0,215.0
4075,-32,225,0,4078.0,4082.0,-30.0,-33.0,222.0,217.0
4072,-34,223,0,4075.0,4078.0,-32.0,-30.0,225.0,222.0
4071,-34,221,0,4072.0,4075.0,-34.0,-32.0,223.0,225.0
4064,-37,219,0,4071.0,4072.0,-34.0,-34.0,221.0,223.0
4059,-40,215,0,4064.0,4071.0,-37.0,-34.0,219.0,221.0
4060,-42,216,0,4059.0,4064.0,-40.0,-37.0,215.0,219.0
4061,-41,217,0,4060.0,4059.0,-42.0,-40.0,216.0,215.0
4069,-44,222,0,4061.0,4060.0,-41.0,-42.0,217.0,216.0
4074,-51,227,0,4069.0,4061.0,-44.0,-41.0,222.0,217.0
4075,-52,226,0,4074.0,4069.0,-51.0,-44.0,227.0,222.0
4072,-54,225,0,4075.0,4074.0,-52.0,-51.0,226.0,227.0
4066,-56,223,0,4072.0,4075.0,-54.0,-52.0,225.0,226.0
4065,-57,221,0,4066.0,4072.0,-56.0,-54.0,223.0,225.0
4061,-56,222,0,4065.0,4066.0,-57.0,-56.0,221.0,223.0
4062,-58,220,0,4061.0,4065.0,-56.0,-57.0,222.0,221.0
4065,-61,220,0,4062.0,4061.0,-58.0,-56.0,220.0,222.0
4061,-62,221,0,4065.0,4062.0,-61.0,-58.0,220.0,220.0
4066,-63,221,0,4061.0,4065.0,-62.0,-61.0,221.0,220.0
4073,-58,222,0,4066.0,4061.0,-63.0,-62.0,221.0,221.0
4077,-56,223,0,4073.0,4066.0,-58.0,-63.0,222.0,221.0
4082,-57,220,0,4077.0,4073.0,-56.0,-58.0,223.0,222.0
4086,-52,214,0,4082.0,4077.0,-57.0,-56.0,220.0,223.0
4084,-51,212,0,4086.0,4082.0,-52.0,-57.0,214.0,220.0
4083,-43,212,0,4084.0,4086.0,-51.0,-52.0,212.0,214.0
4081,-38,210,0,4083.0,4084.0,-43.0,-51.0,212.0,212.0
4078,-39,210,0,4081.0,4083.0,-38.0,-43.0,210.0,212.0
4076,-42,217,0,4078.0,4081.0,-39.0,-38.0,210.0,210.0
4069,-47,220,0,4076.0,4078.0,-42.0,-39.0,217.0,210.0
4065,-54,221,0,4069.0,4076.0,-47.0,-42.0,220.0,217.0
4063,-59,221,0,4065.0,4069.0,-54.0,-47.0,221.0,220.0
4055,-63,218,0,4063.0,4065.0,-59.0,-54.0,221.0,221.0
4054,-66,217,0,4055.0,4063.0,-63.0,-59.0,218.0,221.0
4058,-66,216,0,4054.0,4055.0,-66.0,-63.0,217.0,218.0
4064,-65,215,0,4058.0,4054.0,-66.0,-66.0,216.0,217.0
4069,-59,212,0,4064.0,4058.0,-65.0,-66.0,215.0,216.0
4070,-56,212,0,4069.0,4064.0,-59.0,-65.0,212.0,215.0
4074,-50,215,0,4070.0,4069.0,-56.0,-59.0,212.0,212.0
4072,-44,218,0,4074.0,4070.0,-50.0,-56.0,215.0,212.0
4073,-37,223,0,4072.0,4074.0,-44.0,-50.0,218.0,215.0
4071,-41,226,0,4073.0,4072.0,-37.0,-44.0,223.0,218.0
4065,-43,232,0,4071.0,4073.0,-41.0,-37.0,226.0,223.0
4063,-54,235,0,4065.0,4071.0,-43.0,-41.0,232.0,226.0
4064,-56,241,0,4063.0,4065.0,-54.0,-43.0,235.0,232.0
4065,-61,245,0,4064.0,4063.0,-56.0,-54.0,241.0,235.0
4067,-68,244,0,4065.0,4064.0,-61.0,-56.0,245.0,241.0
4069,-72,244,0,4067.0,4065.0,-68.0,-61.0,244.0,245.0
4072,-74,234,0,4069.0,4067.0,-72.0,-68.0,244.0,244.0
4070,-66,222,0,4072.0,4069.0,-74.0,-72.0,234.0,244.0
4069,-61,218,0,4070.0,4072.0,-66.0,-74.0,222.0,234.0
4068,-54,214,0,4069.0,4070.0,-61.0,-66.0,218.0,222.0
4069,-47,216,0,4068.0,4069.0,-54.0,-61.0,214.0,218.0
4070,-39,218,0,4069.0,4068.0,-47.0,-54.0,216.0,214.0
4072,-34,217,0,4070.0,4069.0,-39.0,-47.0,218.0,216.0
4072,-35,219,0,4072.0,4070.0,-34.0,-39.0,217.0,218.0
4069,-42,215,0,4072.0,4072.0,-35.0,-34.0,219.0,217.0
4065,-50,212,0,4069.0,4072.0,-42.0,-35.0,215.0,219.0
4062,-58,209,0,4065.0,4069.0,-50.0,-42.0,212.0,215.0
4059,-62,207,0,4062.0,4065.0,-58.0,-50.0,209.0,212.0
4061,-63,211,0,4059.0,4062.0,-62.0,-58.0,207.0,209.0
4063,-62,214,0,4061.0,4059.0,-63.0,-62.0,211.0,207.0
4070,-59,220,0,4063.0,4061.0,-62.0,-63.0,214.0,211.0
4075,-57,222,0,4070.0,4063.0,-59.0,-62.0,220.0,214.0
4079,-56,221,0,4075.0,4070.0,-57.0,-59.0,222.0,220.0
4083,-53,217,0,4079.0,4075.0,-56.0,-57.0,221.0,222.0
4091,-55,215,0,4083.0,4079.0,-53.0,-56.0,217.0,221.0
4092,-57,214,0,4091.0,4083.0,-55.0,-53.0,215.0,217.0
4091,-53,213,0,4092.0,4091.0,-57.0,-55.0,214.0,215.0
4090,-49,214,0,4091.0,4092.0,-53.0,-57.0,213.0,214.0
4088,-43,220,0,4090.0,4091.0,-49.0,-53.0,214.0,213.0
4086,-39,228,0,4088.0,4090.0,-43.0,-49.0,220.0,214.0
4083,-31,232,0,4086.0,4088.0,-39.0,-43.0,228.0,220.0
4078,-28,237,0,4083.0,4086.0,-31.0,-39.0,232.0,228.0
4072,-30,233,0,4078.0,4083.0,-28.0,-31.0,237.0,232.0
4068,-31,231,0,4072.0,4078.0,-30.0,-28.0,233.0,237.0
4065,-30,229,0,4068.0,4072.0,-31.0,-30.0,231.0,233.0
4063,-31,228,0,4065.0,4068.0,-30.0,-31.0,229.0,231.0
4060,-27,224,0,4063.0,4065.0,-31.0,-30.0,228.0,229.0
4059,-29,219,0,4060.0,4063.0,-27.0,-31.0,224.0,228.0
4062,-31,216,0,4059.0,4060.0,-29.0,-27.0,219.0,224.0
4065,-32,217,0,4062.0,4059.0,-31.0,-29.0,216.0,219.0
4064,-37,214,0,4065.0,4062.0,-32.0,-31.0,217.0,216.0
4065,-39,211,0,4064.0,4065.0,-37.0,-32.0,214.0,217.0
4068,-39,210,0,4065.0,4064.0,-39.0,-37.0,211.0,214.0
4069,-38,210,0,4068.0,4065.0,-39.0,-39.0,210.0,211.0
4072,-36,212,0,4069.0,4068.0,-38.0,-39.0,210.0,210.0
4076,-33,214,0,4072.0,4069.0,-36.0,-38.0,212.0,210.0
4078,-30,216,0,4076.0,4072.0,-33.0,-36.0,214.0,212.0
4079,-29,220,0,4078.0,4076.0,-30.0,-33.0,216.0,214.0
4077,-26,224,0,4079.0,4078.0,-29.0,-30.0,220.0,216.0
4074,-29,226,0,4077.0,4079.0,-26.0,-29.0,224.0,220.0
4071,-35,228,0,4074.0,4077.0,-29.0,-26.0,226.0,224.0
4062,-38,227,0,4071.0,4074.0,-35.0,-29.0,228.0,226.0
4057,-40,226,0,4062.0,4071.0,-38.0,-35.0,227.0,228.0
4057,-45,220,0,4057.0,4062.0,-40.0,-38.0,226.0,227.0
4054,-50,217,0,4057.0,4057.0,-45.0,-40.0,220.0,226.0
4055,-49,214,0,4054.0,4057.0,-50.0,-45.0,217.0,220.0
4057,-49,215,0,4055.0,4054.0,-49.0,-50.0,214.0,217.0
4060,-50,215,0,4057.0,4055.0,-49.0,-49.0,215.0,214.0
4064,-48,220,0,4060.0,4057.0,-50.0,-49.0,215.0,215.0
4064,-42,221,0,4064.0,4060.0,-48.0,-50.0,220.0,215.0
4064,-37,219,0,4064.0,4064.0,-42.0,-48.0,221.0,220.0
4067,-33,220,0,4064.0,4064.0,-37.0,-42.0,219.0,221.0
4065,-31,223,0,4067.0,4064.0,-33.0,-37.0,220.0,219.0
4067,-29,222,0,4065.0,4067.0,-31.0,-33.0,223.0,220.0
4067,-28,222,0,4067.0,4065.0,-29.0,-31.0,222.0,223.0
4067,-30,228,0,4067.0,4067.0,-28.0,-29.0,222.0,222.0
4070,-37,226,0,4067.0,4067.0,-30.0,-28.0,228.0,222.0
4072,-41,226,0,4070.0,4067.0,-37.0,-30.0,226.0,228.0
4073,-49,224,0,4072.0,4070.0,-41.0,-37.0,226.0,226.0
4076,-56,226,0,4073.0,4072.0,-49.0,-41.0,224.0,226.0
4085,-59,232,0,4076.0,4073.0,-56.0,-49.0,226.0,224.0
4089,-63,228,0,4085.0,4076.0,-59.0,-56.0,232.0,226.0
4085,-59,225,0,4089.0,4085.0,-63.0,-59.0,228.0,232.0
4085,-58,224,0,4085.0,4089.0,-59.0,-63.0,225.0,228.0
4078,-55,218,0,4085.0,4085.0,-58.0,-59.0,224.0,225.0
4074,-50,216,0,4078.0,4085.0,-55.0,-58.0,218.0,224.0
4073,-42,220,0,4074.0,4078.0,-50.0,-55.0,216.0,218.0
4074,-38,219,0,4073.0,4074.0,-42.0,-50.0,220.0,216.0
4071,-33,221,0,4074.0,4073.0,-38.0,-42.0,219.0,220.0
4072,-30,219,0,4071.0,4074.0,-33.0,-38.0,221.0,219.0
4069,-26,212,0,4072.0,4071.0,-30.0,-33.0,219.0,221.0
4070,-21,207,0,4069.0,4072.0,-26.0,-30.0,212.0,219.0
4070,-20,202,0,4070.0,4069.0,-21.0,-26.0,207.0,212.0
4072,-15,201,0,4070.0,4070.0,-20.0,-21.0,202.0,207.0
4073,-12,204,0,4072.0,4070.0,-15.0,-20.0,201.0,202.0
4075,-10,210,0,4073.0,4072.0,-12.0,-15.0,204.0,201.0
4081,-11,216,0,4075.0,4073.0,-10.0,-12.0,210.0,204.0
4084,-8,219,0,4081.0,4075.0,-11.0,-10.0,216.0,210.0
4080,-6,221,0,4084.0,4081.0,-8.0,-11.0,219.0,216.0
4075,-10,218,0,4080.0,4084.0,-6.0,-8.0,221.0,219.0
4070,-16,218,0,4075.0,4080.0,-10.0,-6.0,218.0,221.0
4069,-17,218,0,4070.0,4075.0,-16.0,-10.0,218.0,218.0
4069,-16,215,0,4069.0,4070.0,-17.0,-16.0,218.0,218.0
4067,-14,218,0,4069.0,4069.0,-16.0,-17.0,215.0,218.0
4064,-14,220,0,4067.0,4069.0,-14.0,-16.0,218.0,215.0
4063,-10,219,0,4064.0,4067.0,-14.0,-14.0,220.0,218.0
4066,-10,220,0,4063.0,4064.0,-10.0,-14.0,219.0,220.0
4068,-11,223,0,4066.0,4063.0,-10.0,-10.0,220.0,219.0
4069,-15,224,0,4068.0,4066.0,-11.0,-10.0,223.0,220.0
4071,-22,226,0,4069.0,4068.0,-15.0,-11.0,224.0,223.0
4073,-28,222,0,4071.0,4069.0,-22.0,-15.0,226.0,224.0
4076,-28,221,0,4073.0,4071.0,-28.0,-22.0,222.0,226.0
4081,-31,213,0,4076.0,4073.0,-28.0,-28.0,221.0,222.0
4077,-33,208,0,4081.0,4076.0,-31.0,-28.0,213.0,221.0
4080,-32,206,0,4077.0,4081.0,-33.0,-31.0,208.0,213.0
4079,-32,213,0,4080.0,4077.0,-32.0,-33.0,206.0,208.0
4076,-31,215,0,4079.0,4080.0,-32.0,-32.0,213.0,206.0
4072,-32,218,0,4076.0,4079.0,-31.0,-32.0,215.0,213.0
4064,-34,221,0,4072.0,4076.0,-32.0,-31.0,218.0,215.0
4059,-39,220,0,4064.0,4072.0,-34.0,-32.0,221.0,218.0
4056,-42,218,0,4059.0,4064.0,-39.0,-34.0,220.0,221.0
4052,-45,215,0,4056.0,4059.0,-42.0,-39.0,218.0,220.0
4050,-47,209,0,4052.0,4056.0,-45.0,-42.0,215.0,218.0
4052,-49,208,0,4050.0,4052.0,-47.0,-45.0,209.0,215.0
4051,-45,206,0,4052.0,4050.0,-49.0,-47.0,208.0,209.0
4054,-41,211,0,4051.0,4052.0,-45.0,-49.0,206.0,208.0
4059,-39,211,0,4054.0,4051.0,-41.0,-45.0,211.0,206.0
4061,-38,211,0,4059.0,4054.0,-39.0,-41.0,211.0,211.0
4058,-33,206,0,4061.0,4059.0,-38.0,-39.0,211.0,211.0
4055,-29,201,0,4058.0,4061.0,-33.0,-38.0,206.0,211.0
4060,-26,203,0,4055.0,4058.0,-29.0,-33.0,201.0,206.0
4060,-28,205,0,4060.0,4055.0,-26.0,-29.0,203.0,201.0
4054,-28,210,0,4060.0,4060.0,-28.0,-26.0,205.0,203.0
4050,-27,216,0,4054.0,4060.0,-28.0,-28.0,210.0,205.0
4039,-31,221,0,4050.0,4054.0,-27.0,-28.0,216.0,210.0
4030,-35,227,0,4039.0,4050.0,-31.0,-27.0,221.0,216.0
4029,-43,233,0,4030.0,4039.0,-35.0,-31.0,227.0,221.0
4032,-51,235,0,4029.0,4030.0,-43.0,-35.0,233.0,227.0
4049,-60,231,0,4032.0,4029.0,-51.0,-43.0,235.0,233.0
4069,-66,220,0,4049.0,4032.0,-60.0,-51.0,231.0,235.0
4091,-68,213,0,4069.0,4049.0,-66.0,-60.0,220.0,231.0
4122,-74,213,0,4091.0,4069.0,-68.0,-66.0,213.0,220.0
4147,-74,217,0,4122.0,4091.0,-74.0,-68.0,213.0,213.0
4163,-71,226,0,4147.0,4122.0,-74.0,-74.0,217.0,213.0
4170,-68,236,0,4163.0,4147.0,-71.0,-74.0,226.0,217.0
4165,-63,248,0,4170.0,4163.0,-68.0,-71.0,236.0,226.0
4138,-56,257,0,4165.0,4170.0,-63.0,-68.0,248.0,236.0
4103,-52,263,0,4138.0,4165.0,-56.0,-63.0,257.0,248.0
4060,-51,260,0,4103.0,4138.0,-52.0,-56.0,263.0,257.0
4020,-58,249,0,4060.0,4103.0,-51.0,-52.0,260.0,263.0
3992,-60,242,0,4020.0,4060.0,-58.0,-51.0,249.0,260.0
3971,-68,232,0,3992.0,4020.0,-60.0,-58.0,242.0,249.0
3967,-66,224,0,3971.0,3992.0,-68.0,-60.0,232.0,242.0
3988,-64,219,0,3967.0,3971.0,-66.0,-68.0,224.0,232.0
4015,-58,215,0,3988.0,3967.0,-64.0,-66.0,219.0,224.0
4050,-53,215,0,4015.0,3988.0,-58.0,-64.0,215.0,219.0
4075,-47,213,0,4050.0,4015.0,-53.0,-58.0,215.0,215.0
4091,-42,211,0,4075.0,4050.0,-47.0,-53.0,213.0,215.0
4102,-37,212,0,4091.0,4075.0,-42.0,-47.0,211.0,213.0
4102,-28,213,0,4102.0,4091.0,-37.0,-42.0,212.0,211.0
4101,-22,216,0,4102.0,4102.0,-28.0,-37.0,213.0,212.0
4091,-22,217,0,4101.0,4102.0,-22.0,-28.0,216.0,213.0
4081,-22,219,0,4091.0,4101.0,-22.0,-22.0,217.0,216.0
4069,-21,218,0,4081.0,4091.0,-22.0,-22.0,219.0,217.0
4058,-25,225,0,4069.0,4081.0,-21.0,-22.0,218.0,219.0
4052,-32,223,0,4058.0,4069.0,-25.0,-21.0,225.0,218.0
4056,-36,225,0,4052.0,4058.0,-32.0,-25.0,223.0,225.0
4054,-38,220,0,4056.0,4052.0,-36.0,-32.0,225.0,223.0
4060,-43,222,0,4054.0,4056.0,-38.0,-36.0,220.0,225.0
4067,-42,219,0,4060.0,4054.0,-43.0,-38.0,222.0,220.0
4072,-42,221,0,4067.0,4060.0,-42.0,-43.0,219.0,222.0
4074,-42,221,0,4072.0,4067.0,-42.0,-42.0,221.0,219.0
4075,-47,217,0,4074.0,4072.0,-42.0,-42.0,221.0,221.0
4073,-47,214,0,4075.0,4074.0,-47.0,-42.0,217.0,221.0
4073,-45,208,0,4073.0,4075.0,-47.0,-47.0,214.0,217.0
4072,-36,199,0,4073.0,4073.0,-45.0,-47.0,208.0,214.0
4071,-32,188,0,4072.0,4073.0,-36.0,-45.0,199.0,208.0
4068,-26,186,0,4071.0,4072.0,-32.0,-36.0,188.0,199.0
4067,-19,184,0,4068.0,4071.0,-26.0,-32.0,186.0,188.0
4068,-13,188,0,4067.0,4068.0,-19.0,-26.0,184.0,186.0
4068,-9,192,0,4068.0,4067.0,-13.0,-19.0,188.0,184.0
4067,-8,201,0,4068.0,4068.0,-9.0,-13.0,192.0,188.0
4061,-9,207,0,4067.0,4068.0,-8.0,-9.0,201.0,192.0
4056,-17,212,0,4061.0,4067.0,-9.0,-8.0,207.0,201.0
4054,-22,214,0,4056.0,4061.0,-17.0,-9.0,212.0,207.0
4056,-27,218,0,4054.0,4056.0,-22.0,-17.0,214.0,212.0
4061,-33,221,0,4056.0,4054.0,-27.0,-22.0,218.0,214.0
4069,-35,222,0,4061.0,4056.0,-33.0,-27.0,221.0,218.0
4080,-37,218,0,4069.0,4061.0,-35.0,-33.0,222.0,221.0
4089,-40,212,0,4080.0,4069.0,-37.0,-35.0,218.0,222.0
4095,-36,212,0,4089.0,4080.0,-40.0,-37.0,212.0,218.0
4097,-33,213,0,4095.0,4089.0,-36.0,-40.0,212.0,212.0
4099,-34,217,0,4097.0,4095.0,-33.0,-36.0,213.0,212.0
4098,-39,219,0,4099.0,4097.0,-34.0,-33.0,217.0,213.0
4089,-43,222,0,4098.0,4099.0,-39.0,-34.0,219.0,217.0
4082,-51,225,0,4089.0,4098.0,-43.0,-39.0,222.0,219.0
4071,-55,233,0,4082.0,4089.0,-51.0,-43.0,225.0,222.0
4063,-61,246,0,4071.0,4082.0,-55.0,-51.0,233.0,225.0
4058,-65,256,0,4063.0,4071.0,-61.0,-55.0,246.0,233.0
4051,-67,260,0,4058.0,4063.0,-65.0,-61.0,256.0,246.0
4046,-70,255,0,4051.0,4058.0,-67.0,-65.0,260.0,256.0
4043,-70,247,0,4046.0,4051.0,-70.0,-67.0,255.0,260.0
4043,-70,237,0,4043.0,4046.0,-70.0,-70.0,247.0,255.0
4046,-70,230,0,4043.0,4043.0,-70.0,-70.0,237.0,247.0
4055,-69,219,0,4046.0,4043.0,-70.0,-70.0,230.0,237.0
4065,-64,216,0,4055.0,4046.0,-69.0,-70.0,219.0,230.0
4078,-61,216,0,4065.0,4055.0,-64.0,-69.0,216.0,219.0
4089,-58,214,0,4078.0,4065.0,-61.0,-64.0,216.0,216.0
4091,-54,216,0,4089.0,4078.0,-58.0,-61.0,214.0,216.0
4088,-51,217,0,4091.0,4089.0,-54.0,-58.0,216.0,214.0
4081,-47,215,0,4088.0,4091.0,-51.0,-54.0,217.0,216.0
4074,-44,214,0,4081.0,4088.0,-47.0,-51.0,215.0,217.0
4071,-40,210,0,4074.0,4081.0,-44.0,-47.0,214.0,215.0
4071,-33,209,0,4071.0,4074.0,-40.0,-44.0,210.0,214.0
4075,-26,209,0,4071.0,4071.0,-33.0,-40.0,209.0,210.0
4083,-19,212,0,4075.0,4071.0,-26.0,-33.0,209.0,209.0
4091,-17,213,0,4083.0,4075.0,-19.0,-26.0,212.0,209.0
4096,-12,217,0,4091.0,4083.0,-17.0,-19.0,213.0,212.0
4096,-13,219,0,4096.0,4091.0,-12.0,-17.0,217.0,213.0
4090,-13,218,0,4096.0,4096.0,-13.0,-12.0,219.0,217.0
4082,-19,216,0,4090.0,4096.0,-13.0,-13.0,218.0,219.0
4073,-22,217,0,4082.0,4090.0,-19.0,-13.0,216.0,218.0
4068,-28,217,0,4073.0,4082.0,-22.0,-19.0,217.0,216.0
4062,-30,215,0,4068.0,4073.0,-28.0,-22.0,217.0,217.0
4057,-26,216,0,4062.0,4068.0,-30.0,-28.0,215.0,217.0
4056,-29,216,0,4057.0,4062.0,-26.0,-30.0,216.0,215.0
4055,-30,219,0,4056.0,4057.0,-29.0,-26.0,216.0,216.0
4058,-26,219,0,4055.0,4056.0,-30.0,-29.0,219.0,216.0
4062,-27,222,0,4058.0,4055.0,-26.0,-30.0,219.0,219.0
4065,-27,221,0,4062.0,4058.0,-27.0,-26.0,222.0,219.0
4067,-25,221,0,4065.0,4062.0,-27.0,-27.0,221.0,222.0
4070,-27,221,0,4067.0,4065.0,-25.0,-27.0,221.0,221.0
4071,-29,223,0,4070.0,4067.0,-27.0,-25.0,221.0,221.0
4072,-30,219,0,4071.0,4070.0,-29.0,-27.0,223.0,221.0
4077,-37,212,0,4072.0,4071.0,-30.0,-29.0,219.0,223.0
4079,-35,206,0,4077.0,4072.0,-37.0,-30.0,212.0,219.0
4083,-36,205,0,4079.0,4077.0,-35.0,-37.0,206.0,212.0
4088,-35,205,0,4083.0,4079.0,-36.0,-35.0,205.0,206.0
4083,-36,211,0,4088.0,4083.0,-35.0,-36.0,205.0,205.0
4079,-35,213,0,4083.0,4088.0,-36.0,-35.0,211.0,205.0
4075,-36,214,0,4079.0,4083.0,-35.0,-36.0,213.0,211.0
4071,-33,217,0,4075.0,4079.0,-36.0,-35.0,214.0,213.0
4065,-36,218,0,4071.0,4075.0,-33.0,-36.0,217.0,214.0
4057,-33,219,0,4065.0,4071.0,-36.0,-33.0,218.0,217.0
4050,-36,220,0,4057.0,4065.0,-33.0,-36.0,219.0,218.0
4047,-42,222,0,4050.0,4057.0,-36.0,-33.0,220.0,219.0
4045,-45,227,0,4047.0,4050.0,-42.0,-36.0,222.0,220.0
4050,-50,228,0,4045.0,4047.0,-45.0,-42.0,227.0,222.0
4055,-51,228,0,4050.0,4045.0,-50.0,-45.0,228.0,227.0
4061,-58,229,0,4055.0,4050.0,-51.0,-50.0,228.0,228.0
4068,-60,229,0,4061.0,4055.0,-58.0,-51.0,229.0,228.0
4070,-64,225,0,4068.0,4061.0,-60.0,-58.0,229.0,229.0
4075,-62,223,0,4070.0,4068.0,-64.0,-60.0,225.0,229.0
4078,-61,222,0,4075.0,4070.0,-62.0,-64.0,223.0,225.0
4085,-57,224,0,4078.0,4075.0,-61.0,-62.0,222.0,223.0
4083,-53,223,0,4085.0,4078.0,-57.0,-61.0,224.0,222.0
4077,-43,225,0,4083.0,4085.0,-53.0,-57.0,223.0,224.0
4075,-43,223,0,4077.0,4083.0,-43.0,-53.0,225.0,223.0
4069,-43,224,0,4075.0,4077.0,-43.0,-43.0,223.0,225.0
4065,-46,227,0,4069.0,4075.0,-43.0,-43.0,224.0,223.0
4062,-43,227,0,4065.0,4069.0,-46.0,-43.0,227.0,224.0
4062,-38,225,0,4062.0,4065.0,-43.0,-46.0,227.0,227.0
4065,-34,216,0,4062.0,4062.0,-38.0,-43.0,225.0,227.0
4069,-32,214,0,4065.0,4062.0,-34.0,-38.0,216.0,225.0
4075,-36,214,0,4069.0,4065.0,-32.0,-34.0,214.0,216.0
4078,-39,213,0,4075.0,4069.0,-36.0,-32.0,214.0,214.0
4083,-40,216,0,4078.0,4075.0,-39.0,-36.0,213.0,214.0
4084,-43,214,0,4083.0,4078.0,-40.0,-39.0,216.0,213.0
4090,-43,213,0,4084.0,4083.0,-43.0,-40.0,214.0,216.0
4090,-48,216,0,4090.0,4084.0,-43.0,-43.0,213.0,214.0
4084,-49,218,0,4090.0,4090.0,-48.0,-43.0,216.0,213.0
4075,-48,221,0,4084.0,4090.0,-49.0,-48.0,218.0,216.0
4071,-48,223,0,4075.0,4084.0,-48.0,-49.0,221.0,218.0
4064,-45,225,0,4071.0,4075.0,-48.0,-48.0,223.0,221.0
4060,-47,224,0,4064.0,4071.0,-45.0,-48.0,225.0,223.0
4054,-48,221,0,4060.0,4064.0,-47.0,-45.0,224.0,225.0
4052,-51,228,0,4054.0,4060.0,-48.0,-47.0,221.0,224.0
4051,-50,232,0,4052.0,4054.0,-51.0,-48.0,228.0,221.0
4055,-54,236,0,4051.0,4052.0,-50.0,-51.0,232.0,228.0
4054,-59,237,0,4055.0,4051.0,-54.0,-50.0,236.0,232.0
4056,-62,237,0,4054.0,4055.0,-59.0,-54.0,237.0,236.0
4063,-64,232,0,4056.0,4054.0,-62.0,-59.0,237.0,237.0
4065,-65,232,0,4063.0,4056.0,-64.0,-62.0,232.0,237.0
4066,-67,235,0,4065.0,4063.0,-65.0,-64.0,232.0,232.0
4069,-67,233,0,4066.0,4065.0,-67.0,-65.0,235.0,232.0
4069,-72,232,0,4069.0,4066.0,-67.0,-67.0,233.0,235.0
4072,-65,232,0,4069.0,4069.0,-72.0,-67.0,232.0,233.0
4076,-64,230,0,4072.0,4069.0,-65.0,-72.0,232.0,232.0
4079,-61,229,0,4076.0,4072.0,-64.0,-65.0,230.0,232.0
4081,-61,226,0,4079.0,4076.0,-61.0,-64.0,229.0,230.0
4084,-58,221,0,4081.0,4079.0,-61.0,-61.0,226.0,229.0
4081,-55,226,0,4084.0,4081.0,-58.0,-61.0,221.0,226.0
4083,-57,232,0,4081.0,4084.0,-55.0,-58.0,226.0,221.0
4081,-58,230,0,4083.0,4081.0,-57.0,-55.0,232.0,226.0
4076,-57,236,0,4081.0,4083.0,-58.0,-57.0,230.0,232.0
4072,-62,237,0,4076.0,4081.0,-57.0,-58.0,236.0,230.0
4063,-65,235,0,4072.0,4076.0,-62.0,-57.0,237.0,236.0
4052,-70,233,0,4063.0,4072.0,-65.0,-62.0,235.0,237.0
4043,-70,235,0,4052.0,4063.0,-70.0,-65.0,233.0,235.0
4039,-74,238,0,4043.0,4052.0,-70.0,-70.0,235.0,233.0
4041,-72,235,0,4039.0,4043.0,-74.0,-70.0,238.0,235.0
4041,-73,234,0,4041.0,4039.0,-72.0,-74.0,235.0,238.0
4043,-74,233,0,4041.0,4041.0,-73.0,-72.0,234.0,235.0
4052,-74,231,0,4043.0,4041.0,-74.0,-73.0,233.0,234.0
4059,-69,230,0,4052.0,4043.0,-74.0,-74.0,231.0,233.0
4065,-71,234,0,4059.0,4052.0,-69.0,-74.0,230.0,231.0
4072,-70,233,0,4065.0,4059.0,-71.0,-69.0,234.0,230.0
4079,-67,235,0,4072.0,4065.0,-70.0,-71.0,233.0,234.0
4083,-65,232,0,4079.0,4072.0,-67.0,-70.0,235.0,233.0
4083,-64,231,0,4083.0,4079.0,-65.0,-67.0,232.0,235.0
4082,-65,234,0,4083.0,4083.0,-64.0,-65.0,231.0,232.0
4084,-62,233,0,4082.0,4083.0,-65.0,-64.0,234.0,231.0
4081,-58,230,0,4084.0,4082.0,-62.0,-65.0,233.0,234.0
4082,-60,231,0,4081.0,4084.0,-58.0,-62.0,230.0,233.0
4079,-55,231,0,4082.0,4081.0,-60.0,-58.0,231.0,230.0
4076,-54,232,0,4079.0,4082.0,-55.0,-60.0,231.0,231.0
4074,-52,232,0,4076.0,4079.0,-54.0,-55.0,232.0,231.0
4072,-48,231,0,4074.0,4076.0,-52.0,-54.0,232.0,232.0
4072,-50,230,0,4072.0,4074.0,-48.0,-52.0,231.0,232.0
4069,-48,234,0,4072.0,4072.0,-50.0,-48.0,230.0,231.0
4059,-49,235,0,4069.0,4072.0,-48.0,-50.0,234.0,230.0
4056,-49,237,0,4059.0,4069.0,-49.0,-48.0,235.0,234.0
4052,-44,236,0,4056.0,4059.0,-49.0,-49.0,237.0,235.0
4052,-44,239,0,4052.0,4056.0,-44.0,-49.0,236.0,237.0
4056,-48,236,0,4052.0,4052.0,-44.0,-44.0,239.0,236.0
4057,-51,232,0,4056.0,4052.0,-48.0,-44.0,236.0,239.0
4060,-55,227,0,4057.0,4056.0,-51.0,-48.0,232.0,236.0
4066,-60,222,0,4060.0,4057.0,-55.0,-51.0,227.0,232.0
4075,-63,222,0,4066.0,4060.0,-60.0,-55.0,222.0,227.0
4078,-66,227,0,4075.0,4066.0,-63.0,-60.0,222.0,222.0
4082,-67,225,0,4078.0,4075.0,-66.0,-63.0,227.0,222.0
4082,-69,231,0,4082.0,4078.0,-67.0,-66.0,225.0,227.0
4081,-70,232,0,4082.0,4082.0,-69.0,-67.0,231.0,225.0
4079,-71,236,0,4081.0,4082.0,-70.0,-69.0,232.0,231.0
4077,-76,237,0,4079.0,4081.0,-71.0,-70.0,236.0,232.0
4078,-77,238,0,4077.0,4079.0,-76.0,-71.0,237.0,236.0
4077,-78,238,0,4078.0,4077.0,-77.0,-76.0,238.0,237.0
4072,-78,233,0,4077.0,4078.0,-78.0,-77.0,238.0,238.0
4071,-73,235,0,4072.0,4077.0,-78.0,-78.0,233.0,238.0
4067,-67,238,0,4071.0,4072.0,-73.0,-78.0,235.0,233.0
4061,-65,236,0,4067.0,4071.0,-67.0,-73.0,238.0,235.0
4056,-65,237,0,4061.0,4067.0,-65.0,-67.0,236.0,238.0
4048,-67,238,0,4056.0,4061.0,-65.0,-65.0,237.0,236.0
4043,-73,233,0,4048.0,4056.0,-67.0,-65.0,238.0,237.0
4041,-75,231,0,4043.0,4048.0,-73.0,-67.0,233.0,238.0
4041,-83,233,0,4041.0,4043.0,-75.0,-73.0,231.0,233.0
4045,-84,228,0,4041.0,4041.0,-83.0,-75.0,233.0,231.0
4052,-80,226,0,4045.0,4041.0,-84.0,-83.0,228.0,233.0
4060,-80,223,0,4052.0,4045.0,-80.0,-84.0,226.0,228.0
4067,-80,218,0,4060.0,4052.0,-80.0,-80.0,223.0,226.0
4073,-75,217,0,4067.0,4060.0,-80.0,-80.0,218.0,223.0
4080,-72,219,0,4073.0,4067.0,-75.0,-80.0,217.0,218.0
4089,-65,223,0,4080.0,4073.0,-72.0,-75.0,219.0,217.0
4091,-62,222,0,4089.0,4080.0,-65.0,-72.0,223.0,219.0
4094,-60,224,0,4091.0,4089.0,-62.0,-65.0,222.0,223.0
4089,-63,228,0,4094.0,4091.0,-60.0,-62.0,224.0,222.0
4083,-68,228,0,4089.0,4094.0,-63.0,-60.0,228.0,224.0
4077,-72,226,0,4083.0,4089.0,-68.0,-63.0,228.0,228.0
4070,-76,223,0,4077.0,4083.0,-72.0,-68.0,226.0,228.0
4067,-82,218,0,4070.0,4077.0,-76.0,-72.0,223.0,226.0
4063,-86,219,0,4067.0,4070.0,-82.0,-76.0,218.0,223.0
4061,-82,217,0,4063.0,4067.0,-86.0,-82.0,219.0,218.0
4064,-77,212,0,4061.0,4063.0,-82.0,-86.0,217.0,219.0
4067,-71,210,0,4064.0,4061.0,-77.0,-82.0,212.0,217.0
4070,-63,214,0,4067.0,4064.0,-71.0,-77.0,210.0,212.0
4075,-58,217,0,4070.0,4067.0,-63.0,-71.0,214.0,210.0
4079,-52,223,0,4075.0,4070.0,-58.0,-63.0,217.0,214.0
4080,-52,229,0,4079.0,4075.0,-52.0,-58.0,223.0,217.0
4073,-55,237,0,4080.0,4079.0,-52.0,-52.0,229.0,223.0
4066,-62,243,0,4073.0,4080.0,-55.0,-52.0,237.0,229.0
4059,-70,246,0,4066.0,4073.0,-62.0,-55.0,243.0,237.0
4057,-75,249,0,4059.0,4066.0,-70.0,-62.0,246.0,243.0
4055,-80,258,0,4057.0,4059.0,-75.0,-70.0,249.0,246.0
4053,-89,258,0,4055.0,4057.0,-80.0,-75.0,258.0,249.0
4051,-98,254,0,4053.0,4055.0,-89.0,-80.0,258.0,258.0
4055,-94,245,0,4051.0,4053.0,-98.0,-89.0,254.0,258.0
4061,-91,236,0,4055.0,4051.0,-94.0,-98.0,245.0,254.0
4065,-86,229,0,4061.0,4055.0,-91.0,-94.0,236.0,245.0
4070,-77,221,0,4065.0,4061.0,-86.0,-91.0,229.0,236.0
4078,-66,215,0,4070.0,4065.0,-77.0,-86.0,221.0,229.0
4079,-57,214,0,4078.0,4070.0,-66.0,-77.0,215.0,221.0
4078,-54,217,0,4079.0,4078.0,-57.0,-66.0,214.0,215.0
4078,-52,222,0,4078.0,4079.0,-54.0,-57.0,217.0,214.0
4071,-51,222,0,4078.0,4078.0,-52.0,-54.0,222.0,217.0
4065,-59,223,0,4071.0,4078.0,-51.0,-52.0,222.0,222.0
4060,-67,220,0,4065.0,4071.0,-59.0,-51.0,223.0,222.0
4059,-79,214,0,4060.0,4065.0,-67.0,-59.0,220.0,223.0
4061,-77,214,0,4059.0,4060.0,-79.0,-67.0,214.0,220.0
4069,-75,214,0,4061.0,4059.0,-77.0,-79.0,214.0,214.0
4073,-72,216,0,4069.0,4061.0,-75.0,-77.0,214.0,214.0
4080,-67,218,0,4073.0,4069.0,-72.0,-75.0,216.0,214.0
4085,-62,219,0,4080.0,4073.0,-67.0,-72.0,218.0,216.0
4091,-57,223,0,4085.0,4080.0,-62.0,-67.0,219.0,218.0
4090,-57,225,0,4091.0,4085.0,-57.0,-62.0,223.0,219.0
4090,-54,224,0,4090.0,4091.0,-57.0,-57.0,225.0,223.0
4082,-49,219,0,4090.0,4090.0,-54.0,-57.0,224.0,225.0
4073,-49,218,0,4082.0,4090.0,-49.0,-54.0,219.0,224.0
4068,-52,217,0,4073.0,4082.0,-49.0,-49.0,218.0,219.0
4064,-52,221,0,4068.0,4073.0,-52.0,-49.0,217.0,218.0
4064,-52,230,0,4064.0,4068.0,-52.0,-52.0,221.0,217.0
4066,-53,228,0,4064.0,4064.0,-52.0,-52.0,230.0,221.0
4070,-58,230,0,4066.0,4064.0,-53.0,-52.0,228.0,230.0
4074,-52,232,0,4070.0,4066.0,-58.0,-53.0,230.0,228.0
4077,-49,229,0,4074.0,4070.0,-52.0,-58.0,232.0,230.0
4077,-47,228,0,4077.0,4074.0,-49.0,-52.0,229.0,232.0
4075,-51,228,0,4077.0,4077.0,-47.0,-49.0,228.0,229.0
4071,-50,226,0,4075.0,4077.0,-51.0,-47.0,228.0,228.0
4069,-52,222,0,4071.0,4075.0,-50.0,-51.0,226.0,228.0
4071,-58,223,0,4069.0,4071.0,-52.0,-50.0,222.0,226.0
4067,-62,224,0,4071.0,4069.0,-58.0,-52.0,223.0,222.0
4067,-66,220,0,4067.0,4071.0,-62.0,-58.0,224.0,223.0
4069,-65,219,0,4067.0,4067.0,-66.0,-62.0,220.0,224.0
4067,-61,224,0,4069.0,4067.0,-65.0,-66.0,219.0,220.0
4070,-59,226,0,4067.0,4069.0,-61.0,-65.0,224.0,219.0
4072,-57,228,0,4070.0,4067.0,-59.0,-61.0,226.0,224.0
4072,-59,232,0,4072.0,4070.0,-57.0,-59.0,228.0,226.0
4066,-60,234,0,4072.0,4072.0,-59.0,-57.0,232.0,228.0
4064,-64,232,0,4066.0,4072.0,-60.0,-59.0,234.0,232.0
4057,-65,227,0,4064.0,4066.0,-64.0,-60.0,232.0,234.0
4051,-73,225,0,4057.0,4064.0,-65.0,-64.0,227.0,232.0
4048,-73,221,0,4051.0,4057.0,-73.0,-65.0,225.0,227.0
4051,-73,221,0,4048.0,4051.0,-73.0,-73.0,221.0,225.0
4060,-68,229,0,4051.0,4048.0,-73.0,-73.0,221.0,221.0
4064,-67,229,0,4060.0,4051.0,-68.0,-73.0,229.0,221.0
4072,-60,229,0,4064.0,4060.0,-67.0,-68.0,229.0,229.0
4086,-56,223,0,4072.0,4064.0,-60.0,-67.0,229.0,229.0
4092,-51,222,0,4086.0,4072.0,-56.0,-60.0,223.0,229.0
4096,-51,221,0,4092.0,4086.0,-51.0,-56.0,222.0,223.0
4098,-51,222,0,4096.0,4092.0,-51.0,-51.0,221.0,222.0
4093,-47,221,0,4098.0,4096.0,-51.0,-51.0,222.0,221.0
4085,-42,225,0,4093.0,4098.0,-47.0,-51.0,221.0,222.0
4077,-44,228,0,4085.0,4093.0,-42.0,-47.0,225.0,221.0
4066,-41,228,0,4077.0,4085.0,-44.0,-42.0,228.0,225.0
4054,-42,229,0,4066.0,4077.0,-41.0,-44.0,228.0,228.0
4044,-43,234,0,4054.0,4066.0,-42.0,-41.0,229.0,228.0
4041,-46,232,0,4044.0,4054.0,-43.0,-42.0,234.0,229.0
4045,-46,231,0,4041.0,4044.0,-46.0,-43.0,232.0,234.0
4049,-45,231,0,4045.0,4041.0,-46.0,-46.0,231.0,232.0
4059,-50,226,0,4049.0,4045.0,-45.0,-46.0,231.0,231.0
4068,-52,225,0,4059.0,4049.0,-50.0,-45.0,226.0,231.0
4073,-55,217,0,4068.0,4059.0,-52.0,-50.0,225.0,226.0
4078,-58,214,0,4073.0,4068.0,-55.0,-52.0,217.0,225.0
4083,-57,210,0,4078.0,4073.0,-58.0,-55.0,214.0,217.0
4086,-61,208,0,4083.0,4078.0,-57.0,-58.0,210.0,214.0
4091,-58,207,0,4086.0,4083.0,-61.0,-57.0,208.0,210.0
4094,-58,207,0,4091.0,4086.0,-58.0,-61.0,207.0,208.0
4092,-57,211,0,4094.0,4091.0,-58.0,-58.0,207.0,207.0
4089,-58,210,0,4092.0,4094.0,-57.0,-58.0,211.0,207.0
4085,-58,216,0,4089.0,4092.0,-58.0,-57.0,210.0,211.0
4079,-57,218,0,4085.0,4089.0,-58.0,-58.0,216.0,210.0
4076,-54,220,0,4079.0,4085.0,-57.0,-58.0,218.0,216.0
4070,-53,222,0,4076.0,4079.0,-54.0,-57.0,220.0,218.0
4066,-49,223,0,4070.0,4076.0,-53.0,-54.0,222.0,220.0
4060,-51,221,0,4066.0,4070.0,-49.0,-53.0,223.0,222.0
4053,-50,223,0,4060.0,4066.0,-51.0,-49.0,221.0,223.0
4050,-49,224,0,4053.0,4060.0,-50.0,-51.0,223.0,221.0
4046,-47,225,0,4050.0,4053.0,-49.0,-50.0,224.0,223.0
4051,-53,222,0,4046.0,4050.0,-47.0,-49.0,225.0,224.0
4050,-52,220,0,4051.0,4046.0,-53.0,-47.0,222.0,225.0
4053,-51,217,0,4050.0,4051.0,-52.0,-53.0,220.0,222.0
4062,-52,216,0,4053.0,4050.0,-51.0,-52.0,217.0,220.0
4071,-53,214,0,4062.0,4053.0,-52.0,-51.0,216.0,217.0
4076,-55,213,0,4071.0,4062.0,-53.0,-52.0,214.0,216.0
4083,-52,214,0,4076.0,4071.0,-55.0,-53.0,213.0,214.0
4091,-54,217,0,4083.0,4076.0,-52.0,-55.0,214.0,213.0
4095,-58,218,0,4091.0,4083.0,-54.0,-52.0,217.0,214.0
4095,-56,219,0,4095.0,4091.0,-58.0,-54.0,218.0,217.0
4092,-58,221,0,4095.0,4095.0,-56.0,-58.0,219.0,218.0
4083,-60,219,0,4092.0,4095.0,-58.0,-56.0,221.0,219.0
4077,-62,221,0,4083.0,4092.0,-60.0,-58.0,219.0,221.0
4069,-64,221,0,4077.0,4083.0,-62.0,-60.0,221.0,219.0
4064,-67,221,0,4069.0,4077.0,-64.0,-62.0,221.0,221.0
4063,-68,220,0,4064.0,4069.0,-67.0,-64.0,221.0,221.0
4063,-68,222,0,4063.0,4064.0,-68.0,-67.0,220.0,221.0
4060,-63,222,0,4063.0,4063.0,-68.0,-68.0,222.0,220.0
4063,-52,218,0,4060.0,4063.0,-63.0,-68.0,222.0,222.0
4067,-48,216,0,4063.0,4060.0,-52.0,-63.0,218.0,222.0
4072,-45,212,0,4067.0,4063.0,-48.0,-52.0,216.0,218.0
4073,-44,207,0,4072.0,4067.0,-45.0,-48.0,212.0,216.0
4075,-45,200,0,4073.0,4072.0,-44.0,-45.0,207.0,212.0
4073,-43,200,0,4075.0,4073.0,-45.0,-44.0,200.0,207.0
4074,-42,202,0,4073.0,4075.0,-43.0,-45.0,200.0,200.0
4067,-38,204,0,4074.0,4073.0,-42.0,-43.0,202.0,200.0
4066,-31,209,0,4067.0,4074.0,-38.0,-42.0,204.0,202.0
4062,-27,214,0,4066.0,4067.0,-31.0,-38.0,209.0,204.0
4056,-26,218,0,4062.0,4066.0,-27.0,-31.0,214.0,209.0
4053,-26,217,0,4056.0,4062.0,-26.0,-27.0,218.0,214.0
4049,-30,218,0,4053.0,4056.0,-26.0,-26.0,217.0,218.0
4044,-34,216,0,4049.0,4053.0,-30.0,-26.0,218.0,217.0
4049,-35,215,0,4044.0,4049.0,-34.0,-30.0,216.0,218.0
4055,-39,217,0,4049.0,4044.0,-35.0,-34.0,215.0,216.0
4062,-38,217,0,4055.0,4049.0,-39.0,-35.0,217.0,215.0
4072,-33,215,0,4062.0,4055.0,-38.0,-39.0,217.0,217.0
4078,-33,215,0,4072.0,4062.0,-33.0,-38.0,215.0,217.0
4085,-32,215,0,4078.0,4072.0,-33.0,-33.0,215.0,215.0
4091,-31,209,0,4085.0,4078.0,-32.0,-33.0,215.0,215.0
4096,-32,205,0,4091.0,4085.0,-31.0,-32.0,209.0,215.0
4098,-33,197,0,4096.0,4091.0,-32.0,-31.0,205.0,209.0
4098,-39,197,0,4098.0,4096.0,-33.0,-32.0,197.0,205.0
4097,-39,201,0,4098.0,4098.0,-39.0,-33.0,197.0,197.0
4094,-39,204,0,4097.0,4098.0,-39.0,-39.0,201.0,197.0
4083,-39,201,0,4094.0,4097.0,-39.0,-39.0,204.0,201.0
4075,-38,204,0,4083.0,4094.0,-39.0,-39.0,201.0,204.0
4066,-38,207,0,4075.0,4083.0,-38.0,-39.0,204.0,201.0
4055,-33,210,0,4066.0,4075.0,-38.0,-38.0,207.0,204.0
4048,-34,213,0,4055.0,4066.0,-33.0,-38.0,210.0,207.0
4041,-36,215,0,4048.0,4055.0,-34.0,-33.0,213.0,210.0
4039,-38,220,0,4041.0,4048.0,-36.0,-34.0,215.0,213.0
4042,-38,221,0,4039.0,4041.0,-38.0,-36.0,220.0,215.0
4047,-45,220,0,4042.0,4039.0,-38.0,-38.0,221.0,220.0
4054,-48,219,0,4047.0,4042.0,-45.0,-38.0,220.0,221.0
4059,-52,215,0,4054.0,4047.0,-48.0,-45.0,219.0,220.0
4071,-58,212,0,4059.0,4054.0,-52.0,-48.0,215.0,219.0
4076,-62,211,0,4071.0,4059.0,-58.0,-52.0,212.0,215.0
4081,-60,206,0,4076.0,4071.0,-62.0,-58.0,211.0,212.0
4085,-61,207,0,4081.0,4076.0,-60.0,-62.0,206.0,211.0
4083,-61,208,0,4085.0,4081.0,-61.0,-60.0,207.0,206.0
4081,-58,212,0,4083.0,4085.0,-61.0,-61.0,208.0,207.0
4079,-56,212,0,4081.0,4083.0,-58.0,-61.0,212.0,208.0
4076,-56,213,0,4079.0,4081.0,-56.0,-58.0,212.0,212.0
4072,-53,214,0,4076.0,4079.0,-56.0,-56.0,213.0,212.0
4070,-47,214,0,4072.0,4076.0,-53.0,-56.0,214.0,213.0
4070,-42,212,0,4070.0,4072.0,-47.0,-53.0,214.0,214.0
4069,-35,209,0,4070.0,4070.0,-42.0,-47.0,212.0,214.0
4071,-34,208,0,4069.0,4070.0,-35.0,-42.0,209.0,212.0
4069,-30,200,0,4071.0,4069.0,-34.0,-35.0,208.0,209.0
4068,-24,203,0,4069.0,4071.0,-30.0,-34.0,200.0,208.0
4067,-23,200,0,4068.0,4069.0,-24.0,-30.0,203.0,200.0
4067,-26,204,0,4067.0,4068.0,-23.0,-24.0,200.0,203.0
4069,-31,210,0,4067.0,4067.0,-26.0,-23.0,204.0,200.0
4070,-38,208,0,4069.0,4067.0,-31.0,-26.0,210.0,204.0
4070,-43,208,0,4070.0,4069.0,-38.0,-31.0,208.0,210.0
4070,-51,205,0,4070.0,4070.0,-43.0,-38.0,208.0,208.0
4074,-53,205,0,4070.0,4070.0,-51.0,-43.0,205.0,208.0
4081,-53,205,0,4074.0,4070.0,-53.0,-51.0,205.0,205.0
4089,-55,208,0,4081.0,4074.0,-53.0,-53.0,205.0,205.0
4088,-56,205,0,4089.0,4081.0,-55.0,-53.0,208.0,205.0
4091,-52,204,0,4088.0,4089.0,-56.0,-55.0,205.0,208.0
4087,-48,208,0,4091.0,4088.0,-52.0,-56.0,204.0,205.0
4082,-45,212,0,4087.0,4091.0,-48.0,-52.0,208.0,204.0
4072,-43,213,0,4082.0,4087.0,-45.0,-48.0,212.0,208.0
4063,-45,221,0,4072.0,4082.0,-43.0,-45.0,213.0,212.0
4054,-52,225,0,4063.0,4072.0,-45.0,-43.0,221.0,213.0
4047,-56,228,0,4054.0,4063.0,-52.0,-45.0,225.0,221.0
4044,-60,229,0,4047.0,4054.0,-56.0,-52.0,228.0,225.0
4047,-69,231,0,4044.0,4047.0,-60.0,-56.0,229.0,228.0
4050,-69,238,0,4047.0,4044.0,-69.0,-60.0,231.0,229.0
4057,-68,245,0,4050.0,4047.0,-69.0,-69.0,238.0,231.0
4057,-72,242,0,4057.0,4050.0,-68.0,-69.0,245.0,238.0
4066,-75,236,0,4057.0,4057.0,-72.0,-68.0,242.0,245.0
4071,-72,225,0,4066.0,4057.0,-75.0,-72.0,236.0,242.0
4073,-69,220,0,4071.0,4066.0,-72.0,-75.0,225.0,236.0
4077,-66,212,0,4073.0,4071.0,-69.0,-72.0,220.0,225.0
4082,-64,210,0,4077.0,4073.0,-66.0,-69.0,212.0,220.0
4087,-56,210,0,4082.0,4077.0,-64.0,-66.0,210.0,212.0
4091,-50,214,0,4087.0,4082.0,-56.0,-64.0,210.0,210.0
4093,-47,217,0,4091.0,4087.0,-50.0,-56.0,214.0,210.0
4091,-50,215,0,4093.0,4091.0,-47.0,-50.0,217.0,214.0
4081,-52,206,0,4091.0,4093.0,-50.0,-47.0,215.0,217.0
4075,-53,199,0,4081.0,4091.0,-52.0,-50.0,206.0,215.0
4071,-56,194,0,4075.0,4081.0,-53.0,-52.0,199.0,206.0
4071,-58,192,0,4071.0,4075.0,-56.0,-53.0,194.0,199.0
4070,-56,193,0,4071.0,4071.0,-58.0,-56.0,192.0,194.0
4072,-52,202,0,4070.0,4071.0,-56.0,-58.0,193.0,192.0
4080,-48,208,0,4072.0,4070.0,-52.0,-56.0,202.0,193.0
4089,-46,211,0,4080.0,4072.0,-48.0,-52.0,208.0,202.0
4095,-47,209,0,4089.0,4080.0,-46.0,-48.0,211.0,208.0
4097,-45,211,0,4095.0,4089.0,-47.0,-46.0,209.0,211.0
4098,-44,213,0,4097.0,4095.0,-45.0,-47.0,211.0,209.0
4090,-51,211,0,4098.0,4097.0,-44.0,-45.0,213.0,211.0
4081,-50,211,0,4090.0,4098.0,-51.0,-44.0,211.0,213.0
4070,-49,211,0,4081.0,4090.0,-50.0,-51.0,211.0,211.0
4058,-41,216,0,4070.0,4081.0,-49.0,-50.0,211.0,211.0
4050,-37,217,0,4058.0,4070.0,-41.0,-49.0,216.0,211.0
4047,-38,222,0,4050.0,4058.0,-37.0,-41.0,217.0,216.0
4046,-34,216,0,4047.0,4050.0,-38.0,-37.0,222.0,217.0
4047,-33,220,0,4046.0,4047.0,-34.0,-38.0,216.0,222.0
4051,-31,217,0,4047.0,4046.0,-33.0,-34.0,220.0,216.0
4055,-32,214,0,4051.0,4047.0,-31.0,-33.0,217.0,220.0
4057,-33,213,0,4055.0,4051.0,-32.0,-31.0,214.0,217.0
4065,-35,214,0,4057.0,4055.0,-33.0,-32.0,213.0,214.0
4067,-30,212,0,4065.0,4057.0,-35.0,-33.0,214.0,213.0
4071,-34,205,0,4067.0,4065.0,-30.0,-35.0,212.0,214.0
4075,-41,202,0,4071.0,4067.0,-34.0,-30.0,205.0,212.0
4073,-45,205,0,4075.0,4071.0,-41.0,-34.0,202.0,205.0
4075,-44,207,0,4073.0,4075.0,-45.0,-41.0,205.0,202.0
4075,-40,207,0,4075.0,4073.0,-44.0,-45.0,207.0,205.0
4078,-39,207,0,4075.0,4075.0,-40.0,-44.0,207.0,207.0
4078,-37,207,0,4078.0,4075.0,-39.0,-40.0,207.0,207.0
4077,-33,211,0,4078.0,4078.0,-37.0,-39.0,207.0,207.0
4078,-30,212,0,4077.0,4078.0,-33.0,-37.0,211.0,207.0
4071,-31,218,0,4078.0,4077.0,-30.0,-33.0,212.0,211.0
4068,-31,214,0,4071.0,4078.0,-31.0,-30.0,218.0,212.0
4067,-33,207,0,4068.0,4071.0,-31.0,-31.0,214.0,218.0
4068,-38,207,0,4067.0,4068.0,-33.0,-31.0,207.0,214.0
4069,-38,202,0,4068.0,4067.0,-38.0,-33.0,207.0,207.0
4069,-40,197,0,4069.0,4068.0,-38.0,-38.0,202.0,207.0
4073,-37,197,0,4069.0,4069.0,-40.0,-38.0,197.0,202.0
4072,-37,197,0,4073.0,4069.0,-37.0,-40.0,197.0,197.0
4079,-35,201,0,4072.0,4073.0,-37.0,-37.0,197.0,197.0
4081,-31,205,0,4079.0,4072.0,-35.0,-37.0,201.0,197.0
4083,-28,206,0,4081.0,4079.0,-31.0,-35.0,205.0,201.0
4087,-24,208,0,4083.0,4081.0,-28.0,-31.0,206.0,205.0
4086,-26,206,0,4087.0,4083.0,-24.0,-28.0,208.0,206.0
4085,-27,210,0,4086.0,4087.0,-26.0,-24.0,206.0,208.0
4077,-23,212,0,4085.0,4086.0,-27.0,-26.0,210.0,206.0
4073,-22,216,0,4077.0,4085.0,-23.0,-27.0,212.0,210.0
4071,-22,216,0,4073.0,4077.0,-22.0,-23.0,216.0,212.0
4066,-24,218,0,4071.0,4073.0,-22.0,-22.0,216.0,216.0
4064,-26,217,0,4066.0,4071.0,-24.0,-22.0,218.0,216.0
4060,-27,215,0,4064.0,4066.0,-26.0,-24.0,217.0,218.0
4057,-32,215,0,4060.0,4064.0,-27.0,-26.0,215.0,217.0
4061,-37,211,0,4057.0,4060.0,-32.0,-27.0,215.0,215.0
4064,-41,209,0,4061.0,4057.0,-37.0,-32.0,211.0,215.0
4065,-39,205,0,4064.0,4061.0,-41.0,-37.0,209.0,211.0
4066,-40,203,0,4065.0,4064.0,-39.0,-41.0,205.0,209.0
4072,-42,202,0,4066.0,4065.0,-40.0,-39.0,203.0,205.0
4073,-42,203,0,4072.0,4066.0,-42.0,-40.0,202.0,203.0
4077,-46,203,0,4073.0,4072.0,-42.0,-42.0,203.0,202.0
4079,-46,199,0,4077.0,4073.0,-46.0,-42.0,203.0,203.0
4076,-51,200,0,4079.0,4077.0,-46.0,-46.0,199.0,203.0
4078,-50,200,0,4076.0,4079.0,-51.0,-46.0,200.0,199.0
4078,-54,201,0,4078.0,4076.0,-50.0,-51.0,200.0,200.0
4078,-56,201,0,4078.0,4078.0,-54.0,-50.0,201.0,200.0
4079,-59,207,0,4078.0,4078.0,-56.0,-54.0,201.0,201.0
4077,-64,207,0,4079.0,4078.0,-59.0,-56.0,207.0,201.0
4070,-60,209,0,4077.0,4079.0,-64.0,-59.0,207.0,207.0
4065,-60,207,0,4070.0,4077.0,-60.0,-64.0,209.0,207.0
4062,-58,210,0,4065.0,4070.0,-60.0,-60.0,207.0,209.0
4057,-57,206,0,4062.0,4065.0,-58.0,-60.0,210.0,207.0
4056,-59,204,0,4057.0,4062.0,-57.0,-58.0,206.0,210.0
4052,-61,204,0,4056.0,4057.0,-59.0,-57.0,204.0,206.0
4059,-65,205,0,4052.0,4056.0,-61.0,-59.0,204.0,204.0
4065,-63,206,0,4059.0,4052.0,-65.0,-61.0,205.0,204.0
4071,-67,211,0,4065.0,4059.0,-63.0,-65.0,206.0,205.0
4081,-69,215,0,4071.0,4065.0,-67.0,-63.0,211.0,206.0
4087,-70,220,0,4081.0,4071.0,-69.0,-67.0,215.0,211.0
4090,-64,224,0,4087.0,4081.0,-70.0,-69.0,220.0,215.0
4086,-61,224,0,4090.0,4087.0,-64.0,-70.0,224.0,220.0
4081,-58,222,0,4086.0,4090.0,-61.0,-64.0,224.0,224.0
4077,-55,217,0,4081.0,4086.0,-58.0,-61.0,222.0,224.0
4063,-54,216,0,4077.0,4081.0,-55.0,-58.0,217.0,222.0
4053,-53,212,0,4063.0,4077.0,-54.0,-55.0,216.0,217.0
4049,-52,211,0,4053.0,4063.0,-53.0,-54.0,212.0,216.0
4050,-52,209,0,4049.0,4053.0,-52.0,-53.0,211.0,212.0
4047,-45,211,0,4050.0,4049.0,-52.0,-52.0,209.0,211.0
4055,-41,216,0,4047.0,4050.0,-45.0,-52.0,211.0,209.0
4067,-42,221,0,4055.0,4047.0,-41.0,-45.0,216.0,211.0
4076,-38,224,0,4067.0,4055.0,-42.0,-41.0,221.0,216.0
4087,-33,227,0,4076.0,4067.0,-38.0,-42.0,224.0,221.0
4093,-27,230,0,4087.0,4076.0,-33.0,-38.0,227.0,224.0
4096,-26,230,0,4093.0,4087.0,-27.0,-33.0,230.0,227.0
4099,-22,230,0,4096.0,4093.0,-26.0,-27.0,230.0,230.0
4100,-24,230,0,4099.0,4096.0,-22.0,-26.0,230.0,230.0
4100,-26,231,0,4100.0,4099.0,-24.0,-22.0,230.0,230.0
4101,-34,232,0,4100.0,4100.0,-26.0,-24.0,231.0,230.0
4100,-36,223,0,4101.0,4100.0,-34.0,-26.0,232.0,231.0
4098,-43,219,0,4100.0,4101.0,-36.0,-34.0,223.0,232.0
4088,-39,215,0,4098.0,4100.0,-43.0,-36.0,219.0,223.0
4077,-34,208,0,4088.0,4098.0,-39.0,-43.0,215.0,219.0
4073,-29,203,0,4077.0,4088.0,-34.0,-39.0,208.0,215.0
4067,-28,200,0,4073.0,4077.0,-29.0,-34.0,203.0,208.0
4063,-27,195,0,4067.0,4073.0,-28.0,-29.0,200.0,203.0
4060,-21,196,0,4063.0,4067.0,-27.0,-28.0,195.0,200.0
4061,-18,204,0,4060.0,4063.0,-21.0,-27.0,196.0,195.0
4064,-16,210,0,4061.0,4060.0,-18.0,-21.0,204.0,196.0
4067,-16,219,0,4064.0,4061.0,-16.0,-18.0,210.0,204.0
4070,-18,226,0,4067.0,4064.0,-16.0,-16.0,219.0,210.0
4079,-26,228,0,4070.0,4067.0,-18.0,-16.0,226.0,219.0
4086,-30,235,0,4079.0,4070.0,-26.0,-18.0,228.0,226.0
4086,-33,246,0,4086.0,4079.0,-30.0,-26.0,235.0,228.0
4085,-40,245,0,4086.0,4086.0,-33.0,-30.0,246.0,235.0
4087,-44,247,0,4085.0,4086.0,-40.0,-33.0,245.0,246.0
4082,-46,247,0,4087.0,4085.0,-44.0,-40.0,247.0,245.0
4076,-45,242,0,4082.0,4087.0,-46.0,-44.0,247.0,247.0
4067,-44,241,0,4076.0,4082.0,-45.0,-46.0,242.0,247.0
4064,-42,235,0,4067.0,4076.0,-44.0,-45.0,241.0,242.0
4057,-48,232,0,4064.0,4067.0,-42.0,-44.0,235.0,241.0
4051,-47,225,0,4057.0,4064.0,-48.0,-42.0,232.0,235.0
4047,-51,218,0,4051.0,4057.0,-47.0,-48.0,225.0,232.0
4045,-49,214,0,4047.0,4051.0,-51.0,-47.0,218.0,225.0
4047,-45,209,0,4045.0,4047.0,-49.0,-51.0,214.0,218.0
4054,-43,206,0,4047.0,4045.0,-45.0,-49.0,209.0,214.0
4063,-44,208,0,4054.0,4047.0,-43.0,-45.0,206.0,209.0
4072,-44,210,0,4063.0,4054.0,-44.0,-43.0,208.0,206.0
4079,-47,209,0,4072.0,4063.0,-44.0,-44.0,210.0,208.0
4081,-46,215,0,4079.0,4072.0,-47.0,-44.0,209.0,210.0
4086,-46,229,0,4081.0,4079.0,-46.0,-47.0,215.0,209.0
4087,-50,238,0,4086.0,4081.0,-46.0,-46.0,229.0,215.0
4088,-59,250,0,4087.0,4086.0,-50.0,-46.0,238.0,229.0
4083,-64,251,0,4088.0,4087.0,-59.0,-50.0,250.0,238.0
4071,-65,252,0,4083.0,4088.0,-64.0,-59.0,251.0,250.0
4057,-63,247,0,4071.0,4083.0,-65.0,-64.0,252.0,251.0
4045,-64,245,0,4057.0,4071.0,-63.0,-65.0,247.0,252.0
4034,-64,240,0,4045.0,4057.0,-64.0,-63.0,245.0,247.0
4030,-67,236,0,4034.0,4045.0,-64.0,-64.0,240.0,245.0
4032,-65,234,0,4030.0,4034.0,-67.0,-64.0,236.0,240.0
4032,-62,229,0,4032.0,4030.0,-65.0,-67.0,234.0,236.0
4037,-56,226,0,4032.0,4032.0,-62.0,-65.0,229.0,234.0
4045,-51,222,0,4037.0,4032.0,-56.0,-62.0,226.0,229.0
4053,-43,218,0,4045.0,4037.0,-51.0,-56.0,222.0,226.0
4061,-34,217,0,4053.0,4045.0,-43.0,-51.0,218.0,222.0
4070,-32,214,0,4061.0,4053.0,-34.0,-43.0,217.0,218.0
4073,-31,211,0,4070.0,4061.0,-32.0,-34.0,214.0,217.0
4080,-28,209,0,4073.0,4070.0,-31.0,-32.0,211.0,214.0
4080,-25,209,0,4080.0,4073.0,-28.0,-31.0,209.0,211.0
4076,-27,214,0,4080.0,4080.0,-25.0,-28.0,209.0,209.0
4068,-24,218,0,4076.0,4080.0,-27.0,-25.0,214.0,209.0
4061,-28,221,0,4068.0,4076.0,-24.0,-27.0,218.0,214.0
4051,-35,221,0,4061.0,4068.0,-28.0,-24.0,221.0,218.0
4045,-44,228,0,4051.0,4061.0,-35.0,-28.0,221.0,221.0
4042,-56,231,0,4045.0,4051.0,-44.0,-35.0,228.0,221.0
4043,-67,232,0,4042.0,4045.0,-56.0,-44.0,231.0,228.0
4044,-81,232,0,4043.0,4042.0,-67.0,-56.0,232.0,231.0
4048,-88,227,0,4044.0,4043.0,-81.0,-67.0,232.0,232.0
4056,-94,225,0,4048.0,4044.0,-88.0,-81.0,227.0,232.0
4059,-94,221,0,4056.0,4048.0,-94.0,-88.0,225.0,227.0
4064,-95,224,0,4059.0,4056.0,-94.0,-94.0,221.0,225.0
4070,-95,226,0,4064.0,4059.0,-95.0,-94.0,224.0,221.0
4072,-95,230,0,4070.0,4064.0,-95.0,-95.0,226.0,224.0
4070,-94,231,0,4072.0,4070.0,-95.0,-95.0,230.0,226.0
4064,-95,232,0,4070.0,4072.0,-94.0,-95.0,231.0,230.0
4058,-91,230,0,4064.0,4070.0,-95.0,-94.0,232.0,231.0
4050,-86,231,0,4058.0,4064.0,-91.0,-95.0,230.0,232.0
4053,-82,237,0,4050.0,4058.0,-86.0,-91.0,231.0,230.0
4061,-74,249,0,4053.0,4050.0,-82.0,-86.0,237.0,231.0
4066,-65,256,0,4061.0,4053.0,-74.0,-82.0,249.0,237.0
4072,-54,262,0,4066.0,4061.0,-65.0,-74.0,256.0,249.0
4077,-45,263,0,4072.0,4066.0,-54.0,-65.0,262.0,256.0
4079,-41,261,0,4077.0,4072.0,-45.0,-54.0,263.0,262.0
4081,-39,254,0,4079.0,4077.0,-41.0,-45.0,261.0,263.0
4082,-36,246,0,4081.0,4079.0,-39.0,-41.0,254.0,261.0
4077,-35,242,0,4082.0,4081.0,-36.0,-39.0,246.0,254.0
4076,-26,240,0,4077.0,4082.0,-35.0,-36.0,242.0,246.0
4071,-18,235,0,4076.0,4077.0,-26.0,-35.0,240.0,242.0
4064,-13,229,0,4071.0,4076.0,-18.0,-26.0,235.0,240.0
4060,-14,224,0,4064.0,4071.0,-13.0,-18.0,229.0,235.0
4055,-15,220,0,4060.0,4064.0,-14.0,-13.0,224.0,229.0
4056,-25,215,0,4055.0,4060.0,-15.0,-14.0,220.0,224.0
4058,-33,213,0,4056.0,4055.0,-25.0,-15.0,215.0,220.0
4063,-38,204,0,4058.0,4056.0,-33.0,-25.0,213.0,215.0
4069,-47,202,0,4063.0,4058.0,-38.0,-33.0,204.0,213.0
4078,-44,199,0,4069.0,4063.0,-47.0,-38.0,202.0,204.0
4085,-41,205,0,4078.0,4069.0,-44.0,-47.0,199.0,202.0
4092,-40,208,0,4085.0,4078.0,-41.0,-44.0,205.0,199.0
4096,-34,211,0,4092.0,4085.0,-40.0,-41.0,208.0,205.0
4098,-27,218,0,4096.0,4092.0,-34.0,-40.0,211.0,208.0
4099,-22,219,0,4098.0,4096.0,-27.0,-34.0,218.0,211.0
4092,-18,224,0,4099.0,4098.0,-22.0,-27.0,219.0,218.0
4086,-15,223,0,4092.0,4099.0,-18.0,-22.0,224.0,219.0
4083,-14,221,0,4086.0,4092.0,-15.0,-18.0,223.0,224.0
4079,-16,226,0,4083.0,4086.0,-14.0,-15.0,221.0,223.0
4074,-18,238,0,4079.0,4083.0,-16.0,-14.0,226.0,221.0
4072,-23,245,0,4074.0,4079.0,-18.0,-16.0,238.0,226.0
4068,-22,252,0,4072.0,4074.0,-23.0,-18.0,245.0,238.0
4062,-20,251,0,4068.0,4072.0,-22.0,-23.0,252.0,245.0
4054,-19,247,0,4062.0,4068.0,-20.0,-22.0,251.0,252.0
4051,-17,242,0,4054.0,4062.0,-19.0,-20.0,247.0,251.0
4050,-19,235,0,4051.0,4054.0,-17.0,-19.0,242.0,247.0
4056,-19,227,0,4050.0,4051.0,-19.0,-17.0,235.0,242.0
4065,-26,225,0,4056.0,4050.0,-19.0,-19.0,227.0,235.0
4072,-31,220,0,4065.0,4056.0,-26.0,-19.0,225.0,227.0
4083,-33,225,0,4072.0,4065.0,-31.0,-26.0,220.0,225.0
4086,-38,224,0,4083.0,4072.0,-33.0,-31.0,225.0,220.0
4087,-40,227,0,4086.0,4083.0,-38.0,-33.0,224.0,225.0
4091,-37,234,0,4087.0,4086.0,-40.0,-38.0,227.0,224.0
4087,-37,234,0,4091.0,4087.0,-37.0,-40.0,234.0,227.0
4079,-29,236,0,4087.0,4091.0,-37.0,-37.0,234.0,234.0
4072,-25,236,0,4079.0,4087.0,-29.0,-37.0,236.0,234.0
4062,-18,233,0,4072.0,4079.0,-25.0,-29.0,236.0,236.0
4053,-12,227,0,4062.0,4072.0,-18.0,-25.0,233.0,236.0
4050,-9,225,0,4053.0,4062.0,-12.0,-18.0,227.0,233.0
4050,-9,224,0,4050.0,4053.0,-9.0,-12.0,225.0,227.0
4053,-10,226,0,4050.0,4050.0,-9.0,-9.0,224.0,225.0
4060,-12,229,0,4053.0,4050.0,-10.0,-9.0,226.0,224.0
4069,-12,230,0,4060.0,4053.0,-12.0,-10.0,229.0,226.0
4079,-11,235,0,4069.0,4060.0,-12.0,-12.0,230.0,229.0
4089,-12,238,0,4079.0,4069.0,-11.0,-12.0,235.0,230.0
4095,-16,239,0,4089.0,4079.0,-12.0,-11.0,238.0,235.0
4097,-16,240,0,4095.0,4089.0,-16.0,-12.0,239.0,238.0
4100,-17,239,0,4097.0,4095.0,-16.0,-16.0,240.0,239.0
4100,-25,238,0,4100.0,4097.0,-17.0,-16.0,239.0,240.0
4100,-27,238,0,4100.0,4100.0,-25.0,-17.0,238.0,239.0
4099,-35,237,0,4100.0,4100.0,-27.0,-25.0,238.0,238.0
4085,-38,232,0,4099.0,4100.0,-35.0,-27.0,237.0,238.0
4073,-40,228,0,4085.0,4099.0,-38.0,-35.0,232.0,237.0
4061,-45,225,0,4073.0,4085.0,-40.0,-38.0,228.0,232.0
4050,-44,221,0,4061.0,4073.0,-45.0,-40.0,225.0,228.0
4045,-43,222,0,4050.0,4061.0,-44.0,-45.0,221.0,225.0
4041,-45,223,0,4045.0,4050.0,-43.0,-44.0,222.0,221.0
4042,-47,223,0,4041.0,4045.0,-45.0,-43.0,223.0,222.0
4044,-48,225,0,4042.0,4041.0,-47.0,-45.0,223.0,223.0
4054,-47,226,0,4044.0,4042.0,-48.0,-47.0,225.0,223.0
4061,-46,224,0,4054.0,4044.0,-47.0,-48.0,226.0,225.0
4068,-47,223,0,4061.0,4054.0,-46.0,-47.0,224.0,226.0
4073,-49,226,0,4068.0,4061.0,-47.0,-46.0,223.0,224.0
4078,-49,230,0,4073.0,4068.0,-49.0,-47.0,226.0,223.0
4078,-48,234,0,4078.0,4073.0,-49.0,-49.0,230.0,226.0
4076,-47,236,0,4078.0,4078.0,-48.0,-49.0,234.0,230.0
4072,-42,237,0,4076.0,4078.0,-47.0,-48.0,236.0,234.0
4069,-40,233,0,4072.0,4076.0,-42.0,-47.0,237.0,236.0
4067,-38,229,0,4069.0,4072.0,-40.0,-42.0,233.0,237.0
4061,-38,229,0,4067.0,4069.0,-38.0,-40.0,229.0,233.0
4058,-40,226,0,4061.0,4067.0,-38.0,-38.0,229.0,229.0
4060,-39,223,0,4058.0,4061.0,-40.0,-38.0,226.0,229.0
4060,-38,221,0,4060.0,4058.0,-39.0,-40.0,223.0,226.0
4059,-33,222,0,4060.0,4060.0,-38.0,-39.0,221.0,223.0
4061,-32,226,0,4059.0,4060.0,-33.0,-38.0,222.0,221.0
4063,-35,226,0,4061.0,4059.0,-32.0,-33.0,226.0,222.0
4068,-34,229,0,4063.0,4061.0,-35.0,-32.0,226.0,226.0
4071,-34,230,0,4068.0,4063.0,-34.0,-35.0,229.0,226.0
4076,-34,228,0,4071.0,4068.0,-34.0,-34.0,230.0,229.0
4082,-37,228,0,4076.0,4071.0,-34.0,-34.0,228.0,230.0
4079,-38,231,0,4082.0,4076.0,-37.0,-34.0,228.0,228.0
4081,-39,239,0,4079.0,4082.0,-38.0,-37.0,231.0,228.0
4080,-40,242,0,4081.0,4079.0,-39.0,-38.0,239.0,231.0
4077,-44,245,0,4080.0,4081.0,-40.0,-39.0,242.0,239.0
4072,-44,241,0,4077.0,4080.0,-44.0,-40.0,245.0,242.0
4068,-45,240,0,4072.0,4077.0,-44.0,-44.0,241.0,245.0
4066,-48,236,0,4068.0,4072.0,-45.0,-44.0,240.0,241.0
4063,-50,231,0,4066.0,4068.0,-48.0,-45.0,236.0,240.0
4063,-51,227,0,4063.0,4066.0,-50.0,-48.0,231.0,236.0
4064,-53,224,0,4063.0,4063.0,-51.0,-50.0,227.0,231.0
4065,-56,226,0,4064.0,4063.0,-53.0,-51.0,224.0,227.0
4064,-57,228,0,4065.0,4064.0,-56.0,-53.0,226.0,224.0
4065,-56,227,0,4064.0,4065.0,-57.0,-56.0,228.0,226.0
4062,-54,228,0,4065.0,4064.0,-56.0,-57.0,227.0,228.0
4063,-51,230,0,4062.0,4065.0,-54.0,-56.0,228.0,227.0
4064,-48,232,0,4063.0,4062.0,-51.0,-54.0,230.0,228.0
4066,-46,233,0,4064.0,4063.0,-48.0,-51.0,232.0,230.0
4067,-39,232,0,4066.0,4064.0,-46.0,-48.0,233.0,232.0
4069,-35,228,0,4067.0,4066.0,-39.0,-46.0,232.0,233.0
4071,-35,225,0,4069.0,4067.0,-35.0,-39.0,228.0,232.0
4073,-32,226,0,4071.0,4069.0,-35.0,-35.0,225.0,228.0
4072,-31,228,0,4073.0,4071.0,-32.0,-35.0,226.0,225.0
4072,-29,236,0,4072.0,4073.0,-31.0,-32.0,228.0,226.0
4073,-32,241,0,4072.0,4072.0,-29.0,-31.0,236.0,228.0
4070,-33,242,0,4073.0,4072.0,-32.0,-29.0,241.0,236.0
4063,-30,244,0,4070.0,4073.0,-33.0,-32.0,242.0,241.0
4055,-32,241,0,4063.0,4070.0,-30.0,-33.0,244.0,242.0
4051,-33,234,0,4055.0,4063.0,-32.0,-30.0,241.0,244.0
4049,-36,228,0,4051.0,4055.0,-33.0,-32.0,234.0,241.0
4056,-36,224,0,4049.0,4051.0,-36.0,-33.0,228.0,234.0
4061,-41,224,0,4056.0,4049.0,-36.0,-36.0,224.0,228.0
4069,-47,226,0,4061.0,4056.0,-41.0,-36.0,224.0,224.0
4076,-49,227,0,4069.0,4061.0,-47.0,-41.0,226.0,224.0
4078,-48,228,0,4076.0,4069.0,-49.0,-47.0,227.0,226.0
4077,-45,227,0,4078.0,4076.0,-48.0,-49.0,228.0,227.0
4079,-40,228,0,4077.0,4078.0,-45.0,-48.0,227.0,228.0
4075,-39,229,0,4079.0,4077.0,-40.0,-45.0,228.0,227.0
4068,-38,233,0,4075.0,4079.0,-39.0,-40.0,229.0,228.0
4064,-35,236,0,4068.0,4075.0,-38.0,-39.0,233.0,229.0
4062,-35,239,0,4064.0,4068.0,-35.0,-38.0,236.0,233.0
4064,-36,236,0,4062.0,4064.0,-35.0,-35.0,239.0,236.0
4069,-31,230,0,4064.0,4062.0,-36.0,-35.0,236.0,239.0
4073,-31,228,0,4069.0,4064.0,-31.0,-36.0,230.0,236.0
4075,-34,229,0,4073.0,4069.0,-31.0,-31.0,228.0,230.0
4078,-38,231,0,4075.0,4073.0,-34.0,-31.0,229.0,228.0
4077,-35,232,0,4078.0,4075.0,-38.0,-34.0,231.0,229.0
4081,-38,236,0,4077.0,4078.0,-35.0,-38.0,232.0,231.0
4079,-37,239,0,4081.0,4077.0,-38.0,-35.0,236.0,232.0
4077,-37,242,0,4079.0,4081.0,-37.0,-38.0,239.0,236.0
4066,-40,244,0,4077.0,4079.0,-37.0,-37.0,242.0,239.0
4060,-42,242,0,4066.0,4077.0,-40.0,-37.0,244.0,242.0
4054,-45,239,0,4060.0,4066.0,-42.0,-40.0,242.0,244.0
4048,-42,234,0,4054.0,4060.0,-45.0,-42.0,239.0,242.0
4045,-43,233,0,4048.0,4054.0,-42.0,-45.0,234.0,239.0
4048,-45,235,0,4045.0,4048.0,-43.0,-42.0,233.0,234.0
4053,-50,235,0,4048.0,4045.0,-45.0,-43.0,235.0,233.0
4062,-49,235,0,4053.0,4048.0,-50.0,-45.0,235.0,235.0
4071,-50,234,0,4062.0,4053.0,-49.0,-50.0,235.0,235.0
4074,-45,231,0,4071.0,4062.0,-50.0,-49.0,234.0,235.0
4076,-40,228,0,4074.0,4071.0,-45.0,-50.0,231.0,234.0
4077,-36,227,0,4076.0,4074.0,-40.0,-45.0,228.0,231.0
4078,-34,224,0,4077.0,4076.0,-36.0,-40.0,227.0,228.0
4079,-33,225,0,4078.0,4077.0,-34.0,-36.0,224.0,227.0
4081,-27,221,0,4079.0,4078.0,-33.0,-34.0,225.0,224.0
4077,-27,220,0,4081.0,4079.0,-27.0,-33.0,221.0,225.0
4076,-28,222,0,4077.0,4081.0,-27.0,-27.0,220.0,221.0
4070,-32,223,0,4076.0,4077.0,-28.0,-27.0,222.0,220.0
4072,-36,225,0,4070.0,4076.0,-32.0,-28.0,223.0,222.0
4065,-43,227,0,4072.0,4070.0,-36.0,-32.0,225.0,223.0
4059,-49,227,0,4065.0,4072.0,-43.0,-36.0,227.0,225.0
4056,-57,228,0,4059.0,4065.0,-49.0,-43.0,227.0,227.0
4059,-63,228,0,4056.0,4059.0,-57.0,-49.0,228.0,227.0
4066,-61,228,0,4059.0,4056.0,-63.0,-57.0,228.0,228.0
4069,-60,232,0,4066.0,4059.0,-61.0,-63.0,228.0,228.0
4070,-52,233,0,4069.0,4066.0,-60.0,-61.0,232.0,228.0
4072,-47,232,0,4070.0,4069.0,-52.0,-60.0,233.0,232.0
4075,-41,241,0,4072.0,4070.0,-47.0,-52.0,232.0,233.0
4086,-35,256,0,4075.0,4072.0,-41.0,-47.0,241.0,232.0
4093,-29,276,0,4086.0,4075.0,-35.0,-41.0,256.0,241.0
4097,-28,293,0,4093.0,4086.0,-29.0,-35.0,276.0,256.0
4097,-29,292,0,4097.0,4093.0,-28.0,-29.0,293.0,276.0
4088,-32,280,0,4097.0,4097.0,-29.0,-28.0,292.0,293.0
4067,-38,264,0,4088.0,4097.0,-32.0,-29.0,280.0,292.0
4050,-50,242,0,4067.0,4088.0,-38.0,-32.0,264.0,280.0
4043,-56,227,0,4050.0,4067.0,-50.0,-38.0,242.0,264.0
4041,-64,221,0,4043.0,4050.0,-56.0,-50.0,227.0,242.0
4049,-75,222,0,4041.0,4043.0,-64.0,-56.0,221.0,227.0
4058,-79,229,0,4049.0,4041.0,-75.0,-64.0,222.0,221.0
4064,-80,229,0,4058.0,4049.0,-79.0,-75.0,229.0,222.0
4062,-78,221,0,4064.0,4058.0,-80.0,-79.0,229.0,229.0
4048,-77,208,0,4062.0,4064.0,-78.0,-80.0,221.0,229.0
4034,-75,195,0,4048.0,4062.0,-77.0,-78.0,208.0,221.0
4033,-74,194,0,4034.0,4048.0,-75.0,-77.0,195.0,208.0
4041,-67,204,0,4033.0,4034.0,-74.0,-75.0,194.0,195.0
4051,-60,227,0,4041.0,4033.0,-67.0,-74.0,204.0,194.0
4056,-51,239,0,4051.0,4041.0,-60.0,-67.0,227.0,204.0
4053,-47,244,0,4056.0,4051.0,-51.0,-60.0,239.0,227.0
4051,-48,236,0,4053.0,4056.0,-47.0,-51.0,244.0,239.0
4048,-50,230,0,4051.0,4053.0,-48.0,-47.0,236.0,244.0
4052,-55,227,0,4048.0,4051.0,-50.0,-48.0,230.0,236.0
4060,-55,218,0,4052.0,4048.0,-55.0,-50.0,227.0,230.0
4068,-53,216,0,4060.0,4052.0,-55.0,-55.0,218.0,227.0
4074,-51,213,0,4068.0,4060.0,-53.0,-55.0,216.0,218.0
4085,-44,218,0,4074.0,4068.0,-51.0,-53.0,213.0,216.0
4092,-36,214,0,4085.0,4074.0,-44.0,-51.0,218.0,213.0
4097,-29,217,0,4092.0,4085.0,-36.0,-44.0,214.0,218.0
4099,-27,219,0,4097.0,4092.0,-29.0,-36.0,217.0,214.0
4099,-26,222,0,4099.0,4097.0,-27.0,-29.0,219.0,217.0
4099,-21,227,0,4099.0,4099.0,-26.0,-27.0,222.0,219.0
4093,-14,225,0,4099.0,4099.0,-21.0,-26.0,227.0,222.0
4083,-12,226,0,4093.0,4099.0,-14.0,-21.0,225.0,227.0
4074,-12,229,0,4083.0,4093.0,-12.0,-14.0,226.0,225.0
4068,-11,233,0,4074.0,4083.0,-12.0,-12.0,229.0,226.0
4067,-20,238,0,4068.0,4074.0,-11.0,-12.0,233.0,229.0
4063,-21,243,0,4067.0,4068.0,-20.0,-11.0,238.0,233.0
4061,-22,244,0,4063.0,4067.0,-21.0,-20.0,243.0,238.0
4063,-27,249,0,4061.0,4063.0,-22.0,-21.0,244.0,243.0
4058,-32,247,0,4063.0,4061.0,-27.0,-22.0,249.0,244.0
4058,-40,247,0,4058.0,4063.0,-32.0,-27.0,247.0,249.0
4057,-49,244,0,4058.0,4058.0,-40.0,-32.0,247.0,247.0
4055,-53,236,0,4057.0,4058.0,-49.0,-40.0,244.0,247.0
4055,-54,228,0,4055.0,4057.0,-53.0,-49.0,236.0,244.0
4058,-55,223,0,4055.0,4055.0,-54.0,-53.0,228.0,236.0
4063,-52,224,0,4058.0,4055.0,-55.0,-54.0,223.0,228.0
4068,-51,221,0,4063.0,4058.0,-52.0,-55.0,224.0,223.0
4070,-48,223,0,4068.0,4063.0,-51.0,-52.0,221.0,224.0
4071,-45,226,0,4070.0,4068.0,-48.0,-51.0,223.0,221.0
4071,-40,226,0,4071.0,4070.0,-45.0,-48.0,226.0,223.0
4070,-34,226,0,4071.0,4071.0,-40.0,-45.0,226.0,226.0
4069,-32,227,0,4070.0,4071.0,-34.0,-40.0,226.0,226.0
4065,-31,224,0,4069.0,4070.0,-32.0,-34.0,227.0,226.0
4067,-33,226,0,4065.0,4069.0,-31.0,-32.0,224.0,227.0
4068,-35,222,0,4067.0,4065.0,-33.0,-31.0,226.0,224.0
4073,-37,221,0,4068.0,4067.0,-35.0,-33.0,222.0,226.0
4075,-40,224,0,4073.0,4068.0,-37.0,-35.0,221.0,222.0
4078,-46,225,0,4075.0,4073.0,-40.0,-37.0,224.0,221.0
4078,-45,227,0,4078.0,4075.0,-46.0,-40.0,225.0,224.0
4080,-46,226,0,4078.0,4078.0,-45.0,-46.0,227.0,225.0
4078,-45,228,0,4080.0,4078.0,-46.0,-45.0,226.0,227.0
4077,-43,230,0,4078.0,4080.0,-45.0,-46.0,228.0,226.0
4074,-40,234,0,4077.0,4078.0,-43.0,-45.0,230.0,228.0
4072,-37,233,0,4074.0,4077.0,-40.0,-43.0,234.0,230.0
4069,-32,230,0,4072.0,4074.0,-37.0,-40.0,233.0,234.0
4066,-31,227,0,4069.0,4072.0,-32.0,-37.0,230.0,233.0
4069,-32,228,0,4066.0,4069.0,-31.0,-32.0,227.0,230.0
4069,-31,223,0,4069.0,4066.0,-32.0,-31.0,228.0,227.0
4068,-31,223,0,4069.0,4069.0,-31.0,-32.0,223.0,228.0
4068,-29,225,0,4068.0,4069.0,-31.0,-31.0,223.0,223.0
4064,-27,225,0,4068.0,4068.0,-29.0,-31.0,225.0,223.0
4067,-26,226,0,4064.0,4068.0,-27.0,-29.0,225.0,225.0
4069,-26,229,0,4067.0,4064.0,-26.0,-27.0,226.0,225.0
4078,-30,237,0,4069.0,4067.0,-26.0,-26.0,229.0,226.0
4083,-36,243,0,4078.0,4069.0,-30.0,-26.0,237.0,229.0
4085,-41,249,0,4083.0,4078.0,-36.0,-30.0,243.0,237.0
4079,-45,243,0,4085.0,4083.0,-41.0,-36.0,249.0,243.0
4065,-48,234,0,4079.0,4085.0,-45.0,-41.0,243.0,249.0
4057,-52,218,0,4065.0,4079.0,-48.0,-45.0,234.0,243.0
4049,-55,210,0,4057.0,4065.0,-52.0,-48.0,218.0,234.0
4048,-60,209,0,4049.0,4057.0,-55.0,-52.0,210.0,218.0
4049,-59,217,0,4048.0,4049.0,-60.0,-55.0,209.0,210.0
4052,-59,224,0,4049.0,4048.0,-59.0,-60.0,217.0,209.0
4054,-57,226,0,4052.0,4049.0,-59.0,-59.0,224.0,217.0
4063,-50,224,0,4054.0,4052.0,-57.0,-59.0,226.0,224.0
4062,-50,225,0,4063.0,4054.0,-50.0,-57.0,224.0,226.0
4060,-48,220,0,4062.0,4063.0,-50.0,-50.0,225.0,224.0
4067,-47,223,0,4060.0,4062.0,-48.0,-50.0,220.0,225.0
4070,-41,226,0,4067.0,4060.0,-47.0,-48.0,223.0,220.0
4070,-36,228,0,4070.0,4067.0,-41.0,-47.0,226.0,223.0
4067,-33,231,0,4070.0,4070.0,-36.0,-41.0,228.0,226.0
4067,-30,228,0,4067.0,4070.0,-33.0,-36.0,231.0,228.0
4068,-29,226,0,4067.0,4067.0,-30.0,-33.0,228.0,231.0
4066,-31,223,0,4068.0,4067.0,-29.0,-30.0,226.0,228.0
4067,-27,224,0,4066.0,4068.0,-31.0,-29.0,223.0,226.0
4069,-28,223,0,4067.0,4066.0,-27.0,-31.0,224.0,223.0
4070,-27,223,0,4069.0,4067.0,-28.0,-27.0,223.0,224.0
4071,-26,221,0,4070.0,4069.0,-27.0,-28.0,223.0,223.0
4073,-27,217,0,4071.0,4070.0,-26.0,-27.0,221.0,223.0
4074,-30,217,0,4073.0,4071.0,-27.0,-26.0,217.0,221.0
4075,-30,216,0,4074.0,4073.0,-30.0,-27.0,217.0,217.0
4083,-28,216,0,4075.0,4074.0,-30.0,-30.0,216.0,217.0
4089,-25,215,0,4083.0,4075.0,-28.0,-30.0,216.0,216.0
4089,-28,215,0,4089.0,4083.0,-25.0,-28.0,215.0,216.0
4092,-29,217,0,4089.0,4089.0,-28.0,-25.0,215.0,215.0
4092,-35,219,0,4092.0,4089.0,-29.0,-28.0,217.0,215.0
4087,-36,220,0,4092.0,4092.0,-35.0,-29.0,219.0,217.0
4083,-36,221,0,4087.0,4092.0,-36.0,-35.0,220.0,219.0
4077,-41,222,0,4083.0,4087.0,-36.0,-36.0,221.0,220.0
4073,-45,225,0,4077.0,4083.0,-41.0,-36.0,222.0,221.0
4059,-45,228,0,4073.0,4077.0,-45.0,-41.0,225.0,222.0
4052,-47,225,0,4059.0,4073.0,-45.0,-45.0,228.0,225.0
4048,-47,223,0,4052.0,4059.0,-47.0,-45.0,225.0,228.0
4047,-43,223,0,4048.0,4052.0,-47.0,-47.0,223.0,225.0
4048,-41,223,0,4047.0,4048.0,-43.0,-47.0,223.0,223.0
4052,-39,230,0,4048.0,4047.0,-41.0,-43.0,223.0,223.0
4053,-34,224,0,4052.0,4048.0,-39.0,-41.0,230.0,223.0
4062,-31,221,0,4053.0,4052.0,-34.0,-39.0,224.0,230.0
4066,-27,222,0,4062.0,4053.0,-31.0,-34.0,221.0,224.0
4069,-27,222,0,4066.0,4062.0,-27.0,-31.0,222.0,221.0
4077,-20,223,0,4069.0,4066.0,-27.0,-27.0,222.0,222.0
4080,-19,226,0,4077.0,4069.0,-20.0,-27.0,223.0,222.0
4083,-20,230,0,4080.0,4077.0,-19.0,-20.0,226.0,223.0
4086,-21,229,0,4083.0,4080.0,-20.0,-19.0,230.0,226.0
4090,-19,228,0,4086.0,4083.0,-21.0,-20.0,229.0,230.0
4086,-18,229,0,4090.0,4086.0,-19.0,-21.0,228.0,229.0
4085,-19,227,0,4086.0,4090.0,-18.0,-19.0,229.0,228.0
4081,-22,226,0,4085.0,4086.0,-19.0,-18.0,227.0,229.0
4077,-20,223,0,4081.0,4085.0,-22.0,-19.0,226.0,227.0
4075,-19,221,0,4077.0,4081.0,-20.0,-22.0,223.0,226.0
4072,-19,220,0,4075.0,4077.0,-19.0,-20.0,221.0,223.0
4070,-20,217,0,4072.0,4075.0,-19.0,-19.0,220.0,221.0
4071,-19,216,0,4070.0,4072.0,-20.0,-19.0,217.0,220.0
4075,-19,220,0,4071.0,4070.0,-19.0,-20.0,216.0,217.0
4076,-19,220,0,4075.0,4071.0,-19.0,-19.0,220.0,216.0
4080,-20,218,0,4076.0,4075.0,-19.0,-19.0,220.0,220.0
4077,-19,219,0,4080.0,4076.0,-20.0,-19.0,218.0,220.0
4077,-17,215,0,4077.0,4080.0,-19.0,-20.0,219.0,218.0
4075,-16,212,0,4077.0,4077.0,-17.0,-19.0,215.0,219.0
4073,-20,217,0,4075.0,4077.0,-16.0,-17.0,212.0,215.0
4072,-25,219,0,4073.0,4075.0,-20.0,-16.0,217.0,212.0
4072,-28,221,0,4072.0,4073.0,-25.0,-20.0,219.0,217.0
4071,-32,221,0,4072.0,4072.0,-28.0,-25.0,221.0,219.0
4070,-34,224,0,4071.0,4072.0,-32.0,-28.0,221.0,221.0
4073,-36,222,0,4070.0,4071.0,-34.0,-32.0,224.0,221.0
4078,-35,222,0,4073.0,4070.0,-36.0,-34.0,222.0,224.0
4072,-34,216,0,4078.0,4073.0,-35.0,-36.0,222.0,222.0
4065,-29,216,0,4072.0,4078.0,-34.0,-35.0,216.0,222.0
4060,-26,216,0,4065.0,4072.0,-29.0,-34.0,216.0,216.0
4063,-23,219,0,4060.0,4065.0,-26.0,-29.0,216.0,216.0
4058,-25,219,0,4063.0,4060.0,-23.0,-26.0,219.0,216.0
4056,-24,222,0,4058.0,4063.0,-25.0,-23.0,219.0,219.0
4052,-27,217,0,4056.0,4058.0,-24.0,-25.0,222.0,219.0
4048,-31,214,0,4052.0,4056.0,-27.0,-24.0,217.0,222.0
4047,-34,218,0,4048.0,4052.0,-31.0,-27.0,214.0,217.0
4051,-37,220,0,4047.0,4048.0,-34.0,-31.0,218.0,214.0
4051,-45,221,0,4051.0,4047.0,-37.0,-34.0,220.0,218.0
4057,-48,221,0,4051.0,4051.0,-45.0,-37.0,221.0,220.0
4065,-53,222,0,4057.0,4051.0,-48.0,-45.0,221.0,221.0
4069,-51,220,0,4065.0,4057.0,-53.0,-48.0,222.0,221.0
4073,-50,220,0,4069.0,4065.0,-51.0,-53.0,220.0,222.0
4080,-53,219,0,4073.0,4069.0,-50.0,-51.0,220.0,220.0
4084,-52,213,0,4080.0,4073.0,-53.0,-50.0,219.0,220.0
4091,-50,213,0,4084.0,4080.0,-52.0,-53.0,213.0,219.0
4094,-42,212,0,4091.0,4084.0,-50.0,-52.0,213.0,213.0
4097,-40,211,0,4094.0,4091.0,-42.0,-50.0,212.0,213.0
4094,-42,219,0,4097.0,4094.0,-40.0,-42.0,211.0,212.0
4085,-46,216,0,4094.0,4097.0,-42.0,-40.0,219.0,211.0
4078,-50,219,0,4085.0,4094.0,-46.0,-42.0,216.0,219.0
4073,-54,219,0,4078.0,4085.0,-50.0,-46.0,219.0,216.0
4068,-53,229,0,4073.0,4078.0,-54.0,-50.0,219.0,219.0
4065,-50,238,0,4068.0,4073.0,-53.0,-54.0,229.0,219.0
4060,-48,240,0,4065.0,4068.0,-50.0,-53.0,238.0,229.0
4057,-43,243,0,4060.0,4065.0,-48.0,-50.0,240.0,238.0
4062,-40,235,0,4057.0,4060.0,-43.0,-48.0,243.0,240.0
4065,-38,222,0,4062.0,4057.0,-40.0,-43.0,235.0,243.0
4063,-32,212,0,4065.0,4062.0,-38.0,-40.0,222.0,235.0
4066,-26,202,0,4063.0,4065.0,-32.0,-38.0,212.0,222.0
4065,-21,199,0,4066.0,4063.0,-26.0,-32.0,202.0,212.0
4071,-17,202,0,4065.0,4066.0,-21.0,-26.0,199.0,202.0
4076,-10,211,0,4071.0,4065.0,-17.0,-21.0,202.0,199.0
4080,-6,219,0,4076.0,4071.0,-10.0,-17.0,211.0,202.0
4083,-5,221,0,4080.0,4076.0,-6.0,-10.0,219.0,211.0
4079,-6,221,0,4083.0,4080.0,-5.0,-6.0,221.0,219.0
4078,-9,219,0,4079.0,4083.0,-6.0,-5.0,221.0,221.0
4073,-15,216,0,4078.0,4079.0,-9.0,-6.0,219.0,221.0
4067,-21,214,0,4073.0,4078.0,-15.0,-9.0,216.0,219.0
4065,-31,212,0,4067.0,4073.0,-21.0,-15.0,214.0,216.0
4065,-35,210,0,4065.0,4067.0,-31.0,-21.0,212.0,214.0
4068,-32,213,0,4065.0,4065.0,-35.0,-31.0,210.0,212.0
4071,-37,215,0,4068.0,4065.0,-32.0,-35.0,213.0,210.0
4074,-34,215,0,4071.0,4068.0,-37.0,-32.0,215.0,213.0
4077,-28,214,0,4074.0,4071.0,-34.0,-37.0,215.0,215.0
4079,-26,213,0,4077.0,4074.0,-28.0,-34.0,214.0,215.0
4078,-23,210,0,4079.0,4077.0,-26.0,-28.0,213.0,214.0
4078,-18,209,0,4078.0,4079.0,-23.0,-26.0,210.0,213.0
4083,-15,212,0,4078.0,4078.0,-18.0,-23.0,209.0,210.0
4079,-15,213,0,4083.0,4078.0,-15.0,-18.0,212.0,209.0
4082,-13,210,0,4079.0,4083.0,-15.0,-15.0,213.0,212.0
4084,-11,214,0,4082.0,4079.0,-13.0,-15.0,210.0,213.0
4089,-12,214,0,4084.0,4082.0,-11.0,-13.0,214.0,210.0
4088,-14,216,0,4089.0,4084.0,-12.0,-11.0,214.0,214.0
4086,-21,213,0,4088.0,4089.0,-14.0,-12.0,216.0,214.0
4083,-27,214,0,4086.0,4088.0,-21.0,-14.0,213.0,216.0
4074,-34,210,0,4083.0,4086.0,-27.0,-21.0,214.0,213.0
4064,-39,210,0,4074.0,4083.0,-34.0,-27.0,210.0,214.0
4054,-47,211,0,4064.0,4074.0,-39.0,-34.0,210.0,210.0
4053,-50,208,0,4054.0,4064.0,-47.0,-39.0,211.0,210.0
4050,-51,211,0,4053.0,4054.0,-50.0,-47.0,208.0,211.0
4052,-52,213,0,4050.0,4053.0,-51.0,-50.0,211.0,208.0
4055,-52,213,0,4052.0,4050.0,-52.0,-51.0,213.0,211.0
4060,-48,213,0,4055.0,4052.0,-52.0,-52.0,213.0,213.0
4066,-40,212,0,4060.0,4055.0,-48.0,-52.0,213.0,213.0
4071,-40,213,0,4066.0,4060.0,-40.0,-48.0,212.0,213.0
4074,-35,215,0,4071.0,4066.0,-40.0,-40.0,213.0,212.0
4074,-35,216,0,4074.0,4071.0,-35.0,-40.0,215.0,213.0
4079,-38,213,0,4074.0,4074.0,-35.0,-35.0,216.0,215.0
4080,-41,210,0,4079.0,4074.0,-38.0,-35.0,213.0,216.0
4083,-42,210,0,4080.0,4079.0,-41.0,-38.0,210.0,213.0
4083,-46,212,0,4083.0,4080.0,-42.0,-41.0,210.0,210.0
4087,-49,211,0,4083.0,4083.0,-46.0,-42.0,212.0,210.0
4090,-55,213,0,4087.0,4083.0,-49.0,-46.0,211.0,212.0
4084,-56,210,0,4090.0,4087.0,-55.0,-49.0,213.0,211.0
4081,-56,214,0,4084.0,4090.0,-56.0,-55.0,210.0,213.0
4075,-54,215,0,4081.0,4084.0,-56.0,-56.0,214.0,210.0
4070,-50,217,0,4075.0,4081.0,-54.0,-56.0,215.0,214.0
4065,-50,219,0,4070.0,4075.0,-50.0,-54.0,217.0,215.0
4054,-47,217,0,4065.0,4070.0,-50.0,-50.0,219.0,217.0
4054,-44,216,0,4054.0,4065.0,-47.0,-50.0,217.0,219.0
4054,-42,213,0,4054.0,4054.0,-44.0,-47.0,216.0,217.0
4051,-41,210,0,4054.0,4054.0,-42.0,-44.0,213.0,216.0
4059,-41,206,0,4051.0,4054.0,-41.0,-42.0,210.0,213.0
4062,-40,202,0,4059.0,4051.0,-41.0,-41.0,206.0,210.0
4066,-40,201,0,4062.0,4059.0,-40.0,-41.0,202.0,206.0
4075,-39,203,0,4066.0,4062.0,-40.0,-40.0,201.0,202.0
4078,-40,202,0,4075.0,4066.0,-39.0,-40.0,203.0,201.0
4081,-41,202,0,4078.0,4075.0,-40.0,-39.0,202.0,203.0
4088,-44,205,0,4081.0,4078.0,-41.0,-40.0,202.0,202.0
4087,-44,207,0,4088.0,4081.0,-44.0,-41.0,205.0,202.0
4084,-39,207,0,4087.0,4088.0,-44.0,-44.0,207.0,205.0
4081,-36,209,0,4084.0,4087.0,-39.0,-44.0,207.0,207.0
4075,-37,212,0,4081.0,4084.0,-36.0,-39.0,209.0,207.0
4070,-36,214,0,4075.0,4081.0,-37.0,-36.0,212.0,209.0
4070,-37,214,0,4070.0,4075.0,-36.0,-37.0,214.0,212.0
4068,-37,218,0,4070.0,4070.0,-37.0,-36.0,214.0,214.0
4067,-39,221,0,4068.0,4070.0,-37.0,-37.0,218.0,214.0
4066,-40,218,0,4067.0,4068.0,-39.0,-37.0,221.0,218.0
4062,-43,220,0,4066.0,4067.0,-40.0,-39.0,218.0,221.0
4058,-48,216,0,4062.0,4066.0,-43.0,-40.0,220.0,218.0
4056,-50,213,0,4058.0,4062.0,-48.0,-43.0,216.0,220.0
4059,-53,209,0,4056.0,4058.0,-50.0,-48.0,213.0,216.0
4062,-52,204,0,4059.0,4056.0,-53.0,-50.0,209.0,213.0
4072,-50,208,0,4062.0,4059.0,-52.0,-53.0,204.0,209.0
4075,-53,215,0,4072.0,4062.0,-50.0,-52.0,208.0,204.0
4080,-53,214,0,4075.0,4072.0,-53.0,-50.0,215.0,208.0
4079,-49,214,0,4080.0,4075.0,-53.0,-53.0,214.0,215.0
4081,-47,215,0,4079.0,4080.0,-49.0,-53.0,214.0,214.0
4076,-47,215,0,4081.0,4079.0,-47.0,-49.0,215.0,214.0
4072,-48,212,0,4076.0,4081.0,-47.0,-47.0,215.0,215.0
4069,-47,215,0,4072.0,4076.0,-48.0,-47.0,212.0,215.0
4071,-51,214,0,4069.0,4072.0,-47.0,-48.0,215.0,212.0
4073,-59,213,0,4071.0,4069.0,-51.0,-47.0,214.0,215.0
4072,-59,210,0,4073.0,4071.0,-59.0,-51.0,213.0,214.0
4075,-63,210,0,4072.0,4073.0,-59.0,-59.0,210.0,213.0
4077,-62,215,0,4075.0,4072.0,-63.0,-59.0,210.0,210.0
4081,-61,218,0,4077.0,4075.0,-62.0,-63.0,215.0,210.0
4080,-57,223,0,4081.0,4077.0,-61.0,-62.0,218.0,215.0
4078,-55,229,0,4080.0,4081.0,-57.0,-61.0,223.0,218.0
4074,-54,225,0,4078.0,4080.0,-55.0,-57.0,229.0,223.0
4071,-55,226,0,4074.0,4078.0,-54.0,-55.0,225.0,229.0
4061,-58,225,0,4071.0,4074.0,-55.0,-54.0,226.0,225.0
4056,-59,224,0,4061.0,4071.0,-58.0,-55.0,225.0,226.0
4053,-60,222,0,4056.0,4061.0,-59.0,-58.0,224.0,225.0
4058,-57,219,0,4053.0,4056.0,-60.0,-59.0,222.0,224.0
4061,-57,220,0,4058.0,4053.0,-57.0,-60.0,219.0,222.0
4069,-54,218,0,4061.0,4058.0,-57.0,-57.0,220.0,219.0
4073,-48,214,0,4069.0,4061.0,-54.0,-57.0,218.0,220.0
4075,-49,215,0,4073.0,4069.0,-48.0,-54.0,214.0,218.0
4075,-47,214,0,4075.0,4073.0,-49.0,-48.0,215.0,214.0
4077,-42,213,0,4075.0,4075.0,-47.0,-49.0,214.0,215.0
4076,-41,218,0,4077.0,4075.0,-42.0,-47.0,213.0,214.0
4074,-33,221,0,4076.0,4077.0,-41.0,-42.0,218.0,213.0
4075,-31,224,0,4074.0,4076.0,-33.0,-41.0,221.0,218.0
4079,-28,224,0,4075.0,4074.0,-31.0,-33.0,224.0,221.0
4082,-28,220,0,4079.0,4075.0,-28.0,-31.0,224.0,224.0
4083,-24,221,0,4082.0,4079.0,-28.0,-28.0,220.0,224.0
4090,-23,221,0,4083.0,4082.0,-24.0,-28.0,221.0,220.0
4089,-21,223,0,4090.0,4083.0,-23.0,-24.0,221.0,221.0
4088,-22,223,0,4089.0,4090.0,-21.0,-23.0,223.0,221.0
4089,-26,225,0,4088.0,4089.0,-22.0,-21.0,223.0,223.0
4081,-30,225,0,4089.0,4088.0,-26.0,-22.0,225.0,223.0
4073,-36,221,0,4081.0,4089.0,-30.0,-26.0,225.0,225.0
4065,-37,222,0,4073.0,4081.0,-36.0,-30.0,221.0,225.0
4059,-38,223,0,4065.0,4073.0,-37.0,-36.0,222.0,221.0
4055,-38,224,0,4059.0,4065.0,-38.0,-37.0,223.0,222.0
4053,-35,223,0,4055.0,4059.0,-38.0,-38.0,224.0,223.0
4052,-33,222,0,4053.0,4055.0,-35.0,-38.0,223.0,224.0
4054,-30,218,0,4052.0,4053.0,-33.0,-35.0,222.0,223.0
4054,-29,221,0,4054.0,4052.0,-30.0,-33.0,218.0,222.0
4064,-22,228,0,4054.0,4054.0,-29.0,-30.0,221.0,218.0
4072,-19,225,0,4064.0,4054.0,-22.0,-29.0,228.0,221.0
4073,-21,222,0,4072.0,4064.0,-19.0,-22.0,225.0,228.0
4074,-25,223,0,4073.0,4072.0,-21.0,-19.0,222.0,225.0
4076,-30,221,0,4074.0,4073.0,-25.0,-21.0,223.0,222.0
4078,-35,217,0,4076.0,4074.0,-30.0,-25.0,221.0,223.0
4077,-41,217,0,4078.0,4076.0,-35.0,-30.0,217.0,221.0
4078,-48,224,0,4077.0,4078.0,-41.0,-35.0,217.0,217.0
4080,-57,234,0,4078.0,4077.0,-48.0,-41.0,224.0,217.0
4079,-61,237,0,4080.0,4078.0,-57.0,-48.0,234.0,224.0
4076,-61,232,0,4079.0,4080.0,-61.0,-57.0,237.0,234.0
4074,-57,227,0,4076.0,4079.0,-61.0,-61.0,232.0,237.0
4073,-55,225,0,4074.0,4076.0,-57.0,-61.0,227.0,232.0
4072,-54,224,0,4073.0,4074.0,-55.0,-57.0,225.0,227.0
4066,-51,218,0,4072.0,4073.0,-54.0,-55.0,224.0,225.0
4068,-46,219,0,4066.0,4072.0,-51.0,-54.0,218.0,224.0
4066,-39,217,0,4068.0,4066.0,-46.0,-51.0,219.0,218.0
4063,-36,216,0,4066.0,4068.0,-39.0,-46.0,217.0,219.0
4061,-33,216,0,4063.0,4066.0,-36.0,-39.0,216.0,217.0
4059,-36,220,0,4061.0,4063.0,-33.0,-36.0,216.0,216.0
4065,-42,221,0,4059.0,4061.0,-36.0,-33.0,220.0,216.0
4070,-50,220,0,4065.0,4059.0,-42.0,-36.0,221.0,220.0
4076,-57,218,0,4070.0,4065.0,-50.0,-42.0,220.0,221.0
4077,-59,220,0,4076.0,4070.0,-57.0,-50.0,218.0,220.0
4084,-67,222,0,4077.0,4076.0,-59.0,-57.0,220.0,218.0
4087,-72,222,0,4084.0,4077.0,-67.0,-59.0,222.0,220.0
4091,-71,221,0,4087.0,4084.0,-72.0,-67.0,222.0,222.0
4095,-74,219,0,4091.0,4087.0,-71.0,-72.0,221.0,222.0
4092,-69,218,0,4095.0,4091.0,-74.0,-71.0,219.0,221.0
4095,-61,219,0,4092.0,4095.0,-69.0,-74.0,218.0,219.0
4092,-56,226,0,4095.0,4092.0,-61.0,-69.0,219.0,218.0
4088,-46,236,0,4092.0,4095.0,-56.0,-61.0,226.0,219.0
4086,-45,249,0,4088.0,4092.0,-46.0,-56.0,236.0,226.0
4084,-44,254,0,4086.0,4088.0,-45.0,-46.0,249.0,236.0
4083,-49,262,0,4084.0,4086.0,-44.0,-45.0,254.0,249.0
4078,-54,267,0,4083.0,4084.0,-49.0,-44.0,262.0,254.0
4077,-57,273,0,4078.0,4083.0,-54.0,-49.0,267.0,262.0
4080,-65,275,0,4077.0,4078.0,-57.0,-54.0,273.0,267.0
4079,-69,277,0,4080.0,4077.0,-65.0,-57.0,275.0,273.0
4073,-64,274,0,4079.0,4080.0,-69.0,-65.0,277.0,275.0
4068,-62,271,0,4073.0,4079.0,-64.0,-69.0,274.0,277.0
4070,-54,268,0,4068.0,4073.0,-62.0,-64.0,271.0,274.0
4075,-51,269,0,4070.0,4068.0,-54.0,-62.0,268.0,271.0
4078,-52,268,0,4075.0,4070.0,-51.0,-54.0,269.0,268.0
4080,-53,263,0,4078.0,4075.0,-52.0,-51.0,268.0,269.0
4083,-49,258,0,4080.0,4078.0,-53.0,-52.0,263.0,268.0
4079,-48,247,0,4083.0,4080.0,-49.0,-53.0,258.0,263.0
4072,-50,240,0,4079.0,4083.0,-48.0,-49.0,247.0,258.0
4061,-54,236,0,4072.0,4079.0,-50.0,-48.0,240.0,247.0
4052,-62,234,0,4061.0,4072.0,-54.0,-50.0,236.0,240.0
4042,-69,230,0,4052.0,4061.0,-62.0,-54.0,234.0,236.0
4032,-75,230,0,4042.0,4052.0,-69.0,-62.0,230.0,234.0
4025,-83,233,0,4032.0,4042.0,-75.0,-69.0,230.0,230.0
4021,-86,233,0,4025.0,4032.0,-83.0,-75.0,233.0,230.0
4019,-84,233,0,4021.0,4025.0,-86.0,-83.0,233.0,233.0
4029,-82,228,0,4019.0,4021.0,-84.0,-86.0,233.0,233.0
4038,-77,232,0,4029.0,4019.0,-82.0,-84.0,228.0,233.0
4057,-68,235,0,4038.0,4029.0,-77.0,-82.0,232.0,228.0
4073,-65,244,0,4057.0,4038.0,-68.0,-77.0,235.0,232.0
4083,-62,248,0,4073.0,4057.0,-65.0,-68.0,244.0,235.0
4091,-59,249,0,4083.0,4073.0,-62.0,-65.0,248.0,244.0
4096,-62,244,0,4091.0,4083.0,-59.0,-62.0,249.0,248.0
4098,-65,246,0,4096.0,4091.0,-62.0,-59.0,244.0,249.0
4098,-66,245,0,4098.0,4096.0,-65.0,-62.0,246.0,244.0
4099,-68,251,0,4098.0,4098.0,-66.0,-65.0,245.0,246.0
4097,-72,258,0,4099.0,4098.0,-68.0,-66.0,251.0,245.0
4097,-72,268,0,4097.0,4099.0,-72.0,-68.0,258.0,251.0
4088,-70,273,0,4097.0,4097.0,-72.0,-72.0,268.0,258.0
4084,-67,274,0,4088.0,4097.0,-70.0,-72.0,273.0,268.0
4073,-65,274,0,4084.0,4088.0,-67.0,-70.0,274.0,273.0
4067,-63,265,0,4073.0,4084.0,-65.0,-67.0,274.0,274.0
4057,-65,258,0,4067.0,4073.0,-63.0,-65.0,265.0,274.0
4049,-65,248,0,4057.0,4067.0,-65.0,-63.0,258.0,265.0
4040,-60,242,0,4049.0,4057.0,-65.0,-65.0,248.0,258.0
4039,-59,234,0,4040.0,4049.0,-60.0,-65.0,242.0,248.0
4031,-57,230,0,4039.0,4040.0,-59.0,-60.0,234.0,242.0
4031,-53,232,0,4031.0,4039.0,-57.0,-59.0,230.0,234.0
4036,-49,240,0,4031.0,4031.0,-53.0,-57.0,232.0,230.0
4042,-44,249,0,4036.0,4031.0,-49.0,-53.0,240.0,232.0
4046,-42,258,0,4042.0,4036.0,-44.0,-49.0,249.0,240.0
4052,-44,265,0,4046.0,4042.0,-42.0,-44.0,258.0,249.0
4060,-48,267,0,4052.0,4046.0,-44.0,-42.0,265.0,258.0
4062,-55,261,0,4060.0,4052.0,-48.0,-44.0,267.0,265.0
4066,-65,249,0,4062.0,4060.0,-55.0,-48.0,261.0,267.0
4073,-72,243,0,4066.0,4062.0,-65.0,-55.0,249.0,261.0
4079,-78,247,0,4073.0,4066.0,-72.0,-65.0,243.0,249.0
4088,-82,257,0,4079.0,4073.0,-78.0,-72.0,247.0,243.0
4094,-80,269,0,4088.0,4079.0,-82.0,-78.0,257.0,247.0
4097,-80,277,0,4094.0,4088.0,-80.0,-82.0,269.0,257.0
4097,-75,278,0,4097.0,4094.0,-80.0,-80.0,277.0,269.0
4094,-71,275,0,4097.0,4097.0,-75.0,-80.0,278.0,277.0
4083,-65,267,0,4094.0,4097.0,-71.0,-75.0,275.0,278.0
4074,-60,256,0,4083.0,4094.0,-65.0,-71.0,267.0,275.0
4063,-54,247,0,4074.0,4083.0,-60.0,-65.0,256.0,267.0
4053,-48,243,0,4063.0,4074.0,-54.0,-60.0,247.0,256.0
4050,-43,246,0,4053.0,4063.0,-48.0,-54.0,243.0,247.0
4052,-37,251,0,4050.0,4053.0,-43.0,-48.0,246.0,243.0
4055,-35,255,0,4052.0,4050.0,-37.0,-43.0,251.0,246.0
4061,-30,262,0,4055.0,4052.0,-35.0,-37.0,255.0,251.0
4066,-31,270,0,4061.0,4055.0,-30.0,-35.0,262.0,255.0
4072,-33,275,0,4066.0,4061.0,-31.0,-30.0,270.0,262.0
4078,-36,279,0,4072.0,4066.0,-33.0,-31.0,275.0,270.0
4080,-42,280,0,4078.0,4072.0,-36.0,-33.0,279.0,275.0
4085,-44,280,0,4080.0,4078.0,-42.0,-36.0,280.0,279.0
4086,-47,277,0,4085.0,4080.0,-44.0,-42.0,280.0,280.0
4084,-49,278,0,4086.0,4085.0,-47.0,-44.0,277.0,280.0
4078,-52,276,0,4084.0,4086.0,-49.0,-47.0,278.0,277.0
4073,-54,268,0,4078.0,4084.0,-52.0,-49.0,276.0,278.0
4065,-56,263,0,4073.0,4078.0,-54.0,-52.0,268.0,276.0
4057,-59,261,0,4065.0,4073.0,-56.0,-54.0,263.0,268.0
4054,-59,265,0,4057.0,4065.0,-59.0,-56.0,261.0,263.0
4053,-64,269,0,4054.0,4057.0,-59.0,-59.0,265.0,261.0
4053,-69,265,0,4053.0,4054.0,-64.0,-59.0,269.0,265.0
4054,-72,264,0,4053.0,4053.0,-69.0,-64.0,265.0,269.0
4057,-67,271,0,4054.0,4053.0,-72.0,-69.0,264.0,265.0
4057,-67,284,0,4057.0,4054.0,-67.0,-72.0,271.0,264.0
4061,-63,291,0,4057.0,4057.0,-67.0,-67.0,284.0,271.0
4067,-61,297,0,4061.0,4057.0,-63.0,-67.0,291.0,284.0
4072,-60,296,0,4067.0,4061.0,-61.0,-63.0,297.0,291.0
4074,-61,290,0,4072.0,4067.0,-60.0,-61.0,296.0,297.0
4073,-61,283,0,4074.0,4072.0,-61.0,-60.0,290.0,296.0
4067,-56,272,0,4073.0,4074.0,-61.0,-61.0,283.0,290.0
4066,-57,271,0,4067.0,4073.0,-56.0,-61.0,272.0,283.0
4061,-56,268,0,4066.0,4067.0,-57.0,-56.0,271.0,272.0
4056,-54,273,0,4061.0,4066.0,-56.0,-57.0,268.0,271.0
4050,-54,274,0,4056.0,4061.0,-54.0,-56.0,273.0,268.0
4045,-56,279,0,4050.0,4056.0,-54.0,-54.0,274.0,273.0
4043,-60,287,0,4045.0,4050.0,-56.0,-54.0,279.0,274.0
4042,-67,295,0,4043.0,4045.0,-60.0,-56.0,287.0,279.0
4045,-74,301,0,4042.0,4043.0,-67.0,-60.0,295.0,287.0
4045,-85,301,0,4045.0,4042.0,-74.0,-67.0,301.0,295.0
4046,-90,298,0,4045.0,4045.0,-85.0,-74.0,301.0,301.0
4048,-99,294,0,4046.0,4045.0,-90.0,-85.0,298.0,301.0
4052,-99,292,0,4048.0,4046.0,-99.0,-90.0,294.0,298.0
4061,-100,296,0,4052.0,4048.0,-99.0,-99.0,292.0,294.0
4071,-95,308,0,4061.0,4052.0,-100.0,-99.0,296.0,292.0
4076,-90,312,0,4071.0,4061.0,-95.0,-100.0,308.0,296.0
4079,-90,309,0,4076.0,4071.0,-90.0,-95.0,312.0,308.0
4076,-82,301,0,4079.0,4076.0,-90.0,-90.0,309.0,312.0
4072,-75,290,0,4076.0,4079.0,-82.0,-90.0,301.0,309.0
4064,-67,285,0,4072.0,4076.0,-75.0,-82.0,290.0,301.0
4061,-58,283,0,4064.0,4072.0,-67.0,-75.0,285.0,290.0
4061,-53,282,0,4061.0,4064.0,-58.0,-67.0,283.0,285.0
4055,-48,285,0,4061.0,4061.0,-53.0,-58.0,282.0,283.0
4056,-44,284,0,4055.0,4061.0,-48.0,-53.0,285.0,282.0
4055,-38,288,0,4056.0,4055.0,-44.0,-48.0,284.0,285.0
4059,-41,294,0,4055.0,4056.0,-38.0,-44.0,288.0,284.0
4057,-42,290,0,4059.0,4055.0,-41.0,-38.0,294.0,288.0
4063,-47,295,0,4057.0,4059.0,-42.0,-41.0,290.0,294.0
4068,-50,300,0,4063.0,4057.0,-47.0,-42.0,295.0,290.0
4074,-54,306,0,4068.0,4063.0,-50.0,-47.0,300.0,295.0
4076,-56,308,0,4074.0,4068.0,-54.0,-50.0,306.0,300.0
4071,-50,303,0,4076.0,4074.0,-56.0,-54.0,308.0,306.0
4062,-52,299,0,4071.0,4076.0,-50.0,-56.0,303.0,308.0
4055,-48,298,0,4062.0,4071.0,-52.0,-50.0,299.0,303.0
4060,-43,303,0,4055.0,4062.0,-48.0,-52.0,298.0,299.0
4059,-37,307,0,4060.0,4055.0,-43.0,-48.0,303.0,298.0
4064,-38,309,0,4059.0,4060.0,-37.0,-43.0,307.0,303.0
4065,-41,305,0,4064.0,4059.0,-38.0,-37.0,309.0,307.0
4066,-49,301,0,4065.0,4064.0,-41.0,-38.0,305.0,309.0
4061,-56,299,0,4066.0,4065.0,-49.0,-41.0,301.0,305.0
4055,-63,294,0,4061.0,4066.0,-56.0,-49.0,299.0,301.0
4050,-69,294,0,4055.0,4061.0,-63.0,-56.0,294.0,299.0
4045,-71,291,0,4050.0,4055.0,-69.0,-63.0,294.0,294.0
4043,-68,294,0,4045.0,4050.0,-71.0,-69.0,291.0,294.0
4046,-64,296,0,4043.0,4045.0,-68.0,-71.0,294.0,291.0
4051,-62,303,0,4046.0,4043.0,-64.0,-68.0,296.0,294.0
4051,-67,310,0,4051.0,4046.0,-62.0,-64.0,303.0,296.0
4051,-71,312,0,4051.0,4051.0,-67.0,-62.0,310.0,303.0
4050,-72,310,0,4051.0,4051.0,-71.0,-67.0,312.0,310.0
4052,-73,310,0,4050.0,4051.0,-72.0,-71.0,310.0,312.0
4051,-74,310,0,4052.0,4050.0,-73.0,-72.0,310.0,310.0
4057,-71,311,0,4051.0,4052.0,-74.0,-73.0,310.0,310.0
4060,-72,314,0,4057.0,4051.0,-71.0,-74.0,311.0,310.0
4068,-73,317,0,4060.0,4057.0,-72.0,-71.0,314.0,311.0
4076,-76,323,0,4068.0,4060.0,-73.0,-72.0,317.0,314.0
4081,-77,323,0,4076.0,4068.0,-76.0,-73.0,323.0,317.0
4078,-74,309,0,4081.0,4076.0,-77.0,-76.0,323.0,323.0
4071,-75,290,0,4078.0,4081.0,-74.0,-77.0,309.0,323.0
4062,-71,281,0,4071.0,4078.0,-75.0,-74.0,290.0,309.0
4062,-72,280,0,4062.0,4071.0,-71.0,-75.0,281.0,290.0
4056,-64,283,0,4062.0,4062.0,-72.0,-71.0,280.0,281.0
4052,-64,292,0,4056.0,4062.0,-64.0,-72.0,283.0,280.0
4051,-60,296,0,4052.0,4056.0,-64.0,-64.0,292.0,283.0
4048,-59,291,0,4051.0,4052.0,-60.0,-64.0,296.0,292.0
4040,-62,287,0,4048.0,4051.0,-59.0,-60.0,291.0,296.0
4042,-65,283,0,4040.0,4048.0,-62.0,-59.0,287.0,291.0
4052,-66,278,0,4042.0,4040.0,-65.0,-62.0,283.0,287.0
4071,-71,285,0,4052.0,4042.0,-66.0,-65.0,278.0,283.0
4084,-69,291,0,4071.0,4052.0,-71.0,-66.0,285.0,278.0
4092,-65,293,0,4084.0,4071.0,-69.0,-71.0,291.0,285.0
4096,-59,294,0,4092.0,4084.0,-65.0,-69.0,293.0,291.0
4098,-46,292,0,4096.0,4092.0,-59.0,-65.0,294.0,293.0
4096,-34,293,0,4098.0,4096.0,-46.0,-59.0,292.0,294.0
4097,-24,297,0,4096.0,4098.0,-34.0,-46.0,293.0,292.0
4092,-17,305,0,4097.0,4096.0,-24.0,-34.0,297.0,293.0
4082,-15,315,0,4092.0,4097.0,-17.0,-24.0,305.0,297.0
4068,-18,314,0,4082.0,4092.0,-15.0,-17.0,315.0,305.0
4058,-25,312,0,4068.0,4082.0,-18.0,-15.0,314.0,315.0
4047,-40,310,0,4058.0,4068.0,-25.0,-18.0,312.0,314.0
4035,-59,303,0,4047.0,4058.0,-40.0,-25.0,310.0,312.0
4027,-79,298,0,4035.0,4047.0,-59.0,-40.0,303.0,310.0
4027,-91,295,0,4027.0,4035.0,-79.0,-59.0,298.0,303.0
4028,-105,294,0,4027.0,4027.0,-91.0,-79.0,295.0,298.0
4030,-114,294,0,4028.0,4027.0,-105.0,-91.0,294.0,295.0
4032,-113,296,0,4030.0,4028.0,-114.0,-105.0,294.0,294.0
4036,-112,300,0,4032.0,4030.0,-113.0,-114.0,296.0,294.0
4046,-107,300,0,4036.0,4032.0,-112.0,-113.0,300.0,296.0
4053,-101,296,0,4046.0,4036.0,-107.0,-112.0,300.0,300.0
4054,-94,289,0,4053.0,4046.0,-101.0,-107.0,296.0,300.0
4056,-83,284,0,4054.0,4053.0,-94.0,-101.0,289.0,296.0
4055,-71,279,0,4056.0,4054.0,-83.0,-94.0,284.0,289.0
4063,-65,286,0,4055.0,4056.0,-71.0,-83.0,279.0,284.0
4073,-58,290,0,4063.0,4055.0,-65.0,-71.0,286.0,279.0
4081,-57,297,0,4073.0,4063.0,-58.0,-65.0,290.0,286.0
4088,-55,298,0,4081.0,4073.0,-57.0,-58.0,297.0,290.0
4094,-53,297,0,4088.0,4081.0,-55.0,-57.0,298.0,297.0
4095,-49,298,0,4094.0,4088.0,-53.0,-55.0,297.0,298.0
4095,-47,291,0,4095.0,4094.0,-49.0,-53.0,298.0,297.0
4087,-40,286,0,4095.0,4095.0,-47.0,-49.0,291.0,298.0
4083,-39,283,0,4087.0,4095.0,-40.0,-47.0,286.0,291.0
4080,-36,282,0,4083.0,4087.0,-39.0,-40.0,283.0,286.0
4076,-33,289,0,4080.0,4083.0,-36.0,-39.0,282.0,283.0
4071,-34,289,0,4076.0,4080.0,-33.0,-36.0,289.0,282.0
4067,-35,293,0,4071.0,4076.0,-34.0,-33.0,289.0,289.0
4059,-35,294,0,4067.0,4071.0,-35.0,-34.0,293.0,289.0
4057,-38,295,0,4059.0,4067.0,-35.0,-35.0,294.0,293.0
4050,-38,295,0,4057.0,4059.0,-38.0,-35.0,295.0,294.0
4047,-35,295,0,4050.0,4057.0,-38.0,-38.0,295.0,295.0
4049,-34,303,0,4047.0,4050.0,-35.0,-38.0,295.0,295.0
4052,-32,310,0,4049.0,4047.0,-34.0,-35.0,303.0,295.0
4056,-29,318,0,4052.0,4049.0,-32.0,-34.0,310.0,303.0
4064,-29,322,0,4056.0,4052.0,-29.0,-32.0,318.0,310.0
4069,-30,315,0,4064.0,4056.0,-29.0,-29.0,322.0,318.0
4068,-33,312,0,4069.0,4064.0,-30.0,-29.0,315.0,322.0
4069,-30,307,0,4068.0,4069.0,-33.0,-30.0,312.0,315.0
4068,-30,305,0,4069.0,4068.0,-30.0,-33.0,307.0,312.0
4067,-29,305,0,4068.0,4069.0,-30.0,-30.0,305.0,307.0
4067,-31,306,0,4067.0,4068.0,-29.0,-30.0,305.0,305.0
4068,-34,313,0,4067.0,4067.0,-31.0,-29.0,306.0,305.0
4067,-38,322,0,4068.0,4067.0,-34.0,-31.0,313.0,306.0
4061,-39,326,0,4067.0,4068.0,-38.0,-34.0,322.0,313.0
4060,-48,337,0,4061.0,4067.0,-39.0,-38.0,326.0,322.0
4063,-57,347,0,4060.0,4061.0,-48.0,-39.0,337.0,326.0
4065,-65,346,0,4063.0,4060.0,-57.0,-48.0,347.0,337.0
4056,-69,339,0,4065.0,4063.0,-65.0,-57.0,346.0,347.0
4047,-70,328,0,4056.0,4065.0,-69.0,-65.0,339.0,346.0
4044,-72,320,0,4047.0,4056.0,-70.0,-69.0,328.0,339.0
4048,-74,322,0,4044.0,4047.0,-72.0,-70.0,320.0,328.0
4053,-82,322,0,4048.0,4044.0,-74.0,-72.0,322.0,320.0
4061,-86,316,0,4053.0,4048.0,-82.0,-74.0,322.0,322.0
4066,-88,314,0,4061.0,4053.0,-86.0,-82.0,316.0,322.0
4071,-87,309,0,4066.0,4061.0,-88.0,-86.0,314.0,316.0
4075,-82,309,0,4071.0,4066.0,-87.0,-88.0,309.0,314.0
4079,-79,303,0,4075.0,4071.0,-82.0,-87.0,309.0,309.0
4078,-69,300,0,4079.0,4075.0,-79.0,-82.0,303.0,309.0
4078,-60,302,0,4078.0,4079.0,-69.0,-79.0,300.0,303.0
4080,-47,311,0,4078.0,4078.0,-60.0,-69.0,302.0,300.0
4081,-39,320,0,4080.0,4078.0,-47.0,-60.0,311.0,302.0
4079,-29,322,0,4081.0,4080.0,-39.0,-47.0,320.0,311.0
4072,-28,318,0,4079.0,4081.0,-29.0,-39.0,322.0,320.0
4062,-31,316,0,4072.0,4079.0,-28.0,-29.0,318.0,322.0
4054,-35,316,0,4062.0,4072.0,-31.0,-28.0,316.0,318.0
4049,-38,317,0,4054.0,4062.0,-35.0,-31.0,316.0,316.0
4047,-43,323,0,4049.0,4054.0,-38.0,-35.0,317.0,316.0
4049,-38,324,0,4047.0,4049.0,-43.0,-38.0,323.0,317.0
4055,-41,326,0,4049.0,4047.0,-38.0,-43.0,324.0,323.0
4059,-44,323,0,4055.0,4049.0,-41.0,-38.0,326.0,324.0
4063,-46,320,0,4059.0,4055.0,-44.0,-41.0,323.0,326.0
4068,-52,320,0,4063.0,4059.0,-46.0,-44.0,320.0,323.0
4070,-56,317,0,4068.0,4063.0,-52.0,-46.0,320.0,320.0
4072,-57,314,0,4070.0,4068.0,-56.0,-52.0,317.0,320.0
4075,-61,310,0,4072.0,4070.0,-57.0,-56.0,314.0,317.0
4070,-61,305,0,4075.0,4072.0,-61.0,-57.0,310.0,314.0
4070,-56,305,0,4070.0,4075.0,-61.0,-61.0,305.0,310.0
4068,-49,305,0,4070.0,4070.0,-56.0,-61.0,305.0,305.0
4070,-43,306,0,4068.0,4070.0,-49.0,-56.0,305.0,305.0
4068,-39,313,0,4070.0,4068.0,-43.0,-49.0,306.0,305.0
4067,-37,314,0,4068.0,4070.0,-39.0,-43.0,313.0,306.0
4064,-39,316,0,4067.0,4068.0,-37.0,-39.0,314.0,313.0
4055,-43,318,0,4064.0,4067.0,-39.0,-37.0,316.0,314.0
4048,-43,318,0,4055.0,4064.0,-43.0,-39.0,318.0,316.0
4047,-45,325,0,4048.0,4055.0,-43.0,-43.0,318.0,318.0
4052,-52,329,0,4047.0,4048.0,-45.0,-43.0,325.0,318.0
4047,-62,320,0,4052.0,4047.0,-52.0,-45.0,329.0,325.0
4042,-69,308,0,4047.0,4052.0,-62.0,-52.0,320.0,329.0
4040,-71,299,0,4042.0,4047.0,-69.0,-62.0,308.0,320.0
4042,-69,298,0,4040.0,4042.0,-71.0,-69.0,299.0,308.0
4046,-67,298,0,4042.0,4040.0,-69.0,-71.0,298.0,299.0
4059,-63,303,0,4046.0,4042.0,-67.0,-69.0,298.0,298.0
4066,-65,306,0,4059.0,4046.0,-63.0,-67.0,303.0,298.0
4072,-65,305,0,4066.0,4059.0,-65.0,-63.0,306.0,303.0
4075,-71,305,0,4072.0,4066.0,-65.0,-65.0,305.0,306.0
4077,-72,300,0,4075.0,4072.0,-71.0,-65.0,305.0,305.0
4076,-72,296,0,4077.0,4075.0,-72.0,-71.0,300.0,305.0
4077,-68,296,0,4076.0,4077.0,-72.0,-72.0,296.0,300.0
4074,-64,296,0,4077.0,4076.0,-68.0,-72.0,296.0,296.0
4073,-61,297,0,4074.0,4077.0,-64.0,-68.0,296.0,296.0
4071,-59,301,0,4073.0,4074.0,-61.0,-64.0,297.0,296.0
4069,-57,307,0,4071.0,4073.0,-59.0,-61.0,301.0,297.0
4068,-53,310,0,4069.0,4071.0,-57.0,-59.0,307.0,301.0
4065,-55,310,0,4068.0,4069.0,-53.0,-57.0,310.0,307.0
4066,-55,307,0,4065.0,4068.0,-55.0,-53.0,310.0,310.0
4066,-57,304,0,4066.0,4065.0,-55.0,-55.0,307.0,310.0
4062,-53,300,0,4066.0,4066.0,-57.0,-55.0,304.0,307.0
4058,-49,298,0,4062.0,4066.0,-53.0,-57.0,300.0,304.0
4054,-47,293,0,4058.0,4062.0,-49.0,-53.0,298.0,300.0
4053,-43,292,0,4054.0,4058.0,-47.0,-49.0,293.0,298.0
4051,-42,297,0,4053.0,4054.0,-43.0,-47.0,292.0,293.0
4054,-41,295,0,4051.0,4053.0,-42.0,-43.0,297.0,292.0
4057,-43,296,0,4054.0,4051.0,-41.0,-42.0,295.0,297.0
4057,-43,294,0,4057.0,4054.0,-43.0,-41.0,296.0,295.0
4058,-46,293,0,4057.0,4057.0,-43.0,-43.0,294.0,296.0
4057,-44,288,0,4058.0,4057.0,-46.0,-43.0,293.0,294.0
4059,-46,292,0,4057.0,4058.0,-44.0,-46.0,288.0,293.0
4060,-48,295,0,4059.0,4057.0,-46.0,-44.0,292.0,288.0
4063,-50,294,0,4060.0,4059.0,-48.0,-46.0,295.0,292.0
4066,-50,294,0,4063.0,4060.0,-50.0,-48.0,294.0,295.0
4063,-53,293,0,4066.0,4063.0,-50.0,-50.0,294.0,294.0
4065,-56,294,0,4063.0,4066.0,-53.0,-50.0,293.0,294.0
4071,-58,300,0,4065.0,4063.0,-56.0,-53.0,294.0,293.0
4075,-62,308,0,4071.0,4065.0,-58.0,-56.0,300.0,294.0
4077,-66,317,0,4075.0,4071.0,-62.0,-58.0,308.0,300.0
4078,-70,325,0,4077.0,4075.0,-66.0,-62.0,317.0,308.0
4074,-77,332,0,4078.0,4077.0,-70.0,-66.0,325.0,317.0
4065,-76,326,0,4074.0,4078.0,-77.0,-70.0,332.0,325.0
4054,-74,316,0,4065.0,4074.0,-76.0,-77.0,326.0,332.0
4051,-71,309,0,4054.0,4065.0,-74.0,-76.0,316.0,326.0
4049,-68,309,0,4051.0,4054.0,-71.0,-74.0,309.0,316.0
4058,-65,314,0,4049.0,4051.0,-68.0,-71.0,309.0,309.0
4064,-62,317,0,4058.0,4049.0,-65.0,-68.0,314.0,309.0
4066,-58,319,0,4064.0,4058.0,-62.0,-65.0,317.0,314.0
4065,-54,315,0,4066.0,4064.0,-58.0,-62.0,319.0,317.0
4062,-51,305,0,4065.0,4066.0,-54.0,-58.0,315.0,319.0
4056,-47,301,0,4062.0,4065.0,-51.0,-54.0,305.0,315.0
4057,-47,303,0,4056.0,4062.0,-47.0,-51.0,301.0,305.0
4055,-44,303,0,4057.0,4056.0,-47.0,-47.0,303.0,301.0
4061,-41,312,0,4055.0,4057.0,-44.0,-47.0,303.0,303.0
4062,-41,312,0,4061.0,4055.0,-41.0,-44.0,312.0,303.0
4067,-48,319,0,4062.0,4061.0,-41.0,-41.0,312.0,312.0
4073,-55,329,0,4067.0,4062.0,-48.0,-41.0,319.0,312.0
4076,-65,331,0,4073.0,4067.0,-55.0,-48.0,329.0,319.0
4073,-74,319,0,4076.0,4073.0,-65.0,-55.0,331.0,329.0
4067,-79,306,0,4073.0,4076.0,-74.0,-65.0,319.0,331.0
4059,-80,295,0,4067.0,4073.0,-79.0,-74.0,306.0,319.0
4060,-76,290,0,4059.0,4067.0,-80.0,-79.0,295.0,306.0
4068,-73,291,0,4060.0,4059.0,-76.0,-80.0,290.0,295.0
4075,-64,298,0,4068.0,4060.0,-73.0,-76.0,291.0,290.0
4085,-61,305,0,4075.0,4068.0,-64.0,-73.0,298.0,291.0
4092,-59,312,0,4085.0,4075.0,-61.0,-64.0,305.0,298.0
4093,-57,321,0,4092.0,4085.0,-59.0,-61.0,312.0,305.0
4087,-56,332,0,4093.0,4092.0,-57.0,-59.0,321.0,312.0
4077,-55,336,0,4087.0,4093.0,-56.0,-57.0,332.0,321.0
4059,-55,339,0,4077.0,4087.0,-55.0,-56.0,336.0,332.0
4046,-63,336,0,4059.0,4077.0,-55.0,-55.0,339.0,336.0
4030,-73,333,0,4046.0,4059.0,-63.0,-55.0,336.0,339.0
4025,-82,336,0,4030.0,4046.0,-73.0,-63.0,333.0,336.0
4025,-94,338,0,4025.0,4030.0,-82.0,-73.0,336.0,333.0
4034,-100,334,0,4025.0,4025.0,-94.0,-82.0,338.0,336.0
4037,-101,328,0,4034.0,4025.0,-100.0,-94.0,334.0,338.0
4040,-105,316,0,4037.0,4034.0,-101.0,-100.0,328.0,334.0
4049,-102,307,0,4040.0,4037.0,-105.0,-101.0,316.0,328.0
4059,-99,297,0,4049.0,4040.0,-102.0,-105.0,307.0,316.0
4066,-99,291,0,4059.0,4049.0,-99.0,-102.0,297.0,307.0
4073,-98,290,0,4066.0,4059.0,-99.0,-99.0,291.0,297.0
4076,-90,296,0,4073.0,4066.0,-98.0,-99.0,290.0,291.0
4076,-81,300,0,4076.0,4073.0,-90.0,-98.0,296.0,290.0
4076,-73,306,0,4076.0,4076.0,-81.0,-90.0,300.0,296.0
4077,-69,309,0,4076.0,4076.0,-73.0,-81.0,306.0,300.0
4071,-71,304,0,4077.0,4076.0,-69.0,-73.0,309.0,306.0
4063,-74,304,0,4071.0,4077.0,-71.0,-69.0,304.0,309.0
4057,-78,307,0,4063.0,4071.0,-74.0,-71.0,304.0,304.0
4052,-80,307,0,4057.0,4063.0,-78.0,-74.0,307.0,304.0
4051,-84,303,0,4052.0,4057.0,-80.0,-78.0,307.0,307.0
4047,-84,295,0,4051.0,4052.0,-84.0,-80.0,303.0,307.0
4047,-85,297,0,4047.0,4051.0,-84.0,-84.0,295.0,303.0
4046,-82,295,0,4047.0,4047.0,-85.0,-84.0,297.0,295.0
4052,-79,296,0,4046.0,4047.0,-82.0,-85.0,295.0,297.0
4057,-78,296,0,4052.0,4046.0,-79.0,-82.0,296.0,295.0
4063,-79,294,0,4057.0,4052.0,-78.0,-79.0,296.0,296.0
4066,-74,284,0,4063.0,4057.0,-79.0,-78.0,294.0,296.0
4068,-70,286,0,4066.0,4063.0,-74.0,-79.0,284.0,294.0
4070,-66,285,0,4068.0,4066.0,-70.0,-74.0,286.0,284.0
4072,-65,287,0,4070.0,4068.0,-66.0,-70.0,285.0,286.0
4072,-63,286,0,4072.0,4070.0,-65.0,-66.0,287.0,285.0
4072,-57,286,0,4072.0,4072.0,-63.0,-65.0,286.0,287.0
4073,-57,286,0,4072.0,4072.0,-57.0,-63.0,286.0,286.0
4071,-59,289,0,4073.0,4072.0,-57.0,-57.0,286.0,286.0
4069,-53,288,0,4071.0,4073.0,-59.0,-57.0,289.0,286.0
4060,-59,289,0,4069.0,4071.0,-53.0,-59.0,288.0,289.0
4056,-57,296,0,4060.0,4069.0,-59.0,-53.0,289.0,288.0
4054,-58,305,0,4056.0,4060.0,-57.0,-59.0,296.0,289.0
4054,-61,309,0,4054.0,4056.0,-58.0,-57.0,305.0,296.0
4055,-62,314,0,4054.0,4054.0,-61.0,-58.0,309.0,305.0
4059,-68,321,0,4055.0,4054.0,-62.0,-61.0,314.0,309.0
4064,-71,334,0,4059.0,4055.0,-68.0,-62.0,321.0,314.0
4069,-71,340,0,4064.0,4059.0,-71.0,-68.0,334.0,321.0
4065,-68,335,0,4069.0,4064.0,-71.0,-71.0,340.0,334.0
4060,-73,325,0,4065.0,4069.0,-68.0,-71.0,335.0,340.0
4054,-74,317,0,4060.0,4065.0,-73.0,-68.0,325.0,335.0
4049,-77,310,0,4054.0,4060.0,-74.0,-73.0,317.0,325.0
4047,-78,306,0,4049.0,4054.0,-77.0,-74.0,310.0,317.0
4049,-78,304,0,4047.0,4049.0,-78.0,-77.0,306.0,310.0
4057,-85,304,0,4049.0,4047.0,-78.0,-78.0,304.0,306.0
4068,-96,305,0,4057.0,4049.0,-85.0,-78.0,304.0,304.0
4073,-107,306,0,4068.0,4057.0,-96.0,-85.0,305.0,304.0
4075,-115,307,0,4073.0,4068.0,-107.0,-96.0,306.0,305.0
4077,-116,306,0,4075.0,4073.0,-115.0,-107.0,307.0,306.0
4077,-122,306,0,4077.0,4075.0,-116.0,-115.0,306.0,307.0
4074,-120,306,0,4077.0,4077.0,-122.0,-116.0,306.0,306.0
4074,-114,305,0,4074.0,4077.0,-120.0,-122.0,306.0,306.0
4072,-107,305,0,4074.0,4074.0,-114.0,-120.0,305.0,306.0
4065,-103,305,0,4072.0,4074.0,-107.0,-114.0,305.0,305.0
4058,-101,302,0,4065.0,4072.0,-103.0,-107.0,305.0,305.0
4050,-93,300,0,4058.0,4065.0,-101.0,-103.0,302.0,305.0
4045,-92,301,0,4050.0,4058.0,-93.0,-101.0,300.0,302.0
4045,-86,302,0,4045.0,4050.0,-92.0,-93.0,301.0,300.0
4049,-90,305,0,4045.0,4045.0,-86.0,-92.0,302.0,301.0
4053,-92,304,0,4049.0,4045.0,-90.0,-86.0,305.0,302.0
4056,-91,300,0,4053.0,4049.0,-92.0,-90.0,304.0,305.0
4059,-87,298,0,4056.0,4053.0,-91.0,-92.0,300.0,304.0
4066,-83,300,0,4059.0,4056.0,-87.0,-91.0,298.0,300.0
4067,-83,298,0,4066.0,4059.0,-83.0,-87.0,300.0,298.0
4070,-83,297,0,4067.0,4066.0,-83.0,-83.0,298.0,300.0
4074,-87,300,0,4070.0,4067.0,-83.0,-83.0,297.0,298.0
4077,-89,302,0,4074.0,4070.0,-87.0,-83.0,300.0,297.0
4075,-91,303,0,4077.0,4074.0,-89.0,-87.0,302.0,300.0
4069,-91,295,0,4075.0,4077.0,-91.0,-89.0,303.0,302.0
4062,-87,290,0,4069.0,4075.0,-91.0,-91.0,295.0,303.0
4056,-83,290,0,4062.0,4069.0,-87.0,-91.0,290.0,295.0
4053,-81,294,0,4056.0,4062.0,-83.0,-87.0,290.0,290.0
4060,-74,297,0,4053.0,4056.0,-81.0,-83.0,294.0,290.0
4066,-74,302,0,4060.0,4053.0,-74.0,-81.0,297.0,294.0
4066,-77,302,0,4066.0,4060.0,-74.0,-74.0,302.0,297.0
4070,-76,300,0,4066.0,4066.0,-77.0,-74.0,302.0,302.0
4068,-75,302,0,4070.0,4066.0,-76.0,-77.0,300.0,302.0
4066,-78,296,0,4068.0,4070.0,-75.0,-76.0,302.0,300.0
4064,-85,294,0,4066.0,4068.0,-78.0,-75.0,296.0,302.0
4060,-85,295,0,4064.0,4066.0,-85.0,-78.0,294.0,296.0
4055,-84,297,0,4060.0,4064.0,-85.0,-85.0,295.0,294.0
4055,-84,300,0,4055.0,4060.0,-84.0,-85.0,297.0,295.0
4052,-88,298,0,4055.0,4055.0,-84.0,-84.0,300.0,297.0
4051,-97,294,0,4052.0,4055.0,-88.0,-84.0,298.0,300.0
4054,-98,294,0,4051.0,4052.0,-97.0,-88.0,294.0,298.0
4055,-98,295,0,4054.0,4051.0,-98.0,-97.0,294.0,294.0
4062,-95,295,0,4055.0,4054.0,-98.0,-98.0,295.0,294.0
4067,-96,297,0,4062.0,4055.0,-95.0,-98.0,295.0,295.0
4070,-93,292,0,4067.0,4062.0,-96.0,-95.0,297.0,295.0
4067,-92,288,0,4070.0,4067.0,-93.0,-96.0,292.0,297.0
4069,-90,291,0,4067.0,4070.0,-92.0,-93.0,288.0,292.0
4071,-86,299,0,4069.0,4067.0,-90.0,-92.0,291.0,288.0
4074,-82,308,0,4071.0,4069.0,-86.0,-90.0,299.0,291.0
4075,-78,308,0,4074.0,4071.0,-82.0,-86.0,308.0,299.0
4068,-77,297,0,4075.0,4074.0,-78.0,-82.0,308.0,308.0
4058,-75,290,0,4068.0,4075.0,-77.0,-78.0,297.0,308.0
4054,-75,283,0,4058.0,4068.0,-75.0,-77.0,290.0,297.0
4050,-75,282,0,4054.0,4058.0,-75.0,-75.0,283.0,290.0
4049,-76,283,0,4050.0,4054.0,-75.0,-75.0,282.0,283.0
4050,-76,286,0,4049.0,4050.0,-76.0,-75.0,283.0,282.0
4055,-73,290,0,4050.0,4049.0,-76.0,-76.0,286.0,283.0
4062,-70,293,0,4055.0,4050.0,-73.0,-76.0,290.0,286.0
4065,-73,294,0,4062.0,4055.0,-70.0,-73.0,293.0,290.0
4065,-77,294,0,4065.0,4062.0,-73.0,-70.0,294.0,293.0
4065,-76,296,0,4065.0,4065.0,-77.0,-73.0,294.0,294.0
4065,-79,297,0,4065.0,4065.0,-76.0,-77.0,296.0,294.0
4061,-73,301,0,4065.0,4065.0,-79.0,-76.0,297.0,296.0
4064,-74,300,0,4061.0,4065.0,-73.0,-79.0,301.0,297.0
4062,-76,296,0,4064.0,4061.0,-74.0,-73.0,300.0,301.0
4058,-79,289,0,4062.0,4064.0,-76.0,-74.0,296.0,300.0
4059,-79,290,0,4058.0,4062.0,-79.0,-76.0,289.0,296.0
4061,-83,296,0,4059.0,4058.0,-79.0,-79.0,290.0,289.0
4065,-82,299,0,4061.0,4059.0,-83.0,-79.0,296.0,290.0
4068,-83,299,0,4065.0,4061.0,-82.0,-83.0,299.0,296.0
4066,-82,297,0,4068.0,4065.0,-83.0,-82.0,299.0,299.0
4061,-78,292,0,4066.0,4068.0,-82.0,-83.0,297.0,299.0
4060,-75,288,0,4061.0,4066.0,-78.0,-82.0,292.0,297.0
4061,-79,286,0,4060.0,4061.0,-75.0,-78.0,288.0,292.0
4061,-82,282,0,4061.0,4060.0,-79.0,-75.0,286.0,288.0
4058,-88,281,0,4061.0,4061.0,-82.0,-79.0,282.0,286.0
4059,-87,283,0,4058.0,4061.0,-88.0,-82.0,281.0,282.0
4059,-87,283,0,4059.0,4058.0,-87.0,-88.0,283.0,281.0
4050,-89,280,0,4059.0,4059.0,-87.0,-87.0,283.0,283.0
4041,-93,273,0,4050.0,4059.0,-89.0,-87.0,280.0,283.0
4032,-96,266,0,4041.0,4050.0,-93.0,-89.0,273.0,280.0
4022,-96,273,0,4032.0,4041.0,-96.0,-93.0,266.0,273.0
4019,-97,285,0,4022.0,4032.0,-96.0,-96.0,273.0,266.0
4015,-95,291,0,4019.0,4022.0,-97.0,-96.0,285.0,273.0
4012,-96,291,0,4015.0,4019.0,-95.0,-97.0,291.0,285.0
4008,-97,286,0,4012.0,4015.0,-96.0,-95.0,291.0,291.0
4008,-97,274,0,4008.0,4012.0,-97.0,-96.0,286.0,291.0
4010,-94,269,0,4008.0,4008.0,-97.0,-97.0,274.0,286.0
4024,-98,279,0,4010.0,4008.0,-94.0,-97.0,269.0,274.0
4046,-89,290,0,4024.0,4010.0,-98.0,-94.0,279.0,269.0
4061,-77,293,0,4046.0,4024.0,-89.0,-98.0,290.0,279.0
4076,-64,300,0,4061.0,4046.0,-77.0,-89.0,293.0,290.0
4088,-57,308,0,4076.0,4061.0,-64.0,-77.0,300.0,293.0
4095,-53,310,0,4088.0,4076.0,-57.0,-64.0,308.0,300.0
4098,-45,296,0,4095.0,4088.0,-53.0,-57.0,310.0,308.0
4093,-33,283,0,4098.0,4095.0,-45.0,-53.0,296.0,310.0
4093,-21,277,0,4093.0,4098.0,-33.0,-45.0,283.0,296.0
4095,-8,276,0,4093.0,4093.0,-21.0,-33.0,277.0,283.0
4083,3,279,0,4095.0,4093.0,-8.0,-21.0,276.0,277.0
4067,1,265,0,4083.0,4095.0,3.0,-8.0,279.0,276.0
4050,-1,249,0,4067.0,4083.0,1.0,3.0,265.0,279.0
4038,-3,247,0,4050.0,4067.0,-1.0,1.0,249.0,265.0
4034,-7,255,0,4038.0,4050.0,-3.0,-1.0,247.0,249.0
4037,-7,260,0,4034.0,4038.0,-7.0,-3.0,255.0,247.0
4035,-5,257,0,4037.0,4034.0,-7.0,-7.0,260.0,255.0
4030,-5,246,0,4035.0,4037.0,-5.0,-7.0,257.0,260.0
4026,-9,230,0,4030.0,4035.0,-5.0,-5.0,246.0,257.0
4027,-12,226,0,4026.0,4030.0,-9.0,-5.0,230.0,246.0
4028,-15,231,0,4027.0,4026.0,-12.0,-9.0,226.0,230.0
4038,-13,245,0,4028.0,4027.0,-15.0,-12.0,231.0,226.0
4055,-16,272,0,4038.0,4028.0,-13.0,-15.0,245.0,231.0
4078,-26,300,0,4055.0,4038.0,-16.0,-13.0,272.0,245.0
4106,-39,318,0,4078.0,4055.0,-26.0,-16.0,300.0,272.0
4129,-47,316,0,4106.0,4078.0,-39.0,-26.0,318.0,300.0
4137,-49,304,0,4129.0,4106.0,-47.0,-39.0,316.0,318.0
4139,-58,280,0,4137.0,4129.0,-49.0,-47.0,304.0,316.0
4139,-73,259,0,4139.0,4137.0,-58.0,-49.0,280.0,304.0
4139,-82,249,0,4139.0,4139.0,-73.0,-58.0,259.0,280.0
4131,-76,248,0,4139.0,4139.0,-82.0,-73.0,249.0,259.0
4118,-67,247,0,4131.0,4139.0,-76.0,-82.0,248.0,249.0
4104,-55,245,0,4118.0,4131.0,-67.0,-76.0,247.0,248.0
4087,-48,241,0,4104.0,4118.0,-55.0,-67.0,245.0,247.0
4062,-38,245,0,4087.0,4104.0,-48.0,-55.0,241.0,245.0
4040,-29,242,0,4062.0,4087.0,-38.0,-48.0,245.0,241.0
4024,-23,248,0,4040.0,4062.0,-29.0,-38.0,242.0,245.0
4016,-16,250,0,4024.0,4040.0,-23.0,-29.0,248.0,242.0
4007,-12,248,0,4016.0,4024.0,-16.0,-23.0,250.0,248.0
4004,-5,251,0,4007.0,4016.0,-12.0,-16.0,248.0,250.0
4007,-5,253,0,4004.0,4007.0,-5.0,-12.0,251.0,248.0
4013,-3,256,0,4007.0,4004.0,-5.0,-5.0,253.0,251.0
4009,2,246,0,4013.0,4007.0,-3.0,-5.0,256.0,253.0
3995,4,228,0,4009.0,4013.0,2.0,-3.0,246.0,256.0
3979,6,211,0,3995.0,4009.0,4.0,2.0,228.0,246.0
3964,11,211,0,3979.0,3995.0,6.0,4.0,211.0,228.0
3957,20,223,0,3964.0,3979.0,11.0,6.0,211.0,211.0
3949,24,231,0,3957.0,3964.0,20.0,11.0,223.0,211.0
3933,24,237,0,3949.0,3957.0,24.0,20.0,231.0,223.0
3925,19,237,0,3933.0,3949.0,24.0,24.0,237.0,231.0
3919,18,242,0,3925.0,3933.0,19.0,24.0,237.0,237.0
3921,24,246,0,3919.0,3925.0,18.0,19.0,242.0,237.0
3923,25,248,0,3921.0,3919.0,24.0,18.0,246.0,242.0
3922,27,243,0,3923.0,3921.0,25.0,24.0,248.0,246.0
3928,27,238,0,3922.0,3923.0,27.0,25.0,243.0,248.0
3936,34,234,0,3928.0,3922.0,27.0,27.0,238.0,243.0
3946,35,230,0,3936.0,3928.0,34.0,27.0,234.0,238.0
3956,39,225,0,3946.0,3936.0,35.0,34.0,230.0,234.0
3962,37,218,0,3956.0,3946.0,39.0,35.0,225.0,230.0
3968,37,207,0,3962.0,3956.0,37.0,39.0,218.0,225.0
3972,42,207,0,3968.0,3962.0,37.0,37.0,207.0,218.0
3966,49,206,0,3972.0,3968.0,42.0,37.0,207.0,207.0
3956,57,196,0,3966.0,3972.0,49.0,42.0,206.0,207.0
3936,58,182,0,3956.0,3966.0,57.0,49.0,196.0,206.0
3911,62,171,0,3936.0,3956.0,58.0,57.0,182.0,196.0
3882,69,170,0,3911.0,3936.0,62.0,58.0,171.0,182.0
3852,73,152,0,3882.0,3911.0,69.0,62.0,170.0,171.0
3813,69,130,0,3852.0,3882.0,73.0,69.0,152.0,170.0
3780,64,113,0,3813.0,3852.0,69.0,73.0,130.0,152.0
3748,58,116,0,3780.0,3813.0,64.0,69.0,113.0,130.0
3715,52,125,0,3748.0,3780.0,58.0,64.0,116.0,113.0
3672,51,131,0,3715.0,3748.0,52.0,58.0,125.0,116.0
3626,49,118,0,3672.0,3715.0,51.0,52.0,131.0,125.0
3566,58,85,0,3626.0,3672.0,49.0,51.0,118.0,131.0
3503,71,65,0,3566.0,3626.0,58.0,49.0,85.0,118.0
3442,89,57,0,3503.0,3566.0,71.0,58.0,65.0,85.0
3389,108,68,0,3442.0,3503.0,89.0,71.0,57.0,65.0
3344,122,82,0,3389.0,3442.0,108.0,89.0,68.0,57.0
3301,138,87,0,3344.0,3389.0,122.0,108.0,82.0,68.0
3258,152,89,0,3301.0,3344.0,138.0,122.0,87.0,82.0
3219,159,76,0,3258.0,3301.0,152.0,138.0,89.0,87.0
3179,165,63,0,3219.0,3258.0,159.0,152.0,76.0,89.0
3139,171,49,0,3179.0,3219.0,165.0,159.0,63.0,76.0
3096,180,22,0,3139.0,3179.0,171.0,165.0,49.0,63.0
3040,189,-19,0,3096.0,3139.0,180.0,171.0,22.0,49.0
2997,202,-31,0,3040.0,3096.0,189.0,180.0,-19.0,22.0
2975,205,-12,0,2997.0,3040.0,202.0,189.0,-31.0,-19.0
2977,206,39,0,2975.0,2997.0,205.0,202.0,-12.0,-31.0
2986,215,90,0,2977.0,2975.0,206.0,205.0,39.0,-12.0
2996,243,138,0,2986.0,2977.0,215.0,206.0,90.0,39.0
2978,277,151,0,2996.0,2986.0,243.0,215.0,138.0,90.0
2921,318,98,0,2978.0,2996.0,277.0,243.0,151.0,138.0
2836,344,-3,0,2921.0,2978.0,318.0,277.0,98.0,151.0
2740,359,-129,0,2836.0,2921.0,344.0,318.0,-3.0,98.0
2649,368,-236,0,2740.0,2836.0,359.0,344.0,-129.0,-3.0
2571,374,-286,0,2649.0,2740.0,368.0,359.0,-236.0,-129.0
2521,381,-270,0,2571.0,2649.0,374.0,368.0,-286.0,-236.0
2505,390,-189,0,2521.0,2571.0,381.0,374.0,-270.0,-286.0
2524,384,-72,0,2505.0,2521.0,390.0,381.0,-189.0,-270.0
2568,360,63,0,2524.0,2505.0,384.0,390.0,-72.0,-189.0
2633,313,196,0,2568.0,2524.0,360.0,384.0,63.0,-72.0
2714,262,306,0,2633.0,2568.0,313.0,360.0,196.0,63.0
2816,203,381,0,2714.0,2633.0,262.0,313.0,306.0,196.0
2948,130,417,0,2816.0,2714.0,203.0,262.0,381.0,306.0
3098,70,428,0,2948.0,2816.0,130.0,203.0,417.0,381.0
3264,34,437,0,3098.0,2948.0,70.0,130.0,428.0,417.0
3433,24,424,0,3264.0,3098.0,34.0,70.0,437.0,428.0
3583,50,389,0,3433.0,3264.0,24.0,34.0,424.0,437.0
3714,91,341,0,3583.0,3433.0,50.0,24.0,389.0,424.0
3838,126,281,0,3714.0,3583.0,91.0,50.0,341.0,389.0
3936,148,216,0,3838.0,3714.0,126.0,91.0,281.0,341.0
4016,139,156,0,3936.0,3838.0,148.0,126.0,216.0,281.0
4073,108,117,0,4016.0,3936.0,139.0,148.0,156.0,216.0
4121,56,95,0,4073.0,4016.0,108.0,139.0,117.0,156.0
4153,-3,84,0,4121.0,4073.0,56.0,108.0,95.0,117.0
4159,-76,85,0,4153.0,4121.0,-3.0,56.0,84.0,95.0
4133,-144,98,0,4159.0,4153.0,-76.0,-3.0,85.0,84.0
4085,-194,122,0,4133.0,4159.0,-144.0,-76.0,98.0,85.0
4011,-212,159,0,4085.0,4133.0,-194.0,-144.0,122.0,98.0
3929,-213,223,0,4011.0,4085.0,-212.0,-194.0,159.0,122.0
3853,-217,294,0,3929.0,4011.0,-213.0,-212.0,223.0,159.0
3791,-245,381,0,3853.0,3929.0,-217.0,-213.0,294.0,223.0
3753,-282,473,0,3791.0,3853.0,-245.0,-217.0,381.0,294.0
3740,-336,565,0,3753.0,3791.0,-282.0,-245.0,473.0,381.0
3752,-400,641,0,3740.0,3753.0,-336.0,-282.0,565.0,473.0
3800,-480,686,0,3752.0,3740.0,-400.0,-336.0,641.0,565.0
3876,-571,688,0,3800.0,3752.0,-480.0,-400.0,686.0,641.0
3993,-663,662,0,3876.0,3800.0,-571.0,-480.0,688.0,686.0
4168,-756,652,0,3993.0,3876.0,-663.0,-571.0,662.0,688.0
4394,-830,653,0,4168.0,3993.0,-756.0,-663.0,652.0,662.0
4636,-882,649,0,4394.0,4168.0,-830.0,-756.0,653.0,652.0
4871,-917,635,0,4636.0,4394.0,-882.0,-830.0,649.0,653.0
5101,-939,645,0,4871.0,4636.0,-917.0,-882.0,635.0,649.0
5323,-939,688,0,5101.0,4871.0,-939.0,-917.0,645.0,635.0
5520,-916,740,0,5323.0,5101.0,-939.0,-939.0,688.0,645.0
5689,-874,778,0,5520.0,5323.0,-916.0,-939.0,740.0,688.0
5847,-819,830,0,5689.0,5520.0,-874.0,-916.0,778.0,740.0
5987,-763,889,0,5847.0,5689.0,-819.0,-874.0,830.0,778.0
6101,-716,941,0,5987.0,5847.0,-763.0,-819.0,889.0,830.0
6220,-689,1004,0,6101.0,5987.0,-716.0,-763.0,941.0,889.0
6352,-683,1108,0,6220.0,6101.0,-689.0,-716.0,1004.0,941.0
6506,-692,1273,0,6352.0,6220.0,-683.0,-689.0,1108.0,1004.0
6694,-715,1469,0,6506.0,6352.0,-692.0,-683.0,1273.0,1108.0
6929,-758,1681,0,6694.0,6506.0,-715.0,-692.0,1469.0,1273.0
7235,-824,1918,0,6929.0,6694.0,-758.0,-715.0,1681.0,1469.0
7637,-911,2191,0,7235.0,6929.0,-824.0,-758.0,1918.0,1681.0
8158,-1021,2510,0,7637.0,7235.0,-911.0,-824.0,2191.0,1918.0
8821,-1142,2832,0,8158.0,7637.0,-1021.0,-911.0,2510.0,2191.0
9607,-1266,3133,0,8821.0,8158.0,-1142.0,-1021.0,2832.0,2510.0
10490,-1429,3382,0,9607.0,8821.0,-1266.0,-1142.0,3133.0,2832.0
11354,-1638,3463,0,10490.0,9607.0,-1429.0,-1266.0,3382.0,3133.0
12070,-1926,3269,0,11354.0,10490.0,-1638.0,-1429.0,3463.0,3382.0
12662,-2311,2844,0,12070.0,11354.0,-1926.0,-1638.0,3269.0,3463.0
13128,-2758,2275,0,12662.0,12070.0,-2311.0,-1926.0,2844.0,3269.0
13423,-3134,1607,0,13128.0,12662.0,-2758.0,-2311.0,2275.0,2844.0
13560,-3393,935,0,13423.0,13128.0,-3134.0,-2758.0,1607.0,2275.0
13665,-3543,518,0,13560.0,13423.0,-3393.0,-3134.0,935.0,1607.0
13856,-3537,503,0,13665.0,13560.0,-3543.0,-3393.0,518.0,935.0
14026,-3426,575,0,13856.0,13665.0,-3537.0,-3543.0,503.0,518.0
14046,-3370,397,0,14026.0,13856.0,-3426.0,-3537.0,575.0,503.0
13961,-3445,112,0,14046.0,14026.0,-3370.0,-3426.0,397.0,575.0
13847,-3539,-78,0,13961.0,14046.0,-3445.0,-3370.0,112.0,397.0
13707,-3559,-179,0,13847.0,13961.0,-3539.0,-3445.0,-78.0,112.0
13508,-3474,-264,0,13707.0,13847.0,-3559.0,-3539.0,-179.0,-78.0
13206,-3204,-311,0,13508.0,13707.0,-3474.0,-3559.0,-264.0,-179.0
12774,-2724,-324,0,13206.0,13508.0,-3204.0,-3474.0,-311.0,-264.0
12235,-2048,-325,0,12774.0,13206.0,-2724.0,-3204.0,-324.0,-311.0
11635,-1257,-330,0,12235.0,12774.0,-2048.0,-2724.0,-325.0,-324.0
