accelerometer_x,accelerometer_y,accelerometer_z,fall,x_lag_1,x_lag_2,y_lag_1,y_lag_2,z_lag_1,z_lag_2
4017,431,637,0,,,,,,
4023,434,641,0,4017.0,,431.0,,637.0,
4022,435,644,0,4023.0,4017.0,434.0,431.0,641.0,637.0
4020,433,646,0,4022.0,4023.0,435.0,434.0,644.0,641.0
4017,428,648,0,4020.0,4022.0,433.0,435.0,646.0,644.0
4015,423,650,0,4017.0,4020.0,428.0,433.0,648.0,646.0
4012,419,654,0,4015.0,4017.0,423.0,428.0,650.0,648.0
4008,414,657,0,4012.0,4015.0,419.0,423.0,654.0,650.0
4005,408,662,0,4008.0,4012.0,414.0,419.0,657.0,654.0
4004,402,665,0,4005.0,4008.0,408.0,414.0,662.0,657.0
4004,399,668,0,4004.0,4005.0,402.0,408.0,665.0,662.0
4003,395,673,0,4004.0,4004.0,399.0,402.0,668.0,665.0
4001,392,672,0,4003.0,4004.0,395.0,399.0,673.0,668.0
3998,390,669,0,4001.0,4003.0,392.0,395.0,672.0,673.0
3998,396,666,0,3998.0,4001.0,390.0,392.0,669.0,672.0
3999,400,663,0,3998.0,3998.0,396.0,390.0,666.0,669.0
4001,399,664,0,3999.0,3998.0,400.0,396.0,663.0,666.0
4003,404,665,0,4001.0,3999.0,399.0,400.0,664.0,663.0
4006,411,665,0,4003.0,4001.0,404.0,399.0,665.0,664.0
4005,410,664,0,4006.0,4003.0,411.0,404.0,665.0,665.0
4002,418,660,0,4005.0,4006.0,410.0,411.0,664.0,665.0
4003,422,665,0,4002.0,4005.0,418.0,410.0,660.0,664.0
4004,429,668,0,4003.0,4002.0,422.0,418.0,665.0,660.0
4005,430,671,0,4004.0,4003.0,429.0,422.0,668.0,665.0
4002,435,671,0,4005.0,4004.0,430.0,429.0,671.0,668.0
4005,433,675,0,4002.0,4005.0,435.0,430.0,671.0,671.0
4006,433,679,0,4005.0,4002.0,433.0,435.0,675.0,671.0
4008,436,677,0,4006.0,4005.0,433.0,433.0,679.0,675.0
4009,436,679,0,4008.0,4006.0,436.0,433.0,677.0,679.0
4009,435,685,0,4009.0,4008.0,436.0,436.0,679.0,677.0
4014,434,694,0,4009.0,4009.0,435.0,436.0,685.0,679.0
4018,435,694,0,4014.0,4009.0,434.0,435.0,694.0,685.0
4026,436,696,0,4018.0,4014.0,435.0,434.0,694.0,694.0
4032,435,693,0,4026.0,4018.0,436.0,435.0,696.0,694.0
4036,434,689,0,4032.0,4026.0,435.0,436.0,693.0,696.0
4040,435,685,0,4036.0,4032.0,434.0,435.0,689.0,693.0
4040,431,680,0,4040.0,4036.0,435.0,434.0,685.0,689.0
4041,434,683,0,4040.0,4040.0,431.0,435.0,680.0,685.0
4039,432,683,0,4041.0,4040.0,434.0,431.0,683.0,680.0
4033,430,684,0,4039.0,4041.0,432.0,434.0,683.0,683.0
4025,427,681,0,4033.0,4039.0,430.0,432.0,684.0,683.0
4014,424,683,0,4025.0,4033.0,427.0,430.0,681.0,684.0
4004,419,683,0,4014.0,4025.0,424.0,427.0,683.0,681.0
3997,416,685,0,4004.0,4014.0,419.0,424.0,683.0,683.0
3997,409,684,0,3997.0,4004.0,416.0,419.0,685.0,683.0
4000,403,686,0,3997.0,3997.0,409.0,416.0,684.0,685.0
4003,395,689,0,4000.0,3997.0,403.0,409.0,686.0,684.0
4006,387,690,0,4003.0,4000.0,395.0,403.0,689.0,686.0
4008,384,692,0,4006.0,4003.0,387.0,395.0,690.0,689.0
4007,375,693,0,4008.0,4006.0,384.0,387.0,692.0,690.0
4000,378,697,0,4007.0,4008.0,375.0,384.0,693.0,692.0
4001,380,699,0,4000.0,4007.0,378.0,375.0,697.0,693.0
3999,385,701,0,4001.0,4000.0,380.0,378.0,699.0,697.0
3999,390,700,0,3999.0,4001.0,385.0,380.0,701.0,699.0
3995,389,698,0,3999.0,3999.0,390.0,385.0,700.0,701.0
3991,391,695,0,3995.0,3999.0,389.0,390.0,698.0,700.0
3989,391,691,0,3991.0,3995.0,391.0,389.0,695.0,698.0
3988,394,691,0,3989.0,3991.0,391.0,391.0,691.0,695.0
3990,399,689,0,3988.0,3989.0,394.0,391.0,691.0,691.0
3985,402,689,0,3990.0,3988.0,399.0,394.0,689.0,691.0
3984,402,690,0,3985.0,3990.0,402.0,399.0,689.0,689.0
3989,402,692,0,3984.0,3985.0,402.0,402.0,690.0,689.0
3993,402,691,0,3989.0,3984.0,402.0,402.0,692.0,690.0
3994,398,692,0,3993.0,3989.0,402.0,402.0,691.0,692.0
3999,393,695,0,3994.0,3993.0,398.0,402.0,692.0,691.0
4005,387,696,0,3999.0,3994.0,393.0,398.0,695.0,692.0
4008,386,693,0,4005.0,3999.0,387.0,393.0,696.0,695.0
4013,381,691,0,4008.0,4005.0,386.0,387.0,693.0,696.0
4019,376,690,0,4013.0,4008.0,381.0,386.0,691.0,693.0
4017,371,691,0,4019.0,4013.0,376.0,381.0,690.0,691.0
4012,369,689,0,4017.0,4019.0,371.0,376.0,691.0,690.0
4010,365,690,0,4012.0,4017.0,369.0,371.0,689.0,691.0
4005,366,692,0,4010.0,4012.0,365.0,369.0,690.0,689.0
3998,370,695,0,4005.0,4010.0,366.0,365.0,692.0,690.0
3994,374,696,0,3998.0,4005.0,370.0,366.0,695.0,692.0
3991,377,695,0,3994.0,3998.0,374.0,370.0,696.0,695.0
3990,381,697,0,3991.0,3994.0,377.0,374.0,695.0,696.0
3992,386,700,0,3990.0,3991.0,381.0,377.0,697.0,695.0
3995,392,700,0,3992.0,3990.0,386.0,381.0,700.0,697.0
3998,395,696,0,3995.0,3992.0,392.0,386.0,700.0,700.0
4000,403,696,0,3998.0,3995.0,395.0,392.0,696.0,700.0
3997,407,695,0,4000.0,3998.0,403.0,395.0,696.0,696.0
3998,410,691,0,3997.0,4000.0,407.0,403.0,695.0,696.0
3998,413,692,0,3998.0,3997.0,410.0,407.0,691.0,695.0
3994,415,696,0,3998.0,3998.0,413.0,410.0,692.0,691.0
3990,415,695,0,3994.0,3998.0,415.0,413.0,696.0,692.0
3990,413,693,0,3990.0,3994.0,415.0,415.0,695.0,696.0
3995,410,693,0,3990.0,3990.0,413.0,415.0,693.0,695.0
3996,406,696,0,3995.0,3990.0,410.0,413.0,693.0,693.0
4000,404,697,0,3996.0,3995.0,406.0,410.0,696.0,693.0
4002,403,697,0,4000.0,3996.0,404.0,406.0,697.0,696.0
4005,400,696,0,4002.0,4000.0,403.0,404.0,697.0,697.0
4010,398,694,0,4005.0,4002.0,400.0,403.0,696.0,697.0
4008,396,695,0,4010.0,4005.0,398.0,400.0,694.0,696.0
4011,395,696,0,4008.0,4010.0,396.0,398.0,695.0,694.0
4010,392,694,0,4011.0,4008.0,395.0,396.0,696.0,695.0
4004,393,697,0,4010.0,4011.0,392.0,395.0,694.0,696.0
4006,388,696,0,4004.0,4010.0,393.0,392.0,697.0,694.0
4001,384,693,0,4006.0,4004.0,388.0,393.0,696.0,697.0
3998,380,692,0,4001.0,4006.0,384.0,388.0,693.0,696.0
3996,375,692,0,3998.0,4001.0,380.0,384.0,692.0,693.0
3995,372,697,0,3996.0,3998.0,375.0,380.0,692.0,692.0
3999,366,696,0,3995.0,3996.0,372.0,375.0,697.0,692.0
3999,361,700,0,3999.0,3995.0,366.0,372.0,696.0,697.0
3997,358,702,0,3999.0,3999.0,361.0,366.0,700.0,696.0
3998,351,702,0,3997.0,3999.0,358.0,361.0,702.0,700.0
4000,349,703,0,3998.0,3997.0,351.0,358.0,702.0,702.0
4000,345,709,0,4000.0,3998.0,349.0,351.0,703.0,702.0
4000,343,710,0,4000.0,4000.0,345.0,349.0,709.0,703.0
3998,341,708,0,4000.0,4000.0,343.0,345.0,710.0,709.0
3995,339,708,0,3998.0,4000.0,341.0,343.0,708.0,710.0
3991,337,708,0,3995.0,3998.0,339.0,341.0,708.0,708.0
3991,336,705,0,3991.0,3995.0,337.0,339.0,708.0,708.0
3988,340,706,0,3991.0,3991.0,336.0,337.0,705.0,708.0
3985,341,705,0,3988.0,3991.0,340.0,336.0,706.0,705.0
3987,339,705,0,3985.0,3988.0,341.0,340.0,705.0,706.0
3985,339,706,0,3987.0,3985.0,339.0,341.0,705.0,705.0
3986,337,706,0,3985.0,3987.0,339.0,339.0,706.0,705.0
3990,334,705,0,3986.0,3985.0,337.0,339.0,706.0,706.0
3996,338,706,0,3990.0,3986.0,334.0,337.0,705.0,706.0
3996,340,704,0,3996.0,3990.0,338.0,334.0,706.0,705.0
4000,336,704,0,3996.0,3996.0,340.0,338.0,704.0,706.0
3998,338,705,0,4000.0,3996.0,336.0,340.0,704.0,704.0
3999,336,707,0,3998.0,4000.0,338.0,336.0,705.0,704.0
4006,333,708,0,3999.0,3998.0,336.0,338.0,707.0,705.0
4008,336,710,0,4006.0,3999.0,333.0,336.0,708.0,707.0
4014,343,713,0,4008.0,4006.0,336.0,333.0,710.0,708.0
4019,349,713,0,4014.0,4008.0,343.0,336.0,713.0,710.0
4019,353,712,0,4019.0,4014.0,349.0,343.0,713.0,713.0
4018,358,711,0,4019.0,4019.0,353.0,349.0,712.0,713.0
4014,358,708,0,4018.0,4019.0,358.0,353.0,711.0,712.0
4018,361,710,0,4014.0,4018.0,358.0,358.0,708.0,711.0
4012,361,707,0,4018.0,4014.0,361.0,358.0,710.0,708.0
4010,361,706,0,4012.0,4018.0,361.0,361.0,707.0,710.0
4008,362,709,0,4010.0,4012.0,361.0,361.0,706.0,707.0
4008,365,705,0,4008.0,4010.0,362.0,361.0,709.0,706.0
4005,363,708,0,4008.0,4008.0,365.0,362.0,705.0,709.0
3998,361,708,0,4005.0,4008.0,363.0,365.0,708.0,705.0
3993,365,709,0,3998.0,4005.0,361.0,363.0,708.0,708.0
3990,366,709,0,3993.0,3998.0,365.0,361.0,709.0,708.0
3996,368,709,0,3990.0,3993.0,366.0,365.0,709.0,709.0
3996,367,710,0,3996.0,3990.0,368.0,366.0,709.0,709.0
3999,367,710,0,3996.0,3996.0,367.0,368.0,710.0,709.0
4002,369,708,0,3999.0,3996.0,367.0,367.0,710.0,710.0
4005,368,707,0,4002.0,3999.0,369.0,367.0,708.0,710.0
4000,370,711,0,4005.0,4002.0,368.0,369.0,707.0,708.0
3998,371,711,0,4000.0,4005.0,370.0,368.0,711.0,707.0
4000,375,713,0,3998.0,4000.0,371.0,370.0,711.0,711.0
3999,369,712,0,4000.0,3998.0,375.0,371.0,713.0,711.0
4000,366,712,0,3999.0,4000.0,369.0,375.0,712.0,713.0
3997,362,710,0,4000.0,3999.0,366.0,369.0,712.0,712.0
3996,359,713,0,3997.0,4000.0,362.0,366.0,710.0,712.0
3994,360,715,0,3996.0,3997.0,359.0,362.0,713.0,710.0
3995,358,716,0,3994.0,3996.0,360.0,359.0,715.0,713.0
3999,357,712,0,3995.0,3994.0,358.0,360.0,716.0,715.0
3998,354,709,0,3999.0,3995.0,357.0,358.0,712.0,716.0
3999,353,709,0,3998.0,3999.0,354.0,357.0,709.0,712.0
4000,351,709,0,3999.0,3998.0,353.0,354.0,709.0,709.0
4000,348,709,0,4000.0,3999.0,351.0,353.0,709.0,709.0
3996,344,712,0,4000.0,4000.0,348.0,351.0,709.0,709.0
4001,344,708,0,3996.0,4000.0,344.0,348.0,712.0,709.0
4005,344,704,0,4001.0,3996.0,344.0,344.0,708.0,712.0
4005,347,704,0,4005.0,4001.0,344.0,344.0,704.0,708.0
4008,349,706,0,4005.0,4005.0,347.0,344.0,704.0,704.0
4008,346,707,0,4008.0,4005.0,349.0,347.0,706.0,704.0
4003,347,709,0,4008.0,4008.0,346.0,349.0,707.0,706.0
4006,342,708,0,4003.0,4008.0,347.0,346.0,709.0,707.0
4007,341,707,0,4006.0,4003.0,342.0,347.0,708.0,709.0
4007,341,708,0,4007.0,4006.0,341.0,342.0,707.0,708.0
4006,344,707,0,4007.0,4007.0,341.0,341.0,708.0,707.0
4003,348,707,0,4006.0,4007.0,344.0,341.0,707.0,708.0
3998,348,706,0,4003.0,4006.0,348.0,344.0,707.0,707.0
4000,349,707,0,3998.0,4003.0,348.0,348.0,706.0,707.0
4001,352,706,0,4000.0,3998.0,349.0,348.0,707.0,706.0
4001,352,703,0,4001.0,4000.0,352.0,349.0,706.0,707.0
4002,350,703,0,4001.0,4001.0,352.0,352.0,703.0,706.0
4005,352,701,0,4002.0,4001.0,350.0,352.0,703.0,703.0
4007,355,700,0,4005.0,4002.0,352.0,350.0,701.0,703.0
4003,359,702,0,4007.0,4005.0,355.0,352.0,700.0,701.0
4007,365,703,0,4003.0,4007.0,359.0,355.0,702.0,700.0
4007,366,705,0,4007.0,4003.0,365.0,359.0,703.0,702.0
4005,369,702,0,4007.0,4007.0,366.0,365.0,705.0,703.0
4004,367,698,0,4005.0,4007.0,369.0,366.0,702.0,705.0
4005,369,695,0,4004.0,4005.0,367.0,369.0,698.0,702.0
4008,373,696,0,4005.0,4004.0,369.0,367.0,695.0,698.0
4006,375,696,0,4008.0,4005.0,373.0,369.0,696.0,695.0
4004,375,695,0,4006.0,4008.0,375.0,373.0,696.0,696.0
4006,374,696,0,4004.0,4006.0,375.0,375.0,695.0,696.0
4004,372,699,0,4006.0,4004.0,374.0,375.0,696.0,695.0
4005,374,705,0,4004.0,4006.0,372.0,374.0,699.0,696.0
4005,370,706,0,4005.0,4004.0,374.0,372.0,705.0,699.0
4006,369,705,0,4005.0,4005.0,370.0,374.0,706.0,705.0
4003,362,706,0,4006.0,4005.0,369.0,370.0,705.0,706.0
4004,360,704,0,4003.0,4006.0,362.0,369.0,706.0,705.0
4008,356,705,0,4004.0,4003.0,360.0,362.0,704.0,706.0
4006,352,703,0,4008.0,4004.0,356.0,360.0,705.0,704.0
4007,354,702,0,4006.0,4008.0,352.0,356.0,703.0,705.0
4005,356,699,0,4007.0,4006.0,354.0,352.0,702.0,703.0
4006,356,699,0,4005.0,4007.0,356.0,354.0,699.0,702.0
4007,359,699,0,4006.0,4005.0,356.0,356.0,699.0,699.0
4005,363,698,0,4007.0,4006.0,359.0,356.0,699.0,699.0
4008,366,696,0,4005.0,4007.0,363.0,359.0,698.0,699.0
4006,371,698,0,4008.0,4005.0,366.0,363.0,696.0,698.0
4004,373,692,0,4006.0,4008.0,371.0,366.0,698.0,696.0
4004,377,690,0,4004.0,4006.0,373.0,371.0,692.0,698.0
4002,379,691,0,4004.0,4004.0,377.0,373.0,690.0,692.0
4003,379,695,0,4002.0,4004.0,379.0,377.0,691.0,690.0
4005,377,695,0,4003.0,4002.0,379.0,379.0,695.0,691.0
4005,373,696,0,4005.0,4003.0,377.0,379.0,695.0,695.0
4006,375,692,0,4005.0,4005.0,373.0,377.0,696.0,695.0
4006,378,696,0,4006.0,4005.0,375.0,373.0,692.0,696.0
4011,379,696,0,4006.0,4006.0,378.0,375.0,696.0,692.0
4013,381,696,0,4011.0,4006.0,379.0,378.0,696.0,696.0
4013,378,692,0,4013.0,4011.0,381.0,379.0,696.0,696.0
4015,379,693,0,4013.0,4013.0,378.0,381.0,692.0,696.0
4017,381,693,0,4015.0,4013.0,379.0,378.0,693.0,692.0
4014,374,692,0,4017.0,4015.0,381.0,379.0,693.0,693.0
4012,374,692,0,4014.0,4017.0,374.0,381.0,692.0,693.0
4010,373,691,0,4012.0,4014.0,374.0,374.0,692.0,692.0
4008,370,692,0,4010.0,4012.0,373.0,374.0,691.0,692.0
4007,367,693,0,4008.0,4010.0,370.0,373.0,692.0,691.0
4005,367,691,0,4007.0,4008.0,367.0,370.0,693.0,692.0
4005,366,696,0,4005.0,4007.0,367.0,367.0,691.0,693.0
4005,366,694,0,4005.0,4005.0,366.0,367.0,696.0,691.0
4005,366,697,0,4005.0,4005.0,366.0,366.0,694.0,696.0
4006,366,700,0,4005.0,4005.0,366.0,366.0,697.0,694.0
4005,364,701,0,4006.0,4005.0,366.0,366.0,700.0,697.0
4005,367,700,0,4005.0,4006.0,364.0,366.0,701.0,700.0
4003,370,701,0,4005.0,4005.0,367.0,364.0,700.0,701.0
4000,368,700,0,4003.0,4005.0,370.0,367.0,701.0,700.0
4001,370,698,0,4000.0,4003.0,368.0,370.0,700.0,701.0
4001,371,698,0,4001.0,4000.0,370.0,368.0,698.0,700.0
4002,371,693,0,4001.0,4001.0,371.0,370.0,698.0,698.0
4001,372,693,0,4002.0,4001.0,371.0,371.0,693.0,698.0
4001,374,697,0,4001.0,4002.0,372.0,371.0,693.0,693.0
4003,376,694,0,4001.0,4001.0,374.0,372.0,697.0,693.0
4003,374,687,0,4003.0,4001.0,376.0,374.0,694.0,697.0
4004,375,685,0,4003.0,4003.0,374.0,376.0,687.0,694.0
4006,374,684,0,4004.0,4003.0,375.0,374.0,685.0,687.0
4008,378,683,0,4006.0,4004.0,374.0,375.0,684.0,685.0
4010,380,686,0,4008.0,4006.0,378.0,374.0,683.0,684.0
4013,384,684,0,4010.0,4008.0,380.0,378.0,686.0,683.0
4017,385,682,0,4013.0,4010.0,384.0,380.0,684.0,686.0
4017,385,682,0,4017.0,4013.0,385.0,384.0,682.0,684.0
4020,385,682,0,4017.0,4017.0,385.0,385.0,682.0,682.0
4015,385,684,0,4020.0,4017.0,385.0,385.0,682.0,682.0
4014,386,685,0,4015.0,4020.0,385.0,385.0,684.0,682.0
4012,387,686,0,4014.0,4015.0,386.0,385.0,685.0,684.0
4010,387,687,0,4012.0,4014.0,387.0,386.0,686.0,685.0
4009,386,689,0,4010.0,4012.0,387.0,387.0,687.0,686.0
4010,386,690,0,4009.0,4010.0,386.0,387.0,689.0,687.0
4005,387,692,0,4010.0,4009.0,386.0,386.0,690.0,689.0
4005,388,690,0,4005.0,4010.0,387.0,386.0,692.0,690.0
4006,385,691,0,4005.0,4005.0,388.0,387.0,690.0,692.0
4007,383,691,0,4006.0,4005.0,385.0,388.0,691.0,690.0
4008,383,692,0,4007.0,4006.0,383.0,385.0,691.0,691.0
4008,381,694,0,4008.0,4007.0,383.0,383.0,692.0,691.0
4008,381,696,0,4008.0,4008.0,381.0,383.0,694.0,692.0
4009,384,692,0,4008.0,4008.0,381.0,381.0,696.0,694.0
4009,379,696,0,4009.0,4008.0,384.0,381.0,692.0,696.0
4007,377,694,0,4009.0,4009.0,379.0,384.0,696.0,692.0
4005,373,690,0,4007.0,4009.0,377.0,379.0,694.0,696.0
4009,372,689,0,4005.0,4007.0,373.0,377.0,690.0,694.0
4009,372,691,0,4009.0,4005.0,372.0,373.0,689.0,690.0
4010,367,691,0,4009.0,4009.0,372.0,372.0,691.0,689.0
4009,368,689,0,4010.0,4009.0,367.0,372.0,691.0,691.0
4011,367,691,0,4009.0,4010.0,368.0,367.0,689.0,691.0
4013,366,689,0,4011.0,4009.0,367.0,368.0,691.0,689.0
4012,366,685,0,4013.0,4011.0,366.0,367.0,689.0,691.0
4009,367,684,0,4012.0,4013.0,366.0,366.0,685.0,689.0
4008,369,687,0,4009.0,4012.0,367.0,366.0,684.0,685.0
4008,368,687,0,4008.0,4009.0,369.0,367.0,687.0,684.0
4008,370,687,0,4008.0,4008.0,368.0,369.0,687.0,687.0
4012,369,688,0,4008.0,4008.0,370.0,368.0,687.0,687.0
4014,372,686,0,4012.0,4008.0,369.0,370.0,688.0,687.0
4013,373,685,0,4014.0,4012.0,372.0,369.0,686.0,688.0
4012,381,685,0,4013.0,4014.0,373.0,372.0,685.0,686.0
4010,382,683,0,4012.0,4013.0,381.0,373.0,685.0,685.0
4007,380,688,0,4010.0,4012.0,382.0,381.0,683.0,685.0
4006,383,685,0,4007.0,4010.0,380.0,382.0,688.0,683.0
4002,381,688,0,4006.0,4007.0,383.0,380.0,685.0,688.0
4005,375,687,0,4002.0,4006.0,381.0,383.0,688.0,685.0
4006,376,688,0,4005.0,4002.0,375.0,381.0,687.0,688.0
4009,373,687,0,4006.0,4005.0,376.0,375.0,688.0,687.0
4007,375,685,0,4009.0,4006.0,373.0,376.0,687.0,688.0
3999,379,689,0,4007.0,4009.0,375.0,373.0,685.0,687.0
4001,380,689,0,3999.0,4007.0,379.0,375.0,689.0,685.0
4000,376,687,0,4001.0,3999.0,380.0,379.0,689.0,689.0
4002,377,687,0,4000.0,4001.0,376.0,380.0,687.0,689.0
4003,373,691,0,4002.0,4000.0,377.0,376.0,687.0,687.0
4004,375,688,0,4003.0,4002.0,373.0,377.0,691.0,687.0
4007,373,688,0,4004.0,4003.0,375.0,373.0,688.0,691.0
4008,371,688,0,4007.0,4004.0,373.0,375.0,688.0,688.0
4011,371,687,0,4008.0,4007.0,371.0,373.0,688.0,688.0
4013,366,692,0,4011.0,4008.0,371.0,371.0,687.0,688.0
4014,361,691,0,4013.0,4011.0,366.0,371.0,692.0,687.0
4016,357,691,0,4014.0,4013.0,361.0,366.0,691.0,692.0
4016,355,694,0,4016.0,4014.0,357.0,361.0,691.0,691.0
4016,347,693,0,4016.0,4016.0,355.0,357.0,694.0,691.0
4015,339,695,0,4016.0,4016.0,347.0,355.0,693.0,694.0
4010,333,698,0,4015.0,4016.0,339.0,347.0,695.0,693.0
4012,330,704,0,4010.0,4015.0,333.0,339.0,698.0,695.0
4010,326,702,0,4012.0,4010.0,330.0,333.0,704.0,698.0
4011,326,699,0,4010.0,4012.0,326.0,330.0,702.0,704.0
4008,327,700,0,4011.0,4010.0,326.0,326.0,699.0,702.0
4007,327,699,0,4008.0,4011.0,327.0,326.0,700.0,699.0
4010,326,699,0,4007.0,4008.0,327.0,327.0,699.0,700.0
4011,325,695,0,4010.0,4007.0,326.0,327.0,699.0,699.0
4012,332,693,0,4011.0,4010.0,325.0,326.0,695.0,699.0
4010,333,693,0,4012.0,4011.0,332.0,325.0,693.0,695.0
4008,337,693,0,4010.0,4012.0,333.0,332.0,693.0,693.0
4008,340,696,0,4008.0,4010.0,337.0,333.0,693.0,693.0
4009,342,699,0,4008.0,4008.0,340.0,337.0,696.0,693.0
4008,342,701,0,4009.0,4008.0,342.0,340.0,699.0,696.0
4007,340,698,0,4008.0,4009.0,342.0,342.0,701.0,699.0
4008,340,701,0,4007.0,4008.0,340.0,342.0,698.0,701.0
4008,342,700,0,4008.0,4007.0,340.0,340.0,701.0,698.0
4006,341,701,0,4008.0,4008.0,342.0,340.0,700.0,701.0
4007,339,701,0,4006.0,4008.0,341.0,342.0,701.0,700.0
4007,343,702,0,4007.0,4006.0,339.0,341.0,701.0,701.0
4009,344,700,0,4007.0,4007.0,343.0,339.0,702.0,701.0
4013,340,702,0,4009.0,4007.0,344.0,343.0,700.0,702.0
4017,341,699,0,4013.0,4009.0,340.0,344.0,702.0,700.0
4021,339,703,0,4017.0,4013.0,341.0,340.0,699.0,702.0
4020,338,702,0,4021.0,4017.0,339.0,341.0,703.0,699.0
4015,337,697,0,4020.0,4021.0,338.0,339.0,702.0,703.0
4016,342,696,0,4015.0,4020.0,337.0,338.0,697.0,702.0
4012,344,701,0,4016.0,4015.0,342.0,337.0,696.0,697.0
4014,344,702,0,4012.0,4016.0,344.0,342.0,701.0,696.0
4012,348,698,0,4014.0,4012.0,344.0,344.0,702.0,701.0
4012,346,698,0,4012.0,4014.0,348.0,344.0,698.0,702.0
4009,348,699,0,4012.0,4012.0,346.0,348.0,698.0,698.0
4008,350,696,0,4009.0,4012.0,348.0,346.0,699.0,698.0
4007,350,694,0,4008.0,4009.0,350.0,348.0,696.0,699.0
4007,351,697,0,4007.0,4008.0,350.0,350.0,694.0,696.0
4009,349,696,0,4007.0,4007.0,351.0,350.0,697.0,694.0
4012,350,693,0,4009.0,4007.0,349.0,351.0,696.0,697.0
4012,347,694,0,4012.0,4009.0,350.0,349.0,693.0,696.0
4012,341,690,0,4012.0,4012.0,347.0,350.0,694.0,693.0
4010,339,691,0,4012.0,4012.0,341.0,347.0,690.0,694.0
4008,341,691,0,4010.0,4012.0,339.0,341.0,691.0,690.0
4010,343,695,0,4008.0,4010.0,341.0,339.0,691.0,691.0
4008,344,694,0,4010.0,4008.0,343.0,341.0,695.0,691.0
4011,349,691,0,4008.0,4010.0,344.0,343.0,694.0,695.0
4010,348,690,0,4011.0,4008.0,349.0,344.0,691.0,694.0
4011,349,686,0,4010.0,4011.0,348.0,349.0,690.0,691.0
4013,348,687,0,4011.0,4010.0,349.0,348.0,686.0,690.0
4016,347,689,0,4013.0,4011.0,348.0,349.0,687.0,686.0
4014,346,688,0,4016.0,4013.0,347.0,348.0,689.0,687.0
4013,344,686,0,4014.0,4016.0,346.0,347.0,688.0,689.0
4011,343,686,0,4013.0,4014.0,344.0,346.0,686.0,688.0
4011,341,687,0,4011.0,4013.0,343.0,344.0,686.0,686.0
4008,336,688,0,4011.0,4011.0,341.0,343.0,687.0,686.0
4009,334,689,0,4008.0,4011.0,336.0,341.0,688.0,687.0
4007,328,685,0,4009.0,4008.0,334.0,336.0,689.0,688.0
4008,320,683,0,4007.0,4009.0,328.0,334.0,685.0,689.0
4008,322,686,0,4008.0,4007.0,320.0,328.0,683.0,685.0
4006,321,689,0,4008.0,4008.0,322.0,320.0,686.0,683.0
4006,321,688,0,4006.0,4008.0,321.0,322.0,689.0,686.0
4011,323,691,0,4006.0,4006.0,321.0,321.0,688.0,689.0
4012,321,690,0,4011.0,4006.0,323.0,321.0,691.0,688.0
4016,322,687,0,4012.0,4011.0,321.0,323.0,690.0,691.0
4014,320,687,0,4016.0,4012.0,322.0,321.0,687.0,690.0
4015,326,687,0,4014.0,4016.0,320.0,322.0,687.0,687.0
4014,328,689,0,4015.0,4014.0,326.0,320.0,687.0,687.0
4011,331,687,0,4014.0,4015.0,328.0,326.0,689.0,687.0
4010,331,688,0,4011.0,4014.0,331.0,328.0,687.0,689.0
4005,334,688,0,4010.0,4011.0,331.0,331.0,688.0,687.0
4004,332,688,0,4005.0,4010.0,334.0,331.0,688.0,688.0
3999,333,691,0,4004.0,4005.0,332.0,334.0,688.0,688.0
3996,335,697,0,3999.0,4004.0,333.0,332.0,691.0,688.0
3996,329,703,0,3996.0,3999.0,335.0,333.0,697.0,691.0
3998,327,703,0,3996.0,3996.0,329.0,335.0,703.0,697.0
4000,325,701,0,3998.0,3996.0,327.0,329.0,703.0,703.0
4006,327,697,0,4000.0,3998.0,325.0,327.0,701.0,703.0
4011,329,695,0,4006.0,4000.0,327.0,325.0,697.0,701.0
4016,331,687,0,4011.0,4006.0,329.0,327.0,695.0,697.0
4013,336,687,0,4016.0,4011.0,331.0,329.0,687.0,695.0
4011,335,690,0,4013.0,4016.0,336.0,331.0,687.0,687.0
4006,336,701,0,4011.0,4013.0,335.0,336.0,690.0,687.0
4004,338,704,0,4006.0,4011.0,336.0,335.0,701.0,690.0
4000,342,701,0,4004.0,4006.0,338.0,336.0,704.0,701.0
4006,342,695,0,4000.0,4004.0,342.0,338.0,701.0,704.0
4009,346,688,0,4006.0,4000.0,342.0,342.0,695.0,701.0
4019,351,676,0,4009.0,4006.0,346.0,342.0,688.0,695.0
4025,354,666,0,4019.0,4009.0,351.0,346.0,676.0,688.0
4032,360,669,0,4025.0,4019.0,354.0,351.0,666.0,676.0
4028,364,672,0,4032.0,4025.0,360.0,354.0,669.0,666.0
4026,368,672,0,4028.0,4032.0,364.0,360.0,672.0,669.0
4023,366,673,0,4026.0,4028.0,368.0,364.0,672.0,672.0
4017,369,676,0,4023.0,4026.0,366.0,368.0,673.0,672.0
4014,373,676,0,4017.0,4023.0,369.0,366.0,676.0,673.0
4012,368,679,0,4014.0,4017.0,373.0,369.0,676.0,676.0
4013,365,681,0,4012.0,4014.0,368.0,373.0,679.0,676.0
4014,362,682,0,4013.0,4012.0,365.0,368.0,681.0,679.0
4015,359,682,0,4014.0,4013.0,362.0,365.0,682.0,681.0
4016,357,681,0,4015.0,4014.0,359.0,362.0,682.0,682.0
4011,358,678,0,4016.0,4015.0,357.0,359.0,681.0,682.0
4011,352,679,0,4011.0,4016.0,358.0,357.0,678.0,681.0
4009,350,677,0,4011.0,4011.0,352.0,358.0,679.0,678.0
4009,349,681,0,4009.0,4011.0,350.0,352.0,677.0,679.0
4006,345,686,0,4009.0,4009.0,349.0,350.0,681.0,677.0
4005,342,689,0,4006.0,4009.0,345.0,349.0,686.0,681.0
4006,340,693,0,4005.0,4006.0,342.0,345.0,689.0,686.0
4005,336,694,0,4006.0,4005.0,340.0,342.0,693.0,689.0
4006,333,694,0,4005.0,4006.0,336.0,340.0,694.0,693.0
4003,333,691,0,4006.0,4005.0,333.0,336.0,694.0,694.0
4007,337,690,0,4003.0,4006.0,333.0,333.0,691.0,694.0
4007,337,687,0,4007.0,4003.0,337.0,333.0,690.0,691.0
4005,340,685,0,4007.0,4007.0,337.0,337.0,687.0,690.0
4006,338,687,0,4005.0,4007.0,340.0,337.0,685.0,687.0
4005,341,689,0,4006.0,4005.0,338.0,340.0,687.0,685.0
4006,339,688,0,4005.0,4006.0,341.0,338.0,689.0,687.0
4006,339,686,0,4006.0,4005.0,339.0,341.0,688.0,689.0
4009,336,684,0,4006.0,4006.0,339.0,339.0,686.0,688.0
4011,336,683,0,4009.0,4006.0,336.0,339.0,684.0,686.0
4011,336,678,0,4011.0,4009.0,336.0,336.0,683.0,684.0
4017,337,679,0,4011.0,4011.0,336.0,336.0,678.0,683.0
4021,337,681,0,4017.0,4011.0,337.0,336.0,679.0,678.0
4023,331,681,0,4021.0,4017.0,337.0,337.0,681.0,679.0
4023,327,684,0,4023.0,4021.0,331.0,337.0,681.0,681.0
4022,328,684,0,4023.0,4023.0,327.0,331.0,684.0,681.0
4020,327,686,0,4022.0,4023.0,328.0,327.0,684.0,684.0
4018,325,687,0,4020.0,4022.0,327.0,328.0,686.0,684.0
4016,326,687,0,4018.0,4020.0,325.0,327.0,687.0,686.0
4015,329,691,0,4016.0,4018.0,326.0,325.0,687.0,687.0
4011,333,690,0,4015.0,4016.0,329.0,326.0,691.0,687.0
4012,335,687,0,4011.0,4015.0,333.0,329.0,690.0,691.0
4014,336,682,0,4012.0,4011.0,335.0,333.0,687.0,690.0
4015,339,682,0,4014.0,4012.0,336.0,335.0,682.0,687.0
4014,340,681,0,4015.0,4014.0,339.0,336.0,682.0,682.0
4010,340,685,0,4014.0,4015.0,340.0,339.0,681.0,682.0
4009,342,686,0,4010.0,4014.0,340.0,340.0,685.0,681.0
4008,343,687,0,4009.0,4010.0,342.0,340.0,686.0,685.0
4004,340,687,0,4008.0,4009.0,343.0,342.0,687.0,686.0
4006,336,691,0,4004.0,4008.0,340.0,343.0,687.0,687.0
4004,334,695,0,4006.0,4004.0,336.0,340.0,691.0,687.0
4004,331,698,0,4004.0,4006.0,334.0,336.0,695.0,691.0
3999,328,700,0,4004.0,4004.0,331.0,334.0,698.0,695.0
4001,326,702,0,3999.0,4004.0,328.0,331.0,700.0,698.0
4002,322,701,0,4001.0,3999.0,326.0,328.0,702.0,700.0
4005,323,701,0,4002.0,4001.0,322.0,326.0,701.0,702.0
4009,323,697,0,4005.0,4002.0,323.0,322.0,701.0,701.0
4011,323,700,0,4009.0,4005.0,323.0,323.0,697.0,701.0
4012,326,699,0,4011.0,4009.0,323.0,323.0,700.0,697.0
4010,327,697,0,4012.0,4011.0,326.0,323.0,699.0,700.0
4010,325,697,0,4010.0,4012.0,327.0,326.0,697.0,699.0
4011,325,692,0,4010.0,4010.0,325.0,327.0,697.0,697.0
4007,323,696,0,4011.0,4010.0,325.0,325.0,692.0,697.0
4010,324,696,0,4007.0,4011.0,323.0,325.0,696.0,692.0
4009,319,697,0,4010.0,4007.0,324.0,323.0,696.0,696.0
4009,313,700,0,4009.0,4010.0,319.0,324.0,697.0,696.0
4009,316,701,0,4009.0,4009.0,313.0,319.0,700.0,697.0
4003,318,706,0,4009.0,4009.0,316.0,313.0,701.0,700.0
4003,317,705,0,4003.0,4009.0,318.0,316.0,706.0,701.0
3998,319,707,0,4003.0,4003.0,317.0,318.0,705.0,706.0
3995,320,707,0,3998.0,4003.0,319.0,317.0,707.0,705.0
3998,318,707,0,3995.0,3998.0,320.0,319.0,707.0,707.0
3995,318,709,0,3998.0,3995.0,318.0,320.0,707.0,707.0
3995,321,708,0,3995.0,3998.0,318.0,318.0,709.0,707.0
3994,324,711,0,3995.0,3995.0,321.0,318.0,708.0,709.0
3993,323,710,0,3994.0,3995.0,324.0,321.0,711.0,708.0
3996,324,705,0,3993.0,3994.0,323.0,324.0,710.0,711.0
3998,326,706,0,3996.0,3993.0,324.0,323.0,705.0,710.0
3998,327,706,0,3998.0,3996.0,326.0,324.0,706.0,705.0
4000,330,704,0,3998.0,3998.0,327.0,326.0,706.0,706.0
4003,332,702,0,4000.0,3998.0,330.0,327.0,704.0,706.0
4005,333,700,0,4003.0,4000.0,332.0,330.0,702.0,704.0
4006,335,702,0,4005.0,4003.0,333.0,332.0,700.0,702.0
4005,341,703,0,4006.0,4005.0,335.0,333.0,702.0,700.0
4005,340,705,0,4005.0,4006.0,341.0,335.0,703.0,702.0
4007,339,703,0,4005.0,4005.0,340.0,341.0,705.0,703.0
4011,341,705,0,4007.0,4005.0,339.0,340.0,703.0,705.0
4011,343,700,0,4011.0,4007.0,341.0,339.0,705.0,703.0
4012,340,701,0,4011.0,4011.0,343.0,341.0,700.0,705.0
4018,338,702,0,4012.0,4011.0,340.0,343.0,701.0,700.0
4018,337,707,0,4018.0,4012.0,338.0,340.0,702.0,701.0
4019,341,704,0,4018.0,4018.0,337.0,338.0,707.0,702.0
4021,342,704,0,4019.0,4018.0,341.0,337.0,704.0,707.0
4022,338,704,0,4021.0,4019.0,342.0,341.0,704.0,704.0
4019,341,701,0,4022.0,4021.0,338.0,342.0,704.0,704.0
4019,343,702,0,4019.0,4022.0,341.0,338.0,701.0,704.0
4016,343,703,0,4019.0,4019.0,343.0,341.0,702.0,701.0
4015,345,704,0,4016.0,4019.0,343.0,343.0,703.0,702.0
4009,347,698,0,4015.0,4016.0,345.0,343.0,704.0,703.0
4006,348,699,0,4009.0,4015.0,347.0,345.0,698.0,704.0
4006,348,700,0,4006.0,4009.0,348.0,347.0,699.0,698.0
4001,347,699,0,4006.0,4006.0,348.0,348.0,700.0,699.0
4006,351,702,0,4001.0,4006.0,347.0,348.0,699.0,700.0
4007,352,703,0,4006.0,4001.0,351.0,347.0,702.0,699.0
4005,352,704,0,4007.0,4006.0,352.0,351.0,703.0,702.0
4002,352,705,0,4005.0,4007.0,352.0,352.0,704.0,703.0
3999,354,706,0,4002.0,4005.0,352.0,352.0,705.0,704.0
3995,359,710,0,3999.0,4002.0,354.0,352.0,706.0,705.0
3998,361,715,0,3995.0,3999.0,359.0,354.0,710.0,706.0
4004,364,715,0,3998.0,3995.0,361.0,359.0,715.0,710.0
4010,368,714,0,4004.0,3998.0,364.0,361.0,715.0,715.0
4010,372,710,0,4010.0,4004.0,368.0,364.0,714.0,715.0
4014,377,707,0,4010.0,4010.0,372.0,368.0,710.0,714.0
4014,383,706,0,4014.0,4010.0,377.0,372.0,707.0,710.0
4014,384,704,0,4014.0,4014.0,383.0,377.0,706.0,707.0
4013,383,703,0,4014.0,4014.0,384.0,383.0,704.0,706.0
4008,378,703,0,4013.0,4014.0,383.0,384.0,703.0,704.0
4008,379,703,0,4008.0,4013.0,378.0,383.0,703.0,703.0
4008,375,707,0,4008.0,4008.0,379.0,378.0,703.0,703.0
4005,371,709,0,4008.0,4008.0,375.0,379.0,707.0,703.0
4005,367,711,0,4005.0,4008.0,371.0,375.0,709.0,707.0
4003,366,712,0,4005.0,4005.0,367.0,371.0,711.0,709.0
4004,361,710,0,4003.0,4005.0,366.0,367.0,712.0,711.0
4005,362,712,0,4004.0,4003.0,361.0,366.0,710.0,712.0
4004,360,709,0,4005.0,4004.0,362.0,361.0,712.0,710.0
4007,360,711,0,4004.0,4005.0,360.0,362.0,709.0,712.0
4006,359,709,0,4007.0,4004.0,360.0,360.0,711.0,709.0
4007,363,710,0,4006.0,4007.0,359.0,360.0,709.0,711.0
4005,365,710,0,4007.0,4006.0,363.0,359.0,710.0,709.0
4002,366,711,0,4005.0,4007.0,365.0,363.0,710.0,710.0
4002,369,711,0,4002.0,4005.0,366.0,365.0,711.0,710.0
4004,369,707,0,4002.0,4002.0,369.0,366.0,711.0,711.0
4005,372,707,0,4004.0,4002.0,369.0,369.0,707.0,711.0
4001,372,707,0,4005.0,4004.0,372.0,369.0,707.0,707.0
4000,370,704,0,4001.0,4005.0,372.0,372.0,707.0,707.0
3996,368,706,0,4000.0,4001.0,370.0,372.0,704.0,707.0
3994,365,712,0,3996.0,4000.0,368.0,370.0,706.0,704.0
3996,360,711,0,3994.0,3996.0,365.0,368.0,712.0,706.0
3997,358,709,0,3996.0,3994.0,360.0,365.0,711.0,712.0
4000,353,707,0,3997.0,3996.0,358.0,360.0,709.0,711.0
4002,349,706,0,4000.0,3997.0,353.0,358.0,707.0,709.0
4006,341,707,0,4002.0,4000.0,349.0,353.0,706.0,707.0
4007,341,706,0,4006.0,4002.0,341.0,349.0,707.0,706.0
4011,334,706,0,4007.0,4006.0,341.0,341.0,706.0,707.0
4010,332,705,0,4011.0,4007.0,334.0,341.0,706.0,706.0
4011,332,706,0,4010.0,4011.0,332.0,334.0,705.0,706.0
4012,330,706,0,4011.0,4010.0,332.0,332.0,706.0,705.0
4008,327,704,0,4012.0,4011.0,330.0,332.0,706.0,706.0
4005,328,705,0,4008.0,4012.0,327.0,330.0,704.0,706.0
4004,329,707,0,4005.0,4008.0,328.0,327.0,705.0,704.0
4006,327,707,0,4004.0,4005.0,329.0,328.0,707.0,705.0
4007,329,707,0,4006.0,4004.0,327.0,329.0,707.0,707.0
4006,327,705,0,4007.0,4006.0,329.0,327.0,707.0,707.0
4004,331,707,0,4006.0,4007.0,327.0,329.0,705.0,707.0
4002,332,708,0,4004.0,4006.0,331.0,327.0,707.0,705.0
4002,333,713,0,4002.0,4004.0,332.0,331.0,708.0,707.0
4005,335,712,0,4002.0,4002.0,333.0,332.0,713.0,708.0
4007,332,711,0,4005.0,4002.0,335.0,333.0,712.0,713.0
4009,336,709,0,4007.0,4005.0,332.0,335.0,711.0,712.0
4011,337,710,0,4009.0,4007.0,336.0,332.0,709.0,711.0
4006,337,706,0,4011.0,4009.0,337.0,336.0,710.0,709.0
4008,336,702,0,4006.0,4011.0,337.0,337.0,706.0,710.0
4007,335,705,0,4008.0,4006.0,336.0,337.0,702.0,706.0
4008,331,704,0,4007.0,4008.0,335.0,336.0,705.0,702.0
4009,330,707,0,4008.0,4007.0,331.0,335.0,704.0,705.0
4009,329,704,0,4009.0,4008.0,330.0,331.0,707.0,704.0
4010,325,705,0,4009.0,4009.0,329.0,330.0,704.0,707.0
4009,326,703,0,4010.0,4009.0,325.0,329.0,705.0,704.0
4008,330,703,0,4009.0,4010.0,326.0,325.0,703.0,705.0
4006,328,702,0,4008.0,4009.0,330.0,326.0,703.0,703.0
4008,323,703,0,4006.0,4008.0,328.0,330.0,702.0,703.0
4003,323,705,0,4008.0,4006.0,323.0,328.0,703.0,702.0
4005,324,704,0,4003.0,4008.0,323.0,323.0,705.0,703.0
4004,324,704,0,4005.0,4003.0,324.0,323.0,704.0,705.0
4004,323,702,0,4004.0,4005.0,324.0,324.0,704.0,704.0
4003,322,699,0,4004.0,4004.0,323.0,324.0,702.0,704.0
4005,322,700,0,4003.0,4004.0,322.0,323.0,699.0,702.0
4005,325,700,0,4005.0,4003.0,322.0,322.0,700.0,699.0
4004,326,700,0,4005.0,4005.0,325.0,322.0,700.0,700.0
4003,326,700,0,4004.0,4005.0,326.0,325.0,700.0,700.0
4007,326,703,0,4003.0,4004.0,326.0,326.0,700.0,700.0
4007,325,704,0,4007.0,4003.0,326.0,326.0,703.0,700.0
4008,326,703,0,4007.0,4007.0,325.0,326.0,704.0,703.0
4009,327,706,0,4008.0,4007.0,326.0,325.0,703.0,704.0
4008,326,709,0,4009.0,4008.0,327.0,326.0,706.0,703.0
4006,327,708,0,4008.0,4009.0,326.0,327.0,709.0,706.0
4008,327,707,0,4006.0,4008.0,327.0,326.0,708.0,709.0
4011,327,702,0,4008.0,4006.0,327.0,327.0,707.0,708.0
4012,326,699,0,4011.0,4008.0,327.0,327.0,702.0,707.0
4007,325,697,0,4012.0,4011.0,326.0,327.0,699.0,702.0
4004,325,696,0,4007.0,4012.0,325.0,326.0,697.0,699.0
3999,327,700,0,4004.0,4007.0,325.0,325.0,696.0,697.0
4004,330,700,0,3999.0,4004.0,327.0,325.0,700.0,696.0
4007,329,700,0,4004.0,3999.0,330.0,327.0,700.0,700.0
4008,335,702,0,4007.0,4004.0,329.0,330.0,700.0,700.0
4011,336,701,0,4008.0,4007.0,335.0,329.0,702.0,700.0
4011,337,702,0,4011.0,4008.0,336.0,335.0,701.0,702.0
4012,338,704,0,4011.0,4011.0,337.0,336.0,702.0,701.0
4010,338,705,0,4012.0,4011.0,338.0,337.0,704.0,702.0
4010,341,700,0,4010.0,4012.0,338.0,338.0,705.0,704.0
4012,340,701,0,4010.0,4010.0,341.0,338.0,700.0,705.0
4012,339,704,0,4012.0,4010.0,340.0,341.0,701.0,700.0
4012,342,706,0,4012.0,4012.0,339.0,340.0,704.0,701.0
4009,340,706,0,4012.0,4012.0,342.0,339.0,706.0,704.0
4002,335,707,0,4009.0,4012.0,340.0,342.0,706.0,706.0
3997,336,705,0,4002.0,4009.0,335.0,340.0,707.0,706.0
4000,336,702,0,3997.0,4002.0,336.0,335.0,705.0,707.0
3996,336,702,0,4000.0,3997.0,336.0,336.0,702.0,705.0
4001,340,706,0,3996.0,4000.0,336.0,336.0,702.0,702.0
4005,345,700,0,4001.0,3996.0,340.0,336.0,706.0,702.0
4010,347,699,0,4005.0,4001.0,345.0,340.0,700.0,706.0
4012,345,700,0,4010.0,4005.0,347.0,345.0,699.0,700.0
4012,350,702,0,4012.0,4010.0,345.0,347.0,700.0,699.0
4011,351,701,0,4012.0,4012.0,350.0,345.0,702.0,700.0
4011,353,698,0,4011.0,4012.0,351.0,350.0,701.0,702.0
4011,351,701,0,4011.0,4011.0,353.0,351.0,698.0,701.0
4013,348,701,0,4011.0,4011.0,351.0,353.0,701.0,698.0
4012,341,705,0,4013.0,4011.0,348.0,351.0,701.0,701.0
4016,335,706,0,4012.0,4013.0,341.0,348.0,705.0,701.0
4012,329,704,0,4016.0,4012.0,335.0,341.0,706.0,705.0
4009,326,707,0,4012.0,4016.0,329.0,335.0,704.0,706.0
4006,324,712,0,4009.0,4012.0,326.0,329.0,707.0,704.0
4007,325,713,0,4006.0,4009.0,324.0,326.0,712.0,707.0
4005,324,713,0,4007.0,4006.0,325.0,324.0,713.0,712.0
4002,321,710,0,4005.0,4007.0,324.0,325.0,713.0,713.0
4003,317,709,0,4002.0,4005.0,321.0,324.0,710.0,713.0
4004,319,707,0,4003.0,4002.0,317.0,321.0,709.0,710.0
4007,324,708,0,4004.0,4003.0,319.0,317.0,707.0,709.0
4009,325,708,0,4007.0,4004.0,324.0,319.0,708.0,707.0
4006,324,709,0,4009.0,4007.0,325.0,324.0,708.0,708.0
4004,327,705,0,4006.0,4009.0,324.0,325.0,709.0,708.0
4007,324,704,0,4004.0,4006.0,327.0,324.0,705.0,709.0
4010,323,704,0,4007.0,4004.0,324.0,327.0,704.0,705.0
4013,323,703,0,4010.0,4007.0,323.0,324.0,704.0,704.0
4012,326,706,0,4013.0,4010.0,323.0,323.0,703.0,704.0
4013,324,709,0,4012.0,4013.0,326.0,323.0,706.0,703.0
4011,322,708,0,4013.0,4012.0,324.0,326.0,709.0,706.0
4010,324,709,0,4011.0,4013.0,322.0,324.0,708.0,709.0
4009,321,710,0,4010.0,4011.0,324.0,322.0,709.0,708.0
4007,318,710,0,4009.0,4010.0,321.0,324.0,710.0,709.0
4006,319,711,0,4007.0,4009.0,318.0,321.0,710.0,710.0
4004,321,711,0,4006.0,4007.0,319.0,318.0,711.0,710.0
4005,323,711,0,4004.0,4006.0,321.0,319.0,711.0,711.0
4005,325,713,0,4005.0,4004.0,323.0,321.0,711.0,711.0
4008,328,711,0,4005.0,4005.0,325.0,323.0,713.0,711.0
4006,332,709,0,4008.0,4005.0,328.0,325.0,711.0,713.0
4008,334,707,0,4006.0,4008.0,332.0,328.0,709.0,711.0
4008,334,708,0,4008.0,4006.0,334.0,332.0,707.0,709.0
4011,334,704,0,4008.0,4008.0,334.0,334.0,708.0,707.0
4013,334,704,0,4011.0,4008.0,334.0,334.0,704.0,708.0
4016,330,701,0,4013.0,4011.0,334.0,334.0,704.0,704.0
4016,331,702,0,4016.0,4013.0,330.0,334.0,701.0,704.0
4013,336,702,0,4016.0,4016.0,331.0,330.0,702.0,701.0
4014,334,703,0,4013.0,4016.0,336.0,331.0,702.0,702.0
4016,334,703,0,4014.0,4013.0,334.0,336.0,703.0,702.0
4016,330,708,0,4016.0,4014.0,334.0,334.0,703.0,703.0
4014,334,707,0,4016.0,4016.0,330.0,334.0,708.0,703.0
4013,331,708,0,4014.0,4016.0,334.0,330.0,707.0,708.0
4008,329,709,0,4013.0,4014.0,331.0,334.0,708.0,707.0
4006,332,708,0,4008.0,4013.0,329.0,331.0,709.0,708.0
4006,334,709,0,4006.0,4008.0,332.0,329.0,708.0,709.0
4006,337,712,0,4006.0,4006.0,334.0,332.0,709.0,708.0
4007,337,711,0,4006.0,4006.0,337.0,334.0,712.0,709.0
4005,337,712,0,4007.0,4006.0,337.0,337.0,711.0,712.0
4006,342,711,0,4005.0,4007.0,337.0,337.0,712.0,711.0
4005,339,708,0,4006.0,4005.0,342.0,337.0,711.0,712.0
4007,343,703,0,4005.0,4006.0,339.0,342.0,708.0,711.0
4010,343,698,0,4007.0,4005.0,343.0,339.0,703.0,708.0
4009,347,695,0,4010.0,4007.0,343.0,343.0,698.0,703.0
4010,351,693,0,4009.0,4010.0,347.0,343.0,695.0,698.0
4009,348,695,0,4010.0,4009.0,351.0,347.0,693.0,695.0
4005,349,694,0,4009.0,4010.0,348.0,351.0,695.0,693.0
4004,349,697,0,4005.0,4009.0,349.0,348.0,694.0,695.0
3997,343,702,0,4004.0,4005.0,349.0,349.0,697.0,694.0
3995,345,711,0,3997.0,4004.0,343.0,349.0,702.0,697.0
3995,339,713,0,3995.0,3997.0,345.0,343.0,711.0,702.0
3996,330,717,0,3995.0,3995.0,339.0,345.0,713.0,711.0
4000,323,717,0,3996.0,3995.0,330.0,339.0,717.0,713.0
4005,324,711,0,4000.0,3996.0,323.0,330.0,717.0,717.0
4006,327,705,0,4005.0,4000.0,324.0,323.0,711.0,717.0
4006,328,704,0,4006.0,4005.0,327.0,324.0,705.0,711.0
4005,328,710,0,4006.0,4006.0,328.0,327.0,704.0,705.0
4002,328,710,0,4005.0,4006.0,328.0,328.0,710.0,704.0
4005,325,704,0,4002.0,4005.0,328.0,328.0,710.0,710.0
4010,327,696,0,4005.0,4002.0,325.0,328.0,704.0,710.0
4018,331,686,0,4010.0,4005.0,327.0,325.0,696.0,704.0
4027,332,680,0,4018.0,4010.0,331.0,327.0,686.0,696.0
4029,339,677,0,4027.0,4018.0,332.0,331.0,680.0,686.0
4027,341,680,0,4029.0,4027.0,339.0,332.0,677.0,680.0
4022,337,685,0,4027.0,4029.0,341.0,339.0,680.0,677.0
4019,336,690,0,4022.0,4027.0,337.0,341.0,685.0,680.0
4014,336,691,0,4019.0,4022.0,336.0,337.0,690.0,685.0
4011,333,688,0,4014.0,4019.0,336.0,336.0,691.0,690.0
4014,333,686,0,4011.0,4014.0,333.0,336.0,688.0,691.0
4015,333,682,0,4014.0,4011.0,333.0,333.0,686.0,688.0
4017,332,685,0,4015.0,4014.0,333.0,333.0,682.0,686.0
4016,330,687,0,4017.0,4015.0,332.0,333.0,685.0,682.0
4013,329,693,0,4016.0,4017.0,330.0,332.0,687.0,685.0
4010,328,692,0,4013.0,4016.0,329.0,330.0,693.0,687.0
4003,326,696,0,4010.0,4013.0,328.0,329.0,692.0,693.0
4004,327,696,0,4003.0,4010.0,326.0,328.0,696.0,692.0
4002,326,696,0,4004.0,4003.0,327.0,326.0,696.0,696.0
4003,325,700,0,4002.0,4004.0,326.0,327.0,696.0,696.0
4006,322,703,0,4003.0,4002.0,325.0,326.0,700.0,696.0
4009,318,699,0,4006.0,4003.0,322.0,325.0,703.0,700.0
4013,317,699,0,4009.0,4006.0,318.0,322.0,699.0,703.0
4016,320,693,0,4013.0,4009.0,317.0,318.0,699.0,699.0
4018,322,689,0,4016.0,4013.0,320.0,317.0,693.0,699.0
4017,324,686,0,4018.0,4016.0,322.0,320.0,689.0,693.0
4019,323,687,0,4017.0,4018.0,324.0,322.0,686.0,689.0
4020,321,691,0,4019.0,4017.0,323.0,324.0,687.0,686.0
4019,321,689,0,4020.0,4019.0,321.0,323.0,691.0,687.0
4017,322,691,0,4019.0,4020.0,321.0,321.0,689.0,691.0
4014,321,693,0,4017.0,4019.0,322.0,321.0,691.0,689.0
4012,320,697,0,4014.0,4017.0,321.0,322.0,693.0,691.0
4010,318,695,0,4012.0,4014.0,320.0,321.0,697.0,693.0
4007,317,696,0,4010.0,4012.0,318.0,320.0,695.0,697.0
4005,319,695,0,4007.0,4010.0,317.0,318.0,696.0,695.0
4001,321,694,0,4005.0,4007.0,319.0,317.0,695.0,696.0
4005,322,691,0,4001.0,4005.0,321.0,319.0,694.0,695.0
4010,327,685,0,4005.0,4001.0,322.0,321.0,691.0,694.0
4010,329,678,0,4010.0,4005.0,327.0,322.0,685.0,691.0
4015,331,675,0,4010.0,4010.0,329.0,327.0,678.0,685.0
4018,327,675,0,4015.0,4010.0,331.0,329.0,675.0,678.0
4017,331,675,0,4018.0,4015.0,327.0,331.0,675.0,675.0
4015,332,677,0,4017.0,4018.0,331.0,327.0,675.0,675.0
4014,332,679,0,4015.0,4017.0,332.0,331.0,677.0,675.0
4011,332,679,0,4014.0,4015.0,332.0,332.0,679.0,677.0
4013,329,681,0,4011.0,4014.0,332.0,332.0,679.0,679.0
4015,326,685,0,4013.0,4011.0,329.0,332.0,681.0,679.0
4012,320,691,0,4015.0,4013.0,326.0,329.0,685.0,681.0
4014,311,693,0,4012.0,4015.0,320.0,326.0,691.0,685.0
4013,308,692,0,4014.0,4012.0,311.0,320.0,693.0,691.0
4019,306,697,0,4013.0,4014.0,308.0,311.0,692.0,693.0
4017,308,698,0,4019.0,4013.0,306.0,308.0,697.0,692.0
4015,303,697,0,4017.0,4019.0,308.0,306.0,698.0,697.0
4017,301,698,0,4015.0,4017.0,303.0,308.0,697.0,698.0
4015,299,698,0,4017.0,4015.0,301.0,303.0,698.0,697.0
4018,297,694,0,4015.0,4017.0,299.0,301.0,698.0,698.0
4016,295,692,0,4018.0,4015.0,297.0,299.0,694.0,698.0
4017,300,687,0,4016.0,4018.0,295.0,297.0,692.0,694.0
4017,302,687,0,4017.0,4016.0,300.0,295.0,687.0,692.0
4019,307,684,0,4017.0,4017.0,302.0,300.0,687.0,687.0
4015,306,683,0,4019.0,4017.0,307.0,302.0,684.0,687.0
4013,306,682,0,4015.0,4019.0,306.0,307.0,683.0,684.0
4009,313,681,0,4013.0,4015.0,306.0,306.0,682.0,683.0
4011,316,688,0,4009.0,4013.0,313.0,306.0,681.0,682.0
4006,315,692,0,4011.0,4009.0,316.0,313.0,688.0,681.0
3997,315,701,0,4006.0,4011.0,315.0,316.0,692.0,688.0
3994,312,706,0,3997.0,4006.0,315.0,315.0,701.0,692.0
3993,307,707,0,3994.0,3997.0,312.0,315.0,706.0,701.0
4001,307,706,0,3993.0,3994.0,307.0,312.0,707.0,706.0
4008,303,697,0,4001.0,3993.0,307.0,307.0,706.0,707.0
4016,305,690,0,4008.0,4001.0,303.0,307.0,697.0,706.0
4017,309,688,0,4016.0,4008.0,305.0,303.0,690.0,697.0
4022,311,688,0,4017.0,4016.0,309.0,305.0,688.0,690.0
4018,315,687,0,4022.0,4017.0,311.0,309.0,688.0,688.0
4014,311,686,0,4018.0,4022.0,315.0,311.0,687.0,688.0
4015,311,688,0,4014.0,4018.0,311.0,315.0,686.0,687.0
4010,311,694,0,4015.0,4014.0,311.0,311.0,688.0,686.0
4012,316,694,0,4010.0,4015.0,311.0,311.0,694.0,688.0
4011,315,693,0,4012.0,4010.0,316.0,311.0,694.0,694.0
4013,318,688,0,4011.0,4012.0,315.0,316.0,693.0,694.0
4015,323,687,0,4013.0,4011.0,318.0,315.0,688.0,693.0
4015,324,688,0,4015.0,4013.0,323.0,318.0,687.0,688.0
4014,325,693,0,4015.0,4015.0,324.0,323.0,688.0,687.0
4010,325,695,0,4014.0,4015.0,325.0,324.0,693.0,688.0
4012,324,693,0,4010.0,4014.0,325.0,325.0,695.0,693.0
4012,316,694,0,4012.0,4010.0,324.0,325.0,693.0,695.0
4014,319,693,0,4012.0,4012.0,316.0,324.0,694.0,693.0
4012,317,690,0,4014.0,4012.0,319.0,316.0,693.0,694.0
4011,314,689,0,4012.0,4014.0,317.0,319.0,690.0,693.0
4007,313,686,0,4011.0,4012.0,314.0,317.0,689.0,690.0
4007,317,686,0,4007.0,4011.0,313.0,314.0,686.0,689.0
4009,319,688,0,4007.0,4007.0,317.0,313.0,686.0,686.0
4010,316,690,0,4009.0,4007.0,319.0,317.0,688.0,686.0
4009,319,695,0,4010.0,4009.0,316.0,319.0,690.0,688.0
4010,321,696,0,4009.0,4010.0,319.0,316.0,695.0,690.0
4011,325,698,0,4010.0,4009.0,321.0,319.0,696.0,695.0
4009,329,695,0,4011.0,4010.0,325.0,321.0,698.0,696.0
4011,330,698,0,4009.0,4011.0,329.0,325.0,695.0,698.0
4014,329,692,0,4011.0,4009.0,330.0,329.0,698.0,695.0
4020,330,687,0,4014.0,4011.0,329.0,330.0,692.0,698.0
4020,330,687,0,4020.0,4014.0,330.0,329.0,687.0,692.0
4021,325,683,0,4020.0,4020.0,330.0,330.0,687.0,687.0
4018,320,685,0,4021.0,4020.0,325.0,330.0,683.0,687.0
4015,322,685,0,4018.0,4021.0,320.0,325.0,685.0,683.0
4013,318,691,0,4015.0,4018.0,322.0,320.0,685.0,685.0
4012,312,697,0,4013.0,4015.0,318.0,322.0,691.0,685.0
4011,310,698,0,4012.0,4013.0,312.0,318.0,697.0,691.0
4008,311,698,0,4011.0,4012.0,310.0,312.0,698.0,697.0
4009,306,695,0,4008.0,4011.0,311.0,310.0,698.0,698.0
4007,304,691,0,4009.0,4008.0,306.0,311.0,695.0,698.0
4005,305,693,0,4007.0,4009.0,304.0,306.0,691.0,695.0
4009,304,688,0,4005.0,4007.0,305.0,304.0,693.0,691.0
4014,304,693,0,4009.0,4005.0,304.0,305.0,688.0,693.0
4010,306,693,0,4014.0,4009.0,304.0,304.0,693.0,688.0
4010,306,691,0,4010.0,4014.0,306.0,304.0,693.0,693.0
4010,307,692,0,4010.0,4010.0,306.0,306.0,691.0,693.0
4010,313,695,0,4010.0,4010.0,307.0,306.0,692.0,691.0
4012,315,697,0,4010.0,4010.0,313.0,307.0,695.0,692.0
4011,319,698,0,4012.0,4010.0,315.0,313.0,697.0,695.0
4010,320,694,0,4011.0,4012.0,319.0,315.0,698.0,697.0
4010,322,697,0,4010.0,4011.0,320.0,319.0,694.0,698.0
4012,323,694,0,4010.0,4010.0,322.0,320.0,697.0,694.0
4011,322,693,0,4012.0,4010.0,323.0,322.0,694.0,697.0
4012,317,694,0,4011.0,4012.0,322.0,323.0,693.0,694.0
4012,316,693,0,4012.0,4011.0,317.0,322.0,694.0,693.0
4014,320,693,0,4012.0,4012.0,316.0,317.0,693.0,694.0
4017,323,691,0,4014.0,4012.0,320.0,316.0,693.0,693.0
4016,323,691,0,4017.0,4014.0,323.0,320.0,691.0,693.0
4020,320,691,0,4016.0,4017.0,323.0,323.0,691.0,691.0
4023,318,692,0,4020.0,4016.0,320.0,323.0,691.0,691.0
4021,318,690,0,4023.0,4020.0,318.0,320.0,692.0,691.0
4019,320,692,0,4021.0,4023.0,318.0,318.0,690.0,692.0
4016,323,693,0,4019.0,4021.0,320.0,318.0,692.0,690.0
4014,319,695,0,4016.0,4019.0,323.0,320.0,693.0,692.0
4013,319,695,0,4014.0,4016.0,319.0,323.0,695.0,693.0
4011,317,696,0,4013.0,4014.0,319.0,319.0,695.0,695.0
4005,317,696,0,4011.0,4013.0,317.0,319.0,696.0,695.0
4006,319,695,0,4005.0,4011.0,317.0,317.0,696.0,696.0
4006,316,698,0,4006.0,4005.0,319.0,317.0,695.0,696.0
4004,310,698,0,4006.0,4006.0,316.0,319.0,698.0,695.0
4000,310,697,0,4004.0,4006.0,310.0,316.0,698.0,698.0
3999,310,698,0,4000.0,4004.0,310.0,310.0,697.0,698.0
3995,315,700,0,3999.0,4000.0,310.0,310.0,698.0,697.0
3995,313,698,0,3995.0,3999.0,315.0,310.0,700.0,698.0
3992,317,701,0,3995.0,3995.0,313.0,315.0,698.0,700.0
3991,322,699,0,3992.0,3995.0,317.0,313.0,701.0,698.0
3991,331,701,0,3991.0,3992.0,322.0,317.0,699.0,701.0
3998,335,698,0,3991.0,3991.0,331.0,322.0,701.0,699.0
4003,335,699,0,3998.0,3991.0,335.0,331.0,698.0,701.0
4006,336,699,0,4003.0,3998.0,335.0,335.0,699.0,698.0
4011,341,695,0,4006.0,4003.0,336.0,335.0,699.0,699.0
4011,343,697,0,4011.0,4006.0,341.0,336.0,695.0,699.0
4009,344,695,0,4011.0,4011.0,343.0,341.0,697.0,695.0
4012,343,695,0,4009.0,4011.0,344.0,343.0,695.0,697.0
4011,342,693,0,4012.0,4009.0,343.0,344.0,695.0,695.0
4011,339,697,0,4011.0,4012.0,342.0,343.0,693.0,695.0
4010,336,695,0,4011.0,4011.0,339.0,342.0,697.0,693.0
4009,334,698,0,4010.0,4011.0,336.0,339.0,695.0,697.0
4011,329,699,0,4009.0,4010.0,334.0,336.0,698.0,695.0
4010,327,702,0,4011.0,4009.0,329.0,334.0,699.0,698.0
4010,327,700,0,4010.0,4011.0,327.0,329.0,702.0,699.0
4008,322,700,0,4010.0,4010.0,327.0,327.0,700.0,702.0
4009,321,701,0,4008.0,4010.0,322.0,327.0,700.0,700.0
4014,323,703,0,4009.0,4008.0,321.0,322.0,701.0,700.0
4013,325,703,0,4014.0,4009.0,323.0,321.0,703.0,701.0
4012,322,704,0,4013.0,4014.0,325.0,323.0,703.0,703.0
4012,321,703,0,4012.0,4013.0,322.0,325.0,704.0,703.0
4011,323,704,0,4012.0,4012.0,321.0,322.0,703.0,704.0
4015,326,702,0,4011.0,4012.0,323.0,321.0,704.0,703.0
4011,319,703,0,4015.0,4011.0,326.0,323.0,702.0,704.0
4008,320,704,0,4011.0,4015.0,319.0,326.0,703.0,702.0
4008,318,704,0,4008.0,4011.0,320.0,319.0,704.0,703.0
4007,316,708,0,4008.0,4008.0,318.0,320.0,704.0,704.0
4006,318,707,0,4007.0,4008.0,316.0,318.0,708.0,704.0
4004,318,706,0,4006.0,4007.0,318.0,316.0,707.0,708.0
4004,319,703,0,4004.0,4006.0,318.0,318.0,706.0,707.0
4003,311,707,0,4004.0,4004.0,319.0,318.0,703.0,706.0
4001,307,708,0,4003.0,4004.0,311.0,319.0,707.0,703.0
3999,308,710,0,4001.0,4003.0,307.0,311.0,708.0,707.0
4001,310,707,0,3999.0,4001.0,308.0,307.0,710.0,708.0
4006,310,705,0,4001.0,3999.0,310.0,308.0,707.0,710.0
4008,311,705,0,4006.0,4001.0,310.0,310.0,705.0,707.0
4012,310,707,0,4008.0,4006.0,311.0,310.0,705.0,705.0
4010,310,710,0,4012.0,4008.0,310.0,311.0,707.0,705.0
4012,313,708,0,4010.0,4012.0,310.0,310.0,710.0,707.0
4013,315,706,0,4012.0,4010.0,313.0,310.0,708.0,710.0
4014,317,707,0,4013.0,4012.0,315.0,313.0,706.0,708.0
4013,316,709,0,4014.0,4013.0,317.0,315.0,707.0,706.0
4012,314,705,0,4013.0,4014.0,316.0,317.0,709.0,707.0
4011,315,703,0,4012.0,4013.0,314.0,316.0,705.0,709.0
4008,313,702,0,4011.0,4012.0,315.0,314.0,703.0,705.0
4005,313,705,0,4008.0,4011.0,313.0,315.0,702.0,703.0
4006,311,703,0,4005.0,4008.0,313.0,313.0,705.0,702.0
4010,311,704,0,4006.0,4005.0,311.0,313.0,703.0,705.0
4010,312,701,0,4010.0,4006.0,311.0,311.0,704.0,703.0
4011,314,703,0,4010.0,4010.0,312.0,311.0,701.0,704.0
4010,315,702,0,4011.0,4010.0,314.0,312.0,703.0,701.0
4009,321,702,0,4010.0,4011.0,315.0,314.0,702.0,703.0
4011,319,703,0,4009.0,4010.0,321.0,315.0,702.0,702.0
4014,319,702,0,4011.0,4009.0,319.0,321.0,703.0,702.0
4013,320,701,0,4014.0,4011.0,319.0,319.0,702.0,703.0
4013,317,702,0,4013.0,4014.0,320.0,319.0,701.0,702.0
4016,320,701,0,4013.0,4013.0,317.0,320.0,702.0,701.0
4017,320,699,0,4016.0,4013.0,320.0,317.0,701.0,702.0
4015,321,700,0,4017.0,4016.0,320.0,320.0,699.0,701.0
4014,321,700,0,4015.0,4017.0,321.0,320.0,700.0,699.0
4011,319,699,0,4014.0,4015.0,321.0,321.0,700.0,700.0
4009,323,702,0,4011.0,4014.0,319.0,321.0,699.0,700.0
4004,320,706,0,4009.0,4011.0,323.0,319.0,702.0,699.0
4005,321,708,0,4004.0,4009.0,320.0,323.0,706.0,702.0
4004,318,706,0,4005.0,4004.0,321.0,320.0,708.0,706.0
4006,318,703,0,4004.0,4005.0,318.0,321.0,706.0,708.0
4005,318,707,0,4006.0,4004.0,318.0,318.0,703.0,706.0
4008,321,704,0,4005.0,4006.0,318.0,318.0,707.0,703.0
4007,319,708,0,4008.0,4005.0,321.0,318.0,704.0,707.0
4008,321,708,0,4007.0,4008.0,319.0,321.0,708.0,704.0
4007,323,706,0,4008.0,4007.0,321.0,319.0,708.0,708.0
4007,323,707,0,4007.0,4008.0,323.0,321.0,706.0,708.0
4008,324,706,0,4007.0,4007.0,323.0,323.0,707.0,706.0
4010,325,702,0,4008.0,4007.0,324.0,323.0,706.0,707.0
4012,330,699,0,4010.0,4008.0,325.0,324.0,702.0,706.0
4010,327,697,0,4012.0,4010.0,330.0,325.0,699.0,702.0
4011,328,695,0,4010.0,4012.0,327.0,330.0,697.0,699.0
4010,328,694,0,4011.0,4010.0,328.0,327.0,695.0,697.0
4010,330,693,0,4010.0,4011.0,328.0,328.0,694.0,695.0
4011,331,695,0,4010.0,4010.0,330.0,328.0,693.0,694.0
4011,334,699,0,4011.0,4010.0,331.0,330.0,695.0,693.0
4010,336,698,0,4011.0,4011.0,334.0,331.0,699.0,695.0
4010,335,701,0,4010.0,4011.0,336.0,334.0,698.0,699.0
4007,337,698,0,4010.0,4010.0,335.0,336.0,701.0,698.0
4008,336,698,0,4007.0,4010.0,337.0,335.0,698.0,701.0
4006,334,698,0,4008.0,4007.0,336.0,337.0,698.0,698.0
4006,333,702,0,4006.0,4008.0,334.0,336.0,698.0,698.0
4007,337,701,0,4006.0,4006.0,333.0,334.0,702.0,698.0
4006,333,703,0,4007.0,4006.0,337.0,333.0,701.0,702.0
4007,332,702,0,4006.0,4007.0,333.0,337.0,703.0,701.0
4008,330,706,0,4007.0,4006.0,332.0,333.0,702.0,703.0
4006,334,707,0,4008.0,4007.0,330.0,332.0,706.0,702.0
4007,333,706,0,4006.0,4008.0,334.0,330.0,707.0,706.0
4007,330,706,0,4007.0,4006.0,333.0,334.0,706.0,707.0
4007,331,702,0,4007.0,4007.0,330.0,333.0,706.0,706.0
4006,332,703,0,4007.0,4007.0,331.0,330.0,702.0,706.0
4006,334,704,0,4006.0,4007.0,332.0,331.0,703.0,702.0
4004,332,706,0,4006.0,4006.0,334.0,332.0,704.0,703.0
4007,332,708,0,4004.0,4006.0,332.0,334.0,706.0,704.0
4007,333,705,0,4007.0,4004.0,332.0,332.0,708.0,706.0
4006,336,704,0,4007.0,4007.0,333.0,332.0,705.0,708.0
4003,331,700,0,4006.0,4007.0,336.0,333.0,704.0,705.0
4007,333,701,0,4003.0,4006.0,331.0,336.0,700.0,704.0
4008,331,702,0,4007.0,4003.0,333.0,331.0,701.0,700.0
4003,331,706,0,4008.0,4007.0,331.0,333.0,702.0,701.0
4001,330,710,0,4003.0,4008.0,331.0,331.0,706.0,702.0
4000,327,713,0,4001.0,4003.0,330.0,331.0,710.0,706.0
4003,325,711,0,4000.0,4001.0,327.0,330.0,713.0,710.0
4009,325,709,0,4003.0,4000.0,325.0,327.0,711.0,713.0
4011,324,700,0,4009.0,4003.0,325.0,325.0,709.0,711.0
4011,328,695,0,4011.0,4009.0,324.0,325.0,700.0,709.0
4017,329,689,0,4011.0,4011.0,328.0,324.0,695.0,700.0
4016,331,690,0,4017.0,4011.0,329.0,328.0,689.0,695.0
4020,334,691,0,4016.0,4017.0,331.0,329.0,690.0,689.0
4021,334,689,0,4020.0,4016.0,334.0,331.0,691.0,690.0
4026,335,690,0,4021.0,4020.0,334.0,334.0,689.0,691.0
4019,339,692,0,4026.0,4021.0,335.0,334.0,690.0,689.0
4015,336,695,0,4019.0,4026.0,339.0,335.0,692.0,690.0
4012,335,697,0,4015.0,4019.0,336.0,339.0,695.0,692.0
4007,335,700,0,4012.0,4015.0,335.0,336.0,697.0,695.0
4007,332,702,0,4007.0,4012.0,335.0,335.0,700.0,697.0
4002,330,701,0,4007.0,4007.0,332.0,335.0,702.0,700.0
4000,331,702,0,4002.0,4007.0,330.0,332.0,701.0,702.0
3996,336,701,0,4000.0,4002.0,331.0,330.0,702.0,701.0
3997,338,702,0,3996.0,4000.0,336.0,331.0,701.0,702.0
3997,341,708,0,3997.0,3996.0,338.0,336.0,702.0,701.0
4002,343,708,0,3997.0,3997.0,341.0,338.0,708.0,702.0
4008,345,705,0,4002.0,3997.0,343.0,341.0,708.0,708.0
4009,348,703,0,4008.0,4002.0,345.0,343.0,705.0,708.0
4015,352,699,0,4009.0,4008.0,348.0,345.0,703.0,705.0
4018,354,695,0,4015.0,4009.0,352.0,348.0,699.0,703.0
4017,357,690,0,4018.0,4015.0,354.0,352.0,695.0,699.0
4019,355,691,0,4017.0,4018.0,357.0,354.0,690.0,695.0
4014,352,691,0,4019.0,4017.0,355.0,357.0,691.0,690.0
4012,347,692,0,4014.0,4019.0,352.0,355.0,691.0,691.0
4004,338,694,0,4012.0,4014.0,347.0,352.0,692.0,691.0
3996,329,697,0,4004.0,4012.0,338.0,347.0,694.0,692.0
3988,316,703,0,3996.0,4004.0,329.0,338.0,697.0,694.0
3985,309,708,0,3988.0,3996.0,316.0,329.0,703.0,697.0
3986,304,707,0,3985.0,3988.0,309.0,316.0,708.0,703.0
3988,300,706,0,3986.0,3985.0,304.0,309.0,707.0,708.0
3994,293,702,0,3988.0,3986.0,300.0,304.0,706.0,707.0
4005,292,693,0,3994.0,3988.0,293.0,300.0,702.0,706.0
4007,293,685,0,4005.0,3994.0,292.0,293.0,693.0,702.0
4014,296,685,0,4007.0,4005.0,293.0,292.0,685.0,693.0
4018,300,681,0,4014.0,4007.0,296.0,293.0,685.0,685.0
4017,307,682,0,4018.0,4014.0,300.0,296.0,681.0,685.0
4016,314,684,0,4017.0,4018.0,307.0,300.0,682.0,681.0
4015,315,687,0,4016.0,4017.0,314.0,307.0,684.0,682.0
4010,319,685,0,4015.0,4016.0,315.0,314.0,687.0,684.0
4011,323,690,0,4010.0,4015.0,319.0,315.0,685.0,687.0
4011,328,694,0,4011.0,4010.0,323.0,319.0,690.0,685.0
4009,326,693,0,4011.0,4011.0,328.0,323.0,694.0,690.0
4009,327,691,0,4009.0,4011.0,326.0,328.0,693.0,694.0
4007,328,696,0,4009.0,4009.0,327.0,326.0,691.0,693.0
4009,327,696,0,4007.0,4009.0,328.0,327.0,696.0,691.0
4005,327,694,0,4009.0,4007.0,327.0,328.0,696.0,696.0
4005,327,697,0,4005.0,4009.0,327.0,327.0,694.0,696.0
4009,328,694,0,4005.0,4005.0,327.0,327.0,697.0,694.0
4010,329,687,0,4009.0,4005.0,328.0,327.0,694.0,697.0
4018,327,682,0,4010.0,4009.0,329.0,328.0,687.0,694.0
4026,325,680,0,4018.0,4010.0,327.0,329.0,682.0,687.0
4027,330,681,0,4026.0,4018.0,325.0,327.0,680.0,682.0
4025,330,684,0,4027.0,4026.0,330.0,325.0,681.0,680.0
4029,328,685,0,4025.0,4027.0,330.0,330.0,684.0,681.0
4028,331,691,0,4029.0,4025.0,328.0,330.0,685.0,684.0
4030,331,695,0,4028.0,4029.0,331.0,328.0,691.0,685.0
4021,332,695,0,4030.0,4028.0,331.0,331.0,695.0,691.0
4017,337,693,0,4021.0,4030.0,332.0,331.0,695.0,695.0
4013,340,688,0,4017.0,4021.0,337.0,332.0,693.0,695.0
4010,339,683,0,4013.0,4017.0,340.0,337.0,688.0,693.0
4012,338,684,0,4010.0,4013.0,339.0,340.0,683.0,688.0
4011,338,687,0,4012.0,4010.0,338.0,339.0,684.0,683.0
4013,338,685,0,4011.0,4012.0,338.0,338.0,687.0,684.0
4018,339,686,0,4013.0,4011.0,338.0,338.0,685.0,687.0
4015,338,685,0,4018.0,4013.0,339.0,338.0,686.0,685.0
4013,339,687,0,4015.0,4018.0,338.0,339.0,685.0,686.0
4011,335,686,0,4013.0,4015.0,339.0,338.0,687.0,685.0
4005,334,682,0,4011.0,4013.0,335.0,339.0,686.0,687.0
4006,329,682,0,4005.0,4011.0,334.0,335.0,682.0,686.0
4002,327,685,0,4006.0,4005.0,329.0,334.0,682.0,682.0
3999,325,686,0,4002.0,4006.0,327.0,329.0,685.0,682.0
3998,325,694,0,3999.0,4002.0,325.0,327.0,686.0,685.0
3999,325,698,0,3998.0,3999.0,325.0,325.0,694.0,686.0
3997,326,697,0,3999.0,3998.0,325.0,325.0,698.0,694.0
3998,328,696,0,3997.0,3999.0,326.0,325.0,697.0,698.0
4001,327,692,0,3998.0,3997.0,328.0,326.0,696.0,697.0
4003,325,687,0,4001.0,3998.0,327.0,328.0,692.0,696.0
4002,324,688,0,4003.0,4001.0,325.0,327.0,687.0,692.0
4003,325,695,0,4002.0,4003.0,324.0,325.0,688.0,687.0
4007,324,690,0,4003.0,4002.0,325.0,324.0,695.0,688.0
4011,326,686,0,4007.0,4003.0,324.0,325.0,690.0,695.0
4013,327,687,0,4011.0,4007.0,326.0,324.0,686.0,690.0
4012,328,687,0,4013.0,4011.0,327.0,326.0,687.0,686.0
4017,328,685,0,4012.0,4013.0,328.0,327.0,687.0,687.0
4017,328,684,0,4017.0,4012.0,328.0,328.0,685.0,687.0
4019,323,689,0,4017.0,4017.0,328.0,328.0,684.0,685.0
4019,320,689,0,4019.0,4017.0,323.0,328.0,689.0,684.0
4017,321,687,0,4019.0,4019.0,320.0,323.0,689.0,689.0
4016,320,688,0,4017.0,4019.0,321.0,320.0,687.0,689.0
4015,316,686,0,4016.0,4017.0,320.0,321.0,688.0,687.0
4014,312,685,0,4015.0,4016.0,316.0,320.0,686.0,688.0
4013,308,683,0,4014.0,4015.0,312.0,316.0,685.0,686.0
4014,305,681,0,4013.0,4014.0,308.0,312.0,683.0,685.0
4010,302,680,0,4014.0,4013.0,305.0,308.0,681.0,683.0
4004,301,681,0,4010.0,4014.0,302.0,305.0,680.0,681.0
3996,303,681,0,4004.0,4010.0,301.0,302.0,681.0,680.0
3989,309,684,0,3996.0,4004.0,303.0,301.0,681.0,681.0
3990,311,684,0,3989.0,3996.0,309.0,303.0,684.0,681.0
3989,315,686,0,3990.0,3989.0,311.0,309.0,684.0,684.0
3987,317,689,0,3989.0,3990.0,315.0,311.0,686.0,684.0
3989,318,686,0,3987.0,3989.0,317.0,315.0,689.0,686.0
3994,317,685,0,3989.0,3987.0,318.0,317.0,686.0,689.0
4000,312,683,0,3994.0,3989.0,317.0,318.0,685.0,686.0
4006,313,681,0,4000.0,3994.0,312.0,317.0,683.0,685.0
4008,316,679,0,4006.0,4000.0,313.0,312.0,681.0,683.0
4011,317,679,0,4008.0,4006.0,316.0,313.0,679.0,681.0
4016,318,681,0,4011.0,4008.0,317.0,316.0,679.0,679.0
4020,319,680,0,4016.0,4011.0,318.0,317.0,681.0,679.0
4022,318,679,0,4020.0,4016.0,319.0,318.0,680.0,681.0
4022,319,681,0,4022.0,4020.0,318.0,319.0,679.0,680.0
4019,319,683,0,4022.0,4022.0,319.0,318.0,681.0,679.0
4018,319,684,0,4019.0,4022.0,319.0,319.0,683.0,681.0
4016,319,685,0,4018.0,4019.0,319.0,319.0,684.0,683.0
4020,316,686,0,4016.0,4018.0,319.0,319.0,685.0,684.0
4024,320,684,0,4020.0,4016.0,316.0,319.0,686.0,685.0
4026,319,686,0,4024.0,4020.0,320.0,316.0,684.0,686.0
4021,325,691,0,4026.0,4024.0,319.0,320.0,686.0,684.0
4015,322,699,0,4021.0,4026.0,325.0,319.0,691.0,686.0
4010,324,706,0,4015.0,4021.0,322.0,325.0,699.0,691.0
4007,321,707,0,4010.0,4015.0,324.0,322.0,706.0,699.0
4007,318,704,0,4007.0,4010.0,321.0,324.0,707.0,706.0
4005,318,699,0,4007.0,4007.0,318.0,321.0,704.0,707.0
4007,320,697,0,4005.0,4007.0,318.0,318.0,699.0,704.0
4004,320,696,0,4007.0,4005.0,320.0,318.0,697.0,699.0
4008,321,697,0,4004.0,4007.0,320.0,320.0,696.0,697.0
4008,322,697,0,4008.0,4004.0,321.0,320.0,697.0,696.0
4005,327,698,0,4008.0,4008.0,322.0,321.0,697.0,697.0
4003,324,697,0,4005.0,4008.0,327.0,322.0,698.0,697.0
4001,323,699,0,4003.0,4005.0,324.0,327.0,697.0,698.0
4000,318,701,0,4001.0,4003.0,323.0,324.0,699.0,697.0
4003,315,700,0,4000.0,4001.0,318.0,323.0,701.0,699.0
4007,311,694,0,4003.0,4000.0,315.0,318.0,700.0,701.0
4009,309,687,0,4007.0,4003.0,311.0,315.0,694.0,700.0
4016,316,686,0,4009.0,4007.0,309.0,311.0,687.0,694.0
4017,318,686,0,4016.0,4009.0,316.0,309.0,686.0,687.0
4018,318,689,0,4017.0,4016.0,318.0,316.0,686.0,686.0
4018,315,692,0,4018.0,4017.0,318.0,318.0,689.0,686.0
4020,319,695,0,4018.0,4018.0,315.0,318.0,692.0,689.0
4015,318,695,0,4020.0,4018.0,319.0,315.0,695.0,692.0
4017,315,692,0,4015.0,4020.0,318.0,319.0,695.0,695.0
4016,311,693,0,4017.0,4015.0,315.0,318.0,692.0,695.0
4010,315,691,0,4016.0,4017.0,311.0,315.0,693.0,692.0
4012,312,690,0,4010.0,4016.0,315.0,311.0,691.0,693.0
4011,312,689,0,4012.0,4010.0,312.0,315.0,690.0,691.0
4010,311,687,0,4011.0,4012.0,312.0,312.0,689.0,690.0
4010,308,683,0,4010.0,4011.0,311.0,312.0,687.0,689.0
4014,310,686,0,4010.0,4010.0,308.0,311.0,683.0,687.0
4014,311,684,0,4014.0,4010.0,310.0,308.0,686.0,683.0
4018,309,683,0,4014.0,4014.0,311.0,310.0,684.0,686.0
4018,310,686,0,4018.0,4014.0,309.0,311.0,683.0,684.0
4017,309,685,0,4018.0,4018.0,310.0,309.0,686.0,683.0
4017,308,689,0,4017.0,4018.0,309.0,310.0,685.0,686.0
4014,310,691,0,4017.0,4017.0,308.0,309.0,689.0,685.0
4011,312,695,0,4014.0,4017.0,310.0,308.0,691.0,689.0
4011,307,696,0,4011.0,4014.0,312.0,310.0,695.0,691.0
4005,304,695,0,4011.0,4011.0,307.0,312.0,696.0,695.0
4009,305,692,0,4005.0,4011.0,304.0,307.0,695.0,696.0
4010,308,687,0,4009.0,4005.0,305.0,304.0,692.0,695.0
4011,310,686,0,4010.0,4009.0,308.0,305.0,687.0,692.0
4014,310,684,0,4011.0,4010.0,310.0,308.0,686.0,687.0
4014,309,680,0,4014.0,4011.0,310.0,310.0,684.0,686.0
4014,307,677,0,4014.0,4014.0,309.0,310.0,680.0,684.0
4013,313,675,0,4014.0,4014.0,307.0,309.0,677.0,680.0
4014,313,676,0,4013.0,4014.0,313.0,307.0,675.0,677.0
4016,313,679,0,4014.0,4013.0,313.0,313.0,676.0,675.0
4018,309,682,0,4016.0,4014.0,313.0,313.0,679.0,676.0
4019,308,678,0,4018.0,4016.0,309.0,313.0,682.0,679.0
4018,307,683,0,4019.0,4018.0,308.0,309.0,678.0,682.0
4022,302,681,0,4018.0,4019.0,307.0,308.0,683.0,678.0
4019,299,675,0,4022.0,4018.0,302.0,307.0,681.0,683.0
4018,300,673,0,4019.0,4022.0,299.0,302.0,675.0,681.0
4015,299,673,0,4018.0,4019.0,300.0,299.0,673.0,675.0
4015,300,672,0,4015.0,4018.0,299.0,300.0,673.0,673.0
4016,301,673,0,4015.0,4015.0,300.0,299.0,672.0,673.0
4016,307,670,0,4016.0,4015.0,301.0,300.0,673.0,672.0
4017,310,669,0,4016.0,4016.0,307.0,301.0,670.0,673.0
4017,307,669,0,4017.0,4016.0,310.0,307.0,669.0,670.0
4018,306,672,0,4017.0,4017.0,307.0,310.0,669.0,669.0
4016,310,674,0,4018.0,4017.0,306.0,307.0,672.0,669.0
4013,309,676,0,4016.0,4018.0,310.0,306.0,674.0,672.0
4012,307,679,0,4013.0,4016.0,309.0,310.0,676.0,674.0
4011,304,677,0,4012.0,4013.0,307.0,309.0,679.0,676.0
4008,302,684,0,4011.0,4012.0,304.0,307.0,677.0,679.0
4007,305,680,0,4008.0,4011.0,302.0,304.0,684.0,677.0
4005,302,682,0,4007.0,4008.0,305.0,302.0,680.0,684.0
4002,303,687,0,4005.0,4007.0,302.0,305.0,682.0,680.0
4002,304,689,0,4002.0,4005.0,303.0,302.0,687.0,682.0
4004,308,690,0,4002.0,4002.0,304.0,303.0,689.0,687.0
4006,310,685,0,4004.0,4002.0,308.0,304.0,690.0,689.0
4010,316,680,0,4006.0,4004.0,310.0,308.0,685.0,690.0
4012,320,681,0,4010.0,4006.0,316.0,310.0,680.0,685.0
4015,325,684,0,4012.0,4010.0,320.0,316.0,681.0,680.0
4019,327,685,0,4015.0,4012.0,325.0,320.0,684.0,681.0
4021,331,685,0,4019.0,4015.0,327.0,325.0,685.0,684.0
4022,333,685,0,4021.0,4019.0,331.0,327.0,685.0,685.0
4022,335,683,0,4022.0,4021.0,333.0,331.0,685.0,685.0
4022,334,684,0,4022.0,4022.0,335.0,333.0,683.0,685.0
4022,329,679,0,4022.0,4022.0,334.0,335.0,684.0,683.0
4019,324,682,0,4022.0,4022.0,329.0,334.0,679.0,684.0
4020,320,681,0,4019.0,4022.0,324.0,329.0,682.0,679.0
4015,318,680,0,4020.0,4019.0,320.0,324.0,681.0,682.0
4014,309,681,0,4015.0,4020.0,318.0,320.0,680.0,681.0
4007,303,682,0,4014.0,4015.0,309.0,318.0,681.0,680.0
4006,296,682,0,4007.0,4014.0,303.0,309.0,682.0,681.0
4001,294,683,0,4006.0,4007.0,296.0,303.0,682.0,682.0
4002,292,684,0,4001.0,4006.0,294.0,296.0,683.0,682.0
4002,290,686,0,4002.0,4001.0,292.0,294.0,684.0,683.0
4004,291,684,0,4002.0,4002.0,290.0,292.0,686.0,684.0
4003,291,688,0,4004.0,4002.0,291.0,290.0,684.0,686.0
4005,292,693,0,4003.0,4004.0,291.0,291.0,688.0,684.0
4008,291,695,0,4005.0,4003.0,292.0,291.0,693.0,688.0
4009,291,692,0,4008.0,4005.0,291.0,292.0,695.0,693.0
4008,292,689,0,4009.0,4008.0,291.0,291.0,692.0,695.0
4008,293,690,0,4008.0,4009.0,292.0,291.0,689.0,692.0
4010,294,686,0,4008.0,4008.0,293.0,292.0,690.0,689.0
4009,296,688,0,4010.0,4008.0,294.0,293.0,686.0,690.0
4009,298,690,0,4009.0,4010.0,296.0,294.0,688.0,686.0
4012,297,693,0,4009.0,4009.0,298.0,296.0,690.0,688.0
4012,299,690,0,4012.0,4009.0,297.0,298.0,693.0,690.0
4013,299,688,0,4012.0,4012.0,299.0,297.0,690.0,693.0
4010,300,687,0,4013.0,4012.0,299.0,299.0,688.0,690.0
4008,297,687,0,4010.0,4013.0,300.0,299.0,687.0,688.0
4011,300,685,0,4008.0,4010.0,297.0,300.0,687.0,687.0
4015,303,686,0,4011.0,4008.0,300.0,297.0,685.0,687.0
4014,307,686,0,4015.0,4011.0,303.0,300.0,686.0,685.0
4019,303,684,0,4014.0,4015.0,307.0,303.0,686.0,686.0
4019,304,686,0,4019.0,4014.0,303.0,307.0,684.0,686.0
4021,304,685,0,4019.0,4019.0,304.0,303.0,686.0,684.0
4026,307,684,0,4021.0,4019.0,304.0,304.0,685.0,686.0
4029,304,684,0,4026.0,4021.0,307.0,304.0,684.0,685.0
4028,304,683,0,4029.0,4026.0,304.0,307.0,684.0,684.0
4025,301,681,0,4028.0,4029.0,304.0,304.0,683.0,684.0
4029,300,684,0,4025.0,4028.0,301.0,304.0,681.0,683.0
4025,298,686,0,4029.0,4025.0,300.0,301.0,684.0,681.0
4022,300,689,0,4025.0,4029.0,298.0,300.0,686.0,684.0
4020,298,689,0,4022.0,4025.0,300.0,298.0,689.0,686.0
4016,293,691,0,4020.0,4022.0,298.0,300.0,689.0,689.0
4017,293,696,0,4016.0,4020.0,293.0,298.0,691.0,689.0
4011,296,697,0,4017.0,4016.0,293.0,293.0,696.0,691.0
4007,295,700,0,4011.0,4017.0,296.0,293.0,697.0,696.0
4004,298,696,0,4007.0,4011.0,295.0,296.0,700.0,697.0
4004,302,694,0,4004.0,4007.0,298.0,295.0,696.0,700.0
3998,304,697,0,4004.0,4004.0,302.0,298.0,694.0,696.0
3998,306,699,0,3998.0,4004.0,304.0,302.0,697.0,694.0
3997,309,703,0,3998.0,3998.0,306.0,304.0,699.0,697.0
3999,313,700,0,3997.0,3998.0,309.0,306.0,703.0,699.0
4002,318,702,0,3999.0,3997.0,313.0,309.0,700.0,703.0
4005,320,698,0,4002.0,3999.0,318.0,313.0,702.0,700.0
4008,319,699,0,4005.0,4002.0,320.0,318.0,698.0,702.0
4010,321,696,0,4008.0,4005.0,319.0,320.0,699.0,698.0
4008,324,693,0,4010.0,4008.0,321.0,319.0,696.0,699.0
4010,326,692,0,4008.0,4010.0,324.0,321.0,693.0,696.0
4010,331,692,0,4010.0,4008.0,326.0,324.0,692.0,693.0
4011,334,693,0,4010.0,4010.0,331.0,326.0,692.0,692.0
4012,332,693,0,4011.0,4010.0,334.0,331.0,693.0,692.0
4013,335,694,0,4012.0,4011.0,332.0,334.0,693.0,693.0
4013,340,694,0,4013.0,4012.0,335.0,332.0,694.0,693.0
4016,339,693,0,4013.0,4013.0,340.0,335.0,694.0,694.0
4017,336,693,0,4016.0,4013.0,339.0,340.0,693.0,694.0
4016,337,692,0,4017.0,4016.0,336.0,339.0,693.0,693.0
4015,337,692,0,4016.0,4017.0,337.0,336.0,692.0,693.0
4013,335,690,0,4015.0,4016.0,337.0,337.0,692.0,692.0
4016,337,687,0,4013.0,4015.0,335.0,337.0,690.0,692.0
4016,338,686,0,4016.0,4013.0,337.0,335.0,687.0,690.0
4014,336,687,0,4016.0,4016.0,338.0,337.0,686.0,687.0
4013,335,689,0,4014.0,4016.0,336.0,338.0,687.0,686.0
4010,337,693,0,4013.0,4014.0,335.0,336.0,689.0,687.0
4009,336,694,0,4010.0,4013.0,337.0,335.0,693.0,689.0
4010,334,691,0,4009.0,4010.0,336.0,337.0,694.0,693.0
4005,332,692,0,4010.0,4009.0,334.0,336.0,691.0,694.0
4008,327,692,0,4005.0,4010.0,332.0,334.0,692.0,691.0
4002,328,694,0,4008.0,4005.0,327.0,332.0,692.0,692.0
4001,327,693,0,4002.0,4008.0,328.0,327.0,694.0,692.0
4003,327,694,0,4001.0,4002.0,327.0,328.0,693.0,694.0
4003,321,693,0,4003.0,4001.0,327.0,327.0,694.0,693.0
4005,323,691,0,4003.0,4003.0,321.0,327.0,693.0,694.0
4006,317,693,0,4005.0,4003.0,323.0,321.0,691.0,693.0
4009,318,696,0,4006.0,4005.0,317.0,323.0,693.0,691.0
4007,318,696,0,4009.0,4006.0,318.0,317.0,696.0,693.0
4006,318,694,0,4007.0,4009.0,318.0,318.0,696.0,696.0
4008,318,697,0,4006.0,4007.0,318.0,318.0,694.0,696.0
4010,315,696,0,4008.0,4006.0,318.0,318.0,697.0,694.0
4009,319,698,0,4010.0,4008.0,315.0,318.0,696.0,697.0
4012,318,698,0,4009.0,4010.0,319.0,315.0,698.0,696.0
4011,322,700,0,4012.0,4009.0,318.0,319.0,698.0,698.0
4014,323,698,0,4011.0,4012.0,322.0,318.0,700.0,698.0
4014,323,693,0,4014.0,4011.0,323.0,322.0,698.0,700.0
4015,319,695,0,4014.0,4014.0,323.0,323.0,693.0,698.0
4014,320,695,0,4015.0,4014.0,319.0,323.0,695.0,693.0
4012,322,694,0,4014.0,4015.0,320.0,319.0,695.0,695.0
4009,320,695,0,4012.0,4014.0,322.0,320.0,694.0,695.0
4009,318,697,0,4009.0,4012.0,320.0,322.0,695.0,694.0
4009,321,699,0,4009.0,4009.0,318.0,320.0,697.0,695.0
4008,324,696,0,4009.0,4009.0,321.0,318.0,699.0,697.0
4009,323,697,0,4008.0,4009.0,324.0,321.0,696.0,699.0
4007,324,697,0,4009.0,4008.0,323.0,324.0,697.0,696.0
4005,326,696,0,4007.0,4009.0,324.0,323.0,697.0,697.0
4007,323,696,0,4005.0,4007.0,326.0,324.0,696.0,697.0
4008,321,695,0,4007.0,4005.0,323.0,326.0,696.0,696.0
4009,321,696,0,4008.0,4007.0,321.0,323.0,695.0,696.0
4010,318,698,0,4009.0,4008.0,321.0,321.0,696.0,695.0
4009,317,697,0,4010.0,4009.0,318.0,321.0,698.0,696.0
4007,318,695,0,4009.0,4010.0,317.0,318.0,697.0,698.0
4011,317,693,0,4007.0,4009.0,318.0,317.0,695.0,697.0
4005,313,696,0,4011.0,4007.0,317.0,318.0,693.0,695.0
4008,313,695,0,4005.0,4011.0,313.0,317.0,696.0,693.0
4010,312,695,0,4008.0,4005.0,313.0,313.0,695.0,696.0
4011,308,695,0,4010.0,4008.0,312.0,313.0,695.0,695.0
4012,307,697,0,4011.0,4010.0,308.0,312.0,695.0,695.0
4011,314,701,0,4012.0,4011.0,307.0,308.0,697.0,695.0
4011,318,701,0,4011.0,4012.0,314.0,307.0,701.0,697.0
4009,321,700,0,4011.0,4011.0,318.0,314.0,701.0,701.0
4014,324,701,0,4009.0,4011.0,321.0,318.0,700.0,701.0
4015,323,697,0,4014.0,4009.0,324.0,321.0,701.0,700.0
4016,321,694,0,4015.0,4014.0,323.0,324.0,697.0,701.0
4012,323,694,0,4016.0,4015.0,321.0,323.0,694.0,697.0
4012,327,694,0,4012.0,4016.0,323.0,321.0,694.0,694.0
4014,328,692,0,4012.0,4012.0,327.0,323.0,694.0,694.0
4012,331,690,0,4014.0,4012.0,328.0,327.0,692.0,694.0
4011,332,691,0,4012.0,4014.0,331.0,328.0,690.0,692.0
4008,331,690,0,4011.0,4012.0,332.0,331.0,691.0,690.0
4009,330,689,0,4008.0,4011.0,331.0,332.0,690.0,691.0
4007,330,691,0,4009.0,4008.0,330.0,331.0,689.0,690.0
4011,331,692,0,4007.0,4009.0,330.0,330.0,691.0,689.0
4011,331,696,0,4011.0,4007.0,331.0,330.0,692.0,691.0
4010,333,696,0,4011.0,4011.0,331.0,331.0,696.0,692.0
4004,338,692,0,4010.0,4011.0,333.0,331.0,696.0,696.0
4005,336,692,0,4004.0,4010.0,338.0,333.0,692.0,696.0
4009,334,691,0,4005.0,4004.0,336.0,338.0,692.0,692.0
4008,333,693,0,4009.0,4005.0,334.0,336.0,691.0,692.0
4009,336,690,0,4008.0,4009.0,333.0,334.0,693.0,691.0
4009,335,691,0,4009.0,4008.0,336.0,333.0,690.0,693.0
4009,336,689,0,4009.0,4009.0,335.0,336.0,691.0,690.0
4007,333,689,0,4009.0,4009.0,336.0,335.0,689.0,691.0
4011,334,692,0,4007.0,4009.0,333.0,336.0,689.0,689.0
4012,334,694,0,4011.0,4007.0,334.0,333.0,692.0,689.0
4014,336,691,0,4012.0,4011.0,334.0,334.0,694.0,692.0
4015,335,691,0,4014.0,4012.0,336.0,334.0,691.0,694.0
4014,331,691,0,4015.0,4014.0,335.0,336.0,691.0,691.0
4013,330,695,0,4014.0,4015.0,331.0,335.0,691.0,691.0
4012,330,696,0,4013.0,4014.0,330.0,331.0,695.0,691.0
4010,333,693,0,4012.0,4013.0,330.0,330.0,696.0,695.0
4011,335,697,0,4010.0,4012.0,333.0,330.0,693.0,696.0
4012,336,697,0,4011.0,4010.0,335.0,333.0,697.0,693.0
4013,340,692,0,4012.0,4011.0,336.0,335.0,697.0,697.0
4015,341,693,0,4013.0,4012.0,340.0,336.0,692.0,697.0
4015,346,691,0,4015.0,4013.0,341.0,340.0,693.0,692.0
4015,346,696,0,4015.0,4015.0,346.0,341.0,691.0,693.0
4017,345,694,0,4015.0,4015.0,346.0,346.0,696.0,691.0
4013,346,694,0,4017.0,4015.0,345.0,346.0,694.0,696.0
4010,342,696,0,4013.0,4017.0,346.0,345.0,694.0,694.0
4008,340,692,0,4010.0,4013.0,342.0,346.0,696.0,694.0
4006,341,691,0,4008.0,4010.0,340.0,342.0,692.0,696.0
4004,337,693,0,4006.0,4008.0,341.0,340.0,691.0,692.0
4002,336,696,0,4004.0,4006.0,337.0,341.0,693.0,691.0
3997,331,697,0,4002.0,4004.0,336.0,337.0,696.0,693.0
3996,336,696,0,3997.0,4002.0,331.0,336.0,697.0,696.0
3999,338,696,0,3996.0,3997.0,336.0,331.0,696.0,697.0
4003,337,698,0,3999.0,3996.0,338.0,336.0,696.0,696.0
4006,337,694,0,4003.0,3999.0,337.0,338.0,698.0,696.0
4007,340,692,0,4006.0,4003.0,337.0,337.0,694.0,698.0
4013,345,692,0,4007.0,4006.0,340.0,337.0,692.0,694.0
4013,349,691,0,4013.0,4007.0,345.0,340.0,692.0,692.0
4017,350,689,0,4013.0,4013.0,349.0,345.0,691.0,692.0
4015,353,688,0,4017.0,4013.0,350.0,349.0,689.0,691.0
4012,350,690,0,4015.0,4017.0,353.0,350.0,688.0,689.0
4012,348,691,0,4012.0,4015.0,350.0,353.0,690.0,688.0
4012,346,692,0,4012.0,4012.0,348.0,350.0,691.0,690.0
4009,338,695,0,4012.0,4012.0,346.0,348.0,692.0,691.0
4004,332,695,0,4009.0,4012.0,338.0,346.0,695.0,692.0
4005,326,698,0,4004.0,4009.0,332.0,338.0,695.0,695.0
4006,326,700,0,4005.0,4004.0,326.0,332.0,698.0,695.0
4006,322,698,0,4006.0,4005.0,326.0,326.0,700.0,698.0
4008,317,699,0,4006.0,4006.0,322.0,326.0,698.0,700.0
4007,312,700,0,4008.0,4006.0,317.0,322.0,699.0,698.0
4009,313,700,0,4007.0,4008.0,312.0,317.0,700.0,699.0
4006,312,699,0,4009.0,4007.0,313.0,312.0,700.0,700.0
4007,315,696,0,4006.0,4009.0,312.0,313.0,699.0,700.0
4007,315,697,0,4007.0,4006.0,315.0,312.0,696.0,699.0
4002,318,697,0,4007.0,4007.0,315.0,315.0,697.0,696.0
4002,318,695,0,4002.0,4007.0,318.0,315.0,697.0,697.0
4006,322,696,0,4002.0,4002.0,318.0,318.0,695.0,697.0
4006,324,693,0,4006.0,4002.0,322.0,318.0,696.0,695.0
4008,325,694,0,4006.0,4006.0,324.0,322.0,693.0,696.0
4009,327,694,0,4008.0,4006.0,325.0,324.0,694.0,693.0
4008,333,698,0,4009.0,4008.0,327.0,325.0,694.0,694.0
4005,332,698,0,4008.0,4009.0,333.0,327.0,698.0,694.0
4008,332,699,0,4005.0,4008.0,332.0,333.0,698.0,698.0
4010,337,695,0,4008.0,4005.0,332.0,332.0,699.0,698.0
4010,339,697,0,4010.0,4008.0,337.0,332.0,695.0,699.0
4014,338,700,0,4010.0,4010.0,339.0,337.0,697.0,695.0
4016,335,700,0,4014.0,4010.0,338.0,339.0,700.0,697.0
4020,337,700,0,4016.0,4014.0,335.0,338.0,700.0,700.0
4022,342,700,0,4020.0,4016.0,337.0,335.0,700.0,700.0
4022,341,700,0,4022.0,4020.0,342.0,337.0,700.0,700.0
4023,337,695,0,4022.0,4022.0,341.0,342.0,700.0,700.0
4028,337,695,0,4023.0,4022.0,337.0,341.0,695.0,700.0
4026,341,692,0,4028.0,4023.0,337.0,337.0,695.0,695.0
4023,342,693,0,4026.0,4028.0,341.0,337.0,692.0,695.0
4019,342,689,0,4023.0,4026.0,342.0,341.0,693.0,692.0
4017,345,693,0,4019.0,4023.0,342.0,342.0,689.0,693.0
4014,343,699,0,4017.0,4019.0,345.0,342.0,693.0,689.0
4012,340,698,0,4014.0,4017.0,343.0,345.0,699.0,693.0
4009,335,697,0,4012.0,4014.0,340.0,343.0,698.0,699.0
4007,332,698,0,4009.0,4012.0,335.0,340.0,697.0,698.0
4006,329,700,0,4007.0,4009.0,332.0,335.0,698.0,697.0
4003,323,700,0,4006.0,4007.0,329.0,332.0,700.0,698.0
4004,322,702,0,4003.0,4006.0,323.0,329.0,700.0,700.0
4003,320,700,0,4004.0,4003.0,322.0,323.0,702.0,700.0
4004,319,701,0,4003.0,4004.0,320.0,322.0,700.0,702.0
3997,321,700,0,4004.0,4003.0,319.0,320.0,701.0,700.0
3996,322,694,0,3997.0,4004.0,321.0,319.0,700.0,701.0
3998,324,698,0,3996.0,3997.0,322.0,321.0,694.0,700.0
3999,326,699,0,3998.0,3996.0,324.0,322.0,698.0,694.0
4004,328,698,0,3999.0,3998.0,326.0,324.0,699.0,698.0
4007,330,700,0,4004.0,3999.0,328.0,326.0,698.0,699.0
4010,331,698,0,4007.0,4004.0,330.0,328.0,700.0,698.0
4011,333,697,0,4010.0,4007.0,331.0,330.0,698.0,700.0
4011,341,695,0,4011.0,4010.0,333.0,331.0,697.0,698.0
4012,343,691,0,4011.0,4011.0,341.0,333.0,695.0,697.0
4011,343,690,0,4012.0,4011.0,343.0,341.0,691.0,695.0
4012,345,690,0,4011.0,4012.0,343.0,343.0,690.0,691.0
4013,340,691,0,4012.0,4011.0,345.0,343.0,690.0,690.0
4015,334,689,0,4013.0,4012.0,340.0,345.0,691.0,690.0
4015,335,690,0,4015.0,4013.0,334.0,340.0,689.0,691.0
4013,338,690,0,4015.0,4015.0,335.0,334.0,690.0,689.0
4015,339,693,0,4013.0,4015.0,338.0,335.0,690.0,690.0
4016,334,694,0,4015.0,4013.0,339.0,338.0,693.0,690.0
4016,334,692,0,4016.0,4015.0,334.0,339.0,694.0,693.0
4015,332,691,0,4016.0,4016.0,334.0,334.0,692.0,694.0
4014,334,694,0,4015.0,4016.0,332.0,334.0,691.0,692.0
4015,332,694,0,4014.0,4015.0,334.0,332.0,694.0,691.0
4013,333,694,0,4015.0,4014.0,332.0,334.0,694.0,694.0
4014,331,694,0,4013.0,4015.0,333.0,332.0,694.0,694.0
4013,333,696,0,4014.0,4013.0,331.0,333.0,694.0,694.0
4008,335,696,0,4013.0,4014.0,333.0,331.0,696.0,694.0
4009,336,699,0,4008.0,4013.0,335.0,333.0,696.0,696.0
4009,337,697,0,4009.0,4008.0,336.0,335.0,699.0,696.0
4007,339,696,0,4009.0,4009.0,337.0,336.0,697.0,699.0
4005,342,698,0,4007.0,4009.0,339.0,337.0,696.0,697.0
4003,344,697,0,4005.0,4007.0,342.0,339.0,698.0,696.0
4002,346,699,0,4003.0,4005.0,344.0,342.0,697.0,698.0
4002,350,695,0,4002.0,4003.0,346.0,344.0,699.0,697.0
4006,347,694,0,4002.0,4002.0,350.0,346.0,695.0,699.0
4007,346,697,0,4006.0,4002.0,347.0,350.0,694.0,695.0
4009,342,698,0,4007.0,4006.0,346.0,347.0,697.0,694.0
4011,344,694,0,4009.0,4007.0,342.0,346.0,698.0,697.0
4011,345,695,0,4011.0,4009.0,344.0,342.0,694.0,698.0
4010,346,699,0,4011.0,4011.0,345.0,344.0,695.0,694.0
4015,349,697,0,4010.0,4011.0,346.0,345.0,699.0,695.0
4014,346,695,0,4015.0,4010.0,349.0,346.0,697.0,699.0
4019,342,695,0,4014.0,4015.0,346.0,349.0,695.0,697.0
4019,339,693,0,4019.0,4014.0,342.0,346.0,695.0,695.0
4021,342,692,0,4019.0,4019.0,339.0,342.0,693.0,695.0
4018,342,696,0,4021.0,4019.0,342.0,339.0,692.0,693.0
4016,344,696,0,4018.0,4021.0,342.0,342.0,696.0,692.0
4013,342,694,0,4016.0,4018.0,344.0,342.0,696.0,696.0
4013,339,694,0,4013.0,4016.0,342.0,344.0,694.0,696.0
4012,341,693,0,4013.0,4013.0,339.0,342.0,694.0,694.0
4012,340,696,0,4012.0,4013.0,341.0,339.0,693.0,694.0
4011,337,695,0,4012.0,4012.0,340.0,341.0,696.0,693.0
4013,337,696,0,4011.0,4012.0,337.0,340.0,695.0,696.0
4014,336,700,0,4013.0,4011.0,337.0,337.0,696.0,695.0
4010,337,700,0,4014.0,4013.0,336.0,337.0,700.0,696.0
4008,336,700,0,4010.0,4014.0,337.0,336.0,700.0,700.0
4004,334,702,0,4008.0,4010.0,336.0,337.0,700.0,700.0
4004,331,702,0,4004.0,4008.0,334.0,336.0,702.0,700.0
4003,329,700,0,4004.0,4004.0,331.0,334.0,702.0,702.0
4006,326,699,0,4003.0,4004.0,329.0,331.0,700.0,702.0
4004,324,699,0,4006.0,4003.0,326.0,329.0,699.0,700.0
4005,321,699,0,4004.0,4006.0,324.0,326.0,699.0,699.0
4003,317,702,0,4005.0,4004.0,321.0,324.0,699.0,699.0
4009,315,700,0,4003.0,4005.0,317.0,321.0,702.0,699.0
4010,315,697,0,4009.0,4003.0,315.0,317.0,700.0,702.0
4011,313,697,0,4010.0,4009.0,315.0,315.0,697.0,700.0
4013,314,698,0,4011.0,4010.0,313.0,315.0,697.0,697.0
4011,313,700,0,4013.0,4011.0,314.0,313.0,698.0,697.0
4011,314,700,0,4011.0,4013.0,313.0,314.0,700.0,698.0
4013,316,699,0,4011.0,4011.0,314.0,313.0,700.0,700.0
4012,315,699,0,4013.0,4011.0,316.0,314.0,699.0,700.0
4011,318,700,0,4012.0,4013.0,315.0,316.0,699.0,699.0
4011,320,695,0,4011.0,4012.0,318.0,315.0,700.0,699.0
4009,324,697,0,4011.0,4011.0,320.0,318.0,695.0,700.0
4010,323,696,0,4009.0,4011.0,324.0,320.0,697.0,695.0
4013,322,694,0,4010.0,4009.0,323.0,324.0,696.0,697.0
4012,321,696,0,4013.0,4010.0,322.0,323.0,694.0,696.0
4010,321,698,0,4012.0,4013.0,321.0,322.0,696.0,694.0
4006,321,694,0,4010.0,4012.0,321.0,321.0,698.0,696.0
4008,322,696,0,4006.0,4010.0,321.0,321.0,694.0,698.0
4007,316,698,0,4008.0,4006.0,322.0,321.0,696.0,694.0
4008,317,696,0,4007.0,4008.0,316.0,322.0,698.0,696.0
4009,316,695,0,4008.0,4007.0,317.0,316.0,696.0,698.0
4009,313,701,0,4009.0,4008.0,316.0,317.0,695.0,696.0
4010,309,697,0,4009.0,4009.0,313.0,316.0,701.0,695.0
4008,310,698,0,4010.0,4009.0,309.0,313.0,697.0,701.0
4010,312,699,0,4008.0,4010.0,310.0,309.0,698.0,697.0
4011,312,701,0,4010.0,4008.0,312.0,310.0,699.0,698.0
4010,310,702,0,4011.0,4010.0,312.0,312.0,701.0,699.0
4010,314,701,0,4010.0,4011.0,310.0,312.0,702.0,701.0
4011,315,700,0,4010.0,4010.0,314.0,310.0,701.0,702.0
4014,317,698,0,4011.0,4010.0,315.0,314.0,700.0,701.0
4014,322,698,0,4014.0,4011.0,317.0,315.0,698.0,700.0
4013,320,701,0,4014.0,4014.0,322.0,317.0,698.0,698.0
4014,324,699,0,4013.0,4014.0,320.0,322.0,701.0,698.0
4013,325,700,0,4014.0,4013.0,324.0,320.0,699.0,701.0
4013,324,696,0,4013.0,4014.0,325.0,324.0,700.0,699.0
4014,323,696,0,4013.0,4013.0,324.0,325.0,696.0,700.0
4015,323,697,0,4014.0,4013.0,323.0,324.0,696.0,696.0
4016,321,697,0,4015.0,4014.0,323.0,323.0,697.0,696.0
4014,322,696,0,4016.0,4015.0,321.0,323.0,697.0,697.0
4012,320,696,0,4014.0,4016.0,322.0,321.0,696.0,697.0
4015,323,697,0,4012.0,4014.0,320.0,322.0,696.0,696.0
4010,322,695,0,4015.0,4012.0,323.0,320.0,697.0,696.0
4011,328,694,0,4010.0,4015.0,322.0,323.0,695.0,697.0
4009,331,691,0,4011.0,4010.0,328.0,322.0,694.0,695.0
4011,333,687,0,4009.0,4011.0,331.0,328.0,691.0,694.0
4011,332,685,0,4011.0,4009.0,333.0,331.0,687.0,691.0
4008,336,685,0,4011.0,4011.0,332.0,333.0,685.0,687.0
4009,341,685,0,4008.0,4011.0,336.0,332.0,685.0,685.0
4004,341,685,0,4009.0,4008.0,341.0,336.0,685.0,685.0
4002,342,686,0,4004.0,4009.0,341.0,341.0,685.0,685.0
4002,342,688,0,4002.0,4004.0,342.0,341.0,686.0,685.0
4004,338,690,0,4002.0,4002.0,342.0,342.0,688.0,686.0
4000,333,692,0,4004.0,4002.0,338.0,342.0,690.0,688.0
4003,330,694,0,4000.0,4004.0,333.0,338.0,692.0,690.0
4000,328,696,0,4003.0,4000.0,330.0,333.0,694.0,692.0
4001,331,696,0,4000.0,4003.0,328.0,330.0,696.0,694.0
4007,329,698,0,4001.0,4000.0,331.0,328.0,696.0,696.0
4010,326,694,0,4007.0,4001.0,329.0,331.0,698.0,696.0
4014,329,695,0,4010.0,4007.0,326.0,329.0,694.0,698.0
4017,331,695,0,4014.0,4010.0,329.0,326.0,695.0,694.0
4020,334,693,0,4017.0,4014.0,331.0,329.0,695.0,695.0
4020,337,694,0,4020.0,4017.0,334.0,331.0,693.0,695.0
4019,338,694,0,4020.0,4020.0,337.0,334.0,694.0,693.0
4017,337,692,0,4019.0,4020.0,338.0,337.0,694.0,694.0
4015,338,691,0,4017.0,4019.0,337.0,338.0,692.0,694.0
4012,338,691,0,4015.0,4017.0,338.0,337.0,691.0,692.0
4010,336,694,0,4012.0,4015.0,338.0,338.0,691.0,691.0
4012,333,693,0,4010.0,4012.0,336.0,338.0,694.0,691.0
4008,328,692,0,4012.0,4010.0,333.0,336.0,693.0,694.0
4003,322,691,0,4008.0,4012.0,328.0,333.0,692.0,693.0
4002,318,693,0,4003.0,4008.0,322.0,328.0,691.0,692.0
3999,313,696,0,4002.0,4003.0,318.0,322.0,693.0,691.0
4002,309,699,0,3999.0,4002.0,313.0,318.0,696.0,693.0
4000,310,698,0,4002.0,3999.0,309.0,313.0,699.0,696.0
4002,311,698,0,4000.0,4002.0,310.0,309.0,698.0,699.0
4003,312,693,0,4002.0,4000.0,311.0,310.0,698.0,698.0
4003,314,692,0,4003.0,4002.0,312.0,311.0,693.0,698.0
4006,318,691,0,4003.0,4003.0,314.0,312.0,692.0,693.0
4008,324,692,0,4006.0,4003.0,318.0,314.0,691.0,692.0
4009,331,691,0,4008.0,4006.0,324.0,318.0,692.0,691.0
4009,340,689,0,4009.0,4008.0,331.0,324.0,691.0,692.0
4009,342,692,0,4009.0,4009.0,340.0,331.0,689.0,691.0
4007,347,694,0,4009.0,4009.0,342.0,340.0,692.0,689.0
4008,348,693,0,4007.0,4009.0,347.0,342.0,694.0,692.0
4005,350,693,0,4008.0,4007.0,348.0,347.0,693.0,694.0
4011,352,693,0,4005.0,4008.0,350.0,348.0,693.0,693.0
4009,353,691,0,4011.0,4005.0,352.0,350.0,693.0,693.0
4010,352,692,0,4009.0,4011.0,353.0,352.0,691.0,693.0
4009,352,690,0,4010.0,4009.0,352.0,353.0,692.0,691.0
4013,350,690,0,4009.0,4010.0,352.0,352.0,690.0,692.0
4017,349,691,0,4013.0,4009.0,350.0,352.0,690.0,690.0
4016,349,692,0,4017.0,4013.0,349.0,350.0,691.0,690.0
4016,347,690,0,4016.0,4017.0,349.0,349.0,692.0,691.0
4017,345,691,0,4016.0,4016.0,347.0,349.0,690.0,692.0
4018,344,690,0,4017.0,4016.0,345.0,347.0,691.0,690.0
4017,344,692,0,4018.0,4017.0,344.0,345.0,690.0,691.0
4017,344,694,0,4017.0,4018.0,344.0,344.0,692.0,690.0
4018,344,693,0,4017.0,4017.0,344.0,344.0,694.0,692.0
4018,344,692,0,4018.0,4017.0,344.0,344.0,693.0,694.0
4017,343,692,0,4018.0,4018.0,344.0,344.0,692.0,693.0
4014,342,690,0,4017.0,4018.0,343.0,344.0,692.0,692.0
4010,345,687,0,4014.0,4017.0,342.0,343.0,690.0,692.0
4008,349,688,0,4010.0,4014.0,345.0,342.0,687.0,690.0
4003,355,690,0,4008.0,4010.0,349.0,345.0,688.0,687.0
4001,354,689,0,4003.0,4008.0,355.0,349.0,690.0,688.0
4003,351,687,0,4001.0,4003.0,354.0,355.0,689.0,690.0
4003,350,688,0,4003.0,4001.0,351.0,354.0,687.0,689.0
4003,344,686,0,4003.0,4003.0,350.0,351.0,688.0,687.0
4001,342,686,0,4003.0,4003.0,344.0,350.0,686.0,688.0
4000,341,685,0,4001.0,4003.0,342.0,344.0,686.0,686.0
4002,339,684,0,4000.0,4001.0,341.0,342.0,685.0,686.0
4002,336,686,0,4002.0,4000.0,339.0,341.0,684.0,685.0
4004,338,685,0,4002.0,4002.0,336.0,339.0,686.0,684.0
4006,341,686,0,4004.0,4002.0,338.0,336.0,685.0,686.0
4011,338,687,0,4006.0,4004.0,341.0,338.0,686.0,685.0
4013,339,692,0,4011.0,4006.0,338.0,341.0,687.0,686.0
4013,343,688,0,4013.0,4011.0,339.0,338.0,692.0,687.0
4014,343,688,0,4013.0,4013.0,343.0,339.0,688.0,692.0
4009,345,688,0,4014.0,4013.0,343.0,343.0,688.0,688.0
4008,347,688,0,4009.0,4014.0,345.0,343.0,688.0,688.0
4007,347,688,0,4008.0,4009.0,347.0,345.0,688.0,688.0
4008,345,690,0,4007.0,4008.0,347.0,347.0,688.0,688.0
4006,347,687,0,4008.0,4007.0,345.0,347.0,690.0,688.0
4007,349,689,0,4006.0,4008.0,347.0,345.0,687.0,690.0
4012,347,688,0,4007.0,4006.0,349.0,347.0,689.0,687.0
4010,347,688,0,4012.0,4007.0,347.0,349.0,688.0,689.0
4012,341,687,0,4010.0,4012.0,347.0,347.0,688.0,688.0
4008,337,689,0,4012.0,4010.0,341.0,347.0,687.0,688.0
4005,335,693,0,4008.0,4012.0,337.0,341.0,689.0,687.0
4001,333,693,0,4005.0,4008.0,335.0,337.0,693.0,689.0
4001,330,699,0,4001.0,4005.0,333.0,335.0,693.0,693.0
3998,325,699,0,4001.0,4001.0,330.0,333.0,699.0,693.0
4000,325,698,0,3998.0,4001.0,325.0,330.0,699.0,699.0
4002,321,694,0,4000.0,3998.0,325.0,325.0,698.0,699.0
4006,318,693,0,4002.0,4000.0,321.0,325.0,694.0,698.0
4009,319,692,0,4006.0,4002.0,318.0,321.0,693.0,694.0
4009,320,691,0,4009.0,4006.0,319.0,318.0,692.0,693.0
4009,317,690,0,4009.0,4009.0,320.0,319.0,691.0,692.0
4011,318,688,0,4009.0,4009.0,317.0,320.0,690.0,691.0
4012,318,682,0,4011.0,4009.0,318.0,317.0,688.0,690.0
4016,323,683,0,4012.0,4011.0,318.0,318.0,682.0,688.0
4013,327,685,0,4016.0,4012.0,323.0,318.0,683.0,682.0
4008,327,691,0,4013.0,4016.0,327.0,323.0,685.0,683.0
4006,327,695,0,4008.0,4013.0,327.0,327.0,691.0,685.0
4007,328,692,0,4006.0,4008.0,327.0,327.0,695.0,691.0
4010,327,689,0,4007.0,4006.0,328.0,327.0,692.0,695.0
4015,328,685,0,4010.0,4007.0,327.0,328.0,689.0,692.0
4021,329,677,0,4015.0,4010.0,328.0,327.0,685.0,689.0
4024,333,675,0,4021.0,4015.0,329.0,328.0,677.0,685.0
4026,336,676,0,4024.0,4021.0,333.0,329.0,675.0,677.0
4020,335,678,0,4026.0,4024.0,336.0,333.0,676.0,675.0
4017,333,681,0,4020.0,4026.0,335.0,336.0,678.0,676.0
4016,337,680,0,4017.0,4020.0,333.0,335.0,681.0,678.0
4016,334,685,0,4016.0,4017.0,337.0,333.0,680.0,681.0
4013,331,682,0,4016.0,4016.0,334.0,337.0,685.0,680.0
4012,329,682,0,4013.0,4016.0,331.0,334.0,682.0,685.0
4014,334,683,0,4012.0,4013.0,329.0,331.0,682.0,682.0
4016,333,685,0,4014.0,4012.0,334.0,329.0,683.0,682.0
4015,332,684,0,4016.0,4014.0,333.0,334.0,685.0,683.0
4012,335,686,0,4015.0,4016.0,332.0,333.0,684.0,685.0
4012,331,689,0,4012.0,4015.0,335.0,332.0,686.0,684.0
4007,329,691,0,4012.0,4012.0,331.0,335.0,689.0,686.0
4008,326,690,0,4007.0,4012.0,329.0,331.0,691.0,689.0
4006,325,690,0,4008.0,4007.0,326.0,329.0,690.0,691.0
4007,328,685,0,4006.0,4008.0,325.0,326.0,690.0,690.0
4010,330,688,0,4007.0,4006.0,328.0,325.0,685.0,690.0
4010,333,688,0,4010.0,4007.0,330.0,328.0,688.0,685.0
4008,331,693,0,4010.0,4010.0,333.0,330.0,688.0,688.0
4006,333,694,0,4008.0,4010.0,331.0,333.0,693.0,688.0
4003,331,691,0,4006.0,4008.0,333.0,331.0,694.0,693.0
4007,329,685,0,4003.0,4006.0,331.0,333.0,691.0,694.0
4011,330,679,0,4007.0,4003.0,329.0,331.0,685.0,691.0
4014,332,675,0,4011.0,4007.0,330.0,329.0,679.0,685.0
4018,334,675,0,4014.0,4011.0,332.0,330.0,675.0,679.0
4016,338,674,0,4018.0,4014.0,334.0,332.0,675.0,675.0
4015,339,675,0,4016.0,4018.0,338.0,334.0,674.0,675.0
4013,342,675,0,4015.0,4016.0,339.0,338.0,675.0,674.0
4012,341,674,0,4013.0,4015.0,342.0,339.0,675.0,675.0
4012,342,678,0,4012.0,4013.0,341.0,342.0,674.0,675.0
4010,342,681,0,4012.0,4012.0,342.0,341.0,678.0,674.0
4013,340,680,0,4010.0,4012.0,342.0,342.0,681.0,678.0
4010,338,682,0,4013.0,4010.0,340.0,342.0,680.0,681.0
4010,338,681,0,4010.0,4013.0,338.0,340.0,682.0,680.0
4011,338,683,0,4010.0,4010.0,338.0,338.0,681.0,682.0
4012,338,683,0,4011.0,4010.0,338.0,338.0,683.0,681.0
4014,337,683,0,4012.0,4011.0,338.0,338.0,683.0,683.0
4015,338,682,0,4014.0,4012.0,337.0,338.0,683.0,683.0
4014,336,682,0,4015.0,4014.0,338.0,337.0,682.0,683.0
4015,334,677,0,4014.0,4015.0,336.0,338.0,682.0,682.0
4014,334,680,0,4015.0,4014.0,334.0,336.0,677.0,682.0
4015,339,682,0,4014.0,4015.0,334.0,334.0,680.0,677.0
4015,339,682,0,4015.0,4014.0,339.0,334.0,682.0,680.0
4017,337,684,0,4015.0,4015.0,339.0,339.0,682.0,682.0
4014,340,684,0,4017.0,4015.0,337.0,339.0,684.0,682.0
4011,340,684,0,4014.0,4017.0,340.0,337.0,684.0,684.0
4014,343,683,0,4011.0,4014.0,340.0,340.0,684.0,684.0
4014,344,682,0,4014.0,4011.0,343.0,340.0,683.0,684.0
4013,343,683,0,4014.0,4014.0,344.0,343.0,682.0,683.0
4011,343,682,0,4013.0,4014.0,343.0,344.0,683.0,682.0
4014,343,680,0,4011.0,4013.0,343.0,343.0,682.0,683.0
4018,344,678,0,4014.0,4011.0,343.0,343.0,680.0,682.0
4020,343,681,0,4018.0,4014.0,344.0,343.0,678.0,680.0
4018,342,681,0,4020.0,4018.0,343.0,344.0,681.0,678.0
4014,339,680,0,4018.0,4020.0,342.0,343.0,681.0,681.0
4011,342,678,0,4014.0,4018.0,339.0,342.0,680.0,681.0
4009,343,680,0,4011.0,4014.0,342.0,339.0,678.0,680.0
4009,343,684,0,4009.0,4011.0,343.0,342.0,680.0,678.0
4011,342,685,0,4009.0,4009.0,343.0,343.0,684.0,680.0
4008,345,683,0,4011.0,4009.0,342.0,343.0,685.0,684.0
4008,347,681,0,4008.0,4011.0,345.0,342.0,683.0,685.0
4009,345,680,0,4008.0,4008.0,347.0,345.0,681.0,683.0
4009,344,681,0,4009.0,4008.0,345.0,347.0,680.0,681.0
4010,344,679,0,4009.0,4009.0,344.0,345.0,681.0,680.0
4007,342,680,0,4010.0,4009.0,344.0,344.0,679.0,681.0
4007,342,681,0,4007.0,4010.0,342.0,344.0,680.0,679.0
4007,341,684,0,4007.0,4007.0,342.0,342.0,681.0,680.0
4009,339,684,0,4007.0,4007.0,341.0,342.0,684.0,681.0
4009,338,686,0,4009.0,4007.0,339.0,341.0,684.0,684.0
4009,338,686,0,4009.0,4009.0,338.0,339.0,686.0,684.0
4008,338,685,0,4009.0,4009.0,338.0,338.0,686.0,686.0
4008,342,686,0,4008.0,4009.0,338.0,338.0,685.0,686.0
4008,340,686,0,4008.0,4008.0,342.0,338.0,686.0,685.0
4005,341,683,0,4008.0,4008.0,340.0,342.0,686.0,686.0
4004,343,684,0,4005.0,4008.0,341.0,340.0,683.0,686.0
4007,342,683,0,4004.0,4005.0,343.0,341.0,684.0,683.0
4011,347,681,0,4007.0,4004.0,342.0,343.0,683.0,684.0
4019,352,687,0,4011.0,4007.0,347.0,342.0,681.0,683.0
4022,358,686,0,4019.0,4011.0,352.0,347.0,687.0,681.0
4025,360,684,0,4022.0,4019.0,358.0,352.0,686.0,687.0
4023,361,682,0,4025.0,4022.0,360.0,358.0,684.0,686.0
4019,360,682,0,4023.0,4025.0,361.0,360.0,682.0,684.0
4015,363,678,0,4019.0,4023.0,360.0,361.0,682.0,682.0
4014,358,676,0,4015.0,4019.0,363.0,360.0,678.0,682.0
4015,352,683,0,4014.0,4015.0,358.0,363.0,676.0,678.0
4013,349,681,0,4015.0,4014.0,352.0,358.0,683.0,676.0
4012,346,688,0,4013.0,4015.0,349.0,352.0,681.0,683.0
4010,342,688,0,4012.0,4013.0,346.0,349.0,688.0,681.0
4010,340,693,0,4010.0,4012.0,342.0,346.0,688.0,688.0
4008,337,693,0,4010.0,4010.0,340.0,342.0,693.0,688.0
4007,335,692,0,4008.0,4010.0,337.0,340.0,693.0,693.0
4010,334,688,0,4007.0,4008.0,335.0,337.0,692.0,693.0
4008,334,687,0,4010.0,4007.0,334.0,335.0,688.0,692.0
4009,333,687,0,4008.0,4010.0,334.0,334.0,687.0,688.0
4008,336,685,0,4009.0,4008.0,333.0,334.0,687.0,687.0
4006,334,690,0,4008.0,4009.0,336.0,333.0,685.0,687.0
4005,332,690,0,4006.0,4008.0,334.0,336.0,690.0,685.0
4006,332,694,0,4005.0,4006.0,332.0,334.0,690.0,690.0
4003,334,695,0,4006.0,4005.0,332.0,332.0,694.0,690.0
4006,334,694,0,4003.0,4006.0,334.0,332.0,695.0,694.0
4004,332,693,0,4006.0,4003.0,334.0,334.0,694.0,695.0
4000,334,690,0,4004.0,4006.0,332.0,334.0,693.0,694.0
4002,334,691,0,4000.0,4004.0,334.0,332.0,690.0,693.0
4005,336,688,0,4002.0,4000.0,334.0,334.0,691.0,690.0
4009,334,686,0,4005.0,4002.0,336.0,334.0,688.0,691.0
4010,338,686,0,4009.0,4005.0,334.0,336.0,686.0,688.0
4010,340,689,0,4010.0,4009.0,338.0,334.0,686.0,686.0
4010,342,686,0,4010.0,4010.0,340.0,338.0,689.0,686.0
4012,339,687,0,4010.0,4010.0,342.0,340.0,686.0,689.0
4012,338,686,0,4012.0,4010.0,339.0,342.0,687.0,686.0
4017,337,684,0,4012.0,4012.0,338.0,339.0,686.0,687.0
4021,340,688,0,4017.0,4012.0,337.0,338.0,684.0,686.0
4020,341,686,0,4021.0,4017.0,340.0,337.0,688.0,684.0
4020,343,686,0,4020.0,4021.0,341.0,340.0,686.0,688.0
4023,347,682,0,4020.0,4020.0,343.0,341.0,686.0,686.0
4021,343,684,0,4023.0,4020.0,347.0,343.0,682.0,686.0
4016,343,684,0,4021.0,4023.0,343.0,347.0,684.0,682.0
4013,344,684,0,4016.0,4021.0,343.0,343.0,684.0,684.0
4013,342,682,0,4013.0,4016.0,344.0,343.0,684.0,684.0
4013,345,683,0,4013.0,4013.0,342.0,344.0,682.0,684.0
4011,345,682,0,4013.0,4013.0,345.0,342.0,683.0,682.0
4003,342,682,0,4011.0,4013.0,345.0,345.0,682.0,683.0
4005,338,686,0,4003.0,4011.0,342.0,345.0,682.0,682.0
4006,337,688,0,4005.0,4003.0,338.0,342.0,686.0,682.0
4008,335,687,0,4006.0,4005.0,337.0,338.0,688.0,686.0
4007,335,686,0,4008.0,4006.0,335.0,337.0,687.0,688.0
4005,332,687,0,4007.0,4008.0,335.0,335.0,686.0,687.0
4005,330,686,0,4005.0,4007.0,332.0,335.0,687.0,686.0
4004,326,684,0,4005.0,4005.0,330.0,332.0,686.0,687.0
4004,329,687,0,4004.0,4005.0,326.0,330.0,684.0,686.0
4005,333,687,0,4004.0,4004.0,329.0,326.0,687.0,684.0
4006,335,688,0,4005.0,4004.0,333.0,329.0,687.0,687.0
4008,338,685,0,4006.0,4005.0,335.0,333.0,688.0,687.0
4010,340,680,0,4008.0,4006.0,338.0,335.0,685.0,688.0
4011,344,680,0,4010.0,4008.0,340.0,338.0,680.0,685.0
4005,345,683,0,4011.0,4010.0,344.0,340.0,680.0,680.0
4006,348,679,0,4005.0,4011.0,345.0,344.0,683.0,680.0
4007,348,680,0,4006.0,4005.0,348.0,345.0,679.0,683.0
4009,346,684,0,4007.0,4006.0,348.0,348.0,680.0,679.0
4011,348,680,0,4009.0,4007.0,346.0,348.0,684.0,680.0
4011,348,681,0,4011.0,4009.0,348.0,346.0,680.0,684.0
4015,345,681,0,4011.0,4011.0,348.0,348.0,681.0,680.0
4015,342,678,0,4015.0,4011.0,345.0,348.0,681.0,681.0
4013,342,677,0,4015.0,4015.0,342.0,345.0,678.0,681.0
4014,343,679,0,4013.0,4015.0,342.0,342.0,677.0,678.0
4016,341,677,0,4014.0,4013.0,343.0,342.0,679.0,677.0
4015,341,679,0,4016.0,4014.0,341.0,343.0,677.0,679.0
4016,337,683,0,4015.0,4016.0,341.0,341.0,679.0,677.0
4014,334,684,0,4016.0,4015.0,337.0,341.0,683.0,679.0
4015,334,683,0,4014.0,4016.0,334.0,337.0,684.0,683.0
4011,336,685,0,4015.0,4014.0,334.0,334.0,683.0,684.0
4012,333,686,0,4011.0,4015.0,336.0,334.0,685.0,683.0
4014,336,682,0,4012.0,4011.0,333.0,336.0,686.0,685.0
4012,337,682,0,4014.0,4012.0,336.0,333.0,682.0,686.0
4011,342,684,0,4012.0,4014.0,337.0,336.0,682.0,682.0
4009,341,686,0,4011.0,4012.0,342.0,337.0,684.0,682.0
4007,338,687,0,4009.0,4011.0,341.0,342.0,686.0,684.0
4007,339,690,0,4007.0,4009.0,338.0,341.0,687.0,686.0
4007,337,688,0,4007.0,4007.0,339.0,338.0,690.0,687.0
4007,338,688,0,4007.0,4007.0,337.0,339.0,688.0,690.0
4006,337,688,0,4007.0,4007.0,338.0,337.0,688.0,688.0
4008,336,688,0,4006.0,4007.0,337.0,338.0,688.0,688.0
4008,332,685,0,4008.0,4006.0,336.0,337.0,688.0,688.0
4006,331,685,0,4008.0,4008.0,332.0,336.0,685.0,688.0
4008,332,682,0,4006.0,4008.0,331.0,332.0,685.0,685.0
4009,330,686,0,4008.0,4006.0,332.0,331.0,682.0,685.0
4011,331,689,0,4009.0,4008.0,330.0,332.0,686.0,682.0
4012,331,688,0,4011.0,4009.0,331.0,330.0,689.0,686.0
4013,333,686,0,4012.0,4011.0,331.0,331.0,688.0,689.0
4016,335,685,0,4013.0,4012.0,333.0,331.0,686.0,688.0
4013,339,682,0,4016.0,4013.0,335.0,333.0,685.0,686.0
4010,342,682,0,4013.0,4016.0,339.0,335.0,682.0,685.0
4010,345,683,0,4010.0,4013.0,342.0,339.0,682.0,682.0
4009,346,683,0,4010.0,4010.0,345.0,342.0,683.0,682.0
4009,344,681,0,4009.0,4010.0,346.0,345.0,683.0,683.0
4007,347,679,0,4009.0,4009.0,344.0,346.0,681.0,683.0
4009,344,681,0,4007.0,4009.0,347.0,344.0,679.0,681.0
4010,343,683,0,4009.0,4007.0,344.0,347.0,681.0,679.0
4010,343,682,0,4010.0,4009.0,343.0,344.0,683.0,681.0
4012,344,682,0,4010.0,4010.0,343.0,343.0,682.0,683.0
4013,344,686,0,4012.0,4010.0,344.0,343.0,682.0,682.0
4012,345,687,0,4013.0,4012.0,344.0,344.0,686.0,682.0
4010,346,686,0,4012.0,4013.0,345.0,344.0,687.0,686.0
4009,344,681,0,4010.0,4012.0,346.0,345.0,686.0,687.0
4011,344,684,0,4009.0,4010.0,344.0,346.0,681.0,686.0
4011,339,682,0,4011.0,4009.0,344.0,344.0,684.0,681.0
4011,336,685,0,4011.0,4011.0,339.0,344.0,682.0,684.0
4008,339,684,0,4011.0,4011.0,336.0,339.0,685.0,682.0
4009,340,685,0,4008.0,4011.0,339.0,336.0,684.0,685.0
4010,343,685,0,4009.0,4008.0,340.0,339.0,685.0,684.0
4014,343,685,0,4010.0,4009.0,343.0,340.0,685.0,685.0
4014,345,684,0,4014.0,4010.0,343.0,343.0,685.0,685.0
4012,345,685,0,4014.0,4014.0,345.0,343.0,684.0,685.0
4008,345,685,0,4012.0,4014.0,345.0,345.0,685.0,684.0
4011,347,683,0,4008.0,4012.0,345.0,345.0,685.0,685.0
4009,347,681,0,4011.0,4008.0,347.0,345.0,683.0,685.0
4009,348,682,0,4009.0,4011.0,347.0,347.0,681.0,683.0
4009,350,682,0,4009.0,4009.0,348.0,347.0,682.0,681.0
4010,347,679,0,4009.0,4009.0,350.0,348.0,682.0,682.0
4015,344,677,0,4010.0,4009.0,347.0,350.0,679.0,682.0
4012,344,679,0,4015.0,4010.0,344.0,347.0,677.0,679.0
4012,343,675,0,4012.0,4015.0,344.0,344.0,679.0,677.0
4011,340,676,0,4012.0,4012.0,343.0,344.0,675.0,679.0
4012,337,681,0,4011.0,4012.0,340.0,343.0,676.0,675.0
4013,336,683,0,4012.0,4011.0,337.0,340.0,681.0,676.0
4012,340,683,0,4013.0,4012.0,336.0,337.0,683.0,681.0
4012,343,686,0,4012.0,4013.0,340.0,336.0,683.0,683.0
4011,341,686,0,4012.0,4012.0,343.0,340.0,686.0,683.0
4013,341,685,0,4011.0,4012.0,341.0,343.0,686.0,686.0
4011,345,686,0,4013.0,4011.0,341.0,341.0,685.0,686.0
4012,345,692,0,4011.0,4013.0,345.0,341.0,686.0,685.0
4013,345,691,0,4012.0,4011.0,345.0,345.0,692.0,686.0
4013,349,691,0,4013.0,4012.0,345.0,345.0,691.0,692.0
4013,352,686,0,4013.0,4013.0,349.0,345.0,691.0,691.0
4011,347,685,0,4013.0,4013.0,352.0,349.0,686.0,691.0
4009,349,684,0,4011.0,4013.0,347.0,352.0,685.0,686.0
4007,348,685,0,4009.0,4011.0,349.0,347.0,684.0,685.0
4005,345,685,0,4007.0,4009.0,348.0,349.0,685.0,684.0
4004,342,683,0,4005.0,4007.0,345.0,348.0,685.0,685.0
4005,345,684,0,4004.0,4005.0,342.0,345.0,683.0,685.0
4008,344,685,0,4005.0,4004.0,345.0,342.0,684.0,683.0
4011,345,684,0,4008.0,4005.0,344.0,345.0,685.0,684.0
4012,346,680,0,4011.0,4008.0,345.0,344.0,684.0,685.0
4014,346,682,0,4012.0,4011.0,346.0,345.0,680.0,684.0
4014,349,682,0,4014.0,4012.0,346.0,346.0,682.0,680.0
4014,349,682,0,4014.0,4014.0,349.0,346.0,682.0,682.0
4014,350,682,0,4014.0,4014.0,349.0,349.0,682.0,682.0
4011,351,685,0,4014.0,4014.0,350.0,349.0,682.0,682.0
4013,348,685,0,4011.0,4014.0,351.0,350.0,685.0,682.0
4011,349,685,0,4013.0,4011.0,348.0,351.0,685.0,685.0
4013,345,685,0,4011.0,4013.0,349.0,348.0,685.0,685.0
4013,345,685,0,4013.0,4011.0,345.0,349.0,685.0,685.0
4014,343,687,0,4013.0,4013.0,345.0,345.0,685.0,685.0
4013,341,684,0,4014.0,4013.0,343.0,345.0,687.0,685.0
4010,342,682,0,4013.0,4014.0,341.0,343.0,684.0,687.0
4011,344,682,0,4010.0,4013.0,342.0,341.0,682.0,684.0
4008,340,679,0,4011.0,4010.0,344.0,342.0,682.0,682.0
4012,339,683,0,4008.0,4011.0,340.0,344.0,679.0,682.0
4010,339,685,0,4012.0,4008.0,339.0,340.0,683.0,679.0
4013,343,683,0,4010.0,4012.0,339.0,339.0,685.0,683.0
4012,347,685,0,4013.0,4010.0,343.0,339.0,683.0,685.0
4015,348,687,0,4012.0,4013.0,347.0,343.0,685.0,683.0
4014,348,685,0,4015.0,4012.0,348.0,347.0,687.0,685.0
4013,347,684,0,4014.0,4015.0,348.0,348.0,685.0,687.0
4011,347,685,0,4013.0,4014.0,347.0,348.0,684.0,685.0
4009,343,687,0,4011.0,4013.0,347.0,347.0,685.0,684.0
4007,339,686,0,4009.0,4011.0,343.0,347.0,687.0,685.0
4006,339,686,0,4007.0,4009.0,339.0,343.0,686.0,687.0
4002,339,686,0,4006.0,4007.0,339.0,339.0,686.0,686.0
3999,341,682,0,4002.0,4006.0,339.0,339.0,686.0,686.0
3996,345,684,0,3999.0,4002.0,341.0,339.0,682.0,686.0
4001,348,684,0,3996.0,3999.0,345.0,341.0,684.0,682.0
4007,349,686,0,4001.0,3996.0,348.0,345.0,684.0,684.0
4010,350,686,0,4007.0,4001.0,349.0,348.0,686.0,684.0
4014,353,686,0,4010.0,4007.0,350.0,349.0,686.0,686.0
4016,356,682,0,4014.0,4010.0,353.0,350.0,686.0,686.0
4020,364,681,0,4016.0,4014.0,356.0,353.0,682.0,686.0
4019,364,683,0,4020.0,4016.0,364.0,356.0,681.0,682.0
4029,364,682,0,4019.0,4020.0,364.0,364.0,683.0,681.0
4025,364,685,0,4029.0,4019.0,364.0,364.0,682.0,683.0
4020,359,684,0,4025.0,4029.0,364.0,364.0,685.0,682.0
4018,355,678,0,4020.0,4025.0,359.0,364.0,684.0,685.0
4014,349,679,0,4018.0,4020.0,355.0,359.0,678.0,684.0
4011,340,686,0,4014.0,4018.0,349.0,355.0,679.0,678.0
4012,333,688,0,4011.0,4014.0,340.0,349.0,686.0,679.0
4010,327,693,0,4012.0,4011.0,333.0,340.0,688.0,686.0
4005,321,695,0,4010.0,4012.0,327.0,333.0,693.0,688.0
4003,318,696,0,4005.0,4010.0,321.0,327.0,695.0,693.0
4001,314,696,0,4003.0,4005.0,318.0,321.0,696.0,695.0
3999,317,696,0,4001.0,4003.0,314.0,318.0,696.0,696.0
4003,317,695,0,3999.0,4001.0,317.0,314.0,696.0,696.0
4006,319,693,0,4003.0,3999.0,317.0,317.0,695.0,696.0
4006,321,696,0,4006.0,4003.0,319.0,317.0,693.0,695.0
4007,325,695,0,4006.0,4006.0,321.0,319.0,696.0,693.0
4006,327,691,0,4007.0,4006.0,325.0,321.0,695.0,696.0
4009,330,689,0,4006.0,4007.0,327.0,325.0,691.0,695.0
4007,334,682,0,4009.0,4006.0,330.0,327.0,689.0,691.0
4003,333,682,0,4007.0,4009.0,334.0,330.0,682.0,689.0
4005,336,680,0,4003.0,4007.0,333.0,334.0,682.0,682.0
4009,340,683,0,4005.0,4003.0,336.0,333.0,680.0,682.0
4010,339,684,0,4009.0,4005.0,340.0,336.0,683.0,680.0
4006,338,685,0,4010.0,4009.0,339.0,340.0,684.0,683.0
4006,338,684,0,4006.0,4010.0,338.0,339.0,685.0,684.0
4006,343,687,0,4006.0,4006.0,338.0,338.0,684.0,685.0
4007,344,687,0,4006.0,4006.0,343.0,338.0,687.0,684.0
4010,340,684,0,4007.0,4006.0,344.0,343.0,687.0,687.0
4015,339,683,0,4010.0,4007.0,340.0,344.0,684.0,687.0
4015,341,684,0,4015.0,4010.0,339.0,340.0,683.0,684.0
4016,341,685,0,4015.0,4015.0,341.0,339.0,684.0,683.0
4015,344,683,0,4016.0,4015.0,341.0,341.0,685.0,684.0
4019,344,683,0,4015.0,4016.0,344.0,341.0,683.0,685.0
4021,346,681,0,4019.0,4015.0,344.0,344.0,683.0,683.0
4022,349,683,0,4021.0,4019.0,346.0,344.0,681.0,683.0
4022,349,680,0,4022.0,4021.0,349.0,346.0,683.0,681.0
4018,351,681,0,4022.0,4022.0,349.0,349.0,680.0,683.0
4017,352,680,0,4018.0,4022.0,351.0,349.0,681.0,680.0
4015,349,680,0,4017.0,4018.0,352.0,351.0,680.0,681.0
4013,347,680,0,4015.0,4017.0,349.0,352.0,680.0,680.0
4011,344,680,0,4013.0,4015.0,347.0,349.0,680.0,680.0
4009,336,681,0,4011.0,4013.0,344.0,347.0,680.0,680.0
4006,336,685,0,4009.0,4011.0,336.0,344.0,681.0,680.0
4004,333,685,0,4006.0,4009.0,336.0,336.0,685.0,681.0
4005,331,687,0,4004.0,4006.0,333.0,336.0,685.0,685.0
4004,326,690,0,4005.0,4004.0,331.0,333.0,687.0,685.0
4003,328,693,0,4004.0,4005.0,326.0,331.0,690.0,687.0
4000,326,689,0,4003.0,4004.0,328.0,326.0,693.0,690.0
4000,328,688,0,4000.0,4003.0,326.0,328.0,689.0,693.0
4000,326,685,0,4000.0,4000.0,328.0,326.0,688.0,689.0
4001,329,687,0,4000.0,4000.0,326.0,328.0,685.0,688.0
4003,333,682,0,4001.0,4000.0,329.0,326.0,687.0,685.0
4009,336,684,0,4003.0,4001.0,333.0,329.0,682.0,687.0
4014,341,678,0,4009.0,4003.0,336.0,333.0,684.0,682.0
4014,345,675,0,4014.0,4009.0,341.0,336.0,678.0,684.0
4015,349,673,0,4014.0,4014.0,345.0,341.0,675.0,678.0
4015,351,674,0,4015.0,4014.0,349.0,345.0,673.0,675.0
4015,354,674,0,4015.0,4015.0,351.0,349.0,674.0,673.0
4013,354,673,0,4015.0,4015.0,354.0,351.0,674.0,674.0
4014,351,678,0,4013.0,4015.0,354.0,354.0,673.0,674.0
4014,353,675,0,4014.0,4013.0,351.0,354.0,678.0,673.0
4015,349,679,0,4014.0,4014.0,353.0,351.0,675.0,678.0
4011,346,676,0,4015.0,4014.0,349.0,353.0,679.0,675.0
4011,344,676,0,4011.0,4015.0,346.0,349.0,676.0,679.0
4016,344,676,0,4011.0,4011.0,344.0,346.0,676.0,676.0
4013,345,677,0,4016.0,4011.0,344.0,344.0,676.0,676.0
4015,341,677,0,4013.0,4016.0,345.0,344.0,677.0,676.0
4013,335,679,0,4015.0,4013.0,341.0,345.0,677.0,677.0
4014,332,681,0,4013.0,4015.0,335.0,341.0,679.0,677.0
4016,337,679,0,4014.0,4013.0,332.0,335.0,681.0,679.0
4015,337,682,0,4016.0,4014.0,337.0,332.0,679.0,681.0
4014,340,681,0,4015.0,4016.0,337.0,337.0,682.0,679.0
4015,339,684,0,4014.0,4015.0,340.0,337.0,681.0,682.0
4012,342,682,0,4015.0,4014.0,339.0,340.0,684.0,681.0
4013,340,679,0,4012.0,4015.0,342.0,339.0,682.0,684.0
4014,344,682,0,4013.0,4012.0,340.0,342.0,679.0,682.0
4015,345,680,0,4014.0,4013.0,344.0,340.0,682.0,679.0
4015,340,677,0,4015.0,4014.0,345.0,344.0,680.0,682.0
4015,340,675,0,4015.0,4015.0,340.0,345.0,677.0,680.0
4012,340,674,0,4015.0,4015.0,340.0,340.0,675.0,677.0
4011,339,676,0,4012.0,4015.0,340.0,340.0,674.0,675.0
4008,338,675,0,4011.0,4012.0,339.0,340.0,676.0,674.0
4007,339,674,0,4008.0,4011.0,338.0,339.0,675.0,676.0
4010,338,676,0,4007.0,4008.0,339.0,338.0,674.0,675.0
4009,339,677,0,4010.0,4007.0,338.0,339.0,676.0,674.0
4011,336,677,0,4009.0,4010.0,339.0,338.0,677.0,676.0
4015,338,677,0,4011.0,4009.0,336.0,339.0,677.0,677.0
4015,339,679,0,4015.0,4011.0,338.0,336.0,677.0,677.0
4014,343,679,0,4015.0,4015.0,339.0,338.0,679.0,677.0
4012,347,682,0,4014.0,4015.0,343.0,339.0,679.0,679.0
4012,347,682,0,4012.0,4014.0,347.0,343.0,682.0,679.0
4011,346,681,0,4012.0,4012.0,347.0,347.0,682.0,682.0
4011,347,682,0,4011.0,4012.0,346.0,347.0,681.0,682.0
4010,346,680,0,4011.0,4011.0,347.0,346.0,682.0,681.0
4012,349,676,0,4010.0,4011.0,346.0,347.0,680.0,682.0
4011,349,678,0,4012.0,4010.0,349.0,346.0,676.0,680.0
4014,348,678,0,4011.0,4012.0,349.0,349.0,678.0,676.0
4014,342,683,0,4014.0,4011.0,348.0,349.0,678.0,678.0
4014,342,683,0,4014.0,4014.0,342.0,348.0,683.0,678.0
4012,341,681,0,4014.0,4014.0,342.0,342.0,683.0,683.0
4013,343,679,0,4012.0,4014.0,341.0,342.0,681.0,683.0
4011,341,679,0,4013.0,4012.0,343.0,341.0,679.0,681.0
4012,340,678,0,4011.0,4013.0,341.0,343.0,679.0,679.0
4011,341,682,0,4012.0,4011.0,340.0,341.0,678.0,679.0
4007,341,683,0,4011.0,4012.0,341.0,340.0,682.0,678.0
4008,342,687,0,4007.0,4011.0,341.0,341.0,683.0,682.0
4009,342,685,0,4008.0,4007.0,342.0,341.0,687.0,683.0
4009,338,677,0,4009.0,4008.0,342.0,342.0,685.0,687.0
4011,339,676,0,4009.0,4009.0,338.0,342.0,677.0,685.0
4007,340,675,0,4011.0,4009.0,339.0,338.0,676.0,677.0
4005,343,672,0,4007.0,4011.0,340.0,339.0,675.0,676.0
4003,343,672,0,4005.0,4007.0,343.0,340.0,672.0,675.0
4004,347,670,0,4003.0,4005.0,343.0,343.0,672.0,672.0
4004,349,672,0,4004.0,4003.0,347.0,343.0,670.0,672.0
4005,356,672,0,4004.0,4004.0,349.0,347.0,672.0,670.0
4006,357,670,0,4005.0,4004.0,356.0,349.0,672.0,672.0
4006,357,670,0,4006.0,4005.0,357.0,356.0,670.0,672.0
4006,359,666,0,4006.0,4006.0,357.0,357.0,670.0,670.0
4006,358,666,0,4006.0,4006.0,359.0,357.0,666.0,670.0
4005,355,667,0,4006.0,4006.0,358.0,359.0,666.0,666.0
4000,354,671,0,4005.0,4006.0,355.0,358.0,667.0,666.0
4005,351,672,0,4000.0,4005.0,354.0,355.0,671.0,667.0
4005,351,673,0,4005.0,4000.0,351.0,354.0,672.0,671.0
4003,351,678,0,4005.0,4005.0,351.0,351.0,673.0,672.0
4005,350,677,0,4003.0,4005.0,351.0,351.0,678.0,673.0
4011,352,678,0,4005.0,4003.0,350.0,351.0,677.0,678.0
4012,351,681,0,4011.0,4005.0,352.0,350.0,678.0,677.0
4017,352,683,0,4012.0,4011.0,351.0,352.0,681.0,678.0
4019,351,683,0,4017.0,4012.0,352.0,351.0,683.0,681.0
4018,356,681,0,4019.0,4017.0,351.0,352.0,683.0,683.0
4019,359,685,0,4018.0,4019.0,356.0,351.0,681.0,683.0
4017,360,683,0,4019.0,4018.0,359.0,356.0,685.0,681.0
4014,358,687,0,4017.0,4019.0,360.0,359.0,683.0,685.0
4014,361,686,0,4014.0,4017.0,358.0,360.0,687.0,683.0
4013,360,683,0,4014.0,4014.0,361.0,358.0,686.0,687.0
4011,360,683,0,4013.0,4014.0,360.0,361.0,683.0,686.0
4012,360,682,0,4011.0,4013.0,360.0,360.0,683.0,683.0
4011,363,683,0,4012.0,4011.0,360.0,360.0,682.0,683.0
4009,363,680,0,4011.0,4012.0,363.0,360.0,683.0,682.0
4010,365,676,0,4009.0,4011.0,363.0,363.0,680.0,683.0
4008,362,686,0,4010.0,4009.0,365.0,363.0,676.0,680.0
4005,363,688,0,4008.0,4010.0,362.0,365.0,686.0,676.0
4005,365,689,0,4005.0,4008.0,363.0,362.0,688.0,686.0
4006,365,688,0,4005.0,4005.0,365.0,363.0,689.0,688.0
4004,361,688,0,4006.0,4005.0,365.0,365.0,688.0,689.0
4006,356,688,0,4004.0,4006.0,361.0,365.0,688.0,688.0
4004,352,692,0,4006.0,4004.0,356.0,361.0,688.0,688.0
4004,350,696,0,4004.0,4006.0,352.0,356.0,692.0,688.0
4008,347,699,0,4004.0,4004.0,350.0,352.0,696.0,692.0
4009,342,699,0,4008.0,4004.0,347.0,350.0,699.0,696.0
4011,338,703,0,4009.0,4008.0,342.0,347.0,699.0,699.0
4013,338,703,0,4011.0,4009.0,338.0,342.0,703.0,699.0
4010,336,705,0,4013.0,4011.0,338.0,338.0,703.0,703.0
4013,336,704,0,4010.0,4013.0,336.0,338.0,705.0,703.0
4013,335,704,0,4013.0,4010.0,336.0,336.0,704.0,705.0
4014,331,705,0,4013.0,4013.0,335.0,336.0,704.0,704.0
4011,328,701,0,4014.0,4013.0,331.0,335.0,705.0,704.0
4012,329,702,0,4011.0,4014.0,328.0,331.0,701.0,705.0
4014,332,701,0,4012.0,4011.0,329.0,328.0,702.0,701.0
4016,331,701,0,4014.0,4012.0,332.0,329.0,701.0,702.0
4015,332,697,0,4016.0,4014.0,331.0,332.0,701.0,701.0
4013,331,694,0,4015.0,4016.0,332.0,331.0,697.0,701.0
4014,331,696,0,4013.0,4015.0,331.0,332.0,694.0,697.0
4014,331,696,0,4014.0,4013.0,331.0,331.0,696.0,694.0
4015,328,695,0,4014.0,4014.0,331.0,331.0,696.0,696.0
4016,328,696,0,4015.0,4014.0,328.0,331.0,695.0,696.0
4016,327,696,0,4016.0,4015.0,328.0,328.0,696.0,695.0
4016,324,700,0,4016.0,4016.0,327.0,328.0,696.0,696.0
4014,318,697,0,4016.0,4016.0,324.0,327.0,700.0,696.0
4017,316,695,0,4014.0,4016.0,318.0,324.0,697.0,700.0
4021,311,693,0,4017.0,4014.0,316.0,318.0,695.0,697.0
4018,311,694,0,4021.0,4017.0,311.0,316.0,693.0,695.0
4018,315,694,0,4018.0,4021.0,311.0,311.0,694.0,693.0
4017,314,694,0,4018.0,4018.0,315.0,311.0,694.0,694.0
4011,315,697,0,4017.0,4018.0,314.0,315.0,694.0,694.0
4008,317,697,0,4011.0,4017.0,315.0,314.0,697.0,694.0
4008,317,698,0,4008.0,4011.0,317.0,315.0,697.0,697.0
4010,322,698,0,4008.0,4008.0,317.0,317.0,698.0,697.0
4004,320,697,0,4010.0,4008.0,322.0,317.0,698.0,698.0
4006,322,700,0,4004.0,4010.0,320.0,322.0,697.0,698.0
4005,324,698,0,4006.0,4004.0,322.0,320.0,700.0,697.0
4006,327,698,0,4005.0,4006.0,324.0,322.0,698.0,700.0
4007,329,694,0,4006.0,4005.0,327.0,324.0,698.0,698.0
4007,332,690,0,4007.0,4006.0,329.0,327.0,694.0,698.0
4009,331,689,0,4007.0,4007.0,332.0,329.0,690.0,694.0
4010,330,690,0,4009.0,4007.0,331.0,332.0,689.0,690.0
4011,334,687,0,4010.0,4009.0,330.0,331.0,690.0,689.0
4005,338,687,0,4011.0,4010.0,334.0,330.0,687.0,690.0
4005,339,686,0,4005.0,4011.0,338.0,334.0,687.0,687.0
4004,342,685,0,4005.0,4005.0,339.0,338.0,686.0,687.0
4003,344,682,0,4004.0,4005.0,342.0,339.0,685.0,686.0
4003,349,680,0,4003.0,4004.0,344.0,342.0,682.0,685.0
4003,354,675,0,4003.0,4003.0,349.0,344.0,680.0,682.0
4005,361,677,0,4003.0,4003.0,354.0,349.0,675.0,680.0
4009,365,675,0,4005.0,4003.0,361.0,354.0,677.0,675.0
4015,372,674,0,4009.0,4005.0,365.0,361.0,675.0,677.0
4022,377,674,0,4015.0,4009.0,372.0,365.0,674.0,675.0
4024,380,676,0,4022.0,4015.0,377.0,372.0,674.0,674.0
4024,385,673,0,4024.0,4022.0,380.0,377.0,676.0,674.0
4021,387,671,0,4024.0,4024.0,385.0,380.0,673.0,676.0
4022,387,675,0,4021.0,4024.0,387.0,385.0,671.0,673.0
4018,385,678,0,4022.0,4021.0,387.0,387.0,675.0,671.0
4018,388,682,0,4018.0,4022.0,385.0,387.0,678.0,675.0
4014,386,683,0,4018.0,4018.0,388.0,385.0,682.0,678.0
4015,383,680,0,4014.0,4018.0,386.0,388.0,683.0,682.0
4012,381,681,0,4015.0,4014.0,383.0,386.0,680.0,683.0
4009,381,682,0,4012.0,4015.0,381.0,383.0,681.0,680.0
4006,383,680,0,4009.0,4012.0,381.0,381.0,682.0,681.0
4007,383,682,0,4006.0,4009.0,383.0,381.0,680.0,682.0
4006,383,679,0,4007.0,4006.0,383.0,383.0,682.0,680.0
4009,385,680,0,4006.0,4007.0,383.0,383.0,679.0,682.0
4007,382,675,0,4009.0,4006.0,385.0,383.0,680.0,679.0
4005,384,677,0,4007.0,4009.0,382.0,385.0,675.0,680.0
4002,388,681,0,4005.0,4007.0,384.0,382.0,677.0,675.0
3993,390,686,0,4002.0,4005.0,388.0,384.0,681.0,677.0
3985,384,687,0,3993.0,4002.0,390.0,388.0,686.0,681.0
3982,377,692,0,3985.0,3993.0,384.0,390.0,687.0,686.0
3980,371,695,0,3982.0,3985.0,377.0,384.0,692.0,687.0
3980,363,696,0,3980.0,3982.0,371.0,377.0,695.0,692.0
3983,356,694,0,3980.0,3980.0,363.0,371.0,696.0,695.0
3993,351,685,0,3983.0,3980.0,356.0,363.0,694.0,696.0
4000,343,675,0,3993.0,3983.0,351.0,356.0,685.0,694.0
4010,340,661,0,4000.0,3993.0,343.0,351.0,675.0,685.0
4021,346,648,0,4010.0,4000.0,340.0,343.0,661.0,675.0
4025,345,645,0,4021.0,4010.0,346.0,340.0,648.0,661.0
4032,344,648,0,4025.0,4021.0,345.0,346.0,645.0,648.0
4033,349,661,0,4032.0,4025.0,344.0,345.0,648.0,645.0
4025,355,675,0,4033.0,4032.0,349.0,344.0,661.0,648.0
4010,360,688,0,4025.0,4033.0,355.0,349.0,675.0,661.0
4000,358,689,0,4010.0,4025.0,360.0,355.0,688.0,675.0
4001,347,679,0,4000.0,4010.0,358.0,360.0,689.0,688.0
4006,346,666,0,4001.0,4000.0,347.0,358.0,679.0,689.0
4014,345,658,0,4006.0,4001.0,346.0,347.0,666.0,679.0
4020,346,655,0,4014.0,4006.0,345.0,346.0,658.0,666.0
4028,351,658,0,4020.0,4014.0,346.0,345.0,655.0,658.0
4030,355,660,0,4028.0,4020.0,351.0,346.0,658.0,655.0
4027,357,659,0,4030.0,4028.0,355.0,351.0,660.0,658.0
4022,354,659,0,4027.0,4030.0,357.0,355.0,659.0,660.0
4014,351,664,0,4022.0,4027.0,354.0,357.0,659.0,659.0
4008,347,670,0,4014.0,4022.0,351.0,354.0,664.0,659.0
4004,349,681,0,4008.0,4014.0,347.0,351.0,670.0,664.0
3999,347,689,0,4004.0,4008.0,349.0,347.0,681.0,670.0
3992,344,688,0,3999.0,4004.0,347.0,349.0,689.0,681.0
3988,342,682,0,3992.0,3999.0,344.0,347.0,688.0,689.0
3994,338,671,0,3988.0,3992.0,342.0,344.0,682.0,688.0
4003,337,662,0,3994.0,3988.0,338.0,342.0,671.0,682.0
4016,338,650,0,4003.0,3994.0,337.0,338.0,662.0,671.0
4029,340,644,0,4016.0,4003.0,338.0,337.0,650.0,662.0
4033,347,641,0,4029.0,4016.0,340.0,338.0,644.0,650.0
4038,348,645,0,4033.0,4029.0,347.0,340.0,641.0,644.0
4035,349,648,0,4038.0,4033.0,348.0,347.0,645.0,641.0
4031,350,648,0,4035.0,4038.0,349.0,348.0,648.0,645.0
4032,353,649,0,4031.0,4035.0,350.0,349.0,648.0,648.0
4036,352,648,0,4032.0,4031.0,353.0,350.0,649.0,648.0
4036,356,656,0,4036.0,4032.0,352.0,353.0,648.0,649.0
4036,358,667,0,4036.0,4036.0,356.0,352.0,656.0,648.0
4033,357,677,0,4036.0,4036.0,358.0,356.0,667.0,656.0
4025,354,684,0,4033.0,4036.0,357.0,358.0,677.0,667.0
4015,348,687,0,4025.0,4033.0,354.0,357.0,684.0,677.0
4011,341,692,0,4015.0,4025.0,348.0,354.0,687.0,684.0
4002,334,692,0,4011.0,4015.0,341.0,348.0,692.0,687.0
4001,324,702,0,4002.0,4011.0,334.0,341.0,692.0,692.0
3999,319,716,0,4001.0,4002.0,324.0,334.0,702.0,692.0
3997,314,726,0,3999.0,4001.0,319.0,324.0,716.0,702.0
3989,305,730,0,3997.0,3999.0,314.0,319.0,726.0,716.0
3986,298,723,0,3989.0,3997.0,305.0,314.0,730.0,726.0
3985,290,704,0,3986.0,3989.0,298.0,305.0,723.0,730.0
3993,283,679,0,3985.0,3986.0,290.0,298.0,704.0,723.0
4000,279,659,0,3993.0,3985.0,283.0,290.0,679.0,704.0
4008,284,643,0,4000.0,3993.0,279.0,283.0,659.0,679.0
4019,289,642,0,4008.0,4000.0,284.0,279.0,643.0,659.0
4029,300,660,0,4019.0,4008.0,289.0,284.0,642.0,643.0
4030,311,675,0,4029.0,4019.0,300.0,289.0,660.0,642.0
4032,313,692,0,4030.0,4029.0,311.0,300.0,675.0,660.0
4035,306,700,0,4032.0,4030.0,313.0,311.0,692.0,675.0
4039,298,702,0,4035.0,4032.0,306.0,313.0,700.0,692.0
4039,289,704,0,4039.0,4035.0,298.0,306.0,702.0,700.0
4035,283,710,0,4039.0,4039.0,289.0,298.0,704.0,702.0
4034,270,708,0,4035.0,4039.0,283.0,289.0,710.0,704.0
4036,256,698,0,4034.0,4035.0,270.0,283.0,708.0,710.0
4034,244,672,0,4036.0,4034.0,256.0,270.0,698.0,708.0
4034,238,656,0,4034.0,4036.0,244.0,256.0,672.0,698.0
4036,236,644,0,4034.0,4034.0,238.0,244.0,656.0,672.0
4040,227,644,0,4036.0,4034.0,236.0,238.0,644.0,656.0
4049,226,652,0,4040.0,4036.0,227.0,236.0,644.0,644.0
4054,228,671,0,4049.0,4040.0,226.0,227.0,652.0,644.0
4063,231,694,0,4054.0,4049.0,228.0,226.0,671.0,652.0
4061,239,710,0,4063.0,4054.0,231.0,228.0,694.0,671.0
4054,240,716,0,4061.0,4063.0,239.0,231.0,710.0,694.0
4042,242,717,0,4054.0,4061.0,240.0,239.0,716.0,710.0
4032,246,714,0,4042.0,4054.0,242.0,240.0,717.0,716.0
4021,256,709,0,4032.0,4042.0,246.0,242.0,714.0,717.0
4011,260,703,0,4021.0,4032.0,256.0,246.0,709.0,714.0
3999,259,698,0,4011.0,4021.0,260.0,256.0,703.0,709.0
4000,261,704,0,3999.0,4011.0,259.0,260.0,698.0,703.0
4004,263,717,0,4000.0,3999.0,261.0,259.0,704.0,698.0
4011,258,726,0,4004.0,4000.0,263.0,261.0,717.0,704.0
4016,250,716,0,4011.0,4004.0,258.0,263.0,726.0,717.0
4019,241,702,0,4016.0,4011.0,250.0,258.0,716.0,726.0
4018,233,678,0,4019.0,4016.0,241.0,250.0,702.0,716.0
4012,226,661,0,4018.0,4019.0,233.0,241.0,678.0,702.0
3998,220,660,0,4012.0,4018.0,226.0,233.0,661.0,678.0
3988,225,672,0,3998.0,4012.0,220.0,226.0,660.0,661.0
3979,236,691,0,3988.0,3998.0,225.0,220.0,672.0,660.0
3973,249,709,0,3979.0,3988.0,236.0,225.0,691.0,672.0
3976,253,714,0,3973.0,3979.0,249.0,236.0,709.0,691.0
3979,249,704,0,3976.0,3973.0,253.0,249.0,714.0,709.0
3980,243,692,0,3979.0,3976.0,249.0,253.0,704.0,714.0
3988,239,686,0,3980.0,3979.0,243.0,249.0,692.0,704.0
4001,239,695,0,3988.0,3980.0,239.0,243.0,686.0,692.0
4019,239,706,0,4001.0,3988.0,239.0,239.0,695.0,686.0
4032,243,713,0,4019.0,4001.0,239.0,239.0,706.0,695.0
4041,235,708,0,4032.0,4019.0,243.0,239.0,713.0,706.0
4046,235,699,0,4041.0,4032.0,235.0,243.0,708.0,713.0
4043,240,688,0,4046.0,4041.0,235.0,235.0,699.0,708.0
4038,245,663,0,4043.0,4046.0,240.0,235.0,688.0,699.0
4028,244,644,0,4038.0,4043.0,245.0,240.0,663.0,688.0
4018,251,637,0,4028.0,4038.0,244.0,245.0,644.0,663.0
4011,260,649,0,4018.0,4028.0,251.0,244.0,637.0,644.0
4009,275,660,0,4011.0,4018.0,260.0,251.0,649.0,637.0
4005,285,661,0,4009.0,4011.0,275.0,260.0,660.0,649.0
4000,295,659,0,4005.0,4009.0,285.0,275.0,661.0,660.0
3992,296,653,0,4000.0,4005.0,295.0,285.0,659.0,661.0
3993,298,651,0,3992.0,4000.0,296.0,295.0,653.0,659.0
3994,295,651,0,3993.0,3992.0,298.0,296.0,651.0,653.0
3998,296,662,0,3994.0,3993.0,295.0,298.0,651.0,651.0
3996,291,675,0,3998.0,3994.0,296.0,295.0,662.0,651.0
3996,287,683,0,3996.0,3998.0,291.0,296.0,675.0,662.0
3997,280,691,0,3996.0,3996.0,287.0,291.0,683.0,675.0
3999,273,707,0,3997.0,3996.0,280.0,287.0,691.0,683.0
4001,266,722,0,3999.0,3997.0,273.0,280.0,707.0,691.0
4002,263,728,0,4001.0,3999.0,266.0,273.0,722.0,707.0
4005,259,736,0,4002.0,4001.0,263.0,266.0,728.0,722.0
4007,254,741,0,4005.0,4002.0,259.0,263.0,736.0,728.0
4004,248,742,0,4007.0,4005.0,254.0,259.0,741.0,736.0
4006,244,744,0,4004.0,4007.0,248.0,254.0,742.0,741.0
4009,240,747,0,4006.0,4004.0,244.0,248.0,744.0,742.0
4011,239,744,0,4009.0,4006.0,240.0,244.0,747.0,744.0
4010,242,738,0,4011.0,4009.0,239.0,240.0,744.0,747.0
4010,237,728,0,4010.0,4011.0,242.0,239.0,738.0,744.0
4013,237,725,0,4010.0,4010.0,237.0,242.0,728.0,738.0
4021,239,725,0,4013.0,4010.0,237.0,237.0,725.0,728.0
4032,238,724,0,4021.0,4013.0,239.0,237.0,725.0,725.0
4035,234,715,0,4032.0,4021.0,238.0,239.0,724.0,725.0
4039,224,708,0,4035.0,4032.0,234.0,238.0,715.0,724.0
4044,217,709,0,4039.0,4035.0,224.0,234.0,708.0,715.0
4048,204,709,0,4044.0,4039.0,217.0,224.0,709.0,708.0
4041,193,708,0,4048.0,4044.0,204.0,217.0,709.0,709.0
4032,181,714,0,4041.0,4048.0,193.0,204.0,708.0,709.0
4023,177,720,0,4032.0,4041.0,181.0,193.0,714.0,708.0
4010,178,729,0,4023.0,4032.0,177.0,181.0,720.0,714.0
4001,185,732,0,4010.0,4023.0,178.0,177.0,729.0,720.0
3993,190,731,0,4001.0,4010.0,185.0,178.0,732.0,729.0
3989,201,726,0,3993.0,4001.0,190.0,185.0,731.0,732.0
3992,213,724,0,3989.0,3993.0,201.0,190.0,726.0,731.0
3997,221,724,0,3992.0,3989.0,213.0,201.0,724.0,726.0
4009,228,719,0,3997.0,3992.0,221.0,213.0,724.0,724.0
4022,230,722,0,4009.0,3997.0,228.0,221.0,719.0,724.0
4033,228,719,0,4022.0,4009.0,230.0,228.0,722.0,719.0
4039,228,707,0,4033.0,4022.0,228.0,230.0,719.0,722.0
4038,221,690,0,4039.0,4033.0,228.0,228.0,707.0,719.0
4037,217,679,0,4038.0,4039.0,221.0,228.0,690.0,707.0
4037,222,676,0,4037.0,4038.0,217.0,221.0,679.0,690.0
4037,225,680,0,4037.0,4037.0,222.0,217.0,676.0,679.0
4033,231,692,0,4037.0,4037.0,225.0,222.0,680.0,676.0
4033,236,711,0,4033.0,4037.0,231.0,225.0,692.0,680.0
4028,237,728,0,4033.0,4033.0,236.0,231.0,711.0,692.0
4025,229,732,0,4028.0,4033.0,237.0,236.0,728.0,711.0
4014,226,719,0,4025.0,4028.0,229.0,237.0,732.0,728.0
4007,211,704,0,4014.0,4025.0,226.0,229.0,719.0,732.0
4007,204,708,0,4007.0,4014.0,211.0,226.0,704.0,719.0
4010,208,712,0,4007.0,4007.0,204.0,211.0,708.0,704.0
4014,209,718,0,4010.0,4007.0,208.0,204.0,712.0,708.0
4020,215,722,0,4014.0,4010.0,209.0,208.0,718.0,712.0
4021,227,726,0,4020.0,4014.0,215.0,209.0,722.0,718.0
4030,232,723,0,4021.0,4020.0,227.0,215.0,726.0,722.0
4037,242,713,0,4030.0,4021.0,232.0,227.0,723.0,726.0
4046,259,705,0,4037.0,4030.0,242.0,232.0,713.0,723.0
4054,287,694,0,4046.0,4037.0,259.0,242.0,705.0,713.0
4057,317,662,0,4054.0,4046.0,287.0,259.0,694.0,705.0
4058,339,605,0,4057.0,4054.0,317.0,287.0,662.0,694.0
4052,356,541,0,4058.0,4057.0,339.0,317.0,605.0,662.0
4042,379,501,0,4052.0,4058.0,356.0,339.0,541.0,605.0
4033,428,502,0,4042.0,4052.0,379.0,356.0,501.0,541.0
4032,492,532,0,4033.0,4042.0,428.0,379.0,502.0,501.0
4032,557,569,0,4032.0,4033.0,492.0,428.0,532.0,502.0
4043,623,609,0,4032.0,4032.0,557.0,492.0,569.0,532.0
4061,679,634,0,4043.0,4032.0,623.0,557.0,609.0,569.0
4070,741,652,0,4061.0,4043.0,679.0,623.0,634.0,609.0
4056,803,641,0,4070.0,4061.0,741.0,679.0,652.0,634.0
4028,859,597,0,4056.0,4070.0,803.0,741.0,641.0,652.0
3972,906,506,0,4028.0,4056.0,859.0,803.0,597.0,641.0
3914,969,431,0,3972.0,4028.0,906.0,859.0,506.0,597.0
3853,1043,375,0,3914.0,3972.0,969.0,906.0,431.0,506.0
3793,1120,358,0,3853.0,3914.0,1043.0,969.0,375.0,431.0
3732,1209,378,0,3793.0,3853.0,1120.0,1043.0,358.0,375.0
3674,1297,402,0,3732.0,3793.0,1209.0,1120.0,378.0,358.0
3595,1377,397,0,3674.0,3732.0,1297.0,1209.0,402.0,378.0
3494,1452,372,0,3595.0,3674.0,1377.0,1297.0,397.0,402.0
3361,1520,337,0,3494.0,3595.0,1452.0,1377.0,372.0,397.0
3201,1574,309,0,3361.0,3494.0,1520.0,1452.0,337.0,372.0
3020,1613,307,0,3201.0,3361.0,1574.0,1520.0,309.0,337.0
2813,1630,338,0,3020.0,3201.0,1613.0,1574.0,307.0,309.0
2572,1609,387,0,2813.0,3020.0,1630.0,1613.0,338.0,307.0
2316,1553,438,0,2572.0,2813.0,1609.0,1630.0,387.0,338.0
2060,1462,488,0,2316.0,2572.0,1553.0,1609.0,438.0,387.0
1808,1345,553,0,2060.0,2316.0,1462.0,1553.0,488.0,438.0
1572,1231,677,0,1808.0,2060.0,1345.0,1462.0,553.0,488.0
1343,1138,801,0,1572.0,1808.0,1231.0,1345.0,677.0,553.0
1119,1070,887,0,1343.0,1572.0,1138.0,1231.0,801.0,677.0
934,987,854,0,1119.0,1343.0,1070.0,1138.0,887.0,801.0
791,866,749,0,934.0,1119.0,987.0,1070.0,854.0,887.0
696,706,566,0,791.0,934.0,866.0,987.0,749.0,854.0
633,527,314,0,696.0,791.0,706.0,866.0,566.0,749.0
614,368,61,0,633.0,696.0,527.0,706.0,314.0,566.0
637,261,-89,0,614.0,633.0,368.0,527.0,61.0,314.0
702,199,-102,0,637.0,614.0,261.0,368.0,-89.0,61.0
793,141,-21,0,702.0,637.0,199.0,261.0,-102.0,-89.0
899,52,94,0,793.0,702.0,141.0,199.0,-21.0,-102.0
1025,-77,225,0,899.0,793.0,52.0,141.0,94.0,-21.0
1148,-229,327,0,1025.0,899.0,-77.0,52.0,225.0,94.0
1265,-415,384,0,1148.0,1025.0,-229.0,-77.0,327.0,225.0
1362,-651,396,0,1265.0,1148.0,-415.0,-229.0,384.0,327.0
1440,-970,389,0,1362.0,1265.0,-651.0,-415.0,396.0,384.0
1502,-1345,434,0,1440.0,1362.0,-970.0,-651.0,389.0,396.0
1564,-1688,558,0,1502.0,1440.0,-1345.0,-970.0,434.0,389.0
1640,-1959,684,0,1564.0,1502.0,-1688.0,-1345.0,558.0,434.0
1745,-2139,777,0,1640.0,1564.0,-1959.0,-1688.0,684.0,558.0
2003,-2192,1028,0,1745.0,1640.0,-2139.0,-1959.0,777.0,684.0
2320,-2019,1466,0,2003.0,1745.0,-2192.0,-2139.0,1028.0,777.0
2739,-1876,2049,0,2320.0,2003.0,-2019.0,-2192.0,1466.0,1028.0
3236,-1829,2580,0,2739.0,2320.0,-1876.0,-2019.0,2049.0,1466.0
3759,-1832,2959,0,3236.0,2739.0,-1829.0,-1876.0,2580.0,2049.0
4236,-1906,3110,0,3759.0,3236.0,-1832.0,-1829.0,2959.0,2580.0
4665,-2014,2973,0,4236.0,3759.0,-1906.0,-1832.0,3110.0,2959.0
5169,-2197,2706,0,4665.0,4236.0,-2014.0,-1906.0,2973.0,3110.0
5930,-2497,2526,0,5169.0,4665.0,-2197.0,-2014.0,2706.0,2973.0
7123,-3020,2659,0,5930.0,5169.0,-2497.0,-2197.0,2526.0,2706.0
8840,-3808,3202,0,7123.0,5930.0,-3020.0,-2497.0,2659.0,2526.0
10974,-4629,3881,0,8840.0,7123.0,-3808.0,-3020.0,3202.0,2659.0
13286,-5058,4345,0,10974.0,8840.0,-4629.0,-3808.0,3881.0,3202.0
15701,-4850,4518,0,13286.0,10974.0,-5058.0,-4629.0,4345.0,3881.0
18134,-4147,4355,0,15701.0,13286.0,-4850.0,-5058.0,4518.0,4345.0
20330,-3282,4018,0,18134.0,15701.0,-4147.0,-4850.0,4355.0,4518.0
22090,-2630,3371,0,20330.0,18134.0,-3282.0,-4147.0,4018.0,4355.0
22861,-1885,2400,0,22090.0,20330.0,-2630.0,-3282.0,3371.0,4018.0
22531,-953,1461,0,22861.0,22090.0,-1885.0,-2630.0,2400.0,3371.0
21506,133,986,0,22531.0,22861.0,-953.0,-1885.0,1461.0,2400.0
20308,1299,1299,0,21506.0,22531.0,133.0,-953.0,986.0,1461.0
19120,2262,2080,0,20308.0,21506.0,1299.0,133.0,1299.0,986.0
17943,2756,2798,0,19120.0,20308.0,2262.0,1299.0,2080.0,1299.0
16769,2789,3087,0,17943.0,19120.0,2756.0,2262.0,2798.0,2080.0
15625,2404,3008,0,16769.0,17943.0,2789.0,2756.0,3087.0,2798.0
