accelerometer_x,accelerometer_y,accelerometer_z,fall,x_lag_1,x_lag_2,y_lag_1,y_lag_2,z_lag_1,z_lag_2
15288,-979,1100,0,,,,,,
14950,-26,1407,0,15288.0,,-979.0,,1100.0,
14041,759,1761,0,14950.0,15288.0,-26.0,-979.0,1407.0,1100.0
12774,1017,2069,0,14041.0,14950.0,759.0,-26.0,1761.0,1407.0
11364,773,2209,0,12774.0,14041.0,1017.0,759.0,2069.0,1761.0
9915,250,2172,0,11364.0,12774.0,773.0,1017.0,2209.0,2069.0
8499,-302,2014,0,9915.0,11364.0,250.0,773.0,2172.0,2209.0
7136,-690,1844,0,8499.0,9915.0,-302.0,250.0,2014.0,2172.0
5878,-888,1689,0,7136.0,8499.0,-690.0,-302.0,1844.0,2014.0
4760,-938,1503,0,5878.0,7136.0,-888.0,-690.0,1689.0,1844.0
3788,-917,1262,0,4760.0,5878.0,-938.0,-888.0,1503.0,1689.0
2966,-861,959,0,3788.0,4760.0,-917.0,-938.0,1262.0,1503.0
2331,-820,615,0,2966.0,3788.0,-861.0,-917.0,959.0,1262.0
1899,-778,313,0,2331.0,2966.0,-820.0,-861.0,615.0,959.0
1670,-726,129,0,1899.0,2331.0,-778.0,-820.0,313.0,615.0
1630,-651,102,0,1670.0,1899.0,-726.0,-778.0,129.0,313.0
1744,-575,231,0,1630.0,1670.0,-651.0,-726.0,102.0,129.0
1945,-506,481,0,1744.0,1630.0,-575.0,-651.0,231.0,102.0
2204,-445,796,0,1945.0,1744.0,-506.0,-575.0,481.0,231.0
2479,-388,1117,0,2204.0,1945.0,-445.0,-506.0,796.0,481.0
2743,-338,1379,0,2479.0,2204.0,-388.0,-445.0,1117.0,796.0
2964,-307,1516,0,2743.0,2479.0,-338.0,-388.0,1379.0,1117.0
3118,-294,1522,0,2964.0,2743.0,-307.0,-338.0,1516.0,1379.0
3194,-298,1436,0,3118.0,2964.0,-294.0,-307.0,1522.0,1516.0
3186,-307,1298,0,3194.0,3118.0,-298.0,-294.0,1436.0,1522.0
3114,-310,1147,0,3186.0,3194.0,-307.0,-298.0,1298.0,1436.0
2979,-306,1026,0,3114.0,3186.0,-310.0,-307.0,1147.0,1298.0
2798,-297,946,0,2979.0,3114.0,-306.0,-310.0,1026.0,1147.0
2590,-291,914,0,2798.0,2979.0,-297.0,-306.0,946.0,1026.0
2361,-290,902,0,2590.0,2798.0,-291.0,-297.0,914.0,946.0
2121,-289,885,0,2361.0,2590.0,-290.0,-291.0,902.0,914.0
1856,-273,855,0,2121.0,2361.0,-289.0,-290.0,885.0,902.0
1566,-241,798,0,1856.0,2121.0,-273.0,-289.0,855.0,885.0
1261,-213,700,0,1566.0,1856.0,-241.0,-273.0,798.0,855.0
932,-193,548,0,1261.0,1566.0,-213.0,-241.0,700.0,798.0
587,-168,381,0,932.0,1261.0,-193.0,-213.0,548.0,700.0
261,-128,228,0,587.0,932.0,-168.0,-193.0,381.0,548.0
-53,-62,98,0,261.0,587.0,-128.0,-168.0,228.0,381.0
-351,36,-4,0,-53.0,261.0,-62.0,-128.0,98.0,228.0
-633,162,-80,0,-351.0,-53.0,36.0,-62.0,-4.0,98.0
-877,294,-151,0,-633.0,-351.0,162.0,36.0,-80.0,-4.0
-1087,431,-224,0,-877.0,-633.0,294.0,162.0,-151.0,-80.0
-1280,570,-294,0,-1087.0,-877.0,431.0,294.0,-224.0,-151.0
-1460,706,-344,0,-1280.0,-1087.0,570.0,431.0,-294.0,-224.0
-1628,836,-338,0,-1460.0,-1280.0,706.0,570.0,-344.0,-294.0
-1777,963,-234,0,-1628.0,-1460.0,836.0,706.0,-338.0,-344.0
-1855,1047,-67,0,-1777.0,-1628.0,963.0,836.0,-234.0,-338.0
-1819,1047,85,0,-1855.0,-1777.0,1047.0,963.0,-67.0,-234.0
-1618,914,142,0,-1819.0,-1855.0,1047.0,1047.0,85.0,-67.0
-1301,659,95,0,-1618.0,-1819.0,914.0,1047.0,142.0,85.0
-906,319,-50,0,-1301.0,-1618.0,659.0,914.0,95.0,142.0
-470,-90,-288,0,-906.0,-1301.0,319.0,659.0,-50.0,95.0
-11,-560,-618,0,-470.0,-906.0,-90.0,319.0,-288.0,-50.0
498,-1078,-987,0,-11.0,-470.0,-560.0,-90.0,-618.0,-288.0
1114,-1634,-1326,0,498.0,-11.0,-1078.0,-560.0,-987.0,-618.0
1925,-2236,-1564,0,1114.0,498.0,-1634.0,-1078.0,-1326.0,-987.0
3494,-2914,-653,0,1925.0,1114.0,-2236.0,-1634.0,-1564.0,-1326.0
5388,-3717,217,0,3494.0,1925.0,-2914.0,-2236.0,-653.0,-1564.0
7102,-4864,-205,0,5388.0,3494.0,-3717.0,-2914.0,217.0,-653.0
8635,-6200,-1922,0,7102.0,5388.0,-4864.0,-3717.0,-205.0,217.0
10364,-7511,-4101,0,8635.0,7102.0,-6200.0,-4864.0,-1922.0,-205.0
12142,-8552,-6144,0,10364.0,8635.0,-7511.0,-6200.0,-4101.0,-1922.0
13908,-9206,-7580,0,12142.0,10364.0,-8552.0,-7511.0,-6144.0,-4101.0
15644,-9321,-7823,0,13908.0,12142.0,-9206.0,-8552.0,-7580.0,-6144.0
17000,-8586,-6787,0,15644.0,13908.0,-9321.0,-9206.0,-7823.0,-7580.0
17589,-6874,-4873,0,17000.0,15644.0,-8586.0,-9321.0,-6787.0,-7823.0
17345,-4770,-2995,0,17589.0,17000.0,-6874.0,-8586.0,-4873.0,-6787.0
16453,-2918,-1890,0,17345.0,17589.0,-4770.0,-6874.0,-2995.0,-4873.0
15138,-1722,-1527,0,16453.0,17345.0,-2918.0,-4770.0,-1890.0,-2995.0
13563,-1212,-1500,0,15138.0,16453.0,-1722.0,-2918.0,-1527.0,-1890.0
11811,-1256,-1397,0,13563.0,15138.0,-1212.0,-1722.0,-1500.0,-1527.0
10015,-1524,-1122,0,11811.0,13563.0,-1256.0,-1212.0,-1397.0,-1500.0
8235,-1624,-823,0,10015.0,11811.0,-1524.0,-1256.0,-1122.0,-1397.0
6400,-1508,-593,0,8235.0,10015.0,-1624.0,-1524.0,-823.0,-1122.0
4602,-1230,-295,0,6400.0,8235.0,-1508.0,-1624.0,-593.0,-823.0
2884,-820,44,0,4602.0,6400.0,-1230.0,-1508.0,-295.0,-593.0
1399,-361,254,0,2884.0,4602.0,-820.0,-1230.0,44.0,-295.0
229,48,255,0,1399.0,2884.0,-361.0,-820.0,254.0,44.0
-587,308,55,0,229.0,1399.0,48.0,-361.0,255.0,254.0
-1075,366,-288,0,-587.0,229.0,308.0,48.0,55.0,255.0
-1218,201,-643,0,-1075.0,-587.0,366.0,308.0,-288.0,55.0
-1004,-180,-921,0,-1218.0,-1075.0,201.0,366.0,-643.0,-288.0
-449,-730,-1088,0,-1004.0,-1218.0,-180.0,201.0,-921.0,-643.0
348,-1292,-1074,0,-449.0,-1004.0,-730.0,-180.0,-1088.0,-921.0
1318,-1729,-746,0,348.0,-449.0,-1292.0,-730.0,-1074.0,-1088.0
2345,-1989,-197,0,1318.0,348.0,-1729.0,-1292.0,-746.0,-1074.0
3305,-2080,399,0,2345.0,1318.0,-1989.0,-1729.0,-197.0,-746.0
4186,-2032,962,0,3305.0,2345.0,-2080.0,-1989.0,399.0,-197.0
4902,-1967,1167,0,4186.0,3305.0,-2032.0,-2080.0,962.0,399.0
5404,-1972,929,0,4902.0,4186.0,-1967.0,-2032.0,1167.0,962.0
5671,-2032,386,0,5404.0,4902.0,-1972.0,-1967.0,929.0,1167.0
5740,-2150,-293,0,5671.0,5404.0,-2032.0,-1972.0,386.0,929.0
5667,-2290,-940,0,5740.0,5671.0,-2150.0,-2032.0,-293.0,386.0
5507,-2418,-1462,0,5667.0,5740.0,-2290.0,-2150.0,-940.0,-293.0
5291,-2492,-1825,0,5507.0,5667.0,-2418.0,-2290.0,-1462.0,-940.0
5045,-2491,-2037,0,5291.0,5507.0,-2492.0,-2418.0,-1825.0,-1462.0
4780,-2393,-2138,0,5045.0,5291.0,-2491.0,-2492.0,-2037.0,-1825.0
4507,-2216,-2161,0,4780.0,5045.0,-2393.0,-2491.0,-2138.0,-2037.0
4246,-1970,-2124,0,4507.0,4780.0,-2216.0,-2393.0,-2161.0,-2138.0
3984,-1683,-2028,0,4246.0,4507.0,-1970.0,-2216.0,-2124.0,-2161.0
3732,-1378,-1873,0,3984.0,4246.0,-1683.0,-1970.0,-2028.0,-2124.0
3486,-1071,-1729,0,3732.0,3984.0,-1378.0,-1683.0,-1873.0,-2028.0
3229,-781,-1614,0,3486.0,3732.0,-1071.0,-1378.0,-1729.0,-1873.0
2965,-516,-1551,0,3229.0,3486.0,-781.0,-1071.0,-1614.0,-1729.0
2683,-280,-1525,0,2965.0,3229.0,-516.0,-781.0,-1551.0,-1614.0
2375,-89,-1540,0,2683.0,2965.0,-280.0,-516.0,-1525.0,-1551.0
2042,75,-1599,0,2375.0,2683.0,-89.0,-280.0,-1540.0,-1525.0
1682,218,-1657,0,2042.0,2375.0,75.0,-89.0,-1599.0,-1540.0
1308,335,-1700,0,1682.0,2042.0,218.0,75.0,-1657.0,-1599.0
954,413,-1739,0,1308.0,1682.0,335.0,218.0,-1700.0,-1657.0
625,460,-1782,0,954.0,1308.0,413.0,335.0,-1739.0,-1700.0
336,477,-1823,0,625.0,954.0,460.0,413.0,-1782.0,-1739.0
99,478,-1853,0,336.0,625.0,477.0,460.0,-1823.0,-1782.0
-90,476,-1863,0,99.0,336.0,478.0,477.0,-1853.0,-1823.0
-241,471,-1865,0,-90.0,99.0,476.0,478.0,-1863.0,-1853.0
-356,477,-1853,0,-241.0,-90.0,471.0,476.0,-1865.0,-1863.0
-445,498,-1824,0,-356.0,-241.0,477.0,471.0,-1853.0,-1865.0
-505,539,-1760,0,-445.0,-356.0,498.0,477.0,-1824.0,-1853.0
-526,587,-1671,0,-505.0,-445.0,539.0,498.0,-1760.0,-1824.0
-508,644,-1542,0,-526.0,-505.0,587.0,539.0,-1671.0,-1760.0
-453,720,-1359,0,-508.0,-526.0,644.0,587.0,-1542.0,-1671.0
-355,838,-1066,0,-453.0,-508.0,720.0,644.0,-1359.0,-1542.0
-227,976,-681,0,-355.0,-453.0,838.0,720.0,-1066.0,-1359.0
-87,1090,-260,0,-227.0,-355.0,976.0,838.0,-681.0,-1066.0
64,1140,166,0,-87.0,-227.0,1090.0,976.0,-260.0,-681.0
234,1103,597,0,64.0,-87.0,1140.0,1090.0,166.0,-260.0
414,973,1008,0,234.0,64.0,1103.0,1140.0,597.0,166.0
617,766,1393,0,414.0,234.0,973.0,1103.0,1008.0,597.0
835,494,1718,0,617.0,414.0,766.0,973.0,1393.0,1008.0
1075,178,1989,0,835.0,617.0,494.0,766.0,1718.0,1393.0
1348,-171,2228,0,1075.0,835.0,178.0,494.0,1989.0,1718.0
1655,-538,2443,0,1348.0,1075.0,-171.0,178.0,2228.0,1989.0
1979,-908,2562,0,1655.0,1348.0,-538.0,-171.0,2443.0,2228.0
2287,-1278,2507,0,1979.0,1655.0,-908.0,-538.0,2562.0,2443.0
2557,-1663,2221,0,2287.0,1979.0,-1278.0,-908.0,2507.0,2562.0
2769,-2069,1737,0,2557.0,2287.0,-1663.0,-1278.0,2221.0,2507.0
2942,-2488,1149,0,2769.0,2557.0,-2069.0,-1663.0,1737.0,2221.0
3152,-2933,574,0,2942.0,2769.0,-2488.0,-2069.0,1149.0,1737.0
3520,-3411,92,0,3152.0,2942.0,-2933.0,-2488.0,574.0,1149.0
4081,-3938,-270,0,3520.0,3152.0,-3411.0,-2933.0,92.0,574.0
4835,-4618,-595,0,4081.0,3520.0,-3938.0,-3411.0,-270.0,92.0
5790,-5365,-1089,0,4835.0,4081.0,-4618.0,-3938.0,-595.0,-270.0
7017,-5688,-1757,0,5790.0,4835.0,-5365.0,-4618.0,-1089.0,-595.0
8710,-5044,-2017,0,7017.0,5790.0,-5688.0,-5365.0,-1757.0,-1089.0
10841,-3703,-1151,0,8710.0,7017.0,-5044.0,-5688.0,-2017.0,-1757.0
13074,-2251,554,0,10841.0,8710.0,-3703.0,-5044.0,-1151.0,-2017.0
14921,-967,2276,0,13074.0,10841.0,-2251.0,-3703.0,554.0,-1151.0
16042,10,3346,0,14921.0,13074.0,-967.0,-2251.0,2276.0,554.0
16415,566,3691,0,16042.0,14921.0,10.0,-967.0,3346.0,2276.0
16103,538,3706,0,16415.0,16042.0,566.0,10.0,3691.0,3346.0
15238,-153,3728,0,16103.0,16415.0,538.0,566.0,3706.0,3691.0
13968,-1206,3658,0,15238.0,16103.0,-153.0,538.0,3728.0,3706.0
12434,-2136,3435,0,13968.0,15238.0,-1206.0,-153.0,3658.0,3728.0
10762,-2803,3156,0,12434.0,13968.0,-2136.0,-1206.0,3435.0,3658.0
9100,-3163,2917,0,10762.0,12434.0,-2803.0,-2136.0,3156.0,3435.0
7493,-3202,2730,0,9100.0,10762.0,-3163.0,-2803.0,2917.0,3156.0
6081,-2918,2550,0,7493.0,9100.0,-3202.0,-3163.0,2730.0,2917.0
4911,-2437,2339,0,6081.0,7493.0,-2918.0,-3202.0,2550.0,2730.0
3979,-1892,2111,0,4911.0,6081.0,-2437.0,-2918.0,2339.0,2550.0
3299,-1375,1904,0,3979.0,4911.0,-1892.0,-2437.0,2111.0,2339.0
2860,-932,1778,0,3299.0,3979.0,-1375.0,-1892.0,1904.0,2111.0
2656,-587,1764,0,2860.0,3299.0,-932.0,-1375.0,1778.0,1904.0
2654,-353,1869,0,2656.0,2860.0,-587.0,-932.0,1764.0,1778.0
2792,-243,2059,0,2654.0,2656.0,-353.0,-587.0,1869.0,1764.0
3000,-254,2270,0,2792.0,2654.0,-243.0,-353.0,2059.0,1869.0
3211,-387,2413,0,3000.0,2792.0,-254.0,-243.0,2270.0,2059.0
3379,-623,2407,0,3211.0,3000.0,-387.0,-254.0,2413.0,2270.0
3462,-937,2234,0,3379.0,3211.0,-623.0,-387.0,2407.0,2413.0
3458,-1270,1959,0,3462.0,3379.0,-937.0,-623.0,2234.0,2407.0
3364,-1579,1630,0,3458.0,3462.0,-1270.0,-937.0,1959.0,2234.0
3198,-1829,1286,0,3364.0,3458.0,-1579.0,-1270.0,1630.0,1959.0
2980,-2002,970,0,3198.0,3364.0,-1829.0,-1579.0,1286.0,1630.0
2736,-2080,679,0,2980.0,3198.0,-2002.0,-1829.0,970.0,1286.0
2486,-2085,416,0,2736.0,2980.0,-2080.0,-2002.0,679.0,970.0
2242,-2031,184,0,2486.0,2736.0,-2085.0,-2080.0,416.0,679.0
2019,-1910,-9,0,2242.0,2486.0,-2031.0,-2085.0,184.0,416.0
1811,-1734,-156,0,2019.0,2242.0,-1910.0,-2031.0,-9.0,184.0
1608,-1526,-250,0,1811.0,2019.0,-1734.0,-1910.0,-156.0,-9.0
1420,-1292,-323,0,1608.0,1811.0,-1526.0,-1734.0,-250.0,-156.0
1234,-1050,-402,0,1420.0,1608.0,-1292.0,-1526.0,-323.0,-250.0
1038,-815,-483,0,1234.0,1420.0,-1050.0,-1292.0,-402.0,-323.0
834,-600,-572,0,1038.0,1234.0,-815.0,-1050.0,-483.0,-402.0
630,-419,-684,0,834.0,1038.0,-600.0,-815.0,-572.0,-483.0
411,-275,-802,0,630.0,834.0,-419.0,-600.0,-684.0,-572.0
197,-158,-901,0,411.0,630.0,-275.0,-419.0,-802.0,-684.0
-21,-78,-980,0,197.0,411.0,-158.0,-275.0,-901.0,-802.0
-244,-14,-1014,0,-21.0,197.0,-78.0,-158.0,-980.0,-901.0
-456,34,-1009,0,-244.0,-21.0,-14.0,-78.0,-1014.0,-980.0
-653,70,-989,0,-456.0,-244.0,34.0,-14.0,-1009.0,-1014.0
-830,113,-957,0,-653.0,-456.0,70.0,34.0,-989.0,-1009.0
-999,158,-899,0,-830.0,-653.0,113.0,70.0,-957.0,-989.0
-1169,225,-819,0,-999.0,-830.0,158.0,113.0,-899.0,-957.0
-1340,308,-722,0,-1169.0,-999.0,225.0,158.0,-819.0,-899.0
-1510,414,-618,0,-1340.0,-1169.0,308.0,225.0,-722.0,-819.0
-1682,546,-507,0,-1510.0,-1340.0,414.0,308.0,-618.0,-722.0
-1852,703,-400,0,-1682.0,-1510.0,546.0,414.0,-507.0,-618.0
-2018,885,-285,0,-1852.0,-1682.0,703.0,546.0,-400.0,-507.0
-2164,1086,-173,0,-2018.0,-1852.0,885.0,703.0,-285.0,-400.0
-2264,1289,-90,0,-2164.0,-2018.0,1086.0,885.0,-173.0,-285.0
-2289,1463,-64,0,-2264.0,-2164.0,1289.0,1086.0,-90.0,-173.0
-2207,1561,-121,0,-2289.0,-2264.0,1463.0,1289.0,-64.0,-90.0
-2034,1570,-253,0,-2207.0,-2289.0,1561.0,1463.0,-121.0,-64.0
-1800,1486,-423,0,-2034.0,-2207.0,1570.0,1561.0,-253.0,-121.0
-1520,1311,-586,0,-1800.0,-2034.0,1486.0,1570.0,-423.0,-253.0
-1216,1058,-715,0,-1520.0,-1800.0,1311.0,1486.0,-586.0,-423.0
-899,754,-770,0,-1216.0,-1520.0,1058.0,1311.0,-715.0,-586.0
-548,396,-731,0,-899.0,-1216.0,754.0,1058.0,-770.0,-715.0
-158,-28,-644,0,-548.0,-899.0,396.0,754.0,-731.0,-770.0
310,-525,-577,0,-158.0,-548.0,-28.0,396.0,-644.0,-731.0
890,-1096,-531,0,310.0,-158.0,-525.0,-28.0,-577.0,-644.0
1733,-1696,-133,0,890.0,310.0,-1096.0,-525.0,-531.0,-577.0
2947,-2314,670,0,1733.0,890.0,-1696.0,-1096.0,-133.0,-531.0
4663,-3061,1626,0,2947.0,1733.0,-2314.0,-1696.0,670.0,-133.0
6613,-4041,2103,0,4663.0,2947.0,-3061.0,-2314.0,1626.0,670.0
8239,-5225,1422,0,6613.0,4663.0,-4041.0,-3061.0,2103.0,1626.0
9412,-6542,-513,0,8239.0,6613.0,-5225.0,-4041.0,1422.0,2103.0
10455,-7799,-2990,0,9412.0,8239.0,-6542.0,-5225.0,-513.0,1422.0
11804,-8881,-4995,0,10455.0,9412.0,-7799.0,-6542.0,-2990.0,-513.0
13543,-9536,-5901,0,11804.0,10455.0,-8881.0,-7799.0,-4995.0,-2990.0
15554,-9434,-5422,0,13543.0,11804.0,-9536.0,-8881.0,-5901.0,-4995.0
17577,-8208,-3398,0,15554.0,13543.0,-9434.0,-9536.0,-5422.0,-5901.0
19083,-6071,-288,0,17577.0,15554.0,-8208.0,-9434.0,-3398.0,-5422.0
19456,-3845,1739,0,19083.0,17577.0,-6071.0,-8208.0,-288.0,-3398.0
18407,-2134,1580,0,19456.0,19083.0,-3845.0,-6071.0,1739.0,-288.0
16421,-1094,270,0,18407.0,19456.0,-2134.0,-3845.0,1580.0,1739.0
14219,-491,-670,0,16421.0,18407.0,-1094.0,-2134.0,270.0,1580.0
12121,88,-714,0,14219.0,16421.0,-491.0,-1094.0,-670.0,270.0
10109,961,110,0,12121.0,14219.0,88.0,-491.0,-714.0,-670.0
8266,2082,1386,0,10109.0,12121.0,961.0,88.0,110.0,-714.0
6631,3258,2507,0,8266.0,10109.0,2082.0,961.0,1386.0,110.0
5146,4295,3134,0,6631.0,8266.0,3258.0,2082.0,2507.0,1386.0
3881,5033,3252,0,5146.0,6631.0,4295.0,3258.0,3134.0,2507.0
2924,5417,3064,0,3881.0,5146.0,5033.0,4295.0,3252.0,3134.0
2315,5440,2804,0,2924.0,3881.0,5417.0,5033.0,3064.0,3252.0
2025,5153,2623,0,2315.0,2924.0,5440.0,5417.0,2804.0,3064.0
2021,4586,2539,0,2025.0,2315.0,5153.0,5440.0,2623.0,2804.0
2256,3765,2512,0,2021.0,2025.0,4586.0,5153.0,2539.0,2623.0
2680,2773,2440,0,2256.0,2021.0,3765.0,4586.0,2512.0,2539.0
3224,1686,2262,0,2680.0,2256.0,2773.0,3765.0,2440.0,2512.0
3785,624,2000,0,3224.0,2680.0,1686.0,2773.0,2262.0,2440.0
4305,-326,1692,0,3785.0,3224.0,624.0,1686.0,2000.0,2262.0
4762,-1096,1387,0,4305.0,3785.0,-326.0,624.0,1692.0,2000.0
5162,-1679,1127,0,4762.0,4305.0,-1096.0,-326.0,1387.0,1692.0
5498,-2108,916,0,5162.0,4762.0,-1679.0,-1096.0,1127.0,1387.0
5760,-2410,759,0,5498.0,5162.0,-2108.0,-1679.0,916.0,1127.0
5932,-2610,640,0,5760.0,5498.0,-2410.0,-2108.0,759.0,916.0
5995,-2737,551,0,5932.0,5760.0,-2610.0,-2410.0,640.0,759.0
5955,-2805,492,0,5995.0,5932.0,-2737.0,-2610.0,551.0,640.0
5825,-2816,455,0,5955.0,5995.0,-2805.0,-2737.0,492.0,551.0
5625,-2798,414,0,5825.0,5955.0,-2816.0,-2805.0,455.0,492.0
5380,-2750,343,0,5625.0,5825.0,-2798.0,-2816.0,414.0,455.0
5108,-2669,217,0,5380.0,5625.0,-2750.0,-2798.0,343.0,414.0
4833,-2563,61,0,5108.0,5380.0,-2669.0,-2750.0,217.0,343.0
4580,-2449,-116,0,4833.0,5108.0,-2563.0,-2669.0,61.0,217.0
4351,-2327,-341,0,4580.0,4833.0,-2449.0,-2563.0,-116.0,61.0
4142,-2201,-571,0,4351.0,4580.0,-2327.0,-2449.0,-341.0,-116.0
3924,-2073,-745,0,4142.0,4351.0,-2201.0,-2327.0,-571.0,-341.0
3717,-1936,-894,0,3924.0,4142.0,-2073.0,-2201.0,-745.0,-571.0
3523,-1785,-1002,0,3717.0,3924.0,-1936.0,-2073.0,-894.0,-745.0
3346,-1630,-1085,0,3523.0,3717.0,-1785.0,-1936.0,-1002.0,-894.0
3179,-1472,-1123,0,3346.0,3523.0,-1630.0,-1785.0,-1085.0,-1002.0
3007,-1312,-1114,0,3179.0,3346.0,-1472.0,-1630.0,-1123.0,-1085.0
2817,-1145,-1077,0,3007.0,3179.0,-1312.0,-1472.0,-1114.0,-1123.0
2605,-980,-1021,0,2817.0,3007.0,-1145.0,-1312.0,-1077.0,-1114.0
2368,-830,-946,0,2605.0,2817.0,-980.0,-1145.0,-1021.0,-1077.0
2099,-700,-851,0,2368.0,2605.0,-830.0,-980.0,-946.0,-1021.0
1799,-595,-749,0,2099.0,2368.0,-700.0,-830.0,-851.0,-946.0
1468,-530,-632,0,1799.0,2099.0,-595.0,-700.0,-749.0,-851.0
1128,-520,-524,0,1468.0,1799.0,-530.0,-595.0,-632.0,-749.0
761,-565,-405,0,1128.0,1468.0,-520.0,-530.0,-524.0,-632.0
397,-661,-269,0,761.0,1128.0,-565.0,-520.0,-405.0,-524.0
46,-804,-133,0,397.0,761.0,-661.0,-565.0,-269.0,-405.0
-295,-979,2,0,46.0,397.0,-804.0,-661.0,-133.0,-269.0
-609,-1163,129,0,-295.0,46.0,-979.0,-804.0,2.0,-133.0
-901,-1327,211,0,-609.0,-295.0,-1163.0,-979.0,129.0,2.0
-1177,-1452,256,0,-901.0,-609.0,-1327.0,-1163.0,211.0,129.0
-1437,-1522,259,0,-1177.0,-901.0,-1452.0,-1327.0,256.0,211.0
-1669,-1519,224,0,-1437.0,-1177.0,-1522.0,-1452.0,259.0,256.0
-1866,-1449,142,0,-1669.0,-1437.0,-1519.0,-1522.0,224.0,259.0
-2012,-1332,18,0,-1866.0,-1669.0,-1449.0,-1519.0,142.0,224.0
-2097,-1204,-150,0,-2012.0,-1866.0,-1332.0,-1449.0,18.0,142.0
-2125,-1084,-320,0,-2097.0,-2012.0,-1204.0,-1332.0,-150.0,18.0
-2079,-994,-504,0,-2125.0,-2097.0,-1084.0,-1204.0,-320.0,-150.0
-1957,-955,-703,0,-2079.0,-2125.0,-994.0,-1084.0,-504.0,-320.0
-1778,-968,-951,0,-1957.0,-2079.0,-955.0,-994.0,-703.0,-504.0
-1534,-1059,-1245,0,-1778.0,-1957.0,-968.0,-955.0,-951.0,-703.0
-1225,-1221,-1564,0,-1534.0,-1778.0,-1059.0,-968.0,-1245.0,-951.0
-867,-1430,-1839,0,-1225.0,-1534.0,-1221.0,-1059.0,-1564.0,-1245.0
-437,-1655,-2026,0,-867.0,-1225.0,-1430.0,-1221.0,-1839.0,-1564.0
144,-1890,-1992,0,-437.0,-867.0,-1655.0,-1430.0,-2026.0,-1839.0
879,-2110,-1799,0,144.0,-437.0,-1890.0,-1655.0,-1992.0,-2026.0
1867,-2199,-1167,0,879.0,144.0,-2110.0,-1890.0,-1799.0,-1992.0
3389,-1972,533,0,1867.0,879.0,-2199.0,-2110.0,-1167.0,-1799.0
5507,-1537,2703,0,3389.0,1867.0,-1972.0,-2199.0,533.0,-1167.0
7815,-1275,4200,0,5507.0,3389.0,-1537.0,-1972.0,2703.0,533.0
9846,-1310,4506,0,7815.0,5507.0,-1275.0,-1537.0,4200.0,2703.0
11353,-1630,3786,0,9846.0,7815.0,-1310.0,-1275.0,4506.0,4200.0
12365,-2033,2361,0,11353.0,9846.0,-1630.0,-1310.0,3786.0,4506.0
13178,-2304,578,0,12365.0,11353.0,-2033.0,-1630.0,2361.0,3786.0
14011,-2498,-1289,0,13178.0,12365.0,-2304.0,-2033.0,578.0,2361.0
15123,-2516,-2383,0,14011.0,13178.0,-2498.0,-2304.0,-1289.0,578.0
16165,-2286,-2622,0,15123.0,14011.0,-2516.0,-2498.0,-2383.0,-1289.0
16880,-1684,-1946,0,16165.0,15123.0,-2286.0,-2516.0,-2622.0,-2383.0
16905,-690,-364,0,16880.0,16165.0,-1684.0,-2286.0,-1946.0,-2622.0
16153,234,1528,0,16905.0,16880.0,-690.0,-1684.0,-364.0,-1946.0
14861,735,3025,0,16153.0,16905.0,234.0,-690.0,1528.0,-364.0
13283,810,3798,0,14861.0,16153.0,735.0,234.0,3025.0,1528.0
11562,626,3816,0,13283.0,14861.0,810.0,735.0,3798.0,3025.0
9886,248,3382,0,11562.0,13283.0,626.0,810.0,3816.0,3798.0
8294,-207,2731,0,9886.0,11562.0,248.0,626.0,3382.0,3816.0
6785,-603,2129,0,8294.0,9886.0,-207.0,248.0,2731.0,3382.0
5392,-916,1625,0,6785.0,8294.0,-603.0,-207.0,2129.0,2731.0
4078,-1216,1184,0,5392.0,6785.0,-916.0,-603.0,1625.0,2129.0
2931,-1503,800,0,4078.0,5392.0,-1216.0,-916.0,1184.0,1625.0
2061,-1737,501,0,2931.0,4078.0,-1503.0,-1216.0,800.0,1184.0
1494,-1901,312,0,2061.0,2931.0,-1737.0,-1503.0,501.0,800.0
1213,-1997,247,0,1494.0,2061.0,-1901.0,-1737.0,312.0,501.0
1170,-2043,337,0,1213.0,1494.0,-1997.0,-1901.0,247.0,312.0
1337,-2048,569,0,1170.0,1213.0,-2043.0,-1997.0,337.0,247.0
1674,-2023,892,0,1337.0,1170.0,-2048.0,-2043.0,569.0,337.0
2127,-1958,1250,0,1674.0,1337.0,-2023.0,-2048.0,892.0,569.0
2641,-1839,1569,0,2127.0,1674.0,-1958.0,-2023.0,1250.0,892.0
3143,-1654,1814,0,2641.0,2127.0,-1839.0,-1958.0,1569.0,1250.0
3568,-1404,1893,0,3143.0,2641.0,-1654.0,-1839.0,1814.0,1569.0
3848,-1126,1771,0,3568.0,3143.0,-1404.0,-1654.0,1893.0,1814.0
3982,-865,1496,0,3848.0,3568.0,-1126.0,-1404.0,1771.0,1893.0
3996,-653,1124,0,3982.0,3848.0,-865.0,-1126.0,1496.0,1771.0
3889,-496,725,0,3996.0,3982.0,-653.0,-865.0,1124.0,1496.0
3689,-395,357,0,3889.0,3996.0,-496.0,-653.0,725.0,1124.0
3422,-339,58,0,3689.0,3889.0,-395.0,-496.0,357.0,725.0
3096,-307,-145,0,3422.0,3689.0,-339.0,-395.0,58.0,357.0
2745,-306,-281,0,3096.0,3422.0,-307.0,-339.0,-145.0,58.0
2368,-317,-368,0,2745.0,3096.0,-306.0,-307.0,-281.0,-145.0
1959,-324,-426,0,2368.0,2745.0,-317.0,-306.0,-368.0,-281.0
1516,-297,-449,0,1959.0,2368.0,-324.0,-317.0,-426.0,-368.0
1037,-226,-445,0,1516.0,1959.0,-297.0,-324.0,-449.0,-426.0
512,-117,-400,0,1037.0,1516.0,-226.0,-297.0,-445.0,-449.0
-37,31,-345,0,512.0,1037.0,-117.0,-226.0,-400.0,-445.0
-588,202,-280,0,-37.0,512.0,31.0,-117.0,-345.0,-400.0
-1107,382,-242,0,-588.0,-37.0,202.0,31.0,-280.0,-345.0
-1587,576,-221,0,-1107.0,-588.0,382.0,202.0,-242.0,-280.0
-2008,789,-215,0,-1587.0,-1107.0,576.0,382.0,-221.0,-242.0
-2352,1045,-191,0,-2008.0,-1587.0,789.0,576.0,-215.0,-221.0
-2618,1339,-146,0,-2352.0,-2008.0,1045.0,789.0,-191.0,-215.0
-2806,1641,-117,0,-2618.0,-2352.0,1339.0,1045.0,-146.0,-191.0
-2946,1970,-122,0,-2806.0,-2618.0,1641.0,1339.0,-117.0,-146.0
-3026,2309,-163,0,-2946.0,-2806.0,1970.0,1641.0,-122.0,-117.0
-3041,2636,-230,0,-3026.0,-2946.0,2309.0,1970.0,-163.0,-122.0
-2979,2919,-302,0,-3041.0,-3026.0,2636.0,2309.0,-230.0,-163.0
-2810,3097,-374,0,-2979.0,-3041.0,2919.0,2636.0,-302.0,-230.0
-2544,3148,-424,0,-2810.0,-2979.0,3097.0,2919.0,-374.0,-302.0
-2217,3101,-441,0,-2544.0,-2810.0,3148.0,3097.0,-424.0,-374.0
-1853,2960,-416,0,-2217.0,-2544.0,3101.0,3148.0,-441.0,-424.0
-1449,2722,-353,0,-1853.0,-2217.0,2960.0,3101.0,-416.0,-441.0
-1018,2384,-272,0,-1449.0,-1853.0,2722.0,2960.0,-353.0,-416.0
-579,1932,-245,0,-1018.0,-1449.0,2384.0,2722.0,-272.0,-353.0
-156,1340,-316,0,-579.0,-1018.0,1932.0,2384.0,-245.0,-272.0
286,609,-465,0,-156.0,-579.0,1340.0,1932.0,-316.0,-245.0
777,-263,-615,0,286.0,-156.0,609.0,1340.0,-465.0,-316.0
1394,-1265,-581,0,777.0,286.0,-263.0,609.0,-615.0,-465.0
2337,-2414,-26,0,1394.0,777.0,-1265.0,-263.0,-581.0,-615.0
3683,-3697,935,0,2337.0,1394.0,-2414.0,-1265.0,-26.0,-581.0
5218,-5090,1682,0,3683.0,2337.0,-3697.0,-2414.0,935.0,-26.0
6335,-6475,1236,0,5218.0,3683.0,-5090.0,-3697.0,1682.0,935.0
6926,-7929,-406,0,6335.0,5218.0,-6475.0,-5090.0,1236.0,1682.0
7325,-9509,-2707,0,6926.0,6335.0,-7929.0,-6475.0,-406.0,1236.0
8012,-10928,-5065,0,7325.0,6926.0,-9509.0,-7929.0,-2707.0,-406.0
9139,-11967,-7242,0,8012.0,7325.0,-10928.0,-9509.0,-5065.0,-2707.0
10664,-12360,-9030,0,9139.0,8012.0,-11967.0,-10928.0,-7242.0,-5065.0
12313,-11802,-9342,0,10664.0,9139.0,-12360.0,-11967.0,-9030.0,-7242.0
13878,-9954,-7192,0,12313.0,10664.0,-11802.0,-12360.0,-9342.0,-9030.0
15090,-6980,-2910,0,13878.0,12313.0,-9954.0,-11802.0,-7192.0,-9342.0
15819,-3717,1709,0,15090.0,13878.0,-6980.0,-9954.0,-2910.0,-7192.0
15936,-1088,4164,0,15819.0,15090.0,-3717.0,-6980.0,1709.0,-2910.0
15391,488,3931,0,15936.0,15819.0,-1088.0,-3717.0,4164.0,1709.0
14344,1200,2096,0,15391.0,15936.0,488.0,-1088.0,3931.0,4164.0
13138,1367,196,0,14344.0,15391.0,1200.0,488.0,2096.0,3931.0
11971,1327,-765,0,13138.0,14344.0,1367.0,1200.0,196.0,2096.0
10942,1272,-707,0,11971.0,13138.0,1327.0,1367.0,-765.0,196.0
10073,1235,-134,0,10942.0,11971.0,1272.0,1327.0,-707.0,-765.0
9299,1215,513,0,10073.0,10942.0,1235.0,1272.0,-134.0,-707.0
8567,1182,1019,0,9299.0,10073.0,1215.0,1235.0,513.0,-134.0
7829,1163,1390,0,8567.0,9299.0,1182.0,1215.0,1019.0,513.0
7091,1202,1622,0,7829.0,8567.0,1163.0,1182.0,1390.0,1019.0
6343,1317,1729,0,7091.0,7829.0,1202.0,1163.0,1622.0,1390.0
5615,1502,1759,0,6343.0,7091.0,1317.0,1202.0,1729.0,1622.0
4964,1723,1774,0,5615.0,6343.0,1502.0,1317.0,1759.0,1729.0
4429,1924,1727,0,4964.0,5615.0,1723.0,1502.0,1774.0,1759.0
3994,2086,1612,0,4429.0,4964.0,1924.0,1723.0,1727.0,1774.0
3636,2166,1411,0,3994.0,4429.0,2086.0,1924.0,1612.0,1727.0
3347,2148,1140,0,3636.0,3994.0,2166.0,2086.0,1411.0,1612.0
3114,2024,818,0,3347.0,3636.0,2148.0,2166.0,1140.0,1411.0
2946,1818,462,0,3114.0,3347.0,2024.0,2148.0,818.0,1140.0
2823,1546,86,0,2946.0,3114.0,1818.0,2024.0,462.0,818.0
2719,1204,-293,0,2823.0,2946.0,1546.0,1818.0,86.0,462.0
2633,826,-631,0,2719.0,2823.0,1204.0,1546.0,-293.0,86.0
2553,439,-916,0,2633.0,2719.0,826.0,1204.0,-631.0,-293.0
2484,67,-1159,0,2553.0,2633.0,439.0,826.0,-916.0,-631.0
2428,-296,-1355,0,2484.0,2553.0,67.0,439.0,-1159.0,-916.0
2377,-654,-1515,0,2428.0,2484.0,-296.0,67.0,-1355.0,-1159.0
2339,-990,-1628,0,2377.0,2428.0,-654.0,-296.0,-1515.0,-1355.0
2302,-1293,-1703,0,2339.0,2377.0,-990.0,-654.0,-1628.0,-1515.0
2270,-1568,-1732,0,2302.0,2339.0,-1293.0,-990.0,-1703.0,-1628.0
2239,-1801,-1696,0,2270.0,2302.0,-1568.0,-1293.0,-1732.0,-1703.0
2196,-2000,-1585,0,2239.0,2270.0,-1801.0,-1568.0,-1696.0,-1732.0
2143,-2157,-1389,0,2196.0,2239.0,-2000.0,-1801.0,-1585.0,-1696.0
2080,-2270,-1121,0,2143.0,2196.0,-2157.0,-2000.0,-1389.0,-1585.0
2002,-2358,-807,0,2080.0,2143.0,-2270.0,-2157.0,-1121.0,-1389.0
1929,-2430,-463,0,2002.0,2080.0,-2358.0,-2270.0,-807.0,-1121.0
1850,-2519,-134,0,1929.0,2002.0,-2430.0,-2358.0,-463.0,-807.0
1759,-2621,136,0,1850.0,1929.0,-2519.0,-2430.0,-134.0,-463.0
1655,-2739,328,0,1759.0,1850.0,-2621.0,-2519.0,136.0,-134.0
1536,-2870,430,0,1655.0,1759.0,-2739.0,-2621.0,328.0,136.0
1399,-3002,435,0,1536.0,1655.0,-2870.0,-2739.0,430.0,328.0
1245,-3135,414,0,1399.0,1536.0,-3002.0,-2870.0,435.0,430.0
1075,-3269,423,0,1245.0,1399.0,-3135.0,-3002.0,414.0,435.0
897,-3403,447,0,1075.0,1245.0,-3269.0,-3135.0,423.0,414.0
719,-3512,446,0,897.0,1075.0,-3403.0,-3269.0,447.0,423.0
547,-3581,405,0,719.0,897.0,-3512.0,-3403.0,446.0,447.0
359,-3597,335,0,547.0,719.0,-3581.0,-3512.0,405.0,446.0
172,-3549,222,0,359.0,547.0,-3597.0,-3581.0,335.0,405.0
-21,-3441,74,0,172.0,359.0,-3549.0,-3597.0,222.0,335.0
-205,-3280,-109,0,-21.0,172.0,-3441.0,-3549.0,74.0,222.0
-371,-3066,-320,0,-205.0,-21.0,-3280.0,-3441.0,-109.0,74.0
-527,-2807,-544,0,-371.0,-205.0,-3066.0,-3280.0,-320.0,-109.0
-651,-2518,-774,0,-527.0,-371.0,-2807.0,-3066.0,-544.0,-320.0
-744,-2206,-1006,0,-651.0,-527.0,-2518.0,-2807.0,-774.0,-544.0
-810,-1860,-1214,0,-744.0,-651.0,-2206.0,-2518.0,-1006.0,-774.0
-855,-1474,-1387,0,-810.0,-744.0,-1860.0,-2206.0,-1214.0,-1006.0
-885,-1074,-1506,0,-855.0,-810.0,-1474.0,-1860.0,-1387.0,-1214.0
-910,-683,-1556,0,-885.0,-855.0,-1074.0,-1474.0,-1506.0,-1387.0
-932,-353,-1591,0,-910.0,-885.0,-683.0,-1074.0,-1556.0,-1506.0
-927,-144,-1667,0,-932.0,-910.0,-353.0,-683.0,-1591.0,-1556.0
-855,-74,-1812,0,-927.0,-932.0,-144.0,-353.0,-1667.0,-1591.0
-696,-135,-1965,0,-855.0,-927.0,-74.0,-144.0,-1812.0,-1667.0
-393,-286,-1949,0,-696.0,-855.0,-135.0,-74.0,-1965.0,-1812.0
134,-473,-1811,0,-393.0,-696.0,-286.0,-135.0,-1949.0,-1965.0
889,-651,-1554,0,134.0,-393.0,-473.0,-286.0,-1811.0,-1949.0
2154,-690,-464,0,889.0,134.0,-651.0,-473.0,-1554.0,-1811.0
4257,-646,1512,0,2154.0,889.0,-690.0,-651.0,-464.0,-1554.0
6907,-726,3361,0,4257.0,2154.0,-646.0,-690.0,1512.0,-464.0
9372,-1212,3713,0,6907.0,4257.0,-726.0,-646.0,3361.0,1512.0
11418,-1968,2891,0,9372.0,6907.0,-1212.0,-726.0,3713.0,3361.0
13238,-2880,1645,0,11418.0,9372.0,-1968.0,-1212.0,2891.0,3713.0
14867,-3905,-42,0,13238.0,11418.0,-2880.0,-1968.0,1645.0,2891.0
16351,-4908,-1687,0,14867.0,13238.0,-3905.0,-2880.0,-42.0,1645.0
17448,-5659,-2988,0,16351.0,14867.0,-4908.0,-3905.0,-1687.0,-42.0
18007,-5997,-3711,0,17448.0,16351.0,-5659.0,-4908.0,-2988.0,-1687.0
17988,-5759,-3397,0,18007.0,17448.0,-5997.0,-5659.0,-3711.0,-2988.0
17112,-4842,-1960,0,17988.0,18007.0,-5759.0,-5997.0,-3397.0,-3711.0
15582,-3776,-25,0,17112.0,17988.0,-4842.0,-5759.0,-1960.0,-3397.0
13734,-2880,1598,0,15582.0,17112.0,-3776.0,-4842.0,-25.0,-1960.0
11812,-2230,2642,0,13734.0,15582.0,-2880.0,-3776.0,1598.0,-25.0
9959,-1716,3076,0,11812.0,13734.0,-2230.0,-2880.0,2642.0,1598.0
8163,-1278,3200,0,9959.0,11812.0,-1716.0,-2230.0,3076.0,2642.0
6451,-835,3216,0,8163.0,9959.0,-1278.0,-1716.0,3200.0,3076.0
4889,-398,3047,0,6451.0,8163.0,-835.0,-1278.0,3216.0,3200.0
3557,-52,2571,0,4889.0,6451.0,-398.0,-835.0,3047.0,3216.0
2485,157,1833,0,3557.0,4889.0,-52.0,-398.0,2571.0,3047.0
1647,258,1007,0,2485.0,3557.0,157.0,-52.0,1833.0,2571.0
1006,323,299,0,1647.0,2485.0,258.0,157.0,1007.0,1833.0
557,355,-271,0,1006.0,1647.0,323.0,258.0,299.0,1007.0
329,325,-711,0,557.0,1006.0,355.0,323.0,-271.0,299.0
303,231,-1008,0,329.0,557.0,325.0,355.0,-711.0,-271.0
452,109,-1080,0,303.0,329.0,231.0,325.0,-1008.0,-711.0
744,3,-877,0,452.0,303.0,109.0,231.0,-1080.0,-1008.0
1101,-63,-506,0,744.0,452.0,3.0,109.0,-877.0,-1080.0
1467,-74,-109,0,1101.0,744.0,-63.0,3.0,-506.0,-877.0
1801,-39,214,0,1467.0,1101.0,-74.0,-63.0,-109.0,-506.0
2078,32,424,0,1801.0,1467.0,-39.0,-74.0,214.0,-109.0
2267,121,505,0,2078.0,1801.0,32.0,-39.0,424.0,214.0
2346,204,469,0,2267.0,2078.0,121.0,32.0,505.0,424.0
2325,247,331,0,2346.0,2267.0,204.0,121.0,469.0,505.0
2200,243,129,0,2325.0,2346.0,247.0,204.0,331.0,469.0
1975,206,-99,0,2200.0,2325.0,243.0,247.0,129.0,331.0
1663,130,-328,0,1975.0,2200.0,206.0,243.0,-99.0,129.0
1266,45,-520,0,1663.0,1975.0,130.0,206.0,-328.0,-99.0
807,-53,-667,0,1266.0,1663.0,45.0,130.0,-520.0,-328.0
288,-118,-749,0,807.0,1266.0,-53.0,45.0,-667.0,-520.0
-291,-142,-734,0,288.0,807.0,-118.0,-53.0,-749.0,-667.0
-917,-125,-629,0,-291.0,288.0,-142.0,-118.0,-734.0,-749.0
-1526,-57,-440,0,-917.0,-291.0,-125.0,-142.0,-629.0,-734.0
-2080,62,-177,0,-1526.0,-917.0,-57.0,-125.0,-440.0,-629.0
-2585,228,122,0,-2080.0,-1526.0,62.0,-57.0,-177.0,-440.0
-3027,440,415,0,-2585.0,-2080.0,228.0,62.0,122.0,-177.0
-3375,700,656,0,-3027.0,-2585.0,440.0,228.0,415.0,122.0
-3601,992,792,0,-3375.0,-3027.0,700.0,440.0,656.0,415.0
-3701,1287,777,0,-3601.0,-3375.0,992.0,700.0,792.0,656.0
-3691,1569,618,0,-3701.0,-3601.0,1287.0,992.0,777.0,792.0
-3569,1795,360,0,-3691.0,-3701.0,1569.0,1287.0,618.0,777.0
-3327,1917,85,0,-3569.0,-3691.0,1795.0,1569.0,360.0,618.0
-2964,1904,-111,0,-3327.0,-3569.0,1917.0,1795.0,85.0,360.0
-2472,1749,-218,0,-2964.0,-3327.0,1904.0,1917.0,-111.0,85.0
-1874,1474,-310,0,-2472.0,-2964.0,1749.0,1904.0,-218.0,-111.0
-1218,1074,-415,0,-1874.0,-2472.0,1474.0,1749.0,-310.0,-218.0
-515,574,-479,0,-1218.0,-1874.0,1074.0,1474.0,-415.0,-310.0
232,2,-405,0,-515.0,-1218.0,574.0,1074.0,-479.0,-415.0
1077,-678,-1,0,232.0,-515.0,2.0,574.0,-405.0,-479.0
2359,-1526,1318,0,1077.0,232.0,-678.0,2.0,-1.0,-405.0
4500,-2546,3741,0,2359.0,1077.0,-1526.0,-678.0,1318.0,-1.0
7130,-3834,5920,0,4500.0,2359.0,-2546.0,-1526.0,3741.0,1318.0
8677,-5236,4936,0,7130.0,4500.0,-3834.0,-2546.0,5920.0,3741.0
8875,-6707,1048,0,8677.0,7130.0,-5236.0,-3834.0,4936.0,5920.0
8908,-8381,-3329,0,8875.0,8677.0,-6707.0,-5236.0,1048.0,4936.0
9800,-9735,-7463,0,8908.0,8875.0,-8381.0,-6707.0,-3329.0,1048.0
11786,-10664,-10839,0,9800.0,8908.0,-9735.0,-8381.0,-7463.0,-3329.0
14152,-10573,-12456,0,11786.0,9800.0,-10664.0,-9735.0,-10839.0,-7463.0
16854,-9231,-11039,0,14152.0,11786.0,-10573.0,-10664.0,-12456.0,-10839.0
19471,-5995,-5000,0,16854.0,14152.0,-9231.0,-10573.0,-11039.0,-12456.0
20993,-2100,2051,0,19471.0,16854.0,-5995.0,-9231.0,-5000.0,-11039.0
20750,1165,5547,0,20993.0,19471.0,-2100.0,-5995.0,2051.0,-5000.0
19008,2948,4579,0,20750.0,20993.0,1165.0,-2100.0,5547.0,2051.0
16750,3461,1638,0,19008.0,20750.0,2948.0,1165.0,4579.0,5547.0
14619,3361,-748,0,16750.0,19008.0,3461.0,2948.0,1638.0,4579.0
12704,3054,-1618,0,14619.0,16750.0,3361.0,3461.0,-748.0,1638.0
10840,2671,-1285,0,12704.0,14619.0,3054.0,3361.0,-1618.0,-748.0
8878,2331,-103,0,10840.0,12704.0,2671.0,3054.0,-1285.0,-1618.0
7071,1972,1121,0,8878.0,10840.0,2331.0,2671.0,-103.0,-1285.0
5417,1604,1967,0,7071.0,8878.0,1972.0,2331.0,1121.0,-103.0
3906,1175,2291,0,5417.0,7071.0,1604.0,1972.0,1967.0,1121.0
2647,703,2275,0,3906.0,5417.0,1175.0,1604.0,2291.0,1967.0
1725,150,1964,0,2647.0,3906.0,703.0,1175.0,2275.0,2291.0
1115,-450,1419,0,1725.0,2647.0,150.0,703.0,1964.0,2275.0
764,-1044,776,0,1115.0,1725.0,-450.0,150.0,1419.0,1964.0
630,-1585,165,0,764.0,1115.0,-1044.0,-450.0,776.0,1419.0
669,-2015,-322,0,630.0,764.0,-1585.0,-1044.0,165.0,776.0
839,-2291,-599,0,669.0,630.0,-2015.0,-1585.0,-322.0,165.0
1095,-2407,-659,0,839.0,669.0,-2291.0,-2015.0,-599.0,-322.0
1408,-2373,-548,0,1095.0,839.0,-2407.0,-2291.0,-659.0,-599.0
1745,-2213,-325,0,1408.0,1095.0,-2373.0,-2407.0,-548.0,-659.0
2080,-1938,-99,0,1745.0,1408.0,-2213.0,-2373.0,-325.0,-548.0
2393,-1580,67,0,2080.0,1745.0,-1938.0,-2213.0,-99.0,-325.0
2664,-1181,109,0,2393.0,2080.0,-1580.0,-1938.0,67.0,-99.0
2893,-804,17,0,2664.0,2393.0,-1181.0,-1580.0,109.0,67.0
3089,-496,-184,0,2893.0,2664.0,-804.0,-1181.0,17.0,109.0
3251,-275,-416,0,3089.0,2893.0,-496.0,-804.0,-184.0,17.0
3384,-162,-630,0,3251.0,3089.0,-275.0,-496.0,-416.0,-184.0
3476,-155,-816,0,3384.0,3251.0,-162.0,-275.0,-630.0,-416.0
3497,-260,-985,0,3476.0,3384.0,-155.0,-162.0,-816.0,-630.0
3435,-451,-1109,0,3497.0,3476.0,-260.0,-155.0,-985.0,-816.0
3295,-700,-1173,0,3435.0,3497.0,-451.0,-260.0,-1109.0,-985.0
3095,-993,-1185,0,3295.0,3435.0,-700.0,-451.0,-1173.0,-1109.0
2867,-1313,-1133,0,3095.0,3295.0,-993.0,-700.0,-1185.0,-1173.0
2639,-1662,-1034,0,2867.0,3095.0,-1313.0,-993.0,-1133.0,-1185.0
2438,-2019,-902,0,2639.0,2867.0,-1662.0,-1313.0,-1034.0,-1133.0
2268,-2360,-748,0,2438.0,2639.0,-2019.0,-1662.0,-902.0,-1034.0
2125,-2653,-598,0,2268.0,2438.0,-2360.0,-2019.0,-748.0,-902.0
1979,-2870,-477,0,2125.0,2268.0,-2653.0,-2360.0,-598.0,-748.0
1824,-3011,-382,0,1979.0,2125.0,-2870.0,-2653.0,-477.0,-598.0
1653,-3077,-301,0,1824.0,1979.0,-3011.0,-2870.0,-382.0,-477.0
1455,-3072,-238,0,1653.0,1824.0,-3077.0,-3011.0,-301.0,-382.0
1244,-3016,-187,0,1455.0,1653.0,-3072.0,-3077.0,-238.0,-301.0
1007,-2901,-113,0,1244.0,1455.0,-3016.0,-3072.0,-187.0,-238.0
750,-2728,-19,0,1007.0,1244.0,-2901.0,-3016.0,-113.0,-187.0
468,-2492,101,0,750.0,1007.0,-2728.0,-2901.0,-19.0,-113.0
181,-2197,234,0,468.0,750.0,-2492.0,-2728.0,101.0,-19.0
-144,-1844,371,0,181.0,468.0,-2197.0,-2492.0,234.0,101.0
-490,-1466,491,0,-144.0,181.0,-1844.0,-2197.0,371.0,234.0
-862,-1062,591,0,-490.0,-144.0,-1466.0,-1844.0,491.0,371.0
-1252,-654,654,0,-862.0,-490.0,-1062.0,-1466.0,591.0,491.0
-1653,-250,681,0,-1252.0,-862.0,-654.0,-1062.0,654.0,591.0
-2036,102,634,0,-1653.0,-1252.0,-250.0,-654.0,681.0,654.0
-2358,366,497,0,-2036.0,-1653.0,102.0,-250.0,634.0,681.0
-2566,508,238,0,-2358.0,-2036.0,366.0,102.0,497.0,634.0
-2605,504,-106,0,-2566.0,-2358.0,508.0,366.0,238.0,497.0
-2492,381,-489,0,-2605.0,-2566.0,504.0,508.0,-106.0,238.0
-2283,198,-870,0,-2492.0,-2605.0,381.0,504.0,-489.0,-106.0
-2024,1,-1222,0,-2283.0,-2492.0,198.0,381.0,-870.0,-489.0
-1735,-245,-1551,0,-2024.0,-2283.0,1.0,198.0,-1222.0,-870.0
-1406,-587,-1896,0,-1735.0,-2024.0,-245.0,1.0,-1551.0,-1222.0
-1002,-1014,-2285,0,-1406.0,-1735.0,-587.0,-245.0,-1896.0,-1551.0
-488,-1433,-2637,0,-1002.0,-1406.0,-1014.0,-587.0,-2285.0,-1896.0
149,-1807,-2858,0,-488.0,-1002.0,-1433.0,-1014.0,-2637.0,-2285.0
972,-2142,-2808,0,149.0,-488.0,-1807.0,-1433.0,-2858.0,-2637.0
2114,-2448,-2213,0,972.0,149.0,-2142.0,-1807.0,-2808.0,-2858.0
4382,-2347,633,0,2114.0,972.0,-2448.0,-2142.0,-2213.0,-2808.0
8116,-2213,4683,0,4382.0,2114.0,-2347.0,-2448.0,633.0,-2213.0
11442,-2411,6271,0,8116.0,4382.0,-2213.0,-2347.0,4683.0,633.0
13486,-2986,5064,0,11442.0,8116.0,-2411.0,-2213.0,6271.0,4683.0
14743,-3824,2692,0,13486.0,11442.0,-2986.0,-2411.0,5064.0,6271.0
15991,-4736,451,0,14743.0,13486.0,-3824.0,-2986.0,2692.0,5064.0
17378,-5484,-1321,0,15991.0,14743.0,-4736.0,-3824.0,451.0,2692.0
18450,-6107,-2499,0,17378.0,15991.0,-5484.0,-4736.0,-1321.0,451.0
19026,-6346,-2876,0,18450.0,17378.0,-6107.0,-5484.0,-2499.0,-1321.0
18771,-6044,-2555,0,19026.0,18450.0,-6346.0,-6107.0,-2876.0,-2499.0
17516,-5149,-1605,0,18771.0,19026.0,-6044.0,-6346.0,-2555.0,-2876.0
15619,-4003,-295,0,17516.0,18771.0,-5149.0,-6044.0,-1605.0,-2555.0
13465,-2877,971,0,15619.0,17516.0,-4003.0,-5149.0,-295.0,-1605.0
11398,-1970,2029,0,13465.0,15619.0,-2877.0,-4003.0,971.0,-295.0
9542,-1331,2541,0,11398.0,13465.0,-1970.0,-2877.0,2029.0,971.0
7891,-955,2517,0,9542.0,11398.0,-1331.0,-1970.0,2541.0,2029.0
6301,-741,2156,0,7891.0,9542.0,-955.0,-1331.0,2517.0,2541.0
4766,-536,1665,0,6301.0,7891.0,-741.0,-955.0,2156.0,2517.0
3321,-322,1124,0,4766.0,6301.0,-536.0,-741.0,1665.0,2156.0
2049,-117,608,0,3321.0,4766.0,-322.0,-536.0,1124.0,1665.0
984,144,203,0,2049.0,3321.0,-117.0,-322.0,608.0,1124.0
159,509,-107,0,984.0,2049.0,144.0,-117.0,203.0,608.0
-410,912,-441,0,159.0,984.0,509.0,144.0,-107.0,203.0
-748,1278,-821,0,-410.0,159.0,912.0,509.0,-441.0,-107.0
-900,1562,-1145,0,-748.0,-410.0,1278.0,912.0,-821.0,-441.0
-909,1760,-1341,0,-900.0,-748.0,1562.0,1278.0,-1145.0,-821.0
-799,1858,-1358,0,-909.0,-900.0,1760.0,1562.0,-1341.0,-1145.0
-600,1891,-1170,0,-799.0,-909.0,1858.0,1760.0,-1358.0,-1341.0
-327,1873,-809,0,-600.0,-799.0,1891.0,1858.0,-1170.0,-1358.0
1,1839,-311,0,-327.0,-600.0,1873.0,1891.0,-809.0,-1170.0
391,1822,344,0,1.0,-327.0,1839.0,1873.0,-311.0,-809.0
851,1855,1161,0,391.0,1.0,1822.0,1839.0,344.0,-311.0
1272,1865,1812,0,851.0,391.0,1855.0,1822.0,1161.0,344.0
1591,1793,2094,0,1272.0,851.0,1865.0,1855.0,1812.0,1161.0
1763,1619,1971,0,1591.0,1272.0,1793.0,1865.0,2094.0,1812.0
1773,1336,1518,0,1763.0,1591.0,1619.0,1793.0,1971.0,2094.0
1638,963,879,0,1773.0,1763.0,1336.0,1619.0,1518.0,1971.0
1396,532,202,0,1638.0,1773.0,963.0,1336.0,879.0,1518.0
1084,92,-403,0,1396.0,1638.0,532.0,963.0,202.0,879.0
733,-333,-878,0,1084.0,1396.0,92.0,532.0,-403.0,202.0
361,-711,-1182,0,733.0,1084.0,-333.0,92.0,-878.0,-403.0
-23,-1007,-1270,0,361.0,733.0,-711.0,-333.0,-1182.0,-878.0
-417,-1219,-1183,0,-23.0,361.0,-1007.0,-711.0,-1270.0,-1182.0
-801,-1345,-981,0,-417.0,-23.0,-1219.0,-1007.0,-1183.0,-1270.0
-1157,-1386,-710,0,-801.0,-417.0,-1345.0,-1219.0,-981.0,-1183.0
-1462,-1334,-425,0,-1157.0,-801.0,-1386.0,-1345.0,-710.0,-981.0
-1720,-1200,-142,0,-1462.0,-1157.0,-1334.0,-1386.0,-425.0,-710.0
-1938,-1009,114,0,-1720.0,-1462.0,-1200.0,-1334.0,-142.0,-425.0
-2142,-757,359,0,-1938.0,-1720.0,-1009.0,-1200.0,114.0,-142.0
-2303,-462,555,0,-2142.0,-1938.0,-757.0,-1009.0,359.0,114.0
-2386,-127,696,0,-2303.0,-2142.0,-462.0,-757.0,555.0,359.0
-2349,227,786,0,-2386.0,-2303.0,-127.0,-462.0,696.0,555.0
-2138,531,798,0,-2349.0,-2386.0,227.0,-127.0,786.0,696.0
-1744,678,753,0,-2138.0,-2349.0,531.0,227.0,798.0,786.0
-1224,613,615,0,-1744.0,-2138.0,678.0,531.0,753.0,798.0
-655,377,377,0,-1224.0,-1744.0,613.0,678.0,615.0,753.0
-61,49,194,0,-655.0,-1224.0,377.0,613.0,377.0,615.0
608,-341,326,0,-61.0,-655.0,49.0,377.0,194.0,377.0
1628,-783,1345,0,608.0,-61.0,-341.0,49.0,326.0,194.0
3289,-1343,3136,0,1628.0,608.0,-783.0,-341.0,1345.0,326.0
5470,-2078,4933,0,3289.0,1628.0,-1343.0,-783.0,3136.0,1345.0
7363,-2976,5406,0,5470.0,3289.0,-2078.0,-1343.0,4933.0,3136.0
8298,-4010,3635,0,7363.0,5470.0,-2976.0,-2078.0,5406.0,4933.0
8732,-5205,705,0,8298.0,7363.0,-4010.0,-2976.0,3635.0,5406.0
9478,-6542,-2501,0,8732.0,8298.0,-5205.0,-4010.0,705.0,3635.0
10703,-7739,-6432,0,9478.0,8732.0,-6542.0,-5205.0,-2501.0,705.0
12541,-8681,-10275,0,10703.0,9478.0,-7739.0,-6542.0,-6432.0,-2501.0
15212,-8902,-12232,0,12541.0,10703.0,-8681.0,-7739.0,-10275.0,-6432.0
18431,-7509,-9510,0,15212.0,12541.0,-8902.0,-8681.0,-12232.0,-10275.0
21222,-4282,-2402,0,18431.0,15212.0,-7509.0,-8902.0,-9510.0,-12232.0
22314,-449,3811,0,21222.0,18431.0,-4282.0,-7509.0,-2402.0,-9510.0
21164,2446,5297,0,22314.0,21222.0,-449.0,-4282.0,3811.0,-2402.0
18659,3821,3248,0,21164.0,22314.0,2446.0,-449.0,5297.0,3811.0
15784,4142,640,0,18659.0,21164.0,3821.0,2446.0,3248.0,5297.0
12955,4089,-758,0,15784.0,18659.0,4142.0,3821.0,640.0,3248.0
10140,4096,-695,0,12955.0,15784.0,4089.0,4142.0,-758.0,640.0
7542,4182,389,0,10140.0,12955.0,4096.0,4089.0,-695.0,-758.0
5308,4240,1558,0,7542.0,10140.0,4182.0,4096.0,389.0,-695.0
3399,4218,2444,0,5308.0,7542.0,4240.0,4182.0,1558.0,389.0
1903,3989,2723,0,3399.0,5308.0,4218.0,4240.0,2444.0,1558.0
864,3549,2434,0,1903.0,3399.0,3989.0,4218.0,2723.0,2444.0
257,2938,1878,0,864.0,1903.0,3549.0,3989.0,2434.0,2723.0
-2,2212,1291,0,257.0,864.0,2938.0,3549.0,1878.0,2434.0
13,1408,787,0,-2.0,257.0,2212.0,2938.0,1291.0,1878.0
265,555,432,0,13.0,-2.0,1408.0,2212.0,787.0,1291.0
675,-270,270,0,265.0,13.0,555.0,1408.0,432.0,787.0
1169,-1000,266,0,675.0,265.0,-270.0,555.0,270.0,432.0
1690,-1556,396,0,1169.0,675.0,-1000.0,-270.0,266.0,270.0
2204,-1911,604,0,1690.0,1169.0,-1556.0,-1000.0,396.0,266.0
2690,-2068,856,0,2204.0,1690.0,-1911.0,-1556.0,604.0,396.0
3118,-2044,1099,0,2690.0,2204.0,-2068.0,-1911.0,856.0,604.0
3481,-1882,1280,0,3118.0,2690.0,-2044.0,-2068.0,1099.0,856.0
3771,-1621,1346,0,3481.0,3118.0,-1882.0,-2044.0,1280.0,1099.0
3989,-1316,1290,0,3771.0,3481.0,-1621.0,-1882.0,1346.0,1280.0
4147,-1019,1127,0,3989.0,3771.0,-1316.0,-1621.0,1290.0,1346.0
4240,-770,894,0,4147.0,3989.0,-1019.0,-1316.0,1127.0,1290.0
4275,-604,602,0,4240.0,4147.0,-770.0,-1019.0,894.0,1127.0
4247,-509,297,0,4275.0,4240.0,-604.0,-770.0,602.0,894.0
4171,-496,-17,0,4247.0,4275.0,-509.0,-604.0,297.0,602.0
4044,-562,-300,0,4171.0,4247.0,-496.0,-509.0,-17.0,297.0
3872,-683,-549,0,4044.0,4171.0,-562.0,-496.0,-300.0,-17.0
3659,-855,-760,0,3872.0,4044.0,-683.0,-562.0,-549.0,-300.0
3431,-1061,-947,0,3659.0,3872.0,-855.0,-683.0,-760.0,-549.0
3213,-1275,-1125,0,3431.0,3659.0,-1061.0,-855.0,-947.0,-760.0
2999,-1463,-1270,0,3213.0,3431.0,-1275.0,-1061.0,-1125.0,-947.0
2792,-1622,-1326,0,2999.0,3213.0,-1463.0,-1275.0,-1270.0,-1125.0
2585,-1755,-1324,0,2792.0,2999.0,-1622.0,-1463.0,-1326.0,-1270.0
2395,-1832,-1288,0,2585.0,2792.0,-1755.0,-1622.0,-1324.0,-1326.0
2231,-1867,-1217,0,2395.0,2585.0,-1832.0,-1755.0,-1288.0,-1324.0
2097,-1872,-1104,0,2231.0,2395.0,-1867.0,-1832.0,-1217.0,-1288.0
1982,-1860,-971,0,2097.0,2231.0,-1872.0,-1867.0,-1104.0,-1217.0
1887,-1835,-833,0,1982.0,2097.0,-1860.0,-1872.0,-971.0,-1104.0
1798,-1801,-699,0,1887.0,1982.0,-1835.0,-1860.0,-833.0,-971.0
1708,-1749,-573,0,1798.0,1887.0,-1801.0,-1835.0,-699.0,-833.0
1596,-1684,-450,0,1708.0,1798.0,-1749.0,-1801.0,-573.0,-699.0
1447,-1593,-331,0,1596.0,1708.0,-1684.0,-1749.0,-450.0,-573.0
1248,-1469,-206,0,1447.0,1596.0,-1593.0,-1684.0,-331.0,-450.0
1003,-1336,-85,0,1248.0,1447.0,-1469.0,-1593.0,-206.0,-331.0
725,-1208,35,0,1003.0,1248.0,-1336.0,-1469.0,-85.0,-206.0
418,-1093,137,0,725.0,1003.0,-1208.0,-1336.0,35.0,-85.0
104,-996,195,0,418.0,725.0,-1093.0,-1208.0,137.0,35.0
-236,-920,246,0,104.0,418.0,-996.0,-1093.0,195.0,137.0
-595,-865,307,0,-236.0,104.0,-920.0,-996.0,246.0,195.0
-932,-835,321,0,-595.0,-236.0,-865.0,-920.0,307.0,246.0
-1163,-808,168,0,-932.0,-595.0,-835.0,-865.0,321.0,307.0
-1238,-735,-149,0,-1163.0,-932.0,-808.0,-835.0,168.0,321.0
-1212,-582,-486,0,-1238.0,-1163.0,-735.0,-808.0,-149.0,168.0
-1104,-365,-722,0,-1212.0,-1238.0,-582.0,-735.0,-486.0,-149.0
-948,-132,-842,0,-1104.0,-1212.0,-365.0,-582.0,-722.0,-486.0
-785,58,-995,0,-948.0,-1104.0,-132.0,-365.0,-842.0,-722.0
-632,106,-1349,0,-785.0,-948.0,58.0,-132.0,-995.0,-842.0
-488,5,-1894,0,-632.0,-785.0,106.0,58.0,-1349.0,-995.0
-311,-213,-2568,0,-488.0,-632.0,5.0,106.0,-1894.0,-1349.0
-24,-514,-3293,0,-311.0,-488.0,-213.0,5.0,-2568.0,-1894.0
413,-920,-3972,0,-24.0,-311.0,-514.0,-213.0,-3293.0,-2568.0
1051,-1444,-4506,0,413.0,-24.0,-920.0,-514.0,-3972.0,-3293.0
1955,-2074,-4665,0,1051.0,413.0,-1444.0,-920.0,-4506.0,-3972.0
3299,-2836,-4116,0,1955.0,1051.0,-2074.0,-1444.0,-4665.0,-4506.0
5897,-3287,-1495,0,3299.0,1955.0,-2836.0,-2074.0,-4116.0,-4665.0
9150,-3428,1706,0,5897.0,3299.0,-3287.0,-2836.0,-1495.0,-4116.0
11769,-3697,3171,0,9150.0,5897.0,-3428.0,-3287.0,1706.0,-1495.0
13637,-4213,3021,0,11769.0,9150.0,-3697.0,-3428.0,3171.0,1706.0
15128,-4964,2258,0,13637.0,11769.0,-4213.0,-3697.0,3021.0,3171.0
16378,-5942,1283,0,15128.0,13637.0,-4964.0,-4213.0,2258.0,3021.0
17304,-7013,236,0,16378.0,15128.0,-5942.0,-4964.0,1283.0,2258.0
17866,-7942,-693,0,17304.0,16378.0,-7013.0,-5942.0,236.0,1283.0
17852,-8485,-1350,0,17866.0,17304.0,-7942.0,-7013.0,-693.0,236.0
17052,-8293,-1401,0,17852.0,17866.0,-8485.0,-7942.0,-1350.0,-693.0
15536,-7334,-878,0,17052.0,17852.0,-8293.0,-8485.0,-1401.0,-1350.0
13599,-5978,-126,0,15536.0,17052.0,-7334.0,-8293.0,-878.0,-1401.0
11514,-4629,467,0,13599.0,15536.0,-5978.0,-7334.0,-126.0,-878.0
9509,-3447,711,0,11514.0,13599.0,-4629.0,-5978.0,467.0,-126.0
7664,-2384,738,0,9509.0,11514.0,-3447.0,-4629.0,711.0,467.0
5976,-1378,736,0,7664.0,9509.0,-2384.0,-3447.0,738.0,711.0
4438,-345,732,0,5976.0,7664.0,-1378.0,-2384.0,736.0,738.0
3107,713,681,0,4438.0,5976.0,-345.0,-1378.0,732.0,736.0
2073,1684,574,0,3107.0,4438.0,713.0,-345.0,681.0,732.0
1313,2546,365,0,2073.0,3107.0,1684.0,713.0,574.0,681.0
798,3273,10,0,1313.0,2073.0,2546.0,1684.0,365.0,574.0
486,3877,-408,0,798.0,1313.0,3273.0,2546.0,10.0,365.0
360,4418,-768,0,486.0,798.0,3877.0,3273.0,-408.0,10.0
452,4822,-977,0,360.0,486.0,4418.0,3877.0,-768.0,-408.0
808,4995,-942,0,452.0,360.0,4822.0,4418.0,-977.0,-768.0
1441,4809,-647,0,808.0,452.0,4995.0,4822.0,-942.0,-977.0
2293,4295,-173,0,1441.0,808.0,4809.0,4995.0,-647.0,-942.0
3281,3554,419,0,2293.0,1441.0,4295.0,4809.0,-173.0,-647.0
4440,2695,1236,0,3281.0,2293.0,3554.0,4295.0,419.0,-173.0
5631,1856,2134,0,4440.0,3281.0,2695.0,3554.0,1236.0,419.0
6618,1110,2626,0,5631.0,4440.0,1856.0,2695.0,2134.0,1236.0
7311,489,2611,0,6618.0,5631.0,1110.0,1856.0,2626.0,2134.0
7705,-45,2212,0,7311.0,6618.0,489.0,1110.0,2611.0,2626.0
7815,-492,1502,0,7705.0,7311.0,-45.0,489.0,2212.0,2611.0
7690,-874,668,0,7815.0,7705.0,-492.0,-45.0,1502.0,2212.0
7381,-1182,-104,0,7690.0,7815.0,-874.0,-492.0,668.0,1502.0
6947,-1401,-664,0,7381.0,7690.0,-1182.0,-874.0,-104.0,668.0
6417,-1512,-995,0,6947.0,7381.0,-1401.0,-1182.0,-664.0,-104.0
5811,-1534,-1113,0,6417.0,6947.0,-1512.0,-1401.0,-995.0,-664.0
5156,-1480,-1080,0,5811.0,6417.0,-1534.0,-1512.0,-1113.0,-995.0
4494,-1359,-950,0,5156.0,5811.0,-1480.0,-1534.0,-1080.0,-1113.0
3803,-1167,-754,0,4494.0,5156.0,-1359.0,-1480.0,-950.0,-1080.0
3111,-909,-536,0,3803.0,4494.0,-1167.0,-1359.0,-754.0,-950.0
2433,-619,-351,0,3111.0,3803.0,-909.0,-1167.0,-536.0,-754.0
1792,-299,-195,0,2433.0,3111.0,-619.0,-909.0,-351.0,-536.0
1210,28,-81,0,1792.0,2433.0,-299.0,-619.0,-195.0,-351.0
725,345,-4,0,1210.0,1792.0,28.0,-299.0,-81.0,-195.0
346,633,12,0,725.0,1210.0,345.0,28.0,-4.0,-81.0
44,880,-31,0,346.0,725.0,633.0,345.0,12.0,-4.0
-210,1071,-135,0,44.0,346.0,880.0,633.0,-31.0,12.0
-426,1210,-268,0,-210.0,44.0,1071.0,880.0,-135.0,-31.0
-609,1309,-405,0,-426.0,-210.0,1210.0,1071.0,-268.0,-135.0
-765,1368,-532,0,-609.0,-426.0,1309.0,1210.0,-405.0,-268.0
-881,1405,-647,0,-765.0,-609.0,1368.0,1309.0,-532.0,-405.0
-984,1429,-728,0,-881.0,-765.0,1405.0,1368.0,-647.0,-532.0
-1070,1440,-777,0,-984.0,-881.0,1429.0,1405.0,-728.0,-647.0
-1142,1443,-792,0,-1070.0,-984.0,1440.0,1429.0,-777.0,-728.0
-1199,1434,-798,0,-1142.0,-1070.0,1443.0,1440.0,-792.0,-777.0
-1238,1424,-820,0,-1199.0,-1142.0,1434.0,1443.0,-798.0,-792.0
-1283,1402,-849,0,-1238.0,-1199.0,1424.0,1434.0,-820.0,-798.0
-1315,1387,-887,0,-1283.0,-1238.0,1402.0,1424.0,-849.0,-820.0
-1361,1376,-921,0,-1315.0,-1283.0,1387.0,1402.0,-887.0,-849.0
-1415,1371,-935,0,-1361.0,-1315.0,1376.0,1387.0,-921.0,-887.0
-1477,1347,-943,0,-1415.0,-1361.0,1371.0,1376.0,-935.0,-921.0
-1522,1310,-934,0,-1477.0,-1415.0,1347.0,1371.0,-943.0,-935.0
-1528,1229,-933,0,-1522.0,-1477.0,1310.0,1347.0,-934.0,-943.0
-1492,1117,-948,0,-1528.0,-1522.0,1229.0,1310.0,-933.0,-934.0
-1411,982,-1023,0,-1492.0,-1528.0,1117.0,1229.0,-948.0,-933.0
-1286,832,-1182,0,-1411.0,-1492.0,982.0,1117.0,-1023.0,-948.0
-1146,680,-1420,0,-1286.0,-1411.0,832.0,982.0,-1182.0,-1023.0
-978,508,-1703,0,-1146.0,-1286.0,680.0,832.0,-1420.0,-1182.0
-777,322,-2008,0,-978.0,-1146.0,508.0,680.0,-1703.0,-1420.0
-532,142,-2309,0,-777.0,-978.0,322.0,508.0,-2008.0,-1703.0
-250,-17,-2591,0,-532.0,-777.0,142.0,322.0,-2309.0,-2008.0
66,-172,-2853,0,-250.0,-532.0,-17.0,142.0,-2591.0,-2309.0
424,-332,-3112,0,66.0,-250.0,-172.0,-17.0,-2853.0,-2591.0
833,-523,-3340,0,424.0,66.0,-332.0,-172.0,-3112.0,-2853.0
1377,-755,-3361,0,833.0,424.0,-523.0,-332.0,-3340.0,-3112.0
2071,-991,-3105,0,1377.0,833.0,-755.0,-523.0,-3361.0,-3340.0
3174,-1333,-2349,0,2071.0,1377.0,-991.0,-755.0,-3105.0,-3361.0
4879,-1928,-1124,0,3174.0,2071.0,-1333.0,-991.0,-2349.0,-3105.0
7095,-2832,216,0,4879.0,3174.0,-1928.0,-1333.0,-1124.0,-2349.0
8777,-3849,246,0,7095.0,4879.0,-2832.0,-1928.0,216.0,-1124.0
9498,-4798,-1049,0,8777.0,7095.0,-3849.0,-2832.0,246.0,216.0
9733,-5570,-2791,0,9498.0,8777.0,-4798.0,-3849.0,-1049.0,246.0
9897,-6139,-4401,0,9733.0,9498.0,-5570.0,-4798.0,-2791.0,-1049.0
10247,-6662,-5681,0,9897.0,9733.0,-6139.0,-5570.0,-4401.0,-2791.0
10832,-7114,-6674,0,10247.0,9897.0,-6662.0,-6139.0,-5681.0,-4401.0
11559,-7300,-7224,0,10832.0,10247.0,-7114.0,-6662.0,-6674.0,-5681.0
12358,-6978,-6902,0,11559.0,10832.0,-7300.0,-7114.0,-7224.0,-6674.0
13229,-6071,-5310,0,12358.0,11559.0,-6978.0,-7300.0,-6902.0,-7224.0
14238,-4736,-2467,0,13229.0,12358.0,-6071.0,-6978.0,-5310.0,-6902.0
15126,-3410,411,0,14238.0,13229.0,-4736.0,-6071.0,-2467.0,-5310.0
15405,-2424,1751,0,15126.0,14238.0,-3410.0,-4736.0,411.0,-2467.0
14858,-1923,1383,0,15405.0,15126.0,-2424.0,-3410.0,1751.0,411.0
13719,-1821,387,0,14858.0,15405.0,-1923.0,-2424.0,1383.0,1751.0
12346,-1962,-480,0,13719.0,14858.0,-1821.0,-1923.0,387.0,1383.0
10965,-2102,-956,0,12346.0,13719.0,-1962.0,-1821.0,-480.0,387.0
9707,-2050,-1022,0,10965.0,12346.0,-2102.0,-1962.0,-956.0,-480.0
8650,-1728,-781,0,9707.0,10965.0,-2050.0,-2102.0,-1022.0,-956.0
7803,-1180,-374,0,8650.0,9707.0,-1728.0,-2050.0,-781.0,-1022.0
7141,-492,61,0,7803.0,8650.0,-1180.0,-1728.0,-374.0,-781.0
6609,266,358,0,7141.0,7803.0,-492.0,-1180.0,61.0,-374.0
6122,1048,437,0,6609.0,7141.0,266.0,-492.0,358.0,61.0
5658,1812,395,0,6122.0,6609.0,1048.0,266.0,437.0,358.0
5228,2525,247,0,5658.0,6122.0,1812.0,1048.0,395.0,437.0
4857,3131,-30,0,5228.0,5658.0,2525.0,1812.0,247.0,395.0
4571,3585,-373,0,4857.0,5228.0,3131.0,2525.0,-30.0,247.0
4377,3890,-746,0,4571.0,4857.0,3585.0,3131.0,-373.0,-30.0
4249,4057,-1126,0,4377.0,4571.0,3890.0,3585.0,-746.0,-373.0
4177,4090,-1462,0,4249.0,4377.0,4057.0,3890.0,-1126.0,-746.0
4146,4023,-1695,0,4177.0,4249.0,4090.0,4057.0,-1462.0,-1126.0
4175,3854,-1817,0,4146.0,4177.0,4023.0,4090.0,-1695.0,-1462.0
4265,3583,-1836,0,4175.0,4146.0,3854.0,4023.0,-1817.0,-1695.0
4412,3200,-1800,0,4265.0,4175.0,3583.0,3854.0,-1836.0,-1817.0
4586,2724,-1757,0,4412.0,4265.0,3200.0,3583.0,-1800.0,-1836.0
4728,2211,-1747,0,4586.0,4412.0,2724.0,3200.0,-1757.0,-1800.0
4797,1714,-1758,0,4728.0,4586.0,2211.0,2724.0,-1747.0,-1757.0
4792,1238,-1770,0,4797.0,4728.0,1714.0,2211.0,-1758.0,-1747.0
4725,786,-1777,0,4792.0,4797.0,1238.0,1714.0,-1770.0,-1758.0
4619,352,-1777,0,4725.0,4792.0,786.0,1238.0,-1777.0,-1770.0
4483,-81,-1783,0,4619.0,4725.0,352.0,786.0,-1777.0,-1777.0
4336,-523,-1791,0,4483.0,4619.0,-81.0,352.0,-1783.0,-1777.0
4189,-968,-1812,0,4336.0,4483.0,-523.0,-81.0,-1791.0,-1783.0
4046,-1417,-1854,0,4189.0,4336.0,-968.0,-523.0,-1812.0,-1791.0
3901,-1830,-1908,0,4046.0,4189.0,-1417.0,-968.0,-1854.0,-1812.0
3741,-2182,-1976,0,3901.0,4046.0,-1830.0,-1417.0,-1908.0,-1854.0
3561,-2471,-2042,0,3741.0,3901.0,-2182.0,-1830.0,-1976.0,-1908.0
3362,-2692,-2095,0,3561.0,3741.0,-2471.0,-2182.0,-2042.0,-1976.0
3153,-2847,-2110,0,3362.0,3561.0,-2692.0,-2471.0,-2095.0,-2042.0
2958,-2940,-2059,0,3153.0,3362.0,-2847.0,-2692.0,-2110.0,-2095.0
2769,-2966,-1969,0,2958.0,3153.0,-2940.0,-2847.0,-2059.0,-2110.0
2584,-2922,-1853,0,2769.0,2958.0,-2966.0,-2940.0,-1969.0,-2059.0
2397,-2821,-1741,0,2584.0,2769.0,-2922.0,-2966.0,-1853.0,-1969.0
2204,-2679,-1639,0,2397.0,2584.0,-2821.0,-2922.0,-1741.0,-1853.0
2002,-2500,-1534,0,2204.0,2397.0,-2679.0,-2821.0,-1639.0,-1741.0
1779,-2304,-1413,0,2002.0,2204.0,-2500.0,-2679.0,-1534.0,-1639.0
1535,-2096,-1288,0,1779.0,2002.0,-2304.0,-2500.0,-1413.0,-1534.0
1264,-1885,-1153,0,1535.0,1779.0,-2096.0,-2304.0,-1288.0,-1413.0
960,-1676,-1009,0,1264.0,1535.0,-1885.0,-2096.0,-1153.0,-1288.0
631,-1477,-858,0,960.0,1264.0,-1676.0,-1885.0,-1009.0,-1153.0
280,-1290,-699,0,631.0,960.0,-1477.0,-1676.0,-858.0,-1009.0
-88,-1119,-549,0,280.0,631.0,-1290.0,-1477.0,-699.0,-858.0
-477,-956,-412,0,-88.0,280.0,-1119.0,-1290.0,-549.0,-699.0
-860,-828,-306,0,-477.0,-88.0,-956.0,-1119.0,-412.0,-549.0
-1241,-746,-201,0,-860.0,-477.0,-828.0,-956.0,-306.0,-412.0
-1590,-698,-95,0,-1241.0,-860.0,-746.0,-828.0,-201.0,-306.0
-1905,-678,15,0,-1590.0,-1241.0,-698.0,-746.0,-95.0,-201.0
-2187,-678,115,0,-1905.0,-1590.0,-678.0,-698.0,15.0,-95.0
-2426,-712,178,0,-2187.0,-1905.0,-678.0,-678.0,115.0,15.0
-2616,-774,206,0,-2426.0,-2187.0,-712.0,-678.0,178.0,115.0
-2725,-869,178,0,-2616.0,-2426.0,-774.0,-712.0,206.0,178.0
-2739,-958,78,0,-2725.0,-2616.0,-869.0,-774.0,178.0,206.0
-2639,-1000,-118,0,-2739.0,-2725.0,-958.0,-869.0,78.0,178.0
-2432,-971,-386,0,-2639.0,-2739.0,-1000.0,-958.0,-118.0,78.0
-2140,-894,-672,0,-2432.0,-2639.0,-971.0,-1000.0,-386.0,-118.0
-1782,-776,-915,0,-2140.0,-2432.0,-894.0,-971.0,-672.0,-386.0
-1363,-649,-1069,0,-1782.0,-2140.0,-776.0,-894.0,-915.0,-672.0
-859,-528,-1070,0,-1363.0,-1782.0,-649.0,-776.0,-1069.0,-915.0
-273,-433,-935,0,-859.0,-1363.0,-528.0,-649.0,-1070.0,-1069.0
406,-377,-714,0,-273.0,-859.0,-433.0,-528.0,-935.0,-1070.0
1190,-361,-408,0,406.0,-273.0,-377.0,-433.0,-714.0,-935.0
2243,-311,340,0,1190.0,406.0,-361.0,-377.0,-408.0,-714.0
3627,-187,1576,0,2243.0,1190.0,-311.0,-361.0,340.0,-408.0
5171,-249,2505,0,3627.0,2243.0,-187.0,-311.0,1576.0,340.0
6784,-569,2941,0,5171.0,3627.0,-249.0,-187.0,2505.0,1576.0
8397,-1103,2881,0,6784.0,5171.0,-569.0,-249.0,2941.0,2505.0
9689,-1780,2099,0,8397.0,6784.0,-1103.0,-569.0,2881.0,2941.0
10454,-2508,448,0,9689.0,8397.0,-1780.0,-1103.0,2099.0,2881.0
10834,-3155,-1586,0,10454.0,9689.0,-2508.0,-1780.0,448.0,2099.0
11154,-3537,-3226,0,10834.0,10454.0,-3155.0,-2508.0,-1586.0,448.0
11636,-3495,-3908,0,11154.0,10834.0,-3537.0,-3155.0,-3226.0,-1586.0
12236,-3028,-3634,0,11636.0,11154.0,-3495.0,-3537.0,-3908.0,-3226.0
12899,-2545,-2738,0,12236.0,11636.0,-3028.0,-3495.0,-3634.0,-3908.0
13492,-2255,-1554,0,12899.0,12236.0,-2545.0,-3028.0,-2738.0,-3634.0
13850,-2217,-359,0,13492.0,12899.0,-2255.0,-2545.0,-1554.0,-2738.0
13792,-2403,673,0,13850.0,13492.0,-2217.0,-2255.0,-359.0,-1554.0
13264,-2818,1473,0,13792.0,13850.0,-2403.0,-2217.0,673.0,-359.0
12349,-3406,2019,0,13264.0,13792.0,-2818.0,-2403.0,1473.0,673.0
11133,-3891,2298,0,12349.0,13264.0,-3406.0,-2818.0,2019.0,1473.0
9761,-4118,2364,0,11133.0,12349.0,-3891.0,-3406.0,2298.0,2019.0
8396,-4103,2318,0,9761.0,11133.0,-4118.0,-3891.0,2364.0,2298.0
7092,-3921,2134,0,8396.0,9761.0,-4103.0,-4118.0,2318.0,2364.0
5934,-3647,1845,0,7092.0,8396.0,-3921.0,-4103.0,2134.0,2318.0
4955,-3353,1463,0,5934.0,7092.0,-3647.0,-3921.0,1845.0,2134.0
4166,-3072,1019,0,4955.0,5934.0,-3353.0,-3647.0,1463.0,1845.0
3552,-2777,556,0,4166.0,4955.0,-3072.0,-3353.0,1019.0,1463.0
3121,-2441,130,0,3552.0,4166.0,-2777.0,-3072.0,556.0,1019.0
2864,-2037,-239,0,3121.0,3552.0,-2441.0,-2777.0,130.0,556.0
2789,-1589,-521,0,2864.0,3121.0,-2037.0,-2441.0,-239.0,130.0
2876,-1144,-665,0,2789.0,2864.0,-1589.0,-2037.0,-521.0,-239.0
3102,-740,-637,0,2876.0,2789.0,-1144.0,-1589.0,-665.0,-521.0
3445,-404,-446,0,3102.0,2876.0,-740.0,-1144.0,-637.0,-665.0
3879,-172,-138,0,3445.0,3102.0,-404.0,-740.0,-446.0,-637.0
4378,-19,226,0,3879.0,3445.0,-172.0,-404.0,-138.0,-446.0
4878,64,547,0,4378.0,3879.0,-19.0,-172.0,226.0,-138.0
5333,111,760,0,4878.0,4378.0,64.0,-19.0,547.0,226.0
5716,130,838,0,5333.0,4878.0,111.0,64.0,760.0,547.0
5994,136,782,0,5716.0,5333.0,130.0,111.0,838.0,760.0
6155,123,607,0,5994.0,5716.0,136.0,130.0,782.0,838.0
6188,104,350,0,6155.0,5994.0,123.0,136.0,607.0,782.0
6084,88,57,0,6188.0,6155.0,104.0,123.0,350.0,607.0
5851,91,-230,0,6084.0,6188.0,88.0,104.0,57.0,350.0
5500,116,-471,0,5851.0,6084.0,91.0,88.0,-230.0,57.0
5059,155,-642,0,5500.0,5851.0,116.0,91.0,-471.0,-230.0
4553,193,-718,0,5059.0,5500.0,155.0,116.0,-642.0,-471.0
4002,221,-722,0,4553.0,5059.0,193.0,155.0,-718.0,-642.0
3430,212,-673,0,4002.0,4553.0,221.0,193.0,-722.0,-718.0
2862,166,-596,0,3430.0,4002.0,212.0,221.0,-673.0,-722.0
2312,70,-498,0,2862.0,3430.0,166.0,212.0,-596.0,-673.0
1779,-47,-392,0,2312.0,2862.0,70.0,166.0,-498.0,-596.0
1271,-149,-262,0,1779.0,2312.0,-47.0,70.0,-392.0,-498.0
770,-227,-137,0,1271.0,1779.0,-149.0,-47.0,-262.0,-392.0
281,-287,-67,0,770.0,1271.0,-227.0,-149.0,-137.0,-262.0
-217,-326,-40,0,281.0,770.0,-287.0,-227.0,-67.0,-137.0
-700,-336,-22,0,-217.0,281.0,-326.0,-287.0,-40.0,-67.0
-1153,-314,5,0,-700.0,-217.0,-336.0,-326.0,-22.0,-40.0
-1553,-265,48,0,-1153.0,-700.0,-314.0,-336.0,5.0,-22.0
-1860,-185,128,0,-1553.0,-1153.0,-265.0,-314.0,48.0,5.0
-2081,-71,263,0,-1860.0,-1553.0,-185.0,-265.0,128.0,48.0
-2238,72,416,0,-2081.0,-1860.0,-71.0,-185.0,263.0,128.0
-2354,247,576,0,-2238.0,-2081.0,72.0,-71.0,416.0,263.0
-2431,472,774,0,-2354.0,-2238.0,247.0,72.0,576.0,416.0
-2479,765,1001,0,-2431.0,-2354.0,472.0,247.0,774.0,576.0
-2470,1107,1203,0,-2479.0,-2431.0,765.0,472.0,1001.0,774.0
-2402,1463,1344,0,-2470.0,-2479.0,1107.0,765.0,1203.0,1001.0
-2261,1806,1418,0,-2402.0,-2470.0,1463.0,1107.0,1344.0,1203.0
-2040,2103,1461,0,-2261.0,-2402.0,1806.0,1463.0,1418.0,1344.0
-1733,2311,1470,0,-2040.0,-2261.0,2103.0,1806.0,1461.0,1418.0
-1374,2399,1416,0,-1733.0,-2040.0,2311.0,2103.0,1470.0,1461.0
-981,2380,1260,0,-1374.0,-1733.0,2399.0,2311.0,1416.0,1470.0
-574,2262,958,0,-981.0,-1374.0,2380.0,2399.0,1260.0,1416.0
-205,2043,486,0,-574.0,-981.0,2262.0,2380.0,958.0,1260.0
113,1733,-133,0,-205.0,-574.0,2043.0,2262.0,486.0,958.0
379,1340,-824,0,113.0,-205.0,1733.0,2043.0,-133.0,486.0
605,872,-1525,0,379.0,113.0,1340.0,1733.0,-824.0,-133.0
816,308,-2187,0,605.0,379.0,872.0,1340.0,-1525.0,-824.0
1065,-394,-2769,0,816.0,605.0,308.0,872.0,-2187.0,-1525.0
1465,-1243,-3168,0,1065.0,816.0,-394.0,308.0,-2769.0,-2187.0
2151,-2228,-3197,0,1465.0,1065.0,-1243.0,-394.0,-3168.0,-2769.0
3305,-3288,-2642,0,2151.0,1465.0,-2228.0,-1243.0,-3197.0,-3168.0
4996,-4407,-1550,0,3305.0,2151.0,-3288.0,-2228.0,-2642.0,-3197.0
6877,-5827,-1163,0,4996.0,3305.0,-4407.0,-3288.0,-1550.0,-2642.0
8771,-7492,-2101,0,6877.0,4996.0,-5827.0,-4407.0,-1163.0,-1550.0
10678,-8913,-4076,0,8771.0,6877.0,-7492.0,-5827.0,-2101.0,-1163.0
12451,-10197,-6306,0,10678.0,8771.0,-8913.0,-7492.0,-4076.0,-2101.0
13885,-11103,-8053,0,12451.0,10678.0,-10197.0,-8913.0,-6306.0,-4076.0
14616,-11142,-8514,0,13885.0,12451.0,-11103.0,-10197.0,-8053.0,-6306.0
14518,-9975,-7313,0,14616.0,13885.0,-11142.0,-11103.0,-8514.0,-8053.0
14020,-7860,-4588,0,14518.0,14616.0,-9975.0,-11142.0,-7313.0,-8514.0
13482,-5417,-1279,0,14020.0,14518.0,-7860.0,-9975.0,-4588.0,-7313.0
13068,-3267,1261,0,13482.0,14020.0,-5417.0,-7860.0,-1279.0,-4588.0
12724,-1814,2324,0,13068.0,13482.0,-3267.0,-5417.0,1261.0,-1279.0
12313,-1074,1986,0,12724.0,13068.0,-1814.0,-3267.0,2324.0,1261.0
11783,-897,1042,0,12313.0,12724.0,-1074.0,-1814.0,1986.0,2324.0
11157,-1033,74,0,11783.0,12313.0,-897.0,-1074.0,1042.0,1986.0
10357,-1259,-685,0,11157.0,11783.0,-1033.0,-897.0,74.0,1042.0
9441,-1455,-1009,0,10357.0,11157.0,-1259.0,-1033.0,-685.0,74.0
8495,-1512,-835,0,9441.0,10357.0,-1455.0,-1259.0,-1009.0,-685.0
7532,-1420,-467,0,8495.0,9441.0,-1512.0,-1455.0,-835.0,-1009.0
6596,-1216,-186,0,7532.0,8495.0,-1420.0,-1512.0,-467.0,-835.0
5710,-890,-50,0,6596.0,7532.0,-1216.0,-1420.0,-186.0,-467.0
4913,-451,-2,0,5710.0,6596.0,-890.0,-1216.0,-50.0,-186.0
4298,7,-2,0,4913.0,5710.0,-451.0,-890.0,-2.0,-50.0
3915,408,3,0,4298.0,4913.0,7.0,-451.0,-2.0,-2.0
3774,728,79,0,3915.0,4298.0,408.0,7.0,3.0,-2.0
3802,983,244,0,3774.0,3915.0,728.0,408.0,79.0,3.0
3916,1198,464,0,3802.0,3774.0,983.0,728.0,244.0,79.0
4050,1355,666,0,3916.0,3802.0,1198.0,983.0,464.0,244.0
4184,1417,744,0,4050.0,3916.0,1355.0,1198.0,666.0,464.0
4288,1371,646,0,4184.0,4050.0,1417.0,1355.0,744.0,666.0
4361,1227,368,0,4288.0,4184.0,1371.0,1417.0,646.0,744.0
4390,991,6,0,4361.0,4288.0,1227.0,1371.0,368.0,646.0
4364,692,-357,0,4390.0,4361.0,991.0,1227.0,6.0,368.0
4292,360,-654,0,4364.0,4390.0,692.0,991.0,-357.0,6.0
4187,42,-857,0,4292.0,4364.0,360.0,692.0,-654.0,-357.0
4036,-247,-961,0,4187.0,4292.0,42.0,360.0,-857.0,-654.0
3833,-495,-992,0,4036.0,4187.0,-247.0,42.0,-961.0,-857.0
3593,-707,-979,0,3833.0,4036.0,-495.0,-247.0,-992.0,-961.0
3320,-891,-964,0,3593.0,3833.0,-707.0,-495.0,-979.0,-992.0
3027,-1050,-945,0,3320.0,3593.0,-891.0,-707.0,-964.0,-979.0
2736,-1185,-934,0,3027.0,3320.0,-1050.0,-891.0,-945.0,-964.0
2445,-1303,-911,0,2736.0,3027.0,-1185.0,-1050.0,-934.0,-945.0
2167,-1400,-882,0,2445.0,2736.0,-1303.0,-1185.0,-911.0,-934.0
1888,-1469,-851,0,2167.0,2445.0,-1400.0,-1303.0,-882.0,-911.0
1612,-1516,-817,0,1888.0,2167.0,-1469.0,-1400.0,-851.0,-882.0
1335,-1549,-776,0,1612.0,1888.0,-1516.0,-1469.0,-817.0,-851.0
1056,-1575,-721,0,1335.0,1612.0,-1549.0,-1516.0,-776.0,-817.0
771,-1586,-658,0,1056.0,1335.0,-1575.0,-1549.0,-721.0,-776.0
478,-1586,-596,0,771.0,1056.0,-1586.0,-1575.0,-658.0,-721.0
174,-1584,-517,0,478.0,771.0,-1586.0,-1586.0,-596.0,-658.0
-142,-1592,-418,0,174.0,478.0,-1584.0,-1586.0,-517.0,-596.0
-459,-1627,-294,0,-142.0,174.0,-1592.0,-1584.0,-418.0,-517.0
-769,-1693,-141,0,-459.0,-142.0,-1627.0,-1592.0,-294.0,-418.0
-1071,-1775,16,0,-769.0,-459.0,-1693.0,-1627.0,-141.0,-294.0
-1344,-1864,141,0,-1071.0,-769.0,-1775.0,-1693.0,16.0,-141.0
-1579,-1949,244,0,-1344.0,-1071.0,-1864.0,-1775.0,141.0,16.0
-1778,-2025,309,0,-1579.0,-1344.0,-1949.0,-1864.0,244.0,141.0
-1931,-2079,328,0,-1778.0,-1579.0,-2025.0,-1949.0,309.0,244.0
-2049,-2093,284,0,-1931.0,-1778.0,-2079.0,-2025.0,328.0,309.0
-2125,-2063,187,0,-2049.0,-1931.0,-2093.0,-2079.0,284.0,328.0
-2145,-1960,27,0,-2125.0,-2049.0,-2063.0,-2093.0,187.0,284.0
-2088,-1800,-214,0,-2145.0,-2125.0,-1960.0,-2063.0,27.0,187.0
-1936,-1599,-496,0,-2088.0,-2145.0,-1800.0,-1960.0,-214.0,27.0
-1693,-1387,-777,0,-1936.0,-2088.0,-1599.0,-1800.0,-496.0,-214.0
-1371,-1174,-1015,0,-1693.0,-1936.0,-1387.0,-1599.0,-777.0,-496.0
-1003,-951,-1177,0,-1371.0,-1693.0,-1174.0,-1387.0,-1015.0,-777.0
-621,-715,-1261,0,-1003.0,-1371.0,-951.0,-1174.0,-1177.0,-1015.0
-242,-498,-1297,0,-621.0,-1003.0,-715.0,-951.0,-1261.0,-1177.0
134,-334,-1333,0,-242.0,-621.0,-498.0,-715.0,-1297.0,-1261.0
513,-244,-1388,0,134.0,-242.0,-334.0,-498.0,-1333.0,-1297.0
922,-238,-1459,0,513.0,134.0,-244.0,-334.0,-1388.0,-1333.0
1388,-301,-1519,0,922.0,513.0,-238.0,-244.0,-1459.0,-1388.0
1922,-396,-1439,0,1388.0,922.0,-301.0,-238.0,-1519.0,-1459.0
2603,-480,-1002,0,1922.0,1388.0,-396.0,-301.0,-1439.0,-1519.0
3528,-637,-249,0,2603.0,1922.0,-480.0,-396.0,-1002.0,-1439.0
4892,-973,816,0,3528.0,2603.0,-637.0,-480.0,-249.0,-1002.0
6694,-1515,1991,0,4892.0,3528.0,-973.0,-637.0,816.0,-249.0
8520,-2246,2418,0,6694.0,4892.0,-1515.0,-973.0,1991.0,816.0
10077,-3013,1688,0,8520.0,6694.0,-2246.0,-1515.0,2418.0,1991.0
11314,-3717,248,0,10077.0,8520.0,-3013.0,-2246.0,1688.0,2418.0
12589,-4296,-1085,0,11314.0,10077.0,-3717.0,-3013.0,248.0,1688.0
14084,-4751,-1927,0,12589.0,11314.0,-4296.0,-3717.0,-1085.0,248.0
15359,-5132,-2680,0,14084.0,12589.0,-4751.0,-4296.0,-1927.0,-1085.0
16240,-5375,-3306,0,15359.0,14084.0,-5132.0,-4751.0,-2680.0,-1927.0
16601,-5333,-3507,0,16240.0,15359.0,-5375.0,-5132.0,-3306.0,-2680.0
16230,-4842,-3117,0,16601.0,16240.0,-5333.0,-5375.0,-3507.0,-3306.0
15107,-4032,-2009,0,16230.0,16601.0,-4842.0,-5333.0,-3117.0,-3507.0
13570,-3306,-496,0,15107.0,16230.0,-4032.0,-4842.0,-2009.0,-3117.0
11842,-2750,868,0,13570.0,15107.0,-3306.0,-4032.0,-496.0,-2009.0
10067,-2303,1806,0,11842.0,13570.0,-2750.0,-3306.0,868.0,-496.0
8331,-1868,2270,0,10067.0,11842.0,-2303.0,-2750.0,1806.0,868.0
6721,-1431,2456,0,8331.0,10067.0,-1868.0,-2303.0,2270.0,1806.0
5281,-1036,2445,0,6721.0,8331.0,-1431.0,-1868.0,2456.0,2270.0
4048,-722,2266,0,5281.0,6721.0,-1036.0,-1431.0,2445.0,2456.0
3084,-556,1938,0,4048.0,5281.0,-722.0,-1036.0,2266.0,2445.0
2376,-526,1463,0,3084.0,4048.0,-556.0,-722.0,1938.0,2266.0
1923,-606,894,0,2376.0,3084.0,-526.0,-556.0,1463.0,1938.0
1714,-765,345,0,1923.0,2376.0,-606.0,-526.0,894.0,1463.0
1716,-972,-93,0,1714.0,1923.0,-765.0,-606.0,345.0,894.0
1894,-1177,-330,0,1716.0,1714.0,-972.0,-765.0,-93.0,345.0
2194,-1348,-340,0,1894.0,1716.0,-1177.0,-972.0,-330.0,-93.0
2570,-1459,-178,0,2194.0,1894.0,-1348.0,-1177.0,-340.0,-330.0
2986,-1495,107,0,2570.0,2194.0,-1459.0,-1348.0,-178.0,-340.0
3395,-1441,475,0,2986.0,2570.0,-1495.0,-1459.0,107.0,-178.0
3742,-1286,822,0,3395.0,2986.0,-1441.0,-1495.0,475.0,107.0
4002,-1063,1070,0,3742.0,3395.0,-1286.0,-1441.0,822.0,475.0
4155,-778,1172,0,4002.0,3742.0,-1063.0,-1286.0,1070.0,822.0
4202,-470,1127,0,4155.0,4002.0,-778.0,-1063.0,1172.0,1070.0
4159,-185,960,0,4202.0,4155.0,-470.0,-778.0,1127.0,1172.0
4042,43,711,0,4159.0,4202.0,-185.0,-470.0,960.0,1127.0
3852,200,438,0,4042.0,4159.0,43.0,-185.0,711.0,960.0
3583,307,187,0,3852.0,4042.0,200.0,43.0,438.0,711.0
3251,371,-36,0,3583.0,3852.0,307.0,200.0,187.0,438.0
2867,399,-212,0,3251.0,3583.0,371.0,307.0,-36.0,187.0
2440,415,-332,0,2867.0,3251.0,399.0,371.0,-212.0,-36.0
1970,411,-401,0,2440.0,2867.0,415.0,399.0,-332.0,-212.0
1462,399,-440,0,1970.0,2440.0,411.0,415.0,-401.0,-332.0
931,391,-455,0,1462.0,1970.0,399.0,411.0,-440.0,-401.0
381,393,-432,0,931.0,1462.0,391.0,399.0,-455.0,-440.0
-194,422,-342,0,381.0,931.0,393.0,391.0,-432.0,-455.0
-783,507,-186,0,-194.0,381.0,422.0,393.0,-342.0,-432.0
-1346,655,43,0,-783.0,-194.0,507.0,422.0,-186.0,-342.0
-1864,865,331,0,-1346.0,-783.0,655.0,507.0,43.0,-186.0
-2316,1098,622,0,-1864.0,-1346.0,865.0,655.0,331.0,43.0
-2693,1347,861,0,-2316.0,-1864.0,1098.0,865.0,622.0,331.0
-2988,1642,1012,0,-2693.0,-2316.0,1347.0,1098.0,861.0,622.0
-3205,1956,1048,0,-2988.0,-2693.0,1642.0,1347.0,1012.0,861.0
-3350,2269,968,0,-3205.0,-2988.0,1956.0,1642.0,1048.0,1012.0
-3417,2574,799,0,-3350.0,-3205.0,2269.0,1956.0,968.0,1048.0
-3373,2835,563,0,-3417.0,-3350.0,2574.0,2269.0,799.0,968.0
-3191,3004,299,0,-3373.0,-3417.0,2835.0,2574.0,563.0,799.0
-2865,3024,52,0,-3191.0,-3373.0,3004.0,2835.0,299.0,563.0
-2445,2888,-193,0,-2865.0,-3191.0,3024.0,3004.0,52.0,299.0
-1984,2632,-475,0,-2445.0,-2865.0,2888.0,3024.0,-193.0,52.0
-1509,2270,-790,0,-1984.0,-2445.0,2632.0,2888.0,-475.0,-193.0
-1032,1802,-1134,0,-1509.0,-1984.0,2270.0,2632.0,-790.0,-475.0
-563,1252,-1441,0,-1032.0,-1509.0,1802.0,2270.0,-1134.0,-790.0
-81,594,-1671,0,-563.0,-1032.0,1252.0,1802.0,-1441.0,-1134.0
466,-188,-1742,0,-81.0,-563.0,594.0,1252.0,-1671.0,-1441.0
1209,-1112,-1475,0,466.0,-81.0,-188.0,594.0,-1742.0,-1671.0
2521,-2217,-322,0,1209.0,466.0,-1112.0,-188.0,-1475.0,-1742.0
4601,-3440,1657,0,2521.0,1209.0,-2217.0,-1112.0,-322.0,-1475.0
6646,-4734,2520,0,4601.0,2521.0,-3440.0,-2217.0,1657.0,-322.0
7657,-6183,645,0,6646.0,4601.0,-4734.0,-3440.0,2520.0,1657.0
8401,-8012,-2203,0,7657.0,6646.0,-6183.0,-4734.0,645.0,2520.0
9412,-9780,-5327,0,8401.0,7657.0,-8012.0,-6183.0,-2203.0,645.0
11058,-11526,-8607,0,9412.0,8401.0,-9780.0,-8012.0,-5327.0,-2203.0
12842,-12825,-11466,0,11058.0,9412.0,-11526.0,-9780.0,-8607.0,-5327.0
14157,-13010,-13013,0,12842.0,11058.0,-12825.0,-11526.0,-11466.0,-8607.0
14846,-11620,-12134,0,14157.0,12842.0,-13010.0,-12825.0,-13013.0,-11466.0
15461,-9162,-8125,0,14846.0,14157.0,-11620.0,-13010.0,-12134.0,-13013.0
16125,-5667,-1378,0,15461.0,14846.0,-9162.0,-11620.0,-8125.0,-12134.0
16336,-2288,3895,0,16125.0,15461.0,-5667.0,-9162.0,-1378.0,-8125.0
15985,205,5838,0,16336.0,16125.0,-2288.0,-5667.0,3895.0,-1378.0
15155,1399,4904,0,15985.0,16336.0,205.0,-2288.0,5838.0,3895.0
13983,1506,2817,0,15155.0,15985.0,1399.0,205.0,4904.0,5838.0
12526,918,976,0,13983.0,15155.0,1506.0,1399.0,2817.0,4904.0
10854,96,192,0,12526.0,13983.0,918.0,1506.0,976.0,2817.0
9073,-645,250,0,10854.0,12526.0,96.0,918.0,192.0,976.0
7304,-1258,723,0,9073.0,10854.0,-645.0,96.0,250.0,192.0
5647,-1752,1291,0,7304.0,9073.0,-1258.0,-645.0,723.0,250.0
4203,-2153,1616,0,5647.0,7304.0,-1752.0,-1258.0,1291.0,723.0
3040,-2453,1540,0,4203.0,5647.0,-2153.0,-1752.0,1616.0,1291.0
2194,-2634,1196,0,3040.0,4203.0,-2453.0,-2153.0,1540.0,1616.0
1711,-2656,801,0,2194.0,3040.0,-2634.0,-2453.0,1196.0,1540.0
1584,-2532,510,0,1711.0,2194.0,-2656.0,-2634.0,801.0,1196.0
1720,-2242,427,0,1584.0,1711.0,-2532.0,-2656.0,510.0,801.0
1987,-1767,539,0,1720.0,1584.0,-2242.0,-2532.0,427.0,510.0
2340,-1138,780,0,1987.0,1720.0,-1767.0,-2242.0,539.0,427.0
2732,-435,1085,0,2340.0,1987.0,-1138.0,-1767.0,780.0,539.0
3112,303,1403,0,2732.0,2340.0,-435.0,-1138.0,1085.0,780.0
3464,993,1607,0,3112.0,2732.0,303.0,-435.0,1403.0,1085.0
3763,1584,1650,0,3464.0,3112.0,993.0,303.0,1607.0,1403.0
4000,2026,1510,0,3763.0,3464.0,1584.0,993.0,1650.0,1607.0
4174,2293,1222,0,4000.0,3763.0,2026.0,1584.0,1510.0,1650.0
4278,2404,877,0,4174.0,4000.0,2293.0,2026.0,1222.0,1510.0
4321,2399,569,0,4278.0,4174.0,2404.0,2293.0,877.0,1222.0
4313,2319,313,0,4321.0,4278.0,2399.0,2404.0,569.0,877.0
4254,2190,103,0,4313.0,4321.0,2319.0,2399.0,313.0,569.0
4148,2027,-97,0,4254.0,4313.0,2190.0,2319.0,103.0,313.0
3977,1846,-293,0,4148.0,4254.0,2027.0,2190.0,-97.0,103.0
3745,1651,-481,0,3977.0,4148.0,1846.0,2027.0,-293.0,-97.0
3457,1447,-625,0,3745.0,3977.0,1651.0,1846.0,-481.0,-293.0
3130,1229,-722,0,3457.0,3745.0,1447.0,1651.0,-625.0,-481.0
2769,1004,-777,0,3130.0,3457.0,1229.0,1447.0,-722.0,-625.0
2393,774,-805,0,2769.0,3130.0,1004.0,1229.0,-777.0,-722.0
2014,552,-839,0,2393.0,2769.0,774.0,1004.0,-805.0,-777.0
1649,339,-892,0,2014.0,2393.0,552.0,774.0,-839.0,-805.0
1295,102,-956,0,1649.0,2014.0,339.0,552.0,-892.0,-839.0
945,-153,-1019,0,1295.0,1649.0,102.0,339.0,-956.0,-892.0
585,-416,-1044,0,945.0,1295.0,-153.0,102.0,-1019.0,-956.0
225,-690,-1030,0,585.0,945.0,-416.0,-153.0,-1044.0,-1019.0
-123,-1006,-963,0,225.0,585.0,-690.0,-416.0,-1030.0,-1044.0
-459,-1360,-840,0,-123.0,225.0,-1006.0,-690.0,-963.0,-1030.0
-758,-1727,-720,0,-459.0,-123.0,-1360.0,-1006.0,-840.0,-963.0
-1009,-2109,-646,0,-758.0,-459.0,-1727.0,-1360.0,-720.0,-840.0
-1216,-2500,-600,0,-1009.0,-758.0,-2109.0,-1727.0,-646.0,-720.0
-1391,-2868,-552,0,-1216.0,-1009.0,-2500.0,-2109.0,-600.0,-646.0
-1543,-3218,-497,0,-1391.0,-1216.0,-2868.0,-2500.0,-552.0,-600.0
-1654,-3517,-407,0,-1543.0,-1391.0,-3218.0,-2868.0,-497.0,-552.0
-1720,-3733,-325,0,-1654.0,-1543.0,-3517.0,-3218.0,-407.0,-497.0
-1706,-3836,-320,0,-1720.0,-1654.0,-3733.0,-3517.0,-325.0,-407.0
-1589,-3781,-443,0,-1706.0,-1720.0,-3836.0,-3733.0,-320.0,-325.0
-1377,-3591,-678,0,-1589.0,-1706.0,-3781.0,-3836.0,-443.0,-320.0
-1098,-3319,-994,0,-1377.0,-1589.0,-3591.0,-3781.0,-678.0,-443.0
-777,-3007,-1351,0,-1098.0,-1377.0,-3319.0,-3591.0,-994.0,-678.0
-432,-2689,-1687,0,-777.0,-1098.0,-3007.0,-3319.0,-1351.0,-994.0
-85,-2375,-1943,0,-432.0,-777.0,-2689.0,-3007.0,-1687.0,-1351.0
247,-2090,-2102,0,-85.0,-432.0,-2375.0,-2689.0,-1943.0,-1687.0
553,-1861,-2200,0,247.0,-85.0,-2090.0,-2375.0,-2102.0,-1943.0
842,-1692,-2294,0,553.0,247.0,-1861.0,-2090.0,-2200.0,-2102.0
1116,-1592,-2422,0,842.0,553.0,-1692.0,-1861.0,-2294.0,-2200.0
1387,-1558,-2555,0,1116.0,842.0,-1592.0,-1692.0,-2422.0,-2294.0
1706,-1566,-2531,0,1387.0,1116.0,-1558.0,-1592.0,-2555.0,-2422.0
2200,-1541,-1997,0,1706.0,1387.0,-1566.0,-1558.0,-2531.0,-2555.0
2924,-1552,-1003,0,2200.0,1706.0,-1541.0,-1566.0,-1997.0,-2531.0
3992,-1695,105,0,2924.0,2200.0,-1552.0,-1541.0,-1003.0,-1997.0
5524,-2146,1213,0,3992.0,2924.0,-1695.0,-1552.0,105.0,-1003.0
7326,-2997,1761,0,5524.0,3992.0,-2146.0,-1695.0,1213.0,105.0
9194,-4277,1351,0,7326.0,5524.0,-2997.0,-2146.0,1761.0,1213.0
10997,-5806,342,0,9194.0,7326.0,-4277.0,-2997.0,1351.0,1761.0
12769,-7362,-715,0,10997.0,9194.0,-5806.0,-4277.0,342.0,1351.0
14509,-8733,-1567,0,12769.0,10997.0,-7362.0,-5806.0,-715.0,342.0
15950,-9702,-2457,0,14509.0,12769.0,-8733.0,-7362.0,-1567.0,-715.0
16859,-10002,-3272,0,15950.0,14509.0,-9702.0,-8733.0,-2457.0,-1567.0
17006,-9510,-3878,0,16859.0,15950.0,-10002.0,-9702.0,-3272.0,-2457.0
16245,-8193,-4014,0,17006.0,16859.0,-9510.0,-10002.0,-3878.0,-3272.0
14765,-6371,-3425,0,16245.0,17006.0,-8193.0,-9510.0,-4014.0,-3878.0
12926,-4445,-2309,0,14765.0,16245.0,-6371.0,-8193.0,-3425.0,-4014.0
11025,-2694,-1171,0,12926.0,14765.0,-4445.0,-6371.0,-2309.0,-3425.0
9299,-1241,-317,0,11025.0,12926.0,-2694.0,-4445.0,-1171.0,-2309.0
7742,-17,262,0,9299.0,11025.0,-1241.0,-2694.0,-317.0,-1171.0
6327,1169,746,0,7742.0,9299.0,-17.0,-1241.0,262.0,-317.0
5133,2245,1107,0,6327.0,7742.0,1169.0,-17.0,746.0,262.0
4170,3114,1265,0,5133.0,6327.0,2245.0,1169.0,1107.0,746.0
3424,3752,1244,0,4170.0,5133.0,3114.0,2245.0,1265.0,1107.0
2857,4173,1104,0,3424.0,4170.0,3752.0,3114.0,1244.0,1265.0
2455,4376,896,0,2857.0,3424.0,4173.0,3752.0,1104.0,1244.0
2217,4336,709,0,2455.0,2857.0,4376.0,4173.0,896.0,1104.0
2161,4032,635,0,2217.0,2455.0,4336.0,4376.0,709.0,896.0
2329,3404,719,0,2161.0,2217.0,4032.0,4336.0,635.0,709.0
2662,2567,979,0,2329.0,2161.0,3404.0,4032.0,719.0,635.0
3084,1627,1358,0,2662.0,2329.0,2567.0,3404.0,979.0,719.0
3510,678,1734,0,3084.0,2662.0,1627.0,2567.0,1358.0,979.0
3843,-201,1972,0,3510.0,3084.0,678.0,1627.0,1734.0,1358.0
4047,-952,1975,0,3843.0,3510.0,-201.0,678.0,1972.0,1734.0
4074,-1519,1729,0,4047.0,3843.0,-952.0,-201.0,1975.0,1972.0
3936,-1883,1333,0,4074.0,4047.0,-1519.0,-952.0,1729.0,1975.0
3673,-2055,909,0,3936.0,4074.0,-1883.0,-1519.0,1333.0,1729.0
3328,-2050,540,0,3673.0,3936.0,-2055.0,-1883.0,909.0,1333.0
2949,-1912,252,0,3328.0,3673.0,-2050.0,-2055.0,540.0,909.0
2567,-1676,36,0,2949.0,3328.0,-1912.0,-2050.0,252.0,540.0
2200,-1392,-128,0,2567.0,2949.0,-1676.0,-1912.0,36.0,252.0
1843,-1092,-266,0,2200.0,2567.0,-1392.0,-1676.0,-128.0,36.0
1509,-808,-391,0,1843.0,2200.0,-1092.0,-1392.0,-266.0,-128.0
1188,-545,-493,0,1509.0,1843.0,-808.0,-1092.0,-391.0,-266.0
866,-296,-559,0,1188.0,1509.0,-545.0,-808.0,-493.0,-391.0
518,-40,-564,0,866.0,1188.0,-296.0,-545.0,-559.0,-493.0
142,228,-507,0,518.0,866.0,-40.0,-296.0,-564.0,-559.0
-263,493,-402,0,142.0,518.0,228.0,-40.0,-507.0,-564.0
-700,756,-240,0,-263.0,142.0,493.0,228.0,-402.0,-507.0
-1136,1015,-48,0,-700.0,-263.0,756.0,493.0,-240.0,-402.0
-1581,1248,142,0,-1136.0,-700.0,1015.0,756.0,-48.0,-240.0
-2011,1440,294,0,-1581.0,-1136.0,1248.0,1015.0,142.0,-48.0
-2414,1605,412,0,-2011.0,-1581.0,1440.0,1248.0,294.0,142.0
-2771,1721,459,0,-2414.0,-2011.0,1605.0,1440.0,412.0,294.0
-3067,1809,435,0,-2771.0,-2414.0,1721.0,1605.0,459.0,412.0
-3285,1874,354,0,-3067.0,-2771.0,1809.0,1721.0,435.0,459.0
-3430,1933,215,0,-3285.0,-3067.0,1874.0,1809.0,354.0,435.0
-3493,2003,45,0,-3430.0,-3285.0,1933.0,1874.0,215.0,354.0
-3452,2085,-167,0,-3493.0,-3430.0,2003.0,1933.0,45.0,215.0
-3278,2127,-417,0,-3452.0,-3493.0,2085.0,2003.0,-167.0,45.0
-2982,2077,-675,0,-3278.0,-3452.0,2127.0,2085.0,-417.0,-167.0
-2633,1961,-918,0,-2982.0,-3278.0,2077.0,2127.0,-675.0,-417.0
-2272,1796,-1124,0,-2633.0,-2982.0,1961.0,2077.0,-918.0,-675.0
-1909,1578,-1248,0,-2272.0,-2633.0,1796.0,1961.0,-1124.0,-918.0
-1530,1319,-1264,0,-1909.0,-2272.0,1578.0,1796.0,-1248.0,-1124.0
-1065,1013,-1025,0,-1530.0,-1909.0,1319.0,1578.0,-1264.0,-1248.0
-505,627,-599,0,-1065.0,-1530.0,1013.0,1319.0,-1025.0,-1264.0
162,136,-78,0,-505.0,-1065.0,627.0,1013.0,-599.0,-1025.0
1000,-459,678,0,162.0,-505.0,136.0,627.0,-78.0,-599.0
2415,-1156,2579,0,1000.0,162.0,-459.0,136.0,678.0,-78.0
4545,-2120,5017,0,2415.0,1000.0,-1156.0,-459.0,2579.0,678.0
6928,-3549,6205,0,4545.0,2415.0,-2120.0,-1156.0,5017.0,2579.0
8095,-5161,4182,0,6928.0,4545.0,-3549.0,-2120.0,6205.0,5017.0
8139,-6766,191,0,8095.0,6928.0,-5161.0,-3549.0,4182.0,6205.0
8240,-8352,-3626,0,8139.0,8095.0,-6766.0,-5161.0,191.0,4182.0
9181,-9871,-6744,0,8240.0,8139.0,-8352.0,-6766.0,-3626.0,191.0
11060,-11116,-9990,0,9181.0,8240.0,-9871.0,-8352.0,-6744.0,-3626.0
13925,-11800,-12915,0,11060.0,9181.0,-11116.0,-9871.0,-9990.0,-6744.0
17222,-11219,-13728,0,13925.0,11060.0,-11800.0,-11116.0,-12915.0,-9990.0
20288,-8639,-10250,0,17222.0,13925.0,-11219.0,-11800.0,-13728.0,-12915.0
22220,-4497,-3552,0,20288.0,17222.0,-8639.0,-11219.0,-10250.0,-13728.0
22305,-464,1361,0,22220.0,20288.0,-4497.0,-8639.0,-3552.0,-10250.0
20789,2299,2559,0,22305.0,22220.0,-464.0,-4497.0,1361.0,-3552.0
18526,3699,1220,0,20789.0,22305.0,2299.0,-464.0,2559.0,1361.0
16197,4157,-596,0,18526.0,20789.0,3699.0,2299.0,1220.0,2559.0
13976,4195,-1527,0,16197.0,18526.0,4157.0,3699.0,-596.0,1220.0
11650,4025,-1290,0,13976.0,16197.0,4195.0,4157.0,-1527.0,-596.0
9178,3780,-183,0,11650.0,13976.0,4025.0,4195.0,-1290.0,-1527.0
6841,3468,1033,0,9178.0,11650.0,3780.0,4025.0,-183.0,-1290.0
4667,3164,2098,0,6841.0,9178.0,3468.0,3780.0,1033.0,-183.0
2708,2794,2865,0,4667.0,6841.0,3164.0,3468.0,2098.0,1033.0
1149,2227,3029,0,2708.0,4667.0,2794.0,3164.0,2865.0,2098.0
66,1392,2598,0,1149.0,2708.0,2227.0,2794.0,3029.0,2865.0
-613,405,1853,0,66.0,1149.0,1392.0,2227.0,2598.0,3029.0
-925,-645,1020,0,-613.0,66.0,405.0,1392.0,1853.0,2598.0
-870,-1688,239,0,-925.0,-613.0,-645.0,405.0,1020.0,1853.0
-513,-2641,-328,0,-870.0,-925.0,-1688.0,-645.0,239.0,1020.0
35,-3354,-578,0,-513.0,-870.0,-2641.0,-1688.0,-328.0,239.0
663,-3740,-506,0,35.0,-513.0,-3354.0,-2641.0,-578.0,-328.0
1298,-3799,-170,0,663.0,35.0,-3740.0,-3354.0,-506.0,-578.0
1905,-3582,309,0,1298.0,663.0,-3799.0,-3740.0,-170.0,-506.0
2463,-3149,772,0,1905.0,1298.0,-3582.0,-3799.0,309.0,-170.0
2951,-2578,1118,0,2463.0,1905.0,-3149.0,-3582.0,772.0,309.0
3351,-1940,1294,0,2951.0,2463.0,-2578.0,-3149.0,1118.0,772.0
3675,-1296,1285,0,3351.0,2951.0,-1940.0,-2578.0,1294.0,1118.0
3921,-712,1139,0,3675.0,3351.0,-1296.0,-1940.0,1285.0,1294.0
4122,-236,911,0,3921.0,3675.0,-712.0,-1296.0,1139.0,1285.0
4268,102,627,0,4122.0,3921.0,-236.0,-712.0,911.0,1139.0
4369,280,323,0,4268.0,4122.0,102.0,-236.0,627.0,911.0
4408,316,23,0,4369.0,4268.0,280.0,102.0,323.0,627.0
4370,219,-263,0,4408.0,4369.0,316.0,280.0,23.0,323.0
4259,39,-514,0,4370.0,4408.0,219.0,316.0,-263.0,23.0
4081,-177,-730,0,4259.0,4370.0,39.0,219.0,-514.0,-263.0
3840,-402,-906,0,4081.0,4259.0,-177.0,39.0,-730.0,-514.0
3565,-622,-1027,0,3840.0,4081.0,-402.0,-177.0,-906.0,-730.0
3294,-816,-1108,0,3565.0,3840.0,-622.0,-402.0,-1027.0,-906.0
3053,-982,-1144,0,3294.0,3565.0,-816.0,-622.0,-1108.0,-1027.0
2864,-1118,-1139,0,3053.0,3294.0,-982.0,-816.0,-1144.0,-1108.0
2723,-1233,-1114,0,2864.0,3053.0,-1118.0,-982.0,-1139.0,-1144.0
2604,-1339,-1081,0,2723.0,2864.0,-1233.0,-1118.0,-1114.0,-1139.0
2508,-1437,-1046,0,2604.0,2723.0,-1339.0,-1233.0,-1081.0,-1114.0
2411,-1536,-1010,0,2508.0,2604.0,-1437.0,-1339.0,-1046.0,-1081.0
2289,-1616,-964,0,2411.0,2508.0,-1536.0,-1437.0,-1010.0,-1046.0
2141,-1685,-894,0,2289.0,2411.0,-1616.0,-1536.0,-964.0,-1010.0
1933,-1734,-787,0,2141.0,2289.0,-1685.0,-1616.0,-894.0,-964.0
1662,-1761,-632,0,1933.0,2141.0,-1734.0,-1685.0,-787.0,-894.0
1338,-1758,-429,0,1662.0,1933.0,-1761.0,-1734.0,-632.0,-787.0
971,-1757,-176,0,1338.0,1662.0,-1758.0,-1761.0,-429.0,-632.0
569,-1747,86,0,971.0,1338.0,-1757.0,-1758.0,-176.0,-429.0
145,-1711,333,0,569.0,971.0,-1747.0,-1757.0,86.0,-176.0
-272,-1653,508,0,145.0,569.0,-1711.0,-1747.0,333.0,86.0
-693,-1573,640,0,-272.0,145.0,-1653.0,-1711.0,508.0,333.0
-1091,-1461,725,0,-693.0,-272.0,-1573.0,-1653.0,640.0,508.0
-1454,-1330,739,0,-1091.0,-693.0,-1461.0,-1573.0,725.0,640.0
-1781,-1163,690,0,-1454.0,-1091.0,-1330.0,-1461.0,739.0,725.0
-2081,-973,572,0,-1781.0,-1454.0,-1163.0,-1330.0,690.0,739.0
-2332,-799,378,0,-2081.0,-1781.0,-973.0,-1163.0,572.0,690.0
-2499,-663,140,0,-2332.0,-2081.0,-799.0,-973.0,378.0,572.0
-2575,-596,-156,0,-2499.0,-2332.0,-663.0,-799.0,140.0,378.0
-2537,-620,-529,0,-2575.0,-2499.0,-596.0,-663.0,-156.0,140.0
-2377,-739,-985,0,-2537.0,-2575.0,-620.0,-596.0,-529.0,-156.0
-2112,-945,-1492,0,-2377.0,-2537.0,-739.0,-620.0,-985.0,-529.0
-1761,-1236,-1991,0,-2112.0,-2377.0,-945.0,-739.0,-1492.0,-985.0
-1358,-1609,-2439,0,-1761.0,-2112.0,-1236.0,-945.0,-1991.0,-1492.0
-893,-2053,-2814,0,-1358.0,-1761.0,-1609.0,-1236.0,-2439.0,-1991.0
-334,-2543,-3093,0,-893.0,-1358.0,-2053.0,-1609.0,-2814.0,-2439.0
374,-3045,-3172,0,-334.0,-893.0,-2543.0,-2053.0,-3093.0,-2814.0
1349,-3543,-2815,0,374.0,-334.0,-3045.0,-2543.0,-3172.0,-3093.0
3061,-3775,-1051,0,1349.0,374.0,-3543.0,-3045.0,-2815.0,-3172.0
5841,-3755,2128,0,3061.0,1349.0,-3775.0,-3543.0,-1051.0,-2815.0
8611,-4052,4114,0,5841.0,3061.0,-3755.0,-3775.0,2128.0,-1051.0
10699,-4619,4050,0,8611.0,5841.0,-4052.0,-3755.0,4114.0,2128.0
12262,-5267,2924,0,10699.0,8611.0,-4619.0,-4052.0,4050.0,4114.0
13619,-5828,1802,0,12262.0,10699.0,-5267.0,-4619.0,2924.0,4050.0
14874,-6164,926,0,13619.0,12262.0,-5828.0,-5267.0,1802.0,2924.0
15781,-6325,-104,0,14874.0,13619.0,-6164.0,-5828.0,926.0,1802.0
16287,-6206,-1239,0,15781.0,14874.0,-6325.0,-6164.0,-104.0,926.0
16449,-5773,-2123,0,16287.0,15781.0,-6206.0,-6325.0,-1239.0,-104.0
16226,-4955,-2423,0,16449.0,16287.0,-5773.0,-6206.0,-2123.0,-1239.0
15526,-3720,-1927,0,16226.0,16449.0,-4955.0,-5773.0,-2423.0,-2123.0
14388,-2516,-912,0,15526.0,16226.0,-3720.0,-4955.0,-1927.0,-2423.0
13023,-1567,134,0,14388.0,15526.0,-2516.0,-3720.0,-912.0,-1927.0
11558,-867,983,0,13023.0,14388.0,-1567.0,-2516.0,134.0,-912.0
10063,-362,1574,0,11558.0,13023.0,-867.0,-1567.0,983.0,134.0
8562,86,1874,0,10063.0,11558.0,-362.0,-867.0,1574.0,983.0
7039,607,1990,0,8562.0,10063.0,86.0,-362.0,1874.0,1574.0
5580,1158,1960,0,7039.0,8562.0,607.0,86.0,1990.0,1874.0
4244,1632,1725,0,5580.0,7039.0,1158.0,607.0,1960.0,1990.0
3046,1984,1330,0,4244.0,5580.0,1632.0,1158.0,1725.0,1960.0
2021,2226,900,0,3046.0,4244.0,1984.0,1632.0,1330.0,1725.0
1217,2335,522,0,2021.0,3046.0,2226.0,1984.0,900.0,1330.0
650,2293,280,0,1217.0,2021.0,2335.0,2226.0,522.0,900.0
326,2121,241,0,650.0,1217.0,2293.0,2335.0,280.0,522.0
226,1827,426,0,326.0,650.0,2121.0,2293.0,241.0,280.0
352,1403,813,0,226.0,326.0,1827.0,2121.0,426.0,241.0
663,898,1313,0,352.0,226.0,1403.0,1827.0,813.0,426.0
1067,393,1825,0,663.0,352.0,898.0,1403.0,1313.0,813.0
1472,-64,2242,0,1067.0,663.0,393.0,898.0,1825.0,1313.0
1812,-424,2471,0,1472.0,1067.0,-64.0,393.0,2242.0,1825.0
2046,-651,2502,0,1812.0,1472.0,-424.0,-64.0,2471.0,2242.0
2153,-749,2369,0,2046.0,1812.0,-651.0,-424.0,2502.0,2471.0
2169,-760,2139,0,2153.0,2046.0,-749.0,-651.0,2369.0,2502.0
2111,-709,1874,0,2169.0,2153.0,-760.0,-749.0,2139.0,2369.0
2006,-628,1583,0,2111.0,2169.0,-709.0,-760.0,1874.0,2139.0
1878,-539,1264,0,2006.0,2111.0,-628.0,-709.0,1583.0,1874.0
1724,-458,931,0,1878.0,2006.0,-539.0,-628.0,1264.0,1583.0
1560,-380,604,0,1724.0,1878.0,-458.0,-539.0,931.0,1264.0
1390,-307,318,0,1560.0,1724.0,-380.0,-458.0,604.0,931.0
1217,-223,78,0,1390.0,1560.0,-307.0,-380.0,318.0,604.0
1021,-129,-126,0,1217.0,1390.0,-223.0,-307.0,78.0,318.0
788,-23,-288,0,1021.0,1217.0,-129.0,-223.0,-126.0,78.0
515,97,-432,0,788.0,1021.0,-23.0,-129.0,-288.0,-126.0
210,208,-563,0,515.0,788.0,97.0,-23.0,-432.0,-288.0
-129,329,-665,0,210.0,515.0,208.0,97.0,-563.0,-432.0
-467,465,-722,0,-129.0,210.0,329.0,208.0,-665.0,-563.0
-783,616,-713,0,-467.0,-129.0,465.0,329.0,-722.0,-665.0
-1071,774,-657,0,-783.0,-467.0,616.0,465.0,-713.0,-722.0
-1329,928,-586,0,-1071.0,-783.0,774.0,616.0,-657.0,-713.0
-1575,1061,-500,0,-1329.0,-1071.0,928.0,774.0,-586.0,-657.0
-1797,1171,-427,0,-1575.0,-1329.0,1061.0,928.0,-500.0,-586.0
-1986,1256,-374,0,-1797.0,-1575.0,1171.0,1061.0,-427.0,-500.0
-2142,1334,-339,0,-1986.0,-1797.0,1256.0,1171.0,-374.0,-427.0
-2254,1419,-318,0,-2142.0,-1986.0,1334.0,1256.0,-339.0,-374.0
-2306,1534,-296,0,-2254.0,-2142.0,1419.0,1334.0,-318.0,-339.0
-2280,1674,-268,0,-2306.0,-2254.0,1534.0,1419.0,-296.0,-318.0
-2102,1736,-266,0,-2280.0,-2306.0,1674.0,1534.0,-268.0,-296.0
-1795,1694,-346,0,-2102.0,-2280.0,1736.0,1674.0,-266.0,-268.0
-1424,1571,-534,0,-1795.0,-2102.0,1694.0,1736.0,-346.0,-266.0
-1039,1382,-771,0,-1424.0,-1795.0,1571.0,1694.0,-534.0,-346.0
-668,1118,-1018,0,-1039.0,-1424.0,1382.0,1571.0,-771.0,-534.0
-282,769,-1232,0,-668.0,-1039.0,1118.0,1382.0,-1018.0,-771.0
147,308,-1441,0,-282.0,-668.0,769.0,1118.0,-1232.0,-1018.0
658,-274,-1638,0,147.0,-282.0,308.0,769.0,-1441.0,-1232.0
1359,-1003,-1603,0,658.0,147.0,-274.0,308.0,-1638.0,-1441.0
3083,-1858,389,0,1359.0,658.0,-1003.0,-274.0,-1603.0,-1638.0
5795,-3168,3034,0,3083.0,1359.0,-1858.0,-1003.0,389.0,-1603.0
7988,-5247,3347,0,5795.0,3083.0,-3168.0,-1858.0,3034.0,389.0
9219,-8113,1077,0,7988.0,5795.0,-5247.0,-3168.0,3347.0,3034.0
10447,-11216,-1721,0,9219.0,7988.0,-8113.0,-5247.0,1077.0,3347.0
12029,-14001,-4338,0,10447.0,9219.0,-11216.0,-8113.0,-1721.0,1077.0
14039,-16305,-7167,0,12029.0,10447.0,-14001.0,-11216.0,-4338.0,-1721.0
16421,-17411,-9650,0,14039.0,12029.0,-16305.0,-14001.0,-7167.0,-4338.0
18527,-16631,-10490,0,16421.0,14039.0,-17411.0,-16305.0,-9650.0,-7167.0
19545,-13533,-8869,0,18527.0,16421.0,-16631.0,-17411.0,-10490.0,-9650.0
19375,-9256,-5727,0,19545.0,18527.0,-13533.0,-16631.0,-8869.0,-10490.0
18254,-5201,-2989,0,19375.0,19545.0,-9256.0,-13533.0,-5727.0,-8869.0
16516,-1954,-1578,0,18254.0,19375.0,-5201.0,-9256.0,-2989.0,-5727.0
14498,194,-1372,0,16516.0,18254.0,-1954.0,-5201.0,-1578.0,-2989.0
12456,1569,-1755,0,14498.0,16516.0,194.0,-1954.0,-1372.0,-1578.0
10485,2491,-2115,0,12456.0,14498.0,1569.0,194.0,-1755.0,-1372.0
8586,3284,-2148,0,10485.0,12456.0,2491.0,1569.0,-2115.0,-1755.0
6850,3970,-1878,0,8586.0,10485.0,3284.0,2491.0,-2148.0,-2115.0
5262,4729,-1291,0,6850.0,8586.0,3970.0,3284.0,-1878.0,-2148.0
3754,5609,-567,0,5262.0,6850.0,4729.0,3970.0,-1291.0,-1878.0
2418,6480,-33,0,3754.0,5262.0,5609.0,4729.0,-567.0,-1291.0
1400,7148,175,0,2418.0,3754.0,6480.0,5609.0,-33.0,-567.0
801,7452,191,0,1400.0,2418.0,7148.0,6480.0,175.0,-33.0
649,7227,234,0,801.0,1400.0,7452.0,7148.0,191.0,175.0
1059,6256,542,0,649.0,801.0,7227.0,7452.0,234.0,191.0
1932,4702,1063,0,1059.0,649.0,6256.0,7227.0,542.0,234.0
2998,2831,1568,0,1932.0,1059.0,4702.0,6256.0,1063.0,542.0
4056,897,1908,0,2998.0,1932.0,2831.0,4702.0,1568.0,1063.0
4976,-927,2001,0,4056.0,2998.0,897.0,2831.0,1908.0,1568.0
5685,-2510,1805,0,4976.0,4056.0,-927.0,897.0,2001.0,1908.0
6152,-3785,1356,0,5685.0,4976.0,-2510.0,-927.0,1805.0,2001.0
6373,-4680,746,0,6152.0,5685.0,-3785.0,-2510.0,1356.0,1805.0
6400,-5172,148,0,6373.0,6152.0,-4680.0,-3785.0,746.0,1356.0
6288,-5264,-280,0,6400.0,6373.0,-5172.0,-4680.0,148.0,746.0
6100,-5074,-467,0,6288.0,6400.0,-5264.0,-5172.0,-280.0,148.0
5851,-4713,-456,0,6100.0,6288.0,-5074.0,-5264.0,-467.0,-280.0
5551,-4275,-360,0,5851.0,6100.0,-4713.0,-5074.0,-456.0,-467.0
5206,-3833,-292,0,5551.0,5851.0,-4275.0,-4713.0,-360.0,-456.0
4826,-3446,-312,0,5206.0,5551.0,-3833.0,-4275.0,-292.0,-360.0
4440,-3133,-430,0,4826.0,5206.0,-3446.0,-3833.0,-312.0,-292.0
4046,-2903,-596,0,4440.0,4826.0,-3133.0,-3446.0,-430.0,-312.0
3674,-2751,-770,0,4046.0,4440.0,-2903.0,-3133.0,-596.0,-430.0
3332,-2657,-925,0,3674.0,4046.0,-2751.0,-2903.0,-770.0,-596.0
3039,-2614,-1044,0,3332.0,3674.0,-2657.0,-2751.0,-925.0,-770.0
2796,-2607,-1101,0,3039.0,3332.0,-2614.0,-2657.0,-1044.0,-925.0
2609,-2610,-1070,0,2796.0,3039.0,-2607.0,-2614.0,-1101.0,-1044.0
2482,-2619,-976,0,2609.0,2796.0,-2610.0,-2607.0,-1070.0,-1101.0
2402,-2610,-857,0,2482.0,2609.0,-2619.0,-2610.0,-976.0,-1070.0
2360,-2569,-734,0,2402.0,2482.0,-2610.0,-2619.0,-857.0,-976.0
2348,-2490,-632,0,2360.0,2402.0,-2569.0,-2610.0,-734.0,-857.0
2339,-2375,-555,0,2348.0,2360.0,-2490.0,-2569.0,-632.0,-734.0
2317,-2224,-499,0,2339.0,2348.0,-2375.0,-2490.0,-555.0,-632.0
2278,-2051,-476,0,2317.0,2339.0,-2224.0,-2375.0,-499.0,-555.0
2212,-1867,-491,0,2278.0,2317.0,-2051.0,-2224.0,-476.0,-499.0
2131,-1686,-546,0,2212.0,2278.0,-1867.0,-2051.0,-491.0,-476.0
2028,-1533,-616,0,2131.0,2212.0,-1686.0,-1867.0,-546.0,-491.0
1910,-1416,-701,0,2028.0,2131.0,-1533.0,-1686.0,-616.0,-546.0
1776,-1332,-784,0,1910.0,2028.0,-1416.0,-1533.0,-701.0,-616.0
1623,-1276,-848,0,1776.0,1910.0,-1332.0,-1416.0,-784.0,-701.0
1457,-1232,-874,0,1623.0,1776.0,-1276.0,-1332.0,-848.0,-784.0
1269,-1189,-853,0,1457.0,1623.0,-1232.0,-1276.0,-874.0,-848.0
1065,-1133,-791,0,1269.0,1457.0,-1189.0,-1232.0,-853.0,-874.0
857,-1057,-717,0,1065.0,1269.0,-1133.0,-1189.0,-791.0,-853.0
645,-959,-637,0,857.0,1065.0,-1057.0,-1133.0,-717.0,-791.0
434,-845,-576,0,645.0,857.0,-959.0,-1057.0,-637.0,-717.0
239,-711,-549,0,434.0,645.0,-845.0,-959.0,-576.0,-637.0
57,-556,-557,0,239.0,434.0,-711.0,-845.0,-549.0,-576.0
-119,-394,-603,0,57.0,239.0,-556.0,-711.0,-557.0,-549.0
-292,-220,-668,0,-119.0,57.0,-394.0,-556.0,-603.0,-557.0
-454,-44,-749,0,-292.0,-119.0,-220.0,-394.0,-668.0,-603.0
-599,132,-838,0,-454.0,-292.0,-44.0,-220.0,-749.0,-668.0
-722,285,-930,0,-599.0,-454.0,132.0,-44.0,-838.0,-749.0
-818,419,-1025,0,-722.0,-599.0,285.0,132.0,-930.0,-838.0
-879,525,-1105,0,-818.0,-722.0,419.0,285.0,-1025.0,-930.0
-892,594,-1170,0,-879.0,-818.0,525.0,419.0,-1105.0,-1025.0
-846,631,-1218,0,-892.0,-879.0,594.0,525.0,-1170.0,-1105.0
-724,645,-1256,0,-846.0,-892.0,631.0,594.0,-1218.0,-1170.0
-520,642,-1258,0,-724.0,-846.0,645.0,631.0,-1256.0,-1218.0
-256,621,-1199,0,-520.0,-724.0,642.0,645.0,-1258.0,-1256.0
58,579,-1055,0,-256.0,-520.0,621.0,642.0,-1199.0,-1258.0
416,497,-851,0,58.0,-256.0,579.0,621.0,-1055.0,-1199.0
847,384,-546,0,416.0,58.0,497.0,579.0,-851.0,-1055.0
1349,243,-237,0,847.0,416.0,384.0,497.0,-546.0,-851.0
1879,53,18,0,1349.0,847.0,243.0,384.0,-237.0,-546.0
2455,-233,240,0,1879.0,1349.0,53.0,243.0,18.0,-237.0
3066,-682,382,0,2455.0,1879.0,-233.0,53.0,240.0,18.0
3690,-1276,425,0,3066.0,2455.0,-682.0,-233.0,382.0,240.0
4324,-2005,301,0,3690.0,3066.0,-1276.0,-682.0,425.0,382.0
4946,-2869,-37,0,4324.0,3690.0,-2005.0,-1276.0,301.0,425.0
5578,-3851,-532,0,4946.0,4324.0,-2869.0,-2005.0,-37.0,301.0
6202,-4941,-1203,0,5578.0,4946.0,-3851.0,-2869.0,-532.0,-37.0
6803,-5968,-2026,0,6202.0,5578.0,-4941.0,-3851.0,-1203.0,-532.0
7494,-6761,-2675,0,6803.0,6202.0,-5968.0,-4941.0,-2026.0,-1203.0
8418,-7162,-2826,0,7494.0,6803.0,-6761.0,-5968.0,-2675.0,-2026.0
9670,-7108,-2395,0,8418.0,7494.0,-7162.0,-6761.0,-2826.0,-2675.0
11071,-6543,-1566,0,9670.0,8418.0,-7108.0,-7162.0,-2395.0,-2826.0
12435,-5621,-510,0,11071.0,9670.0,-6543.0,-7108.0,-1566.0,-2395.0
13519,-4488,623,0,12435.0,11071.0,-5621.0,-6543.0,-510.0,-1566.0
14128,-3336,1656,0,13519.0,12435.0,-4488.0,-5621.0,623.0,-510.0
14268,-2480,2417,0,14128.0,13519.0,-3336.0,-4488.0,1656.0,623.0
13952,-2047,2719,0,14268.0,14128.0,-2480.0,-3336.0,2417.0,1656.0
13234,-1954,2579,0,13952.0,14268.0,-2047.0,-2480.0,2719.0,2417.0
12224,-2020,2171,0,13234.0,13952.0,-1954.0,-2047.0,2579.0,2719.0
11024,-2089,1624,0,12224.0,13234.0,-2020.0,-1954.0,2171.0,2579.0
9748,-2084,1060,0,11024.0,12224.0,-2089.0,-2020.0,1624.0,2171.0
8448,-1981,518,0,9748.0,11024.0,-2084.0,-2089.0,1060.0,1624.0
7165,-1778,40,0,8448.0,9748.0,-1981.0,-2084.0,518.0,1060.0
5974,-1467,-295,0,7165.0,8448.0,-1778.0,-1981.0,40.0,518.0
4945,-1055,-455,0,5974.0,7165.0,-1467.0,-1778.0,-295.0,40.0
4132,-613,-487,0,4945.0,5974.0,-1055.0,-1467.0,-455.0,-295.0
3551,-191,-419,0,4132.0,4945.0,-613.0,-1055.0,-487.0,-455.0
3192,186,-250,0,3551.0,4132.0,-191.0,-613.0,-419.0,-487.0
3031,479,23,0,3192.0,3551.0,186.0,-191.0,-250.0,-419.0
3024,667,389,0,3031.0,3192.0,479.0,186.0,23.0,-250.0
3131,730,797,0,3024.0,3031.0,667.0,479.0,389.0,23.0
3287,659,1173,0,3131.0,3024.0,730.0,667.0,797.0,389.0
3465,466,1486,0,3287.0,3131.0,659.0,730.0,1173.0,797.0
3613,179,1696,0,3465.0,3287.0,466.0,659.0,1486.0,1173.0
3707,-188,1762,0,3613.0,3465.0,179.0,466.0,1696.0,1486.0
3732,-594,1678,0,3707.0,3613.0,-188.0,179.0,1762.0,1696.0
3667,-996,1492,0,3732.0,3707.0,-594.0,-188.0,1678.0,1762.0
3521,-1341,1255,0,3667.0,3732.0,-996.0,-594.0,1492.0,1678.0
3314,-1596,995,0,3521.0,3667.0,-1341.0,-996.0,1255.0,1492.0
3071,-1754,748,0,3314.0,3521.0,-1596.0,-1341.0,995.0,1255.0
2811,-1809,524,0,3071.0,3314.0,-1754.0,-1596.0,748.0,995.0
2541,-1777,321,0,2811.0,3071.0,-1809.0,-1754.0,524.0,748.0
2276,-1673,143,0,2541.0,2811.0,-1777.0,-1809.0,321.0,524.0
2021,-1507,-14,0,2276.0,2541.0,-1673.0,-1777.0,143.0,321.0
1766,-1287,-156,0,2021.0,2276.0,-1507.0,-1673.0,-14.0,143.0
1515,-1027,-294,0,1766.0,2021.0,-1287.0,-1507.0,-156.0,-14.0
1265,-744,-436,0,1515.0,1766.0,-1027.0,-1287.0,-294.0,-156.0
1014,-460,-580,0,1265.0,1515.0,-744.0,-1027.0,-436.0,-294.0
763,-180,-712,0,1014.0,1265.0,-460.0,-744.0,-580.0,-436.0
507,89,-819,0,763.0,1014.0,-180.0,-460.0,-712.0,-580.0
254,334,-891,0,507.0,763.0,89.0,-180.0,-819.0,-712.0
6,555,-905,0,254.0,507.0,334.0,89.0,-891.0,-819.0
-234,735,-870,0,6.0,254.0,555.0,334.0,-905.0,-891.0
-456,861,-814,0,-234.0,6.0,735.0,555.0,-870.0,-905.0
-663,941,-744,0,-456.0,-234.0,861.0,735.0,-814.0,-870.0
-842,950,-685,0,-663.0,-456.0,941.0,861.0,-744.0,-814.0
-1009,916,-626,0,-842.0,-663.0,950.0,941.0,-685.0,-744.0
-1168,844,-575,0,-1009.0,-842.0,916.0,950.0,-626.0,-685.0
-1326,731,-562,0,-1168.0,-1009.0,844.0,916.0,-575.0,-626.0
-1479,629,-604,0,-1326.0,-1168.0,731.0,844.0,-562.0,-575.0
-1630,514,-666,0,-1479.0,-1326.0,629.0,731.0,-604.0,-562.0
-1784,384,-736,0,-1630.0,-1479.0,514.0,629.0,-666.0,-604.0
-1937,261,-799,0,-1784.0,-1630.0,384.0,514.0,-736.0,-666.0
-2083,159,-861,0,-1937.0,-1784.0,261.0,384.0,-799.0,-736.0
-2194,77,-927,0,-2083.0,-1937.0,159.0,261.0,-861.0,-799.0
-2264,33,-1022,0,-2194.0,-2083.0,77.0,159.0,-927.0,-861.0
-2284,51,-1132,0,-2264.0,-2194.0,33.0,77.0,-1022.0,-927.0
-2243,142,-1273,0,-2284.0,-2264.0,51.0,33.0,-1132.0,-1022.0
-2104,256,-1437,0,-2243.0,-2284.0,142.0,51.0,-1273.0,-1132.0
-1882,366,-1601,0,-2104.0,-2243.0,256.0,142.0,-1437.0,-1273.0
-1617,459,-1747,0,-1882.0,-2104.0,366.0,256.0,-1601.0,-1437.0
-1328,518,-1873,0,-1617.0,-1882.0,459.0,366.0,-1747.0,-1601.0
-1021,534,-1963,0,-1328.0,-1617.0,518.0,459.0,-1873.0,-1747.0
-701,506,-2009,0,-1021.0,-1328.0,534.0,518.0,-1963.0,-1873.0
-357,438,-2012,0,-701.0,-1021.0,506.0,534.0,-2009.0,-1963.0
20,332,-1942,0,-357.0,-701.0,438.0,506.0,-2012.0,-2009.0
462,184,-1744,0,20.0,-357.0,332.0,438.0,-1942.0,-2012.0
1006,-27,-1438,0,462.0,20.0,184.0,332.0,-1744.0,-1942.0
1816,-297,-756,0,1006.0,462.0,-27.0,184.0,-1438.0,-1744.0
3093,-573,662,0,1816.0,1006.0,-297.0,-27.0,-756.0,-1438.0
4861,-981,2236,0,3093.0,1816.0,-573.0,-297.0,662.0,-756.0
6739,-1723,3083,0,4861.0,3093.0,-981.0,-573.0,2236.0,662.0
8182,-2883,2291,0,6739.0,4861.0,-1723.0,-981.0,3083.0,2236.0
9179,-4323,10,0,8182.0,6739.0,-2883.0,-1723.0,2291.0,3083.0
10107,-5857,-2669,0,9179.0,8182.0,-4323.0,-2883.0,10.0,2291.0
11266,-7371,-5046,0,10107.0,9179.0,-5857.0,-4323.0,-2669.0,10.0
12849,-8765,-6904,0,11266.0,10107.0,-7371.0,-5857.0,-5046.0,-2669.0
14794,-9783,-8103,0,12849.0,11266.0,-8765.0,-7371.0,-6904.0,-5046.0
16874,-10168,-8215,0,14794.0,12849.0,-9783.0,-8765.0,-8103.0,-6904.0
18485,-9294,-6675,0,16874.0,14794.0,-10168.0,-9783.0,-8215.0,-8103.0
19105,-7147,-3772,0,18485.0,16874.0,-9294.0,-10168.0,-6675.0,-8215.0
18627,-4644,-1213,0,19105.0,18485.0,-7147.0,-9294.0,-3772.0,-6675.0
17142,-2662,-324,0,18627.0,19105.0,-4644.0,-7147.0,-1213.0,-3772.0
15033,-1302,-761,0,17142.0,18627.0,-2662.0,-4644.0,-324.0,-1213.0
12800,-329,-1520,0,15033.0,17142.0,-1302.0,-2662.0,-761.0,-324.0
10694,605,-1851,0,12800.0,15033.0,-329.0,-1302.0,-1520.0,-761.0
8761,1763,-1597,0,10694.0,12800.0,605.0,-329.0,-1851.0,-1520.0
7092,3090,-847,0,8761.0,10694.0,1763.0,605.0,-1597.0,-1851.0
5767,4466,75,0,7092.0,8761.0,3090.0,1763.0,-847.0,-1597.0
4790,5736,864,0,5767.0,7092.0,4466.0,3090.0,75.0,-847.0
4048,6795,1358,0,4790.0,5767.0,5736.0,4466.0,864.0,75.0
3530,7496,1564,0,4048.0,4790.0,6795.0,5736.0,1358.0,864.0
3235,7786,1768,0,3530.0,4048.0,7496.0,6795.0,1564.0,1358.0
3207,7571,2214,0,3235.0,3530.0,7786.0,7496.0,1768.0,1564.0
3538,6649,2879,0,3207.0,3235.0,7571.0,7786.0,2214.0,1768.0
4141,5206,3507,0,3538.0,3207.0,6649.0,7571.0,2879.0,2214.0
4813,3531,3831,0,4141.0,3538.0,5206.0,6649.0,3507.0,2879.0
5397,1850,3717,0,4813.0,4141.0,3531.0,5206.0,3831.0,3507.0
5811,325,3171,0,5397.0,4813.0,1850.0,3531.0,3717.0,3831.0
6068,-977,2366,0,5811.0,5397.0,325.0,1850.0,3171.0,3717.0
6222,-2033,1510,0,6068.0,5811.0,-977.0,325.0,2366.0,3171.0
6321,-2834,810,0,6222.0,6068.0,-2033.0,-977.0,1510.0,2366.0
6393,-3377,368,0,6321.0,6222.0,-2834.0,-2033.0,810.0,1510.0
6435,-3684,177,0,6393.0,6321.0,-3377.0,-2834.0,368.0,810.0
6446,-3822,135,0,6435.0,6393.0,-3684.0,-3377.0,177.0,368.0
6417,-3831,150,0,6446.0,6435.0,-3822.0,-3684.0,135.0,177.0
6339,-3726,171,0,6417.0,6446.0,-3831.0,-3822.0,150.0,135.0
6196,-3521,166,0,6339.0,6417.0,-3726.0,-3831.0,171.0,150.0
5990,-3264,140,0,6196.0,6339.0,-3521.0,-3726.0,166.0,171.0
5731,-2975,102,0,5990.0,6196.0,-3264.0,-3521.0,140.0,166.0
5430,-2687,52,0,5731.0,5990.0,-2975.0,-3264.0,102.0,140.0
5115,-2430,-26,0,5430.0,5731.0,-2687.0,-2975.0,52.0,102.0
4795,-2209,-122,0,5115.0,5430.0,-2430.0,-2687.0,-26.0,52.0
4471,-2012,-215,0,4795.0,5115.0,-2209.0,-2430.0,-122.0,-26.0
4162,-1824,-266,0,4471.0,4795.0,-2012.0,-2209.0,-215.0,-122.0
3850,-1650,-257,0,4162.0,4471.0,-1824.0,-2012.0,-266.0,-215.0
3549,-1475,-197,0,3850.0,4162.0,-1650.0,-1824.0,-257.0,-266.0
3273,-1293,-94,0,3549.0,3850.0,-1475.0,-1650.0,-197.0,-257.0
3023,-1100,13,0,3273.0,3549.0,-1293.0,-1475.0,-94.0,-197.0
2806,-907,99,0,3023.0,3273.0,-1100.0,-1293.0,13.0,-94.0
2614,-714,131,0,2806.0,3023.0,-907.0,-1100.0,99.0,13.0
2455,-498,50,0,2614.0,2806.0,-714.0,-907.0,131.0,99.0
2297,-297,9,0,2455.0,2614.0,-498.0,-714.0,50.0,131.0
2130,-126,-49,0,2297.0,2455.0,-297.0,-498.0,9.0,50.0
1958,14,-162,0,2130.0,2297.0,-126.0,-297.0,-49.0,9.0
1795,127,-333,0,1958.0,2130.0,14.0,-126.0,-162.0,-49.0
1634,210,-546,0,1795.0,1958.0,127.0,14.0,-333.0,-162.0
1474,261,-762,0,1634.0,1795.0,210.0,127.0,-546.0,-333.0
1304,280,-942,0,1474.0,1634.0,261.0,210.0,-762.0,-546.0
1131,269,-1074,0,1304.0,1474.0,280.0,261.0,-942.0,-762.0
960,239,-1143,0,1131.0,1304.0,269.0,280.0,-1074.0,-942.0
768,180,-1145,0,960.0,1131.0,239.0,269.0,-1143.0,-1074.0
566,89,-1097,0,768.0,960.0,180.0,239.0,-1145.0,-1143.0
360,-38,-1013,0,566.0,768.0,89.0,180.0,-1097.0,-1145.0
152,-201,-897,0,360.0,566.0,-38.0,89.0,-1013.0,-1097.0
-81,-396,-743,0,152.0,360.0,-201.0,-38.0,-897.0,-1013.0
-317,-610,-557,0,-81.0,152.0,-396.0,-201.0,-743.0,-897.0
-552,-831,-352,0,-317.0,-81.0,-610.0,-396.0,-557.0,-743.0
-779,-1044,-151,0,-552.0,-317.0,-831.0,-610.0,-352.0,-557.0
-982,-1224,58,0,-779.0,-552.0,-1044.0,-831.0,-151.0,-352.0
-1152,-1360,251,0,-982.0,-779.0,-1224.0,-1044.0,58.0,-151.0
-1295,-1453,388,0,-1152.0,-982.0,-1360.0,-1224.0,251.0,58.0
-1394,-1510,451,0,-1295.0,-1152.0,-1453.0,-1360.0,388.0,251.0
-1437,-1529,447,0,-1394.0,-1295.0,-1510.0,-1453.0,451.0,388.0
-1403,-1515,372,0,-1437.0,-1394.0,-1529.0,-1510.0,447.0,451.0
-1315,-1464,249,0,-1403.0,-1437.0,-1515.0,-1529.0,372.0,447.0
-1183,-1383,98,0,-1315.0,-1403.0,-1464.0,-1515.0,249.0,372.0
-1004,-1295,-82,0,-1183.0,-1315.0,-1383.0,-1464.0,98.0,249.0
-782,-1238,-259,0,-1004.0,-1183.0,-1295.0,-1383.0,-82.0,98.0
-512,-1216,-436,0,-782.0,-1004.0,-1238.0,-1295.0,-259.0,-82.0
-215,-1230,-637,0,-512.0,-782.0,-1216.0,-1238.0,-436.0,-259.0
115,-1280,-864,0,-215.0,-512.0,-1230.0,-1216.0,-637.0,-436.0
489,-1372,-1079,0,115.0,-215.0,-1280.0,-1230.0,-864.0,-637.0
903,-1493,-1169,0,489.0,115.0,-1372.0,-1280.0,-1079.0,-864.0
1393,-1627,-1072,0,903.0,489.0,-1493.0,-1372.0,-1169.0,-1079.0
2068,-1670,-643,0,1393.0,903.0,-1627.0,-1493.0,-1072.0,-1169.0
2955,-1703,24,0,2068.0,1393.0,-1670.0,-1627.0,-643.0,-1072.0
4097,-1794,890,0,2955.0,2068.0,-1703.0,-1670.0,24.0,-643.0
5550,-1958,1907,0,4097.0,2955.0,-1794.0,-1703.0,890.0,24.0
7162,-2201,2682,0,5550.0,4097.0,-1958.0,-1794.0,1907.0,890.0
8726,-2537,2783,0,7162.0,5550.0,-2201.0,-1958.0,2682.0,1907.0
10055,-2999,2176,0,8726.0,7162.0,-2537.0,-2201.0,2783.0,2682.0
11225,-3473,1117,0,10055.0,8726.0,-2999.0,-2537.0,2176.0,2783.0
12552,-3605,-52,0,11225.0,10055.0,-3473.0,-2999.0,1117.0,2176.0
13966,-3364,-1082,0,12552.0,11225.0,-3605.0,-3473.0,-52.0,1117.0
15284,-2777,-1417,0,13966.0,12552.0,-3364.0,-3605.0,-1082.0,-52.0
16290,-1828,-817,0,15284.0,13966.0,-2777.0,-3364.0,-1417.0,-1082.0
16700,-507,428,0,16290.0,15284.0,-1828.0,-2777.0,-817.0,-1417.0
16295,930,1891,0,16700.0,16290.0,-507.0,-1828.0,428.0,-817.0
15196,1943,2970,0,16295.0,16700.0,930.0,-507.0,1891.0,428.0
13690,2360,3389,0,15196.0,16295.0,1943.0,930.0,2970.0,1891.0
12011,2285,3270,0,13690.0,15196.0,2360.0,1943.0,3389.0,2970.0
10281,1938,2873,0,12011.0,13690.0,2285.0,2360.0,3270.0,3389.0
8640,1511,2431,0,10281.0,12011.0,1938.0,2285.0,2873.0,3270.0
7125,1131,2060,0,8640.0,10281.0,1511.0,1938.0,2431.0,2873.0
5751,841,1787,0,7125.0,8640.0,1131.0,1511.0,2060.0,2431.0
4542,652,1638,0,5751.0,7125.0,841.0,1131.0,1787.0,2060.0
3515,502,1559,0,4542.0,5751.0,652.0,841.0,1638.0,1787.0
2722,316,1493,0,3515.0,4542.0,502.0,652.0,1559.0,1638.0
2218,57,1441,0,2722.0,3515.0,316.0,502.0,1493.0,1559.0
2037,-270,1429,0,2218.0,2722.0,57.0,316.0,1441.0,1493.0
2148,-659,1493,0,2037.0,2218.0,-270.0,57.0,1429.0,1441.0
2497,-1033,1635,0,2148.0,2037.0,-659.0,-270.0,1493.0,1429.0
2995,-1343,1848,0,2497.0,2148.0,-1033.0,-659.0,1635.0,1493.0
3579,-1566,2092,0,2995.0,2497.0,-1343.0,-1033.0,1848.0,1635.0
4198,-1690,2333,0,3579.0,2995.0,-1566.0,-1343.0,2092.0,1848.0
4792,-1728,2512,0,4198.0,3579.0,-1690.0,-1566.0,2333.0,2092.0
5306,-1689,2568,0,4792.0,4198.0,-1728.0,-1690.0,2512.0,2333.0
5682,-1595,2453,0,5306.0,4792.0,-1689.0,-1728.0,2568.0,2512.0
5886,-1446,2191,0,5682.0,5306.0,-1595.0,-1689.0,2453.0,2568.0
5922,-1273,1810,0,5886.0,5682.0,-1446.0,-1595.0,2191.0,2453.0
5797,-1108,1373,0,5922.0,5886.0,-1273.0,-1446.0,1810.0,2191.0
5528,-952,951,0,5797.0,5922.0,-1108.0,-1273.0,1373.0,1810.0
5148,-813,586,0,5528.0,5797.0,-952.0,-1108.0,951.0,1373.0
4689,-694,309,0,5148.0,5528.0,-813.0,-952.0,586.0,951.0
4172,-611,142,0,4689.0,5148.0,-694.0,-813.0,309.0,586.0
3610,-573,59,0,4172.0,4689.0,-611.0,-694.0,142.0,309.0
3031,-591,30,0,3610.0,4172.0,-573.0,-611.0,59.0,142.0
2434,-693,23,0,3031.0,3610.0,-591.0,-573.0,30.0,59.0
1815,-852,16,0,2434.0,3031.0,-693.0,-591.0,23.0,30.0
1192,-1021,18,0,1815.0,2434.0,-852.0,-693.0,16.0,23.0
587,-1164,20,0,1192.0,1815.0,-1021.0,-852.0,18.0,16.0
8,-1246,22,0,587.0,1192.0,-1164.0,-1021.0,20.0,18.0
-534,-1265,39,0,8.0,587.0,-1246.0,-1164.0,22.0,20.0
-1005,-1204,62,0,-534.0,8.0,-1265.0,-1246.0,39.0,22.0
-1408,-1084,87,0,-1005.0,-534.0,-1204.0,-1265.0,62.0,39.0
-1709,-906,112,0,-1408.0,-1005.0,-1084.0,-1204.0,87.0,62.0
-1895,-678,115,0,-1709.0,-1408.0,-906.0,-1084.0,112.0,87.0
-2021,-402,93,0,-1895.0,-1709.0,-678.0,-906.0,115.0,112.0
-2122,-110,51,0,-2021.0,-1895.0,-402.0,-678.0,93.0,115.0
-2211,195,4,0,-2122.0,-2021.0,-110.0,-402.0,51.0,93.0
-2304,523,-52,0,-2211.0,-2122.0,195.0,-110.0,4.0,51.0
-2387,865,-121,0,-2304.0,-2211.0,523.0,195.0,-52.0,4.0
-2455,1220,-194,0,-2387.0,-2304.0,865.0,523.0,-121.0,-52.0
-2517,1588,-262,0,-2455.0,-2387.0,1220.0,865.0,-194.0,-121.0
-2576,1952,-324,0,-2517.0,-2455.0,1588.0,1220.0,-262.0,-194.0
-2635,2301,-384,0,-2576.0,-2517.0,1952.0,1588.0,-324.0,-262.0
-2669,2605,-430,0,-2635.0,-2576.0,2301.0,1952.0,-384.0,-324.0
-2651,2837,-462,0,-2669.0,-2635.0,2605.0,2301.0,-430.0,-384.0
-2554,2965,-475,0,-2651.0,-2669.0,2837.0,2605.0,-462.0,-430.0
-2362,2973,-439,0,-2554.0,-2651.0,2965.0,2837.0,-475.0,-462.0
-2068,2863,-339,0,-2362.0,-2554.0,2973.0,2965.0,-439.0,-475.0
-1691,2645,-188,0,-2068.0,-2362.0,2863.0,2973.0,-339.0,-439.0
-1263,2334,-33,0,-1691.0,-2068.0,2645.0,2863.0,-188.0,-339.0
-822,1928,77,0,-1263.0,-1691.0,2334.0,2645.0,-33.0,-188.0
-381,1431,105,0,-822.0,-1263.0,1928.0,2334.0,77.0,-33.0
64,843,38,0,-381.0,-822.0,1431.0,1928.0,105.0,77.0
514,187,-131,0,64.0,-381.0,843.0,1431.0,38.0,105.0
985,-531,-367,0,514.0,64.0,187.0,843.0,-131.0,38.0
1496,-1286,-566,0,985.0,514.0,-531.0,187.0,-367.0,-131.0
2130,-2092,-596,0,1496.0,985.0,-1286.0,-531.0,-566.0,-367.0
3062,-2976,-221,0,2130.0,1496.0,-2092.0,-1286.0,-596.0,-566.0
4257,-3901,350,0,3062.0,2130.0,-2976.0,-2092.0,-221.0,-596.0
5393,-4890,380,0,4257.0,3062.0,-3901.0,-2976.0,350.0,-221.0
6214,-5983,-525,0,5393.0,4257.0,-4890.0,-3901.0,380.0,350.0
6920,-7204,-1927,0,6214.0,5393.0,-5983.0,-4890.0,-525.0,380.0
7712,-8470,-3460,0,6920.0,6214.0,-7204.0,-5983.0,-1927.0,-525.0
8865,-9745,-5092,0,7712.0,6920.0,-8470.0,-7204.0,-3460.0,-1927.0
10592,-11033,-6645,0,8865.0,7712.0,-9745.0,-8470.0,-5092.0,-3460.0
12538,-11847,-7577,0,10592.0,8865.0,-11033.0,-9745.0,-6645.0,-5092.0
14118,-11506,-6826,0,12538.0,10592.0,-11847.0,-11033.0,-7577.0,-6645.0
14918,-9627,-4129,0,14118.0,12538.0,-11506.0,-11847.0,-6826.0,-7577.0
15129,-6862,-497,0,14918.0,14118.0,-9627.0,-11506.0,-4129.0,-6826.0
14942,-3946,2542,0,15129.0,14918.0,-6862.0,-9627.0,-497.0,-4129.0
14308,-1628,3738,0,14942.0,15129.0,-3946.0,-6862.0,2542.0,-497.0
13274,-86,3203,0,14308.0,14942.0,-1628.0,-3946.0,3738.0,2542.0
11998,849,1817,0,13274.0,14308.0,-86.0,-1628.0,3203.0,3738.0
10695,1494,726,0,11998.0,13274.0,849.0,-86.0,1817.0,3203.0
9475,2051,381,0,10695.0,11998.0,1494.0,849.0,726.0,1817.0
8423,2482,577,0,9475.0,10695.0,2051.0,1494.0,381.0,726.0
7549,2762,957,0,8423.0,9475.0,2482.0,2051.0,577.0,381.0
6837,2899,1260,0,7549.0,8423.0,2762.0,2482.0,957.0,577.0
6266,2908,1417,0,6837.0,7549.0,2899.0,2762.0,1260.0,957.0
5842,2821,1507,0,6266.0,6837.0,2908.0,2899.0,1417.0,1260.0
5598,2681,1636,0,5842.0,6266.0,2821.0,2908.0,1507.0,1417.0
5496,2548,1889,0,5598.0,5842.0,2681.0,2821.0,1636.0,1507.0
5495,2438,2193,0,5496.0,5598.0,2548.0,2681.0,1889.0,1636.0
5556,2323,2410,0,5495.0,5496.0,2438.0,2548.0,2193.0,1889.0
5618,2186,2410,0,5556.0,5495.0,2323.0,2438.0,2410.0,2193.0
5645,2008,2174,0,5618.0,5556.0,2186.0,2323.0,2410.0,2410.0
5626,1763,1780,0,5645.0,5618.0,2008.0,2186.0,2174.0,2410.0
5560,1471,1334,0,5626.0,5645.0,1763.0,2008.0,1780.0,2174.0
5461,1164,915,0,5560.0,5626.0,1471.0,1763.0,1334.0,1780.0
5337,870,581,0,5461.0,5560.0,1164.0,1471.0,915.0,1334.0
5192,610,341,0,5337.0,5461.0,870.0,1164.0,581.0,915.0
5033,394,201,0,5192.0,5337.0,610.0,870.0,341.0,581.0
4865,218,143,0,5033.0,5192.0,394.0,610.0,201.0,341.0
4696,86,162,0,4865.0,5033.0,218.0,394.0,143.0,201.0
4529,-28,215,0,4696.0,4865.0,86.0,218.0,162.0,143.0
4364,-142,279,0,4529.0,4696.0,-28.0,86.0,215.0,162.0
4205,-260,332,0,4364.0,4529.0,-142.0,-28.0,279.0,215.0
4035,-402,362,0,4205.0,4364.0,-260.0,-142.0,332.0,279.0
3864,-564,337,0,4035.0,4205.0,-402.0,-260.0,362.0,332.0
3672,-746,244,0,3864.0,4035.0,-564.0,-402.0,337.0,362.0
3469,-935,111,0,3672.0,3864.0,-746.0,-564.0,244.0,337.0
3266,-1103,-44,0,3469.0,3672.0,-935.0,-746.0,111.0,244.0
3064,-1246,-161,0,3266.0,3469.0,-1103.0,-935.0,-44.0,111.0
2849,-1375,-211,0,3064.0,3266.0,-1246.0,-1103.0,-161.0,-44.0
2621,-1484,-204,0,2849.0,3064.0,-1375.0,-1246.0,-211.0,-161.0
2394,-1564,-203,0,2621.0,2849.0,-1484.0,-1375.0,-204.0,-211.0
2178,-1625,-207,0,2394.0,2621.0,-1564.0,-1484.0,-203.0,-204.0
1971,-1678,-228,0,2178.0,2394.0,-1625.0,-1564.0,-207.0,-203.0
1765,-1723,-261,0,1971.0,2178.0,-1678.0,-1625.0,-228.0,-207.0
1551,-1762,-294,0,1765.0,1971.0,-1723.0,-1678.0,-261.0,-228.0
1332,-1803,-323,0,1551.0,1765.0,-1762.0,-1723.0,-294.0,-261.0
1095,-1848,-355,0,1332.0,1551.0,-1803.0,-1762.0,-323.0,-294.0
826,-1912,-383,0,1095.0,1332.0,-1848.0,-1803.0,-355.0,-323.0
539,-1994,-402,0,826.0,1095.0,-1912.0,-1848.0,-383.0,-355.0
257,-2095,-403,0,539.0,826.0,-1994.0,-1912.0,-402.0,-383.0
-31,-2220,-371,0,257.0,539.0,-2095.0,-1994.0,-403.0,-402.0
-313,-2367,-295,0,-31.0,257.0,-2220.0,-2095.0,-371.0,-403.0
-578,-2526,-197,0,-313.0,-31.0,-2367.0,-2220.0,-295.0,-371.0
-816,-2692,-98,0,-578.0,-313.0,-2526.0,-2367.0,-197.0,-295.0
-997,-2836,-40,0,-816.0,-578.0,-2692.0,-2526.0,-98.0,-197.0
-1106,-2924,-50,0,-997.0,-816.0,-2836.0,-2692.0,-40.0,-98.0
-1141,-2926,-142,0,-1106.0,-997.0,-2924.0,-2836.0,-50.0,-40.0
-1115,-2842,-314,0,-1141.0,-1106.0,-2926.0,-2924.0,-142.0,-50.0
-1042,-2684,-535,0,-1115.0,-1141.0,-2842.0,-2926.0,-314.0,-142.0
-943,-2465,-789,0,-1042.0,-1115.0,-2684.0,-2842.0,-535.0,-314.0
-825,-2186,-1030,0,-943.0,-1042.0,-2465.0,-2684.0,-789.0,-535.0
-676,-1860,-1238,0,-825.0,-943.0,-2186.0,-2465.0,-1030.0,-789.0
739,-4682,-2088,0,-676.0,-825.0,-1860.0,-2186.0,-1238.0,-1030.0
126,-1502,138,0,739.0,-676.0,-4682.0,-1860.0,-2088.0,-1238.0
145,-422,-303,0,126.0,739.0,-1502.0,-4682.0,138.0,-2088.0
440,-426,-797,0,145.0,126.0,-422.0,-1502.0,-303.0,138.0
619,-175,-1263,0,440.0,145.0,-426.0,-422.0,-797.0,-303.0
772,35,-1569,0,619.0,440.0,-175.0,-426.0,-1263.0,-797.0
959,136,-1793,0,772.0,619.0,35.0,-175.0,-1569.0,-1263.0
1206,93,-1966,0,959.0,772.0,136.0,35.0,-1793.0,-1569.0
1630,9,-1781,0,1206.0,959.0,93.0,136.0,-1966.0,-1793.0
2334,-163,-1184,0,1630.0,1206.0,9.0,93.0,-1781.0,-1966.0
3392,-420,-307,0,2334.0,1630.0,-163.0,9.0,-1184.0,-1781.0
4844,-733,611,0,3392.0,2334.0,-420.0,-163.0,-307.0,-1184.0
6568,-1080,1251,0,4844.0,3392.0,-733.0,-420.0,611.0,-307.0
8343,-1501,1311,0,6568.0,4844.0,-1080.0,-733.0,1251.0,611.0
10001,-2107,815,0,8343.0,6568.0,-1501.0,-1080.0,1311.0,1251.0
11468,-2809,7,0,10001.0,8343.0,-2107.0,-1501.0,815.0,1311.0
12960,-3566,-783,0,11468.0,10001.0,-2809.0,-2107.0,7.0,815.0
14435,-4492,-1511,0,12960.0,11468.0,-3566.0,-2809.0,-783.0,7.0
15667,-5395,-2323,0,14435.0,12960.0,-4492.0,-3566.0,-1511.0,-783.0
16518,-6076,-3002,0,15667.0,14435.0,-5395.0,-4492.0,-2323.0,-1511.0
16838,-6349,-3223,0,16518.0,15667.0,-6076.0,-5395.0,-3002.0,-2323.0
16450,-6045,-2611,0,16838.0,16518.0,-6349.0,-6076.0,-3223.0,-3002.0
15359,-5220,-1118,0,16450.0,16838.0,-6045.0,-6349.0,-2611.0,-3223.0
13860,-4241,631,0,15359.0,16450.0,-5220.0,-6045.0,-1118.0,-2611.0
12185,-3285,2064,0,13860.0,15359.0,-4241.0,-5220.0,631.0,-1118.0
10507,-2439,2929,0,12185.0,13860.0,-3285.0,-4241.0,2064.0,631.0
8904,-1687,3210,0,10507.0,12185.0,-2439.0,-3285.0,2929.0,2064.0
7438,-1026,3167,0,8904.0,10507.0,-1687.0,-2439.0,3210.0,2929.0
6139,-455,2953,0,7438.0,8904.0,-1026.0,-1687.0,3167.0,3210.0
5024,5,2575,0,6139.0,7438.0,-455.0,-1026.0,2953.0,3167.0
4082,352,2074,0,5024.0,6139.0,5.0,-455.0,2575.0,2953.0
3333,578,1492,0,4082.0,5024.0,352.0,5.0,2074.0,2575.0
2768,694,906,0,3333.0,4082.0,578.0,352.0,1492.0,2074.0
2365,726,438,0,2768.0,3333.0,694.0,578.0,906.0,1492.0
2117,678,152,0,2365.0,2768.0,726.0,694.0,438.0,906.0
2034,547,77,0,2117.0,2365.0,678.0,726.0,152.0,438.0
2116,337,189,0,2034.0,2117.0,547.0,678.0,77.0,152.0
2316,82,404,0,2116.0,2034.0,337.0,547.0,189.0,77.0
2572,-197,637,0,2316.0,2116.0,82.0,337.0,404.0,189.0
2826,-465,835,0,2572.0,2316.0,-197.0,82.0,637.0,404.0
3028,-683,958,0,2826.0,2572.0,-465.0,-197.0,835.0,637.0
3155,-831,979,0,3028.0,2826.0,-683.0,-465.0,958.0,835.0
3195,-913,896,0,3155.0,3028.0,-831.0,-683.0,979.0,958.0
3152,-944,729,0,3195.0,3155.0,-913.0,-831.0,896.0,979.0
3022,-951,470,0,3152.0,3195.0,-944.0,-913.0,729.0,896.0
2825,-942,165,0,3022.0,3152.0,-951.0,-944.0,470.0,729.0
2593,-941,-156,0,2825.0,3022.0,-942.0,-951.0,165.0,470.0
2317,-915,-431,0,2593.0,2825.0,-941.0,-942.0,-156.0,165.0
2022,-882,-633,0,2317.0,2593.0,-915.0,-941.0,-431.0,-156.0
1722,-869,-749,0,2022.0,2317.0,-882.0,-915.0,-633.0,-431.0
1411,-847,-791,0,1722.0,2022.0,-869.0,-882.0,-749.0,-633.0
1098,-822,-762,0,1411.0,1722.0,-847.0,-869.0,-791.0,-749.0
771,-778,-685,0,1098.0,1411.0,-822.0,-847.0,-762.0,-791.0
407,-722,-557,0,771.0,1098.0,-778.0,-822.0,-685.0,-762.0
-1,-638,-389,0,407.0,771.0,-722.0,-778.0,-557.0,-685.0
-455,-524,-189,0,-1.0,407.0,-638.0,-722.0,-389.0,-557.0
-942,-366,26,0,-455.0,-1.0,-524.0,-638.0,-189.0,-389.0
-1433,-173,226,0,-942.0,-455.0,-366.0,-524.0,26.0,-189.0
-1877,74,394,0,-1433.0,-942.0,-173.0,-366.0,226.0,26.0
-2275,373,502,0,-1877.0,-1433.0,74.0,-173.0,394.0,226.0
-2604,698,512,0,-2275.0,-1877.0,373.0,74.0,502.0,394.0
-2889,1050,436,0,-2604.0,-2275.0,698.0,373.0,512.0,502.0
-3127,1416,301,0,-2889.0,-2604.0,1050.0,698.0,436.0,512.0
-3307,1788,124,0,-3127.0,-2889.0,1416.0,1050.0,301.0,436.0
-3411,2142,-95,0,-3307.0,-3127.0,1788.0,1416.0,124.0,301.0
-3444,2462,-322,0,-3411.0,-3307.0,2142.0,1788.0,-95.0,124.0
-3388,2717,-561,0,-3444.0,-3411.0,2462.0,2142.0,-322.0,-95.0
-3229,2859,-806,0,-3388.0,-3444.0,2717.0,2462.0,-561.0,-322.0
-2952,2867,-1007,0,-3229.0,-3388.0,2859.0,2717.0,-806.0,-561.0
-2595,2758,-1139,0,-2952.0,-3229.0,2867.0,2859.0,-1007.0,-806.0
-2184,2548,-1196,0,-2595.0,-2952.0,2758.0,2867.0,-1139.0,-1007.0
-1715,2257,-1135,0,-2184.0,-2595.0,2548.0,2758.0,-1196.0,-1139.0
-1200,1901,-967,0,-1715.0,-2184.0,2257.0,2548.0,-1135.0,-1196.0
-642,1475,-723,0,-1200.0,-1715.0,1901.0,2257.0,-967.0,-1135.0
-60,980,-491,0,-642.0,-1200.0,1475.0,1901.0,-723.0,-967.0
533,391,-337,0,-60.0,-642.0,980.0,1475.0,-491.0,-723.0
1168,-297,-226,0,533.0,-60.0,391.0,980.0,-337.0,-491.0
2066,-1101,270,0,1168.0,533.0,-297.0,391.0,-226.0,-337.0
3607,-2004,1714,0,2066.0,1168.0,-1101.0,-297.0,270.0,-226.0
5845,-3001,3588,0,3607.0,2066.0,-2004.0,-1101.0,1714.0,270.0
7576,-4104,3662,0,5845.0,3607.0,-3001.0,-2004.0,3588.0,1714.0
8135,-5428,1049,0,7576.0,5845.0,-4104.0,-3001.0,3662.0,3588.0
8447,-7048,-2335,0,8135.0,7576.0,-5428.0,-4104.0,1049.0,3662.0
9305,-8623,-5427,0,8447.0,8135.0,-7048.0,-5428.0,-2335.0,1049.0
10976,-10150,-8505,0,9305.0,8447.0,-8623.0,-7048.0,-5427.0,-2335.0
13258,-11227,-11120,0,10976.0,9305.0,-10150.0,-8623.0,-8505.0,-5427.0
15530,-11186,-12114,0,13258.0,10976.0,-11227.0,-10150.0,-11120.0,-8505.0
17169,-9474,-10084,0,15530.0,13258.0,-11186.0,-11227.0,-12114.0,-11120.0
18217,-6248,-4897,0,17169.0,15530.0,-9474.0,-11186.0,-10084.0,-12114.0
18584,-2565,860,0,18217.0,17169.0,-6248.0,-9474.0,-4897.0,-10084.0
18137,534,4296,0,18584.0,18217.0,-2565.0,-6248.0,860.0,-4897.0
16968,2303,4492,0,18137.0,18584.0,534.0,-2565.0,4296.0,860.0
15351,2875,2814,0,16968.0,18137.0,2303.0,534.0,4492.0,4296.0
13573,2655,1206,0,15351.0,16968.0,2875.0,2303.0,2814.0,4492.0
11651,2028,397,0,13573.0,15351.0,2655.0,2875.0,1206.0,2814.0
9653,1492,540,0,11651.0,13573.0,2028.0,2655.0,397.0,1206.0
7744,1150,1204,0,9653.0,11651.0,1492.0,2028.0,540.0,397.0
6010,975,2074,0,7744.0,9653.0,1150.0,1492.0,1204.0,540.0
4537,883,2691,0,6010.0,7744.0,975.0,1150.0,2074.0,1204.0
3408,762,2715,0,4537.0,6010.0,883.0,975.0,2691.0,2074.0
2683,577,2308,0,3408.0,4537.0,762.0,883.0,2715.0,2691.0
2340,345,1744,0,2683.0,3408.0,577.0,762.0,2308.0,2715.0
2307,162,1243,0,2340.0,2683.0,345.0,577.0,1744.0,2308.0
2489,82,962,0,2307.0,2340.0,162.0,345.0,1243.0,1744.0
2783,147,941,0,2489.0,2307.0,82.0,162.0,962.0,1243.0
3149,351,1113,0,2783.0,2489.0,147.0,82.0,941.0,962.0
3536,663,1358,0,3149.0,2783.0,351.0,147.0,1113.0,941.0
3922,1028,1626,0,3536.0,3149.0,663.0,351.0,1358.0,1113.0
4266,1361,1721,0,3922.0,3536.0,1028.0,663.0,1626.0,1358.0
4521,1577,1531,0,4266.0,3922.0,1361.0,1028.0,1721.0,1626.0
4681,1666,1105,0,4521.0,4266.0,1577.0,1361.0,1531.0,1721.0
4757,1634,559,0,4681.0,4521.0,1666.0,1577.0,1105.0,1531.0
4761,1524,0,0,4757.0,4681.0,1634.0,1666.0,559.0,1105.0
4699,1360,-498,0,4761.0,4757.0,1524.0,1634.0,0.0,559.0
4589,1154,-899,0,4699.0,4761.0,1360.0,1524.0,-498.0,0.0
4446,921,-1162,0,4589.0,4699.0,1154.0,1360.0,-899.0,-498.0
4260,671,-1293,0,4446.0,4589.0,921.0,1154.0,-1162.0,-899.0
4035,411,-1331,0,4260.0,4446.0,671.0,921.0,-1293.0,-1162.0
3763,147,-1319,0,4035.0,4260.0,411.0,671.0,-1331.0,-1293.0
3462,-119,-1296,0,3763.0,4035.0,147.0,411.0,-1319.0,-1331.0
3139,-374,-1261,0,3462.0,3763.0,-119.0,147.0,-1296.0,-1319.0
2808,-617,-1217,0,3139.0,3462.0,-374.0,-119.0,-1261.0,-1296.0
2480,-817,-1144,0,2808.0,3139.0,-617.0,-374.0,-1217.0,-1261.0
2171,-986,-1036,0,2480.0,2808.0,-817.0,-617.0,-1144.0,-1217.0
1874,-1147,-903,0,2171.0,2480.0,-986.0,-817.0,-1036.0,-1144.0
1587,-1290,-741,0,1874.0,2171.0,-1147.0,-986.0,-903.0,-1036.0
1309,-1451,-558,0,1587.0,1874.0,-1290.0,-1147.0,-741.0,-903.0
1058,-1646,-407,0,1309.0,1587.0,-1451.0,-1290.0,-558.0,-741.0
827,-1856,-326,0,1058.0,1309.0,-1646.0,-1451.0,-407.0,-558.0
619,-2091,-294,0,827.0,1058.0,-1856.0,-1646.0,-326.0,-407.0
432,-2344,-285,0,619.0,827.0,-2091.0,-1856.0,-294.0,-326.0
242,-2615,-279,0,432.0,619.0,-2344.0,-2091.0,-285.0,-294.0
47,-2902,-297,0,242.0,432.0,-2615.0,-2344.0,-279.0,-285.0
-152,-3203,-330,0,47.0,242.0,-2902.0,-2615.0,-297.0,-279.0
-341,-3494,-374,0,-152.0,47.0,-3203.0,-2902.0,-330.0,-297.0
-523,-3748,-415,0,-341.0,-152.0,-3494.0,-3203.0,-374.0,-330.0
-712,-3950,-442,0,-523.0,-341.0,-3748.0,-3494.0,-415.0,-374.0
-895,-4096,-439,0,-712.0,-523.0,-3950.0,-3748.0,-442.0,-415.0
-1059,-4149,-446,0,-895.0,-712.0,-4096.0,-3950.0,-439.0,-442.0
-1182,-4092,-478,0,-1059.0,-895.0,-4149.0,-4096.0,-446.0,-439.0
-1259,-3908,-545,0,-1182.0,-1059.0,-4092.0,-4149.0,-478.0,-446.0
-1260,-3622,-669,0,-1259.0,-1182.0,-3908.0,-4092.0,-545.0,-478.0
-1164,-3297,-851,0,-1260.0,-1259.0,-3622.0,-3908.0,-669.0,-545.0
-990,-2957,-1044,0,-1164.0,-1260.0,-3297.0,-3622.0,-851.0,-669.0
-778,-2610,-1202,0,-990.0,-1164.0,-2957.0,-3297.0,-1044.0,-851.0
-563,-2256,-1315,0,-778.0,-990.0,-2610.0,-2957.0,-1202.0,-1044.0
-367,-1893,-1383,0,-563.0,-778.0,-2256.0,-2610.0,-1315.0,-1202.0
-192,-1530,-1455,0,-367.0,-563.0,-1893.0,-2256.0,-1383.0,-1315.0
-29,-1200,-1543,0,-192.0,-367.0,-1530.0,-1893.0,-1455.0,-1383.0
134,-946,-1644,0,-29.0,-192.0,-1200.0,-1530.0,-1543.0,-1455.0
301,-814,-1798,0,134.0,-29.0,-946.0,-1200.0,-1644.0,-1543.0
508,-815,-2006,0,301.0,134.0,-814.0,-946.0,-1798.0,-1644.0
798,-925,-2166,0,508.0,301.0,-815.0,-814.0,-2006.0,-1798.0
1276,-1135,-2019,0,798.0,508.0,-925.0,-815.0,-2166.0,-2006.0
2044,-1309,-1443,0,1276.0,798.0,-1135.0,-925.0,-2019.0,-2166.0
3264,-1416,-340,0,2044.0,1276.0,-1309.0,-1135.0,-1443.0,-2019.0
5006,-1573,982,0,3264.0,2044.0,-1416.0,-1309.0,-340.0,-1443.0
7070,-1782,1962,0,5006.0,3264.0,-1573.0,-1416.0,982.0,-340.0
9085,-2132,2019,0,7070.0,5006.0,-1782.0,-1573.0,1962.0,982.0
10869,-2666,1423,0,9085.0,7070.0,-2132.0,-1782.0,2019.0,1962.0
12457,-3243,576,0,10869.0,9085.0,-2666.0,-2132.0,1423.0,2019.0
14026,-3812,-224,0,12457.0,10869.0,-3243.0,-2666.0,576.0,1423.0
15498,-4362,-1085,0,14026.0,12457.0,-3812.0,-3243.0,-224.0,576.0
16684,-4773,-1988,0,15498.0,14026.0,-4362.0,-3812.0,-1085.0,-224.0
17348,-4850,-2695,0,16684.0,15498.0,-4773.0,-4362.0,-1988.0,-1085.0
17315,-4390,-2836,0,17348.0,16684.0,-4850.0,-4773.0,-2695.0,-1988.0
16431,-3255,-1961,0,17315.0,17348.0,-4390.0,-4850.0,-2836.0,-2695.0
14901,-1989,-393,0,16431.0,17315.0,-3255.0,-4390.0,-1961.0,-2836.0
13123,-969,1188,0,14901.0,16431.0,-1989.0,-3255.0,-393.0,-1961.0
11358,-320,2366,0,13123.0,14901.0,-969.0,-1989.0,1188.0,-393.0
9729,32,2994,0,11358.0,13123.0,-320.0,-969.0,2366.0,1188.0
8249,218,3215,0,9729.0,11358.0,32.0,-320.0,2994.0,2366.0
6940,366,3171,0,8249.0,9729.0,218.0,32.0,3215.0,2994.0
5778,548,2970,0,6940.0,8249.0,366.0,218.0,3171.0,3215.0
4770,737,2612,0,5778.0,6940.0,548.0,366.0,2970.0,3171.0
3929,907,2087,0,4770.0,5778.0,737.0,548.0,2612.0,2970.0
3254,1045,1484,0,3929.0,4770.0,907.0,737.0,2087.0,2612.0
2754,1144,942,0,3254.0,3929.0,1045.0,907.0,1484.0,2087.0
2429,1197,561,0,2754.0,3254.0,1144.0,1045.0,942.0,1484.0
2281,1170,364,0,2429.0,2754.0,1197.0,1144.0,561.0,942.0
2287,1041,339,0,2281.0,2429.0,1170.0,1197.0,364.0,561.0
2415,825,451,0,2287.0,2281.0,1041.0,1170.0,339.0,364.0
2600,559,661,0,2415.0,2287.0,825.0,1041.0,451.0,339.0
2781,280,908,0,2600.0,2415.0,559.0,825.0,661.0,451.0
2916,30,1109,0,2781.0,2600.0,280.0,559.0,908.0,661.0
2974,-181,1214,0,2916.0,2781.0,30.0,280.0,1109.0,908.0
2947,-347,1210,0,2974.0,2916.0,-181.0,30.0,1214.0,1109.0
2838,-483,1112,0,2947.0,2974.0,-347.0,-181.0,1210.0,1214.0
2653,-582,935,0,2838.0,2947.0,-483.0,-347.0,1112.0,1210.0
2422,-655,685,0,2653.0,2838.0,-582.0,-483.0,935.0,1112.0
2164,-697,405,0,2422.0,2653.0,-655.0,-582.0,685.0,935.0
1901,-718,134,0,2164.0,2422.0,-697.0,-655.0,405.0,685.0
1619,-711,-111,0,1901.0,2164.0,-718.0,-697.0,134.0,405.0
1331,-678,-297,0,1619.0,1901.0,-711.0,-718.0,-111.0,134.0
1033,-634,-411,0,1331.0,1619.0,-678.0,-711.0,-297.0,-111.0
727,-581,-478,0,1033.0,1331.0,-634.0,-678.0,-411.0,-297.0
405,-515,-491,0,727.0,1033.0,-581.0,-634.0,-478.0,-411.0
78,-432,-458,0,405.0,727.0,-515.0,-581.0,-491.0,-478.0
-295,-341,-390,0,78.0,405.0,-432.0,-515.0,-458.0,-491.0
-707,-245,-279,0,-295.0,78.0,-341.0,-432.0,-390.0,-458.0
-1145,-130,-139,0,-707.0,-295.0,-245.0,-341.0,-279.0,-390.0
-1587,12,-16,0,-1145.0,-707.0,-130.0,-245.0,-139.0,-279.0
-2015,163,80,0,-1587.0,-1145.0,12.0,-130.0,-16.0,-139.0
-2425,340,125,0,-2015.0,-1587.0,163.0,12.0,80.0,-16.0
-2791,532,114,0,-2425.0,-2015.0,340.0,163.0,125.0,80.0
-3104,740,58,0,-2791.0,-2425.0,532.0,340.0,114.0,125.0
-3340,966,-58,0,-3104.0,-2791.0,740.0,532.0,58.0,114.0
-3503,1199,-207,0,-3340.0,-3104.0,966.0,740.0,-58.0,58.0
-3579,1436,-391,0,-3503.0,-3340.0,1199.0,966.0,-207.0,-58.0
-3557,1663,-611,0,-3579.0,-3503.0,1436.0,1199.0,-391.0,-207.0
-3413,1824,-870,0,-3557.0,-3579.0,1663.0,1436.0,-611.0,-391.0
-3150,1883,-1160,0,-3413.0,-3557.0,1824.0,1663.0,-870.0,-611.0
-2813,1844,-1444,0,-3150.0,-3413.0,1883.0,1824.0,-1160.0,-870.0
-2436,1718,-1689,0,-2813.0,-3150.0,1844.0,1883.0,-1444.0,-1160.0
-2041,1528,-1849,0,-2436.0,-2813.0,1718.0,1844.0,-1689.0,-1444.0
-1617,1285,-1882,0,-2041.0,-2436.0,1528.0,1718.0,-1849.0,-1689.0
-1145,994,-1736,0,-1617.0,-2041.0,1285.0,1528.0,-1882.0,-1849.0
-590,690,-1343,0,-1145.0,-1617.0,994.0,1285.0,-1736.0,-1882.0
59,369,-769,0,-590.0,-1145.0,690.0,994.0,-1343.0,-1736.0
