accelerometer_x,accelerometer_y,accelerometer_z,fall
3775,1063,822,0
3779,1069,817,0
3787,1073,812,0
3793,1078,808,0
3802,1084,804,0
3807,1089,804,0
3806,1092,806,0
3800,1089,810,0
3792,1083,820,0
3790,1072,825,0
3787,1069,829,0
3785,1061,827,0
3778,1055,826,0
3769,1049,821,0
3764,1037,815,0
3763,1031,810,0
3759,1028,808,0
3755,1027,808,0
3758,1030,807,0
3760,1034,806,0
3765,1038,806,0
3769,1043,804,0
3777,1048,804,0
3781,1054,805,0
3783,1060,807,0
3785,1067,805,0
3787,1074,805,0
3786,1080,813,0
3784,1085,819,0
3781,1087,823,0
3777,1089,827,0
3775,1089,829,0
3771,1087,828,0
3767,1092,823,0
3764,1094,821,0
3762,1092,813,0
3761,1091,808,0
3762,1093,807,0
3762,1094,808,0
3761,1099,812,0
3765,1102,811,0
3766,1098,815,0
3774,1102,818,0
3778,1101,819,0
3782,1102,821,0
3783,1106,824,0
3783,1103,824,0
3782,1101,828,0
3783,1102,828,0
3777,1101,826,0
3769,1104,822,0
3763,1104,823,0
3754,1099,824,0
3752,1095,822,0
3750,1097,824,0
3754,1095,823,0
3756,1098,820,0
3759,1097,823,0
3761,1096,828,0
3758,1099,837,0
3757,1096,839,0
3756,1098,841,0
3758,1101,834,0
3757,1104,836,0
3763,1111,831,0
3776,1112,824,0
3779,1118,820,0
3779,1121,820,0
3772,1127,819,0
3764,1123,819,0
3758,1121,822,0
3746,1120,823,0
3734,1112,823,0
3727,1110,823,0
3725,1104,825,0
3734,1102,831,0
3743,1107,831,0
3751,1112,830,0
3755,1117,828,0
3762,1119,823,0
3762,1116,823,0
3760,1117,823,0
3762,1116,828,0
3766,1112,836,0
3772,1113,839,0
3770,1115,840,0
3767,1116,843,0
3761,1120,839,0
3759,1121,843,0
3757,1127,843,0
3754,1130,842,0
3758,1135,843,0
3765,1143,844,0
3768,1146,841,0
3770,1144,841,0
3769,1143,835,0
3764,1140,829,0
3762,1138,833,0
3759,1136,836,0
3756,1134,837,0
3753,1132,840,0
3746,1128,839,0
3743,1126,840,0
3739,1124,840,0
3734,1118,834,0
3735,1113,831,0
3739,1110,835,0
3746,1107,839,0
3756,1110,840,0
3766,1110,842,0
3776,1112,844,0
3779,1113,849,0
3781,1114,849,0
3777,1116,851,0
3769,1115,845,0
3758,1115,835,0
3753,1120,830,0
3742,1120,827,0
3734,1119,832,0
3732,1121,835,0
3730,1125,837,0
3733,1125,839,0
3742,1124,837,0
3750,1125,834,0
3759,1126,837,0
3765,1130,837,0
3774,1130,832,0
3779,1127,834,0
3783,1127,843,0
3791,1124,850,0
3797,1121,853,0
3796,1115,849,0
3792,1112,842,0
3781,1112,832,0
3776,1111,826,0
3767,1109,828,0
3761,1110,826,0
3760,1115,827,0
3760,1120,833,0
3762,1128,834,0
3765,1140,833,0
3762,1152,836,0
3759,1160,834,0
3756,1165,831,0
3753,1166,832,0
3747,1165,835,0
3735,1160,833,0
3726,1158,835,0
3716,1154,831,0
3716,1147,832,0
3717,1146,835,0
3716,1148,836,0
3721,1151,839,0
3723,1159,836,0
3728,1160,828,0
3732,1163,824,0
3731,1170,831,0
3733,1174,832,0
3738,1174,833,0
3743,1170,832,0
3744,1165,832,0
3748,1162,832,0
3749,1159,834,0
3751,1156,835,0
3756,1155,837,0
3765,1155,838,0
3771,1153,842,0
3779,1151,846,0
3781,1152,845,0
3782,1150,846,0
3776,1150,843,0
3766,1151,845,0
3757,1151,848,0
3751,1151,852,0
3745,1148,849,0
3738,1141,851,0
3733,1132,850,0
3737,1132,849,0
3743,1131,843,0
3748,1131,843,0
3750,1133,840,0
3750,1135,837,0
3751,1135,838,0
3753,1136,836,0
3754,1134,834,0
3757,1133,838,0
3762,1133,839,0
3768,1133,840,0
3770,1137,840,0
3764,1140,843,0
3757,1138,844,0
3752,1138,838,0
3746,1135,842,0
3747,1135,842,0
3741,1136,843,0
3738,1135,847,0
3740,1129,845,0
3737,1126,840,0
3731,1124,838,0
3731,1124,831,0
3738,1128,835,0
3736,1130,835,0
3739,1132,834,0
3745,1132,833,0
3747,1129,838,0
3748,1129,841,0
3753,1128,848,0
3754,1131,852,0
3759,1135,853,0
3762,1141,851,0
3762,1145,848,0
3761,1149,845,0
3759,1148,847,0
3756,1154,845,0
3748,1158,846,0
3746,1159,846,0
3746,1160,843,0
3745,1159,844,0
3741,1157,845,0
3743,1155,849,0
3746,1156,849,0
3748,1153,853,0
3747,1146,853,0
3748,1141,856,0
3746,1139,858,0
3744,1133,856,0
3744,1132,857,0
3744,1128,853,0
3745,1130,848,0
3749,1135,845,0
3750,1134,843,0
3748,1132,845,0
3751,1135,845,0
3755,1141,843,0
3759,1142,849,0
3762,1149,853,0
3760,1153,853,0
3761,1156,849,0
3757,1157,851,0
3756,1157,852,0
3750,1158,855,0
3741,1157,859,0
3738,1158,861,0
3734,1158,861,0
3727,1152,862,0
3720,1147,859,0
3722,1142,858,0
3731,1138,859,0
3734,1136,859,0
3738,1135,857,0
3739,1136,856,0
3742,1136,853,0
3744,1139,846,0
3744,1139,842,0
3747,1139,842,0
3749,1137,839,0
3756,1141,840,0
3756,1145,847,0
3756,1145,850,0
3755,1146,847,0
3749,1145,847,0
3750,1146,850,0
3752,1144,849,0
3755,1146,849,0
3755,1145,850,0
3753,1145,846,0
3755,1144,842,0
3757,1145,839,0
3760,1147,839,0
3766,1150,838,0
3773,1152,834,0
3769,1149,832,0
3768,1148,828,0
3765,1150,828,0
3758,1154,833,0
3751,1154,837,0
3741,1153,836,0
3731,1149,838,0
3725,1142,838,0
3723,1136,839,0
3721,1137,839,0
3722,1137,842,0
3726,1131,848,0
3728,1133,849,0
3734,1138,845,0
3735,1142,841,0
3744,1143,836,0
3748,1145,831,0
3752,1151,826,0
3752,1153,824,0
3751,1160,830,0
3747,1161,835,0
3747,1161,832,0
3751,1155,830,0
3757,1152,834,0
3764,1156,842,0
3766,1157,842,0
3763,1158,843,0
3757,1157,842,0
3753,1159,840,0
3750,1154,838,0
3749,1156,841,0
3740,1156,843,0
3743,1161,845,0
3746,1162,840,0
3745,1161,838,0
3745,1163,838,0
3744,1160,841,0
3745,1162,845,0
3747,1162,848,0
3743,1168,850,0
3747,1173,847,0
3743,1162,846,0
3740,1151,838,0
3735,1146,834,0
3733,1145,833,0
3731,1146,833,0
3738,1146,833,0
3745,1144,835,0
3751,1143,833,0
3757,1145,835,0
3760,1142,833,0
3762,1137,829,0
3764,1132,831,0
3760,1122,830,0
3756,1106,826,0
3753,1100,825,0
3753,1099,832,0
3754,1106,835,0
3758,1107,838,0
3768,1115,841,0
3779,1120,846,0
3781,1124,848,0
3781,1126,841,0
3774,1131,836,0
3763,1125,832,0
3757,1120,833,0
3752,1119,835,0
3750,1116,840,0
3748,1115,844,0
3749,1113,838,0
3748,1114,836,0
3753,1114,831,0
3757,1114,828,0
3755,1115,830,0
3756,1109,839,0
3756,1111,843,0
3752,1114,840,0
3753,1115,837,0
3752,1114,838,0
3757,1115,839,0
3761,1117,837,0
3771,1121,838,0
3770,1124,839,0
3770,1127,840,0
3770,1125,835,0
3771,1133,839,0
3778,1133,844,0
3773,1140,844,0
3763,1142,839,0
3755,1143,841,0
3745,1141,840,0
3735,1141,839,0
3737,1141,840,0
3739,1135,841,0
3746,1139,844,0
3751,1133,845,0
3755,1133,842,0
3758,1134,838,0
3757,1130,837,0
3753,1127,835,0
3747,1125,835,0
3746,1126,837,0
3746,1127,841,0
3753,1128,842,0
3755,1131,844,0
3756,1132,844,0
3758,1130,838,0
3763,1132,834,0
3767,1130,835,0
3766,1135,837,0
3763,1138,838,0
3763,1140,839,0
3764,1136,839,0
3763,1136,839,0
3769,1135,839,0
3766,1122,837,0
3763,1116,834,0
3757,1120,831,0
3750,1124,833,0
3749,1127,839,0
3749,1131,840,0
3750,1131,839,0
3754,1131,838,0
3756,1130,837,0
3757,1133,834,0
3754,1134,833,0
3756,1137,833,0
3761,1135,834,0
3762,1136,834,0
3761,1140,832,0
3762,1142,830,0
3761,1145,827,0
3756,1147,827,0
3753,1147,827,0
3750,1148,829,0
3749,1147,829,0
3745,1147,834,0
3745,1148,838,0
3739,1148,845,0
3733,1141,847,0
3720,1136,847,0
3718,1130,852,0
3720,1131,852,0
3726,1131,848,0
3741,1139,838,0
3754,1146,831,0
3763,1149,828,0
3767,1154,822,0
3766,1158,822,0
3760,1161,827,0
3756,1160,825,0
3753,1160,825,0
3752,1158,824,0
3755,1159,822,0
3759,1164,822,0
3756,1165,823,0
3755,1166,818,0
3754,1169,819,0
3753,1159,814,0
3755,1151,811,0
3754,1151,819,0
3754,1151,826,0
3760,1156,829,0
3759,1157,828,0
3758,1158,832,0
3755,1153,829,0
3758,1154,831,0
3759,1152,829,0
3762,1150,827,0
3764,1141,827,0
3764,1144,829,0
3765,1144,833,0
3762,1141,834,0
3758,1140,832,0
3757,1135,828,0
3760,1133,827,0
3757,1133,826,0
3757,1135,825,0
3760,1134,825,0
3759,1136,825,0
3760,1133,827,0
3760,1128,824,0
3760,1127,827,0
3753,1124,833,0
3744,1120,839,0
3734,1112,837,0
3734,1114,836,0
3738,1119,835,0
3742,1124,833,0
3742,1126,831,0
3741,1130,825,0
3747,1132,824,0
3750,1135,827,0
3758,1135,835,0
3767,1138,840,0
3774,1139,842,0
3779,1146,845,0
3781,1146,841,0
3777,1131,838,0
3770,1116,837,0
3761,1115,841,0
3758,1115,842,0
3756,1118,837,0
3757,1120,839,0
3761,1122,844,0
3762,1129,847,0
3766,1130,843,0
3762,1127,838,0
3755,1125,831,0
3745,1121,833,0
3738,1117,835,0
3737,1115,841,0
3734,1114,842,0
3740,1118,840,0
3745,1122,838,0
3747,1123,832,0
3752,1126,835,0
3761,1129,839,0
3766,1129,840,0
3769,1130,839,0
3765,1133,842,0
3762,1134,841,0
3763,1131,839,0
3762,1127,837,0
3765,1128,836,0
3764,1128,830,0
3761,1129,828,0
3760,1131,824,0
3758,1131,829,0
3754,1126,832,0
3751,1128,836,0
3751,1129,842,0
3747,1130,845,0
3746,1128,846,0
3744,1127,846,0
3738,1126,843,0
3739,1126,841,0
3746,1131,839,0
3751,1135,842,0
3758,1136,839,0
3760,1137,834,0
3760,1135,834,0
3762,1140,842,0
3765,1143,848,0
3763,1138,846,0
3761,1128,840,0
3758,1124,839,0
3755,1122,836,0
3753,1123,835,0
3752,1125,834,0
3753,1127,835,0
3757,1135,838,0
3758,1136,841,0
3760,1139,841,0
3766,1143,839,0
3770,1145,835,0
3774,1141,835,0
3776,1138,832,0
3776,1136,829,0
3775,1134,826,0
3771,1137,827,0
3767,1139,822,0
3765,1146,818,0
3761,1149,818,0
3753,1150,822,0
3747,1149,828,0
3735,1147,834,0
3731,1138,842,0
3737,1132,842,0
3738,1132,842,0
3732,1130,844,0
3732,1124,841,0
3730,1118,840,0
3737,1115,838,0
3742,1122,830,0
3747,1127,824,0
3748,1136,819,0
3751,1143,818,0
3752,1149,815,0
3752,1156,815,0
3751,1160,818,0
3749,1165,819,0
3747,1166,820,0
3747,1169,826,0
3751,1173,830,0
3754,1170,837,0
3756,1169,844,0
3757,1165,840,0
3756,1156,832,0
3752,1147,832,0
3745,1147,830,0
3745,1142,831,0
3748,1146,835,0
3753,1143,838,0
3757,1145,841,0
3763,1144,844,0
3766,1144,843,0
3762,1142,840,0
3757,1141,843,0
3751,1142,840,0
3750,1142,841,0
3750,1142,841,0
3748,1145,838,0
3748,1144,840,0
3750,1139,842,0
3748,1133,843,0
3749,1134,840,0
3751,1138,835,0
3755,1140,832,0
3756,1142,831,0
3756,1141,835,0
3754,1141,836,0
3752,1139,838,0
3751,1138,842,0
3755,1135,848,0
3759,1137,849,0
3767,1134,852,0
3775,1138,851,0
3773,1136,849,0
3772,1134,842,0
3769,1130,841,0
3765,1124,837,0
3757,1120,831,0
3747,1119,832,0
3738,1119,832,0
3735,1118,833,0
3727,1120,832,0
3732,1119,834,0
3741,1127,834,0
3749,1133,835,0
3753,1132,838,0
3756,1131,839,0
3761,1136,840,0
3760,1138,838,0
3762,1142,840,0
3765,1141,838,0
3765,1143,838,0
3760,1147,836,0
3762,1151,841,0
3755,1161,846,0
3752,1161,846,0
3749,1165,847,0
3747,1165,847,0
3750,1162,849,0
3753,1163,847,0
3755,1158,840,0
3754,1153,835,0
3755,1150,833,0
3750,1148,831,0
3749,1141,829,0
3744,1136,828,0
3744,1138,834,0
3747,1141,842,0
3748,1144,845,0
3747,1148,845,0
3748,1152,840,0
3749,1158,836,0
3746,1164,833,0
3747,1169,833,0
3743,1171,836,0
3736,1165,844,0
3731,1162,851,0
3730,1160,850,0
3733,1156,851,0
3735,1153,845,0
3743,1150,841,0
3743,1150,837,0
3748,1153,839,0
3752,1155,840,0
3754,1160,844,0
3755,1163,848,0
3753,1163,849,0
3752,1162,856,0
3750,1160,858,0
3750,1159,848,0
3751,1155,839,0
3752,1150,830,0
3752,1145,832,0
3753,1140,835,0
3748,1136,837,0
3743,1133,845,0
3741,1133,848,0
3735,1129,845,0
3735,1125,845,0
3740,1122,845,0
3747,1123,842,0
3755,1130,839,0
3760,1140,839,0
3766,1145,837,0
3770,1148,835,0
3773,1152,832,0
3772,1159,832,0
3769,1164,833,0
3763,1170,835,0
3760,1173,834,0
3751,1171,837,0
3739,1165,834,0
3731,1157,837,0
3727,1153,842,0
3721,1146,852,0
3721,1137,850,0
3723,1133,846,0
3729,1127,840,0
3731,1122,841,0
3733,1118,839,0
3739,1115,838,0
3748,1118,840,0
3754,1119,840,0
3765,1122,841,0
3767,1126,843,0
3767,1126,845,0
3762,1128,852,0
3760,1128,852,0
3757,1130,852,0
3759,1133,855,0
3752,1135,854,0
3748,1133,852,0
3751,1142,851,0
3757,1150,851,0
3758,1152,850,0
3761,1151,847,0
3763,1150,849,0
3755,1152,850,0
3749,1147,850,0
3739,1149,855,0
3741,1150,856,0
3741,1152,857,0
3737,1155,856,0
3736,1159,851,0
3738,1156,853,0
3746,1152,852,0
3749,1147,851,0
3747,1150,848,0
3748,1152,848,0
3750,1153,849,0
3751,1157,848,0
3758,1157,847,0
3758,1154,844,0
3758,1153,838,0
3758,1152,835,0
3749,1150,840,0
3743,1146,842,0
3745,1145,844,0
3742,1151,847,0
3745,1152,846,0
3744,1150,846,0
3744,1145,840,0
3743,1140,839,0
3742,1140,836,0
3738,1140,836,0
3742,1141,842,0
3747,1138,843,0
3751,1136,839,0
3757,1140,840,0
3765,1140,840,0
3766,1145,836,0
3766,1142,838,0
3769,1140,832,0
3765,1137,832,0
3760,1136,829,0
3755,1138,829,0
3749,1135,833,0
3744,1136,839,0
3748,1137,841,0
3748,1138,840,0
3745,1144,844,0
3744,1148,845,0
3741,1151,847,0
3746,1154,846,0
3751,1157,844,0
3753,1159,843,0
3757,1159,841,0
3755,1158,839,0
3755,1159,839,0
3756,1158,842,0
3756,1155,843,0
3753,1155,843,0
3747,1152,845,0
3744,1152,844,0
3743,1150,845,0
3747,1147,844,0
3746,1146,844,0
3750,1150,851,0
3751,1150,855,0
3751,1151,860,0
3750,1154,859,0
3749,1156,856,0
3740,1155,852,0
3732,1153,852,0
3727,1155,851,0
3730,1157,850,0
3731,1160,851,0
3733,1163,854,0
3733,1165,854,0
3728,1166,853,0
3724,1169,850,0
3721,1171,852,0
3727,1174,858,0
3725,1178,857,0
3723,1179,851,0
3729,1182,850,0
3738,1182,852,0
3744,1180,852,0
3749,1182,849,0
3748,1182,852,0
3748,1175,857,0
3743,1164,857,0
3740,1158,852,0
3742,1151,851,0
3744,1143,849,0
3747,1140,847,0
3748,1138,843,0
3750,1138,845,0
3749,1138,844,0
3753,1140,844,0
3755,1142,839,0
3758,1146,836,0
3762,1150,831,0
3762,1151,831,0
3766,1154,836,0
3767,1156,843,0
3767,1162,843,0
3763,1164,836,0
3757,1159,833,0
3749,1150,837,0
3735,1141,840,0
3727,1135,846,0
3727,1128,849,0
3723,1126,850,0
3728,1128,847,0
3733,1128,848,0
3729,1129,842,0
3725,1127,841,0
3732,1129,842,0
3742,1134,844,0
3750,1140,842,0
3754,1148,843,0
3758,1151,843,0
3759,1152,846,0
3761,1151,849,0
3762,1154,849,0
3759,1151,850,0
3756,1151,849,0
3755,1147,849,0
3752,1145,849,0
3752,1146,846,0
3750,1147,844,0
3749,1147,841,0
3745,1150,841,0
3742,1148,846,0
3745,1151,854,0
3751,1157,854,0
3753,1160,847,0
3757,1159,846,0
3755,1162,849,0
3755,1160,853,0
3755,1156,858,0
3746,1150,857,0
3741,1148,854,0
3737,1147,852,0
3740,1147,855,0
3739,1144,853,0
3737,1138,852,0
3742,1138,851,0
3746,1140,849,0
3751,1140,847,0
3753,1137,841,0
3755,1131,838,0
3763,1126,838,0
3761,1120,835,0
3759,1118,835,0
3756,1112,833,0
3758,1112,836,0
3757,1109,832,0
3760,1112,833,0
3762,1114,831,0
3764,1117,835,0
3760,1123,839,0
3753,1126,842,0
3751,1125,845,0
3746,1118,849,0
3747,1117,851,0
3751,1118,850,0
3755,1121,852,0
3758,1126,846,0
3760,1130,844,0
3759,1125,839,0
3761,1124,836,0
3759,1123,834,0
3757,1121,838,0
3757,1122,843,0
3755,1125,843,0
3756,1126,846,0
3758,1131,842,0
3756,1130,845,0
3756,1136,844,0
3755,1144,846,0
3755,1150,846,0
3757,1152,848,0
3756,1155,844,0
3755,1157,844,0
3749,1157,844,0
3749,1149,839,0
3747,1147,835,0
3744,1150,836,0
3747,1152,841,0
3746,1158,844,0
3750,1160,844,0
3750,1167,842,0
3748,1169,843,0
3743,1168,844,0
3741,1174,846,0
3736,1171,849,0
3735,1170,848,0
3732,1171,846,0
3728,1166,849,0
3723,1166,847,0
3722,1170,847,0
3722,1172,847,0
3720,1170,843,0
3721,1173,839,0
3735,1178,840,0
3738,1183,839,0
3744,1188,842,0
3753,1189,843,0
3756,1196,846,0
3766,1197,851,0
3768,1194,854,0
3766,1189,851,0
3761,1180,846,0
3752,1173,840,0
3742,1172,835,0
3736,1177,836,0
3728,1179,841,0
3727,1181,847,0
3724,1182,852,0
3724,1185,855,0
3726,1186,855,0
3733,1184,850,0
3739,1184,844,0
3746,1185,841,0
3745,1181,836,0
3746,1173,829,0
3748,1170,829,0
3742,1167,831,0
3739,1164,833,0
3733,1163,833,0
3732,1161,833,0
3730,1159,837,0
3730,1157,844,0
3731,1149,846,0
3741,1148,847,0
3742,1152,844,0
3744,1152,839,0
3748,1150,841,0
3749,1149,842,0
3751,1149,841,0
3750,1147,839,0
3750,1145,839,0
3750,1147,837,0
3747,1150,835,0
3747,1153,834,0
3743,1156,827,0
3741,1152,821,0
3734,1154,824,0
3728,1150,829,0
3727,1144,836,0
3740,1139,838,0
3753,1148,847,0
3761,1149,845,0
3765,1152,841,0
3767,1154,836,0
3769,1154,835,0
3766,1155,837,0
3761,1153,839,0
3758,1153,839,0
3753,1152,841,0
3752,1152,837,0
3755,1149,834,0
3753,1139,834,0
3751,1137,836,0
3751,1136,836,0
3753,1131,839,0
3756,1125,839,0
3756,1121,840,0
3758,1120,841,0
3763,1118,845,0
3765,1116,843,0
3765,1115,846,0
3764,1110,844,0
3764,1109,844,0
3763,1108,842,0
3762,1108,837,0
3760,1109,834,0
3758,1110,835,0
3754,1106,836,0
3753,1101,833,0
3755,1105,832,0
3755,1105,832,0
3754,1101,832,0
3755,1101,836,0
3756,1099,837,0
3758,1103,837,0
3762,1105,837,0
3765,1113,835,0
3770,1121,833,0
3779,1125,836,0
3778,1127,839,0
3777,1129,843,0
3773,1130,843,0
3767,1123,838,0
3759,1120,834,0
3753,1121,829,0
3751,1122,830,0
3752,1121,840,0
3756,1127,843,0
3762,1130,840,0
3759,1130,838,0
3760,1128,838,0
3760,1129,837,0
3760,1130,839,0
3763,1135,839,0
3764,1136,838,0
3766,1138,843,0
3767,1141,844,0
3761,1143,841,0
3756,1141,841,0
3752,1140,844,0
3748,1141,847,0
3749,1148,850,0
3752,1150,848,0
3751,1156,843,0
3748,1164,839,0
3744,1170,837,0
3740,1172,842,0
3740,1172,847,0
3738,1174,853,0
3736,1176,854,0
3734,1181,853,0
3729,1180,853,0
3725,1180,852,0
3724,1180,852,0
3719,1180,854,0
3722,1175,859,0
3726,1180,859,0
3731,1183,857,0
3733,1185,856,0
3740,1186,854,0
3739,1184,852,0
3735,1184,851,0
3736,1181,850,0
3737,1184,850,0
3740,1185,854,0
3742,1183,854,0
3746,1181,852,0
3746,1184,852,0
3739,1189,856,0
3742,1183,859,0
3735,1177,859,0
3727,1168,865,0
3723,1165,863,0
3724,1161,860,0
3722,1162,857,0
3727,1162,854,0
3737,1164,854,0
3741,1163,849,0
3745,1156,846,0
3752,1160,844,0
3760,1165,841,0
3762,1164,842,0
3761,1165,842,0
3757,1164,842,0
3752,1163,845,0
3748,1161,846,0
3740,1159,845,0
3737,1158,849,0
3736,1154,854,0
3735,1144,856,0
3733,1138,854,0
3738,1140,852,0
3738,1139,851,0
3740,1138,849,0
3743,1137,846,0
3749,1139,846,0
3750,1145,846,0
3756,1152,846,0
3760,1158,846,0
3757,1159,847,0
3754,1160,845,0
3749,1162,846,0
3736,1162,845,0
3727,1163,843,0
3719,1159,839,0
3719,1157,842,0
3720,1155,843,0
3727,1157,842,0
3734,1163,849,0
3742,1163,854,0
3749,1165,855,0
3754,1163,854,0
3757,1167,856,0
3757,1169,853,0
3758,1172,852,0
3756,1167,850,0
3754,1168,853,0
3753,1164,852,0
3751,1161,857,0
3749,1163,859,0
3747,1161,861,0
3747,1155,856,0
3746,1154,849,0
3740,1156,848,0
3737,1159,847,0
3742,1160,847,0
3740,1158,847,0
3742,1158,853,0
3741,1155,853,0
3743,1150,853,0
3749,1147,854,0
3754,1141,855,0
3760,1137,849,0
3761,1130,845,0
3767,1129,840,0
3764,1125,839,0
3763,1127,840,0
3763,1124,848,0
3757,1124,848,0
3755,1122,843,0
3753,1119,840,0
3752,1119,842,0
3759,1124,844,0
3761,1126,841,0
3757,1129,838,0
3755,1130,842,0
3752,1131,839,0
3752,1143,845,0
3752,1144,846,0
3753,1145,843,0
3752,1141,842,0
3753,1141,843,0
3750,1142,840,0
3750,1144,841,0
3751,1146,842,0
3748,1146,843,0
3747,1147,845,0
3744,1148,849,0
3742,1143,851,0
3743,1143,851,0
3747,1145,849,0
3750,1145,846,0
3752,1142,845,0
3757,1138,841,0
3759,1137,841,0
3760,1137,837,0
3757,1137,837,0
3754,1137,840,0
3754,1134,845,0
3752,1135,848,0
3749,1138,844,0
3745,1141,841,0
3744,1143,842,0
3747,1141,844,0
3754,1146,849,0
3754,1146,851,0
3754,1150,853,0
3751,1153,855,0
3749,1152,858,0
3747,1147,855,0
3748,1143,855,0
3750,1147,857,0
3749,1148,856,0
3747,1152,856,0
3745,1152,849,0
3746,1150,846,0
3745,1149,843,0
3747,1148,840,0
3741,1145,840,0
3743,1143,834,0
3747,1143,836,0
3750,1146,839,0
3748,1144,844,0
3746,1143,850,0
3737,1140,855,0
3734,1137,858,0
3728,1134,854,0
3726,1133,852,0
3735,1134,854,0
3743,1135,855,0
3752,1133,849,0
3757,1138,846,0
3762,1145,844,0
3763,1151,842,0
3767,1156,846,0
3772,1164,849,0
3776,1171,844,0
3775,1181,846,0
3774,1185,844,0
3769,1182,846,0
3761,1183,851,0
3752,1176,855,0
3738,1169,849,0
3727,1156,848,0
3724,1141,848,0
3720,1130,847,0
3720,1120,845,0
3726,1116,842,0
3726,1117,846,0
3735,1116,842,0
3745,1118,839,0
3752,1124,839,0
3755,1136,834,0
3752,1144,832,0
3751,1146,833,0
3751,1145,835,0
3751,1150,840,0
3751,1148,844,0
3752,1149,848,0
3751,1149,848,0
3748,1150,850,0
3755,1149,852,0
3759,1147,849,0
3766,1149,849,0
3764,1150,842,0
3767,1149,842,0
3758,1145,843,0
3748,1139,849,0
3742,1139,856,0
3739,1142,854,0
3741,1143,851,0
3742,1141,850,0
3746,1143,851,0
3753,1148,851,0
3761,1148,848,0
3764,1153,854,0
3763,1158,856,0
3756,1160,852,0
3753,1161,851,0
3751,1161,846,0
3744,1157,844,0
3743,1152,845,0
3747,1148,846,0
3745,1149,847,0
3744,1150,847,0
3744,1153,844,0
3739,1149,845,0
3737,1144,842,0
3739,1143,843,0
3744,1139,850,0
3746,1137,849,0
3752,1136,850,0
3754,1135,849,0
3753,1138,843,0
3751,1138,842,0
3745,1139,838,0
3742,1140,838,0
3741,1143,838,0
3742,1143,842,0
3734,1146,850,0
3737,1150,850,0
3740,1153,849,0
3748,1158,850,0
3753,1163,851,0
3754,1165,850,0
3756,1165,849,0
3751,1164,845,0
3748,1162,842,0
3747,1167,849,0
3747,1165,854,0
3739,1168,858,0
3738,1169,858,0
3738,1168,853,0
3735,1165,850,0
3736,1163,847,0
3736,1163,847,0
3738,1160,850,0
3743,1160,847,0
3746,1158,851,0
3749,1159,853,0
3751,1152,851,0
3752,1144,851,0
3751,1144,851,0
3753,1140,851,0
3757,1139,847,0
3753,1141,846,0
3752,1138,844,0
3751,1135,845,0
3753,1130,846,0
3754,1130,845,0
3753,1134,851,0
3749,1136,850,0
3742,1137,853,0
3736,1141,856,0
3738,1142,854,0
3743,1139,848,0
3750,1141,847,0
3754,1148,847,0
3755,1146,849,0
3759,1144,855,0
3756,1142,856,0
3754,1141,859,0
3750,1139,855,0
3749,1138,850,0
3748,1137,849,0
3751,1140,851,0
3749,1141,853,0
3747,1146,854,0
3743,1149,856,0
3737,1152,860,0
3733,1152,861,0
3729,1152,859,0
3730,1146,852,0
3736,1149,846,0
3743,1153,841,0
3752,1155,840,0
3766,1156,840,0
3773,1157,840,0
3778,1156,835,0
3777,1159,835,0
3768,1158,835,0
3759,1150,836,0
3755,1152,837,0
3747,1150,842,0
3740,1148,847,0
3739,1149,847,0
3730,1146,848,0
3728,1149,850,0
3729,1151,852,0
3728,1145,854,0
3732,1140,857,0
3736,1140,854,0
3738,1138,852,0
3738,1138,850,0
3736,1141,844,0
3731,1143,840,0
3732,1148,841,0
3733,1149,843,0
3734,1150,848,0
3736,1153,849,0
3737,1160,851,0
3743,1161,856,0
3748,1161,852,0
3754,1157,857,0
3757,1164,855,0
3761,1170,860,0
3763,1167,854,0
3757,1170,854,0
3750,1167,853,0
3741,1165,856,0
3735,1161,860,0
3739,1160,860,0
3739,1157,865,0
3743,1155,871,0
3747,1154,869,0
3750,1155,866,0
3749,1156,866,0
3743,1157,863,0
3735,1156,860,0
3735,1156,857,0
3737,1161,854,0
3742,1164,859,0
3743,1165,857,0
3741,1159,856,0
3741,1155,856,0
3744,1155,856,0
3746,1156,855,0
3749,1155,860,0
3750,1153,862,0
3750,1153,859,0
3751,1150,857,0
3750,1144,855,0
3747,1142,852,0
3742,1138,850,0
3744,1139,856,0
3745,1148,856,0
3744,1148,858,0
3743,1147,858,0
3742,1150,854,0
3740,1148,852,0
3732,1145,846,0
3735,1147,845,0
3737,1146,847,0
3744,1142,849,0
3748,1140,849,0
3754,1144,850,0
3751,1141,849,0
3751,1141,848,0
3750,1137,851,0
3749,1137,855,0
3747,1140,855,0
3750,1137,859,0
3753,1141,852,0
3757,1142,848,0
3757,1141,849,0
3759,1135,850,0
3763,1138,853,0
3765,1137,855,0
3760,1138,851,0
3755,1135,846,0
3750,1130,843,0
3748,1129,842,0
3749,1127,842,0
3750,1126,844,0
3754,1125,849,0
3752,1123,854,0
3750,1123,850,0
3751,1123,847,0
3750,1123,844,0
3751,1131,843,0
3754,1136,847,0
3753,1140,851,0
3752,1141,853,0
3752,1141,855,0
3751,1141,854,0
3748,1139,849,0
3745,1136,849,0
3746,1132,849,0
3749,1128,853,0
3746,1128,852,0
3748,1126,850,0
3749,1123,849,0
3751,1122,848,0
3754,1124,852,0
3753,1131,854,0
3751,1136,851,0
3749,1139,847,0
3750,1145,851,0
3755,1149,850,0
3761,1150,846,0
3764,1147,849,0
3760,1150,851,0
3759,1146,851,0
3755,1139,850,0
3749,1129,859,0
3746,1124,857,0
3747,1121,856,0
3752,1122,847,0
3755,1123,845,0
3757,1124,841,0
3759,1120,843,0
3757,1120,843,0
3761,1123,843,0
3763,1127,840,0
3764,1132,835,0
3763,1138,830,0
3759,1142,831,0
3758,1146,835,0
3756,1147,842,0
3755,1147,845,0
3756,1141,851,0
3756,1136,850,0
3758,1129,848,0
3761,1128,843,0
3758,1124,843,0
3757,1121,847,0
3750,1121,846,0
3741,1121,845,0
3737,1124,845,0
3738,1123,845,0
3738,1126,842,0
3740,1133,841,0
3743,1137,838,0
3744,1142,839,0
3747,1145,839,0
3746,1146,844,0
3748,1145,850,0
3750,1145,851,0
3752,1148,849,0
3756,1148,846,0
3755,1147,845,0
3758,1145,845,0
3763,1146,844,0
3767,1150,849,0
3770,1155,850,0
3767,1157,853,0
3765,1155,853,0
3761,1157,851,0
3754,1144,851,0
3745,1144,848,0
3731,1144,842,0
3724,1141,843,0
3724,1144,850,0
3732,1148,853,0
3738,1150,851,0
3747,1152,847,0
3754,1154,846,0
3753,1152,843,0
3753,1155,848,0
3755,1150,850,0
3756,1146,850,0
3758,1145,849,0
3760,1142,846,0
3755,1140,844,0
3755,1139,841,0
3751,1132,839,0
3749,1123,840,0
3752,1117,842,0
3753,1113,847,0
3754,1110,845,0
3750,1113,845,0
3742,1114,844,0
3740,1114,842,0
3741,1115,842,0
3744,1123,842,0
3747,1128,840,0
3750,1128,842,0
3753,1129,846,0
3756,1129,846,0
3763,1125,848,0
3764,1125,854,0
3764,1131,859,0
3762,1123,854,0
3760,1120,848,0
3754,1117,844,0
3752,1118,840,0
3744,1123,838,0
3739,1124,846,0
3744,1121,849,0
3749,1118,846,0
3753,1115,845,0
3763,1117,843,0
3767,1122,838,0
3768,1125,840,0
3762,1128,842,0
3757,1129,842,0
3755,1128,843,0
3753,1132,843,0
3752,1134,844,0
3757,1135,846,0
3765,1137,845,0
3771,1136,846,0
3769,1131,842,0
3766,1128,845,0
3764,1129,848,0
3758,1126,848,0
3753,1125,847,0
3748,1127,846,0
3742,1129,841,0
3741,1128,844,0
3744,1128,842,0
3746,1130,848,0
3749,1132,853,0
3749,1137,861,0
3750,1138,859,0
3752,1135,855,0
3754,1134,851,0
3751,1134,848,0
3746,1130,845,0
3742,1131,843,0
3740,1128,842,0
3741,1130,846,0
3741,1130,849,0
3747,1132,850,0
3752,1131,850,0
3756,1136,845,0
3766,1133,846,0
3766,1128,844,0
3765,1120,842,0
3765,1120,843,0
3764,1120,844,0
3760,1123,844,0
3759,1127,845,0
3759,1127,845,0
3757,1119,849,0
3751,1117,848,0
3751,1117,846,0
3752,1118,843,0
3754,1118,843,0
3759,1123,841,0
3761,1125,835,0
3761,1123,832,0
3757,1129,826,0
3759,1132,828,0
3756,1133,834,0
3763,1138,833,0
3769,1140,841,0
3773,1136,844,0
3777,1134,847,0
3774,1130,845,0
3767,1124,836,0
3761,1115,831,0
3758,1110,831,0
3756,1105,834,0
3752,1109,840,0
3747,1108,837,0
3748,1111,836,0
3754,1120,844,0
3758,1125,838,0
3758,1119,834,0
3745,1118,828,0
3740,1120,831,0
3738,1122,831,0
3738,1128,830,0
3742,1127,837,0
3749,1129,837,0
3754,1133,839,0
3760,1133,835,0
3758,1137,835,0
3758,1140,840,0
3755,1145,844,0
3755,1146,846,0
3752,1143,842,0
3747,1136,844,0
3751,1130,845,0
3755,1130,846,0
3760,1129,850,0
3759,1130,849,0
3761,1128,849,0
3758,1129,847,0
3759,1125,853,0
3757,1122,856,0
3760,1119,851,0
3759,1115,846,0
3758,1117,845,0
3759,1113,847,0
3758,1118,847,0
3757,1118,846,0
3750,1120,846,0
3753,1121,850,0
3753,1117,850,0
3755,1120,852,0
3753,1121,853,0
3755,1115,853,0
3756,1113,856,0
3757,1113,859,0
3754,1112,859,0
3756,1112,855,0
3757,1109,853,0
3752,1112,854,0
3754,1118,853,0
3751,1117,848,0
3745,1117,844,0
3743,1116,843,0
3746,1117,847,0
3744,1115,847,0
3750,1115,852,0
3754,1118,854,0
3759,1118,855,0
3760,1118,855,0
3760,1121,851,0
3760,1118,851,0
3759,1116,851,0
3762,1117,855,0
3760,1119,856,0
3759,1122,859,0
3756,1123,859,0
3753,1124,856,0
3752,1128,852,0
3753,1129,852,0
3748,1131,850,0
3745,1128,846,0
3747,1127,844,0
3749,1131,843,0
3749,1134,847,0
3749,1132,852,0
3747,1133,854,0
3749,1134,854,0
3753,1130,851,0
3755,1130,854,0
3759,1128,849,0
3764,1129,845,0
3764,1127,845,0
3765,1122,848,0
3766,1120,852,0
3765,1118,853,0
3769,1117,856,0
3761,1117,850,0
3758,1120,848,0
3749,1122,847,0
3744,1123,850,0
3739,1123,853,0
3742,1122,858,0
3746,1124,861,0
3742,1126,853,0
3743,1124,852,0
3739,1121,854,0
3743,1115,857,0
3746,1108,854,0
3751,1112,854,0
3756,1118,857,0
3756,1123,854,0
3757,1124,854,0
3758,1123,852,0
3761,1121,854,0
3767,1119,852,0
3774,1115,849,0
3774,1114,850,0
3779,1115,842,0
3776,1116,840,0
3770,1114,846,0
3768,1113,849,0
3765,1115,849,0
3761,1111,852,0
3759,1108,848,0
3754,1101,844,0
3744,1099,842,0
3751,1101,841,0
3752,1100,840,0
3758,1105,840,0
3765,1110,839,0
3771,1114,838,0
3777,1118,838,0
3773,1119,832,0
3774,1119,830,0
3767,1115,832,0
3763,1111,836,0
3762,1108,847,0
3762,1104,855,0
3768,1103,859,0
3775,1094,853,0
3777,1090,847,0
3773,1084,844,0
3768,1082,844,0
3766,1083,838,0
3757,1085,837,0
3751,1087,839,0
3748,1093,840,0
3747,1094,842,0
3751,1097,844,0
3756,1100,846,0
3759,1110,847,0
3764,1116,843,0
3765,1118,842,0
3762,1116,842,0
3763,1119,839,0
3764,1117,839,0
3766,1116,841,0
3766,1113,847,0
3767,1110,854,0
3770,1115,851,0
3768,1118,850,0
3772,1118,850,0
3764,1116,846,0
3762,1111,845,0
3753,1108,846,0
3750,1105,851,0
3751,1109,854,0
3753,1116,859,0
3756,1122,859,0
3756,1128,857,0
3756,1127,853,0
3752,1123,852,0
3749,1123,850,0
3751,1122,852,0
3750,1123,856,0
3756,1126,857,0
3759,1127,855,0
3763,1125,852,0
3766,1125,858,0
3768,1123,863,0
3763,1121,863,0
3762,1121,864,0
3758,1118,867,0
3758,1116,867,0
3754,1116,861,0
3750,1115,863,0
3746,1115,863,0
3744,1114,862,0
3744,1115,859,0
3742,1118,860,0
3745,1119,861,0
3744,1118,861,0
3747,1119,861,0
3750,1118,857,0
3749,1116,855,0
3749,1112,855,0
3751,1110,856,0
3756,1113,856,0
3759,1111,860,0
3763,1113,863,0
3767,1114,864,0
3772,1110,868,0
3770,1110,871,0
3772,1114,872,0
3771,1114,875,0
3765,1116,870,0
3759,1115,864,0
3753,1118,862,0
3751,1116,862,0
3754,1114,863,0
3754,1112,859,0
3754,1110,857,0
3752,1109,857,0
3753,1109,859,0
3751,1108,857,0
3750,1110,855,0
3750,1117,855,0
3750,1122,854,0
3749,1126,854,0
3748,1126,851,0
3752,1127,849,0
3751,1123,850,0
3753,1125,858,0
3753,1130,860,0
3751,1133,860,0
3750,1139,857,0
3752,1140,855,0
3753,1133,857,0
3753,1130,855,0
3749,1126,855,0
3748,1122,855,0
3745,1122,859,0
3747,1122,864,0
3741,1120,867,0
3745,1116,864,0
3749,1117,855,0
3749,1114,851,0
3751,1116,854,0
3753,1117,852,0
3752,1116,855,0
3754,1121,851,0
3753,1122,852,0
3751,1123,857,0
3751,1123,859,0
3753,1124,856,0
3754,1124,854,0
3758,1125,851,0
3763,1120,851,0
3772,1120,850,0
3775,1121,854,0
3775,1118,856,0
3766,1116,853,0
3760,1110,849,0
3751,1108,849,0
3744,1103,844,0
3740,1097,845,0
3743,1095,849,0
3747,1093,851,0
3751,1095,855,0
3749,1086,857,0
3753,1090,865,0
3766,1095,868,0
3782,1108,864,0
3792,1115,858,0
3801,1120,851,0
3799,1120,846,0
3792,1115,843,0
3779,1110,845,0
3767,1109,855,0
3756,1100,859,0
3751,1102,863,0
3748,1098,864,0
3742,1092,861,0
3743,1085,854,0
3744,1082,852,0
3749,1078,847,0
3752,1077,848,0
3755,1084,851,0
3761,1085,856,0
3760,1086,859,0
3765,1087,858,0
3763,1085,860,0
3759,1080,851,0
3760,1083,849,0
3761,1081,846,0
3758,1085,847,0
3766,1090,850,0
3766,1095,848,0
3771,1096,853,0
3772,1099,858,0
3770,1101,860,0
3772,1098,860,0
3767,1106,865,0
3762,1116,866,0
3763,1117,870,0
3759,1119,874,0
3753,1120,876,0
3752,1123,879,0
3751,1121,878,0
3752,1118,872,0
3754,1115,868,0
3754,1113,860,0
3752,1113,854,0
3755,1113,851,0
3753,1114,852,0
3751,1113,854,0
3749,1117,850,0
3751,1119,856,0
3753,1119,858,0
3756,1119,854,0
3758,1120,854,0
3768,1119,853,0
3770,1120,857,0
3768,1119,858,0
3768,1112,859,0
3760,1106,858,0
3755,1099,852,0
3752,1091,851,0
3753,1086,846,0
3747,1089,850,0
3750,1092,855,0
3753,1101,855,0
3753,1104,857,0
3753,1109,854,0
3752,1115,853,0
3748,1119,853,0
3748,1117,856,0
3749,1117,861,0
3754,1119,867,0
3761,1120,863,0
3766,1127,859,0
3774,1127,858,0
3771,1123,854,0
3764,1120,853,0
3761,1117,855,0
3761,1112,857,0
3755,1111,858,0
3748,1105,859,0
3746,1096,857,0
3746,1092,852,0
3751,1091,853,0
3754,1092,858,0
3762,1095,858,0
3765,1097,856,0
3766,1103,860,0
3760,1090,851,0
3762,1093,852,0
3767,1103,853,0
3778,1112,860,0
3785,1113,858,0
3783,1109,855,0
3776,1108,854,0
3768,1105,851,0
3760,1097,850,0
3757,1094,851,0
3756,1088,854,0
3751,1087,856,0
3752,1087,853,0
3754,1087,855,0
3750,1086,854,0
3747,1083,852,0
3745,1084,857,0
3749,1084,856,0
3757,1087,856,0
3763,1089,854,0
3771,1094,849,0
3772,1097,847,0
3768,1098,846,0
3767,1097,851,0
3761,1096,855,0
3759,1097,865,0
3759,1094,862,0
3762,1094,862,0
3761,1097,855,0
3760,1100,845,0
3764,1100,844,0
3764,1103,846,0
3763,1103,853,0
3761,1102,856,0
3759,1103,855,0
3766,1104,849,0
3771,1099,844,0
3773,1096,837,0
3774,1091,839,0
3774,1093,841,0
3774,1091,847,0
3765,1090,850,0
3758,1088,852,0
3751,1086,849,0
3746,1078,846,0
3746,1079,840,0
3751,1081,843,0
3757,1087,845,0
3767,1087,847,0
3774,1093,846,0
3779,1093,844,0
3782,1098,842,0
3782,1101,837,0
3778,1101,834,0
3778,1103,834,0
3778,1109,836,0
3776,1115,838,0
3769,1119,839,0
3770,1118,842,0
3767,1113,849,0
3763,1109,850,0
3757,1106,856,0
3754,1099,855,0
3758,1091,851,0
3757,1082,853,0
3752,1072,852,0
3744,1068,850,0
3743,1064,841,0
3746,1061,839,0
3751,1062,842,0
3756,1070,844,0
3763,1073,848,0
3768,1074,846,0
3770,1072,843,0
3768,1071,842,0
3766,1070,840,0
3763,1073,840,0
3768,1078,842,0
3768,1080,845,0
3772,1082,846,0
3776,1086,846,0
3782,1086,852,0
3785,1087,845,0
3790,1090,844,0
3790,1094,840,0
3789,1098,842,0
3787,1101,842,0
3781,1097,848,0
3774,1095,849,0
3765,1092,850,0
3759,1090,848,0
3756,1087,844,0
3760,1085,842,0
3764,1087,841,0
3772,1090,843,0
3774,1093,841,0
3777,1094,843,0
3784,1094,841,0
3785,1095,841,0
3783,1097,844,0
3784,1093,850,0
3785,1091,849,0
3777,1083,846,0
3769,1083,840,0
3765,1078,841,0
3763,1069,842,0
3757,1065,844,0
3764,1062,845,0
3765,1062,847,0
3765,1058,842,0
3765,1066,837,0
3760,1060,833,0
3760,1055,829,0
3760,1055,827,0
3760,1054,829,0
3763,1055,834,0
3776,1048,838,0
3784,1051,838,0
3787,1049,838,0
3789,1050,840,0
3790,1052,841,0
3780,1053,846,0
3776,1052,844,0
3779,1052,843,0
3783,1056,841,0
3783,1057,840,0
3783,1056,837,0
3778,1057,836,0
3771,1055,839,0
3774,1052,844,0
3776,1056,850,0
3778,1061,852,0
3780,1063,851,0
3786,1068,847,0
3785,1072,840,0
3789,1080,843,0
3791,1084,843,0
3790,1085,845,0
3791,1090,845,0
3790,1092,845,0
3789,1090,847,0
3785,1086,843,0
3778,1081,841,0
3772,1076,838,0
3766,1071,843,0
3763,1068,842,0
3766,1069,844,0
3768,1067,842,0
3772,1063,838,0
3771,1053,838,0
3776,1054,839,0
3784,1049,837,0
3795,1052,835,0
3802,1054,832,0
3805,1055,832,0
3803,1054,829,0
3801,1050,828,0
3794,1051,823,0
3775,1046,825,0
3763,1042,825,0
3754,1039,830,0
3748,1037,831,0
3743,1032,836,0
3747,1031,833,0
3748,1029,830,0
3753,1034,828,0
3765,1040,829,0
3778,1050,837,0
3792,1055,840,0
3801,1058,842,0
3804,1059,843,0
3804,1061,839,0
3802,1062,833,0
3801,1057,828,0
3799,1059,831,0
3803,1060,832,0
3801,1062,844,0
3803,1062,847,0
3801,1060,841,0
3799,1056,838,0
3792,1046,831,0
3786,1037,832,0
3785,1031,831,0
3775,1028,839,0
3773,1031,836,0
3768,1032,834,0
3769,1031,835,0
3770,1029,827,0
3768,1029,824,0
3777,1038,825,0
3786,1044,829,0
3795,1055,833,0
3805,1064,834,0
3806,1072,834,0
3805,1071,835,0
3807,1069,839,0
3802,1068,845,0
3806,1064,849,0
3810,1061,854,0
3816,1058,851,0
3816,1058,845,0
3809,1054,837,0
3801,1048,827,0
3792,1049,821,0
3777,1055,823,0
3765,1058,828,0
3762,1070,835,0
3765,1075,840,0
3775,1084,843,0
3788,1092,848,0
3802,1103,851,0
3805,1114,849,0
3808,1119,841,0
3802,1114,839,0
3786,1105,838,0
3761,1102,840,0
3729,1097,847,0
3698,1089,846,0
3678,1086,836,0
3674,1081,823,0
3682,1079,812,0
3705,1077,800,0
3742,1078,801,0
3785,1082,803,0
3827,1086,810,0
3866,1090,815,0
3895,1089,827,0
3915,1095,839,0
3915,1096,850,0
3908,1092,851,0
3897,1089,849,0
3879,1085,839,0
3856,1081,832,0
3831,1076,819,0
3799,1069,806,0
3775,1064,800,0
3751,1057,795,0
3732,1054,792,0
3724,1050,797,0
3717,1052,801,0
3719,1054,805,0
3730,1055,808,0
3746,1064,814,0
3761,1075,820,0
3777,1081,821,0
3793,1087,824,0
3803,1098,824,0
3810,1105,825,0
3815,1112,828,0
3821,1115,831,0
3826,1108,826,0
3822,1103,819,0
3815,1094,813,0
3807,1080,799,0
3794,1071,785,0
3786,1067,775,0
3780,1069,763,0
3777,1063,765,0
3776,1047,771,0
3776,1027,775,0
3774,1005,773,0
3768,994,767,0
3762,987,764,0
3754,986,772,0
3742,986,787,0
3731,977,803,0
3726,963,807,0
3737,950,801,0
3747,946,799,0
3763,947,788,0
3772,958,775,0
3768,981,766,0
3759,996,756,0
3740,998,754,0
3710,993,751,0
3684,976,747,0
3650,962,748,0
3617,951,754,0
3591,939,765,0
3575,929,775,0
3561,920,779,0
3560,913,783,0
3569,906,784,0
3582,902,779,0
3602,900,781,0
3624,902,785,0
3639,907,785,0
3653,911,777,0
3659,912,762,0
3667,898,734,0
3676,890,698,0
3679,878,668,0
3682,871,644,0
3673,866,616,0
3656,874,611,0
3636,891,626,0
3618,904,658,0
3605,906,689,0
3582,897,712,0
3543,886,724,0
3509,855,726,0
3480,817,734,0
3453,772,729,0
3430,720,715,0
3409,678,695,0
3379,656,669,0
3348,668,652,0
3320,702,638,0
3295,751,642,0
3268,815,660,0
3251,891,694,0
3235,964,718,0
3227,1026,716,0
3231,1065,693,0
3245,1085,648,0
3267,1074,598,0
3286,1041,552,0
3284,1010,511,0
3278,984,485,0
3267,962,479,0
3254,949,472,0
3221,935,465,0
3187,915,454,0
3154,900,444,0
3137,885,435,0
3126,874,426,0
3124,866,421,0
3135,864,424,0
3161,897,448,0
3196,937,468,0
3222,963,466,0
3244,991,445,0
3261,1017,416,0
3278,1040,397,0
3302,1072,387,0
3331,1109,389,0
3352,1147,389,0
3360,1178,389,0
3350,1206,400,0
3326,1227,425,0
3297,1237,464,0
3263,1240,509,0
3239,1222,530,0
3226,1189,544,0
3226,1153,547,0
3242,1112,546,0
3271,1098,559,0
3343,1130,595,0
3425,1172,658,0
3494,1204,705,0
3549,1234,730,0
3586,1258,737,0
3611,1291,749,0
3623,1338,769,0
3624,1397,785,0
3615,1453,808,0
3621,1478,810,0
3648,1491,783,0
3692,1520,774,0
3754,1556,773,0
3818,1590,793,0
3888,1608,807,0
3958,1607,819,0
4016,1601,828,0
4061,1597,834,0
4091,1598,838,0
4101,1614,858,0
4118,1608,870,0
4119,1594,872,0
4109,1577,875,0
4092,1565,863,0
4061,1563,858,0
4028,1571,859,0
3989,1587,853,0
3946,1604,846,0
3901,1615,831,0
3863,1615,824,0
3832,1619,823,0
3799,1618,833,0
3764,1613,848,0
3736,1609,867,0
3710,1602,882,0
3697,1593,879,0
3686,1603,874,0
3687,1637,877,0
3704,1669,890,0
3730,1700,903,0
3759,1724,920,0
3783,1761,948,0
3797,1791,985,0
3810,1821,1033,0
3820,1846,1065,0
3831,1872,1071,0
3838,1893,1064,0
3845,1920,1055,0
3848,1943,1054,0
3859,1959,1051,0
3857,1980,1051,0
3854,1994,1058,0
3846,2007,1069,0
3830,2019,1078,0
3809,2023,1082,0
3779,2026,1076,0
3745,2024,1062,0
3710,2017,1049,0
3681,2006,1041,0
3658,1992,1039,0
3643,1977,1043,0
3638,1957,1047,0
3633,1940,1047,0
3629,1921,1037,0
3615,1905,1035,0
3588,1883,1028,0
3553,1860,1014,0
3517,1847,982,0
3485,1858,953,0
3459,1886,932,0
3437,1920,915,0
3424,1938,903,0
3422,1951,897,0
3431,1964,896,0
3449,1991,890,0
3481,2027,891,0
3520,2072,897,0
3574,2132,906,0
3633,2198,921,0
3691,2261,926,0
3746,2307,922,0
3792,2346,912,0
3827,2373,906,0
3853,2386,899,0
3872,2369,892,0
3879,2341,881,0
3881,2314,888,0
3868,2290,901,0
3843,2277,935,0
3814,2268,982,0
3784,2257,1029,0
3745,2248,1072,0
3701,2235,1107,0
3646,2225,1127,0
3576,2223,1142,0
3506,2222,1157,0
3439,2205,1157,0
3371,2186,1158,0
3304,2154,1156,0
3240,2127,1147,0
3178,2103,1142,0
3122,2082,1135,0
3077,2073,1131,0
3035,2082,1130,0
3004,2110,1126,0
2976,2150,1108,0
2957,2197,1084,0
2944,2253,1065,0
2947,2314,1042,0
2965,2374,1026,0
2987,2434,1022,0
3004,2494,1026,0
3021,2545,1041,0
3036,2579,1066,0
3054,2595,1085,0
3069,2600,1105,0
3081,2607,1115,0
3085,2620,1110,0
3081,2638,1091,0
3080,2645,1065,0
3072,2645,1039,0
3061,2633,1024,0
3054,2607,1020,0
3036,2581,1023,0
3009,2553,1029,0
2978,2523,1024,0
2944,2495,1004,0
2907,2466,982,0
2874,2448,952,0
2847,2441,920,0
2822,2457,901,0
2819,2486,901,0
2827,2533,917,0
2846,2590,952,0
2869,2653,982,0
2903,2716,1000,0
2941,2776,1016,0
2980,2830,1028,0
3022,2879,1039,0
3064,2920,1055,0
3101,2947,1078,0
3131,2948,1108,0
3156,2929,1134,0
3163,2898,1147,0
3153,2865,1136,0
3117,2839,1113,0
3067,2821,1085,0
3019,2802,1055,0
2976,2776,1030,0
2937,2744,1020,0
2914,2707,1021,0
2898,2669,1024,0
2895,2634,1032,0
2898,2601,1034,0
2913,2575,1026,0
2935,2553,1014,0
2956,2533,1000,0
2969,2517,983,0
2977,2505,971,0
2979,2494,962,0
2975,2489,962,0
2968,2485,972,0
2957,2486,988,0
2948,2493,1005,0
2931,2495,1025,0
2918,2511,1046,0
2898,2532,1057,0
2879,2548,1064,0
2857,2568,1066,0
2844,2588,1080,0
2831,2604,1086,0
2824,2624,1099,0
2822,2647,1115,0
2813,2670,1126,0
2799,2689,1133,0
2783,2707,1130,0
2769,2724,1134,0
2748,2733,1144,0
2729,2751,1163,0
2713,2762,1181,0
2696,2775,1201,0
2676,2802,1222,0
2652,2830,1240,0
2628,2856,1248,0
2617,2869,1249,0
2609,2892,1260,0
2613,2908,1291,0
2613,2918,1322,0
2614,2918,1331,0
2606,2910,1327,0
2593,2897,1315,0
2575,2887,1296,0
2557,2885,1278,0
2537,2890,1274,0
2514,2899,1275,0
2494,2906,1285,0
2475,2910,1289,0
2459,2912,1290,0
2440,2906,1295,0
2424,2895,1307,0
2412,2885,1313,0
2406,2874,1316,0
2402,2877,1323,0
2402,2881,1337,0
2406,2884,1347,0
2413,2888,1353,0
2424,2885,1366,0
2438,2887,1383,0
2445,2892,1397,0
2451,2896,1411,0
2460,2897,1419,0
2463,2908,1431,0
2459,2914,1432,0
2452,2913,1432,0
2446,2918,1428,0
2432,2923,1423,0
2445,2920,1415,0
2430,2904,1430,0
2403,2892,1459,0
2389,2886,1470,0
2371,2883,1488,0
2362,2874,1494,0
2361,2861,1491,0
2371,2851,1496,0
2383,2842,1502,0
2393,2830,1498,0
2400,2820,1490,0
2396,2815,1487,0
2393,2817,1483,0
2389,2829,1481,0
2395,2838,1479,0
2402,2845,1484,0
2402,2856,1476,0
2405,2869,1472,0
2408,2875,1459,0
2411,2884,1438,0
2411,2892,1417,0
2410,2893,1404,0
2409,2893,1392,0
2412,2893,1390,0
2416,2893,1395,0
2423,2885,1408,0
2431,2878,1420,0
2437,2875,1431,0
2437,2871,1440,0
2440,2859,1451,0
2442,2850,1456,0
2444,2850,1457,0
2445,2844,1461,0
2446,2837,1463,0
2443,2839,1464,0
2439,2831,1470,0
2436,2826,1477,0
2431,2821,1487,0
2431,2820,1501,0
2436,2814,1510,0
2439,2810,1518,0
2437,2805,1526,0
2438,2799,1529,0
2435,2799,1531,0
2425,2799,1529,0
2419,2802,1524,0
2413,2806,1512,0
2403,2810,1509,0
2394,2817,1512,0
2381,2821,1508,0
2373,2829,1509,0
2374,2836,1508,0
2373,2834,1509,0
2376,2838,1516,0
2381,2839,1515,0
2391,2838,1514,0
2400,2839,1517,0
2409,2841,1514,0
2413,2844,1504,0
2413,2842,1498,0
2415,2843,1490,0
2416,2844,1483,0
2416,2845,1476,0
2418,2847,1467,0
2418,2841,1461,0
2421,2841,1456,0
2423,2838,1457,0
2421,2840,1459,0
2423,2845,1460,0
2424,2849,1466,0
2422,2851,1471,0
2425,2853,1475,0
2421,2854,1475,0
2424,2855,1478,0
2422,2857,1474,0
2421,2855,1476,0
2422,2853,1473,0
2423,2848,1472,0
2422,2853,1470,0
2417,2852,1460,0
2413,2850,1447,0
2411,2849,1439,0
2412,2847,1436,0
2412,2845,1431,0
2413,2849,1435,0
2417,2854,1439,0
2424,2855,1439,0
2426,2860,1443,0
2430,2859,1446,0
2432,2863,1447,0
2431,2865,1448,0
2428,2866,1451,0
2429,2867,1455,0
2429,2869,1455,0
2427,2867,1452,0
2431,2869,1450,0
2431,2869,1447,0
2436,2864,1446,0
2433,2861,1438,0
2433,2857,1436,0
2433,2855,1432,0
2434,2856,1428,0
2437,2855,1430,0
2436,2853,1427,0
2442,2854,1428,0
2444,2852,1425,0
2444,2853,1422,0
2450,2862,1421,0
2454,2865,1426,0
2462,2859,1430,0
2467,2851,1432,0
2477,2847,1427,0
2486,2842,1427,0
2491,2832,1424,0
2498,2821,1422,0
2503,2819,1414,0
2503,2815,1412,0
2503,2814,1408,0
2502,2813,1405,0
2504,2816,1398,0
2508,2815,1396,0
2509,2817,1396,0
2512,2819,1399,0
2516,2818,1400,0
2518,2819,1397,0
2520,2813,1394,0
2525,2810,1398,0
2525,2806,1400,0
2524,2805,1399,0
2524,2805,1395,0
2523,2806,1396,0
2526,2804,1400,0
2523,2805,1393,0
2517,2805,1396,0
2514,2801,1389,0
2512,2801,1387,0
2513,2803,1387,0
2512,2808,1393,0
2513,2812,1395,0
2514,2816,1402,0
2514,2813,1402,0
2517,2812,1406,0
2520,2811,1405,0
2517,2808,1411,0
2517,2806,1414,0
2514,2805,1415,0
2511,2802,1415,0
2504,2803,1415,0
2499,2807,1416,0
2495,2809,1414,0
2492,2811,1417,0
2491,2815,1420,0
2487,2811,1419,0
2486,2811,1422,0
2485,2818,1427,0
2485,2819,1431,0
2491,2817,1426,0
2490,2818,1423,0
2489,2817,1419,0
2492,2819,1418,0
2488,2825,1419,0
2485,2827,1419,0
2479,2827,1419,0
2473,2826,1418,0
2472,2825,1422,0
2470,2826,1427,0
2473,2837,1433,0
2477,2839,1437,0
2477,2838,1439,0
2477,2835,1442,0
2479,2834,1442,0
2473,2833,1435,0
2472,2827,1430,0
2471,2822,1428,0
2466,2821,1425,0
2460,2820,1416,0
2460,2822,1412,0
2459,2823,1410,0
2456,2824,1409,0
2459,2828,1410,0
2465,2828,1415,0
2465,2828,1415,0
2466,2830,1415,0
2468,2832,1416,0
2471,2835,1417,0
2472,2835,1419,0
2475,2833,1425,0
2475,2833,1425,0
2477,2828,1426,0
2481,2826,1429,0
2492,2823,1428,0
2493,2820,1426,0
2496,2822,1428,0
2496,2821,1427,0
2491,2814,1422,0
2489,2814,1419,0
2488,2814,1419,0
2493,2815,1417,0
2492,2818,1415,0
2493,2820,1415,0
2495,2820,1414,0
2490,2821,1412,0
2489,2821,1412,0
2488,2822,1412,0
2487,2818,1415,0
2491,2815,1414,0
2494,2812,1419,0
2492,2810,1419,0
2490,2808,1416,0
2491,2806,1412,0
2490,2806,1411,0
2486,2810,1413,0
2485,2810,1406,0
2489,2814,1412,0
2491,2813,1409,0
2494,2817,1407,0
2496,2818,1409,0
2496,2816,1414,0
2495,2817,1416,0
2497,2821,1418,0
2491,2825,1412,0
2486,2827,1410,0
2481,2825,1407,0
2478,2823,1405,0
2484,2822,1405,0
2480,2826,1405,0
2480,2830,1409,0
2487,2829,1412,0
2487,2824,1412,0
2487,2824,1413,0
2486,2826,1410,0
2485,2828,1409,0
2484,2828,1410,0
2480,2832,1408,0
2479,2830,1404,0
2477,2830,1401,0
2476,2833,1402,0
2481,2829,1404,0
2477,2830,1407,0
2479,2833,1410,0
2480,2834,1413,0
2480,2836,1413,0
2478,2837,1412,0
2483,2836,1415,0
2482,2838,1419,0
2482,2839,1417,0
2484,2837,1417,0
2485,2834,1417,0
2484,2838,1416,0
2485,2838,1413,0
2482,2836,1410,0
2485,2832,1409,0
2484,2824,1407,0
2483,2821,1404,0
2481,2820,1405,0
2479,2817,1411,0
2479,2813,1409,0
2478,2812,1409,0
2479,2811,1413,0
2477,2811,1415,0
2482,2814,1418,0
2490,2812,1418,0
2491,2811,1420,0
2491,2813,1417,0
2493,2816,1420,0
2491,2817,1422,0
2492,2820,1422,0
2489,2817,1418,0
2488,2816,1407,0
2486,2821,1408,0
2486,2821,1410,0
2490,2821,1413,0
2492,2824,1417,0
2492,2821,1421,0
2492,2818,1421,0
2490,2816,1418,0
2487,2813,1415,0
2484,2807,1417,0
2483,2807,1421,0
2480,2805,1420,0
2478,2809,1420,0
2478,2814,1418,0
2481,2816,1414,0
2484,2817,1415,0
2484,2824,1409,0
2484,2832,1407,0
2484,2835,1402,0
2481,2841,1397,0
2483,2846,1395,0
2479,2845,1396,0
2481,2847,1396,0
2480,2844,1401,0
2477,2846,1404,0
2478,2844,1408,0
2483,2845,1414,0
2485,2845,1421,0
2483,2844,1425,0
2480,2839,1427,0
2475,2837,1422,0
2470,2834,1421,0
2468,2836,1411,0
2466,2834,1403,0
2464,2837,1398,0
2461,2834,1403,0
2463,2835,1403,0
2464,2839,1406,0
2467,2841,1406,0
2471,2841,1410,0
2474,2843,1416,0
2475,2846,1420,0
2477,2844,1424,0
2477,2842,1422,0
2475,2840,1424,0
2475,2833,1426,0
2477,2826,1428,0
2482,2821,1433,0
2482,2817,1429,0
2481,2814,1425,0
2477,2812,1418,0
2477,2812,1417,0
2478,2816,1411,0
2478,2818,1406,0
2478,2817,1409,0
2486,2822,1412,0
2487,2827,1407,0
2486,2825,1407,0
2484,2826,1405,0
2480,2834,1405,0
2477,2837,1411,0
2479,2835,1413,0
2478,2832,1414,0
2479,2834,1417,0
2480,2831,1416,0
2482,2827,1417,0
2481,2826,1415,0
2477,2831,1415,0
2476,2828,1414,0
2477,2827,1415,0
2477,2831,1409,0
2480,2829,1406,0
2482,2829,1404,0
2485,2828,1406,0
2484,2827,1405,0
2484,2830,1405,0
2484,2831,1406,0
2482,2834,1402,0
2482,2838,1405,0
2484,2839,1405,0
2486,2837,1407,0
2485,2840,1410,0
2482,2839,1411,0
2480,2837,1410,0
2479,2844,1410,0
2479,2843,1409,0
2480,2839,1413,0
2476,2839,1412,0
2473,2836,1414,0
2476,2835,1414,0
2475,2835,1418,0
2477,2830,1421,0
2476,2826,1418,0
2475,2828,1419,0
2472,2831,1422,0
2475,2828,1422,0
2471,2825,1420,0
2471,2827,1418,0
2472,2826,1413,0
2478,2828,1413,0
2477,2829,1410,0
2479,2829,1409,0
2481,2836,1413,0
2483,2838,1415,0
2478,2838,1417,0
2482,2839,1417,0
2482,2836,1415,0
2478,2836,1414,0
2475,2837,1412,0
2474,2836,1413,0
2471,2833,1413,0
2473,2830,1416,0
2476,2828,1411,0
2477,2831,1414,0
2475,2827,1413,0
2478,2826,1412,0
2477,2824,1414,0
2479,2827,1416,0
2479,2829,1415,0
2480,2829,1417,0
2480,2835,1420,0
2480,2838,1417,0
2480,2835,1416,0
2481,2837,1406,0
2476,2839,1403,0
2474,2839,1404,0
2475,2836,1405,0
2473,2836,1411,0
2471,2831,1406,0
2459,2825,1401,0
2442,2815,1398,0
2426,2805,1389,0
2417,2803,1392,0
2410,2809,1397,0
2413,2817,1407,0
2425,2832,1433,0
2446,2848,1456,0
2468,2866,1477,0
2491,2880,1487,0
2507,2885,1488,0
2521,2884,1482,0
2529,2876,1467,0
2529,2869,1438,0
2519,2860,1413,0
2509,2854,1381,0
2504,2842,1358,0
2498,2830,1340,0
2495,2822,1332,0
2496,2816,1325,0
2502,2806,1330,0
2516,2798,1345,0
2522,2797,1366,0
2518,2798,1386,0
2516,2799,1402,0
2512,2805,1414,0
2500,2810,1426,0
2494,2815,1437,0
2491,2822,1441,0
2483,2832,1444,0
2477,2837,1445,0
2474,2837,1441,0
2473,2844,1433,0
2471,2845,1422,0
2472,2841,1422,0
2473,2835,1418,0
2475,2829,1419,0
2479,2824,1418,0
2480,2813,1415,0
2480,2808,1410,0
2485,2805,1409,0
2485,2800,1415,0
2489,2801,1420,0
2493,2802,1426,0
2495,2806,1424,0
2492,2803,1427,0
2492,2804,1432,0
2494,2800,1433,0
2491,2803,1430,0
2491,2805,1425,0
2488,2800,1420,0
2492,2802,1418,0
2490,2799,1412,0
2490,2799,1407,0
2494,2797,1406,0
2498,2802,1405,0
2500,2809,1403,0
2504,2813,1405,0
2503,2815,1409,0
2497,2817,1411,0
2496,2815,1414,0
2488,2813,1418,0
2483,2814,1418,0
2483,2815,1415,0
2484,2814,1408,0
2484,2817,1408,0
2483,2817,1410,0
2488,2819,1408,0
2488,2823,1409,0
2490,2822,1411,0
2493,2825,1404,0
2494,2826,1405,0
2492,2830,1403,0
2493,2832,1405,0
2496,2832,1408,0
2499,2833,1413,0
2498,2830,1415,0
2498,2826,1418,0
2492,2821,1419,0
2491,2820,1419,0
2488,2821,1416,0
2489,2820,1413,0
2487,2817,1411,0
2484,2816,1407,0
2486,2816,1405,0
2486,2817,1403,0
2483,2819,1405,0
2480,2825,1409,0
2476,2825,1413,0
2475,2826,1413,0
2478,2827,1414,0
2479,2831,1414,0
2476,2833,1418,0
2477,2829,1417,0
2475,2829,1414,0
2474,2826,1410,0
2470,2824,1406,0
2464,2820,1408,0
2464,2820,1410,0
2465,2820,1412,0
2469,2828,1417,0
2475,2834,1422,0
2486,2841,1429,0
2493,2844,1436,0
2499,2844,1429,0
2510,2846,1423,0
2508,2838,1419,0
2511,2836,1411,0
2509,2830,1401,0
2507,2826,1391,0
2506,2827,1380,0
2498,2822,1371,0
2498,2818,1365,0
2506,2817,1368,0
2515,2820,1371,0
2520,2819,1377,0
2524,2817,1382,0
2524,2816,1383,0
2520,2809,1386,0
2517,2807,1397,0
2511,2809,1406,0
2504,2808,1408,0
2501,2807,1412,0
2499,2811,1422,0
2501,2812,1422,0
2498,2815,1423,0
2497,2815,1426,0
2498,2814,1425,0
2495,2815,1430,0
2498,2812,1427,0
2500,2814,1424,0
2500,2815,1422,0
2502,2813,1417,0
2498,2815,1413,0
2494,2813,1411,0
2493,2819,1407,0
2487,2821,1404,0
2487,2825,1404,0
2485,2825,1402,0
2481,2826,1398,0
2482,2829,1402,0
2480,2836,1407,0
2479,2842,1404,0
2479,2845,1404,0
2481,2849,1403,0
2477,2855,1401,0
2474,2851,1404,0
2470,2850,1406,0
2468,2848,1411,0
2472,2845,1420,0
2470,2845,1430,0
2470,2840,1436,0
2470,2830,1435,0
2470,2821,1436,0
2473,2817,1440,0
2474,2810,1440,0
2474,2804,1443,0
2474,2802,1443,0
2474,2799,1436,0
2469,2800,1430,0
2468,2795,1424,0
2468,2798,1420,0
2472,2798,1419,0
2472,2798,1416,0
2478,2800,1423,0
2481,2799,1424,0
2485,2801,1428,0
2489,2799,1432,0
2495,2802,1431,0
2501,2797,1426,0
2500,2795,1423,0
2502,2792,1423,0
2502,2791,1422,0
2508,2791,1420,0
2509,2792,1416,0
2508,2793,1412,0
2510,2793,1407,0
2511,2794,1402,0
2509,2798,1397,0
2509,2799,1400,0
2512,2804,1403,0
2512,2804,1408,0
2516,2811,1414,0
2516,2810,1413,0
2515,2811,1415,0
2511,2809,1414,0
2510,2811,1414,0
2506,2811,1408,0
2502,2814,1403,0
2502,2816,1403,0
2503,2817,1402,0
2502,2818,1401,0
2500,2820,1407,0
2498,2820,1410,0
2498,2821,1409,0
2494,2824,1402,0
2491,2824,1399,0
2494,2829,1396,0
2497,2829,1391,0
2501,2831,1388,0
2498,2829,1393,0
2497,2830,1401,0
2495,2830,1407,0
2499,2831,1410,0
2491,2829,1409,0
2484,2832,1407,0
2483,2828,1407,0
2481,2828,1413,0
2483,2827,1413,0
2483,2828,1412,0
2483,2826,1410,0
2486,2823,1409,0
2489,2827,1407,0
2483,2833,1409,0
2483,2833,1409,0
2485,2832,1410,0
2483,2831,1411,0
2487,2830,1411,0
2485,2831,1412,0
2482,2831,1415,0
2481,2832,1413,0
2481,2827,1412,0
2480,2825,1411,0
2479,2828,1407,0
2480,2830,1405,0
2483,2829,1405,0
2483,2828,1405,0
2486,2829,1405,0
2491,2827,1409,0
2496,2826,1406,0
2489,2825,1405,0
2488,2827,1403,0
2487,2826,1395,0
2487,2825,1397,0
2488,2827,1398,0
2490,2827,1400,0
2497,2825,1403,0
2496,2826,1403,0
2495,2822,1401,0
2493,2824,1404,0
2487,2821,1405,0
2485,2817,1410,0
2485,2813,1416,0
2480,2816,1419,0
2478,2817,1420,0
2477,2817,1417,0
2477,2818,1418,0
2478,2819,1422,0
2480,2821,1420,0
2479,2828,1418,0
2481,2830,1417,0
2484,2831,1420,0
2483,2830,1422,0
2488,2824,1422,0
2488,2824,1424,0
2494,2820,1426,0
2494,2817,1423,0
2495,2818,1423,0
2490,2816,1419,0
2491,2813,1418,0
2487,2809,1417,0
2482,2811,1415,0
2480,2811,1412,0
2480,2812,1410,0
2480,2813,1416,0
2483,2815,1417,0
2483,2820,1415,0
2486,2821,1418,0
2486,2823,1412,0
2485,2823,1408,0
2485,2829,1408,0
2482,2829,1410,0
2484,2832,1415,0
2482,2833,1418,0
2476,2833,1425,0
2475,2836,1430,0
2472,2835,1432,0
2477,2837,1433,0
2482,2833,1427,0
2484,2833,1425,0
2489,2834,1419,0
2493,2835,1416,0
2493,2830,1409,0
2491,2829,1399,0
2488,2826,1390,0
2486,2828,1385,0
2484,2826,1382,0
2482,2824,1383,0
2480,2822,1388,0
2481,2821,1395,0
2481,2818,1394,0
2480,2820,1401,0
2476,2820,1403,0
2475,2818,1407,0
2479,2818,1411,0
2477,2820,1416,0
2477,2819,1419,0
2478,2820,1427,0
2479,2817,1433,0
2478,2821,1435,0
2480,2821,1433,0
2479,2821,1434,0
2480,2823,1435,0
2479,2819,1432,0
2478,2821,1434,0
2480,2819,1430,0
2479,2817,1428,0
2483,2815,1422,0
2486,2812,1416,0
2484,2811,1413,0
2482,2810,1409,0
2481,2812,1403,0
2486,2812,1403,0
2486,2814,1401,0
2490,2818,1404,0
2492,2823,1408,0
2493,2824,1408,0
2491,2826,1409,0
2491,2825,1406,0
2490,2827,1403,0
2491,2827,1397,0
2488,2834,1393,0
2486,2836,1393,0
2487,2833,1395,0
2488,2836,1394,0
2487,2838,1398,0
2487,2836,1402,0
2490,2841,1406,0
2490,2843,1410,0
2486,2842,1411,0
2489,2837,1412,0
2488,2834,1414,0
2484,2831,1414,0
2483,2831,1414,0
2480,2827,1412,0
2476,2824,1404,0
2481,2826,1404,0
2481,2826,1408,0
2478,2826,1408,0
2476,2823,1407,0
2474,2822,1405,0
2476,2821,1408,0
2479,2822,1411,0
2478,2823,1414,0
2478,2820,1415,0
2479,2823,1414,0
2484,2823,1414,0
2484,2823,1413,0
2485,2825,1417,0
2483,2826,1414,0
2481,2824,1414,0
2484,2826,1412,0
2483,2828,1412,0
2487,2828,1415,0
2490,2831,1417,0
2490,2830,1416,0
2490,2833,1418,0
2485,2835,1411,0
2482,2834,1408,0
2487,2832,1412,0
2489,2832,1413,0
2486,2829,1414,0
2488,2830,1414,0
2487,2835,1407,0
2483,2829,1402,0
2480,2827,1404,0
2477,2828,1402,0
2475,2824,1405,0
2474,2823,1402,0
2474,2825,1400,0
2476,2824,1404,0
2476,2825,1410,0
2477,2826,1413,0
2477,2829,1418,0
2480,2826,1415,0
2476,2828,1416,0
2478,2826,1415,0
2477,2823,1417,0
2478,2823,1419,0
2478,2823,1421,0
2479,2827,1421,0
2478,2825,1422,0
2476,2821,1421,0
2479,2824,1415,0
2480,2828,1414,0
2480,2829,1417,0
2479,2827,1417,0
2483,2825,1417,0
2487,2821,1419,0
2490,2820,1424,0
2487,2821,1423,0
2487,2821,1423,0
2483,2821,1420,0
2482,2820,1415,0
2481,2819,1412,0
2484,2818,1413,0
2487,2816,1415,0
2488,2821,1419,0
2490,2825,1418,0
2487,2833,1417,0
2486,2838,1413,0
2482,2837,1407,0
2478,2839,1399,0
2478,2842,1397,0
2479,2839,1401,0
2478,2839,1408,0
2481,2840,1414,0
2483,2838,1419,0
2485,2834,1428,0
2485,2829,1435,0
2479,2831,1435,0
2475,2824,1429,0
2470,2822,1421,0
2463,2823,1416,0
2464,2820,1411,0
2463,2821,1412,0
2464,2821,1409,0
2465,2823,1413,0
2469,2828,1415,0
2472,2830,1418,0
2475,2831,1420,0
2477,2830,1416,0
2478,2834,1416,0
2482,2828,1412,0
2482,2826,1414,0
2482,2825,1410,0
2486,2821,1410,0
2488,2816,1414,0
2489,2821,1417,0
2492,2818,1417,0
2490,2818,1419,0
2487,2818,1417,0
2483,2819,1416,0
2484,2819,1410,0
2486,2819,1412,0
2486,2823,1410,0
2487,2822,1410,0
2485,2825,1410,0
2484,2829,1411,0
2481,2831,1412,0
2478,2830,1414,0
2476,2829,1413,0
2476,2829,1411,0
2477,2830,1409,0
2479,2834,1413,0
2477,2831,1411,0
2477,2833,1412,0
2479,2835,1411,0
2479,2833,1411,0
2479,2837,1414,0
2479,2835,1416,0
2480,2836,1412,0
2478,2840,1411,0
2479,2837,1411,0
2478,2837,1414,0
2477,2834,1415,0
2478,2832,1417,0
2477,2831,1418,0
2477,2832,1417,0
2473,2833,1419,0
2473,2834,1418,0
2472,2835,1416,0
2470,2837,1413,0
2471,2841,1411,0
2470,2840,1414,0
2471,2839,1415,0
2469,2843,1415,0
2473,2841,1417,0
2472,2835,1422,0
2472,2837,1423,0
2471,2833,1423,0
2470,2830,1425,0
2465,2829,1425,0
2466,2828,1424,0
2466,2825,1425,0
2469,2825,1425,0
2470,2820,1423,0
2470,2819,1426,0
2466,2815,1423,0
2469,2814,1426,0
2470,2810,1428,0
2474,2810,1429,0
2479,2804,1426,0
2478,2804,1427,0
2479,2806,1423,0
2479,2808,1420,0
2478,2812,1425,0
2481,2817,1421,0
2481,2821,1419,0
2484,2825,1416,0
2488,2832,1410,0
2491,2838,1404,0
2492,2840,1403,0
2488,2843,1400,0
2484,2851,1392,0
2486,2855,1388,0
2483,2852,1391,0
2483,2855,1388,0
2479,2856,1384,0
2478,2854,1384,0
2474,2853,1390,0
2475,2854,1391,0
2477,2854,1394,0
2475,2855,1398,0
2475,2856,1403,0
2471,2856,1406,0
2468,2853,1407,0
2469,2851,1406,0
2465,2851,1409,0
2464,2852,1412,0
2461,2853,1413,0
2460,2853,1414,0
2460,2851,1415,0
2454,2847,1413,0
2450,2848,1419,0
2447,2848,1415,0
2446,2847,1416,0
2450,2849,1416,0
2450,2847,1414,0
2458,2850,1413,0
2463,2852,1411,0
2464,2850,1406,0
2466,2849,1410,0
2470,2849,1405,0
2471,2846,1403,0
2468,2846,1402,0
2471,2844,1406,0
2474,2845,1400,0
2473,2845,1405,0
2471,2840,1403,0
2473,2841,1399,0
2473,2843,1400,0
2471,2847,1407,0
2474,2848,1407,0
2472,2848,1410,0
2470,2850,1411,0
2473,2853,1407,0
2470,2855,1410,0
2467,2857,1402,0
2466,2859,1398,0
2466,2857,1396,0
2467,2857,1394,0
2472,2857,1400,0
2473,2855,1404,0
2472,2851,1407,0
2471,2851,1412,0
2468,2845,1415,0
2463,2836,1408,0
2458,2832,1407,0
2450,2832,1405,0
2449,2834,1402,0
2443,2832,1401,0
2441,2838,1399,0
2443,2843,1399,0
2446,2847,1402,0
2451,2851,1405,0
2456,2853,1406,0
2460,2855,1407,0
2461,2854,1410,0
2458,2854,1411,0
2460,2854,1416,0
2454,2852,1413,0
2459,2849,1414,0
2455,2847,1415,0
2451,2843,1416,0
2460,2841,1415,0
2463,2837,1412,0
2460,2837,1412,0
2464,2839,1409,0
2463,2839,1407,0
2466,2841,1407,0
2466,2843,1407,0
2466,2844,1402,0
2467,2845,1401,0
2469,2847,1398,0
2470,2847,1404,0
2472,2849,1402,0
2474,2850,1405,0
2470,2850,1402,0
2469,2849,1401,0
2469,2851,1398,0
2467,2850,1396,0
2470,2849,1394,0
2472,2851,1398,0
2473,2851,1397,0
2474,2850,1399,0
2474,2849,1396,0
2473,2846,1397,0
2470,2848,1396,0
2467,2850,1394,0
2464,2850,1397,0
2463,2854,1400,0
2455,2853,1402,0
2455,2855,1404,0
2453,2857,1405,0
2457,2856,1408,0
2460,2856,1413,0
2458,2859,1412,0
2455,2861,1407,0
2456,2861,1409,0
2454,2859,1407,0
2458,2861,1407,0
2456,2860,1406,0
2452,2861,1403,0
2453,2856,1400,0
2453,2860,1397,0
2451,2860,1396,0
2447,2856,1397,0
2447,2857,1400,0
2448,2857,1398,0
2447,2859,1402,0
2447,2858,1402,0
2448,2855,1402,0
2447,2854,1406,0
2448,2854,1403,0
2451,2855,1406,0
2448,2856,1410,0
2457,2855,1411,0
2457,2853,1413,0
2458,2851,1412,0
2457,2854,1413,0
2463,2852,1410,0
2463,2854,1411,0
2465,2856,1408,0
2465,2858,1407,0
2461,2855,1406,0
2460,2851,1405,0
2462,2852,1405,0
2461,2849,1405,0
2456,2850,1401,0
2453,2847,1399,0
2458,2847,1403,0
2458,2845,1401,0
2463,2847,1406,0
2463,2848,1404,0
2463,2848,1407,0
2466,2851,1408,0
2466,2852,1410,0
2462,2854,1407,0
2464,2854,1405,0
2460,2854,1406,0
2457,2855,1405,0
2459,2856,1407,0
2458,2853,1412,0
2459,2851,1412,0
2462,2855,1414,0
2459,2855,1414,0
2465,2856,1412,0
2465,2852,1405,0
2461,2850,1406,0
2457,2848,1404,0
2455,2848,1407,0
2459,2846,1406,0
2461,2848,1409,0
2460,2850,1411,0
2461,2842,1412,0
2460,2843,1410,0
2455,2843,1412,0
2457,2843,1415,0
2463,2838,1415,0
2465,2841,1417,0
2468,2840,1417,0
2468,2841,1417,0
2467,2839,1415,0
2463,2843,1416,0
2461,2845,1415,0
2461,2846,1416,0
2459,2848,1416,0
2463,2848,1417,0
2464,2850,1416,0
2459,2849,1415,0
2464,2847,1411,0
2465,2849,1409,0
2467,2849,1410,0
2466,2842,1411,0
2466,2844,1410,0
2465,2846,1410,0
2463,2850,1407,0
2464,2848,1406,0
2461,2844,1408,0
2460,2847,1412,0
2462,2846,1415,0
2464,2847,1415,0
2466,2845,1418,0
2468,2845,1421,0
2463,2843,1425,0
2467,2843,1424,0
2463,2844,1422,0
2464,2844,1420,0
2462,2844,1414,0
2456,2844,1412,0
2456,2845,1409,0
2457,2842,1411,0
2462,2840,1409,0
2463,2838,1410,0
2467,2838,1412,0
2471,2837,1413,0
2472,2841,1416,0
2475,2846,1416,0
2475,2843,1411,0
2474,2845,1409,0
2470,2846,1411,0
2468,2846,1411,0
2465,2849,1411,0
2462,2851,1412,0
2459,2851,1411,0
2455,2851,1410,0
2462,2850,1413,0
2464,2853,1412,0
2465,2854,1410,0
2467,2858,1403,0
2463,2859,1403,0
2462,2863,1396,0
2464,2864,1399,0
2464,2864,1400,0
2463,2863,1408,0
2461,2867,1414,0
2459,2863,1419,0
2458,2862,1424,0
2454,2858,1431,0
2451,2853,1435,0
2447,2847,1435,0
2443,2844,1431,0
2440,2842,1428,0
2436,2837,1420,0
2438,2836,1418,0
2439,2840,1410,0
2441,2842,1407,0
2447,2841,1406,0
2453,2843,1410,0
2456,2845,1415,0
2454,2843,1419,0
2460,2842,1423,0
2462,2843,1427,0
2464,2842,1427,0
2466,2836,1432,0
2467,2833,1433,0
2470,2833,1432,0
2468,2832,1433,0
2471,2831,1430,0
2470,2832,1427,0
2469,2825,1423,0
2465,2824,1419,0
2466,2828,1420,0
2468,2828,1422,0
2465,2830,1415,0
2467,2831,1417,0
2470,2831,1421,0
2470,2836,1422,0
2470,2834,1419,0
2468,2832,1421,0
2467,2837,1418,0
2464,2839,1420,0
2464,2839,1424,0
2465,2843,1424,0
2467,2843,1425,0
2469,2847,1426,0
2467,2850,1422,0
2468,2851,1419,0
2465,2852,1412,0
2461,2851,1409,0
2463,2850,1408,0
2458,2852,1410,0
2457,2852,1411,0
2455,2853,1409,0
2456,2856,1412,0
2459,2857,1420,0
2462,2853,1422,0
2462,2852,1424,0
2458,2852,1426,0
2457,2843,1428,0
2457,2843,1431,0
2455,2848,1426,0
2455,2850,1423,0
2454,2847,1420,0
2459,2845,1423,0
2458,2849,1421,0
2452,2848,1427,0
2451,2847,1429,0
2450,2847,1425,0
2444,2847,1423,0
2444,2841,1422,0
2448,2837,1427,0
2447,2842,1425,0
2447,2843,1425,0
2447,2840,1423,0
2450,2838,1421,0
2451,2842,1424,0
2452,2843,1424,0
2459,2844,1427,0
2463,2843,1426,0
2460,2845,1428,0
2462,2849,1424,0
2458,2850,1421,0
2456,2849,1422,0
2455,2853,1419,0
2455,2851,1424,0
2452,2850,1428,0
2457,2847,1427,0
2454,2848,1425,0
2452,2850,1425,0
2455,2844,1424,0
2456,2848,1422,0
2454,2847,1424,0
2452,2846,1425,0
2455,2848,1417,0
2459,2848,1417,0
2462,2846,1418,0
2465,2842,1420,0
2463,2839,1420,0
2462,2839,1418,0
2461,2843,1416,0
2454,2840,1418,0
2455,2840,1419,0
2454,2842,1418,0
2457,2840,1421,0
2464,2842,1424,0
2463,2842,1425,0
2461,2843,1425,0
2461,2845,1422,0
2464,2844,1424,0
2459,2844,1424,0
2453,2847,1427,0
2455,2847,1429,0
2457,2848,1429,0
2454,2847,1435,0
2452,2841,1434,0
2455,2838,1441,0
2452,2840,1437,0
2453,2840,1434,0
2451,2836,1435,0
2450,2834,1433,0
2453,2837,1434,0
2455,2839,1433,0
2452,2839,1435,0
2454,2844,1434,0
2452,2846,1433,0
2453,2844,1431,0
2452,2846,1429,0
2451,2847,1431,0
2450,2849,1432,0
2447,2851,1433,0
2447,2853,1429,0
2436,2853,1426,0
2435,2852,1428,0
2436,2848,1427,0
2440,2849,1431,0
2443,2850,1432,0
2446,2850,1437,0
2452,2850,1439,0
2453,2848,1436,0
2450,2849,1430,0
2453,2848,1425,0
2454,2847,1423,0
2455,2845,1423,0
2459,2842,1427,0
2464,2839,1429,0
2463,2839,1427,0
2462,2838,1427,0
2466,2837,1429,0
2460,2832,1424,0
2462,2831,1422,0
2456,2831,1419,0
2455,2837,1419,0
2455,2841,1421,0
2454,2845,1429,0
2451,2848,1434,0
2451,2854,1437,0
2448,2856,1433,0
2448,2863,1429,0
2444,2865,1428,0
2447,2864,1426,0
2452,2868,1423,0
2455,2869,1421,0
2451,2867,1421,0
2449,2864,1415,0
2454,2863,1414,0
2452,2860,1414,0
2452,2853,1414,0
2449,2850,1420,0
2450,2847,1424,0
2451,2846,1435,0
2454,2846,1439,0
2455,2841,1442,0
2453,2839,1447,0
2448,2833,1448,0
2448,2830,1444,0
2445,2828,1439,0
2444,2830,1437,0
2446,2830,1433,0
2447,2837,1428,0
2449,2836,1424,0
2454,2836,1428,0
2455,2836,1428,0
2459,2836,1431,0
2462,2835,1433,0
2460,2829,1428,0
2458,2828,1431,0
2463,2829,1434,0
2458,2824,1437,0
2460,2823,1433,0
2458,2823,1436,0
2461,2820,1442,0
2464,2820,1442,0
2462,2821,1442,0
2465,2823,1444,0
2469,2830,1440,0
2470,2833,1434,0
2469,2833,1429,0
2470,2836,1426,0
2470,2836,1423,0
2470,2839,1424,0
2468,2840,1424,0
2465,2841,1424,0
2464,2843,1426,0
2459,2837,1424,0
2456,2836,1425,0
2452,2838,1426,0
2451,2844,1424,0
2454,2846,1423,0
2451,2847,1424,0
2453,2849,1420,0
2455,2854,1419,0
2458,2856,1422,0
2459,2859,1422,0
2459,2857,1423,0
2458,2855,1431,0
2454,2853,1434,0
2455,2854,1431,0
2457,2854,1433,0
2449,2848,1432,0
2447,2845,1433,0
2445,2842,1436,0
2443,2837,1434,0
2440,2836,1439,0
2442,2841,1438,0
2442,2845,1434,0
2446,2851,1433,0
2452,2851,1431,0
2452,2851,1431,0
2451,2854,1425,0
2454,2856,1430,0
2453,2856,1429,0
2457,2856,1431,0
2451,2855,1433,0
2446,2854,1433,0
2444,2853,1428,0
2441,2851,1425,0
2439,2848,1420,0
2438,2848,1422,0
2440,2847,1420,0
2440,2849,1421,0
2446,2850,1424,0
2446,2849,1429,0
2448,2847,1426,0
2449,2846,1426,0
2451,2845,1428,0
2446,2844,1430,0
2445,2847,1429,0
2449,2847,1427,0
2457,2847,1430,0
2455,2849,1427,0
2459,2851,1429,0
2456,2853,1427,0
2453,2851,1426,0
2452,2853,1426,0
2447,2849,1425,0
2448,2849,1423,0
2447,2851,1425,0
2451,2850,1425,0
2452,2849,1428,0
2454,2851,1432,0
2453,2848,1432,0
2457,2849,1433,0
2454,2849,1436,0
2447,2847,1434,0
2445,2848,1429,0
2446,2848,1433,0
2447,2849,1436,0
2454,2848,1438,0
2452,2848,1437,0
2448,2847,1434,0
2449,2848,1430,0
2451,2847,1427,0
2452,2846,1428,0
2451,2846,1428,0
2446,2847,1429,0
2446,2845,1434,0
2448,2844,1437,0
2451,2841,1439,0
2448,2842,1439,0
2450,2841,1437,0
2446,2840,1434,0
2445,2840,1435,0
2443,2843,1437,0
2447,2843,1441,0
2448,2845,1440,0
2450,2850,1440,0
2450,2851,1437,0
2453,2852,1433,0
2454,2852,1433,0
2449,2850,1431,0
2448,2848,1427,0
2450,2851,1425,0
2447,2853,1425,0
2443,2850,1425,0
2440,2853,1426,0
2441,2854,1429,0
2445,2855,1427,0
2446,2854,1432,0
2449,2852,1430,0
2446,2856,1430,0
2449,2856,1432,0
2453,2855,1427,0
2459,2853,1432,0
2457,2856,1436,0
2457,2853,1440,0
2456,2854,1443,0
2457,2851,1445,0
2455,2850,1442,0
2447,2841,1446,0
2448,2838,1443,0
2444,2836,1443,0
2448,2831,1440,0
2446,2830,1434,0
2449,2832,1433,0
2455,2831,1433,0
2458,2831,1431,0
2452,2832,1433,0
2453,2839,1433,0
2453,2841,1435,0
2451,2842,1440,0
2449,2845,1442,0
2443,2845,1437,0
2445,2847,1436,0
2444,2848,1433,0
2438,2851,1432,0
2433,2852,1430,0
2434,2855,1432,0
2430,2856,1434,0
2429,2859,1433,0
2426,2861,1435,0
2428,2864,1437,0
2425,2867,1436,0
2426,2868,1441,0
2429,2870,1447,0
2427,2868,1447,0
2424,2867,1450,0
2424,2864,1447,0
2424,2862,1446,0
2422,2862,1444,0
2417,2861,1443,0
2414,2861,1445,0
2411,2861,1445,0
2413,2860,1444,0
2413,2858,1441,0
2415,2861,1441,0
2415,2865,1441,0
2416,2865,1440,0
2415,2865,1440,0
2419,2863,1441,0
2426,2861,1446,0
2435,2861,1450,0
2438,2861,1449,0
2439,2858,1446,0
2442,2858,1443,0
2439,2857,1438,0
2440,2855,1435,0
2438,2853,1436,0
2438,2851,1430,0
2436,2851,1429,0
2437,2852,1427,0
2435,2852,1432,0
2440,2849,1435,0
2441,2849,1436,0
2442,2849,1434,0
2440,2850,1436,0
2440,2850,1438,0
2440,2850,1436,0
2439,2853,1438,0
2438,2852,1438,0
2440,2850,1436,0
2440,2851,1432,0
2440,2855,1436,0
2441,2853,1438,0
2439,2859,1438,0
2440,2860,1437,0
2435,2863,1436,0
2432,2862,1433,0
2431,2860,1432,0
2432,2860,1436,0
2431,2859,1438,0
2432,2863,1432,0
2429,2864,1433,0
2430,2861,1438,0
2434,2860,1441,0
2438,2863,1440,0
2436,2865,1439,0
2438,2867,1434,0
2436,2869,1431,0
2435,2868,1434,0
2432,2869,1438,0
2430,2867,1439,0
2425,2864,1435,0
2422,2870,1434,0
2423,2869,1436,0
2419,2869,1437,0
2422,2866,1442,0
2423,2862,1443,0
2424,2862,1440,0
2422,2864,1445,0
2426,2865,1441,0
2429,2870,1435,0
2432,2871,1429,0
2433,2870,1425,0
2433,2870,1426,0
2437,2869,1430,0
2438,2871,1430,0
2435,2870,1431,0
2430,2869,1431,0
2432,2868,1432,0
2433,2864,1432,0
2431,2861,1431,0
2431,2860,1435,0
2432,2858,1435,0
2432,2856,1435,0
2433,2855,1434,0
2436,2857,1435,0
2439,2858,1437,0
2439,2860,1440,0
2436,2862,1437,0
2435,2861,1435,0
2437,2860,1435,0
2433,2863,1435,0
2434,2863,1435,0
2431,2865,1434,0
2431,2863,1434,0
2434,2862,1433,0
2432,2859,1434,0
2433,2860,1434,0
2432,2859,1434,0
2429,2856,1433,0
2435,2856,1438,0
2438,2856,1436,0
2437,2856,1437,0
2433,2854,1436,0
2436,2856,1434,0
2433,2854,1433,0
2434,2854,1432,0
2432,2855,1436,0
2434,2856,1437,0
2434,2857,1439,0
2436,2857,1439,0
2437,2860,1440,0
2436,2861,1442,0
2434,2859,1441,0
2435,2858,1443,0
2438,2860,1443,0
2438,2858,1444,0
2432,2856,1445,0
2433,2856,1444,0
2436,2859,1442,0
2431,2858,1444,0
2434,2860,1440,0
2432,2858,1439,0
2433,2860,1437,0
2432,2861,1440,0
2427,2861,1437,0
2427,2858,1438,0
2423,2855,1439,0
2423,2857,1439,0
2423,2855,1440,0
2421,2861,1442,0
2422,2861,1442,0
2428,2860,1444,0
2429,2859,1445,0
2430,2861,1446,0
2430,2859,1450,0
2431,2861,1449,0
2429,2861,1445,0
2429,2858,1441,0
2431,2862,1440,0
2432,2863,1436,0
2432,2864,1438,0
2435,2861,1437,0
2436,2860,1442,0
2436,2856,1437,0
2434,2852,1434,0
2438,2851,1437,0
2437,2850,1435,0
2439,2849,1434,0
2441,2848,1430,0
2441,2849,1430,0
2439,2849,1433,0
2433,2854,1434,0
2434,2861,1430,0
2428,2862,1429,0
2429,2864,1435,0
2432,2870,1438,0
2435,2872,1436,0
2439,2874,1438,0
2435,2877,1442,0
2434,2880,1439,0
2437,2881,1434,0
2436,2881,1433,0
2432,2877,1429,0
2425,2877,1426,0
2425,2876,1432,0
2423,2873,1435,0
2426,2872,1439,0
2428,2870,1442,0
2425,2870,1447,0
2426,2864,1447,0
2425,2862,1449,0
2424,2857,1449,0
2419,2852,1453,0
2417,2852,1450,0
2415,2855,1447,0
2416,2855,1450,0
2416,2853,1452,0
2417,2851,1453,0
2419,2850,1451,0
2425,2851,1455,0
2429,2851,1451,0
2428,2847,1452,0
2430,2850,1451,0
2432,2848,1454,0
2434,2846,1453,0
2436,2846,1448,0
2434,2840,1448,0
2436,2841,1449,0
2433,2842,1450,0
2433,2845,1452,0
2435,2844,1449,0
2438,2848,1445,0
2440,2849,1443,0
2441,2848,1444,0
2442,2849,1443,0
2439,2850,1444,0
2438,2850,1445,0
2438,2850,1445,0
2441,2850,1444,0
2439,2851,1445,0
2436,2853,1442,0
2432,2851,1441,0
2427,2853,1441,0
2428,2854,1442,0
2428,2856,1447,0
2423,2854,1448,0
2425,2855,1449,0
2426,2858,1446,0
2427,2858,1444,0
2429,2863,1439,0
2434,2861,1436,0
2437,2862,1430,0
2439,2865,1424,0
2436,2868,1426,0
2433,2862,1429,0
2433,2859,1432,0
2427,2861,1439,0
2426,2862,1443,0
2426,2868,1445,0
2423,2869,1444,0
2422,2871,1444,0
2427,2869,1442,0
2430,2865,1441,0
2431,2866,1441,0
2432,2865,1438,0
2438,2866,1439,0
2436,2865,1437,0
2437,2862,1433,0
2432,2859,1433,0
2432,2859,1435,0
2431,2858,1437,0
2429,2856,1437,0
2432,2856,1439,0
2431,2860,1439,0
2424,2862,1439,0
2426,2861,1443,0
2422,2860,1444,0
2426,2859,1450,0
2429,2861,1451,0
2428,2864,1449,0
2430,2863,1443,0
2426,2859,1446,0
2432,2861,1446,0
2434,2864,1440,0
2430,2866,1436,0
2435,2865,1438,0
2435,2860,1440,0
2439,2856,1440,0
2437,2857,1439,0
2431,2854,1436,0
2428,2856,1438,0
2424,2859,1437,0
2429,2859,1439,0
2426,2858,1441,0
2427,2854,1442,0
2429,2855,1443,0
2431,2855,1446,0
2432,2858,1448,0
2434,2856,1447,0
2435,2857,1443,0
2432,2859,1444,0
2432,2858,1441,0
2435,2857,1439,0
2437,2855,1444,0
2434,2855,1447,0
2433,2854,1451,0
2433,2851,1455,0
2431,2848,1458,0
2433,2850,1459,0
2433,2849,1459,0
2431,2850,1460,0
2428,2851,1457,0
2432,2851,1457,0
2432,2848,1454,0
2433,2848,1452,0
2428,2849,1450,0
2424,2850,1450,0
2425,2850,1449,0
2427,2851,1453,0
2424,2852,1457,0
2425,2854,1456,0
2424,2856,1453,0
2422,2855,1453,0
2421,2852,1457,0
2424,2854,1455,0
2425,2854,1457,0
2424,2853,1459,0
2425,2851,1458,0
2429,2854,1457,0
2432,2855,1456,0
2437,2855,1454,0
2438,2856,1455,0
2436,2853,1459,0
2435,2849,1462,0
2435,2849,1464,0
2434,2850,1462,0
2432,2849,1458,0
2430,2852,1454,0
2427,2850,1449,0
2426,2852,1440,0
2432,2852,1438,0
2437,2849,1439,0
2442,2849,1444,0
2444,2848,1445,0
2446,2848,1451,0
2447,2849,1450,0
2446,2848,1445,0
2442,2849,1443,0
2438,2852,1442,0
2435,2851,1441,0
2436,2851,1445,0
2432,2854,1446,0
2429,2854,1446,0
2427,2857,1447,0
2422,2860,1448,0
2420,2864,1449,0
2422,2865,1450,0
2424,2864,1450,0
2425,2862,1448,0
2430,2864,1449,0
2436,2867,1447,0
2429,2872,1442,0
2430,2871,1436,0
2432,2871,1433,0
2433,2871,1431,0
2429,2870,1435,0
2427,2869,1442,0
2427,2867,1448,0
2430,2859,1457,0
2431,2857,1463,0
2426,2855,1471,0
2424,2851,1475,0
2418,2850,1474,0
2416,2849,1471,0
2412,2843,1469,0
2413,2836,1465,0
2413,2842,1461,0
2416,2839,1458,0
2419,2840,1457,0
2425,2838,1458,0
2430,2841,1460,0
2433,2844,1459,0
2432,2847,1458,0
2432,2849,1457,0
2435,2848,1457,0
2438,2846,1458,0
2442,2847,1457,0
2443,2845,1458,0
2444,2845,1456,0
2438,2847,1450,0
2439,2848,1449,0
2441,2847,1448,0
2438,2838,1449,0
2438,2835,1448,0
2440,2840,1450,0
2438,2839,1450,0
2439,2843,1449,0
2439,2847,1449,0
2440,2849,1449,0
2441,2847,1452,0
2437,2851,1449,0
2433,2850,1449,0
2433,2851,1450,0
2432,2856,1450,0
2431,2854,1451,0
2431,2853,1451,0
2431,2852,1451,0
2432,2854,1449,0
2429,2854,1450,0
2428,2855,1449,0
2426,2860,1448,0
2426,2857,1442,0
2430,2860,1440,0
2433,2857,1441,0
2432,2859,1444,0
2431,2863,1444,0
2433,2864,1443,0
2434,2864,1446,0
2429,2866,1448,0
2427,2865,1448,0
2426,2862,1449,0
2420,2859,1451,0
2419,2862,1455,0
2417,2863,1458,0
2416,2865,1460,0
2420,2867,1461,0
2421,2865,1459,0
2425,2866,1455,0
2429,2858,1449,0
2429,2856,1450,0
2429,2855,1447,0
2431,2854,1449,0
2426,2852,1446,0
2428,2852,1444,0
2427,2854,1449,0
2428,2852,1449,0
2427,2854,1449,0
2431,2857,1451,0
2432,2858,1452,0
2431,2859,1452,0
2433,2858,1448,0
2435,2863,1450,0
2434,2865,1450,0
2438,2865,1444,0
2437,2865,1443,0
2434,2865,1442,0
2433,2862,1442,0
2431,2863,1441,0
2430,2863,1442,0
2430,2860,1436,0
2428,2857,1438,0
2433,2858,1438,0
2435,2857,1436,0
2438,2856,1437,0
2440,2854,1438,0
2440,2856,1437,0
2441,2858,1438,0
2437,2859,1443,0
2432,2858,1445,0
2436,2857,1446,0
2435,2856,1447,0
2433,2855,1451,0
2435,2853,1449,0
2433,2854,1446,0
2435,2853,1450,0
2436,2854,1457,0
2436,2851,1463,0
2432,2850,1462,0
2431,2849,1465,0
2428,2849,1460,0
2430,2845,1460,0
2425,2845,1458,0
2427,2846,1456,0
2425,2847,1458,0
2423,2848,1460,0
2430,2846,1461,0
2429,2846,1458,0
2433,2848,1457,0
2432,2851,1456,0
2427,2850,1456,0
2429,2848,1453,0
2429,2851,1449,0
2426,2851,1450,0
2427,2854,1449,0
2427,2857,1447,0
2427,2857,1452,0
2428,2854,1454,0
2430,2855,1454,0
2427,2859,1454,0
2431,2858,1453,0
2429,2856,1449,0
2430,2851,1447,0
2429,2856,1447,0
2433,2856,1446,0
2434,2854,1445,0
2435,2859,1445,0
2433,2859,1442,0
2427,2857,1442,0
2424,2859,1444,0
2426,2860,1442,0
2431,2861,1443,0
2436,2857,1446,0
2437,2855,1449,0
2438,2853,1447,0
2440,2855,1446,0
2441,2854,1442,0
2440,2851,1439,0
2440,2851,1437,0
2439,2850,1438,0
2439,2852,1438,0
2433,2853,1441,0
2432,2856,1442,0
2434,2857,1442,0
2433,2863,1440,0
2427,2864,1444,0
2431,2863,1446,0
2425,2865,1448,0
2429,2864,1447,0
2430,2867,1445,0
2429,2869,1448,0
2432,2874,1444,0
2427,2873,1439,0
2429,2872,1437,0
2427,2872,1437,0
2430,2870,1440,0
2429,2869,1446,0
2424,2869,1447,0
2424,2866,1450,0
2426,2865,1452,0
2425,2857,1456,0
2422,2852,1458,0
2421,2849,1458,0
2418,2851,1456,0
2418,2850,1453,0
2416,2851,1450,0
2415,2851,1454,0
2417,2851,1452,0
2419,2851,1450,0
2421,2853,1449,0
2430,2854,1450,0
2436,2852,1449,0
2437,2849,1452,0
2438,2850,1451,0
2435,2849,1451,0
2438,2845,1452,0
2437,2843,1449,0
2438,2844,1446,0
2436,2842,1449,0
2438,2845,1449,0
2437,2845,1450,0
2439,2843,1448,0
2441,2845,1448,0
2443,2846,1449,0
2444,2849,1449,0
2444,2852,1446,0
2443,2851,1446,0
2443,2851,1445,0
2441,2855,1439,0
2437,2856,1440,0
2434,2856,1439,0
2433,2854,1444,0
2430,2854,1448,0
2432,2851,1450,0
2430,2852,1451,0
2431,2857,1448,0
2435,2858,1446,0
2435,2859,1441,0
2436,2859,1439,0
2433,2863,1432,0
2433,2863,1434,0
2430,2862,1431,0
2427,2860,1432,0
2431,2860,1436,0
2427,2863,1438,0
2427,2863,1443,0
2430,2862,1446,0
2427,2862,1449,0
2424,2862,1448,0
2422,2858,1449,0
2427,2856,1451,0
2427,2858,1452,0
2424,2860,1453,0
2425,2860,1452,0
2426,2858,1452,0
2422,2861,1453,0
2424,2859,1452,0
2423,2860,1448,0
2424,2862,1445,0
2424,2868,1440,0
2427,2864,1435,0
2424,2862,1435,0
2427,2864,1437,0
2429,2865,1440,0
2432,2864,1439,0
2431,2865,1444,0
2427,2864,1444,0
2427,2861,1446,0
2429,2861,1443,0
2432,2861,1444,0
2429,2860,1445,0
2431,2858,1446,0
2432,2858,1443,0
2431,2857,1446,0
2434,2857,1441,0
2436,2858,1437,0
2438,2857,1436,0
2438,2856,1433,0
2438,2861,1436,0
2439,2859,1436,0
2432,2859,1432,0
2430,2864,1434,0
2431,2864,1436,0
2431,2864,1434,0
2428,2864,1439,0
2428,2863,1442,0
2428,2860,1442,0
2430,2860,1447,0
2431,2859,1450,0
2435,2858,1450,0
2430,2858,1449,0
2433,2858,1449,0
2433,2856,1446,0
2435,2855,1445,0
2430,2856,1444,0
2431,2854,1445,0
2431,2855,1441,0
2428,2854,1441,0
2427,2856,1442,0
2429,2853,1442,0
2430,2854,1444,0
2431,2860,1447,0
2427,2857,1446,0
2429,2857,1445,0
2429,2855,1445,0
2431,2854,1442,0
2426,2859,1443,0
2430,2860,1441,0
2429,2864,1443,0
2430,2860,1449,0
2432,2863,1448,0
2430,2864,1451,0
2431,2864,1448,0
2431,2862,1444,0
2427,2862,1446,0
2426,2861,1443,0
2423,2859,1441,0
2428,2861,1440,0
2430,2859,1444,0
2434,2855,1446,0
2431,2853,1447,0
2427,2853,1447,0
2428,2853,1445,0
2427,2854,1441,0
2427,2856,1437,0
2429,2859,1436,0
2434,2860,1431,0
2434,2861,1435,0
2437,2864,1436,0
2439,2864,1438,0
2439,2860,1441,0
2440,2859,1437,0
2440,2862,1436,0
2440,2859,1431,0
2433,2858,1431,0
2436,2853,1428,0
2436,2852,1430,0
2432,2850,1427,0
2433,2849,1429,0
2433,2851,1433,0
2436,2854,1436,0
2439,2859,1435,0
2442,2860,1438,0
2443,2859,1441,0
2443,2858,1434,0
2450,2860,1435,0
2446,2863,1436,0
2445,2864,1430,0
2445,2864,1427,0
2443,2863,1422,0
2439,2864,1423,0
2439,2862,1425,0
2432,2857,1432,0
2428,2855,1440,0
2423,2854,1446,0
2418,2853,1455,0
2418,2852,1459,0
2414,2852,1463,0
2407,2849,1471,0
2402,2853,1474,0
2393,2855,1476,0
2391,2857,1476,0
2387,2864,1472,0
2388,2866,1470,0
2382,2871,1466,0
2387,2872,1472,0
2389,2875,1475,0
2393,2873,1471,0
2395,2869,1465,0
2396,2872,1464,0
2401,2870,1464,0
2408,2864,1464,0
2413,2865,1464,0
2418,2862,1460,0
2420,2855,1457,0
2417,2852,1449,0
2420,2851,1449,0
2420,2852,1449,0
2419,2851,1445,0
2421,2851,1447,0
2423,2855,1448,0
2429,2854,1446,0
2433,2855,1446,0
2437,2857,1445,0
2438,2856,1443,0
2435,2858,1441,0
2437,2859,1438,0
2438,2861,1438,0
2439,2859,1439,0
2437,2862,1443,0
2435,2861,1442,0
2432,2865,1446,0
2434,2869,1446,0
2434,2868,1442,0
2427,2867,1440,0
2424,2867,1437,0
2429,2869,1433,0
2423,2863,1431,0
2419,2865,1430,0
2424,2867,1432,0
2427,2866,1433,0
2428,2865,1432,0
2430,2863,1436,0
2428,2865,1434,0
2429,2862,1435,0
2430,2864,1436,0
2429,2862,1436,0
2433,2865,1436,0
2435,2861,1440,0
2432,2862,1438,0
2430,2865,1437,0
2425,2867,1435,0
2425,2868,1435,0
2420,2874,1431,0
2420,2874,1436,0
2418,2874,1436,0
2418,2872,1441,0
2416,2874,1441,0
2417,2872,1441,0
2420,2874,1442,0
2421,2873,1441,0
2422,2869,1443,0
2422,2869,1436,0
2421,2869,1432,0
2422,2875,1437,0
2427,2876,1433,0
2427,2872,1436,0
2430,2874,1435,0
2433,2872,1439,0
2433,2869,1433,0
2432,2867,1433,0
2430,2872,1434,0
2431,2867,1432,0
2428,2867,1434,0
2433,2864,1435,0
2433,2861,1434,0
2433,2861,1438,0
2436,2861,1441,0
2438,2861,1445,0
2436,2860,1446,0
2432,2859,1445,0
2428,2856,1445,0
2426,2857,1442,0
2429,2852,1443,0
2424,2851,1441,0
2425,2851,1441,0
2427,2852,1444,0
2429,2851,1443,0
2432,2851,1447,0
2431,2851,1450,0
2432,2853,1448,0
2434,2853,1450,0
2434,2853,1445,0
2430,2857,1442,0
2433,2862,1444,0
2436,2858,1446,0
2434,2858,1447,0
2435,2856,1445,0
2437,2856,1444,0
2437,2855,1447,0
2434,2853,1450,0
2431,2852,1452,0
2429,2852,1448,0
2425,2851,1444,0
2422,2851,1441,0
2424,2852,1439,0
2429,2853,1440,0
2429,2856,1440,0
2428,2852,1436,0
2432,2850,1440,0
2436,2855,1443,0
2437,2853,1444,0
2437,2854,1448,0
2439,2852,1453,0
2438,2851,1452,0
2437,2852,1449,0
2438,2850,1445,0
2434,2851,1444,0
2430,2856,1439,0
2429,2859,1441,0
2428,2860,1440,0
2427,2862,1441,0
2426,2866,1444,0
2425,2868,1446,0
2427,2871,1446,0
2428,2869,1446,0
2427,2868,1449,0
2426,2862,1447,0
2429,2861,1444,0
2428,2863,1442,0
2428,2862,1444,0
2430,2859,1442,0
2427,2857,1440,0
2424,2858,1435,0
2428,2861,1435,0
2425,2864,1440,0
2424,2867,1436,0
2425,2866,1438,0
2428,2869,1439,0
2431,2869,1435,0
2432,2872,1433,0
2433,2872,1430,0
2429,2872,1428,0
2434,2875,1425,0
2436,2875,1425,0
2437,2875,1423,0
2436,2877,1423,0
2432,2874,1431,0
2436,2866,1436,0
2432,2863,1439,0
2429,2860,1445,0
2427,2856,1446,0
2422,2852,1450,0
2423,2851,1456,0
2417,2848,1459,0
2421,2848,1462,0
2419,2843,1458,0
2419,2845,1455,0
2419,2848,1451,0
2419,2852,1451,0
2418,2857,1450,0
2417,2860,1450,0
2424,2860,1449,0
2423,2859,1448,0
2424,2859,1448,0
2425,2860,1446,0
2423,2861,1449,0
2421,2860,1447,0
2429,2854,1455,0
2433,2849,1456,0
2434,2842,1457,0
2437,2841,1456,0
2436,2840,1457,0
2437,2841,1453,0
2435,2844,1452,0
2435,2847,1445,0
2435,2846,1445,0
2434,2846,1442,0
2433,2846,1440,0
2435,2851,1443,0
2438,2855,1446,0
2436,2860,1447,0
2436,2860,1447,0
2434,2861,1450,0
2433,2857,1449,0
2431,2860,1454,0
2425,2858,1457,0
2426,2857,1455,0
2422,2854,1458,0
2417,2855,1451,0
2418,2859,1448,0
2421,2860,1446,0
2425,2860,1443,0
2431,2861,1440,0
2435,2860,1436,0
2431,2861,1434,0
2433,2861,1433,0
2428,2864,1430,0
2430,2869,1436,0
2431,2872,1439,0
2431,2873,1443,0
2430,2873,1441,0
2427,2874,1442,0
2421,2872,1442,0
2423,2869,1443,0
2420,2870,1445,0
2420,2868,1446,0
2418,2868,1449,0
2421,2869,1446,0
2419,2863,1450,0
2422,2866,1446,0
2420,2867,1446,0
2416,2866,1447,0
2413,2865,1447,0
2414,2870,1452,0
2419,2868,1452,0
2418,2866,1454,0
2419,2868,1454,0
2424,2864,1452,0
2427,2864,1455,0
2423,2861,1454,0
2425,2859,1455,0
2424,2855,1452,0
