accelerometer_x,accelerometer_y,accelerometer_z,fall
3109,797,672,1
3077,871,716,1
3055,923,751,1
3046,955,776,1
3040,972,785,1
3061,982,809,1
3088,997,829,1
3101,1000,845,1
3119,996,857,1
3137,1000,861,1
3162,987,872,1
3190,972,875,1
3214,937,883,1
3238,889,900,1
3252,829,903,1
3260,768,896,1
3271,698,890,1
3281,624,887,1
3300,561,897,1
3321,489,909,1
3339,419,933,1
3362,340,929,1
3385,284,933,1
3394,228,937,1
3394,177,950,1
3387,134,927,1
3365,98,912,1
3338,61,911,1
3314,34,913,1
3283,36,905,1
3260,45,891,1
3253,41,881,1
3259,25,869,1
3261,1,859,1
3256,-27,865,1
3255,-62,874,1
3256,-102,905,1
3250,-154,938,1
3239,-215,952,1
3223,-271,957,1
3209,-329,948,1
3211,-389,946,1
3224,-449,955,1
3231,-494,963,1
3248,-547,976,1
3261,-591,991,1
3282,-615,1003,1
3306,-640,1031,1
3325,-666,1078,1
3348,-682,1133,1
3363,-706,1162,1
3410,-712,1189,1
3434,-736,1169,1
3445,-758,1143,1
3448,-782,1114,1
3439,-801,1091,1
3448,-807,1091,1
3452,-812,1089,1
3482,-800,1119,1
3565,-741,1189,1
3650,-667,1261,1
3736,-607,1337,1
3824,-547,1399,1
3886,-494,1418,1
3936,-480,1410,1
3984,-471,1378,1
4027,-470,1317,1
4064,-473,1244,1
4117,-506,1184,1
4198,-572,1176,1
4265,-603,1159,1
4307,-682,1073,1
4317,-732,1025,1
4319,-826,1003,1
4333,-935,1041,1
4382,-1065,1131,1
4445,-1156,1288,1
4499,-1264,1454,1
4587,-1447,1661,1
4669,-1607,1877,1
4732,-1665,2028,1
4803,-1649,2104,1
4906,-1601,2167,1
5008,-1510,2184,1
5082,-1417,2149,1
5111,-1294,2132,1
5164,-1190,2156,1
5229,-1020,2170,1
5253,-807,2145,1
5256,-633,2070,1
5283,-502,1943,1
5385,-357,1823,1
5548,-170,1667,1
5713,57,1448,1
5879,320,1160,1
6015,568,867,1
6166,772,606,1
6257,925,450,1
6204,1070,410,1
6009,1199,493,1
5693,1208,575,1
5328,1134,711,1
4916,1044,881,1
4479,918,1055,1
4083,789,1192,1
3720,637,1210,1
3403,478,1163,1
3186,336,1129,1
3073,201,1121,1
3049,121,1143,1
3141,93,1195,1
3265,44,1161,1
3341,14,1032,1
3356,-39,828,1
3341,-107,588,1
3299,-186,347,1
3283,-260,166,1
3280,-334,47,1
3296,-348,-11,1
3328,-351,-115,1
3392,-339,-204,1
3490,-314,-261,1
3616,-261,-264,1
3742,-193,-258,1
3860,-108,-251,1
3978,-16,-206,1
4138,152,-81,1
4268,175,-80,1
4292,205,-18,1
4337,262,117,1
4389,329,223,1
4420,428,309,1
4442,495,402,1
4468,552,508,1
4459,600,585,1
4436,643,647,1
4412,664,712,1
4385,656,770,1
4344,625,813,1
4293,599,839,1
4232,573,859,1
4185,546,875,1
4143,507,889,1
4097,469,849,1
4059,418,759,1
4006,364,644,1
3945,307,548,1
3897,242,486,1
3856,178,466,1
3825,106,433,1
3808,44,379,1
3793,-20,337,1
3765,-69,323,1
3722,-110,317,1
3688,-165,337,1
3686,-228,375,1
3667,-262,393,1
3633,-290,356,1
3570,-351,308,1
3493,-362,301,1
3415,-341,328,1
3340,-319,375,1
3300,-275,371,1
3280,-262,419,1
3266,-260,429,1
3254,-231,426,1
3262,-209,429,1
3270,-216,430,1
3268,-195,436,1
3263,-177,419,1
3253,-164,410,1
3234,-129,425,1
3232,-109,452,1
3236,-69,490,1
3265,-23,521,1
3308,25,543,1
3361,60,566,1
3442,93,594,1
3535,97,621,1
3592,110,645,1
3648,125,661,1
3684,140,674,1
3686,143,677,1
3686,142,683,1
3678,127,689,1
3653,107,674,1
3651,88,680,1
3687,58,692,1
3710,31,690,1
3727,14,710,1
3729,-11,712,1
3734,-30,714,1
3753,-53,735,1
3784,-69,767,1
3796,-80,787,1
3805,-91,778,1
3810,-97,763,1
3819,-96,758,1
3832,-108,747,1
3859,-118,741,1
3891,-120,732,1
3930,-126,731,1
3955,-118,742,1
4001,-126,761,1
4050,-129,794,1
4094,-105,845,1
4130,-88,893,1
4152,-44,943,1
4165,-15,956,1
4160,25,981,1
4153,55,992,1
4132,92,971,1
4109,164,939,1
4092,164,823,1
4089,143,733,1
4062,122,671,1
4035,71,621,1
4006,28,584,1
3994,-13,547,1
3990,-53,539,1
3990,-80,533,1
4012,-107,532,1
4032,-122,539,1
4041,-131,548,1
4062,-140,584,1
4091,-196,620,1
4133,-231,662,1
4177,-238,687,1
4210,-224,707,1
4225,-242,721,1
4213,-231,741,1
4178,-226,726,1
4141,-242,737,1
4085,-213,806,1
4079,-258,838,1
4089,-315,909,1
4103,-311,976,1
4136,-329,960,1
4159,-355,957,1
4196,-370,1018,1
4262,-349,1099,1
4326,-335,1141,1
4380,-368,1104,1
4424,-385,1053,1
4464,-374,1036,1
4506,-364,1034,1
4561,-347,1024,1
4611,-323,1031,1
4674,-296,1029,1
4730,-218,1031,1
4792,-137,1033,1
4827,-70,996,1
4887,-2,926,1
4927,107,887,1
4962,212,821,1
4991,313,716,1
4969,406,613,1
4939,516,549,1
4911,639,530,1
4867,772,513,1
4815,951,488,1
4744,1139,438,1
4626,1338,397,1
4496,1526,386,1
4348,1741,389,1
4217,1954,388,1
4097,2145,384,1
3997,2276,402,1
3908,2374,446,1
3843,2427,516,1
3802,2461,610,1
3786,2470,692,1
3809,2455,770,1
3869,2401,840,1
3940,2313,883,1
4028,2229,909,1
4123,2157,952,1
4210,2075,1005,1
4280,1970,1054,1
4313,1874,1106,1
4307,1788,1175,1
4291,1675,1192,1
4261,1540,1147,1
4216,1396,1118,1
4184,1269,1132,1
4192,1169,1220,1
4195,1088,1305,1
4195,1026,1344,1
4210,939,1335,1
4232,864,1278,1
4263,785,1221,1
4269,711,1158,1
4261,621,1146,1
4258,528,1167,1
4250,478,1186,1
4180,421,1130,1
4090,373,1024,1
4014,341,929,1
3948,312,866,1
3832,302,747,1
3733,314,698,1
3647,332,707,1
3548,335,695,1
3464,354,682,1
3420,373,718,1
3397,392,850,1
3367,413,994,1
3327,455,1070,1
3288,530,1036,1
3240,597,839,1
3188,643,548,1
3186,647,283,1
3216,621,152,1
3269,609,183,1
3332,632,283,1
3371,664,396,1
3388,722,514,1
3369,779,626,1
3331,817,702,1
3272,836,756,1
3216,841,806,1
3133,851,820,1
3056,826,818,1
2997,776,810,1
2962,710,811,1
2929,640,814,1
2915,570,829,1
2930,501,872,1
2946,419,906,1
2981,358,940,1
3042,292,969,1
3121,223,985,1
3198,171,982,1
3270,111,962,1
3345,62,934,1
3416,20,910,1
3482,-26,887,1
3549,-82,872,1
3599,-140,849,1
3635,-196,839,1
3661,-252,832,1
3674,-303,818,1
3684,-368,793,1
3688,-437,771,1
3692,-513,757,1
3685,-582,753,1
3695,-654,754,1
3704,-709,766,1
3693,-783,754,1
3647,-869,729,1
3611,-920,739,1
3565,-951,784,1
3544,-959,884,1
3543,-968,987,1
3576,-947,1073,1
3606,-914,1109,1
3627,-840,1112,1
3647,-743,1105,1
3675,-650,1135,1
3702,-564,1186,1
3715,-481,1245,1
3696,-420,1288,1
3668,-384,1311,1
3668,-425,1331,1
3653,-492,1336,1
3639,-539,1323,1
3640,-573,1304,1
3647,-554,1276,1
3657,-543,1230,1
3650,-527,1179,1
3641,-493,1140,1
3646,-473,1091,1
3662,-435,1032,1
3687,-380,964,1
3700,-290,895,1
3690,-229,803,1
3747,-141,684,1
3726,-19,566,1
3725,80,452,1
3755,178,418,1
3846,256,466,1
3984,338,588,1
4180,405,725,1
4435,405,858,1
4712,368,1013,1
4981,272,1146,1
5096,116,1115,1
5070,52,982,1
4974,64,826,1
4916,54,754,1
4917,27,783,1
4943,23,923,1
4989,43,1123,1
5041,119,1266,1
5097,227,1246,1
5178,423,1148,1
5206,661,1020,1
5228,885,924,1
5224,1091,844,1
5238,1285,795,1
5263,1413,697,1
5242,1495,536,1
5187,1474,363,1
5090,1343,237,1
4911,1178,138,1
4770,1029,44,1
4629,917,-134,1
4480,918,-354,1
4376,962,-547,1
4327,1033,-704,1
4335,1098,-794,1
4385,1150,-814,1
4450,1220,-740,1
4502,1284,-579,1
4540,1308,-362,1
4545,1302,-159,1
4514,1279,-2,1
4443,1267,99,1
4350,1296,151,1
4240,1307,158,1
4134,1264,125,1
4010,1193,52,1
3912,1097,-17,1
3901,1001,-21,1
3988,906,24,1
4083,819,83,1
4174,746,128,1
4262,709,168,1
4295,678,148,1
4315,656,114,1
4311,660,85,1
4300,663,42,1
4283,681,5,1
4265,696,-31,1
4257,710,-73,1
4248,723,-118,1
4256,728,-155,1
4262,737,-170,1
4266,723,-172,1
4261,680,-176,1
4245,624,-200,1
4229,591,-223,1
4214,579,-235,1
4188,580,-255,1
4162,583,-287,1
4132,599,-317,1
4114,606,-354,1
4115,593,-324,1
4125,563,-252,1
4133,567,-183,1
4117,619,-158,1
4104,672,-148,1
4074,704,-140,1
4044,741,-76,1
4005,790,-45,1
3982,851,-56,1
3986,889,-77,1
4006,879,-114,1
4024,852,-141,1
4052,817,-128,1
4073,779,-105,1
4089,745,-154,1
4095,722,-259,1
4098,670,-387,1
4092,583,-511,1
4095,478,-588,1
4097,375,-621,1
4109,275,-645,1
4124,184,-682,1
4141,93,-689,1
4161,10,-667,1
4182,-58,-572,1
4192,-121,-480,1
4196,-165,-457,1
4190,-195,-501,1
4173,-235,-528,1
4167,-280,-491,1
4158,-339,-386,1
4135,-405,-295,1
4111,-463,-333,1
4070,-511,-441,1
4048,-574,-484,1
4040,-635,-427,1
4037,-694,-299,1
4041,-768,-211,1
4050,-823,-131,1
4063,-866,-82,1
4074,-871,-53,1
4091,-846,-17,1
4110,-810,32,1
4122,-763,58,1
4131,-705,69,1
4135,-646,100,1
4138,-589,105,1
4134,-524,104,1
4138,-460,132,1
4120,-385,130,1
4111,-330,67,1
4105,-306,34,1
4089,-300,42,1
4082,-307,63,1
4078,-319,91,1
4076,-328,130,1
4070,-327,168,1
4071,-310,205,1
4076,-296,235,1
4074,-287,225,1
4060,-287,161,1
4041,-298,92,1
4004,-326,6,1
3959,-386,-103,1
3929,-424,-129,1
3922,-429,-111,1
3934,-403,-72,1
3951,-339,-39,1
3968,-291,8,1
3994,-242,93,1
4019,-198,188,1
4059,-124,299,1
4098,-37,395,1
4125,58,474,1
4146,123,544,1
4174,166,619,1
4203,183,705,1
4232,199,824,1
4259,207,933,1
4254,204,1048,1
4219,181,1154,1
4173,163,1203,1
4112,131,1123,1
4032,77,926,1
3939,-1,700,1
3853,-117,496,1
3790,-233,337,1
3743,-329,209,1
3748,-382,136,1
3766,-391,88,1
3833,-367,88,1
3941,-309,107,1
4043,-248,100,1
4146,-167,128,1
4262,-105,186,1
4370,-51,245,1
4471,-2,292,1
4569,42,356,1
4643,91,421,1
4699,148,455,1
4731,202,477,1
4735,261,497,1
4712,317,478,1
4664,377,458,1
4596,445,439,1
4493,517,417,1
4361,598,393,1
4230,686,385,1
4109,744,382,1
3999,771,387,1
3896,807,386,1
3809,783,376,1
3719,744,399,1
3656,693,411,1
3607,633,469,1
3567,584,528,1
3535,542,567,1
3503,528,632,1
3461,521,706,1
3442,506,790,1
3429,490,869,1
3429,480,935,1
3442,462,939,1
3449,438,889,1
3471,427,833,1
3505,397,764,1
3537,325,730,1
3573,256,757,1
3634,180,787,1
3713,147,829,1
3802,162,881,1
3917,166,873,1
4013,157,832,1
4106,102,799,1
4169,37,795,1
4208,-21,816,1
4229,-72,830,1
4243,-113,836,1
4253,-170,852,1
4261,-245,889,1
4271,-281,947,1
4284,-266,1010,1
4288,-248,1089,1
4281,-252,1167,1
4266,-255,1237,1
4252,-249,1280,1
4211,-226,1300,1
4223,-251,1285,1
4161,-244,1260,1
4107,-218,1286,1
4133,-185,1336,1
4113,-209,1289,1
4102,-204,1275,1
4071,-199,1255,1
4020,-207,1213,1
3934,-232,1167,1
3851,-259,1147,1
3759,-298,1128,1
3661,-322,1123,1
3576,-349,1132,1
3503,-369,1139,1
3440,-392,1146,1
3368,-407,1143,1
3305,-391,1139,1
3256,-382,1131,1
3208,-395,1137,1
3165,-363,1136,1
3116,-332,1131,1
3093,-324,1141,1
3068,-315,1155,1
3060,-316,1178,1
3042,-291,1204,1
3044,-269,1236,1
3070,-244,1254,1
3086,-212,1252,1
3120,-195,1277,1
3146,-212,1301,1
3168,-215,1328,1
3182,-203,1351,1
3201,-193,1364,1
3237,-186,1362,1
3243,-185,1337,1
3233,-193,1293,1
3247,-243,1248,1
3267,-230,1232,1
3295,-236,1223,1
3343,-265,1235,1
3375,-255,1252,1
3420,-277,1279,1
3471,-282,1321,1
3526,-272,1367,1
3581,-279,1388,1
3615,-302,1376,1
3615,-301,1341,1
3615,-331,1295,1
3627,-374,1269,1
3659,-398,1302,1
3686,-414,1357,1
3709,-443,1378,1
3716,-499,1376,1
3742,-576,1372,1
3760,-639,1388,1
3795,-732,1396,1
3830,-800,1446,1
3903,-888,1533,1
3964,-883,1632,1
4022,-886,1696,1
4069,-894,1729,1
4124,-914,1750,1
4176,-935,1764,1
4222,-954,1769,1
4256,-972,1783,1
4301,-1006,1783,1
4322,-1031,1788,1
4303,-1052,1801,1
4278,-1094,1822,1
4254,-1168,1821,1
4259,-1189,1872,1
4251,-1192,1931,1
4252,-1212,2001,1
4260,-1218,2078,1
4293,-1206,2145,1
4297,-1106,2217,1
4352,-990,2297,1
4447,-855,2331,1
4517,-645,2336,1
4609,-443,2333,1
4752,-264,2336,1
4894,-121,2309,1
4979,20,2261,1
5036,70,2185,1
5059,36,2140,1
5029,-60,2119,1
4991,-175,2104,1
4941,-244,2082,1
4898,-230,2027,1
4874,-150,1890,1
4891,31,1707,1
4927,255,1449,1
4972,513,1181,1
5015,744,931,1
5030,892,767,1
4993,933,756,1
4872,865,874,1
4706,728,1010,1
4495,566,1061,1
4265,458,1045,1
4034,406,1040,1
3839,397,1032,1
3750,412,961,1
3750,454,829,1
3792,547,714,1
3866,600,632,1
3967,627,600,1
4031,622,573,1
4058,607,518,1
4077,609,442,1
4042,634,344,1
4010,603,250,1
3985,589,149,1
3975,636,49,1
3946,639,-36,1
3921,617,-91,1
3922,536,-124,1
3916,552,-153,1
3915,510,-186,1
3926,439,-210,1
3917,425,-223,1
3917,401,-242,1
3934,359,-239,1
3951,295,-223,1
3966,259,-189,1
3984,209,-127,1
3994,185,-71,1
4008,157,-32,1
4010,136,-15,1
4005,117,-6,1
4002,126,-18,1
4000,135,-25,1
3987,144,-18,1
3989,135,-1,1
3996,141,6,1
4017,123,20,1
4017,147,35,1
4022,151,46,1
4019,139,50,1
4014,144,73,1
4004,127,89,1
3977,103,87,1
3947,69,82,1
3948,-5,103,1
3786,-4,187,1
3758,38,68,1
3732,23,25,1
3729,8,63,1
3714,8,168,1
3680,1,252,1
3663,-39,313,1
3660,-98,344,1
3621,-87,343,1
3579,-100,316,1
3527,-70,316,1
3472,-62,317,1
3439,-97,324,1
3453,-121,320,1
3506,-136,340,1
3534,-168,348,1
3516,-204,331,1
3478,-238,321,1
3459,-270,311,1
3472,-301,302,1
3468,-319,275,1
3480,-339,248,1
3501,-352,226,1
3531,-354,205,1
3570,-341,194,1
3603,-321,200,1
3640,-289,210,1
3678,-245,193,1
3734,-202,188,1
3785,-144,189,1
3814,-86,173,1
3856,-45,171,1
3887,2,175,1
3913,56,169,1
3947,90,169,1
3983,114,177,1
4014,134,194,1
4045,146,214,1
4069,155,245,1
4073,137,261,1
4072,100,269,1
4071,47,280,1
4059,-18,294,1
4042,-74,300,1
4011,-128,294,1
3986,-182,279,1
3955,-227,265,1
3930,-267,250,1
3898,-304,241,1
3858,-301,242,1
3845,-354,196,1
3843,-395,154,1
3856,-424,143,1
3882,-420,155,1
3909,-390,158,1
3914,-339,141,1
3927,-283,117,1
3936,-238,91,1
3954,-194,69,1
3972,-139,70,1
3997,-84,59,1
4008,-22,40,1
4024,35,16,1
4028,98,5,1
4036,150,1,1
4053,186,1,1
4079,188,6,1
4105,185,22,1
4146,164,46,1
4187,135,51,1
4229,102,53,1
4279,57,58,1
4316,23,76,1
4338,-19,98,1
4352,-80,118,1
4358,-145,133,1
4348,-195,127,1
4336,-240,139,1
4336,-276,179,1
4345,-327,221,1
4362,-357,234,1
4369,-355,226,1
4381,-383,227,1
4383,-385,223,1
4356,-367,222,1
4322,-333,206,1
4304,-307,194,1
4276,-277,193,1
4250,-230,208,1
4241,-169,245,1
4241,-135,279,1
4232,-78,281,1
4235,-25,264,1
4257,32,268,1
4279,94,276,1
4335,133,303,1
4407,143,344,1
4466,185,401,1
4519,258,423,1
4621,301,439,1
4755,298,435,1
4883,256,398,1
5000,183,368,1
5093,111,361,1
5159,69,372,1
5193,47,355,1
5211,38,334,1
5185,61,309,1
5139,83,265,1
5072,169,260,1
5001,299,260,1
4943,433,339,1
4828,537,317,1
4690,655,280,1
4516,794,269,1
4330,930,305,1
4180,1048,385,1
4081,1186,511,1
3991,1293,616,1
3900,1388,690,1
3846,1512,719,1
3804,1664,722,1
3776,1798,734,1
3745,1906,763,1
3737,1969,824,1
3764,1968,888,1
3821,1941,905,1
3884,1890,835,1
3949,1832,771,1
4016,1743,776,1
4101,1600,880,1
4206,1442,1003,1
4330,1305,1116,1
4445,1209,1201,1
4554,1156,1205,1
4639,1128,1158,1
4682,1077,1119,1
4694,996,1092,1
4696,924,1038,1
4677,852,961,1
4640,780,899,1
4598,705,855,1
4568,640,834,1
4544,577,816,1
4520,514,816,1
4504,455,837,1
4460,425,840,1
4400,400,797,1
4318,374,736,1
4220,364,683,1
4149,350,647,1
4053,361,610,1
3957,362,563,1
3873,367,531,1
3789,376,521,1
3729,378,530,1
3647,401,537,1
3602,414,552,1
3557,442,569,1
3513,467,580,1
3492,481,582,1
3425,525,574,1
3313,608,587,1
3242,663,630,1
3212,704,670,1
3197,698,673,1
3187,722,678,1
3170,738,686,1
3166,747,705,1
3148,724,690,1
3112,706,695,1
3061,706,722,1
3024,721,756,1
2990,735,782,1
2965,727,773,1
2945,694,749,1
2929,650,723,1
2923,589,701,1
2930,535,703,1
2942,475,722,1
2971,411,755,1
3000,343,797,1
3031,279,829,1
3061,217,854,1
3089,163,881,1
3108,124,908,1
3135,91,925,1
3164,48,908,1
3188,10,889,1
3198,-25,875,1
3203,-48,863,1
3234,-81,861,1
3264,-103,869,1
3288,-120,891,1
3311,-136,904,1
3330,-156,898,1
3350,-179,897,1
3372,-200,893,1
3397,-214,915,1
3415,-230,955,1
3426,-250,999,1
3433,-281,1046,1
3443,-315,1094,1
3453,-339,1151,1
3464,-359,1198,1
3469,-390,1214,1
3482,-416,1207,1
3505,-448,1188,1
3510,-484,1152,1
3523,-532,1109,1
3557,-592,1081,1
3586,-650,1062,1
3604,-710,1019,1
3610,-757,969,1
3603,-790,929,1
3628,-845,898,1
3653,-893,872,1
3663,-942,837,1
3659,-929,856,1
3650,-910,894,1
3639,-876,938,1
3635,-840,933,1
3635,-807,889,1
3658,-777,863,1
3715,-735,906,1
3769,-662,994,1
3856,-589,1083,1
3956,-499,1131,1
4036,-384,1115,1
4117,-302,1077,1
4191,-203,1041,1
4271,-105,1023,1
4351,-61,1058,1
4424,-68,1131,1
4491,-125,1202,1
4544,-198,1253,1
4593,-302,1276,1
4607,-448,1231,1
4599,-614,1219,1
4588,-785,1275,1
4557,-928,1353,1
4521,-966,1412,1
4501,-987,1456,1
4464,-1028,1431,1
4410,-1076,1388,1
4365,-1122,1377,1
4333,-1121,1420,1
4343,-1070,1430,1
4412,-985,1394,1
4545,-839,1356,1
4733,-651,1328,1
4951,-405,1329,1
5217,-151,1387,1
5501,58,1456,1
5804,261,1504,1
6083,486,1443,1
6341,649,1254,1
6476,750,937,1
6470,826,658,1
6358,846,503,1
6130,883,464,1
5808,922,454,1
5455,913,477,1
5084,872,527,1
4757,803,649,1
4450,725,772,1
4208,611,898,1
4019,482,1000,1
3933,339,1043,1
3934,203,1026,1
3956,66,965,1
3964,-54,884,1
3905,-161,748,1
3822,-235,544,1
3721,-297,295,1
3623,-343,41,1
3523,-368,-192,1
3420,-392,-393,1
3332,-416,-545,1
3275,-433,-655,1
3256,-420,-698,1
3271,-396,-709,1
3317,-350,-707,1
3388,-282,-696,1
3473,-207,-690,1
3573,-112,-675,1
3678,-22,-655,1
3781,58,-627,1
3855,129,-599,1
3932,211,-538,1
4000,292,-468,1
4055,369,-401,1
4113,438,-344,1
4183,494,-266,1
4253,547,-172,1
4313,577,-68,1
4323,606,47,1
4309,637,137,1
4281,672,195,1
4237,684,217,1
4174,687,220,1
4115,661,229,1
4040,619,216,1
3972,553,211,1
3908,502,213,1
3856,444,201,1
3803,363,166,1
3747,281,127,1
3692,203,103,1
3657,127,82,1
3627,66,76,1
3621,10,75,1
3621,-37,87,1
3640,-94,99,1
3651,-136,116,1
3652,-189,111,1
3630,-210,100,1
3627,-246,113,1
3646,-303,128,1
3689,-371,113,1
3722,-419,99,1
3742,-428,97,1
3738,-411,96,1
3727,-406,92,1
3725,-414,84,1
3729,-426,56,1
3748,-462,51,1
3773,-480,62,1
3788,-477,66,1
3795,-442,52,1
3795,-413,31,1
3792,-382,42,1
3791,-352,59,1
3779,-329,62,1
3775,-311,44,1
3781,-306,33,1
3782,-304,42,1
3783,-313,49,1
3780,-315,84,1
3782,-284,99,1
3790,-268,106,1
3799,-262,107,1
3808,-273,124,1
3814,-297,148,1
3809,-318,150,1
3802,-344,133,1
3788,-369,121,1
3768,-391,123,1
3759,-403,149,1
3757,-414,175,1
3759,-410,213,1
3755,-396,213,1
3757,-396,184,1
3764,-413,153,1
3773,-426,134,1
3768,-418,141,1
3773,-403,154,1
3794,-392,173,1
3819,-374,190,1
3858,-355,218,1
3889,-334,265,1
3921,-304,309,1
3949,-269,355,1
3967,-239,372,1
3991,-212,371,1
4005,-194,351,1
4006,-182,294,1
4002,-168,206,1
3974,-133,117,1
3960,-119,48,1
3966,-106,-8,1
3984,-106,-52,1
4019,-103,-79,1
4060,-112,-88,1
4112,-109,-60,1
4169,-124,-33,1
4246,-127,10,1
4337,-128,67,1
4457,-152,139,1
4535,-90,188,1
4595,-20,261,1
4667,45,357,1
4719,125,436,1
4776,196,482,1
4803,261,488,1
4822,322,505,1
4835,337,476,1
4836,345,450,1
4819,328,435,1
4793,273,429,1
4730,220,421,1
4654,101,397,1
4573,-54,368,1
4480,-198,338,1
4408,-401,295,1
4385,-625,238,1
4387,-834,162,1
4400,-1020,71,1
4435,-1169,19,1
4503,-1244,82,1
4588,-1267,186,1
4669,-1289,243,1
4733,-1306,234,1
4787,-1316,183,1
4822,-1321,103,1
4872,-1288,37,1
4902,-1209,-35,1
4920,-1095,-93,1
4924,-952,-105,1
4909,-811,-104,1
4888,-667,-114,1
4848,-528,-137,1
4818,-378,-129,1
4774,-210,-106,1
4732,-13,-63,1
4683,220,-19,1
4617,483,-9,1
4548,738,-36,1
4483,958,-52,1
4407,1165,-14,1
4324,1241,-23,1
4233,1262,-56,1
4162,1324,-43,1
4088,1398,-10,1
4026,1464,33,1
3975,1550,93,1
3924,1627,143,1
3908,1683,201,1
3924,1715,253,1
3931,1778,299,1
3952,1790,309,1
3975,1754,285,1
4013,1678,284,1
4062,1562,307,1
4147,1424,351,1
4262,1272,420,1
4388,1111,498,1
4500,959,565,1
4485,814,587,1
4435,653,594,1
4371,479,585,1
4317,341,572,1
4280,217,546,1
4272,109,521,1
4286,41,528,1
4284,-9,527,1
4273,-18,528,1
4262,-11,525,1
4238,7,528,1
4202,39,530,1
4160,75,529,1
4116,93,521,1
4068,104,523,1
4014,112,537,1
3944,119,549,1
3853,136,556,1
3746,157,552,1
3642,156,550,1
3542,161,553,1
3462,159,568,1
3396,172,587,1
3352,191,606,1
3327,217,632,1
3317,237,650,1
3297,262,641,1
3295,260,619,1
3298,259,574,1
3303,276,530,1
3305,316,530,1
3290,360,532,1
3264,404,522,1
3259,439,508,1
3259,449,490,1
3290,461,488,1
3342,430,468,1
3400,433,483,1
3473,419,505,1
3527,414,518,1
3574,408,514,1
3628,390,503,1
3679,364,490,1
3708,351,484,1
3719,365,491,1
3715,374,491,1
3712,413,508,1
3720,404,528,1
3722,391,535,1
3709,388,543,1
3691,381,551,1
3658,369,564,1
3618,339,586,1
3572,311,612,1
3507,282,627,1
3457,247,658,1
3428,216,698,1
3417,175,751,1
3431,125,800,1
3437,90,839,1
3456,64,861,1
3492,41,875,1
3523,17,867,1
3546,-11,876,1
3566,-37,889,1
3570,-56,880,1
3535,-82,790,1
3503,-102,705,1
3471,-88,641,1
3447,-47,560,1
3440,-24,494,1
3440,-30,480,1
3452,-48,502,1
3448,-74,519,1
3457,-97,553,1
3470,-118,602,1
3479,-148,648,1
3484,-196,683,1
3489,-266,690,1
3477,-351,655,1
3453,-443,655,1
3439,-442,661,1
3443,-378,596,1
3453,-355,564,1
3482,-376,637,1
3532,-392,771,1
3572,-362,918,1
3612,-325,1043,1
3633,-314,1079,1
3650,-349,1040,1
3664,-398,957,1
3664,-426,854,1
3667,-430,767,1
3685,-423,718,1
3725,-418,726,1
3787,-428,768,1
3862,-439,813,1
3941,-442,843,1
4023,-442,848,1
4094,-440,838,1
4157,-441,810,1
4218,-467,780,1
4276,-503,752,1
4327,-549,740,1
4370,-612,747,1
4414,-682,778,1
4451,-766,820,1
4484,-867,862,1
4511,-989,899,1
4541,-1116,961,1
4571,-1232,1023,1
4609,-1295,1111,1
4671,-1315,1254,1
4752,-1291,1486,1
4842,-1183,1723,1
4951,-1028,1871,1
5077,-867,1916,1
5213,-720,1875,1
5320,-602,1827,1
5548,-466,1834,1
5701,-405,1725,1
5881,-277,1665,1
5945,-187,1553,1
5923,-117,1452,1
5805,-49,1387,1
5590,14,1370,1
5353,65,1375,1
5142,137,1362,1
5026,250,1311,1
4967,423,1190,1
4913,575,976,1
4885,724,792,1
4851,839,672,1
4830,915,620,1
4808,963,592,1
4800,1021,601,1
4796,1067,631,1
4827,1139,741,1
4802,1166,852,1
4714,1107,931,1
4505,972,938,1
4249,795,890,1
3981,579,797,1
3794,362,701,1
3659,210,602,1
3596,69,453,1
3597,-47,289,1
3583,-126,102,1
3547,-215,-111,1
3504,-285,-293,1
3487,-373,-458,1
3479,-466,-553,1
3477,-566,-605,1
3493,-637,-616,1
3528,-672,-613,1
3567,-648,-568,1
3651,-663,-528,1
3722,-560,-452,1
3788,-454,-410,1
3881,-357,-342,1
3980,-251,-257,1
4066,-148,-189,1
4117,-62,-127,1
4150,34,-76,1
4167,133,-30,1
4167,238,9,1
4166,343,67,1
4144,442,127,1
4122,513,193,1
4096,585,264,1
4066,646,338,1
4025,688,405,1
3963,716,448,1
3894,734,474,1
3826,751,504,1
3755,754,518,1
3695,740,515,1
3642,704,483,1
3592,658,448,1
3558,606,434,1
3545,540,410,1
3540,466,353,1
3535,393,309,1
3526,320,268,1
3528,242,228,1
3532,165,209,1
3538,110,197,1
3531,64,191,1
3510,31,189,1
3566,-92,162,1
3610,-168,147,1
3643,-255,163,1
3643,-289,186,1
3641,-303,205,1
3602,-285,199,1
3571,-289,192,1
3547,-299,200,1
3538,-296,218,1
3531,-279,217,1
3531,-268,194,1
3539,-288,193,1
3556,-250,214,1
3568,-223,221,1
3583,-186,238,1
3590,-141,263,1
3609,-98,287,1
3640,-63,317,1
3667,-32,345,1
3672,9,353,1
3680,20,343,1
3698,33,351,1
3709,24,369,1
3711,22,371,1
3709,29,379,1
3709,37,390,1
3714,51,404,1
3721,60,414,1
3724,69,429,1
3725,73,439,1
3713,61,433,1
3702,48,454,1
3693,30,481,1
3687,13,499,1
3688,-16,490,1
3695,-32,477,1
3699,-47,481,1
3718,-65,493,1
3738,-88,506,1
3756,-111,523,1
3781,-133,536,1
3797,-142,553,1
3810,-145,575,1
3813,-135,593,1
3821,-117,613,1
3826,-97,618,1
3840,-71,634,1
3849,-55,659,1
3857,-34,681,1
3859,-18,675,1
3871,-8,649,1
3882,0,620,1
3895,15,586,1
3901,25,557,1
3915,19,517,1
3944,6,462,1
3957,2,395,1
3978,2,347,1
3997,-1,318,1
4012,-10,304,1
4047,-29,303,1
4070,-55,343,1
4084,-72,378,1
4117,-85,405,1
4161,-97,402,1
4226,-125,396,1
4287,-167,372,1
4339,-221,355,1
4412,-295,380,1
4486,-336,417,1
4549,-359,433,1
4619,-407,461,1
4675,-442,516,1
4705,-485,555,1
4693,-506,547,1
4683,-515,524,1
4663,-530,497,1
4644,-520,521,1
4652,-479,596,1
4658,-414,655,1
4656,-350,660,1
4668,-266,646,1
4713,-232,632,1
4726,-200,629,1
4765,-217,672,1
4802,-208,725,1
4875,-184,750,1
4975,-127,753,1
5050,-69,765,1
5112,-17,775,1
5132,-50,625,1
5137,-91,506,1
5163,-66,525,1
5200,14,640,1
5260,87,764,1
5352,82,689,1
5348,172,585,1
5303,281,491,1
5236,366,346,1
5124,475,200,1
4958,623,85,1
4756,811,25,1
4550,930,-34,1
4349,1056,-24,1
4180,1225,14,1
4058,1430,98,1
3958,1628,156,1
3882,1794,213,1
3845,1975,290,1
3852,2130,347,1
3877,2256,432,1
3933,2326,544,1
4023,2367,670,1
4159,2352,804,1
4310,2314,937,1
4463,2252,1048,1
4625,2155,1120,1
4754,2044,1121,1
4821,1897,1077,1
4830,1714,1063,1
4839,1520,1064,1
4814,1301,1002,1
4780,1089,932,1
4771,877,865,1
4636,767,776,1
4544,599,828,1
4471,527,922,1
4433,427,1004,1
4397,357,985,1
4387,305,932,1
4375,282,899,1
4336,259,863,1
4265,233,836,1
4182,213,769,1
4092,181,678,1
3998,139,629,1
3894,108,605,1
3791,93,551,1
3670,95,488,1
3550,160,469,1
3462,219,513,1
3375,283,552,1
3294,348,567,1
3230,403,542,1
3161,462,487,1
3140,516,459,1
3106,532,416,1
3003,541,359,1
2910,608,421,1
2886,662,528,1
2886,717,592,1
2881,748,598,1
2857,774,593,1
2822,804,563,1
2785,809,504,1
2794,835,470,1
2819,837,446,1
2849,860,479,1
2873,858,519,1
2909,845,569,1
2946,823,607,1
2978,818,625,1
3017,775,621,1
3064,765,637,1
3113,736,651,1
3151,717,679,1
3200,705,723,1
3248,661,736,1
3317,606,748,1
3350,534,737,1
3347,480,741,1
3350,437,763,1
3346,392,774,1
3346,341,775,1
3359,313,795,1
3371,283,797,1
3378,264,815,1
3391,243,868,1
3398,202,896,1
3399,180,909,1
3404,148,895,1
3411,117,888,1
3415,81,892,1
3413,42,898,1
3407,17,913,1
3398,-19,920,1
3372,-56,923,1
3360,-85,943,1
3350,-128,994,1
3346,-171,1071,1
3344,-200,1107,1
3336,-237,1078,1
3320,-277,1037,1
3311,-319,1002,1
3307,-367,981,1
3304,-394,981,1
3303,-421,982,1
3313,-434,984,1
3320,-450,971,1
3331,-441,955,1
3330,-418,929,1
3333,-392,913,1
3337,-343,927,1
3356,-271,977,1
3395,-172,1056,1
3443,-70,1154,1
3487,27,1232,1
3533,99,1276,1
3573,146,1282,1
3619,172,1274,1
3674,180,1247,1
3732,159,1206,1
3785,106,1158,1
3835,41,1116,1
3905,-36,1095,1
3962,-137,1053,1
4007,-254,998,1
4054,-401,910,1
4077,-540,805,1
4102,-691,755,1
4127,-858,770,1
4199,-1024,864,1
4263,-1160,987,1
4304,-1253,1090,1
4371,-1351,1160,1
4431,-1422,1237,1
4445,-1512,1334,1
4456,-1573,1454,1
4436,-1622,1531,1
4440,-1628,1591,1
4446,-1628,1685,1
4442,-1664,1782,1
4431,-1683,1859,1
4465,-1680,1965,1
4490,-1591,2072,1
4531,-1478,2083,1
4580,-1296,2015,1
4656,-1054,1924,1
4792,-848,1875,1
4970,-653,1864,1
5142,-456,1857,1
5416,-299,1888,1
5751,-171,1931,1
6009,13,1865,1
6268,279,1743,1
6582,587,1618,1
6945,999,1464,1
7338,1470,1212,1
7672,1948,851,1
7929,2372,439,1
8052,2670,143,1
7910,2837,-29,1
7469,2869,-51,1
6792,2741,60,1
5872,2622,182,1
4924,2378,317,1
4003,2017,414,1
3233,1627,456,1
2690,1312,448,1
2417,1024,471,1
2380,740,540,1
2488,471,604,1
2700,238,656,1
2948,45,671,1
3179,-99,634,1
3346,-185,515,1
3420,-285,330,1
3401,-334,160,1
3371,-361,32,1
3394,-331,-83,1
3473,-263,-167,1
3588,-183,-260,1
3751,-61,-346,1
3877,6,-441,1
3993,121,-493,1
4100,247,-526,1
4214,372,-532,1
4309,509,-505,1
4396,632,-429,1
4455,757,-327,1
4513,887,-197,1
4517,979,-70,1
4493,1052,48,1
4450,1115,151,1
4402,1178,240,1
4335,1229,304,1
4233,1264,349,1
4108,1273,376,1
3987,1258,399,1
3856,1235,419,1
3751,1165,428,1
3686,1089,424,1
3624,1039,403,1
3542,1009,381,1
3467,949,384,1
3406,866,395,1
3343,782,371,1
3287,705,315,1
3232,645,193,1
3190,602,48,1
3183,529,-70,1
3188,461,-164,1
3214,407,-182,1
3244,349,-148,1
3286,282,-91,1
3334,192,-59,1
3391,90,-33,1
3432,40,1,1
3456,3,9,1
3434,1,0,1
3474,-41,-39,1
3564,-105,-32,1
3632,-140,21,1
3659,-180,34,1
3639,-217,-8,1
3618,-230,-39,1
3602,-216,-48,1
3626,-208,-3,1
3675,-237,79,1
3725,-266,147,1
3795,-295,179,1
3859,-334,208,1
3899,-367,245,1
3932,-374,291,1
3970,-413,347,1
3975,-434,365,1
3990,-460,395,1
3971,-414,403,1
3973,-396,406,1
3985,-396,444,1
4013,-410,476,1
4035,-433,493,1
4057,-469,498,1
4077,-511,512,1
4086,-545,537,1
4093,-560,571,1
4082,-573,608,1
4068,-600,628,1
4043,-628,645,1
4021,-641,673,1
3995,-645,683,1
3948,-658,667,1
3918,-681,662,1
3882,-689,663,1
3854,-687,669,1
3828,-687,636,1
3801,-682,583,1
3773,-668,562,1
3760,-652,552,1
3746,-638,553,1
3731,-617,552,1
3730,-599,569,1
3726,-584,604,1
3732,-574,675,1
3734,-566,711,1
3739,-544,673,1
3737,-529,597,1
3746,-518,563,1
3759,-499,521,1
3756,-477,428,1
3758,-465,368,1
3764,-448,345,1
3765,-447,349,1
3763,-441,358,1
3747,-422,378,1
3733,-391,377,1
3728,-331,377,1
3741,-264,392,1
3778,-188,410,1
3805,-97,443,1
3846,-15,485,1
3893,67,517,1
3946,140,545,1
4006,194,570,1
4056,223,598,1
4119,213,586,1
4163,175,582,1
4200,120,574,1
4252,33,601,1
4291,-66,620,1
4343,-177,664,1
4394,-295,694,1
4441,-412,723,1
4480,-523,733,1
4519,-627,750,1
4541,-712,757,1
4529,-767,768,1
4497,-817,746,1
4449,-842,682,1
4403,-839,616,1
4357,-820,592,1
4334,-799,626,1
4317,-757,702,1
4330,-666,776,1
4388,-582,841,1
4473,-517,857,1
4558,-452,823,1
4607,-337,743,1
4662,-236,638,1
4705,-110,550,1
4733,34,500,1
4734,91,423,1
4744,123,364,1
4777,173,385,1
4841,199,455,1
4862,228,516,1
4879,273,589,1
4845,333,632,1
4769,412,589,1
4685,537,511,1
4621,577,334,1
4566,644,130,1
4459,854,12,1
4295,1065,-69,1
4147,1168,-146,1
4002,1287,-145,1
3838,1401,-90,1
3748,1467,-46,1
3771,1528,-4,1
3859,1597,15,1
3992,1690,56,1
4184,1819,144,1
4411,1951,281,1
4632,2047,434,1
4841,2110,551,1
5013,2167,635,1
5123,2178,683,1
5160,2152,733,1
5215,2049,785,1
5285,1906,843,1
5323,1732,897,1
5340,1511,950,1
5343,1256,990,1
5314,986,990,1
5262,753,948,1
5208,562,895,1
5124,435,850,1
5022,312,866,1
4999,183,914,1
4965,124,878,1
4939,82,835,1
4898,50,818,1
4836,6,824,1
4729,-11,823,1
4603,-5,819,1
4473,-1,840,1
4345,11,853,1
4206,39,810,1
4064,56,745,1
3928,75,672,1
3842,89,622,1
3748,103,597,1
3650,150,560,1
3571,188,520,1
3508,252,493,1
3344,304,405,1
3140,330,301,1
2948,420,268,1
2793,484,270,1
2718,557,304,1
2684,596,336,1
2665,619,384,1
2681,633,464,1
2688,643,521,1
2691,670,546,1
2697,647,555,1
2689,614,556,1
2672,637,539,1
2659,674,499,1
2694,676,464,1
2716,685,445,1
2682,716,426,1
2647,733,440,1
2668,725,505,1
2695,720,594,1
2756,680,598,1
2825,599,574,1
2906,550,596,1
2986,503,615,1
3049,490,659,1
3082,482,703,1
3110,472,726,1
3143,473,726,1
3166,458,694,1
3209,432,690,1
3249,395,695,1
3290,345,713,1
3319,298,698,1
3326,246,660,1
3333,180,638,1
3335,127,633,1
3366,90,656,1
3392,45,671,1
3399,5,675,1
3405,-47,686,1
3404,-110,689,1
3409,-189,685,1
3410,-263,677,1
3410,-326,679,1
3411,-397,688,1
3431,-457,707,1
3443,-506,718,1
3461,-543,722,1
3484,-590,739,1
3519,-621,779,1
3541,-629,817,1
3565,-615,877,1
3590,-634,906,1
3617,-659,914,1
3634,-680,896,1
3642,-698,882,1
3631,-704,896,1
3636,-707,938,1
3647,-712,981,1
3673,-713,1054,1
3714,-687,1155,1
3762,-650,1268,1
3791,-619,1340,1
3808,-580,1354,1
3821,-531,1319,1
3838,-475,1247,1
3827,-431,1137,1
3835,-388,1030,1
3853,-353,946,1
3882,-361,861,1
3928,-397,790,1
3963,-450,730,1
4016,-518,693,1
4058,-586,634,1
4081,-626,588,1
4136,-702,636,1
4215,-824,798,1
4312,-985,991,1
4444,-1133,1205,1
4560,-1259,1370,1
4701,-1386,1535,1
4784,-1404,1667,1
4846,-1383,1756,1
4872,-1346,1845,1
4865,-1324,1907,1
4833,-1284,1924,1
4766,-1236,1957,1
4741,-1154,2007,1
4756,-1020,2055,1
4819,-840,2080,1
4914,-658,2022,1
4968,-515,1882,1
5011,-373,1825,1
5110,-262,1841,1
5243,-162,1869,1
5406,-88,1897,1
5591,-12,1855,1
5794,108,1721,1
5981,316,1566,1
6169,525,1364,1
6352,788,1133,1
6531,1054,861,1
6633,1299,569,1
6587,1493,283,1
6386,1623,62,1
5980,1691,-35,1
5465,1649,15,1
4985,1578,198,1
4544,1454,377,1
4186,1313,592,1
3929,1076,701,1
3752,821,717,1
3615,544,650,1
3505,288,587,1
3473,84,561,1
3487,-58,575,1
3530,-193,587,1
3552,-239,552,1
3545,-260,434,1
3524,-287,280,1
3492,-356,128,1
3460,-418,-5,1
3493,-399,-81,1
3520,-382,-177,1
3574,-256,-239,1
3649,-167,-309,1
3822,-108,-332,1
3953,-12,-377,1
4092,41,-450,1
4216,127,-512,1
4298,267,-563,1
4385,380,-549,1
4480,451,-452,1
4555,497,-296,1
4586,533,-125,1
4590,580,61,1
4551,621,212,1
4499,679,331,1
4430,743,417,1
4341,805,501,1
4263,852,572,1
4186,876,625,1
4124,879,670,1
4060,855,691,1
3990,810,688,1
3929,762,652,1
3884,721,612,1
3848,681,568,1
3819,621,521,1
3798,536,462,1
3723,285,455,1
3610,333,283,1
3588,342,170,1
3584,291,132,1
3555,223,133,1
3559,135,152,1
3542,66,177,1
3519,-5,230,1
3495,-48,281,1
3467,-64,322,1
3460,-82,375,1
3454,-107,437,1
3448,-139,464,1
3439,-197,458,1
3459,-295,415,1
3489,-325,369,1
3493,-312,332,1
3493,-260,324,1
3488,-272,296,1
3476,-318,278,1
3473,-390,254,1
3485,-448,252,1
3485,-499,243,1
3506,-564,218,1
3552,-609,202,1
3609,-620,229,1
3672,-610,293,1
3718,-585,369,1
3759,-553,444,1
3789,-518,483,1
3817,-475,486,1
3833,-436,477,1
3848,-388,473,1
3865,-377,506,1
3861,-378,552,1
3802,-399,529,1
3762,-393,501,1
3740,-389,475,1
3740,-382,475,1
3764,-392,514,1
3797,-416,562,1
3834,-463,601,1
3858,-505,647,1
3868,-532,670,1
3880,-539,683,1
3873,-540,678,1
3875,-531,680,1
3864,-504,675,1
3833,-502,643,1
3796,-509,624,1
3759,-526,641,1
3728,-537,665,1
3701,-528,668,1
3698,-519,652,1
3692,-502,637,1
3676,-492,638,1
3668,-506,641,1
3653,-528,637,1
3672,-558,652,1
3710,-599,694,1
3736,-640,735,1
3747,-666,705,1
3746,-675,600,1
3749,-663,497,1
3745,-634,437,1
3740,-606,409,1
3739,-583,401,1
3750,-563,396,1
3770,-532,388,1
3805,-483,381,1
3841,-457,404,1
3874,-423,447,1
3885,-362,422,1
3891,-275,382,1
3903,-208,349,1
3913,-143,356,1
3951,-96,400,1
3992,-68,442,1
4030,-53,472,1
4069,-63,513,1
4109,-95,555,1
4151,-125,609,1
4195,-173,654,1
4232,-215,704,1
4265,-252,726,1
4231,-296,708,1
4227,-324,740,1
4261,-371,760,1
4276,-415,785,1
4272,-472,797,1
4238,-520,776,1
4205,-583,711,1
4170,-636,670,1
4149,-708,628,1
4119,-751,627,1
4078,-803,644,1
4118,-902,663,1
4197,-933,662,1
4307,-957,649,1
4388,-990,621,1
4381,-983,562,1
4362,-959,513,1
4359,-931,500,1
4398,-900,505,1
4480,-849,516,1
4552,-796,509,1
4610,-744,535,1
4678,-699,630,1
4753,-609,735,1
4824,-497,807,1
4856,-342,822,1
4872,-173,812,1
4819,-11,711,1
4697,178,541,1
4506,369,353,1
4281,539,220,1
4056,705,166,1
3839,866,165,1
3635,1012,185,1
3474,1146,181,1
3327,1247,168,1
3186,1336,169,1
3048,1484,337,1
3026,1572,361,1
3087,1600,417,1
3226,1674,566,1
3444,1749,758,1
3676,1768,897,1
3919,1739,978,1
4173,1695,992,1
4412,1651,982,1
4643,1631,991,1
4861,1612,1016,1
5035,1572,1008,1
5100,1500,975,1
5085,1372,961,1
5028,1182,949,1
4982,958,946,1
4968,695,968,1
4939,416,1064,1
4962,105,1126,1
4998,-110,1161,1
5045,-260,1111,1
5081,-338,1053,1
5093,-363,1025,1
5079,-365,994,1
5056,-384,945,1
5006,-402,945,1
4923,-370,917,1
4792,-334,852,1
4612,-284,821,1
4437,-253,815,1
4282,-218,816,1
4148,-199,784,1
4026,-170,752,1
3905,-138,754,1
3791,-99,764,1
3710,-72,770,1
3625,-46,725,1
3565,-4,686,1
3523,34,638,1
3485,64,592,1
3462,97,593,1
3458,130,630,1
3437,177,653,1
3424,224,660,1
3414,272,643,1
3409,303,631,1
3401,339,622,1
3376,370,624,1
3342,391,635,1
3303,402,658,1
3261,394,669,1
3224,355,657,1
3204,305,666,1
3195,247,710,1
3181,184,767,1
3167,142,820,1
3155,91,844,1
3143,32,859,1
3117,-41,868,1
3092,-113,878,1
3076,-183,912,1
3093,-255,970,1
3134,-317,1000,1
3182,-366,983,1
3230,-426,945,1
3270,-472,939,1
3266,-491,931,1
3253,-518,891,1
3233,-548,863,1
3213,-555,876,1
3218,-547,895,1
3221,-547,875,1
3203,-540,815,1
3177,-500,695,1
3126,-441,508,1
3080,-372,344,1
3049,-294,248,1
3036,-201,204,1
3022,-111,181,1
3021,-48,170,1
3026,13,193,1
3052,59,226,1
3083,91,238,1
3137,120,224,1
3237,134,228,1
3402,157,248,1
3465,159,250,1
3517,161,277,1
3584,170,374,1
3646,198,548,1
3690,265,748,1
3722,324,887,1
3722,376,969,1
3700,435,1045,1
3727,474,1178,1
3787,506,1353,1
3839,572,1548,1
3898,669,1647,1
3970,794,1592,1
4027,920,1338,1
4093,945,970,1
4178,831,633,1
4263,642,415,1
4355,432,326,1
4462,247,315,1
4599,146,304,1
4745,154,212,1
4883,281,61,1
5109,474,-70,1
5409,667,-177,1
5746,761,-211,1
5966,754,-227,1
5942,701,-274,1
5694,637,-395,1
5308,640,-503,1
4853,733,-555,1
4482,840,-514,1
4228,956,-401,1
4109,960,-251,1
4045,1007,-124,1
3985,991,-122,1
3928,944,-143,1
3803,869,-160,1
3655,787,-176,1
3544,700,-150,1
3452,572,-75,1
3413,412,49,1
3417,253,171,1
3477,140,285,1
3546,114,365,1
3638,102,412,1
3702,173,500,1
3767,241,527,1
3810,312,563,1
3869,379,601,1
3916,467,660,1
3946,508,592,1
3927,558,366,1
3906,532,89,1
3873,491,-123,1
3777,470,-292,1
3639,442,-418,1
3499,394,-485,1
3334,359,-492,1
3199,261,-413,1
3065,166,-291,1
2931,60,-196,1
2812,-45,-93,1
2738,-145,-5,1
2672,-218,91,1
2645,-282,205,1
2674,-376,328,1
2723,-468,451,1
2836,-517,653,1
2944,-540,839,1
3021,-520,886,1
3047,-484,798,1
3048,-435,666,1
3013,-377,538,1
2916,-354,427,1
2800,-325,339,1
2676,-307,269,1
2579,-280,223,1
2442,-276,176,1
2294,-291,169,1
2154,-267,202,1
2025,-263,240,1
1946,-265,286,1
1906,-254,314,1
1937,-249,347,1
2001,-252,397,1
2082,-258,451,1
2113,-199,439,1
2168,-192,340,1
2213,-196,158,1
2318,-174,11,1
2451,-101,-19,1
2626,-40,26,1
2785,27,84,1
2899,124,128,1
2932,204,113,1
2938,260,100,1
2910,272,99,1
2884,210,126,1
2824,161,135,1
2764,114,143,1
2690,12,155,1
2581,-98,140,1
2465,-168,95,1
2383,-198,49,1
2366,-183,28,1
2436,-70,82,1
2505,56,155,1
2580,205,246,1
2648,350,275,1
2705,476,244,1
2778,570,189,1
2834,616,124,1
2916,605,80,1
2998,577,58,1
3071,414,55,1
3182,348,131,1
3294,340,205,1
3419,264,214,1
3511,181,188,1
3569,119,199,1
3604,110,225,1
3659,106,231,1
3653,104,175,1
3719,173,146,1
3829,236,197,1
3947,271,360,1
4099,315,580,1
4102,350,652,1
3991,352,591,1
3790,331,497,1
3671,319,465,1
3677,228,425,1
3684,153,339,1
3674,144,284,1
3719,147,303,1
3744,118,363,1
3833,80,434,1
3871,-61,485,1
3812,-121,482,1
3834,-128,520,1
3799,-192,536,1
3822,-273,594,1
3901,-302,717,1
3975,-345,706,1
4097,-374,657,1
4111,-366,610,1
4103,-476,472,1
4165,-418,424,1
4108,-356,457,1
3977,-304,422,1
3922,-161,439,1
4069,-78,525,1
4172,-54,648,1
4192,53,707,1
4137,344,626,1
3961,615,508,1
3656,489,247,1
3344,320,155,1
3257,-50,187,1
3274,-405,338,1
3201,-438,645,1
3268,-639,959,1
3446,-879,1255,1
3834,-1139,1604,1
4044,-1587,1681,1
4311,-1696,1822,1
4663,-1480,1833,1
4884,-1083,1751,1
4829,-676,1612,1
4648,-461,1469,1
4367,-449,1250,1
4095,-636,1107,1
3858,-940,1073,1
3757,-1317,1151,1
3653,-1660,1305,1
3600,-1959,1388,1
3671,-2214,1421,1
3803,-2421,1432,1
3957,-2585,1409,1
4076,-2738,1355,1
4135,-2908,1324,1
4195,-3124,1368,1
4249,-3310,1637,1
4328,-3506,1993,1
4390,-3519,2404,1
4396,-3606,2639,1
4426,-3608,2669,1
4610,-3478,2639,1
4857,-3306,2473,1
5018,-2972,2269,1
4920,-2561,1999,1
4578,-2198,1654,1
4084,-1778,1412,1
3448,-1313,1192,1
2730,-990,959,1
2026,-799,703,1
1431,-541,548,1
1098,-77,753,1
1228,111,1929,1
1933,-48,4335,1
2526,-1563,7095,1
2797,-6191,8870,1
3304,-13077,8961,1
4039,-18043,8507,1
3383,-17724,7809,1
1592,-15497,6308,1
529,-14833,4947,1
316,-14129,4973,1
646,-13033,5537,1
1430,-11651,5950,1
2414,-10050,5629,1
3538,-8374,4942,1
4514,-6872,4330,1
5007,-5681,3486,1
4930,-4755,2532,1
4671,-3944,2072,1
4050,-3095,1772,1
3010,-2304,1393,1
1866,-1740,958,1
1050,-1398,692,1
525,-928,402,1
282,-863,137,1
136,-1244,-109,1
37,-1524,-304,1
70,-1640,-284,1
235,-1675,-147,1
348,-1692,-105,1
270,-2025,-269,1
-135,-2563,-460,1
-893,-3121,-647,1
-1789,-3738,-721,1
-2739,-4472,-685,1
-3546,-5033,-444,1
-4029,-5447,-44,1
-4167,-5655,402,1
-4110,-5552,705,1
-4315,-5384,703,1
-4454,-5230,732,1
-4376,-4944,893,1
-4338,-4569,1029,1
-4255,-4471,1029,1
-4120,-4460,960,1
-4090,-4395,868,1
-4476,-4443,657,1
-5310,-4633,822,1
-6170,-4733,1518,1
-6504,-4718,2523,1
-5892,-4849,3168,1
-4554,-5115,3216,1
-3269,-5345,2895,1
-2164,-5793,2308,1
-1054,-6436,1608,1
-43,-6829,1099,1
716,-6885,902,1
977,-6527,1015,1
573,-5983,1255,1
-224,-5361,1597,1
-872,-4735,2011,1
-1189,-4128,2097,1
-1258,-3532,1763,1
-1166,-3007,1289,1
-999,-2623,962,1
-827,-2361,826,1
-724,-2227,817,1
-722,-2200,833,1
-840,-2192,811,1
-1009,-2198,801,1
-1150,-2205,838,1
-1254,-2261,960,1
-1363,-2375,1136,1
-1429,-2557,1329,1
-1458,-2780,1570,1
-1670,-3099,1599,1
-1981,-3536,1462,1
-2273,-3994,1215,1
-2512,-4415,870,1
-2727,-4774,496,1
-2941,-4998,299,1
-3147,-5021,391,1
-3351,-4917,601,1
-3572,-4763,728,1
-3794,-4593,728,1
-3949,-4440,671,1
-4020,-4270,609,1
-4030,-4063,545,1
-3956,-3820,517,1
-3806,-3615,526,1
-3577,-3462,639,1
-3301,-3354,761,1
-3009,-3269,834,1
-2748,-3152,823,1
-2546,-2954,738,1
-2383,-2708,595,1
-2284,-2391,486,1
-2245,-2040,429,1
-2263,-1714,399,1
-2330,-1459,401,1
-2432,-1266,428,1
-2528,-1079,485,1
-2619,-1070,483,1
-2654,-1222,447,1
-2589,-1457,430,1
-2518,-1653,405,1
-2456,-1856,375,1
-2431,-2023,310,1
-2420,-2131,264,1
-2418,-2195,223,1
-2414,-2233,178,1
-2409,-2238,126,1
-2375,-2231,69,1
-2327,-2217,32,1
-2303,-2197,7,1
-2305,-2170,-2,1
-2342,-2145,7,1
-2392,-2152,33,1
-2436,-2173,55,1
-2467,-2162,64,1
-2494,-2123,49,1
-2513,-2042,42,1
-2505,-1941,40,1
-2489,-1835,46,1
-2476,-1740,50,1
-2464,-1661,63,1
-2451,-1597,79,1
-2467,-1503,62,1
-2443,-1546,73,1
-2422,-1581,72,1
-2416,-1619,63,1
-2403,-1676,81,1
-2378,-1727,105,1
-2364,-1779,109,1
-2358,-1827,98,1
-2358,-1858,71,1
-2347,-1870,51,1
-2336,-1896,29,1
-2323,-1908,7,1
-2315,-1911,-14,1
-2291,-1920,-19,1
-2246,-1962,-6,1
-2180,-2005,24,1
-2104,-2050,58,1
-2050,-2084,78,1
-2033,-2134,83,1
-2065,-2245,64,1
-2132,-2372,94,1
-2202,-2475,176,1
-2285,-2613,230,1
-2378,-2770,250,1
-2478,-2939,260,1
-2552,-3096,288,1
-2576,-3288,310,1
-2578,-3463,338,1
-2565,-3665,372,1
-2541,-3881,408,1
-2525,-4094,435,1
-2494,-4293,462,1
-2459,-4499,461,1
-2424,-4675,453,1
-2398,-4794,450,1
-2406,-4956,436,1
-2443,-5116,481,1
-2471,-5191,537,1
-2471,-5139,557,1
-2414,-5050,573,1
-2292,-5046,575,1
-2150,-5004,571,1
-1996,-4956,548,1
-1853,-4915,520,1
-1741,-4878,512,1
-1666,-4817,532,1
-1638,-4748,561,1
-1635,-4637,572,1
-1645,-4522,579,1
-1673,-4409,571,1
-1697,-4294,546,1
-1716,-4197,501,1
-1712,-4120,474,1
-1711,-4020,482,1
-1687,-3909,553,1
-1659,-3771,651,1
-1634,-3619,751,1
-1617,-3497,824,1
-1611,-3418,839,1
-1639,-3380,779,1
-1692,-3308,673,1
-1741,-3298,594,1
-1812,-3309,495,1
-1885,-3300,441,1
-1939,-3330,429,1
-1969,-3334,449,1
-1995,-3366,469,1
-1989,-3421,472,1
-1934,-3503,486,1
-1849,-3609,511,1
-1756,-3746,508,1
-1664,-3862,469,1
-1577,-3923,514,1
-1506,-3990,652,1
-1422,-4116,856,1
-1311,-4336,1020,1
-1137,-4606,1118,1
-949,-4855,1157,1
-799,-5072,1117,1
-687,-5225,1014,1
-631,-5270,931,1
-636,-5166,848,1
-687,-4999,735,1
-790,-4782,597,1
-951,-4535,477,1
-1078,-4280,455,1
-1160,-4047,510,1
-1190,-3916,531,1
-1250,-3876,454,1
-1334,-3893,357,1
-1441,-3955,310,1
-1544,-3994,308,1
-1653,-4006,438,1
-1807,-4050,570,1
-1988,-4102,673,1
-2211,-4190,702,1
-2663,-4413,814,1
-3396,-4551,1464,1
-3464,-4282,2314,1
-2927,-3835,2290,1
-2435,-3694,1263,1
-2335,-4056,-86,1
-2505,-4645,-851,1
-2525,-5195,-1033,1
-2207,-5476,-1116,1
-1850,-5296,-1312,1
-1775,-5137,-2076,1
-836,-5089,-1490,1
708,-4684,-366,1
2164,-3863,272,1
2940,-3168,618,1
3109,-2616,854,1
2966,-2137,1166,1
2852,-1416,2000,1
2458,-866,2639,1
1915,-786,3029,1
1373,-1534,2928,1
831,-2779,2371,1
163,-3815,1578,1
-612,-4325,820,1
-1335,-4458,180,1
-1764,-4438,-350,1
-1617,-4409,-502,1
-943,-4465,-51,1
38,-4497,866,1
1186,-4484,1847,1
2447,-4541,2627,1
3716,-4730,2985,1
4753,-4868,2821,1
5516,-4737,2350,1
5924,-4218,2023,1
5638,-3349,1845,1
5082,-2830,1709,1
4537,-2810,1646,1
4054,-2992,1713,1
3654,-3160,1913,1
3279,-3262,2133,1
2858,-3282,2266,1
2384,-3251,2205,1
1933,-3256,2001,1
1577,-3339,1805,1
1371,-3554,1711,1
1196,-3721,1722,1
983,-3805,1775,1
748,-3867,1766,1
453,-3919,1658,1
116,-3928,1502,1
-213,-3928,1332,1
-519,-3946,1160,1
-746,-3988,1065,1
-896,-4016,1043,1
-949,-4010,1047,1
-921,-3973,1046,1
-791,-3905,1049,1
-592,-3813,1056,1
-386,-3677,1047,1
-178,-3546,1059,1
38,-3459,1103,1
224,-3478,1113,1
331,-3543,1089,1
374,-3638,1099,1
383,-3719,1151,1
363,-3753,1185,1
327,-3723,1192,1
277,-3646,1171,1
239,-3566,1156,1
198,-3493,1157,1
138,-3423,1180,1
60,-3369,1210,1
-44,-3361,1223,1
-174,-3374,1199,1
-307,-3416,1185,1
-430,-3468,1203,1
-529,-3523,1261,1
-602,-3568,1325,1
-643,-3628,1386,1
-662,-3665,1453,1
-670,-3690,1480,1
-637,-3688,1479,1
-552,-3704,1509,1
-507,-3779,1506,1
-504,-3875,1458,1
-519,-3914,1403,1
-551,-3905,1365,1
-583,-3881,1351,1
-601,-3855,1354,1
-599,-3810,1359,1
-572,-3771,1355,1
-540,-3712,1340,1
-511,-3639,1332,1
-471,-3585,1327,1
-431,-3543,1331,1
-372,-3531,1353,1
-285,-3534,1388,1
-170,-3551,1430,1
-50,-3589,1469,1
76,-3641,1501,1
187,-3716,1506,1
255,-3796,1492,1
272,-3851,1463,1
222,-3886,1442,1
155,-3905,1462,1
99,-3933,1503,1
54,-3974,1545,1
14,-4013,1567,1
-21,-4057,1555,1
-45,-4090,1546,1
-70,-4103,1544,1
-93,-4102,1528,1
-118,-4076,1505,1
-167,-4027,1476,1
-224,-3969,1436,1
-293,-3910,1385,1
-354,-3843,1343,1
-407,-3780,1310,1
-444,-3724,1286,1
-468,-3679,1276,1
-472,-3645,1269,1
-463,-3622,1266,1
-444,-3611,1266,1
-416,-3605,1270,1
-372,-3603,1281,1
-320,-3608,1306,1
-276,-3617,1334,1
-240,-3633,1364,1
-212,-3653,1388,1
-187,-3674,1398,1
-172,-3715,1398,1
-169,-3759,1384,1
-170,-3791,1370,1
-166,-3815,1363,1
-160,-3836,1365,1
-154,-3858,1384,1
-144,-3879,1403,1
-138,-3899,1415,1
-134,-3920,1416,1
-135,-3935,1406,1
-146,-3943,1387,1
-149,-3941,1369,1
-159,-3926,1359,1
-167,-3910,1361,1
-167,-3884,1366,1
-155,-3856,1371,1
-144,-3839,1388,1
-128,-3826,1390,1
-118,-3811,1384,1
-108,-3807,1363,1
-97,-3806,1341,1
-85,-3807,1317,1
-64,-3812,1304,1
-40,-3817,1298,1
-19,-3823,1286,1
2,-3826,1284,1
21,-3826,1281,1
40,-3827,1279,1
53,-3830,1272,1
73,-3832,1248,1
97,-3829,1228,1
124,-3838,1209,1
165,-3853,1201,1
204,-3867,1203,1
236,-3887,1197,1
264,-3902,1189,1
286,-3912,1182,1
296,-3925,1178,1
310,-3949,1188,1
323,-3977,1203,1
329,-4006,1214,1
326,-4029,1223,1
317,-4050,1225,1
306,-4062,1227,1
282,-4062,1230,1
247,-4053,1229,1
214,-4038,1233,1
186,-4031,1241,1
169,-4027,1244,1
158,-4020,1245,1
150,-4017,1248,1
146,-4020,1251,1
144,-4014,1251,1
144,-4008,1259,1
149,-3996,1278,1
153,-3982,1297,1
152,-3966,1303,1
146,-3953,1291,1
144,-3939,1279,1
138,-3930,1272,1
127,-3916,1264,1
116,-3904,1263,1
108,-3891,1272,1
99,-3884,1287,1
86,-3882,1298,1
70,-3877,1299,1
58,-3880,1296,1
41,-3882,1287,1
24,-3879,1278,1
11,-3878,1268,1
7,-3860,1270,1
36,-3842,1265,1
64,-3827,1257,1
71,-3851,1227,1
45,-3883,1206,1
14,-3909,1191,1
-12,-3921,1186,1
-29,-3916,1190,1
-18,-3915,1207,1
-7,-3904,1228,1
4,-3905,1229,1
28,-3881,1241,1
28,-3826,1270,1
16,-3826,1247,1
36,-3906,1194,1
61,-3935,1179,1
55,-3934,1146,1
62,-3882,1198,1
38,-3740,1259,1
21,-3760,1209,1
32,-3902,1121,1
68,-3967,1122,1
94,-3939,1170,1
85,-3892,1196,1
78,-3897,1203,1
42,-3881,1201,1
9,-3895,1180,1
10,-3934,1154,1
16,-3944,1136,1
28,-3939,1143,1
38,-3924,1155,1
42,-3935,1156,1
41,-3959,1143,1
38,-3984,1115,1
37,-4010,1088,1
47,-4020,1091,1
67,-4019,1117,1
86,-4024,1139,1
111,-4040,1148,1
138,-4048,1154,1
150,-4029,1157,1
152,-3988,1155,1
145,-3945,1162,1
130,-3911,1217,1
106,-3826,1205,1
110,-3736,1158,1
84,-3744,1119,1
58,-3778,1133,1
52,-3804,1147,1
61,-3831,1143,1
78,-3863,1137,1
94,-3966,1100,1
80,-3974,1142,1
62,-3931,1196,1
79,-3925,1192,1
70,-3927,1167,1
68,-3952,1127,1
60,-3984,1107,1
60,-3993,1140,1
60,-3988,1169,1
54,-3976,1173,1
43,-3954,1162,1
26,-3934,1144,1
46,-3932,1140,1
29,-3898,1148,1
16,-3854,1150,1
8,-3837,1146,1
29,-3839,1164,1
50,-3836,1187,1
50,-3844,1177,1
66,-3889,1163,1
82,-3928,1154,1
93,-3943,1160,1
91,-3932,1159,1
79,-3921,1172,1
83,-3918,1194,1
32,-3924,1153,1
-14,-3929,1111,1
-32,-3899,1106,1
-14,-3942,1060,1
3,-3903,1118,1
8,-3853,1191,1
10,-3885,1178,1
7,-3916,1138,1
37,-3928,1135,1
49,-3922,1128,1
55,-3912,1144,1
38,-3878,1149,1
72,-3877,1166,1
92,-3884,1171,1
98,-3846,1195,1
62,-3828,1170,1
97,-3909,1145,1
58,-4009,1036,1
111,-4104,1024,1
79,-4045,1151,1
42,-3879,1308,1
0,-3720,1317,1
-33,-3667,1209,1
-22,-3744,1098,1
-35,-3807,1046,1
-88,-3874,1030,1
-31,-3951,1082,1
-64,-3931,1109,1
-68,-3901,1137,1
-80,-3863,1157,1
-91,-3859,1134,1
-98,-3890,1081,1
-63,-3937,1076,1
-76,-3943,1077,1
-79,-3950,1088,1
-78,-3951,1104,1
-94,-3964,1104,1
-101,-3987,1095,1
-92,-4025,1089,1
-98,-4045,1088,1
-124,-4047,1078,1
-123,-4118,1039,1
-81,-4073,1093,1
-79,-4003,1137,1
-68,-3966,1144,1
-88,-3938,1120,1
-112,-3919,1108,1
-88,-3935,1113,1
-15,-3999,1137,1
-4,-3953,1175,1
-17,-3878,1192,1
-17,-3842,1172,1
-48,-3835,1110,1
-62,-3837,1086,1
-74,-3855,1071,1
-83,-3861,1071,1
-100,-3922,1060,1
-70,-3959,1103,1
-50,-3972,1113,1
-32,-3934,1127,1
-48,-3907,1110,1
-60,-3896,1114,1
-63,-3891,1116,1
-60,-3951,1120,1
-82,-3982,1091,1
-131,-3949,1071,1
-128,-3952,1057,1
-118,-3965,1060,1
-112,-3980,1055,1
-129,-3979,1068,1
-143,-4009,1069,1
-173,-4044,1049,1
-174,-4001,1061,1
-143,-4004,1057,1
-118,-4026,1061,1
-120,-4060,1070,1
-68,-4028,1162,1
-91,-3988,1145,1
-71,-3971,1108,1
-61,-3959,1103,1
-76,-3916,1124,1
-87,-3898,1144,1
-107,-3903,1160,1
-112,-3907,1162,1
-130,-3874,1151,1
-168,-3838,1129,1
-199,-3834,1095,1
-209,-3914,1055,1
-245,-3993,1029,1
-252,-4099,1033,1
-255,-4170,1074,1
-265,-4143,1137,1
-274,-4125,1144,1
-271,-4104,1144,1
-242,-4101,1153,1
-213,-4092,1164,1
-183,-4092,1165,1
-164,-4111,1177,1
-146,-4157,1215,1
-162,-4115,1280,1
-208,-4109,1246,1
-192,-4035,1262,1
-165,-3982,1286,1
-121,-3900,1350,1
-19,-3836,1419,1
115,-3787,1486,1
190,-3710,1530,1
249,-3661,1565,1
260,-3610,1581,1
247,-3585,1575,1
204,-3573,1556,1
124,-3494,1546,1
110,-3518,1534,1
120,-3513,1563,1
154,-3536,1590,1
224,-3546,1647,1
264,-3554,1677,1
308,-3538,1705,1
334,-3518,1708,1
362,-3501,1704,1
352,-3497,1679,1
341,-3525,1645,1
322,-3557,1634,1
319,-3560,1654,1
320,-3553,1674,1
328,-3543,1683,1
330,-3526,1680,1
326,-3537,1665,1
343,-3542,1662,1
380,-3516,1686,1
390,-3472,1708,1
385,-3427,1713,1
374,-3419,1665,1
348,-3408,1637,1
323,-3420,1621,1
297,-3440,1612,1
284,-3464,1617,1
252,-3491,1568,1
234,-3541,1545,1
195,-3653,1524,1
171,-3705,1500,1
146,-3789,1439,1
99,-3841,1420,1
82,-3896,1386,1
61,-3932,1363,1
49,-3943,1361,1
24,-3950,1344,1
-14,-3972,1307,1
-27,-4024,1258,1
-36,-4065,1215,1
-50,-4085,1185,1
-45,-4096,1165,1
59,-4060,1302,1
-44,-4002,1251,1
-136,-3970,1185,1
-164,-3991,1139,1
-156,-4010,1099,1
-120,-4029,1072,1
-99,-4039,1064,1
-72,-4069,1077,1
-38,-4096,1088,1
11,-4141,1076,1
74,-4118,1109,1
125,-4041,1162,1
158,-3961,1202,1
143,-3918,1211,1
98,-3905,1178,1
55,-3918,1127,1
3,-3924,1071,1
-26,-3892,1073,1
-33,-3839,1110,1
-24,-3827,1129,1
-14,-3841,1132,1
2,-3873,1141,1
31,-3895,1160,1
79,-3936,1165,1
133,-3968,1169,1
159,-3956,1174,1
162,-3951,1173,1
140,-3953,1161,1
115,-3990,1142,1
98,-4030,1123,1
76,-4033,1123,1
55,-4028,1112,1
32,-4018,1105,1
19,-4019,1089,1
13,-4014,1087,1
22,-3998,1098,1
35,-3972,1119,1
50,-3937,1141,1
69,-3906,1155,1
81,-3875,1159,1
93,-3846,1163,1
107,-3828,1169,1
115,-3823,1166,1
120,-3822,1161,1
118,-3826,1151,1
121,-3834,1146,1
119,-3849,1137,1
119,-3865,1128,1
114,-3881,1122,1
115,-3900,1119,1
119,-3910,1115,1
110,-3921,1113,1
106,-3931,1109,1
101,-3937,1109,1
100,-3950,1113,1
93,-3969,1108,1
80,-3981,1096,1
66,-3986,1081,1
56,-3984,1074,1
53,-3980,1075,1
46,-3981,1080,1
42,-3981,1086,1
39,-3972,1092,1
44,-3970,1093,1
42,-3968,1098,1
46,-3964,1112,1
54,-3961,1130,1
61,-3956,1142,1
62,-3948,1143,1
61,-3933,1132,1
56,-3916,1125,1
55,-3908,1117,1
52,-3898,1115,1
56,-3896,1126,1
60,-3893,1136,1
65,-3896,1137,1
70,-3897,1141,1
67,-3897,1140,1
71,-3904,1135,1
68,-3907,1128,1
70,-3909,1131,1
72,-3916,1136,1
73,-3918,1138,1
73,-3921,1139,1
69,-3920,1141,1
69,-3927,1143,1
72,-3935,1135,1
70,-3941,1128,1
68,-3947,1124,1
68,-3951,1127,1
66,-3950,1129,1
60,-3948,1127,1
64,-3949,1129,1
67,-3945,1122,1
65,-3942,1124,1
63,-3938,1122,1
64,-3939,1122,1
61,-3940,1125,1
57,-3943,1121,1
55,-3945,1116,1
52,-3943,1121,1
51,-3942,1128,1
54,-3937,1139,1
55,-3939,1141,1
56,-3936,1139,1
51,-3935,1141,1
48,-3932,1143,1
42,-3927,1133,1
32,-3923,1117,1
25,-3924,1104,1
17,-3923,1096,1
20,-3925,1100,1
29,-3930,1105,1
41,-3934,1109,1
53,-3933,1114,1
66,-3937,1113,1
73,-3944,1113,1
83,-3948,1121,1
94,-3947,1128,1
107,-3950,1134,1
115,-3950,1140,1
114,-3964,1122,1
105,-3963,1096,1
107,-3955,1103,1
73,-3901,1121,1
120,-3965,1084,1
211,-3931,1103,1
293,-3800,1167,1
359,-3703,1215,1
401,-3627,1213,1
334,-3578,1159,1
263,-3723,1149,1
212,-3844,1153,1
200,-3876,1145,1
369,-4013,1096,1
545,-4114,1064,1
508,-4147,1066,1
306,-4057,1094,1
164,-3993,1090,1
55,-3929,1070,1
18,-3942,1055,1
13,-3946,1060,1
11,-3893,1077,1
-18,-3842,1054,1
-47,-3836,1005,1
-65,-3839,1029,1
-55,-3859,1092,1
-48,-3869,1146,1
1,-3907,1185,1
23,-3923,1197,1
32,-3944,1193,1
31,-3960,1184,1
47,-3978,1173,1
57,-3997,1155,1
71,-4003,1162,1
105,-4006,1169,1
128,-4011,1166,1
132,-4012,1158,1
129,-4018,1135,1
137,-4021,1114,1
159,-3984,1129,1
176,-3929,1149,1
178,-3875,1168,1
173,-3838,1176,1
158,-3819,1171,1
151,-3817,1160,1
142,-3817,1166,1
141,-3821,1175,1
139,-3823,1184,1
141,-3822,1186,1
135,-3826,1179,1
130,-3831,1172,1
129,-3829,1175,1
127,-3830,1183,1
136,-3837,1186,1
128,-3847,1170,1
106,-3848,1140,1
94,-3848,1130,1
98,-3855,1130,1
106,-3853,1137,1
114,-3855,1134,1
112,-3855,1128,1
114,-3861,1119,1
110,-3866,1111,1
110,-3872,1104,1
107,-3882,1090,1
105,-3889,1075,1
106,-3895,1069,1
105,-3906,1064,1
104,-3921,1063,1
100,-3938,1061,1
100,-3950,1054,1
117,-3973,1040,1
128,-3980,1038,1
115,-3980,1042,1
111,-3989,1044,1
112,-3995,1040,1
101,-3989,1039,1
89,-3993,1038,1
84,-3984,1034,1
89,-3984,1023,1
93,-3981,1029,1
97,-3985,1036,1
91,-3972,1043,1
82,-3970,1057,1
85,-3970,1068,1
95,-3970,1073,1
102,-3971,1078,1
102,-3976,1080,1
104,-3977,1075,1
111,-3973,1080,1
116,-3972,1083,1
120,-3970,1088,1
124,-3966,1092,1
127,-3964,1094,1
135,-3961,1101,1
143,-3970,1098,1
142,-3962,1097,1
137,-3959,1098,1
132,-3945,1104,1
136,-3931,1106,1
141,-3919,1107,1
138,-3906,1102,1
140,-3908,1100,1
141,-3913,1095,1
136,-3918,1095,1
133,-3920,1093,1
129,-3926,1097,1
126,-3927,1094,1
124,-3928,1088,1
121,-3929,1088,1
120,-3931,1092,1
124,-3936,1102,1
124,-3937,1106,1
120,-3936,1105,1
117,-3937,1105,1
117,-3936,1104,1
114,-3930,1096,1
114,-3925,1095,1
112,-3922,1095,1
110,-3919,1093,1
110,-3916,1091,1
104,-3910,1083,1
104,-3904,1082,1
97,-3902,1087,1
92,-3905,1085,1
92,-3910,1080,1
95,-3917,1091,1
103,-3923,1102,1
105,-3928,1102,1
105,-3934,1101,1
105,-3932,1102,1
108,-3932,1103,1
113,-3925,1107,1
115,-3922,1115,1
113,-3920,1107,1
105,-3913,1096,1
102,-3905,1090,1
101,-3904,1089,1
105,-3905,1095,1
112,-3913,1099,1
117,-3916,1104,1
116,-3919,1100,1
115,-3924,1098,1
118,-3925,1099,1
121,-3929,1093,1
117,-3933,1088,1
118,-3932,1087,1
122,-3930,1088,1
121,-3933,1089,1
121,-3938,1094,1
122,-3943,1095,1
122,-3946,1086,1
119,-3949,1093,1
123,-3951,1099,1
126,-3953,1106,1
126,-3951,1114,1
128,-3945,1116,1
127,-3939,1105,1
123,-3934,1101,1
124,-3933,1097,1
119,-3933,1096,1
117,-3934,1095,1
115,-3932,1095,1
116,-3930,1099,1
118,-3935,1099,1
116,-3937,1097,1
113,-3932,1091,1
116,-3929,1093,1
119,-3930,1093,1
118,-3929,1089,1
117,-3931,1087,1
115,-3933,1090,1
111,-3938,1095,1
108,-3940,1094,1
106,-3942,1088,1
109,-3942,1093,1
109,-3940,1096,1
110,-3945,1100,1
109,-3940,1101,1
111,-3932,1101,1
108,-3927,1101,1
110,-3923,1097,1
110,-3920,1096,1
111,-3919,1096,1
113,-3917,1092,1
113,-3919,1099,1
119,-3917,1103,1
118,-3919,1109,1
117,-3924,1108,1
116,-3921,1100,1
117,-3921,1096,1
121,-3924,1102,1
125,-3923,1108,1
125,-3923,1114,1
124,-3925,1118,1
119,-3924,1122,1
120,-3921,1123,1
117,-3919,1127,1
114,-3917,1120,1
112,-3916,1115,1
110,-3910,1110,1
110,-3908,1111,1
105,-3908,1108,1
110,-3911,1110,1
111,-3915,1115,1
109,-3916,1113,1
114,-3916,1111,1
114,-3917,1114,1
116,-3916,1119,1
119,-3917,1125,1
122,-3923,1127,1
123,-3918,1127,1
128,-3915,1125,1
131,-3912,1130,1
128,-3910,1140,1
129,-3912,1152,1
128,-3916,1149,1
128,-3915,1143,1
126,-3919,1139,1
124,-3919,1134,1
122,-3919,1138,1
114,-3918,1138,1
109,-3919,1135,1
110,-3919,1137,1
110,-3920,1140,1
107,-3916,1138,1
110,-3917,1134,1
109,-3917,1131,1
111,-3912,1126,1
111,-3911,1116,1
110,-3907,1118,1
116,-3908,1125,1
117,-3911,1129,1
119,-3913,1128,1
118,-3917,1131,1
114,-3919,1127,1
114,-3922,1124,1
116,-3933,1112,1
106,-3924,1119,1
120,-3937,1123,1
112,-3926,1129,1
114,-3920,1136,1
121,-3915,1140,1
123,-3917,1140,1
121,-3905,1138,1
125,-3917,1134,1
120,-3922,1134,1
118,-3925,1135,1
115,-3924,1130,1
118,-3921,1118,1
147,-3949,1111,1
114,-3918,1116,1
98,-3910,1125,1
114,-3913,1142,1
121,-3910,1158,1
126,-3926,1149,1
122,-3930,1139,1
129,-3936,1137,1
135,-3930,1138,1
133,-3933,1133,1
131,-3926,1133,1
126,-3919,1134,1
133,-3927,1133,1
132,-3918,1127,1
129,-3908,1125,1
121,-3902,1124,1
108,-3907,1121,1
107,-3910,1117,1
116,-3916,1121,1
120,-3921,1125,1
126,-3925,1136,1
124,-3927,1151,1
128,-3927,1160,1
125,-3935,1164,1
126,-3930,1165,1
129,-3919,1166,1
131,-3915,1157,1
124,-3915,1145,1
125,-3915,1144,1
131,-3935,1139,1
107,-3931,1139,1
147,-3990,1155,1
123,-3917,1178,1
159,-3908,1187,1
145,-3882,1178,1
137,-3878,1168,1
140,-3879,1166,1
134,-3890,1161,1
133,-3896,1162,1
132,-3897,1162,1
130,-3900,1163,1
129,-3903,1165,1
137,-3928,1162,1
89,-3929,1162,1
120,-3953,1189,1
141,-3897,1203,1
141,-3861,1183,1
125,-3870,1160,1
105,-3887,1146,1
107,-3890,1153,1
108,-3892,1158,1
108,-3895,1161,1
108,-3897,1156,1
111,-3901,1152,1
113,-3901,1150,1
112,-3904,1158,1
113,-3909,1163,1
116,-3910,1162,1
115,-3906,1159,1
111,-3904,1154,1
111,-3903,1150,1
113,-3904,1155,1
114,-3900,1162,1
114,-3899,1165,1
112,-3898,1160,1
110,-3895,1162,1
110,-3899,1157,1
111,-3902,1158,1
112,-3900,1155,1
114,-3901,1159,1
118,-3904,1156,1
116,-3908,1154,1
122,-3904,1154,1
120,-3904,1155,1
122,-3903,1155,1
124,-3899,1151,1
127,-3902,1152,1
128,-3902,1155,1
126,-3904,1150,1
125,-3902,1150,1
124,-3903,1148,1
128,-3905,1149,1
128,-3907,1149,1
129,-3912,1153,1
132,-3916,1154,1
133,-3923,1157,1
133,-3923,1158,1
131,-3924,1163,1
130,-3923,1164,1
129,-3925,1156,1
129,-3925,1153,1
131,-3921,1149,1
130,-3918,1157,1
132,-3921,1157,1
131,-3920,1154,1
130,-3917,1158,1
126,-3917,1161,1
127,-3918,1161,1
124,-3917,1162,1
118,-3915,1162,1
122,-3913,1159,1
122,-3911,1155,1
116,-3910,1154,1
112,-3909,1148,1
113,-3910,1147,1
111,-3908,1142,1
110,-3909,1143,1
111,-3909,1142,1
113,-3910,1136,1
111,-3910,1136,1
112,-3911,1135,1
110,-3909,1141,1
108,-3912,1141,1
110,-3912,1139,1
113,-3912,1140,1
115,-3916,1136,1
116,-3916,1138,1
117,-3919,1144,1
119,-3919,1150,1
121,-3920,1148,1
124,-3915,1147,1
127,-3916,1148,1
131,-3919,1151,1
128,-3922,1147,1
124,-3920,1142,1
123,-3918,1136,1
123,-3918,1138,1
125,-3914,1139,1
129,-3912,1139,1
130,-3911,1139,1
128,-3912,1139,1
124,-3909,1140,1
125,-3911,1140,1
120,-3915,1132,1
121,-3914,1128,1
126,-3914,1133,1
125,-3914,1139,1
123,-3917,1137,1
127,-3918,1139,1
127,-3918,1147,1
125,-3915,1150,1
124,-3916,1151,1
126,-3916,1154,1
124,-3916,1154,1
124,-3918,1154,1
120,-3915,1155,1
121,-3910,1153,1
120,-3906,1149,1
118,-3903,1148,1
117,-3904,1149,1
116,-3903,1147,1
114,-3901,1141,1
115,-3907,1137,1
116,-3909,1137,1
114,-3913,1137,1
119,-3915,1130,1
122,-3920,1133,1
125,-3923,1136,1
123,-3926,1132,1
122,-3925,1128,1
124,-3925,1133,1
121,-3925,1132,1
115,-3921,1133,1
108,-3915,1121,1
103,-3909,1116,1
101,-3909,1114,1
103,-3914,1121,1
111,-3920,1131,1
119,-3928,1140,1
125,-3929,1142,1
124,-3924,1133,1
124,-3921,1122,1
125,-3919,1121,1
126,-3914,1120,1
126,-3914,1116,1
124,-3914,1113,1
127,-3913,1114,1
128,-3917,1118,1
128,-3926,1117,1
129,-3936,1125,1
130,-3940,1128,1
129,-3942,1129,1
130,-3942,1133,1
127,-3934,1138,1
128,-3926,1143,1
128,-3920,1142,1
126,-3916,1137,1
126,-3916,1137,1
124,-3916,1131,1
119,-3915,1124,1
121,-3916,1127,1
120,-3914,1131,1
125,-3914,1133,1
124,-3911,1130,1
124,-3908,1126,1
120,-3908,1129,1
121,-3909,1125,1
120,-3912,1126,1
118,-3915,1129,1
116,-3916,1129,1
116,-3918,1124,1
115,-3918,1124,1
117,-3917,1124,1
116,-3920,1119,1
115,-3917,1111,1
116,-3919,1116,1
114,-3920,1122,1
114,-3920,1120,1
117,-3920,1116,1
118,-3921,1109,1
115,-3920,1107,1
119,-3917,1105,1
119,-3915,1109,1
122,-3918,1110,1
119,-3919,1112,1
118,-3921,1117,1
120,-3920,1121,1
121,-3918,1124,1
119,-3917,1127,1
123,-3920,1128,1
126,-3920,1125,1
126,-3919,1125,1
124,-3918,1122,1
125,-3918,1117,1
120,-3921,1115,1
119,-3919,1116,1
116,-3916,1113,1
115,-3911,1103,1
118,-3913,1107,1
121,-3916,1118,1
124,-3916,1123,1
122,-3916,1122,1
124,-3922,1120,1
127,-3924,1122,1
127,-3928,1120,1
125,-3933,1119,1
122,-3932,1116,1
125,-3934,1115,1
124,-3929,1118,1
126,-3931,1121,1
126,-3928,1119,1
124,-3927,1121,1
121,-3927,1121,1
125,-3932,1116,1
123,-3932,1111,1
124,-3928,1116,1
124,-3925,1121,1
122,-3924,1120,1
118,-3924,1118,1
121,-3926,1125,1
121,-3931,1116,1
120,-3928,1106,1
120,-3925,1105,1
121,-3921,1107,1
118,-3926,1106,1
119,-3922,1104,1
119,-3919,1099,1
118,-3918,1096,1
117,-3916,1097,1
120,-3917,1100,1
121,-3919,1099,1
121,-3923,1100,1
121,-3926,1109,1
123,-3926,1112,1
121,-3925,1109,1
124,-3929,1107,1
123,-3929,1108,1
123,-3926,1109,1
123,-3927,1113,1
125,-3928,1111,1
123,-3929,1108,1
121,-3931,1109,1
119,-3929,1108,1
121,-3926,1101,1
121,-3923,1098,1
117,-3922,1100,1
117,-3921,1098,1
122,-3923,1095,1
118,-3923,1101,1
118,-3925,1097,1
120,-3925,1098,1
121,-3927,1098,1
125,-3926,1104,1
129,-3928,1107,1
127,-3929,1108,1
127,-3933,1109,1
128,-3933,1115,1
130,-3931,1116,1
124,-3926,1105,1
120,-3926,1100,1
119,-3926,1101,1
119,-3923,1101,1
120,-3922,1101,1
120,-3923,1101,1
120,-3921,1099,1
119,-3921,1095,1
115,-3920,1096,1
118,-3917,1095,1
117,-3917,1096,1
120,-3919,1100,1
117,-3920,1100,1
117,-3922,1098,1
121,-3921,1097,1
121,-3925,1096,1
121,-3927,1101,1
122,-3926,1108,1
124,-3927,1107,1
123,-3925,1112,1
121,-3925,1118,1
122,-3928,1113,1
124,-3927,1117,1
125,-3928,1116,1
123,-3931,1116,1
124,-3932,1110,1
118,-3933,1103,1
116,-3933,1104,1
119,-3928,1107,1
125,-3933,1106,1
127,-3934,1103,1
125,-3934,1097,1
127,-3926,1089,1
132,-3928,1087,1
124,-3926,1087,1
120,-3920,1083,1
115,-3916,1082,1
110,-3917,1081,1
110,-3918,1085,1
116,-3924,1094,1
118,-3928,1097,1
128,-3939,1098,1
128,-3945,1100,1
126,-3947,1095,1
123,-3944,1090,1
122,-3935,1088,1
120,-3931,1082,1
118,-3926,1082,1
117,-3926,1086,1
114,-3922,1081,1
115,-3922,1076,1
119,-3926,1079,1
121,-3932,1086,1
125,-3938,1096,1
127,-3940,1104,1
134,-3939,1108,1
131,-3939,1118,1
135,-3929,1114,1
131,-3928,1110,1
128,-3928,1107,1
130,-3925,1103,1
127,-3926,1099,1
131,-3929,1099,1
129,-3928,1102,1
127,-3928,1100,1
128,-3932,1094,1
126,-3931,1097,1
128,-3929,1101,1
123,-3930,1104,1
126,-3932,1108,1
125,-3930,1108,1
119,-3930,1101,1
118,-3927,1090,1
118,-3926,1088,1
116,-3927,1088,1
115,-3924,1086,1
117,-3922,1082,1
117,-3926,1091,1
117,-3927,1098,1
115,-3931,1097,1
113,-3927,1096,1
115,-3927,1094,1
117,-3930,1093,1
117,-3928,1090,1
119,-3926,1085,1
115,-3929,1078,1
118,-3927,1079,1
117,-3928,1081,1
112,-3929,1081,1
115,-3932,1089,1
116,-3932,1091,1
115,-3932,1093,1
116,-3932,1097,1
122,-3935,1101,1
128,-3935,1101,1
126,-3935,1105,1
126,-3931,1100,1
125,-3926,1090,1
127,-3918,1089,1
122,-3917,1087,1
122,-3916,1082,1
125,-3917,1082,1
124,-3921,1089,1
129,-3925,1098,1
128,-3925,1107,1
128,-3925,1107,1
127,-3928,1106,1
122,-3930,1108,1
121,-3933,1105,1
123,-3932,1102,1
125,-3930,1103,1
124,-3928,1105,1
127,-3926,1110,1
129,-3928,1111,1
132,-3928,1110,1
129,-3926,1102,1
128,-3921,1101,1
127,-3917,1101,1
127,-3917,1100,1
125,-3919,1101,1
122,-3920,1099,1
117,-3927,1091,1
118,-3929,1090,1
120,-3930,1092,1
121,-3929,1094,1
123,-3935,1098,1
125,-3934,1101,1
122,-3934,1101,1
120,-3930,1104,1
119,-3930,1106,1
121,-3932,1107,1
124,-3928,1106,1
123,-3925,1105,1
123,-3924,1101,1
125,-3924,1106,1
128,-3925,1116,1
127,-3924,1119,1
123,-3923,1112,1
118,-3921,1103,1
116,-3921,1098,1
114,-3924,1093,1
112,-3924,1096,1
109,-3924,1095,1
109,-3924,1094,1
110,-3925,1095,1
112,-3925,1095,1
112,-3927,1097,1
114,-3927,1095,1
112,-3926,1099,1
115,-3928,1097,1
117,-3928,1096,1
118,-3925,1094,1
119,-3927,1094,1
117,-3922,1097,1
121,-3919,1096,1
124,-3919,1104,1
127,-3923,1110,1
127,-3926,1112,1
126,-3928,1109,1
130,-3931,1113,1
123,-3930,1117,1
123,-3928,1111,1
125,-3929,1109,1
124,-3931,1109,1
124,-3931,1107,1
123,-3931,1101,1
126,-3929,1099,1
129,-3929,1098,1
125,-3925,1100,1
128,-3923,1105,1
128,-3918,1105,1
129,-3917,1105,1
124,-3915,1104,1
125,-3916,1112,1
127,-3920,1111,1
127,-3920,1112,1
130,-3922,1113,1
133,-3918,1119,1
129,-3919,1117,1
126,-3919,1120,1
125,-3921,1123,1
126,-3921,1119,1
125,-3923,1120,1
124,-3926,1123,1
122,-3927,1124,1
119,-3925,1123,1
121,-3930,1127,1
123,-3928,1130,1
122,-3923,1136,1
124,-3922,1131,1
125,-3920,1124,1
125,-3918,1124,1
124,-3921,1122,1
126,-3919,1113,1
124,-3917,1110,1
129,-3920,1114,1
136,-3921,1120,1
134,-3922,1122,1
129,-3923,1124,1
157,-3944,1120,1
141,-3937,1114,1
89,-3924,1102,1
86,-3911,1107,1
95,-3897,1126,1
102,-3890,1125,1
95,-3886,1120,1
103,-3902,1104,1
115,-3916,1105,1
119,-3922,1118,1
120,-3924,1133,1
121,-3933,1135,1
121,-3933,1133,1
148,-3956,1124,1
129,-3932,1119,1
110,-3925,1108,1
114,-3912,1112,1
132,-3916,1122,1
135,-3913,1128,1
129,-3927,1121,1
141,-3952,1121,1
149,-3942,1125,1
111,-3911,1134,1
138,-3979,1138,1
131,-3960,1160,1
136,-3912,1175,1
131,-3870,1165,1
114,-3867,1138,1
121,-3871,1133,1
116,-3883,1132,1
112,-3895,1148,1
166,-3956,1158,1
124,-3909,1161,1
130,-3924,1154,1
116,-3905,1154,1
106,-3886,1147,1
117,-3889,1145,1
111,-3896,1136,1
114,-3905,1132,1
117,-3904,1143,1
115,-3906,1140,1
115,-3912,1140,1
121,-3916,1145,1
123,-3923,1141,1
122,-3921,1142,1
123,-3920,1148,1
121,-3915,1154,1
119,-3913,1147,1
120,-3913,1139,1
119,-3910,1133,1
118,-3906,1129,1
123,-3910,1131,1
122,-3909,1139,1
121,-3907,1143,1
122,-3910,1141,1
125,-3912,1139,1
128,-3914,1136,1
128,-3914,1144,1
123,-3909,1146,1
94,-3936,1143,1
142,-3974,1161,1
136,-3950,1158,1
119,-3899,1159,1
111,-3862,1163,1
122,-3880,1161,1
135,-3923,1155,1
113,-3905,1151,1
110,-3880,1155,1
114,-3874,1158,1
116,-3885,1152,1
118,-3894,1148,1
125,-3891,1149,1
125,-3897,1151,1
128,-3906,1149,1
126,-3910,1143,1
123,-3913,1151,1
127,-3917,1157,1
131,-3923,1163,1
129,-3922,1169,1
130,-3919,1168,1
129,-3913,1165,1
127,-3912,1164,1
127,-3910,1161,1
129,-3908,1160,1
127,-3903,1163,1
131,-3904,1165,1
127,-3904,1168,1
126,-3903,1165,1
125,-3904,1168,1
124,-3901,1173,1
121,-3899,1167,1
120,-3900,1165,1
120,-3902,1159,1
123,-3900,1160,1
122,-3899,1157,1
120,-3900,1150,1
118,-3898,1147,1
119,-3900,1147,1
122,-3903,1151,1
122,-3903,1154,1
125,-3908,1164,1
125,-3909,1168,1
125,-3909,1160,1
124,-3907,1156,1
124,-3910,1158,1
127,-3910,1163,1
127,-3911,1160,1
131,-3912,1162,1
133,-3915,1166,1
128,-3913,1162,1
128,-3913,1156,1
127,-3914,1159,1
126,-3917,1167,1
125,-3912,1163,1
127,-3911,1157,1
127,-3914,1154,1
122,-3914,1146,1
123,-3913,1144,1
122,-3914,1148,1
121,-3915,1152,1
124,-3915,1151,1
125,-3915,1150,1
124,-3915,1149,1
124,-3913,1143,1
124,-3912,1143,1
123,-3910,1142,1
121,-3910,1144,1
121,-3910,1146,1
115,-3910,1145,1
109,-3908,1141,1
111,-3908,1145,1
114,-3909,1149,1
119,-3908,1152,1
121,-3910,1159,1
121,-3910,1161,1
121,-3911,1156,1
115,-3911,1149,1
115,-3910,1145,1
113,-3912,1146,1
117,-3912,1145,1
118,-3911,1149,1
115,-3910,1140,1
116,-3912,1144,1
116,-3909,1148,1
118,-3911,1151,1
119,-3910,1151,1
119,-3914,1150,1
119,-3912,1151,1
124,-3915,1158,1
130,-3916,1173,1
136,-3922,1183,1
135,-3924,1171,1
133,-3924,1152,1
130,-3918,1142,1
126,-3911,1132,1
118,-3907,1128,1
112,-3898,1124,1
109,-3896,1120,1
105,-3895,1121,1
105,-3901,1125,1
106,-3907,1132,1
109,-3911,1138,1
114,-3918,1138,1
120,-3923,1136,1
121,-3923,1136,1
126,-3924,1143,1
126,-3922,1147,1
123,-3922,1145,1
120,-3919,1145,1
124,-3920,1137,1
124,-3917,1131,1
123,-3915,1129,1
120,-3915,1132,1
125,-3912,1135,1
125,-3913,1138,1
122,-3916,1138,1
123,-3922,1136,1
123,-3923,1143,1
124,-3920,1143,1
122,-3914,1142,1
118,-3911,1139,1
119,-3905,1139,1
116,-3905,1137,1
114,-3909,1139,1
114,-3910,1147,1
117,-3913,1155,1
120,-3914,1158,1
122,-3913,1153,1
122,-3913,1152,1
120,-3914,1149,1
119,-3913,1148,1
116,-3914,1143,1
111,-3914,1135,1
112,-3912,1128,1
112,-3911,1123,1
111,-3910,1128,1
116,-3914,1132,1
112,-3921,1129,1
113,-3921,1125,1
112,-3920,1126,1
111,-3926,1129,1
114,-3927,1131,1
117,-3932,1139,1
119,-3933,1142,1
118,-3931,1142,1
118,-3929,1136,1
116,-3924,1128,1
111,-3921,1120,1
114,-3920,1113,1
119,-3918,1114,1
120,-3919,1119,1
120,-3917,1122,1
122,-3919,1126,1
121,-3921,1128,1
119,-3921,1125,1
120,-3919,1120,1
122,-3921,1122,1
126,-3922,1125,1
122,-3920,1125,1
121,-3921,1124,1
120,-3922,1127,1
118,-3922,1126,1
119,-3917,1119,1
119,-3913,1120,1
118,-3915,1118,1
119,-3913,1111,1
118,-3911,1110,1
121,-3909,1110,1
122,-3913,1117,1
119,-3916,1125,1
119,-3920,1128,1
121,-3920,1131,1
116,-3919,1129,1
115,-3918,1128,1
115,-3919,1125,1
116,-3916,1125,1
119,-3918,1124,1
122,-3919,1123,1
123,-3921,1132,1
124,-3928,1140,1
119,-3934,1136,1
121,-3934,1131,1
118,-3926,1126,1
116,-3923,1123,1
113,-3917,1123,1
116,-3915,1133,1
114,-3917,1132,1
114,-3920,1131,1
117,-3919,1126,1
115,-3915,1126,1
113,-3915,1123,1
109,-3916,1117,1
109,-3913,1116,1
114,-3914,1119,1
111,-3915,1119,1
110,-3916,1115,1
112,-3916,1114,1
113,-3920,1119,1
120,-3923,1122,1
117,-3921,1118,1
113,-3922,1112,1
112,-3920,1112,1
118,-3918,1120,1
117,-3917,1117,1
114,-3918,1109,1
118,-3920,1110,1
122,-3922,1121,1
143,-3922,1159,1
134,-3905,1149,1
103,-3907,1098,1
101,-3941,1068,1
111,-3928,1091,1
121,-3921,1102,1
119,-3923,1105,1
119,-3930,1105,1
121,-3930,1111,1
121,-3928,1114,1
123,-3929,1111,1
126,-3932,1108,1
126,-3928,1111,1
122,-3925,1110,1
121,-3927,1109,1
121,-3924,1113,1
118,-3925,1109,1
117,-3926,1109,1
117,-3929,1107,1
116,-3926,1108,1
116,-3926,1108,1
113,-3929,1110,1
114,-3928,1106,1
116,-3932,1108,1
115,-3926,1110,1
113,-3924,1109,1
120,-3930,1106,1
117,-3927,1113,1
118,-3923,1114,1
115,-3922,1115,1
115,-3922,1108,1
115,-3919,1111,1
116,-3918,1120,1
117,-3920,1125,1
117,-3916,1123,1
116,-3917,1115,1
112,-3921,1108,1
117,-3920,1105,1
121,-3922,1106,1
121,-3925,1109,1
125,-3933,1109,1
127,-3935,1109,1
125,-3937,1112,1
124,-3935,1114,1
118,-3930,1105,1
113,-3923,1098,1
114,-3919,1093,1
113,-3914,1092,1
109,-3915,1099,1
109,-3920,1105,1
112,-3924,1108,1
111,-3935,1106,1
116,-3930,1101,1
114,-3931,1092,1
113,-3932,1090,1
112,-3928,1087,1
113,-3929,1088,1
116,-3926,1087,1
115,-3921,1086,1
116,-3920,1091,1
118,-3918,1097,1
116,-3921,1106,1
119,-3926,1117,1
121,-3931,1118,1
120,-3935,1115,1
118,-3934,1110,1
121,-3934,1106,1
118,-3935,1101,1
119,-3928,1107,1
121,-3925,1111,1
122,-3917,1109,1
117,-3911,1105,1
116,-3913,1107,1
115,-3915,1110,1
112,-3918,1111,1
125,-3927,1111,1
221,-3906,1184,1
144,-3834,1156,1
80,-3891,1071,1
51,-3985,1022,1
77,-3990,1049,1
110,-3951,1094,1
121,-3937,1108,1
118,-3941,1102,1
114,-3932,1102,1
116,-3931,1100,1
115,-3934,1100,1
115,-3936,1090,1
115,-3937,1088,1
111,-3941,1077,1
114,-3931,1079,1
113,-3922,1088,1
116,-3925,1091,1
116,-3931,1086,1
114,-3925,1077,1
112,-3925,1077,1
116,-3926,1081,1
115,-3925,1087,1
117,-3927,1086,1
115,-3927,1082,1
114,-3929,1082,1
117,-3938,1088,1
118,-3941,1099,1
114,-3942,1100,1
115,-3942,1092,1
118,-3938,1097,1
122,-3938,1096,1
120,-3935,1093,1
118,-3935,1098,1
119,-3936,1094,1
120,-3935,1090,1
114,-3931,1087,1
115,-3927,1083,1
114,-3925,1085,1
114,-3923,1088,1
116,-3922,1087,1
115,-3926,1086,1
116,-3925,1089,1
115,-3928,1095,1
117,-3932,1098,1
116,-3934,1102,1
115,-3933,1097,1
115,-3929,1093,1
118,-3928,1094,1
118,-3932,1095,1
117,-3933,1094,1
117,-3938,1094,1
117,-3937,1095,1
117,-3937,1095,1
118,-3936,1092,1
120,-3931,1094,1
120,-3934,1099,1
116,-3934,1097,1
116,-3928,1096,1
115,-3927,1100,1
113,-3924,1101,1
115,-3923,1099,1
115,-3924,1098,1
111,-3924,1094,1
107,-3924,1090,1
108,-3920,1091,1
108,-3918,1086,1
107,-3916,1079,1
109,-3920,1083,1
110,-3923,1098,1
115,-3931,1102,1
120,-3938,1103,1
122,-3943,1112,1
121,-3941,1110,1
120,-3941,1102,1
114,-3936,1090,1
116,-3934,1091,1
119,-3933,1092,1
119,-3928,1090,1
118,-3927,1085,1
118,-3930,1085,1
118,-3932,1087,1
121,-3936,1087,1
123,-3933,1089,1
124,-3932,1086,1
124,-3933,1090,1
122,-3929,1086,1
124,-3932,1086,1
125,-3930,1084,1
120,-3929,1077,1
120,-3928,1078,1
120,-3930,1083,1
125,-3931,1097,1
124,-3933,1105,1
124,-3935,1095,1
120,-3935,1092,1
118,-3932,1090,1
115,-3932,1087,1
114,-3931,1091,1
115,-3930,1094,1
117,-3930,1098,1
122,-3927,1099,1
121,-3929,1106,1
122,-3928,1103,1
122,-3928,1103,1
122,-3926,1102,1
120,-3924,1101,1
116,-3924,1094,1
116,-3922,1093,1
118,-3925,1099,1
118,-3928,1102,1
112,-3927,1098,1
112,-3926,1097,1
114,-3923,1104,1
110,-3924,1107,1
112,-3925,1105,1
114,-3923,1108,1
116,-3927,1104,1
112,-3926,1105,1
112,-3926,1108,1
119,-3929,1119,1
119,-3929,1121,1
116,-3925,1119,1
115,-3920,1114,1
112,-3916,1107,1
109,-3915,1105,1
110,-3915,1108,1
117,-3916,1108,1
119,-3916,1114,1
119,-3921,1117,1
123,-3926,1117,1
126,-3926,1117,1
125,-3928,1112,1
119,-3925,1111,1
117,-3924,1104,1
119,-3922,1106,1
117,-3921,1104,1
113,-3918,1102,1
107,-3915,1089,1
107,-3916,1087,1
101,-3912,1097,1
105,-3917,1102,1
110,-3924,1104,1
113,-3930,1103,1
114,-3934,1106,1
116,-3934,1105,1
116,-3935,1110,1
117,-3937,1110,1
119,-3930,1108,1
123,-3927,1105,1
123,-3926,1099,1
124,-3921,1098,1
126,-3921,1101,1
126,-3928,1103,1
130,-3928,1108,1
130,-3931,1116,1
129,-3935,1117,1
130,-3938,1121,1
132,-3941,1122,1
129,-3943,1125,1
125,-3937,1130,1
126,-3931,1131,1
124,-3923,1122,1
124,-3918,1121,1
121,-3916,1122,1
119,-3916,1127,1
118,-3916,1135,1
113,-3919,1133,1
114,-3920,1128,1
113,-3916,1119,1
111,-3915,1112,1
112,-3916,1108,1
111,-3911,1102,1
111,-3914,1105,1
109,-3914,1112,1
107,-3915,1117,1
106,-3923,1121,1
110,-3925,1121,1
111,-3925,1119,1
109,-3925,1115,1
111,-3924,1116,1
107,-3923,1119,1
115,-3925,1123,1
108,-3923,1120,1
109,-3916,1121,1
115,-3913,1121,1
116,-3915,1124,1
119,-3921,1123,1
118,-3918,1118,1
120,-3915,1124,1
171,-3949,1124,1
124,-3912,1123,1
98,-3917,1109,1
101,-3914,1125,1
111,-3907,1129,1
114,-3910,1128,1
111,-3915,1129,1
114,-3903,1140,1
123,-3915,1139,1
124,-3922,1142,1
150,-3939,1145,1
127,-3921,1141,1
109,-3968,1135,1
131,-3970,1144,1
106,-3915,1131,1
118,-3875,1127,1
100,-3850,1118,1
110,-3872,1114,1
104,-3887,1124,1
107,-3900,1136,1
110,-3911,1146,1
113,-3917,1147,1
117,-3920,1149,1
120,-3923,1151,1
121,-3926,1151,1
122,-3928,1136,1
123,-3922,1130,1
131,-3920,1131,1
133,-3924,1143,1
136,-3925,1150,1
131,-3923,1156,1
129,-3921,1155,1
124,-3920,1154,1
122,-3914,1156,1
123,-3918,1156,1
120,-3919,1153,1
117,-3917,1148,1
114,-3912,1146,1
113,-3912,1143,1
114,-3916,1145,1
111,-3916,1146,1
110,-3909,1150,1
105,-3909,1151,1
104,-3908,1151,1
109,-3908,1147,1
106,-3907,1145,1
108,-3909,1146,1
100,-3909,1152,1
128,-3979,1144,1
151,-4026,1125,1
106,-3918,1136,1
95,-3875,1135,1
121,-3876,1145,1
110,-3876,1142,1
107,-3884,1150,1
102,-3901,1151,1
143,-3970,1149,1
124,-3934,1149,1
120,-3941,1139,1
124,-3928,1154,1
130,-3943,1155,1
128,-3919,1160,1
139,-3928,1168,1
125,-3896,1175,1
130,-3915,1165,1
121,-3905,1157,1
128,-3909,1157,1
118,-3892,1159,1
116,-3882,1161,1
142,-3925,1165,1
128,-3913,1168,1
121,-3884,1175,1
134,-3906,1177,1
125,-3897,1176,1
121,-3878,1171,1
123,-3880,1165,1
117,-3885,1166,1
117,-3889,1169,1
120,-3892,1174,1
121,-3897,1177,1
119,-3901,1183,1
119,-3903,1190,1
118,-3907,1194,1
122,-3906,1194,1
117,-3903,1191,1
119,-3900,1185,1
111,-3896,1182,1
111,-3892,1180,1
110,-3886,1177,1
105,-3886,1178,1
102,-3888,1172,1
103,-3891,1166,1
107,-3888,1173,1
106,-3886,1173,1
105,-3890,1179,1
108,-3893,1184,1
115,-3898,1187,1
120,-3899,1192,1
124,-3905,1185,1
129,-3908,1184,1
133,-3914,1180,1
132,-3915,1177,1
132,-3917,1167,1
128,-3912,1167,1
123,-3905,1167,1
116,-3903,1164,1
114,-3902,1158,1
109,-3897,1155,1
108,-3893,1160,1
111,-3900,1174,1
119,-3910,1176,1
120,-3912,1174,1
123,-3917,1171,1
120,-3912,1170,1
120,-3910,1167,1
122,-3906,1169,1
120,-3905,1167,1
121,-3903,1165,1
123,-3904,1162,1
119,-3904,1158,1
117,-3898,1154,1
119,-3901,1156,1
118,-3907,1161,1
118,-3910,1160,1
117,-3910,1165,1
122,-3916,1170,1
121,-3915,1176,1
122,-3915,1184,1
124,-3913,1185,1
124,-3904,1189,1
123,-3898,1189,1
121,-3895,1186,1
122,-3894,1177,1
119,-3893,1173,1
122,-3895,1179,1
117,-3901,1175,1
117,-3902,1165,1
118,-3906,1171,1
119,-3907,1177,1
117,-3905,1182,1
116,-3906,1176,1
115,-3903,1167,1
113,-3903,1157,1
107,-3902,1156,1
107,-3902,1155,1
109,-3907,1152,1
111,-3907,1156,1
113,-3909,1157,1
111,-3909,1154,1
111,-3909,1154,1
112,-3908,1152,1
111,-3904,1149,1
113,-3903,1153,1
113,-3904,1155,1
116,-3906,1154,1
119,-3907,1153,1
119,-3909,1156,1
119,-3909,1160,1
123,-3909,1166,1
125,-3913,1168,1
121,-3913,1161,1
119,-3913,1159,1
120,-3914,1157,1
120,-3910,1156,1
119,-3911,1158,1
120,-3911,1157,1
124,-3912,1153,1
126,-3913,1155,1
124,-3913,1154,1
122,-3913,1154,1
117,-3910,1154,1
116,-3909,1157,1
116,-3912,1152,1
116,-3907,1146,1
117,-3902,1144,1
119,-3899,1148,1
116,-3904,1149,1
116,-3906,1154,1
115,-3909,1158,1
114,-3913,1156,1
115,-3915,1157,1
113,-3914,1155,1
114,-3917,1151,1
114,-3916,1151,1
118,-3914,1146,1
116,-3916,1153,1
121,-3916,1157,1
122,-3920,1157,1
124,-3918,1154,1
124,-3918,1153,1
123,-3920,1150,1
125,-3918,1143,1
125,-3914,1146,1
121,-3914,1148,1
122,-3912,1155,1
122,-3913,1158,1
118,-3912,1156,1
114,-3912,1149,1
111,-3915,1143,1
113,-3912,1143,1
111,-3905,1144,1
113,-3905,1145,1
112,-3906,1139,1
113,-3905,1138,1
115,-3910,1136,1
117,-3910,1142,1
116,-3914,1141,1
114,-3916,1149,1
114,-3913,1145,1
113,-3912,1148,1
115,-3910,1149,1
121,-3912,1150,1
127,-3912,1148,1
123,-3913,1141,1
117,-3916,1135,1
117,-3916,1130,1
117,-3918,1134,1
122,-3919,1137,1
123,-3919,1139,1
125,-3920,1138,1
125,-3918,1142,1
125,-3917,1145,1
124,-3917,1146,1
124,-3927,1139,1
121,-3923,1134,1
125,-3920,1127,1
125,-3916,1127,1
123,-3917,1128,1
123,-3915,1130,1
120,-3913,1129,1
121,-3911,1126,1
121,-3914,1127,1
116,-3914,1127,1
117,-3912,1130,1
115,-3917,1128,1
114,-3908,1133,1
116,-3908,1139,1
114,-3913,1137,1
115,-3916,1138,1
118,-3918,1146,1
120,-3924,1151,1
120,-3920,1148,1
120,-3920,1146,1
119,-3919,1142,1
122,-3916,1145,1
118,-3915,1138,1
114,-3910,1134,1
115,-3906,1128,1
112,-3905,1127,1
109,-3907,1127,1
112,-3912,1130,1
114,-3913,1132,1
119,-3914,1132,1
122,-3910,1137,1
125,-3917,1137,1
129,-3922,1137,1
130,-3921,1140,1
133,-3926,1139,1
129,-3926,1139,1
129,-3922,1134,1
124,-3917,1132,1
167,-3902,1151,1
116,-3863,1137,1
99,-3912,1098,1
78,-3935,1089,1
91,-3935,1107,1
109,-3923,1131,1
113,-3923,1136,1
115,-3923,1132,1
118,-3921,1130,1
118,-3921,1129,1
120,-3919,1128,1
120,-3916,1125,1
119,-3912,1121,1
118,-3915,1117,1
119,-3911,1116,1
122,-3912,1117,1
118,-3911,1117,1
120,-3918,1125,1
118,-3923,1126,1
116,-3929,1128,1
127,-3927,1130,1
129,-3934,1131,1
129,-3932,1134,1
134,-3932,1141,1
125,-3925,1142,1
122,-3920,1142,1
119,-3923,1138,1
142,-3924,1146,1
134,-3922,1146,1
103,-3891,1131,1
102,-3912,1105,1
104,-3918,1107,1
173,-3883,1150,1
131,-3861,1141,1
99,-3924,1102,1
88,-3963,1096,1
101,-3955,1104,1
113,-3932,1116,1
114,-3931,1114,1
110,-3931,1110,1
111,-3926,1113,1
112,-3922,1112,1
113,-3926,1114,1
110,-3923,1116,1
108,-3924,1112,1
111,-3929,1114,1
110,-3923,1115,1
112,-3918,1111,1
112,-3915,1105,1
113,-3916,1104,1
116,-3916,1109,1
115,-3918,1110,1
117,-3919,1106,1
119,-3920,1110,1
119,-3921,1109,1
123,-3921,1113,1
116,-3921,1109,1
117,-3925,1106,1
116,-3926,1108,1
119,-3927,1113,1
121,-3926,1123,1
124,-3931,1126,1
130,-3937,1126,1
129,-3940,1123,1
129,-3935,1113,1
163,-3950,1125,1
149,-3949,1121,1
102,-3887,1100,1
96,-3931,1057,1
167,-3925,1097,1
131,-3845,1117,1
105,-3887,1090,1
88,-3956,1071,1
102,-3976,1083,1
117,-3940,1116,1
121,-3931,1121,1
119,-3931,1114,1
111,-3930,1101,1
113,-3931,1099,1
116,-3927,1105,1
118,-3928,1109,1
122,-3930,1104,1
