accelerometer_x,accelerometer_y,accelerometer_z,fall
3993,329,197,1
3994,329,195,1
3999,329,199,1
4002,328,200,1
4005,329,199,1
4006,329,194,1
4008,327,193,1
4008,325,194,1
4011,327,198,1
4010,326,199,1
4004,324,193,1
4003,316,192,1
4000,317,196,1
3998,321,193,1
3991,324,195,1
3984,327,195,1
3981,331,201,1
3981,335,200,1
3980,334,203,1
3984,335,210,1
3982,337,212,1
3983,337,212,1
3986,342,207,1
3989,345,205,1
3991,346,204,1
3999,349,204,1
4003,350,206,1
4009,351,202,1
4015,347,202,1
4015,346,189,1
4012,341,185,1
4015,337,187,1
4012,335,189,1
4000,335,187,1
3992,333,188,1
3985,328,191,1
3981,325,192,1
3980,321,193,1
3984,322,194,1
3988,322,197,1
3998,324,197,1
4008,329,193,1
4013,332,190,1
4021,332,188,1
4023,335,187,1
4023,342,185,1
4021,340,184,1
4018,345,185,1
4012,349,192,1
4006,343,203,1
4001,334,208,1
3996,328,216,1
3987,320,220,1
3982,308,212,1
3981,300,207,1
3980,294,204,1
3980,297,201,1
3985,298,200,1
3980,302,195,1
3979,305,194,1
3978,310,194,1
3981,318,193,1
3980,329,194,1
3982,335,200,1
3980,340,200,1
3987,349,202,1
3994,352,202,1
3993,356,204,1
3997,356,204,1
3997,354,204,1
4012,388,224,1
4019,379,216,1
4016,353,200,1
4011,344,205,1
4010,348,213,1
4012,349,208,1
4012,345,207,1
4012,347,206,1
4016,341,201,1
4015,337,195,1
4019,331,193,1
4022,341,191,1
4020,342,188,1
4015,346,190,1
4014,348,195,1
4012,348,197,1
4008,350,200,1
4003,351,207,1
4002,353,210,1
3997,354,216,1
3993,355,213,1
3989,355,212,1
3986,354,216,1
3983,350,212,1
3983,349,205,1
3983,349,202,1
3981,349,202,1
3980,347,204,1
3981,349,208,1
3983,347,207,1
3982,341,197,1
3981,341,197,1
3984,342,194,1
3987,335,194,1
3990,334,194,1
3995,336,194,1
3999,339,198,1
4002,340,200,1
4004,339,202,1
4003,341,201,1
4003,345,198,1
4003,341,195,1
4000,338,196,1
3998,344,198,1
3995,348,204,1
3997,349,204,1
3995,350,204,1
3990,354,205,1
3984,357,206,1
3981,363,215,1
3982,358,213,1
3981,355,214,1
3980,356,216,1
3985,359,216,1
3989,360,216,1
3996,357,216,1
4002,354,216,1
4004,351,213,1
4009,346,210,1
4014,348,206,1
4019,339,201,1
4017,339,199,1
4013,336,197,1
4008,332,199,1
3997,328,198,1
3988,326,198,1
3979,329,198,1
3976,335,204,1
3981,339,210,1
3989,339,208,1
3997,338,206,1
4003,339,203,1
4008,340,195,1
4016,342,194,1
4021,343,192,1
4021,347,191,1
4017,347,190,1
4016,351,191,1
4017,358,192,1
4012,363,192,1
4004,358,198,1
3999,350,206,1
3991,343,211,1
3983,335,210,1
3977,332,211,1
3975,327,213,1
3973,323,209,1
3971,320,211,1
3974,323,207,1
3979,323,200,1
3987,328,198,1
3992,336,201,1
3993,342,199,1
3989,341,195,1
3994,344,194,1
3987,348,190,1
3987,352,191,1
3986,355,195,1
3983,356,193,1
3984,362,193,1
3987,365,193,1
3989,366,193,1
3989,371,197,1
3995,375,199,1
3998,371,196,1
4002,369,197,1
4006,367,199,1
4004,370,200,1
4003,370,198,1
4006,372,197,1
4010,370,193,1
3997,348,176,1
3999,367,192,1
4015,374,196,1
4018,373,192,1
4014,375,193,1
4006,367,197,1
4005,366,200,1
4002,363,197,1
3996,361,196,1
3989,361,201,1
3985,361,200,1
3981,362,201,1
3979,357,198,1
3980,354,197,1
3982,358,197,1
3981,356,193,1
3989,357,188,1
3983,361,195,1
3984,362,195,1
3983,362,196,1
3990,358,196,1
3997,360,200,1
3999,363,199,1
3999,360,194,1
4000,359,189,1
3999,356,190,1
3999,357,188,1
3997,355,193,1
4000,358,195,1
3995,361,196,1
3995,363,192,1
3993,362,190,1
3993,362,190,1
3990,359,190,1
3992,365,191,1
3988,368,194,1
3984,375,195,1
3981,376,200,1
3982,372,202,1
3984,368,202,1
3987,366,206,1
3987,366,203,1
3985,371,200,1
3990,370,196,1
3987,371,195,1
3988,367,193,1
3994,364,190,1
3999,362,197,1
4006,362,196,1
4009,362,189,1
4009,364,184,1
4008,362,181,1
4007,354,181,1
4004,351,181,1
3994,350,178,1
3987,346,184,1
3980,345,193,1
3979,345,195,1
3982,346,193,1
3990,352,193,1
3993,358,196,1
4000,361,195,1
4007,363,194,1
4009,366,186,1
4018,368,186,1
4024,369,184,1
4021,374,181,1
4016,370,179,1
4015,371,179,1
4008,374,178,1
4000,376,181,1
3989,368,189,1
3981,357,194,1
3975,345,197,1
3968,344,202,1
3966,341,207,1
3963,339,212,1
3965,339,213,1
3962,339,212,1
3965,348,207,1
3972,356,202,1
3979,363,194,1
3980,367,188,1
3983,370,192,1
3986,374,193,1
3991,375,194,1
3993,372,196,1
3993,371,195,1
3997,369,196,1
4000,367,200,1
4005,372,198,1
4007,372,194,1
4008,373,195,1
4010,370,199,1
4008,366,199,1
4007,364,200,1
4010,363,200,1
4010,361,199,1
4010,357,196,1
4008,357,195,1
4007,358,193,1
4008,359,194,1
4009,354,190,1
4013,352,188,1
4010,351,190,1
4009,347,189,1
4006,345,189,1
4003,345,189,1
3995,348,195,1
3989,345,195,1
3991,346,198,1
3989,347,199,1
3985,348,198,1
3982,349,201,1
3981,350,203,1
3980,352,206,1
3979,352,200,1
3981,352,200,1
3980,353,199,1
3983,354,192,1
3988,355,186,1
3988,356,184,1
3991,357,185,1
3997,355,188,1
4001,354,193,1
4002,351,194,1
4003,350,193,1
4001,350,190,1
4001,350,188,1
4004,351,186,1
4006,350,189,1
3996,356,195,1
3998,357,198,1
3995,358,202,1
3999,362,201,1
4002,365,204,1
4000,365,203,1
4002,363,199,1
4000,364,204,1
3999,360,206,1
3998,359,207,1
3998,358,203,1
3992,362,203,1
3990,363,205,1
3989,361,208,1
3994,358,209,1
3996,355,202,1
4000,358,201,1
4007,361,199,1
4009,358,191,1
4008,355,189,1
3998,353,190,1
3998,352,191,1
3990,351,197,1
3984,352,201,1
3982,352,198,1
3984,354,199,1
3986,356,199,1
3994,360,203,1
4000,365,203,1
4005,371,199,1
4011,376,194,1
4014,378,189,1
4017,379,178,1
4018,375,178,1
4015,374,182,1
4013,369,178,1
4011,372,177,1
4003,373,177,1
4001,377,177,1
3994,375,186,1
3981,369,197,1
3972,362,202,1
3962,362,210,1
3953,362,211,1
3949,360,212,1
3946,359,215,1
3948,362,214,1
3954,367,218,1
3964,374,214,1
3971,376,207,1
3978,379,201,1
3982,379,196,1
3993,382,195,1
4001,384,196,1
4006,387,196,1
4006,389,190,1
4007,391,188,1
4007,389,192,1
4004,386,199,1
4002,386,200,1
3997,389,197,1
3994,388,197,1
3996,387,195,1
3999,386,199,1
4003,380,197,1
4002,381,192,1
4002,381,195,1
4002,381,198,1
4003,386,205,1
4000,385,206,1
3998,382,203,1
3998,382,203,1
3991,382,201,1
3991,379,199,1
3988,379,199,1
3991,380,197,1
3990,381,198,1
3989,377,197,1
3989,376,197,1
3983,376,199,1
3979,370,200,1
3978,368,205,1
3977,365,204,1
3976,364,198,1
3975,361,197,1
3980,363,195,1
3980,361,196,1
3980,360,197,1
3985,362,202,1
3984,364,200,1
3988,362,191,1
3997,360,186,1
4001,358,186,1
4001,358,185,1
4003,361,184,1
3999,361,187,1
4001,363,192,1
4003,366,197,1
4001,368,202,1
4002,368,198,1
4004,368,197,1
4002,375,197,1
3993,383,195,1
3989,382,195,1
3983,383,193,1
3978,381,194,1
3980,378,196,1
3982,377,194,1
3980,381,197,1
3976,382,193,1
3982,384,194,1
3985,386,194,1
3988,393,197,1
3986,394,195,1
3992,392,196,1
3999,386,193,1
4005,384,192,1
4011,390,190,1
4008,392,186,1
4003,394,188,1
4001,393,193,1
3998,388,194,1
3992,388,198,1
3983,391,203,1
3979,393,202,1
3979,394,204,1
3981,397,204,1
3992,395,203,1
3997,394,198,1
4007,394,191,1
4014,392,189,1
4019,389,178,1
4020,387,176,1
4022,387,171,1
4019,387,172,1
4013,388,172,1
4007,390,174,1
3996,392,182,1
3984,384,182,1
3977,379,189,1
3972,381,195,1
3961,384,203,1
3954,388,208,1
3952,388,211,1
3949,385,208,1
3949,387,207,1
3953,388,205,1
3960,392,203,1
3967,391,202,1
3974,391,202,1
3983,388,200,1
3986,390,203,1
3984,391,203,1
3984,395,200,1
3985,396,200,1
3988,398,199,1
3991,402,196,1
4000,399,196,1
4004,401,197,1
4006,405,197,1
4004,403,192,1
4006,408,192,1
4007,408,191,1
4008,408,191,1
4011,407,193,1
4008,406,198,1
4005,408,199,1
4001,406,197,1
3994,404,193,1
3999,403,192,1
3996,402,193,1
3998,400,193,1
3993,402,191,1
3993,401,189,1
3994,399,193,1
3987,400,190,1
3986,398,193,1
3985,395,197,1
3981,393,197,1
3978,393,197,1
3976,392,196,1
3969,395,201,1
3967,392,197,1
3968,389,191,1
3973,389,191,1
3975,390,191,1
3977,391,188,1
3978,394,187,1
3984,394,190,1
3984,395,189,1
3985,395,187,1
3988,398,192,1
3986,398,192,1
3985,401,193,1
3990,400,199,1
3987,400,199,1
3986,398,195,1
3993,396,193,1
3999,393,192,1
3999,394,193,1
4000,395,200,1
3993,395,198,1
3989,400,197,1
3988,403,199,1
3988,406,201,1
3981,406,199,1
3978,403,196,1
3980,400,202,1
3981,404,199,1
3981,406,201,1
3982,409,199,1
3982,414,200,1
3982,418,200,1
3986,419,199,1
3992,416,198,1
3997,413,200,1
3997,408,202,1
3999,398,197,1
4002,392,191,1
4007,389,191,1
4007,387,193,1
4003,386,195,1
3991,391,198,1
3987,393,207,1
3978,392,203,1
3981,392,197,1
3981,389,198,1
3987,390,190,1
3996,389,192,1
3998,391,191,1
4005,393,185,1
4009,394,178,1
4013,393,173,1
4012,398,174,1
4012,399,173,1
4013,398,178,1
4010,397,183,1
4005,394,189,1
3996,388,191,1
3988,383,192,1
3976,381,196,1
3965,382,201,1
3960,384,205,1
3961,388,208,1
3960,388,206,1
3960,390,208,1
3965,391,209,1
3971,395,211,1
3976,403,206,1
3984,409,198,1
3990,410,202,1
3992,407,203,1
3999,400,199,1
4003,398,198,1
4004,398,190,1
4004,392,194,1
4004,386,203,1
4007,385,201,1
4012,384,192,1
4017,387,190,1
4016,385,191,1
4012,380,189,1
4011,377,189,1
4010,381,191,1
4003,384,190,1
4004,387,186,1
4006,385,183,1
4003,386,187,1
4005,391,191,1
4005,392,190,1
4007,385,189,1
4007,379,191,1
4002,381,198,1
4000,381,199,1
3995,380,190,1
3991,376,187,1
3991,371,188,1
3989,367,190,1
3994,367,190,1
3995,366,187,1
3993,365,190,1
3985,365,188,1
3984,372,190,1
3978,367,184,1
3975,367,184,1
3977,371,189,1
3981,373,194,1
3980,372,196,1
3985,372,192,1
3987,370,189,1
3990,372,186,1
3989,368,186,1
3993,369,185,1
3992,370,194,1
3993,373,204,1
4000,372,205,1
4004,364,193,1
4003,373,187,1
4005,377,186,1
4005,374,183,1
4000,368,181,1
3992,371,187,1
3988,374,193,1
3986,374,193,1
3984,377,192,1
3984,375,193,1
3984,376,195,1
3983,371,198,1
3979,373,195,1
3980,375,196,1
3981,376,200,1
3989,378,200,1
3998,379,195,1
4007,381,189,1
4015,384,187,1
4019,381,185,1
4020,378,190,1
4013,375,187,1
4012,379,188,1
4010,377,189,1
3999,374,191,1
3984,377,195,1
3975,374,197,1
3973,373,198,1
3977,370,196,1
3980,368,195,1
3980,367,189,1
3990,365,189,1
3997,364,191,1
4002,370,190,1
4007,377,187,1
4010,376,184,1
4011,378,182,1
4012,386,182,1
4008,384,183,1
4005,384,184,1
3998,376,189,1
3999,367,195,1
3986,362,201,1
3978,358,202,1
3969,358,208,1
3964,358,209,1
3966,352,204,1
3967,351,201,1
3969,352,195,1
3974,356,193,1
3981,365,195,1
3986,367,197,1
3988,370,198,1
3992,379,197,1
3998,386,198,1
3997,384,195,1
3995,382,198,1
3997,380,199,1
3991,383,196,1
3995,381,195,1
3998,380,199,1
3998,377,197,1
3997,380,195,1
4000,377,191,1
4003,381,190,1
4004,387,196,1
4007,385,200,1
4007,384,200,1
4003,388,203,1
4003,388,204,1
4001,386,199,1
3995,385,198,1
3998,381,194,1
3994,380,193,1
4002,380,194,1
4004,375,194,1
4008,380,198,1
4006,373,194,1
4005,376,197,1
4002,373,197,1
3995,369,196,1
3988,365,197,1
3985,364,202,1
3980,364,206,1
3978,363,204,1
3977,363,202,1
3978,371,206,1
3980,364,203,1
3978,360,200,1
3984,363,200,1
3984,363,194,1
3983,364,194,1
3994,366,196,1
3999,366,192,1
4002,364,186,1
4000,369,190,1
3997,370,190,1
3996,370,191,1
3996,369,193,1
3990,367,202,1
3992,368,200,1
3991,370,204,1
3993,376,200,1
3989,376,202,1
3987,375,205,1
3984,377,202,1
3982,374,208,1
3981,376,213,1
3982,373,209,1
3983,369,203,1
3985,371,200,1
3990,372,197,1
3993,373,200,1
3995,378,199,1
3997,380,203,1
4002,377,203,1
4006,377,206,1
4010,372,199,1
4012,368,196,1
4017,361,189,1
4020,360,184,1
4016,361,187,1
4009,357,188,1
4007,357,191,1
3996,361,198,1
3990,360,202,1
3989,362,206,1
3989,363,208,1
3993,364,205,1
3996,369,202,1
4003,370,204,1
4006,374,204,1
4011,376,197,1
4017,381,195,1
4022,380,193,1
4021,382,184,1
4018,389,183,1
4011,389,188,1
4006,389,197,1
3995,383,203,1
3954,341,187,1
3931,364,203,1
3965,376,230,1
3987,376,228,1
3982,369,215,1
3972,365,204,1
3970,363,200,1
3983,364,199,1
3982,367,197,1
3981,370,199,1
3978,377,196,1
3982,382,199,1
3982,380,198,1
3977,376,202,1
3980,372,205,1
3982,371,200,1
3987,368,199,1
3987,369,202,1
3983,371,204,1
3989,367,208,1
3995,365,212,1
3996,362,210,1
4000,366,202,1
4008,369,202,1
4011,369,204,1
4011,369,208,1
4012,371,208,1
4010,373,207,1
4012,378,203,1
4009,376,203,1
4010,377,203,1
4012,377,204,1
4014,378,202,1
4012,381,200,1
4011,380,200,1
4008,378,203,1
4008,377,204,1
3999,374,205,1
3989,373,205,1
3984,368,198,1
3978,363,196,1
3975,362,197,1
3971,360,201,1
3972,359,205,1
3971,361,204,1
3974,361,203,1
3975,361,200,1
3978,363,200,1
3983,364,202,1
3984,365,201,1
3990,368,203,1
3990,372,201,1
3995,372,203,1
3994,372,203,1
3998,365,203,1
4001,366,198,1
4002,365,197,1
4001,361,200,1
3996,370,207,1
3994,372,209,1
3995,376,210,1
3999,370,213,1
3998,376,204,1
4000,376,204,1
3995,376,204,1
3987,377,203,1
3985,375,202,1
3989,376,201,1
3988,375,201,1
3987,381,203,1
3984,386,200,1
3981,392,205,1
3979,392,205,1
3981,390,210,1
3987,389,206,1
3996,390,205,1
4001,389,202,1
4008,386,194,1
4008,383,192,1
4007,380,194,1
3998,374,196,1
3989,371,195,1
3980,368,201,1
3975,364,207,1
3977,364,208,1
3976,364,213,1
3980,365,214,1
3985,369,211,1
3995,371,205,1
4003,372,194,1
4008,378,187,1
4017,378,183,1
4020,379,180,1
4018,380,174,1
4013,380,178,1
4008,382,180,1
4004,386,187,1
3995,381,195,1
3986,373,202,1
3979,367,205,1
3972,360,210,1
3966,357,215,1
3963,354,215,1
3960,354,215,1
3960,351,216,1
3963,350,215,1
3966,351,213,1
3971,355,212,1
3976,357,214,1
3979,359,206,1
3983,362,199,1
3988,363,200,1
3987,369,203,1
3991,373,206,1
3996,378,201,1
4001,380,201,1
4003,381,205,1
4005,383,205,1
4008,383,203,1
4006,389,210,1
4001,387,208,1
4002,385,208,1
4006,379,208,1
4009,379,211,1
4009,374,208,1
4010,369,205,1
4008,366,206,1
4007,365,209,1
3998,366,208,1
3997,362,211,1
3995,362,206,1
3991,359,207,1
3989,355,206,1
3987,357,207,1
3987,356,208,1
3986,357,207,1
3989,353,207,1
3986,354,210,1
3983,357,205,1
3982,360,204,1
3979,361,205,1
3984,362,208,1
3982,364,214,1
3985,361,212,1
3987,362,213,1
3987,363,214,1
3992,359,209,1
3988,355,209,1
3993,354,209,1
3995,352,210,1
3992,353,209,1
3989,351,210,1
3989,352,211,1
3993,357,209,1
3997,359,201,1
4001,361,201,1
3997,367,201,1
4000,368,207,1
4002,369,212,1
4002,370,213,1
4005,370,212,1
4005,371,213,1
4001,369,219,1
3996,372,221,1
3998,368,225,1
3992,371,229,1
3990,372,231,1
3989,368,227,1
3987,366,226,1
3988,367,219,1
3985,369,212,1
3990,367,208,1
3996,360,208,1
3998,355,207,1
3996,357,204,1
4000,355,200,1
4001,352,203,1
3994,350,209,1
3993,350,216,1
3986,345,223,1
3980,347,224,1
3980,348,222,1
3979,344,220,1
3987,340,217,1
3994,345,212,1
4005,355,206,1
4015,357,199,1
4017,362,193,1
4019,368,193,1
4016,365,188,1
4017,369,186,1
4014,372,185,1
4005,376,188,1
4000,378,191,1
3989,380,197,1
3982,378,203,1
3975,370,209,1
3966,366,215,1
3955,365,219,1
3949,365,224,1
3949,358,221,1
3951,357,220,1
3954,356,216,1
3960,354,212,1
3960,356,214,1
3966,358,210,1
3975,357,209,1
3985,367,205,1
3996,369,203,1
3997,373,204,1
4001,370,205,1
4004,371,207,1
4007,372,211,1
4011,374,211,1
4013,375,212,1
4008,378,214,1
4002,376,216,1
3998,376,220,1
3998,376,214,1
4000,371,208,1
4004,366,207,1
4012,364,209,1
4008,364,206,1
4007,362,200,1
4006,362,199,1
4004,353,198,1
4002,352,200,1
4003,356,205,1
4001,357,201,1
4002,358,203,1
3998,362,206,1
3992,357,211,1
3990,356,208,1
3987,358,204,1
3982,361,208,1
3982,365,214,1
3985,362,211,1
3982,362,209,1
3984,359,208,1
3984,360,209,1
3984,358,208,1
3985,356,208,1
3984,356,209,1
3981,348,209,1
3984,343,203,1
3986,342,203,1
3985,345,202,1
3987,344,205,1
3991,344,216,1
3995,345,218,1
3998,341,210,1
4002,336,200,1
4006,340,198,1
4005,348,201,1
4005,349,205,1
4004,347,207,1
4004,350,202,1
3999,355,203,1
3999,357,206,1
3999,360,210,1
3996,358,214,1
3987,355,219,1
3989,353,222,1
3993,350,218,1
3997,353,212,1
3991,356,208,1
3988,352,211,1
3987,351,206,1
3996,347,202,1
3998,350,200,1
4006,353,196,1
4011,355,196,1
4010,355,190,1
4008,354,195,1
3997,353,194,1
3996,352,194,1
3991,349,196,1
3983,346,197,1
3978,345,206,1
3979,346,211,1
3984,345,212,1
3988,346,206,1
4000,346,203,1
4010,344,198,1
4020,341,193,1
4024,344,188,1
4032,344,181,1
4032,350,178,1
4029,352,179,1
4024,353,181,1
4016,350,186,1
4003,344,194,1
3991,341,199,1
3977,341,203,1
3969,341,209,1
3962,345,213,1
3953,347,214,1
3951,347,210,1
3954,349,206,1
3958,351,201,1
3966,351,203,1
3973,349,208,1
3980,351,209,1
3988,355,208,1
3990,358,205,1
3997,357,199,1
3998,360,198,1
4002,359,196,1
3999,354,195,1
4003,353,194,1
3998,354,196,1
3998,354,196,1
3999,352,200,1
4001,356,200,1
4001,358,200,1
4004,358,199,1
4004,362,201,1
4003,363,198,1
4005,359,197,1
4006,354,192,1
4006,353,196,1
4009,351,198,1
4008,349,203,1
4008,349,204,1
4008,350,202,1
4008,355,202,1
4001,355,204,1
4000,354,204,1
3990,352,201,1
3986,351,199,1
3983,352,200,1
3985,352,202,1
3984,347,196,1
3979,350,197,1
3978,350,196,1
3978,348,196,1
3980,345,197,1
3981,344,199,1
3983,342,200,1
3989,347,200,1
3985,349,206,1
3986,350,203,1
3990,345,203,1
3990,345,200,1
3993,346,200,1
3994,346,203,1
3992,343,208,1
3995,341,209,1
3993,337,202,1
3990,345,199,1
3989,347,204,1
3994,348,204,1
3998,349,206,1
4000,354,207,1
3999,355,208,1
4000,351,210,1
3998,345,211,1
4000,353,213,1
3997,356,215,1
3992,354,214,1
3986,356,212,1
3989,356,206,1
3992,356,205,1
3994,357,212,1
3996,357,215,1
4002,358,213,1
4004,359,211,1
4003,357,204,1
4005,353,199,1
4007,347,198,1
4009,343,198,1
4008,339,197,1
4009,341,195,1
4005,338,194,1
4000,335,199,1
3991,336,206,1
3985,336,204,1
3981,342,215,1
3983,343,217,1
3983,344,212,1
3987,345,207,1
3993,351,204,1
4001,353,205,1
4003,353,200,1
4005,354,194,1
4013,360,189,1
4015,364,190,1
4015,363,194,1
4010,355,199,1
4004,350,204,1
3997,345,207,1
3988,340,210,1
3985,333,212,1
3983,324,209,1
3980,322,206,1
3977,320,207,1
3972,320,207,1
3975,324,205,1
3976,325,204,1
3980,328,202,1
3980,331,204,1
3981,334,202,1
3992,339,202,1
3997,344,204,1
4000,346,201,1
4002,351,200,1
3998,353,207,1
3999,354,211,1
3995,354,207,1
3990,352,208,1
3992,352,210,1
3999,353,213,1
4001,355,214,1
4000,356,213,1
4001,358,214,1
4003,355,210,1
4006,354,207,1
4009,350,203,1
4008,348,203,1
4008,347,205,1
4011,343,196,1
4010,339,197,1
4010,338,194,1
4010,335,197,1
4009,337,197,1
4000,332,197,1
3997,328,198,1
3995,330,205,1
3988,330,206,1
3991,332,208,1
3984,332,208,1
3981,332,207,1
3980,332,213,1
3977,334,214,1
3981,335,214,1
3983,333,211,1
3987,337,211,1
3993,341,209,1
3996,340,207,1
3993,334,207,1
3995,335,206,1
3994,340,206,1
3999,333,207,1
4000,331,207,1
3999,328,209,1
3999,332,210,1
3993,334,213,1
3992,331,209,1
3993,327,206,1
3998,328,198,1
3996,336,205,1
4000,339,208,1
3999,346,206,1
3997,347,209,1
3991,345,209,1
3990,344,211,1
3990,343,214,1
3996,343,217,1
3995,347,215,1
3999,347,214,1
4000,349,218,1
4001,348,218,1
4003,347,218,1
4010,349,216,1
4018,353,214,1
4020,348,210,1
4018,346,210,1
4020,335,206,1
4016,329,201,1
4013,326,197,1
4011,327,202,1
3996,323,209,1
3986,323,214,1
3982,323,219,1
3981,324,219,1
3984,330,219,1
3989,325,215,1
3994,327,214,1
4003,325,208,1
4010,327,205,1
4017,328,198,1
4020,338,203,1
4021,341,203,1
4019,344,197,1
4015,349,190,1
4011,351,199,1
4009,346,209,1
4003,347,211,1
3994,346,215,1
3987,343,214,1
3982,337,211,1
3978,334,209,1
3973,333,208,1
3970,330,204,1
3970,327,203,1
3967,326,202,1
3970,330,205,1
3971,336,203,1
3972,340,202,1
3966,345,202,1
3959,343,199,1
3955,348,199,1
3980,349,206,1
3994,355,209,1
3998,357,211,1
3990,356,203,1
3986,351,201,1
3986,352,203,1
3991,352,203,1
4000,353,202,1
4005,355,203,1
4007,353,202,1
4010,344,201,1
4011,341,203,1
4010,334,203,1
4010,334,203,1
4009,335,204,1
4006,336,207,1
4007,330,205,1
4003,324,200,1
3995,318,201,1
3999,324,203,1
4005,325,205,1
4006,324,205,1
4002,322,203,1
3998,320,201,1
3998,317,199,1
3997,314,197,1
3998,313,204,1
3999,319,210,1
4001,321,207,1
4003,317,201,1
4004,317,198,1
4001,316,199,1
3999,317,201,1
3992,318,207,1
3986,319,205,1
3989,320,203,1
3990,325,205,1
3989,324,206,1
3993,326,212,1
3992,326,216,1
3992,329,215,1
3994,331,212,1
3995,330,215,1
4001,329,220,1
3998,332,214,1
3994,333,209,1
3995,334,204,1
4001,332,209,1
3996,332,212,1
3996,328,208,1
3989,329,205,1
3987,330,208,1
3985,331,211,1
3986,336,211,1
3989,335,210,1
3985,337,206,1
3990,343,205,1
3999,342,205,1
4006,341,209,1
4008,341,207,1
4015,341,204,1
4012,341,206,1
4016,335,205,1
4015,327,197,1
4012,322,197,1
4007,323,200,1
3997,323,203,1
3991,322,209,1
3983,321,211,1
3980,317,214,1
3982,318,218,1
3987,316,217,1
3994,311,213,1
4002,312,209,1
4012,315,209,1
4016,316,205,1
4020,321,202,1
4021,324,199,1
4022,323,197,1
4018,326,197,1
4013,331,196,1
4008,329,198,1
3998,324,202,1
3992,325,211,1
3988,323,213,1
3983,320,214,1
3977,317,212,1
3978,312,208,1
3977,316,211,1
3977,318,211,1
3974,318,211,1
3979,319,207,1
3978,323,204,1
3978,326,200,1
3979,330,198,1
3981,337,198,1
3982,345,200,1
3980,348,202,1
3979,349,205,1
3978,348,204,1
3978,347,206,1
3976,345,214,1
3979,345,219,1
3987,346,212,1
3995,345,211,1
4003,343,213,1
4006,339,209,1
4014,330,208,1
4014,336,205,1
4010,336,202,1
4011,330,202,1
4014,329,203,1
4019,331,201,1
4015,329,201,1
4013,329,204,1
4008,330,207,1
4006,329,211,1
4006,331,209,1
4005,330,209,1
4002,325,208,1
4000,322,209,1
4001,324,211,1
4000,324,211,1
3998,324,216,1
3997,320,219,1
3995,323,215,1
3995,323,214,1
3991,322,214,1
3993,322,212,1
3992,322,208,1
3989,327,211,1
3992,327,213,1
3995,330,213,1
3992,333,210,1
3995,334,211,1
3994,334,211,1
3994,337,211,1
3994,336,215,1
3993,333,216,1
3998,331,220,1
4000,331,222,1
3999,333,228,1
3995,330,234,1
3994,290,216,1
3986,276,207,1
3992,332,233,1
3990,334,228,1
3993,315,220,1
3995,316,227,1
3998,319,228,1
3998,322,219,1
4000,325,218,1
4001,328,219,1
4003,332,216,1
4009,330,211,1
4013,332,205,1
4018,339,213,1
4014,338,213,1
4015,340,206,1
4014,335,200,1
4015,337,199,1
4010,339,198,1
4004,340,203,1
3995,344,212,1
3986,351,213,1
3980,346,216,1
3977,345,218,1
3976,339,220,1
3977,339,219,1
3981,341,218,1
3984,344,211,1
3993,340,209,1
4002,341,207,1
4008,342,202,1
4013,339,195,1
4020,343,192,1
4018,343,188,1
4014,340,187,1
4011,345,187,1
4009,342,189,1
4000,337,191,1
3989,332,196,1
3982,329,202,1
3969,327,205,1
3964,326,210,1
3962,325,217,1
3959,321,215,1
3963,323,211,1
3968,324,211,1
3969,325,211,1
3975,324,214,1
3982,325,216,1
3987,327,212,1
3992,326,208,1
3997,324,205,1
4000,326,203,1
4005,327,200,1
4005,327,203,1
3999,329,204,1
3999,331,208,1
3998,331,210,1
3999,334,215,1
4002,336,215,1
4003,339,215,1
4004,336,210,1
4007,336,212,1
4007,335,216,1
4011,331,212,1
4010,334,210,1
4016,335,204,1
4015,333,201,1
4013,332,201,1
4013,328,203,1
4013,328,201,1
4011,327,204,1
4009,327,205,1
4007,325,204,1
4004,326,206,1
3998,326,206,1
3996,326,209,1
3992,325,213,1
3987,325,215,1
3985,324,215,1
3990,326,215,1
3989,321,214,1
3988,322,212,1
3985,320,211,1
3983,325,215,1
3984,325,214,1
3982,324,209,1
3987,326,208,1
3991,329,208,1
3992,331,209,1
3996,330,214,1
3995,327,215,1
4001,328,213,1
4000,331,217,1
4003,331,219,1
4003,327,213,1
4000,327,213,1
4002,330,211,1
4000,332,210,1
3997,334,212,1
3998,338,216,1
3994,333,223,1
3992,332,222,1
3997,329,217,1
3995,331,218,1
3994,338,218,1
3990,338,224,1
3992,341,223,1
3990,342,218,1
3994,341,218,1
4002,338,213,1
4005,332,211,1
4011,324,209,1
4015,325,207,1
4015,322,208,1
4011,320,205,1
4004,311,202,1
3991,308,208,1
3985,308,216,1
3983,304,222,1
3979,302,217,1
3980,303,214,1
3988,301,212,1
3996,303,210,1
4008,306,207,1
4016,315,207,1
4024,318,204,1
4028,319,201,1
4031,319,193,1
4030,320,193,1
4023,326,192,1
4014,328,196,1
4010,332,199,1
4001,336,203,1
3991,330,209,1
3984,321,215,1
3979,310,220,1
3971,310,222,1
3968,307,221,1
3960,305,219,1
3962,300,222,1
3964,301,220,1
3967,303,217,1
3971,307,212,1
3974,310,210,1
3981,314,208,1
3984,316,210,1
3990,324,212,1
3994,329,211,1
3998,332,212,1
4001,338,214,1
4000,339,214,1
4006,342,214,1
4009,343,210,1
4015,340,211,1
4023,346,211,1
4022,344,217,1
4016,348,217,1
4014,345,211,1
4013,339,207,1
4012,337,209,1
4010,335,213,1
4008,333,214,1
4006,330,215,1
4002,332,219,1
4001,332,212,1
4003,331,211,1
3997,331,206,1
4002,330,214,1
3997,333,214,1
3991,335,213,1
3988,334,212,1
3985,331,212,1
3980,327,214,1
3980,328,217,1
3979,331,222,1
3979,331,224,1
3979,332,222,1
3980,333,216,1
3984,333,216,1
3984,332,214,1
3984,329,212,1
3984,333,212,1
3983,334,213,1
3980,330,216,1
3982,326,214,1
3981,320,209,1
3991,321,211,1
3993,323,209,1
3998,329,209,1
4003,332,213,1
4004,335,217,1
4003,340,216,1
4003,343,214,1
3997,348,215,1
3996,352,219,1
3995,353,229,1
3989,351,229,1
3991,350,230,1
3993,345,228,1
3997,344,226,1
3991,345,223,1
3992,344,218,1
3992,343,216,1
3989,344,213,1
3992,344,211,1
3997,341,212,1
3998,339,212,1
3999,334,213,1
4001,331,212,1
3998,328,208,1
4001,331,209,1
3997,330,208,1
3991,326,206,1
3987,322,211,1
3987,320,214,1
3987,321,218,1
3999,324,220,1
4006,330,217,1
4020,335,211,1
4025,339,205,1
4030,345,200,1
4033,343,189,1
4038,343,184,1
4034,345,180,1
4027,352,180,1
4022,358,182,1
4012,360,189,1
4002,369,198,1
3992,372,202,1
3981,368,211,1
3967,363,219,1
3955,362,228,1
3948,363,234,1
3944,359,234,1
3948,355,227,1
3952,352,225,1
3960,352,221,1
3971,352,217,1
3976,354,215,1
3978,354,212,1
3989,354,207,1
3995,354,203,1
3997,352,197,1
4000,355,200,1
4001,353,202,1
4001,350,207,1
4001,350,207,1
4003,350,205,1
4003,352,207,1
4006,351,208,1
4006,346,206,1
4006,349,208,1
4008,350,211,1
4013,348,202,1
4011,346,194,1
4011,349,194,1
4007,353,198,1
4005,353,200,1
4007,354,198,1
4004,350,206,1
4003,351,204,1
4004,351,202,1
4004,349,208,1
3998,353,214,1
4000,350,215,1
4001,350,209,1
3998,349,209,1
3995,346,210,1
3990,343,213,1
3987,344,212,1
3983,349,210,1
3982,349,209,1
3980,348,210,1
3978,347,207,1
3978,345,207,1
3978,347,210,1
3981,342,216,1
3983,346,213,1
3987,341,208,1
3991,340,208,1
3995,342,206,1
3997,340,207,1
3993,340,213,1
3992,339,214,1
3995,338,214,1
3995,339,216,1
3999,339,216,1
3998,341,217,1
3993,349,215,1
3994,355,218,1
3994,350,215,1
3996,351,215,1
3996,355,218,1
3998,357,219,1
3999,355,220,1
3996,357,223,1
3992,360,226,1
3988,363,226,1
3991,364,221,1
3988,367,220,1
3985,371,217,1
3992,372,217,1
3999,375,218,1
4003,374,213,1
4005,370,214,1
4007,365,211,1
4004,362,213,1
3997,357,214,1
3994,349,215,1
3989,345,219,1
3982,346,222,1
3977,346,222,1
3974,346,220,1
3975,346,221,1
3979,346,218,1
3990,347,215,1
4002,347,214,1
4009,354,208,1
4011,357,205,1
4016,360,201,1
4018,364,199,1
4021,362,201,1
4014,368,201,1
4011,373,200,1
4009,375,206,1
4003,373,213,1
3989,367,219,1
3979,361,228,1
3966,362,234,1
3960,360,235,1
3952,359,237,1
3948,361,233,1
3953,362,229,1
3962,358,231,1
3967,360,229,1
3972,360,222,1
3978,359,221,1
3989,361,223,1
3997,364,227,1
3996,359,223,1
4001,359,220,1
4006,363,217,1
4006,360,214,1
4006,361,215,1
4005,361,214,1
4005,362,217,1
4005,361,215,1
4005,361,214,1
4005,365,217,1
4004,371,218,1
4006,371,225,1
4005,377,226,1
4005,376,223,1
4004,372,228,1
4004,372,227,1
4002,367,227,1
3997,364,221,1
3998,361,217,1
3999,366,219,1
3997,369,221,1
3995,369,224,1
3994,368,221,1
3988,366,220,1
3985,364,222,1
3983,361,221,1
3989,362,218,1
3992,366,213,1
3986,363,215,1
3986,365,215,1
3984,367,213,1
3982,365,216,1
3983,370,215,1
3989,375,215,1
3988,376,215,1
3985,376,214,1
3987,372,217,1
3991,371,217,1
3989,373,219,1
3988,371,216,1
3987,369,210,1
3990,371,221,1
3987,371,226,1
3990,375,221,1
3992,373,221,1
3989,375,226,1
3992,381,224,1
3992,381,223,1
3992,381,228,1
3997,383,230,1
3999,383,224,1
3997,384,226,1
3997,382,225,1
3992,383,227,1
3990,386,228,1
3988,387,223,1
3992,386,220,1
3988,384,222,1
3990,382,222,1
3991,382,222,1
3991,380,218,1
3992,381,214,1
3998,377,207,1
4000,375,207,1
3996,374,205,1
3991,371,201,1
3982,374,205,1
3977,374,209,1
3973,371,215,1
3967,370,217,1
3972,375,221,1
3979,374,223,1
3986,378,221,1
3991,386,222,1
3999,388,217,1
4006,387,208,1
4014,385,201,1
4015,391,195,1
4016,392,198,1
4015,393,198,1
4011,393,199,1
4007,397,204,1
3997,399,214,1
3989,390,216,1
3978,385,221,1
3974,379,223,1
3965,377,223,1
3960,375,228,1
3958,378,230,1
3956,377,229,1
3959,375,226,1
3963,381,228,1
3968,389,220,1
3971,396,221,1
3978,398,221,1
3985,401,223,1
3990,404,224,1
3998,405,226,1
3998,402,216,1
4000,402,214,1
4005,403,213,1
4004,399,213,1
4001,394,213,1
3999,392,216,1
4002,394,218,1
4004,391,215,1
4007,390,215,1
4006,389,218,1
4006,383,215,1
4007,381,212,1
4017,377,213,1
4019,372,210,1
4018,370,215,1
4014,366,215,1
4012,364,212,1
4013,360,209,1
4014,350,206,1
4015,346,207,1
4015,354,212,1
4014,356,217,1
4010,355,214,1
4007,360,208,1
4005,356,205,1
3998,353,200,1
3991,351,203,1
3987,352,204,1
3991,357,209,1
3988,362,213,1
3986,361,208,1
3985,360,209,1
3988,361,208,1
3992,364,209,1
3998,372,205,1
3993,376,202,1
3988,377,197,1
3986,377,194,1
3985,374,193,1
3988,373,193,1
3984,374,198,1
3981,375,198,1
3977,373,197,1
3977,368,197,1
3979,366,195,1
3986,360,198,1
3987,354,196,1
3990,346,191,1
3984,339,188,1
3982,335,186,1
3986,325,181,1
3983,314,180,1
3986,302,183,1
3990,296,184,1
3986,289,184,1
3987,283,184,1
3986,277,179,1
3988,275,172,1
3993,270,167,1
3991,265,161,1
3985,261,160,1
3980,260,159,1
3976,260,155,1
3961,245,152,1
3952,236,155,1
3943,247,161,1
3947,266,152,1
3940,265,167,1
4001,424,181,1
3926,251,149,1
3891,306,174,1
3919,338,177,1
3936,333,170,1
3949,351,189,1
3950,379,198,1
3986,441,154,1
4017,485,372,1
3918,377,257,1
3921,433,218,1
3919,429,163,1
3933,439,174,1
3910,483,209,1
3934,508,208,1
3950,532,216,1
3965,543,303,1
3922,488,249,1
3957,499,235,1
3952,491,224,1
3946,482,219,1
3936,476,224,1
3937,470,225,1
3944,520,334,1
3918,377,248,1
3956,392,234,1
3965,395,220,1
3971,395,224,1
3985,409,235,1
4008,454,208,1
3984,435,291,1
3974,387,280,1
3996,400,271,1
3993,396,250,1
3991,402,242,1
3988,408,219,1
3998,403,189,1
3995,527,216,1
3960,392,144,1
4002,412,167,1
4009,435,169,1
3993,434,181,1
3975,440,202,1
3969,441,207,1
3968,441,219,1
4005,516,157,1
3975,426,235,1
3967,374,247,1
3977,409,285,1
3991,420,288,1
4005,428,292,1
4023,440,293,1
4022,450,294,1
4015,465,292,1
4000,476,289,1
3977,513,378,1
3928,439,316,1
3966,434,295,1
3978,414,282,1
3979,402,271,1
3973,414,256,1
3972,424,243,1
3960,430,236,1
3951,434,236,1
3952,428,235,1
3960,418,230,1
3962,408,231,1
3962,396,223,1
3955,380,220,1
3953,367,213,1
3949,346,208,1
3947,317,194,1
3953,311,182,1
3980,365,123,1
3969,295,179,1
3950,266,162,1
3972,272,156,1
3966,274,142,1
3955,287,146,1
3940,303,152,1
3923,320,163,1
3910,334,168,1
3898,346,170,1
3887,359,169,1
3881,366,168,1
3876,366,164,1
3864,366,166,1
3862,370,176,1
3865,367,184,1
3876,374,189,1
3882,391,186,1
3887,393,179,1
3916,416,143,1
3902,355,210,1
3894,305,189,1
3926,304,186,1
3936,313,178,1
3945,315,167,1
3948,303,162,1
3939,289,155,1
3933,276,157,1
3922,266,156,1
3909,263,153,1
3904,259,139,1
3892,256,131,1
3879,265,138,1
3875,300,161,1
3889,288,174,1
3884,250,184,1
3868,380,339,1
3851,234,262,1
3874,248,283,1
3865,239,291,1
3841,218,295,1
3819,209,308,1
3814,201,334,1
3796,337,436,1
3794,115,349,1
3850,90,342,1
3881,239,293,1
3867,98,218,1
3880,87,212,1
3871,236,183,1
3836,143,123,1
3830,168,149,1
3829,334,125,1
3786,229,111,1
3794,258,169,1
3823,417,167,1
3816,363,207,1
3830,380,265,1
3839,410,320,1
3815,497,384,1
3798,392,325,1
3813,396,327,1
3813,403,320,1
3830,454,267,1
3812,337,283,1
3830,287,274,1
3838,295,284,1
3847,307,278,1
3847,255,324,1
3866,205,296,1
3889,218,290,1
3910,361,240,1
3877,234,213,1
3904,229,251,1
3912,315,234,1
3877,259,262,1
3861,233,248,1
3870,369,206,1
3837,279,202,1
3847,257,233,1
3841,351,326,1
3846,241,292,1
3873,240,320,1
3872,255,414,1
3896,217,388,1
3920,362,397,1
3904,282,384,1
3953,326,409,1
3958,309,480,1
3985,299,469,1
3994,342,500,1
4015,303,437,1
4014,348,432,1
4010,316,375,1
3994,358,397,1
3972,311,361,1
3931,302,371,1
3897,275,302,1
3843,273,310,1
3833,322,280,1
3807,252,261,1
3812,258,327,1
3851,322,320,1
3833,258,331,1
3843,240,393,1
3876,301,370,1
3871,249,369,1
3885,237,415,1
3909,290,388,1
3894,257,356,1
3891,255,364,1
3897,301,337,1
3882,246,306,1
3888,237,344,1
3925,272,330,1
3930,253,336,1
3938,227,372,1
3946,277,375,1
3930,251,350,1
3912,251,372,1
3903,287,364,1
3874,258,333,1
3855,250,351,1
3848,259,360,1
3849,250,369,1
3854,231,411,1
3862,234,443,1
3872,232,425,1
3851,176,409,1
3835,152,388,1
3822,158,337,1
3787,102,298,1
3760,66,298,1
3758,82,288,1
3751,74,313,1
3757,99,374,1
3772,120,393,1
3790,139,407,1
3803,89,438,1
3824,82,408,1
3829,122,398,1
3818,160,383,1
3805,177,363,1
3795,198,369,1
3801,206,387,1
3813,198,395,1
3829,194,401,1
3833,165,409,1
3808,154,405,1
3764,579,217,1
3800,117,238,1
3694,-21,235,1
3590,88,299,1
3527,147,302,1
3519,157,306,1
3555,161,346,1
3612,178,385,1
3647,616,281,1
3808,230,356,1
3837,57,338,1
3839,138,460,1
3839,186,497,1
3849,187,492,1
3887,173,479,1
3873,544,306,1
4001,164,324,1
4005,9,325,1
3996,64,412,1
3956,116,447,1
3929,36,386,1
3919,172,353,1
4014,72,469,1
3952,-155,272,1
3849,-58,236,1
3795,-5,294,1
3750,118,352,1
3849,32,515,1
3827,-151,361,1
3760,-114,331,1
3736,-45,404,1
3749,6,453,1
3943,86,627,1
3975,-116,550,1
3972,-202,507,1
3979,-156,493,1
4023,-51,455,1
3997,248,326,1
4144,75,419,1
4158,-59,291,1
4133,-53,343,1
4169,99,404,1
4146,4,365,1
4107,-66,471,1
3886,182,261,1
3960,66,250,1
3932,-74,386,1
3890,-72,474,1
4029,-20,659,1
3961,-98,574,1
3805,13,447,1
3888,-90,444,1
3882,-207,463,1
3855,-50,404,1
3929,-126,356,1
3885,-40,448,1
3952,-158,586,1
3932,-333,577,1
3643,-76,378,1
3763,-122,363,1
3725,-121,444,1
3867,-167,684,1
3787,-223,606,1
3755,-52,633,1
3750,-66,627,1
3806,-67,814,1
3726,-148,788,1
3589,6,674,1
3619,30,638,1
3758,-9,842,1
3527,142,749,1
3578,5,711,1
3545,54,654,1
3437,220,728,1
3501,134,798,1
3587,71,811,1
3604,43,891,1
3542,32,909,1
3511,41,934,1
3496,30,993,1
3407,44,913,1
3450,-25,836,1
3495,-55,825,1
3452,31,796,1
3447,49,771,1
3469,-49,844,1
3362,184,829,1
3375,238,806,1
3453,243,840,1
3455,198,871,1
3443,112,1019,1
3243,355,1008,1
3285,246,935,1
3249,191,852,1
3307,191,866,1
3339,234,826,1
3350,169,873,1
3314,242,849,1
3222,325,780,1
3169,340,753,1
3192,298,746,1
3233,317,760,1
3278,392,791,1
3344,363,813,1
3306,425,823,1
3215,615,938,1
3104,808,1060,1
3094,702,930,1
3056,537,854,1
3035,414,847,1
3068,317,824,1
3114,170,879,1
3070,317,870,1
3115,272,735,1
3085,205,658,1
3046,181,695,1
2955,200,810,1
2797,455,773,1
2750,621,744,1
2799,575,730,1
2846,551,796,1
2927,582,834,1
2995,619,913,1
3057,890,968,1
3147,1045,1075,1
3256,1066,1118,1
3370,1116,1202,1
3463,1176,1279,1
3547,1135,1285,1
3588,1080,1248,1
3602,1042,1163,1
3613,954,1072,1
3591,899,981,1
3577,916,872,1
3504,956,824,1
3417,1020,795,1
3387,868,821,1
3309,1147,795,1
3305,1393,880,1
3306,1441,988,1
3331,1438,1051,1
3361,1417,1101,1
3382,1370,1213,1
3374,1450,1299,1
3441,1599,1482,1
3563,1550,1576,1
3686,1348,1515,1
3769,1245,1443,1
3825,1240,1379,1
3896,1231,1278,1
3951,1212,1151,1
4003,1162,999,1
3971,1131,843,1
3839,1143,706,1
3637,1277,673,1
3415,1387,672,1
3244,1394,656,1
3123,1484,725,1
3048,1577,820,1
3019,1639,920,1
3017,1662,1029,1
3063,1701,1006,1
3077,1734,1035,1
3121,1617,1062,1
3164,1540,1164,1
3259,1455,1256,1
3345,1433,1363,1
3360,1416,1501,1
3376,1382,1463,1
3356,1340,1391,1
3358,1333,1310,1
3370,1412,1123,1
3412,1466,816,1
3328,1564,635,1
3163,1679,533,1
3059,1807,513,1
2993,1918,526,1
2994,2007,547,1
2888,1991,564,1
2674,2043,712,1
2471,1998,830,1
2214,1977,1033,1
2064,2034,1169,1
2045,1922,1261,1
2195,2370,1776,1
2530,1391,1273,1
2534,1362,1518,1
2467,1664,1717,1
2524,1799,1722,1
2656,1953,1898,1
3218,1263,1283,1
3261,1449,1318,1
3234,1899,1497,1
3103,2060,1465,1
2990,2177,1382,1
2792,2441,1408,1
2706,2638,1467,1
2708,2711,1448,1
2745,2728,1452,1
2785,2744,1528,1
2956,2811,1556,1
2660,2799,1649,1
2355,3023,1708,1
2229,3019,1750,1
2168,3041,1802,1
2141,3074,1907,1
2108,3145,2001,1
2048,3206,2039,1
2047,3244,2032,1
2131,3282,2102,1
2206,3279,2056,1
2243,3385,2044,1
2278,3399,2034,1
2239,3424,1962,1
2233,3497,1981,1
2211,3568,1959,1
2314,3597,2010,1
2433,3517,2114,1
2446,3544,2141,1
2431,3563,2182,1
2352,3607,2225,1
2386,3627,2389,1
2413,3520,2450,1
2471,3624,2545,1
2607,3640,2744,1
2749,3627,2758,1
2915,3748,2821,1
3066,3852,2939,1
3189,3835,3096,1
3250,4007,3187,1
3290,3945,3156,1
3273,3812,3078,1
3234,3878,3206,1
3108,3812,3197,1
2950,3838,3227,1
2835,3806,3243,1
2835,3797,3326,1
2874,3690,3349,1
2901,3566,3363,1
2892,3575,3489,1
2822,3402,3525,1
2640,3322,3584,1
2418,3238,3685,1
2147,3056,3717,1
1883,2843,3660,1
1616,2863,3707,1
1387,2675,3635,1
1112,2966,3565,1
932,3196,3528,1
881,3496,3282,1
1184,4306,3137,1
1543,5287,3536,1
1616,5821,3827,1
1167,6349,4889,1
590,7126,7385,1
344,8539,11926,1
116,8317,16502,1
28,5593,18863,1
275,3736,19642,1
564,3313,18176,1
1003,2476,14001,1
1692,1136,8809,1
2414,618,4811,1
2919,1702,3154,1
3095,3701,3299,1
3108,5174,3800,1
2943,6170,4241,1
2513,6844,4351,1
1840,7036,4191,1
1125,6802,4045,1
551,6405,4063,1
220,5954,4049,1
76,5143,3665,1
317,4040,3267,1
947,3161,2989,1
1696,2665,2698,1
2298,2471,2177,1
2704,2414,1733,1
2831,2324,1146,1
2948,1805,893,1
3244,860,834,1
3715,-312,1074,1
4021,-1541,1143,1
3987,-2267,850,1
3644,-2413,266,1
3319,-2012,-646,1
3416,-1582,-1297,1
3873,-1246,-1770,1
5257,-381,-2937,1
6454,-1182,-2788,1
7130,-1306,-152,1
7338,-1304,2015,1
6068,-516,2390,1
4651,229,2067,1
3313,586,1926,1
2557,-457,1683,1
2031,-1347,1946,1
1490,-1421,2118,1
962,-1426,2095,1
382,-1300,2026,1
171,-946,2049,1
423,-750,2501,1
844,-964,2806,1
1200,-1086,2827,1
1342,-758,2816,1
994,-761,2622,1
374,-781,2651,1
-657,-173,3142,1
-1902,-179,3014,1
-3357,545,2823,1
-4212,869,2872,1
-4402,735,3473,1
-4167,450,4156,1
-3967,-11,4163,1
-3830,-782,3720,1
-3737,-1263,3289,1
-3725,-1192,3042,1
-3825,-822,2924,1
-3938,-483,2926,1
-4009,-232,2945,1
-4055,-276,3085,1
-4208,-339,3032,1
-4478,-146,2986,1
-4653,-106,3259,1
-5388,589,3196,1
-6225,647,2929,1
-7348,444,2730,1
-7165,-1214,3614,1
-5716,-3908,4570,1
-4999,-4602,4748,1
-3567,-6194,5278,1
-5010,-3851,3668,1
-6696,-2746,2578,1
-7651,-2871,1998,1
-8139,-2778,1821,1
-8360,-2416,1653,1
-8419,-1821,1362,1
-8311,-1638,1158,1
-8316,-488,1230,1
-7933,401,1526,1
-7305,957,1799,1
-6571,1189,1872,1
-5801,1099,1740,1
-5013,774,1506,1
-4303,487,1328,1
-3673,299,1195,1
-3129,189,1066,1
-2578,46,1056,1
-2010,-175,1084,1
-1489,-522,1191,1
-1180,-633,1376,1
-1067,-563,1559,1
-1028,-385,1799,1
-1021,-199,2080,1
-1034,2,2378,1
-1074,170,2620,1
-1150,202,2737,1
-1270,123,2721,1
-1437,7,2663,1
-1637,-105,2595,1
-1859,-194,2454,1
-2127,-241,2209,1
-2444,-306,1902,1
-2811,-320,1502,1
-3177,-290,1120,1
-3561,-209,826,1
-3939,-104,696,1
-4285,50,717,1
-4573,249,846,1
-4742,473,1077,1
-4790,713,1301,1
-4760,960,1463,1
-4777,1193,1525,1
-4800,1345,1514,1
-4893,1379,1526,1
-5024,1387,1589,1
-5154,1416,1653,1
-5285,1485,1769,1
-5336,1539,1796,1
-5346,1625,1887,1
-5288,1718,1933,1
-5176,1755,1968,1
-5099,1827,2004,1
-5008,1920,1981,1
-5010,2026,1973,1
-5066,2111,1986,1
-5162,2161,2021,1
-5321,2154,2030,1
-5521,2138,1998,1
-5694,2166,1997,1
-5753,2239,2027,1
-5731,2444,2183,1
-5584,2689,2273,1
-5222,3077,2491,1
-4639,3206,2413,1
-4568,2138,1810,1
-4945,1375,1558,1
-5228,1570,1793,1
-5250,2192,2048,1
-5088,2601,2121,1
-4835,2610,2047,1
-4586,2382,1906,1
-4391,2110,1807,1
-4262,1927,1779,1
-4194,1770,1799,1
-4147,1588,1815,1
-4106,1359,1856,1
-4067,1124,1927,1
-4013,929,2025,1
-3929,781,2105,1
-3841,673,2157,1
-3758,589,2165,1
-3712,561,2193,1
-3745,511,2243,1
-3836,426,2300,1
-3960,403,2403,1
-4043,468,2547,1
-4071,606,2714,1
-4011,743,2863,1
-3834,822,2880,1
-3567,889,2770,1
-3304,974,2591,1
-3080,1037,2366,1
-2907,1061,2143,1
-2767,1092,1970,1
-2680,1181,1902,1
-2629,1291,1932,1
-2616,1371,2032,1
-2606,1391,2162,1
-2586,1325,2276,1
-2542,1201,2366,1
-2512,1083,2438,1
-2492,978,2482,1
-2512,954,2532,1
-2554,993,2592,1
-2608,1076,2646,1
-2663,1173,2683,1
-2713,1263,2716,1
-2753,1308,2758,1
-2784,1300,2806,1
-2829,1261,2836,1
-2904,1230,2892,1
-2956,1190,2957,1
-2981,1127,3044,1
-2995,1031,3077,1
-2992,935,3082,1
-3012,874,3081,1
-3076,880,3032,1
-3181,943,2996,1
-3305,1012,2953,1
-3397,1045,2890,1
-3452,1065,2867,1
-3477,1091,2821,1
-3458,1133,2754,1
-3404,1200,2676,1
-3293,1290,2648,1
-3119,1369,2663,1
-2931,1433,2724,1
-2785,1500,2785,1
-2696,1558,2827,1
-2621,1597,2846,1
-2562,1624,2857,1
-2507,1621,2965,1
-2442,1641,3088,1
-2373,1697,3188,1
-2323,1772,3200,1
-2305,1815,3175,1
-2293,1801,3185,1
-2312,1733,3236,1
-2299,1661,3309,1
-2313,1676,3282,1
-2312,1731,3166,1
-2317,1676,3032,1
-2347,1503,2902,1
-2312,1267,2699,1
-2266,1129,2475,1
-2166,1102,2351,1
-1933,873,2277,1
-1962,734,2260,1
-2057,760,2272,1
-2111,1011,2441,1
-2027,1287,2679,1
-1840,1489,2915,1
-1619,1587,3059,1
-1387,1608,3117,1
-1175,1550,3166,1
-986,1379,3416,1
-793,1074,4113,1
-584,780,5011,1
-433,730,5424,1
-396,965,5001,1
-452,1274,4185,1
-533,1425,3465,1
-617,1439,3098,1
-650,1410,3049,1
-633,1357,3271,1
-607,1286,3593,1
-581,1218,3754,1
-557,1190,3764,1
-557,1247,3706,1
-613,1316,3622,1
-700,1263,3579,1
-762,1066,3638,1
-809,826,3820,1
-846,652,4022,1
-882,710,4063,1
-854,950,3983,1
-749,1234,3855,1
-579,1435,3825,1
-344,1532,3929,1
-43,1572,4100,1
262,1620,4306,1
559,1677,4488,1
828,1718,4577,1
1023,1685,4513,1
1148,1569,4311,1
1194,1406,4058,1
1177,1236,3867,1
1055,1089,3804,1
890,947,3846,1
664,862,3789,1
419,930,3458,1
93,1202,2637,1
-182,1461,2137,1
-367,1912,2586,1
-439,2414,3568,1
-375,2642,4649,1
-137,2504,5376,1
201,2141,5557,1
599,1750,5312,1
976,1543,4956,1
1306,1581,4637,1
1552,1778,4383,1
1706,1956,4240,1
1713,2045,4237,1
1605,1979,4292,1
1369,1793,4298,1
1011,1567,4269,1
569,1337,4192,1
93,1132,4088,1
-384,972,3958,1
-836,835,3803,1
-1218,703,3656,1
-1516,560,3549,1
-1720,434,3496,1
-1822,343,3454,1
-1817,286,3419,1
-1713,286,3427,1
-1521,345,3503,1
-1276,448,3646,1
-999,568,3816,1
-720,664,3958,1
-464,725,4045,1
-241,750,4073,1
-89,779,4079,1
-18,820,4084,1
-24,884,4092,1
-122,954,4097,1
-299,1022,4098,1
-539,1070,4072,1
-821,1097,4020,1
-1121,1118,3965,1
-1402,1134,3910,1
-1642,1145,3862,1
-1837,1145,3828,1
-1973,1121,3803,1
-2050,1079,3781,1
-2073,1028,3766,1
-2041,977,3755,1
-1965,935,3763,1
-1867,899,3787,1
-1769,868,3818,1
-1681,859,3839,1
-1621,865,3842,1
-1595,865,3825,1
-1599,857,3791,1
-1637,849,3751,1
-1697,871,3713,1
-1775,908,3672,1
-1847,920,3632,1
-1905,920,3612,1
-1943,929,3603,1
-1955,946,3614,1
-1939,959,3632,1
-1896,960,3651,1
-1834,943,3672,1
-1751,916,3696,1
-1670,904,3715,1
-1596,904,3731,1
-1532,919,3740,1
-1497,941,3743,1
-1487,973,3743,1
-1508,1012,3747,1
-1544,1041,3749,1
-1603,1062,3746,1
-1659,1086,3739,1
-1721,1109,3731,1
-1769,1137,3724,1
-1797,1161,3719,1
-1800,1178,3718,1
-1780,1201,3721,1
-1740,1223,3731,1
-1689,1240,3744,1
-1632,1258,3753,1
-1579,1273,3759,1
-1536,1278,3758,1
-1511,1275,3756,1
-1502,1264,3750,1
-1515,1255,3745,1
-1544,1250,3742,1
-1585,1246,3741,1
-1620,1245,3737,1
-1658,1241,3729,1
-1682,1235,3722,1
-1692,1224,3723,1
-1680,1164,3743,1
-1674,1225,3774,1
-1661,1288,3781,1
-1632,1287,3766,1
-1598,1273,3745,1
-1565,1279,3735,1
-1517,1281,3741,1
-1468,1302,3762,1
-1423,1334,3792,1
-1371,1368,3814,1
-1326,1389,3829,1
-1280,1387,3830,1
-1235,1375,3840,1
-1202,1360,3842,1
-1165,1352,3839,1
-1138,1354,3838,1
-1108,1362,3836,1
-1085,1371,3838,1
-1062,1377,3847,1
-1042,1382,3857,1
-1024,1386,3868,1
-1010,1388,3879,1
-994,1393,3890,1
-995,1397,3893,1
-996,1369,3896,1
-996,1295,3925,1
-1025,1336,3936,1
-1054,1379,3905,1
-1075,1371,3847,1
-1094,1326,3802,1
-1104,1284,3788,1
-1115,1260,3808,1
-1118,1249,3830,1
-1119,1234,3852,1
-1120,1220,3859,1
-1115,1153,3858,1
-1117,1128,3872,1
-1131,1169,3875,1
-1142,1200,3848,1
-1147,1205,3805,1
-1151,1201,3781,1
-1148,1194,3775,1
-1143,1184,3797,1
-1130,1162,3837,1
-1111,1145,3867,1
-1102,1126,3886,1
-1098,1115,3893,1
-1096,1106,3884,1
-1108,1093,3869,1
-1111,1081,3857,1
-1117,1077,3853,1
-1129,1078,3852,1
-1138,1080,3857,1
-1143,1081,3855,1
-1148,1068,3849,1
-1158,1035,3844,1
-1168,983,3868,1
-1196,1033,3866,1
-1217,1078,3840,1
-1234,1082,3795,1
-1246,1065,3771,1
-1256,1054,3776,1
-1259,1053,3806,1
-1266,1060,3839,1
-1263,1068,3857,1
-1268,1072,3851,1
-1272,1076,3834,1
-1280,1080,3811,1
-1287,1085,3797,1
-1288,1087,3790,1
-1290,1084,3788,1
-1290,1079,3795,1
-1296,1075,3801,1
-1302,1073,3799,1
-1306,1075,3800,1
-1314,1082,3801,1
-1318,1091,3803,1
-1329,1105,3806,1
-1336,1110,3809,1
-1344,1115,3810,1
-1349,1117,3809,1
-1358,1126,3802,1
-1363,1148,3808,1
-1359,1166,3812,1
-1355,1174,3814,1
-1347,1171,3808,1
-1339,1167,3812,1
-1330,1159,3812,1
-1321,1164,3809,1
-1316,1168,3806,1
-1303,1172,3793,1
-1296,1176,3790,1
-1290,1182,3795,1
-1286,1183,3803,1
-1290,1192,3811,1
-1294,1188,3814,1
-1299,1191,3817,1
-1308,1191,3829,1
-1313,1191,3829,1
-1319,1188,3825,1
-1323,1181,3820,1
-1323,1167,3815,1
-1318,1165,3809,1
-1309,1170,3814,1
-1306,1175,3819,1
-1287,1179,3816,1
-1273,1188,3815,1
-1247,1196,3818,1
-1224,1198,3818,1
-1200,1199,3821,1
-1181,1200,3819,1
-1163,1204,3822,1
-1161,1209,3823,1
-1166,1216,3825,1
-1177,1219,3824,1
-1189,1212,3819,1
-1200,1201,3816,1
-1208,1191,3814,1
-1214,1188,3815,1
-1216,1193,3821,1
-1219,1191,3833,1
-1221,1185,3844,1
-1220,1172,3859,1
-1222,1153,3858,1
-1227,1140,3850,1
-1235,1131,3837,1
-1243,1125,3822,1
-1247,1124,3815,1
-1247,1126,3814,1
-1255,1122,3824,1
-1251,1117,3829,1
-1254,1115,3838,1
-1255,1120,3842,1
-1255,1117,3831,1
-1256,1117,3821,1
-1255,1116,3809,1
-1258,1110,3801,1
-1261,1107,3793,1
-1259,1111,3803,1
-1261,1118,3817,1
-1259,1123,3826,1
-1258,1125,3829,1
-1254,1119,3826,1
-1251,1122,3812,1
-1250,1124,3811,1
-1248,1124,3808,1
-1250,1125,3808,1
-1242,1113,3799,1
-1240,1113,3801,1
-1235,1116,3809,1
-1242,1128,3815,1
-1246,1133,3815,1
-1251,1137,3810,1
-1258,1141,3810,1
-1268,1146,3809,1
-1278,1146,3809,1
-1290,1146,3809,1
-1288,1146,3804,1
-1285,1147,3806,1
-1283,1155,3811,1
-1282,1169,3817,1
-1280,1176,3817,1
-1272,1180,3817,1
-1271,1179,3820,1
-1264,1184,3809,1
-1264,1193,3807,1
-1263,1203,3804,1
-1263,1211,3808,1
-1258,1213,3813,1
-1250,1213,3817,1
-1251,1212,3820,1
-1252,1208,3824,1
-1255,1206,3822,1
-1259,1204,3821,1
-1265,1207,3816,1
-1272,1210,3814,1
-1275,1209,3813,1
-1276,1206,3815,1
-1279,1207,3817,1
-1279,1209,3817,1
-1283,1209,3820,1
-1283,1203,3813,1
-1280,1205,3805,1
-1278,1205,3804,1
-1279,1206,3807,1
-1277,1205,3808,1
-1270,1204,3811,1
-1273,1202,3812,1
-1276,1195,3802,1
-1277,1189,3798,1
-1280,1178,3798,1
-1277,1169,3803,1
-1275,1172,3807,1
-1279,1178,3810,1
-1275,1182,3809,1
-1277,1181,3810,1
-1269,1184,3806,1
-1271,1187,3813,1
-1267,1189,3819,1
-1268,1186,3820,1
-1278,1182,3825,1
-1278,1168,3823,1
-1285,1164,3819,1
-1287,1157,3817,1
-1291,1153,3817,1
-1294,1145,3815,1
-1290,1145,3815,1
-1283,1146,3813,1
-1276,1153,3809,1
-1269,1163,3806,1
-1261,1167,3809,1
-1253,1156,3806,1
-1240,1142,3813,1
-1229,1136,3820,1
-1222,1132,3826,1
-1219,1138,3821,1
-1222,1142,3818,1
-1234,1146,3806,1
-1245,1146,3802,1
-1256,1147,3809,1
-1267,1151,3819,1
-1274,1149,3823,1
-1280,1144,3824,1
-1281,1143,3823,1
-1281,1148,3827,1
-1276,1147,3834,1
-1274,1132,3834,1
-1273,1121,3833,1
-1268,1114,3829,1
-1271,1113,3823,1
-1265,1118,3817,1
-1264,1122,3816,1
-1264,1122,3815,1
-1260,1120,3821,1
-1260,1115,3823,1
-1262,1113,3822,1
-1265,1112,3814,1
-1268,1111,3804,1
-1267,1114,3798,1
-1266,1110,3801,1
-1264,1109,3801,1
-1262,1110,3798,1
-1255,1113,3806,1
-1245,1121,3812,1
-1246,1127,3822,1
-1233,1129,3822,1
-1230,1128,3814,1
-1225,1125,3811,1
-1223,1127,3808,1
-1221,1129,3812,1
-1223,1136,3819,1
-1220,1136,3821,1
-1218,1135,3820,1
-1219,1136,3823,1
-1219,1140,3824,1
-1222,1139,3826,1
-1225,1147,3826,1
-1236,1148,3825,1
-1238,1149,3823,1
-1243,1151,3824,1
-1247,1150,3829,1
-1244,1155,3831,1
-1247,1161,3834,1
-1244,1165,3831,1
-1242,1159,3829,1
-1234,1149,3818,1
-1229,1148,3811,1
-1220,1159,3802,1
-1217,1162,3807,1
-1213,1168,3818,1
-1210,1176,3821,1
-1210,1177,3824,1
-1216,1178,3831,1
-1221,1178,3826,1
-1230,1174,3821,1
-1241,1170,3814,1
-1251,1167,3809,1
-1257,1167,3807,1
-1257,1166,3807,1
-1259,1168,3815,1
-1261,1171,3824,1
-1263,1172,3826,1
-1262,1168,3826,1
-1268,1164,3820,1
-1273,1173,3814,1
-1274,1178,3809,1
-1280,1186,3811,1
-1284,1192,3813,1
-1288,1195,3821,1
-1285,1198,3827,1
-1278,1199,3826,1
-1280,1194,3824,1
-1280,1190,3820,1
-1280,1190,3816,1
-1284,1188,3815,1
-1284,1186,3807,1
-1284,1182,3802,1
-1283,1173,3806,1
-1282,1167,3807,1
-1281,1167,3811,1
-1287,1175,3814,1
-1289,1182,3816,1
-1290,1181,3816,1
-1289,1174,3817,1
-1289,1169,3813,1
-1290,1171,3812,1
-1288,1178,3812,1
-1286,1183,3812,1
-1282,1191,3813,1
-1279,1192,3820,1
-1274,1189,3827,1
-1272,1176,3827,1
-1271,1158,3824,1
-1273,1150,3818,1
-1273,1145,3816,1
-1273,1146,3817,1
-1274,1151,3816,1
-1273,1152,3818,1
-1270,1154,3817,1
-1266,1159,3812,1
-1260,1163,3811,1
-1252,1167,3810,1
-1240,1160,3807,1
-1228,1150,3815,1
-1217,1141,3816,1
-1211,1141,3817,1
-1213,1143,3813,1
-1220,1149,3803,1
-1231,1150,3799,1
-1245,1156,3802,1
-1254,1151,3808,1
-1258,1151,3815,1
-1260,1153,3823,1
-1258,1156,3827,1
-1257,1163,3835,1
-1250,1163,3839,1
-1244,1160,3839,1
-1244,1154,3839,1
-1237,1151,3835,1
-1242,1149,3834,1
-1248,1142,3831,1
-1247,1136,3820,1
-1251,1135,3821,1
-1253,1135,3819,1
-1251,1134,3818,1
-1252,1132,3820,1
-1254,1129,3817,1
-1254,1132,3817,1
-1250,1134,3818,1
-1245,1137,3819,1
-1240,1131,3822,1
-1234,1126,3822,1
-1237,1128,3821,1
-1237,1128,3820,1
-1243,1128,3822,1
-1246,1126,3820,1
-1244,1128,3814,1
-1236,1131,3815,1
-1228,1134,3816,1
-1223,1139,3816,1
-1218,1141,3820,1
-1215,1140,3824,1
-1213,1142,3825,1
-1218,1141,3829,1
-1217,1137,3828,1
-1228,1136,3825,1
-1228,1133,3824,1
-1235,1133,3820,1
-1239,1136,3821,1
-1238,1137,3828,1
-1240,1134,3830,1
-1238,1134,3833,1
-1237,1136,3839,1
-1227,1138,3834,1
-1223,1138,3828,1
-1224,1134,3822,1
-1221,1137,3820,1
-1214,1140,3817,1
-1213,1142,3820,1
-1209,1148,3824,1
-1208,1152,3827,1
-1209,1151,3829,1
-1214,1157,3828,1
-1225,1156,3827,1
-1228,1157,3822,1
-1233,1149,3813,1
-1235,1149,3812,1
-1235,1150,3813,1
-1239,1158,3816,1
-1240,1161,3820,1
-1241,1166,3826,1
-1244,1168,3836,1
-1248,1172,3838,1
-1253,1172,3832,1
-1258,1171,3828,1
-1260,1170,3826,1
-1264,1169,3822,1
-1261,1165,3813,1
-1258,1162,3812,1
-1256,1165,3815,1
-1251,1172,3820,1
-1244,1176,3828,1
-1240,1174,3828,1
-1241,1175,3830,1
-1250,1174,3831,1
-1252,1173,3826,1
-1255,1177,3824,1
-1261,1173,3823,1
-1266,1172,3817,1
-1265,1164,3820,1
-1250,1056,3840,1
-1260,1105,3891,1
-1270,1213,3869,1
-1275,1253,3794,1
-1274,1198,3730,1
-1265,1128,3725,1
-1258,1106,3779,1
-1252,1125,3845,1
-1250,1154,3877,1
-1249,1160,3872,1
-1250,1154,3839,1
-1254,1147,3805,1
-1258,1149,3789,1
-1264,1156,3789,1
-1259,1165,3804,1
-1255,1164,3821,1
-1248,1160,3837,1
-1240,1159,3845,1
-1233,1168,3838,1
-1231,1175,3825,1
-1223,1168,3813,1
-1220,1146,3812,1
-1217,1128,3822,1
-1217,1126,3833,1
-1218,1135,3839,1
-1224,1143,3842,1
-1228,1149,3838,1
-1238,1151,3829,1
-1244,1148,3820,1
-1250,1153,3819,1
-1248,1154,3821,1
-1234,1153,3821,1
-1219,1143,3821,1
-1205,1135,3822,1
-1195,1131,3824,1
-1187,1126,3821,1
-1187,1130,3819,1
-1197,1135,3814,1
-1200,1143,3812,1
-1215,1146,3815,1
-1221,1145,3819,1
-1231,1141,3826,1
-1237,1143,3829,1
-1238,1148,3830,1
-1235,1158,3832,1
-1234,1166,3843,1
-1228,1159,3844,1
-1221,1149,3846,1
-1224,1138,3845,1
-1225,1135,3841,1
-1227,1138,3832,1
-1237,1141,3829,1
-1240,1136,3822,1
-1244,1134,3819,1
-1248,1129,3821,1
-1251,1129,3828,1
-1252,1128,3828,1
-1250,1122,3821,1
-1247,1124,3813,1
-1252,1068,3808,1
-1241,1022,3890,1
-1251,1138,3910,1
-1262,1223,3840,1
-1263,1217,3756,1
-1257,1159,3704,1
-1247,1118,3723,1
-1232,1117,3791,1
-1220,1133,3859,1
-1210,1142,3888,1
-1207,1140,3876,1
-1207,1137,3833,1
-1213,1139,3795,1
-1218,1145,3783,1
-1222,1158,3796,1
-1220,1156,3819,1
-1215,1154,3840,1
-1215,1154,3853,1
-1211,1152,3852,1
-1211,1156,3844,1
-1209,1158,3827,1
-1210,1160,3820,1
-1211,1164,3833,1
-1213,1166,3844,1
-1211,1155,3858,1
-1211,1137,3855,1
-1215,1116,3839,1
-1219,1103,3817,1
-1224,1105,3798,1
-1225,1113,3792,1
-1222,1117,3807,1
-1220,1113,3836,1
-1215,1105,3855,1
-1213,1092,3843,1
-1212,1076,3801,1
-1221,1080,3746,1
-1235,1094,3722,1
-1237,1112,3743,1
-1234,1120,3807,1
-1233,1111,3879,1
-1229,1097,3911,1
-1234,1087,3884,1
-1245,1103,3849,1
-1253,1132,3844,1
-1258,1157,3865,1
-1257,1155,3874,1
-1254,1143,3877,1
-1249,1136,3871,1
-1240,1141,3862,1
-1228,1144,3844,1
-1208,1145,3847,1
-1196,1134,3839,1
-1171,1091,3788,1
-1152,1092,3756,1
-1147,1133,3781,1
-1148,1179,3825,1
-1156,1194,3850,1
-1176,1184,3861,1
-1204,1163,3858,1
-1235,1138,3846,1
-1262,1115,3842,1
-1282,1098,3844,1
-1288,1075,3834,1
-1290,1046,3809,1
-1283,1018,3777,1
-1271,996,3746,1
-1259,969,3728,1
-1242,967,3744,1
-1229,986,3786,1
-1227,1000,3829,1
-1224,974,3860,1
-1223,933,3875,1
-1223,886,3888,1
-1220,857,3894,1
-1216,853,3885,1
-1208,894,3870,1
-1203,962,3839,1
-1187,1018,3803,1
-1164,1046,3795,1
-1135,1065,3821,1
-1100,1085,3855,1
-1065,1087,3898,1
-1037,1095,3922,1
-1009,1117,3932,1
-1001,1167,3921,1
-996,1208,3901,1
-996,1224,3908,1
-994,1222,3923,1
-1005,1210,3884,1
-1014,1192,3821,1
-1027,1177,3776,1
-1058,1170,3746,1
-1100,1164,3730,1
-1145,1169,3748,1
-1194,1193,3781,1
-1240,1231,3766,1
-1272,1272,3709,1
-1281,1302,3633,1
-1281,1297,3588,1
-1275,1251,3602,1
-1258,1202,3618,1
-1222,1199,3621,1
-1193,1237,3624,1
-1167,1303,3616,1
-1151,1350,3622,1
-1149,1363,3630,1
-1157,1337,3627,1
-1168,1310,3605,1
-1179,1302,3623,1
-1188,1308,3663,1
-1193,1306,3675,1
-1206,1280,3681,1
-1229,1249,3663,1
-1254,1221,3631,1
-1285,1197,3613,1
-1302,1164,3625,1
-1310,1129,3641,1
-1316,1096,3618,1
-1321,1051,3546,1
-1326,994,3447,1
-1334,936,3418,1
-1325,892,3506,1
-1294,900,3593,1
-1259,970,3620,1
-1219,1028,3536,1
-1148,1026,3414,1
-1084,1041,3383,1
-1005,1053,3388,1
-947,1061,3402,1
-932,1056,3442,1
-960,1032,3445,1
-999,989,3455,1
-1023,942,3440,1
-1065,949,3387,1
-1098,1010,3263,1
-1153,1073,3193,1
-1206,1062,3196,1
-1264,1005,3276,1
-1306,950,3341,1
-1316,947,3396,1
-1312,1010,3424,1
-1308,1095,3445,1
-1317,1150,3471,1
-1339,1171,3452,1
-1370,1171,3390,1
-1413,1159,3331,1
-1453,1154,3302,1
-1500,1193,3306,1
-1555,1274,3334,1
-1631,1385,3303,1
-1717,1501,3214,1
-1793,1601,3129,1
-1853,1689,3142,1
-1895,1757,3217,1
-1925,1806,3288,1
-1961,1866,3276,1
-2003,1926,3220,1
-2046,1982,3158,1
-2073,2021,3134,1
-2080,2051,3137,1
-2084,2065,3150,1
-2102,2021,3128,1
-2135,1939,3057,1
-2154,1855,2979,1
-2157,1785,2876,1
-2158,1739,2802,1
-2156,1741,2792,1
-2146,1786,2804,1
-2144,1847,2771,1
-2148,1885,2730,1
-2152,1890,2748,1
-2135,1888,2823,1
-2122,1916,2882,1
-2126,1971,2886,1
-2141,2056,2855,1
-2148,2144,2833,1
-2159,2236,2809,1
-2182,2288,2777,1
-2213,2323,2762,1
-2267,2367,2746,1
-2357,2433,2774,1
-2468,2535,2850,1
-2551,2672,3015,1
-2569,2773,3199,1
-2521,2817,3345,1
-2451,2842,3404,1
-2301,2873,3516,1
-2230,2870,3424,1
-2251,2851,3239,1
-2287,2846,3088,1
-2334,2860,2939,1
-2401,2873,2811,1
-2443,2867,2746,1
-2470,2850,2722,1
-2470,2822,2719,1
-2438,2780,2740,1
-2414,2735,2749,1
-2420,2696,2727,1
-2440,2628,2697,1
-2465,2562,2698,1
-2462,2520,2767,1
-2429,2511,2831,1
-2367,2485,2865,1
-2314,2460,2871,1
-2255,2441,2893,1
-2173,2443,2935,1
-2108,2456,2937,1
-2076,2489,2878,1
-2056,2522,2821,1
-2031,2535,2792,1
-1995,2522,2813,1
-1954,2485,2817,1
-1944,2451,2770,1
-1962,2412,2704,1
-2006,2344,2642,1
-2048,2246,2647,1
-2086,2188,2729,1
-2135,2212,2788,1
-2188,2275,2797,1
-2223,2306,2770,1
-2236,2302,2726,1
-2217,2297,2703,1
-2178,2279,2697,1
-2150,2272,2654,1
-2155,2304,2581,1
-2170,2339,2532,1
-2175,2354,2530,1
-2178,2373,2553,1
-2195,2392,2578,1
-2219,2404,2621,1
-2233,2416,2684,1
-2238,2402,2730,1
-2224,2337,2745,1
-2205,2253,2711,1
-2191,2183,2645,1
-2198,2149,2552,1
-2217,2135,2462,1
-2229,2107,2421,1
-2231,2064,2422,1
-2218,2007,2459,1
-2202,1950,2489,1
-2195,1909,2480,1
-2199,1895,2472,1
-2197,1882,2494,1
-2192,1932,2545,1
-2195,1994,2631,1
-2201,2039,2733,1
-2197,2052,2817,1
-2183,2032,2876,1
-2166,2005,2914,1
-2155,1961,2893,1
-2142,1920,2824,1
-2129,1912,2767,1
-2110,1931,2722,1
-2102,1967,2674,1
-2104,2007,2624,1
-2111,2033,2581,1
-2098,2061,2574,1
-2068,2086,2584,1
-2040,2100,2573,1
-2011,2156,2552,1
-2010,2285,2509,1
-2029,2429,2455,1
-2038,2561,2440,1
-2014,2645,2467,1
-1960,2678,2500,1
-1900,2698,2500,1
-1840,2699,2465,1
-1787,2654,2415,1
-1727,2547,2372,1
-1678,2439,2334,1
-1645,2363,2340,1
-1616,2335,2384,1
-1565,2330,2456,1
-1540,2348,2492,1
-1545,2420,2519,1
-1556,2519,2551,1
-1556,2607,2541,1
-1541,2670,2463,1
-1513,2755,2370,1
-1484,2858,2316,1
-1464,2939,2301,1
-1467,2996,2274,1
-1468,3048,2254,1
-1429,3051,2238,1
-1386,2979,2241,1
-1371,2913,2242,1
-1362,2922,2247,1
-1352,2970,2230,1
-1360,2911,2169,1
-1383,2829,2139,1
-1384,2774,2163,1
-1398,2751,2222,1
-1414,2796,2298,1
-1422,2890,2361,1
-1409,3023,2451,1
-1386,3142,2550,1
-1371,3233,2631,1
-1361,3364,2602,1
-1401,3505,2506,1
-1414,3613,2398,1
-1380,3774,2329,1
-1340,3901,2330,1
-1329,3901,2331,1
-1371,3841,2283,1
-1467,3812,2256,1
-1556,3816,2271,1
-1582,3799,2256,1
-1520,3711,2208,1
-1428,3555,2182,1
-1322,3400,2149,1
-1245,3315,2112,1
-1193,3353,2062,1
-1133,3403,1995,1
-1137,3413,1915,1
-1112,3438,1858,1
-1101,3532,1841,1
-1102,3662,1874,1
-1086,3806,1897,1
-1070,3904,1971,1
-1058,3978,2097,1
-1064,3990,2153,1
-1126,3968,2081,1
-1206,3945,1926,1
-1280,3915,1781,1
-1284,3852,1705,1
-1270,3778,1690,1
-1248,3713,1688,1
-1239,3681,1681,1
-1247,3651,1699,1
-1227,3614,1731,1
-1154,3598,1766,1
-1091,3591,1777,1
-1036,3594,1769,1
-985,3628,1751,1
-960,3685,1713,1
-931,3717,1658,1
-932,3746,1646,1
-920,3817,1720,1
-914,3865,1868,1
-977,3901,1962,1
-1059,3939,1922,1
-1150,3969,1809,1
-1225,3959,1702,1
-1275,3940,1584,1
-1314,3971,1494,1
-1323,4018,1428,1
-1333,4071,1385,1
-1343,4101,1369,1
-1355,4123,1372,1
-1315,4157,1392,1
-1290,4109,1434,1
-1302,4051,1457,1
-1359,4005,1443,1
-1410,3922,1389,1
-1432,3900,1369,1
-1425,3928,1403,1
-1363,3890,1515,1
-1380,3891,1523,1
-1403,3903,1528,1
-1448,3913,1469,1
-1466,3954,1432,1
-1478,3940,1414,1
-1501,3918,1370,1
-1521,3918,1315,1
-1516,3965,1268,1
-1483,4020,1254,1
-1417,3986,1242,1
-1341,3906,1235,1
-1250,3912,1256,1
-1186,3957,1238,1
-1135,3981,1200,1
-1099,4023,1171,1
-1058,4075,1168,1
-1011,4131,1176,1
-945,4228,1226,1
-898,4295,1287,1
-907,4295,1264,1
-943,4282,1195,1
-971,4280,1141,1
-992,4277,1131,1
-967,4271,1168,1
-929,4278,1192,1
-909,4285,1164,1
-873,4412,1221,1
-838,4433,1221,1
-761,4380,1177,1
-693,4303,1190,1
-659,4251,1220,1
-654,4271,1266,1
-682,4276,1277,1
-737,4268,1285,1
-795,4240,1324,1
-812,4199,1411,1
-739,4099,1505,1
-703,4000,1543,1
-631,3960,1570,1
-561,4039,1573,1
-503,4089,1533,1
-480,4110,1448,1
-446,4172,1411,1
-427,4145,1371,1
-427,4214,1383,1
-416,4321,1420,1
-436,4359,1436,1
-472,4341,1436,1
-539,4335,1460,1
-638,4330,1511,1
-729,4357,1548,1
-809,4378,1564,1
-840,4346,1575,1
-878,4285,1586,1
-919,4242,1606,1
-908,4203,1625,1
-893,4141,1610,1
-893,4121,1643,1
-904,4125,1655,1
-860,4185,1656,1
-818,4091,1595,1
-821,3966,1573,1
-806,3945,1589,1
-735,3981,1611,1
-668,3942,1646,1
-626,3886,1616,1
-589,3818,1649,1
-592,3862,1656,1
-569,3857,1673,1
-535,3901,1688,1
-509,3923,1679,1
-451,3914,1707,1
-385,3843,1717,1
-335,3792,1731,1
-303,3784,1709,1
-278,3822,1735,1
-244,3883,1768,1
-235,3935,1755,1
-222,4012,1740,1
-192,4037,1755,1
-161,4053,1776,1
-133,4057,1781,1
-122,4109,1819,1
-109,4138,1816,1
-101,4129,1782,1
-89,4093,1709,1
-60,4045,1649,1
-17,3961,1635,1
83,3889,1680,1
226,3811,1759,1
367,3757,1814,1
494,3699,1864,1
600,3619,1935,1
720,3618,2005,1
802,3510,2030,1
831,3475,2124,1
848,3535,2199,1
850,3606,2282,1
863,3636,2364,1
848,3649,2422,1
824,3633,2445,1
777,3611,2456,1
723,3594,2475,1
696,3572,2484,1
680,3440,2545,1
606,3569,2434,1
567,3628,2449,1
540,3644,2510,1
511,3656,2579,1
498,3670,2632,1
491,3649,2670,1
463,3589,2694,1
428,3587,2646,1
385,3588,2666,1
383,3536,2708,1
382,3505,2691,1
377,3481,2816,1
364,3439,2793,1
351,3320,2807,1
334,3295,2899,1
337,3208,2933,1
319,3082,2883,1
289,2984,2719,1
259,2847,2561,1
235,2773,2442,1
229,2787,2426,1
201,2839,2425,1
170,2879,2466,1
164,2874,2520,1
166,2832,2658,1
158,2828,2564,1
135,2745,2532,1
95,2639,2508,1
55,2516,2515,1
30,2440,2550,1
59,2399,2657,1
68,2390,2577,1
112,2404,2568,1
184,2435,2580,1
217,2482,2782,1
326,2515,2866,1
383,2603,2952,1
402,2694,3068,1
498,2701,3175,1
608,2676,3320,1
519,2416,3261,1
465,2319,3477,1
483,2223,3577,1
544,2049,3644,1
610,1882,3769,1
650,1816,3866,1
757,1691,3927,1
865,1501,3950,1
979,1269,4034,1
1074,1078,4128,1
1119,913,4148,1
1099,769,4110,1
1088,664,4099,1
1051,581,4101,1
1006,502,4134,1
966,476,4238,1
966,463,4415,1
948,451,4484,1
940,446,4509,1
957,546,4565,1
981,715,4589,1
1041,893,4646,1
1094,1054,4693,1
1175,1209,4748,1
1256,1367,4764,1
1335,1497,4830,1
1418,1547,4897,1
1498,1554,5011,1
1571,1491,5040,1
1677,1406,5096,1
1717,1379,5157,1
1723,1344,5119,1
1729,1349,5136,1
1761,1343,5164,1
1792,1411,5165,1
1803,1470,5133,1
1811,1500,5045,1
1868,1454,5004,1
1933,1498,4991,1
1991,1551,4969,1
2021,1586,4925,1
2060,1583,4855,1
2118,1564,4731,1
2173,1535,4555,1
2253,1530,4409,1
2335,1551,4300,1
2462,1637,4252,1
2595,1659,4152,1
2691,1660,4004,1
2766,1659,3845,1
2836,1681,3780,1
2884,1616,3635,1
2955,1571,3572,1
3004,1730,3584,1
3148,1598,3590,1
3220,1540,3563,1
3214,1715,3565,1
3238,1557,3498,1
3160,1452,3344,1
3044,1602,3275,1
3023,1431,3274,1
2941,1363,3255,1
2951,1339,3380,1
2951,1207,3406,1
2929,1242,3435,1
2980,1194,3506,1
2967,1208,3450,1
2872,1461,3336,1
2877,1390,3373,1
2780,1290,3202,1
2668,1238,3043,1
2604,1155,2926,1
2541,1085,2769,1
2549,997,2719,1
2612,916,2766,1
2694,933,2864,1
2761,1018,2957,1
2795,1111,2977,1
2823,1131,2927,1
2835,1109,2823,1
2841,1051,2731,1
2859,936,2657,1
2898,800,2591,1
2964,700,2582,1
3051,617,2638,1
3123,502,2713,1
3146,331,2758,1
3092,154,2741,1
2983,-13,2680,1
2845,-112,2584,1
2699,-169,2462,1
2559,-237,2358,1
2419,-273,2316,1
2268,-265,2356,1
2107,-271,2436,1
1957,-294,2541,1
1845,-324,2637,1
1781,-395,2731,1
1773,-666,2737,1
1719,-889,2666,1
1695,-990,2666,1
1716,-1055,2668,1
1774,-1118,2608,1
1869,-1019,2583,1
2096,-1289,2633,1
2258,-1396,2706,1
2416,-1301,2909,1
2559,-1127,3062,1
2637,-785,3051,1
2819,-848,2999,1
2871,-894,2784,1
2901,-806,2762,1
2864,-831,2764,1
2707,-838,2719,1
2465,-835,2621,1
2187,-923,2550,1
1791,-1147,2456,1
1447,-1295,2436,1
1198,-1209,2517,1
1009,-1014,2627,1
872,-821,2713,1
778,-653,2751,1
697,-539,2725,1
654,-441,2660,1
644,-308,2564,1
656,-135,2518,1
711,97,2543,1
814,300,2576,1
944,386,2556,1
1045,441,2512,1
1120,528,2508,1
1167,702,2678,1
1241,929,2957,1
1308,1142,3135,1
1367,1281,3053,1
1391,1338,2723,1
1374,1334,2327,1
1350,1346,2029,1
1309,1374,1864,1
1237,1397,1793,1
1129,1386,1777,1
1007,1351,1783,1
866,1272,1794,1
701,1180,1826,1
533,1078,1779,1
343,1112,1761,1
268,1008,1822,1
239,1011,1980,1
349,974,2219,1
556,1067,2462,1
803,1166,2628,1
1005,1297,2643,1
1109,1602,2667,1
1279,1662,2701,1
1414,1673,2624,1
1464,1767,2513,1
1468,1780,2470,1
1372,1851,2412,1
1224,1976,2368,1
1067,2088,2365,1
897,2263,2419,1
814,2257,2589,1
669,2284,2705,1
520,2453,2802,1
491,2562,2927,1
444,2413,2851,1
418,2285,2719,1
359,2254,2559,1
188,2256,2381,1
51,2223,2240,1
87,2118,2212,1
269,1950,2154,1
609,1867,2170,1
1198,2130,2525,1
2019,2566,3131,1
2728,2736,3611,1
3122,2738,3884,1
3284,2680,4129,1
3385,2754,4205,1
3547,2913,4212,1
3780,3033,4023,1
4141,3252,3682,1
4725,3548,3574,1
5429,3812,3597,1
6164,3990,3612,1
6885,4152,3713,1
7482,4317,3910,1
7862,4513,4110,1
7949,4639,4161,1
7644,4699,3924,1
6965,4623,3504,1
5983,4546,3223,1
4845,4519,3076,1
3698,4176,2790,1
2593,3560,2436,1
1587,3087,2208,1
753,2722,1997,1
93,2193,1668,1
-394,1631,1312,1
-609,1064,1031,1
-524,595,979,1
-112,376,1137,1
555,394,1394,1
1402,452,1479,1
2277,531,1436,1
2926,756,1337,1
3324,1082,1136,1
3520,1421,957,1
3617,1763,922,1
3800,2630,1338,1
4431,3943,1962,1
5262,4032,2142,1
5865,3627,2142,1
6080,3335,2151,1
5977,3241,2124,1
5742,3078,2093,1
5376,2939,2007,1
4982,2834,1953,1
4586,2671,1930,1
4245,2711,2013,1
4050,2592,2082,1
3950,2519,2149,1
3957,2406,2214,1
3920,2378,2317,1
4007,2364,2364,1
4021,2279,2331,1
4063,2243,2366,1
4027,2250,2267,1
4033,2210,2244,1
4092,2187,2302,1
4037,2195,2186,1
4034,2332,2166,1
4049,2189,2108,1
4027,2316,2075,1
4019,2320,2026,1
3994,2469,1882,1
3982,2460,1753,1
3980,2594,1739,1
3874,2732,1649,1
4062,2645,1896,1
4025,2357,1696,1
4152,2405,1740,1
4219,2369,1677,1
4263,2314,1646,1
4290,2305,1578,1
4244,2192,1487,1
4213,2057,1402,1
4185,1956,1361,1
4138,1855,1343,1
4080,1784,1381,1
4040,1643,1440,1
4039,1480,1472,1
4038,1333,1468,1
3995,1240,1412,1
3923,1213,1348,1
3838,1197,1246,1
3777,1131,1227,1
3738,1098,1256,1
3758,1113,1296,1
3800,1123,1311,1
3839,1148,1298,1
3833,1150,1308,1
3820,1161,1280,1
3787,1146,1259,1
3716,1084,1193,1
3636,1009,1126,1
3542,945,1057,1
3449,954,998,1
3381,1089,1077,1
3323,1174,1181,1
3266,1191,1195,1
3259,1190,1167,1
3264,1182,1165,1
3278,1193,1123,1
3312,1186,1056,1
3295,1213,1080,1
3255,1232,1082,1
3203,1204,1050,1
3128,1158,982,1
3046,1151,923,1
2963,1203,872,1
2900,1233,815,1
2864,1270,764,1
2888,1349,739,1
2930,1353,803,1
2949,1350,836,1
2982,1316,835,1
2974,1404,792,1
2984,1482,702,1
3023,1467,653,1
3055,1445,629,1
3088,1554,575,1
3118,1815,584,1
3293,1864,530,1
3640,1769,499,1
3866,1726,457,1
4097,1697,469,1
4192,1705,453,1
4288,1659,400,1
4218,1666,333,1
4237,1490,248,1
4324,1384,190,1
4355,1353,178,1
4321,1345,179,1
4278,1300,193,1
4142,1333,200,1
4073,1274,186,1
4006,1222,146,1
3891,1180,56,1
3768,1147,-40,1
3642,1106,-79,1
3537,1079,-69,1
3451,1052,-33,1
3390,1022,8,1
3355,970,26,1
3337,898,13,1
3239,812,57,1
3125,766,-94,1
3113,697,-192,1
3149,649,-240,1
3200,628,-267,1
3214,609,-287,1
3288,503,-328,1
3384,471,-354,1
3516,437,-380,1
3622,414,-366,1
3657,394,-331,1
3632,363,-283,1
3571,356,-225,1
3492,375,-151,1
3416,407,-90,1
3340,435,-67,1
3257,440,-83,1
3176,423,-100,1
3107,402,-110,1
3030,361,-97,1
2954,318,-75,1
2912,263,-35,1
2864,198,-2,1
2832,139,-22,1
2804,113,-72,1
2764,106,-122,1
2718,107,-171,1
2675,110,-190,1
2617,106,-173,1
2573,88,-144,1
2535,41,-124,1
2520,-31,-122,1
2507,-103,-146,1
2503,-163,-160,1
2513,-215,-173,1
2511,-259,-193,1
2498,-289,-241,1
2491,-317,-297,1
2478,-355,-343,1
2485,-378,-364,1
2497,-394,-355,1
2503,-399,-317,1
2517,-394,-286,1
2544,-387,-293,1
2565,-369,-335,1
2593,-348,-387,1
2616,-325,-434,1
2629,-299,-447,1
2679,-263,-430,1
2740,-198,-441,1
2825,-114,-442,1
2926,-27,-419,1
3026,62,-395,1
3130,138,-362,1
3221,208,-340,1
3301,263,-343,1
3371,327,-362,1
3411,413,-415,1
3457,505,-524,1
3518,588,-633,1
3565,651,-729,1
3617,690,-760,1
3674,716,-739,1
3728,749,-694,1
3777,799,-672,1
3809,849,-697,1
3828,878,-755,1
3829,883,-829,1
3825,858,-879,1
3809,817,-897,1
3792,766,-887,1
3776,723,-828,1
3766,697,-719,1
3775,683,-582,1
3811,666,-447,1
3873,626,-316,1
3945,574,-208,1
4027,508,-116,1
4113,431,-70,1
4196,355,-68,1
4283,254,-138,1
4365,131,-262,1
4464,-28,-422,1
4550,-174,-573,1
4631,-267,-659,1
4694,-276,-679,1
4779,-207,-648,1
4870,-70,-568,1
4985,85,-463,1
5118,223,-343,1
5257,307,-267,1
5396,307,-287,1
5524,250,-413,1
5611,206,-609,1
5665,226,-829,1
5669,330,-959,1
5651,482,-950,1
5631,587,-841,1
5588,607,-713,1
5502,576,-609,1
5382,511,-504,1
5230,432,-386,1
5054,369,-248,1
4874,294,-130,1
4683,218,-14,1
4536,133,90,1
4431,72,185,1
4362,21,294,1
4286,-60,412,1
4223,-176,536,1
4144,-304,639,1
4077,-443,727,1
4035,-549,819,1
3985,-654,881,1
3931,-777,934,1
3852,-874,1001,1
3773,-939,1059,1
3734,-983,1113,1
3718,-984,1161,1
3749,-942,1220,1
3817,-869,1280,1
3896,-773,1322,1
3966,-666,1354,1
4030,-541,1361,1
4070,-422,1358,1
4112,-315,1321,1
4140,-237,1262,1
4155,-191,1176,1
4154,-163,1074,1
4142,-107,967,1
4126,-26,873,1
4129,71,819,1
4131,193,803,1
4115,335,833,1
4057,502,887,1
3985,696,950,1
3924,907,1013,1
3885,1115,1077,1
3861,1277,1134,1
3832,1384,1176,1
3792,1442,1207,1
3753,1467,1239,1
3717,1462,1272,1
3687,1425,1302,1
3668,1365,1306,1
3657,1299,1291,1
3648,1209,1251,1
3623,1092,1202,1
3604,943,1167,1
3560,807,1143,1
3519,675,1108,1
3481,529,1056,1
3359,300,964,1
3314,161,893,1
3278,157,863,1
3248,170,858,1
3215,187,908,1
3203,172,938,1
3160,146,904,1
3122,121,837,1
3102,115,778,1
3031,63,720,1
3035,39,688,1
3072,58,674,1
3114,102,678,1
3198,164,663,1
3270,218,639,1
3345,254,622,1
3458,281,640,1
3571,315,676,1
3665,359,670,1
3780,442,628,1
3847,530,559,1
3901,592,480,1
3977,647,422,1
3964,729,388,1
3922,765,389,1
3957,725,381,1
3993,679,392,1
4007,633,400,1
4057,591,414,1
4083,556,434,1
4091,515,429,1
4091,458,413,1
4060,430,409,1
4045,434,445,1
4026,446,486,1
3993,448,531,1
3859,425,522,1
3835,410,542,1
4115,573,721,1
3687,641,607,1
3888,796,624,1
3515,904,541,1
3796,1049,694,1
3574,1040,586,1
3489,1143,583,1
3483,1233,646,1
3403,1310,688,1
3350,1373,739,1
3338,1400,760,1
3293,1434,775,1
3301,1474,804,1
3291,1507,814,1
3268,1574,820,1
3242,1627,847,1
3188,1637,848,1
3213,1661,839,1
3171,1701,854,1
3095,1698,845,1
3063,1658,823,1
3033,1677,848,1
3025,1679,893,1
3009,1576,887,1
3005,1498,867,1
3007,1500,851,1
3008,1481,872,1
3030,1454,882,1
3080,1391,872,1
3133,1354,863,1
3176,1331,843,1
3186,1362,846,1
3178,1373,873,1
3220,1324,907,1
3276,1255,914,1
3273,1250,938,1
3262,1310,985,1
3325,1276,1007,1
3428,1165,976,1
3502,1063,920,1
3572,1046,877,1
3639,1075,853,1
3682,1090,800,1
3749,1075,763,1
3832,902,704,1
3939,643,692,1
4048,342,788,1
4203,-28,962,1
4355,-353,1169,1
4509,-581,1372,1
4632,-643,1518,1
4740,-530,1531,1
4823,-242,1430,1
4907,236,1292,1
4910,782,1139,1
4889,1243,1043,1
4807,1609,1019,1
4687,1929,1082,1
4523,2246,1217,1
4369,2533,1411,1
4253,2751,1615,1
4226,2851,1760,1
4326,2828,1857,1
4535,2733,1911,1
4835,2577,1950,1
5208,2321,1901,1
5636,1958,1652,1
6135,1506,1300,1
6688,1043,1034,1
7217,667,943,1
7578,444,895,1
7677,319,767,1
7472,246,543,1
7037,176,352,1
6511,51,337,1
5915,-166,404,1
5272,-397,446,1
4660,-593,437,1
4102,-730,416,1
3617,-767,433,1
3217,-724,441,1
2904,-637,393,1
2693,-536,311,1
2590,-456,219,1
2548,-387,119,1
2533,-276,34,1
2552,-170,-64,1
2593,-57,-163,1
2660,48,-208,1
2754,128,-199,1
2839,186,-165,1
2917,212,-104,1
2968,202,-69,1
3000,159,-65,1
3009,92,-67,1
3023,-3,-43,1
3044,-122,-32,1
3086,-263,-48,1
3163,-387,-55,1
3268,-499,-41,1
3383,-584,-42,1
3511,-685,-76,1
3629,-785,-109,1
3731,-863,-117,1
3815,-943,-133,1
3888,-1033,-170,1
3942,-1112,-226,1
3963,-1186,-305,1
3980,-1239,-408,1
3993,-1254,-476,1
4004,-1215,-471,1
4025,-1133,-415,1
4033,-1009,-370,1
4021,-828,-352,1
3997,-594,-330,1
3998,-303,-263,1
4034,-49,-182,1
4083,156,-146,1
4129,316,-88,1
4157,461,-37,1
4136,625,-6,1
4091,773,-7,1
4065,874,19,1
4006,930,16,1
3958,923,28,1
3936,855,44,1
3898,777,39,1
3879,681,36,1
3871,572,18,1
3854,478,5,1
3842,389,-12,1
3853,307,-49,1
3872,233,-73,1
3934,135,-114,1
3898,123,-136,1
3874,113,-142,1
3860,108,-149,1
3872,118,-135,1
3896,128,-111,1
3924,137,-88,1
3939,140,-65,1
3962,136,-55,1
3986,143,-47,1
3986,172,-30,1
3982,200,-15,1
3966,211,1,1
3966,203,7,1
3977,173,20,1
3973,160,35,1
3964,151,30,1
3955,158,17,1
3959,188,20,1
3974,211,16,1
4007,207,6,1
4050,216,9,1
4079,250,22,1
4105,293,37,1
4123,317,36,1
4113,433,39,1
4098,558,57,1
4099,642,57,1
4086,690,48,1
4062,724,44,1
4033,756,24,1
4001,814,27,1
3972,880,46,1
3952,936,55,1
3941,954,66,1
3939,933,61,1
3925,933,59,1
3915,942,69,1
3929,970,86,1
3945,1011,83,1
3939,1076,102,1
3905,1165,131,1
3858,1226,108,1
3821,1251,64,1
3794,1284,67,1
3761,1319,106,1
3722,1310,80,1
3680,1334,90,1
3646,1372,122,1
3679,1443,129,1
3663,1511,86,1
3659,1556,48,1
3648,1540,23,1
3628,1514,37,1
3679,1434,59,1
3714,1349,58,1
3681,1267,47,1
3580,1178,27,1
3479,1080,16,1
3478,935,3,1
3535,779,-67,1
3598,668,-196,1
3641,567,-348,1
3669,496,-500,1
3687,490,-600,1
3708,575,-587,1
3718,724,-503,1
3705,877,-381,1
3688,994,-233,1
3690,1074,-74,1
3730,1126,100,1
3800,1139,252,1
3867,1095,349,1
3912,995,378,1
3959,869,374,1
4000,724,377,1
4044,550,387,1
4078,343,369,1
4141,128,333,1
4228,-69,300,1
4325,-222,289,1
4408,-338,291,1
4474,-397,281,1
4528,-384,267,1
4622,-329,265,1
4752,-284,332,1
4890,-264,413,1
5024,-265,467,1
5072,-274,450,1
4978,-309,482,1
5116,-664,227,1
5143,-696,-23,1
5122,-617,-143,1
5081,-566,-209,1
5058,-599,-311,1
5078,-702,-368,1
4951,-728,-338,1
4702,-637,-310,1
4552,-608,-222,1
4423,-615,-100,1
4309,-644,37,1
4245,-690,166,1
4244,-734,348,1
4331,-804,543,1
4474,-874,717,1
4625,-902,874,1
4784,-868,1037,1
4947,-791,1191,1
5114,-705,1333,1
5287,-636,1453,1
5469,-611,1544,1
5643,-623,1606,1
5791,-669,1645,1
5906,-746,1682,1
5964,-847,1685,1
5918,-923,1586,1
5766,-895,1431,1
5532,-744,1300,1
5180,-569,1195,1
4340,-424,987,1
3993,0,843,1
4074,413,831,1
4294,705,871,1
4439,887,893,1
4462,1035,916,1
4377,1202,961,1
4243,1378,977,1
4101,1525,933,1
3961,1600,866,1
3851,1597,757,1
3743,1544,641,1
3651,1450,546,1
3561,1365,510,1
3497,1308,497,1
3453,1252,478,1
3404,1176,459,1
3334,1097,448,1
3275,1015,460,1
3224,941,482,1
3188,858,468,1
3177,758,446,1
3163,643,438,1
3154,532,431,1
3148,437,448,1
3147,350,459,1
3139,297,474,1
3134,270,517,1
3124,218,543,1
3142,212,584,1
3141,137,556,1
3213,182,617,1
3180,137,565,1
3262,176,545,1
3261,154,495,1
3321,178,453,1
3339,207,386,1
3354,240,349,1
3359,358,370,1
3335,492,395,1
3310,594,405,1
3291,691,421,1
3253,743,414,1
3236,826,430,1
3224,911,456,1
3439,1118,518,1
3172,1095,459,1
3093,1014,434,1
3082,1066,469,1
3098,1112,546,1
3096,1175,598,1
3020,1307,611,1
2989,1181,574,1
2995,1182,619,1
3024,1216,671,1
3248,1388,810,1
3130,1391,782,1
3034,1201,696,1
3059,1125,666,1
3145,1177,704,1
3156,1277,762,1
3148,1259,773,1
3178,1295,812,1
3170,1304,829,1
3245,1423,897,1
3125,1751,967,1
2981,1589,901,1
3001,1611,940,1
3023,1690,972,1
3244,1819,1018,1
2953,1914,908,1
2917,1839,878,1
3030,1914,919,1
3171,2122,1016,1
2950,2092,888,1
2994,2102,856,1
3264,2251,898,1
3120,2377,846,1
2958,2655,850,1
2906,2669,824,1
3008,2578,790,1
3100,2522,792,1
3188,2455,817,1
3320,2314,864,1
3430,2122,892,1
3537,1857,919,1
3566,1595,926,1
3580,1313,958,1
3639,979,1019,1
3711,612,1038,1
3886,185,999,1
4114,-156,949,1
4372,-353,898,1
4696,-455,864,1
4928,-281,827,1
5027,117,833,1
5056,660,909,1
5047,1221,1079,1
5014,1749,1348,1
4946,2202,1642,1
4806,2561,1901,1
4596,2799,2094,1
4377,2936,2186,1
4232,3023,2244,1
4216,3066,2350,1
4408,3064,2489,1
4795,2943,2602,1
5314,2613,2568,1
5928,2141,2390,1
6612,1598,2101,1
7291,1062,1685,1
7906,562,1174,1
8328,167,664,1
8473,-209,149,1
8306,-595,-304,1
7746,-925,-625,1
6912,-1116,-709,1
5956,-1190,-523,1
4978,-1243,-233,1
4097,-1273,-20,1
3375,-1244,179,1
2816,-1118,393,1
2401,-944,559,1
2161,-785,595,1
2117,-679,549,1
2239,-565,460,1
2489,-425,357,1
2786,-263,222,1
3076,-112,64,1
3315,22,-92,1
3507,139,-186,1
3657,230,-198,1
3774,264,-171,1
3859,246,-119,1
3933,192,-73,1
3989,114,-51,1
4000,39,-51,1
3983,-63,-84,1
3938,-171,-117,1
3885,-314,-146,1
3820,-460,-153,1
3768,-608,-150,1
3742,-753,-159,1
3734,-897,-185,1
3769,-1043,-237,1
3796,-1152,-284,1
3845,-1245,-334,1
3900,-1314,-380,1
3923,-1370,-411,1
3969,-1470,-446,1
4047,-1615,-496,1
4045,-1674,-480,1
4003,-1653,-422,1
4007,-1639,-462,1
3967,-1567,-504,1
3946,-1416,-472,1
3939,-1198,-402,1
3936,-953,-313,1
3924,-700,-232,1
3914,-467,-171,1
3923,-249,-124,1
3932,-35,-67,1
3958,133,-31,1
3990,237,-24,1
4000,284,-27,1
3982,314,-39,1
3944,321,-51,1
3878,326,-66,1
3786,331,-79,1
3711,323,-95,1
3673,296,-129,1
3664,282,-167,1
3664,288,-201,1
3658,304,-225,1
3640,328,-232,1
3624,331,-247,1
3611,322,-262,1
3611,304,-272,1
3635,258,-282,1
3639,212,-271,1
3646,194,-238,1
3661,183,-213,1
3693,191,-198,1
3732,249,-157,1
3787,293,-135,1
3847,307,-130,1
3901,321,-85,1
3952,349,-62,1
3986,362,-85,1
4042,350,-109,1
4096,330,-97,1
4117,342,-103,1
4125,355,-107,1
4136,363,-100,1
4131,377,-89,1
4116,399,-79,1
4101,428,-71,1
4080,459,-52,1
4072,488,-34,1
4072,517,-13,1
4064,547,0,1
4039,583,14,1
4018,627,32,1
4008,671,59,1
4007,716,76,1
3992,774,96,1
3966,839,121,1
3941,890,127,1
3933,933,110,1
3921,978,93,1
3906,1040,72,1
3899,1098,66,1
3913,1158,70,1
3911,1202,54,1
3909,1228,32,1
3926,1254,10,1
3942,1311,1,1
3946,1361,-12,1
3957,1379,-9,1
3963,1357,7,1
3957,1310,15,1
3953,1245,9,1
3964,1189,1,1
3991,1146,0,1
4003,1115,-4,1
3994,1083,-25,1
3969,1049,-35,1
3951,999,-48,1
3931,952,-52,1
3915,911,-45,1
3884,898,-40,1
3823,886,-56,1
3778,881,-74,1
3860,806,-52,1
3963,741,-13,1
3982,687,-38,1
3926,635,-153,1
3836,617,-331,1
3743,664,-508,1
3682,776,-589,1
3634,912,-575,1
3594,1035,-501,1
3569,1119,-353,1
3560,1179,-156,1
3568,1212,53,1
3615,1213,235,1
3685,1176,385,1
3758,1076,481,1
3824,928,501,1
3883,752,486,1
3929,567,460,1
3958,355,426,1
4003,118,427,1
4075,-131,482,1
4162,-377,561,1
4233,-605,604,1
4271,-797,582,1
4288,-906,515,1
4319,-895,469,1
4392,-790,472,1
4500,-663,514,1
4621,-557,543,1
4721,-490,519,1
4804,-429,452,1
4885,-364,370,1
4987,-342,254,1
5107,-358,115,1
5103,-222,-26,1
5114,-110,-124,1
5105,-39,-208,1
5057,-39,-291,1
5041,-118,-351,1
4989,-202,-373,1
4937,-365,-347,1
4817,-469,-288,1
4659,-561,-182,1
4443,-648,-39,1
4375,-908,72,1
4327,-1083,203,1
4285,-1160,375,1
4241,-1156,545,1
4196,-1117,691,1
4176,-1071,806,1
4207,-1033,906,1
4284,-1006,1001,1
4402,-1008,1102,1
4484,-1030,1204,1
4496,-1048,1260,1
4478,-1082,1241,1
4544,-1179,1174,1
4656,-1315,1098,1
4756,-1406,1061,1
4808,-1431,1057,1
4832,-1405,1067,1
