accelerometer_x,accelerometer_y,accelerometer_z,fall
6532,1784,-1112,1
6666,2047,-1083,1
6717,2318,-1030,1
6675,2590,-945,1
6542,2838,-820,1
6336,3030,-663,1
6064,3124,-505,1
5749,3097,-362,1
5414,2935,-247,1
5060,2676,-169,1
4691,2372,-134,1
4316,2061,-144,1
3917,1734,-206,1
3514,1397,-318,1
3114,1055,-479,1
2741,705,-679,1
2412,360,-902,1
2136,33,-1129,1
1932,-265,-1341,1
1817,-526,-1526,1
1784,-721,-1655,1
1812,-818,-1722,1
1888,-810,-1734,1
1991,-718,-1699,1
2125,-581,-1617,1
2296,-433,-1491,1
2515,-300,-1324,1
2771,-198,-1124,1
3063,-125,-903,1
3382,-82,-676,1
3707,-48,-452,1
4005,-10,-245,1
4274,47,-79,1
4503,122,51,1
4679,222,139,1
4791,342,182,1
4840,470,196,1
4834,595,184,1
4771,695,150,1
4667,766,107,1
4529,792,53,1
4377,776,-10,1
4224,719,-90,1
4060,625,-182,1
3900,494,-281,1
3752,346,-389,1
3612,189,-491,1
3484,52,-589,1
3378,-72,-674,1
3300,-162,-740,1
3240,-214,-777,1
3207,-222,-790,1
3198,-189,-783,1
3206,-128,-755,1
3246,-69,-720,1
3317,-33,-679,1
3427,-18,-640,1
3562,-12,-604,1
3711,-18,-577,1
3855,-14,-570,1
3988,-7,-584,1
4110,5,-623,1
4214,22,-680,1
4302,42,-736,1
4369,54,-778,1
4424,50,-791,1
4478,33,-771,1
4531,7,-717,1
4583,-24,-614,1
4644,-54,-501,1
4713,-77,-385,1
4789,-72,-286,1
4872,-40,-202,1
4955,23,-132,1
5032,113,-64,1
5106,227,1,1
5167,356,64,1
5210,501,131,1
5235,646,205,1
5240,790,284,1
5211,913,310,1
5155,1017,198,1
5076,1115,-21,1
4988,1200,-290,1
4898,1250,-567,1
4821,1259,-857,1
4757,1219,-1163,1
4712,1129,-1466,1
4706,981,-1741,1
4726,787,-1977,1
4768,581,-2181,1
4831,386,-2364,1
4894,230,-2496,1
4948,126,-2554,1
4994,91,-2517,1
5033,120,-2408,1
5077,176,-2239,1
5126,255,-2036,1
5175,353,-1827,1
5199,489,-1643,1
5184,669,-1503,1
5126,880,-1414,1
5022,1105,-1394,1
4864,1335,-1422,1
4668,1549,-1465,1
4434,1729,-1507,1
4183,1867,-1533,1
3922,1959,-1522,1
3646,2013,-1488,1
3372,2058,-1432,1
3103,2086,-1340,1
2836,2114,-1219,1
2576,2120,-1084,1
2339,2101,-955,1
2131,2051,-847,1
1944,1967,-771,1
1777,1860,-738,1
1635,1737,-751,1
1541,1599,-809,1
1494,1450,-899,1
1496,1289,-1001,1
1544,1145,-1115,1
1632,1026,-1222,1
1752,935,-1304,1
1907,880,-1348,1
2096,838,-1349,1
2326,806,-1277,1
2629,741,-1114,1
3004,655,-863,1
3437,564,-555,1
3900,485,-233,1
4380,449,56,1
4834,479,230,1
5251,568,279,1
5611,688,191,1
5910,801,6,1
6151,886,-247,1
6334,900,-530,1
6458,837,-783,1
6520,677,-986,1
6512,448,-1140,1
6413,213,-1266,1
6234,6,-1355,1
6001,-148,-1413,1
5716,-244,-1429,1
5404,-289,-1407,1
5080,-289,-1361,1
4748,-263,-1294,1
4430,-215,-1194,1
4115,-139,-1086,1
3800,-46,-965,1
3493,69,-834,1
3206,196,-704,1
2943,325,-579,1
2718,448,-459,1
2524,561,-346,1
2367,665,-244,1
2250,767,-159,1
2170,862,-89,1
2134,944,-29,1
2143,1002,21,1
2198,1027,65,1
2288,1037,100,1
2406,1043,136,1
2540,1046,170,1
2687,1056,199,1
2844,1066,216,1
3003,1074,218,1
3156,1074,188,1
3304,1064,138,1
3439,1041,69,1
3554,1010,-16,1
3654,971,-108,1
3738,924,-204,1
3816,867,-292,1
3880,797,-373,1
3933,724,-444,1
3981,646,-495,1
4014,569,-531,1
4037,489,-542,1
4040,425,-532,1
4023,383,-499,1
3990,359,-452,1
3949,347,-393,1
3901,342,-330,1
3846,344,-260,1
3784,372,-194,1
3716,415,-123,1
3645,472,-60,1
3575,541,6,1
3513,616,69,1
3477,683,122,1
3458,741,173,1
3466,792,209,1
3502,829,232,1
3559,864,250,1
3626,887,259,1
3695,895,254,1
3759,896,211,1
3803,895,117,1
3829,907,-21,1
3832,944,-202,1
3815,1002,-385,1
3797,1064,-524,1
3784,1109,-573,1
3804,1101,-502,1
3867,1057,-302,1
3979,995,-10,1
4126,948,345,1
4328,918,703,1
4571,920,1037,1
4838,927,1328,1
5108,934,1554,1
5360,910,1703,1
5577,843,1778,1
5737,743,1777,1
5836,619,1700,1
5861,481,1566,1
5825,332,1380,1
5718,153,1162,1
5549,-56,904,1
5357,-311,545,1
5167,-581,40,1
4970,-774,-580,1
4742,-858,-1188,1
4493,-887,-1737,1
4247,-882,-2215,1
4033,-848,-2577,1
3878,-777,-2764,1
3799,-633,-2774,1
3839,-352,-2664,1
4004,13,-2455,1
4312,388,-2180,1
4710,785,-1875,1
5137,1235,-1549,1
5520,1740,-1229,1
5833,2289,-907,1
6066,2775,-662,1
6224,3110,-523,1
6328,3262,-456,1
6387,3274,-424,1
6363,3199,-452,1
6257,3076,-554,1
6073,2918,-717,1
5833,2744,-897,1
5562,2554,-1058,1
5258,2365,-1179,1
4930,2182,-1250,1
4551,2032,-1260,1
4041,2005,-1125,1
3458,2011,-896,1
2822,1933,-744,1
2185,1724,-741,1
1594,1428,-810,1
1052,1114,-855,1
583,802,-888,1
224,504,-943,1
-46,264,-1022,1
-210,97,-1157,1
-257,-13,-1352,1
-167,-76,-1572,1
19,-105,-1764,1
274,-119,-1901,1
577,-121,-1980,1
901,-87,-2005,1
1243,-34,-1979,1
1604,44,-1934,1
1979,129,-1878,1
2372,226,-1820,1
2793,326,-1763,1
3255,406,-1666,1
3751,472,-1498,1
4270,538,-1298,1
4793,612,-1096,1
5302,700,-892,1
5771,824,-720,1
6180,986,-577,1
6517,1189,-474,1
6766,1450,-410,1
6917,1748,-396,1
6970,2060,-440,1
6938,2354,-510,1
6810,2615,-569,1
6601,2819,-592,1
6324,2955,-569,1
5987,3015,-506,1
5600,2992,-418,1
5190,2869,-351,1
4773,2643,-319,1
4368,2336,-328,1
3957,1977,-387,1
3550,1599,-477,1
3165,1221,-601,1
2804,882,-754,1
2490,601,-927,1
2232,392,-1108,1
2046,246,-1272,1
1940,175,-1411,1
1895,170,-1497,1
1904,216,-1535,1
1952,300,-1527,1
2037,406,-1468,1
2154,516,-1383,1
2297,604,-1281,1
2474,664,-1179,1
2672,681,-1063,1
2889,655,-946,1
3119,587,-826,1
3357,493,-707,1
3623,358,-569,1
3901,198,-417,1
4182,49,-274,1
4448,-75,-170,1
4676,-140,-117,1
4845,-131,-118,1
4941,-52,-142,1
4954,96,-165,1
4897,287,-180,1
4785,491,-183,1
4636,670,-183,1
4469,811,-196,1
4291,899,-226,1
4129,923,-273,1
3971,889,-340,1
3828,804,-418,1
3699,683,-504,1
3582,546,-585,1
3489,412,-658,1
3418,290,-707,1
3370,194,-731,1
3352,133,-737,1
3363,121,-720,1
3397,158,-693,1
3443,237,-660,1
3508,340,-613,1
3586,444,-559,1
3682,537,-497,1
3797,610,-425,1
3920,663,-343,1
4038,699,-254,1
4156,722,-172,1
4271,734,-93,1
4379,732,-34,1
4478,723,15,1
4567,700,37,1
4641,673,41,1
4697,634,26,1
4746,587,-1,1
4775,537,-40,1
4784,486,-88,1
4782,426,-137,1
4768,364,-180,1
4754,300,-219,1
4735,225,-248,1
4713,142,-263,1
4686,56,-261,1
4656,-32,-255,1
4618,-121,-242,1
4575,-201,-226,1
4527,-264,-208,1
4483,-313,-200,1
4448,-338,-221,1
4420,-323,-305,1
4400,-276,-406,1
4390,-182,-478,1
4376,-46,-521,1
4356,136,-563,1
4344,346,-632,1
4354,559,-736,1
4406,747,-848,1
4500,886,-963,1
4622,980,-1071,1
4769,1050,-1154,1
4924,1136,-1210,1
5073,1237,-1252,1
5207,1333,-1295,1
5331,1402,-1334,1
5440,1419,-1376,1
5527,1353,-1440,1
5589,1219,-1504,1
5601,1031,-1588,1
5540,838,-1662,1
5408,710,-1699,1
5205,685,-1696,1
4950,785,-1629,1
4668,985,-1515,1
4384,1260,-1397,1
4117,1554,-1275,1
3854,1849,-1171,1
3606,2112,-1086,1
3377,2324,-1015,1
3162,2470,-961,1
2952,2555,-912,1
2744,2571,-862,1
2538,2529,-811,1
2335,2432,-750,1
2142,2291,-678,1
1948,2118,-604,1
1770,1913,-530,1
1620,1689,-473,1
1512,1445,-451,1
1456,1209,-460,1
1439,1011,-494,1
1456,866,-533,1
1511,784,-561,1
1602,763,-567,1
1726,795,-542,1
1892,858,-492,1
2112,941,-422,1
2401,1011,-314,1
2738,1075,-180,1
3122,1130,-36,1
3535,1182,105,1
3958,1239,209,1
4381,1306,258,1
4787,1370,227,1
5151,1422,131,1
5464,1450,-5,1
5720,1437,-157,1
5913,1361,-286,1
6042,1201,-357,1
6114,974,-408,1
6144,699,-489,1
6128,411,-591,1
6064,151,-710,1
5950,-62,-831,1
5778,-202,-936,1
5557,-269,-1001,1
5297,-271,-1028,1
5011,-222,-1018,1
4706,-128,-963,1
4399,-10,-886,1
4106,133,-792,1
3826,294,-689,1
3575,465,-588,1
3350,640,-490,1
3152,829,-386,1
2990,1015,-289,1
2861,1183,-198,1
2766,1320,-109,1
2701,1425,-31,1
2663,1504,45,1
2647,1560,132,1
2656,1585,217,1
2689,1572,295,1
2743,1519,351,1
2805,1448,392,1
2871,1371,416,1
2931,1297,423,1
2982,1229,416,1
3035,1160,389,1
3103,1084,337,1
3172,1013,266,1
3243,940,183,1
3316,871,91,1
3399,807,2,1
3494,744,-87,1
3598,675,-158,1
3712,605,-223,1
3830,539,-272,1
3953,473,-294,1
4070,416,-294,1
4183,371,-269,1
4282,338,-231,1
4361,327,-178,1
4404,334,-120,1
4418,362,-59,1
4403,395,-10,1
4358,440,33,1
4279,487,62,1
4190,519,76,1
4078,551,67,1
3956,563,41,1
3831,571,1,1
3705,573,-47,1
3591,567,-107,1
3487,564,-170,1
3400,559,-234,1
3327,558,-292,1
3278,559,-336,1
3251,564,-348,1
3246,578,-333,1
3259,630,-309,1
3283,710,-271,1
3319,815,-233,1
3363,926,-193,1
3425,1046,-154,1
3485,1173,-129,1
3543,1311,-106,1
3604,1435,-98,1
3669,1528,-101,1
3754,1573,-115,1
3853,1567,-130,1
3971,1515,-129,1
4083,1434,-100,1
4212,1322,-45,1
4345,1200,41,1
4485,1063,146,1
4627,920,249,1
4755,783,335,1
4866,651,395,1
4966,536,428,1
5049,430,430,1
5111,331,411,1
5148,236,371,1
5157,140,310,1
5152,47,232,1
5126,-49,129,1
5089,-157,21,1
5042,-283,-95,1
4982,-423,-207,1
4920,-570,-310,1
4851,-703,-399,1
4769,-798,-489,1
4684,-837,-602,1
4599,-812,-764,1
4522,-705,-975,1
4440,-509,-1207,1
4354,-235,-1422,1
4263,88,-1594,1
4194,432,-1704,1
4171,760,-1757,1
4218,1047,-1737,1
4338,1269,-1657,1
4538,1419,-1532,1
4798,1531,-1378,1
5077,1634,-1212,1
5339,1747,-1047,1
5553,1884,-902,1
5705,2030,-795,1
5787,2187,-708,1
5805,2329,-637,1
5760,2441,-584,1
5661,2543,-557,1
5510,2628,-563,1
5308,2707,-600,1
5063,2774,-658,1
4780,2817,-732,1
4471,2825,-808,1
4151,2803,-869,1
3801,2742,-915,1
3430,2658,-937,1
3048,2547,-941,1
2642,2396,-936,1
2210,2212,-942,1
1765,1997,-986,1
1343,1772,-1047,1
975,1537,-1118,1
671,1312,-1172,1
446,1104,-1216,1
312,927,-1270,1
272,797,-1341,1
344,715,-1443,1
517,691,-1566,1
756,708,-1687,1
1050,756,-1788,1
1373,814,-1870,1
1716,878,-1919,1
2071,925,-1953,1
2452,949,-1975,1
2873,938,-1978,1
3328,893,-1977,1
3807,824,-1972,1
4302,753,-1978,1
4804,697,-1995,1
5292,668,-2024,1
5740,694,-2050,1
6141,782,-2063,1
6476,924,-2062,1
6727,1121,-2035,1
6904,1369,-1973,1
6997,1653,-1871,1
6989,1959,-1747,1
6871,2256,-1612,1
6654,2500,-1479,1
6365,2649,-1352,1
6041,2701,-1252,1
5658,2686,-1138,1
5213,2626,-1007,1
4753,2492,-909,1
4294,2266,-890,1
3824,1963,-936,1
3339,1621,-1036,1
2864,1242,-1181,1
2419,870,-1360,1
2024,534,-1545,1
1718,261,-1712,1
1511,57,-1846,1
1413,-43,-1941,1
1404,-39,-1995,1
1466,56,-2020,1
1592,220,-2003,1
1767,404,-1949,1
1992,547,-1853,1
2272,623,-1695,1
2618,611,-1469,1
3014,523,-1194,1
3446,393,-889,1
3880,251,-598,1
4299,141,-362,1
4669,74,-204,1
4981,61,-137,1
5209,103,-150,1
5346,197,-227,1
5390,316,-349,1
5353,443,-486,1
5244,544,-600,1
5084,619,-707,1
4887,657,-807,1
4664,640,-915,1
4434,563,-1032,1
4214,430,-1160,1
4008,251,-1294,1
3818,52,-1420,1
3662,-157,-1527,1
3543,-356,-1610,1
3475,-521,-1656,1
3469,-626,-1649,1
3509,-651,-1590,1
3581,-604,-1471,1
3665,-501,-1309,1
3779,-377,-1130,1
3891,-240,-928,1
3998,-103,-734,1
4109,28,-576,1
4225,160,-459,1
4330,281,-374,1
4415,395,-309,1
4486,510,-274,1
4528,621,-259,1
4552,722,-267,1
4566,804,-295,1
4564,869,-333,1
4550,915,-380,1
4527,952,-437,1
4488,986,-502,1
4437,1027,-571,1
4373,1080,-639,1
4304,1140,-706,1
4229,1197,-763,1
4164,1248,-803,1
4106,1287,-819,1
4049,1307,-819,1
4000,1312,-808,1
3960,1305,-791,1
3926,1289,-782,1
3892,1268,-782,1
3864,1242,-793,1
3838,1212,-814,1
3812,1180,-845,1
3788,1137,-879,1
3759,1087,-929,1
3734,1037,-992,1
3707,969,-1053,1
3690,896,-1122,1
3668,809,-1190,1
3647,719,-1261,1
3628,623,-1334,1
3608,527,-1414,1
3595,437,-1495,1
3592,354,-1571,1
3595,274,-1635,1
3605,201,-1687,1
3615,137,-1729,1
3627,90,-1752,1
3642,52,-1768,1
3664,43,-1764,1
3685,67,-1741,1
3704,125,-1716,1
3723,222,-1664,1
3727,354,-1595,1
3734,499,-1510,1
3743,654,-1413,1
3745,817,-1296,1
3741,992,-1178,1
3733,1175,-1061,1
3713,1354,-954,1
3693,1529,-854,1
3666,1688,-769,1
3638,1820,-695,1
3596,1931,-646,1
3543,2011,-617,1
3478,2072,-597,1
3408,2090,-586,1
3333,2073,-589,1
3258,2040,-613,1
3180,1997,-649,1
3095,1942,-685,1
3010,1877,-720,1
2932,1808,-752,1
2860,1723,-783,1
2805,1620,-802,1
2770,1488,-799,1
2768,1331,-770,1
2796,1153,-721,1
2843,970,-660,1
2919,789,-592,1
3036,619,-526,1
3186,477,-460,1
3352,374,-392,1
3534,315,-323,1
3727,290,-260,1
3918,286,-203,1
4108,295,-172,1
4306,303,-152,1
4500,310,-171,1
4688,300,-214,1
4864,277,-278,1
5027,238,-366,1
5168,184,-467,1
5295,108,-563,1
5391,12,-652,1
5454,-98,-710,1
5466,-220,-735,1
5430,-342,-724,1
5337,-444,-678,1
5192,-508,-609,1
5025,-530,-529,1
4857,-510,-448,1
4689,-451,-376,1
4539,-353,-304,1
4410,-231,-229,1
4308,-106,-148,1
4240,21,-66,1
4211,132,18,1
4215,238,99,1
4249,327,172,1
4304,407,241,1
4374,479,300,1
4454,538,347,1
4528,605,383,1
4593,672,401,1
4640,744,400,1
4668,799,374,1
4673,845,330,1
4663,878,268,1
4629,905,206,1
4564,935,140,1
4472,962,72,1
4366,972,23,1
4252,975,-13,1
4139,961,-29,1
4022,910,-24,1
3893,870,-12,1
3762,825,3,1
3623,792,26,1
3490,765,52,1
3367,735,75,1
3255,713,104,1
3150,704,145,1
3071,692,181,1
3006,693,222,1
2950,719,269,1
2922,748,307,1
2913,791,351,1
2919,839,393,1
2950,870,423,1
3002,894,444,1
3063,926,463,1
3124,974,473,1
3189,1026,475,1
3260,1061,476,1
3336,1080,480,1
3416,1094,488,1
3494,1085,494,1
3585,1064,494,1
3669,1042,497,1
3757,1019,500,1
3836,996,507,1
3915,965,508,1
3984,940,511,1
4046,892,499,1
4110,838,476,1
4156,800,459,1
4192,771,446,1
4209,755,432,1
4209,741,426,1
4201,713,408,1
4197,669,395,1
4164,640,388,1
4130,611,383,1
4115,548,362,1
4114,466,350,1
4123,397,350,1
4132,349,361,1
4126,340,391,1
4113,372,430,1
4103,405,480,1
4102,435,530,1
4085,480,589,1
4079,504,629,1
4089,524,664,1
4097,523,694,1
4106,531,714,1
4115,566,717,1
4140,610,675,1
4186,693,562,1
4242,849,366,1
4302,1062,97,1
4357,1296,-238,1
4409,1539,-597,1
4470,1779,-926,1
4564,1982,-1183,1
4717,2111,-1336,1
4942,2153,-1398,1
5239,2127,-1408,1
5571,2068,-1374,1
5910,1998,-1292,1
6215,1917,-1146,1
6454,1849,-945,1
6599,1796,-720,1
6633,1761,-496,1
6562,1742,-325,1
6404,1748,-230,1
6158,1772,-202,1
5831,1816,-213,1
5438,1859,-265,1
5015,1860,-350,1
4571,1830,-491,1
4111,1765,-648,1
3642,1613,-807,1
3171,1355,-969,1
2708,1001,-1149,1
2283,600,-1332,1
1900,221,-1502,1
1592,-108,-1656,1
1348,-355,-1784,1
1179,-516,-1871,1
1072,-583,-1918,1
1036,-557,-1916,1
1070,-441,-1876,1
1180,-276,-1804,1
1338,-86,-1696,1
1551,79,-1565,1
1811,213,-1423,1
2101,306,-1300,1
2418,351,-1206,1
2737,378,-1124,1
3038,405,-1070,1
3313,442,-1058,1
3561,492,-1074,1
3785,553,-1123,1
3973,633,-1194,1
4150,715,-1284,1
4308,811,-1378,1
4453,927,-1476,1
4591,1052,-1560,1
4724,1178,-1630,1
4852,1302,-1662,1
4974,1410,-1649,1
5091,1504,-1583,1
5202,1572,-1464,1
5298,1609,-1309,1
5379,1607,-1135,1
5430,1578,-959,1
5452,1524,-804,1
5423,1461,-684,1
5343,1391,-603,1
5211,1319,-560,1
5039,1250,-556,1
4826,1188,-580,1
4590,1133,-628,1
4343,1097,-686,1
4089,1069,-740,1
3838,1043,-787,1
3601,1022,-823,1
3392,991,-855,1
3225,953,-876,1
3103,912,-885,1
3024,872,-876,1
2983,833,-852,1
2978,796,-814,1
3000,751,-772,1
3053,696,-726,1
3125,632,-673,1
3212,572,-623,1
3303,514,-570,1
3392,464,-516,1
3475,414,-464,1
3562,362,-420,1
3635,329,-389,1
3701,307,-371,1
3759,289,-367,1
3810,278,-369,1
3851,268,-383,1
3885,266,-408,1
3917,261,-434,1
3946,255,-455,1
3961,256,-476,1
3980,257,-490,1
3991,252,-500,1
3998,248,-504,1
4004,252,-501,1
4005,246,-488,1
4005,250,-469,1
3998,261,-437,1
3985,276,-399,1
3971,303,-366,1
3960,334,-334,1
3955,368,-307,1
3950,408,-274,1
3936,458,-234,1
3917,507,-199,1
3898,552,-159,1
3880,581,-120,1
3863,592,-83,1
3848,583,-56,1
3834,559,-38,1
3816,527,-33,1
3800,488,-35,1
3783,448,-56,1
3765,410,-88,1
3746,375,-131,1
3726,343,-180,1
3710,316,-224,1
3698,293,-261,1
3687,274,-291,1
3674,262,-314,1
3672,253,-321,1
3674,243,-320,1
3691,236,-314,1
3715,229,-298,1
3751,227,-276,1
3794,223,-248,1
3849,226,-217,1
3906,232,-185,1
3970,245,-148,1
4027,258,-118,1
4071,274,-103,1
4116,292,-107,1
4159,318,-133,1
4192,338,-181,1
4226,356,-244,1
4250,367,-303,1
4272,364,-355,1
4284,352,-381,1
4296,322,-387,1
4302,287,-369,1
4314,242,-330,1
4318,194,-272,1
4341,151,-200,1
4369,124,-123,1
4414,109,-48,1
4464,114,31,1
4518,137,109,1
4580,174,191,1
4645,214,249,1
4706,255,198,1
4765,325,72,1
4822,407,-97,1
4870,498,-292,1
4905,571,-522,1
4942,613,-786,1
4995,597,-1051,1
5079,511,-1275,1
5189,355,-1457,1
5312,165,-1592,1
5428,-12,-1681,1
5515,-139,-1724,1
5566,-188,-1723,1
5586,-180,-1670,1
5587,-131,-1586,1
5578,-63,-1492,1
5555,20,-1406,1
5516,127,-1332,1
5445,246,-1263,1
5340,389,-1226,1
5185,553,-1211,1
4989,733,-1210,1
4757,916,-1226,1
4498,1090,-1254,1
4240,1243,-1281,1
3971,1372,-1313,1
3888,1682,-1000,1
3940,2099,-526,1
3896,2552,-224,1
3571,2848,-385,1
3017,2970,-835,1
2387,2917,-1352,1
1833,2670,-1776,1
1418,2289,-2012,1
1136,1842,-2052,1
1021,1431,-1928,1
1085,1039,-1698,1
1294,697,-1417,1
1604,457,-1147,1
1958,379,-881,1
2305,466,-627,1
2616,644,-400,1
2871,830,-228,1
3079,1007,-110,1
3240,1125,-58,1
3306,1101,-174,1
3405,1058,-217,1
3512,962,-286,1
3633,840,-387,1
3758,714,-519,1
3889,603,-663,1
4016,517,-795,1
4157,445,-922,1
4314,371,-1040,1
4484,278,-1130,1
4671,153,-1188,1
4887,-18,-1201,1
5129,-218,-1137,1
5393,-453,-1010,1
5674,-697,-868,1
5945,-907,-753,1
6184,-1019,-686,1
6352,-1023,-680,1
6414,-941,-701,1
6359,-809,-721,1
6199,-638,-723,1
5937,-455,-696,1
5602,-265,-648,1
5236,-98,-616,1
4852,52,-629,1
4471,188,-675,1
4101,294,-744,1
3748,373,-819,1
3444,400,-894,1
3196,380,-956,1
3013,323,-989,1
2874,258,-993,1
2783,201,-957,1
2722,197,-894,1
2677,274,-800,1
2657,411,-675,1
2678,578,-525,1
2740,745,-355,1
2836,905,-178,1
2952,1047,3,1
3079,1173,179,1
3216,1288,341,1
3341,1381,461,1
3459,1440,530,1
3568,1447,548,1
3668,1402,516,1
3745,1312,436,1
3802,1195,328,1
3835,1060,197,1
3841,928,56,1
3828,788,-84,1
3797,646,-221,1
3753,523,-354,1
3697,421,-453,1
3645,324,-537,1
3594,236,-618,1
3539,177,-660,1
3489,131,-662,1
3448,99,-644,1
3413,89,-608,1
3377,108,-553,1
3349,153,-477,1
3328,207,-392,1
3320,272,-298,1
3323,352,-204,1
3335,438,-102,1
3359,525,2,1
3389,604,102,1
3430,680,197,1
3471,755,290,1
3517,830,367,1
3562,898,421,1
3616,948,440,1
3670,990,425,1
3728,1018,376,1
3791,1037,302,1
3866,1043,214,1
3955,1034,114,1
4035,1013,30,1
4120,980,-32,1
4204,943,-81,1
4294,898,-92,1
4383,858,-82,1
4467,835,-79,1
4544,830,-76,1
4617,835,-56,1
4671,856,-24,1
4710,893,38,1
4743,933,144,1
4760,973,287,1
4778,1002,448,1
4793,1018,623,1
4822,1018,792,1
4853,996,928,1
4892,946,1036,1
4910,876,1103,1
4917,778,1135,1
4902,669,1128,1
4863,543,1072,1
4800,394,996,1
4714,232,878,1
4603,112,673,1
4491,21,389,1
4383,3,-21,1
4274,67,-484,1
4182,156,-918,1
4104,234,-1326,1
4053,300,-1701,1
4044,358,-1988,1
4073,431,-2154,1
4155,498,-2192,1
4301,573,-2129,1
4542,627,-2024,1
4872,638,-1875,1
5247,644,-1691,1
5622,689,-1491,1
5932,817,-1292,1
6152,1034,-1087,1
6259,1324,-881,1
6243,1641,-713,1
6137,1926,-589,1
5982,2147,-527,1
5814,2289,-521,1
5621,2350,-570,1
5389,2357,-645,1
5113,2327,-737,1
4806,2266,-854,1
4471,2174,-997,1
4109,2052,-1133,1
3710,1896,-1243,1
3292,1703,-1335,1
2875,1478,-1427,1
2473,1250,-1497,1
2096,1044,-1551,1
1753,877,-1578,1
1446,758,-1578,1
1186,668,-1556,1
985,600,-1531,1
855,539,-1517,1
795,480,-1524,1
815,417,-1558,1
889,360,-1600,1
1017,293,-1644,1
1181,219,-1686,1
1372,123,-1711,1
1585,10,-1720,1
1832,-127,-1720,1
2109,-266,-1711,1
2403,-378,-1696,1
2694,-435,-1678,1
2981,-429,-1661,1
3263,-359,-1658,1
3543,-230,-1676,1
3815,-57,-1705,1
4064,157,-1737,1
4300,402,-1762,1
4520,660,-1758,1
4732,908,-1725,1
4930,1146,-1649,1
5118,1355,-1536,1
5300,1532,-1409,1
5458,1684,-1279,1
5589,1817,-1151,1
5684,1922,-1030,1
5745,1988,-915,1
5761,2012,-806,1
5736,1978,-716,1
5664,1882,-642,1
5550,1723,-594,1
5390,1517,-575,1
5184,1293,-595,1
4937,1084,-659,1
4660,901,-755,1
4376,744,-860,1
4090,624,-958,1
3807,535,-1043,1
3548,466,-1109,1
3322,404,-1155,1
3145,354,-1172,1
3007,319,-1156,1
2908,315,-1107,1
2847,326,-1032,1
2812,346,-944,1
2805,381,-841,1
2820,409,-732,1
2861,420,-615,1
2918,419,-508,1
3004,402,-415,1
3104,372,-344,1
3205,340,-298,1
3297,303,-269,1
3386,269,-272,1
3468,244,-288,1
3550,208,-325,1
3620,166,-370,1
3680,120,-421,1
3736,62,-475,1
3786,12,-533,1
3825,-35,-576,1
3855,-74,-607,1
3884,-102,-628,1
3902,-112,-633,1
3919,-116,-630,1
3934,-116,-620,1
3955,-111,-610,1
3982,-94,-596,1
4007,-69,-583,1
4038,-33,-567,1
4069,11,-556,1
4092,58,-537,1
4114,109,-516,1
4139,153,-491,1
4157,189,-462,1
4174,218,-435,1
4184,248,-412,1
4177,279,-397,1
4162,317,-384,1
4142,351,-377,1
4119,383,-371,1
4083,416,-362,1
4043,442,-343,1
3999,452,-328,1
3963,451,-311,1
3928,441,-296,1
3894,423,-291,1
3873,402,-285,1
3856,372,-280,1
3847,332,-273,1
3847,299,-282,1
3853,263,-308,1
3867,228,-354,1
3888,205,-424,1
3916,183,-509,1
3934,162,-593,1
3954,138,-664,1
3974,107,-702,1
3995,60,-699,1
4021,11,-649,1
4060,-51,-549,1
4106,-120,-431,1
4166,-182,-313,1
4240,-219,-206,1
4321,-225,-118,1
4399,-197,-43,1
4480,-140,27,1
4557,-64,86,1
4630,29,139,1
4694,123,190,1
4747,223,226,1
4790,315,246,1
4813,395,257,1
4818,460,257,1
4806,491,251,1
4790,483,215,1
4762,449,102,1
4726,408,-123,1
4680,366,-415,1
4631,330,-737,1
4574,301,-1054,1
4521,273,-1394,1
4480,250,-1743,1
4462,213,-2078,1
4487,167,-2360,1
4569,112,-2566,1
4700,64,-2675,1
4860,34,-2688,1
5035,35,-2607,1
5212,79,-2451,1
5371,166,-2238,1
5501,304,-2018,1
5583,493,-1812,1
5597,721,-1643,1
5554,957,-1530,1
5462,1183,-1467,1
5324,1387,-1458,1
5151,1550,-1506,1
4957,1672,-1579,1
4745,1753,-1658,1
4515,1802,-1713,1
4288,1826,-1713,1
4050,1840,-1643,1
3812,1843,-1506,1
3584,1824,-1324,1
3350,1818,-1102,1
3087,1846,-830,1
2802,1886,-561,1
2529,1866,-382,1
2294,1777,-315,1
2087,1637,-331,1
1918,1459,-397,1
1792,1262,-513,1
1712,1066,-673,1
1672,865,-871,1
1677,690,-1069,1
1721,555,-1244,1
1805,461,-1388,1
1929,400,-1488,1
2087,370,-1531,1
2286,361,-1512,1
2532,367,-1431,1
2839,368,-1289,1
3217,332,-1083,1
3661,269,-823,1
4154,189,-546,1
4671,123,-318,1
5176,85,-192,1
5637,80,-163,1
6034,74,-220,1
6360,61,-335,1
6600,28,-493,1
6741,-27,-661,1
6764,-92,-821,1
6672,-145,-956,1
6475,-165,-1057,1
6199,-137,-1119,1
5861,-78,-1137,1
5484,-10,-1120,1
5099,53,-1082,1
4715,104,-1044,1
4352,134,-1003,1
3999,158,-965,1
3660,195,-914,1
3345,240,-859,1
3067,288,-801,1
2839,342,-745,1
2642,415,-677,1
2485,505,-598,1
2370,610,-514,1
2299,726,-422,1
2266,843,-333,1
2273,952,-239,1
2326,1046,-140,1
2419,1118,-49,1
2536,1176,44,1
2668,1223,125,1
2803,1258,197,1
2933,1278,253,1
3060,1280,290,1
3179,1253,297,1
3290,1199,270,1
3383,1120,210,1
3458,1023,127,1
3515,926,20,1
3558,815,-105,1
3591,700,-247,1
3616,591,-390,1
3638,486,-522,1
3664,386,-643,1
3689,299,-745,1
3718,222,-824,1
3745,169,-868,1
3769,157,-872,1
3787,173,-836,1
3808,207,-764,1
3826,245,-659,1
3848,300,-522,1
3867,371,-373,1
3874,458,-208,1
3880,562,-50,1
3876,673,100,1
3869,778,226,1
3862,865,319,1
3853,932,375,1
3840,974,396,1
3827,980,384,1
3816,962,339,1
3801,928,282,1
3790,876,225,1
3790,814,172,1
3797,747,137,1
3815,678,113,1
3843,616,91,1
3877,565,75,1
3914,524,63,1
3956,501,40,1
3994,489,6,1
4029,495,-44,1
4065,504,-100,1
4101,508,-150,1
4141,508,-173,1
4192,501,-160,1
4250,489,-94,1
4315,462,12,1
4389,424,167,1
4478,387,351,1
4567,353,564,1
4668,315,771,1
4770,260,957,1
4859,211,1094,1
4948,125,1188,1
5024,35,1227,1
5080,-60,1204,1
5105,-138,1121,1
5104,-212,998,1
5069,-279,805,1
5011,-316,515,1
4928,-290,111,1
4826,-171,-374,1
4700,-11,-817,1
4575,131,-1226,1
4468,238,-1618,1
4412,324,-1956,1
4410,430,-2198,1
4486,566,-2333,1
4664,727,-2342,1
4930,895,-2232,1
5259,1084,-2024,1
5617,1298,-1719,1
5951,1528,-1381,1
6232,1778,-1043,1
6437,2014,-774,1
6550,2204,-618,1
6572,2311,-552,1
6505,2336,-527,1
6358,2296,-526,1
6127,2222,-563,1
5827,2110,-658,1
5498,1984,-812,1
5156,1854,-1012,1
4806,1722,-1219,1
4465,1584,-1382,1
4104,1473,-1455,1
3594,1466,-1360,1
3034,1395,-1244,1
2471,1180,-1226,1
1918,888,-1256,1
1402,595,-1265,1
932,344,-1229,1
545,143,-1192,1
236,11,-1153,1
-19,-8,-1126,1
-201,76,-1140,1
-295,240,-1200,1
-274,423,-1306,1
-126,558,-1442,1
113,641,-1565,1
390,687,-1656,1
698,704,-1707,1
1038,694,-1720,1
1410,647,-1713,1
1818,568,-1704,1
2258,470,-1701,1
2719,373,-1714,1
3207,275,-1724,1
3732,161,-1686,1
4308,45,-1593,1
4902,-42,-1466,1
5486,-90,-1335,1
6031,-69,-1202,1
6510,42,-1083,1
6890,243,-1001,1
7170,505,-957,1
7366,810,-927,1
7468,1126,-921,1
7486,1439,-925,1
7406,1723,-920,1
7228,1963,-895,1
6957,2152,-839,1
6622,2267,-749,1
6236,2310,-629,1
5810,2296,-453,1
5288,2255,-206,1
4732,2097,-72,1
4166,1809,-76,1
3586,1429,-152,1
3033,995,-264,1
2530,570,-405,1
2122,220,-575,1
1811,-46,-767,1
1606,-217,-975,1
1496,-287,-1177,1
1454,-263,-1348,1
1469,-161,-1470,1
1534,-13,-1523,1
1649,155,-1501,1
1799,323,-1424,1
1982,469,-1292,1
2197,582,-1126,1
2431,649,-948,1
2683,675,-774,1
2955,665,-609,1
3225,622,-464,1
3508,539,-328,1
3802,414,-180,1
4093,279,-47,1
4370,152,53,1
4606,72,102,1
4793,40,99,1
4916,72,60,1
4968,156,6,1
4953,272,-50,1
4880,394,-91,1
4759,507,-124,1
4606,596,-153,1
4428,652,-192,1
4257,670,-251,1
4085,646,-325,1
3920,577,-413,1
3773,474,-512,1
3648,346,-610,1
3550,212,-704,1
3477,94,-785,1
3425,2,-832,1
3397,-57,-843,1
3398,-70,-822,1
3424,-40,-777,1
3472,12,-726,1
3543,87,-666,1
3642,168,-598,1
3761,250,-527,1
3893,315,-465,1
4029,364,-409,1
4169,390,-353,1
4312,404,-305,1
4447,400,-256,1
4562,391,-208,1
4654,373,-164,1
4726,354,-139,1
4762,327,-135,1
4785,279,-89,1
4788,219,-129,1
4771,156,-175,1
4742,90,-264,1
4706,9,-357,1
4668,-91,-423,1
4628,-207,-464,1
4591,-315,-467,1
4560,-409,-449,1
4539,-476,-405,1
4531,-514,-349,1
4527,-518,-308,1
4526,-474,-370,1
4533,-383,-523,1
4554,-263,-691,1
4599,-123,-839,1
4644,34,-1000,1
4692,204,-1191,1
4748,365,-1379,1
4814,523,-1544,1
4895,646,-1652,1
4991,730,-1695,1
5087,768,-1700,1
5173,781,-1683,1
5244,780,-1660,1
5298,783,-1643,1
5332,770,-1622,1
5357,785,-1611,1
5372,802,-1586,1
5393,812,-1555,1
5413,821,-1535,1
5430,832,-1534,1
5423,866,-1549,1
5367,932,-1577,1
5262,1040,-1599,1
5093,1183,-1611,1
4873,1357,-1605,1
4601,1534,-1570,1
4308,1699,-1499,1
4000,1839,-1396,1
3701,1934,-1273,1
3396,1997,-1158,1
3092,2044,-1041,1
2804,2066,-916,1
2539,2064,-811,1
2293,2033,-737,1
2067,1977,-679,1
1856,1894,-647,1
1667,1802,-644,1
1514,1702,-678,1
1401,1601,-740,1
1340,1504,-812,1
1338,1407,-887,1
1389,1308,-967,1
1488,1237,-1037,1
1624,1178,-1085,1
1790,1135,-1118,1
1999,1103,-1122,1
2236,1074,-1104,1
2517,1035,-1045,1
2876,938,-922,1
3292,794,-739,1
3753,629,-526,1
4239,487,-316,1
4710,394,-160,1
5146,365,-80,1
5529,389,-76,1
5852,434,-118,1
6110,476,-197,1
6292,470,-276,1
6409,390,-357,1
6461,251,-479,1
6428,78,-634,1
6306,-91,-802,1
6117,-231,-968,1
5878,-324,-1105,1
5610,-381,-1203,1
5314,-403,-1256,1
5013,-383,-1271,1
4706,-333,-1242,1
4404,-252,-1189,1
4112,-149,-1116,1
3829,-24,-1022,1
3570,121,-910,1
3330,291,-795,1
3117,465,-674,1
2931,635,-553,1
2793,787,-430,1
2690,920,-313,1
2623,1033,-201,1
2586,1122,-102,1
2584,1177,-22,1
2609,1202,42,1
2660,1196,94,1
2716,1171,131,1
2782,1134,161,1
2850,1094,190,1
2911,1047,207,1
2969,990,209,1
3032,936,196,1
3095,876,149,1
3158,818,81,1
3216,766,11,1
3276,715,-77,1
3326,666,-169,1
3366,624,-265,1
3416,581,-344,1
3460,540,-417,1
3512,495,-479,1
3565,453,-513,1
3621,409,-532,1
3682,377,-524,1
3730,364,-485,1
3779,365,-427,1
3826,380,-353,1
3862,412,-272,1
3891,460,-188,1
3909,521,-106,1
3909,592,-39,1
3900,673,19,1
3880,757,72,1
3853,837,109,1
3831,898,131,1
3809,944,146,1
3794,968,152,1
3783,980,138,1
3783,984,112,1
3796,979,68,1
3824,958,22,1
3856,932,-44,1
3881,915,-144,1
3897,921,-280,1
3900,956,-437,1
3888,1014,-590,1
3876,1089,-701,1
3880,1165,-731,1
3920,1207,-655,1
4008,1223,-454,1
4144,1213,-154,1
4339,1191,216,1
4581,1158,625,1
4858,1128,1016,1
5140,1103,1346,1
5418,1067,1577,1
5665,1018,1687,1
5860,945,1680,1
5985,848,1582,1
6039,742,1417,1
6034,612,1206,1
5972,448,987,1
5845,257,769,1
5666,21,552,1
5444,-268,307,1
5191,-573,32,1
4925,-866,-329,1
4642,-1076,-772,1
4343,-1184,-1212,1
4024,-1215,-1573,1
3714,-1212,-1883,1
3458,-1173,-2160,1
3291,-1080,-2371,1
3216,-876,-2490,1
3233,-522,-2516,1
3341,-69,-2457,1
3566,393,-2325,1
3896,794,-2135,1
4308,1141,-1910,1
4757,1475,-1645,1
5200,1779,-1368,1
5629,2036,-1097,1
5995,2218,-921,1
6262,2307,-864,1
6422,2321,-875,1
6461,2304,-923,1
6375,2284,-1015,1
6182,2283,-1157,1
5905,2289,-1339,1
5586,2299,-1533,1
5236,2295,-1696,1
4884,2270,-1789,1
4535,2215,-1814,1
4199,2134,-1760,1
3801,2095,-1598,1
3244,2168,-1233,1
2600,2142,-922,1
1956,1960,-802,1
1364,1720,-813,1
832,1469,-844,1
384,1200,-851,1
47,917,-892,1
-157,642,-998,1
-257,433,-1127,1
-253,325,-1282,1
-141,290,-1477,1
55,286,-1684,1
327,273,-1863,1
631,276,-1964,1
968,274,-2008,1
1346,257,-2011,1
1759,224,-1967,1
2204,174,-1887,1
2683,108,-1783,1
3214,31,-1650,1
3772,-35,-1503,1
4353,-64,-1372,1
4919,-42,-1282,1
5448,24,-1238,1
5935,136,-1207,1
6361,297,-1194,1
6708,482,-1171,1
6963,686,-1127,1
7129,892,-1050,1
7213,1090,-982,1
7213,1278,-932,1
7118,1456,-907,1
6926,1632,-879,1
6643,1787,-821,1
6265,1934,-692,1
5816,2044,-512,1
5336,2055,-354,1
4848,1953,-262,1
4367,1748,-235,1
3902,1460,-275,1
3455,1143,-362,1
3047,835,-488,1
2695,564,-629,1
2409,350,-774,1
2197,199,-913,1
2059,115,-1037,1
1989,87,-1133,1
1973,107,-1187,1
2005,156,-1197,1
2081,222,-1155,1
2201,280,-1068,1
2358,328,-950,1
2550,357,-815,1
2768,366,-668,1
3009,346,-519,1
3265,303,-373,1
3515,243,-249,1
3763,180,-161,1
3977,108,-105,1
4166,48,-94,1
4319,-1,-115,1
4432,-29,-162,1
4501,-42,-223,1
4522,-32,-284,1
4500,-17,-339,1
4439,15,-382,1
4350,58,-410,1
4246,102,-427,1
4141,137,-440,1
4027,164,-456,1
3922,176,-475,1
3824,166,-503,1
3747,145,-526,1
3689,118,-542,1
3650,85,-550,1
3634,58,-550,1
3630,45,-540,1
3650,45,-516,1
3683,55,-486,1
3725,72,-455,1
3778,112,-416,1
3837,149,-387,1
3903,187,-366,1
3965,229,-345,1
4026,273,-334,1
4076,320,-328,1
4126,363,-320,1
4168,402,-307,1
4200,443,-288,1
4220,480,-267,1
4234,512,-231,1
4241,538,-192,1
4242,556,-153,1
4235,568,-119,1
4227,571,-91,1
4221,570,-82,1
4210,573,-90,1
4208,574,-44,1
4216,563,-47,1
4225,557,-71,1
4234,572,-125,1
4251,587,-195,1
4278,597,-249,1
4303,601,-289,1
4325,592,-327,1
4346,579,-354,1
4367,563,-397,1
4390,548,-456,1
4412,530,-531,1
4444,510,-624,1
4474,483,-735,1
4515,446,-854,1
4565,400,-984,1
4635,345,-1130,1
4720,290,-1263,1
4812,235,-1389,1
4902,181,-1490,1
4985,137,-1578,1
5062,106,-1668,1
5133,87,-1788,1
5194,79,-1940,1
5240,82,-2133,1
5269,77,-2337,1
5288,55,-2554,1
5304,12,-2751,1
5305,-49,-2924,1
5293,-118,-3038,1
5261,-177,-3075,1
5204,-216,-3010,1
5125,-205,-2850,1
5064,-102,-2538,1
5000,60,-2171,1
4901,269,-1817,1
4743,484,-1513,1
4510,676,-1287,1
4212,832,-1114,1
3875,954,-962,1
3524,1049,-794,1
3189,1140,-577,1
2856,1231,-303,1
2533,1241,-100,1
2286,1151,-28,1
2088,1025,-45,1
1914,924,-100,1
1760,889,-178,1
1638,904,-297,1
1559,946,-470,1
1527,984,-678,1
1542,1000,-905,1
1607,970,-1133,1
1735,896,-1358,1
1905,779,-1555,1
2127,607,-1720,1
2400,398,-1852,1
2716,147,-1939,1
3097,-149,-1949,1
3572,-531,-1829,1
4119,-961,-1606,1
4698,-1373,-1321,1
5239,-1674,-1068,1
5702,-1840,-895,1
6063,-1865,-821,1
6306,-1753,-855,1
6425,-1530,-984,1
6432,-1232,-1160,1
6334,-902,-1322,1
6168,-585,-1447,1
5949,-305,-1512,1
5691,-56,-1533,1
5423,114,-1499,1
5149,226,-1448,1
4876,271,-1393,1
4603,249,-1345,1
4350,178,-1320,1
4105,85,-1313,1
3868,-8,-1326,1
3638,-66,-1350,1
3422,-89,-1381,1
3230,-77,-1410,1
3063,-25,-1432,1
2927,73,-1438,1
2824,221,-1425,1
2756,405,-1388,1
2716,610,-1322,1
2714,812,-1226,1
2744,996,-1106,1
2797,1155,-978,1
2878,1271,-849,1
2992,1340,-734,1
3138,1341,-631,1
3304,1273,-542,1
3483,1147,-470,1
3666,972,-413,1
3837,775,-377,1
3989,563,-369,1
4127,349,-391,1
4240,153,-441,1
4329,-16,-530,1
4394,-152,-649,1
4424,-256,-773,1
4433,-324,-914,1
4425,-358,-1052,1
4399,-355,-1172,1
4354,-319,-1273,1
4295,-267,-1343,1
4235,-207,-1393,1
4172,-145,-1409,1
4114,-82,-1385,1
4059,-24,-1319,1
3999,29,-1232,1
3942,65,-1126,1
3879,90,-1008,1
3812,100,-887,1
3742,93,-771,1
3665,81,-673,1
3587,64,-608,1
3510,48,-570,1
3441,34,-576,1
3378,34,-623,1
3318,53,-703,1
3270,76,-795,1
3239,114,-904,1
3231,148,-1006,1
3245,189,-1106,1
3276,268,-1204,1
3327,386,-1286,1
3404,525,-1350,1
3506,665,-1399,1
3634,789,-1431,1
3774,909,-1451,1
3925,1009,-1447,1
4068,1094,-1423,1
4215,1157,-1375,1
4352,1196,-1311,1
4480,1201,-1248,1
4591,1174,-1198,1
4690,1129,-1168,1
4770,1070,-1172,1
4828,1003,-1217,1
4862,936,-1298,1
4863,877,-1404,1
4835,833,-1523,1
4777,795,-1640,1
4703,767,-1749,1
4607,744,-1840,1
4498,727,-1919,1
4378,725,-1979,1
4254,734,-2027,1
4141,754,-2071,1
4023,787,-2099,1
3905,825,-2103,1
3795,862,-2085,1
3688,895,-2044,1
3593,919,-1975,1
3502,931,-1889,1
3422,921,-1795,1
3357,898,-1706,1
3307,858,-1637,1
3272,815,-1587,1
3252,761,-1567,1
3241,722,-1579,1
3245,697,-1624,1
3269,674,-1688,1
3321,654,-1755,1
3402,621,-1825,1
3508,566,-1893,1
3628,484,-1945,1
3739,385,-1980,1
3831,282,-1983,1
3898,178,-1955,1
3937,78,-1902,1
3960,-29,-1825,1
3962,-135,-1730,1
3942,-230,-1641,1
3901,-314,-1562,1
3841,-392,-1502,1
3762,-465,-1459,1
3677,-541,-1435,1
3587,-617,-1426,1
3493,-698,-1437,1
3400,-781,-1475,1
3311,-857,-1540,1
3231,-918,-1630,1
3164,-955,-1729,1
3105,-967,-1829,1
3062,-949,-1915,1
3037,-898,-1978,1
3030,-820,-2011,1
3048,-715,-2013,1
3096,-595,-2001,1
3169,-467,-1965,1
3274,-336,-1911,1
3406,-205,-1845,1
3562,-81,-1762,1
3744,40,-1658,1
3931,155,-1546,1
4123,264,-1426,1
4322,369,-1308,1
4513,467,-1194,1
4690,548,-1087,1
4839,616,-991,1
4959,664,-911,1
5045,695,-843,1
5087,694,-789,1
5078,671,-760,1
5018,631,-755,1
4920,565,-775,1
4795,474,-818,1
4650,365,-881,1
4482,252,-964,1
4301,135,-1057,1
4123,32,-1165,1
3941,-65,-1272,1
3761,-163,-1378,1
3596,-258,-1476,1
3444,-349,-1567,1
3320,-426,-1647,1
3216,-477,-1710,1
3135,-501,-1762,1
3084,-502,-1809,1
3065,-463,-1854,1
3073,-396,-1882,1
3119,-329,-1891,1
3196,-255,-1876,1
3290,-184,-1838,1
3407,-117,-1780,1
3541,-56,-1700,1
3677,5,-1608,1
3814,71,-1507,1
3945,141,-1414,1
4056,217,-1327,1
4156,294,-1246,1
4240,376,-1176,1
4312,452,-1119,1
4364,518,-1072,1
4395,572,-1040,1
4405,611,-1022,1
4395,628,-1018,1
4366,625,-1041,1
4322,603,-1075,1
4263,572,-1120,1
4189,525,-1167,1
4121,476,-1213,1
4043,416,-1253,1
3962,349,-1287,1
3888,269,-1324,1
3819,188,-1342,1
3753,116,-1354,1
3693,56,-1367,1
3640,7,-1373,1
3603,-45,-1382,1
3570,-73,-1369,1
3542,-84,-1355,1
3529,-89,-1344,1
3526,-84,-1335,1
3535,-69,-1318,1
3552,-51,-1303,1
3575,-27,-1278,1
3602,-9,-1256,1
3636,-4,-1238,1
3675,0,-1217,1
3718,0,-1204,1
3756,0,-1191,1
3788,1,-1178,1
3825,1,-1171,1
3862,3,-1164,1
3900,-1,-1163,1
3926,0,-1156,1
3948,5,-1144,1
3961,25,-1130,1
3970,44,-1104,1
3969,78,-1061,1
3962,114,-1023,1
3949,153,-985,1
3931,193,-946,1
3914,210,-922,1
3891,218,-909,1
3844,243,-913,1
3785,273,-915,1
3731,283,-925,1
3682,274,-954,1
3635,248,-991,1
3582,215,-1032,1
3523,183,-1070,1
3471,149,-1098,1
3426,112,-1131,1
3377,84,-1164,1
3341,54,-1186,1
3312,33,-1199,1
3291,16,-1208,1
3264,17,-1219,1
3241,24,-1221,1
3214,38,-1226,1
3187,60,-1212,1
3161,78,-1188,1
3127,100,-1131,1
3089,119,-1025,1
3048,134,-883,1
3010,138,-749,1
2967,129,-659,1
2931,117,-640,1
2902,107,-719,1
2869,126,-921,1
2844,158,-1204,1
2834,189,-1537,1
2848,204,-1886,1
2885,200,-2240,1
2935,184,-2562,1
2995,165,-2831,1
3065,146,-3013,1
3136,144,-3064,1
3214,154,-2967,1
3297,172,-2710,1
3397,187,-2275,1
3522,193,-1697,1
3665,206,-1046,1
3815,226,-424,1
3964,283,79,1
4092,413,390,1
4184,595,477,1
4235,798,377,1
4258,993,144,1
4270,1152,-157,1
4290,1252,-479,1
4339,1280,-771,1
4427,1233,-1011,1
4567,1116,-1185,1
4763,944,-1278,1
5013,729,-1291,1
5311,502,-1256,1
5629,308,-1213,1
5943,158,-1185,1
6239,71,-1191,1
6509,30,-1213,1
6729,26,-1235,1
6919,56,-1246,1
7068,74,-1213,1
7160,51,-1157,1
7193,7,-1082,1
7172,-48,-1002,1
7100,-88,-930,1
6973,-83,-876,1
6807,-43,-839,1
6614,16,-820,1
6421,80,-813,1
6227,157,-827,1
6028,245,-845,1
5840,342,-868,1
5661,449,-895,1
5499,567,-920,1
5357,706,-944,1
5245,854,-956,1
5166,997,-947,1
5113,1130,-925,1
5073,1259,-894,1
5029,1392,-844,1
4966,1528,-780,1
4896,1657,-703,1
4809,1751,-624,1
4716,1784,-537,1
4608,1765,-452,1
4486,1701,-376,1
4353,1585,-300,1
4215,1432,-222,1
4049,1259,-153,1
3874,1061,-79,1
3678,856,-19,1
3473,634,31,1
3265,413,50,1
3055,193,29,1
2834,-16,-32,1
2601,-193,-144,1
2364,-338,-295,1
2133,-453,-471,1
1911,-538,-659,1
1698,-587,-828,1
1484,-591,-956,1
1279,-572,-1040,1
1048,-490,-1072,1
846,-386,-1033,1
688,-267,-925,1
574,-144,-764,1
501,-20,-605,1
478,91,-484,1
429,232,-410,1
331,384,-384,1
224,514,-433,1
144,593,-581,1
75,653,-832,1
40,683,-1149,1
12,723,-1500,1
-35,772,-1814,1
-110,833,-2016,1
-229,925,-2067,1
-377,1055,-1964,1
-513,1217,-1758,1
-597,1399,-1529,1
-589,1581,-1373,1
-462,1772,-1345,1
-219,1951,-1447,1
111,2111,-1622,1
510,2251,-1809,1
945,2381,-1960,1
1399,2509,-2043,1
1871,2629,-2019,1
2419,2762,-1932,1
3046,2923,-1793,1
3695,3123,-1673,1
4378,3351,-1628,1
5119,3556,-1574,1
5849,3643,-1566,1
6484,3556,-1729,1
7012,3291,-2061,1
7439,2800,-2519,1
7768,2079,-3010,1
7984,1234,-3463,1
8108,391,-3814,1
8118,-319,-4049,1
7922,-792,-4136,1
7529,-997,-4045,1
7003,-1033,-3769,1
6358,-915,-3332,1
5653,-729,-2797,1
4894,-534,-2189,1
3729,-223,-1369,1
2504,-77,-640,1
1523,-53,-139,1
745,-168,177,1
155,-415,440,1
-278,-733,654,1
-550,-1071,721,1
-697,-1375,677,1
-737,-1587,559,1
-680,-1603,350,1
-552,-1428,110,1
-361,-1169,-96,1
-124,-868,-254,1
171,-526,-375,1
507,-145,-460,1
894,274,-465,1
1346,735,-301,1
1825,1176,-45,1
2314,1547,227,1
2766,1857,512,1
3174,2178,774,1
3445,2411,821,1
3576,2579,792,1
3620,2663,793,1
3594,2636,803,1
3439,2516,655,1
3162,2299,286,1
2866,2035,-269,1
2625,1822,-904,1
2477,1686,-1477,1
2400,1632,-1903,1
2363,1654,-2168,1
2396,1708,-2294,1
2518,1726,-2333,1
2736,1663,-2322,1
3050,1538,-2233,1
3448,1375,-1990,1
3877,1214,-1575,1
4285,1101,-998,1
4648,1035,-353,1
4944,1019,242,1
5127,1116,624,1
5137,1359,711,1
5016,1624,533,1
4795,1881,220,1
4547,2116,-158,1
4350,2292,-550,1
4242,2380,-935,1
4224,2374,-1347,1
4271,2313,-1760,1
4367,2227,-2099,1
4502,2133,-2304,1
4656,2035,-2327,1
4815,1946,-2204,1
4927,1895,-2032,1
5007,1899,-1872,1
5077,1945,-1708,1
5132,2009,-1515,1
5158,2062,-1286,1
5158,2040,-1092,1
5093,1940,-984,1
4922,1865,-938,1
4697,1826,-902,1
4496,1752,-847,1
4322,1632,-743,1
4200,1475,-634,1
4114,1296,-603,1
4075,1127,-658,1
4099,952,-796,1
4189,837,-958,1
4320,803,-1090,1
4498,811,-1182,1
4742,850,-1233,1
5017,934,-1211,1
5306,1035,-1114,1
5617,1158,-955,1
5886,1298,-750,1
6097,1433,-508,1
6213,1549,-258,1
6213,1663,-47,1
6084,1795,76,1
5868,1940,87,1
5619,2065,23,1
5441,2113,-70,1
5378,2022,-254,1
5358,1858,-450,1
5402,1615,-682,1
5692,1206,-1284,1
5773,999,-2590,1
5750,1000,-4061,1
5742,1121,-5204,1
5721,1265,-5760,1
5682,1555,-5520,1
5864,1951,-4533,1
6381,2261,-3193,1
7010,2318,-2236,1
7516,2065,-1912,1
7890,1363,-1983,1
8139,188,-2292,1
8079,-1118,-2502,1
7560,-1915,-2500,1
6715,-1896,-2226,1
5810,-1322,-1707,1
5070,-626,-1048,1
4532,1,-405,1
4082,515,70,1
3683,906,313,1
3352,1130,323,1
3124,1218,203,1
2978,1168,3,1
2882,1037,-204,1
2831,861,-400,1
2830,676,-579,1
2813,502,-749,1
2817,288,-939,1
2802,170,-1090,1
2784,156,-1194,1
2764,194,-1266,1
2751,293,-1335,1
2762,327,-1400,1
2783,323,-1427,1
2787,303,-1396,1
2778,251,-1310,1
2778,125,-1187,1
2871,-56,-1040,1
3043,-201,-858,1
3287,-265,-635,1
3550,-241,-383,1
3770,-134,-130,1
3904,1,95,1
3970,145,261,1
3975,242,363,1
3924,350,410,1
3841,438,384,1
3752,539,315,1
3635,677,217,1
3557,823,71,1
3430,1019,-51,1
3334,1166,-196,1
3274,1263,-319,1
3176,1283,-496,1
3099,1270,-700,1
3140,1299,-805,1
3377,1333,-789,1
3775,1359,-699,1
4248,1356,-665,1
4646,1377,-623,1
4861,1545,-505,1
4746,1933,-216,1
4274,2379,173,1
3561,2726,557,1
2831,2968,884,1
2210,3115,1096,1
1852,3241,1293,1
1674,3433,1476,1
1633,3653,1635,1
1665,3910,1767,1
1795,4222,1909,1
2254,4577,2007,1
3142,5152,2049,1
4430,6076,2162,1
6016,7227,2445,1
7580,8704,2896,1
8742,10357,3479,1
9118,11856,4079,1
8665,12882,4507,1
7517,13612,4807,1
5928,13932,4972,1
4119,13351,4995,1
2303,11710,4627,1
575,9318,3704,1
-857,6579,2564,1
-1957,3916,1296,1
-2733,1686,96,1
-3213,124,-763,1
-3440,-829,-1313,1
-3376,-1437,-1662,1
-2945,-1933,-1849,1
-2072,-2386,-1767,1
-887,-2745,-1450,1
409,-2967,-1027,1
1702,-2955,-601,1
2908,-2663,-188,1
3995,-2115,237,1
4886,-1325,755,1
5383,-425,1301,1
5405,409,1755,1
5026,1159,2093,1
4410,1745,2297,1
3673,2171,2330,1
2930,2490,2244,1
2238,2786,2124,1
1628,3152,2037,1
1123,3556,1984,1
723,4006,1945,1
436,4499,1892,1
260,5032,1814,1
192,5545,1642,1
224,6039,1443,1
352,6496,1284,1
587,6905,1224,1
876,7260,1260,1
1170,7504,1359,1
1453,7591,1478,1
1708,7494,1597,1
1910,7271,1701,1
2059,6962,1757,1
2165,6582,1772,1
2215,6134,1727,1
2196,5653,1617,1
2107,5136,1443,1
1965,4607,1234,1
1797,4065,992,1
1626,3520,762,1
1481,2980,562,1
1357,2478,427,1
1263,2034,364,1
1215,1645,409,1
1216,1352,569,1
1271,1134,786,1
1306,1065,951,1
1267,1198,965,1
1222,1419,857,1
1194,1702,759,1
1159,2050,739,1
1151,2379,748,1
1188,2638,791,1
1270,2806,873,1
1376,2919,983,1
1475,3020,1114,1
1553,3128,1247,1
1608,3242,1369,1
1624,3364,1467,1
1596,3500,1551,1
1534,3621,1621,1
1454,3727,1683,1
1359,3797,1737,1
1281,3808,1772,1
1196,3811,1762,1
1116,3809,1718,1
1059,3816,1641,1
1031,3833,1534,1
1030,3851,1388,1
1052,3863,1208,1
1103,3844,1008,1
1188,3796,806,1
1283,3706,623,1
1387,3583,470,1
1492,3435,342,1
1594,3270,253,1
1685,3102,217,1
1765,2947,231,1
1829,2826,303,1
1875,2746,420,1
1906,2725,570,1
1929,2749,742,1
1954,2825,917,1
1986,2935,1071,1
2013,3057,1215,1
2050,3168,1321,1
2090,3267,1378,1
2126,3342,1352,1
2160,3372,1230,1
2190,3350,1006,1
2199,3329,728,1
2202,3291,419,1
2215,3224,132,1
2226,3151,-133,1
2234,3089,-343,1
2215,3049,-509,1
2177,3031,-627,1
2123,3063,-703,1
2030,3154,-770,1
1920,3270,-791,1
1794,3415,-759,1
1654,3562,-687,1
1508,3709,-569,1
1369,3878,-376,1
1255,4063,-123,1
1166,4240,167,1
1107,4386,484,1
1073,4483,781,1
1067,4516,985,1
1084,4515,1060,1
1113,4478,1004,1
1135,4439,850,1
1140,4410,649,1
1142,4353,416,1
1148,4276,177,1
1150,4192,-70,1
1150,4099,-317,1
1125,4035,-534,1
1070,3997,-705,1
987,3990,-828,1
877,4016,-897,1
748,4043,-896,1
601,4060,-826,1
438,4076,-686,1
269,4081,-487,1
99,4085,-249,1
-69,4098,-22,1
-233,4120,177,1
-384,4156,346,1
-516,4187,488,1
-627,4202,598,1
-714,4213,685,1
-779,4198,743,1
-834,4176,767,1
-881,4152,763,1
-931,4130,738,1
-989,4100,715,1
-1037,4033,707,1
-1075,3933,706,1
-1092,3804,709,1
-1078,3649,704,1
-1039,3496,687,1
-970,3344,663,1
-857,3196,613,1
-727,3066,541,1
-612,2983,445,1
-505,2928,331,1
-422,2906,216,1
-372,2930,109,1
-374,2993,9,1
-426,3075,-76,1
-519,3183,-133,1
-647,3293,-153,1
-803,3401,-135,1
-972,3509,-80,1
-1145,3615,-11,1
-1306,3715,57,1
-1451,3809,130,1
-1574,3902,213,1
-1658,3974,311,1
-1717,4025,409,1
-1754,4050,492,1
-1758,4041,542,1
-1746,3993,561,1
-1739,3923,558,1
-1732,3855,543,1
-1733,3790,528,1
-1751,3754,512,1
-1776,3735,509,1
-1804,3741,511,1
-1827,3765,518,1
-1837,3798,533,1
-1838,3819,544,1
-1829,3838,554,1
-1811,3851,555,1
-1785,3861,554,1
-1758,3863,552,1
-1732,3852,537,1
-1707,3840,502,1
-1675,3813,445,1
-1648,3781,373,1
-1624,3748,280,1
-1607,3712,189,1
-1602,3671,128,1
-1599,3632,90,1
-1599,3599,77,1
-1597,3579,68,1
-1596,3573,65,1
-1592,3583,46,1
-1593,3602,26,1
-1594,3615,-2,1
-1597,3619,-36,1
-1604,3607,-69,1
-1617,3587,-96,1
-1639,3571,-91,1
-1657,3548,-64,1
-1665,3532,-37,1
-1680,3528,-9,1
-1696,3536,5,1
-1718,3563,19,1
-1744,3600,18,1
-1768,3648,4,1
-1788,3705,-24,1
-1797,3765,-45,1
-1794,3825,-52,1
-1775,3885,-34,1
-1746,3927,9,1
-1709,3944,86,1
-1658,3941,194,1
-1612,3918,307,1
-1570,3889,420,1
-1536,3852,499,1
-1520,3823,537,1
-1523,3796,502,1
-1540,3771,410,1
-1571,3734,260,1
-1601,3689,79,1
-1644,3625,-136,1
-1700,3558,-366,1
-1755,3489,-582,1
-1817,3430,-769,1
-1862,3370,-911,1
-1888,3303,-1002,1
-1890,3239,-1043,1
-1863,3182,-1037,1
-1816,3138,-988,1
-1753,3110,-923,1
-1677,3106,-857,1
-1597,3124,-780,1
-1514,3149,-707,1
-1427,3184,-646,1
-1339,3217,-595,1
-1255,3251,-549,1
-1172,3286,-520,1
-1103,3326,-513,1
-1046,3376,-536,1
-1019,3444,-597,1
-1009,3518,-689,1
-1025,3587,-796,1
-1061,3659,-926,1
-1107,3737,-1067,1
-1163,3806,-1212,1
-1221,3860,-1338,1
-1273,3909,-1439,1
-1328,3954,-1512,1
-1385,3999,-1556,1
-1441,4045,-1571,1
-1491,4088,-1570,1
-1535,4130,-1549,1
-1561,4166,-1514,1
-1569,4189,-1467,1
-1554,4204,-1402,1
-1508,4180,-1320,1
-1446,4141,-1225,1
-1369,4080,-1137,1
-1292,3997,-1032,1
-1221,3892,-957,1
-1157,3770,-947,1
-1108,3640,-991,1
-1077,3514,-1083,1
-1051,3388,-1225,1
-1033,3274,-1403,1
-1025,3162,-1592,1
-1030,3070,-1771,1
-1044,2990,-1942,1
-1073,2950,-2109,1
-1109,2960,-2268,1
-1153,3040,-2426,1
-1204,3180,-2591,1
-1275,3385,-2749,1
-1370,3644,-2872,1
-1459,3900,-2957,1
-1522,4132,-2996,1
-1565,4327,-2972,1
-1583,4480,-2916,1
-1576,4587,-2842,1
-1553,4656,-2742,1
-1510,4699,-2626,1
-1455,4707,-2512,1
-1387,4673,-2428,1
-1292,4597,-2408,1
-1183,4475,-2426,1
-1068,4329,-2460,1
-964,4198,-2500,1
-878,4061,-2538,1
-802,3920,-2554,1
-755,3785,-2547,1
-715,3651,-2525,1
-695,3539,-2489,1
-687,3445,-2461,1
-694,3365,-2442,1
-723,3305,-2439,1
-776,3265,-2450,1
-882,3273,-2452,1
-1027,3312,-2465,1
-1178,3354,-2491,1
-1325,3378,-2545,1
-1460,3386,-2622,1
-1568,3374,-2716,1
-1645,3346,-2831,1
-1699,3316,-2960,1
-1737,3298,-3085,1
-1840,3210,-3374,1
-2287,3476,-2866,1
-1937,3751,-3009,1
-1916,3807,-3243,1
-1721,3946,-3517,1
-1539,3894,-3560,1
-1422,3710,-3444,1
-1317,3524,-3271,1
-1243,3371,-3050,1
-1203,3276,-2812,1
-1189,3221,-2568,1
-1186,3183,-2330,1
-1156,3190,-2136,1
-1110,3224,-1976,1
-1063,3262,-1840,1
-1015,3291,-1744,1
-969,3285,-1682,1
-902,3286,-1688,1
-859,3346,-1727,1
-858,3408,-1778,1
-872,3449,-1846,1
-907,3467,-1928,1
-979,3411,-1996,1
-1024,3355,-2114,1
-1078,3350,-2205,1
-1133,3337,-2263,1
-1173,3306,-2296,1
-1200,3259,-2318,1
-1227,3193,-2331,1
-1209,3117,-2341,1
-1200,3037,-2324,1
-1165,3077,-2330,1
-1143,3213,-2324,1
-1124,3365,-2306,1
-1030,3434,-2258,1
-966,3475,-2249,1
-937,3461,-2249,1
-907,3503,-2311,1
-865,3587,-2359,1
-841,3659,-2371,1
-828,3689,-2371,1
-832,3664,-2367,1
-850,3607,-2374,1
-875,3529,-2378,1
-899,3452,-2377,1
-919,3390,-2367,1
-938,3341,-2337,1
-946,3317,-2294,1
-952,3304,-2239,1
-950,3316,-2186,1
-950,3340,-2137,1
-945,3358,-2093,1
-944,3376,-2058,1
-943,3386,-2039,1
-944,3393,-2020,1
-943,3394,-2015,1
-948,3396,-2001,1
-952,3402,-1991,1
-947,3412,-1986,1
-944,3420,-1981,1
-944,3426,-1977,1
-947,3437,-1978,1
-943,3435,-1978,1
-942,3435,-1980,1
-948,3431,-1981,1
-945,3418,-1979,1
-948,3419,-1962,1
-947,3426,-1945,1
-943,3428,-1936,1
-939,3435,-1911,1
-939,3442,-1886,1
-939,3442,-1862,1
-942,3439,-1847,1
-945,3430,-1841,1
-941,3427,-1821,1
-942,3426,-1813,1
-935,3432,-1824,1
-926,3437,-1830,1
-917,3440,-1842,1
-909,3453,-1849,1
-897,3475,-1864,1
-884,3496,-1887,1
-872,3510,-1914,1
-858,3529,-1947,1
-855,3539,-1986,1
-853,3518,-2055,1
-871,3407,-2070,1
-880,3402,-2105,1
-844,3447,-2120,1
-820,3542,-2124,1
-794,3620,-2136,1
-773,3669,-2135,1
-762,3687,-2129,1
-759,3682,-2122,1
-768,3655,-2117,1
-781,3606,-2111,1
-796,3558,-2105,1
-809,3523,-2094,1
-813,3505,-2079,1
-815,3496,-2068,1
-814,3494,-2066,1
-809,3493,-2060,1
-804,3511,-2042,1
-804,3519,-2045,1
-802,3528,-2046,1
-797,3536,-2041,1
-802,3533,-2044,1
-803,3515,-2052,1
-812,3491,-2055,1
-818,3467,-2052,1
-825,3448,-2046,1
-838,3420,-2054,1
-850,3399,-2049,1
-846,3399,-2006,1
-841,3408,-1965,1
-836,3423,-1942,1
-834,3444,-1937,1
-834,3436,-1935,1
-839,3390,-2003,1
-836,3404,-2014,1
-823,3447,-2002,1
-806,3489,-2007,1
-793,3524,-2032,1
-782,3534,-2050,1
-779,3544,-2067,1
-784,3522,-2088,1
-795,3479,-2104,1
-805,3447,-2098,1
-815,3423,-2084,1
-823,3400,-2066,1
-821,3390,-2038,1
-820,3390,-2024,1
-812,3393,-2008,1
-820,3395,-2000,1
-831,3324,-2028,1
-834,3299,-2056,1
-840,3265,-2014,1
-836,3221,-2044,1
-812,3308,-2070,1
-780,3379,-2141,1
-742,3479,-2136,1
-715,3571,-2121,1
-694,3618,-2110,1
-687,3631,-2112,1
-693,3625,-2134,1
-692,3579,-2165,1
-702,3515,-2200,1
-716,3470,-2212,1
-721,3427,-2226,1
-725,3401,-2246,1
-734,3389,-2258,1
-732,3397,-2246,1
-722,3402,-2233,1
-719,3408,-2252,1
-720,3418,-2220,1
-725,3322,-2266,1
-740,3289,-2278,1
-730,3345,-2231,1
-707,3412,-2214,1
-688,3480,-2192,1
-671,3534,-2177,1
-655,3551,-2189,1
-654,3538,-2213,1
-663,3515,-2223,1
-672,3474,-2238,1
-685,3427,-2252,1
-698,3385,-2265,1
-703,3364,-2258,1
-706,3355,-2261,1
-704,3346,-2269,1
-696,3364,-2254,1
-690,3390,-2254,1
-680,3410,-2256,1
-672,3430,-2267,1
-670,3428,-2284,1
-671,3422,-2291,1
-672,3414,-2295,1
-675,3405,-2300,1
-679,3392,-2303,1
-686,3377,-2315,1
-684,3377,-2306,1
-679,3385,-2299,1
-676,3398,-2292,1
-675,3411,-2285,1
-674,3413,-2280,1
-671,3406,-2274,1
-677,3403,-2269,1
-682,3390,-2265,1
-684,3384,-2262,1
-686,3384,-2261,1
-687,3377,-2255,1
-690,3374,-2250,1
-693,3373,-2245,1
-694,3372,-2233,1
-696,3369,-2224,1
-698,3368,-2217,1
-699,3366,-2212,1
-697,3365,-2207,1
-696,3365,-2206,1
-692,3366,-2210,1
-694,3366,-2222,1
-689,3363,-2231,1
-692,3366,-2241,1
-694,3369,-2250,1
-691,3373,-2257,1
-690,3372,-2264,1
-686,3378,-2267,1
-686,3379,-2272,1
-681,3378,-2276,1
-683,3373,-2274,1
-682,3373,-2275,1
-681,3372,-2275,1
-682,3371,-2268,1
-685,3369,-2269,1
-688,3361,-2269,1
-694,3353,-2270,1
-694,3354,-2260,1
-690,3354,-2252,1
-689,3357,-2245,1
-691,3357,-2240,1
-690,3357,-2242,1
-692,3356,-2239,1
-684,3357,-2248,1
-682,3360,-2250,1
-681,3371,-2256,1
-675,3377,-2264,1
-673,3375,-2282,1
-668,3374,-2292,1
-665,3387,-2293,1
-661,3400,-2302,1
-657,3405,-2310,1
-654,3406,-2319,1
-660,3396,-2325,1
-662,3386,-2324,1
-665,3378,-2322,1
-668,3365,-2322,1
-670,3359,-2312,1
-672,3354,-2299,1
-674,3360,-2292,1
-668,3359,-2288,1
-667,3357,-2292,1
-668,3356,-2295,1
-668,3356,-2298,1
-670,3360,-2302,1
-669,3362,-2307,1
-668,3366,-2319,1
-672,3364,-2326,1
-673,3358,-2326,1
-681,3349,-2340,1
-685,3291,-2359,1
-694,3294,-2360,1
-689,3308,-2337,1
-684,3334,-2313,1
-678,3357,-2299,1
-674,3375,-2292,1
-671,3376,-2287,1
-673,3370,-2288,1
-678,3353,-2299,1
-685,3339,-2309,1
-690,3329,-2315,1
-689,3322,-2313,1
-689,3325,-2311,1
-685,3333,-2309,1
-681,3341,-2308,1
-680,3345,-2309,1
-679,3352,-2314,1
-676,3353,-2312,1
-675,3356,-2317,1
-677,3354,-2324,1
-677,3355,-2328,1
-677,3353,-2334,1
-677,3354,-2334,1
-679,3352,-2332,1
-680,3350,-2322,1
-681,3347,-2314,1
-685,3341,-2307,1
-690,3336,-2295,1
-691,3331,-2287,1
-691,3324,-2278,1
-691,3323,-2274,1
-692,3323,-2275,1
-692,3326,-2281,1
-694,3325,-2286,1
-690,3325,-2293,1
-691,3328,-2303,1
-686,3332,-2310,1
-684,3337,-2317,1
-682,3343,-2324,1
-680,3352,-2331,1
-678,3361,-2340,1
-678,3367,-2345,1
-680,3366,-2347,1
-681,3365,-2348,1
-678,3360,-2338,1
-679,3358,-2335,1
-682,3359,-2327,1
-684,3358,-2319,1
-687,3357,-2310,1
-690,3355,-2295,1
-691,3349,-2285,1
-692,3342,-2280,1
-694,3340,-2275,1
-691,3337,-2271,1
-693,3337,-2269,1
-692,3337,-2272,1
-693,3341,-2278,1
-693,3341,-2282,1
-694,3340,-2288,1
-692,3343,-2297,1
-689,3347,-2307,1
-689,3348,-2312,1
-691,3351,-2317,1
-690,3354,-2312,1
-688,3357,-2307,1
-689,3359,-2303,1
-688,3353,-2302,1
-690,3354,-2306,1
-689,3359,-2304,1
-686,3370,-2295,1
-681,3378,-2285,1
-676,3383,-2279,1
-677,3383,-2282,1
-679,3378,-2283,1
-685,3369,-2283,1
-692,3356,-2285,1
-695,3354,-2293,1
-694,3356,-2291,1
-687,3359,-2289,1
-688,3362,-2287,1
-690,3362,-2287,1
-690,3363,-2284,1
-692,3364,-2284,1
-688,3360,-2282,1
-691,3362,-2277,1
-688,3362,-2271,1
-686,3363,-2262,1
-685,3368,-2259,1
-687,3374,-2258,1
-688,3379,-2255,1
-687,3385,-2257,1
-685,3388,-2260,1
-683,3392,-2265,1
-682,3395,-2271,1
-684,3392,-2276,1
-681,3392,-2286,1
-683,3386,-2289,1
-683,3381,-2290,1
-686,3375,-2294,1
-688,3370,-2293,1
-689,3369,-2291,1
-689,3369,-2286,1
-689,3370,-2282,1
-690,3369,-2277,1
-691,3370,-2266,1
-695,3372,-2259,1
-695,3375,-2253,1
-695,3371,-2247,1
-697,3370,-2245,1
-698,3369,-2245,1
-701,3369,-2246,1
-698,3368,-2244,1
-699,3370,-2246,1
-700,3371,-2250,1
-700,3369,-2254,1
-703,3369,-2254,1
-704,3369,-2254,1
-705,3370,-2249,1
-703,3370,-2246,1
-706,3370,-2241,1
-706,3367,-2236,1
-707,3366,-2240,1
-706,3368,-2247,1
-706,3369,-2248,1
-704,3369,-2246,1
-704,3369,-2246,1
-704,3372,-2248,1
-702,3372,-2249,1
-701,3377,-2249,1
-702,3382,-2252,1
-703,3381,-2259,1
-701,3384,-2264,1
-702,3386,-2263,1
-701,3385,-2264,1
-702,3385,-2264,1
-708,3381,-2263,1
-708,3381,-2267,1
-705,3377,-2261,1
-705,3380,-2257,1
-705,3386,-2256,1
-705,3389,-2261,1
-705,3392,-2262,1
-704,3396,-2269,1
-702,3401,-2269,1
-701,3403,-2272,1
-699,3403,-2276,1
-701,3401,-2278,1
-700,3396,-2278,1
-704,3393,-2275,1
-707,3395,-2270,1
-707,3391,-2263,1
-712,3389,-2250,1
-715,3381,-2237,1
-718,3374,-2228,1
-721,3370,-2218,1
-723,3368,-2212,1
-724,3368,-2206,1
-726,3368,-2201,1
-728,3370,-2196,1
-732,3366,-2186,1
-732,3367,-2188,1
-728,3373,-2184,1
-724,3374,-2178,1
-721,3377,-2181,1
-724,3381,-2192,1
-721,3389,-2205,1
-721,3390,-2217,1
-721,3390,-2229,1
-720,3391,-2240,1
-717,3395,-2245,1
-715,3401,-2248,1
-713,3410,-2251,1
-714,3409,-2249,1
-715,3408,-2257,1
-711,3409,-2258,1
-711,3413,-2250,1
-713,3417,-2245,1
-717,3417,-2238,1
-716,3410,-2227,1
-719,3404,-2219,1
-723,3396,-2203,1
-726,3383,-2192,1
-730,3378,-2181,1
-731,3379,-2172,1
-731,3383,-2171,1
-735,3376,-2187,1
-727,3381,-2188,1
-727,3402,-2189,1
-720,3419,-2187,1
-714,3430,-2190,1
-710,3439,-2193,1
-706,3445,-2201,1
-709,3446,-2210,1
-710,3447,-2223,1
-709,3439,-2223,1
-710,3432,-2220,1
-716,3409,-2244,1
-720,3402,-2243,1
-724,3413,-2228,1
-721,3422,-2211,1
-723,3433,-2190,1
-722,3440,-2165,1
-721,3441,-2149,1
-723,3436,-2135,1
-726,3432,-2132,1
-725,3418,-2128,1
-732,3409,-2129,1
-739,3400,-2133,1
-740,3398,-2145,1
-740,3403,-2154,1
-739,3404,-2169,1
-739,3403,-2192,1
-736,3412,-2218,1
-732,3404,-2265,1
-729,3406,-2300,1
-718,3439,-2304,1
-715,3468,-2302,1
-734,3521,-2274,1
-1195,3829,-2409,1
-1503,3938,-2583,1
-1575,3853,-2667,1
-1509,3684,-2684,1
-1382,3547,-2618,1
-1172,3404,-2513,1
-867,3174,-2463,1
-626,3101,-2258,1
-466,3107,-2076,1
-325,3151,-1925,1
-218,3245,-1799,1
-168,3383,-1717,1
-176,3546,-1690,1
-227,3704,-1706,1
-330,3829,-1781,1
-509,3953,-1913,1
-601,3957,-2053,1
-677,3919,-2193,1
-731,3844,-2329,1
-900,3766,-2544,1
-1048,3573,-2804,1
-1090,3300,-2960,1
-1056,3069,-2997,1
-1006,2885,-2961,1
-945,2760,-2925,1
-914,2708,-2800,1
-882,2741,-2632,1
-854,2864,-2410,1
-855,3063,-2148,1
-887,3321,-1854,1
-947,3610,-1584,1
-1018,3875,-1402,1
-1095,4151,-1299,1
-1169,4352,-1260,1
-1222,4440,-1296,1
-1230,4379,-1378,1
-1193,4189,-1478,1
-1132,3916,-1597,1
-1058,3614,-1732,1
-983,3318,-1868,1
-918,3062,-2007,1
-866,2868,-2141,1
-841,2762,-2261,1
-825,2746,-2355,1
-827,2826,-2427,1
-851,2981,-2470,1
-876,3159,-2486,1
-903,3334,-2495,1
-922,3507,-2499,1
-932,3653,-2492,1
-939,3769,-2482,1
-946,3857,-2456,1
-947,3915,-2429,1
-956,3946,-2406,1
-968,3957,-2398,1
-975,3944,-2403,1
-987,3912,-2413,1
-999,3854,-2429,1
-1000,3778,-2447,1
-1003,3691,-2463,1
-994,3605,-2483,1
-986,3516,-2481,1
-970,3433,-2467,1
-944,3362,-2455,1
-909,3313,-2444,1
-877,3298,-2443,1
-851,3314,-2436,1
-821,3346,-2414,1
-801,3390,-2401,1
-771,3442,-2394,1
-751,3497,-2387,1
-731,3549,-2365,1
-709,3602,-2351,1
-695,3663,-2339,1
-689,3723,-2323,1
-686,3776,-2304,1
-685,3816,-2301,1
-674,3843,-2302,1
-656,3859,-2318,1
-627,3851,-2343,1
-602,3841,-2367,1
-599,3838,-2380,1
-618,3847,-2379,1
-651,3863,-2359,1
-679,3891,-2323,1
-707,3922,-2285,1
-726,3963,-2226,1
-735,4005,-2165,1
-732,4052,-2103,1
-727,4107,-2043,1
-717,4156,-1986,1
-720,4220,-1944,1
-719,4286,-1918,1
-711,4334,-1913,1
-699,4369,-1936,1
-689,4390,-2011,1
-676,4394,-2110,1
-666,4385,-2201,1
-659,4371,-2290,1
-647,4360,-2382,1
-633,4362,-2468,1
-628,4368,-2534,1
-647,4396,-2581,1
-684,4455,-2619,1
-723,4523,-2649,1
-763,4597,-2674,1
-799,4666,-2714,1
-825,4722,-2787,1
-818,4731,-2901,1
-801,4738,-3061,1
-790,4771,-3244,1
-807,4828,-3388,1
-819,4887,-3472,1
-828,4939,-3505,1
-826,4955,-3508,1
-817,4948,-3501,1
-809,4906,-3486,1
-796,4836,-3475,1
-796,4749,-3467,1
-797,4648,-3453,1
-811,4537,-3435,1
-819,4410,-3411,1
-845,4273,-3388,1
-883,4137,-3358,1
-914,4007,-3334,1
-940,3861,-3308,1
-963,3714,-3272,1
-977,3571,-3227,1
-981,3441,-3190,1
-967,3321,-3167,1
-942,3225,-3153,1
-902,3159,-3143,1
-854,3135,-3137,1
-802,3159,-3131,1
-741,3230,-3124,1
-683,3334,-3121,1
-629,3456,-3103,1
-591,3593,-3071,1
-558,3732,-3025,1
-527,3857,-2968,1
-490,3946,-2913,1
-468,4031,-2857,1
-453,4081,-2801,1
-439,4089,-2757,1
-420,4048,-2727,1
-386,3948,-2706,1
-343,3800,-2684,1
-302,3606,-2661,1
-254,3382,-2631,1
-207,3137,-2598,1
-146,2882,-2546,1
-64,2645,-2460,1
16,2435,-2358,1
72,2255,-2247,1
114,2101,-2137,1
147,1980,-2029,1
175,1871,-1931,1
196,1792,-1859,1
197,1748,-1808,1
191,1734,-1761,1
173,1735,-1736,1
130,1761,-1727,1
102,1866,-1719,1
100,2005,-1721,1
136,2145,-1688,1
161,2285,-1590,1
163,2406,-1460,1
112,2517,-1307,1
31,2649,-1134,1
-29,2807,-941,1
-26,2924,-715,1
-7,2984,-454,1
21,2940,-221,1
51,2872,-16,1
70,2784,162,1
99,2637,281,1
110,2468,394,1
130,2332,526,1
161,2250,666,1
233,2198,813,1
310,2180,945,1
388,2233,1067,1
455,2389,1178,1
551,2615,1248,1
654,2924,1314,1
766,3331,1378,1
913,3723,1409,1
1038,4194,1472,1
1140,4684,1564,1
1223,5190,1659,1
1251,5661,1772,1
1276,5960,1855,1
1217,6258,1927,1
1074,6409,1972,1
872,6383,2050,1
671,6102,2133,1
406,5689,2221,1
127,5149,2270,1
-137,4452,2355,1
-302,3490,2404,1
-436,2579,2463,1
-446,1649,2595,1
-373,770,2756,1
-303,298,2960,1
-229,36,3104,1
-63,-231,3143,1
206,-467,3119,1
511,-521,3102,1
824,-495,3020,1
1094,-405,2888,1
1299,-250,2728,1
1419,-96,2523,1
1481,48,2323,1
1499,209,2158,1
1509,383,2034,1
1489,545,1975,1
1447,705,1965,1
1386,905,2007,1
1320,1128,2098,1
1239,1364,2196,1
1141,1616,2265,1
1065,1905,2351,1
989,2205,2540,1
913,2520,2723,1
847,2868,2860,1
810,3213,2953,1
782,3582,3062,1
762,3902,3125,1
774,4170,3109,1
792,4361,3006,1
811,4490,2797,1
820,4573,2574,1
801,4588,2387,1
754,4567,2207,1
725,4504,2083,1
737,4381,1961,1
781,4233,1843,1
920,4050,1750,1
1134,3819,1677,1
1367,3608,1683,1
1572,3446,1700,1
1761,3303,1761,1
1962,3198,1937,1
2135,2969,2170,1
2273,2813,2430,1
2304,2722,2562,1
2278,2688,2627,1
2226,2604,2614,1
2059,2577,2597,1
1882,2438,2428,1
1711,2287,2198,1
1525,2281,1986,1
1353,2247,1717,1
1265,2302,1367,1
1364,2368,1090,1
1415,2516,850,1
1585,2621,740,1
1634,2820,648,1
1653,2993,527,1
1721,3160,498,1
1851,3438,612,1
1856,3609,672,1
1877,3752,795,1
2083,3810,1089,1
2035,3932,1276,1
2010,3940,1378,1
2104,4019,1446,1
2045,3986,1319,1
2056,4020,1227,1
1963,4133,1136,1
1819,4074,921,1
1863,4038,694,1
2068,4106,495,1
2076,4059,237,1
2007,4131,162,1
1991,4251,153,1
1960,4399,171,1
2003,4351,145,1
2063,4383,153,1
2101,4427,235,1
2204,4377,247,1
2254,4298,288,1
2307,4202,316,1
2371,4104,323,1
2462,4020,312,1
2535,3928,284,1
2770,3860,285,1
2430,3850,251,1
2265,3627,134,1
2213,3556,106,1
2198,3507,114,1
2205,3464,105,1
2225,3432,79,1
2273,3428,37,1
2345,3428,-33,1
2390,3424,-121,1
2474,3454,-221,1
2534,3498,-313,1
2495,3510,-365,1
2424,3467,-410,1
2372,3417,-420,1
2330,3358,-410,1
2406,3287,-446,1
2156,3399,-390,1
2037,3147,-482,1
2067,3035,-453,1
2227,2912,-412,1
2338,2878,-425,1
2435,2815,-433,1
2443,2768,-375,1
2227,2807,-270,1
2199,2525,-474,1
2287,2454,-520,1
2346,2453,-509,1
2363,2487,-529,1
2383,2569,-588,1
2371,2637,-619,1
2357,2725,-639,1
2402,2822,-649,1
2391,2852,-644,1
2370,2852,-659,1
2368,2876,-669,1
2377,2866,-682,1
2415,2982,-596,1
2538,3120,-499,1
2395,2976,-686,1
2499,3064,-738,1
2587,3166,-687,1
2696,3296,-656,1
2732,3400,-668,1
2741,3403,-779,1
2999,3434,-833,1
2965,3477,-807,1
3089,3658,-759,1
2892,3343,-1002,1
2932,3306,-1076,1
3045,3375,-1067,1
3049,3398,-1030,1
3038,3420,-1015,1
3034,3457,-997,1
3020,3484,-987,1
3172,3531,-1036,1
2969,3571,-940,1
2894,3596,-919,1
2979,3534,-938,1
3124,3459,-931,1
3234,3375,-1013,1
3933,3201,-1595,1
3406,3298,-1228,1
3072,3108,-1372,1
3190,2960,-1580,1
3387,2871,-1607,1
3592,3046,-1480,1
3271,3039,-1582,1
3174,2995,-1808,1
3173,3007,-1937,1
3239,3088,-2001,1
3305,3156,-2051,1
3321,3243,-2088,1
3397,3357,-2081,1
3575,3532,-2170,1
4475,3707,-2321,1
6041,3993,-2097,1
5734,4022,-1443,1
5157,3788,-1329,1
4094,3266,-1261,1
2337,3051,-1073,1
1583,2731,-1661,1
1276,2455,-2224,1
944,2202,-2563,1
736,2011,-2645,1
765,1880,-2649,1
1090,1842,-2585,1
1528,1872,-2515,1
1885,1916,-2431,1
2089,1971,-2308,1
2238,2020,-2214,1
2274,2051,-2128,1
2147,2041,-2092,1
2099,2001,-2155,1
2173,1907,-2303,1
2257,1810,-2461,1
2286,1721,-2612,1
2286,1641,-2751,1
2303,1594,-2889,1
2362,1577,-3030,1
2553,1378,-3243,1
2617,1428,-3304,1
2502,1432,-3279,1
2349,1429,-3240,1
2302,1467,-3289,1
2324,1587,-3364,1
2456,1783,-3476,1
2572,1949,-3732,1
2480,2027,-3743,1
2123,2096,-3648,1
1821,2133,-3495,1
1603,2143,-3486,1
1443,2146,-3492,1
1384,2135,-3504,1
1362,2073,-3512,1
1356,2031,-3526,1
1354,1998,-3508,1
1335,1949,-3514,1
1289,1876,-3500,1
1311,1787,-3468,1
1392,1688,-3529,1
1489,1655,-3599,1
1560,1641,-3658,1
1607,1650,-3735,1
1649,1691,-3799,1
1635,1728,-3804,1
1678,1751,-3890,1
1593,1909,-3809,1
1547,2040,-3708,1
1449,2058,-3674,1
1393,2022,-3716,1
1348,2008,-3676,1
1490,1914,-3777,1
1594,1973,-3784,1
1581,1961,-3611,1
1504,1923,-3466,1
1492,1914,-3351,1
1492,1910,-3254,1
1506,1929,-3170,1
1605,1908,-3185,1
1687,1874,-3240,1
1723,1827,-3327,1
1753,1783,-3402,1
1748,1757,-3480,1
1759,1712,-3536,1
1770,1667,-3584,1
1746,1673,-3602,1
1752,1671,-3627,1
1848,1618,-3688,1
2024,1647,-3744,1
1934,1729,-3700,1
1797,1737,-3656,1
1665,1722,-3649,1
1622,1670,-3688,1
1652,1584,-3761,1
1696,1534,-3816,1
1721,1471,-3863,1
1793,1434,-3852,1
1837,1413,-3835,1
1900,1419,-3808,1
1871,1499,-3716,1
1821,1537,-3660,1
1837,1500,-3665,1
1860,1457,-3708,1
1866,1421,-3758,1
1915,1319,-3842,1
1864,1403,-3861,1
1816,1439,-3894,1
2023,1303,-3963,1
1930,1404,-3979,1
1786,1517,-3909,1
1683,1521,-3862,1
1673,1496,-3814,1
1651,1517,-3805,1
1667,1571,-3793,1
1708,1599,-3806,1
1733,1591,-3832,1
1801,1569,-3805,1
1896,1568,-3804,1
1983,1636,-3787,1
2039,1687,-3757,1
2093,1733,-3733,1
2126,1765,-3718,1
2160,1775,-3684,1
2177,1788,-3636,1
2157,1806,-3597,1
2126,1813,-3554,1
2104,1815,-3495,1
2063,1840,-3410,1
2025,1844,-3366,1
1984,1807,-3349,1
1963,1772,-3309,1
1981,1694,-3301,1
1971,1635,-3311,1
1957,1559,-3326,1
1940,1502,-3341,1
1910,1503,-3314,1
1866,1494,-3306,1
1821,1479,-3308,1
1768,1501,-3306,1
1655,1585,-3298,1
1552,1692,-3297,1
1468,1880,-3325,1
1535,2066,-3397,1
1673,2178,-3529,1
1948,2096,-3639,1
2286,1906,-3599,1
2538,1656,-3555,1
2611,1558,-3459,1
2564,1542,-3339,1
2411,1643,-3227,1
2268,1701,-3153,1
2154,1764,-3107,1
2113,1836,-3066,1
2144,1868,-3056,1
2224,1863,-3031,1
2266,1892,-3065,1
2304,1920,-3109,1
2350,1951,-3179,1
2419,1944,-3218,1
2529,1887,-3259,1
2599,1850,-3284,1
2628,1800,-3310,1
2597,1833,-3347,1
2512,1930,-3326,1
2447,1944,-3321,1
2379,1954,-3300,1
2344,1912,-3281,1
2317,1912,-3270,1
2358,1865,-3224,1
2413,1773,-3168,1
2455,1720,-3153,1
2532,1615,-3179,1
2618,1494,-3192,1
2717,1457,-3134,1
2871,1281,-3070,1
2935,1259,-3120,1
2870,1463,-3175,1
2976,1349,-3158,1
3107,1237,-3132,1
3187,1213,-3102,1
3276,1077,-3073,1
3343,1004,-3066,1
3385,960,-3036,1
3463,868,-2991,1
3488,834,-2942,1
3437,865,-2914,1
3299,896,-2941,1
3073,973,-3028,1
2981,883,-3019,1
2934,653,-2890,1
2931,465,-2702,1
2943,303,-2538,1
2887,288,-2423,1
2773,396,-2402,1
2672,511,-2473,1
2623,442,-2549,1
2636,366,-2589,1
2659,347,-2608,1
2625,355,-2701,1
2591,358,-2808,1
2573,371,-2922,1
2580,345,-3010,1
2588,324,-3059,1
2575,321,-3072,1
2564,336,-3017,1
2612,351,-2914,1
2667,278,-2899,1
2689,242,-2939,1
2716,200,-2956,1
2713,195,-2913,1
2729,160,-2867,1
2730,174,-2810,1
2696,232,-2758,1
2671,311,-2689,1
2648,383,-2636,1
2605,471,-2608,1
2543,547,-2614,1
2459,612,-2671,1
2386,639,-2739,1
2294,702,-2812,1
2220,769,-2842,1
2140,820,-2877,1
2079,831,-2878,1
2021,869,-2877,1
2050,983,-2778,1
1960,1058,-2767,1
1884,1060,-2718,1
1856,1042,-2631,1
1845,1008,-2500,1
1859,1021,-2380,1
1909,985,-2259,1
1979,913,-2154,1
2053,859,-2082,1
2138,826,-2064,1
2240,765,-2066,1
2317,802,-2153,1
2330,872,-2108,1
2372,854,-2061,1
2452,711,-2129,1
2609,519,-2245,1
2672,481,-2311,1
2663,656,-2293,1
2665,827,-2257,1
2671,898,-2246,1
2663,872,-2274,1
2676,720,-2349,1
2710,507,-2477,1
2789,272,-2621,1
2902,72,-2754,1
3000,-48,-2903,1
3127,-97,-3024,1
3265,-112,-3102,1
3410,-127,-3180,1
3577,-163,-3224,1
3747,-173,-3205,1
3872,-146,-3139,1
3963,-103,-3054,1
4017,-49,-2966,1
4046,32,-2855,1
4075,103,-2711,1
4107,184,-2557,1
4120,269,-2437,1
4131,305,-2345,1
4144,297,-2253,1
4123,320,-2191,1
4088,364,-2128,1
4015,449,-2079,1
3923,515,-2043,1
3836,579,-2002,1
3741,664,-1984,1
3637,742,-1985,1
3525,818,-2004,1
3418,861,-2032,1
3306,889,-2058,1
3696,733,-1877,1
3816,1023,-1836,1
3570,1289,-1972,1
3259,1378,-2026,1
2996,1298,-2023,1
2808,1136,-1975,1
2686,980,-1897,1
2610,834,-1807,1
2568,694,-1723,1
2554,552,-1677,1
2591,385,-1666,1
2697,250,-1687,1
2835,80,-1757,1
2982,-108,-1835,1
3119,-261,-1899,1
3233,-366,-1929,1
3335,-439,-1939,1
3417,-478,-1926,1
3499,-494,-1861,1
3583,-508,-1794,1
3670,-540,-1760,1
3755,-594,-1732,1
3824,-660,-1736,1
3855,-720,-1816,1
3854,-785,-1966,1
3810,-818,-2159,1
3725,-832,-2348,1
3616,-862,-2560,1
3497,-917,-2795,1
3383,-965,-3018,1
3290,-997,-3174,1
3246,-1014,-3252,1
3241,-1000,-3256,1
3333,-1034,-3274,1
3491,-1044,-3271,1
3772,-1068,-3331,1
4092,-1004,-3380,1
4394,-789,-3343,1
4661,-411,-3195,1
4890,66,-2942,1
5086,567,-2600,1
5225,1030,-2227,1
5316,1384,-1890,1
5342,1591,-1689,1
5287,1618,-1702,1
5187,1512,-1916,1
5065,1278,-2259,1
4959,970,-2590,1
4867,619,-2883,1
4759,300,-3162,1
4629,66,-3451,1
4455,-59,-3702,1
4314,-96,-3899,1
4260,-48,-3972,1
4291,69,-3896,1
4391,263,-3695,1
4498,529,-3385,1
4645,766,-2922,1
4770,965,-2337,1
4812,1107,-1713,1
4729,1201,-1146,1
4429,1312,-769,1
4114,1355,-548,1
3708,1361,-596,1
3295,1281,-818,1
2963,1110,-1130,1
2732,849,-1494,1
2656,492,-1838,1
2709,76,-2143,1
2842,-363,-2415,1
3029,-777,-2660,1
3235,-1152,-2881,1
3448,-1478,-3073,1
3666,-1740,-3212,1
3884,-1926,-3252,1
4072,-2020,-3204,1
4204,-1975,-3093,1
4278,-1753,-2917,1
4332,-1419,-2697,1
4354,-1027,-2480,1
4376,-629,-2293,1
4408,-278,-2157,1
4464,-2,-2068,1
4519,212,-2028,1
4573,385,-2038,1
4655,504,-2070,1
4758,580,-2126,1
4884,610,-2172,1
5024,606,-2196,1
5140,581,-2215,1
5229,551,-2230,1
5285,504,-2237,1
5348,421,-2249,1
5411,316,-2248,1
5478,206,-2231,1
5509,126,-2216,1
5494,67,-2161,1
5441,49,-2052,1
5348,86,-1922,1
5234,164,-1791,1
5117,239,-1673,1
4999,313,-1580,1
4911,368,-1531,1
4829,414,-1531,1
4748,437,-1573,1
4659,416,-1616,1
4578,411,-1696,1
4514,392,-1811,1
4454,322,-1908,1
4371,229,-2003,1
4300,174,-2122,1
4211,143,-2272,1
4117,91,-2403,1
4010,43,-2480,1
3904,-6,-2483,1
3806,-7,-2476,1
3683,6,-2435,1
3561,76,-2378,1
3421,173,-2311,1
3259,277,-2236,1
3116,381,-2118,1
2995,454,-1958,1
2893,517,-1820,1
2789,579,-1711,1
2623,644,-1637,1
2445,751,-1549,1
2376,779,-1516,1
2321,821,-1521,1
2254,902,-1600,1
2216,964,-1741,1
2196,1021,-1847,1
2212,1095,-1890,1
2279,1171,-1867,1
2375,1264,-1819,1
2470,1361,-1766,1
2582,1426,-1756,1
2707,1451,-1766,1
2833,1452,-1799,1
2906,1469,-1838,1
2963,1487,-1855,1
3023,1462,-1886,1
3106,1367,-1891,1
3178,1259,-1872,1
3157,1220,-1809,1
3126,1192,-1746,1
3190,1103,-1702,1
3289,995,-1665,1
3347,925,-1608,1
3389,894,-1551,1
3542,803,-1447,1
3673,726,-1304,1
3722,700,-1188,1
3695,690,-1093,1
3637,668,-1001,1
3544,637,-936,1
3420,605,-919,1
3303,556,-931,1
3191,494,-962,1
3072,449,-1017,1
2967,410,-1088,1
2895,355,-1184,1
2862,256,-1293,1
2896,53,-1431,1
2779,-32,-1503,1
2604,36,-1483,1
2469,136,-1411,1
2403,222,-1313,1
2371,302,-1209,1
2364,369,-1106,1
2387,449,-1014,1
2407,543,-937,1
2428,642,-884,1
2434,747,-872,1
2430,845,-880,1
2422,942,-864,1
2472,991,-875,1
2524,1012,-878,1
2582,1009,-879,1
2628,1002,-871,1
2522,1127,-781,1
2576,1120,-669,1
2596,1100,-600,1
2629,1105,-494,1
2624,1090,-333,1
2707,1077,-234,1
2816,1029,-250,1
2918,967,-308,1
2999,910,-378,1
3057,882,-466,1
3147,849,-547,1
3261,798,-621,1
3390,752,-688,1
3526,727,-730,1
3667,708,-746,1
3804,683,-773,1
3908,679,-797,1
3989,713,-785,1
4045,748,-737,1
4111,756,-664,1
4160,762,-585,1
4208,761,-518,1
4287,723,-468,1
4353,661,-435,1
4399,600,-392,1
4465,514,-354,1
4520,422,-301,1
4552,339,-225,1
4549,281,-142,1
4521,252,-82,1
4488,227,-48,1
4501,150,-48,1
4426,134,-22,1
4320,170,-7,1
4210,233,22,1
4107,300,71,1
4031,340,129,1
3943,371,194,1
3853,367,245,1
3739,345,303,1
3644,330,288,1
3533,307,232,1
3282,453,274,1
3264,411,285,1
3238,337,301,1
3148,343,351,1
3082,339,372,1
3106,259,340,1
3170,158,238,1
3201,112,125,1
3230,79,7,1
3217,77,-101,1
3183,106,-181,1
3165,115,-230,1
3152,112,-250,1
3142,135,-208,1
3183,139,-146,1
3283,115,-97,1
3442,81,-52,1
3620,40,-12,1
3781,-1,12,1
3925,-52,40,1
4108,-142,51,1
4326,-251,21,1
4495,-312,-22,1
4629,-331,-36,1
4727,-340,-16,1
4774,-354,64,1
4784,-366,183,1
4787,-372,319,1
4808,-359,446,1
4821,-308,545,1
4794,-227,601,1
4749,-130,638,1
4677,-42,662,1
4595,40,661,1
4505,121,642,1
4408,204,572,1
4326,294,429,1
4290,414,183,1
4307,611,-204,1
4319,954,-655,1
4259,1378,-1038,1
4189,1735,-1279,1
4178,1973,-1381,1
4230,2108,-1373,1
4324,2164,-1288,1
4432,2168,-1182,1
4543,2125,-1092,1
4670,2025,-1041,1
4785,1889,-986,1
4894,1731,-951,1
4964,1573,-907,1
4957,1418,-866,1
4885,1276,-830,1
4752,1167,-800,1
4567,1086,-807,1
4366,1010,-868,1
4170,945,-941,1
4007,868,-1017,1
3872,785,-1114,1
3760,705,-1226,1
3662,622,-1324,1
3583,540,-1386,1
3517,454,-1405,1
3465,377,-1378,1
3416,330,-1283,1
3358,329,-1140,1
3315,383,-987,1
3274,499,-863,1
3244,647,-760,1
3240,801,-689,1
3217,961,-645,1
3181,1102,-630,1
3146,1208,-634,1
3104,1263,-661,1
3060,1275,-704,1
3013,1252,-756,1
2988,1169,-827,1
2929,1107,-895,1
2872,1059,-940,1
2832,1020,-969,1
2801,991,-991,1
2800,955,-1023,1
2787,957,-1034,1
2838,916,-1035,1
2859,909,-1036,1
2880,931,-1003,1
2938,963,-981,1
3111,908,-998,1
3192,957,-1007,1
3246,1083,-968,1
3362,1186,-917,1
3602,1142,-917,1
3776,1118,-922,1
3897,1129,-899,1
3983,1167,-873,1
4116,1128,-888,1
4253,1039,-937,1
4341,942,-969,1
4404,837,-1005,1
4462,729,-1058,1
4508,625,-1104,1
4549,529,-1144,1
4583,449,-1169,1
4619,389,-1157,1
4648,335,-1124,1
4663,285,-1075,1
4656,247,-1012,1
4616,211,-948,1
4548,187,-874,1
4467,203,-839,1
4375,225,-796,1
4269,256,-744,1
4179,301,-717,1
4080,351,-683,1
3979,395,-656,1
3881,432,-645,1
3789,456,-628,1
3701,484,-608,1
3626,497,-594,1
3568,516,-572,1
3531,535,-556,1
3501,561,-551,1
3494,595,-555,1
3507,638,-549,1
3541,694,-549,1
3580,758,-549,1
3611,822,-549,1
3625,882,-561,1
3619,943,-579,1
3615,970,-626,1
3604,977,-668,1
3594,975,-707,1
3572,972,-745,1
3542,948,-780,1
3535,900,-817,1
3514,844,-828,1
3503,781,-827,1
3507,725,-845,1
3521,676,-863,1
3558,633,-881,1
3604,592,-892,1
3672,555,-884,1
3749,536,-865,1
3821,534,-842,1
3895,542,-814,1
3969,552,-793,1
4035,565,-762,1
4083,580,-736,1
4116,599,-707,1
4134,619,-684,1
4137,635,-662,1
4123,640,-644,1
4102,640,-625,1
4067,633,-613,1
4038,599,-602,1
4002,562,-592,1
3958,536,-585,1
3911,516,-587,1
3876,492,-595,1
3843,476,-598,1
3810,474,-601,1
3790,472,-610,1
3776,467,-621,1
3769,469,-641,1
3756,471,-664,1
3740,468,-686,1
3744,479,-696,1
3753,496,-686,1
3758,528,-647,1
3772,555,-615,1
3796,573,-594,1
3825,583,-582,1
3875,587,-574,1
3921,597,-568,1
3966,612,-578,1
4006,626,-607,1
4050,643,-647,1
4087,653,-686,1
4129,650,-720,1
4170,642,-736,1
4217,628,-728,1
4255,624,-700,1
4288,627,-653,1
4323,638,-589,1
4352,651,-522,1
4375,656,-453,1
4407,652,-390,1
4440,648,-355,1
4478,630,-310,1
4514,610,-278,1
4561,592,-243,1
4604,585,-234,1
4643,587,-312,1
4680,603,-495,1
4723,625,-738,1
4767,649,-1021,1
4818,670,-1341,1
4865,700,-1691,1
4918,732,-2045,1
4999,751,-2331,1
5117,747,-2498,1
5280,736,-2548,1
5470,743,-2470,1
5672,787,-2297,1
5873,861,-2040,1
6042,959,-1727,1
6160,1093,-1407,1
6219,1235,-1131,1
6207,1378,-930,1
6127,1510,-830,1
5981,1619,-822,1
5782,1690,-888,1
5538,1731,-1011,1
5251,1760,-1154,1
4925,1771,-1279,1
4583,1753,-1381,1
4258,1699,-1458,1
3936,1618,-1513,1
3608,1510,-1557,1
3273,1407,-1568,1
2932,1303,-1558,1
2599,1189,-1538,1
2280,1070,-1494,1
1966,966,-1435,1
1658,880,-1351,1
1359,828,-1243,1
1076,800,-1132,1
813,796,-1017,1
577,819,-904,1
376,864,-809,1
251,942,-766,1
235,1051,-772,1
326,1158,-801,1
502,1238,-849,1
756,1290,-893,1
1057,1320,-913,1
1412,1323,-872,1
1811,1307,-758,1
2255,1282,-573,1
2745,1252,-339,1
3265,1227,-107,1
3779,1240,90,1
4274,1295,211,1
4738,1380,255,1
5151,1488,215,1
5519,1599,92,1
5840,1682,-97,1
6124,1732,-324,1
6367,1724,-553,1
6587,1642,-779,1
6779,1475,-981,1
6932,1232,-1162,1
7040,921,-1332,1
7095,568,-1514,1
7069,238,-1682,1
6952,-49,-1795,1
6736,-243,-1821,1
6447,-335,-1756,1
6097,-325,-1611,1
5702,-250,-1405,1
5289,-125,-1149,1
4867,25,-885,1
4462,172,-668,1
4073,315,-513,1
3695,462,-383,1
3338,611,-272,1
3011,755,-190,1
2714,899,-130,1
2460,1017,-94,1
2261,1102,-76,1
2115,1143,-71,1
2018,1158,-72,1
1964,1164,-84,1
1945,1170,-96,1
1965,1162,-106,1
2014,1151,-108,1
2096,1140,-111,1
2194,1134,-107,1
2308,1145,-99,1
2432,1162,-83,1
2565,1182,-70,1
2704,1204,-53,1
2844,1222,-34,1
2983,1235,-31,1
3115,1237,-41,1
3243,1233,-57,1
3365,1215,-88,1
3469,1198,-125,1
3569,1179,-174,1
3650,1163,-217,1
3716,1136,-258,1
3772,1106,-293,1
3815,1068,-315,1
3844,1022,-323,1
3860,975,-327,1
3856,939,-312,1
3828,920,-295,1
3784,916,-272,1
3747,897,-247,1
3714,876,-227,1
3684,877,-210,1
3653,901,-186,1
3626,939,-158,1
3604,990,-121,1
3595,1048,-81,1
3593,1109,-34,1
3603,1155,18,1
3621,1190,72,1
3641,1219,122,1
3663,1252,158,1
3682,1286,174,1
3700,1316,164,1
3718,1338,135,1
3749,1346,89,1
3787,1341,37,1
3829,1323,-18,1
3881,1302,-82,1
3940,1282,-127,1
4002,1271,-160,1
4060,1262,-161,1
4116,1258,-131,1
4173,1243,-68,1
4227,1217,15,1
4277,1195,109,1
4328,1202,208,1
4385,1202,300,1
4455,1201,405,1
4532,1176,536,1
4631,1081,681,1
4741,933,816,1
4844,752,932,1
4908,570,1006,1
4936,404,1045,1
4923,250,1039,1
4874,106,998,1
4790,-33,938,1
4676,-172,838,1
4550,-344,709,1
4414,-526,570,1
4265,-712,436,1
4120,-916,296,1
3976,-1122,176,1
3835,-1314,73,1
3703,-1482,-12,1
3596,-1630,-93,1
3550,-1744,-211,1
3533,-1693,-411,1
3507,-1403,-708,1
3481,-945,-1005,1
3464,-450,-1260,1
3490,47,-1511,1
3554,550,-1715,1
3689,1047,-1842,1
3896,1493,-1881,1
4161,1877,-1871,1
4478,2268,-1848,1
4846,2696,-1839,1
5241,3143,-1876,1
5658,3586,-1932,1
6055,3993,-2026,1
6416,4298,-2083,1
6716,4457,-1983,1
6907,4407,-1778,1
6957,4248,-1601,1
6845,4099,-1477,1
6572,3987,-1439,1
6220,3881,-1485,1
5841,3756,-1590,1
5465,3608,-1698,1
5111,3439,-1764,1
4790,3250,-1769,1
4505,3034,-1722,1
4246,2816,-1626,1
3980,2627,-1475,1
3727,2503,-1196,1
3304,2482,-800,1
2521,2566,-269,1
1720,2408,-1,1
1027,2113,-64,1
453,1685,-272,1
-54,1196,-422,1
-469,711,-574,1
-752,278,-800,1
-917,-80,-1069,1
-955,-338,-1378,1
-881,-472,-1729,1
-702,-504,-2079,1
-431,-474,-2370,1
-90,-384,-2564,1
297,-257,-2652,1
714,-110,-2636,1
1163,57,-2542,1
1668,219,-2399,1
2250,358,-2170,1
2934,448,-1821,1
3675,517,-1423,1
4395,609,-1059,1
5052,740,-767,1
5626,920,-535,1
6103,1153,-355,1
6470,1449,-240,1
6723,1794,-188,1
6883,2160,-212,1
6972,2536,-291,1
6999,2865,-453,1
6970,3114,-666,1
6876,3229,-885,1
6722,3192,-1052,1
6516,3001,-1139,1
6280,2674,-1131,1
6029,2273,-1077,1
5767,1868,-1002,1
5453,1520,-922,1
5042,1251,-806,1
4561,1017,-732,1
4077,750,-802,1
3622,473,-932,1
3204,214,-1055,1
2837,0,-1172,1
2525,-136,-1270,1
2286,-173,-1349,1
2105,-103,-1390,1
1986,52,-1391,1
1929,262,-1353,1
1931,482,-1273,1
1996,670,-1153,1
2118,804,-985,1
2305,874,-770,1
2542,899,-522,1
2805,908,-264,1
3075,918,-21,1
3330,957,187,1
3557,1016,332,1
3742,1089,409,1
3895,1178,424,1
3997,1266,386,1
4053,1350,318,1
4077,1425,232,1
4081,1488,137,1
4064,1521,45,1
4034,1517,-47,1
3999,1480,-129,1
3965,1411,-195,1
3928,1308,-245,1
3901,1182,-273,1
3878,1033,-295,1
3856,875,-316,1
3837,717,-338,1
3811,572,-363,1
3780,455,-386,1
3746,365,-408,1
3715,313,-411,1
3690,301,-381,1
3671,333,-308,1
3657,399,-225,1
3654,493,-146,1
3662,597,-90,1
3683,696,-54,1
3717,767,-44,1
3761,809,-46,1
3807,823,-62,1
3845,812,-99,1
3887,775,-153,1
3935,716,-218,1
3980,642,-291,1
4024,566,-368,1
4064,491,-458,1
4098,435,-540,1
4131,399,-608,1
4161,385,-646,1
4188,392,-653,1
4221,420,-615,1
4257,459,-537,1
4310,511,-427,1
4377,560,-298,1
4453,618,-151,1
4541,675,-3,1
4637,750,146,1
4739,822,273,1
4819,918,360,1
4884,1020,378,1
4933,1116,300,1
4971,1219,147,1
4985,1333,-67,1
4963,1460,-331,1
4921,1582,-632,1
4884,1680,-931,1
4866,1724,-1193,1
4894,1692,-1406,1
4962,1589,-1544,1
5062,1447,-1598,1
5160,1307,-1580,1
5233,1202,-1526,1
5280,1140,-1462,1
5300,1128,-1387,1
5296,1160,-1311,1
5269,1225,-1246,1
5222,1309,-1205,1
5160,1409,-1188,1
5087,1513,-1199,1
4999,1609,-1222,1
4900,1703,-1245,1
4780,1791,-1269,1
4634,1870,-1280,1
4472,1929,-1272,1
4290,1987,-1236,1
4103,2034,-1186,1
3895,2061,-1128,1
3688,2070,-1070,1
3478,2060,-1022,1
3272,2034,-1000,1
3074,1985,-992,1
2880,1922,-996,1
2690,1857,-1011,1
2506,1792,-1020,1
2302,1749,-1031,1
2092,1721,-1041,1
1880,1708,-1041,1
1667,1689,-1043,1
1459,1668,-1046,1
1266,1639,-1049,1
1101,1607,-1049,1
977,1576,-1050,1
904,1550,-1038,1
888,1544,-1005,1
924,1565,-955,1
1014,1600,-887,1
1157,1645,-807,1
1352,1692,-713,1
1601,1739,-606,1
1907,1770,-480,1
2287,1774,-301,1
2728,1764,-101,1
3210,1748,103,1
3704,1748,266,1
4202,1775,363,1
4678,1824,375,1
5123,1887,313,1
5527,1951,200,1
5885,1982,58,1
6192,1969,-98,1
6444,1898,-250,1
6645,1765,-389,1
6792,1567,-520,1
6875,1322,-646,1
6897,1022,-777,1
6844,682,-912,1
6707,360,-1042,1
6494,111,-1146,1
6212,-37,-1208,1
5884,-87,-1216,1
5537,-63,-1170,1
5183,10,-1075,1
4801,141,-925,1
4391,310,-741,1
3977,475,-586,1
3578,624,-466,1
3196,763,-368,1
2844,889,-293,1
2533,988,-244,1
2276,1053,-210,1
2070,1095,-182,1
1909,1117,-154,1
1794,1126,-122,1
1717,1132,-93,1
1700,1158,-68,1
1745,1212,-31,1
1835,1272,22,1
1964,1314,103,1
2122,1335,198,1
2294,1339,314,1
2477,1341,437,1
2654,1345,554,1
2818,1353,654,1
2969,1361,720,1
3114,1366,760,1
3247,1363,765,1
3368,1349,740,1
3479,1321,683,1
3574,1280,600,1
3657,1227,504,1
3735,1154,395,1
3799,1069,287,1
3860,969,185,1
3907,866,99,1
3944,756,35,1
3978,644,-16,1
3998,536,-52,1
4001,454,-72,1
3975,392,-68,1
3931,352,-47,1
3872,336,-18,1
3807,339,14,1
3740,363,49,1
3665,408,79,1
3596,469,108,1
3524,540,133,1
3468,626,150,1
3420,720,158,1
3393,819,155,1
3380,916,145,1
3385,1014,132,1
3404,1107,121,1
3434,1204,109,1
3475,1311,92,1
3519,1410,72,1
3556,1517,40,1
3577,1638,-23,1
3598,1771,-118,1
3621,1909,-209,1
3648,2044,-253,1
3683,2160,-215,1
3747,2244,-91,1
3846,2286,127,1
3975,2292,412,1
4140,2255,727,1
4330,2187,1021,1
4546,2092,1267,1
4770,1968,1445,1
5000,1836,1543,1
5211,1691,1566,1
5385,1524,1528,1
5515,1342,1428,1
5585,1144,1285,1
5614,932,1116,1
5605,707,905,1
5577,464,631,1
5527,248,254,1
5471,98,-270,1
5380,78,-920,1
5273,178,-1585,1
5176,317,-2181,1
5134,475,-2631,1
5142,631,-2841,1
5198,792,-2772,1
5312,997,-2492,1
5486,1273,-2127,1
5700,1649,-1757,1
5910,2116,-1416,1
6073,2639,-1140,1
6143,3137,-1002,1
6120,3552,-962,1
6016,3787,-928,1
5854,3872,-893,1
5639,3864,-895,1
5372,3803,-919,1
5076,3711,-932,1
4763,3596,-907,1
4477,3428,-854,1
4236,3195,-784,1
4005,2926,-719,1
3736,2669,-650,1
3417,2458,-584,1
3012,2317,-540,1
2520,2210,-534,1
1980,2117,-543,1
1450,2038,-547,1
935,1967,-544,1
486,1865,-569,1
113,1726,-635,1
-178,1570,-741,1
-398,1409,-870,1
-541,1245,-1011,1
-596,1074,-1166,1
-542,889,-1330,1
-380,685,-1492,1
-126,471,-1646,1
224,267,-1803,1
639,100,-1933,1
1099,-20,-2015,1
1591,-81,-2035,1
2104,-87,-1995,1
2609,-30,-1907,1
3095,107,-1820,1
3564,321,-1751,1
3985,613,-1716,1
4353,981,-1757,1
4668,1430,-1850,1
4934,1931,-1953,1
5170,2456,-2022,1
5391,2979,-2047,1
5633,3435,-2033,1
5905,3780,-1921,1
6212,4017,-1724,1
6532,4126,-1530,1
6827,4117,-1384,1
7065,4000,-1319,1
7206,3768,-1326,1
7212,3413,-1388,1
7057,2998,-1459,1
6767,2590,-1502,1
6383,2224,-1516,1
5924,1930,-1469,1
5387,1774,-1376,1
4798,1720,-1243,1
4140,1686,-1090,1
3485,1523,-1076,1
2880,1248,-1219,1
2356,934,-1384,1
1904,615,-1508,1
1514,334,-1629,1
1199,127,-1748,1
988,-5,-1853,1
916,-64,-1915,1
964,-28,-1927,1
1117,99,-1868,1
1364,252,-1728,1
1693,383,-1501,1
2073,484,-1199,1
2489,570,-837,1
2910,674,-457,1
3318,809,-106,1
3688,984,178,1
4005,1183,383,1
4263,1396,490,1
4462,1607,502,1
4603,1789,430,1
4684,1935,299,1
4708,2034,142,1
4687,2062,-52,1
4633,2012,-225,1
4559,1869,-373,1
4477,1664,-508,1
4369,1439,-614,1
4239,1208,-706,1
4106,989,-794,1
3967,793,-872,1
3828,621,-928,1
3710,474,-963,1
3616,365,-967,1
3546,304,-939,1
3496,289,-877,1
3480,310,-779,1
3503,367,-654,1
3554,447,-517,1
3615,543,-391,1
3689,625,-284,1
3766,684,-202,1
3837,724,-146,1
3893,737,-115,1
3928,718,-111,1
3956,728,-133,1
3979,746,-177,1
4011,760,-217,1
4056,762,-257,1
4111,751,-270,1
4174,744,-269,1
4240,761,-262,1
4305,796,-236,1
4369,849,-217,1
4429,914,-188,1
4487,989,-159,1
4537,1070,-135,1
4581,1143,-108,1
4615,1213,-73,1
4644,1286,-44,1
4653,1335,-8,1
