accelerometer_x,accelerometer_y,accelerometer_z,fall
3128,-1104,2339,0
3140,-1105,2343,0
3148,-1102,2345,0
3157,-1101,2341,0
3160,-1097,2342,0
3168,-1096,2339,0
3175,-1091,2339,0
3178,-1088,2338,0
3178,-1093,2335,0
3178,-1092,2335,0
3180,-1094,2332,0
3179,-1095,2330,0
3180,-1091,2333,0
3181,-1090,2333,0
3182,-1091,2336,0
3185,-1093,2336,0
3183,-1097,2333,0
3184,-1101,2335,0
3185,-1104,2329,0
3187,-1106,2328,0
3188,-1109,2322,0
3191,-1111,2322,0
3188,-1109,2328,0
3187,-1116,2323,0
3191,-1108,2317,0
3192,-1114,2319,0
3192,-1117,2318,0
3194,-1116,2320,0
3197,-1118,2321,0
3198,-1117,2317,0
3200,-1115,2321,0
3196,-1113,2329,0
3194,-1109,2329,0
3189,-1107,2328,0
3185,-1104,2326,0
3185,-1106,2326,0
3186,-1110,2328,0
3187,-1114,2335,0
3187,-1116,2345,0
3183,-1111,2346,0
3180,-1112,2344,0
3180,-1114,2349,0
3173,-1114,2348,0
3171,-1117,2347,0
3163,-1120,2344,0
3154,-1119,2339,0
3149,-1121,2342,0
3142,-1124,2345,0
3147,-1124,2347,0
3151,-1124,2348,0
3152,-1127,2353,0
3156,-1126,2356,0
3158,-1126,2358,0
3165,-1125,2360,0
3163,-1122,2360,0
3164,-1119,2358,0
3166,-1120,2361,0
3165,-1121,2363,0
3165,-1118,2365,0
3166,-1119,2366,0
3166,-1123,2368,0
3165,-1126,2360,0
3158,-1126,2353,0
3153,-1123,2351,0
3146,-1120,2348,0
3143,-1119,2346,0
3137,-1117,2344,0
3134,-1113,2345,0
3129,-1112,2349,0
3129,-1111,2350,0
3133,-1113,2353,0
3131,-1114,2354,0
3135,-1119,2356,0
3142,-1124,2366,0
3146,-1122,2383,0
3149,-1127,2389,0
3155,-1134,2394,0
3160,-1139,2402,0
3157,-1146,2400,0
3154,-1152,2397,0
3152,-1157,2398,0
3149,-1160,2392,0
3143,-1161,2392,0
3140,-1164,2393,0
3136,-1162,2388,0
3127,-1162,2386,0
3128,-1159,2383,0
3126,-1155,2381,0
3129,-1144,2379,0
3130,-1144,2376,0
3135,-1140,2373,0
3137,-1134,2374,0
3143,-1131,2371,0
3147,-1127,2371,0
3150,-1126,2371,0
3156,-1123,2372,0
3156,-1121,2366,0
3164,-1123,2364,0
3166,-1121,2358,0
3170,-1118,2352,0
3170,-1113,2348,0
3170,-1111,2345,0
3169,-1111,2340,0
3172,-1107,2339,0
3174,-1105,2343,0
3176,-1106,2340,0
3178,-1103,2340,0
3182,-1098,2335,0
3180,-1095,2328,0
3179,-1090,2322,0
3182,-1083,2315,0
3179,-1078,2314,0
3178,-1081,2310,0
3174,-1077,2310,0
3172,-1078,2308,0
3168,-1079,2311,0
3171,-1084,2312,0
3171,-1088,2316,0
3172,-1092,2324,0
3177,-1097,2331,0
3181,-1096,2336,0
3181,-1099,2336,0
3177,-1099,2343,0
3175,-1104,2346,0
3178,-1109,2355,0
3174,-1117,2361,0
3168,-1122,2360,0
3165,-1122,2359,0
3160,-1123,2361,0
3155,-1127,2359,0
3150,-1135,2363,0
3151,-1141,2365,0
3153,-1144,2370,0
3151,-1146,2372,0
3154,-1151,2372,0
3158,-1151,2371,0
3153,-1151,2368,0
3146,-1146,2367,0
3139,-1147,2364,0
3133,-1143,2367,0
3129,-1140,2374,0
3127,-1139,2377,0
3127,-1137,2376,0
3124,-1137,2371,0
3126,-1136,2370,0
3127,-1139,2366,0
3128,-1138,2366,0
3130,-1136,2367,0
3134,-1136,2371,0
3140,-1133,2371,0
3141,-1133,2373,0
3141,-1134,2374,0
3146,-1130,2377,0
3147,-1125,2375,0
3143,-1126,2384,0
3141,-1126,2383,0
3141,-1128,2381,0
3146,-1129,2380,0
3145,-1125,2372,0
3145,-1125,2369,0
3148,-1125,2369,0
3146,-1123,2365,0
3145,-1121,2364,0
3146,-1117,2364,0
3147,-1110,2359,0
3151,-1108,2359,0
3155,-1110,2354,0
3158,-1106,2357,0
3162,-1105,2358,0
3157,-1103,2359,0
3161,-1108,2363,0
3165,-1108,2363,0
3171,-1108,2366,0
3173,-1110,2364,0
3169,-1112,2362,0
3172,-1111,2358,0
3168,-1111,2361,0
3162,-1112,2361,0
3162,-1113,2356,0
3158,-1113,2353,0
3154,-1117,2352,0
3151,-1122,2350,0
3147,-1121,2354,0
3145,-1121,2353,0
3145,-1119,2351,0
3145,-1119,2357,0
3145,-1118,2359,0
3148,-1120,2358,0
3148,-1123,2355,0
3153,-1123,2354,0
3156,-1123,2352,0
3157,-1121,2351,0
3163,-1119,2354,0
3167,-1121,2356,0
3167,-1119,2363,0
3168,-1121,2368,0
3172,-1123,2364,0
3175,-1124,2363,0
3177,-1121,2359,0
3176,-1123,2360,0
3170,-1128,2360,0
3164,-1126,2357,0
3159,-1128,2354,0
3155,-1126,2350,0
3153,-1126,2351,0
3152,-1120,2347,0
3152,-1115,2349,0
3147,-1112,2353,0
3146,-1112,2352,0
3148,-1110,2358,0
3147,-1109,2358,0
3147,-1110,2361,0
3153,-1114,2363,0
3158,-1115,2362,0
3160,-1115,2361,0
3162,-1113,2361,0
3161,-1110,2361,0
3165,-1108,2359,0
3166,-1110,2360,0
3169,-1110,2356,0
3169,-1106,2356,0
3166,-1107,2354,0
3168,-1106,2355,0
3171,-1105,2360,0
3171,-1104,2361,0
3171,-1106,2356,0
3167,-1106,2353,0
3162,-1107,2350,0
3155,-1110,2345,0
3149,-1109,2345,0
3144,-1110,2349,0
3147,-1113,2354,0
3149,-1113,2358,0
3152,-1115,2363,0
3154,-1115,2363,0
3156,-1119,2363,0
3161,-1118,2363,0
3161,-1113,2361,0
3158,-1111,2363,0
3158,-1113,2358,0
3154,-1111,2358,0
3154,-1114,2353,0
3155,-1109,2353,0
3156,-1108,2351,0
3155,-1107,2350,0
3158,-1106,2350,0
3164,-1106,2351,0
3167,-1111,2352,0
3168,-1111,2350,0
3170,-1111,2355,0
3172,-1114,2355,0
3174,-1113,2352,0
3173,-1117,2353,0
3173,-1120,2356,0
3170,-1121,2362,0
3173,-1121,2358,0
3174,-1121,2361,0
3174,-1124,2364,0
3171,-1125,2362,0
3170,-1124,2361,0
3165,-1122,2356,0
3159,-1116,2351,0
3154,-1109,2350,0
3148,-1103,2341,0
3138,-1103,2342,0
3133,-1097,2340,0
3135,-1096,2343,0
3137,-1095,2349,0
3142,-1092,2352,0
3154,-1093,2358,0
3163,-1097,2362,0
3171,-1096,2363,0
3172,-1096,2359,0
3176,-1099,2360,0
3182,-1101,2362,0
3184,-1101,2363,0
3181,-1101,2360,0
3177,-1103,2358,0
3179,-1105,2355,0
3179,-1106,2353,0
3179,-1107,2353,0
3177,-1106,2355,0
3176,-1110,2352,0
3167,-1114,2349,0
3163,-1108,2346,0
3157,-1106,2344,0
3154,-1105,2340,0
3152,-1100,2341,0
3152,-1099,2342,0
3156,-1102,2345,0
3167,-1101,2352,0
3175,-1103,2356,0
3182,-1100,2356,0
3190,-1100,2359,0
3194,-1095,2363,0
3197,-1090,2361,0
3196,-1089,2362,0
3191,-1085,2359,0
3185,-1087,2359,0
3178,-1085,2355,0
3174,-1087,2358,0
3173,-1095,2360,0
3172,-1100,2362,0
3174,-1104,2361,0
3170,-1109,2361,0
3170,-1112,2359,0
3164,-1111,2356,0
3162,-1115,2349,0
3158,-1113,2348,0
3154,-1116,2345,0
3152,-1112,2347,0
3149,-1111,2345,0
3152,-1114,2348,0
3149,-1111,2344,0
3150,-1111,2345,0
3148,-1108,2340,0
3147,-1106,2340,0
3148,-1106,2345,0
3153,-1104,2347,0
3163,-1105,2349,0
3167,-1105,2353,0
3174,-1099,2352,0
3174,-1097,2353,0
3172,-1096,2350,0
3171,-1098,2349,0
3169,-1096,2349,0
3169,-1095,2344,0
3168,-1094,2340,0
3170,-1089,2341,0
3173,-1086,2338,0
3172,-1085,2342,0
3173,-1090,2343,0
3177,-1091,2345,0
3179,-1092,2349,0
3187,-1094,2348,0
3190,-1098,2349,0
3188,-1096,2352,0
3188,-1100,2350,0
3185,-1100,2346,0
3184,-1099,2342,0
3180,-1100,2341,0
3175,-1099,2341,0
3169,-1096,2343,0
3163,-1094,2345,0
3161,-1092,2343,0
3156,-1094,2341,0
3153,-1095,2341,0
3151,-1095,2339,0
3154,-1096,2340,0
3153,-1098,2344,0
3148,-1104,2345,0
3155,-1103,2349,0
3162,-1102,2356,0
3171,-1106,2356,0
3176,-1107,2357,0
3178,-1106,2354,0
3179,-1109,2355,0
3180,-1106,2352,0
3180,-1110,2353,0
3178,-1110,2356,0
3179,-1111,2362,0
3179,-1112,2366,0
3179,-1109,2366,0
3176,-1106,2363,0
3175,-1104,2357,0
3171,-1100,2358,0
3167,-1098,2354,0
3165,-1098,2351,0
3164,-1098,2348,0
3161,-1094,2343,0
3162,-1092,2343,0
3154,-1089,2342,0
3163,-1092,2348,0
3170,-1092,2353,0
3175,-1088,2357,0
3180,-1093,2357,0
3181,-1091,2352,0
3181,-1091,2348,0
3180,-1090,2348,0
3181,-1090,2346,0
3179,-1094,2346,0
3174,-1096,2347,0
3171,-1096,2346,0
3172,-1098,2340,0
3175,-1100,2344,0
3177,-1099,2348,0
3180,-1101,2349,0
3182,-1100,2349,0
3182,-1098,2344,0
3182,-1095,2343,0
3178,-1094,2340,0
3171,-1091,2339,0
3169,-1088,2340,0
3168,-1088,2338,0
3173,-1090,2338,0
3173,-1093,2343,0
3172,-1095,2346,0
3176,-1096,2351,0
3175,-1094,2350,0
3178,-1097,2350,0
3181,-1098,2353,0
3183,-1101,2350,0
3179,-1101,2349,0
3176,-1101,2347,0
3176,-1102,2347,0
3174,-1098,2347,0
3165,-1098,2346,0
3168,-1099,2341,0
3166,-1097,2340,0
3169,-1092,2341,0
3171,-1088,2343,0
3174,-1089,2344,0
3179,-1094,2347,0
3179,-1092,2346,0
3181,-1091,2349,0
3181,-1090,2349,0
3179,-1091,2346,0
3184,-1094,2345,0
3183,-1094,2345,0
3180,-1096,2348,0
3179,-1096,2347,0
3180,-1096,2342,0
3176,-1097,2338,0
3170,-1102,2337,0
3169,-1105,2339,0
3166,-1107,2341,0
3171,-1111,2346,0
3175,-1117,2351,0
3177,-1117,2352,0
3179,-1115,2350,0
3179,-1110,2349,0
3180,-1103,2345,0
3175,-1098,2343,0
3173,-1095,2342,0
3167,-1095,2341,0
3168,-1088,2345,0
3166,-1090,2348,0
3171,-1091,2347,0
3169,-1092,2350,0
3168,-1093,2351,0
3162,-1093,2348,0
3163,-1096,2347,0
3165,-1097,2349,0
3167,-1101,2354,0
3168,-1103,2355,0
3170,-1102,2354,0
3178,-1106,2352,0
3176,-1104,2352,0
3171,-1102,2352,0
3172,-1102,2354,0
3174,-1102,2352,0
3175,-1104,2353,0
3177,-1107,2354,0
3175,-1106,2356,0
3177,-1107,2359,0
3179,-1108,2359,0
3178,-1104,2357,0
3176,-1103,2355,0
3174,-1103,2353,0
3171,-1101,2349,0
3166,-1096,2344,0
3162,-1096,2344,0
3158,-1095,2345,0
3153,-1098,2345,0
3146,-1098,2347,0
3141,-1099,2345,0
3143,-1098,2341,0
3147,-1096,2345,0
3150,-1094,2346,0
3158,-1093,2345,0
3164,-1094,2345,0
3165,-1095,2349,0
3169,-1092,2349,0
3171,-1094,2349,0
3174,-1095,2352,0
3174,-1095,2353,0
3172,-1099,2353,0
3175,-1101,2360,0
3174,-1104,2362,0
3174,-1104,2363,0
3177,-1108,2363,0
3174,-1113,2360,0
3170,-1114,2356,0
3171,-1115,2352,0
3169,-1109,2351,0
3166,-1110,2353,0
3161,-1107,2350,0
3162,-1110,2351,0
3161,-1112,2351,0
3168,-1112,2350,0
3174,-1110,2351,0
3183,-1109,2351,0
3190,-1105,2353,0
3191,-1103,2350,0
3195,-1101,2352,0
3196,-1098,2356,0
3191,-1095,2356,0
3191,-1095,2354,0
3184,-1097,2351,0
3176,-1093,2347,0
3171,-1099,2347,0
3164,-1097,2350,0
3160,-1104,2353,0
3160,-1110,2361,0
3156,-1114,2363,0
3154,-1119,2358,0
3155,-1121,2357,0
3153,-1121,2355,0
3153,-1119,2352,0
3153,-1116,2349,0
3153,-1113,2351,0
3150,-1114,2351,0
3143,-1106,2351,0
3140,-1103,2349,0
3142,-1103,2346,0
3142,-1101,2347,0
3143,-1102,2349,0
3145,-1101,2352,0
3149,-1101,2352,0
3154,-1101,2354,0
3158,-1102,2355,0
3161,-1107,2361,0
3161,-1110,2362,0
3162,-1114,2357,0
3166,-1115,2362,0
3168,-1118,2363,0
3171,-1116,2368,0
3174,-1117,2371,0
3176,-1118,2369,0
3169,-1115,2364,0
3166,-1115,2359,0
3168,-1111,2355,0
3167,-1104,2352,0
3166,-1099,2352,0
3159,-1100,2351,0
3155,-1099,2351,0
3153,-1098,2352,0
3151,-1098,2352,0
3148,-1099,2351,0
3146,-1100,2348,0
3149,-1099,2349,0
3154,-1101,2354,0
3158,-1105,2357,0
3158,-1106,2359,0
3161,-1109,2360,0
3158,-1112,2361,0
3163,-1113,2359,0
3165,-1116,2357,0
3168,-1120,2360,0
3163,-1119,2359,0
3159,-1119,2355,0
3154,-1121,2352,0
3149,-1120,2356,0
3152,-1123,2360,0
3153,-1121,2362,0
3155,-1121,2361,0
3157,-1115,2365,0
3158,-1112,2365,0
3159,-1113,2365,0
3156,-1114,2364,0
3156,-1113,2365,0
3154,-1112,2369,0
3152,-1113,2370,0
3156,-1112,2371,0
3164,-1114,2371,0
3165,-1117,2374,0
3167,-1121,2370,0
3165,-1123,2368,0
3172,-1119,2368,0
3166,-1120,2368,0
3164,-1121,2365,0
3158,-1120,2359,0
3154,-1121,2354,0
3151,-1122,2353,0
3151,-1120,2356,0
3151,-1118,2353,0
3148,-1118,2353,0
3150,-1117,2356,0
3146,-1115,2357,0
3145,-1115,2354,0
3148,-1116,2361,0
3149,-1113,2360,0
3150,-1118,2360,0
3150,-1118,2361,0
3152,-1121,2360,0
3152,-1120,2361,0
3153,-1120,2358,0
3153,-1120,2357,0
3154,-1119,2360,0
3155,-1124,2362,0
3160,-1121,2361,0
3158,-1121,2360,0
3159,-1118,2361,0
3165,-1116,2363,0
3164,-1116,2364,0
3165,-1114,2360,0
3167,-1116,2358,0
3165,-1114,2355,0
3164,-1110,2357,0
3166,-1113,2357,0
3163,-1113,2358,0
3162,-1116,2358,0
3160,-1114,2355,0
3160,-1114,2353,0
3158,-1113,2351,0
3157,-1113,2347,0
3152,-1110,2349,0
3149,-1114,2356,0
3146,-1115,2360,0
3142,-1115,2357,0
3138,-1110,2362,0
3140,-1112,2364,0
3141,-1114,2362,0
3142,-1116,2362,0
3142,-1116,2364,0
3141,-1117,2366,0
3146,-1121,2369,0
3147,-1121,2370,0
3149,-1119,2369,0
3149,-1121,2373,0
3150,-1124,2374,0
3151,-1123,2374,0
3152,-1125,2374,0
3154,-1127,2372,0
3161,-1129,2369,0
3167,-1132,2365,0
3169,-1129,2362,0
3169,-1126,2357,0
3168,-1119,2351,0
3168,-1113,2349,0
3160,-1110,2349,0
3152,-1109,2346,0
3151,-1111,2348,0
3156,-1115,2353,0
3159,-1117,2359,0
3163,-1122,2368,0
3159,-1121,2377,0
3154,-1100,2411,0
3140,-1119,2367,0
3140,-1114,2355,0
3139,-1120,2350,0
3140,-1129,2357,0
3143,-1137,2363,0
3141,-1135,2370,0
3142,-1133,2374,0
3145,-1132,2369,0
3150,-1126,2365,0
3154,-1129,2366,0
3152,-1121,2377,0
3150,-1121,2374,0
3155,-1115,2355,0
3153,-1120,2358,0
3151,-1119,2361,0
3150,-1122,2364,0
3151,-1126,2364,0
3152,-1127,2362,0
3156,-1129,2362,0
3154,-1129,2359,0
3153,-1129,2355,0
3153,-1128,2352,0
3150,-1127,2350,0
3150,-1130,2352,0
3150,-1129,2356,0
3149,-1133,2361,0
3152,-1130,2362,0
3153,-1132,2365,0
3157,-1132,2364,0
3156,-1136,2367,0
3159,-1132,2367,0
3163,-1131,2362,0
3165,-1127,2363,0
3162,-1125,2361,0
3156,-1125,2359,0
3156,-1120,2359,0
3150,-1119,2358,0
3147,-1116,2353,0
3146,-1115,2352,0
3146,-1113,2354,0
3145,-1115,2355,0
3144,-1115,2355,0
3147,-1113,2356,0
3150,-1117,2355,0
3150,-1120,2357,0
3154,-1122,2358,0
3160,-1124,2364,0
3163,-1128,2368,0
3163,-1130,2370,0
3164,-1130,2372,0
3165,-1132,2372,0
3160,-1136,2368,0
3156,-1133,2362,0
3154,-1130,2360,0
3158,-1127,2360,0
3161,-1128,2357,0
3156,-1124,2358,0
3157,-1125,2358,0
3155,-1128,2360,0
3158,-1127,2367,0
3164,-1130,2366,0
3172,-1131,2369,0
3170,-1133,2369,0
3169,-1130,2369,0
3164,-1131,2370,0
3161,-1132,2369,0
3154,-1128,2370,0
3154,-1126,2368,0
3150,-1129,2368,0
3145,-1128,2363,0
3139,-1131,2358,0
3135,-1126,2354,0
3132,-1125,2352,0
3125,-1122,2354,0
3121,-1124,2356,0
3120,-1124,2360,0
3121,-1125,2364,0
3128,-1129,2362,0
3133,-1128,2364,0
3138,-1129,2365,0
3142,-1129,2365,0
3145,-1131,2371,0
3141,-1130,2366,0
3138,-1126,2365,0
3139,-1124,2365,0
3140,-1124,2365,0
3141,-1122,2363,0
3142,-1122,2367,0
3145,-1118,2362,0
3147,-1122,2363,0
3148,-1122,2363,0
3152,-1121,2363,0
3154,-1124,2368,0
3156,-1126,2371,0
3158,-1128,2374,0
3158,-1127,2371,0
3164,-1123,2369,0
3163,-1128,2364,0
3163,-1127,2364,0
3159,-1128,2362,0
3157,-1122,2359,0
3158,-1127,2360,0
3158,-1126,2358,0
3154,-1128,2361,0
3156,-1128,2362,0
3156,-1127,2357,0
3152,-1126,2360,0
3146,-1125,2361,0
3140,-1122,2361,0
3132,-1121,2359,0
3126,-1123,2362,0
3124,-1125,2361,0
3121,-1129,2360,0
3119,-1130,2363,0
3122,-1130,2364,0
3129,-1130,2372,0
3137,-1132,2380,0
3141,-1130,2378,0
3147,-1128,2379,0
3148,-1131,2379,0
3149,-1140,2377,0
3150,-1136,2377,0
3147,-1135,2376,0
3146,-1132,2371,0
3142,-1128,2367,0
3140,-1130,2369,0
3139,-1131,2370,0
3143,-1131,2369,0
3146,-1129,2375,0
3149,-1130,2377,0
3153,-1130,2373,0
3154,-1130,2372,0
3152,-1130,2372,0
3155,-1128,2367,0
3151,-1125,2364,0
3148,-1124,2360,0
3148,-1125,2362,0
3146,-1128,2357,0
3145,-1128,2359,0
3144,-1129,2356,0
3145,-1128,2359,0
3145,-1130,2361,0
3148,-1129,2364,0
3153,-1128,2366,0
3149,-1130,2371,0
3148,-1130,2371,0
3147,-1130,2367,0
3148,-1129,2367,0
3148,-1130,2370,0
3149,-1126,2370,0
3149,-1128,2370,0
3150,-1128,2367,0
3145,-1127,2371,0
3144,-1126,2371,0
3144,-1125,2369,0
3144,-1127,2372,0
3146,-1126,2369,0
3145,-1127,2370,0
3146,-1126,2368,0
3143,-1125,2365,0
3143,-1127,2363,0
3139,-1131,2363,0
3138,-1125,2360,0
3136,-1125,2363,0
3137,-1124,2362,0
3138,-1124,2363,0
3141,-1126,2367,0
3146,-1129,2368,0
3141,-1130,2365,0
3143,-1130,2366,0
3143,-1127,2366,0
3142,-1130,2368,0
3146,-1130,2370,0
3149,-1127,2376,0
3152,-1132,2376,0
3153,-1129,2377,0
3155,-1129,2374,0
3154,-1128,2369,0
3155,-1126,2369,0
3155,-1121,2368,0
3153,-1124,2367,0
3149,-1123,2362,0
3146,-1124,2359,0
3146,-1123,2359,0
3144,-1125,2357,0
3144,-1127,2361,0
3139,-1131,2364,0
3136,-1130,2365,0
3136,-1127,2363,0
3136,-1125,2359,0
3134,-1127,2357,0
3136,-1126,2362,0
3136,-1129,2361,0
3136,-1131,2364,0
3141,-1137,2373,0
3147,-1137,2378,0
3151,-1139,2383,0
3151,-1144,2383,0
3154,-1143,2379,0
3157,-1141,2378,0
3159,-1136,2370,0
3156,-1132,2370,0
3151,-1128,2368,0
3149,-1124,2367,0
3145,-1122,2368,0
3146,-1116,2365,0
3148,-1118,2364,0
3147,-1117,2361,0
3149,-1119,2358,0
3150,-1117,2361,0
3149,-1117,2366,0
3150,-1117,2372,0
3148,-1122,2373,0
3149,-1122,2377,0
3146,-1122,2375,0
3149,-1123,2373,0
3151,-1124,2366,0
3154,-1123,2365,0
3155,-1121,2362,0
3155,-1122,2357,0
3153,-1122,2354,0
3147,-1119,2356,0
3142,-1120,2357,0
3140,-1121,2358,0
3141,-1118,2363,0
3139,-1116,2366,0
3137,-1118,2370,0
3140,-1119,2374,0
3140,-1119,2375,0
3142,-1117,2377,0
3145,-1120,2375,0
3150,-1123,2377,0
3151,-1127,2377,0
3148,-1131,2376,0
3142,-1133,2371,0
3143,-1131,2369,0
3143,-1131,2368,0
3142,-1132,2362,0
3139,-1133,2362,0
3139,-1135,2363,0
3140,-1132,2364,0
3143,-1127,2363,0
3147,-1123,2364,0
3148,-1119,2365,0
3151,-1117,2369,0
3152,-1113,2371,0
3157,-1113,2368,0
3160,-1112,2366,0
3156,-1108,2360,0
3156,-1104,2359,0
3154,-1105,2359,0
3154,-1106,2360,0
3157,-1106,2362,0
3155,-1111,2361,0
3154,-1113,2366,0
3155,-1114,2364,0
3153,-1116,2364,0
3150,-1119,2359,0
3148,-1120,2358,0
3148,-1125,2355,0
3153,-1125,2359,0
3161,-1129,2358,0
3168,-1124,2364,0
3176,-1119,2365,0
3178,-1115,2365,0
3187,-1116,2369,0
3188,-1112,2366,0
3184,-1109,2365,0
3182,-1106,2364,0
3177,-1105,2366,0
3173,-1108,2371,0
3174,-1107,2368,0
3167,-1113,2362,0
3158,-1117,2359,0
3154,-1116,2356,0
3147,-1120,2356,0
3146,-1121,2355,0
3143,-1126,2355,0
3137,-1127,2356,0
3134,-1128,2359,0
3133,-1126,2362,0
3128,-1127,2368,0
3128,-1125,2364,0
3128,-1126,2364,0
3131,-1124,2365,0
3134,-1127,2361,0
3137,-1126,2361,0
3139,-1128,2360,0
3141,-1127,2359,0
3145,-1125,2364,0
3150,-1124,2366,0
3155,-1121,2370,0
3159,-1124,2375,0
3161,-1125,2372,0
3162,-1120,2371,0
3168,-1119,2368,0
3171,-1118,2363,0
3170,-1117,2360,0
3168,-1118,2357,0
3166,-1116,2348,0
3165,-1112,2350,0
3160,-1111,2350,0
3157,-1109,2350,0
3155,-1112,2350,0
3152,-1109,2348,0
3147,-1105,2346,0
3146,-1105,2352,0
3148,-1109,2355,0
3150,-1108,2355,0
3153,-1106,2356,0
3151,-1104,2363,0
3152,-1105,2367,0
3154,-1106,2368,0
3153,-1106,2369,0
3151,-1111,2369,0
3149,-1116,2368,0
3147,-1124,2365,0
3149,-1123,2370,0
3151,-1124,2368,0
3149,-1124,2363,0
3152,-1124,2364,0
3151,-1122,2357,0
3151,-1119,2353,0
3149,-1116,2353,0
3151,-1116,2351,0
3150,-1110,2350,0
3151,-1111,2358,0
3156,-1115,2364,0
3164,-1114,2367,0
3169,-1115,2366,0
3169,-1115,2363,0
3171,-1114,2363,0
3171,-1112,2364,0
3167,-1111,2366,0
3164,-1109,2363,0
3160,-1110,2362,0
3159,-1109,2358,0
3155,-1109,2354,0
3156,-1108,2357,0
3158,-1109,2358,0
3157,-1111,2359,0
3158,-1113,2361,0
3156,-1115,2357,0
3159,-1115,2359,0
3167,-1115,2358,0
3170,-1117,2361,0
3171,-1116,2359,0
3168,-1116,2356,0
3168,-1112,2352,0
3164,-1111,2351,0
3162,-1111,2351,0
3159,-1107,2350,0
3158,-1103,2348,0
3156,-1105,2353,0
3157,-1101,2353,0
3157,-1100,2356,0
3160,-1106,2357,0
3163,-1108,2355,0
3171,-1112,2357,0
3174,-1116,2355,0
3173,-1118,2353,0
3173,-1117,2357,0
3172,-1115,2355,0
3168,-1117,2353,0
3167,-1117,2351,0
3163,-1118,2353,0
3160,-1113,2355,0
3159,-1114,2353,0
3159,-1112,2353,0
3158,-1109,2353,0
3153,-1107,2352,0
3155,-1108,2354,0
3158,-1107,2351,0
3158,-1104,2350,0
3151,-1103,2353,0
3157,-1100,2355,0
3159,-1097,2354,0
3157,-1098,2358,0
3160,-1098,2361,0
3160,-1097,2361,0
3162,-1100,2363,0
3165,-1099,2358,0
3165,-1102,2361,0
3169,-1103,2364,0
3168,-1110,2362,0
3173,-1109,2361,0
3176,-1112,2361,0
3180,-1115,2358,0
3179,-1113,2355,0
3177,-1111,2351,0
3170,-1110,2347,0
3164,-1110,2345,0
3161,-1108,2346,0
3155,-1106,2344,0
3153,-1108,2346,0
3154,-1104,2345,0
3152,-1105,2347,0
3159,-1103,2349,0
3158,-1101,2353,0
3161,-1106,2355,0
3164,-1104,2355,0
3168,-1104,2356,0
3170,-1103,2362,0
3168,-1100,2362,0
3164,-1100,2359,0
3166,-1107,2363,0
3167,-1109,2361,0
3171,-1114,2361,0
3174,-1118,2366,0
3177,-1116,2362,0
3175,-1115,2360,0
3175,-1113,2357,0
3173,-1111,2352,0
3173,-1107,2352,0
3169,-1108,2350,0
3162,-1107,2348,0
3162,-1102,2345,0
3163,-1101,2347,0
3165,-1104,2352,0
3161,-1102,2352,0
3162,-1104,2354,0
3171,-1108,2351,0
3173,-1108,2351,0
3173,-1107,2356,0
3174,-1109,2360,0
3171,-1108,2360,0
3172,-1110,2359,0
3164,-1108,2357,0
3162,-1108,2352,0
3157,-1107,2350,0
3153,-1107,2346,0
3156,-1107,2346,0
3151,-1107,2353,0
3155,-1110,2361,0
3155,-1109,2363,0
3156,-1110,2364,0
3154,-1114,2362,0
3154,-1113,2363,0
3153,-1113,2361,0
3157,-1114,2361,0
3154,-1108,2358,0
3156,-1110,2350,0
3157,-1110,2348,0
3155,-1108,2348,0
3155,-1111,2352,0
3155,-1113,2354,0
3158,-1111,2357,0
3160,-1113,2356,0
3159,-1111,2358,0
3160,-1114,2356,0
3164,-1113,2355,0
3166,-1111,2359,0
3170,-1112,2360,0
3172,-1113,2360,0
3173,-1110,2363,0
3175,-1106,2361,0
3171,-1108,2364,0
3163,-1105,2363,0
3158,-1105,2363,0
3156,-1106,2360,0
3151,-1108,2358,0
3153,-1110,2355,0
3154,-1108,2355,0
3160,-1109,2359,0
3167,-1111,2357,0
3165,-1106,2358,0
3170,-1110,2362,0
3175,-1112,2364,0
3175,-1111,2365,0
3180,-1111,2366,0
3179,-1113,2368,0
3176,-1113,2369,0
3172,-1114,2369,0
3163,-1113,2367,0
3158,-1114,2365,0
3153,-1116,2359,0
3147,-1119,2352,0
3146,-1123,2350,0
3143,-1121,2352,0
3139,-1124,2349,0
3137,-1130,2350,0
3136,-1128,2351,0
3138,-1127,2355,0
3141,-1124,2358,0
3138,-1123,2362,0
3139,-1123,2364,0
3142,-1121,2364,0
3143,-1123,2362,0
3146,-1121,2361,0
3146,-1120,2360,0
3146,-1121,2360,0
3146,-1118,2357,0
3146,-1118,2356,0
3146,-1116,2353,0
3146,-1115,2350,0
3152,-1115,2354,0
3154,-1116,2356,0
3158,-1114,2358,0
3160,-1111,2359,0
3162,-1110,2363,0
3164,-1108,2364,0
3168,-1109,2367,0
3170,-1104,2369,0
3169,-1105,2369,0
3164,-1109,2368,0
3164,-1110,2368,0
3162,-1113,2365,0
3159,-1106,2361,0
3157,-1105,2361,0
3151,-1109,2362,0
3151,-1114,2365,0
3144,-1117,2362,0
3142,-1120,2358,0
3145,-1124,2355,0
3141,-1123,2356,0
3135,-1123,2352,0
3129,-1121,2355,0
3127,-1117,2356,0
3128,-1123,2356,0
3132,-1123,2358,0
3135,-1126,2361,0
3140,-1127,2367,0
3146,-1130,2374,0
3154,-1130,2379,0
3159,-1129,2379,0
3163,-1126,2378,0
3163,-1126,2373,0
3168,-1126,2371,0
3168,-1121,2367,0
3161,-1120,2361,0
3158,-1117,2359,0
3154,-1114,2356,0
3154,-1114,2360,0
3154,-1117,2362,0
3151,-1117,2364,0
3152,-1118,2365,0
3153,-1119,2367,0
3154,-1117,2364,0
3151,-1116,2360,0
3151,-1116,2361,0
3149,-1117,2362,0
3151,-1118,2366,0
3152,-1121,2368,0
3149,-1119,2365,0
3151,-1121,2364,0
3155,-1121,2363,0
3156,-1120,2367,0
3156,-1124,2368,0
3155,-1124,2367,0
3159,-1127,2368,0
3161,-1124,2363,0
3153,-1122,2363,0
3150,-1121,2359,0
3146,-1122,2357,0
3147,-1125,2359,0
3145,-1127,2359,0
3143,-1132,2362,0
3143,-1137,2365,0
3145,-1132,2365,0
3149,-1131,2365,0
3149,-1129,2367,0
3145,-1126,2370,0
3143,-1123,2369,0
3139,-1118,2372,0
3140,-1118,2374,0
3141,-1114,2373,0
3144,-1117,2375,0
3147,-1119,2375,0
3151,-1118,2378,0
3154,-1120,2378,0
3157,-1120,2378,0
3152,-1119,2376,0
3149,-1119,2369,0
3149,-1119,2359,0
3148,-1120,2358,0
3149,-1118,2357,0
3148,-1118,2357,0
3146,-1118,2357,0
3146,-1119,2358,0
3148,-1118,2361,0
3150,-1117,2363,0
3153,-1119,2365,0
3154,-1121,2362,0
3158,-1121,2364,0
3160,-1124,2363,0
3154,-1123,2365,0
3153,-1121,2365,0
3149,-1125,2367,0
3147,-1126,2366,0
3144,-1128,2364,0
3144,-1129,2365,0
3145,-1129,2367,0
3146,-1133,2373,0
3151,-1139,2375,0
3151,-1138,2374,0
3150,-1134,2370,0
3146,-1135,2366,0
3147,-1137,2363,0
3145,-1135,2363,0
3142,-1133,2364,0
3142,-1130,2366,0
3139,-1127,2370,0
3140,-1126,2367,0
3142,-1123,2372,0
3143,-1123,2371,0
3145,-1125,2373,0
3149,-1125,2375,0
3146,-1130,2375,0
3147,-1133,2368,0
3150,-1132,2366,0
3150,-1131,2363,0
3152,-1129,2359,0
3146,-1126,2357,0
3140,-1123,2360,0
3143,-1123,2362,0
3143,-1118,2368,0
3146,-1120,2368,0
3147,-1117,2369,0
3155,-1119,2371,0
3161,-1118,2369,0
3161,-1121,2373,0
3161,-1122,2372,0
3157,-1122,2369,0
3156,-1122,2366,0
3154,-1126,2365,0
3150,-1126,2365,0
3146,-1125,2367,0
3142,-1122,2367,0
3144,-1125,2369,0
3142,-1126,2369,0
3140,-1123,2369,0
3141,-1125,2369,0
3143,-1126,2369,0
3144,-1125,2367,0
3143,-1123,2372,0
3141,-1121,2371,0
3138,-1121,2367,0
3137,-1120,2366,0
3136,-1120,2367,0
3137,-1121,2366,0
3136,-1124,2370,0
3138,-1132,2369,0
3141,-1137,2368,0
3141,-1138,2369,0
3141,-1138,2371,0
3140,-1140,2373,0
3140,-1136,2373,0
3143,-1136,2369,0
3149,-1136,2372,0
3149,-1135,2370,0
3149,-1131,2370,0
3148,-1134,2367,0
3146,-1133,2369,0
3145,-1130,2371,0
3149,-1130,2371,0
3152,-1132,2372,0
3151,-1130,2371,0
3147,-1132,2371,0
3144,-1132,2373,0
3143,-1130,2374,0
3144,-1130,2372,0
3143,-1129,2370,0
3141,-1129,2365,0
3139,-1134,2362,0
3139,-1132,2361,0
3141,-1130,2360,0
3142,-1129,2357,0
3148,-1130,2359,0
3157,-1130,2360,0
3165,-1130,2358,0
3170,-1127,2362,0
3171,-1122,2367,0
3172,-1123,2372,0
3171,-1124,2376,0
3170,-1127,2376,0
3170,-1129,2375,0
3168,-1130,2375,0
3162,-1130,2374,0
3157,-1133,2372,0
3148,-1131,2367,0
3143,-1132,2363,0
3135,-1131,2364,0
3131,-1133,2363,0
3124,-1133,2362,0
3119,-1130,2362,0
3119,-1133,2368,0
3116,-1135,2374,0
3117,-1135,2370,0
3119,-1137,2371,0
3126,-1136,2371,0
3130,-1139,2375,0
3135,-1137,2372,0
3138,-1141,2374,0
3136,-1141,2376,0
3139,-1141,2374,0
3135,-1140,2373,0
3135,-1138,2370,0
3132,-1135,2369,0
3130,-1132,2368,0
3129,-1133,2366,0
3129,-1135,2364,0
3128,-1133,2367,0
3131,-1133,2369,0
3134,-1131,2367,0
3138,-1129,2370,0
3137,-1129,2370,0
3140,-1130,2370,0
3142,-1132,2373,0
3144,-1132,2375,0
3148,-1130,2377,0
3148,-1127,2375,0
3152,-1130,2375,0
3152,-1131,2372,0
3152,-1132,2373,0
3152,-1133,2371,0
3148,-1136,2371,0
3146,-1135,2369,0
3141,-1134,2368,0
3135,-1133,2367,0
3134,-1129,2366,0
3131,-1132,2368,0
3126,-1132,2369,0
3124,-1131,2372,0
3121,-1131,2371,0
3120,-1133,2372,0
3124,-1131,2375,0
3126,-1131,2377,0
3127,-1134,2374,0
3129,-1139,2379,0
3134,-1140,2380,0
3137,-1140,2381,0
3139,-1144,2383,0
3141,-1141,2379,0
3138,-1142,2374,0
3138,-1142,2376,0
3133,-1138,2376,0
3140,-1138,2378,0
3138,-1139,2377,0
3139,-1139,2382,0
3142,-1141,2382,0
3146,-1139,2381,0
3148,-1142,2377,0
3152,-1140,2371,0
3152,-1135,2366,0
3147,-1130,2363,0
3145,-1127,2364,0
3141,-1130,2366,0
3139,-1130,2366,0
3140,-1133,2369,0
3141,-1134,2369,0
3138,-1133,2368,0
3139,-1132,2370,0
3139,-1135,2370,0
3139,-1134,2370,0
3137,-1135,2374,0
3137,-1137,2372,0
3139,-1138,2374,0
3143,-1138,2376,0
3138,-1136,2373,0
3135,-1136,2371,0
3138,-1136,2368,0
3138,-1135,2373,0
3139,-1136,2376,0
3142,-1133,2382,0
3140,-1132,2380,0
3141,-1135,2378,0
3141,-1135,2373,0
3138,-1136,2371,0
3133,-1133,2370,0
3131,-1132,2370,0
3132,-1134,2372,0
3130,-1136,2374,0
3132,-1137,2376,0
3135,-1143,2375,0
3139,-1142,2375,0
3143,-1141,2377,0
3143,-1142,2377,0
3143,-1138,2377,0
3140,-1138,2378,0
3140,-1136,2378,0
3140,-1135,2379,0
3138,-1133,2376,0
3137,-1130,2375,0
3136,-1129,2375,0
3137,-1128,2377,0
3135,-1128,2375,0
3133,-1127,2374,0
3131,-1131,2374,0
3130,-1131,2375,0
3131,-1132,2376,0
3130,-1131,2372,0
3133,-1136,2376,0
3132,-1136,2375,0
3133,-1136,2373,0
3136,-1137,2374,0
3138,-1137,2373,0
3138,-1140,2373,0
3136,-1144,2373,0
3140,-1148,2365,0
3143,-1148,2366,0
3140,-1144,2367,0
3142,-1146,2367,0
3139,-1143,2371,0
3139,-1144,2368,0
3139,-1143,2370,0
3141,-1139,2371,0
3140,-1138,2376,0
3139,-1137,2376,0
3139,-1134,2378,0
3138,-1131,2378,0
3135,-1130,2380,0
3137,-1129,2382,0
3138,-1130,2382,0
3138,-1132,2382,0
3139,-1136,2382,0
3135,-1140,2383,0
3132,-1142,2382,0
3131,-1144,2380,0
3134,-1145,2378,0
3133,-1143,2374,0
3128,-1139,2378,0
3134,-1142,2378,0
3133,-1141,2375,0
3135,-1138,2375,0
3136,-1132,2373,0
3139,-1132,2372,0
3146,-1131,2370,0
3145,-1128,2372,0
3144,-1124,2376,0
3147,-1122,2379,0
3147,-1125,2380,0
3145,-1125,2379,0
3144,-1131,2376,0
3140,-1130,2373,0
3138,-1128,2368,0
3135,-1127,2371,0
3131,-1127,2373,0
3131,-1131,2369,0
3130,-1135,2370,0
3130,-1135,2370,0
3133,-1136,2370,0
3135,-1133,2373,0
3138,-1136,2376,0
3140,-1139,2378,0
3139,-1142,2378,0
3139,-1139,2372,0
3137,-1139,2367,0
3135,-1143,2364,0
3139,-1146,2365,0
3139,-1146,2365,0
3137,-1149,2367,0
3138,-1147,2366,0
3138,-1146,2367,0
3140,-1142,2365,0
3141,-1139,2367,0
3145,-1139,2366,0
3143,-1136,2368,0
3143,-1133,2372,0
3141,-1130,2372,0
3139,-1131,2372,0
3141,-1133,2375,0
3142,-1136,2378,0
3142,-1134,2379,0
3141,-1135,2377,0
3142,-1131,2373,0
3139,-1135,2373,0
3138,-1132,2371,0
3131,-1132,2372,0
3130,-1134,2371,0
3128,-1139,2370,0
3126,-1146,2373,0
3128,-1146,2375,0
3132,-1146,2377,0
3134,-1144,2372,0
3137,-1142,2376,0
3138,-1144,2374,0
3142,-1139,2376,0
3147,-1136,2379,0
3154,-1133,2376,0
3153,-1129,2375,0
3155,-1128,2375,0
3154,-1127,2376,0
3151,-1129,2378,0
3152,-1128,2377,0
3149,-1129,2378,0
3149,-1130,2379,0
3151,-1134,2383,0
3151,-1138,2380,0
3148,-1142,2379,0
3141,-1143,2374,0
3138,-1143,2375,0
3134,-1144,2375,0
3131,-1144,2379,0
3128,-1142,2376,0
3123,-1142,2370,0
3124,-1138,2371,0
3121,-1140,2369,0
3119,-1140,2367,0
3117,-1139,2367,0
3117,-1134,2366,0
3117,-1137,2366,0
3118,-1135,2370,0
3118,-1137,2375,0
3120,-1132,2377,0
3125,-1133,2377,0
3130,-1132,2379,0
3139,-1131,2382,0
3138,-1132,2381,0
3143,-1130,2383,0
3143,-1131,2381,0
3147,-1135,2381,0
3149,-1135,2381,0
3151,-1135,2374,0
3148,-1135,2375,0
3149,-1136,2375,0
3151,-1135,2375,0
3151,-1129,2370,0
3147,-1128,2370,0
3146,-1130,2370,0
3147,-1128,2368,0
3145,-1128,2367,0
3142,-1130,2366,0
3137,-1134,2368,0
3127,-1132,2370,0
3123,-1128,2371,0
3124,-1126,2374,0
3121,-1126,2373,0
3120,-1121,2374,0
3122,-1122,2377,0
3124,-1122,2381,0
3130,-1126,2382,0
3131,-1131,2381,0
3131,-1131,2382,0
3134,-1134,2380,0
3139,-1134,2381,0
3144,-1142,2384,0
3147,-1145,2383,0
3149,-1144,2382,0
3147,-1143,2383,0
3147,-1144,2380,0
3145,-1145,2380,0
3146,-1143,2378,0
3142,-1143,2372,0
3138,-1143,2371,0
3137,-1138,2365,0
3135,-1136,2362,0
3133,-1136,2364,0
3128,-1133,2367,0
3125,-1128,2367,0
3126,-1128,2370,0
3127,-1128,2371,0
3129,-1124,2373,0
3132,-1121,2374,0
3136,-1121,2379,0
3138,-1116,2379,0
3141,-1117,2381,0
3144,-1120,2383,0
3142,-1119,2380,0
3147,-1124,2378,0
3141,-1129,2376,0
3147,-1129,2377,0
3150,-1132,2376,0
3154,-1131,2384,0
3153,-1134,2384,0
3155,-1134,2382,0
3154,-1136,2378,0
3153,-1135,2374,0
3148,-1135,2368,0
3147,-1134,2363,0
3143,-1134,2362,0
3141,-1132,2361,0
3140,-1127,2359,0
3141,-1124,2358,0
3139,-1126,2358,0
3141,-1125,2359,0
3139,-1120,2359,0
3136,-1120,2363,0
3137,-1120,2366,0
3135,-1119,2370,0
3139,-1117,2372,0
3138,-1121,2373,0
3141,-1125,2373,0
3143,-1127,2379,0
3148,-1126,2385,0
3152,-1127,2385,0
3155,-1130,2385,0
3158,-1129,2383,0
3161,-1130,2380,0
3157,-1130,2380,0
3154,-1130,2377,0
3152,-1128,2373,0
3148,-1124,2369,0
3142,-1126,2367,0
3136,-1125,2364,0
3130,-1122,2362,0
3128,-1125,2358,0
3130,-1128,2360,0
3133,-1128,2361,0
3129,-1126,2366,0
3134,-1127,2367,0
3137,-1123,2365,0
3140,-1122,2367,0
3141,-1125,2367,0
3142,-1130,2370,0
3141,-1131,2371,0
3146,-1134,2372,0
3147,-1135,2372,0
3149,-1132,2370,0
3149,-1132,2371,0
3148,-1129,2371,0
3147,-1130,2370,0
3145,-1124,2367,0
3144,-1123,2365,0
3143,-1121,2362,0
3142,-1124,2362,0
3142,-1124,2364,0
3143,-1125,2366,0
3148,-1123,2367,0
3148,-1125,2368,0
3147,-1123,2369,0
3151,-1123,2370,0
3152,-1123,2372,0
3153,-1123,2369,0
3151,-1122,2368,0
3151,-1124,2369,0
3151,-1125,2369,0
3150,-1127,2367,0
3153,-1125,2363,0
3152,-1127,2362,0
3153,-1127,2364,0
3154,-1124,2365,0
3152,-1124,2362,0
3147,-1118,2360,0
3147,-1116,2356,0
3144,-1112,2359,0
3144,-1114,2360,0
3146,-1112,2363,0
3149,-1112,2365,0
3150,-1112,2370,0
3150,-1114,2366,0
3148,-1113,2367,0
3150,-1116,2367,0
3148,-1118,2370,0
3149,-1121,2371,0
3150,-1125,2371,0
3151,-1128,2373,0
3153,-1130,2373,0
3153,-1130,2373,0
3153,-1130,2373,0
3153,-1131,2370,0
3157,-1128,2372,0
3160,-1127,2376,0
3165,-1127,2376,0
3161,-1123,2371,0
3157,-1120,2364,0
3153,-1119,2362,0
3149,-1120,2357,0
3141,-1121,2359,0
3143,-1118,2361,0
3143,-1118,2362,0
3142,-1113,2356,0
3142,-1113,2357,0
3140,-1117,2357,0
3141,-1120,2358,0
3142,-1118,2356,0
3142,-1117,2360,0
3144,-1116,2363,0
3148,-1117,2365,0
3151,-1118,2367,0
3159,-1123,2365,0
3166,-1123,2363,0
3169,-1122,2364,0
3171,-1125,2365,0
3172,-1126,2367,0
3171,-1126,2365,0
3170,-1121,2361,0
3166,-1119,2362,0
3161,-1117,2358,0
3159,-1114,2359,0
3155,-1112,2360,0
3153,-1110,2356,0
3151,-1107,2355,0
3147,-1109,2355,0
3144,-1110,2355,0
3143,-1113,2358,0
3149,-1114,2355,0
3156,-1113,2355,0
3162,-1112,2360,0
3167,-1112,2360,0
3172,-1114,2363,0
3177,-1113,2364,0
3178,-1113,2365,0
3180,-1114,2373,0
3179,-1116,2380,0
3173,-1116,2379,0
3167,-1111,2378,0
3165,-1114,2371,0
3164,-1118,2369,0
3155,-1116,2367,0
3152,-1122,2366,0
3145,-1122,2363,0
3143,-1120,2363,0
3138,-1117,2365,0
3135,-1116,2360,0
3131,-1115,2360,0
3134,-1116,2356,0
3132,-1118,2354,0
3132,-1117,2352,0
3141,-1117,2353,0
3140,-1117,2354,0
3142,-1116,2353,0
3146,-1116,2350,0
3150,-1113,2352,0
3151,-1113,2354,0
3150,-1114,2361,0
3154,-1114,2367,0
3158,-1114,2369,0
3163,-1110,2365,0
3167,-1111,2366,0
3172,-1110,2369,0
3176,-1108,2367,0
3177,-1107,2366,0
3178,-1105,2365,0
3175,-1111,2367,0
3181,-1113,2369,0
3176,-1116,2368,0
3175,-1112,2368,0
3172,-1113,2362,0
3169,-1113,2357,0
3162,-1111,2353,0
3158,-1108,2348,0
3154,-1110,2346,0
3151,-1109,2351,0
3149,-1108,2354,0
3147,-1113,2351,0
3144,-1115,2354,0
3139,-1113,2356,0
3135,-1114,2362,0
3136,-1119,2365,0
3133,-1121,2366,0
3136,-1120,2369,0
3139,-1123,2367,0
3145,-1123,2366,0
3148,-1125,2367,0
3156,-1121,2364,0
3160,-1119,2364,0
3164,-1111,2364,0
3162,-1106,2363,0
3164,-1108,2364,0
3168,-1113,2364,0
3167,-1114,2367,0
3163,-1115,2368,0
3161,-1115,2367,0
3162,-1114,2362,0
3159,-1120,2361,0
3160,-1120,2365,0
3158,-1119,2365,0
3159,-1118,2367,0
3158,-1120,2367,0
3159,-1118,2368,0
3159,-1117,2367,0
3157,-1117,2371,0
3153,-1116,2373,0
3149,-1117,2371,0
3152,-1115,2374,0
3153,-1117,2370,0
3152,-1116,2373,0
3151,-1115,2368,0
3148,-1120,2365,0
3150,-1116,2362,0
3146,-1115,2363,0
3145,-1117,2363,0
3142,-1120,2361,0
3139,-1123,2356,0
3138,-1125,2357,0
3139,-1126,2357,0
3142,-1125,2361,0
3146,-1127,2366,0
3150,-1129,2367,0
3151,-1128,2369,0
3153,-1131,2375,0
3158,-1129,2374,0
3156,-1128,2377,0
3158,-1127,2374,0
3156,-1124,2372,0
3155,-1124,2372,0
3159,-1121,2373,0
3154,-1117,2369,0
3152,-1118,2366,0
3149,-1115,2363,0
3150,-1111,2358,0
3150,-1109,2359,0
3154,-1107,2362,0
3156,-1108,2364,0
3151,-1112,2372,0
3151,-1114,2371,0
3152,-1115,2373,0
3152,-1119,2372,0
3149,-1123,2367,0
3146,-1121,2366,0
3144,-1124,2363,0
3144,-1123,2363,0
3145,-1123,2364,0
3140,-1122,2365,0
3143,-1119,2368,0
3143,-1121,2369,0
3146,-1124,2372,0
3145,-1122,2374,0
3146,-1122,2375,0
3144,-1123,2373,0
3144,-1126,2376,0
3144,-1130,2375,0
3146,-1129,2372,0
3146,-1128,2367,0
3146,-1126,2368,0
3146,-1126,2369,0
3147,-1129,2367,0
3144,-1127,2365,0
3146,-1127,2366,0
3144,-1127,2369,0
3144,-1126,2369,0
3143,-1129,2366,0
3148,-1127,2364,0
3145,-1126,2365,0
3145,-1126,2369,0
3145,-1129,2373,0
3145,-1126,2375,0
3145,-1125,2372,0
3147,-1123,2372,0
3144,-1122,2374,0
3142,-1118,2375,0
3139,-1118,2375,0
3138,-1118,2376,0
3136,-1120,2376,0
3139,-1121,2376,0
3140,-1119,2373,0
3141,-1119,2371,0
3141,-1120,2372,0
3142,-1124,2375,0
3146,-1129,2372,0
3145,-1131,2370,0
3145,-1135,2371,0
3145,-1134,2368,0
3145,-1128,2368,0
3142,-1128,2368,0
3140,-1126,2372,0
3142,-1126,2376,0
3143,-1127,2375,0
3142,-1126,2378,0
3140,-1127,2377,0
3142,-1128,2374,0
3143,-1131,2371,0
3144,-1131,2371,0
3144,-1131,2374,0
3144,-1134,2374,0
3147,-1134,2372,0
3146,-1134,2372,0
3145,-1135,2373,0
3149,-1136,2376,0
3149,-1134,2371,0
3150,-1134,2371,0
3150,-1133,2374,0
3150,-1133,2370,0
3149,-1130,2367,0
3147,-1130,2364,0
3144,-1129,2363,0
3143,-1130,2364,0
3144,-1129,2369,0
3146,-1130,2369,0
3149,-1128,2367,0
3145,-1128,2366,0
3143,-1125,2362,0
3142,-1123,2358,0
3141,-1124,2361,0
3137,-1123,2362,0
3140,-1121,2366,0
3143,-1122,2369,0
3149,-1121,2372,0
3150,-1122,2378,0
3150,-1120,2375,0
3155,-1118,2375,0
3151,-1121,2376,0
3151,-1119,2378,0
3150,-1120,2377,0
3151,-1122,2377,0
3146,-1124,2378,0
3147,-1127,2376,0
3146,-1126,2374,0
3142,-1127,2372,0
3141,-1128,2372,0
3136,-1129,2370,0
3132,-1133,2368,0
3133,-1132,2371,0
3133,-1132,2371,0
3136,-1132,2373,0
3140,-1133,2371,0
3150,-1130,2375,0
3151,-1127,2379,0
3155,-1126,2379,0
3159,-1128,2379,0
3168,-1127,2380,0
3169,-1129,2380,0
3169,-1130,2381,0
3162,-1132,2380,0
3155,-1133,2378,0
3155,-1130,2377,0
3148,-1130,2375,0
3145,-1129,2374,0
3139,-1126,2370,0
3134,-1128,2366,0
3132,-1129,2363,0
3125,-1131,2360,0
3122,-1134,2364,0
3117,-1133,2367,0
3112,-1133,2367,0
3111,-1134,2366,0
3110,-1136,2367,0
3116,-1136,2368,0
3122,-1135,2368,0
3123,-1137,2373,0
3127,-1139,2376,0
3132,-1140,2376,0
3136,-1139,2377,0
3143,-1140,2382,0
3147,-1136,2381,0
3148,-1138,2379,0
3150,-1136,2379,0
3150,-1131,2375,0
3148,-1130,2373,0
3143,-1129,2374,0
3143,-1124,2369,0
3140,-1126,2369,0
3139,-1128,2369,0
3137,-1130,2368,0
3136,-1131,2369,0
3139,-1130,2371,0
3138,-1134,2371,0
3135,-1133,2370,0
3135,-1133,2373,0
3135,-1134,2376,0
3134,-1132,2376,0
3134,-1133,2377,0
3132,-1131,2380,0
3135,-1129,2377,0
3131,-1128,2380,0
3131,-1126,2379,0
3133,-1127,2379,0
3134,-1124,2383,0
3138,-1128,2385,0
3137,-1130,2384,0
3135,-1134,2385,0
3137,-1134,2380,0
3139,-1137,2380,0
3139,-1137,2377,0
3142,-1137,2374,0
3144,-1138,2368,0
3139,-1136,2365,0
3140,-1135,2366,0
3136,-1138,2368,0
3129,-1137,2371,0
3123,-1138,2372,0
3121,-1138,2372,0
3124,-1138,2375,0
3125,-1140,2378,0
3129,-1139,2378,0
3134,-1137,2380,0
3138,-1139,2387,0
3140,-1135,2388,0
3140,-1133,2389,0
3142,-1131,2391,0
3141,-1131,2391,0
3142,-1132,2390,0
3141,-1132,2390,0
3145,-1131,2386,0
3147,-1130,2385,0
3147,-1132,2385,0
3144,-1132,2382,0
3141,-1134,2380,0
3140,-1134,2379,0
3135,-1135,2375,0
3131,-1136,2372,0
3131,-1136,2369,0
3130,-1138,2368,0
3130,-1140,2370,0
3131,-1146,2375,0
3132,-1149,2378,0
3133,-1148,2378,0
3129,-1147,2376,0
3128,-1148,2376,0
3130,-1149,2376,0
3132,-1153,2378,0
3134,-1151,2377,0
3139,-1148,2379,0
3141,-1148,2378,0
3144,-1143,2378,0
3145,-1141,2376,0
3147,-1134,2377,0
3144,-1133,2380,0
3141,-1133,2381,0
3141,-1127,2378,0
3139,-1131,2376,0
3137,-1130,2377,0
3134,-1130,2376,0
3128,-1132,2377,0
3124,-1136,2374,0
3123,-1138,2376,0
3121,-1136,2374,0
3124,-1137,2377,0
3129,-1136,2378,0
3130,-1136,2379,0
3132,-1137,2377,0
3136,-1132,2376,0
3135,-1131,2376,0
3137,-1131,2381,0
3138,-1134,2382,0
3138,-1132,2384,0
3140,-1131,2385,0
3145,-1130,2383,0
3141,-1133,2380,0
3137,-1139,2377,0
3138,-1136,2374,0
3139,-1131,2375,0
3139,-1133,2377,0
3139,-1132,2376,0
3134,-1130,2372,0
3133,-1130,2374,0
3132,-1132,2377,0
3130,-1136,2382,0
3132,-1136,2384,0
3130,-1137,2386,0
3132,-1138,2387,0
3133,-1137,2388,0
3132,-1135,2387,0
3134,-1138,2378,0
3131,-1140,2377,0
3131,-1137,2376,0
3131,-1139,2374,0
3131,-1136,2374,0
3132,-1134,2370,0
3128,-1132,2372,0
3132,-1133,2370,0
3136,-1132,2372,0
3140,-1132,2377,0
3138,-1132,2378,0
3139,-1132,2379,0
3141,-1134,2383,0
3144,-1136,2384,0
3148,-1131,2384,0
3147,-1128,2379,0
3144,-1130,2380,0
3144,-1134,2378,0
3142,-1134,2375,0
3140,-1132,2376,0
3137,-1134,2374,0
3136,-1134,2376,0
3133,-1137,2377,0
3133,-1137,2378,0
3129,-1134,2375,0
3130,-1132,2376,0
3126,-1135,2376,0
3130,-1135,2371,0
3133,-1140,2375,0
3133,-1143,2378,0
3138,-1150,2379,0
3145,-1149,2379,0
3150,-1146,2377,0
3154,-1142,2375,0
3153,-1142,2372,0
3148,-1140,2370,0
3145,-1140,2369,0
3137,-1141,2374,0
3134,-1140,2373,0
3135,-1139,2373,0
3129,-1140,2374,0
3124,-1138,2379,0
3126,-1140,2381,0
3132,-1138,2381,0
3134,-1139,2384,0
3137,-1141,2384,0
3139,-1139,2386,0
3134,-1139,2382,0
3133,-1142,2379,0
3139,-1139,2376,0
3140,-1139,2375,0
3141,-1140,2373,0
3141,-1142,2372,0
3139,-1137,2374,0
3141,-1141,2375,0
3141,-1135,2373,0
3141,-1136,2372,0
3140,-1131,2371,0
3138,-1130,2369,0
3139,-1130,2369,0
3139,-1129,2373,0
3139,-1129,2369,0
3140,-1131,2369,0
3141,-1135,2375,0
3145,-1137,2380,0
3148,-1138,2383,0
3151,-1138,2383,0
3152,-1136,2386,0
3150,-1134,2383,0
3146,-1129,2382,0
3145,-1125,2376,0
3145,-1129,2374,0
3141,-1125,2372,0
3142,-1125,2372,0
3143,-1126,2371,0
3147,-1119,2373,0
3149,-1118,2371,0
3145,-1117,2370,0
3148,-1112,2370,0
3150,-1106,2371,0
3147,-1105,2377,0
3148,-1106,2383,0
3148,-1108,2384,0
3146,-1105,2383,0
3147,-1106,2380,0
3143,-1110,2379,0
3142,-1114,2380,0
3140,-1122,2382,0
3134,-1124,2382,0
3129,-1124,2385,0
3128,-1129,2384,0
3126,-1130,2387,0
3122,-1129,2386,0
3119,-1126,2386,0
3121,-1127,2385,0
3116,-1133,2384,0
3117,-1130,2385,0
3117,-1128,2388,0
3119,-1131,2387,0
3119,-1124,2388,0
3120,-1120,2384,0
3120,-1122,2383,0
3119,-1125,2385,0
3118,-1120,2387,0
3121,-1118,2398,0
3127,-1129,2403,0
3135,-1139,2402,0
3146,-1148,2399,0
3148,-1153,2389,0
3147,-1151,2387,0
3145,-1147,2381,0
3139,-1146,2376,0
3135,-1143,2372,0
3134,-1146,2363,0
3133,-1144,2361,0
3129,-1137,2368,0
3128,-1136,2373,0
3126,-1134,2374,0
3126,-1133,2380,0
3128,-1136,2381,0
3129,-1133,2388,0
3138,-1139,2392,0
3133,-1138,2394,0
3132,-1142,2392,0
3128,-1140,2394,0
3121,-1144,2391,0
3121,-1147,2390,0
3121,-1148,2392,0
3120,-1148,2392,0
3119,-1147,2392,0
3116,-1148,2389,0
3114,-1149,2388,0
3114,-1148,2384,0
3117,-1146,2388,0
3121,-1148,2385,0
3130,-1142,2388,0
3133,-1140,2386,0
3135,-1124,2395,0
3134,-1119,2396,0
3134,-1108,2398,0
3136,-1098,2394,0
3138,-1101,2384,0
3145,-1108,2380,0
3156,-1106,2376,0
3158,-1112,2371,0
3161,-1117,2377,0
3161,-1120,2375,0
3168,-1118,2377,0
3173,-1123,2376,0
3177,-1127,2370,0
3174,-1119,2370,0
3165,-1119,2367,0
3158,-1110,2371,0
3146,-1109,2374,0
3135,-1106,2372,0
3132,-1105,2377,0
3128,-1109,2385,0
3127,-1120,2385,0
3129,-1120,2382,0
3132,-1130,2383,0
3132,-1131,2389,0
3128,-1137,2386,0
3121,-1116,2397,0
3113,-1111,2396,0
3115,-1104,2407,0
3118,-1118,2391,0
3126,-1115,2384,0
3132,-1119,2376,0
3134,-1109,2378,0
3131,-1102,2379,0
3129,-1092,2395,0
3119,-1102,2389,0
3113,-1093,2400,0
3110,-1090,2411,0
3112,-1109,2402,0
3117,-1119,2395,0
3124,-1134,2379,0
3130,-1140,2378,0
3134,-1154,2373,0
3134,-1153,2379,0
3137,-1159,2383,0
3141,-1163,2388,0
3146,-1162,2391,0
3152,-1162,2393,0
3154,-1155,2394,0
3145,-1156,2401,0
3135,-1160,2405,0
3132,-1139,2406,0
3130,-1128,2406,0
3143,-1098,2418,0
3141,-1096,2417,0
3149,-1069,2429,0
3143,-1083,2422,0
3142,-1077,2421,0
3132,-1073,2415,0
3131,-1065,2414,0
3117,-1098,2399,0
3115,-1097,2400,0
3115,-1098,2406,0
3124,-1101,2408,0
3136,-1112,2400,0
3133,-1124,2388,0
3134,-1112,2391,0
3141,-1119,2391,0
3151,-1113,2395,0
3149,-1124,2388,0
3142,-1139,2376,0
3143,-1152,2370,0
3140,-1147,2371,0
3140,-1148,2372,0
3150,-1125,2377,0
3196,-1062,2397,0
3132,-1138,2370,0
3068,-1163,2378,0
3030,-1163,2374,0
3021,-1168,2375,0
3041,-1155,2379,0
3062,-1153,2382,0
3070,-1152,2397,0
3063,-1151,2416,0
3053,-1151,2433,0
3048,-1156,2438,0
3055,-1155,2448,0
3071,-1160,2461,0
3098,-1174,2464,0
3127,-1179,2465,0
3153,-1175,2467,0
3180,-1169,2459,0
3202,-1171,2476,0
3215,-1161,2470,0
3219,-1152,2465,0
3211,-1137,2456,0
3200,-1107,2455,0
3205,-1068,2447,0
3151,-1090,2431,0
3131,-1052,2438,0
3145,-1002,2432,0
3177,-976,2425,0
3209,-946,2430,0
3218,-959,2419,0
3226,-935,2423,0
3225,-940,2420,0
3220,-941,2411,0
3206,-949,2389,0
3185,-959,2376,0
3152,-967,2343,0
3124,-987,2330,0
3107,-999,2313,0
3108,-1004,2297,0
3118,-993,2292,0
3122,-982,2296,0
3121,-964,2306,0
3116,-936,2336,0
3117,-900,2368,0
3163,-840,2425,0
3171,-897,2408,0
3189,-883,2431,0
3206,-875,2442,0
3219,-877,2454,0
3216,-876,2456,0
3203,-881,2445,0
3190,-875,2462,0
3182,-896,2458,0
3168,-908,2465,0
3128,-924,2441,0
3112,-943,2435,0
3099,-927,2428,0
3130,-970,2449,0
3119,-926,2418,0
3117,-860,2418,0
3121,-867,2433,0
3128,-854,2456,0
3122,-866,2470,0
3125,-843,2447,0
3131,-831,2443,0
3141,-806,2449,0
3147,-820,2458,0
3154,-837,2444,0
3159,-826,2423,0
3206,-802,2438,0
3173,-844,2360,0
3155,-807,2358,0
3166,-769,2357,0
3170,-722,2380,0
3173,-674,2406,0
3191,-611,2427,0
3230,-532,2428,0
3276,-510,2453,0
3323,-487,2472,0
3344,-488,2437,0
3368,-413,2495,0
3373,-397,2484,0
3363,-337,2477,0
3368,-295,2464,0
3382,-272,2519,0
3423,-255,2570,0
3427,-246,2580,0
3457,-205,2625,0
3508,-181,2633,0
3548,-157,2630,0
3573,-158,2673,0
3544,-237,2668,0
3539,-212,2712,0
3517,-191,2782,0
3483,-183,2834,0
3370,-209,2820,0
3339,-256,2750,0
3310,-309,2918,0
3240,-366,2977,0
3161,-390,2933,0
3136,-395,3021,0
3308,-280,3256,0
3008,-576,3106,0
2847,-503,3166,0
2766,-511,3009,0
2840,-520,3035,0
2888,-543,3037,0
2899,-622,2967,0
2894,-691,2900,0
2940,-683,2938,0
2773,-778,2849,0
2623,-821,2709,0
2555,-569,2851,0
2665,-1000,2755,0
2602,-1002,2724,0
2576,-867,2742,0
2516,-800,2634,0
2412,-771,2574,0
2401,-714,2569,0
2351,-743,2558,0
2372,-832,2547,0
2382,-856,2558,0
2428,-867,2513,0
2468,-1020,2551,0
2587,-1076,2636,0
2658,-1146,2513,0
2684,-1138,2492,0
2822,-981,2780,0
2943,-1518,2585,0
2848,-1408,2441,0
2852,-1260,2403,0
2872,-1165,2390,0
2899,-1087,2376,0
2933,-1080,2364,0
2976,-1078,2362,0
2999,-1063,2345,0
3039,-1076,2332,0
3089,-1085,2306,0
3138,-1087,2286,0
3180,-1085,2272,0
3238,-1097,2271,0
3294,-1089,2256,0
3318,-1097,2281,0
3324,-1114,2270,0
3331,-1107,2267,0
3338,-1129,2272,0
3343,-1125,2282,0
3332,-1130,2297,0
3345,-1159,2293,0
3359,-1164,2310,0
3369,-1182,2318,0
3394,-1201,2343,0
3415,-1206,2373,0
3422,-1233,2385,0
3414,-1237,2399,0
3404,-1238,2397,0
3374,-1228,2400,0
3343,-1209,2389,0
3303,-1205,2387,0
3330,-1209,2370,0
3209,-1272,2382,0
3161,-1322,2366,0
3120,-1345,2380,0
3090,-1403,2339,0
3039,-1466,2301,0
2997,-1472,2292,0
2943,-1494,2296,0
2899,-1514,2287,0
2860,-1531,2325,0
2813,-1565,2354,0
2764,-1602,2355,0
2722,-1636,2340,0
2684,-1647,2334,0
2662,-1680,2272,0
2650,-1668,2268,0
2643,-1697,2230,0
2639,-1684,2244,0
2638,-1679,2252,0
2641,-1676,2270,0
2651,-1687,2280,0
2666,-1662,2326,0
2741,-1654,2338,0
2734,-1586,2330,0
2663,-1649,2287,0
2662,-1623,2283,0
2736,-1577,2251,0
2810,-1522,2223,0
2848,-1487,2205,0
2925,-1466,2184,0
3002,-1458,2192,0
3117,-1438,2216,0
3252,-1435,2262,0
3357,-1434,2280,0
3430,-1395,2287,0
3474,-1360,2289,0
3506,-1350,2298,0
3507,-1351,2319,0
3518,-1335,2352,0
3546,-1289,2400,0
3557,-1220,2442,0
3549,-1182,2495,0
3540,-1139,2536,0
3520,-1085,2568,0
3498,-1023,2594,0
3469,-982,2613,0
3428,-926,2661,0
3384,-868,2711,0
3337,-794,2786,0
3291,-756,2854,0
3264,-737,2909,0
3229,-717,2941,0
3150,-656,2987,0
3114,-628,3053,0
3063,-674,3055,0
3009,-678,3076,0
2965,-689,3101,0
2893,-813,3157,0
2804,-824,3183,0
2604,-703,3179,0
2585,-653,3277,0
2557,-806,3227,0
2508,-879,3250,0
2489,-983,3256,0
2517,-1036,3260,0
2603,-1081,3324,0
2620,-1172,3324,0
2437,-924,3321,0
2652,-1313,3268,0
2709,-1242,3114,0
2821,-1234,3174,0
2692,-1390,3043,0
2578,-1445,2924,0
2529,-1428,2881,0
2575,-1393,2866,0
2561,-1303,2939,0
2508,-1472,3009,0
2690,-1429,2909,0
2884,-1334,2834,0
2940,-1395,2854,0
2974,-1425,2923,0
2976,-1392,2903,0
2957,-1370,2820,0
2960,-1287,2794,0
2907,-1268,2744,0
2866,-1346,2631,0
2831,-1355,2615,0
2628,-973,2809,0
2869,-1219,2614,0
2895,-1090,2416,0
2922,-1186,2363,0
2965,-1234,2460,0
3013,-1208,2547,0
3075,-1251,2541,0
3146,-1289,2564,0
3211,-1270,2593,0
3245,-1188,2632,0
3286,-1180,2614,0
3301,-1063,2732,0
3421,-1150,2544,0
3417,-954,2739,0
3545,-882,2538,0
3526,-770,2273,0
3515,-712,2270,0
3494,-648,2285,0
3459,-592,2302,0
3400,-547,2337,0
3342,-488,2352,0
3349,-447,2365,0
3374,-459,2384,0
3379,-456,2437,0
3387,-457,2475,0
3405,-528,2458,0
3400,-402,2480,0
3407,-375,2438,0
3436,-384,2406,0
3504,-395,2372,0
3542,-302,2406,0
3604,-278,2345,0
3661,-143,2348,0
3770,-205,2236,0
3827,-167,2249,0
3800,-135,2226,0
3715,-56,2217,0
3645,164,2347,0
3636,-116,2246,0
3678,-310,2135,0
3725,-352,2180,0
3755,-397,2194,0
3743,-416,2184,0
3715,-437,2235,0
3689,-642,2364,0
3639,-507,1940,0
3593,-497,1880,0
3570,-547,1939,0
3503,-543,1943,0
3389,-495,1917,0
3249,-371,1778,0
3125,-243,1704,0
3030,-182,1673,0
2956,-221,1663,0
2926,-255,1670,0
2895,-263,1706,0
2885,-244,1744,0
2880,-247,1775,0
2944,-240,1742,0
2999,-253,1723,0
3067,-230,1749,0
3129,-211,1740,0
3155,-215,1696,0
3158,-187,1630,0
3176,5,1634,0
3086,-19,1578,0
3057,-20,1531,0
3054,35,1492,0
3077,91,1499,0
3095,126,1524,0
3131,103,1591,0
3206,31,1690,0
3296,-70,1781,0
3422,-145,1849,0
3545,-200,1899,0
3617,-275,1873,0
3649,-362,1829,0
3678,-354,1812,0
3684,-310,1809,0
3679,-274,1761,0
3736,-269,1740,0
3730,-114,1722,0
3655,36,1657,0
3567,179,1552,0
3473,317,1476,0
3405,406,1418,0
3393,395,1414,0
3373,392,1413,0
3369,377,1436,0
3386,406,1477,0
3435,395,1518,0
3499,294,1580,0
3555,124,1612,0
3654,-4,1684,0
3753,-134,1736,0
3835,-217,1814,0
3911,-377,1854,0
3976,-461,1921,0
4035,-604,1905,0
4029,-513,1972,0
4034,-467,2024,0
4016,-475,2021,0
3974,-447,2022,0
3942,-366,2036,0
3919,-288,2028,0
3907,-272,2016,0
3903,-265,2018,0
3879,-183,2020,0
3857,-85,2028,0
3856,25,2041,0
3844,92,2035,0
3841,119,2070,0
3786,191,2070,0
3728,213,2066,0
3692,192,2107,0
3710,84,2119,0
3751,3,2163,0
3803,-98,2231,0
3861,-226,2303,0
3912,-318,2319,0
3972,-383,2278,0
3946,-412,2356,0
3951,-457,2394,0
3874,-553,2258,0
3804,-580,2205,0
3765,-592,2227,0
3708,-608,2169,0
3653,-605,2128,0
3601,-587,2084,0
3553,-554,2048,0
3486,-543,1975,0
3429,-527,1902,0
3389,-487,1852,0
3385,-380,1860,0
3402,-357,1864,0
3429,-296,1879,0
3489,-313,1921,0
3528,-326,1886,0
3571,-308,1889,0
3630,-320,1860,0
3683,-333,1859,0
3722,-323,1849,0
3751,-280,1839,0
3761,-262,1819,0
3764,-249,1821,0
3745,-248,1809,0
3703,-221,1813,0
3651,-234,1802,0
3612,-222,1816,0
3575,-207,1786,0
3531,-196,1768,0
3488,-191,1733,0
3462,-168,1746,0
3462,-133,1765,0
3492,-140,1782,0
3516,-140,1777,0
3536,-87,1787,0
3534,-37,1770,0
3585,-19,1781,0
3615,-20,1756,0
3638,32,1764,0
3696,36,1749,0
3723,95,1728,0
3774,128,1722,0
3839,127,1668,0
3859,183,1683,0
3895,208,1659,0
3973,278,1766,0
4067,316,1801,0
4177,249,1788,0
4209,276,1731,0
4255,179,1680,0
4250,145,1654,0
4262,108,1646,0
4239,201,1668,0
4249,207,1601,0
4254,195,1489,0
4235,194,1362,0
4244,135,1267,0
4221,134,1281,0
4216,67,1336,0
4177,43,1462,0
4145,-9,1581,0
4094,-85,1672,0
4038,-141,1731,0
3998,-178,1753,0
4005,-217,1753,0
4025,-200,1743,0
4058,-238,1689,0
4059,-358,1592,0
4019,-437,1521,0
3963,-510,1421,0
3885,-570,1364,0
3755,-565,1341,0
3663,-582,1263,0
3575,-556,1224,0
3552,-552,1258,0
3561,-504,1331,0
3606,-443,1405,0
3669,-395,1450,0
3753,-376,1500,0
3843,-342,1591,0
3935,-334,1685,0
3997,-350,1688,0
4016,-341,1672,0
4043,-327,1690,0
4064,-335,1663,0
4067,-338,1631,0
4054,-337,1572,0
4022,-381,1448,0
4030,-340,1482,0
4036,-350,1450,0
4045,-397,1382,0
4071,-407,1377,0
4114,-441,1354,0
4113,-433,1326,0
4122,-341,1387,0
4112,-310,1359,0
4108,-201,1426,0
4100,-188,1396,0
4066,-235,1305,0
3992,-216,1304,0
3938,-176,1300,0
3857,-138,1260,0
3805,-116,1206,0
3765,-74,1171,0
3747,0,1181,0
3725,81,1186,0
3741,104,1224,0
3753,143,1269,0
3767,196,1297,0
3779,221,1282,0
3777,253,1259,0
3762,256,1234,0
3765,192,1205,0
3776,94,1130,0
3785,61,1116,0
3950,-148,1167,0
4096,-206,1237,0
4117,-64,1297,0
4108,81,1366,0
4079,56,1366,0
4089,-65,1299,0
3970,-54,1196,0
3765,15,1083,0
3577,19,969,0
3443,-51,850,0
3386,-172,712,0
3121,-148,445,0
2992,-98,554,0
3148,-335,604,0
3381,-573,654,0
3634,-732,685,0
3849,-741,814,0
4000,-657,954,0
4128,-560,1025,0
4203,-515,1008,0
4202,-540,941,0
4177,-543,915,0
4125,-503,930,0
4085,-446,977,0
4032,-388,1011,0
3982,-319,1024,0
3964,-291,1010,0
3936,-256,984,0
3914,-221,979,0
3893,-207,978,0
3874,-189,964,0
3862,-196,912,0
3844,-198,853,0
3832,-224,802,0
3816,-254,795,0
3779,-223,862,0
3817,-236,826,0
3835,-204,815,0
3854,-183,826,0
3868,-163,833,0
3869,-142,791,0
3901,-175,868,0
3875,-163,909,0
3874,-199,935,0
3865,-207,944,0
3847,-210,929,0
3785,-113,1035,0
3798,-133,985,0
3817,-122,998,0
3827,-171,1019,0
3842,-186,1037,0
3872,-162,1063,0
3841,-78,1235,0
3892,-134,1167,0
3936,-163,1195,0
3979,-183,1244,0
4020,-178,1264,0
4027,-136,1284,0
4048,-145,1246,0
4053,-140,1238,0
4045,-126,1262,0
3970,-121,1433,0
3978,-203,1301,0
3967,-256,1256,0
3909,-159,1191,0
3915,-217,1105,0
3851,-240,1026,0
3808,-300,928,0
3797,-364,925,0
3742,-382,845,0
3715,-392,814,0
3610,-196,936,0
3659,-227,848,0
3680,-278,816,0
3722,-296,801,0
3750,-362,792,0
3771,-391,762,0
3807,-383,775,0
3836,-334,787,0
3830,-187,891,0
3886,-238,802,0
3917,-286,789,0
3931,-245,758,0
3918,-249,820,0
3940,-252,911,0
3943,-267,974,0
3932,-246,1020,0
3924,-212,1014,0
3921,-225,976,0
3943,-195,894,0
3888,-190,900,0
3902,-252,948,0
3909,-279,939,0
3946,-280,898,0
3910,-249,924,0
3935,-203,851,0
4004,-151,852,0
4005,-81,864,0
4035,-54,905,0
4068,14,979,0
4092,94,1014,0
4118,148,1046,0
4136,121,972,0
4163,133,957,0
4160,142,943,0
4166,118,906,0
4139,219,856,0
4104,187,842,0
4098,116,858,0
4076,95,856,0
4068,94,842,0
4118,20,874,0
4038,120,756,0
4046,63,670,0
4035,61,717,0
4040,29,732,0
4021,69,714,0
4005,58,715,0
4011,41,687,0
4028,25,687,0
4000,16,667,0
4058,-78,634,0
3989,-40,661,0
3997,-31,737,0
3996,13,704,0
3988,34,647,0
3998,65,591,0
4005,79,535,0
4038,80,522,0
4055,79,404,0
4040,78,387,0
4049,101,447,0
4049,161,500,0
4065,189,546,0
4063,222,511,0
4077,233,478,0
4093,245,454,0
4107,365,400,0
4112,343,364,0
4131,337,424,0
4147,379,502,0
4159,411,542,0
4165,409,541,0
4162,493,546,0
4132,524,520,0
4123,466,504,0
4104,437,516,0
4076,435,550,0
4050,433,589,0
4021,548,648,0
3996,548,650,0
4001,483,649,0
3992,440,689,0
3989,428,766,0
3989,440,858,0
3991,464,938,0
4001,485,996,0
4005,481,1046,0
4013,494,1056,0
4038,473,1061,0
4069,435,1089,0
4074,391,1133,0
4058,338,1187,0
4041,285,1214,0
4020,206,1228,0
3972,128,1244,0
3916,63,1268,0
3868,14,1262,0
3813,1,1272,0
3800,-42,1251,0
3791,-89,1238,0
3810,-121,1233,0
3837,-135,1232,0
3902,-149,1252,0
3979,-178,1291,0
4040,-166,1362,0
4084,-132,1421,0
4120,-110,1451,0
4147,-109,1453,0
4170,-117,1441,0
4180,-128,1427,0
4173,-137,1444,0
4156,-137,1427,0
4128,-127,1431,0
4084,-87,1462,0
4027,-22,1505,0
3985,9,1511,0
3929,40,1515,0
3875,109,1506,0
3823,217,1492,0
3828,252,1455,0
3794,248,1387,0
3788,278,1407,0
3778,236,1390,0
3769,178,1349,0
3752,224,1340,0
3766,269,1350,0
3728,304,1364,0
3701,262,1386,0
3668,241,1386,0
3634,267,1357,0
3595,316,1318,0
3580,381,1350,0
3553,392,1294,0
3555,361,1259,0
3584,377,1260,0
3632,383,1279,0
3679,445,1312,0
3733,451,1318,0
3776,331,1278,0
3800,362,1313,0
3829,327,1280,0
3833,151,1208,0
3832,185,1208,0
3823,225,1222,0
3826,186,1232,0
3820,229,1232,0
3833,217,1228,0
3848,165,1221,0
3866,87,1229,0
3875,15,1230,0
3876,-110,1226,0
3849,-106,1176,0
3823,-135,1163,0
3729,-86,1061,0
3636,-64,943,0
3547,-41,840,0
3467,-18,792,0
3413,27,795,0
3397,86,834,0
3419,151,903,0
3471,194,986,0
3543,225,1048,0
3614,238,1120,0
3678,251,1164,0
3720,265,1179,0
3735,277,1166,0
3737,268,1139,0
3694,330,1001,0
3684,316,972,0
3682,260,959,0
3691,207,961,0
3719,167,948,0
3787,132,1033,0
3804,260,1055,0
3879,210,1107,0
3942,166,1160,0
4019,90,1135,0
4088,32,1182,0
4069,132,1137,0
4083,53,1124,0
4085,37,1114,0
4075,-30,1021,0
4083,-12,961,0
3991,-1,912,0
3975,-55,914,0
3932,-52,926,0
3929,-37,863,0
3977,-84,750,0
3885,9,722,0
3898,-17,734,0
3903,-28,696,0
3938,6,680,0
3885,96,696,0
3916,53,728,0
3936,45,713,0
3980,86,689,0
4025,122,672,0
4100,160,700,0
4132,239,701,0
4201,253,761,0
4270,274,777,0
4346,278,789,0
4420,280,798,0
4492,287,785,0
4558,286,821,0
4585,280,857,0
4609,259,877,0
4610,228,891,0
4584,201,900,0
4536,165,907,0
4482,125,901,0
4421,94,899,0
4342,62,892,0
4263,20,886,0
4192,-13,867,0
4129,-22,855,0
4064,-16,855,0
4000,-17,852,0
3945,-25,844,0
3905,-31,841,0
3875,-52,867,0
3863,-67,855,0
3840,-89,836,0
3811,-84,827,0
3793,-62,831,0
3783,-44,850,0
3787,-39,869,0
3800,-32,918,0
3838,-46,900,0
3877,-74,882,0
3924,-79,864,0
3955,-56,864,0
3981,-36,882,0
3999,-20,890,0
4018,-8,872,0
4020,-6,826,0
4005,13,797,0
4014,7,753,0
4008,-4,735,0
4011,-5,731,0
4013,1,744,0
4015,12,761,0
4020,14,764,0
4023,8,744,0
4027,6,723,0
4018,17,708,0
4032,12,694,0
4041,19,679,0
4056,31,683,0
4073,45,685,0
4087,51,693,0
4094,56,700,0
4097,61,708,0
4102,69,721,0
4102,72,733,0
4101,74,736,0
4101,77,738,0
4100,80,740,0
4100,76,744,0
4095,78,749,0
4091,84,752,0
4082,82,756,0
4073,79,758,0
4064,73,762,0
4055,65,763,0
4042,64,762,0
4033,61,757,0
4023,54,757,0
4018,46,763,0
4013,35,769,0
4014,27,764,0
4011,26,744,0
4012,26,725,0
4010,25,712,0
4009,23,708,0
3998,14,720,0
3993,21,704,0
3989,12,711,0
3990,19,711,0
4021,27,716,0
4004,24,702,0
4016,-19,684,0
4030,-16,668,0
4034,-4,674,0
4041,8,680,0
4042,10,677,0
4041,3,662,0
4042,8,651,0
4036,15,642,0
4032,22,644,0
4028,27,655,0
4038,27,671,0
4043,33,684,0
4051,38,692,0
4061,44,701,0
4065,49,710,0
4051,54,720,0
4071,32,681,0
4063,63,732,0
4054,91,791,0
4050,74,787,0
4042,48,750,0
4036,39,719,0
4026,47,700,0
4021,47,693,0
4026,48,698,0
4031,44,708,0
4036,43,713,0
4039,43,716,0
4040,41,719,0
4038,38,725,0
4027,39,730,0
4025,36,735,0
4025,38,732,0
4029,31,732,0
4030,29,739,0
4029,28,738,0
4023,26,736,0
4019,23,730,0
4012,22,729,0
4009,24,738,0
4005,26,739,0
4011,27,745,0
4013,28,753,0
4018,26,759,0
4019,30,757,0
4031,29,760,0
4038,29,768,0
4042,33,773,0
4048,37,771,0
4050,38,773,0
4051,30,775,0
4052,23,776,0
4048,21,774,0
4046,22,778,0
4043,21,776,0
4042,15,780,0
4038,23,772,0
4034,33,770,0
4024,32,767,0
4020,32,762,0
4020,25,759,0
4027,23,764,0
4030,26,770,0
4032,29,775,0
4036,25,784,0
4036,24,799,0
4040,30,814,0
4042,26,822,0
4011,62,825,0
4036,72,812,0
4024,33,786,0
4028,7,792,0
4036,5,799,0
4031,-1,814,0
4026,-12,815,0
4017,-18,807,0
4008,-25,792,0
3992,-24,782,0
3981,-26,783,0
3976,-27,792,0
3973,-30,803,0
3974,-30,810,0
3982,-30,820,0
3993,-34,831,0
4002,-34,841,0
4004,-36,847,0
4004,-33,845,0
4002,-35,843,0
3998,-33,840,0
3992,-34,833,0
3992,-36,830,0
3987,-49,831,0
3987,-50,836,0
3987,-56,842,0
3985,-50,849,0
3988,-50,850,0
3993,-58,849,0
4001,-64,841,0
4008,-68,840,0
4017,-86,864,0
4019,-89,833,0
4029,-113,825,0
4033,-92,825,0
4031,-72,834,0
4019,-62,842,0
4010,-58,842,0
3998,-60,831,0
3986,-56,819,0
3974,-55,813,0
3973,-57,814,0
3969,-58,814,0
3970,-60,810,0
3980,-59,807,0
3993,-58,814,0
4003,-64,827,0
4013,-72,837,0
4017,-66,840,0
4023,-64,842,0
4025,-64,836,0
4027,-65,829,0
4021,-64,819,0
4016,-63,808,0
4014,-54,797,0
4014,-54,791,0
4011,-55,790,0
4009,-51,789,0
4010,-48,788,0
4012,-47,787,0
4015,-42,779,0
4014,-37,779,0
4013,-29,776,0
4020,-26,777,0
4021,-29,779,0
4025,-34,784,0
4024,-31,786,0
4026,-27,786,0
4029,-23,785,0
4028,-26,783,0
4027,-26,780,0
4026,-27,786,0
4026,-27,790,0
4027,-33,790,0
4030,-36,792,0
4036,-43,799,0
4039,-48,803,0
4040,-56,803,0
4038,-60,804,0
4036,-67,805,0
4031,-69,805,0
4020,-72,810,0
4017,-77,815,0
4013,-84,813,0
4009,-87,809,0
4007,-86,810,0
4002,-84,813,0
4000,-81,816,0
3996,-83,813,0
4001,-88,809,0
4002,-89,811,0
4005,-88,816,0
4007,-83,817,0
4005,-81,817,0
4008,-77,818,0
4009,-75,821,0
4012,-75,823,0
4010,-73,821,0
4012,-67,820,0
4014,-67,819,0
4019,-66,818,0
4018,-70,816,0
4021,-70,813,0
4018,-69,813,0
4021,-65,815,0
4018,-63,813,0
4014,-60,814,0
4009,-54,813,0
4004,-51,813,0
4003,-53,807,0
4003,-56,804,0
4004,-58,801,0
4003,-53,799,0
4008,-60,803,0
4012,-55,801,0
4018,-44,804,0
4021,-35,808,0
4026,-35,809,0
4021,-41,801,0
4019,-37,790,0
4017,-34,787,0
4017,-31,789,0
4016,-33,795,0
4017,-31,795,0
4019,-29,799,0
4027,-33,804,0
4033,-35,806,0
4035,-32,808,0
4042,-36,808,0
4041,-36,806,0
4035,-38,802,0
4025,-38,796,0
4013,-35,793,0
4008,-34,796,0
3998,-32,794,0
3997,-32,793,0
3998,-34,798,0
3999,-35,801,0
4005,-41,803,0
4012,-44,808,0
4016,-45,813,0
4022,-41,815,0
4020,-43,814,0
4020,-43,811,0
4017,-45,807,0
4009,-48,806,0
4006,-51,808,0
4002,-53,809,0
3999,-60,809,0
3996,-63,802,0
3995,-54,803,0
3993,-46,805,0
3998,-42,809,0
4002,-44,807,0
4006,-39,805,0
4005,-27,809,0
4011,-20,815,0
4019,-28,820,0
4026,-35,818,0
4030,-32,815,0
4032,-29,818,0
4034,-34,818,0
4032,-32,816,0
4028,-37,811,0
4021,-44,804,0
4010,-43,796,0
4000,-26,795,0
3993,-12,797,0
3987,-9,797,0
3989,-11,794,0
3996,-18,793,0
4003,-13,799,0
4007,-13,806,0
4013,-17,812,0
4017,-19,813,0
4020,-21,812,0
4028,-21,809,0
4031,-26,804,0
4036,-22,813,0
4037,-28,818,0
4034,-22,818,0
4032,-23,821,0
4026,-21,820,0
4019,-26,818,0
4011,-29,812,0
4004,-31,809,0
4001,-31,812,0
4000,-32,812,0
4004,-38,807,0
4005,-39,806,0
4006,-35,808,0
4009,-31,814,0
4014,-32,817,0
4016,-31,819,0
4016,-30,817,0
4014,-30,819,0
4014,-31,823,0
4016,-29,820,0
4018,-36,822,0
4022,-37,825,0
4020,-40,826,0
4015,-39,826,0
4009,-40,829,0
4004,-44,826,0
3997,-48,815,0
3998,-52,806,0
3999,-53,807,0
4002,-53,810,0
4003,-51,818,0
4009,-62,824,0
4008,-60,823,0
4010,-55,828,0
4010,-45,833,0
4009,-47,836,0
4009,-49,836,0
4002,-56,835,0
3998,-51,841,0
3996,-54,844,0
3994,-56,843,0
3987,-53,840,0
3979,-54,847,0
3977,-45,854,0
3981,-45,856,0
3982,-47,853,0
3980,-51,849,0
3980,-48,852,0
3979,-47,856,0
3980,-45,855,0
3984,-36,852,0
3978,-36,848,0
3985,-39,841,0
3987,-40,845,0
3986,-38,851,0
3991,-33,860,0
3998,-35,864,0
4001,-41,863,0
4003,-49,860,0
4010,-50,860,0
4009,-46,860,0
4010,-41,857,0
4011,-35,854,0
4014,-42,853,0
4015,-52,860,0
4025,-53,861,0
4024,-51,860,0
4020,-51,865,0
4018,-46,868,0
4011,-43,866,0
4003,-42,867,0
4004,-44,862,0
4004,-46,859,0
4008,-44,855,0
4016,-39,854,0
4023,-33,852,0
4031,-32,849,0
4037,-37,848,0
4043,-35,853,0
4048,-27,852,0
4047,-22,854,0
4047,-18,855,0
4045,-17,854,0
4042,-13,858,0
4036,-11,860,0
4029,-9,866,0
4021,-7,872,0
4020,-8,876,0
4013,-10,873,0
4008,-11,869,0
3999,-16,865,0
3997,-20,863,0
3998,-24,865,0
3993,-25,865,0
3989,-30,862,0
3990,-33,857,0
3984,-36,856,0
3983,-39,859,0
3980,-39,858,0
3982,-41,861,0
3982,-44,865,0
3979,-46,871,0
3980,-45,873,0
3981,-41,878,0
3983,-38,881,0
3987,-38,880,0
3989,-38,877,0
3996,-41,881,0
4005,-43,889,0
4011,-41,896,0
4014,-44,896,0
4013,-46,893,0
4009,-47,880,0
3998,-40,870,0
3989,-43,873,0
3996,-43,881,0
4006,-39,894,0
4028,-35,907,0
4045,-28,919,0
4056,-18,929,0
4042,-10,920,0
4026,-9,898,0
3998,-10,875,0
3975,-9,854,0
3958,-9,834,0
3956,-10,824,0
3962,-18,829,0
3972,-21,855,0
3989,-24,888,0
4005,-26,922,0
4015,-29,936,0
4020,-33,932,0
4012,-36,919,0
3999,-40,911,0
3979,-40,904,0
3958,-45,902,0
3939,-50,900,0
3922,-51,895,0
3914,-56,888,0
3912,-64,883,0
3913,-72,885,0
3913,-71,890,0
3918,-66,903,0
3923,-56,906,0
3921,-51,903,0
3923,-54,897,0
3929,-53,896,0
3938,-52,894,0
3946,-47,896,0
3955,-41,894,0
3968,-33,900,0
3980,-31,905,0
3988,-34,911,0
3995,-35,909,0
3996,-37,903,0
3999,-37,897,0
3991,-34,894,0
3987,-31,892,0
3989,-36,895,0
3999,-35,903,0
4013,-36,911,0
4019,-29,914,0
4024,-26,921,0
4019,-30,922,0
4016,-36,924,0
4017,-45,921,0
4020,-50,922,0
4021,-54,928,0
4026,-56,931,0
4019,-63,935,0
4010,-68,930,0
3997,-67,925,0
3990,-65,920,0
3982,-74,914,0
3979,-72,912,0
3977,-69,913,0
3980,-69,915,0
3987,-71,920,0
3993,-74,924,0
3997,-77,926,0
3998,-74,929,0
4001,-73,925,0
3998,-77,923,0
3996,-74,930,0
3997,-73,939,0
3996,-75,944,0
3990,-82,944,0
3980,-84,944,0
3974,-80,938,0
3967,-81,926,0
3964,-81,916,0
3960,-83,913,0
3962,-85,905,0
3963,-84,903,0
3964,-79,900,0
3969,-80,902,0
3973,-78,904,0
3973,-74,904,0
3973,-66,903,0
3975,-69,906,0
3977,-65,908,0
3980,-63,908,0
3981,-67,908,0
3984,-66,908,0
3989,-66,909,0
3995,-66,905,0
3998,-68,904,0
4004,-67,900,0
4006,-64,899,0
4007,-65,895,0
4009,-64,890,0
4010,-59,891,0
4012,-58,893,0
4011,-56,893,0
4008,-53,898,0
4009,-50,900,0
4009,-47,905,0
4002,-44,909,0
4003,-49,917,0
4002,-52,919,0
4006,-52,921,0
4011,-55,925,0
4008,-62,926,0
4014,-82,917,0
4000,-75,920,0
3989,-75,927,0
3976,-87,919,0
3965,-101,908,0
3956,-105,900,0
3953,-103,898,0
3952,-99,899,0
3952,-95,905,0
3955,-89,908,0
3960,-86,909,0
3966,-79,911,0
3967,-74,911,0
3965,-69,911,0
3968,-62,907,0
3971,-57,901,0
3975,-52,897,0
3979,-46,894,0
3994,-38,888,0
4003,-43,894,0
4005,-53,853,0
4012,-56,877,0
4010,-28,934,0
4015,-15,954,0
4026,-26,934,0
4028,-40,907,0
4018,-52,888,0
4012,-48,891,0
4004,-45,898,0
3998,-42,903,0
3996,-45,908,0
3997,-46,907,0
3992,-45,905,0
3988,-47,901,0
3984,-51,898,0
3977,-58,897,0
3970,-58,894,0
3971,-58,898,0
3973,-55,895,0
3980,-66,896,0
3983,-72,899,0
3982,-73,907,0
3978,-70,910,0
3979,-67,910,0
3976,-69,903,0
3967,-71,895,0
3965,-77,894,0
3966,-76,899,0
3969,-73,900,0
3973,-72,894,0
3980,-70,893,0
3983,-66,894,0
3991,-66,894,0
3996,-66,893,0
4000,-60,892,0
4005,-59,891,0
4008,-56,891,0
4007,-53,894,0
4005,-52,893,0
3999,-52,900,0
3997,-47,897,0
3995,-46,893,0
3993,-48,887,0
3995,-53,889,0
3998,-53,892,0
4004,-57,899,0
4005,-57,900,0
4007,-62,906,0
4006,-60,905,0
4002,-62,906,0
3998,-59,905,0
3992,-60,905,0
3987,-62,905,0
3985,-64,904,0
3981,-67,904,0
3979,-66,903,0
3975,-66,899,0
3974,-73,899,0
3972,-73,898,0
3972,-74,898,0
3974,-74,899,0
3971,-66,902,0
3975,-66,902,0
3976,-69,901,0
3978,-70,898,0
3981,-72,898,0
3986,-69,902,0
3991,-65,905,0
3995,-66,906,0
3998,-64,908,0
3999,-65,907,0
3997,-63,907,0
3999,-63,903,0
3996,-64,899,0
3990,-66,899,0
3984,-69,898,0
3979,-66,898,0
3976,-64,898,0
3974,-61,895,0
3979,-58,899,0
3977,-59,902,0
3980,-58,904,0
3989,-59,905,0
3992,-66,907,0
3997,-68,913,0
3999,-71,916,0
3994,-66,920,0
3993,-60,913,0
3989,-65,913,0
3989,-63,911,0
3990,-62,911,0
3993,-70,913,0
3992,-76,909,0
3994,-75,907,0
3997,-63,912,0
3994,-61,913,0
3995,-65,906,0
3997,-73,894,0
3998,-73,886,0
3998,-68,890,0
3995,-70,891,0
4000,-74,892,0
4003,-70,891,0
4001,-68,893,0
4001,-65,895,0
4001,-68,894,0
3998,-68,895,0
3996,-67,898,0
3994,-67,902,0
3992,-66,905,0
3995,-73,911,0
3992,-77,909,0
3987,-74,910,0
3987,-71,910,0
3987,-70,913,0
3986,-72,909,0
3981,-80,912,0
3979,-81,912,0
3980,-77,910,0
3979,-78,905,0
3979,-74,910,0
3979,-77,909,0
3981,-75,906,0
3981,-74,906,0
3979,-75,906,0
3981,-75,910,0
3981,-72,911,0
3981,-71,912,0
3984,-68,913,0
3987,-61,912,0
3992,-52,913,0
3998,-49,916,0
3999,-55,913,0
4004,-58,904,0
4005,-58,903,0
4009,-64,905,0
4012,-66,907,0
4012,-66,907,0
4010,-65,910,0
4006,-63,907,0
3998,-63,902,0
3992,-61,896,0
3983,-58,895,0
3977,-60,901,0
3975,-57,902,0
3975,-59,905,0
3977,-62,908,0
3979,-61,906,0
3981,-65,909,0
3989,-64,908,0
3992,-66,907,0
3997,-67,910,0
4004,-66,910,0
4006,-62,909,0
4010,-58,906,0
4010,-60,909,0
4008,-57,908,0
4001,-58,907,0
3994,-51,909,0
3985,-50,909,0
3980,-49,910,0
3976,-51,911,0
3972,-54,909,0
3970,-56,912,0
3970,-55,913,0
3971,-49,916,0
3973,-44,917,0
3977,-44,917,0
3980,-47,911,0
3985,-48,909,0
3990,-50,902,0
3995,-59,903,0
3997,-68,904,0
4000,-73,909,0
4003,-72,910,0
3998,-74,906,0
3994,-66,904,0
3985,-69,905,0
3979,-70,904,0
3973,-69,904,0
3970,-62,906,0
3972,-68,910,0
3972,-71,909,0
3976,-72,913,0
3976,-69,914,0
3974,-65,913,0
3976,-61,911,0
3982,-57,912,0
3983,-56,911,0
3984,-57,910,0
3982,-60,906,0
3988,-60,908,0
3988,-59,911,0
3986,-51,909,0
3991,-49,910,0
3992,-50,910,0
3995,-50,909,0
3999,-48,912,0
4003,-51,908,0
4001,-54,913,0
4003,-57,913,0
3999,-57,908,0
3993,-50,905,0
3992,-46,899,0
3988,-46,894,0
3990,-52,896,0
3997,-51,898,0
4003,-50,899,0
4010,-50,901,0
4015,-51,900,0
4012,-45,896,0
4014,-47,897,0
4007,-46,896,0
4005,-50,893,0
4001,-49,896,0
4001,-52,902,0
4000,-52,901,0
3998,-53,903,0
4002,-57,902,0
3998,-57,902,0
3997,-60,903,0
3997,-60,900,0
3988,-57,901,0
3982,-61,899,0
3978,-65,896,0
3978,-62,897,0
3981,-55,898,0
3984,-53,907,0
3986,-51,909,0
3987,-49,915,0
3985,-47,916,0
3983,-48,919,0
3980,-51,917,0
3981,-52,919,0
3982,-56,921,0
3984,-53,919,0
3986,-52,915,0
3984,-53,910,0
3983,-53,910,0
3982,-50,908,0
3983,-51,907,0
3982,-51,903,0
3986,-48,899,0
3986,-46,895,0
3984,-49,894,0
3988,-52,894,0
3990,-54,896,0
3989,-51,898,0
3993,-50,901,0
3997,-49,906,0
4001,-50,907,0
4000,-52,905,0
3995,-54,907,0
3995,-51,904,0
3991,-49,900,0
3988,-44,901,0
3988,-42,907,0
3986,-44,910,0
3990,-44,909,0
3990,-47,911,0
3993,-47,910,0
3991,-46,910,0
3990,-49,909,0
3997,-51,910,0
3997,-50,906,0
3994,-47,906,0
3998,-49,909,0
3995,-47,909,0
3998,-48,910,0
3997,-47,911,0
3991,-50,913,0
3994,-52,909,0
3993,-50,903,0
3989,-53,901,0
3990,-56,901,0
3990,-54,903,0
3991,-52,904,0
3995,-53,903,0
3996,-53,907,0
3997,-54,909,0
3993,-55,911,0
3992,-59,909,0
3986,-58,906,0
3985,-59,900,0
3984,-62,902,0
3984,-61,907,0
3986,-58,911,0
3985,-54,912,0
3986,-52,910,0
3988,-52,909,0
3990,-50,909,0
3990,-47,914,0
3989,-46,913,0
3990,-48,914,0
3992,-47,916,0
3996,-50,920,0
4001,-49,925,0
4002,-51,925,0
4013,-52,930,0
4019,-46,938,0
4022,-38,936,0
4022,-39,934,0
4031,-59,936,0
4027,-40,930,0
4013,-21,921,0
3998,-17,902,0
3985,-24,884,0
3981,-34,875,0
3979,-30,887,0
3984,-26,904,0
3994,-29,928,0
4003,-26,942,0
4008,-27,953,0
4010,-30,953,0
4009,-41,949,0
3998,-44,944,0
3987,-48,942,0
3976,-51,940,0
3964,-57,943,0
3960,-59,942,0
3954,-57,941,0
3950,-60,941,0
3939,-64,941,0
3934,-63,943,0
3933,-68,944,0
3925,-70,943,0
3924,-70,946,0
3925,-77,943,0
3925,-78,939,0
3930,-81,943,0
3934,-73,945,0
3937,-63,940,0
3940,-60,940,0
3940,-56,937,0
3943,-51,934,0
3947,-44,941,0
3950,-32,939,0
3958,-25,943,0
3964,-21,949,0
3971,-15,952,0
3977,-9,950,0
3981,-10,950,0
3989,-16,947,0
3994,-20,946,0
3998,-17,945,0
3996,-15,948,0
3998,-14,947,0
4001,-20,942,0
4005,-25,941,0
4004,-31,939,0
4003,-35,943,0
4002,-39,939,0
3998,-42,938,0
3995,-44,940,0
3993,-44,944,0
3987,-47,945,0
3988,-47,943,0
3985,-50,941,0
3984,-48,943,0
3983,-51,950,0
3985,-50,955,0
3981,-50,963,0
3982,-48,963,0
3981,-54,963,0
3980,-57,957,0
3978,-59,954,0
3975,-61,956,0
3979,-66,959,0
3978,-70,957,0
3979,-73,956,0
3978,-73,959,0
3975,-71,958,0
3975,-71,960,0
3972,-71,956,0
3973,-72,956,0
3971,-73,953,0
3967,-73,956,0
3968,-72,952,0
3967,-73,954,0
3966,-80,949,0
3968,-76,945,0
3971,-71,946,0
3971,-70,946,0
3971,-72,946,0
3968,-74,944,0
3973,-75,945,0
3976,-70,946,0
3975,-60,950,0
3977,-63,949,0
3979,-61,940,0
3981,-62,936,0
3982,-65,937,0
3990,-63,935,0
3990,-60,937,0
3992,-55,938,0
3992,-56,939,0
3995,-54,932,0
4000,-43,936,0
4005,-42,937,0
4004,-46,933,0
4003,-43,934,0
4005,-34,939,0
4004,-39,945,0
4004,-48,940,0
3995,-50,936,0
3987,-48,933,0
3982,-47,934,0
3979,-47,932,0
3979,-51,932,0
3978,-51,928,0
3978,-55,929,0
3977,-57,927,0
3979,-56,926,0
3981,-59,926,0
3979,-56,929,0
3980,-56,929,0
3980,-55,932,0
3979,-56,938,0
3982,-56,939,0
3983,-59,935,0
3989,-60,933,0
3996,-56,932,0
3992,-50,937,0
3990,-51,941,0
3984,-50,941,0
3981,-52,938,0
3977,-56,930,0
3976,-58,923,0
3978,-58,924,0
3982,-58,927,0
3985,-60,929,0
3993,-63,931,0
3990,-63,935,0
3994,-59,942,0
3992,-61,942,0
3988,-58,940,0
3983,-44,937,0
3983,-38,932,0
3978,-40,926,0
3976,-43,919,0
3978,-48,912,0
3973,-49,913,0
3973,-46,916,0
3973,-47,922,0
3972,-48,924,0
3974,-43,928,0
3974,-43,929,0
3973,-45,932,0
3976,-48,928,0
3973,-48,931,0
3972,-49,929,0
3977,-48,929,0
3974,-47,933,0
3981,-46,939,0
3978,-46,934,0
3978,-47,931,0
3978,-45,930,0
3975,-45,928,0
3974,-47,931,0
3977,-45,930,0
3978,-44,928,0
3978,-43,931,0
3978,-41,931,0
3981,-38,934,0
3984,-43,937,0
3985,-42,937,0
3985,-44,939,0
3987,-43,937,0
3985,-40,938,0
3983,-42,930,0
3980,-48,925,0
3981,-49,928,0
3978,-48,929,0
3983,-46,931,0
3983,-45,935,0
3982,-48,937,0
3979,-52,937,0
3982,-52,936,0
3980,-51,936,0
3980,-51,935,0
3976,-49,935,0
3976,-49,937,0
3977,-49,936,0
3978,-46,937,0
3977,-49,940,0
3974,-53,939,0
3974,-53,939,0
3975,-54,938,0
3977,-56,936,0
3978,-55,935,0
3979,-57,931,0
3981,-55,931,0
3988,-54,933,0
3988,-56,937,0
3986,-57,935,0
3990,-57,935,0
3988,-57,937,0
3985,-56,938,0
3985,-51,936,0
3985,-48,937,0
3982,-51,935,0
3985,-54,935,0
3986,-54,939,0
3986,-61,937,0
3988,-67,934,0
3995,-64,934,0
3995,-52,937,0
3990,-45,933,0
3985,-48,932,0
3983,-49,926,0
3981,-51,926,0
3983,-46,926,0
3979,-45,927,0
3979,-45,932,0
3977,-47,933,0
3978,-47,935,0
3978,-46,932,0
3976,-48,932,0
3972,-49,931,0
3967,-50,929,0
3975,-52,930,0
3979,-48,934,0
3981,-48,931,0
3983,-47,932,0
3987,-48,929,0
3990,-50,925,0
3992,-49,922,0
3996,-53,928,0
4000,-52,931,0
3999,-51,929,0
3997,-52,934,0
3993,-52,934,0
3990,-52,935,0
3987,-51,929,0
3985,-54,927,0
3982,-55,930,0
3983,-55,927,0
3984,-58,922,0
3987,-60,925,0
3989,-58,926,0
3990,-56,930,0
3990,-53,930,0
3989,-51,932,0
3990,-53,932,0
3985,-55,929,0
3983,-57,929,0
3983,-51,930,0
3984,-48,931,0
3978,-51,927,0
3974,-52,926,0
3977,-52,922,0
3979,-49,925,0
3977,-45,925,0
3979,-46,927,0
3986,-45,928,0
3989,-49,930,0
3994,-48,928,0
3996,-51,927,0
3993,-53,928,0
3990,-54,926,0
3985,-60,918,0
3983,-61,915,0
3980,-52,917,0
3980,-50,913,0
3981,-51,916,0
3985,-56,917,0
3990,-54,918,0
3993,-52,921,0
3991,-51,927,0
3989,-47,927,0
3984,-42,923,0
3983,-45,922,0
3981,-42,921,0
3981,-45,920,0
3984,-48,922,0
3985,-55,928,0
3985,-58,927,0
3985,-56,923,0
3985,-58,919,0
3984,-56,914,0
3981,-60,911,0
3985,-57,911,0
3989,-55,911,0
3990,-54,915,0
3994,-53,916,0
3996,-51,915,0
3995,-53,915,0
4001,-54,917,0
3995,-51,917,0
3990,-45,918,0
3983,-50,914,0
3979,-48,913,0
3979,-47,913,0
3977,-46,914,0
3979,-47,918,0
3980,-51,919,0
3981,-51,920,0
3983,-52,922,0
3981,-50,919,0
3980,-51,919,0
3978,-52,919,0
3974,-53,917,0
3977,-50,916,0
3976,-51,914,0
3973,-52,917,0
3978,-50,915,0
3980,-53,915,0
3974,-54,921,0
3978,-55,922,0
3982,-54,927,0
3984,-52,926,0
3984,-48,927,0
3984,-48,924,0
3985,-49,921,0
3988,-49,920,0
3988,-45,917,0
3987,-46,916,0
3988,-46,917,0
3991,-45,918,0
3991,-43,916,0
3997,-40,917,0
3999,-41,914,0
4001,-41,913,0
4003,-42,918,0
4003,-42,921,0
4001,-39,922,0
3998,-44,920,0
3996,-40,914,0
3997,-40,913,0
3999,-43,919,0
3999,-45,928,0
3992,-44,936,0
3989,-47,931,0
3986,-49,921,0
3984,-51,913,0
3982,-48,908,0
3979,-46,909,0
3982,-50,907,0
3983,-50,907,0
3985,-53,911,0
3988,-53,913,0
3986,-55,913,0
3983,-54,916,0
3981,-53,917,0
3983,-53,918,0
3982,-52,918,0
3982,-52,921,0
3984,-50,923,0
3983,-51,925,0
3982,-49,931,0
3985,-48,929,0
3985,-51,923,0
3983,-50,922,0
3986,-50,923,0
3987,-51,923,0
3987,-54,922,0
3987,-50,918,0
3987,-49,916,0
3985,-51,918,0
3982,-50,917,0
3970,-51,907,0
3968,-44,903,0
3974,-39,907,0
3987,-37,912,0
3998,-37,920,0
4003,-40,924,0
4007,-39,926,0
4006,-42,921,0
4004,-45,918,0
3997,-44,911,0
3992,-44,908,0
3988,-46,906,0
3987,-44,905,0
3987,-42,905,0
3985,-44,906,0
3987,-46,908,0
3985,-46,913,0
3985,-45,913,0
3982,-48,912,0
3981,-43,912,0
3979,-43,914,0
3980,-47,917,0
3984,-48,912,0
3985,-48,913,0
3987,-49,917,0
3985,-48,917,0
3984,-49,917,0
3986,-47,916,0
3986,-45,915,0
3989,-43,910,0
3989,-41,911,0
3990,-41,912,0
3989,-41,913,0
3989,-42,913,0
3991,-40,917,0
3991,-43,916,0
3989,-43,915,0
3987,-44,915,0
3985,-47,916,0
3984,-49,914,0
3983,-44,918,0
3984,-45,921,0
3983,-44,922,0
3983,-48,922,0
3984,-50,923,0
3985,-52,919,0
3981,-51,919,0
3980,-48,918,0
3978,-51,923,0
3978,-48,920,0
3982,-50,919,0
3981,-47,919,0
3980,-44,922,0
3985,-42,928,0
3984,-45,931,0
3983,-47,929,0
3985,-47,928,0
3985,-46,926,0
3978,-47,928,0
3978,-51,925,0
3980,-52,923,0
3982,-50,921,0
3984,-52,916,0
3985,-49,917,0
3990,-49,919,0
3991,-51,920,0
3994,-55,925,0
3993,-52,924,0
3991,-51,929,0
3988,-49,929,0
3985,-47,928,0
3985,-43,925,0
3984,-44,923,0
3982,-41,924,0
3980,-46,928,0
3979,-51,930,0
3977,-50,929,0
3975,-52,929,0
3978,-49,930,0
3980,-49,927,0
3982,-50,922,0
3980,-52,919,0
3985,-50,917,0
3986,-51,916,0
3995,-52,918,0
3998,-50,924,0
3999,-51,931,0
3998,-51,934,0
3996,-49,934,0
3992,-48,933,0
3991,-47,933,0
3988,-45,935,0
3984,-39,936,0
3985,-44,933,0
3984,-48,935,0
3983,-49,932,0
3989,-50,931,0
3983,-51,924,0
3983,-56,923,0
3987,-63,924,0
3987,-67,927,0
3983,-65,927,0
3983,-67,930,0
3981,-65,932,0
3979,-65,930,0
3979,-65,926,0
3976,-64,924,0
3974,-59,924,0
3971,-55,930,0
3973,-51,930,0
3977,-48,932,0
3975,-47,932,0
3978,-47,934,0
3984,-47,931,0
3987,-47,932,0
3986,-44,933,0
3989,-43,927,0
3989,-40,931,0
3991,-40,932,0
3990,-41,935,0
3988,-40,934,0
3990,-43,931,0
3987,-47,930,0
3988,-46,930,0
3992,-46,927,0
3995,-48,925,0
3995,-46,924,0
3995,-48,925,0
3992,-51,923,0
3988,-51,926,0
3988,-50,923,0
3985,-52,924,0
3981,-52,924,0
3980,-51,922,0
3981,-51,924,0
3981,-49,927,0
3981,-50,927,0
3983,-48,922,0
3986,-51,920,0
3985,-50,921,0
3982,-46,922,0
3980,-42,924,0
3981,-47,926,0
3981,-46,927,0
3981,-41,933,0
3984,-38,935,0
3986,-34,935,0
3988,-34,934,0
3986,-35,936,0
3984,-34,933,0
3984,-35,931,0
3984,-38,932,0
3986,-35,931,0
3988,-37,932,0
3992,-39,932,0
3995,-43,935,0
3995,-47,935,0
3992,-49,933,0
3994,-49,932,0
3993,-49,935,0
3990,-48,932,0
3983,-46,928,0
3979,-48,930,0
3977,-49,929,0
3972,-49,929,0
3970,-48,928,0
3968,-51,929,0
3972,-51,931,0
3975,-51,931,0
3974,-49,933,0
3978,-47,937,0
3980,-47,935,0
3981,-47,934,0
3983,-47,934,0
3983,-47,934,0
3985,-47,934,0
3985,-47,935,0
3986,-47,936,0
3985,-48,934,0
3987,-52,934,0
3985,-50,934,0
3986,-48,933,0
3985,-49,935,0
3987,-47,936,0
3990,-53,936,0
3994,-52,932,0
3992,-52,929,0
3993,-52,924,0
3992,-49,928,0
3992,-45,929,0
3994,-47,930,0
3991,-45,933,0
3989,-45,933,0
3987,-49,932,0
3986,-51,931,0
3986,-51,933,0
3989,-50,937,0
3983,-54,939,0
3982,-58,939,0
3979,-60,940,0
3981,-63,938,0
3980,-63,936,0
3979,-63,938,0
3978,-65,937,0
3976,-64,935,0
3980,-64,938,0
3976,-63,942,0
3975,-61,942,0
3976,-62,941,0
3977,-61,942,0
3977,-64,942,0
3979,-64,940,0
3978,-66,940,0
3974,-61,938,0
3975,-62,944,0
3976,-61,943,0
3976,-65,935,0
3977,-67,934,0
3975,-66,931,0
3968,-61,935,0
3970,-66,938,0
3972,-67,937,0
3976,-66,931,0
3976,-67,935,0
3977,-62,934,0
3981,-60,937,0
3981,-56,935,0
3978,-53,932,0
3984,-50,934,0
3986,-47,936,0
3984,-51,937,0
3989,-58,943,0
3998,-59,947,0
4000,-63,946,0
3997,-60,947,0
3995,-58,949,0
3994,-60,944,0
3987,-59,943,0
3987,-55,944,0
3986,-58,942,0
3985,-63,941,0
3984,-67,939,0
3989,-67,939,0
3994,-68,944,0
3997,-65,949,0
4001,-60,955,0
4000,-60,953,0
3998,-63,957,0
4000,-60,958,0
4003,-57,956,0
3997,-53,953,0
3991,-59,943,0
3987,-68,940,0
3989,-73,939,0
3984,-67,942,0
3994,-69,943,0
3998,-65,947,0
3999,-61,946,0
3998,-60,939,0
3998,-62,935,0
3993,-57,934,0
3997,-64,940,0
3993,-71,949,0
3990,-71,962,0
3982,-61,969,0
3975,-61,962,0
3970,-68,946,0
3962,-75,936,0
3958,-74,945,0
3967,-75,970,0
3971,-77,991,0
3978,-83,993,0
3979,-92,997,0
3971,-100,994,0
3964,-99,992,0
3949,-93,991,0
3938,-85,981,0
3931,-85,971,0
3929,-86,966,0
3927,-82,964,0
3928,-84,967,0
3927,-84,970,0
3933,-81,974,0
3930,-73,974,0
3928,-74,975,0
3926,-80,970,0
3925,-70,972,0
3927,-61,974,0
3935,-61,973,0
3944,-59,967,0
3950,-63,961,0
3963,-56,958,0
3971,-49,957,0
3976,-41,955,0
3983,-40,954,0
3985,-38,956,0
3994,-44,957,0
3995,-45,952,0
3995,-42,949,0
3997,-43,950,0
3996,-47,956,0
3998,-47,956,0
3997,-45,957,0
3998,-48,957,0
3997,-54,958,0
4000,-57,958,0
4000,-58,953,0
3997,-64,949,0
3993,-63,953,0
3991,-62,957,0
3990,-58,953,0
3990,-61,955,0
3990,-61,959,0
3989,-64,966,0
3991,-63,969,0
3991,-60,970,0
3990,-63,969,0
3988,-68,969,0
3984,-74,969,0
3982,-75,972,0
3978,-72,979,0
3975,-70,980,0
3976,-73,976,0
3973,-76,977,0
3969,-76,978,0
3960,-75,974,0
3957,-78,973,0
3953,-83,972,0
3949,-84,969,0
3949,-83,971,0
3950,-79,973,0
3951,-79,974,0
3953,-83,978,0
3956,-83,970,0
3963,-80,969,0
3966,-79,967,0
3968,-78,966,0
3969,-76,964,0
3974,-73,961,0
3977,-70,965,0
3982,-72,969,0
3980,-75,978,0
3978,-64,982,0
3976,-58,982,0
3977,-58,983,0
3979,-56,974,0
3976,-51,973,0
3973,-52,972,0
3971,-52,970,0
3965,-49,970,0
3965,-44,975,0
3968,-44,980,0
3973,-47,982,0
3978,-49,986,0
3980,-52,982,0
3982,-57,984,0
3976,-64,984,0
3976,-61,982,0
3975,-62,982,0
3970,-62,978,0
3965,-63,981,0
3960,-68,983,0
3960,-71,975,0
3962,-69,971,0
3963,-76,966,0
3965,-79,969,0
3966,-83,972,0
3964,-77,976,0
3965,-76,980,0
3965,-72,978,0
3970,-74,971,0
3971,-83,967,0
3968,-82,969,0
3970,-74,976,0
3970,-76,978,0
3973,-81,978,0
3975,-94,976,0
3982,-106,972,0
3986,-105,970,0
3988,-86,983,0
3985,-71,989,0
3982,-63,988,0
3979,-71,975,0
3977,-75,963,0
3970,-72,962,0
3965,-60,962,0
3970,-63,970,0
3973,-70,979,0
3971,-75,983,0
3972,-73,991,0
3969,-74,996,0
3962,-73,1003,0
3961,-72,998,0
3957,-75,996,0
3954,-74,994,0
3954,-80,996,0
3955,-82,999,0
3958,-86,1002,0
3956,-90,999,0
3954,-86,995,0
3953,-90,993,0
3955,-94,986,0
3954,-92,986,0
3951,-92,985,0
3947,-92,985,0
3949,-90,984,0
3952,-87,983,0
3951,-84,985,0
3956,-83,984,0
3961,-77,983,0
3966,-73,981,0
3968,-78,982,0
3969,-78,981,0
3971,-68,981,0
3975,-66,976,0
3974,-71,973,0
3971,-70,971,0
3975,-73,976,0
3979,-70,985,0
3980,-64,985,0
3977,-62,985,0
3973,-62,981,0
3968,-66,977,0
3963,-68,976,0
3967,-65,977,0
3965,-66,977,0
3963,-68,982,0
3967,-72,985,0
3969,-74,987,0
3972,-78,988,0
3973,-71,987,0
3978,-65,987,0
3983,-69,988,0
3982,-73,987,0
3982,-76,991,0
3982,-79,993,0
3978,-80,990,0
3975,-82,986,0
3975,-85,984,0
3968,-84,986,0
3965,-85,986,0
3958,-86,983,0
3962,-86,982,0
3959,-85,983,0
3961,-85,980,0
3963,-86,974,0
3961,-87,971,0
3966,-88,977,0
3966,-87,981,0
3970,-84,981,0
3974,-85,976,0
3976,-83,972,0
3976,-81,970,0
3976,-76,966,0
3977,-77,967,0
3981,-79,972,0
3991,-77,976,0
3994,-71,981,0
3989,-68,979,0
3983,-65,975,0
3977,-62,971,0
3975,-65,963,0
3974,-66,963,0
3975,-67,966,0
3974,-67,970,0
3976,-63,970,0
3974,-60,972,0
3971,-64,972,0
3969,-60,974,0
3969,-59,980,0
3965,-60,979,0
3964,-62,974,0
3964,-61,974,0
3964,-62,970,0
3968,-67,966,0
3967,-71,967,0
3973,-69,963,0
3973,-66,968,0
3975,-67,969,0
3973,-71,971,0
3969,-71,970,0
3967,-68,966,0
3968,-66,961,0
3972,-65,959,0
3973,-62,962,0
3972,-62,969,0
3973,-64,967,0
3974,-65,962,0
3977,-64,961,0
3977,-65,960,0
3980,-65,960,0
3981,-64,959,0
3982,-68,961,0
3979,-67,957,0
3979,-68,956,0
