accelerometer_x,accelerometer_y,accelerometer_z,fall
4118,-819,-122,0
4109,-784,-72,0
4106,-782,-53,0
4124,-793,-39,0
4140,-792,-45,0
4160,-771,-74,0
4170,-749,-111,0
4186,-726,-145,0
4198,-716,-168,0
4214,-724,-178,0
4231,-740,-188,0
4236,-783,-198,0
4235,-832,-215,0
4220,-874,-231,0
4213,-932,-230,0
4202,-989,-220,0
4173,-1023,-209,0
4142,-1030,-194,0
4119,-1026,-181,0
4086,-1030,-178,0
4056,-1037,-168,0
4021,-1046,-157,0
3983,-1056,-156,0
3956,-1054,-157,0
3943,-1046,-164,0
3939,-1026,-166,0
3949,-994,-172,0
3974,-950,-176,0
4006,-892,-183,0
4043,-829,-193,0
4074,-768,-194,0
4098,-702,-202,0
4115,-646,-215,0
4118,-599,-233,0
4110,-550,-254,0
4096,-504,-274,0
4077,-468,-293,0
4056,-448,-300,0
4039,-437,-284,0
4038,-438,-258,0
4042,-442,-227,0
4051,-458,-193,0
4073,-471,-159,0
4094,-476,-130,0
4117,-479,-104,0
4136,-477,-99,0
4149,-479,-113,0
4148,-476,-153,0
4125,-452,-211,0
4095,-428,-270,0
4060,-411,-320,0
4012,-393,-357,0
3965,-370,-380,0
3928,-359,-397,0
3899,-358,-408,0
3883,-364,-420,0
3870,-395,-434,0
3874,-435,-437,0
3885,-486,-437,0
3905,-534,-433,0
3926,-584,-426,0
3957,-626,-412,0
3989,-668,-397,0
4017,-706,-387,0
4037,-732,-380,0
4035,-743,-395,0
4042,-764,-416,0
4042,-791,-441,0
4041,-803,-460,0
4032,-810,-479,0
4025,-802,-497,0
4020,-786,-507,0
4013,-761,-515,0
4014,-743,-509,0
4025,-727,-504,0
4045,-720,-498,0
4070,-714,-492,0
4088,-718,-498,0
4111,-720,-494,0
4139,-720,-491,0
4170,-716,-482,0
4195,-707,-466,0
4219,-694,-452,0
4240,-679,-438,0
4252,-666,-426,0
4244,-651,-424,0
4214,-633,-427,0
4173,-620,-426,0
4129,-610,-424,0
4086,-607,-417,0
4042,-615,-409,0
4007,-626,-406,0
3985,-636,-407,0
3980,-641,-406,0
3982,-636,-398,0
3993,-626,-399,0
4013,-606,-404,0
4035,-577,-399,0
4057,-547,-407,0
4078,-529,-420,0
4093,-514,-437,0
4110,-499,-443,0
4129,-489,-436,0
4149,-495,-425,0
4174,-502,-411,0
4197,-498,-395,0
4214,-512,-385,0
4230,-540,-370,0
4246,-577,-356,0
4244,-617,-343,0
4226,-644,-341,0
4201,-661,-343,0
4169,-682,-356,0
4135,-691,-377,0
4095,-699,-402,0
4059,-706,-425,0
4026,-706,-439,0
4006,-704,-453,0
4000,-697,-449,0
4008,-682,-433,0
4027,-661,-409,0
4060,-648,-384,0
4087,-641,-363,0
4114,-645,-357,0
4130,-652,-365,0
4135,-654,-387,0
4121,-642,-408,0
4110,-639,-428,0
4092,-628,-445,0
4064,-619,-460,0
4037,-609,-464,0
4018,-604,-463,0
4002,-605,-450,0
3992,-595,-426,0
3995,-593,-405,0
4003,-603,-384,0
4012,-611,-368,0
4029,-627,-355,0
4048,-643,-345,0
4065,-656,-342,0
4082,-657,-345,0
4093,-650,-355,0
4099,-640,-371,0
4100,-626,-395,0
4100,-611,-420,0
4096,-586,-439,0
4084,-559,-448,0
4073,-538,-449,0
4075,-521,-440,0
4077,-518,-424,0
4083,-515,-391,0
4091,-516,-357,0
4096,-525,-325,0
4098,-533,-311,0
4100,-541,-304,0
4100,-548,-307,0
4101,-548,-314,0
4101,-543,-318,0
4101,-536,-323,0
4101,-519,-329,0
4097,-495,-330,0
4088,-465,-329,0
4073,-438,-326,0
4063,-419,-323,0
4054,-402,-322,0
4051,-394,-321,0
4055,-400,-320,0
4062,-411,-322,0
4070,-421,-319,0
4079,-431,-316,0
4090,-441,-318,0
4097,-458,-309,0
4100,-482,-299,0
4100,-501,-293,0
4099,-523,-293,0
4092,-552,-307,0
4089,-572,-330,0
4095,-586,-337,0
4093,-603,-321,0
4085,-634,-310,0
4075,-660,-306,0
4064,-684,-311,0
4058,-708,-317,0
4053,-739,-318,0
4048,-754,-309,0
4045,-770,-292,0
4049,-792,-276,0
4051,-809,-256,0
4055,-831,-231,0
4051,-846,-226,0
4049,-865,-236,0
4051,-885,-259,0
4068,-906,-280,0
4085,-927,-297,0
4110,-947,-312,0
4142,-963,-332,0
4166,-977,-341,0
4187,-991,-337,0
4208,-1020,-311,0
4223,-1050,-251,0
4245,-1055,-161,0
4266,-1089,-96,0
4300,-1136,-69,0
4334,-1189,-65,0
4362,-1219,-71,0
4369,-1226,-68,0
4357,-1212,-56,0
4324,-1169,-38,0
4285,-1115,-19,0
4240,-1052,-10,0
4193,-987,-9,0
4163,-924,-3,0
4135,-857,17,0
4115,-785,67,0
4096,-721,132,0
4072,-670,199,0
4052,-632,255,0
4020,-605,293,0
3991,-582,309,0
3958,-562,306,0
3925,-534,303,0
3900,-506,293,0
3879,-475,272,0
3868,-439,250,0
3865,-393,234,0
3875,-342,228,0
3892,-284,235,0
3901,-234,243,0
3900,-193,219,0
3882,-154,133,0
3848,-123,11,0
3817,-82,-69,0
3799,-43,-47,0
3810,-16,52,0
3855,-20,180,0
3931,-82,283,0
4016,-168,356,0
4090,-264,397,0
4152,-352,416,0
4213,-393,440,0
4246,-458,416,0
4265,-529,380,0
4270,-603,352,0
4260,-660,327,0
4229,-705,313,0
4187,-743,302,0
4135,-766,281,0
4073,-786,258,0
4007,-794,240,0
3941,-797,227,0
3876,-795,205,0
3816,-800,178,0
3769,-815,148,0
3736,-827,124,0
3717,-836,106,0
3710,-842,91,0
3719,-847,80,0
3740,-841,79,0
3769,-828,99,0
3810,-810,143,0
3867,-799,203,0
3936,-809,258,0
4011,-828,295,0
4071,-851,306,0
4127,-872,289,0
4174,-895,263,0
4207,-912,236,0
4223,-925,212,0
4223,-923,197,0
4208,-920,188,0
4175,-912,185,0
4137,-901,187,0
4084,-887,180,0
4022,-877,167,0
3956,-866,159,0
3889,-860,148,0
3814,-860,134,0
3750,-855,123,0
3699,-850,111,0
3663,-839,102,0
3629,-825,96,0
3597,-814,100,0
3586,-796,108,0
3579,-781,119,0
3588,-774,130,0
3613,-771,148,0
3651,-783,171,0
3695,-799,200,0
3742,-822,220,0
3782,-843,234,0
3822,-864,228,0
3857,-877,219,0
3900,-887,202,0
3942,-894,189,0
3995,-889,190,0
4049,-886,190,0
4119,-872,202,0
4188,-837,217,0
4253,-795,229,0
4316,-765,231,0
4359,-744,224,0
4387,-734,205,0
4403,-734,184,0
4397,-745,152,0
4373,-740,138,0
4332,-709,130,0
4294,-672,135,0
4262,-625,147,0
4238,-576,166,0
4225,-535,201,0
4221,-497,233,0
4229,-463,264,0
4233,-437,282,0
4229,-412,288,0
4213,-400,274,0
4186,-393,244,0
4148,-381,215,0
4114,-364,195,0
4079,-332,202,0
4054,-294,222,0
4032,-259,251,0
4018,-232,284,0
4004,-204,307,0
3994,-177,314,0
3989,-169,322,0
3989,-182,331,0
3992,-196,340,0
3995,-211,352,0
4001,-224,358,0
4008,-234,360,0
4010,-240,358,0
4009,-247,357,0
3997,-256,344,0
3983,-260,339,0
3965,-270,327,0
3953,-280,315,0
3934,-296,304,0
3922,-316,287,0
3916,-339,279,0
3915,-365,272,0
3918,-394,257,0
3926,-433,252,0
3945,-464,253,0
3966,-493,253,0
3986,-519,255,0
4006,-537,264,0
4029,-563,263,0
4057,-581,260,0
4078,-601,255,0
4092,-617,255,0
4104,-627,249,0
4120,-637,250,0
4129,-642,242,0
4131,-641,238,0
4136,-637,247,0
4135,-634,249,0
4138,-632,260,0
4138,-624,267,0
4139,-622,257,0
4136,-594,251,0
4132,-569,253,0
4134,-557,258,0
4135,-543,263,0
4137,-525,271,0
4137,-508,277,0
4139,-498,277,0
4135,-490,271,0
4123,-484,264,0
4111,-490,254,0
4097,-491,253,0
4084,-490,252,0
4071,-494,253,0
4062,-498,251,0
4055,-512,247,0
4053,-530,239,0
4055,-543,233,0
4056,-555,229,0
4062,-564,231,0
4068,-574,237,0
4070,-580,240,0
4072,-587,246,0
4070,-593,245,0
4061,-596,246,0
4053,-598,245,0
4045,-598,240,0
4037,-592,236,0
4029,-582,235,0
4030,-570,236,0
4038,-557,236,0
4052,-543,238,0
4058,-531,239,0
4065,-517,241,0
4070,-504,255,0
4072,-495,270,0
4073,-488,286,0
4073,-480,306,0
4071,-470,316,0
4072,-464,319,0
4062,-454,316,0
4048,-438,316,0
4037,-423,315,0
4029,-420,306,0
4023,-419,297,0
4027,-416,292,0
4029,-418,286,0
4037,-419,281,0
4050,-423,277,0
4059,-435,272,0
4071,-449,271,0
4082,-464,271,0
4091,-479,269,0
4096,-491,270,0
4098,-504,268,0
4099,-519,269,0
4094,-526,265,0
4088,-537,265,0
4090,-550,267,0
4092,-559,271,0
4095,-565,279,0
4097,-571,282,0
4098,-574,284,0
4099,-579,280,0
4099,-581,277,0
4098,-582,270,0
4089,-579,265,0
4083,-573,267,0
4077,-565,270,0
4071,-555,265,0
4064,-540,253,0
4058,-531,248,0
4056,-522,241,0
4058,-513,236,0
4061,-504,235,0
4068,-495,232,0
4068,-493,232,0
4073,-489,233,0
4079,-489,237,0
4082,-491,244,0
4084,-495,251,0
4081,-494,262,0
4081,-501,273,0
4075,-511,285,0
4066,-519,291,0
4059,-531,301,0
4052,-543,307,0
4046,-548,312,0
4041,-550,314,0
4035,-554,311,0
4035,-560,306,0
4037,-560,302,0
4042,-554,301,0
4043,-551,301,0
4050,-543,304,0
4062,-540,301,0
4074,-537,305,0
4080,-533,303,0
4086,-529,299,0
4089,-523,297,0
4086,-525,295,0
4084,-515,298,0
4077,-514,297,0
4068,-517,289,0
4059,-520,285,0
4053,-521,292,0
4051,-523,292,0
4053,-526,292,0
4058,-526,292,0
4060,-529,294,0
4069,-534,299,0
4081,-543,292,0
4088,-552,290,0
4090,-556,295,0
4093,-556,299,0
4097,-559,300,0
4098,-568,295,0
4098,-577,296,0
4097,-576,298,0
4094,-575,293,0
4095,-578,291,0
4093,-574,294,0
4092,-572,296,0
4094,-572,304,0
4087,-569,306,0
4079,-565,308,0
4073,-559,311,0
4065,-556,311,0
4058,-548,317,0
4056,-536,322,0
4050,-528,325,0
4045,-514,330,0
4044,-498,340,0
4037,-488,344,0
4031,-479,352,0
4030,-471,353,0
4027,-461,351,0
4025,-455,351,0
4030,-451,343,0
4034,-452,338,0
4045,-453,330,0
4056,-455,321,0
4072,-460,320,0
4083,-467,317,0
4092,-474,318,0
4097,-478,316,0
4103,-485,317,0
4103,-495,314,0
4101,-498,311,0
4099,-498,309,0
4096,-499,310,0
4086,-499,312,0
4081,-501,312,0
4077,-502,312,0
4074,-504,311,0
4067,-507,310,0
4062,-512,306,0
4058,-519,304,0
4051,-520,302,0
4047,-521,298,0
4043,-525,299,0
4040,-530,295,0
4039,-528,294,0
4039,-529,298,0
4038,-534,304,0
4038,-540,302,0
4034,-552,302,0
4032,-556,299,0
4030,-559,298,0
4026,-559,298,0
4021,-562,293,0
4017,-563,294,0
4012,-564,292,0
4012,-564,297,0
4015,-569,303,0
4014,-566,308,0
4020,-565,313,0
4027,-565,317,0
4035,-561,322,0
4040,-555,330,0
4044,-540,332,0
4046,-529,340,0
4047,-516,346,0
4041,-507,345,0
4029,-504,345,0
4016,-497,345,0
4009,-492,349,0
3999,-488,356,0
3993,-490,365,0
3996,-487,371,0
3999,-483,381,0
4009,-485,386,0
4025,-486,386,0
4043,-488,383,0
4068,-492,379,0
4084,-490,377,0
4102,-489,376,0
4121,-483,374,0
4146,-483,371,0
4158,-472,368,0
4169,-463,365,0
4178,-462,363,0
4172,-456,358,0
4161,-458,353,0
4147,-460,350,0
4127,-465,351,0
4114,-472,354,0
4101,-477,353,0
4087,-484,356,0
4079,-494,358,0
4065,-504,362,0
4057,-514,367,0
4052,-529,367,0
4047,-536,373,0
4046,-542,378,0
4046,-548,378,0
4043,-547,379,0
4044,-546,384,0
4043,-545,385,0
4047,-545,381,0
4045,-540,375,0
4045,-539,367,0
4045,-534,363,0
4042,-533,358,0
4042,-527,353,0
4039,-525,350,0
4039,-525,348,0
4041,-522,343,0
4042,-518,345,0
4045,-517,351,0
4051,-517,354,0
4060,-514,357,0
4059,-510,359,0
4056,-508,357,0
4053,-506,358,0
4049,-503,354,0
4043,-502,352,0
4037,-503,355,0
4034,-506,357,0
4038,-511,359,0
4037,-516,367,0
4041,-515,369,0
4047,-519,370,0
4052,-517,367,0
4062,-512,362,0
4070,-508,354,0
4073,-510,355,0
4085,-505,351,0
4090,-500,352,0
4092,-500,354,0
4095,-503,349,0
4090,-506,342,0
4085,-501,337,0
4073,-498,336,0
4065,-503,334,0
4055,-504,340,0
4048,-504,347,0
4046,-505,353,0
4044,-506,357,0
4046,-506,365,0
4053,-507,366,0
4053,-509,371,0
4057,-514,371,0
4061,-518,369,0
4064,-523,360,0
4064,-527,358,0
4061,-535,358,0
4057,-537,359,0
4054,-536,364,0
4056,-539,368,0
4063,-537,374,0
4066,-539,384,0
4071,-537,385,0
4075,-528,383,0
4073,-521,386,0
4070,-522,384,0
4070,-521,385,0
4065,-524,383,0
4058,-520,384,0
4060,-513,377,0
4063,-505,370,0
4063,-490,365,0
4067,-479,360,0
4070,-463,361,0
4074,-447,363,0
4082,-434,362,0
4086,-424,360,0
4082,-418,354,0
4076,-417,341,0
4071,-416,337,0
4063,-417,337,0
4058,-417,333,0
4060,-424,334,0
4059,-426,340,0
4060,-419,355,0
4064,-421,361,0
4060,-418,364,0
4056,-421,361,0
4056,-428,359,0
4052,-440,360,0
4047,-451,359,0
4047,-459,365,0
4048,-469,371,0
4049,-476,379,0
4050,-489,382,0
4051,-494,382,0
4047,-500,380,0
4046,-510,379,0
4041,-518,374,0
4041,-524,370,0
4042,-530,366,0
4037,-523,372,0
4035,-518,370,0
4036,-512,371,0
4036,-505,377,0
4041,-506,374,0
4044,-503,369,0
4044,-496,370,0
4044,-495,371,0
4043,-492,367,0
4040,-493,362,0
4039,-488,356,0
4035,-480,356,0
4038,-476,361,0
4040,-477,365,0
4042,-474,368,0
4043,-473,371,0
4044,-471,374,0
4046,-468,375,0
4047,-465,375,0
4047,-465,376,0
4050,-466,380,0
4053,-465,377,0
4057,-464,374,0
4064,-464,373,0
4073,-467,372,0
4076,-466,371,0
4079,-467,366,0
4084,-469,364,0
4082,-470,359,0
4080,-473,353,0
4075,-476,350,0
4075,-480,344,0
4070,-473,351,0
4068,-469,358,0
4066,-466,353,0
4063,-471,354,0
4065,-472,355,0
4062,-474,357,0
4060,-478,357,0
4060,-486,357,0
4063,-490,353,0
4061,-492,353,0
4065,-494,351,0
4072,-500,353,0
4073,-507,351,0
4076,-510,347,0
4078,-509,344,0
4078,-509,339,0
4077,-505,342,0
4073,-505,344,0
4076,-506,353,0
4076,-511,358,0
4073,-509,357,0
4071,-508,353,0
4067,-501,350,0
4068,-503,354,0
4069,-500,359,0
4070,-500,365,0
4067,-498,362,0
4062,-502,350,0
4055,-490,344,0
4052,-483,341,0
4046,-484,336,0
4044,-481,331,0
4046,-476,324,0
4046,-468,319,0
4044,-467,323,0
4045,-465,326,0
4052,-465,329,0
4058,-467,325,0
4060,-463,322,0
4075,-472,313,0
4078,-483,312,0
4085,-489,312,0
4091,-490,311,0
4094,-490,311,0
4097,-488,310,0
4099,-488,311,0
4100,-496,311,0
4100,-509,310,0
4101,-516,309,0
4100,-518,301,0
4100,-527,296,0
4100,-539,292,0
4099,-547,294,0
4093,-555,293,0
4084,-552,296,0
4076,-544,300,0
4070,-538,302,0
4064,-529,300,0
4061,-528,298,0
4052,-528,293,0
4049,-528,291,0
4045,-526,295,0
4040,-525,300,0
4036,-525,299,0
4037,-526,299,0
4040,-527,301,0
4044,-525,303,0
4045,-522,305,0
4052,-516,310,0
4063,-509,308,0
4071,-504,308,0
4079,-501,306,0
4084,-496,307,0
4090,-494,308,0
4092,-487,308,0
4096,-485,303,0
4098,-484,301,0
4099,-480,305,0
4099,-477,301,0
4100,-473,301,0
4100,-476,306,0
4100,-477,309,0
4100,-480,313,0
4093,-481,315,0
4090,-482,321,0
4088,-486,324,0
4081,-487,325,0
4079,-482,323,0
4076,-477,324,0
4074,-474,320,0
4067,-469,322,0
4070,-469,319,0
4070,-467,316,0
4071,-465,312,0
4071,-465,310,0
4073,-467,311,0
4074,-469,317,0
4075,-470,319,0
4079,-475,319,0
4077,-480,324,0
4074,-479,330,0
4070,-478,330,0
4069,-478,336,0
4068,-470,345,0
4064,-473,346,0
4063,-474,345,0
4061,-473,338,0
4057,-473,336,0
4052,-474,335,0
4049,-474,331,0
4043,-476,327,0
4043,-480,328,0
4041,-475,325,0
4034,-473,327,0
4037,-473,330,0
4041,-476,333,0
4045,-475,329,0
4049,-477,330,0
4052,-480,328,0
4055,-479,328,0
4060,-477,331,0
4062,-477,334,0
4063,-479,337,0
4066,-483,343,0
4066,-485,342,0
4070,-482,343,0
4073,-483,344,0
4071,-484,346,0
4070,-481,351,0
4072,-482,348,0
4074,-482,349,0
4073,-479,348,0
4070,-480,349,0
4068,-482,345,0
4065,-479,339,0
4059,-476,340,0
4055,-469,339,0
4053,-471,341,0
4057,-473,339,0
4058,-468,339,0
4063,-469,342,0
4067,-470,342,0
4070,-474,342,0
4070,-475,341,0
4070,-472,335,0
4070,-474,334,0
4072,-481,330,0
4072,-481,330,0
4074,-483,330,0
4076,-485,329,0
4074,-482,328,0
4075,-485,326,0
4077,-492,330,0
4082,-491,332,0
4084,-496,330,0
4086,-498,333,0
4086,-491,342,0
4088,-495,343,0
4089,-497,343,0
4091,-495,346,0
4093,-493,349,0
4094,-490,348,0
4095,-488,342,0
4092,-485,344,0
4095,-484,342,0
4091,-484,341,0
4090,-482,332,0
4091,-479,330,0
4086,-475,329,0
4083,-475,331,0
4079,-474,334,0
4078,-476,335,0
4075,-476,338,0
4072,-479,342,0
4072,-477,344,0
4069,-476,347,0
4069,-479,348,0
4062,-479,349,0
4060,-481,346,0
4057,-482,346,0
4053,-482,341,0
4053,-486,342,0
4059,-488,344,0
4057,-489,343,0
4058,-491,348,0
4063,-491,349,0
4068,-494,351,0
4067,-492,353,0
4066,-486,350,0
4065,-477,352,0
4059,-471,356,0
4055,-470,361,0
4055,-467,367,0
4044,-466,369,0
4039,-465,364,0
4033,-465,355,0
4027,-466,351,0
4032,-460,341,0
4034,-460,337,0
4036,-461,338,0
4044,-461,340,0
4057,-464,341,0
4068,-471,340,0
4076,-474,343,0
4086,-484,348,0
4086,-494,347,0
4084,-499,346,0
4079,-504,347,0
4071,-514,353,0
4061,-522,356,0
4054,-526,357,0
4046,-528,358,0
4043,-530,359,0
4043,-524,360,0
4045,-523,361,0
4048,-517,357,0
4055,-508,355,0
4065,-503,351,0
4070,-503,349,0
4084,-502,348,0
4084,-501,350,0
4088,-500,346,0
4084,-505,350,0
4081,-506,351,0
4077,-506,350,0
4073,-506,343,0
4071,-509,340,0
4071,-510,335,0
4070,-514,337,0
4067,-516,341,0
4065,-522,341,0
4067,-523,341,0
4069,-526,340,0
4067,-530,337,0
4070,-532,333,0
4071,-533,329,0
4072,-530,329,0
4074,-526,333,0
4075,-520,332,0
4074,-514,332,0
4072,-510,335,0
4070,-507,338,0
4072,-501,345,0
4073,-501,350,0
4075,-499,357,0
4075,-500,357,0
4075,-502,362,0
4068,-496,363,0
4060,-492,360,0
4060,-488,363,0
4055,-484,361,0
4053,-485,359,0
4052,-484,358,0
4047,-487,357,0
4044,-490,353,0
4039,-492,353,0
4036,-491,349,0
4037,-494,349,0
4036,-498,349,0
4032,-498,351,0
4033,-502,351,0
4037,-510,350,0
4036,-515,353,0
4039,-519,354,0
4044,-521,354,0
4048,-527,355,0
4051,-532,359,0
4056,-532,362,0
4059,-534,365,0
4059,-532,366,0
4055,-530,367,0
4056,-533,362,0
4059,-527,360,0
4065,-524,360,0
4067,-518,359,0
4067,-514,352,0
4064,-508,351,0
4063,-510,352,0
4060,-505,353,0
4059,-504,352,0
4061,-505,353,0
4065,-508,354,0
4061,-510,356,0
4065,-508,356,0
4066,-504,354,0
4070,-506,354,0
4063,-507,354,0
4063,-505,353,0
4058,-508,352,0
4060,-504,351,0
4059,-505,353,0
4059,-501,357,0
4057,-502,357,0
4062,-506,357,0
4061,-506,357,0
4066,-507,353,0
4064,-506,349,0
4064,-510,349,0
4070,-507,344,0
4072,-512,343,0
4074,-511,346,0
4075,-511,347,0
4075,-509,346,0
4070,-511,349,0
4072,-510,355,0
4073,-512,360,0
4074,-513,363,0
4071,-509,368,0
4072,-507,370,0
4069,-505,372,0
4061,-502,377,0
4058,-503,377,0
4054,-502,375,0
4053,-502,373,0
4050,-500,373,0
4050,-499,372,0
4052,-500,377,0
4050,-501,375,0
4047,-500,372,0
4045,-504,374,0
4046,-501,372,0
4045,-504,372,0
4046,-502,371,0
4048,-503,367,0
4049,-508,368,0
4059,-505,371,0
4068,-499,373,0
4073,-494,376,0
4074,-493,376,0
4084,-494,380,0
4084,-487,382,0
4081,-480,383,0
4081,-479,386,0
4078,-479,382,0
4074,-482,381,0
4072,-484,382,0
4065,-482,383,0
4062,-484,382,0
4058,-487,376,0
4060,-487,372,0
4058,-490,371,0
4064,-490,371,0
4071,-492,366,0
4075,-495,365,0
4087,-490,363,0
4093,-488,364,0
4097,-487,367,0
4099,-492,371,0
4101,-498,374,0
4102,-498,368,0
4102,-500,372,0
4099,-502,373,0
4089,-504,378,0
4080,-507,381,0
4069,-507,384,0
4058,-504,385,0
4053,-501,387,0
4045,-496,391,0
4035,-488,388,0
4028,-481,384,0
4032,-480,386,0
4033,-477,386,0
4032,-475,385,0
4031,-478,388,0
4031,-480,387,0
4026,-480,389,0
4026,-476,391,0
4027,-476,391,0
4028,-476,393,0
4026,-478,390,0
4030,-482,388,0
4031,-480,387,0
4031,-481,387,0
4034,-481,385,0
4040,-484,384,0
4043,-484,383,0
4051,-490,382,0
4056,-493,384,0
4063,-495,385,0
4069,-495,386,0
4074,-496,391,0
4077,-497,391,0
4078,-493,391,0
4081,-492,391,0
4082,-491,393,0
4078,-489,389,0
4078,-487,387,0
4081,-483,386,0
4077,-478,381,0
4077,-476,382,0
4075,-470,380,0
4073,-468,386,0
4075,-467,389,0
4080,-466,390,0
4083,-466,395,0
4087,-469,396,0
4086,-471,393,0
4088,-468,396,0
4085,-465,397,0
4081,-466,396,0
4072,-469,395,0
4064,-467,393,0
4055,-465,390,0
4053,-466,389,0
4048,-467,387,0
4042,-461,387,0
4042,-460,385,0
4042,-459,385,0
4042,-458,388,0
4039,-456,387,0
4039,-463,387,0
4040,-466,388,0
4038,-466,386,0
4039,-470,384,0
4044,-475,385,0
4042,-475,386,0
4046,-482,384,0
4045,-492,385,0
4045,-494,386,0
4046,-495,388,0
4048,-491,389,0
4055,-494,389,0
4056,-495,387,0
4054,-497,383,0
4053,-499,383,0
4054,-498,381,0
4053,-494,380,0
4053,-491,379,0
4058,-487,379,0
4064,-488,379,0
4064,-481,382,0
4070,-474,377,0
4072,-470,380,0
4074,-466,378,0
4078,-467,382,0
4078,-466,378,0
4077,-466,378,0
4077,-467,377,0
4074,-469,379,0
4073,-473,379,0
4068,-472,383,0
4062,-471,385,0
4057,-474,385,0
4054,-472,385,0
4052,-473,389,0
4054,-470,390,0
4054,-468,390,0
4055,-467,390,0
4055,-468,392,0
4054,-470,393,0
4059,-468,394,0
4062,-473,398,0
4063,-475,401,0
4060,-476,400,0
4056,-474,400,0
4057,-475,401,0
4056,-474,395,0
4060,-475,397,0
4057,-477,396,0
4056,-476,395,0
4055,-477,393,0
4057,-474,397,0
4061,-473,396,0
4067,-472,393,0
4069,-470,396,0
4072,-466,400,0
4075,-465,399,0
4074,-465,401,0
4078,-462,400,0
4079,-461,400,0
4084,-457,397,0
4079,-452,399,0
4078,-455,400,0
4074,-459,400,0
4073,-458,398,0
4070,-459,400,0
4067,-461,398,0
4057,-459,404,0
4051,-456,404,0
4050,-465,398,0
4048,-467,394,0
4051,-464,395,0
4055,-462,397,0
4056,-459,398,0
4063,-461,398,0
4069,-458,406,0
4071,-461,405,0
4072,-460,412,0
4077,-460,412,0
4077,-462,408,0
4073,-463,410,0
4063,-464,411,0
4057,-465,409,0
4051,-464,408,0
4045,-467,412,0
4043,-469,415,0
4045,-469,411,0
4049,-463,413,0
4050,-466,413,0
4054,-465,412,0
4058,-458,411,0
4065,-455,413,0
4061,-446,408,0
4069,-458,404,0
4071,-464,405,0
4073,-461,406,0
4074,-464,407,0
4073,-461,407,0
4071,-461,406,0
4071,-464,407,0
4069,-463,412,0
4070,-460,411,0
4068,-460,409,0
4064,-461,411,0
4062,-460,409,0
4057,-464,407,0
4057,-461,408,0
4061,-461,410,0
4061,-464,414,0
4061,-466,411,0
4065,-461,412,0
4065,-462,412,0
4063,-461,412,0
4062,-457,413,0
4054,-440,410,0
4062,-455,405,0
4065,-470,402,0
4067,-473,409,0
4065,-466,408,0
4058,-460,406,0
4057,-459,403,0
4053,-462,400,0
4051,-463,404,0
4052,-464,404,0
4056,-467,406,0
4057,-466,409,0
4058,-470,408,0
4059,-473,413,0
4055,-475,412,0
4055,-475,407,0
4051,-474,407,0
4050,-476,404,0
4054,-478,402,0
4051,-476,403,0
4049,-476,404,0
4057,-474,404,0
4053,-476,403,0
4056,-471,405,0
4063,-469,406,0
4066,-468,410,0
4069,-465,408,0
4070,-463,408,0
4069,-460,409,0
4069,-459,413,0
4065,-455,413,0
4067,-456,414,0
4066,-458,415,0
4065,-456,421,0
4066,-454,420,0
4067,-452,419,0
4071,-451,420,0
4068,-449,424,0
4069,-446,422,0
4069,-446,424,0
4070,-442,424,0
4062,-441,419,0
4061,-441,416,0
4055,-436,414,0
4057,-438,411,0
4052,-441,409,0
4050,-442,414,0
4050,-445,417,0
4048,-444,417,0
4051,-442,420,0
4054,-444,417,0
4055,-442,413,0
4058,-446,416,0
4060,-446,418,0
4060,-451,418,0
4061,-456,417,0
4063,-460,417,0
4062,-461,417,0
4059,-464,420,0
4062,-466,419,0
4065,-470,417,0
4067,-470,415,0
4066,-474,410,0
4069,-480,410,0
4067,-485,409,0
4065,-488,410,0
4069,-489,415,0
4069,-492,419,0
4070,-492,418,0
4066,-490,413,0
4065,-488,410,0
4060,-485,410,0
4059,-481,404,0
4053,-478,402,0
4046,-471,398,0
4048,-471,406,0
4049,-467,410,0
4053,-459,413,0
4055,-454,410,0
4053,-450,412,0
4057,-448,416,0
4062,-443,419,0
4061,-443,425,0
4063,-442,429,0
4059,-436,431,0
4061,-434,434,0
4060,-432,436,0
4058,-434,439,0
4050,-435,436,0
4051,-434,435,0
4051,-434,433,0
4052,-432,430,0
4055,-429,430,0
4056,-427,431,0
4057,-427,428,0
4064,-426,433,0
4066,-425,439,0
4070,-424,444,0
4079,-427,446,0
4084,-429,443,0
4079,-432,442,0
4079,-438,439,0
4078,-437,440,0
4077,-440,437,0
4072,-442,432,0
4067,-443,431,0
4068,-445,430,0
4066,-451,430,0
4061,-455,431,0
4057,-452,431,0
4058,-449,433,0
4061,-447,430,0
4066,-444,432,0
4068,-443,431,0
4066,-445,430,0
4061,-448,431,0
4054,-447,434,0
4050,-445,432,0
4047,-447,431,0
4045,-450,430,0
4045,-447,427,0
4046,-450,429,0
4046,-448,428,0
4047,-447,428,0
4048,-448,431,0
4055,-451,434,0
4061,-445,435,0
4059,-446,435,0
4061,-446,437,0
4058,-445,438,0
4056,-439,436,0
4051,-442,435,0
4052,-445,435,0
4052,-446,435,0
4051,-448,435,0
4059,-449,438,0
4060,-445,440,0
4062,-444,437,0
4067,-445,439,0
4066,-441,441,0
4069,-443,442,0
4072,-444,441,0
4075,-434,442,0
4073,-430,441,0
4073,-434,436,0
4075,-430,443,0
4072,-428,441,0
4070,-434,443,0
4067,-433,441,0
4058,-435,440,0
4054,-437,444,0
4052,-439,449,0
4054,-444,446,0
4053,-445,445,0
4050,-447,440,0
4046,-449,439,0
4044,-445,439,0
4042,-448,442,0
4046,-448,440,0
4043,-448,435,0
4044,-445,436,0
4046,-447,435,0
4051,-447,435,0
4056,-446,439,0
4061,-444,446,0
4067,-443,448,0
4069,-435,449,0
4070,-432,442,0
4071,-432,444,0
4067,-423,443,0
4071,-426,439,0
4068,-429,434,0
4065,-425,435,0
4066,-419,436,0
4066,-420,440,0
4066,-420,438,0
4067,-419,435,0
4064,-420,432,0
4065,-415,434,0
4063,-419,431,0
4066,-424,435,0
4069,-424,434,0
4074,-425,434,0
4073,-426,436,0
4074,-428,437,0
4074,-431,441,0
4074,-432,446,0
4074,-435,445,0
4073,-435,448,0
4074,-435,447,0
4067,-435,449,0
4059,-437,450,0
4061,-439,453,0
4056,-436,451,0
4050,-435,455,0
4048,-434,453,0
4047,-442,453,0
4048,-441,461,0
4046,-435,461,0
4043,-432,461,0
4043,-433,458,0
4040,-436,457,0
4041,-435,451,0
4041,-437,451,0
4037,-436,448,0
4039,-433,444,0
4042,-428,445,0
4041,-426,446,0
4044,-426,445,0
4048,-430,447,0
4059,-427,446,0
4065,-425,445,0
4068,-425,447,0
4070,-423,447,0
4075,-419,447,0
4074,-421,450,0
4072,-423,453,0
4072,-427,453,0
4070,-431,455,0
4066,-432,457,0
4061,-432,454,0
4061,-431,449,0
4064,-436,443,0
4064,-438,435,0
4063,-440,432,0
4061,-438,429,0
4063,-438,431,0
4069,-436,435,0
4074,-433,433,0
4077,-436,438,0
4078,-433,441,0
4078,-435,444,0
4074,-434,449,0
4072,-436,448,0
4064,-433,447,0
4056,-436,445,0
4055,-443,447,0
4050,-442,446,0
4046,-438,449,0
4045,-433,449,0
4044,-433,451,0
4044,-432,448,0
4044,-435,447,0
4048,-433,446,0
4048,-430,445,0
4053,-429,444,0
4050,-426,440,0
4051,-430,439,0
4053,-434,440,0
4051,-439,440,0
4051,-439,439,0
4049,-443,438,0
4049,-445,434,0
4054,-447,434,0
4059,-447,436,0
4064,-445,435,0
4068,-445,436,0
4073,-443,440,0
4076,-442,441,0
4078,-441,443,0
4082,-437,443,0
4081,-433,443,0
4080,-430,437,0
4077,-424,437,0
4076,-421,440,0
4076,-422,434,0
4075,-421,432,0
4070,-419,431,0
4071,-418,429,0
4071,-415,430,0
4069,-416,431,0
4068,-415,431,0
4067,-410,430,0
4065,-410,433,0
4065,-419,438,0
4063,-424,438,0
4061,-427,439,0
4055,-431,439,0
4054,-433,437,0
4052,-436,436,0
4052,-442,441,0
4054,-441,447,0
4054,-440,447,0
4052,-441,448,0
4053,-441,452,0
4056,-439,452,0
4054,-439,452,0
4050,-436,452,0
4050,-436,450,0
4051,-434,447,0
4052,-432,447,0
4052,-428,446,0
4050,-428,446,0
4049,-428,445,0
4049,-430,445,0
4048,-428,441,0
4048,-433,440,0
4044,-432,440,0
4044,-432,438,0
4044,-434,438,0
4047,-434,438,0
4047,-434,440,0
4047,-432,440,0
4049,-433,437,0
4052,-429,433,0
4053,-427,433,0
4051,-427,431,0
4055,-429,430,0
4063,-430,428,0
4062,-427,433,0
4060,-430,438,0
4064,-434,437,0
4065,-436,438,0
4071,-437,437,0
4069,-437,439,0
4068,-439,442,0
4070,-434,441,0
4070,-432,442,0
4069,-431,442,0
4071,-432,442,0
4072,-434,442,0
4071,-433,445,0
4072,-433,443,0
4071,-435,445,0
4068,-434,444,0
4067,-436,443,0
4063,-435,445,0
4065,-438,448,0
4060,-436,448,0
4057,-434,447,0
4052,-436,449,0
4046,-439,452,0
4042,-440,452,0
4042,-442,454,0
4038,-444,454,0
4040,-446,453,0
4042,-447,453,0
4047,-442,453,0
4052,-440,453,0
4056,-437,456,0
4065,-433,453,0
4074,-428,454,0
4077,-429,451,0
4078,-428,451,0
4075,-427,450,0
4071,-426,450,0
4067,-429,452,0
4066,-430,450,0
4059,-428,449,0
4057,-430,450,0
4055,-434,449,0
4056,-433,447,0
4057,-432,444,0
4061,-433,440,0
4059,-436,441,0
4062,-442,445,0
4067,-444,449,0
4071,-443,452,0
4073,-442,459,0
4075,-442,457,0
4077,-442,459,0
4073,-440,454,0
4067,-440,455,0
4059,-439,458,0
4055,-442,463,0
4053,-442,461,0
4056,-445,464,0
4055,-448,460,0
4051,-447,459,0
4050,-447,460,0
4050,-448,459,0
4052,-445,458,0
4054,-442,457,0
4059,-443,455,0
4060,-441,458,0
4064,-444,463,0
4065,-443,467,0
4064,-446,465,0
4066,-452,461,0
4068,-452,460,0
4062,-453,460,0
4058,-452,456,0
4054,-450,456,0
4050,-445,458,0
4049,-442,455,0
4051,-438,459,0
4052,-440,459,0
4056,-439,463,0
4060,-443,464,0
4062,-440,467,0
4061,-438,467,0
4059,-440,468,0
4063,-440,465,0
4062,-437,469,0
4056,-437,467,0
4057,-440,467,0
4052,-440,464,0
4053,-440,461,0
4053,-434,461,0
4052,-435,457,0
4049,-434,453,0
4047,-434,455,0
4052,-434,453,0
4056,-436,450,0
4061,-435,450,0
4064,-438,449,0
4066,-438,454,0
4065,-440,455,0
4066,-442,458,0
4065,-442,458,0
4063,-445,459,0
4057,-444,461,0
4056,-444,463,0
4051,-443,463,0
4050,-440,467,0
4050,-437,467,0
4046,-436,470,0
4045,-435,471,0
4044,-437,473,0
4046,-435,475,0
4049,-435,478,0
4052,-433,477,0
4052,-434,476,0
4049,-436,471,0
4049,-436,468,0
4049,-438,469,0
4049,-438,469,0
4047,-439,469,0
4051,-438,475,0
4052,-437,474,0
4054,-435,474,0
4054,-436,478,0
4059,-439,480,0
4063,-439,482,0
4067,-443,485,0
4071,-443,483,0
4066,-442,479,0
4062,-442,477,0
4061,-441,474,0
4055,-436,469,0
4055,-437,470,0
4059,-433,468,0
4061,-439,471,0
4063,-440,471,0
4065,-443,472,0
4063,-444,475,0
4061,-447,474,0
4063,-450,477,0
4059,-450,480,0
4058,-454,481,0
4056,-451,481,0
4052,-450,481,0
4053,-452,480,0
4049,-454,478,0
4047,-454,475,0
4048,-457,474,0
4051,-463,473,0
4057,-461,474,0
4055,-456,478,0
4059,-453,478,0
4063,-452,476,0
4058,-452,482,0
4062,-455,481,0
4059,-457,481,0
4058,-456,479,0
4059,-457,478,0
4058,-459,484,0
4058,-461,479,0
4055,-459,478,0
4054,-454,473,0
4055,-447,468,0
4051,-447,469,0
4053,-444,468,0
4049,-442,475,0
4048,-442,480,0
4045,-433,480,0
4044,-432,478,0
4040,-436,472,0
4038,-438,467,0
4041,-435,464,0
4043,-437,468,0
4043,-436,465,0
4048,-438,462,0
4052,-438,460,0
4061,-438,463,0
4068,-435,468,0
4073,-434,474,0
4073,-436,478,0
4074,-435,487,0
4076,-439,488,0
4074,-443,490,0
4070,-447,492,0
4062,-449,493,0
4054,-453,493,0
4048,-455,491,0
4042,-454,487,0
4034,-452,487,0
4028,-448,485,0
4024,-446,487,0
4028,-446,483,0
4031,-444,481,0
4035,-443,481,0
4035,-435,482,0
4037,-432,480,0
4039,-435,481,0
4040,-439,480,0
4044,-444,479,0
4046,-451,476,0
4048,-451,476,0
4056,-458,476,0
4063,-458,472,0
4064,-458,469,0
4064,-460,468,0
4070,-459,466,0
4069,-460,464,0
4068,-463,470,0
4065,-466,471,0
4059,-467,472,0
4055,-470,475,0
4052,-469,476,0
4051,-467,476,0
4053,-466,480,0
4060,-463,481,0
4059,-462,483,0
4064,-457,487,0
4062,-455,495,0
4064,-455,495,0
4062,-457,493,0
4059,-458,492,0
4057,-456,492,0
4053,-451,487,0
4051,-449,487,0
4054,-449,490,0
4051,-449,491,0
4053,-448,493,0
4051,-444,496,0
4049,-443,498,0
4050,-442,504,0
4049,-445,503,0
4045,-442,503,0
4043,-442,507,0
4046,-442,507,0
4048,-441,508,0
4051,-442,508,0
4053,-444,507,0
4054,-444,505,0
4057,-439,503,0
4058,-440,503,0
4059,-436,501,0
4054,-432,499,0
4053,-430,497,0
4050,-429,495,0
4051,-431,495,0
4054,-430,501,0
4054,-433,503,0
4056,-434,502,0
4055,-433,503,0
4056,-434,502,0
4053,-437,502,0
4051,-438,501,0
4052,-438,501,0
4049,-433,504,0
4053,-432,505,0
4053,-430,508,0
4056,-431,507,0
4055,-428,507,0
4052,-427,506,0
4050,-432,502,0
4043,-432,500,0
4042,-428,500,0
4041,-433,503,0
4044,-435,502,0
4044,-426,503,0
4047,-431,509,0
4049,-438,507,0
4050,-442,506,0
4056,-442,506,0
4056,-441,502,0
4053,-438,500,0
4051,-442,493,0
4051,-437,493,0
4049,-440,494,0
4050,-441,497,0
4053,-438,500,0
4050,-437,498,0
4049,-438,500,0
4050,-440,499,0
4050,-438,501,0
4047,-440,506,0
4046,-441,505,0
4048,-443,506,0
4045,-444,509,0
4045,-443,511,0
4045,-444,511,0
4046,-442,509,0
4046,-442,509,0
4047,-445,509,0
4046,-444,507,0
4046,-445,508,0
4047,-440,504,0
4047,-440,505,0
4050,-439,506,0
4046,-440,508,0
4050,-439,509,0
4048,-437,508,0
4044,-432,506,0
4046,-426,511,0
4045,-429,518,0
4049,-434,516,0
4049,-432,516,0
4051,-433,516,0
4050,-432,516,0
4047,-431,516,0
4049,-430,517,0
4048,-432,516,0
4048,-433,511,0
4046,-430,502,0
4047,-430,501,0
4048,-429,500,0
4045,-426,498,0
4053,-429,503,0
4054,-429,505,0
4058,-428,505,0
4061,-429,502,0
4067,-430,501,0
4069,-430,503,0
4064,-433,504,0
4057,-439,509,0
4051,-444,509,0
4047,-447,509,0
4042,-455,511,0
4037,-457,510,0
4039,-454,513,0
4038,-451,518,0
4040,-446,521,0
4044,-444,517,0
4045,-439,514,0
4046,-439,516,0
4049,-440,520,0
4051,-436,520,0
4049,-435,517,0
4047,-437,513,0
4047,-436,506,0
4048,-435,505,0
4050,-436,508,0
4050,-434,508,0
4054,-438,507,0
4054,-441,505,0
4055,-436,506,0
4055,-436,504,0
4054,-438,504,0
4052,-439,507,0
4052,-440,511,0
4054,-439,510,0
4053,-441,505,0
4051,-443,507,0
4050,-440,510,0
4053,-437,511,0
4054,-435,513,0
4054,-435,513,0
4054,-434,514,0
4055,-434,513,0
4054,-431,515,0
4052,-428,516,0
4051,-425,518,0
4051,-427,514,0
4052,-422,511,0
4051,-422,507,0
4057,-420,509,0
4059,-423,513,0
4058,-426,510,0
4056,-432,507,0
4054,-435,502,0
4054,-435,504,0
4046,-437,502,0
4045,-439,504,0
4044,-442,504,0
4042,-441,508,0
4037,-441,509,0
4036,-441,508,0
4037,-440,508,0
4041,-441,510,0
4042,-438,510,0
4047,-439,512,0
4051,-437,512,0
4053,-433,514,0
4054,-431,515,0
4056,-429,516,0
4054,-427,512,0
4056,-425,515,0
4053,-424,514,0
4054,-422,512,0
4055,-425,513,0
4056,-426,514,0
4051,-423,511,0
4050,-423,507,0
4049,-422,508,0
4049,-424,509,0
4050,-428,512,0
4049,-427,512,0
4047,-432,508,0
4045,-437,506,0
4048,-439,509,0
4046,-439,510,0
4046,-442,512,0
4046,-441,509,0
4045,-442,513,0
4043,-440,514,0
4042,-439,511,0
4044,-439,510,0
4046,-444,507,0
4052,-443,508,0
4053,-443,510,0
4060,-443,506,0
4059,-441,509,0
4066,-442,511,0
4069,-439,513,0
4070,-436,511,0
4065,-431,510,0
4058,-424,504,0
4055,-422,500,0
4050,-419,500,0
4050,-420,504,0
4048,-420,508,0
4046,-421,509,0
4043,-424,506,0
4043,-425,507,0
4042,-427,507,0
4043,-427,507,0
4042,-432,504,0
4044,-432,502,0
4044,-428,506,0
4046,-431,507,0
4051,-432,508,0
4054,-433,508,0
4059,-434,508,0
4060,-435,509,0
4057,-436,512,0
4058,-437,510,0
4055,-437,507,0
4054,-436,504,0
4053,-437,502,0
4053,-438,505,0
4053,-440,503,0
4052,-442,501,0
4049,-437,504,0
4050,-438,503,0
4046,-436,502,0
4046,-435,502,0
4043,-436,498,0
4042,-434,494,0
4043,-433,494,0
4042,-435,494,0
4044,-435,495,0
4048,-431,497,0
4051,-427,500,0
4057,-428,499,0
4062,-427,504,0
4064,-421,505,0
4062,-420,510,0
4059,-424,507,0
4058,-426,506,0
4053,-429,504,0
4043,-429,506,0
4037,-429,506,0
4034,-432,502,0
4035,-437,498,0
4038,-437,494,0
4040,-433,492,0
4043,-433,489,0
4047,-428,489,0
4056,-423,491,0
4064,-420,493,0
4071,-418,496,0
4077,-414,497,0
4084,-414,495,0
4085,-417,493,0
4081,-414,487,0
4077,-420,488,0
4064,-420,489,0
4060,-419,490,0
4055,-423,489,0
4053,-429,486,0
4047,-430,488,0
4045,-432,488,0
4050,-430,489,0
4051,-427,486,0
4053,-423,486,0
4054,-425,482,0
4052,-425,484,0
4049,-426,480,0
4047,-434,476,0
4041,-426,481,0
4040,-429,479,0
4040,-434,475,0
4038,-443,478,0
4042,-445,476,0
4043,-443,478,0
4045,-446,477,0
4048,-444,476,0
4052,-442,473,0
4053,-443,473,0
4054,-440,477,0
4053,-442,480,0
4055,-444,478,0
4060,-444,479,0
4061,-442,474,0
4067,-443,477,0
4070,-443,476,0
4075,-443,477,0
4087,-446,480,0
4093,-438,480,0
4094,-434,480,0
4097,-436,476,0
4099,-431,472,0
4097,-426,470,0
4093,-426,464,0
4088,-425,461,0
4082,-424,459,0
4080,-428,453,0
4075,-430,453,0
4075,-434,451,0
4075,-434,451,0
4066,-432,457,0
4061,-434,458,0
4057,-439,457,0
4055,-441,461,0
4051,-443,463,0
4050,-440,463,0
4044,-441,462,0
4042,-440,462,0
4036,-437,456,0
4033,-432,460,0
4031,-429,456,0
4027,-425,460,0
4023,-422,463,0
4029,-416,471,0
4030,-412,470,0
4036,-414,468,0
4040,-412,470,0
4041,-409,468,0
4040,-411,465,0
4038,-411,462,0
4040,-415,462,0
4037,-419,459,0
4041,-425,462,0
4044,-428,465,0
4046,-432,468,0
4051,-435,476,0
4052,-428,483,0
4062,-437,486,0
4067,-439,478,0
4068,-439,472,0
4070,-440,468,0
4071,-443,466,0
4073,-441,462,0
4074,-443,458,0
4077,-444,451,0
4082,-445,450,0
4083,-442,449,0
4089,-445,446,0
4094,-442,443,0
4098,-449,446,0
4101,-456,445,0
4104,-463,450,0
4109,-465,444,0
4111,-461,441,0
4108,-456,435,0
4108,-455,425,0
4104,-452,412,0
4103,-450,402,0
4102,-443,396,0
4101,-441,400,0
4101,-435,404,0
4101,-427,407,0
4101,-424,404,0
4100,-420,400,0
4100,-413,397,0
4100,-417,392,0
4100,-424,389,0
4100,-424,390,0
4101,-421,389,0
4101,-424,390,0
4102,-435,387,0
4102,-440,386,0
4101,-445,386,0
4100,-447,392,0
4100,-459,393,0
4097,-471,390,0
4088,-480,384,0
4077,-483,379,0
4060,-482,378,0
4046,-479,377,0
4035,-478,380,0
4026,-477,381,0
4018,-469,379,0
4015,-474,378,0
4012,-467,375,0
4009,-460,373,0
4002,-451,371,0
4000,-446,367,0
3998,-441,365,0
3994,-438,358,0
3996,-436,356,0
3996,-430,355,0
3997,-429,356,0
4000,-421,359,0
4006,-421,366,0
4012,-424,371,0
4022,-421,371,0
4030,-416,370,0
4035,-417,360,0
4041,-419,350,0
4046,-424,341,0
4047,-422,329,0
4046,-423,320,0
4047,-422,312,0
4051,-426,307,0
4052,-425,303,0
4061,-436,298,0
4067,-445,290,0
4071,-462,281,0
4073,-468,275,0
4073,-474,272,0
4076,-486,269,0
4075,-502,272,0
4069,-520,275,0
4057,-529,272,0
4048,-537,262,0
4038,-540,239,0
4031,-542,219,0
4024,-539,196,0
4020,-542,176,0
4016,-537,165,0
4014,-534,158,0
4016,-536,155,0
4019,-538,142,0
4023,-543,132,0
4029,-548,131,0
4030,-554,120,0
4026,-563,119,0
4029,-582,115,0
4023,-607,105,0
4021,-634,88,0
4019,-648,71,0
4011,-659,51,0
4006,-668,32,0
3998,-683,16,0
3992,-694,0,0
3982,-703,-17,0
3982,-726,-31,0
3980,-743,-43,0
3971,-754,-49,0
3965,-768,-55,0
3956,-786,-74,0
3946,-801,-99,0
3932,-812,-124,0
3914,-826,-142,0
3896,-836,-163,0
3878,-847,-181,0
3860,-850,-190,0
3846,-859,-193,0
3837,-865,-207,0
3832,-880,-218,0
3821,-886,-232,0
3815,-897,-247,0
3797,-907,-262,0
3781,-913,-270,0
3756,-918,-287,0
3726,-923,-297,0
3701,-927,-307,0
3669,-919,-311,0
3632,-914,-302,0
3594,-909,-304,0
3560,-903,-297,0
3525,-899,-293,0
3483,-891,-300,0
3435,-885,-304,0
3387,-874,-301,0
3336,-871,-286,0
3279,-868,-266,0
3222,-869,-242,0
3173,-869,-200,0
3128,-865,-152,0
3086,-861,-90,0
3053,-860,-33,0
3025,-856,13,0
3010,-845,66,0
3005,-838,115,0
3002,-830,144,0
2999,-814,156,0
3001,-788,156,0
3001,-762,148,0
2999,-716,143,0
2997,-671,138,0
3000,-627,125,0
3003,-573,113,0
3014,-531,85,0
3043,-495,51,0
3078,-468,4,0
3112,-449,-44,0
3140,-429,-92,0
3155,-414,-150,0
3161,-414,-213,0
3191,-447,-251,0
3235,-469,-248,0
3283,-489,-235,0
3346,-506,-205,0
3404,-536,-168,0
3456,-584,-127,0
3480,-620,-94,0
3490,-649,-74,0
3478,-671,-71,0
3445,-678,-81,0
3414,-696,-93,0
3389,-724,-94,0
3380,-743,-93,0
3373,-758,-86,0
3382,-771,-71,0
3392,-778,-59,0
3401,-778,-58,0
3421,-778,-64,0
3435,-792,-83,0
3459,-817,-102,0
3491,-837,-134,0
3518,-838,-168,0
3541,-836,-207,0
3574,-853,-249,0
3614,-871,-278,0
3666,-882,-308,0
3734,-900,-333,0
3793,-894,-352,0
3852,-887,-358,0
3912,-894,-374,0
3958,-895,-405,0
3993,-901,-440,0
4011,-911,-476,0
4008,-904,-501,0
3990,-900,-514,0
3953,-892,-512,0
3909,-888,-495,0
3849,-899,-475,0
3789,-934,-469,0
3742,-982,-470,0
3706,-1037,-472,0
3678,-1092,-478,0
3657,-1145,-486,0
3667,-1206,-502,0
3699,-1254,-524,0
3740,-1292,-555,0
3802,-1332,-598,0
3888,-1383,-634,0
3992,-1420,-655,0
4084,-1435,-657,0
4182,-1411,-651,0
4269,-1359,-637,0
4332,-1305,-639,0
4345,-1250,-673,0
4332,-1221,-737,0
4284,-1213,-813,0
4203,-1223,-899,0
4108,-1240,-974,0
3994,-1253,-1029,0
3883,-1266,-1040,0
3773,-1241,-1004,0
3678,-1216,-944,0
3609,-1193,-879,0
3560,-1206,-818,0
3525,-1224,-775,0
3516,-1277,-746,0
3523,-1349,-739,0
3544,-1452,-744,0
3571,-1568,-772,0
3602,-1679,-815,0
3629,-1743,-842,0
3668,-1790,-853,0
3718,-1810,-861,0
3779,-1833,-874,0
3842,-1859,-896,0
3906,-1880,-939,0
3966,-1875,-989,0
4008,-1871,-1041,0
4021,-1854,-1101,0
4034,-1853,-1150,0
4036,-1849,-1178,0
4024,-1830,-1190,0
4002,-1815,-1205,0
3973,-1770,-1232,0
3955,-1736,-1263,0
3940,-1692,-1269,0
3943,-1665,-1260,0
3945,-1649,-1281,0
3944,-1615,-1292,0
3942,-1591,-1312,0
3948,-1555,-1316,0
3962,-1537,-1298,0
3979,-1518,-1254,0
4002,-1518,-1203,0
4011,-1541,-1161,0
4010,-1564,-1123,0
3985,-1586,-1115,0
3945,-1599,-1128,0
3925,-1636,-1144,0
3918,-1672,-1132,0
3916,-1698,-1113,0
3908,-1724,-1101,0
3865,-1722,-1107,0
3800,-1723,-1114,0
3743,-1727,-1113,0
3681,-1728,-1117,0
3619,-1725,-1132,0
3569,-1715,-1152,0
3543,-1707,-1152,0
3537,-1685,-1139,0
3595,-1650,-1110,0
3664,-1713,-1073,0
3719,-1748,-1018,0
3724,-1726,-969,0
3711,-1719,-907,0
3683,-1688,-844,0
3635,-1632,-796,0
3584,-1576,-739,0
3517,-1498,-726,0
3435,-1398,-748,0
3391,-1345,-748,0
3348,-1281,-765,0
3326,-1261,-792,0
3307,-1220,-817,0
3300,-1207,-820,0
3295,-1190,-812,0
3300,-1204,-778,0
3315,-1225,-754,0
3314,-1273,-737,0
3324,-1302,-687,0
3333,-1322,-624,0
3348,-1325,-547,0
3358,-1325,-468,0
3358,-1334,-412,0
3363,-1357,-377,0
3367,-1374,-352,0
3373,-1390,-333,0
3404,-1387,-311,0
3479,-1380,-286,0
3591,-1369,-274,0
3755,-1348,-286,0
3940,-1320,-337,0
4141,-1274,-404,0
4365,-1209,-452,0
4646,-1178,-476,0
4952,-1180,-481,0
5256,-1258,-505,0
5489,-1325,-556,0
5656,-1402,-581,0
5738,-1488,-613,0
5754,-1515,-599,0
5764,-1498,-478,0
5734,-1459,-372,0
5682,-1433,-291,0
5615,-1383,-222,0
5572,-1312,-155,0
5536,-1221,-85,0
5528,-1153,-14,0
5536,-1069,71,0
5573,-984,167,0
5639,-918,230,0
5718,-874,260,0
5793,-875,241,0
5817,-832,228,0
5809,-760,249,0
5784,-659,283,0
5758,-560,295,0
5736,-485,350,0
5724,-417,456,0
5702,-351,544,0
5673,-309,608,0
5656,-297,639,0
5639,-291,691,0
5620,-234,789,0
5626,-177,947,0
5594,-115,1041,0
5556,-102,1048,0
5486,-68,1021,0
5405,-23,1060,0
5300,29,1061,0
5190,68,1040,0
5078,111,1068,0
4940,194,1093,0
4843,271,1122,0
4763,315,1145,0
4672,305,1140,0
4567,308,1122,0
4445,357,1144,0
4333,373,1197,0
4222,411,1228,0
4129,428,1279,0
4046,397,1292,0
3952,388,1291,0
3878,400,1285,0
3819,375,1296,0
3749,325,1299,0
3668,273,1298,0
3555,259,1291,0
3453,274,1307,0
3368,287,1316,0
3308,293,1325,0
3260,312,1337,0
3206,327,1324,0
3163,337,1305,0
3131,348,1265,0
3115,367,1219,0
3111,369,1171,0
3134,357,1140,0
3141,344,1123,0
3156,314,1121,0
3188,256,1112,0
3247,182,1091,0
3320,104,1058,0
3396,28,1007,0
3452,-49,957,0
3499,-141,917,0
3545,-241,875,0
3589,-332,854,0
3627,-391,857,0
3670,-441,873,0
3693,-472,884,0
3713,-483,879,0
3731,-471,895,0
3736,-447,891,0
3734,-427,889,0
3743,-386,874,0
3766,-352,862,0
3799,-316,848,0
3836,-270,843,0
3875,-213,846,0
3922,-160,852,0
3982,-126,858,0
4041,-122,849,0
4097,-120,844,0
4151,-127,836,0
4195,-132,824,0
4231,-139,830,0
4270,-164,838,0
4315,-177,848,0
4344,-173,854,0
4369,-172,869,0
4367,-143,892,0
4366,-117,905,0
4359,-113,915,0
4346,-89,929,0
4337,-63,941,0
4331,-38,970,0
4318,-15,998,0
4312,0,1028,0
4310,6,1057,0
4303,5,1081,0
4293,-1,1098,0
4272,-12,1106,0
4249,-19,1109,0
4218,29,1122,0
4188,-4,1123,0
4161,-38,1133,0
4131,-25,1155,0
4103,-15,1176,0
4074,-9,1201,0
4043,-1,1231,0
4014,5,1251,0
3979,23,1259,0
3946,52,1272,0
3914,75,1296,0
3875,101,1312,0
3846,98,1317,0
3818,108,1315,0
3794,125,1313,0
3770,156,1298,0
3747,182,1290,0
3722,201,1269,0
3698,217,1251,0
3682,225,1231,0
3674,238,1213,0
3669,241,1195,0
3671,234,1181,0
3674,261,1195,0
3673,246,1180,0
3681,211,1168,0
3694,192,1163,0
3711,186,1161,0
3727,168,1160,0
3727,157,1156,0
3730,146,1143,0
3741,127,1138,0
3753,115,1135,0
3758,103,1127,0
3755,101,1118,0
3755,90,1109,0
3748,92,1104,0
3744,90,1103,0
3744,96,1100,0
3749,99,1090,0
3763,102,1085,0
3786,102,1076,0
3820,76,1050,0
3846,109,1087,0
3833,155,1086,0
3849,105,1061,0
3875,61,1050,0
3905,45,1047,0
3929,44,1052,0
3955,44,1053,0
3975,38,1048,0
3983,30,1046,0
3998,12,1045,0
4010,3,1041,0
4047,-41,1031,0
4033,-4,1056,0
4035,-5,1048,0
4056,-35,1042,0
4061,-27,1050,0
4069,-15,1059,0
4084,-20,1060,0
4093,-9,1061,0
4097,-4,1053,0
4099,0,1049,0
4104,0,1046,0
4105,-1,1045,0
4104,-7,1043,0
4103,-8,1039,0
4102,-16,1034,0
4103,-23,1031,0
4101,-24,1030,0
4100,-26,1032,0
4094,-25,1036,0
4084,-26,1043,0
4068,-22,1049,0
4050,-16,1052,0
4033,-8,1054,0
4017,-2,1055,0
4001,-1,1063,0
3973,13,1070,0
3946,29,1061,0
3924,42,1057,0
3905,49,1061,0
3889,54,1059,0
3872,58,1058,0
3859,64,1055,0
3850,55,1047,0
3844,54,1037,0
3838,61,1031,0
3837,71,1024,0
3842,73,1022,0
3839,83,1022,0
3845,86,1023,0
3850,88,1022,0
3852,84,1016,0
3855,83,1012,0
3866,81,1010,0
3871,82,1007,0
3878,79,1006,0
3887,78,1005,0
3893,77,1003,0
3899,71,998,0
3898,72,998,0
3899,71,995,0
3905,70,990,0
3906,72,985,0
3906,74,975,0
3902,72,985,0
3908,63,965,0
3912,66,958,0
3915,62,953,0
3922,58,945,0
3932,59,943,0
3938,63,942,0
3942,63,936,0
3948,67,927,0
3961,63,918,0
3970,62,907,0
3974,60,901,0
3985,62,903,0
3997,66,900,0
4007,69,890,0
4026,65,876,0
4049,62,857,0
4068,56,845,0
4085,52,836,0
4097,49,830,0
4104,50,830,0
4110,55,831,0
4112,62,837,0
4109,71,840,0
4107,83,840,0
4103,90,846,0
4102,101,853,0
4102,104,854,0
4101,102,845,0
4101,96,843,0
4099,95,848,0
4098,92,849,0
4097,87,849,0
4095,76,843,0
4086,73,839,0
4075,67,834,0
4071,63,826,0
4062,60,827,0
4053,63,826,0
4043,65,830,0
4038,66,827,0
4031,67,828,0
4024,69,827,0
4020,70,822,0
4013,72,826,0
4010,80,832,0
4010,81,837,0
4001,81,838,0
3999,84,835,0
3996,84,835,0
3995,77,836,0
3989,77,835,0
3982,75,831,0
3980,69,833,0
3971,70,832,0
3961,69,841,0
3967,61,837,0
3975,71,823,0
3978,64,818,0
3983,61,815,0
3986,69,819,0
3989,71,819,0
3989,73,817,0
3995,66,813,0
3993,64,806,0
3990,64,804,0
3987,61,798,0
3988,62,792,0
3986,63,783,0
3988,65,780,0
3991,57,775,0
3993,59,770,0
4002,57,760,0
4009,54,755,0
4016,51,749,0
4030,44,744,0
4043,37,739,0
4052,38,732,0
4055,30,737,0
4059,23,722,0
4062,27,707,0
4065,25,698,0
4068,23,697,0
4070,22,699,0
4071,25,702,0
4072,26,702,0
4072,31,709,0
4078,29,713,0
4076,32,707,0
4076,32,699,0
4072,27,690,0
4062,32,688,0
4054,34,692,0
4048,36,698,0
4046,34,700,0
4048,42,701,0
4048,39,702,0
4048,40,706,0
4046,37,712,0
4050,32,722,0
4049,42,714,0
4058,43,711,0
4065,43,715,0
4074,42,718,0
4080,44,719,0
4086,39,717,0
4091,35,713,0
4090,26,705,0
4084,21,701,0
4078,16,695,0
4074,17,693,0
4076,22,685,0
4079,18,678,0
4079,23,676,0
4080,24,670,0
4083,26,670,0
4081,31,664,0
4084,32,661,0
4085,34,653,0
4088,39,652,0
4091,41,643,0
4089,42,637,0
4084,41,629,0
4076,39,621,0
4067,38,613,0
4057,37,612,0
4049,30,608,0
4037,29,600,0
4028,28,596,0
4028,24,596,0
4020,23,591,0
4015,21,592,0
4011,14,587,0
4008,13,581,0
4010,8,578,0
4010,4,576,0
4010,3,574,0
4016,2,567,0
4021,0,565,0
4025,-2,563,0
4027,-3,562,0
4032,-2,564,0
4036,-6,569,0
4042,-6,568,0
4045,-9,566,0
4044,-13,570,0
4044,-13,568,0
4046,-13,569,0
4057,-18,570,0
4062,-18,571,0
4073,-17,569,0
4083,-22,570,0
4090,-25,567,0
4095,-23,566,0
4098,-24,567,0
4099,-25,569,0
4099,-25,572,0
4098,-27,571,0
4095,-25,573,0
4091,-21,579,0
4084,-18,583,0
4082,-16,582,0
4087,-17,573,0
4090,-21,568,0
4094,-24,566,0
4097,-24,566,0
4099,-25,566,0
4100,-28,568,0
4100,-27,567,0
4100,-25,569,0
4100,-24,565,0
4100,-28,564,0
4098,-27,572,0
4093,-27,572,0
4095,-28,569,0
4096,-27,569,0
4089,-27,575,0
4085,-24,580,0
4081,-26,579,0
4079,-30,577,0
4074,-34,573,0
4074,-40,570,0
4078,-47,565,0
4078,-50,565,0
4076,-47,566,0
4073,-46,569,0
4071,-46,570,0
4064,-45,574,0
4061,-40,579,0
4056,-41,577,0
4054,-40,569,0
4049,-34,566,0
4048,-33,566,0
4048,-32,569,0
4049,-34,569,0
4044,-38,567,0
4047,-41,565,0
4044,-43,567,0
4041,-49,568,0
4038,-54,568,0
4035,-56,567,0
4036,-59,565,0
4034,-55,564,0
4035,-51,564,0
4038,-50,564,0
4038,-47,565,0
4038,-46,566,0
4036,-43,569,0
4039,-40,571,0
4044,-39,571,0
4045,-43,573,0
4048,-44,570,0
4050,-40,571,0
4051,-43,570,0
4050,-40,568,0
4047,-37,569,0
4048,-36,569,0
4050,-37,564,0
4057,-38,558,0
4060,-36,558,0
4063,-38,559,0
4061,-41,564,0
4064,-41,561,0
4068,-39,563,0
4073,-39,562,0
4084,-37,564,0
4090,-37,565,0
4089,-36,564,0
4087,-37,566,0
4089,-34,562,0
4085,-31,560,0
4085,-29,564,0
4079,-26,563,0
4080,-23,566,0
4077,-24,569,0
4073,-29,575,0
4071,-32,578,0
4074,-31,579,0
4073,-32,578,0
4073,-35,580,0
4076,-34,581,0
4076,-30,582,0
4080,-32,585,0
4081,-36,586,0
4082,-34,587,0
4083,-34,588,0
4079,-31,589,0
4082,-35,594,0
4077,-33,598,0
4077,-37,601,0
4077,-36,603,0
4078,-34,603,0
4076,-40,606,0
4075,-41,612,0
4076,-40,613,0
4071,-40,618,0
4071,-44,621,0
4068,-49,618,0
4064,-50,621,0
4058,-49,621,0
4053,-54,622,0
4054,-57,623,0
4050,-62,622,0
4050,-61,624,0
4053,-64,619,0
4058,-65,618,0
4055,-73,616,0
4053,-76,613,0
4057,-76,607,0
4054,-74,606,0
4053,-71,610,0
4057,-71,606,0
4055,-66,603,0
4055,-63,605,0
4051,-62,601,0
4047,-62,598,0
4045,-59,599,0
4043,-59,603,0
4043,-57,603,0
4045,-56,599,0
4043,-51,597,0
4043,-45,594,0
4045,-44,596,0
4044,-44,597,0
4045,-43,597,0
4044,-42,597,0
4042,-45,599,0
4045,-43,597,0
4047,-47,596,0
4049,-50,601,0
4048,-50,603,0
4049,-51,603,0
4051,-53,602,0
4048,-54,604,0
4047,-56,608,0
4046,-57,607,0
4046,-59,612,0
4041,-59,612,0
4039,-61,610,0
4038,-62,611,0
4042,-60,613,0
4042,-61,612,0
4045,-60,614,0
4045,-56,618,0
4045,-57,622,0
4046,-56,626,0
4047,-51,628,0
4049,-55,621,0
4049,-55,621,0
4050,-55,623,0
4055,-55,624,0
4057,-59,622,0
4061,-59,618,0
4064,-63,621,0
4060,-65,622,0
4058,-64,627,0
4058,-65,626,0
4058,-67,631,0
4060,-63,632,0
4058,-59,633,0
4055,-59,635,0
4054,-58,631,0
4051,-56,629,0
4052,-56,623,0
4058,-56,623,0
4064,-52,623,0
4067,-52,624,0
4071,-48,622,0
4073,-48,621,0
4068,-43,620,0
4064,-40,620,0
4065,-37,619,0
4061,-35,620,0
4061,-33,616,0
4064,-33,614,0
4065,-35,613,0
4068,-36,615,0
4069,-44,615,0
4071,-54,611,0
4074,-58,608,0
4071,-61,609,0
4071,-57,613,0
4067,-56,617,0
4061,-55,616,0
4060,-54,618,0
4059,-49,620,0
4053,-45,621,0
4050,-42,621,0
4047,-37,622,0
4045,-34,626,0
4042,-33,628,0
4041,-31,628,0
4039,-29,629,0
4041,-30,631,0
4041,-33,633,0
4041,-32,632,0
4041,-33,631,0
4040,-35,628,0
4045,-37,627,0
4051,-41,629,0
4057,-39,630,0
4065,-42,631,0
4069,-43,634,0
4068,-48,634,0
4070,-44,631,0
4069,-46,633,0
4064,-40,634,0
4063,-44,635,0
4057,-42,637,0
4054,-46,636,0
4051,-45,636,0
4050,-48,633,0
4051,-52,633,0
4048,-48,632,0
4045,-53,630,0
4046,-54,632,0
4046,-54,629,0
4045,-53,631,0
4049,-56,627,0
4052,-58,625,0
4054,-56,626,0
4052,-53,627,0
4054,-57,626,0
4051,-56,625,0
4049,-55,626,0
4049,-53,626,0
4047,-52,628,0
4046,-52,631,0
4046,-52,634,0
4047,-50,634,0
4045,-46,636,0
4045,-46,635,0
4044,-45,634,0
4044,-47,634,0
4047,-52,635,0
4052,-54,637,0
4049,-57,636,0
4050,-55,638,0
4054,-60,640,0
4058,-59,639,0
4060,-63,634,0
4061,-61,634,0
4062,-61,636,0
4065,-60,635,0
4066,-61,635,0
4066,-60,636,0
4060,-57,637,0
4059,-53,636,0
4063,-55,633,0
4062,-54,632,0
4059,-49,635,0
4055,-47,636,0
4049,-49,634,0
4045,-45,638,0
4044,-44,640,0
4045,-43,640,0
4046,-44,646,0
4042,-44,646,0
4042,-44,644,0
4042,-47,651,0
4047,-48,653,0
4045,-49,655,0
4045,-47,651,0
4042,-44,651,0
4045,-41,651,0
4047,-44,653,0
4048,-46,651,0
4049,-49,648,0
4051,-48,651,0
4048,-49,648,0
4048,-49,648,0
4051,-48,645,0
4052,-51,645,0
4053,-53,646,0
4050,-52,644,0
4051,-54,643,0
4052,-54,642,0
4058,-54,645,0
4061,-54,644,0
4060,-52,652,0
4061,-51,653,0
4059,-49,651,0
4054,-50,651,0
4055,-48,651,0
4053,-44,653,0
4053,-45,650,0
4050,-45,651,0
4051,-41,650,0
4047,-40,648,0
4047,-42,651,0
4046,-43,651,0
4044,-41,653,0
4047,-42,657,0
4051,-41,658,0
4047,-41,655,0
4046,-39,655,0
4047,-40,655,0
4045,-39,655,0
4049,-42,654,0
4047,-45,653,0
4045,-47,651,0
4048,-50,658,0
4050,-49,654,0
4054,-52,654,0
4056,-53,656,0
4055,-57,659,0
4054,-54,658,0
4054,-53,659,0
4055,-53,656,0
4059,-52,659,0
4059,-50,657,0
4058,-47,657,0
4055,-53,659,0
4053,-51,662,0
4050,-49,662,0
4048,-46,662,0
4044,-44,660,0
4041,-43,662,0
4044,-41,666,0
4041,-42,666,0
4038,-45,663,0
4039,-45,665,0
4036,-44,666,0
4039,-45,662,0
4039,-48,664,0
4042,-49,664,0
4044,-52,663,0
4043,-56,662,0
4041,-55,665,0
4044,-55,665,0
4043,-59,663,0
4044,-57,660,0
4045,-54,661,0
4045,-49,662,0
4046,-49,666,0
4051,-49,664,0
4050,-49,659,0
4055,-49,659,0
4058,-49,661,0
4054,-43,660,0
4057,-41,662,0
4059,-44,663,0
4056,-45,666,0
4056,-44,665,0
4050,-46,668,0
4047,-47,674,0
4044,-48,677,0
4038,-46,677,0
4029,-45,681,0
4023,-49,687,0
4023,-47,689,0
4024,-43,689,0
4024,-43,685,0
4030,-48,686,0
4031,-50,682,0
4032,-49,679,0
4033,-47,677,0
4041,-46,676,0
4048,-45,680,0
4052,-44,679,0
4053,-47,681,0
4057,-47,683,0
4058,-48,681,0
4062,-48,682,0
4065,-45,680,0
4067,-42,686,0
4072,-44,688,0
4070,-46,690,0
4070,-51,685,0
4069,-59,679,0
4069,-64,675,0
4068,-70,675,0
4065,-63,679,0
4065,-66,678,0
4061,-63,684,0
4057,-52,687,0
4051,-49,690,0
4043,-42,685,0
4038,-34,686,0
4033,-31,684,0
4025,-25,682,0
4025,-26,684,0
4025,-23,686,0
4028,-24,686,0
4030,-25,686,0
4032,-26,685,0
4033,-30,688,0
4030,-29,686,0
4034,-33,681,0
4035,-36,677,0
4035,-38,682,0
4038,-39,679,0
4042,-42,681,0
4041,-39,685,0
4043,-41,685,0
4041,-43,689,0
4037,-38,692,0
4036,-39,691,0
4031,-38,691,0
4032,-40,692,0
4026,-41,693,0
4022,-43,691,0
4022,-42,690,0
4021,-45,688,0
4024,-47,689,0
4023,-48,687,0
4022,-47,689,0
4024,-49,692,0
4027,-53,691,0
4029,-51,696,0
4030,-48,695,0
4032,-46,696,0
4035,-45,696,0
4037,-44,692,0
4041,-43,691,0
4040,-45,690,0
4044,-42,687,0
4043,-44,687,0
4045,-42,687,0
4045,-41,688,0
4045,-39,689,0
4044,-41,689,0
4047,-45,689,0
4047,-41,688,0
4044,-42,689,0
4043,-43,693,0
4040,-43,693,0
4034,-44,690,0
4036,-39,690,0
4036,-42,690,0
4038,-42,687,0
4034,-44,687,0
4038,-43,693,0
4043,-45,693,0
4041,-42,693,0
4044,-38,692,0
4044,-37,693,0
4047,-39,689,0
4048,-37,688,0
4050,-36,686,0
4047,-33,688,0
4045,-33,689,0
4047,-32,689,0
4045,-33,688,0
4048,-32,687,0
4043,-32,689,0
4038,-31,689,0
4039,-31,688,0
4036,-30,686,0
4035,-27,689,0
4035,-27,690,0
4034,-29,689,0
4036,-28,684,0
4040,-30,684,0
4042,-32,682,0
4044,-32,684,0
4042,-36,684,0
4044,-36,682,0
4043,-37,677,0
4044,-34,674,0
4045,-33,673,0
4046,-35,673,0
4052,-33,671,0
4052,-33,666,0
4052,-35,664,0
4053,-40,664,0
4049,-39,665,0
4050,-41,665,0
4052,-38,665,0
4051,-37,667,0
4051,-36,666,0
4044,-38,666,0
4043,-38,666,0
4043,-39,664,0
4047,-39,663,0
4049,-40,666,0
4044,-45,666,0
4045,-45,666,0
4044,-52,665,0
4043,-49,666,0
4043,-51,661,0
4043,-54,660,0
4042,-58,657,0
4041,-59,655,0
4047,-54,655,0
4045,-53,656,0
4043,-53,657,0
4045,-51,660,0
4049,-48,656,0
4050,-49,655,0
4053,-52,653,0
4050,-52,653,0
4054,-50,654,0
4056,-51,653,0
4054,-50,654,0
4055,-50,654,0
4052,-48,649,0
4053,-46,651,0
4050,-50,652,0
4050,-53,653,0
4052,-52,653,0
4050,-51,654,0
4054,-51,653,0
4052,-51,651,0
4054,-47,650,0
4054,-45,649,0
4052,-44,652,0
4054,-41,653,0
4052,-40,651,0
4050,-37,647,0
4049,-39,646,0
4047,-39,647,0
4046,-39,650,0
4050,-39,650,0
4050,-40,650,0
4050,-44,649,0
4052,-42,643,0
4052,-40,642,0
4057,-43,640,0
4055,-42,641,0
4058,-42,641,0
4056,-41,639,0
4057,-43,636,0
4059,-45,634,0
4055,-41,631,0
4052,-41,633,0
4059,-41,630,0
4060,-41,630,0
4061,-42,632,0
4060,-42,638,0
4055,-40,637,0
4053,-42,638,0
4058,-38,635,0
4055,-43,638,0
4055,-42,636,0
4054,-46,636,0
4054,-50,638,0
4053,-49,639,0
4049,-47,639,0
4046,-45,639,0
4045,-43,635,0
4045,-45,630,0
4047,-47,623,0
4052,-49,622,0
4050,-51,621,0
4049,-51,623,0
4051,-54,626,0
4056,-52,626,0
4064,-53,625,0
4068,-55,626,0
4070,-52,631,0
4072,-49,628,0
4074,-51,627,0
4072,-53,625,0
4073,-49,627,0
4068,-47,624,0
4068,-42,622,0
4069,-45,621,0
4070,-51,616,0
4073,-58,614,0
4075,-61,615,0
4076,-64,617,0
4073,-60,618,0
4066,-62,618,0
4058,-62,619,0
4058,-58,622,0
4053,-58,624,0
4049,-57,623,0
4049,-57,619,0
4047,-55,621,0
4047,-54,621,0
4044,-53,617,0
4044,-54,619,0
4047,-55,622,0
4046,-58,621,0
4045,-60,626,0
4044,-61,628,0
4043,-63,625,0
4044,-63,628,0
4047,-62,631,0
4048,-56,628,0
4049,-56,623,0
4052,-56,624,0
4053,-59,623,0
4056,-55,624,0
4059,-56,622,0
4055,-52,623,0
4058,-54,623,0
4056,-55,619,0
4054,-55,623,0
4057,-55,621,0
4057,-56,615,0
4058,-55,615,0
4058,-56,618,0
4060,-59,619,0
4060,-60,622,0
4063,-61,622,0
4066,-62,622,0
4069,-63,616,0
4069,-64,617,0
4071,-61,616,0
4069,-60,614,0
4072,-64,610,0
4073,-64,608,0
4064,-65,604,0
4059,-62,602,0
4057,-63,606,0
4053,-63,608,0
4050,-57,612,0
4049,-60,613,0
4045,-61,618,0
4045,-65,616,0
4046,-63,618,0
4049,-65,616,0
4048,-71,618,0
4051,-71,621,0
4059,-71,624,0
4059,-72,623,0
4065,-74,620,0
4066,-73,617,0
4066,-76,619,0
4069,-76,618,0
4067,-77,619,0
4065,-72,623,0
4065,-72,626,0
4066,-69,629,0
4067,-67,630,0
4063,-67,630,0
4061,-64,630,0
4055,-63,634,0
4050,-61,633,0
4045,-61,634,0
4044,-60,633,0
4043,-58,635,0
4041,-58,636,0
4040,-57,639,0
4038,-56,635,0
4037,-58,636,0
4043,-57,636,0
4047,-55,636,0
4049,-58,639,0
4051,-60,639,0
4050,-63,638,0
4050,-63,638,0
4050,-61,636,0
4047,-59,634,0
4047,-58,630,0
4048,-60,631,0
4049,-60,634,0
4045,-63,634,0
4045,-57,632,0
4047,-54,633,0
4046,-58,636,0
4045,-56,636,0
4044,-57,641,0
4043,-57,638,0
4044,-56,640,0
4044,-56,639,0
4042,-59,640,0
4044,-62,644,0
4045,-64,645,0
4048,-64,645,0
4051,-65,646,0
4051,-64,644,0
4057,-67,641,0
4054,-68,639,0
4056,-72,637,0
4056,-70,637,0
4056,-71,642,0
4061,-69,646,0
4054,-68,645,0
4057,-67,644,0
4056,-66,644,0
4056,-63,646,0
4058,-61,647,0
4063,-63,650,0
4064,-61,651,0
4059,-59,650,0
4057,-57,649,0
4060,-58,651,0
4060,-59,650,0
4057,-60,649,0
4058,-63,644,0
4051,-62,645,0
4045,-64,644,0
4047,-63,644,0
4045,-65,649,0
4046,-65,652,0
4043,-65,650,0
4041,-63,652,0
4041,-62,650,0
4043,-65,652,0
4045,-62,652,0
4048,-63,653,0
4046,-62,657,0
4043,-60,658,0
4044,-61,661,0
4045,-60,660,0
4042,-60,660,0
4043,-60,659,0
4043,-62,659,0
4040,-60,657,0
4040,-56,654,0
4039,-56,654,0
4043,-57,658,0
4046,-57,655,0
4045,-56,656,0
4047,-56,658,0
4048,-56,659,0
4049,-58,659,0
4049,-57,659,0
4047,-58,657,0
4045,-57,656,0
4046,-55,655,0
4047,-56,660,0
4045,-57,657,0
4044,-57,660,0
4045,-59,657,0
4046,-57,658,0
4047,-58,656,0
4047,-60,656,0
4053,-61,657,0
4052,-60,652,0
4053,-58,656,0
4054,-59,658,0
4051,-57,660,0
4046,-58,658,0
4040,-55,662,0
4035,-57,665,0
4035,-53,669,0
4034,-52,671,0
4033,-47,670,0
4036,-51,667,0
4040,-58,664,0
4047,-58,657,0
4055,-60,654,0
4054,-62,653,0
4052,-63,658,0
4052,-63,660,0
4051,-63,663,0
4053,-64,666,0
4058,-62,666,0
4061,-59,666,0
4063,-53,668,0
4068,-51,673,0
4069,-51,675,0
4071,-48,673,0
4063,-47,669,0
4067,-47,668,0
4071,-52,667,0
4072,-56,662,0
4072,-58,662,0
4075,-62,664,0
4073,-65,665,0
4068,-61,662,0
4065,-60,667,0
4059,-56,671,0
4054,-49,673,0
4048,-43,673,0
4041,-44,676,0
4033,-45,679,0
4034,-48,678,0
4029,-44,676,0
4024,-43,675,0
4023,-42,677,0
4026,-48,681,0
4026,-47,684,0
4028,-48,689,0
4031,-50,687,0
4032,-51,689,0
4032,-51,683,0
4033,-50,680,0
4038,-53,680,0
4043,-53,679,0
4044,-50,681,0
4045,-55,682,0
4043,-56,683,0
4039,-55,680,0
4038,-57,682,0
4039,-57,677,0
4038,-57,676,0
4036,-57,677,0
4035,-56,678,0
4035,-56,681,0
4035,-56,683,0
4039,-59,684,0
4037,-63,680,0
4029,-60,677,0
4034,-63,678,0
4035,-63,683,0
4036,-63,682,0
4034,-60,681,0
4040,-58,679,0
4040,-52,684,0
4042,-49,686,0
4043,-51,682,0
4043,-54,681,0
4045,-54,679,0
4048,-53,679,0
4045,-49,681,0
4048,-55,685,0
4047,-52,687,0
4049,-50,688,0
4051,-49,689,0
4051,-49,690,0
4050,-48,686,0
4052,-47,692,0
4051,-47,688,0
4049,-49,692,0
4049,-48,687,0
4053,-48,689,0
4058,-51,689,0
4053,-50,688,0
4052,-52,689,0
4050,-52,691,0
4049,-51,689,0
4046,-54,689,0
4049,-52,691,0
4049,-51,690,0
4049,-50,692,0
4045,-48,693,0
4045,-48,692,0
4045,-51,691,0
4042,-45,689,0
4037,-49,690,0
4038,-48,690,0
4036,-47,689,0
4035,-48,691,0
4033,-45,694,0
4038,-46,696,0
4040,-46,696,0
4041,-44,696,0
4041,-45,698,0
4041,-43,697,0
4043,-43,698,0
4040,-42,701,0
4041,-38,701,0
4040,-39,697,0
4039,-39,697,0
4040,-41,696,0
4044,-42,695,0
4044,-38,693,0
4044,-38,697,0
4046,-36,700,0
4040,-41,700,0
4041,-42,698,0
4041,-40,695,0
4042,-41,697,0
4042,-42,697,0
4040,-43,701,0
4038,-43,701,0
4036,-44,699,0
4039,-46,703,0
4041,-51,703,0
4038,-50,701,0
4043,-52,702,0
4041,-50,705,0
4040,-52,706,0
4039,-54,704,0
4039,-53,708,0
4038,-52,707,0
4037,-50,706,0
4038,-48,705,0
4039,-47,703,0
4039,-48,705,0
4041,-48,707,0
4040,-48,708,0
4041,-45,710,0
4042,-46,709,0
4040,-47,708,0
4040,-48,706,0
4039,-46,705,0
4040,-49,707,0
4039,-51,705,0
4038,-52,709,0
4039,-55,709,0
4043,-55,711,0
4046,-56,709,0
4044,-55,709,0
4043,-53,708,0
4042,-54,709,0
4042,-57,706,0
4042,-52,712,0
4039,-53,711,0
4035,-52,713,0
4034,-52,713,0
4034,-50,712,0
4033,-45,711,0
4032,-48,713,0
4033,-44,714,0
4034,-42,715,0
4033,-41,710,0
4036,-43,711,0
4035,-38,706,0
4037,-41,710,0
4037,-42,713,0
4038,-46,714,0
4040,-46,716,0
4041,-51,718,0
4043,-65,731,0
4037,-49,716,0
4033,-44,707,0
4032,-46,710,0
4038,-43,716,0
4041,-44,717,0
4042,-38,724,0
4041,-40,720,0
4038,-43,720,0
4039,-38,722,0
4036,-40,722,0
4035,-42,725,0
4037,-39,725,0
4035,-43,724,0
4037,-43,720,0
4041,-43,718,0
4041,-41,717,0
4040,-41,716,0
4042,-39,718,0
4044,-41,716,0
4043,-43,716,0
4043,-43,718,0
4050,-47,719,0
4049,-48,718,0
4047,-52,718,0
4039,-51,720,0
4033,-47,725,0
4030,-46,728,0
4031,-46,729,0
4027,-44,726,0
4023,-42,727,0
4021,-41,721,0
4024,-39,722,0
4027,-44,720,0
4029,-47,718,0
4031,-48,719,0
4033,-47,723,0
4036,-45,726,0
4041,-44,726,0
4041,-44,724,0
4042,-43,726,0
4044,-44,729,0
4046,-40,729,0
4053,-42,730,0
4053,-36,727,0
4062,-37,728,0
4064,-41,723,0
4066,-47,724,0
4067,-52,722,0
4065,-58,719,0
4069,-61,719,0
4068,-60,722,0
4064,-50,724,0
4061,-56,730,0
4053,-52,728,0
4048,-47,731,0
4042,-45,731,0
4033,-38,727,0
4025,-36,728,0
4018,-33,725,0
4011,-29,731,0
4012,-28,733,0
4013,-29,738,0
4017,-30,736,0
4019,-35,735,0
4021,-36,737,0
4018,-41,740,0
4020,-40,737,0
4024,-45,734,0
4026,-48,732,0
4025,-50,733,0
4025,-48,733,0
4027,-48,733,0
4028,-48,732,0
4029,-61,728,0
4030,-57,726,0
4029,-52,732,0
4028,-51,730,0
4026,-45,733,0
4031,-48,734,0
4024,-47,735,0
4019,-45,735,0
4021,-45,733,0
4021,-45,729,0
4027,-48,729,0
4029,-50,731,0
4024,-47,730,0
4022,-45,731,0
4026,-49,731,0
4024,-47,729,0
4027,-45,727,0
4033,-47,727,0
4031,-48,730,0
4035,-50,732,0
4037,-49,734,0
4036,-49,730,0
4035,-48,729,0
4034,-51,728,0
4034,-51,728,0
4033,-46,732,0
4035,-43,735,0
4038,-42,736,0
4038,-43,741,0
4040,-39,743,0
4049,-64,780,0
4036,-41,746,0
4033,-25,723,0
4032,-41,726,0
4036,-42,735,0
4035,-47,736,0
4037,-45,737,0
4038,-45,737,0
4038,-51,738,0
4039,-51,737,0
4039,-49,737,0
4036,-47,739,0
4041,-46,742,0
4043,-45,741,0
4045,-43,738,0
4045,-41,737,0
4042,-41,742,0
4040,-39,745,0
4039,-34,745,0
4037,-31,747,0
4037,-34,743,0
4036,-37,743,0
4034,-39,743,0
4036,-41,743,0
4034,-41,745,0
4034,-42,743,0
4034,-43,739,0
4034,-46,739,0
4033,-44,741,0
4034,-41,743,0
4035,-41,741,0
4035,-45,741,0
4033,-42,740,0
4035,-40,738,0
4030,-40,737,0
4032,-41,737,0
4032,-39,735,0
4032,-39,739,0
4034,-40,738,0
4031,-39,740,0
4029,-39,739,0
4028,-39,740,0
4028,-45,739,0
4032,-43,738,0
4033,-42,735,0
4032,-46,734,0
4034,-43,734,0
4028,-45,735,0
4029,-46,733,0
4030,-48,732,0
4029,-50,731,0
4030,-49,733,0
4033,-50,738,0
4033,-53,737,0
4035,-51,738,0
4033,-47,736,0
4031,-49,737,0
4031,-47,738,0
4034,-44,739,0
4034,-44,741,0
4032,-40,740,0
4032,-43,740,0
4031,-42,738,0
4028,-45,737,0
4032,-43,738,0
4032,-45,738,0
4030,-48,737,0
4029,-52,739,0
4031,-48,735,0
4032,-52,735,0
4037,-51,735,0
4035,-49,735,0
4030,-50,736,0
4032,-49,734,0
4034,-43,732,0
4037,-46,732,0
4037,-46,734,0
4039,-50,733,0
4039,-49,731,0
4040,-47,732,0
4040,-46,730,0
4038,-43,731,0
4040,-44,736,0
4040,-44,738,0
4040,-40,738,0
4037,-40,734,0
4036,-41,731,0
4029,-43,733,0
4025,-40,735,0
4024,-42,736,0
4024,-41,739,0
4024,-41,738,0
4027,-38,737,0
4027,-41,740,0
4029,-46,735,0
4031,-47,732,0
4028,-44,732,0
4033,-41,728,0
4031,-42,728,0
4029,-44,729,0
4026,-43,730,0
4025,-38,732,0
4026,-40,728,0
4027,-40,729,0
4027,-39,727,0
4029,-41,731,0
4027,-42,733,0
4027,-41,731,0
4027,-43,729,0
4028,-46,732,0
4031,-46,728,0
4036,-48,726,0
4041,-47,727,0
4043,-47,727,0
4045,-43,726,0
4046,-42,720,0
4050,-43,720,0
4052,-41,719,0
4052,-44,718,0
4050,-46,719,0
4050,-47,718,0
4055,-45,721,0
4053,-44,725,0
4049,-42,728,0
4044,-37,730,0
4039,-39,731,0
4034,-41,730,0
4033,-41,730,0
4029,-41,726,0
4021,-36,726,0
4020,-43,726,0
4021,-47,722,0
4025,-46,719,0
4028,-48,718,0
4032,-54,720,0
4033,-51,723,0
4032,-50,724,0
4038,-48,720,0
4040,-48,721,0
4043,-48,719,0
4049,-49,719,0
4050,-47,720,0
4055,-45,716,0
4061,-41,716,0
4067,-41,718,0
4071,-44,715,0
4072,-47,710,0
4075,-52,705,0
4076,-58,700,0
4076,-62,700,0
4073,-62,702,0
4063,-59,711,0
4057,-56,711,0
4050,-53,712,0
4039,-48,712,0
4027,-47,714,0
4017,-42,714,0
4011,-38,711,0
4012,-38,710,0
4014,-39,711,0
4017,-39,711,0
4017,-44,708,0
4021,-48,708,0
4026,-44,707,0
4027,-48,707,0
4030,-52,706,0
4035,-55,707,0
4039,-53,708,0
4040,-53,708,0
4039,-52,708,0
4039,-53,707,0
4039,-53,708,0
4040,-51,706,0
4042,-53,705,0
4041,-51,704,0
4038,-55,705,0
4034,-52,701,0
4034,-51,703,0
4030,-50,705,0
4028,-52,705,0
4024,-48,701,0
4024,-47,703,0
4026,-51,702,0
4030,-54,705,0
4032,-53,703,0
4033,-51,701,0
4034,-52,703,0
4039,-52,702,0
4044,-57,699,0
4046,-51,698,0
4050,-51,698,0
4052,-48,694,0
4051,-45,690,0
4053,-46,688,0
4050,-43,687,0
4051,-42,690,0
4049,-43,691,0
4049,-41,692,0
4046,-41,693,0
4046,-43,695,0
4045,-43,696,0
4046,-43,697,0
4048,-44,696,0
4047,-47,694,0
4050,-50,693,0
4043,-54,696,0
4047,-54,698,0
4046,-52,697,0
4049,-49,698,0
4050,-51,700,0
4053,-51,695,0
4057,-52,693,0
4054,-52,692,0
4055,-50,691,0
4054,-48,689,0
4052,-48,689,0
4056,-44,692,0
4051,-42,693,0
4051,-42,697,0
4051,-41,694,0
4046,-44,692,0
4043,-45,694,0
4043,-44,692,0
4041,-44,692,0
4038,-49,690,0
4040,-52,691,0
4041,-54,696,0
4036,-52,696,0
4035,-49,694,0
4031,-50,697,0
4031,-45,696,0
4035,-43,694,0
4037,-47,692,0
4036,-51,688,0
4035,-51,686,0
4040,-47,687,0
4039,-49,685,0
4042,-48,686,0
4043,-48,686,0
4045,-47,686,0
4043,-45,686,0
4042,-45,688,0
4045,-47,687,0
4045,-44,685,0
4045,-47,688,0
4049,-50,689,0
4047,-48,686,0
4047,-52,687,0
4046,-49,690,0
4045,-49,689,0
4046,-53,691,0
4045,-54,687,0
4047,-55,690,0
4050,-57,691,0
4051,-58,691,0
4052,-57,692,0
4051,-58,693,0
4051,-56,689,0
4053,-53,690,0
4054,-58,688,0
4051,-58,688,0
4051,-58,687,0
4053,-54,688,0
4050,-52,689,0
4046,-51,691,0
4044,-51,693,0
4044,-49,694,0
4042,-51,693,0
4041,-50,693,0
4042,-51,692,0
4043,-51,690,0
4042,-53,691,0
4044,-51,694,0
4044,-52,692,0
4043,-54,688,0
4043,-53,691,0
4046,-53,693,0
4047,-52,692,0
4045,-53,695,0
4043,-52,700,0
4039,-55,698,0
4041,-55,696,0
4039,-54,699,0
4038,-54,698,0
4037,-50,698,0
4036,-50,696,0
4039,-49,697,0
4040,-48,699,0
4035,-45,701,0
4037,-41,703,0
4036,-41,705,0
4036,-47,706,0
4038,-49,705,0
4039,-52,705,0
4038,-54,705,0
4042,-49,704,0
4042,-47,704,0
4044,-46,705,0
4045,-48,704,0
4045,-49,707,0
4041,-49,707,0
4042,-44,706,0
4041,-44,704,0
4038,-46,703,0
4037,-45,708,0
4035,-46,707,0
4036,-46,707,0
4038,-45,706,0
4038,-45,706,0
4039,-44,710,0
4039,-45,708,0
4044,-44,708,0
4043,-45,706,0
4047,-45,706,0
4048,-45,704,0
4051,-44,703,0
4049,-45,706,0
4048,-48,706,0
4048,-47,703,0
4048,-47,702,0
4050,-50,707,0
4048,-51,706,0
4045,-51,706,0
4046,-51,708,0
4045,-52,711,0
4040,-57,714,0
4037,-55,713,0
4034,-53,711,0
4026,-51,714,0
4023,-51,717,0
4020,-47,716,0
4018,-43,724,0
4017,-36,727,0
4017,-37,726,0
4016,-38,727,0
4022,-46,724,0
4032,-51,717,0
4035,-51,713,0
4037,-53,711,0
4038,-54,712,0
4039,-56,712,0
4039,-58,716,0
4039,-58,720,0
4041,-57,725,0
4043,-59,725,0
4045,-57,723,0
4044,-56,723,0
4045,-56,723,0
4051,-57,720,0
4051,-58,719,0
4050,-58,720,0
4053,-65,721,0
4059,-65,719,0
4061,-66,715,0
4066,-69,710,0
4068,-68,707,0
4068,-67,711,0
4064,-63,715,0
4056,-58,718,0
4049,-50,722,0
4041,-50,728,0
4036,-49,727,0
4028,-48,723,0
4021,-46,721,0
4019,-45,725,0
4018,-44,726,0
4017,-43,728,0
4020,-43,728,0
4019,-42,730,0
4019,-43,730,0
4021,-42,734,0
4024,-44,736,0
4031,-50,736,0
4035,-55,740,0
4036,-56,739,0
4035,-58,740,0
4034,-54,736,0
4027,-54,733,0
4028,-50,734,0
4022,-50,733,0
4019,-47,732,0
4018,-49,734,0
4019,-52,737,0
4023,-52,737,0
4023,-51,737,0
4022,-49,734,0
4024,-52,735,0
4027,-52,732,0
4025,-52,730,0
4027,-54,730,0
4028,-59,732,0
4029,-62,735,0
4032,-61,733,0
4033,-63,732,0
4032,-61,732,0
4030,-60,731,0
4033,-61,730,0
4031,-60,731,0
4032,-58,733,0
4036,-57,738,0
4034,-57,734,0
4032,-53,737,0
4034,-49,738,0
4034,-46,741,0
4035,-42,739,0
4030,-41,739,0
4030,-40,741,0
4026,-41,741,0
4023,-40,738,0
4025,-42,736,0
4026,-42,736,0
4030,-44,733,0
4037,-43,738,0
4036,-41,738,0
4041,-46,737,0
4040,-45,736,0
4040,-45,735,0
4040,-49,732,0
4040,-51,733,0
4044,-50,732,0
4043,-51,731,0
4041,-51,736,0
4038,-48,739,0
4040,-47,737,0
4036,-45,739,0
4038,-44,737,0
4038,-47,736,0
4036,-49,739,0
4032,-48,745,0
4035,-48,746,0
4034,-44,743,0
4032,-48,746,0
4029,-48,744,0
4028,-45,742,0
4026,-43,741,0
4025,-41,742,0
4026,-38,743,0
4032,-37,743,0
4034,-40,740,0
4031,-41,741,0
4033,-42,745,0
4033,-40,746,0
4034,-40,742,0
4036,-41,739,0
4036,-39,736,0
4040,-39,739,0
4041,-43,736,0
4040,-44,737,0
4036,-43,740,0
4035,-43,737,0
4033,-44,739,0
4033,-44,743,0
4031,-41,742,0
4027,-44,739,0
4030,-45,738,0
4030,-47,737,0
4031,-49,737,0
4032,-46,740,0
4036,-45,737,0
4036,-48,738,0
4033,-50,741,0
4034,-47,743,0
4037,-49,743,0
4039,-48,742,0
4041,-46,742,0
4036,-53,739,0
4036,-52,737,0
4034,-49,737,0
4032,-49,737,0
4032,-50,736,0
4034,-50,736,0
4035,-51,738,0
4032,-51,737,0
4032,-49,731,0
4032,-48,735,0
4029,-49,737,0
4030,-50,739,0
4032,-50,740,0
4031,-52,738,0
4033,-53,742,0
4034,-54,743,0
4035,-52,742,0
4036,-52,743,0
4036,-49,746,0
4037,-48,744,0
4039,-45,742,0
4034,-44,742,0
4037,-43,744,0
4038,-43,741,0
4039,-41,742,0
4035,-40,744,0
4033,-37,744,0
4031,-37,742,0
4030,-39,740,0
4028,-39,739,0
4024,-38,741,0
4024,-39,744,0
4032,-42,749,0
4030,-45,748,0
4034,-43,749,0
4037,-48,747,0
4037,-48,747,0
4038,-50,746,0
4038,-51,745,0
4034,-48,744,0
4032,-49,743,0
4033,-48,743,0
4034,-52,746,0
4035,-50,747,0
4038,-54,751,0
4035,-50,753,0
4038,-50,751,0
4034,-44,748,0
4032,-40,747,0
4034,-43,747,0
4037,-47,753,0
4036,-45,749,0
4037,-48,749,0
4028,-49,746,0
4026,-49,747,0
4023,-50,746,0
4024,-49,741,0
4024,-49,739,0
4030,-51,742,0
4035,-52,746,0
4038,-51,746,0
4042,-54,742,0
4047,-52,746,0
4043,-50,742,0
4038,-50,740,0
4037,-49,738,0
4041,-50,740,0
4037,-48,744,0
4033,-49,744,0
4032,-50,744,0
4028,-51,746,0
4026,-47,751,0
4023,-43,753,0
4019,-45,750,0
4020,-43,752,0
4021,-47,755,0
4021,-51,749,0
4019,-47,739,0
4025,-49,734,0
4027,-52,737,0
4026,-58,741,0
4032,-57,746,0
4033,-58,750,0
4037,-57,749,0
4037,-54,753,0
4034,-51,753,0
4040,-51,759,0
4039,-51,756,0
4039,-48,758,0
4042,-50,754,0
4044,-50,754,0
4052,-54,749,0
4052,-56,747,0
4056,-60,741,0
4061,-64,737,0
4061,-62,737,0
4064,-62,734,0
4064,-63,736,0
4062,-55,740,0
4056,-54,745,0
4051,-52,746,0
4045,-48,746,0
4038,-41,748,0
4030,-35,748,0
4020,-32,749,0
4016,-30,750,0
4013,-33,752,0
4008,-36,757,0
4005,-37,762,0
4006,-34,761,0
4007,-37,765,0
4006,-36,763,0
4007,-38,759,0
4015,-43,761,0
4021,-44,760,0
4024,-46,758,0
4031,-40,758,0
4036,-39,755,0
4034,-49,751,0
4037,-51,752,0
4038,-46,754,0
4038,-44,753,0
4041,-47,752,0
4039,-52,751,0
4038,-51,750,0
4031,-52,754,0
4023,-60,753,0
4020,-57,758,0
4019,-52,756,0
4020,-56,757,0
4019,-54,756,0
4024,-52,757,0
4022,-52,759,0
4022,-55,759,0
4020,-54,757,0
4022,-51,756,0
4027,-53,758,0
4028,-51,756,0
4029,-53,754,0
4029,-52,749,0
4027,-54,746,0
4027,-51,747,0
4026,-50,747,0
4025,-50,750,0
4024,-48,753,0
4029,-49,752,0
4031,-49,754,0
4028,-51,754,0
4032,-52,757,0
4033,-55,756,0
4034,-54,758,0
4036,-52,757,0
4036,-53,756,0
4035,-55,756,0
4036,-55,756,0
4033,-56,758,0
4034,-53,757,0
4032,-56,755,0
4033,-55,756,0
4036,-55,754,0
4033,-55,753,0
4031,-56,753,0
4024,-51,754,0
4024,-48,752,0
4024,-48,753,0
4028,-49,752,0
4025,-50,757,0
4026,-49,759,0
4025,-48,754,0
4027,-46,756,0
4025,-49,756,0
4025,-50,752,0
4023,-48,758,0
4021,-46,752,0
4023,-46,755,0
4026,-47,754,0
4028,-48,756,0
4029,-45,759,0
4031,-42,758,0
4032,-39,755,0
4033,-35,754,0
4033,-38,752,0
4033,-39,752,0
4031,-36,752,0
4032,-36,754,0
4032,-35,755,0
4029,-35,753,0
4032,-33,755,0
4030,-35,756,0
4033,-35,757,0
4035,-45,755,0
4034,-44,755,0
4035,-44,754,0
4039,-47,753,0
4038,-46,750,0
4037,-47,749,0
4037,-46,751,0
4038,-42,750,0
4035,-42,743,0
4037,-42,746,0
4036,-45,746,0
4030,-45,749,0
4032,-44,745,0
4028,-45,746,0
4027,-47,744,0
4026,-49,746,0
4027,-53,750,0
4023,-53,745,0
4023,-57,743,0
4022,-55,742,0
4022,-59,743,0
4024,-62,744,0
4029,-63,745,0
4028,-64,746,0
4030,-62,745,0
4033,-60,746,0
4036,-64,747,0
4038,-63,748,0
4036,-62,746,0
4039,-61,744,0
4038,-65,745,0
4040,-63,744,0
4040,-64,745,0
4040,-63,748,0
4037,-59,749,0
4036,-58,750,0
4033,-52,750,0
4037,-48,747,0
4036,-49,744,0
4039,-47,747,0
4038,-44,748,0
4041,-38,743,0
4041,-36,740,0
4040,-34,734,0
4038,-30,728,0
4040,-31,725,0
4040,-31,724,0
4042,-30,721,0
4041,-35,723,0
4040,-32,719,0
4042,-31,718,0
4042,-32,720,0
4042,-33,723,0
4040,-39,725,0
4037,-37,722,0
4038,-42,722,0
4039,-40,724,0
4036,-40,727,0
4034,-40,725,0
4035,-41,727,0
4031,-44,727,0
4030,-46,728,0
4026,-45,731,0
4031,-45,729,0
4032,-48,730,0
4034,-50,732,0
4031,-46,729,0
4031,-46,728,0
4033,-48,723,0
4037,-49,728,0
4038,-48,729,0
4040,-50,727,0
4042,-53,727,0
4044,-55,729,0
4046,-54,729,0
4047,-55,728,0
4048,-53,728,0
4053,-53,725,0
4053,-51,724,0
4050,-51,724,0
4048,-47,722,0
4048,-46,722,0
4044,-51,725,0
4042,-55,724,0
4041,-53,728,0
4041,-54,726,0
4038,-53,728,0
4030,-50,726,0
4024,-52,729,0
4025,-49,729,0
4020,-45,731,0
4012,-41,731,0
4008,-48,731,0
4009,-48,727,0
4011,-49,721,0
4020,-51,716,0
4030,-52,713,0
4032,-53,715,0
4032,-56,720,0
4033,-55,727,0
4040,-53,728,0
4043,-47,727,0
4042,-46,723,0
4045,-50,726,0
4049,-51,728,0
4050,-49,725,0
4047,-45,725,0
4050,-45,726,0
4053,-46,727,0
4053,-46,723,0
4063,-48,722,0
4069,-54,720,0
4073,-57,715,0
4072,-60,708,0
4065,-59,707,0
4063,-61,710,0
4055,-62,716,0
4046,-58,717,0
4038,-55,727,0
4030,-58,728,0
4025,-54,725,0
4023,-51,721,0
4026,-49,722,0
4030,-50,719,0
4028,-50,718,0
4029,-48,716,0
4027,-50,716,0
4029,-50,716,0
4033,-50,714,0
4029,-54,709,0
4033,-56,707,0
4031,-57,705,0
4032,-59,702,0
4030,-61,702,0
4029,-61,703,0
4029,-61,705,0
4031,-60,703,0
4031,-58,706,0
4030,-60,705,0
4031,-59,701,0
4031,-61,701,0
4030,-61,704,0
4030,-61,707,0
4029,-58,707,0
4027,-56,705,0
4026,-60,704,0
4026,-60,700,0
4024,-62,700,0
4022,-64,701,0
4026,-64,701,0
4028,-65,704,0
4033,-65,704,0
4037,-63,702,0
4038,-61,700,0
4043,-61,702,0
4043,-58,703,0
4045,-56,705,0
4051,-58,702,0
4055,-58,703,0
4057,-56,700,0
4055,-53,701,0
4051,-52,702,0
4050,-54,704,0
4049,-54,704,0
4048,-52,708,0
4046,-52,710,0
4043,-53,709,0
4046,-53,711,0
4046,-58,710,0
4046,-56,707,0
4048,-60,703,0
4051,-60,702,0
4056,-60,702,0
4053,-58,707,0
4048,-56,703,0
4048,-60,701,0
4046,-60,700,0
4044,-60,702,0
4041,-59,706,0
4042,-57,709,0
4041,-53,709,0
4040,-55,708,0
4038,-55,706,0
4036,-55,708,0
4035,-52,710,0
4035,-52,713,0
4035,-51,712,0
4034,-50,714,0
4035,-49,714,0
4038,-47,712,0
4039,-48,716,0
4041,-52,718,0
4035,-54,718,0
4037,-54,716,0
4039,-51,712,0
4037,-52,714,0
4039,-53,712,0
4036,-51,713,0
4036,-49,716,0
4040,-50,711,0
4037,-47,712,0
4040,-47,713,0
4042,-48,712,0
4040,-49,710,0
4038,-48,714,0
4035,-48,716,0
4034,-48,716,0
4035,-46,714,0
4032,-45,714,0
4038,-47,713,0
4031,-48,713,0
4032,-50,713,0
4032,-50,712,0
4033,-51,712,0
4035,-54,712,0
4040,-55,712,0
4041,-57,718,0
4040,-60,717,0
4039,-59,715,0
4041,-61,715,0
4042,-61,713,0
4043,-65,708,0
4043,-65,708,0
4037,-62,707,0
4033,-62,707,0
4035,-63,710,0
4039,-64,711,0
4039,-63,712,0
4038,-58,716,0
4037,-55,713,0
4039,-56,710,0
4040,-58,713,0
4038,-58,717,0
4042,-62,714,0
4038,-61,716,0
4038,-59,716,0
4038,-57,713,0
4041,-59,714,0
4045,-59,716,0
4042,-62,715,0
4040,-60,716,0
4039,-59,716,0
4041,-57,718,0
4044,-56,723,0
4044,-55,721,0
4045,-57,721,0
4043,-55,723,0
4037,-54,722,0
4034,-51,723,0
4032,-49,721,0
4029,-52,724,0
4028,-51,723,0
4032,-52,722,0
4033,-48,721,0
4035,-44,719,0
4040,-44,722,0
4040,-44,725,0
4038,-46,726,0
4039,-44,724,0
4040,-46,723,0
4038,-52,722,0
4038,-54,721,0
4037,-50,721,0
4039,-49,723,0
4040,-49,723,0
4039,-48,724,0
4040,-49,724,0
4041,-50,723,0
4041,-53,722,0
4038,-54,721,0
4034,-55,723,0
4037,-49,725,0
4040,-47,726,0
4040,-47,726,0
4040,-52,722,0
4040,-54,719,0
4036,-55,718,0
4034,-58,718,0
4032,-57,718,0
4034,-58,718,0
4036,-56,719,0
4033,-57,718,0
4036,-56,719,0
4035,-52,716,0
4038,-55,718,0
4039,-52,720,0
4043,-52,719,0
4042,-52,718,0
4041,-53,718,0
4042,-48,716,0
4043,-50,717,0
4044,-54,718,0
4041,-53,718,0
4044,-52,722,0
4043,-56,722,0
4039,-55,721,0
4037,-57,721,0
4032,-58,723,0
4031,-60,726,0
4029,-61,727,0
4023,-60,727,0
4022,-60,726,0
4021,-60,723,0
4026,-61,719,0
4025,-64,716,0
4029,-62,714,0
4029,-64,714,0
4028,-61,715,0
4032,-59,722,0
4036,-56,723,0
4036,-57,728,0
4040,-55,729,0
4045,-51,728,0
4054,-50,727,0
4052,-49,728,0
4049,-48,726,0
4048,-52,723,0
4048,-54,725,0
4050,-50,720,0
4051,-49,718,0
4055,-56,714,0
4059,-60,711,0
4064,-66,709,0
4064,-64,711,0
4059,-62,715,0
4062,-60,715,0
4055,-57,719,0
4048,-51,722,0
4042,-50,726,0
4036,-47,728,0
4026,-46,729,0
4023,-48,728,0
4018,-45,727,0
4017,-45,726,0
4015,-44,731,0
4015,-43,732,0
4015,-45,731,0
4018,-46,734,0
4021,-48,735,0
4023,-50,736,0
4025,-55,735,0
4030,-56,734,0
4029,-50,734,0
4027,-52,734,0
4033,-51,734,0
4032,-54,726,0
4033,-56,726,0
4029,-55,730,0
4033,-56,728,0
4037,-57,726,0
4038,-65,733,0
4036,-61,737,0
