accelerometer_x,accelerometer_y,accelerometer_z,fall
3919,-1113,306,0
3922,-1113,302,0
3918,-1113,295,0
3916,-1116,292,0
3908,-1120,292,0
3907,-1126,282,0
3904,-1127,280,0
3903,-1129,284,0
3917,-1129,299,0
3925,-1126,319,0
3928,-1125,331,0
3925,-1123,326,0
3921,-1122,307,0
3909,-1120,282,0
3904,-1121,267,0
3909,-1118,267,0
3914,-1116,268,0
3922,-1114,276,0
3922,-1109,281,0
3924,-1107,284,0
3924,-1107,290,0
3926,-1106,295,0
3931,-1110,295,0
3931,-1115,295,0
3928,-1117,290,0
3925,-1116,290,0
3920,-1110,290,0
3917,-1105,299,0
3917,-1102,309,0
3917,-1103,313,0
3914,-1105,308,0
3908,-1105,300,0
3901,-1099,289,0
3902,-1100,289,0
3909,-1102,291,0
3914,-1109,294,0
3919,-1114,293,0
3918,-1118,288,0
3917,-1117,296,0
3921,-1119,302,0
3923,-1117,310,0
3921,-1111,315,0
3922,-1108,319,0
3922,-1106,320,0
3927,-1106,321,0
3934,-1108,322,0
3936,-1112,318,0
3936,-1117,318,0
3938,-1126,316,0
3939,-1127,308,0
3941,-1130,309,0
3936,-1132,309,0
3927,-1135,312,0
3924,-1136,325,0
3922,-1139,339,0
3914,-1138,342,0
3906,-1143,334,0
3896,-1141,324,0
3889,-1142,321,0
3895,-1139,335,0
3900,-1133,345,0
3906,-1130,340,0
3907,-1139,329,0
3901,-1145,311,0
3900,-1144,298,0
3900,-1142,294,0
3902,-1140,296,0
3909,-1136,302,0
3915,-1134,312,0
3918,-1133,319,0
3919,-1130,318,0
3919,-1134,307,0
3921,-1140,301,0
3919,-1139,296,0
3917,-1142,293,0
3917,-1144,296,0
3918,-1141,303,0
3916,-1134,309,0
3917,-1134,317,0
3914,-1130,332,0
3916,-1127,353,0
3919,-1125,361,0
3916,-1126,347,0
3909,-1130,325,0
3905,-1134,299,0
3906,-1134,284,0
3909,-1126,285,0
3912,-1121,287,0
3914,-1117,287,0
3914,-1116,282,0
3918,-1117,279,0
3921,-1115,290,0
3920,-1110,299,0
3919,-1115,303,0
3914,-1118,303,0
3912,-1124,297,0
3910,-1126,292,0
3906,-1128,291,0
3903,-1126,289,0
3902,-1126,296,0
3900,-1123,305,0
3900,-1122,314,0
3902,-1123,318,0
3903,-1123,320,0
3901,-1126,317,0
3906,-1125,309,0
3904,-1130,301,0
3906,-1133,293,0
3912,-1131,292,0
3914,-1131,294,0
3917,-1133,300,0
3918,-1133,307,0
3922,-1134,307,0
3924,-1133,303,0
3920,-1133,293,0
3924,-1134,287,0
3926,-1138,296,0
3932,-1134,306,0
3932,-1134,315,0
3928,-1135,320,0
3921,-1134,316,0
3911,-1135,308,0
3899,-1137,305,0
3898,-1143,313,0
3897,-1142,329,0
3893,-1148,336,0
3886,-1154,331,0
3883,-1160,317,0
3882,-1167,308,0
3880,-1169,308,0
3883,-1172,312,0
3884,-1173,320,0
3891,-1171,327,0
3892,-1171,329,0
3894,-1173,321,0
3894,-1176,312,0
3892,-1182,306,0
3887,-1178,298,0
3891,-1174,297,0
3890,-1170,302,0
3892,-1167,305,0
3897,-1163,312,0
3900,-1155,319,0
3909,-1149,322,0
3912,-1143,325,0
3912,-1139,325,0
3911,-1134,322,0
3909,-1121,324,0
3910,-1111,326,0
3909,-1099,327,0
3910,-1090,331,0
3912,-1080,332,0
3910,-1074,340,0
3915,-1071,353,0
3921,-1067,362,0
3924,-1065,357,0
3924,-1063,336,0
3922,-1060,315,0
3924,-1061,308,0
3930,-1062,313,0
3939,-1064,317,0
3946,-1060,317,0
3947,-1061,317,0
3946,-1062,317,0
3946,-1067,315,0
3945,-1072,312,0
3943,-1072,314,0
3941,-1076,318,0
3941,-1079,319,0
3938,-1085,314,0
3938,-1092,309,0
3939,-1102,307,0
3942,-1113,312,0
3941,-1113,330,0
3931,-1109,341,0
3918,-1105,338,0
3902,-1103,328,0
3889,-1103,318,0
3885,-1102,308,0
3884,-1107,306,0
3889,-1109,306,0
3895,-1107,305,0
3899,-1105,310,0
3903,-1106,316,0
3909,-1115,319,0
3912,-1126,318,0
3911,-1137,316,0
3913,-1142,313,0
3910,-1141,312,0
3910,-1144,313,0
3917,-1146,326,0
3921,-1140,328,0
3916,-1137,323,0
3913,-1132,314,0
3913,-1122,299,0
3913,-1119,293,0
3917,-1117,291,0
3918,-1117,292,0
3923,-1119,299,0
3927,-1117,309,0
3932,-1117,322,0
3935,-1120,330,0
3930,-1122,326,0
3922,-1127,320,0
3917,-1132,308,0
3915,-1136,296,0
3909,-1136,293,0
3908,-1140,296,0
3909,-1138,300,0
3909,-1140,303,0
3910,-1141,298,0
3908,-1140,296,0
3905,-1138,291,0
3904,-1137,288,0
3902,-1133,287,0
3900,-1131,289,0
3898,-1128,293,0
3897,-1119,295,0
3902,-1114,299,0
3904,-1109,298,0
3909,-1105,301,0
3913,-1100,299,0
3916,-1096,303,0
3927,-1093,306,0
3930,-1089,303,0
3932,-1086,304,0
3934,-1083,298,0
3932,-1078,301,0
3927,-1074,298,0
3931,-1073,297,0
3933,-1077,295,0
3937,-1079,294,0
3945,-1083,297,0
3948,-1084,298,0
3950,-1086,297,0
3952,-1094,300,0
3958,-1095,300,0
3954,-1096,294,0
3947,-1095,291,0
3948,-1094,284,0
3948,-1095,280,0
3945,-1092,276,0
3945,-1087,274,0
3942,-1084,273,0
3939,-1081,273,0
3935,-1081,278,0
3935,-1082,284,0
3930,-1083,286,0
3926,-1086,286,0
3926,-1091,288,0
3926,-1096,290,0
3924,-1100,289,0
3920,-1103,284,0
3917,-1105,285,0
3913,-1104,286,0
3908,-1103,283,0
3908,-1100,286,0
3906,-1101,281,0
3903,-1101,281,0
3904,-1104,279,0
3905,-1103,280,0
3908,-1105,282,0
3910,-1106,279,0
3912,-1107,280,0
3918,-1104,280,0
3922,-1108,282,0
3926,-1108,288,0
3931,-1108,287,0
3938,-1112,295,0
3944,-1111,300,0
3944,-1111,303,0
3942,-1108,302,0
3938,-1105,291,0
3933,-1107,285,0
3930,-1109,278,0
3924,-1108,273,0
3920,-1105,271,0
3919,-1103,273,0
3919,-1100,281,0
3920,-1100,287,0
3919,-1102,288,0
3918,-1097,288,0
3917,-1099,286,0
3916,-1097,286,0
3915,-1097,286,0
3919,-1098,281,0
3927,-1100,280,0
3932,-1099,281,0
3929,-1096,278,0
3929,-1095,278,0
3931,-1095,281,0
3933,-1095,283,0
3934,-1092,285,0
3932,-1090,285,0
3937,-1084,285,0
3934,-1078,287,0
3932,-1077,284,0
3926,-1078,281,0
3923,-1078,278,0
3925,-1074,277,0
3924,-1071,277,0
3927,-1071,278,0
3926,-1068,283,0
3926,-1069,287,0
3932,-1072,289,0
3932,-1075,286,0
3930,-1078,289,0
3933,-1080,285,0
3935,-1080,283,0
3935,-1082,284,0
3932,-1080,285,0
3935,-1082,286,0
3936,-1085,285,0
3937,-1090,289,0
3935,-1092,286,0
3936,-1093,283,0
3934,-1098,283,0
3932,-1096,285,0
3930,-1095,285,0
3929,-1091,289,0
3933,-1092,290,0
3938,-1089,291,0
3941,-1092,288,0
3943,-1089,281,0
3941,-1087,277,0
3941,-1084,270,0
3941,-1081,266,0
3943,-1085,260,0
3948,-1089,259,0
3949,-1093,262,0
3951,-1093,264,0
3952,-1092,266,0
3947,-1089,269,0
3943,-1085,266,0
3935,-1084,267,0
3935,-1081,265,0
3935,-1079,271,0
3934,-1083,272,0
3939,-1085,281,0
3939,-1090,285,0
3937,-1097,294,0
3935,-1100,298,0
3931,-1110,305,0
3927,-1119,312,0
3923,-1122,320,0
3916,-1127,325,0
3910,-1127,322,0
3899,-1126,319,0
3890,-1125,311,0
3884,-1120,309,0
3881,-1111,306,0
3882,-1101,306,0
3883,-1094,306,0
3889,-1088,309,0
3899,-1085,311,0
3913,-1084,307,0
3929,-1083,306,0
3943,-1082,308,0
3956,-1079,319,0
3959,-1070,329,0
3955,-1061,330,0
3951,-1054,328,0
3948,-1051,320,0
3945,-1051,317,0
3941,-1052,313,0
3939,-1054,310,0
3940,-1059,309,0
3943,-1061,300,0
3940,-1074,295,0
3937,-1077,292,0
3937,-1083,281,0
3931,-1094,270,0
3919,-1102,264,0
3907,-1105,265,0
3904,-1119,270,0
3903,-1127,276,0
3900,-1140,285,0
3900,-1149,296,0
3897,-1153,308,0
3890,-1160,305,0
3887,-1168,298,0
3887,-1172,287,0
3887,-1175,283,0
3888,-1174,282,0
3894,-1169,289,0
3900,-1162,296,0
3900,-1156,303,0
3902,-1155,305,0
3899,-1150,311,0
3894,-1142,316,0
3890,-1134,319,0
3887,-1136,316,0
3885,-1138,310,0
3884,-1135,300,0
3886,-1131,299,0
3891,-1129,299,0
3895,-1127,300,0
3902,-1123,299,0
3910,-1122,301,0
3918,-1117,306,0
3924,-1112,312,0
3926,-1108,324,0
3928,-1109,326,0
3919,-1111,316,0
3915,-1106,306,0
3916,-1105,303,0
3916,-1105,306,0
3924,-1103,312,0
3924,-1103,319,0
3927,-1105,316,0
3927,-1110,313,0
3925,-1110,311,0
3923,-1112,300,0
3919,-1109,292,0
3920,-1103,285,0
3927,-1097,292,0
3929,-1098,299,0
3934,-1098,306,0
3937,-1099,310,0
3940,-1107,310,0
3945,-1114,304,0
3946,-1113,301,0
3948,-1120,302,0
3946,-1118,307,0
3949,-1119,312,0
3948,-1112,318,0
3945,-1104,317,0
3944,-1101,312,0
3942,-1096,304,0
3940,-1090,302,0
3943,-1081,301,0
3945,-1070,295,0
3945,-1066,290,0
3939,-1061,282,0
3932,-1054,283,0
3926,-1051,281,0
3923,-1055,283,0
3916,-1057,291,0
3912,-1063,298,0
3911,-1069,303,0
3911,-1077,305,0
3913,-1087,302,0
3912,-1099,301,0
3918,-1106,304,0
3920,-1107,316,0
3921,-1108,329,0
3921,-1108,325,0
3916,-1114,308,0
3908,-1115,289,0
3902,-1116,275,0
3898,-1115,270,0
3907,-1114,264,0
3909,-1121,260,0
3907,-1126,259,0
3907,-1132,267,0
3911,-1135,271,0
3919,-1143,278,0
3922,-1149,282,0
3920,-1153,274,0
3916,-1153,271,0
3912,-1151,277,0
3910,-1147,281,0
3908,-1141,284,0
3905,-1136,283,0
3900,-1132,287,0
3898,-1119,297,0
3899,-1112,310,0
3904,-1108,321,0
3909,-1106,322,0
3909,-1106,321,0
3907,-1111,310,0
3909,-1117,299,0
3910,-1118,291,0
3912,-1118,287,0
3910,-1117,288,0
3910,-1117,292,0
3916,-1117,292,0
3924,-1109,296,0
3926,-1108,298,0
3929,-1107,306,0
3931,-1101,309,0
3933,-1095,314,0
3933,-1090,313,0
3934,-1080,313,0
3928,-1075,310,0
3931,-1069,303,0
3930,-1066,304,0
3931,-1062,311,0
3934,-1059,309,0
3937,-1061,303,0
3939,-1063,294,0
3935,-1063,284,0
3934,-1064,278,0
3939,-1060,275,0
3940,-1057,274,0
3943,-1058,273,0
3943,-1060,272,0
3945,-1063,278,0
3946,-1066,277,0
3947,-1067,278,0
3948,-1069,277,0
3947,-1068,279,0
3948,-1070,277,0
3943,-1068,275,0
3937,-1064,275,0
3934,-1062,280,0
3928,-1058,286,0
3928,-1062,291,0
3926,-1063,294,0
3922,-1068,289,0
3923,-1070,291,0
3932,-1070,294,0
3929,-1075,299,0
3928,-1074,300,0
3926,-1073,299,0
3925,-1070,294,0
3925,-1075,286,0
3924,-1080,280,0
3926,-1076,280,0
3929,-1085,279,0
3927,-1087,279,0
3923,-1086,276,0
3922,-1088,274,0
3920,-1086,277,0
3918,-1086,273,0
3926,-1090,270,0
3932,-1091,267,0
3930,-1090,272,0
3934,-1087,270,0
3934,-1083,269,0
3932,-1079,268,0
3927,-1078,265,0
3924,-1076,268,0
3920,-1078,270,0
3918,-1082,273,0
3920,-1089,274,0
3922,-1094,282,0
3925,-1094,292,0
3926,-1098,305,0
3927,-1104,308,0
3922,-1113,300,0
3918,-1122,294,0
3915,-1124,288,0
3912,-1123,284,0
3908,-1120,285,0
3909,-1117,290,0
3909,-1113,291,0
3911,-1107,293,0
3915,-1101,293,0
3915,-1099,292,0
3920,-1094,288,0
3923,-1097,285,0
3926,-1101,283,0
3927,-1102,284,0
3929,-1101,285,0
3929,-1098,286,0
3930,-1099,289,0
3933,-1096,291,0
3934,-1098,286,0
3934,-1098,284,0
3934,-1100,284,0
3934,-1104,281,0
3929,-1105,278,0
3931,-1109,280,0
3927,-1110,280,0
3927,-1112,280,0
3924,-1113,278,0
3926,-1113,276,0
3928,-1113,277,0
3934,-1112,278,0
3938,-1110,278,0
3939,-1110,277,0
3943,-1109,281,0
3943,-1109,281,0
3943,-1106,284,0
3942,-1105,284,0
3940,-1112,286,0
3936,-1112,284,0
3935,-1116,282,0
3934,-1112,276,0
3937,-1110,275,0
3935,-1108,274,0
3929,-1109,273,0
3928,-1104,269,0
3924,-1101,269,0
3927,-1091,271,0
3924,-1089,271,0
3924,-1082,277,0
3925,-1079,276,0
3924,-1074,273,0
3924,-1071,269,0
3920,-1064,270,0
3922,-1065,264,0
3923,-1065,265,0
3926,-1067,263,0
3931,-1072,260,0
3934,-1078,255,0
3941,-1080,256,0
3940,-1080,257,0
3945,-1079,265,0
3945,-1078,268,0
3946,-1076,267,0
3943,-1081,267,0
3943,-1086,269,0
3943,-1084,274,0
3940,-1079,278,0
3935,-1078,281,0
3932,-1078,280,0
3929,-1079,283,0
3929,-1078,279,0
3930,-1085,280,0
3927,-1088,276,0
3928,-1089,276,0
3928,-1092,273,0
3930,-1097,271,0
3936,-1100,269,0
3934,-1104,266,0
3938,-1104,263,0
3936,-1103,264,0
3935,-1104,266,0
3931,-1101,270,0
3924,-1099,278,0
3927,-1098,283,0
3926,-1092,286,0
3925,-1087,295,0
3921,-1084,305,0
3917,-1077,315,0
3914,-1072,317,0
3909,-1075,315,0
3902,-1077,310,0
3906,-1076,304,0
3907,-1076,297,0
3909,-1071,292,0
3914,-1076,284,0
3922,-1080,281,0
3930,-1080,278,0
3933,-1085,274,0
3940,-1088,273,0
3943,-1095,267,0
3947,-1098,266,0
3946,-1103,266,0
3950,-1100,264,0
3946,-1098,267,0
3944,-1097,273,0
3942,-1092,273,0
3940,-1090,279,0
3937,-1084,281,0
3933,-1082,279,0
3930,-1080,280,0
3932,-1075,283,0
3935,-1070,284,0
3934,-1064,286,0
3930,-1061,285,0
3929,-1057,288,0
3928,-1051,285,0
3931,-1045,289,0
3932,-1050,288,0
3928,-1049,289,0
3925,-1052,285,0
3928,-1054,282,0
3925,-1056,280,0
3930,-1064,279,0
3929,-1068,277,0
3929,-1073,272,0
3932,-1072,268,0
3935,-1076,268,0
3937,-1074,266,0
3937,-1074,270,0
3942,-1071,272,0
3943,-1068,273,0
3946,-1067,273,0
3942,-1067,278,0
3940,-1066,282,0
3944,-1066,281,0
3947,-1068,282,0
3947,-1062,283,0
3944,-1059,288,0
3937,-1054,291,0
3940,-1052,297,0
3938,-1049,295,0
3937,-1049,292,0
3937,-1052,296,0
3935,-1056,296,0
3931,-1056,295,0
3933,-1053,295,0
3930,-1055,292,0
3928,-1056,293,0
3931,-1060,298,0
3926,-1068,299,0
3924,-1070,302,0
3922,-1076,300,0
3922,-1080,301,0
3921,-1082,301,0
3920,-1082,302,0
3916,-1082,307,0
3918,-1085,310,0
3921,-1088,307,0
3918,-1089,311,0
3919,-1088,308,0
3919,-1091,309,0
3920,-1092,309,0
3920,-1094,308,0
3920,-1091,311,0
3922,-1089,312,0
3921,-1090,313,0
3921,-1091,317,0
3917,-1092,316,0
3917,-1093,318,0
3914,-1092,316,0
3910,-1095,316,0
3909,-1099,317,0
3910,-1101,319,0
3909,-1102,316,0
3907,-1104,320,0
3905,-1106,321,0
3904,-1107,320,0
3902,-1108,321,0
3901,-1113,320,0
3900,-1111,321,0
3897,-1114,321,0
3893,-1120,324,0
3895,-1117,322,0
3894,-1118,320,0
3897,-1117,319,0
3895,-1120,321,0
3898,-1122,319,0
3899,-1121,324,0
3900,-1120,321,0
3900,-1120,319,0
3909,-1123,318,0
3909,-1124,315,0
3915,-1122,311,0
3913,-1119,308,0
3915,-1115,305,0
3914,-1108,304,0
3916,-1100,305,0
3917,-1097,306,0
3923,-1096,302,0
3925,-1090,301,0
3930,-1088,301,0
3933,-1081,304,0
3938,-1077,305,0
3939,-1075,301,0
3943,-1077,299,0
3945,-1076,298,0
3945,-1080,297,0
3942,-1077,293,0
3946,-1071,291,0
3950,-1063,290,0
3950,-1061,288,0
3954,-1052,284,0
3957,-1045,279,0
3958,-1045,276,0
3960,-1041,273,0
3958,-1040,274,0
3958,-1040,275,0
3955,-1036,280,0
3950,-1041,283,0
3941,-1044,291,0
3933,-1047,300,0
3927,-1053,305,0
3918,-1063,310,0
3909,-1075,310,0
3902,-1090,305,0
3894,-1103,303,0
3888,-1117,300,0
3883,-1128,300,0
3885,-1140,298,0
3884,-1151,301,0
3885,-1165,300,0
3885,-1172,299,0
3886,-1183,298,0
3891,-1190,300,0
3893,-1200,299,0
3898,-1207,298,0
3900,-1210,297,0
3901,-1214,297,0
3909,-1215,292,0
3910,-1206,295,0
3910,-1201,299,0
3912,-1194,298,0
3913,-1189,297,0
3914,-1183,295,0
3916,-1178,290,0
3921,-1165,288,0
3918,-1157,282,0
3916,-1148,280,0
3919,-1142,279,0
3928,-1137,280,0
3929,-1133,282,0
3934,-1125,277,0
3936,-1116,275,0
3932,-1106,274,0
3924,-1093,274,0
3918,-1078,273,0
3914,-1069,276,0
3911,-1062,272,0
3913,-1057,271,0
3915,-1052,269,0
3922,-1050,269,0
3929,-1046,269,0
3937,-1038,268,0
3942,-1033,272,0
3943,-1031,275,0
3947,-1026,278,0
3950,-1021,281,0
3951,-1018,282,0
3953,-1015,285,0
3953,-1009,285,0
3954,-1009,286,0
3957,-1008,287,0
3955,-1007,287,0
3955,-1009,280,0
3955,-1008,277,0
3959,-1010,282,0
3957,-1011,278,0
3961,-1013,277,0
3959,-1008,276,0
3962,-1009,272,0
3963,-1013,270,0
3961,-1011,267,0
3958,-1015,269,0
3957,-1018,271,0
3957,-1022,274,0
3952,-1025,274,0
3948,-1025,278,0
3940,-1033,281,0
3937,-1039,288,0
3936,-1045,289,0
3935,-1052,290,0
3934,-1061,294,0
3928,-1065,296,0
3925,-1072,299,0
3920,-1077,302,0
3916,-1081,306,0
3911,-1086,306,0
3910,-1092,309,0
3911,-1097,308,0
3912,-1100,305,0
3919,-1101,306,0
3926,-1101,304,0
3931,-1098,304,0
3937,-1098,300,0
3937,-1092,298,0
3940,-1091,294,0
3939,-1087,294,0
3933,-1079,294,0
3927,-1077,292,0
3926,-1073,292,0
3924,-1073,291,0
3922,-1069,296,0
3919,-1070,298,0
3916,-1073,301,0
3918,-1074,298,0
3918,-1079,299,0
3920,-1081,302,0
3918,-1083,302,0
3920,-1085,305,0
3919,-1085,306,0
3919,-1087,306,0
3918,-1087,307,0
3919,-1087,303,0
3919,-1090,300,0
3920,-1090,298,0
3921,-1091,295,0
3918,-1080,293,0
3918,-1072,292,0
3917,-1066,291,0
3919,-1060,291,0
3919,-1056,286,0
3925,-1051,285,0
3934,-1051,288,0
3937,-1046,288,0
3938,-1047,287,0
3940,-1049,287,0
3944,-1053,286,0
3944,-1061,288,0
3944,-1067,288,0
3943,-1069,284,0
3945,-1072,283,0
3944,-1075,282,0
3943,-1073,282,0
3942,-1075,280,0
3936,-1071,275,0
3928,-1067,273,0
3925,-1060,277,0
3921,-1058,274,0
3920,-1056,278,0
3920,-1057,282,0
3922,-1057,287,0
3931,-1058,291,0
3930,-1057,297,0
3930,-1057,297,0
3931,-1061,295,0
3924,-1068,288,0
3923,-1073,281,0
3923,-1084,274,0
3926,-1091,269,0
3926,-1096,265,0
3926,-1098,262,0
3931,-1100,260,0
3937,-1104,259,0
3937,-1107,264,0
3934,-1110,268,0
3932,-1114,266,0
3930,-1115,263,0
3929,-1117,263,0
3924,-1120,263,0
3921,-1117,264,0
3917,-1114,268,0
3915,-1112,270,0
3912,-1110,272,0
3911,-1107,275,0
3907,-1105,277,0
3909,-1100,278,0
3912,-1098,274,0
3917,-1099,269,0
3923,-1094,266,0
3929,-1090,268,0
3935,-1083,263,0
3944,-1077,261,0
3954,-1073,264,0
3961,-1068,262,0
3967,-1062,257,0
3969,-1056,254,0
3970,-1047,252,0
3972,-1037,252,0
3978,-1026,253,0
3981,-1015,254,0
3988,-1002,249,0
3984,-990,244,0
3984,-983,237,0
3987,-976,238,0
3995,-976,237,0
4000,-977,234,0
4006,-977,229,0
4009,-979,230,0
4010,-981,230,0
4006,-980,232,0
4003,-977,234,0
3995,-977,236,0
3987,-980,243,0
3977,-992,250,0
3963,-1003,253,0
3955,-1013,257,0
3947,-1027,262,0
3937,-1038,266,0
3926,-1050,269,0
3919,-1064,271,0
3912,-1081,272,0
3905,-1084,275,0
3903,-1087,276,0
3902,-1086,276,0
3903,-1086,277,0
3901,-1083,277,0
3904,-1084,275,0
3908,-1082,274,0
3915,-1082,274,0
3917,-1078,267,0
3924,-1073,265,0
3933,-1070,258,0
3939,-1070,258,0
3948,-1069,257,0
3956,-1065,256,0
3962,-1062,254,0
3958,-1058,252,0
3957,-1059,254,0
3958,-1062,256,0
3959,-1062,256,0
3955,-1060,259,0
3953,-1065,267,0
3953,-1068,269,0
3950,-1071,271,0
3947,-1074,271,0
3942,-1074,276,0
3936,-1079,283,0
3926,-1080,287,0
3922,-1081,286,0
3915,-1078,288,0
3910,-1080,288,0
3906,-1079,288,0
3906,-1078,291,0
3900,-1074,298,0
3896,-1073,302,0
3895,-1073,305,0
3901,-1075,307,0
3903,-1070,308,0
3908,-1068,310,0
3909,-1063,305,0
3909,-1062,308,0
3913,-1057,310,0
3920,-1053,310,0
3928,-1049,310,0
3935,-1045,309,0
3942,-1041,306,0
3947,-1039,306,0
3949,-1033,305,0
3950,-1023,306,0
3952,-1018,305,0
3950,-1012,300,0
3951,-1008,298,0
3951,-1002,297,0
3950,-998,295,0
3953,-990,299,0
3946,-984,300,0
3944,-982,306,0
3943,-990,310,0
3944,-994,313,0
3942,-996,316,0
3939,-998,317,0
3937,-1006,319,0
3936,-1010,320,0
3935,-1016,320,0
3934,-1023,316,0
3931,-1029,316,0
3923,-1027,311,0
3921,-1025,308,0
3916,-1022,306,0
3915,-1027,308,0
3911,-1028,310,0
3909,-1032,314,0
3907,-1041,316,0
3911,-1049,323,0
3913,-1053,329,0
3917,-1058,333,0
3921,-1067,336,0
3926,-1073,333,0
3931,-1079,324,0
3927,-1086,317,0
3933,-1088,311,0
3931,-1088,309,0
3931,-1091,305,0
3929,-1091,304,0
3933,-1089,306,0
3932,-1086,306,0
3928,-1087,307,0
3923,-1089,304,0
3923,-1091,300,0
3923,-1098,297,0
3921,-1099,297,0
3924,-1104,299,0
3924,-1102,298,0
3931,-1100,304,0
3935,-1099,304,0
3936,-1099,308,0
3939,-1103,309,0
3942,-1106,307,0
3939,-1109,305,0
3939,-1111,300,0
3937,-1114,298,0
3935,-1113,298,0
3927,-1113,297,0
3922,-1111,295,0
3921,-1106,295,0
3917,-1105,291,0
3916,-1103,291,0
3914,-1103,288,0
3911,-1101,280,0
3911,-1094,276,0
3911,-1088,271,0
3913,-1085,263,0
3910,-1075,264,0
3914,-1074,263,0
3927,-1070,259,0
3935,-1070,260,0
3939,-1068,260,0
3943,-1064,261,0
3948,-1063,264,0
3947,-1061,269,0
3945,-1062,278,0
3941,-1061,282,0
3937,-1062,292,0
3931,-1059,294,0
3926,-1064,293,0
3923,-1065,295,0
3923,-1065,291,0
3921,-1068,286,0
3922,-1064,282,0
3925,-1059,280,0
3929,-1052,280,0
3933,-1050,278,0
3937,-1042,276,0
3937,-1038,272,0
3940,-1032,270,0
3945,-1031,265,0
3951,-1028,262,0
3954,-1033,259,0
3955,-1035,255,0
3958,-1035,255,0
3957,-1035,255,0
3955,-1036,257,0
3958,-1039,261,0
3954,-1039,265,0
3953,-1042,268,0
3952,-1041,268,0
3952,-1043,267,0
3950,-1039,270,0
3951,-1042,271,0
3951,-1039,271,0
3956,-1037,271,0
3955,-1040,275,0
3953,-1039,273,0
3949,-1041,269,0
3948,-1039,268,0
3950,-1038,271,0
3945,-1039,271,0
3941,-1038,271,0
3938,-1038,271,0
3932,-1038,273,0
3927,-1040,274,0
3924,-1049,273,0
3923,-1056,274,0
3925,-1055,275,0
3929,-1058,278,0
3929,-1059,280,0
3928,-1058,279,0
3932,-1059,278,0
3933,-1063,279,0
3932,-1067,279,0
3933,-1073,280,0
3932,-1077,278,0
3935,-1078,278,0
3936,-1080,280,0
3936,-1078,281,0
3937,-1079,279,0
3935,-1079,275,0
3939,-1075,274,0
3939,-1068,272,0
3941,-1060,273,0
3940,-1054,272,0
3942,-1047,273,0
3946,-1039,272,0
3947,-1035,274,0
3947,-1031,275,0
3949,-1029,276,0
3951,-1026,277,0
3955,-1028,276,0
3961,-1029,272,0
3958,-1027,273,0
3959,-1027,271,0
3956,-1030,268,0
3952,-1027,268,0
3946,-1020,269,0
3945,-1024,270,0
3943,-1022,268,0
3943,-1024,267,0
3942,-1022,264,0
3946,-1024,260,0
3944,-1023,262,0
3947,-1025,266,0
3949,-1029,264,0
3952,-1033,267,0
3953,-1034,265,0
3952,-1033,268,0
3951,-1033,271,0
3950,-1035,270,0
3948,-1038,269,0
3940,-1037,268,0
3938,-1040,264,0
3935,-1041,264,0
3930,-1040,263,0
3933,-1041,263,0
3939,-1042,267,0
3944,-1046,272,0
3945,-1051,273,0
3947,-1054,273,0
3946,-1056,269,0
3948,-1058,266,0
3947,-1060,262,0
3944,-1063,266,0
3943,-1062,272,0
3944,-1066,275,0
3942,-1066,280,0
3943,-1068,281,0
3941,-1070,284,0
3944,-1073,279,0
3945,-1072,275,0
3944,-1074,275,0
3945,-1074,273,0
3943,-1073,272,0
3943,-1071,275,0
3941,-1068,274,0
3935,-1063,274,0
3934,-1063,277,0
3934,-1063,283,0
3934,-1065,287,0
3930,-1067,287,0
3927,-1069,285,0
3928,-1075,288,0
3931,-1080,289,0
3929,-1079,291,0
3929,-1081,292,0
3926,-1082,296,0
3925,-1085,295,0
3926,-1081,297,0
3929,-1078,295,0
3928,-1078,294,0
3927,-1078,297,0
3926,-1073,296,0
3927,-1068,298,0
3927,-1064,295,0
3931,-1063,292,0
3936,-1057,291,0
3943,-1053,290,0
3945,-1052,282,0
3950,-1052,280,0
3954,-1051,274,0
3961,-1051,270,0
3964,-1052,266,0
3969,-1054,264,0
3968,-1050,263,0
3961,-1045,260,0
3959,-1039,260,0
3957,-1037,263,0
3959,-1033,267,0
3956,-1036,271,0
3950,-1031,278,0
3946,-1031,281,0
3941,-1027,282,0
3932,-1026,284,0
3928,-1024,288,0
3920,-1027,294,0
3915,-1026,297,0
3908,-1028,304,0
3906,-1027,306,0
3904,-1025,313,0
3906,-1022,319,0
3907,-1017,322,0
3910,-1019,328,0
3913,-1018,329,0
3916,-1018,326,0
3920,-1018,321,0
3928,-1016,317,0
3938,-1019,314,0
3946,-1021,308,0
3950,-1022,300,0
3955,-1023,296,0
3962,-1024,292,0
3967,-1027,293,0
3968,-1026,290,0
3972,-1030,292,0
3971,-1030,293,0
3966,-1031,296,0
3965,-1032,295,0
3962,-1031,296,0
3956,-1029,298,0
3953,-1029,301,0
3948,-1027,306,0
3947,-1024,307,0
3941,-1020,315,0
3938,-1022,314,0
3937,-1023,315,0
3929,-1021,317,0
3924,-1026,317,0
3923,-1025,321,0
3918,-1034,323,0
3917,-1043,323,0
3917,-1047,320,0
3922,-1051,319,0
3921,-1057,320,0
3921,-1059,316,0
3920,-1058,320,0
3923,-1062,318,0
3923,-1067,312,0
3924,-1070,305,0
3928,-1076,299,0
3926,-1073,297,0
3927,-1071,301,0
3928,-1072,298,0
3932,-1080,296,0
3929,-1088,295,0
3936,-1095,294,0
3935,-1098,295,0
3936,-1097,293,0
3935,-1095,298,0
3934,-1089,299,0
3933,-1091,298,0
3930,-1087,297,0
3926,-1089,297,0
3927,-1089,298,0
3925,-1090,299,0
3923,-1091,302,0
3921,-1091,308,0
3916,-1098,313,0
3912,-1106,320,0
3909,-1103,329,0
3905,-1104,338,0
3902,-1108,341,0
3893,-1113,340,0
3890,-1116,336,0
3884,-1116,334,0
3880,-1120,328,0
3876,-1119,323,0
3878,-1116,319,0
3881,-1115,323,0
3884,-1114,323,0
3890,-1114,320,0
3898,-1117,322,0
3902,-1120,321,0
3907,-1123,319,0
3912,-1126,321,0
3916,-1129,321,0
3918,-1131,323,0
3917,-1131,326,0
3915,-1131,331,0
3916,-1132,327,0
3914,-1133,327,0
3910,-1131,324,0
3906,-1134,323,0
3905,-1133,322,0
3908,-1133,320,0
3909,-1136,319,0
3910,-1136,321,0
3913,-1136,322,0
3917,-1136,320,0
3918,-1137,317,0
3919,-1137,322,0
3922,-1138,323,0
3923,-1138,318,0
3925,-1138,319,0
3925,-1135,317,0
3925,-1134,316,0
3924,-1136,317,0
3923,-1131,316,0
3919,-1127,313,0
3914,-1124,315,0
3911,-1122,313,0
3908,-1118,308,0
3906,-1112,306,0
3899,-1106,304,0
3903,-1104,305,0
3903,-1106,308,0
3905,-1104,309,0
3908,-1104,309,0
3913,-1100,312,0
3915,-1097,308,0
3917,-1096,304,0
3919,-1096,301,0
3919,-1091,299,0
3919,-1087,298,0
3921,-1085,298,0
3931,-1082,300,0
3933,-1075,300,0
3936,-1072,301,0
3938,-1064,302,0
3939,-1062,297,0
3940,-1059,298,0
3939,-1058,298,0
3939,-1054,296,0
3941,-1055,297,0
3943,-1058,298,0
3944,-1055,297,0
3942,-1056,295,0
3941,-1057,296,0
3938,-1057,295,0
3939,-1058,292,0
3941,-1058,290,0
3938,-1060,290,0
3940,-1064,287,0
3936,-1070,290,0
3935,-1075,292,0
3934,-1080,294,0
3934,-1082,298,0
3930,-1087,301,0
3928,-1091,303,0
3926,-1094,308,0
3926,-1099,307,0
3924,-1105,310,0
3928,-1106,312,0
3925,-1111,311,0
3927,-1110,314,0
3929,-1112,312,0
3932,-1117,312,0
3935,-1121,313,0
3935,-1123,313,0
3932,-1127,315,0
3930,-1126,310,0
3932,-1122,308,0
3928,-1120,303,0
3925,-1114,299,0
3923,-1108,298,0
3921,-1100,293,0
3916,-1088,294,0
3914,-1080,291,0
3914,-1080,292,0
3917,-1075,291,0
3918,-1072,294,0
3922,-1069,296,0
3926,-1071,297,0
3935,-1072,293,0
3941,-1073,292,0
3941,-1074,293,0
3941,-1076,295,0
3943,-1070,297,0
3943,-1065,292,0
3941,-1061,289,0
3937,-1058,286,0
3931,-1054,284,0
3930,-1052,287,0
3935,-1045,286,0
3933,-1051,286,0
3931,-1054,277,0
3929,-1054,274,0
3930,-1056,270,0
3936,-1056,265,0
3939,-1056,263,0
3938,-1055,266,0
3937,-1048,267,0
3941,-1042,267,0
3943,-1035,272,0
3945,-1033,271,0
3949,-1031,269,0
3950,-1031,270,0
3952,-1035,275,0
3954,-1039,277,0
3958,-1045,281,0
3955,-1048,284,0
3952,-1050,289,0
3951,-1054,298,0
3941,-1054,300,0
3932,-1054,297,0
3924,-1053,294,0
3914,-1050,290,0
3906,-1043,290,0
3901,-1039,291,0
3897,-1037,291,0
3900,-1031,286,0
3900,-1036,288,0
3909,-1042,287,0
3911,-1050,290,0
3912,-1060,291,0
3914,-1071,289,0
3921,-1083,290,0
3923,-1093,290,0
3923,-1097,291,0
3923,-1100,292,0
3922,-1099,292,0
3923,-1095,294,0
3924,-1095,292,0
3927,-1089,289,0
3929,-1079,293,0
3933,-1072,297,0
3941,-1070,294,0
3946,-1070,293,0
3950,-1071,289,0
3951,-1068,291,0
3949,-1066,288,0
3949,-1068,285,0
3947,-1065,283,0
3946,-1066,284,0
3942,-1071,282,0
3943,-1069,283,0
3938,-1068,284,0
3939,-1071,286,0
3941,-1071,286,0
3940,-1072,289,0
3941,-1077,291,0
3940,-1082,293,0
3943,-1087,293,0
3946,-1089,293,0
3946,-1090,287,0
3944,-1094,287,0
3943,-1096,285,0
3942,-1095,285,0
3940,-1092,288,0
3937,-1093,287,0
3929,-1094,285,0
3925,-1096,291,0
3920,-1094,288,0
3915,-1094,289,0
3907,-1089,282,0
3903,-1092,285,0
3900,-1093,285,0
3903,-1096,286,0
3903,-1100,285,0
3905,-1102,281,0
3908,-1102,281,0
3912,-1104,281,0
3919,-1107,278,0
3925,-1110,278,0
3926,-1111,277,0
3931,-1110,274,0
3937,-1109,271,0
3938,-1106,269,0
3943,-1103,267,0
3946,-1103,265,0
3944,-1098,266,0
3944,-1095,267,0
3944,-1092,269,0
3945,-1085,275,0
3941,-1084,275,0
3940,-1084,275,0
3939,-1083,272,0
3936,-1083,276,0
3933,-1081,278,0
3928,-1082,277,0
3934,-1084,277,0
3929,-1087,280,0
3926,-1091,280,0
3929,-1091,281,0
3925,-1090,283,0
3930,-1094,287,0
3930,-1098,283,0
3930,-1102,284,0
3927,-1106,284,0
3928,-1107,289,0
3926,-1110,291,0
3922,-1113,295,0
3926,-1110,303,0
3925,-1113,315,0
3924,-1115,325,0
3923,-1116,329,0
3925,-1121,333,0
3930,-1123,333,0
3932,-1128,338,0
3938,-1128,342,0
3939,-1128,349,0
3937,-1122,361,0
3938,-1117,369,0
3932,-1118,357,0
3928,-1124,333,0
3922,-1132,297,0
3913,-1138,263,0
3907,-1140,226,0
3903,-1136,201,0
3907,-1126,187,0
3912,-1112,188,0
3919,-1099,197,0
3923,-1088,210,0
3928,-1088,231,0
3933,-1091,250,0
3937,-1094,269,0
3934,-1094,289,0
3929,-1096,299,0
3922,-1100,297,0
3915,-1100,287,0
3909,-1106,288,0
3911,-1106,295,0
3914,-1099,303,0
3912,-1093,305,0
3913,-1088,296,0
3911,-1084,288,0
3910,-1083,276,0
3910,-1078,261,0
3911,-1080,247,0
3917,-1081,242,0
3922,-1082,249,0
3931,-1087,260,0
3942,-1086,271,0
3948,-1085,282,0
3954,-1088,290,0
3951,-1089,295,0
3945,-1086,301,0
3937,-1087,305,0
3935,-1086,310,0
3928,-1082,310,0
3925,-1075,304,0
3922,-1076,297,0
3923,-1080,297,0
3929,-1078,301,0
3936,-1077,308,0
3942,-1074,313,0
3945,-1072,312,0
3949,-1073,303,0
3949,-1071,300,0
3945,-1067,292,0
3944,-1067,285,0
3945,-1061,280,0
3941,-1052,278,0
3945,-1040,281,0
3947,-1027,291,0
3954,-1016,299,0
3956,-1011,304,0
3962,-1002,308,0
3963,-996,313,0
3966,-988,316,0
3967,-983,317,0
3966,-977,314,0
3968,-974,309,0
3965,-970,311,0
3958,-969,313,0
3950,-972,317,0
3944,-977,315,0
3942,-987,311,0
3939,-992,307,0
3935,-996,306,0
3927,-1002,307,0
3928,-1009,309,0
3927,-1015,312,0
3934,-1021,317,0
3943,-1030,322,0
3951,-1030,318,0
3953,-1032,310,0
3952,-1038,302,0
3946,-1040,297,0
3941,-1049,302,0
3938,-1059,311,0
3931,-1074,321,0
3922,-1082,327,0
3915,-1087,332,0
3906,-1090,335,0
3898,-1096,339,0
3894,-1099,337,0
3893,-1105,332,0
3896,-1110,327,0
3900,-1116,323,0
3902,-1124,315,0
3907,-1130,307,0
3911,-1135,302,0
3915,-1137,295,0
3920,-1140,296,0
3924,-1145,300,0
3924,-1142,304,0
3924,-1138,308,0
3926,-1139,315,0
3924,-1143,319,0
3920,-1140,325,0
3914,-1138,330,0
3911,-1141,328,0
3913,-1145,337,0
3910,-1146,341,0
3910,-1147,346,0
3911,-1147,347,0
3907,-1144,346,0
3899,-1135,344,0
3894,-1132,340,0
3890,-1130,334,0
3887,-1128,326,0
3888,-1132,325,0
3890,-1132,325,0
3892,-1131,322,0
3896,-1126,319,0
3894,-1125,318,0
3897,-1122,317,0
3897,-1119,319,0
3896,-1121,319,0
3896,-1118,319,0
3895,-1118,326,0
3896,-1118,324,0
3900,-1119,326,0
3906,-1118,326,0
3910,-1116,326,0
3910,-1115,327,0
3914,-1117,326,0
3916,-1117,326,0
3918,-1111,329,0
3924,-1111,331,0
3924,-1113,331,0
3924,-1114,331,0
3923,-1111,332,0
3921,-1104,335,0
3917,-1100,337,0
3917,-1099,332,0
3914,-1099,327,0
3914,-1098,322,0
3914,-1102,320,0
3910,-1099,319,0
3904,-1093,314,0
3902,-1095,315,0
3903,-1093,311,0
3908,-1091,310,0
3913,-1091,315,0
3916,-1092,324,0
3921,-1091,324,0
3923,-1087,329,0
3927,-1086,333,0
3929,-1089,339,0
3934,-1094,338,0
3935,-1097,334,0
3931,-1099,330,0
3926,-1097,329,0
3925,-1090,328,0
3921,-1085,324,0
3924,-1082,328,0
3925,-1076,322,0
3921,-1069,316,0
3920,-1064,312,0
3922,-1059,309,0
3922,-1053,309,0
3922,-1053,313,0
3930,-1052,324,0
3932,-1051,330,0
3932,-1053,333,0
3931,-1057,338,0
3930,-1062,341,0
3927,-1064,341,0
3924,-1070,337,0
3923,-1074,335,0
3922,-1077,333,0
3921,-1079,332,0
3919,-1083,331,0
3921,-1081,330,0
3918,-1084,333,0
3921,-1086,332,0
3922,-1086,328,0
3922,-1081,326,0
3920,-1082,323,0
3919,-1077,323,0
3920,-1069,323,0
3920,-1061,324,0
3929,-1056,326,0
3927,-1052,331,0
3931,-1049,333,0
3935,-1044,334,0
3937,-1041,331,0
3935,-1043,328,0
3935,-1045,325,0
3934,-1043,324,0
3939,-1047,321,0
3943,-1052,325,0
3940,-1053,325,0
3939,-1056,326,0
3937,-1058,326,0
3935,-1057,333,0
3934,-1055,334,0
3934,-1053,338,0
3933,-1054,339,0
3931,-1053,333,0
3931,-1047,328,0
3930,-1047,321,0
3932,-1047,317,0
3929,-1045,317,0
3936,-1046,313,0
3937,-1041,315,0
3942,-1033,317,0
3938,-1030,321,0
3940,-1027,323,0
3939,-1027,326,0
3932,-1022,327,0
3932,-1023,328,0
3933,-1026,331,0
3937,-1033,329,0
3935,-1037,331,0
3937,-1041,331,0
3937,-1046,329,0
3941,-1051,330,0
3939,-1058,327,0
3938,-1061,323,0
3937,-1065,321,0
3937,-1067,316,0
3937,-1065,314,0
3935,-1064,313,0
3932,-1065,312,0
3932,-1065,308,0
3926,-1064,312,0
3926,-1062,316,0
3926,-1060,317,0
3924,-1057,320,0
3923,-1057,322,0
3920,-1058,321,0
3919,-1057,324,0
3918,-1059,321,0
3921,-1061,320,0
3923,-1061,321,0
3928,-1064,323,0
3924,-1065,322,0
3921,-1066,319,0
3920,-1064,317,0
3918,-1061,316,0
3919,-1061,317,0
3919,-1058,317,0
3920,-1051,314,0
3921,-1049,314,0
3923,-1044,314,0
3931,-1042,314,0
3932,-1041,311,0
3936,-1036,309,0
3942,-1040,305,0
3946,-1041,306,0
3948,-1040,305,0
3949,-1042,310,0
3952,-1042,310,0
3948,-1045,309,0
3945,-1047,307,0
3938,-1047,302,0
3938,-1049,302,0
3937,-1051,300,0
3935,-1051,295,0
3932,-1048,297,0
3929,-1046,297,0
3931,-1047,297,0
3933,-1048,299,0
3934,-1048,300,0
3933,-1047,298,0
3933,-1049,293,0
3934,-1049,290,0
3934,-1048,288,0
3937,-1045,286,0
3939,-1045,286,0
3938,-1043,287,0
3941,-1040,287,0
3940,-1037,289,0
3940,-1036,288,0
3937,-1034,285,0
3935,-1029,286,0
3935,-1027,288,0
3939,-1028,287,0
3940,-1031,292,0
3938,-1029,290,0
3936,-1034,294,0
3937,-1038,289,0
3933,-1041,282,0
3933,-1046,278,0
3933,-1047,276,0
3935,-1052,273,0
3941,-1052,272,0
3943,-1055,270,0
3945,-1056,263,0
3950,-1053,260,0
3949,-1050,261,0
3949,-1044,263,0
3946,-1043,267,0
3949,-1036,271,0
3953,-1035,278,0
3949,-1035,278,0
3948,-1033,286,0
3947,-1031,285,0
3941,-1031,283,0
3937,-1030,282,0
3936,-1033,278,0
3933,-1033,277,0
3932,-1034,276,0
3935,-1036,271,0
3937,-1039,267,0
3941,-1044,267,0
3942,-1053,267,0
3945,-1058,265,0
3944,-1061,266,0
3948,-1066,269,0
3948,-1062,267,0
3946,-1054,270,0
3944,-1048,275,0
3939,-1044,279,0
3931,-1036,282,0
3928,-1032,278,0
3925,-1032,278,0
3926,-1032,279,0
3930,-1033,275,0
3936,-1033,273,0
3940,-1033,272,0
3944,-1032,270,0
3951,-1032,272,0
3957,-1034,272,0
3961,-1039,269,0
3967,-1042,271,0
3968,-1041,269,0
3968,-1045,270,0
3966,-1043,270,0
3963,-1047,271,0
3959,-1052,273,0
3955,-1049,267,0
3950,-1042,267,0
3943,-1039,264,0
3944,-1033,264,0
3944,-1029,265,0
3944,-1026,265,0
3946,-1019,266,0
3947,-1013,266,0
3950,-1011,269,0
3950,-1010,272,0
3950,-1013,270,0
3954,-1017,274,0
3952,-1020,278,0
3952,-1025,280,0
3949,-1033,283,0
3950,-1039,284,0
3947,-1044,286,0
3946,-1050,283,0
3946,-1055,283,0
3945,-1056,289,0
3943,-1059,286,0
3941,-1057,284,0
3940,-1056,286,0
3938,-1052,286,0
3931,-1048,285,0
3933,-1045,284,0
3931,-1043,281,0
3932,-1039,278,0
3932,-1034,280,0
3933,-1035,279,0
3932,-1032,277,0
3932,-1032,277,0
3932,-1033,277,0
3930,-1041,280,0
3935,-1048,284,0
3934,-1057,288,0
3932,-1065,291,0
3935,-1076,296,0
3939,-1088,298,0
3939,-1099,297,0
3936,-1110,301,0
3938,-1117,305,0
3938,-1123,306,0
3931,-1121,310,0
3927,-1117,313,0
3923,-1116,314,0
3916,-1109,316,0
3903,-1105,310,0
3895,-1098,305,0
3890,-1092,301,0
3883,-1088,301,0
3881,-1086,299,0
3882,-1083,300,0
3881,-1084,298,0
3882,-1083,293,0
3890,-1085,283,0
3899,-1088,279,0
3912,-1092,279,0
3929,-1098,279,0
3946,-1103,276,0
3960,-1102,277,0
3972,-1099,278,0
3977,-1093,282,0
3979,-1093,289,0
3974,-1088,294,0
3969,-1085,296,0
3959,-1079,293,0
3949,-1077,291,0
3939,-1070,290,0
3927,-1062,286,0
3919,-1053,288,0
3918,-1044,291,0
3917,-1037,291,0
3919,-1032,292,0
3921,-1026,289,0
3924,-1023,291,0
3921,-1020,294,0
3917,-1020,299,0
3916,-1027,304,0
3917,-1036,306,0
3918,-1047,307,0
3918,-1059,307,0
3918,-1072,306,0
3920,-1086,301,0
3915,-1094,296,0
3915,-1100,295,0
3915,-1103,292,0
3916,-1102,298,0
3916,-1105,295,0
3915,-1103,297,0
3915,-1100,295,0
3915,-1097,295,0
3916,-1096,297,0
3914,-1092,301,0
3914,-1086,309,0
3912,-1078,317,0
3910,-1073,319,0
3905,-1068,321,0
3903,-1067,322,0
3904,-1066,322,0
3907,-1067,328,0
3912,-1075,336,0
3928,-1080,344,0
3939,-1084,351,0
3952,-1093,356,0
3965,-1099,358,0
3973,-1111,356,0
3979,-1123,360,0
3982,-1137,361,0
3983,-1142,361,0
3979,-1140,364,0
3974,-1143,365,0
3961,-1141,366,0
3941,-1142,373,0
3926,-1138,387,0
3908,-1136,398,0
3893,-1134,407,0
3873,-1130,404,0
3861,-1127,396,0
3855,-1131,390,0
3860,-1134,380,0
3865,-1135,374,0
3883,-1132,378,0
3899,-1131,385,0
3915,-1126,404,0
3937,-1122,417,0
3953,-1115,421,0
3957,-1112,410,0
3962,-1106,395,0
3960,-1105,376,0
3957,-1103,366,0
3948,-1098,362,0
3936,-1088,353,0
3925,-1085,341,0
3918,-1087,325,0
3917,-1095,322,0
3917,-1105,339,0
3924,-1104,358,0
3933,-1101,385,0
3938,-1099,406,0
3930,-1103,411,0
3925,-1101,412,0
3915,-1102,420,0
3905,-1106,433,0
3891,-1102,438,0
3873,-1098,429,0
3849,-1087,408,0
3828,-1074,383,0
3807,-1057,365,0
3785,-1039,346,0
3772,-1021,334,0
3770,-1003,328,0
3775,-999,331,0
3785,-995,346,0
3802,-992,366,0
3816,-983,377,0
3828,-977,374,0
3838,-975,375,0
3847,-974,380,0
3861,-971,378,0
3872,-971,367,0
3878,-967,353,0
3879,-967,339,0
3880,-972,329,0
3886,-979,324,0
3888,-989,332,0
3896,-993,338,0
3909,-995,344,0
3933,-994,352,0
3961,-989,365,0
3985,-978,376,0
4010,-972,383,0
4027,-965,386,0
4038,-959,381,0
4038,-956,373,0
4026,-955,363,0
4005,-943,355,0
3984,-927,370,0
3961,-901,380,0
3941,-889,394,0
3923,-879,393,0
3905,-872,374,0
3885,-868,344,0
3875,-867,321,0
3892,-878,329,0
3932,-890,355,0
3980,-904,373,0
4037,-919,371,0
4093,-935,353,0
4147,-947,318,0
4195,-955,274,0
4250,-963,253,0
4304,-969,263,0
4361,-971,297,0
4411,-968,335,0
4415,-951,318,0
4374,-936,268,0
4321,-932,227,0
4267,-919,212,0
4208,-904,202,0
4158,-886,195,0
4131,-875,193,0
4116,-870,198,0
4109,-864,194,0
4116,-868,202,0
4145,-869,223,0
4179,-855,246,0
4205,-834,249,0
4223,-816,242,0
4231,-806,226,0
4223,-800,210,0
4206,-795,200,0
4176,-799,212,0
4139,-794,236,0
4092,-794,256,0
4034,-810,280,0
3977,-842,298,0
3929,-890,301,0
3891,-952,296,0
3868,-1010,292,0
3853,-1059,296,0
3852,-1103,310,0
3852,-1144,311,0
3849,-1182,302,0
3854,-1207,282,0
3854,-1222,263,0
3851,-1224,245,0
3836,-1217,235,0
3807,-1205,229,0
3779,-1192,232,0
3737,-1175,235,0
3692,-1159,236,0
3646,-1139,227,0
3602,-1114,216,0
3569,-1087,206,0
3549,-1056,197,0
3539,-1022,185,0
3531,-984,171,0
3522,-944,155,0
3513,-899,144,0
3500,-847,138,0
3478,-796,146,0
3451,-739,157,0
3414,-680,166,0
3365,-628,162,0
3311,-578,165,0
3261,-538,210,0
3229,-508,304,0
3214,-487,411,0
3214,-478,508,0
3236,-497,563,0
3285,-551,572,0
3373,-629,531,0
3504,-743,445,0
3678,-880,345,0
3889,-1018,258,0
4128,-1165,211,0
4386,-1307,190,0
4616,-1426,157,0
4788,-1498,120,0
4912,-1524,93,0
4983,-1524,84,0
5006,-1497,76,0
4983,-1446,57,0
4929,-1382,34,0
4852,-1297,19,0
4762,-1195,27,0
4673,-1073,51,0
4571,-949,94,0
4470,-845,153,0
4380,-754,204,0
4316,-694,218,0
4265,-654,217,0
4239,-611,210,0
4231,-575,199,0
4241,-556,191,0
4258,-555,199,0
4281,-579,204,0
4297,-631,163,0
4289,-690,92,0
4281,-762,39,0
4273,-830,13,0
4268,-888,10,0
4253,-922,18,0
4224,-937,22,0
4180,-934,30,0
4131,-927,51,0
4080,-919,96,0
4018,-918,137,0
3951,-938,164,0
3893,-977,184,0
3844,-1027,202,0
3806,-1077,200,0
3780,-1127,191,0
3773,-1172,175,0
3780,-1212,163,0
3799,-1251,149,0
3813,-1288,122,0
3813,-1318,76,0
3792,-1337,29,0
3760,-1354,-12,0
3722,-1364,-28,0
3682,-1369,-35,0
3647,-1366,-26,0
3621,-1358,-14,0
3600,-1347,-5,0
3583,-1329,0,0
3570,-1321,8,0
3565,-1309,28,0
3571,-1305,37,0
3568,-1296,32,0
3549,-1272,15,0
3533,-1244,-2,0
3527,-1220,-3,0
3533,-1202,-5,0
3554,-1200,-1,0
3581,-1198,2,0
3608,-1191,6,0
3639,-1178,5,0
3665,-1164,0,0
3694,-1141,0,0
3727,-1110,4,0
3761,-1087,8,0
3780,-1067,16,0
3791,-1052,36,0
3797,-1037,55,0
3791,-1025,80,0
3776,-1018,97,0
3753,-1022,106,0
3730,-1031,111,0
3705,-1054,118,0
3683,-1084,127,0
3668,-1120,138,0
3663,-1153,131,0
3658,-1192,101,0
3658,-1226,64,0
3668,-1256,35,0
3687,-1277,18,0
3717,-1294,11,0
3757,-1308,9,0
3805,-1317,7,0
3850,-1320,-3,0
3891,-1324,-19,0
3922,-1321,-35,0
3949,-1310,-43,0
3968,-1293,-52,0
3975,-1270,-52,0
3970,-1247,-44,0
3947,-1219,-33,0
3903,-1192,-21,0
3846,-1170,-11,0
3783,-1152,0,0
3720,-1142,24,0
3677,-1139,61,0
3652,-1145,89,0
3648,-1161,109,0
3674,-1194,122,0
3728,-1250,107,0
3800,-1313,81,0
3881,-1371,49,0
3970,-1433,6,0
4045,-1480,-45,0
4115,-1512,-90,0
4177,-1533,-113,0
4220,-1535,-117,0
4238,-1518,-111,0
4234,-1484,-111,0
4200,-1445,-122,0
4150,-1402,-137,0
4094,-1368,-145,0
4030,-1341,-143,0
3959,-1317,-139,0
3893,-1297,-135,0
3830,-1275,-139,0
3774,-1250,-150,0
3741,-1222,-160,0
3730,-1200,-170,0
3743,-1176,-180,0
3774,-1158,-184,0
3822,-1148,-177,0
3889,-1149,-174,0
3985,-1166,-183,0
4051,-1186,-175,0
4108,-1206,-154,0
4159,-1236,-125,0
4196,-1285,-107,0
4216,-1340,-113,0
4221,-1400,-127,0
4199,-1437,-138,0
4159,-1454,-138,0
4106,-1457,-119,0
4032,-1442,-91,0
3952,-1418,-63,0
3872,-1388,-57,0
3786,-1354,-68,0
3701,-1311,-96,0
3629,-1268,-118,0
3582,-1228,-117,0
3570,-1196,-99,0
3582,-1172,-83,0
3608,-1163,-63,0
3658,-1165,-36,0
3725,-1179,-7,0
3803,-1195,29,0
3896,-1218,74,0
3980,-1255,96,0
4046,-1302,106,0
4097,-1354,81,0
4119,-1406,40,0
4117,-1446,-6,0
4101,-1473,-41,0
4063,-1482,-52,0
4011,-1486,-45,0
3945,-1473,-20,0
3862,-1455,14,0
3765,-1428,63,0
3666,-1398,106,0
3568,-1372,136,0
3477,-1352,160,0
3399,-1337,180,0
3332,-1328,187,0
3285,-1323,184,0
3260,-1316,168,0
3248,-1317,135,0
3250,-1313,90,0
3277,-1300,64,0
3336,-1279,80,0
3424,-1241,130,0
3528,-1175,189,0
3629,-1082,223,0
3717,-953,217,0
3785,-798,167,0
3828,-632,92,0
3849,-464,28,0
3842,-305,-5,0
3820,-152,3,0
3796,-4,63,0
3775,139,160,0
3750,265,286,0
3719,393,426,0
3669,507,538,0
3601,603,640,0
3533,694,750,0
3462,776,882,0
3400,851,1012,0
3342,915,1121,0
3283,958,1188,0
3254,961,1226,0
3275,913,1244,0
3362,802,1229,0
3521,625,1198,0
3747,378,1196,0
4022,67,1228,0
4354,-341,1296,0
4730,-830,1364,0
5132,-1358,1396,0
5529,-1887,1352,0
5905,-2429,1235,0
6228,-2956,1079,0
6466,-3467,890,0
6612,-3925,681,0
6684,-4286,476,0
6737,-4524,299,0
6796,-4673,147,0
6844,-4735,32,0
6845,-4642,-25,0
6822,-4439,-27,0
6770,-4158,24,0
6683,-3815,131,0
6570,-3447,292,0
6458,-3106,505,0
6327,-2795,749,0
6134,-2499,962,0
5853,-2216,1101,0
5500,-1958,1162,0
5107,-1727,1152,0
4685,-1493,1086,0
4276,-1262,987,0
3882,-1044,875,0
3518,-820,767,0
3211,-609,694,0
2973,-412,703,0
2800,-248,774,0
2675,-124,878,0
2595,-35,975,0
2531,6,1031,0
2472,-2,1025,0
2415,-73,972,0
2361,-195,917,0
2312,-331,869,0
2266,-467,836,0
2233,-594,842,0
2231,-720,926,0
2267,-857,1106,0
2336,-987,1333,0
2420,-1111,1558,0
2520,-1238,1745,0
2601,-1380,1870,0
2652,-1530,1903,0
2632,-1676,1813,0
2520,-1786,1597,0
2326,-1851,1296,0
2072,-1875,961,0
1793,-1856,692,0
1501,-1805,493,0
1208,-1749,366,0
930,-1688,306,0
668,-1626,300,0
427,-1546,343,0
244,-1486,489,0
140,-1468,775,0
71,-1420,1055,0
22,-1325,1272,0
-11,-1204,1406,0
-11,-1093,1452,0
20,-1011,1429,0
78,-939,1266,0
168,-859,1016,0
309,-777,757,0
534,-709,626,0
837,-643,616,0
1203,-528,681,0
1651,-353,756,0
2101,-81,493,0
2427,337,-451,0
2684,880,-1895,0
3241,1458,-2964,0
4397,1886,-3016,0
6113,1923,-1905,0
7996,1508,-51,0
9394,875,1398,0
9900,269,1634,0
9768,-508,985,0
9299,-1253,-65,0
8703,-1955,-1074,0
8095,-2607,-1687,0
7493,-3173,-1899,0
6897,-3496,-1823,0
6415,-3572,-1517,0
6123,-3447,-1046,0
5974,-3229,-505,0
5851,-2977,-16,0
5686,-2708,333,0
5439,-2442,461,0
5084,-2157,403,0
4662,-1852,238,0
4330,-1569,125,0
4197,-1288,190,0
4303,-1004,392,0
4615,-690,644,0
5039,-402,821,0
5504,-215,830,0
5940,-155,654,0
6340,-221,378,0
6705,-374,132,0
7016,-576,-31,0
7225,-765,-118,0
7305,-955,-205,0
7223,-1135,-291,0
7008,-1286,-368,0
6686,-1424,-405,0
6300,-1585,-439,0
5876,-1772,-496,0
5460,-1964,-549,0
5083,-2157,-580,0
4738,-2302,-576,0
4428,-2362,-533,0
4167,-2365,-481,0
3920,-2267,-408,0
3704,-2118,-329,0
3513,-1924,-228,0
3341,-1703,-125,0
3186,-1469,-31,0
3037,-1232,73,0
2897,-1017,180,0
2760,-850,272,0
2607,-722,334,0
2440,-643,355,0
2257,-613,348,0
2064,-610,309,0
1885,-643,245,0
1728,-707,237,0
1591,-795,288,0
1484,-884,362,0
1429,-984,418,0
1403,-1050,423,0
1401,-1074,363,0
1430,-1051,257,0
1445,-949,133,0
1450,-807,37,0
1460,-665,10,0
1507,-557,100,0
1564,-451,262,0
1616,-353,444,0
1700,-303,577,0
1787,-292,604,0
1843,-273,533,0
1853,-262,408,0
1836,-257,287,0
1817,-273,218,0
1776,-276,228,0
1706,-265,315,0
1577,-257,433,0
1405,-271,510,0
1194,-337,496,0
934,-424,350,0
654,-493,65,0
392,-514,-346,0
201,-493,-822,0
144,-387,-1278,0
305,-193,-1595,0
687,43,-1632,0
1270,310,-1347,0
2024,602,-847,0
2852,950,-241,0
3694,1306,367,0
4476,1637,789,0
5113,1898,873,0
5573,1991,692,0
5966,1879,491,0
6461,1669,438,0
7163,1518,413,0
8159,1425,355,0
9499,1247,314,0
11005,927,497,0
12404,271,1103,0
13295,-663,1763,0
13581,-1639,1933,0
13444,-2415,1383,0
12986,-2778,309,0
12453,-2803,-811,0
11885,-2603,-1646,0
11303,-2218,-1952,0
10736,-1872,-1714,0
10266,-1775,-1135,0
9888,-1924,-447,0
9562,-2270,150,0
9216,-2771,539,0
8821,-3354,697,0
8397,-3948,665,0
7940,-4492,503,0
7457,-4956,291,0
6944,-5331,72,0
6450,-5589,-81,0
5995,-5699,-152,0
5609,-5632,-147,0
5297,-5362,-30,0
5015,-4890,191,0
4723,-4318,448,0
4389,-3665,665,0
3979,-3012,793,0
3527,-2420,793,0
3065,-1914,668,0
2617,-1503,486,0
2207,-1176,296,0
1827,-891,143,0
1476,-700,-1,0
1136,-549,-92,0
821,-445,-125,0
539,-404,-75,0
288,-405,52,0
65,-414,231,0
-154,-404,397,0
-359,-369,526,0
-554,-317,587,0
-737,-256,576,0
-919,-184,522,0
-1084,-107,441,0
-1222,-38,363,0
-1329,48,307,0
-1396,150,286,0
-1426,264,307,0
-1428,401,347,0
-1409,596,371,0
-1393,848,341,0
-1369,1160,257,0
-1342,1487,159,0
-1328,1832,70,0
-1312,2174,-12,0
-1296,2511,-84,0
-1274,2823,-143,0
-1212,3052,-165,0
-1058,3192,-139,0
-755,3228,-38,0
-273,3132,179,0
345,2906,505,0
1069,2564,916,0
1787,2185,1290,0
2401,1784,1496,0
2866,1361,1485,0
3153,907,1270,0
3264,434,913,0
3224,-60,453,0
3067,-506,-142,0
2811,-827,-1013,0
2679,-1060,-1808,0
2807,-1199,-2253,0
3184,-1145,-2394,0
3865,-835,-2040,0
4936,-418,-854,0
6153,-33,880,0
7018,357,2099,0
7327,577,2233,0
7221,352,1659,0
6806,-366,686,0
6269,-1451,-297,0
5787,-2917,-840,0
5577,-4690,-798,0
5807,-6581,-408,0
6411,-7993,-6,0
7129,-8442,215,0
7735,-8124,156,0
8115,-7464,-334,0
8274,-6853,-1095,0
8374,-6444,-1655,0
8465,-6145,-1834,0
8591,-5803,-1645,0
8716,-5325,-1218,0
8774,-4709,-708,0
8710,-4050,-335,0
8501,-3428,-236,0
8178,-2884,-362,0
7812,-2458,-586,0
7448,-2151,-791,0
7117,-1930,-879,0
6842,-1785,-806,0
6589,-1677,-639,0
6318,-1560,-492,0
6019,-1423,-419,0
5682,-1263,-473,0
5340,-1057,-565,0
5031,-776,-575,0
4760,-511,-494,0
4545,-277,-325,0
4408,-99,-101,0
4316,44,132,0
4259,139,313,0
4232,176,428,0
4156,232,471,0
4055,316,494,0
3958,443,451,0
3787,536,438,0
3542,727,484,0
3378,806,765,0
3270,820,1045,0
3159,804,1270,0
2985,753,1244,0
2761,595,1028,0
2479,411,703,0
2113,150,355,0
1694,-92,-19,0
1229,-307,-383,0
723,-429,-728,0
207,-460,-1016,0
-326,-390,-1235,0
-675,-353,-1304,0
-875,-360,-1330,0
-1051,-332,-1313,0
-1155,-301,-1194,0
-1113,-263,-935,0
-987,-151,-617,0
-892,87,-331,0
-824,392,-89,0
-755,697,120,0
-670,970,250,0
-566,1128,299,0
-442,1190,286,0
-329,1135,198,0
-204,964,123,0
-62,713,99,0
88,408,127,0
209,97,146,0
270,-175,81,0
255,-376,-148,0
242,-483,-565,0
395,-456,-1079,0
828,-263,-1451,0
1510,100,-1532,0
2378,571,-1350,0
3366,993,-933,0
4444,1286,-363,0
5576,1445,189,0
6755,1496,457,0
8110,1536,470,0
9727,1692,322,0
11241,2234,-372,0
12530,2779,-1157,0
13819,2531,-1070,0
14991,957,157,0
15378,-725,917,0
15122,-1900,578,0
14538,-2490,-403,0
13852,-2661,-1461,0
13262,-2756,-2199,0
12764,-2825,-2457,0
12298,-2806,-2303,0
11770,-2700,-1805,0
11125,-2685,-1161,0
10439,-2870,-542,0
9755,-3245,-86,0
9081,-3744,164,0
8444,-4295,206,0
7830,-4790,103,0
7253,-5129,-90,0
6722,-5269,-295,0
6262,-5229,-454,0
5864,-5052,-527,0
5522,-4757,-485,0
5237,-4379,-322,0
4990,-3934,-105,0
4750,-3461,100,0
4487,-3007,275,0
4183,-2603,340,0
3799,-2208,251,0
3341,-1810,50,0
2839,-1466,-158,0
2298,-1143,-241,0
1743,-907,-261,0
1197,-746,-261,0
645,-552,-237,0
113,-405,-203,0
-378,-282,-74,0
-831,-165,91,0
-1232,-76,215,0
-1579,-2,257,0
-1889,73,217,0
-2158,158,127,0
-2394,267,16,0
-2603,401,-100,0
-2777,550,-189,0
-2912,723,-239,0
-3005,930,-258,0
-3066,1164,-227,0
-3089,1437,-155,0
-3080,1764,-67,0
-3008,2096,54,0
-2837,2400,168,0
-2590,2743,286,0
-2280,3053,378,0
-1932,3299,412,0
-1529,3453,366,0
-1041,3548,296,0
-446,3578,265,0
274,3458,383,0
1082,3151,665,0
1892,2753,983,0
2629,2318,1167,0
3247,1816,1118,0
3701,1246,850,0
3985,592,459,0
4078,-97,24,0
3955,-799,-453,0
3584,-1443,-969,0
3058,-2004,-1397,0
2517,-2394,-1618,0
2089,-2523,-1658,0
1726,-2307,-1872,0
1631,-1913,-2084,0
1832,-1456,-2255,0
2380,-931,-2170,0
3404,-272,-1437,0
4698,642,-50,0
6091,1435,1725,0
7497,1891,3663,0
8707,1895,5319,0
9131,1435,5451,0
8911,298,4483,0
8394,-1464,3217,0
7851,-3548,1823,0
7657,-5830,731,0
7817,-8122,-453,0
8100,-9736,-1852,0
8423,-10512,-3141,0
8836,-10462,-3963,0
9402,-9786,-4009,0
9955,-8814,-3458,0
10328,-7672,-2697,0
10443,-6556,-2033,0
10379,-5561,-1430,0
10250,-4735,-858,0
10062,-3997,-355,0
9777,-3358,-48,0
9362,-2827,-3,0
8830,-2355,-178,0
8264,-1987,-416,0
7683,-1722,-560,0
7121,-1581,-567,0
6573,-1494,-365,0
6012,-1415,-79,0
5432,-1348,142,0
4877,-1174,358,0
4345,-907,473,0
3859,-614,455,0
3418,-373,358,0
3015,-194,246,0
2649,-87,144,0
2327,-18,30,0
2051,60,-53,0
1881,140,-59,0
1752,226,-41,0
1688,310,-7,0
1727,378,77,0
1736,457,62,0
1747,537,47,0
1771,600,84,0
1808,582,139,0
1806,526,253,0
1759,421,339,0
1640,347,398,0
1498,208,342,0
1218,114,140,0
913,20,-216,0
586,-44,-706,0
266,-57,-1247,0
-61,-13,-1695,0
-365,83,-1992,0
-605,222,-2128,0
-765,411,-2141,0
-825,591,-2035,0
-753,821,-1734,0
-621,1136,-1327,0
-509,1514,-870,0
-422,1954,-404,0
-299,2391,35,0
-147,2743,359,0
21,2941,523,0
183,2950,583,0
315,2735,554,0
400,2382,462,0
420,1961,319,0
403,1527,161,0
382,1096,10,0
323,704,-190,0
285,353,-337,0
289,65,-454,0
347,-135,-552,0
431,-210,-711,0
484,-145,-1084,0
568,35,-1555,0
840,303,-1881,0
1406,668,-1804,0
2325,1134,-1240,0
3516,1604,-345,0
4884,1927,633,0
6295,2076,1378,0
7656,2195,1574,0
9196,2489,1394,0
11009,2980,881,0
12890,3507,-291,0
14769,3375,-1000,0
16241,2223,-412,0
16957,-33,894,0
16725,-2013,1082,0
15772,-3294,266,0
14611,-4056,-818,0
13501,-4435,-1760,0
12431,-4368,-2351,0
11402,-3965,-2537,0
10572,-3619,-2283,0
9903,-3536,-1731,0
9300,-3773,-1084,0
8765,-4285,-453,0
8263,-5042,32,0
7744,-5866,312,0
7171,-6597,352,0
6539,-7170,146,0
5893,-7555,-227,0
5290,-7731,-627,0
4798,-7612,-973,0
4459,-7132,-1145,0
4274,-6428,-1076,0
4150,-5607,-819,0
4036,-4778,-475,0
3903,-3932,-90,0
3728,-3122,298,0
3497,-2403,653,0
3150,-1729,928,0
2664,-1059,1170,0
2155,-530,1366,0
1610,-113,1485,0
1067,144,1508,0
562,258,1401,0
135,264,1200,0
-203,186,969,0
-489,62,731,0
-728,-105,535,0
-924,-282,399,0
-1085,-428,329,0
-1236,-510,315,0
-1369,-521,289,0
-1487,-456,310,0
-1607,-323,376,0
-1731,-163,466,0
-1867,17,571,0
-1994,213,696,0
-2125,436,801,0
-2256,659,818,0
-2381,868,721,0
-2485,1054,506,0
-2571,1243,228,0
-2606,1403,-58,0
-2540,1539,-256,0
-2292,1637,-269,0
-1765,1684,-40,0
-961,1668,421,0
-16,1628,956,0
914,1575,1381,0
1729,1482,1662,0
2406,1309,1871,0
2904,1041,2043,0
3168,698,2143,0
3167,329,2137,0
2898,24,1937,0
2344,-121,1365,0
1625,-107,255,0
998,-5,-1281,0
826,36,-2461,0
1245,-18,-3007,0
2503,-82,-2197,0
4322,368,-384,0
6236,1629,1429,0
7842,3111,2486,0
8472,3984,1820,0
8347,4149,-22,0
8684,3125,-166,0
9977,1042,2930,0
11208,-1545,6077,0
11247,-3916,5794,0
9912,-5853,2213,0
8125,-7743,-2273,0
6815,-9445,-5266,0
6421,-11156,-6160,0
6768,-12354,-5400,0
7320,-12400,-4073,0
7680,-11469,-3032,0
7792,-9985,-2466,0
7775,-8429,-2154,0
7763,-7071,-1781,0
7738,-5934,-1411,0
7675,-4903,-1071,0
7604,-3900,-755,0
7523,-2933,-573,0
7383,-2045,-632,0
7149,-1315,-890,0
6858,-765,-1148,0
6565,-349,-1166,0
6279,22,-961,0
6000,349,-651,0
5713,597,-343,0
5404,816,-150,0
5096,991,-113,0
4815,1089,-206,0
4519,1172,-280,0
4255,1201,-237,0
4005,1190,-101,0
3777,1139,85,0
3569,1098,313,0
3369,1070,532,0
3163,1058,688,0
3031,995,811,0
2979,897,948,0
2953,773,1099,0
2842,628,1199,0
2665,419,1235,0
2431,181,1128,0
2101,-55,866,0
1747,-306,558,0
1476,-595,216,0
1200,-816,-194,0
912,-931,-645,0
616,-945,-1039,0
335,-885,-1340,0
109,-763,-1513,0
-75,-593,-1579,0
-218,-368,-1525,0
-309,-110,-1343,0
-365,184,-1012,0
-403,474,-628,0
-475,785,-308,0
-608,1108,-149,0
-769,1430,-122,0
-890,1692,-164,0
-938,1854,-141,0
-909,1894,17,0
-811,1785,292,0
-670,1553,604,0
-532,1265,828,0
-448,956,849,0
-398,646,695,0
-372,365,414,0
-341,138,16,0
-272,-2,-498,0
-116,-6,-1088,0
168,135,-1637,0
611,379,-1996,0
1261,699,-2004,0
2168,1050,-1549,0
3336,1362,-612,0
4667,1584,502,0
6022,1634,1341,0
7420,1492,1739,0
9137,1356,1668,0
11201,1597,587,0
13444,2249,-1142,0
15625,2529,-1816,0
17127,1577,-381,0
17726,-380,1732,0
17069,-1790,1873,0
15711,-2492,689,0
14115,-2684,-721,0
12681,-2662,-1841,0
11600,-2633,-2517,0
10817,-2574,-2684,0
10149,-2455,-2403,0
9597,-2415,-1811,0
9101,-2548,-1106,0
8577,-2890,-508,0
7998,-3469,-113,0
7414,-4264,70,0
6857,-5121,32,0
6349,-5908,-152,0
5897,-6564,-385,0
5499,-7040,-604,0
5181,-7290,-754,0
4961,-7260,-825,0
4823,-6965,-816,0
4730,-6449,-739,0
4629,-5765,-585,0
4492,-5029,-411,0
4287,-4283,-239,0
4006,-3528,-71,0
3607,-2759,148,0
3093,-1928,468,0
2552,-1105,786,0
2018,-495,999,0
1485,-23,1133,0
952,312,1187,0
451,499,1130,0
-18,569,961,0
-446,526,735,0
-806,393,511,0
-1101,204,338,0
-1347,5,270,0
-1560,-179,284,0
-1753,-329,339,0
-1925,-433,403,0
-2075,-455,482,0
-2217,-388,560,0
-2364,-237,593,0
-2507,-8,568,0
-2633,238,537,0
-2729,449,517,0
-2810,637,515,0
-2876,810,508,0
-2923,975,438,0
-2956,1144,261,0
-2980,1338,-18,0
-2920,1556,-324,0
-2683,1794,-580,0
-2173,1991,-684,0
-1350,2040,-445,0
-272,1880,280,0
937,1601,1353,0
2029,1360,2325,0
2766,1245,2697,0
3089,1230,2371,0
3183,1144,1753,0
3241,924,1201,0
3390,612,828,0
3390,406,-120,0
3105,496,-2051,0
3058,679,-3780,0
3805,815,-4174,0
5359,1275,-2993,0
7631,2028,-342,0
10197,2627,3375,0
12279,2928,6673,0
13026,2817,7605,0
12228,2168,5546,0
10592,1085,2064,0
8925,-957,-712,0
7473,-3876,-2167,0
6441,-7258,-2673,0
5769,-10296,-3107,0
5195,-12169,-4116,0
4664,-12795,-5455,0
4362,-12556,-6400,0
4464,-11867,-6486,0
5032,-10939,-5695,0
5963,-9846,-4396,0
6933,-8515,-3099,0
7693,-6926,-2147,0
8160,-5193,-1633,0
8351,-3418,-1526,0
8313,-1789,-1700,0
8137,-316,-1856,0
7951,862,-1852,0
7835,1851,-1522,0
7773,2546,-976,0
7684,2977,-407,0
7490,3170,9,0
7214,3197,233,0
6864,3101,283,0
6450,2943,213,0
6033,2762,193,0
5651,2544,240,0
5277,2322,320,0
4815,2129,352,0
4305,1915,411,0
3715,1708,548,0
3092,1495,734,0
2473,1219,950,0
1862,891,1140,0
1391,475,1222,0
1072,36,1159,0
992,-463,979,0
1180,-914,815,0
1414,-1197,621,0
1562,-1260,422,0
1730,-1325,259,0
1854,-1350,168,0
1894,-1355,19,0
1822,-1392,-243,0
1593,-1390,-629,0
1219,-1311,-1060,0
830,-1209,-1462,0
539,-1111,-1756,0
322,-980,-1940,0
101,-757,-2044,0
-59,-513,-1994,0
-163,-241,-1802,0
-228,15,-1487,0
-285,281,-1149,0
-352,583,-851,0
-432,935,-638,0
-514,1345,-486,0
-565,1780,-325,0
-561,2186,-55,0
-478,2483,406,0
-332,2643,978,0
-172,2690,1435,0
-51,2544,1612,0
19,2229,1482,0
49,1820,1152,0
66,1374,725,0
97,951,317,0
140,610,-74,0
210,402,-462,0
323,369,-924,0
524,502,-1444,0
900,711,-1801,0
1499,1000,-1771,0
2358,1358,-1257,0
3554,1758,-147,0
4927,2128,932,0
6238,2337,1335,0
7523,2349,1194,0
9292,2227,834,0
11798,2444,19,0
14408,2843,-1408,0
16463,2429,-1286,0
17428,786,707,0
17298,-1119,2330,0
16613,-2967,2663,0
15370,-4163,1563,0
13965,-4816,63,0
12594,-4984,-1356,0
11340,-4831,-2523,0
10240,-4434,-3232,0
9412,-3859,-3234,0
8909,-3363,-2509,0
8669,-3153,-1327,0
8516,-3276,-109,0
8310,-3716,788,0
7946,-4404,1154,0
7450,-5178,1121,0
6845,-5858,799,0
6199,-6332,321,0
5562,-6547,-190,0
4995,-6545,-613,0
4545,-6320,-845,0
4231,-5915,-843,0
4007,-5358,-659,0
3821,-4716,-369,0
3641,-4027,11,0
3330,-3211,456,0
2910,-2348,873,0
2455,-1549,1201,0
1985,-895,1450,0
1517,-391,1604,0
1081,-32,1650,0
740,147,1654,0
516,178,1645,0
387,77,1571,0
303,-114,1382,0
231,-340,1124,0
154,-564,864,0
45,-775,650,0
-106,-950,475,0
-300,-1065,315,0
-535,-1126,137,0
-800,-1124,-41,0
-1073,-1064,-179,0
-1354,-938,-277,0
-1595,-782,-348,0
-1830,-583,-395,0
-2088,-312,-410,0
-2348,-22,-371,0
-2589,231,-278,0
-2799,497,-148,0
-2963,789,-12,0
-3064,1074,116,0
-3066,1364,239,0
-2961,1671,346,0
-2704,1968,469,0
-2148,2171,604,0
-1245,2196,836,0
-130,2073,1241,0
1006,1893,1685,0
2011,1730,2030,0
2825,1605,2296,0
3427,1514,2475,0
3882,1476,2595,0
4068,1544,2158,0
3720,1832,300,0
3250,2154,-1961,0
3145,2307,-3577,0
3799,2246,-3701,0
5229,2444,-2267,0
7113,2833,421,0
8844,2943,3195,0
10076,2709,5191,0
10443,2070,5893,0
9554,1099,4204,0
8069,-199,1251,0
6612,-2286,-1257,0
5613,-5345,-2663,0
5280,-9077,-3390,0
5381,-12305,-3960,0
5538,-14267,-4998,0
5604,-14385,-6130,0
5792,-13316,-6848,0
6224,-11680,-6797,0
6919,-9813,-6007,0
7768,-7865,-4748,0
8627,-5877,-3262,0
9365,-3774,-1723,0
9824,-1710,-596,0
9901,182,-163,0
9768,1706,-126,0
9542,2824,-244,0
9272,3486,-328,0
8933,3724,-304,0
8521,3568,-203,0
8070,3217,-37,0
7634,2778,206,0
7203,2355,434,0
6746,1944,541,0
6242,1558,510,0
5654,1287,451,0
5011,1041,391,0
4336,819,383,0
3625,588,442,0
2916,361,588,0
2246,94,743,0
1612,-158,876,0
1246,-549,925,0
1109,-932,859,0
1170,-1272,683,0
1207,-1353,476,0
1302,-1310,296,0
1377,-1161,136,0
1517,-1011,74,0
1646,-890,103,0
1657,-793,154,0
1714,-865,226,0
1657,-958,252,0
1688,-1118,281,0
1620,-1260,134,0
1469,-1365,-150,0
1219,-1378,-543,0
905,-1294,-966,0
672,-1194,-1385,0
481,-1006,-1785,0
297,-778,-2086,0
135,-520,-2219,0
18,-271,-2128,0
-60,-19,-1894,0
-89,320,-1586,0
-86,743,-1301,0
-75,1162,-1079,0
-42,1521,-906,0
35,1802,-728,0
160,2038,-504,0
308,2209,-238,0
451,2323,83,0
563,2352,427,0
603,2302,687,0
548,2174,777,0
468,1974,773,0
336,1760,498,0
215,1587,-104,0
172,1553,-957,0
258,1663,-1735,0
631,1855,-2052,0
1367,2185,-1698,0
2460,2605,-775,0
3729,3043,347,0
5012,3372,1221,0
6184,3556,1521,0
7344,3630,1195,0
8909,3698,494,0
10826,4071,-740,0
12875,4723,-2167,0
14710,4878,-2109,0
15558,3847,19,0
15399,2300,1763,0
14626,701,1863,0
13630,-801,703,0
12644,-2054,-762,0
11766,-2966,-1938,0
11067,-3604,-2681,0
10491,-4026,-2988,0
10022,-4340,-2847,0
9652,-4691,-2377,0
9351,-5166,-1695,0
9049,-5807,-963,0
8679,-6594,-407,0
8266,-7418,-58,0
7781,-8183,-16,0
7267,-8831,-226,0
6760,-9272,-645,0
6254,-9372,-1171,0
5795,-9113,-1674,0
5422,-8508,-1991,0
5122,-7673,-2084,0
4838,-6687,-1993,0
4611,-5702,-1692,0
4412,-4792,-1282,0
4221,-3909,-786,0
4009,-3099,-323,0
3772,-2377,90,0
3452,-1777,423,0
2857,-1030,826,0
2205,-462,1081,0
1455,48,1180,0
683,394,1211,0
-81,670,1210,0
-723,857,1158,0
-1190,879,1035,0
-1507,777,879,0
-1716,616,714,0
-1846,435,574,0
-1913,269,463,0
-1938,158,331,0
-1944,129,176,0
-1949,180,10,0
-1945,302,-130,0
-1943,440,-174,0
-1949,592,-108,0
-1981,776,24,0
-2051,998,203,0
-2153,1222,388,0
-2266,1447,562,0
-2361,1685,713,0
-2412,1906,806,0
-2409,2133,781,0
-2348,2360,575,0
-2190,2563,231,0
-1832,2681,-89,0
-1214,2667,-247,0
-350,2517,-181,0
668,2306,104,0
1698,2126,528,0
2622,1995,922,0
3311,1887,1074,0
3735,1718,1078,0
3949,1474,1055,0
4048,1253,1084,0
3929,1200,749,0
3287,1454,-786,0
2763,1712,-2245,0
3050,1639,-2432,0
4098,1841,-1402,0
5650,2623,332,0
7305,3618,2040,0
8756,4089,3709,0
9851,3649,5134,0
10217,2552,5053,0
9836,881,3052,0
9320,-1957,967,0
8939,-5559,-489,0
8715,-9774,-2159,0
8635,-13407,-3778,0
8447,-15624,-5426,0
8111,-16079,-6644,0
7742,-15250,-7296,0
7766,-13729,-7218,0
8033,-11797,-6474,0
8439,-9668,-5319,0
8870,-7456,-3978,0
9226,-5320,-2656,0
9457,-3265,-1467,0
9497,-1481,-697,0
9296,-6,-370,0
8890,1147,-368,0
8383,1985,-474,0
7821,2486,-610,0
7248,2720,-682,0
6697,2770,-694,0
6181,2700,-632,0
5687,2549,-533,0
5183,2374,-446,0
4646,2235,-331,0
4082,2144,-121,0
3485,2125,221,0
2769,2245,670,0
1968,2339,1070,0
1178,2356,1339,0
559,2158,1368,0
240,1633,1147,0
151,960,823,0
265,320,505,0
423,-136,205,0
680,-408,-22,0
1086,-559,-113,0
1320,-453,-155,0
1591,-426,-109,0
1832,-340,-7,0
1961,-214,79,0
2068,-159,84,0
2017,-107,-58,0
1862,-116,-272,0
1598,-165,-612,0
1285,-226,-942,0
959,-268,-1312,0
578,-273,-1629,0
158,-236,-1880,0
-209,-145,-1961,0
-469,-45,-1958,0
-651,112,-1884,0
-717,335,-1723,0
-692,601,-1454,0
-611,910,-1072,0
-485,1231,-585,0
-335,1581,-29,0
-179,1961,564,0
-49,2320,1093,0
57,2605,1480,0
134,2817,1622,0
215,2812,1610,0
285,2562,1444,0
301,2124,1166,0
278,1575,875,0
230,981,590,0
137,416,266,0
84,-122,35,0
51,-589,-139,0
-25,-925,-414,0
-109,-1095,-851,0
-80,-1102,-1453,0
224,-969,-1953,0
929,-746,-1978,0
1964,-402,-1428,0
3195,-56,-489,0
4483,200,418,0
5700,411,764,0
7114,595,686,0
9219,900,413,0
11942,1796,-852,0
14785,2785,-2215,0
17623,2624,-1374,0
19139,1314,523,0
19080,94,1190,0
18068,-562,528,0
16714,-824,-692,0
15379,-1025,-1907,0
14226,-1397,-2808,0
13293,-1820,-3264,0
12496,-2097,-3300,0
11673,-2178,-2890,0
10879,-2342,-2144,0
10136,-2645,-1276,0
9400,-3071,-523,0
8667,-3631,3,0
7967,-4352,318,0
7321,-5165,409,0
6735,-5892,303,0
6211,-6420,91,0
5753,-6704,-122,0
5368,-6758,-247,0
5071,-6612,-265,0
4831,-6279,-207,0
4605,-5752,-115,0
4361,-5150,-116,0
4066,-4426,-204,0
3723,-3667,-401,0
3356,-2881,-612,0
2907,-2132,-787,0
2380,-1334,-696,0
1840,-668,-461,0
1329,-150,-148,0
803,270,133,0
291,580,295,0
-232,812,371,0
-724,915,370,0
-1159,929,320,0
-1498,844,236,0
-1750,700,133,0
-1923,538,44,0
-2051,413,-39,0
-2152,357,-124,0
-2235,378,-250,0
-2317,481,-385,0
-2404,640,-494,0
-2513,846,-568,0
-2616,1095,-610,0
-2691,1376,-625,0
-2722,1688,-582,0
-2711,2028,-464,0
-2642,2366,-314,0
-2514,2744,-184,0
-2327,3148,-84,0
-2042,3566,-17,0
-1651,3953,-32,0
-1088,4246,-30,0
-346,4402,78,0
588,4306,477,0
1671,3961,1211,0
2760,3484,2016,0
3654,2929,2522,0
4215,2311,2477,0
4393,1606,1939,0
4294,797,1182,0
4002,-78,423,0
3460,-899,-306,0
2805,-1630,-874,0
2131,-2040,-1626,0
1406,-1965,-2888,0
1190,-1946,-3575,0
1860,-2100,-2849,0
3359,-1598,-996,0
5356,-240,1549,0
7306,1400,4256,0
9026,2604,6888,0
10056,3047,8444,0
9619,2572,6794,0
8447,897,3320,0
7263,-1451,444,0
6696,-4579,-747,0
6878,-8254,-998,0
7337,-11437,-1481,0
7698,-13463,-2807,0
7800,-14031,-4555,0
7802,-13549,-5978,0
7965,-12520,-6309,0
8355,-11074,-5394,0
8861,-9399,-3752,0
9275,-7556,-1924,0
9479,-5690,-338,0
9418,-3979,637,0
9106,-2532,903,0
8603,-1510,622,0
8013,-832,202,0
7460,-400,-87,0
6970,-148,-242,0
6516,-78,-371,0
6062,-105,-465,0
5640,-100,-402,0
5297,81,27,0
4968,371,513,0
4648,680,825,0
4273,1016,1019,0
3767,1389,1149,0
3258,1655,1168,0
2845,1782,1111,0
2634,1724,1009,0
2526,1514,813,0
2477,1271,564,0
2557,960,274,0
2560,719,-99,0
2617,496,-365,0
2667,321,-558,0
2685,193,-633,0
2690,74,-584,0
2589,28,-340,0
2513,-93,50,0
2341,-204,394,0
2207,-406,619,0
1927,-558,617,0
1642,-761,435,0
1270,-882,170,0
861,-952,-231,0
434,-854,-696,0
-23,-664,-1207,0
-480,-448,-1710,0
-909,-183,-2117,0
-1259,102,-2390,0
-1493,433,-2558,0
-1588,820,-2598,0
-1496,1212,-2463,0
-1208,1654,-2068,0
-832,2134,-1449,0
-400,2582,-666,0
50,2986,178,0
455,3319,923,0
795,3531,1468,0
1076,3595,1784,0
1301,3486,1951,0
1418,3215,1908,0
1390,2795,1607,0
1206,2282,1154,0
922,1717,668,0
639,1147,243,0
416,619,-81,0
239,179,-317,0
70,-149,-565,0
-29,-346,-842,0
-40,-410,-1249,0
124,-379,-1659,0
590,-281,-1762,0
1335,-51,-1446,0
2288,261,-799,0
3307,484,0,0
4310,532,750,0
5332,474,1277,0
6606,462,1457,0
8460,664,1193,0
10998,1360,34,0
13892,2369,-1563,0
16674,2872,-1696,0
18478,2380,-95,0
19034,1329,1593,0
18755,283,2387,0
17594,-253,1419,0
16021,-593,-141,0
14385,-902,-1597,0
12961,-1228,-2629,0
11737,-1500,-3069,0
10698,-1821,-2866,0
9892,-2289,-2107,0
9262,-2863,-1073,0
8718,-3496,-103,0
8175,-4186,578,0
7597,-4923,883,0
7001,-5690,843,0
6428,-6430,509,0
5888,-7007,15,0
5398,-7348,-506,0
4964,-7442,-957,0
4577,-7273,-1304,0
4263,-6840,-1502,0
4016,-6193,-1496,0
3811,-5428,-1354,0
3620,-4582,-1102,0
3420,-3764,-823,0
3206,-2959,-486,0
2985,-2191,-118,0
2710,-1472,220,0
2318,-733,527,0
1877,-123,693,0
1413,306,720,0
891,583,657,0
353,734,574,0
-159,768,493,0
-621,697,443,0
-1035,577,396,0
-1386,458,342,0
-1684,381,260,0
-1943,338,129,0
-2152,335,-50,0
-2310,379,-245,0
-2418,457,-440,0
-2487,593,-579,0
-2549,752,-594,0
-2602,933,-447,0
-2632,1121,-176,0
-2645,1317,185,0
-2631,1562,518,0
-2586,1862,716,0
-2524,2169,726,0
-2449,2500,529,0
-2347,2806,221,0
-2147,3056,-86,0
-1771,3192,-303,0
-1208,3165,-347,0
-472,2920,-155,0
405,2533,299,0
1315,2107,869,0
2123,1707,1290,0
2713,1352,1345,0
3064,996,1018,0
3213,583,440,0
3267,123,-156,0
3547,-448,-306,0
3838,-889,-484,0
3865,-972,-1296,0
3937,-851,-2306,0
4387,-688,-2594,0
5260,-290,-1907,0
6508,489,-200,0
7801,1443,2100,0
8834,2303,4404,0
9615,2711,6345,0
9733,2410,6456,0
9094,1453,4465,0
8258,-292,1971,0
7495,-2914,115,0
7022,-6156,-1019,0
6879,-9053,-1627,0
6840,-10996,-2317,0
6901,-11908,-3096,0
7106,-12130,-3869,0
7492,-11770,-4408,0
7911,-10873,-4574,0
8283,-9572,-4355,0
8680,-8022,-3642,0
9102,-6397,-2532,0
9556,-4815,-1254,0
9940,-3218,-39,0
10195,-1834,742,0
10195,-786,918,0
9897,-171,546,0
9419,-29,-72,0
8871,-93,-546,0
8424,-186,-518,0
7992,-346,-260,0
7532,-528,49,0
7005,-653,347,0
6383,-684,601,0
5731,-660,742,0
5070,-566,778,0
4464,-427,754,0
3684,-117,688,0
2797,245,642,0
2065,469,608,0
1531,603,562,0
1265,595,541,0
1162,556,509,0
1141,556,484,0
1139,599,429,0
1056,716,329,0
1029,769,246,0
1135,774,291,0
1101,817,302,0
1146,672,326,0
1084,476,277,0
919,267,131,0
739,16,-183,0
471,-201,-694,0
59,-267,-1320,0
-372,-305,-1841,0
-771,-281,-2226,0
-1146,-219,-2468,0
-1499,-84,-2607,0
-1802,114,-2619,0
-2015,366,-2487,0
-2058,657,-2167,0
-1865,1055,-1655,0
-1528,1549,-1017,0
-1114,2126,-312,0
-636,2700,361,0
-114,3212,922,0
412,3502,1327,0
874,3502,1495,0
1247,3217,1469,0
1486,2736,1273,0
1575,2167,962,0
1522,1602,610,0
1347,1090,254,0
1097,654,-115,0
846,286,-457,0
636,-39,-725,0
511,-294,-893,0
412,-419,-1112,0
333,-399,-1459,0
399,-285,-1808,0
757,-91,-1974,0
1478,196,-1728,0
2489,546,-1133,0
3666,778,-303,0
4928,754,641,0
6242,647,1249,0
7947,657,1423,0
10460,1238,729,0
13552,2644,-1261,0
16636,3443,-2175,0
19148,2724,-773,0
20267,845,1471,0
19959,-863,2223,0
18691,-2005,1289,0
16997,-2668,-156,0
15253,-3201,-1508,0
13634,-3538,-2478,0
12121,-3566,-2925,0
10816,-3317,-2749,0
9804,-3067,-2010,0
9024,-2993,-982,0
8333,-3166,-19,0
7633,-3631,641,0
6936,-4344,951,0
6263,-5204,916,0
5650,-6108,679,0
5110,-6924,348,0
4643,-7570,9,0
4221,-7919,-345,0
3826,-7935,-707,0
3538,-7677,-1016,0
3329,-7168,-1224,0
3159,-6461,-1357,0
2990,-5589,-1424,0
2793,-4686,-1432,0
2566,-3740,-1332,0
2299,-2837,-1167,0
2029,-2087,-892,0
1676,-1323,-484,0
1278,-649,-100,0
871,-149,201,0
411,276,340,0
-85,622,332,0
-544,866,306,0
-947,1019,308,0
-1272,1066,313,0
-1539,1040,258,0
-1778,1006,129,0
-1983,988,-33,0
-2157,1008,-188,0
-2312,1092,-305,0
-2452,1236,-406,0
-2597,1445,-468,0
-2749,1722,-470,0
-2891,2065,-388,0
-3001,2460,-245,0
-3061,2925,-63,0
-3047,3409,78,0
-2976,3948,119,0
-2801,4470,60,0
-2441,4927,-48,0
-1829,5261,-107,0
-912,5277,45,0
261,4913,553,0
1552,4309,1306,0
2756,3671,1992,0
3694,3047,2262,0
4271,2398,1964,0
4460,1662,1225,0
4347,804,401,0
4088,-239,-155,0
3676,-1304,-432,0
3026,-2231,-739,0
2138,-2847,-1186,0
1085,-2887,-2197,0
297,-2704,-3321,0
149,-2735,-3709,0
838,-2790,-2854,0
2152,-2121,-810,0
3600,-305,1698,0
4814,2172,4163,0
6104,4064,7332,0
7564,4565,9617,0
8461,3629,8165,0
8887,1391,4921,0
9089,-1645,2026,0
9538,-5136,-176,0
10380,-8685,-1661,0
11061,-11742,-3131,0
10995,-13718,-5068,0
10385,-14281,-6930,0
9815,-13858,-8018,0
9719,-12825,-7751,0
10024,-11331,-6260,0
10464,-9475,-4071,0
10743,-7384,-1965,0
10683,-5337,-554,0
10245,-3651,-116,0
9554,-2419,-399,0
8824,-1509,-789,0
8104,-833,-1002,0
7585,-352,-736,0
7368,-181,-109,0
7215,-152,355,0
6867,-124,412,0
6360,-61,231,0
5767,63,86,0
5150,273,109,0
4548,528,276,0
3953,740,514,0
3223,1020,859,0
2298,1329,1132,0
1459,1435,1253,0
829,1321,1171,0
497,1033,907,0
403,678,562,0
418,332,239,0
563,47,-10,0
700,-93,-214,0
822,-161,-422,0
987,-204,-550,0
1066,-167,-588,0
1205,-187,-533,0
1215,-151,-439,0
1223,-158,-399,0
1102,-137,-458,0
937,-121,-569,0
734,-129,-791,0
482,-34,-1111,0
109,123,-1486,0
-305,308,-1838,0
-673,486,-2130,0
-996,669,-2358,0
-1179,872,-2416,0
-1190,1083,-2290,0
-1084,1343,-2010,0
-884,1743,-1537,0
-630,2307,-826,0
-336,2933,68,0
-43,3548,961,0
239,4066,1675,0
485,4341,2090,0
683,4305,2148,0
785,3988,1832,0
801,3459,1327,0
740,2835,818,0
671,2165,458,0
612,1524,263,0
581,924,194,0
570,374,196,0
622,-69,367,0
652,-411,469,0
640,-652,424,0
535,-799,118,0
342,-809,-516,0
189,-690,-1417,0
266,-452,-2282,0
748,-97,-2675,0
1656,411,-2368,0
2894,926,-1464,0
4375,1283,-229,0
5886,1525,636,0
7462,1703,807,0
9738,1889,535,0
12844,3116,-1196,0
16052,4944,-3526,0
19276,5600,-3751,0
21512,4709,-1757,0
22280,3030,816,0
22001,1148,1923,0
20827,-395,1435,0
19240,-1709,335,0
17316,-2617,-1078,0
14973,-2863,-2584,0
12779,-2968,-3710,0
11028,-3039,-4128,0
9743,-3227,-3815,0
8818,-3554,-3010,0
8031,-4045,-2019,0
7281,-4684,-1090,0
6558,-5461,-431,0
5858,-6322,-129,0
5200,-7178,-104,0
4647,-7941,-231,0
4222,-8488,-360,0
3836,-8773,-560,0
3549,-8877,-760,0
3282,-8780,-1023,0
3076,-8500,-1203,0
2847,-8003,-1367,0
2581,-7286,-1506,0
2248,-6361,-1658,0
1850,-5288,-1782,0
1446,-4232,-1861,0
1052,-3205,-1895,0
656,-2236,-1821,0
130,-1224,-1495,0
-525,-232,-1053,0
-1162,612,-564,0
-1723,1295,-83,0
-2152,1845,369,0
-2422,2189,797,0
-2546,2324,1139,0
-2594,2323,1332,0
-2585,2228,1365,0
-2521,2098,1279,0
-2441,1979,1073,0
-2358,1915,749,0
-2290,1894,380,0
-2239,1849,47,0
-2217,1863,-270,0
-2211,1939,-566,0
-2214,2068,-842,0
-2207,2254,-1102,0
-2189,2481,-1350,0
-2146,2729,-1599,0
-2053,2990,-1810,0
-1873,3243,-1946,0
-1570,3442,-1991,0
-1115,3562,-1932,0
-506,3526,-1701,0
246,3309,-1261,0
1119,2968,-597,0
2075,2594,243,0
3048,2259,1085,0
3903,1985,1680,0
4497,1756,1792,0
4697,1536,1299,0
4556,1233,524,0
4257,815,-79,0
3803,372,-396,0
3164,-10,-514,0
2385,-210,-417,0
1405,13,-746,0
550,476,-1374,0
247,783,-1782,0
836,801,-1295,0
2338,994,654,0
4238,1993,3417,0
5647,3926,5245,0
6075,5777,6418,0
5456,6398,5304,0
5250,5189,3123,0
6402,2264,2835,0
8336,-1570,3949,0
9907,-5214,2800,0
10723,-8344,-560,0
11106,-11139,-4237,0
11080,-13434,-7188,0
10927,-15041,-8958,0
11030,-15775,-9345,0
11531,-15305,-8349,0
12119,-13687,-6567,0
12561,-11336,-4605,0
12734,-8700,-2771,0
12610,-6221,-1454,0
12158,-4281,-923,0
11517,-2985,-814,0
10813,-2187,-781,0
10147,-1678,-656,0
9521,-1294,-414,0
8909,-1029,-212,0
8328,-874,-147,0
7766,-678,-111,0
7125,-354,-23,0
6393,31,143,0
5603,449,388,0
4830,798,652,0
4048,1095,902,0
3008,1544,1314,0
1838,1940,1697,0
682,2213,1945,0
-74,2173,1950,0
-143,1694,1636,0
39,1122,1090,0
301,577,513,0
517,217,28,0
773,-47,-378,0
914,-91,-647,0
927,-70,-765,0
1006,-152,-622,0
1056,-246,-355,0
997,-348,-134,0
826,-476,-7,0
525,-544,-38,0
134,-548,-252,0
-302,-523,-578,0
-758,-466,-934,0
-1197,-378,-1313,0
-1599,-268,-1733,0
-1940,-149,-2147,0
-2196,18,-2508,0
-2275,188,-2736,0
-2136,420,-2786,0
-1793,763,-2561,0
-1319,1176,-1988,0
-738,1620,-1076,0
-91,2056,53,0
590,2521,1271,0
1197,2987,2304,0
1625,3364,2872,0
1807,3563,2753,0
1691,3481,2004,0
1404,3122,1111,0
1082,2563,364,0
801,1930,-129,0
565,1298,-408,0
393,705,-522,0
290,193,-512,0
225,-217,-460,0
200,-530,-390,0
155,-719,-385,0
79,-812,-444,0
-31,-819,-583,0
-208,-711,-923,0
-355,-496,-1472,0
-247,-195,-2006,0
236,151,-2256,0
1086,559,-1972,0
2194,976,-1204,0
3435,1182,-132,0
4704,1183,858,0
5972,1150,1342,0
7605,1119,1615,0
10098,1544,1292,0
13446,3296,-929,0
17055,5072,-3012,0
20452,5253,-2670,0
22307,4120,-764,0
22624,2411,935,0
21930,614,1520,0
20428,-744,645,0
18480,-1812,-746,0
16503,-2559,-2225,0
14488,-2772,-3461,0
12662,-2722,-4001,0
11138,-2798,-3872,0
9859,-3107,-3254,0
8762,-3598,-2354,0
7732,-4285,-1481,0
6813,-5119,-765,0
5935,-6065,-428,0
5169,-7010,-390,0
4561,-7905,-564,0
4084,-8562,-775,0
3781,-8964,-863,0
3593,-9100,-897,0
3489,-8887,-901,0
3452,-8349,-858,0
3403,-7479,-790,0
3320,-6407,-748,0
3211,-5248,-717,0
2992,-3997,-798,0
2725,-2863,-856,0
2365,-1779,-793,0
1872,-823,-708,0
1265,12,-522,0
659,632,-326,0
91,1058,-80,0
-405,1320,181,0
-814,1443,337,0
-1145,1451,360,0
-1401,1363,322,0
-1611,1239,281,0
-1798,1099,242,0
-1955,954,201,0
-2070,800,157,0
-2150,662,117,0
-2211,598,69,0
-2284,614,34,0
-2369,713,25,0
-2486,884,46,0
-2628,1121,76,0
-2748,1395,120,0
-2825,1714,180,0
-2839,2098,226,0
-2776,2524,212,0
-2654,2996,96,0
-2470,3483,-164,0
-2196,3896,-485,0
-1789,4211,-756,0
-1198,4407,-852,0
-374,4331,-615,0
651,3955,-34,0
1747,3480,679,0
2790,3008,1307,0
3624,2551,1658,0
4143,2082,1581,0
4280,1545,1025,0
4099,891,282,0
3741,94,-318,0
3337,-812,-545,0
2851,-1663,-586,0
2181,-2270,-745,0
1308,-2373,-1422,0
554,-2121,-2531,0
433,-1944,-2908,0
1193,-2061,-2145,0
2712,-1851,-314,0
4590,-593,2150,0
6225,1620,4253,0
7755,3754,6929,0
9047,5028,9230,0
9487,4889,8049,0
9444,3381,4678,0
9523,562,1847,0
9742,-3306,211,0
10188,-7823,-672,0
10422,-11664,-1874,0
10050,-14086,-3782,0
9200,-15003,-5868,0
8385,-14633,-7391,0
8085,-13546,-7776,0
8320,-12110,-6964,0
8846,-10439,-5298,0
9406,-8680,-3287,0
9796,-6845,-1395,0
9911,-5140,-101,0
9713,-3741,373,0
9220,-2742,128,0
8612,-2034,-395,0
8042,-1491,-737,0
7680,-1042,-673,0
7451,-616,-369,0
7232,-187,-59,0
6930,172,62,0
6536,447,9,0
6074,683,-66,0
5556,932,-76,0
4999,1207,24,0
4467,1402,230,0
3854,1617,459,0
3074,1913,768,0
2229,2173,1025,0
1476,2280,1231,0
896,2244,1308,0
702,2011,1209,0
694,1670,876,0
848,1214,488,0
1045,815,140,0
1297,502,-115,0
1465,331,-288,0
1587,216,-351,0
1596,127,-303,0
1590,-5,-134,0
1528,-160,27,0
1326,-297,28,0
980,-363,-112,0
623,-439,-379,0
284,-525,-756,0
-65,-555,-1153,0
-485,-487,-1551,0
-930,-336,-1906,0
-1356,-153,-2166,0
-1726,74,-2377,0
-1971,333,-2549,0
-1998,653,-2589,0
-1804,1066,-2395,0
-1443,1571,-1908,0
-981,2102,-1157,0
-418,2557,-243,0
149,2873,649,0
645,3068,1325,0
1035,3128,1667,0
1271,3023,1622,0
1358,2696,1315,0
1342,2238,978,0
1257,1720,717,0
1129,1199,538,0
938,724,350,0
715,314,130,0
506,-36,-134,0
293,-313,-464,0
127,-492,-847,0
3,-518,-1363,0
25,-345,-1930,0
339,-48,-2307,0
989,336,-2208,0
1969,732,-1507,0
3154,1070,-417,0
4340,1291,610,0
5353,1431,1109,0
6254,1551,944,0
7375,1722,535,0
9160,2271,-48,0
11745,3877,-1498,0
14777,5837,-2248,0
17662,6658,-878,0
19274,6226,1668,0
19571,5210,2889,0
18917,3910,2464,0
17728,2354,1264,0
16226,671,-276,0
14760,-949,-1772,0
13443,-2293,-2912,0
12211,-3282,-3683,0
11122,-4002,-3877,0
10188,-4630,-3535,0
9301,-5284,-2919,0
8412,-6025,-2282,0
7538,-6951,-1861,0
6692,-7996,-1756,0
5981,-9003,-1841,0
5452,-9878,-2042,0
5144,-10336,-2163,0
5085,-10305,-2145,0
5163,-9763,-1927,0
5252,-8868,-1557,0
5295,-7805,-1112,0
5262,-6689,-643,0
5163,-5539,-204,0
4968,-4420,60,0
4604,-3300,26,0
4109,-2267,-302,0
3541,-1340,-771,0
2929,-607,-1305,0
2332,-25,-1645,0
1788,342,-1718,0
1172,669,-1478,0
376,1083,-965,0
-474,1394,-405,0
-1311,1676,125,0
-2065,1874,496,0
-2644,1945,665,0
-2975,1880,634,0
-3114,1775,462,0
-3115,1657,209,0
-3005,1566,-76,0
-2845,1517,-364,0
-2671,1541,-603,0
-2499,1619,-743,0
-2359,1743,-765,0
-2256,1920,-699,0
-2200,2111,-579,0
-2149,2380,-407,0
-2081,2710,-162,0
-1966,3070,145,0
-1803,3448,479,0
-1616,3808,733,0
-1442,4132,774,0
-1284,4398,531,0
-1090,4606,61,0
-771,4698,-471,0
-238,4593,-813,0
534,4222,-693,0
1475,3649,-165,0
2473,2975,516,0
3352,2314,953,0
3999,1671,942,0
4287,1015,373,0
4217,314,-615,0
3920,-467,-1558,0
3481,-1351,-2206,0
3072,-2256,-2321,0
2639,-2929,-2368,0
2140,-3166,-2776,0
2243,-3501,-2193,0
2971,-3747,-641,0
3853,-3216,1243,0
4697,-1900,2886,0
5140,-251,3994,0
5271,1132,4806,0
5559,1687,6195,0
5664,1151,6268,0
5463,-287,4267,0
5316,-2407,1900,0
5423,-5134,291,0
6256,-8322,-91,0
7479,-11212,-392,0
8559,-12931,-1158,0
9419,-13649,-2588,0
10009,-13437,-4037,0
10326,-12395,-4874,0
10578,-10924,-4948,0
10802,-9221,-4263,0
11034,-7476,-2993,0
11167,-5796,-1512,0
11115,-4248,-258,0
10848,-3068,355,0
10271,-2251,327,0
9519,-1745,-81,0
8855,-1445,-374,0
8445,-1203,-252,0
8156,-969,26,0
7848,-755,227,0
7449,-572,271,0
6983,-394,186,0
6462,-146,154,0
5884,170,213,0
5236,569,307,0
4459,1006,454,0
3569,1382,611,0
2687,1663,735,0
1871,1895,799,0
1242,2060,748,0
877,2085,588,0
718,1994,324,0
713,1847,41,0
919,1682,-178,0
1161,1592,-376,0
1394,1525,-547,0
1568,1440,-710,0
1744,1227,-755,0
1869,953,-652,0
1880,607,-415,0
1667,312,-132,0
1411,-1,125,0
1112,-322,208,0
684,-500,92,0
186,-561,-219,0
-352,-528,-667,0
-898,-432,-1159,0
-1395,-268,-1651,0
-1788,-46,-2109,0
-2014,227,-2493,0
-2020,547,-2697,0
-1816,939,-2568,0
-1471,1328,-2105,0
-1003,1700,-1311,0
-487,2066,-317,0
27,2411,740,0
478,2712,1696,0
771,2928,2322,0
891,2978,2471,0
848,2807,2166,0
672,2401,1584,0
441,1845,992,0
200,1210,526,0
-33,561,226,0
-249,-44,74,0
-437,-569,-3,0
-587,-1010,-52,0
-682,-1384,-77,0
-705,-1666,-129,0
-719,-1808,-365,0
-705,-1766,-905,0
-496,-1577,-1668,0
26,-1274,-2329,0
853,-854,-2533,0
1854,-375,-2214,0
2983,-38,-1500,0
4229,139,-615,0
5536,374,72,0
7104,673,617,0
9408,1076,1200,0
12461,2263,449,0
15923,4124,-1513,0
19408,5770,-2629,0
22141,5962,-1592,0
22974,5132,142,0
22180,4009,852,0
20525,2668,414,0
18491,1463,-918,0
16368,473,-2514,0
14346,-190,-3815,0
12514,-478,-4391,0
11049,-794,-4310,0
9934,-1196,-3637,0
9082,-1676,-2601,0
8350,-2217,-1444,0
7614,-2834,-441,0
6860,-3581,244,0
6125,-4512,529,0
5470,-5620,401,0
4911,-6611,56,0
4457,-7408,-415,0
4173,-8003,-857,0
4018,-8369,-1268,0
3948,-8438,-1630,0
3895,-8136,-1887,0
3833,-7416,-1979,0
3744,-6378,-1912,0
3614,-5173,-1748,0
3424,-3890,-1472,0
3193,-2675,-1167,0
2937,-1668,-947,0
2657,-827,-784,0
2021,249,-1319,0
-898,8059,-640,0
1773,3045,1750,0
2082,3181,976,0
-93,2613,-384,0
-1677,2187,-610,0
-2080,2939,432,0
-2091,2138,2080,0
-2853,1218,2712,0
-3706,440,2337,0
-3903,-575,1349,0
-3302,-1106,876,0
-2413,-782,1038,0
-1647,79,1346,0
-1162,898,1353,0
-958,1345,957,0
-933,1442,397,0
-955,1256,-175,0
-1016,937,-700,0
-1145,645,-1160,0
-1281,458,-1511,0
-1374,400,-1766,0
-1405,467,-1936,0
-1340,603,-1948,0
-1162,766,-1778,0
-805,792,-1497,0
-277,645,-1065,0
391,200,-602,0
1132,-271,-120,0
1704,-371,412,0
2011,-210,851,0
2113,-169,1084,0
1934,-309,993,0
1550,-567,713,0
1178,-912,459,0
934,-1380,303,0
1031,-1706,443,0
1280,-1808,-329,0
2161,-1543,-806,0
3546,-577,96,0
4913,500,1426,0
5980,1720,2807,0
6533,2845,3924,0
6650,3170,4433,0
6883,2456,5580,0
6585,708,5448,0
6098,-1637,3504,0
6517,-3865,1863,0
7892,-5573,1920,0
9048,-6779,2552,0
9224,-7499,2545,0
8798,-7861,1710,0
8721,-7988,954,0
9179,-7724,522,0
9859,-7360,231,0
10452,-6930,140,0
10741,-6273,381,0
10575,-5524,634,0
10102,-4741,749,0
9556,-3912,801,0
9013,-3114,744,0
8519,-2450,595,0
8117,-1878,536,0
7798,-1530,485,0
7521,-1314,431,0
7251,-1124,329,0
6991,-966,173,0
6759,-799,18,0
6507,-672,-138,0
6228,-693,-330,0
5989,-758,-371,0
5748,-757,-284,0
5508,-726,-125,0
5162,-646,-9,0
4814,-520,203,0
4421,-387,390,0
3984,-289,533,0
3512,-271,539,0
3064,-241,510,0
2696,-266,474,0
2304,-270,382,0
1936,-269,295,0
1647,-252,334,0
1422,-185,477,0
987,-4,585,0
488,90,545,0
-68,108,307,0
-671,100,-65,0
-1181,107,-533,0
-1598,94,-1123,0
-1858,152,-1642,0
-1946,259,-1951,0
-1879,390,-2085,0
-1725,628,-2020,0
-1565,943,-1920,0
-1359,1308,-1755,0
-1066,1654,-1411,0
-728,1935,-996,0
-399,2155,-537,0
-141,2335,-156,0
13,2436,43,0
78,2450,102,0
134,2344,80,0
222,2121,3,0
391,1818,-52,0
586,1435,-35,0
814,1045,-20,0
1051,736,45,0
1338,422,123,0
1602,134,145,0
1856,-130,93,0
2155,-376,-34,0
2575,-599,-52,0
3042,-797,-119,0
3387,-915,-452,0
3624,-947,-992,0
3893,-884,-1375,0
4274,-663,-1394,0
4762,-224,-1013,0
5269,434,-250,0
5823,1031,440,0
6365,1296,729,0
6910,1215,791,0
7704,914,678,0
9088,420,373,0
11234,-23,-194,0
13472,-609,-547,0
14705,-1379,-281,0
14515,-2060,474,0
13327,-2414,1274,0
11998,-2385,2033,0
11228,-2272,2883,0
10996,-2077,3825,0
11043,-1919,4645,0
11028,-1888,5033,0
10747,-1934,4938,0
10263,-2142,4506,0
9704,-2396,4010,0
9181,-2677,3553,0
8644,-2927,3156,0
8120,-3170,2808,0
7550,-3229,2514,0
6926,-3247,2285,0
6248,-3364,2049,0
5586,-3609,1832,0
4988,-3709,1621,0
4514,-3868,1542,0
4080,-4000,1484,0
3746,-4101,1317,0
3518,-4103,1161,0
3191,-4036,993,0
2795,-3894,835,0
2377,-3679,635,0
1983,-3359,456,0
1615,-2955,350,0
1197,-2518,210,0
743,-2140,32,0
301,-1872,-191,0
-41,-1689,-347,0
-231,-1642,-446,0
-319,-1735,-613,0
-372,-1862,-838,0
-329,-2092,-1154,0
-147,-2526,-1617,0
52,-2812,-2038,0
145,-2845,-2351,0
204,-2600,-2429,0
280,-2226,-2314,0
333,-1609,-1911,0
301,-866,-1316,0
112,-12,-608,0
-336,974,171,0
-1026,2125,959,0
-1847,3291,1639,0
-2691,4490,2055,0
-3388,5545,2030,0
-3845,6306,1526,0
-4040,6696,706,0
-4005,6755,-243,0
-3714,6517,-1092,0
-3052,5948,-1616,0
-2066,5190,-1599,0
-837,4355,-1037,0
485,3514,-130,0
1785,2731,784,0
2952,1940,1414,0
3761,1161,1459,0
4185,360,1073,0
4348,-510,617,0
4247,-1406,212,0
3858,-2231,-221,0
3335,-2942,-615,0
2486,-3180,-1509,0
1677,-2961,-2578,0
1377,-2842,-2915,0
1732,-2859,-2420,0
2661,-2428,-1033,0
3808,-1173,976,0
4697,1034,2787,0
5502,3604,4990,0
6272,5555,8074,0
6519,6040,8471,0
6462,4794,5545,0
6869,2104,3067,0
7831,-1493,2351,0
8892,-4962,2106,0
9566,-8152,859,0
9793,-11344,-1925,0
9520,-13625,-5001,0
9064,-15011,-7616,0
8878,-15471,-8953,0
9187,-15008,-8704,0
9776,-13754,-7364,0
10327,-11855,-5409,0
10629,-9584,-3346,0
10649,-7282,-1588,0
10358,-5245,-574,0
9792,-3620,-339,0
9106,-2475,-561,0
8517,-1790,-709,0
8027,-1394,-683,0
7575,-1244,-681,0
7152,-1158,-648,0
6735,-972,-544,0
6289,-696,-418,0
5788,-331,-245,0
5241,122,10,0
4683,584,262,0
4114,1035,428,0
3480,1490,469,0
2785,1932,633,0
2065,2282,857,0
1311,2534,1148,0
789,2531,1434,0
609,2262,1479,0
723,1847,1265,0
960,1403,846,0
1243,973,403,0
1523,633,10,0
1690,444,-287,0
1757,334,-414,0
1756,160,-463,0
1549,3,-512,0
1271,-168,-558,0
935,-295,-667,0
552,-396,-932,0
164,-454,-1300,0
-266,-429,-1692,0
-720,-326,-2033,0
-1175,-151,-2265,0
-1599,101,-2375,0
-1950,421,-2354,0
-2181,781,-2163,0
-2233,1171,-1825,0
-2095,1626,-1377,0
-1774,2145,-838,0
-1290,2781,-181,0
-714,3385,466,0
-103,3803,1039,0
466,3996,1503,0
940,3894,1768,0
1289,3527,1783,0
1469,3034,1544,0
1486,2480,1151,0
1373,1890,697,0
1179,1293,279,0
953,738,-47,0
739,251,-276,0
559,-155,-407,0
382,-437,-582,0
154,-594,-1024,0
-63,-635,-1720,0
-40,-581,-2387,0
386,-424,-2633,0
1189,-88,-2208,0
2259,348,-1301,0
3468,660,-249,0
4701,752,644,0
5963,668,1210,0
7621,439,1753,0
10015,591,1528,0
12930,1335,-176,0
16015,1781,-1441,0
18709,1300,-554,0
19846,264,1255,0
19731,-909,2142,0
19011,-1957,2102,0
17739,-2565,1116,0
16209,-2896,-242,0
14685,-3100,-1533,0
13188,-2918,-2489,0
11830,-2598,-2937,0
10674,-2380,-2768,0
9720,-2419,-2118,0
8921,-2696,-1189,0
8170,-3184,-286,0
7478,-3910,441,0
6831,-4788,879,0
6213,-5693,1027,0
5627,-6441,983,0
5041,-6964,786,0
4503,-7192,561,0
4033,-7120,355,0
3612,-6841,103,0
3216,-6438,-247,0
2825,-5940,-646,0
2467,-5341,-971,0
2120,-4575,-1075,0
1716,-3705,-992,0
1218,-2742,-703,0
661,-1765,-347,0
145,-918,-53,0
-294,-177,196,0
-612,284,277,0
-840,687,279,0
-933,916,262,0
-927,1013,261,0
-883,1046,230,0
-842,1027,149,0
-814,985,48,0
-803,940,-30,0
-827,905,-69,0
-876,895,-69,0
-967,924,-28,0
-1110,1017,18,0
-1315,1168,37,0
-1565,1389,42,0
-1816,1669,117,0
-2026,1943,274,0
-2182,2230,445,0
-2259,2550,517,0
-2272,2951,411,0
-2221,3324,129,0
-2093,3686,-209,0
-1814,3942,-513,0
-1348,4098,-741,0
-649,4084,-802,0
300,3805,-539,0
1407,3309,23,0
2550,2698,672,0
3493,2054,1059,0
4088,1384,944,0
4295,679,415,0
4219,-106,-177,0
4002,-994,-549,0
3633,-1851,-743,0
3052,-2490,-987,0
2122,-2502,-1993,0
1453,-2295,-2713,0
1435,-2295,-2241,0
1931,-2019,-877,0
2556,-972,916,0
3049,910,2779,0
3253,3165,4481,0
3504,4915,6757,0
4276,5047,8268,0
