accelerometer_x,accelerometer_y,accelerometer_z,fall
-1307,-3813,715,0
-1309,-3812,718,0
-1308,-3813,716,0
-1308,-3814,718,0
-1307,-3813,711,0
-1303,-3818,709,0
-1300,-3819,707,0
-1301,-3823,707,0
-1298,-3825,707,0
-1297,-3831,709,0
-1301,-3831,712,0
-1299,-3836,713,0
-1299,-3837,712,0
-1299,-3835,710,0
-1299,-3839,713,0
-1303,-3842,714,0
-1302,-3841,712,0
-1305,-3837,711,0
-1306,-3839,711,0
-1307,-3838,707,0
-1310,-3833,705,0
-1307,-3832,702,0
-1307,-3827,703,0
-1309,-3826,705,0
-1306,-3823,712,0
-1302,-3819,714,0
-1297,-3814,711,0
-1291,-3813,711,0
-1290,-3810,713,0
-1288,-3810,715,0
-1284,-3813,719,0
-1281,-3812,721,0
-1280,-3812,724,0
-1281,-3808,725,0
-1276,-3809,728,0
-1276,-3805,730,0
-1279,-3801,737,0
-1278,-3802,735,0
-1279,-3806,729,0
-1278,-3807,725,0
-1279,-3812,722,0
-1280,-3811,720,0
-1279,-3811,718,0
-1283,-3809,717,0
-1286,-3812,722,0
-1293,-3811,723,0
-1300,-3812,722,0
-1303,-3815,718,0
-1306,-3816,715,0
-1310,-3820,715,0
-1314,-3823,712,0
-1314,-3825,705,0
-1310,-3830,705,0
-1311,-3832,695,0
-1312,-3836,693,0
-1309,-3837,690,0
-1302,-3835,688,0
-1301,-3834,689,0
-1297,-3836,692,0
-1292,-3836,694,0
-1289,-3838,694,0
-1287,-3838,696,0
-1289,-3838,702,0
-1285,-3838,707,0
-1284,-3839,710,0
-1281,-3840,711,0
-1281,-3838,710,0
-1281,-3834,708,0
-1280,-3835,709,0
-1280,-3830,710,0
-1281,-3832,713,0
-1282,-3827,715,0
-1282,-3823,716,0
-1284,-3819,715,0
-1284,-3816,715,0
-1283,-3815,717,0
-1286,-3814,718,0
-1287,-3815,715,0
-1286,-3817,715,0
-1284,-3816,713,0
-1285,-3813,710,0
-1282,-3810,708,0
-1281,-3809,708,0
-1284,-3811,706,0
-1283,-3812,706,0
-1280,-3815,705,0
-1279,-3818,701,0
-1274,-3818,703,0
-1274,-3819,704,0
-1270,-3816,705,0
-1269,-3817,706,0
-1269,-3821,708,0
-1268,-3820,706,0
-1272,-3822,702,0
-1270,-3822,701,0
-1272,-3828,701,0
-1273,-3828,700,0
-1271,-3829,704,0
-1272,-3829,703,0
-1276,-3830,703,0
-1278,-3832,703,0
-1278,-3831,703,0
-1281,-3829,702,0
-1284,-3828,702,0
-1287,-3831,698,0
-1285,-3833,696,0
-1287,-3835,693,0
-1289,-3832,692,0
-1287,-3831,691,0
-1287,-3831,687,0
-1286,-3831,689,0
-1287,-3831,688,0
-1284,-3832,691,0
-1283,-3833,691,0
-1280,-3834,695,0
-1282,-3835,695,0
-1281,-3833,693,0
-1281,-3834,691,0
-1275,-3837,687,0
-1274,-3839,687,0
-1275,-3836,689,0
-1270,-3834,690,0
-1265,-3839,691,0
-1263,-3841,694,0
-1261,-3836,694,0
-1261,-3839,696,0
-1261,-3841,698,0
-1259,-3838,698,0
-1258,-3837,696,0
-1258,-3839,697,0
-1258,-3837,695,0
-1258,-3833,695,0
-1256,-3834,698,0
-1261,-3830,697,0
-1263,-3828,695,0
-1265,-3831,695,0
-1266,-3829,694,0
-1267,-3824,691,0
-1268,-3825,690,0
-1265,-3827,688,0
-1265,-3827,691,0
-1264,-3826,687,0
-1265,-3825,688,0
-1270,-3831,687,0
-1269,-3833,687,0
-1267,-3829,690,0
-1267,-3831,691,0
-1268,-3833,692,0
-1271,-3834,692,0
-1270,-3831,692,0
-1272,-3835,693,0
-1272,-3839,694,0
-1270,-3839,692,0
-1270,-3842,693,0
-1266,-3845,692,0
-1271,-3844,691,0
-1271,-3845,691,0
-1267,-3841,693,0
-1265,-3837,692,0
-1262,-3839,692,0
-1260,-3837,690,0
-1261,-3836,689,0
-1259,-3832,690,0
-1258,-3827,695,0
-1255,-3824,692,0
-1252,-3819,690,0
-1245,-3819,689,0
-1245,-3816,691,0
-1239,-3819,696,0
-1238,-3821,696,0
-1233,-3822,696,0
-1232,-3825,698,0
-1233,-3832,699,0
-1235,-3835,701,0
-1235,-3836,701,0
-1238,-3837,702,0
-1241,-3836,701,0
-1240,-3835,697,0
-1249,-3834,693,0
-1249,-3829,691,0
-1251,-3832,690,0
-1253,-3834,689,0
-1254,-3833,686,0
-1254,-3832,686,0
-1257,-3830,684,0
-1262,-3833,687,0
-1262,-3835,688,0
-1267,-3841,687,0
-1269,-3843,686,0
-1269,-3841,684,0
-1268,-3841,682,0
-1269,-3842,683,0
-1271,-3839,682,0
-1267,-3840,680,0
-1263,-3843,674,0
-1261,-3842,673,0
-1259,-3843,677,0
-1254,-3843,678,0
-1252,-3844,679,0
-1250,-3844,681,0
-1250,-3844,680,0
-1251,-3847,684,0
-1249,-3848,688,0
-1246,-3848,690,0
-1243,-3844,689,0
-1242,-3840,692,0
-1244,-3839,694,0
-1246,-3834,696,0
-1248,-3832,696,0
-1247,-3833,697,0
-1249,-3830,700,0
-1244,-3828,698,0
-1247,-3827,701,0
-1243,-3823,703,0
-1245,-3818,703,0
-1248,-3815,700,0
-1249,-3814,699,0
-1244,-3814,700,0
-1245,-3813,700,0
-1248,-3810,695,0
-1239,-3812,691,0
-1234,-3810,688,0
-1238,-3813,692,0
-1234,-3815,694,0
-1233,-3816,696,0
-1233,-3817,699,0
-1229,-3819,703,0
-1230,-3821,703,0
-1231,-3825,701,0
-1228,-3825,701,0
-1228,-3829,703,0
-1232,-3833,701,0
-1234,-3839,698,0
-1240,-3840,694,0
-1245,-3846,691,0
-1250,-3845,690,0
-1253,-3846,689,0
-1259,-3847,687,0
-1265,-3848,685,0
-1270,-3850,682,0
-1274,-3852,680,0
-1279,-3853,677,0
-1279,-3852,675,0
-1280,-3851,670,0
-1281,-3853,668,0
-1285,-3851,665,0
-1289,-3854,661,0
-1290,-3857,662,0
-1285,-3860,664,0
-1286,-3860,667,0
-1286,-3860,672,0
-1284,-3859,679,0
-1277,-3856,681,0
-1270,-3857,679,0
-1268,-3856,679,0
-1263,-3857,680,0
-1260,-3853,677,0
-1257,-3851,682,0
-1251,-3850,684,0
-1250,-3848,687,0
-1250,-3846,689,0
-1249,-3841,691,0
-1249,-3839,692,0
-1246,-3834,691,0
-1247,-3835,694,0
-1249,-3832,699,0
-1250,-3827,697,0
-1250,-3826,696,0
-1250,-3825,697,0
-1250,-3822,696,0
-1252,-3819,695,0
-1254,-3819,694,0
-1253,-3820,697,0
-1252,-3817,701,0
-1252,-3816,701,0
-1252,-3814,700,0
-1251,-3814,703,0
-1249,-3813,703,0
-1248,-3814,703,0
-1249,-3813,699,0
-1249,-3815,699,0
-1252,-3820,697,0
-1250,-3822,698,0
-1251,-3826,700,0
-1252,-3830,701,0
-1253,-3836,701,0
-1257,-3835,703,0
-1259,-3836,702,0
-1262,-3834,698,0
-1264,-3835,695,0
-1265,-3837,692,0
-1268,-3839,688,0
-1270,-3839,689,0
-1269,-3841,689,0
-1272,-3839,687,0
-1277,-3839,688,0
-1274,-3835,692,0
-1274,-3832,691,0
-1271,-3831,689,0
-1270,-3832,689,0
-1267,-3835,690,0
-1268,-3837,695,0
-1271,-3837,693,0
-1270,-3838,695,0
-1269,-3838,699,0
-1268,-3834,703,0
-1270,-3831,707,0
-1268,-3828,709,0
-1268,-3830,710,0
-1270,-3831,706,0
-1267,-3828,704,0
-1268,-3827,701,0
-1267,-3827,694,0
-1268,-3826,691,0
-1266,-3829,692,0
-1265,-3824,694,0
-1266,-3825,694,0
-1270,-3824,694,0
-1273,-3825,698,0
-1277,-3830,698,0
-1278,-3830,698,0
-1279,-3832,697,0
-1278,-3830,695,0
-1278,-3833,692,0
-1278,-3832,695,0
-1279,-3832,693,0
-1278,-3830,690,0
-1275,-3831,690,0
-1273,-3829,688,0
-1273,-3828,690,0
-1269,-3832,690,0
-1266,-3832,691,0
-1264,-3835,691,0
-1263,-3831,692,0
-1264,-3825,697,0
-1265,-3825,700,0
-1268,-3826,700,0
-1267,-3828,702,0
-1264,-3827,702,0
-1261,-3825,702,0
-1264,-3826,700,0
-1268,-3824,702,0
-1266,-3822,701,0
-1268,-3820,706,0
-1269,-3824,704,0
-1268,-3824,704,0
-1270,-3827,704,0
-1273,-3830,705,0
-1276,-3829,704,0
-1272,-3832,705,0
-1270,-3833,703,0
-1271,-3833,703,0
-1274,-3830,703,0
-1275,-3831,701,0
-1273,-3828,695,0
-1272,-3825,695,0
-1275,-3824,694,0
-1275,-3827,694,0
-1277,-3824,691,0
-1277,-3827,694,0
-1279,-3828,695,0
-1274,-3828,702,0
-1276,-3827,704,0
-1275,-3827,704,0
-1276,-3829,703,0
-1276,-3827,700,0
-1277,-3829,702,0
-1277,-3832,703,0
-1280,-3828,706,0
-1282,-3832,707,0
-1286,-3835,707,0
-1288,-3829,706,0
-1290,-3828,704,0
-1291,-3827,703,0
-1290,-3831,703,0
-1292,-3827,702,0
-1294,-3826,700,0
-1293,-3824,702,0
-1291,-3827,699,0
-1288,-3828,694,0
-1289,-3829,696,0
-1286,-3829,695,0
-1290,-3830,694,0
-1286,-3828,697,0
-1284,-3831,698,0
-1281,-3827,703,0
-1280,-3827,704,0
-1275,-3830,705,0
-1274,-3831,703,0
-1273,-3830,705,0
-1269,-3830,703,0
-1271,-3827,707,0
-1269,-3829,707,0
-1266,-3824,707,0
-1271,-3824,708,0
-1267,-3822,705,0
-1266,-3821,705,0
-1270,-3816,708,0
-1273,-3819,707,0
-1276,-3821,704,0
-1273,-3820,703,0
-1276,-3820,703,0
-1275,-3816,704,0
-1276,-3817,704,0
-1281,-3820,705,0
-1282,-3821,705,0
-1285,-3822,700,0
-1284,-3822,702,0
-1284,-3823,704,0
-1284,-3821,705,0
-1286,-3824,705,0
-1289,-3825,705,0
-1291,-3824,704,0
-1289,-3822,701,0
-1290,-3825,702,0
-1290,-3827,704,0
-1290,-3828,702,0
-1289,-3828,705,0
-1290,-3831,701,0
-1291,-3833,700,0
-1291,-3836,700,0
-1287,-3839,697,0
-1289,-3836,699,0
-1290,-3836,698,0
-1290,-3837,699,0
-1288,-3834,698,0
-1289,-3830,701,0
-1288,-3827,703,0
-1286,-3824,705,0
-1282,-3821,702,0
-1282,-3818,705,0
-1280,-3816,704,0
-1279,-3815,703,0
-1277,-3814,709,0
-1274,-3814,710,0
-1276,-3813,714,0
-1278,-3812,720,0
-1278,-3813,721,0
-1277,-3812,726,0
-1274,-3813,730,0
-1274,-3810,732,0
-1274,-3806,730,0
-1279,-3805,722,0
-1280,-3805,722,0
-1281,-3808,714,0
-1284,-3810,707,0
-1286,-3809,703,0
-1286,-3808,702,0
-1289,-3812,702,0
-1287,-3816,707,0
-1290,-3817,704,0
-1295,-3819,706,0
-1296,-3824,707,0
-1293,-3824,707,0
-1296,-3830,708,0
-1299,-3832,708,0
-1300,-3829,707,0
-1299,-3829,705,0
-1302,-3829,700,0
-1300,-3832,698,0
-1300,-3831,696,0
-1307,-3831,695,0
-1300,-3833,691,0
-1298,-3837,691,0
-1299,-3835,693,0
-1297,-3836,693,0
-1295,-3836,697,0
-1292,-3838,694,0
-1291,-3841,698,0
-1293,-3841,701,0
-1294,-3840,699,0
-1292,-3838,704,0
-1291,-3836,709,0
-1290,-3838,708,0
-1291,-3834,708,0
-1290,-3831,711,0
-1293,-3827,708,0
-1292,-3824,708,0
-1291,-3818,708,0
-1290,-3818,706,0
-1289,-3820,709,0
-1284,-3819,711,0
-1285,-3820,713,0
-1284,-3818,715,0
-1287,-3817,715,0
-1287,-3816,715,0
-1288,-3813,716,0
-1285,-3812,716,0
-1286,-3811,715,0
-1286,-3811,710,0
-1285,-3807,713,0
-1284,-3809,711,0
-1286,-3811,710,0
-1287,-3814,711,0
-1283,-3814,714,0
-1284,-3812,720,0
-1284,-3812,719,0
-1285,-3811,718,0
-1288,-3810,717,0
-1291,-3809,714,0
-1289,-3810,714,0
-1291,-3813,713,0
-1294,-3814,710,0
-1296,-3816,709,0
-1297,-3816,709,0
-1299,-3817,706,0
-1298,-3820,707,0
-1300,-3820,708,0
-1302,-3821,713,0
-1302,-3821,712,0
-1301,-3820,711,0
-1301,-3823,708,0
-1305,-3826,710,0
-1308,-3824,704,0
-1307,-3828,702,0
-1301,-3827,698,0
-1302,-3824,700,0
-1303,-3823,700,0
-1298,-3825,699,0
-1297,-3829,702,0
-1296,-3829,700,0
-1295,-3834,702,0
-1293,-3830,702,0
-1295,-3831,707,0
-1293,-3830,709,0
-1291,-3827,707,0
-1292,-3826,708,0
-1294,-3829,710,0
-1293,-3825,712,0
-1293,-3824,710,0
-1294,-3821,712,0
-1296,-3820,714,0
-1298,-3815,715,0
-1296,-3811,718,0
-1293,-3810,714,0
-1296,-3811,715,0
-1296,-3812,714,0
-1301,-3809,716,0
-1299,-3812,711,0
-1298,-3811,711,0
-1301,-3809,710,0
-1300,-3812,712,0
-1297,-3812,709,0
-1298,-3814,708,0
-1297,-3815,707,0
-1296,-3818,706,0
-1297,-3821,709,0
-1293,-3824,713,0
-1294,-3824,713,0
-1292,-3823,713,0
-1290,-3820,710,0
-1292,-3819,713,0
-1293,-3821,711,0
-1293,-3822,709,0
-1293,-3820,712,0
-1295,-3820,710,0
-1295,-3820,708,0
-1296,-3819,709,0
-1299,-3820,708,0
-1300,-3820,710,0
-1304,-3818,712,0
-1304,-3818,713,0
-1305,-3821,715,0
-1307,-3822,714,0
-1307,-3820,711,0
-1303,-3819,714,0
-1308,-3817,716,0
-1310,-3818,719,0
-1315,-3816,720,0
-1314,-3820,716,0
-1314,-3819,714,0
-1312,-3817,708,0
-1310,-3817,706,0
-1308,-3814,708,0
-1306,-3812,707,0
-1303,-3812,709,0
-1299,-3811,712,0
-1299,-3813,714,0
-1299,-3815,716,0
-1295,-3814,723,0
-1295,-3812,725,0
-1292,-3808,728,0
-1291,-3804,729,0
-1292,-3806,728,0
-1291,-3804,721,0
-1288,-3804,717,0
-1292,-3809,712,0
-1291,-3809,713,0
-1292,-3810,712,0
-1291,-3812,711,0
-1289,-3812,713,0
-1294,-3810,714,0
-1296,-3814,719,0
-1302,-3815,720,0
-1306,-3813,722,0
-1311,-3813,722,0
-1312,-3812,719,0
-1312,-3814,717,0
-1311,-3817,720,0
-1315,-3815,716,0
-1316,-3820,709,0
-1317,-3820,708,0
-1320,-3822,705,0
-1322,-3821,703,0
-1320,-3825,700,0
-1319,-3822,699,0
-1319,-3823,696,0
-1315,-3824,694,0
-1314,-3826,697,0
-1316,-3825,701,0
-1316,-3825,699,0
-1313,-3830,703,0
-1308,-3828,708,0
-1304,-3822,711,0
-1303,-3823,712,0
-1300,-3822,717,0
-1296,-3818,719,0
-1295,-3817,720,0
-1296,-3818,722,0
-1302,-3819,721,0
-1301,-3816,721,0
-1298,-3814,721,0
-1301,-3817,723,0
-1297,-3816,725,0
-1302,-3815,725,0
-1302,-3813,725,0
-1304,-3809,724,0
-1302,-3809,723,0
-1302,-3809,719,0
-1304,-3807,719,0
-1304,-3807,717,0
-1305,-3803,716,0
-1304,-3804,717,0
-1304,-3803,718,0
-1307,-3802,719,0
-1306,-3808,719,0
-1301,-3810,718,0
-1306,-3810,721,0
-1305,-3803,719,0
-1308,-3807,718,0
-1308,-3811,717,0
-1307,-3810,718,0
-1305,-3809,720,0
-1305,-3813,717,0
-1306,-3815,715,0
-1308,-3815,715,0
-1315,-3818,715,0
-1317,-3817,716,0
-1318,-3817,718,0
-1316,-3816,716,0
-1316,-3817,720,0
-1317,-3818,718,0
-1319,-3815,718,0
-1318,-3817,716,0
-1314,-3815,715,0
-1317,-3815,716,0
-1318,-3813,714,0
-1315,-3815,715,0
-1316,-3812,719,0
-1312,-3813,717,0
-1314,-3810,721,0
-1314,-3811,723,0
-1311,-3808,724,0
-1309,-3810,719,0
-1310,-3813,719,0
-1307,-3815,717,0
-1306,-3815,719,0
-1309,-3814,718,0
-1308,-3814,718,0
-1306,-3812,719,0
-1304,-3810,720,0
-1297,-3808,720,0
-1301,-3808,720,0
-1304,-3809,722,0
-1304,-3806,720,0
-1303,-3806,719,0
-1306,-3803,723,0
-1301,-3803,722,0
-1304,-3803,721,0
-1310,-3806,725,0
-1314,-3807,721,0
-1316,-3809,720,0
-1313,-3808,720,0
-1309,-3810,718,0
-1314,-3811,715,0
-1317,-3816,719,0
-1317,-3820,713,0
-1316,-3821,713,0
-1318,-3827,711,0
-1316,-3829,709,0
-1313,-3831,706,0
-1313,-3831,708,0
-1314,-3834,707,0
-1308,-3834,705,0
-1308,-3836,705,0
-1308,-3838,705,0
-1307,-3836,705,0
-1308,-3831,704,0
-1307,-3835,708,0
-1310,-3835,708,0
-1309,-3830,709,0
-1312,-3829,710,0
-1315,-3829,710,0
-1317,-3826,705,0
-1320,-3825,701,0
-1318,-3823,705,0
-1317,-3823,706,0
-1319,-3819,705,0
-1323,-3816,705,0
-1327,-3815,706,0
-1330,-3814,705,0
-1330,-3810,708,0
-1328,-3812,713,0
-1329,-3812,716,0
-1328,-3809,715,0
-1326,-3803,715,0
-1327,-3803,711,0
-1324,-3800,713,0
-1319,-3799,712,0
-1317,-3803,711,0
-1315,-3808,717,0
-1310,-3812,721,0
-1305,-3814,721,0
-1303,-3816,723,0
-1299,-3816,722,0
-1297,-3813,725,0
-1298,-3812,727,0
-1297,-3810,723,0
-1293,-3811,720,0
-1292,-3810,714,0
-1289,-3813,708,0
-1291,-3815,705,0
-1289,-3816,706,0
-1286,-3816,706,0
-1289,-3818,713,0
-1293,-3818,717,0
-1298,-3815,722,0
-1305,-3815,726,0
-1309,-3817,727,0
-1313,-3819,726,0
-1319,-3822,722,0
-1323,-3820,717,0
-1325,-3821,713,0
-1324,-3819,706,0
-1322,-3819,696,0
-1322,-3822,696,0
-1321,-3822,693,0
-1320,-3822,699,0
-1318,-3823,696,0
-1317,-3820,701,0
-1316,-3820,705,0
-1311,-3816,707,0
-1305,-3816,714,0
-1306,-3815,718,0
-1306,-3816,719,0
-1308,-3818,722,0
-1308,-3821,721,0
-1306,-3816,727,0
-1304,-3817,726,0
-1307,-3818,724,0
-1305,-3817,726,0
-1304,-3817,725,0
-1306,-3813,722,0
-1307,-3808,725,0
-1309,-3806,723,0
-1310,-3806,720,0
-1310,-3805,719,0
-1309,-3811,718,0
-1312,-3808,718,0
-1309,-3810,717,0
-1307,-3808,712,0
-1304,-3811,715,0
-1302,-3810,720,0
-1303,-3803,720,0
-1299,-3809,721,0
-1296,-3812,721,0
-1296,-3813,720,0
-1293,-3815,723,0
-1289,-3814,721,0
-1295,-3812,721,0
-1291,-3815,721,0
-1290,-3816,724,0
-1290,-3816,723,0
-1291,-3816,719,0
-1293,-3816,717,0
-1293,-3817,712,0
-1294,-3817,711,0
-1296,-3817,711,0
-1300,-3818,711,0
-1298,-3821,708,0
-1298,-3819,706,0
-1301,-3819,705,0
-1303,-3821,703,0
-1305,-3822,699,0
-1309,-3822,701,0
-1314,-3824,700,0
-1312,-3823,700,0
-1310,-3825,699,0
-1314,-3824,698,0
-1310,-3826,698,0
-1310,-3832,698,0
-1308,-3833,698,0
-1307,-3835,692,0
-1307,-3834,692,0
-1298,-3835,693,0
-1299,-3834,690,0
-1298,-3837,693,0
-1298,-3837,701,0
-1292,-3837,700,0
-1289,-3836,701,0
-1290,-3835,697,0
-1285,-3835,701,0
-1284,-3832,700,0
-1283,-3827,698,0
-1281,-3825,700,0
-1281,-3826,701,0
-1281,-3826,701,0
-1283,-3824,701,0
-1283,-3822,704,0
-1284,-3820,706,0
-1284,-3819,710,0
-1283,-3820,712,0
-1286,-3819,711,0
-1286,-3816,710,0
-1291,-3819,706,0
-1290,-3823,704,0
-1292,-3823,707,0
-1292,-3821,708,0
-1291,-3818,703,0
-1293,-3820,700,0
-1289,-3820,699,0
-1293,-3820,700,0
-1293,-3822,698,0
-1293,-3820,697,0
-1290,-3821,698,0
-1290,-3823,700,0
-1290,-3825,702,0
-1292,-3824,703,0
-1289,-3824,702,0
-1289,-3824,705,0
-1291,-3824,703,0
-1289,-3822,704,0
-1289,-3824,704,0
-1287,-3827,703,0
-1288,-3823,706,0
-1290,-3827,706,0
-1290,-3825,704,0
-1294,-3829,704,0
-1295,-3824,704,0
-1294,-3825,707,0
-1292,-3821,707,0
-1292,-3821,705,0
-1293,-3821,704,0
-1296,-3822,703,0
-1291,-3821,703,0
-1289,-3820,702,0
-1286,-3816,699,0
-1281,-3815,701,0
-1275,-3815,703,0
-1269,-3813,701,0
-1267,-3816,702,0
-1269,-3818,703,0
-1266,-3819,703,0
-1262,-3824,703,0
-1259,-3827,705,0
-1259,-3829,705,0
-1259,-3827,708,0
-1261,-3831,710,0
-1264,-3829,708,0
-1268,-3828,706,0
-1265,-3825,702,0
-1263,-3828,697,0
-1270,-3828,694,0
-1271,-3826,689,0
-1273,-3826,686,0
-1279,-3829,685,0
-1282,-3826,685,0
-1285,-3824,686,0
-1291,-3824,689,0
-1290,-3827,687,0
-1292,-3833,685,0
-1296,-3837,685,0
-1295,-3835,681,0
-1297,-3837,680,0
-1292,-3840,675,0
-1290,-3843,672,0
-1290,-3842,671,0
-1289,-3842,667,0
-1284,-3842,665,0
-1281,-3843,669,0
-1280,-3846,672,0
-1275,-3843,676,0
-1274,-3844,677,0
-1270,-3842,679,0
-1269,-3843,685,0
-1265,-3844,685,0
-1262,-3844,685,0
-1260,-3846,687,0
-1261,-3844,690,0
-1257,-3841,694,0
-1258,-3843,692,0
-1258,-3840,690,0
-1259,-3836,691,0
-1260,-3830,693,0
-1259,-3827,691,0
-1258,-3826,693,0
-1260,-3823,693,0
-1259,-3828,694,0
-1259,-3826,692,0
-1265,-3823,694,0
-1265,-3823,693,0
-1260,-3823,693,0
-1259,-3822,694,0
-1260,-3821,700,0
-1259,-3820,702,0
-1261,-3819,705,0
-1260,-3816,709,0
-1260,-3816,716,0
-1259,-3814,724,0
-1257,-3811,723,0
-1262,-3815,721,0
-1259,-3818,718,0
-1259,-3818,715,0
-1257,-3823,712,0
-1255,-3824,705,0
-1258,-3831,700,0
-1257,-3835,694,0
-1257,-3837,689,0
-1261,-3836,692,0
-1258,-3837,694,0
-1264,-3832,697,0
-1263,-3830,697,0
-1262,-3831,698,0
-1266,-3827,697,0
-1267,-3822,695,0
-1265,-3822,696,0
-1270,-3821,693,0
-1274,-3821,690,0
-1274,-3820,693,0
-1272,-3819,694,0
-1279,-3819,697,0
-1279,-3819,700,0
-1279,-3821,701,0
-1279,-3821,703,0
-1277,-3829,702,0
-1280,-3831,703,0
-1280,-3834,703,0
-1280,-3839,700,0
-1280,-3841,696,0
-1281,-3839,692,0
-1279,-3842,687,0
-1280,-3843,680,0
-1277,-3844,675,0
-1276,-3845,673,0
-1273,-3845,674,0
-1269,-3848,671,0
-1266,-3848,668,0
-1266,-3848,672,0
-1266,-3849,673,0
-1260,-3847,670,0
-1259,-3844,674,0
-1253,-3844,675,0
-1249,-3844,677,0
-1248,-3841,677,0
-1242,-3842,679,0
-1238,-3846,680,0
-1238,-3849,683,0
-1236,-3843,685,0
-1235,-3836,684,0
-1232,-3836,686,0
-1233,-3836,687,0
-1233,-3838,692,0
-1236,-3843,695,0
-1240,-3842,692,0
-1241,-3842,689,0
-1245,-3846,688,0
-1250,-3846,685,0
-1253,-3845,685,0
-1261,-3846,688,0
-1263,-3844,688,0
-1267,-3845,684,0
-1271,-3843,681,0
-1277,-3837,681,0
-1279,-3836,682,0
-1280,-3836,680,0
-1278,-3833,679,0
-1278,-3832,677,0
-1273,-3827,677,0
-1273,-3824,680,0
-1271,-3824,683,0
-1265,-3825,684,0
-1260,-3825,688,0
-1256,-3821,691,0
-1251,-3822,689,0
-1246,-3819,694,0
-1239,-3820,691,0
-1236,-3823,689,0
-1235,-3822,693,0
-1234,-3828,698,0
-1232,-3834,702,0
-1232,-3842,708,0
-1235,-3845,712,0
-1236,-3846,710,0
-1237,-3845,711,0
-1239,-3839,709,0
-1241,-3831,709,0
-1239,-3824,705,0
-1240,-3819,700,0
-1246,-3815,700,0
-1247,-3815,700,0
-1249,-3815,701,0
-1250,-3815,702,0
-1252,-3816,703,0
-1256,-3816,706,0
-1263,-3815,706,0
-1265,-3820,704,0
-1265,-3820,708,0
-1264,-3819,698,0
-1260,-3822,699,0
-1257,-3827,694,0
-1258,-3825,685,0
-1254,-3827,683,0
-1252,-3831,683,0
-1250,-3833,681,0
-1251,-3835,684,0
-1248,-3834,685,0
-1244,-3834,685,0
-1243,-3835,685,0
-1241,-3839,685,0
-1238,-3840,684,0
-1238,-3842,687,0
-1236,-3842,688,0
-1240,-3843,689,0
-1240,-3841,687,0
-1246,-3844,685,0
-1244,-3841,686,0
-1251,-3839,688,0
-1253,-3839,687,0
-1256,-3839,685,0
-1261,-3843,681,0
-1268,-3847,688,0
-1272,-3847,685,0
-1273,-3847,686,0
-1275,-3843,687,0
-1277,-3847,685,0
-1276,-3849,684,0
-1274,-3849,684,0
-1274,-3843,686,0
-1270,-3844,682,0
-1271,-3840,682,0
-1269,-3839,682,0
-1265,-3835,689,0
-1262,-3839,689,0
-1255,-3842,693,0
-1252,-3841,692,0
-1251,-3842,691,0
-1250,-3837,694,0
-1251,-3835,696,0
-1252,-3833,694,0
-1252,-3836,693,0
-1250,-3837,693,0
-1249,-3832,691,0
-1252,-3833,693,0
-1253,-3833,697,0
-1251,-3833,697,0
-1257,-3831,696,0
-1261,-3828,699,0
-1262,-3829,696,0
-1263,-3823,698,0
-1266,-3820,698,0
-1269,-3817,695,0
-1269,-3819,695,0
-1272,-3818,693,0
-1270,-3820,691,0
-1271,-3820,689,0
-1269,-3820,689,0
-1266,-3822,686,0
-1265,-3825,684,0
-1262,-3828,680,0
-1258,-3830,686,0
-1258,-3831,689,0
-1253,-3833,690,0
-1253,-3835,690,0
-1253,-3839,691,0
-1251,-3842,688,0
-1251,-3846,687,0
-1252,-3846,686,0
-1250,-3851,685,0
-1253,-3850,686,0
-1255,-3846,687,0
-1256,-3848,689,0
-1260,-3850,693,0
-1264,-3847,695,0
-1263,-3842,695,0
-1267,-3839,694,0
-1272,-3835,697,0
-1278,-3832,696,0
-1277,-3831,695,0
-1278,-3828,696,0
-1279,-3825,698,0
-1277,-3827,697,0
-1277,-3824,697,0
-1276,-3822,698,0
-1275,-3821,697,0
-1273,-3817,695,0
-1273,-3817,697,0
-1270,-3821,702,0
-1270,-3823,706,0
-1266,-3825,707,0
-1267,-3823,706,0
-1267,-3827,707,0
-1267,-3824,711,0
-1268,-3826,709,0
-1270,-3825,708,0
-1270,-3827,708,0
-1269,-3827,701,0
-1271,-3824,697,0
-1272,-3830,695,0
-1273,-3828,695,0
-1271,-3829,697,0
-1271,-3826,696,0
-1269,-3824,696,0
-1267,-3821,695,0
-1264,-3821,696,0
-1261,-3821,695,0
-1259,-3820,695,0
-1256,-3822,695,0
-1257,-3823,698,0
-1258,-3824,701,0
-1262,-3825,703,0
-1261,-3826,705,0
-1264,-3827,710,0
-1265,-3826,709,0
-1264,-3825,707,0
-1265,-3826,705,0
-1261,-3826,704,0
-1265,-3829,696,0
-1266,-3832,691,0
-1271,-3831,692,0
-1272,-3830,690,0
-1276,-3828,691,0
-1280,-3829,693,0
-1281,-3829,693,0
-1282,-3831,695,0
-1284,-3834,693,0
-1284,-3839,691,0
-1285,-3838,690,0
-1287,-3840,688,0
-1289,-3842,689,0
-1290,-3843,683,0
-1290,-3844,683,0
-1287,-3845,678,0
-1286,-3849,678,0
-1286,-3853,680,0
-1287,-3852,685,0
-1285,-3851,686,0
-1285,-3846,687,0
-1282,-3844,691,0
-1285,-3845,691,0
-1286,-3844,695,0
-1282,-3839,696,0
-1279,-3833,698,0
-1279,-3830,697,0
-1276,-3829,699,0
-1273,-3823,704,0
-1270,-3823,707,0
-1269,-3821,708,0
-1271,-3818,714,0
-1270,-3815,714,0
-1268,-3816,714,0
-1266,-3813,715,0
-1269,-3814,717,0
-1272,-3815,715,0
-1272,-3811,715,0
-1278,-3814,715,0
-1277,-3815,715,0
-1275,-3817,715,0
-1275,-3815,711,0
-1279,-3816,708,0
-1282,-3814,708,0
-1278,-3812,707,0
-1277,-3815,702,0
-1282,-3814,703,0
-1279,-3811,705,0
-1282,-3814,706,0
-1280,-3812,705,0
-1282,-3813,705,0
-1279,-3812,708,0
-1280,-3815,706,0
-1281,-3815,707,0
-1283,-3816,707,0
-1286,-3817,707,0
-1287,-3820,708,0
-1288,-3821,707,0
-1287,-3821,705,0
-1290,-3823,704,0
-1290,-3824,705,0
-1289,-3826,704,0
-1289,-3828,705,0
-1287,-3828,702,0
-1295,-3829,702,0
-1297,-3831,701,0
-1299,-3831,700,0
-1297,-3832,698,0
-1296,-3832,699,0
-1296,-3836,697,0
-1292,-3834,697,0
-1296,-3839,699,0
-1289,-3839,694,0
-1292,-3838,691,0
-1291,-3833,694,0
-1291,-3834,695,0
-1289,-3836,694,0
-1287,-3835,696,0
-1286,-3839,697,0
-1284,-3838,700,0
-1283,-3834,704,0
-1277,-3828,702,0
-1278,-3826,701,0
-1275,-3825,702,0
-1280,-3825,705,0
-1283,-3824,704,0
-1283,-3822,700,0
-1281,-3822,704,0
-1284,-3822,707,0
-1286,-3820,705,0
-1284,-3820,707,0
-1290,-3819,707,0
-1289,-3819,704,0
-1289,-3821,703,0
-1289,-3822,704,0
-1291,-3820,703,0
-1293,-3823,701,0
-1289,-3823,703,0
-1292,-3822,707,0
-1294,-3822,707,0
-1290,-3821,704,0
-1292,-3819,706,0
-1292,-3820,708,0
-1290,-3819,711,0
-1289,-3819,709,0
-1290,-3817,708,0
-1288,-3818,710,0
-1289,-3820,710,0
-1289,-3817,714,0
-1288,-3816,715,0
-1288,-3819,711,0
-1292,-3820,714,0
-1296,-3821,713,0
-1297,-3822,711,0
-1297,-3824,711,0
-1303,-3819,712,0
-1309,-3819,710,0
-1308,-3821,710,0
-1304,-3822,714,0
-1304,-3821,709,0
-1307,-3821,710,0
-1306,-3821,709,0
-1305,-3821,707,0
-1305,-3817,710,0
-1302,-3813,713,0
-1296,-3812,711,0
-1292,-3808,714,0
-1291,-3814,713,0
-1294,-3811,717,0
-1291,-3811,715,0
-1293,-3813,718,0
-1291,-3815,721,0
-1294,-3813,726,0
-1292,-3814,726,0
-1291,-3812,727,0
-1292,-3813,726,0
-1288,-3811,722,0
-1289,-3809,719,0
-1288,-3810,715,0
-1287,-3815,710,0
-1289,-3814,713,0
-1292,-3813,717,0
-1297,-3814,714,0
-1301,-3815,715,0
-1306,-3812,721,0
-1306,-3813,717,0
-1309,-3815,717,0
-1310,-3817,714,0
-1314,-3821,712,0
-1314,-3821,710,0
-1314,-3820,706,0
-1316,-3821,705,0
-1316,-3822,702,0
-1314,-3823,697,0
-1312,-3827,697,0
-1312,-3825,696,0
-1313,-3827,694,0
-1310,-3827,694,0
-1312,-3828,697,0
-1310,-3826,699,0
-1307,-3828,700,0
-1303,-3824,702,0
-1302,-3826,706,0
-1295,-3827,706,0
-1297,-3827,708,0
-1297,-3830,712,0
-1297,-3828,714,0
-1296,-3828,711,0
-1292,-3825,712,0
-1291,-3823,715,0
-1294,-3819,717,0
-1294,-3817,717,0
-1299,-3818,716,0
-1301,-3819,716,0
-1304,-3820,716,0
-1303,-3821,716,0
-1304,-3818,714,0
-1305,-3815,713,0
-1306,-3812,712,0
-1302,-3806,714,0
-1304,-3807,716,0
-1308,-3808,717,0
-1308,-3805,717,0
-1311,-3805,713,0
-1305,-3803,711,0
-1306,-3802,708,0
-1306,-3806,714,0
-1307,-3804,714,0
-1306,-3807,717,0
-1304,-3806,716,0
-1304,-3806,715,0
-1309,-3809,715,0
-1307,-3811,712,0
-1308,-3813,713,0
-1308,-3814,711,0
-1312,-3816,713,0
-1312,-3816,716,0
-1313,-3814,717,0
-1316,-3813,717,0
-1317,-3817,717,0
-1321,-3818,716,0
-1320,-3819,718,0
-1318,-3818,718,0
-1319,-3817,719,0
-1319,-3816,719,0
-1317,-3816,718,0
-1317,-3816,713,0
-1311,-3815,713,0
-1314,-3815,712,0
-1311,-3817,710,0
-1312,-3815,710,0
-1313,-3817,712,0
-1314,-3817,712,0
-1311,-3819,712,0
-1308,-3818,710,0
-1306,-3817,713,0
-1300,-3818,712,0
-1301,-3816,713,0
-1302,-3816,713,0
-1303,-3815,711,0
-1305,-3815,710,0
-1305,-3815,713,0
-1304,-3817,713,0
-1304,-3815,716,0
-1306,-3815,715,0
-1305,-3814,714,0
-1308,-3817,712,0
-1304,-3816,712,0
-1309,-3814,708,0
-1314,-3813,707,0
-1308,-3811,706,0
-1312,-3813,705,0
-1311,-3813,706,0
-1313,-3814,706,0
-1314,-3813,708,0
-1311,-3810,712,0
-1314,-3812,712,0
-1314,-3813,710,0
-1315,-3815,708,0
-1312,-3813,712,0
-1312,-3813,714,0
-1313,-3816,712,0
-1313,-3816,711,0
-1311,-3815,713,0
-1308,-3819,714,0
-1310,-3819,715,0
-1311,-3819,712,0
-1307,-3816,711,0
-1310,-3812,715,0
-1311,-3812,715,0
-1311,-3814,716,0
-1313,-3814,718,0
-1312,-3811,718,0
-1316,-3807,717,0
-1316,-3808,715,0
-1314,-3809,717,0
-1312,-3813,719,0
-1314,-3810,720,0
-1317,-3810,720,0
-1319,-3813,718,0
-1319,-3812,719,0
-1319,-3811,718,0
-1320,-3809,717,0
-1322,-3808,715,0
-1322,-3808,717,0
-1322,-3806,718,0
-1324,-3807,719,0
-1323,-3807,718,0
-1326,-3810,716,0
-1324,-3809,716,0
-1325,-3805,717,0
-1324,-3801,714,0
-1323,-3806,717,0
-1322,-3801,716,0
-1321,-3804,715,0
-1318,-3808,717,0
-1317,-3810,718,0
-1319,-3809,719,0
-1317,-3809,721,0
-1315,-3808,725,0
-1315,-3809,728,0
-1314,-3805,728,0
-1311,-3803,726,0
-1312,-3805,723,0
-1309,-3808,721,0
-1305,-3808,719,0
-1304,-3809,719,0
-1304,-3809,718,0
-1304,-3806,720,0
-1311,-3806,721,0
-1316,-3808,720,0
-1316,-3804,723,0
-1317,-3805,719,0
-1317,-3809,719,0
-1318,-3811,718,0
-1324,-3812,719,0
-1327,-3814,715,0
-1330,-3814,715,0
-1333,-3815,716,0
-1335,-3816,712,0
-1336,-3815,711,0
-1336,-3815,710,0
-1339,-3815,709,0
-1338,-3816,707,0
-1337,-3818,705,0
-1338,-3817,705,0
-1336,-3817,704,0
-1332,-3818,705,0
-1333,-3817,704,0
-1329,-3817,706,0
-1325,-3818,706,0
-1326,-3818,709,0
-1322,-3819,714,0
-1320,-3816,719,0
-1316,-3814,718,0
-1317,-3815,717,0
-1317,-3816,721,0
-1315,-3818,723,0
-1320,-3816,721,0
-1319,-3813,719,0
-1320,-3815,719,0
-1318,-3813,721,0
-1318,-3813,719,0
-1320,-3812,723,0
-1322,-3812,722,0
-1321,-3808,725,0
-1324,-3805,722,0
-1326,-3805,721,0
-1327,-3804,718,0
-1331,-3806,720,0
-1327,-3806,715,0
-1329,-3806,716,0
-1331,-3810,715,0
-1331,-3810,721,0
-1330,-3809,722,0
-1329,-3805,721,0
-1328,-3804,724,0
-1328,-3803,720,0
-1327,-3807,721,0
-1327,-3808,718,0
-1325,-3808,719,0
-1323,-3808,718,0
-1325,-3811,718,0
-1326,-3809,719,0
-1328,-3810,717,0
-1330,-3811,713,0
-1327,-3812,715,0
-1329,-3813,717,0
-1328,-3813,714,0
-1330,-3809,715,0
-1332,-3812,713,0
-1331,-3814,716,0
-1330,-3809,714,0
-1326,-3811,715,0
-1328,-3811,714,0
-1327,-3810,713,0
-1322,-3807,713,0
-1319,-3805,716,0
-1316,-3810,715,0
-1315,-3806,718,0
-1312,-3809,721,0
-1311,-3809,720,0
-1309,-3810,722,0
-1310,-3809,722,0
-1313,-3813,718,0
-1315,-3815,716,0
-1311,-3817,717,0
-1312,-3818,717,0
-1312,-3820,714,0
-1313,-3818,712,0
-1313,-3819,711,0
-1317,-3817,711,0
-1318,-3816,713,0
-1321,-3816,712,0
-1323,-3810,711,0
-1324,-3812,713,0
-1324,-3814,716,0
-1327,-3815,715,0
-1327,-3816,715,0
-1325,-3813,712,0
-1322,-3813,715,0
-1326,-3811,718,0
-1329,-3809,717,0
-1327,-3812,718,0
-1323,-3810,716,0
-1323,-3814,720,0
-1323,-3812,716,0
-1324,-3814,719,0
-1323,-3813,720,0
-1323,-3815,719,0
-1323,-3816,718,0
-1325,-3817,720,0
-1323,-3817,717,0
-1318,-3817,721,0
-1322,-3817,720,0
-1321,-3814,720,0
-1318,-3812,721,0
-1317,-3809,723,0
-1318,-3807,724,0
-1318,-3809,723,0
-1314,-3808,720,0
-1312,-3807,720,0
-1312,-3808,722,0
-1313,-3809,721,0
-1313,-3807,724,0
-1314,-3805,721,0
-1313,-3806,721,0
-1314,-3811,720,0
-1317,-3809,720,0
-1318,-3804,721,0
-1322,-3805,721,0
-1320,-3805,719,0
-1322,-3804,716,0
-1322,-3805,717,0
-1322,-3807,716,0
-1323,-3808,715,0
-1322,-3807,715,0
-1320,-3806,711,0
-1316,-3805,709,0
-1314,-3808,708,0
-1307,-3808,708,0
-1306,-3807,708,0
-1299,-3808,711,0
-1295,-3812,712,0
-1291,-3814,713,0
-1288,-3816,717,0
-1288,-3819,720,0
-1292,-3821,726,0
-1291,-3820,725,0
-1296,-3821,726,0
-1301,-3817,726,0
-1300,-3818,720,0
-1302,-3822,712,0
-1306,-3822,704,0
-1310,-3819,699,0
-1310,-3821,701,0
-1313,-3820,701,0
-1319,-3819,702,0
-1322,-3819,702,0
-1325,-3819,706,0
-1326,-3819,706,0
-1328,-3818,708,0
-1331,-3821,707,0
-1333,-3819,707,0
-1332,-3820,705,0
-1332,-3819,699,0
-1328,-3821,700,0
-1325,-3823,699,0
-1324,-3824,696,0
-1321,-3828,695,0
-1319,-3831,694,0
-1315,-3829,694,0
-1311,-3827,696,0
-1309,-3827,699,0
-1306,-3832,702,0
-1301,-3834,704,0
-1299,-3833,704,0
-1298,-3830,707,0
-1295,-3827,711,0
-1296,-3826,716,0
-1294,-3823,715,0
-1291,-3819,715,0
-1295,-3816,716,0
-1294,-3811,720,0
-1291,-3810,721,0
-1294,-3810,719,0
-1294,-3809,720,0
-1299,-3806,720,0
-1299,-3805,720,0
-1301,-3802,717,0
-1304,-3804,719,0
-1301,-3802,721,0
-1299,-3798,720,0
-1299,-3805,722,0
-1300,-3803,721,0
-1299,-3802,720,0
-1297,-3804,720,0
-1299,-3802,714,0
-1297,-3803,709,0
-1292,-3803,706,0
-1288,-3801,708,0
-1289,-3805,707,0
-1288,-3809,707,0
-1288,-3811,710,0
-1290,-3812,712,0
-1287,-3816,709,0
-1288,-3816,710,0
-1287,-3820,708,0
-1290,-3819,705,0
-1289,-3821,702,0
-1294,-3822,699,0
-1294,-3822,698,0
-1299,-3817,697,0
-1303,-3824,695,0
-1304,-3823,694,0
-1308,-3825,696,0
-1308,-3825,697,0
-1311,-3826,696,0
-1312,-3828,696,0
-1310,-3834,697,0
-1312,-3837,691,0
-1312,-3841,690,0
-1310,-3840,687,0
-1310,-3841,688,0
-1306,-3840,686,0
-1304,-3839,685,0
-1303,-3841,684,0
-1299,-3838,684,0
-1298,-3839,686,0
-1292,-3838,686,0
-1289,-3836,687,0
-1287,-3835,687,0
-1286,-3838,686,0
-1287,-3839,687,0
-1283,-3839,688,0
-1281,-3836,688,0
-1280,-3837,689,0
-1278,-3834,688,0
-1275,-3830,689,0
-1275,-3824,693,0
-1276,-3823,693,0
-1275,-3822,695,0
-1274,-3822,696,0
-1275,-3821,696,0
-1278,-3818,696,0
-1276,-3816,698,0
-1279,-3818,699,0
-1279,-3817,697,0
-1279,-3815,696,0
-1277,-3812,699,0
-1279,-3812,698,0
-1276,-3814,696,0
-1281,-3816,693,0
-1284,-3815,693,0
-1283,-3816,695,0
-1284,-3818,697,0
-1284,-3820,697,0
-1284,-3820,697,0
-1285,-3819,697,0
-1283,-3820,695,0
-1283,-3827,694,0
-1282,-3825,695,0
-1283,-3824,694,0
-1282,-3823,698,0
-1287,-3824,696,0
-1289,-3832,698,0
-1290,-3835,697,0
-1291,-3837,696,0
-1291,-3833,696,0
-1288,-3833,694,0
-1285,-3834,694,0
-1284,-3834,693,0
-1283,-3828,693,0
-1279,-3826,691,0
-1280,-3824,694,0
-1278,-3822,693,0
-1274,-3818,697,0
-1271,-3816,699,0
-1269,-3814,697,0
-1270,-3815,691,0
-1267,-3813,691,0
-1263,-3815,694,0
-1261,-3817,695,0
-1259,-3819,696,0
-1264,-3821,697,0
-1265,-3823,699,0
-1264,-3822,700,0
-1265,-3820,701,0
-1266,-3823,702,0
-1270,-3822,702,0
-1272,-3822,697,0
-1271,-3822,694,0
-1272,-3819,688,0
-1274,-3824,685,0
-1276,-3829,681,0
-1271,-3828,680,0
-1273,-3830,682,0
-1274,-3828,681,0
-1277,-3831,682,0
-1280,-3834,679,0
-1283,-3838,679,0
-1278,-3842,676,0
-1277,-3845,673,0
-1276,-3845,670,0
-1274,-3847,666,0
-1275,-3845,662,0
-1276,-3845,664,0
-1271,-3846,664,0
-1273,-3846,666,0
-1271,-3846,668,0
-1267,-3847,670,0
-1262,-3850,672,0
-1260,-3848,675,0
-1258,-3846,680,0
-1260,-3846,679,0
-1258,-3846,682,0
-1256,-3844,685,0
-1256,-3845,689,0
-1258,-3844,693,0
-1260,-3838,697,0
-1259,-3837,695,0
-1258,-3832,690,0
-1260,-3829,692,0
-1261,-3825,694,0
-1261,-3824,694,0
-1263,-3820,696,0
-1261,-3819,698,0
-1261,-3818,696,0
-1260,-3813,698,0
-1261,-3810,697,0
-1260,-3811,694,0
-1261,-3810,694,0
-1259,-3809,694,0
-1256,-3810,695,0
-1259,-3808,698,0
-1257,-3809,700,0
-1258,-3808,704,0
-1254,-3811,705,0
-1256,-3814,709,0
-1257,-3814,707,0
-1263,-3813,704,0
-1262,-3814,697,0
-1261,-3816,693,0
-1263,-3820,693,0
-1263,-3824,690,0
-1263,-3828,690,0
-1265,-3828,690,0
-1270,-3827,690,0
-1271,-3834,691,0
-1273,-3839,692,0
-1280,-3841,690,0
-1284,-3840,686,0
-1280,-3841,684,0
-1285,-3842,679,0
-1283,-3843,676,0
-1281,-3843,672,0
-1278,-3841,672,0
-1275,-3846,666,0
-1277,-3846,665,0
-1277,-3849,669,0
-1275,-3846,670,0
-1274,-3843,671,0
-1271,-3845,671,0
-1268,-3846,676,0
-1267,-3849,678,0
-1263,-3849,676,0
-1261,-3851,676,0
-1259,-3850,677,0
-1259,-3849,680,0
-1259,-3847,681,0
-1261,-3845,678,0
-1262,-3843,680,0
-1263,-3839,682,0
-1265,-3839,679,0
-1266,-3834,683,0
-1269,-3830,684,0
-1273,-3826,685,0
-1274,-3826,685,0
-1277,-3825,684,0
-1279,-3823,688,0
-1280,-3823,686,0
-1283,-3824,686,0
-1282,-3822,688,0
-1280,-3818,687,0
-1281,-3819,690,0
-1280,-3817,694,0
-1280,-3817,696,0
-1278,-3818,695,0
-1272,-3816,695,0
-1266,-3815,696,0
-1264,-3819,699,0
-1266,-3819,703,0
-1264,-3819,703,0
-1265,-3821,705,0
-1268,-3823,708,0
-1268,-3826,705,0
-1270,-3824,703,0
-1268,-3824,702,0
-1270,-3821,700,0
-1278,-3818,696,0
-1281,-3814,692,0
-1278,-3805,692,0
-1276,-3789,688,0
-1270,-3770,683,0
-1262,-3753,670,0
-1254,-3735,661,0
-1242,-3719,651,0
-1227,-3702,641,0
-1213,-3696,635,0
-1196,-3689,638,0
-1177,-3676,650,0
-1162,-3664,671,0
-1149,-3647,705,0
-1138,-3631,744,0
-1130,-3609,787,0
-1126,-3592,827,0
-1126,-3574,860,0
-1129,-3557,886,0
-1133,-3541,903,0
-1142,-3532,905,0
-1154,-3525,899,0
-1168,-3517,879,0
-1175,-3522,853,0
-1187,-3532,826,0
-1196,-3542,799,0
-1208,-3555,771,0
-1219,-3566,754,0
-1227,-3579,739,0
-1237,-3585,726,0
-1242,-3591,722,0
-1248,-3594,717,0
-1258,-3603,709,0
-1269,-3615,708,0
-1277,-3622,703,0
-1284,-3631,703,0
-1294,-3641,697,0
-1299,-3643,686,0
-1311,-3651,676,0
-1322,-3656,658,0
-1328,-3666,642,0
-1338,-3672,624,0
-1346,-3679,608,0
-1358,-3694,600,0
-1368,-3707,592,0
-1380,-3719,585,0
-1392,-3730,576,0
-1403,-3751,563,0
-1416,-3770,550,0
-1428,-3797,533,0
-1437,-3827,512,0
-1444,-3855,495,0
-1451,-3880,477,0
-1454,-3900,460,0
-1458,-3921,447,0
-1451,-3940,437,0
-1448,-3957,427,0
-1443,-3972,413,0
-1441,-3998,404,0
-1441,-4020,399,0
-1440,-4031,395,0
-1440,-4040,386,0
-1432,-4051,375,0
-1433,-4062,362,0
-1431,-4077,344,0
-1430,-4086,327,0
-1429,-4093,311,0
-1429,-4101,292,0
-1428,-4111,269,0
-1426,-4120,247,0
-1429,-4117,233,0
-1430,-4108,232,0
-1439,-4084,237,0
-1454,-4044,253,0
-1451,-4047,232,0
-1444,-4071,193,0
-1434,-4087,160,0
-1427,-4094,141,0
-1418,-4097,138,0
-1408,-4083,146,0
-1395,-4060,160,0
-1379,-4039,176,0
-1365,-4025,188,0
-1355,-4014,202,0
-1342,-4009,215,0
-1330,-3999,225,0
-1325,-3992,229,0
-1322,-3986,224,0
-1322,-3985,215,0
-1323,-3988,206,0
-1322,-3998,193,0
-1330,-4013,179,0
-1336,-4023,164,0
-1350,-4031,155,0
-1361,-4035,148,0
-1375,-4027,151,0
-1389,-4007,157,0
-1399,-3987,169,0
-1411,-3969,184,0
-1418,-3951,196,0
-1427,-3939,211,0
-1424,-3926,224,0
-1418,-3918,234,0
-1415,-3915,245,0
-1409,-3916,260,0
-1401,-3914,278,0
-1399,-3903,296,0
-1392,-3901,316,0
-1386,-3905,330,0
-1381,-3914,341,0
-1378,-3924,357,0
-1376,-3930,371,0
-1369,-3932,383,0
-1364,-3929,394,0
-1360,-3930,408,0
-1359,-3928,420,0
-1354,-3927,434,0
-1351,-3922,447,0
-1351,-3914,457,0
-1349,-3902,466,0
-1351,-3889,472,0
-1351,-3869,477,0
-1351,-3857,482,0
-1353,-3847,486,0
-1356,-3842,501,0
-1360,-3840,511,0
-1363,-3833,529,0
-1372,-3822,546,0
-1379,-3809,563,0
-1394,-3794,581,0
-1408,-3783,592,0
-1416,-3772,590,0
-1430,-3767,585,0
-1439,-3773,577,0
-1453,-3779,567,0
-1461,-3783,556,0
-1469,-3787,544,0
-1481,-3792,541,0
-1490,-3789,538,0
-1497,-3782,542,0
-1506,-3784,547,0
-1507,-3790,559,0
-1508,-3795,567,0
-1502,-3797,576,0
-1494,-3794,575,0
-1484,-3788,576,0
-1470,-3787,571,0
-1458,-3778,569,0
-1437,-3773,568,0
-1420,-3768,567,0
-1402,-3769,568,0
-1389,-3764,571,0
-1376,-3761,581,0
-1366,-3760,595,0
-1356,-3751,622,0
-1347,-3738,646,0
-1345,-3727,668,0
-1347,-3704,684,0
-1351,-3682,698,0
-1356,-3668,708,0
-1366,-3647,710,0
-1376,-3622,710,0
-1386,-3602,712,0
-1400,-3584,708,0
-1415,-3563,703,0
-1427,-3544,695,0
-1431,-3533,687,0
-1438,-3530,679,0
-1446,-3533,668,0
-1452,-3540,660,0
-1454,-3551,649,0
-1458,-3567,640,0
-1462,-3590,640,0
-1462,-3611,636,0
-1461,-3626,633,0
-1460,-3643,631,0
-1463,-3656,633,0
-1459,-3661,635,0
-1456,-3657,638,0
-1454,-3651,643,0
-1450,-3639,646,0
-1443,-3622,651,0
-1442,-3603,661,0
-1434,-3580,672,0
-1429,-3561,680,0
-1424,-3548,688,0
-1421,-3542,694,0
-1418,-3537,707,0
-1414,-3548,727,0
-1413,-3556,735,0
-1416,-3561,739,0
-1420,-3559,731,0
-1423,-3559,717,0
-1434,-3556,697,0
-1445,-3550,668,0
-1452,-3552,636,0
-1460,-3558,610,0
-1468,-3565,580,0
-1477,-3566,537,0
-1486,-3578,487,0
-1492,-3588,437,0
-1492,-3596,389,0
-1487,-3605,350,0
-1480,-3612,302,0
-1467,-3627,256,0
-1452,-3645,224,0
-1434,-3660,190,0
-1420,-3676,154,0
-1400,-3694,127,0
-1380,-3718,100,0
-1351,-3730,74,0
-1321,-3736,53,0
-1290,-3736,28,0
-1253,-3734,6,0
-1222,-3730,-18,0
-1187,-3716,-40,0
-1155,-3708,-66,0
-1131,-3706,-97,0
-1109,-3709,-124,0
-1099,-3716,-154,0
-1096,-3718,-173,0
-1101,-3716,-188,0
-1112,-3714,-212,0
-1118,-3710,-229,0
-1117,-3716,-248,0
-1121,-3721,-285,0
-1118,-3723,-313,0
-1116,-3731,-354,0
-1109,-3729,-401,0
-1099,-3723,-451,0
-1089,-3718,-519,0
-1074,-3723,-574,0
-1057,-3746,-628,0
-1035,-3782,-675,0
-1001,-3820,-718,0
-971,-3855,-773,0
-938,-3879,-828,0
-904,-3885,-890,0
-874,-3895,-956,0
-837,-3908,-1005,0
-803,-3935,-1081,0
-783,-3967,-1186,0
-773,-4001,-1305,0
-767,-4019,-1435,0
-757,-4024,-1541,0
-749,-4019,-1583,0
-731,-4021,-1583,0
-694,-4047,-1579,0
-654,-4067,-1583,0
-612,-4085,-1574,0
-579,-4067,-1519,0
-551,-3998,-1428,0
-553,-3882,-1310,0
-526,-3739,-1088,0
-572,-3582,-900,0
-683,-3453,-720,0
-784,-3316,-546,0
-842,-3193,-419,0
-806,-3147,-288,0
-767,-3132,-254,0
-739,-3135,-278,0
-712,-3143,-332,0
-680,-3161,-412,0
-657,-3213,-548,0
-636,-3282,-743,0
-598,-3356,-949,0
-560,-3459,-1175,0
-525,-3545,-1405,0
-494,-3631,-1611,0
-463,-3690,-1759,0
-442,-3737,-1817,0
-435,-3794,-1862,0
-431,-3825,-1877,0
-396,-3844,-1871,0
-409,-3799,-1850,0
-447,-3777,-1839,0
-493,-3769,-1870,0
-527,-3774,-1926,0
-539,-3804,-1988,0
-522,-3846,-2038,0
-497,-3893,-2094,0
-474,-3953,-2150,0
-459,-3987,-2197,0
-457,-4008,-2236,0
-459,-4032,-2286,0
-460,-4055,-2343,0
-459,-4063,-2406,0
-453,-4065,-2452,0
-449,-4061,-2483,0
-450,-4052,-2509,0
-440,-4036,-2532,0
-416,-4016,-2549,0
-393,-3979,-2544,0
-377,-3937,-2504,0
-372,-3897,-2463,0
-357,-3872,-2418,0
-343,-3849,-2369,0
-339,-3828,-2324,0
-340,-3806,-2298,0
-349,-3788,-2263,0
-361,-3769,-2234,0
-362,-3758,-2209,0
-366,-3740,-2187,0
-379,-3731,-2174,0
-385,-3725,-2177,0
-384,-3713,-2204,0
-371,-3690,-2240,0
-359,-3670,-2281,0
-354,-3640,-2311,0
-347,-3606,-2323,0
-337,-3569,-2352,0
-316,-3532,-2357,0
-304,-3472,-2353,0
-298,-3409,-2359,0
-294,-3360,-2381,0
-289,-3327,-2394,0
-284,-3291,-2359,0
-291,-3239,-2295,0
-290,-3189,-2211,0
-285,-3169,-2190,0
-270,-3175,-2197,0
-265,-3184,-2202,0
-280,-3185,-2194,0
-300,-3187,-2191,0
-316,-3200,-2204,0
-310,-3214,-2228,0
-303,-3226,-2250,0
-299,-3238,-2299,0
-291,-3254,-2344,0
-287,-3265,-2389,0
-281,-3279,-2444,0
-270,-3279,-2475,0
-263,-3278,-2536,0
-252,-3292,-2589,0
-244,-3294,-2621,0
-236,-3292,-2583,0
-258,-3247,-2523,0
-260,-3230,-2517,0
-237,-3222,-2484,0
-223,-3221,-2492,0
-211,-3229,-2475,0
-210,-3209,-2456,0
-203,-3193,-2469,0
-192,-3194,-2479,0
-199,-3185,-2486,0
-153,-3214,-2451,0
-186,-3158,-2518,0
-183,-3159,-2556,0
-170,-3144,-2534,0
-167,-3126,-2553,0
-144,-3131,-2565,0
-136,-3117,-2558,0
-131,-3113,-2598,0
-118,-3117,-2617,0
-108,-3125,-2632,0
-109,-3102,-2665,0
-94,-3085,-2706,0
-85,-3056,-2718,0
-82,-3010,-2703,0
-86,-2977,-2722,0
-86,-2953,-2750,0
-73,-2934,-2792,0
-40,-2928,-2803,0
-41,-2895,-2812,0
-35,-2876,-2856,0
-11,-2863,-2864,0
-8,-2830,-2875,0
-8,-2813,-2899,0
-4,-2798,-2929,0
-4,-2787,-2955,0
-2,-2760,-2962,0
-1,-2746,-3002,0
3,-2750,-3041,0
9,-2742,-3079,0
24,-2737,-3130,0
34,-2735,-3182,0
39,-2723,-3225,0
47,-2705,-3266,0
51,-2684,-3268,0
42,-2661,-3273,0
35,-2636,-3279,0
49,-2619,-3289,0
68,-2599,-3306,0
64,-2577,-3317,0
69,-2557,-3341,0
73,-2539,-3352,0
87,-2527,-3333,0
84,-2515,-3341,0
83,-2503,-3368,0
105,-2490,-3382,0
107,-2475,-3416,0
111,-2460,-3449,0
119,-2440,-3469,0
124,-2416,-3482,0
134,-2388,-3509,0
144,-2360,-3526,0
146,-2339,-3544,0
170,-2326,-3550,0
194,-2295,-3582,0
226,-2253,-3606,0
237,-2212,-3605,0
245,-2191,-3641,0
256,-2166,-3656,0
264,-2140,-3652,0
274,-2096,-3637,0
281,-2057,-3637,0
293,-2016,-3645,0
299,-1973,-3645,0
302,-1922,-3637,0
306,-1893,-3645,0
306,-1850,-3656,0
302,-1814,-3665,0
294,-1775,-3680,0
288,-1748,-3711,0
291,-1730,-3738,0
277,-1699,-3775,0
280,-1677,-3819,0
278,-1650,-3857,0
268,-1630,-3902,0
269,-1603,-3940,0
293,-1586,-3967,0
313,-1536,-3955,0
329,-1499,-3973,0
340,-1483,-4006,0
345,-1462,-4050,0
359,-1453,-4089,0
366,-1434,-4120,0
377,-1419,-4159,0
389,-1403,-4201,0
399,-1383,-4229,0
411,-1363,-4256,0
410,-1334,-4267,0
422,-1303,-4283,0
425,-1276,-4294,0
441,-1257,-4331,0
453,-1241,-4356,0
460,-1220,-4358,0
459,-1196,-4357,0
458,-1167,-4349,0
455,-1146,-4338,0
455,-1121,-4332,0
456,-1097,-4341,0
458,-1072,-4348,0
454,-1053,-4345,0
454,-1016,-4323,0
446,-978,-4293,0
439,-944,-4267,0
434,-908,-4246,0
435,-878,-4234,0
435,-860,-4232,0
438,-832,-4227,0
446,-811,-4240,0
452,-776,-4237,0
464,-754,-4231,0
462,-743,-4225,0
466,-730,-4218,0
469,-715,-4225,0
475,-701,-4231,0
481,-680,-4231,0
488,-670,-4237,0
490,-654,-4237,0
498,-640,-4224,0
504,-634,-4218,0
501,-630,-4218,0
500,-635,-4222,0
495,-634,-4214,0
494,-628,-4208,0
498,-623,-4192,0
500,-617,-4176,0
507,-614,-4175,0
503,-615,-4161,0
500,-612,-4153,0
498,-607,-4135,0
510,-605,-4128,0
519,-600,-4122,0
525,-589,-4117,0
528,-575,-4114,0
524,-560,-4105,0
520,-541,-4095,0
518,-526,-4082,0
519,-514,-4063,0
513,-508,-4050,0
525,-508,-4036,0
519,-497,-4008,0
521,-497,-4005,0
527,-479,-3993,0
525,-464,-3988,0
526,-446,-3984,0
528,-435,-3990,0
539,-432,-4000,0
539,-407,-4000,0
546,-388,-4002,0
551,-379,-4003,0
568,-366,-4008,0
577,-353,-4015,0
585,-343,-4024,0
593,-330,-4030,0
590,-315,-4031,0
590,-305,-4037,0
589,-299,-4040,0
587,-290,-4040,0
586,-281,-4038,0
585,-265,-4028,0
586,-253,-4026,0
582,-239,-4032,0
577,-221,-4052,0
578,-204,-4072,0
583,-177,-4088,0
583,-149,-4105,0
584,-134,-4118,0
582,-114,-4128,0
583,-89,-4140,0
583,-59,-4153,0
585,-42,-4166,0
581,-18,-4178,0
584,6,-4192,0
583,39,-4194,0
582,66,-4190,0
588,87,-4188,0
590,128,-4174,0
583,154,-4183,0
586,169,-4192,0
593,186,-4190,0
586,205,-4184,0
587,215,-4186,0
587,230,-4181,0
592,252,-4173,0
598,274,-4171,0
598,284,-4166,0
606,303,-4155,0
608,331,-4140,0
607,344,-4127,0
605,370,-4119,0
605,396,-4109,0
602,416,-4106,0
596,432,-4108,0
591,466,-4109,0
581,484,-4121,0
586,498,-4134,0
596,521,-4142,0
599,539,-4155,0
599,554,-4167,0
598,572,-4180,0
597,582,-4190,0
602,599,-4196,0
606,613,-4204,0
615,622,-4207,0
615,650,-4207,0
605,670,-4217,0
609,682,-4226,0
606,705,-4228,0
604,729,-4237,0
612,763,-4245,0
609,782,-4244,0
600,814,-4238,0
593,848,-4232,0
582,887,-4228,0
575,921,-4218,0
577,947,-4207,0
578,977,-4198,0
585,1000,-4185,0
587,1023,-4168,0
590,1048,-4150,0
584,1086,-4145,0
580,1113,-4128,0
565,1136,-4115,0
553,1163,-4103,0
549,1183,-4101,0
545,1207,-4093,0
535,1246,-4090,0
540,1276,-4094,0
539,1305,-4091,0
523,1342,-4093,0
515,1366,-4083,0
502,1395,-4083,0
512,1427,-4085,0
504,1464,-4094,0
496,1490,-4094,0
504,1509,-4089,0
504,1539,-4086,0
502,1552,-4093,0
510,1575,-4097,0
518,1589,-4101,0
532,1614,-4102,0
545,1651,-4106,0
549,1693,-4100,0
551,1727,-4083,0
555,1751,-4059,0
555,1776,-4034,0
553,1795,-3999,0
554,1836,-3963,0
549,1861,-3943,0
546,1947,-3900,0
527,1915,-3905,0
496,1936,-3902,0
492,1986,-3884,0
486,2011,-3868,0
473,2046,-3854,0
462,2106,-3832,0
448,2153,-3815,0
440,2158,-3794,0
429,2181,-3763,0
424,2239,-3736,0
408,2244,-3727,0
392,2278,-3700,0
362,2284,-3678,0
365,2349,-3676,0
378,2403,-3670,0
361,2403,-3647,0
336,2415,-3634,0
324,2427,-3621,0
304,2458,-3607,0
312,2494,-3595,0
316,2548,-3556,0
319,2532,-3534,0
314,2544,-3497,0
311,2562,-3448,0
323,2539,-3406,0
322,2521,-3361,0
324,2544,-3333,0
315,2553,-3320,0
314,2591,-3277,0
300,2611,-3240,0
274,2622,-3201,0
259,2667,-3154,0
254,2639,-3131,0
231,2630,-3093,0
203,2680,-3039,0
185,2747,-2996,0
167,2758,-2976,0
131,2749,-2984,0
114,2769,-2987,0
116,2795,-2986,0
122,2844,-3000,0
135,2910,-3000,0
139,2948,-3026,0
134,2993,-3018,0
125,3037,-2992,0
130,3082,-2942,0
132,3096,-2889,0
123,3091,-2835,0
115,3067,-2770,0
110,3050,-2704,0
98,3046,-2628,0
67,3069,-2555,0
45,3048,-2528,0
30,3051,-2490,0
13,3080,-2470,0
2,3102,-2466,0
-4,3123,-2451,0
-1,3116,-2454,0
3,3127,-2442,0
5,3178,-2422,0
12,3217,-2398,0
19,3217,-2383,0
27,3213,-2367,0
43,3222,-2357,0
64,3226,-2348,0
85,3252,-2323,0
108,3258,-2292,0
125,3246,-2257,0
139,3187,-2214,0
149,3117,-2149,0
151,3052,-2077,0
145,2986,-2011,0
135,2936,-1953,0
123,2908,-1900,0
116,2889,-1859,0
109,2870,-1839,0
108,2855,-1819,0
114,2848,-1813,0
126,2869,-1816,0
138,2910,-1834,0
153,2964,-1864,0
171,3015,-1917,0
193,3069,-1984,0
214,3128,-2061,0
229,3181,-2135,0
240,3228,-2198,0
252,3263,-2256,0
265,3288,-2296,0
276,3299,-2314,0
296,3304,-2313,0
309,3303,-2307,0
326,3302,-2290,0
337,3287,-2275,0
343,3277,-2249,0
351,3258,-2226,0
353,3248,-2200,0
363,3231,-2176,0
367,3213,-2157,0
360,3202,-2140,0
360,3198,-2135,0
364,3196,-2134,0
364,3198,-2138,0
362,3200,-2141,0
354,3204,-2147,0
343,3206,-2155,0
331,3212,-2168,0
319,3222,-2182,0
313,3234,-2197,0
314,3248,-2214,0
326,3259,-2236,0
340,3275,-2256,0
350,3280,-2278,0
357,3291,-2299,0
368,3302,-2325,0
382,3311,-2346,0
390,3322,-2365,0
395,3334,-2384,0
405,3342,-2405,0
416,3352,-2424,0
427,3358,-2440,0
432,3359,-2449,0
435,3364,-2458,0
437,3365,-2465,0
441,3357,-2468,0
443,3350,-2467,0
446,3338,-2469,0
445,3328,-2468,0
449,3314,-2466,0
450,3305,-2466,0
446,3292,-2462,0
434,3278,-2458,0
416,3260,-2450,0
397,3244,-2439,0
378,3224,-2434,0
359,3212,-2430,0
352,3196,-2429,0
347,3177,-2425,0
337,3164,-2422,0
330,3156,-2433,0
331,3146,-2438,0
328,3137,-2447,0
330,3125,-2454,0
330,3119,-2465,0
332,3107,-2474,0
340,3104,-2484,0
346,3098,-2494,0
353,3093,-2512,0
359,3095,-2523,0
364,3093,-2537,0
369,3093,-2549,0
373,3101,-2563,0
375,3109,-2576,0
373,3113,-2587,0
371,3121,-2596,0
371,3135,-2604,0
374,3146,-2613,0
377,3147,-2614,0
372,3158,-2622,0
372,3166,-2627,0
370,3177,-2635,0
371,3189,-2637,0
367,3202,-2649,0
363,3219,-2662,0
360,3228,-2673,0
355,3239,-2688,0
358,3248,-2699,0
359,3260,-2714,0
358,3267,-2723,0
360,3271,-2726,0
352,3269,-2723,0
342,3271,-2723,0
338,3270,-2724,0
336,3269,-2715,0
332,3262,-2709,0
328,3255,-2697,0
323,3245,-2684,0
319,3236,-2669,0
314,3229,-2653,0
306,3220,-2641,0
305,3210,-2626,0
307,3201,-2616,0
305,3193,-2607,0
304,3186,-2602,0
304,3179,-2594,0
302,3174,-2587,0
305,3171,-2581,0
311,3169,-2575,0
313,3175,-2572,0
315,3177,-2572,0
319,3177,-2573,0
321,3180,-2575,0
326,3181,-2577,0
327,3189,-2577,0
332,3193,-2579,0
329,3199,-2575,0
334,3200,-2568,0
332,3204,-2567,0
333,3210,-2569,0
337,3210,-2566,0
337,3211,-2566,0
338,3211,-2565,0
340,3216,-2559,0
343,3215,-2552,0
340,3214,-2547,0
342,3220,-2544,0
340,3219,-2537,0
343,3215,-2530,0
341,3212,-2527,0
343,3210,-2526,0
343,3211,-2522,0
340,3211,-2520,0
345,3207,-2515,0
349,3205,-2509,0
348,3201,-2501,0
345,3195,-2494,0
346,3194,-2493,0
343,3192,-2496,0
341,3185,-2500,0
340,3183,-2502,0
341,3181,-2504,0
343,3181,-2502,0
342,3177,-2503,0
341,3171,-2499,0
341,3170,-2501,0
338,3171,-2500,0
337,3169,-2503,0
338,3167,-2508,0
340,3168,-2514,0
338,3169,-2520,0
337,3169,-2524,0
338,3166,-2532,0
337,3168,-2536,0
335,3168,-2539,0
335,3169,-2544,0
338,3177,-2553,0
337,3179,-2560,0
336,3175,-2571,0
338,3180,-2578,0
340,3184,-2584,0
339,3181,-2589,0
338,3184,-2597,0
332,3198,-2619,0
350,3175,-2595,0
320,3176,-2602,0
316,3186,-2599,0
327,3190,-2605,0
330,3197,-2611,0
329,3201,-2620,0
332,3203,-2627,0
334,3198,-2628,0
324,3207,-2636,0
339,3200,-2627,0
324,3200,-2628,0
321,3204,-2632,0
327,3207,-2640,0
326,3206,-2645,0
325,3208,-2646,0
325,3211,-2647,0
325,3208,-2648,0
329,3209,-2646,0
327,3210,-2644,0
325,3211,-2642,0
327,3209,-2641,0
327,3205,-2639,0
329,3203,-2631,0
331,3202,-2626,0
328,3203,-2621,0
325,3197,-2613,0
323,3193,-2609,0
324,3190,-2607,0
323,3188,-2604,0
325,3180,-2602,0
326,3176,-2597,0
327,3173,-2596,0
326,3173,-2595,0
329,3169,-2590,0
330,3170,-2589,0
329,3169,-2586,0
330,3166,-2585,0
333,3168,-2578,0
325,3167,-2572,0
324,3166,-2574,0
328,3168,-2574,0
327,3169,-2573,0
326,3170,-2574,0
329,3167,-2575,0
329,3173,-2572,0
328,3172,-2575,0
326,3174,-2575,0
328,3173,-2576,0
333,3172,-2577,0
333,3174,-2577,0
334,3175,-2578,0
331,3178,-2579,0
333,3181,-2578,0
330,3177,-2576,0
330,3175,-2574,0
329,3174,-2579,0
330,3177,-2583,0
329,3177,-2580,0
331,3177,-2582,0
329,3176,-2581,0
331,3176,-2582,0
330,3177,-2581,0
329,3178,-2579,0
327,3179,-2578,0
327,3179,-2577,0
326,3180,-2578,0
326,3180,-2577,0
330,3184,-2578,0
330,3182,-2582,0
328,3184,-2586,0
332,3182,-2586,0
328,3178,-2588,0
328,3179,-2590,0
325,3178,-2588,0
323,3180,-2590,0
325,3179,-2593,0
326,3177,-2592,0
327,3180,-2593,0
323,3177,-2591,0
321,3181,-2594,0
323,3180,-2593,0
326,3178,-2590,0
328,3180,-2591,0
325,3178,-2594,0
323,3177,-2597,0
322,3179,-2598,0
323,3177,-2599,0
325,3178,-2595,0
326,3176,-2597,0
324,3175,-2597,0
321,3179,-2596,0
323,3178,-2596,0
322,3179,-2593,0
321,3180,-2595,0
324,3177,-2595,0
322,3180,-2594,0
324,3180,-2596,0
327,3182,-2597,0
325,3181,-2598,0
327,3181,-2598,0
325,3183,-2596,0
324,3180,-2594,0
322,3178,-2593,0
325,3180,-2594,0
325,3177,-2593,0
326,3177,-2592,0
326,3176,-2593,0
325,3176,-2593,0
327,3177,-2596,0
325,3178,-2598,0
328,3179,-2598,0
325,3180,-2599,0
323,3181,-2592,0
327,3179,-2590,0
326,3176,-2587,0
321,3175,-2588,0
322,3174,-2587,0
323,3172,-2585,0
327,3172,-2586,0
322,3173,-2592,0
324,3177,-2592,0
321,3175,-2593,0
324,3178,-2592,0
325,3177,-2591,0
324,3178,-2593,0
318,3177,-2595,0
322,3181,-2598,0
324,3179,-2597,0
318,3195,-2610,0
341,3166,-2577,0
308,3159,-2593,0
325,3172,-2585,0
319,3175,-2595,0
312,3172,-2595,0
320,3173,-2592,0
323,3172,-2594,0
324,3171,-2593,0
322,3172,-2593,0
326,3172,-2587,0
324,3171,-2589,0
325,3172,-2592,0
329,3171,-2587,0
324,3171,-2592,0
323,3171,-2593,0
322,3171,-2592,0
319,3171,-2589,0
322,3176,-2589,0
321,3174,-2593,0
324,3170,-2591,0
320,3174,-2593,0
319,3173,-2593,0
321,3173,-2592,0
318,3173,-2596,0
322,3175,-2598,0
322,3176,-2600,0
322,3177,-2597,0
321,3178,-2597,0
318,3181,-2596,0
321,3185,-2593,0
323,3183,-2595,0
319,3183,-2598,0
321,3182,-2599,0
320,3180,-2598,0
318,3183,-2600,0
319,3179,-2597,0
318,3179,-2602,0
318,3182,-2605,0
319,3177,-2604,0
321,3174,-2599,0
320,3176,-2598,0
322,3176,-2595,0
318,3176,-2594,0
319,3172,-2590,0
320,3176,-2592,0
320,3175,-2592,0
320,3175,-2592,0
317,3176,-2592,0
319,3177,-2594,0
322,3177,-2595,0
318,3176,-2599,0
320,3175,-2598,0
324,3175,-2595,0
322,3175,-2596,0
322,3173,-2597,0
325,3173,-2596,0
322,3171,-2596,0
323,3174,-2597,0
323,3171,-2597,0
324,3174,-2598,0
324,3173,-2598,0
323,3173,-2597,0
322,3174,-2594,0
324,3175,-2592,0
325,3173,-2593,0
325,3173,-2592,0
322,3174,-2595,0
323,3173,-2596,0
320,3174,-2597,0
316,3175,-2595,0
316,3178,-2595,0
318,3177,-2599,0
320,3173,-2597,0
316,3174,-2596,0
320,3176,-2594,0
319,3178,-2595,0
317,3176,-2597,0
319,3174,-2598,0
317,3175,-2596,0
316,3175,-2597,0
318,3178,-2595,0
318,3177,-2596,0
322,3178,-2594,0
320,3180,-2596,0
322,3178,-2594,0
321,3179,-2596,0
326,3180,-2600,0
322,3180,-2597,0
321,3180,-2596,0
320,3176,-2594,0
321,3177,-2593,0
318,3177,-2594,0
322,3174,-2595,0
320,3179,-2596,0
323,3176,-2594,0
321,3175,-2593,0
319,3175,-2589,0
321,3178,-2591,0
322,3183,-2593,0
322,3181,-2595,0
319,3180,-2595,0
316,3180,-2598,0
318,3182,-2597,0
321,3182,-2594,0
320,3178,-2595,0
318,3180,-2594,0
320,3176,-2594,0
316,3173,-2594,0
317,3173,-2588,0
322,3170,-2584,0
322,3168,-2587,0
320,3171,-2588,0
322,3174,-2590,0
327,3177,-2590,0
325,3177,-2592,0
326,3180,-2593,0
325,3180,-2592,0
324,3177,-2591,0
323,3178,-2588,0
324,3175,-2585,0
326,3172,-2587,0
323,3173,-2591,0
323,3173,-2590,0
325,3175,-2592,0
320,3181,-2595,0
318,3178,-2597,0
318,3179,-2598,0
320,3177,-2597,0
318,3181,-2598,0
317,3180,-2595,0
317,3181,-2597,0
320,3181,-2597,0
316,3178,-2595,0
315,3182,-2598,0
319,3176,-2598,0
320,3177,-2600,0
321,3177,-2598,0
322,3177,-2600,0
322,3177,-2599,0
319,3175,-2595,0
319,3178,-2595,0
321,3176,-2593,0
321,3172,-2593,0
321,3174,-2592,0
320,3173,-2591,0
318,3173,-2591,0
319,3171,-2585,0
317,3169,-2585,0
320,3171,-2586,0
319,3174,-2589,0
320,3178,-2594,0
317,3179,-2590,0
318,3178,-2590,0
323,3180,-2592,0
326,3180,-2591,0
323,3179,-2595,0
323,3182,-2593,0
324,3180,-2596,0
323,3179,-2597,0
326,3182,-2594,0
322,3182,-2593,0
323,3182,-2593,0
321,3177,-2594,0
322,3178,-2595,0
320,3179,-2590,0
320,3178,-2589,0
322,3176,-2589,0
323,3176,-2586,0
319,3177,-2585,0
325,3178,-2585,0
324,3173,-2588,0
324,3172,-2588,0
323,3175,-2589,0
323,3174,-2588,0
321,3177,-2589,0
321,3179,-2588,0
322,3179,-2587,0
322,3178,-2591,0
319,3176,-2593,0
318,3177,-2593,0
321,3175,-2595,0
321,3178,-2594,0
321,3180,-2592,0
320,3178,-2593,0
322,3182,-2593,0
321,3180,-2593,0
320,3179,-2597,0
322,3177,-2595,0
323,3179,-2595,0
322,3179,-2597,0
319,3179,-2596,0
320,3179,-2594,0
321,3180,-2594,0
318,3183,-2595,0
320,3185,-2595,0
319,3184,-2596,0
320,3185,-2597,0
319,3185,-2599,0
322,3185,-2597,0
325,3181,-2599,0
324,3179,-2597,0
325,3177,-2596,0
323,3179,-2594,0
322,3180,-2592,0
320,3180,-2592,0
320,3179,-2591,0
322,3181,-2590,0
325,3183,-2591,0
320,3182,-2591,0
322,3184,-2591,0
320,3179,-2592,0
319,3181,-2591,0
321,3181,-2592,0
323,3179,-2593,0
324,3178,-2593,0
323,3177,-2587,0
318,3175,-2590,0
321,3179,-2590,0
320,3176,-2591,0
318,3177,-2589,0
318,3181,-2586,0
318,3181,-2588,0
322,3181,-2587,0
325,3179,-2586,0
322,3177,-2584,0
321,3181,-2581,0
319,3182,-2580,0
318,3180,-2581,0
321,3182,-2585,0
322,3181,-2585,0
319,3182,-2588,0
320,3182,-2587,0
320,3179,-2583,0
320,3178,-2585,0
324,3179,-2587,0
323,3177,-2587,0
325,3180,-2588,0
322,3179,-2586,0
323,3175,-2585,0
326,3179,-2583,0
327,3180,-2586,0
326,3180,-2585,0
327,3180,-2588,0
324,3180,-2591,0
326,3178,-2591,0
323,3181,-2594,0
321,3181,-2595,0
323,3182,-2589,0
322,3184,-2590,0
323,3185,-2590,0
324,3185,-2589,0
323,3186,-2589,0
320,3185,-2588,0
320,3183,-2591,0
318,3180,-2592,0
320,3182,-2593,0
321,3184,-2589,0
318,3185,-2587,0
313,3187,-2592,0
314,3185,-2593,0
315,3183,-2591,0
316,3183,-2590,0
317,3185,-2591,0
317,3182,-2590,0
320,3177,-2589,0
322,3180,-2590,0
322,3181,-2587,0
325,3176,-2589,0
325,3178,-2590,0
325,3179,-2588,0
326,3179,-2592,0
323,3182,-2590,0
324,3184,-2589,0
326,3186,-2587,0
327,3183,-2587,0
326,3181,-2584,0
323,3181,-2585,0
324,3179,-2579,0
323,3180,-2579,0
322,3179,-2580,0
324,3176,-2584,0
325,3176,-2583,0
322,3180,-2582,0
323,3181,-2584,0
319,3185,-2587,0
321,3189,-2584,0
324,3195,-2586,0
322,3189,-2588,0
324,3189,-2588,0
326,3186,-2588,0
327,3184,-2589,0
328,3184,-2584,0
324,3181,-2582,0
325,3182,-2583,0
325,3180,-2578,0
323,3182,-2577,0
323,3186,-2576,0
324,3185,-2579,0
326,3185,-2576,0
326,3186,-2578,0
326,3183,-2577,0
328,3186,-2584,0
328,3183,-2582,0
326,3182,-2579,0
326,3184,-2581,0
327,3184,-2582,0
327,3187,-2579,0
323,3182,-2581,0
323,3183,-2584,0
326,3187,-2585,0
323,3187,-2585,0
327,3189,-2584,0
327,3188,-2582,0
328,3186,-2586,0
327,3188,-2584,0
326,3188,-2585,0
326,3187,-2584,0
325,3187,-2584,0
327,3186,-2585,0
328,3184,-2582,0
325,3180,-2583,0
328,3181,-2585,0
326,3182,-2586,0
326,3185,-2583,0
325,3187,-2584,0
327,3185,-2587,0
322,3188,-2588,0
324,3190,-2590,0
327,3187,-2589,0
328,3185,-2586,0
328,3181,-2585,0
328,3186,-2587,0
330,3185,-2587,0
330,3185,-2584,0
331,3184,-2581,0
329,3183,-2585,0
326,3182,-2579,0
326,3185,-2579,0
325,3184,-2580,0
324,3185,-2577,0
324,3181,-2577,0
328,3184,-2577,0
327,3184,-2575,0
326,3183,-2576,0
327,3187,-2578,0
325,3185,-2578,0
328,3184,-2579,0
330,3186,-2577,0
328,3188,-2577,0
325,3191,-2579,0
323,3188,-2580,0
324,3189,-2579,0
327,3189,-2576,0
326,3186,-2578,0
328,3190,-2578,0
328,3188,-2579,0
329,3190,-2578,0
329,3190,-2576,0
328,3184,-2573,0
327,3186,-2572,0
327,3189,-2571,0
328,3180,-2568,0
324,3185,-2571,0
327,3187,-2575,0
328,3185,-2577,0
327,3182,-2571,0
328,3183,-2570,0
331,3182,-2571,0
329,3181,-2572,0
329,3184,-2575,0
334,3185,-2575,0
330,3185,-2576,0
330,3188,-2579,0
332,3193,-2583,0
335,3196,-2583,0
335,3198,-2585,0
334,3195,-2582,0
333,3195,-2578,0
331,3193,-2575,0
332,3195,-2575,0
329,3195,-2574,0
326,3196,-2576,0
323,3195,-2578,0
322,3196,-2580,0
323,3197,-2577,0
324,3195,-2576,0
327,3194,-2581,0
323,3192,-2582,0
325,3188,-2578,0
328,3188,-2583,0
326,3191,-2583,0
325,3195,-2581,0
322,3194,-2579,0
326,3193,-2579,0
325,3192,-2579,0
327,3193,-2576,0
326,3191,-2576,0
328,3192,-2572,0
332,3191,-2574,0
334,3192,-2575,0
334,3190,-2572,0
334,3189,-2571,0
334,3188,-2569,0
333,3183,-2567,0
334,3179,-2564,0
327,3183,-2563,0
326,3183,-2566,0
327,3181,-2570,0
329,3179,-2568,0
328,3180,-2570,0
329,3181,-2569,0
329,3177,-2571,0
330,3179,-2572,0
327,3184,-2577,0
328,3184,-2580,0
331,3188,-2577,0
327,3189,-2578,0
326,3192,-2579,0
325,3191,-2583,0
324,3191,-2582,0
325,3192,-2577,0
326,3191,-2581,0
330,3191,-2582,0
330,3192,-2577,0
328,3190,-2577,0
330,3191,-2578,0
328,3192,-2583,0
330,3191,-2581,0
328,3191,-2579,0
326,3188,-2578,0
324,3189,-2579,0
324,3187,-2578,0
328,3189,-2579,0
329,3191,-2578,0
326,3188,-2580,0
325,3188,-2578,0
323,3186,-2579,0
321,3190,-2580,0
326,3189,-2580,0
322,3186,-2585,0
324,3190,-2586,0
328,3187,-2585,0
323,3187,-2584,0
325,3186,-2583,0
325,3185,-2581,0
327,3185,-2584,0
326,3185,-2583,0
326,3188,-2581,0
328,3188,-2581,0
327,3186,-2583,0
326,3187,-2581,0
328,3187,-2580,0
324,3184,-2581,0
321,3188,-2579,0
323,3185,-2578,0
323,3185,-2581,0
325,3189,-2585,0
327,3189,-2589,0
328,3189,-2588,0
324,3189,-2581,0
322,3189,-2583,0
323,3190,-2584,0
322,3186,-2586,0
325,3189,-2583,0
326,3187,-2580,0
322,3189,-2581,0
323,3188,-2577,0
324,3186,-2585,0
328,3185,-2581,0
328,3187,-2579,0
328,3184,-2579,0
328,3184,-2582,0
328,3184,-2581,0
325,3187,-2583,0
325,3187,-2581,0
325,3186,-2577,0
322,3188,-2576,0
323,3185,-2574,0
324,3186,-2579,0
326,3186,-2581,0
325,3184,-2582,0
327,3188,-2584,0
327,3186,-2584,0
328,3186,-2581,0
326,3186,-2582,0
325,3187,-2582,0
324,3187,-2582,0
327,3187,-2580,0
324,3185,-2578,0
322,3185,-2579,0
324,3181,-2579,0
324,3182,-2579,0
326,3182,-2575,0
325,3182,-2574,0
331,3182,-2577,0
327,3177,-2578,0
328,3180,-2580,0
329,3182,-2582,0
327,3183,-2586,0
327,3184,-2583,0
326,3182,-2582,0
327,3185,-2584,0
328,3183,-2583,0
326,3186,-2582,0
325,3188,-2582,0
323,3187,-2583,0
321,3188,-2584,0
320,3187,-2589,0
321,3187,-2594,0
321,3191,-2593,0
319,3189,-2589,0
321,3189,-2588,0
319,3191,-2588,0
318,3189,-2590,0
319,3192,-2591,0
317,3190,-2594,0
318,3188,-2591,0
318,3186,-2591,0
319,3182,-2590,0
320,3185,-2589,0
321,3184,-2587,0
322,3184,-2587,0
324,3180,-2589,0
321,3182,-2587,0
323,3183,-2586,0
323,3188,-2586,0
325,3186,-2585,0
322,3186,-2584,0
324,3185,-2585,0
326,3184,-2583,0
326,3180,-2582,0
326,3181,-2580,0
327,3183,-2581,0
324,3182,-2584,0
325,3180,-2583,0
325,3179,-2582,0
324,3179,-2585,0
325,3180,-2586,0
323,3182,-2584,0
326,3183,-2583,0
326,3180,-2584,0
323,3182,-2585,0
322,3187,-2584,0
320,3182,-2584,0
322,3184,-2581,0
322,3181,-2579,0
323,3181,-2579,0
322,3183,-2582,0
323,3184,-2582,0
326,3179,-2582,0
328,3177,-2579,0
326,3179,-2581,0
325,3181,-2578,0
323,3182,-2582,0
324,3183,-2580,0
320,3182,-2579,0
320,3182,-2580,0
322,3184,-2582,0
322,3183,-2585,0
319,3178,-2584,0
317,3179,-2588,0
317,3185,-2587,0
319,3188,-2590,0
321,3189,-2590,0
320,3187,-2591,0
322,3189,-2590,0
325,3186,-2590,0
325,3184,-2592,0
323,3184,-2591,0
324,3184,-2591,0
324,3186,-2593,0
322,3183,-2592,0
323,3184,-2592,0
323,3182,-2592,0
320,3180,-2590,0
321,3179,-2591,0
322,3179,-2588,0
322,3182,-2586,0
321,3185,-2585,0
320,3183,-2582,0
321,3180,-2583,0
319,3182,-2587,0
320,3180,-2592,0
323,3179,-2591,0
322,3179,-2589,0
323,3180,-2587,0
323,3178,-2584,0
323,3179,-2586,0
327,3179,-2587,0
324,3179,-2589,0
325,3180,-2589,0
322,3183,-2590,0
322,3182,-2589,0
324,3182,-2590,0
321,3180,-2590,0
318,3182,-2587,0
320,3182,-2591,0
322,3183,-2590,0
322,3181,-2589,0
320,3180,-2590,0
321,3183,-2590,0
322,3182,-2589,0
324,3180,-2586,0
325,3180,-2590,0
319,3179,-2589,0
321,3183,-2590,0
319,3179,-2587,0
318,3178,-2588,0
321,3178,-2590,0
322,3182,-2587,0
320,3185,-2586,0
323,3185,-2587,0
318,3185,-2588,0
320,3183,-2590,0
320,3182,-2587,0
318,3182,-2587,0
322,3179,-2591,0
320,3180,-2588,0
320,3180,-2589,0
317,3179,-2586,0
317,3179,-2587,0
319,3181,-2584,0
319,3179,-2587,0
322,3180,-2584,0
322,3180,-2588,0
325,3184,-2590,0
323,3185,-2590,0
322,3182,-2594,0
323,3182,-2593,0
325,3177,-2589,0
324,3180,-2589,0
319,3178,-2588,0
318,3176,-2588,0
318,3180,-2587,0
316,3179,-2588,0
314,3182,-2589,0
316,3181,-2587,0
316,3184,-2591,0
316,3186,-2593,0
317,3186,-2594,0
318,3184,-2595,0
316,3187,-2590,0
318,3186,-2593,0
318,3185,-2593,0
318,3183,-2592,0
317,3180,-2592,0
317,3180,-2593,0
318,3180,-2592,0
318,3181,-2593,0
319,3180,-2593,0
317,3180,-2591,0
318,3180,-2592,0
319,3178,-2593,0
318,3176,-2591,0
316,3178,-2588,0
316,3178,-2589,0
321,3179,-2586,0
322,3179,-2587,0
317,3180,-2590,0
316,3177,-2585,0
318,3178,-2584,0
319,3179,-2587,0
317,3176,-2586,0
317,3178,-2589,0
317,3178,-2590,0
316,3177,-2593,0
317,3177,-2588,0
320,3174,-2589,0
315,3178,-2588,0
319,3180,-2586,0
315,3178,-2587,0
318,3179,-2591,0
316,3181,-2592,0
312,3180,-2589,0
314,3181,-2593,0
316,3180,-2589,0
315,3178,-2589,0
315,3177,-2591,0
315,3178,-2594,0
315,3179,-2592,0
315,3179,-2594,0
320,3179,-2588,0
316,3178,-2589,0
318,3178,-2587,0
319,3180,-2585,0
320,3179,-2591,0
317,3176,-2587,0
316,3175,-2588,0
317,3179,-2591,0
317,3178,-2588,0
313,3180,-2588,0
323,3176,-2584,0
312,3175,-2588,0
314,3183,-2592,0
318,3184,-2594,0
314,3182,-2593,0
310,3183,-2591,0
315,3182,-2590,0
315,3180,-2591,0
317,3183,-2590,0
318,3182,-2595,0
313,3180,-2595,0
317,3181,-2593,0
313,3181,-2593,0
312,3183,-2594,0
312,3180,-2594,0
316,3182,-2592,0
315,3186,-2590,0
316,3182,-2592,0
319,3181,-2591,0
320,3176,-2590,0
316,3181,-2593,0
313,3179,-2592,0
317,3177,-2592,0
318,3177,-2592,0
317,3178,-2596,0
317,3177,-2591,0
313,3180,-2595,0
313,3179,-2592,0
318,3179,-2590,0
316,3180,-2589,0
318,3176,-2590,0
317,3176,-2589,0
312,3178,-2590,0
315,3176,-2590,0
315,3177,-2590,0
312,3174,-2592,0
318,3176,-2593,0
316,3183,-2600,0
319,3179,-2592,0
314,3183,-2589,0
322,3222,-2624,0
331,3185,-2606,0
308,3164,-2565,0
286,3183,-2567,0
304,3181,-2589,0
319,3183,-2606,0
311,3181,-2605,0
312,3178,-2598,0
318,3177,-2594,0
318,3174,-2592,0
316,3174,-2590,0
315,3175,-2591,0
311,3176,-2592,0
315,3178,-2592,0
316,3180,-2595,0
313,3181,-2595,0
316,3179,-2597,0
317,3180,-2594,0
312,3177,-2595,0
312,3176,-2594,0
309,3174,-2591,0
308,3173,-2594,0
309,3172,-2594,0
312,3171,-2590,0
317,3173,-2589,0
314,3174,-2590,0
313,3174,-2588,0
315,3175,-2592,0
312,3175,-2596,0
314,3176,-2595,0
313,3177,-2600,0
315,3177,-2602,0
317,3177,-2603,0
318,3178,-2598,0
313,3175,-2595,0
313,3171,-2595,0
316,3172,-2589,0
315,3173,-2590,0
314,3174,-2592,0
316,3178,-2596,0
309,3178,-2596,0
312,3181,-2596,0
310,3178,-2595,0
312,3176,-2598,0
311,3178,-2596,0
312,3176,-2599,0
312,3178,-2600,0
310,3181,-2598,0
308,3180,-2599,0
307,3182,-2601,0
306,3179,-2601,0
307,3179,-2603,0
309,3177,-2606,0
310,3176,-2605,0
308,3177,-2600,0
312,3176,-2598,0
315,3174,-2597,0
318,3175,-2596,0
317,3175,-2596,0
318,3170,-2593,0
319,3173,-2594,0
316,3171,-2599,0
316,3171,-2598,0
315,3175,-2593,0
319,3175,-2593,0
313,3177,-2596,0
313,3174,-2595,0
315,3176,-2594,0
313,3174,-2594,0
313,3175,-2598,0
310,3176,-2595,0
310,3175,-2595,0
309,3177,-2594,0
308,3179,-2594,0
310,3181,-2596,0
314,3181,-2596,0
312,3178,-2595,0
310,3180,-2597,0
307,3179,-2593,0
314,3178,-2593,0
311,3177,-2594,0
312,3177,-2596,0
312,3173,-2599,0
312,3174,-2597,0
310,3174,-2595,0
310,3175,-2595,0
314,3174,-2596,0
319,3176,-2593,0
315,3175,-2594,0
313,3177,-2594,0
311,3173,-2595,0
308,3172,-2598,0
308,3177,-2593,0
310,3174,-2593,0
311,3171,-2597,0
312,3173,-2596,0
311,3172,-2597,0
311,3173,-2596,0
312,3176,-2595,0
309,3175,-2595,0
309,3178,-2597,0
310,3178,-2599,0
312,3179,-2596,0
309,3181,-2596,0
309,3178,-2600,0
307,3176,-2599,0
307,3174,-2600,0
310,3172,-2599,0
310,3175,-2601,0
308,3175,-2601,0
310,3177,-2598,0
309,3177,-2599,0
308,3174,-2598,0
310,3172,-2598,0
313,3174,-2600,0
311,3174,-2601,0
309,3176,-2598,0
309,3177,-2597,0
303,3177,-2597,0
307,3177,-2600,0
307,3178,-2602,0
307,3176,-2600,0
312,3173,-2597,0
314,3172,-2596,0
315,3172,-2599,0
317,3174,-2600,0
311,3177,-2596,0
310,3174,-2595,0
308,3175,-2593,0
306,3172,-2597,0
307,3172,-2596,0
307,3176,-2596,0
309,3176,-2597,0
312,3178,-2599,0
310,3176,-2598,0
311,3174,-2597,0
310,3172,-2600,0
309,3173,-2596,0
314,3177,-2595,0
311,3176,-2594,0
313,3172,-2595,0
311,3174,-2598,0
312,3174,-2596,0
311,3175,-2596,0
311,3174,-2596,0
310,3174,-2600,0
312,3177,-2597,0
315,3176,-2598,0
316,3177,-2596,0
311,3176,-2596,0
310,3177,-2593,0
313,3179,-2593,0
309,3173,-2595,0
308,3171,-2597,0
307,3171,-2594,0
309,3173,-2594,0
310,3175,-2593,0
311,3173,-2598,0
312,3172,-2601,0
310,3172,-2600,0
307,3176,-2600,0
309,3178,-2596,0
309,3182,-2599,0
317,3184,-2599,0
304,3176,-2599,0
304,3177,-2595,0
309,3176,-2595,0
310,3173,-2597,0
310,3173,-2596,0
306,3173,-2594,0
310,3175,-2595,0
312,3178,-2597,0
310,3179,-2598,0
311,3178,-2600,0
311,3180,-2599,0
310,3179,-2600,0
311,3178,-2599,0
312,3175,-2600,0
315,3174,-2598,0
314,3177,-2594,0
313,3175,-2595,0
311,3173,-2595,0
308,3173,-2596,0
312,3173,-2598,0
313,3174,-2597,0
311,3174,-2599,0
311,3176,-2599,0
307,3175,-2598,0
310,3177,-2598,0
311,3177,-2599,0
308,3175,-2602,0
308,3177,-2601,0
309,3177,-2602,0
310,3179,-2605,0
311,3178,-2603,0
312,3174,-2599,0
311,3175,-2597,0
307,3173,-2598,0
311,3170,-2596,0
310,3173,-2598,0
309,3174,-2597,0
308,3174,-2596,0
310,3174,-2593,0
310,3173,-2592,0
312,3174,-2592,0
308,3172,-2591,0
309,3175,-2591,0
309,3173,-2592,0
307,3173,-2596,0
308,3176,-2595,0
310,3174,-2593,0
313,3172,-2593,0
314,3173,-2594,0
313,3171,-2597,0
313,3172,-2593,0
313,3175,-2592,0
314,3175,-2594,0
311,3178,-2594,0
310,3178,-2596,0
313,3179,-2595,0
313,3180,-2596,0
313,3176,-2597,0
313,3175,-2600,0
313,3175,-2596,0
309,3176,-2597,0
311,3177,-2596,0
308,3177,-2593,0
311,3176,-2591,0
310,3177,-2592,0
306,3176,-2593,0
307,3177,-2594,0
313,3173,-2597,0
310,3174,-2595,0
309,3173,-2594,0
310,3174,-2593,0
309,3173,-2594,0
308,3173,-2594,0
308,3174,-2594,0
309,3172,-2593,0
311,3175,-2592,0
308,3174,-2594,0
311,3175,-2596,0
309,3176,-2597,0
310,3176,-2597,0
312,3176,-2598,0
313,3178,-2595,0
311,3175,-2595,0
312,3173,-2595,0
311,3173,-2598,0
309,3174,-2597,0
308,3176,-2597,0
308,3177,-2602,0
308,3176,-2601,0
308,3176,-2600,0
307,3175,-2605,0
312,3177,-2604,0
311,3178,-2600,0
309,3179,-2597,0
307,3178,-2597,0
303,3177,-2597,0
305,3177,-2600,0
304,3175,-2600,0
307,3178,-2600,0
311,3180,-2600,0
311,3181,-2601,0
311,3178,-2599,0
309,3178,-2598,0
308,3177,-2596,0
313,3177,-2597,0
308,3174,-2595,0
311,3177,-2594,0
311,3176,-2592,0
313,3177,-2593,0
309,3176,-2594,0
312,3173,-2593,0
310,3178,-2591,0
307,3178,-2590,0
308,3180,-2593,0
306,3179,-2593,0
304,3180,-2595,0
306,3180,-2595,0
307,3180,-2594,0
310,3181,-2593,0
308,3181,-2591,0
307,3179,-2594,0
308,3178,-2592,0
309,3177,-2592,0
311,3177,-2593,0
312,3177,-2594,0
313,3174,-2593,0
315,3174,-2593,0
316,3173,-2593,0
315,3175,-2592,0
314,3174,-2590,0
313,3177,-2589,0
314,3181,-2589,0
315,3180,-2591,0
312,3177,-2593,0
313,3177,-2592,0
313,3178,-2596,0
312,3179,-2594,0
309,3176,-2593,0
308,3179,-2595,0
309,3181,-2595,0
306,3178,-2593,0
309,3178,-2592,0
308,3178,-2594,0
306,3179,-2592,0
307,3179,-2593,0
308,3174,-2593,0
309,3175,-2592,0
312,3175,-2592,0
315,3173,-2593,0
314,3178,-2595,0
313,3177,-2595,0
316,3180,-2594,0
313,3184,-2598,0
316,3181,-2600,0
315,3181,-2599,0
316,3181,-2598,0
314,3181,-2599,0
314,3182,-2600,0
311,3180,-2601,0
312,3182,-2597,0
312,3180,-2599,0
308,3182,-2598,0
308,3182,-2595,0
305,3182,-2595,0
310,3182,-2597,0
313,3179,-2597,0
307,3178,-2596,0
304,3176,-2596,0
305,3177,-2596,0
304,3178,-2594,0
306,3177,-2597,0
309,3176,-2595,0
311,3175,-2594,0
309,3175,-2592,0
310,3176,-2593,0
311,3177,-2591,0
313,3179,-2590,0
311,3178,-2592,0
312,3174,-2592,0
311,3177,-2594,0
310,3174,-2590,0
313,3173,-2591,0
311,3175,-2590,0
310,3173,-2587,0
313,3174,-2586,0
316,3176,-2587,0
314,3176,-2587,0
316,3178,-2584,0
319,3178,-2586,0
316,3180,-2589,0
315,3177,-2588,0
314,3172,-2587,0
317,3177,-2585,0
316,3178,-2589,0
316,3177,-2593,0
314,3179,-2593,0
311,3185,-2598,0
314,3188,-2596,0
314,3183,-2596,0
314,3182,-2593,0
316,3180,-2591,0
317,3177,-2589,0
319,3177,-2587,0
319,3176,-2586,0
318,3178,-2588,0
314,3181,-2587,0
312,3178,-2591,0
316,3180,-2587,0
313,3179,-2587,0
311,3177,-2589,0
311,3179,-2590,0
313,3183,-2593,0
313,3184,-2593,0
313,3181,-2593,0
314,3177,-2595,0
314,3179,-2592,0
313,3180,-2595,0
314,3182,-2595,0
311,3183,-2594,0
312,3179,-2597,0
315,3182,-2596,0
315,3179,-2595,0
313,3181,-2595,0
315,3183,-2595,0
312,3183,-2597,0
313,3183,-2596,0
311,3178,-2594,0
315,3179,-2593,0
314,3177,-2595,0
314,3178,-2594,0
313,3178,-2590,0
314,3176,-2591,0
313,3179,-2592,0
310,3178,-2594,0
314,3182,-2590,0
315,3184,-2590,0
314,3183,-2593,0
315,3181,-2590,0
314,3181,-2588,0
310,3178,-2593,0
311,3179,-2594,0
308,3179,-2593,0
311,3177,-2593,0
310,3180,-2593,0
311,3179,-2593,0
312,3180,-2589,0
314,3180,-2588,0
312,3180,-2589,0
316,3182,-2587,0
316,3182,-2591,0
316,3182,-2590,0
317,3184,-2588,0
315,3180,-2585,0
315,3181,-2589,0
315,3181,-2590,0
314,3181,-2589,0
315,3177,-2587,0
312,3176,-2585,0
316,3178,-2583,0
314,3175,-2583,0
314,3179,-2581,0
314,3179,-2585,0
314,3178,-2585,0
314,3180,-2587,0
313,3180,-2590,0
312,3178,-2588,0
317,3180,-2587,0
318,3179,-2590,0
317,3182,-2591,0
316,3181,-2589,0
314,3184,-2591,0
315,3181,-2590,0
314,3179,-2586,0
316,3181,-2585,0
314,3181,-2586,0
314,3179,-2588,0
313,3178,-2586,0
313,3175,-2587,0
314,3175,-2589,0
318,3175,-2587,0
319,3175,-2585,0
319,3177,-2585,0
317,3178,-2588,0
319,3181,-2590,0
319,3185,-2591,0
319,3187,-2591,0
317,3188,-2592,0
321,3185,-2592,0
317,3185,-2589,0
317,3184,-2590,0
315,3184,-2592,0
313,3184,-2593,0
317,3187,-2593,0
316,3183,-2591,0
315,3184,-2590,0
311,3185,-2593,0
313,3185,-2592,0
313,3189,-2593,0
312,3187,-2591,0
311,3184,-2590,0
311,3185,-2591,0
311,3182,-2590,0
309,3182,-2590,0
311,3183,-2590,0
312,3181,-2591,0
315,3181,-2590,0
313,3182,-2589,0
315,3183,-2593,0
317,3182,-2592,0
319,3181,-2589,0
317,3181,-2589,0
316,3184,-2585,0
317,3183,-2585,0
315,3183,-2580,0
320,3183,-2582,0
317,3178,-2582,0
318,3179,-2579,0
319,3176,-2578,0
317,3178,-2583,0
318,3179,-2583,0
317,3178,-2584,0
319,3177,-2583,0
318,3175,-2585,0
317,3179,-2585,0
316,3179,-2586,0
317,3180,-2586,0
314,3182,-2585,0
315,3185,-2588,0
316,3186,-2590,0
316,3187,-2588,0
318,3186,-2589,0
316,3183,-2585,0
317,3184,-2587,0
316,3181,-2586,0
320,3185,-2585,0
319,3186,-2584,0
322,3182,-2582,0
322,3184,-2582,0
321,3184,-2581,0
320,3185,-2584,0
320,3183,-2586,0
317,3183,-2585,0
314,3184,-2586,0
317,3185,-2586,0
315,3182,-2585,0
315,3182,-2585,0
316,3184,-2589,0
316,3182,-2585,0
316,3181,-2590,0
317,3182,-2590,0
315,3183,-2590,0
313,3183,-2591,0
313,3183,-2590,0
319,3185,-2589,0
318,3185,-2588,0
321,3184,-2591,0
319,3184,-2592,0
317,3184,-2592,0
317,3181,-2590,0
314,3178,-2587,0
307,3181,-2589,0
308,3181,-2589,0
312,3183,-2587,0
315,3183,-2589,0
318,3183,-2588,0
316,3182,-2588,0
314,3183,-2587,0
319,3186,-2588,0
319,3185,-2589,0
321,3183,-2583,0
317,3182,-2584,0
316,3182,-2587,0
315,3181,-2589,0
317,3181,-2589,0
314,3181,-2587,0
313,3184,-2587,0
315,3184,-2586,0
312,3185,-2587,0
313,3186,-2588,0
313,3185,-2590,0
313,3186,-2588,0
312,3184,-2586,0
312,3181,-2584,0
311,3182,-2587,0
313,3183,-2588,0
314,3183,-2586,0
315,3178,-2586,0
316,3179,-2582,0
317,3177,-2587,0
318,3179,-2590,0
320,3181,-2587,0
322,3179,-2586,0
318,3177,-2582,0
320,3179,-2580,0
319,3178,-2579,0
321,3182,-2577,0
320,3178,-2582,0
318,3180,-2581,0
314,3182,-2584,0
313,3181,-2588,0
316,3183,-2587,0
313,3180,-2586,0
314,3179,-2584,0
313,3181,-2584,0
315,3181,-2585,0
314,3181,-2588,0
317,3178,-2588,0
316,3177,-2586,0
319,3178,-2590,0
316,3175,-2588,0
317,3176,-2589,0
319,3174,-2589,0
315,3177,-2588,0
317,3183,-2589,0
315,3184,-2589,0
318,3187,-2591,0
321,3184,-2590,0
322,3183,-2593,0
319,3185,-2591,0
318,3183,-2591,0
320,3183,-2591,0
319,3184,-2592,0
318,3184,-2591,0
315,3187,-2592,0
313,3186,-2596,0
313,3185,-2595,0
314,3188,-2594,0
312,3188,-2594,0
309,3184,-2593,0
306,3181,-2594,0
308,3184,-2593,0
307,3186,-2594,0
311,3185,-2590,0
311,3183,-2591,0
315,3178,-2589,0
314,3180,-2585,0
314,3181,-2588,0
312,3179,-2589,0
313,3182,-2591,0
313,3181,-2588,0
312,3181,-2588,0
312,3178,-2583,0
313,3175,-2584,0
319,3182,-2587,0
317,3182,-2589,0
313,3181,-2585,0
311,3182,-2584,0
314,3178,-2584,0
314,3179,-2588,0
313,3178,-2590,0
310,3178,-2584,0
311,3179,-2586,0
311,3179,-2581,0
313,3180,-2584,0
316,3177,-2582,0
314,3175,-2586,0
313,3180,-2587,0
312,3179,-2588,0
314,3180,-2590,0
312,3178,-2590,0
312,3181,-2593,0
314,3179,-2594,0
314,3181,-2592,0
315,3181,-2595,0
312,3181,-2594,0
311,3182,-2594,0
310,3184,-2596,0
314,3182,-2591,0
313,3182,-2591,0
314,3181,-2589,0
313,3178,-2590,0
317,3177,-2590,0
317,3175,-2589,0
318,3175,-2589,0
318,3179,-2589,0
315,3181,-2588,0
312,3179,-2585,0
310,3179,-2591,0
310,3179,-2593,0
310,3181,-2591,0
312,3178,-2593,0
308,3178,-2592,0
317,3180,-2592,0
316,3181,-2591,0
314,3182,-2593,0
311,3184,-2591,0
312,3182,-2592,0
311,3182,-2592,0
311,3182,-2594,0
311,3180,-2591,0
310,3178,-2593,0
310,3182,-2594,0
307,3181,-2595,0
312,3181,-2596,0
313,3183,-2595,0
313,3182,-2598,0
311,3180,-2591,0
312,3183,-2594,0
312,3184,-2596,0
314,3182,-2595,0
312,3182,-2594,0
311,3183,-2593,0
311,3185,-2592,0
310,3180,-2592,0
314,3183,-2596,0
314,3180,-2597,0
312,3178,-2593,0
312,3179,-2595,0
312,3178,-2594,0
311,3177,-2590,0
313,3175,-2589,0
312,3176,-2587,0
308,3179,-2587,0
312,3175,-2583,0
311,3178,-2589,0
312,3177,-2590,0
309,3176,-2585,0
311,3177,-2589,0
308,3176,-2589,0
310,3179,-2589,0
312,3180,-2593,0
309,3179,-2591,0
312,3178,-2591,0
309,3177,-2593,0
310,3179,-2593,0
314,3180,-2591,0
310,3178,-2590,0
311,3180,-2589,0
310,3177,-2592,0
312,3178,-2591,0
315,3178,-2589,0
314,3177,-2592,0
312,3179,-2592,0
317,3180,-2592,0
312,3180,-2596,0
309,3184,-2592,0
309,3181,-2594,0
309,3181,-2594,0
310,3180,-2593,0
310,3179,-2595,0
307,3176,-2594,0
308,3175,-2594,0
309,3179,-2594,0
309,3178,-2594,0
307,3178,-2591,0
309,3180,-2592,0
310,3177,-2588,0
314,3177,-2593,0
310,3176,-2596,0
311,3178,-2599,0
316,3185,-2598,0
312,3184,-2600,0
316,3184,-2597,0
319,3182,-2596,0
317,3180,-2595,0
316,3181,-2593,0
314,3182,-2594,0
313,3180,-2595,0
310,3178,-2593,0
307,3180,-2595,0
304,3181,-2593,0
305,3179,-2593,0
309,3182,-2596,0
311,3182,-2598,0
308,3180,-2597,0
307,3182,-2595,0
308,3180,-2597,0
310,3179,-2597,0
308,3182,-2599,0
308,3178,-2600,0
311,3178,-2598,0
312,3177,-2598,0
309,3179,-2596,0
310,3182,-2595,0
310,3180,-2595,0
311,3178,-2592,0
308,3177,-2594,0
309,3176,-2595,0
310,3174,-2593,0
309,3174,-2589,0
311,3174,-2592,0
313,3174,-2590,0
311,3177,-2593,0
309,3178,-2595,0
307,3177,-2595,0
312,3176,-2594,0
313,3176,-2594,0
312,3175,-2592,0
312,3177,-2594,0
311,3175,-2597,0
314,3177,-2596,0
314,3178,-2594,0
313,3180,-2594,0
309,3178,-2595,0
313,3176,-2593,0
315,3179,-2591,0
312,3177,-2593,0
311,3175,-2593,0
312,3174,-2592,0
308,3176,-2599,0
310,3176,-2597,0
308,3179,-2596,0
307,3179,-2594,0
309,3179,-2590,0
311,3182,-2591,0
309,3179,-2594,0
311,3179,-2594,0
311,3177,-2597,0
315,3177,-2596,0
311,3178,-2595,0
308,3174,-2592,0
308,3175,-2594,0
310,3176,-2593,0
310,3176,-2594,0
309,3174,-2596,0
306,3175,-2596,0
305,3176,-2595,0
307,3179,-2593,0
305,3179,-2595,0
306,3179,-2595,0
309,3178,-2597,0
310,3176,-2595,0
311,3173,-2594,0
312,3178,-2598,0
308,3179,-2595,0
309,3177,-2599,0
309,3180,-2598,0
307,3181,-2597,0
309,3179,-2596,0
310,3180,-2598,0
309,3177,-2597,0
308,3177,-2597,0
312,3177,-2600,0
308,3180,-2599,0
311,3176,-2597,0
312,3176,-2595,0
309,3178,-2597,0
308,3179,-2596,0
310,3176,-2594,0
311,3175,-2594,0
313,3174,-2596,0
308,3176,-2594,0
312,3177,-2590,0
312,3176,-2586,0
308,3175,-2591,0
310,3174,-2589,0
309,3177,-2593,0
311,3177,-2592,0
309,3175,-2593,0
308,3176,-2594,0
306,3177,-2594,0
307,3175,-2591,0
306,3175,-2591,0
305,3177,-2595,0
310,3177,-2595,0
313,3176,-2598,0
312,3180,-2601,0
312,3181,-2599,0
311,3181,-2597,0
308,3180,-2596,0
309,3176,-2598,0
312,3178,-2595,0
311,3181,-2596,0
311,3178,-2594,0
309,3178,-2592,0
310,3176,-2589,0
312,3175,-2593,0
311,3175,-2594,0
309,3176,-2591,0
307,3174,-2588,0
305,3174,-2591,0
308,3173,-2593,0
308,3175,-2596,0
309,3175,-2596,0
314,3174,-2591,0
313,3175,-2596,0
313,3176,-2595,0
311,3176,-2595,0
307,3174,-2595,0
307,3179,-2596,0
305,3179,-2599,0
306,3180,-2598,0
302,3182,-2597,0
305,3184,-2601,0
309,3175,-2594,0
299,3167,-2591,0
305,3173,-2586,0
307,3175,-2591,0
304,3173,-2595,0
308,3175,-2595,0
311,3176,-2599,0
311,3177,-2601,0
309,3178,-2600,0
307,3176,-2598,0
309,3176,-2598,0
309,3178,-2597,0
310,3175,-2593,0
310,3176,-2595,0
308,3177,-2594,0
308,3174,-2594,0
308,3178,-2594,0
310,3175,-2596,0
308,3176,-2597,0
306,3179,-2601,0
308,3178,-2600,0
310,3178,-2598,0
309,3176,-2600,0
310,3180,-2602,0
308,3178,-2605,0
307,3181,-2603,0
309,3178,-2604,0
307,3177,-2602,0
305,3181,-2602,0
361,3204,-2602,0
315,3158,-2607,0
281,3133,-2574,0
281,3179,-2574,0
294,3178,-2599,0
300,3176,-2613,0
297,3179,-2613,0
298,3174,-2602,0
303,3173,-2596,0
303,3172,-2595,0
303,3172,-2594,0
306,3171,-2594,0
303,3172,-2595,0
306,3170,-2596,0
308,3175,-2596,0
308,3173,-2595,0
307,3173,-2600,0
308,3172,-2597,0
305,3173,-2599,0
307,3172,-2596,0
304,3173,-2598,0
302,3174,-2602,0
307,3174,-2602,0
304,3173,-2601,0
307,3177,-2603,0
309,3176,-2601,0
306,3173,-2599,0
305,3175,-2601,0
305,3172,-2598,0
305,3175,-2598,0
309,3174,-2598,0
304,3173,-2599,0
302,3175,-2600,0
306,3177,-2600,0
306,3172,-2601,0
308,3171,-2599,0
310,3171,-2601,0
307,3172,-2600,0
305,3172,-2598,0
305,3171,-2594,0
303,3169,-2596,0
302,3168,-2596,0
304,3169,-2594,0
302,3169,-2598,0
305,3172,-2596,0
306,3177,-2598,0
304,3175,-2596,0
306,3176,-2599,0
303,3177,-2598,0
302,3174,-2599,0
305,3173,-2604,0
304,3175,-2603,0
307,3173,-2602,0
306,3175,-2602,0
309,3171,-2602,0
305,3174,-2602,0
305,3174,-2603,0
306,3175,-2602,0
301,3174,-2601,0
302,3175,-2600,0
304,3174,-2598,0
301,3175,-2597,0
301,3175,-2597,0
304,3175,-2600,0
305,3176,-2602,0
303,3179,-2603,0
304,3173,-2604,0
304,3173,-2604,0
303,3175,-2605,0
303,3172,-2601,0
303,3174,-2600,0
303,3175,-2600,0
300,3176,-2603,0
299,3174,-2600,0
298,3174,-2599,0
299,3175,-2599,0
302,3174,-2599,0
300,3174,-2597,0
298,3172,-2599,0
302,3169,-2596,0
306,3171,-2596,0
303,3171,-2600,0
304,3173,-2601,0
304,3171,-2598,0
304,3171,-2601,0
302,3173,-2599,0
300,3174,-2599,0
303,3171,-2605,0
306,3172,-2602,0
302,3171,-2601,0
302,3174,-2602,0
302,3175,-2601,0
302,3174,-2601,0
303,3176,-2599,0
308,3175,-2602,0
310,3173,-2599,0
307,3173,-2600,0
305,3171,-2604,0
302,3173,-2600,0
301,3173,-2600,0
302,3171,-2602,0
304,3167,-2602,0
305,3168,-2599,0
301,3171,-2598,0
302,3172,-2600,0
304,3173,-2595,0
305,3172,-2599,0
302,3169,-2599,0
301,3171,-2599,0
304,3172,-2599,0
306,3170,-2600,0
303,3173,-2600,0
303,3172,-2599,0
302,3173,-2597,0
301,3172,-2600,0
301,3172,-2600,0
300,3175,-2602,0
301,3174,-2604,0
301,3174,-2605,0
304,3174,-2603,0
301,3172,-2604,0
306,3172,-2604,0
305,3170,-2604,0
306,3172,-2602,0
303,3174,-2603,0
303,3173,-2604,0
304,3176,-2605,0
307,3175,-2604,0
307,3179,-2606,0
306,3179,-2604,0
305,3178,-2603,0
303,3176,-2604,0
303,3174,-2599,0
302,3173,-2596,0
304,3172,-2599,0
305,3174,-2598,0
307,3177,-2598,0
305,3178,-2597,0
304,3173,-2602,0
301,3175,-2601,0
301,3172,-2602,0
301,3179,-2597,0
302,3176,-2602,0
303,3175,-2603,0
302,3176,-2605,0
302,3174,-2605,0
302,3176,-2604,0
301,3175,-2604,0
302,3174,-2605,0
307,3170,-2604,0
306,3171,-2602,0
307,3172,-2597,0
304,3171,-2597,0
303,3170,-2595,0
302,3172,-2597,0
298,3170,-2599,0
298,3172,-2599,0
299,3171,-2596,0
299,3171,-2598,0
303,3171,-2599,0
301,3172,-2596,0
302,3172,-2596,0
305,3171,-2597,0
304,3172,-2599,0
303,3175,-2599,0
304,3172,-2601,0
306,3173,-2598,0
306,3173,-2597,0
305,3171,-2597,0
304,3173,-2599,0
303,3173,-2599,0
305,3175,-2598,0
304,3177,-2600,0
305,3175,-2603,0
303,3175,-2605,0
303,3176,-2605,0
304,3175,-2601,0
302,3174,-2603,0
302,3172,-2597,0
302,3174,-2598,0
303,3170,-2598,0
301,3171,-2599,0
302,3174,-2596,0
303,3172,-2595,0
305,3175,-2594,0
305,3171,-2597,0
305,3169,-2595,0
306,3173,-2595,0
305,3170,-2597,0
305,3170,-2596,0
302,3169,-2598,0
303,3169,-2596,0
303,3172,-2600,0
304,3170,-2602,0
303,3171,-2600,0
302,3175,-2601,0
302,3173,-2602,0
305,3175,-2601,0
304,3173,-2601,0
304,3173,-2600,0
304,3174,-2600,0
304,3173,-2599,0
306,3174,-2599,0
306,3175,-2599,0
304,3177,-2600,0
304,3174,-2601,0
303,3170,-2599,0
300,3174,-2599,0
298,3176,-2601,0
302,3176,-2602,0
304,3177,-2602,0
304,3179,-2604,0
304,3179,-2601,0
303,3177,-2601,0
303,3175,-2600,0
305,3178,-2598,0
304,3178,-2601,0
303,3178,-2599,0
305,3175,-2599,0
302,3175,-2596,0
301,3175,-2599,0
302,3173,-2595,0
304,3173,-2595,0
304,3171,-2596,0
302,3173,-2594,0
303,3176,-2595,0
305,3173,-2596,0
302,3174,-2594,0
302,3173,-2595,0
308,3173,-2592,0
309,3171,-2592,0
307,3171,-2597,0
305,3174,-2597,0
303,3174,-2598,0
301,3173,-2597,0
302,3178,-2598,0
306,3176,-2598,0
303,3175,-2598,0
300,3174,-2603,0
301,3173,-2599,0
302,3173,-2596,0
301,3174,-2598,0
302,3174,-2598,0
304,3177,-2598,0
304,3176,-2597,0
304,3175,-2597,0
303,3177,-2597,0
305,3178,-2595,0
305,3180,-2596,0
305,3176,-2598,0
305,3176,-2600,0
306,3174,-2599,0
306,3174,-2599,0
307,3172,-2596,0
308,3173,-2595,0
308,3172,-2595,0
309,3173,-2598,0
311,3173,-2598,0
310,3176,-2597,0
308,3174,-2599,0
306,3174,-2599,0
305,3173,-2600,0
303,3174,-2603,0
300,3176,-2601,0
300,3173,-2602,0
305,3176,-2601,0
304,3179,-2598,0
302,3178,-2599,0
300,3176,-2597,0
300,3176,-2596,0
302,3178,-2593,0
307,3172,-2595,0
304,3173,-2598,0
307,3170,-2597,0
309,3171,-2596,0
309,3172,-2598,0
310,3176,-2598,0
311,3176,-2599,0
308,3176,-2599,0
306,3177,-2598,0
304,3177,-2599,0
304,3178,-2598,0
302,3175,-2596,0
311,3172,-2597,0
307,3175,-2598,0
302,3176,-2595,0
306,3176,-2596,0
305,3175,-2598,0
302,3178,-2596,0
299,3177,-2599,0
298,3177,-2601,0
298,3177,-2598,0
298,3177,-2598,0
298,3178,-2599,0
302,3180,-2596,0
303,3178,-2601,0
303,3177,-2600,0
303,3176,-2601,0
303,3176,-2600,0
305,3174,-2598,0
305,3172,-2598,0
303,3174,-2599,0
306,3176,-2600,0
306,3175,-2596,0
305,3175,-2596,0
305,3175,-2596,0
304,3176,-2597,0
304,3174,-2597,0
306,3175,-2591,0
308,3176,-2591,0
306,3172,-2590,0
307,3176,-2590,0
304,3176,-2595,0
305,3176,-2596,0
304,3177,-2595,0
303,3176,-2594,0
303,3176,-2593,0
303,3179,-2596,0
303,3177,-2595,0
304,3179,-2595,0
307,3178,-2597,0
305,3180,-2596,0
307,3179,-2595,0
305,3178,-2597,0
306,3181,-2598,0
306,3179,-2598,0
306,3181,-2597,0
305,3178,-2597,0
306,3175,-2593,0
308,3173,-2592,0
306,3172,-2591,0
308,3172,-2591,0
306,3174,-2591,0
308,3176,-2593,0
308,3176,-2592,0
307,3175,-2596,0
304,3176,-2597,0
308,3174,-2595,0
305,3173,-2594,0
307,3175,-2593,0
307,3178,-2592,0
309,3180,-2596,0
307,3179,-2598,0
305,3179,-2599,0
308,3181,-2596,0
309,3179,-2596,0
306,3180,-2596,0
309,3178,-2597,0
308,3181,-2598,0
307,3178,-2597,0
308,3177,-2597,0
303,3179,-2598,0
307,3182,-2597,0
305,3176,-2596,0
308,3177,-2596,0
310,3175,-2597,0
311,3174,-2594,0
307,3175,-2592,0
305,3175,-2591,0
304,3178,-2590,0
304,3175,-2592,0
304,3177,-2592,0
307,3180,-2592,0
308,3175,-2592,0
308,3178,-2592,0
307,3180,-2594,0
306,3182,-2595,0
308,3184,-2596,0
310,3182,-2596,0
310,3184,-2596,0
308,3185,-2595,0
308,3179,-2595,0
311,3181,-2592,0
