accelerometer_x,accelerometer_y,accelerometer_z,fall
3095,-2662,-446,0
3091,-2660,-446,0
3084,-2655,-440,0
3080,-2650,-436,0
3080,-2652,-438,0
3081,-2649,-438,0
3080,-2648,-435,0
3080,-2648,-435,0
3081,-2649,-444,0
3083,-2651,-444,0
3084,-2652,-444,0
3089,-2657,-443,0
3088,-2661,-441,0
3084,-2664,-436,0
3083,-2664,-432,0
3080,-2663,-431,0
3077,-2661,-434,0
3072,-2662,-434,0
3070,-2659,-436,0
3066,-2661,-440,0
3062,-2661,-444,0
3058,-2663,-448,0
3058,-2656,-452,0
3056,-2652,-458,0
3059,-2652,-459,0
3062,-2649,-460,0
3059,-2650,-455,0
3058,-2653,-450,0
3058,-2657,-450,0
3059,-2663,-453,0
3058,-2677,-454,0
3061,-2681,-454,0
3056,-2682,-459,0
3055,-2677,-465,0
3054,-2677,-465,0
3059,-2680,-469,0
3063,-2678,-473,0
3070,-2682,-481,0
3075,-2686,-480,0
3075,-2691,-474,0
3066,-2689,-472,0
3054,-2685,-467,0
3045,-2681,-463,0
3037,-2677,-457,0
3032,-2669,-453,0
3025,-2663,-453,0
3022,-2662,-451,0
3020,-2660,-454,0
3020,-2660,-458,0
3022,-2664,-461,0
3026,-2670,-468,0
3032,-2677,-470,0
3035,-2687,-476,0
3038,-2695,-477,0
3034,-2698,-476,0
3033,-2705,-477,0
3029,-2711,-475,0
3018,-2711,-478,0
3007,-2715,-476,0
3000,-2716,-479,0
2993,-2720,-478,0
2990,-2722,-477,0
2991,-2727,-478,0
2992,-2733,-482,0
2996,-2740,-485,0
3003,-2744,-488,0
3009,-2746,-493,0
3014,-2746,-499,0
3016,-2747,-508,0
3016,-2747,-512,0
3014,-2745,-517,0
3014,-2743,-518,0
3015,-2742,-515,0
3016,-2739,-515,0
3016,-2738,-516,0
3021,-2740,-514,0
3024,-2734,-508,0
3030,-2735,-503,0
3028,-2730,-497,0
3028,-2731,-487,0
3020,-2729,-485,0
3017,-2730,-484,0
3013,-2729,-483,0
3012,-2730,-479,0
3013,-2727,-477,0
3013,-2724,-477,0
3012,-2720,-474,0
3016,-2721,-475,0
3020,-2715,-476,0
3027,-2710,-473,0
3030,-2703,-475,0
3032,-2694,-481,0
3040,-2689,-480,0
3038,-2682,-480,0
3039,-2681,-478,0
3039,-2672,-479,0
3042,-2664,-481,0
3046,-2657,-483,0
3049,-2657,-476,0
3057,-2657,-475,0
3062,-2656,-476,0
3069,-2658,-474,0
3072,-2656,-477,0
3073,-2649,-478,0
3072,-2641,-481,0
3072,-2631,-481,0
3076,-2624,-482,0
3080,-2619,-486,0
3082,-2618,-491,0
3086,-2616,-497,0
3095,-2615,-502,0
3099,-2615,-504,0
3109,-2616,-504,0
3113,-2615,-507,0
3119,-2621,-509,0
3119,-2619,-509,0
3119,-2622,-511,0
3119,-2624,-511,0
3129,-2621,-513,0
3135,-2623,-517,0
3150,-2623,-522,0
3159,-2629,-521,0
3167,-2629,-519,0
3174,-2631,-516,0
3176,-2630,-513,0
3170,-2625,-515,0
3163,-2617,-514,0
3154,-2611,-513,0
3141,-2607,-511,0
3131,-2603,-512,0
3123,-2605,-512,0
3113,-2607,-509,0
3102,-2608,-510,0
3100,-2610,-512,0
3095,-2618,-513,0
3091,-2616,-511,0
3089,-2617,-511,0
3087,-2622,-517,0
3080,-2629,-520,0
3069,-2634,-523,0
3067,-2635,-526,0
3063,-2637,-525,0
3057,-2638,-523,0
3059,-2637,-518,0
3056,-2642,-517,0
3050,-2636,-517,0
3048,-2635,-515,0
3046,-2636,-520,0
3045,-2643,-527,0
3041,-2649,-528,0
3042,-2658,-537,0
3047,-2666,-546,0
3050,-2673,-552,0
3049,-2682,-551,0
3049,-2682,-550,0
3036,-2676,-550,0
3030,-2664,-549,0
3026,-2660,-552,0
3016,-2666,-550,0
3013,-2672,-554,0
3018,-2667,-560,0
3021,-2664,-569,0
3027,-2661,-587,0
3041,-2644,-595,0
3042,-2639,-593,0
3008,-2654,-581,0
2966,-2703,-585,0
2937,-2746,-593,0
2936,-2776,-590,0
2961,-2792,-583,0
2985,-2794,-578,0
2988,-2800,-582,0
2978,-2820,-590,0
2970,-2838,-596,0
2972,-2843,-595,0
2984,-2837,-593,0
2999,-2820,-596,0
3020,-2804,-598,0
3034,-2773,-603,0
3054,-2739,-603,0
3068,-2707,-602,0
3075,-2678,-601,0
3069,-2646,-598,0
3079,-2622,-597,0
3076,-2606,-582,0
3066,-2604,-570,0
3052,-2601,-565,0
3043,-2604,-572,0
3034,-2616,-570,0
3038,-2631,-565,0
3048,-2657,-566,0
3066,-2693,-556,0
3083,-2728,-543,0
3095,-2756,-536,0
3103,-2772,-537,0
3105,-2777,-542,0
3105,-2776,-548,0
3107,-2765,-549,0
3114,-2752,-555,0
3124,-2737,-559,0
3120,-2716,-562,0
3120,-2696,-560,0
3120,-2665,-555,0
3118,-2630,-547,0
3109,-2602,-534,0
3098,-2585,-525,0
3090,-2569,-514,0
3086,-2569,-514,0
3090,-2575,-515,0
3094,-2594,-512,0
3100,-2616,-510,0
3103,-2639,-512,0
3103,-2662,-511,0
3099,-2678,-509,0
3090,-2690,-507,0
3081,-2701,-508,0
3082,-2707,-509,0
3077,-2708,-516,0
3073,-2709,-525,0
3068,-2706,-527,0
3060,-2700,-529,0
3051,-2697,-531,0
3040,-2691,-532,0
3027,-2682,-536,0
3019,-2672,-543,0
3010,-2668,-544,0
3013,-2669,-540,0
3011,-2670,-544,0
3008,-2677,-551,0
3010,-2686,-549,0
3007,-2692,-545,0
3012,-2704,-544,0
3014,-2713,-543,0
3017,-2725,-539,0
3018,-2736,-537,0
3018,-2738,-541,0
3015,-2738,-546,0
3008,-2739,-548,0
2997,-2738,-552,0
2988,-2736,-554,0
2985,-2733,-560,0
2985,-2734,-561,0
2986,-2733,-563,0
2990,-2737,-563,0
2998,-2738,-566,0
3001,-2744,-565,0
3009,-2750,-558,0
3009,-2752,-550,0
3011,-2755,-546,0
3009,-2753,-542,0
3010,-2751,-537,0
3009,-2752,-531,0
3004,-2753,-526,0
3000,-2754,-522,0
2997,-2749,-523,0
2995,-2747,-519,0
2990,-2739,-515,0
2985,-2731,-514,0
2980,-2721,-509,0
2983,-2713,-509,0
2985,-2707,-510,0
2991,-2705,-511,0
2997,-2699,-507,0
3011,-2699,-504,0
3023,-2699,-505,0
3030,-2693,-505,0
3029,-2688,-505,0
3030,-2688,-508,0
3026,-2686,-506,0
3030,-2691,-506,0
3036,-2694,-499,0
3037,-2704,-494,0
3041,-2706,-492,0
3046,-2705,-496,0
3043,-2702,-492,0
3040,-2699,-495,0
3033,-2697,-498,0
3028,-2697,-506,0
3023,-2690,-514,0
3019,-2687,-520,0
3018,-2687,-521,0
3023,-2688,-523,0
3033,-2692,-528,0
3041,-2691,-526,0
3049,-2693,-526,0
3055,-2691,-528,0
3056,-2698,-528,0
3063,-2703,-525,0
3067,-2702,-528,0
3070,-2701,-523,0
3066,-2702,-524,0
3065,-2693,-524,0
3063,-2689,-524,0
3060,-2693,-528,0
3064,-2692,-529,0
3061,-2686,-532,0
3067,-2689,-529,0
3069,-2685,-525,0
3072,-2683,-519,0
3070,-2682,-513,0
3073,-2681,-505,0
3076,-2679,-499,0
3079,-2681,-497,0
3075,-2683,-502,0
3079,-2682,-503,0
3073,-2680,-498,0
3073,-2681,-497,0
3068,-2676,-495,0
3059,-2673,-497,0
3048,-2671,-500,0
3042,-2672,-499,0
3036,-2667,-498,0
3039,-2672,-497,0
3047,-2680,-505,0
3057,-2686,-508,0
3067,-2692,-506,0
3072,-2700,-499,0
3074,-2705,-494,0
3075,-2705,-493,0
3070,-2707,-491,0
3063,-2712,-495,0
3056,-2712,-491,0
3046,-2710,-494,0
3039,-2704,-493,0
3033,-2700,-488,0
3031,-2698,-486,0
3031,-2694,-489,0
3034,-2696,-491,0
3038,-2695,-492,0
3041,-2697,-492,0
3047,-2698,-492,0
3049,-2695,-487,0
3044,-2690,-492,0
3038,-2688,-492,0
3029,-2686,-485,0
3025,-2682,-484,0
3022,-2685,-483,0
3026,-2687,-481,0
3028,-2690,-482,0
3032,-2693,-482,0
3037,-2697,-483,0
3044,-2697,-488,0
3045,-2703,-494,0
3049,-2703,-497,0
3053,-2703,-497,0
3052,-2705,-498,0
3052,-2705,-493,0
3055,-2703,-487,0
3055,-2701,-483,0
3055,-2694,-475,0
3053,-2697,-466,0
3051,-2690,-461,0
3044,-2681,-458,0
3040,-2673,-462,0
3040,-2671,-462,0
3043,-2670,-461,0
3046,-2672,-461,0
3046,-2676,-462,0
3048,-2677,-465,0
3052,-2674,-460,0
3058,-2670,-454,0
3063,-2667,-450,0
3077,-2665,-451,0
3078,-2663,-445,0
3074,-2669,-443,0
3070,-2670,-441,0
3067,-2669,-441,0
3071,-2668,-438,0
3062,-2671,-428,0
3055,-2672,-420,0
3047,-2665,-423,0
3042,-2648,-423,0
3039,-2636,-413,0
3043,-2631,-407,0
3049,-2630,-406,0
3054,-2633,-411,0
3062,-2636,-409,0
3067,-2635,-406,0
3067,-2635,-404,0
3065,-2635,-403,0
3059,-2630,-401,0
3057,-2631,-404,0
3059,-2633,-401,0
3069,-2637,-403,0
3079,-2646,-400,0
3093,-2654,-399,0
3095,-2659,-398,0
3097,-2664,-401,0
3095,-2657,-395,0
3087,-2651,-391,0
3085,-2645,-392,0
3082,-2642,-391,0
3080,-2637,-392,0
3078,-2635,-388,0
3079,-2636,-386,0
3085,-2635,-381,0
3094,-2636,-380,0
3098,-2632,-374,0
3100,-2631,-373,0
3101,-2633,-370,0
3104,-2629,-368,0
3103,-2631,-363,0
3100,-2631,-367,0
3101,-2628,-372,0
3103,-2631,-375,0
3107,-2630,-380,0
3111,-2633,-382,0
3113,-2631,-385,0
3117,-2633,-383,0
3115,-2634,-375,0
3112,-2635,-374,0
3105,-2634,-378,0
3098,-2635,-380,0
3091,-2642,-383,0
3080,-2648,-388,0
3078,-2653,-387,0
3075,-2658,-387,0
3073,-2660,-385,0
3075,-2665,-384,0
3080,-2665,-383,0
3081,-2667,-379,0
3083,-2665,-377,0
3083,-2664,-380,0
3076,-2660,-383,0
3066,-2654,-383,0
3056,-2644,-384,0
3042,-2638,-393,0
3032,-2632,-393,0
3027,-2625,-388,0
3023,-2627,-387,0
3023,-2632,-386,0
3032,-2640,-387,0
3043,-2653,-386,0
3063,-2660,-393,0
3070,-2661,-402,0
3072,-2664,-404,0
3068,-2663,-403,0
3061,-2668,-407,0
3049,-2665,-411,0
3050,-2668,-407,0
3056,-2673,-397,0
3064,-2673,-398,0
3068,-2677,-393,0
3071,-2675,-390,0
3076,-2672,-386,0
3085,-2665,-371,0
3092,-2657,-368,0
3096,-2661,-382,0
3093,-2666,-400,0
3090,-2663,-413,0
3091,-2663,-426,0
3090,-2666,-431,0
3087,-2666,-428,0
3087,-2670,-420,0
3086,-2677,-418,0
3081,-2683,-418,0
3077,-2680,-418,0
3067,-2679,-413,0
3060,-2678,-412,0
3054,-2676,-419,0
3043,-2667,-423,0
3037,-2663,-422,0
3029,-2658,-425,0
3023,-2659,-421,0
3023,-2662,-425,0
3021,-2668,-425,0
3022,-2673,-431,0
3025,-2679,-438,0
3036,-2682,-435,0
3050,-2686,-433,0
3063,-2693,-433,0
3079,-2703,-435,0
3085,-2710,-437,0
3087,-2707,-437,0
3089,-2703,-440,0
3089,-2697,-438,0
3089,-2692,-434,0
3089,-2686,-427,0
3091,-2678,-427,0
3089,-2668,-433,0
3088,-2661,-436,0
3081,-2657,-437,0
3077,-2656,-431,0
3070,-2651,-433,0
3065,-2646,-432,0
3065,-2639,-432,0
3065,-2636,-430,0
3070,-2642,-431,0
3072,-2650,-435,0
3073,-2658,-442,0
3075,-2665,-450,0
3075,-2669,-456,0
3072,-2674,-457,0
3066,-2677,-462,0
3061,-2678,-466,0
3055,-2677,-467,0
3050,-2674,-462,0
3043,-2670,-457,0
3035,-2672,-459,0
3043,-2672,-457,0
3047,-2674,-455,0
3052,-2677,-458,0
3056,-2686,-469,0
3063,-2688,-470,0
3067,-2692,-474,0
3068,-2697,-476,0
3068,-2699,-473,0
3065,-2700,-473,0
3063,-2699,-469,0
3051,-2689,-468,0
3048,-2682,-468,0
3051,-2672,-456,0
3050,-2669,-455,0
3046,-2671,-463,0
3048,-2668,-466,0
3054,-2668,-463,0
3061,-2671,-462,0
3068,-2674,-466,0
3067,-2677,-465,0
3068,-2679,-467,0
3069,-2680,-466,0
3075,-2685,-465,0
3071,-2694,-462,0
3066,-2694,-460,0
3057,-2692,-464,0
3049,-2691,-468,0
3046,-2686,-472,0
3042,-2682,-472,0
3042,-2678,-473,0
3041,-2674,-475,0
3046,-2675,-479,0
3053,-2679,-478,0
3065,-2677,-476,0
3069,-2675,-479,0
3074,-2670,-475,0
3085,-2667,-465,0
3087,-2671,-465,0
3089,-2672,-470,0
3087,-2678,-468,0
3085,-2680,-469,0
3081,-2678,-469,0
3074,-2676,-472,0
3068,-2670,-474,0
3073,-2667,-472,0
3078,-2663,-470,0
3079,-2665,-470,0
3083,-2667,-471,0
3092,-2668,-464,0
3091,-2668,-458,0
3089,-2667,-449,0
3084,-2666,-441,0
3072,-2662,-437,0
3066,-2659,-433,0
3058,-2657,-430,0
3057,-2654,-433,0
3055,-2653,-431,0
3055,-2655,-438,0
3054,-2660,-445,0
3052,-2665,-448,0
3054,-2670,-447,0
3058,-2678,-453,0
3060,-2686,-455,0
3058,-2686,-449,0
3052,-2683,-448,0
3044,-2678,-457,0
3036,-2673,-454,0
3038,-2670,-453,0
3038,-2672,-459,0
3042,-2673,-457,0
3047,-2672,-454,0
3043,-2681,-459,0
3044,-2684,-458,0
3048,-2686,-459,0
3050,-2697,-464,0
3047,-2707,-464,0
3047,-2713,-468,0
3040,-2711,-469,0
3034,-2704,-471,0
3035,-2698,-478,0
3038,-2698,-475,0
3044,-2698,-475,0
3044,-2697,-472,0
3048,-2693,-471,0
3049,-2693,-466,0
3055,-2700,-463,0
3054,-2705,-470,0
3053,-2711,-477,0
3054,-2721,-479,0
3048,-2725,-480,0
3039,-2723,-472,0
3032,-2715,-471,0
3023,-2710,-469,0
3018,-2702,-471,0
3016,-2698,-468,0
3015,-2694,-466,0
3019,-2692,-462,0
3020,-2687,-462,0
3023,-2687,-462,0
3030,-2686,-462,0
3030,-2689,-465,0
3034,-2694,-463,0
3034,-2690,-463,0
3038,-2685,-464,0
3044,-2683,-459,0
3049,-2685,-459,0
3048,-2690,-466,0
3047,-2696,-466,0
3040,-2704,-470,0
3033,-2705,-466,0
3035,-2709,-467,0
3027,-2709,-469,0
3028,-2711,-473,0
3025,-2708,-474,0
3024,-2705,-477,0
3022,-2704,-478,0
3023,-2702,-479,0
3027,-2697,-474,0
3029,-2697,-475,0
3035,-2703,-476,0
3039,-2713,-484,0
3036,-2713,-489,0
3034,-2706,-493,0
3031,-2699,-494,0
3028,-2694,-492,0
3028,-2693,-492,0
3034,-2696,-496,0
3030,-2704,-498,0
3028,-2709,-500,0
3027,-2713,-506,0
3025,-2713,-503,0
3023,-2714,-503,0
3022,-2717,-503,0
3022,-2720,-499,0
3020,-2722,-496,0
3024,-2721,-495,0
3026,-2718,-494,0
3029,-2718,-494,0
3032,-2720,-492,0
3029,-2724,-497,0
3025,-2718,-496,0
3023,-2712,-502,0
3028,-2709,-496,0
3035,-2715,-495,0
3042,-2712,-492,0
3046,-2715,-496,0
3047,-2717,-503,0
3047,-2721,-501,0
3048,-2716,-500,0
3044,-2708,-503,0
3041,-2704,-501,0
3039,-2705,-504,0
3040,-2706,-505,0
3034,-2705,-505,0
3032,-2707,-510,0
3031,-2712,-511,0
3027,-2713,-513,0
3024,-2722,-517,0
3026,-2728,-518,0
3028,-2732,-524,0
3030,-2735,-523,0
3034,-2732,-521,0
3035,-2731,-510,0
3035,-2728,-508,0
3032,-2729,-506,0
3030,-2727,-504,0
3028,-2722,-506,0
3021,-2719,-506,0
3018,-2718,-508,0
3020,-2717,-505,0
3025,-2712,-508,0
3027,-2711,-510,0
3034,-2710,-517,0
3037,-2710,-520,0
3034,-2706,-523,0
3036,-2700,-523,0
3029,-2690,-513,0
3024,-2686,-512,0
3017,-2687,-510,0
3014,-2685,-505,0
3013,-2683,-503,0
3017,-2683,-505,0
3019,-2684,-500,0
3021,-2685,-501,0
3027,-2686,-501,0
3035,-2688,-504,0
3042,-2689,-501,0
3044,-2693,-504,0
3048,-2695,-507,0
3048,-2695,-507,0
3051,-2696,-506,0
3051,-2694,-511,0
3050,-2696,-516,0
3045,-2701,-516,0
3041,-2706,-516,0
3041,-2703,-514,0
3037,-2701,-513,0
3033,-2703,-516,0
3029,-2702,-519,0
3030,-2695,-513,0
3033,-2689,-511,0
3033,-2689,-509,0
3036,-2685,-514,0
3042,-2682,-514,0
3054,-2678,-505,0
3061,-2676,-499,0
3061,-2682,-501,0
3065,-2682,-504,0
3068,-2678,-502,0
3066,-2675,-497,0
3061,-2676,-497,0
3054,-2670,-495,0
3047,-2667,-495,0
3042,-2668,-496,0
3040,-2667,-498,0
3039,-2669,-506,0
3040,-2667,-508,0
3043,-2663,-504,0
3047,-2664,-501,0
3046,-2664,-504,0
3047,-2667,-502,0
3051,-2670,-502,0
3056,-2671,-506,0
3064,-2671,-503,0
3068,-2676,-500,0
3069,-2678,-500,0
3064,-2675,-499,0
3058,-2675,-505,0
3055,-2673,-505,0
3050,-2668,-508,0
3049,-2671,-510,0
3047,-2673,-508,0
3048,-2675,-508,0
3053,-2674,-509,0
3053,-2678,-509,0
3058,-2687,-511,0
3056,-2685,-513,0
3057,-2686,-511,0
3056,-2681,-508,0
3055,-2677,-512,0
3058,-2671,-512,0
3058,-2670,-513,0
3058,-2669,-511,0
3059,-2673,-513,0
3062,-2675,-514,0
3067,-2676,-518,0
3069,-2678,-522,0
3068,-2677,-524,0
3067,-2673,-515,0
3067,-2670,-514,0
3069,-2672,-514,0
3069,-2677,-513,0
3068,-2677,-508,0
3066,-2674,-510,0
3066,-2669,-505,0
3061,-2667,-501,0
3062,-2669,-497,0
3064,-2667,-496,0
3062,-2669,-500,0
3063,-2673,-504,0
3061,-2678,-509,0
3062,-2677,-511,0
3060,-2678,-508,0
3064,-2674,-506,0
3060,-2677,-503,0
3058,-2673,-499,0
3062,-2674,-497,0
3060,-2676,-495,0
3060,-2675,-492,0
3058,-2669,-494,0
3052,-2669,-497,0
3049,-2664,-498,0
3048,-2665,-499,0
3050,-2668,-503,0
3053,-2673,-505,0
3058,-2671,-508,0
3058,-2673,-511,0
3059,-2672,-509,0
3058,-2673,-507,0
3057,-2674,-505,0
3057,-2673,-505,0
3053,-2671,-502,0
3054,-2672,-502,0
3055,-2670,-498,0
3052,-2674,-502,0
3052,-2679,-501,0
3053,-2686,-503,0
3052,-2690,-507,0
3056,-2695,-513,0
3064,-2694,-509,0
3067,-2694,-510,0
3064,-2689,-509,0
3060,-2689,-506,0
3056,-2688,-505,0
3052,-2690,-504,0
3045,-2687,-502,0
3042,-2685,-498,0
3041,-2681,-500,0
3039,-2677,-506,0
3039,-2679,-503,0
3042,-2682,-509,0
3047,-2686,-512,0
3049,-2686,-516,0
3044,-2686,-514,0
3047,-2684,-508,0
3046,-2685,-507,0
3042,-2687,-509,0
3045,-2688,-510,0
3044,-2687,-504,0
3042,-2689,-501,0
3041,-2687,-498,0
3043,-2684,-502,0
3044,-2678,-501,0
3049,-2676,-500,0
3057,-2676,-502,0
3065,-2679,-503,0
3067,-2676,-500,0
3068,-2674,-500,0
3067,-2673,-502,0
3062,-2673,-508,0
3057,-2675,-503,0
3054,-2674,-505,0
3058,-2678,-509,0
3066,-2684,-511,0
3061,-2688,-505,0
3059,-2681,-506,0
3058,-2681,-506,0
3051,-2679,-505,0
3047,-2677,-508,0
3041,-2674,-504,0
3045,-2674,-503,0
3047,-2675,-504,0
3049,-2675,-500,0
3051,-2674,-497,0
3052,-2676,-498,0
3060,-2676,-493,0
3063,-2677,-498,0
3067,-2676,-497,0
3061,-2677,-498,0
3055,-2671,-501,0
3048,-2670,-498,0
3048,-2670,-495,0
3047,-2672,-496,0
3050,-2675,-500,0
3053,-2678,-505,0
3050,-2683,-505,0
3049,-2686,-503,0
3049,-2688,-502,0
3042,-2690,-504,0
3035,-2695,-509,0
3031,-2694,-507,0
3033,-2691,-504,0
3033,-2690,-504,0
3034,-2691,-501,0
3037,-2691,-503,0
3042,-2693,-506,0
3051,-2695,-505,0
3059,-2698,-498,0
3059,-2697,-498,0
3057,-2696,-504,0
3049,-2688,-503,0
3047,-2681,-504,0
3046,-2680,-501,0
3049,-2675,-500,0
3049,-2674,-501,0
3051,-2675,-503,0
3056,-2679,-505,0
3058,-2679,-509,0
3058,-2680,-507,0
3058,-2679,-504,0
3059,-2679,-502,0
3066,-2682,-504,0
3072,-2686,-504,0
3072,-2685,-507,0
3074,-2686,-509,0
3076,-2692,-504,0
3076,-2690,-507,0
3067,-2690,-508,0
3063,-2687,-510,0
3068,-2681,-508,0
3075,-2679,-510,0
3074,-2678,-511,0
3075,-2676,-509,0
3075,-2678,-511,0
3075,-2676,-513,0
3078,-2676,-512,0
3075,-2677,-509,0
3075,-2680,-499,0
3073,-2682,-496,0
3069,-2682,-499,0
3067,-2679,-501,0
3067,-2679,-504,0
3068,-2683,-496,0
3069,-2684,-493,0
3063,-2685,-490,0
3062,-2680,-490,0
3058,-2678,-490,0
3054,-2675,-489,0
3051,-2672,-487,0
3049,-2671,-488,0
3049,-2673,-495,0
3055,-2670,-489,0
3057,-2671,-488,0
3061,-2671,-494,0
3068,-2671,-495,0
3067,-2668,-492,0
3067,-2669,-487,0
3061,-2667,-484,0
3062,-2667,-478,0
3065,-2664,-474,0
3060,-2660,-472,0
3052,-2661,-468,0
3049,-2662,-466,0
3043,-2661,-469,0
3037,-2658,-472,0
3033,-2664,-475,0
3036,-2668,-478,0
3042,-2672,-483,0
3052,-2677,-489,0
3052,-2681,-492,0
3057,-2676,-491,0
3059,-2673,-488,0
3060,-2664,-482,0
3056,-2662,-476,0
3053,-2659,-475,0
3053,-2661,-475,0
3048,-2666,-475,0
3039,-2668,-477,0
3032,-2672,-476,0
3024,-2674,-480,0
3017,-2674,-483,0
3016,-2677,-486,0
3016,-2679,-486,0
3018,-2681,-484,0
3023,-2680,-483,0
3027,-2681,-480,0
3027,-2686,-478,0
3030,-2684,-475,0
3027,-2674,-476,0
3033,-2674,-474,0
3036,-2678,-471,0
3036,-2677,-471,0
3043,-2679,-471,0
3045,-2678,-472,0
3050,-2677,-472,0
3056,-2672,-478,0
3059,-2670,-482,0
3066,-2668,-484,0
3065,-2675,-481,0
3068,-2678,-482,0
3073,-2676,-485,0
3074,-2675,-483,0
3074,-2675,-487,0
3071,-2679,-490,0
3062,-2677,-490,0
3062,-2679,-491,0
3055,-2685,-486,0
3055,-2694,-484,0
3063,-2698,-485,0
3073,-2698,-479,0
3079,-2697,-478,0
3080,-2695,-477,0
3080,-2689,-478,0
3084,-2680,-475,0
3086,-2674,-473,0
3086,-2667,-469,0
3088,-2666,-468,0
3088,-2660,-472,0
3088,-2652,-470,0
3087,-2654,-471,0
3084,-2650,-467,0
3083,-2651,-467,0
3080,-2657,-463,0
3080,-2660,-464,0
3081,-2665,-465,0
3081,-2666,-469,0
3074,-2670,-468,0
3071,-2667,-466,0
3069,-2669,-463,0
3066,-2669,-459,0
3059,-2668,-456,0
3063,-2672,-459,0
3064,-2672,-457,0
3063,-2671,-455,0
3060,-2666,-456,0
3059,-2661,-459,0
3058,-2660,-461,0
3058,-2659,-458,0
3060,-2653,-455,0
3059,-2656,-455,0
3058,-2661,-457,0
3058,-2663,-461,0
3060,-2664,-464,0
3061,-2665,-466,0
3058,-2666,-465,0
3064,-2668,-466,0
3065,-2673,-469,0
3062,-2677,-473,0
3063,-2682,-473,0
3063,-2685,-470,0
3059,-2688,-469,0
3056,-2692,-471,0
3054,-2695,-469,0
3053,-2697,-469,0
3048,-2696,-469,0
3045,-2693,-470,0
3045,-2693,-472,0
3045,-2693,-477,0
3047,-2691,-477,0
3053,-2689,-475,0
3053,-2690,-473,0
3055,-2694,-473,0
3061,-2693,-471,0
3061,-2689,-469,0
3062,-2689,-466,0
3067,-2686,-469,0
3068,-2686,-470,0
3070,-2679,-468,0
3072,-2677,-468,0
3073,-2676,-467,0
3078,-2675,-466,0
3075,-2674,-465,0
3071,-2670,-459,0
3071,-2668,-454,0
3071,-2666,-457,0
3069,-2659,-455,0
3070,-2659,-449,0
3073,-2661,-448,0
3069,-2662,-444,0
3064,-2659,-446,0
3066,-2662,-446,0
3064,-2663,-450,0
3060,-2664,-447,0
3063,-2663,-444,0
3058,-2659,-441,0
3056,-2658,-444,0
3059,-2655,-448,0
3065,-2660,-451,0
3066,-2665,-445,0
3067,-2666,-444,0
3068,-2667,-440,0
3069,-2667,-435,0
3063,-2668,-435,0
3061,-2667,-435,0
3061,-2664,-433,0
3056,-2663,-435,0
3054,-2662,-438,0
3052,-2666,-442,0
3053,-2670,-447,0
3054,-2673,-450,0
3060,-2676,-454,0
3061,-2675,-454,0
3062,-2674,-454,0
3058,-2672,-451,0
3057,-2674,-447,0
3053,-2673,-445,0
3053,-2676,-451,0
3049,-2679,-453,0
3049,-2682,-453,0
3051,-2686,-453,0
3047,-2680,-454,0
3048,-2679,-457,0
3044,-2679,-457,0
3050,-2675,-461,0
3052,-2673,-459,0
3058,-2673,-459,0
3059,-2669,-452,0
3059,-2666,-450,0
3059,-2665,-443,0
3056,-2662,-437,0
3056,-2659,-436,0
3053,-2659,-436,0
3057,-2656,-435,0
3066,-2653,-433,0
3066,-2656,-431,0
3066,-2661,-432,0
3068,-2665,-437,0
3065,-2665,-438,0
3064,-2662,-441,0
3063,-2660,-447,0
3060,-2664,-445,0
3069,-2663,-446,0
3071,-2664,-445,0
3072,-2668,-443,0
3072,-2665,-446,0
3073,-2670,-446,0
3071,-2675,-448,0
3072,-2674,-446,0
3076,-2674,-441,0
3074,-2672,-438,0
3076,-2668,-438,0
3077,-2662,-449,0
3080,-2666,-450,0
3085,-2665,-449,0
3086,-2667,-451,0
3082,-2665,-453,0
3080,-2660,-454,0
3075,-2651,-455,0
3074,-2651,-456,0
3073,-2654,-451,0
3067,-2656,-450,0
3064,-2660,-451,0
3065,-2666,-456,0
3064,-2670,-460,0
3062,-2675,-457,0
3060,-2678,-461,0
3057,-2681,-465,0
3058,-2682,-458,0
3056,-2685,-454,0
3054,-2683,-457,0
3053,-2684,-456,0
3056,-2683,-454,0
3053,-2682,-460,0
3055,-2678,-463,0
3056,-2677,-461,0
3056,-2679,-461,0
3056,-2676,-463,0
3062,-2677,-462,0
3060,-2679,-459,0
3056,-2678,-453,0
3055,-2678,-457,0
3056,-2677,-459,0
3055,-2673,-461,0
3057,-2669,-457,0
3060,-2668,-458,0
3064,-2668,-460,0
3072,-2674,-458,0
3070,-2677,-462,0
3075,-2672,-466,0
3075,-2673,-470,0
3075,-2676,-462,0
3070,-2677,-458,0
3063,-2672,-463,0
3060,-2668,-465,0
3060,-2666,-459,0
3059,-2667,-462,0
3061,-2668,-462,0
3064,-2670,-464,0
3067,-2676,-466,0
3067,-2674,-468,0
3067,-2676,-471,0
3066,-2680,-471,0
3067,-2680,-473,0
3066,-2678,-469,0
3065,-2676,-467,0
3065,-2680,-469,0
3064,-2678,-466,0
3062,-2679,-466,0
3061,-2679,-467,0
3060,-2680,-465,0
3065,-2680,-459,0
3069,-2676,-457,0
3066,-2675,-461,0
3060,-2674,-459,0
3058,-2671,-453,0
3054,-2670,-452,0
3053,-2669,-451,0
3053,-2668,-453,0
3055,-2668,-454,0
3054,-2668,-455,0
3052,-2668,-456,0
3055,-2669,-456,0
3056,-2668,-459,0
3055,-2668,-459,0
3057,-2668,-463,0
3063,-2668,-465,0
3073,-2672,-467,0
3075,-2670,-467,0
3076,-2672,-466,0
3071,-2672,-462,0
3067,-2670,-457,0
3062,-2666,-454,0
3058,-2667,-452,0
3058,-2666,-459,0
3059,-2668,-455,0
3058,-2670,-458,0
3063,-2673,-464,0
3066,-2679,-467,0
3063,-2683,-471,0
3064,-2679,-476,0
3066,-2675,-478,0
3063,-2673,-478,0
3063,-2666,-474,0
3066,-2664,-462,0
3067,-2666,-457,0
3069,-2672,-454,0
3068,-2676,-455,0
3068,-2677,-456,0
3064,-2677,-455,0
3060,-2675,-455,0
3059,-2672,-460,0
3054,-2666,-460,0
3052,-2666,-464,0
3054,-2664,-466,0
3063,-2665,-466,0
3067,-2667,-467,0
3070,-2673,-468,0
3069,-2673,-468,0
3070,-2671,-463,0
3062,-2671,-460,0
3061,-2670,-455,0
3060,-2671,-454,0
3058,-2668,-449,0
3058,-2668,-449,0
3063,-2668,-450,0
3066,-2669,-454,0
3066,-2671,-456,0
3067,-2673,-458,0
3065,-2674,-457,0
3066,-2677,-461,0
3064,-2675,-460,0
3064,-2676,-458,0
3063,-2678,-458,0
3059,-2683,-456,0
3058,-2685,-453,0
3058,-2685,-454,0
3056,-2683,-454,0
3056,-2683,-455,0
3053,-2684,-452,0
3052,-2682,-454,0
3050,-2679,-455,0
3050,-2677,-456,0
3058,-2674,-456,0
3064,-2673,-456,0
3063,-2675,-458,0
3066,-2672,-462,0
3060,-2671,-464,0
3055,-2669,-465,0
3056,-2662,-466,0
3061,-2661,-468,0
3065,-2662,-468,0
3064,-2668,-472,0
3068,-2672,-473,0
3065,-2676,-479,0
3061,-2677,-481,0
3056,-2683,-478,0
3053,-2683,-481,0
3052,-2684,-482,0
3052,-2687,-480,0
3052,-2688,-483,0
3057,-2687,-480,0
3061,-2685,-479,0
3065,-2687,-479,0
3071,-2684,-478,0
3065,-2684,-479,0
3066,-2683,-481,0
3075,-2683,-479,0
3075,-2684,-478,0
3068,-2681,-480,0
3062,-2679,-481,0
3063,-2677,-488,0
3062,-2677,-487,0
3067,-2680,-485,0
3069,-2676,-480,0
3074,-2675,-476,0
3082,-2675,-473,0
3080,-2678,-471,0
3079,-2677,-467,0
3077,-2676,-468,0
3069,-2671,-469,0
3065,-2671,-466,0
3064,-2671,-464,0
3060,-2671,-463,0
3055,-2668,-468,0
3050,-2666,-470,0
3051,-2666,-473,0
3052,-2663,-476,0
3055,-2662,-472,0
3058,-2662,-476,0
3058,-2668,-475,0
3059,-2672,-476,0
3063,-2674,-481,0
3070,-2677,-481,0
3069,-2683,-478,0
3067,-2690,-477,0
3060,-2690,-479,0
3055,-2686,-478,0
3056,-2681,-475,0
3053,-2679,-471,0
3046,-2682,-472,0
3046,-2683,-471,0
3049,-2685,-475,0
3050,-2681,-472,0
3054,-2677,-473,0
3054,-2681,-474,0
3051,-2681,-475,0
3050,-2676,-476,0
3052,-2676,-478,0
3056,-2680,-478,0
3058,-2682,-479,0
3069,-2689,-479,0
3072,-2694,-479,0
3075,-2696,-477,0
3075,-2690,-479,0
3066,-2684,-478,0
3059,-2673,-481,0
3050,-2666,-485,0
3046,-2661,-485,0
3049,-2659,-479,0
3053,-2658,-477,0
3059,-2661,-470,0
3069,-2667,-468,0
3071,-2670,-466,0
3070,-2674,-464,0
3069,-2674,-467,0
3068,-2675,-467,0
3064,-2673,-468,0
3060,-2672,-470,0
3058,-2671,-475,0
3064,-2672,-481,0
3063,-2673,-482,0
3072,-2676,-480,0
3078,-2674,-480,0
3080,-2679,-478,0
3076,-2675,-480,0
3068,-2678,-478,0
3058,-2682,-475,0
3049,-2684,-472,0
3038,-2679,-472,0
3030,-2673,-476,0
3024,-2669,-476,0
3027,-2670,-471,0
3037,-2673,-473,0
3046,-2675,-479,0
3056,-2679,-484,0
3069,-2682,-482,0
3069,-2683,-479,0
3066,-2681,-481,0
3061,-2677,-480,0
3062,-2673,-477,0
3057,-2669,-474,0
3057,-2669,-470,0
3059,-2669,-469,0
3061,-2674,-470,0
3065,-2675,-474,0
3069,-2674,-476,0
3066,-2677,-475,0
3070,-2677,-474,0
3074,-2678,-474,0
3065,-2679,-473,0
3063,-2678,-474,0
3060,-2678,-475,0
3057,-2678,-474,0
3058,-2678,-478,0
3058,-2678,-479,0
3056,-2680,-479,0
3057,-2681,-479,0
3054,-2676,-476,0
3050,-2682,-476,0
3049,-2678,-476,0
3052,-2679,-479,0
3054,-2681,-478,0
3056,-2679,-473,0
3061,-2676,-476,0
3061,-2675,-478,0
3067,-2674,-479,0
3070,-2675,-483,0
3072,-2680,-488,0
3072,-2682,-488,0
3071,-2682,-486,0
3066,-2680,-486,0
3061,-2675,-485,0
3060,-2672,-484,0
3057,-2676,-481,0
3056,-2681,-480,0
3057,-2684,-484,0
3055,-2683,-488,0
3053,-2688,-488,0
3052,-2695,-489,0
3052,-2699,-489,0
3051,-2699,-483,0
3050,-2696,-481,0
3046,-2693,-479,0
3045,-2689,-479,0
3044,-2686,-479,0
3047,-2682,-479,0
3049,-2680,-477,0
3050,-2676,-479,0
3055,-2675,-477,0
3060,-2674,-481,0
3059,-2676,-479,0
3057,-2677,-478,0
3055,-2678,-478,0
3054,-2678,-475,0
3055,-2683,-475,0
3057,-2685,-475,0
3054,-2683,-476,0
3052,-2686,-474,0
3050,-2689,-470,0
3046,-2690,-470,0
3044,-2688,-471,0
3046,-2686,-470,0
3051,-2684,-471,0
3052,-2680,-474,0
3051,-2678,-472,0
3051,-2678,-470,0
3054,-2684,-471,0
3056,-2684,-471,0
3058,-2684,-473,0
3062,-2687,-475,0
3064,-2687,-476,0
3066,-2686,-473,0
3064,-2685,-473,0
3063,-2683,-472,0
3061,-2676,-476,0
3058,-2673,-475,0
3055,-2670,-478,0
3056,-2670,-477,0
3057,-2671,-473,0
3057,-2674,-469,0
3062,-2673,-468,0
3064,-2671,-467,0
3064,-2674,-465,0
3065,-2671,-464,0
3067,-2668,-464,0
3066,-2668,-463,0
3070,-2665,-462,0
3076,-2668,-459,0
3075,-2666,-457,0
3067,-2669,-460,0
3066,-2668,-463,0
3061,-2666,-460,0
3064,-2668,-460,0
3070,-2669,-460,0
3073,-2673,-458,0
3080,-2675,-462,0
3083,-2675,-458,0
3080,-2672,-458,0
3076,-2674,-455,0
3068,-2674,-453,0
3064,-2669,-452,0
3062,-2669,-455,0
3059,-2669,-450,0
3058,-2667,-451,0
3057,-2666,-454,0
3056,-2670,-457,0
3062,-2670,-458,0
3065,-2675,-459,0
3068,-2679,-457,0
3068,-2679,-458,0
3070,-2675,-459,0
3074,-2670,-456,0
3076,-2667,-450,0
3081,-2663,-443,0
3077,-2661,-443,0
3078,-2662,-443,0
3076,-2664,-441,0
3074,-2661,-443,0
3070,-2660,-447,0
3064,-2664,-450,0
3065,-2662,-451,0
3066,-2660,-452,0
3073,-2657,-452,0
3075,-2660,-454,0
3079,-2656,-453,0
3078,-2655,-448,0
3080,-2656,-444,0
3070,-2653,-438,0
3065,-2646,-437,0
3063,-2646,-432,0
3060,-2650,-430,0
3063,-2652,-432,0
3065,-2652,-431,0
3072,-2654,-435,0
3081,-2659,-435,0
3085,-2660,-432,0
3083,-2656,-433,0
3081,-2661,-436,0
3082,-2664,-437,0
3084,-2664,-436,0
3083,-2661,-435,0
3081,-2662,-434,0
3078,-2660,-434,0
3081,-2662,-430,0
3079,-2664,-428,0
3072,-2665,-430,0
3073,-2667,-435,0
3070,-2664,-435,0
3068,-2662,-430,0
3063,-2663,-428,0
3063,-2666,-432,0
3066,-2668,-435,0
3069,-2667,-436,0
3074,-2667,-439,0
3078,-2666,-436,0
3082,-2661,-435,0
3079,-2658,-435,0
3073,-2653,-436,0
3076,-2655,-436,0
3075,-2657,-438,0
3075,-2658,-437,0
3076,-2662,-438,0
3068,-2665,-442,0
3064,-2667,-440,0
3063,-2677,-443,0
3064,-2675,-442,0
3061,-2675,-438,0
3060,-2676,-437,0
3060,-2678,-437,0
3063,-2676,-436,0
3065,-2674,-434,0
3065,-2672,-429,0
3063,-2671,-429,0
3059,-2670,-435,0
3067,-2664,-433,0
3069,-2659,-429,0
3069,-2656,-427,0
3067,-2662,-430,0
3068,-2656,-429,0
3068,-2653,-433,0
3063,-2654,-428,0
3059,-2657,-428,0
3062,-2656,-428,0
3064,-2655,-431,0
3067,-2658,-435,0
3071,-2662,-437,0
3074,-2667,-435,0
3068,-2666,-437,0
3070,-2663,-432,0
3071,-2656,-432,0
3060,-2655,-434,0
3056,-2654,-435,0
3054,-2654,-434,0
3057,-2656,-434,0
3064,-2660,-435,0
3072,-2669,-441,0
3079,-2674,-449,0
3078,-2674,-449,0
3084,-2679,-449,0
3083,-2677,-446,0
3075,-2675,-444,0
3069,-2674,-443,0
3062,-2673,-445,0
3064,-2675,-447,0
3066,-2673,-445,0
3070,-2676,-444,0
3073,-2677,-445,0
3079,-2677,-444,0
3077,-2673,-442,0
3080,-2671,-440,0
3078,-2667,-435,0
3074,-2660,-431,0
3075,-2660,-430,0
3074,-2653,-431,0
3072,-2654,-430,0
3079,-2655,-432,0
3079,-2658,-433,0
3075,-2660,-433,0
3069,-2659,-432,0
3065,-2658,-431,0
3066,-2657,-431,0
3067,-2652,-428,0
3064,-2650,-430,0
3067,-2653,-436,0
3074,-2662,-436,0
3072,-2661,-429,0
3066,-2665,-430,0
3062,-2664,-425,0
3055,-2666,-432,0
3051,-2671,-434,0
3049,-2671,-434,0
3049,-2668,-433,0
3048,-2666,-437,0
3052,-2669,-435,0
3059,-2672,-437,0
3065,-2674,-439,0
3074,-2676,-440,0
3079,-2681,-442,0
3084,-2682,-443,0
3085,-2682,-442,0
3084,-2680,-441,0
3076,-2675,-437,0
3068,-2673,-434,0
3056,-2669,-434,0
3039,-2662,-433,0
3037,-2655,-433,0
3037,-2656,-439,0
3040,-2664,-440,0
3046,-2669,-439,0
3053,-2672,-446,0
3062,-2675,-450,0
3071,-2679,-450,0
3076,-2686,-445,0
3073,-2685,-445,0
3070,-2678,-443,0
3067,-2677,-442,0
3063,-2674,-437,0
3060,-2671,-430,0
3061,-2670,-432,0
3062,-2666,-437,0
3070,-2667,-435,0
3076,-2671,-435,0
3080,-2676,-437,0
3079,-2676,-438,0
3075,-2673,-441,0
3076,-2674,-444,0
3076,-2674,-451,0
3081,-2676,-450,0
3076,-2679,-445,0
3064,-2672,-443,0
3061,-2669,-442,0
3054,-2664,-442,0
3048,-2658,-441,0
3048,-2659,-435,0
3050,-2658,-429,0
3055,-2661,-433,0
3063,-2661,-437,0
3073,-2663,-440,0
3081,-2669,-441,0
3089,-2673,-441,0
3095,-2674,-443,0
3092,-2672,-443,0
3084,-2662,-443,0
3077,-2659,-443,0
3068,-2658,-443,0
3061,-2660,-442,0
3054,-2660,-442,0
3051,-2661,-447,0
3050,-2665,-448,0
3052,-2672,-451,0
3054,-2678,-450,0
3057,-2684,-451,0
3060,-2686,-451,0
3060,-2688,-452,0
3053,-2690,-447,0
3044,-2693,-447,0
3030,-2688,-450,0
3023,-2683,-452,0
3027,-2679,-450,0
3033,-2678,-449,0
3041,-2677,-447,0
3045,-2682,-448,0
3052,-2682,-450,0
3060,-2686,-452,0
3066,-2687,-454,0
3065,-2686,-455,0
3061,-2686,-456,0
3056,-2688,-456,0
3053,-2686,-460,0
3056,-2684,-458,0
3063,-2691,-456,0
3062,-2694,-454,0
3060,-2695,-458,0
3060,-2691,-459,0
3059,-2684,-457,0
3063,-2685,-461,0
3068,-2695,-463,0
3062,-2701,-458,0
3059,-2698,-463,0
3053,-2690,-464,0
3045,-2678,-463,0
3040,-2672,-459,0
3044,-2670,-459,0
3047,-2669,-461,0
3057,-2675,-460,0
3063,-2679,-460,0
3070,-2686,-461,0
3072,-2688,-467,0
3072,-2689,-466,0
3067,-2689,-466,0
3069,-2688,-465,0
3066,-2689,-466,0
3060,-2690,-467,0
3059,-2688,-467,0
3060,-2688,-463,0
3058,-2687,-461,0
3057,-2685,-461,0
3054,-2683,-456,0
3052,-2682,-456,0
3054,-2681,-455,0
3053,-2677,-457,0
3053,-2676,-458,0
3053,-2679,-457,0
3052,-2677,-457,0
3051,-2678,-457,0
3053,-2678,-460,0
3056,-2675,-461,0
3059,-2676,-461,0
3061,-2678,-466,0
3063,-2678,-468,0
3067,-2682,-467,0
3066,-2689,-462,0
3062,-2689,-455,0
3052,-2687,-455,0
3046,-2682,-460,0
3043,-2679,-457,0
3040,-2679,-461,0
3036,-2679,-459,0
3037,-2681,-460,0
3039,-2685,-465,0
3043,-2690,-467,0
3046,-2697,-469,0
3051,-2695,-475,0
3054,-2697,-474,0
3055,-2697,-470,0
3049,-2693,-467,0
3044,-2689,-466,0
3046,-2688,-462,0
3045,-2693,-460,0
3045,-2693,-459,0
3044,-2691,-459,0
3040,-2691,-467,0
3038,-2691,-473,0
3035,-2691,-472,0
3040,-2694,-475,0
3038,-2695,-473,0
3040,-2696,-476,0
3038,-2693,-472,0
3042,-2692,-475,0
3041,-2694,-469,0
3044,-2690,-463,0
3046,-2690,-463,0
3042,-2688,-464,0
3038,-2689,-466,0
3040,-2688,-468,0
3044,-2687,-465,0
3051,-2689,-469,0
3052,-2692,-469,0
3056,-2695,-477,0
3059,-2696,-479,0
3063,-2697,-478,0
3070,-2699,-475,0
3074,-2699,-472,0
3077,-2693,-471,0
3077,-2692,-472,0
3074,-2695,-472,0
3070,-2695,-474,0
3066,-2693,-473,0
3063,-2693,-475,0
3059,-2690,-468,0
3054,-2687,-468,0
3050,-2686,-467,0
3048,-2683,-466,0
3048,-2684,-469,0
3048,-2684,-470,0
3048,-2684,-470,0
3052,-2680,-467,0
3054,-2681,-466,0
3059,-2680,-468,0
3059,-2676,-465,0
3059,-2676,-465,0
3062,-2675,-466,0
3062,-2673,-468,0
3062,-2673,-463,0
3067,-2677,-467,0
3064,-2683,-469,0
3055,-2683,-471,0
3047,-2685,-473,0
3046,-2684,-472,0
3043,-2687,-471,0
3040,-2687,-468,0
3039,-2687,-464,0
3037,-2686,-467,0
3040,-2687,-468,0
3041,-2692,-472,0
3036,-2692,-470,0
3037,-2689,-469,0
3035,-2689,-469,0
3034,-2686,-474,0
3036,-2687,-472,0
3039,-2687,-473,0
3043,-2686,-474,0
3046,-2686,-472,0
3050,-2685,-472,0
3055,-2690,-471,0
3056,-2688,-466,0
3059,-2690,-464,0
3059,-2688,-464,0
3059,-2685,-465,0
3058,-2684,-464,0
3055,-2685,-464,0
3051,-2684,-467,0
3052,-2685,-467,0
3053,-2685,-469,0
3054,-2685,-468,0
3052,-2685,-467,0
3049,-2679,-466,0
3049,-2681,-468,0
3047,-2683,-470,0
3048,-2681,-471,0
3049,-2685,-469,0
3048,-2687,-472,0
3051,-2685,-473,0
3052,-2683,-472,0
3053,-2689,-467,0
3055,-2691,-467,0
3056,-2693,-467,0
3053,-2691,-467,0
3053,-2691,-464,0
3052,-2691,-461,0
3055,-2690,-459,0
3057,-2690,-461,0
3059,-2689,-460,0
3056,-2688,-454,0
3058,-2687,-456,0
3056,-2684,-457,0
3056,-2682,-454,0
3056,-2678,-456,0
3058,-2675,-452,0
3060,-2671,-452,0
3057,-2669,-455,0
3056,-2669,-457,0
3055,-2664,-456,0
3064,-2668,-458,0
3067,-2671,-461,0
3072,-2673,-460,0
3076,-2678,-462,0
3077,-2680,-462,0
3078,-2683,-459,0
3076,-2683,-456,0
3066,-2683,-454,0
3059,-2685,-455,0
3051,-2684,-452,0
3048,-2686,-453,0
3043,-2685,-454,0
3041,-2691,-453,0
3041,-2694,-457,0
3040,-2693,-458,0
3040,-2697,-461,0
3048,-2698,-462,0
3052,-2695,-462,0
3051,-2693,-462,0
3056,-2692,-464,0
3061,-2686,-466,0
3064,-2688,-461,0
3066,-2685,-456,0
3057,-2685,-456,0
3051,-2685,-453,0
3040,-2684,-452,0
3032,-2682,-452,0
3029,-2681,-457,0
3031,-2685,-459,0
3032,-2688,-460,0
3038,-2691,-461,0
3045,-2688,-457,0
3047,-2686,-454,0
3045,-2686,-452,0
3043,-2685,-450,0
3039,-2685,-451,0
3038,-2685,-449,0
3036,-2683,-445,0
3037,-2681,-444,0
3035,-2680,-446,0
3039,-2680,-447,0
3044,-2682,-451,0
3049,-2681,-452,0
3052,-2682,-449,0
3055,-2684,-447,0
3051,-2683,-453,0
3052,-2682,-450,0
3055,-2685,-453,0
3061,-2689,-453,0
3062,-2692,-452,0
3060,-2693,-451,0
3063,-2690,-454,0
3062,-2689,-459,0
3060,-2691,-458,0
3053,-2689,-454,0
3050,-2689,-451,0
3049,-2691,-454,0
3049,-2689,-454,0
3047,-2685,-450,0
3047,-2685,-453,0
3047,-2685,-454,0
3047,-2689,-452,0
3051,-2689,-456,0
3056,-2689,-458,0
3051,-2687,-458,0
3050,-2681,-454,0
3046,-2679,-460,0
3048,-2677,-462,0
3051,-2674,-459,0
3047,-2679,-458,0
3048,-2683,-459,0
3049,-2687,-460,0
3047,-2693,-459,0
3048,-2696,-464,0
3047,-2699,-458,0
3046,-2705,-455,0
3045,-2708,-457,0
3038,-2707,-460,0
3036,-2706,-461,0
3031,-2703,-462,0
3028,-2700,-460,0
3026,-2700,-459,0
3031,-2698,-456,0
3037,-2699,-450,0
3041,-2699,-448,0
3041,-2699,-452,0
3037,-2697,-453,0
3038,-2694,-455,0
3034,-2689,-455,0
3031,-2694,-458,0
3033,-2695,-458,0
3039,-2696,-462,0
3044,-2699,-459,0
3047,-2705,-459,0
3046,-2703,-460,0
3048,-2699,-462,0
3049,-2695,-460,0
3047,-2693,-454,0
3047,-2696,-451,0
3047,-2694,-449,0
3049,-2694,-451,0
3047,-2693,-451,0
3049,-2692,-453,0
3050,-2693,-457,0
3049,-2690,-460,0
3050,-2690,-462,0
3049,-2689,-463,0
3047,-2688,-458,0
3045,-2690,-460,0
3047,-2693,-459,0
3046,-2696,-457,0
3051,-2699,-461,0
3052,-2698,-457,0
3054,-2699,-458,0
3052,-2700,-456,0
3049,-2697,-454,0
3049,-2696,-453,0
3051,-2692,-451,0
3053,-2690,-451,0
3055,-2692,-449,0
3055,-2694,-449,0
3058,-2689,-450,0
3061,-2684,-444,0
3066,-2684,-443,0
3065,-2683,-443,0
3059,-2678,-446,0
3053,-2676,-447,0
3050,-2671,-447,0
3052,-2673,-443,0
3058,-2670,-448,0
3060,-2675,-453,0
3065,-2677,-458,0
3069,-2675,-457,0
3068,-2676,-457,0
3068,-2676,-454,0
3064,-2678,-452,0
3064,-2682,-451,0
3062,-2688,-453,0
3056,-2687,-455,0
3053,-2690,-455,0
3049,-2690,-457,0
3047,-2694,-458,0
3048,-2698,-463,0
3050,-2702,-462,0
3052,-2702,-467,0
3051,-2701,-470,0
3055,-2701,-468,0
3052,-2698,-462,0
3049,-2690,-458,0
3049,-2690,-458,0
3045,-2691,-456,0
3050,-2691,-455,0
3050,-2687,-453,0
3045,-2687,-452,0
3044,-2682,-453,0
3042,-2679,-450,0
3043,-2677,-448,0
3045,-2678,-449,0
3047,-2679,-453,0
3048,-2677,-451,0
3049,-2674,-447,0
3045,-2671,-446,0
3044,-2667,-442,0
3048,-2666,-439,0
3046,-2666,-438,0
3043,-2665,-437,0
3042,-2662,-434,0
3046,-2659,-437,0
3046,-2662,-439,0
3048,-2664,-441,0
3055,-2669,-447,0
3056,-2675,-448,0
3060,-2676,-449,0
3061,-2683,-450,0
3063,-2688,-448,0
3061,-2688,-450,0
3058,-2687,-452,0
3056,-2688,-452,0
3056,-2691,-452,0
3055,-2693,-453,0
3052,-2693,-456,0
3049,-2690,-454,0
3045,-2692,-458,0
3048,-2694,-460,0
3047,-2696,-463,0
3045,-2694,-459,0
3048,-2692,-461,0
3051,-2688,-462,0
3053,-2685,-466,0
3058,-2682,-466,0
3064,-2680,-470,0
3066,-2677,-470,0
3066,-2679,-470,0
3070,-2680,-462,0
3065,-2682,-461,0
3058,-2682,-459,0
3056,-2682,-459,0
3054,-2683,-460,0
3052,-2690,-458,0
3051,-2691,-461,0
3050,-2692,-459,0
3047,-2694,-459,0
3046,-2692,-460,0
3048,-2693,-461,0
3049,-2691,-458,0
3048,-2693,-457,0
3048,-2690,-458,0
3048,-2689,-455,0
3048,-2688,-455,0
3050,-2687,-451,0
3052,-2688,-446,0
3051,-2687,-443,0
3049,-2681,-446,0
3048,-2680,-450,0
3050,-2677,-446,0
3051,-2679,-450,0
3052,-2682,-453,0
3052,-2683,-455,0
3054,-2684,-454,0
3053,-2682,-450,0
3050,-2678,-451,0
3049,-2679,-448,0
3049,-2680,-449,0
3051,-2680,-447,0
3054,-2680,-444,0
3055,-2684,-445,0
3054,-2684,-448,0
3057,-2686,-449,0
3060,-2688,-449,0
3062,-2689,-452,0
3060,-2686,-452,0
3060,-2688,-454,0
3060,-2687,-453,0
3060,-2685,-453,0
3055,-2684,-448,0
3052,-2685,-451,0
3050,-2683,-452,0
3054,-2681,-450,0
3054,-2679,-452,0
3052,-2685,-453,0
3053,-2684,-450,0
3052,-2682,-450,0
3056,-2677,-453,0
3055,-2678,-454,0
3052,-2677,-451,0
3053,-2679,-449,0
3051,-2679,-446,0
3052,-2676,-447,0
3050,-2677,-449,0
3047,-2678,-446,0
3049,-2679,-446,0
3049,-2677,-445,0
3048,-2679,-446,0
3046,-2680,-442,0
3046,-2679,-438,0
3045,-2676,-438,0
3047,-2674,-445,0
3050,-2674,-451,0
3053,-2674,-454,0
3053,-2675,-458,0
3055,-2678,-457,0
3057,-2682,-454,0
3057,-2681,-451,0
3057,-2680,-447,0
3056,-2684,-440,0
3055,-2686,-441,0
3054,-2683,-445,0
3052,-2676,-450,0
3052,-2677,-452,0
3050,-2682,-450,0
3055,-2683,-454,0
3054,-2688,-454,0
3055,-2692,-459,0
3057,-2695,-462,0
3063,-2693,-462,0
3065,-2690,-460,0
3063,-2684,-451,0
3067,-2681,-448,0
3066,-2674,-448,0
3066,-2677,-449,0
3067,-2675,-450,0
3060,-2676,-450,0
3058,-2679,-453,0
3054,-2674,-457,0
3055,-2676,-460,0
3055,-2678,-465,0
3057,-2682,-462,0
3060,-2683,-460,0
3062,-2685,-460,0
3064,-2687,-458,0
3065,-2687,-450,0
3062,-2685,-446,0
3061,-2680,-444,0
3056,-2678,-439,0
3053,-2675,-440,0
3052,-2674,-438,0
3050,-2673,-441,0
3052,-2673,-445,0
3053,-2674,-448,0
3056,-2674,-449,0
3058,-2676,-449,0
3061,-2678,-456,0
3060,-2681,-460,0
3062,-2682,-465,0
3063,-2687,-466,0
3063,-2689,-463,0
3063,-2691,-460,0
3069,-2690,-458,0
3070,-2690,-459,0
3066,-2682,-461,0
3061,-2679,-463,0
3062,-2681,-460,0
3063,-2682,-458,0
3064,-2684,-457,0
3071,-2685,-454,0
3072,-2684,-457,0
3078,-2684,-456,0
3079,-2681,-457,0
3075,-2673,-458,0
3077,-2667,-460,0
3074,-2665,-457,0
3067,-2661,-455,0
3064,-2660,-457,0
3059,-2660,-457,0
3058,-2658,-457,0
3058,-2657,-456,0
3055,-2657,-458,0
3056,-2661,-458,0
3054,-2669,-460,0
3057,-2676,-460,0
3062,-2678,-462,0
3066,-2678,-462,0
3067,-2682,-464,0
3064,-2683,-465,0
3059,-2679,-464,0
3056,-2676,-459,0
3056,-2672,-458,0
3053,-2672,-458,0
3051,-2668,-465,0
3054,-2667,-467,0
3059,-2666,-470,0
3062,-2665,-471,0
3061,-2666,-475,0
3063,-2671,-476,0
3068,-2672,-471,0
3068,-2665,-467,0
3069,-2661,-461,0
3064,-2655,-459,0
3063,-2650,-459,0
3056,-2644,-459,0
3060,-2637,-454,0
3066,-2625,-456,0
3072,-2622,-462,0
3074,-2622,-473,0
3081,-2623,-477,0
3084,-2623,-480,0
3079,-2624,-495,0
3066,-2625,-515,0
3053,-2615,-528,0
3046,-2607,-522,0
3051,-2597,-509,0
3060,-2588,-501,0
3069,-2586,-508,0
3078,-2589,-514,0
3090,-2596,-511,0
3105,-2602,-509,0
3121,-2609,-514,0
3120,-2617,-525,0
3117,-2629,-541,0
3117,-2641,-551,0
3109,-2644,-552,0
3106,-2645,-546,0
3109,-2639,-536,0
3115,-2624,-521,0
3125,-2605,-504,0
3125,-2587,-489,0
3122,-2571,-479,0
3118,-2553,-476,0
3113,-2534,-476,0
3113,-2522,-484,0
3122,-2512,-498,0
3130,-2509,-514,0
3152,-2509,-536,0
3164,-2517,-553,0
3173,-2523,-566,0
3179,-2514,-585,0
3192,-2504,-602,0
3198,-2500,-618,0
3208,-2493,-630,0
3218,-2485,-646,0
3226,-2485,-654,0
3232,-2492,-661,0
3235,-2496,-665,0
3234,-2499,-668,0
3237,-2507,-666,0
3235,-2514,-659,0
3230,-2515,-645,0
3226,-2512,-637,0
3219,-2510,-630,0
3211,-2508,-632,0
3209,-2512,-637,0
3212,-2516,-641,0
3218,-2525,-643,0
3230,-2542,-637,0
3234,-2565,-620,0
3238,-2591,-598,0
3239,-2619,-579,0
3230,-2648,-565,0
3222,-2668,-552,0
3206,-2680,-535,0
3186,-2686,-525,0
3172,-2686,-522,0
3165,-2686,-512,0
3159,-2680,-505,0
3160,-2670,-501,0
3172,-2662,-500,0
3178,-2652,-498,0
3185,-2643,-497,0
3190,-2629,-496,0
3185,-2603,-499,0
3175,-2580,-507,0
3160,-2553,-511,0
3148,-2536,-515,0
3136,-2523,-527,0
3128,-2517,-529,0
3120,-2519,-537,0
3112,-2526,-547,0
3100,-2533,-558,0
3087,-2538,-568,0
3077,-2544,-583,0
3070,-2544,-599,0
3069,-2542,-613,0
3070,-2547,-615,0
3060,-2563,-612,0
3047,-2579,-625,0
3033,-2598,-645,0
3011,-2614,-654,0
2999,-2628,-666,0
2992,-2649,-670,0
2978,-2673,-676,0
2966,-2701,-680,0
2954,-2735,-691,0
2928,-2815,-717,0
2938,-2816,-718,0
2941,-2799,-697,0
2942,-2815,-667,0
2937,-2852,-655,0
2933,-2890,-656,0
2935,-2917,-657,0
2947,-2932,-652,0
2962,-2946,-639,0
2979,-2964,-625,0
2999,-2984,-610,0
3020,-3006,-611,0
3047,-3026,-616,0
3077,-3051,-628,0
3105,-3073,-636,0
3135,-3097,-637,0
3154,-3119,-638,0
3162,-3137,-649,0
3156,-3158,-672,0
3139,-3173,-693,0
3109,-3170,-707,0
3082,-3154,-706,0
3044,-3134,-687,0
3000,-3115,-668,0
2957,-3095,-647,0
2900,-3064,-626,0
2846,-3027,-599,0
2788,-2986,-567,0
2730,-2942,-536,0
2678,-2892,-516,0
2625,-2843,-490,0
2583,-2785,-453,0
2545,-2734,-404,0
2509,-2686,-346,0
2486,-2663,-287,0
2478,-2650,-226,0
2483,-2635,-163,0
2495,-2617,-94,0
2517,-2606,-33,0
2548,-2600,29,0
2590,-2599,90,0
2642,-2610,152,0
2711,-2631,215,0
2789,-2666,268,0
2884,-2723,294,0
2987,-2789,303,0
3082,-2846,290,0
3171,-2891,272,0
3239,-2924,248,0
3289,-2961,223,0
3329,-2999,193,0
3359,-3041,160,0
3383,-3085,123,0
3406,-3131,92,0
3418,-3169,76,0
3415,-3202,69,0
3397,-3224,64,0
3353,-3230,63,0
3298,-3216,67,0
3227,-3198,69,0
3162,-3178,73,0
3091,-3114,79,0
3029,-3039,88,0
2965,-2968,105,0
2902,-2904,120,0
2844,-2837,140,0
2794,-2771,146,0
2750,-2715,149,0
2719,-2665,144,0
2698,-2636,126,0
2683,-2617,105,0
2679,-2609,93,0
2681,-2614,83,0
2684,-2621,80,0
2688,-2628,77,0
2692,-2638,82,0
2698,-2643,87,0
2698,-2645,91,0
2697,-2652,90,0
2700,-2659,90,0
2713,-2670,97,0
2735,-2683,106,0
2762,-2694,122,0
2789,-2704,133,0
2812,-2717,147,0
2832,-2736,153,0
2845,-2750,139,0
2851,-2767,99,0
2863,-2782,46,0
2883,-2788,-12,0
2926,-2793,-39,0
2989,-2790,-28,0
3050,-2791,5,0
3094,-2798,36,0
3113,-2822,51,0
3092,-2848,41,0
3040,-2878,26,0
2958,-2905,1,0
2888,-2932,-17,0
2849,-2940,5,0
2834,-2935,81,0
2821,-2934,165,0
2804,-2943,243,0
2792,-2937,311,0
2785,-2914,369,0
2778,-2872,425,0
2788,-2820,477,0
2807,-2782,499,0
2828,-2764,481,0
2843,-2744,423,0
2866,-2701,372,0
2892,-2639,351,0
2906,-2568,344,0
2902,-2493,319,0
2883,-2414,267,0
2843,-2337,198,0
2793,-2260,102,0
2745,-2200,12,0
2697,-2147,-61,0
2680,-2116,-96,0
2691,-2106,-70,0
2693,-2120,-22,0
2672,-2164,5,0
2628,-2243,-1,0
2568,-2352,-54,0
2521,-2504,-128,0
2506,-2709,-200,0
2513,-2981,-284,0
2557,-3311,-379,0
2634,-3702,-505,0
2747,-4101,-645,0
2910,-4448,-778,0
3080,-4684,-890,0
3246,-4786,-978,0
3358,-4743,-1059,0
3378,-4579,-1125,0
3312,-4359,-1135,0
3174,-4139,-1090,0
2985,-3930,-997,0
2784,-3738,-897,0
2613,-3572,-801,0
2500,-3422,-715,0
2449,-3256,-625,0
2433,-3060,-548,0
2431,-2844,-503,0
2442,-2635,-489,0
2471,-2450,-485,0
2514,-2283,-483,0
2552,-2142,-485,0
2592,-2041,-480,0
2645,-1989,-465,0
2698,-1986,-435,0
2756,-2034,-386,0
2835,-2124,-315,0
2939,-2221,-252,0
3046,-2308,-211,0
3146,-2392,-186,0
3237,-2459,-163,0
3284,-2532,-168,0
3293,-2620,-203,0
3292,-2703,-248,0
3297,-2763,-297,0
3319,-2801,-314,0
3347,-2836,-324,0
3369,-2879,-324,0
3395,-2937,-324,0
3421,-2989,-334,0
3454,-3014,-336,0
3474,-3009,-335,0
3506,-3000,-319,0
3513,-3001,-310,0
3483,-2989,-299,0
3442,-2955,-289,0
3382,-2903,-284,0
3310,-2838,-276,0
3239,-2762,-251,0
3168,-2686,-215,0
3094,-2606,-184,0
3019,-2515,-166,0
2954,-2437,-165,0
2878,-2384,-199,0
2814,-2362,-244,0
2783,-2347,-268,0
2777,-2337,-262,0
2793,-2336,-255,0
2814,-2353,-255,0
2841,-2407,-277,0
2881,-2487,-302,0
2923,-2572,-326,0
2959,-2649,-355,0
2995,-2711,-387,0
3027,-2756,-411,0
3067,-2811,-425,0
3115,-2844,-428,0
3161,-2838,-440,0
3208,-2801,-453,0
3246,-2743,-452,0
3274,-2682,-434,0
3287,-2615,-422,0
3287,-2543,-414,0
3281,-2468,-400,0
3281,-2398,-376,0
3272,-2346,-351,0
3264,-2313,-336,0
3260,-2273,-332,0
3247,-2266,-313,0
3226,-2299,-306,0
3214,-2357,-313,0
3213,-2407,-310,0
3217,-2441,-296,0
3212,-2473,-297,0
3205,-2512,-319,0
3208,-2535,-344,0
3222,-2549,-364,0
3241,-2555,-379,0
3252,-2555,-392,0
3271,-2538,-399,0
3287,-2510,-406,0
3299,-2485,-406,0
3315,-2474,-405,0
3338,-2458,-411,0
3355,-2433,-417,0
3356,-2401,-433,0
3348,-2377,-449,0
3335,-2362,-464,0
3319,-2348,-481,0
3314,-2335,-499,0
3319,-2317,-507,0
3334,-2290,-510,0
3345,-2274,-515,0
3342,-2264,-519,0
3328,-2261,-532,0
3303,-2261,-553,0
3282,-2256,-572,0
3268,-2248,-570,0
3257,-2258,-553,0
3256,-2273,-524,0
3262,-2282,-511,0
3259,-2295,-510,0
3246,-2308,-521,0
3229,-2311,-545,0
3215,-2312,-575,0
3215,-2304,-592,0
3212,-2295,-604,0
3213,-2286,-620,0
3223,-2279,-633,0
3218,-2272,-638,0
3206,-2253,-643,0
3195,-2232,-657,0
3188,-2214,-660,0
3193,-2197,-648,0
3194,-2197,-618,0
3200,-2223,-614,0
3196,-2230,-610,0
3200,-2232,-600,0
3207,-2232,-584,0
3221,-2225,-567,0
3235,-2215,-557,0
3230,-2197,-574,0
3220,-2175,-597,0
3204,-2152,-630,0
3195,-2135,-660,0
3196,-2115,-693,0
3198,-2095,-729,0
3213,-2081,-767,0
3231,-2070,-791,0
3254,-2060,-805,0
3275,-2054,-812,0
3295,-2040,-808,0
3316,-2021,-790,0
3333,-2001,-776,0
3340,-1986,-772,0
3338,-1979,-768,0
3332,-1983,-764,0
3324,-1990,-766,0
3320,-2018,-764,0
3311,-2039,-770,0
3308,-2055,-781,0
3316,-2073,-785,0
3333,-2089,-790,0
3353,-2092,-793,0
3371,-2103,-803,0
3387,-2113,-823,0
3399,-2131,-853,0
3408,-2147,-883,0
3415,-2162,-912,0
3419,-2174,-935,0
3411,-2170,-950,0
3394,-2171,-978,0
3382,-2166,-1005,0
3364,-2158,-1030,0
3350,-2155,-1042,0
3345,-2156,-1051,0
3342,-2159,-1062,0
3337,-2165,-1081,0
3338,-2172,-1098,0
3341,-2178,-1109,0
3345,-2178,-1109,0
3340,-2178,-1097,0
3327,-2169,-1092,0
3305,-2168,-1105,0
3276,-2165,-1118,0
3251,-2156,-1130,0
3224,-2142,-1135,0
3207,-2125,-1134,0
3192,-2095,-1141,0
3172,-2062,-1150,0
3150,-2033,-1163,0
3140,-2019,-1176,0
3123,-2009,-1188,0
3101,-2008,-1206,0
3075,-2017,-1233,0
3056,-2030,-1265,0
3061,-2033,-1257,0
3075,-2039,-1230,0
3090,-2032,-1213,0
3111,-2030,-1200,0
3125,-2031,-1208,0
3139,-2030,-1239,0
3141,-2020,-1277,0
3145,-2005,-1318,0
3154,-1994,-1348,0
3179,-1987,-1364,0
3197,-1979,-1372,0
3201,-1973,-1388,0
3195,-1967,-1407,0
3186,-1965,-1422,0
3160,-1968,-1431,0
3125,-1967,-1428,0
3088,-1970,-1424,0
3059,-1969,-1418,0
3030,-1962,-1412,0
3011,-1956,-1411,0
2984,-1953,-1423,0
2967,-1946,-1436,0
2967,-1938,-1440,0
2989,-1913,-1425,0
3029,-1881,-1388,0
3076,-1849,-1364,0
3117,-1820,-1371,0
3143,-1790,-1398,0
3160,-1769,-1433,0
3170,-1741,-1462,0
3181,-1710,-1477,0
3205,-1686,-1475,0
3223,-1666,-1477,0
3232,-1661,-1496,0
3237,-1658,-1523,0
3254,-1667,-1541,0
3276,-1678,-1543,0
3309,-1706,-1539,0
3347,-1739,-1523,0
3388,-1796,-1514,0
3426,-1847,-1500,0
3477,-1902,-1482,0
3533,-1944,-1447,0
3584,-1969,-1407,0
3622,-1978,-1383,0
3640,-1989,-1381,0
3642,-2023,-1415,0
3617,-2037,-1458,0
3593,-2059,-1504,0
3570,-2079,-1538,0
3534,-2099,-1559,0
3489,-2098,-1566,0
3458,-2136,-1562,0
3426,-2166,-1541,0
3398,-2176,-1507,0
3395,-2192,-1475,0
3381,-2176,-1448,0
3368,-2158,-1419,0
3363,-2144,-1397,0
3372,-2153,-1389,0
3373,-2157,-1384,0
3376,-2159,-1404,0
3385,-2180,-1406,0
3383,-2189,-1410,0
3383,-2197,-1420,0
3380,-2202,-1430,0
3384,-2198,-1432,0
3395,-2164,-1403,0
3390,-2091,-1369,0
3418,-2090,-1338,0
3431,-2088,-1353,0
3433,-2083,-1364,0
3420,-2091,-1360,0
3413,-2124,-1354,0
3397,-2165,-1360,0
3375,-2190,-1366,0
3354,-2250,-1349,0
3316,-2287,-1340,0
3295,-2296,-1309,0
3282,-2285,-1240,0
3292,-2262,-1152,0
3309,-2256,-1072,0
3322,-2269,-1015,0
3328,-2300,-978,0
3334,-2332,-960,0
3336,-2358,-960,0
3337,-2372,-970,0
3332,-2373,-983,0
3323,-2365,-987,0
3323,-2350,-987,0
3333,-2329,-959,0
3350,-2314,-925,0
3361,-2326,-897,0
3365,-2343,-859,0
3390,-2366,-815,0
3439,-2375,-750,0
3504,-2380,-689,0
3583,-2395,-645,0
3639,-2416,-604,0
3713,-2436,-592,0
3768,-2428,-582,0
3841,-2405,-586,0
3910,-2348,-591,0
3973,-2308,-592,0
3981,-2296,-603,0
3955,-2325,-679,0
3925,-2350,-748,0
3895,-2354,-787,0
3872,-2321,-756,0
3870,-2318,-698,0
3884,-2358,-660,0
3865,-2358,-649,0
3846,-2415,-584,0
3738,-2494,-558,0
3638,-2582,-623,0
3602,-2646,-656,0
3688,-2681,-625,0
3761,-2671,-499,0
3859,-2689,-427,0
3876,-2713,-358,0
3878,-2787,-356,0
3850,-2801,-342,0
3843,-2866,-283,0
3797,-2871,-192,0
3787,-2947,-105,0
3698,-2988,-66,0
3649,-3056,-58,0
3572,-3113,-88,0
3494,-3137,-116,0
3411,-3136,-112,0
3373,-3106,-87,0
3348,-3030,-33,0
3338,-2914,43,0
3319,-2834,128,0
3268,-2785,163,0
3224,-2734,139,0
3194,-2666,122,0
3156,-2592,123,0
3136,-2521,136,0
3124,-2464,163,0
3106,-2436,206,0
3111,-2441,229,0
3140,-2446,256,0
3173,-2456,292,0
3206,-2478,326,0
3207,-2526,352,0
3182,-2600,338,0
3138,-2684,339,0
3093,-2746,342,0
3058,-2773,361,0
3021,-2775,397,0
2973,-2796,435,0
2935,-2826,455,0
2880,-2876,456,0
2818,-2927,443,0
2757,-2958,452,0
2679,-2980,456,0
2646,-2966,485,0
2596,-2953,541,0
2549,-2941,581,0
2581,-3002,618,0
2563,-3063,613,0
2524,-3115,632,0
2484,-3101,683,0
2422,-2979,801,0
2390,-2853,939,0
2360,-2802,1051,0
2364,-2801,1095,0
2382,-2841,1117,0
2455,-2867,1111,0
2551,-2852,1126,0
2636,-2817,1178,0
2715,-2807,1218,0
2756,-2808,1244,0
2761,-2801,1268,0
2742,-2767,1292,0
2714,-2718,1332,0
2694,-2669,1361,0
2696,-2608,1388,0
2696,-2561,1418,0
2724,-2516,1430,0
2757,-2472,1444,0
2778,-2477,1505,0
2775,-2499,1545,0
2773,-2529,1552,0
2769,-2567,1549,0
2755,-2591,1550,0
2735,-2610,1551,0
2728,-2614,1537,0
2715,-2606,1524,0
2710,-2582,1508,0
2711,-2538,1500,0
2721,-2464,1502,0
2744,-2372,1515,0
2777,-2271,1526,0
2766,-2234,1602,0
2738,-2247,1618,0
2699,-2295,1614,0
2660,-2354,1625,0
2621,-2400,1650,0
2582,-2433,1666,0
2531,-2456,1678,0
2477,-2494,1667,0
2430,-2531,1647,0
2405,-2552,1644,0
2392,-2552,1660,0
2391,-2551,1686,0
2381,-2562,1685,0
2399,-2566,1661,0
2425,-2542,1651,0
2463,-2499,1650,0
2503,-2468,1684,0
2525,-2482,1693,0
2541,-2513,1673,0
2566,-2530,1656,0
2578,-2532,1684,0
2578,-2561,1719,0
2584,-2602,1740,0
2602,-2597,1792,0
2602,-2589,1865,0
2575,-2617,1902,0
2556,-2653,1919,0
2534,-2671,1961,0
2487,-2696,2002,0
2427,-2737,2017,0
2364,-2772,2038,0
2303,-2785,2067,0
2232,-2789,2081,0
2175,-2774,2076,0
2133,-2731,2113,0
2110,-2671,2152,0
2106,-2599,2193,0
2121,-2525,2221,0
2149,-2471,2233,0
2178,-2443,2210,0
2213,-2444,2178,0
2254,-2457,2133,0
2288,-2475,2101,0
2300,-2507,2070,0
2297,-2560,2037,0
2285,-2605,2030,0
2257,-2636,2043,0
2227,-2655,2046,0
2199,-2667,2051,0
2166,-2683,2055,0
2130,-2704,2054,0
2097,-2730,2053,0
2078,-2740,2058,0
2070,-2743,2070,0
2062,-2739,2076,0
2061,-2728,2075,0
2074,-2698,2087,0
2097,-2649,2112,0
2128,-2601,2147,0
2152,-2562,2170,0
2176,-2536,2175,0
2204,-2534,2152,0
2236,-2535,2109,0
2266,-2537,2074,0
2288,-2533,2051,0
2305,-2535,2033,0
2297,-2519,2014,0
2267,-2496,2007,0
2213,-2490,2013,0
2145,-2508,2029,0
2091,-2534,2040,0
2032,-2558,2054,0
1984,-2585,2067,0
1959,-2623,2072,0
1949,-2664,2065,0
1951,-2694,2058,0
1959,-2741,2037,0
1948,-2759,2039,0
1918,-2754,2059,0
1885,-2749,2089,0
1863,-2742,2107,0
1857,-2736,2107,0
1867,-2730,2088,0
1898,-2709,2076,0
1946,-2677,2073,0
2003,-2649,2063,0
2038,-2618,2052,0
2056,-2593,2053,0
2063,-2582,2049,0
2080,-2586,2053,0
2084,-2595,2064,0
2083,-2602,2066,0
2070,-2627,2076,0
2033,-2688,2065,0
2019,-2719,2013,0
2018,-2722,1975,0
2036,-2713,1952,0
2072,-2709,1962,0
2099,-2681,1991,0
2116,-2629,1996,0
2116,-2600,2029,0
2119,-2594,2036,0
2127,-2602,2069,0
2135,-2637,2081,0
2132,-2699,2068,0
2130,-2762,2031,0
2121,-2821,1994,0
2113,-2842,1956,0
2085,-2843,1944,0
2029,-2827,1932,0
1957,-2793,1928,0
1905,-2745,1910,0
1861,-2708,1883,0
1841,-2679,1848,0
1838,-2657,1834,0
1854,-2639,1842,0
1851,-2644,1862,0
1835,-2663,1889,0
1797,-2690,1898,0
1775,-2701,1918,0
1750,-2714,1942,0
1714,-2752,1956,0
1674,-2809,1947,0
1648,-2866,1944,0
1630,-2911,1943,0
1639,-2923,1922,0
1658,-2905,1895,0
1683,-2885,1883,0
1683,-2873,1860,0
1684,-2839,1838,0
1667,-2794,1836,0
1642,-2750,1829,0
1621,-2712,1838,0
1609,-2709,1839,0
1597,-2710,1821,0
1597,-2731,1823,0
1605,-2791,1822,0
1620,-2883,1828,0
1628,-3009,1825,0
1623,-3149,1823,0
1592,-3265,1802,0
1543,-3358,1763,0
1477,-3400,1698,0
1384,-3374,1601,0
1287,-3280,1517,0
1199,-3182,1483,0
1121,-3118,1448,0
1066,-3127,1394,0
1055,-3189,1319,0
1095,-3244,1255,0
1134,-3309,1205,0
1148,-3354,1164,0
1110,-3395,1135,0
1041,-3429,1087,0
994,-3434,1065,0
985,-3436,1060,0
1035,-3415,1040,0
1152,-3349,1023,0
1274,-3256,1034,0
1381,-3179,1056,0
1477,-3141,1086,0
1558,-3115,1092,0
1650,-3077,1128,0
1753,-3069,1223,0
1854,-3074,1260,0
1932,-3053,1310,0
2029,-2955,1349,0
2148,-2799,1440,0
2247,-2694,1521,0
2353,-2647,1592,0
2465,-2625,1657,0
2590,-2618,1744,0
2709,-2675,1829,0
2808,-2765,1916,0
2883,-2888,1997,0
2951,-3017,2024,0
3002,-3107,2058,0
3055,-3142,2090,0
3107,-3156,2157,0
3152,-3185,2215,0
3171,-3214,2261,0
3185,-3211,2310,0
3183,-3200,2350,0
3178,-3167,2378,0
3176,-3119,2437,0
3176,-3086,2483,0
3152,-3081,2534,0
3094,-3128,2547,0
3011,-3177,2524,0
2939,-3195,2472,0
2898,-3124,2422,0
2876,-2993,2368,0
2849,-2854,2289,0
2813,-2721,2187,0
2794,-2573,2085,0
2796,-2403,1993,0
2809,-2238,1910,0
2836,-2095,1834,0
2890,-1964,1774,0
2963,-1828,1722,0
3037,-1689,1665,0
3120,-1559,1615,0
3202,-1450,1560,0
3289,-1350,1520,0
3371,-1275,1474,0
3451,-1238,1434,0
3540,-1225,1391,0
3627,-1206,1357,0
3717,-1193,1333,0
3792,-1187,1323,0
3849,-1189,1300,0
3898,-1204,1285,0
3935,-1234,1267,0
3959,-1250,1242,0
3963,-1279,1230,0
3953,-1322,1217,0
3919,-1376,1193,0
3898,-1416,1188,0
3867,-1457,1172,0
3819,-1494,1165,0
3756,-1522,1132,0
3701,-1531,1116,0
3636,-1564,1086,0
3574,-1604,1044,0
3520,-1632,1016,0
3484,-1639,1008,0
3465,-1650,1026,0
3467,-1676,1038,0
3483,-1706,1059,0
3506,-1744,1072,0
3531,-1777,1086,0
3555,-1802,1091,0
3576,-1840,1095,0
3601,-1879,1087,0
3629,-1902,1089,0
3652,-1925,1096,0
3671,-1940,1099,0
3697,-1960,1108,0
3716,-1983,1120,0
3735,-1997,1123,0
3765,-2017,1128,0
3782,-2039,1140,0
3786,-2055,1143,0
3774,-2074,1130,0
3748,-2097,1113,0
3714,-2105,1106,0
3683,-2099,1125,0
3654,-2068,1137,0
3625,-2018,1156,0
3586,-1972,1171,0
3554,-1929,1184,0
3534,-1893,1198,0
3519,-1873,1207,0
3501,-1845,1210,0
3462,-1814,1224,0
3424,-1790,1246,0
3386,-1764,1272,0
3359,-1747,1289,0
3343,-1737,1298,0
3341,-1730,1306,0
3352,-1731,1314,0
3363,-1735,1312,0
3348,-1754,1303,0
3332,-1773,1282,0
3326,-1774,1281,0
3313,-1785,1284,0
3299,-1786,1292,0
3287,-1794,1314,0
3272,-1798,1331,0
3273,-1811,1333,0
3276,-1828,1341,0
3285,-1847,1333,0
3290,-1867,1323,0
3294,-1884,1320,0
3297,-1897,1328,0
3275,-1923,1339,0
3257,-1968,1319,0
3252,-1978,1290,0
3251,-1993,1266,0
3244,-1992,1232,0
3259,-1997,1221,0
3272,-1984,1218,0
3306,-1968,1228,0
3343,-1952,1230,0
3374,-1957,1205,0
3408,-1942,1173,0
3434,-1922,1131,0
3471,-1899,1112,0
3516,-1895,1102,0
3510,-1877,1106,0
3492,-1852,1109,0
3480,-1847,1115,0
3489,-1825,1137,0
3495,-1802,1159,0
3489,-1773,1166,0
3488,-1738,1175,0
3475,-1697,1159,0
3474,-1672,1150,0
3473,-1659,1138,0
3486,-1667,1127,0
3499,-1669,1131,0
3506,-1691,1129,0
3506,-1718,1124,0
3502,-1754,1121,0
3485,-1772,1105,0
3479,-1737,1086,0
3468,-1705,1089,0
3451,-1657,1074,0
3454,-1670,1086,0
3454,-1676,1075,0
3460,-1679,1062,0
3482,-1690,1076,0
3508,-1675,1057,0
3532,-1683,1065,0
3544,-1719,1079,0
3539,-1750,1061,0
3532,-1703,985,0
3578,-1589,928,0
3629,-1560,988,0
3618,-1692,1102,0
3590,-1528,845,0
3629,-1373,842,0
3654,-1368,928,0
3626,-1404,916,0
3610,-1331,859,0
3608,-1318,896,0
3583,-1403,910,0
3559,-1465,883,0
3552,-1445,836,0
3565,-1453,838,0
3567,-1506,838,0
3566,-1557,802,0
3587,-1583,792,0
3602,-1616,781,0
3611,-1654,769,0
3615,-1663,743,0
3622,-1632,722,0
3620,-1584,700,0
3619,-1557,670,0
3626,-1545,674,0
3644,-1536,677,0
3645,-1514,663,0
3631,-1496,647,0
3612,-1472,619,0
3612,-1448,613,0
3622,-1408,610,0
3641,-1391,606,0
3673,-1392,604,0
3696,-1384,604,0
3723,-1378,605,0
3752,-1373,621,0
3787,-1355,664,0
3816,-1335,716,0
3826,-1306,756,0
3833,-1280,795,0
3819,-1242,816,0
3802,-1211,831,0
3790,-1194,847,0
3770,-1177,853,0
3746,-1144,849,0
3728,-1113,847,0
3725,-1086,839,0
3742,-1078,824,0
3797,-1057,821,0
3847,-1058,832,0
3897,-1079,829,0
3929,-1104,826,0
3938,-1125,841,0
3925,-1144,840,0
3911,-1184,832,0
3898,-1222,820,0
3884,-1278,815,0
3863,-1331,809,0
3839,-1376,797,0
3822,-1411,794,0
3812,-1429,796,0
3811,-1438,794,0
3800,-1480,772,0
3801,-1513,761,0
3811,-1544,736,0
3824,-1580,740,0
3821,-1615,731,0
3792,-1608,702,0
3779,-1632,732,0
3730,-1656,743,0
3660,-1716,770,0
3504,-2002,1102,0
3177,-2079,692,0
3276,-1517,336,0
3578,-1052,576,0
3703,-937,738,0
3761,-994,783,0
3759,-1146,888,0
3675,-1261,843,0
3673,-1145,614,0
3746,-1029,640,0
3771,-954,679,0
3797,-916,688,0
3834,-850,677,0
3854,-830,584,0
3925,-801,501,0
3990,-779,423,0
4049,-773,371,0
4098,-769,339,0
4121,-793,321,0
4102,-852,294,0
4023,-1031,242,0
3938,-1253,199,0
3875,-1464,192,0
3821,-1599,184,0
3793,-1609,159,0
3813,-1438,174,0
3899,-1152,241,0
3999,-891,304,0
4067,-723,340,0
4103,-655,336,0
4102,-653,312,0
4075,-705,258,0
4058,-790,209,0
4047,-911,198,0
4045,-1059,190,0
4037,-1189,191,0
4022,-1311,183,0
3998,-1403,179,0
3975,-1449,156,0
3967,-1441,135,0
3940,-1376,135,0
3944,-1362,99,0
3961,-1308,66,0
3986,-1240,58,0
3999,-1192,57,0
4003,-1182,64,0
3992,-1198,70,0
3969,-1231,66,0
3956,-1257,80,0
3954,-1260,126,0
3937,-1299,120,0
3932,-1300,139,0
3935,-1283,164,0
3950,-1248,201,0
3961,-1223,207,0
3986,-1163,229,0
4015,-1094,250,0
4042,-1051,256,0
4069,-1023,247,0
4086,-1003,242,0
4103,-995,241,0
4107,-1009,233,0
4107,-1032,231,0
4103,-1071,229,0
4092,-1096,222,0
4084,-1127,244,0
4060,-1145,252,0
4049,-1157,247,0
4033,-1176,255,0
4018,-1178,241,0
4017,-1174,240,0
4016,-1163,221,0
4014,-1137,237,0
4016,-1110,235,0
4032,-1077,234,0
4046,-1032,243,0
4050,-985,252,0
4065,-959,253,0
4075,-921,255,0
4083,-879,259,0
4086,-835,263,0
4089,-795,269,0
4093,-767,277,0
4082,-752,287,0
4066,-743,285,0
4053,-735,288,0
4046,-725,283,0
4040,-732,263,0
4043,-744,246,0
4050,-760,232,0
4058,-775,226,0
4060,-784,220,0
4076,-797,220,0
4089,-820,214,0
4100,-840,204,0
4112,-856,184,0
4122,-857,162,0
4134,-862,132,0
4141,-873,98,0
4146,-874,74,0
4148,-879,59,0
4149,-882,59,0
4181,-895,39,0
4135,-905,50,0
4090,-929,54,0
4052,-951,64,0
4026,-969,72,0
3979,-1009,81,0
3948,-1064,88,0
3932,-1111,98,0
3907,-1134,125,0
3886,-1163,153,0
3875,-1205,168,0
3860,-1249,171,0
3842,-1295,183,0
3829,-1332,196,0
3813,-1358,223,0
3803,-1389,239,0
3794,-1403,262,0
3780,-1420,290,0
3774,-1432,318,0
3770,-1441,354,0
3766,-1451,382,0
3752,-1464,406,0
3752,-1486,428,0
3755,-1502,449,0
3758,-1522,474,0
3763,-1524,516,0
3776,-1532,563,0
3782,-1548,617,0
3779,-1578,640,0
3771,-1576,662,0
3769,-1561,697,0
3749,-1545,738,0
3706,-1553,763,0
3655,-1569,800,0
3592,-1582,854,0
3528,-1597,915,0
3461,-1622,987,0
3391,-1644,1061,0
3324,-1660,1116,0
3274,-1663,1160,0
3239,-1642,1205,0
3233,-1639,1240,0
3234,-1623,1274,0
3245,-1621,1298,0
3267,-1629,1330,0
3302,-1635,1359,0
3348,-1648,1391,0
3394,-1635,1429,0
3443,-1621,1458,0
3494,-1605,1480,0
3543,-1593,1497,0
3573,-1571,1505,0
3585,-1541,1500,0
3593,-1524,1488,0
3595,-1513,1463,0
3598,-1488,1443,0
3598,-1459,1433,0
3597,-1438,1423,0
3583,-1425,1399,0
3569,-1410,1380,0
3552,-1399,1367,0
3529,-1386,1356,0
3514,-1372,1350,0
3498,-1360,1351,0
3475,-1369,1335,0
3456,-1376,1325,0
3447,-1378,1321,0
3445,-1383,1317,0
3446,-1397,1303,0
3429,-1425,1286,0
3438,-1455,1278,0
3462,-1445,1272,0
3480,-1425,1274,0
3495,-1423,1262,0
3507,-1422,1245,0
3518,-1421,1227,0
3528,-1417,1215,0
3537,-1415,1203,0
3547,-1406,1190,0
3547,-1401,1171,0
3549,-1398,1146,0
3554,-1395,1128,0
3558,-1394,1115,0
3556,-1394,1099,0
3541,-1412,1100,0
3558,-1386,1084,0
3583,-1349,1078,0
3602,-1337,1076,0
3608,-1336,1070,0
3614,-1335,1067,0
3624,-1332,1066,0
3633,-1329,1065,0
3643,-1324,1059,0
3650,-1323,1046,0
3655,-1323,1037,0
3660,-1320,1022,0
3665,-1319,1011,0
3669,-1313,1007,0
3671,-1299,1010,0
3675,-1284,1020,0
3678,-1269,1035,0
3677,-1251,1051,0
3677,-1238,1067,0
3675,-1221,1087,0
3672,-1210,1107,0
3668,-1202,1122,0
3665,-1198,1137,0
3664,-1196,1153,0
3660,-1202,1157,0
3657,-1214,1165,0
3655,-1224,1169,0
3653,-1233,1177,0
3653,-1245,1184,0
3655,-1256,1185,0
3654,-1269,1190,0
3655,-1280,1192,0
3658,-1285,1190,0
3660,-1286,1197,0
3654,-1303,1197,0
3648,-1311,1193,0
3648,-1318,1196,0
3649,-1322,1201,0
3647,-1328,1200,0
3642,-1335,1199,0
3638,-1341,1197,0
3632,-1344,1193,0
3631,-1349,1187,0
3630,-1345,1194,0
3625,-1342,1194,0
3622,-1335,1197,0
3616,-1335,1200,0
3605,-1335,1197,0
3594,-1336,1198,0
3592,-1335,1197,0
3598,-1333,1205,0
3610,-1338,1206,0
3620,-1347,1200,0
3627,-1355,1191,0
3632,-1361,1179,0
3630,-1367,1172,0
3631,-1370,1168,0
3634,-1376,1167,0
3637,-1379,1163,0
3634,-1381,1156,0
3635,-1374,1154,0
3634,-1368,1154,0
3628,-1365,1148,0
3623,-1359,1148,0
3605,-1356,1142,0
3609,-1345,1146,0
3611,-1327,1164,0
3604,-1324,1170,0
3603,-1317,1178,0
3603,-1311,1187,0
3605,-1314,1194,0
3614,-1315,1195,0
3618,-1321,1199,0
3628,-1326,1196,0
3635,-1330,1195,0
3644,-1328,1192,0
3652,-1329,1191,0
3651,-1333,1178,0
3650,-1337,1174,0
3648,-1337,1171,0
3641,-1341,1170,0
3632,-1342,1171,0
3625,-1337,1172,0
3616,-1332,1176,0
3613,-1330,1181,0
3612,-1323,1187,0
3607,-1319,1192,0
3600,-1319,1195,0
3592,-1322,1194,0
3590,-1324,1192,0
3594,-1331,1195,0
3602,-1337,1199,0
3611,-1344,1204,0
3618,-1349,1205,0
3622,-1352,1206,0
3627,-1356,1206,0
3629,-1358,1205,0
3633,-1358,1202,0
3638,-1361,1195,0
3641,-1360,1190,0
3638,-1359,1184,0
3637,-1361,1180,0
3633,-1360,1180,0
3635,-1362,1176,0
3633,-1358,1175,0
3629,-1358,1173,0
3632,-1357,1172,0
3633,-1361,1168,0
3635,-1359,1165,0
3636,-1359,1164,0
3635,-1359,1158,0
3634,-1360,1157,0
3630,-1359,1157,0
3632,-1356,1160,0
3635,-1355,1157,0
3634,-1354,1156,0
3632,-1346,1153,0
3634,-1346,1151,0
3636,-1343,1154,0
3638,-1342,1150,0
3637,-1343,1146,0
3638,-1343,1146,0
3635,-1342,1143,0
3635,-1340,1142,0
3627,-1328,1131,0
3634,-1333,1145,0
3637,-1331,1144,0
3640,-1333,1140,0
3642,-1336,1144,0
3646,-1332,1145,0
3648,-1332,1146,0
3649,-1328,1151,0
3646,-1327,1154,0
3650,-1322,1153,0
3650,-1319,1154,0
3652,-1318,1158,0
3651,-1317,1155,0
3652,-1320,1155,0
3651,-1321,1150,0
3653,-1324,1148,0
3653,-1326,1145,0
3650,-1323,1141,0
3647,-1319,1140,0
3651,-1319,1139,0
3654,-1319,1140,0
3655,-1318,1144,0
3660,-1316,1148,0
3657,-1313,1155,0
3657,-1312,1161,0
3653,-1319,1163,0
3654,-1318,1165,0
3655,-1316,1168,0
3653,-1317,1167,0
3654,-1318,1167,0
3644,-1320,1161,0
3649,-1322,1158,0
3651,-1317,1163,0
3649,-1322,1156,0
3649,-1326,1156,0
3645,-1332,1156,0
3644,-1332,1154,0
3643,-1333,1152,0
3644,-1336,1154,0
3639,-1339,1151,0
3643,-1339,1157,0
3623,-1331,1127,0
3635,-1326,1152,0
3643,-1327,1157,0
3641,-1330,1149,0
3639,-1329,1152,0
3639,-1330,1152,0
3637,-1330,1151,0
3641,-1330,1147,0
3642,-1331,1143,0
3644,-1334,1145,0
3641,-1330,1145,0
3637,-1329,1142,0
3638,-1331,1138,0
3638,-1330,1137,0
3638,-1331,1136,0
3638,-1331,1139,0
3639,-1330,1140,0
3640,-1329,1142,0
3644,-1329,1142,0
3646,-1329,1143,0
3645,-1332,1147,0
3644,-1332,1149,0
3647,-1334,1144,0
3647,-1336,1141,0
3647,-1335,1140,0
3646,-1332,1138,0
3652,-1335,1140,0
3649,-1338,1138,0
3648,-1340,1139,0
3650,-1339,1136,0
3650,-1339,1133,0
3651,-1336,1134,0
3654,-1334,1133,0
3655,-1335,1131,0
3654,-1333,1131,0
3651,-1332,1133,0
3653,-1332,1135,0
3659,-1329,1134,0
3657,-1326,1134,0
3652,-1323,1135,0
3650,-1324,1135,0
3654,-1324,1134,0
3654,-1324,1136,0
3654,-1323,1138,0
3655,-1321,1139,0
3656,-1323,1137,0
3655,-1325,1138,0
3654,-1324,1134,0
3656,-1325,1135,0
3656,-1322,1135,0
3653,-1321,1134,0
3653,-1319,1137,0
3653,-1321,1138,0
3651,-1322,1138,0
3652,-1320,1138,0
3647,-1321,1137,0
3649,-1319,1139,0
3650,-1317,1139,0
3650,-1320,1138,0
3651,-1322,1139,0
3652,-1322,1136,0
3650,-1324,1135,0
3651,-1323,1134,0
3649,-1323,1133,0
3650,-1322,1135,0
3625,-1293,1097,0
3651,-1310,1135,0
3657,-1316,1136,0
3658,-1320,1131,0
3658,-1326,1129,0
3658,-1320,1134,0
3660,-1319,1134,0
3658,-1318,1128,0
3658,-1318,1129,0
3656,-1321,1131,0
3655,-1318,1134,0
3655,-1319,1130,0
3652,-1321,1133,0
3653,-1317,1130,0
3653,-1320,1130,0
3654,-1319,1132,0
3653,-1322,1127,0
3657,-1322,1130,0
3659,-1323,1127,0
3659,-1321,1128,0
3658,-1325,1124,0
3661,-1323,1121,0
3658,-1326,1120,0
3653,-1330,1122,0
3655,-1327,1124,0
3649,-1327,1125,0
3649,-1332,1122,0
3652,-1331,1125,0
3654,-1333,1126,0
3658,-1332,1123,0
3662,-1331,1125,0
3664,-1332,1125,0
3664,-1327,1126,0
3661,-1326,1127,0
3658,-1324,1125,0
3654,-1320,1122,0
3652,-1321,1121,0
3651,-1320,1117,0
3650,-1317,1116,0
3616,-1303,1072,0
3637,-1315,1107,0
3647,-1316,1117,0
3652,-1323,1114,0
3656,-1326,1112,0
3658,-1327,1109,0
3658,-1330,1109,0
3660,-1335,1108,0
3660,-1334,1106,0
3664,-1336,1107,0
3666,-1336,1115,0
3667,-1338,1119,0
3665,-1337,1120,0
3660,-1337,1125,0
3656,-1336,1126,0
3654,-1338,1129,0
3655,-1337,1126,0
3654,-1332,1126,0
3650,-1329,1127,0
3649,-1333,1123,0
3648,-1330,1121,0
3649,-1331,1122,0
3649,-1331,1120,0
3650,-1333,1123,0
3652,-1336,1118,0
3653,-1338,1116,0
3654,-1333,1115,0
3657,-1329,1114,0
3659,-1328,1112,0
3661,-1328,1108,0
3663,-1325,1108,0
3661,-1323,1103,0
3665,-1324,1097,0
3661,-1325,1094,0
3662,-1321,1095,0
3664,-1323,1090,0
3666,-1326,1090,0
3666,-1332,1090,0
3664,-1331,1089,0
3664,-1327,1088,0
3663,-1326,1086,0
3666,-1327,1087,0
3662,-1324,1088,0
3661,-1327,1093,0
3662,-1326,1096,0
3662,-1327,1097,0
3666,-1328,1098,0
3667,-1328,1103,0
3671,-1325,1101,0
3670,-1324,1100,0
3666,-1324,1095,0
3665,-1326,1095,0
3663,-1327,1094,0
3666,-1329,1097,0
3663,-1326,1098,0
3665,-1324,1099,0
3664,-1324,1101,0
3664,-1323,1098,0
3666,-1327,1096,0
3665,-1327,1092,0
3670,-1320,1093,0
3671,-1316,1095,0
3668,-1316,1093,0
3669,-1315,1094,0
3668,-1318,1097,0
3668,-1320,1097,0
3671,-1318,1097,0
3669,-1322,1099,0
3671,-1322,1100,0
3668,-1329,1095,0
3669,-1317,1097,0
3666,-1307,1099,0
3690,-1349,1123,0
3679,-1323,1121,0
3675,-1324,1108,0
3670,-1322,1101,0
3670,-1321,1099,0
3666,-1321,1096,0
3665,-1324,1096,0
3667,-1323,1098,0
3668,-1322,1100,0
3665,-1323,1101,0
3664,-1326,1097,0
3663,-1329,1099,0
3665,-1327,1100,0
3668,-1326,1098,0
3668,-1325,1098,0
3667,-1327,1097,0
3666,-1326,1095,0
3670,-1324,1099,0
3666,-1326,1097,0
3664,-1326,1095,0
3663,-1327,1096,0
3660,-1331,1095,0
3665,-1332,1096,0
3668,-1329,1094,0
3668,-1330,1093,0
3634,-1311,1041,0
3659,-1314,1091,0
3665,-1324,1091,0
3665,-1331,1090,0
3667,-1332,1093,0
3666,-1332,1090,0
3664,-1331,1089,0
3665,-1330,1091,0
3661,-1329,1088,0
3660,-1328,1086,0
3662,-1330,1087,0
3658,-1335,1082,0
3658,-1330,1087,0
3663,-1329,1088,0
3661,-1330,1089,0
3661,-1334,1089,0
3660,-1339,1085,0
3658,-1339,1089,0
3657,-1338,1095,0
3660,-1335,1094,0
3657,-1334,1094,0
3659,-1331,1095,0
3659,-1329,1095,0
3636,-1294,1047,0
3664,-1313,1092,0
3672,-1318,1094,0
3672,-1326,1090,0
3676,-1327,1087,0
3674,-1324,1079,0
3675,-1324,1078,0
3669,-1324,1075,0
3667,-1326,1078,0
3666,-1322,1080,0
3663,-1327,1080,0
3666,-1328,1076,0
3665,-1328,1074,0
3669,-1328,1078,0
3666,-1329,1077,0
3664,-1329,1073,0
3666,-1335,1065,0
3675,-1331,1074,0
3681,-1329,1075,0
3673,-1347,1063,0
3681,-1332,1078,0
3682,-1334,1080,0
3673,-1341,1075,0
3677,-1332,1080,0
3677,-1329,1078,0
3669,-1331,1074,0
3665,-1331,1069,0
3663,-1331,1066,0
3658,-1333,1066,0
3661,-1334,1060,0
3661,-1337,1055,0
3667,-1332,1060,0
3673,-1333,1056,0
3666,-1310,1031,0
3686,-1344,1064,0
3684,-1342,1059,0
3686,-1343,1049,0
3684,-1346,1043,0
3682,-1347,1040,0
3684,-1349,1039,0
3683,-1348,1036,0
3678,-1348,1037,0
3680,-1343,1040,0
3677,-1340,1036,0
3678,-1345,1037,0
3674,-1343,1035,0
3672,-1344,1036,0
3669,-1352,1029,0
3667,-1354,1026,0
3668,-1356,1019,0
3668,-1356,1016,0
3675,-1353,1016,0
3677,-1360,1018,0
3678,-1356,1026,0
3683,-1352,1029,0
3682,-1355,1031,0
3680,-1354,1035,0
3676,-1358,1037,0
3672,-1356,1040,0
3673,-1358,1044,0
3672,-1357,1043,0
3669,-1360,1048,0
3670,-1359,1054,0
3668,-1358,1052,0
3670,-1354,1049,0
3670,-1349,1044,0
3675,-1346,1045,0
3675,-1343,1048,0
3673,-1338,1051,0
3673,-1337,1050,0
3677,-1334,1049,0
3681,-1337,1053,0
3678,-1336,1055,0
3679,-1334,1058,0
3678,-1335,1061,0
3678,-1336,1061,0
3676,-1333,1060,0
3676,-1336,1057,0
3673,-1339,1054,0
3673,-1342,1051,0
3673,-1339,1049,0
3675,-1340,1051,0
3677,-1340,1052,0
3674,-1336,1058,0
3678,-1338,1059,0
3674,-1335,1061,0
3673,-1332,1062,0
3667,-1330,1062,0
3669,-1329,1067,0
3670,-1326,1070,0
3669,-1325,1074,0
3674,-1323,1079,0
3677,-1324,1082,0
3672,-1325,1081,0
3672,-1324,1083,0
3668,-1322,1087,0
3667,-1321,1085,0
3666,-1319,1087,0
3666,-1318,1092,0
3667,-1318,1093,0
3665,-1317,1095,0
3661,-1316,1097,0
3662,-1317,1098,0
3663,-1315,1100,0
3663,-1312,1098,0
3667,-1314,1096,0
3668,-1315,1095,0
3668,-1314,1092,0
3670,-1316,1093,0
3673,-1315,1094,0
3675,-1318,1091,0
3675,-1323,1092,0
3678,-1322,1089,0
3673,-1323,1089,0
3670,-1326,1088,0
3668,-1326,1090,0
3668,-1325,1086,0
3667,-1330,1088,0
3670,-1332,1090,0
3669,-1327,1090,0
3671,-1328,1091,0
3669,-1326,1091,0
3665,-1323,1092,0
3668,-1324,1093,0
3671,-1325,1092,0
3669,-1326,1093,0
3672,-1324,1090,0
3668,-1327,1090,0
3669,-1327,1091,0
3666,-1330,1092,0
3665,-1331,1087,0
3661,-1334,1086,0
3659,-1337,1086,0
3662,-1337,1085,0
3663,-1336,1085,0
3662,-1336,1085,0
3665,-1336,1090,0
3667,-1333,1093,0
3669,-1332,1095,0
3669,-1331,1095,0
3668,-1330,1093,0
3667,-1330,1093,0
3666,-1330,1091,0
3665,-1331,1090,0
3661,-1334,1089,0
3663,-1333,1087,0
3661,-1336,1085,0
3663,-1339,1086,0
3661,-1344,1085,0
3660,-1344,1084,0
3664,-1342,1087,0
3671,-1344,1084,0
3674,-1343,1088,0
3675,-1339,1088,0
3676,-1337,1090,0
3674,-1338,1092,0
3668,-1340,1101,0
3666,-1336,1104,0
3664,-1334,1108,0
3660,-1331,1110,0
3658,-1329,1113,0
3656,-1327,1117,0
3656,-1324,1111,0
3652,-1326,1116,0
3653,-1329,1120,0
3652,-1330,1117,0
3654,-1330,1120,0
3654,-1332,1119,0
3651,-1337,1114,0
3652,-1339,1114,0
3652,-1340,1114,0
3653,-1339,1113,0
3654,-1338,1112,0
3654,-1336,1111,0
3654,-1337,1109,0
3656,-1335,1105,0
3658,-1334,1106,0
3657,-1336,1104,0
3658,-1335,1104,0
3653,-1331,1104,0
3655,-1330,1101,0
3656,-1329,1103,0
3652,-1331,1101,0
3652,-1331,1102,0
3653,-1330,1101,0
3651,-1333,1099,0
3652,-1336,1100,0
3653,-1335,1103,0
3657,-1331,1108,0
3659,-1330,1109,0
3659,-1330,1112,0
3657,-1332,1111,0
3658,-1329,1115,0
3655,-1323,1118,0
3659,-1322,1123,0
3658,-1321,1125,0
3654,-1320,1124,0
3655,-1319,1126,0
3654,-1324,1125,0
3654,-1326,1123,0
3655,-1325,1119,0
3657,-1327,1121,0
3656,-1328,1117,0
3658,-1330,1119,0
3656,-1336,1116,0
3660,-1339,1116,0
3660,-1338,1114,0
3658,-1338,1117,0
3655,-1338,1114,0
3656,-1336,1110,0
3655,-1332,1112,0
3656,-1331,1112,0
3658,-1332,1114,0
3659,-1330,1112,0
3657,-1330,1114,0
3659,-1331,1117,0
3658,-1328,1117,0
3660,-1327,1120,0
3662,-1327,1116,0
3661,-1326,1114,0
3660,-1323,1111,0
3659,-1323,1116,0
3659,-1322,1112,0
3659,-1324,1113,0
3658,-1326,1111,0
3660,-1328,1110,0
3659,-1330,1107,0
3660,-1328,1109,0
3661,-1330,1112,0
3661,-1334,1111,0
3661,-1335,1115,0
3659,-1334,1113,0
3657,-1332,1112,0
3654,-1336,1111,0
3656,-1335,1109,0
3655,-1333,1111,0
3653,-1336,1112,0
3658,-1332,1114,0
3660,-1335,1113,0
3659,-1337,1113,0
3658,-1333,1114,0
3656,-1333,1112,0
3655,-1335,1114,0
3659,-1331,1117,0
3657,-1334,1117,0
3655,-1334,1119,0
3657,-1334,1118,0
3659,-1332,1115,0
3657,-1333,1120,0
3657,-1330,1122,0
3655,-1329,1122,0
3655,-1332,1122,0
3653,-1331,1121,0
3652,-1330,1120,0
3653,-1327,1121,0
3654,-1327,1122,0
3653,-1329,1124,0
3654,-1326,1125,0
3652,-1323,1122,0
3653,-1325,1126,0
3657,-1325,1125,0
3659,-1326,1125,0
3656,-1323,1125,0
3655,-1325,1125,0
3654,-1326,1125,0
3658,-1324,1123,0
3659,-1323,1124,0
3659,-1323,1121,0
3655,-1326,1129,0
3654,-1326,1127,0
3654,-1322,1130,0
3655,-1324,1129,0
3652,-1322,1131,0
3653,-1324,1128,0
3654,-1325,1127,0
3653,-1323,1129,0
3652,-1324,1126,0
3654,-1325,1123,0
3654,-1322,1126,0
3651,-1320,1128,0
3653,-1325,1128,0
3657,-1326,1124,0
3656,-1328,1122,0
3657,-1330,1125,0
3658,-1328,1124,0
3661,-1327,1122,0
3659,-1327,1118,0
3658,-1328,1117,0
3657,-1329,1118,0
3655,-1328,1117,0
3651,-1331,1119,0
3651,-1331,1120,0
3652,-1329,1121,0
3652,-1327,1123,0
3654,-1331,1122,0
3653,-1332,1122,0
3657,-1328,1123,0
3655,-1330,1126,0
3656,-1330,1124,0
3657,-1327,1126,0
3659,-1328,1128,0
3657,-1325,1127,0
3657,-1327,1128,0
3656,-1327,1127,0
3657,-1328,1120,0
3657,-1331,1119,0
3661,-1330,1117,0
3659,-1329,1120,0
3657,-1328,1123,0
3657,-1328,1126,0
3656,-1330,1129,0
3652,-1330,1131,0
3657,-1330,1133,0
3656,-1330,1136,0
3659,-1329,1130,0
3656,-1327,1130,0
3657,-1324,1132,0
3655,-1322,1136,0
3658,-1321,1138,0
3666,-1320,1142,0
3670,-1319,1136,0
3668,-1324,1125,0
3665,-1332,1118,0
3665,-1334,1116,0
3662,-1333,1110,0
3660,-1333,1107,0
3662,-1329,1108,0
3663,-1327,1109,0
3662,-1329,1109,0
3661,-1325,1114,0
3660,-1321,1118,0
3661,-1321,1124,0
3659,-1320,1128,0
3659,-1317,1132,0
3655,-1314,1136,0
3651,-1312,1142,0
3651,-1306,1145,0
3651,-1303,1146,0
3649,-1303,1149,0
3652,-1303,1146,0
3648,-1304,1147,0
3651,-1305,1147,0
3650,-1307,1143,0
3654,-1310,1141,0
3656,-1311,1146,0
3655,-1313,1142,0
3655,-1315,1141,0
3657,-1316,1140,0
3653,-1322,1139,0
3654,-1322,1138,0
3655,-1325,1138,0
3654,-1327,1142,0
3650,-1328,1142,0
3654,-1329,1140,0
3655,-1328,1139,0
3654,-1329,1139,0
3651,-1330,1141,0
3647,-1328,1141,0
3644,-1327,1138,0
3643,-1326,1137,0
3644,-1326,1141,0
3648,-1321,1144,0
3645,-1320,1143,0
3644,-1321,1142,0
3642,-1322,1140,0
3643,-1321,1140,0
3647,-1325,1140,0
3645,-1321,1140,0
3646,-1317,1142,0
3646,-1316,1143,0
3650,-1316,1147,0
3649,-1317,1146,0
3646,-1315,1145,0
3646,-1317,1147,0
3647,-1317,1146,0
3648,-1317,1144,0
3651,-1320,1146,0
3650,-1322,1143,0
3647,-1320,1146,0
3648,-1322,1147,0
3650,-1325,1144,0
3651,-1325,1145,0
3656,-1324,1146,0
3653,-1323,1145,0
3655,-1325,1146,0
3654,-1324,1150,0
3654,-1325,1148,0
3651,-1325,1150,0
3649,-1324,1151,0
3651,-1324,1149,0
3651,-1320,1149,0
3653,-1317,1143,0
3655,-1322,1146,0
3655,-1320,1149,0
3654,-1318,1148,0
3653,-1317,1150,0
3651,-1313,1150,0
3653,-1315,1151,0
3653,-1315,1146,0
3651,-1316,1146,0
3653,-1316,1146,0
3654,-1315,1145,0
3655,-1313,1144,0
3650,-1313,1141,0
3651,-1312,1140,0
3652,-1317,1142,0
3651,-1319,1145,0
3650,-1321,1146,0
3649,-1322,1142,0
3649,-1324,1143,0
3645,-1325,1144,0
3647,-1325,1142,0
3648,-1327,1146,0
3649,-1324,1144,0
3649,-1324,1147,0
3651,-1325,1141,0
3650,-1325,1139,0
3651,-1323,1140,0
3652,-1325,1139,0
3652,-1327,1142,0
3652,-1326,1143,0
3653,-1323,1142,0
3652,-1325,1143,0
3651,-1323,1143,0
3653,-1327,1146,0
3652,-1325,1145,0
3652,-1323,1148,0
3653,-1322,1149,0
3650,-1322,1150,0
3652,-1321,1149,0
3654,-1321,1148,0
3651,-1321,1151,0
3650,-1320,1151,0
3653,-1318,1153,0
3649,-1316,1150,0
3648,-1317,1153,0
3648,-1318,1152,0
3650,-1317,1152,0
3648,-1316,1150,0
3650,-1316,1151,0
3652,-1316,1154,0
3651,-1316,1152,0
3649,-1317,1156,0
3648,-1320,1156,0
3650,-1322,1160,0
3649,-1323,1160,0
3650,-1322,1161,0
3652,-1323,1158,0
3649,-1323,1157,0
3643,-1321,1154,0
3648,-1320,1155,0
3648,-1318,1154,0
3646,-1319,1154,0
3644,-1320,1150,0
3649,-1320,1148,0
3648,-1320,1149,0
3648,-1320,1150,0
3652,-1322,1151,0
3652,-1321,1150,0
3652,-1322,1150,0
3650,-1322,1148,0
3650,-1321,1151,0
3649,-1321,1152,0
3649,-1320,1153,0
3649,-1321,1155,0
3649,-1320,1152,0
3645,-1318,1152,0
3646,-1321,1152,0
3646,-1324,1151,0
3643,-1324,1153,0
3642,-1321,1158,0
3646,-1319,1156,0
3646,-1321,1157,0
3648,-1321,1156,0
3656,-1319,1156,0
3654,-1322,1153,0
3655,-1323,1152,0
3654,-1327,1151,0
3654,-1326,1150,0
3653,-1325,1149,0
3653,-1320,1152,0
3654,-1322,1155,0
3650,-1322,1154,0
3651,-1321,1158,0
3653,-1320,1157,0
3653,-1319,1153,0
3652,-1321,1156,0
3653,-1318,1154,0
3649,-1317,1159,0
3650,-1316,1160,0
3651,-1310,1162,0
3652,-1310,1160,0
3656,-1312,1159,0
3659,-1315,1154,0
3660,-1321,1145,0
3661,-1327,1137,0
3660,-1331,1136,0
3658,-1334,1134,0
3654,-1331,1138,0
3653,-1329,1134,0
3653,-1329,1136,0
3652,-1327,1141,0
3653,-1321,1142,0
3652,-1317,1148,0
3651,-1317,1152,0
3649,-1317,1154,0
3650,-1316,1159,0
3641,-1308,1161,0
3637,-1303,1163,0
3639,-1304,1167,0
3640,-1306,1168,0
3636,-1300,1168,0
3637,-1298,1170,0
3643,-1299,1166,0
3645,-1299,1164,0
3644,-1302,1165,0
3643,-1304,1163,0
3643,-1307,1163,0
3645,-1311,1166,0
3647,-1315,1162,0
3647,-1317,1162,0
3646,-1319,1163,0
3647,-1319,1168,0
3648,-1318,1170,0
3645,-1321,1167,0
3647,-1322,1167,0
3646,-1321,1167,0
3648,-1321,1164,0
3644,-1320,1162,0
3639,-1322,1163,0
3642,-1321,1161,0
3640,-1319,1162,0
3641,-1319,1162,0
3645,-1319,1161,0
3645,-1317,1161,0
3644,-1319,1159,0
3647,-1320,1158,0
3646,-1321,1158,0
3646,-1319,1154,0
3645,-1317,1158,0
3646,-1317,1160,0
3649,-1319,1162,0
3649,-1317,1163,0
3647,-1315,1161,0
3643,-1315,1158,0
3643,-1311,1158,0
3644,-1310,1159,0
3643,-1312,1159,0
3643,-1311,1156,0
3646,-1310,1157,0
3643,-1313,1162,0
3645,-1315,1162,0
3644,-1315,1164,0
3645,-1313,1166,0
3649,-1312,1167,0
3648,-1313,1169,0
3649,-1312,1168,0
3649,-1313,1166,0
3650,-1314,1165,0
3650,-1316,1165,0
3650,-1315,1167,0
3650,-1315,1164,0
3652,-1314,1163,0
3651,-1311,1161,0
3652,-1311,1161,0
3651,-1309,1160,0
3649,-1310,1160,0
3650,-1313,1159,0
3650,-1313,1158,0
3648,-1308,1157,0
3647,-1306,1158,0
3646,-1305,1159,0
3649,-1308,1161,0
3650,-1305,1163,0
3653,-1307,1160,0
3651,-1312,1161,0
3649,-1311,1160,0
3648,-1312,1157,0
3649,-1313,1155,0
3643,-1314,1160,0
3646,-1314,1158,0
3650,-1317,1161,0
3650,-1318,1163,0
3648,-1317,1161,0
3647,-1317,1159,0
3648,-1320,1160,0
3649,-1319,1159,0
3646,-1319,1156,0
3643,-1322,1155,0
3646,-1319,1155,0
3645,-1319,1159,0
3644,-1313,1161,0
3646,-1313,1161,0
3646,-1316,1163,0
3646,-1316,1163,0
3647,-1316,1161,0
3649,-1314,1162,0
3651,-1315,1164,0
3653,-1315,1167,0
3650,-1315,1164,0
3648,-1315,1165,0
3647,-1317,1165,0
3645,-1315,1163,0
3645,-1315,1164,0
3645,-1319,1162,0
3646,-1317,1164,0
3645,-1315,1171,0
3644,-1315,1169,0
3647,-1317,1168,0
3643,-1315,1168,0
3646,-1312,1164,0
3646,-1315,1166,0
3646,-1311,1163,0
3644,-1310,1166,0
3641,-1310,1164,0
3644,-1311,1163,0
3643,-1309,1161,0
3645,-1309,1163,0
3649,-1310,1163,0
3646,-1308,1162,0
3647,-1309,1164,0
3646,-1313,1162,0
3645,-1315,1166,0
3647,-1317,1164,0
3649,-1316,1165,0
3644,-1314,1166,0
3649,-1314,1167,0
3649,-1315,1168,0
3650,-1313,1164,0
3650,-1311,1160,0
3650,-1312,1159,0
3648,-1314,1161,0
3649,-1315,1158,0
3652,-1319,1156,0
3652,-1317,1154,0
3654,-1319,1156,0
3650,-1313,1152,0
3649,-1310,1154,0
3645,-1309,1153,0
3644,-1313,1156,0
3646,-1312,1159,0
3643,-1310,1162,0
3640,-1317,1160,0
3641,-1315,1164,0
3647,-1316,1164,0
3648,-1314,1162,0
3645,-1316,1165,0
3649,-1316,1166,0
3650,-1314,1166,0
3653,-1313,1165,0
3651,-1313,1161,0
3651,-1317,1158,0
3655,-1317,1154,0
3651,-1315,1151,0
3651,-1317,1155,0
3649,-1318,1154,0
3648,-1317,1154,0
3648,-1318,1157,0
3652,-1318,1159,0
3650,-1314,1162,0
3648,-1318,1160,0
3645,-1319,1160,0
3646,-1317,1161,0
3648,-1316,1163,0
3646,-1316,1165,0
3649,-1312,1165,0
3651,-1307,1166,0
3655,-1309,1168,0
3657,-1311,1164,0
3658,-1312,1158,0
3661,-1319,1149,0
3661,-1323,1144,0
3656,-1325,1139,0
3655,-1328,1140,0
3653,-1323,1144,0
3651,-1321,1145,0
3649,-1320,1145,0
3647,-1316,1148,0
3646,-1317,1152,0
3647,-1315,1156,0
3648,-1314,1161,0
3649,-1308,1165,0
3650,-1306,1170,0
3646,-1306,1170,0
3643,-1304,1174,0
3642,-1299,1176,0
3647,-1300,1175,0
3651,-1301,1174,0
3650,-1302,1173,0
3650,-1306,1172,0
3652,-1306,1168,0
3652,-1310,1169,0
3651,-1314,1171,0
3649,-1311,1170,0
3650,-1310,1169,0
3647,-1314,1169,0
3648,-1314,1170,0
3651,-1318,1172,0
3648,-1324,1172,0
3645,-1321,1169,0
3644,-1315,1169,0
3641,-1315,1167,0
3640,-1316,1168,0
3640,-1317,1167,0
3643,-1314,1166,0
3644,-1313,1165,0
3643,-1314,1161,0
3643,-1316,1161,0
3645,-1314,1161,0
3644,-1318,1159,0
3644,-1318,1162,0
3649,-1315,1160,0
3650,-1315,1160,0
3648,-1316,1162,0
3649,-1313,1158,0
3650,-1312,1164,0
3652,-1309,1169,0
3647,-1303,1167,0
3650,-1302,1166,0
3649,-1302,1164,0
3644,-1301,1167,0
3644,-1305,1166,0
3645,-1306,1166,0
3647,-1305,1165,0
3646,-1306,1167,0
3647,-1309,1172,0
3650,-1310,1170,0
3648,-1313,1171,0
3650,-1312,1169,0
3649,-1311,1165,0
3650,-1310,1168,0
3647,-1313,1168,0
3649,-1313,1170,0
3651,-1313,1172,0
3651,-1312,1168,0
3652,-1311,1167,0
3650,-1311,1167,0
3648,-1309,1168,0
3645,-1308,1166,0
3649,-1308,1167,0
3650,-1305,1166,0
3650,-1306,1166,0
3653,-1307,1165,0
3651,-1304,1163,0
3650,-1308,1162,0
3649,-1309,1167,0
3653,-1309,1166,0
3648,-1310,1161,0
3646,-1308,1163,0
3648,-1313,1163,0
3647,-1314,1165,0
3647,-1312,1168,0
3647,-1310,1165,0
3645,-1312,1163,0
3644,-1315,1166,0
3644,-1315,1167,0
3643,-1314,1165,0
3643,-1315,1166,0
3642,-1316,1167,0
3644,-1315,1167,0
3647,-1317,1167,0
3643,-1317,1164,0
3644,-1318,1165,0
3644,-1318,1165,0
3644,-1318,1163,0
3648,-1320,1164,0
3651,-1321,1163,0
3651,-1320,1163,0
3648,-1321,1161,0
3649,-1323,1164,0
3647,-1319,1164,0
3644,-1317,1168,0
3646,-1316,1165,0
3649,-1314,1166,0
3648,-1316,1165,0
3645,-1316,1166,0
3645,-1318,1168,0
3643,-1314,1170,0
3644,-1314,1171,0
3644,-1311,1169,0
3645,-1309,1167,0
3641,-1312,1170,0
3642,-1309,1171,0
3645,-1312,1167,0
3646,-1311,1165,0
3651,-1316,1163,0
3648,-1313,1162,0
3648,-1312,1163,0
3648,-1314,1163,0
3644,-1314,1161,0
3650,-1312,1163,0
3646,-1308,1163,0
3644,-1308,1163,0
3642,-1311,1166,0
3645,-1311,1163,0
3649,-1310,1165,0
3649,-1310,1166,0
3651,-1314,1166,0
3653,-1311,1166,0
3649,-1311,1166,0
3646,-1311,1167,0
3646,-1308,1164,0
3647,-1309,1164,0
3645,-1316,1163,0
3647,-1318,1159,0
3649,-1314,1159,0
3649,-1317,1159,0
3652,-1320,1160,0
3650,-1322,1159,0
3651,-1318,1155,0
3648,-1317,1153,0
3647,-1314,1153,0
3653,-1318,1153,0
3652,-1315,1152,0
3654,-1312,1153,0
3652,-1313,1155,0
3648,-1314,1153,0
3646,-1313,1154,0
3643,-1314,1158,0
3645,-1310,1163,0
3647,-1311,1161,0
3649,-1317,1162,0
3651,-1317,1163,0
3651,-1318,1164,0
3649,-1317,1162,0
3650,-1314,1163,0
3649,-1314,1161,0
3651,-1313,1163,0
3651,-1316,1162,0
3653,-1319,1158,0
3650,-1318,1156,0
3644,-1320,1153,0
3649,-1317,1154,0
3650,-1317,1154,0
3650,-1318,1156,0
3648,-1318,1161,0
3650,-1318,1161,0
3647,-1319,1164,0
3649,-1316,1164,0
3651,-1316,1163,0
3650,-1314,1162,0
3648,-1311,1161,0
3645,-1313,1161,0
3646,-1314,1161,0
3650,-1317,1161,0
3653,-1316,1157,0
3654,-1319,1149,0
3657,-1323,1145,0
3657,-1328,1144,0
3655,-1326,1144,0
3651,-1321,1141,0
3650,-1322,1144,0
3650,-1323,1146,0
3648,-1321,1150,0
3645,-1315,1154,0
3646,-1311,1156,0
3647,-1308,1159,0
3648,-1306,1163,0
3647,-1306,1165,0
3645,-1302,1167,0
3650,-1302,1167,0
3647,-1301,1169,0
3648,-1302,1170,0
3650,-1305,1167,0
3649,-1307,1169,0
3649,-1306,1168,0
3648,-1310,1166,0
3649,-1313,1164,0
3649,-1316,1163,0
3650,-1316,1162,0
3646,-1317,1165,0
3646,-1318,1164,0
3649,-1314,1160,0
3645,-1313,1158,0
3643,-1314,1160,0
3642,-1317,1164,0
3646,-1317,1164,0
3644,-1317,1160,0
3643,-1313,1156,0
3643,-1312,1155,0
3641,-1312,1156,0
3646,-1314,1155,0
3646,-1316,1152,0
3645,-1319,1152,0
3646,-1318,1150,0
3649,-1317,1148,0
3648,-1321,1148,0
3644,-1320,1145,0
3648,-1320,1145,0
3650,-1317,1146,0
3651,-1315,1153,0
3652,-1315,1154,0
3651,-1312,1157,0
3649,-1313,1155,0
3649,-1317,1153,0
3648,-1315,1151,0
3647,-1312,1152,0
3644,-1314,1152,0
3646,-1312,1150,0
3645,-1311,1149,0
3647,-1312,1151,0
3650,-1317,1155,0
3649,-1316,1154,0
3654,-1316,1154,0
3657,-1313,1153,0
3658,-1312,1150,0
3659,-1309,1151,0
3656,-1312,1148,0
3657,-1312,1148,0
3655,-1309,1146,0
3654,-1310,1149,0
3653,-1309,1148,0
3652,-1308,1150,0
3654,-1308,1151,0
3653,-1309,1153,0
3656,-1312,1156,0
3656,-1312,1150,0
3656,-1312,1150,0
3652,-1314,1150,0
3647,-1313,1149,0
3648,-1314,1154,0
3648,-1313,1155,0
3651,-1313,1151,0
3650,-1314,1153,0
3649,-1315,1156,0
3651,-1313,1157,0
3653,-1313,1155,0
3651,-1313,1155,0
3652,-1315,1156,0
3650,-1316,1155,0
3652,-1318,1154,0
3649,-1319,1151,0
3650,-1319,1152,0
3647,-1320,1153,0
3650,-1319,1153,0
3649,-1318,1150,0
3648,-1317,1150,0
3650,-1319,1150,0
3649,-1320,1154,0
3650,-1322,1156,0
3652,-1323,1157,0
3648,-1322,1157,0
3646,-1321,1156,0
3646,-1322,1158,0
3644,-1319,1158,0
3647,-1317,1156,0
3645,-1316,1157,0
3648,-1315,1156,0
3650,-1315,1157,0
3649,-1315,1156,0
3649,-1317,1158,0
3648,-1317,1160,0
3649,-1319,1161,0
3646,-1317,1160,0
3648,-1317,1159,0
3646,-1312,1159,0
3649,-1313,1161,0
3649,-1313,1162,0
3648,-1314,1165,0
3646,-1314,1162,0
3646,-1317,1163,0
3647,-1314,1162,0
3650,-1312,1166,0
3650,-1315,1168,0
3650,-1315,1166,0
3650,-1316,1167,0
3649,-1315,1166,0
3646,-1315,1160,0
3649,-1313,1159,0
3651,-1315,1157,0
3650,-1315,1155,0
3646,-1315,1155,0
3649,-1310,1153,0
3649,-1310,1152,0
3650,-1311,1151,0
3648,-1309,1150,0
3646,-1313,1152,0
3651,-1315,1152,0
3652,-1313,1151,0
3653,-1314,1153,0
3652,-1317,1152,0
3654,-1315,1156,0
3654,-1317,1157,0
3653,-1317,1160,0
3652,-1318,1158,0
3650,-1319,1156,0
3649,-1319,1159,0
3653,-1316,1160,0
3652,-1316,1158,0
3651,-1316,1158,0
3652,-1317,1157,0
3654,-1313,1155,0
3652,-1312,1154,0
3648,-1315,1154,0
3648,-1314,1153,0
3652,-1314,1152,0
3651,-1317,1154,0
3651,-1316,1154,0
3650,-1314,1152,0
3648,-1315,1156,0
3650,-1315,1155,0
3650,-1316,1158,0
3652,-1315,1160,0
3651,-1314,1158,0
3649,-1311,1158,0
3646,-1311,1157,0
3651,-1307,1161,0
3652,-1310,1159,0
3650,-1310,1156,0
3655,-1314,1156,0
3659,-1314,1156,0
3658,-1319,1151,0
3658,-1327,1144,0
3655,-1328,1138,0
3655,-1332,1141,0
3650,-1329,1143,0
3649,-1327,1145,0
3648,-1322,1146,0
3650,-1319,1148,0
3650,-1318,1152,0
3653,-1316,1154,0
3648,-1314,1156,0
3647,-1311,1163,0
3644,-1306,1168,0
3644,-1303,1173,0
3646,-1304,1179,0
3644,-1302,1179,0
3642,-1300,1179,0
3641,-1299,1179,0
3642,-1303,1175,0
3641,-1303,1176,0
3642,-1303,1176,0
3641,-1307,1175,0
3648,-1309,1175,0
3644,-1310,1174,0
3644,-1313,1169,0
3650,-1312,1168,0
3653,-1316,1170,0
3651,-1314,1170,0
3651,-1313,1174,0
3649,-1315,1173,0
3647,-1313,1173,0
3647,-1312,1170,0
3639,-1313,1166,0
3639,-1313,1167,0
3640,-1315,1167,0
3643,-1319,1167,0
