accelerometer_x,accelerometer_y,accelerometer_z,fall
2384,-1,260,0
2410,-18,255,0
2439,-34,251,0
2475,-40,254,0
2512,-48,275,0
2557,-67,310,0
2591,-90,347,0
2614,-127,353,0
2625,-158,333,0
2628,-188,320,0
2591,-181,315,0
2537,-155,310,0
2460,-104,315,0
2369,-36,329,0
2277,32,361,0
2170,112,399,0
2059,226,441,0
1957,358,482,0
1866,483,518,0
1804,598,551,0
1755,748,609,0
1730,871,680,0
1719,961,746,0
1729,1028,817,0
1743,1072,883,0
1762,1094,931,0
1788,1097,974,0
1803,1095,1043,0
1813,1070,1140,0
1816,1032,1255,0
1813,966,1378,0
1819,859,1492,0
1826,732,1565,0
1833,618,1565,0
1923,473,1525,0
2005,399,1458,0
2109,360,1339,0
2256,338,1179,0
2441,343,998,0
2663,356,858,0
2913,394,799,0
3183,422,829,0
3460,437,926,0
3752,418,1072,0
4055,366,1245,0
4396,281,1419,0
4770,215,1546,0
5188,200,1591,0
5615,272,1556,0
6038,418,1421,0
6441,624,1259,0
6811,736,1214,0
7056,638,1362,0
7116,419,1602,0
6934,236,1936,0
6567,38,2283,0
6069,-95,2600,0
5499,-143,2951,0
4947,-196,3234,0
4468,-245,3462,0
4093,-282,3614,0
3841,-310,3729,0
3713,-365,3756,0
3640,-422,3728,0
3629,-470,3590,0
3714,-420,3274,0
3934,-168,2898,0
4273,374,2680,0
4690,956,2610,0
5015,1350,2526,0
5150,1328,2357,0
5157,829,2151,0
4962,399,1938,0
4711,263,1694,0
4519,521,1357,0
4478,1130,949,0
4624,1884,534,0
4928,2437,161,0
5248,2720,-135,0
5522,2764,-260,0
5685,2650,-116,0
5729,2517,331,0
5608,2486,902,0
5318,2516,1291,0
4906,2497,1343,0
4472,2365,1135,0
4108,2200,839,0
3893,2054,562,0
3838,1909,338,0
3943,1758,153,0
4135,1652,-30,0
4359,1592,-237,0
4568,1518,-421,0
4719,1369,-524,0
4764,1198,-461,0
4685,1089,-279,0
4488,1008,-69,0
4169,957,52,0
3787,868,69,0
3372,848,-5,0
3004,802,-187,0
2700,824,-424,0
2539,829,-588,0
2518,875,-655,0
2646,992,-592,0
2904,1113,-444,0
3256,1187,-243,0
3661,1207,1,0
4086,1174,275,0
4502,1129,572,0
4862,1073,849,0
5145,977,1056,0
5328,846,1153,0
5401,696,1143,0
5374,522,1049,0
5252,354,904,0
5058,203,740,0
4821,71,571,0
4571,-32,432,0
4338,-124,348,0
4126,-202,334,0
3945,-255,362,0
3790,-290,411,0
3657,-305,470,0
3549,-300,532,0
3440,-268,600,0
3330,-230,630,0
3203,-199,636,0
3075,-168,610,0
2936,-160,574,0
2796,-170,519,0
2655,-173,464,0
2519,-150,416,0
2378,-70,373,0
2258,-8,330,0
2176,37,281,0
2122,73,249,0
2088,96,239,0
2073,127,233,0
2102,125,198,0
2167,115,138,0
2242,124,89,0
2332,117,70,0
2449,65,78,0
2584,-41,75,0
2737,-193,123,0
2903,-370,192,0
3068,-530,259,0
3224,-677,343,0
3361,-798,463,0
3467,-865,584,0
3541,-871,669,0
3591,-871,715,0
3612,-879,728,0
3616,-892,734,0
3622,-925,786,0
3627,-959,850,0
3642,-987,899,0
3666,-1015,942,0
3687,-1025,972,0
3686,-1028,978,0
3684,-1055,965,0
3695,-1057,892,0
3732,-1065,831,0
3777,-1052,814,0
3811,-987,824,0
3814,-880,805,0
3773,-762,721,0
3709,-665,573,0
3658,-627,405,0
3560,-574,241,0
3483,-552,101,0
3460,-545,-2,0
3488,-502,-37,0
3567,-407,29,0
3680,-279,183,0
3802,-134,419,0
3881,-2,696,0
3910,105,955,0
3867,178,1137,0
3757,232,1213,0
3609,280,1184,0
3445,276,1148,0
3319,259,1077,0
3262,239,1047,0
3313,251,1085,0
3448,283,1170,0
3682,312,1282,0
3951,339,1378,0
4243,251,1413,0
4545,133,1400,0
4833,-43,1333,0
5186,-261,1144,0
5641,-482,839,0
6158,-653,584,0
6672,-681,558,0
7103,-506,706,0
7440,-171,975,0
7616,227,1227,0
7633,495,1374,0
7488,543,1350,0
7239,383,1191,0
6904,223,963,0
6566,81,765,0
6229,-17,665,0
5945,-133,564,0
5715,-245,406,0
5502,-460,206,0
5290,-721,-56,0
5083,-977,-267,0
4845,-1153,-420,0
4637,-1268,-554,0
4460,-1328,-642,0
4305,-1272,-728,0
4192,-1137,-762,0
4034,-882,-884,0
3796,-560,-1112,0
3529,-266,-1385,0
3309,-61,-1604,0
3170,71,-1663,0
3128,206,-1534,0
3187,395,-1284,0
3375,630,-969,0
3684,877,-636,0
4095,1166,-317,0
4599,1447,91,0
5238,1652,612,0
6014,1786,1215,0
6841,1840,1797,0
7571,1821,2240,0
8122,1712,2402,0
8384,1521,2211,0
8332,1290,1781,0
8057,1033,1241,0
7630,823,719,0
7119,654,308,0
6605,472,45,0
6135,283,-77,0
5732,118,-66,0
5406,2,7,0
5151,-56,64,0
4947,-85,12,0
4768,-112,-90,0
4588,-120,-222,0
4382,-89,-300,0
4140,-66,-351,0
3865,-73,-381,0
3562,-86,-351,0
3230,-81,-277,0
2890,-60,-192,0
2579,-22,-124,0
2326,37,-64,0
2142,123,-4,0
2037,203,66,0
2012,266,136,0
2049,323,237,0
2156,335,350,0
2318,325,463,0
2501,330,604,0
2685,356,749,0
2858,413,899,0
3004,488,1031,0
3129,506,1140,0
3211,471,1189,0
3242,429,1207,0
3227,426,1199,0
3182,471,1174,0
3100,518,1138,0
2993,581,1088,0
2902,621,1033,0
2831,662,990,0
2788,638,961,0
2753,606,960,0
2731,581,970,0
2715,554,999,0
2689,545,1039,0
2645,529,1056,0
2574,508,1077,0
2490,478,1078,0
2396,472,1060,0
2306,485,1028,0
2231,471,982,0
2175,461,957,0
2133,466,994,0
2101,461,1044,0
2081,478,1108,0
2074,496,1184,0
2073,513,1298,0
2084,512,1404,0
2076,520,1471,0
2058,529,1506,0
2042,518,1539,0
2036,495,1577,0
2059,447,1647,0
2100,385,1725,0
2160,326,1800,0
2248,256,1852,0
2341,191,1889,0
2424,113,1901,0
2513,29,1895,0
2609,-76,1878,0
2716,-147,1861,0
2864,-221,1829,0
3046,-266,1827,0
3247,-263,1816,0
3488,-211,1848,0
3736,-131,1934,0
3961,-55,2045,0
4150,-3,2188,0
4303,7,2319,0
4420,-8,2441,0
4503,-42,2546,0
4565,-52,2647,0
4607,-58,2736,0
4613,-40,2796,0
4570,5,2813,0
4466,101,2811,0
4290,224,2787,0
4066,341,2749,0
3786,425,2684,0
3486,481,2581,0
3198,497,2457,0
3026,561,2284,0
3041,700,2121,0
3296,1005,2033,0
3765,1470,2100,0
4403,2002,2284,0
5125,2404,2557,0
5809,2640,2917,0
6335,2720,3220,0
6578,2586,3356,0
6467,2277,3187,0
6091,1900,2759,0
5613,1641,2226,0
5172,1719,1752,0
4924,1990,1437,0
4879,2105,1308,0
4939,1994,1347,0
5030,1855,1522,0
5108,1831,1722,0
5126,1936,1813,0
5067,2053,1754,0
4936,2080,1606,0
4762,2004,1439,0
4562,1902,1274,0
4353,1826,1068,0
4181,1791,809,0
4043,1776,535,0
3972,1715,306,0
3930,1632,165,0
3907,1507,81,0
3874,1339,-9,0
3826,1128,-144,0
3763,879,-307,0
3713,606,-513,0
3682,351,-716,0
3670,138,-868,0
3679,-21,-890,0
3699,-94,-788,0
3726,-67,-572,0
3775,19,-303,0
3832,148,-21,0
3905,275,254,0
3985,390,497,0
4063,479,692,0
4136,559,847,0
4198,605,967,0
4234,628,1037,0
4240,623,1060,0
4235,594,1036,0
4212,560,988,0
4176,531,924,0
4139,467,868,0
4090,375,817,0
4044,278,750,0
4021,172,692,0
4017,50,672,0
4041,-34,663,0
4082,-82,675,0
4141,-100,694,0
4205,-86,736,0
4246,-59,802,0
4273,-22,869,0
4285,5,964,0
4248,32,1052,0
4182,40,1155,0
4080,37,1224,0
3941,45,1245,0
3779,75,1226,0
3601,136,1169,0
3431,210,1107,0
3269,293,1081,0
3123,356,1040,0
2997,379,986,0
2902,382,937,0
2815,396,887,0
2757,396,823,0
2725,414,765,0
2708,429,718,0
2693,422,717,0
2684,400,680,0
2679,364,557,0
2666,299,434,0
2628,245,320,0
2578,158,119,0
2555,10,-78,0
2550,-144,-208,0
2538,-246,-261,0
2556,-309,-257,0
2588,-343,-182,0
2625,-351,-91,0
2673,-363,-11,0
2718,-373,73,0
2757,-381,147,0
2794,-392,198,0
2828,-422,269,0
2845,-435,350,0
2870,-430,429,0
2899,-423,506,0
2929,-408,608,0
2959,-388,722,0
3004,-372,826,0
3050,-350,924,0
3110,-356,1038,0
3159,-373,1115,0
3197,-382,1148,0
3246,-401,1162,0
3288,-433,1162,0
3334,-509,1148,0
3415,-610,1103,0
3526,-711,1059,0
3642,-780,1035,0
3765,-807,1040,0
3876,-795,1033,0
3978,-778,1014,0
4035,-719,928,0
4051,-652,791,0
4023,-578,617,0
3964,-519,468,0
3918,-467,371,0
3875,-373,368,0
3832,-240,456,0
3832,-99,570,0
3868,30,688,0
3899,101,792,0
3930,52,856,0
3940,-87,861,0
3905,-279,815,0
3834,-470,730,0
3729,-646,661,0
3622,-776,607,0
3527,-859,551,0
3478,-869,539,0
3460,-766,559,0
3476,-574,609,0
3553,-373,677,0
3671,-142,750,0
3819,76,843,0
3973,240,931,0
4153,341,1039,0
4340,400,1149,0
4533,408,1250,0
4754,323,1342,0
5005,205,1395,0
5251,89,1343,0
5572,-69,1275,0
5916,-211,1136,0
6261,-355,1000,0
6588,-475,904,0
6811,-456,876,0
6921,-339,992,0
6869,-132,1221,0
6674,32,1454,0
6363,56,1540,0
6010,-110,1400,0
5673,-437,1086,0
5421,-702,759,0
5225,-989,357,0
5169,-1254,-90,0
5152,-1361,-498,0
5146,-1365,-744,0
5137,-1281,-761,0
5121,-1102,-590,0
5113,-955,-275,0
5082,-837,45,0
4953,-645,151,0
4679,-380,-90,0
4310,-169,-600,0
3883,-10,-1208,0
3440,135,-1739,0
2988,306,-2106,0
2579,483,-2231,0
2299,626,-2101,0
2220,633,-1728,0
2385,645,-1068,0
2680,860,-324,0
3119,1155,389,0
3693,1398,962,0
4394,1509,1343,0
5213,1385,1520,0
6139,1074,1513,0
7092,706,1486,0
7974,362,1363,0
8635,131,1168,0
9003,-25,879,0
9068,-149,498,0
8867,-229,106,0
8517,-207,-236,0
8108,-116,-443,0
7697,-5,-457,0
7300,86,-297,0
6929,145,-115,0
6570,191,36,0
6185,251,103,0
5763,334,94,0
5312,420,18,0
4815,499,-99,0
4301,543,-206,0
3744,568,-292,0
3159,588,-310,0
2603,597,-284,0
2114,601,-217,0
1707,630,-111,0
1417,685,45,0
1266,762,235,0
1248,845,430,0
1339,890,607,0
1507,872,733,0
1694,811,804,0
1887,698,835,0
2080,557,833,0
2263,413,826,0
2447,267,831,0
2612,114,853,0
2731,-12,862,0
2808,-96,847,0
2853,-129,806,0
2866,-126,752,0
2854,-101,692,0
2821,-61,619,0
2765,-20,553,0
2688,29,471,0
2593,109,428,0
2490,182,423,0
2407,241,434,0
2347,298,473,0
2309,354,558,0
2296,439,677,0
2294,520,803,0
2302,596,911,0
2307,687,1016,0
2317,759,1082,0
2331,821,1112,0
2350,884,1143,0
2367,936,1182,0
2369,963,1239,0
2357,976,1297,0
2328,951,1375,0
2270,905,1458,0
2216,825,1537,0
2167,713,1625,0
2130,585,1700,0
2106,442,1749,0
2103,293,1766,0
2137,144,1728,0
2220,-15,1652,0
2348,-176,1576,0
2506,-298,1514,0
2680,-390,1486,0
2861,-440,1478,0
3034,-446,1469,0
3182,-402,1456,0
3331,-332,1449,0
3498,-223,1429,0
3696,-81,1416,0
3960,104,1432,0
4324,292,1519,0
4751,433,1719,0
5205,583,1934,0
5649,675,2189,0
6040,711,2523,0
6361,603,2986,0
6545,472,3476,0
6535,345,3902,0
6321,253,4181,0
5965,147,4204,0
5524,87,4047,0
5034,67,3840,0
4548,49,3641,0
4098,27,3389,0
3726,74,3059,0
3513,205,2624,0
3566,507,2072,0
3889,1111,1590,0
4393,2070,1270,0
5088,2829,1242,0
5667,3307,1404,0
5979,3200,1686,0
5986,2521,1927,0
5704,1645,1961,0
5234,1001,1747,0
4817,812,1455,0
4657,1112,1319,0
4848,1444,1302,0
5211,1667,1355,0
5517,1793,1438,0
5607,1872,1506,0
5426,1948,1515,0
5010,2031,1377,0
4471,2105,1116,0
3924,2157,824,0
3487,2145,578,0
3245,2087,421,0
3201,2024,335,0
3360,1938,263,0
3640,1826,181,0
3961,1709,71,0
4268,1617,-40,0
4511,1526,-102,0
4660,1446,-99,0
4687,1369,-74,0
4586,1271,-93,0
4382,1134,-188,0
4115,966,-324,0
3803,789,-534,0
3514,654,-683,0
3265,586,-764,0
3068,617,-787,0
2966,686,-707,0
2987,741,-536,0
3128,820,-278,0
3392,872,20,0
3723,894,325,0
4090,895,634,0
4468,862,899,0
4803,783,1114,0
5061,648,1268,0
5223,467,1340,0
5289,265,1334,0
5262,64,1263,0
5165,-124,1149,0
5015,-292,1037,0
4820,-422,951,0
4613,-483,886,0
4401,-494,845,0
4211,-465,822,0
4039,-423,803,0
3890,-364,800,0
3762,-262,820,0
3653,-127,873,0
3566,11,963,0
3486,129,1075,0
3405,211,1182,0
3318,249,1235,0
3220,243,1241,0
3103,251,1231,0
2971,263,1157,0
2814,287,1043,0
2668,304,925,0
2550,327,799,0
2448,382,697,0
2368,431,615,0
2307,460,548,0
2259,471,501,0
2217,421,423,0
2186,356,245,0
2188,246,50,0
2208,157,-110,0
2271,65,-182,0
2361,-74,-265,0
2471,-212,-305,0
2591,-352,-281,0
2703,-462,-226,0
2801,-543,-158,0
2887,-598,-78,0
2962,-645,-8,0
3029,-667,60,0
3089,-657,138,0
3148,-636,245,0
3196,-585,352,0
3224,-504,415,0
3238,-439,470,0
3244,-420,563,0
3250,-404,630,0
3272,-363,672,0
3270,-318,717,0
3267,-297,758,0
3278,-302,795,0
3301,-334,830,0
3334,-354,868,0
3380,-356,907,0
3437,-315,951,0
3506,-256,980,0
3593,-190,986,0
3676,-126,972,0
3752,-77,934,0
3814,-41,850,0
3834,-27,714,0
3826,-46,540,0
3810,-95,358,0
3794,-133,217,0
3803,-136,154,0
3840,-115,196,0
3914,-61,308,0
4009,22,463,0
4102,89,624,0
4154,112,749,0
4153,66,840,0
4091,-54,910,0
3975,-218,970,0
3825,-365,1033,0
3688,-429,1047,0
3598,-491,1083,0
3576,-500,1087,0
3664,-522,1097,0
3868,-549,1148,0
4145,-590,1237,0
4465,-567,1280,0
4808,-581,1325,0
5165,-618,1357,0
5490,-696,1379,0
5756,-801,1395,0
5945,-915,1416,0
6050,-1049,1413,0
6097,-1194,1305,0
6134,-1342,1062,0
6214,-1486,702,0
6380,-1613,382,0
6557,-1579,263,0
6662,-1311,444,0
6602,-825,846,0
6366,-288,1251,0
6005,84,1431,0
5636,126,1233,0
5386,-124,728,0
5270,-492,154,0
5248,-746,-388,0
5287,-823,-815,0
5347,-791,-1067,0
5362,-743,-1159,0
5384,-746,-1181,0
5364,-778,-1191,0
5317,-823,-1166,0
5218,-796,-1142,0
5089,-654,-1124,0
4833,-320,-1209,0
4446,154,-1346,0
3982,628,-1471,0
3575,927,-1483,0
3329,1032,-1328,0
3237,1056,-979,0
3289,1106,-497,0
3483,1258,25,0
3813,1495,498,0
4274,1745,885,0
4838,1940,1213,0
5451,2024,1443,0
6065,1952,1557,0
6585,1802,1475,0
6917,1639,1240,0
7056,1455,892,0
7018,1251,503,0
6847,1059,167,0
6619,893,-64,0
6377,775,-151,0
6144,715,-134,0
5943,660,-41,0
5761,584,35,0
5582,492,41,0
5374,368,-22,0
5122,220,-147,0
4822,87,-286,0
4498,14,-426,0
4147,37,-499,0
3766,138,-517,0
3381,265,-452,0
3026,340,-325,0
2731,341,-110,0
2502,311,144,0
2341,273,409,0
2264,203,602,0
2262,122,686,0
2311,54,711,0
2400,7,716,0
2516,-25,718,0
2612,-15,732,0
2717,-43,717,0
2809,-98,697,0
2892,-199,673,0
2960,-299,650,0
3025,-384,634,0
3070,-427,638,0
3087,-419,669,0
3097,-396,676,0
3075,-349,678,0
3032,-307,670,0
2969,-267,655,0
2889,-202,643,0
2798,-105,646,0
2717,-38,660,0
2630,67,685,0
2541,180,709,0
2471,293,733,0
2414,382,775,0
2363,472,830,0
2331,561,887,0
2304,630,941,0
2281,693,983,0
2256,745,1006,0
2222,800,1031,0
2205,825,1054,0
2181,828,1078,0
2154,808,1107,0
2134,760,1133,0
2110,688,1185,0
2100,590,1242,0
2088,487,1307,0
2075,395,1351,0
2079,318,1383,0
2103,257,1397,0
2161,186,1373,0
2259,107,1324,0
2386,49,1261,0
2524,-25,1214,0
2659,-82,1173,0
2773,-110,1137,0
2876,-101,1093,0
2953,-39,1045,0
3043,68,986,0
3171,216,927,0
3355,398,883,0
3606,601,836,0
3937,831,828,0
4362,1024,926,0
4831,1101,1207,0
5278,1023,1648,0
5655,880,2170,0
5938,788,2656,0
6146,804,2973,0
6367,916,3011,0
6577,1038,2976,0
6816,1030,3017,0
7008,987,3180,0
7100,1086,3301,0
7092,1445,3155,0
7027,1989,2715,0
6904,2443,2178,0
6678,2522,1724,0
6299,2090,1511,0
5717,1311,1548,0
5005,350,1801,0
4247,-472,2240,0
3627,-1120,2670,0
3195,-1324,3148,0
3056,-1151,3584,0
3188,-821,3863,0
3326,-589,3776,0
3240,-393,3258,0
2940,-21,2483,0
2578,414,1540,0
2285,683,693,0
2112,923,213,0
2066,1221,152,0
2106,1476,356,0
2200,1693,625,0
2356,1914,851,0
2567,2161,944,0
2842,2427,905,0
3193,2635,817,0
3604,2775,751,0
4028,2808,738,0
4393,2681,736,0
4631,2455,642,0
4774,2160,448,0
4858,1823,218,0
4897,1537,-76,0
4940,1270,-391,0
4968,1048,-712,0
4977,879,-992,0
4977,753,-1172,0
5010,655,-1181,0
5074,588,-978,0
5161,538,-579,0
5234,527,-73,0
5260,544,440,0
5214,564,879,0
5106,579,1189,0
4926,618,1387,0
4694,628,1490,0
4425,592,1485,0
4139,514,1372,0
3849,394,1148,0
3574,273,903,0
3344,170,661,0
3166,85,464,0
3054,42,298,0
3024,27,225,0
3061,29,239,0
3161,42,292,0
3296,52,397,0
3436,31,513,0
3576,23,603,0
3706,36,678,0
3818,54,743,0
3903,77,786,0
3957,93,799,0
3977,101,805,0
3963,112,795,0
3926,122,775,0
3875,142,731,0
3812,171,661,0
3730,225,578,0
3643,277,478,0
3565,321,414,0
3506,371,425,0
3457,407,461,0
3427,417,508,0
3396,399,564,0
3354,378,620,0
3315,332,633,0
3249,288,596,0
3187,228,556,0
3114,178,553,0
3040,135,572,0
2982,94,566,0
2932,51,563,0
2910,2,586,0
2909,-63,620,0
2909,-143,651,0
2900,-229,676,0
2872,-326,678,0
2833,-411,646,0
2776,-496,616,0
2699,-581,611,0
2644,-649,640,0
2589,-669,692,0
2543,-655,724,0
2515,-631,751,0
2493,-600,759,0
2470,-565,729,0
2462,-539,658,0
2480,-546,562,0
2531,-585,460,0
2616,-639,378,0
2736,-698,368,0
2879,-763,414,0
3040,-796,511,0
3191,-795,635,0
3316,-775,742,0
3419,-778,809,0
3486,-817,835,0
3525,-869,851,0
3532,-883,861,0
3516,-867,837,0
3485,-845,777,0
3442,-801,680,0
3405,-746,553,0
3380,-681,437,0
3374,-587,355,0
3375,-464,326,0
3400,-320,349,0
3448,-161,422,0
3503,8,543,0
3554,199,687,0
3593,376,819,0
3623,481,891,0
3607,472,879,0
3541,315,817,0
3436,69,720,0
3335,-205,648,0
3227,-345,666,0
3148,-373,774,0
3133,-353,882,0
3207,-312,1005,0
3362,-284,1123,0
3566,-289,1175,0
3793,-368,1106,0
4083,-530,825,0
4450,-739,333,0
4872,-958,-237,0
5348,-1148,-699,0
5869,-1200,-787,0
6410,-1036,-451,0
6855,-511,202,0
7135,251,786,0
7199,996,1108,0
7046,1393,1091,0
6726,1294,888,0
6313,938,602,0
5909,507,231,0
5608,198,-302,0
5484,48,-902,0
5477,-10,-1320,0
5563,6,-1384,0
5751,-11,-1239,0
5933,26,-1066,0
6057,140,-919,0
6089,294,-756,0
6070,415,-596,0
6088,428,-485,0
6218,378,-411,0
6439,368,-295,0
6690,506,-115,0
6898,800,77,0
7035,1164,236,0
7109,1507,354,0
7064,1764,468,0
6933,1871,550,0
6729,1822,565,0
6482,1660,474,0
6217,1434,279,0
5960,1207,34,0
5735,979,-160,0
5561,749,-219,0
5439,565,-116,0
5391,442,115,0
5445,327,398,0
5570,223,661,0
5719,99,809,0
5811,42,763,0
5821,68,518,0
5732,181,222,0
5546,354,-2,0
5314,518,-56,0
5055,641,18,0
4776,719,144,0
4478,800,295,0
4188,849,423,0
3928,849,498,0
3713,780,527,0
3552,654,540,0
3442,513,566,0
3374,365,609,0
3331,230,671,0
3298,93,757,0
3271,-30,822,0
3243,-150,854,0
3200,-271,841,0
3144,-381,764,0
3091,-484,657,0
3046,-579,561,0
2992,-649,502,0
2914,-691,488,0
2807,-703,490,0
2674,-684,492,0
2524,-637,513,0
2368,-577,536,0
2220,-506,539,0
2089,-417,525,0
1985,-299,499,0
1916,-167,502,0
1864,-31,525,0
1833,118,551,0
1828,216,558,0
1850,312,592,0
1880,396,645,0
1902,466,721,0
1914,553,809,0
1907,617,883,0
1874,683,942,0
1842,730,994,0
1816,755,1005,0
1808,757,988,0
1794,756,962,0
1780,746,952,0
1773,732,987,0
1770,695,1084,0
1759,619,1236,0
1762,497,1427,0
1786,375,1625,0
1843,258,1798,0
1919,155,1921,0
2018,49,1981,0
2123,-66,1956,0
2238,-178,1836,0
2344,-281,1625,0
2413,-346,1342,0
2470,-402,1025,0
2524,-449,744,0
2613,-441,558,0
2739,-327,469,0
2938,-128,469,0
3212,127,537,0
3556,412,640,0
3924,696,810,0
4355,955,1131,0
4847,1172,1607,0
5345,1410,2149,0
5780,1667,2666,0
6187,1820,3087,0
6580,1760,3383,0
6882,1529,3615,0
7046,1183,3785,0
7041,797,3918,0
6828,412,4016,0
6451,51,4010,0
5965,-212,3908,0
5436,-360,3704,0
4902,-368,3395,0
4470,-298,3007,0
4155,-138,2635,0
4010,126,2325,0
3986,501,2106,0
4006,825,1981,0
3989,925,2075,0
3788,647,2245,0
3446,75,2298,0
2991,-365,2079,0
2597,-285,1642,0
2500,155,1270,0
2727,719,989,0
3220,1246,749,0
3868,1758,594,0
4559,2230,501,0
5193,2649,363,0
5751,3014,77,0
6323,3203,-86,0
6796,3219,150,0
7084,3067,649,0
7145,2754,1211,0
7009,2382,1543,0
6756,2039,1542,0
6435,1737,1286,0
6096,1467,899,0
5770,1218,430,0
5471,998,-96,0
5216,785,-654,0
4982,557,-1148,0
4722,364,-1485,0
4420,210,-1581,0
4064,102,-1396,0
3656,75,-991,0
3213,107,-549,0
2769,204,-174,0
2413,298,37,0
2158,396,114,0
2050,456,111,0
2068,488,69,0
2164,515,41,0
2324,519,10,0
2528,525,8,0
2776,535,42,0
3065,546,115,0
3385,542,238,0
3720,501,363,0
4060,406,464,0
4411,261,541,0
4746,103,568,0
5052,-57,538,0
5306,-194,470,0
5493,-299,399,0
5593,-345,350,0
5607,-354,328,0
5524,-336,319,0
5357,-279,310,0
5116,-188,317,0
4823,-60,385,0
4492,119,474,0
4152,344,576,0
3800,559,681,0
3449,738,767,0
3123,894,784,0
2824,1010,749,0
2576,1050,664,0
2386,1040,554,0
2256,994,465,0
2175,944,360,0
2142,890,234,0
2131,832,126,0
2131,779,72,0
2129,706,82,0
2103,655,87,0
2082,584,68,0
2077,494,43,0
2088,399,23,0
2116,294,12,0
2166,161,32,0
2246,6,53,0
2320,-138,76,0
2395,-259,101,0
2470,-357,114,0
2548,-449,142,0
2628,-515,177,0
2700,-559,232,0
2767,-582,288,0
2837,-596,323,0
2912,-598,344,0
2995,-580,382,0
3087,-580,403,0
3189,-608,433,0
3292,-639,470,0
3394,-647,517,0
3480,-640,588,0
3558,-630,636,0
3626,-599,623,0
3693,-559,571,0
3755,-508,522,0
3823,-442,464,0
3886,-377,410,0
3935,-330,317,0
3964,-304,175,0
4003,-307,19,0
4051,-328,-113,0
4101,-352,-156,0
4156,-383,-104,0
4208,-403,26,0
4270,-410,206,0
4335,-412,415,0
4413,-469,625,0
4411,-522,767,0
4372,-661,839,0
4255,-878,851,0
4079,-1104,849,0
3865,-1266,872,0
3681,-1313,892,0
3571,-1222,932,0
3585,-1054,995,0
3731,-890,1102,0
3959,-744,1242,0
4248,-609,1381,0
4576,-542,1462,0
4891,-530,1461,0
5195,-646,1403,0
5493,-761,1319,0
5752,-903,1185,0
5976,-961,970,0
6178,-1098,655,0
6389,-1285,381,0
6562,-1366,261,0
6669,-1215,365,0
6660,-817,679,0
6522,-316,1059,0
6311,50,1315,0
6121,60,1260,0
6022,-265,866,0
6001,-658,342,0
5983,-890,-213,0
5983,-1029,-662,0
5955,-1049,-1015,0
5878,-1005,-1231,0
5774,-970,-1282,0
5618,-926,-1263,0
5494,-863,-1092,0
5415,-793,-837,0
5212,-470,-767,0
4866,-29,-1006,0
4451,350,-1429,0
4015,550,-1861,0
3630,620,-2128,0
3331,629,-2112,0
3123,713,-1863,0
2990,932,-1475,0
2961,1178,-1074,0
3058,1392,-767,0
3287,1509,-524,0
3653,1500,-361,0
4151,1453,-196,0
4796,1370,42,0
5580,1262,402,0
6388,1163,761,0
7120,1061,979,0
7679,940,982,0
7996,778,789,0
8087,568,446,0
7991,380,67,0
7777,220,-245,0
7486,97,-446,0
7177,-27,-545,0
6870,-151,-567,0
6584,-273,-560,0
6313,-348,-547,0
6028,-363,-556,0
5717,-330,-586,0
5367,-263,-603,0
4993,-183,-574,0
4589,-119,-546,0
4173,-66,-499,0
3745,-38,-446,0
3299,-23,-374,0
2857,10,-258,0
2443,69,-92,0
2089,168,96,0
1823,283,286,0
1641,394,440,0
1545,473,536,0
1512,520,579,0
1542,528,573,0
1642,498,555,0
1786,449,530,0
1959,386,509,0
2156,313,505,0
2362,228,506,0
2578,149,529,0
2735,119,618,0
2873,60,665,0
2976,-10,702,0
3037,-81,733,0
3078,-156,734,0
3092,-220,736,0
3056,-265,740,0
2984,-288,732,0
2885,-276,700,0
2773,-223,641,0
2653,-161,581,0
2544,-115,531,0
2441,-69,509,0
2338,-25,500,0
2252,25,510,0
2176,75,533,0
2106,126,551,0
2042,191,582,0
1991,277,605,0
1942,368,636,0
1894,452,668,0
1860,530,710,0
1841,607,749,0
1836,665,797,0
1823,699,860,0
1813,724,967,0
1819,748,1115,0
1859,753,1272,0
1898,757,1408,0
1970,731,1511,0
2063,703,1559,0
2185,633,1548,0
2327,550,1493,0
2491,458,1426,0
2680,380,1360,0
2876,343,1294,0
3078,331,1225,0
3272,357,1142,0
3456,404,1046,0
3628,452,960,0
3803,499,900,0
4023,488,919,0
4318,446,1024,0
4718,371,1263,0
5194,300,1629,0
5656,308,2022,0
6065,467,2278,0
6422,699,2410,0
6761,884,2455,0
6984,965,2523,0
7022,943,2590,0
6804,832,2714,0
6386,678,2792,0
5808,552,2797,0
5175,429,2811,0
4551,364,2821,0
3990,348,2825,0
3525,353,2832,0
3189,428,2792,0
3024,565,2647,0
3125,816,2406,0
3493,1210,2244,0
4006,1689,2260,0
4506,2013,2404,0
4815,1990,2446,0
4879,1690,2284,0
4722,1284,1932,0
4454,1038,1522,0
4240,1207,1138,0
4284,1856,745,0
4722,2544,334,0
5395,2878,62,0
6001,2957,44,0
6422,2905,330,0
6657,2867,856,0
6781,2965,1545,0
6779,3152,2129,0
6654,3208,2397,0
6398,3062,2288,0
6044,2777,1792,0
5625,2387,1107,0
5199,1981,461,0
4801,1630,-66,0
4462,1280,-491,0
4157,932,-865,0
3895,617,-1231,0
3666,377,-1606,0
3480,147,-1947,0
3309,-92,-2167,0
3176,-378,-2175,0
3079,-634,-2028,0
3012,-744,-1671,0
2969,-711,-1172,0
2958,-571,-680,0
2997,-393,-292,0
3097,-210,-25,0
3232,-75,166,0
3376,31,316,0
3535,104,409,0
3684,167,458,0
3828,212,478,0
3962,238,481,0
4100,255,488,0
4243,250,520,0
4390,222,552,0
4548,145,588,0
4703,40,635,0
4828,-57,644,0
4919,-134,606,0
4956,-152,532,0
4945,-148,461,0
4879,-116,404,0
4771,-54,372,0
4642,16,347,0
4488,66,360,0
4327,100,453,0
4156,167,603,0
3976,277,769,0
3783,433,935,0
3594,612,1040,0
3385,730,1101,0
3156,822,1078,0
2928,855,989,0
2720,829,851,0
2537,775,709,0
2384,713,580,0
2276,648,461,0
2221,583,309,0
2230,511,158,0
2267,403,81,0
2312,284,41,0
2369,162,19,0
2435,47,19,0
2494,-82,19,0
2553,-187,7,0
2602,-279,-26,0
2640,-366,-71,0
2677,-470,-71,0
2693,-604,-89,0
2722,-758,-84,0
2753,-895,-50,0
2775,-987,28,0
2794,-1054,113,0
2813,-1079,171,0
2823,-1059,205,0
2826,-1035,231,0
2843,-1022,227,0
2881,-1024,237,0
2926,-1036,279,0
2976,-1037,332,0
3030,-1021,389,0
3092,-998,437,0
3163,-952,455,0
3241,-891,457,0
3319,-809,447,0
3408,-709,472,0
3525,-635,505,0
3649,-573,585,0
3771,-525,681,0
3885,-490,737,0
3995,-477,722,0
4110,-471,672,0
4236,-502,625,0
4360,-548,599,0
4487,-623,589,0
4597,-718,596,0
4679,-820,628,0
4710,-930,706,0
4679,-1027,810,0
4556,-1107,921,0
4356,-1159,1023,0
4037,-1229,1138,0
3646,-1319,1189,0
3232,-1387,1167,0
2844,-1364,1090,0
2550,-1245,977,0
2415,-995,862,0
2533,-734,818,0
2902,-536,905,0
3425,-343,1128,0
4007,-135,1393,0
4603,30,1616,0
5104,149,1636,0
5584,85,1684,0
5952,-20,1660,0
6243,-120,1655,0
6404,-198,1687,0
6426,-251,1752,0
6285,-250,1781,0
6060,-307,1748,0
5817,-465,1563,0
5683,-752,1123,0
5779,-1186,545,0
6081,-1526,42,0
6475,-1561,-127,0
6794,-1150,117,0
6941,-503,609,0
6897,59,1032,0
6676,319,1160,0
6340,280,945,0
5894,123,462,0
5421,17,-264,0
4938,-128,-947,0
4547,-417,-1591,0
4271,-734,-2054,0
4112,-939,-2334,0
4053,-999,-2419,0
4074,-967,-2354,0
4152,-776,-2147,0
4329,-544,-1689,0
4457,-137,-1245,0
4507,342,-854,0
4537,742,-474,0
4587,991,-111,0
4668,1096,235,0
4752,1167,474,0
4855,1266,575,0
4995,1381,491,0
5208,1412,301,0
5525,1368,164,0
5917,1320,160,0
6346,1282,304,0
6776,1210,534,0
7144,1084,710,0
7372,921,741,0
7461,664,562,0
7373,482,336,0
7155,319,69,0
6855,146,-213,0
6517,-33,-425,0
6176,-218,-543,0
5843,-396,-577,0
5513,-511,-559,0
5181,-564,-514,0
4846,-583,-457,0
4513,-564,-374,0
4190,-495,-262,0
3884,-408,-148,0
3597,-324,-32,0
3327,-237,52,0
3082,-180,97,0
2871,-127,103,0
2669,-41,103,0
2519,3,178,0
2412,16,305,0
2346,31,480,0
2336,41,610,0
2344,64,658,0
2397,63,658,0
2485,53,657,0
2589,51,671,0
2702,77,697,0
2804,135,701,0
2907,206,706,0
2979,288,737,0
2998,386,783,0
3005,423,814,0
2985,452,818,0
2936,456,811,0
2870,484,818,0
2786,519,808,0
2693,560,775,0
2598,620,743,0
2510,677,712,0
2428,708,694,0
2354,718,684,0
2292,717,726,0
2228,727,757,0
2183,729,790,0
2141,712,820,0
2111,673,843,0
2097,628,836,0
2084,557,815,0
2061,473,778,0
2032,358,745,0
2006,222,719,0
1986,73,726,0
1966,-110,778,0
1950,-267,871,0
1916,-385,1002,0
1890,-458,1138,0
1857,-475,1250,0
1838,-460,1297,0
1837,-392,1259,0
1852,-302,1182,0
1904,-227,1075,0
1993,-165,960,0
2117,-121,872,0
2271,-66,835,0
2442,-10,856,0
2606,64,914,0
2747,158,951,0
2848,318,950,0
2979,436,867,0
3130,593,734,0
3340,748,606,0
3627,904,552,0
3982,1012,715,0
4427,1021,1105,0
4898,1043,1658,0
5382,1182,2190,0
5854,1387,2619,0
6290,1521,2887,0
6640,1434,3049,0
6841,1200,3085,0
6832,865,3134,0
6647,511,3153,0
6314,198,3213,0
5870,-26,3298,0
5416,-171,3353,0
4930,-222,3446,0
4465,-297,3512,0
4058,-399,3535,0
3680,-484,3541,0
3326,-591,3510,0
3005,-707,3375,0
2745,-795,3143,0
2611,-777,2764,0
2735,-566,2262,0
3144,-45,1901,0
3731,752,1878,0
4313,1517,2063,0
4835,1864,2222,0
5176,1887,2235,0
5268,1785,1896,0
5149,1751,1168,0
4988,1833,252,0
4955,1996,-409,0
5066,2243,-461,0
5304,2568,-131,0
5637,2842,408,0
5938,2987,1030,0
6093,3026,1525,0
6059,2983,1754,0
5792,2864,1689,0
5378,2596,1405,0
4935,2271,1092,0
4557,1984,798,0
4331,1727,480,0
4305,1436,171,0
4410,1181,-147,0
4548,984,-425,0
4673,774,-660,0
4720,590,-759,0
4675,465,-758,0
4523,348,-673,0
4290,234,-517,0
3968,152,-329,0
3596,103,-170,0
3218,89,-124,0
2892,82,-189,0
2662,103,-304,0
2573,166,-362,0
2624,258,-326,0
2774,341,-227,0
2996,382,-108,0
3271,412,20,0
3569,442,177,0
3883,452,343,0
4207,456,520,0
4524,436,685,0
4811,373,796,0
5054,261,834,0
5241,103,811,0
5358,-90,750,0
5380,-270,674,0
5320,-409,581,0
5178,-456,497,0
4973,-484,417,0
4723,-472,365,0
4435,-421,360,0
4129,-318,420,0
3825,-203,483,0
3539,-72,522,0
3258,76,551,0
3022,165,549,0
2841,220,553,0
2712,275,571,0
2613,328,631,0
2532,391,688,0
2450,472,716,0
2342,572,657,0
2220,660,514,0
2104,682,351,0
2001,673,180,0
1920,624,77,0
1871,537,35,0
1870,430,4,0
1937,294,-16,0
2056,170,-21,0
2220,53,7,0
2387,-55,33,0
2539,-191,69,0
2678,-336,103,0
2798,-486,131,0
2899,-642,140,0
2985,-790,143,0
3036,-907,133,0
3081,-1012,122,0
3112,-1098,118,0
3125,-1156,148,0
3125,-1184,193,0
3115,-1190,230,0
3074,-1150,249,0
3013,-1075,236,0
2955,-975,213,0
2939,-882,238,0
2905,-762,265,0
2929,-685,313,0
3025,-632,374,0
3182,-561,455,0
3394,-469,527,0
3649,-356,583,0
3923,-254,586,0
4222,-157,540,0
4515,-100,485,0
4785,-99,449,0
5031,-154,475,0
5170,-193,570,0
5240,-235,709,0
5235,-241,862,0
5114,-192,1011,0
4873,-135,1171,0
4558,-150,1324,0
4175,-244,1463,0
3744,-448,1504,0
3333,-715,1438,0
3031,-965,1282,0
2904,-1066,1072,0
3047,-1019,990,0
3424,-901,1132,0
3928,-770,1414,0
4488,-645,1734,0
5011,-557,1923,0
5434,-556,1888,0
5762,-743,1624,0
6166,-1174,1270,0
6509,-1396,638,0
6983,-1849,10,0
7410,-2175,-423,0
7669,-2083,-324,0
7629,-1470,178,0
7230,-668,773,0
6576,-4,1159,0
5867,261,1114,0
5291,91,640,0
4921,-332,22,0
4589,-452,-658,0
4376,-401,-1162,0
4246,-300,-1514,0
4179,-274,-1670,0
4169,-334,-1607,0
4206,-402,-1408,0
4232,-420,-1270,0
4221,-324,-1315,0
4092,-66,-1573,0
3901,235,-1859,0
3770,442,-1954,0
3691,555,-1679,0
3664,652,-1224,0
3661,874,-719,0
3672,1257,-349,0
3730,1614,-62,0
3921,1816,37,0
4306,1777,27,0
4909,1548,11,0
5752,1196,87,0
6765,875,401,0
7805,630,777,0
8738,492,1013,0
9445,441,975,0
9836,354,688,0
9859,161,266,0
9542,-77,-201,0
9021,-253,-562,0
8415,-330,-792,0
7785,-340,-892,0
7145,-325,-939,0
6532,-331,-951,0
5953,-311,-973,0
5415,-269,-1001,0
4923,-246,-1010,0
4465,-242,-1030,0
4004,-244,-1010,0
3540,-220,-890,0
3111,-174,-633,0
2726,-95,-322,0
2381,36,-16,0
2115,165,239,0
1945,252,438,0
1884,272,583,0
1926,252,681,0
2037,206,752,0
2184,170,793,0
2336,156,803,0
2484,139,783,0
2610,137,781,0
2732,132,777,0
2861,102,790,0
2986,78,853,0
3094,43,895,0
3149,24,929,0
3174,24,911,0
3172,17,867,0
3140,19,807,0
3079,27,734,0
2990,39,674,0
2893,31,617,0
2793,17,579,0
2685,20,562,0
2574,35,552,0
2473,59,575,0
2369,76,600,0
2261,88,629,0
2137,109,635,0
2016,114,621,0
1896,129,601,0
1788,157,585,0
1692,190,568,0
1603,224,562,0
1524,250,560,0
1443,277,568,0
1381,295,580,0
1339,302,610,0
1324,278,664,0
1318,244,738,0
1317,231,829,0
1324,211,915,0
1322,192,1012,0
1334,162,1090,0
1399,131,1130,0
1531,95,1136,0
1725,73,1107,0
1977,66,1040,0
2254,91,999,0
2562,118,965,0
2843,169,967,0
3081,249,1041,0
3255,371,1168,0
3379,527,1248,0
3465,675,1234,0
3543,743,1145,0
3635,718,940,0
3750,635,685,0
3958,534,544,0
4276,485,634,0
4699,553,932,0
5194,808,1302,0
5732,1149,1614,0
6272,1365,1875,0
6684,1362,2180,0
6947,1080,2406,0
6957,684,2617,0
6705,297,2905,0
6308,24,3117,0
5834,-147,3202,0
5363,-278,3191,0
4925,-379,3137,0
4555,-482,3066,0
4245,-552,3082,0
4010,-576,3162,0
3834,-568,3219,0
3827,-518,3125,0
4059,-323,3016,0
4522,66,3001,0
5058,565,3026,0
5518,893,3017,0
5749,806,2793,0
5641,474,2312,0
5241,297,1570,0
4776,518,660,0
4490,1172,-271,0
4476,2075,-924,0
4777,2856,-1094,0
5252,3369,-803,0
5762,3665,-217,0
6178,3711,661,0
6359,3558,1652,0
6279,3350,2339,0
6019,3102,2570,0
5618,2788,2479,0
5135,2454,2155,0
4677,2125,1707,0
4375,1805,1320,0
4240,1455,946,0
4189,1174,506,0
4226,884,26,0
4270,681,-456,0
4359,352,-918,0
4314,-20,-1323,0
4177,-466,-1523,0
3912,-821,-1496,0
3562,-1012,-1307,0
3192,-1079,-1077,0
2869,-1072,-917,0
2651,-1012,-846,0
2563,-883,-799,0
2592,-670,-734,0
2750,-450,-671,0
2974,-222,-607,0
3240,7,-507,0
3519,257,-354,0
3798,505,-146,0
4071,742,139,0
4329,944,461,0
4559,1092,775,0
4754,1175,1049,0
4895,1183,1238,0
4974,1143,1320,0
4991,1082,1278,0
4943,1032,1155,0
4842,956,987,0
4702,859,820,0
4539,749,702,0
4369,665,678,0
4211,595,651,0
4078,535,710,0
3954,518,773,0
3839,522,853,0
3720,555,961,0
3591,592,1063,0
3470,606,1085,0
3327,630,1036,0
3154,676,928,0
2984,688,823,0
2823,644,690,0
2657,559,573,0
2508,445,467,0
2377,388,423,0
2240,289,302,0
2143,155,159,0
2066,56,18,0
2014,-41,-102,0
2003,-159,-178,0
2039,-284,-174,0
2113,-433,-81,0
2209,-651,37,0
2305,-831,182,0
2373,-933,319,0
2417,-991,412,0
2414,-986,440,0
2414,-975,424,0
2428,-971,381,0
2483,-988,355,0
2580,-1002,367,0
2714,-1002,418,0
2880,-987,491,0
3078,-965,610,0
3271,-914,731,0
3458,-851,836,0
3630,-800,918,0
3781,-767,975,0
3895,-754,1013,0
3984,-737,999,0
4051,-700,935,0
4104,-640,867,0
4120,-467,791,0
4107,-243,678,0
4065,-18,502,0
4007,181,286,0
3968,320,84,0
3954,403,-74,0
3968,436,-111,0
4004,439,-4,0
4053,442,215,0
4091,448,489,0
4102,444,750,0
4075,416,927,0
3992,289,1019,0
3832,50,1023,0
3617,-281,990,0
3381,-624,966,0
3195,-904,939,0
3092,-1030,936,0
3114,-1022,985,0
3275,-928,1085,0
3547,-786,1246,0
3868,-635,1408,0
4216,-451,1556,0
4560,-311,1615,0
4953,-299,1675,0
5321,-258,1664,0
5710,-353,1627,0
6064,-502,1539,0
6409,-754,1331,0
6752,-1088,1055,0
7075,-1495,632,0
7353,-1891,305,0
7431,-1998,288,0
7221,-1707,553,0
6747,-1132,904,0
6159,-610,1052,0
5650,-454,843,0
5361,-669,367,0
5339,-974,-74,0
5499,-1068,-234,0
5724,-862,-85,0
5926,-510,182,0
6048,-218,339,0
6045,-54,258,0
5890,-3,2,0
5584,-18,-323,0
5223,-107,-560,0
4846,-167,-754,0
4487,-191,-945,0
4164,-166,-1121,0
3895,-140,-1292,0
3746,-161,-1349,0
3612,-173,-1403,0
3446,-46,-1452,0
3314,111,-1435,0
3248,279,-1310,0
3283,424,-1055,0
3428,568,-722,0
3659,721,-354,0
3960,932,-42,0
4336,1166,214,0
4768,1368,359,0
5260,1493,435,0
5814,1515,526,0
6409,1403,665,0
6950,1262,818,0
7362,1100,893,0
7591,964,854,0
7630,812,696,0
7509,670,464,0
7269,548,244,0
6930,503,88,0
6541,448,-35,0
6123,393,-123,0
5724,312,-156,0
5362,203,-139,0
5054,82,-100,0
4785,-19,-72,0
4552,-86,-67,0
4335,-122,-82,0
4130,-96,-111,0
3913,-34,-139,0
3687,40,-133,0
3441,110,-84,0
3208,156,-15,0
3001,163,65,0
2818,128,160,0
2678,49,233,0
2580,-38,284,0
2522,-110,324,0
2492,-148,391,0
2487,-166,451,0
2491,-166,510,0
2518,-192,539,0
2553,-223,543,0
2602,-244,535,0
2658,-225,530,0
2724,-187,538,0
2787,-151,548,0
2832,-115,569,0
2870,-99,555,0
2864,-67,532,0
2818,-10,501,0
2766,29,467,0
2671,93,443,0
2560,159,432,0
2435,236,425,0
2313,327,441,0
2208,421,486,0
2112,520,542,0
2026,608,602,0
1968,687,664,0
1928,744,728,0
1897,788,798,0
1865,831,870,0
1850,863,922,0
1836,871,950,0
1824,871,959,0
1807,865,964,0
1793,855,968,0
1799,839,982,0
1814,798,996,0
1824,738,1026,0
1841,649,1058,0
1856,535,1115,0
1873,408,1188,0
1884,287,1251,0
1910,175,1284,0
1995,60,1302,0
2081,-14,1294,0
2224,-76,1253,0
2383,-80,1226,0
2550,-56,1200,0
2754,-63,1176,0
2997,-118,1172,0
3251,-157,1213,0
3473,-160,1266,0
3666,-139,1288,0
3826,-84,1242,0
3964,-15,1124,0
4101,58,946,0
4267,111,771,0
4483,144,743,0
4759,181,960,0
5042,370,1368,0
5393,628,1777,0
5773,969,2178,0
6153,1212,2540,0
6487,1308,2796,0
6672,1185,3020,0
6689,880,3085,0
6462,552,3020,0
6042,270,2908,0
5534,68,2770,0
4996,-72,2679,0
4514,-170,2710,0
4097,-190,2755,0
3818,-134,2715,0
3748,44,2635,0
3910,327,2627,0
4267,622,2700,0
4702,839,2760,0
5101,885,2710,0
5359,698,2492,0
5454,341,2155,0
5309,93,1736,0
4983,204,1297,0
4655,678,874,0
4440,1339,526,0
4357,1933,221,0
4390,2268,5,0
4505,2336,64,0
4648,2300,426,0
4773,2308,940,0
4837,2328,1456,0
4820,2315,1815,0
4768,2429,1854,0
4770,2739,1654,0
4844,3028,1414,0
4970,3136,1220,0
5092,3007,1172,0
5167,2721,1203,0
5145,2410,1111,0
5066,2104,751,0
4953,1803,176,0
4849,1420,-445,0
4716,927,-994,0
4569,473,-1271,0
4351,157,-1323,0
4115,-59,-1269,0
3828,-147,-1267,0
3510,-133,-1342,0
3217,-126,-1432,0
2980,-120,-1410,0
2831,-114,-1225,0
2782,-43,-892,0
2877,102,-536,0
3085,280,-205,0
3375,394,67,0
3694,449,312,0
4009,471,536,0
4294,498,736,0
4539,543,899,0
4733,564,1022,0
4859,539,1081,0
4921,466,1059,0
4912,382,974,0
4860,287,853,0
4777,216,716,0
4671,149,594,0
4558,78,507,0
4442,-1,459,0
4321,-71,458,0
4212,-105,502,0
4113,-87,563,0
4013,-28,642,0
3904,55,729,0
3791,157,826,0
3662,261,890,0
3523,340,900,0
3377,386,887,0
3234,387,852,0
3073,412,832,0
2905,482,779,0
2739,530,671,0
2596,523,536,0
2474,508,414,0
2381,502,298,0
2309,470,209,0
2270,406,144,0
2249,327,121,0
2251,225,106,0
2271,127,96,0
2318,5,95,0
2399,-151,144,0
2496,-295,220,0
2579,-431,319,0
2651,-529,412,0
2700,-597,474,0
2731,-667,485,0
2758,-748,447,0
2778,-831,410,0
2808,-887,392,0
2861,-914,386,0
2931,-915,423,0
3019,-929,474,0
3130,-939,526,0
3230,-943,595,0
3323,-961,665,0
3410,-1003,754,0
3455,-1047,814,0
3477,-1078,841,0
3470,-1093,857,0
3436,-1107,860,0
3380,-1103,859,0
3323,-1061,832,0
3312,-1003,776,0
3350,-944,717,0
3443,-880,680,0
3553,-764,654,0
3703,-632,604,0
3884,-511,515,0
4066,-419,415,0
4251,-366,341,0
4433,-344,326,0
4557,-306,383,0
4616,-294,487,0
4603,-315,607,0
4540,-338,718,0
4431,-347,820,0
4281,-372,915,0
4096,-470,969,0
3856,-663,961,0
3589,-883,917,0
3334,-997,884,0
3163,-981,885,0
3169,-828,914,0
3395,-650,996,0
3778,-450,1173,0
4235,-232,1404,0
4701,-14,1518,0
5172,2,1634,0
5583,-50,1690,0
5935,-154,1565,0
6290,-386,1257,0
6632,-670,746,0
6990,-1014,130,0
7325,-1199,-303,0
7515,-1001,-188,0
7443,-340,403,0
7102,480,1106,0
6588,1089,1559,0
6080,1133,1479,0
5717,635,1009,0
5529,-28,430,0
5505,-565,-12,0
5575,-847,-231,0
5652,-930,-347,0
5682,-938,-458,0
5587,-962,-609,0
5440,-1056,-752,0
5241,-1125,-886,0
4993,-1092,-1022,0
4732,-992,-1117,0
4505,-873,-1144,0
4313,-729,-1173,0
4090,-472,-1249,0
3836,-156,-1335,0
3656,112,-1324,0
3549,343,-1169,0
3525,556,-903,0
3576,778,-605,0
3707,993,-380,0
3926,1208,-256,0
4253,1379,-182,0
4674,1470,-88,0
5193,1473,57,0
5743,1444,295,0
6297,1382,607,0
6826,1236,941,0
7207,1124,1176,0
7396,1032,1240,0
7402,924,1096,0
7263,807,770,0
7021,691,390,0
6735,569,49,0
6434,427,-207,0
6135,288,-371,0
5858,166,-422,0
5589,85,-383,0
5330,48,-312,0
5060,59,-257,0
4778,90,-251,0
4485,168,-304,0
4199,252,-384,0
3909,328,-439,0
3621,393,-470,0
3323,447,-435,0
3037,473,-369,0
2786,443,-286,0
2581,391,-190,0
2427,308,-76,0
2320,226,49,0
2270,126,128,0
2245,48,162,0
2242,-19,188,0
2253,-42,228,0
2311,-61,267,0
2398,-33,317,0
2515,31,413,0
2650,97,507,0
2785,159,589,0
2906,182,646,0
3032,144,645,0
3118,103,638,0
3166,70,638,0
3175,33,603,0
3145,52,631,0
3107,58,619,0
3053,101,607,0
2983,157,600,0
2904,217,609,0
2833,286,630,0
2758,365,672,0
2709,426,706,0
2670,474,741,0
2638,511,790,0
2617,543,849,0
2608,560,935,0
2597,570,1038,0
2588,565,1152,0
2570,560,1246,0
2549,536,1291,0
2521,491,1316,0
2489,414,1341,0
2456,314,1385,0
2414,222,1441,0
2385,137,1487,0
2359,52,1484,0
2335,-45,1402,0
2337,-122,1215,0
2377,-171,1005,0
2446,-213,864,0
2547,-272,844,0
2664,-302,959,0
2741,-246,1164,0
2818,-205,1385,0
2884,-125,1540,0
2958,-29,1598,0
3056,45,1533,0
3161,109,1380,0
3270,166,1158,0
3365,233,883,0
3448,321,562,0
3539,418,241,0
3674,506,26,0
3828,604,65,0
3966,805,315,0
4108,1152,621,0
4346,1391,976,0
4627,1408,1347,0
4867,1282,1689,0
5051,1023,1973,0
5129,718,2258,0
5084,417,2551,0
4937,149,2786,0
4698,-38,2955,0
4418,-138,2910,0
4202,-107,2748,0
4186,95,2651,0
4382,517,2729,0
4724,993,2768,0
5088,1330,2607,0
5278,1516,2170,0
5377,1382,1432,0
5345,991,532,0
5144,604,-346,0
4913,544,-1015,0
4853,978,-1341,0
5016,1678,-1385,0
5394,2247,-1344,0
5907,2380,-1112,0
6363,2098,-472,0
6606,1633,440,0
6619,1170,1245,0
6472,913,1699,0
6303,995,1807,0
6161,1178,1659,0
6028,1183,1382,0
5809,1140,1149,0
5563,874,885,0
5234,514,452,0
4830,202,-112,0
4477,-101,-576,0
4095,-282,-995,0
3730,-386,-1259,0
3457,-433,-1306,0
3263,-367,-1190,0
3172,-304,-1042,0
3171,-247,-892,0
3274,-181,-716,0
3451,-54,-481,0
3646,158,-233,0
3814,398,-23,0
3935,619,105,0
3993,780,155,0
4007,873,177,0
4006,916,222,0
4024,928,299,0
4066,961,431,0
4150,1010,618,0
4264,1036,818,0
4404,1036,1013,0
4545,1002,1142,0
4663,942,1157,0
4761,830,1083,0
4829,679,974,0
4852,523,860,0
4836,379,761,0
4779,262,672,0
4684,183,630,0
4573,134,609,0
4437,110,631,0
4292,65,590,0
4167,41,536,0
4060,65,563,0
3973,132,697,0
3893,224,867,0
3800,302,973,0
3697,366,971,0
3548,436,998,0
3352,491,892,0
3176,468,789,0
2993,460,659,0
2834,420,539,0
2717,350,444,0
2654,287,414,0
2636,220,366,0
2660,152,366,0
2734,74,385,0
2826,-6,402,0
2928,-83,404,0
3039,-170,391,0
3137,-245,375,0
3226,-340,356,0
3296,-426,334,0
3347,-491,330,0
3388,-530,329,0
3418,-550,340,0
3455,-574,361,0
3493,-600,397,0
3527,-631,444,0
3569,-674,504,0
3628,-723,543,0
3683,-774,574,0
3721,-836,621,0
3749,-897,670,0
3748,-931,710,0
3738,-940,721,0
3714,-934,712,0
3660,-908,725,0
3623,-874,742,0
3580,-803,759,0
3539,-721,792,0
3491,-626,826,0
3456,-546,849,0
3429,-486,857,0
3424,-433,861,0
3428,-364,868,0
3439,-284,846,0
3457,-228,828,0
3473,-190,828,0
3484,-160,837,0
3498,-130,838,0
3528,-100,830,0
3577,-65,810,0
3647,-26,785,0
3742,26,754,0
3850,91,723,0
3974,136,677,0
4131,179,643,0
4309,204,604,0
4510,221,561,0
4714,232,517,0
4882,227,463,0
5039,177,427,0
5141,139,410,0
5189,104,438,0
5158,112,479,0
5071,116,525,0
4925,154,601,0
4716,215,691,0
4517,232,758,0
4303,268,841,0
4118,248,879,0
3949,181,868,0
3820,91,791,0
3697,19,738,0
3593,-45,684,0
3500,-84,617,0
3420,-72,563,0
3369,-83,518,0
3336,-77,464,0
3323,-58,417,0
3342,-56,344,0
3377,-23,282,0
3441,25,251,0
3534,92,263,0
3654,162,285,0
3824,240,334,0
4012,322,413,0
4224,405,513,0
4450,493,615,0
4652,572,710,0
4833,619,796,0
4985,631,859,0
5098,596,881,0
5185,508,857,0
5242,392,793,0
5300,241,751,0
5313,176,618,0
5351,9,443,0
5364,-180,279,0
5350,-356,168,0
5318,-527,131,0
5226,-645,72,0
5127,-832,-20,0
4991,-986,-163,0
4817,-1096,-392,0
4638,-1183,-695,0
4450,-1216,-1009,0
4281,-1175,-1226,0
4150,-1004,-1242,0
4074,-685,-1047,0
4052,-292,-723,0
4164,-19,-295,0
4320,226,53,0
4471,427,271,0
4593,570,365,0
4674,647,374,0
4707,661,328,0
4709,643,269,0
4669,614,187,0
4615,591,178,0
4556,623,215,0
4504,679,253,0
4457,735,310,0
4416,779,377,0
4356,811,420,0
4262,827,415,0
4145,822,340,0
4006,795,228,0
3848,747,103,0
3700,669,-26,0
3569,602,-106,0
3480,552,-119,0
3451,479,-109,0
3466,407,-64,0
3516,334,-13,0
3598,253,22,0
3710,173,42,0
3839,138,85,0
3992,146,157,0
4136,229,278,0
4285,298,357,0
4416,349,365,0
4568,379,293,0
4682,420,197,0
4751,430,102,0
4793,441,37,0
4759,503,4,0
4722,549,-27,0
4630,627,-64,0
4492,708,-110,0
4330,752,-149,0
4163,762,-151,0
3986,821,-70,0
3828,912,89,0
3707,968,236,0
3637,1014,406,0
3600,1042,573,0
3597,1044,719,0
3616,1026,840,0
3644,989,939,0
3672,931,1001,0
3701,869,1007,0
3731,785,984,0
3757,712,935,0
3778,658,880,0
3810,587,841,0
3846,550,828,0
3878,518,816,0
3912,473,818,0
3963,420,832,0
4002,386,832,0
4025,355,825,0
4024,312,819,0
4007,274,820,0
3967,251,821,0
3913,255,809,0
3833,285,750,0
3723,286,659,0
3594,259,579,0
3454,248,575,0
3317,278,627,0
3205,312,712,0
3131,333,816,0
3101,360,912,0
3108,388,970,0
3134,385,993,0
3176,366,1028,0
3216,346,1082,0
3260,332,1152,0
3305,319,1205,0
3345,306,1224,0
3383,280,1226,0
3460,210,1227,0
3521,218,1255,0
3571,218,1293,0
3645,192,1348,0
3729,164,1422,0
3831,117,1499,0
3951,60,1578,0
4040,33,1659,0
4119,-22,1704,0
4171,-79,1743,0
4197,-128,1766,0
4203,-159,1781,0
4180,-176,1759,0
4139,-195,1707,0
4079,-218,1621,0
4012,-229,1552,0
3930,-229,1499,0
3853,-223,1459,0
3775,-207,1447,0
3708,-190,1451,0
3639,-168,1441,0
3565,-144,1403,0
3500,-129,1323,0
3473,-105,1242,0
3483,-32,1177,0
3486,75,1065,0
3461,105,904,0
3419,66,740,0
3400,64,683,0
3403,165,740,0
3412,276,818,0
3419,336,842,0
3456,378,844,0
3545,427,907,0
3693,519,1076,0
3893,632,1329,0
4101,719,1601,0
4311,763,1828,0
4524,750,1999,0
4706,701,2135,0
4850,587,2196,0
4957,395,2200,0
5019,190,2165,0
5027,-15,2093,0
4974,-192,1964,0
4851,-344,1788,0
4666,-468,1584,0
4432,-549,1375,0
4177,-552,1166,0
3916,-485,933,0
3679,-371,698,0
3475,-245,482,0
3337,-133,353,0
3251,-21,349,0
3221,78,417,0
3244,155,517,0
3317,204,627,0
3437,248,743,0
3599,296,844,0
3784,363,913,0
3975,403,927,0
4147,406,883,0
4271,405,783,0
4332,438,661,0
4337,500,532,0
4317,571,449,0
4280,661,410,0
4255,742,397,0
4256,802,403,0
4270,835,454,0
4293,874,600,0
4316,921,801,0
4318,972,967,0
4273,986,1042,0
4183,933,1047,0
4058,844,1068,0
3920,773,1067,0
3782,719,1006,0
3653,660,866,0
3519,612,666,0
3393,550,471,0
3292,421,342,0
3233,285,273,0
3224,150,266,0
3258,41,258,0
3317,-27,209,0
3399,-103,121,0
3496,-169,67,0
3598,-212,75,0
3718,-264,157,0
3851,-268,230,0
3976,-245,219,0
4095,-252,173,0
4212,-267,150,0
4290,-274,214,0
4337,-264,290,0
4370,-242,348,0
4376,-194,389,0
4374,-150,398,0
4334,-142,422,0
4275,-163,385,0
4206,-122,309,0
4119,-78,257,0
4036,-45,222,0
3975,-25,201,0
3945,-3,209,0
3940,34,244,0
3955,64,294,0
3988,66,369,0
4045,53,467,0
4111,44,573,0
4168,67,643,0
4206,93,656,0
4221,99,616,0
4231,88,545,0
4199,51,531,0
4152,30,502,0
4116,20,475,0
4096,55,446,0
4067,86,447,0
4036,61,418,0
4017,40,388,0
4030,26,381,0
4050,35,422,0
4075,51,469,0
4092,40,485,0
4097,28,472,0
4096,7,432,0
4099,-4,383,0
4058,-15,391,0
4023,-16,388,0
4002,0,394,0
3978,16,414,0
3943,-12,425,0
3919,-52,443,0
3901,-66,448,0
3887,-69,434,0
3879,-88,403,0
3853,-139,348,0
3842,-196,296,0
3848,-214,278,0
3859,-191,287,0
3858,-159,299,0
3866,-150,304,0
3872,-143,310,0
3879,-133,307,0
3899,-119,292,0
3925,-96,289,0
3953,-48,308,0
3964,-27,309,0
3990,-30,286,0
3993,-18,280,0
3993,-9,275,0
3994,-10,253,0
4003,-10,229,0
4016,-3,229,0
4032,37,227,0
4032,61,223,0
4052,49,217,0
4067,53,221,0
4069,72,215,0
4069,90,196,0
4070,89,162,0
4067,69,120,0
4065,47,78,0
4076,20,45,0
4090,12,-13,0
4115,5,-32,0
4171,46,-15,0
4211,122,-5,0
4242,187,-14,0
4260,218,-28,0
4273,249,-26,0
4276,307,-10,0
4272,374,29,0
4255,455,75,0
4234,540,118,0
4219,608,124,0
4208,672,164,0
4177,736,157,0
4172,821,173,0
4184,876,206,0
4206,911,240,0
4241,913,256,0
4293,907,278,0
4330,910,323,0
4359,902,353,0
4382,866,364,0
4399,801,369,0
4381,760,349,0
4348,706,305,0
4295,640,235,0
4203,583,133,0
4144,472,55,0
4087,351,24,0
4044,253,45,0
4011,194,65,0
4021,90,83,0
4014,2,122,0
4015,-52,144,0
4024,-129,131,0
4020,-223,114,0
4014,-309,105,0
3995,-373,116,0
3978,-440,125,0
3962,-449,143,0
3929,-432,145,0
3914,-453,83,0
3894,-459,34,0
3869,-446,-3,0
3853,-420,-17,0
3857,-378,-7,0
3886,-327,24,0
3936,-267,85,0
4005,-195,149,0
4071,-130,209,0
4135,-72,243,0
4200,-34,252,0
4246,-1,244,0
4275,32,236,0
4282,68,231,0
4275,106,241,0
4245,147,249,0
4201,191,250,0
4151,227,222,0
4103,261,193,0
4060,291,171,0
4036,336,179,0
4021,387,204,0
4014,416,225,0
4021,418,229,0
4029,413,217,0
4037,412,213,0
4046,387,198,0
4053,345,186,0
4048,309,152,0
4073,196,158,0
4015,271,103,0
4007,240,64,0
3995,225,37,0
3976,208,34,0
3968,175,43,0
3971,144,50,0
3982,120,52,0
4003,109,54,0
4033,100,46,0
4065,86,38,0
4090,69,45,0
4121,62,53,0
4153,64,73,0
4182,79,90,0
4195,97,105,0
4211,124,116,0
4224,141,137,0
4227,190,138,0
4221,225,146,0
4217,241,113,0
4222,246,95,0
4209,246,108,0
4196,254,146,0
4166,290,171,0
4134,291,180,0
4108,269,190,0
4078,264,191,0
4055,249,184,0
4038,218,190,0
4028,184,158,0
4033,135,143,0
4046,82,140,0
4054,56,148,0
4077,8,153,0
4069,27,149,0
4090,-19,135,0
4102,-43,106,0
4105,-51,104,0
4112,-45,131,0
4124,-56,170,0
4131,-20,182,0
4147,-1,174,0
4156,-3,167,0
4164,2,181,0
4169,22,202,0
4176,47,221,0
4171,77,232,0
4162,91,236,0
4144,95,249,0
4126,107,277,0
4117,115,334,0
4083,175,345,0
4091,158,324,0
4086,143,308,0
4080,136,313,0
4076,146,327,0
4072,157,336,0
4066,161,335,0
4068,164,333,0
4068,171,330,0
4063,177,331,0
4062,191,330,0
4060,200,323,0
4065,201,318,0
4067,200,309,0
4070,195,299,0
4073,194,289,0
4071,202,281,0
4066,206,273,0
4062,210,264,0
4061,218,262,0
4058,219,258,0
4051,222,259,0
4049,225,263,0
4054,215,282,0
4052,229,298,0
4033,272,276,0
4034,246,263,0
4034,227,273,0
4035,222,305,0
4050,219,334,0
4065,193,354,0
4083,189,381,0
4095,206,393,0
4100,188,386,0
4100,147,362,0
4087,108,341,0
4056,93,322,0
4014,109,291,0
3977,117,267,0
3942,111,267,0
3924,108,288,0
3919,113,322,0
3922,120,353,0
3932,130,368,0
3938,141,368,0
3940,158,360,0
3935,178,343,0
3929,197,319,0
3926,226,312,0
3938,248,310,0
3958,262,327,0
3991,277,342,0
4030,285,358,0
4065,291,372,0
4092,296,380,0
4108,303,381,0
4118,303,373,0
4112,300,355,0
4106,296,343,0
4092,303,328,0
4078,304,314,0
4066,300,311,0
4058,303,313,0
4052,303,322,0
4050,297,332,0
4052,284,335,0
4056,267,334,0
4059,248,331,0
4063,228,327,0
4066,210,317,0
4066,193,307,0
4066,170,305,0
4059,150,296,0
4050,144,281,0
4045,152,272,0
4038,158,282,0
4030,159,289,0
4027,151,298,0
4017,142,300,0
4009,138,284,0
4006,136,272,0
4014,126,267,0
4025,118,281,0
4046,120,302,0
4062,119,320,0
4081,118,329,0
4091,115,332,0
4096,116,332,0
4098,114,328,0
4098,113,323,0
4096,111,314,0
4086,117,303,0
4075,123,295,0
4060,133,291,0
4055,144,287,0
4052,158,284,0
4052,169,282,0
4053,181,281,0
4060,197,289,0
4064,210,292,0
4071,222,294,0
4079,233,293,0
4089,242,304,0
4095,246,308,0
4099,253,315,0
4101,252,318,0
4100,243,321,0
4100,237,312,0
4090,230,298,0
4078,223,293,0
4066,215,299,0
4059,214,309,0
4057,213,318,0
4056,209,317,0
4054,205,317,0
4052,202,307,0
4050,196,304,0
4048,188,297,0
4047,178,293,0
4044,173,288,0
4046,169,289,0
4043,171,292,0
4040,169,296,0
4040,168,306,0
4042,171,308,0
4044,174,313,0
4040,176,315,0
4041,175,314,0
4044,170,314,0
4045,170,314,0
4055,170,314,0
4059,169,316,0
4060,172,319,0
4075,167,321,0
4071,188,327,0
4076,191,328,0
4077,197,321,0
4080,201,318,0
4080,203,323,0
4080,209,324,0
4075,209,323,0
4067,208,320,0
4053,214,309,0
4044,213,307,0
4038,213,306,0
4036,211,319,0
4040,211,334,0
4044,214,354,0
4052,209,365,0
4051,207,373,0
4059,203,376,0
4058,196,373,0
4059,187,366,0
4060,185,353,0
4059,184,343,0
4058,188,340,0
4060,188,345,0
4063,188,353,0
4054,194,356,0
4049,197,358,0
4043,199,362,0
4037,206,363,0
4026,209,360,0
4023,209,359,0
4024,209,359,0
4027,205,358,0
4036,199,355,0
4046,197,352,0
4059,191,346,0
4066,190,340,0
4073,187,341,0
4078,183,339,0
4082,189,334,0
4082,189,338,0
4081,190,331,0
4076,189,328,0
4067,190,328,0
4062,187,327,0
4048,190,329,0
4032,193,325,0
4021,190,318,0
4009,191,315,0
4001,190,317,0
3998,185,331,0
3991,190,341,0
3993,195,333,0
3992,194,320,0
3992,193,319,0
3993,195,323,0
3999,201,328,0
4006,204,333,0
4016,205,335,0
4020,208,329,0
4025,207,322,0
4030,206,320,0
4030,211,328,0
4034,218,333,0
4040,219,337,0
4049,218,334,0
4061,214,327,0
4070,207,318,0
4071,194,309,0
4071,180,298,0
4072,194,293,0
4069,207,286,0
4072,200,293,0
4079,195,302,0
4090,190,314,0
4100,184,325,0
4105,181,328,0
4108,172,325,0
4105,164,320,0
4103,163,309,0
4094,161,301,0
4085,158,304,0
4081,151,309,0
4081,150,317,0
4081,145,323,0
4086,145,332,0
4092,147,333,0
4091,150,331,0
4081,153,328,0
4074,151,323,0
4064,157,316,0
4055,171,316,0
4044,181,317,0
4040,188,323,0
4037,193,324,0
4034,196,323,0
4035,202,326,0
4040,204,331,0
4042,205,336,0
4046,206,337,0
4048,208,335,0
4049,213,331,0
4055,211,330,0
4064,211,325,0
4070,212,323,0
4077,215,321,0
4082,217,319,0
4078,216,316,0
4069,216,315,0
4055,217,310,0
4043,213,304,0
4034,211,302,0
4025,208,312,0
4026,208,322,0
4031,207,329,0
4038,204,330,0
4047,201,330,0
4058,198,328,0
4066,194,322,0
4074,197,314,0
4078,196,308,0
4086,194,305,0
4092,194,304,0
4093,192,308,0
4092,193,306,0
4082,193,306,0
4072,193,305,0
4058,193,298,0
4044,195,292,0
4030,196,295,0
4023,199,303,0
4018,202,307,0
4022,201,310,0
4028,198,315,0
4038,196,323,0
4045,192,315,0
4047,189,310,0
4052,190,308,0
4058,190,310,0
4063,187,312,0
4068,189,319,0
4076,187,328,0
4077,191,331,0
4078,189,328,0
4077,184,320,0
4074,189,315,0
4069,189,312,0
4063,192,306,0
4061,193,304,0
4061,190,302,0
4065,193,299,0
4068,194,295,0
4076,200,295,0
4079,199,299,0
4081,206,295,0
4082,210,294,0
4088,216,294,0
4091,221,293,0
4090,223,295,0
4086,228,296,0
4080,231,296,0
4077,231,294,0
4071,228,293,0
4064,224,288,0
4058,222,285,0
4053,217,286,0
4049,216,285,0
4043,209,283,0
4043,204,286,0
4043,200,296,0
4046,194,297,0
4049,191,297,0
4053,187,301,0
4052,184,299,0
4058,184,299,0
4063,182,297,0
4063,177,300,0
4062,181,302,0
4062,182,301,0
4062,181,300,0
4064,182,299,0
4064,185,300,0
4064,185,298,0
4063,188,296,0
4060,190,295,0
4063,193,299,0
4055,197,303,0
4049,203,301,0
4047,206,298,0
4048,209,295,0
4050,211,293,0
4049,215,294,0
4059,220,293,0
4070,221,297,0
4075,223,297,0
4080,224,299,0
4081,224,298,0
4085,224,298,0
4086,226,300,0
4087,229,295,0
4083,231,296,0
4085,231,296,0
4082,233,296,0
4082,236,300,0
4077,233,302,0
4072,232,306,0
4066,229,306,0
4063,227,306,0
4063,227,307,0
4057,226,312,0
4053,225,318,0
4052,224,322,0
4051,226,328,0
4048,225,324,0
4050,222,325,0
4056,222,323,0
4057,226,324,0
4058,226,326,0
4058,224,334,0
4063,224,341,0
4058,222,346,0
4054,221,353,0
4056,214,359,0
4052,211,357,0
4053,211,359,0
4053,208,363,0
4054,201,361,0
4057,196,364,0
4056,192,362,0
4055,192,360,0
4058,190,356,0
4054,188,353,0
4052,187,349,0
4052,185,348,0
4050,183,350,0
4046,185,349,0
4045,187,350,0
4043,190,353,0
4042,191,358,0
4043,189,359,0
4042,192,362,0
4041,197,364,0
4043,198,366,0
4042,201,366,0
4044,207,369,0
4044,209,371,0
4047,208,373,0
4053,212,374,0
4060,214,382,0
4061,217,386,0
4064,217,388,0
4066,216,388,0
4067,218,386,0
4067,216,384,0
4064,213,384,0
4062,212,384,0
4062,209,386,0
4063,209,386,0
4058,207,386,0
4057,207,385,0
4061,202,387,0
4060,203,389,0
4060,205,390,0
4062,203,395,0
4065,204,401,0
4069,202,406,0
4074,200,410,0
4072,196,408,0
4066,191,407,0
4062,189,405,0
4055,185,403,0
4048,185,402,0
4039,181,400,0
4028,181,401,0
4022,180,402,0
4023,182,406,0
4018,182,407,0
4016,182,404,0
4018,181,399,0
4026,181,393,0
4033,178,388,0
4034,180,386,0
4040,181,389,0
4048,182,393,0
4049,176,391,0
4048,168,386,0
4043,169,380,0
4040,180,378,0
4039,199,379,0
4038,220,391,0
4045,245,413,0
4053,260,434,0
4068,259,444,0
4084,239,436,0
4092,217,417,0
4096,205,407,0
4091,196,401,0
4082,183,394,0
4062,178,395,0
4037,180,398,0
4010,190,404,0
3991,199,414,0
3978,213,428,0
3970,223,449,0
3973,232,466,0
3980,227,464,0
3993,213,456,0
4005,196,435,0
4018,184,425,0
4028,186,428,0
4029,202,444,0
4033,227,456,0
4029,248,466,0
4020,273,472,0
4014,287,482,0
4010,298,491,0
4013,307,490,0
4023,305,491,0
4029,290,491,0
4038,268,487,0
4054,243,480,0
4064,212,470,0
4066,198,463,0
4061,188,458,0
4052,188,452,0
4031,196,452,0
4008,208,448,0
3993,218,445,0
3979,223,447,0
3978,239,436,0
3976,234,426,0
3982,225,423,0
3999,217,424,0
4014,211,429,0
4036,206,435,0
4054,201,440,0
4069,197,445,0
4073,198,448,0
4075,200,445,0
4071,199,437,0
4069,203,440,0
4061,210,441,0
4054,217,443,0
4053,221,447,0
4059,225,454,0
4064,231,460,0
4066,236,466,0
4069,238,468,0
4064,240,475,0
4059,243,475,0
4053,242,474,0
4049,242,476,0
4043,236,478,0
4043,232,472,0
4041,228,474,0
4039,226,476,0
4037,224,477,0
4038,225,480,0
4035,219,482,0
4030,212,487,0
4024,207,482,0
4016,199,477,0
4015,195,477,0
4009,190,479,0
4008,190,481,0
4012,189,484,0
4015,185,483,0
4019,187,485,0
4025,189,491,0
4031,190,497,0
4037,191,499,0
4040,190,497,0
4037,188,494,0
4040,189,484,0
4034,183,476,0
4030,184,472,0
4027,184,467,0
4022,191,466,0
4020,198,466,0
4020,201,467,0
4025,202,467,0
4030,202,465,0
4033,205,461,0
4032,203,458,0
4034,202,456,0
4034,206,456,0
4035,211,460,0
4033,213,460,0
4037,212,460,0
4041,210,457,0
4044,211,460,0
4049,214,460,0
4054,220,463,0
4058,222,461,0
4065,226,461,0
4067,229,459,0
4065,234,462,0
4063,236,461,0
4060,237,456,0
4056,240,449,0
4053,244,452,0
4049,252,450,0
4047,253,451,0
4042,256,454,0
4042,258,456,0
4040,257,463,0
4042,247,466,0
4042,242,471,0
4040,233,473,0
4037,227,470,0
4036,220,470,0
4035,214,460,0
4035,207,451,0
4035,203,448,0
4035,201,444,0
4027,196,445,0
4032,197,452,0
4034,195,461,0
4029,191,470,0
4021,185,473,0
4015,184,477,0
4010,189,479,0
4006,193,479,0
4006,195,477,0
4009,191,474,0
4013,187,468,0
4020,181,463,0
4032,180,459,0
4036,179,456,0
4028,176,455,0
4027,180,452,0
4027,177,448,0
4030,181,444,0
4033,182,441,0
4036,181,433,0
4038,187,437,0
4041,190,439,0
4041,191,440,0
4045,193,439,0
4048,197,438,0
4050,198,440,0
4058,197,441,0
4060,205,446,0
4065,208,451,0
4069,208,446,0
4069,207,445,0
4070,214,449,0
4069,222,450,0
4059,224,449,0
4057,226,451,0
4050,228,449,0
4043,233,453,0
4038,237,456,0
4033,237,457,0
4030,236,462,0
4029,232,459,0
4028,231,456,0
4026,227,451,0
4026,223,450,0
4023,221,449,0
4024,223,448,0
4029,219,445,0
4028,215,442,0
4028,212,439,0
4026,210,439,0
4022,210,436,0
4017,211,434,0
4017,214,426,0
4018,216,425,0
4017,216,422,0
4023,216,424,0
4024,218,423,0
4024,220,427,0
4028,218,422,0
4029,216,415,0
4030,216,407,0
4026,214,405,0
4027,212,401,0
4029,217,402,0
4032,219,402,0
4036,214,402,0
4036,218,408,0
4038,224,414,0
4036,221,413,0
4036,217,412,0
4035,211,408,0
4030,206,408,0
4030,205,404,0
4031,199,398,0
4034,194,395,0
4036,195,394,0
4036,191,390,0
4041,183,384,0
4043,178,376,0
4050,177,369,0
4060,181,366,0
4069,189,362,0
4076,200,362,0
4086,217,360,0
4090,237,364,0
4092,260,367,0
4089,276,371,0
4089,292,375,0
4087,309,377,0
4084,322,384,0
4082,335,395,0
4079,343,407,0
4078,344,410,0
4077,338,413,0
4076,330,411,0
4074,325,408,0
4071,311,405,0
4073,304,407,0
4068,298,405,0
4066,287,402,0
4057,279,399,0
4046,276,393,0
4036,272,394,0
4024,272,392,0
4016,265,393,0
4014,260,389,0
4016,258,389,0
4018,255,390,0
4023,253,390,0
4026,250,394,0
4029,248,395,0
4031,244,395,0
4034,241,395,0
4036,238,396,0
4035,233,394,0
4042,234,397,0
4042,236,397,0
4043,239,397,0
4045,243,395,0
4044,246,393,0
4044,245,389,0
4041,248,383,0
4040,247,382,0
4036,251,385,0
4040,253,385,0
4042,255,385,0
4048,253,385,0
4052,251,385,0
4052,250,383,0
4050,250,380,0
4047,247,379,0
4043,244,376,0
4039,240,373,0
4038,235,377,0
4034,229,384,0
4029,228,384,0
4023,229,383,0
4022,230,372,0
4025,230,358,0
4024,227,353,0
4026,221,354,0
4034,220,359,0
4038,217,366,0
4040,220,372,0
4042,220,370,0
4046,220,366,0
4053,218,363,0
4053,221,362,0
4054,223,362,0
4053,229,357,0
4051,232,352,0
4047,237,345,0
4047,242,339,0
4050,247,339,0
4059,251,339,0
4061,252,343,0
4065,252,350,0
4073,253,357,0
4077,249,359,0
4082,244,358,0
4078,240,351,0
4075,238,345,0
4071,242,345,0
4059,251,349,0
4057,250,351,0
4049,249,351,0
4049,251,351,0
4047,253,348,0
4041,257,354,0
4037,251,358,0
4028,235,364,0
4017,240,356,0
4015,255,333,0
4014,253,314,0
4016,241,300,0
4021,232,301,0
4029,226,310,0
4041,225,325,0
4055,220,343,0
4067,215,351,0
4082,216,352,0
4089,217,350,0
4094,207,343,0
4092,195,326,0
4088,191,321,0
4083,202,318,0
4079,208,319,0
4072,212,322,0
4071,214,320,0
4062,217,323,0
4056,221,325,0
4047,224,326,0
4046,225,325,0
4043,227,327,0
4045,225,329,0
4055,221,331,0
4065,218,338,0
4073,210,343,0
4082,202,353,0
4090,192,353,0
4095,187,354,0
4097,183,353,0
4097,181,351,0
4091,179,351,0
4083,178,352,0
4075,179,348,0
4070,179,343,0
4068,181,340,0
4059,182,333,0
4054,183,327,0
4046,185,326,0
4039,188,322,0
4033,190,321,0
4032,193,317,0
4028,198,307,0
4022,199,297,0
4026,199,290,0
4025,203,297,0
4032,210,315,0
4042,215,334,0
4058,212,343,0
4065,210,346,0
4068,210,338,0
4066,211,329,0
4063,211,324,0
4063,214,323,0
4060,217,328,0
4062,217,333,0
4064,219,338,0
4070,220,341,0
4073,221,340,0
4073,222,340,0
4074,224,337,0
4074,221,332,0
4072,214,323,0
4071,211,316,0
4070,210,312,0
4067,205,306,0
4059,208,305,0
4051,206,305,0
4049,200,309,0
4055,197,312,0
4062,201,322,0
4069,201,330,0
4074,197,329,0
4076,197,330,0
4079,197,332,0
4076,197,328,0
4073,202,329,0
4069,203,330,0
4060,207,330,0
4054,211,331,0
4045,218,334,0
4039,223,336,0
4030,222,333,0
4023,227,332,0
4015,231,330,0
4012,231,336,0
4013,233,331,0
4021,235,330,0
4030,232,329,0
4044,232,328,0
4058,231,329,0
4073,226,330,0
4081,229,336,0
4090,230,340,0
4094,230,340,0
4090,229,336,0
4084,230,332,0
4078,227,326,0
4075,233,320,0
4068,229,312,0
4063,225,313,0
4055,226,320,0
4052,225,326,0
4051,221,324,0
4046,216,327,0
4048,218,331,0
4047,217,336,0
4052,212,335,0
4053,208,333,0
4061,203,330,0
4064,204,333,0
4062,207,339,0
4066,209,335,0
4063,209,331,0
4060,210,327,0
4054,216,327,0
4050,220,333,0
4048,221,330,0
4048,224,332,0
4047,228,334,0
4053,230,338,0
4050,232,341,0
4051,235,342,0
4052,237,344,0
4052,234,343,0
4055,231,348,0
4056,234,350,0
4054,233,350,0
4058,233,350,0
4057,231,349,0
4057,233,350,0
4061,232,349,0
4066,226,351,0
4067,226,347,0
4067,224,348,0
4068,226,353,0
4066,225,352,0
4060,226,351,0
4059,227,351,0
4059,223,349,0
4057,219,347,0
4054,224,344,0
4055,221,342,0
4056,219,342,0
4060,220,342,0
4061,219,345,0
4064,222,347,0
4067,221,350,0
4069,223,351,0
4072,224,357,0
4073,229,359,0
4064,224,359,0
4061,223,361,0
4054,222,366,0
4050,210,367,0
4037,201,363,0
4031,200,355,0
4025,205,346,0
4023,203,345,0
4031,198,347,0
4036,198,355,0
4041,195,364,0
4051,193,367,0
4056,191,368,0
4058,190,364,0
4056,190,357,0
4051,192,355,0
4043,196,350,0
4037,196,358,0
4038,199,367,0
4037,195,370,0
4039,199,375,0
4043,202,380,0
4041,203,379,0
4045,203,377,0
4039,204,371,0
4038,204,368,0
4040,207,367,0
4043,209,365,0
4044,211,366,0
4041,214,365,0
4041,214,366,0
4043,220,367,0
4041,223,367,0
4042,225,364,0
4045,226,358,0
4043,225,355,0
4046,226,353,0
4051,226,347,0
4056,228,344,0
4062,232,344,0
4062,233,347,0
4063,232,348,0
4065,233,350,0
4066,230,353,0
4063,229,358,0
4062,226,360,0
4065,221,364,0
4068,218,369,0
4071,216,370,0
4070,209,368,0
4069,203,367,0
4066,199,366,0
4068,198,365,0
4068,194,360,0
4064,193,359,0
4063,191,360,0
4058,187,363,0
4055,185,366,0
4050,181,365,0
4045,179,365,0
4040,178,373,0
4033,175,374,0
4032,177,372,0
4035,178,373,0
4039,177,370,0
4040,174,369,0
4038,173,367,0
4035,174,371,0
4032,180,367,0
4028,181,365,0
4027,174,358,0
4027,178,355,0
4030,184,352,0
4034,193,355,0
4037,199,358,0
4040,205,360,0
4044,210,365,0
4041,211,365,0
4042,215,366,0
4041,221,365,0
4048,223,367,0
4052,228,366,0
4061,230,368,0
4070,236,368,0
4083,232,370,0
4091,230,368,0
4091,228,365,0
4089,228,357,0
4084,225,347,0
4072,221,340,0
4062,221,335,0
4054,220,330,0
4051,217,331,0
4045,210,331,0
4043,210,333,0
4040,215,338,0
4039,213,344,0
4039,216,349,0
4042,217,348,0
4042,218,348,0
4048,219,349,0
4054,219,357,0
4056,219,358,0
4061,220,358,0
4065,220,359,0
4061,225,360,0
4061,221,359,0
4062,223,357,0
4061,222,354,0
4059,219,345,0
4055,220,341,0
4053,224,341,0
4050,226,348,0
4050,226,356,0
4049,219,348,0
4054,220,350,0
4054,221,354,0
4062,216,359,0
4066,211,358,0
4072,207,360,0
4074,207,365,0
4073,205,366,0
4071,203,363,0
4069,201,362,0
4066,200,357,0
4058,197,355,0
4050,195,355,0
4043,196,357,0
4036,192,363,0
4033,187,360,0
4033,188,364,0
4033,189,368,0
4031,190,369,0
4033,187,368,0
4037,187,372,0
4042,190,378,0
4045,195,383,0
4050,194,383,0
4054,198,384,0
4060,198,381,0
4066,200,386,0
4067,204,381,0
4063,206,374,0
4059,206,369,0
4052,209,364,0
4045,213,356,0
4040,217,351,0
4034,221,348,0
4029,222,344,0
4029,223,343,0
4032,227,349,0
4037,229,355,0
4042,230,354,0
4056,229,355,0
4064,232,356,0
4070,229,356,0
4077,231,351,0
4085,230,352,0
4093,232,356,0
4096,234,358,0
4098,236,361,0
4095,234,365,0
4085,234,366,0
4076,229,364,0
4061,227,360,0
4049,225,358,0
4038,222,360,0
4030,220,366,0
4024,216,366,0
4021,215,363,0
4019,211,367,0
4017,209,368,0
4020,205,372,0
4028,197,372,0
4032,199,373,0
4039,195,371,0
4048,193,372,0
4049,191,374,0
4055,189,374,0
4054,193,377,0
4054,191,372,0
4051,196,369,0
4051,202,365,0
4049,206,367,0
4049,206,367,0
4059,208,373,0
4060,208,376,0
4061,208,377,0
4059,209,377,0
4061,211,379,0
4053,212,379,0
4051,214,376,0
4050,215,376,0
4054,216,374,0
4055,217,373,0
4058,216,371,0
4056,218,371,0
4054,218,375,0
4054,215,372,0
4054,212,371,0
4054,214,373,0
4047,213,371,0
4045,210,374,0
4047,212,372,0
4046,212,373,0
4043,212,372,0
4043,216,375,0
4039,216,375,0
4040,216,377,0
4038,219,379,0
4040,217,381,0
4040,215,378,0
4043,213,382,0
4046,213,381,0
4046,215,384,0
4049,213,380,0
4051,212,375,0
4050,213,377,0
4051,214,378,0
4049,213,379,0
4048,212,379,0
4047,214,379,0
4045,213,380,0
4044,216,383,0
4043,221,382,0
4043,221,382,0
4045,220,389,0
4044,219,387,0
4043,218,391,0
4047,218,390,0
4050,223,390,0
4049,224,392,0
4050,231,394,0
4051,229,388,0
4049,227,389,0
4047,227,387,0
4046,226,390,0
4048,223,391,0
4051,223,388,0
4050,226,386,0
4047,220,385,0
4045,220,385,0
4045,217,385,0
4042,217,384,0
4041,215,384,0
4041,213,387,0
4042,212,388,0
4039,210,391,0
4044,209,387,0
4044,209,384,0
4047,209,385,0
4048,212,387,0
4047,214,385,0
4050,215,387,0
4047,216,384,0
4047,219,383,0
4048,217,379,0
4052,216,377,0
4051,216,380,0
4049,220,377,0
4047,220,376,0
4046,218,377,0
4046,220,376,0
4048,223,376,0
4047,221,378,0
4050,223,378,0
4058,221,375,0
4060,220,374,0
4062,219,374,0
4067,219,380,0
4068,218,386,0
4065,217,392,0
4058,212,398,0
4049,212,399,0
4042,208,397,0
4032,205,392,0
4023,203,389,0
4021,199,385,0
4021,202,383,0
4033,205,385,0
4038,204,388,0
4042,206,394,0
4040,204,399,0
4038,205,400,0
4038,207,397,0
4032,209,397,0
4034,212,398,0
4036,211,396,0
4039,213,395,0
4046,210,397,0
4053,207,395,0
4058,205,392,0
4065,204,390,0
4066,199,386,0
4062,200,381,0
4056,199,380,0
4055,201,379,0
4050,202,378,0
4047,202,378,0
4049,202,382,0
4049,200,383,0
4049,201,383,0
4052,204,383,0
4048,209,381,0
4046,213,385,0
4047,216,385,0
4046,218,389,0
4050,220,393,0
4048,222,396,0
4048,221,397,0
4048,223,394,0
4048,225,394,0
4050,230,391,0
4050,229,389,0
4052,227,386,0
4054,228,385,0
4052,227,387,0
4048,228,387,0
4049,227,384,0
4053,225,382,0
4051,227,380,0
4050,226,379,0
4045,227,379,0
4046,230,374,0
4044,231,372,0
4040,235,373,0
4042,236,373,0
4042,237,375,0
4043,237,375,0
4045,235,377,0
4048,233,377,0
4046,232,377,0
4047,235,380,0
4048,235,380,0
4046,232,381,0
4044,233,381,0
4047,234,383,0
4044,236,382,0
4038,233,375,0
4040,234,372,0
4038,237,369,0
4039,238,371,0
4038,234,372,0
4042,237,374,0
4044,236,377,0
4045,238,377,0
4049,241,377,0
4046,244,376,0
4047,244,379,0
4050,240,379,0
4055,233,380,0
4057,230,376,0
4060,226,373,0
4062,222,376,0
4063,218,376,0
4057,212,375,0
4054,209,370,0
4054,208,366,0
4053,208,363,0
4052,207,363,0
4047,209,364,0
4045,210,368,0
4041,210,369,0
4043,210,374,0
4043,218,375,0
4043,222,380,0
4045,225,380,0
4042,228,379,0
4045,233,381,0
4050,235,380,0
4057,236,375,0
4062,235,375,0
4066,238,378,0
4073,240,377,0
4070,242,379,0
4069,242,374,0
4066,243,375,0
4060,242,374,0
4056,238,373,0
4043,237,373,0
4036,237,377,0
4037,233,374,0
4033,228,377,0
4030,229,376,0
4031,232,379,0
4029,230,377,0
4034,230,379,0
4036,229,373,0
4042,224,367,0
4045,226,363,0
4053,225,364,0
4059,226,361,0
4063,229,364,0
4067,230,363,0
4071,233,363,0
4071,234,367,0
4069,234,368,0
4065,237,368,0
4060,238,368,0
4055,237,371,0
4052,237,366,0
4048,235,368,0
4038,231,368,0
4034,230,369,0
4032,230,371,0
4032,230,370,0
4031,230,375,0
4034,228,375,0
4036,229,376,0
4038,227,374,0
4041,228,371,0
4046,222,373,0
4052,223,371,0
4054,225,373,0
4058,224,371,0
4056,225,368,0
4054,222,365,0
4052,221,363,0
4051,219,362,0
4050,221,360,0
4048,223,362,0
4050,224,361,0
4051,223,358,0
4050,225,357,0
4049,225,359,0
4049,230,359,0
4048,232,359,0
4053,237,356,0
4056,237,357,0
4058,238,358,0
4061,238,357,0
4063,236,359,0
4064,232,363,0
4066,234,359,0
4066,235,363,0
4062,232,359,0
4058,231,360,0
4051,228,358,0
4049,226,360,0
4046,224,359,0
4043,221,360,0
4042,218,361,0
4043,223,363,0
4045,225,363,0
4045,223,364,0
4046,223,364,0
4051,223,363,0
4051,223,365,0
4050,228,364,0
4054,227,364,0
4051,226,363,0
4053,226,360,0
4051,233,360,0
4049,235,358,0
4047,233,358,0
4045,236,362,0
4044,232,364,0
4042,235,366,0
4040,233,370,0
4040,230,368,0
4044,231,370,0
4047,226,370,0
4049,227,367,0
4048,225,362,0
4050,225,359,0
4051,229,354,0
4051,229,355,0
4056,232,351,0
4052,232,352,0
4052,232,354,0
4048,237,354,0
4049,234,356,0
4049,232,358,0
4049,233,359,0
4051,231,361,0
4055,229,362,0
4053,227,362,0
4054,231,367,0
4055,231,371,0
4053,228,372,0
4049,226,371,0
4048,228,374,0
4045,231,369,0
4044,231,365,0
4043,230,363,0
4044,232,361,0
4044,231,362,0
4044,227,363,0
4044,220,365,0
4046,222,367,0
4044,221,368,0
4048,222,370,0
4047,220,372,0
4047,222,373,0
4047,221,377,0
4049,219,376,0
4055,218,372,0
4060,220,366,0
4060,222,357,0
4065,221,357,0
4062,219,355,0
4060,219,355,0
4057,220,351,0
4055,222,351,0
4051,221,350,0
4050,223,352,0
4047,223,357,0
4041,224,357,0
4043,227,359,0
4042,225,360,0
4044,228,361,0
4047,226,361,0
4052,231,362,0
4055,233,363,0
4058,233,366,0
4060,234,367,0
4061,237,362,0
4061,238,367,0
4060,242,364,0
4058,244,367,0
4057,243,364,0
4053,244,363,0
4052,240,360,0
4051,242,356,0
4052,243,354,0
4052,241,351,0
4053,243,348,0
4056,244,350,0
4054,245,347,0
4059,242,345,0
4060,240,350,0
4062,242,351,0
4054,242,352,0
4055,239,354,0
4051,238,354,0
4052,239,350,0
4047,238,349,0
4041,235,350,0
4039,233,350,0
4044,229,354,0
4043,227,356,0
4044,229,360,0
4045,225,362,0
4043,224,362,0
4044,222,360,0
4042,219,353,0
4043,222,350,0
4039,220,348,0
4033,219,349,0
4031,218,351,0
4031,216,350,0
4038,219,350,0
4045,222,349,0
4053,224,349,0
4061,229,354,0
4067,233,350,0
4069,233,351,0
4073,235,353,0
4071,237,356,0
4068,243,355,0
4059,242,355,0
4061,241,351,0
4058,236,345,0
4056,233,345,0
4049,230,348,0
4047,227,351,0
4045,224,350,0
4043,222,351,0
4045,220,352,0
4045,216,351,0
4046,218,347,0
4048,216,347,0
4048,217,344,0
4052,218,339,0
4054,218,340,0
4058,221,342,0
4060,219,344,0
4063,219,343,0
4061,223,346,0
4057,225,343,0
4059,226,344,0
4057,227,347,0
4054,228,348,0
4050,227,353,0
4051,226,353,0
4052,223,351,0
4051,220,356,0
4048,220,356,0
4044,217,356,0
4043,222,356,0
4043,224,358,0
4040,224,356,0
4042,222,359,0
4043,224,360,0
4045,217,362,0
4044,220,364,0
4046,222,360,0
4049,224,360,0
4056,224,357,0
4055,226,353,0
4055,225,356,0
4051,224,354,0
4051,222,356,0
4047,221,362,0
4047,219,361,0
4044,222,360,0
4041,224,358,0
4041,223,358,0
4041,221,359,0
4044,217,358,0
4045,218,356,0
4044,219,353,0
4045,221,352,0
4050,220,353,0
4052,221,358,0
4053,223,357,0
4052,222,356,0
4053,221,353,0
4051,224,356,0
4052,222,357,0
4054,220,357,0
4056,220,358,0
4054,217,358,0
4051,217,359,0
4049,214,358,0
4046,216,356,0
4047,217,355,0
4047,216,357,0
4048,217,359,0
4053,214,358,0
4050,216,356,0
4055,213,352,0
4061,216,356,0
4061,223,357,0
4060,225,360,0
4057,228,357,0
4054,229,357,0
4053,233,358,0
4050,235,357,0
4050,235,356,0
4052,236,360,0
4049,231,360,0
4050,231,360,0
4053,229,363,0
4053,232,366,0
4050,227,364,0
4052,228,363,0
4049,224,360,0
4050,224,356,0
4052,223,354,0
4054,224,357,0
4058,223,362,0
4056,217,359,0
4058,215,355,0
4054,218,358,0
4049,222,362,0
4048,225,361,0
4048,226,365,0
4043,223,365,0
4045,223,367,0
4047,218,363,0
4047,218,364,0
4044,219,361,0
4044,223,361,0
4045,223,359,0
4045,223,357,0
4050,219,357,0
4048,221,357,0
4045,223,358,0
4045,226,356,0
4048,227,361,0
4048,226,359,0
4049,226,360,0
4049,224,361,0
4047,220,366,0
4045,219,369,0
4044,218,372,0
4046,215,375,0
4046,212,376,0
4045,214,375,0
4044,214,371,0
4044,215,369,0
4048,217,363,0
4050,213,360,0
4052,217,357,0
4051,218,352,0
4054,215,355,0
4055,214,359,0
4061,220,361,0
4064,221,363,0
4065,223,359,0
4062,218,356,0
4061,216,357,0
4049,210,358,0
4047,214,360,0
4041,219,360,0
4038,220,361,0
4035,217,357,0
4036,217,353,0
4040,223,346,0
4050,231,341,0
4061,232,342,0
4067,234,350,0
4079,235,358,0
4085,234,368,0
4085,237,373,0
4083,237,379,0
4076,235,375,0
4063,236,377,0
4053,233,379,0
4046,225,379,0
4042,220,375,0
4037,215,374,0
4037,210,370,0
4036,204,368,0
4039,201,364,0
4037,194,362,0
4040,197,357,0
4040,193,351,0
4043,186,347,0
4043,185,347,0
4043,187,346,0
4043,194,352,0
4045,195,356,0
4046,201,352,0
4048,200,351,0
4047,203,356,0
4049,203,360,0
4048,208,366,0
4048,210,364,0
4052,208,364,0
4053,207,366,0
4053,211,367,0
4054,214,368,0
4054,214,362,0
4058,210,360,0
4056,211,357,0
4052,215,360,0
4058,221,361,0
4058,216,358,0
4062,213,358,0
4061,216,356,0
4058,214,355,0
4053,217,355,0
4053,211,352,0
4048,209,357,0
4047,207,359,0
4045,205,354,0
4045,202,356,0
4044,202,360,0
4044,200,359,0
4047,200,356,0
4047,201,358,0
4045,203,361,0
4046,202,361,0
4047,203,361,0
4049,207,363,0
4048,208,363,0
4047,210,365,0
4046,210,364,0
4046,214,359,0
4046,214,354,0
4044,214,351,0
4047,215,352,0
4048,214,353,0
4049,216,353,0
4055,214,355,0
4054,213,355,0
4051,212,351,0
4052,212,348,0
4052,210,347,0
4051,206,348,0
4051,204,348,0
4055,204,348,0
4053,201,352,0
4054,198,350,0
4048,199,354,0
4048,201,360,0
4047,203,363,0
4053,203,366,0
4051,202,364,0
4049,200,362,0
4051,201,363,0
4051,199,358,0
4049,201,359,0
4046,203,357,0
4043,200,353,0
4039,200,354,0
4036,201,357,0
4037,206,358,0
4043,206,359,0
4048,200,356,0
4052,203,353,0
4056,203,353,0
4060,201,355,0
4057,199,358,0
4058,201,354,0
4059,199,353,0
4057,199,352,0
4055,203,351,0
4052,205,346,0
4057,206,340,0
4062,203,342,0
4067,207,347,0
4071,211,353,0
4074,213,357,0
4075,215,363,0
4075,214,360,0
4074,216,365,0
4067,220,364,0
4055,221,359,0
4049,217,364,0
4041,212,363,0
4037,212,366,0
4035,214,365,0
4036,213,360,0
4033,207,357,0
4035,207,355,0
4037,202,352,0
4043,203,355,0
4049,198,358,0
4056,196,361,0
4057,195,364,0
4052,200,362,0
4049,205,355,0
4043,201,345,0
4033,197,339,0
4026,195,338,0
4028,194,337,0
4035,194,340,0
4041,193,349,0
4047,196,356,0
4055,200,359,0
4058,198,354,0
4059,198,345,0
4059,199,341,0
4064,204,335,0
4070,206,333,0
4077,205,336,0
4088,201,343,0
4094,208,353,0
4096,208,356,0
4092,207,357,0
4088,208,355,0
4074,205,353,0
4062,204,353,0
4054,201,354,0
4049,196,354,0
4046,198,356,0
4045,196,357,0
4042,194,359,0
4041,192,359,0
4039,190,359,0
4038,190,355,0
4036,192,355,0
4036,189,353,0
4037,192,353,0
4041,194,353,0
4042,195,355,0
4040,198,357,0
4041,198,358,0
4040,198,352,0
4045,199,350,0
4046,201,352,0
4047,202,353,0
4049,198,354,0
4051,197,352,0
4055,198,353,0
4061,199,355,0
4062,203,349,0
4058,205,343,0
4059,206,344,0
4054,212,347,0
4052,217,343,0
4051,220,343,0
4050,222,339,0
4048,225,340,0
4047,224,343,0
4051,224,352,0
4050,226,355,0
4049,225,356,0
4048,220,358,0
4047,218,357,0
4047,222,352,0
4046,221,349,0
4046,216,347,0
4048,218,347,0
4047,220,351,0
4051,219,355,0
4054,216,359,0
4054,212,359,0
4053,211,356,0
4052,212,357,0
4051,210,358,0
4050,210,359,0
4048,210,356,0
4049,210,354,0
4049,209,357,0
4051,209,357,0
4049,212,356,0
4049,211,354,0
4052,208,346,0
4057,207,341,0
4063,204,337,0
4064,202,339,0
4073,201,341,0
4076,205,342,0
4081,204,347,0
4081,205,352,0
4080,207,354,0
4075,207,355,0
4070,208,361,0
4061,208,362,0
4055,207,361,0
4047,210,364,0
4043,208,362,0
4036,208,361,0
4032,204,365,0
4026,206,366,0
4024,201,362,0
4021,199,362,0
4024,203,359,0
4027,206,358,0
4027,206,348,0
4029,206,342,0
4034,205,342,0
4037,210,347,0
4042,216,352,0
4048,213,357,0
4049,214,357,0
4051,217,359,0
4049,218,362,0
4053,219,363,0
4054,216,362,0
4055,213,354,0
4058,214,347,0
4065,210,336,0
4071,208,332,0
4078,203,331,0
4084,201,331,0
4089,202,334,0
4089,211,336,0
4087,210,340,0
4081,210,344,0
4070,216,343,0
4058,214,343,0
4046,218,338,0
4042,219,336,0
4039,220,334,0
4040,220,339,0
4044,225,347,0
4047,224,352,0
4049,220,351,0
4050,217,351,0
4050,215,352,0
4052,215,356,0
4058,208,356,0
4060,207,352,0
4061,207,349,0
4063,211,352,0
4067,207,352,0
4068,201,347,0
4059,198,343,0
4053,196,343,0
4047,200,344,0
4043,200,346,0
4039,197,349,0
4037,199,348,0
4031,202,347,0
4029,203,346,0
4031,202,345,0
4035,204,343,0
4039,208,340,0
4046,209,336,0
4056,204,334,0
4065,203,331,0
4075,207,332,0
4079,208,332,0
4088,207,334,0
4090,208,334,0
4087,209,327,0
4081,211,324,0
4074,216,320,0
4061,215,324,0
4058,219,327,0
4051,216,331,0
4048,215,342,0
4043,215,346,0
4045,214,346,0
4043,214,349,0
4038,211,351,0
4039,210,346,0
4039,207,342,0
4041,205,339,0
4047,202,339,0
4054,201,337,0
