accelerometer_x,accelerometer_y,accelerometer_z,fall
3778,-712,458,1
3777,-747,472,1
3786,-785,496,1
3781,-824,489,1
3780,-861,482,1
3776,-905,491,1
3779,-949,513,1
3776,-979,548,1
3770,-998,580,1
3764,-1006,613,1
3776,-1005,652,1
3783,-997,690,1
3787,-974,740,1
3797,-943,798,1
3798,-898,847,1
3806,-843,891,1
3828,-799,927,1
3840,-738,961,1
3855,-682,990,1
3866,-633,998,1
3884,-592,980,1
3909,-566,951,1
3931,-559,927,1
3941,-562,902,1
3945,-578,879,1
3952,-601,849,1
3961,-637,818,1
3985,-676,801,1
4003,-710,768,1
4003,-736,716,1
4002,-769,654,1
4006,-805,600,1
4001,-832,514,1
3990,-865,369,1
4015,-912,299,1
4026,-931,288,1
4049,-911,332,1
4082,-901,383,1
4139,-908,441,1
4192,-925,529,1
4229,-960,626,1
4247,-1011,727,1
4255,-1072,821,1
4252,-1128,893,1
4256,-1169,949,1
4263,-1186,986,1
4268,-1166,1006,1
4255,-1118,1005,1
4277,-1058,1036,1
4332,-980,1102,1
4394,-865,1186,1
4468,-720,1264,1
4561,-581,1312,1
4656,-448,1325,1
4757,-318,1326,1
4870,-213,1307,1
4962,-112,1308,1
5023,-20,1286,1
5034,35,1231,1
4996,71,1181,1
4928,89,1123,1
4864,53,1063,1
4821,2,1018,1
4766,-28,948,1
4691,-53,843,1
4607,-33,720,1
4522,12,583,1
4400,80,442,1
4287,168,348,1
4202,290,295,1
4154,426,302,1
4106,588,357,1
4040,771,438,1
3954,954,515,1
3849,1122,594,1
3720,1274,656,1
3592,1398,710,1
3475,1497,763,1
3389,1557,805,1
3353,1571,841,1
3391,1554,913,1
3465,1487,980,1
3582,1395,1012,1
3744,1305,1055,1
3942,1169,1081,1
4115,1023,1086,1
4253,880,1083,1
4379,736,1105,1
4500,591,1165,1
4603,462,1234,1
4662,329,1277,1
4709,193,1325,1
4751,55,1347,1
4786,-71,1343,1
4808,-195,1350,1
4818,-321,1360,1
4792,-436,1303,1
4758,-530,1243,1
4730,-615,1205,1
4672,-700,1177,1
4602,-758,1140,1
4543,-794,1093,1
4499,-796,1047,1
4447,-764,1002,1
4383,-732,1003,1
4319,-704,1032,1
4235,-675,986,1
4151,-642,911,1
4065,-606,852,1
3944,-555,814,1
3794,-510,788,1
3623,-454,766,1
3435,-367,747,1
3272,-260,760,1
3155,-226,809,1
3056,-197,847,1
2963,-187,871,1
2894,-188,885,1
2849,-199,897,1
2829,-244,894,1
2823,-286,895,1
2839,-309,901,1
2854,-340,908,1
2883,-381,930,1
2930,-447,938,1
2984,-491,953,1
3037,-513,965,1
3075,-523,972,1
3110,-526,992,1
3137,-521,1012,1
3171,-511,1055,1
3204,-493,1100,1
3206,-473,1112,1
3194,-452,1109,1
3171,-450,1100,1
3159,-457,1106,1
3165,-510,1109,1
3166,-550,1122,1
3159,-589,1142,1
3155,-632,1174,1
3148,-680,1206,1
3135,-727,1242,1
3134,-797,1254,1
3127,-856,1271,1
3135,-916,1286,1
3152,-968,1292,1
3166,-1008,1293,1
3177,-1041,1294,1
3192,-1056,1301,1
3215,-1047,1301,1
3228,-1027,1291,1
3230,-1008,1276,1
3240,-980,1267,1
3258,-952,1262,1
3280,-915,1258,1
3306,-881,1253,1
3342,-854,1248,1
3377,-830,1229,1
3413,-820,1205,1
3444,-811,1163,1
3480,-808,1110,1
3513,-812,1051,1
3546,-819,996,1
3590,-839,954,1
3634,-871,936,1
3681,-906,941,1
3732,-957,963,1
3797,-1004,1008,1
3865,-1046,1068,1
3927,-1089,1112,1
3989,-1138,1143,1
4037,-1186,1159,1
4069,-1238,1163,1
4096,-1294,1168,1
4118,-1366,1171,1
4140,-1457,1172,1
4152,-1538,1188,1
4176,-1629,1188,1
4183,-1740,1182,1
4173,-1820,1186,1
4157,-1894,1198,1
4129,-1955,1211,1
4096,-2011,1231,1
4064,-2055,1244,1
4040,-2078,1281,1
4044,-2084,1324,1
4059,-2058,1373,1
4108,-2012,1411,1
4197,-1923,1432,1
4333,-1801,1463,1
4493,-1614,1484,1
4698,-1416,1425,1
4922,-1198,1289,1
5177,-930,1122,1
5455,-648,973,1
5755,-372,887,1
6027,-93,909,1
6230,193,1011,1
6367,474,1159,1
6391,730,1264,1
6279,915,1286,1
6025,1032,1313,1
5661,1081,1383,1
5186,1123,1455,1
4666,1111,1543,1
4153,1090,1598,1
3676,1064,1624,1
3313,1067,1631,1
3116,1037,1551,1
2977,973,1359,1
2915,913,1154,1
2921,845,980,1
2975,771,814,1
3065,692,650,1
3164,614,518,1
3284,531,429,1
3400,463,371,1
3500,395,319,1
3604,329,287,1
3722,280,284,1
3843,258,290,1
3971,256,299,1
4112,305,321,1
4264,360,340,1
4364,395,329,1
4439,423,333,1
4490,461,344,1
4522,495,354,1
4519,516,360,1
4508,545,368,1
4516,543,409,1
4510,546,447,1
4491,546,465,1
4463,537,483,1
4413,554,503,1
4371,564,526,1
4340,540,531,1
4293,548,544,1
4235,565,565,1
4169,579,578,1
4100,570,587,1
4026,533,601,1
3955,452,594,1
3885,393,575,1
3810,350,563,1
3750,297,556,1
3697,233,523,1
3649,151,474,1
3619,87,462,1
3591,40,446,1
3562,1,419,1
3527,-29,404,1
3511,-55,397,1
3510,-109,379,1
3506,-152,367,1
3486,-155,373,1
3469,-173,359,1
3472,-191,347,1
3488,-193,333,1
3514,-227,319,1
3526,-245,331,1
3530,-246,353,1
3543,-264,381,1
3569,-288,409,1
3604,-302,417,1
3626,-340,397,1
3637,-368,397,1
3646,-392,390,1
3656,-420,398,1
3673,-461,413,1
3716,-499,443,1
3756,-529,454,1
3783,-558,451,1
3825,-580,500,1
3871,-590,532,1
3895,-595,546,1
3928,-589,561,1
3940,-581,551,1
3939,-566,551,1
3938,-556,553,1
3933,-556,559,1
3907,-547,565,1
3890,-540,590,1
3872,-537,627,1
3844,-531,678,1
3825,-526,717,1
3818,-519,738,1
3802,-517,758,1
3803,-533,782,1
3796,-553,790,1
3788,-575,795,1
3788,-559,808,1
3797,-540,825,1
3839,-574,843,1
3862,-625,857,1
3844,-654,860,1
3834,-676,858,1
3838,-679,880,1
3848,-660,901,1
3867,-662,897,1
3889,-665,891,1
3925,-667,887,1
3956,-681,872,1
3980,-691,857,1
3993,-700,832,1
3999,-703,806,1
4010,-711,780,1
4025,-713,757,1
4035,-696,734,1
4015,-661,646,1
3998,-621,535,1
4003,-561,486,1
4024,-484,473,1
4055,-422,480,1
4108,-366,539,1
4187,-328,610,1
4265,-316,675,1
4325,-334,760,1
4365,-381,849,1
4390,-469,952,1
4378,-554,1041,1
4362,-664,1100,1
4310,-698,1133,1
4240,-749,1164,1
4176,-776,1209,1
4130,-776,1271,1
4114,-772,1361,1
4107,-778,1372,1
4119,-736,1328,1
4152,-683,1254,1
4171,-657,1172,1
4162,-531,1130,1
4133,-365,1188,1
4136,-163,1279,1
4183,31,1297,1
4290,166,1265,1
4440,212,1157,1
4599,235,1031,1
4789,241,924,1
4952,240,860,1
5136,283,818,1
5294,287,742,1
5326,335,641,1
5415,339,546,1
5511,305,420,1
5450,314,320,1
5306,326,243,1
5129,349,182,1
4981,411,156,1
4849,466,175,1
4685,495,181,1
4435,511,172,1
4262,456,216,1
4158,374,261,1
4041,303,257,1
3879,295,234,1
3709,328,227,1
3525,379,216,1
3354,425,223,1
3263,470,250,1
3270,508,294,1
3354,534,332,1
3473,536,373,1
3648,505,466,1
3867,478,549,1
4085,442,609,1
4291,377,668,1
4450,299,716,1
4547,247,783,1
4628,151,875,1
4671,39,959,1
4680,-52,1037,1
4688,-162,1091,1
4678,-282,1103,1
4665,-397,1112,1
4678,-489,1133,1
4683,-565,1121,1
4665,-620,1102,1
4631,-642,1084,1
4593,-644,1067,1
4543,-644,1036,1
4497,-627,1009,1
4455,-567,997,1
4398,-489,985,1
4327,-411,966,1
4252,-343,925,1
4169,-296,851,1
4084,-281,778,1
4019,-272,711,1
3953,-262,659,1
3878,-261,619,1
3811,-260,600,1
3743,-250,608,1
3660,-237,638,1
3548,-206,655,1
3432,-187,666,1
3316,-164,679,1
3206,-168,699,1
3140,-204,742,1
3097,-244,795,1
3050,-274,819,1
3008,-306,829,1
2996,-340,847,1
3005,-369,863,1
3013,-389,862,1
3032,-407,871,1
3038,-409,871,1
3036,-395,884,1
3032,-365,919,1
3034,-335,953,1
3053,-322,977,1
3053,-294,993,1
3036,-265,983,1
3003,-242,961,1
2974,-219,952,1
2970,-208,965,1
2958,-226,968,1
2960,-266,983,1
2970,-315,1004,1
2971,-367,1023,1
2959,-433,1033,1
2933,-496,1058,1
2911,-576,1083,1
2890,-644,1106,1
2884,-710,1127,1
2887,-774,1144,1
2896,-823,1153,1
2914,-874,1152,1
2952,-943,1137,1
3024,-1004,1128,1
3078,-1046,1125,1
3111,-1058,1129,1
3144,-1082,1140,1
3161,-1083,1134,1
3193,-1051,1121,1
3226,-1038,1102,1
3259,-1024,1092,1
3290,-1020,1093,1
3317,-1000,1104,1
3364,-994,1113,1
3448,-960,1131,1
3541,-921,1138,1
3635,-883,1131,1
3712,-860,1106,1
3761,-835,1061,1
3810,-809,1012,1
3857,-798,965,1
3917,-798,938,1
3986,-809,927,1
4044,-837,933,1
4126,-880,960,1
4189,-948,980,1
4259,-1027,1022,1
4350,-1147,1061,1
4476,-1269,1167,1
4627,-1417,1295,1
4764,-1552,1415,1
4873,-1669,1520,1
4947,-1760,1613,1
4988,-1849,1648,1
4978,-1921,1644,1
4970,-1955,1627,1
4962,-1957,1562,1
4963,-1947,1457,1
4983,-1954,1342,1
5052,-1970,1237,1
5168,-1960,1097,1
5293,-1876,944,1
5440,-1769,767,1
5623,-1658,626,1
5864,-1530,584,1
6080,-1356,630,1
6170,-1089,723,1
6175,-735,846,1
6064,-353,969,1
5857,-36,1055,1
5574,273,1112,1
5147,498,1082,1
4645,638,1035,1
4176,711,1003,1
3699,729,992,1
3270,752,1054,1
2945,755,1097,1
2736,723,1064,1
2594,674,961,1
2548,631,852,1
2583,564,719,1
2682,476,576,1
2821,374,455,1
3007,275,386,1
3211,191,356,1
3439,123,353,1
3665,66,347,1
3895,41,350,1
4126,38,343,1
4347,82,345,1
4563,149,353,1
4747,227,365,1
4876,302,371,1
4930,355,372,1
4947,385,406,1
4921,405,458,1
4827,422,495,1
4713,410,547,1
4569,360,599,1
4407,307,632,1
4246,272,651,1
4134,227,660,1
4091,179,650,1
4137,182,641,1
4196,202,620,1
4210,195,616,1
4185,151,622,1
4130,85,626,1
4070,23,632,1
4009,-51,635,1
3942,-90,639,1
3871,-132,628,1
3801,-166,626,1
3737,-197,622,1
3702,-239,611,1
3659,-244,586,1
3613,-242,554,1
3589,-263,536,1
3581,-270,519,1
3560,-268,499,1
3546,-272,485,1
3531,-269,476,1
3515,-251,471,1
3479,-233,449,1
3442,-224,446,1
3392,-220,440,1
3326,-197,443,1
3269,-192,441,1
3227,-193,419,1
3207,-211,409,1
3193,-228,419,1
3199,-263,433,1
3202,-282,441,1
3213,-325,460,1
3225,-351,496,1
3262,-382,524,1
3311,-415,554,1
3350,-402,554,1
3403,-400,578,1
3464,-412,614,1
3514,-438,622,1
3543,-448,633,1
3584,-476,635,1
3635,-505,622,1
3676,-549,617,1
3711,-565,620,1
3723,-574,609,1
3712,-570,607,1
3692,-557,614,1
3668,-541,620,1
3645,-468,633,1
3643,-438,636,1
3647,-459,637,1
3651,-484,641,1
3636,-524,632,1
3612,-586,624,1
3580,-602,611,1
3544,-563,609,1
3561,-536,639,1
3606,-512,681,1
3670,-467,727,1
3744,-440,760,1
3801,-414,768,1
3836,-385,779,1
3868,-361,787,1
3894,-355,805,1
3917,-363,805,1
3926,-381,782,1
3931,-396,754,1
3939,-428,738,1
3957,-444,722,1
3955,-459,691,1
3946,-461,684,1
3955,-481,677,1
3979,-481,686,1
4011,-445,692,1
4058,-398,693,1
4113,-339,701,1
4161,-270,690,1
4193,-196,663,1
4222,-170,670,1
4249,-188,674,1
4271,-260,675,1
4271,-367,687,1
4271,-511,721,1
4257,-653,774,1
4235,-788,836,1
4218,-894,918,1
4241,-981,1000,1
4269,-1050,1051,1
4284,-1069,1113,1
4318,-1057,1167,1
4361,-1048,1208,1
4391,-994,1238,1
4424,-935,1265,1
4438,-858,1277,1
4458,-754,1282,1
4493,-641,1293,1
4566,-551,1314,1
4652,-466,1315,1
4719,-384,1296,1
4781,-304,1246,1
4841,-184,1197,1
4917,-74,1154,1
5072,-27,1129,1
5202,-25,1067,1
5335,21,998,1
5375,52,903,1
5397,87,828,1
5386,106,691,1
5290,153,523,1
5234,197,393,1
5174,226,294,1
5056,254,225,1
4922,323,200,1
4770,413,163,1
4590,476,103,1
4398,568,94,1
4198,667,116,1
3977,761,153,1
3777,825,193,1
3593,889,261,1
3470,936,363,1
3422,927,438,1
3413,910,467,1
3412,943,483,1
3376,997,473,1
3322,1036,483,1
3289,1048,521,1
3287,1045,559,1
3306,999,600,1
3363,924,647,1
3474,810,710,1
3631,669,776,1
3823,536,833,1
4013,385,860,1
4184,225,890,1
4324,44,932,1
4444,-131,1000,1
4547,-303,1086,1
4617,-460,1123,1
4665,-622,1131,1
4682,-749,1114,1
4682,-842,1104,1
4668,-924,1078,1
4640,-989,1027,1
4627,-1036,981,1
4605,-1035,955,1
4568,-1037,928,1
4522,-1030,915,1
4463,-1017,891,1
4406,-977,851,1
4299,-913,804,1
4197,-817,800,1
4081,-712,802,1
3956,-622,797,1
3845,-535,792,1
3732,-477,780,1
3637,-421,759,1
3569,-390,758,1
3520,-376,765,1
3459,-354,767,1
3396,-332,773,1
3334,-308,797,1
3286,-305,821,1
3242,-305,850,1
3217,-318,883,1
3205,-333,920,1
3195,-349,945,1
3209,-374,965,1
3230,-388,973,1
3243,-410,973,1
3282,-443,988,1
3317,-478,983,1
3358,-499,981,1
3391,-525,957,1
3409,-537,947,1
3421,-552,941,1
3424,-547,926,1
3429,-537,910,1
3423,-521,887,1
3399,-509,862,1
3355,-487,844,1
3289,-470,844,1
3217,-459,854,1
3146,-452,878,1
3057,-439,897,1
2966,-439,917,1
2890,-457,945,1
2826,-465,968,1
2794,-503,980,1
2820,-558,992,1
2924,-666,968,1
3015,-745,955,1
3082,-841,961,1
3118,-913,981,1
3136,-959,981,1
3156,-991,974,1
3175,-1016,955,1
3197,-1024,923,1
3217,-1005,889,1
3229,-969,846,1
3243,-933,798,1
3274,-885,778,1
3301,-835,751,1
3336,-779,747,1
3403,-714,760,1
3485,-652,777,1
3571,-598,805,1
3669,-565,847,1
3767,-547,898,1
3873,-538,962,1
3966,-531,1018,1
4034,-551,1072,1
4088,-597,1117,1
4119,-655,1136,1
4127,-725,1132,1
4128,-792,1123,1
4130,-862,1092,1
4124,-922,1060,1
4113,-992,1024,1
4104,-1065,1002,1
4083,-1159,985,1
4063,-1260,977,1
4048,-1368,973,1
4032,-1489,966,1
4037,-1606,969,1
4047,-1716,961,1
4073,-1815,959,1
4088,-1898,948,1
4099,-1974,944,1
4125,-2043,945,1
4152,-2098,969,1
4201,-2165,1005,1
4257,-2218,1074,1
4313,-2254,1156,1
4398,-2279,1252,1
4501,-2291,1332,1
4597,-2270,1385,1
4698,-2229,1419,1
4790,-2124,1410,1
4868,-2017,1355,1
4982,-1935,1256,1
5095,-1819,1097,1
5173,-1629,890,1
5236,-1407,630,1
5326,-1168,373,1
5434,-920,211,1
5578,-672,178,1
5750,-484,298,1
5870,-301,494,1
5892,-60,725,1
5842,164,956,1
5701,352,1127,1
5490,492,1230,1
5138,593,1246,1
4800,669,1294,1
4407,693,1325,1
4015,698,1354,1
3613,691,1346,1
3257,649,1278,1
2932,574,1163,1
2669,486,1028,1
2477,405,890,1
2444,318,797,1
2528,229,716,1
2668,143,638,1
2835,58,521,1
3019,-3,427,1
3197,-62,334,1
3366,-98,262,1
3541,-118,221,1
3729,-108,207,1
3914,-82,200,1
4109,-30,193,1
4318,39,200,1
4513,117,223,1
4658,200,247,1
4746,276,285,1
4785,343,341,1
4768,417,418,1
4699,469,502,1
4585,492,572,1
4460,506,647,1
4322,506,713,1
4230,491,793,1
4166,456,831,1
4133,425,836,1
4138,418,834,1
4189,399,826,1
4214,394,812,1
4212,380,807,1
4210,364,817,1
4200,346,855,1
4188,333,917,1
4150,300,923,1
4108,271,908,1
4068,217,893,1
4018,174,861,1
3945,127,806,1
3889,70,752,1
3853,26,713,1
3808,-20,691,1
3751,-52,649,1
3699,-79,613,1
3639,-76,574,1
3570,-80,532,1
3501,-91,509,1
3435,-86,502,1
3356,-66,486,1
3266,-40,446,1
3188,-38,427,1
3122,-49,432,1
3090,-67,445,1
3076,-66,464,1
3081,-76,495,1
3101,-81,540,1
3150,-108,592,1
3212,-135,628,1
3274,-137,645,1
3335,-174,632,1
3378,-190,633,1
3414,-220,634,1
3463,-264,646,1
3512,-292,634,1
3561,-305,647,1
3610,-340,687,1
3660,-391,710,1
3680,-428,713,1
3692,-445,716,1
3699,-445,713,1
3721,-439,743,1
3731,-442,762,1
3722,-442,760,1
3718,-450,754,1
3709,-468,732,1
3709,-479,722,1
3707,-484,718,1
3701,-493,714,1
3700,-497,728,1
3715,-516,738,1
3717,-520,758,1
3732,-530,786,1
3751,-544,808,1
3763,-544,830,1
3768,-537,855,1
3761,-520,889,1
3764,-505,922,1
3750,-480,951,1
3744,-455,971,1
3738,-425,973,1
3723,-390,962,1
3722,-352,949,1
3727,-316,923,1
3738,-275,895,1
3745,-248,860,1
3758,-227,843,1
3742,-206,804,1
3718,-206,752,1
3691,-196,689,1
3690,-194,632,1
3688,-178,560,1
3705,-179,498,1
3735,-171,467,1
3774,-166,441,1
3843,-171,422,1
3947,-184,411,1
4070,-238,441,1
4183,-311,507,1
4271,-412,583,1
4351,-536,674,1
4407,-649,772,1
4449,-752,853,1
4495,-827,934,1
4547,-856,1029,1
4611,-837,1136,1
4675,-780,1262,1
4744,-693,1411,1
4805,-560,1536,1
4858,-430,1586,1
4916,-287,1554,1
4986,-152,1468,1
5073,-30,1345,1
5144,80,1238,1
5195,177,1185,1
5283,278,1136,1
5311,268,1072,1
5259,236,1058,1
5245,165,1073,1
5171,76,1020,1
5162,9,976,1
5138,-18,817,1
5083,28,666,1
5007,85,504,1
4878,130,377,1
4781,260,340,1
4746,377,318,1
4709,501,313,1
4620,659,287,1
4502,847,281,1
4365,1032,284,1
4240,1191,298,1
4136,1296,326,1
3999,1365,365,1
3824,1419,424,1
3657,1428,508,1
3538,1368,599,1
3490,1266,690,1
3495,1195,789,1
3551,1118,869,1
3625,1037,942,1
3717,961,1014,1
3849,888,1086,1
3994,799,1159,1
4141,692,1221,1
4271,573,1284,1
4345,435,1318,1
4352,315,1335,1
4362,179,1344,1
4402,51,1335,1
4471,-86,1337,1
4522,-205,1335,1
4539,-326,1303,1
4532,-443,1228,1
4516,-544,1168,1
4507,-635,1135,1
4494,-724,1106,1
4459,-788,1077,1
4400,-853,1035,1
4376,-854,1071,1
4356,-810,1106,1
4312,-752,1097,1
4241,-691,1062,1
4172,-655,1038,1
4100,-629,1018,1
4014,-587,1007,1
3913,-534,980,1
3804,-478,952,1
3700,-425,931,1
3583,-359,915,1
3463,-274,919,1
3360,-198,947,1
3278,-132,989,1
3215,-74,1028,1
3168,-26,1069,1
3125,6,1097,1
3104,27,1118,1
3105,19,1154,1
3108,8,1174,1
3108,0,1184,1
3110,-5,1182,1
3108,-23,1175,1
3098,-40,1148,1
3087,-58,1131,1
3081,-73,1107,1
3092,-70,1084,1
3098,-85,1057,1
3093,-92,1036,1
3108,-92,1040,1
3132,-93,1053,1
3134,-77,1071,1
3134,-80,1084,1
3141,-101,1095,1
3158,-126,1103,1
3170,-203,1105,1
3183,-267,1114,1
3178,-337,1114,1
3155,-407,1119,1
3128,-475,1120,1
3092,-552,1113,1
3055,-624,1098,1
3017,-689,1073,1
2980,-741,1049,1
2948,-811,1017,1
2916,-864,982,1
2887,-893,963,1
2858,-905,947,1
2837,-900,939,1
2818,-885,943,1
2812,-857,948,1
2811,-824,946,1
2830,-789,951,1
2878,-750,962,1
2958,-716,978,1
3053,-681,987,1
3173,-652,997,1
3308,-636,1002,1
3457,-635,1002,1
3607,-637,1006,1
3739,-660,999,1
3856,-705,996,1
3954,-759,996,1
4026,-821,1002,1
4082,-909,1012,1
4106,-983,1019,1
4118,-1056,1023,1
4109,-1124,1019,1
4090,-1188,1015,1
4044,-1252,1006,1
4013,-1326,999,1
3984,-1390,993,1
3946,-1447,984,1
3916,-1502,978,1
3898,-1551,978,1
3875,-1601,977,1
3864,-1643,991,1
3866,-1679,1031,1
3882,-1720,1100,1
3910,-1755,1188,1
3944,-1788,1283,1
3973,-1821,1376,1
3995,-1841,1456,1
4006,-1829,1492,1
4036,-1803,1517,1
4074,-1736,1539,1
4142,-1617,1556,1
4236,-1462,1575,1
4387,-1304,1555,1
4607,-1130,1500,1
4890,-967,1391,1
5224,-783,1241,1
5625,-607,1090,1
6092,-418,1018,1
6593,-209,1065,1
7077,11,1199,1
7442,248,1335,1
7581,445,1400,1
7486,566,1436,1
7112,649,1384,1
6495,719,1307,1
5729,738,1202,1
4880,717,1070,1
4032,720,972,1
3290,731,891,1
2709,753,854,1
2320,750,825,1
2096,733,764,1
1993,711,688,1
2002,697,593,1
2143,663,509,1
2364,617,440,1
2638,574,376,1
2944,519,317,1
3251,475,267,1
3507,439,234,1
3796,419,259,1
4056,446,280,1
4293,481,287,1
4522,521,291,1
4739,597,314,1
4929,682,341,1
5077,760,355,1
5155,831,357,1
5181,882,366,1
5122,901,389,1
4988,880,409,1
4819,856,446,1
4684,797,487,1
4550,746,503,1
4463,686,532,1
4428,645,557,1
4481,633,572,1
4559,609,575,1
4613,548,570,1
4598,488,570,1
4533,391,579,1
4434,296,571,1
4326,206,549,1
4219,139,535,1
4105,90,525,1
3996,47,507,1
3900,21,473,1
3799,-2,433,1
3703,0,388,1
3624,19,356,1
3567,41,336,1
3519,60,317,1
3460,80,298,1
3421,119,278,1
3396,145,251,1
3387,175,228,1
3388,197,226,1
3402,213,224,1
3414,229,203,1
3436,231,176,1
3462,239,168,1
3499,221,176,1
3540,203,188,1
3591,179,191,1
3648,140,178,1
3702,95,189,1
3771,45,209,1
3829,0,220,1
3886,-52,216,1
3933,-106,211,1
3978,-162,226,1
3999,-204,262,1
3996,-253,276,1
3982,-300,296,1
3974,-336,324,1
3959,-369,335,1
3952,-413,360,1
3951,-451,387,1
3950,-489,398,1
3943,-526,411,1
3940,-575,437,1
3929,-617,461,1
3926,-656,465,1
3924,-691,463,1
3926,-723,465,1
3936,-749,479,1
3939,-777,500,1
3940,-795,528,1
3943,-817,559,1
3946,-838,602,1
3967,-833,638,1
3987,-817,676,1
3994,-816,721,1
3984,-829,779,1
3943,-855,819,1
3912,-856,844,1
3901,-822,856,1
3908,-783,868,1
3927,-768,857,1
3939,-767,843,1
3963,-774,831,1
3997,-776,808,1
4034,-775,770,1
4069,-768,726,1
4102,-776,662,1
4142,-787,618,1
4180,-801,594,1
4207,-824,587,1
4224,-850,576,1
4224,-882,514,1
4221,-924,424,1
4216,-967,374,1
4211,-986,371,1
4224,-992,405,1
4244,-978,450,1
4270,-959,489,1
4281,-928,538,1
4297,-890,589,1
4303,-852,636,1
4308,-810,685,1
4315,-778,725,1
4301,-747,768,1
4288,-737,806,1
4263,-736,848,1
4239,-747,878,1
4219,-768,906,1
4200,-800,931,1
4187,-832,955,1
4174,-861,980,1
4173,-887,1008,1
4175,-899,1031,1
4180,-902,1044,1
4172,-880,1045,1
4162,-836,1048,1
4180,-767,1047,1
4195,-674,1052,1
4222,-565,1062,1
4260,-447,1047,1
4328,-330,1008,1
4365,-235,937,1
4391,-93,915,1
4424,8,892,1
4471,95,879,1
4510,160,843,1
4506,210,801,1
4483,239,725,1
4460,234,642,1
4456,214,567,1
4441,203,507,1
4385,210,448,1
4305,236,391,1
4252,269,310,1
4212,301,194,1
4117,344,54,1
3993,410,-43,1
3857,490,-100,1
3736,576,-135,1
3650,654,-134,1
3622,726,-109,1
3649,786,-59,1
3643,861,-24,1
3636,932,29,1
3669,979,110,1
3771,993,214,1
3928,959,335,1
4124,892,442,1
4319,813,520,1
4491,722,567,1
4647,626,640,1
4741,521,669,1
4736,409,684,1
4646,306,719,1
4595,170,779,1
4581,36,848,1
4592,-99,941,1
4608,-232,1004,1
4622,-352,1045,1
4640,-450,1109,1
4631,-515,1158,1
4596,-567,1174,1
4567,-621,1132,1
4517,-669,1035,1
4455,-730,929,1
4384,-753,872,1
4323,-761,857,1
4291,-759,874,1
4262,-730,898,1
4252,-676,917,1
4258,-629,895,1
4240,-592,822,1
4225,-559,753,1
4205,-527,705,1
4172,-507,662,1
4129,-498,629,1
4062,-474,647,1
3970,-454,685,1
3842,-435,710,1
3680,-418,714,1
3514,-392,733,1
3354,-373,762,1
3218,-359,790,1
3100,-340,816,1
2995,-333,846,1
2926,-323,876,1
2893,-307,890,1
2878,-284,882,1
2912,-281,895,1
2971,-284,908,1
3024,-301,913,1
3077,-300,919,1
3123,-292,926,1
3155,-284,944,1
3177,-275,956,1
3178,-241,977,1
3167,-232,992,1
3175,-228,1011,1
3194,-234,1034,1
3203,-259,1051,1
3213,-280,1069,1
3223,-324,1073,1
3220,-378,1074,1
3213,-437,1093,1
3209,-500,1126,1
3206,-575,1183,1
3200,-659,1236,1
3190,-738,1276,1
3183,-822,1288,1
3213,-924,1279,1
3262,-1007,1255,1
3308,-1074,1230,1
3343,-1136,1197,1
3364,-1179,1179,1
3373,-1220,1157,1
3375,-1267,1153,1
3376,-1264,1164,1
3378,-1250,1172,1
3378,-1214,1155,1
3366,-1183,1124,1
3340,-1165,1084,1
3320,-1147,1083,1
3311,-1113,1097,1
3311,-1068,1103,1
3335,-1006,1109,1
3386,-942,1093,1
3464,-878,1067,1
3555,-801,1032,1
3649,-752,1020,1
3753,-717,1017,1
3841,-712,1007,1
3902,-708,994,1
3941,-714,962,1
3960,-718,916,1
3968,-717,845,1
3970,-706,757,1
3971,-694,655,1
3975,-684,581,1
3960,-694,565,1
3923,-734,598,1
3888,-831,693,1
3867,-941,850,1
3875,-1075,1019,1
3907,-1181,1161,1
3962,-1265,1270,1
4032,-1337,1349,1
4122,-1378,1368,1
4258,-1424,1342,1
4444,-1458,1293,1
4649,-1474,1259,1
4889,-1494,1239,1
5118,-1511,1248,1
5344,-1514,1277,1
5529,-1511,1292,1
5680,-1486,1324,1
5773,-1425,1394,1
5792,-1317,1537,1
5783,-1158,1649,1
5789,-945,1674,1
5770,-692,1553,1
5732,-427,1350,1
5745,-154,1101,1
5698,105,841,1
5652,260,695,1
5514,410,691,1
5263,533,779,1
4893,620,909,1
4374,660,1015,1
3878,695,1057,1
3465,709,1046,1
3157,677,967,1
2890,645,891,1
2744,623,830,1
2708,565,752,1
2732,495,687,1
2812,432,624,1
2969,359,558,1
3122,292,474,1
3225,243,425,1
3282,190,393,1
3332,155,402,1
3374,137,391,1
3465,151,386,1
3565,174,375,1
3650,210,377,1
3730,266,395,1
3816,327,417,1
3910,393,447,1
4008,467,493,1
4124,551,543,1
4225,620,580,1
4311,672,604,1
4422,698,626,1
4483,716,613,1
4505,720,593,1
4500,690,582,1
4461,619,566,1
4406,540,553,1
4370,451,540,1
4331,358,531,1
4297,268,504,1
4268,211,475,1
4230,160,443,1
4196,112,425,1
4188,66,430,1
4159,33,430,1
4139,-8,438,1
4142,-58,458,1
4125,-88,480,1
4120,-138,504,1
4110,-159,527,1
4095,-171,536,1
4071,-187,529,1
4054,-195,532,1
4025,-191,520,1
3994,-183,501,1
3950,-172,472,1
3915,-177,444,1
3867,-169,415,1
3812,-146,378,1
3760,-137,331,1
3719,-132,307,1
3686,-112,303,1
3673,-110,319,1
3670,-107,340,1
3662,-89,362,1
3689,-93,402,1
3713,-101,431,1
3738,-103,465,1
3776,-116,501,1
3811,-138,520,1
3836,-156,524,1
3857,-177,530,1
3862,-196,528,1
3854,-226,506,1
3839,-253,498,1
3830,-283,499,1
3811,-312,500,1
3789,-341,489,1
3765,-378,496,1
3739,-394,518,1
3722,-422,539,1
3711,-451,560,1
3692,-474,573,1
3677,-494,580,1
3671,-519,586,1
3679,-539,593,1
3692,-551,608,1
3711,-570,625,1
3723,-580,652,1
3740,-601,677,1
3758,-612,695,1
3775,-616,707,1
3795,-622,716,1
3812,-626,723,1
3833,-630,732,1
3843,-624,741,1
3839,-618,751,1
3832,-598,767,1
3835,-573,789,1
3827,-546,801,1
3808,-514,809,1
3798,-487,809,1
3784,-451,810,1
3774,-418,809,1
3767,-380,797,1
3770,-350,779,1
3780,-327,761,1
3797,-307,732,1
3823,-287,715,1
3837,-266,699,1
3852,-253,665,1
3867,-243,605,1
3876,-237,538,1
3906,-256,487,1
3931,-274,449,1
3955,-304,419,1
3987,-347,392,1
4014,-387,360,1
4053,-434,342,1
4076,-480,333,1
4091,-522,343,1
4114,-567,362,1
4156,-600,399,1
4199,-638,451,1
4248,-670,512,1
4305,-696,576,1
4344,-723,632,1
4366,-742,690,1
4377,-758,747,1
4367,-762,805,1
4340,-763,856,1
4314,-762,904,1
4291,-761,938,1
4274,-748,984,1
4254,-722,1024,1
4235,-726,1028,1
4218,-713,1011,1
4198,-709,989,1
4184,-707,971,1
4153,-687,945,1
4130,-662,931,1
4136,-650,922,1
4176,-626,940,1
4228,-607,945,1
4282,-574,935,1
4352,-533,917,1
4432,-504,924,1
4485,-489,934,1
4525,-467,937,1
4541,-422,937,1
4564,-343,955,1
4587,-293,979,1
4606,-246,1005,1
4612,-188,1026,1
4640,-135,1020,1
4662,-86,989,1
4634,-37,964,1
4602,20,952,1
4563,93,945,1
4536,150,909,1
4396,211,853,1
4233,321,822,1
4133,419,784,1
4115,489,763,1
4221,527,767,1
4237,541,735,1
4173,609,711,1
4077,662,667,1
3976,742,632,1
3838,818,571,1
3705,883,500,1
3618,954,458,1
3592,1010,396,1
3540,984,303,1
3425,944,240,1
3334,935,232,1
3282,909,230,1
3259,868,257,1
3249,823,302,1
3240,743,354,1
3257,675,431,1
3328,624,545,1
3418,552,646,1
3560,471,753,1
3729,383,847,1
3891,316,940,1
4053,248,1046,1
4249,168,1145,1
4395,86,1204,1
4495,27,1257,1
4577,-30,1304,1
4660,-97,1359,1
4714,-169,1387,1
4713,-237,1398,1
4681,-329,1395,1
4668,-428,1371,1
4646,-518,1294,1
4621,-593,1179,1
4604,-667,1063,1
4593,-751,978,1
4555,-832,936,1
4518,-889,951,1
4493,-925,1010,1
4488,-947,1083,1
4468,-945,1099,1
4437,-937,1078,1
4401,-922,1011,1
4341,-903,912,1
4282,-901,818,1
4234,-893,763,1
4187,-889,731,1
4126,-865,719,1
4031,-835,716,1
3922,-795,724,1
3802,-741,745,1
3690,-684,775,1
3576,-619,801,1
3478,-560,824,1
3405,-524,840,1
3354,-476,865,1
3336,-450,911,1
3315,-427,951,1
3307,-408,994,1
3306,-384,1014,1
3308,-355,1028,1
3319,-311,1036,1
3357,-284,1054,1
3398,-261,1086,1
3424,-241,1101,1
3414,-206,1077,1
3402,-176,1054,1
3385,-154,1036,1
3363,-153,1032,1
3353,-158,1049,1
3333,-167,1076,1
3312,-204,1090,1
3283,-251,1103,1
3241,-298,1109,1
3215,-354,1127,1
3205,-410,1144,1
3213,-459,1154,1
3241,-509,1167,1
3287,-560,1172,1
3327,-614,1161,1
3350,-664,1144,1
3360,-702,1123,1
3347,-731,1088,1
3341,-756,1047,1
3338,-764,1012,1
3327,-765,968,1
3319,-769,927,1
3323,-764,908,1
3320,-741,889,1
3333,-715,881,1
3354,-674,881,1
3377,-639,889,1
3400,-606,907,1
3426,-584,933,1
3451,-571,967,1
3481,-557,993,1
3517,-550,995,1
3561,-545,1000,1
3618,-545,1001,1
3681,-556,976,1
3751,-584,936,1
3826,-627,907,1
3891,-680,910,1
3950,-733,940,1
3993,-776,987,1
4033,-812,1050,1
4066,-826,1128,1
4085,-840,1176,1
4080,-860,1191,1
4086,-878,1189,1
4083,-881,1165,1
4070,-907,1132,1
4081,-939,1121,1
4098,-976,1110,1
4128,-1016,1116,1
4172,-1054,1155,1
4215,-1088,1215,1
4254,-1122,1280,1
4293,-1159,1352,1
4333,-1179,1407,1
4375,-1194,1435,1
4427,-1187,1424,1
4501,-1176,1347,1
4605,-1153,1219,1
4733,-1130,1053,1
4890,-1114,871,1
5065,-1070,685,1
5211,-1022,463,1
5332,-958,260,1
5463,-883,132,1
5599,-796,104,1
5679,-722,187,1
5649,-644,369,1
5504,-613,587,1
5210,-569,776,1
4767,-493,875,1
4210,-371,914,1
3751,-249,976,1
3371,-126,1083,1
3127,-29,1223,1
2958,28,1317,1
2851,106,1365,1
2841,194,1380,1
2870,268,1319,1
2973,330,1211,1
3121,382,1092,1
3265,422,960,1
3395,452,823,1
3494,488,678,1
3577,505,532,1
3654,519,412,1
3752,522,319,1
3853,513,236,1
3965,522,170,1
4066,546,114,1
4178,577,54,1
4285,591,-8,1
4419,601,-44,1
4532,557,-46,1
4552,572,-33,1
4519,569,-17,1
4472,542,20,1
4388,511,59,1
4249,476,105,1
4111,430,146,1
3988,407,207,1
3943,361,244,1
3926,365,233,1
3939,347,241,1
3959,313,262,1
3992,276,296,1
4032,234,338,1
4066,198,381,1
4092,157,418,1
4122,117,449,1
4179,63,482,1
4194,70,506,1
4229,33,533,1
4257,-6,560,1
4277,-24,588,1
4297,-47,599,1
4329,-60,607,1
4371,-67,613,1
4376,-80,608,1
4360,-103,597,1
4301,-106,572,1
4249,-117,547,1
4201,-122,523,1
4164,-125,502,1
4130,-117,487,1
4084,-117,473,1
4022,-117,452,1
3958,-120,419,1
3908,-122,384,1
3846,-113,347,1
3792,-115,319,1
3750,-121,308,1
3720,-120,312,1
3686,-129,311,1
3669,-138,316,1
3655,-156,337,1
3649,-180,363,1
3643,-203,379,1
3646,-232,393,1
3651,-267,393,1
3669,-312,388,1
3679,-350,379,1
3701,-385,376,1
3742,-433,384,1
3770,-466,392,1
3809,-503,405,1
3831,-522,409,1
3844,-543,407,1
3856,-553,406,1
3867,-562,409,1
3879,-567,416,1
3882,-572,417,1
3887,-580,427,1
3893,-582,447,1
3906,-600,486,1
3906,-616,506,1
3917,-622,516,1
3927,-641,542,1
3936,-657,564,1
3946,-676,582,1
3959,-699,605,1
3975,-721,631,1
3987,-743,657,1
3994,-766,673,1
3995,-778,682,1
3987,-792,681,1
3975,-808,664,1
3959,-809,642,1
3948,-815,622,1
3933,-813,609,1
3922,-813,606,1
3912,-809,608,1
3909,-809,611,1
3906,-806,607,1
3898,-803,599,1
3899,-799,581,1
3891,-785,533,1
3885,-770,466,1
3885,-750,404,1
3891,-717,341,1
3917,-677,281,1
3958,-624,224,1
4011,-575,180,1
4072,-518,168,1
4148,-461,185,1
4227,-405,230,1
4296,-349,287,1
4360,-299,347,1
4400,-252,400,1
4420,-216,451,1
4426,-194,504,1
4414,-180,558,1
4381,-174,604,1
4357,-167,629,1
4334,-152,634,1
4315,-122,628,1
4299,-97,605,1
4315,-71,572,1
4347,-44,538,1
4402,-19,515,1
4477,19,493,1
4555,68,480,1
4619,145,468,1
4704,206,469,1
4793,255,462,1
4873,304,452,1
4937,342,437,1
4952,389,393,1
4940,420,346,1
4906,447,298,1
4854,469,246,1
4779,487,205,1
4700,479,174,1
4595,484,148,1
4491,493,135,1
4387,523,146,1
4274,546,168,1
4175,592,196,1
4076,654,227,1
3967,724,256,1
3859,803,276,1
3745,864,289,1
3624,917,304,1
3506,953,321,1
3400,987,368,1
3324,1011,436,1
3265,1016,506,1
3230,1004,560,1
3205,985,607,1
3216,950,694,1
3249,909,817,1
3289,849,916,1
3342,775,1004,1
3423,684,1092,1
3512,584,1160,1
3594,469,1205,1
3681,338,1234,1
3776,180,1238,1
3860,46,1235,1
3940,-103,1202,1
4017,-250,1150,1
4075,-389,1071,1
4128,-508,989,1
4197,-614,908,1
4261,-710,826,1
4291,-789,748,1
4293,-853,708,1
4285,-902,690,1
4266,-922,726,1
4217,-907,773,1
4154,-849,812,1
4081,-749,842,1
4013,-616,871,1
3927,-473,904,1
3815,-343,927,1
3680,-213,949,1
3546,-93,977,1
3430,17,996,1
3350,111,1016,1
3312,202,1026,1
3308,283,1017,1
3344,358,975,1
3395,407,895,1
3507,454,828,1
3647,443,772,1
3791,408,752,1
3909,352,759,1
4007,273,829,1
4101,190,958,1
4200,111,1106,1
4309,54,1222,1
4422,17,1275,1
4535,1,1255,1
4609,-12,1163,1
4634,-19,1040,1
4610,-13,940,1
4552,-13,883,1
4469,1,907,1
4393,6,980,1
4336,6,1071,1
4266,24,1131,1
4195,46,1137,1
4121,79,1084,1
4029,123,986,1
4003,175,909,1
3983,233,822,1
3952,294,751,1
3924,365,712,1
3888,456,689,1
3857,553,664,1
3834,646,656,1
3823,725,686,1
3836,802,735,1
3917,870,806,1
4039,920,876,1
4172,959,947,1
4304,995,1010,1
4435,1018,1054,1
4535,1024,1077,1
4608,1000,1087,1
4619,962,1064,1
4567,919,1026,1
4476,834,947,1
4361,741,844,1
4209,627,709,1
4048,535,578,1
3893,449,482,1
3743,373,427,1
3642,308,436,1
3587,239,447,1
3559,170,419,1
3545,97,375,1
3520,58,326,1
3503,19,310,1
3483,13,331,1
3462,-4,372,1
3451,-51,384,1
3460,-97,378,1
3495,-159,377,1
3543,-205,406,1
3604,-280,434,1
3662,-369,445,1
3698,-453,449,1
3706,-519,454,1
3685,-581,459,1
3617,-627,453,1
3533,-661,453,1
3445,-684,480,1
3373,-703,532,1
3313,-700,604,1
3270,-674,681,1
3238,-637,743,1
3215,-604,810,1
3207,-571,862,1
3191,-545,860,1
3175,-539,861,1
3133,-545,862,1
3092,-552,861,1
3055,-590,844,1
3043,-656,819,1
3044,-739,794,1
3047,-823,803,1
3050,-880,872,1
3050,-893,986,1
3036,-848,1111,1
3022,-748,1246,1
3018,-631,1346,1
3052,-540,1402,1
3144,-509,1444,1
3238,-577,1468,1
3272,-588,1487,1
3265,-552,1587,1
3208,-446,1704,1
3165,-356,1835,1
3151,-262,1993,1
3148,-126,2198,1
3167,38,2372,1
3231,183,2438,1
3217,394,2493,1
3207,651,2495,1
3222,872,2438,1
3245,1030,2341,1
3339,1154,2327,1
3370,1303,2260,1
3368,1426,2145,1
3410,1512,2069,1
3488,1593,1970,1
3634,1660,1922,1
3837,1702,1882,1
4072,1735,1876,1
4271,1698,1842,1
4444,1645,1771,1
4623,1544,1694,1
4761,1455,1607,1
4869,1323,1542,1
4930,1212,1509,1
4936,1100,1493,1
4863,974,1462,1
4747,876,1445,1
4605,804,1485,1
4412,750,1556,1
4158,702,1570,1
3916,623,1628,1
3672,564,1688,1
3454,511,1754,1
3258,465,1791,1
3059,461,1815,1
2974,462,1849,1
2915,443,1827,1
2903,488,1769,1
2976,565,1724,1
3081,661,1637,1
3280,751,1573,1
3534,813,1487,1
3789,807,1357,1
4021,792,1178,1
4256,801,992,1
4514,744,877,1
4812,689,845,1
5127,645,871,1
5257,646,899,1
5361,638,997,1
5315,603,1151,1
5146,564,1355,1
4812,625,1573,1
4327,741,1742,1
3969,848,1886,1
3718,990,1999,1
3560,1194,2045,1
3494,1450,2043,1
3499,1653,1966,1
3613,1789,1862,1
3775,1925,1750,1
3946,2037,1688,1
4095,2094,1631,1
4190,2120,1646,1
4272,2111,1718,1
4378,2051,1839,1
4385,2083,2046,1
4422,2165,2434,1
4479,2331,2885,1
4593,2497,3352,1
4682,2586,3717,1
4755,2629,3849,1
4756,2539,3602,1
4680,2370,3169,1
4564,2076,2740,1
4443,1823,2465,1
4234,1502,2269,1
4017,1192,2293,1
3896,873,2393,1
3777,576,2484,1
3716,361,2549,1
3592,183,2531,1
3474,114,2488,1
3358,75,2310,1
3356,73,2124,1
3328,136,1928,1
3346,199,1715,1
3346,311,1564,1
3357,412,1446,1
3378,467,1359,1
3297,678,1304,1
3367,805,1293,1
3461,963,1283,1
3593,1069,1294,1
3694,1205,1315,1
3825,1347,1324,1
3950,1500,1308,1
4091,1630,1284,1
4163,1780,1237,1
4218,1841,1228,1
4255,1805,1190,1
4222,1739,1113,1
4133,1664,1023,1
4010,1582,952,1
3875,1518,898,1
3764,1449,834,1
3672,1406,807,1
3606,1364,794,1
3568,1351,829,1
3449,1356,829,1
3389,1305,840,1
3371,1276,881,1
3304,1289,896,1
3308,1235,921,1
3380,1154,979,1
3477,1029,1037,1
3524,912,1071,1
3553,820,1096,1
3571,731,1117,1
3579,681,1132,1
3564,662,1142,1
3570,662,1159,1
3545,713,1176,1
3544,788,1185,1
3475,879,1178,1
3327,933,1189,1
3170,916,1242,1
3005,946,1206,1
2808,955,1202,1
2572,883,1203,1
2702,878,1341,1
3003,933,1361,1
3175,996,1395,1
3177,1010,1415,1
3201,1033,1410,1
3239,1050,1388,1
3319,1059,1381,1
3465,1053,1386,1
3658,1078,1395,1
3854,1040,1370,1
3984,997,1362,1
4079,921,1358,1
4160,831,1356,1
4241,768,1341,1
4316,756,1322,1
4380,800,1290,1
4455,948,1279,1
4478,1129,1266,1
4421,1344,1251,1
4319,1511,1216,1
4197,1605,1190,1
4067,1623,1173,1
3937,1591,1153,1
3823,1524,1148,1
3718,1426,1147,1
3627,1292,1154,1
3520,1133,1156,1
3417,976,1167,1
3339,845,1178,1
3275,762,1172,1
3234,730,1165,1
3212,761,1156,1
3239,717,1126,1
3248,733,1115,1
3269,754,1095,1
3280,793,1078,1
3290,844,1066,1
3317,915,1066,1
3355,999,1060,1
3391,1087,1056,1
3435,1155,1061,1
3467,1205,1061,1
3449,1271,1030,1
3474,1258,1004,1
3506,1206,994,1
3512,1142,985,1
3498,1073,992,1
3445,1021,1002,1
3401,951,1000,1
3384,915,980,1
3366,825,970,1
3317,854,944,1
3265,887,938,1
3251,880,914,1
3244,903,912,1
3259,925,926,1
3266,960,948,1
3286,988,971,1
3318,1001,989,1
3358,1008,1012,1
3393,1025,1039,1
3412,1049,1051,1
3418,1071,1052,1
3428,1071,1035,1
3446,1062,1002,1
3481,1058,972,1
3516,1042,955,1
3566,1011,947,1
3618,968,942,1
3655,952,940,1
3679,938,941,1
3711,935,955,1
3744,935,978,1
3790,921,1011,1
3831,910,1036,1
3865,914,1061,1
3905,904,1073,1
3947,917,1084,1
3997,934,1085,1
4038,938,1073,1
4069,938,1053,1
4084,918,1024,1
4095,895,1000,1
4113,881,978,1
4138,890,952,1
4158,906,909,1
4168,925,864,1
4187,959,819,1
4226,1024,784,1
4234,1087,737,1
4227,1139,699,1
4223,1173,688,1
4209,1214,691,1
4176,1243,708,1
4134,1269,748,1
4066,1297,799,1
3999,1318,853,1
3910,1343,922,1
3803,1341,956,1
3707,1311,973,1
3576,1292,1003,1
3435,1256,992,1
3308,1208,966,1
3199,1179,947,1
3092,1156,922,1
3015,1105,890,1
2946,1060,867,1
2897,989,838,1
2902,904,836,1
2920,889,867,1
2959,930,898,1
2981,992,871,1
3006,1045,832,1
3046,1101,783,1
3086,1131,700,1
3096,1231,680,1
3124,1367,681,1
3172,1433,648,1
3113,1364,613,1
2959,1144,564,1
2941,1056,654,1
3013,1127,767,1
3068,1423,941,1
3065,1843,1030,1
3194,2229,1256,1
3285,1948,996,1
3258,2399,1147,1
2999,2338,1195,1
2625,2607,1231,1
2793,3408,1607,1
3239,2864,1509,1
3518,532,584,1
3308,-1929,-538,1
2921,-3275,-622,1
2461,-2699,333,1
2499,-1387,1417,1
2848,-488,1722,1
3160,-83,1521,1
3332,237,1382,1
3390,589,1369,1
3388,870,1303,1
3385,1067,1251,1
3395,1177,1229,1
3361,1241,1215,1
3348,1312,1234,1
3341,1379,1223,1
3251,1506,1208,1
3125,1669,1241,1
3100,1656,1226,1
3089,1602,1225,1
3068,1544,1234,1
3011,1453,1222,1
2978,1421,1284,1
2978,1365,1299,1
2961,1306,1288,1
2904,1141,1236,1
2850,954,1205,1
2839,815,1185,1
2882,841,1268,1
2903,839,1286,1
2889,721,1213,1
2808,603,1210,1
2760,704,1384,1
2757,803,1512,1
2825,817,1548,1
2909,696,1484,1
2940,544,1405,1
2960,541,1415,1
3010,527,1420,1
3074,537,1423,1
3167,565,1420,1
3216,562,1382,1
3201,529,1327,1
3142,438,1299,1
3115,382,1318,1
3119,399,1360,1
3116,403,1377,1
3117,407,1414,1
3124,411,1444,1
3143,402,1449,1
3192,360,1451,1
3225,392,1483,1
3243,487,1516,1
3247,529,1522,1
3242,561,1515,1
3241,592,1512,1
3247,564,1527,1
3247,509,1543,1
3282,381,1537,1
3337,316,1507,1
3407,219,1489,1
3529,153,1471,1
3634,115,1449,1
3728,95,1454,1
3819,53,1486,1
3888,-13,1508,1
3949,-60,1516,1
4005,-58,1491,1
4057,-64,1466,1
4088,-64,1411,1
4097,-85,1342,1
4069,-134,1280,1
4045,-207,1227,1
4004,-287,1197,1
3968,-346,1201,1
3980,-405,1265,1
4021,-490,1305,1
4071,-588,1317,1
4131,-682,1305,1
4182,-731,1309,1
4228,-766,1311,1
4276,-794,1289,1
4291,-812,1272,1
4328,-836,1262,1
4358,-885,1216,1
4353,-980,1122,1
4264,-892,1115,1
4146,-781,1106,1
3984,-654,1138,1
3829,-557,1129,1
3687,-529,1119,1
3602,-506,1153,1
3554,-490,1241,1
3552,-524,1321,1
3566,-542,1390,1
3601,-528,1433,1
3658,-579,1433,1
3703,-621,1428,1
3725,-655,1416,1
3727,-690,1375,1
3675,-692,1321,1
3608,-673,1247,1
3550,-650,1185,1
3523,-614,1138,1
3524,-568,1113,1
3560,-463,1127,1
3626,-325,1122,1
3721,-196,1108,1
3839,-112,1073,1
3937,-50,1024,1
4000,-15,1005,1
4050,-39,1003,1
4090,-29,1031,1
4114,33,1086,1
4099,142,1175,1
4100,220,1221,1
4144,237,1252,1
4238,234,1286,1
4350,204,1334,1
4427,138,1366,1
4478,46,1385,1
4496,-57,1402,1
4477,-144,1420,1
4443,-225,1457,1
4400,-307,1488,1
4347,-329,1486,1
4280,-361,1496,1
4198,-380,1472,1
4122,-400,1470,1
4081,-406,1509,1
4086,-441,1545,1
4079,-501,1468,1
4049,-532,1470,1
4038,-550,1505,1
4058,-611,1523,1
4098,-646,1564,1
4132,-665,1602,1
4158,-697,1636,1
4181,-647,1727,1
4209,-595,1865,1
4178,-568,1929,1
4124,-508,1931,1
4057,-482,1903,1
3984,-497,1900,1
3867,-497,1868,1
3760,-528,1843,1
3617,-545,1760,1
3476,-574,1644,1
3387,-602,1501,1
3295,-523,1413,1
3240,-489,1369,1
3219,-432,1354,1
3195,-411,1376,1
3182,-360,1435,1
3151,-380,1496,1
3101,-371,1599,1
3066,-391,1676,1
3041,-390,1724,1
3047,-421,1814,1
3046,-481,1884,1
3066,-539,1917,1
3081,-574,1921,1
3140,-620,1912,1
3225,-690,1915,1
3251,-592,1840,1
3256,-479,1783,1
3127,-403,1598,1
2976,-359,1433,1
2798,-327,1304,1
2575,-176,1268,1
2305,-59,1311,1
2080,-204,1436,1
2018,-613,1468,1
2117,-856,1602,1
2147,-964,1642,1
2105,-1149,1658,1
2011,-1296,1635,1
1936,-1459,1633,1
1894,-1628,1635,1
1866,-1829,1581,1
1863,-1921,1494,1
1846,-1986,1399,1
1773,-2006,1269,1
1651,-1956,1141,1
1518,-1878,1085,1
1402,-1790,1049,1
1314,-1695,908,1
1235,-1533,714,1
1199,-1365,450,1
1462,-1036,-13,1
2079,-354,-969,1
2784,504,-1960,1
3430,1126,-2305,1
4034,1243,-1702,1
4702,759,-416,1
5469,-224,834,1
5984,-1622,1219,1
6365,-3466,788,1
6799,-4747,123,1
6797,-5359,-453,1
6519,-5453,-499,1
5989,-5311,-341,1
5331,-5028,-46,1
4572,-4553,31,1
3924,-4119,-177,1
3529,-3911,-577,1
3331,-3901,-990,1
3347,-4066,-1375,1
3362,-4148,-1765,1
3321,-4139,-2068,1
3084,-3888,-2281,1
3065,-3397,-2215,1
3126,-2858,-2334,1
3006,-2707,-2763,1
2562,-2156,-2702,1
1896,-1570,-2356,1
2010,-1337,-2178,1
2640,-1454,-2346,1
2910,-1758,-2643,1
2660,-2113,-2719,1
2273,-2590,-2708,1
1980,-2921,-2664,1
1691,-2963,-2824,1
1530,-2867,-3128,1
1577,-2832,-3810,1
2089,-2980,-4799,1
3181,-3526,-5915,1
4462,-4704,-7193,1
5845,-6083,-8615,1
7060,-7411,-10080,1
7908,-8406,-10862,1
8503,-8914,-10627,1
8871,-8812,-9475,1
8986,-7906,-7470,1
9127,-6391,-5429,1
9188,-4675,-4103,1
8725,-3004,-3491,1
7689,-1674,-3331,1
6507,-940,-3084,1
5335,-564,-2463,1
4417,-547,-1693,1
3805,-817,-1114,1
3490,-1308,-948,1
3347,-1902,-1202,1
3226,-2358,-1539,1
2922,-2666,-1854,1
2458,-2858,-1951,1
1772,-2849,-1766,1
1148,-2778,-1303,1
718,-2674,-730,1
528,-2569,-259,1
522,-2456,16,1
592,-2369,69,1
693,-2278,49,1
781,-2161,26,1
854,-2080,19,1
959,-2003,82,1
1059,-1949,184,1
1198,-1971,288,1
1339,-2098,283,1
1435,-2339,53,1
1521,-2809,-493,1
1525,-3475,-1397,1
1402,-4459,-2591,1
1248,-4204,-2366,1
1341,-4604,-2228,1
1619,-2879,-550,1
1490,-2383,-482,1
1178,-2949,-861,1
866,-3680,-1470,1
897,-4686,-1940,1
1155,-6083,-2298,1
1395,-7550,-3034,1
1606,-8445,-3770,1
1833,-8868,-4247,1
1882,-8707,-4499,1
1832,-8021,-4428,1
1829,-6998,-3904,1
1773,-5940,-3223,1
1679,-5061,-2605,1
1670,-4478,-2058,1
1710,-3971,-1603,1
1827,-3527,-1421,1
1770,-3296,-1270,1
1471,-3133,-1284,1
1151,-2879,-1440,1
933,-2742,-1658,1
824,-2670,-1837,1
726,-2672,-2028,1
632,-2862,-2106,1
445,-2993,-2151,1
261,-2964,-1983,1
178,-2898,-1631,1
132,-3057,-1517,1
2,-3128,-1588,1
-185,-3114,-1637,1
-364,-3236,-1731,1
-387,-3366,-1747,1
-370,-3476,-1784,1
-412,-3660,-1824,1
-405,-3858,-1887,1
-324,-3841,-1827,1
-273,-3724,-1722,1
-422,-3699,-1652,1
-565,-3822,-1511,1
-737,-3758,-1438,1
-702,-3527,-1220,1
-675,-3284,-992,1
-661,-3228,-932,1
-938,-3330,-1222,1
-1392,-3456,-1531,1
-1855,-3568,-1590,1
-2260,-3873,-1477,1
-2974,-4088,-1368,1
-4281,-4112,-1312,1
-5555,-3830,-1362,1
-5277,-4251,-1962,1
-2968,-4789,-2785,1
-32,-4608,-3717,1
2407,-3774,-3991,1
4192,-3051,-3465,1
4751,-3174,-2918,1
4429,-3670,-2534,1
3566,-4115,-2589,1
2353,-4360,-2660,1
1006,-4627,-2718,1
-318,-4861,-2558,1
-1442,-4928,-2237,1
-2163,-4628,-1852,1
-2279,-4546,-1597,1
-2155,-4600,-1535,1
-2068,-4361,-1387,1
-2171,-4109,-1224,1
-2320,-3605,-797,1
-2661,-3469,-797,1
-2985,-3536,-980,1
-2912,-3428,-919,1
-2598,-3227,-709,1
-2271,-3102,-545,1
-1991,-3003,-469,1
-1662,-3027,-425,1
-1394,-3217,-475,1
-1200,-3354,-596,1
-1073,-3355,-764,1
-1030,-3307,-948,1
-1056,-3367,-1207,1
-1101,-3453,-1425,1
-1118,-3608,-1654,1
-1128,-3810,-1904,1
-1123,-3940,-2101,1
-1086,-4023,-2248,1
-1025,-4101,-2327,1
-967,-4175,-2367,1
-940,-4219,-2373,1
-977,-4279,-2389,1
-1055,-4299,-2401,1
-1158,-4217,-2354,1
-1275,-4107,-2296,1
-1388,-3978,-2255,1
-1500,-3843,-2214,1
-1603,-3626,-2174,1
-1678,-3438,-2162,1
-1731,-3212,-2125,1
-1787,-2899,-2076,1
-1833,-2685,-2039,1
-1836,-2493,-1965,1
-1802,-2224,-1878,1
-1760,-2056,-1861,1
-1710,-1934,-1848,1
-1655,-1847,-1873,1
-1615,-1807,-1915,1
-1583,-1835,-1974,1
-1532,-1856,-2008,1
-1490,-1937,-2069,1
-1422,-2074,-2158,1
-1372,-2226,-2256,1
-1373,-2423,-2369,1
-1403,-2602,-2493,1
-1455,-2738,-2598,1
-1560,-2947,-2717,1
-1501,-3068,-2856,1
-1263,-2975,-2915,1
-1080,-2935,-2962,1
-943,-3096,-3058,1
-770,-3196,-3130,1
-679,-3195,-3103,1
-611,-3204,-3083,1
-562,-3228,-3121,1
-475,-3229,-3239,1
-474,-3199,-3368,1
-427,-3227,-3400,1
-366,-3259,-3380,1
-341,-3275,-3394,1
-278,-3318,-3439,1
-273,-3279,-3400,1
-285,-3220,-3326,1
-267,-3222,-3341,1
-227,-3246,-3393,1
-204,-3259,-3445,1
-189,-3270,-3458,1
-208,-3256,-3454,1
-238,-3217,-3379,1
-254,-3203,-3311,1
-238,-3213,-3249,1
-243,-3224,-3189,1
-265,-3211,-3119,1
-296,-3212,-3061,1
-292,-3184,-2937,1
-308,-3179,-2846,1
-325,-3176,-2791,1
-313,-3164,-2707,1
-317,-3175,-2681,1
-330,-3187,-2670,1
-332,-3188,-2671,1
-316,-3161,-2773,1
-347,-3133,-3118,1
-388,-3157,-3756,1
-539,-3122,-3789,1
-471,-3176,-3029,1
-370,-3233,-2388,1
-366,-3250,-2392,1
-418,-3229,-2692,1
-505,-3231,-2931,1
-571,-3241,-2912,1
-623,-3214,-2653,1
-612,-3204,-2245,1
-508,-3292,-1952,1
-385,-3335,-1801,1
-327,-3347,-1806,1
-303,-3314,-1833,1
-315,-3297,-1896,1
-332,-3303,-1970,1
-337,-3304,-2003,1
-353,-3296,-2031,1
-343,-3315,-2075,1
-354,-3294,-2112,1
-330,-3309,-2124,1
-316,-3316,-2180,1
-353,-3320,-2315,1
-461,-3313,-2468,1
-524,-3318,-2512,1
-532,-3316,-2432,1
-483,-3313,-2337,1
-418,-3303,-2312,1
-392,-3273,-2339,1
-434,-3243,-2420,1
-453,-3253,-2462,1
-469,-3253,-2487,1
-526,-3227,-2471,1
-543,-3241,-2429,1
-603,-3324,-2389,1
-569,-3265,-2350,1
-473,-3381,-2369,1
-383,-3280,-2462,1
8,-3251,-2468,1
449,-3355,-2338,1
533,-3192,-2252,1
393,-3019,-2261,1
64,-3078,-2423,1
-759,-3405,-2759,1
-1730,-3379,-2822,1
-1998,-3442,-2632,1
-1826,-3415,-2530,1
-1369,-3336,-2650,1
-833,-3235,-2764,1
-347,-3167,-2814,1
55,-3147,-2860,1
293,-3123,-2899,1
415,-3128,-2973,1
448,-3131,-2995,1
486,-3148,-2955,1
509,-3162,-2936,1
575,-3134,-2907,1
676,-3114,-2854,1
781,-3107,-2825,1
783,-3081,-2778,1
741,-3108,-2779,1
656,-3095,-2766,1
480,-3141,-2760,1
251,-3177,-2703,1
119,-3196,-2648,1
54,-3196,-2608,1
28,-3202,-2593,1
18,-3206,-2596,1
4,-3207,-2610,1
-7,-3214,-2631,1
-23,-3220,-2650,1
-31,-3218,-2645,1
-35,-3217,-2624,1
-42,-3222,-2604,1
-56,-3216,-2589,1
-101,-3230,-2594,1
-137,-3236,-2571,1
-156,-3240,-2538,1
-172,-3246,-2525,1
-181,-3246,-2521,1
-159,-3261,-2512,1
-126,-3254,-2513,1
-121,-3225,-2512,1
-132,-3241,-2537,1
-179,-3242,-2558,1
-228,-3248,-2593,1
-276,-3247,-2632,1
-307,-3246,-2677,1
-329,-3251,-2718,1
-326,-3261,-2748,1
-309,-3265,-2767,1
-278,-3267,-2782,1
-239,-3264,-2786,1
-208,-3270,-2782,1
-189,-3268,-2762,1
-186,-3278,-2735,1
-179,-3278,-2693,1
-170,-3286,-2618,1
-169,-3284,-2573,1
-160,-3295,-2524,1
-170,-3300,-2501,1
-174,-3300,-2482,1
-188,-3308,-2492,1
-206,-3311,-2483,1
-218,-3310,-2423,1
-218,-3311,-2346,1
-242,-3312,-2314,1
-272,-3317,-2324,1
-283,-3325,-2336,1
-286,-3329,-2335,1
-279,-3329,-2330,1
-275,-3337,-2320,1
-269,-3342,-2314,1
-264,-3344,-2312,1
-269,-3350,-2320,1
-277,-3353,-2331,1
-267,-3358,-2338,1
-270,-3364,-2342,1
-265,-3369,-2341,1
-284,-3363,-2332,1
-288,-3364,-2318,1
-292,-3359,-2313,1
-283,-3353,-2306,1
-285,-3352,-2312,1
-290,-3358,-2325,1
-297,-3354,-2331,1
-297,-3358,-2338,1
-311,-3353,-2345,1
-312,-3357,-2350,1
-307,-3355,-2339,1
-292,-3351,-2317,1
-280,-3350,-2326,1
-289,-3352,-2365,1
-298,-3358,-2412,1
-305,-3366,-2460,1
-309,-3370,-2481,1
-308,-3370,-2482,1
-303,-3374,-2475,1
-294,-3371,-2475,1
-295,-3370,-2474,1
-294,-3376,-2481,1
-291,-3383,-2474,1
-303,-3371,-2473,1
-303,-3369,-2472,1
-298,-3371,-2475,1
-286,-3367,-2471,1
-284,-3372,-2456,1
-279,-3376,-2440,1
-290,-3371,-2430,1
-291,-3381,-2418,1
-292,-3355,-2393,1
-302,-3355,-2375,1
-309,-3365,-2364,1
-310,-3371,-2356,1
-314,-3391,-2366,1
-319,-3381,-2363,1
-314,-3384,-2362,1
-309,-3395,-2367,1
-307,-3399,-2376,1
-309,-3405,-2385,1
-306,-3402,-2385,1
-303,-3400,-2383,1
-296,-3403,-2379,1
-287,-3415,-2370,1
-288,-3407,-2360,1
-297,-3408,-2350,1
-291,-3406,-2329,1
-290,-3411,-2316,1
-288,-3423,-2313,1
-291,-3421,-2305,1
-308,-3420,-2308,1
-296,-3433,-2309,1
-291,-3443,-2322,1
-296,-3456,-2337,1
-289,-3455,-2330,1
-286,-3456,-2309,1
-275,-3463,-2289,1
-265,-3452,-2265,1
-272,-3445,-2254,1
-278,-3449,-2248,1
-286,-3445,-2238,1
-293,-3449,-2239,1
-295,-3460,-2233,1
-274,-3464,-2216,1
-268,-3458,-2194,1
-286,-3444,-2174,1
-293,-3443,-2153,1
-294,-3450,-2145,1
-294,-3447,-2134,1
-289,-3454,-2128,1
-302,-3454,-2129,1
-316,-3449,-2132,1
-309,-3458,-2139,1
-312,-3450,-2135,1
-318,-3452,-2137,1
-324,-3446,-2128,1
-321,-3448,-2126,1
-325,-3441,-2122,1
-332,-3438,-2121,1
-338,-3438,-2126,1
-337,-3443,-2132,1
-339,-3447,-2135,1
-342,-3449,-2142,1
-344,-3451,-2147,1
-348,-3454,-2151,1
-351,-3456,-2161,1
-352,-3462,-2165,1
-351,-3464,-2177,1
-361,-3463,-2191,1
-366,-3464,-2193,1
-372,-3462,-2195,1
-376,-3460,-2191,1
-374,-3460,-2202,1
-378,-3462,-2211,1
-379,-3464,-2215,1
-383,-3462,-2217,1
-383,-3462,-2219,1
-381,-3464,-2221,1
-382,-3455,-2218,1
-381,-3457,-2220,1
-387,-3459,-2226,1
-382,-3459,-2236,1
-384,-3451,-2246,1
-386,-3454,-2250,1
-385,-3459,-2258,1
-390,-3455,-2270,1
-391,-3456,-2275,1
-390,-3458,-2282,1
-390,-3456,-2283,1
-389,-3453,-2280,1
-388,-3450,-2273,1
-385,-3449,-2272,1
-381,-3449,-2273,1
-374,-3447,-2271,1
-373,-3449,-2277,1
-370,-3448,-2288,1
-368,-3446,-2294,1
-365,-3444,-2301,1
-366,-3445,-2300,1
-366,-3443,-2302,1
-365,-3442,-2303,1
-362,-3440,-2307,1
-360,-3442,-2309,1
-362,-3445,-2314,1
-363,-3443,-2315,1
-361,-3443,-2310,1
-361,-3444,-2312,1
-356,-3441,-2311,1
-358,-3443,-2312,1
-356,-3440,-2308,1
-354,-3442,-2305,1
-350,-3441,-2301,1
-344,-3441,-2300,1
-338,-3439,-2295,1
-339,-3440,-2291,1
-341,-3447,-2295,1
-341,-3446,-2298,1
-340,-3448,-2291,1
-335,-3448,-2285,1
-331,-3444,-2286,1
-331,-3450,-2284,1
-336,-3449,-2281,1
-331,-3443,-2277,1
-325,-3444,-2267,1
-323,-3443,-2258,1
-323,-3437,-2254,1
-325,-3439,-2259,1
-323,-3438,-2261,1
-323,-3446,-2268,1
-323,-3445,-2269,1
-324,-3445,-2267,1
-324,-3446,-2267,1
-326,-3448,-2271,1
-332,-3446,-2275,1
-335,-3444,-2280,1
-336,-3443,-2280,1
-337,-3446,-2281,1
-341,-3447,-2275,1
-340,-3448,-2276,1
-344,-3444,-2273,1
-344,-3446,-2270,1
-344,-3451,-2267,1
-341,-3448,-2258,1
-343,-3445,-2254,1
-344,-3446,-2251,1
-346,-3445,-2251,1
-343,-3446,-2253,1
-339,-3449,-2255,1
-343,-3450,-2251,1
-349,-3450,-2251,1
-350,-3452,-2254,1
-352,-3453,-2251,1
-351,-3446,-2252,1
-354,-3453,-2252,1
-354,-3452,-2252,1
-347,-3452,-2249,1
-351,-3450,-2247,1
-353,-3450,-2237,1
-352,-3453,-2246,1
-348,-3451,-2244,1
-350,-3453,-2240,1
-352,-3451,-2236,1
-348,-3449,-2235,1
-345,-3454,-2240,1
-345,-3458,-2240,1
-348,-3455,-2241,1
-348,-3457,-2241,1
-350,-3457,-2242,1
-350,-3456,-2245,1
-349,-3458,-2238,1
-351,-3456,-2230,1
-370,-3454,-2237,1
-350,-3461,-2229,1
-351,-3455,-2222,1
-359,-3452,-2220,1
-357,-3452,-2208,1
-338,-3457,-2213,1
-333,-3453,-2213,1
-330,-3453,-2212,1
-336,-3454,-2216,1
-339,-3457,-2224,1
-338,-3457,-2233,1
-338,-3462,-2232,1
-334,-3463,-2237,1
-331,-3460,-2235,1
-335,-3460,-2228,1
-335,-3451,-2216,1
-330,-3449,-2217,1
-329,-3453,-2223,1
-330,-3452,-2224,1
-334,-3448,-2229,1
-334,-3449,-2236,1
-337,-3453,-2245,1
-340,-3456,-2254,1
-336,-3457,-2254,1
-345,-3453,-2245,1
-347,-3456,-2247,1
-342,-3453,-2251,1
-347,-3452,-2253,1
-349,-3455,-2257,1
-345,-3456,-2264,1
-337,-3454,-2272,1
-344,-3452,-2273,1
-339,-3456,-2269,1
-337,-3452,-2271,1
-342,-3455,-2271,1
-345,-3456,-2270,1
-348,-3456,-2273,1
-344,-3455,-2277,1
-346,-3456,-2279,1
-345,-3457,-2282,1
-346,-3457,-2279,1
-344,-3456,-2278,1
-344,-3456,-2275,1
-354,-3454,-2272,1
-345,-3455,-2270,1
-342,-3451,-2268,1
-337,-3452,-2265,1
-335,-3454,-2265,1
-342,-3452,-2268,1
-341,-3456,-2270,1
-337,-3456,-2263,1
-338,-3455,-2264,1
-342,-3456,-2267,1
-348,-3458,-2270,1
-343,-3459,-2266,1
-372,-3467,-2268,1
-386,-3421,-2208,1
-306,-3465,-2247,1
-282,-3439,-2223,1
-285,-3441,-2232,1
-301,-3445,-2235,1
-312,-3442,-2235,1
-321,-3452,-2239,1
-329,-3459,-2243,1
-332,-3459,-2245,1
-338,-3461,-2245,1
-340,-3463,-2247,1
-335,-3471,-2248,1
-329,-3467,-2247,1
-324,-3469,-2251,1
-322,-3470,-2247,1
-324,-3464,-2246,1
-322,-3460,-2240,1
-326,-3463,-2238,1
-324,-3465,-2235,1
-326,-3466,-2236,1
-330,-3465,-2232,1
-325,-3463,-2225,1
-319,-3461,-2220,1
-316,-3458,-2219,1
-315,-3460,-2216,1
-313,-3459,-2217,1
-318,-3463,-2222,1
-319,-3462,-2221,1
-317,-3465,-2221,1
-322,-3465,-2222,1
-326,-3467,-2225,1
-325,-3469,-2222,1
-326,-3463,-2222,1
-323,-3460,-2220,1
-319,-3457,-2219,1
-310,-3455,-2218,1
-309,-3454,-2217,1
-311,-3458,-2218,1
-319,-3463,-2219,1
-316,-3461,-2223,1
-314,-3461,-2222,1
-316,-3461,-2219,1
-315,-3459,-2218,1
-319,-3458,-2216,1
-319,-3463,-2213,1
-319,-3461,-2210,1
-317,-3460,-2212,1
-321,-3461,-2211,1
-320,-3462,-2214,1
-321,-3464,-2214,1
-321,-3464,-2215,1
-319,-3464,-2218,1
-320,-3465,-2216,1
-323,-3466,-2218,1
-321,-3466,-2214,1
-315,-3463,-2213,1
-315,-3460,-2208,1
-316,-3462,-2211,1
-315,-3464,-2215,1
-313,-3464,-2220,1
-313,-3463,-2225,1
-312,-3466,-2224,1
-316,-3466,-2225,1
-313,-3463,-2225,1
-308,-3465,-2226,1
-310,-3468,-2229,1
-313,-3468,-2232,1
-313,-3470,-2237,1
-312,-3471,-2237,1
-315,-3472,-2236,1
-317,-3470,-2237,1
-319,-3470,-2238,1
-318,-3469,-2240,1
-321,-3468,-2245,1
-320,-3466,-2241,1
-321,-3466,-2238,1
-324,-3468,-2237,1
-323,-3466,-2235,1
-324,-3466,-2231,1
-323,-3467,-2230,1
-324,-3464,-2234,1
-322,-3464,-2236,1
-326,-3469,-2234,1
-331,-3464,-2236,1
-329,-3463,-2235,1
-330,-3460,-2233,1
-332,-3459,-2228,1
-331,-3460,-2225,1
-329,-3461,-2224,1
-329,-3460,-2221,1
-326,-3459,-2220,1
-324,-3456,-2222,1
-323,-3461,-2225,1
-321,-3461,-2226,1
-322,-3466,-2233,1
-326,-3467,-2240,1
-325,-3473,-2244,1
-323,-3474,-2244,1
-322,-3471,-2246,1
-317,-3467,-2242,1
-315,-3460,-2230,1
-319,-3456,-2222,1
-321,-3455,-2226,1
-323,-3459,-2238,1
-322,-3458,-2243,1
-327,-3460,-2246,1
-327,-3461,-2246,1
-328,-3463,-2246,1
-328,-3462,-2240,1
-331,-3459,-2237,1
-333,-3455,-2241,1
-332,-3455,-2242,1
-331,-3460,-2248,1
-334,-3461,-2247,1
-333,-3463,-2248,1
-332,-3461,-2246,1
-330,-3459,-2244,1
-331,-3456,-2243,1
-331,-3458,-2243,1
-335,-3461,-2245,1
-335,-3462,-2244,1
-332,-3460,-2243,1
-333,-3458,-2243,1
-332,-3457,-2241,1
-333,-3456,-2240,1
-332,-3457,-2242,1
-332,-3459,-2243,1
-333,-3459,-2246,1
-334,-3461,-2248,1
-331,-3460,-2250,1
-331,-3457,-2249,1
-329,-3455,-2249,1
-334,-3457,-2249,1
-334,-3460,-2250,1
-334,-3462,-2248,1
-335,-3461,-2247,1
-334,-3465,-2244,1
-336,-3460,-2244,1
-334,-3456,-2244,1
-332,-3454,-2243,1
-334,-3453,-2240,1
-332,-3455,-2239,1
-331,-3458,-2238,1
-333,-3459,-2241,1
-333,-3459,-2245,1
-335,-3457,-2249,1
-339,-3462,-2246,1
-338,-3465,-2251,1
-340,-3461,-2251,1
-337,-3461,-2251,1
-337,-3461,-2253,1
-340,-3461,-2251,1
-341,-3459,-2252,1
-339,-3460,-2252,1
-337,-3460,-2253,1
-336,-3458,-2248,1
-336,-3459,-2246,1
-339,-3461,-2244,1
-336,-3460,-2243,1
-334,-3456,-2244,1
-335,-3458,-2244,1
-334,-3458,-2243,1
-332,-3454,-2239,1
-333,-3456,-2239,1
-333,-3455,-2236,1
-337,-3455,-2237,1
-337,-3456,-2239,1
-338,-3458,-2241,1
-337,-3457,-2244,1
-335,-3454,-2243,1
-335,-3456,-2242,1
-336,-3456,-2245,1
-335,-3456,-2248,1
-334,-3455,-2253,1
-337,-3456,-2249,1
-342,-3455,-2246,1
-338,-3458,-2241,1
-335,-3455,-2241,1
-336,-3451,-2243,1
-337,-3454,-2245,1
-340,-3453,-2244,1
-340,-3454,-2243,1
-340,-3458,-2241,1
-338,-3458,-2241,1
-340,-3458,-2239,1
-336,-3457,-2236,1
-336,-3455,-2235,1
-338,-3455,-2237,1
-334,-3455,-2239,1
-334,-3456,-2234,1
-337,-3450,-2234,1
-339,-3453,-2235,1
-336,-3459,-2237,1
-340,-3455,-2235,1
-340,-3448,-2240,1
-341,-3451,-2238,1
-339,-3452,-2244,1
-345,-3455,-2248,1
-346,-3458,-2251,1
-345,-3460,-2256,1
-341,-3457,-2257,1
-345,-3458,-2256,1
-344,-3457,-2255,1
-344,-3454,-2254,1
-343,-3454,-2254,1
-344,-3454,-2249,1
-343,-3455,-2251,1
-341,-3459,-2247,1
-340,-3457,-2245,1
-336,-3453,-2246,1
-337,-3453,-2246,1
-338,-3454,-2246,1
-338,-3453,-2249,1
-342,-3453,-2244,1
-338,-3453,-2244,1
-339,-3457,-2246,1
-335,-3459,-2249,1
-342,-3455,-2247,1
-343,-3458,-2243,1
-345,-3459,-2247,1
-346,-3452,-2248,1
-344,-3453,-2247,1
-343,-3451,-2245,1
-339,-3452,-2245,1
-342,-3455,-2246,1
-342,-3456,-2249,1
-341,-3457,-2249,1
-344,-3455,-2250,1
-345,-3454,-2251,1
-346,-3451,-2254,1
-345,-3455,-2254,1
-346,-3454,-2256,1
-349,-3453,-2254,1
-348,-3452,-2254,1
-345,-3453,-2247,1
-346,-3451,-2244,1
-345,-3452,-2244,1
-343,-3451,-2246,1
-342,-3454,-2246,1
-344,-3456,-2250,1
-344,-3456,-2255,1
-343,-3456,-2264,1
-343,-3459,-2261,1
-342,-3458,-2263,1
-342,-3452,-2257,1
-341,-3452,-2249,1
-341,-3452,-2244,1
-345,-3453,-2244,1
-343,-3451,-2246,1
-345,-3450,-2248,1
-348,-3452,-2256,1
-347,-3457,-2258,1
-344,-3457,-2255,1
-340,-3459,-2248,1
-342,-3452,-2246,1
-348,-3449,-2239,1
-349,-3453,-2244,1
-346,-3451,-2251,1
-348,-3455,-2249,1
-348,-3454,-2248,1
-348,-3451,-2249,1
-347,-3452,-2251,1
-346,-3451,-2250,1
-343,-3453,-2253,1
-346,-3452,-2256,1
-347,-3455,-2256,1
-348,-3454,-2253,1
-349,-3451,-2248,1
-346,-3451,-2249,1
-346,-3451,-2250,1
-348,-3453,-2252,1
-351,-3454,-2258,1
-352,-3456,-2258,1
-353,-3455,-2254,1
-351,-3452,-2253,1
-350,-3450,-2248,1
-346,-3451,-2243,1
-344,-3453,-2240,1
-345,-3454,-2249,1
-341,-3453,-2259,1
-346,-3446,-2252,1
-352,-3449,-2254,1
-353,-3450,-2262,1
-350,-3452,-2264,1
-350,-3447,-2262,1
-348,-3449,-2254,1
-350,-3449,-2256,1
-346,-3453,-2255,1
-345,-3454,-2252,1
-350,-3453,-2246,1
-350,-3450,-2245,1
-351,-3449,-2246,1
-354,-3450,-2246,1
-352,-3451,-2247,1
-349,-3451,-2244,1
-348,-3452,-2245,1
-352,-3451,-2245,1
-353,-3447,-2238,1
-354,-3448,-2243,1
-355,-3453,-2253,1
-353,-3454,-2256,1
-350,-3454,-2255,1
-351,-3453,-2248,1
-351,-3452,-2251,1
-353,-3452,-2249,1
-352,-3448,-2247,1
-351,-3450,-2246,1
-348,-3448,-2244,1
-350,-3450,-2245,1
-351,-3453,-2245,1
-349,-3451,-2244,1
-348,-3453,-2246,1
-346,-3454,-2245,1
-346,-3455,-2246,1
-347,-3457,-2248,1
-349,-3455,-2247,1
-349,-3456,-2247,1
-349,-3451,-2250,1
-350,-3452,-2251,1
-353,-3452,-2254,1
-351,-3453,-2252,1
-352,-3448,-2254,1
-351,-3450,-2252,1
-349,-3449,-2250,1
-350,-3447,-2252,1
-353,-3447,-2253,1
-347,-3447,-2254,1
-349,-3447,-2257,1
-352,-3448,-2257,1
-350,-3451,-2257,1
-349,-3452,-2253,1
-347,-3453,-2252,1
-349,-3452,-2249,1
-349,-3449,-2250,1
-349,-3450,-2259,1
-349,-3449,-2262,1
-348,-3451,-2262,1
-350,-3448,-2262,1
-348,-3449,-2260,1
-351,-3448,-2259,1
-350,-3453,-2260,1
-352,-3450,-2261,1
-352,-3448,-2261,1
-352,-3447,-2261,1
-353,-3450,-2261,1
-351,-3447,-2264,1
-348,-3448,-2264,1
-347,-3448,-2264,1
-349,-3446,-2261,1
-350,-3449,-2261,1
-349,-3449,-2259,1
-348,-3450,-2259,1
-348,-3449,-2260,1
-347,-3451,-2259,1
-351,-3453,-2259,1
-351,-3454,-2258,1
-353,-3453,-2256,1
-354,-3455,-2259,1
-357,-3457,-2254,1
-355,-3454,-2253,1
-351,-3453,-2252,1
-351,-3453,-2251,1
-353,-3452,-2253,1
-354,-3452,-2247,1
-350,-3451,-2243,1
-352,-3453,-2243,1
-353,-3451,-2245,1
-354,-3452,-2246,1
-353,-3450,-2246,1
-349,-3454,-2243,1
-350,-3453,-2242,1
-351,-3454,-2237,1
-352,-3452,-2240,1
-353,-3454,-2241,1
-352,-3456,-2243,1
-349,-3457,-2240,1
-350,-3459,-2241,1
-347,-3455,-2241,1
-349,-3457,-2237,1
-351,-3456,-2239,1
-355,-3453,-2238,1
-356,-3453,-2237,1
-357,-3453,-2236,1
-356,-3453,-2233,1
-354,-3454,-2237,1
-352,-3449,-2240,1
-353,-3450,-2243,1
-354,-3455,-2245,1
-351,-3457,-2248,1
-351,-3456,-2247,1
-353,-3455,-2251,1
-353,-3457,-2250,1
-352,-3458,-2246,1
-353,-3458,-2249,1
-358,-3457,-2250,1
-357,-3457,-2246,1
-355,-3459,-2245,1
-353,-3455,-2241,1
-351,-3454,-2234,1
-351,-3454,-2232,1
-352,-3458,-2233,1
-349,-3457,-2232,1
-349,-3458,-2238,1
-350,-3463,-2243,1
-348,-3464,-2249,1
-349,-3468,-2251,1
-351,-3467,-2249,1
-349,-3465,-2250,1
-345,-3460,-2246,1
-343,-3453,-2238,1
-340,-3452,-2224,1
-342,-3453,-2223,1
-345,-3448,-2231,1
-346,-3448,-2236,1
-347,-3457,-2244,1
-350,-3461,-2245,1
-353,-3463,-2242,1
-355,-3461,-2239,1
-354,-3456,-2237,1
-353,-3456,-2234,1
-353,-3455,-2236,1
-353,-3455,-2241,1
-351,-3457,-2242,1
-351,-3460,-2244,1
-353,-3460,-2245,1
-353,-3457,-2244,1
-348,-3459,-2247,1
-347,-3459,-2248,1
-349,-3457,-2246,1
-348,-3458,-2247,1
-343,-3462,-2246,1
-349,-3465,-2246,1
-349,-3465,-2245,1
-350,-3462,-2246,1
-350,-3462,-2242,1
-353,-3458,-2244,1
-352,-3464,-2241,1
-352,-3463,-2240,1
-351,-3462,-2239,1
-351,-3461,-2239,1
-350,-3464,-2241,1
-351,-3464,-2241,1
-351,-3465,-2243,1
-352,-3462,-2243,1
-348,-3464,-2240,1
-349,-3464,-2239,1
-347,-3463,-2237,1
-347,-3465,-2234,1
-347,-3465,-2236,1
-344,-3468,-2238,1
-346,-3477,-2236,1
-346,-3470,-2235,1
-337,-3465,-2236,1
-338,-3462,-2229,1
-338,-3462,-2226,1
-339,-3463,-2221,1
-347,-3463,-2226,1
-342,-3462,-2223,1
-339,-3465,-2223,1
-339,-3464,-2227,1
-338,-3465,-2228,1
-352,-3470,-2233,1
-338,-3480,-2229,1
-343,-3467,-2229,1
-344,-3466,-2233,1
-342,-3466,-2230,1
-401,-3473,-2262,1
-479,-3451,-2233,1
-368,-3495,-2228,1
-287,-3471,-2213,1
-285,-3456,-2225,1
-299,-3459,-2227,1
-317,-3459,-2219,1
-326,-3463,-2220,1
-333,-3468,-2224,1
-339,-3465,-2222,1
-348,-3468,-2229,1
-347,-3474,-2229,1
-348,-3473,-2230,1
-350,-3468,-2231,1
-350,-3467,-2230,1
-340,-3470,-2229,1
-339,-3468,-2230,1
-346,-3474,-2231,1
-342,-3472,-2225,1
-341,-3468,-2219,1
-336,-3468,-2214,1
-335,-3465,-2211,1
-336,-3469,-2214,1
-337,-3470,-2219,1
-341,-3470,-2221,1
-337,-3470,-2221,1
-335,-3470,-2222,1
-334,-3471,-2218,1
-330,-3472,-2223,1
-331,-3474,-2224,1
-334,-3472,-2220,1
-336,-3476,-2219,1
-336,-3476,-2216,1
-338,-3473,-2215,1
-337,-3473,-2216,1
-336,-3475,-2217,1
-334,-3471,-2216,1
-335,-3472,-2213,1
-337,-3473,-2217,1
-338,-3474,-2213,1
-335,-3474,-2209,1
-334,-3473,-2208,1
-334,-3472,-2210,1
-331,-3475,-2212,1
-332,-3477,-2213,1
-330,-3475,-2211,1
-330,-3474,-2209,1
-327,-3476,-2209,1
-329,-3475,-2209,1
-330,-3475,-2213,1
-332,-3476,-2212,1
-331,-3475,-2213,1
-331,-3482,-2209,1
-330,-3484,-2211,1
-333,-3482,-2210,1
-338,-3482,-2209,1
-338,-3484,-2206,1
-335,-3476,-2205,1
-333,-3477,-2207,1
-328,-3479,-2209,1
-325,-3480,-2211,1
-325,-3479,-2209,1
-326,-3480,-2210,1
-328,-3483,-2208,1
-328,-3484,-2208,1
-325,-3479,-2207,1
-328,-3479,-2205,1
-328,-3479,-2205,1
-327,-3476,-2202,1
-323,-3474,-2197,1
-318,-3474,-2194,1
-318,-3474,-2195,1
-316,-3474,-2193,1
-323,-3473,-2192,1
-321,-3478,-2190,1
-325,-3476,-2191,1
-326,-3475,-2191,1
-324,-3476,-2196,1
-323,-3477,-2201,1
-323,-3478,-2203,1
-325,-3478,-2208,1
-326,-3479,-2214,1
-329,-3479,-2216,1
-325,-3481,-2217,1
-333,-3484,-2219,1
-334,-3482,-2217,1
-334,-3483,-2214,1
-335,-3478,-2209,1
-329,-3480,-2200,1
-326,-3480,-2194,1
-325,-3476,-2187,1
-327,-3474,-2180,1
-323,-3477,-2180,1
-323,-3477,-2183,1
-323,-3484,-2193,1
-324,-3490,-2208,1
-326,-3495,-2218,1
-327,-3496,-2221,1
-326,-3496,-2221,1
-325,-3493,-2217,1
-320,-3488,-2216,1
-317,-3479,-2203,1
-317,-3470,-2187,1
-319,-3469,-2184,1
-326,-3468,-2192,1
-328,-3474,-2201,1
-332,-3472,-2208,1
-336,-3472,-2212,1
-336,-3477,-2214,1
-336,-3477,-2210,1
-335,-3478,-2206,1
-336,-3476,-2203,1
-336,-3475,-2201,1
-334,-3473,-2207,1
-332,-3478,-2209,1
-333,-3476,-2211,1
-333,-3476,-2212,1
-333,-3480,-2210,1
-335,-3480,-2209,1
-337,-3481,-2211,1
-335,-3480,-2215,1
-334,-3478,-2215,1
-335,-3475,-2214,1
-336,-3474,-2215,1
-337,-3474,-2212,1
-338,-3472,-2213,1
-334,-3475,-2211,1
-334,-3476,-2214,1
-335,-3479,-2214,1
-339,-3479,-2215,1
-338,-3477,-2213,1
-333,-3478,-2216,1
-332,-3476,-2218,1
-334,-3478,-2219,1
-332,-3479,-2219,1
-331,-3480,-2218,1
-333,-3481,-2219,1
-333,-3481,-2218,1
-332,-3480,-2223,1
-335,-3481,-2223,1
-336,-3485,-2224,1
-336,-3480,-2225,1
-334,-3479,-2224,1
-331,-3480,-2223,1
-335,-3476,-2221,1
-333,-3475,-2220,1
-334,-3476,-2213,1
-333,-3477,-2211,1
-333,-3475,-2209,1
-330,-3473,-2208,1
-331,-3473,-2207,1
-329,-3473,-2204,1
-331,-3475,-2205,1
-332,-3478,-2207,1
-333,-3479,-2208,1
-335,-3480,-2212,1
-338,-3476,-2211,1
-337,-3476,-2210,1
-334,-3475,-2209,1
-333,-3476,-2211,1
-331,-3474,-2208,1
-327,-3473,-2206,1
-326,-3473,-2207,1
-327,-3472,-2209,1
-330,-3473,-2210,1
-330,-3475,-2211,1
-330,-3476,-2211,1
-330,-3475,-2212,1
-330,-3477,-2210,1
-331,-3476,-2206,1
-331,-3474,-2209,1
-333,-3477,-2211,1
-334,-3472,-2211,1
-336,-3473,-2209,1
-341,-3472,-2210,1
-342,-3473,-2210,1
-339,-3475,-2212,1
-337,-3476,-2214,1
-338,-3477,-2213,1
-339,-3476,-2214,1
-339,-3473,-2213,1
-338,-3472,-2214,1
-339,-3472,-2217,1
-340,-3472,-2217,1
-342,-3473,-2215,1
-340,-3472,-2214,1
-336,-3474,-2215,1
-332,-3474,-2213,1
-332,-3473,-2215,1
-332,-3474,-2214,1
-333,-3473,-2212,1
-334,-3471,-2213,1
-337,-3473,-2214,1
-339,-3476,-2212,1
-342,-3476,-2217,1
-339,-3479,-2219,1
-339,-3473,-2220,1
-336,-3472,-2218,1
-340,-3471,-2219,1
-340,-3473,-2220,1
-339,-3471,-2224,1
-337,-3472,-2221,1
-337,-3474,-2215,1
-340,-3475,-2216,1
-338,-3470,-2216,1
-342,-3468,-2218,1
-339,-3470,-2215,1
-336,-3469,-2216,1
-339,-3470,-2218,1
-337,-3473,-2217,1
-337,-3472,-2222,1
-337,-3471,-2223,1
-337,-3476,-2219,1
-339,-3475,-2218,1
-337,-3474,-2224,1
-334,-3472,-2223,1
-337,-3474,-2222,1
-337,-3475,-2220,1
-338,-3470,-2218,1
-338,-3470,-2221,1
-338,-3467,-2229,1
-340,-3468,-2229,1
-344,-3467,-2225,1
-340,-3466,-2226,1
-337,-3467,-2224,1
-338,-3466,-2224,1
-336,-3471,-2223,1
-337,-3471,-2222,1
-340,-3473,-2220,1
-342,-3471,-2220,1
-342,-3469,-2222,1
-343,-3469,-2221,1
-341,-3467,-2221,1
-339,-3468,-2220,1
-340,-3470,-2226,1
-342,-3471,-2225,1
-342,-3473,-2226,1
-343,-3472,-2228,1
-346,-3474,-2231,1
-349,-3472,-2236,1
-353,-3473,-2234,1
-350,-3471,-2234,1
-349,-3470,-2228,1
-346,-3468,-2224,1
-341,-3468,-2223,1
-340,-3466,-2221,1
-347,-3467,-2216,1
-345,-3466,-2215,1
-345,-3466,-2216,1
-343,-3464,-2214,1
-340,-3469,-2219,1
-342,-3473,-2225,1
-343,-3470,-2231,1
-344,-3473,-2235,1
-341,-3473,-2239,1
-340,-3474,-2240,1
-336,-3469,-2231,1
-338,-3466,-2224,1
-340,-3466,-2212,1
-346,-3465,-2215,1
-347,-3467,-2219,1
-345,-3469,-2223,1
-341,-3468,-2229,1
-342,-3470,-2231,1
-346,-3470,-2227,1
-343,-3469,-2220,1
-340,-3468,-2217,1
-344,-3466,-2215,1
-351,-3464,-2218,1
-352,-3463,-2222,1
-350,-3464,-2226,1
-350,-3466,-2226,1
-349,-3467,-2227,1
-347,-3469,-2227,1
-349,-3467,-2229,1
-352,-3466,-2232,1
-349,-3466,-2231,1
-350,-3468,-2230,1
-347,-3470,-2229,1
-346,-3470,-2228,1
-348,-3471,-2227,1
-346,-3471,-2228,1
-345,-3473,-2230,1
-344,-3471,-2233,1
-345,-3470,-2229,1
-348,-3471,-2233,1
-347,-3469,-2231,1
-346,-3470,-2224,1
-343,-3465,-2226,1
-345,-3466,-2224,1
-347,-3466,-2224,1
-350,-3464,-2226,1
-352,-3468,-2227,1
-350,-3468,-2227,1
-347,-3471,-2223,1
-348,-3469,-2220,1
-348,-3471,-2221,1
-344,-3468,-2222,1
-343,-3465,-2221,1
-341,-3470,-2221,1
-342,-3470,-2221,1
-344,-3468,-2222,1
-346,-3466,-2223,1
-345,-3467,-2223,1
-345,-3469,-2218,1
-348,-3468,-2219,1
-347,-3470,-2220,1
-345,-3465,-2219,1
-341,-3468,-2219,1
-346,-3470,-2219,1
-343,-3467,-2220,1
-341,-3470,-2218,1
-342,-3473,-2219,1
-348,-3470,-2223,1
-343,-3469,-2222,1
-345,-3469,-2218,1
-342,-3468,-2220,1
-344,-3469,-2216,1
-340,-3471,-2216,1
-345,-3468,-2217,1
-347,-3466,-2218,1
-347,-3465,-2220,1
-351,-3466,-2221,1
-347,-3466,-2219,1
-351,-3468,-2220,1
-348,-3470,-2216,1
-346,-3470,-2217,1
-343,-3469,-2221,1
-344,-3472,-2220,1
-347,-3470,-2222,1
-351,-3470,-2221,1
-346,-3468,-2219,1
-343,-3469,-2219,1
-343,-3469,-2222,1
-344,-3469,-2221,1
-346,-3468,-2220,1
-347,-3469,-2222,1
-347,-3467,-2222,1
-348,-3470,-2223,1
-346,-3469,-2222,1
-344,-3471,-2220,1
-345,-3470,-2221,1
-349,-3471,-2225,1
-350,-3468,-2226,1
-347,-3469,-2226,1
-346,-3470,-2226,1
-344,-3468,-2229,1
-345,-3467,-2230,1
-346,-3466,-2227,1
-348,-3466,-2226,1
-349,-3466,-2225,1
-349,-3465,-2225,1
-350,-3469,-2226,1
-348,-3466,-2225,1
-349,-3463,-2222,1
-352,-3467,-2221,1
-352,-3467,-2226,1
-353,-3466,-2225,1
-352,-3467,-2224,1
-352,-3464,-2226,1
-349,-3466,-2226,1
-350,-3465,-2225,1
-349,-3467,-2224,1
-352,-3470,-2224,1
-350,-3468,-2223,1
-352,-3470,-2224,1
-353,-3471,-2226,1
-350,-3470,-2225,1
-351,-3474,-2226,1
-350,-3471,-2222,1
-352,-3470,-2223,1
-353,-3470,-2223,1
-352,-3469,-2224,1
-351,-3469,-2228,1
-352,-3470,-2232,1
-350,-3468,-2231,1
-351,-3467,-2226,1
-350,-3468,-2225,1
-354,-3469,-2226,1
-352,-3466,-2224,1
-352,-3466,-2225,1
-352,-3467,-2225,1
-351,-3466,-2222,1
-348,-3468,-2223,1
-350,-3467,-2224,1
-348,-3468,-2224,1
-351,-3469,-2225,1
-352,-3467,-2223,1
-350,-3470,-2224,1
-350,-3468,-2230,1
-353,-3472,-2229,1
-350,-3470,-2230,1
-352,-3469,-2227,1
-350,-3469,-2229,1
-348,-3472,-2229,1
-348,-3468,-2227,1
-349,-3467,-2224,1
-353,-3465,-2222,1
-354,-3465,-2227,1
-354,-3467,-2223,1
-355,-3468,-2223,1
-352,-3467,-2225,1
-351,-3469,-2223,1
-351,-3469,-2226,1
-352,-3467,-2225,1
-353,-3467,-2231,1
-352,-3466,-2234,1
-352,-3465,-2233,1
-354,-3463,-2227,1
-353,-3469,-2232,1
-353,-3468,-2228,1
-354,-3467,-2227,1
-356,-3467,-2226,1
-354,-3467,-2224,1
-351,-3464,-2221,1
-352,-3467,-2217,1
-353,-3467,-2217,1
-353,-3467,-2221,1
-353,-3470,-2226,1
-350,-3474,-2229,1
-351,-3475,-2231,1
-344,-3476,-2230,1
-346,-3476,-2227,1
-346,-3474,-2226,1
-346,-3474,-2224,1
-343,-3466,-2215,1
-349,-3463,-2209,1
-351,-3463,-2211,1
-353,-3464,-2217,1
-351,-3466,-2222,1
-347,-3466,-2222,1
-348,-3467,-2220,1
-353,-3466,-2218,1
-350,-3466,-2215,1
-352,-3465,-2213,1
-353,-3467,-2210,1
-353,-3466,-2214,1
-356,-3468,-2217,1
-356,-3469,-2216,1
-351,-3466,-2216,1
-354,-3467,-2224,1
-351,-3468,-2229,1
-350,-3469,-2231,1
-352,-3466,-2229,1
-354,-3467,-2231,1
-355,-3470,-2229,1
-354,-3467,-2224,1
-355,-3468,-2226,1
-354,-3467,-2222,1
-355,-3466,-2224,1
-355,-3464,-2223,1
-356,-3466,-2221,1
-358,-3471,-2219,1
-356,-3469,-2219,1
-356,-3469,-2220,1
-355,-3468,-2219,1
-356,-3470,-2222,1
-354,-3471,-2226,1
-351,-3470,-2224,1
-351,-3464,-2224,1
-350,-3465,-2224,1
-350,-3466,-2223,1
-347,-3470,-2223,1
-346,-3470,-2224,1
-349,-3469,-2224,1
-350,-3469,-2227,1
-350,-3473,-2224,1
-351,-3473,-2223,1
-354,-3472,-2229,1
-352,-3468,-2228,1
-352,-3467,-2229,1
-350,-3470,-2226,1
-351,-3471,-2225,1
-348,-3471,-2224,1
-350,-3469,-2220,1
-347,-3470,-2216,1
-344,-3472,-2218,1
-349,-3475,-2219,1
-353,-3473,-2222,1
-351,-3470,-2223,1
-349,-3475,-2222,1
-352,-3473,-2220,1
-355,-3472,-2219,1
-353,-3470,-2221,1
-353,-3471,-2220,1
-353,-3473,-2222,1
-354,-3470,-2220,1
-354,-3470,-2221,1
-354,-3473,-2218,1
-354,-3470,-2220,1
-354,-3469,-2219,1
-355,-3472,-2219,1
-353,-3473,-2219,1
-356,-3473,-2226,1
-352,-3472,-2226,1
-353,-3471,-2223,1
-352,-3473,-2226,1
-352,-3472,-2221,1
-350,-3474,-2222,1
-351,-3471,-2218,1
-351,-3472,-2212,1
-353,-3474,-2218,1
-354,-3476,-2219,1
-352,-3478,-2220,1
-351,-3476,-2218,1
-351,-3474,-2217,1
-351,-3474,-2215,1
-355,-3475,-2215,1
-350,-3475,-2212,1
-352,-3473,-2212,1
-350,-3472,-2214,1
-351,-3469,-2209,1
-352,-3470,-2210,1
-350,-3474,-2211,1
-346,-3473,-2211,1
-350,-3473,-2213,1
-349,-3472,-2215,1
-350,-3475,-2214,1
-351,-3474,-2214,1
-352,-3475,-2213,1
-352,-3471,-2211,1
-351,-3471,-2206,1
-353,-3479,-2223,1
-353,-3480,-2227,1
-354,-3479,-2228,1
-354,-3475,-2224,1
-351,-3476,-2215,1
-352,-3476,-2210,1
-350,-3480,-2207,1
-347,-3476,-2208,1
-350,-3473,-2206,1
-348,-3475,-2205,1
-349,-3471,-2201,1
-349,-3475,-2199,1
-349,-3473,-2205,1
-353,-3470,-2202,1
-347,-3471,-2184,1
-343,-3475,-2200,1
-350,-3477,-2210,1
-352,-3478,-2209,1
-351,-3474,-2208,1
-347,-3480,-2210,1
-348,-3478,-2219,1
-349,-3479,-2217,1
-351,-3480,-2215,1
-350,-3477,-2214,1
-348,-3473,-2211,1
-344,-3476,-2208,1
-343,-3475,-2207,1
-343,-3482,-2209,1
-345,-3482,-2211,1
-342,-3479,-2210,1
-344,-3476,-2208,1
-343,-3478,-2205,1
-343,-3480,-2209,1
-343,-3481,-2207,1
-344,-3483,-2209,1
-343,-3482,-2210,1
-345,-3485,-2212,1
-349,-3485,-2212,1
-352,-3487,-2212,1
-350,-3485,-2213,1
-348,-3488,-2212,1
-347,-3485,-2210,1
-347,-3488,-2212,1
-347,-3489,-2210,1
-361,-3489,-2217,1
-339,-3489,-2217,1
-366,-3480,-2229,1
-384,-3492,-2233,1
-426,-3475,-2225,1
-379,-3493,-2211,1
-337,-3494,-2211,1
-323,-3488,-2210,1
-335,-3487,-2215,1
-350,-3489,-2216,1
-353,-3487,-2217,1
-351,-3493,-2219,1
-357,-3498,-2220,1
-371,-3483,-2218,1
-361,-3484,-2204,1
-354,-3485,-2198,1
-345,-3483,-2195,1
-340,-3482,-2190,1
-333,-3487,-2189,1
-329,-3492,-2188,1
-327,-3492,-2184,1
-329,-3493,-2187,1
-329,-3498,-2192,1
-326,-3512,-2198,1
-326,-3520,-2204,1
-333,-3521,-2227,1
-328,-3502,-2221,1
-326,-3501,-2220,1
-331,-3508,-2220,1
-332,-3515,-2223,1
-330,-3508,-2216,1
-329,-3498,-2192,1
-321,-3496,-2176,1
-324,-3487,-2170,1
-330,-3486,-2170,1
-333,-3480,-2172,1
-338,-3480,-2179,1
-337,-3491,-2179,1
-338,-3490,-2180,1
-333,-3493,-2175,1
-333,-3493,-2166,1
-339,-3491,-2169,1
-335,-3495,-2172,1
-333,-3495,-2167,1
-328,-3496,-2169,1
-327,-3500,-2168,1
-328,-3503,-2167,1
-329,-3503,-2170,1
-333,-3503,-2168,1
-334,-3503,-2162,1
-332,-3505,-2168,1
-336,-3505,-2170,1
-333,-3506,-2168,1
-341,-3510,-2167,1
-340,-3509,-2164,1
-338,-3505,-2162,1
-335,-3509,-2160,1
-338,-3507,-2160,1
-340,-3503,-2157,1
-334,-3507,-2151,1
-330,-3511,-2148,1
-331,-3511,-2149,1
-335,-3511,-2152,1
-328,-3508,-2149,1
-327,-3509,-2140,1
-325,-3519,-2138,1
-323,-3520,-2143,1
-320,-3514,-2140,1
-322,-3510,-2132,1
-322,-3511,-2135,1
-326,-3513,-2131,1
-322,-3511,-2127,1
-326,-3508,-2126,1
-322,-3510,-2123,1
-319,-3511,-2123,1
-322,-3510,-2124,1
-322,-3511,-2120,1
-319,-3509,-2120,1
-317,-3509,-2116,1
-319,-3512,-2117,1
-322,-3512,-2116,1
-325,-3513,-2113,1
-325,-3514,-2113,1
-322,-3515,-2122,1
-318,-3514,-2126,1
-318,-3515,-2124,1
-322,-3518,-2122,1
-316,-3519,-2118,1
-316,-3516,-2120,1
-318,-3518,-2125,1
-315,-3516,-2122,1
-317,-3516,-2119,1
-319,-3517,-2121,1
-319,-3519,-2123,1
-320,-3520,-2124,1
-320,-3520,-2122,1
-316,-3517,-2126,1
-316,-3517,-2124,1
-318,-3516,-2129,1
-325,-3515,-2133,1
-318,-3517,-2128,1
-316,-3516,-2121,1
-320,-3516,-2123,1
-318,-3516,-2124,1
-320,-3519,-2127,1
-324,-3517,-2128,1
-323,-3520,-2126,1
-323,-3519,-2126,1
-322,-3515,-2124,1
-322,-3521,-2126,1
-319,-3520,-2126,1
-315,-3520,-2130,1
-313,-3522,-2132,1
-314,-3524,-2138,1
-312,-3528,-2144,1
-311,-3529,-2144,1
-315,-3530,-2150,1
-319,-3529,-2149,1
-319,-3529,-2151,1
-320,-3531,-2151,1
-319,-3528,-2151,1
-323,-3529,-2147,1
-321,-3526,-2149,1
-325,-3525,-2152,1
-321,-3525,-2149,1
-324,-3524,-2147,1
-325,-3524,-2147,1
-323,-3521,-2141,1
-324,-3517,-2134,1
-325,-3517,-2136,1
-324,-3520,-2142,1
-325,-3522,-2142,1
-323,-3523,-2146,1
-322,-3520,-2142,1
-318,-3519,-2142,1
-321,-3519,-2142,1
-322,-3524,-2143,1
-327,-3523,-2144,1
-325,-3521,-2144,1
-326,-3519,-2144,1
-326,-3520,-2144,1
-322,-3522,-2138,1
-322,-3521,-2137,1
-319,-3521,-2136,1
-324,-3523,-2138,1
-323,-3524,-2142,1
-321,-3525,-2144,1
-323,-3527,-2142,1
-324,-3524,-2141,1
-322,-3523,-2140,1
-320,-3523,-2135,1
-321,-3519,-2131,1
-323,-3515,-2131,1
-323,-3514,-2127,1
-320,-3518,-2131,1
-320,-3516,-2132,1
-318,-3520,-2134,1
-320,-3520,-2131,1
-325,-3517,-2131,1
-325,-3515,-2130,1
-327,-3522,-2133,1
-328,-3520,-2134,1
-324,-3520,-2138,1
-322,-3522,-2143,1
-325,-3523,-2144,1
-326,-3521,-2147,1
-327,-3523,-2153,1
-330,-3526,-2158,1
-334,-3526,-2159,1
-332,-3524,-2156,1
-331,-3518,-2152,1
-330,-3511,-2146,1
-332,-3514,-2143,1
-327,-3513,-2139,1
-325,-3515,-2138,1
-321,-3517,-2130,1
-320,-3515,-2127,1
-318,-3519,-2127,1
-315,-3517,-2127,1
-320,-3518,-2133,1
-323,-3524,-2145,1
-324,-3529,-2154,1
-324,-3531,-2157,1
-323,-3531,-2159,1
-325,-3527,-2153,1
-324,-3519,-2148,1
-321,-3512,-2131,1
-319,-3510,-2119,1
-320,-3507,-2117,1
-324,-3510,-2118,1
-328,-3509,-2128,1
-329,-3511,-2136,1
-330,-3517,-2147,1
-331,-3519,-2149,1
-331,-3518,-2151,1
-332,-3516,-2151,1
-328,-3516,-2148,1
-328,-3510,-2146,1
-328,-3511,-2154,1
-332,-3512,-2153,1
-332,-3514,-2154,1
-334,-3515,-2154,1
-334,-3516,-2153,1
-333,-3511,-2153,1
-332,-3514,-2153,1
-334,-3513,-2152,1
-337,-3515,-2156,1
-340,-3517,-2154,1
-343,-3516,-2154,1
-346,-3515,-2154,1
-345,-3513,-2157,1
-341,-3511,-2152,1
-338,-3514,-2151,1
-336,-3514,-2155,1
-336,-3515,-2158,1
-336,-3517,-2158,1
-330,-3518,-2160,1
-332,-3518,-2163,1
-332,-3518,-2164,1
-331,-3516,-2164,1
-333,-3515,-2164,1
-334,-3513,-2162,1
-333,-3514,-2164,1
-334,-3513,-2161,1
-334,-3512,-2160,1
-335,-3512,-2159,1
-335,-3513,-2158,1
-341,-3515,-2158,1
-336,-3516,-2156,1
-338,-3515,-2161,1
-334,-3511,-2152,1
-336,-3515,-2154,1
-337,-3517,-2156,1
-337,-3514,-2155,1
-335,-3512,-2154,1
-330,-3512,-2151,1
-329,-3511,-2156,1
-328,-3512,-2160,1
-329,-3514,-2161,1
-328,-3513,-2162,1
-329,-3518,-2164,1
-329,-3517,-2166,1
-331,-3515,-2163,1
-331,-3517,-2169,1
-328,-3514,-2169,1
-329,-3510,-2164,1
-331,-3511,-2166,1
-329,-3513,-2166,1
-331,-3512,-2165,1
-334,-3513,-2163,1
-331,-3514,-2158,1
-332,-3510,-2154,1
-334,-3508,-2152,1
-337,-3510,-2158,1
-341,-3514,-2156,1
-340,-3514,-2154,1
-342,-3512,-2153,1
-339,-3507,-2142,1
-340,-3509,-2148,1
-344,-3509,-2150,1
-342,-3510,-2153,1
-342,-3512,-2151,1
-343,-3511,-2148,1
-345,-3507,-2146,1
-344,-3510,-2150,1
-344,-3513,-2148,1
-344,-3515,-2150,1
-342,-3517,-2154,1
-341,-3516,-2154,1
-342,-3515,-2157,1
-342,-3513,-2156,1
-340,-3513,-2156,1
-341,-3513,-2159,1
-338,-3511,-2158,1
-339,-3509,-2157,1
-338,-3508,-2155,1
-342,-3511,-2157,1
-342,-3511,-2160,1
-339,-3508,-2161,1
-340,-3509,-2154,1
-342,-3504,-2148,1
-338,-3506,-2145,1
-343,-3513,-2152,1
-347,-3515,-2155,1
-345,-3514,-2158,1
-340,-3511,-2153,1
-342,-3511,-2150,1
-341,-3510,-2152,1
-339,-3510,-2151,1
-340,-3509,-2148,1
-340,-3508,-2152,1
-342,-3506,-2147,1
-340,-3507,-2150,1
-346,-3507,-2152,1
-343,-3509,-2154,1
-346,-3511,-2155,1
-342,-3511,-2153,1
-340,-3514,-2156,1
-345,-3513,-2154,1
-343,-3511,-2155,1
-340,-3507,-2155,1
-341,-3507,-2159,1
-345,-3506,-2165,1
-342,-3508,-2165,1
-343,-3509,-2164,1
-340,-3507,-2166,1
-340,-3510,-2164,1
-340,-3511,-2160,1
-345,-3510,-2161,1
-347,-3511,-2157,1
-343,-3514,-2155,1
-345,-3513,-2158,1
-343,-3510,-2157,1
-343,-3509,-2156,1
-344,-3506,-2155,1
-345,-3506,-2158,1
-345,-3507,-2156,1
-344,-3508,-2157,1
-346,-3510,-2157,1
-350,-3507,-2158,1
-348,-3510,-2160,1
-350,-3505,-2157,1
-347,-3505,-2149,1
-343,-3511,-2154,1
-346,-3507,-2166,1
-351,-3510,-2169,1
-354,-3509,-2169,1
-353,-3510,-2169,1
-354,-3510,-2170,1
-357,-3507,-2166,1
-355,-3507,-2163,1
-351,-3506,-2158,1
-346,-3509,-2159,1
-345,-3509,-2159,1
-350,-3509,-2158,1
-347,-3508,-2156,1
-345,-3507,-2155,1
-343,-3510,-2155,1
-342,-3512,-2159,1
-345,-3512,-2165,1
-346,-3515,-2167,1
-348,-3516,-2168,1
-350,-3513,-2167,1
-350,-3514,-2166,1
-346,-3513,-2166,1
-344,-3507,-2159,1
-338,-3499,-2138,1
-342,-3499,-2135,1
-351,-3501,-2143,1
-344,-3497,-2145,1
-348,-3506,-2157,1
-351,-3515,-2166,1
-351,-3512,-2164,1
-351,-3507,-2158,1
-353,-3509,-2152,1
-352,-3508,-2151,1
-350,-3507,-2152,1
-348,-3504,-2154,1
-353,-3508,-2156,1
-352,-3507,-2160,1
-352,-3508,-2158,1
-353,-3506,-2154,1
-350,-3503,-2155,1
-350,-3504,-2158,1
-351,-3505,-2164,1
-351,-3509,-2167,1
-352,-3510,-2163,1
-351,-3505,-2159,1
-351,-3502,-2155,1
-358,-3503,-2155,1
-358,-3504,-2157,1
-356,-3503,-2160,1
-356,-3503,-2160,1
-355,-3504,-2159,1
-355,-3504,-2160,1
-355,-3503,-2161,1
-359,-3504,-2161,1
-358,-3504,-2164,1
-362,-3504,-2162,1
-358,-3505,-2162,1
-354,-3504,-2163,1
-359,-3503,-2163,1
-354,-3503,-2160,1
-353,-3502,-2155,1
-353,-3506,-2156,1
-349,-3507,-2156,1
-352,-3507,-2157,1
-350,-3506,-2159,1
-354,-3511,-2160,1
-355,-3510,-2162,1
-356,-3507,-2163,1
-351,-3507,-2158,1
-349,-3507,-2159,1
-354,-3509,-2158,1
-356,-3509,-2159,1
-357,-3508,-2160,1
-355,-3506,-2162,1
-356,-3504,-2163,1
-357,-3504,-2165,1
-355,-3508,-2163,1
-356,-3505,-2167,1
-354,-3506,-2169,1
-354,-3505,-2168,1
-352,-3508,-2164,1
-352,-3506,-2163,1
-351,-3505,-2164,1
-351,-3503,-2163,1
-354,-3504,-2159,1
-354,-3503,-2163,1
-354,-3509,-2163,1
-355,-3510,-2164,1
-356,-3504,-2162,1
-354,-3504,-2161,1
-353,-3501,-2160,1
-354,-3502,-2164,1
-354,-3505,-2165,1
-356,-3508,-2166,1
-353,-3506,-2166,1
-354,-3505,-2163,1
-354,-3506,-2160,1
-356,-3505,-2165,1
-360,-3504,-2171,1
-361,-3506,-2171,1
-362,-3506,-2169,1
-367,-3504,-2164,1
-363,-3506,-2163,1
-362,-3507,-2162,1
-360,-3504,-2162,1
-360,-3504,-2158,1
-361,-3506,-2158,1
-359,-3505,-2159,1
-358,-3502,-2159,1
-355,-3503,-2161,1
-356,-3503,-2157,1
-357,-3506,-2156,1
-354,-3505,-2157,1
-351,-3507,-2162,1
-355,-3506,-2162,1
-358,-3504,-2163,1
-359,-3507,-2164,1
-359,-3506,-2166,1
-358,-3505,-2167,1
-361,-3506,-2169,1
-360,-3506,-2167,1
-357,-3508,-2166,1
-357,-3506,-2169,1
-356,-3503,-2165,1
-356,-3503,-2163,1
-354,-3503,-2160,1
-354,-3504,-2159,1
-353,-3506,-2165,1
-352,-3508,-2162,1
-353,-3502,-2162,1
-354,-3503,-2161,1
-356,-3505,-2164,1
-357,-3507,-2167,1
-360,-3510,-2170,1
-359,-3510,-2163,1
-360,-3511,-2163,1
-362,-3507,-2162,1
-363,-3508,-2164,1
-359,-3507,-2163,1
-360,-3508,-2164,1
-359,-3510,-2163,1
-359,-3507,-2164,1
-364,-3508,-2162,1
-367,-3504,-2167,1
-362,-3506,-2164,1
-359,-3505,-2161,1
-357,-3503,-2155,1
-355,-3503,-2154,1
-357,-3503,-2158,1
-357,-3506,-2167,1
-356,-3507,-2163,1
-356,-3507,-2158,1
-358,-3505,-2154,1
-357,-3504,-2152,1
-356,-3505,-2158,1
-356,-3504,-2160,1
-356,-3502,-2161,1
-356,-3504,-2163,1
-355,-3503,-2161,1
-356,-3505,-2162,1
-358,-3506,-2160,1
-355,-3504,-2165,1
-359,-3504,-2165,1
-356,-3506,-2159,1
-362,-3506,-2161,1
-360,-3503,-2161,1
-361,-3504,-2160,1
-355,-3503,-2159,1
-355,-3504,-2160,1
-354,-3510,-2158,1
-355,-3506,-2159,1
-355,-3504,-2160,1
-359,-3501,-2164,1
-358,-3502,-2163,1
-363,-3503,-2165,1
-363,-3505,-2170,1
-360,-3504,-2165,1
-359,-3503,-2170,1
-363,-3506,-2170,1
-362,-3510,-2168,1
-358,-3513,-2161,1
-356,-3509,-2154,1
-351,-3505,-2148,1
-348,-3506,-2151,1
-349,-3510,-2154,1
-353,-3513,-2158,1
-357,-3515,-2166,1
-356,-3514,-2170,1
-356,-3516,-2169,1
-354,-3514,-2169,1
-349,-3516,-2167,1
-348,-3510,-2158,1
-348,-3507,-2140,1
-349,-3504,-2130,1
-350,-3502,-2128,1
-356,-3502,-2140,1
-354,-3504,-2154,1
-355,-3506,-2156,1
-356,-3509,-2152,1
-355,-3509,-2152,1
-358,-3510,-2154,1
-360,-3507,-2155,1
-360,-3508,-2159,1
-356,-3506,-2158,1
-362,-3506,-2151,1
-362,-3508,-2148,1
-361,-3508,-2150,1
-357,-3509,-2150,1
-357,-3507,-2147,1
-360,-3504,-2151,1
-360,-3502,-2159,1
-361,-3504,-2162,1
-363,-3504,-2165,1
-362,-3503,-2159,1
-363,-3502,-2155,1
-357,-3507,-2157,1
-363,-3508,-2161,1
-362,-3511,-2162,1
-359,-3512,-2160,1
-355,-3510,-2157,1
-358,-3510,-2156,1
-359,-3509,-2157,1
-362,-3512,-2159,1
-364,-3513,-2162,1
-361,-3511,-2158,1
-360,-3506,-2158,1
-359,-3508,-2154,1
-358,-3510,-2156,1
-356,-3510,-2156,1
-354,-3511,-2156,1
-353,-3512,-2154,1
-356,-3510,-2152,1
-358,-3513,-2153,1
-353,-3511,-2157,1
-353,-3513,-2155,1
-358,-3510,-2155,1
-358,-3512,-2153,1
-359,-3509,-2154,1
-357,-3512,-2151,1
-354,-3509,-2154,1
-355,-3509,-2153,1
-354,-3513,-2153,1
-354,-3509,-2157,1
-359,-3511,-2157,1
-362,-3515,-2159,1
-360,-3519,-2160,1
-352,-3519,-2155,1
-350,-3518,-2151,1
-351,-3513,-2149,1
-350,-3510,-2143,1
-347,-3510,-2141,1
-348,-3507,-2140,1
-347,-3508,-2139,1
-347,-3506,-2137,1
-345,-3509,-2136,1
-351,-3513,-2142,1
-350,-3518,-2146,1
-351,-3518,-2146,1
-354,-3512,-2144,1
-354,-3512,-2148,1
-355,-3514,-2146,1
-354,-3517,-2145,1
-358,-3515,-2153,1
-357,-3514,-2157,1
-354,-3517,-2157,1
-352,-3517,-2153,1
-352,-3514,-2152,1
-351,-3519,-2158,1
-353,-3517,-2155,1
-354,-3516,-2149,1
-352,-3513,-2148,1
-352,-3514,-2149,1
-356,-3515,-2146,1
-355,-3516,-2144,1
-354,-3512,-2140,1
-352,-3514,-2143,1
-350,-3514,-2147,1
-351,-3515,-2147,1
-350,-3515,-2146,1
-350,-3514,-2147,1
-350,-3514,-2150,1
-352,-3516,-2150,1
-350,-3519,-2153,1
-349,-3520,-2150,1
-348,-3517,-2144,1
-347,-3520,-2143,1
-349,-3518,-2139,1
-350,-3517,-2138,1
-355,-3513,-2138,1
-351,-3516,-2143,1
-347,-3518,-2140,1
-349,-3514,-2139,1
-349,-3515,-2139,1
-349,-3520,-2136,1
-351,-3516,-2134,1
-349,-3513,-2135,1
-350,-3516,-2140,1
-347,-3516,-2143,1
-345,-3522,-2145,1
-350,-3521,-2145,1
-351,-3519,-2139,1
-354,-3522,-2141,1
-351,-3525,-2143,1
-349,-3525,-2142,1
-353,-3524,-2140,1
-349,-3523,-2137,1
-350,-3524,-2138,1
-356,-3529,-2146,1
-351,-3524,-2143,1
-343,-3523,-2140,1
-340,-3525,-2137,1
-341,-3519,-2134,1
-344,-3519,-2135,1
-343,-3522,-2134,1
-343,-3524,-2135,1
-340,-3520,-2140,1
-337,-3518,-2141,1
-348,-3521,-2141,1
-355,-3525,-2144,1
-348,-3525,-2147,1
-345,-3525,-2143,1
-346,-3525,-2139,1
-346,-3528,-2135,1
-345,-3529,-2130,1
-346,-3525,-2127,1
-348,-3540,-2138,1
-341,-3524,-2131,1
-341,-3514,-2125,1
-344,-3516,-2123,1
-340,-3511,-2119,1
-338,-3515,-2113,1
-334,-3512,-2111,1
-335,-3520,-2117,1
-337,-3519,-2120,1
-335,-3522,-2118,1
-335,-3525,-2120,1
-341,-3527,-2123,1
-342,-3525,-2130,1
-348,-3528,-2136,1
-344,-3527,-2143,1
-347,-3526,-2140,1
-347,-3529,-2133,1
-344,-3529,-2127,1
-342,-3530,-2123,1
-344,-3529,-2120,1
-337,-3550,-2121,1
-346,-3522,-2115,1
-332,-3509,-2105,1
-329,-3516,-2102,1
-331,-3519,-2101,1
-329,-3526,-2107,1
-328,-3529,-2113,1
-332,-3532,-2118,1
-332,-3537,-2124,1
-333,-3543,-2131,1
-330,-3542,-2131,1
-328,-3535,-2121,1
-327,-3527,-2112,1
-325,-3521,-2107,1
-324,-3519,-2097,1
-328,-3529,-2099,1
-329,-3578,-2123,1
-346,-3517,-2104,1
-335,-3498,-2099,1
-341,-3516,-2112,1
-340,-3522,-2112,1
-344,-3529,-2118,1
-341,-3529,-2113,1
-344,-3529,-2114,1
-344,-3529,-2115,1
-342,-3529,-2117,1
-343,-3527,-2118,1
-341,-3526,-2118,1
-342,-3530,-2119,1
-342,-3534,-2118,1
-341,-3534,-2122,1
-339,-3530,-2123,1
-337,-3535,-2123,1
-339,-3531,-2120,1
-341,-3538,-2128,1
-336,-3539,-2132,1
-342,-3537,-2136,1
-347,-3537,-2135,1
-343,-3539,-2132,1
-342,-3539,-2130,1
-341,-3539,-2129,1
-344,-3537,-2124,1
-343,-3534,-2118,1
-341,-3533,-2115,1
-338,-3533,-2118,1
-337,-3534,-2118,1
-339,-3535,-2117,1
-343,-3535,-2116,1
-344,-3536,-2115,1
-344,-3532,-2117,1
-343,-3533,-2115,1
-345,-3529,-2114,1
-346,-3530,-2112,1
-345,-3530,-2113,1
-343,-3530,-2109,1
-340,-3528,-2107,1
-344,-3527,-2106,1
-345,-3529,-2103,1
-346,-3527,-2102,1
-346,-3525,-2103,1
-346,-3523,-2102,1
-345,-3521,-2110,1
-345,-3525,-2120,1
-340,-3532,-2125,1
-343,-3534,-2131,1
-338,-3537,-2131,1
-342,-3535,-2135,1
-342,-3536,-2136,1
-343,-3539,-2139,1
-345,-3545,-2140,1
-344,-3545,-2136,1
-342,-3542,-2129,1
-340,-3539,-2117,1
-335,-3533,-2105,1
-334,-3530,-2099,1
-334,-3529,-2102,1
-332,-3530,-2108,1
-334,-3531,-2105,1
-339,-3532,-2108,1
-338,-3532,-2111,1
-339,-3529,-2112,1
-337,-3529,-2109,1
-336,-3529,-2112,1
-342,-3533,-2116,1
-344,-3534,-2118,1
-348,-3532,-2117,1
-349,-3534,-2120,1
-351,-3536,-2118,1
-353,-3538,-2119,1
-349,-3536,-2119,1
-350,-3537,-2120,1
-351,-3538,-2116,1
-347,-3534,-2113,1
-343,-3530,-2109,1
-344,-3531,-2107,1
-342,-3528,-2106,1
-346,-3529,-2109,1
-345,-3530,-2111,1
-345,-3533,-2115,1
-343,-3532,-2118,1
-342,-3532,-2118,1
-343,-3533,-2119,1
-345,-3532,-2120,1
-347,-3534,-2115,1
-348,-3535,-2118,1
-350,-3535,-2124,1
-352,-3540,-2128,1
-354,-3538,-2128,1
-354,-3537,-2124,1
-354,-3538,-2125,1
-355,-3537,-2124,1
-353,-3538,-2124,1
-357,-3537,-2122,1
-351,-3531,-2115,1
-350,-3528,-2113,1
-352,-3525,-2110,1
-352,-3527,-2109,1
-352,-3528,-2107,1
-351,-3529,-2105,1
-351,-3528,-2104,1
-349,-3531,-2101,1
-347,-3530,-2099,1
-348,-3529,-2103,1
-347,-3529,-2111,1
-346,-3530,-2115,1
-346,-3531,-2114,1
