accelerometer_x,accelerometer_y,accelerometer_z,fall
2603,-606,1560,0
2577,-564,1569,0
2508,-540,1548,0
2435,-517,1475,0
2322,-503,1434,0
2173,-534,1345,0
2026,-632,1235,0
1898,-752,1130,0
1809,-892,1100,0
1758,-1048,1127,0
1774,-1196,1236,0
1859,-1319,1401,0
2016,-1435,1586,0
2188,-1532,1760,0
2392,-1614,1868,0
2619,-1678,1914,0
2848,-1741,1912,0
3092,-1774,1858,0
3351,-1790,1785,0
3660,-1758,1733,0
3998,-1695,1718,0
4323,-1603,1756,0
4692,-1491,1835,0
5046,-1371,1949,0
5383,-1252,2037,0
5671,-1138,2099,0
5906,-1037,2128,0
6088,-915,2123,0
6159,-767,2138,0
6140,-588,2192,0
6046,-408,2240,0
5904,-238,2314,0
5664,-83,2421,0
5353,49,2569,0
5058,139,2724,0
4792,242,2898,0
4570,285,3036,0
4384,347,3147,0
4269,383,3189,0
4191,408,3141,0
4174,386,3069,0
4221,328,2936,0
4341,168,2698,0
4487,-90,2364,0
4653,-443,1963,0
4808,-1013,1382,0
4883,-1738,620,0
4780,-2619,-271,0
4555,-3403,-1128,0
4620,-4128,-1212,0
5200,-4819,-666,0
6112,-5275,85,0
6951,-5346,704,0
7370,-5062,1084,0
7180,-4580,1047,0
6600,-4121,944,0
5935,-3614,1061,0
5078,-3016,1132,0
4332,-2636,1037,0
3859,-2398,874,0
3539,-2232,654,0
3346,-2103,403,0
3250,-1986,196,0
3202,-1846,64,0
3193,-1683,38,0
3187,-1502,107,0
3139,-1340,179,0
3041,-1213,227,0
2941,-1128,208,0
2838,-1068,151,0
2744,-992,90,0
2648,-941,16,0
2597,-858,4,0
2537,-751,-5,0
2541,-715,7,0
2625,-724,102,0
2793,-747,290,0
3055,-817,527,0
3255,-912,699,0
3432,-1023,827,0
3572,-1154,911,0
3690,-1253,950,0
3786,-1321,972,0
3839,-1367,979,0
3854,-1395,987,0
3848,-1402,958,0
3817,-1411,931,0
3769,-1398,912,0
3704,-1358,912,0
3633,-1290,909,0
3552,-1233,901,0
3453,-1190,900,0
3350,-1148,885,0
3235,-1094,879,0
3123,-1053,870,0
3004,-1003,858,0
2883,-940,837,0
2767,-902,799,0
2656,-857,761,0
2563,-813,720,0
2488,-774,668,0
2428,-773,649,0
2407,-736,648,0
2401,-693,628,0
2419,-669,624,0
2483,-644,618,0
2561,-636,638,0
2670,-595,659,0
2790,-574,678,0
2915,-547,696,0
3035,-536,712,0
3140,-546,700,0
3228,-562,679,0
3297,-567,661,0
3345,-574,640,0
3397,-601,625,0
3441,-626,615,0
3467,-643,612,0
3487,-638,631,0
3504,-625,680,0
3527,-584,737,0
3539,-556,792,0
3536,-507,845,0
3544,-479,903,0
3563,-448,961,0
3589,-414,1010,0
3605,-404,1049,0
3625,-399,1056,0
3641,-381,1051,0
3645,-332,1029,0
3660,-355,1020,0
3667,-386,985,0
3684,-399,959,0
3691,-444,917,0
3685,-486,861,0
3675,-521,826,0
3667,-532,814,0
3670,-520,867,0
3699,-522,963,0
3742,-526,1066,0
3822,-543,1174,0
3908,-594,1271,0
4017,-683,1350,0
4110,-771,1417,0
4214,-859,1477,0
4313,-946,1548,0
4420,-1043,1593,0
4486,-1115,1612,0
4537,-1160,1624,0
4572,-1170,1660,0
4601,-1145,1708,0
4617,-1073,1771,0
4644,-952,1818,0
4667,-882,1850,0
4680,-816,1843,0
4682,-751,1799,0
4678,-701,1776,0
4672,-630,1749,0
4657,-560,1724,0
4636,-483,1672,0
4604,-411,1617,0
4563,-349,1542,0
4531,-291,1462,0
4526,-258,1365,0
4542,-281,1212,0
4591,-315,1006,0
4685,-381,843,0
4838,-475,747,0
5028,-642,736,0
5254,-926,730,0
5443,-1260,684,0
5554,-1615,521,0
5550,-1971,239,0
5435,-2277,-80,0
5224,-2424,-262,0
4978,-2387,-411,0
4704,-2262,-484,0
4429,-2127,-539,0
4212,-1977,-452,0
4035,-1865,-419,0
3856,-1797,-467,0
3671,-1701,-452,0
3497,-1675,-467,0
3334,-1668,-514,0
3213,-1666,-494,0
3163,-1650,-343,0
3204,-1618,-116,0
3326,-1609,131,0
3472,-1621,293,0
3624,-1684,340,0
3728,-1708,293,0
3808,-1755,206,0
3896,-1842,88,0
4023,-1939,-48,0
4149,-2043,-154,0
4322,-2141,-213,0
4518,-2234,-231,0
4726,-2315,-241,0
4933,-2379,-233,0
5124,-2400,-178,0
5280,-2330,-56,0
5394,-2237,81,0
5474,-2104,271,0
5505,-1983,425,0
5494,-1871,516,0
5425,-1813,501,0
5246,-1786,359,0
5027,-1765,255,0
4854,-1740,254,0
4683,-1629,332,0
4524,-1486,443,0
4383,-1379,527,0
4247,-1281,554,0
4109,-1190,553,0
3977,-1116,539,0
3814,-1037,514,0
3653,-976,513,0
3504,-903,512,0
3354,-833,534,0
3198,-772,547,0
3057,-736,572,0
2914,-750,569,0
2793,-785,566,0
2679,-829,559,0
2593,-886,570,0
2520,-943,599,0
2466,-988,636,0
2422,-1032,680,0
2400,-1070,737,0
2378,-1097,775,0
2351,-1109,792,0
2339,-1122,825,0
2325,-1114,844,0
2303,-1100,857,0
2315,-1092,879,0
2335,-1078,879,0
2342,-1016,909,0
2373,-953,945,0
2416,-916,964,0
2463,-855,984,0
2542,-815,990,0
2623,-771,995,0
2700,-727,1004,0
2758,-662,1031,0
2810,-599,1071,0
2859,-534,1122,0
2891,-456,1179,0
2895,-384,1256,0
2899,-300,1322,0
2898,-232,1389,0
2887,-182,1439,0
2865,-169,1486,0
2856,-145,1511,0
2823,-162,1499,0
2782,-190,1487,0
2707,-248,1457,0
2614,-323,1430,0
2513,-450,1369,0
2418,-579,1293,0
2330,-742,1240,0
2276,-901,1230,0
2243,-1042,1285,0
2253,-1186,1398,0
2292,-1318,1473,0
2373,-1454,1518,0
2502,-1562,1607,0
2669,-1650,1714,0
2890,-1729,1790,0
3137,-1782,1835,0
3396,-1788,1861,0
3667,-1766,1895,0
3955,-1706,1922,0
4231,-1642,1931,0
4530,-1605,1917,0
4813,-1547,1898,0
5083,-1476,1876,0
5311,-1383,1842,0
5496,-1269,1835,0
5632,-1113,1843,0
5713,-910,1893,0
5743,-705,1966,0
5704,-518,2057,0
5594,-347,2165,0
5435,-220,2272,0
5217,-89,2417,0
5000,5,2639,0
4809,72,2806,0
4641,106,2936,0
4510,56,2960,0
4375,20,2929,0
4277,-113,2871,0
4174,-244,2713,0
4138,-422,2485,0
4155,-651,2214,0
4281,-935,1993,0
4508,-1342,1721,0
4802,-1968,1391,0
5146,-2651,992,0
5400,-3498,372,0
5476,-4386,-372,0
5583,-5230,-761,0
5946,-5877,-629,0
6508,-6144,-119,0
6946,-5775,393,0
6930,-4920,629,0
6427,-4023,575,0
5606,-3249,358,0
4743,-2708,174,0
4004,-2290,112,0
3451,-2006,11,0
3071,-1799,-17,0
2877,-1667,49,0
2800,-1572,178,0
2749,-1451,253,0
2746,-1293,349,0
2738,-1136,457,0
2716,-995,558,0
2682,-982,529,0
2658,-1062,435,0
2673,-1155,340,0
2723,-1239,240,0
2809,-1297,175,0
2934,-1305,192,0
3064,-1301,310,0
3223,-1295,487,0
3375,-1312,666,0
3490,-1316,783,0
3613,-1311,872,0
3702,-1298,969,0
3784,-1326,1046,0
3834,-1345,1079,0
3855,-1345,1080,0
3864,-1352,1066,0
3878,-1325,1058,0
3884,-1278,1046,0
3881,-1182,1022,0
3868,-1069,995,0
3832,-961,961,0
3785,-859,915,0
3737,-777,844,0
3663,-701,793,0
3597,-628,782,0
3518,-573,788,0
3426,-543,802,0
3329,-551,806,0
3244,-584,799,0
3148,-619,786,0
3066,-667,775,0
2997,-693,772,0
2920,-718,756,0
2870,-743,742,0
2833,-758,727,0
2809,-747,705,0
2786,-712,670,0
2774,-674,648,0
2769,-641,627,0
2803,-630,593,0
2832,-603,564,0
2877,-599,541,0
2918,-575,533,0
2957,-561,523,0
2994,-553,508,0
3045,-554,520,0
3087,-566,523,0
3138,-577,553,0
3175,-609,534,0
3203,-637,516,0
3221,-674,509,0
3241,-698,539,0
3240,-718,583,0
3222,-741,579,0
3188,-745,599,0
3149,-750,609,0
3112,-745,649,0
3081,-743,737,0
3068,-753,824,0
3078,-754,931,0
3089,-771,1004,0
3113,-813,1052,0
3159,-894,1052,0
3203,-995,996,0
3280,-1092,938,0
3360,-1180,904,0
3417,-1267,844,0
3466,-1313,795,0
3485,-1296,795,0
3499,-1228,825,0
3517,-1112,943,0
3542,-983,1059,0
3568,-902,1164,0
3624,-854,1238,0
3704,-852,1273,0
3814,-872,1309,0
3956,-912,1366,0
4108,-953,1403,0
4275,-989,1450,0
4462,-1020,1514,0
4604,-1020,1598,0
4721,-1020,1659,0
4787,-1005,1682,0
4852,-995,1691,0
4883,-966,1726,0
4934,-910,1771,0
4991,-865,1797,0
5029,-780,1786,0
5067,-700,1757,0
5111,-606,1709,0
5137,-479,1681,0
5171,-289,1654,0
5195,-170,1631,0
5235,-49,1580,0
5271,36,1496,0
5316,99,1432,0
5389,125,1390,0
5437,94,1358,0
5451,-12,1308,0
5422,-217,1256,0
5351,-491,1138,0
5224,-798,829,0
5103,-1023,693,0
4921,-1177,387,0
4655,-1323,-4,0
4332,-1441,-350,0
4029,-1491,-491,0
3793,-1476,-414,0
3644,-1439,-265,0
3523,-1392,-104,0
3432,-1410,0,0
3299,-1472,-138,0
3134,-1577,-325,0
2983,-1663,-349,0
2899,-1722,-197,0
2878,-1757,-6,0
2911,-1811,90,0
2967,-1902,104,0
3048,-2016,69,0
3159,-2111,10,0
3332,-2159,-2,0
3549,-2146,27,0
3802,-2080,120,0
4081,-2039,195,0
4393,-2047,240,0
4716,-2110,276,0
5030,-2162,278,0
5324,-2242,277,0
5582,-2270,281,0
5797,-2259,335,0
5946,-2169,429,0
6051,-2034,547,0
6142,-1870,685,0
6186,-1714,807,0
6212,-1581,874,0
6185,-1458,892,0
6107,-1380,843,0
5964,-1305,767,0
5794,-1240,696,0
5601,-1181,639,0
5375,-1078,606,0
5123,-956,581,0
4847,-847,551,0
4562,-717,532,0
4271,-611,542,0
4003,-502,550,0
3747,-383,565,0
3504,-266,607,0
3266,-170,637,0
3049,-134,645,0
2842,-104,640,0
2650,-98,621,0
2453,-111,602,0
2297,-127,577,0
2171,-168,563,0
2073,-218,549,0
2003,-282,559,0
1946,-362,578,0
1906,-421,615,0
1903,-499,658,0
1909,-560,718,0
1925,-599,791,0
1970,-657,845,0
2028,-720,890,0
2078,-798,925,0
2167,-861,959,0
2245,-905,997,0
2343,-946,1048,0
2448,-952,1122,0
2554,-937,1183,0
2671,-935,1218,0
2795,-930,1235,0
2906,-919,1248,0
2997,-888,1244,0
3070,-853,1247,0
3110,-798,1263,0
3126,-733,1286,0
3117,-663,1308,0
3080,-584,1327,0
3009,-533,1329,0
2916,-507,1326,0
2818,-477,1344,0
2718,-472,1391,0
2622,-473,1446,0
2539,-501,1515,0
2444,-535,1553,0
2339,-591,1596,0
2261,-686,1626,0
2177,-760,1658,0
2124,-876,1703,0
2103,-996,1738,0
2153,-1112,1798,0
2255,-1207,1863,0
2408,-1295,1918,0
2604,-1362,1963,0
2820,-1405,1981,0
3060,-1438,1939,0
3323,-1466,1875,0
3576,-1455,1790,0
3817,-1422,1731,0
4047,-1365,1719,0
4299,-1297,1787,0
4611,-1188,1922,0
4956,-1100,2072,0
5317,-1051,2182,0
5663,-1021,2241,0
5939,-993,2271,0
6105,-988,2292,0
6145,-950,2352,0
6045,-898,2421,0
5860,-827,2469,0
5639,-688,2568,0
5420,-547,2740,0
5249,-423,2880,0
5134,-351,2970,0
5082,-346,2991,0
5114,-422,2903,0
5219,-624,2744,0
5343,-892,2541,0
5479,-1251,2225,0
5532,-1670,1800,0
5406,-2314,1063,0
4905,-3167,-301,0
4270,-4033,-1586,0
4095,-4643,-1813,0
4716,-4949,-843,0
5692,-4810,408,0
6542,-4369,1300,0
6925,-3651,1819,0
6696,-3060,1737,0
5975,-2832,1218,0
5203,-2611,968,0
4504,-2278,923,0
3868,-2064,739,0
3391,-1934,554,0
3093,-1803,497,0
2919,-1645,517,0
2868,-1547,498,0
2885,-1447,529,0
2936,-1278,591,0
2975,-1098,610,0
3011,-957,600,0
3044,-861,521,0
3064,-834,386,0
3088,-829,222,0
3112,-810,59,0
3161,-735,-80,0
3254,-626,-133,0
3391,-498,-74,0
3551,-347,38,0
3730,-254,169,0
3871,-228,287,0
3974,-246,369,0
4028,-314,458,0
4016,-447,547,0
3946,-608,618,0
3865,-799,678,0
3749,-941,702,0
3720,-1053,750,0
3702,-1118,816,0
3709,-1158,884,0
3719,-1194,947,0
3703,-1255,989,0
3659,-1318,1021,0
3598,-1385,1047,0
3522,-1432,1054,0
3420,-1467,1040,0
3288,-1498,1027,0
3155,-1575,1000,0
3009,-1598,960,0
2841,-1601,917,0
2676,-1598,880,0
2513,-1578,834,0
2379,-1548,800,0
2254,-1512,756,0
2157,-1467,717,0
2073,-1389,680,0
2025,-1320,669,0
2009,-1237,648,0
2018,-1174,637,0
2054,-1079,612,0
2096,-931,598,0
2191,-851,582,0
2319,-806,573,0
2475,-750,573,0
2639,-670,607,0
2820,-628,616,0
2971,-603,608,0
3111,-591,584,0
3217,-552,592,0
3318,-498,592,0
3399,-455,573,0
3469,-406,534,0
3530,-398,508,0
3582,-384,522,0
3635,-348,553,0
3662,-303,598,0
3666,-262,639,0
3663,-220,666,0
3640,-196,682,0
3623,-160,678,0
3628,-139,701,0
3641,-152,743,0
3670,-163,787,0
3716,-178,800,0
3751,-173,830,0
3806,-170,880,0
3860,-157,965,0
3903,-155,1058,0
3919,-157,1144,0
3929,-160,1240,0
3914,-135,1304,0
3903,-117,1353,0
3911,-129,1366,0
3931,-151,1395,0
3977,-171,1446,0
4044,-195,1472,0
4101,-262,1479,0
4181,-343,1455,0
4240,-432,1391,0
4287,-530,1359,0
4331,-596,1380,0
4380,-635,1436,0
4451,-625,1490,0
4516,-587,1569,0
4571,-550,1597,0
4621,-524,1620,0
4645,-493,1613,0
4681,-470,1601,0
4717,-439,1587,0
4778,-410,1553,0
4853,-381,1493,0
4909,-378,1404,0
4983,-390,1311,0
5074,-414,1195,0
5160,-435,1057,0
5297,-476,949,0
5485,-563,893,0
5659,-731,870,0
5787,-994,798,0
5853,-1323,663,0
5837,-1672,335,0
5772,-1976,76,0
5666,-2208,-254,0
5429,-2393,-596,0
5132,-2460,-702,0
4814,-2403,-673,0
4537,-2262,-556,0
4313,-2141,-437,0
4104,-2101,-516,0
3845,-2146,-727,0
3571,-2205,-856,0
3310,-2198,-799,0
3115,-2180,-551,0
2966,-2106,-244,0
2897,-1986,83,0
2921,-1931,329,0
3013,-1910,430,0
3123,-1925,446,0
3265,-1927,419,0
3436,-1930,324,0
3657,-1929,252,0
3952,-1939,220,0
4271,-1988,199,0
4602,-2041,185,0
4935,-2069,183,0
5245,-2111,199,0
5516,-2127,235,0
5769,-2128,323,0
5961,-2092,386,0
6066,-2025,452,0
6077,-1910,487,0
6041,-1835,517,0
5999,-1762,547,0
5910,-1669,547,0
5761,-1547,528,0
5570,-1373,494,0
5361,-1190,489,0
5140,-1024,492,0
4898,-878,510,0
4629,-752,478,0
4373,-618,460,0
4122,-481,431,0
3907,-342,424,0
3718,-176,414,0
3578,-14,457,0
3400,126,510,0
3242,238,554,0
3103,265,590,0
2945,273,582,0
2800,239,580,0
2682,179,581,0
2534,112,577,0
2411,37,586,0
2293,-38,602,0
2171,-154,603,0
2048,-268,602,0
1985,-369,656,0
1963,-445,718,0
1955,-543,788,0
1966,-628,844,0
1993,-728,889,0
2031,-816,942,0
2082,-896,995,0
2133,-977,1065,0
2194,-1030,1141,0
2257,-1081,1211,0
2333,-1113,1267,0
2387,-1062,1370,0
2450,-1021,1443,0
2527,-976,1491,0
2635,-956,1498,0
2733,-926,1486,0
2830,-885,1464,0
2933,-826,1441,0
3039,-752,1411,0
3131,-645,1395,0
3213,-561,1371,0
3263,-485,1351,0
3276,-430,1307,0
3273,-387,1285,0
3205,-363,1266,0
3095,-364,1246,0
2969,-399,1203,0
2836,-426,1157,0
2706,-460,1127,0
2576,-508,1102,0
2463,-580,1089,0
2351,-670,1111,0
2292,-751,1194,0
2267,-846,1325,0
2294,-952,1448,0
2369,-1098,1548,0
2500,-1268,1610,0
2673,-1430,1637,0
2888,-1593,1614,0
3168,-1722,1589,0
3485,-1818,1569,0
3828,-1871,1616,0
4188,-1860,1723,0
4565,-1848,1857,0
4936,-1806,1964,0
5275,-1740,2059,0
5586,-1667,2112,0
5811,-1557,2151,0
5980,-1383,2187,0
6032,-1164,2216,0
5990,-878,2282,0
5864,-619,2361,0
5662,-381,2458,0
5439,-186,2588,0
5235,-65,2673,0
5061,30,2732,0
4872,116,2769,0
4712,160,2825,0
4565,191,2860,0
4449,121,2793,0
4391,-21,2641,0
4396,-261,2438,0
4423,-555,2206,0
4439,-951,1848,0
4393,-1539,1254,0
4289,-2303,411,0
4222,-3130,-426,0
4487,-3986,-729,0
5224,-4647,-339,0
6336,-5061,486,0
7415,-5033,1252,0
8012,-4621,1474,0
7957,-3983,1287,0
7364,-3305,994,0
6489,-2649,707,0
5462,-2036,404,0
4513,-1654,62,0
3892,-1381,-65,0
3538,-1166,-28,0
3330,-1017,7,0
3193,-897,48,0
3115,-807,109,0
3062,-736,214,0
3039,-692,328,0
3016,-710,417,0
2968,-776,451,0
2896,-848,396,0
2819,-934,268,0
2810,-1023,178,0
2850,-1082,179,0
2914,-1141,254,0
2981,-1247,337,0
3057,-1377,406,0
3121,-1513,493,0
3172,-1655,618,0
3190,-1759,782,0
3194,-1857,982,0
3179,-1973,1132,0
3143,-2115,1215,0
3114,-2231,1219,0
3074,-2288,1212,0
3048,-2317,1217,0
3033,-2307,1209,0
3018,-2230,1203,0
3020,-2093,1186,0
3015,-1910,1145,0
2999,-1737,1095,0
2991,-1597,1055,0
2958,-1486,1011,0
2913,-1423,945,0
2837,-1355,867,0
2755,-1299,797,0
2679,-1221,750,0
2609,-1173,702,0
2525,-1119,640,0
2451,-1059,594,0
2422,-982,548,0
2405,-910,510,0
2382,-803,507,0
2402,-703,527,0
2429,-624,557,0
2496,-588,584,0
2580,-561,599,0
2686,-575,586,0
2791,-564,573,0
2890,-590,575,0
3009,-599,601,0
3101,-578,607,0
3196,-585,607,0
3276,-576,606,0
3343,-540,611,0
3417,-522,625,0
3489,-482,689,0
3548,-524,726,0
3589,-544,746,0
3624,-571,760,0
3643,-552,782,0
3641,-504,837,0
3643,-415,908,0
3623,-313,991,0
3593,-232,1005,0
3536,-169,971,0
3478,-107,923,0
3411,-61,885,0
3355,12,897,0
3318,105,958,0
3338,116,1080,0
3372,82,1155,0
3418,62,1187,0
3474,8,1186,0
3522,-51,1126,0
3560,-135,1116,0
3609,-187,1149,0
3670,-203,1233,0
3744,-182,1343,0
3852,-167,1467,0
3978,-207,1576,0
4102,-265,1648,0
4228,-358,1703,0
4364,-470,1762,0
4493,-564,1804,0
4616,-665,1786,0
4711,-765,1728,0
4788,-821,1721,0
4836,-815,1716,0
4855,-785,1767,0
4850,-722,1790,0
4838,-627,1800,0
4809,-486,1797,0
4786,-380,1857,0
4749,-272,1897,0
4679,-144,1916,0
4598,-17,1898,0
4520,91,1868,0
4441,211,1847,0
4402,284,1818,0
4368,327,1732,0
4355,314,1595,0
4356,289,1449,0
4395,248,1333,0
4484,178,1288,0
4630,75,1283,0
4795,-104,1226,0
4979,-419,1059,0
5125,-845,712,0
5220,-1289,309,0
5241,-1668,-73,0
5155,-1958,-442,0
5045,-2122,-613,0
4903,-2177,-708,0
4740,-2157,-633,0
4538,-2135,-606,0
4264,-2160,-682,0
3973,-2204,-778,0
3661,-2265,-929,0
3348,-2300,-1093,0
3064,-2314,-1159,0
2853,-2240,-1056,0
2799,-2149,-761,0
2911,-2042,-383,0
3149,-1983,-83,0
3458,-1976,67,0
3798,-2031,167,0
4138,-2107,240,0
4505,-2200,288,0
4881,-2298,321,0
5250,-2397,370,0
5621,-2529,390,0
5977,-2663,373,0
6297,-2778,330,0
6559,-2844,339,0
6749,-2828,408,0
6840,-2760,502,0
6840,-2631,588,0
6801,-2492,654,0
6693,-2298,688,0
6500,-2102,657,0
6240,-1888,582,0
5956,-1671,490,0
5638,-1411,404,0
5329,-1195,325,0
5025,-970,278,0
4721,-750,234,0
4430,-503,229,0
4158,-278,232,0
3917,-81,237,0
3627,87,213,0
3390,257,258,0
3178,399,294,0
2984,511,327,0
2804,599,358,0
2653,641,389,0
2503,640,434,0
2359,603,476,0
2229,518,517,0
2114,403,542,0
2019,291,570,0
1936,167,567,0
1872,29,571,0
1827,-107,585,0
1800,-254,600,0
1791,-404,618,0
1802,-555,673,0
1850,-708,727,0
1865,-787,839,0
1906,-829,975,0
1952,-899,1092,0
1996,-972,1192,0
2033,-1051,1250,0
2083,-1130,1290,0
2139,-1208,1314,0
2191,-1285,1326,0
2271,-1343,1326,0
2349,-1375,1330,0
2436,-1382,1363,0
2516,-1363,1409,0
2622,-1325,1473,0
2720,-1278,1531,0
2818,-1216,1573,0
2898,-1137,1605,0
2955,-1041,1620,0
2990,-919,1635,0
3004,-829,1602,0
3003,-764,1522,0
2979,-708,1459,0
2942,-649,1441,0
2895,-618,1415,0
2849,-609,1365,0
2791,-614,1299,0
2723,-642,1239,0
2678,-708,1238,0
2666,-803,1251,0
2685,-909,1318,0
2737,-1005,1386,0
2832,-1126,1454,0
2959,-1236,1484,0
3136,-1362,1508,0
3346,-1462,1526,0
3583,-1551,1562,0
3846,-1625,1593,0
4123,-1669,1656,0
4420,-1669,1761,0
4717,-1620,1879,0
4999,-1556,1992,0
5256,-1485,2056,0
5480,-1407,2076,0
5679,-1353,2079,0
5812,-1241,2084,0
5891,-1116,2091,0
5922,-952,2146,0
5879,-759,2223,0
5760,-578,2297,0
5594,-403,2381,0
5435,-300,2435,0
5268,-223,2522,0
5117,-205,2571,0
4953,-253,2526,0
4821,-430,2356,0
4752,-683,2089,0
4775,-1000,1830,0
4845,-1306,1626,0
4989,-1653,1480,0
5117,-2015,1194,0
5199,-2577,673,0
5131,-3269,-79,0
5153,-3930,-499,0
5479,-4344,-308,0
6052,-4407,292,0
6607,-4063,1043,0
6824,-3526,1489,0
6630,-3019,1504,0
6124,-2578,1346,0
5469,-2299,1097,0
4769,-2108,768,0
4134,-1934,421,0
3632,-1752,145,0
3285,-1543,39,0
3084,-1309,28,0
2962,-1160,61,0
2881,-1057,76,0
2842,-896,152,0
2860,-857,232,0
2881,-911,267,0
2858,-1024,244,0
2835,-1164,136,0
2827,-1260,54,0
2864,-1302,40,0
2921,-1358,77,0
2994,-1412,190,0
3062,-1477,300,0
3108,-1567,382,0
3144,-1701,430,0
3201,-1828,523,0
3266,-1949,640,0
3341,-2065,782,0
3401,-2125,918,0
3434,-2164,1035,0
3444,-2213,1116,0
3451,-2238,1140,0
3448,-2229,1133,0
3437,-2182,1114,0
3431,-2116,1083,0
3433,-2017,1069,0
3430,-1882,1049,0
3412,-1703,1033,0
3377,-1518,1004,0
3334,-1349,996,0
3291,-1192,975,0
3219,-1066,929,0
3127,-930,880,0
3031,-835,824,0
2927,-797,747,0
2829,-736,679,0
2760,-700,615,0
2680,-624,552,0
2622,-553,520,0
2568,-464,504,0
2511,-365,508,0
2475,-279,516,0
2461,-210,533,0
2462,-160,527,0
2486,-115,517,0
2549,-94,512,0
2642,-110,523,0
2784,-140,540,0
2917,-161,555,0
3064,-172,573,0
3202,-195,590,0
3325,-188,599,0
3442,-198,598,0
3556,-222,610,0
3661,-239,613,0
3726,-272,613,0
3785,-306,633,0
3834,-348,680,0
3859,-362,755,0
3856,-376,825,0
3855,-359,907,0
3819,-333,975,0
3763,-327,1012,0
3693,-311,1026,0
3628,-315,1065,0
3570,-323,1072,0
3517,-326,1053,0
3470,-329,1026,0
3458,-277,1013,0
3468,-290,1066,0
3524,-342,1119,0
3585,-368,1144,0
3650,-381,1198,0
3705,-415,1273,0
3742,-448,1338,0
3762,-470,1390,0
3789,-493,1443,0
3822,-556,1485,0
3877,-640,1530,0
3961,-756,1600,0
4045,-883,1667,0
4107,-1007,1724,0
4168,-1134,1751,0
4224,-1253,1730,0
4267,-1329,1706,0
4299,-1353,1716,0
4333,-1320,1737,0
4353,-1197,1766,0
4367,-1058,1792,0
4384,-935,1802,0
4397,-816,1773,0
4406,-721,1724,0
4421,-652,1645,0
4424,-571,1560,0
4420,-469,1507,0
4444,-375,1499,0
4481,-284,1513,0
4533,-220,1479,0
4591,-192,1382,0
4661,-213,1222,0
4737,-234,1084,0
4821,-288,947,0
4912,-393,748,0
4991,-589,477,0
5014,-837,192,0
4962,-1144,20,0
4866,-1413,-86,0
4753,-1621,-165,0
4647,-1711,-133,0
4570,-1766,-43,0
4432,-1844,-159,0
4173,-2058,-429,0
3818,-2196,-669,0
3435,-2241,-801,0
3124,-2214,-852,0
2930,-2124,-766,0
2872,-2007,-516,0
2943,-1924,-192,0
3119,-1922,95,0
3350,-1992,302,0
3608,-2154,409,0
3893,-2346,468,0
4184,-2552,562,0
4536,-2706,672,0
4926,-2749,846,0
5285,-2737,978,0
5615,-2699,1063,0
5894,-2651,1080,0
6133,-2599,1036,0
6308,-2600,941,0
6369,-2606,839,0
6299,-2523,782,0
6191,-2411,734,0
6075,-2307,703,0
5951,-2186,651,0
5819,-2044,578,0
5676,-1849,532,0
5540,-1642,546,0
5369,-1361,581,0
5173,-1132,604,0
4965,-927,576,0
4736,-713,567,0
4478,-478,565,0
4211,-239,576,0
3932,35,566,0
3665,278,620,0
3432,475,676,0
3216,668,764,0
3040,800,848,0
2904,904,930,0
2735,979,976,0
2604,990,991,0
2491,948,1012,0
2404,890,1012,0
2340,778,991,0
2266,651,946,0
2260,493,917,0
2232,336,844,0
2197,182,791,0
2188,38,750,0
2175,-76,748,0
2171,-195,741,0
2160,-309,734,0
2142,-413,765,0
2129,-521,801,0
2121,-606,842,0
2125,-682,876,0
2132,-734,900,0
2153,-776,946,0
2134,-728,1033,0
2171,-707,1114,0
2218,-717,1148,0
2270,-752,1167,0
2331,-767,1213,0
2411,-804,1282,0
2493,-829,1375,0
2581,-837,1463,0
2656,-857,1561,0
2744,-858,1658,0
2821,-838,1745,0
2898,-847,1804,0
2953,-918,1825,0
2998,-994,1833,0
3010,-1070,1841,0
3017,-1173,1836,0
2985,-1283,1785,0
2964,-1420,1702,0
2902,-1529,1653,0
2849,-1640,1614,0
2809,-1713,1596,0
2819,-1756,1626,0
2863,-1754,1684,0
2933,-1730,1754,0
3045,-1687,1803,0
3198,-1643,1839,0
3361,-1591,1858,0
3536,-1533,1828,0
3741,-1467,1742,0
3957,-1393,1649,0
4156,-1306,1579,0
4384,-1182,1573,0
4607,-1042,1657,0
4843,-893,1797,0
5084,-803,1928,0
5338,-774,2026,0
5590,-789,2068,0
5810,-832,2102,0
5975,-893,2114,0
6014,-896,2125,0
5920,-891,2106,0
5712,-895,2053,0
5454,-861,2086,0
5245,-877,2126,0
5045,-948,2155,0
4892,-1038,2178,0
4774,-1148,2190,0
4740,-1291,2191,0
4814,-1497,2132,0
4963,-1785,2058,0
5184,-2094,1981,0
5456,-2346,1829,0
5679,-2625,1519,0
5615,-2928,692,0
5107,-3298,-473,0
4742,-3575,-911,0
4949,-3564,-264,0
5502,-3262,708,0
5860,-2863,1182,0
5842,-2509,1129,0
5563,-2151,1057,0
5118,-1927,966,0
4657,-1790,954,0
4267,-1648,963,0
3905,-1597,779,0
3571,-1610,557,0
3359,-1604,459,0
3230,-1545,491,0
3147,-1427,566,0
3082,-1295,615,0
3027,-1139,606,0
2978,-1025,585,0
2914,-922,562,0
2853,-840,538,0
2785,-775,485,0
2738,-728,418,0
2699,-692,376,0
2715,-676,324,0
2775,-683,266,0
2888,-666,216,0
3030,-661,209,0
3193,-656,246,0
3351,-671,318,0
3512,-731,387,0
3653,-838,458,0
3775,-944,549,0
3835,-1062,656,0
3849,-1163,760,0
3827,-1296,827,0
3758,-1416,847,0
3675,-1519,830,0
3604,-1577,830,0
3543,-1614,851,0
3481,-1634,872,0
3411,-1638,915,0
3339,-1627,963,0
3269,-1600,1014,0
3195,-1595,1059,0
3118,-1586,1090,0
3050,-1600,1108,0
2990,-1613,1112,0
2918,-1621,1106,0
2827,-1589,1075,0
2758,-1571,1007,0
2682,-1534,939,0
2605,-1459,881,0
2544,-1380,853,0
2525,-1333,844,0
2481,-1196,859,0
2471,-1122,871,0
2458,-990,895,0
2495,-972,911,0
2560,-932,925,0
2624,-802,928,0
2713,-701,924,0
2807,-659,908,0
2899,-654,925,0
2988,-626,907,0
3038,-599,894,0
3084,-550,876,0
3114,-470,866,0
3125,-381,849,0
3147,-315,833,0
3158,-275,837,0
3207,-245,835,0
3256,-252,833,0
3304,-251,839,0
3359,-223,896,0
3395,-182,966,0
3424,-118,1015,0
3436,-69,1036,0
3434,-13,1025,0
3431,48,1045,0
3433,127,1068,0
3457,184,1080,0
3519,214,1096,0
3619,230,1072,0
3735,208,1030,0
3858,165,1014,0
3980,114,1024,0
4076,58,1028,0
4148,5,1014,0
4206,-59,1033,0
4266,-124,1050,0
4310,-176,1088,0
4353,-254,1134,0
4417,-346,1188,0
4476,-434,1253,0
4543,-538,1313,0
4603,-602,1365,0
4678,-668,1431,0
4741,-700,1465,0
4797,-725,1480,0
4859,-733,1511,0
4918,-728,1563,0
4965,-693,1610,0
5019,-637,1656,0
5052,-573,1662,0
5072,-515,1640,0
5068,-439,1584,0
5057,-403,1550,0
5017,-343,1480,0
4963,-269,1421,0
4911,-192,1389,0
4876,-125,1349,0
4843,-68,1307,0
4821,-42,1236,0
4811,-4,1164,0
4819,28,1073,0
4837,30,1057,0
4874,-5,1029,0
4903,-149,1009,0
4926,-417,938,0
4919,-776,699,0
4904,-1179,417,0
4911,-1496,220,0
4821,-1776,-258,0
4681,-1980,-631,0
4556,-2101,-741,0
4457,-2171,-671,0
4359,-2208,-609,0
4235,-2269,-671,0
4081,-2354,-775,0
3889,-2455,-843,0
3702,-2506,-799,0
3537,-2522,-688,0
3390,-2491,-546,0
3288,-2434,-351,0
3255,-2374,-104,0
3301,-2312,110,0
3397,-2252,245,0
3543,-2226,321,0
3697,-2205,330,0
3860,-2180,301,0
4042,-2140,261,0
4207,-2088,248,0
4402,-2076,262,0
4609,-2109,296,0
4813,-2165,275,0
5001,-2201,249,0
5161,-2219,279,0
5289,-2184,322,0
5381,-2132,383,0
5427,-2050,442,0
5423,-1910,528,0
5391,-1787,594,0
5327,-1663,640,0
5222,-1570,672,0
5090,-1459,694,0
4941,-1347,733,0
4797,-1236,774,0
4629,-1122,797,0
4443,-1013,822,0
4258,-933,865,0
4101,-860,896,0
3947,-795,898,0
3779,-738,890,0
3622,-669,872,0
3478,-627,855,0
3337,-582,859,0
3211,-543,853,0
3108,-494,841,0
2994,-460,820,0
2896,-431,828,0
2790,-406,837,0
2683,-409,830,0
2602,-413,798,0
2528,-418,767,0
2479,-421,724,0
2437,-424,720,0
2403,-447,705,0
2383,-475,693,0
2376,-504,703,0
2386,-527,730,0
2415,-555,766,0
2480,-581,815,0
2534,-591,879,0
2602,-616,929,0
2672,-637,1000,0
2747,-648,1053,0
2820,-665,1093,0
2901,-672,1122,0
2984,-694,1150,0
3059,-715,1160,0
3128,-736,1198,0
3181,-769,1248,0
3219,-807,1300,0
3245,-841,1358,0
3237,-867,1427,0
3210,-874,1510,0
3157,-876,1578,0
3088,-859,1635,0
3019,-863,1689,0
2919,-856,1723,0
2833,-888,1759,0
2732,-907,1803,0
2620,-947,1850,0
2513,-1008,1882,0
2401,-1069,1906,0
2269,-1128,1929,0
2132,-1194,1917,0
2012,-1268,1898,0
1918,-1312,1915,0
1870,-1338,1958,0
1879,-1355,1974,0
1945,-1315,1978,0
2089,-1269,1942,0
2263,-1218,1892,0
2474,-1162,1829,0
2690,-1089,1752,0
2930,-1063,1662,0
3173,-1009,1586,0
3413,-950,1571,0
3665,-859,1615,0
3930,-758,1723,0
4196,-673,1884,0
4500,-602,2018,0
4807,-536,2133,0
5116,-484,2207,0
5408,-433,2244,0
5646,-359,2317,0
5794,-203,2462,0
5870,-28,2663,0
5866,144,2859,0
5747,296,2978,0
5498,407,2902,0
5084,405,2605,0
4608,310,2269,0
4245,190,2106,0
4102,41,2060,0
4188,-137,2101,0
4490,-440,2142,0
4859,-852,2140,0
5189,-1399,1934,0
5426,-2164,1263,0
5615,-3047,464,0
6020,-3881,142,0
6786,-4570,424,0
7796,-4922,1067,0
8623,-4812,1591,0
8878,-4415,1611,0
8407,-3755,1403,0
7314,-2906,1140,0
5954,-2291,744,0
4813,-1957,435,0
4092,-1787,320,0
3684,-1729,273,0
3411,-1715,255,0
3245,-1757,234,0
3113,-1820,251,0
2988,-1796,335,0
2839,-1696,493,0
2669,-1567,675,0
2493,-1425,809,0
2293,-1338,842,0
2114,-1277,789,0
1984,-1294,658,0
1879,-1330,513,0
1837,-1405,393,0
1854,-1533,277,0
1972,-1665,208,0
2176,-1778,215,0
2458,-1834,281,0
2782,-1888,405,0
3079,-1875,549,0
3403,-1840,676,0
3686,-1829,804,0
3930,-1810,866,0
4083,-1807,900,0
4144,-1781,907,0
4147,-1720,902,0
4111,-1648,884,0
4066,-1591,858,0
3982,-1490,835,0
3929,-1382,803,0
3875,-1295,760,0
3838,-1216,731,0
3791,-1166,723,0
3759,-1117,725,0
3703,-1048,718,0
3630,-976,727,0
3540,-941,718,0
3413,-933,719,0
3290,-913,707,0
3160,-901,686,0
3013,-888,647,0
2877,-894,595,0
2754,-902,535,0
2636,-887,485,0
2542,-865,441,0
2472,-838,440,0
2434,-786,458,0
2432,-747,498,0
2461,-717,545,0
2524,-700,584,0
2597,-707,607,0
2708,-739,653,0
2826,-774,697,0
2942,-803,733,0
3056,-821,745,0
3169,-831,733,0
3263,-843,695,0
3371,-841,667,0
3468,-834,621,0
3567,-836,579,0
3668,-809,538,0
3766,-778,520,0
3838,-754,499,0
3901,-741,494,0
3903,-663,525,0
3875,-580,554,0
3814,-498,590,0
3754,-435,647,0
3661,-283,704,0
3552,-119,794,0
3451,33,877,0
3373,141,949,0
3306,207,984,0
3260,238,994,0
3201,219,979,0
3152,166,932,0
3126,75,842,0
3104,-34,791,0
3091,-162,771,0
3117,-303,810,0
3162,-430,853,0
3208,-555,898,0
3280,-666,947,0
3365,-773,1015,0
3459,-863,1085,0
3570,-946,1174,0
3673,-1012,1260,0
3770,-1070,1343,0
3871,-1133,1422,0
3976,-1178,1491,0
4075,-1210,1532,0
4180,-1232,1551,0
4299,-1232,1558,0
4405,-1210,1597,0
4520,-1167,1642,0
4628,-1125,1672,0
4724,-1084,1719,0
4792,-1029,1767,0
4841,-953,1823,0
4874,-871,1857,0
4890,-775,1864,0
4871,-674,1878,0
4847,-577,1881,0
4810,-476,1858,0
4775,-353,1823,0
4766,-237,1807,0
4780,-126,1781,0
4824,-47,1707,0
4884,-7,1594,0
4982,0,1456,0
5088,-1,1327,0
5227,-27,1263,0
5377,-105,1224,0
5514,-251,1170,0
5629,-427,1063,0
5706,-627,906,0
5742,-860,665,0
5729,-1062,382,0
5669,-1236,108,0
5552,-1338,-96,0
5372,-1413,-273,0
5176,-1461,-311,0
4864,-1443,-419,0
4578,-1403,-485,0
4338,-1336,-469,0
4198,-1220,-271,0
4119,-1109,7,0
4023,-1030,89,0
3849,-1049,4,0
3617,-1149,-50,0
3367,-1264,-53,0
3113,-1365,-10,0
2881,-1401,86,0
2727,-1387,218,0
2630,-1361,340,0
2612,-1370,401,0
2634,-1335,449,0
2715,-1307,525,0
2855,-1304,557,0
3069,-1358,547,0
3346,-1460,500,0
3645,-1561,453,0
3964,-1655,418,0
4275,-1768,373,0
4575,-1838,339,0
4850,-1909,336,0
5093,-1925,373,0
5314,-1897,447,0
5474,-1812,527,0
5602,-1685,607,0
5671,-1488,671,0
5704,-1328,726,0
5713,-1210,784,0
5689,-1152,780,0
5621,-1093,795,0
5521,-1028,818,0
5382,-1005,802,0
5219,-990,788,0
5052,-982,785,0
4866,-922,800,0
4662,-905,776,0
4480,-920,746,0
4326,-968,699,0
4152,-992,646,0
4003,-1003,624,0
3863,-987,638,0
3716,-941,672,0
3539,-881,733,0
3365,-832,778,0
3161,-765,801,0
2970,-728,810,0
2786,-696,797,0
2597,-680,784,0
2426,-671,775,0
2262,-700,757,0
2120,-742,747,0
2006,-783,747,0
1936,-855,741,0
1874,-893,747,0
1841,-913,763,0
1841,-938,793,0
1857,-925,799,0
1908,-913,839,0
1955,-867,865,0
2023,-816,892,0
2074,-746,925,0
2147,-682,940,0
2222,-633,957,0
2287,-569,993,0
2359,-499,1059,0
2424,-427,1120,0
2497,-363,1195,0
2563,-303,1281,0
2626,-229,1362,0
2670,-189,1460,0
2700,-164,1507,0
2694,-162,1511,0
2667,-178,1482,0
2607,-189,1441,0
2564,-230,1408,0
2527,-284,1378,0
2512,-319,1380,0
2508,-365,1389,0
2502,-449,1391,0
2480,-558,1415,0
2469,-684,1448,0
2462,-854,1475,0
2453,-1040,1521,0
2463,-1221,1597,0
2515,-1405,1665,0
2586,-1544,1719,0
2686,-1644,1742,0
2827,-1725,1760,0
3009,-1800,1764,0
3233,-1881,1769,0
3470,-1953,1775,0
3729,-2027,1783,0
3995,-2054,1840,0
4247,-2029,1959,0
4528,-1935,2124,0
4798,-1831,2251,0
5073,-1723,2303,0
5332,-1592,2312,0
5565,-1438,2299,0
5765,-1299,2277,0
5903,-1129,2250,0
5958,-945,2263,0
5927,-731,2281,0
5777,-493,2319,0
5518,-270,2367,0
5231,-112,2409,0
4956,1,2481,0
4681,56,2512,0
4408,61,2516,0
4154,-7,2472,0
3965,-145,2378,0
3837,-395,2198,0
3826,-719,2002,0
3953,-1121,1811,0
4210,-1587,1615,0
4576,-2023,1409,0
5023,-2567,1154,0
5409,-3162,731,0
5589,-3761,69,0
5718,-4364,-370,0
6132,-4838,-136,0
6796,-4933,533,0
7514,-4635,1373,0
7920,-3974,1994,0
7683,-3278,1958,0
6845,-2792,1369,0
5749,-2456,810,0
4845,-2218,465,0
4164,-1976,172,0
3661,-1775,-71,0
3281,-1629,-226,0
3029,-1511,-214,0
2871,-1398,-86,0
2782,-1323,49,0
2739,-1244,204,0
2702,-1156,366,0
2676,-1080,495,0
2637,-1048,571,0
2619,-1042,588,0
2491,-1068,519,0
2394,-1104,412,0
2339,-1187,291,0
2350,-1212,238,0
2396,-1237,248,0
2515,-1248,326,0
2677,-1261,416,0
2862,-1281,515,0
3079,-1381,616,0
3308,-1528,712,0
3503,-1677,814,0
3658,-1821,934,0
3742,-1874,1082,0
3753,-1880,1178,0
3727,-1856,1211,0
3694,-1789,1204,0
3672,-1704,1178,0
3649,-1610,1134,0
3649,-1520,1090,0
3665,-1412,1068,0
3664,-1292,1054,0
3661,-1199,1056,0
3636,-1104,1045,0
3593,-1027,1015,0
3522,-934,983,0
3422,-838,938,0
3316,-761,884,0
3201,-715,819,0
3075,-683,763,0
2956,-685,682,0
2854,-673,634,0
2743,-631,596,0
2651,-518,605,0
2564,-400,608,0
2482,-281,608,0
2439,-224,616,0
2418,-200,630,0
2431,-195,654,0
2490,-202,707,0
2554,-206,761,0
2662,-207,814,0
2775,-216,863,0
2867,-264,879,0
2938,-311,887,0
2990,-369,880,0
3027,-398,862,0
3082,-434,836,0
3116,-452,779,0
3156,-520,729,0
3204,-524,713,0
3262,-502,738,0
3325,-489,765,0
3404,-446,812,0
3473,-409,873,0
3547,-373,907,0
3583,-335,930,0
3622,-294,954,0
3635,-252,972,0
3638,-233,994,0
3640,-243,991,0
3651,-264,1014,0
3691,-318,1069,0
3741,-388,1152,0
3794,-454,1232,0
3844,-522,1304,0
3850,-561,1339,0
3820,-574,1334,0
3789,-543,1329,0
3759,-483,1349,0
3740,-409,1410,0
3738,-339,1458,0
3765,-280,1528,0
3827,-249,1584,0
3911,-226,1630,0
4042,-220,1710,0
4170,-226,1761,0
4301,-229,1741,0
4419,-240,1669,0
4507,-228,1614,0
4567,-177,1623,0
4630,-99,1675,0
4686,-26,1717,0
4724,55,1744,0
4787,105,1711,0
4824,149,1703,0
4863,170,1681,0
4865,196,1629,0
4864,244,1566,0
4865,304,1577,0
4876,370,1586,0
4900,401,1572,0
4945,378,1541,0
4989,301,1463,0
5052,167,1374,0
5114,35,1281,0
5202,-109,1266,0
5297,-337,1273,0
5347,-634,1183,0
5341,-1015,943,0
5291,-1464,630,0
5192,-1903,318,0
5014,-2204,-23,0
4820,-2443,-357,0
4653,-2493,-551,0
4504,-2462,-577,0
4425,-2457,-522,0
4291,-2512,-575,0
4050,-2558,-716,0
3722,-2607,-889,0
3381,-2619,-1046,0
3104,-2565,-1038,0
2922,-2424,-863,0
2851,-2238,-629,0
2887,-2102,-393,0
3041,-2040,-175,0
3274,-2015,31,0
3563,-2028,191,0
3881,-2086,272,0
4208,-2189,297,0
4534,-2298,322,0
4861,-2377,367,0
5171,-2486,406,0
5466,-2595,452,0
5720,-2711,469,0
5930,-2782,443,0
6104,-2809,412,0
6221,-2807,396,0
6278,-2754,418,0
6282,-2673,505,0
6291,-2522,625,0
6231,-2338,687,0
6108,-2148,646,0
5923,-1974,532,0
5688,-1793,376,0
5404,-1612,248,0
5102,-1384,188,0
4809,-1142,200,0
4544,-901,246,0
4307,-701,318,0
4093,-499,351,0
3843,-292,365,0
3570,-123,356,0
3320,30,353,0
3077,189,372,0
2849,325,407,0
2640,424,456,0
2453,476,507,0
2282,492,547,0
2119,460,573,0
2000,391,593,0
1911,302,618,0
1861,194,654,0
1835,95,695,0
1846,-21,734,0
1864,-138,777,0
1875,-264,818,0
1913,-386,868,0
1977,-506,925,0
2035,-606,988,0
2122,-751,1020,0
2172,-833,1065,0
2245,-926,1079,0
2325,-1029,1100,0
2398,-1107,1118,0
2478,-1154,1129,0
2572,-1201,1131,0
2663,-1223,1133,0
2744,-1243,1130,0
2823,-1235,1119,0
2919,-1222,1124,0
3001,-1187,1149,0
3078,-1129,1209,0
3141,-1056,1272,0
3196,-950,1362,0
3239,-834,1476,0
3257,-715,1579,0
3266,-591,1661,0
3245,-496,1704,0
3205,-410,1681,0
3127,-370,1651,0
3033,-309,1603,0
2916,-296,1531,0
2801,-320,1443,0
2676,-352,1403,0
2557,-424,1374,0
2456,-548,1341,0
2373,-720,1314,0
2333,-894,1295,0
2312,-1057,1327,0
2335,-1170,1413,0
2377,-1246,1522,0
2467,-1296,1614,0
2630,-1323,1690,0
2844,-1330,1744,0
3124,-1337,1759,0
3435,-1318,1782,0
3782,-1278,1855,0
4143,-1203,1977,0
4545,-1141,2074,0
4952,-1115,2138,0
5384,-1129,2215,0
5832,-1174,2295,0
6242,-1228,2396,0
6601,-1284,2489,0
6841,-1319,2553,0
6926,-1328,2584,0
6814,-1235,2625,0
6528,-1108,2654,0
6139,-910,2697,0
5734,-750,2754,0
5386,-636,2743,0
5079,-589,2634,0
4807,-557,2495,0
4551,-552,2417,0
4392,-648,2304,0
4344,-812,2154,0
4407,-1026,2021,0
4523,-1330,1851,0
4622,-1649,1608,0
4621,-2045,1150,0
4529,-2573,452,0
4479,-3113,-206,0
4640,-3649,-399,0
5078,-4075,-90,0
5806,-4387,681,0
6499,-4460,1400,0
6884,-4300,1807,0
6816,-4002,1811,0
6430,-3584,1595,0
5796,-2956,1281,0
4945,-2409,840,0
4139,-2071,425,0
3569,-1866,131,0
3182,-1716,-3,0
2951,-1630,-108,0
2820,-1503,-72,0
2774,-1340,49,0
2751,-1134,166,0
2739,-908,270,0
2741,-722,402,0
2760,-593,534,0
2764,-532,581,0
2767,-498,559,0
2798,-541,506,0
2849,-572,465,0
2922,-577,443,0
3054,-599,460,0
3210,-608,468,0
3381,-618,512,0
3551,-637,577,0
3725,-692,661,0
3876,-772,770,0
3973,-815,872,0
4039,-891,940,0
4079,-998,966,0
4075,-1058,985,0
4046,-1109,1007,0
4003,-1133,1013,0
3965,-1135,998,0
3936,-1107,980,0
3906,-1091,963,0
3859,-1026,975,0
3806,-968,982,0
3744,-917,987,0
3669,-868,1005,0
3569,-816,1001,0
3472,-800,977,0
3363,-779,949,0
3226,-775,908,0
3074,-771,875,0
2902,-761,836,0
2764,-758,817,0
2622,-757,801,0
2489,-725,773,0
2399,-670,746,0
2327,-630,732,0
2263,-589,718,0
2222,-558,693,0
2214,-519,685,0
2229,-478,711,0
2281,-439,735,0
2363,-412,765,0
2480,-393,784,0
2587,-402,800,0
2708,-409,818,0
2809,-390,815,0
2889,-381,839,0
2957,-372,840,0
3023,-373,823,0
3077,-363,817,0
3135,-348,778,0
3196,-334,761,0
3268,-308,747,0
3354,-261,752,0
3443,-193,795,0
3550,-143,869,0
3667,-109,919,0
3734,-82,945,0
3790,-91,915,0
3796,-88,856,0
3764,-100,831,0
3706,-130,831,0
3650,-151,818,0
3618,-172,808,0
3598,-202,793,0
3602,-236,784,0
3628,-281,798,0
3673,-320,834,0
3725,-345,875,0
3768,-363,946,0
3815,-374,1052,0
3852,-385,1144,0
3882,-418,1211,0
3912,-486,1253,0
3952,-545,1334,0
4000,-602,1430,0
4054,-666,1533,0
4115,-734,1613,0
4183,-818,1636,0
4249,-896,1613,0
4331,-990,1607,0
4402,-1056,1613,0
4481,-1077,1644,0
4559,-1015,1709,0
4609,-936,1757,0
4644,-845,1791,0
4625,-753,1774,0
4579,-684,1738,0
4523,-581,1710,0
4471,-474,1688,0
4416,-328,1657,0
4376,-161,1683,0
4350,0,1716,0
4364,129,1706,0
4369,190,1657,0
4408,223,1578,0
4445,233,1495,0
4527,219,1447,0
4647,147,1447,0
4788,24,1372,0
4921,-244,1187,0
5003,-591,912,0
4998,-961,552,0
4884,-1263,158,0
4703,-1516,-187,0
4533,-1664,-329,0
4382,-1682,-307,0
4241,-1653,-289,0
4103,-1706,-354,0
3913,-1824,-507,0
3682,-1955,-644,0
3423,-2031,-741,0
3182,-2052,-754,0
2979,-2070,-760,0
2845,-2064,-710,0
2813,-2058,-550,0
2881,-2056,-322,0
3036,-2054,-127,0
3242,-2067,37,0
3484,-2085,170,0
3733,-2104,256,0
4022,-2150,330,0
4341,-2200,405,0
4692,-2267,507,0
5074,-2371,592,0
5444,-2502,664,0
5790,-2631,699,0
6109,-2738,688,0
6380,-2787,728,0
6595,-2764,770,0
6751,-2698,803,0
6815,-2570,844,0
6800,-2391,855,0
6683,-2186,845,0
6528,-1967,814,0
6339,-1730,754,0
6103,-1489,697,0
5859,-1245,631,0
5574,-1000,567,0
5299,-754,519,0
5000,-527,481,0
4693,-296,468,0
4375,-67,449,0
4081,101,427,0
3789,274,408,0
3522,415,397,0
3267,551,397,0
3046,660,423,0
2842,734,455,0
2657,773,504,0
2486,789,528,0
2356,773,573,0
2238,739,615,0
2140,672,656,0
2062,577,677,0
2023,451,706,0
1990,299,731,0
1981,133,742,0
1970,-41,766,0
1995,-231,799,0
2031,-431,816,0
2093,-629,831,0
2175,-781,887,0
2265,-909,955,0
2341,-1037,999,0
2429,-1168,1005,0
2497,-1289,989,0
2561,-1354,974,0
2611,-1429,969,0
2645,-1500,932,0
2671,-1539,935,0
2697,-1566,965,0
2718,-1490,1094,0
2721,-1370,1272,0
2754,-1221,1392,0
2769,-1093,1466,0
2786,-1091,1415,0
2831,-1128,1325,0
2916,-1139,1208,0
3032,-1147,1059,0
3145,-1137,872,0
3246,-1117,707,0
3337,-1123,627,0
3420,-1217,561,0
3506,-1414,513,0
3628,-1615,528,0
3763,-1811,599,0
3896,-2022,644,0
3977,-2220,653,0
3947,-2393,564,0
3752,-2535,391,0
3447,-2666,142,0
3030,-2753,-147,0
2650,-2739,-346,0
2394,-2636,-368,0
2272,-2442,-268,0
2245,-2202,-97,0
2249,-1987,84,0
2275,-1815,259,0
2278,-1670,405,0
2246,-1539,542,0
2238,-1453,718,0
2272,-1340,947,0
2308,-1148,1284,0
2306,-885,1646,0
2203,-661,1792,0
1934,-547,1376,0
1533,-673,246,0
1135,-897,-1393,0
784,-1134,-3017,0
484,-1401,-4275,0
287,-1649,-4954,0
333,-1894,-4893,0
567,-1782,-3968,0
1125,-1428,-2390,0
1976,-856,-681,0
2963,-107,656,0
3914,696,1590,0
4619,1380,2338,0
5156,1677,2821,0
5466,1508,2465,0
5435,1005,1392,0
5096,373,271,0
4726,-223,-626,0
4532,-640,-1107,0
4517,-873,-1125,0
4922,-1179,-855,0
4928,-1508,-720,0
4945,-2084,-493,0
4935,-2650,-98,0
4895,-3260,318,0
4796,-3837,550,0
4718,-4358,759,0
4722,-4816,1065,0
4842,-5258,1333,0
5017,-5559,1442,0
5230,-5670,1537,0
5512,-5691,1745,0
5881,-5770,2012,0
6179,-5531,2129,0
6773,-5913,2657,0
7180,-6259,2483,0
7413,-6620,1840,0
7558,-6807,999,0
7732,-6952,212,0
8000,-7010,-365,0
8383,-6990,-652,0
8856,-6793,-562,0
9405,-6260,-226,0
10026,-5325,41,0
10651,-4106,200,0
11244,-2847,325,0
11590,-1664,454,0
11610,-811,642,0
11273,-354,851,0
10717,-258,1115,0
10174,-490,1072,0
9816,-862,783,0
9631,-1074,661,0
9615,-1307,762,0
9704,-1765,1003,0
9740,-2039,1369,0
9705,-2328,1569,0
9638,-2507,1624,0
9564,-2611,1554,0
9516,-2637,1439,0
9490,-2591,1284,0
9473,-2545,1110,0
9418,-2517,940,0
9285,-2514,765,0
9035,-2529,495,0
8687,-2557,196,0
8250,-2557,-65,0
7762,-2543,-264,0
7221,-2532,-391,0
6640,-2526,-484,0
6064,-2522,-388,0
5537,-2499,-148,0
5047,-2439,127,0
4549,-2343,345,0
4061,-2201,407,0
3576,-2006,325,0
3122,-1774,109,0
2704,-1577,-121,0
2321,-1437,-354,0
1926,-1343,-571,0
1519,-1291,-704,0
1112,-1260,-798,0
694,-1207,-863,0
257,-1155,-900,0
-171,-1067,-929,0
-633,-960,-934,0
-1118,-811,-959,0
-1646,-591,-981,0
-2255,-360,-1040,0
-2937,-101,-1167,0
-3583,-117,-1274,0
-4107,-512,-1372,0
-4551,-940,-1554,0
-4973,-1396,-1818,0
-5306,-1695,-2078,0
-5434,-1636,-2364,0
-5409,-1242,-2592,0
-5210,-820,-2567,0
-4859,-483,-2315,0
-4464,-161,-1837,0
-4008,166,-1131,0
-3387,355,-180,0
-2688,524,445,0
-1967,725,648,0
-1161,908,935,0
-272,1113,1378,0
567,1253,1567,0
1387,1326,1664,0
2115,1404,1704,0
2744,1408,1579,0
3224,1361,1424,0
3505,1016,996,0
3559,556,451,0
3375,140,-104,0
3000,-193,-573,0
2569,-419,-875,0
2183,-548,-1045,0
1843,-576,-1099,0
1533,-525,-1069,0
1266,-467,-1005,0
1010,-404,-922,0
787,-377,-839,0
562,-341,-768,0
339,-297,-703,0
104,-247,-608,0
-105,-198,-517,0
-328,-153,-451,0
-522,-149,-406,0
-709,-149,-387,0
-855,-163,-374,0
-974,-167,-373,0
-1081,-175,-384,0
-1124,-171,-406,0
-1144,-184,-430,0
-1142,-168,-433,0
-1098,-141,-414,0
-1025,-115,-383,0
-907,-118,-326,0
-771,-147,-263,0
-629,-196,-185,0
-493,-270,-115,0
-370,-356,-54,0
-268,-464,-20,0
-178,-599,10,0
-109,-745,104,0
-90,-848,300,0
-83,-894,470,0
-121,-875,877,0
-127,-979,596,0
-32,-1137,-483,0
106,-1226,-939,0
235,-1717,-1068,0
582,-2539,-1179,0
1105,-3311,-1013,0
1534,-3722,-857,0
2018,-3730,-1045,0
2532,-3657,-1036,0
3128,-3659,-519,0
4020,-3704,392,0
5069,-3695,1164,0
6294,-3909,1332,0
7863,-4099,1457,0
9891,-4093,1857,0
12431,-3991,2391,0
14864,-3944,2385,0
16246,-3511,1722,0
16297,-3082,613,0
15644,-3350,-376,0
14881,-3477,-652,0
14168,-3032,-295,0
13255,-2513,265,0
12123,-2495,684,0
10758,-2527,586,0
9458,-2561,496,0
8355,-2439,660,0
7442,-2005,963,0
6680,-1356,1318,0
6051,-641,1496,0
5573,9,1614,0
5202,441,1652,0
4933,732,1653,0
4759,805,1717,0
4630,726,1739,0
4605,519,1662,0
4760,139,1621,0
5092,-269,1671,0
5494,-675,1692,0
5929,-1055,1693,0
6341,-1407,1670,0
6714,-1769,1655,0
7005,-2158,1649,0
7208,-2563,1646,0
7303,-2948,1621,0
7297,-3247,1554,0
7214,-3414,1463,0
7108,-3472,1374,0
7013,-3473,1274,0
6935,-3427,1201,0
6859,-3338,1126,0
6720,-3219,1037,0
6545,-3091,926,0
6332,-2944,831,0
6119,-2800,777,0
5900,-2654,740,0
5667,-2501,746,0
5467,-2371,788,0
5266,-2243,790,0
5060,-2057,682,0
4746,-1937,620,0
4628,-1553,664,0
4455,-1687,405,0
4059,-1518,351,0
3844,-1058,596,0
3731,-902,579,0
3556,-741,627,0
3516,-692,609,0
3481,-715,518,0
3407,-738,420,0
3339,-720,365,0
3326,-653,375,0
3365,-591,414,0
3409,-550,420,0
3429,-472,308,0
3430,-428,247,0
3386,-475,203,0
3332,-510,124,0
3282,-500,155,0
3292,-591,310,0
3268,-750,362,0
3213,-892,403,0
3147,-1011,476,0
3085,-1119,559,0
3013,-1194,650,0
2953,-1251,754,0
2890,-1289,861,0
2802,-1273,944,0
2727,-1243,1013,0
2665,-1209,1046,0
2614,-1182,1065,0
2568,-1146,1065,0
2523,-1142,1040,0
2509,-1149,993,0
2511,-1116,957,0
2538,-1082,946,0
2582,-1062,961,0
2648,-1028,967,0
2720,-991,955,0
2798,-954,935,0
2868,-964,906,0
2929,-977,862,0
2967,-1018,810,0
2978,-1072,756,0
2964,-1120,736,0
2980,-1127,714,0
2962,-1120,745,0
2930,-1125,785,0
2921,-1108,844,0
2912,-1088,909,0
2921,-1051,1007,0
2946,-1003,1113,0
3049,-955,1215,0
3294,-886,1403,0
3191,-817,1408,0
3096,-764,1426,0
3052,-697,1414,0
2982,-601,1386,0
2922,-524,1387,0
2884,-429,1442,0
2878,-353,1512,0
2891,-317,1602,0
2916,-332,1669,0
2929,-354,1686,0
2918,-391,1698,0
2952,-453,1695,0
2997,-498,1719,0
3090,-534,1736,0
3215,-575,1770,0
3352,-615,1825,0
3506,-662,1883,0
3647,-701,1935,0
3759,-705,1985,0
3819,-642,2028,0
3853,-582,2032,0
3842,-493,2022,0
3796,-410,1988,0
3744,-350,1994,0
3667,-345,2031,0
3591,-345,2089,0
3518,-332,2117,0
3471,-298,2134,0
3443,-256,2126,0
3437,-212,2101,0
3453,-184,2117,0
3481,-148,2185,0
3523,-121,2287,0
3589,-92,2391,0
3640,-38,2497,0
3672,-33,2535,0
3724,-43,2531,0
3764,-46,2526,0
3808,-46,2494,0
3844,-27,2478,0
3900,0,2465,0
3964,13,2434,0
4030,41,2380,0
4099,51,2318,0
4148,55,2274,0
4199,45,2236,0
4256,30,2218,0
4281,41,2216,0
4261,95,2248,0
4224,119,2233,0
4192,104,2169,0
4149,56,2080,0
4104,-57,1954,0
4098,-288,1767,0
4165,-689,1458,0
4384,-1291,1038,0
4695,-2032,561,0
5097,-2871,197,0
5577,-3826,14,0
6090,-4860,0,0
6573,-5843,-5,0
6808,-6578,-99,0
6823,-7007,-186,0
6694,-6526,162,0
6321,-5284,860,0
5808,-3898,1541,0
5200,-2809,1916,0
4537,-2262,1755,0
3986,-2028,1360,0
3591,-1881,1024,0
3395,-1857,812,0
3300,-1956,645,0
3189,-2110,443,0
3046,-2219,265,0
2939,-2294,142,0
2861,-2318,121,0
2829,-2304,121,0
2816,-2281,113,0
2816,-2287,92,0
2811,-2295,94,0
2834,-2288,145,0
2898,-2260,213,0
3002,-2215,291,0
3129,-2142,361,0
3260,-2049,383,0
3366,-1955,379,0
3446,-1888,302,0
3537,-1817,223,0
3630,-1725,149,0
3749,-1626,126,0
3869,-1504,179,0
3979,-1364,313,0
4055,-1251,446,0
4100,-1181,568,0
4090,-1139,620,0
4014,-1147,620,0
3930,-1171,601,0
3854,-1202,588,0
3780,-1238,618,0
3733,-1265,678,0
3698,-1298,727,0
3683,-1361,751,0
3642,-1457,723,0
3555,-1566,668,0
3451,-1647,651,0
3367,-1702,672,0
3261,-1759,684,0
3169,-1808,693,0
3071,-1843,689,0
2964,-1860,697,0
2842,-1819,708,0
2732,-1723,757,0
2647,-1666,792,0
2565,-1568,779,0
2478,-1426,713,0
2421,-1309,625,0
2399,-1218,524,0
2406,-1096,460,0
2450,-986,434,0
2525,-907,427,0
2636,-872,458,0
2764,-847,483,0
2885,-822,503,0
3021,-804,510,0
3156,-757,505,0
3284,-699,489,0
3390,-648,444,0
3482,-614,385,0
3557,-582,325,0
3597,-541,279,0
3607,-518,228,0
3607,-496,207,0
3613,-441,261,0
3629,-400,331,0
3632,-370,409,0
3624,-357,453,0
3595,-336,524,0
3580,-368,598,0
3550,-396,660,0
3525,-406,706,0
3512,-417,746,0
3482,-416,787,0
3476,-447,855,0
3473,-476,897,0
3462,-528,912,0
3468,-572,920,0
3467,-627,947,0
3471,-686,988,0
3476,-733,1005,0
3485,-780,1033,0
3500,-814,1036,0
3505,-821,1009,0
3551,-821,981,0
3607,-826,973,0
3669,-835,973,0
3741,-845,945,0
3850,-865,920,0
3944,-889,890,0
4045,-913,882,0
4143,-950,910,0
4244,-996,940,0
4344,-1036,947,0
4440,-1065,985,0
4535,-1104,1082,0
4617,-1130,1204,0
4705,-1169,1340,0
4777,-1200,1478,0
4831,-1251,1555,0
4862,-1269,1601,0
4879,-1285,1639,0
4904,-1306,1674,0
4918,-1332,1708,0
4933,-1353,1739,0
4908,-1370,1750,0
4869,-1364,1734,0
4815,-1358,1700,0
4745,-1326,1657,0
4688,-1297,1610,0
4624,-1251,1551,0
4593,-1190,1490,0
4590,-1140,1398,0
4589,-1118,1279,0
4617,-1127,1064,0
4637,-1140,844,0
4690,-1180,691,0
4752,-1214,586,0
4818,-1286,498,0
4884,-1347,426,0
4919,-1420,288,0
4920,-1483,216,0
4843,-1540,165,0
4693,-1590,15,0
4483,-1601,-178,0
4258,-1594,-287,0
4051,-1535,-338,0
3869,-1477,-326,0
3725,-1375,-162,0
3614,-1323,29,0
3539,-1336,182,0
3442,-1457,55,0
3340,-1624,-105,0
3283,-1772,-179,0
3283,-1834,-122,0
3309,-1822,-49,0
3332,-1695,0,0
3345,-1567,0,0
3403,-1430,10,0
3504,-1338,23,0
3648,-1258,49,0
3813,-1195,66,0
4032,-1177,104,0
4263,-1187,151,0
4507,-1213,179,0
4746,-1233,199,0
4963,-1276,210,0
5140,-1299,219,0
5288,-1285,279,0
5421,-1284,351,0
5510,-1261,443,0
5566,-1207,537,0
5593,-1156,611,0
5609,-1134,652,0
5583,-1114,686,0
5515,-1126,681,0
5408,-1142,642,0
5290,-1144,606,0
5156,-1111,575,0
4971,-1059,544,0
4780,-1039,498,0
4562,-1009,439,0
4360,-969,409,0
4140,-923,407,0
3943,-877,398,0
3732,-841,384,0
3524,-830,354,0
3325,-809,334,0
3129,-795,340,0
2934,-774,368,0
2761,-740,427,0
2606,-723,495,0
2466,-734,558,0
2354,-764,622,0
2266,-810,682,0
2197,-878,742,0
2134,-946,782,0
2069,-993,837,0
2018,-1060,858,0
1971,-1124,888,0
1933,-1177,943,0
1922,-1223,1030,0
1919,-1262,1099,0
1937,-1295,1167,0
1974,-1332,1205,0
2027,-1378,1220,0
2092,-1408,1182,0
2199,-1447,1122,0
2308,-1460,1074,0
2419,-1475,1022,0
2536,-1447,986,0
2674,-1415,969,0
2781,-1379,983,0
2906,-1323,1013,0
3019,-1268,1044,0
3135,-1190,1066,0
3229,-1141,1097,0
3301,-1068,1107,0
3314,-1010,1148,0
3309,-960,1183,0
3226,-866,1205,0
3100,-773,1257,0
2956,-667,1318,0
2793,-571,1365,0
2655,-501,1406,0
2540,-459,1448,0
2449,-419,1520,0
2399,-398,1630,0
2365,-393,1759,0
2356,-410,1906,0
2368,-446,2015,0
2408,-503,2042,0
2454,-591,2015,0
2521,-669,1973,0
2636,-732,1966,0
2771,-764,1979,0
2951,-778,2013,0
3172,-812,2029,0
3388,-881,1980,0
3617,-952,1909,0
3828,-1034,1823,0
4012,-1099,1761,0
4155,-1108,1733,0
4328,-1078,1785,0
4538,-993,1945,0
4826,-942,2134,0
5164,-897,2307,0
5522,-885,2455,0
5850,-876,2583,0
6093,-838,2685,0
6246,-797,2731,0
6267,-736,2775,0
6172,-661,2797,0
5976,-549,2840,0
5757,-449,2885,0
5571,-357,2926,0
5426,-329,2892,0
5318,-362,2762,0
5247,-469,2506,0
5222,-702,2176,0
5181,-1065,1740,0
5048,-1526,1149,0
4802,-2180,291,0
4507,-3019,-700,0
4443,-3805,-1227,0
4871,-4357,-862,0
5741,-4533,181,0
6702,-4236,1430,0
7261,-3679,2076,0
7071,-3033,1963,0
6387,-2451,1698,0
5466,-1970,1507,0
4540,-1693,1274,0
3835,-1615,975,0
3353,-1664,744,0
3046,-1683,671,0
2848,-1669,643,0
2730,-1625,610,0
2669,-1506,642,0
2645,-1379,677,0
2650,-1235,673,0
2659,-1094,671,0
2659,-955,690,0
2634,-852,663,0
2596,-774,559,0
2571,-711,402,0
2582,-640,266,0
2646,-566,196,0
2764,-465,202,0
2976,-367,286,0
3217,-283,405,0
3509,-266,568,0
3779,-288,712,0
4001,-342,869,0
4156,-486,1002,0
4285,-669,1122,0
4369,-850,1196,0
4391,-997,1226,0
4372,-1117,1167,0
4336,-1215,1110,0
4290,-1259,1045,0
4216,-1247,993,0
4141,-1226,938,0
4080,-1211,900,0
3997,-1176,889,0
3899,-1147,873,0
3786,-1129,848,0
3648,-1098,819,0
3503,-1073,795,0
3321,-1069,734,0
3132,-1068,674,0
2932,-1078,608,0
2728,-1069,522,0
2528,-1059,449,0
2355,-1062,385,0
2186,-1029,331,0
2050,-994,297,0
1950,-960,291,0
1854,-910,283,0
1778,-844,317,0
1742,-797,364,0
1741,-774,394,0
1779,-781,425,0
1836,-782,425,0
1927,-794,436,0
2046,-804,447,0
2212,-818,459,0
2396,-821,495,0
2593,-853,526,0
2795,-899,551,0
2964,-918,564,0
3141,-934,578,0
3309,-928,589,0
3452,-918,584,0
3600,-880,588,0
3737,-833,624,0
3851,-755,676,0
3961,-722,612,0
4022,-688,538,0
4075,-663,465,0
4101,-604,419,0
4109,-500,390,0
4115,-392,414,0
4115,-309,477,0
4119,-219,560,0
4114,-132,619,0
4109,-73,703,0
4100,-15,751,0
4074,3,796,0
4027,42,832,0
3986,66,887,0
3942,80,960,0
3918,89,1022,0
3918,3,1059,0
3929,-42,1090,0
3949,-136,1147,0
4001,-240,1202,0
4057,-350,1208,0
4107,-446,1182,0
4170,-534,1139,0
4236,-577,1156,0
4317,-575,1207,0
4392,-553,1291,0
4441,-520,1372,0
4492,-470,1423,0
4525,-405,1427,0
4559,-372,1404,0
4587,-337,1379,0
4613,-308,1364,0
4636,-260,1399,0
4685,-209,1279,0
4753,-220,1211,0
4831,-239,1024,0
4952,-295,858,0
5160,-395,815,0
5411,-590,867,0
5653,-852,839,0
5836,-1199,704,0
5890,-1576,530,0
5840,-1961,244,0
5697,-2291,-53,0
5468,-2488,-380,0
5100,-2516,-732,0
4701,-2436,-860,0
4360,-2291,-728,0
4144,-2190,-551,0
3957,-2156,-631,0
3768,-2220,-845,0
3577,-2298,-1011,0
3434,-2409,-1022,0
3374,-2478,-928,0
3361,-2444,-758,0
3449,-2369,-500,0
3617,-2263,-239,0
3830,-2190,-19,0
4059,-2147,133,0
4253,-2173,232,0
4449,-2234,292,0
4667,-2335,332,0
4900,-2443,324,0
5118,-2577,273,0
5337,-2667,211,0
5538,-2742,163,0
5749,-2786,139,0
5919,-2782,177,0
6047,-2719,241,0
6106,-2637,243,0
6060,-2528,206,0
5942,-2433,147,0
5820,-2318,145,0
5700,-2180,198,0
5595,-2031,280,0
5453,-1849,348,0
5287,-1688,410,0
5063,-1522,454,0
4811,-1372,448,0
4550,-1226,441,0
4270,-1064,431,0
4012,-912,427,0
3729,-752,420,0
3464,-612,428,0
3214,-473,440,0
2998,-351,459,0
2796,-274,473,0
2628,-202,509,0
2483,-140,552,0
2379,-101,604,0
2303,-87,655,0
2247,-89,707,0
2223,-111,754,0
2223,-136,784,0
2245,-192,812,0
2285,-273,847,0
2349,-380,880,0
2402,-474,908,0
2464,-578,932,0
2525,-681,935,0
2583,-784,926,0
2625,-880,896,0
2672,-958,873,0
2727,-1015,855,0
2789,-1044,852,0
2822,-998,881,0
2869,-944,915,0
2912,-902,949,0
2960,-831,996,0
2998,-770,1016,0
3045,-702,1041,0
3094,-643,1047,0
3123,-586,1022,0
3161,-555,1014,0
3210,-551,1032,0
3231,-534,1069,0
3248,-508,1121,0
3244,-495,1167,0
3231,-455,1217,0
3227,-427,1323,0
3180,-370,1410,0
3139,-321,1485,0
3070,-286,1502,0
2972,-274,1495,0
2864,-245,1463,0
2746,-251,1460,0
2617,-268,1482,0
2477,-317,1499,0
2337,-397,1506,0
2199,-513,1506,0
2087,-630,1521,0
2001,-761,1559,0
1951,-887,1604,0
1951,-1032,1691,0
1987,-1137,1809,0
2059,-1224,1899,0
2186,-1347,1920,0
2355,-1460,1911,0
2551,-1548,1885,0
2783,-1598,1872,0
3050,-1654,1834,0
3349,-1686,1812,0
3672,-1708,1819,0
3995,-1666,1897,0
4307,-1632,1984,0
4647,-1577,2056,0
4960,-1523,2096,0
5260,-1468,2109,0
5514,-1403,2105,0
5721,-1311,2097,0
5850,-1186,2107,0
5887,-1022,2132,0
5811,-831,2188,0
5669,-646,2263,0
5447,-491,2339,0
5190,-395,2340,0
4908,-372,2359,0
4672,-408,2332,0
4507,-496,2314,0
4414,-642,2314,0
4478,-889,2253,0
4683,-1216,2195,0
5007,-1583,2133,0
5430,-1922,2030,0
5957,-2339,1972,0
6520,-2698,1914,0
6828,-3059,1394,0
6601,-3587,154,0
6144,-4088,-907,0
6088,-4463,-992,0
6475,-4475,-225,0
6819,-4015,690,0
6678,-3206,1144,0
6092,-2506,1160,0
5268,-2200,912,0
4525,-2216,634,0
4078,-2222,529,0
3743,-2148,454,0
3429,-2109,309,0
3192,-2085,245,0
2999,-1982,333,0
2847,-1821,432,0
2728,-1625,573,0
2613,-1433,691,0
2494,-1289,755,0
2378,-1207,791,0
2265,-1202,709,0
2181,-1252,572,0
2145,-1295,466,0
2145,-1286,361,0
2194,-1249,237,0
2318,-1230,134,0
2499,-1197,84,0
2754,-1171,121,0
3070,-1162,205,0
3404,-1151,319,0
3705,-1151,443,0
3961,-1158,577,0
4105,-1158,699,0
4165,-1189,782,0
4142,-1231,807,0
4083,-1294,778,0
3989,-1350,733,0
3935,-1390,691,0
3901,-1404,655,0
3905,-1410,639,0
3927,-1402,631,0
3959,-1397,630,0
3970,-1381,634,0
3950,-1349,640,0
3894,-1300,638,0
3797,-1249,647,0
3665,-1206,657,0
3533,-1178,677,0
3382,-1122,678,0
3218,-1074,665,0
3051,-1039,639,0
2907,-1003,633,0
2775,-956,642,0
2642,-877,632,0
2523,-820,611,0
2424,-771,580,0
2355,-753,583,0
2314,-689,582,0
2319,-634,586,0
2357,-598,610,0
2427,-560,613,0
2519,-519,636,0
2622,-489,657,0
2731,-465,670,0
2849,-443,686,0
2952,-434,684,0
3034,-442,679,0
3118,-452,632,0
3216,-485,586,0
3304,-487,563,0
3420,-494,581,0
3515,-493,604,0
3617,-483,609,0
3686,-444,613,0
3727,-399,661,0
3754,-356,701,0
3750,-307,752,0
3729,-254,793,0
3691,-202,850,0
3657,-169,891,0
3591,-156,894,0
3553,-175,872,0
3534,-217,859,0
3533,-259,866,0
3531,-276,893,0
3555,-306,929,0
3566,-341,958,0
3591,-387,953,0
3589,-439,931,0
3591,-485,909,0
3598,-544,920,0
3612,-595,994,0
3627,-614,1073,0
3651,-674,1172,0
3699,-746,1242,0
3748,-846,1295,0
3825,-935,1326,0
3899,-1002,1322,0
3991,-1063,1284,0
4090,-1102,1275,0
4176,-1111,1301,0
4297,-1105,1365,0
4420,-1095,1439,0
4528,-1098,1485,0
4636,-1098,1519,0
4718,-1111,1525,0
4787,-1105,1534,0
4843,-1077,1573,0
4893,-1014,1637,0
4916,-921,1651,0
4935,-782,1681,0
4951,-651,1713,0
4985,-497,1718,0
5027,-365,1658,0
5069,-287,1547,0
5117,-232,1405,0
5181,-192,1265,0
5300,-154,1179,0
5450,-159,1180,0
5621,-196,1207,0
5769,-321,1207,0
5854,-505,1070,0
5844,-753,825,0
5745,-1041,542,0
5550,-1258,255,0
5237,-1355,-28,0
4905,-1296,-207,0
4569,-1118,-196,0
4232,-897,-152,0
3954,-817,-195,0
3687,-798,-344,0
3415,-795,-499,0
3138,-776,-510,0
2908,-773,-451,0
2704,-807,-516,0
2523,-809,-563,0
2430,-859,-490,0
2455,-919,-292,0
2600,-1026,-52,0
2824,-1155,115,0
3097,-1297,240,0
3409,-1497,303,0
3769,-1734,351,0
4094,-1907,365,0
4371,-2047,352,0
4644,-2192,299,0
4897,-2344,240,0
5135,-2480,170,0
5353,-2608,90,0
5540,-2710,10,0
5717,-2768,-2,0
5868,-2767,46,0
6016,-2701,148,0
6131,-2573,264,0
6222,-2429,367,0
6260,-2294,428,0
6249,-2171,442,0
6122,-2024,410,0
5913,-1896,352,0
5636,-1770,299,0
5338,-1631,270,0
5015,-1501,260,0
4713,-1345,253,0
4424,-1172,250,0
4156,-1015,263,0
3922,-842,298,0
3693,-700,333,0
3471,-541,381,0
3257,-414,428,0
3021,-304,466,0
2824,-185,504,0
2671,-88,571,0
2497,-38,596,0
2355,1,624,0
2260,16,656,0
2164,9,668,0
2081,-27,676,0
2048,-82,685,0
2030,-152,697,0
2029,-271,705,0
2054,-385,716,0
2094,-506,753,0
2151,-624,790,0
2237,-738,843,0
2287,-821,872,0
2343,-923,904,0
2415,-1021,913,0
2493,-1100,938,0
2561,-1164,962,0
2629,-1197,1018,0
2721,-1205,1073,0
2786,-1200,1135,0
2836,-1186,1194,0
2900,-1149,1258,0
2946,-1106,1300,0
2985,-1055,1353,0
3020,-1004,1403,0
3034,-931,1429,0
3039,-857,1443,0
3024,-780,1460,0
3004,-690,1482,0
2971,-620,1492,0
2951,-588,1469,0
2932,-563,1443,0
2917,-555,1459,0
2882,-562,1462,0
2852,-598,1498,0
2793,-651,1508,0
2721,-694,1496,0
2671,-773,1498,0
2624,-846,1534,0
2625,-939,1604,0
2663,-1008,1699,0
2730,-1097,1790,0
2834,-1196,1859,0
2951,-1286,1898,0
3079,-1375,1900,0
3222,-1465,1871,0
3380,-1537,1836,0
3550,-1569,1836,0
3755,-1567,1892,0
3996,-1513,2004,0
4276,-1432,2123,0
4627,-1325,2268,0
4971,-1208,2399,0
5301,-1108,2479,0
5554,-974,2563,0
5759,-853,2620,0
5868,-701,2666,0
5900,-511,2751,0
5891,-332,2829,0
5816,-135,2905,0
5690,35,3023,0
5544,183,3126,0
5385,298,3212,0
5233,370,3243,0
5121,400,3226,0
5050,311,3110,0
5028,140,2885,0
5007,-101,2547,0
5021,-533,2097,0
4998,-1087,1533,0
4941,-1728,880,0
4835,-2684,-84,0
4669,-3764,-1167,0
4612,-4736,-2026,0
4900,-5478,-1925,0
5662,-5805,-964,0
6554,-5554,275,0
7074,-4821,1126,0
6817,-3935,1218,0
6074,-3267,1070,0
5183,-2825,895,0
4420,-2537,842,0
3894,-2272,825,0
3495,-2035,722,0
3266,-1891,623,0
3133,-1697,619,0
3065,-1458,609,0
2992,-1180,573,0
2942,-946,543,0
2876,-738,482,0
2827,-581,438,0
2792,-469,393,0
2721,-393,335,0
2633,-342,265,0
2557,-359,147,0
2535,-373,58,0
2515,-355,32,0
2547,-362,91,0
2638,-368,198,0
2741,-444,311,0
2862,-561,399,0
2987,-765,481,0
3132,-959,579,0
3256,-1107,716,0
3386,-1245,889,0
3483,-1391,1037,0
3534,-1533,1116,0
3569,-1639,1148,0
3569,-1710,1144,0
3562,-1723,1114,0
3544,-1705,1062,0
3520,-1653,1001,0
3488,-1599,925,0
3479,-1528,862,0
3461,-1448,830,0
3433,-1356,809,0
3370,-1288,747,0
3308,-1202,710,0
3248,-1158,657,0
3169,-1128,595,0
3091,-1064,561,0
3005,-995,529,0
2911,-919,501,0
2823,-854,493,0
2758,-799,483,0
2710,-764,485,0
2680,-743,490,0
2670,-706,511,0
2682,-689,554,0
2708,-681,570,0
2740,-662,574,0
2795,-658,580,0
2856,-654,588,0
2945,-654,629,0
3020,-648,644,0
3083,-633,649,0
3141,-620,631,0
3211,-631,607,0
3258,-630,589,0
3313,-632,581,0
3368,-630,555,0
3415,-625,531,0
3452,-602,563,0
3481,-551,612,0
3506,-495,679,0
3502,-454,709,0
3495,-404,716,0
3485,-380,723,0
3461,-338,750,0
3443,-327,807,0
3445,-328,867,0
3468,-316,919,0
3511,-317,950,0
3565,-326,962,0
3622,-333,956,0
3677,-347,955,0
3727,-345,978,0
3764,-351,995,0
3785,-349,1016,0
3787,-344,1046,0
3792,-352,1088,0
3814,-373,1150,0
3866,-430,1218,0
3919,-481,1269,0
3985,-535,1317,0
4046,-584,1331,0
4110,-623,1312,0
4175,-645,1326,0
4249,-648,1389,0
4342,-671,1443,0
4452,-664,1507,0
4550,-633,1546,0
4624,-568,1579,0
4670,-497,1611,0
4687,-421,1661,0
4680,-307,1682,0
4659,-248,1708,0
4620,-154,1703,0
4586,-42,1693,0
4551,68,1687,0
4536,187,1704,0
4545,267,1728,0
4554,330,1702,0
4559,335,1594,0
4584,324,1487,0
4635,252,1422,0
4711,185,1363,0
4810,72,1293,0
4934,-75,1180,0
5051,-307,1007,0
5164,-639,847,0
5228,-955,784,0
5207,-1243,546,0
5080,-1482,172,0
4902,-1695,-3,0
4752,-1859,22,0
4546,-1917,-4,0
4276,-1942,-124,0
4013,-1986,-270,0
3740,-1977,-391,0
3482,-1974,-483,0
3213,-1936,-608,0
2953,-1844,-693,0
2743,-1724,-616,0
2617,-1605,-426,0
2615,-1538,-185,0
2735,-1495,52,0
2970,-1513,221,0
3239,-1582,305,0
3523,-1687,319,0
3842,-1779,296,0
4177,-1854,275,0
4586,-1971,272,0
5060,-2098,299,0
5550,-2229,307,0
6032,-2318,273,0
6476,-2372,256,0
6884,-2387,279,0
7229,-2372,321,0
7500,-2270,409,0
7680,-2186,499,0
7760,-2120,537,0
7744,-2062,532,0
7612,-2015,493,0
7377,-1963,418,0
7067,-1868,349,0
6685,-1732,312,0
6249,-1568,305,0
5815,-1446,256,0
5366,-1300,208,0
4934,-1133,173,0
4521,-956,127,0
4138,-779,131,0
3786,-623,166,0
3445,-482,224,0
3130,-333,296,0
2835,-206,343,0
2554,-99,400,0
2264,-17,443,0
2011,24,475,0
1787,64,487,0
1607,66,521,0
1445,83,522,0
1346,86,550,0
1299,26,561,0
1287,-67,574,0
1295,-185,589,0
1351,-305,612,0
1425,-414,644,0
1514,-505,701,0
1613,-592,761,0
1709,-673,823,0
1811,-759,892,0
1911,-851,948,0
2005,-949,988,0
2108,-1027,1017,0
2219,-1100,1028,0
2306,-1152,1048,0
2390,-1169,1066,0
2481,-1193,1083,0
2571,-1202,1098,0
2636,-1203,1127,0
2702,-1196,1173,0
2762,-1167,1235,0
2810,-1104,1303,0
2843,-1026,1376,0
2867,-936,1448,0
2868,-825,1511,0
2860,-725,1539,0
2845,-631,1555,0
2815,-542,1527,0
2788,-466,1482,0
2762,-407,1428,0
2722,-367,1379,0
2697,-374,1324,0
2667,-387,1310,0
2626,-427,1295,0
2589,-513,1259,0
2567,-624,1243,0
2556,-744,1230,0
2562,-875,1263,0
2602,-999,1324,0
2668,-1108,1362,0
2778,-1216,1371,0
2914,-1296,1379,0
3094,-1343,1380,0
3295,-1351,1377,0
3509,-1322,1396,0
3741,-1288,1457,0
3999,-1251,1572,0
4273,-1211,1705,0
4571,-1193,1840,0
4883,-1209,1948,0
5185,-1242,2029,0
5467,-1264,2093,0
5737,-1260,2165,0
5943,-1206,2264,0
6065,-1096,2393,0
6118,-959,2544,0
6093,-815,2672,0
6003,-702,2773,0
5874,-631,2808,0
5719,-611,2805,0
5581,-635,2755,0
5476,-724,2634,0
5445,-910,2426,0
5502,-1186,2202,0
5642,-1468,1925,0
5856,-1871,1741,0
6121,-2337,1522,0
6274,-2900,990,0
6112,-3594,-41,0
5823,-4247,-973,0
5820,-4926,-1359,0
6230,-5235,-930,0
6849,-4729,254,0
7201,-3754,1514,0
6856,-2864,1959,0
6031,-2391,1683,0
5106,-2143,1388,0
4353,-2021,1233,0
3824,-1948,991,0
3383,-1912,619,0
3077,-1929,309,0
2878,-1873,238,0
2780,-1701,337,0
2719,-1492,419,0
2663,-1294,450,0
2616,-1080,490,0
2574,-918,527,0
2545,-800,569,0
2528,-724,574,0
2498,-697,519,0
2472,-680,456,0
2417,-686,343,0
2421,-721,235,0
2482,-781,134,0
2626,-812,109,0
2855,-863,135,0
3153,-916,239,0
3478,-977,356,0
3788,-1077,521,0
4037,-1173,681,0
4197,-1265,838,0
4279,-1374,938,0
4256,-1469,988,0
4144,-1529,974,0
4019,-1580,944,0
3876,-1615,926,0
3750,-1628,912,0
3654,-1620,902,0
3585,-1574,895,0
3540,-1542,887,0
3508,-1487,893,0
3491,-1424,893,0
3434,-1353,889,0
3373,-1280,876,0
3291,-1217,848,0
3191,-1144,819,0
3080,-1078,781,0
2950,-1035,747,0
2817,-995,706,0
2688,-958,661,0
2578,-928,623,0
2471,-881,603,0
2368,-824,595,0
2295,-780,593,0
2236,-721,593,0
2209,-672,605,0
2212,-621,617,0
2246,-586,637,0
2316,-574,659,0
2437,-563,678,0
2582,-558,721,0
2732,-558,751,0
2866,-558,765,0
2988,-571,737,0
3090,-564,718,0
3172,-530,696,0
3250,-503,686,0
3324,-477,710,0
3395,-430,718,0
3473,-409,723,0
3558,-380,748,0
3624,-346,781,0
3686,-364,809,0
3713,-362,813,0
3710,-308,825,0
3692,-259,820,0
3654,-192,842,0
3604,-124,869,0
3549,-75,868,0
3487,-26,860,0
3443,2,845,0
3417,25,827,0
3403,42,802,0
3411,51,778,0
3443,40,771,0
3486,13,823,0
3556,-11,914,0
3636,-39,1036,0
3716,-55,1177,0
3797,-96,1310,0
3885,-173,1402,0
3972,-267,1492,0
4064,-379,1552,0
4124,-521,1573,0
4187,-668,1539,0
4253,-811,1458,0
4302,-899,1410,0
4358,-925,1412,0
4421,-923,1430,0
4480,-889,1429,0
4536,-840,1437,0
4614,-773,1458,0
4661,-674,1491,0
4713,-559,1522,0
4738,-422,1547,0
4754,-310,1548,0
4736,-182,1497,0
4725,-60,1463,0
4729,18,1443,0
4759,97,1409,0
4809,109,1310,0
4879,75,1173,0
4952,6,1016,0
5062,-78,878,0
5219,-224,759,0
5406,-477,680,0
5544,-786,601,0
5611,-1144,423,0
5551,-1495,67,0
5391,-1877,-183,0
5180,-2127,-302,0
4880,-2159,-450,0
4544,-2145,-503,0
4169,-2099,-492,0
3799,-2083,-533,0
3381,-2039,-664,0
2936,-1946,-794,0
2560,-1810,-860,0
2298,-1666,-799,0
2187,-1486,-546,0
2297,-1375,-211,0
2584,-1371,76,0
2944,-1432,299,0
3331,-1567,412,0
3729,-1737,412,0
4127,-1928,384,0
4564,-2093,359,0
4999,-2245,353,0
5417,-2368,391,0
5816,-2467,401,0
6181,-2529,407,0
6531,-2583,403,0
6826,-2573,450,0
7054,-2530,515,0
7225,-2440,596,0
7325,-2314,648,0
7341,-2228,661,0
7277,-2172,606,0
7110,-2155,467,0
6866,-2118,293,0
6544,-2036,162,0
6177,-1915,89,0
5784,-1759,61,0
5408,-1593,68,0
5030,-1410,120,0
4664,-1204,175,0
4314,-996,234,0
3997,-784,314,0
3666,-603,404,0
3326,-411,506,0
2992,-240,591,0
2677,-99,649,0
2400,-8,704,0
2141,58,743,0
1902,106,752,0
1710,131,773,0
1549,142,767,0
1427,137,750,0
1354,93,741,0
1321,24,735,0
1324,-52,733,0
1375,-135,737,0
1443,-199,740,0
1515,-253,763,0
1602,-290,792,0
1698,-361,850,0
1799,-432,891,0
1926,-526,938,0
2056,-591,988,0
2174,-663,1010,0
2300,-726,1042,0
2430,-790,1081,0
2549,-829,1110,0
2670,-858,1158,0
2776,-838,1223,0
2866,-798,1302,0
2935,-767,1382,0
2990,-728,1449,0
3041,-690,1521,0
3074,-643,1551,0
3087,-609,1547,0
3100,-585,1516,0
3082,-572,1472,0
3072,-553,1415,0
3060,-598,1334,0
3039,-622,1346,0
2995,-673,1360,0
2939,-762,1323,0
2871,-869,1261,0
2817,-1001,1190,0
2761,-1117,1151,0
2722,-1240,1122,0
2722,-1340,1091,0
2747,-1425,1080,0
2813,-1498,1087,0
2897,-1555,1097,0
3027,-1585,1097,0
3184,-1590,1117,0
3371,-1565,1186,0
3586,-1527,1301,0
3822,-1476,1437,0
4074,-1432,1561,0
4326,-1395,1676,0
4583,-1359,1776,0
4843,-1339,1881,0
5091,-1308,1983,0
5310,-1242,2084,0
5489,-1132,2199,0
5602,-971,2363,0
5647,-792,2522,0
5575,-587,2661,0
5436,-435,2699,0
5214,-380,2611,0
4937,-395,2430,0
4650,-431,2278,0
4428,-476,2233,0
4281,-550,2192,0
4246,-720,2127,0
4345,-976,1999,0
4530,-1288,1874,0
4797,-1677,1715,0
5108,-2085,1456,0
5420,-2634,1078,0
5698,-3292,483,0
5915,-4055,-184,0
6264,-4815,-529,0
6890,-5463,-311,0
7597,-5586,310,0
8024,-5144,913,0
7735,-4278,1097,0
6942,-3398,1102,0
5968,-2747,935,0
5070,-2342,627,0
4322,-2053,287,0
3766,-1878,-33,0
3385,-1694,-224,0
3190,-1501,-278,0
3103,-1345,-240,0
3044,-1173,-172,0
3021,-981,-15,0
3009,-805,166,0
2998,-695,334,0
2998,-654,424,0
2908,-664,402,0
2808,-716,345,0
2721,-803,242,0
2650,-871,128,0
2645,-908,64,0
2680,-940,46,0
2773,-1002,102,0
2928,-1097,165,0
3124,-1227,291,0
3318,-1324,448,0
3469,-1426,604,0
3589,-1521,781,0
3658,-1611,951,0
3656,-1704,1086,0
3618,-1798,1141,0
3546,-1866,1132,0
3465,-1891,1097,0
3395,-1863,1037,0
3328,-1804,1007,0
3277,-1704,975,0
3243,-1567,949,0
3223,-1456,921,0
3218,-1320,903,0
3217,-1199,885,0
3214,-1122,871,0
3207,-1085,850,0
3169,-1037,831,0
3088,-974,812,0
3005,-920,787,0
2931,-885,773,0
2843,-840,737,0
2771,-796,719,0
2699,-740,697,0
2640,-689,677,0
2604,-638,656,0
2597,-585,647,0
2605,-536,643,0
2649,-480,648,0
2721,-445,673,0
2815,-429,703,0
2910,-427,720,0
3009,-409,727,0
3112,-406,748,0
3214,-392,751,0
3299,-375,737,0
3374,-350,724,0
3440,-337,700,0
3509,-322,677,0
3584,-308,662,0
3669,-296,693,0
3723,-283,692,0
3753,-232,712,0
3759,-162,749,0
3746,-85,782,0
3722,-6,816,0
3677,84,859,0
3619,103,882,0
3539,79,881,0
3463,62,879,0
3420,39,934,0
3416,14,975,0
3425,-15,1004,0
3432,-68,1001,0
3421,-120,937,0
3424,-173,878,0
3418,-212,860,0
3439,-232,901,0
3488,-262,998,0
3551,-283,1151,0
3650,-296,1354,0
3765,-359,1532,0
3884,-413,1719,0
3977,-485,1840,0
4050,-589,1928,0
4100,-714,1936,0
4126,-820,1849,0
4157,-865,1760,0
4198,-859,1739,0
4284,-816,1729,0
4354,-699,1798,0
4446,-578,1841,0
4503,-394,1815,0
4575,-221,1844,0
4621,-47,1861,0
4648,124,1856,0
4640,292,1813,0
4626,453,1772,0
4610,591,1755,0
4600,745,1753,0
4594,870,1795,0
4595,960,1779,0
4632,959,1725,0
4665,896,1634,0
4719,760,1508,0
4803,585,1389,0
4912,387,1276,0
5046,158,1158,0
5203,-139,1025,0
5345,-524,808,0
5480,-999,573,0
5562,-1478,271,0
5515,-1942,-39,0
5417,-2329,-360,0
5263,-2614,-612,0
5106,-2757,-677,0
4907,-2812,-645,0
4607,-2769,-636,0
4242,-2712,-676,0
3849,-2696,-815,0
3413,-2661,-1030,0
3016,-2580,-1205,0
2709,-2449,-1172,0
2536,-2236,-921,0
2524,-2037,-520,0
2690,-1928,-125,0
2966,-1907,158,0
3291,-1940,340,0
3659,-2030,433,0
4053,-2165,489,0
4438,-2344,524,0
4865,-2535,536,0
5323,-2753,523,0
5741,-2930,521,0
6142,-3071,486,0
6465,-3113,497,0
6731,-3130,535,0
6908,-3099,547,0
7003,-3037,534,0
7003,-2934,500,0
6932,-2804,460,0
6826,-2657,442,0
6653,-2484,395,0
6394,-2319,215,0
6060,-2083,62,0
5733,-1790,37,0
5413,-1457,157,0
5076,-1131,256,0
4727,-882,287,0
4360,-687,287,0
4014,-501,257,0
3663,-323,228,0
3365,-153,236,0
3091,19,270,0
2838,196,302,0
2612,340,353,0
2423,467,422,0
2267,562,501,0
2157,596,558,0
2073,583,636,0
2027,546,721,0
2011,479,775,0
2009,395,838,0
2026,282,881,0
2058,128,900,0
2091,-35,902,0
2130,-227,908,0
2158,-384,902,0
2179,-538,895,0
2199,-685,886,0
2210,-831,874,0
2196,-962,865,0
2180,-1069,876,0
2168,-1166,891,0
2165,-1234,920,0
2186,-1277,944,0
2215,-1282,999,0
2254,-1247,1069,0
2327,-1203,1117,0
2387,-1157,1128,0
2469,-1100,1139,0
2554,-1023,1179,0
2630,-951,1251,0
2716,-872,1314,0
2783,-796,1378,0
2854,-704,1442,0
2913,-593,1511,0
2962,-482,1566,0
2992,-376,1610,0
3010,-304,1632,0
2994,-263,1656,0
2984,-252,1665,0
2951,-296,1656,0
2913,-385,1644,0
2863,-545,1683,0
2813,-702,1754,0
2780,-868,1827,0
2778,-1038,1883,0
2834,-1192,1950,0
2924,-1343,2002,0
3054,-1468,2076,0
3178,-1576,2137,0
3302,-1637,2153,0
3422,-1664,2144,0
3555,-1634,2112,0
3685,-1548,2060,0
3858,-1431,2026,0
4040,-1268,2041,0
4246,-1081,2110,0
4503,-913,2240,0
4783,-789,2386,0
5052,-687,2515,0
5283,-613,2599,0
5437,-538,2654,0
5499,-433,2668,0
5492,-319,2658,0
5389,-136,2705,0
5224,41,2750,0
5095,162,2806,0
4966,226,2836,0
4871,221,2824,0
4783,151,2806,0
4740,59,2816,0
4749,-60,2797,0
4816,-253,2710,0
4887,-477,2499,0
4919,-710,2209,0
4880,-979,1774,0
4704,-1391,1091,0
4418,-1965,335,0
4258,-2599,-203,0
4468,-3181,-250,0
5034,-3817,208,0
5701,-4463,648,0
6325,-5020,938,0
6732,-5163,1144,0
6721,-4899,1110,0
6361,-4289,1012,0
5696,-3386,927,0
4830,-2523,904,0
4115,-2007,847,0
3631,-1689,815,0
3354,-1537,812,0
3201,-1488,739,0
3086,-1436,652,0
3031,-1375,603,0
3020,-1295,605,0
3014,-1217,624,0
3018,-1153,670,0
3011,-1152,651,0
2989,-1127,596,0
2967,-1102,522,0
2960,-1103,493,0
2977,-1068,540,0
3014,-1044,611,0
3058,-998,686,0
3107,-914,780,0
3173,-820,863,0
3224,-731,926,0
3309,-683,995,0
3378,-658,1042,0
3438,-639,1055,0
3517,-611,1077,0
3609,-577,1128,0
3676,-529,1170,0
3695,-466,1212,0
3685,-401,1243,0
3651,-329,1265,0
3581,-260,1256,0
3494,-214,1245,0
3404,-181,1217,0
3323,-161,1180,0
3238,-190,1153,0
3142,-253,1106,0
3044,-356,1039,0
2951,-479,984,0
2849,-602,928,0
2746,-722,868,0
2660,-816,838,0
2577,-868,800,0
2499,-948,820,0
2438,-982,814,0
2407,-997,803,0
2379,-980,776,0
2382,-975,770,0
2380,-936,737,0
2408,-903,697,0
2448,-854,674,0
2496,-827,667,0
2546,-792,674,0
2627,-752,675,0
2711,-716,678,0
2800,-688,683,0
2889,-659,696,0
2978,-637,719,0
3056,-620,703,0
3128,-599,696,0
3196,-597,685,0
3264,-572,715,0
3295,-547,741,0
3310,-518,756,0
3333,-474,763,0
3346,-430,783,0
3359,-394,771,0
3374,-383,721,0
3392,-368,655,0
3405,-343,631,0
3430,-316,622,0
3461,-263,633,0
3504,-258,668,0
3552,-242,666,0
3582,-219,671,0
3646,-234,721,0
3698,-247,792,0
3737,-259,899,0
3764,-279,1018,0
3794,-306,1096,0
3829,-357,1150,0
3867,-409,1219,0
3932,-476,1287,0
4028,-576,1346,0
4105,-661,1421,0
4203,-782,1464,0
4290,-913,1426,0
4384,-1035,1389,0
4450,-1109,1374,0
4513,-1133,1391,0
4554,-1109,1440,0
4596,-1022,1484,0
4626,-880,1515,0
4653,-738,1555,0
4674,-592,1568,0
4657,-458,1566,0
4654,-342,1567,0
4661,-229,1576,0
4669,-78,1593,0
4704,5,1627,0
4731,89,1582,0
4784,134,1478,0
4835,157,1333,0
4916,175,1213,0
5049,177,1168,0
5236,154,1149,0
5437,53,1161,0
5643,-138,1163,0
5808,-424,1080,0
5857,-743,843,0
5793,-1084,392,0
5640,-1347,75,0
5511,-1448,-173,0
5321,-1456,-372,0
5174,-1452,-279,0
5072,-1451,-20,0
4881,-1492,-199,0
4544,-1583,-603,0
4195,-1707,-877,0
3893,-1804,-956,0
3590,-1832,-875,0
3354,-1795,-701,0
3191,-1702,-479,0
3101,-1600,-233,0
3120,-1532,16,0
3236,-1508,231,0
3426,-1538,384,0
3629,-1608,424,0
3829,-1694,402,0
4054,-1791,330,0
4312,-1928,264,0
4605,-2049,195,0
4914,-2174,156,0
5238,-2285,114,0
5567,-2399,63,0
5872,-2489,39,0
6133,-2548,55,0
6315,-2561,100,0
6394,-2454,218,0
6431,-2308,338,0
6387,-2188,416,0
6275,-2075,418,0
6068,-1990,371,0
5806,-1904,307,0
5472,-1796,266,0
5144,-1704,219,0
4800,-1598,183,0
4472,-1470,154,0
4167,-1333,134,0
3913,-1184,130,0
3680,-1064,130,0
3484,-934,152,0
3312,-803,171,0
3148,-700,203,0
3010,-614,246,0
2876,-516,285,0
2756,-447,331,0
2640,-383,377,0
2533,-333,402,0
2425,-313,431,0
2336,-309,447,0
2247,-324,474,0
2168,-348,499,0
2110,-394,525,0
2075,-469,551,0
2054,-562,566,0
2065,-650,583,0
2073,-731,618,0
2100,-819,664,0
2123,-908,705,0
2157,-999,739,0
2183,-1089,792,0
2208,-1148,833,0
2231,-1198,878,0
2279,-1239,942,0
2329,-1255,986,0
2392,-1239,1047,0
2459,-1241,1097,0
2534,-1225,1151,0
2621,-1196,1204,0
2710,-1156,1277,0
2799,-1100,1350,0
2870,-1033,1440,0
2950,-966,1518,0
3011,-863,1574,0
3066,-759,1609,0
3098,-677,1603,0
3126,-611,1574,0
3138,-545,1562,0
3137,-509,1556,0
3119,-488,1551,0
3086,-527,1518,0
3029,-603,1466,0
2982,-708,1408,0
2908,-821,1416,0
2861,-942,1429,0
2826,-1034,1480,0
2797,-1124,1544,0
2806,-1194,1624,0
2839,-1257,1679,0
2908,-1312,1686,0
3000,-1345,1665,0
3124,-1370,1626,0
3266,-1371,1574,0
3436,-1353,1541,0
3635,-1316,1558,0
3860,-1255,1641,0
4080,-1177,1804,0
4303,-1097,1998,0
4562,-1049,2141,0
4833,-1027,2247,0
5112,-1038,2311,0
5343,-1040,2362,0
5540,-1005,2411,0
5683,-963,2472,0
5734,-826,2568,0
5710,-645,2672,0
5577,-432,2769,0
5360,-225,2868,0
5122,-36,2950,0
4895,100,2980,0
4690,207,2925,0
4511,227,2792,0
4343,203,2595,0
4192,29,2318,0
4069,-270,1915,0
3886,-709,1325,0
3663,-1273,613,0
3450,-1933,-75,0
3366,-2728,-703,0
3535,-3599,-1131,0
4024,-4481,-1155,0
4889,-5417,-723,0
6098,-6171,-21,0
7332,-6512,637,0
8057,-6191,934,0
8048,-5489,812,0
7537,-4631,557,0
6592,-3615,371,0
5347,-2754,172,0
4278,-2137,115,0
3635,-1681,157,0
3287,-1420,195,0
3183,-1404,159,0
3211,-1435,72,0
3309,-1469,24,0
3407,-1471,15,0
3455,-1450,28,0
3436,-1382,74,0
3386,-1293,117,0
3334,-1154,132,0
3310,-1059,136,0
3339,-993,208,0
3368,-975,270,0
3385,-992,326,0
3373,-952,385,0
3361,-914,439,0
3335,-792,558,0
3292,-639,682,0
3237,-510,815,0
3168,-477,883,0
3138,-510,917,0
3136,-589,912,0
3170,-695,903,0
3226,-771,890,0
3280,-811,885,0
3337,-817,878,0
3359,-808,886,0
3365,-791,876,0
3353,-787,874,0
3307,-782,840,0
3245,-793,837,0
3180,-803,835,0
3103,-807,838,0
3010,-852,822,0
2942,-928,825,0
2866,-1003,825,0
2800,-1099,798,0
2743,-1208,796,0
2690,-1292,760,0
2642,-1364,726,0
2613,-1399,732,0
2597,-1363,729,0
2619,-1325,741,0
2663,-1300,760,0
2725,-1267,769,0
2794,-1237,755,0
2876,-1189,726,0
2961,-1119,703,0
3055,-1044,670,0
3127,-985,631,0
3187,-941,598,0
3254,-887,569,0
3321,-816,565,0
3399,-772,572,0
3463,-688,591,0
3531,-611,612,0
3562,-533,630,0
3561,-468,683,0
3560,-406,702,0
3534,-369,712,0
3489,-348,705,0
3401,-276,722,0
3300,-174,731,0
3207,-103,756,0
3111,-19,785,0
3023,36,795,0
2992,91,810,0
2990,100,828,0
3018,104,847,0
3076,118,867,0
3155,159,922,0
3259,201,987,0
3372,244,1074,0
3491,258,1177,0
3627,245,1279,0
3765,203,1374,0
3910,156,1470,0
4062,69,1544,0
4199,-12,1617,0
4375,-129,1663,0
4547,-266,1640,0
4698,-395,1574,0
4813,-516,1498,0
4904,-592,1460,0
4968,-602,1466,0
5026,-568,1525,0
5073,-504,1591,0
5122,-444,1655,0
5179,-384,1696,0
5196,-323,1747,0
5172,-262,1794,0
5130,-216,1823,0
5062,-168,1813,0
4981,-126,1751,0
4914,-74,1675,0
4861,-47,1592,0
4836,-34,1529,0
4838,-41,1455,0
4855,-36,1391,0
4924,-64,1344,0
5025,-120,1241,0
5138,-207,1138,0
5266,-370,1016,0
5370,-652,793,0
5417,-1017,465,0
5420,-1365,182,0
5317,-1631,-134,0
5168,-1804,-472,0
5016,-1866,-597,0
4877,-1894,-543,0
4706,-1938,-473,0
4434,-2002,-557,0
4086,-2061,-680,0
3699,-2075,-787,0
3285,-2005,-863,0
2911,-1955,-869,0
2615,-1886,-782,0
2397,-1819,-553,0
2326,-1756,-222,0
2415,-1766,86,0
2636,-1854,350,0
2915,-1956,562,0
3228,-2085,676,0
3573,-2209,676,0
3934,-2333,576,0
4321,-2436,523,0
4754,-2555,478,0
5176,-2643,478,0
5575,-2726,511,0
5979,-2756,504,0
6350,-2759,507,0
6640,-2666,453,0
6804,-2552,378,0
6807,-2343,322,0
6804,-2147,333,0
6773,-1962,350,0
6667,-1723,402,0
6452,-1523,410,0
6151,-1388,368,0
5791,-1274,319,0
5407,-1200,271,0
5017,-1120,216,0
4670,-1037,183,0
4335,-930,197,0
4060,-797,217,0
3808,-669,274,0
3572,-541,331,0
3348,-407,392,0
3130,-292,441,0
2916,-194,496,0
2714,-117,544,0
2516,-60,578,0
2328,-24,639,0
2154,-20,682,0
1971,-23,694,0
1828,-68,699,0
1726,-135,715,0
1642,-203,721,0
1597,-287,735,0
1572,-383,748,0
1595,-489,760,0
1637,-566,795,0
1694,-641,837,0
1761,-720,888,0
1853,-796,937,0
1930,-838,995,0
2005,-932,1024,0
2101,-1008,1070,0
2209,-1069,1109,0
2326,-1099,1126,0
2423,-1089,1169,0
2533,-1074,1202,0
2643,-1049,1228,0
2756,-1016,1225,0
2863,-1008,1247,0
2949,-976,1278,0
3007,-934,1331,0
3078,-885,1388,0
3116,-787,1453,0
3116,-716,1479,0
3093,-635,1479,0
3038,-562,1468,0
2961,-513,1421,0
2862,-489,1355,0
2751,-495,1312,0
2623,-501,1284,0
2514,-541,1261,0
2437,-609,1246,0
2376,-707,1265,0
2335,-801,1288,0
2308,-889,1330,0
2321,-1004,1390,0
2375,-1137,1473,0
2472,-1258,1548,0
2601,-1368,1608,0
2783,-1477,1628,0
2997,-1543,1628,0
3260,-1607,1617,0
3525,-1635,1586,0
3810,-1647,1549,0
4094,-1647,1577,0
4354,-1573,1661,0
4618,-1485,1784,0
4876,-1402,1906,0
5126,-1338,1999,0
5343,-1256,2057,0
5529,-1166,2105,0
5673,-1063,2156,0
5762,-930,2242,0
5773,-748,2377,0
5696,-558,2521,0
5529,-341,2698,0
5331,-155,2855,0
5142,-33,2923,0
4976,-12,2873,0
4793,3,2814,0
4632,-36,2782,0
4492,-144,2666,0
4406,-306,2435,0
4389,-584,2136,0
4400,-942,1703,0
4458,-1421,1253,0
4573,-1994,771,0
4697,-2628,223,0
4850,-3376,-331,0
5238,-4236,-700,0
6050,-5060,-505,0
7114,-5476,77,0
7936,-5244,645,0
8146,-4555,1107,0
7743,-3655,1356,0
6911,-2778,1231,0
5882,-2146,811,0
4890,-1718,375,0
4112,-1426,100,0
3675,-1186,45,0
3419,-1054,118,0
3275,-1034,201,0
3178,-1084,212,0
3113,-1125,266,0
3053,-1142,370,0
3022,-1197,473,0
2988,-1288,473,0
2964,-1371,427,0
2941,-1445,346,0
2953,-1488,268,0
2973,-1481,233,0
3014,-1484,248,0
3068,-1513,292,0
3151,-1541,349,0
3215,-1589,415,0
3303,-1619,530,0
3360,-1621,674,0
3404,-1617,848,0
3438,-1698,1033,0
3465,-1818,1132,0
3467,-1904,1178,0
3473,-1981,1153,0
3474,-1984,1109,0
3469,-1913,1073,0
3467,-1807,1054,0
3485,-1660,1014,0
3505,-1486,1011,0
3536,-1336,993,0
3544,-1197,986,0
3523,-1100,962,0
3491,-1033,918,0
3443,-1020,853,0
3347,-994,810,0
3236,-990,763,0
3111,-972,705,0
2985,-939,657,0
2854,-927,628,0
2732,-886,601,0
2612,-852,578,0
2503,-802,549,0
2400,-721,523,0
2323,-663,526,0
2264,-588,546,0
2228,-492,563,0
2228,-443,551,0
2267,-460,560,0
2317,-459,584,0
2378,-460,593,0
2464,-478,620,0
2557,-478,669,0
2659,-475,703,0
2736,-504,679,0
2827,-600,640,0
2919,-649,620,0
2992,-699,609,0
3074,-738,639,0
3162,-767,709,0
3242,-789,791,0
3321,-805,809,0
3377,-842,786,0
3415,-892,756,0
3460,-933,748,0
3507,-939,742,0
3536,-952,761,0
3556,-925,768,0
3564,-892,765,0
3568,-841,753,0
3574,-814,773,0
3592,-776,830,0
3627,-750,913,0
3664,-720,1009,0
3703,-701,1112,0
3752,-666,1219,0
3785,-616,1346,0
3848,-569,1482,0
3915,-545,1573,0
3998,-537,1614,0
4092,-551,1626,0
4162,-537,1657,0
4233,-539,1702,0
4315,-545,1728,0
4368,-540,1746,0
4421,-522,1738,0
4451,-471,1746,0
4473,-405,1800,0
4500,-334,1850,0
4527,-228,1847,0
4538,-90,1815,0
4546,43,1775,0
4550,165,1721,0
4552,281,1682,0
4550,389,1668,0
4554,479,1643,0
4569,551,1630,0
4604,578,1583,0
4677,559,1525,0
4786,478,1442,0
4944,325,1387,0
5137,93,1330,0
5355,-204,1239,0
5524,-588,1062,0
5657,-1047,830,0
5689,-1533,477,0
5620,-2044,104,0
5469,-2396,-47,0
5241,-2562,-200,0
4972,-2539,-395,0
4738,-2436,-478,0
4598,-2305,-433,0
4460,-2245,-534,0
4298,-2247,-706,0
4123,-2294,-836,0
3938,-2322,-935,0
3716,-2318,-1016,0
3528,-2283,-997,0
3436,-2226,-841,0
3453,-2126,-571,0
3579,-2055,-282,0
3764,-2032,-32,0
3954,-2056,165,0
4136,-2137,289,0
4328,-2265,356,0
4518,-2427,282,0
4719,-2614,188,0
4941,-2767,127,0
5182,-2900,123,0
5408,-2987,199,0
5607,-3030,276,0
5758,-3054,320,0
5865,-3057,342,0
5902,-3023,350,0
5845,-2928,360,0
5709,-2781,341,0
5515,-2574,328,0
5304,-2311,334,0
5101,-2042,370,0
4903,-1778,406,0
4713,-1524,424,0
4535,-1326,402,0
4347,-1147,353,0
4177,-973,321,0
4073,-787,337,0
3979,-605,382,0
3895,-438,466,0
3774,-278,521,0
3651,-147,567,0
3511,-51,581,0
3368,5,572,0
3223,49,558,0
3085,59,554,0
2945,67,551,0
2798,66,566,0
2649,49,589,0
2521,9,596,0
2413,-60,621,0
2325,-133,630,0
2256,-223,640,0
2210,-326,642,0
2183,-420,650,0
2178,-490,674,0
2175,-573,715,0
2185,-659,755,0
2204,-746,804,0
2227,-843,855,0
2256,-910,906,0
2302,-978,958,0
2338,-1024,1017,0
2398,-1048,1072,0
2449,-1066,1129,0
2507,-1057,1176,0
2572,-1054,1210,0
2635,-1042,1221,0
2702,-1031,1221,0
2759,-1014,1242,0
2819,-981,1280,0
2875,-945,1339,0
2931,-906,1398,0
2981,-861,1471,0
3020,-796,1564,0
3047,-759,1640,0
3043,-704,1679,0
3028,-683,1680,0
3003,-679,1636,0
2953,-649,1588,0
2896,-645,1556,0
2830,-652,1554,0
2762,-684,1551,0
2665,-741,1524,0
2555,-798,1497,0
2470,-851,1463,0
2390,-897,1421,0
2348,-944,1440,0
2349,-953,1502,0
2392,-970,1550,0
2473,-961,1568,0
2608,-953,1563,0
2776,-941,1555,0
2984,-942,1561,0
3202,-942,1543,0
3431,-947,1510,0
3662,-978,1480,0
3886,-952,1489,0
4125,-941,1574,0
4400,-930,1716,0
4707,-946,1868,0
5010,-980,2028,0
5296,-980,2157,0
5564,-952,2296,0
5743,-852,2436,0
5834,-696,2597,0
5839,-507,2754,0
5777,-307,2837,0
5616,-136,2860,0
5406,-26,2835,0
5200,-2,2774,0
5036,-39,2683,0
4963,-190,2524,0
5031,-462,2337,0
5229,-825,2114,0
5505,-1275,1901,0
5819,-1775,1587,0
6166,-2440,1212,0
6402,-3201,594,0
6424,-4072,-271,0
6271,-4843,-1137,0
6064,-5353,-1599,0
6038,-5394,-1362,0
6159,-4858,-402,0
6141,-3874,758,0
5735,-2889,1449,0
4961,-2338,1451,0
4166,-2161,1226,0
3559,-2151,1031,0
3143,-2166,895,0
2863,-2189,767,0
2665,-2177,642,0
2521,-2104,601,0
2430,-2028,592,0
2345,-1938,594,0
2327,-1858,660,0
2380,-1806,762,0
2487,-1781,822,0
2636,-1828,783,0
2807,-1920,698,0
2993,-2023,589,0
3155,-2093,482,0
3304,-2111,404,0
3488,-2067,359,0
3729,-2004,393,0
3996,-1898,446,0
4214,-1777,481,0
4419,-1638,564,0
4585,-1504,667,0
4705,-1381,803,0
4715,-1287,872,0
4637,-1233,882,0
4470,-1217,832,0
4286,-1209,765,0
4134,-1206,709,0
4049,-1176,697,0
4007,-1168,693,0
4013,-1206,724,0
4046,-1241,800,0
4065,-1211,879,0
4071,-1150,937,0
4043,-1078,998,0
3951,-1012,1044,0
3824,-966,1048,0
3650,-934,1009,0
3444,-916,930,0
3230,-888,852,0
3009,-842,742,0
2787,-786,655,0
2582,-724,603,0
2406,-679,538,0
2243,-631,530,0
2112,-568,523,0
2015,-499,505,0
1951,-453,513,0
1924,-398,551,0
1932,-378,567,0
1965,-369,586,0
2025,-362,597,0
2141,-375,582,0
2281,-368,551,0
2441,-366,543,0
2596,-327,584,0
2729,-284,605,0
2833,-248,599,0
2921,-272,565,0
3003,-288,533,0
