accelerometer_x,accelerometer_y,accelerometer_z,fall
3835,-527,1107,0
3836,-529,1107,0
3837,-529,1107,0
3840,-527,1111,0
3845,-526,1113,0
3846,-523,1114,0
3852,-516,1118,0
3856,-514,1115,0
3857,-514,1116,0
3858,-512,1116,0
3857,-515,1123,0
3860,-519,1130,0
3863,-526,1135,0
3862,-525,1135,0
3860,-526,1133,0
3857,-525,1132,0
3857,-525,1129,0
3857,-527,1128,0
3854,-527,1124,0
3853,-523,1126,0
3853,-519,1125,0
3852,-522,1123,0
3852,-517,1119,0
3851,-515,1117,0
3847,-513,1112,0
3842,-515,1108,0
3839,-511,1106,0
3838,-512,1110,0
3839,-514,1114,0
3841,-512,1117,0
3844,-515,1119,0
3845,-516,1121,0
3848,-514,1118,0
3853,-516,1117,0
3854,-517,1114,0
3854,-522,1117,0
3855,-525,1120,0
3854,-527,1123,0
3858,-531,1120,0
3864,-526,1126,0
3865,-517,1137,0
3870,-510,1140,0
3877,-508,1138,0
3877,-503,1134,0
3878,-499,1134,0
3880,-496,1139,0
3878,-490,1142,0
3879,-488,1142,0
3874,-487,1141,0
3867,-484,1129,0
3862,-485,1126,0
3864,-484,1124,0
3863,-481,1128,0
3866,-477,1132,0
3864,-473,1130,0
3861,-473,1129,0
3852,-471,1121,0
3850,-471,1116,0
3853,-465,1115,0
3853,-469,1114,0
3853,-471,1110,0
3854,-471,1109,0
3854,-472,1112,0
3855,-470,1117,0
3859,-468,1122,0
3859,-474,1127,0
3854,-475,1131,0
3850,-478,1127,0
3847,-479,1117,0
3845,-479,1112,0
3844,-481,1114,0
3853,-482,1122,0
3855,-478,1128,0
3865,-471,1131,0
3868,-468,1131,0
3864,-466,1130,0
3866,-468,1132,0
3866,-471,1130,0
3867,-469,1131,0
3869,-464,1137,0
3864,-463,1140,0
3862,-463,1141,0
3862,-464,1143,0
3860,-468,1140,0
3855,-470,1138,0
3851,-470,1132,0
3844,-471,1131,0
3840,-470,1130,0
3843,-475,1129,0
3843,-480,1131,0
3841,-483,1130,0
3838,-482,1129,0
3835,-482,1128,0
3841,-484,1133,0
3849,-490,1142,0
3857,-495,1149,0
3866,-496,1156,0
3871,-490,1167,0
3874,-487,1159,0
3864,-485,1148,0
3859,-485,1125,0
3851,-487,1105,0
3848,-493,1095,0
3845,-499,1092,0
3841,-498,1092,0
3837,-497,1097,0
3831,-499,1102,0
3830,-500,1110,0
3834,-508,1114,0
3840,-515,1113,0
3847,-524,1119,0
3849,-529,1123,0
3853,-534,1125,0
3861,-538,1133,0
3866,-540,1135,0
3868,-546,1135,0
3868,-551,1131,0
3864,-552,1116,0
3859,-550,1105,0
3855,-557,1090,0
3850,-562,1085,0
3847,-560,1080,0
3848,-557,1082,0
3853,-558,1089,0
3853,-559,1095,0
3858,-555,1100,0
3858,-548,1104,0
3863,-548,1111,0
3870,-548,1118,0
3876,-546,1128,0
3880,-539,1130,0
3881,-535,1126,0
3882,-528,1124,0
3883,-523,1122,0
3881,-515,1117,0
3880,-507,1110,0
3878,-499,1111,0
3880,-490,1108,0
3872,-484,1106,0
3864,-475,1105,0
3857,-464,1101,0
3856,-456,1100,0
3857,-449,1102,0
3853,-443,1113,0
3851,-435,1113,0
3849,-429,1105,0
3844,-423,1090,0
3836,-423,1079,0
3830,-428,1077,0
3825,-427,1084,0
3828,-430,1097,0
3833,-429,1107,0
3843,-433,1110,0
3850,-439,1105,0
3860,-448,1109,0
3868,-453,1102,0
3870,-453,1097,0
3869,-456,1092,0
3873,-464,1095,0
3881,-470,1101,0
3886,-478,1106,0
3884,-474,1102,0
3881,-470,1095,0
3875,-474,1094,0
3874,-477,1095,0
3876,-476,1094,0
3878,-480,1097,0
3877,-481,1103,0
3871,-482,1102,0
3864,-479,1098,0
3861,-481,1097,0
3859,-478,1099,0
3856,-478,1095,0
3855,-479,1095,0
3855,-482,1096,0
3853,-488,1100,0
3856,-493,1102,0
3856,-498,1099,0
3854,-498,1094,0
3854,-500,1095,0
3854,-502,1101,0
3859,-504,1110,0
3863,-500,1121,0
3863,-500,1123,0
3861,-496,1119,0
3863,-497,1113,0
3867,-498,1113,0
3869,-496,1114,0
3872,-493,1115,0
3867,-490,1105,0
3863,-486,1100,0
3864,-486,1099,0
3859,-485,1094,0
3860,-489,1089,0
3855,-490,1088,0
3856,-488,1086,0
3856,-486,1094,0
3859,-488,1098,0
3857,-494,1098,0
3867,-498,1108,0
3875,-503,1120,0
3877,-503,1128,0
3881,-506,1131,0
3879,-506,1121,0
3869,-509,1108,0
3866,-514,1095,0
3861,-517,1092,0
3857,-511,1091,0
3858,-507,1093,0
3858,-504,1097,0
3859,-500,1100,0
3860,-501,1105,0
3862,-497,1108,0
3854,-496,1101,0
3852,-497,1092,0
3852,-497,1085,0
3852,-494,1088,0
3864,-496,1095,0
3872,-498,1107,0
3878,-494,1117,0
3878,-487,1119,0
3877,-486,1122,0
3876,-490,1125,0
3871,-491,1122,0
3863,-495,1118,0
3863,-496,1114,0
3862,-497,1106,0
3863,-502,1096,0
3868,-504,1084,0
3871,-507,1077,0
3875,-502,1077,0
3878,-499,1084,0
3874,-493,1081,0
3867,-490,1078,0
3862,-491,1073,0
3864,-499,1078,0
3864,-499,1085,0
3863,-497,1089,0
3860,-493,1087,0
3855,-493,1086,0
3850,-492,1084,0
3849,-496,1077,0
3850,-498,1078,0
3853,-501,1077,0
3856,-502,1086,0
3863,-502,1087,0
3858,-504,1088,0
3857,-502,1087,0
3856,-502,1087,0
3856,-505,1089,0
3856,-506,1098,0
3862,-505,1102,0
3864,-506,1105,0
3870,-505,1106,0
3870,-502,1107,0
3867,-499,1108,0
3869,-504,1105,0
3868,-504,1100,0
3869,-506,1097,0
3871,-508,1098,0
3866,-507,1095,0
3867,-508,1091,0
3867,-507,1093,0
3867,-511,1088,0
3866,-511,1090,0
3865,-511,1095,0
3861,-511,1101,0
3862,-513,1106,0
3867,-514,1111,0
3863,-511,1113,0
3860,-511,1109,0
3856,-513,1106,0
3857,-514,1104,0
3859,-517,1095,0
3861,-514,1086,0
3861,-511,1081,0
3867,-504,1079,0
3867,-501,1083,0
3872,-498,1086,0
3874,-496,1096,0
3873,-492,1108,0
3872,-486,1112,0
3870,-482,1110,0
3867,-485,1107,0
3862,-486,1101,0
3857,-488,1100,0
3859,-491,1098,0
3856,-492,1097,0
3857,-493,1092,0
3857,-490,1090,0
3859,-492,1092,0
3858,-493,1089,0
3852,-488,1089,0
3848,-488,1090,0
3847,-489,1088,0
3844,-492,1086,0
3840,-492,1087,0
3839,-495,1085,0
3840,-502,1087,0
3841,-503,1086,0
3848,-507,1097,0
3854,-507,1103,0
3863,-507,1108,0
3864,-510,1106,0
3865,-516,1099,0
3868,-522,1100,0
3870,-529,1097,0
3874,-533,1098,0
3879,-536,1103,0
3883,-535,1108,0
3887,-535,1111,0
3892,-532,1115,0
3892,-525,1121,0
3890,-518,1121,0
3889,-513,1122,0
3881,-509,1119,0
3875,-507,1117,0
3871,-500,1114,0
3870,-497,1114,0
3869,-497,1115,0
3863,-491,1116,0
3858,-488,1115,0
3858,-487,1112,0
3856,-484,1106,0
3855,-486,1100,0
3860,-486,1100,0
3860,-486,1093,0
3856,-490,1093,0
3854,-488,1097,0
3858,-489,1100,0
3859,-487,1102,0
3859,-489,1104,0
3862,-493,1105,0
3856,-493,1105,0
3856,-492,1105,0
3854,-499,1103,0
3854,-503,1096,0
3853,-503,1096,0
3852,-502,1089,0
3851,-505,1091,0
3859,-511,1102,0
3868,-510,1111,0
3880,-505,1122,0
3885,-498,1128,0
3882,-492,1128,0
3881,-492,1118,0
3878,-495,1106,0
3878,-499,1094,0
3875,-502,1090,0
3875,-500,1087,0
3877,-495,1085,0
3869,-496,1082,0
3870,-499,1083,0
3865,-499,1084,0
3860,-502,1082,0
3858,-503,1081,0
3854,-505,1078,0
3852,-504,1076,0
3850,-503,1079,0
3850,-506,1084,0
3854,-505,1093,0
3854,-505,1095,0
3856,-505,1094,0
3856,-501,1094,0
3865,-503,1096,0
3870,-502,1099,0
3870,-498,1104,0
3873,-495,1106,0
3870,-493,1104,0
3870,-490,1096,0
3872,-488,1087,0
3871,-488,1083,0
3873,-484,1082,0
3873,-482,1082,0
3875,-482,1088,0
3874,-477,1089,0
3871,-477,1089,0
3867,-481,1090,0
3865,-483,1089,0
3862,-489,1095,0
3859,-483,1101,0
3856,-482,1102,0
3857,-481,1099,0
3854,-481,1098,0
3853,-480,1094,0
3854,-484,1096,0
3858,-482,1100,0
3864,-485,1106,0
3870,-489,1105,0
3870,-491,1101,0
3867,-491,1100,0
3868,-489,1099,0
3865,-490,1094,0
3862,-490,1092,0
3862,-489,1089,0
3862,-489,1091,0
3870,-487,1098,0
3877,-487,1107,0
3878,-485,1105,0
3876,-484,1105,0
3873,-485,1111,0
3870,-486,1110,0
3864,-488,1109,0
3860,-490,1105,0
3862,-489,1102,0
3861,-490,1103,0
3866,-490,1106,0
3870,-488,1103,0
3874,-482,1100,0
3869,-477,1098,0
3865,-480,1096,0
3867,-478,1096,0
3866,-477,1101,0
3866,-473,1107,0
3865,-472,1109,0
3860,-471,1102,0
3862,-473,1099,0
3857,-474,1092,0
3856,-479,1089,0
3861,-480,1092,0
3863,-486,1098,0
3864,-487,1101,0
3863,-486,1101,0
3862,-486,1098,0
3861,-483,1096,0
3859,-479,1092,0
3855,-474,1090,0
3849,-474,1084,0
3846,-480,1088,0
3851,-484,1092,0
3853,-484,1100,0
3859,-485,1104,0
3862,-485,1103,0
3860,-486,1103,0
3864,-489,1105,0
3865,-489,1103,0
3867,-492,1102,0
3866,-493,1105,0
3863,-492,1105,0
3861,-496,1106,0
3862,-497,1103,0
3866,-497,1098,0
3861,-496,1096,0
3861,-496,1093,0
3860,-492,1094,0
3862,-493,1101,0
3867,-491,1113,0
3870,-487,1116,0
3870,-481,1121,0
3864,-482,1123,0
3861,-484,1120,0
3857,-482,1112,0
3856,-482,1110,0
3855,-489,1106,0
3857,-489,1107,0
3858,-487,1111,0
3865,-487,1112,0
3871,-488,1111,0
3875,-488,1110,0
3871,-491,1106,0
3865,-494,1101,0
3861,-495,1097,0
3858,-493,1099,0
3858,-490,1097,0
3858,-490,1092,0
3855,-490,1091,0
3854,-489,1095,0
3854,-493,1099,0
3853,-490,1102,0
3851,-490,1101,0
3853,-492,1100,0
3853,-489,1098,0
3856,-491,1093,0
3856,-491,1089,0
3861,-495,1094,0
3864,-495,1095,0
3867,-495,1094,0
3867,-498,1094,0
3868,-497,1098,0
3868,-498,1099,0
3868,-500,1105,0
3866,-502,1105,0
3865,-502,1105,0
3863,-509,1107,0
3865,-508,1112,0
3874,-509,1124,0
3878,-506,1135,0
3874,-498,1140,0
3867,-491,1129,0
3862,-491,1117,0
3859,-492,1104,0
3854,-493,1093,0
3854,-495,1088,0
3857,-493,1089,0
3860,-492,1091,0
3861,-495,1098,0
3859,-494,1103,0
3857,-500,1104,0
3858,-505,1101,0
3854,-508,1100,0
3853,-515,1100,0
3852,-517,1098,0
3854,-519,1098,0
3856,-523,1101,0
3862,-522,1102,0
3862,-523,1104,0
3868,-520,1108,0
3869,-514,1106,0
3868,-506,1103,0
3866,-503,1094,0
3866,-502,1091,0
3866,-499,1094,0
3867,-496,1095,0
3865,-492,1099,0
3867,-494,1103,0
3865,-490,1107,0
3870,-488,1107,0
3870,-487,1108,0
3863,-489,1108,0
3859,-491,1111,0
3860,-493,1115,0
3856,-494,1117,0
3853,-498,1118,0
3849,-495,1116,0
3848,-491,1111,0
3848,-493,1107,0
3849,-496,1105,0
3850,-495,1105,0
3852,-495,1107,0
3854,-496,1109,0
3855,-500,1109,0
3853,-499,1107,0
3854,-503,1109,0
3857,-502,1108,0
3857,-499,1104,0
3861,-497,1098,0
3865,-500,1098,0
3869,-500,1096,0
3869,-499,1097,0
3868,-504,1100,0
3875,-513,1107,0
3879,-512,1110,0
3878,-517,1115,0
3878,-520,1117,0
3879,-516,1114,0
3876,-519,1110,0
3872,-524,1107,0
3864,-525,1101,0
3864,-525,1093,0
3857,-520,1090,0
3856,-518,1094,0
3853,-511,1102,0
3847,-509,1107,0
3841,-506,1108,0
3838,-501,1112,0
3835,-500,1116,0
3831,-499,1118,0
3833,-498,1122,0
3838,-499,1124,0
3842,-501,1122,0
3847,-502,1117,0
3851,-504,1117,0
3851,-506,1115,0
3854,-509,1111,0
3859,-510,1106,0
3868,-508,1104,0
3872,-507,1102,0
3875,-512,1098,0
3873,-509,1093,0
3872,-505,1091,0
3868,-507,1088,0
3863,-509,1084,0
3858,-510,1085,0
3858,-509,1087,0
3854,-513,1090,0
3853,-511,1090,0
3853,-511,1088,0
3852,-514,1090,0
3848,-517,1089,0
3846,-519,1087,0
3850,-523,1088,0
3853,-522,1094,0
3859,-525,1101,0
3868,-525,1108,0
3875,-526,1111,0
3878,-523,1112,0
3880,-521,1114,0
3880,-521,1116,0
3881,-522,1117,0
3879,-518,1117,0
3874,-519,1119,0
3871,-515,1120,0
3867,-512,1115,0
3863,-509,1110,0
3860,-509,1104,0
3858,-509,1100,0
3858,-505,1095,0
3859,-506,1095,0
3861,-508,1092,0
3860,-507,1089,0
3862,-505,1089,0
3863,-502,1091,0
3864,-497,1093,0
3863,-500,1091,0
3862,-500,1091,0
3858,-503,1088,0
3859,-500,1090,0
3863,-501,1091,0
3859,-504,1092,0
3858,-504,1097,0
3860,-501,1099,0
3861,-499,1102,0
3862,-496,1104,0
3865,-491,1111,0
3865,-490,1110,0
3862,-489,1115,0
3860,-487,1122,0
3866,-487,1128,0
3869,-480,1129,0
3869,-479,1128,0
3869,-472,1126,0
3869,-471,1127,0
3867,-471,1123,0
3864,-470,1112,0
3862,-465,1111,0
3862,-466,1109,0
3858,-465,1104,0
3857,-462,1102,0
3855,-464,1101,0
3856,-467,1102,0
3855,-468,1103,0
3857,-468,1100,0
3853,-467,1103,0
3853,-468,1108,0
3855,-471,1111,0
3857,-471,1113,0
3859,-474,1118,0
3862,-477,1123,0
3865,-477,1125,0
3861,-481,1123,0
3862,-485,1120,0
3859,-483,1116,0
3867,-484,1118,0
3870,-480,1117,0
3872,-476,1117,0
3871,-469,1113,0
3870,-467,1110,0
3871,-465,1109,0
3865,-470,1109,0
3863,-472,1106,0
3861,-471,1106,0
3863,-473,1104,0
3862,-469,1107,0
3859,-470,1111,0
3859,-471,1115,0
3863,-473,1117,0
3863,-475,1122,0
3867,-476,1124,0
3865,-480,1119,0
3866,-479,1112,0
3867,-478,1106,0
3869,-479,1102,0
3871,-484,1095,0
3869,-487,1096,0
3871,-487,1102,0
3869,-488,1105,0
3864,-493,1103,0
3860,-494,1101,0
3854,-495,1100,0
3854,-500,1100,0
3850,-507,1101,0
3851,-512,1103,0
3853,-520,1104,0
3856,-523,1107,0
3861,-525,1112,0
3860,-521,1115,0
3857,-522,1114,0
3851,-520,1108,0
3843,-520,1098,0
3838,-522,1089,0
3835,-523,1085,0
3837,-523,1080,0
3838,-525,1081,0
3847,-530,1089,0
3861,-528,1100,0
3864,-523,1108,0
3870,-514,1110,0
3868,-507,1103,0
3866,-506,1096,0
3871,-511,1094,0
3872,-513,1096,0
3875,-512,1100,0
3874,-509,1099,0
3867,-506,1102,0
3863,-504,1102,0
3860,-504,1103,0
3855,-507,1106,0
3855,-505,1108,0
3853,-504,1107,0
3850,-498,1109,0
3850,-494,1110,0
3853,-501,1107,0
3857,-503,1110,0
3858,-500,1112,0
3860,-496,1114,0
3860,-492,1112,0
3865,-489,1111,0
3865,-488,1107,0
3866,-482,1114,0
3866,-475,1114,0
3863,-474,1113,0
3862,-471,1108,0
3860,-469,1105,0
3857,-468,1100,0
3850,-464,1101,0
3848,-465,1101,0
3849,-464,1105,0
3853,-467,1102,0
3850,-472,1100,0
3848,-469,1097,0
3847,-472,1097,0
3849,-475,1098,0
3853,-475,1101,0
3855,-476,1105,0
3860,-480,1113,0
3866,-480,1118,0
3868,-482,1120,0
3866,-481,1120,0
3872,-481,1122,0
3874,-482,1122,0
3875,-481,1119,0
3875,-480,1118,0
3874,-481,1112,0
3878,-480,1115,0
3878,-481,1113,0
3877,-480,1111,0
3875,-480,1115,0
3875,-482,1112,0
3870,-483,1106,0
3862,-482,1098,0
3857,-486,1089,0
3852,-489,1084,0
3855,-487,1085,0
3855,-493,1089,0
3855,-494,1091,0
3854,-495,1094,0
3856,-499,1093,0
3862,-502,1101,0
3862,-505,1104,0
3863,-505,1108,0
3859,-502,1106,0
3856,-499,1102,0
3857,-503,1097,0
3859,-503,1098,0
3861,-503,1098,0
3862,-498,1091,0
3861,-493,1087,0
3864,-493,1082,0
3864,-492,1080,0
3866,-491,1082,0
3863,-486,1087,0
3867,-487,1092,0
3867,-485,1099,0
3870,-486,1106,0
3869,-486,1108,0
3868,-483,1110,0
3865,-484,1109,0
3867,-483,1104,0
3866,-487,1102,0
3867,-485,1099,0
3867,-483,1098,0
3869,-486,1097,0
3870,-484,1100,0
3864,-487,1096,0
3861,-483,1097,0
3858,-484,1096,0
3857,-482,1091,0
3857,-486,1093,0
3860,-488,1096,0
3857,-492,1099,0
3862,-497,1102,0
3865,-496,1104,0
3871,-503,1107,0
3866,-499,1107,0
3863,-503,1103,0
3864,-507,1096,0
3869,-501,1096,0
3869,-499,1102,0
3872,-494,1103,0
3872,-489,1102,0
3871,-489,1106,0
3866,-488,1107,0
3862,-488,1104,0
3862,-487,1103,0
3863,-485,1104,0
3863,-483,1108,0
3862,-487,1110,0
3860,-492,1108,0
3865,-489,1103,0
3858,-485,1099,0
3856,-486,1099,0
3851,-483,1097,0
3851,-481,1096,0
3850,-475,1100,0
3853,-477,1102,0
3856,-473,1108,0
3857,-476,1110,0
3855,-475,1105,0
3851,-472,1100,0
3853,-474,1095,0
3857,-474,1094,0
3863,-481,1100,0
3872,-480,1109,0
3877,-473,1112,0
3877,-468,1112,0
3875,-462,1109,0
3875,-465,1104,0
3870,-468,1102,0
3867,-470,1099,0
3867,-470,1100,0
3863,-468,1101,0
3857,-474,1102,0
3855,-473,1101,0
3854,-472,1106,0
3852,-472,1108,0
3850,-475,1107,0
3847,-478,1108,0
3848,-484,1113,0
3849,-481,1113,0
3850,-486,1119,0
3851,-487,1119,0
3854,-489,1114,0
3858,-496,1110,0
3865,-495,1107,0
3867,-492,1104,0
3871,-493,1104,0
3870,-490,1103,0
3870,-489,1101,0
3868,-491,1098,0
3866,-493,1098,0
3862,-492,1104,0
3860,-490,1105,0
3861,-490,1108,0
3860,-491,1110,0
3862,-493,1118,0
3868,-495,1120,0
3869,-495,1125,0
3870,-496,1125,0
3868,-495,1119,0
3866,-498,1115,0
3865,-504,1116,0
3860,-502,1112,0
3858,-503,1113,0
3858,-501,1117,0
3855,-504,1116,0
3859,-499,1114,0
3860,-491,1109,0
3860,-490,1105,0
3861,-493,1102,0
3862,-494,1105,0
3862,-500,1106,0
3861,-501,1106,0
3861,-502,1102,0
3857,-504,1101,0
3855,-507,1094,0
3854,-505,1096,0
3853,-506,1095,0
3849,-511,1092,0
3850,-512,1093,0
3858,-511,1099,0
3861,-512,1106,0
3863,-516,1110,0
3865,-513,1116,0
3867,-512,1119,0
3864,-509,1117,0
3859,-507,1114,0
3857,-506,1104,0
3856,-507,1101,0
3859,-507,1095,0
3860,-510,1098,0
3859,-509,1101,0
3860,-509,1103,0
3861,-518,1106,0
3864,-514,1104,0
3860,-513,1104,0
3860,-517,1105,0
3866,-520,1107,0
3867,-521,1111,0
3865,-522,1117,0
3864,-519,1119,0
3858,-516,1114,0
3852,-521,1109,0
3850,-527,1103,0
3852,-537,1105,0
3850,-537,1107,0
3851,-532,1102,0
3851,-530,1100,0
3847,-526,1090,0
3847,-527,1081,0
3848,-527,1083,0
3850,-526,1091,0
3852,-528,1097,0
3852,-531,1099,0
3851,-533,1101,0
3853,-533,1102,0
3852,-539,1098,0
3855,-545,1092,0
3856,-552,1090,0
3858,-558,1092,0
3866,-556,1094,0
3868,-552,1098,0
3869,-547,1100,0
3868,-540,1101,0
3868,-538,1102,0
3868,-538,1102,0
3870,-539,1113,0
3867,-537,1118,0
3865,-531,1123,0
3857,-525,1125,0
3848,-524,1119,0
3843,-525,1109,0
3840,-527,1103,0
3840,-529,1100,0
3843,-533,1100,0
3846,-533,1100,0
3849,-531,1092,0
3847,-533,1086,0
3849,-535,1082,0
3852,-538,1082,0
3855,-539,1083,0
3858,-540,1086,0
3857,-536,1087,0
3858,-535,1086,0
3854,-536,1091,0
3856,-541,1091,0
3858,-541,1096,0
3861,-543,1100,0
3863,-545,1108,0
3866,-548,1112,0
3871,-545,1120,0
3872,-538,1120,0
3875,-535,1114,0
3875,-534,1103,0
3874,-534,1093,0
3867,-539,1089,0
3866,-536,1088,0
3863,-537,1089,0
3856,-539,1089,0
3854,-538,1086,0
3853,-539,1083,0
3849,-544,1085,0
3848,-544,1088,0
3848,-549,1096,0
3850,-554,1098,0
3853,-555,1104,0
3853,-551,1106,0
3850,-545,1104,0
3854,-547,1100,0
3857,-547,1097,0
3862,-548,1099,0
3871,-544,1101,0
3877,-541,1097,0
3879,-539,1089,0
3877,-538,1087,0
3873,-534,1084,0
3876,-535,1084,0
3876,-534,1084,0
3868,-532,1088,0
3864,-533,1091,0
3862,-528,1092,0
3858,-527,1090,0
3851,-532,1090,0
3852,-535,1091,0
3849,-535,1092,0
3850,-532,1098,0
3854,-532,1107,0
3853,-531,1104,0
3851,-531,1100,0
3849,-530,1096,0
3847,-532,1092,0
3846,-533,1089,0
3847,-531,1093,0
3847,-531,1094,0
3856,-534,1095,0
3860,-533,1102,0
3867,-534,1102,0
3869,-534,1098,0
3872,-530,1095,0
3875,-533,1094,0
3877,-537,1093,0
3879,-532,1098,0
3880,-531,1104,0
3877,-530,1104,0
3875,-527,1104,0
3872,-528,1104,0
3871,-531,1103,0
3867,-532,1104,0
3865,-528,1100,0
3862,-528,1095,0
3855,-526,1092,0
3851,-523,1088,0
3849,-524,1086,0
3846,-523,1086,0
3844,-524,1084,0
3845,-526,1086,0
3844,-526,1087,0
3840,-522,1087,0
3840,-526,1091,0
3844,-527,1094,0
3849,-526,1094,0
3852,-525,1098,0
3856,-523,1099,0
3856,-526,1100,0
3856,-527,1101,0
3856,-531,1093,0
3864,-530,1094,0
3861,-529,1098,0
3868,-528,1101,0
3872,-529,1100,0
3874,-531,1096,0
3873,-537,1096,0
3872,-537,1092,0
3871,-534,1091,0
3869,-532,1092,0
3868,-529,1090,0
3866,-528,1090,0
3865,-531,1093,0
3864,-533,1094,0
3863,-533,1093,0
3867,-537,1098,0
3874,-541,1111,0
3883,-545,1123,0
3887,-543,1134,0
3889,-535,1133,0
3883,-529,1127,0
3874,-518,1116,0
3865,-518,1101,0
3856,-518,1084,0
3855,-514,1076,0
3854,-512,1075,0
3856,-508,1083,0
3860,-502,1084,0
3860,-501,1091,0
3858,-496,1093,0
3853,-491,1093,0
3854,-496,1095,0
3857,-505,1098,0
3862,-513,1105,0
3864,-514,1106,0
3861,-516,1105,0
3862,-515,1104,0
3862,-513,1099,0
3861,-508,1096,0
3855,-507,1091,0
3860,-509,1091,0
3858,-505,1093,0
3858,-500,1093,0
3858,-491,1094,0
3860,-491,1098,0
3861,-489,1100,0
3860,-488,1098,0
3860,-487,1099,0
3860,-486,1099,0
3862,-488,1097,0
3862,-492,1096,0
3866,-493,1095,0
3865,-494,1090,0
3865,-496,1088,0
3864,-497,1086,0
3863,-494,1085,0
3860,-493,1086,0
3859,-491,1086,0
3856,-490,1088,0
3849,-488,1088,0
3848,-486,1094,0
3851,-485,1096,0
3848,-486,1100,0
3853,-492,1100,0
3859,-499,1101,0
3860,-500,1102,0
3864,-499,1106,0
3865,-501,1104,0
3868,-499,1097,0
3869,-495,1094,0
3867,-493,1093,0
3865,-496,1093,0
3865,-496,1092,0
3864,-500,1095,0
3869,-508,1098,0
3873,-512,1097,0
3872,-510,1103,0
3867,-510,1105,0
3867,-509,1103,0
3868,-507,1107,0
3867,-509,1104,0
3864,-505,1107,0
3864,-501,1105,0
3870,-497,1106,0
3867,-489,1110,0
3868,-480,1112,0
3865,-474,1112,0
3866,-475,1112,0
3862,-469,1106,0
3858,-467,1099,0
3857,-466,1102,0
3861,-466,1104,0
3864,-461,1106,0
3867,-459,1109,0
3871,-457,1110,0
3873,-455,1109,0
3874,-453,1106,0
3872,-455,1102,0
3871,-455,1098,0
3867,-455,1095,0
3862,-454,1094,0
3865,-455,1092,0
3865,-457,1093,0
3858,-454,1092,0
3859,-452,1091,0
3857,-451,1090,0
3856,-454,1093,0
3853,-455,1095,0
3851,-452,1098,0
3853,-456,1102,0
3850,-459,1098,0
3849,-460,1100,0
3849,-466,1103,0
3848,-466,1103,0
3848,-470,1103,0
3852,-473,1101,0
3849,-474,1099,0
3849,-477,1093,0
3850,-476,1094,0
3853,-478,1092,0
3861,-477,1093,0
3866,-480,1096,0
3871,-484,1101,0
3877,-486,1108,0
3884,-487,1110,0
3891,-483,1111,0
3896,-480,1113,0
3893,-480,1114,0
3890,-485,1110,0
3887,-485,1104,0
3885,-480,1103,0
3881,-483,1105,0
3874,-484,1105,0
3868,-483,1104,0
3866,-484,1096,0
3863,-487,1092,0
3859,-487,1091,0
3860,-494,1089,0
3860,-495,1088,0
3862,-495,1091,0
3868,-495,1096,0
3871,-497,1098,0
3864,-497,1100,0
3863,-500,1098,0
3858,-497,1096,0
3854,-496,1091,0
3853,-499,1086,0
3852,-497,1081,0
3848,-492,1084,0
3847,-491,1080,0
3854,-495,1082,0
3855,-499,1083,0
3860,-498,1088,0
3866,-500,1090,0
3867,-500,1089,0
3866,-499,1087,0
3868,-500,1086,0
3870,-502,1086,0
3872,-504,1085,0
3873,-501,1085,0
3875,-502,1086,0
3873,-498,1086,0
3873,-493,1083,0
3870,-491,1085,0
3871,-486,1093,0
3872,-482,1094,0
3869,-481,1097,0
3868,-476,1099,0
3869,-476,1101,0
3865,-475,1105,0
3864,-470,1103,0
3867,-474,1102,0
3866,-477,1101,0
3868,-478,1102,0
3861,-476,1102,0
3858,-476,1101,0
3856,-473,1099,0
3858,-473,1099,0
3857,-474,1099,0
3859,-474,1100,0
3857,-468,1104,0
3862,-468,1108,0
3863,-468,1112,0
3868,-468,1118,0
3870,-468,1118,0
3872,-469,1117,0
3875,-473,1115,0
3874,-473,1118,0
3876,-472,1118,0
3876,-475,1115,0
3878,-476,1109,0
3877,-473,1107,0
3874,-475,1103,0
3873,-474,1105,0
3868,-472,1102,0
3865,-471,1099,0
3861,-470,1099,0
3857,-473,1096,0
3855,-471,1098,0
3854,-473,1099,0
3851,-477,1099,0
3851,-473,1101,0
3852,-475,1101,0
3855,-476,1104,0
3854,-472,1108,0
3860,-470,1113,0
3859,-470,1112,0
3859,-471,1112,0
3862,-470,1112,0
3859,-470,1116,0
3863,-467,1112,0
3865,-469,1107,0
3860,-469,1105,0
3859,-472,1100,0
3862,-478,1096,0
3867,-482,1097,0
3869,-482,1096,0
3876,-486,1096,0
3876,-489,1094,0
3875,-492,1095,0
3877,-490,1094,0
3873,-492,1095,0
3875,-492,1094,0
3877,-496,1097,0
3875,-496,1098,0
3873,-493,1096,0
3865,-494,1091,0
3861,-493,1089,0
3856,-493,1085,0
3853,-493,1083,0
3857,-493,1088,0
3859,-492,1095,0
3859,-484,1099,0
3862,-484,1103,0
3867,-482,1109,0
3869,-476,1104,0
3868,-469,1102,0
3866,-465,1100,0
3860,-461,1101,0
3863,-459,1107,0
3860,-454,1104,0
3861,-450,1098,0
3864,-454,1096,0
3863,-455,1096,0
3866,-459,1099,0
3869,-460,1100,0
3867,-459,1099,0
3866,-457,1093,0
3861,-457,1092,0
3864,-459,1089,0
3865,-461,1091,0
3872,-463,1097,0
3869,-457,1096,0
3871,-456,1092,0
3870,-455,1088,0
3864,-451,1087,0
3863,-450,1085,0
3864,-446,1090,0
3871,-455,1096,0
3878,-457,1110,0
3883,-459,1123,0
3891,-457,1128,0
3890,-451,1124,0
3888,-448,1118,0
3885,-442,1104,0
3880,-438,1094,0
3872,-433,1086,0
3870,-430,1083,0
3869,-430,1086,0
3870,-432,1093,0
3873,-437,1098,0
3871,-432,1098,0
3866,-425,1100,0
3863,-425,1099,0
3861,-427,1098,0
3862,-433,1101,0
3867,-442,1102,0
3870,-444,1105,0
3868,-444,1106,0
3868,-444,1106,0
3870,-440,1111,0
3870,-438,1114,0
3869,-432,1114,0
3867,-424,1113,0
3867,-420,1110,0
3861,-415,1105,0
3859,-414,1096,0
3857,-414,1093,0
3858,-411,1089,0
3860,-413,1093,0
3863,-415,1097,0
3864,-419,1100,0
3863,-421,1099,0
3864,-421,1099,0
3865,-429,1097,0
3863,-430,1097,0
3861,-434,1097,0
3863,-435,1099,0
3863,-431,1101,0
3864,-436,1105,0
3863,-432,1105,0
3862,-432,1105,0
3872,-428,1112,0
3874,-430,1121,0
3876,-427,1123,0
3877,-426,1125,0
3872,-425,1124,0
3869,-426,1118,0
3868,-425,1114,0
3866,-426,1113,0
3865,-421,1116,0
3866,-422,1119,0
3865,-421,1118,0
3867,-421,1110,0
3862,-422,1107,0
3863,-423,1108,0
3867,-423,1111,0
3870,-422,1114,0
3873,-423,1115,0
3876,-418,1113,0
3871,-421,1109,0
3869,-423,1105,0
3867,-428,1102,0
3866,-426,1101,0
3869,-426,1099,0
3867,-430,1101,0
3866,-426,1104,0
3867,-428,1104,0
3866,-430,1103,0
3869,-429,1102,0
3866,-429,1104,0
3868,-431,1108,0
3871,-437,1117,0
3872,-438,1116,0
3876,-437,1115,0
3876,-440,1116,0
3878,-438,1111,0
3873,-440,1105,0
3875,-438,1102,0
3873,-445,1096,0
3867,-447,1092,0
3870,-448,1095,0
3870,-452,1098,0
3870,-455,1106,0
3867,-453,1109,0
3865,-449,1104,0
3864,-444,1104,0
3863,-444,1101,0
3865,-451,1104,0
3870,-452,1102,0
3865,-451,1101,0
3872,-450,1101,0
3872,-450,1103,0
3871,-448,1101,0
3872,-444,1099,0
3874,-448,1097,0
3874,-448,1099,0
3877,-449,1098,0
3881,-454,1094,0
3884,-454,1095,0
3889,-455,1100,0
3890,-454,1104,0
3897,-454,1110,0
3895,-450,1109,0
3891,-444,1104,0
3890,-437,1101,0
3882,-431,1098,0
3876,-430,1088,0
3866,-429,1081,0
3863,-427,1084,0
3860,-422,1084,0
3861,-418,1088,0
3859,-415,1084,0
3860,-411,1086,0
3867,-415,1094,0
3875,-420,1099,0
3882,-424,1111,0
3883,-425,1119,0
3883,-426,1121,0
3883,-428,1115,0
3880,-427,1112,0
3874,-430,1103,0
3876,-435,1099,0
3876,-435,1089,0
3876,-434,1088,0
3884,-434,1088,0
3894,-434,1092,0
3899,-435,1100,0
3895,-432,1101,0
3888,-429,1097,0
3881,-427,1094,0
3869,-428,1088,0
3861,-428,1086,0
3856,-436,1091,0
3854,-443,1097,0
3853,-450,1101,0
3856,-459,1098,0
3857,-463,1095,0
3858,-465,1097,0
3862,-465,1090,0
3862,-464,1091,0
3867,-466,1090,0
3870,-463,1091,0
3869,-458,1086,0
3870,-456,1086,0
3868,-456,1085,0
3871,-453,1085,0
3875,-457,1080,0
3879,-457,1077,0
3882,-455,1078,0
3884,-453,1076,0
3887,-455,1071,0
3888,-452,1067,0
3884,-452,1063,0
3884,-449,1061,0
3878,-446,1061,0
3874,-440,1064,0
3870,-432,1067,0
3871,-423,1072,0
3864,-417,1069,0
3860,-413,1065,0
3858,-408,1068,0
3855,-403,1072,0
3858,-395,1081,0
3859,-392,1092,0
3865,-381,1097,0
3864,-373,1096,0
3867,-361,1100,0
3871,-350,1100,0
3868,-343,1096,0
3861,-336,1093,0
3861,-329,1089,0
3857,-321,1093,0
3858,-318,1092,0
3856,-312,1089,0
3854,-306,1084,0
3853,-301,1087,0
3855,-297,1082,0
3861,-299,1086,0
3871,-296,1088,0
3878,-291,1090,0
3892,-287,1090,0
3899,-284,1092,0
3905,-285,1097,0
3913,-286,1097,0
3917,-290,1094,0
3917,-293,1088,0
3915,-298,1090,0
3913,-301,1086,0
3911,-300,1087,0
3907,-306,1089,0
3901,-313,1093,0
3891,-321,1096,0
3885,-329,1099,0
3881,-338,1104,0
3874,-347,1104,0
3872,-358,1106,0
3874,-371,1108,0
3874,-379,1107,0
3873,-385,1105,0
3879,-398,1103,0
3881,-407,1099,0
3881,-411,1094,0
3891,-411,1093,0
3889,-413,1091,0
3886,-423,1089,0
3881,-425,1086,0
3877,-425,1084,0
3872,-427,1076,0
3867,-431,1074,0
3870,-432,1074,0
3869,-429,1072,0
3868,-424,1070,0
3861,-420,1066,0
3862,-421,1066,0
3862,-422,1062,0
3865,-421,1068,0
3867,-418,1075,0
3874,-421,1084,0
3877,-422,1091,0
3878,-420,1095,0
3881,-424,1098,0
3886,-425,1101,0
3889,-423,1103,0
3890,-427,1101,0
3888,-425,1093,0
3884,-425,1082,0
3883,-426,1077,0
3884,-428,1074,0
3887,-423,1070,0
3888,-422,1069,0
3887,-421,1066,0
3883,-419,1065,0
3885,-420,1064,0
3880,-419,1061,0
3879,-422,1061,0
3875,-428,1059,0
3875,-426,1061,0
3877,-429,1067,0
3878,-430,1073,0
3880,-430,1079,0
3882,-428,1080,0
3883,-424,1077,0
3882,-426,1078,0
3884,-425,1080,0
3883,-422,1072,0
3882,-422,1068,0
3881,-425,1075,0
3882,-420,1081,0
3877,-416,1078,0
3877,-415,1077,0
3876,-415,1081,0
3873,-417,1077,0
3873,-417,1072,0
3876,-419,1071,0
3877,-422,1074,0
3879,-422,1074,0
3881,-419,1070,0
3880,-417,1069,0
3882,-414,1068,0
3882,-415,1069,0
3881,-408,1067,0
3877,-401,1066,0
3878,-394,1064,0
3880,-391,1071,0
3881,-390,1079,0
3878,-383,1076,0
3877,-390,1075,0
3881,-394,1079,0
3883,-394,1090,0
3884,-388,1088,0
3888,-393,1088,0
3889,-396,1088,0
3886,-396,1088,0
3883,-395,1084,0
3879,-398,1081,0
3878,-399,1077,0
3878,-396,1075,0
3874,-394,1074,0
3872,-394,1077,0
3871,-395,1076,0
3872,-396,1074,0
3877,-394,1075,0
3873,-398,1076,0
3878,-403,1077,0
3878,-408,1084,0
3883,-411,1086,0
3883,-420,1084,0
3880,-420,1085,0
3880,-422,1083,0
3882,-421,1084,0
3877,-423,1081,0
3876,-419,1081,0
3877,-415,1079,0
3873,-409,1075,0
3869,-408,1070,0
3865,-412,1068,0
3862,-408,1069,0
3867,-409,1071,0
3870,-411,1070,0
3874,-418,1067,0
3876,-419,1066,0
3877,-418,1068,0
3875,-416,1065,0
3874,-421,1067,0
3877,-428,1068,0
3879,-429,1074,0
3880,-431,1076,0
3883,-432,1079,0
3888,-431,1077,0
3889,-429,1071,0
3886,-426,1066,0
3882,-417,1070,0
3880,-416,1073,0
3881,-413,1071,0
3884,-414,1072,0
3883,-412,1072,0
3886,-410,1073,0
3891,-410,1073,0
3892,-407,1073,0
3896,-410,1075,0
3894,-409,1073,0
3893,-405,1068,0
3891,-405,1062,0
3889,-409,1064,0
3888,-411,1062,0
3885,-415,1063,0
3885,-418,1062,0
3888,-421,1066,0
3886,-425,1066,0
3884,-429,1063,0
3877,-427,1060,0
3873,-430,1060,0
3875,-431,1061,0
3872,-430,1061,0
3865,-428,1062,0
3864,-431,1060,0
3865,-433,1062,0
3866,-437,1064,0
3864,-431,1063,0
3873,-432,1066,0
3873,-431,1067,0
3873,-427,1065,0
3876,-423,1061,0
3878,-418,1055,0
3877,-409,1048,0
3882,-412,1060,0
3883,-406,1060,0
3892,-404,1065,0
3894,-410,1070,0
3895,-409,1069,0
3898,-410,1069,0
3899,-414,1073,0
3897,-415,1078,0
3893,-416,1073,0
3891,-414,1070,0
3894,-413,1069,0
3891,-413,1065,0
3887,-410,1067,0
3884,-411,1064,0
3882,-411,1064,0
3880,-409,1061,0
3882,-410,1067,0
3885,-413,1067,0
3884,-409,1069,0
3886,-405,1068,0
3884,-400,1068,0
3884,-396,1064,0
3881,-394,1059,0
3880,-394,1060,0
3881,-393,1063,0
3880,-391,1067,0
3877,-395,1069,0
3878,-397,1072,0
3878,-399,1075,0
3877,-400,1071,0
3878,-402,1070,0
3876,-405,1071,0
3878,-408,1071,0
3880,-409,1073,0
3881,-409,1070,0
3882,-409,1071,0
3882,-408,1071,0
3883,-408,1067,0
3883,-404,1065,0
3885,-402,1067,0
3883,-400,1070,0
3885,-402,1068,0
3886,-397,1068,0
3884,-395,1068,0
3884,-392,1066,0
3884,-393,1068,0
3886,-399,1071,0
3887,-402,1074,0
3887,-412,1072,0
3879,-406,1063,0
3878,-421,1070,0
3878,-411,1060,0
3883,-414,1060,0
3884,-416,1060,0
3885,-420,1063,0
3891,-419,1066,0
3889,-418,1066,0
3887,-412,1066,0
3885,-411,1069,0
3886,-408,1071,0
3884,-411,1072,0
3887,-411,1073,0
3886,-415,1068,0
3886,-412,1066,0
3889,-413,1065,0
3890,-412,1064,0
3889,-413,1065,0
3890,-410,1064,0
3889,-410,1063,0
3888,-408,1066,0
3888,-406,1072,0
3886,-403,1071,0
3883,-400,1073,0
3879,-398,1070,0
3878,-395,1073,0
3879,-394,1075,0
3878,-390,1073,0
3874,-384,1069,0
3873,-382,1063,0
3875,-379,1064,0
3873,-371,1060,0
3874,-367,1059,0
3874,-371,1062,0
3874,-373,1064,0
3879,-377,1070,0
3883,-375,1073,0
3886,-372,1074,0
3888,-369,1072,0
3888,-368,1074,0
3891,-368,1074,0
3894,-369,1075,0
3892,-367,1070,0
3888,-368,1065,0
3888,-373,1066,0
3883,-374,1070,0
3880,-377,1071,0
3879,-378,1072,0
3879,-378,1068,0
3878,-383,1070,0
3880,-381,1069,0
3880,-383,1073,0
3881,-382,1073,0
3880,-390,1067,0
3875,-390,1062,0
3875,-392,1058,0
3876,-391,1058,0
3878,-393,1058,0
3880,-393,1058,0
3885,-398,1060,0
3892,-395,1061,0
3890,-396,1058,0
3888,-395,1058,0
3888,-397,1058,0
3889,-399,1061,0
3887,-402,1061,0
3887,-403,1064,0
3885,-405,1066,0
3884,-402,1067,0
3881,-398,1068,0
3880,-396,1068,0
3880,-393,1070,0
3880,-396,1068,0
3881,-395,1072,0
3883,-392,1074,0
3884,-392,1078,0
3885,-391,1077,0
3883,-391,1070,0
3879,-389,1068,0
3881,-390,1066,0
3879,-393,1065,0
3882,-389,1061,0
3882,-389,1061,0
3882,-392,1065,0
3884,-391,1061,0
3885,-394,1059,0
3884,-396,1060,0
3885,-403,1065,0
3887,-405,1067,0
3890,-403,1071,0
3891,-402,1073,0
3888,-405,1073,0
3893,-403,1072,0
3889,-397,1070,0
3888,-393,1065,0
3888,-387,1065,0
3890,-387,1062,0
3885,-385,1064,0
3886,-383,1067,0
3884,-377,1068,0
3882,-382,1068,0
3880,-382,1072,0
3877,-382,1075,0
3880,-383,1074,0
3881,-384,1076,0
3884,-390,1080,0
3886,-391,1078,0
3886,-391,1073,0
3879,-386,1072,0
3876,-382,1069,0
3868,-377,1065,0
3866,-378,1064,0
3865,-373,1063,0
3870,-368,1060,0
3877,-366,1066,0
3881,-365,1069,0
3886,-365,1071,0
3888,-367,1071,0
3890,-373,1068,0
3888,-375,1071,0
3890,-379,1071,0
3889,-380,1075,0
3888,-384,1073,0
3886,-381,1073,0
3886,-380,1070,0
3882,-382,1068,0
3885,-384,1063,0
3883,-388,1062,0
3884,-385,1064,0
3884,-386,1064,0
3886,-391,1063,0
3893,-395,1067,0
3891,-402,1072,0
3890,-404,1076,0
3889,-405,1074,0
3884,-406,1072,0
3884,-405,1067,0
3883,-406,1065,0
3882,-409,1065,0
3885,-410,1065,0
3883,-413,1069,0
3883,-411,1070,0
3881,-410,1071,0
3880,-410,1071,0
3878,-411,1068,0
3874,-409,1069,0
3876,-409,1067,0
3878,-406,1068,0
3877,-406,1071,0
3877,-400,1072,0
3877,-399,1066,0
3875,-394,1067,0
3875,-394,1066,0
3876,-396,1067,0
3876,-395,1066,0
3876,-390,1067,0
3875,-387,1071,0
3878,-389,1073,0
3880,-388,1075,0
3884,-387,1077,0
3885,-383,1074,0
3886,-379,1072,0
3889,-377,1074,0
3891,-381,1076,0
3890,-382,1077,0
3888,-385,1074,0
3887,-387,1073,0
3885,-390,1076,0
3883,-394,1076,0
3881,-397,1077,0
3880,-393,1076,0
3881,-397,1075,0
3881,-400,1070,0
3878,-407,1070,0
3880,-414,1068,0
3879,-420,1068,0
3878,-420,1066,0
3880,-422,1063,0
3877,-428,1066,0
3877,-433,1068,0
3877,-434,1068,0
3872,-436,1067,0
3873,-435,1070,0
3876,-432,1072,0
3874,-431,1073,0
3871,-427,1071,0
3868,-423,1066,0
3873,-423,1067,0
3872,-418,1067,0
3871,-416,1071,0
3872,-412,1076,0
3873,-406,1080,0
3878,-401,1080,0
3879,-399,1082,0
3877,-402,1086,0
3881,-405,1090,0
3885,-406,1090,0
3881,-400,1091,0
3882,-396,1093,0
3881,-397,1092,0
3880,-400,1089,0
3878,-400,1088,0
3875,-399,1079,0
3874,-397,1077,0
3876,-401,1070,0
3875,-411,1069,0
3878,-416,1072,0
3877,-422,1072,0
3875,-428,1071,0
3878,-437,1075,0
3869,-433,1072,0
3873,-438,1083,0
3874,-448,1072,0
3878,-451,1070,0
3881,-448,1065,0
3883,-445,1060,0
3887,-440,1060,0
3890,-436,1066,0
3889,-432,1068,0
3894,-430,1068,0
3888,-428,1073,0
3888,-429,1076,0
3886,-427,1078,0
3885,-428,1079,0
3884,-425,1082,0
3881,-425,1081,0
3876,-420,1079,0
3875,-418,1078,0
3877,-417,1085,0
3876,-413,1090,0
3877,-405,1091,0
3870,-398,1087,0
3866,-395,1081,0
3860,-392,1079,0
3858,-391,1081,0
3863,-387,1080,0
3869,-384,1079,0
3875,-383,1084,0
3881,-377,1086,0
3882,-377,1082,0
3880,-384,1081,0
3885,-387,1076,0
3886,-388,1069,0
3888,-392,1071,0
3885,-397,1067,0
3888,-400,1067,0
3882,-400,1065,0
3881,-402,1068,0
3883,-400,1069,0
3886,-404,1073,0
3888,-407,1079,0
3885,-412,1082,0
3883,-420,1083,0
3881,-426,1087,0
3880,-432,1081,0
3874,-435,1076,0
3874,-436,1072,0
3878,-438,1073,0
3880,-439,1077,0
3881,-439,1077,0
3882,-439,1077,0
3882,-444,1074,0
3881,-452,1074,0
3879,-455,1070,0
3871,-462,1062,0
3869,-465,1066,0
3868,-465,1067,0
3869,-465,1069,0
3870,-468,1074,0
3871,-466,1076,0
3871,-467,1079,0
3870,-465,1074,0
3871,-466,1073,0
3866,-466,1069,0
3866,-462,1068,0
3867,-456,1069,0
3869,-452,1070,0
3871,-449,1073,0
3878,-449,1078,0
3879,-444,1076,0
3883,-442,1075,0
3885,-437,1073,0
3886,-435,1074,0
3885,-433,1071,0
3887,-430,1073,0
3887,-432,1072,0
3886,-434,1073,0
3887,-438,1078,0
3884,-442,1076,0
3882,-444,1080,0
3879,-447,1074,0
3879,-449,1069,0
3875,-451,1069,0
3874,-452,1070,0
3876,-456,1073,0
3877,-459,1077,0
3878,-461,1080,0
3877,-457,1074,0
3875,-458,1070,0
3867,-460,1068,0
3864,-462,1063,0
3864,-465,1062,0
3863,-463,1061,0
3862,-462,1061,0
3866,-461,1063,0
3870,-460,1064,0
3875,-460,1064,0
3879,-459,1062,0
3877,-459,1061,0
3879,-457,1065,0
3880,-457,1063,0
3881,-452,1060,0
3880,-452,1062,0
3881,-447,1066,0
3881,-442,1070,0
3882,-443,1075,0
3884,-444,1073,0
3884,-446,1074,0
3882,-443,1074,0
3882,-445,1074,0
3882,-447,1071,0
3880,-448,1074,0
3879,-453,1072,0
3877,-447,1072,0
3877,-445,1071,0
3875,-446,1068,0
3873,-448,1063,0
3872,-454,1062,0
3872,-459,1067,0
3871,-466,1071,0
3871,-471,1069,0
3871,-473,1066,0
3872,-479,1065,0
3875,-480,1064,0
3876,-477,1064,0
3879,-479,1066,0
3883,-475,1068,0
3883,-471,1065,0
3887,-467,1062,0
3887,-462,1060,0
3884,-459,1060,0
3886,-459,1059,0
3883,-456,1062,0
3883,-456,1065,0
3880,-455,1064,0
3875,-453,1067,0
3872,-454,1066,0
3869,-453,1066,0
3870,-457,1066,0
3867,-466,1067,0
3868,-470,1069,0
3869,-471,1069,0
3867,-471,1065,0
3868,-468,1062,0
3866,-467,1058,0
3861,-470,1054,0
3866,-466,1055,0
3868,-469,1056,0
3869,-471,1058,0
3874,-471,1057,0
3877,-473,1060,0
3880,-466,1060,0
3884,-469,1058,0
3885,-469,1060,0
3886,-466,1064,0
3886,-467,1069,0
3886,-473,1068,0
3882,-472,1065,0
3879,-472,1065,0
3872,-477,1060,0
3867,-479,1058,0
3865,-481,1060,0
3868,-483,1057,0
3866,-482,1054,0
3864,-480,1051,0
3870,-481,1051,0
3871,-480,1054,0
3875,-483,1057,0
3875,-488,1056,0
3876,-488,1059,0
3882,-493,1061,0
3880,-492,1064,0
3880,-492,1063,0
3876,-491,1064,0
3874,-492,1056,0
3877,-490,1056,0
3876,-492,1059,0
3875,-489,1061,0
3875,-487,1065,0
3875,-483,1065,0
3874,-480,1065,0
3872,-477,1061,0
3873,-482,1058,0
3872,-480,1058,0
3870,-479,1053,0
3872,-479,1058,0
3874,-481,1062,0
3879,-481,1062,0
3883,-483,1058,0
3885,-485,1060,0
3885,-484,1057,0
3879,-480,1055,0
3880,-487,1057,0
3879,-485,1060,0
3878,-486,1061,0
3875,-485,1061,0
3870,-489,1062,0
3870,-486,1061,0
3874,-483,1060,0
3878,-482,1064,0
3877,-487,1063,0
3881,-490,1062,0
3883,-491,1058,0
3881,-490,1057,0
3879,-489,1054,0
3879,-498,1053,0
3882,-500,1050,0
3881,-499,1051,0
3883,-501,1049,0
3879,-503,1053,0
3879,-505,1053,0
3880,-508,1052,0
3878,-506,1052,0
3877,-504,1053,0
3874,-504,1048,0
3873,-505,1051,0
3873,-508,1049,0
3873,-510,1050,0
3877,-516,1055,0
3879,-520,1056,0
3880,-526,1059,0
3883,-522,1057,0
3882,-521,1058,0
3881,-521,1058,0
3881,-515,1051,0
3875,-512,1047,0
3877,-519,1050,0
3874,-525,1052,0
3869,-529,1049,0
3870,-528,1045,0
3868,-526,1045,0
3871,-525,1046,0
3871,-525,1045,0
3875,-520,1047,0
3876,-520,1048,0
3877,-521,1050,0
3879,-525,1049,0
3879,-526,1050,0
3876,-529,1048,0
3869,-529,1044,0
3868,-529,1040,0
3868,-526,1038,0
3868,-527,1034,0
3864,-523,1036,0
3861,-526,1041,0
3867,-529,1049,0
3859,-530,1056,0
3860,-535,1058,0
3863,-540,1061,0
3866,-544,1068,0
3867,-550,1072,0
3871,-556,1072,0
3875,-560,1071,0
3876,-562,1064,0
3867,-566,1054,0
3862,-569,1048,0
3851,-574,1035,0
3847,-580,1027,0
3836,-581,1021,0
3829,-578,1024,0
3822,-576,1021,0
3812,-569,1015,0
3805,-566,1010,0
3797,-559,1005,0
3790,-552,999,0
3789,-548,993,0
3786,-540,985,0
3782,-540,983,0
3781,-533,977,0
3777,-526,972,0
3773,-521,963,0
3765,-519,958,0
3758,-515,950,0
3744,-503,946,0
3730,-496,946,0
3713,-493,945,0
3700,-493,935,0
3680,-483,918,0
3665,-476,901,0
3651,-475,889,0
3646,-479,883,0
3638,-487,886,0
3632,-499,888,0
3628,-511,883,0
3616,-524,875,0
3597,-540,861,0
3570,-556,848,0
3539,-579,851,0
3504,-602,855,0
3465,-624,857,0
3425,-643,862,0
3372,-660,857,0
3309,-675,858,0
3246,-684,852,0
3169,-686,827,0
3081,-677,778,0
2985,-656,721,0
2881,-617,651,0
2769,-558,568,0
2658,-497,498,0
2548,-433,433,0
2448,-378,390,0
2349,-317,367,0
2255,-263,358,0
2175,-221,359,0
2120,-212,372,0
2097,-230,414,0
2103,-266,486,0
2142,-311,591,0
2197,-355,695,0
2256,-388,780,0
2305,-403,824,0
2352,-406,837,0
2391,-392,822,0
2436,-371,805,0
2491,-335,798,0
2569,-298,818,0
2662,-259,868,0
2760,-222,928,0
2840,-181,945,0
2885,-123,894,0
2899,-50,763,0
2879,56,575,0
2843,179,354,0
2796,276,146,0
2758,349,-45,0
2745,373,-170,0
2769,342,-203,0
2844,263,-122,0
2968,157,56,0
3112,50,303,0
3256,-40,575,0
3383,-128,833,0
3486,-224,1064,0
3561,-331,1251,0
3615,-447,1386,0
3663,-565,1470,0
3720,-679,1519,0
3805,-776,1538,0
3934,-846,1558,0
4092,-876,1585,0
4291,-860,1611,0
4534,-809,1656,0
4809,-725,1744,0
5095,-641,1865,0
5352,-563,1947,0
5562,-519,1984,0
5729,-526,1982,0
5843,-561,1936,0
5910,-595,1871,0
5964,-627,1826,0
6035,-643,1833,0
6118,-633,1867,0
6222,-599,1880,0
6330,-498,1874,0
6468,-348,1901,0
6641,-168,1982,0
6851,24,2084,0
7076,233,2192,0
7313,415,2323,0
7562,561,2441,0
7821,656,2557,0
8081,722,2665,0
8369,754,2775,0
8675,747,2876,0
8985,696,2944,0
9299,603,2966,0
9618,461,2954,0
9938,293,2954,0
10251,138,2988,0
10549,29,3033,0
10822,-42,3065,0
11038,-63,3049,0
11195,-51,2971,0
11294,-20,2862,0
11343,32,2780,0
11353,98,2731,0
11315,148,2693,0
11229,159,2651,0
11086,144,2606,0
10906,99,2573,0
10697,45,2560,0
10466,-16,2563,0
10201,-83,2554,0
9915,-173,2522,0
9596,-292,2454,0
9245,-433,2352,0
8862,-583,2228,0
8468,-722,2103,0
8043,-858,1994,0
7588,-985,1876,0
7118,-1101,1743,0
6643,-1197,1621,0
6162,-1291,1513,0
5681,-1376,1398,0
5191,-1448,1259,0
4683,-1498,1060,0
4159,-1511,807,0
3633,-1468,526,0
3106,-1325,292,0
2581,-1161,253,0
2053,-973,221,0
1607,-795,167,0
1247,-644,58,0
943,-548,-100,0
700,-518,-208,0
513,-580,-269,0
368,-663,-314,0
252,-677,-365,0
154,-598,-428,0
72,-490,-521,0
19,-565,-531,0
-71,-753,-462,0
-186,-952,-258,0
-296,-1152,-91,0
-366,-1403,-83,0
-448,-1573,-216,0
-584,-1708,-399,0
-760,-1880,-572,0
-916,-2161,-719,0
-1101,-2333,-907,0
-1399,-2215,-1148,0
-1832,-1933,-1493,0
-2353,-1696,-1830,0
-2803,-1545,-1996,0
-3113,-1468,-1970,0
-3303,-1389,-1786,0
-3396,-1311,-1561,0
-3435,-1193,-1373,0
-3471,-995,-1283,0
-3491,-713,-1325,0
-3462,-385,-1462,0
-3353,-76,-1610,0
-3155,147,-1655,0
-2879,209,-1507,0
-2574,211,-1250,0
-2280,244,-987,0
-1983,315,-765,0
-1679,402,-603,0
-1388,469,-484,0
-1115,493,-397,0
-872,471,-311,0
-667,429,-234,0
-500,404,-160,0
-373,420,-96,0
-278,478,-60,0
-203,553,-78,0
-172,754,-337,0
-98,788,-488,0
-7,726,-495,0
92,661,-414,0
271,733,-97,0
469,1050,252,0
682,1473,630,0
949,1820,1134,0
1685,1983,2169,0
3291,1915,2829,0
4567,1942,2644,0
4992,2047,2326,0
4845,2186,2520,0
4460,2235,2752,0
3948,2192,2612,0
3334,2175,2257,0
2680,2156,1748,0
2097,1968,1188,0
1648,1593,622,0
1291,1132,76,0
1020,659,-404,0
806,179,-926,0
668,-298,-1446,0
572,-665,-1750,0
498,-884,-1857,0
394,-971,-1855,0
287,-954,-1682,0
178,-862,-1411,0
76,-745,-1091,0
-16,-689,-857,0
-94,-705,-743,0
-261,-698,-710,0
-432,-778,-813,0
-486,-1161,-1158,0
-380,-1668,-1398,0
-186,-2186,-1439,0
11,-2720,-1358,0
129,-3202,-1238,0
142,-3608,-1101,0
-342,-3957,313,0
-1037,-5150,1360,0
-724,-7749,2292,0
4,-10262,2353,0
793,-11537,1706,0
1802,-11456,1082,0
3664,-9474,-39,0
7022,-6203,-538,0
11393,-3013,657,0
15588,-337,3269,0
18961,1207,6441,0
21089,1118,8278,0
21298,112,6750,0
19964,-1173,3543,0
17898,-2104,1106,0
15562,-2165,123,0
13180,-1381,88,0
10862,-340,186,0
8740,576,114,0
6977,1125,32,0
5566,1398,98,0
4440,1477,355,0
3548,1430,689,0
2909,1273,1031,0
2513,1124,1373,0
2381,1066,1717,0
2524,1113,2069,0
2870,1335,2332,0
3398,1615,2538,0
4041,1847,2723,0
4734,1998,2909,0
5413,2017,3127,0
5993,1846,3235,0
6449,1497,3054,0
6785,1033,2624,0
7017,520,2098,0
7155,14,1587,0
7217,-417,1180,0
7217,-697,915,0
7173,-816,807,0
7092,-790,780,0
7006,-775,861,0
6889,-862,969,0
6708,-1066,1054,0
6460,-1317,1117,0
6141,-1548,1170,0
5775,-1704,1229,0
5395,-1781,1291,0
5035,-1812,1353,0
4725,-1829,1406,0
4475,-1811,1456,0
4307,-1753,1521,0
4213,-1642,1606,0
4194,-1507,1698,0
4222,-1370,1782,0
4267,-1255,1837,0
4316,-1176,1844,0
4357,-1119,1805,0
4385,-1072,1729,0
4398,-1031,1631,0
4398,-987,1532,0
4399,-928,1443,0
4405,-854,1369,0
4411,-770,1321,0
4419,-676,1284,0
4415,-584,1253,0
4410,-494,1235,0
4406,-415,1235,0
4408,-335,1258,0
4415,-259,1291,0
4423,-192,1323,0
4436,-133,1349,0
4449,-92,1361,0
4456,-76,1358,0
4464,-88,1339,0
4454,-121,1304,0
4435,-175,1257,0
4398,-243,1209,0
4346,-310,1163,0
4279,-371,1116,0
4208,-425,1066,0
4146,-479,1016,0
4080,-527,982,0
4020,-574,955,0
3973,-618,942,0
3935,-655,940,0
3904,-689,945,0
3873,-718,957,0
3842,-746,970,0
3806,-763,983,0
3765,-771,996,0
3717,-769,1006,0
3662,-758,1013,0
3603,-740,1026,0
3547,-720,1036,0
3490,-700,1039,0
3433,-676,1044,0
3373,-654,1049,0
3318,-634,1055,0
3263,-615,1054,0
3213,-600,1053,0
3169,-591,1056,0
3130,-586,1057,0
3102,-585,1048,0
3076,-587,1038,0
3056,-595,1020,0
3045,-603,1014,0
3043,-614,1006,0
3048,-619,1003,0
3059,-623,1004,0
3068,-619,994,0
3080,-615,972,0
3088,-606,948,0
3107,-597,920,0
3136,-594,897,0
3177,-591,872,0
3220,-588,854,0
3279,-593,851,0
3335,-598,850,0
3378,-592,832,0
3412,-587,818,0
3434,-591,806,0
3447,-597,788,0
3443,-603,765,0
3431,-604,746,0
3421,-610,754,0
3408,-626,782,0
3399,-646,817,0
3379,-662,840,0
3347,-669,851,0
3315,-682,850,0
3291,-713,845,0
3280,-746,840,0
3273,-776,836,0
3268,-790,814,0
3272,-792,794,0
3298,-788,795,0
3346,-781,824,0
3407,-768,868,0
3467,-746,915,0
3524,-711,930,0
3574,-679,934,0
3596,-666,958,0
3603,-682,940,0
3599,-719,892,0
3599,-768,848,0
3611,-809,822,0
3631,-828,821,0
3659,-822,834,0
3701,-810,869,0
3750,-801,904,0
3787,-791,925,0
3816,-781,939,0
3840,-771,947,0
3852,-766,954,0
3853,-766,945,0
3840,-768,921,0
3825,-770,894,0
3806,-773,878,0
3792,-779,884,0
3784,-787,896,0
3772,-787,894,0
3756,-778,891,0
3736,-755,895,0
3719,-731,903,0
3706,-709,924,0
3711,-689,968,0
3716,-660,1014,0
3719,-620,1047,0
3724,-586,1070,0
3725,-551,1083,0
3735,-525,1094,0
3760,-517,1116,0
3787,-504,1130,0
3803,-489,1134,0
3819,-472,1117,0
3828,-451,1094,0
3848,-439,1066,0
3867,-430,1039,0
3892,-430,1028,0
3919,-432,1024,0
3943,-429,1020,0
3975,-432,1023,0
3999,-431,1032,0
4024,-430,1054,0
4034,-430,1064,0
4028,-434,1055,0
4013,-438,1036,0
3996,-444,1029,0
3979,-462,1030,0
3959,-481,1015,0
3934,-497,996,0
3911,-512,985,0
3888,-527,977,0
3869,-540,973,0
3847,-550,969,0
3825,-559,979,0
3811,-570,991,0
3795,-589,1005,0
3781,-602,1008,0
3766,-618,1007,0
3752,-640,1008,0
3739,-667,1008,0
3725,-692,1005,0
3717,-717,1003,0
3709,-738,995,0
3706,-761,987,0
3709,-781,984,0
3711,-793,979,0
3715,-800,964,0
3721,-810,954,0
3725,-817,938,0
3731,-818,916,0
3738,-823,903,0
3753,-832,900,0
3769,-846,905,0
3788,-863,915,0
3800,-874,916,0
3813,-885,912,0
3832,-895,921,0
3840,-896,929,0
3843,-892,925,0
3850,-899,922,0
3855,-907,925,0
3861,-916,933,0
3869,-917,938,0
3873,-920,945,0
3875,-926,964,0
3882,-933,979,0
3885,-938,985,0
3891,-937,988,0
3895,-934,995,0
3906,-926,1009,0
3913,-918,1022,0
3915,-910,1021,0
3917,-895,1012,0
3918,-882,1005,0
3912,-871,998,0
3899,-856,990,0
3893,-845,985,0
3884,-833,985,0
3877,-821,986,0
3871,-809,989,0
3864,-800,999,0
3854,-783,1001,0
3839,-764,994,0
3834,-755,1005,0
3835,-740,1017,0
3836,-726,1026,0
3839,-713,1037,0
3845,-707,1056,0
3849,-703,1060,0
3852,-700,1064,0
3861,-701,1063,0
3862,-698,1063,0
3867,-695,1066,0
3869,-700,1074,0
3873,-706,1081,0
3873,-712,1087,0
3864,-713,1090,0
3851,-711,1079,0
3834,-706,1056,0
3825,-706,1042,0
3822,-714,1038,0
3822,-719,1042,0
3831,-716,1045,0
3842,-725,1059,0
3857,-735,1074,0
3858,-736,1071,0
3850,-731,1058,0
3850,-731,1044,0
3848,-731,1032,0
3851,-734,1026,0
3854,-738,1028,0
3855,-742,1028,0
3857,-744,1026,0
3859,-752,1025,0
3857,-765,1023,0
3860,-779,1027,0
3865,-796,1039,0
3865,-808,1044,0
3857,-817,1035,0
3847,-832,1020,0
3841,-842,1011,0
3833,-849,1007,0
3831,-855,1001,0
3835,-860,999,0
3838,-859,1001,0
3837,-856,1009,0
3837,-846,1007,0
3831,-834,998,0
3830,-829,990,0
3833,-824,991,0
3830,-817,999,0
3838,-812,1003,0
3841,-809,1004,0
3846,-801,1022,0
3852,-795,1044,0
3853,-776,1053,0
3852,-755,1054,0
3845,-738,1048,0
3842,-724,1039,0
3840,-713,1037,0
3840,-704,1034,0
3842,-692,1037,0
3844,-680,1039,0
3850,-681,1048,0
3857,-684,1060,0
3857,-689,1058,0
3860,-688,1049,0
3860,-690,1044,0
3857,-687,1053,0
3858,-686,1064,0
3862,-689,1068,0
3856,-689,1065,0
3851,-692,1052,0
3845,-696,1042,0
3844,-696,1032,0
3844,-700,1026,0
3841,-705,1025,0
3844,-712,1032,0
3852,-722,1048,0
3852,-725,1059,0
3848,-723,1063,0
3841,-728,1056,0
3830,-730,1046,0
3821,-732,1044,0
3817,-736,1052,0
3817,-737,1062,0
3818,-734,1066,0
3820,-732,1063,0
3818,-729,1059,0
3824,-726,1054,0
3829,-725,1055,0
3833,-723,1048,0
3835,-728,1047,0
3844,-735,1055,0
3855,-741,1068,0
3862,-743,1069,0
3857,-749,1066,0
3856,-754,1066,0
3861,-763,1069,0
3865,-770,1082,0
3867,-767,1086,0
3860,-763,1079,0
3856,-762,1069,0
3854,-759,1066,0
3851,-749,1066,0
3848,-740,1063,0
3845,-729,1058,0
3843,-721,1057,0
3840,-714,1051,0
3842,-712,1047,0
3845,-710,1054,0
3850,-708,1063,0
3859,-712,1068,0
3864,-720,1078,0
3872,-728,1091,0
3879,-736,1104,0
3879,-735,1112,0
3873,-739,1105,0
3860,-742,1103,0
3849,-748,1094,0
3845,-753,1098,0
3845,-755,1108,0
3842,-756,1115,0
3832,-758,1107,0
3824,-759,1089,0
3819,-767,1074,0
3815,-773,1059,0
3811,-781,1044,0
3809,-787,1035,0
3812,-791,1037,0
3815,-793,1036,0
3816,-791,1025,0
3821,-792,1014,0
3827,-798,1011,0
3832,-807,1018,0
3837,-813,1018,0
3838,-822,1024,0
3843,-828,1026,0
3845,-837,1031,0
3841,-841,1037,0
3842,-847,1039,0
3842,-854,1051,0
3843,-861,1062,0
3837,-857,1064,0
3833,-860,1060,0
3827,-859,1053,0
3822,-861,1050,0
3818,-861,1057,0
3820,-855,1070,0
3818,-848,1085,0
3813,-839,1084,0
3806,-835,1080,0
3797,-830,1075,0
3793,-827,1070,0
3792,-822,1071,0
3794,-817,1071,0
3792,-813,1066,0
3799,-809,1067,0
3807,-803,1075,0
3810,-797,1079,0
3814,-792,1077,0
3817,-787,1073,0
3817,-782,1072,0
3816,-778,1081,0
3818,-773,1086,0
3814,-767,1094,0
3808,-758,1098,0
3805,-751,1094,0
3799,-745,1093,0
3796,-742,1091,0
3797,-743,1104,0
3804,-744,1114,0
3805,-738,1119,0
3802,-736,1122,0
3800,-734,1125,0
3798,-746,1114,0
3800,-755,1112,0
3806,-759,1108,0
3812,-759,1103,0
3815,-762,1095,0
3817,-767,1086,0
3815,-771,1085,0
3817,-778,1083,0
3817,-785,1083,0
3819,-790,1081,0
3821,-796,1085,0
3819,-805,1086,0
3815,-808,1083,0
3813,-814,1082,0
3810,-822,1076,0
3810,-828,1073,0
3805,-833,1080,0
3807,-834,1086,0
3809,-837,1093,0
3811,-835,1101,0
3815,-836,1102,0
3816,-836,1101,0
3817,-829,1099,0
3820,-827,1099,0
3821,-821,1094,0
3824,-815,1093,0
3821,-809,1093,0
3826,-803,1089,0
3825,-800,1090,0
3820,-784,1085,0
3825,-790,1098,0
3826,-798,1092,0
3826,-799,1085,0
3824,-797,1083,0
3824,-785,1089,0
3828,-778,1095,0
3824,-775,1100,0
3820,-765,1104,0
3820,-765,1110,0
3826,-761,1122,0
3838,-770,1131,0
3847,-772,1134,0
3862,-778,1143,0
3876,-788,1153,0
3891,-793,1163,0
3905,-806,1173,0
3913,-815,1175,0
3917,-828,1174,0
3910,-839,1178,0
3897,-845,1180,0
3874,-846,1173,0
3845,-843,1168,0
3809,-838,1154,0
3776,-833,1145,0
3745,-825,1138,0
3719,-813,1136,0
3700,-803,1134,0
3693,-790,1141,0
3687,-779,1152,0
3695,-770,1159,0
3701,-763,1167,0
3714,-759,1174,0
3724,-749,1183,0
3734,-741,1189,0
3744,-733,1195,0
3752,-728,1199,0
3764,-720,1200,0
3775,-713,1193,0
3778,-707,1193,0
3783,-705,1193,0
3791,-703,1195,0
3802,-698,1191,0
3813,-700,1180,0
3820,-703,1169,0
3824,-706,1157,0
3829,-709,1145,0
3836,-712,1131,0
3841,-714,1116,0
3847,-719,1105,0
3852,-727,1091,0
3857,-727,1084,0
3867,-730,1083,0
3874,-728,1088,0
3877,-731,1094,0
3868,-728,1092,0
3856,-729,1092,0
3838,-726,1088,0
3822,-732,1086,0
3808,-737,1091,0
3796,-741,1102,0
3782,-740,1111,0
3771,-737,1115,0
3760,-732,1121,0
3755,-732,1133,0
3754,-733,1140,0
3757,-730,1135,0
3759,-727,1125,0
3767,-725,1123,0
3784,-722,1127,0
3799,-719,1123,0
3809,-715,1124,0
3822,-713,1119,0
3833,-713,1112,0
3843,-718,1101,0
3850,-726,1090,0
3855,-733,1079,0
3862,-741,1067,0
3869,-747,1062,0
3871,-756,1064,0
3875,-761,1061,0
3873,-764,1062,0
3865,-772,1061,0
3858,-777,1064,0
3852,-786,1074,0
3851,-793,1086,0
3843,-802,1094,0
3840,-805,1100,0
3828,-799,1097,0
3815,-798,1095,0
3800,-794,1091,0
3787,-797,1084,0
3773,-797,1081,0
3766,-793,1084,0
3764,-782,1089,0
3764,-774,1097,0
3759,-768,1099,0
3755,-760,1099,0
3758,-754,1105,0
3759,-744,1104,0
3772,-735,1107,0
3789,-727,1114,0
3808,-719,1124,0
3829,-712,1130,0
3844,-707,1127,0
3848,-697,1117,0
3853,-695,1114,0
3856,-694,1112,0
3865,-691,1114,0
3870,-684,1110,0
3871,-680,1118,0
3871,-676,1116,0
3865,-674,1113,0
3858,-671,1105,0
3851,-668,1100,0
3849,-669,1099,0
3848,-668,1102,0
3849,-667,1105,0
3846,-668,1109,0
3838,-671,1113,0
3835,-678,1114,0
3833,-681,1118,0
3831,-686,1124,0
3821,-688,1121,0
3817,-688,1119,0
3813,-691,1115,0
3812,-691,1115,0
3810,-691,1107,0
3809,-692,1103,0
3811,-690,1102,0
3816,-690,1104,0
3818,-690,1098,0
3818,-680,1100,0
3815,-676,1100,0
3817,-673,1095,0
3812,-671,1094,0
3817,-672,1094,0
3824,-669,1100,0
3833,-670,1109,0
3844,-666,1122,0
3851,-659,1128,0
3863,-652,1130,0
3865,-645,1126,0
3864,-640,1115,0
3859,-633,1102,0
3861,-632,1094,0
3867,-631,1085,0
3867,-625,1081,0
3867,-624,1081,0
3869,-626,1084,0
3871,-625,1087,0
3871,-628,1089,0
3864,-630,1086,0
3857,-633,1080,0
3850,-636,1081,0
3844,-640,1086,0
3841,-641,1094,0
3837,-644,1101,0
3833,-644,1105,0
3831,-650,1106,0
3829,-652,1106,0
3830,-653,1106,0
3823,-658,1108,0
3821,-660,1108,0
3822,-668,1107,0
3819,-671,1105,0
3817,-667,1104,0
3813,-666,1094,0
3813,-665,1088,0
3815,-664,1083,0
3821,-665,1083,0
3832,-664,1092,0
3842,-657,1099,0
3848,-652,1105,0
3854,-645,1105,0
3854,-645,1108,0
3855,-643,1109,0
3856,-641,1110,0
3858,-643,1113,0
3861,-640,1115,0
3860,-641,1111,0
3857,-640,1099,0
3857,-642,1091,0
3850,-646,1087,0
3849,-651,1086,0
3847,-648,1085,0
3847,-645,1090,0
3846,-639,1093,0
3848,-635,1097,0
3844,-632,1100,0
3846,-633,1107,0
3847,-639,1109,0
3850,-643,1114,0
3853,-643,1119,0
3855,-648,1116,0
3857,-658,1109,0
3857,-661,1103,0
3858,-663,1098,0
3861,-666,1095,0
3860,-664,1089,0
3860,-664,1078,0
3861,-665,1071,0
3866,-668,1076,0
3864,-670,1077,0
3855,-668,1079,0
3846,-659,1082,0
3838,-657,1084,0
3832,-663,1090,0
3825,-664,1098,0
3821,-663,1107,0
3818,-666,1111,0
3813,-668,1111,0
3812,-668,1109,0
3811,-671,1106,0
3811,-669,1101,0
3819,-672,1098,0
3826,-673,1091,0
3831,-675,1089,0
3835,-676,1090,0
3839,-678,1085,0
3843,-681,1083,0
3848,-684,1083,0
3850,-688,1082,0
3848,-692,1081,0
3844,-695,1085,0
3847,-698,1094,0
3850,-698,1104,0
3845,-694,1105,0
3835,-689,1099,0
3831,-691,1094,0
3828,-696,1092,0
3823,-697,1091,0
3818,-696,1091,0
3818,-697,1090,0
3817,-697,1090,0
3817,-698,1090,0
3815,-701,1093,0
3815,-701,1096,0
3816,-699,1103,0
3816,-701,1110,0
3817,-698,1109,0
3818,-698,1110,0
3814,-700,1105,0
3814,-704,1102,0
3817,-709,1101,0
3823,-717,1100,0
3827,-717,1098,0
3828,-715,1098,0
3834,-715,1091,0
3837,-718,1084,0
3837,-716,1086,0
3840,-713,1085,0
3840,-711,1091,0
3837,-707,1098,0
3838,-703,1106,0
3834,-701,1114,0
3832,-700,1116,0
3828,-701,1111,0
3829,-701,1103,0
3830,-700,1105,0
3839,-695,1113,0
3846,-689,1123,0
3847,-686,1128,0
3848,-684,1126,0
3843,-682,1125,0
3836,-686,1126,0
3837,-693,1127,0
3836,-697,1131,0
3838,-701,1133,0
3836,-710,1135,0
3838,-714,1141,0
3837,-723,1145,0
3835,-731,1141,0
3830,-738,1131,0
3827,-741,1123,0
3816,-745,1111,0
3812,-750,1105,0
3811,-754,1108,0
3810,-756,1117,0
3809,-755,1122,0
3803,-753,1123,0
3795,-749,1117,0
3790,-748,1115,0
3787,-747,1109,0
3784,-746,1108,0
3787,-741,1106,0
3791,-736,1109,0
3792,-731,1107,0
3797,-729,1105,0
3803,-727,1107,0
3808,-725,1118,0
3813,-721,1129,0
3815,-718,1133,0
3812,-710,1135,0
3811,-709,1132,0
3811,-711,1126,0
3814,-715,1125,0
3815,-722,1126,0
3818,-725,1126,0
3821,-729,1126,0
3822,-734,1127,0
3825,-736,1129,0
3830,-742,1125,0
3835,-751,1125,0
3841,-759,1125,0
3845,-763,1127,0
3845,-770,1127,0
3846,-771,1126,0
3841,-770,1115,0
3840,-765,1107,0
3838,-761,1095,0
3833,-759,1089,0
3830,-762,1089,0
3825,-759,1090,0
3818,-759,1094,0
3808,-759,1091,0
3803,-763,1096,0
3803,-767,1100,0
3801,-766,1105,0
3793,-768,1101,0
3792,-769,1105,0
3795,-768,1108,0
3803,-768,1114,0
3807,-768,1123,0
3811,-761,1129,0
3811,-757,1128,0
3807,-751,1129,0
3808,-749,1126,0
3806,-745,1128,0
3811,-741,1133,0
3815,-737,1138,0
3826,-740,1144,0
3833,-738,1143,0
3841,-736,1140,0
3845,-737,1133,0
3850,-732,1126,0
3852,-729,1118,0
3852,-730,1112,0
3846,-730,1108,0
3837,-726,1106,0
3835,-721,1098,0
3829,-720,1099,0
3824,-720,1099,0
3821,-724,1097,0
3815,-726,1098,0
3811,-731,1103,0
3807,-732,1110,0
3806,-736,1115,0
3799,-738,1121,0
3797,-737,1121,0
3798,-736,1118,0
3799,-739,1123,0
3804,-738,1127,0
3815,-735,1127,0
3822,-731,1126,0
3831,-730,1120,0
3838,-726,1113,0
3842,-724,1112,0
3845,-724,1105,0
3850,-721,1105,0
3861,-721,1114,0
3860,-720,1122,0
3857,-713,1122,0
3852,-707,1122,0
3847,-698,1119,0
3836,-695,1123,0
3829,-693,1122,0
3822,-691,1121,0
3820,-694,1118,0
3819,-695,1114,0
3818,-699,1112,0
3822,-700,1110,0
3823,-700,1109,0
3830,-700,1105,0
3828,-697,1103,0
3830,-697,1098,0
3829,-700,1096,0
3831,-702,1100,0
3836,-702,1107,0
3840,-706,1115,0
3841,-707,1123,0
3835,-708,1125,0
3830,-708,1115,0
3822,-710,1105,0
3819,-717,1092,0
3817,-718,1077,0
3818,-722,1074,0
3824,-723,1082,0
3832,-722,1085,0
3838,-721,1084,0
3838,-717,1086,0
3836,-717,1085,0
3838,-712,1085,0
3836,-715,1089,0
3838,-715,1089,0
3831,-713,1090,0
3833,-711,1087,0
3831,-711,1092,0
3834,-709,1095,0
3837,-707,1099,0
3837,-706,1097,0
3829,-700,1101,0
3828,-697,1102,0
3824,-694,1109,0
3823,-693,1112,0
3821,-688,1112,0
3817,-686,1106,0
3819,-686,1103,0
3823,-687,1099,0
3830,-689,1101,0
3837,-687,1107,0
3843,-686,1118,0
3847,-692,1123,0
3847,-691,1119,0
3846,-690,1111,0
3845,-688,1101,0
3839,-689,1095,0
3839,-691,1092,0
3836,-689,1092,0
3837,-685,1102,0
3843,-684,1106,0
3845,-681,1107,0
3847,-683,1109,0
3849,-682,1108,0
3846,-682,1114,0
3845,-683,1117,0
3843,-680,1119,0
3841,-681,1114,0
3837,-680,1108,0
3838,-683,1098,0
3842,-685,1095,0
3840,-690,1094,0
3837,-690,1084,0
3833,-689,1073,0
3834,-689,1071,0
3829,-692,1067,0
3827,-692,1063,0
3830,-691,1058,0
3826,-693,1059,0
3827,-692,1064,0
3826,-692,1070,0
3823,-695,1079,0
3828,-701,1081,0
3834,-705,1086,0
3832,-703,1088,0
3829,-701,1086,0
3829,-701,1082,0
3831,-700,1071,0
3829,-699,1070,0
3839,-695,1075,0
3844,-688,1083,0
3849,-686,1087,0
3851,-680,1093,0
3853,-676,1096,0
3851,-673,1098,0
3846,-663,1094,0
3841,-666,1095,0
3839,-666,1091,0
3837,-669,1094,0
3832,-674,1096,0
3833,-676,1095,0
3838,-682,1094,0
3836,-688,1097,0
3840,-690,1090,0
3837,-689,1081,0
3836,-692,1081,0
3836,-696,1080,0
3840,-702,1077,0
3837,-705,1081,0
3831,-704,1084,0
3831,-699,1088,0
3823,-697,1084,0
3824,-700,1082,0
3823,-701,1082,0
3826,-705,1086,0
3834,-709,1095,0
3837,-712,1099,0
3838,-715,1097,0
3841,-712,1097,0
3841,-712,1097,0
3845,-717,1099,0
3848,-716,1094,0
3849,-715,1090,0
3851,-712,1084,0
3853,-708,1076,0
3851,-704,1073,0
3850,-703,1072,0
3849,-698,1072,0
3845,-695,1075,0
3843,-698,1081,0
3843,-694,1086,0
3837,-696,1088,0
3832,-697,1086,0
3828,-694,1087,0
3828,-699,1085,0
3824,-702,1083,0
3825,-700,1083,0
3828,-696,1086,0
3830,-694,1092,0
3834,-690,1094,0
3835,-686,1093,0
3840,-684,1091,0
3842,-681,1089,0
3843,-682,1084,0
3846,-677,1083,0
3853,-678,1086,0
3855,-676,1083,0
3852,-670,1076,0
3855,-668,1072,0
3859,-666,1074,0
3860,-666,1069,0
3858,-662,1072,0
3861,-657,1079,0
3857,-657,1087,0
3854,-655,1094,0
3850,-657,1097,0
3843,-657,1094,0
3842,-655,1096,0
3845,-658,1100,0
3845,-661,1103,0
3843,-658,1099,0
3840,-657,1094,0
3837,-658,1086,0
3837,-662,1078,0
3837,-661,1069,0
3840,-658,1068,0
3842,-653,1065,0
3846,-651,1061,0
3843,-650,1062,0
3843,-648,1065,0
3840,-647,1065,0
3838,-652,1067,0
3840,-655,1066,0
3844,-659,1066,0
3850,-660,1069,0
3850,-657,1069,0
3848,-655,1064,0
3849,-654,1065,0
3848,-656,1066,0
3850,-658,1067,0
3850,-660,1067,0
3853,-661,1070,0
3856,-663,1076,0
3863,-663,1076,0
3864,-661,1079,0
3862,-661,1079,0
3857,-661,1086,0
3856,-661,1085,0
3853,-658,1086,0
3851,-657,1084,0
3846,-657,1079,0
3843,-653,1078,0
3843,-654,1076,0
3844,-652,1078,0
3842,-647,1081,0
3840,-650,1085,0
3844,-646,1091,0
3839,-645,1087,0
3837,-642,1084,0
3839,-643,1075,0
3840,-646,1076,0
3840,-645,1077,0
3843,-642,1078,0
3843,-637,1077,0
3841,-634,1077,0
3845,-630,1082,0
3848,-625,1082,0
3851,-622,1078,0
3850,-620,1084,0
3852,-623,1086,0
3851,-621,1090,0
3849,-628,1091,0
3844,-631,1091,0
3848,-635,1091,0
3846,-636,1090,0
3846,-637,1090,0
3847,-635,1089,0
3850,-632,1088,0
3854,-633,1087,0
3858,-631,1092,0
3857,-628,1098,0
3857,-627,1104,0
3860,-625,1110,0
3857,-622,1108,0
3854,-621,1106,0
3851,-623,1101,0
3848,-625,1098,0
3848,-626,1093,0
3850,-629,1091,0
3850,-632,1092,0
3851,-636,1090,0
3850,-637,1087,0
3847,-641,1085,0
3844,-640,1080,0
3838,-645,1080,0
3833,-646,1082,0
3831,-650,1081,0
3827,-652,1088,0
3826,-655,1091,0
3824,-657,1088,0
3828,-661,1087,0
3829,-664,1085,0
3828,-670,1083,0
3827,-672,1082,0
3830,-675,1077,0
3833,-675,1080,0
3835,-676,1083,0
3837,-678,1078,0
3832,-678,1077,0
3836,-679,1079,0
3833,-682,1078,0
3833,-681,1077,0
3833,-682,1076,0
3832,-685,1077,0
3831,-680,1075,0
3830,-679,1074,0
3827,-678,1073,0
3824,-676,1074,0
3821,-676,1078,0
3820,-676,1075,0
3818,-676,1078,0
3817,-678,1077,0
3817,-676,1077,0
3816,-678,1079,0
3820,-684,1076,0
3821,-685,1077,0
3824,-682,1075,0
3825,-679,1077,0
3825,-678,1079,0
3827,-678,1079,0
3832,-678,1075,0
3838,-681,1077,0
3842,-681,1077,0
3843,-682,1081,0
3850,-682,1084,0
3857,-681,1087,0
3867,-686,1090,0
3878,-685,1101,0
3887,-687,1115,0
3899,-686,1127,0
3902,-679,1128,0
3902,-668,1122,0
3894,-661,1107,0
3885,-651,1095,0
3883,-648,1087,0
3875,-645,1083,0
3872,-643,1081,0
3869,-641,1078,0
3869,-640,1077,0
3866,-637,1078,0
3857,-639,1075,0
3849,-639,1073,0
3841,-642,1074,0
3840,-647,1072,0
3837,-647,1070,0
3835,-652,1074,0
3836,-654,1081,0
3839,-655,1085,0
3842,-659,1078,0
3842,-664,1070,0
3841,-667,1063,0
3844,-672,1063,0
3848,-677,1066,0
3854,-683,1066,0
3856,-684,1067,0
3859,-682,1064,0
3859,-680,1063,0
3859,-675,1062,0
3857,-668,1060,0
3853,-666,1054,0
3852,-665,1051,0
3851,-663,1041,0
3849,-662,1041,0
3840,-661,1039,0
3842,-662,1034,0
3837,-666,1030,0
3837,-662,1036,0
3842,-663,1044,0
3840,-662,1053,0
3842,-659,1061,0
3843,-659,1065,0
3839,-659,1062,0
3842,-661,1058,0
3845,-666,1054,0
3848,-665,1053,0
3850,-665,1055,0
3851,-666,1057,0
3851,-660,1057,0
3848,-658,1053,0
3846,-662,1054,0
3841,-659,1052,0
3839,-656,1056,0
3840,-654,1054,0
3843,-653,1052,0
3842,-653,1053,0
3842,-650,1056,0
3843,-653,1056,0
3843,-653,1058,0
3851,-657,1060,0
3851,-662,1060,0
3851,-665,1065,0
3848,-662,1067,0
3849,-665,1063,0
3847,-662,1058,0
3841,-659,1056,0
3840,-654,1056,0
3839,-653,1058,0
3838,-654,1062,0
3839,-655,1062,0
3840,-653,1064,0
3842,-652,1068,0
3843,-651,1072,0
3841,-654,1071,0
3841,-655,1073,0
3843,-660,1074,0
3845,-662,1076,0
3851,-665,1086,0
3856,-665,1091,0
3863,-664,1093,0
3861,-660,1093,0
3856,-660,1086,0
3850,-658,1074,0
3847,-657,1065,0
3846,-663,1060,0
3843,-662,1056,0
3842,-661,1057,0
3844,-667,1056,0
3843,-667,1055,0
3844,-668,1059,0
3844,-670,1059,0
3842,-672,1056,0
3840,-678,1057,0
3839,-678,1054,0
3840,-683,1057,0
3838,-682,1061,0
3838,-683,1063,0
3842,-687,1063,0
3842,-685,1066,0
3843,-686,1070,0
3843,-682,1071,0
3846,-676,1070,0
3844,-675,1069,0
3844,-670,1068,0
3844,-661,1068,0
3842,-664,1067,0
3844,-664,1060,0
3846,-664,1060,0
3847,-667,1059,0
3845,-668,1058,0
3845,-668,1057,0
3847,-669,1058,0
3851,-674,1061,0
3851,-673,1061,0
3850,-673,1063,0
3850,-679,1066,0
3848,-678,1065,0
3847,-676,1065,0
3847,-676,1060,0
3849,-677,1059,0
3850,-675,1060,0
3852,-672,1060,0
3854,-669,1063,0
3858,-673,1071,0
3862,-677,1079,0
3868,-675,1087,0
3871,-674,1093,0
3872,-675,1093,0
3866,-668,1086,0
3860,-662,1080,0
3849,-659,1072,0
3846,-663,1063,0
3841,-665,1053,0
3845,-668,1050,0
3845,-669,1051,0
3850,-666,1052,0
3848,-666,1057,0
3847,-669,1058,0
3848,-670,1058,0
3845,-672,1060,0
3845,-673,1062,0
3842,-680,1064,0
3842,-682,1064,0
3839,-686,1063,0
3845,-685,1068,0
3847,-683,1065,0
3849,-687,1062,0
3848,-685,1061,0
3851,-685,1061,0
3851,-682,1062,0
3854,-682,1063,0
3857,-676,1064,0
3857,-677,1064,0
3858,-677,1063,0
3859,-675,1067,0
3861,-675,1071,0
3860,-671,1075,0
3857,-665,1082,0
3852,-663,1080,0
3846,-664,1079,0
3835,-666,1073,0
3834,-667,1072,0
3833,-669,1065,0
3839,-671,1067,0
3846,-669,1072,0
3849,-664,1077,0
3849,-662,1076,0
3846,-660,1075,0
3842,-658,1072,0
3839,-660,1068,0
3836,-664,1067,0
3836,-670,1070,0
3841,-679,1073,0
3841,-682,1076,0
3842,-687,1076,0
3842,-686,1075,0
3839,-685,1075,0
3842,-689,1072,0
3839,-693,1068,0
3840,-691,1064,0
3839,-691,1064,0
3840,-690,1063,0
3843,-692,1067,0
3847,-695,1069,0
3849,-699,1077,0
3850,-695,1073,0
3851,-694,1075,0
3851,-692,1076,0
3852,-687,1075,0
3856,-685,1075,0
3858,-679,1074,0
3856,-673,1081,0
3858,-670,1086,0
3854,-670,1089,0
3845,-664,1082,0
3836,-660,1072,0
3829,-658,1065,0
3825,-660,1055,0
3821,-666,1052,0
3819,-672,1059,0
3825,-676,1063,0
3829,-679,1071,0
3837,-683,1080,0
3841,-681,1084,0
3843,-678,1079,0
3846,-678,1075,0
3846,-679,1068,0
3845,-679,1059,0
3838,-675,1050,0
3834,-673,1041,0
3838,-675,1037,0
3843,-681,1037,0
3846,-678,1041,0
3846,-675,1046,0
3849,-676,1054,0
3854,-679,1056,0
3856,-685,1054,0
3856,-689,1056,0
3856,-689,1062,0
3855,-686,1067,0
3857,-692,1075,0
3860,-693,1082,0
3857,-691,1084,0
3856,-689,1084,0
3855,-692,1084,0
3852,-688,1080,0
3847,-687,1067,0
3843,-684,1057,0
3839,-683,1047,0
3835,-679,1047,0
3835,-678,1046,0
3836,-679,1050,0
3834,-674,1054,0
3831,-676,1058,0
3832,-676,1062,0
3827,-675,1059,0
3830,-678,1060,0
3841,-684,1062,0
3848,-687,1068,0
3853,-685,1070,0
3859,-688,1069,0
3864,-686,1070,0
3871,-687,1073,0
3874,-685,1073,0
3870,-684,1071,0
3863,-682,1062,0
3857,-678,1054,0
3844,-679,1046,0
3838,-679,1047,0
3838,-683,1051,0
3838,-684,1062,0
3834,-682,1066,0
3832,-680,1061,0
3826,-676,1047,0
3823,-677,1038,0
3828,-683,1036,0
3833,-685,1046,0
3844,-688,1055,0
3852,-685,1063,0
3855,-682,1069,0
3856,-684,1075,0
3857,-685,1080,0
3859,-685,1080,0
3858,-682,1081,0
3854,-677,1071,0
3851,-676,1062,0
3845,-678,1051,0
3844,-678,1049,0
3843,-686,1052,0
3840,-684,1052,0
3840,-689,1057,0
3838,-688,1063,0
3841,-694,1070,0
3837,-693,1075,0
3834,-694,1080,0
3838,-695,1076,0
3840,-696,1072,0
3842,-698,1069,0
3839,-698,1066,0
3839,-697,1057,0
3843,-700,1049,0
3848,-703,1042,0
3848,-702,1038,0
3851,-702,1039,0
3856,-699,1043,0
3860,-701,1052,0
3860,-701,1058,0
3853,-697,1057,0
3852,-699,1056,0
3848,-703,1054,0
3846,-699,1055,0
3845,-698,1057,0
3844,-697,1065,0
3847,-700,1073,0
3849,-703,1074,0
3843,-705,1072,0
3838,-701,1068,0
3836,-699,1065,0
3836,-703,1069,0
3836,-702,1072,0
3836,-700,1072,0
3836,-696,1076,0
3842,-695,1078,0
3842,-697,1076,0
3842,-700,1078,0
3841,-701,1074,0
3842,-702,1065,0
3842,-703,1060,0
3843,-705,1060,0
3845,-708,1059,0
3851,-709,1061,0
3849,-710,1063,0
3853,-712,1066,0
3853,-717,1069,0
3851,-716,1070,0
3850,-713,1067,0
3847,-711,1060,0
3847,-714,1058,0
3845,-717,1057,0
3846,-721,1061,0
3844,-719,1062,0
3843,-712,1063,0
3839,-703,1061,0
3836,-705,1058,0
3835,-709,1053,0
3833,-709,1053,0
3834,-714,1053,0
3838,-715,1056,0
3842,-714,1064,0
3842,-707,1068,0
3840,-705,1067,0
3839,-704,1061,0
3837,-703,1060,0
3838,-702,1057,0
3831,-697,1053,0
3833,-692,1048,0
3837,-696,1046,0
3842,-695,1051,0
3841,-698,1053,0
3843,-703,1056,0
3846,-704,1062,0
3849,-708,1067,0
3849,-710,1063,0
3849,-713,1066,0
3847,-710,1066,0
3844,-708,1069,0
3845,-708,1068,0
3847,-711,1062,0
3849,-710,1052,0
3850,-716,1049,0
3845,-711,1043,0
3848,-710,1042,0
3847,-715,1042,0
3849,-718,1042,0
3850,-721,1041,0
3847,-724,1044,0
3843,-722,1045,0
3838,-726,1053,0
3844,-725,1066,0
3847,-731,1074,0
3844,-729,1080,0
3838,-729,1070,0
3832,-728,1056,0
3830,-732,1039,0
3836,-735,1026,0
3841,-739,1022,0
3843,-737,1028,0
3848,-735,1034,0
3853,-729,1043,0
3853,-726,1051,0
3852,-722,1051,0
3843,-715,1046,0
3837,-710,1038,0
3840,-712,1036,0
3844,-715,1036,0
3847,-715,1040,0
3853,-717,1041,0
3855,-715,1041,0
3851,-717,1034,0
3850,-719,1035,0
3851,-718,1030,0
3850,-716,1032,0
3854,-717,1047,0
3858,-717,1058,0
3855,-716,1056,0
3849,-712,1048,0
3843,-717,1037,0
3840,-717,1025,0
3841,-721,1020,0
3845,-720,1029,0
3845,-719,1034,0
3849,-719,1040,0
3853,-719,1043,0
3857,-715,1043,0
3859,-716,1037,0
3857,-715,1034,0
3854,-709,1036,0
3850,-703,1033,0
3846,-701,1033,0
3849,-702,1033,0
3849,-706,1038,0
3846,-703,1039,0
3847,-702,1036,0
3846,-706,1040,0
3849,-703,1040,0
3854,-701,1043,0
3858,-702,1047,0
3859,-698,1042,0
3855,-692,1035,0
3854,-691,1034,0
3854,-696,1031,0
3862,-698,1033,0
3860,-695,1031,0
3864,-695,1039,0
3863,-691,1040,0
3861,-690,1037,0
3860,-691,1033,0
3861,-691,1031,0
3857,-690,1033,0
3853,-692,1030,0
3853,-691,1027,0
3852,-691,1023,0
3852,-695,1019,0
3852,-698,1016,0
3850,-699,1014,0
3849,-701,1016,0
3852,-703,1017,0
3855,-701,1019,0
3853,-701,1029,0
3851,-698,1028,0
3853,-694,1028,0
3851,-698,1032,0
3854,-698,1031,0
3857,-699,1038,0
3861,-700,1048,0
3864,-702,1047,0
3863,-699,1039,0
3861,-699,1034,0
3857,-695,1025,0
3858,-692,1027,0
3861,-685,1030,0
3862,-684,1035,0
3862,-677,1034,0
3864,-678,1037,0
3866,-676,1044,0
3866,-673,1053,0
3861,-672,1052,0
3856,-667,1046,0
3852,-668,1043,0
3849,-675,1040,0
3850,-684,1040,0
3849,-685,1041,0
3851,-687,1041,0
3853,-686,1048,0
3855,-688,1047,0
3855,-692,1049,0
3853,-692,1048,0
3847,-696,1045,0
3843,-697,1039,0
3845,-698,1040,0
3844,-699,1042,0
3845,-694,1048,0
3845,-692,1053,0
3847,-696,1058,0
3848,-698,1058,0
3846,-702,1053,0
3846,-702,1046,0
3844,-704,1040,0
3845,-702,1034,0
3846,-702,1036,0
3849,-706,1036,0
3849,-710,1037,0
3851,-710,1043,0
3853,-710,1053,0
3852,-706,1054,0
3842,-705,1056,0
3831,-706,1053,0
3823,-701,1048,0
3819,-701,1049,0
3816,-700,1052,0
3817,-699,1057,0
3818,-696,1059,0
3829,-695,1065,0
3837,-695,1074,0
3844,-690,1072,0
3852,-689,1069,0
3857,-689,1063,0
3859,-690,1059,0
3859,-693,1057,0
3860,-697,1051,0
3857,-692,1053,0
3859,-693,1053,0
3856,-695,1053,0
3852,-701,1056,0
3852,-705,1055,0
3850,-706,1058,0
3852,-711,1051,0
3852,-715,1058,0
3849,-718,1056,0
3846,-715,1050,0
3846,-714,1046,0
3846,-721,1048,0
3848,-723,1051,0
3852,-722,1050,0
3855,-718,1050,0
3852,-720,1048,0
3852,-723,1049,0
3855,-729,1047,0
3851,-732,1042,0
3850,-728,1037,0
3848,-726,1032,0
3849,-730,1033,0
3850,-729,1038,0
3847,-727,1039,0
3845,-729,1044,0
3843,-727,1044,0
3844,-723,1049,0
3841,-724,1052,0
3839,-718,1056,0
3834,-716,1054,0
3836,-714,1054,0
3833,-716,1056,0
3830,-713,1055,0
3834,-706,1052,0
3836,-709,1052,0
3842,-712,1058,0
3847,-712,1064,0
3852,-711,1070,0
3855,-712,1069,0
3852,-708,1066,0
3847,-708,1060,0
3840,-712,1054,0
3838,-718,1051,0
3835,-717,1046,0
3841,-722,1048,0
3849,-724,1059,0
3855,-724,1061,0
3852,-722,1061,0
3848,-722,1059,0
3843,-720,1058,0
3841,-725,1056,0
3837,-724,1055,0
3834,-725,1057,0
3830,-724,1057,0
3831,-722,1059,0
3834,-722,1057,0
3836,-723,1055,0
3836,-728,1057,0
3836,-727,1056,0
3834,-727,1055,0
3837,-730,1058,0
3843,-732,1059,0
3848,-732,1055,0
3847,-735,1052,0
3851,-738,1046,0
3855,-742,1045,0
3861,-748,1045,0
3864,-753,1045,0
3861,-752,1050,0
3858,-750,1049,0
3858,-753,1048,0
3854,-750,1047,0
3852,-748,1046,0
3852,-747,1042,0
3850,-743,1041,0
3843,-739,1044,0
3843,-735,1037,0
3842,-731,1037,0
3839,-732,1036,0
3837,-729,1036,0
3839,-725,1037,0
3839,-723,1040,0
3837,-723,1042,0
3841,-724,1050,0
3843,-727,1056,0
3839,-729,1052,0
3835,-724,1051,0
3835,-723,1046,0
3836,-722,1040,0
3833,-719,1039,0
3838,-714,1040,0
3837,-712,1046,0
3835,-703,1050,0
3839,-697,1054,0
3842,-696,1056,0
3841,-692,1053,0
3845,-688,1052,0
3844,-683,1055,0
3847,-681,1058,0
3848,-678,1059,0
3851,-680,1057,0
3852,-679,1056,0
3854,-679,1055,0
3853,-680,1055,0
3849,-678,1055,0
3849,-674,1055,0
3849,-673,1054,0
3849,-677,1053,0
3847,-678,1056,0
3848,-680,1062,0
3845,-681,1068,0
3846,-679,1071,0
3841,-679,1073,0
3838,-683,1075,0
3833,-687,1074,0
3829,-692,1075,0
3827,-695,1081,0
3829,-694,1084,0
3829,-694,1092,0
3828,-691,1092,0
3828,-690,1089,0
3825,-688,1083,0
3825,-689,1082,0
3832,-697,1080,0
3837,-700,1079,0
3838,-698,1070,0
3834,-695,1070,0
3837,-697,1073,0
3841,-701,1079,0
3845,-700,1087,0
3846,-702,1096,0
3846,-701,1101,0
3845,-700,1098,0
3842,-700,1102,0
3834,-700,1096,0
3827,-699,1088,0
3827,-704,1085,0
3830,-707,1083,0
3831,-709,1083,0
3831,-712,1086,0
3835,-713,1091,0
3834,-713,1088,0
3832,-713,1084,0
3829,-716,1079,0
3828,-721,1076,0
3826,-724,1072,0
3823,-725,1074,0
3827,-724,1080,0
3828,-728,1087,0
3833,-731,1095,0
3830,-730,1095,0
3832,-730,1098,0
3829,-730,1098,0
3828,-737,1099,0
3826,-739,1103,0
3828,-739,1100,0
3830,-740,1094,0
3831,-738,1086,0
3836,-735,1082,0
3840,-733,1079,0
3842,-737,1076,0
3845,-734,1074,0
3843,-732,1076,0
3840,-727,1074,0
3837,-721,1079,0
3837,-722,1085,0
3836,-722,1094,0
3830,-721,1097,0
3825,-720,1088,0
3825,-721,1084,0
3829,-724,1080,0
3836,-723,1074,0
3833,-723,1066,0
3829,-721,1062,0
3830,-719,1055,0
3833,-719,1054,0
3837,-719,1054,0
3838,-719,1060,0
3840,-720,1064,0
3837,-717,1067,0
3832,-716,1070,0
3829,-715,1066,0
3828,-715,1065,0
3829,-713,1071,0
3832,-716,1075,0
3835,-717,1077,0
3838,-719,1078,0
3842,-718,1079,0
3844,-720,1078,0
3844,-720,1078,0
3846,-719,1079,0
3847,-717,1077,0
3846,-713,1075,0
3844,-712,1074,0
3848,-706,1068,0
3848,-703,1069,0
3847,-695,1068,0
3847,-688,1066,0
3846,-687,1072,0
3848,-685,1073,0
3843,-685,1073,0
3837,-681,1073,0
3831,-677,1077,0
3825,-679,1082,0
3824,-678,1084,0
3834,-679,1093,0
3836,-680,1100,0
3840,-678,1102,0
3841,-678,1093,0
3837,-677,1090,0
3834,-678,1085,0
3832,-676,1084,0
3835,-676,1082,0
3839,-674,1081,0
3839,-677,1077,0
3837,-673,1074,0
3833,-677,1075,0
3830,-676,1071,0
3831,-675,1070,0
3836,-681,1073,0
3843,-684,1081,0
3843,-686,1091,0
3846,-680,1091,0
3846,-680,1083,0
3847,-681,1081,0
3849,-685,1076,0
3850,-683,1078,0
3852,-684,1079,0
3855,-685,1085,0
3856,-684,1089,0
3853,-681,1088,0
3849,-678,1089,0
3846,-685,1088,0
3838,-689,1089,0
3835,-696,1089,0
3832,-694,1091,0
3831,-693,1085,0
3830,-693,1083,0
3828,-695,1084,0
3830,-697,1089,0
3832,-697,1084,0
3835,-696,1084,0
3832,-702,1080,0
3834,-707,1078,0
3837,-707,1077,0
3841,-706,1076,0
3843,-706,1078,0
3845,-705,1076,0
3849,-705,1074,0
3848,-702,1072,0
3851,-704,1072,0
3853,-706,1071,0
3849,-704,1069,0
3843,-699,1072,0
3842,-699,1073,0
3838,-695,1074,0
3835,-693,1080,0
3835,-692,1082,0
3834,-693,1078,0
3837,-696,1072,0
3835,-694,1065,0
3840,-695,1065,0
3841,-695,1068,0
3844,-699,1071,0
3845,-694,1069,0
3845,-693,1067,0
3848,-696,1063,0
3847,-698,1059,0
3843,-701,1059,0
3841,-705,1055,0
3836,-705,1054,0
3837,-708,1059,0
3834,-710,1060,0
3830,-709,1062,0
3831,-713,1063,0
3832,-712,1068,0
3832,-716,1073,0
3835,-714,1078,0
3838,-719,1082,0
3841,-718,1082,0
3839,-718,1076,0
3839,-720,1069,0
3843,-721,1061,0
3842,-721,1060,0
3840,-720,1062,0
3842,-719,1063,0
3843,-720,1067,0
3846,-718,1069,0
3845,-720,1069,0
3838,-718,1070,0
3832,-716,1061,0
3826,-712,1064,0
3823,-716,1069,0
3824,-714,1070,0
3824,-714,1068,0
3826,-716,1067,0
3827,-718,1064,0
3829,-718,1063,0
3830,-719,1070,0
3835,-714,1073,0
3840,-709,1077,0
3836,-707,1071,0
3837,-705,1074,0
3842,-705,1073,0
3842,-702,1069,0
3848,-703,1073,0
3848,-704,1075,0
3852,-703,1074,0
3854,-705,1079,0
3853,-704,1084,0
3852,-704,1084,0
3848,-702,1081,0
3845,-706,1075,0
3842,-704,1077,0
3839,-701,1076,0
3840,-698,1074,0
3840,-693,1070,0
3839,-697,1067,0
3839,-700,1070,0
3836,-703,1073,0
3838,-700,1074,0
3837,-700,1075,0
3837,-699,1079,0
3839,-699,1077,0
3838,-697,1075,0
3840,-695,1076,0
3836,-702,1073,0
3833,-700,1071,0
3835,-700,1076,0
3834,-701,1074,0
3831,-703,1079,0
3833,-701,1082,0
3837,-704,1083,0
3838,-701,1086,0
3837,-703,1079,0
3835,-703,1078,0
3834,-707,1075,0
3834,-708,1069,0
3837,-713,1072,0
3841,-720,1069,0
3841,-721,1070,0
3843,-721,1067,0
3842,-721,1067,0
3835,-720,1068,0
3829,-722,1067,0
3828,-726,1066,0
3831,-727,1068,0
3834,-729,1072,0
3836,-728,1077,0
3839,-726,1078,0
3840,-722,1084,0
3842,-720,1090,0
3838,-717,1087,0
3833,-714,1085,0
3834,-715,1079,0
3829,-712,1075,0
3831,-713,1072,0
3833,-716,1070,0
3837,-716,1072,0
3839,-716,1076,0
3839,-715,1074,0
3834,-708,1069,0
3830,-708,1068,0
3827,-714,1064,0
3829,-712,1061,0
3831,-716,1062,0
3830,-715,1067,0
3835,-715,1075,0
3839,-717,1080,0
3838,-717,1087,0
3836,-719,1087,0
3833,-716,1079,0
3834,-717,1075,0
3832,-716,1074,0
3833,-713,1075,0
3836,-715,1080,0
3841,-711,1083,0
3841,-707,1081,0
3837,-707,1079,0
3835,-710,1073,0
3837,-714,1072,0
3838,-715,1069,0
3840,-721,1068,0
3839,-719,1069,0
3838,-725,1068,0
3840,-724,1067,0
3842,-727,1075,0
3847,-733,1079,0
3844,-732,1077,0
3835,-730,1067,0
3829,-732,1063,0
3829,-733,1067,0
3827,-730,1072,0
3830,-727,1074,0
3833,-728,1076,0
3839,-728,1079,0
3844,-728,1079,0
3845,-728,1073,0
3842,-727,1068,0
3835,-719,1061,0
3837,-718,1063,0
3837,-716,1069,0
3836,-717,1072,0
3836,-714,1072,0
3830,-714,1069,0
3831,-712,1064,0
3832,-713,1066,0
3837,-714,1074,0
3840,-712,1078,0
3837,-710,1078,0
3837,-706,1073,0
3839,-708,1068,0
3844,-712,1071,0
3854,-717,1077,0
3856,-713,1078,0
3854,-711,1072,0
3851,-709,1065,0
3848,-708,1061,0
3848,-703,1055,0
3847,-704,1056,0
3845,-704,1059,0
3847,-707,1063,0
3841,-703,1062,0
3838,-708,1059,0
3838,-712,1060,0
3840,-715,1066,0
3839,-714,1069,0
3839,-713,1067,0
3842,-715,1066,0
3840,-720,1066,0
3838,-716,1065,0
3842,-718,1063,0
3841,-716,1062,0
3844,-717,1063,0
3852,-717,1074,0
3854,-712,1081,0
3851,-705,1086,0
3848,-694,1086,0
3841,-690,1080,0
3834,-690,1069,0
3835,-692,1064,0
3835,-690,1064,0
3839,-686,1068,0
3841,-684,1070,0
3838,-678,1071,0
3837,-677,1072,0
3840,-680,1070,0
3844,-680,1070,0
3845,-680,1073,0
3846,-677,1071,0
3841,-673,1070,0
3841,-669,1065,0
3842,-670,1064,0
3845,-674,1067,0
3850,-678,1076,0
3852,-673,1078,0
3853,-676,1076,0
3854,-678,1079,0
3848,-680,1071,0
3843,-680,1066,0
3842,-681,1063,0
3847,-684,1063,0
3847,-686,1063,0
3850,-684,1067,0
3854,-682,1069,0
3854,-682,1066,0
3851,-685,1064,0
3849,-682,1062,0
3845,-682,1062,0
3844,-682,1057,0
3842,-688,1064,0
3846,-692,1072,0
3844,-690,1073,0
3838,-685,1069,0
3835,-688,1066,0
3837,-690,1064,0
3840,-692,1072,0
3844,-694,1075,0
3843,-692,1080,0
3840,-691,1078,0
3840,-690,1073,0
3842,-690,1067,0
3839,-689,1063,0
3842,-689,1059,0
3842,-686,1053,0
3840,-686,1053,0
3844,-687,1055,0
3847,-686,1054,0
3847,-684,1058,0
3848,-685,1062,0
3842,-690,1065,0
3838,-690,1069,0
3834,-686,1072,0
3835,-684,1071,0
3832,-685,1065,0
3839,-685,1064,0
3837,-687,1068,0
3841,-688,1075,0
3848,-689,1082,0
3852,-687,1080,0
3852,-691,1074,0
3853,-688,1072,0
3851,-687,1068,0
3850,-685,1061,0
3849,-684,1054,0
3850,-690,1050,0
3850,-689,1049,0
3851,-688,1057,0
3852,-690,1064,0
3853,-690,1069,0
3854,-688,1072,0
3846,-688,1070,0
3843,-686,1064,0
3838,-689,1062,0
3838,-691,1059,0
3834,-694,1059,0
3833,-696,1057,0
3833,-697,1058,0
3840,-693,1062,0
3842,-693,1069,0
3846,-695,1078,0
3844,-694,1083,0
3840,-698,1078,0
3835,-700,1071,0
3836,-702,1063,0
3832,-704,1055,0
3838,-706,1051,0
3844,-704,1047,0
3849,-706,1045,0
3853,-701,1053,0
3858,-694,1063,0
3862,-690,1068,0
3859,-687,1065,0
3854,-681,1059,0
3849,-677,1051,0
3847,-679,1047,0
3849,-681,1051,0
3846,-679,1053,0
3845,-680,1060,0
3848,-684,1063,0
3848,-684,1063,0
3846,-689,1055,0
3839,-696,1053,0
3841,-698,1057,0
3845,-701,1056,0
3849,-700,1057,0
3851,-700,1054,0
3855,-697,1053,0
3857,-700,1048,0
3857,-700,1044,0
3859,-700,1048,0
3858,-699,1056,0
3853,-697,1061,0
3848,-689,1062,0
3840,-685,1057,0
3837,-684,1056,0
3833,-689,1060,0
3841,-694,1072,0
3840,-690,1080,0
3839,-687,1074,0
3840,-687,1062,0
3838,-689,1053,0
3838,-695,1045,0
3842,-697,1039,0
3844,-695,1039,0
3845,-692,1042,0
3846,-694,1040,0
3845,-694,1043,0
3844,-695,1047,0
3842,-694,1048,0
3839,-693,1051,0
3840,-695,1056,0
3842,-698,1061,0
3850,-707,1075,0
3863,-706,1087,0
3864,-703,1100,0
3860,-698,1098,0
3853,-692,1088,0
3848,-690,1073,0
3845,-695,1064,0
3843,-695,1060,0
3847,-697,1060,0
3848,-695,1059,0
3848,-691,1054,0
3846,-693,1050,0
3847,-699,1049,0
3847,-705,1051,0
3843,-709,1053,0
3844,-710,1055,0
3843,-708,1065,0
3846,-707,1067,0
3839,-705,1071,0
3837,-707,1069,0
3836,-708,1067,0
3837,-709,1061,0
3838,-713,1057,0
3841,-712,1055,0
3845,-712,1051,0
3846,-711,1052,0
3846,-710,1054,0
3846,-710,1048,0
3848,-708,1045,0
3846,-705,1042,0
3846,-704,1040,0
3847,-706,1042,0
3844,-704,1043,0
3847,-704,1043,0
3845,-702,1050,0
3844,-696,1051,0
3845,-691,1054,0
3844,-688,1054,0
3843,-686,1053,0
3842,-686,1058,0
3840,-683,1057,0
3842,-681,1062,0
3843,-685,1063,0
3843,-684,1062,0
3843,-682,1065,0
3848,-683,1066,0
3848,-688,1066,0
3849,-688,1058,0
3849,-691,1052,0
3853,-695,1050,0
3854,-695,1055,0
3853,-693,1059,0
3848,-691,1060,0
3847,-694,1059,0
3850,-701,1057,0
3846,-703,1056,0
3843,-702,1054,0
3843,-706,1052,0
3843,-709,1053,0
3842,-712,1050,0
3843,-717,1050,0
3844,-724,1052,0
3840,-729,1053,0
3842,-730,1047,0
3844,-731,1041,0
3844,-732,1043,0
3845,-735,1042,0
3848,-734,1044,0
3851,-734,1045,0
3853,-734,1048,0
3856,-732,1053,0
3856,-730,1052,0
3851,-726,1055,0
3847,-722,1048,0
3844,-721,1048,0
3841,-718,1052,0
3836,-720,1057,0
3835,-721,1061,0
3835,-718,1064,0
3835,-718,1058,0
3834,-718,1052,0
3833,-721,1049,0
3839,-720,1048,0
3843,-715,1052,0
3845,-716,1059,0
3849,-714,1059,0
3849,-711,1057,0
3849,-715,1052,0
3851,-716,1048,0
3851,-721,1042,0
3851,-722,1043,0
3853,-721,1045,0
3854,-720,1045,0
3852,-718,1041,0
3852,-714,1040,0
3851,-713,1043,0
3851,-711,1052,0
3849,-713,1057,0
3843,-712,1058,0
3837,-710,1057,0
3832,-712,1052,0
3836,-711,1054,0
3838,-713,1054,0
3842,-718,1060,0
3848,-716,1059,0
3848,-712,1054,0
3849,-715,1055,0
3852,-721,1060,0
3855,-719,1065,0
3851,-716,1063,0
3846,-707,1065,0
3836,-708,1059,0
3827,-708,1059,0
3826,-705,1058,0
3823,-707,1059,0
3825,-706,1062,0
3829,-709,1064,0
3831,-711,1065,0
3835,-714,1068,0
3836,-716,1069,0
3838,-717,1071,0
3838,-718,1069,0
3843,-720,1065,0
3847,-721,1065,0
3852,-719,1061,0
3856,-719,1054,0
3858,-715,1050,0
3859,-717,1050,0
3857,-717,1049,0
3855,-717,1054,0
3855,-714,1058,0
3851,-716,1064,0
3847,-718,1068,0
3842,-723,1066,0
3841,-722,1063,0
3835,-724,1062,0
3829,-727,1060,0
3828,-730,1059,0
3834,-732,1060,0
3835,-729,1055,0
3837,-729,1052,0
3839,-725,1050,0
3838,-725,1049,0
3838,-726,1048,0
3839,-725,1051,0
3841,-728,1056,0
3846,-729,1060,0
3850,-730,1061,0
3853,-731,1060,0
3855,-731,1064,0
3853,-728,1062,0
3854,-726,1063,0
3852,-722,1058,0
3849,-723,1050,0
3848,-721,1053,0
3847,-725,1059,0
3845,-725,1060,0
3845,-726,1056,0
3846,-728,1055,0
3845,-729,1051,0
3843,-728,1047,0
3843,-730,1044,0
3842,-733,1043,0
3839,-732,1043,0
3841,-732,1046,0
3843,-732,1050,0
3841,-729,1052,0
3839,-729,1048,0
3835,-733,1049,0
3833,-737,1052,0
3831,-740,1047,0
3833,-736,1046,0
3833,-736,1047,0
3833,-737,1046,0
3834,-737,1042,0
3834,-734,1038,0
3835,-740,1039,0
3840,-738,1039,0
3844,-737,1037,0
3848,-738,1035,0
3843,-740,1036,0
3844,-739,1035,0
3837,-738,1036,0
3838,-737,1046,0
3843,-736,1063,0
3848,-734,1074,0
3850,-733,1084,0
3852,-726,1090,0
3853,-723,1095,0
3855,-724,1093,0
3852,-719,1094,0
3852,-715,1094,0
3852,-711,1093,0
3853,-709,1090,0
3851,-711,1081,0
3845,-708,1072,0
3842,-706,1069,0
3837,-704,1064,0
3835,-699,1066,0
3833,-698,1067,0
3830,-691,1068,0
3829,-687,1072,0
3830,-687,1075,0
3825,-686,1076,0
3826,-686,1075,0
3830,-687,1072,0
3832,-691,1073,0
3836,-692,1079,0
3840,-690,1081,0
3844,-692,1077,0
3849,-694,1076,0
3851,-695,1079,0
3859,-692,1084,0
3862,-689,1081,0
3860,-685,1077,0
3854,-677,1069,0
3849,-676,1062,0
3845,-678,1060,0
3848,-679,1062,0
3848,-679,1068,0
3846,-674,1070,0
3842,-676,1076,0
3836,-675,1078,0
3837,-678,1074,0
3828,-682,1071,0
3825,-685,1067,0
3822,-685,1068,0
3824,-685,1069,0
3824,-685,1069,0
3828,-687,1068,0
3829,-688,1073,0
3835,-687,1072,0
3839,-685,1072,0
3845,-687,1077,0
3849,-688,1082,0
3852,-689,1084,0
3850,-689,1077,0
3847,-692,1073,0
3845,-695,1068,0
3847,-698,1062,0
3848,-698,1060,0
3849,-701,1058,0
3851,-702,1062,0
3853,-702,1064,0
3856,-706,1064,0
3855,-705,1064,0
