accelerometer_x,accelerometer_y,accelerometer_z,fall
3464,-1398,832,0
3461,-1378,825,0
3462,-1325,839,0
3468,-1245,865,0
3483,-1168,902,0
3507,-1100,920,0
3534,-1046,919,0
3542,-991,877,0
3550,-934,818,0
3569,-869,761,0
3585,-799,717,0
3605,-736,657,0
3626,-681,607,0
3642,-632,553,0
3663,-581,526,0
3701,-532,539,0
3752,-490,576,0
3803,-469,614,0
3848,-477,633,0
3880,-512,629,0
3900,-549,615,0
3907,-592,592,0
3916,-649,563,0
3936,-712,537,0
3958,-763,528,0
3987,-806,536,0
4022,-838,553,0
4062,-872,576,0
4103,-900,595,0
4138,-924,604,0
4175,-936,605,0
4201,-938,600,0
4223,-929,602,0
4233,-904,608,0
4242,-871,613,0
4244,-828,615,0
4250,-772,612,0
4249,-710,610,0
4237,-657,614,0
4221,-604,624,0
4199,-549,639,0
4176,-502,651,0
4140,-459,655,0
4107,-419,641,0
4072,-387,609,0
4022,-339,583,0
3981,-294,575,0
3932,-245,577,0
3903,-209,597,0
3872,-194,621,0
3842,-195,622,0
3811,-226,584,0
3801,-303,502,0
3811,-416,382,0
3844,-548,248,0
3917,-690,127,0
4023,-825,45,0
4175,-927,5,0
4353,-1010,-2,0
4551,-1081,4,0
4743,-1146,5,0
4929,-1199,21,0
5089,-1251,40,0
5214,-1310,67,0
5291,-1350,102,0
5310,-1364,137,0
5274,-1357,181,0
5185,-1314,230,0
5046,-1249,270,0
4855,-1165,286,0
4626,-1073,288,0
4381,-980,266,0
4144,-906,244,0
3919,-841,214,0
3711,-774,187,0
3525,-714,171,0
3369,-653,177,0
3247,-596,194,0
3141,-539,227,0
3062,-480,272,0
3009,-410,318,0
3001,-377,340,0
3033,-349,350,0
3092,-317,355,0
3174,-320,341,0
3267,-355,311,0
3362,-387,294,0
3458,-433,260,0
3543,-466,218,0
3626,-515,178,0
3721,-543,190,0
3800,-538,220,0
3885,-543,250,0
3969,-587,268,0
4041,-655,274,0
4138,-714,301,0
4213,-765,314,0
4269,-814,323,0
4317,-894,311,0
4372,-994,281,0
4412,-1069,245,0
4419,-1100,223,0
4407,-1091,204,0
4372,-1077,192,0
4321,-1056,180,0
4265,-1034,168,0
4209,-999,151,0
4153,-944,135,0
4102,-892,114,0
4057,-833,88,0
4014,-767,60,0
3981,-694,37,0
3956,-628,31,0
3941,-568,26,0
3931,-517,20,0
3937,-472,15,0
3952,-426,14,0
3970,-380,15,0
4003,-341,14,0
4036,-306,12,0
4069,-280,13,0
4109,-265,22,0
4148,-261,39,0
4194,-267,54,0
4230,-277,73,0
4263,-302,96,0
4296,-336,122,0
4328,-376,147,0
4352,-417,171,0
4367,-457,191,0
4371,-504,199,0
4366,-549,195,0
4345,-585,193,0
4321,-625,198,0
4290,-665,211,0
4248,-690,234,0
4210,-713,263,0
4160,-715,292,0
4124,-699,324,0
4083,-687,339,0
4040,-671,336,0
4000,-662,322,0
3971,-655,300,0
3942,-638,280,0
3917,-622,257,0
3901,-604,246,0
3900,-593,229,0
3897,-587,215,0
3904,-603,196,0
3920,-600,187,0
3939,-588,178,0
3958,-584,173,0
3981,-586,156,0
4007,-583,143,0
4030,-581,144,0
4043,-574,137,0
4051,-570,122,0
4051,-566,102,0
4041,-556,79,0
4025,-554,52,0
4009,-545,37,0
3994,-534,34,0
3978,-514,48,0
3967,-495,58,0
3961,-487,58,0
3957,-479,60,0
3955,-480,62,0
3950,-484,71,0
3949,-500,70,0
3942,-526,51,0
3925,-549,22,0
3911,-575,-8,0
3894,-603,-44,0
3871,-616,-64,0
3854,-628,-63,0
3844,-642,-52,0
3840,-649,-30,0
3861,-657,-3,0
3906,-658,32,0
3962,-663,70,0
4017,-666,82,0
4061,-665,73,0
4098,-665,53,0
4128,-649,32,0
4155,-629,30,0
4179,-604,45,0
4210,-577,75,0
4243,-556,114,0
4282,-541,152,0
4323,-521,183,0
4358,-498,199,0
4394,-472,201,0
4424,-445,196,0
4443,-418,187,0
4460,-392,185,0
4471,-379,170,0
4468,-373,147,0
4458,-368,118,0
4440,-380,84,0
4409,-383,56,0
4370,-386,45,0
4320,-379,49,0
4269,-379,50,0
4217,-401,64,0
4163,-421,80,0
4113,-448,89,0
4061,-461,94,0
4012,-496,89,0
3968,-540,81,0
3937,-581,72,0
3912,-621,66,0
3898,-648,60,0
3892,-658,60,0
3894,-657,59,0
3905,-655,59,0
3921,-664,59,0
3939,-673,58,0
3954,-676,58,0
3968,-684,62,0
3988,-698,79,0
4012,-715,87,0
4027,-736,98,0
4043,-745,104,0
4059,-751,112,0
4074,-753,119,0
4081,-743,127,0
4081,-734,131,0
4085,-720,131,0
4078,-706,130,0
4065,-686,127,0
4053,-660,121,0
4039,-636,121,0
4030,-611,111,0
4019,-583,104,0
4014,-561,104,0
4014,-532,109,0
4022,-503,119,0
4033,-486,128,0
4052,-474,141,0
4074,-462,152,0
4091,-455,159,0
4108,-452,161,0
4131,-447,163,0
4158,-448,161,0
4179,-449,158,0
4201,-455,156,0
4213,-461,151,0
4219,-464,153,0
4219,-463,154,0
4212,-463,160,0
4202,-463,166,0
4192,-461,176,0
4180,-460,183,0
4160,-457,194,0
4147,-454,203,0
4129,-452,206,0
4117,-451,210,0
4109,-449,203,0
4095,-438,202,0
4087,-430,202,0
4079,-429,192,0
4072,-433,180,0
4066,-426,163,0
4065,-424,153,0
4069,-420,145,0
4071,-408,136,0
4074,-406,134,0
4084,-418,139,0
4091,-437,141,0
4096,-447,151,0
4098,-469,164,0
4100,-480,198,0
4097,-505,217,0
4089,-542,229,0
4088,-601,251,0
4090,-657,272,0
4084,-718,293,0
4079,-767,318,0
4070,-815,334,0
4057,-851,344,0
4043,-883,347,0
4023,-908,345,0
4000,-924,345,0
3980,-934,354,0
3966,-934,367,0
3953,-935,381,0
3941,-924,390,0
3938,-913,409,0
3938,-893,426,0
3939,-870,437,0
3942,-845,448,0
3948,-829,458,0
3958,-819,458,0
3966,-801,460,0
3970,-775,458,0
3978,-755,460,0
3987,-730,462,0
3997,-709,462,0
4001,-694,474,0
4010,-673,478,0
4011,-649,481,0
4008,-631,475,0
3999,-610,470,0
3990,-585,460,0
3978,-556,456,0
3972,-520,453,0
3965,-481,447,0
3961,-451,444,0
3954,-431,437,0
3954,-423,433,0
3961,-418,429,0
3972,-419,423,0
3984,-423,418,0
4003,-426,415,0
4021,-434,407,0
4040,-447,405,0
4054,-453,400,0
4055,-462,412,0
4056,-472,428,0
4056,-474,437,0
4049,-478,443,0
4042,-484,441,0
4030,-484,444,0
4019,-487,447,0
4012,-487,449,0
4000,-494,446,0
3987,-497,447,0
3977,-502,447,0
3974,-509,445,0
3968,-521,438,0
3970,-539,444,0
3983,-560,451,0
3988,-565,453,0
4001,-565,465,0
4013,-569,465,0
4030,-574,470,0
4043,-580,473,0
4048,-578,475,0
4057,-580,472,0
4063,-585,469,0
4064,-588,468,0
4065,-596,464,0
4068,-594,465,0
4068,-587,471,0
4069,-589,472,0
4073,-587,479,0
4075,-595,480,0
4074,-611,483,0
4068,-619,491,0
4062,-629,503,0
4054,-640,512,0
4042,-645,516,0
4033,-649,516,0
4021,-659,519,0
4012,-655,525,0
4005,-651,529,0
4003,-643,536,0
4004,-633,548,0
4010,-623,568,0
4027,-617,589,0
4036,-613,603,0
4050,-605,603,0
4058,-602,599,0
4063,-596,590,0
4065,-583,578,0
4056,-567,568,0
4052,-553,561,0
4049,-553,555,0
4033,-527,551,0
4023,-496,559,0
4017,-468,564,0
4013,-451,567,0
4015,-446,570,0
4017,-442,573,0
4016,-434,582,0
4019,-433,585,0
4021,-439,581,0
4020,-446,578,0
4022,-455,578,0
4020,-470,576,0
4021,-477,577,0
4027,-492,586,0
4030,-499,593,0
4037,-506,600,0
4041,-510,605,0
4042,-522,609,0
4041,-535,609,0
4038,-542,608,0
4040,-549,611,0
4028,-556,606,0
4018,-572,604,0
4003,-578,606,0
3989,-577,611,0
3973,-577,614,0
3962,-575,611,0
3956,-576,614,0
3951,-570,616,0
3956,-564,618,0
3963,-565,619,0
3972,-567,613,0
3984,-570,610,0
3996,-573,605,0
4005,-575,599,0
4016,-576,590,0
4025,-581,580,0
4029,-588,572,0
4029,-588,565,0
4029,-586,564,0
4029,-588,563,0
4028,-591,569,0
4028,-594,565,0
4031,-596,569,0
4034,-602,576,0
4035,-610,582,0
4034,-617,584,0
4032,-627,585,0
4026,-637,584,0
4022,-642,586,0
4019,-650,583,0
4012,-653,580,0
4011,-651,582,0
4008,-645,581,0
4006,-639,583,0
4006,-631,588,0
4002,-623,589,0
4000,-615,587,0
3996,-607,585,0
3992,-598,581,0
3989,-594,581,0
3988,-586,582,0
3987,-581,579,0
3985,-579,586,0
3992,-573,590,0
3994,-568,595,0
4005,-568,598,0
4012,-561,600,0
4019,-564,594,0
4026,-562,589,0
4033,-561,585,0
4038,-555,589,0
4040,-552,593,0
4038,-547,599,0
4036,-541,607,0
4034,-538,618,0
4037,-539,623,0
4034,-539,628,0
4032,-541,630,0
4026,-547,628,0
4022,-542,620,0
4018,-545,616,0
4007,-542,615,0
3996,-539,614,0
3985,-537,616,0
3978,-538,622,0
3968,-540,627,0
3961,-541,628,0
3958,-538,624,0
3956,-535,619,0
3954,-536,611,0
3955,-541,605,0
3955,-542,592,0
3962,-539,585,0
3965,-536,580,0
3974,-538,576,0
3986,-543,574,0
3998,-546,567,0
4008,-551,556,0
4021,-559,552,0
4034,-572,546,0
4042,-580,540,0
4047,-584,530,0
4055,-590,521,0
4063,-596,515,0
4071,-598,511,0
4071,-602,506,0
4074,-607,510,0
4080,-608,515,0
4084,-610,518,0
4090,-616,521,0
4095,-628,523,0
4098,-636,519,0
4101,-637,516,0
4101,-643,513,0
4101,-646,508,0
4099,-640,514,0
4098,-644,513,0
4089,-643,513,0
4081,-635,531,0
4074,-632,548,0
4065,-631,559,0
4054,-630,568,0
4043,-625,570,0
4032,-614,572,0
4026,-615,566,0
4023,-610,567,0
4026,-600,571,0
4029,-591,571,0
4024,-585,571,0
4020,-580,571,0
4015,-570,572,0
4008,-564,572,0
4005,-562,575,0
3996,-558,576,0
3991,-553,579,0
3988,-541,582,0
3984,-533,584,0
3983,-528,586,0
3980,-520,589,0
3981,-521,591,0
3994,-522,595,0
4002,-525,597,0
4010,-530,602,0
4020,-536,598,0
4017,-546,595,0
4018,-553,592,0
4016,-555,589,0
4015,-559,590,0
4015,-561,588,0
4012,-560,589,0
4010,-558,585,0
4006,-555,584,0
4000,-558,584,0
3997,-556,588,0
3993,-555,583,0
3995,-558,580,0
3995,-556,579,0
3996,-553,579,0
4002,-549,589,0
4007,-550,592,0
4011,-557,595,0
4019,-562,595,0
4020,-566,591,0
4024,-569,588,0
4030,-570,585,0
4031,-572,584,0
4029,-571,580,0
4025,-572,579,0
4021,-569,578,0
4018,-567,580,0
4014,-563,582,0
4015,-561,589,0
4019,-561,592,0
4024,-559,600,0
4033,-558,599,0
4036,-557,599,0
4037,-562,598,0
4038,-570,599,0
4035,-571,604,0
4029,-572,604,0
4032,-581,605,0
4033,-591,598,0
4037,-596,599,0
4045,-606,602,0
4053,-598,604,0
4054,-588,606,0
4057,-585,605,0
4063,-585,607,0
4061,-583,604,0
4058,-578,602,0
4050,-572,602,0
4041,-571,603,0
4031,-572,605,0
4021,-575,605,0
4013,-577,605,0
4002,-569,600,0
3995,-562,595,0
3993,-555,591,0
3993,-558,581,0
3997,-564,581,0
4002,-560,589,0
3999,-553,593,0
3996,-553,593,0
3997,-555,589,0
3999,-556,588,0
4004,-562,591,0
4010,-567,593,0
4015,-575,603,0
4013,-545,615,0
4021,-554,606,0
4036,-590,597,0
4056,-620,599,0
4069,-628,607,0
4073,-614,618,0
4072,-594,622,0
4066,-577,617,0
4059,-572,609,0
4046,-558,613,0
4037,-547,613,0
4027,-543,607,0
4015,-543,606,0
4012,-539,607,0
4008,-537,608,0
4020,-541,604,0
4031,-543,610,0
4039,-545,621,0
4043,-539,630,0
4040,-542,624,0
4035,-549,618,0
4030,-542,621,0
4026,-535,628,0
4022,-530,634,0
4014,-526,634,0
4013,-522,629,0
4000,-519,626,0
3989,-511,621,0
3977,-510,609,0
3968,-508,596,0
3962,-503,591,0
3967,-502,585,0
3972,-502,581,0
3988,-506,586,0
4004,-503,600,0
4017,-503,612,0
4031,-509,617,0
4037,-520,614,0
4041,-534,608,0
4047,-548,605,0
4049,-556,599,0
4053,-568,595,0
4053,-575,596,0
4055,-578,600,0
4058,-581,596,0
4059,-586,593,0
4053,-586,598,0
4043,-583,599,0
4041,-579,600,0
4041,-583,598,0
4037,-580,596,0
4032,-575,594,0
4030,-576,590,0
4034,-570,587,0
4038,-569,591,0
4043,-564,591,0
4048,-562,593,0
4049,-558,596,0
4050,-557,603,0
4047,-554,607,0
4050,-551,612,0
4049,-554,615,0
4046,-551,619,0
4044,-550,619,0
4042,-544,625,0
4039,-538,632,0
4037,-538,638,0
4038,-538,645,0
4036,-537,649,0
4039,-539,651,0
4044,-538,654,0
4046,-539,654,0
4059,-542,649,0
4065,-544,653,0
4065,-543,666,0
4054,-534,672,0
4044,-532,669,0
4032,-536,660,0
4025,-534,658,0
4026,-536,664,0
4020,-539,667,0
4021,-536,671,0
4019,-533,671,0
4018,-530,671,0
4015,-528,669,0
4011,-527,670,0
4009,-529,668,0
4004,-528,665,0
3999,-525,669,0
3992,-525,670,0
3992,-520,663,0
3994,-521,659,0
3997,-523,658,0
3996,-522,658,0
3996,-518,665,0
4000,-526,664,0
4001,-533,662,0
4003,-542,665,0
4007,-549,668,0
4010,-556,667,0
4012,-559,665,0
4009,-562,663,0
4006,-561,652,0
3998,-557,645,0
3994,-561,636,0
3990,-558,630,0
3986,-557,625,0
3983,-559,624,0
3982,-563,621,0
3991,-563,621,0
3999,-563,618,0
4004,-567,615,0
4008,-568,615,0
4012,-571,611,0
4019,-580,612,0
4028,-587,611,0
4031,-592,610,0
4032,-595,615,0
4029,-599,616,0
4021,-603,618,0
4014,-609,619,0
4006,-614,618,0
4001,-614,615,0
3994,-604,614,0
3988,-595,612,0
3983,-587,614,0
3987,-574,620,0
3994,-568,627,0
4008,-560,627,0
4023,-554,627,0
4038,-553,624,0
4051,-547,620,0
4055,-544,617,0
4059,-544,614,0
4057,-539,609,0
4049,-530,603,0
4038,-529,597,0
4029,-527,590,0
4021,-525,580,0
4016,-521,574,0
4016,-522,572,0
4017,-519,575,0
4018,-518,580,0
4019,-520,581,0
4022,-523,586,0
4023,-531,591,0
4028,-539,597,0
4028,-548,600,0
4029,-556,602,0
4029,-568,604,0
4030,-573,607,0
4032,-577,611,0
4032,-577,616,0
4034,-578,620,0
4037,-582,619,0
4040,-584,609,0
4034,-586,602,0
4033,-576,604,0
4037,-576,602,0
4036,-580,601,0
4037,-579,602,0
4038,-573,605,0
4043,-572,610,0
4043,-566,611,0
4048,-556,611,0
4047,-556,614,0
4050,-554,614,0
4049,-548,614,0
4050,-543,620,0
4051,-540,627,0
4049,-536,624,0
4047,-533,624,0
4045,-529,621,0
4038,-523,616,0
4037,-519,614,0
4035,-516,613,0
4027,-513,613,0
4024,-512,613,0
4020,-514,610,0
4018,-517,608,0
4017,-517,607,0
4017,-519,607,0
4021,-518,609,0
4020,-520,608,0
4020,-517,608,0
4026,-521,610,0
4025,-523,613,0
4032,-525,615,0
4033,-532,619,0
4037,-537,619,0
4038,-544,615,0
4036,-548,616,0
4035,-550,620,0
4028,-555,618,0
4022,-556,620,0
4015,-556,619,0
4012,-555,620,0
4010,-550,614,0
4011,-544,612,0
4008,-542,613,0
4009,-539,615,0
4012,-534,617,0
4017,-528,620,0
4021,-525,617,0
4025,-515,618,0
4028,-512,624,0
4035,-515,623,0
4044,-513,620,0
4045,-510,614,0
4043,-501,620,0
4048,-496,624,0
4044,-495,627,0
4042,-497,627,0
4038,-496,626,0
4034,-500,622,0
4025,-504,623,0
4018,-507,628,0
4019,-511,632,0
4018,-513,631,0
4018,-522,636,0
4015,-530,637,0
4018,-533,634,0
4015,-533,634,0
4013,-536,635,0
4016,-535,630,0
4016,-538,629,0
4013,-540,627,0
4013,-534,625,0
4016,-534,623,0
4015,-534,627,0
4018,-525,633,0
4019,-519,636,0
4017,-520,634,0
4013,-518,634,0
4018,-513,633,0
4016,-511,629,0
4013,-506,628,0
4016,-503,627,0
4016,-499,625,0
4017,-502,624,0
4023,-502,626,0
4026,-502,630,0
4029,-508,633,0
4032,-512,632,0
4030,-516,632,0
4027,-516,634,0
4026,-518,636,0
4023,-527,635,0
4019,-534,635,0
4017,-533,638,0
4015,-537,640,0
4013,-539,642,0
4014,-541,642,0
4011,-541,645,0
4012,-542,644,0
4012,-542,643,0
4013,-542,646,0
4013,-537,654,0
4017,-536,661,0
4021,-531,662,0
4022,-523,666,0
4021,-521,666,0
4021,-523,660,0
4019,-527,652,0
4013,-522,648,0
4007,-516,645,0
3999,-510,644,0
3999,-499,649,0
4004,-489,652,0
4006,-486,657,0
4004,-488,661,0
4002,-482,666,0
4003,-486,662,0
4003,-493,657,0
4004,-494,656,0
4008,-495,661,0
4011,-497,664,0
4013,-499,670,0
4018,-501,671,0
4015,-500,673,0
4013,-503,667,0
4012,-504,660,0
4014,-512,644,0
4010,-512,641,0
4008,-511,640,0
4010,-517,637,0
4011,-522,636,0
4013,-526,639,0
4016,-525,639,0
4018,-528,642,0
4022,-527,641,0
4027,-526,641,0
4028,-521,644,0
4025,-523,644,0
4021,-529,640,0
4019,-531,640,0
4014,-535,641,0
4015,-541,639,0
4012,-543,636,0
4011,-546,636,0
4012,-548,637,0
4010,-555,636,0
4006,-560,632,0
4001,-565,629,0
3998,-564,626,0
3992,-565,626,0
3988,-564,623,0
3987,-565,627,0
3988,-568,630,0
3993,-572,633,0
3996,-573,642,0
4003,-572,652,0
4019,-581,660,0
4032,-580,664,0
4043,-575,672,0
4058,-565,673,0
4068,-561,676,0
4076,-560,677,0
4079,-550,672,0
4078,-545,669,0
4078,-545,665,0
4077,-542,663,0
4079,-543,659,0
4085,-530,668,0
4083,-523,669,0
4083,-522,670,0
4085,-523,670,0
4081,-523,670,0
4078,-521,670,0
4069,-524,672,0
4057,-524,665,0
4045,-525,653,0
4028,-530,649,0
4015,-531,643,0
4006,-535,639,0
4002,-541,634,0
4000,-547,634,0
3998,-548,636,0
4002,-552,637,0
4002,-561,637,0
4004,-566,636,0
4006,-574,636,0
4005,-581,635,0
4000,-582,637,0
3996,-580,642,0
3991,-582,647,0
3990,-580,649,0
3986,-575,658,0
3986,-572,663,0
3986,-567,666,0
3984,-563,667,0
3987,-562,668,0
3992,-557,674,0
3994,-551,674,0
3995,-547,671,0
3997,-544,671,0
4001,-542,667,0
4001,-541,669,0
4000,-531,668,0
4001,-527,669,0
4001,-523,662,0
3996,-515,665,0
3993,-517,666,0
3994,-518,669,0
3997,-515,670,0
4002,-516,668,0
4002,-520,668,0
4002,-520,666,0
4007,-519,665,0
4009,-518,664,0
4011,-520,665,0
4021,-520,664,0
4028,-524,666,0
4034,-526,665,0
4039,-525,662,0
4038,-527,658,0
4038,-534,658,0
4040,-537,656,0
4039,-537,655,0
4039,-542,653,0
4039,-540,654,0
4037,-545,656,0
4039,-549,658,0
4039,-548,656,0
4032,-553,655,0
4027,-554,659,0
4022,-554,659,0
4020,-560,657,0
4020,-560,659,0
4023,-566,653,0
4023,-567,650,0
4026,-569,643,0
4029,-571,641,0
4034,-572,640,0
4032,-568,640,0
4029,-567,640,0
4023,-560,641,0
4023,-556,641,0
4017,-558,646,0
4014,-554,649,0
4010,-552,655,0
4011,-553,659,0
4007,-550,665,0
4002,-547,667,0
4003,-545,666,0
4002,-540,664,0
4003,-537,669,0
4000,-534,671,0
4004,-533,668,0
4006,-534,669,0
4006,-532,668,0
4004,-536,671,0
3995,-539,671,0
3993,-539,667,0
3992,-540,672,0
3996,-539,680,0
3994,-541,685,0
3999,-540,689,0
4002,-543,686,0
4001,-542,679,0
4003,-540,673,0
4002,-535,671,0
4004,-530,675,0
4006,-530,674,0
4008,-531,679,0
4010,-533,679,0
4013,-532,677,0
4017,-529,678,0
4017,-532,679,0
4018,-530,683,0
4017,-528,683,0
4019,-522,686,0
4017,-517,687,0
4011,-517,688,0
4012,-521,691,0
4010,-522,691,0
4008,-522,691,0
4007,-529,689,0
4004,-532,685,0
3999,-537,678,0
4001,-540,672,0
4004,-543,670,0
4004,-539,672,0
4009,-543,674,0
4016,-543,675,0
4020,-549,674,0
4017,-551,670,0
4019,-555,670,0
4019,-562,672,0
4014,-562,676,0
4012,-564,679,0
4012,-569,675,0
4008,-574,671,0
4009,-573,662,0
4010,-578,664,0
4016,-576,666,0
4017,-571,667,0
4020,-567,664,0
4022,-560,660,0
4022,-556,660,0
4020,-550,660,0
4021,-546,662,0
4019,-542,669,0
4013,-543,673,0
4012,-549,674,0
4007,-538,672,0
3998,-533,679,0
3999,-534,679,0
3996,-541,676,0
3993,-541,677,0
3993,-544,678,0
3996,-548,678,0
4000,-551,676,0
4004,-552,677,0
4009,-554,674,0
4009,-553,674,0
4007,-553,675,0
4010,-550,678,0
4011,-551,678,0
4016,-549,679,0
4020,-545,681,0
4021,-544,683,0
4022,-544,686,0
4024,-545,691,0
4024,-546,692,0
4025,-547,695,0
4023,-551,693,0
4021,-554,688,0
4018,-552,678,0
4016,-553,674,0
4012,-553,675,0
4012,-554,671,0
4012,-552,670,0
4013,-549,673,0
4014,-548,676,0
4014,-546,675,0
4019,-547,671,0
4022,-549,674,0
4018,-548,676,0
4017,-548,675,0
4015,-548,678,0
4011,-548,676,0
4006,-552,676,0
4007,-557,678,0
4005,-558,684,0
4009,-560,685,0
4012,-563,686,0
4016,-565,685,0
4016,-562,685,0
4017,-562,682,0
4016,-560,678,0
4018,-555,673,0
4015,-555,676,0
4013,-559,672,0
4011,-560,669,0
4010,-557,668,0
4006,-556,670,0
4006,-556,673,0
4002,-556,670,0
4000,-557,672,0
3999,-553,670,0
3993,-552,673,0
3995,-552,676,0
3999,-552,676,0
3998,-550,679,0
4003,-550,675,0
4007,-554,671,0
4007,-551,671,0
4010,-555,672,0
4015,-554,673,0
4014,-556,675,0
4015,-557,672,0
4012,-557,670,0
4014,-555,668,0
4013,-556,668,0
4015,-554,667,0
4015,-552,667,0
4012,-556,668,0
4011,-557,667,0
4010,-559,669,0
4013,-559,666,0
4015,-563,671,0
4015,-563,672,0
4019,-565,674,0
4025,-563,669,0
4028,-563,664,0
4025,-561,661,0
4023,-560,659,0
4020,-557,657,0
4017,-556,653,0
4015,-556,652,0
4012,-557,653,0
4012,-560,650,0
4008,-561,653,0
4004,-562,655,0
4004,-561,655,0
4003,-566,655,0
4004,-569,657,0
4005,-568,659,0
4009,-567,661,0
4016,-566,663,0
4021,-566,665,0
4026,-569,669,0
4028,-571,667,0
4032,-570,668,0
4031,-569,667,0
4033,-571,664,0
4032,-572,665,0
4031,-572,663,0
4024,-574,661,0
4023,-576,665,0
4017,-574,665,0
4014,-572,664,0
4007,-568,663,0
4004,-571,661,0
4003,-571,659,0
4000,-569,658,0
4000,-566,658,0
4002,-566,655,0
4006,-565,654,0
4013,-563,654,0
4016,-560,654,0
4018,-561,652,0
4019,-558,654,0
4017,-556,649,0
4017,-554,653,0
4017,-551,654,0
4015,-554,655,0
4012,-559,656,0
4006,-562,655,0
4003,-565,652,0
4000,-565,649,0
3999,-569,646,0
4003,-569,647,0
4006,-569,650,0
4008,-569,650,0
4018,-566,649,0
4025,-566,653,0
4031,-562,657,0
4037,-562,662,0
4049,-563,664,0
4050,-563,662,0
4048,-563,662,0
4044,-563,660,0
4033,-573,658,0
4022,-571,658,0
4015,-572,659,0
4006,-574,658,0
4000,-574,660,0
3993,-572,661,0
3993,-571,661,0
3997,-565,667,0
3998,-565,669,0
4002,-559,667,0
4005,-556,665,0
4012,-552,659,0
4013,-548,659,0
4015,-550,659,0
4014,-550,658,0
4013,-548,656,0
4014,-550,654,0
4016,-551,656,0
4016,-554,655,0
4019,-556,653,0
4021,-563,653,0
4018,-566,652,0
4020,-569,651,0
4020,-572,651,0
4017,-571,647,0
4011,-572,648,0
4009,-571,648,0
4011,-571,650,0
4012,-570,649,0
4012,-567,649,0
4015,-569,648,0
4015,-569,647,0
4018,-562,648,0
4022,-559,651,0
4022,-559,651,0
4021,-558,653,0
4029,-559,654,0
4030,-563,650,0
4027,-561,647,0
4027,-561,646,0
4024,-560,649,0
4023,-559,650,0
4021,-558,647,0
4027,-559,644,0
4023,-557,646,0
4024,-558,648,0
4023,-560,649,0
4030,-562,656,0
4027,-566,656,0
4030,-569,655,0
4027,-570,651,0
4020,-572,653,0
4016,-572,651,0
4015,-571,649,0
4014,-574,649,0
4015,-572,650,0
4012,-573,651,0
4009,-572,650,0
4006,-571,652,0
4009,-566,653,0
4010,-565,652,0
4013,-564,655,0
4014,-564,653,0
4015,-565,650,0
4016,-566,653,0
4017,-565,650,0
4015,-568,653,0
4016,-569,649,0
4016,-573,650,0
4018,-578,650,0
4018,-580,652,0
4019,-583,648,0
4021,-580,644,0
4024,-577,639,0
4027,-577,638,0
4028,-571,639,0
4025,-569,642,0
4024,-567,643,0
4022,-568,642,0
4017,-567,645,0
4012,-569,646,0
4005,-570,649,0
4002,-571,653,0
3998,-570,654,0
4000,-570,654,0
3993,-568,652,0
3990,-571,654,0
3990,-567,652,0
3995,-569,655,0
3997,-567,657,0
4001,-568,659,0
4006,-564,659,0
4010,-560,658,0
4009,-564,659,0
4012,-561,662,0
4020,-558,661,0
4017,-557,665,0
4019,-557,661,0
4018,-554,664,0
4017,-555,666,0
4012,-556,665,0
4010,-559,667,0
4010,-557,661,0
4006,-558,661,0
4003,-556,661,0
4000,-561,656,0
3999,-561,654,0
4000,-561,653,0
4003,-558,653,0
4002,-556,652,0
4007,-556,657,0
4010,-554,655,0
4015,-556,658,0
4022,-554,659,0
4023,-554,655,0
4022,-555,655,0
4022,-552,657,0
4021,-546,659,0
4023,-545,660,0
4024,-544,660,0
4026,-543,660,0
4029,-540,660,0
4027,-540,658,0
4024,-541,659,0
4022,-544,658,0
4025,-545,658,0
4023,-546,655,0
4024,-550,654,0
4023,-555,656,0
4018,-559,654,0
4017,-565,652,0
4016,-565,653,0
4017,-564,653,0
4021,-561,657,0
4023,-560,658,0
4020,-561,661,0
4025,-555,663,0
4026,-551,667,0
4027,-548,662,0
4027,-546,662,0
4028,-545,659,0
4024,-540,659,0
4023,-533,661,0
4017,-533,663,0
4013,-530,667,0
4012,-529,669,0
4009,-530,667,0
4006,-530,664,0
4005,-529,656,0
4005,-524,649,0
4004,-519,646,0
4007,-513,646,0
4009,-506,645,0
4011,-509,646,0
4017,-513,648,0
4018,-507,654,0
4026,-506,658,0
4033,-509,661,0
4038,-512,668,0
4033,-516,668,0
4026,-518,664,0
4020,-519,666,0
4017,-528,670,0
4019,-527,671,0
4017,-529,671,0
4017,-528,665,0
4021,-531,665,0
4022,-532,660,0
4027,-527,659,0
4029,-518,663,0
4030,-512,665,0
4032,-515,660,0
4025,-513,654,0
4023,-513,647,0
4016,-513,642,0
4012,-515,637,0
4009,-517,633,0
4008,-523,629,0
4008,-519,632,0
4010,-521,632,0
4015,-509,634,0
4018,-506,634,0
4019,-507,630,0
4023,-506,629,0
4026,-502,627,0
4028,-508,628,0
4031,-520,623,0
4035,-531,622,0
4034,-541,619,0
4031,-550,621,0
4037,-556,621,0
4040,-563,623,0
4043,-571,625,0
4052,-582,625,0
4064,-593,625,0
4063,-590,627,0
4066,-593,621,0
4070,-606,613,0
4070,-592,616,0
4074,-579,613,0
4075,-583,609,0
4074,-576,608,0
4076,-567,607,0
4074,-560,608,0
4073,-550,605,0
4065,-542,605,0
4057,-528,604,0
4053,-521,603,0
4044,-512,606,0
4038,-507,606,0
4029,-499,611,0
4020,-490,621,0
4014,-489,630,0
4007,-488,631,0
3999,-488,630,0
3993,-489,631,0
3991,-488,629,0
3988,-486,628,0
3982,-486,634,0
3979,-487,636,0
3976,-480,636,0
3974,-482,637,0
3976,-481,637,0
3974,-485,636,0
3976,-486,635,0
3980,-488,637,0
3977,-489,642,0
3978,-491,641,0
3981,-491,642,0
3982,-493,642,0
3983,-496,639,0
3985,-495,640,0
3988,-499,639,0
3986,-500,634,0
3987,-502,637,0
3989,-502,634,0
3992,-501,633,0
3995,-502,630,0
3999,-501,625,0
4000,-505,625,0
4006,-508,623,0
4010,-513,621,0
4017,-522,619,0
4024,-528,618,0
4029,-534,619,0
4035,-539,616,0
4041,-546,617,0
4043,-551,622,0
4055,-557,626,0
4062,-561,630,0
4066,-567,634,0
4064,-573,638,0
4064,-575,640,0
4063,-578,645,0
4061,-580,640,0
4056,-579,640,0
4052,-579,638,0
4048,-577,633,0
4042,-569,630,0
4041,-561,630,0
4043,-554,630,0
4043,-550,630,0
4045,-542,637,0
4048,-531,638,0
4047,-523,640,0
4045,-511,645,0
4040,-502,646,0
4039,-492,645,0
4035,-490,644,0
4033,-485,641,0
4032,-484,643,0
4027,-478,644,0
4022,-473,647,0
4019,-468,648,0
4020,-467,653,0
4013,-468,656,0
4014,-471,660,0
4009,-475,664,0
4008,-477,665,0
4006,-477,665,0
4000,-480,666,0
3999,-485,669,0
3997,-488,664,0
3989,-491,660,0
3991,-495,656,0
3993,-493,656,0
3996,-495,655,0
4006,-494,650,0
4011,-494,650,0
4014,-501,648,0
4023,-503,646,0
4025,-501,646,0
4031,-502,647,0
4035,-502,644,0
4040,-504,648,0
4038,-507,649,0
4044,-513,655,0
4044,-517,659,0
4042,-520,659,0
4035,-524,656,0
4030,-527,650,0
4027,-529,643,0
4025,-532,641,0
4024,-529,639,0
4027,-529,635,0
4023,-528,637,0
4027,-526,641,0
4031,-524,644,0
4030,-518,648,0
4037,-518,650,0
4037,-519,648,0
4034,-518,647,0
4035,-521,650,0
4030,-518,651,0
4024,-516,656,0
4022,-517,652,0
4015,-516,648,0
4011,-515,648,0
4009,-515,651,0
4002,-515,653,0
4005,-517,655,0
4006,-514,656,0
4009,-510,656,0
4010,-506,659,0
4008,-505,661,0
4010,-504,667,0
4007,-504,664,0
4001,-506,661,0
4000,-508,654,0
4002,-507,655,0
4005,-506,659,0
4008,-508,658,0
4013,-510,660,0
4014,-506,660,0
4015,-506,658,0
4017,-508,657,0
4023,-512,655,0
4025,-516,652,0
4025,-515,658,0
4030,-516,659,0
4035,-520,659,0
4036,-526,657,0
4042,-531,660,0
4044,-529,664,0
4043,-527,665,0
4041,-531,671,0
4042,-531,675,0
4035,-529,676,0
4029,-527,673,0
4026,-529,676,0
4027,-526,673,0
4021,-521,670,0
4021,-519,670,0
4018,-516,671,0
4018,-510,670,0
4018,-510,669,0
4019,-505,661,0
4020,-505,660,0
4019,-505,657,0
4016,-505,656,0
4014,-505,655,0
4013,-507,656,0
4013,-507,664,0
4010,-507,669,0
4009,-506,668,0
4004,-511,668,0
4001,-510,669,0
4002,-513,663,0
4001,-511,657,0
4003,-520,657,0
4001,-519,656,0
4001,-522,658,0
4002,-521,663,0
4004,-524,665,0
4009,-528,670,0
4010,-532,673,0
4015,-534,678,0
4015,-536,677,0
4017,-540,677,0
4017,-541,678,0
4020,-540,679,0
4018,-531,681,0
4015,-530,676,0
4018,-529,675,0
4022,-531,672,0
4023,-531,673,0
4024,-531,668,0
4032,-536,668,0
4036,-533,669,0
4039,-538,666,0
4040,-541,660,0
4039,-544,663,0
4041,-545,666,0
4034,-542,667,0
4032,-539,669,0
4026,-538,668,0
4022,-541,670,0
4017,-540,677,0
4014,-540,674,0
4011,-540,676,0
4006,-541,673,0
4003,-538,671,0
3999,-543,678,0
4000,-542,680,0
4005,-538,680,0
4006,-537,678,0
4010,-536,681,0
4016,-528,686,0
4019,-521,686,0
4020,-517,689,0
4022,-513,685,0
4021,-507,685,0
4023,-500,685,0
4024,-497,683,0
4025,-500,687,0
4027,-496,687,0
4026,-489,685,0
4025,-488,685,0
4024,-488,690,0
4026,-487,695,0
4027,-489,696,0
4032,-491,697,0
4033,-491,697,0
4031,-496,696,0
4029,-501,695,0
4024,-498,692,0
4019,-501,692,0
4011,-504,690,0
4010,-504,689,0
4008,-508,691,0
4006,-514,694,0
4007,-514,696,0
4008,-517,695,0
4009,-520,694,0
4009,-518,690,0
4006,-517,690,0
3999,-529,692,0
4002,-535,694,0
4001,-533,700,0
4002,-532,703,0
4001,-533,700,0
3999,-529,702,0
4003,-528,700,0
4004,-525,699,0
4005,-517,699,0
4019,-517,705,0
4009,-498,702,0
4005,-501,693,0
4007,-523,697,0
4010,-528,705,0
4005,-518,709,0
4006,-512,706,0
4007,-514,700,0
4008,-513,700,0
4014,-508,702,0
4014,-507,704,0
4013,-502,704,0
4022,-506,702,0
4018,-501,707,0
4022,-502,710,0
4024,-502,711,0
4022,-504,708,0
4021,-507,710,0
4019,-507,712,0
4012,-508,714,0
4007,-508,718,0
3997,-507,718,0
3993,-508,717,0
3991,-513,715,0
3987,-517,713,0
3986,-513,712,0
3991,-512,715,0
3996,-510,718,0
4005,-507,719,0
4007,-506,717,0
4010,-506,713,0
4014,-505,711,0
4015,-510,712,0
4015,-505,709,0
4013,-506,707,0
4011,-506,703,0
4016,-503,700,0
4015,-501,696,0
4013,-503,700,0
4013,-505,704,0
4016,-507,705,0
4014,-512,706,0
4014,-512,709,0
4013,-515,714,0
4011,-518,716,0
4008,-521,715,0
4008,-515,710,0
4009,-519,714,0
4011,-518,715,0
4011,-517,717,0
4011,-515,714,0
4014,-514,715,0
4016,-513,710,0
4015,-513,712,0
4014,-510,715,0
4013,-507,715,0
4010,-508,717,0
4004,-504,713,0
3999,-501,709,0
3994,-502,704,0
3989,-501,708,0
3993,-499,709,0
3995,-501,705,0
3993,-502,703,0
3999,-501,702,0
4003,-503,702,0
4005,-500,702,0
4011,-502,705,0
4015,-502,709,0
4016,-501,706,0
4016,-503,708,0
4015,-507,708,0
4017,-510,708,0
4014,-512,711,0
4015,-517,718,0
4013,-515,715,0
4014,-518,713,0
4011,-520,715,0
4012,-517,715,0
4012,-517,716,0
4013,-514,716,0
4013,-516,713,0
4013,-511,712,0
4014,-510,711,0
4015,-510,708,0
4014,-513,707,0
4012,-515,711,0
4011,-517,709,0
4011,-517,712,0
4014,-518,711,0
4022,-510,717,0
4011,-485,718,0
4009,-489,707,0
4009,-510,699,0
4013,-531,700,0
4019,-534,710,0
4019,-525,709,0
4018,-520,704,0
4022,-522,699,0
4019,-522,696,0
4021,-526,697,0
4020,-521,701,0
4021,-519,704,0
4020,-519,706,0
4017,-519,709,0
4013,-522,706,0
4012,-520,705,0
4006,-523,701,0
4001,-525,702,0
4001,-522,704,0
4000,-522,704,0
3998,-522,702,0
4002,-528,703,0
4002,-528,704,0
3998,-526,703,0
4000,-528,704,0
4004,-527,704,0
4009,-528,703,0
4011,-530,704,0
4009,-527,705,0
4010,-527,705,0
4012,-525,704,0
4015,-524,703,0
4019,-520,703,0
4019,-520,701,0
4018,-520,702,0
4016,-518,702,0
4010,-517,702,0
4012,-513,706,0
4015,-517,708,0
4013,-519,708,0
4015,-519,706,0
4015,-521,705,0
4010,-526,709,0
4012,-526,709,0
4011,-525,706,0
4014,-521,707,0
4016,-521,708,0
4015,-519,707,0
4017,-522,709,0
4018,-526,708,0
4017,-525,707,0
4015,-526,702,0
4014,-527,702,0
4012,-527,700,0
4012,-530,706,0
4016,-534,707,0
4020,-536,707,0
4021,-538,708,0
4023,-532,706,0
4024,-531,708,0
4023,-527,711,0
4022,-527,706,0
4018,-527,705,0
4018,-526,708,0
4013,-524,708,0
4012,-524,705,0
4009,-520,705,0
4005,-516,705,0
4006,-519,699,0
4006,-515,703,0
4007,-517,700,0
4011,-519,694,0
4016,-522,697,0
4017,-528,702,0
4021,-525,705,0
4021,-526,709,0
4024,-523,711,0
4030,-524,712,0
4027,-525,711,0
4024,-529,711,0
4019,-527,716,0
4013,-529,715,0
4003,-530,719,0
3993,-529,720,0
3990,-529,719,0
3986,-528,719,0
3993,-524,721,0
3990,-521,721,0
3997,-518,720,0
4005,-512,719,0
4009,-508,716,0
4012,-507,712,0
4014,-509,714,0
4015,-509,712,0
4014,-509,710,0
4011,-511,711,0
4007,-510,710,0
4009,-511,711,0
4009,-513,709,0
4004,-512,711,0
4007,-514,709,0
4007,-515,713,0
4008,-516,713,0
4008,-517,716,0
4010,-516,715,0
4007,-519,715,0
4004,-516,711,0
4005,-513,714,0
4008,-512,714,0
4010,-509,712,0
4012,-511,715,0
4014,-511,713,0
4016,-511,712,0
4016,-513,714,0
4018,-515,719,0
4018,-513,720,0
4017,-511,718,0
4017,-510,716,0
4014,-508,715,0
4009,-510,714,0
4004,-507,712,0
4001,-506,713,0
4000,-505,709,0
4002,-509,712,0
4005,-505,711,0
4006,-508,710,0
4014,-510,707,0
4018,-511,706,0
4024,-514,710,0
4026,-518,714,0
4028,-520,713,0
4026,-523,712,0
4025,-522,713,0
4024,-520,713,0
4016,-519,714,0
4015,-520,715,0
4010,-517,718,0
4006,-518,720,0
4005,-516,719,0
4006,-514,714,0
4005,-514,716,0
4003,-512,718,0
4000,-510,717,0
3999,-506,716,0
4000,-504,722,0
4002,-506,728,0
4005,-506,726,0
4009,-506,721,0
4014,-508,723,0
4016,-510,724,0
4020,-512,726,0
4019,-509,727,0
4016,-507,726,0
4015,-506,729,0
4013,-506,732,0
4012,-507,732,0
4012,-508,732,0
4010,-509,732,0
4004,-511,733,0
4002,-511,729,0
4001,-508,728,0
3996,-507,728,0
3999,-510,725,0
4005,-505,723,0
4000,-503,722,0
4005,-501,725,0
4005,-502,722,0
4007,-501,719,0
4006,-497,720,0
4006,-503,720,0
4004,-505,717,0
4007,-506,720,0
4009,-507,719,0
4012,-511,722,0
4016,-512,722,0
4013,-518,719,0
4017,-518,723,0
4019,-521,723,0
4016,-522,725,0
4018,-524,721,0
4016,-528,725,0
4017,-529,726,0
4015,-528,727,0
4015,-525,728,0
4016,-520,726,0
4012,-522,727,0
4010,-522,729,0
4006,-520,727,0
4007,-515,721,0
3998,-511,721,0
3998,-506,718,0
4000,-502,718,0
4003,-500,719,0
4007,-497,720,0
4008,-500,723,0
4007,-498,723,0
4004,-498,726,0
4005,-501,723,0
4007,-502,726,0
4006,-502,727,0
4000,-507,725,0
3998,-510,730,0
3997,-508,730,0
3998,-511,731,0
3996,-509,733,0
3997,-513,731,0
3999,-513,726,0
4002,-511,723,0
3997,-510,719,0
3995,-513,719,0
4002,-512,717,0
4005,-513,715,0
4006,-511,711,0
4010,-511,712,0
4014,-510,713,0
4019,-513,717,0
4027,-515,713,0
4031,-517,712,0
4032,-517,712,0
4032,-516,711,0
4029,-512,709,0
4029,-513,705,0
4028,-515,706,0
4022,-520,712,0
4019,-523,718,0
4015,-526,721,0
4009,-528,717,0
4004,-532,716,0
4000,-536,714,0
4002,-531,709,0
4006,-531,710,0
4007,-529,710,0
4013,-525,710,0
4018,-523,711,0
4022,-516,713,0
4026,-513,715,0
4025,-512,714,0
4024,-506,713,0
4020,-504,714,0
4010,-505,718,0
4005,-503,720,0
4003,-498,723,0
3993,-500,720,0
3992,-501,723,0
3991,-499,720,0
3994,-504,718,0
4000,-503,715,0
4010,-503,712,0
4013,-500,715,0
4019,-500,716,0
4021,-501,717,0
4023,-505,716,0
4019,-505,714,0
4015,-506,716,0
4012,-507,713,0
4012,-515,713,0
4010,-518,711,0
4006,-520,710,0
4006,-520,706,0
4007,-517,707,0
4009,-515,708,0
4009,-511,705,0
4012,-514,706,0
4010,-513,708,0
4015,-511,707,0
4016,-513,705,0
4015,-510,703,0
4019,-514,701,0
4020,-513,701,0
4021,-516,706,0
4029,-517,707,0
4034,-517,704,0
4044,-515,705,0
4047,-518,703,0
4046,-519,699,0
4044,-518,696,0
4039,-518,693,0
4037,-520,690,0
4034,-520,688,0
4032,-518,678,0
4027,-516,673,0
4023,-514,675,0
4017,-515,674,0
4019,-518,677,0
4021,-521,679,0
4021,-514,679,0
4017,-516,676,0
4015,-516,676,0
4008,-516,678,0
4002,-516,678,0
4003,-517,681,0
4001,-515,687,0
3993,-513,691,0
3989,-514,695,0
3986,-515,696,0
3981,-512,697,0
3978,-512,696,0
3979,-512,696,0
3981,-514,695,0
3982,-512,695,0
3986,-514,698,0
3987,-516,704,0
3991,-517,706,0
3991,-519,708,0
3992,-522,711,0
3999,-524,712,0
4004,-523,709,0
4007,-521,706,0
4007,-522,706,0
4011,-520,706,0
4014,-517,704,0
4019,-513,702,0
4023,-509,703,0
4020,-510,705,0
4018,-508,706,0
4019,-505,699,0
4022,-508,693,0
4025,-510,692,0
4029,-509,689,0
4030,-506,689,0
4033,-502,690,0
4035,-502,689,0
4037,-502,687,0
4038,-503,687,0
4037,-504,688,0
4037,-507,686,0
4038,-504,686,0
4038,-504,686,0
4035,-506,688,0
4034,-507,686,0
4031,-509,690,0
4023,-509,690,0
4022,-506,689,0
4019,-504,688,0
4022,-501,692,0
4023,-502,688,0
4025,-500,685,0
4025,-498,686,0
4027,-498,686,0
4032,-500,685,0
4035,-502,688,0
4039,-502,687,0
4038,-504,690,0
4041,-506,690,0
4045,-507,688,0
4045,-509,683,0
4045,-510,675,0
4045,-513,671,0
4042,-515,671,0
4044,-512,668,0
4042,-511,667,0
4044,-512,667,0
4041,-517,670,0
4040,-517,669,0
4036,-518,664,0
4031,-518,659,0
4023,-521,656,0
4021,-524,650,0
4021,-524,647,0
4020,-522,650,0
4020,-520,648,0
4020,-525,646,0
4020,-524,644,0
4017,-525,644,0
4017,-522,643,0
4021,-524,646,0
4025,-524,643,0
4036,-528,644,0
4043,-536,641,0
4048,-540,634,0
4051,-547,623,0
4041,-558,605,0
4031,-562,590,0
4019,-564,578,0
4011,-564,573,0
4000,-559,573,0
3995,-555,571,0
3989,-555,570,0
3985,-552,570,0
3982,-551,566,0
3984,-551,568,0
3986,-557,560,0
3985,-558,561,0
3993,-556,569,0
3997,-556,574,0
3999,-561,574,0
4002,-567,576,0
3997,-574,571,0
3996,-580,560,0
3990,-585,545,0
3983,-584,538,0
3980,-588,527,0
3984,-594,519,0
3992,-602,515,0
4002,-604,514,0
4009,-604,510,0
4016,-604,511,0
4024,-613,509,0
4033,-619,497,0
4035,-627,477,0
4033,-636,457,0
4031,-645,435,0
4031,-648,418,0
4027,-647,409,0
4017,-647,402,0
4011,-659,386,0
4002,-674,373,0
3996,-686,360,0
3992,-694,347,0
3987,-694,340,0
3979,-695,334,0
3976,-706,322,0
3966,-714,306,0
3960,-726,289,0
3952,-730,269,0
3949,-744,257,0
3945,-758,251,0
3943,-764,244,0
3943,-776,234,0
3942,-787,216,0
3937,-799,200,0
3938,-808,178,0
3936,-822,156,0
3941,-832,145,0
3939,-839,140,0
3942,-845,141,0
3944,-851,129,0
3951,-855,111,0
3949,-856,88,0
3947,-856,75,0
3940,-852,63,0
3937,-853,48,0
3933,-853,28,0
3924,-860,10,0
3920,-861,-8,0
3914,-862,-18,0
3902,-859,-24,0
3892,-855,-36,0
3890,-861,-36,0
3874,-864,-32,0
3859,-863,-21,0
3845,-875,-10,0
3832,-890,-1,0
3816,-902,14,0
3806,-925,29,0
3795,-948,48,0
3787,-964,66,0
3777,-969,81,0
3763,-978,91,0
3743,-984,88,0
3725,-990,69,0
3705,-994,44,0
3678,-999,23,0
3649,-995,7,0
3622,-985,-6,0
3613,-999,-11,0
3589,-1002,-9,0
3567,-995,-2,0
3549,-990,1,0
3535,-976,-7,0
3531,-982,-36,0
3534,-996,-68,0
3557,-1011,-103,0
3587,-1016,-131,0
3619,-1032,-150,0
3660,-1039,-165,0
3703,-1049,-186,0
3745,-1066,-220,0
3781,-1075,-259,0
3814,-1078,-304,0
3841,-1083,-338,0
3861,-1084,-368,0
3875,-1092,-396,0
3887,-1106,-418,0
3888,-1120,-437,0
3890,-1122,-443,0
3906,-1118,-433,0
3908,-1106,-422,0
3901,-1094,-414,0
3895,-1094,-401,0
3887,-1097,-396,0
3858,-1088,-395,0
3824,-1086,-386,0
3784,-1086,-387,0
3751,-1090,-393,0
3718,-1107,-408,0
3689,-1127,-424,0
3659,-1142,-440,0
3631,-1154,-447,0
3608,-1157,-458,0
3593,-1166,-468,0
3594,-1164,-477,0
3599,-1156,-467,0
3607,-1139,-445,0
3629,-1129,-428,0
3663,-1110,-410,0
3708,-1104,-411,0
3738,-1111,-426,0
3762,-1119,-461,0
3775,-1142,-504,0
3775,-1165,-551,0
3768,-1190,-591,0
3759,-1224,-612,0
3754,-1257,-625,0
3746,-1263,-629,0
3747,-1271,-623,0
3751,-1269,-603,0
3754,-1256,-581,0
3754,-1252,-564,0
3746,-1253,-565,0
3724,-1263,-585,0
3694,-1280,-617,0
3659,-1310,-660,0
3628,-1366,-691,0
3596,-1413,-714,0
3559,-1449,-721,0
3528,-1477,-724,0
3511,-1490,-714,0
3499,-1505,-682,0
3492,-1505,-665,0
3494,-1491,-647,0
3507,-1476,-630,0
3535,-1463,-620,0
3563,-1446,-611,0
3585,-1433,-615,0
3603,-1440,-626,0
3614,-1444,-632,0
3632,-1454,-630,0
3649,-1462,-620,0
3666,-1451,-610,0
3686,-1431,-594,0
3700,-1399,-565,0
3715,-1343,-528,0
3734,-1284,-506,0
3744,-1243,-508,0
3736,-1205,-535,0
3723,-1191,-563,0
3711,-1198,-579,0
3696,-1224,-599,0
3687,-1268,-626,0
3669,-1306,-654,0
3654,-1342,-680,0
3638,-1369,-687,0
3629,-1391,-679,0
3628,-1412,-659,0
3634,-1431,-641,0
3633,-1442,-640,0
3633,-1451,-640,0
3620,-1445,-636,0
3602,-1441,-629,0
3573,-1445,-640,0
3539,-1441,-648,0
3496,-1444,-670,0
3455,-1438,-684,0
3419,-1432,-696,0
3389,-1421,-705,0
3366,-1403,-715,0
3354,-1386,-716,0
3340,-1373,-705,0
3334,-1344,-695,0
3353,-1320,-663,0
3397,-1309,-624,0
3471,-1317,-587,0
3547,-1335,-576,0
3618,-1362,-582,0
3681,-1403,-602,0
3731,-1462,-627,0
3761,-1520,-649,0
3774,-1564,-644,0
3765,-1600,-628,0
3737,-1642,-620,0
3687,-1665,-630,0
3611,-1686,-654,0
3512,-1693,-700,0
3406,-1684,-746,0
3315,-1681,-776,0
3230,-1681,-790,0
3177,-1701,-780,0
3157,-1725,-760,0
3167,-1745,-724,0
3208,-1757,-679,0
3264,-1769,-638,0
3334,-1776,-612,0
3407,-1772,-608,0
3470,-1758,-622,0
3520,-1743,-646,0
3555,-1720,-682,0
3577,-1687,-720,0
3598,-1645,-733,0
3620,-1597,-739,0
3643,-1564,-757,0
3666,-1549,-784,0
3674,-1560,-836,0
3658,-1599,-906,0
3616,-1634,-970,0
3579,-1676,-1012,0
3547,-1733,-1028,0
3523,-1780,-1020,0
3515,-1807,-980,0
3529,-1827,-919,0
3552,-1818,-852,0
3578,-1796,-806,0
3606,-1781,-789,0
3637,-1765,-798,0
3644,-1721,-814,0
3640,-1674,-821,0
3628,-1625,-822,0
3606,-1578,-830,0
3590,-1553,-848,0
3566,-1517,-856,0
3545,-1486,-854,0
3533,-1461,-847,0
3526,-1459,-837,0
3529,-1475,-828,0
3555,-1502,-827,0
3592,-1528,-825,0
3632,-1540,-820,0
3683,-1548,-820,0
3751,-1562,-805,0
3814,-1549,-788,0
3899,-1584,-786,0
3966,-1617,-807,0
4020,-1644,-830,0
4048,-1663,-852,0
4054,-1664,-866,0
4047,-1672,-869,0
4035,-1673,-864,0
4015,-1669,-855,0
4004,-1668,-841,0
4022,-1665,-805,0
4061,-1665,-769,0
4119,-1651,-721,0
4194,-1641,-668,0
4290,-1632,-612,0
4382,-1616,-575,0
4470,-1592,-545,0
4543,-1562,-539,0
4597,-1535,-536,0
4636,-1491,-535,0
4670,-1437,-523,0
4698,-1395,-520,0
4721,-1357,-507,0
4750,-1319,-465,0
4789,-1294,-407,0
4831,-1281,-345,0
4888,-1267,-286,0
4952,-1285,-217,0
5008,-1305,-142,0
5052,-1315,-68,0
5079,-1312,-7,0
5120,-1307,63,0
5165,-1286,140,0
5225,-1260,209,0
5287,-1230,285,0
5341,-1224,351,0
5379,-1231,384,0
5414,-1250,393,0
5429,-1277,397,0
5437,-1316,396,0
5457,-1348,392,0
5479,-1383,397,0
5508,-1404,411,0
5528,-1413,433,0
5527,-1395,460,0
5511,-1374,482,0
5495,-1342,511,0
5470,-1272,571,0
5433,-1213,629,0
5390,-1162,677,0
5341,-1107,727,0
5271,-1040,758,0
5190,-987,760,0
5102,-921,758,0
5006,-855,737,0
4918,-794,719,0
4820,-729,711,0
4713,-649,702,0
4588,-557,689,0
4451,-481,688,0
4319,-411,709,0
4184,-345,723,0
4031,-280,738,0
3885,-241,770,0
3734,-230,777,0
3595,-223,755,0
3465,-220,759,0
3351,-196,762,0
3263,-166,771,0
3213,-138,778,0
3177,-119,772,0
3159,-130,751,0
3148,-168,738,0
3167,-234,731,0
3203,-305,727,0
3258,-361,714,0
3321,-424,708,0
3386,-484,698,0
3451,-523,691,0
3511,-555,679,0
3573,-577,665,0
3626,-576,681,0
3665,-576,708,0
3688,-571,751,0
3699,-560,784,0
3680,-545,798,0
3642,-526,791,0
3600,-493,782,0
3542,-447,793,0
3488,-414,817,0
3461,-388,858,0
3468,-374,915,0
3510,-378,955,0
3569,-405,981,0
3637,-449,987,0
3715,-507,986,0
3807,-582,982,0
3895,-650,981,0
3970,-718,982,0
4046,-782,965,0
4129,-839,950,0
4211,-872,948,0
4278,-895,952,0
4339,-917,949,0
4399,-925,948,0
4450,-906,967,0
4474,-877,991,0
4478,-838,1024,0
4464,-805,1040,0
4426,-763,1057,0
4370,-722,1081,0
4293,-692,1094,0
4210,-662,1091,0
4128,-633,1097,0
4048,-612,1100,0
3970,-594,1115,0
3901,-588,1122,0
3845,-579,1130,0
3807,-579,1137,0
3753,-547,1131,0
3740,-565,1136,0
3753,-599,1131,0
3774,-649,1103,0
3807,-708,1054,0
3814,-725,1045,0
3821,-750,1054,0
3839,-799,1037,0
3864,-852,1005,0
3888,-884,976,0
3905,-908,959,0
3913,-924,946,0
3916,-927,937,0
3904,-929,931,0
3890,-902,934,0
3881,-859,945,0
3859,-822,959,0
3826,-767,980,0
3802,-730,1003,0
3778,-700,1012,0
3747,-685,1014,0
3722,-677,1013,0
3705,-680,1010,0
3685,-674,1020,0
3677,-669,1032,0
3680,-656,1046,0
3693,-643,1067,0
3715,-633,1081,0
3747,-629,1104,0
3776,-622,1122,0
3804,-620,1130,0
3836,-628,1130,0
3862,-630,1137,0
3882,-625,1147,0
3895,-616,1158,0
3908,-613,1175,0
3908,-597,1186,0
3911,-577,1198,0
3921,-575,1199,0
3921,-562,1201,0
3919,-531,1216,0
3912,-510,1229,0
3908,-496,1230,0
3903,-491,1231,0
3897,-494,1226,0
3889,-478,1225,0
3875,-470,1227,0
3864,-467,1217,0
3858,-476,1208,0
3849,-481,1199,0
3845,-482,1190,0
3846,-487,1187,0
3849,-490,1188,0
3858,-496,1190,0
3867,-505,1191,0
3874,-514,1197,0
3879,-514,1198,0
3885,-528,1191,0
3889,-547,1184,0
3899,-559,1181,0
3906,-564,1178,0
3911,-562,1172,0
3928,-577,1183,0
3934,-592,1184,0
3936,-585,1186,0
3940,-578,1178,0
3933,-577,1174,0
3938,-585,1160,0
3930,-574,1166,0
3918,-544,1177,0
3914,-518,1186,0
3914,-507,1188,0
3909,-486,1192,0
3924,-484,1195,0
3917,-471,1187,0
3914,-452,1181,0
3915,-447,1171,0
3913,-442,1163,0
3917,-437,1166,0
3918,-436,1158,0
3927,-439,1153,0
3934,-448,1152,0
3937,-457,1155,0
3943,-458,1154,0
3942,-453,1159,0
3939,-461,1157,0
3930,-463,1157,0
3923,-460,1159,0
3913,-463,1153,0
3910,-456,1161,0
3899,-444,1167,0
3898,-444,1166,0
3894,-455,1161,0
3894,-447,1165,0
3892,-429,1171,0
3906,-462,1160,0
3905,-456,1164,0
3896,-440,1177,0
3894,-438,1176,0
3892,-449,1178,0
3892,-444,1179,0
3894,-442,1178,0
3900,-440,1184,0
3907,-429,1190,0
3920,-444,1192,0
3918,-432,1189,0
3915,-419,1197,0
3916,-408,1196,0
3912,-409,1193,0
3914,-419,1185,0
3917,-434,1176,0
3916,-442,1169,0
3920,-447,1170,0
3922,-450,1170,0
3930,-451,1170,0
3934,-457,1165,0
3946,-483,1159,0
3937,-474,1157,0
3928,-455,1161,0
3922,-441,1166,0
3917,-439,1167,0
3911,-447,1167,0
3905,-454,1168,0
3903,-460,1175,0
3903,-465,1182,0
3903,-467,1189,0
3903,-475,1189,0
3901,-474,1189,0
3902,-472,1187,0
3899,-476,1184,0
3905,-481,1181,0
3909,-486,1180,0
3930,-519,1171,0
3927,-512,1173,0
3922,-490,1171,0
3921,-480,1167,0
3917,-487,1164,0
3913,-500,1156,0
3908,-508,1150,0
3909,-508,1149,0
3913,-505,1154,0
3923,-508,1158,0
3928,-507,1165,0
3933,-505,1168,0
3927,-505,1165,0
3922,-503,1161,0
3916,-500,1154,0
3909,-495,1148,0
3914,-506,1141,0
3904,-504,1138,0
3888,-495,1142,0
3882,-483,1152,0
3879,-490,1150,0
3878,-502,1149,0
3876,-518,1143,0
3878,-528,1139,0
3879,-529,1146,0
3883,-535,1157,0
3884,-540,1160,0
3882,-539,1165,0
3878,-542,1163,0
3875,-539,1165,0
3876,-544,1162,0
3873,-548,1157,0
3868,-541,1160,0
3869,-542,1163,0
3867,-538,1164,0
3869,-539,1160,0
3875,-544,1156,0
3880,-547,1152,0
3885,-557,1152,0
3894,-560,1146,0
3904,-559,1148,0
3913,-561,1147,0
3920,-560,1142,0
3926,-561,1141,0
3927,-561,1141,0
3932,-555,1141,0
3925,-556,1132,0
3919,-555,1131,0
3913,-552,1135,0
3908,-550,1135,0
3903,-541,1134,0
3897,-539,1127,0
3908,-556,1120,0
3902,-554,1115,0
3893,-513,1121,0
3888,-494,1128,0
3890,-497,1133,0
3891,-506,1126,0
3888,-513,1118,0
3889,-513,1114,0
3888,-512,1117,0
3894,-515,1121,0
3899,-517,1127,0
3907,-517,1119,0
3915,-536,1111,0
3916,-543,1111,0
3915,-534,1122,0
3919,-526,1117,0
3920,-529,1117,0
3917,-531,1112,0
3917,-528,1111,0
3921,-527,1109,0
3919,-529,1105,0
3918,-519,1114,0
3934,-545,1108,0
3924,-530,1099,0
3911,-494,1106,0
3908,-478,1109,0
3908,-482,1108,0
3911,-477,1106,0
3890,-437,1133,0
3909,-488,1099,0
3925,-516,1083,0
3923,-500,1092,0
3921,-491,1093,0
3922,-478,1101,0
3928,-480,1104,0
3923,-481,1105,0
3921,-475,1105,0
3920,-480,1104,0
3920,-482,1100,0
3932,-513,1088,0
3936,-509,1091,0
3938,-482,1100,0
3938,-461,1110,0
3927,-445,1121,0
3940,-485,1094,0
3953,-514,1080,0
3947,-497,1082,0
3942,-474,1085,0
3941,-481,1084,0
3937,-482,1084,0
3931,-486,1084,0
3929,-492,1079,0
3929,-484,1082,0
3927,-474,1095,0
3930,-466,1105,0
3933,-474,1105,0
3935,-479,1101,0
3938,-472,1099,0
3945,-471,1099,0
3947,-476,1095,0
3943,-471,1091,0
3940,-462,1098,0
3937,-473,1102,0
3935,-502,1086,0
3927,-489,1081,0
3922,-492,1094,0
3918,-499,1104,0
3919,-510,1099,0
3921,-522,1089,0
3919,-505,1106,0
3922,-499,1122,0
3920,-498,1129,0
3916,-507,1119,0
3911,-497,1117,0
3913,-491,1127,0
3908,-497,1125,0
3908,-490,1129,0
3912,-487,1128,0
3910,-474,1135,0
3911,-481,1127,0
3909,-484,1118,0
3909,-488,1107,0
3911,-503,1098,0
3918,-513,1098,0
3918,-506,1108,0
3921,-490,1128,0
3930,-502,1138,0
3924,-507,1139,0
3919,-523,1130,0
3910,-523,1125,0
3911,-525,1128,0
3912,-518,1136,0
3912,-509,1135,0
3915,-504,1139,0
3913,-495,1139,0
3912,-490,1136,0
3913,-494,1131,0
3915,-487,1128,0
3922,-499,1136,0
3915,-465,1141,0
3911,-463,1130,0
3913,-472,1114,0
3920,-496,1111,0
3920,-502,1113,0
3928,-507,1113,0
3924,-513,1113,0
3921,-518,1118,0
3922,-516,1116,0
3920,-522,1115,0
3916,-527,1107,0
3915,-531,1104,0
3915,-533,1103,0
3912,-530,1099,0
3914,-525,1103,0
3910,-526,1104,0
3910,-539,1103,0
3902,-547,1093,0
3906,-539,1109,0
3885,-478,1162,0
3914,-551,1126,0
3936,-613,1118,0
3907,-549,1138,0
3895,-518,1151,0
3889,-536,1137,0
3877,-552,1127,0
3874,-562,1122,0
3866,-567,1114,0
3870,-572,1111,0
3875,-572,1108,0
3879,-568,1106,0
3891,-558,1115,0
3892,-557,1112,0
3893,-553,1104,0
3902,-556,1096,0
3918,-578,1089,0
3925,-560,1096,0
3931,-536,1093,0
3935,-520,1094,0
3942,-515,1099,0
3947,-512,1101,0
3946,-502,1106,0
3948,-491,1105,0
3949,-482,1108,0
3949,-473,1108,0
3944,-466,1111,0
3935,-467,1108,0
3937,-457,1117,0
3942,-456,1126,0
3944,-461,1130,0
3942,-467,1128,0
3935,-471,1127,0
3927,-480,1121,0
3921,-490,1119,0
3916,-500,1116,0
3911,-513,1118,0
3908,-522,1119,0
3906,-536,1120,0
3906,-544,1122,0
3906,-552,1121,0
3907,-560,1115,0
3907,-564,1117,0
3911,-565,1118,0
3909,-568,1123,0
3910,-569,1127,0
3908,-564,1132,0
3907,-563,1132,0
3906,-558,1132,0
3900,-553,1137,0
3898,-551,1140,0
3898,-543,1141,0
3895,-540,1141,0
3892,-535,1143,0
3888,-539,1142,0
3884,-537,1139,0
3884,-539,1143,0
3880,-540,1143,0
3882,-543,1143,0
3884,-549,1144,0
3883,-552,1145,0
3886,-555,1146,0
3886,-558,1147,0
3886,-561,1146,0
3889,-562,1143,0
3894,-569,1147,0
3896,-571,1144,0
3894,-574,1143,0
3894,-574,1142,0
3889,-573,1143,0
3886,-573,1143,0
3888,-571,1141,0
3892,-567,1144,0
3894,-562,1143,0
3901,-558,1144,0
3905,-560,1145,0
3908,-552,1145,0
3909,-553,1144,0
3910,-558,1141,0
3907,-563,1135,0
3903,-559,1131,0
3901,-561,1133,0
3903,-556,1142,0
3907,-547,1148,0
3907,-542,1154,0
3900,-545,1151,0
3896,-539,1149,0
3896,-522,1155,0
3900,-515,1161,0
3901,-514,1159,0
3905,-514,1156,0
3907,-509,1155,0
3909,-503,1158,0
3910,-505,1157,0
3910,-502,1161,0
3908,-499,1160,0
3909,-502,1158,0
3907,-507,1153,0
3903,-510,1150,0
3903,-523,1149,0
3904,-527,1145,0
3904,-532,1148,0
3904,-535,1151,0
3903,-540,1156,0
3900,-539,1157,0
3902,-540,1164,0
3895,-543,1167,0
3891,-542,1164,0
3890,-542,1164,0
3886,-544,1167,0
3886,-544,1171,0
3883,-539,1171,0
3880,-537,1175,0
3884,-535,1178,0
3882,-529,1177,0
3881,-531,1172,0
3879,-531,1165,0
3879,-530,1161,0
3882,-523,1159,0
3884,-520,1159,0
3883,-521,1161,0
3885,-520,1161,0
3888,-520,1163,0
3890,-523,1169,0
3897,-530,1175,0
3904,-533,1177,0
3909,-535,1176,0
3913,-538,1176,0
3914,-539,1170,0
3917,-538,1164,0
3915,-544,1163,0
3915,-548,1157,0
3914,-554,1151,0
3913,-563,1150,0
3911,-569,1148,0
3912,-574,1144,0
3912,-580,1143,0
3915,-582,1148,0
3915,-577,1150,0
3911,-573,1154,0
3903,-567,1161,0
3894,-559,1164,0
3889,-554,1161,0
3884,-545,1159,0
3878,-537,1155,0
3878,-532,1153,0
3880,-526,1155,0
3876,-520,1154,0
3877,-523,1155,0
3882,-526,1159,0
3879,-529,1158,0
3880,-533,1158,0
3880,-541,1161,0
3882,-545,1159,0
3882,-551,1159,0
3887,-555,1158,0
3887,-560,1160,0
3893,-556,1167,0
3897,-555,1168,0
3902,-556,1168,0
3904,-555,1167,0
3907,-554,1165,0
3905,-556,1167,0
3901,-556,1165,0
3903,-550,1165,0
3897,-547,1165,0
3893,-546,1163,0
3891,-543,1164,0
3886,-542,1164,0
3883,-542,1171,0
3880,-543,1170,0
3882,-546,1172,0
3883,-548,1175,0
3883,-549,1177,0
3882,-547,1178,0
3885,-548,1179,0
3894,-551,1181,0
3894,-551,1181,0
3896,-550,1182,0
3903,-548,1182,0
3898,-545,1177,0
3895,-544,1177,0
3892,-544,1175,0
3889,-546,1176,0
3888,-546,1175,0
3886,-542,1177,0
3886,-539,1177,0
3889,-542,1178,0
3892,-544,1176,0
3892,-547,1172,0
3893,-550,1170,0
3892,-552,1168,0
3890,-554,1167,0
3889,-558,1167,0
3893,-557,1169,0
3895,-554,1174,0
3898,-559,1177,0
3898,-561,1177,0
3892,-557,1176,0
3890,-560,1175,0
3886,-559,1172,0
3886,-557,1170,0
3884,-550,1170,0
3885,-549,1170,0
3884,-549,1170,0
3885,-548,1172,0
3885,-543,1172,0
3886,-543,1171,0
3887,-541,1167,0
3885,-543,1166,0
3885,-545,1163,0
3886,-544,1163,0
3884,-547,1165,0
3887,-548,1164,0
3888,-549,1168,0
3886,-549,1170,0
3894,-550,1167,0
3896,-551,1167,0
3896,-551,1172,0
3892,-554,1168,0
3891,-554,1169,0
3893,-551,1170,0
3893,-550,1171,0
3893,-550,1166,0
3894,-550,1165,0
3891,-548,1167,0
3890,-553,1166,0
3891,-552,1161,0
3891,-552,1164,0
3890,-550,1166,0
3893,-551,1172,0
3894,-555,1169,0
3895,-556,1167,0
3894,-559,1170,0
3898,-562,1169,0
3898,-561,1169,0
3901,-557,1169,0
3896,-555,1167,0
3898,-561,1164,0
3898,-558,1163,0
3897,-554,1159,0
3896,-555,1163,0
3891,-554,1163,0
3893,-552,1166,0
3896,-551,1169,0
3898,-551,1170,0
3898,-549,1174,0
3897,-547,1176,0
3899,-549,1176,0
3899,-550,1175,0
3895,-547,1179,0
3893,-543,1183,0
3892,-545,1182,0
3887,-546,1180,0
3884,-542,1175,0
3886,-544,1176,0
3883,-545,1176,0
3899,-573,1173,0
3893,-556,1178,0
3890,-531,1177,0
3890,-523,1173,0
3887,-531,1174,0
3890,-537,1179,0
3897,-543,1178,0
3896,-541,1183,0
3901,-542,1184,0
3901,-543,1179,0
3900,-540,1180,0
3900,-542,1180,0
3898,-541,1180,0
3894,-542,1179,0
3895,-542,1178,0
3897,-541,1180,0
3897,-538,1184,0
3896,-541,1185,0
3899,-540,1186,0
3893,-537,1183,0
3888,-539,1182,0
3887,-539,1178,0
3885,-542,1175,0
3882,-540,1173,0
3878,-540,1172,0
3876,-544,1168,0
3875,-550,1164,0
3879,-551,1164,0
3879,-553,1168,0
3884,-554,1177,0
3888,-549,1183,0
3889,-548,1186,0
3895,-544,1186,0
3900,-544,1187,0
3903,-541,1184,0
3906,-539,1180,0
3912,-536,1181,0
3917,-534,1179,0
3922,-541,1177,0
3921,-547,1174,0
3925,-555,1171,0
3923,-562,1162,0
3921,-567,1162,0
3921,-570,1169,0
3918,-569,1172,0
3912,-570,1179,0
3902,-567,1179,0
3896,-558,1183,0
3893,-553,1186,0
3882,-547,1186,0
3882,-542,1185,0
3874,-535,1180,0
3872,-526,1177,0
3871,-526,1176,0
3871,-519,1175,0
3867,-516,1175,0
3864,-519,1178,0
3865,-523,1182,0
3870,-527,1185,0
3873,-535,1188,0
3879,-545,1189,0
3879,-550,1190,0
3885,-555,1191,0
3887,-554,1189,0
3889,-550,1192,0
3892,-550,1194,0
3890,-553,1189,0
3893,-556,1187,0
3890,-554,1185,0
3889,-552,1185,0
3889,-551,1186,0
3885,-548,1186,0
3892,-550,1185,0
3893,-553,1189,0
3891,-557,1189,0
3888,-556,1192,0
3885,-552,1192,0
3883,-553,1192,0
3883,-553,1192,0
3884,-553,1192,0
3883,-554,1191,0
3882,-556,1187,0
3881,-556,1187,0
3883,-560,1186,0
3892,-562,1184,0
3898,-561,1179,0
3899,-554,1176,0
3902,-554,1178,0
3902,-554,1178,0
3902,-550,1180,0
3898,-548,1178,0
3898,-549,1180,0
3897,-551,1180,0
3898,-550,1183,0
3899,-556,1184,0
3896,-555,1181,0
3890,-554,1179,0
3889,-552,1177,0
3888,-554,1179,0
3884,-553,1176,0
3881,-552,1178,0
3882,-552,1179,0
3885,-556,1177,0
3884,-555,1177,0
3885,-554,1181,0
3887,-551,1179,0
3884,-554,1183,0
3886,-553,1186,0
3885,-552,1186,0
3884,-549,1185,0
3883,-549,1189,0
3884,-547,1187,0
3887,-547,1189,0
3886,-543,1188,0
3885,-542,1189,0
3887,-537,1191,0
3888,-540,1191,0
3890,-543,1191,0
3892,-546,1191,0
3892,-548,1188,0
3891,-549,1186,0
3892,-550,1183,0
3891,-550,1184,0
3892,-548,1183,0
3895,-546,1180,0
3895,-549,1183,0
3893,-550,1182,0
3893,-547,1184,0
3892,-547,1183,0
3891,-551,1183,0
3888,-546,1185,0
3888,-547,1186,0
3888,-547,1183,0
3887,-549,1178,0
3887,-549,1179,0
3888,-548,1179,0
3885,-551,1179,0
3883,-549,1179,0
3883,-549,1180,0
3884,-549,1182,0
3887,-551,1181,0
3887,-551,1180,0
3887,-555,1178,0
3885,-555,1180,0
3887,-555,1179,0
3889,-558,1178,0
3889,-561,1183,0
3888,-561,1182,0
3893,-564,1181,0
3904,-586,1176,0
3901,-590,1176,0
3888,-548,1180,0
3888,-544,1187,0
3885,-555,1187,0
3883,-563,1182,0
3882,-561,1181,0
3881,-559,1183,0
3883,-554,1188,0
3886,-555,1185,0
3889,-551,1188,0
3890,-550,1192,0
3889,-552,1187,0
3890,-552,1188,0
3887,-552,1190,0
3888,-549,1191,0
3891,-553,1193,0
3887,-547,1192,0
3887,-549,1192,0
3888,-552,1191,0
3887,-552,1190,0
3887,-552,1188,0
3885,-551,1190,0
3882,-553,1189,0
3883,-552,1187,0
3884,-551,1191,0
3885,-555,1193,0
3885,-553,1191,0
3887,-553,1190,0
3886,-555,1188,0
3887,-555,1184,0
3885,-551,1185,0
3887,-552,1187,0
3885,-553,1187,0
3884,-550,1186,0
3885,-548,1189,0
3887,-544,1191,0
3888,-543,1190,0
3888,-545,1186,0
3889,-549,1182,0
3887,-551,1181,0
3888,-552,1182,0
3889,-556,1184,0
3890,-552,1182,0
3887,-552,1185,0
3885,-552,1184,0
3888,-558,1183,0
3896,-585,1182,0
3886,-549,1191,0
3883,-536,1195,0
3882,-540,1190,0
3883,-550,1183,0
3884,-549,1188,0
3885,-549,1192,0
3888,-548,1196,0
3894,-554,1190,0
3896,-551,1181,0
3894,-549,1180,0
3894,-551,1173,0
3895,-550,1172,0
3893,-551,1169,0
3891,-556,1169,0
3891,-557,1167,0
3890,-559,1175,0
3894,-562,1182,0
3892,-567,1184,0
3902,-595,1190,0
3902,-567,1195,0
3890,-555,1193,0
3890,-532,1192,0
3888,-531,1186,0
3889,-542,1177,0
3892,-547,1176,0
3898,-547,1173,0
3903,-556,1172,0
3913,-561,1166,0
3918,-570,1166,0
3914,-574,1162,0
3913,-576,1163,0
3912,-575,1169,0
3908,-570,1172,0
3901,-568,1179,0
3897,-569,1182,0
3908,-602,1170,0
3901,-593,1162,0
3884,-552,1163,0
3873,-520,1171,0
3862,-517,1169,0
3854,-521,1164,0
3851,-525,1163,0
3856,-528,1163,0
3860,-538,1166,0
3870,-545,1171,0
3877,-555,1172,0
3881,-554,1178,0
3883,-560,1179,0
3883,-560,1176,0
3885,-560,1173,0
3888,-561,1176,0
3893,-563,1176,0
3895,-562,1171,0
3895,-561,1172,0
3898,-561,1172,0
3902,-561,1171,0
3904,-557,1172,0
3916,-587,1159,0
3925,-588,1152,0
3909,-555,1158,0
3906,-530,1170,0
3904,-525,1178,0
3899,-536,1179,0
3892,-547,1170,0
3890,-551,1165,0
3888,-557,1168,0
3890,-559,1168,0
3889,-558,1165,0
3890,-557,1164,0
3889,-557,1163,0
3893,-554,1157,0
3894,-554,1155,0
3893,-552,1152,0
3895,-552,1153,0
3897,-552,1152,0
3892,-552,1149,0
3889,-552,1147,0
3890,-550,1149,0
3892,-552,1151,0
3906,-571,1149,0
3909,-570,1146,0
3898,-544,1152,0
3896,-527,1165,0
3895,-532,1168,0
3897,-543,1163,0
3894,-550,1155,0
3893,-549,1154,0
3894,-553,1157,0
3900,-552,1161,0
3905,-554,1166,0
3908,-548,1164,0
3909,-545,1163,0
3911,-544,1159,0
3909,-545,1156,0
3908,-544,1156,0
3906,-541,1155,0
3906,-538,1154,0
3903,-538,1153,0
3902,-534,1151,0
3898,-535,1152,0
3899,-532,1154,0
3901,-532,1152,0
3903,-543,1146,0
3911,-563,1146,0
3899,-534,1152,0
3891,-517,1163,0
3891,-510,1163,0
3893,-519,1161,0
3890,-529,1153,0
3890,-531,1148,0
3893,-530,1147,0
3895,-530,1151,0
3900,-530,1153,0
3900,-532,1153,0
3900,-535,1150,0
3899,-534,1150,0
3903,-535,1148,0
3906,-541,1145,0
3906,-540,1141,0
3904,-543,1140,0
3904,-546,1136,0
3905,-544,1136,0
3908,-542,1138,0
3903,-541,1141,0
3902,-544,1142,0
3900,-547,1147,0
3901,-547,1146,0
3904,-545,1148,0
3905,-547,1148,0
3903,-548,1148,0
3904,-547,1145,0
3903,-545,1144,0
3902,-548,1140,0
3902,-546,1139,0
3905,-546,1139,0
3903,-543,1136,0
3906,-544,1138,0
3910,-540,1136,0
3910,-538,1137,0
3909,-540,1135,0
3905,-541,1136,0
3906,-541,1135,0
3908,-539,1141,0
3909,-537,1144,0
3907,-536,1140,0
3907,-535,1138,0
3906,-536,1136,0
3908,-539,1141,0
3907,-538,1145,0
3909,-537,1144,0
3910,-538,1145,0
3911,-542,1145,0
3907,-545,1141,0
3903,-547,1139,0
3908,-544,1136,0
3907,-538,1134,0
3907,-539,1136,0
3907,-539,1139,0
3905,-538,1139,0
3905,-536,1138,0
3906,-536,1139,0
3904,-534,1138,0
3902,-534,1134,0
3908,-531,1135,0
3908,-529,1138,0
3904,-530,1145,0
3908,-528,1146,0
3906,-530,1145,0
3908,-528,1143,0
3909,-530,1142,0
3911,-534,1140,0
3912,-534,1134,0
3913,-536,1136,0
3912,-536,1132,0
3912,-540,1133,0
3913,-541,1133,0
3910,-544,1133,0
3906,-544,1133,0
3905,-544,1135,0
3903,-542,1137,0
3901,-543,1140,0
3895,-542,1139,0
3896,-541,1137,0
3895,-537,1136,0
3896,-537,1138,0
3896,-533,1144,0
3900,-529,1145,0
3906,-524,1143,0
3907,-523,1138,0
3908,-527,1136,0
3906,-531,1128,0
3910,-530,1123,0
3914,-533,1124,0
3913,-536,1127,0
3912,-535,1133,0
3909,-536,1137,0
3903,-538,1142,0
3903,-538,1146,0
3905,-538,1148,0
3908,-534,1149,0
3913,-535,1153,0
3912,-541,1153,0
3909,-536,1153,0
3910,-533,1153,0
3904,-535,1154,0
3904,-537,1151,0
3903,-539,1153,0
3905,-545,1150,0
3911,-547,1146,0
3913,-550,1141,0
3910,-554,1142,0
3909,-553,1141,0
3910,-552,1142,0
3911,-550,1147,0
3908,-540,1155,0
3904,-539,1159,0
3899,-537,1157,0
3894,-534,1151,0
3891,-529,1149,0
3887,-532,1146,0
3882,-528,1145,0
3879,-525,1148,0
3883,-522,1145,0
3885,-524,1146,0
3885,-527,1148,0
3883,-530,1149,0
3887,-534,1148,0
3891,-542,1148,0
3894,-549,1151,0
3897,-554,1158,0
3899,-556,1158,0
3901,-555,1162,0
3902,-553,1161,0
3905,-550,1159,0
3902,-549,1159,0
3902,-546,1158,0
3901,-545,1156,0
3901,-544,1155,0
3897,-545,1154,0
3902,-543,1158,0
3901,-541,1161,0
3903,-543,1164,0
3901,-543,1164,0
3901,-541,1165,0
3901,-542,1166,0
3899,-538,1168,0
3897,-542,1166,0
3900,-543,1163,0
3900,-541,1160,0
3900,-540,1159,0
3898,-543,1160,0
3896,-546,1158,0
3895,-548,1160,0
3895,-546,1162,0
3897,-540,1162,0
3897,-537,1158,0
3893,-537,1158,0
3893,-535,1156,0
3895,-536,1154,0
3890,-533,1153,0
3888,-538,1154,0
3889,-541,1158,0
3891,-540,1157,0
3889,-539,1157,0
3891,-541,1158,0
3892,-544,1158,0
3895,-543,1159,0
3899,-543,1158,0
3898,-546,1161,0
3899,-542,1161,0
3898,-535,1163,0
3899,-536,1165,0
3902,-534,1166,0
3901,-536,1165,0
3898,-537,1166,0
3898,-538,1167,0
3896,-542,1165,0
3893,-538,1167,0
3891,-537,1165,0
3895,-536,1166,0
3896,-536,1173,0
3895,-540,1174,0
3894,-543,1176,0
3897,-547,1174,0
3895,-548,1176,0
3901,-546,1176,0
3903,-542,1174,0
3901,-542,1174,0
3899,-541,1171,0
3894,-542,1165,0
3898,-541,1164,0
3898,-538,1164,0
3894,-535,1165,0
3896,-539,1163,0
3895,-542,1165,0
3898,-544,1159,0
3898,-543,1159,0
3896,-538,1160,0
3892,-540,1161,0
3894,-544,1163,0
3893,-545,1168,0
3894,-544,1169,0
3899,-544,1169,0
3897,-545,1172,0
3897,-542,1172,0
3892,-539,1171,0
3891,-541,1173,0
3891,-543,1173,0
3892,-542,1171,0
3887,-543,1172,0
3889,-541,1173,0
3892,-541,1177,0
3891,-540,1177,0
3895,-539,1177,0
3894,-537,1180,0
3893,-539,1179,0
3890,-537,1179,0
3890,-537,1176,0
3891,-543,1175,0
3892,-542,1176,0
3890,-542,1178,0
3889,-542,1177,0
3892,-542,1176,0
3891,-546,1178,0
3892,-543,1181,0
3894,-542,1182,0
3891,-543,1185,0
3897,-545,1186,0
3892,-548,1185,0
3891,-544,1184,0
3889,-543,1187,0
3888,-541,1189,0
3885,-542,1183,0
3882,-542,1182,0
3883,-542,1185,0
3883,-541,1185,0
3885,-537,1186,0
3889,-538,1183,0
3890,-540,1184,0
3890,-548,1182,0
3890,-546,1183,0
3891,-546,1179,0
3890,-545,1180,0
3892,-548,1179,0
3892,-548,1176,0
3893,-547,1178,0
3893,-546,1180,0
3894,-546,1182,0
3897,-549,1181,0
3894,-548,1179,0
3894,-545,1179,0
3889,-545,1180,0
3887,-548,1178,0
3888,-549,1177,0
3888,-548,1179,0
3888,-547,1179,0
3886,-547,1177,0
3890,-547,1175,0
3891,-544,1177,0
3891,-539,1177,0
3891,-541,1175,0
3889,-543,1177,0
3892,-542,1182,0
3891,-544,1181,0
3893,-546,1183,0
3891,-547,1181,0
3893,-545,1181,0
3895,-545,1182,0
3890,-541,1188,0
3890,-541,1194,0
3895,-543,1193,0
3894,-545,1187,0
3890,-542,1183,0
3889,-542,1181,0
3885,-540,1182,0
3886,-542,1185,0
3885,-544,1187,0
3885,-544,1190,0
3887,-547,1192,0
3890,-543,1197,0
3892,-544,1198,0
3893,-540,1197,0
3894,-540,1195,0
3894,-537,1192,0
3892,-537,1190,0
3900,-536,1188,0
3902,-534,1189,0
3903,-541,1191,0
3906,-547,1185,0
3911,-551,1185,0
3910,-553,1181,0
3909,-554,1177,0
3906,-555,1178,0
3901,-553,1184,0
3899,-552,1188,0
3896,-556,1192,0
3896,-554,1195,0
3893,-550,1197,0
3887,-550,1193,0
3882,-546,1188,0
3877,-542,1189,0
3877,-537,1186,0
3871,-535,1184,0
3873,-534,1182,0
3873,-530,1185,0
3878,-530,1189,0
3877,-531,1196,0
3880,-534,1197,0
3879,-540,1192,0
3880,-542,1189,0
3882,-543,1192,0
3884,-544,1194,0
3887,-543,1192,0
3887,-543,1189,0
3887,-543,1190,0
3888,-545,1193,0
3888,-550,1197,0
3889,-551,1197,0
3888,-554,1195,0
3886,-551,1193,0
3885,-553,1196,0
3884,-556,1195,0
3881,-552,1200,0
3883,-550,1202,0
3880,-554,1201,0
3882,-553,1202,0
3881,-555,1203,0
3884,-552,1202,0
3886,-554,1202,0
3886,-554,1202,0
3883,-554,1205,0
3885,-555,1203,0
3885,-556,1202,0
3886,-551,1204,0
3888,-554,1202,0
3888,-551,1208,0
3888,-545,1207,0
3885,-546,1202,0
3883,-544,1196,0
3884,-543,1195,0
3882,-544,1195,0
3883,-541,1194,0
3882,-540,1194,0
3881,-544,1193,0
3884,-544,1195,0
3884,-545,1196,0
3883,-549,1193,0
3881,-551,1195,0
3882,-554,1200,0
3881,-554,1202,0
3882,-554,1203,0
3883,-555,1201,0
3883,-553,1203,0
3883,-552,1206,0
3883,-548,1211,0
3882,-550,1212,0
3882,-550,1210,0
3881,-547,1207,0
3879,-546,1204,0
3880,-542,1202,0
3879,-543,1202,0
3880,-543,1204,0
3880,-541,1206,0
3880,-543,1210,0
3882,-544,1211,0
3886,-544,1212,0
3886,-547,1206,0
3883,-548,1207,0
3883,-547,1208,0
3883,-548,1208,0
3888,-549,1205,0
3889,-545,1207,0
3892,-545,1204,0
3890,-548,1205,0
3892,-547,1202,0
3886,-549,1198,0
3886,-549,1199,0
3887,-549,1196,0
3884,-550,1197,0
3884,-552,1195,0
3885,-548,1196,0
3884,-547,1199,0
3885,-549,1200,0
3884,-549,1198,0
3885,-551,1200,0
3888,-551,1203,0
3888,-552,1200,0
3890,-547,1201,0
3889,-553,1202,0
3884,-550,1204,0
3884,-553,1203,0
3880,-556,1202,0
3880,-558,1202,0
3880,-559,1205,0
3876,-560,1206,0
3876,-557,1209,0
3875,-557,1210,0
3876,-560,1211,0
3877,-559,1212,0
3877,-556,1212,0
3876,-552,1212,0
3873,-555,1208,0
3874,-553,1210,0
3876,-552,1208,0
3878,-553,1210,0
3879,-549,1212,0
3880,-550,1208,0
3884,-547,1210,0
3887,-548,1208,0
3886,-548,1210,0
3887,-548,1210,0
3886,-547,1212,0
3884,-541,1213,0
3884,-536,1219,0
3884,-546,1216,0
3888,-547,1217,0
3885,-547,1218,0
3881,-548,1220,0
3877,-545,1222,0
3876,-545,1219,0
3875,-549,1223,0
3874,-551,1221,0
3875,-550,1218,0
3874,-550,1216,0
3876,-549,1217,0
3875,-548,1219,0
3874,-546,1216,0
3877,-551,1217,0
3876,-551,1215,0
3872,-548,1216,0
3874,-548,1221,0
3878,-547,1220,0
3878,-546,1222,0
3880,-545,1223,0
3882,-543,1219,0
3882,-543,1219,0
3880,-544,1221,0
3879,-542,1220,0
3882,-541,1220,0
3886,-542,1216,0
3886,-543,1215,0
3885,-544,1217,0
3885,-549,1220,0
3881,-548,1213,0
3881,-547,1214,0
3879,-551,1215,0
3877,-555,1215,0
3873,-551,1215,0
3872,-552,1216,0
3877,-556,1221,0
3876,-556,1226,0
3877,-554,1221,0
3877,-554,1218,0
3874,-550,1217,0
3875,-543,1217,0
3874,-544,1214,0
3875,-542,1213,0
3880,-540,1212,0
3884,-541,1213,0
3884,-543,1213,0
3881,-546,1221,0
3882,-545,1228,0
3882,-545,1231,0
3884,-545,1234,0
3884,-542,1235,0
3883,-541,1240,0
3883,-541,1234,0
3882,-544,1231,0
3887,-541,1231,0
3887,-543,1229,0
3887,-543,1224,0
3887,-550,1223,0
3888,-556,1218,0
3886,-561,1218,0
3886,-563,1215,0
3886,-564,1215,0
3883,-562,1218,0
3884,-556,1225,0
3881,-552,1225,0
3878,-546,1226,0
3877,-543,1229,0
3876,-539,1229,0
3869,-530,1225,0
3866,-525,1222,0
3865,-520,1217,0
3861,-518,1214,0
3856,-518,1213,0
3859,-516,1215,0
3859,-520,1216,0
3860,-524,1218,0
3859,-529,1220,0
3859,-533,1222,0
3861,-539,1224,0
3863,-546,1224,0
3868,-548,1225,0
3875,-550,1228,0
3877,-552,1230,0
3879,-552,1229,0
3877,-554,1227,0
3879,-557,1224,0
3877,-560,1223,0
3879,-561,1222,0
3881,-558,1224,0
3882,-560,1227,0
3883,-560,1224,0
3881,-560,1223,0
3881,-556,1226,0
3880,-555,1223,0
3879,-553,1223,0
3879,-550,1224,0
3876,-552,1226,0
3880,-553,1226,0
3876,-551,1226,0
3874,-552,1223,0
3877,-554,1223,0
3879,-553,1219,0
3882,-556,1219,0
3881,-558,1216,0
3877,-563,1214,0
3878,-562,1214,0
3881,-561,1212,0
3885,-557,1210,0
3887,-562,1213,0
3885,-562,1212,0
3884,-563,1211,0
3880,-560,1209,0
3880,-557,1212,0
3878,-557,1211,0
3878,-556,1212,0
3876,-555,1214,0
3871,-554,1213,0
3875,-554,1218,0
3872,-553,1220,0
3870,-553,1221,0
3870,-552,1222,0
3871,-550,1226,0
3872,-551,1225,0
3875,-551,1226,0
3877,-548,1223,0
3880,-545,1223,0
3880,-543,1222,0
3878,-539,1220,0
3878,-539,1219,0
3879,-540,1218,0
3879,-536,1221,0
3879,-542,1220,0
3881,-544,1219,0
3884,-543,1218,0
3884,-548,1215,0
3884,-552,1220,0
3881,-549,1222,0
3878,-549,1220,0
3879,-550,1218,0
3881,-551,1214,0
3882,-552,1213,0
3880,-551,1214,0
3882,-553,1215,0
3901,-619,1196,0
3889,-577,1194,0
3879,-526,1192,0
3878,-515,1196,0
3877,-534,1199,0
3868,-541,1200,0
3871,-546,1199,0
3872,-545,1198,0
3874,-543,1200,0
3880,-541,1201,0
3880,-544,1202,0
3881,-545,1199,0
3884,-547,1197,0
3883,-549,1194,0
3883,-549,1197,0
3882,-552,1197,0
3882,-559,1197,0
3884,-557,1198,0
3879,-556,1197,0
3881,-556,1202,0
3881,-556,1199,0
3880,-556,1199,0
3883,-559,1199,0
3884,-559,1201,0
3882,-555,1200,0
3885,-554,1199,0
3885,-554,1199,0
3887,-550,1201,0
3889,-547,1205,0
3884,-548,1206,0
3890,-560,1197,0
3895,-576,1197,0
3889,-544,1207,0
3887,-522,1215,0
3885,-519,1215,0
3885,-535,1207,0
3882,-541,1200,0
3882,-540,1192,0
3883,-542,1194,0
3884,-547,1194,0
3883,-548,1197,0
3885,-545,1200,0
3885,-548,1193,0
3881,-547,1192,0
3880,-548,1189,0
3882,-546,1189,0
3881,-548,1193,0
3882,-549,1196,0
3884,-552,1192,0
3882,-552,1191,0
3881,-553,1186,0
3884,-550,1189,0
3885,-548,1191,0
3887,-549,1190,0
3888,-547,1189,0
3891,-544,1188,0
3896,-543,1179,0
3894,-543,1177,0
3899,-543,1177,0
3901,-547,1176,0
3899,-548,1175,0
3898,-547,1175,0
3897,-543,1176,0
3896,-546,1177,0
3897,-545,1182,0
3896,-545,1182,0
3894,-544,1181,0
3891,-546,1180,0
3887,-545,1178,0
3887,-550,1173,0
3897,-570,1180,0
3884,-529,1190,0
3883,-512,1206,0
3887,-510,1204,0
3888,-519,1194,0
3889,-535,1172,0
3888,-535,1165,0
3889,-536,1163,0
3895,-543,1163,0
3899,-541,1169,0
3904,-543,1173,0
3902,-539,1178,0
3905,-539,1181,0
3903,-536,1187,0
3902,-535,1190,0
3901,-530,1190,0
3902,-531,1193,0
3902,-534,1195,0
3900,-535,1193,0
3898,-531,1192,0
3901,-529,1189,0
3904,-526,1187,0
3903,-527,1184,0
3904,-531,1180,0
3905,-537,1170,0
3903,-541,1166,0
3905,-540,1164,0
3906,-543,1162,0
3899,-540,1162,0
3896,-542,1167,0
3898,-540,1168,0
3896,-534,1169,0
3893,-530,1169,0
3889,-528,1168,0
3886,-528,1167,0
3885,-525,1165,0
3884,-529,1161,0
3883,-528,1161,0
3882,-527,1162,0
3880,-527,1161,0
3880,-532,1162,0
3881,-533,1163,0
3882,-537,1162,0
3886,-542,1165,0
3890,-541,1167,0
3896,-541,1168,0
3895,-539,1167,0
3894,-539,1170,0
3898,-543,1173,0
3900,-541,1169,0
3898,-539,1167,0
3895,-536,1167,0
3901,-532,1165,0
3901,-533,1166,0
3903,-535,1165,0
3904,-533,1161,0
3905,-535,1166,0
3909,-533,1169,0
3911,-534,1165,0
3911,-534,1163,0
3911,-534,1165,0
3909,-538,1162,0
3906,-539,1162,0
3909,-540,1164,0
3912,-540,1160,0
3908,-546,1159,0
3908,-547,1159,0
3903,-542,1160,0
3902,-539,1160,0
3898,-534,1158,0
3895,-532,1156,0
3894,-532,1156,0
3895,-530,1155,0
3891,-528,1153,0
3888,-527,1155,0
3886,-523,1155,0
3883,-524,1160,0
3883,-522,1160,0
3881,-524,1159,0
3884,-527,1160,0
3885,-530,1159,0
3887,-532,1163,0
3895,-532,1164,0
3898,-532,1164,0
3901,-534,1166,0
3908,-528,1164,0
3909,-530,1168,0
3912,-530,1171,0
3911,-527,1170,0
3909,-523,1167,0
3906,-521,1171,0
3905,-520,1173,0
3902,-520,1177,0
3894,-517,1178,0
3890,-516,1176,0
3886,-514,1175,0
3888,-515,1174,0
3890,-520,1176,0
3889,-517,1175,0
3891,-516,1174,0
3889,-515,1174,0
3892,-517,1174,0
3894,-520,1175,0
3898,-519,1175,0
3903,-518,1175,0
3904,-517,1173,0
3905,-518,1169,0
3903,-518,1166,0
3905,-519,1166,0
3907,-521,1166,0
3904,-521,1170,0
3904,-520,1171,0
3900,-518,1173,0
3901,-518,1177,0
3897,-520,1179,0
3893,-521,1180,0
3890,-520,1181,0
3889,-524,1181,0
3889,-521,1181,0
3890,-521,1179,0
3889,-522,1181,0
3887,-520,1185,0
3887,-520,1183,0
3886,-520,1183,0
3887,-522,1182,0
3890,-522,1183,0
3892,-519,1180,0
3889,-513,1181,0
3891,-515,1179,0
3889,-514,1172,0
3885,-512,1176,0
3889,-515,1174,0
3889,-516,1175,0
3889,-517,1175,0
3890,-517,1177,0
3897,-519,1178,0
3897,-521,1181,0
3897,-525,1183,0
3899,-526,1185,0
3897,-527,1189,0
3896,-525,1187,0
3894,-524,1186,0
3893,-526,1187,0
3893,-526,1188,0
3889,-523,1188,0
3889,-521,1190,0
3888,-524,1190,0
3888,-523,1192,0
3886,-523,1192,0
3891,-520,1192,0
3891,-522,1190,0
3893,-520,1187,0
3891,-518,1186,0
3890,-515,1188,0
3893,-512,1190,0
3895,-510,1190,0
3891,-507,1188,0
3888,-507,1188,0
3888,-507,1187,0
3887,-510,1186,0
3889,-512,1184,0
3890,-514,1186,0
3892,-517,1190,0
3892,-516,1193,0
3891,-516,1197,0
3890,-515,1194,0
3891,-515,1196,0
3891,-516,1201,0
3889,-513,1199,0
3887,-515,1197,0
3885,-513,1196,0
3888,-514,1197,0
3889,-517,1192,0
3889,-516,1193,0
3892,-517,1191,0
3889,-516,1189,0
3889,-515,1191,0
3885,-516,1189,0
3886,-517,1194,0
3885,-517,1203,0
3883,-517,1207,0
3883,-518,1209,0
3887,-516,1211,0
3889,-511,1206,0
3895,-514,1206,0
3897,-513,1204,0
3895,-511,1199,0
3895,-509,1196,0
3897,-512,1199,0
3897,-518,1201,0
3896,-523,1199,0
3895,-526,1198,0
3895,-532,1193,0
3899,-535,1188,0
3895,-543,1191,0
3896,-543,1192,0
3892,-539,1199,0
3897,-537,1202,0
3889,-536,1207,0
3883,-531,1205,0
3881,-529,1203,0
3880,-521,1199,0
3881,-523,1194,0
3882,-517,1196,0
3880,-514,1194,0
3877,-511,1196,0
3878,-509,1198,0
3876,-512,1199,0
3877,-515,1197,0
3877,-514,1201,0
3879,-516,1205,0
3880,-520,1208,0
3879,-524,1209,0
3880,-524,1212,0
3880,-525,1212,0
3882,-524,1213,0
3883,-520,1210,0
3885,-519,1210,0
3885,-516,1207,0
3887,-515,1208,0
3889,-516,1208,0
3889,-518,1206,0
3891,-520,1207,0
3889,-521,1210,0
3890,-526,1213,0
3889,-524,1218,0
3888,-523,1217,0
3890,-520,1219,0
3891,-523,1220,0
3889,-527,1223,0
3889,-528,1223,0
3887,-528,1220,0
3885,-530,1216,0
3883,-528,1218,0
3880,-526,1217,0
3884,-524,1218,0
3883,-523,1220,0
3884,-525,1222,0
3884,-525,1218,0
3880,-527,1220,0
3878,-526,1217,0
3877,-521,1214,0
3878,-519,1213,0
3876,-521,1209,0
3875,-523,1208,0
3874,-526,1203,0
3874,-528,1206,0
3873,-529,1208,0
3877,-531,1207,0
3878,-529,1209,0
3877,-530,1213,0
3880,-533,1211,0
3882,-533,1215,0
3883,-528,1219,0
3883,-529,1217,0
3884,-530,1215,0
3883,-531,1213,0
3881,-532,1216,0
3881,-530,1215,0
3883,-530,1220,0
3879,-527,1221,0
3880,-527,1221,0
3880,-529,1218,0
3881,-530,1217,0
3881,-531,1216,0
3882,-529,1215,0
3882,-530,1217,0
3882,-529,1220,0
3885,-537,1224,0
3885,-529,1226,0
3886,-528,1226,0
3885,-530,1226,0
3882,-530,1223,0
3882,-529,1223,0
3880,-529,1221,0
3878,-528,1218,0
3875,-525,1217,0
3879,-525,1222,0
3881,-524,1222,0
3882,-520,1218,0
3882,-522,1216,0
3882,-526,1216,0
3880,-527,1214,0
3880,-529,1214,0
3880,-526,1214,0
3878,-524,1214,0
3878,-526,1215,0
3876,-524,1217,0
3875,-519,1220,0
3878,-525,1223,0
3878,-531,1216,0
3882,-526,1219,0
3879,-529,1222,0
3880,-529,1224,0
3882,-525,1226,0
3882,-522,1229,0
3885,-526,1226,0
3886,-524,1226,0
3887,-526,1229,0
3880,-526,1225,0
3879,-530,1222,0
3879,-530,1227,0
3879,-525,1226,0
3878,-523,1226,0
3880,-525,1226,0
3878,-529,1225,0
3873,-529,1227,0
3873,-527,1227,0
3873,-527,1226,0
3875,-525,1228,0
3876,-526,1228,0
3876,-527,1227,0
3875,-524,1227,0
3874,-523,1224,0
3875,-524,1224,0
3874,-524,1225,0
3875,-525,1223,0
3875,-527,1223,0
3877,-531,1222,0
3877,-531,1224,0
3876,-528,1223,0
3878,-532,1224,0
3877,-529,1220,0
3881,-525,1220,0
3879,-522,1225,0
3878,-523,1232,0
3881,-523,1234,0
3880,-522,1235,0
3879,-522,1234,0
3875,-524,1231,0
3873,-525,1229,0
3871,-521,1229,0
3869,-525,1230,0
3873,-525,1231,0
3874,-531,1234,0
3876,-535,1235,0
3877,-540,1235,0
3876,-539,1232,0
3875,-536,1235,0
3872,-535,1236,0
3871,-532,1237,0
3872,-532,1239,0
3873,-532,1237,0
3875,-534,1236,0
3879,-534,1235,0
3880,-533,1237,0
3881,-533,1233,0
3881,-536,1231,0
3882,-540,1229,0
3879,-539,1227,0
3876,-538,1227,0
3875,-536,1231,0
3876,-538,1235,0
3879,-538,1241,0
3879,-533,1242,0
3881,-526,1242,0
3885,-522,1241,0
3885,-523,1236,0
3889,-521,1233,0
3893,-525,1233,0
3896,-527,1231,0
3902,-531,1228,0
3899,-536,1227,0
3894,-537,1222,0
3891,-540,1215,0
3890,-548,1214,0
3889,-547,1222,0
3888,-544,1224,0
3887,-540,1225,0
3883,-532,1231,0
3877,-531,1232,0
3868,-532,1229,0
3864,-526,1230,0
3863,-518,1232,0
3860,-513,1229,0
3858,-513,1230,0
3859,-513,1225,0
3858,-509,1226,0
3857,-504,1227,0
3867,-514,1233,0
3865,-527,1223,0
3868,-523,1223,0
3871,-519,1224,0
3874,-533,1234,0
3878,-536,1241,0
3879,-536,1244,0
3880,-539,1247,0
3877,-538,1243,0
3875,-534,1241,0
3875,-535,1238,0
3877,-533,1240,0
3876,-528,1243,0
3875,-525,1244,0
3876,-524,1243,0
3878,-526,1242,0
3876,-526,1240,0
3877,-532,1242,0
3877,-530,1241,0
3872,-527,1243,0
3868,-526,1243,0
3873,-530,1243,0
3874,-534,1243,0
3870,-532,1245,0
3872,-533,1243,0
3875,-535,1244,0
3879,-537,1246,0
3878,-534,1239,0
3878,-534,1237,0
3878,-533,1235,0
3880,-533,1233,0
3877,-533,1232,0
3876,-531,1234,0
3878,-533,1234,0
3877,-529,1235,0
3878,-530,1236,0
3880,-527,1236,0
3879,-529,1237,0
3876,-529,1239,0
3876,-532,1235,0
3873,-531,1238,0
3873,-532,1234,0
3869,-533,1235,0
3872,-536,1238,0
3873,-538,1239,0
3875,-539,1240,0
3877,-540,1243,0
3874,-539,1243,0
3873,-538,1241,0
3871,-537,1246,0
3875,-540,1245,0
3874,-541,1245,0
3869,-539,1246,0
3871,-539,1250,0
3870,-536,1251,0
3873,-532,1248,0
3871,-534,1247,0
3868,-531,1242,0
3871,-529,1243,0
3877,-529,1245,0
3875,-529,1243,0
3874,-527,1245,0
3876,-524,1249,0
3878,-521,1248,0
3878,-521,1243,0
3874,-520,1246,0
3874,-521,1245,0
3873,-522,1243,0
3875,-520,1240,0
3877,-522,1239,0
3869,-520,1236,0
3871,-521,1236,0
3873,-524,1233,0
3877,-526,1232,0
3875,-526,1228,0
3875,-526,1228,0
3877,-527,1233,0
3879,-528,1233,0
3877,-527,1238,0
3874,-529,1239,0
3874,-533,1240,0
3874,-532,1239,0
3875,-531,1237,0
3877,-535,1236,0
3875,-532,1237,0
3872,-532,1239,0
3870,-531,1240,0
3873,-526,1239,0
3874,-527,1241,0
3876,-522,1242,0
3877,-524,1245,0
3874,-528,1246,0
3875,-527,1246,0
3877,-528,1249,0
3874,-527,1251,0
3870,-530,1250,0
3866,-533,1248,0
3865,-535,1248,0
3865,-535,1249,0
3859,-538,1249,0
3863,-537,1246,0
3869,-537,1242,0
3871,-533,1243,0
3873,-531,1248,0
3874,-531,1244,0
3873,-532,1244,0
3876,-530,1243,0
3872,-527,1246,0
3874,-523,1244,0
3877,-524,1245,0
3879,-524,1240,0
3879,-526,1242,0
3871,-520,1241,0
3869,-520,1242,0
3870,-517,1241,0
3870,-519,1241,0
3872,-518,1239,0
3870,-522,1242,0
3867,-522,1244,0
3869,-525,1245,0
3868,-527,1243,0
3870,-526,1238,0
3871,-529,1236,0
3873,-527,1237,0
3876,-528,1233,0
3880,-529,1238,0
3879,-527,1239,0
3878,-522,1239,0
3879,-526,1240,0
3880,-523,1237,0
3880,-526,1237,0
3880,-526,1239,0
3880,-524,1238,0
3880,-528,1243,0
3880,-530,1243,0
3876,-531,1240,0
3877,-532,1244,0
3875,-527,1244,0
3871,-532,1244,0
3871,-529,1242,0
3873,-524,1243,0
3876,-522,1241,0
3876,-526,1243,0
3876,-526,1242,0
3874,-526,1235,0
3871,-528,1232,0
3877,-526,1226,0
3879,-526,1220,0
3881,-528,1221,0
3890,-528,1225,0
3888,-528,1229,0
3887,-529,1232,0
3885,-528,1235,0
3884,-523,1237,0
3882,-523,1240,0
3876,-518,1241,0
3877,-517,1239,0
3876,-511,1231,0
3880,-513,1229,0
3881,-515,1228,0
3885,-519,1224,0
3890,-525,1227,0
3892,-526,1225,0
3896,-530,1225,0
3897,-536,1220,0
3893,-534,1220,0
3891,-535,1222,0
3886,-534,1226,0
3884,-530,1229,0
3880,-530,1230,0
3874,-527,1234,0
3865,-527,1233,0
3863,-530,1232,0
3860,-521,1231,0
3856,-516,1229,0
3853,-519,1228,0
3858,-514,1232,0
3861,-511,1233,0
3869,-511,1231,0
3872,-521,1232,0
3871,-526,1235,0
3875,-530,1233,0
3872,-531,1232,0
3874,-532,1232,0
3875,-533,1232,0
3877,-535,1234,0
3876,-534,1233,0
3877,-531,1232,0
3878,-532,1231,0
3880,-531,1234,0
3880,-531,1233,0
3881,-528,1233,0
3879,-526,1234,0
3875,-519,1232,0
3877,-521,1231,0
3878,-519,1226,0
3872,-517,1228,0
3874,-516,1230,0
3874,-520,1231,0
3875,-523,1231,0
3879,-521,1229,0
3879,-523,1227,0
3881,-526,1223,0
3883,-527,1219,0
3888,-531,1220,0
3889,-525,1219,0
3887,-524,1216,0
3887,-526,1210,0
3884,-526,1213,0
3881,-521,1215,0
3882,-517,1216,0
3884,-512,1217,0
3884,-514,1217,0
3882,-514,1218,0
3881,-513,1221,0
3876,-512,1216,0
3876,-508,1218,0
3877,-513,1214,0
3877,-511,1212,0
3876,-512,1215,0
3880,-512,1216,0
3879,-515,1215,0
3881,-518,1213,0
3884,-520,1216,0
3883,-522,1217,0
3883,-521,1216,0
3883,-520,1214,0
3883,-516,1210,0
3880,-515,1209,0
3883,-515,1211,0
3883,-514,1214,0
3886,-512,1221,0
3884,-511,1219,0
3886,-506,1216,0
3887,-503,1218,0
3886,-501,1217,0
3886,-500,1215,0
3889,-502,1214,0
3888,-503,1215,0
3891,-504,1215,0
3889,-507,1214,0
3888,-510,1216,0
3887,-512,1213,0
3890,-512,1212,0
3889,-512,1212,0
3885,-510,1213,0
3888,-514,1211,0
3887,-518,1209,0
3886,-519,1208,0
3882,-522,1208,0
3880,-519,1204,0
3887,-520,1202,0
3885,-522,1204,0
3886,-521,1202,0
3887,-522,1201,0
3891,-523,1199,0
3888,-524,1198,0
3889,-522,1199,0
3888,-522,1203,0
3887,-517,1202,0
3886,-516,1206,0
3885,-515,1207,0
3885,-514,1203,0
3884,-513,1204,0
3885,-513,1207,0
3884,-511,1206,0
3885,-510,1205,0
3884,-513,1204,0
3888,-514,1208,0
3886,-516,1208,0
3890,-517,1211,0
3892,-519,1209,0
3894,-519,1211,0
3895,-523,1207,0
3893,-518,1209,0
3891,-518,1211,0
3893,-519,1211,0
3888,-519,1208,0
3885,-520,1211,0
3885,-515,1213,0
3884,-515,1210,0
3884,-512,1207,0
3882,-508,1207,0
3885,-508,1205,0
3885,-509,1204,0
3884,-502,1205,0
3887,-503,1204,0
3885,-501,1206,0
3886,-502,1207,0
3886,-505,1207,0
3884,-505,1207,0
3884,-504,1209,0
3885,-502,1206,0
3884,-502,1210,0
3885,-504,1209,0
3885,-509,1209,0
3884,-511,1207,0
3887,-508,1207,0
3888,-506,1210,0
3888,-507,1209,0
3892,-505,1205,0
3892,-504,1201,0
3894,-511,1201,0
3894,-513,1201,0
3897,-511,1200,0
3893,-510,1200,0
3893,-511,1198,0
3894,-511,1200,0
3897,-511,1202,0
3896,-509,1203,0
3893,-510,1203,0
3894,-510,1201,0
3895,-510,1205,0
3892,-506,1205,0
3887,-507,1205,0
3883,-510,1207,0
3880,-509,1208,0
3878,-507,1206,0
3878,-508,1207,0
3878,-505,1208,0
3882,-501,1209,0
3886,-502,1210,0
3888,-501,1208,0
3890,-506,1207,0
3890,-505,1205,0
3896,-505,1206,0
3900,-508,1198,0
3900,-509,1201,0
3898,-508,1199,0
3893,-511,1200,0
3888,-512,1204,0
3883,-512,1213,0
3882,-509,1218,0
3882,-513,1223,0
3883,-515,1226,0
3886,-518,1227,0
3892,-511,1232,0
3890,-509,1229,0
3889,-510,1227,0
3888,-510,1229,0
3881,-509,1224,0
3879,-513,1223,0
3881,-515,1219,0
3881,-519,1220,0
3884,-517,1216,0
3886,-518,1216,0
3885,-518,1212,0
3889,-518,1211,0
3891,-513,1214,0
3894,-512,1219,0
3893,-508,1219,0
3888,-505,1213,0
3884,-504,1209,0
3878,-503,1206,0
3883,-501,1204,0
3883,-495,1203,0
3885,-497,1201,0
3880,-499,1206,0
3878,-501,1207,0
3874,-507,1210,0
3869,-509,1215,0
3868,-511,1214,0
3872,-511,1218,0
3870,-514,1223,0
3871,-518,1232,0
3876,-517,1234,0
3879,-516,1237,0
3877,-517,1232,0
3877,-517,1227,0
3877,-514,1223,0
3878,-510,1219,0
3880,-510,1220,0
3882,-511,1217,0
3882,-510,1222,0
3884,-509,1222,0
3890,-509,1224,0
3891,-508,1226,0
3888,-506,1222,0
3888,-508,1224,0
3884,-513,1227,0
3880,-512,1225,0
3882,-511,1226,0
3883,-512,1226,0
3882,-514,1224,0
3881,-512,1221,0
3881,-512,1223,0
3882,-515,1219,0
3882,-516,1220,0
3881,-513,1222,0
3880,-514,1224,0
3881,-511,1222,0
3884,-515,1219,0
3886,-514,1215,0
3886,-511,1219,0
3884,-511,1221,0
3875,-508,1222,0
3875,-507,1222,0
3874,-506,1221,0
3872,-509,1218,0
3874,-508,1221,0
3878,-506,1220,0
3880,-504,1222,0
3880,-507,1232,0
3882,-508,1233,0
3882,-505,1233,0
3885,-505,1236,0
3884,-508,1239,0
3878,-509,1241,0
3881,-510,1239,0
3881,-503,1241,0
3883,-499,1243,0
3883,-499,1246,0
3881,-503,1243,0
3878,-502,1242,0
3882,-505,1238,0
3875,-503,1240,0
3872,-502,1242,0
3872,-501,1242,0
3874,-500,1248,0
3875,-497,1250,0
3878,-500,1251,0
3878,-501,1251,0
3879,-503,1250,0
3878,-508,1244,0
3880,-507,1240,0
3879,-501,1236,0
3880,-497,1236,0
3879,-498,1235,0
3880,-499,1233,0
3881,-500,1237,0
3880,-500,1231,0
3878,-503,1236,0
3874,-503,1237,0
3873,-503,1236,0
3872,-505,1237,0
3870,-506,1241,0
3873,-504,1245,0
3877,-505,1246,0
3879,-508,1248,0
3880,-514,1244,0
3878,-513,1239,0
3873,-510,1238,0
3869,-511,1238,0
