accelerometer_x,accelerometer_y,accelerometer_z,fall
3904,288,1029,0
3896,289,1031,0
3890,288,1033,0
3881,290,1039,0
3869,287,1046,0
3861,287,1052,0
3856,278,1052,0
3848,274,1044,0
3844,272,1038,0
3838,271,1038,0
3839,274,1035,0
3839,270,1031,0
3843,275,1026,0
3846,276,1023,0
3849,276,1028,0
3857,272,1025,0
3861,267,1020,0
3858,266,1024,0
3865,269,1021,0
3867,269,1025,0
3872,270,1022,0
3875,276,1024,0
3877,283,1025,0
3881,286,1029,0
3886,287,1036,0
3891,290,1038,0
3897,296,1039,0
3891,304,1041,0
3891,310,1045,0
3882,317,1041,0
3877,319,1034,0
3868,319,1028,0
3860,322,1025,0
3859,319,1024,0
3857,313,1027,0
3866,311,1032,0
3866,306,1034,0
3866,306,1030,0
3868,306,1032,0
3869,313,1031,0
3875,311,1034,0
3879,315,1031,0
3885,317,1028,0
3891,316,1030,0
3886,317,1022,0
3882,317,1021,0
3879,314,1020,0
3877,309,1015,0
3874,305,1020,0
3877,305,1021,0
3878,303,1017,0
3876,301,1016,0
3875,301,1016,0
3870,297,1014,0
3870,295,1009,0
3865,290,1006,0
3867,292,1008,0
3868,292,1012,0
3869,292,1014,0
3870,292,1013,0
3873,290,1015,0
3873,292,1014,0
3875,294,1017,0
3875,296,1020,0
3878,295,1019,0
3879,298,1021,0
3882,293,1024,0
3882,289,1026,0
3888,287,1027,0
3891,286,1025,0
3892,280,1026,0
3889,281,1026,0
3883,279,1024,0
3880,282,1022,0
3875,277,1021,0
3875,279,1020,0
3879,284,1019,0
3884,284,1019,0
3890,287,1024,0
3887,288,1022,0
3884,283,1019,0
3875,278,1018,0
3868,276,1018,0
3863,281,1018,0
3861,278,1021,0
3864,279,1027,0
3871,279,1026,0
3873,281,1027,0
3876,280,1028,0
3876,277,1032,0
3878,276,1031,0
3876,276,1025,0
3874,278,1027,0
3873,282,1027,0
3866,280,1023,0
3862,279,1023,0
3857,281,1023,0
3858,286,1023,0
3860,288,1026,0
3865,290,1027,0
3873,291,1027,0
3876,297,1030,0
3879,299,1030,0
3885,303,1029,0
3894,301,1030,0
3898,300,1029,0
3893,294,1029,0
3898,289,1031,0
3896,286,1033,0
3892,282,1038,0
3887,279,1038,0
3883,279,1031,0
3883,278,1030,0
3877,280,1029,0
3876,279,1031,0
3876,276,1034,0
3877,272,1029,0
3879,270,1026,0
3881,274,1023,0
3882,274,1023,0
3883,277,1016,0
3884,279,1011,0
3885,280,1011,0
3885,284,1011,0
3886,284,1013,0
3886,284,1021,0
3882,284,1029,0
3880,280,1035,0
3873,275,1033,0
3871,267,1033,0
3870,257,1030,0
3873,254,1027,0
3873,248,1026,0
3870,244,1026,0
3873,246,1021,0
3872,246,1021,0
3869,251,1016,0
3866,252,1013,0
3870,256,1015,0
3870,259,1019,0
3875,266,1024,0
3879,266,1023,0
3879,271,1025,0
3875,276,1026,0
3875,278,1026,0
3875,279,1027,0
3876,280,1030,0
3887,284,1032,0
3891,288,1036,0
3890,287,1037,0
3888,288,1034,0
3883,292,1032,0
3876,299,1029,0
3873,303,1033,0
3872,307,1040,0
3870,303,1039,0
3877,299,1038,0
3870,299,1030,0
3861,294,1025,0
3861,290,1029,0
3867,289,1031,0
3871,289,1033,0
3876,287,1031,0
3878,286,1030,0
3879,286,1026,0
3874,286,1030,0
3876,289,1032,0
3874,289,1033,0
3870,288,1028,0
3871,288,1026,0
3867,292,1027,0
3868,290,1026,0
3865,285,1029,0
3861,283,1034,0
3865,284,1038,0
3869,278,1037,0
3873,277,1032,0
3872,273,1031,0
3870,268,1032,0
3875,263,1033,0
3880,264,1030,0
3879,262,1026,0
3880,254,1026,0
3883,254,1028,0
3883,252,1030,0
3879,255,1028,0
3877,258,1026,0
3872,257,1028,0
3875,257,1030,0
3874,252,1030,0
3872,252,1025,0
3872,254,1026,0
3872,252,1028,0
3870,254,1031,0
3866,255,1028,0
3869,257,1025,0
3872,260,1027,0
3876,264,1025,0
3878,265,1027,0
3879,269,1029,0
3885,276,1038,0
3889,272,1042,0
3883,267,1037,0
3873,264,1028,0
3868,267,1032,0
3868,270,1034,0
3872,271,1031,0
3876,272,1034,0
3876,276,1034,0
3877,275,1034,0
3874,277,1035,0
3870,277,1037,0
3875,274,1039,0
3876,272,1038,0
3879,274,1040,0
3878,269,1040,0
3874,270,1036,0
3873,268,1028,0
3867,263,1027,0
3868,258,1033,0
3875,259,1033,0
3879,262,1037,0
3887,263,1040,0
3888,266,1037,0
3891,262,1029,0
3891,258,1032,0
3891,255,1030,0
3894,249,1033,0
3895,244,1034,0
3893,244,1036,0
3887,237,1033,0
3877,239,1034,0
3870,230,1034,0
3865,223,1035,0
3864,220,1036,0
3863,215,1038,0
3862,215,1036,0
3864,214,1040,0
3867,214,1037,0
3872,210,1036,0
3876,212,1034,0
3887,217,1036,0
3893,226,1036,0
3902,230,1038,0
3906,242,1042,0
3910,244,1041,0
3905,248,1041,0
3897,251,1043,0
3893,250,1047,0
3890,248,1044,0
3885,239,1041,0
3875,232,1035,0
3871,228,1031,0
3868,226,1031,0
3869,223,1031,0
3867,218,1031,0
3871,222,1024,0
3871,227,1023,0
3867,229,1025,0
3866,240,1026,0
3874,250,1032,0
3875,252,1029,0
3873,253,1026,0
3875,260,1027,0
3878,270,1034,0
3886,278,1037,0
3890,285,1040,0
3892,292,1036,0
3887,293,1035,0
3884,294,1033,0
3880,291,1028,0
3876,291,1032,0
3876,307,1046,0
3877,306,1044,0
3865,304,1037,0
3854,295,1034,0
3848,295,1034,0
3850,299,1035,0
3859,296,1040,0
3869,293,1040,0
3877,295,1040,0
3874,290,1035,0
3875,296,1039,0
3873,296,1039,0
3869,297,1036,0
3870,299,1034,0
3873,299,1035,0
3872,300,1038,0
3875,298,1039,0
3877,299,1043,0
3879,297,1047,0
3882,299,1049,0
3884,298,1047,0
3888,296,1047,0
3892,294,1043,0
3892,291,1037,0
3885,286,1033,0
3878,285,1036,0
3869,278,1029,0
3861,276,1022,0
3853,278,1027,0
3848,277,1027,0
3846,278,1030,0
3850,275,1035,0
3851,271,1036,0
3856,273,1037,0
3856,269,1034,0
3860,266,1035,0
3867,258,1038,0
3875,252,1036,0
3879,251,1036,0
3883,249,1036,0
3881,250,1033,0
3879,247,1033,0
3879,244,1029,0
3880,237,1028,0
3879,237,1026,0
3881,236,1025,0
3877,235,1026,0
3874,234,1022,0
3873,234,1021,0
3872,233,1023,0
3875,235,1018,0
3878,236,1019,0
3882,239,1025,0
3882,241,1030,0
3885,240,1031,0
3890,242,1035,0
3887,243,1029,0
3888,241,1026,0
3892,241,1026,0
3892,241,1027,0
3892,246,1030,0
3886,249,1033,0
3883,252,1034,0
3877,252,1035,0
3867,252,1033,0
3864,252,1031,0
3872,255,1030,0
3870,259,1030,0
3874,262,1027,0
3878,263,1031,0
3878,262,1031,0
3874,260,1032,0
3870,262,1028,0
3872,258,1027,0
3873,255,1024,0
3878,255,1025,0
3878,256,1025,0
3880,261,1024,0
3880,259,1028,0
3879,257,1027,0
3876,255,1024,0
3873,252,1028,0
3869,255,1031,0
3867,256,1029,0
3870,253,1031,0
3873,253,1030,0
3880,255,1027,0
3885,259,1026,0
3890,261,1029,0
3899,262,1028,0
3905,261,1025,0
3907,264,1021,0
3909,272,1016,0
3909,269,1021,0
3900,266,1026,0
3891,261,1031,0
3887,254,1031,0
3880,251,1029,0
3880,245,1027,0
3877,241,1030,0
3877,235,1031,0
3875,229,1026,0
3872,228,1019,0
3868,232,1017,0
3865,236,1019,0
3867,237,1020,0
3869,240,1019,0
3864,245,1019,0
3866,247,1020,0
3870,245,1017,0
3871,246,1017,0
3871,249,1019,0
3873,249,1023,0
3872,244,1029,0
3871,245,1031,0
3876,253,1034,0
3878,249,1032,0
3879,247,1032,0
3879,250,1032,0
3879,250,1033,0
3879,250,1036,0
3879,250,1040,0
3879,251,1040,0
3882,254,1039,0
3884,257,1039,0
3884,254,1037,0
3883,256,1035,0
3884,256,1034,0
3885,257,1034,0
3886,255,1037,0
3887,257,1038,0
3889,257,1039,0
3893,254,1033,0
3888,253,1029,0
3887,253,1023,0
3888,249,1020,0
3880,247,1025,0
3872,244,1030,0
3864,244,1031,0
3859,246,1027,0
3852,245,1030,0
3846,246,1034,0
3851,238,1038,0
3854,239,1041,0
3857,238,1040,0
3859,240,1038,0
3867,243,1032,0
3869,248,1031,0
3875,243,1034,0
3879,242,1033,0
3879,239,1033,0
3877,236,1034,0
3876,234,1034,0
3877,233,1033,0
3876,233,1033,0
3878,235,1034,0
3880,235,1030,0
3879,236,1033,0
3880,237,1029,0
3880,238,1030,0
3878,239,1031,0
3880,242,1039,0
3880,241,1040,0
3883,237,1035,0
3883,239,1042,0
3883,241,1039,0
3880,240,1038,0
3878,240,1039,0
3879,234,1036,0
3880,234,1037,0
3882,233,1035,0
3883,232,1037,0
3881,234,1036,0
3880,234,1042,0
3881,239,1046,0
3882,244,1045,0
3885,246,1044,0
3883,251,1041,0
3882,250,1039,0
3879,252,1041,0
3876,253,1043,0
3873,256,1044,0
3873,257,1048,0
3865,257,1047,0
3864,255,1043,0
3859,259,1040,0
3859,259,1043,0
3858,259,1045,0
3868,259,1046,0
3873,262,1042,0
3876,260,1042,0
3881,261,1039,0
3886,262,1043,0
3887,261,1041,0
3890,258,1041,0
3892,258,1041,0
3886,258,1037,0
3883,253,1037,0
3881,251,1039,0
3877,255,1039,0
3877,256,1035,0
3867,253,1030,0
3865,255,1032,0
3864,256,1036,0
3868,255,1038,0
3872,256,1038,0
3877,261,1031,0
3883,265,1028,0
3887,269,1023,0
3896,274,1020,0
3898,280,1017,0
3896,284,1024,0
3890,294,1023,0
3886,299,1031,0
3879,295,1039,0
3872,292,1043,0
3866,287,1044,0
3860,285,1047,0
3859,278,1049,0
3854,271,1045,0
3850,262,1043,0
3851,260,1035,0
3853,261,1034,0
3854,268,1035,0
3853,269,1036,0
3854,272,1035,0
3861,270,1028,0
3869,273,1032,0
3871,277,1030,0
3873,277,1034,0
3875,283,1033,0
3873,286,1033,0
3876,283,1031,0
3879,283,1033,0
3886,287,1038,0
3890,292,1039,0
3892,290,1044,0
3893,292,1047,0
3890,292,1047,0
3883,293,1050,0
3872,288,1047,0
3866,287,1044,0
3861,290,1045,0
3858,291,1047,0
3860,290,1050,0
3866,288,1053,0
3870,288,1052,0
3877,285,1048,0
3878,284,1045,0
3881,281,1043,0
3881,279,1038,0
3882,274,1037,0
3885,276,1037,0
3879,270,1036,0
3878,265,1036,0
3874,265,1038,0
3869,261,1038,0
3865,256,1041,0
3862,256,1039,0
3865,254,1039,0
3864,254,1037,0
3865,260,1035,0
3862,266,1038,0
3861,267,1037,0
3856,263,1032,0
3852,262,1027,0
3849,260,1026,0
3852,266,1031,0
3854,270,1034,0
3859,274,1035,0
3859,278,1038,0
3862,279,1040,0
3865,281,1039,0
3870,282,1037,0
3876,286,1040,0
3881,285,1040,0
3885,285,1037,0
3887,289,1037,0
3884,284,1032,0
3879,281,1029,0
3868,282,1027,0
3867,281,1028,0
3866,279,1029,0
3864,276,1028,0
3863,275,1034,0
3864,276,1036,0
3869,276,1039,0
3876,273,1041,0
3881,267,1041,0
3884,264,1037,0
3884,259,1033,0
3890,256,1029,0
3888,253,1030,0
3884,255,1032,0
3879,257,1032,0
3874,255,1032,0
3872,259,1035,0
3867,259,1037,0
3870,260,1038,0
3867,265,1038,0
3866,266,1039,0
3867,273,1034,0
3867,272,1028,0
3871,269,1030,0
3873,268,1027,0
3867,275,1032,0
3867,281,1031,0
3868,284,1031,0
3869,283,1027,0
3875,286,1030,0
3883,289,1030,0
3887,288,1027,0
3893,290,1025,0
3893,290,1020,0
3885,293,1023,0
3881,293,1024,0
3875,292,1029,0
3869,289,1031,0
3866,287,1029,0
3864,288,1029,0
3868,283,1026,0
3876,285,1027,0
3883,287,1029,0
3891,285,1029,0
3890,287,1027,0
3890,289,1028,0
3889,290,1025,0
3887,289,1027,0
3885,291,1029,0
3885,296,1025,0
3886,293,1026,0
3881,293,1028,0
3877,299,1029,0
3865,301,1032,0
3859,298,1034,0
3852,293,1031,0
3848,288,1036,0
3851,287,1033,0
3849,279,1032,0
3851,275,1033,0
3852,275,1035,0
3857,269,1031,0
3859,263,1028,0
3866,266,1031,0
3872,269,1036,0
3875,269,1037,0
3878,267,1037,0
3881,268,1036,0
3881,267,1032,0
3880,267,1029,0
3878,266,1031,0
3881,264,1032,0
3880,268,1038,0
3877,273,1038,0
3880,279,1041,0
3880,285,1045,0
3878,290,1044,0
3869,292,1038,0
3865,287,1040,0
3863,286,1042,0
3868,290,1044,0
3874,294,1047,0
3877,293,1050,0
3874,291,1049,0
3872,292,1048,0
3871,292,1048,0
3873,291,1045,0
3875,291,1045,0
3878,294,1043,0
3882,296,1041,0
3880,301,1037,0
3879,298,1032,0
3877,299,1030,0
3870,297,1029,0
3861,295,1032,0
3856,291,1033,0
3858,287,1035,0
3857,283,1035,0
3857,282,1034,0
3862,279,1038,0
3869,280,1035,0
3875,278,1031,0
3878,275,1030,0
3877,275,1031,0
3877,280,1032,0
3872,278,1028,0
3868,281,1026,0
3867,278,1028,0
3867,281,1029,0
3871,280,1037,0
3874,279,1036,0
3877,284,1028,0
3878,284,1028,0
3878,285,1032,0
3872,278,1030,0
3876,276,1034,0
3875,270,1035,0
3874,269,1030,0
3871,265,1030,0
3873,265,1025,0
3876,265,1027,0
3880,263,1027,0
3881,265,1026,0
3880,265,1027,0
3877,264,1029,0
3878,262,1029,0
3879,261,1031,0
3882,260,1030,0
3882,265,1025,0
3880,271,1021,0
3874,271,1021,0
3875,271,1021,0
3880,267,1018,0
3882,268,1019,0
3882,265,1028,0
3882,263,1029,0
3881,263,1028,0
3878,266,1026,0
3869,268,1030,0
3870,273,1026,0
3874,278,1027,0
3877,273,1028,0
3878,272,1028,0
3876,277,1028,0
3878,276,1022,0
3880,276,1020,0
3882,279,1020,0
3884,278,1017,0
3881,281,1012,0
3889,288,1012,0
3885,287,1016,0
3881,281,1012,0
3878,274,1007,0
3876,274,1010,0
3876,273,1010,0
3873,276,1008,0
3878,272,1010,0
3884,266,1011,0
3884,265,1010,0
3877,270,1009,0
3876,274,1009,0
3875,277,1008,0
3876,283,1008,0
3886,287,1008,0
3895,293,1007,0
3898,302,1005,0
3903,310,1004,0
3905,319,1006,0
3895,317,1007,0
3889,313,1013,0
3881,305,1012,0
3871,299,1012,0
3866,292,1011,0
3861,285,1008,0
3863,284,1012,0
3866,281,1011,0
3871,279,1009,0
3874,277,1001,0
3877,280,999,0
3881,282,1000,0
3881,283,1004,0
3886,284,1002,0
3883,288,1000,0
3887,298,1004,0
3886,291,1001,0
3884,293,1000,0
3881,292,1007,0
3879,290,1007,0
3880,297,1012,0
3883,299,1011,0
3885,293,1011,0
3885,292,1015,0
3881,295,1016,0
3880,296,1014,0
3882,296,1012,0
3883,291,1010,0
3884,290,1012,0
3881,290,1014,0
3881,292,1021,0
3883,293,1019,0
3883,293,1020,0
3881,295,1017,0
3879,292,1019,0
3876,287,1018,0
3877,287,1020,0
3875,291,1021,0
3884,296,1026,0
3889,298,1028,0
3886,300,1028,0
3881,296,1022,0
3879,292,1029,0
3880,292,1029,0
3880,287,1029,0
3879,286,1030,0
3878,283,1032,0
3876,279,1035,0
3875,279,1032,0
3878,278,1032,0
3878,280,1027,0
3877,280,1029,0
3886,280,1032,0
3884,279,1030,0
3878,278,1030,0
3874,278,1030,0
3874,277,1030,0
3874,277,1032,0
3876,276,1036,0
3876,277,1036,0
3876,278,1037,0
3879,280,1035,0
3877,279,1035,0
3872,278,1031,0
3871,279,1033,0
3868,276,1036,0
3874,276,1039,0
3881,276,1039,0
3880,277,1034,0
3877,278,1027,0
3873,276,1024,0
3864,279,1025,0
3859,282,1021,0
3859,282,1024,0
3867,286,1027,0
3872,289,1028,0
3876,293,1028,0
3879,296,1030,0
3879,297,1034,0
3882,298,1033,0
3878,295,1033,0
3879,294,1033,0
3877,296,1027,0
3866,291,1023,0
3863,290,1029,0
3856,291,1032,0
3861,290,1034,0
3866,291,1032,0
3874,293,1029,0
3876,295,1026,0
3882,298,1028,0
3882,302,1031,0
3884,299,1036,0
3886,304,1034,0
3885,302,1033,0
3882,303,1027,0
3881,304,1021,0
3879,301,1019,0
3875,302,1016,0
3872,302,1014,0
3870,303,1016,0
3865,304,1020,0
3860,298,1019,0
3860,294,1018,0
3866,295,1022,0
3870,291,1027,0
3877,290,1023,0
3885,293,1021,0
3887,292,1020,0
3891,288,1015,0
3891,289,1012,0
3890,293,1009,0
3890,294,1011,0
3891,299,1012,0
3894,301,1017,0
3893,305,1024,0
3889,305,1028,0
3888,310,1027,0
3880,310,1028,0
3876,305,1026,0
3872,298,1026,0
3873,290,1025,0
3866,284,1021,0
3859,280,1014,0
3858,277,1013,0
3863,273,1011,0
3865,272,1009,0
3872,275,1008,0
3875,277,1007,0
3878,285,1008,0
3882,287,1008,0
3884,295,1015,0
3887,299,1016,0
3883,298,1014,0
3882,297,1018,0
3879,300,1018,0
3882,301,1023,0
3883,302,1030,0
3881,304,1032,0
3876,304,1030,0
3872,308,1026,0
3870,307,1029,0
3873,306,1035,0
3874,309,1040,0
3874,309,1037,0
3874,306,1032,0
3875,306,1030,0
3874,307,1029,0
3872,305,1032,0
3872,302,1032,0
3878,297,1033,0
3877,299,1031,0
3878,302,1025,0
3878,306,1026,0
3878,305,1028,0
3876,301,1025,0
3879,296,1029,0
3881,293,1033,0
3879,289,1035,0
3879,287,1036,0
3876,288,1034,0
3872,285,1033,0
3871,282,1032,0
3873,283,1036,0
3875,281,1037,0
3877,283,1037,0
3871,285,1034,0
3867,283,1034,0
3861,289,1035,0
3863,292,1043,0
3862,292,1043,0
3866,291,1036,0
3870,294,1033,0
3868,298,1030,0
3870,299,1036,0
3867,294,1037,0
3868,296,1039,0
3870,294,1040,0
3873,292,1040,0
3868,286,1037,0
3869,284,1035,0
3872,285,1034,0
3874,287,1038,0
3880,289,1040,0
3879,292,1044,0
3879,296,1045,0
3878,296,1040,0
3877,296,1037,0
3874,300,1037,0
3872,299,1037,0
3872,298,1042,0
3873,298,1044,0
3875,299,1048,0
3877,301,1045,0
3878,303,1046,0
3875,304,1048,0
3875,305,1052,0
3871,298,1051,0
3867,294,1054,0
3867,288,1057,0
3871,288,1055,0
3869,287,1051,0
3866,291,1051,0
3869,296,1048,0
3869,302,1048,0
3867,301,1046,0
3864,304,1042,0
3860,303,1043,0
3862,307,1043,0
3869,310,1045,0
3875,305,1043,0
3878,300,1039,0
3880,302,1038,0
3873,298,1041,0
3868,296,1040,0
3862,293,1041,0
3857,291,1040,0
3855,293,1037,0
3862,297,1039,0
3865,298,1038,0
3869,293,1037,0
3874,294,1038,0
3879,296,1037,0
3886,295,1031,0
3886,293,1029,0
3884,297,1030,0
3885,301,1026,0
3889,304,1025,0
3885,306,1023,0
3881,305,1022,0
3875,309,1021,0
3874,315,1025,0
3870,320,1032,0
3873,319,1034,0
3872,313,1033,0
3863,308,1031,0
3854,307,1027,0
3847,303,1029,0
3841,295,1025,0
3840,295,1025,0
3847,296,1027,0
3852,296,1034,0
3859,299,1034,0
3868,300,1030,0
3870,300,1028,0
3870,303,1025,0
3869,304,1027,0
3872,304,1026,0
3877,307,1024,0
3878,303,1027,0
3880,303,1027,0
3882,307,1032,0
3881,307,1029,0
3880,311,1028,0
3879,313,1031,0
3875,312,1032,0
3875,315,1029,0
3872,316,1031,0
3872,319,1034,0
3867,318,1034,0
3867,315,1035,0
3865,314,1036,0
3861,318,1037,0
3864,318,1033,0
3868,318,1031,0
3868,318,1032,0
3875,318,1032,0
3874,320,1037,0
3874,319,1039,0
3877,321,1036,0
3875,320,1036,0
3874,317,1036,0
3876,317,1034,0
3876,313,1030,0
3872,312,1032,0
3868,310,1031,0
3864,310,1031,0
3864,305,1034,0
3865,300,1029,0
3865,296,1035,0
3866,295,1037,0
3865,293,1042,0
3862,293,1042,0
3864,295,1042,0
3861,294,1036,0
3862,300,1036,0
3865,300,1041,0
3868,296,1044,0
3869,299,1046,0
3873,299,1046,0
3876,299,1044,0
3878,300,1041,0
3881,301,1041,0
3882,300,1038,0
3880,298,1037,0
3881,300,1038,0
3880,296,1037,0
3879,292,1030,0
3874,291,1029,0
3873,292,1034,0
3864,295,1039,0
3859,296,1046,0
3858,298,1050,0
3865,301,1048,0
3874,305,1047,0
3877,309,1048,0
3878,315,1050,0
3880,313,1047,0
3871,314,1045,0
3866,314,1044,0
3858,314,1043,0
3849,310,1041,0
3849,307,1043,0
3845,304,1046,0
3843,308,1046,0
3847,308,1045,0
3849,312,1044,0
3854,315,1042,0
3858,320,1043,0
3870,323,1043,0
3876,321,1043,0
3881,320,1045,0
3880,325,1047,0
3879,326,1047,0
3879,323,1043,0
3881,318,1037,0
3885,314,1036,0
3883,315,1034,0
3881,315,1034,0
3868,312,1041,0
3858,308,1041,0
3858,300,1043,0
3856,297,1040,0
3862,296,1036,0
3871,293,1031,0
3876,292,1032,0
3882,293,1031,0
3885,292,1029,0
3882,291,1026,0
3880,292,1022,0
3877,295,1022,0
3877,302,1023,0
3876,304,1026,0
3880,308,1032,0
3881,318,1034,0
3876,321,1037,0
3870,324,1036,0
3867,319,1040,0
3859,316,1039,0
3855,310,1036,0
3854,306,1035,0
3850,300,1027,0
3853,297,1026,0
3856,295,1024,0
3857,290,1027,0
3856,288,1028,0
3859,286,1028,0
3868,287,1026,0
3875,287,1024,0
3881,287,1026,0
3881,286,1029,0
3881,288,1031,0
3879,288,1030,0
3881,287,1032,0
3882,286,1029,0
3885,287,1032,0
3887,291,1032,0
3890,291,1033,0
3890,297,1035,0
3892,297,1035,0
3887,300,1036,0
3882,303,1037,0
3880,305,1040,0
3871,311,1033,0
3865,313,1033,0
3855,314,1030,0
3855,311,1033,0
3854,310,1035,0
3856,309,1033,0
3861,308,1036,0
3866,307,1033,0
3871,305,1032,0
3875,300,1027,0
3875,298,1026,0
3877,296,1027,0
3868,294,1030,0
3870,293,1032,0
3874,289,1034,0
3873,283,1034,0
3878,283,1035,0
3879,286,1031,0
3879,289,1031,0
3879,292,1034,0
3876,289,1029,0
3875,289,1033,0
3875,286,1033,0
3873,293,1032,0
3868,295,1027,0
3870,296,1026,0
3869,297,1029,0
3867,300,1031,0
3871,302,1036,0
3868,299,1038,0
3865,300,1040,0
3864,301,1030,0
3871,298,1029,0
3875,295,1030,0
3877,291,1028,0
3877,285,1028,0
3873,290,1028,0
3866,289,1032,0
3872,287,1039,0
3873,289,1045,0
3879,289,1043,0
3885,290,1045,0
3887,292,1043,0
3884,288,1039,0
3882,287,1033,0
3879,289,1030,0
3879,292,1035,0
3874,294,1035,0
3862,294,1032,0
3855,294,1033,0
3855,294,1032,0
3857,296,1038,0
3858,296,1042,0
3864,297,1044,0
3867,291,1041,0
3870,292,1040,0
3872,289,1036,0
3877,294,1037,0
3882,296,1040,0
3883,296,1043,0
3883,295,1046,0
3885,295,1046,0
3882,297,1042,0
3886,295,1038,0
3884,288,1036,0
3886,284,1036,0
3883,284,1035,0
3879,288,1033,0
3876,283,1031,0
3868,278,1026,0
3862,278,1027,0
3857,274,1028,0
3854,273,1028,0
3854,270,1027,0
3852,271,1025,0
3854,270,1024,0
3857,274,1028,0
3862,272,1031,0
3869,273,1031,0
3875,278,1032,0
3878,286,1031,0
3887,293,1031,0
3893,300,1033,0
3897,299,1036,0
3899,294,1035,0
3893,294,1036,0
3887,290,1036,0
3883,287,1032,0
3880,283,1027,0
3875,283,1024,0
3863,279,1013,0
3856,278,1015,0
3853,278,1016,0
3855,276,1017,0
3862,277,1014,0
3871,282,1014,0
3876,286,1014,0
3882,288,1020,0
3881,289,1023,0
3881,290,1021,0
3876,293,1021,0
3874,298,1021,0
3870,305,1025,0
3874,310,1025,0
3876,312,1022,0
3879,312,1020,0
3879,319,1018,0
3873,320,1021,0
3869,322,1024,0
3867,319,1026,0
3868,321,1024,0
3865,325,1026,0
3869,329,1028,0
3872,327,1032,0
3875,323,1034,0
3879,323,1034,0
3880,318,1033,0
3881,313,1037,0
3879,307,1037,0
3877,304,1037,0
3878,302,1036,0
3882,305,1030,0
3884,299,1024,0
3882,302,1022,0
3884,299,1022,0
3883,295,1024,0
3881,293,1026,0
3877,291,1027,0
3864,283,1030,0
3861,277,1033,0
3858,273,1032,0
3859,263,1035,0
3867,255,1038,0
3870,258,1037,0
3875,255,1035,0
3878,257,1034,0
3877,259,1032,0
3880,262,1033,0
3878,263,1035,0
3879,268,1036,0
3877,272,1040,0
3876,272,1040,0
3873,277,1032,0
3872,281,1027,0
3875,285,1024,0
3876,289,1020,0
3876,289,1022,0
3875,288,1029,0
3870,286,1031,0
3868,285,1031,0
3865,282,1029,0
3869,278,1026,0
3876,276,1027,0
3881,276,1030,0
3885,275,1031,0
3885,274,1032,0
3887,277,1032,0
3887,278,1034,0
3886,277,1033,0
3885,279,1034,0
3881,281,1033,0
3878,277,1034,0
3874,283,1037,0
3870,287,1040,0
3867,293,1037,0
3870,295,1039,0
3869,304,1040,0
3866,307,1036,0
3871,303,1033,0
3870,307,1035,0
3866,310,1035,0
3868,310,1037,0
3870,309,1034,0
3874,307,1038,0
3875,307,1036,0
3874,304,1035,0
3882,298,1037,0
3882,294,1033,0
3886,292,1027,0
3885,290,1026,0
3882,291,1024,0
3877,290,1029,0
3864,289,1032,0
3859,283,1030,0
3857,278,1028,0
3856,282,1030,0
3857,287,1035,0
3863,286,1033,0
3869,288,1034,0
3877,285,1033,0
3886,290,1030,0
3891,294,1032,0
3895,304,1031,0
3897,310,1032,0
3902,316,1030,0
3903,319,1029,0
3898,323,1027,0
3890,324,1025,0
3884,321,1030,0
3874,312,1033,0
3864,305,1036,0
3854,296,1033,0
3848,288,1032,0
3846,287,1033,0
3849,282,1025,0
3845,279,1022,0
3852,277,1018,0
3856,277,1020,0
3858,278,1024,0
3858,280,1030,0
3857,284,1033,0
3864,286,1030,0
3869,287,1027,0
3874,291,1031,0
3880,297,1031,0
3884,299,1028,0
3885,299,1023,0
3887,298,1019,0
3882,296,1021,0
3879,298,1025,0
3878,296,1026,0
3878,300,1030,0
3877,305,1028,0
3869,306,1036,0
3869,304,1040,0
3872,309,1046,0
3875,309,1047,0
3877,307,1048,0
3880,308,1049,0
3877,315,1045,0
3876,315,1047,0
3874,314,1045,0
3874,312,1041,0
3875,313,1040,0
3874,309,1037,0
3877,309,1033,0
3878,303,1034,0
3877,294,1031,0
3876,286,1030,0
3872,282,1032,0
3868,279,1031,0
3866,276,1029,0
3863,272,1033,0
3862,268,1033,0
3858,267,1036,0
3856,268,1034,0
3859,276,1035,0
3864,278,1038,0
3865,286,1037,0
3866,285,1035,0
3871,291,1040,0
3876,292,1038,0
3875,293,1037,0
3879,293,1036,0
3880,292,1038,0
3876,289,1037,0
3873,288,1036,0
3868,287,1037,0
3869,287,1036,0
3871,286,1033,0
3874,286,1035,0
3877,281,1037,0
3881,284,1033,0
3880,283,1032,0
3883,284,1032,0
3889,282,1032,0
3887,283,1038,0
3887,280,1033,0
3885,283,1036,0
3879,283,1040,0
3875,285,1039,0
3869,287,1039,0
3869,291,1036,0
3872,288,1041,0
3869,292,1037,0
3872,293,1041,0
3872,296,1042,0
3871,295,1046,0
3872,292,1045,0
3868,288,1046,0
3869,290,1043,0
3870,293,1039,0
3873,292,1034,0
3872,294,1035,0
3873,298,1037,0
3873,302,1039,0
3869,305,1041,0
3874,309,1039,0
3873,312,1037,0
3873,311,1036,0
3869,316,1033,0
3867,317,1029,0
3865,314,1030,0
3859,314,1029,0
3858,317,1031,0
3855,321,1029,0
3852,320,1031,0
3854,318,1031,0
3864,311,1031,0
3871,305,1037,0
3877,302,1040,0
3881,300,1034,0
3883,300,1027,0
3884,300,1029,0
3884,299,1025,0
3886,298,1022,0
3886,295,1016,0
3884,302,1016,0
3880,309,1018,0
3879,307,1024,0
3877,307,1028,0
3878,308,1032,0
3867,308,1039,0
3859,304,1038,0
3851,304,1035,0
3849,301,1034,0
3847,294,1032,0
3851,290,1033,0
3852,286,1031,0
3853,288,1032,0
3856,290,1031,0
3863,291,1028,0
3872,293,1032,0
3877,293,1034,0
3880,293,1036,0
3879,298,1035,0
3883,303,1035,0
3883,301,1034,0
3884,304,1036,0
3889,307,1036,0
3888,303,1033,0
3881,301,1031,0
3876,303,1032,0
3877,305,1031,0
3877,307,1032,0
3879,309,1036,0
3880,309,1035,0
3873,310,1035,0
3869,307,1033,0
3863,307,1033,0
3863,307,1038,0
3862,305,1046,0
3869,304,1044,0
3873,306,1042,0
3878,312,1036,0
3879,311,1035,0
3879,313,1037,0
3878,313,1039,0
3880,313,1041,0
3882,313,1046,0
3881,313,1040,0
3876,309,1035,0
3872,309,1035,0
3870,308,1033,0
3866,303,1034,0
3860,298,1030,0
3860,300,1025,0
3856,298,1025,0
3854,298,1024,0
3853,299,1027,0
3849,299,1027,0
3848,302,1027,0
3850,306,1028,0
3851,305,1029,0
3855,303,1032,0
3859,308,1036,0
3863,308,1041,0
3868,310,1039,0
3870,310,1039,0
3870,309,1036,0
3872,307,1035,0
3867,308,1034,0
3864,310,1035,0
3862,307,1036,0
3867,301,1038,0
3872,300,1039,0
3874,305,1039,0
3876,306,1038,0
3882,306,1042,0
3888,304,1040,0
3885,303,1038,0
3882,303,1035,0
3877,301,1033,0
3876,301,1034,0
3872,297,1034,0
3865,295,1033,0
3860,294,1036,0
3859,293,1033,0
3857,293,1034,0
3862,291,1039,0
3866,289,1039,0
3868,288,1039,0
3873,287,1032,0
3875,287,1032,0
3878,285,1032,0
3879,287,1033,0
3884,289,1031,0
3884,290,1031,0
3877,292,1032,0
3878,293,1033,0
3878,294,1031,0
3877,296,1029,0
3880,295,1027,0
3880,296,1022,0
3878,294,1016,0
3872,295,1018,0
3866,294,1018,0
3857,291,1019,0
3856,291,1022,0
3857,291,1025,0
3859,289,1026,0
3865,289,1029,0
3873,282,1026,0
3880,280,1029,0
3888,275,1025,0
3896,274,1018,0
3898,268,1009,0
3891,270,1011,0
3891,272,1013,0
3895,279,1012,0
3892,286,1013,0
3891,293,1013,0
3886,300,1011,0
3881,303,1013,0
3879,309,1015,0
3868,307,1017,0
3862,304,1020,0
3859,305,1020,0
3854,303,1024,0
3851,298,1020,0
3849,296,1015,0
3848,296,1012,0
3851,298,1015,0
3858,301,1017,0
3861,307,1023,0
3865,308,1029,0
3873,306,1023,0
3874,308,1026,0
3876,307,1026,0
3877,307,1025,0
3877,306,1026,0
3874,311,1031,0
3875,314,1031,0
3879,315,1033,0
3883,313,1034,0
3884,318,1028,0
3885,320,1029,0
3882,322,1027,0
3886,324,1024,0
3885,324,1023,0
3882,323,1025,0
3877,321,1026,0
3874,315,1023,0
3876,309,1026,0
3875,304,1029,0
3878,302,1033,0
3883,301,1037,0
3882,300,1038,0
3882,302,1035,0
3879,302,1027,0
3878,302,1022,0
3879,296,1020,0
3876,297,1020,0
3871,296,1017,0
3864,298,1020,0
3859,299,1020,0
3858,294,1019,0
3859,289,1017,0
3861,287,1021,0
3867,281,1016,0
3873,280,1019,0
3878,277,1026,0
3880,274,1029,0
3884,271,1021,0
3886,271,1018,0
3885,268,1015,0
3883,267,1011,0
3882,265,1015,0
3881,263,1018,0
3878,258,1015,0
3880,251,1014,0
3878,252,1008,0
3877,254,1006,0
3875,255,1006,0
3874,253,1004,0
3874,256,1003,0
3879,258,1006,0
3879,259,1008,0
3884,262,1014,0
3885,265,1015,0
3887,265,1018,0
3890,263,1020,0
3889,265,1020,0
3889,264,1022,0
3887,264,1015,0
3884,266,1016,0
3882,264,1019,0
3880,268,1017,0
3878,272,1017,0
3873,279,1014,0
3871,283,1015,0
3873,280,1012,0
3876,282,1015,0
3877,281,1018,0
3874,288,1015,0
3873,292,1014,0
3873,294,1014,0
3870,297,1018,0
3876,297,1020,0
3880,298,1022,0
3889,301,1023,0
3890,303,1024,0
3889,301,1024,0
3885,298,1020,0
3881,296,1016,0
3880,294,1012,0
3878,296,1006,0
3878,294,1006,0
3871,293,1008,0
3874,290,1012,0
3879,287,1009,0
3875,283,1007,0
3871,280,1007,0
3864,278,1007,0
3860,279,1009,0
3863,280,1013,0
3869,276,1014,0
3874,279,1013,0
3879,275,1017,0
3880,280,1019,0
3879,285,1016,0
3876,291,1011,0
3877,296,1001,0
3883,297,999,0
3886,302,1000,0
3891,309,1006,0
3889,313,1009,0
3886,312,1010,0
3883,309,1015,0
3879,302,1015,0
3875,297,1015,0
3867,288,1013,0
3866,276,1011,0
3861,266,1012,0
3854,261,1009,0
3851,261,1006,0
3844,258,1003,0
3845,260,1004,0
3846,268,1005,0
3854,271,1006,0
3859,269,1004,0
3867,268,1004,0
3878,272,1007,0
3888,277,1011,0
3891,277,1020,0
3890,283,1022,0
3886,286,1023,0
3870,285,1023,0
3861,291,1027,0
3859,283,1026,0
3858,277,1026,0
3856,282,1023,0
3855,286,1019,0
3857,292,1017,0
3856,295,1017,0
3860,296,1022,0
3864,299,1029,0
3871,306,1037,0
3877,313,1040,0
3890,321,1050,0
3904,326,1057,0
3914,337,1055,0
3916,351,1048,0
3909,364,1050,0
3909,377,1052,0
3898,381,1041,0
3891,378,1034,0
3885,371,1026,0
3882,371,1029,0
3884,372,1039,0
3884,364,1041,0
3879,351,1039,0
3878,344,1040,0
3884,341,1043,0
3891,337,1041,0
3900,329,1040,0
3903,320,1043,0
3902,305,1041,0
3908,296,1036,0
3916,285,1033,0
3929,280,1031,0
3937,274,1033,0
3942,271,1037,0
3946,266,1030,0
3942,256,1022,0
3949,259,1018,0
3942,252,1010,0
3922,244,1003,0
3907,238,1003,0
3895,239,1001,0
3876,240,1003,0
3864,250,1003,0
3860,260,1007,0
3862,273,1011,0
3858,273,1005,0
3862,273,998,0
3858,277,992,0
3854,280,988,0
3844,275,983,0
3838,269,977,0
3838,263,975,0
3840,259,979,0
3844,250,980,0
3860,248,981,0
3871,244,985,0
3875,244,986,0
3885,240,985,0
3888,242,988,0
3887,236,989,0
3887,239,985,0
3890,242,980,0
3899,240,978,0
3887,234,973,0
3868,223,970,0
3855,215,966,0
3848,225,972,0
3851,236,975,0
3853,239,979,0
3856,237,978,0
3861,242,979,0
3867,255,991,0
3877,259,992,0
3883,257,990,0
3886,264,984,0
3882,274,982,0
3873,278,979,0
3867,274,977,0
3852,274,973,0
3847,274,974,0
3851,273,978,0
3852,274,985,0
3859,276,989,0
3868,279,989,0
3880,282,990,0
3890,285,994,0
3901,285,998,0
3914,283,999,0
3925,285,998,0
3934,288,995,0
3932,294,991,0
3923,294,990,0
3911,291,992,0
3900,284,992,0
3889,273,991,0
3876,268,992,0
3868,258,992,0
3862,252,988,0
3863,250,992,0
3864,248,993,0
3863,245,992,0
3869,245,991,0
3871,249,992,0
3869,256,993,0
3867,258,998,0
3868,260,1002,0
3871,260,1004,0
3873,260,1007,0
3877,263,1001,0
3879,268,1001,0
3878,272,1000,0
3879,268,1004,0
3878,268,1001,0
3873,266,1001,0
3871,266,1002,0
3868,266,1007,0
3876,265,1006,0
3881,268,1007,0
3887,271,1009,0
3889,275,1017,0
3893,278,1021,0
3903,280,1020,0
3904,281,1018,0
3907,285,1019,0
3908,284,1015,0
3905,284,1012,0
3900,287,1011,0
3898,290,1009,0
3897,295,1006,0
3897,299,1008,0
3896,302,1010,0
3895,299,1011,0
3891,299,1010,0
3892,300,1008,0
3888,297,1009,0
3883,293,1011,0
3880,291,1013,0
3880,284,1014,0
3876,279,1015,0
3869,276,1011,0
3861,277,1007,0
3858,277,1007,0
3860,276,1006,0
3863,276,1008,0
3872,275,1004,0
3878,275,1004,0
3878,276,1001,0
3877,270,998,0
3877,268,1001,0
3877,266,1003,0
3878,268,1009,0
3882,268,1010,0
3883,270,1008,0
3887,269,1010,0
3887,264,1009,0
3892,263,1009,0
3892,266,1004,0
3889,264,1001,0
3886,263,1002,0
3882,265,1002,0
3881,258,1006,0
3880,254,1006,0
3885,260,1009,0
3888,261,1014,0
3886,259,1011,0
3889,262,1011,0
3886,266,1007,0
3887,269,1005,0
3890,268,1003,0
3890,263,1003,0
3888,262,1003,0
3886,265,999,0
3879,264,1000,0
3869,268,998,0
3861,269,1000,0
3854,267,1005,0
3856,272,1013,0
3863,270,1017,0
3872,265,1014,0
3883,262,1013,0
3886,255,1004,0
3893,258,1004,0
3896,258,1009,0
3898,254,1015,0
3896,250,1016,0
3899,250,1014,0
3897,252,1007,0
3904,251,1009,0
3908,255,1007,0
3906,260,1007,0
3897,261,1007,0
3885,264,1006,0
3877,272,1004,0
3866,269,1003,0
3857,274,1003,0
3849,277,1002,0
3849,277,999,0
3850,280,998,0
3852,277,998,0
3859,278,998,0
3866,279,1001,0
3873,279,1004,0
3883,280,1004,0
3893,283,1004,0
3900,284,1002,0
3909,290,1003,0
3923,291,1010,0
3928,288,1009,0
3926,286,1009,0
3919,283,1008,0
3910,278,1008,0
3893,269,1006,0
3881,258,1005,0
3865,245,1000,0
3854,229,999,0
3851,211,1003,0
3846,197,1001,0
3838,188,992,0
3832,176,988,0
3833,171,983,0
3837,166,982,0
3843,157,986,0
3850,147,992,0
3861,137,995,0
3868,154,993,0
3884,178,999,0
3895,195,1002,0
3905,208,1004,0
3915,217,1012,0
3915,235,1014,0
3913,249,1011,0
3923,263,1010,0
3921,291,1010,0
3911,312,1017,0
3902,329,1023,0
3893,337,1029,0
3884,351,1029,0
3878,362,1034,0
3880,380,1033,0
3885,391,1039,0
3889,402,1044,0
3887,403,1040,0
3880,401,1038,0
3878,394,1038,0
3875,384,1040,0
3874,380,1038,0
3871,373,1033,0
3872,371,1024,0
3864,363,1020,0
3848,354,1012,0
3830,343,1008,0
3813,333,1003,0
3804,325,1004,0
3804,314,1007,0
3806,312,1012,0
3816,310,1022,0
3825,308,1028,0
3841,303,1032,0
3849,302,1029,0
3862,306,1032,0
3869,307,1029,0
3879,302,1021,0
3878,297,1016,0
3873,293,1012,0
3858,298,1007,0
3839,302,1006,0
3830,304,1001,0
3835,299,997,0
3845,301,994,0
3861,312,1005,0
3878,325,1021,0
3897,326,1026,0
3915,321,1027,0
3925,322,1024,0
3932,316,1018,0
3932,307,1009,0
3932,299,1002,0
3923,287,1000,0
3910,277,997,0
3899,267,997,0
3889,261,1001,0
3885,255,998,0
3884,255,994,0
3891,257,989,0
3902,257,987,0
3918,255,989,0
3930,252,983,0
3932,246,976,0
3927,248,976,0
3915,248,980,0
3899,242,983,0
3882,234,984,0
3867,226,978,0
3858,223,969,0
3854,215,966,0
3854,201,964,0
3860,193,954,0
3860,192,948,0
3864,187,940,0
3864,180,937,0
3858,172,943,0
3853,164,943,0
3850,155,943,0
3848,147,943,0
3843,143,937,0
3847,138,940,0
3854,136,942,0
3863,135,947,0
3874,140,949,0
3888,148,952,0
3895,157,950,0
3900,163,946,0
3904,173,941,0
3909,188,946,0
3921,193,954,0
3923,198,956,0
3919,205,956,0
3922,216,951,0
3921,227,949,0
3927,227,962,0
3928,229,964,0
3925,225,966,0
3920,228,964,0
3914,228,962,0
3901,224,959,0
3891,222,957,0
3869,217,953,0
3850,212,952,0
3829,205,957,0
3806,199,963,0
3794,193,968,0
3794,191,976,0
3809,192,982,0
3839,197,989,0
3875,205,998,0
3913,215,1004,0
3953,222,1006,0
3989,231,1015,0
4017,233,1018,0
4025,237,1011,0
4018,240,1006,0
3999,245,1001,0
3970,250,992,0
3941,252,992,0
3907,255,990,0
3872,250,985,0
3845,259,982,0
3821,272,982,0
3808,279,983,0
3801,282,981,0
3793,288,987,0
3793,292,997,0
3789,295,1007,0
3793,298,1009,0
3805,300,1018,0
3819,301,1026,0
3841,300,1033,0
3857,302,1038,0
3864,304,1040,0
3866,304,1038,0
3858,306,1039,0
3853,310,1036,0
3842,313,1034,0
3832,313,1031,0
3825,313,1028,0
3825,317,1024,0
3826,315,1027,0
3829,311,1033,0
3831,313,1035,0
3830,314,1033,0
3822,311,1027,0
3819,307,1028,0
3813,302,1033,0
3805,293,1038,0
3797,280,1036,0
3785,267,1025,0
3766,254,1019,0
3740,239,1010,0
3720,220,1003,0
3688,200,995,0
3656,178,995,0
3638,151,998,0
3616,132,999,0
3607,121,1006,0
3609,125,1016,0
3617,129,1027,0
3632,143,1045,0
3650,158,1061,0
3676,176,1074,0
3712,207,1097,0
3768,241,1125,0
3844,286,1172,0
3930,327,1229,0
4006,364,1274,0
4054,399,1272,0
4095,448,1253,0
4129,504,1251,0
4138,541,1266,0
4133,530,1267,0
4103,485,1224,0
4047,440,1171,0
3983,413,1143,0
3918,397,1136,0
3857,373,1139,0
3808,351,1159,0
3771,331,1195,0
3743,313,1205,0
3731,301,1175,0
3727,310,1139,0
3734,326,1110,0
3746,325,1094,0
3754,297,1103,0
3748,257,1114,0
3734,227,1128,0
3711,217,1128,0
3675,214,1100,0
3662,211,1068,0
3667,199,1028,0
3697,182,979,0
3747,162,942,0
3818,123,881,0
3904,82,807,0
3980,54,743,0
4027,44,716,0
4047,28,717,0
4045,1,685,0
4022,-12,627,0
3998,-10,581,0
3996,-7,544,0
4025,-14,510,0
4065,-16,529,0
4110,-8,565,0
4144,9,581,0
4156,26,586,0
4157,50,580,0
4148,75,558,0
4128,107,543,0
4118,134,529,0
4110,176,521,0
4103,238,524,0
4091,317,550,0
4082,387,566,0
4077,443,570,0
4074,491,566,0
4054,542,550,0
4017,600,519,0
3980,644,493,0
3953,684,490,0
3942,701,493,0
3963,702,495,0
3963,678,484,0
3965,654,462,0
3954,636,441,0
3949,605,422,0
3950,550,418,0
3954,482,420,0
3981,410,417,0
4006,325,401,0
4030,233,384,0
4041,150,380,0
4055,58,384,0
4063,-32,381,0
4081,-129,358,0
4091,-201,339,0
4099,-241,331,0
4102,-248,330,0
4105,-236,327,0
4106,-198,334,0
4106,-140,360,0
4106,-74,384,0
4100,-10,385,0
4073,69,388,0
4041,173,393,0
4011,284,393,0
3982,409,407,0
3957,543,418,0
3927,686,423,0
3904,810,430,0
3872,908,432,0
3814,1040,469,0
3779,1114,482,0
3742,1166,479,0
3710,1235,496,0
3702,1274,495,0
3715,1259,474,0
3728,1246,463,0
3779,1211,449,0
3830,1165,428,0
3882,1114,418,0
3945,1092,440,0
4025,1017,411,0
4080,965,410,0
4108,933,397,0
4138,886,394,0
4174,808,377,0
4206,748,349,0
4232,735,338,0
4239,737,365,0
4216,714,356,0
4182,687,364,0
4133,673,393,0
4117,603,373,0
4111,520,352,0
4089,507,364,0
4070,512,390,0
4071,447,377,0
4028,429,388,0
3988,424,385,0
3970,409,342,0
3956,430,315,0
3957,435,305,0
3942,467,291,0
3919,509,266,0
3925,500,211,0
3922,530,176,0
3924,580,175,0
3929,615,199,0
3953,621,217,0
3978,566,187,0
3968,596,205,0
3974,624,225,0
3993,629,215,0
3991,653,281,0
4029,556,249,0
4005,569,242,0
3990,635,265,0
3983,703,274,0
4004,674,253,0
3984,660,244,0
3935,722,243,0
3897,774,235,0
3877,798,239,0
3847,816,229,0
3843,807,234,0
3856,796,218,0
3876,872,245,0
3895,939,255,0
3924,958,254,0
3937,973,269,0
3935,959,264,0
3919,946,271,0
3909,942,268,0
3895,947,262,0
3873,957,291,0
3854,948,323,0
3862,950,317,0
3892,999,298,0
3944,1069,267,0
4009,1134,249,0
4060,1192,230,0
4090,1229,223,0
4109,1247,239,0
4122,1249,235,0
4164,1242,227,0
4230,1244,235,0
4318,1226,284,0
4409,1192,307,0
4518,1128,296,0
4640,1032,266,0
4776,914,246,0
4923,798,222,0
5054,672,181,0
5161,530,111,0
5236,409,29,0
5260,271,-59,0
5255,153,-97,0
5239,71,-100,0
5247,34,-79,0
5283,87,-27,0
5351,221,66,0
5425,397,165,0
5482,562,245,0
5500,713,289,0
5483,820,308,0
5448,886,321,0
5433,924,347,0
5464,927,383,0
5538,924,441,0
5635,912,499,0
5712,899,533,0
5728,872,543,0
5658,809,547,0
5498,730,578,0
5380,423,501,0
5231,176,411,0
5088,2,339,0
4925,-193,277,0
4748,-353,279,0
4621,-640,212,0
4513,-851,190,0
4402,-962,187,0
4341,-1048,189,0
4338,-1098,189,0
4368,-1070,174,0
4457,-975,219,0
4580,-827,338,0
4646,-644,412,0
4716,-403,516,0
4745,-135,567,0
4761,170,569,0
4769,480,547,0
4810,763,629,0
4858,1014,870,0
4838,1186,1152,0
4705,1297,1374,0
4464,1346,1462,0
4174,1315,1390,0
3909,1249,1234,0
3712,1198,1082,0
3637,1162,959,0
3680,1120,878,0
3804,1046,803,0
3950,938,731,0
4082,815,661,0
4204,708,588,0
4328,618,503,0
4469,513,437,0
4603,377,393,0
4750,241,358,0
4925,117,344,0
5066,33,351,0
5176,-49,329,0
5276,-146,314,0
5312,-204,338,0
5339,-283,385,0
5324,-365,449,0
5257,-433,498,0
5132,-484,496,0
4958,-510,455,0
4780,-540,424,0
4599,-560,365,0
4418,-541,270,0
4243,-495,161,0
4077,-446,77,0
3918,-376,34,0
3760,-289,18,0
3613,-210,15,0
3478,-135,26,0
3375,-68,50,0
3304,3,101,0
3260,94,177,0
3240,196,253,0
3252,313,349,0
3281,441,469,0
3335,562,560,0
3405,669,620,0
3489,747,666,0
3587,788,725,0
3675,793,805,0
3794,807,893,0
3835,830,884,0
3759,865,759,0
3619,878,610,0
3459,857,518,0
3290,819,484,0
3101,791,498,0
2899,789,521,0
2711,828,555,0
2541,884,576,0
2410,952,597,0
2330,1029,633,0
2291,1101,682,0
2287,1169,748,0
2306,1237,824,0
2345,1284,873,0
2381,1309,899,0
2400,1304,910,0
2396,1271,898,0
2367,1212,871,0
2326,1135,860,0
2290,1052,860,0
2260,969,865,0
2235,901,880,0
2228,833,919,0
2222,770,967,0
2213,718,1012,0
2201,681,1055,0
2177,644,1097,0
2130,602,1150,0
2077,566,1203,0
2022,532,1272,0
1983,502,1355,0
1964,472,1458,0
1984,461,1572,0
2040,461,1678,0
2123,472,1756,0
2217,501,1810,0
2334,530,1854,0
2465,548,1877,0
2596,564,1875,0
2714,591,1857,0
2810,648,1820,0
2903,713,1783,0
2975,774,1775,0
3031,849,1787,0
3075,926,1821,0
3094,1005,1883,0
3090,1089,1945,0
3059,1171,1997,0
3000,1246,2040,0
2913,1315,2075,0
2831,1365,2103,0
2750,1397,2132,0
2676,1399,2172,0
2612,1386,2211,0
2551,1370,2259,0
2511,1342,2306,0
2495,1311,2326,0
2512,1283,2333,0
2577,1238,2344,0
2678,1188,2350,0
2804,1123,2386,0
2921,1054,2437,0
3026,966,2531,0
3115,904,2677,0
3218,903,2859,0
3386,939,2986,0
3709,925,2989,0
4249,781,2800,0
5026,493,2412,0
5978,136,1886,0
6905,-137,1366,0
7677,-85,1126,0
8244,291,1273,0
8554,756,1590,0
8628,1017,1764,0
8586,1028,1694,0
8444,884,1380,0
8120,733,1001,0
7512,688,814,0
6719,754,859,0
5922,915,959,0
5211,1049,935,0
4631,1104,879,0
4195,1117,828,0
3913,1089,733,0
3739,995,619,0
3654,851,537,0
3638,668,379,0
3616,516,94,0
3562,438,-205,0
3498,430,-375,0
3444,424,-418,0
3397,397,-450,0
3349,351,-476,0
3302,300,-419,0
3282,229,-279,0
3295,116,-109,0
3332,-28,41,0
3390,-194,167,0
3459,-352,275,0
3555,-502,365,0
3674,-639,430,0
3813,-786,453,0
3955,-900,461,0
4101,-977,482,0
4244,-1007,508,0
4383,-995,522,0
4512,-930,518,0
4614,-807,501,0
4675,-621,475,0
4695,-403,432,0
4679,-172,384,0
4624,50,345,0
4547,268,319,0
4444,467,298,0
4340,650,291,0
4247,822,316,0
4172,981,365,0
4104,1127,440,0
4042,1234,512,0
3978,1318,586,0
3895,1392,628,0
3786,1454,648,0
3676,1475,672,0
3571,1457,694,0
3479,1395,688,0
3372,1318,665,0
3273,1218,640,0
3189,1104,615,0
3116,994,582,0
3053,897,537,0
3015,817,488,0
3006,743,458,0
3014,676,430,0
3022,612,404,0
3027,567,380,0
3024,536,375,0
3008,518,344,0
2995,504,349,0
2959,533,356,0
2912,556,379,0
2853,567,389,0
2789,541,375,0
2724,518,382,0
2680,481,371,0
2657,439,374,0
2663,383,340,0
2679,331,331,0
2688,295,314,0
2710,248,300,0
2719,214,310,0
2748,175,323,0
2793,122,293,0
2858,91,185,0
2938,120,103,0
3020,178,80,0
3107,219,151,0
3198,234,225,0
3277,254,252,0
3334,283,246,0
3371,300,205,0
3407,313,188,0
3449,320,220,0
3489,313,247,0
3520,323,277,0
3555,347,298,0
3615,386,307,0
3683,456,304,0
3733,552,321,0
3774,640,341,0
3799,727,369,0
3833,817,396,0
3861,917,424,0
3872,1000,456,0
3842,1068,456,0
3801,1111,485,0
3777,1151,567,0
3766,1206,602,0
3782,1292,585,0
3820,1442,544,0
3880,1613,468,0
3974,1744,427,0
4070,1813,461,0
4166,1850,521,0
4240,1853,581,0
4288,1836,632,0
4321,1810,682,0
4331,1800,699,0
4337,1801,678,0
4343,1795,626,0
4366,1778,554,0
4399,1752,468,0
4451,1742,395,0
4526,1753,359,0
4623,1749,374,0
4735,1724,405,0
4863,1668,478,0
4991,1594,513,0
5137,1524,512,0
5280,1466,492,0
5416,1414,453,0
5538,1346,412,0
5633,1258,361,0
5725,1134,307,0
5829,991,265,0
5936,830,263,0
6024,641,305,0
6071,407,366,0
6072,139,455,0
6021,-124,570,0
5918,-382,709,0
5786,-617,826,0
5628,-834,875,0
5487,-1022,911,0
5361,-1171,969,0
5245,-1276,1010,0
5154,-1319,1063,0
5060,-1295,1114,0
4938,-1213,1162,0
4806,-1066,1205,0
4697,-916,1278,0
4637,-765,1400,0
4618,-570,1582,0
4588,-355,1667,0
4533,-152,1500,0
4531,54,1228,0
4617,286,1140,0
4717,468,1240,0
4741,563,1348,0
4655,640,1355,0
4494,743,1239,0
4337,842,1035,0
4232,918,860,0
4206,974,811,0
4261,1040,896,0
4355,1112,970,0
4453,1170,931,0
4563,1226,793,0
4715,1319,656,0
4913,1413,671,0
5092,1463,770,0
5224,1418,787,0
5313,1326,735,0
5380,1226,648,0
5420,1123,583,0
5447,1001,588,0
5414,879,595,0
5326,777,607,0
5180,691,625,0
4963,618,598,0
4708,556,497,0
4450,475,323,0
4226,385,126,0
4035,285,-30,0
3890,203,-117,0
3775,154,-133,0
3664,161,-100,0
3562,225,-35,0
3479,321,43,0
3430,423,130,0
3416,510,207,0
3413,579,298,0
3416,639,394,0
3409,698,478,0
3390,741,559,0
3353,753,631,0
3341,728,683,0
3365,677,700,0
3329,600,676,0
3232,523,639,0
3096,447,628,0
2949,378,617,0
2817,348,623,0
2699,361,634,0
2598,416,650,0
2506,487,670,0
2410,534,677,0
2320,577,665,0
2225,637,650,0
2144,699,635,0
2077,746,612,0
2020,770,595,0
1998,790,626,0
1992,790,642,0
1990,762,662,0
1993,713,684,0
2015,662,706,0
2044,626,704,0
2085,603,697,0
2133,588,691,0
2174,589,683,0
2209,593,693,0
2239,589,730,0
2267,582,795,0
2290,571,889,0
2307,559,1002,0
2305,564,1114,0
2290,566,1234,0
2271,557,1353,0
2248,557,1477,0
2222,566,1565,0
2189,583,1616,0
2168,596,1632,0
2157,605,1618,0
2159,612,1576,0
2167,621,1532,0
2199,615,1499,0
2256,603,1503,0
2333,591,1532,0
2422,595,1587,0
2524,620,1660,0
2628,646,1739,0
2728,673,1808,0
2816,714,1875,0
2892,768,1921,0
2966,808,1941,0
3028,845,1949,0
3116,853,1937,0
3216,864,1921,0
3330,881,1930,0
3471,898,1960,0
3621,925,1960,0
3764,946,1930,0
3890,985,1916,0
4009,1004,1903,0
4137,979,1947,0
4239,943,2107,0
4341,861,2324,0
4494,756,2502,0
4793,630,2538,0
5256,496,2339,0
5791,371,2019,0
6301,244,1714,0
6723,153,1548,0
7040,69,1531,0
7227,-32,1600,0
7253,-146,1594,0
7087,-244,1404,0
6745,-312,1071,0
6277,-296,780,0
5751,-165,631,0
5264,84,654,0
4867,401,719,0
4542,678,679,0
4287,881,570,0
4101,965,422,0
4002,941,245,0
3960,806,63,0
3920,650,-71,0
3865,513,-115,0
3815,402,-92,0
3749,322,-36,0
3677,239,19,0
3601,151,74,0
3523,111,168,0
3447,111,273,0
3388,125,343,0
3366,144,392,0
3389,177,460,0
3473,211,541,0
3608,244,610,0
3786,280,659,0
3982,334,692,0
4202,392,722,0
4424,452,756,0
4624,528,772,0
4774,609,776,0
4883,688,759,0
4941,748,729,0
4945,788,696,0
4894,807,654,0
4810,787,608,0
4701,738,570,0
4590,667,519,0
4481,593,484,0
4383,532,475,0
4303,493,499,0
4247,497,551,0
4204,535,613,0
4166,595,661,0
4124,679,699,0
4077,741,723,0
4026,769,731,0
3962,772,726,0
3879,758,725,0
3789,728,725,0
3698,668,703,0
3604,616,667,0
3512,598,639,0
3424,594,602,0
3350,588,568,0
3306,567,529,0
3283,540,473,0
3297,502,431,0
3312,513,436,0
3316,554,432,0
3320,566,411,0
3307,591,385,0
3270,649,360,0
3236,709,415,0
3183,744,456,0
3133,733,472,0
3093,686,471,0
3049,616,412,0
3026,540,330,0
3029,514,287,0
3065,503,292,0
3115,466,315,0
3172,386,381,0
3209,269,398,0
3218,134,333,0
3226,18,256,0
3221,-27,209,0
3225,-44,154,0
3225,-36,157,0
3234,-83,235,0
3238,-166,372,0
3219,-221,506,0
3179,-236,547,0
3132,-216,504,0
3086,-177,438,0
3060,-116,403,0
3054,-4,355,0
3075,208,287,0
3139,465,266,0
3236,714,303,0
3332,939,382,0
3398,1107,464,0
3413,1234,526,0
3379,1309,520,0
3327,1358,530,0
3284,1356,526,0
3280,1303,512,0
3309,1231,454,0
3358,1186,363,0
3407,1189,249,0
3465,1194,154,0
3555,1203,127,0
3649,1217,152,0
3741,1233,221,0
3824,1230,310,0
3900,1215,411,0
3965,1205,497,0
4033,1206,556,0
4088,1208,564,0
4149,1193,543,0
4224,1163,513,0
4307,1130,497,0
4420,1095,512,0
4558,1041,559,0
4731,975,618,0
4908,915,665,0
5069,890,673,0
5203,917,673,0
5333,960,707,0
5470,955,761,0
5612,897,817,0
5762,796,862,0
5920,681,881,0
6056,605,885,0
6153,574,919,0
6178,538,962,0
6095,449,984,0
5930,283,1019,0
5700,55,1020,0
5451,-191,1011,0
5227,-424,1006,0
5040,-603,997,0
4900,-709,997,0
4861,-763,1041,0
4912,-743,1151,0
4982,-690,1249,0
5059,-573,1325,0
5153,-430,1394,0
5206,-313,1359,0
5229,-184,1338,0
5219,-42,1349,0
5128,81,1312,0
4965,211,1222,0
4772,351,1132,0
4571,492,1075,0
4372,613,1025,0
4205,706,983,0
4068,803,975,0
3993,914,1005,0
4002,1016,1008,0
4045,1133,976,0
4115,1253,913,0
4244,1366,891,0
4427,1438,858,0
4652,1453,846,0
4878,1427,885,0
5068,1392,923,0
5194,1372,965,0
5272,1342,983,0
5283,1312,958,0
5235,1266,920,0
5147,1189,861,0
5041,1081,800,0
4904,944,709,0
4709,817,591,0
4498,707,474,0
4292,635,367,0
4102,597,277,0
3970,573,229,0
3919,545,228,0
3916,512,274,0
3929,490,341,0
3932,495,377,0
3926,508,399,0
3921,527,419,0
3893,560,443,0
3848,584,480,0
3790,585,527,0
3704,568,560,0
3595,554,588,0
3474,531,620,0
3358,490,645,0
3242,439,659,0
3127,376,674,0
3039,315,699,0
2976,287,734,0
2891,280,756,0
2785,295,766,0
2685,325,779,0
2586,371,792,0
2486,449,823,0
2389,543,859,0
2301,637,880,0
2227,719,878,0
2160,749,838,0
2096,763,809,0
2033,804,799,0
1981,842,795,0
1955,855,808,0
1937,853,797,0
1931,838,762,0
1947,813,743,0
1977,790,735,0
2025,781,754,0
2085,782,769,0
2144,799,775,0
2199,822,787,0
2252,843,820,0
2291,873,867,0
2319,911,938,0
2332,934,1022,0
2326,935,1110,0
2298,906,1192,0
2235,874,1268,0
2157,847,1331,0
2069,824,1382,0
1975,787,1432,0
1900,768,1480,0
1863,737,1531,0
1869,703,1598,0
1916,683,1680,0
2000,697,1764,0
2107,746,1845,0
2226,824,1912,0
2348,898,1966,0
2471,966,2011,0
2593,1017,2048,0
2691,1073,2085,0
2779,1105,2111,0
2854,1136,2129,0
2941,1160,2148,0
3040,1164,2140,0
3150,1152,2101,0
3275,1122,2060,0
3435,1094,1992,0
3623,1076,1938,0
3828,1076,1902,0
4018,1148,1923,0
4228,1214,1963,0
4416,1300,2092,0
4568,1347,2340,0
4639,1362,2699,0
4703,1290,3048,0
4884,1131,3240,0
5276,904,3190,0
5882,619,2834,0
6589,396,2274,0
7159,311,1734,0
7463,287,1380,0
7485,243,1225,0
7279,107,1149,0
6919,-96,1069,0
6492,-305,919,0
6045,-468,695,0
5606,-477,466,0
5172,-294,358,0
4798,-22,396,0
4544,226,514,0
4403,390,600,0
4345,466,637,0
4355,471,636,0
4392,417,566,0
4439,342,463,0
4479,269,346,0
4440,235,188,0
4331,222,19,0
4180,198,-112,0
3988,156,-161,0
3779,109,-108,0
3571,64,-2,0
3366,32,128,0
3190,-9,279,0
3065,-73,418,0
2988,-128,511,0
2972,-145,560,0
3024,-133,579,0
3149,-93,586,0
3335,-31,592,0
3567,53,589,0
3819,153,565,0
4050,260,529,0
4267,392,486,0
4434,528,448,0
4555,668,416,0
4612,798,391,0
4628,897,385,0
4598,970,403,0
4520,1028,417,0
4420,1069,420,0
4323,1108,427,0
4245,1155,446,0
4190,1206,465,0
4157,1267,495,0
4132,1324,536,0
4102,1365,572,0
4047,1385,600,0
3961,1392,632,0
3848,1373,644,0
3728,1332,645,0
3608,1263,642,0
3482,1189,637,0
3360,1120,636,0
3261,1044,632,0
3179,954,608,0
3114,873,578,0
3077,805,559,0
3053,738,526,0
3032,690,477,0
3008,655,446,0
2988,628,423,0
2984,569,421,0
2985,505,438,0
2985,436,436,0
2968,376,392,0
2945,342,338,0
2926,328,312,0
2924,294,292,0
2923,253,253,0
2938,229,201,0
2941,225,193,0
2942,190,199,0
2946,132,186,0
2959,72,179,0
2974,35,181,0
3001,-5,168,0
3041,-58,203,0
3083,-87,227,0
3130,-88,251,0
3179,-95,245,0
3214,-115,233,0
3254,-135,281,0
3303,-162,382,0
3341,-170,415,0
3357,-109,333,0
3361,-14,218,0
3352,102,153,0
3355,213,134,0
3375,312,167,0
3409,404,186,0
3448,518,190,0
3484,644,219,0
3517,793,286,0
3537,969,357,0
3592,1115,406,0
3669,1231,476,0
3759,1319,497,0
3864,1403,515,0
3970,1481,480,0
4064,1529,424,0
4158,1545,369,0
4245,1533,341,0
4318,1514,340,0
4389,1493,339,0
4452,1511,388,0
4491,1562,403,0
4537,1618,389,0
4594,1696,394,0
4671,1787,400,0
4763,1885,408,0
4855,1970,406,0
4937,2042,422,0
5011,2101,446,0
5043,2131,483,0
5053,2129,534,0
5064,2090,597,0
5098,1995,638,0
5150,1863,668,0
5235,1719,697,0
5323,1561,727,0
5384,1376,740,0
5426,1163,733,0
5466,925,727,0
5509,693,730,0
5561,467,738,0
5642,252,772,0
5753,71,827,0
5874,-98,883,0
5936,-257,905,0
5926,-410,920,0
5850,-580,902,0
5711,-744,853,0
5534,-880,791,0
5327,-984,702,0
5156,-994,706,0
4970,-938,705,0
4851,-912,685,0
4798,-839,771,0
4792,-700,928,0
4821,-492,1082,0
4859,-251,1143,0
4932,-16,1105,0
5057,211,1129,0
5175,403,1251,0
5198,533,1381,0
5087,631,1425,0
4880,702,1389,0
4638,737,1285,0
4421,762,1166,0
4257,783,1062,0
4164,794,1011,0
4139,804,1027,0
4158,835,1051,0
4195,881,1005,0
4223,943,894,0
4261,1030,752,0
4340,1142,705,0
4431,1251,693,0
4540,1331,693,0
4651,1369,717,0
4757,1382,737,0
4836,1383,740,0
4867,1388,718,0
4848,1393,682,0
4785,1386,631,0
4689,1376,575,0
4559,1363,516,0
4397,1345,447,0
4240,1310,373,0
4090,1266,288,0
3968,1207,237,0
3882,1125,232,0
3814,1032,220,0
3760,940,199,0
3726,844,194,0
3705,755,216,0
3667,706,261,0
3619,676,326,0
3554,652,394,0
3463,616,420,0
3355,579,417,0
3248,525,410,0
3142,447,417,0
3035,362,443,0
2927,278,450,0
2822,185,453,0
2727,99,473,0
2653,41,491,0
2560,-1,484,0
2443,-27,465,0
2337,-36,455,0
2237,-31,456,0
2165,-16,483,0
2118,2,528,0
2114,29,574,0
2154,69,627,0
2230,124,678,0
2316,179,712,0
2403,231,730,0
2483,281,729,0
2568,330,731,0
2674,409,776,0
2764,439,778,0
2842,447,782,0
2935,463,821,0
3035,478,880,0
3124,497,934,0
3202,532,979,0
3258,570,1015,0
3284,601,1056,0
3282,626,1110,0
3251,660,1178,0
3182,682,1251,0
3083,689,1342,0
2938,682,1428,0
2768,656,1511,0
2580,621,1574,0
2401,584,1629,0
2233,565,1668,0
2103,551,1698,0
2002,537,1716,0
1937,538,1730,0
1918,549,1733,0
1937,572,1742,0
1992,598,1756,0
2062,653,1792,0
2159,695,1816,0
2265,735,1838,0
2373,791,1868,0
2479,880,1909,0
2552,983,1942,0
2618,1036,1965,0
2678,1074,2003,0
2726,1128,2057,0
2760,1159,2100,0
2794,1168,2123,0
2833,1155,2130,0
2873,1147,2119,0
2916,1128,2091,0
2980,1110,2052,0
3053,1117,2024,0
3123,1142,2050,0
3186,1146,2110,0
3206,1167,2201,0
3175,1210,2314,0
3149,1242,2358,0
3191,1257,2328,0
3334,1212,2195,0
3590,1074,1984,0
3938,835,1702,0
4388,545,1426,0
4906,253,1250,0
5416,25,1276,0
5870,-58,1487,0
6316,-85,1748,0
6769,-169,1867,0
7147,-323,1815,0
7365,-454,1630,0
7371,-451,1330,0
7158,-299,963,0
6780,-109,640,0
6331,80,385,0
5872,299,206,0
5393,621,104,0
4930,948,123,0
4537,1191,292,0
4267,1294,431,0
4091,1273,402,0
3955,1192,289,0
3861,1093,216,0
3790,992,199,0
3729,870,201,0
3662,734,191,0
3589,587,192,0
3514,464,214,0
3440,392,231,0
3383,347,242,0
3357,290,258,0
3393,218,304,0
3476,146,369,0
3603,75,431,0
3757,10,472,0
3924,-44,506,0
4083,-80,547,0
4230,-102,583,0
4362,-133,591,0
4455,-159,575,0
4513,-187,531,0
4548,-198,500,0
4544,-186,468,0
4506,-144,436,0
4438,-84,422,0
4353,-14,403,0
4257,78,401,0
4175,188,427,0
4090,307,446,0
4020,451,462,0
3988,609,482,0
3998,779,473,0
4029,955,527,0
4065,1117,577,0
4083,1264,600,0
4081,1396,600,0
4029,1516,610,0
3932,1616,633,0
3805,1677,638,0
3650,1701,633,0
3477,1698,634,0
3305,1659,617,0
3163,1593,595,0
3049,1512,571,0
2957,1421,540,0
2882,1326,501,0
2836,1211,463,0
2813,1085,443,0
2800,983,445,0
2780,888,425,0
2756,798,448,0
2719,720,466,0
2669,646,496,0
2622,557,522,0
2585,455,524,0
2562,368,532,0
2547,322,496,0
2529,323,444,0
2528,291,381,0
2554,243,339,0
2590,209,302,0
2642,188,295,0
2699,145,289,0
2778,70,273,0
2855,-10,300,0
2912,-69,291,0
2974,-128,286,0
3034,-184,262,0
3094,-216,207,0
3149,-197,211,0
3188,-168,242,0
3257,-160,344,0
3323,-147,371,0
3398,-105,302,0
3471,-16,231,0
3546,110,153,0
3654,238,115,0
3763,391,118,0
3854,541,114,0
3936,682,120,0
4000,819,150,0
4064,946,231,0
4112,1074,310,0
4122,1152,317,0
4107,1216,348,0
4075,1283,330,0
4041,1345,338,0
4039,1365,313,0
4069,1355,353,0
4109,1321,400,0
4162,1314,471,0
4239,1315,467,0
4318,1324,464,0
4375,1323,422,0
4413,1321,419,0
4425,1312,422,0
4423,1280,426,0
4419,1244,424,0
4434,1223,426,0
4446,1225,422,0
4468,1243,389,0
4513,1278,344,0
4570,1312,313,0
4642,1344,310,0
4716,1349,343,0
4799,1350,388,0
4911,1382,430,0
5050,1432,469,0
5178,1479,489,0
5295,1487,477,0
5390,1451,407,0
5472,1398,310,0
5537,1327,220,0
5600,1249,165,0
5665,1169,165,0
5721,1099,203,0
5762,1021,276,0
5793,936,345,0
5806,849,396,0
5805,759,429,0
5787,661,459,0
5763,547,494,0
5732,394,534,0
5703,201,581,0
5672,-18,628,0
5644,-251,676,0
5596,-476,713,0
5540,-661,762,0
5481,-828,821,0
5415,-938,872,0
5307,-975,895,0
5235,-1105,868,0
5153,-1219,838,0
5034,-1242,825,0
4908,-1210,837,0
4824,-1156,868,0
4803,-1073,944,0
4838,-948,1058,0
4898,-772,1152,0
4944,-550,1163,0
4984,-293,1135,0
5009,-83,1145,0
4988,64,1222,0
4876,159,1286,0
4705,239,1306,0
4503,324,1262,0
4306,405,1191,0
4135,486,1117,0
3983,577,1042,0
3859,689,967,0
3777,809,882,0
3731,922,762,0
3717,1021,600,0
3742,1106,453,0
3808,1191,381,0
3905,1279,364,0
4009,1370,432,0
4107,1448,546,0
4191,1507,635,0
4251,1558,697,0
4297,1578,712,0
4342,1558,704,0
4390,1509,702,0
4429,1443,698,0
4422,1377,675,0
4365,1320,632,0
4256,1243,562,0
4129,1134,491,0
3993,990,429,0
3857,838,389,0
3743,703,382,0
3660,579,375,0
3591,503,360,0
3530,458,323,0
3467,419,267,0
3407,372,221,0
3342,327,216,0
3265,300,232,0
3179,269,266,0
3077,233,309,0
2976,202,341,0
2874,169,381,0
2794,113,430,0
2724,59,498,0
2659,18,577,0
2591,-18,651,0
2526,-50,690,0
2502,-74,710,0
2508,-88,712,0
2508,-83,683,0
2493,-61,647,0
2489,-33,639,0
2477,13,637,0
2471,80,660,0
2470,175,692,0
2489,292,735,0
2524,416,773,0
2563,517,794,0
2601,612,802,0
2665,694,838,0
2740,756,870,0
2794,789,866,0
2840,833,862,0
2892,864,867,0
2924,894,886,0
2949,921,924,0
2962,936,975,0
2964,951,1040,0
2958,962,1111,0
2944,960,1188,0
2914,953,1260,0
2871,950,1337,0
2810,931,1403,0
2742,900,1471,0
2648,854,1529,0
2551,797,1576,0
2452,733,1624,0
2354,673,1668,0
2263,625,1694,0
2203,576,1706,0
2165,548,1709,0
2154,543,1715,0
2182,545,1736,0
2241,557,1756,0
2323,593,1774,0
2430,647,1795,0
2541,715,1824,0
2672,775,1858,0
2799,827,1895,0
2913,893,1936,0
3005,963,1984,0
3078,1030,2024,0
3123,1094,2068,0
3149,1155,2093,0
3163,1216,2103,0
3157,1264,2100,0
3144,1288,2087,0
3136,1300,2071,0
3156,1287,2062,0
3194,1276,2060,0
3235,1255,2032,0
3273,1242,1983,0
3323,1211,1915,0
3385,1193,1882,0
3454,1177,1863,0
3514,1165,1852,0
3555,1174,1892,0
3569,1229,1953,0
3521,1335,2093,0
3440,1414,2307,0
3390,1335,2435,0
3467,1107,2409,0
3731,766,2213,0
4183,380,1882,0
4793,43,1512,0
5512,-161,1251,0
6249,-156,1252,0
6889,-18,1475,0
7393,117,1718,0
7736,113,1795,0
7932,-21,1660,0
7947,-140,1368,0
7708,-101,1057,0
7228,90,804,0
6605,362,621,0
5963,610,510,0
5350,795,466,0
4804,923,504,0
4379,990,620,0
4070,991,735,0
3872,926,806,0
3760,807,791,0
3704,689,689,0
3667,619,538,0
3642,592,423,0
3607,584,338,0
3560,565,248,0
3485,535,154,0
3395,488,93,0
3300,420,87,0
3222,342,128,0
3153,274,180,0
3102,227,229,0
3076,176,292,0
3097,113,356,0
3154,49,412,0
3251,-23,457,0
3379,-79,480,0
3511,-118,493,0
3641,-138,508,0
3778,-159,508,0
3927,-190,480,0
4082,-214,451,0
4246,-231,432,0
4393,-219,436,0
4514,-186,439,0
4604,-130,436,0
4650,-56,441,0
4636,48,428,0
4583,168,376,0
4506,282,304,0
4396,401,243,0
4259,514,201,0
4127,635,194,0
3979,787,187,0
3855,901,254,0
3718,1018,328,0
3580,1124,365,0
3457,1193,379,0
3359,1243,410,0
3284,1279,472,0
3227,1303,522,0
3183,1306,559,0
3165,1277,587,0
3165,1217,582,0
3166,1144,554,0
3164,1070,556,0
3170,984,556,0
3159,873,527,0
3130,766,461,0
3113,659,441,0
3093,573,445,0
3071,498,428,0
3045,434,375,0
3018,387,330,0
2998,347,289,0
2984,321,266,0
2978,307,273,0
2986,297,302,0
3001,273,340,0
3007,239,340,0
3014,213,328,0
3014,196,293,0
3022,186,290,0
3030,185,301,0
3049,169,338,0
3068,119,351,0
3086,42,335,0
3124,-55,312,0
3166,-120,312,0
3209,-177,353,0
3251,-235,345,0
3293,-264,329,0
3329,-225,282,0
3380,-169,182,0
3442,-97,121,0
3499,-20,59,0
3565,56,-15,0
3625,157,-25,0
3677,266,-25,0
3732,356,-47,0
3784,448,-24,0
3813,537,-17,0
3824,607,41,0
3831,666,118,0
3825,702,207,0
3790,715,206,0
3766,739,159,0
3758,790,116,0
3777,833,89,0
3826,851,116,0
3906,836,169,0
4004,839,258,0
4096,868,305,0
4223,885,345,0
4313,962,361,0
4376,1065,374,0
4417,1155,360,0
4452,1186,312,0
4459,1218,299,0
4429,1274,284,0
4409,1311,247,0
4385,1309,221,0
4356,1287,229,0
4347,1258,253,0
4372,1227,272,0
4425,1199,282,0
4486,1180,289,0
4554,1176,283,0
4627,1173,284,0
4714,1177,308,0
4787,1171,343,0
4857,1150,387,0
4908,1114,425,0
4946,1066,467,0
4976,1012,502,0
5016,958,536,0
5074,898,566,0
5140,852,566,0
5196,823,533,0
5228,834,473,0
5245,880,406,0
5262,938,342,0
5279,991,291,0
5286,1038,272,0
5296,1089,299,0
5288,1127,368,0
5271,1147,469,0
5259,1134,573,0
5241,1103,645,0
5220,1068,703,0
5199,1004,766,0
5174,881,861,0
5149,659,967,0
5113,357,1043,0
5081,45,1076,0
5070,-222,1064,0
5084,-420,1011,0
5116,-557,918,0
5168,-675,828,0
5179,-758,766,0
5127,-773,732,0
5099,-873,650,0
5054,-964,611,0
4996,-955,651,0
4914,-892,685,0
4841,-819,739,0
4805,-735,803,0
4792,-639,836,0
4799,-516,808,0
4838,-375,716,0
4906,-223,639,0
4972,-116,633,0
4973,-53,675,0
4896,-6,720,0
4753,48,763,0
4597,97,803,0
4454,124,810,0
4332,149,793,0
4235,210,765,0
4172,300,743,0
4158,393,747,0
4171,477,731,0
4194,550,661,0
4232,620,565,0
4274,691,477,0
4321,735,395,0
4378,769,378,0
4431,795,429,0
4464,822,499,0
4481,849,577,0
4468,875,636,0
4439,889,667,0
4414,864,671,0
4391,810,671,0
4373,739,679,0
4336,672,670,0
4257,610,645,0
4150,557,598,0
4012,505,508,0
3862,463,401,0
3718,412,324,0
3603,362,296,0
3506,331,296,0
3423,332,296,0
3349,357,274,0
3289,376,238,0
3218,395,219,0
3151,428,240,0
3118,474,283,0
3109,517,323,0
3097,552,350,0
3087,568,369,0
3081,565,397,0
3073,553,435,0
3088,533,504,0
3101,494,598,0
3049,453,649,0
2943,429,660,0
2842,408,660,0
2747,382,651,0
2675,369,655,0
2640,380,674,0
2647,417,710,0
2687,468,745,0
2738,496,781,0
2778,528,813,0
2792,599,851,0
2803,667,887,0
2794,740,901,0
2765,808,905,0
2735,856,894,0
2717,868,882,0
2690,868,867,0
2674,865,860,0
2672,849,866,0
2666,820,884,0
2650,804,903,0
2632,795,930,0
2616,800,982,0
2601,792,1072,0
2573,780,1187,0
2529,761,1310,0
2484,754,1429,0
2448,752,1522,0
2411,735,1592,0
2379,713,1658,0
2346,715,1716,0
2322,716,1764,0
2291,730,1799,0
2260,746,1816,0
2242,760,1815,0
2240,774,1816,0
2248,782,1819,0
2281,762,1822,0
2331,740,1823,0
2395,726,1827,0
2464,701,1837,0
2552,662,1867,0
2648,610,1909,0
2731,568,1955,0
2811,536,2006,0
2890,511,2068,0
2946,508,2108,0
2981,529,2120,0
3004,556,2130,0
3008,607,2149,0
3012,672,2172,0
3004,752,2215,0
2984,821,2247,0
2949,876,2259,0
2902,918,2252,0
2853,944,2228,0
2828,956,2210,0
2822,978,2204,0
2826,1024,2213,0
2832,1069,2223,0
2826,1103,2228,0
2843,1166,2233,0
2888,1230,2250,0
2923,1301,2257,0
2937,1368,2255,0
2930,1407,2227,0
2909,1420,2189,0
2873,1436,2121,0
2822,1435,2032,0
2776,1399,1940,0
2757,1351,1876,0
2788,1278,1839,0
2861,1206,1836,0
2980,1137,1845,0
3150,1059,1853,0
3345,968,1866,0
3584,861,1913,0
3876,769,2009,0
4243,709,2138,0
4719,664,2264,0
5268,658,2393,0
5866,687,2500,0
6467,746,2526,0
7061,866,2505,0
7614,1049,2485,0
8040,1230,2414,0
8217,1363,2289,0
8019,1478,2195,0
7457,1558,2074,0
6688,1593,1894,0
5876,1480,1673,0
5088,1244,1422,0
4414,984,1183,0
3856,802,1060,0
3453,738,1095,0
3217,709,1214,0
3115,676,1399,0
3111,609,1579,0
3160,497,1671,0
3244,345,1631,0
3344,187,1490,0
3421,74,1288,0
3471,18,1061,0
3484,-1,821,0
3467,-6,602,0
3428,-9,415,0
3371,-38,267,0
3321,-112,163,0
3279,-212,106,0
3237,-328,102,0
3203,-455,138,0
3174,-579,178,0
3157,-680,208,0
3157,-762,235,0
3190,-821,283,0
3262,-868,347,0
3377,-879,424,0
3522,-861,487,0
3695,-817,515,0
3885,-750,517,0
4079,-666,486,0
4273,-568,446,0
4471,-460,403,0
4650,-344,387,0
4806,-231,393,0
4923,-122,414,0
4992,-7,442,0
5003,123,449,0
4957,262,455,0
4870,416,454,0
4757,571,447,0
4622,725,437,0
4488,884,438,0
4353,1046,450,0
4227,1207,469,0
4113,1378,495,0
4017,1526,515,0
3921,1648,520,0
3839,1753,536,0
3773,1835,559,0
3711,1903,578,0
3645,1948,603,0
3585,1974,624,0
3533,1975,626,0
3495,1959,624,0
3456,1923,615,0
3412,1867,601,0
3373,1798,578,0
3340,1716,533,0
3312,1629,486,0
3293,1539,445,0
3288,1444,407,0
3284,1341,364,0
3284,1227,337,0
3286,1102,316,0
3286,959,297,0
3269,817,268,0
3245,662,238,0
3213,497,206,0
3162,346,192,0
3108,210,164,0
3047,97,128,0
2995,-16,105,0
2958,-101,109,0
2938,-176,130,0
2931,-249,156,0
2936,-310,197,0
2947,-353,228,0
2967,-380,269,0
2993,-383,316,0
3027,-378,357,0
3082,-383,373,0
3142,-355,385,0
3201,-291,372,0
3265,-195,356,0
3340,-75,407,0
3407,34,451,0
3484,81,483,0
3519,130,505,0
3526,191,517,0
3525,253,481,0
3542,317,400,0
3581,400,354,0
3635,511,363,0
3695,633,390,0
3744,742,450,0
3782,811,543,0
3796,842,594,0
3772,867,633,0
3712,885,670,0
3646,911,680,0
3554,972,652,0
3465,1044,611,0
3414,1092,601,0
3375,1122,611,0
3361,1137,657,0
3352,1156,709,0
3377,1150,759,0
3404,1163,770,0
3433,1192,799,0
3451,1239,829,0
3475,1268,841,0
3500,1287,848,0
3534,1264,857,0
3562,1220,894,0
3578,1173,901,0
3596,1105,866,0
3625,1045,828,0
3658,1004,788,0
3702,973,740,0
3759,937,693,0
3808,910,644,0
3854,885,579,0
3885,874,487,0
3918,873,404,0
3939,884,363,0
3958,899,340,0
3958,930,328,0
3956,968,347,0
3951,985,402,0
3960,992,484,0
3963,988,569,0
3980,963,647,0
4019,923,722,0
4062,874,741,0
4108,834,698,0
4169,770,617,0
4218,728,475,0
4265,716,315,0
4310,729,190,0
4350,789,102,0
4376,881,110,0
4366,993,188,0
4325,1070,284,0
4252,1109,382,0
4146,1128,481,0
4020,1132,606,0
3887,1118,699,0
3781,1058,746,0
3707,972,802,0
3716,874,875,0
3807,756,931,0
3967,618,962,0
4171,457,951,0
4403,293,923,0
4640,148,878,0
4837,36,828,0
4978,-7,806,0
5068,30,807,0
5118,118,819,0
5127,239,834,0
5068,364,835,0
5001,488,868,0
4959,592,897,0
4911,657,878,0
4839,669,810,0
4775,643,711,0
4696,605,579,0
4623,556,435,0
4621,519,367,0
4620,496,304,0
4582,454,232,0
4551,415,216,0
4497,357,223,0
4418,280,256,0
4304,160,301,0
4202,56,381,0
4059,-49,442,0
3928,-152,535,0
3778,-269,591,0
3624,-366,638,0
3521,-421,691,0
3443,-465,739,0
3399,-470,803,0
3402,-468,872,0
3450,-453,944,0
3550,-435,1006,0
3685,-416,1065,0
3860,-416,1126,0
4065,-440,1182,0
4298,-461,1243,0
4531,-473,1296,0
4734,-492,1345,0
4918,-516,1396,0
5046,-548,1451,0
5133,-594,1461,0
5183,-635,1409,0
5200,-630,1327,0
5185,-573,1257,0
5138,-478,1186,0
5056,-374,1148,0
4956,-271,1164,0
4840,-149,1177,0
4722,21,1139,0
4641,238,1048,0
4597,463,931,0
4568,663,835,0
4543,838,800,0
4520,967,837,0
4487,1066,901,0
4440,1127,930,0
4385,1152,909,0
4331,1162,872,0
4278,1170,864,0
4207,1188,901,0
4123,1202,947,0
4025,1193,970,0
3907,1158,976,0
3781,1115,989,0
3654,1086,985,0
3521,1084,959,0
3406,1077,919,0
3308,1049,874,0
3237,1006,841,0
3174,966,827,0
3118,930,818,0
3078,876,810,0
3045,820,801,0
3029,751,782,0
2986,704,773,0
2951,655,757,0
2932,608,741,0
2931,559,739,0
2932,519,759,0
2932,498,791,0
2935,486,817,0
2954,476,840,0
2981,458,841,0
2991,467,850,0
3013,467,852,0
3055,464,852,0
3068,499,885,0
3077,541,905,0
3093,573,919,0
3092,627,942,0
3081,675,950,0
3066,729,953,0
3066,771,949,0
3041,827,961,0
3012,863,963,0
2986,898,965,0
2965,911,974,0
2904,926,994,0
2834,927,1022,0
2761,925,1051,0
2670,913,1089,0
2575,881,1127,0
2479,856,1174,0
2407,835,1220,0
2363,821,1269,0
2345,812,1318,0
2353,806,1357,0
2388,792,1395,0
2447,797,1431,0
2521,821,1478,0
2607,855,1526,0
2697,916,1566,0
2786,990,1602,0
2887,1068,1621,0
2983,1154,1620,0
3074,1245,1614,0
3144,1332,1601,0
3182,1413,1568,0
3183,1474,1502,0
3163,1502,1396,0
3128,1494,1262,0
3106,1462,1125,0
3114,1396,1001,0
3161,1316,949,0
3252,1258,1001,0
3381,1227,1187,0
3536,1230,1449,0
3707,1218,1679,0
3897,1171,1812,0
4091,1061,1817,0
4302,891,1733,0
4518,707,1608,0
4722,547,1459,0
4914,456,1319,0
5089,458,1236,0
5228,547,1219,0
5335,702,1304,0
5389,877,1494,0
5365,1038,1757,0
5224,1190,2031,0
4987,1342,2317,0
4712,1493,2593,0
4455,1616,2815,0
4289,1677,2910,0
4256,1662,2827,0
4359,1591,2538,0
4615,1499,2154,0
4978,1377,1779,0
5396,1235,1519,0
5795,1041,1401,0
6118,784,1391,0
6322,497,1399,0
6353,219,1330,0
6154,-40,1232,0
5706,-266,1189,0
5062,-433,1312,0
4363,-577,1501,0
3686,-734,1582,0
3110,-865,1495,0
2643,-930,1338,0
2276,-944,1181,0
2018,-942,1000,0
1863,-926,801,0
1819,-882,606,0
1868,-822,431,0
2010,-768,291,0
2215,-684,174,0
2497,-540,89,0
2864,-348,31,0
3311,-142,27,0
3796,94,87,0
4290,325,196,0
4745,517,315,0
5100,677,385,0
5320,788,402,0
5404,843,383,0
5337,846,326,0
5152,786,257,0
4909,636,195,0
4649,429,150,0
4418,222,121,0
4261,-1,129,0
4199,-204,202,0
4202,-382,274,0
4257,-526,337,0
4351,-616,387,0
4443,-647,422,0
4526,-615,420,0
4583,-542,432,0
4582,-436,419,0
4531,-319,393,0
4442,-202,380,0
4333,-101,381,0
4227,-22,399,0
4140,39,407,0
4047,103,399,0
3955,187,396,0
3858,288,434,0
3765,375,466,0
3693,458,463,0
3652,504,453,0
3630,547,421,0
3633,579,396,0
3673,605,378,0
3742,614,392,0
3823,615,417,0
3914,593,408,0
4004,551,380,0
4067,519,337,0
4102,511,299,0
4104,519,286,0
4089,531,293,0
4047,532,309,0
3981,528,317,0
3909,516,322,0
3830,512,305,0
3766,515,291,0
3714,535,290,0
3679,545,289,0
3644,562,310,0
3609,582,348,0
3569,599,376,0
3533,623,409,0
3511,643,421,0
3518,645,443,0
3537,665,473,0
3574,682,462,0
3630,717,452,0
3685,759,459,0
3738,818,489,0
3768,879,511,0
3785,922,501,0
3789,969,499,0
3777,1018,456,0
3768,1085,411,0
3749,1170,420,0
3717,1251,459,0
3674,1312,478,0
3637,1359,483,0
3608,1390,483,0
3570,1445,504,0
3545,1496,540,0
3525,1532,553,0
3527,1546,590,0
3529,1564,644,0
3543,1574,681,0
3567,1586,694,0
3599,1601,714,0
3627,1632,717,0
3657,1645,687,0
3688,1639,670,0
3711,1624,677,0
3725,1606,700,0
3724,1586,703,0
3711,1559,675,0
3696,1539,634,0
3679,1531,605,0
3667,1505,593,0
3660,1459,577,0
3649,1426,560,0
3642,1406,523,0
3633,1389,473,0
3630,1388,473,0
3631,1376,466,0
3650,1338,485,0
3667,1271,507,0
3675,1199,553,0
3661,1118,590,0
3652,1023,613,0
3645,928,577,0
3645,840,488,0
3663,780,343,0
3692,760,157,0
3740,780,-1,0
3810,839,-92,0
3890,917,-116,0
3970,985,-83,0
4031,1044,-7,0
4059,1083,119,0
4060,1127,291,0
4029,1157,476,0
3982,1139,637,0
3944,1047,760,0
3918,929,871,0
3951,747,974,0
4006,532,1063,0
4084,315,1134,0
4189,120,1183,0
4329,-57,1224,0
4500,-207,1232,0
4663,-297,1229,0
4797,-319,1183,0
4874,-276,1123,0
4896,-165,1067,0
4867,-1,1056,0
4817,202,1112,0
4763,411,1216,0
4705,583,1318,0
4648,708,1365,0
4599,771,1330,0
4546,780,1219,0
4495,765,1038,0
4437,768,821,0
4386,781,626,0
4325,792,501,0
4270,783,449,0
4214,754,434,0
4146,685,448,0
4058,578,465,0
3963,439,480,0
3866,272,507,0
3759,97,559,0
3658,-70,630,0
3594,-197,749,0
3548,-255,869,0
3525,-278,995,0
3529,-256,1135,0
3559,-188,1260,0
3631,-122,1354,0
3759,-71,1421,0
3923,-32,1453,0
4134,1,1483,0
4389,64,1529,0
4673,127,1591,0
4941,156,1647,0
5171,155,1674,0
5342,141,1655,0
5418,128,1561,0
5420,130,1441,0
5388,129,1368,0
5318,115,1360,0
5185,98,1348,0
4999,116,1297,0
4793,206,1223,0
4595,357,1178,0
4411,543,1169,0
4257,730,1200,0
4134,900,1251,0
4053,1056,1295,0
3994,1201,1290,0
3966,1321,1247,0
3968,1405,1220,0
3993,1441,1215,0
4022,1441,1220,0
4061,1411,1217,0
4082,1372,1205,0
4093,1335,1166,0
4077,1311,1117,0
4037,1273,1035,0
3983,1224,946,0
3933,1162,877,0
3864,1112,879,0
3779,1056,891,0
3663,981,882,0
3529,867,835,0
3368,753,800,0
3213,661,790,0
3069,574,783,0
2964,491,769,0
2911,404,745,0
2879,336,747,0
2869,275,754,0
2876,239,771,0
2928,221,783,0
2971,241,813,0
3045,253,838,0
3152,258,845,0
3239,289,874,0
3296,336,901,0
3345,378,909,0
3389,415,902,0
3408,446,906,0
3418,467,892,0
3440,491,879,0
3423,552,895,0
3385,613,891,0
3343,674,888,0
3309,718,884,0
3249,775,897,0
3193,810,893,0
3140,829,885,0
3086,849,887,0
3037,865,894,0
2988,866,900,0
2949,871,906,0
2918,866,919,0
2886,849,940,0
2850,837,972,0
2818,838,999,0
2780,848,1030,0
2739,865,1066,0
2695,874,1097,0
2652,881,1128,0
2621,891,1154,0
2598,907,1178,0
2584,929,1188,0
2583,954,1194,0
2593,971,1194,0
2611,987,1192,0
2644,1015,1192,0
2683,1054,1206,0
2730,1106,1229,0
2780,1163,1260,0
2833,1220,1298,0
2882,1273,1332,0
2933,1325,1378,0
2979,1368,1422,0
3014,1399,1462,0
3042,1422,1492,0
3081,1438,1510,0
3112,1455,1515,0
3147,1475,1510,0
3186,1493,1487,0
3219,1519,1454,0
3256,1545,1420,0
3299,1559,1381,0
3349,1556,1332,0
3411,1536,1267,0
3495,1506,1199,0
3585,1450,1144,0
3684,1362,1088,0
3796,1228,1021,0
3913,1057,933,0
4047,863,832,0
4233,694,752,0
4458,577,722,0
4695,528,744,0
4905,591,836,0
5067,772,990,0
5174,1050,1206,0
5222,1375,1515,0
5220,1683,1889,0
5137,1938,2287,0
4961,2136,2627,0
4685,2263,2866,0
4364,2307,2981,0
4074,2282,3001,0
3876,2213,2955,0
3824,2117,2882,0
3946,1974,2716,0
4209,1770,2401,0
4635,1488,1955,0
5250,1140,1454,0
6017,743,1009,0
6773,387,771,0
7415,49,750,0
7807,-360,766,0
7863,-841,842,0
7499,-1244,1117,0
6756,-1492,1540,0
5840,-1639,1838,0
4988,-1736,1789,0
4267,-1741,1504,0
3598,-1579,1142,0
2972,-1311,866,0
2431,-1046,672,0
2036,-835,490,0
1763,-705,282,0
1594,-600,92,0
1521,-494,-57,0
1543,-394,-171,0
1670,-319,-233,0
1902,-251,-234,0
2268,-163,-125,0
2746,-59,15,0
3298,55,114,0
3871,198,166,0
4446,337,183,0
4974,454,173,0
5409,536,136,0
5717,583,87,0
5878,580,52,0
5898,528,68,0
5776,416,89,0
5567,252,122,0
5322,87,163,0
5104,-56,213,0
4942,-163,263,0
4871,-240,341,0
4872,-308,413,0
4886,-345,464,0
4890,-354,497,0
4846,-324,517,0
4748,-288,504,0
4600,-237,473,0
4426,-173,448,0
4258,-102,415,0
4097,-49,385,0
3937,8,332,0
3807,47,253,0
3709,80,171,0
3640,122,123,0
3612,179,129,0
3596,269,181,0
3589,354,197,0
3582,438,172,0
3587,482,102,0
3611,528,42,0
3656,579,-2,0
3708,644,-28,0
3774,678,-49,0
3851,696,-101,0
3930,709,-139,0
4014,726,-145,0
4103,742,-116,0
4177,756,-79,0
4235,755,-52,0
4274,719,-17,0
4272,672,39,0
4249,622,52,0
4216,569,51,0
4168,552,71,0
4121,555,104,0
4075,575,140,0
4000,634,137,0
3900,733,170,0
3799,833,188,0
3712,929,221,0
3620,1018,259,0
3558,1074,279,0
3496,1147,282,0
3451,1218,280,0
3431,1281,348,0
3427,1327,384,0
3439,1328,363,0
3468,1351,341,0
3500,1408,332,0
3557,1437,334,0
3616,1450,339,0
3678,1452,321,0
3723,1485,333,0
3739,1528,330,0
3732,1527,310,0
3723,1497,329,0
3672,1499,349,0
3615,1485,312,0
3583,1472,277,0
3570,1488,290,0
3559,1510,299,0
3559,1507,338,0
3587,1492,398,0
3604,1489,454,0
3629,1442,470,0
3667,1380,546,0
3684,1317,590,0
3714,1254,624,0
3749,1213,634,0
3786,1169,623,0
3797,1116,575,0
3804,1075,550,0
3796,1060,505,0
3796,1042,483,0
3804,1019,460,0
3814,1000,407,0
3820,1011,376,0
3842,1036,384,0
3851,1072,401,0
3863,1081,390,0
3869,1086,356,0
3872,1110,314,0
3876,1111,281,0
3874,1078,267,0
3877,1068,312,0
3883,1052,324,0
3906,1022,338,0
3941,983,384,0
3976,942,426,0
4035,891,462,0
4074,861,480,0
4117,826,463,0
4174,796,445,0
4243,771,445,0
4339,749,403,0
4462,725,362,0
4594,710,369,0
4724,688,397,0
4832,663,406,0
4898,627,402,0
4905,582,402,0
4875,546,369,0
4810,521,324,0
4743,514,298,0
4682,534,276,0
4662,616,270,0
4673,757,286,0
4703,969,336,0
4723,1210,391,0
4717,1440,438,0
4683,1642,480,0
4611,1812,526,0
4549,1934,574,0
4511,2002,631,0
4498,2002,698,0
4520,1940,776,0
4571,1802,845,0
4656,1613,904,0
4778,1401,934,0
4916,1197,978,0
5063,986,1032,0
5203,793,1091,0
5329,556,1105,0
5385,374,1059,0
5393,198,985,0
5372,30,890,0
5307,-128,756,0
5221,-227,625,0
5132,-272,518,0
5031,-324,384,0
4962,-347,338,0
4892,-365,378,0
4796,-370,409,0
4721,-344,472,0
4657,-269,623,0
4593,-172,830,0
4575,-53,1066,0
4550,53,1279,0
4544,120,1458,0
4555,167,1554,0
4571,222,1569,0
4589,238,1509,0
4597,220,1446,0
4569,172,1401,0
4502,125,1402,0
4410,96,1403,0
4304,76,1375,0
4207,69,1311,0
4153,100,1190,0
4145,172,1061,0
4186,253,935,0
4252,334,829,0
4313,419,763,0
4380,513,723,0
4449,602,689,0
4516,673,679,0
4591,739,697,0
4663,774,739,0
4742,784,788,0
4824,777,822,0
4892,761,817,0
4947,732,793,0
4984,694,777,0
4993,644,786,0
4964,592,802,0
4901,521,833,0
4807,429,894,0
4675,359,954,0
4511,288,937,0
4317,231,845,0
4116,194,681,0
3930,177,482,0
3771,199,282,0
3634,246,130,0
3535,291,34,0
3467,323,10,0
3426,357,49,0
3398,416,143,0
3381,503,256,0
3372,603,369,0
3370,712,481,0
3371,826,570,0
3371,917,627,0
3362,986,691,0
3340,1035,770,0
3304,1064,861,0
3314,1075,955,0
3322,1075,1001,0
3276,1060,984,0
3198,1048,948,0
3118,1048,917,0
3052,1075,901,0
3004,1120,904,0
2953,1171,898,0
2906,1209,873,0
2858,1238,847,0
2813,1276,833,0
2773,1308,858,0
2739,1332,911,0
2719,1350,977,0
2720,1362,1039,0
2721,1370,1071,0
2720,1363,1070,0
2710,1351,1060,0
2686,1325,1049,0
2652,1309,1032,0
2615,1293,1008,0
2570,1274,1011,0
2527,1244,1038,0
2489,1209,1086,0
2452,1192,1149,0
2408,1188,1216,0
2349,1170,1276,0
2294,1142,1333,0
2244,1082,1396,0
2198,995,1483,0
2150,904,1575,0
2118,815,1660,0
2096,739,1747,0
2073,664,1811,0
2053,600,1853,0
2028,534,1877,0
1995,479,1901,0
1960,435,1918,0
1933,386,1933,0
1910,377,1956,0
1910,384,1986,0
1922,416,1993,0
1955,475,1989,0
2002,536,1975,0
2063,588,1966,0
2132,632,1954,0
2208,670,1959,0
2291,721,1975,0
2386,767,1989,0
2501,815,2009,0
2631,858,2021,0
2779,916,2032,0
2938,993,2039,0
3094,1066,2037,0
3241,1129,2046,0
3369,1182,2046,0
3470,1226,2073,0
3550,1248,2092,0
3604,1245,2093,0
3633,1213,2093,0
3610,1144,2094,0
3533,1073,2140,0
3488,1000,2272,0
3576,901,2474,0
3847,687,2609,0
4307,324,2582,0
4922,-111,2419,0
5638,-450,2211,0
6378,-488,2086,0
7098,-257,2103,0
7694,18,2133,0
8069,201,2072,0
8157,250,1818,0
7919,294,1366,0
7348,427,876,0
6567,627,534,0
5713,841,471,0
4912,1030,593,0
4234,1153,828,0
3708,1194,1080,0
3364,1189,1300,0
3181,1129,1452,0
3134,1055,1502,0
3191,969,1459,0
3321,882,1334,0
3495,805,1156,0
3691,760,964,0
3854,759,778,0
3977,769,620,0
4048,754,481,0
4059,718,364,0
4018,671,284,0
3932,613,264,0
3838,535,278,0
3737,451,314,0
3640,368,331,0
3561,274,352,0
3511,174,381,0
3506,69,425,0
3535,-43,469,0
3603,-162,489,0
3697,-280,496,0
3813,-385,512,0
3934,-471,526,0
4064,-525,549,0
4207,-554,576,0
4340,-535,583,0
4448,-474,568,0
4510,-377,537,0
4518,-245,498,0
4470,-99,488,0
4356,60,459,0
4205,219,430,0
4033,375,437,0
3861,504,446,0
3672,633,435,0
3524,729,417,0
3395,817,432,0
3290,889,437,0
3214,943,447,0
3166,1002,454,0
3155,1030,524,0
3150,1053,600,0
3135,1069,638,0
3118,1085,643,0
3117,1081,612,0
3146,1037,629,0
3182,987,637,0
3228,935,624,0
3281,881,626,0
3321,828,627,0
3347,763,623,0
3365,688,605,0
3368,629,597,0
3374,566,584,0
3360,534,605,0
3324,516,597,0
3284,488,609,0
3246,464,652,0
3200,427,632,0
3162,395,614,0
3112,390,598,0
3079,377,555,0
3065,357,517,0
3054,346,435,0
3077,339,356,0
3105,371,329,0
3128,410,329,0
3151,425,350,0
3176,401,397,0
3179,367,401,0
3176,350,347,0
3198,323,304,0
3232,301,270,0
3287,280,224,0
3353,280,234,0
3423,273,250,0
3500,238,268,0
3576,209,275,0
3629,203,259,0
3673,202,266,0
3713,224,301,0
3761,241,288,0
3810,266,314,0
3830,296,313,0
3846,300,344,0
3834,305,368,0
3794,331,379,0
3765,376,320,0
3739,473,268,0
3739,589,228,0
3744,721,208,0
3780,845,259,0
3845,940,355,0
3915,991,454,0
3973,1029,531,0
4029,1048,570,0
4065,1066,621,0
4083,1105,638,0
4091,1145,614,0
4105,1180,577,0
4116,1239,500,0
4127,1298,401,0
4134,1365,347,0
4122,1425,350,0
4111,1463,374,0
4103,1484,394,0
4092,1486,412,0
4088,1493,433,0
4097,1528,430,0
4131,1571,409,0
4177,1590,394,0
4220,1588,392,0
4261,1564,399,0
4303,1517,407,0
4355,1450,412,0
4426,1370,432,0
4519,1292,467,0
4637,1218,496,0
4765,1135,528,0
4882,1018,548,0
4957,886,534,0
5003,757,492,0
5032,644,426,0
5062,539,355,0
5108,475,295,0
5170,441,269,0
5238,438,290,0
5319,459,355,0
5396,499,434,0
5466,556,528,0
5526,616,612,0
5564,646,657,0
5581,659,674,0
5573,649,674,0
5544,616,667,0
5496,570,676,0
5449,513,710,0
5401,461,759,0
5360,415,814,0
5325,379,875,0
5289,350,940,0
5242,320,990,0
5175,286,1002,0
5077,243,988,0
4953,212,982,0
4855,97,928,0
4768,-22,891,0
4684,-95,877,0
