accelerometer_x,accelerometer_y,accelerometer_z,fall
3772,-1542,231,1
3771,-1545,230,1
3765,-1548,226,1
3759,-1545,226,1
3756,-1544,225,1
3753,-1544,229,1
3753,-1543,222,1
3753,-1544,222,1
3762,-1526,238,1
3777,-1535,234,1
3780,-1538,237,1
3772,-1538,225,1
3758,-1537,216,1
3755,-1540,220,1
3754,-1542,224,1
3751,-1547,223,1
3754,-1545,226,1
3757,-1544,225,1
3762,-1544,224,1
3758,-1545,220,1
3763,-1548,215,1
3765,-1544,215,1
3771,-1540,217,1
3776,-1538,218,1
3778,-1539,216,1
3771,-1536,215,1
3771,-1536,214,1
3768,-1534,211,1
3772,-1538,224,1
3773,-1535,224,1
3775,-1535,223,1
3776,-1539,229,1
3776,-1541,230,1
3777,-1548,235,1
3775,-1550,230,1
3773,-1548,227,1
3775,-1553,230,1
3779,-1555,233,1
3779,-1551,237,1
3777,-1551,231,1
3777,-1555,227,1
3779,-1558,224,1
3778,-1564,226,1
3782,-1565,226,1
3788,-1568,239,1
3789,-1567,239,1
3782,-1566,232,1
3769,-1558,236,1
3760,-1554,235,1
3757,-1546,234,1
3753,-1539,241,1
3756,-1536,235,1
3758,-1532,231,1
3755,-1535,233,1
3754,-1536,234,1
3758,-1538,228,1
3759,-1534,226,1
3765,-1534,233,1
3770,-1541,230,1
3768,-1539,227,1
3771,-1546,234,1
3774,-1549,232,1
3771,-1550,231,1
3771,-1551,234,1
3773,-1552,226,1
3770,-1549,226,1
3771,-1549,231,1
3768,-1545,234,1
3763,-1547,231,1
3761,-1551,229,1
3766,-1555,232,1
3767,-1553,226,1
3767,-1547,219,1
3768,-1550,217,1
3769,-1557,214,1
3765,-1558,213,1
3765,-1557,214,1
3761,-1559,215,1
3765,-1561,226,1
3767,-1559,234,1
3771,-1559,242,1
3771,-1556,245,1
3768,-1555,251,1
3767,-1553,249,1
3768,-1548,248,1
3771,-1545,247,1
3771,-1545,243,1
3773,-1546,240,1
3765,-1544,238,1
3762,-1545,233,1
3759,-1547,232,1
3757,-1549,229,1
3753,-1546,227,1
3750,-1551,224,1
3750,-1551,226,1
3751,-1551,226,1
3752,-1552,225,1
3753,-1556,226,1
3753,-1558,229,1
3760,-1559,228,1
3759,-1558,227,1
3759,-1563,226,1
3761,-1560,224,1
3767,-1562,226,1
3768,-1560,228,1
3768,-1563,226,1
3768,-1562,227,1
3773,-1562,220,1
3772,-1560,216,1
3773,-1561,216,1
3773,-1554,215,1
3774,-1552,212,1
3772,-1551,213,1
3771,-1551,217,1
3769,-1552,220,1
3768,-1549,221,1
3771,-1545,221,1
3774,-1547,222,1
3774,-1544,222,1
3772,-1543,220,1
3769,-1546,219,1
3768,-1543,220,1
3770,-1548,218,1
3769,-1549,219,1
3770,-1551,220,1
3768,-1549,219,1
3764,-1551,219,1
3761,-1554,215,1
3758,-1553,214,1
3756,-1552,212,1
3756,-1551,212,1
3759,-1553,209,1
3754,-1549,206,1
3756,-1548,208,1
3760,-1551,213,1
3764,-1552,212,1
3769,-1549,216,1
3768,-1548,218,1
3767,-1551,217,1
3766,-1554,216,1
3769,-1551,215,1
3771,-1551,217,1
3764,-1549,217,1
3761,-1553,216,1
3759,-1554,215,1
3757,-1556,216,1
3759,-1561,210,1
3765,-1562,206,1
3769,-1560,201,1
3768,-1561,198,1
3771,-1557,201,1
3769,-1557,203,1
3770,-1556,203,1
3766,-1550,208,1
3764,-1550,209,1
3767,-1549,212,1
3767,-1547,211,1
3769,-1546,208,1
3769,-1547,208,1
3767,-1547,207,1
3767,-1548,207,1
3771,-1546,209,1
3770,-1550,207,1
3769,-1547,197,1
3770,-1552,192,1
3773,-1556,186,1
3776,-1558,184,1
3779,-1557,186,1
3783,-1560,185,1
3780,-1558,188,1
3781,-1555,193,1
3775,-1551,199,1
3773,-1550,208,1
3775,-1551,213,1
3777,-1545,217,1
3776,-1542,221,1
3776,-1535,226,1
3779,-1535,226,1
3776,-1537,227,1
3771,-1537,224,1
3765,-1534,227,1
3765,-1535,224,1
3765,-1539,221,1
3763,-1544,217,1
3767,-1548,219,1
3769,-1548,219,1
3767,-1546,220,1
3765,-1548,219,1
3764,-1546,216,1
3761,-1548,212,1
3760,-1548,211,1
3762,-1548,212,1
3763,-1547,215,1
3765,-1550,213,1
3764,-1547,213,1
3766,-1547,213,1
3768,-1549,207,1
3770,-1552,208,1
3770,-1553,205,1
3773,-1552,204,1
3777,-1553,206,1
3777,-1550,205,1
3780,-1548,206,1
3779,-1550,200,1
3777,-1547,203,1
3778,-1544,208,1
3781,-1540,211,1
3778,-1540,209,1
3775,-1541,208,1
3773,-1544,207,1
3772,-1547,210,1
3772,-1547,213,1
3776,-1552,213,1
3775,-1551,212,1
3776,-1552,212,1
3776,-1551,209,1
3780,-1553,206,1
3778,-1554,207,1
3776,-1549,207,1
3780,-1547,208,1
3774,-1544,211,1
3773,-1542,211,1
3768,-1539,215,1
3762,-1536,214,1
3761,-1535,215,1
3762,-1533,211,1
3760,-1531,217,1
3761,-1534,219,1
3761,-1538,217,1
3762,-1538,214,1
3762,-1542,215,1
3759,-1539,217,1
3760,-1540,210,1
3763,-1540,207,1
3766,-1543,202,1
3767,-1544,198,1
3768,-1547,195,1
3768,-1548,195,1
3771,-1547,193,1
3776,-1545,193,1
3776,-1546,184,1
3777,-1540,187,1
3776,-1540,188,1
3780,-1537,191,1
3776,-1542,192,1
3776,-1543,195,1
3777,-1548,192,1
3776,-1549,193,1
3774,-1551,191,1
3774,-1548,191,1
3776,-1548,192,1
3781,-1547,190,1
3782,-1544,190,1
3781,-1543,187,1
3776,-1541,182,1
3775,-1542,178,1
3775,-1544,172,1
3777,-1545,165,1
3778,-1543,159,1
3782,-1540,161,1
3782,-1539,169,1
3781,-1535,178,1
3781,-1532,189,1
3778,-1534,195,1
3773,-1533,196,1
3775,-1534,203,1
3776,-1535,205,1
3774,-1541,203,1
3776,-1540,199,1
3774,-1546,199,1
3770,-1550,193,1
3768,-1548,183,1
3765,-1549,181,1
3760,-1549,179,1
3756,-1546,177,1
3757,-1548,176,1
3756,-1547,180,1
3754,-1552,181,1
3755,-1550,183,1
3756,-1547,182,1
3755,-1549,178,1
3760,-1551,178,1
3764,-1555,180,1
3765,-1553,181,1
3770,-1551,179,1
3776,-1546,181,1
3779,-1545,182,1
3783,-1547,184,1
3788,-1544,186,1
3789,-1542,188,1
3792,-1545,189,1
3793,-1546,189,1
3795,-1549,190,1
3792,-1554,185,1
3792,-1552,180,1
3786,-1554,181,1
3784,-1554,181,1
3779,-1555,182,1
3778,-1556,182,1
3773,-1557,183,1
3771,-1553,188,1
3768,-1548,189,1
3772,-1548,187,1
3771,-1544,186,1
3773,-1542,184,1
3770,-1541,183,1
3774,-1535,185,1
3772,-1533,187,1
3772,-1532,190,1
3764,-1528,191,1
3766,-1527,193,1
3762,-1527,191,1
3761,-1525,191,1
3762,-1528,192,1
3760,-1526,191,1
3760,-1526,192,1
3758,-1526,189,1
3761,-1530,191,1
3761,-1527,194,1
3764,-1531,197,1
3761,-1536,196,1
3761,-1539,193,1
3766,-1540,192,1
3767,-1540,192,1
3773,-1543,190,1
3770,-1546,185,1
3770,-1548,184,1
3771,-1550,185,1
3769,-1554,187,1
3769,-1550,185,1
3773,-1550,189,1
3769,-1552,188,1
3772,-1548,189,1
3775,-1547,190,1
3779,-1542,188,1
3779,-1539,191,1
3776,-1537,197,1
3773,-1533,200,1
3771,-1532,200,1
3773,-1533,202,1
3772,-1529,201,1
3772,-1530,200,1
3772,-1532,202,1
3776,-1531,202,1
3777,-1533,198,1
3775,-1537,196,1
3779,-1536,191,1
3783,-1536,186,1
3782,-1540,183,1
3782,-1541,178,1
3784,-1542,171,1
3784,-1542,174,1
3784,-1538,180,1
3782,-1542,189,1
3783,-1544,193,1
3780,-1543,202,1
3779,-1542,208,1
3775,-1540,210,1
3777,-1534,213,1
3780,-1539,214,1
3778,-1543,208,1
3776,-1542,206,1
3778,-1540,203,1
3776,-1539,197,1
3773,-1538,196,1
3772,-1542,191,1
3768,-1546,193,1
3768,-1541,191,1
3763,-1540,190,1
3763,-1537,190,1
3762,-1536,185,1
3765,-1531,183,1
3768,-1529,183,1
3766,-1531,180,1
3765,-1529,180,1
3760,-1528,182,1
3765,-1529,179,1
3764,-1529,177,1
3766,-1529,177,1
3772,-1526,171,1
3775,-1528,173,1
3776,-1534,172,1
3778,-1535,168,1
3782,-1537,171,1
3785,-1539,168,1
3787,-1543,171,1
3789,-1543,166,1
3790,-1543,168,1
3789,-1542,169,1
3787,-1544,176,1
3789,-1544,182,1
3791,-1541,183,1
3796,-1541,183,1
3791,-1542,180,1
3788,-1542,177,1
3788,-1542,173,1
3789,-1541,174,1
3788,-1542,173,1
3784,-1538,173,1
3784,-1541,168,1
3781,-1539,165,1
3777,-1535,164,1
3777,-1534,162,1
3774,-1530,160,1
3769,-1530,158,1
3764,-1530,154,1
3764,-1526,155,1
3765,-1526,159,1
3765,-1525,158,1
3769,-1525,161,1
3768,-1526,160,1
3770,-1522,160,1
3773,-1528,164,1
3773,-1523,164,1
3778,-1517,164,1
3781,-1517,163,1
3780,-1515,161,1
3780,-1515,158,1
3780,-1520,158,1
3777,-1519,161,1
3771,-1522,158,1
3771,-1518,154,1
3772,-1518,148,1
3771,-1516,145,1
3770,-1517,140,1
3772,-1518,139,1
3771,-1516,139,1
3772,-1517,142,1
3769,-1514,147,1
3770,-1514,153,1
3775,-1516,153,1
3779,-1515,156,1
3780,-1515,153,1
3780,-1515,154,1
3783,-1517,161,1
3786,-1518,164,1
3791,-1523,160,1
3793,-1527,154,1
3791,-1525,147,1
3793,-1527,133,1
3792,-1529,129,1
3791,-1530,125,1
3787,-1528,127,1
3786,-1527,129,1
3785,-1531,138,1
3786,-1529,145,1
3786,-1528,156,1
3789,-1525,161,1
3790,-1522,164,1
3790,-1525,166,1
3792,-1520,167,1
3790,-1521,169,1
3789,-1520,167,1
3787,-1519,163,1
3781,-1519,159,1
3775,-1520,156,1
3767,-1518,152,1
3762,-1518,153,1
3758,-1517,156,1
3755,-1511,155,1
3751,-1513,155,1
3750,-1514,149,1
3750,-1513,150,1
3754,-1515,145,1
3758,-1513,146,1
3761,-1513,143,1
3769,-1512,141,1
3773,-1511,140,1
3775,-1510,139,1
3779,-1512,142,1
3783,-1516,146,1
3786,-1516,149,1
3789,-1516,151,1
3794,-1516,155,1
3796,-1519,155,1
3800,-1522,156,1
3804,-1523,156,1
3803,-1526,158,1
3801,-1533,151,1
3802,-1535,145,1
3799,-1541,145,1
3796,-1543,143,1
3790,-1546,141,1
3788,-1551,141,1
3785,-1545,140,1
3786,-1545,137,1
3785,-1545,142,1
3784,-1540,149,1
3785,-1539,152,1
3783,-1535,146,1
3784,-1530,143,1
3785,-1531,140,1
3787,-1529,138,1
3784,-1525,140,1
3784,-1522,140,1
3784,-1519,143,1
3779,-1517,141,1
3775,-1514,141,1
3774,-1512,141,1
3774,-1515,141,1
3772,-1517,143,1
3776,-1514,141,1
3775,-1514,147,1
3774,-1517,146,1
3772,-1519,150,1
3773,-1520,147,1
3770,-1517,148,1
3775,-1516,148,1
3775,-1521,148,1
3780,-1523,153,1
3782,-1524,154,1
3782,-1525,156,1
3785,-1526,160,1
3786,-1525,161,1
3789,-1521,159,1
3790,-1522,158,1
3791,-1523,155,1
3796,-1520,153,1
3794,-1519,151,1
3797,-1519,151,1
3797,-1521,152,1
3795,-1524,147,1
3794,-1525,143,1
3795,-1528,146,1
3793,-1528,147,1
3794,-1530,153,1
3793,-1527,150,1
3795,-1530,152,1
3788,-1527,151,1
3787,-1525,151,1
3787,-1526,149,1
3787,-1530,145,1
3788,-1531,139,1
3785,-1530,132,1
3788,-1531,132,1
3785,-1526,139,1
3782,-1522,143,1
3778,-1520,151,1
3777,-1518,161,1
3778,-1520,164,1
3780,-1519,171,1
3780,-1520,172,1
3783,-1519,169,1
3779,-1517,164,1
3780,-1516,162,1
3783,-1514,160,1
3786,-1510,159,1
3783,-1511,157,1
3781,-1513,157,1
3780,-1508,158,1
3780,-1504,156,1
3780,-1504,156,1
3778,-1505,155,1
3781,-1506,154,1
3784,-1503,152,1
3786,-1506,151,1
3787,-1505,150,1
3786,-1508,146,1
3789,-1509,146,1
3791,-1514,146,1
3793,-1515,146,1
3794,-1516,146,1
3795,-1515,145,1
3799,-1516,151,1
3794,-1514,153,1
3791,-1513,155,1
3789,-1515,154,1
3788,-1513,152,1
3792,-1511,152,1
3795,-1508,152,1
3794,-1510,151,1
3793,-1508,152,1
3793,-1509,152,1
3790,-1509,151,1
3783,-1510,155,1
3783,-1511,158,1
3780,-1508,161,1
3782,-1508,163,1
3782,-1508,165,1
3780,-1510,168,1
3783,-1508,165,1
3783,-1511,168,1
3786,-1512,168,1
3785,-1512,163,1
3783,-1514,161,1
3785,-1516,160,1
3782,-1515,157,1
3783,-1514,156,1
3781,-1516,157,1
3783,-1514,156,1
3780,-1512,151,1
3778,-1516,154,1
3779,-1513,157,1
3779,-1513,159,1
3776,-1512,165,1
3781,-1508,166,1
3780,-1510,164,1
3788,-1510,160,1
3786,-1508,163,1
3784,-1509,164,1
3785,-1511,166,1
3787,-1513,170,1
3786,-1514,165,1
3787,-1514,162,1
3790,-1513,166,1
3790,-1513,163,1
3789,-1513,160,1
3789,-1519,162,1
3793,-1516,160,1
3791,-1516,159,1
3791,-1515,163,1
3788,-1515,169,1
3787,-1518,169,1
3789,-1515,167,1
3785,-1516,169,1
3784,-1518,170,1
3786,-1517,173,1
3785,-1515,175,1
3785,-1516,175,1
3788,-1517,172,1
3788,-1516,175,1
3786,-1518,175,1
3784,-1519,173,1
3784,-1520,170,1
3782,-1519,162,1
3785,-1520,156,1
3781,-1520,150,1
3777,-1523,149,1
3780,-1524,149,1
3778,-1524,156,1
3777,-1521,158,1
3778,-1521,164,1
3780,-1525,167,1
3783,-1522,168,1
3788,-1516,167,1
3789,-1514,170,1
3790,-1516,173,1
3791,-1515,172,1
3790,-1513,169,1
3789,-1513,168,1
3788,-1514,166,1
3789,-1516,172,1
3785,-1515,174,1
3786,-1513,176,1
3785,-1514,175,1
3785,-1515,174,1
3783,-1514,173,1
3783,-1517,170,1
3780,-1520,169,1
3784,-1516,167,1
3782,-1520,169,1
3784,-1518,167,1
3789,-1522,163,1
3788,-1523,165,1
3787,-1522,162,1
3783,-1521,161,1
3781,-1520,162,1
3782,-1520,163,1
3777,-1519,158,1
3783,-1516,168,1
3786,-1516,166,1
3789,-1517,167,1
3793,-1515,167,1
3790,-1512,168,1
3789,-1514,171,1
3786,-1511,176,1
3786,-1514,174,1
3785,-1514,178,1
3785,-1517,179,1
3779,-1518,179,1
3779,-1522,182,1
3780,-1525,180,1
3782,-1525,180,1
3780,-1527,177,1
3781,-1522,178,1
3781,-1520,180,1
3780,-1519,181,1
3781,-1521,180,1
3784,-1521,179,1
3790,-1517,182,1
3789,-1516,186,1
3789,-1513,189,1
3786,-1511,187,1
3780,-1515,183,1
3779,-1510,184,1
3772,-1512,178,1
3773,-1515,182,1
3775,-1521,181,1
3780,-1518,190,1
3792,-1516,204,1
3798,-1516,204,1
3790,-1516,200,1
3772,-1515,191,1
3768,-1518,194,1
3770,-1519,189,1
3769,-1523,184,1
3773,-1529,185,1
3778,-1526,192,1
3782,-1526,197,1
3779,-1525,194,1
3783,-1526,193,1
3786,-1521,196,1
3789,-1521,194,1
3785,-1521,195,1
3785,-1522,195,1
3786,-1522,197,1
3787,-1522,197,1
3787,-1523,196,1
3786,-1524,192,1
3784,-1522,191,1
3783,-1519,192,1
3782,-1522,191,1
3782,-1518,189,1
3781,-1515,187,1
3776,-1519,186,1
3776,-1515,186,1
3779,-1518,181,1
3782,-1518,180,1
3784,-1521,176,1
3786,-1521,173,1
3787,-1525,174,1
3788,-1528,175,1
3789,-1527,182,1
3787,-1528,188,1
3786,-1527,192,1
3784,-1527,200,1
3784,-1525,203,1
3784,-1521,204,1
3786,-1519,204,1
3786,-1515,204,1
3784,-1513,206,1
3785,-1514,204,1
3780,-1511,203,1
3780,-1514,205,1
3779,-1518,200,1
3779,-1521,197,1
3775,-1522,195,1
3773,-1521,197,1
3770,-1527,191,1
3768,-1526,189,1
3772,-1528,188,1
3775,-1528,185,1
3779,-1528,184,1
3783,-1534,185,1
3790,-1537,181,1
3790,-1537,178,1
3800,-1537,177,1
3806,-1539,179,1
3802,-1537,181,1
3804,-1537,186,1
3806,-1540,186,1
3805,-1542,187,1
3805,-1542,185,1
3806,-1539,183,1
3806,-1536,180,1
3805,-1536,180,1
3801,-1530,180,1
3794,-1528,181,1
3789,-1527,181,1
3781,-1526,186,1
3775,-1526,188,1
3775,-1525,187,1
3774,-1522,190,1
3766,-1520,193,1
3767,-1513,192,1
3768,-1517,194,1
3764,-1519,195,1
3764,-1517,193,1
3764,-1518,192,1
3761,-1519,191,1
3760,-1519,190,1
3759,-1522,189,1
3760,-1525,191,1
3757,-1529,190,1
3758,-1531,190,1
3761,-1535,185,1
3764,-1534,186,1
3760,-1533,186,1
3760,-1532,188,1
3763,-1532,184,1
3766,-1529,186,1
3772,-1526,180,1
3774,-1524,181,1
3778,-1525,179,1
3782,-1525,182,1
3784,-1529,181,1
3789,-1525,183,1
3790,-1527,185,1
3789,-1528,183,1
3787,-1526,183,1
3788,-1527,182,1
3790,-1530,181,1
3790,-1527,181,1
3789,-1532,181,1
3788,-1526,183,1
3788,-1522,186,1
3789,-1518,191,1
3787,-1516,193,1
3785,-1518,197,1
3785,-1516,205,1
3782,-1517,202,1
3781,-1521,204,1
3784,-1528,208,1
3785,-1534,210,1
3785,-1533,209,1
3778,-1536,218,1
3777,-1539,216,1
3783,-1536,217,1
3782,-1537,216,1
3783,-1542,210,1
3787,-1547,201,1
3786,-1549,194,1
3785,-1543,190,1
3784,-1539,185,1
3785,-1536,186,1
3785,-1539,193,1
3786,-1538,200,1
3786,-1532,208,1
3785,-1532,213,1
3784,-1529,218,1
3776,-1526,221,1
3773,-1523,222,1
3773,-1521,224,1
3771,-1520,222,1
3767,-1521,221,1
3765,-1522,221,1
3766,-1522,220,1
3763,-1525,217,1
3759,-1527,213,1
3760,-1529,210,1
3760,-1533,209,1
3762,-1534,208,1
3760,-1534,208,1
3760,-1533,206,1
3757,-1530,206,1
3761,-1529,206,1
3760,-1525,206,1
3764,-1524,206,1
3768,-1525,208,1
3766,-1525,208,1
3770,-1523,208,1
3774,-1523,209,1
3769,-1526,212,1
3773,-1528,213,1
3771,-1532,213,1
3772,-1534,214,1
3777,-1537,214,1
3782,-1540,212,1
3787,-1535,212,1
3786,-1533,214,1
3784,-1533,214,1
3781,-1534,216,1
3777,-1533,220,1
3777,-1526,227,1
3777,-1522,230,1
3777,-1523,230,1
3779,-1524,234,1
3774,-1526,238,1
3778,-1527,240,1
3776,-1531,239,1
3776,-1530,240,1
3777,-1532,239,1
3775,-1535,239,1
3771,-1534,233,1
3771,-1535,235,1
3774,-1534,237,1
3771,-1535,236,1
3772,-1541,237,1
3765,-1538,236,1
3762,-1542,238,1
3761,-1548,235,1
3760,-1551,235,1
3759,-1550,239,1
3758,-1548,244,1
3756,-1543,245,1
3756,-1542,241,1
3758,-1543,242,1
3762,-1540,238,1
3763,-1538,238,1
3764,-1537,235,1
3767,-1541,234,1
3764,-1540,232,1
3765,-1538,229,1
3768,-1538,238,1
3769,-1537,240,1
3771,-1535,242,1
3774,-1532,240,1
3771,-1533,239,1
3772,-1530,241,1
3768,-1530,238,1
3767,-1531,243,1
3769,-1532,252,1
3765,-1536,259,1
3769,-1538,269,1
3769,-1544,266,1
3773,-1548,266,1
3774,-1551,267,1
3776,-1550,266,1
3774,-1558,265,1
3770,-1556,263,1
3765,-1557,260,1
3761,-1561,258,1
3759,-1562,253,1
3758,-1562,248,1
3760,-1556,244,1
3763,-1552,244,1
3763,-1549,247,1
3763,-1544,247,1
3762,-1539,254,1
3766,-1535,262,1
3770,-1536,272,1
3768,-1535,283,1
3773,-1537,293,1
3773,-1536,294,1
3772,-1538,289,1
3771,-1541,287,1
3772,-1545,282,1
3765,-1548,282,1
3764,-1552,277,1
3764,-1557,276,1
3761,-1560,273,1
3760,-1560,270,1
3759,-1558,270,1
3756,-1555,269,1
3757,-1553,270,1
3756,-1555,267,1
3753,-1552,267,1
3752,-1548,268,1
3748,-1549,273,1
3750,-1550,271,1
3752,-1549,266,1
3752,-1549,266,1
3758,-1549,261,1
3756,-1547,262,1
3752,-1546,261,1
3755,-1546,260,1
3786,-1600,257,1
3768,-1557,252,1
3765,-1545,247,1
3757,-1539,247,1
3755,-1539,255,1
3760,-1541,265,1
3757,-1542,270,1
3761,-1538,265,1
3763,-1544,261,1
3762,-1542,257,1
3760,-1551,259,1
3765,-1554,260,1
3765,-1550,261,1
3769,-1552,257,1
3769,-1556,257,1
3769,-1556,257,1
3768,-1555,256,1
3768,-1556,258,1
3767,-1553,262,1
3765,-1553,261,1
3762,-1550,262,1
3761,-1552,262,1
3758,-1552,262,1
3758,-1548,267,1
3757,-1546,265,1
3754,-1547,265,1
3752,-1545,268,1
3748,-1543,270,1
3750,-1541,266,1
3753,-1539,267,1
3754,-1533,263,1
3757,-1534,261,1
3756,-1530,263,1
3754,-1531,264,1
3753,-1534,265,1
3755,-1538,269,1
3756,-1541,270,1
3755,-1545,270,1
3757,-1549,268,1
3758,-1554,261,1
3759,-1557,259,1
3762,-1559,258,1
3767,-1559,251,1
3767,-1556,248,1
3766,-1558,247,1
3764,-1558,245,1
3764,-1556,246,1
3762,-1555,251,1
3759,-1556,250,1
3757,-1553,252,1
3755,-1553,251,1
3756,-1550,252,1
3755,-1546,253,1
3754,-1546,251,1
3753,-1547,255,1
3754,-1543,253,1
3752,-1543,249,1
3753,-1543,243,1
3753,-1544,239,1
3757,-1545,234,1
3762,-1547,232,1
3762,-1548,229,1
3764,-1547,228,1
3762,-1542,231,1
3762,-1540,236,1
3760,-1538,243,1
3760,-1539,250,1
3762,-1539,255,1
3768,-1538,256,1
3768,-1541,260,1
3764,-1545,260,1
3764,-1549,261,1
3764,-1549,259,1
3764,-1547,253,1
3762,-1548,253,1
3763,-1544,247,1
3759,-1546,247,1
3754,-1542,242,1
3753,-1537,243,1
3744,-1534,245,1
3745,-1530,240,1
3750,-1531,242,1
3751,-1527,241,1
3747,-1524,240,1
3752,-1528,240,1
3755,-1529,239,1
3755,-1532,237,1
3759,-1535,240,1
3760,-1537,243,1
3770,-1540,245,1
3776,-1542,241,1
3777,-1547,242,1
3779,-1550,239,1
3786,-1551,237,1
3787,-1550,236,1
3784,-1549,233,1
3784,-1551,236,1
3787,-1546,237,1
3785,-1540,234,1
3779,-1536,234,1
3775,-1531,237,1
3774,-1527,240,1
3772,-1524,245,1
3768,-1521,249,1
3771,-1518,247,1
3767,-1514,247,1
3765,-1509,245,1
3763,-1514,243,1
3761,-1513,246,1
3766,-1515,245,1
3767,-1519,245,1
3770,-1520,244,1
3771,-1520,245,1
3770,-1519,241,1
3766,-1519,242,1
3766,-1524,245,1
3770,-1525,247,1
3773,-1523,247,1
3773,-1525,247,1
3773,-1522,246,1
3772,-1527,242,1
3773,-1524,242,1
3774,-1522,240,1
3774,-1518,241,1
3775,-1516,243,1
3772,-1513,247,1
3775,-1513,242,1
3774,-1512,245,1
3768,-1511,241,1
3769,-1511,242,1
3769,-1515,243,1
3769,-1515,241,1
3767,-1517,240,1
3765,-1518,240,1
3765,-1519,239,1
3768,-1513,235,1
3770,-1510,232,1
3775,-1511,237,1
3776,-1514,236,1
3778,-1512,236,1
3776,-1509,236,1
3776,-1508,239,1
3780,-1511,243,1
3780,-1514,242,1
3780,-1508,246,1
3782,-1510,250,1
3782,-1516,252,1
3784,-1516,255,1
3784,-1519,252,1
3791,-1517,245,1
3792,-1521,239,1
3791,-1522,235,1
3794,-1520,229,1
3796,-1520,228,1
3792,-1519,227,1
3789,-1518,231,1
3786,-1514,239,1
3787,-1514,243,1
3788,-1509,249,1
3789,-1510,256,1
3788,-1509,257,1
3789,-1511,264,1
3789,-1511,268,1
3784,-1509,268,1
3781,-1509,266,1
3781,-1513,261,1
3777,-1511,257,1
3768,-1512,255,1
3765,-1514,253,1
3766,-1511,250,1
3766,-1512,248,1
3771,-1514,244,1
3772,-1511,244,1
3774,-1511,241,1
3774,-1507,234,1
3772,-1506,232,1
3773,-1502,233,1
3775,-1500,229,1
3778,-1498,229,1
3783,-1501,230,1
3788,-1502,227,1
3786,-1503,224,1
3790,-1507,225,1
3790,-1504,226,1
3792,-1507,226,1
3789,-1511,218,1
3784,-1514,215,1
3782,-1517,213,1
3783,-1515,211,1
3785,-1517,208,1
3788,-1512,208,1
3789,-1511,206,1
3791,-1511,209,1
3789,-1508,209,1
3783,-1505,204,1
3785,-1489,215,1
3784,-1497,215,1
3784,-1508,215,1
3783,-1504,219,1
3788,-1503,228,1
3789,-1507,225,1
3785,-1506,226,1
3788,-1504,228,1
3790,-1503,228,1
3788,-1503,227,1
3789,-1502,227,1
3784,-1505,230,1
3782,-1506,233,1
3781,-1510,230,1
3778,-1509,229,1
3780,-1509,228,1
3779,-1511,227,1
3780,-1507,227,1
3782,-1509,225,1
3780,-1510,226,1
3780,-1510,227,1
3780,-1511,223,1
3785,-1511,221,1
3786,-1510,218,1
3787,-1509,216,1
3785,-1512,212,1
3783,-1508,211,1
3780,-1509,208,1
3782,-1516,207,1
3784,-1516,208,1
3786,-1513,210,1
3788,-1515,205,1
3792,-1511,200,1
3798,-1510,197,1
3796,-1503,199,1
3793,-1505,201,1
3794,-1504,198,1
3791,-1503,199,1
3788,-1502,203,1
3784,-1498,203,1
3779,-1496,205,1
3778,-1496,210,1
3776,-1498,211,1
3775,-1493,211,1
3771,-1497,211,1
3771,-1499,207,1
3773,-1500,199,1
3780,-1501,194,1
3783,-1498,188,1
3786,-1501,181,1
3787,-1504,179,1
3787,-1505,179,1
3787,-1506,185,1
3788,-1506,191,1
3786,-1506,193,1
3787,-1504,202,1
3790,-1504,207,1
3792,-1506,208,1
3794,-1508,206,1
3796,-1503,208,1
3796,-1503,210,1
3793,-1502,204,1
3796,-1502,201,1
3793,-1501,200,1
3798,-1501,200,1
3801,-1504,200,1
3797,-1506,198,1
3794,-1509,194,1
3793,-1507,193,1
3792,-1507,191,1
3788,-1505,191,1
3779,-1507,189,1
3781,-1506,181,1
3783,-1505,179,1
3783,-1503,182,1
3782,-1499,184,1
3780,-1497,186,1
3784,-1495,185,1
3783,-1498,182,1
3781,-1496,183,1
3782,-1501,182,1
3786,-1506,179,1
3794,-1497,187,1
3800,-1499,191,1
3808,-1494,199,1
3800,-1495,192,1
3793,-1497,191,1
3792,-1499,187,1
3797,-1498,183,1
3800,-1501,186,1
3804,-1497,192,1
3806,-1499,194,1
3808,-1497,192,1
3801,-1492,196,1
3796,-1491,192,1
3794,-1492,183,1
3793,-1492,176,1
3791,-1495,178,1
3792,-1496,180,1
3788,-1498,177,1
3788,-1499,177,1
3787,-1500,175,1
3788,-1499,173,1
3788,-1495,177,1
3784,-1491,177,1
3786,-1494,178,1
3787,-1496,179,1
3789,-1499,183,1
3807,-1501,187,1
3802,-1507,164,1
3795,-1503,171,1
3785,-1504,181,1
3780,-1498,183,1
3783,-1496,182,1
3799,-1504,189,1
3794,-1494,182,1
3786,-1488,188,1
3788,-1489,188,1
3807,-1507,183,1
3807,-1502,172,1
3793,-1501,182,1
3777,-1498,186,1
3774,-1492,183,1
3771,-1484,182,1
3774,-1483,184,1
3780,-1481,184,1
3794,-1483,185,1
3801,-1487,181,1
3805,-1490,181,1
3806,-1490,184,1
3807,-1496,183,1
3808,-1499,181,1
3812,-1499,184,1
3809,-1500,186,1
3802,-1498,188,1
3802,-1498,191,1
3795,-1496,187,1
3795,-1495,183,1
3791,-1500,180,1
3789,-1499,175,1
3788,-1496,171,1
3788,-1495,166,1
3788,-1496,169,1
3789,-1502,168,1
3789,-1503,173,1
3787,-1503,177,1
3787,-1501,180,1
3786,-1494,185,1
3785,-1491,192,1
3786,-1489,197,1
3786,-1488,198,1
3791,-1488,200,1
3791,-1489,198,1
3790,-1487,195,1
3791,-1489,194,1
3790,-1493,191,1
3786,-1500,187,1
3783,-1502,185,1
3784,-1504,188,1
3785,-1505,189,1
3785,-1506,188,1
3788,-1512,187,1
3791,-1513,189,1
3790,-1507,182,1
3781,-1504,183,1
3776,-1503,182,1
3776,-1500,177,1
3776,-1503,175,1
3782,-1505,178,1
3787,-1504,182,1
3789,-1500,180,1
3791,-1500,179,1
3793,-1504,177,1
3791,-1505,177,1
3791,-1503,177,1
3794,-1504,178,1
3797,-1507,174,1
3825,-1517,187,1
3819,-1514,175,1
3815,-1512,176,1
3793,-1507,181,1
3774,-1499,177,1
3772,-1492,183,1
3772,-1490,176,1
3776,-1493,181,1
3779,-1498,186,1
3782,-1494,188,1
3786,-1495,184,1
3789,-1499,188,1
3793,-1505,190,1
3795,-1504,191,1
3794,-1506,190,1
3792,-1509,190,1
3792,-1512,192,1
3797,-1517,195,1
3799,-1518,196,1
3795,-1520,197,1
3796,-1520,197,1
3795,-1516,197,1
3792,-1517,195,1
3786,-1520,193,1
3786,-1520,195,1
3784,-1519,192,1
3784,-1516,193,1
3782,-1515,189,1
3780,-1514,185,1
3782,-1515,187,1
3785,-1514,187,1
3787,-1516,188,1
3787,-1513,188,1
3788,-1513,185,1
3788,-1514,187,1
3784,-1514,189,1
3784,-1513,185,1
3785,-1511,183,1
3785,-1507,178,1
3785,-1504,176,1
3786,-1502,179,1
3788,-1502,181,1
3782,-1501,183,1
3781,-1500,183,1
3782,-1499,188,1
3780,-1506,189,1
3782,-1506,189,1
3782,-1507,187,1
3782,-1510,182,1
3782,-1512,180,1
3779,-1512,183,1
3776,-1515,184,1
3780,-1516,182,1
3780,-1516,179,1
3787,-1516,177,1
3791,-1515,168,1
3792,-1516,168,1
3796,-1517,166,1
3796,-1518,165,1
3798,-1519,164,1
3797,-1517,166,1
3795,-1517,170,1
3792,-1517,173,1
3793,-1513,180,1
3787,-1514,181,1
3792,-1512,181,1
3790,-1511,186,1
3790,-1508,185,1
3789,-1507,182,1
3788,-1507,181,1
3785,-1508,180,1
3783,-1508,179,1
3782,-1505,175,1
3781,-1507,178,1
3779,-1508,177,1
3772,-1509,180,1
3774,-1508,182,1
3773,-1507,182,1
3777,-1509,182,1
3782,-1509,176,1
3785,-1508,173,1
3786,-1505,172,1
3789,-1506,173,1
3787,-1509,170,1
3787,-1505,170,1
3787,-1507,169,1
3788,-1508,173,1
3790,-1508,174,1
3792,-1507,175,1
3791,-1508,177,1
3793,-1506,169,1
3800,-1510,170,1
3799,-1508,163,1
3795,-1508,161,1
3793,-1504,162,1
3797,-1504,164,1
3796,-1503,170,1
3792,-1499,178,1
3790,-1503,179,1
3788,-1503,177,1
3786,-1499,179,1
3786,-1497,175,1
3788,-1494,172,1
3790,-1494,173,1
3790,-1497,178,1
3788,-1496,178,1
3790,-1495,179,1
3789,-1492,181,1
3788,-1494,184,1
3789,-1493,187,1
3789,-1494,187,1
3791,-1491,189,1
3792,-1493,190,1
3790,-1494,190,1
3789,-1492,193,1
3795,-1492,193,1
3794,-1496,193,1
3792,-1499,191,1
3791,-1501,193,1
3790,-1499,195,1
3791,-1495,190,1
3794,-1496,193,1
3796,-1494,192,1
3793,-1490,188,1
3790,-1490,186,1
3789,-1490,185,1
3790,-1492,184,1
3787,-1495,187,1
3786,-1498,187,1
3786,-1495,189,1
3791,-1498,187,1
3796,-1498,183,1
3792,-1494,187,1
3791,-1493,185,1
3791,-1490,187,1
3790,-1491,186,1
3790,-1492,189,1
3789,-1496,194,1
3788,-1490,195,1
3789,-1487,192,1
3788,-1489,194,1
3787,-1489,194,1
3788,-1488,191,1
3789,-1486,195,1
3788,-1486,189,1
3790,-1486,185,1
3794,-1488,180,1
3796,-1491,171,1
3803,-1495,169,1
3805,-1495,171,1
3805,-1496,168,1
3807,-1496,169,1
3804,-1495,172,1
3803,-1493,178,1
3804,-1494,185,1
3806,-1490,192,1
3800,-1487,193,1
3801,-1486,193,1
3804,-1489,193,1
3799,-1488,192,1
3796,-1487,191,1
3791,-1487,187,1
3785,-1484,182,1
3786,-1483,179,1
3780,-1478,181,1
3779,-1480,183,1
3783,-1479,187,1
3781,-1476,187,1
3776,-1480,185,1
3773,-1482,180,1
3772,-1483,184,1
3777,-1484,187,1
3780,-1482,190,1
3785,-1487,191,1
3789,-1490,192,1
3796,-1490,187,1
3797,-1494,187,1
3799,-1494,186,1
3804,-1495,186,1
3803,-1493,185,1
3804,-1495,184,1
3803,-1494,183,1
3806,-1495,181,1
3804,-1493,183,1
3802,-1493,182,1
3804,-1491,181,1
3803,-1487,180,1
3802,-1487,179,1
3798,-1488,176,1
3797,-1490,180,1
3796,-1492,178,1
3795,-1491,181,1
3797,-1492,184,1
3800,-1495,187,1
3799,-1497,185,1
3803,-1499,185,1
3803,-1496,186,1
3803,-1496,181,1
3799,-1496,178,1
3795,-1494,177,1
3792,-1493,180,1
3793,-1493,181,1
3794,-1491,181,1
3788,-1491,180,1
3787,-1488,179,1
3786,-1486,183,1
3783,-1484,178,1
3783,-1481,178,1
3781,-1479,180,1
3778,-1479,177,1
3780,-1479,171,1
3780,-1475,173,1
3781,-1476,173,1
3783,-1479,169,1
3783,-1478,170,1
3786,-1481,170,1
3790,-1480,168,1
3792,-1482,168,1
3792,-1489,170,1
3790,-1493,174,1
3793,-1490,172,1
3794,-1490,166,1
3799,-1491,161,1
3802,-1491,158,1
3803,-1491,158,1
3803,-1491,157,1
3805,-1491,159,1
3805,-1496,165,1
3803,-1492,169,1
3802,-1498,170,1
3802,-1501,170,1
3799,-1500,169,1
3801,-1502,171,1
3803,-1500,172,1
3809,-1499,176,1
3809,-1501,177,1
3801,-1501,170,1
3800,-1498,163,1
3800,-1497,156,1
3798,-1493,152,1
3793,-1492,148,1
3792,-1492,141,1
3791,-1491,136,1
3790,-1488,138,1
3788,-1483,148,1
3789,-1481,161,1
3795,-1479,175,1
3794,-1478,183,1
3797,-1476,188,1
3800,-1472,190,1
3798,-1471,190,1
3795,-1470,190,1
3799,-1466,185,1
3799,-1466,181,1
3796,-1470,178,1
3791,-1474,176,1
3787,-1477,170,1
3785,-1477,173,1
3781,-1479,172,1
3779,-1479,172,1
3780,-1483,170,1
3778,-1484,162,1
3779,-1482,159,1
3780,-1484,158,1
3782,-1483,154,1
3784,-1483,160,1
3788,-1483,160,1
3790,-1482,158,1
3793,-1484,157,1
3798,-1482,154,1
3799,-1478,155,1
3801,-1478,153,1
3804,-1475,155,1
3807,-1478,159,1
3808,-1478,159,1
3812,-1476,159,1
3809,-1474,159,1
3808,-1473,154,1
3806,-1472,150,1
3802,-1475,149,1
3797,-1476,154,1
3800,-1476,156,1
3800,-1477,157,1
3801,-1477,161,1
3803,-1485,159,1
3801,-1488,159,1
3802,-1487,156,1
3802,-1489,157,1
3804,-1489,160,1
3801,-1488,161,1
3800,-1488,167,1
3799,-1488,167,1
3794,-1490,166,1
3793,-1486,166,1
3788,-1483,169,1
3786,-1481,169,1
3783,-1481,170,1
3784,-1477,176,1
3785,-1476,178,1
3783,-1473,178,1
3785,-1473,178,1
3785,-1472,177,1
3787,-1474,176,1
3786,-1476,174,1
3786,-1478,174,1
3787,-1480,179,1
3786,-1481,180,1
3785,-1484,178,1
3787,-1489,179,1
3786,-1491,173,1
3788,-1491,169,1
3789,-1492,169,1
3789,-1490,172,1
3794,-1495,171,1
3795,-1490,168,1
3792,-1486,165,1
3799,-1481,168,1
3799,-1479,167,1
3799,-1476,171,1
3802,-1476,175,1
3801,-1476,183,1
3803,-1476,186,1
3798,-1477,189,1
3802,-1479,186,1
3802,-1487,184,1
3798,-1489,185,1
3798,-1493,185,1
3797,-1495,185,1
3794,-1496,185,1
3798,-1497,179,1
3804,-1499,174,1
3810,-1498,172,1
3806,-1494,164,1
3806,-1493,162,1
3806,-1492,164,1
3803,-1490,167,1
3808,-1489,177,1
3809,-1488,192,1
3805,-1486,192,1
3805,-1489,195,1
3806,-1490,193,1
3803,-1489,188,1
3804,-1483,187,1
3800,-1487,183,1
3799,-1489,183,1
3802,-1493,177,1
3797,-1493,177,1
3789,-1491,177,1
3787,-1490,181,1
3785,-1489,181,1
3783,-1486,179,1
3779,-1486,178,1
3780,-1488,181,1
3779,-1489,182,1
3783,-1490,184,1
3781,-1486,185,1
3785,-1484,184,1
3792,-1486,184,1
3797,-1484,184,1
3794,-1485,183,1
3796,-1485,186,1
3798,-1486,190,1
3800,-1486,196,1
3803,-1490,200,1
3802,-1494,199,1
3803,-1495,195,1
3801,-1491,194,1
3797,-1491,193,1
3797,-1493,192,1
3796,-1499,191,1
3794,-1498,189,1
3793,-1501,189,1
3795,-1505,192,1
3795,-1506,193,1
3797,-1507,194,1
3799,-1505,197,1
3805,-1501,199,1
3809,-1502,196,1
3805,-1503,194,1
3808,-1497,192,1
3803,-1497,191,1
3803,-1498,189,1
3799,-1499,185,1
3793,-1501,185,1
3792,-1496,188,1
3789,-1494,189,1
3787,-1489,193,1
3785,-1488,192,1
3786,-1486,193,1
3783,-1483,190,1
3783,-1482,186,1
3785,-1485,187,1
3784,-1484,188,1
3783,-1489,190,1
3785,-1488,191,1
3787,-1490,194,1
3787,-1492,194,1
3788,-1494,193,1
3788,-1496,198,1
3790,-1496,196,1
3791,-1497,197,1
3792,-1500,195,1
3793,-1504,197,1
3794,-1505,201,1
3794,-1506,205,1
3798,-1507,205,1
3802,-1504,200,1
3805,-1503,196,1
3805,-1506,199,1
3799,-1508,205,1
3800,-1506,210,1
3800,-1503,213,1
3798,-1503,215,1
3798,-1503,217,1
3797,-1502,219,1
3803,-1501,215,1
3804,-1505,217,1
3799,-1507,217,1
3796,-1510,214,1
3792,-1511,215,1
3788,-1511,214,1
3789,-1515,209,1
3790,-1518,201,1
3789,-1516,196,1
3788,-1513,188,1
3787,-1513,188,1
3783,-1511,188,1
3778,-1510,188,1
3778,-1509,198,1
3778,-1508,210,1
3782,-1505,216,1
3786,-1503,221,1
3789,-1502,216,1
3792,-1503,215,1
3796,-1507,211,1
3797,-1505,212,1
3794,-1507,209,1
3793,-1511,206,1
3789,-1511,208,1
3783,-1511,205,1
3778,-1515,204,1
3777,-1514,207,1
3776,-1511,209,1
3774,-1511,210,1
3773,-1508,209,1
3776,-1504,212,1
3776,-1510,212,1
3778,-1509,210,1
3780,-1509,208,1
3781,-1510,206,1
3780,-1511,208,1
3777,-1512,209,1
3775,-1513,212,1
3777,-1514,216,1
3775,-1514,221,1
3775,-1518,223,1
3774,-1514,228,1
3778,-1513,228,1
3782,-1515,229,1
3789,-1517,231,1
3791,-1515,230,1
3789,-1520,234,1
3790,-1519,234,1
3788,-1517,237,1
3788,-1517,236,1
3788,-1520,237,1
3786,-1518,241,1
3786,-1519,241,1
3785,-1523,245,1
3784,-1522,248,1
3782,-1524,249,1
3780,-1528,252,1
3783,-1527,251,1
3780,-1528,250,1
3778,-1524,251,1
3772,-1523,253,1
3771,-1525,252,1
3776,-1521,253,1
3777,-1519,250,1
3768,-1517,254,1
3762,-1513,256,1
3759,-1507,254,1
3756,-1507,253,1
3757,-1507,255,1
3760,-1508,257,1
3765,-1512,258,1
3764,-1515,261,1
3769,-1519,261,1
3775,-1518,256,1
3777,-1524,250,1
3779,-1521,248,1
3790,-1526,253,1
3793,-1523,248,1
3793,-1528,243,1
3791,-1531,240,1
3789,-1533,246,1
3790,-1539,245,1
3788,-1543,251,1
3788,-1544,250,1
3787,-1549,251,1
3788,-1547,257,1
3793,-1536,273,1
3801,-1538,279,1
3799,-1541,274,1
3797,-1549,269,1
3786,-1547,275,1
3781,-1546,277,1
3774,-1543,281,1
3773,-1544,283,1
3777,-1544,288,1
3779,-1549,292,1
3764,-1549,278,1
3766,-1539,297,1
3768,-1542,292,1
3777,-1545,289,1
3775,-1541,283,1
3773,-1546,280,1
3778,-1545,277,1
3777,-1543,282,1
3775,-1543,289,1
3772,-1540,292,1
3771,-1544,296,1
3769,-1546,301,1
3769,-1549,310,1
3774,-1550,313,1
3772,-1546,314,1
3775,-1544,317,1
3778,-1545,316,1
3774,-1549,314,1
3770,-1549,315,1
3768,-1551,310,1
3763,-1557,305,1
3763,-1558,306,1
3759,-1558,301,1
3757,-1558,297,1
3757,-1558,294,1
3757,-1555,294,1
3758,-1553,294,1
3757,-1558,294,1
3759,-1555,295,1
3762,-1555,292,1
3764,-1553,291,1
3770,-1555,296,1
3769,-1555,294,1
3769,-1553,299,1
3772,-1555,306,1
3776,-1553,309,1
3778,-1556,312,1
3772,-1560,311,1
3773,-1559,310,1
3775,-1560,310,1
3777,-1564,310,1
3778,-1567,311,1
3777,-1571,307,1
3786,-1571,313,1
3820,-1585,318,1
3799,-1562,316,1
3775,-1560,319,1
3744,-1540,314,1
3735,-1541,317,1
3733,-1539,323,1
3740,-1536,327,1
3747,-1539,326,1
3758,-1553,324,1
3766,-1559,328,1
3771,-1563,333,1
3773,-1568,334,1
3772,-1576,334,1
3783,-1588,326,1
3796,-1583,331,1
3789,-1578,327,1
3785,-1583,332,1
3781,-1580,330,1
3779,-1578,331,1
3772,-1576,330,1
3768,-1580,333,1
3771,-1584,340,1
3764,-1580,332,1
3757,-1574,330,1
3756,-1568,334,1
3755,-1576,335,1
3756,-1582,340,1
3755,-1580,345,1
3753,-1579,349,1
3756,-1580,347,1
3768,-1586,346,1
3763,-1583,346,1
3759,-1588,350,1
3759,-1592,355,1
3762,-1588,357,1
3762,-1591,351,1
3753,-1581,347,1
3748,-1581,348,1
3745,-1582,350,1
3752,-1584,357,1
3763,-1585,359,1
3771,-1588,358,1
3771,-1584,358,1
3768,-1579,360,1
3770,-1570,365,1
3783,-1579,365,1
3775,-1577,354,1
3773,-1569,358,1
3791,-1581,365,1
3776,-1583,361,1
3762,-1571,351,1
3764,-1589,343,1
3777,-1607,337,1
3801,-1621,330,1
3803,-1622,321,1
3770,-1598,322,1
3729,-1575,337,1
3722,-1578,353,1
3799,-1719,314,1
3824,-1696,334,1
3763,-1587,352,1
3723,-1550,363,1
3706,-1554,375,1
3720,-1575,386,1
3749,-1597,392,1
3777,-1608,382,1
3781,-1592,376,1
3792,-1601,378,1
3806,-1595,390,1
3842,-1654,372,1
3831,-1647,369,1
3834,-1601,390,1
3835,-1638,369,1
3746,-1560,363,1
3691,-1516,387,1
3723,-1602,384,1
3720,-1587,383,1
3707,-1556,396,1
3738,-1578,397,1
3775,-1589,381,1
3802,-1608,366,1
3825,-1629,378,1
3865,-1652,396,1
3908,-1671,408,1
3866,-1652,389,1
3830,-1647,416,1
3747,-1570,443,1
3721,-1550,448,1
3729,-1602,417,1
3788,-1679,420,1
3751,-1590,463,1
3725,-1555,445,1
3682,-1525,417,1
3685,-1530,417,1
3683,-1551,413,1
3676,-1538,435,1
3683,-1535,435,1
3692,-1537,430,1
3758,-1587,422,1
3791,-1602,406,1
3760,-1586,412,1
3712,-1569,408,1
3637,-1474,464,1
3639,-1421,542,1
3602,-1499,473,1
3636,-1498,481,1
3612,-1482,500,1
3582,-1488,505,1
3570,-1486,522,1
3589,-1498,524,1
3615,-1509,498,1
3651,-1534,486,1
3717,-1548,504,1
3742,-1570,506,1
3762,-1577,541,1
3724,-1553,547,1
3692,-1556,539,1
3679,-1562,553,1
3674,-1565,575,1
3643,-1554,562,1
3627,-1546,560,1
3661,-1572,574,1
3700,-1583,562,1
3752,-1609,554,1
3789,-1648,520,1
3763,-1604,514,1
3708,-1595,535,1
3786,-1687,556,1
3819,-1658,557,1
3765,-1658,544,1
3681,-1591,573,1
3615,-1548,607,1
3556,-1525,601,1
3557,-1526,622,1
3582,-1531,645,1
3590,-1540,639,1
3595,-1555,626,1
3615,-1549,612,1
3597,-1527,605,1
3583,-1502,602,1
3605,-1543,630,1
3615,-1538,659,1
3553,-1465,698,1
3545,-1478,741,1
3552,-1465,765,1
3667,-1520,738,1
3753,-1542,659,1
3865,-1549,667,1
3812,-1560,686,1
3842,-1503,710,1
3750,-1481,657,1
3663,-1467,674,1
3565,-1429,715,1
3468,-1408,739,1
3393,-1413,787,1
3341,-1408,858,1
3298,-1422,948,1
3304,-1446,1055,1
3356,-1478,1132,1
3455,-1546,1150,1
3567,-1590,1137,1
3661,-1609,1104,1
3735,-1618,1072,1
3808,-1644,1048,1
3840,-1623,1026,1
3844,-1618,1000,1
3844,-1642,967,1
3845,-1666,937,1
3821,-1684,906,1
3771,-1695,883,1
3707,-1705,873,1
3663,-1704,876,1
3639,-1708,847,1
3629,-1703,799,1
3632,-1694,768,1
3636,-1676,742,1
3628,-1637,713,1
3634,-1630,719,1
3632,-1630,787,1
3597,-1645,876,1
3523,-1712,918,1
3437,-1806,957,1
3373,-1893,1019,1
3316,-1929,1056,1
3284,-1947,1077,1
3288,-1942,1103,1
3350,-1935,1133,1
3293,-1798,1107,1
3252,-1656,1098,1
3203,-1550,1078,1
3080,-1379,1083,1
2992,-1267,1122,1
2902,-1106,1229,1
2812,-930,1390,1
2707,-818,1563,1
2603,-752,1679,1
2484,-680,1775,1
2375,-668,1854,1
2306,-700,1933,1
2263,-812,1948,1
2264,-979,1933,1
2323,-1190,1917,1
2434,-1425,1841,1
2473,-1655,1644,1
2524,-1822,1459,1
2635,-1958,1383,1
2755,-2052,1384,1
2860,-2097,1470,1
2938,-2147,1634,1
2988,-2220,1790,1
3014,-2337,1862,1
3041,-2426,1848,1
3071,-2481,1763,1
3109,-2551,1598,1
3151,-2628,1413,1
3215,-2680,1246,1
3268,-2688,1087,1
3305,-2723,917,1
3311,-2717,785,1
3301,-2746,655,1
3288,-2789,545,1
3279,-2823,461,1
3253,-2850,373,1
3197,-2887,307,1
3134,-2919,361,1
3086,-2958,516,1
3047,-2978,725,1
3000,-2938,952,1
2962,-2816,1184,1
2962,-2662,1390,1
3003,-2522,1544,1
3058,-2400,1594,1
3090,-2261,1530,1
3120,-2153,1371,1
3152,-2085,1176,1
3176,-2060,993,1
3175,-2032,849,1
3168,-2076,749,1
3122,-2082,674,1
3051,-2099,565,1
2951,-2074,461,1
2840,-2043,367,1
2753,-2031,299,1
2685,-2052,279,1
2649,-2091,365,1
2632,-2076,571,1
2635,-2022,811,1
2659,-1929,1030,1
2697,-1841,1188,1
2753,-1760,1281,1
2877,-1731,1390,1
3022,-1703,1515,1
3132,-1662,1566,1
3186,-1570,1530,1
3240,-1512,1486,1
3290,-1497,1398,1
3310,-1491,1242,1
3325,-1490,1087,1
3330,-1485,942,1
3297,-1467,782,1
3221,-1405,646,1
3153,-1415,596,1
3105,-1457,616,1
3056,-1486,683,1
2996,-1471,753,1
2934,-1433,768,1
2883,-1378,745,1
2847,-1351,678,1
2839,-1309,619,1
2878,-1294,590,1
2939,-1297,507,1
3028,-1298,406,1
3117,-1353,335,1
3230,-1461,315,1
3367,-1626,347,1
3457,-1719,427,1
3509,-1781,449,1
3457,-1782,369,1
3410,-1778,284,1
3341,-1783,176,1
3259,-1823,70,1
3167,-1863,-14,1
3092,-1905,-46,1
3029,-1877,-5,1
2998,-1837,104,1
2998,-1756,248,1
3005,-1639,382,1
3036,-1505,476,1
3059,-1304,508,1
3077,-1118,492,1
3106,-949,438,1
3167,-812,425,1
3268,-787,475,1
3380,-837,624,1
3472,-881,842,1
3515,-920,1080,1
3495,-934,1275,1
3410,-958,1418,1
3252,-1013,1447,1
3043,-1146,1342,1
2845,-1304,1227,1
2685,-1456,1170,1
2567,-1620,1183,1
2489,-1681,1167,1
2441,-1730,1118,1
2421,-1737,1017,1
2457,-1735,874,1
2543,-1683,707,1
2640,-1640,531,1
2751,-1547,366,1
2878,-1487,254,1
3014,-1457,220,1
3131,-1460,240,1
3203,-1441,273,1
3202,-1403,288,1
3143,-1382,259,1
3036,-1381,198,1
2954,-1419,150,1
2899,-1454,107,1
2875,-1473,58,1
2894,-1484,27,1
2962,-1453,35,1
3118,-1447,115,1
3331,-1433,228,1
3583,-1390,333,1
3850,-1323,390,1
4158,-1259,394,1
4485,-1198,370,1
4780,-1157,302,1
5018,-1128,202,1
5144,-1029,84,1
5197,-964,-20,1
5174,-918,-84,1
5100,-870,-82,1
5018,-840,-5,1
4980,-851,131,1
5013,-919,334,1
5101,-1023,599,1
5269,-1168,766,1
5543,-1281,771,1
5959,-1524,638,1
6245,-1674,585,1
6344,-1725,652,1
6311,-1754,749,1
6068,-1702,824,1
5796,-1739,858,1
5413,-1690,869,1
5048,-1749,786,1
4725,-1739,593,1
4554,-1872,361,1
4444,-1942,145,1
4329,-1913,-39,1
4272,-1907,-112,1
4298,-1910,-134,1
4403,-1857,-117,1
4523,-1747,-168,1
4696,-1630,-220,1
4943,-1488,-239,1
5207,-1289,-150,1
5419,-1104,26,1
5578,-860,254,1
5574,-628,501,1
5466,-415,853,1
5317,-356,1275,1
5149,-417,1983,1
4979,-701,2823,1
4877,-1202,3815,1
4801,-1832,4519,1
4686,-2431,4599,1
4593,-2878,4049,1
4513,-3255,3058,1
4366,-3387,1969,1
4242,-3383,906,1
4148,-3162,198,1
3999,-2858,-294,1
3830,-2543,-591,1
3687,-2274,-666,1
3587,-2083,-604,1
3448,-1925,-579,1
3330,-1824,-587,1
3335,-1714,-560,1
3446,-1602,-480,1
3670,-1510,-445,1
3910,-1377,-406,1
4129,-1206,-345,1
4262,-980,-370,1
4288,-744,-452,1
4227,-401,-459,1
4120,-41,-364,1
3972,146,-365,1
3847,282,-356,1
3728,459,-298,1
3653,586,-189,1
3582,675,17,1
3532,711,128,1
3490,724,278,1
3514,664,477,1
3594,670,616,1
3685,702,617,1
3797,731,527,1
3958,708,428,1
4096,697,478,1
4251,573,530,1
4379,505,530,1
4469,464,593,1
4572,393,659,1
4658,327,667,1
4667,331,639,1
4738,259,571,1
4740,213,513,1
4712,140,378,1
4640,89,246,1
4542,47,130,1
4409,20,21,1
4240,19,-41,1
4062,15,-92,1
3888,11,-103,1
3760,23,-145,1
3713,67,-202,1
3746,99,-312,1
3773,110,-428,1
3743,101,-499,1
3653,134,-542,1
3580,188,-564,1
3558,258,-555,1
3613,333,-508,1
3739,439,-442,1
3846,575,-381,1
3907,646,-366,1
3886,635,-352,1
3825,584,-346,1
3719,570,-387,1
3624,638,-433,1
3428,737,-510,1
3193,818,-626,1
2992,917,-787,1
2951,978,-1002,1
2967,1013,-1077,1
3049,1016,-965,1
3163,947,-704,1
3209,935,-402,1
3156,877,-162,1
3023,777,65,1
2857,761,299,1
2693,682,510,1
2423,573,820,1
2142,498,829,1
1889,498,823,1
1720,500,910,1
1574,625,883,1
1388,430,640,1
1162,120,313,1
1089,-367,-48,1
1079,-594,-216,1
1108,-880,-160,1
1076,-1118,-242,1
1042,-1348,-292,1
1038,-1471,-350,1
1057,-1476,-362,1
1115,-1432,-461,1
1260,-1195,-443,1
1537,-1082,-288,1
1876,-827,-36,1
2271,-669,82,1
2397,-358,47,1
2532,-122,-144,1
2735,558,-95,1
2955,549,-170,1
2948,515,-228,1
3046,476,-108,1
3070,445,-115,1
3033,-43,-484,1
2855,-48,-401,1
2744,-550,-412,1
2717,-482,-303,1
2803,-468,-297,1
2847,-294,-180,1
2880,-120,-31,1
2846,22,-61,1
2840,62,-195,1
2896,142,-270,1
2975,261,-335,1
3032,583,-415,1
3098,572,-421,1
3100,461,-358,1
3084,451,-333,1
3047,505,-292,1
3065,297,-289,1
3129,372,-369,1
3552,365,-180,1
3772,171,-161,1
4053,44,-170,1
4239,63,-5,1
4211,46,352,1
4066,187,985,1
3848,273,1661,1
3714,408,2365,1
3723,481,3072,1
3768,595,3405,1
3980,568,3653,1
4220,698,3820,1
4400,1002,3953,1
4477,1258,3763,1
4588,1432,3766,1
4831,1843,3927,1
4934,1784,3256,1
5241,1746,2867,1
5654,1563,2683,1
6026,1342,2463,1
6815,2114,3065,1
8206,3197,3824,1
9702,4346,5053,1
10964,5763,6452,1
11323,6843,7387,1
11150,7242,7790,1
9944,6896,7626,1
8767,6042,7541,1
7936,4830,7421,1
7223,3614,7363,1
6851,2659,7359,1
6063,1822,7132,1
5325,1250,6708,1
4652,338,6112,1
4110,-307,5527,1
3608,-867,4947,1
3160,-1334,4289,1
2732,-1567,3750,1
2306,-1675,3306,1
1937,-1545,3115,1
1727,-1270,2991,1
1680,-846,3015,1
1729,-386,3129,1
1827,5,3289,1
1896,289,3397,1
1925,485,3492,1
1919,717,3572,1
2022,742,3820,1
2138,631,4140,1
2163,438,4454,1
2022,107,4743,1
1787,-473,4941,1
1550,-1323,5003,1
1424,-2270,4940,1
1306,-3188,4632,1
1275,-3761,4184,1
1288,-4086,3600,1
1368,-4159,3036,1
1465,-4050,2506,1
1457,-3689,2049,1
1341,-3273,1669,1
1198,-2750,1530,1
1106,-2296,1552,1
1073,-1800,1711,1
1086,-1365,1951,1
1153,-1003,2196,1
1291,-703,2421,1
1525,-445,2745,1
1752,-236,3073,1
1855,-66,3300,1
1824,160,3442,1
1737,373,3571,1
1641,543,3676,1
1641,688,3851,1
1716,783,4028,1
1821,840,4168,1
1871,928,4183,1
1868,1043,4142,1
1901,998,4024,1
1935,1056,3952,1
2037,990,3875,1
2125,916,3796,1
2223,856,3711,1
2275,862,3617,1
2298,914,3554,1
2323,893,3458,1
2329,993,3405,1
2320,1148,3411,1
2333,1231,3442,1
2332,1334,3481,1
2322,1376,3488,1
2294,1424,3500,1
2243,1501,3547,1
2149,1593,3608,1
2068,1529,3601,1
1987,1446,3592,1
1977,1389,3598,1
1977,1368,3632,1
2001,1328,3671,1
2013,1297,3678,1
2034,1197,3638,1
2025,1144,3585,1
1994,1071,3565,1
1931,1040,3577,1
1831,1045,3605,1
1705,1073,3620,1
1591,1120,3666,1
1513,1166,3749,1
1464,1198,3834,1
1438,1236,3896,1
1395,1251,3878,1
1355,1270,3840,1
1343,1266,3783,1
1359,1213,3728,1
1421,1133,3737,1
1439,1108,3742,1
1445,1064,3768,1
1453,1019,3772,1
1453,965,3719,1
1472,898,3685,1
1487,848,3617,1
1516,794,3561,1
1519,785,3482,1
1509,814,3412,1
1507,873,3357,1
1522,937,3314,1
1526,952,3251,1
1514,964,3210,1
1481,970,3196,1
1494,984,3224,1
1535,950,3274,1
1532,842,3255,1
1532,795,3285,1
1523,797,3315,1
1482,810,3297,1
1455,808,3299,1
1442,817,3316,1
1466,844,3368,1
1520,859,3413,1
1574,891,3434,1
1633,937,3452,1
1700,987,3462,1
1769,1050,3487,1
1831,1088,3479,1
1878,1141,3463,1
1928,1214,3449,1
1903,1188,3387,1
1883,1160,3368,1
1874,1125,3391,1
1876,1158,3421,1
1867,1175,3390,1
1840,1130,3343,1
1808,1059,3280,1
1802,1077,3233,1
1853,1116,3221,1
1930,1150,3237,1
1998,1149,3268,1
2011,1123,3296,1
2028,1090,3320,1
2043,1054,3298,1
2089,979,3273,1
2118,918,3256,1
2098,906,3249,1
2078,838,3230,1
2063,809,3204,1
2053,839,3186,1
2050,898,3212,1
2051,941,3236,1
2091,951,3228,1
2129,862,3196,1
2161,878,3124,1
2232,940,3120,1
2277,985,3127,1
2312,1026,3167,1
2334,1034,3230,1
2327,1092,3273,1
2308,1082,3222,1
2289,1026,3130,1
2302,976,3066,1
2294,981,3019,1
2311,1017,3025,1
2348,1029,3113,1
2361,997,3173,1
2346,911,3176,1
2331,886,3156,1
2294,862,3110,1
2301,850,3048,1
2313,958,2968,1
2321,1009,2976,1
2351,948,2866,1
2406,913,2826,1
2500,912,2866,1
2543,964,2876,1
2573,926,2851,1
2558,929,2877,1
2548,953,2982,1
2530,965,3069,1
2487,987,3106,1
2438,993,3097,1
2416,892,3045,1
2401,858,2999,1
2356,855,2938,1
2376,752,2838,1
2422,731,2800,1
2448,762,2764,1
2501,749,2770,1
2551,733,2830,1
2556,744,2888,1
2557,760,2943,1
2541,697,2888,1
2562,616,2753,1
2596,621,2690,1
2642,558,2615,1
2699,557,2549,1
2715,592,2533,1
2747,606,2534,1
2784,699,2584,1
2747,792,2580,1
2749,772,2586,1
2767,780,2584,1
2745,829,2578,1
2697,783,2485,1
2658,779,2408,1
2643,853,2369,1
2618,950,2350,1
2555,912,2238,1
2574,909,2198,1
2622,877,2147,1
2658,876,2117,1
2750,840,2151,1
2845,820,2198,1
2946,781,2265,1
3049,835,2394,1
3152,782,2462,1
3209,770,2454,1
3236,813,2438,1
3269,817,2431,1
3313,851,2399,1
3359,863,2356,1
3406,930,2351,1
3426,972,2326,1
3449,976,2296,1
3502,976,2316,1
3539,915,2335,1
3553,841,2362,1
3545,788,2381,1
3531,730,2402,1
3511,675,2421,1
3498,687,2455,1
3489,698,2486,1
3446,683,2474,1
3432,657,2415,1
3478,611,2322,1
3488,568,2259,1
3447,541,2255,1
3416,571,2266,1
3408,647,2275,1
3411,727,2282,1
3394,707,2263,1
3357,722,2271,1
3326,697,2282,1
3306,647,2275,1
3266,635,2269,1
3284,536,2203,1
3302,490,2116,1
3322,522,2068,1
3382,410,1993,1
3391,315,1946,1
3398,215,1913,1
3401,153,1888,1
3386,130,1883,1
3374,74,1899,1
3367,10,1920,1
3334,-19,1933,1
3294,-71,1957,1
3254,-85,1981,1
3233,-117,2008,1
3215,-133,2002,1
3224,-149,2034,1
3227,-196,2043,1
3238,-231,2072,1
3247,-249,2077,1
3267,-311,2083,1
3272,-319,2035,1
3299,-347,2018,1
3339,-368,2031,1
3369,-376,2045,1
3406,-402,2075,1
3430,-416,2098,1
3449,-441,2135,1
3481,-445,2154,1
3535,-506,2190,1
3580,-589,2199,1
3601,-665,2212,1
3589,-740,2193,1
3591,-807,2174,1
3600,-882,2160,1
3599,-938,2131,1
3602,-954,2114,1
3614,-987,2103,1
3637,-1038,2097,1
3669,-1121,2093,1
3695,-1176,2118,1
3719,-1225,2159,1
3739,-1227,2198,1
3750,-1221,2217,1
3803,-1237,2265,1
3856,-1275,2316,1
3897,-1313,2343,1
3922,-1344,2372,1
3911,-1373,2367,1
3892,-1383,2355,1
3884,-1401,2347,1
3873,-1429,2351,1
3866,-1468,2370,1
3850,-1515,2387,1
3797,-1611,2384,1
3730,-1715,2425,1
3632,-1868,2447,1
3531,-2013,2433,1
3422,-2140,2402,1
3304,-2237,2303,1
3206,-2367,2166,1
3098,-2477,1987,1
3001,-2607,1820,1
2939,-2731,1659,1
2899,-2802,1523,1
2862,-2837,1378,1
2847,-2861,1245,1
2861,-2919,1173,1
2899,-2918,1151,1
2954,-2895,1158,1
3045,-2828,1156,1
3122,-2762,1112,1
3152,-2683,1075,1
3178,-2632,1091,1
3228,-2557,1131,1
3275,-2485,1171,1
3319,-2394,1188,1
3346,-2312,1212,1
3356,-2233,1263,1
3343,-2175,1341,1
3324,-2122,1430,1
3298,-2061,1496,1
3255,-2011,1563,1
3211,-1953,1634,1
3182,-1876,1697,1
3146,-1802,1761,1
3120,-1765,1810,1
3107,-1732,1868,1
3096,-1691,1931,1
3089,-1649,1984,1
3085,-1601,2027,1
3101,-1559,2076,1
3123,-1556,2118,1
3140,-1518,2159,1
3151,-1471,2186,1
3164,-1449,2206,1
3166,-1394,2216,1
3177,-1360,2231,1
3180,-1366,2239,1
3187,-1382,2246,1
3182,-1417,2241,1
3180,-1423,2250,1
3190,-1422,2251,1
3212,-1424,2253,1
3241,-1411,2248,1
3273,-1404,2234,1
3296,-1395,2231,1
3305,-1373,2224,1
3312,-1351,2221,1
3314,-1327,2224,1
3310,-1307,2228,1
3303,-1294,2231,1
3291,-1290,2240,1
3287,-1284,2239,1
3288,-1298,2229,1
3281,-1299,2215,1
3274,-1320,2193,1
3269,-1340,2185,1
3261,-1367,2184,1
3256,-1391,2179,1
3234,-1395,2166,1
3211,-1397,2146,1
3198,-1416,2142,1
3180,-1420,2140,1
3152,-1425,2136,1
3131,-1435,2141,1
3117,-1450,2146,1
3100,-1464,2148,1
3089,-1474,2154,1
3080,-1484,2157,1
3064,-1499,2157,1
3054,-1504,2157,1
3048,-1514,2160,1
3035,-1518,2160,1
3020,-1523,2158,1
3023,-1530,2162,1
3026,-1535,2162,1
3027,-1538,2163,1
3030,-1546,2155,1
3036,-1547,2143,1
3041,-1545,2132,1
3043,-1551,2121,1
3041,-1550,2112,1
3042,-1544,2103,1
3046,-1540,2102,1
3051,-1541,2101,1
3050,-1534,2104,1
3054,-1531,2100,1
3053,-1534,2098,1
3058,-1531,2099,1
3065,-1529,2103,1
3069,-1528,2104,1
3079,-1529,2105,1
3092,-1531,2109,1
3093,-1530,2104,1
3096,-1523,2104,1
3101,-1524,2100,1
3102,-1521,2099,1
3106,-1530,2099,1
3104,-1531,2100,1
3105,-1532,2097,1
3104,-1540,2097,1
3098,-1542,2097,1
3104,-1540,2100,1
3111,-1547,2098,1
3108,-1543,2102,1
3106,-1544,2101,1
3104,-1547,2101,1
3105,-1550,2103,1
3105,-1550,2100,1
3105,-1551,2091,1
3106,-1552,2081,1
3109,-1546,2068,1
3117,-1540,2066,1
3117,-1533,2074,1
3116,-1528,2083,1
3114,-1521,2097,1
3112,-1517,2108,1
3105,-1515,2118,1
3108,-1505,2133,1
3107,-1509,2130,1
3108,-1501,2141,1
3111,-1503,2145,1
3105,-1497,2145,1
3109,-1499,2147,1
3110,-1489,2153,1
3112,-1499,2154,1
3115,-1500,2156,1
3116,-1505,2150,1
3116,-1507,2145,1
3114,-1506,2137,1
3112,-1512,2127,1
3114,-1510,2122,1
3113,-1504,2119,1
3115,-1502,2123,1
3115,-1500,2119,1
3114,-1503,2116,1
3110,-1500,2116,1
3111,-1501,2113,1
3112,-1495,2115,1
3105,-1493,2114,1
3103,-1492,2118,1
3104,-1493,2117,1
3103,-1495,2121,1
3103,-1493,2115,1
3104,-1498,2107,1
3105,-1500,2108,1
3111,-1509,2112,1
3110,-1516,2113,1
3104,-1526,2118,1
3106,-1532,2116,1
3115,-1543,2115,1
3116,-1550,2108,1
3120,-1555,2094,1
3125,-1554,2086,1
3131,-1555,2075,1
3132,-1559,2064,1
3127,-1561,2060,1
3125,-1563,2055,1
3119,-1567,2051,1
3109,-1575,2050,1
3105,-1577,2054,1
3098,-1583,2049,1
3096,-1592,2042,1
3102,-1601,2044,1
3105,-1607,2045,1
3111,-1611,2043,1
3108,-1615,2044,1
3104,-1615,2052,1
3117,-1610,2060,1
3123,-1616,2059,1
3124,-1612,2059,1
3125,-1615,2057,1
3123,-1615,2053,1
3120,-1611,2054,1
3119,-1613,2053,1
3123,-1609,2051,1
3122,-1607,2049,1
3122,-1603,2044,1
3122,-1597,2038,1
3122,-1593,2041,1
3123,-1587,2043,1
3125,-1583,2039,1
3122,-1580,2038,1
3120,-1582,2038,1
3121,-1579,2036,1
3120,-1571,2041,1
3120,-1565,2046,1
3122,-1558,2047,1
3120,-1552,2051,1
3122,-1545,2053,1
3121,-1538,2057,1
3120,-1533,2064,1
3126,-1533,2071,1
3128,-1527,2081,1
3127,-1528,2085,1
3130,-1527,2084,1
3127,-1528,2087,1
3126,-1529,2089,1
3126,-1528,2088,1
3124,-1525,2090,1
3126,-1524,2089,1
3125,-1524,2091,1
3126,-1524,2088,1
3131,-1527,2089,1
3128,-1522,2083,1
3129,-1527,2079,1
3131,-1527,2081,1
3135,-1527,2075,1
3136,-1523,2072,1
3133,-1519,2069,1
3134,-1514,2071,1
3136,-1517,2063,1
3135,-1516,2061,1
3135,-1511,2064,1
3133,-1501,2079,1
3132,-1505,2076,1
3129,-1512,2068,1
3131,-1518,2066,1
3128,-1517,2067,1
3129,-1519,2064,1
3123,-1517,2066,1
3128,-1515,2063,1
3136,-1524,2059,1
3137,-1520,2059,1
3135,-1527,2056,1
3139,-1531,2054,1
3141,-1533,2051,1
3146,-1532,2044,1
3144,-1526,2045,1
3146,-1521,2045,1
3143,-1523,2043,1
3143,-1528,2040,1
3142,-1531,2042,1
3143,-1530,2045,1
3145,-1533,2038,1
3145,-1537,2046,1
3143,-1536,2051,1
3142,-1542,2053,1
3143,-1547,2055,1
3144,-1551,2058,1
3142,-1561,2060,1
3139,-1565,2059,1
3143,-1564,2074,1
3140,-1567,2072,1
3144,-1572,2063,1
3147,-1576,2045,1
3153,-1577,2029,1
3150,-1578,2020,1
3143,-1574,2015,1
3139,-1573,2017,1
3137,-1574,2018,1
3139,-1574,2019,1
3140,-1567,2015,1
3143,-1569,2010,1
3144,-1563,2003,1
3150,-1565,2002,1
3157,-1568,2002,1
3160,-1572,2002,1
3165,-1571,2004,1
3161,-1571,2008,1
3155,-1573,2007,1
3153,-1563,2011,1
3158,-1564,2012,1
3152,-1572,2029,1
3150,-1578,2035,1
3156,-1580,2036,1
3153,-1580,2034,1
3148,-1578,2034,1
3145,-1578,2029,1
3146,-1578,2030,1
3148,-1574,2026,1
3146,-1576,2022,1
3147,-1579,2016,1
3152,-1581,2009,1
3153,-1577,2017,1
3154,-1583,2011,1
3151,-1583,2002,1
3153,-1577,2002,1
3154,-1579,1994,1
3155,-1577,1992,1
3154,-1573,1993,1
3152,-1567,1993,1
3152,-1569,1994,1
3153,-1568,1997,1
3157,-1569,1998,1
3154,-1569,2012,1
3150,-1570,2013,1
3151,-1574,2009,1
3155,-1574,2008,1
3156,-1571,2008,1
3152,-1575,2009,1
3150,-1580,2010,1
3157,-1584,2006,1
3159,-1582,2005,1
3161,-1582,2002,1
3159,-1581,1998,1
3161,-1579,1991,1
3161,-1576,1999,1
3162,-1580,1994,1
3167,-1574,1990,1
3169,-1570,1986,1
3170,-1569,1988,1
3174,-1565,1988,1
3172,-1562,1982,1
3169,-1558,1980,1
3170,-1553,1981,1
3173,-1551,1979,1
3173,-1547,1979,1
3173,-1546,1977,1
3174,-1544,1977,1
3176,-1542,1978,1
3176,-1541,1978,1
3175,-1540,1980,1
3169,-1543,1982,1
3172,-1544,1984,1
3175,-1547,1984,1
3176,-1548,1983,1
3177,-1548,1985,1
3174,-1546,1988,1
3174,-1547,1988,1
3176,-1546,1989,1
3176,-1544,1995,1
3173,-1541,2005,1
3165,-1544,2006,1
3162,-1549,2008,1
3165,-1556,2011,1
3160,-1561,2012,1
3161,-1567,2007,1
3159,-1572,2006,1
3163,-1573,2006,1
3164,-1576,2004,1
3168,-1580,2004,1
3167,-1584,2004,1
3168,-1593,2009,1
3162,-1594,2012,1
3161,-1600,2018,1
3158,-1604,2018,1
3157,-1603,2011,1
3153,-1593,2002,1
3150,-1585,2000,1
3147,-1582,1995,1
3142,-1574,1996,1
3142,-1574,2001,1
3147,-1575,2001,1
3148,-1572,2003,1
3154,-1569,1999,1
3156,-1570,1998,1
3159,-1570,1993,1
3164,-1574,1992,1
3164,-1572,1992,1
3168,-1570,1995,1
3168,-1567,2000,1
3171,-1565,2002,1
3168,-1565,2007,1
3172,-1559,2011,1
3171,-1560,2013,1
3167,-1554,2017,1
3165,-1553,2019,1
3159,-1550,2018,1
3156,-1550,2016,1
3154,-1550,2016,1
3155,-1550,2010,1
3152,-1547,2008,1
3151,-1548,2008,1
3151,-1549,2010,1
3149,-1554,2007,1
3148,-1555,2008,1
3150,-1557,2007,1
3149,-1564,2006,1
3146,-1567,2006,1
3145,-1564,2007,1
3147,-1568,2006,1
3149,-1572,2009,1
3151,-1574,2011,1
3150,-1569,2016,1
3148,-1571,2020,1
3152,-1569,2022,1
3152,-1571,2024,1
3152,-1572,2030,1
3152,-1574,2033,1
3147,-1571,2029,1
3148,-1569,2031,1
3147,-1566,2029,1
3149,-1567,2029,1
3148,-1567,2030,1
3148,-1563,2025,1
3150,-1565,2023,1
3151,-1560,2020,1
3152,-1562,2016,1
3153,-1560,2015,1
3156,-1559,2014,1
3157,-1558,2011,1
3159,-1561,2012,1
3158,-1563,2014,1
3156,-1564,2010,1
3153,-1561,2009,1
3153,-1563,2010,1
3152,-1563,2012,1
3152,-1560,2017,1
3152,-1561,2020,1
3152,-1560,2026,1
3150,-1560,2024,1
3149,-1561,2022,1
3151,-1565,2022,1
3152,-1564,2022,1
3150,-1557,2023,1
3152,-1554,2025,1
3151,-1556,2022,1
3153,-1560,2024,1
3156,-1563,2020,1
3159,-1562,2017,1
3158,-1561,2016,1
3158,-1560,2017,1
3157,-1556,2018,1
3157,-1559,2017,1
3154,-1556,2020,1
3151,-1552,2024,1
3152,-1552,2026,1
3146,-1555,2029,1
3147,-1557,2029,1
3147,-1558,2031,1
3148,-1561,2030,1
3149,-1560,2029,1
3151,-1557,2028,1
3151,-1559,2031,1
3147,-1560,2033,1
3147,-1560,2038,1
3148,-1565,2035,1
3149,-1568,2037,1
3149,-1572,2041,1
3153,-1575,2039,1
3151,-1573,2029,1
3153,-1561,2020,1
3152,-1558,2018,1
3149,-1554,2015,1
3140,-1549,2018,1
3141,-1547,2022,1
3141,-1547,2022,1
3140,-1547,2023,1
3137,-1548,2020,1
3139,-1551,2017,1
3140,-1556,2015,1
3146,-1558,2019,1
3147,-1558,2021,1
3149,-1558,2024,1
3151,-1557,2027,1
3152,-1556,2032,1
3151,-1554,2036,1
3151,-1553,2040,1
3151,-1556,2044,1
3147,-1558,2042,1
3144,-1556,2040,1
3142,-1557,2043,1
3141,-1556,2043,1
3142,-1559,2045,1
3144,-1563,2046,1
3141,-1564,2042,1
3138,-1562,2042,1
3144,-1559,2043,1
3142,-1562,2041,1
3141,-1560,2041,1
3140,-1558,2044,1
3143,-1555,2039,1
3141,-1559,2034,1
3142,-1559,2035,1
3140,-1561,2032,1
3140,-1562,2033,1
3141,-1561,2032,1
3138,-1558,2032,1
3134,-1562,2031,1
3133,-1565,2031,1
3135,-1566,2032,1
3133,-1563,2036,1
3136,-1561,2039,1
3135,-1563,2041,1
3136,-1564,2039,1
3138,-1566,2046,1
3136,-1566,2043,1
3136,-1563,2046,1
3136,-1562,2046,1
3140,-1560,2044,1
3142,-1558,2048,1
3141,-1561,2048,1
3140,-1558,2045,1
3141,-1558,2043,1
3142,-1559,2037,1
3141,-1557,2034,1
3143,-1561,2034,1
3142,-1559,2034,1
3142,-1557,2037,1
3144,-1557,2040,1
3145,-1557,2045,1
3144,-1555,2044,1
3144,-1556,2044,1
3142,-1548,2045,1
3137,-1543,2047,1
3133,-1546,2048,1
3132,-1548,2050,1
3135,-1548,2050,1
3132,-1551,2050,1
3133,-1550,2047,1
3133,-1548,2047,1
3133,-1546,2050,1
3133,-1547,2052,1
3135,-1549,2050,1
3140,-1550,2053,1
3148,-1553,2050,1
3151,-1551,2046,1
3147,-1553,2048,1
3149,-1553,2047,1
3148,-1553,2049,1
3147,-1551,2051,1
3143,-1549,2051,1
3135,-1547,2055,1
3133,-1550,2055,1
3131,-1549,2058,1
3134,-1548,2057,1
3133,-1551,2060,1
3133,-1554,2060,1
3133,-1554,2057,1
3135,-1554,2056,1
3136,-1558,2054,1
3136,-1559,2054,1
3134,-1561,2054,1
3136,-1564,2055,1
3143,-1566,2060,1
3143,-1570,2058,1
3147,-1571,2052,1
3144,-1563,2041,1
3144,-1558,2037,1
3142,-1550,2036,1
3135,-1545,2041,1
3132,-1548,2043,1
3134,-1546,2045,1
3133,-1545,2047,1
3133,-1553,2042,1
3127,-1553,2039,1
3127,-1556,2037,1
3129,-1559,2036,1
3133,-1560,2031,1
3135,-1564,2033,1
3137,-1563,2037,1
3136,-1560,2042,1
3136,-1564,2045,1
3136,-1567,2048,1
3137,-1568,2053,1
3139,-1568,2054,1
3139,-1563,2055,1
3135,-1564,2055,1
3134,-1563,2056,1
3134,-1563,2057,1
3131,-1562,2055,1
3132,-1557,2054,1
3133,-1558,2055,1
3131,-1558,2056,1
3130,-1560,2055,1
3130,-1558,2056,1
3133,-1556,2053,1
3134,-1554,2054,1
3129,-1551,2054,1
3123,-1548,2053,1
3123,-1552,2054,1
3125,-1553,2053,1
3125,-1551,2055,1
3121,-1550,2053,1
3122,-1551,2053,1
3122,-1552,2053,1
3125,-1549,2054,1
3128,-1552,2055,1
3131,-1552,2057,1
3129,-1555,2059,1
3127,-1555,2063,1
3125,-1553,2064,1
3124,-1553,2067,1
3121,-1553,2068,1
3123,-1553,2070,1
3122,-1553,2066,1
3123,-1556,2063,1
3127,-1557,2062,1
3128,-1559,2060,1
3130,-1557,2062,1
3127,-1561,2060,1
3125,-1563,2059,1
3126,-1560,2058,1
3128,-1561,2056,1
3131,-1561,2056,1
3131,-1559,2057,1
3129,-1557,2057,1
3128,-1552,2060,1
3131,-1550,2059,1
3131,-1549,2059,1
3129,-1548,2060,1
3127,-1550,2060,1
3127,-1547,2063,1
3127,-1549,2064,1
3127,-1551,2062,1
3131,-1551,2061,1
3130,-1550,2061,1
3134,-1552,2060,1
3135,-1554,2056,1
3135,-1548,2058,1
3137,-1545,2058,1
3137,-1547,2058,1
3135,-1549,2056,1
3137,-1552,2057,1
3133,-1553,2058,1
3135,-1553,2058,1
3135,-1550,2058,1
3136,-1548,2063,1
3133,-1545,2063,1
3131,-1542,2065,1
3126,-1541,2066,1
3127,-1546,2063,1
3127,-1552,2061,1
3128,-1551,2060,1
3130,-1554,2062,1
3130,-1555,2061,1
3128,-1553,2059,1
3125,-1556,2057,1
3125,-1557,2056,1
3126,-1559,2056,1
3124,-1563,2058,1
3128,-1567,2066,1
3132,-1569,2069,1
3136,-1573,2071,1
3138,-1572,2061,1
3136,-1560,2052,1
3132,-1550,2052,1
3128,-1545,2051,1
3124,-1540,2054,1
3119,-1540,2054,1
3120,-1544,2053,1
3121,-1543,2053,1
3120,-1547,2053,1
3120,-1552,2051,1
3122,-1561,2047,1
3121,-1559,2046,1
3122,-1561,2048,1
3127,-1565,2049,1
3132,-1561,2054,1
3131,-1562,2057,1
3132,-1563,2059,1
3133,-1565,2060,1
3128,-1562,2064,1
3129,-1563,2068,1
3126,-1562,2066,1
3124,-1565,2065,1
3121,-1566,2064,1
3123,-1561,2063,1
3127,-1557,2065,1
3130,-1558,2064,1
3131,-1560,2070,1
3131,-1561,2070,1
3130,-1562,2066,1
3129,-1559,2068,1
3126,-1557,2066,1
3124,-1552,2065,1
3122,-1552,2066,1
3122,-1548,2065,1
3119,-1549,2068,1
3115,-1546,2067,1
3113,-1546,2069,1
3115,-1548,2067,1
3113,-1549,2067,1
3112,-1549,2069,1
3109,-1549,2069,1
3110,-1553,2069,1
3113,-1550,2071,1
3114,-1553,2072,1
3116,-1550,2071,1
3119,-1548,2070,1
3121,-1551,2072,1
3121,-1548,2069,1
3121,-1546,2070,1
3127,-1543,2072,1
3125,-1547,2071,1
3123,-1547,2067,1
3126,-1547,2064,1
3129,-1547,2066,1
3130,-1545,2062,1
3131,-1546,2062,1
3131,-1544,2059,1
3133,-1543,2060,1
3132,-1541,2060,1
3131,-1545,2059,1
3133,-1543,2059,1
3132,-1544,2060,1
3134,-1543,2061,1
3136,-1543,2060,1
3133,-1539,2063,1
3131,-1543,2063,1
3125,-1546,2064,1
3124,-1546,2066,1
3126,-1550,2062,1
3129,-1552,2064,1
3128,-1553,2059,1
3132,-1551,2060,1
3133,-1550,2058,1
3131,-1552,2059,1
3131,-1548,2058,1
3131,-1554,2056,1
3134,-1556,2051,1
3134,-1559,2051,1
3134,-1558,2049,1
3136,-1557,2050,1
3133,-1555,2050,1
3136,-1553,2052,1
3136,-1551,2056,1
3132,-1550,2059,1
3128,-1551,2058,1
3127,-1550,2058,1
3128,-1553,2061,1
3132,-1555,2054,1
3138,-1555,2053,1
3139,-1555,2052,1
3142,-1558,2048,1
3143,-1556,2043,1
3139,-1559,2043,1
3141,-1563,2046,1
3141,-1565,2048,1
3140,-1569,2051,1
3142,-1571,2054,1
3139,-1573,2055,1
3142,-1575,2055,1
3139,-1572,2049,1
3135,-1562,2038,1
3136,-1557,2035,1
3135,-1552,2042,1
3130,-1548,2044,1
3134,-1551,2043,1
3130,-1550,2043,1
3132,-1553,2041,1
3136,-1556,2039,1
3138,-1554,2036,1
3142,-1556,2032,1
3145,-1556,2030,1
3147,-1558,2031,1
3150,-1559,2030,1
3148,-1558,2030,1
3150,-1557,2036,1
3151,-1554,2039,1
3149,-1552,2041,1
3148,-1551,2044,1
3150,-1546,2045,1
3146,-1550,2048,1
3142,-1551,2050,1
3146,-1551,2047,1
3144,-1552,2046,1
3145,-1556,2043,1
3146,-1554,2043,1
3146,-1554,2042,1
3140,-1553,2041,1
3140,-1555,2040,1
3141,-1555,2037,1
3138,-1555,2036,1
3138,-1557,2035,1
3138,-1554,2033,1
3141,-1556,2034,1
3140,-1556,2033,1
3141,-1561,2036,1
3139,-1563,2038,1
3142,-1564,2039,1
3144,-1561,2041,1
3143,-1560,2042,1
3142,-1557,2042,1
3142,-1560,2040,1
3142,-1556,2040,1
3141,-1559,2041,1
3140,-1562,2040,1
3142,-1563,2037,1
3140,-1561,2038,1
3143,-1561,2037,1
3143,-1562,2036,1
3148,-1562,2031,1
3149,-1562,2031,1
3150,-1563,2032,1
3148,-1563,2031,1
3150,-1563,2029,1
3151,-1567,2024,1
3151,-1568,2022,1
3151,-1567,2021,1
3150,-1565,2021,1
3152,-1562,2019,1
3152,-1560,2022,1
3151,-1557,2018,1
3155,-1562,2021,1
3154,-1560,2018,1
3150,-1558,2017,1
3149,-1558,2016,1
3152,-1561,2016,1
3155,-1559,2018,1
3161,-1560,2020,1
3161,-1556,2021,1
3157,-1558,2018,1
3156,-1563,2016,1
3157,-1563,2014,1
3160,-1563,2015,1
3161,-1561,2015,1
3157,-1561,2015,1
3155,-1564,2016,1
3153,-1563,2011,1
3152,-1560,2008,1
3151,-1558,2012,1
3150,-1554,2013,1
3150,-1553,2013,1
3154,-1554,2019,1
3154,-1554,2025,1
3158,-1556,2020,1
3161,-1556,2020,1
3166,-1553,2018,1
3165,-1557,2016,1
3166,-1560,2010,1
3165,-1565,2008,1
3170,-1568,2002,1
3169,-1564,2000,1
3172,-1565,2000,1
3172,-1572,2004,1
3167,-1577,2005,1
3160,-1579,2008,1
3157,-1578,2011,1
3155,-1584,2014,1
3155,-1593,2008,1
3152,-1590,1997,1
3151,-1579,1985,1
3154,-1574,1976,1
3156,-1572,1985,1
3154,-1570,1989,1
3158,-1567,1982,1
3162,-1571,1982,1
3168,-1569,1980,1
3174,-1568,1978,1
3180,-1567,1974,1
3182,-1572,1973,1
3183,-1572,1972,1
3184,-1573,1977,1
3179,-1569,1979,1
3173,-1568,1981,1
3174,-1575,1982,1
3173,-1577,1983,1
3170,-1574,1982,1
3166,-1573,1987,1
3163,-1570,1991,1
3162,-1567,1992,1
3162,-1566,1990,1
3160,-1565,1994,1
3164,-1566,1989,1
3168,-1564,1985,1
3169,-1562,1982,1
3169,-1561,1981,1
3171,-1564,1979,1
3169,-1561,1982,1
3168,-1557,1980,1
3168,-1557,1979,1
3169,-1558,1974,1
3166,-1558,1971,1
3164,-1557,1970,1
3166,-1561,1971,1
3166,-1564,1973,1
3170,-1566,1975,1
3169,-1567,1978,1
3169,-1570,1978,1
3170,-1571,1979,1
3173,-1572,1978,1
3170,-1569,1980,1
3171,-1567,1985,1
3169,-1569,1981,1
3175,-1573,1979,1
3174,-1573,1974,1
3174,-1571,1975,1
3173,-1571,1972,1
3171,-1573,1970,1
3167,-1573,1968,1
3173,-1573,1969,1
3170,-1572,1970,1
3174,-1575,1968,1
3175,-1576,1971,1
3173,-1576,1977,1
3174,-1574,1979,1
3172,-1571,1980,1
3169,-1573,1986,1
3169,-1572,1990,1
3169,-1572,1996,1
3162,-1573,1993,1
3162,-1574,1995,1
3163,-1575,1995,1
3162,-1573,1995,1
3168,-1574,1997,1
3167,-1573,1999,1
3163,-1574,1997,1
3166,-1575,1995,1
3168,-1575,1993,1
3168,-1571,1992,1
3162,-1571,1993,1
3164,-1571,1996,1
3168,-1575,1997,1
3170,-1577,1992,1
3167,-1576,1993,1
3165,-1571,1993,1
3162,-1566,1990,1
3165,-1567,1994,1
3164,-1568,1998,1
3161,-1569,1999,1
3160,-1573,1996,1
3163,-1571,1991,1
3167,-1569,1989,1
3168,-1570,1991,1
3170,-1565,1991,1
3172,-1566,1988,1
3172,-1564,1989,1
3171,-1561,1987,1
3169,-1562,1988,1
3171,-1566,1991,1
3170,-1570,1996,1
3170,-1572,1997,1
3171,-1575,2003,1
3168,-1579,2008,1
3158,-1582,2007,1
3159,-1582,2012,1
3156,-1576,2005,1
3151,-1570,2000,1
3152,-1566,1996,1
3153,-1558,1995,1
3153,-1553,1997,1
3151,-1554,2000,1
3152,-1557,2001,1
3160,-1559,1999,1
3163,-1560,1998,1
3166,-1565,1996,1
3170,-1568,1993,1
3172,-1571,1992,1
3171,-1574,1991,1
3172,-1569,1996,1
3169,-1571,2000,1
3170,-1569,2004,1
3164,-1566,2006,1
3164,-1571,2010,1
3162,-1569,2015,1
3161,-1567,2019,1
3159,-1564,2018,1
3157,-1566,2016,1
3157,-1562,2017,1
3161,-1564,2011,1
3162,-1565,2010,1
3163,-1564,2009,1
3163,-1562,2007,1
3158,-1562,2008,1
3159,-1564,2006,1
3159,-1565,2005,1
3157,-1560,2005,1
3157,-1562,2006,1
3155,-1566,2007,1
3149,-1565,2006,1
3149,-1565,2006,1
3152,-1565,2010,1
3149,-1567,2015,1
3151,-1567,2017,1
3147,-1569,2019,1
3153,-1569,2018,1
3151,-1563,2022,1
3149,-1561,2023,1
3150,-1562,2022,1
3152,-1562,2020,1
3151,-1564,2017,1
3152,-1567,2018,1
3155,-1568,2013,1
3157,-1572,2009,1
3157,-1574,2009,1
3160,-1577,2007,1
3161,-1575,2004,1
3159,-1575,2005,1
3154,-1574,2007,1
3156,-1572,2005,1
3157,-1566,2010,1
3155,-1566,2015,1
3156,-1563,2015,1
3157,-1562,2016,1
3156,-1560,2019,1
3156,-1563,2021,1
3153,-1560,2023,1
3150,-1559,2022,1
3153,-1556,2020,1
3153,-1554,2023,1
3151,-1555,2020,1
3149,-1554,2023,1
3152,-1557,2027,1
3154,-1555,2025,1
3153,-1555,2025,1
3153,-1555,2026,1
3151,-1554,2025,1
3152,-1551,2025,1
3152,-1550,2027,1
3150,-1553,2029,1
3154,-1556,2026,1
3161,-1556,2025,1
3160,-1554,2024,1
3158,-1554,2024,1
3157,-1552,2027,1
3156,-1552,2028,1
3154,-1554,2031,1
3151,-1554,2032,1
3153,-1556,2031,1
3153,-1563,2028,1
3153,-1566,2030,1
3155,-1565,2032,1
3154,-1566,2030,1
3148,-1565,2026,1
3151,-1565,2025,1
3152,-1565,2025,1
3151,-1569,2026,1
3151,-1568,2026,1
3153,-1572,2026,1
3150,-1572,2030,1
3152,-1576,2033,1
3156,-1577,2036,1
3156,-1571,2034,1
3152,-1567,2024,1
3149,-1559,2018,1
3147,-1552,2017,1
3141,-1550,2020,1
3138,-1549,2022,1
3138,-1546,2022,1
3140,-1548,2021,1
3144,-1551,2018,1
3145,-1552,2017,1
3146,-1558,2016,1
3146,-1557,2014,1
3148,-1561,2018,1
3152,-1562,2016,1
3149,-1561,2022,1
3148,-1560,2027,1
3150,-1562,2033,1
3150,-1563,2042,1
3146,-1560,2043,1
3142,-1558,2048,1
3143,-1558,2051,1
3143,-1555,2052,1
3142,-1557,2048,1
3141,-1556,2045,1
3142,-1557,2042,1
3140,-1557,2040,1
3143,-1561,2039,1
3145,-1557,2040,1
3143,-1557,2039,1
3139,-1559,2039,1
3141,-1557,2041,1
3141,-1558,2043,1
3139,-1558,2037,1
3138,-1558,2038,1
3141,-1558,2038,1
3141,-1558,2042,1
3145,-1554,2044,1
3146,-1554,2042,1
3147,-1557,2043,1
3146,-1559,2045,1
3143,-1563,2044,1
3141,-1555,2042,1
3140,-1554,2042,1
3141,-1553,2045,1
3143,-1553,2039,1
3141,-1553,2041,1
3142,-1556,2040,1
3139,-1555,2039,1
3139,-1558,2040,1
3136,-1559,2041,1
3137,-1564,2039,1
3139,-1565,2037,1
3138,-1562,2038,1
3141,-1559,2041,1
3139,-1562,2039,1
3140,-1560,2041,1
3143,-1559,2041,1
3140,-1556,2041,1
3143,-1557,2043,1
3144,-1553,2039,1
3139,-1553,2044,1
3137,-1552,2044,1
3139,-1553,2046,1
3139,-1554,2047,1
3138,-1553,2046,1
3135,-1555,2047,1
3133,-1553,2046,1
3134,-1550,2041,1
3131,-1548,2046,1
3132,-1548,2046,1
3134,-1548,2047,1
3138,-1551,2046,1
3135,-1551,2045,1
3136,-1554,2047,1
3138,-1552,2047,1
3144,-1556,2046,1
3142,-1558,2044,1
3144,-1556,2043,1
3144,-1553,2040,1
3142,-1550,2045,1
3144,-1546,2047,1
3140,-1547,2050,1
3140,-1545,2052,1
3141,-1548,2055,1
3139,-1551,2051,1
3139,-1556,2054,1
3142,-1555,2053,1
3141,-1559,2054,1
3138,-1559,2053,1
3136,-1561,2053,1
3136,-1562,2052,1
3136,-1563,2052,1
3136,-1563,2054,1
3137,-1567,2052,1
3138,-1568,2051,1
3136,-1571,2052,1
3137,-1573,2053,1
3144,-1574,2055,1
3145,-1568,2047,1
3145,-1553,2039,1
3140,-1544,2036,1
3136,-1539,2035,1
3131,-1536,2039,1
3132,-1538,2039,1
3129,-1539,2042,1
3130,-1542,2038,1
3129,-1551,2043,1
3127,-1551,2044,1
3127,-1555,2040,1
3129,-1558,2034,1
3132,-1563,2033,1
3134,-1566,2038,1
3133,-1567,2042,1
3134,-1568,2043,1
3135,-1568,2051,1
3136,-1565,2055,1
3134,-1562,2058,1
3133,-1560,2060,1
3130,-1561,2062,1
3133,-1556,2062,1
3133,-1557,2064,1
3129,-1555,2060,1
3130,-1559,2058,1
3133,-1560,2057,1
3130,-1562,2058,1
3130,-1561,2059,1
3127,-1563,2060,1
3128,-1562,2061,1
3129,-1563,2060,1
3127,-1565,2057,1
3128,-1559,2058,1
3127,-1557,2056,1
3127,-1555,2057,1
3124,-1555,2058,1
3123,-1554,2056,1
3121,-1553,2053,1
3121,-1553,2055,1
3119,-1555,2054,1
3120,-1555,2050,1
3120,-1557,2052,1
3125,-1556,2049,1
3127,-1555,2047,1
3127,-1556,2045,1
3129,-1558,2046,1
3129,-1563,2047,1
3128,-1562,2050,1
3129,-1564,2051,1
3132,-1568,2054,1
3130,-1562,2054,1
3129,-1563,2056,1
3127,-1566,2055,1
3128,-1559,2056,1
3128,-1562,2061,1
3127,-1563,2061,1
3131,-1564,2064,1
3130,-1559,2066,1
3131,-1560,2066,1
3132,-1557,2066,1
3127,-1554,2061,1
3123,-1551,2059,1
3122,-1553,2059,1
3119,-1553,2057,1
3118,-1554,2057,1
3116,-1555,2058,1
3117,-1555,2059,1
3119,-1557,2061,1
3123,-1557,2061,1
3124,-1556,2062,1
3126,-1553,2064,1
3125,-1553,2065,1
3123,-1554,2064,1
3121,-1555,2064,1
3124,-1562,2066,1
3125,-1562,2064,1
3130,-1568,2066,1
3129,-1563,2065,1
3127,-1558,2063,1
3130,-1555,2065,1
3129,-1553,2068,1
3125,-1552,2070,1
3125,-1556,2067,1
3119,-1559,2067,1
3121,-1561,2067,1
3118,-1560,2064,1
3120,-1561,2065,1
3120,-1560,2064,1
3120,-1562,2065,1
3120,-1564,2066,1
3120,-1562,2067,1
3120,-1563,2065,1
3121,-1565,2064,1
3120,-1569,2065,1
3121,-1569,2065,1
3124,-1568,2071,1
3124,-1566,2070,1
3127,-1566,2067,1
3128,-1564,2058,1
3128,-1553,2052,1
3125,-1548,2051,1
3122,-1547,2053,1
3119,-1547,2053,1
3117,-1550,2055,1
3116,-1551,2056,1
3118,-1551,2056,1
3115,-1560,2053,1
3115,-1566,2051,1
3116,-1569,2050,1
3116,-1573,2054,1
3120,-1570,2056,1
3118,-1576,2059,1
3119,-1575,2062,1
3116,-1571,2068,1
3118,-1570,2071,1
3120,-1566,2076,1
3117,-1562,2077,1
3118,-1561,2077,1
3119,-1560,2077,1
3119,-1559,2078,1
3121,-1561,2076,1
3120,-1560,2074,1
3121,-1559,2069,1
3119,-1560,2069,1
3117,-1560,2068,1
3112,-1562,2063,1
3111,-1563,2064,1
3110,-1559,2062,1
3109,-1561,2064,1
3111,-1561,2066,1
3112,-1559,2070,1
3112,-1558,2069,1
3116,-1558,2067,1
3122,-1560,2067,1
3118,-1560,2071,1
3121,-1562,2074,1
3121,-1564,2075,1
3121,-1561,2075,1
3121,-1562,2076,1
3119,-1564,2072,1
3121,-1561,2067,1
3119,-1558,2064,1
3121,-1555,2064,1
3122,-1555,2064,1
3129,-1556,2064,1
3124,-1559,2059,1
3122,-1561,2061,1
3123,-1562,2061,1
3122,-1563,2062,1
3121,-1559,2062,1
3127,-1555,2065,1
3131,-1555,2064,1
3129,-1556,2067,1
3129,-1556,2064,1
3127,-1555,2063,1
3128,-1554,2067,1
3128,-1550,2063,1
3132,-1551,2066,1
3132,-1554,2065,1
3129,-1555,2063,1
3127,-1554,2059,1
3124,-1554,2059,1
3125,-1559,2061,1
3124,-1558,2061,1
3124,-1561,2060,1
3127,-1560,2062,1
3129,-1557,2062,1
3127,-1559,2064,1
3127,-1558,2061,1
3125,-1553,2060,1
3126,-1554,2062,1
3128,-1552,2065,1
3129,-1557,2065,1
3134,-1559,2061,1
3135,-1558,2057,1
3137,-1556,2055,1
3132,-1554,2056,1
3130,-1550,2059,1
3128,-1550,2058,1
3129,-1552,2060,1
3131,-1556,2061,1
3127,-1556,2057,1
3128,-1558,2057,1
3134,-1563,2057,1
3134,-1561,2058,1
3133,-1563,2055,1
3135,-1567,2054,1
3135,-1562,2055,1
3135,-1562,2052,1
3134,-1563,2052,1
3134,-1567,2054,1
3134,-1572,2056,1
3132,-1574,2056,1
3133,-1575,2059,1
3135,-1576,2061,1
3136,-1579,2062,1
3139,-1576,2050,1
3129,-1566,2043,1
3126,-1557,2038,1
3131,-1555,2039,1
3130,-1552,2043,1
3129,-1550,2045,1
3125,-1550,2046,1
3128,-1553,2046,1
3133,-1557,2047,1
3136,-1557,2044,1
3139,-1561,2039,1
3145,-1560,2036,1
3146,-1560,2037,1
3146,-1563,2036,1
3146,-1560,2041,1
3146,-1562,2044,1
3145,-1559,2049,1
3142,-1559,2050,1
3138,-1559,2049,1
3139,-1556,2048,1
3142,-1557,2047,1
3137,-1555,2045,1
3136,-1559,2045,1
3136,-1562,2046,1
3137,-1560,2045,1
3135,-1562,2044,1
3135,-1561,2040,1
3134,-1559,2040,1
3136,-1559,2042,1
3134,-1561,2041,1
3132,-1562,2037,1
3132,-1562,2037,1
3131,-1563,2038,1
3130,-1565,2036,1
3135,-1563,2041,1
3135,-1562,2040,1
3136,-1565,2040,1
3136,-1566,2044,1
3137,-1570,2048,1
3136,-1567,2048,1
3136,-1567,2045,1
3138,-1566,2047,1
3139,-1565,2048,1
3140,-1564,2048,1
3139,-1569,2047,1
3136,-1570,2043,1
3139,-1570,2042,1
3137,-1568,2038,1
3140,-1571,2034,1
3145,-1569,2036,1
3147,-1568,2037,1
3145,-1568,2031,1
3144,-1570,2032,1
3144,-1571,2032,1
3146,-1570,2032,1
3144,-1568,2032,1
3148,-1563,2031,1
3149,-1560,2029,1
3150,-1557,2027,1
3148,-1558,2026,1
3149,-1560,2026,1
3148,-1556,2022,1
3146,-1556,2025,1
3146,-1558,2025,1
3146,-1560,2029,1
3148,-1564,2028,1
3147,-1563,2027,1
3147,-1563,2029,1
3150,-1567,2028,1
3150,-1563,2026,1
3149,-1564,2026,1
3149,-1564,2027,1
3145,-1565,2025,1
3150,-1569,2023,1
3150,-1570,2021,1
3150,-1570,2020,1
3148,-1568,2015,1
3146,-1564,2015,1
3144,-1567,2019,1
3145,-1565,2018,1
3150,-1568,2020,1
3153,-1571,2022,1
3149,-1572,2019,1
3151,-1572,2018,1
3151,-1570,2021,1
3153,-1572,2021,1
3158,-1573,2019,1
3160,-1574,2015,1
3159,-1575,2016,1
3164,-1572,2010,1
3167,-1576,2002,1
3164,-1579,2003,1
3159,-1581,2006,1
3154,-1583,2006,1
3149,-1589,2005,1
3149,-1593,2012,1
3148,-1596,2018,1
3148,-1603,2020,1
3147,-1601,2009,1
3145,-1590,2001,1
3143,-1583,1994,1
3148,-1575,1991,1
3150,-1570,1986,1
3151,-1565,1986,1
3158,-1567,1991,1
3161,-1565,1995,1
3162,-1564,1996,1
3163,-1569,1993,1
3168,-1571,1993,1
3171,-1573,1986,1
3172,-1573,1984,1
3173,-1573,1984,1
3169,-1574,1986,1
3168,-1572,1991,1
3163,-1572,1992,1
3160,-1575,1993,1
3156,-1573,1997,1
3160,-1573,1994,1
3167,-1578,1978,1
3158,-1572,2001,1
3155,-1575,2000,1
3160,-1575,1998,1
3164,-1577,1998,1
3160,-1575,1992,1
3164,-1574,1991,1
3164,-1576,1989,1
3164,-1572,1990,1
3163,-1570,1992,1
3160,-1573,1989,1
3161,-1576,1986,1
3162,-1581,1984,1
3160,-1581,1987,1
3158,-1583,1990,1
3164,-1588,1990,1
3162,-1587,1984,1
3160,-1591,1988,1
3158,-1586,1985,1
3158,-1590,1984,1
3163,-1590,1985,1
3164,-1592,1982,1
3168,-1588,1982,1
3167,-1585,1979,1
3162,-1583,1979,1
3162,-1586,1977,1
3169,-1585,1974,1
3168,-1585,1972,1
3170,-1586,1972,1
3172,-1581,1971,1
3174,-1583,1970,1
3176,-1583,1969,1
3172,-1584,1967,1
3175,-1581,1967,1
3174,-1579,1967,1
3172,-1574,1966,1
3174,-1577,1961,1
3174,-1578,1962,1
3176,-1576,1960,1
3176,-1577,1958,1
3174,-1576,1961,1
3174,-1576,1960,1
3176,-1577,1958,1
3177,-1578,1956,1
3176,-1575,1959,1
3179,-1571,1958,1
3179,-1572,1960,1
3178,-1572,1958,1
3179,-1571,1959,1
3181,-1571,1959,1
3179,-1571,1959,1
3178,-1573,1958,1
3179,-1575,1959,1
3179,-1578,1956,1
3177,-1574,1955,1
3176,-1570,1959,1
3176,-1570,1964,1
3173,-1571,1969,1
3173,-1576,1971,1
3165,-1581,1972,1
3168,-1581,1975,1
3171,-1587,1977,1
3170,-1588,1979,1
3173,-1592,1978,1
3174,-1590,1976,1
3172,-1593,1979,1
3171,-1592,1977,1
3173,-1593,1977,1
3173,-1593,1976,1
3174,-1597,1977,1
3172,-1603,1976,1
3172,-1607,1982,1
3167,-1608,1984,1
3164,-1611,1988,1
3161,-1613,1991,1
3158,-1613,1991,1
3156,-1608,1989,1
3152,-1599,1977,1
3153,-1588,1970,1
3158,-1585,1968,1
3160,-1582,1967,1
3163,-1580,1970,1
3166,-1578,1969,1
3171,-1577,1973,1
3174,-1579,1974,1
3176,-1579,1972,1
3175,-1579,1973,1
3178,-1579,1970,1
3177,-1578,1971,1
3177,-1576,1972,1
3171,-1578,1979,1
3170,-1581,1986,1
3166,-1576,1988,1
3165,-1577,1991,1
3164,-1577,1991,1
3160,-1571,1990,1
3157,-1567,1988,1
3155,-1569,1985,1
3157,-1571,1985,1
3158,-1574,1984,1
3158,-1575,1981,1
3159,-1579,1985,1
3161,-1580,1986,1
3163,-1584,1988,1
3161,-1582,1992,1
3161,-1579,1995,1
3159,-1582,1994,1
3161,-1582,1997,1
3161,-1588,1999,1
3163,-1588,2001,1
3165,-1587,2002,1
3163,-1593,2002,1
3160,-1591,2004,1
3158,-1592,2005,1
3155,-1590,1999,1
3154,-1589,1999,1
3155,-1588,1997,1
3152,-1584,1997,1
3157,-1581,1996,1
3156,-1585,1992,1
3160,-1585,1992,1
3161,-1587,1992,1
3160,-1587,1991,1
3164,-1586,1988,1
3167,-1584,1987,1
3166,-1586,1985,1
3167,-1583,1987,1
3164,-1583,1986,1
3165,-1580,1990,1
3162,-1580,1990,1
3160,-1578,1989,1
3161,-1578,1993,1
3162,-1576,1993,1
3160,-1573,1996,1
3158,-1571,1994,1
3154,-1573,1996,1
3154,-1571,1999,1
3154,-1573,2000,1
3156,-1572,2001,1
3155,-1571,2003,1
3158,-1568,2005,1
3158,-1567,2008,1
3155,-1571,2011,1
3156,-1572,2009,1
3154,-1571,2009,1
3152,-1571,2011,1
3152,-1571,2009,1
3157,-1569,2008,1
3155,-1571,2007,1
3159,-1573,2006,1
3159,-1577,2004,1
3158,-1574,2004,1
3159,-1572,2003,1
3159,-1570,2004,1
3158,-1570,2006,1
3156,-1573,2004,1
3154,-1575,2006,1
3151,-1576,2010,1
3151,-1579,2012,1
3154,-1577,2011,1
3155,-1578,2008,1
3154,-1578,2006,1
3155,-1577,2007,1
3152,-1575,2010,1
3150,-1571,2008,1
3155,-1573,2007,1
3155,-1577,2008,1
3154,-1578,2008,1
3155,-1582,2011,1
3158,-1584,2012,1
3159,-1583,2013,1
3156,-1582,2017,1
3155,-1583,2014,1
3153,-1578,2004,1
3152,-1568,1997,1
3149,-1562,1992,1
3146,-1563,1996,1
3147,-1564,2002,1
3148,-1566,2004,1
3150,-1565,2004,1
3149,-1566,2004,1
3149,-1566,2005,1
3152,-1569,2006,1
3152,-1575,2005,1
3152,-1575,2004,1
3151,-1572,2005,1
3152,-1574,2008,1
3151,-1574,2010,1
3152,-1571,2013,1
3155,-1569,2018,1
3153,-1571,2023,1
3151,-1572,2032,1
3148,-1575,2032,1
3145,-1573,2030,1
3141,-1569,2029,1
3142,-1571,2025,1
3143,-1571,2026,1
3146,-1571,2028,1
3145,-1571,2029,1
3147,-1569,2030,1
3145,-1568,2030,1
3146,-1568,2030,1
3145,-1568,2029,1
3143,-1568,2030,1
3140,-1565,2027,1
3137,-1562,2026,1
3140,-1566,2022,1
3140,-1564,2025,1
3141,-1563,2027,1
3143,-1563,2024,1
3142,-1569,2027,1
3142,-1570,2026,1
3141,-1572,2024,1
3144,-1574,2026,1
3146,-1575,2025,1
3143,-1573,2025,1
3143,-1577,2025,1
3145,-1580,2025,1
3146,-1584,2024,1
3146,-1584,2025,1
3143,-1585,2025,1
3145,-1585,2024,1
3142,-1582,2019,1
3142,-1582,2020,1
3138,-1581,2022,1
3140,-1579,2024,1
3142,-1577,2020,1
3142,-1573,2021,1
3142,-1575,2024,1
3145,-1575,2024,1
3144,-1573,2025,1
3144,-1568,2028,1
3144,-1571,2027,1
3139,-1571,2027,1
3138,-1575,2031,1
3139,-1578,2030,1
3137,-1574,2031,1
3137,-1574,2024,1
3139,-1577,2027,1
3139,-1572,2036,1
3139,-1571,2040,1
3138,-1570,2044,1
3139,-1568,2042,1
3142,-1566,2038,1
3142,-1566,2035,1
3148,-1571,2035,1
3149,-1573,2032,1
3151,-1575,2034,1
3151,-1579,2031,1
3145,-1576,2034,1
3145,-1570,2029,1
3145,-1568,2028,1
3145,-1561,2030,1
3143,-1559,2034,1
3138,-1561,2036,1
3150,-1588,2038,1
3140,-1575,2044,1
3139,-1571,2038,1
3139,-1563,2035,1
3136,-1567,2035,1
3135,-1567,2039,1
3132,-1569,2040,1
3135,-1573,2043,1
3141,-1575,2040,1
3140,-1576,2040,1
3142,-1577,2040,1
3146,-1577,2039,1
3149,-1578,2044,1
3153,-1579,2047,1
3158,-1580,2045,1
3156,-1575,2035,1
3152,-1564,2029,1
3147,-1560,2026,1
3140,-1555,2025,1
3133,-1555,2027,1
3128,-1556,2030,1
3124,-1553,2031,1
3124,-1552,2034,1
3118,-1556,2034,1
3117,-1564,2037,1
3116,-1567,2039,1
3118,-1570,2039,1
3123,-1573,2041,1
3126,-1572,2041,1
3127,-1569,2044,1
3130,-1570,2048,1
3129,-1570,2051,1
3133,-1571,2054,1
3132,-1566,2053,1
3132,-1566,2050,1
3132,-1570,2052,1
3133,-1569,2048,1
3132,-1574,2047,1
3129,-1574,2049,1
3134,-1575,2050,1
3133,-1577,2049,1
3134,-1576,2049,1
3131,-1576,2050,1
3124,-1576,2053,1
3121,-1578,2054,1
3120,-1578,2054,1
3120,-1577,2054,1
3120,-1580,2053,1
3122,-1576,2053,1
3124,-1577,2052,1
3122,-1578,2052,1
3122,-1580,2052,1
3122,-1580,2053,1
3124,-1580,2050,1
3127,-1583,2048,1
3126,-1582,2047,1
3128,-1582,2047,1
3129,-1582,2046,1
3127,-1583,2046,1
3128,-1584,2043,1
3130,-1584,2040,1
3131,-1586,2043,1
3124,-1585,2042,1
3126,-1582,2040,1
3129,-1578,2048,1
3129,-1574,2045,1
3125,-1571,2043,1
3125,-1571,2035,1
3126,-1571,2041,1
3123,-1573,2049,1
3123,-1572,2054,1
3124,-1576,2053,1
3124,-1574,2054,1
3129,-1571,2053,1
3125,-1568,2053,1
3125,-1565,2051,1
3129,-1565,2048,1
3126,-1564,2051,1
3129,-1569,2052,1
3128,-1565,2054,1
3124,-1561,2056,1
3121,-1565,2056,1
3123,-1569,2057,1
3119,-1570,2056,1
3119,-1572,2054,1
3118,-1574,2056,1
3117,-1574,2057,1
3115,-1575,2058,1
3120,-1574,2057,1
3118,-1575,2055,1
3117,-1574,2054,1
3122,-1571,2050,1
3123,-1570,2053,1
3122,-1569,2054,1
3122,-1569,2058,1
3125,-1569,2062,1
3122,-1569,2064,1
3123,-1570,2066,1
3128,-1575,2066,1
3131,-1575,2064,1
3126,-1573,2064,1
3127,-1573,2063,1
3123,-1572,2062,1
3118,-1571,2062,1
3116,-1573,2060,1
3113,-1576,2062,1
3116,-1577,2061,1
3117,-1578,2060,1
3116,-1578,2059,1
3117,-1583,2060,1
3120,-1587,2062,1
3123,-1588,2061,1
3128,-1587,2057,1
3128,-1578,2045,1
3124,-1570,2044,1
3122,-1567,2044,1
3118,-1566,2045,1
3118,-1571,2048,1
3116,-1571,2050,1
3115,-1574,2052,1
3115,-1574,2051,1
3116,-1577,2049,1
3116,-1575,2052,1
3117,-1577,2051,1
3116,-1578,2052,1
3115,-1577,2056,1
3117,-1580,2060,1
3116,-1578,2065,1
3118,-1576,2067,1
3117,-1577,2071,1
3119,-1572,2072,1
3118,-1570,2074,1
3116,-1566,2072,1
3117,-1569,2072,1
3116,-1570,2072,1
3122,-1565,2069,1
3123,-1563,2068,1
3123,-1568,2064,1
3119,-1565,2063,1
3116,-1568,2060,1
3113,-1566,2061,1
3115,-1565,2058,1
3117,-1567,2056,1
3116,-1563,2057,1
3116,-1563,2060,1
3116,-1563,2057,1
3116,-1563,2056,1
3115,-1565,2058,1
3116,-1570,2057,1
3114,-1572,2059,1
3115,-1572,2061,1
3116,-1577,2063,1
3117,-1580,2066,1
3114,-1581,2067,1
3116,-1583,2065,1
3113,-1582,2065,1
3114,-1581,2067,1
3113,-1581,2064,1
3113,-1579,2060,1
3116,-1579,2061,1
3119,-1581,2059,1
3118,-1580,2062,1
3120,-1580,2057,1
3121,-1578,2052,1
3122,-1575,2053,1
3122,-1574,2049,1
3121,-1570,2051,1
3123,-1569,2053,1
3123,-1567,2054,1
3121,-1566,2057,1
3123,-1566,2061,1
3121,-1565,2059,1
3123,-1562,2061,1
3125,-1564,2061,1
3123,-1565,2060,1
3122,-1566,2061,1
3126,-1564,2059,1
3129,-1563,2059,1
3127,-1566,2059,1
3128,-1569,2062,1
3123,-1567,2061,1
3126,-1568,2060,1
3125,-1567,2059,1
3127,-1562,2057,1
3123,-1558,2059,1
3121,-1560,2057,1
3123,-1566,2057,1
3129,-1571,2057,1
3128,-1568,2054,1
3129,-1566,2053,1
3126,-1561,2056,1
3122,-1560,2058,1
3125,-1562,2058,1
3123,-1562,2058,1
3124,-1563,2060,1
3126,-1564,2058,1
3130,-1569,2056,1
3132,-1572,2056,1
3132,-1570,2058,1
3133,-1573,2058,1
3131,-1574,2056,1
3133,-1576,2054,1
3133,-1579,2050,1
3129,-1580,2050,1
3132,-1580,2052,1
3130,-1580,2050,1
3128,-1580,2049,1
3131,-1581,2051,1
3131,-1582,2051,1
3132,-1582,2054,1
3128,-1578,2046,1
3127,-1569,2037,1
3127,-1566,2037,1
3123,-1563,2036,1
3119,-1566,2039,1
3121,-1565,2043,1
3118,-1567,2042,1
3120,-1567,2038,1
3123,-1572,2038,1
3124,-1576,2037,1
3127,-1577,2039,1
3130,-1580,2033,1
3133,-1581,2033,1
3133,-1578,2039,1
3132,-1577,2041,1
3138,-1576,2042,1
3140,-1577,2040,1
3142,-1576,2041,1
3138,-1573,2042,1
3140,-1573,2047,1
3140,-1569,2047,1
3141,-1567,2048,1
3140,-1570,2042,1
3139,-1571,2042,1
3134,-1573,2037,1
3132,-1572,2036,1
3134,-1571,2040,1
3129,-1569,2038,1
3128,-1567,2036,1
3127,-1566,2038,1
3130,-1568,2037,1
3127,-1567,2035,1
3125,-1568,2034,1
3128,-1570,2033,1
3128,-1570,2032,1
3128,-1568,2036,1
3128,-1563,2040,1
3127,-1565,2041,1
3132,-1562,2041,1
3133,-1563,2044,1
3133,-1564,2044,1
3133,-1565,2045,1
3136,-1565,2043,1
3134,-1565,2044,1
3137,-1564,2042,1
3140,-1563,2038,1
3141,-1562,2036,1
3143,-1566,2034,1
3145,-1567,2034,1
3147,-1570,2035,1
3145,-1568,2033,1
3147,-1565,2033,1
3144,-1565,2034,1
3143,-1565,2031,1
3139,-1561,2031,1
3141,-1562,2032,1
3143,-1566,2032,1
3141,-1561,2032,1
3141,-1564,2029,1
3143,-1566,2029,1
3143,-1568,2031,1
3145,-1567,2030,1
3140,-1568,2027,1
3141,-1567,2030,1
3137,-1569,2029,1
3139,-1569,2028,1
3142,-1573,2029,1
3144,-1570,2028,1
3145,-1572,2030,1
3145,-1574,2027,1
3146,-1577,2025,1
3144,-1576,2028,1
3143,-1577,2026,1
3145,-1578,2028,1
3146,-1576,2028,1
3146,-1578,2025,1
3145,-1576,2028,1
3144,-1573,2026,1
3140,-1570,2026,1
3142,-1565,2027,1
3143,-1571,2027,1
3143,-1571,2028,1
3141,-1572,2027,1
3142,-1576,2023,1
3145,-1572,2021,1
3152,-1573,2021,1
3156,-1574,2019,1
3155,-1576,2017,1
3155,-1575,2018,1
3155,-1576,2018,1
3155,-1579,2018,1
3156,-1579,2019,1
3155,-1583,2017,1
3153,-1591,2020,1
3152,-1594,2022,1
3149,-1597,2022,1
3146,-1595,2026,1
3149,-1597,2029,1
3146,-1597,2022,1
3137,-1591,2008,1
3136,-1587,2005,1
3142,-1583,2006,1
3142,-1575,2007,1
3146,-1577,2007,1
3149,-1575,2008,1
3157,-1573,2004,1
3160,-1574,2002,1
3164,-1573,1998,1
3163,-1571,1998,1
3165,-1573,1999,1
3167,-1570,2000,1
3167,-1574,2002,1
3163,-1573,2009,1
3161,-1572,2015,1
3156,-1569,2013,1
3156,-1569,2012,1
3157,-1568,2015,1
3154,-1566,2014,1
3147,-1567,2013,1
3144,-1571,2017,1
3153,-1573,2014,1
3155,-1575,1998,1
3158,-1574,1990,1
3156,-1576,1988,1
3154,-1577,1987,1
3152,-1578,1989,1
3152,-1577,1994,1
3153,-1574,1995,1
3159,-1572,1997,1
3156,-1571,1999,1
3153,-1574,1996,1
3154,-1580,1999,1
3154,-1584,1997,1
3156,-1584,1996,1
3154,-1582,1999,1
3155,-1581,2004,1
3153,-1580,2007,1
3157,-1583,2007,1
3154,-1587,2006,1
3156,-1589,2002,1
3155,-1588,2000,1
3154,-1588,1999,1
3154,-1582,1998,1
3160,-1586,1994,1
3158,-1585,1991,1
3162,-1586,1990,1
3164,-1585,1989,1
3166,-1584,1986,1
3168,-1582,1983,1
3168,-1580,1981,1
3164,-1579,1982,1
3165,-1577,1982,1
3166,-1575,1980,1
3169,-1577,1980,1
3174,-1579,1978,1
3172,-1577,1976,1
3173,-1575,1975,1
3175,-1578,1974,1
3171,-1577,1975,1
3173,-1577,1978,1
3171,-1580,1978,1
3170,-1580,1974,1
3169,-1581,1970,1
3170,-1582,1966,1
3173,-1581,1964,1
3171,-1586,1968,1
3172,-1585,1968,1
3169,-1585,1969,1
3169,-1582,1965,1
3171,-1582,1968,1
3171,-1584,1969,1
3172,-1583,1967,1
3171,-1583,1967,1
3171,-1584,1967,1
3170,-1581,1971,1
3171,-1579,1969,1
3173,-1581,1966,1
3173,-1585,1966,1
3174,-1586,1968,1
3174,-1587,1962,1
3177,-1579,1971,1
3179,-1582,1968,1
3180,-1579,1965,1
3182,-1588,1958,1
3185,-1587,1956,1
3186,-1589,1952,1
3188,-1585,1952,1
3188,-1586,1954,1
3186,-1590,1955,1
3183,-1594,1956,1
3179,-1594,1956,1
3175,-1593,1954,1
3170,-1596,1959,1
3165,-1595,1962,1
