accelerometer_x,accelerometer_y,accelerometer_z,fall
3410,1869,-774,1
3523,1866,-681,1
3611,1886,-635,1
3653,1941,-612,1
3681,1978,-587,1
3721,1963,-548,1
3774,1912,-526,1
3834,1823,-540,1
3901,1699,-587,1
3970,1563,-637,1
4042,1416,-686,1
4129,1273,-731,1
4233,1110,-770,1
4335,954,-816,1
4452,786,-864,1
4561,616,-919,1
4656,450,-974,1
4767,296,-997,1
4880,161,-1010,1
4931,82,-1021,1
4922,80,-1010,1
4869,110,-986,1
4806,157,-934,1
4740,191,-872,1
4664,223,-806,1
4557,243,-748,1
4431,266,-682,1
4304,290,-590,1
4191,300,-498,1
4095,297,-403,1
4012,301,-319,1
3912,305,-256,1
3819,328,-202,1
3701,324,-186,1
3572,307,-177,1
3459,280,-163,1
3371,259,-143,1
3293,248,-137,1
3211,251,-151,1
3143,270,-167,1
3090,302,-178,1
3053,321,-182,1
3034,345,-156,1
3024,371,-120,1
3020,391,-80,1
3018,414,-47,1
3025,423,-19,1
3048,440,4,1
3082,442,27,1
3106,438,43,1
3129,442,72,1
3170,450,106,1
3163,467,149,1
3156,511,219,1
3200,564,292,1
3255,615,363,1
3304,640,423,1
3357,656,473,1
3399,675,503,1
3431,671,514,1
3455,659,518,1
3485,644,518,1
3508,620,519,1
3535,598,528,1
3568,574,537,1
3599,556,547,1
3631,537,553,1
3658,503,555,1
3683,462,561,1
3698,432,575,1
3713,391,579,1
3733,339,586,1
3745,269,584,1
3755,200,584,1
3760,135,584,1
3768,63,584,1
3768,10,590,1
3763,-50,590,1
3762,-105,587,1
3757,-147,560,1
3742,-149,511,1
3732,-104,428,1
3742,-6,324,1
3755,115,232,1
3785,247,192,1
3825,354,199,1
3853,414,246,1
3883,427,325,1
3919,400,429,1
3969,341,535,1
4035,274,635,1
4131,209,723,1
4260,152,806,1
4397,95,881,1
4535,42,950,1
4674,-3,1038,1
4818,-48,1171,1
4983,-116,1325,1
5139,-162,1398,1
5297,-151,1306,1
5493,-50,1096,1
5760,112,836,1
6079,337,617,1
6389,591,441,1
6636,866,295,1
6824,1099,167,1
6899,1294,56,1
6909,1408,9,1
6879,1432,8,1
6801,1348,-22,1
6577,1238,-9,1
6245,1081,29,1
5778,953,123,1
5277,889,275,1
4769,908,407,1
4318,944,461,1
3978,1030,477,1
3733,1129,462,1
3551,1226,411,1
3398,1324,331,1
3272,1397,240,1
3177,1445,153,1
3112,1470,81,1
3055,1474,22,1
2996,1448,-61,1
2934,1382,-164,1
2879,1302,-273,1
2836,1205,-377,1
2816,1103,-473,1
2815,1006,-560,1
2825,915,-637,1
2844,827,-712,1
2865,750,-801,1
2896,696,-896,1
2941,664,-997,1
3005,671,-1083,1
3106,703,-1135,1
3237,756,-1156,1
3404,821,-1151,1
3587,872,-1136,1
3770,925,-1110,1
3928,953,-1106,1
4053,975,-1093,1
4170,993,-1080,1
4276,1000,-1053,1
4381,989,-1007,1
4461,955,-958,1
4510,900,-906,1
4524,824,-853,1
4501,734,-795,1
4448,644,-747,1
4375,560,-697,1
4286,489,-645,1
4202,443,-589,1
4125,389,-545,1
4058,370,-488,1
3983,352,-472,1
3902,346,-455,1
3846,366,-426,1
3815,401,-409,1
3796,444,-398,1
3780,482,-398,1
3779,519,-404,1
3784,552,-418,1
3797,562,-441,1
3831,526,-489,1
3862,483,-534,1
3881,454,-556,1
3883,443,-561,1
3869,440,-544,1
3844,421,-531,1
3812,401,-509,1
3790,369,-488,1
3767,338,-473,1
3763,313,-469,1
3752,282,-469,1
3741,252,-452,1
3739,225,-437,1
3745,198,-414,1
3750,174,-385,1
3768,144,-362,1
3788,112,-343,1
3817,74,-317,1
3850,46,-289,1
3873,22,-262,1
3905,-7,-228,1
3941,-50,-193,1
3966,-94,-172,1
3993,-138,-138,1
4009,-173,-114,1
4028,-211,-98,1
4058,-244,-82,1
4080,-288,-69,1
4105,-324,-50,1
4141,-352,-26,1
4159,-372,-6,1
4166,-392,19,1
4172,-408,41,1
4167,-422,55,1
4145,-444,63,1
4116,-449,83,1
4086,-442,100,1
4063,-439,107,1
4044,-428,103,1
4028,-423,98,1
4029,-422,99,1
4038,-396,121,1
4035,-370,126,1
4024,-341,123,1
4012,-308,110,1
4002,-268,97,1
4000,-227,117,1
4004,-183,170,1
4008,-127,228,1
4013,-83,256,1
4009,-56,271,1
4005,-15,259,1
3990,27,237,1
3997,68,213,1
3990,104,153,1
3968,138,54,1
3942,173,-68,1
3919,198,-168,1
3902,208,-255,1
3898,216,-312,1
3910,221,-344,1
3942,222,-358,1
3982,233,-359,1
4025,242,-355,1
4063,256,-324,1
4095,267,-273,1
4120,260,-223,1
4136,234,-180,1
4152,196,-135,1
4177,142,-94,1
4213,80,-47,1
4259,26,15,1
4319,-25,85,1
4391,-67,144,1
4471,-77,196,1
4561,-64,232,1
4644,-27,246,1
4723,41,226,1
4764,92,175,1
4778,136,125,1
4810,168,66,1
4838,195,22,1
4864,228,-19,1
4895,265,-54,1
4943,287,-105,1
5005,298,-181,1
5056,316,-270,1
5073,323,-381,1
5043,288,-497,1
5009,232,-619,1
4991,187,-731,1
4995,163,-828,1
5000,157,-869,1
5025,158,-882,1
5045,168,-901,1
5067,219,-930,1
5096,315,-970,1
5122,453,-1010,1
5142,611,-1047,1
5120,775,-1085,1
5081,945,-1137,1
5010,1127,-1190,1
4919,1334,-1229,1
4821,1527,-1255,1
4722,1728,-1278,1
4624,1912,-1277,1
4519,2087,-1254,1
4401,2226,-1213,1
4276,2331,-1133,1
4188,2376,-1009,1
4098,2384,-833,1
4029,2346,-663,1
3983,2268,-525,1
3875,2187,-411,1
3764,2096,-273,1
3677,1993,-130,1
3622,1885,6,1
3606,1756,128,1
3624,1635,225,1
3672,1532,275,1
3712,1367,285,1
3763,1233,289,1
3830,1095,260,1
3904,953,228,1
3961,823,188,1
4019,703,141,1
4061,591,93,1
4100,497,47,1
4133,422,-10,1
4171,371,-67,1
4218,342,-122,1
4256,330,-176,1
4280,335,-240,1
4295,345,-315,1
4285,358,-391,1
4267,366,-443,1
4228,373,-475,1
4162,373,-487,1
4072,375,-498,1
3955,395,-494,1
3819,427,-479,1
3681,469,-443,1
3562,499,-394,1
3445,532,-317,1
3340,549,-236,1
3254,578,-143,1
3186,604,-65,1
3131,636,2,1
3080,658,63,1
3040,683,119,1
2984,713,171,1
2952,748,220,1
2938,780,249,1
2930,825,263,1
2919,868,267,1
2917,909,267,1
2936,939,261,1
2968,963,254,1
3016,969,238,1
3067,967,217,1
3118,960,192,1
3173,947,182,1
3223,932,174,1
3267,903,174,1
3313,872,186,1
3359,835,210,1
3405,793,236,1
3445,748,245,1
3472,708,233,1
3491,672,220,1
3509,638,225,1
3532,604,246,1
3551,575,278,1
3572,547,310,1
3587,527,329,1
3589,516,322,1
3581,518,284,1
3562,514,260,1
3548,507,278,1
3557,489,321,1
3574,471,375,1
3596,467,433,1
3612,466,476,1
3616,459,499,1
3608,450,520,1
3606,432,544,1
3608,405,573,1
3613,370,598,1
3609,342,609,1
3606,313,601,1
3611,286,587,1
3612,256,569,1
3609,228,535,1
3608,198,522,1
3611,167,507,1
3614,129,489,1
3618,94,455,1
3618,65,398,1
3618,48,322,1
3622,43,237,1
3636,54,137,1
3659,93,33,1
3704,162,-49,1
3765,250,-58,1
3848,336,0,1
3942,404,115,1
4021,459,244,1
4078,508,349,1
4136,546,416,1
4207,580,474,1
4284,592,533,1
4357,600,595,1
4423,590,666,1
4488,562,753,1
4556,504,849,1
4635,423,946,1
4715,321,1036,1
4796,187,1110,1
4875,56,1190,1
4945,-108,1248,1
5004,-290,1301,1
5050,-468,1347,1
5058,-609,1346,1
5049,-743,1318,1
5045,-839,1277,1
5071,-889,1250,1
5114,-864,1270,1
5136,-778,1325,1
5131,-695,1354,1
5124,-570,1352,1
5105,-423,1280,1
5097,-254,1164,1
5127,-75,1047,1
5162,101,922,1
5167,285,780,1
5131,456,598,1
5081,667,396,1
5010,882,190,1
4983,1127,-6,1
4989,1361,-187,1
5004,1543,-382,1
5031,1724,-539,1
5057,1853,-663,1
5120,1948,-724,1
5170,1982,-687,1
5194,1975,-528,1
5159,1898,-281,1
5013,1767,-13,1
4727,1639,183,1
4348,1503,287,1
3953,1383,287,1
3620,1298,237,1
3356,1211,135,1
3158,1118,35,1
3055,972,-74,1
2979,793,-199,1
2920,623,-338,1
2875,475,-504,1
2880,336,-643,1
2916,199,-751,1
2978,87,-859,1
3049,-10,-965,1
3139,-92,-1074,1
3233,-129,-1149,1
3360,-121,-1173,1
3535,-83,-1141,1
3739,-18,-1092,1
3959,70,-1031,1
4166,177,-984,1
4368,315,-933,1
4518,442,-898,1
4641,594,-847,1
4727,708,-798,1
4777,843,-716,1
4792,989,-602,1
4789,1104,-480,1
4777,1201,-338,1
4741,1267,-222,1
4668,1315,-107,1
4576,1334,-6,1
4469,1305,74,1
4350,1239,128,1
4225,1156,147,1
4096,1051,148,1
3963,942,136,1
3850,834,135,1
3748,718,113,1
3658,615,80,1
3582,527,41,1
3536,455,25,1
3497,391,13,1
3460,334,-7,1
3422,295,-28,1
3402,265,-55,1
3377,230,-83,1
3364,214,-111,1
3361,200,-131,1
3358,185,-149,1
3358,177,-152,1
3360,185,-156,1
3348,204,-153,1
3360,169,-174,1
3412,102,-222,1
3468,61,-245,1
3501,47,-243,1
3519,38,-222,1
3556,25,-204,1
3601,10,-193,1
3649,-3,-180,1
3685,-14,-163,1
3724,-22,-136,1
3751,-33,-122,1
3778,-43,-114,1
3800,-58,-114,1
3814,-68,-103,1
3827,-72,-96,1
3851,-82,-71,1
3868,-88,-40,1
3878,-82,-7,1
3893,-70,18,1
3908,-52,39,1
3925,-33,63,1
3941,-18,100,1
3956,-11,128,1
3972,-1,163,1
4000,8,190,1
4021,6,208,1
4043,4,245,1
4047,-10,283,1
4043,-25,327,1
4009,-49,360,1
3991,-68,376,1
3981,-111,386,1
3975,-123,399,1
3967,-136,399,1
3960,-132,404,1
3940,-136,382,1
3912,-139,338,1
3905,-123,290,1
3899,-97,233,1
3897,-65,169,1
3902,-24,115,1
3922,24,59,1
3949,68,0,1
3979,107,-65,1
4011,133,-134,1
4043,147,-193,1
4072,152,-226,1
4110,144,-247,1
4147,125,-241,1
4189,87,-235,1
4229,30,-219,1
4282,-40,-192,1
4328,-126,-145,1
4373,-212,-89,1
4416,-291,-38,1
4460,-352,20,1
4496,-390,69,1
4538,-396,105,1
4583,-367,125,1
4640,-304,128,1
4691,-218,102,1
4745,-123,90,1
4788,-30,74,1
4847,55,55,1
4907,122,29,1
4959,176,-14,1
5009,215,-67,1
5062,236,-134,1
5109,229,-214,1
5136,217,-272,1
5152,223,-331,1
5175,229,-431,1
5212,229,-504,1
5254,227,-528,1
5299,209,-578,1
5307,178,-638,1
5300,157,-689,1
5288,171,-737,1
5280,212,-744,1
5255,295,-758,1
5214,418,-848,1
5152,551,-950,1
5059,678,-1028,1
4973,804,-1095,1
4864,932,-1154,1
4748,1088,-1215,1
4628,1272,-1267,1
4505,1476,-1283,1
4399,1671,-1279,1
4302,1848,-1246,1
4202,1979,-1204,1
4093,2087,-1114,1
3999,2150,-977,1
3905,2198,-831,1
3817,2228,-695,1
3750,2233,-544,1
3685,2214,-376,1
3643,2168,-211,1
3605,2106,-66,1
3574,2011,47,1
3569,1890,138,1
3600,1750,202,1
3651,1603,235,1
3726,1429,229,1
3805,1261,215,1
3883,1095,190,1
3984,962,159,1
4056,807,115,1
4112,686,79,1
4169,581,34,1
4241,499,0,1
4300,433,-34,1
4353,391,-79,1
4405,368,-110,1
4446,362,-136,1
4473,361,-162,1
4487,369,-191,1
4473,382,-232,1
4433,374,-268,1
4373,363,-293,1
4288,351,-303,1
4194,340,-305,1
4085,335,-306,1
3979,327,-281,1
3889,320,-239,1
3812,297,-188,1
3743,286,-134,1
3648,282,-79,1
3506,306,-15,1
3341,366,65,1
3222,415,128,1
3141,462,172,1
3066,490,205,1
2996,492,228,1
2945,515,260,1
2920,525,301,1
2923,544,344,1
2929,582,375,1
2890,655,394,1
2879,748,421,1
2894,815,418,1
2891,859,408,1
2892,881,414,1
2913,893,427,1
2966,870,432,1
3042,842,444,1
3118,812,448,1
3180,780,442,1
3225,739,427,1
3272,701,427,1
3322,658,434,1
3366,615,443,1
3405,575,446,1
3437,534,455,1
3463,493,471,1
3479,450,485,1
3485,416,501,1
3494,389,522,1
3502,372,535,1
3500,359,551,1
3502,350,567,1
3509,347,592,1
3518,330,623,1
3523,305,658,1
3531,279,704,1
3553,252,773,1
3576,215,824,1
3595,186,855,1
3621,161,870,1
3653,131,891,1
3688,93,916,1
3717,43,927,1
3732,-19,914,1
3746,-89,895,1
3734,-170,845,1
3723,-245,759,1
3709,-311,649,1
3701,-356,539,1
3704,-379,434,1
3717,-383,344,1
3747,-355,278,1
3794,-304,230,1
3857,-226,212,1
3953,-117,226,1
4064,16,292,1
4195,164,427,1
4326,288,608,1
4447,389,798,1
4560,449,972,1
4650,465,1111,1
4731,438,1212,1
4801,369,1288,1
4863,281,1351,1
4916,157,1402,1
4935,39,1453,1
4939,-128,1476,1
4934,-251,1497,1
4918,-311,1525,1
4895,-341,1557,1
4878,-395,1594,1
4895,-446,1638,1
4936,-493,1652,1
4989,-536,1614,1
5046,-553,1535,1
5092,-563,1402,1
5123,-541,1232,1
5131,-500,1042,1
5108,-417,852,1
5053,-284,661,1
4976,-90,476,1
4885,144,274,1
4791,398,80,1
4705,662,-38,1
4678,985,-80,1
4732,1335,-125,1
4847,1714,-259,1
5008,2047,-415,1
5241,2289,-469,1
5528,2407,-375,1
5746,2370,-256,1
5816,2209,-123,1
5695,1984,-6,1
5362,1768,-4,1
4939,1601,-24,1
4538,1388,-93,1
4187,1181,-187,1
3933,871,-320,1
3722,613,-500,1
3576,349,-669,1
3516,92,-792,1
3496,-141,-861,1
3485,-298,-913,1
3440,-407,-1016,1
3422,-450,-1128,1
3481,-447,-1223,1
3545,-442,-1305,1
3609,-388,-1335,1
3697,-325,-1325,1
3803,-246,-1293,1
3927,-135,-1236,1
4051,10,-1191,1
4160,170,-1164,1
4241,363,-1125,1
4305,554,-1060,1
4355,760,-947,1
4398,953,-804,1
4444,1158,-623,1
4481,1332,-450,1
4498,1467,-294,1
4479,1550,-174,1
4418,1591,-91,1
4331,1597,-23,1
4221,1558,28,1
4092,1496,74,1
3958,1409,108,1
3824,1304,128,1
3706,1195,126,1
3606,1086,121,1
3500,991,91,1
3425,893,55,1
3340,789,-3,1
3279,704,-51,1
3209,621,-90,1
3137,557,-105,1
3103,422,-160,1
3113,233,-248,1
3119,110,-293,1
3116,25,-276,1
3114,-61,-246,1
3112,-133,-222,1
3119,-181,-202,1
3146,-215,-185,1
3208,-246,-187,1
3286,-270,-205,1
3373,-295,-214,1
3460,-311,-197,1
3533,-335,-182,1
3595,-361,-174,1
3639,-382,-165,1
3677,-392,-148,1
3720,-388,-124,1
3750,-370,-113,1
3784,-334,-96,1
3814,-294,-79,1
3846,-252,-66,1
3872,-204,-53,1
3890,-172,-56,1
3901,-158,-54,1
3912,-156,-36,1
3914,-166,-15,1
3911,-185,8,1
3916,-202,16,1
3919,-218,20,1
3929,-234,26,1
3943,-249,36,1
3962,-274,47,1
3969,-301,70,1
3980,-330,100,1
3997,-358,133,1
4015,-364,168,1
4027,-379,186,1
4032,-388,198,1
4026,-404,194,1
4013,-430,175,1
4013,-442,170,1
4035,-439,158,1
4054,-417,144,1
4062,-400,141,1
4028,-348,121,1
3981,-301,97,1
3935,-258,52,1
3907,-216,-27,1
3915,-181,-123,1
3929,-121,-230,1
3964,-64,-304,1
4022,1,-342,1
4081,62,-369,1
4127,96,-402,1
4161,89,-444,1
4189,31,-480,1
4211,-69,-505,1
4238,-197,-514,1
4266,-328,-491,1
4296,-438,-442,1
4327,-517,-378,1
4357,-546,-308,1
4385,-537,-230,1
4405,-508,-145,1
4418,-466,-72,1
4437,-411,4,1
4439,-362,71,1
4435,-319,101,1
4410,-303,83,1
4382,-277,58,1
4374,-229,28,1
4382,-146,16,1
4417,-41,45,1
4469,95,96,1
4524,245,152,1
4556,421,218,1
4598,556,243,1
4641,619,200,1
4683,660,102,1
4702,665,-32,1
4678,648,-179,1
4650,622,-313,1
4620,621,-434,1
4628,609,-566,1
4676,585,-648,1
4755,549,-699,1
4794,500,-766,1
4803,437,-856,1
4785,364,-965,1
4750,313,-1079,1
4714,291,-1216,1
4696,330,-1341,1
4707,417,-1420,1
4730,538,-1413,1
4768,692,-1343,1
4794,843,-1275,1
4793,1006,-1237,1
4753,1177,-1267,1
4667,1374,-1331,1
4545,1597,-1360,1
4456,1805,-1311,1
4383,1993,-1181,1
4326,2170,-1038,1
4295,2333,-925,1
4262,2489,-833,1
4250,2598,-758,1
4255,2690,-664,1
4280,2752,-552,1
4276,2773,-429,1
4257,2792,-290,1
4228,2721,-156,1
4199,2618,-32,1
4193,2463,75,1
4211,2261,165,1
4241,2017,224,1
4268,1755,257,1
4298,1487,275,1
4327,1217,263,1
4344,968,224,1
4376,750,169,1
4409,534,86,1
4448,372,-7,1
4481,262,-100,1
4517,179,-185,1
4554,131,-265,1
4588,119,-332,1
4598,135,-375,1
4587,158,-407,1
4551,203,-424,1
4495,239,-427,1
4413,272,-438,1
4301,297,-451,1
4188,307,-458,1
4055,316,-458,1
3887,351,-419,1
3729,374,-354,1
3588,388,-278,1
3470,388,-212,1
3370,383,-151,1
3284,375,-101,1
3188,396,-48,1
3115,420,-10,1
3046,454,33,1
2971,489,67,1
2909,525,103,1
2867,558,143,1
2841,597,177,1
2829,640,198,1
2824,682,189,1
2830,732,193,1
2836,746,173,1
2873,747,150,1
2908,743,140,1
2950,737,143,1
2998,726,162,1
3049,710,178,1
3097,692,187,1
3154,682,200,1
3203,656,213,1
3233,629,232,1
3265,622,239,1
3300,598,235,1
3330,579,237,1
3363,575,241,1
3411,562,243,1
3452,530,243,1
3483,494,239,1
3525,461,241,1
3572,434,252,1
3639,399,277,1
3699,378,309,1
3717,379,335,1
3700,397,373,1
3663,421,416,1
3623,443,460,1
3598,469,496,1
3594,495,536,1
3607,516,579,1
3632,536,624,1
3659,556,672,1
3689,564,705,1
3713,557,714,1
3730,525,719,1
3741,473,719,1
3746,416,715,1
3749,347,697,1
3755,278,676,1
3761,209,649,1
3763,141,593,1
3761,84,502,1
3749,42,385,1
3733,31,253,1
3724,37,114,1
3712,82,-22,1
3725,165,-128,1
3754,267,-171,1
3798,362,-135,1
3859,445,-46,1
3929,515,76,1
4014,560,207,1
4111,581,317,1
4233,578,421,1
4360,558,529,1
4461,513,639,1
4546,449,744,1
4612,369,851,1
4683,267,954,1
4751,143,1061,1
4815,8,1166,1
4865,-135,1255,1
4906,-289,1326,1
4940,-449,1379,1
4975,-585,1429,1
5019,-719,1460,1
5045,-829,1464,1
5080,-879,1453,1
5126,-852,1365,1
5191,-769,1173,1
5304,-657,919,1
5471,-516,714,1
5588,-299,579,1
5622,-26,461,1
5581,211,325,1
5471,496,172,1
5421,814,31,1
5426,1131,-134,1
5478,1432,-348,1
5540,1720,-595,1
5611,1978,-814,1
5622,2173,-960,1
5576,2291,-918,1
5477,2334,-671,1
5346,2291,-301,1
5107,2210,30,1
4751,2101,211,1
4390,1998,266,1
4095,1877,254,1
3872,1731,231,1
3693,1573,181,1
3533,1379,68,1
3350,1181,-118,1
3180,987,-323,1
3019,825,-541,1
2912,676,-738,1
2870,538,-896,1
2867,415,-1004,1
2915,303,-1060,1
2992,224,-1101,1
3117,180,-1139,1
3270,173,-1187,1
3442,205,-1235,1
3628,279,-1258,1
3828,392,-1263,1
4014,514,-1227,1
4192,645,-1189,1
4349,758,-1131,1
4478,872,-1052,1
4597,983,-962,1
4688,1097,-846,1
4731,1194,-734,1
4727,1278,-605,1
4685,1339,-465,1
4627,1362,-328,1
4554,1372,-191,1
4464,1361,-91,1
4347,1333,-17,1
4224,1289,27,1
4097,1223,39,1
3962,1134,21,1
3840,1046,-11,1
3716,953,-54,1
3609,866,-88,1
3523,767,-122,1
3460,665,-156,1
3409,567,-200,1
3367,482,-233,1
3341,419,-263,1
3330,375,-289,1
3327,342,-318,1
3315,304,-346,1
3298,290,-356,1
3286,314,-352,1
3304,271,-384,1
3366,199,-421,1
3425,140,-460,1
3477,129,-459,1
3519,134,-437,1
3555,135,-408,1
3601,117,-380,1
3642,103,-366,1
3668,87,-353,1
3691,74,-344,1
3708,63,-327,1
3719,53,-306,1
3743,34,-280,1
3765,14,-259,1
3791,-13,-240,1
3821,-44,-223,1
3857,-88,-205,1
3888,-136,-181,1
3913,-183,-171,1
3943,-235,-157,1
3974,-287,-135,1
4012,-329,-118,1
4045,-362,-102,1
4073,-366,-83,1
4105,-351,-62,1
4131,-329,-54,1
4153,-304,-51,1
4157,-294,-69,1
4143,-304,-113,1
4122,-319,-167,1
4110,-329,-210,1
4090,-337,-244,1
4072,-336,-257,1
4045,-317,-249,1
4023,-288,-244,1
4014,-243,-215,1
4010,-193,-162,1
4014,-131,-81,1
4028,-61,19,1
4036,16,118,1
4036,102,207,1
4043,206,290,1
4062,313,360,1
4075,417,431,1
4075,508,492,1
4063,569,539,1
4051,600,551,1
4031,577,517,1
4014,514,469,1
3996,417,401,1
3974,259,290,1
3950,33,154,1
3945,-195,25,1
3961,-401,-99,1
4017,-567,-207,1
4105,-666,-278,1
4210,-710,-316,1
4305,-718,-318,1
4383,-706,-285,1
4438,-698,-254,1
4473,-697,-216,1
4485,-698,-173,1
4489,-681,-115,1
4476,-644,-65,1
4452,-592,-24,1
4414,-529,11,1
4410,-454,49,1
4424,-367,78,1
4440,-273,104,1
4454,-149,133,1
4464,-13,156,1
4476,145,174,1
4484,308,184,1
4493,459,179,1
4503,584,163,1
4495,728,119,1
4510,875,84,1
4549,1025,47,1
4622,1153,-11,1
4702,1238,-115,1
4750,1294,-237,1
4771,1302,-382,1
4766,1258,-531,1
4760,1200,-648,1
4772,1176,-748,1
4807,1173,-856,1
4857,1200,-950,1
4965,1231,-1016,1
5054,1195,-1055,1
5103,1142,-1078,1
5100,1082,-1132,1
5048,1019,-1172,1
4962,972,-1214,1
4859,953,-1251,1
4721,962,-1264,1
4559,1004,-1259,1
4364,1067,-1240,1
4174,1163,-1205,1
3986,1275,-1167,1
3833,1396,-1099,1
3704,1517,-1004,1
3603,1638,-881,1
3559,1745,-701,1
3558,1841,-534,1
3576,1902,-412,1
3583,1949,-338,1
3602,1966,-249,1
3614,1963,-161,1
3641,1935,-56,1
3697,1866,47,1
3778,1766,150,1
3874,1644,228,1
3980,1511,269,1
4068,1378,285,1
4168,1238,283,1
4262,1106,261,1
4337,968,212,1
4412,841,169,1
4478,719,121,1
4532,597,59,1
4592,525,-5,1
4635,429,-98,1
4680,380,-171,1
4727,352,-277,1
4773,336,-358,1
4803,341,-394,1
4778,354,-403,1
4728,366,-420,1
4648,383,-437,1
4545,390,-456,1
4430,383,-456,1
4306,365,-434,1
4191,353,-389,1
4040,358,-337,1
3858,390,-260,1
3700,428,-172,1
3557,423,-109,1
3420,453,-51,1
3297,484,-19,1
3212,509,18,1
3133,549,60,1
3079,595,112,1
3041,652,160,1
3002,722,191,1
2947,794,203,1
2905,855,205,1
2889,898,195,1
2877,910,184,1
2876,916,182,1
2890,904,167,1
2929,879,173,1
2980,846,185,1
3047,807,206,1
3118,769,228,1
3185,731,243,1
3240,701,248,1
3299,670,255,1
3349,628,265,1
3400,588,294,1
3440,547,327,1
3471,510,350,1
3498,480,375,1
3516,452,389,1
3527,432,382,1
3543,413,379,1
3564,398,383,1
3584,387,391,1
3599,376,403,1
3610,369,418,1
3620,361,428,1
3632,355,445,1
3653,344,478,1
3671,338,517,1
3688,325,541,1
3704,312,573,1
3725,295,600,1
3742,275,633,1
3761,248,666,1
3774,223,682,1
3785,194,689,1
3784,159,674,1
3774,123,657,1
3765,85,648,1
3751,50,631,1
3739,13,594,1
3726,-14,520,1
3714,-26,413,1
3712,-15,290,1
3700,5,157,1
3695,44,28,1
3700,117,-104,1
3723,210,-199,1
3764,312,-221,1
3814,397,-141,1
3883,447,0,1
3975,464,177,1
4085,470,373,1
4222,452,565,1
4355,412,738,1
4471,359,908,1
4553,290,1065,1
4631,211,1206,1
4707,109,1314,1
4772,-13,1387,1
4826,-154,1451,1
4879,-296,1480,1
4922,-437,1466,1
4950,-565,1436,1
4965,-668,1419,1
4973,-738,1403,1
4973,-780,1391,1
4973,-789,1379,1
4986,-758,1350,1
5002,-681,1284,1
5008,-582,1208,1
5003,-472,1109,1
4988,-344,994,1
4961,-223,847,1
4931,-80,703,1
4912,103,555,1
4918,358,405,1
4997,654,223,1
5109,968,47,1
5221,1264,-119,1
5328,1490,-267,1
5423,1660,-360,1
5502,1750,-349,1
5546,1774,-245,1
5526,1724,-111,1
5413,1671,-29,1
5191,1596,-51,1
4904,1517,-116,1
4607,1450,-214,1
4344,1369,-308,1
4107,1270,-389,1
3879,1131,-465,1
3671,991,-524,1
3485,841,-569,1
3330,694,-606,1
3221,552,-629,1
3127,435,-645,1
3067,354,-664,1
3041,304,-703,1
3038,289,-749,1
3073,293,-806,1
3129,321,-861,1
3215,369,-889,1
3327,426,-877,1
3480,504,-854,1
3634,586,-819,1
3783,669,-779,1
3925,780,-738,1
4074,870,-684,1
4201,965,-634,1
4333,1059,-565,1
4434,1128,-509,1
4495,1168,-454,1
4525,1229,-386,1
4521,1259,-322,1
4496,1265,-255,1
4467,1242,-191,1
4433,1200,-139,1
4385,1139,-110,1
4305,1063,-90,1
4214,975,-88,1
4119,878,-104,1
4017,773,-122,1
3910,667,-154,1
3792,577,-187,1
3703,472,-222,1
3654,352,-276,1
3614,277,-310,1
3576,251,-329,1
3526,254,-338,1
3488,272,-328,1
3440,295,-317,1
3414,328,-291,1
3377,358,-254,1
3355,375,-221,1
3350,386,-197,1
3347,395,-175,1
3365,408,-153,1
3384,414,-149,1
3408,425,-151,1
3454,433,-161,1
3507,429,-178,1
3564,423,-183,1
3635,406,-181,1
3702,378,-179,1
3775,350,-180,1
3831,309,-204,1
3890,265,-225,1
3946,216,-245,1
3988,162,-252,1
4031,108,-223,1
4066,53,-180,1
4086,2,-141,1
4099,-39,-90,1
4102,-82,-53,1
4102,-112,-32,1
4106,-134,-2,1
4107,-143,34,1
4106,-150,76,1
4107,-150,113,1
4106,-138,136,1
4103,-122,145,1
4100,-100,151,1
4090,-86,162,1
4079,-77,192,1
4078,-63,231,1
4057,-46,260,1
4040,-26,295,1
4025,-8,340,1
4015,33,387,1
4009,68,396,1
4014,99,400,1
4025,150,388,1
4041,168,366,1
4061,183,374,1
4071,196,385,1
4068,196,380,1
4072,193,347,1
4059,178,292,1
4027,154,227,1
3982,132,171,1
3940,105,119,1
3898,77,64,1
3873,37,20,1
3852,15,-52,1
3855,-3,-100,1
3877,-14,-122,1
3921,-38,-126,1
3964,-79,-126,1
3997,-138,-133,1
4019,-213,-146,1
4029,-292,-165,1
4058,-368,-160,1
4084,-418,-136,1
4124,-434,-106,1
4171,-429,-69,1
4240,-389,-34,1
4312,-320,-21,1
4397,-201,-10,1
4489,-72,-11,1
4581,50,-36,1
4670,158,-62,1
4743,235,-102,1
4796,298,-153,1
4802,358,-193,1
4790,436,-196,1
4774,502,-197,1
4756,563,-190,1
4742,609,-202,1
4748,622,-240,1
4758,609,-298,1
4773,568,-392,1
4806,512,-491,1
4842,442,-567,1
4870,383,-605,1
4879,337,-617,1
4885,311,-611,1
4879,315,-598,1
4863,357,-563,1
4859,430,-517,1
4860,517,-473,1
4837,606,-496,1
4794,704,-601,1
4733,823,-741,1
4662,959,-874,1
4586,1104,-984,1
4509,1272,-1066,1
4436,1436,-1126,1
4345,1598,-1161,1
4248,1746,-1174,1
4154,1876,-1167,1
4054,1984,-1154,1
3950,2075,-1126,1
3851,2142,-1078,1
3758,2178,-999,1
3668,2185,-875,1
3597,2169,-712,1
3551,2129,-531,1
3517,2088,-358,1
3509,2021,-235,1
3514,1950,-158,1
3538,1883,-108,1
3576,1822,-84,1
3631,1764,-86,1
3687,1695,-110,1
3741,1638,-131,1
3809,1556,-157,1
3878,1468,-149,1
3957,1396,-138,1
4043,1332,-113,1
4133,1270,-76,1
4206,1213,-46,1
4274,1153,-20,1
4335,1098,-5,1
4395,1065,1,1
4445,1047,-21,1
4485,1023,-68,1
4517,986,-129,1
4537,913,-190,1
4532,836,-243,1
4495,728,-280,1
4433,639,-303,1
4383,578,-307,1
4344,540,-315,1
4308,509,-327,1
4269,475,-330,1
4216,450,-331,1
4158,435,-327,1
4096,433,-310,1
4028,450,-274,1
3937,466,-225,1
3836,477,-159,1
3739,493,-83,1
3636,532,-14,1
3546,574,48,1
3465,624,103,1
3400,653,147,1
3349,670,193,1
3281,682,231,1
3205,700,273,1
3149,737,320,1
3133,749,355,1
3138,746,375,1
3161,724,384,1
3168,709,383,1
3167,697,382,1
3183,678,372,1
3199,647,364,1
3219,621,378,1
3247,597,398,1
3293,569,417,1
3347,540,428,1
3391,513,437,1
3420,493,447,1
3438,474,456,1
3454,462,465,1
3473,456,467,1
3483,457,464,1
3494,458,454,1
3504,455,447,1
3509,452,442,1
3511,446,442,1
3519,448,439,1
3526,453,426,1
3532,462,408,1
3537,478,375,1
3541,498,340,1
3553,527,316,1
3566,555,295,1
3571,593,271,1
3579,635,245,1
3593,663,230,1
3612,684,226,1
3639,708,231,1
3655,731,246,1
3668,737,252,1
3679,741,232,1
3671,734,163,1
3652,732,87,1
3639,726,42,1
3642,680,16,1
3648,609,9,1
3642,529,8,1
3634,461,-56,1
3648,399,-51,1
3705,332,-19,1
3807,267,29,1
3951,186,83,1
4101,97,156,1
4255,46,275,1
4413,15,418,1
4569,-19,544,1
4709,-36,649,1
4817,-55,688,1
4877,-69,654,1
4908,-60,554,1
4911,-23,416,1
4914,67,255,1
4935,214,65,1
4985,415,-174,1
5071,648,-436,1
5195,893,-671,1
5343,1125,-844,1
5509,1337,-952,1
5652,1504,-998,1
5733,1618,-995,1
5733,1636,-966,1
5605,1549,-902,1
5359,1417,-823,1
5038,1243,-792,1
4680,1075,-793,1
4338,941,-808,1
4033,852,-818,1
3765,814,-837,1
3519,812,-867,1
3294,843,-918,1
3107,879,-985,1
2971,907,-1044,1
2896,925,-1078,1
2883,936,-1080,1
2932,949,-1040,1
3028,968,-985,1
3162,986,-920,1
3320,1001,-858,1
3492,1023,-812,1
3649,1006,-791,1
3782,1034,-769,1
3877,1022,-800,1
3946,992,-828,1
3990,942,-876,1
4024,884,-943,1
4062,815,-1012,1
4107,763,-1068,1
4185,741,-1105,1
4282,743,-1131,1
4392,762,-1132,1
4517,789,-1107,1
4660,801,-1080,1
4779,802,-1057,1
4872,793,-1031,1
4933,767,-1009,1
4958,719,-984,1
4939,664,-956,1
4884,595,-928,1
4785,506,-906,1
4655,405,-895,1
4523,301,-891,1
4391,208,-888,1
4261,131,-890,1
4143,65,-897,1
4038,22,-898,1
3940,1,-898,1
3867,2,-888,1
3796,18,-876,1
3741,53,-877,1
3690,96,-890,1
3648,149,-892,1
3617,203,-892,1
3595,252,-888,1
3579,313,-870,1
3569,359,-861,1
3576,401,-857,1
3593,447,-848,1
3617,484,-833,1
3653,522,-808,1
3703,569,-779,1
3742,587,-761,1
3761,593,-730,1
3779,575,-704,1
3813,563,-672,1
3845,529,-661,1
3863,486,-650,1
3886,434,-645,1
3930,376,-630,1
3977,316,-615,1
4029,244,-601,1
4072,172,-600,1
4112,95,-625,1
4147,26,-644,1
4174,-46,-673,1
4200,-137,-683,1
4229,-226,-687,1
4260,-305,-680,1
4276,-387,-668,1
4284,-450,-651,1
4293,-501,-635,1
4286,-544,-615,1
4281,-577,-590,1
4275,-605,-557,1
4266,-622,-510,1
4261,-630,-456,1
4253,-623,-390,1
4247,-604,-327,1
4242,-578,-266,1
4236,-537,-208,1
4232,-501,-165,1
4210,-473,-128,1
4193,-445,-93,1
4181,-408,-76,1
4173,-363,-61,1
4176,-311,-56,1
4190,-250,-50,1
4202,-186,-53,1
4220,-135,-70,1
4224,-124,-87,1
4221,-140,-103,1
4226,-160,-122,1
4226,-188,-151,1
4211,-217,-186,1
4186,-247,-246,1
4161,-272,-312,1
4146,-277,-355,1
4142,-257,-359,1
4148,-202,-327,1
4162,-122,-294,1
4188,-26,-252,1
4226,81,-209,1
4259,202,-167,1
4277,309,-133,1
4297,407,-111,1
4303,489,-119,1
4294,562,-142,1
4280,630,-191,1
4267,684,-255,1
4257,740,-319,1
4265,816,-370,1
4283,916,-397,1
4321,1013,-402,1
4376,1097,-394,1
4437,1157,-385,1
4492,1198,-375,1
4560,1235,-360,1
4626,1249,-373,1
4706,1242,-387,1
4791,1212,-416,1
4884,1147,-472,1
4954,1087,-509,1
5015,1025,-565,1
5038,967,-644,1
5033,942,-723,1
5008,925,-826,1
4955,949,-927,1
4881,989,-1022,1
4772,1055,-1080,1
4702,1127,-1139,1
4597,1147,-1190,1
4474,1184,-1216,1
4342,1249,-1211,1
4194,1296,-1186,1
4055,1298,-1129,1
3928,1266,-1068,1
3794,1240,-1011,1
3683,1209,-967,1
3565,1203,-911,1
3493,1168,-848,1
3460,1118,-763,1
3439,1067,-704,1
3407,1046,-664,1
3389,1020,-618,1
3357,1023,-579,1
3319,1048,-541,1
3280,1071,-511,1
3268,1091,-464,1
3292,1100,-422,1
3355,1115,-366,1
3444,1122,-304,1
3539,1128,-245,1
3619,1119,-195,1
3699,1111,-161,1
3788,1107,-139,1
3865,1116,-119,1
3955,1105,-100,1
4021,1135,-70,1
4070,1167,-43,1
4104,1178,-19,1
4114,1149,3,1
4097,1129,22,1
4051,1103,37,1
4038,1026,34,1
3986,1016,26,1
3937,1010,19,1
3883,997,12,1
3850,984,2,1
3819,971,-6,1
3806,957,-5,1
3805,952,-16,1
3817,949,-25,1
3805,983,-30,1
3807,981,-55,1
3787,1006,-67,1
3754,1039,-65,1
3725,1051,-74,1
3709,1062,-73,1
3682,1075,-59,1
3651,1085,-35,1
3615,1069,-13,1
3574,1045,3,1
3549,1044,41,1
3528,1039,52,1
3506,1034,60,1
3488,1017,59,1
3478,994,60,1
3467,970,52,1
3456,944,48,1
3451,922,53,1
3443,905,66,1
3453,892,84,1
3471,882,109,1
3481,870,136,1
3485,866,162,1
3487,866,184,1
3486,859,200,1
3481,867,207,1
3474,881,215,1
3461,904,215,1
3447,929,211,1
3439,956,211,1
3435,977,211,1
3434,995,206,1
3435,1012,198,1
3426,1031,185,1
3398,1048,177,1
3379,1056,165,1
3370,1059,153,1
3368,1067,137,1
3373,1071,119,1
3381,1075,109,1
3404,1080,91,1
3411,1096,95,1
3432,1100,127,1
3454,1089,169,1
3461,1093,192,1
3460,1094,153,1
3445,1098,87,1
3437,1097,25,1
3435,1109,-25,1
3435,1135,-73,1
3446,1165,-104,1
3459,1197,-105,1
3484,1215,-100,1
3508,1243,-69,1
3534,1267,-33,1
3556,1297,-9,1
3578,1329,15,1
3609,1355,41,1
3637,1384,59,1
3668,1403,69,1
3709,1412,68,1
3762,1425,80,1
3823,1429,95,1
3888,1433,114,1
3953,1441,139,1
4016,1451,174,1
4069,1465,219,1
4116,1490,278,1
4153,1518,355,1
4192,1548,443,1
4226,1571,532,1
4249,1585,597,1
4264,1588,643,1
4270,1582,669,1
4282,1549,676,1
4274,1521,645,1
4264,1483,593,1
4238,1448,526,1
4206,1407,469,1
4165,1352,432,1
4129,1294,405,1
4082,1229,378,1
4043,1153,351,1
4013,1074,313,1
3993,994,268,1
3991,917,207,1
4002,859,132,1
4022,822,51,1
4045,818,-32,1
4061,838,-111,1
4076,871,-169,1
4088,911,-231,1
4100,961,-311,1
4127,1030,-402,1
4183,1092,-481,1
4258,1143,-523,1
4350,1168,-517,1
4438,1182,-473,1
4517,1208,-408,1
4593,1229,-374,1
4677,1248,-387,1
4765,1283,-454,1
4849,1343,-579,1
4936,1423,-766,1
5016,1526,-1011,1
5104,1694,-1291,1
5194,1877,-1481,1
5253,2026,-1490,1
5279,2067,-1399,1
5242,1992,-1288,1
5109,1867,-1238,1
4927,1729,-1211,1
4712,1582,-1194,1
4491,1436,-1174,1
4274,1302,-1152,1
4063,1182,-1156,1
3876,1064,-1180,1
3717,953,-1187,1
3580,848,-1165,1
3461,713,-1111,1
3378,577,-1094,1
3345,472,-1038,1
3355,389,-913,1
3390,301,-788,1
3409,201,-675,1
3415,97,-582,1
3408,-10,-491,1
3405,-91,-378,1
3387,-149,-286,1
3361,-165,-231,1
3335,-165,-216,1
3360,-152,-215,1
3445,-111,-208,1
3571,-87,-190,1
3688,-95,-118,1
3759,-142,-57,1
3748,-245,-97,1
3677,-345,-263,1
3615,-423,-450,1
3629,-479,-592,1
3731,-537,-700,1
3878,-588,-786,1
4036,-621,-849,1
4218,-632,-881,1
4397,-619,-893,1
4557,-597,-909,1
4680,-557,-925,1
4778,-514,-943,1
4841,-468,-947,1
4866,-419,-948,1
4848,-374,-936,1
4802,-327,-915,1
4707,-276,-892,1
4570,-221,-875,1
4418,-161,-869,1
4271,-99,-868,1
4150,-39,-865,1
4046,10,-857,1
3958,54,-843,1
3889,97,-825,1
3814,131,-821,1
3740,171,-821,1
3670,217,-813,1
3602,277,-794,1
3548,326,-768,1
3499,370,-742,1
3471,416,-713,1
3457,478,-697,1
3459,515,-698,1
3475,534,-682,1
3492,541,-658,1
3521,553,-620,1
3544,538,-587,1
3569,499,-558,1
3592,472,-520,1
3626,429,-487,1
3661,381,-474,1
3690,338,-472,1
3727,300,-475,1
3762,274,-488,1
3792,236,-522,1
3824,203,-546,1
3855,171,-567,1
3886,135,-597,1
3928,112,-613,1
3981,94,-620,1
4021,75,-628,1
4044,36,-623,1
4077,17,-584,1
4135,21,-543,1
4159,15,-509,1
4163,21,-473,1
4165,41,-431,1
4171,94,-395,1
4180,139,-353,1
4186,193,-298,1
4188,255,-238,1
4180,315,-198,1
4173,363,-171,1
4164,389,-152,1
4148,401,-136,1
4125,389,-128,1
4103,374,-115,1
4071,348,-111,1
4027,326,-116,1
3993,290,-136,1
3968,261,-157,1
3948,228,-190,1
3930,204,-221,1
3917,164,-269,1
3916,140,-322,1
3926,132,-374,1
3931,131,-419,1
3947,112,-454,1
3973,107,-463,1
3999,113,-467,1
4018,122,-469,1
4050,130,-466,1
4082,143,-460,1
4122,164,-453,1
4165,188,-443,1
4214,209,-420,1
4269,235,-385,1
4317,258,-348,1
4362,262,-321,1
4405,261,-296,1
4447,249,-265,1
4488,230,-243,1
4532,179,-228,1
4568,108,-207,1
4612,18,-171,1
4645,-92,-135,1
4668,-216,-136,1
4676,-349,-172,1
4677,-461,-244,1
4685,-547,-315,1
4734,-605,-370,1
4802,-644,-399,1
4878,-667,-400,1
4954,-684,-389,1
5027,-713,-379,1
5100,-770,-378,1
5168,-845,-346,1
5219,-930,-284,1
5244,-1005,-233,1
5241,-1061,-227,1
5220,-1070,-247,1
5184,-1044,-297,1
5140,-975,-370,1
5095,-890,-471,1
5040,-795,-585,1
4973,-702,-667,1
4896,-606,-765,1
4822,-497,-926,1
4747,-355,-1116,1
4660,-214,-1303,1
4574,-105,-1458,1
4487,-34,-1543,1
4394,25,-1556,1
4282,96,-1531,1
4161,176,-1498,1
4033,263,-1455,1
3911,354,-1382,1
3799,426,-1260,1
3699,486,-1130,1
3597,548,-1074,1
3522,616,-1040,1
3481,671,-984,1
3475,717,-862,1
3478,750,-707,1
3493,777,-570,1
3516,808,-451,1
3559,841,-317,1
3631,886,-186,1
3733,920,-70,1
3872,949,35,1
4016,974,125,1
4176,978,188,1
4327,967,241,1
4474,930,280,1
4624,872,308,1
4757,799,323,1
4871,714,304,1
4950,623,249,1
5007,517,178,1
5053,422,102,1
5110,339,20,1
5165,278,-69,1
5202,229,-126,1
5199,161,-195,1
5160,166,-236,1
5050,143,-304,1
4855,120,-332,1
4634,104,-301,1
4439,121,-220,1
4283,139,-161,1
4174,155,-119,1
4081,152,-87,1
3876,163,-51,1
3725,230,19,1
3599,334,80,1
3446,375,114,1
3332,404,182,1
3280,401,212,1
3209,398,225,1
3111,395,242,1
3036,395,256,1
2955,433,276,1
2834,519,287,1
2689,583,297,1
2566,606,299,1
2494,630,310,1
2475,663,315,1
2469,692,342,1
2471,709,362,1
2482,660,378,1
2497,639,435,1
2517,656,501,1
2528,691,541,1
2514,706,558,1
2509,692,566,1
2509,679,561,1
2530,656,558,1
2568,647,548,1
2632,651,543,1
2711,641,551,1
2783,623,603,1
2854,590,681,1
2914,537,765,1
2959,465,829,1
3007,389,873,1
3053,314,909,1
3103,230,934,1
3165,156,947,1
3169,27,930,1
3211,-68,912,1
3282,-119,811,1
3376,-96,745,1
3479,-50,724,1
3555,0,745,1
3607,31,765,1
3626,55,737,1
3614,69,649,1
3592,72,518,1
3580,75,412,1
3587,55,328,1
3621,52,273,1
3702,85,254,1
3836,162,290,1
4035,288,366,1
4272,426,482,1
4524,531,589,1
4771,600,672,1
5016,636,757,1
5245,636,838,1
5464,625,925,1
5671,594,1004,1
5871,568,1103,1
6089,590,1229,1
6358,674,1278,1
6674,847,1194,1
7038,1038,995,1
7397,1132,711,1
7662,1047,423,1
7663,821,180,1
7487,495,58,1
7092,318,-61,1
6634,289,-159,1
6161,356,-195,1
5731,432,-112,1
5327,416,42,1
4911,394,219,1
4494,461,387,1
4065,568,484,1
3695,726,513,1
3446,897,499,1
3348,1024,459,1
3358,1130,390,1
3452,1212,314,1
3556,1210,239,1
3641,1186,135,1
3655,1122,-14,1
3665,1035,-180,1
3641,944,-395,1
3620,829,-605,1
3622,681,-767,1
3634,506,-871,1
3646,320,-912,1
3643,146,-925,1
3624,-13,-929,1
3670,-108,-936,1
3671,-260,-1024,1
3563,-439,-1071,1
3538,-499,-1008,1
3634,-484,-1003,1
3789,-437,-1050,1
3979,-362,-1050,1
4166,-279,-978,1
4323,-206,-850,1
4417,-150,-707,1
4480,-109,-547,1
4521,-81,-386,1
4534,-79,-236,1
4512,-85,-93,1
4459,-98,34,1
4381,-126,142,1
4275,-165,229,1
4163,-200,307,1
4016,-224,391,1
3870,-256,447,1
3725,-284,481,1
3600,-311,499,1
3531,-320,521,1
3465,-331,519,1
3432,-341,530,1
3437,-436,461,1
3476,-520,375,1
3547,-540,272,1
3635,-548,157,1
3716,-547,78,1
3763,-530,20,1
3799,-513,-34,1
3833,-502,-81,1
3869,-490,-119,1
3905,-491,-160,1
3937,-492,-184,1
3960,-509,-201,1
3985,-513,-214,1
3987,-501,-226,1
3964,-480,-274,1
3896,-436,-301,1
3884,-365,-247,1
3957,-413,-234,1
4122,-471,-246,1
4252,-489,-273,1
4229,-468,-281,1
4128,-410,-250,1
4042,-311,-230,1
4002,-189,-245,1
3962,-91,-261,1
3962,-5,-263,1
3950,-10,-282,1
3877,-18,-289,1
3737,-70,-336,1
3646,-87,-364,1
3617,-58,-407,1
3612,20,-462,1
3633,105,-495,1
3658,174,-514,1
3677,227,-499,1
3683,279,-486,1
3704,329,-467,1
3723,388,-444,1
3760,459,-356,1
3779,576,-240,1
3814,669,-83,1
3862,769,64,1
3915,849,197,1
3971,902,306,1
4021,940,394,1
4079,953,448,1
4159,926,480,1
4238,893,517,1
4313,828,541,1
4388,766,553,1
4489,674,548,1
4578,573,500,1
4668,449,437,1
4749,318,328,1
4829,154,219,1
4895,-17,110,1
4911,-195,-2,1
4893,-346,-109,1
4825,-473,-233,1
4758,-563,-327,1
4674,-594,-383,1
4585,-602,-445,1
4493,-542,-490,1
4395,-442,-587,1
4269,-338,-774,1
4148,-231,-1027,1
3940,-71,-1343,1
3706,97,-1650,1
3558,242,-1924,1
3439,335,-2196,1
3326,393,-2376,1
3222,386,-2357,1
3181,405,-2181,1
3202,378,-1906,1
3119,419,-1533,1
3045,451,-1138,1
2986,539,-730,1
3021,597,-373,1
3066,737,-92,1
3162,830,138,1
3259,961,270,1
3324,1066,280,1
3373,1162,232,1
3415,1255,171,1
3502,1303,117,1
3604,1340,54,1
3695,1369,-53,1
3806,1370,-190,1
3936,1346,-334,1
4069,1307,-462,1
4212,1249,-567,1
4364,1177,-625,1
4499,1115,-673,1
4628,1044,-709,1
4729,939,-723,1
4799,789,-749,1
4825,625,-757,1
4797,487,-765,1
4726,404,-812,1
4614,353,-816,1
4499,307,-722,1
4360,324,-602,1
4237,345,-521,1
4154,371,-437,1
4097,376,-328,1
4047,372,-212,1
3993,382,-119,1
3925,410,-61,1
3847,457,-36,1
3774,527,-18,1
3701,615,-14,1
3621,699,-16,1
3523,775,-18,1
3430,799,-9,1
3337,795,3,1
3277,756,19,1
3223,735,52,1
3197,708,119,1
3201,684,197,1
3179,643,259,1
3166,587,355,1
3160,558,459,1
3164,526,542,1
3193,530,607,1
3251,539,635,1
3350,571,687,1
3478,620,737,1
3651,648,775,1
3788,635,785,1
3911,619,784,1
3966,563,714,1
3990,506,636,1
3996,511,554,1
4039,459,488,1
4104,370,464,1
4198,293,474,1
4318,319,461,1
4436,440,416,1
4548,618,319,1
4630,828,198,1
4663,1009,99,1
4652,1162,51,1
4609,1262,53,1
4545,1316,64,1
4463,1347,82,1
4347,1327,75,1
4200,1296,85,1
3990,1179,100,1
3717,988,46,1
3457,789,-136,1
3141,560,-494,1
2779,287,-869,1
2252,118,-1221,1
1798,-75,-1387,1
1582,-418,-1208,1
1458,-881,-819,1
1292,-1418,-513,1
1079,-1885,-422,1
794,-2398,-732,1
451,-2732,-1373,1
137,-2893,-2059,1
4,-2809,-2431,1
-30,-2570,-2565,1
37,-2164,-2539,1
163,-1510,-2369,1
282,-688,-2181,1
375,107,-2072,1
490,793,-1958,1
650,1457,-1699,1
805,2097,-1252,1
1087,2676,-593,1
1492,3124,71,1
2083,3471,805,1
2689,3759,1352,1
3216,3937,1586,1
3476,4000,1337,1
3539,3916,870,1
3538,3573,424,1
3481,3016,44,1
3331,2341,-344,1
3082,1618,-809,1
2830,947,-1273,1
2646,405,-1634,1
2557,8,-1774,1
2526,-293,-1724,1
2502,-595,-1663,1
2433,-802,-1578,1
2313,-949,-1456,1
2173,-1052,-1327,1
2086,-1117,-1135,1
2036,-1118,-933,1
2039,-1028,-709,1
2020,-781,-473,1
1965,-458,-313,1
1950,-144,-247,1
1987,186,-262,1
2031,512,-388,1
2034,837,-539,1
1988,1162,-697,1
1971,1385,-813,1
2030,1631,-770,1
2131,1838,-706,1
2193,2034,-672,1
2173,2252,-702,1
2174,2465,-739,1
2264,2604,-707,1
2527,2599,-563,1
2990,2401,-348,1
3559,2025,-195,1
4102,1553,-211,1
4580,1047,-353,1
4948,539,-544,1
5174,93,-714,1
5317,-361,-871,1
5470,-742,-956,1
5603,-1067,-1072,1
5669,-1218,-1192,1
5628,-1241,-1217,1
5510,-1118,-1269,1
5721,-691,-1113,1
6207,165,-1049,1
6607,1512,-1477,1
6625,3103,-2251,1
6273,4577,-3027,1
5891,5654,-3490,1
5846,6219,-3283,1
6279,6103,-2565,1
6687,5471,-1531,1
6854,4690,-427,1
7105,4022,564,1
7287,3620,1265,1
7455,3366,1787,1
7683,3168,2152,1
7666,3130,2271,1
7479,2998,2075,1
7214,2978,1673,1
6869,3072,1186,1
6599,3322,790,1
6410,3589,414,1
6321,3889,69,1
6325,4053,-231,1
6369,4065,-501,1
6294,3970,-838,1
6143,3909,-1184,1
5883,3810,-1520,1
5684,3657,-1645,1
5600,3367,-1592,1
5626,3046,-1416,1
5686,2774,-1191,1
5724,2651,-933,1
5705,2622,-688,1
5568,2690,-410,1
5389,2805,-145,1
5224,2818,103,1
5094,2907,282,1
4999,2984,295,1
4900,3095,240,1
4739,3206,109,1
4526,3325,-32,1
4303,3377,-219,1
4009,3244,-422,1
3727,3037,-485,1
3408,2786,-482,1
3079,2660,-426,1
2799,2578,-348,1
2585,2497,-239,1
2425,2451,-182,1
2259,2381,-146,1
2146,2382,-108,1
2035,2460,-59,1
1996,2497,62,1
2024,2437,187,1
2009,2341,335,1
2013,2273,427,1
2080,2211,386,1
2256,2205,285,1
2477,2122,55,1
2714,2022,-255,1
3199,2304,-378,1
4217,3771,337,1
5961,6328,2074,1
7410,9913,3961,1
7875,13509,5694,1
7448,15356,7283,1
6437,14749,9042,1
4876,12073,10550,1
2750,8178,10944,1
664,4394,9488,1
-487,2094,8160,1
-619,1371,7422,1
-337,724,6343,1
65,-230,4578,1
650,-1215,2652,1
1242,-2221,773,1
1558,-2806,-416,1
1507,-2686,-589,1
1063,-1847,22,1
358,-681,1072,1
-171,138,2038,1
-387,854,2800,1
-450,1500,3174,1
-419,2140,3312,1
-305,2671,3251,1
-150,2999,3206,1
-93,3177,3175,1
-119,3203,3143,1
-159,3046,3027,1
-140,2763,2908,1
-44,2385,2772,1
121,1981,2552,1
242,1592,2227,1
311,1314,1892,1
286,1155,1685,1
106,1080,1708,1
-276,1200,2030,1
-883,1438,2599,1
-1751,1686,3312,1
-2770,1901,3936,1
-3744,2164,4479,1
-4624,2321,5083,1
-5328,2412,5514,1
-5789,2768,5849,1
-6130,3266,6102,1
-6293,3702,6659,1
-6182,3939,7411,1
-5932,3841,7983,1
-5584,3480,8205,1
-5016,2835,8160,1
-4494,2021,7846,1
-3938,1254,7500,1
-3166,353,6701,1
-2173,-454,5687,1
-1200,-990,4511,1
-362,-1348,3306,1
309,-1558,2370,1
773,-1660,1705,1
1107,-1602,1419,1
1311,-1397,1374,1
1409,-1077,1428,1
1419,-739,1560,1
1321,-484,1749,1
1057,-214,1831,1
707,-50,2070,1
283,8,2415,1
-70,41,2900,1
-333,32,3417,1
-529,-58,3845,1
-708,-172,4157,1
-882,-260,4410,1
-1079,-306,4595,1
-1260,-303,4761,1
-1403,-300,4906,1
-1477,-274,4999,1
-1492,-228,5018,1
-1475,-187,4995,1
-1392,-187,4957,1
-1217,-216,4936,1
-954,-257,4930,1
-646,-311,4894,1
-380,-400,4842,1
-184,-513,4798,1
-29,-618,4754,1
101,-717,4713,1
198,-801,4685,1
286,-850,4681,1
348,-881,4674,1
368,-920,4649,1
361,-952,4615,1
340,-975,4582,1
313,-986,4565,1
257,-990,4544,1
189,-988,4534,1
133,-975,4513,1
97,-958,4465,1
88,-919,4387,1
115,-865,4311,1
163,-783,4235,1
208,-700,4168,1
232,-629,4134,1
233,-575,4116,1
218,-538,4109,1
210,-490,4110,1
188,-447,4113,1
179,-410,4121,1
179,-373,4116,1
192,-358,4096,1
222,-347,4058,1
266,-351,4005,1
312,-359,3937,1
345,-353,3879,1
354,-338,3830,1
350,-306,3811,1
348,-278,3814,1
367,-233,3831,1
398,-202,3854,1
431,-193,3899,1
449,-217,3964,1
442,-261,4030,1
421,-305,4108,1
403,-345,4185,1
387,-365,4263,1
384,-386,4331,1
399,-398,4406,1
430,-415,4465,1
467,-416,4506,1
507,-400,4541,1
531,-381,4554,1
538,-357,4562,1
527,-320,4566,1
502,-261,4597,1
454,-223,4617,1
398,-198,4635,1
343,-142,4660,1
293,-89,4671,1
248,-46,4678,1
198,-7,4690,1
159,41,4701,1
138,69,4706,1
104,128,4719,1
78,186,4696,1
62,244,4667,1
58,300,4623,1
48,352,4579,1
33,407,4539,1
17,451,4482,1
3,496,4411,1
-6,493,4317,1
-24,513,4233,1
-49,501,4156,1
-74,514,4048,1
-118,510,3927,1
-151,498,3860,1
-214,510,3812,1
-295,530,3775,1
-358,560,3748,1
-402,629,3726,1
-463,700,3665,1
-515,774,3620,1
-567,881,3604,1
-652,989,3588,1
-744,1081,3574,1
-800,1190,3599,1
-836,1278,3619,1
-836,1363,3668,1
-837,1471,3707,1
-821,1596,3786,1
-791,1706,3882,1
-741,1816,3986,1
-681,1913,4043,1
-649,2034,4020,1
-610,2160,3954,1
-609,2253,3831,1
-605,2329,3676,1
-621,2323,3505,1
-666,2278,3322,1
-715,2225,3202,1
-716,2166,3215,1
-632,2087,3380,1
-509,1963,3635,1
-448,1846,3797,1
-424,1739,3842,1
-341,1579,3880,1
-154,1345,4013,1
88,1097,4292,1
218,829,4527,1
156,577,4671,1
-106,389,4628,1
-675,265,3981,1
-1580,277,2215,1
-2221,238,575,1
-2122,-466,517,1
-1499,-1406,1969,1
-854,-333,3046,1
408,925,4596,1
2296,1243,7083,1
3548,967,8681,1
3651,919,8610,1
3221,1372,7619,1
3015,2043,6620,1
3165,2496,5803,1
3402,2616,4825,1
3541,2527,3623,1
3495,2368,2439,1
3209,2184,1702,1
2594,1888,1432,1
1655,1653,1512,1
622,1497,1779,1
-274,1470,2066,1
-938,1555,2293,1
-1351,1747,2427,1
-1514,1879,2479,1
-1457,2049,2544,1
-1264,2226,2605,1
-1057,2516,2667,1
-873,2742,2650,1
-753,2874,2572,1
-694,2888,2447,1
-726,3028,2402,1
-651,2980,2585,1
-660,3015,2759,1
-696,2966,2850,1
-765,2932,2888,1
-866,2965,2859,1
-966,3026,2845,1
-997,3052,2789,1
-952,3143,2798,1
-801,3242,2873,1
-516,3228,2958,1
-186,3168,3051,1
98,3046,3120,1
265,2947,3171,1
329,2848,3208,1
322,2738,3217,1
263,2630,3233,1
175,2535,3226,1
98,2453,3216,1
42,2421,3232,1
-15,2414,3219,1
-54,2387,3148,1
-97,2353,2995,1
-177,2399,2856,1
-268,2474,2792,1
-387,2569,2836,1
-519,2660,2952,1
-686,2854,3141,1
-807,3083,3369,1
-917,3340,3506,1
-948,3529,3581,1
-932,3645,3509,1
-891,3713,3376,1
-781,3686,3249,1
-689,3655,3105,1
-624,3554,2880,1
-574,3430,2640,1
-566,3282,2382,1
-605,3118,2118,1
-661,2971,1885,1
-733,2842,1667,1
-785,2746,1512,1
-841,2700,1436,1
-875,2661,1402,1
-892,2658,1430,1
-893,2656,1491,1
-906,2737,1600,1
-920,2854,1727,1
-922,3000,1880,1
-908,3110,2009,1
-882,3215,2128,1
-866,3315,2219,1
-856,3402,2270,1
-821,3443,2322,1
-790,3469,2326,1
-770,3476,2328,1
-747,3475,2345,1
-729,3446,2357,1
-701,3397,2362,1
-666,3343,2362,1
-641,3314,2371,1
-621,3312,2399,1
-616,3322,2423,1
-625,3336,2441,1
-646,3374,2454,1
-660,3417,2466,1
-680,3452,2455,1
-705,3477,2434,1
-726,3488,2393,1
-754,3486,2359,1
-780,3469,2325,1
-816,3486,2311,1
-836,3516,2306,1
-833,3526,2299,1
-824,3511,2265,1
-805,3482,2227,1
-799,3454,2185,1
-788,3435,2149,1
-778,3426,2121,1
-766,3427,2104,1
-755,3435,2102,1
-747,3445,2102,1
-733,3445,2105,1
-724,3448,2097,1
-712,3442,2085,1
-709,3433,2079,1
-703,3407,2084,1
-713,3394,2099,1
-732,3384,2100,1
-742,3372,2085,1
-752,3358,2070,1
-766,3347,2074,1
-768,3342,2091,1
-767,3339,2103,1
-754,3348,2113,1
-741,3361,2118,1
-725,3378,2127,1
-723,3407,2145,1
-718,3429,2164,1
-714,3447,2177,1
-717,3475,2194,1
-732,3502,2214,1
-746,3514,2248,1
-760,3518,2279,1
-768,3519,2308,1
-761,3511,2327,1
-755,3491,2330,1
-745,3468,2316,1
-740,3450,2299,1
-741,3426,2279,1
-743,3406,2271,1
-743,3385,2269,1
-742,3351,2262,1
-742,3313,2246,1
-752,3293,2228,1
-738,3245,2217,1
-734,3208,2218,1
-727,3185,2235,1
-716,3183,2269,1
-694,3181,2303,1
-675,3180,2331,1
-663,3189,2348,1
-655,3198,2357,1
-653,3207,2361,1
-657,3213,2355,1
-661,3223,2359,1
-665,3227,2363,1
-677,3231,2379,1
-691,3236,2389,1
-704,3230,2378,1
-721,3230,2355,1
-726,3233,2333,1
-719,3244,2325,1
-709,3259,2324,1
-700,3279,2328,1
-694,3283,2329,1
-697,3281,2326,1
-702,3275,2323,1
-711,3278,2317,1
-707,3263,2310,1
-716,3254,2306,1
-716,3250,2300,1
-727,3250,2298,1
-733,3254,2303,1
-758,3251,2294,1
-789,3249,2270,1
-822,3247,2250,1
-849,3242,2249,1
-861,3237,2268,1
-871,3239,2302,1
-874,3234,2332,1
-879,3236,2358,1
-885,3240,2380,1
-892,3244,2388,1
-898,3239,2396,1
-869,3239,2429,1
-816,3240,2469,1
-771,3248,2498,1
-735,3244,2523,1
-717,3238,2533,1
-709,3227,2525,1
-716,3209,2514,1
-719,3191,2508,1
-717,3165,2512,1
-708,3151,2517,1
-693,3131,2513,1
-684,3109,2497,1
-674,3092,2481,1
-663,3074,2467,1
-653,3051,2452,1
-658,3033,2439,1
-668,3020,2427,1
-680,3006,2414,1
-700,3000,2399,1
-718,2993,2376,1
-732,2997,2372,1
-739,3015,2364,1
-741,3032,2352,1
-735,3052,2350,1
-722,3071,2356,1
-702,3092,2365,1
-686,3114,2371,1
-669,3140,2377,1
-659,3172,2386,1
-644,3210,2392,1
-627,3237,2393,1
-615,3258,2391,1
-606,3275,2378,1
-596,3291,2367,1
-593,3308,2354,1
-598,3315,2340,1
-606,3316,2327,1
-615,3315,2315,1
-626,3321,2315,1
-639,3342,2321,1
-644,3349,2335,1
-654,3352,2344,1
-654,3357,2351,1
-652,3360,2360,1
-649,3358,2365,1
-639,3345,2363,1
-631,3329,2350,1
-616,3317,2337,1
-602,3301,2323,1
-600,3288,2302,1
-603,3284,2292,1
-604,3275,2286,1
-594,3263,2279,1
-584,3254,2272,1
-581,3246,2268,1
-586,3246,2269,1
-593,3250,2266,1
-588,3238,2263,1
-590,3237,2256,1
-584,3246,2261,1
-586,3258,2280,1
-581,3258,2301,1
-578,3256,2332,1
-582,3251,2354,1
-590,3241,2366,1
-599,3238,2377,1
-610,3231,2384,1
-610,3209,2385,1
-605,3187,2371,1
-597,3165,2356,1
-590,3140,2336,1
-585,3117,2329,1
-583,3095,2320,1
-587,3070,2302,1
-602,3054,2293,1
-629,3051,2288,1
-661,3061,2297,1
-690,3067,2297,1
-714,3069,2297,1
-740,3080,2303,1
-768,3103,2314,1
-790,3122,2324,1
-813,3148,2321,1
-832,3178,2332,1
-853,3207,2348,1
-869,3227,2360,1
-883,3243,2366,1
-891,3255,2369,1
-894,3269,2380,1
-902,3280,2377,1
-910,3287,2375,1
-916,3274,2358,1
-917,3263,2360,1
-924,3256,2363,1
-922,3253,2369,1
-934,3264,2373,1
-947,3289,2395,1
-952,3288,2410,1
-962,3291,2419,1
-969,3293,2427,1
-978,3282,2425,1
-980,3275,2416,1
-968,3264,2408,1
-954,3252,2385,1
-935,3242,2366,1
-920,3234,2354,1
-909,3225,2349,1
-889,3214,2347,1
-870,3209,2336,1
-855,3204,2336,1
-851,3212,2341,1
-841,3216,2348,1
-839,3223,2354,1
-840,3230,2363,1
-838,3236,2368,1
-833,3236,2369,1
-832,3238,2368,1
-836,3235,2364,1
-835,3228,2359,1
-840,3225,2348,1
-847,3219,2338,1
-847,3216,2323,1
-848,3218,2309,1
-845,3216,2299,1
-843,3208,2287,1
-827,3197,2283,1
-822,3209,2265,1
-813,3211,2278,1
-798,3209,2286,1
-791,3208,2286,1
-792,3210,2296,1
-788,3198,2304,1
-789,3193,2302,1
-801,3187,2295,1
-805,3183,2285,1
-823,3183,2273,1
-846,3181,2267,1
-863,3175,2260,1
-882,3176,2236,1
-894,3173,2226,1
-910,3182,2216,1
-924,3183,2213,1
-928,3196,2223,1
-918,3190,2227,1
-921,3207,2235,1
-924,3219,2255,1
-934,3244,2278,1
-936,3254,2295,1
-936,3253,2300,1
-942,3257,2306,1
-938,3253,2305,1
-928,3236,2292,1
-922,3233,2271,1
-917,3233,2257,1
-917,3234,2243,1
-911,3225,2239,1
-906,3220,2237,1
-900,3217,2239,1
-890,3210,2241,1
-883,3201,2235,1
-872,3193,2225,1
-874,3191,2222,1
-875,3190,2220,1
-881,3202,2235,1
-888,3208,2252,1
-887,3213,2269,1
-888,3217,2285,1
-892,3223,2302,1
-900,3234,2311,1
-908,3244,2318,1
-918,3247,2325,1
-927,3253,2317,1
-936,3255,2306,1
-942,3254,2294,1
-939,3250,2277,1
-935,3243,2261,1
-925,3237,2248,1
-915,3237,2232,1
-908,3233,2214,1
-898,3235,2215,1
-894,3247,2224,1
-884,3261,2238,1
-874,3278,2266,1
-867,3291,2296,1
-859,3300,2318,1
-867,3313,2337,1
-877,3326,2359,1
-892,3338,2370,1
-914,3336,2345,1
-961,3335,2282,1
-1010,3351,2205,1
-1061,3372,2126,1
-1100,3409,2072,1
-1118,3437,2042,1
-1119,3464,2034,1
-1100,3477,2035,1
-1077,3474,2043,1
-1089,3503,2027,1
-1109,3531,2001,1
-1142,3547,1981,1
-1149,3549,1992,1
-1145,3531,1997,1
-1158,3516,1980,1
-1170,3500,1967,1
-1171,3481,1947,1
-1197,3479,1938,1
-1182,3466,1946,1
-1179,3474,1943,1
-1197,3470,1932,1
-1214,3462,1928,1
-1228,3447,1919,1
-1238,3453,1924,1
-1228,3459,1925,1
-1214,3441,1896,1
-1195,3424,1851,1
-1165,3404,1810,1
-1126,3392,1776,1
-1091,3407,1762,1
-1073,3451,1765,1
-1063,3488,1774,1
-1059,3522,1785,1
-1047,3555,1799,1
-1038,3566,1799,1
-1045,3600,1783,1
-1067,3652,1798,1
-1061,3692,1828,1
-996,3685,1857,1
-931,3630,1851,1
-912,3546,1812,1
-894,3456,1813,1
-906,3436,1851,1
-966,3464,1873,1
-995,3468,1896,1
-977,3486,1947,1
-950,3523,1993,1
-943,3514,2006,1
-926,3501,2026,1
-893,3469,2050,1
-872,3435,2099,1
-871,3345,2141,1
-876,3251,2188,1
-853,3193,2269,1
-817,3193,2378,1
-799,3216,2484,1
-786,3257,2571,1
-776,3348,2683,1
-773,3419,2778,1
-807,3438,2805,1
-829,3433,2825,1
-869,3442,2845,1
-921,3437,2848,1
-973,3410,2830,1
-1094,3327,2709,1
-1231,3167,2479,1
-1348,3044,2379,1
-1414,2883,2367,1
-1428,2742,2414,1
-1392,2626,2501,1
-1353,2550,2552,1
-1211,2319,2529,1
-1054,2111,2493,1
-934,2106,2489,1
-885,2222,2568,1
-889,2349,2654,1
-949,2467,2735,1
-1038,2503,2748,1
-1110,2515,2746,1
-1166,2507,2708,1
-1223,2497,2619,1
-1266,2516,2509,1
-1277,2525,2407,1
-1238,2558,2352,1
-1174,2597,2334,1
-1143,2594,2310,1
-1128,2606,2322,1
-1094,2653,2363,1
-1058,2737,2417,1
-1034,2838,2459,1
-1001,2935,2445,1
-937,3021,2443,1
-846,3113,2453,1
-729,3204,2490,1
-631,3316,2533,1
-551,3436,2598,1
-499,3517,2663,1
-458,3557,2729,1
-433,3590,2764,1
-414,3597,2803,1
-397,3595,2840,1
-399,3583,2862,1
-370,3549,2936,1
-327,3516,3018,1
-284,3445,3075,1
-246,3393,3147,1
-210,3350,3235,1
-168,3232,3287,1
-111,3051,3317,1
-69,2867,3327,1
8,2679,3308,1
63,2475,3265,1
131,2286,3298,1
159,2080,3255,1
209,1933,3252,1
258,1807,3252,1
287,1726,3245,1
302,1714,3233,1
341,1681,3274,1
395,1689,3350,1
443,1757,3446,1
440,1802,3519,1
441,1898,3596,1
408,1964,3641,1
391,2000,3685,1
396,2035,3730,1
395,2075,3732,1
402,2104,3691,1
415,2130,3640,1
438,2136,3574,1
452,2089,3490,1
462,2032,3385,1
459,1953,3273,1
454,1884,3203,1
447,1829,3170,1
443,1819,3164,1
437,1864,3182,1
427,1952,3212,1
437,2055,3279,1
479,2146,3366,1
542,2227,3462,1
593,2269,3507,1
619,2240,3495,1
620,2201,3433,1
619,2198,3391,1
626,2169,3363,1
643,2120,3337,1
659,2087,3328,1
671,2045,3323,1
685,1981,3282,1
720,1955,3249,1
758,1913,3216,1
801,1899,3209,1
853,1915,3212,1
907,1870,3184,1
959,1820,3129,1
1002,1729,3021,1
1027,1621,2908,1
1027,1529,2830,1
1037,1475,2818,1
1036,1481,2873,1
1058,1600,2972,1
1139,1711,3177,1
1226,1731,3369,1
1243,1727,3502,1
1226,1745,3511,1
1220,1765,3540,1
1239,1716,3502,1
1231,1594,3442,1
1148,1500,3499,1
982,1557,3568,1
878,1542,3614,1
886,1493,3639,1
957,1462,3633,1
1024,1466,3564,1
1078,1464,3477,1
1120,1446,3425,1
1125,1444,3389,1
1109,1459,3390,1
1092,1466,3400,1
1077,1454,3411,1
1069,1436,3407,1
1046,1420,3401,1
1036,1411,3390,1
1029,1410,3358,1
1036,1410,3325,1
1054,1418,3306,1
1093,1409,3289,1
1161,1376,3270,1
1235,1358,3279,1
1290,1356,3307,1
1308,1356,3313,1
1331,1385,3344,1
1389,1436,3493,1
1484,1465,3723,1
1581,1494,4008,1
1643,1478,4266,1
1638,1440,4450,1
1607,1424,4574,1
1614,1429,4643,1
1637,1388,4636,1
1677,1321,4595,1
1663,1260,4445,1
1647,1180,4275,1
1602,1100,4112,1
1559,997,3940,1
1540,906,3804,1
1538,822,3662,1
1538,788,3553,1
1571,780,3476,1
1637,810,3461,1
1732,840,3468,1
1870,847,3503,1
1967,857,3514,1
2049,846,3535,1
2156,835,3570,1
2228,827,3582,1
2270,826,3577,1
2271,778,3517,1
2253,731,3498,1
2241,659,3476,1
2215,600,3461,1
2200,525,3447,1
2173,464,3416,1
2153,415,3355,1
2141,377,3280,1
2142,332,3227,1
2180,292,3202,1
2205,283,3175,1
2268,279,3164,1
2344,286,3158,1
2381,316,3133,1
2444,338,3128,1
2500,346,3122,1
2533,347,3101,1
2580,305,3104,1
2598,303,3095,1
2661,277,3095,1
2700,285,3123,1
2781,304,3186,1
2885,351,3242,1
2942,363,3236,1
2952,338,3186,1
2969,338,3151,1
3003,333,3125,1
3005,311,3067,1
3016,243,2979,1
3024,189,2902,1
3018,161,2835,1
2994,123,2786,1
2942,74,2733,1
2897,20,2707,1
2858,69,2724,1
2856,138,2716,1
2870,228,2676,1
2871,355,2667,1
2891,512,2653,1
2995,581,2652,1
3104,637,2633,1
3221,736,2622,1
3282,935,2611,1
3336,1035,2546,1
3275,1195,2432,1
3213,1338,2299,1
3208,1434,2241,1
3137,1580,2226,1
2989,1773,2215,1
2999,1740,2314,1
3059,1763,2527,1
2924,1891,2649,1
2772,1959,2661,1
2690,1901,2684,1
2740,1694,2618,1
2847,1675,2614,1
2862,1632,2516,1
2840,1623,2443,1
2865,1647,2443,1
2903,1734,2460,1
2865,1821,2433,1
2849,1960,2428,1
2838,2083,2420,1
2778,2239,2455,1
2741,2327,2502,1
2720,2371,2517,1
2692,2366,2521,1
2706,2360,2528,1
2759,2317,2540,1
2762,2278,2518,1
2790,2151,2475,1
2814,1993,2423,1
2822,1842,2356,1
2829,1742,2301,1
2846,1677,2264,1
2881,1607,2251,1
2914,1537,2290,1
2939,1472,2335,1
2951,1415,2338,1
2931,1389,2326,1
2924,1376,2299,1
2942,1369,2323,1
2989,1350,2393,1
3045,1321,2485,1
3110,1296,2588,1
3174,1279,2667,1
3214,1274,2665,1
3231,1264,2608,1
3225,1251,2519,1
3213,1239,2417,1
3183,1235,2313,1
3151,1236,2196,1
3138,1252,2096,1
3146,1295,2023,1
3146,1348,1963,1
3134,1406,1949,1
3130,1474,1993,1
3141,1541,2083,1
3183,1607,2204,1
3264,1643,2337,1
3356,1672,2457,1
3411,1702,2516,1
3435,1737,2506,1
3443,1768,2465,1
3474,1760,2422,1
3520,1721,2426,1
3545,1671,2449,1
3568,1619,2476,1
3569,1590,2490,1
3543,1577,2477,1
3521,1585,2436,1
3512,1584,2377,1
3484,1594,2330,1
3432,1601,2286,1
3369,1610,2239,1
3316,1645,2186,1
3268,1670,2147,1
3239,1690,2146,1
3204,1719,2164,1
3184,1737,2175,1
3188,1746,2202,1
3220,1756,2222,1
3280,1746,2245,1
3390,1699,2287,1
3464,1627,2321,1
3544,1569,2369,1
3615,1517,2396,1
3691,1474,2405,1
3751,1438,2386,1
3821,1394,2382,1
3869,1341,2385,1
3896,1283,2395,1
3884,1230,2397,1
3847,1180,2340,1
3755,1185,2228,1
3623,1244,2036,1
3509,1330,1785,1
3417,1435,1521,1
3283,1538,1258,1
3145,1634,1033,1
3037,1727,901,1
2975,1862,842,1
3028,2017,905,1
3172,2181,1069,1
3358,2376,1280,1
3482,2607,1446,1
3647,2819,1602,1
3836,3000,1721,1
3957,3139,1779,1
3996,3198,1788,1
3893,3226,1760,1
3793,3218,1728,1
3732,3197,1714,1
3706,3198,1700,1
3666,3196,1681,1
3625,3201,1676,1
3633,3206,1699,1
3682,3201,1727,1
3755,3187,1751,1
3834,3166,1775,1
3905,3148,1799,1
3978,3118,1810,1
4046,3069,1808,1
4137,3004,1797,1
4241,2946,1777,1
4360,2898,1765,1
4439,2834,1755,1
4468,2742,1741,1
4431,2634,1758,1
4373,2538,1781,1
4280,2456,1808,1
4185,2411,1870,1
4099,2397,1912,1
4012,2394,1966,1
3930,2368,2019,1
3853,2350,2096,1
3803,2364,2232,1
3749,2422,2356,1
3680,2486,2474,1
3579,2531,2558,1
3437,2555,2569,1
3274,2528,2547,1
3138,2447,2497,1
3126,2325,2486,1
3168,2200,2500,1
3230,2060,2501,1
3293,1923,2471,1
3303,1803,2396,1
3279,1704,2289,1
3268,1659,2195,1
3337,1685,2191,1
3520,1739,2245,1
3797,1724,2356,1
4034,1640,2473,1
4140,1536,2547,1
4089,1393,2498,1
3891,1271,2393,1
3624,1143,2250,1
3388,1082,2182,1
3176,1036,2145,1
2968,1003,2161,1
2752,980,2190,1
2579,965,2178,1
2465,973,2104,1
2416,1009,1961,1
2449,1075,1778,1
2530,1179,1632,1
2655,1304,1559,1
2795,1445,1567,1
2943,1551,1654,1
3052,1634,1858,1
3140,1671,2103,1
3175,1679,2288,1
3139,1646,2428,1
3088,1602,2525,1
2995,1534,2575,1
2865,1488,2625,1
2704,1457,2642,1
2539,1405,2634,1
2392,1352,2624,1
2282,1308,2566,1
2222,1288,2467,1
2202,1312,2357,1
2197,1334,2253,1
2202,1357,2143,1
2197,1378,2053,1
2175,1419,1980,1
2161,1451,1936,1
2116,1461,1898,1
2105,1466,1890,1
2097,1460,1863,1
2095,1455,1837,1
2111,1493,1806,1
2140,1540,1802,1
2149,1564,1812,1
2099,1585,1829,1
2037,1598,1857,1
2045,1623,1880,1
2135,1585,1906,1
2283,1504,1919,1
2412,1434,1908,1
2467,1372,1849,1
2444,1326,1765,1
2395,1292,1702,1
2348,1291,1667,1
2366,1316,1666,1
2416,1380,1698,1
2466,1442,1737,1
2430,1520,1775,1
2363,1593,1810,1
2251,1676,1906,1
2127,1801,1940,1
1982,1892,1860,1
1889,2017,1672,1
1936,2223,1483,1
2009,2469,1334,1
2038,2790,1261,1
2026,3107,1159,1
2008,3470,1046,1
2071,3768,955,1
2336,3957,917,1
2786,4062,940,1
3158,4141,1001,1
3407,4066,1016,1
3519,4035,1036,1
3442,4168,984,1
3157,4472,926,1
2824,4827,905,1
2683,5061,912,1
2726,5280,907,1
3012,5579,880,1
3433,5867,816,1
3897,5958,732,1
4333,5817,654,1
4591,5511,570,1
4601,5105,484,1
4352,4682,423,1
3967,4153,405,1
3539,3623,466,1
3183,3096,547,1
2857,2589,617,1
2558,2145,595,1
2317,1825,472,1
2202,1753,266,1
2266,1850,16,1
2441,2096,-253,1
2689,2355,-559,1
2906,2561,-879,1
3093,2707,-1150,1
3221,2782,-1390,1
3246,2837,-1649,1
3164,2941,-1919,1
3015,3123,-2197,1
2859,3213,-2419,1
2734,3262,-2551,1
2638,3310,-2678,1
2603,3459,-2802,1
2655,3671,-2884,1
2777,3857,-2932,1
2941,4003,-2919,1
3114,4099,-2833,1
3244,4117,-2693,1
3275,4078,-2518,1
3220,4003,-2310,1
3125,3923,-2099,1
3046,3794,-1903,1
3039,3629,-1717,1
3090,3492,-1566,1
3161,3357,-1473,1
3213,3246,-1438,1
3251,3151,-1423,1
3270,3051,-1413,1
3251,2937,-1392,1
3196,2859,-1340,1
3144,2788,-1297,1
3091,2710,-1261,1
3059,2635,-1228,1
3047,2570,-1210,1
3047,2489,-1227,1
3075,2387,-1276,1
3100,2315,-1346,1
3110,2254,-1439,1
3095,2186,-1561,1
3089,2148,-1651,1
3089,2100,-1712,1
3068,2068,-1710,1
3010,2032,-1665,1
2939,2000,-1600,1
2896,1978,-1532,1
2870,1966,-1505,1
2845,1943,-1495,1
2851,1954,-1495,1
2904,2002,-1503,1
3005,2074,-1545,1
3048,2181,-1585,1
3028,2276,-1639,1
2971,2359,-1680,1
2908,2427,-1710,1
2859,2480,-1723,1
2819,2515,-1723,1
2774,2575,-1730,1
2706,2680,-1756,1
2654,2799,-1750,1
2644,2908,-1731,1
2625,2975,-1706,1
2602,2997,-1687,1
2581,2977,-1669,1
2522,2887,-1682,1
2435,2746,-1683,1
2357,2716,-1668,1
2304,2745,-1675,1
2248,2783,-1699,1
2197,2777,-1747,1
2156,2742,-1784,1
2131,2680,-1821,1
2077,2606,-1857,1
2002,2554,-1883,1
1934,2517,-1910,1
1850,2513,-1936,1
1746,2517,-1963,1
1668,2560,-1966,1
1632,2618,-1975,1
1628,2589,-2024,1
1597,2597,-2035,1
1584,2563,-2025,1
1583,2550,-2022,1
1609,2538,-2025,1
1642,2537,-2032,1
1695,2503,-2031,1
1739,2456,-2035,1
1786,2406,-2060,1
1825,2348,-2112,1
1835,2327,-2183,1
1838,2321,-2267,1
1832,2338,-2305,1
1827,2344,-2342,1
1836,2370,-2352,1
1900,2400,-2309,1
1982,2430,-2228,1
2075,2445,-2169,1
2177,2439,-2105,1
2292,2436,-2049,1
2386,2423,-2037,1
2477,2400,-2041,1
2552,2380,-2044,1
2636,2357,-2023,1
2707,2329,-1985,1
2738,2307,-1954,1
2752,2324,-1927,1
2802,2355,-1870,1
2864,2392,-1820,1
2915,2398,-1778,1
2942,2378,-1751,1
2960,2343,-1717,1
2978,2298,-1667,1
2993,2244,-1619,1
3031,2182,-1546,1
3083,2123,-1462,1
3126,2061,-1387,1
3153,1995,-1312,1
3151,1904,-1256,1
3135,1806,-1209,1
3126,1682,-1152,1
3138,1532,-1082,1
3136,1345,-1025,1
3115,1121,-1009,1
3105,913,-977,1
3020,687,-1020,1
2895,461,-1135,1
2824,276,-1217,1
2800,177,-1239,1
2783,82,-1290,1
2796,-28,-1317,1
2807,-104,-1333,1
2817,-149,-1319,1
2811,-197,-1340,1
2787,-239,-1395,1
2772,-275,-1440,1
2767,-304,-1457,1
2761,-287,-1469,1
2798,-247,-1440,1
2845,-225,-1414,1
2894,-196,-1389,1
2942,-177,-1405,1
2952,-133,-1469,1
2931,-57,-1549,1
2886,-24,-1643,1
2857,-16,-1695,1
2846,-4,-1749,1
2823,-3,-1824,1
2824,-27,-1891,1
2813,-56,-1961,1
2819,-86,-2014,1
2816,-117,-2086,1
2834,-149,-2151,1
2869,-133,-2201,1
2970,-138,-2204,1
3102,-147,-2171,1
3245,-131,-2110,1
3401,-67,-2013,1
3557,-13,-1941,1
3706,40,-1894,1
3858,139,-1758,1
3980,241,-1610,1
4067,305,-1485,1
4132,324,-1391,1
4153,319,-1314,1
4156,334,-1177,1
4137,343,-1003,1
4124,422,-866,1
4059,617,-852,1
3905,827,-1009,1
3704,1049,-1295,1
3489,1297,-1641,1
3295,1534,-1965,1
3174,1759,-2181,1
3144,1937,-2211,1
3211,2176,-1989,1
3323,2435,-1659,1
3384,2685,-1415,1
3452,2799,-1263,1
3477,2864,-1247,1
3508,2934,-1313,1
3601,3032,-1355,1
3922,3034,-1186,1
4527,2893,-893,1
5195,2638,-710,1
5658,2372,-716,1
5884,2162,-832,1
5969,1976,-971,1
6034,1688,-1161,1
6091,1484,-1271,1
6108,1432,-1231,1
6079,1468,-1144,1
6018,1625,-1040,1
5970,1781,-977,1
5929,1927,-942,1
5895,2013,-960,1
5861,2046,-992,1
5824,2038,-1035,1
5777,1997,-1075,1
5697,1951,-1079,1
5599,1910,-1065,1
5469,1883,-1043,1
5357,1871,-957,1
5234,1853,-869,1
5146,1827,-810,1
5091,1803,-771,1
5059,1775,-734,1
4994,1720,-698,1
4909,1658,-643,1
4753,1583,-596,1
4577,1504,-501,1
4380,1394,-395,1
4167,1290,-286,1
3948,1171,-178,1
3728,1088,-44,1
3528,1028,39,1
3379,986,92,1
3252,930,95,1
3124,931,96,1
3005,928,44,1
2911,901,2,1
2825,890,-14,1
2781,833,-26,1
2754,725,-96,1
2746,628,-108,1
2757,517,-129,1
2774,385,-166,1
2765,224,-214,1
2761,70,-239,1
2787,-34,-217,1
2831,-53,-191,1
2857,-44,-198,1
2894,-63,-243,1
2885,-45,-319,1
2841,-64,-419,1
2793,10,-431,1
2759,79,-434,1
2710,109,-430,1
2661,143,-434,1
2625,153,-461,1
2550,256,-414,1
2487,337,-384,1
2433,418,-371,1
2426,466,-335,1
2439,445,-287,1
2425,385,-254,1
2430,298,-207,1
2475,248,-102,1
2535,204,33,1
2605,175,174,1
2662,151,268,1
2703,148,333,1
2752,62,321,1
2827,-79,272,1
2914,-206,252,1
3001,-332,246,1
3078,-437,262,1
3157,-520,301,1
3262,-591,448,1
3343,-621,420,1
3357,-580,246,1
3330,-464,-64,1
3373,-337,-220,1
3445,-276,-153,1
3521,-301,40,1
3569,-331,222,1
3578,-378,332,1
3570,-444,363,1
3563,-509,344,1
3552,-603,283,1
3521,-718,161,1
3489,-808,46,1
3463,-846,-16,1
3468,-812,9,1
3524,-730,119,1
3621,-630,286,1
3745,-538,474,1
3860,-473,638,1
3963,-436,789,1
4050,-404,965,1
4122,-333,1164,1
4225,-261,1255,1
4368,-108,1183,1
4471,160,909,1
4504,469,324,1
4396,821,-558,1
4283,1120,-1546,1
4412,1344,-2197,1
4785,1475,-2415,1
5235,1570,-2361,1
5622,1688,-2244,1
5923,1768,-2143,1
6239,1771,-1971,1
6585,1620,-1696,1
6812,1487,-1333,1
6711,1317,-1088,1
6301,1227,-918,1
5727,1270,-821,1
5201,1294,-827,1
4792,1298,-852,1
4513,1291,-913,1
4410,1266,-1040,1
4441,1309,-1170,1
4671,1375,-1273,1
4980,1479,-1354,1
5296,1521,-1404,1
5584,1509,-1392,1
5709,1591,-1378,1
5764,1669,-1232,1
5735,1748,-1073,1
5694,1815,-858,1
5619,1922,-635,1
5505,2016,-456,1
5354,2088,-334,1
5174,2123,-272,1
4998,2089,-249,1
4921,2003,-266,1
4875,1882,-378,1
4822,1778,-487,1
4793,1697,-546,1
4755,1624,-552,1
4665,1564,-523,1
4501,1531,-461,1
4356,1438,-419,1
4234,1300,-417,1
4163,1108,-456,1
4085,928,-514,1
3978,788,-566,1
3883,660,-604,1
3781,594,-599,1
3675,514,-610,1
3448,412,-615,1
3213,332,-586,1
3040,256,-558,1
2886,185,-535,1
2744,77,-543,1
2612,8,-541,1
2513,-12,-508,1
2411,-12,-488,1
2288,-1,-498,1
2184,75,-505,1
2139,110,-513,1
2117,106,-516,1
2104,100,-479,1
2106,85,-449,1
2148,94,-420,1
2213,108,-402,1
2315,130,-379,1
2421,163,-368,1
2533,193,-362,1
2639,229,-343,1
2736,286,-322,1
2814,319,-303,1
2870,331,-303,1
2897,349,-319,1
2956,383,-311,1
3064,376,-287,1
3167,314,-288,1
3223,219,-304,1
3251,132,-315,1
3293,58,-323,1
3334,-30,-349,1
3389,-63,-366,1
3440,-80,-395,1
3475,-100,-411,1
3513,-117,-411,1
3559,-134,-390,1
3629,-155,-348,1
3708,-156,-280,1
3809,-139,-180,1
3897,-90,-107,1
3978,-45,-57,1
4041,-2,-30,1
4096,37,-10,1
4158,79,6,1
4216,108,17,1
4292,134,30,1
4382,170,28,1
4485,204,22,1
4595,252,16,1
4740,283,12,1
4893,289,15,1
5021,259,3,1
5117,217,-21,1
5174,180,-45,1
5223,138,-59,1
5272,95,-44,1
5287,76,3,1
5284,92,74,1
5281,127,147,1
5284,166,183,1
5278,246,186,1
5289,341,180,1
5304,440,163,1
5306,523,119,1
5279,598,59,1
5263,685,29,1
5255,779,48,1
5256,890,125,1
5267,1029,232,1
5287,1167,321,1
5277,1231,339,1
5204,1211,292,1
5085,1116,194,1
4983,945,45,1
4879,723,-149,1
4784,518,-345,1
4688,347,-545,1
4583,236,-735,1
4441,168,-922,1
4279,136,-1079,1
4121,133,-1225,1
3958,148,-1376,1
3774,226,-1513,1
3615,342,-1610,1
3461,479,-1648,1
3328,649,-1608,1
3236,830,-1519,1
3183,1050,-1389,1
3162,1287,-1219,1
3209,1521,-1031,1
3286,1748,-867,1
3404,1950,-718,1
3570,2075,-640,1
3808,2170,-579,1
4097,2232,-514,1
4448,2237,-431,1
4805,2188,-347,1
5091,2102,-270,1
5311,1971,-230,1
5432,1803,-196,1
5439,1627,-178,1
5355,1431,-198,1
5233,1229,-223,1
5157,1032,-250,1
5123,822,-301,1
5112,633,-367,1
5102,441,-446,1
5093,272,-520,1
5066,126,-602,1
5026,-5,-679,1
4964,-93,-734,1
4904,-132,-745,1
4819,-157,-748,1
4724,-152,-716,1
4629,-113,-676,1
4542,-33,-615,1
4452,56,-569,1
4357,153,-520,1
4240,250,-467,1
4140,356,-413,1
4045,475,-372,1
3963,571,-334,1
3872,661,-303,1
3770,752,-267,1
3659,826,-220,1
3553,894,-164,1
3436,989,-99,1
3332,1093,-41,1
3246,1189,14,1
3173,1235,40,1
3079,1254,39,1
3002,1302,84,1
2956,1361,149,1
2928,1396,174,1
2916,1374,159,1
2888,1294,103,1
2856,1236,62,1
2815,1228,32,1
2777,1220,-2,1
2757,1190,-26,1
2759,1162,-11,1
2747,1105,-15,1
2728,1035,-16,1
2703,951,-14,1
2692,873,2,1
2722,802,43,1
2769,738,97,1
2815,664,130,1
2863,597,155,1
2897,539,176,1
2923,471,184,1
2950,417,192,1
2960,380,207,1
2989,345,245,1
3041,331,285,1
3078,315,324,1
3100,302,379,1
3108,286,444,1
3114,277,514,1
3113,282,568,1
3124,278,621,1
3160,268,680,1
3210,266,747,1
3253,250,795,1
3302,209,834,1
3360,155,864,1
3414,93,901,1
3471,36,948,1
3511,9,970,1
3521,-1,913,1
3510,31,740,1
3495,107,450,1
3501,239,185,1
3567,379,55,1
3660,488,17,1
3742,571,10,1
3797,613,39,1
3830,590,100,1
3847,520,128,1
3860,456,98,1
3900,410,82,1
3995,358,121,1
4144,298,253,1
4326,229,474,1
4497,143,758,1
4646,54,1030,1
4765,-27,1273,1
4871,-103,1440,1
4958,-173,1549,1
5016,-229,1606,1
5046,-263,1642,1
5061,-282,1676,1
5070,-302,1703,1
5088,-292,1693,1
5127,-267,1627,1
5187,-207,1488,1
5264,-114,1287,1
5350,-4,1043,1
5428,105,805,1
5465,211,583,1
5429,349,371,1
5350,527,171,1
5261,768,-24,1
5213,1051,-238,1
5232,1347,-424,1
5324,1616,-595,1
5480,1821,-776,1
5640,1980,-919,1
5783,2062,-952,1
5885,2079,-835,1
5904,2009,-578,1
5767,1839,-261,1
5432,1676,19,1
4942,1554,196,1
4420,1449,253,1
3918,1347,180,1
3471,1236,51,1
3191,1084,-51,1
3049,867,-162,1
2974,622,-307,1
2922,436,-478,1
2904,285,-697,1
2952,173,-906,1
3056,107,-1062,1
3225,54,-1185,1
3423,23,-1251,1
3644,10,-1280,1
3844,20,-1276,1
4037,77,-1257,1
4223,158,-1249,1
4380,284,-1233,1
4517,434,-1197,1
4646,645,-1157,1
4784,846,-1091,1
4888,1042,-1000,1
4948,1223,-888,1
4952,1422,-759,1
4944,1616,-620,1
4919,1778,-488,1
4886,1920,-345,1
4849,2029,-224,1
4802,2073,-121,1
4734,2059,-35,1
4634,2005,27,1
4506,1912,60,1
4373,1801,62,1
4218,1673,48,1
4053,1529,28,1
3883,1376,8,1
3693,1248,-7,1
3498,1164,0,1
3283,1058,3,1
3031,951,26,1
2891,817,6,1
2846,626,-59,1
2823,467,-132,1
2823,317,-204,1
2829,199,-255,1
2841,84,-297,1
2868,-37,-337,1
2948,-133,-361,1
3018,-190,-407,1
3035,-217,-450,1
3013,-246,-471,1
3025,-273,-480,1
3121,-289,-475,1
3233,-260,-464,1
3298,-236,-480,1
3314,-206,-466,1
3348,-180,-401,1
3417,-168,-307,1
3484,-175,-226,1
3535,-185,-185,1
3573,-187,-161,1
3588,-190,-132,1
3583,-190,-102,1
3574,-176,-92,1
3574,-158,-93,1
3592,-117,-75,1
3619,-69,-67,1
3665,-25,-49,1
3714,28,-21,1
3761,77,2,1
3808,123,29,1
3858,172,64,1
3911,219,102,1
3963,267,141,1
4019,316,180,1
4060,359,221,1
4090,399,257,1
4100,432,279,1
4102,457,308,1
4102,478,339,1
4103,485,389,1
4102,484,449,1
4101,486,508,1
4096,481,547,1
4086,463,577,1
4061,431,537,1
4035,371,489,1
4015,296,465,1
4000,200,388,1
3990,112,250,1
3998,58,100,1
4015,44,-48,1
4029,49,-178,1
4065,86,-255,1
4104,127,-311,1
4127,179,-381,1
4152,247,-423,1
4177,316,-437,1
4209,375,-436,1
4241,417,-414,1
4274,442,-389,1
4302,465,-337,1
4337,499,-264,1
4383,556,-170,1
4434,644,-64,1
4495,774,59,1
4559,922,169,1
4638,1096,274,1
4712,1248,349,1
4782,1345,363,1
4817,1395,312,1
4821,1418,195,1
4800,1468,55,1
4755,1544,-148,1
4712,1655,-391,1
4713,1813,-625,1
4801,1958,-809,1
4946,2051,-991,1
5105,2091,-1217,1
5254,2084,-1448,1
5377,2050,-1600,1
5440,1983,-1714,1
5427,1863,-1803,1
5308,1726,-1823,1
5113,1567,-1759,1
4837,1412,-1644,1
4502,1269,-1528,1
4165,1152,-1460,1
3873,1111,-1382,1
3629,1208,-1272,1
3478,1370,-1157,1
3400,1597,-1031,1
3392,1835,-921,1
3445,2071,-827,1
3567,2309,-745,1
3771,2507,-669,1
4000,2638,-643,1
4218,2784,-574,1
4441,2883,-478,1
4645,2892,-406,1
4757,2900,-343,1
4759,2850,-309,1
4693,2711,-303,1
4638,2499,-328,1
4604,2250,-393,1
4606,1983,-470,1
4613,1723,-544,1
4653,1487,-622,1
4707,1262,-703,1
4773,1065,-783,1
4838,864,-864,1
4875,666,-960,1
4905,515,-1010,1
4915,413,-1038,1
4919,345,-1044,1
4894,286,-1015,1
4818,250,-988,1
4701,257,-950,1
4562,293,-889,1
4406,357,-810,1
4257,439,-719,1
4114,516,-637,1
3967,599,-561,1
3845,660,-497,1
3718,704,-421,1
3594,714,-346,1
3459,695,-291,1
3323,668,-244,1
3204,651,-195,1
3101,639,-161,1
3023,622,-152,1
2957,601,-139,1
2906,579,-120,1
2858,552,-93,1
2779,541,-54,1
2707,546,-6,1
2691,558,55,1
2688,565,93,1
2681,565,124,1
2673,554,157,1
2672,562,214,1
2728,585,273,1
2797,607,312,1
2836,612,329,1
2864,611,341,1
2889,612,354,1
2919,597,360,1
2949,583,370,1
2984,545,372,1
3025,510,381,1
3064,474,400,1
3096,419,420,1
3130,365,448,1
3159,309,477,1
3183,257,509,1
3213,222,552,1
3239,199,593,1
3259,190,626,1
3269,191,658,1
3283,203,692,1
3296,217,733,1
3312,236,777,1
3336,256,807,1
3356,282,827,1
3383,305,845,1
3407,325,841,1
3428,342,820,1
3452,360,791,1
3477,390,760,1
3508,426,723,1
3535,476,649,1
3539,562,536,1
3552,651,432,1
3573,738,325,1
3609,814,207,1
3648,868,98,1
3681,893,48,1
3724,896,100,1
3773,881,260,1
3825,850,470,1
3881,798,686,1
3952,723,892,1
4037,607,1014,1
4136,462,1086,1
4260,311,1096,1
4390,133,1088,1
4518,-20,1105,1
4647,-152,1167,1
4805,-250,1275,1
4980,-327,1421,1
5123,-370,1579,1
5231,-363,1724,1
5281,-318,1783,1
5295,-257,1761,1
5275,-183,1641,1
5227,-79,1403,1
5171,76,1087,1
5123,273,788,1
5104,458,577,1
5105,618,491,1
5111,762,471,1
5112,879,454,1
5116,927,380,1
5133,944,290,1
5172,953,164,1
5225,957,7,1
5285,969,-125,1
5348,997,-193,1
5421,1051,-199,1
5455,1121,-199,1
5454,1202,-211,1
5426,1282,-253,1
5352,1338,-330,1
5224,1401,-411,1
5031,1452,-517,1
4761,1468,-626,1
4446,1445,-721,1
4120,1398,-776,1
3806,1348,-790,1
3486,1293,-784,1
3147,1234,-763,1
2860,1201,-752,1
2630,1182,-781,1
2470,1151,-852,1
2382,1102,-944,1
2324,1047,-1026,1
2314,984,-1088,1
2349,918,-1131,1
2420,850,-1139,1
2541,786,-1087,1
2700,723,-999,1
2896,670,-900,1
3126,641,-823,1
3383,636,-754,1
3671,665,-696,1
3958,716,-634,1
4246,792,-575,1
4528,898,-511,1
4789,1013,-448,1
5012,1128,-384,1
5178,1242,-328,1
5281,1339,-305,1
5333,1403,-306,1
5314,1413,-324,1
5231,1364,-346,1
5104,1272,-376,1
4960,1163,-415,1
4811,1048,-465,1
4661,936,-519,1
4523,833,-558,1
4399,741,-586,1
4301,670,-602,1
4217,619,-609,1
4142,574,-611,1
4055,544,-613,1
3983,523,-626,1
3918,526,-631,1
3854,512,-638,1
3788,517,-648,1
3737,517,-667,1
3710,516,-692,1
3695,489,-731,1
3705,463,-762,1
3726,441,-751,1
3756,411,-711,1
3775,356,-664,1
3795,282,-595,1
3817,192,-527,1
3857,116,-458,1
3899,28,-398,1
3933,-54,-345,1
3969,-128,-309,1
4002,-193,-284,1
4014,-238,-256,1
4017,-280,-229,1
4016,-326,-216,1
4008,-364,-213,1
3985,-401,-218,1
3954,-436,-222,1
3918,-477,-230,1
3885,-510,-243,1
3853,-528,-246,1
3823,-554,-220,1
3795,-582,-192,1
3780,-599,-154,1
3769,-600,-123,1
3767,-584,-87,1
3778,-562,-43,1
3796,-543,6,1
3822,-518,53,1
3846,-496,91,1
3881,-468,138,1
3921,-438,189,1
3958,-411,241,1
4001,-387,280,1
4036,-378,310,1
4061,-370,329,1
4077,-371,335,1
4088,-367,325,1
4100,-351,313,1
4106,-328,302,1
4111,-311,296,1
4120,-307,301,1
4127,-314,308,1
4133,-349,296,1
4141,-372,300,1
4145,-396,290,1
4143,-411,262,1
4135,-409,209,1
4126,-395,123,1
4118,-363,25,1
4114,-319,-51,1
4123,-276,-107,1
4138,-232,-141,1
4157,-179,-157,1
4181,-123,-157,1
4203,-76,-143,1
4227,-47,-134,1
4247,-46,-140,1
4277,-51,-147,1
4308,-54,-146,1
4345,-47,-137,1
4390,-20,-102,1
4448,25,-43,1
4500,70,25,1
4542,127,115,1
4563,170,172,1
4559,195,180,1
4535,241,152,1
4501,320,117,1
4478,446,111,1
4483,599,143,1
4491,758,177,1
4490,900,193,1
4481,1043,191,1
4469,1192,177,1
4465,1364,150,1
4482,1555,107,1
4513,1773,66,1
4549,1972,38,1
4598,2126,11,1
4669,2224,0,1
4741,2267,-22,1
4811,2219,-96,1
4851,2104,-238,1
4863,1930,-431,1
4861,1704,-620,1
4844,1465,-785,1
4828,1253,-916,1
4826,1077,-1035,1
4847,950,-1132,1
4850,867,-1174,1
4840,835,-1162,1
4769,834,-1177,1
4629,860,-1214,1
4452,886,-1280,1
4278,852,-1377,1
4190,732,-1476,1
4075,689,-1605,1
3903,753,-1680,1
3760,824,-1696,1
3642,905,-1663,1
3529,999,-1593,1
3432,1120,-1474,1
3364,1264,-1313,1
3313,1396,-1123,1
3251,1538,-915,1
3200,1699,-705,1
3181,1819,-530,1
3195,1912,-390,1
3248,1978,-294,1
3326,1996,-234,1
3422,1971,-199,1
3535,1921,-190,1
3662,1857,-205,1
3782,1783,-252,1
3889,1691,-317,1
3989,1573,-384,1
4067,1441,-453,1
4150,1300,-514,1
4226,1147,-564,1
4279,996,-617,1
4324,867,-664,1
4374,744,-693,1
4426,645,-696,1
4472,574,-675,1
4500,536,-653,1
4528,526,-629,1
4522,547,-610,1
4481,591,-587,1
4430,629,-571,1
4372,684,-547,1
4308,724,-498,1
4234,760,-457,1
4157,789,-445,1
4066,835,-422,1
3980,875,-379,1
3901,905,-326,1
3823,926,-273,1
3745,924,-230,1
3675,930,-189,1
3600,900,-145,1
3521,857,-104,1
3446,823,-67,1
3377,790,-37,1
3322,766,-14,1
3279,737,9,1
3262,709,39,1
3270,680,66,1
3276,664,90,1
3282,643,107,1
3292,634,127,1
3307,614,144,1
3321,603,157,1
3314,593,156,1
3296,575,144,1
3276,556,141,1
3262,546,143,1
3251,526,162,1
3248,517,203,1
3259,509,238,1
3267,519,292,1
3269,532,337,1
3260,541,384,1
3251,567,428,1
3235,595,465,1
3235,619,500,1
3248,636,544,1
3260,661,600,1
3269,686,646,1
3275,699,657,1
3281,717,638,1
3295,741,612,1
3319,762,611,1
3353,755,638,1
3379,742,684,1
3410,714,721,1
3434,668,744,1
3456,631,776,1
3475,589,807,1
3487,537,836,1
3497,472,844,1
3504,407,832,1
3513,335,805,1
3512,267,766,1
3518,213,749,1
3526,157,725,1
3536,99,684,1
3545,44,630,1
3541,-1,566,1
3530,-46,505,1
3523,-70,458,1
3526,-82,412,1
3552,-80,376,1
3602,-39,355,1
3667,23,350,1
3759,107,383,1
3869,201,443,1
3983,279,529,1
4093,356,633,1
4199,421,772,1
4319,502,916,1
4448,548,1088,1
4567,579,1269,1
4675,572,1444,1
4794,534,1611,1
4917,495,1740,1
5027,480,1816,1
5109,485,1821,1
5207,503,1827,1
5300,479,1824,1
5380,476,1824,1
5467,458,1782,1
5536,429,1725,1
5613,362,1634,1
5730,282,1528,1
5839,172,1422,1
5926,84,1320,1
6030,20,1236,1
6079,14,1174,1
6138,62,1121,1
6198,143,1061,1
6249,289,990,1
6292,479,882,1
6300,691,750,1
6269,931,613,1
6133,1150,464,1
5901,1339,356,1
5533,1520,278,1
5085,1732,242,1
4624,1928,186,1
4251,2043,140,1
3956,2074,106,1
3722,2056,126,1
3535,2014,192,1
3385,1951,257,1
3221,1889,289,1
3109,1812,297,1
3081,1719,288,1
3071,1619,255,1
3070,1504,201,1
3084,1374,118,1
3099,1269,29,1
3111,1188,-53,1
3128,1113,-163,1
3143,1022,-290,1
3154,913,-431,1
3163,791,-558,1
3162,658,-677,1
3165,528,-801,1
3173,414,-922,1
3184,330,-1032,1
3232,274,-1101,1
3309,254,-1149,1
3418,273,-1169,1
3559,299,-1171,1
3736,358,-1134,1
3925,401,-1090,1
4143,446,-1018,1
4371,507,-932,1
4500,578,-857,1
4552,648,-780,1
4583,705,-699,1
4567,738,-660,1
4500,756,-589,1
4428,824,-513,1
4339,832,-475,1
4215,861,-411,1
4096,862,-355,1
3988,903,-245,1
3917,891,-162,1
3838,856,-101,1
3805,836,-33,1
3799,781,-18,1
3814,747,-20,1
3817,719,-34,1
3802,685,-83,1
3781,652,-139,1
3751,603,-178,1
3724,561,-201,1
3708,515,-214,1
3688,471,-217,1
3660,431,-227,1
3614,419,-231,1
3595,444,-231,1
3607,447,-243,1
3620,417,-265,1
3607,363,-282,1
3604,327,-272,1
3597,308,-261,1
3602,284,-253,1
3597,265,-243,1
3596,253,-239,1
3588,234,-231,1
3572,236,-185,1
3552,201,-177,1
3558,153,-162,1
3593,107,-144,1
3651,78,-146,1
3719,69,-153,1
3767,77,-148,1
3802,74,-136,1
3826,78,-107,1
3845,86,-79,1
3832,79,-53,1
3848,50,-27,1
3875,27,-13,1
3882,20,-7,1
3883,30,14,1
3896,40,43,1
3917,40,58,1
3922,41,44,1
3926,54,28,1
3922,70,19,1
3914,76,22,1
3904,78,20,1
3881,68,0,1
3863,45,-11,1
3840,29,-17,1
3824,19,-22,1
3810,24,-16,1
3805,24,-8,1
3810,11,1,1
3830,6,16,1
3853,18,36,1
3870,41,48,1
3886,56,72,1
3897,62,70,1
3912,91,79,1
3927,124,111,1
3928,161,150,1
3927,196,166,1
3919,237,161,1
3904,277,152,1
3884,312,145,1
3868,341,144,1
3857,381,147,1
3849,427,152,1
3852,474,139,1
3853,517,101,1
3852,546,31,1
3860,564,-54,1
3883,573,-143,1
3917,567,-223,1
3962,537,-286,1
4018,475,-336,1
4071,385,-375,1
4132,277,-411,1
4203,156,-424,1
4293,54,-409,1
4403,-33,-369,1
4534,-73,-304,1
4664,-79,-265,1
4790,-61,-259,1
4941,-32,-276,1
5114,13,-316,1
5276,100,-342,1
5350,227,-329,1
5370,379,-294,1
5395,570,-249,1
5441,764,-226,1
5489,957,-211,1
5528,1117,-242,1
5550,1230,-324,1
5551,1305,-443,1
5539,1352,-578,1
5522,1369,-703,1
5502,1378,-805,1
5486,1359,-895,1
5466,1333,-945,1
5440,1282,-977,1
5407,1221,-980,1
5351,1160,-982,1
5266,1098,-1018,1
5182,1052,-991,1
5065,998,-977,1
4919,967,-1106,1
4734,971,-1268,1
4522,1012,-1361,1
4310,1083,-1393,1
4100,1151,-1416,1
3891,1237,-1430,1
3693,1338,-1433,1
3518,1461,-1377,1
3376,1589,-1293,1
3267,1724,-1162,1
3200,1878,-1031,1
3183,2041,-883,1
3208,2188,-723,1
3281,2320,-561,1
3382,2423,-411,1
3528,2483,-249,1
3695,2493,-98,1
3846,2462,24,1
3941,2408,134,1
4022,2341,204,1
4092,2240,218,1
4175,2116,189,1
4239,1965,120,1
4308,1799,37,1
4360,1628,-44,1
4395,1455,-126,1
4415,1282,-215,1
4416,1128,-323,1
4409,997,-421,1
4407,893,-506,1
4421,822,-578,1
4431,775,-630,1
4437,751,-669,1
4444,734,-692,1
4432,711,-697,1
4403,698,-686,1
4350,689,-649,1
4274,676,-612,1
4184,663,-579,1
4092,655,-551,1
4004,651,-524,1
3916,642,-500,1
3823,633,-477,1
3724,631,-439,1
3610,621,-389,1
3476,633,-338,1
3328,673,-275,1
3212,729,-223,1
3111,786,-200,1
3041,822,-168,1
2991,860,-131,1
2941,877,-89,1
2899,897,-40,1
2857,932,13,1
2809,984,58,1
2767,1040,102,1
2719,1077,149,1
2679,1100,194,1
2671,1112,232,1
2672,1140,275,1
2683,1152,306,1
2705,1136,317,1
2745,1103,308,1
2784,1063,299,1
2818,1009,278,1
2854,962,265,1
2893,932,248,1
2929,899,234,1
2962,882,219,1
2993,875,206,1
3024,871,199,1
3053,856,201,1
3075,825,214,1
3105,782,231,1
3129,744,253,1
3154,715,280,1
3162,700,304,1
3170,690,331,1
3178,685,365,1
3194,679,416,1
3225,664,480,1
3263,652,561,1
3301,628,648,1
3334,599,741,1
3384,562,835,1
3431,507,908,1
3477,443,956,1
3516,382,966,1
3536,322,938,1
3550,258,896,1
3550,221,804,1
3553,209,717,1
3556,200,626,1
3588,185,552,1
3629,171,504,1
3672,164,449,1
3705,173,382,1
3718,196,306,1
3735,235,211,1
3769,295,124,1
3836,376,122,1
3911,448,184,1
