accelerometer_x,accelerometer_y,accelerometer_z,fall
6252,2803,874,1
6611,2494,1319,1
6938,2066,1296,1
7164,1578,1108,1
7347,875,1066,1
7539,95,1014,1
7754,-671,991,1
7924,-1459,687,1
7720,-1735,506,1
7522,-2229,551,1
7422,-2841,572,1
7297,-3066,550,1
7223,-3724,303,1
7148,-4235,158,1
7042,-4784,51,1
6746,-5103,-226,1
6315,-5172,-530,1
5924,-4224,-400,1
5507,-2932,-168,1
4884,-1377,60,1
4390,-88,553,1
4229,706,1362,1
4253,1219,2167,1
4181,1757,2565,1
3982,2392,2435,1
3811,2222,1848,1
3749,1852,1582,1
3744,1670,1542,1
3671,1788,1614,1
3374,2133,1514,1
3001,2389,1447,1
2791,2384,1593,1
2581,2584,1830,1
2323,2724,1839,1
2084,2934,1856,1
1909,2875,1769,1
1856,2363,1661,1
1805,1822,1465,1
1718,1179,1134,1
1558,608,729,1
1370,179,427,1
1144,-76,78,1
931,-226,-260,1
763,-391,-505,1
667,-505,-610,1
555,-556,-624,1
455,-634,-554,1
346,-749,-408,1
269,-807,-170,1
265,-803,125,1
148,-870,270,1
-96,-938,293,1
-298,-867,221,1
-477,-789,-22,1
-733,-817,-303,1
-780,-732,-385,1
-759,-707,-533,1
-690,-663,-697,1
-565,-661,-827,1
-348,-622,-745,1
-52,-587,-486,1
364,-492,-155,1
890,-341,106,1
1466,2,164,1
1855,539,-93,1
2144,1059,-563,1
2385,1537,-1111,1
2639,1916,-1563,1
2937,2073,-1721,1
3394,1829,-1611,1
4206,1515,-948,1
5503,1304,369,1
7128,1475,2039,1
8597,1932,2904,1
9633,2161,2587,1
10388,1994,1852,1
10800,1767,1120,1
10639,1047,149,1
10042,78,-876,1
9509,-828,-1126,1
8752,-2025,-1304,1
8005,-2628,-1262,1
6951,-2572,-1170,1
5930,-1997,-821,1
4995,-1002,-282,1
4129,-215,38,1
3350,400,97,1
2834,852,131,1
2611,1234,244,1
2682,1464,368,1
3002,1579,401,1
3503,1753,297,1
4074,2172,225,1
4828,2710,387,1
5603,3058,540,1
6372,3150,581,1
7057,3214,613,1
7583,3436,767,1
7976,3629,1083,1
8183,3606,1268,1
8225,3143,1168,1
7965,3019,1013,1
7695,2465,874,1
7574,737,83,1
7415,-334,-357,1
7141,-617,-416,1
6967,-841,-276,1
6862,-1534,-331,1
6729,-2132,-402,1
6534,-2174,-213,1
6118,-1599,160,1
5367,-659,690,1
4539,-36,1110,1
3792,323,1196,1
3177,424,972,1
2919,295,584,1
3006,-25,219,1
3512,-487,128,1
3689,-537,74,1
2989,190,347,1
1954,1294,978,1
1218,1775,964,1
1025,1584,622,1
1166,1322,371,1
1594,1001,297,1
2176,647,262,1
2807,31,207,1
3207,-117,322,1
3500,-217,269,1
3610,-102,281,1
3549,25,265,1
3351,308,279,1
3162,620,221,1
3054,695,100,1
2933,813,59,1
2794,905,40,1
2694,957,-89,1
2620,946,-205,1
2545,869,-174,1
2397,745,-183,1
2150,676,-168,1
1869,662,-156,1
1595,589,-144,1
1337,442,-150,1
1080,287,-188,1
770,126,-236,1
431,57,-285,1
167,-61,-315,1
8,-152,-439,1
-100,-203,-468,1
-172,-181,-397,1
-228,-154,-327,1
-259,-91,-248,1
-263,-7,-218,1
-270,69,-325,1
-246,174,-458,1
-123,352,-559,1
62,443,-748,1
401,613,-871,1
894,900,-777,1
1462,1167,-458,1
2185,1536,72,1
2879,1822,560,1
3562,2095,975,1
4372,2359,1463,1
5196,2583,1897,1
6013,2776,2046,1
6746,2914,1891,1
7448,3033,1717,1
8054,2988,1462,1
8622,2779,1212,1
9179,2467,1004,1
9704,1999,856,1
10119,1409,785,1
10204,692,631,1
9951,228,405,1
9460,179,184,1
8961,379,-20,1
8483,303,-428,1
8227,213,144,1
7910,316,1100,1
7503,552,1991,1
7100,537,2408,1
6957,114,2388,1
6887,-452,1898,1
6772,-1056,1390,1
6617,-1841,752,1
6393,-2334,307,1
6210,-2707,-24,1
6028,-2737,-84,1
5759,-2368,-57,1
5472,-1308,198,1
5308,49,735,1
5446,1087,1417,1
5816,1503,1941,1
6072,1968,2218,1
6098,1933,1853,1
6062,1064,1230,1
6064,121,836,1
5975,-436,502,1
5752,-436,197,1
5427,-204,41,1
5144,65,240,1
4776,586,470,1
4328,1751,941,1
4159,2538,1685,1
3966,3330,2172,1
3795,3415,2245,1
3603,2975,2051,1
3301,2625,1684,1
3133,1472,1007,1
2891,862,686,1
2596,624,551,1
2340,645,634,1
2132,553,691,1
1905,667,887,1
1831,549,991,1
1850,252,913,1
1887,7,748,1
1886,-220,500,1
1804,-418,266,1
1664,-559,59,1
1501,-641,-93,1
1315,-653,-155,1
1150,-629,-128,1
1003,-536,-42,1
861,-425,83,1
706,-278,187,1
533,-132,249,1
350,7,277,1
192,142,286,1
61,222,250,1
-25,240,191,1
-66,234,117,1
-14,255,92,1
100,274,39,1
254,225,-27,1
448,86,-48,1
676,-91,-32,1
906,-315,53,1
1086,-526,148,1
1119,-677,181,1
1054,-831,185,1
919,-939,150,1
823,-911,198,1
793,-836,239,1
811,-689,250,1
853,-401,199,1
873,44,-108,1
1021,586,-527,1
1408,1064,-843,1
1962,1489,-1122,1
2592,1795,-1367,1
3471,1894,-1155,1
4594,2001,-620,1
5889,2207,-142,1
7267,2218,85,1
8548,2010,83,1
9387,1909,-110,1
9610,1848,-340,1
9297,1752,-641,1
8792,1575,-822,1
8438,1146,-638,1
8249,736,-146,1
8119,233,364,1
7905,52,1074,1
7284,-193,1183,1
6462,-576,736,1
5782,-1218,436,1
5239,-1939,354,1
4816,-2228,621,1
4441,-2095,711,1
4270,-1735,780,1
4327,-1404,934,1
4760,-1203,1214,1
5355,-966,1498,1
6119,-705,1633,1
6903,-230,1542,1
7523,325,1494,1
7938,821,1548,1
8055,1328,1677,1
7961,1639,1756,1
7702,2113,1802,1
7451,2574,2061,1
7078,2543,1965,1
6506,2482,1661,1
6164,1532,1406,1
5722,1166,1492,1
5013,1517,1641,1
4477,1399,1429,1
4053,932,781,1
3719,1486,1101,1
3978,155,389,1
4298,-1275,-559,1
4400,-1470,-293,1
4683,-1479,68,1
4934,-1406,201,1
5565,-2204,-384,1
5492,-1716,-857,1
4948,17,206,1
4550,746,812,1
4349,929,651,1
4417,950,424,1
4780,569,372,1
5253,-86,369,1
5652,-536,483,1
5920,-706,640,1
5972,-628,790,1
5751,-211,920,1
5383,178,1048,1
4985,462,1209,1
4455,599,1275,1
3942,742,1375,1
3492,860,1445,1
3038,879,1460,1
2650,911,1552,1
2351,826,1516,1
2008,829,1467,1
1706,821,1390,1
1519,742,1291,1
1217,894,1044,1
976,1018,888,1
742,1087,554,1
605,914,238,1
626,720,14,1
823,277,-225,1
1090,-278,-295,1
1346,-720,-397,1
1397,-722,-296,1
1352,-664,-243,1
1290,-673,-199,1
1180,-665,-63,1
1053,-644,-206,1
942,-520,34,1
915,-402,210,1
775,-292,221,1
675,-177,340,1
697,-108,411,1
655,55,375,1
663,108,293,1
673,123,166,1
655,100,-15,1
598,40,-309,1
524,-15,-666,1
425,-119,-1111,1
372,-208,-1561,1
469,-215,-1853,1
728,-107,-1929,1
1123,137,-1773,1
1679,402,-1408,1
2345,716,-937,1
3089,1147,-383,1
3797,1621,17,1
4419,2098,196,1
4981,2572,231,1
5561,3040,198,1
6171,3402,189,1
6876,3686,314,1
7594,3907,595,1
8268,4072,896,1
8790,4095,1057,1
9119,3973,1148,1
9191,3787,1081,1
9109,3565,916,1
8892,3325,753,1
8631,3023,499,1
8437,2603,272,1
8415,2134,216,1
8393,1713,154,1
8343,1235,252,1
8343,679,478,1
8362,138,683,1
8317,-455,766,1
8339,-1084,770,1
8310,-1542,633,1
8255,-1932,459,1
8091,-2072,297,1
7898,-2375,168,1
7630,-2591,206,1
7303,-2808,189,1
6975,-3316,-57,1
6566,-3493,-330,1
6212,-3238,-275,1
5984,-2791,37,1
5892,-1912,610,1
5779,-706,1131,1
5696,75,1488,1
5549,739,1624,1
5297,1453,1558,1
5026,2099,1670,1
4876,2363,1923,1
4644,2654,2056,1
4378,2378,1779,1
4154,1675,1438,1
3959,1013,1113,1
3830,538,901,1
3758,314,863,1
3655,397,899,1
3523,512,895,1
3341,557,804,1
3122,787,891,1
3000,797,1025,1
2943,551,1075,1
2863,476,1101,1
2787,528,1176,1
2758,625,1325,1
2627,725,1257,1
2544,706,1282,1
2503,515,1214,1
2477,296,1055,1
2380,-52,812,1
2365,-440,607,1
2249,-676,379,1
2046,-826,189,1
1839,-903,135,1
1565,-900,88,1
1221,-731,82,1
884,-578,157,1
571,-565,198,1
362,-646,254,1
157,-704,247,1
-122,-676,159,1
-306,-715,188,1
-398,-777,291,1
-491,-784,372,1
-512,-807,469,1
-513,-856,480,1
-528,-917,446,1
-547,-947,379,1
-554,-948,241,1
-568,-932,-28,1
-608,-875,-413,1
-521,-821,-676,1
-245,-737,-673,1
178,-615,-456,1
601,-394,-256,1
1002,-103,-151,1
1453,259,-60,1
2021,652,69,1
2711,1207,276,1
3507,1607,431,1
4407,1972,595,1
5382,2221,623,1
6483,2455,645,1
7593,2459,440,1
8364,2470,-213,1
8764,2570,-1043,1
8775,2921,-1750,1
8490,3429,-1994,1
8328,3134,-1950,1
8413,1624,-1782,1
8572,526,-1201,1
8651,-394,-302,1
8573,-1512,183,1
7971,-1656,481,1
6983,-1510,706,1
5987,-2135,267,1
5047,-2724,-387,1
4554,-2861,-215,1
4405,-2584,165,1
4401,-2034,378,1
4549,-1282,588,1
4853,-520,897,1
5330,86,1208,1
5887,466,1391,1
6408,709,1471,1
6771,1042,1539,1
7029,1304,1656,1
7322,1146,1572,1
7503,954,1323,1
7707,487,1046,1
7843,175,765,1
7869,273,678,1
7742,584,793,1
7425,893,946,1
7028,1101,1025,1
6412,1411,1091,1
5507,2078,1065,1
4549,2930,1096,1
4091,2893,1296,1
4185,2322,987,1
4287,1362,299,1
4263,888,28,1
4431,153,78,1
4632,-930,197,1
4705,-1224,236,1
3943,-222,-45,1
3446,765,-70,1
3469,780,264,1
3894,1005,466,1
3617,1790,328,1
3243,1142,309,1
3280,105,535,1
4293,-1436,241,1
4851,-2377,-585,1
4735,-2183,-592,1
4416,-1445,230,1
3892,-805,816,1
3331,-287,952,1
2792,101,751,1
2374,252,529,1
1920,332,431,1
1516,528,541,1
1211,605,531,1
906,623,294,1
677,746,155,1
662,835,85,1
756,863,83,1
841,922,210,1
1050,919,306,1
1255,848,216,1
1444,731,155,1
1510,593,160,1
1477,526,175,1
1379,463,185,1
1184,357,143,1
881,280,72,1
597,243,62,1
396,178,6,1
234,119,-88,1
119,70,-162,1
39,33,-231,1
-5,12,-247,1
-49,9,-213,1
-95,9,-154,1
-148,0,-121,1
-217,-40,-163,1
-288,-104,-309,1
-363,-170,-605,1
-391,-220,-1023,1
-291,-245,-1444,1
5,-259,-1717,1
490,-247,-1779,1
1135,-217,-1577,1
1903,-145,-1181,1
2766,-18,-737,1
3761,301,-213,1
4834,719,213,1
5996,1166,423,1
7105,1453,397,1
8103,1509,151,1
9040,1715,-197,1
10029,2253,-388,1
11019,2520,-454,1
11787,2719,-482,1
12104,2895,-379,1
12059,2446,-330,1
11617,2066,-188,1
10873,1852,-53,1
10022,1993,66,1
9280,2289,205,1
8731,2397,312,1
8273,2315,305,1
7874,2153,273,1
7585,1871,259,1
7385,1499,240,1
7270,968,206,1
7183,317,180,1
7135,-347,151,1
7132,-1060,63,1
7105,-1587,-15,1
7107,-2023,-6,1
7020,-2559,-78,1
6937,-3035,-89,1
6883,-3122,74,1
6841,-2916,265,1
6729,-2754,260,1
6630,-2635,212,1
6509,-2506,171,1
6396,-2148,268,1
6255,-1457,436,1
6181,-384,648,1
5847,1060,790,1
5416,2631,1186,1
4998,3785,1729,1
4828,3194,2031,1
4649,1998,2051,1
4313,1172,1603,1
4008,413,885,1
3648,348,556,1
3348,393,389,1
3077,492,441,1
2928,324,658,1
2733,232,883,1
2323,589,1081,1
1947,793,1203,1
1656,835,1366,1
1528,358,1233,1
1442,-318,883,1
1372,-905,469,1
1162,-1089,123,1
876,-1065,-113,1
659,-1171,-358,1
407,-1089,-496,1
163,-942,-489,1
-7,-817,-423,1
-158,-639,-270,1
-265,-476,56,1
-387,-229,497,1
-475,-64,947,1
-538,17,1296,1
-574,91,1409,1
-570,139,1254,1
-522,152,915,1
-460,170,448,1
-447,152,-156,1
-460,108,-705,1
-433,24,-1046,1
-320,-51,-1125,1
-108,-182,-1032,1
202,-354,-817,1
583,-487,-534,1
958,-542,-324,1
1294,-512,-192,1
1622,-421,-119,1
1883,-285,-214,1
2052,-123,-432,1
2241,69,-554,1
2511,330,-492,1
2835,611,-400,1
3273,860,-183,1
3703,1134,3,1
4317,1467,355,1
5112,1772,826,1
5846,2093,995,1
6390,2049,640,1
6831,1691,298,1
7166,1588,-235,1
7435,1420,-836,1
7770,1080,-918,1
8059,557,-904,1
8432,201,-776,1
8807,-14,-523,1
8792,-235,-640,1
8386,-553,-921,1
7709,-1115,-1271,1
7044,-1469,-1185,1
6504,-2137,-949,1
5907,-2426,-669,1
5218,-2256,-348,1
4602,-1807,97,1
4265,-1448,392,1
4549,-907,728,1
4878,-57,703,1
5112,635,722,1
5263,1283,848,1
5362,2016,1145,1
5493,2570,1421,1
5486,3337,1731,1
5536,3557,1770,1
5646,3255,1562,1
5542,3508,1566,1
5656,3798,1855,1
6000,2538,752,1
6264,1090,179,1
6413,190,74,1
6463,-251,-69,1
6436,-489,-192,1
6583,-1226,-185,1
6195,-665,-255,1
4961,1542,505,1
4438,2557,966,1
4406,2577,759,1
4639,2100,423,1
4687,1665,500,1
5142,107,500,1
5223,-570,-68,1
4961,45,-103,1
4878,360,539,1
5004,-499,721,1
4962,-1095,136,1
4551,-719,12,1
4372,-579,310,1
4315,-690,371,1
4218,-759,198,1
4001,-539,168,1
3771,-384,340,1
3441,-341,357,1
2954,-273,297,1
2501,-85,223,1
2035,77,348,1
1727,30,182,1
1395,-26,345,1
1135,-8,490,1
1037,-15,355,1
973,10,140,1
892,80,79,1
845,179,85,1
802,243,36,1
748,280,-30,1
727,359,-75,1
720,443,-126,1
704,457,-152,1
552,501,-142,1
303,522,-64,1
257,481,132,1
146,426,209,1
102,399,335,1
73,392,425,1
41,358,448,1
0,294,395,1
-49,220,308,1
-102,158,226,1
-91,133,149,1
-41,114,18,1
10,141,-190,1
66,140,-532,1
126,183,-1029,1
225,174,-1566,1
443,145,-2077,1
805,178,-2479,1
1374,441,-2533,1
2282,834,-1943,1
3400,1145,-1011,1
4616,1299,-320,1
5829,1477,-4,1
7128,1913,314,1
8398,2177,684,1
9447,2396,779,1
10236,2526,685,1
10915,2733,546,1
11346,3182,420,1
11630,3170,425,1
11508,3286,416,1
10845,3534,229,1
9877,3773,-59,1
8999,4004,-163,1
8265,4179,-175,1
7684,4299,-159,1
7222,4162,-81,1
6897,3817,43,1
6714,3285,142,1
6669,2685,185,1
6728,2025,239,1
6829,1463,368,1
7005,844,426,1
7203,347,447,1
7253,-69,286,1
7168,-383,222,1
7016,-922,96,1
6886,-1430,92,1
6764,-1908,38,1
6662,-2408,-74,1
6606,-2889,-196,1
6479,-3125,-393,1
6350,-3059,-462,1
6301,-2718,-284,1
6337,-2035,114,1
6387,-1019,559,1
6357,-123,800,1
6224,1100,1070,1
6075,2503,1516,1
5947,3208,1814,1
5830,2856,1894,1
5596,2099,1793,1
5210,1470,1492,1
4692,1113,1102,1
4173,817,731,1
3666,866,735,1
3121,1164,861,1
2563,1424,917,1
2069,1476,951,1
1621,1428,1008,1
1265,1271,1140,1
1010,927,1253,1
858,443,1337,1
772,45,1429,1
704,-281,1436,1
640,-543,1294,1
612,-724,1056,1
610,-826,784,1
577,-828,498,1
486,-800,189,1
334,-751,-132,1
161,-656,-359,1
0,-556,-454,1
-144,-430,-341,1
-224,-301,-79,1
-232,-256,194,1
-228,-270,329,1
-268,-304,295,1
-355,-327,99,1
-488,-346,-177,1
-645,-368,-421,1
-860,-348,-739,1
-1030,-350,-917,1
-1108,-373,-818,1
-1156,-421,-677,1
-1098,-447,-438,1
-883,-481,-100,1
-599,-466,118,1
-267,-384,163,1
85,-237,108,1
541,66,-99,1
1064,443,-472,1
1611,841,-952,1
2136,1154,-1383,1
2845,1414,-1282,1
3733,1762,-627,1
4469,1714,405,1
5708,1570,2173,1
7287,1663,3790,1
8803,1870,4196,1
10055,2047,3707,1
10859,2170,2479,1
11188,2132,1040,1
11085,1573,-471,1
10970,624,-1416,1
10875,-701,-1980,1
10583,-1832,-2296,1
9823,-2479,-2637,1
8820,-2411,-2572,1
7748,-1591,-2098,1
6455,-530,-1909,1
5271,361,-1700,1
4459,754,-1200,1
3875,956,-658,1
3407,1233,-355,1
3281,1509,-141,1
3700,2128,123,1
3982,2509,121,1
4282,2652,276,1
4672,2756,545,1
5209,2806,794,1
5768,3050,1073,1
6185,3657,1507,1
6584,4212,1974,1
7003,4034,1967,1
7494,3544,1635,1
7813,3290,1370,1
7867,3178,1238,1
7759,2977,1100,1
7481,2462,767,1
7299,1636,441,1
7064,664,74,1
6635,464,36,1
6014,578,91,1
5370,545,66,1
4848,353,89,1
4512,-18,48,1
4334,-209,-31,1
4542,-882,-100,1
4654,-1332,-425,1
4419,-1077,-561,1
4009,-452,-271,1
3444,174,30,1
3107,491,401,1
2987,400,489,1
2988,70,382,1
2887,76,314,1
2732,288,541,1
2681,280,605,1
2611,189,569,1
2655,-59,521,1
2669,-271,513,1
2574,-216,485,1
2494,-235,540,1
2355,-299,543,1
2273,-385,515,1
2256,-342,431,1
2142,-158,564,1
2072,-44,559,1
1927,75,503,1
1755,245,429,1
1531,399,393,1
1370,527,302,1
1272,630,170,1
1217,653,47,1
1184,616,-65,1
1154,519,-216,1
1133,376,-373,1
1086,218,-500,1
992,91,-579,1
814,14,-647,1
624,-32,-655,1
494,-49,-631,1
449,-57,-590,1
532,-44,-501,1
676,-31,-400,1
812,-12,-287,1
902,42,-193,1
939,145,-95,1
946,261,-44,1
983,331,-5,1
1008,406,-96,1
976,462,-402,1
944,491,-875,1
977,561,-1321,1
1129,585,-1701,1
1409,665,-1935,1
1853,842,-1853,1
2505,1040,-1413,1
3290,1334,-789,1
4108,1695,-289,1
4978,2020,132,1
5916,2557,686,1
6927,3316,1377,1
7821,3932,1713,1
8524,4431,1659,1
9083,4912,1528,1
9506,5395,1286,1
9912,5285,1023,1
10267,4471,1054,1
10326,3371,1186,1
10000,2136,1037,1
9350,1306,474,1
8606,1162,-119,1
7894,1176,-515,1
7637,1059,-227,1
7632,980,309,1
7680,773,685,1
7760,414,1018,1
7807,-51,1193,1
7788,-401,1228,1
7791,-760,1211,1
7753,-1135,1061,1
7700,-1617,851,1
7604,-2159,602,1
7486,-2684,361,1
7302,-3141,188,1
6896,-2841,10,1
6509,-2261,-106,1
6207,-1707,35,1
6048,-920,577,1
6114,-393,1189,1
6068,47,1459,1
5867,-137,1042,1
5795,-881,505,1
5798,-1753,-59,1
5648,-1873,-480,1
5327,-1408,-726,1
5126,-901,-332,1
4822,-112,177,1
4323,1757,973,1
3996,3336,2128,1
3790,4201,2914,1
3530,4021,2733,1
3184,3721,2296,1
2983,2845,1655,1
2852,1975,1167,1
2618,1657,832,1
2419,1614,809,1
2210,1630,826,1
1998,1739,975,1
1937,1549,1134,1
1989,1129,1171,1
2001,741,1092,1
1993,452,1017,1
1926,234,883,1
1832,20,690,1
1739,-308,376,1
1600,-569,36,1
1442,-704,-199,1
1285,-782,-359,1
1100,-893,-464,1
916,-1041,-463,1
756,-1180,-310,1
614,-1255,-13,1
430,-1227,152,1
278,-1163,207,1
144,-1031,195,1
28,-891,102,1
-61,-782,-19,1
-144,-693,-176,1
-216,-658,-320,1
-268,-633,-457,1
-260,-662,-510,1
-181,-713,-413,1
-86,-751,-256,1
-7,-749,-200,1
117,-685,-170,1
302,-502,-175,1
520,-188,-319,1
757,193,-557,1
989,518,-794,1
1343,906,-885,1
1694,1217,-1059,1
2084,1361,-1190,1
2843,1323,-710,1
3789,1321,83,1
4831,1493,758,1
6135,1702,1450,1
7538,2087,1893,1
8786,2499,1732,1
9736,3007,1137,1
10209,3364,370,1
10303,3603,-194,1
10238,3149,-531,1
9964,2633,-836,1
9406,1808,-1203,1
8569,883,-1400,1
7548,-672,-1852,1
6524,-2400,-1995,1
5886,-3334,-1257,1
5254,-3476,-441,1
4464,-3042,73,1
3805,-2277,519,1
3375,-1650,847,1
3180,-1157,1087,1
3151,-794,1023,1
3409,-477,896,1
3928,-112,809,1
4598,328,807,1
5324,758,947,1
6011,989,1031,1
6617,1134,1122,1
7201,995,1117,1
7658,639,745,1
7958,399,578,1
8123,196,609,1
7982,289,633,1
7659,483,733,1
7242,612,746,1
6728,861,800,1
6273,881,771,1
5817,892,695,1
5260,1021,550,1
4641,1180,667,1
4078,1257,835,1
3732,1405,890,1
3459,1959,903,1
3487,1738,668,1
3704,784,-132,1
4005,61,-466,1
4349,-359,-377,1
4643,-485,-390,1
4789,-190,51,1
4948,-358,211,1
5029,-534,225,1
5160,-802,215,1
5110,-482,246,1
4887,29,443,1
4513,496,652,1
4098,820,807,1
3781,859,757,1
3605,761,775,1
3628,340,743,1
3632,1,717,1
3619,-75,978,1
3579,-201,1139,1
3502,-155,1150,1
3340,-108,1217,1
3156,-62,1230,1
2985,62,1230,1
2821,200,1162,1
2640,343,1078,1
2405,444,978,1
2170,521,831,1
1969,518,586,1
1804,455,427,1
1646,332,208,1
1486,199,-14,1
1366,83,-168,1
1284,-63,-278,1
1184,-165,-315,1
1094,-235,-281,1
1009,-281,-164,1
943,-299,-47,1
871,-266,38,1
797,-181,102,1
735,-84,163,1
696,22,213,1
683,127,256,1
687,234,296,1
700,324,307,1
708,394,317,1
700,453,347,1
696,472,359,1
720,443,296,1
585,435,15,1
459,364,-412,1
397,376,-937,1
497,411,-1401,1
750,457,-1690,1
1106,610,-1759,1
1588,807,-1547,1
2170,1072,-1143,1
2770,1633,-607,1
3473,2187,-28,1
4280,2611,458,1
5166,2950,795,1
6086,3235,911,1
6992,3334,826,1
7774,3309,645,1
8432,3203,597,1
8895,3073,629,1
9205,2958,639,1
9425,2758,703,1
9555,2469,738,1
9606,1978,778,1
9482,1559,707,1
9181,1320,437,1
8806,1438,186,1
8543,1331,73,1
8390,940,209,1
8243,467,438,1
8085,62,664,1
7875,-332,822,1
7696,-966,812,1
7489,-1455,721,1
7207,-1760,581,1
6898,-1809,551,1
6599,-1924,474,1
6406,-2200,373,1
6182,-1997,357,1
6064,-1708,314,1
6116,-1619,369,1
6146,-1361,441,1
6173,-955,511,1
6215,-668,521,1
6158,-768,268,1
6151,-1425,-79,1
6063,-1453,-92,1
5888,-1279,-72,1
5622,-768,158,1
5422,-387,548,1
4941,724,797,1
4498,2250,1562,1
4305,3034,2274,1
4172,3392,2619,1
4044,3190,2523,1
3895,2575,2070,1
3663,2005,1492,1
3423,1831,1302,1
3255,1270,964,1
3218,524,745,1
2954,432,666,1
2559,590,594,1
2208,766,693,1
1984,719,880,1
1884,377,906,1
1834,-12,736,1
1713,-153,569,1
1540,-169,456,1
1405,-316,297,1
1286,-548,136,1
1174,-689,109,1
1051,-773,112,1
954,-867,112,1
870,-886,152,1
794,-881,208,1
698,-761,249,1
612,-603,325,1
594,-545,368,1
604,-515,383,1
601,-466,377,1
592,-418,346,1
615,-465,277,1
643,-548,238,1
679,-644,209,1
713,-744,204,1
771,-800,270,1
829,-817,368,1
843,-764,395,1
806,-666,260,1
812,-528,61,1
956,-396,-8,1
1169,-253,4,1
1364,-70,-11,1
1640,77,5,1
1957,258,35,1
2252,488,-90,1
2541,683,-355,1
2977,810,-495,1
3442,1022,-620,1
3943,1233,-660,1
4529,1360,-591,1
5127,1434,-632,1
5702,1391,-830,1
6266,1292,-1133,1
6831,1218,-1346,1
7336,1147,-1433,1
7700,994,-1479,1
7810,919,-1513,1
7906,708,-1298,1
7988,563,-875,1
7969,497,-423,1
7813,479,-35,1
7439,625,194,1
6926,821,452,1
6377,904,702,1
5804,1245,953,1
5262,1495,1132,1
4775,1784,1196,1
4474,2017,1270,1
4404,1772,1233,1
4417,1348,1044,1
4438,1386,1037,1
4530,1893,1551,1
4755,2286,2077,1
5154,1423,1573,1
5876,-828,139,1
6533,-2310,-742,1
7055,-2529,-519,1
7386,-1910,85,1
7499,-1081,517,1
7477,-522,720,1
7384,-246,656,1
7309,-139,703,1
7197,-272,520,1
6911,-166,336,1
6564,-66,276,1
6156,163,442,1
5701,366,545,1
5157,756,641,1
4759,913,791,1
4537,717,674,1
4343,676,467,1
4296,662,455,1
4316,226,231,1
4355,-306,-51,1
4351,-686,-185,1
4402,-936,-174,1
4211,-470,48,1
4134,-348,172,1
3796,-150,198,1
3813,-392,232,1
3857,-497,73,1
3858,-159,179,1
3743,406,561,1
3713,527,874,1
3552,653,1023,1
3406,687,1035,1
3298,606,1042,1
3232,477,1132,1
3049,473,1201,1
2826,570,1239,1
2628,635,1200,1
2452,662,1075,1
2290,638,932,1
2109,616,816,1
1960,568,697,1
1866,523,555,1
1769,454,429,1
1645,372,273,1
1491,271,117,1
1315,185,-59,1
1130,101,-196,1
951,48,-202,1
759,-14,-154,1
576,-82,-61,1
451,-126,47,1
363,-149,106,1
327,-151,127,1
289,-125,51,1
245,-79,-121,1
197,-22,-375,1
180,45,-684,1
232,140,-993,1
412,226,-1159,1
715,295,-1100,1
1069,422,-867,1
1382,662,-521,1
1713,927,-79,1
2082,1131,294,1
2442,1379,537,1
2891,1594,760,1
3441,1755,968,1
4006,1877,1065,1
4599,2063,1036,1
5187,2217,896,1
5745,2301,663,1
6261,2306,460,1
6732,2295,392,1
7113,2293,403,1
7413,2278,418,1
7617,2220,386,1
7719,2133,274,1
7767,2054,207,1
7838,1929,336,1
7882,1617,371,1
7882,1128,372,1
7912,744,367,1
7909,458,327,1
7859,157,269,1
7797,-174,212,1
7719,-440,192,1
7613,-708,194,1
7539,-881,315,1
7439,-1000,477,1
7264,-1141,507,1
7051,-880,581,1
6888,-579,718,1
6848,-489,857,1
6821,-314,986,1
6808,-85,1078,1
6777,-125,980,1
6816,-464,797,1
6907,-1167,457,1
6865,-1380,242,1
6725,-1547,-114,1
6569,-1481,-155,1
6452,-1463,29,1
6144,-878,248,1
5547,294,451,1
5177,1411,1066,1
5033,2096,1650,1
5024,1921,1765,1
5075,1320,1560,1
5011,654,1251,1
4646,668,814,1
4239,666,477,1
3907,716,493,1
3469,1136,632,1
3093,1449,813,1
2697,1849,1067,1
2391,1937,1260,1
2080,1969,1508,1
1959,1456,1555,1
1819,789,1312,1
1629,562,1198,1
1473,374,1062,1
1347,122,861,1
1224,-116,601,1
1024,-112,421,1
839,-182,218,1
684,-387,-12,1
495,-432,-112,1
382,-516,-98,1
323,-580,-8,1
291,-617,192,1
276,-583,518,1
272,-544,870,1
241,-467,1104,1
204,-344,1196,1
159,-249,1106,1
89,-228,819,1
-5,-253,434,1
-98,-311,65,1
-173,-397,-210,1
-207,-542,-358,1
-193,-695,-388,1
-153,-851,-355,1
-60,-982,-267,1
103,-1020,-160,1
334,-972,-101,1
622,-801,-12,1
895,-571,71,1
1076,-239,50,1
1200,186,-225,1
1297,591,-790,1
1478,933,-1357,1
1838,1158,-1737,1
2425,1223,-1696,1
3230,1228,-1224,1
4364,1181,-411,1
5726,1242,525,1
6957,1338,1037,1
7976,1344,1080,1
8733,1290,830,1
9174,1332,564,1
9455,1275,555,1
9560,861,489,1
9511,310,308,1
9209,-381,47,1
8701,-906,-153,1
8183,-1124,-35,1
7624,-1124,138,1
6964,-1056,93,1
6282,-886,-24,1
5737,-627,85,1
5282,-442,215,1
4887,-324,187,1
4541,-333,90,1
4298,-425,18,1
4277,-393,212,1
4554,-278,475,1
5013,116,613,1
5469,572,523,1
5999,921,575,1
6608,1060,775,1
7076,1207,948,1
7344,1333,1130,1
7389,1470,1157,1
7212,1634,1130,1
6841,1764,1100,1
6072,2209,862,1
5169,2959,858,1
4270,3965,1263,1
4014,3612,1480,1
3733,3027,923,1
3140,3780,1039,1
2996,4175,1927,1
3611,1770,597,1
4227,-724,-1476,1
4697,-1768,-1775,1
5180,-1621,-860,1
5583,-1314,-328,1
5612,-723,-277,1
5431,-534,-297,1
4905,284,-82,1
4498,1115,297,1
4303,1277,409,1
4109,1420,514,1
4006,1002,266,1
4128,-464,-362,1
4385,-2224,-956,1
4512,-3223,-1048,1
4666,-3459,-527,1
4719,-3103,70,1
4445,-2096,622,1
3970,-1100,996,1
3466,-542,1127,1
2984,-226,1156,1
2597,22,1203,1
2286,192,1168,1
2047,325,1097,1
1825,442,977,1
1613,517,822,1
1413,576,609,1
1285,572,355,1
1188,532,138,1
1096,452,-16,1
1099,411,-31,1
1161,403,-53,1
1206,373,-53,1
1252,322,18,1
1290,264,120,1
1326,217,232,1
1349,123,329,1
1299,87,378,1
1170,77,356,1
958,119,287,1
730,212,223,1
563,309,146,1
502,377,82,1
502,410,13,1
522,409,-127,1
549,389,-366,1
610,351,-649,1
751,257,-902,1
973,164,-1030,1
1242,132,-1030,1
1580,221,-870,1
1996,387,-630,1
2506,550,-359,1
3021,789,-106,1
3583,1064,126,1
4171,1366,314,1
4845,1605,433,1
5625,1701,541,1
6479,1792,730,1
7249,2021,879,1
7788,2298,784,1
8215,2512,617,1
8529,2738,539,1
8728,2925,550,1
8872,2987,630,1
8968,2901,873,1
8959,2736,1088,1
8919,2408,1167,1
8843,1948,1122,1
8687,1442,973,1
8480,957,789,1
8279,541,642,1
8061,200,511,1
7865,-266,389,1
7662,-722,294,1
7484,-1163,298,1
7269,-1568,246,1
7152,-1921,338,1
7011,-2128,426,1
6846,-2064,514,1
6721,-2060,509,1
6635,-1870,592,1
6595,-1449,721,1
6652,-1156,842,1
6763,-1086,925,1
6839,-1104,819,1
6750,-878,730,1
6524,-595,753,1
6169,-476,624,1
5901,-908,491,1
5671,-1782,187,1
5249,-1595,132,1
4899,-1574,-161,1
4651,-1409,-243,1
4514,-1165,-4,1
4140,-186,322,1
3559,949,558,1
3213,1861,1252,1
2999,2532,1850,1
2814,2645,1979,1
2713,2085,1735,1
2538,1732,1477,1
2276,1530,1133,1
2359,284,633,1
2379,-281,537,1
2207,-42,675,1
2029,152,860,1
1894,192,1020,1
1953,-356,852,1
1986,-845,570,1
1900,-941,509,1
1682,-930,376,1
1394,-828,155,1
929,-475,-22,1
553,-247,-49,1
297,-258,-161,1
136,-318,-200,1
64,-290,-26,1
30,-217,361,1
-66,6,850,1
-167,150,1285,1
-265,226,1552,1
-345,239,1544,1
-251,93,1293,1
-159,-128,740,1
-171,-295,123,1
-219,-426,-412,1
-240,-543,-759,1
-175,-639,-834,1
-25,-706,-659,1
213,-741,-306,1
525,-696,93,1
805,-548,337,1
1028,-248,306,1
1166,146,-139,1
1263,561,-855,1
1372,973,-1627,1
1658,1327,-2054,1
2243,1575,-1914,1
3130,1697,-1219,1
4287,1798,-215,1
5740,1980,875,1
7219,2263,1703,1
8449,2460,1935,1
9197,2644,1519,1
9499,2656,904,1
9478,2198,226,1
9210,1549,-450,1
8832,1148,-921,1
8546,1124,-846,1
8332,1185,-468,1
7985,851,-293,1
7777,116,-324,1
7326,-650,-681,1
6622,-1046,-859,1
5892,-878,-539,1
5245,-561,19,1
4756,-455,242,1
4343,-692,2,1
4025,-1134,-271,1
3957,-1977,-420,1
4040,-2613,-539,1
4287,-1960,-235,1
4709,-550,377,1
5191,775,1011,1
5658,1727,1404,1
5931,2598,1535,1
6076,3398,1586,1
6148,3925,1728,1
6235,3642,1607,1
6080,4113,1736,1
6151,3096,1284,1
6012,2554,794,1
5898,2625,830,1
5796,2112,588,1
5586,1754,360,1
5316,1535,345,1
5292,278,-268,1
5164,-510,-759,1
5035,-940,-912,1
4970,-1047,-691,1
4751,-783,-439,1
4666,-590,-71,1
4280,-244,371,1
3945,441,549,1
3644,893,462,1
3668,867,469,1
3856,487,209,1
3848,407,72,1
3968,18,131,1
4192,-929,2,1
4334,-1822,-214,1
4226,-1774,-220,1
4063,-1536,34,1
3935,-1405,322,1
3707,-1223,467,1
3474,-1154,475,1
3245,-994,492,1
3048,-927,515,1
2832,-675,651,1
2662,-483,781,1
2488,-264,957,1
2262,-183,975,1
2038,-121,895,1
1773,-38,864,1
1539,59,781,1
1360,137,646,1
1215,167,379,1
1058,201,140,1
940,229,-20,1
862,228,-48,1
803,194,-66,1
774,154,-40,1
774,135,51,1
774,130,130,1
694,136,157,1
471,195,159,1
240,304,242,1
152,390,322,1
188,473,370,1
379,485,447,1
400,534,447,1
456,477,437,1
519,390,321,1
543,295,8,1
505,189,-525,1
479,131,-1105,1
591,51,-1552,1
835,6,-1811,1
1191,16,-1843,1
1683,108,-1596,1
2315,287,-1106,1
3046,592,-573,1
3854,980,-104,1
4874,1529,354,1
6105,1983,677,1
7299,2443,791,1
8452,2895,875,1
9411,3181,843,1
10034,3482,641,1
10354,3727,179,1
10593,3851,-66,1
10725,4023,83,1
10696,4162,374,1
10430,4025,588,1
9940,3930,491,1
9409,3877,160,1
8936,3699,-155,1
8550,3362,-260,1
8194,2968,-161,1
7863,2522,42,1
7533,1888,206,1
7176,1293,397,1
6795,842,497,1
6552,279,541,1
6446,-472,538,1
6318,-1220,413,1
6212,-1768,160,1
6186,-2023,52,1
6279,-2391,59,1
6355,-2945,-117,1
6462,-3401,-174,1
6522,-3519,-186,1
6564,-3434,-158,1
6627,-3231,28,1
6540,-2425,191,1
6390,-1676,272,1
6217,-825,509,1
6012,171,823,1
5854,855,1025,1
5742,1311,1279,1
5501,1633,1481,1
5086,1415,1087,1
4748,900,842,1
4368,467,689,1
3940,284,557,1
3431,268,345,1
2974,387,278,1
2634,212,166,1
2367,73,300,1
2130,-20,526,1
1631,485,518,1
1097,1140,608,1
793,1534,1001,1
638,1687,1377,1
582,1674,1580,1
516,1619,1563,1
552,1288,1404,1
717,697,1156,1
852,232,899,1
896,-24,652,1
869,-206,403,1
736,-343,85,1
565,-388,-166,1
378,-394,-353,1
190,-367,-409,1
89,-344,-268,1
33,-323,22,1
26,-309,450,1
-11,-280,739,1
-81,-274,783,1
-227,-257,596,1
-420,-213,251,1
-619,-191,-149,1
-800,-196,-487,1
-963,-261,-737,1
-1074,-317,-802,1
-998,-302,-659,1
-886,-349,-441,1
-652,-314,-153,1
-239,-166,-5,1
166,125,-242,1
532,625,-847,1
939,1081,-1565,1
1499,1314,-2039,1
2294,1481,-2043,1
3384,1682,-1401,1
4714,1837,-312,1
6349,1686,1157,1
7913,1326,2388,1
9615,1597,3363,1
11272,2295,3735,1
12493,3174,3688,1
12848,3183,2366,1
12484,2404,423,1
11913,821,-1199,1
11393,-549,-1803,1
10392,-1526,-2276,1
9408,-1920,-2453,1
8163,-2011,-2374,1
6890,-1619,-1833,1
5674,-1140,-1290,1
4558,-550,-891,1
3643,-100,-593,1
2892,280,-356,1
2331,513,-280,1
2005,724,-303,1
2048,797,-378,1
2453,922,-355,1
3143,1664,-101,1
3880,2506,158,1
4803,2864,459,1
5698,3251,774,1
6515,3549,998,1
7123,3853,1211,1
7423,4158,1257,1
7506,4267,1167,1
7512,3971,734,1
7488,3510,662,1
7281,3413,905,1
7269,2173,447,1
7270,600,-460,1
7169,-248,-706,1
6874,-241,-375,1
6515,-177,-213,1
6209,-206,-75,1
5717,-372,191,1
5318,-3360,-1867,1
5970,-3813,-1485,1
6426,-2283,242,1
6027,-801,1244,1
5066,-23,1222,1
4239,287,654,1
3763,296,30,1
3340,392,-277,1
2928,681,-117,1
2584,1183,318,1
2170,1441,693,1
2056,1232,936,1
2083,1030,982,1
2054,1128,840,1
2297,889,769,1
2503,669,784,1
2731,436,813,1
3016,185,778,1
3267,-65,797,1
3402,-383,696,1
3402,-423,701,1
3448,-446,785,1
3437,-428,740,1
3301,-232,834,1
3221,-25,813,1
2924,198,756,1
2613,402,696,1
2333,528,568,1
2055,600,435,1
1752,658,358,1
1465,688,285,1
1185,656,89,1
972,599,-20,1
836,519,-214,1
750,398,-340,1
719,225,-459,1
709,81,-519,1
706,-81,-487,1
697,-224,-465,1
714,-338,-432,1
702,-432,-392,1
661,-430,-347,1
615,-398,-269,1
596,-305,-133,1
636,-201,-27,1
726,-78,74,1
834,36,114,1
883,123,29,1
865,209,-195,1
853,252,-459,1
892,306,-741,1
990,330,-1091,1
1167,393,-1387,1
1471,599,-1340,1
1947,931,-925,1
2563,1266,-433,1
3278,1620,13,1
4039,2073,474,1
4915,2529,905,1
5862,2993,1244,1
6826,3314,1424,1
7586,3556,1495,1
8124,3741,1390,1
8448,3825,1183,1
8568,3748,980,1
8600,3602,796,1
8548,3334,780,1
8340,2960,729,1
7989,2550,626,1
7549,2149,538,1
7179,1987,582,1
6910,1963,638,1
6862,2058,793,1
7125,2070,985,1
7625,1773,1227,1
7914,1204,1416,1
7879,582,1400,1
7668,136,1243,1
7461,-443,1062,1
7341,-1131,885,1
7347,-1813,788,1
7417,-2474,621,1
7411,-3015,371,1
7361,-3412,233,1
7231,-3951,30,1
6976,-4037,-102,1
6662,-3933,-101,1
6339,-3919,-133,1
5909,-3725,-217,1
5432,-3003,-74,1
5048,-2152,151,1
4939,-1610,624,1
4939,-1263,1005,1
4869,-457,1428,1
4710,344,1422,1
4551,243,746,1
4489,-18,296,1
4573,-766,14,1
4709,-944,334,1
4608,-43,679,1
4092,2127,1021,1
3653,3892,1668,1
3449,4573,2476,1
3318,4257,2654,1
3168,3749,2530,1
2927,3481,2275,1
2899,2524,1699,1
2749,1974,1300,1
2428,1772,948,1
2112,1782,858,1
1919,1746,1010,1
1854,1550,1240,1
1809,1328,1352,1
1838,992,1365,1
1860,659,1257,1
1859,325,1072,1
1791,20,757,1
1666,-187,415,1
1491,-308,68,1
1291,-376,-237,1
1071,-438,-476,1
860,-462,-567,1
656,-477,-507,1
440,-472,-377,1
241,-441,-156,1
17,-407,43,1
-181,-331,118,1
-363,-296,9,1
-460,-229,-188,1
-481,-185,-406,1
-447,-125,-615,1
-266,-95,-708,1
7,-151,-687,1
292,-126,-544,1
572,-84,-318,1
783,-112,-108,1
988,-178,140,1
1139,-228,285,1
1273,-239,240,1
1488,-181,256,1
1864,-88,462,1
2324,92,627,1
2569,399,543,1
2495,579,153,1
2406,633,-141,1
2614,723,-211,1
3191,768,-237,1
4185,892,-47,1
5765,1235,398,1
7656,1690,975,1
9336,2016,690,1
10521,2184,-112,1
11136,2339,-653,1
11261,2271,-741,1
10987,2050,-905,1
10460,1710,-1046,1
9776,1309,-1047,1
8934,852,-908,1
8234,467,-196,1
7547,103,403,1
6657,-380,286,1
5584,-1402,-552,1
4645,-1871,-555,1
3767,-1819,-136,1
2786,-1129,206,1
2017,-243,624,1
1621,306,862,1
1821,619,1101,1
2447,551,1058,1
3457,594,988,1
4698,893,1119,1
5826,1327,1252,1
6584,1952,1250,1
6954,2883,1400,1
7256,3055,1373,1
7603,2644,1086,1
7774,2277,731,1
7794,2198,692,1
7703,2223,695,1
7542,1905,478,1
7407,1145,-143,1
7221,754,-304,1
7079,261,-163,1
7246,-1200,-760,1
7057,-2415,-1059,1
6448,-2660,-963,1
5352,-2408,-504,1
4282,-2432,-423,1
3773,-2119,-169,1
3452,-763,510,1
3139,184,411,1
2649,988,72,1
2045,1718,112,1
1832,1890,340,1
2309,1157,233,1
3038,24,-129,1
3109,170,-251,1
2777,1406,141,1
2740,2003,611,1
3053,1644,649,1
3517,1093,616,1
4178,563,514,1
4578,-198,322,1
4698,-586,386,1
4560,-563,608,1
4223,-352,563,1
3883,-130,606,1
3679,52,807,1
3526,55,800,1
3419,53,780,1
3368,90,741,1
3315,102,681,1
3222,97,682,1
3069,91,568,1
2969,96,513,1
2851,120,436,1
2699,100,299,1
2520,144,271,1
2305,191,249,1
2087,239,207,1
1877,267,95,1
1676,335,37,1
1523,338,13,1
1371,299,-15,1
1237,241,-37,1
1155,142,-39,1
1110,76,-36,1
1098,40,-29,1
1119,35,-25,1
1154,65,-3,1
1232,104,46,1
1279,154,59,1
1308,190,15,1
1274,183,-153,1
1201,175,-411,1
1089,190,-683,1
1032,272,-889,1
1085,311,-1037,1
1262,194,-1174,1
1501,161,-1198,1
1809,265,-972,1
2181,432,-612,1
2583,691,-248,1
3034,974,81,1
3527,1294,413,1
4056,1688,752,1
4616,2068,1043,1
5215,2362,1148,1
5814,2617,1281,1
6396,2832,1439,1
6915,2911,1380,1
7359,2909,1233,1
7757,2907,1087,1
8053,2877,917,1
8220,2783,739,1
8324,2538,564,1
8402,2242,432,1
8487,1871,351,1
8506,1511,399,1
8473,1146,546,1
8395,836,665,1
8324,605,778,1
8252,392,867,1
8194,-74,812,1
8072,-470,700,1
7878,-829,519,1
7533,-826,163,1
7277,-1123,-74,1
7131,-1417,-156,1
7000,-1268,-125,1
6849,-1019,-46,1
6604,-836,34,1
6348,-479,284,1
6081,-280,522,1
5875,-198,715,1
5754,-43,909,1
5618,68,870,1
5470,165,734,1
5341,343,726,1
5240,553,809,1
5006,1056,830,1
4759,1391,877,1
4523,1639,970,1
4360,1714,1080,1
4267,1780,1230,1
4193,1789,1298,1
4139,1829,1350,1
4046,1921,1320,1
3915,1978,1235,1
3754,2045,1147,1
3599,1983,983,1
3450,1838,835,1
3306,1653,688,1
3126,1477,522,1
2909,1357,329,1
2690,1324,325,1
2484,1200,362,1
2271,948,293,1
2082,721,352,1
1895,605,458,1
1698,568,594,1
1523,466,681,1
1368,321,716,1
1222,165,683,1
1077,36,589,1
942,-94,472,1
829,-305,278,1
695,-578,35,1
508,-867,-216,1
374,-1181,-311,1
218,-1288,-307,1
65,-1312,-275,1
-73,-1366,-204,1
-172,-1432,-81,1
-239,-1480,85,1
-273,-1465,292,1
-307,-1341,489,1
-347,-1159,702,1
-391,-1037,822,1
-444,-900,809,1
-493,-773,640,1
-439,-717,441,1
-317,-739,226,1
-170,-667,19,1
-51,-439,-311,1
230,-94,-537,1
641,454,-560,1
1097,1090,-555,1
1498,1869,-703,1
1826,2474,-1211,1
2185,2752,-1863,1
2809,2869,-2348,1
3836,3059,-2408,1
5249,3420,-2208,1
6907,4031,-1489,1
8722,5352,19,1
10379,6447,1473,1
11325,6829,1858,1
11619,6254,1302,1
11408,4934,635,1
10960,3062,-49,1
10259,477,-1322,1
9162,-2099,-2960,1
8049,-4142,-3618,1
7147,-5089,-1928,1
6100,-4791,-308,1
4713,-3565,516,1
3405,-1934,899,1
2201,-560,1086,1
840,484,327,1
155,1089,377,1
219,1337,960,1
880,1227,1301,1
2285,1141,1461,1
3605,1737,1257,1
4560,2186,864,1
5380,2326,560,1
6061,2395,408,1
6683,2270,229,1
7227,1974,70,1
7684,1758,70,1
8057,1686,307,1
8292,1760,673,1
8296,1861,970,1
7959,1994,1107,1
7518,2144,1195,1
7059,2136,1302,1
6511,2038,1406,1
5891,1857,1554,1
5308,1521,1650,1
4888,773,1459,1
4474,116,1135,1
4126,-395,968,1
3752,-573,922,1
3403,-635,922,1
3112,-641,880,1
2951,-628,777,1
2914,-535,713,1
3039,-332,674,1
3314,-103,625,1
3672,114,602,1
4151,194,542,1
4777,274,461,1
5141,204,212,1
5284,67,15,1
5076,140,-80,1
4836,431,-81,1
4603,770,0,1
4496,805,109,1
4342,720,83,1
4191,664,30,1
4038,422,-170,1
4096,486,-164,1
3911,330,-233,1
3499,297,-299,1
3107,366,-306,1
2787,426,-387,1
2541,389,-515,1
2342,286,-601,1
2210,189,-552,1
2158,99,-380,1
2150,4,-189,1
2107,-72,-144,1
2027,-178,-196,1
1918,-222,-279,1
1781,-213,-339,1
1627,-176,-346,1
1476,-117,-285,1
1388,-92,-200,1
1375,-114,-182,1
1408,-90,-109,1
1394,-137,-125,1
1313,-112,-194,1
1213,11,-245,1
1129,160,-264,1
1068,361,-282,1
1087,616,-242,1
1159,855,-200,1
1207,1018,-99,1
1212,1057,-56,1
1222,1057,-89,1
1204,1086,-110,1
1180,1128,-57,1
1133,1153,185,1
975,1119,328,1
752,1237,399,1
457,1451,448,1
49,1555,184,1
-503,1474,-635,1
-1057,1127,-1860,1
-1404,465,-3112,1
-1471,-126,-4167,1
-1108,-581,-4894,1
-332,-579,-4922,1
742,-283,-4451,1
2060,332,-3817,1
3555,1181,-3090,1
5101,2321,-2324,1
6619,3123,-1711,1
7937,3675,-1428,1
8786,4239,-1527,1
8970,4553,-2107,1
8657,5092,-2613,1
8195,5656,-2589,1
7884,5950,-2515,1
7526,5688,-2791,1
7111,4752,-3455,1
6760,3279,-4162,1
6418,1750,-4677,1
6112,897,-4619,1
5947,658,-4111,1
5888,869,-3451,1
5943,1336,-2833,1
5969,1718,-2473,1
5833,1938,-2351,1
5500,1782,-2226,1
4946,1279,-2219,1
4334,753,-2080,1
3577,362,-1797,1
2173,39,-1298,1
995,-257,-624,1
515,-349,51,1
728,-136,179,1
1180,133,-280,1
1788,-425,-2290,1
2229,288,-1314,1
2425,1004,-890,1
2582,1408,-737,1
2794,1743,-839,1
3094,1983,-1054,1
3473,2213,-1244,1
3844,2335,-1321,1
4166,2439,-1358,1
4447,2576,-1476,1
4647,2749,-1557,1
4876,2986,-1548,1
5032,3024,-1540,1
4949,2738,-1520,1
4753,2440,-1240,1
4457,2200,-993,1
4131,1902,-735,1
3764,1594,-550,1
3361,1368,-419,1
3023,1272,-321,1
2818,1239,-218,1
2643,1194,-144,1
2483,1176,-51,1
2281,1116,9,1
2143,1038,91,1
2064,962,146,1
2043,875,223,1
2161,792,312,1
2326,762,365,1
2435,730,367,1
2596,666,336,1
2661,624,291,1
2711,622,228,1
2782,607,124,1
2815,580,45,1
2701,552,-57,1
2624,542,-113,1
2564,502,-191,1
2479,423,-255,1
2342,439,-344,1
2184,479,-380,1
2064,520,-425,1
2010,587,-472,1
2011,654,-540,1
2095,806,-675,1
2109,936,-892,1
2208,1072,-1142,1
2413,1236,-1353,1
2712,1389,-1502,1
2797,1441,-1736,1
2672,1417,-1883,1
2640,1516,-1979,1
2736,1649,-2123,1
2796,1843,-2340,1
2971,1968,-2550,1
3175,2097,-2745,1
3323,2236,-2938,1
3485,2309,-3076,1
3474,2359,-3026,1
3521,2242,-2845,1
3415,2126,-2623,1
3307,1914,-2300,1
3309,1614,-2011,1
3114,1459,-1759,1
3035,1154,-1558,1
3072,850,-1471,1
3114,657,-1417,1
3185,491,-1435,1
3171,447,-1426,1
3169,383,-1429,1
3091,373,-1440,1
2993,431,-1495,1
2944,485,-1546,1
2865,599,-1570,1
2845,644,-1612,1
2873,733,-1631,1
2862,803,-1703,1
2847,849,-1794,1
2825,851,-1928,1
2839,832,-2007,1
2877,814,-2053,1
2850,745,-2016,1
2881,674,-1995,1
2953,619,-1985,1
3061,590,-2010,1
3148,603,-2058,1
3296,715,-2092,1
3458,887,-2139,1
3625,1087,-2196,1
3775,1333,-2225,1
3918,1568,-2196,1
4076,1784,-2177,1
4093,1941,-2139,1
4126,2017,-2087,1
4113,2046,-2101,1
4084,2036,-2138,1
4048,1986,-2170,1
3960,1901,-2181,1
3874,1776,-2171,1
3847,1634,-2080,1
3959,1467,-1940,1
4025,1280,-1818,1
4095,1111,-1656,1
4130,917,-1561,1
4116,717,-1553,1
4055,576,-1619,1
3978,452,-1769,1
3979,362,-1916,1
3969,315,-2031,1
4044,336,-2076,1
4142,421,-2126,1
4240,523,-2174,1
4326,593,-2173,1
4474,636,-2094,1
4528,630,-2120,1
4510,556,-2250,1
4454,452,-2357,1
4382,264,-2513,1
4337,125,-2652,1
4338,-36,-2742,1
4317,-159,-2800,1
4269,-283,-2847,1
4147,-429,-2810,1
3969,-557,-2769,1
3778,-751,-2772,1
3602,-830,-2713,1
3385,-681,-2638,1
3063,-514,-2650,1
2672,-461,-2742,1
2284,-468,-2648,1
2008,-625,-2438,1
1722,-857,-2153,1
1418,-989,-1860,1
1225,-1265,-1685,1
1178,-1715,-1635,1
1274,-2017,-1483,1
1199,-2253,-1780,1
1140,-2451,-2122,1
1140,-2519,-2351,1
1015,-2197,-3129,1
742,-1577,-4639,1
913,-894,-5541,1
1559,-410,-5223,1
2247,-45,-4008,1
2971,-88,-2540,1
3615,-424,-1292,1
4080,-1066,-737,1
4308,-1778,-664,1
4213,-2293,-745,1
3694,-2733,-816,1
2930,-3159,-795,1
1878,-3371,-754,1
756,-3575,-891,1
-288,-3795,-1123,1
-1045,-4108,-1389,1
-1611,-4150,-1451,1
-1891,-4233,-1317,1
-2103,-4129,-1270,1
-2296,-4055,-1361,1
-2231,-4379,-1660,1
-1889,-4614,-1893,1
-1464,-4527,-2121,1
-941,-4084,-2260,1
-405,-3438,-2487,1
236,-3165,-2874,1
920,-2911,-2977,1
1433,-2534,-2901,1
1780,-2766,-2768,1
1719,-2536,-2421,1
1557,-2613,-2223,1
1267,-2379,-2081,1
1284,-2077,-1893,1
1307,-2098,-1916,1
1311,-2141,-2136,1
1480,-2127,-2468,1
2031,-2498,-6279,1
6656,-14470,-19522,1
13213,-23617,-26143,1
15018,-25432,-21608,1
18150,-13763,-3770,1
13389,-9727,2551,1
6495,-9151,4083,1
-6864,-10177,-6176,1
-11811,-5978,-11640,1
-9768,-1163,-18069,1
-7759,-3741,-24797,1
-5622,-2384,-24709,1
-3012,-119,-20639,1
275,1822,-15344,1
3710,584,-9708,1
6123,2104,-4166,1
7536,1798,-4168,1
8892,2432,-4342,1
9345,2783,-5101,1
9594,2835,-4936,1
9424,2250,-4132,1
8310,940,-3410,1
5657,2421,-1238,1
2315,1870,583,1
-1286,48,1453,1
-2656,-1061,743,1
-851,-2843,-1842,1
1986,-3523,-4728,1
4531,-2132,-6142,1
6717,526,-5592,1
7880,2587,-3881,1
8076,2154,-1882,1
6519,88,-864,1
3586,-1240,-678,1
-61,-2116,-1452,1
-3367,-3790,-3125,1
-4859,-5134,-3719,1
-5379,-5414,-3113,1
-5269,-5477,-1825,1
-4133,-5777,-40,1
-2263,-4867,1816,1
-987,-4738,2472,1
-608,-4813,2570,1
-557,-4739,2655,1
-827,-4127,2519,1
-1293,-3665,2051,1
-1781,-3519,1473,1
-2216,-3550,990,1
-2666,-3901,717,1
-2956,-4512,581,1
-3193,-5196,565,1
-2964,-5688,1152,1
-2610,-6025,1844,1
-2124,-6134,2477,1
-1098,-6127,2963,1
-70,-5846,2847,1
215,-5879,1900,1
-156,-6029,762,1
-944,-6073,-280,1
-1608,-5849,-686,1
-1420,-5148,-480,1
-1678,-5287,-1123,1
-1736,-5136,-1204,1
-1797,-4616,-895,1
-2097,-4697,-234,1
-2543,-4258,1180,1
-2431,-3710,2779,1
-1809,-3537,3538,1
-1244,-3578,3324,1
-1045,-3501,2679,1
-962,-3417,2184,1
-775,-3467,1828,1
-606,-3728,1619,1
-515,-3944,1607,1
-475,-4051,1473,1
-481,-4083,1321,1
-592,-4094,1227,1
-746,-4163,1252,1
-957,-4310,1453,1
-1234,-4440,1766,1
-1590,-4499,2141,1
-1983,-4424,2449,1
-2335,-4359,2610,1
-2580,-4092,2858,1
-2668,-3746,2878,1
-2648,-3255,2901,1
-2535,-2853,2740,1
-2405,-2568,2475,1
-2358,-2519,2210,1
-2342,-2394,2199,1
-2294,-2318,2107,1
-2258,-2456,1936,1
-2256,-2809,1761,1
-2299,-3134,1781,1
-2323,-3235,1792,1
-2238,-3256,1727,1
-2096,-3407,1625,1
-1963,-3488,1586,1
-1726,-3472,1582,1
-1583,-3436,1585,1
-1419,-3296,1589,1
-1287,-3115,1537,1
-1226,-2943,1470,1
-1197,-2758,1441,1
-1195,-2575,1422,1
-1215,-2447,1378,1
-1249,-2367,1346,1
-1271,-2352,1341,1
-1284,-2381,1344,1
-1321,-2504,1336,1
-1304,-2638,1391,1
-1280,-2767,1444,1
-1279,-2910,1481,1
-1240,-2897,1575,1
-1265,-2866,1590,1
-1245,-2914,1650,1
-1211,-3018,1727,1
-1110,-3095,1817,1
-1051,-3142,1847,1
-1045,-3205,1845,1
-1223,-3312,1779,1
-1376,-3364,1727,1
-1462,-3376,1688,1
-1540,-3358,1618,1
-1568,-3264,1540,1
-1568,-3138,1437,1
-1564,-3035,1328,1
-1544,-2937,1255,1
-1507,-2821,1215,1
-1510,-2767,1078,1
-1486,-2686,987,1
-1426,-2600,957,1
-1405,-2615,867,1
-1387,-2627,889,1
-1384,-2657,909,1
-1293,-2680,973,1
-1209,-2709,1009,1
-1094,-2752,1050,1
-1029,-2815,1046,1
-976,-2914,1083,1
-996,-3031,1104,1
-1035,-3129,1182,1
-1154,-3309,1152,1
-1232,-3494,1127,1
-1284,-3740,1155,1
-1362,-3935,1094,1
-1430,-3984,1063,1
-1458,-3952,1016,1
-1437,-3860,924,1
-1342,-3713,783,1
-1286,-3552,630,1
-1255,-3396,507,1
-1251,-3246,453,1
-1284,-3161,451,1
-1307,-3152,501,1
-1283,-3176,570,1
-1267,-3254,592,1
-1261,-3363,589,1
-1257,-3516,591,1
-1302,-3710,594,1
-1280,-3860,639,1
-1201,-3996,654,1
-1138,-4148,626,1
-1175,-4406,524,1
-1162,-4505,501,1
-1188,-4546,432,1
-1231,-4505,400,1
-1308,-4439,281,1
-1312,-4423,184,1
-1271,-4472,132,1
-1174,-4403,100,1
-1068,-4233,48,1
-976,-4032,12,1
-910,-3867,1,1
-836,-3742,14,1
-767,-3707,64,1
-713,-3810,83,1
-683,-3960,83,1
-655,-4168,79,1
-627,-4400,121,1
-637,-4501,138,1
-700,-4517,119,1
-730,-4531,111,1
-746,-4544,101,1
-730,-4472,107,1
-694,-4474,54,1
-683,-4495,-20,1
-646,-4464,-34,1
-579,-4420,1,1
-524,-4348,29,1
-509,-4253,16,1
-523,-4143,11,1
-540,-4086,-8,1
-549,-4091,-57,1
-560,-4163,-170,1
-637,-4404,-310,1
-805,-4483,-382,1
-909,-4464,-357,1
-928,-4503,-336,1
-950,-4472,-366,1
-978,-4456,-752,1
-1237,-4565,-910,1
-1088,-4807,-1172,1
-1343,-5000,-1163,1
-1889,-4835,-834,1
-2246,-4487,-239,1
-2224,-3964,322,1
-1842,-3618,703,1
-1203,-3557,716,1
-539,-3616,533,1
23,-3674,392,1
395,-3605,444,1
515,-3529,534,1
452,-3438,678,1
315,-3374,738,1
250,-3289,783,1
326,-3281,696,1
444,-3322,468,1
469,-3411,170,1
439,-3526,-240,1
446,-3575,-557,1
456,-3533,-682,1
495,-3442,-649,1
184,-3534,-959,1
-235,-3835,-2216,1
-312,-3960,-3175,1
-469,-3700,-3021,1
-678,-3038,-2759,1
-696,-2882,-2676,1
-909,-3244,-2637,1
-1475,-3963,-2708,1
-1956,-4406,-2722,1
-2071,-4624,-2592,1
-1970,-4666,-2513,1
-1700,-4542,-2377,1
-1361,-4350,-2241,1
-1070,-4212,-2151,1
-868,-4137,-2210,1
-843,-4065,-2448,1
-841,-3957,-2588,1
-903,-3950,-2694,1
-944,-3883,-2605,1
-1066,-3772,-2632,1
-1042,-3744,-2656,1
-1007,-3749,-2668,1
-946,-3797,-2655,1
-912,-3824,-2667,1
-900,-3821,-2683,1
-902,-3773,-2653,1
-900,-3709,-2631,1
-825,-3681,-2615,1
-699,-3645,-2553,1
-545,-3601,-2468,1
-355,-3588,-2377,1
-187,-3573,-2269,1
-80,-3574,-2179,1
-25,-3552,-2109,1
-6,-3529,-2075,1
18,-3527,-2032,1
48,-3560,-1993,1
60,-3561,-1932,1
-5,-3578,-1872,1
-146,-3547,-1826,1
-284,-3544,-1810,1
-363,-3569,-1788,1
-407,-3599,-1773,1
-455,-3645,-1792,1
-510,-3678,-1811,1
-578,-3691,-1825,1
-668,-3676,-1827,1
-720,-3665,-1840,1
-749,-3661,-1866,1
-735,-3663,-1869,1
-718,-3679,-1908,1
-715,-3715,-1938,1
-735,-3735,-1952,1
-770,-3748,-1952,1
-793,-3752,-1938,1
-807,-3741,-1917,1
-803,-3743,-1907,1
-784,-3737,-1897,1
-759,-3747,-1888,1
-745,-3748,-1867,1
-755,-3753,-1846,1
-782,-3750,-1828,1
-794,-3738,-1804,1
-765,-3736,-1765,1
-744,-3753,-1741,1
-740,-3781,-1711,1
-762,-3798,-1688,1
-811,-3806,-1694,1
-824,-3814,-1676,1
-866,-3769,-1688,1
-866,-3759,-1732,1
-801,-3787,-1739,1
-719,-3814,-1716,1
-663,-3820,-1686,1
-627,-3803,-1665,1
-625,-3786,-1629,1
-614,-3806,-1601,1
-585,-3794,-1582,1
-555,-3771,-1557,1
-510,-3766,-1517,1
-464,-3778,-1468,1
-430,-3784,-1426,1
-416,-3787,-1393,1
-434,-3779,-1351,1
-470,-3762,-1304,1
-478,-3758,-1269,1
-469,-3756,-1228,1
-468,-3756,-1187,1
-479,-3755,-1160,1
-511,-3752,-1154,1
-526,-3740,-1140,1
-532,-3738,-1121,1
-531,-3753,-1090,1
-529,-3761,-1063,1
-529,-3777,-1046,1
-518,-3782,-1064,1
-537,-3788,-1119,1
-572,-3804,-1160,1
-610,-3802,-1190,1
-632,-3805,-1211,1
-634,-3806,-1229,1
-628,-3803,-1247,1
-610,-3797,-1246,1
-598,-3794,-1232,1
-616,-3788,-1224,1
-638,-3797,-1232,1
-660,-3809,-1236,1
-675,-3818,-1250,1
-691,-3828,-1266,1
-706,-3836,-1306,1
-707,-3841,-1342,1
-700,-3834,-1365,1
-692,-3836,-1376,1
-672,-3839,-1387,1
-657,-3854,-1406,1
-642,-3857,-1416,1
-635,-3858,-1422,1
-634,-3852,-1428,1
-649,-3849,-1454,1
-646,-3839,-1458,1
-619,-3840,-1448,1
-582,-3832,-1436,1
-555,-3826,-1430,1
-537,-3824,-1421,1
-529,-3819,-1419,1
-531,-3815,-1414,1
-525,-3802,-1412,1
-527,-3797,-1407,1
-527,-3801,-1395,1
-528,-3805,-1379,1
-527,-3808,-1361,1
-527,-3807,-1366,1
-518,-3811,-1374,1
-505,-3811,-1389,1
-490,-3809,-1392,1
-478,-3816,-1400,1
-478,-3819,-1398,1
-498,-3817,-1397,1
-521,-3818,-1395,1
-533,-3811,-1398,1
-531,-3800,-1400,1
-518,-3792,-1399,1
-501,-3793,-1392,1
-489,-3796,-1377,1
-468,-3793,-1361,1
-455,-3790,-1352,1
-460,-3781,-1351,1
-494,-3797,-1385,1
-543,-3815,-1413,1
-576,-3823,-1433,1
-588,-3828,-1441,1
-586,-3824,-1441,1
-575,-3814,-1443,1
-566,-3813,-1461,1
-564,-3814,-1466,1
-557,-3813,-1469,1
-552,-3812,-1466,1
-549,-3803,-1461,1
-529,-3792,-1445,1
-526,-3776,-1438,1
-543,-3775,-1438,1
-554,-3778,-1438,1
-571,-3784,-1431,1
-609,-3807,-1438,1
-648,-3828,-1457,1
-681,-3841,-1488,1
-714,-3857,-1532,1
-731,-3867,-1566,1
-742,-3876,-1590,1
-724,-3856,-1598,1
-660,-3834,-1590,1
-557,-3819,-1567,1
-497,-3801,-1558,1
-496,-3792,-1552,1
-492,-3790,-1540,1
-502,-3791,-1538,1
-507,-3793,-1534,1
-528,-3803,-1556,1
-547,-3801,-1565,1
-551,-3798,-1570,1
-535,-3786,-1542,1
-543,-3787,-1508,1
-587,-3785,-1489,1
-636,-3781,-1481,1
-675,-3799,-1500,1
-708,-3809,-1504,1
-700,-3812,-1499,1
-646,-3821,-1476,1
-633,-3826,-1500,1
-632,-3831,-1499,1
-658,-3828,-1497,1
-683,-3823,-1488,1
-697,-3824,-1498,1
-718,-3829,-1530,1
-700,-3834,-1539,1
-679,-3832,-1563,1
-656,-3829,-1580,1
-637,-3827,-1590,1
-652,-3829,-1588,1
-648,-3834,-1572,1
-646,-3836,-1560,1
-661,-3841,-1563,1
-674,-3847,-1554,1
-686,-3852,-1558,1
-688,-3856,-1555,1
-685,-3854,-1561,1
-682,-3843,-1569,1
-666,-3843,-1562,1
-655,-3850,-1553,1
-646,-3847,-1535,1
-635,-3836,-1516,1
-626,-3839,-1504,1
-625,-3843,-1493,1
-633,-3837,-1496,1
-645,-3843,-1503,1
-684,-3870,-1538,1
-720,-3904,-1560,1
-745,-3909,-1566,1
-768,-3919,-1580,1
-786,-3927,-1592,1
-781,-3951,-1603,1
-788,-3953,-1604,1
-781,-3947,-1589,1
-766,-3939,-1556,1
-727,-3930,-1528,1
-714,-3918,-1504,1
-686,-3912,-1473,1
-625,-3903,-1427,1
-585,-3908,-1407,1
-527,-3898,-1370,1
-475,-3889,-1349,1
-418,-3860,-1333,1
-368,-3842,-1340,1
-341,-3828,-1344,1
-333,-3828,-1325,1
-366,-3831,-1322,1
-420,-3851,-1329,1
-484,-3888,-1328,1
-545,-3931,-1321,1
-573,-3971,-1282,1
-579,-3984,-1252,1
-567,-3993,-1232,1
-543,-3994,-1209,1
-514,-3974,-1171,1
-484,-3942,-1121,1
-473,-3932,-1076,1
-429,-3924,-1030,1
-403,-3905,-981,1
-397,-3914,-977,1
-398,-3909,-971,1
-389,-3888,-950,1
-404,-3875,-939,1
-420,-3901,-942,1
-437,-3914,-941,1
-444,-3885,-906,1
-441,-3900,-876,1
-453,-3884,-889,1
-470,-3876,-902,1
-463,-3931,-876,1
-486,-3913,-891,1
-501,-3872,-880,1
-511,-3879,-846,1
-519,-3884,-835,1
-534,-3900,-849,1
-604,-3998,-929,1
-674,-4087,-959,1
-712,-4100,-997,1
-708,-4065,-1020,1
-677,-4064,-1022,1
-654,-4114,-1022,1
-637,-4096,-1034,1
-683,-4056,-1087,1
-697,-4068,-1082,1
-737,-4084,-1092,1
-796,-4079,-1117,1
-809,-4024,-1125,1
-799,-4011,-1110,1
-799,-3983,-1102,1
-810,-3991,-1086,1
-810,-3969,-1080,1
-802,-3954,-1073,1
-800,-3967,-1012,1
-813,-4021,-998,1
-836,-4075,-1013,1
-844,-4131,-1012,1
-848,-4118,-1024,1
-821,-4087,-1013,1
-797,-4084,-1011,1
-792,-4098,-1020,1
-808,-4109,-1024,1
-836,-4058,-1031,1
-848,-4053,-1023,1
-846,-4051,-986,1
-849,-4085,-961,1
-872,-4125,-936,1
-898,-4160,-914,1
-889,-4220,-870,1
-885,-4219,-912,1
-845,-4199,-903,1
-811,-4178,-848,1
-837,-4244,-881,1
-882,-4335,-903,1
-917,-4414,-898,1
-898,-4435,-843,1
-856,-4398,-787,1
-802,-4340,-733,1
-741,-4236,-661,1
-703,-4181,-622,1
-682,-4132,-557,1
-660,-4117,-546,1
-634,-4071,-467,1
-625,-4049,-431,1
-586,-4072,-445,1
-541,-4036,-416,1
-492,-4059,-407,1
-438,-4059,-375,1
-419,-4097,-380,1
-439,-4117,-357,1
-459,-4160,-363,1
-444,-4162,-320,1
-401,-4160,-291,1
-379,-4104,-244,1
-372,-4072,-201,1
-362,-4078,-200,1
-376,-4032,-191,1
-354,-3992,-163,1
-342,-3963,-131,1
-324,-3932,-101,1
-264,-3948,-77,1
-234,-3970,-26,1
-250,-4011,2,1
-282,-4025,19,1
-322,-4053,40,1
-349,-4078,30,1
-376,-4076,33,1
-407,-4024,89,1
-449,-3994,111,1
-480,-3968,156,1
-492,-3973,186,1
-509,-3959,208,1
-493,-3950,228,1
-482,-3963,224,1
-480,-3937,264,1
-454,-3949,287,1
-443,-3954,312,1
-463,-3959,317,1
-501,-3984,239,1
-509,-3972,230,1
-509,-3929,235,1
-451,-3882,248,1
-370,-3857,227,1
-303,-3857,217,1
-228,-3920,167,1
-174,-3977,141,1
-154,-4023,81,1
-154,-4027,50,1
-148,-4052,22,1
-154,-4115,4,1
-166,-4143,4,1
-163,-4153,26,1
-151,-4134,50,1
-155,-4165,92,1
-161,-4199,150,1
-179,-4251,134,1
-200,-4238,113,1
-215,-4203,67,1
-221,-4125,32,1
-264,-3987,40,1
-334,-3863,70,1
-413,-3767,95,1
-467,-3679,146,1
-484,-3576,189,1
-482,-3489,243,1
-458,-3460,321,1
-441,-3509,411,1
-453,-3617,499,1
-500,-3743,603,1
-578,-3878,670,1
-665,-3989,736,1
-758,-4038,788,1
-876,-4029,815,1
-1011,-4001,809,1
-1115,-3940,804,1
-1188,-3855,787,1
-1232,-3788,783,1
-1243,-3708,829,1
-1263,-3661,886,1
-1277,-3653,991,1
-1267,-3689,1115,1
-1263,-3737,1263,1
-1261,-3812,1363,1
-1224,-3891,1439,1
-1162,-3967,1448,1
-1108,-4025,1398,1
-1071,-4082,1296,1
-1031,-4154,1193,1
-984,-4237,1074,1
-922,-4308,968,1
-867,-4392,879,1
-831,-4418,846,1
-782,-4404,830,1
-702,-4372,843,1
-602,-4295,906,1
-508,-4212,986,1
-441,-4156,1040,1
-377,-4090,1098,1
-275,-4058,1220,1
-138,-4046,1357,1
-24,-4042,1418,1
60,-4057,1402,1
126,-4030,1349,1
150,-4028,1309,1
137,-4051,1295,1
71,-4064,1254,1
14,-4082,1195,1
-36,-4095,1155,1
-66,-4124,1143,1
-105,-4176,1118,1
-106,-4265,1122,1
-70,-4361,1143,1
-52,-4419,1142,1
-7,-4451,1143,1
51,-4478,1076,1
87,-4508,926,1
133,-4503,768,1
199,-4456,680,1
228,-4394,595,1
224,-4301,523,1
239,-4211,463,1
313,-4145,437,1
373,-4075,425,1
450,-4022,427,1
553,-3978,485,1
676,-3916,625,1
779,-3857,800,1
847,-3798,985,1
899,-3751,1136,1
924,-3695,1250,1
944,-3654,1311,1
936,-3636,1298,1
904,-3678,1214,1
877,-3722,1090,1
846,-3738,971,1
834,-3727,899,1
822,-3720,866,1
827,-3673,889,1
847,-3600,923,1
887,-3514,957,1
943,-3462,986,1
1008,-3438,1036,1
1053,-3456,1048,1
1094,-3465,1039,1
1136,-3469,981,1
1147,-3475,921,1
1128,-3468,855,1
1086,-3483,802,1
1037,-3497,723,1
994,-3580,764,1
952,-3642,745,1
876,-3696,707,1
876,-3712,733,1
915,-3745,691,1
995,-3736,668,1
1074,-3745,655,1
1087,-3712,641,1
1065,-3677,594,1
1040,-3645,565,1
1001,-3598,576,1
974,-3545,614,1
993,-3530,676,1
1016,-3550,710,1
1047,-3559,736,1
1023,-3577,707,1
980,-3568,701,1
925,-3564,726,1
865,-3553,736,1
830,-3578,765,1
862,-3565,906,1
937,-3573,1013,1
1027,-3611,1090,1
1134,-3668,1131,1
1271,-3722,1157,1
1424,-3778,1170,1
1522,-3810,1147,1
1587,-3846,1084,1
1617,-3873,1007,1
1578,-3880,928,1
1518,-3880,894,1
1451,-3854,920,1
1412,-3857,967,1
1385,-3883,1019,1
1401,-3930,1031,1
1418,-3973,1033,1
1455,-3980,1038,1
1457,-3981,999,1
1434,-3943,986,1
1426,-3876,984,1
1413,-3832,975,1
1415,-3789,955,1
1462,-3775,922,1
1528,-3775,874,1
1611,-3786,825,1
1680,-3799,720,1
1734,-3753,609,1
1806,-3697,504,1
1869,-3623,419,1
1939,-3544,360,1
1991,-3481,295,1
2040,-3444,262,1
2109,-3417,262,1
2169,-3403,267,1
2217,-3387,274,1
2268,-3345,256,1
2331,-3283,247,1
2374,-3237,209,1
2410,-3151,162,1
2428,-3054,133,1
2533,-2996,101,1
2655,-2956,64,1
2822,-2943,47,1
2990,-2933,26,1
3052,-2928,-26,1
3019,-2925,-110,1
2963,-2927,-209,1
2892,-2927,-311,1
2860,-2939,-431,1
2894,-2899,-490,1
2974,-2863,-529,1
3076,-2830,-567,1
3146,-2778,-641,1
3170,-2725,-704,1
3162,-2647,-723,1
3177,-2516,-740,1
3227,-2506,-823,1
3314,-2469,-837,1
3424,-2413,-806,1
3521,-2375,-797,1
3573,-2319,-800,1
3609,-2237,-821,1
3602,-2155,-860,1
3555,-2093,-865,1
3604,-2096,-812,1
3770,-2170,-728,1
3873,-2229,-728,1
3800,-2300,-800,1
3649,-2402,-869,1
3579,-2554,-872,1
3573,-2752,-837,1
3548,-2937,-784,1
3528,-3067,-721,1
3444,-3135,-577,1
3306,-3178,-414,1
3147,-3161,-197,1
2990,-3126,-39,1
2822,-3108,69,1
2611,-3147,146,1
2384,-3210,187,1
2097,-3325,189,1
1846,-3472,220,1
1698,-3633,216,1
1544,-3730,214,1
1317,-3758,204,1
1149,-3739,162,1
1169,-3635,186,1
1176,-3496,144,1
1325,-3407,60,1
1484,-3373,-23,1
1668,-3299,-110,1
1896,-3238,-112,1
2040,-3120,-193,1
2313,-3076,-279,1
2637,-3008,-351,1
3014,-2961,-425,1
3354,-2896,-518,1
3623,-2862,-625,1
3760,-2855,-660,1
3757,-2769,-645,1
3618,-2659,-655,1
3479,-2551,-547,1
3381,-2511,-404,1
3293,-2538,-321,1
3226,-2567,-294,1
3128,-2629,-313,1
3098,-2689,-408,1
3129,-2765,-496,1
3300,-2843,-668,1
3739,-3101,-748,1
3946,-2954,-607,1
3898,-3180,-705,1
3546,-3511,-948,1
3206,-3736,-951,1
2927,-4133,-1008,1
2657,-4492,-1159,1
2384,-4867,-1267,1
2097,-5004,-1211,1
1904,-4991,-1141,1
1842,-4864,-1101,1
1958,-4814,-1084,1
2160,-4745,-1152,1
2350,-4531,-1173,1
2544,-4252,-1110,1
2663,-3807,-734,1
2851,-3736,-557,1
3057,-3801,-636,1
3251,-3974,-868,1
3460,-4284,-1168,1
3600,-4588,-1455,1
3540,-4680,-1689,1
3310,-4641,-1714,1
3114,-4577,-1585,1
2997,-4446,-1445,1
2985,-4298,-1391,1
3048,-4199,-1452,1
3169,-4144,-1604,1
3351,-4186,-1851,1
3550,-4139,-1973,1
3774,-4015,-1984,1
3950,-3892,-2043,1
4057,-3831,-2108,1
4172,-3790,-2181,1
4355,-3618,-2131,1
4566,-3565,-2083,1
4663,-3682,-2090,1
4714,-3685,-2049,1
4725,-3668,-1903,1
4690,-3600,-1729,1
4643,-3538,-1507,1
4578,-3590,-1445,1
4360,-3587,-1541,1
4235,-3489,-1567,1
4065,-3291,-1508,1
3793,-3073,-1357,1
3562,-2981,-1201,1
3294,-2923,-1165,1
3068,-3003,-1225,1
2897,-2986,-1192,1
2747,-2938,-1052,1
2670,-3067,-975,1
2632,-3228,-971,1
2583,-3320,-1010,1
2573,-3387,-1062,1
2552,-3404,-1089,1
2560,-3450,-1102,1
2602,-3478,-1092,1
2672,-3467,-1043,1
2713,-3448,-1021,1
2727,-3393,-1006,1
2700,-3361,-982,1
2675,-3372,-986,1
2671,-3398,-943,1
2629,-3421,-880,1
2608,-3435,-812,1
2642,-3436,-759,1
2682,-3409,-732,1
2723,-3358,-716,1
2711,-3291,-711,1
2630,-3216,-718,1
2528,-3170,-737,1
2471,-3181,-727,1
2557,-3233,-642,1
2681,-3276,-585,1
2762,-3319,-610,1
2840,-3314,-602,1
2857,-3373,-676,1
2845,-3354,-762,1
2930,-3326,-851,1
2829,-3175,-992,1
2695,-3020,-1040,1
2630,-2908,-1027,1
2522,-2742,-912,1
2453,-2715,-946,1
2363,-2621,-875,1
2204,-2503,-784,1
1961,-2452,-734,1
1752,-2402,-605,1
1614,-2434,-535,1
1575,-2475,-463,1
1624,-2611,-537,1
1725,-2797,-623,1
1767,-2807,-695,1
1921,-2745,-734,1
1982,-2732,-791,1
1950,-2667,-752,1
1854,-2583,-721,1
1695,-2472,-647,1
1576,-2357,-491,1
1514,-2435,-503,1
1433,-2367,-455,1
1313,-2156,-424,1
1200,-2089,-525,1
1120,-1925,-623,1
1142,-1741,-677,1
1229,-1741,-831,1
1426,-1894,-1054,1
1569,-1868,-1107,1
1717,-1654,-1097,1
1876,-1864,-1257,1
1960,-1883,-1169,1
2081,-1941,-1075,1
2166,-2020,-1032,1
2150,-1965,-863,1
2055,-1848,-741,1
2063,-1694,-576,1
2211,-1745,-479,1
2469,-1858,-506,1
2661,-2017,-621,1
2650,-2074,-746,1
2469,-2146,-886,1
2174,-2116,-1075,1
1832,-2130,-1312,1
1646,-2169,-1436,1
1386,-2268,-1679,1
1115,-2328,-1861,1
1076,-2605,-1935,1
1288,-2980,-2173,1
1694,-2980,-2494,1
2024,-3421,-2960,1
2223,-3449,-3121,1
2333,-3364,-3277,1
2605,-3181,-3296,1
2949,-3106,-3294,1
3342,-3164,-3263,1
3782,-3301,-3254,1
3992,-3414,-3233,1
3840,-3474,-3107,1
3540,-3404,-2920,1
3488,-3299,-2674,1
3640,-3269,-2630,1
3901,-3276,-2621,1
4100,-3370,-2721,1
4062,-3463,-2820,1
3906,-3563,-2789,1
3620,-3612,-2712,1
3316,-3752,-2659,1
3104,-3947,-2725,1
2864,-4059,-2677,1
2727,-4132,-2626,1
2560,-4134,-2562,1
2489,-4104,-2445,1
2466,-4071,-2371,1
2581,-4031,-2365,1
2824,-4005,-2458,1
3174,-4009,-2577,1
3575,-4051,-2729,1
3944,-4076,-2872,1
4246,-4089,-3019,1
4533,-4091,-3158,1
4602,-4059,-3210,1
4575,-3992,-3202,1
4458,-3905,-3143,1
4270,-3832,-3068,1
4091,-3813,-2968,1
3847,-3805,-2823,1
3578,-3816,-2700,1
3277,-3800,-2602,1
3079,-3734,-2547,1
2891,-3596,-2436,1
2804,-3433,-2338,1
2788,-3277,-2268,1
2860,-3113,-2220,1
2970,-2967,-2229,1
3180,-2820,-2231,1
3387,-2735,-2269,1
3557,-2680,-2297,1
3677,-2637,-2325,1
3776,-2629,-2356,1
3845,-2597,-2347,1
3838,-2560,-2338,1
3781,-2542,-2299,1
3725,-2525,-2203,1
3648,-2492,-2127,1
3584,-2471,-2026,1
3464,-2471,-2021,1
3400,-2454,-1962,1
3353,-2415,-1903,1
3365,-2397,-1858,1
3380,-2414,-1879,1
3397,-2442,-1864,1
3453,-2491,-1851,1
3505,-2508,-1831,1
3584,-2522,-1787,1
3620,-2515,-1740,1
3656,-2516,-1730,1
3710,-2496,-1684,1
3762,-2480,-1666,1
3800,-2466,-1665,1
3831,-2414,-1663,1
3824,-2310,-1654,1
3819,-2241,-1629,1
3790,-2110,-1591,1
3754,-2087,-1612,1
3753,-2069,-1592,1
3745,-2119,-1598,1
3721,-2132,-1572,1
3725,-2155,-1535,1
3739,-2133,-1478,1
3758,-2125,-1454,1
3767,-2153,-1483,1
3787,-2183,-1508,1
3749,-2159,-1554,1
3717,-2160,-1565,1
3674,-2175,-1566,1
3641,-2167,-1532,1
3596,-2146,-1498,1
3582,-2127,-1404,1
3567,-2141,-1325,1
3539,-2153,-1287,1
3509,-2139,-1253,1
3484,-2099,-1168,1
3458,-2044,-1048,1
3442,-2004,-970,1
3400,-1961,-927,1
3345,-1911,-893,1
3270,-1829,-879,1
3248,-1777,-835,1
3245,-1795,-775,1
3203,-1861,-782,1
3150,-1904,-818,1
3112,-1960,-876,1
3064,-1964,-974,1
3009,-1880,-1012,1
2995,-1746,-967,1
3003,-1720,-953,1
3054,-1731,-919,1
3095,-1714,-881,1
3121,-1684,-882,1
3160,-1605,-851,1
3187,-1521,-847,1
3265,-1480,-797,1
3391,-1545,-729,1
3460,-1574,-737,1
3459,-1562,-766,1
3486,-1525,-755,1
3524,-1458,-692,1
3495,-1382,-517,1
3481,-1382,-445,1
3397,-1265,-415,1
3268,-1104,-425,1
3170,-1031,-416,1
3145,-1134,-382,1
3124,-1264,-374,1
3032,-1325,-421,1
2903,-1337,-479,1
2724,-1280,-518,1
2526,-1235,-549,1
2308,-1170,-599,1
2136,-1208,-598,1
1994,-1289,-535,1
1848,-1264,-494,1
1717,-1201,-486,1
1626,-1134,-497,1
1579,-1122,-522,1
1562,-1165,-533,1
1540,-1210,-588,1
1526,-1203,-629,1
1480,-1143,-740,1
1427,-1057,-846,1
1401,-1022,-904,1
1357,-956,-975,1
1322,-881,-1020,1
1316,-787,-1081,1
1327,-673,-1164,1
1340,-576,-1240,1
1374,-483,-1322,1
1424,-383,-1398,1
1472,-208,-1428,1
1501,-26,-1383,1
1574,128,-1406,1
1684,283,-1396,1
1850,338,-1382,1
2090,318,-1300,1
2370,259,-1205,1
2627,200,-1113,1
2823,178,-1040,1
3002,177,-934,1
3163,141,-852,1
3319,87,-772,1
3479,70,-692,1
3635,106,-632,1
3757,163,-624,1
3840,160,-647,1
3908,101,-671,1
3933,36,-712,1
3913,-70,-774,1
3886,-220,-822,1
3860,-481,-838,1
3792,-757,-895,1
3555,-656,-857,1
3338,-636,-725,1
3059,-339,-352,1
2850,-256,-7,1
2624,-12,375,1
2343,408,661,1
2087,716,797,1
1863,973,857,1
1681,1021,798,1
1524,848,602,1
1443,577,352,1
1456,270,112,1
1590,-14,-48,1
1849,-341,-165,1
2193,-747,-235,1
2552,-1121,-282,1
2893,-1590,-402,1
3122,-1868,-646,1
3227,-2037,-1061,1
3320,-2233,-1544,1
3447,-2452,-2006,1
3654,-2690,-2330,1
3865,-2788,-2576,1
3998,-2575,-2710,1
4130,-2291,-2698,1
4265,-1938,-2556,1
4426,-1553,-2292,1
4520,-1166,-2050,1
4619,-896,-1794,1
4657,-634,-1592,1
4610,-359,-1493,1
4547,-227,-1418,1
4487,-214,-1365,1
4420,-185,-1309,1
4363,-118,-1214,1
4349,-78,-1094,1
4360,-52,-999,1
4380,-3,-966,1
4408,85,-990,1
4458,194,-1058,1
4520,381,-1132,1
4595,586,-1231,1
4662,829,-1385,1
4754,1078,-1560,1
4878,1307,-1749,1
5065,1545,-1878,1
5354,1679,-1891,1
5692,1785,-1882,1
6032,1914,-1845,1
6480,1903,-1681,1
6931,1769,-1538,1
7262,1644,-1508,1
7412,1562,-1630,1
7392,1478,-1830,1
7269,1341,-1999,1
7065,1275,-2100,1
6770,1329,-2078,1
6391,1391,-1966,1
5919,1480,-1833,1
5404,1548,-1687,1
4852,1559,-1533,1
4319,1503,-1369,1
3827,1427,-1178,1
3387,1369,-998,1
3009,1323,-854,1
2704,1295,-767,1
2481,1331,-710,1
2328,1420,-692,1
2279,1457,-671,1
2356,1441,-620,1
2516,1393,-553,1
2689,1301,-486,1
2828,1209,-439,1
2906,1101,-441,1
2963,1008,-461,1
3027,954,-458,1
3106,948,-429,1
3185,975,-405,1
3238,985,-424,1
3286,1034,-472,1
3351,1090,-534,1
3423,1148,-583,1
3516,1210,-619,1
3591,1268,-677,1
3647,1330,-755,1
3695,1398,-818,1
3753,1444,-877,1
3815,1479,-911,1
3878,1512,-915,1
3936,1528,-890,1
3994,1537,-843,1
4032,1534,-775,1
4023,1543,-711,1
3960,1543,-664,1
3867,1531,-612,1
3763,1508,-556,1
3668,1458,-499,1
3576,1425,-440,1
3505,1383,-378,1
3439,1311,-343,1
3365,1257,-325,1
3320,1200,-289,1
3289,1162,-254,1
3266,1155,-209,1
3270,1121,-145,1
3281,1084,-99,1
3279,1056,-58,1
3274,1031,-22,1
3278,1012,3,1
3289,986,19,1
3313,935,25,1
3357,880,20,1
3399,852,18,1
3420,832,14,1
3413,836,7,1
3425,815,4,1
3445,793,12,1
3440,800,11,1
3422,837,16,1
3412,845,33,1
3423,885,88,1
3433,936,155,1
3446,1018,236,1
3467,1089,310,1
3475,1152,367,1
3468,1223,408,1
3471,1285,474,1
3509,1319,550,1
3545,1343,620,1
3572,1331,629,1
3581,1285,608,1
3615,1199,640,1
3674,1082,728,1
3725,991,811,1
3747,923,869,1
3723,885,885,1
3678,826,884,1
3630,734,859,1
3563,719,848,1
3508,698,887,1
3480,611,931,1
3424,559,922,1
3346,526,899,1
3268,527,931,1
3204,500,938,1
3139,490,895,1
3079,490,804,1
3041,435,684,1
3027,365,506,1
2992,353,267,1
2952,352,12,1
2913,349,-232,1
2906,405,-388,1
2969,510,-410,1
3145,595,-290,1
3410,659,-124,1
3780,715,107,1
4137,705,336,1
4450,717,563,1
4745,755,830,1
4999,762,1105,1
5229,805,1348,1
5464,880,1547,1
5683,976,1707,1
5948,1120,1780,1
6231,1258,1773,1
6493,1361,1679,1
6736,1428,1493,1
6984,1483,1211,1
7199,1492,905,1
7299,1498,558,1
7374,1493,199,1
7413,1438,-112,1
7370,1292,-208,1
7234,1030,-74,1
7018,738,177,1
6682,474,436,1
6126,294,529,1
5417,199,541,1
4576,172,446,1
3651,165,319,1
2754,174,193,1
1948,220,103,1
1313,249,56,1
864,319,12,1
636,441,-3,1
626,554,60,1
841,667,96,1
1311,521,-33,1
1834,148,-408,1
2173,-250,-885,1
2379,-419,-1243,1
2582,-438,-1433,1
2862,-301,-1354,1
3190,8,-1153,1
3553,443,-946,1
3917,813,-826,1
4258,1078,-842,1
4595,1284,-834,1
4890,1490,-779,1
5112,1705,-708,1
5218,1852,-718,1
5189,1915,-772,1
5102,2025,-788,1
4967,2131,-738,1
4629,2113,-701,1
4324,1943,-591,1
4118,1736,-449,1
4017,1515,-349,1
4002,1339,-272,1
4053,1157,-243,1
4113,993,-269,1
4168,831,-319,1
4186,686,-394,1
4176,558,-440,1
4143,458,-494,1
4099,388,-541,1
4040,347,-576,1
3968,339,-598,1
3873,341,-633,1
3797,365,-611,1
3718,378,-601,1
3648,391,-604,1
3589,404,-614,1
3534,424,-622,1
3503,456,-606,1
3463,496,-586,1
3475,560,-514,1
3512,610,-442,1
3572,619,-376,1
3638,627,-316,1
3711,620,-259,1
3787,585,-212,1
3832,551,-176,1
3859,523,-122,1
3879,470,-62,1
3913,380,-61,1
3902,312,-70,1
3879,265,-55,1
3860,222,-28,1
3856,195,23,1
3915,89,25,1
3967,-42,-14,1
4002,-121,-61,1
4035,-149,-68,1
4067,-176,-78,1
4110,-209,-65,1
4171,-281,-112,1
4226,-357,-119,1
4247,-399,-162,1
4232,-396,-153,1
4196,-381,-117,1
4171,-380,-54,1
4136,-363,-6,1
4118,-377,28,1
4044,-309,56,1
4008,-274,124,1
3985,-254,175,1
3937,-236,217,1
3912,-231,286,1
3897,-224,366,1
3885,-219,418,1
3880,-209,470,1
3868,-196,516,1
3874,-189,557,1
3892,-183,606,1
3907,-191,635,1
3927,-199,636,1
3950,-204,631,1
3969,-195,635,1
3970,-173,632,1
3962,-153,631,1
3950,-138,639,1
3940,-120,662,1
3933,-99,681,1
3935,-83,703,1
3951,-75,718,1
3976,-94,723,1
3989,-114,722,1
4013,-141,732,1
4039,-184,734,1
4064,-238,745,1
4082,-294,758,1
4093,-354,791,1
4117,-409,827,1
4138,-455,874,1
4165,-509,899,1
4168,-590,869,1
4165,-709,808,1
4158,-839,694,1
4165,-982,585,1
4190,-1072,491,1
4267,-1099,434,1
4385,-1086,420,1
4522,-1077,430,1
4646,-1041,479,1
4754,-978,551,1
4829,-895,624,1
4909,-833,655,1
4925,-753,687,1
4929,-699,705,1
4939,-647,737,1
4961,-610,765,1
4969,-566,782,1
4972,-517,799,1
4961,-456,803,1
4955,-380,778,1
4935,-244,746,1
4879,-62,679,1
4778,167,604,1
4610,439,505,1
4464,751,434,1
4385,1002,317,1
4388,1242,144,1
4510,1442,41,1
4553,1553,-169,1
4540,1567,-337,1
4526,1602,-372,1
4579,1612,-493,1
4681,1523,-714,1
4872,1258,-957,1
4940,1097,-1095,1
5063,724,-1274,1
5032,507,-1492,1
4867,414,-1621,1
4745,207,-1711,1
4424,403,-1713,1
4192,446,-1564,1
3966,492,-1486,1
3738,618,-1360,1
3583,685,-1192,1
3425,827,-984,1
3356,921,-740,1
3367,918,-508,1
3413,966,-313,1
3490,1003,-148,1
3546,1050,-7,1
3569,1088,145,1
3607,1136,346,1
3665,1165,540,1
3730,1193,721,1
3804,1221,851,1
3874,1239,903,1
3965,1197,869,1
4062,1045,773,1
4174,874,651,1
4272,686,486,1
4350,504,291,1
4416,430,99,1
4492,363,-42,1
4590,255,-131,1
4654,213,-225,1
4683,188,-307,1
4697,180,-366,1
4718,112,-393,1
4749,38,-412,1
4768,-55,-446,1
4799,-195,-491,1
4835,-311,-525,1
4851,-440,-610,1
4846,-535,-744,1
4800,-557,-872,1
4687,-478,-963,1
4532,-312,-940,1
4339,-54,-813,1
4130,223,-625,1
3923,483,-419,1
3732,686,-229,1
3564,806,-82,1
3402,881,-7,1
3244,973,49,1
3124,1044,152,1
3046,1039,266,1
2978,1025,332,1
2890,1020,330,1
2785,996,296,1
2704,966,292,1
2673,943,298,1
2675,941,335,1
2715,925,402,1
2794,903,448,1
2884,907,449,1
3016,918,466,1
3173,920,489,1
3320,918,500,1
3462,907,511,1
3597,877,516,1
3690,841,499,1
3755,775,473,1
3785,722,451,1
3791,670,452,1
3785,617,452,1
3748,573,447,1
3695,515,468,1
3646,448,521,1
3601,353,584,1
3549,256,641,1
3469,161,692,1
3398,80,737,1
3332,37,774,1
3250,19,805,1
3218,17,849,1
3180,26,873,1
3152,35,926,1
3142,86,1032,1
3130,166,1155,1
3145,188,1248,1
3156,180,1273,1
3146,196,1211,1
3160,195,1117,1
3233,168,1002,1
3334,122,864,1
3421,98,716,1
3488,89,573,1
3522,91,401,1
3509,122,191,1
3457,179,-60,1
3398,254,-362,1
3370,314,-644,1
3339,368,-863,1
3328,429,-927,1
3392,488,-775,1
3560,550,-426,1
3830,614,76,1
4164,687,681,1
4509,794,1304,1
4791,915,1891,1
5004,1025,2424,1
5159,1103,2845,1
5320,1099,3100,1
5454,1043,3109,1
5601,921,2836,1
5762,768,2383,1
5911,596,1855,1
6007,437,1326,1
6054,287,848,1
6028,162,387,1
5978,39,-40,1
5882,-34,-394,1
5812,-74,-707,1
5761,-90,-923,1
5731,-35,-1046,1
5700,87,-1117,1
5727,258,-1129,1
5819,416,-1079,1
5976,554,-1031,1
6144,686,-989,1
6199,853,-976,1
6035,1003,-910,1
5622,1193,-893,1
5102,1433,-861,1
4600,1645,-748,1
4173,1795,-541,1
3817,1832,-335,1
3492,1763,-191,1
3245,1690,-70,1
3121,1542,22,1
3073,1325,43,1
3034,1120,-50,1
2965,933,-237,1
2874,806,-416,1
2821,702,-596,1
2789,642,-803,1
2829,650,-924,1
2929,700,-1012,1
3039,786,-1103,1
3170,913,-1163,1
3293,1060,-1195,1
3387,1224,-1195,1
3476,1381,-1159,1
3583,1567,-1091,1
3746,1767,-968,1
3957,1920,-825,1
4185,1987,-686,1
4360,2024,-566,1
4471,2006,-487,1
4516,1968,-419,1
4506,1931,-370,1
4490,1870,-299,1
4488,1771,-220,1
4461,1640,-169,1
4430,1453,-140,1
4407,1283,-139,1
4390,1061,-158,1
4342,822,-217,1
4233,599,-282,1
4098,392,-327,1
3955,201,-371,1
3785,94,-394,1
3608,15,-414,1
3447,-21,-398,1
3318,-25,-342,1
3197,11,-287,1
3097,50,-243,1
2978,142,-230,1
2884,247,-218,1
2809,378,-207,1
2755,497,-195,1
2699,624,-191,1
2639,736,-244,1
2631,858,-310,1
2790,901,-314,1
3014,937,-306,1
3246,966,-243,1
3427,971,-219,1
3554,1013,-273,1
3681,985,-399,1
3827,955,-467,1
3959,893,-425,1
4077,756,-406,1
4139,637,-385,1
4141,521,-391,1
4130,357,-438,1
4129,119,-427,1
4130,-63,-393,1
4067,-20,-317,1
3993,125,-172,1
3960,193,-27,1
3931,239,94,1
3904,221,166,1
3871,199,190,1
3835,130,170,1
3823,71,144,1
3819,13,106,1
3826,-26,84,1
3857,-22,82,1
3916,-17,64,1
3975,21,68,1
4041,45,92,1
4084,90,136,1
4134,116,169,1
4128,148,186,1
4115,210,248,1
4101,284,334,1
4059,361,370,1
4059,429,394,1
4079,466,432,1
4075,491,479,1
4064,496,511,1
4051,491,528,1
4026,479,553,1
3986,465,580,1
3958,427,584,1
3950,368,568,1
3947,295,536,1
3962,212,524,1
4002,131,542,1
4051,52,563,1
4147,-64,571,1
4216,-194,495,1
4310,-308,411,1
4424,-355,380,1
4553,-372,331,1
4677,-370,267,1
4763,-329,237,1
4820,-274,249,1
4849,-228,266,1
4837,-181,297,1
4800,-112,353,1
4745,-73,410,1
4679,-32,487,1
4621,58,569,1
4571,142,651,1
4536,221,744,1
4494,265,811,1
4464,296,871,1
4413,343,920,1
4341,412,962,1
4224,505,997,1
4084,630,1034,1
3959,747,1023,1
3822,830,910,1
3574,843,723,1
3333,954,526,1
3166,1183,319,1
3227,1409,73,1
3508,1626,-126,1
3918,1812,-352,1
4361,1917,-485,1
4748,2066,-558,1
5126,2156,-628,1
5420,2117,-768,1
5622,2014,-1018,1
5740,1798,-1260,1
5768,1564,-1482,1
5695,1408,-1628,1
5501,1313,-1632,1
5237,1181,-1600,1
4878,1113,-1533,1
4535,1026,-1445,1
4222,875,-1356,1
3890,759,-1333,1
3569,592,-1348,1
3326,418,-1287,1
3204,269,-1236,1
3198,196,-1201,1
3283,228,-1082,1
3386,359,-801,1
3525,552,-412,1
3690,754,-57,1
3820,871,167,1
3875,874,268,1
3974,757,303,1
4170,731,395,1
4404,764,422,1
4626,794,367,1
4848,796,324,1
5070,794,273,1
5282,753,227,1
5476,667,175,1
5614,567,127,1
5677,444,59,1
5705,253,-9,1
5676,69,-56,1
5606,-132,-116,1
5513,-321,-194,1
5390,-454,-242,1
5251,-594,-229,1
5102,-655,-201,1
4932,-730,-250,1
4684,-712,-353,1
4425,-557,-363,1
4180,-313,-315,1
3902,-30,-272,1
3604,149,-238,1
3371,131,-142,1
3161,84,-23,1
2953,112,63,1
2701,348,140,1
2526,665,369,1
2470,812,613,1
2528,746,692,1
2620,707,676,1
2669,854,575,1
2734,1002,517,1
2823,1124,536,1
2903,1206,569,1
2958,1259,585,1
3012,1246,577,1
3046,1249,570,1
3084,1186,564,1
3125,1113,555,1
3170,1028,544,1
3231,931,513,1
3284,865,472,1
3333,798,453,1
3406,724,458,1
3444,716,474,1
3498,662,500,1
3534,619,521,1
3542,574,518,1
3521,581,523,1
3524,548,561,1
3529,487,579,1
3524,443,599,1
3503,410,586,1
3490,392,614,1
3465,380,653,1
3442,358,720,1
3402,366,807,1
3370,374,921,1
3342,369,1025,1
3302,381,1120,1
3269,389,1221,1
3247,389,1303,1
3239,422,1328,1
3247,485,1292,1
3325,473,1275,1
3458,402,1306,1
3532,365,1275,1
3556,302,1214,1
3544,257,1173,1
3518,217,1122,1
3472,178,1035,1
3446,128,981,1
3440,62,912,1
3442,-23,824,1
3456,-107,753,1
3470,-177,640,1
3474,-227,558,1
3470,-230,420,1
3478,-188,228,1
3486,-118,1,1
3501,-30,-234,1
3563,44,-398,1
3645,76,-445,1
3777,96,-342,1
3939,95,-63,1
4109,9,379,1
4290,-75,938,1
4464,-103,1526,1
4594,-113,2063,1
4707,-125,2460,1
4801,-75,2651,1
4910,-1,2640,1
5016,75,2413,1
5133,145,2091,1
5271,221,1751,1
5422,315,1339,1
5609,392,970,1
5770,487,669,1
5944,565,500,1
6121,567,436,1
6201,558,366,1
6168,607,299,1
6117,723,192,1
6100,825,109,1
6096,905,27,1
6121,957,-39,1
6107,970,-107,1
6094,1015,-128,1
6029,1076,-165,1
5849,1175,-255,1
5507,1323,-278,1
5035,1528,-274,1
4529,1722,-263,1
3998,1928,-251,1
3481,2096,-237,1
3038,2200,-186,1
2660,2247,-74,1
2413,2178,78,1
2287,1939,162,1
2410,1534,134,1
2559,1132,-47,1
2694,917,-244,1
2831,818,-425,1
2979,801,-586,1
3150,824,-720,1
3321,871,-827,1
3462,922,-938,1
3579,972,-1030,1
3675,1081,-1075,1
3786,1173,-1104,1
3947,1245,-1097,1
4128,1303,-1064,1
4328,1367,-985,1
4502,1408,-864,1
4638,1472,-700,1
4696,1557,-562,1
4675,1647,-448,1
4619,1713,-319,1
4535,1723,-203,1
4417,1763,-99,1
4283,1799,20,1
4147,1812,102,1
4005,1812,187,1
3885,1761,249,1
3772,1701,269,1
3621,1703,272,1
3440,1757,285,1
3265,1768,260,1
3146,1729,206,1
3012,1770,162,1
2989,1623,51,1
3018,1359,-85,1
2992,1519,-23,1
3187,1188,-37,1
3351,757,-337,1
3413,571,-573,1
3514,426,-643,1
3512,541,-542,1
3513,627,-373,1
3561,547,-352,1
3628,301,-524,1
3560,-70,-802,1
3552,-90,-801,1
3568,41,-618,1
3512,367,-319,1
3514,504,-153,1
3582,366,-242,1
3718,-68,-499,1
3907,-435,-681,1
4059,-526,-699,1
4153,-231,-551,1
4191,-8,-319,1
4162,75,-126,1
4109,123,-5,1
4004,131,42,1
3929,98,80,1
3912,49,122,1
3926,0,164,1
3952,-5,195,1
3968,-60,223,1
3972,-52,271,1
3961,-31,319,1
3928,-15,358,1
3902,17,399,1
3890,26,449,1
3870,29,479,1
3844,59,518,1
3826,52,550,1
3811,61,571,1
3813,58,590,1
3800,49,611,1
3776,45,625,1
3762,57,644,1
3756,80,649,1
3750,86,636,1
3753,132,638,1
3761,170,626,1
3759,214,618,1
3733,273,575,1
3708,370,554,1
3677,479,544,1
3638,574,538,1
3610,652,550,1
3600,729,580,1
3592,773,589,1
3582,803,585,1
3555,812,566,1
3527,790,524,1
3518,716,487,1
3513,644,384,1
3528,553,220,1
3619,439,115,1
3797,328,81,1
4008,260,53,1
4236,239,29,1
4438,223,-22,1
4579,218,-94,1
4716,227,-131,1
4852,252,-142,1
4986,273,-123,1
5078,294,-79,1
5115,341,-8,1
5046,406,89,1
4902,466,223,1
4817,531,421,1
4810,605,607,1
4873,705,707,1
4958,745,899,1
5025,759,1014,1
5048,802,1066,1
5052,807,1080,1
4983,841,1055,1
4841,894,965,1
4630,1007,841,1
4404,1152,684,1
4202,1322,520,1
4088,1575,375,1
4110,1790,226,1
4204,1912,45,1
4339,1970,-20,1
4528,1984,-121,1
4729,1847,-274,1
4957,1686,-525,1
5171,1666,-653,1
5399,1690,-768,1
5521,1684,-806,1
5530,1692,-867,1
5426,1678,-926,1
5274,1687,-980,1
5076,1660,-1071,1
4853,1562,-1158,1
4611,1466,-1220,1
4375,1339,-1257,1
4152,1308,-1272,1
3904,1279,-1349,1
3650,1228,-1411,1
3423,1154,-1400,1
3227,1128,-1308,1
3063,1112,-1195,1
2940,1115,-1017,1
2892,1137,-754,1
2888,1178,-453,1
2965,1291,-122,1
3107,1395,192,1
3302,1451,437,1
3508,1486,573,1
3662,1486,566,1
3806,1369,519,1
3970,1245,472,1
4154,1184,422,1
4325,1084,303,1
4560,948,224,1
4846,808,164,1
5123,668,88,1
5393,508,-3,1
5610,357,-67,1
5784,198,-100,1
5911,26,-130,1
5938,-91,-182,1
5890,-179,-257,1
5777,-233,-313,1
5633,-231,-364,1
5446,-193,-392,1
5220,-103,-444,1
4984,-50,-438,1
4696,24,-336,1
4377,86,-237,1
4056,143,-121,1
3682,310,-57,1
3350,427,-6,1
3039,582,75,1
2778,806,204,1
2563,1002,301,1
2457,1111,419,1
2411,1221,511,1
2370,1340,541,1
2384,1406,554,1
2437,1459,558,1
2496,1481,565,1
2566,1418,539,1
2645,1315,496,1
2711,1218,445,1
2776,1144,403,1
2833,1095,372,1
2903,1025,366,1
3007,953,338,1
3109,871,304,1
3228,790,289,1
3304,751,276,1
3336,776,268,1
3357,845,314,1
3363,901,367,1
3379,924,410,1
3396,919,440,1
3407,912,486,1
3417,906,545,1
3405,882,584,1
3403,817,616,1
3410,775,688,1
3414,715,753,1
3431,634,803,1
3422,578,832,1
3386,532,863,1
3354,490,890,1
3304,442,903,1
3264,401,940,1
3220,343,963,1
3216,292,1008,1
3237,229,1022,1
3252,183,1012,1
3270,190,1024,1
3284,221,1047,1
3307,262,1098,1
3320,335,1169,1
3295,498,1303,1
3290,572,1391,1
3319,517,1375,1
3362,418,1261,1
3396,319,1117,1
3435,219,984,1
3469,134,827,1
3482,123,706,1
3510,133,600,1
3536,191,490,1
3557,243,381,1
3570,315,244,1
3590,436,105,1
3624,546,-29,1
3691,624,-117,1
3770,649,-97,1
3886,656,83,1
4047,628,398,1
4222,584,824,1
4409,535,1308,1
4566,510,1787,1
4693,477,2220,1
4810,411,2533,1
4928,348,2663,1
5081,274,2675,1
5272,195,2587,1
5437,163,2321,1
5602,152,1948,1
5720,204,1544,1
5849,226,1191,1
5950,248,842,1
5950,312,510,1
5894,370,154,1
5888,410,-124,1
5837,523,-349,1
5936,591,-509,1
6113,641,-630,1
6317,715,-732,1
6475,858,-842,1
6540,1052,-941,1
6476,1320,-1041,1
6289,1595,-1060,1
5965,1891,-963,1
5483,2085,-785,1
4871,2253,-680,1
4244,2438,-571,1
3633,2598,-444,1
3071,2721,-290,1
2620,2780,-91,1
2281,2760,137,1
2052,2617,300,1
1953,2310,301,1
2061,2004,233,1
2277,1720,52,1
2497,1541,-133,1
2723,1436,-317,1
2926,1418,-485,1
3097,1497,-576,1
3189,1589,-700,1
3268,1704,-755,1
3372,1814,-750,1
3491,1915,-715,1
3654,2017,-663,1
3853,2092,-602,1
4083,2077,-558,1
4314,1999,-547,1
4464,1930,-536,1
4582,1773,-545,1
4648,1629,-540,1
4608,1587,-510,1
4514,1598,-421,1
4395,1645,-283,1
4232,1694,-139,1
4183,1437,-105,1
4200,1061,-215,1
4065,1119,-228,1
3811,1456,-10,1
3552,1657,154,1
3350,1664,196,1
3162,1618,156,1
2956,1710,167,1
2811,1744,244,1
2830,1531,241,1
3008,965,38,1
2907,1160,-35,1
2938,1138,198,1
3064,766,116,1
3154,468,-166,1
3275,112,-315,1
3278,64,-321,1
3258,129,-227,1
3253,132,-177,1
3292,28,-230,1
3370,-130,-309,1
3422,-147,-330,1
3443,-4,-200,1
3470,144,-51,1
3453,339,47,1
3372,597,153,1
3402,639,302,1
3523,469,244,1
3665,197,48,1
3848,-165,-147,1
4022,-493,-293,1
4139,-627,-277,1
4180,-543,-134,1
4134,-414,31,1
4040,-293,164,1
3939,-199,262,1
3856,-111,333,1
3786,-66,377,1
3719,-20,398,1
3670,28,425,1
3627,70,446,1
3601,104,472,1
3609,139,487,1
3652,176,495,1
3688,208,504,1
3717,226,527,1
3731,228,544,1
3712,254,548,1
3684,281,559,1
3653,286,560,1
3626,306,560,1
3606,321,560,1
3609,314,542,1
3625,329,520,1
3661,353,512,1
3731,380,520,1
3803,403,534,1
3865,422,540,1
3924,444,557,1
3963,477,569,1
3967,510,583,1
3969,550,609,1
3931,565,577,1
3904,579,574,1
3866,619,640,1
3882,660,733,1
3865,690,759,1
3844,700,761,1
3847,693,746,1
3860,679,717,1
3904,682,696,1
3962,668,635,1
4061,642,530,1
4200,599,434,1
4377,492,315,1
4564,386,256,1
4765,292,257,1
4904,192,261,1
5038,82,305,1
5094,8,331,1
5091,-37,400,1
5095,-70,502,1
5126,-52,659,1
5164,-15,825,1
5201,70,972,1
5216,158,1066,1
5186,261,1108,1
5084,389,1082,1
4932,571,982,1
4775,752,812,1
4616,978,592,1
4524,1261,393,1
4573,1438,161,1
4632,1660,-88,1
4649,1801,-248,1
4587,1953,-354,1
4634,2029,-515,1
4756,2131,-726,1
4923,2136,-927,1
5149,2042,-1123,1
5311,2011,-1292,1
5388,1947,-1385,1
5314,1842,-1499,1
5241,1773,-1500,1
5120,1703,-1456,1
4880,1623,-1441,1
4528,1639,-1413,1
4154,1761,-1274,1
3823,1794,-1164,1
3536,1796,-1052,1
3340,1804,-872,1
3168,1847,-653,1
3007,1904,-471,1
2885,1948,-315,1
2768,1966,-200,1
2686,1990,-125,1
2654,1982,-96,1
2691,1947,-144,1
2795,1946,-202,1
2999,1978,-201,1
3247,2040,-178,1
3536,2118,-144,1
3853,2188,-87,1
4202,2226,-39,1
4536,2276,10,1
4696,2353,62,1
4871,2318,194,1
5058,2250,321,1
5192,2141,360,1
5302,1957,307,1
5382,1705,225,1
5458,1380,151,1
5527,1024,51,1
5583,636,-121,1
5608,272,-353,1
5630,-106,-615,1
5650,-439,-877,1
5645,-672,-1094,1
5625,-793,-1146,1
5565,-746,-1046,1
5392,-547,-880,1
5140,-286,-604,1
4850,-62,-259,1
4501,106,-17,1
4080,189,66,1
3638,197,68,1
3232,178,61,1
2829,250,41,1
2445,403,20,1
2198,471,56,1
2060,416,128,1
1979,368,141,1
1864,474,75,1
1789,642,96,1
1829,737,207,1
1905,856,304,1
2025,958,384,1
2152,1049,408,1
2246,1234,423,1
2334,1510,465,1
2429,1765,519,1
2560,2017,617,1
2711,2095,648,1
2875,1999,589,1
3002,1848,484,1
3099,1745,404,1
3155,1699,396,1
3196,1695,461,1
3220,1684,525,1
3248,1629,556,1
3277,1562,566,1
3310,1484,560,1
3325,1388,561,1
3313,1294,553,1
3289,1211,540,1
3246,1120,536,1
3205,1029,562,1
3170,926,615,1
3141,807,686,1
3117,677,749,1
3090,564,786,1
3063,470,797,1
3067,398,800,1
3080,350,792,1
3119,333,802,1
3192,328,830,1
3258,330,843,1
3331,336,840,1
3390,345,820,1
3431,331,785,1
3452,320,713,1
3447,326,603,1
3447,348,506,1
3472,387,394,1
3510,481,271,1
3578,587,161,1
3667,696,79,1
3778,814,19,1
3884,928,-46,1
3998,999,-74,1
4095,1060,-80,1
4187,1129,-25,1
4313,1200,120,1
4464,1278,384,1
4644,1336,759,1
4832,1340,1133,1
5026,1306,1487,1
5259,1213,1777,1
5535,1096,1982,1
5791,1044,2105,1
5936,1010,2117,1
6086,942,2087,1
6159,863,1994,1
6148,752,1832,1
6104,637,1647,1
6037,452,1396,1
5889,274,1096,1
5607,354,863,1
5272,694,873,1
5086,694,819,1
4994,525,620,1
4903,437,345,1
4852,464,61,1
4832,576,-213,1
4836,755,-496,1
4867,963,-773,1
4883,1227,-1001,1
4935,1472,-1135,1
5013,1720,-1129,1
5046,1984,-1017,1
4974,2240,-838,1
4785,2463,-626,1
4494,2693,-437,1
4198,2870,-265,1
3917,2970,-69,1
3641,2988,73,1
3335,2940,166,1
3033,2844,257,1
2756,2665,344,1
2510,2393,381,1
2368,2002,325,1
2335,1597,190,1
2377,1282,8,1
2516,1051,-171,1
2731,926,-351,1
2922,890,-556,1
3063,944,-712,1
3158,1029,-771,1
3231,1108,-790,1
3320,1177,-798,1
3407,1246,-837,1
3532,1335,-881,1
3714,1447,-883,1
3950,1575,-833,1
4224,1687,-752,1
4438,1787,-655,1
4538,1886,-533,1
4520,1955,-425,1
4405,2025,-337,1
4231,2109,-223,1
4031,2175,-102,1
