accelerometer_x,accelerometer_y,accelerometer_z,fall
3594,-989,1677,0
3605,-958,1692,0
3594,-900,1735,0
3584,-824,1739,0
3554,-785,1750,0
3514,-758,1740,0
3464,-704,1718,0
3443,-568,1726,0
3417,-492,1751,0
3412,-527,1774,0
3381,-555,1752,0
3364,-648,1669,0
3350,-617,1649,0
3380,-617,1653,0
3417,-601,1665,0
3456,-542,1689,0
3498,-573,1711,0
3533,-672,1725,0
3571,-784,1709,0
3613,-888,1709,0
3649,-913,1708,0
3701,-936,1713,0
3747,-999,1723,0
3762,-1041,1753,0
3779,-1102,1752,0
3791,-1055,1781,0
3805,-1031,1791,0
3823,-1009,1835,0
3812,-1052,1806,0
3795,-961,1832,0
3771,-958,1835,0
3738,-915,1837,0
3702,-922,1793,0
3651,-904,1761,0
3623,-870,1761,0
3592,-837,1769,0
3566,-837,1752,0
3548,-842,1766,0
3528,-849,1759,0
3491,-835,1757,0
3479,-769,1790,0
3472,-759,1805,0
3448,-744,1816,0
3428,-719,1825,0
3407,-697,1808,0
3408,-694,1794,0
3422,-692,1781,0
3458,-685,1771,0
3500,-672,1776,0
3533,-656,1782,0
3567,-654,1786,0
3592,-661,1786,0
3625,-665,1795,0
3670,-661,1795,0
3701,-663,1794,0
3700,-625,1808,0
3692,-603,1793,0
3688,-602,1763,0
3692,-588,1732,0
3704,-579,1733,0
3696,-586,1718,0
3696,-592,1696,0
3710,-597,1688,0
3717,-578,1697,0
3702,-543,1708,0
3690,-523,1731,0
3698,-524,1745,0
3699,-531,1757,0
3694,-540,1749,0
3707,-529,1754,0
3711,-508,1761,0
3699,-512,1748,0
3681,-523,1744,0
3644,-539,1725,0
3610,-554,1715,0
3604,-568,1726,0
3606,-586,1751,0
3621,-590,1746,0
3616,-610,1750,0
3610,-605,1774,0
3600,-581,1807,0
3577,-549,1810,0
3554,-468,2014,0
3509,-483,1817,0
3461,-511,1725,0
3440,-561,1675,0
3441,-680,1639,0
3462,-797,1624,0
3485,-881,1647,0
3529,-846,1771,0
3498,-933,1702,0
3508,-882,1730,0
3550,-763,1796,0
3607,-654,1882,0
3683,-616,1944,0
3756,-650,1986,0
3803,-725,1981,0
3812,-792,1969,0
3780,-857,1946,0
3712,-904,1913,0
3625,-959,1874,0
3520,-978,1846,0
3424,-968,1827,0
3358,-1035,1789,0
3263,-1027,1832,0
3199,-1001,1856,0
3188,-976,1905,0
3221,-947,1958,0
3266,-912,2003,0
3337,-931,2008,0
3379,-921,2017,0
3414,-950,1985,0
3440,-989,1929,0
3449,-1019,1875,0
3453,-1050,1822,0
3457,-1052,1776,0
3448,-1028,1747,0
3445,-1031,1709,0
3456,-1044,1675,0
3471,-1019,1658,0
3471,-979,1660,0
3472,-960,1658,0
3497,-973,1628,0
3503,-912,1639,0
3520,-879,1645,0
3546,-863,1650,0
3570,-861,1649,0
3611,-844,1649,0
3627,-802,1687,0
3647,-815,1670,0
3649,-795,1665,0
3652,-771,1652,0
3659,-745,1645,0
3667,-718,1623,0
3694,-726,1579,0
3712,-684,1567,0
3743,-671,1560,0
3777,-665,1550,0
3801,-658,1542,0
3816,-660,1541,0
3848,-675,1520,0
3880,-648,1518,0
3927,-635,1514,0
3977,-598,1514,0
4031,-536,1502,0
4065,-469,1477,0
4087,-391,1456,0
4114,-361,1423,0
4147,-395,1376,0
4171,-472,1296,0
4165,-576,1189,0
4120,-676,1075,0
4022,-756,984,0
3868,-822,911,0
3677,-870,879,0
3480,-933,872,0
3297,-1003,884,0
3173,-1108,917,0
3101,-1212,984,0
3094,-1325,1041,0
3137,-1439,1094,0
3227,-1559,1143,0
3327,-1638,1179,0
3445,-1702,1199,0
3557,-1721,1211,0
3655,-1710,1204,0
3734,-1652,1195,0
3796,-1587,1186,0
3833,-1513,1172,0
3854,-1448,1151,0
3879,-1402,1129,0
3903,-1395,1093,0
3918,-1377,1064,0
3935,-1357,1036,0
3933,-1324,1019,0
3915,-1292,1011,0
3877,-1259,1007,0
3815,-1226,996,0
3730,-1210,996,0
3628,-1238,1016,0
3516,-1300,1034,0
3397,-1387,1066,0
3274,-1476,1081,0
3148,-1537,1074,0
3040,-1557,1047,0
2962,-1536,1007,0
2926,-1478,960,0
2930,-1406,920,0
2966,-1351,881,0
3032,-1310,839,0
3106,-1279,794,0
3186,-1227,753,0
3268,-1183,705,0
3350,-1127,653,0
3434,-1068,612,0
3507,-1009,574,0
3568,-951,544,0
3619,-902,517,0
3654,-837,488,0
3672,-776,473,0
3675,-716,475,0
3659,-655,481,0
3631,-595,500,0
3600,-550,528,0
3566,-515,551,0
3535,-489,575,0
3517,-471,590,0
3507,-474,600,0
3482,-474,602,0
3479,-478,616,0
3494,-500,625,0
3522,-556,661,0
3571,-649,709,0
3638,-772,765,0
3716,-857,830,0
3791,-928,883,0
3868,-1006,913,0
3941,-1081,944,0
4004,-1125,986,0
4045,-1153,1011,0
4052,-1130,1052,0
4051,-1065,1131,0
4042,-1002,1213,0
4029,-966,1276,0
3993,-960,1313,0
3956,-969,1342,0
3926,-990,1367,0
3894,-1023,1399,0
3886,-1038,1433,0
3885,-1070,1475,0
3889,-1087,1539,0
3912,-1109,1610,0
3945,-1134,1701,0
3976,-1151,1815,0
4039,-1182,1913,0
4089,-1283,1982,0
4137,-1425,1998,0
4203,-1544,2005,0
4258,-1671,2012,0
4303,-1777,2012,0
4342,-1792,1993,0
4340,-1863,2051,0
4315,-1779,2046,0
4253,-1753,2060,0
4192,-1652,1986,0
4122,-1581,1922,0
4039,-1444,1827,0
3955,-1340,1748,0
3877,-1200,1688,0
3803,-1109,1627,0
3734,-1015,1567,0
3692,-951,1492,0
3682,-911,1455,0
3704,-897,1438,0
3756,-875,1437,0
3822,-795,1442,0
3875,-667,1448,0
3897,-576,1438,0
3926,-539,1420,0
4003,-578,1428,0
4057,-661,1413,0
4078,-721,1383,0
4059,-810,1269,0
4048,-802,1226,0
4043,-742,1218,0
4036,-677,1209,0
4023,-589,1186,0
4005,-509,1165,0
3981,-450,1129,0
3957,-388,1070,0
3925,-316,1002,0
3885,-216,927,0
3849,-99,866,0
3827,14,809,0
3823,119,773,0
3840,201,756,0
3862,256,747,0
3887,310,743,0
3917,362,740,0
3944,405,743,0
3976,430,747,0
4006,425,759,0
4036,401,765,0
4051,353,771,0
4051,312,799,0
4036,278,818,0
4014,266,858,0
3983,253,911,0
3953,223,951,0
3915,187,994,0
3873,167,1034,0
3829,147,1070,0
3785,148,1092,0
3746,175,1114,0
3713,225,1138,0
3687,272,1155,0
3660,321,1179,0
3649,375,1199,0
3656,415,1222,0
3676,427,1234,0
3701,420,1237,0
3722,375,1231,0
3745,321,1225,0
3761,270,1233,0
3774,221,1258,0
3782,190,1283,0
3781,174,1309,0
3766,174,1337,0
3748,190,1352,0
3729,206,1352,0
3709,215,1354,0
3695,208,1359,0
3690,178,1344,0
3701,117,1346,0
3712,50,1370,0
3732,-6,1410,0
3755,-53,1442,0
3779,-72,1471,0
3798,-57,1504,0
3814,-11,1544,0
3818,38,1575,0
3810,66,1575,0
3797,72,1562,0
3773,60,1554,0
3761,39,1562,0
3739,11,1557,0
3726,-15,1549,0
3719,-21,1535,0
3720,-11,1516,0
3728,2,1496,0
3741,30,1482,0
3759,65,1469,0
3786,117,1455,0
3812,182,1429,0
3839,224,1381,0
3859,184,1333,0
3872,118,1296,0
3903,12,1279,0
3955,-91,1278,0
3979,-118,1288,0
3997,-86,1302,0
4014,-42,1290,0
4035,28,1281,0
4067,78,1270,0
4084,146,1261,0
4076,224,1218,0
4050,295,1150,0
4032,291,1091,0
4027,269,1081,0
4020,217,1051,0
4013,171,1037,0
4013,141,1041,0
4016,126,1022,0
4008,131,1023,0
4017,136,1013,0
4030,143,1007,0
4048,122,1021,0
4048,105,1020,0
4041,109,1031,0
4019,136,1057,0
4011,152,1062,0
4026,103,1052,0
3988,53,977,0
3962,54,933,0
3975,65,947,0
3982,93,988,0
3986,88,1006,0
3993,96,1026,0
3993,81,1040,0
3975,101,1056,0
3960,123,1068,0
3964,134,1094,0
3949,140,1116,0
3937,129,1132,0
3927,136,1142,0
3907,160,1159,0
3893,175,1191,0
3879,205,1235,0
3859,171,1245,0
3845,182,1259,0
3833,189,1275,0
3827,183,1293,0
3819,204,1317,0
3807,192,1312,0
3811,202,1302,0
3812,223,1310,0
3795,239,1307,0
3790,241,1284,0
3779,265,1266,0
3753,292,1251,0
3732,305,1253,0
3720,292,1252,0
3715,276,1263,0
3713,238,1269,0
3736,185,1274,0
3747,154,1290,0
3765,116,1314,0
3788,77,1323,0
3812,39,1321,0
3832,0,1313,0
3852,-45,1297,0
3865,-94,1278,0
3867,-144,1245,0
3858,-183,1222,0
3839,-202,1209,0
3816,-203,1203,0
3798,-193,1204,0
3785,-171,1217,0
3784,-153,1223,0
3784,-106,1243,0
3777,-78,1248,0
3758,-38,1258,0
3748,-19,1277,0
3753,5,1306,0
3771,32,1330,0
3793,38,1345,0
3819,41,1354,0
3860,42,1366,0
3906,55,1382,0
3947,67,1398,0
3986,72,1412,0
4022,62,1425,0
4063,19,1438,0
4082,-9,1430,0
4079,-31,1411,0
4037,-43,1373,0
3957,-21,1332,0
3874,14,1313,0
3771,36,1297,0
3634,27,1272,0
3516,-19,1278,0
3434,-83,1325,0
3379,-121,1387,0
3364,-159,1389,0
3403,-139,1375,0
3467,-98,1355,0
3554,-67,1324,0
3660,-49,1286,0
3773,-25,1276,0
3874,10,1294,0
3953,74,1321,0
4004,137,1347,0
4025,199,1356,0
4027,249,1348,0
4022,309,1346,0
4019,374,1344,0
3998,430,1336,0
3963,488,1319,0
3918,538,1293,0
3862,586,1262,0
3796,629,1222,0
3741,654,1180,0
3700,668,1148,0
3681,665,1125,0
3681,651,1114,0
3698,629,1113,0
3721,596,1123,0
3754,571,1137,0
3787,543,1157,0
3823,514,1180,0
3862,488,1200,0
3890,468,1214,0
3913,444,1232,0
3930,431,1239,0
3935,414,1238,0
3940,400,1234,0
3940,394,1223,0
3935,394,1207,0
3925,387,1194,0
3910,385,1187,0
3895,387,1181,0
3875,387,1178,0
3848,379,1183,0
3823,380,1189,0
3807,371,1198,0
3793,362,1206,0
3783,355,1212,0
3781,346,1214,0
3781,337,1224,0
3785,328,1232,0
3794,321,1235,0
3811,313,1241,0
3828,301,1251,0
3844,293,1262,0
3859,287,1272,0
3868,282,1285,0
3869,279,1292,0
3872,276,1303,0
3871,270,1310,0
3865,263,1319,0
3861,259,1326,0
3856,253,1333,0
3852,244,1336,0
3840,236,1342,0
3830,226,1350,0
3821,212,1359,0
3812,187,1363,0
3803,190,1376,0
3791,186,1376,0
3787,179,1377,0
3791,162,1382,0
3793,153,1384,0
3799,140,1390,0
3796,129,1396,0
3797,125,1400,0
3800,121,1404,0
3796,116,1408,0
3798,113,1409,0
3797,106,1413,0
3793,106,1409,0
3791,111,1403,0
3791,115,1397,0
3789,109,1395,0
3785,105,1393,0
3785,98,1393,0
3787,91,1397,0
3787,91,1402,0
3785,88,1409,0
3781,93,1410,0
3774,90,1412,0
3776,88,1417,0
3772,67,1427,0
3776,52,1431,0
3777,51,1430,0
3780,53,1430,0
3783,63,1433,0
3785,68,1427,0
3789,69,1425,0
3797,65,1413,0
3799,60,1401,0
3796,48,1388,0
3793,43,1377,0
3790,39,1367,0
3789,40,1354,0
3783,49,1352,0
3773,50,1355,0
3768,53,1358,0
3767,56,1357,0
3765,57,1363,0
3764,60,1366,0
3764,64,1374,0
3770,66,1382,0
3777,62,1387,0
3777,63,1388,0
3777,61,1388,0
3772,65,1386,0
3767,69,1386,0
3764,75,1386,0
3761,75,1382,0
3758,82,1377,0
3761,86,1380,0
3767,93,1384,0
3777,97,1382,0
3784,104,1385,0
3794,109,1387,0
3805,115,1390,0
3810,127,1392,0
3817,134,1392,0
3818,140,1391,0
3816,147,1386,0
3810,158,1381,0
3803,167,1374,0
3795,179,1376,0
3792,185,1372,0
3788,197,1370,0
3784,206,1367,0
3786,215,1369,0
3794,223,1367,0
3798,230,1365,0
3803,237,1366,0
3805,239,1361,0
3806,246,1359,0
3806,257,1356,0
3805,255,1356,0
3808,258,1357,0
3814,262,1351,0
3812,260,1348,0
3810,257,1350,0
3805,257,1349,0
3798,262,1348,0
3789,263,1344,0
3783,262,1339,0
3776,266,1328,0
3775,274,1332,0
3777,263,1341,0
3780,262,1345,0
3785,261,1349,0
3796,260,1349,0
3808,261,1352,0
3815,267,1347,0
3824,270,1347,0
3835,276,1354,0
3846,271,1353,0
3855,262,1347,0
3859,252,1342,0
3856,254,1337,0
3854,236,1329,0
3850,234,1331,0
3835,233,1327,0
3824,231,1326,0
3810,233,1324,0
3801,230,1326,0
3796,230,1328,0
3793,230,1332,0
3793,228,1335,0
3795,225,1334,0
3799,220,1334,0
3807,218,1337,0
3807,216,1337,0
3809,211,1338,0
3811,207,1340,0
3813,200,1341,0
3809,197,1343,0
3810,195,1348,0
3809,188,1348,0
3810,182,1350,0
3810,179,1350,0
3810,178,1351,0
3805,175,1357,0
3801,175,1356,0
3800,172,1362,0
3797,173,1364,0
3796,172,1368,0
3794,166,1371,0
3790,163,1373,0
3789,160,1377,0
3787,154,1377,0
3790,148,1377,0
3791,146,1379,0
3797,142,1381,0
3798,142,1384,0
3791,139,1387,0
3796,135,1390,0
3792,130,1389,0
3790,131,1389,0
3792,133,1388,0
3797,133,1391,0
3803,135,1396,0
3805,135,1400,0
3804,133,1398,0
3796,129,1398,0
3795,130,1394,0
3791,128,1389,0
3785,125,1383,0
3785,125,1383,0
3787,124,1383,0
3790,125,1381,0
3786,126,1381,0
3788,124,1377,0
3787,125,1377,0
3786,126,1380,0
3788,128,1379,0
3784,131,1377,0
3787,133,1380,0
3789,138,1379,0
3792,142,1376,0
3804,141,1374,0
3813,142,1370,0
3818,144,1364,0
3819,143,1354,0
3816,146,1349,0
3815,150,1343,0
3808,155,1339,0
3806,160,1339,0
3807,165,1342,0
3801,171,1345,0
3799,173,1346,0
3799,175,1353,0
3794,176,1357,0
3790,176,1365,0
3788,176,1370,0
3789,178,1369,0
3787,182,1371,0
3787,182,1375,0
3787,184,1374,0
3788,185,1372,0
3792,182,1372,0
3792,182,1371,0
3795,184,1372,0
3797,191,1369,0
3800,196,1371,0
3805,193,1369,0
3811,193,1367,0
3813,194,1364,0
3812,195,1366,0
3813,194,1365,0
3811,196,1359,0
3810,197,1357,0
3810,197,1359,0
3807,200,1358,0
3802,204,1355,0
3806,201,1350,0
3800,202,1351,0
3799,199,1354,0
3799,201,1351,0
3798,202,1349,0
3802,199,1347,0
3806,200,1346,0
3811,201,1346,0
3816,196,1343,0
3810,189,1341,0
3808,188,1341,0
3807,189,1343,0
3805,190,1342,0
3801,189,1338,0
3801,188,1337,0
3803,190,1343,0
3805,193,1345,0
3809,195,1348,0
3813,193,1352,0
3813,189,1350,0
3819,189,1350,0
3821,184,1351,0
3822,181,1345,0
3822,181,1342,0
3820,180,1338,0
3815,180,1338,0
3806,179,1337,0
3802,176,1340,0
3801,176,1339,0
3799,175,1340,0
3802,172,1345,0
3807,177,1352,0
3809,176,1358,0
3813,174,1359,0
3818,174,1359,0
3823,172,1363,0
3823,170,1363,0
3826,159,1360,0
3823,163,1361,0
3821,164,1361,0
3817,158,1360,0
3812,154,1359,0
3810,152,1362,0
3801,157,1363,0
3795,152,1362,0
3791,147,1362,0
3785,148,1363,0
3782,152,1364,0
3784,152,1366,0
3787,149,1367,0
3786,150,1366,0
3790,147,1367,0
3795,148,1368,0
3800,146,1369,0
3806,147,1369,0
3812,149,1368,0
3816,149,1368,0
3818,148,1367,0
3814,147,1363,0
3814,147,1360,0
3814,146,1356,0
3807,149,1354,0
3807,149,1353,0
3806,150,1353,0
3802,149,1353,0
3802,153,1351,0
3798,149,1355,0
3797,154,1359,0
3794,155,1359,0
3795,155,1363,0
3798,157,1364,0
3798,156,1364,0
3802,156,1367,0
3803,159,1368,0
3801,158,1370,0
3803,155,1370,0
3807,156,1369,0
3810,155,1360,0
3811,156,1357,0
3814,154,1355,0
3814,157,1349,0
3815,155,1350,0
3812,159,1350,0
3808,164,1352,0
3803,165,1353,0
3802,167,1356,0
3800,168,1354,0
3800,169,1353,0
3800,168,1354,0
3803,166,1352,0
3805,172,1354,0
3805,172,1356,0
3812,174,1353,0
3815,172,1353,0
3821,173,1345,0
3827,176,1344,0
3829,175,1333,0
3826,172,1328,0
3823,176,1326,0
3822,178,1326,0
3822,178,1325,0
3818,179,1323,0
3816,181,1327,0
3811,181,1333,0
3810,183,1339,0
3811,182,1339,0
3811,183,1342,0
3811,181,1347,0
3811,180,1352,0
3811,176,1355,0
3808,169,1358,0
3808,171,1356,0
3803,171,1358,0
3804,169,1357,0
3800,166,1354,0
3802,164,1354,0
3807,164,1352,0
3807,162,1352,0
3810,160,1353,0
3811,160,1350,0
3808,157,1353,0
3806,161,1354,0
3804,159,1353,0
3804,159,1349,0
3802,161,1350,0
3804,164,1351,0
3806,159,1347,0
3809,161,1341,0
3807,161,1341,0
3807,159,1338,0
3810,162,1334,0
3813,159,1331,0
3817,159,1333,0
3817,159,1335,0
3818,158,1335,0
3816,159,1340,0
3816,155,1335,0
3809,153,1337,0
3804,151,1342,0
3797,155,1340,0
3797,153,1343,0
3799,150,1340,0
3798,150,1341,0
3803,153,1342,0
3809,152,1346,0
3813,151,1342,0
3816,151,1344,0
3817,150,1346,0
3818,153,1345,0
3817,155,1346,0
3819,154,1347,0
3816,152,1348,0
3816,155,1346,0
3816,157,1345,0
3814,161,1345,0
3812,162,1348,0
3810,162,1348,0
3804,164,1353,0
3804,167,1351,0
3799,169,1353,0
3801,170,1354,0
3799,171,1355,0
3798,173,1357,0
3796,175,1354,0
3801,172,1355,0
3804,173,1356,0
3811,174,1361,0
3813,172,1362,0
3813,172,1361,0
3811,173,1358,0
3810,169,1358,0
3812,168,1362,0
3813,170,1359,0
3814,172,1359,0
3813,172,1355,0
3812,167,1360,0
3807,164,1358,0
3804,160,1359,0
3805,162,1356,0
3806,164,1357,0
3807,163,1359,0
3806,161,1361,0
3804,162,1358,0
3809,162,1358,0
3811,161,1356,0
3807,161,1354,0
3810,160,1349,0
3810,160,1348,0
3813,163,1346,0
3812,165,1344,0
3808,164,1345,0
3809,166,1341,0
3806,164,1342,0
3803,167,1342,0
3798,167,1342,0
3801,169,1344,0
3798,170,1350,0
3799,168,1353,0
3800,167,1357,0
3799,165,1360,0
3799,164,1366,0
3799,164,1367,0
3797,164,1366,0
3800,165,1364,0
3804,165,1361,0
3802,165,1362,0
3808,160,1361,0
3808,157,1357,0
3810,157,1357,0
3810,157,1360,0
3807,157,1362,0
3809,157,1364,0
3800,154,1362,0
3792,158,1365,0
3795,153,1369,0
3794,153,1366,0
3796,151,1363,0
3800,157,1362,0
3797,157,1364,0
3802,163,1363,0
3799,163,1366,0
3804,164,1368,0
3812,164,1359,0
3819,164,1359,0
3827,163,1356,0
3827,163,1349,0
3826,163,1344,0
3827,166,1344,0
3826,169,1339,0
3821,170,1341,0
3817,176,1341,0
3812,176,1342,0
3805,176,1346,0
3802,172,1351,0
3797,169,1357,0
3794,170,1360,0
3787,168,1365,0
3786,167,1371,0
3784,167,1374,0
3787,167,1373,0
3787,166,1370,0
3786,164,1369,0
3787,159,1369,0
3792,156,1371,0
3799,159,1366,0
3800,158,1372,0
3802,157,1368,0
3806,156,1366,0
3807,159,1361,0
3804,159,1361,0
3802,161,1363,0
3801,164,1361,0
3803,164,1364,0
3800,164,1364,0
3798,164,1359,0
3796,163,1355,0
3797,165,1356,0
3799,165,1352,0
3803,169,1354,0
3806,168,1355,0
3806,166,1355,0
3807,167,1354,0
3807,168,1353,0
3805,169,1351,0
3805,170,1353,0
3800,172,1355,0
3799,169,1356,0
3799,171,1359,0
3800,172,1358,0
3799,173,1360,0
3798,173,1360,0
3802,175,1358,0
3803,176,1358,0
3803,177,1358,0
3803,174,1360,0
3804,172,1360,0
3805,174,1361,0
3806,174,1361,0
3804,175,1361,0
3799,173,1359,0
3803,169,1360,0
3803,173,1357,0
3802,175,1357,0
3804,171,1358,0
3805,172,1357,0
3808,174,1360,0
3804,175,1360,0
3805,172,1359,0
3804,175,1358,0
3803,173,1364,0
3807,172,1364,0
3809,175,1363,0
3805,175,1362,0
3803,176,1361,0
3803,175,1366,0
3802,172,1366,0
3800,171,1365,0
3807,171,1369,0
3807,171,1366,0
3806,175,1366,0
3802,172,1364,0
3801,174,1369,0
3802,171,1365,0
3805,171,1365,0
3805,169,1366,0
3803,168,1369,0
3804,165,1364,0
3804,162,1364,0
3801,161,1360,0
3803,161,1361,0
3801,164,1362,0
3801,165,1363,0
3802,162,1366,0
3803,158,1363,0
3806,157,1366,0
3805,161,1364,0
3802,162,1363,0
3804,160,1365,0
3808,162,1360,0
3801,162,1360,0
3804,163,1361,0
3805,161,1357,0
3801,164,1356,0
3796,161,1357,0
3795,163,1358,0
3793,160,1359,0
3796,161,1360,0
3794,165,1363,0
3796,164,1363,0
3794,162,1368,0
3798,163,1374,0
3798,166,1375,0
3798,168,1377,0
3805,169,1379,0
3802,170,1375,0
3808,169,1371,0
3809,167,1371,0
3808,166,1368,0
3807,165,1361,0
3806,165,1362,0
3804,165,1362,0
3807,165,1362,0
3805,164,1363,0
3806,166,1366,0
3804,165,1366,0
3802,169,1367,0
3797,169,1372,0
3795,172,1369,0
3798,174,1369,0
3798,178,1367,0
3796,179,1369,0
3802,178,1370,0
3807,180,1368,0
3812,181,1371,0
3819,179,1370,0
3823,173,1364,0
3825,175,1358,0
3824,171,1355,0
3821,169,1350,0
3818,167,1345,0
3811,168,1343,0
3810,169,1342,0
3804,173,1338,0
3803,174,1338,0
3806,177,1343,0
3807,177,1350,0
3808,179,1356,0
3803,174,1360,0
3799,176,1365,0
3797,174,1369,0
3794,175,1371,0
3794,174,1372,0
3794,172,1375,0
3790,170,1375,0
3790,169,1370,0
3790,165,1368,0
3791,163,1365,0
3793,162,1366,0
3797,162,1364,0
3794,159,1363,0
3795,164,1361,0
3798,161,1361,0
3796,162,1363,0
3795,161,1366,0
3793,160,1372,0
3790,163,1372,0
3789,161,1371,0
3789,164,1371,0
3786,163,1370,0
3783,167,1369,0
3784,166,1365,0
3787,168,1364,0
3788,170,1366,0
3787,170,1367,0
3794,171,1373,0
3791,175,1374,0
3795,176,1376,0
3793,176,1381,0
3792,179,1385,0
3787,182,1387,0
3785,184,1388,0
3785,181,1391,0
3783,179,1391,0
3785,179,1392,0
3785,176,1395,0
3783,178,1396,0
3787,180,1393,0
3788,179,1395,0
3789,178,1391,0
3792,177,1392,0
3794,171,1394,0
3797,166,1389,0
3803,166,1389,0
3802,163,1388,0
3803,164,1387,0
3802,159,1386,0
3798,161,1389,0
3797,165,1389,0
3799,166,1384,0
3797,167,1384,0
3796,165,1381,0
3798,160,1380,0
3799,164,1377,0
3799,166,1375,0
3798,166,1369,0
3799,164,1371,0
3801,166,1371,0
3803,163,1366,0
3810,160,1365,0
3809,161,1364,0
3811,163,1358,0
3810,167,1355,0
3806,166,1353,0
3808,165,1348,0
3808,166,1344,0
3812,168,1343,0
3809,171,1346,0
3807,170,1346,0
3805,169,1345,0
3804,170,1343,0
3809,173,1342,0
3806,176,1339,0
3805,175,1340,0
3809,177,1340,0
3806,174,1342,0
3805,174,1342,0
3809,173,1345,0
3807,175,1345,0
3808,176,1350,0
3809,178,1350,0
3805,178,1351,0
3807,178,1353,0
3806,179,1355,0
3806,181,1357,0
3807,180,1356,0
3808,179,1358,0
3809,182,1362,0
3802,184,1364,0
3804,181,1366,0
3799,179,1370,0
3797,179,1372,0
3801,176,1372,0
3802,172,1375,0
3801,174,1375,0
3800,174,1377,0
3802,172,1381,0
3801,171,1382,0
3808,169,1381,0
3806,173,1379,0
3806,169,1378,0
3802,168,1375,0
3800,166,1373,0
3799,170,1374,0
3801,169,1370,0
3797,168,1369,0
3796,171,1368,0
3793,173,1366,0
3793,169,1365,0
3789,168,1372,0
3788,171,1374,0
3788,173,1370,0
3792,173,1372,0
3800,174,1376,0
3800,171,1366,0
3796,169,1369,0
3799,167,1374,0
3807,168,1377,0
3810,167,1374,0
3815,165,1368,0
3814,160,1366,0
3813,160,1366,0
3811,159,1370,0
3806,159,1368,0
3798,159,1370,0
3793,164,1366,0
3789,163,1365,0
3788,165,1363,0
3784,165,1368,0
3788,163,1374,0
3785,161,1380,0
3786,163,1385,0
3786,161,1390,0
3783,160,1393,0
3780,157,1398,0
3782,159,1401,0
3782,159,1401,0
3785,159,1396,0
3788,159,1399,0
3787,158,1397,0
3789,159,1396,0
3790,160,1393,0
3791,158,1389,0
3795,161,1390,0
3795,160,1387,0
3800,160,1385,0
3794,160,1388,0
3793,159,1387,0
3792,156,1386,0
3794,159,1384,0
3795,162,1381,0
3794,164,1378,0
3791,163,1376,0
3791,161,1372,0
3791,166,1369,0
3791,163,1369,0
3791,164,1368,0
3795,164,1365,0
3795,167,1362,0
3798,167,1361,0
3798,170,1360,0
3796,171,1360,0
3797,174,1360,0
3796,174,1362,0
3796,173,1362,0
3796,175,1359,0
3798,177,1362,0
3799,179,1361,0
3796,180,1363,0
3798,177,1360,0
3805,180,1362,0
3800,177,1359,0
3796,177,1357,0
3793,177,1358,0
3792,178,1360,0
3793,175,1360,0
3802,176,1361,0
3802,179,1360,0
3802,179,1360,0
3802,182,1362,0
3803,183,1363,0
3801,177,1365,0
3800,178,1366,0
3799,179,1370,0
3801,179,1369,0
3806,179,1369,0
3805,177,1370,0
3801,177,1370,0
3798,177,1374,0
3799,176,1372,0
3796,174,1374,0
3797,172,1377,0
3800,172,1374,0
3798,169,1374,0
3802,169,1373,0
3799,167,1375,0
3798,164,1378,0
3795,161,1375,0
3799,161,1376,0
3796,161,1376,0
3794,158,1378,0
3792,160,1377,0
3797,161,1378,0
3797,161,1377,0
3794,161,1375,0
3798,161,1375,0
3796,161,1377,0
3799,160,1375,0
3798,160,1374,0
3797,159,1373,0
3795,158,1374,0
3795,158,1370,0
3796,159,1371,0
3802,161,1372,0
3800,161,1371,0
3799,159,1368,0
3798,158,1365,0
3796,159,1366,0
3796,164,1364,0
3797,164,1357,0
3798,163,1357,0
3796,162,1362,0
3798,160,1363,0
3799,160,1364,0
3795,163,1368,0
3794,163,1367,0
3798,165,1367,0
3796,165,1369,0
3799,165,1371,0
3798,165,1374,0
3799,165,1374,0
3796,165,1379,0
3798,167,1380,0
3802,164,1378,0
3803,166,1378,0
3803,165,1379,0
3800,165,1374,0
3796,166,1370,0
3795,167,1368,0
3797,168,1369,0
3801,166,1371,0
3799,167,1371,0
3800,167,1373,0
3801,169,1374,0
3800,170,1372,0
3801,172,1372,0
3800,176,1368,0
3802,175,1367,0
3802,178,1367,0
3807,180,1364,0
3811,178,1366,0
3816,175,1365,0
3820,172,1363,0
3821,169,1357,0
3821,170,1351,0
3820,168,1352,0
3818,168,1344,0
3815,170,1344,0
3812,168,1345,0
3804,171,1348,0
3799,172,1348,0
3797,171,1349,0
3794,173,1351,0
3798,172,1359,0
3796,172,1366,0
3794,171,1366,0
3801,171,1370,0
3801,169,1374,0
3798,170,1378,0
3796,169,1380,0
3795,169,1379,0
3795,164,1379,0
3795,165,1379,0
3797,165,1379,0
3794,164,1373,0
3793,162,1369,0
3796,163,1370,0
3795,163,1368,0
3794,163,1368,0
3793,163,1365,0
3792,164,1364,0
3795,164,1365,0
3793,164,1361,0
3792,167,1358,0
3795,165,1358,0
3797,163,1356,0
3799,165,1355,0
3801,161,1357,0
3799,161,1357,0
3801,159,1354,0
3804,160,1351,0
3807,161,1353,0
3806,162,1357,0
3809,160,1356,0
3811,162,1360,0
3807,160,1360,0
3805,160,1358,0
3806,161,1359,0
3802,162,1364,0
3801,162,1361,0
3800,164,1361,0
3802,166,1362,0
3802,161,1361,0
3801,164,1361,0
3802,167,1361,0
3804,166,1360,0
3809,166,1358,0
3807,163,1358,0
3806,162,1356,0
3806,164,1358,0
3805,167,1353,0
3807,166,1352,0
3807,168,1354,0
3805,172,1353,0
3805,172,1356,0
3806,169,1360,0
3806,170,1362,0
3807,169,1363,0
3805,171,1365,0
3807,172,1364,0
3805,167,1367,0
3804,164,1363,0
3800,165,1361,0
3805,162,1359,0
3805,159,1358,0
3803,160,1357,0
3802,157,1356,0
3802,158,1358,0
3807,163,1357,0
3811,159,1356,0
3811,157,1358,0
3813,154,1358,0
3807,154,1359,0
3805,156,1359,0
3807,159,1358,0
3808,162,1357,0
3809,165,1355,0
3811,165,1353,0
3810,163,1352,0
3810,164,1350,0
3809,161,1349,0
3810,161,1351,0
3807,159,1353,0
3804,160,1352,0
3803,159,1352,0
3804,162,1354,0
3807,164,1357,0
3808,163,1356,0
3803,164,1354,0
3806,163,1355,0
3802,160,1354,0
3805,159,1355,0
3802,161,1355,0
3804,164,1358,0
3803,164,1362,0
3802,165,1362,0
3802,164,1361,0
3799,167,1362,0
3801,165,1362,0
3800,167,1366,0
3797,168,1368,0
3800,171,1372,0
3801,171,1372,0
3804,170,1373,0
3801,166,1373,0
3802,167,1370,0
3803,166,1369,0
3804,165,1368,0
3804,166,1367,0
3806,170,1368,0
3806,169,1367,0
3802,170,1364,0
3801,171,1364,0
3797,169,1361,0
3800,168,1366,0
3799,169,1363,0
3803,169,1361,0
3805,170,1363,0
3806,170,1365,0
3807,172,1365,0
3812,173,1368,0
3817,171,1366,0
3820,169,1362,0
3823,167,1356,0
3821,164,1351,0
3818,162,1349,0
3815,165,1344,0
3812,168,1343,0
3810,167,1344,0
3808,167,1343,0
3804,168,1346,0
3799,170,1349,0
3798,169,1352,0
3794,169,1356,0
3793,169,1361,0
3790,169,1365,0
3790,169,1369,0
3788,169,1373,0
3789,168,1377,0
3790,163,1378,0
3789,163,1381,0
3793,163,1384,0
3794,163,1381,0
3793,162,1380,0
3797,160,1378,0
3795,156,1375,0
3793,156,1375,0
3795,158,1373,0
3797,163,1373,0
3798,162,1375,0
3802,157,1379,0
3799,158,1378,0
3798,159,1377,0
3796,158,1376,0
3795,157,1372,0
3797,161,1373,0
3797,165,1369,0
3797,162,1368,0
3799,163,1368,0
3798,160,1369,0
3796,160,1368,0
3797,161,1369,0
3797,160,1370,0
3798,160,1368,0
3798,162,1368,0
3793,162,1371,0
3795,163,1371,0
3796,164,1368,0
3800,163,1365,0
3803,164,1366,0
3804,161,1365,0
3804,161,1367,0
3802,164,1368,0
3799,165,1363,0
3800,167,1366,0
3798,164,1360,0
3797,164,1358,0
3801,164,1356,0
3799,167,1357,0
3798,170,1358,0
3799,173,1356,0
3798,176,1355,0
3796,178,1357,0
3796,176,1356,0
3797,176,1357,0
3798,178,1359,0
3801,173,1359,0
3801,177,1362,0
3801,175,1365,0
3802,176,1369,0
3806,174,1368,0
3801,175,1370,0
3803,174,1369,0
3805,175,1369,0
3806,175,1370,0
3806,173,1372,0
3800,171,1370,0
3800,171,1373,0
3796,168,1375,0
3795,168,1378,0
3796,171,1375,0
3796,171,1373,0
3797,170,1373,0
3792,172,1375,0
3791,173,1377,0
3795,171,1374,0
3795,173,1373,0
3794,169,1373,0
3797,167,1373,0
3795,167,1372,0
3797,163,1374,0
3799,165,1373,0
3800,166,1371,0
3799,168,1371,0
3797,171,1372,0
3797,168,1369,0
3805,174,1373,0
3803,168,1370,0
3801,166,1365,0
3796,164,1364,0
3797,163,1362,0
3799,159,1362,0
3797,157,1363,0
3796,158,1365,0
3796,161,1364,0
3796,160,1365,0
3796,159,1366,0
3795,158,1365,0
3798,159,1366,0
3795,157,1368,0
3796,155,1368,0
3795,158,1373,0
3797,158,1375,0
3798,158,1375,0
3800,159,1371,0
3802,157,1372,0
3801,157,1375,0
3802,159,1374,0
3802,159,1368,0
3803,163,1372,0
3806,163,1369,0
3806,164,1365,0
3808,163,1365,0
3806,163,1367,0
3803,165,1370,0
3799,164,1368,0
3797,163,1369,0
3794,164,1369,0
3798,165,1370,0
3801,169,1369,0
3804,164,1364,0
3795,167,1362,0
3800,167,1366,0
3803,168,1366,0
3809,168,1367,0
3813,172,1366,0
3815,170,1362,0
3819,167,1361,0
3817,167,1359,0
3814,166,1359,0
3811,166,1356,0
3806,171,1351,0
3809,171,1353,0
3806,170,1353,0
3800,169,1353,0
3798,170,1357,0
3800,175,1360,0
3796,173,1364,0
3799,173,1369,0
3799,173,1374,0
3796,172,1378,0
3793,169,1380,0
3795,166,1379,0
3794,168,1378,0
3793,166,1381,0
3794,163,1385,0
3796,165,1381,0
3800,167,1382,0
3794,169,1378,0
3793,168,1374,0
3794,168,1373,0
3795,166,1373,0
3794,167,1369,0
3796,166,1372,0
3795,166,1374,0
3796,166,1369,0
3795,162,1371,0
3797,160,1371,0
3799,160,1372,0
3796,164,1368,0
3799,164,1365,0
3799,166,1369,0
3800,164,1367,0
3805,165,1363,0
3801,164,1367,0
3798,163,1367,0
3797,165,1365,0
3794,165,1366,0
3796,164,1365,0
3796,164,1367,0
3793,164,1364,0
3794,167,1367,0
3802,166,1370,0
3802,164,1371,0
3801,163,1368,0
3803,165,1371,0
3800,165,1371,0
3803,168,1370,0
3801,168,1369,0
3802,170,1368,0
3806,170,1370,0
3807,167,1369,0
3803,171,1368,0
3802,173,1369,0
3803,171,1367,0
3802,173,1365,0
3798,172,1369,0
3801,176,1373,0
3799,174,1373,0
3798,172,1371,0
3796,173,1374,0
3800,173,1379,0
3804,174,1378,0
3804,173,1379,0
3801,171,1378,0
3802,168,1378,0
3805,167,1380,0
3800,165,1378,0
3796,165,1378,0
3801,165,1376,0
3799,167,1376,0
3794,168,1377,0
3794,166,1378,0
3795,163,1381,0
3792,168,1380,0
3794,166,1380,0
3799,168,1375,0
3796,170,1373,0
3795,170,1372,0
3795,169,1372,0
3800,168,1374,0
3797,166,1372,0
3799,165,1372,0
3799,168,1370,0
3803,166,1367,0
3801,166,1370,0
3802,167,1371,0
3803,168,1369,0
3806,168,1370,0
3804,167,1371,0
3803,163,1370,0
3804,163,1368,0
3802,165,1364,0
3803,163,1364,0
3799,164,1362,0
3797,163,1363,0
3798,159,1363,0
3800,161,1362,0
3798,164,1363,0
3798,164,1368,0
3799,163,1364,0
3797,163,1365,0
3795,162,1367,0
3799,163,1369,0
3797,165,1371,0
3797,167,1374,0
3799,168,1378,0
3797,166,1379,0
3803,167,1378,0
3802,168,1376,0
3806,168,1373,0
3806,168,1373,0
3802,162,1370,0
3803,166,1370,0
3803,164,1369,0
3806,169,1367,0
3808,166,1368,0
3801,169,1368,0
3799,171,1369,0
3793,170,1370,0
3792,171,1370,0
3795,170,1369,0
3797,171,1367,0
3797,172,1364,0
3796,173,1362,0
3800,177,1365,0
3804,178,1367,0
3805,176,1366,0
3810,177,1369,0
3813,177,1366,0
3816,178,1363,0
3814,179,1356,0
3812,176,1359,0
3808,172,1355,0
3803,170,1352,0
3797,172,1350,0
3797,172,1348,0
3793,174,1348,0
3789,173,1350,0
3792,174,1354,0
3792,175,1362,0
3790,171,1370,0
3790,167,1378,0
3791,164,1383,0
3791,163,1389,0
3790,164,1395,0
3789,163,1397,0
3793,164,1396,0
3792,162,1396,0
3795,161,1397,0
3798,166,1395,0
3799,164,1394,0
3797,161,1390,0
3797,161,1388,0
3794,159,1388,0
3796,161,1382,0
3796,156,1380,0
3798,156,1381,0
3795,153,1379,0
3797,153,1376,0
3796,155,1375,0
3796,153,1373,0
3794,153,1369,0
3791,151,1368,0
3793,149,1367,0
3794,152,1364,0
3797,158,1361,0
3795,158,1356,0
3795,162,1358,0
3794,161,1355,0
3799,160,1355,0
3802,160,1359,0
3802,162,1360,0
3798,163,1359,0
3796,163,1359,0
3796,161,1356,0
3798,158,1359,0
3798,161,1360,0
3802,164,1362,0
3803,165,1358,0
3805,161,1360,0
3804,165,1355,0
3805,165,1354,0
3806,163,1352,0
3805,165,1353,0
3804,170,1354,0
3800,170,1355,0
3799,171,1360,0
3795,173,1359,0
3798,174,1358,0
3798,176,1360,0
3801,177,1361,0
3804,181,1364,0
3802,178,1367,0
3799,178,1372,0
3803,178,1376,0
3802,177,1377,0
3799,181,1377,0
3803,178,1377,0
3800,180,1375,0
3805,179,1375,0
3803,174,1377,0
3801,175,1378,0
3803,174,1380,0
3802,174,1382,0
3801,175,1382,0
3803,175,1376,0
3799,173,1376,0
3799,171,1381,0
3799,168,1378,0
3796,166,1380,0
3798,169,1379,0
3796,166,1375,0
3797,167,1375,0
3797,169,1373,0
3797,168,1372,0
3803,168,1372,0
3802,164,1366,0
3804,162,1364,0
3805,163,1365,0
3804,161,1365,0
3800,160,1364,0
3799,159,1360,0
3804,162,1361,0
3803,160,1358,0
3799,159,1357,0
3803,158,1359,0
3802,160,1360,0
3802,162,1360,0
3801,159,1362,0
3800,156,1359,0
3800,162,1359,0
3797,162,1361,0
3797,160,1361,0
3795,160,1364,0
3794,160,1361,0
3794,156,1363,0
3796,158,1364,0
3797,157,1367,0
3797,159,1367,0
3800,162,1369,0
3801,165,1372,0
3805,164,1373,0
3802,160,1369,0
3806,165,1373,0
3799,161,1370,0
3801,162,1368,0
3805,158,1367,0
3800,158,1362,0
3801,160,1363,0
3800,161,1367,0
3795,161,1367,0
3794,164,1365,0
3792,164,1364,0
3793,165,1365,0
3795,167,1368,0
3800,166,1367,0
3802,163,1367,0
3802,169,1367,0
3807,167,1369,0
3810,169,1366,0
3817,167,1365,0
3819,168,1361,0
3826,166,1359,0
3822,166,1357,0
3819,166,1351,0
3813,167,1352,0
3807,170,1350,0
3803,169,1349,0
3801,171,1348,0
3795,175,1345,0
3796,174,1346,0
3794,177,1352,0
3795,171,1356,0
3792,169,1360,0
3795,170,1366,0
3793,170,1369,0
3791,169,1374,0
3795,168,1379,0
3798,167,1380,0
3798,166,1383,0
3798,164,1383,0
3796,165,1380,0
3801,162,1377,0
3799,160,1377,0
3801,159,1371,0
3800,159,1366,0
3801,160,1366,0
3799,165,1362,0
3798,168,1362,0
3793,168,1362,0
3792,173,1364,0
3793,171,1361,0
3792,169,1358,0
3793,167,1358,0
3794,171,1363,0
3796,167,1362,0
3800,165,1358,0
3804,165,1359,0
3804,163,1356,0
3806,166,1356,0
3804,167,1356,0
3803,165,1354,0
3802,165,1356,0
3799,167,1356,0
3800,168,1355,0
3801,169,1356,0
3801,169,1358,0
3807,172,1360,0
3807,173,1362,0
3805,169,1361,0
3805,164,1365,0
3804,165,1363,0
3804,167,1361,0
3804,171,1364,0
3804,172,1361,0
3799,172,1358,0
3798,176,1354,0
3797,179,1349,0
3802,178,1345,0
3799,178,1341,0
3796,182,1343,0
3800,184,1343,0
3801,180,1342,0
3802,182,1348,0
3798,179,1351,0
3804,178,1354,0
3804,176,1355,0
3809,177,1357,0
3811,173,1360,0
3816,171,1361,0
3821,174,1355,0
3826,171,1355,0
3825,173,1354,0
3826,169,1359,0
3823,173,1361,0
3823,167,1362,0
3821,163,1368,0
3815,162,1365,0
3811,161,1365,0
3802,160,1365,0
3798,161,1360,0
3793,163,1356,0
3787,161,1352,0
3785,163,1349,0
3786,160,1345,0
3787,159,1339,0
3793,159,1338,0
3806,160,1346,0
3821,162,1351,0
3828,168,1361,0
3837,165,1366,0
3838,164,1364,0
3835,163,1356,0
3830,164,1348,0
3825,169,1343,0
3817,175,1346,0
3807,179,1353,0
3799,181,1362,0
3801,183,1367,0
3806,181,1373,0
3803,185,1376,0
3795,188,1370,0
3788,189,1367,0
3788,188,1365,0
3787,182,1363,0
3787,178,1362,0
3783,174,1361,0
3783,165,1364,0
3790,169,1375,0
3789,156,1374,0
3792,160,1371,0
3801,152,1371,0
3812,141,1375,0
3821,138,1371,0
3823,127,1363,0
3822,122,1346,0
3816,122,1337,0
3803,125,1327,0
3797,115,1323,0
3794,124,1324,0
3792,141,1326,0
3773,231,1337,0
3788,123,1312,0
3790,114,1303,0
3794,124,1306,0
3803,142,1326,0
3809,158,1334,0
3816,172,1344,0
3815,177,1339,0
3812,173,1330,0
3797,168,1316,0
3790,174,1313,0
3767,292,1325,0
3798,171,1301,0
3803,156,1282,0
3797,163,1266,0
3801,163,1269,0
3807,160,1268,0
3810,142,1257,0
3801,153,1255,0
3798,145,1266,0
3808,153,1289,0
3805,164,1317,0
3800,173,1347,0
3798,175,1366,0
3802,174,1378,0
3794,176,1378,0
3791,160,1376,0
3789,153,1376,0
3786,138,1375,0
3785,128,1377,0
3785,114,1381,0
3789,100,1384,0
3791,93,1395,0
3797,86,1398,0
3801,78,1401,0
3801,74,1405,0
3801,69,1403,0
3806,65,1396,0
3810,60,1394,0
3816,59,1392,0
3821,59,1383,0
3818,52,1376,0
3817,42,1382,0
3816,34,1382,0
3820,34,1386,0
3821,38,1395,0
3821,36,1406,0
3819,34,1411,0
3816,35,1414,0
3804,49,1415,0
3798,52,1410,0
3793,58,1406,0
3785,52,1395,0
3785,50,1382,0
3787,42,1376,0
3789,28,1369,0
3786,15,1368,0
3784,16,1377,0
3784,10,1384,0
3791,4,1393,0
3793,1,1397,0
3794,-1,1392,0
3793,-5,1384,0
3798,-7,1384,0
3794,-5,1379,0
3792,-2,1373,0
3790,2,1365,0
3788,5,1366,0
3785,15,1363,0
3782,27,1359,0
3785,35,1357,0
3791,43,1346,0
3791,51,1337,0
3797,62,1325,0
3803,66,1315,0
3808,68,1315,0
3816,70,1321,0
3826,66,1321,0
3833,61,1316,0
3836,54,1314,0
3828,55,1311,0
3835,49,1306,0
3842,48,1307,0
3853,37,1310,0
3865,26,1309,0
3872,19,1310,0
3873,12,1322,0
3869,9,1323,0
3868,13,1325,0
3872,1,1338,0
3880,-2,1313,0
3867,27,1292,0
3862,28,1301,0
3851,14,1317,0
3838,-1,1315,0
3827,-7,1312,0
3817,-1,1298,0
3816,26,1290,0
3822,35,1291,0
3827,27,1294,0
3834,12,1296,0
3828,4,1298,0
3820,-1,1302,0
3810,-8,1297,0
3796,-6,1288,0
3779,3,1287,0
3776,16,1286,0
3778,7,1293,0
3787,-7,1294,0
3801,-24,1302,0
3818,-35,1316,0
3813,-44,1330,0
3812,-31,1334,0
3819,-25,1340,0
3837,-24,1358,0
3843,-19,1370,0
3838,-25,1375,0
3832,-10,1387,0
3817,-2,1394,0
3810,-1,1381,0
3818,2,1376,0
3823,5,1370,0
3831,4,1371,0
3848,-7,1369,0
3855,-15,1351,0
3871,-26,1360,0
3876,-42,1357,0
3874,-51,1350,0
3870,-70,1345,0
3864,-78,1341,0
3861,-83,1347,0
3871,-115,1328,0
3860,-61,1353,0
3849,-45,1359,0
3844,-54,1336,0
3843,-60,1315,0
3844,-53,1306,0
3846,-57,1293,0
3843,-60,1274,0
3831,-63,1255,0
3822,-68,1235,0
3822,-83,1217,0
3820,-81,1205,0
3809,-68,1186,0
3785,-71,1149,0
3811,-57,1180,0
3818,-82,1176,0
3818,-96,1161,0
3823,-103,1160,0
3837,-116,1171,0
3824,-127,1122,0
3848,-124,1189,0
3858,-120,1202,0
3859,-131,1195,0
3857,-123,1185,0
3856,-126,1188,0
3878,-195,1186,0
3869,-110,1222,0
3845,-97,1213,0
3848,-114,1200,0
3862,-135,1197,0
3839,-178,1123,0
3843,-136,1200,0
3844,-153,1229,0
3827,-156,1229,0
3819,-179,1206,0
3791,-174,1224,0
3819,-172,1261,0
3838,-193,1267,0
3861,-218,1265,0
3861,-326,1155,0
3807,-263,1146,0
3813,-198,1169,0
3853,-211,1198,0
3874,-204,1193,0
3884,-222,1162,0
3864,-221,1163,0
3903,-186,1224,0
3918,-206,1245,0
3915,-234,1210,0
3866,-304,1033,0
3907,-298,1203,0
3864,-303,1192,0
3799,-262,1155,0
3781,-265,1138,0
3774,-285,1104,0
3793,-244,1186,0
3841,-289,1213,0
3843,-297,1201,0
3845,-332,1170,0
3825,-433,970,0
3846,-389,1100,0
3898,-437,1187,0
3900,-403,1186,0
3837,-432,1046,0
3817,-369,1136,0
3847,-387,1188,0
3868,-410,1193,0
3879,-443,1175,0
3874,-446,1167,0
3875,-449,1170,0
3870,-548,1058,0
3887,-479,1151,0
3858,-447,1159,0
3842,-456,1145,0
3858,-466,1156,0
3876,-449,1168,0
3884,-455,1153,0
3885,-403,1202,0
3897,-374,1196,0
3905,-419,1168,0
3874,-409,1099,0
3817,-408,1039,0
3787,-447,1009,0
3777,-458,1069,0
3794,-468,1112,0
3792,-485,1119,0
3776,-520,1095,0
3761,-537,1090,0
3753,-527,1099,0
3736,-520,972,0
3748,-554,1057,0
3753,-563,1091,0
3750,-539,1085,0
3757,-544,1097,0
3769,-524,1103,0
3780,-511,1100,0
3782,-518,1053,0
3769,-466,1121,0
3789,-492,1128,0
3789,-513,1112,0
3784,-545,1077,0
3778,-574,1056,0
3778,-590,1034,0
3758,-545,1068,0
3800,-550,1107,0
3804,-629,1076,0
3810,-661,1031,0
3805,-669,1020,0
3815,-684,1027,0
3826,-720,996,0
3824,-641,1064,0
3838,-686,1081,0
3831,-728,1047,0
3825,-751,1027,0
3846,-820,1035,0
3852,-698,1045,0
3820,-771,985,0
3811,-820,957,0
3821,-826,940,0
3828,-784,999,0
3842,-802,1024,0
3844,-810,1006,0
3837,-820,981,0
3832,-826,965,0
3842,-806,978,0
3848,-827,935,0
3874,-836,967,0
3879,-838,947,0
3862,-817,891,0
3855,-813,863,0
3867,-817,870,0
3880,-815,875,0
3886,-826,868,0
3910,-778,935,0
3923,-744,968,0
3922,-717,959,0
3925,-731,925,0
3922,-712,917,0
3939,-709,885,0
3938,-714,852,0
3943,-751,817,0
3925,-707,778,0
3919,-696,759,0
3892,-649,730,0
3888,-650,710,0
3886,-647,715,0
3884,-647,707,0
3889,-664,678,0
3885,-659,694,0
3884,-669,690,0
3889,-669,664,0
3895,-677,653,0
3901,-667,655,0
3892,-656,637,0
3900,-631,626,0
3918,-622,629,0
3932,-635,636,0
3934,-618,621,0
3921,-592,613,0
3892,-584,599,0
3877,-542,571,0
3878,-519,557,0
3886,-491,552,0
3894,-470,540,0
3895,-465,519,0
3899,-462,494,0
3911,-450,480,0
3925,-463,479,0
3942,-477,467,0
3955,-563,468,0
3935,-544,438,0
3911,-513,399,0
3913,-509,388,0
3935,-507,390,0
3964,-509,386,0
3986,-524,372,0
3977,-540,360,0
3955,-552,351,0
3937,-555,330,0
3925,-573,319,0
3908,-565,291,0
3887,-573,261,0
3877,-562,237,0
3873,-612,226,0
3836,-569,187,0
3813,-534,138,0
3826,-543,125,0
3860,-558,143,0
3896,-542,168,0
3911,-503,202,0
3922,-478,235,0
3940,-459,242,0
3956,-437,225,0
3964,-424,195,0
3967,-401,154,0
3957,-389,111,0
3970,-436,84,0
3958,-418,66,0
3934,-342,17,0
3943,-353,3,0
3991,-384,3,0
4034,-426,8,0
4051,-421,-10,0
4041,-376,-37,0
4013,-355,-46,0
4015,-325,-67,0
4006,-286,-82,0
4009,-258,-68,0
4014,-338,-47,0
4015,-330,-31,0
4002,-224,-62,0
3996,-202,-53,0
4010,-196,-47,0
4020,-236,-44,0
4050,-266,-44,0
4042,-282,-44,0
4060,-303,-48,0
4067,-311,-59,0
4076,-293,-58,0
4065,-304,-84,0
4067,-297,-136,0
4077,-356,-170,0
4089,-413,-202,0
4104,-461,-212,0
4121,-515,-215,0
4130,-515,-224,0
4136,-514,-248,0
4139,-518,-264,0
4139,-541,-265,0
4126,-466,-291,0
4116,-439,-340,0
4118,-413,-361,0
4118,-376,-381,0
4112,-331,-414,0
4119,-310,-434,0
4130,-255,-445,0
4155,-204,-469,0
4191,-167,-475,0
4232,-121,-455,0
4268,-71,-471,0
4286,1,-505,0
4294,71,-531,0
4279,71,-572,0
4288,65,-593,0
4290,69,-596,0
4288,152,-556,0
4254,69,-594,0
4244,37,-610,0
4241,39,-627,0
4205,30,-645,0
4197,41,-658,0
4163,25,-707,0
4133,27,-750,0
4118,52,-802,0
4121,19,-855,0
4114,-24,-883,0
4127,-21,-912,0
4132,-7,-962,0
4125,-4,-1010,0
4122,-1,-1070,0
4116,-7,-1145,0
4111,-33,-1236,0
4108,-86,-1310,0
4093,-119,-1362,0
4083,-139,-1389,0
4091,-149,-1396,0
4115,-146,-1368,0
4157,-131,-1331,0
4200,-102,-1300,0
4240,-79,-1290,0
4286,-66,-1297,0
4333,-50,-1297,0
4381,-43,-1305,0
4422,-63,-1317,0
4440,-89,-1326,0
4435,-114,-1347,0
4420,-139,-1351,0
4407,-156,-1340,0
4405,-192,-1325,0
4402,-197,-1307,0
4406,-174,-1282,0
4414,-149,-1279,0
4404,-115,-1281,0
4389,-85,-1283,0
4368,-54,-1298,0
4346,-28,-1320,0
4317,-1,-1360,0
4285,3,-1411,0
4266,17,-1452,0
4249,-12,-1483,0
4224,-13,-1495,0
4198,-5,-1511,0
4184,-10,-1519,0
4179,-25,-1491,0
4185,-42,-1457,0
4187,-62,-1429,0
4178,-97,-1404,0
4161,-117,-1371,0
4152,-134,-1333,0
4127,-158,-1325,0
4079,-178,-1338,0
4032,-201,-1356,0
4003,-197,-1350,0
4005,-222,-1342,0
4015,-241,-1339,0
4051,-252,-1325,0
4078,-258,-1325,0
4092,-255,-1341,0
4083,-252,-1362,0
4043,-239,-1399,0
4024,-183,-1397,0
3978,-201,-1431,0
3946,-222,-1453,0
3920,-195,-1457,0
3906,-180,-1452,0
3888,-163,-1456,0
3886,-123,-1459,0
3898,-79,-1467,0
3928,-48,-1459,0
3968,-16,-1438,0
4007,-3,-1425,0
4030,25,-1417,0
4030,28,-1430,0
4016,120,-1429,0
4031,109,-1428,0
4017,88,-1433,0
4015,72,-1457,0
4011,99,-1471,0
4010,131,-1474,0
4011,146,-1474,0
4012,153,-1468,0
4015,144,-1465,0
4029,123,-1463,0
4030,131,-1458,0
4027,137,-1460,0
4019,134,-1454,0
4003,139,-1452,0
3988,134,-1453,0
3970,136,-1467,0
3941,136,-1487,0
3906,131,-1503,0
3877,124,-1513,0
3856,134,-1512,0
3833,128,-1512,0
3816,120,-1516,0
3803,112,-1525,0
3790,114,-1527,0
3783,124,-1536,0
3781,134,-1537,0
3785,139,-1535,0
3797,140,-1539,0
3796,146,-1541,0
3786,145,-1548,0
3777,140,-1561,0
3766,130,-1578,0
3763,117,-1584,0
3762,107,-1583,0
3757,101,-1578,0
3743,94,-1582,0
3725,93,-1589,0
3698,101,-1603,0
3672,94,-1624,0
3649,84,-1625,0
3641,80,-1605,0
3636,73,-1580,0
3619,52,-1551,0
3597,25,-1521,0
3572,21,-1493,0
3535,36,-1475,0
3492,58,-1465,0
3460,62,-1462,0
3431,66,-1470,0
3407,68,-1478,0
3389,73,-1483,0
3385,73,-1489,0
3377,81,-1495,0
3376,98,-1494,0
3378,113,-1503,0
3387,124,-1506,0
3398,143,-1502,0
3412,149,-1504,0
3427,153,-1508,0
3434,161,-1501,0
3450,178,-1491,0
3464,193,-1482,0
3483,217,-1462,0
3511,237,-1439,0
3539,254,-1416,0
3562,274,-1392,0
3578,294,-1385,0
3592,311,-1389,0
3607,325,-1398,0
3617,340,-1412,0
3629,352,-1424,0
3638,361,-1438,0
3645,367,-1445,0
3649,381,-1454,0
3644,400,-1468,0
3646,418,-1478,0
3648,437,-1489,0
3651,458,-1486,0
3645,483,-1488,0
3644,507,-1478,0
3637,511,-1465,0
3624,514,-1465,0
3605,512,-1469,0
3589,510,-1481,0
3577,502,-1495,0
3563,492,-1516,0
3554,492,-1530,0
3551,488,-1540,0
3546,476,-1552,0
3549,473,-1557,0
3555,466,-1570,0
3559,448,-1564,0
3561,411,-1554,0
3566,364,-1557,0
3569,324,-1549,0
3584,295,-1544,0
3593,272,-1539,0
3603,255,-1536,0
3610,239,-1543,0
3616,229,-1559,0
3617,214,-1583,0
3621,207,-1599,0
3629,195,-1609,0
3634,184,-1619,0
3644,202,-1641,0
3658,223,-1633,0
3673,241,-1615,0
3685,248,-1604,0
3693,260,-1602,0
3709,283,-1601,0
3724,310,-1594,0
3738,338,-1577,0
3757,357,-1558,0
3769,375,-1551,0
3780,390,-1557,0
3779,418,-1564,0
3784,434,-1579,0
3788,451,-1591,0
3786,474,-1609,0
3787,482,-1606,0
3779,462,-1607,0
3758,423,-1621,0
3744,384,-1639,0
3734,360,-1650,0
3731,340,-1659,0
3755,336,-1649,0
3787,348,-1636,0
3818,370,-1614,0
3842,384,-1580,0
3851,386,-1553,0
3841,389,-1549,0
3814,407,-1562,0
3782,443,-1587,0
3770,450,-1583,0
3768,434,-1556,0
3778,409,-1547,0
3799,390,-1549,0
3810,371,-1562,0
3814,372,-1589,0
3809,390,-1617,0
3808,415,-1644,0
3805,424,-1668,0
3806,430,-1694,0
3806,428,-1719,0
3809,422,-1733,0
3816,415,-1734,0
3819,402,-1716,0
3821,367,-1694,0
3818,329,-1684,0
3816,303,-1674,0
3803,280,-1655,0
3788,258,-1632,0
3775,237,-1604,0
3753,228,-1586,0
3748,215,-1573,0
3742,211,-1572,0
3737,199,-1583,0
3734,183,-1611,0
3736,176,-1628,0
3741,177,-1637,0
3748,183,-1639,0
3759,193,-1634,0
3773,195,-1622,0
3793,180,-1618,0
3809,171,-1607,0
3817,159,-1595,0
3824,153,-1595,0
3825,146,-1598,0
3818,146,-1610,0
3799,150,-1624,0
3777,150,-1634,0
3759,156,-1648,0
3736,149,-1666,0
3724,139,-1683,0
3714,117,-1707,0
3702,92,-1727,0
3691,66,-1732,0
3687,27,-1729,0
3692,4,-1721,0
3704,-12,-1692,0
3717,-13,-1668,0
3731,-8,-1652,0
3745,14,-1641,0
3751,40,-1643,0
3760,60,-1657,0
3776,67,-1672,0
3787,77,-1698,0
3793,94,-1718,0
3792,100,-1738,0
3791,110,-1750,0
3788,133,-1766,0
3787,162,-1771,0
3785,195,-1755,0
3790,224,-1745,0
3788,244,-1737,0
3795,248,-1734,0
3812,236,-1740,0
3829,218,-1748,0
3846,194,-1750,0
3862,172,-1752,0
3873,161,-1760,0
3876,149,-1777,0
3871,134,-1796,0
3861,123,-1820,0
3855,111,-1844,0
3845,89,-1863,0
3830,59,-1871,0
3821,23,-1879,0
3814,-24,-1875,0
3810,-70,-1869,0
3804,-108,-1862,0
3802,-139,-1851,0
3801,-170,-1840,0
3798,-202,-1822,0
3801,-236,-1809,0
3797,-263,-1793,0
3787,-289,-1779,0
3775,-315,-1770,0
3759,-339,-1774,0
3738,-344,-1784,0
3717,-346,-1797,0
3697,-335,-1809,0
3679,-320,-1807,0
3664,-310,-1810,0
3652,-299,-1813,0
3644,-295,-1823,0
3635,-287,-1842,0
3623,-275,-1863,0
3614,-263,-1873,0
3611,-248,-1869,0
3611,-238,-1855,0
3616,-232,-1847,0
3622,-226,-1839,0
3633,-235,-1833,0
3646,-242,-1827,0
3654,-253,-1833,0
3660,-256,-1838,0
3669,-257,-1849,0
3670,-242,-1863,0
3668,-214,-1868,0
3662,-179,-1863,0
3663,-151,-1849,0
3658,-115,-1839,0
3654,-89,-1830,0
3653,-68,-1816,0
3665,-47,-1813,0
3671,-25,-1808,0
3681,-7,-1787,0
3700,1,-1767,0
3716,8,-1746,0
3732,6,-1724,0
3745,1,-1707,0
3751,-18,-1698,0
3752,-40,-1685,0
3751,-67,-1665,0
3748,-98,-1626,0
3730,-125,-1583,0
3712,-152,-1547,0
3679,-175,-1519,0
3638,-199,-1495,0
3589,-219,-1467,0
3547,-241,-1434,0
3515,-258,-1399,0
3492,-277,-1359,0
3479,-290,-1314,0
3492,-309,-1269,0
3518,-325,-1220,0
3560,-333,-1179,0
3609,-339,-1149,0
3661,-332,-1133,0
3715,-307,-1120,0
3776,-275,-1111,0
3834,-229,-1097,0
3891,-181,-1074,0
3943,-145,-1040,0
3990,-121,-998,0
4027,-97,-950,0
4047,-70,-891,0
4051,-45,-838,0
4029,-29,-810,0
3994,-5,-745,0
3961,57,-671,0
3888,130,-673,0
3805,211,-689,0
3711,307,-714,0
3604,410,-728,0
3498,495,-750,0
3397,565,-779,0
3312,613,-828,0
3254,630,-893,0
3221,620,-963,0
3226,558,-1059,0
3267,456,-1154,0
3343,329,-1227,0
3446,225,-1244,0
3562,159,-1191,0
3690,119,-1093,0
3826,97,-970,0
3949,70,-864,0
4045,47,-791,0
4124,28,-748,0
4182,12,-744,0
4209,9,-759,0
4209,10,-787,0
4186,18,-812,0
4133,26,-845,0
4068,33,-882,0
3993,26,-909,0
3920,-1,-922,0
3855,-52,-925,0
3808,-132,-911,0
3786,-232,-884,0
3796,-335,-824,0
3825,-438,-757,0
3868,-531,-677,0
3936,-606,-581,0
4014,-667,-479,0
4092,-718,-390,0
4184,-763,-324,0
4279,-805,-278,0
4366,-836,-241,0
4437,-852,-211,0
4496,-851,-188,0
4530,-833,-176,0
4540,-801,-160,0
4520,-761,-150,0
4474,-719,-142,0
4399,-669,-141,0
4302,-617,-156,0
4197,-563,-181,0
4077,-516,-223,0
3957,-486,-277,0
3840,-474,-357,0
3741,-471,-430,0
3669,-467,-490,0
3642,-439,-504,0
3649,-393,-490,0
3686,-344,-449,0
3748,-294,-411,0
3828,-253,-377,0
3918,-226,-362,0
4007,-215,-362,0
4096,-207,-382,0
4183,-183,-424,0
4260,-128,-501,0
4324,-44,-633,0
4374,24,-814,0
4411,25,-1034,0
4435,-40,-1290,0
4462,-125,-1572,0
4517,-178,-1851,0
4613,-183,-2079,0
4751,-155,-2208,0
4931,-120,-2239,0
5136,-87,-2173,0
5340,-63,-2018,0
5508,-41,-1841,0
5623,-41,-1706,0
5693,-81,-1643,0
5707,-154,-1607,0
5661,-277,-1582,0
5541,-458,-1575,0
5358,-661,-1551,0
5112,-872,-1534,0
4818,-1057,-1551,0
4496,-1193,-1594,0
4181,-1289,-1665,0
3873,-1340,-1757,0
3592,-1357,-1851,0
3359,-1357,-1939,0
3183,-1333,-2010,0
3069,-1286,-2034,0
3009,-1229,-2029,0
2983,-1177,-2004,0
3000,-1131,-1966,0
3060,-1082,-1927,0
3155,-1027,-1884,0
3288,-956,-1850,0
3436,-860,-1827,0
3598,-741,-1813,0
3761,-603,-1792,0
3921,-465,-1772,0
4059,-342,-1761,0
4182,-241,-1754,0
4283,-154,-1762,0
4346,-77,-1796,0
4384,-2,-1830,0
4378,58,-1860,0
4332,100,-1890,0
4250,110,-1913,0
4138,95,-1925,0
4000,60,-1927,0
3839,18,-1908,0
3678,-28,-1873,0
3527,-85,-1837,0
3398,-146,-1806,0
3299,-215,-1765,0
3242,-300,-1718,0
3228,-394,-1655,0
3251,-497,-1580,0
3302,-581,-1502,0
3381,-644,-1435,0
3487,-683,-1393,0
3608,-719,-1384,0
3736,-751,-1401,0
3873,-797,-1437,0
3989,-845,-1480,0
4092,-900,-1531,0
4180,-946,-1575,0
4247,-990,-1591,0
4305,-1036,-1579,0
4341,-1084,-1532,0
4358,-1133,-1464,0
4357,-1164,-1375,0
4338,-1185,-1279,0
4292,-1199,-1207,0
4216,-1196,-1180,0
4155,-1197,-1172,0
4082,-1178,-1182,0
4003,-1133,-1198,0
3930,-1068,-1215,0
3852,-976,-1232,0
3785,-856,-1240,0
3722,-716,-1241,0
3666,-581,-1232,0
3611,-466,-1215,0
3558,-379,-1193,0
3508,-308,-1164,0
3453,-247,-1143,0
3395,-198,-1128,0
3344,-157,-1111,0
3298,-121,-1093,0
3265,-93,-1079,0
3251,-74,-1066,0
3257,-58,-1047,0
3281,-47,-1012,0
3321,-39,-976,0
3378,-33,-947,0
3446,-34,-926,0
3517,-28,-922,0
3585,-34,-922,0
3661,-52,-907,0
3742,-85,-890,0
3824,-133,-855,0
3902,-176,-815,0
3969,-224,-788,0
4001,-272,-783,0
4015,-312,-789,0
4011,-357,-783,0
3994,-394,-780,0
3960,-426,-785,0
3917,-462,-792,0
3854,-487,-803,0
3793,-504,-815,0
3737,-512,-820,0
3690,-516,-817,0
3650,-506,-804,0
3619,-503,-784,0
3597,-495,-760,0
3585,-499,-741,0
3567,-500,-720,0
3559,-500,-707,0
3563,-505,-693,0
3578,-521,-677,0
3582,-514,-664,0
3584,-518,-657,0
3574,-540,-665,0
3561,-570,-696,0
3561,-624,-695,0
3563,-674,-695,0
3555,-717,-702,0
3551,-753,-693,0
3550,-781,-670,0
3555,-798,-633,0
3563,-814,-589,0
3578,-834,-540,0
3586,-850,-500,0
3592,-868,-472,0
3591,-887,-458,0
3587,-921,-455,0
3573,-947,-459,0
3563,-975,-472,0
3550,-1001,-481,0
3542,-1020,-491,0
3538,-1025,-498,0
3534,-1016,-498,0
3537,-992,-488,0
3551,-968,-462,0
3575,-949,-430,0
3593,-934,-404,0
3613,-922,-392,0
3634,-902,-386,0
3646,-886,-386,0
3654,-897,-402,0
3669,-946,-445,0
3677,-1000,-514,0
3684,-1033,-570,0
3691,-1025,-595,0
3705,-995,-597,0
3732,-948,-580,0
3754,-904,-573,0
3775,-856,-575,0
3804,-807,-578,0
3839,-757,-582,0
3880,-702,-596,0
3924,-648,-608,0
3977,-602,-614,0
4039,-567,-615,0
4109,-543,-610,0
4186,-522,-595,0
4271,-505,-573,0
4350,-500,-549,0
4425,-496,-530,0
4481,-496,-510,0
4532,-512,-496,0
4573,-545,-479,0
4600,-573,-461,0
4621,-603,-440,0
4632,-627,-411,0
4622,-648,-378,0
4599,-660,-350,0
4560,-663,-325,0
4512,-660,-306,0
4458,-640,-278,0
4410,-621,-255,0
4362,-594,-228,0
4304,-548,-233,0
4289,-543,-183,0
4245,-501,-134,0
4189,-476,-111,0
4141,-461,-89,0
4103,-449,-75,0
4096,-480,-71,0
4088,-546,-98,0
4079,-634,-165,0
4061,-693,-264,0
4046,-723,-361,0
4033,-724,-445,0
4038,-736,-526,0
4066,-778,-609,0
4091,-847,-683,0
4128,-931,-752,0
4180,-1020,-802,0
4251,-1128,-844,0
4331,-1249,-894,0
4431,-1385,-936,0
4561,-1534,-1002,0
4704,-1687,-1077,0
4860,-1841,-1165,0
4999,-1979,-1277,0
5144,-2104,-1380,0
5285,-2201,-1484,0
5403,-2269,-1545,0
5488,-2289,-1558,0
5522,-2261,-1522,0
5505,-2214,-1448,0
5415,-2147,-1368,0
5338,-2079,-1283,0
5204,-2023,-1183,0
5010,-1997,-1175,0
4797,-1985,-1225,0
4589,-1963,-1298,0
4405,-1925,-1352,0
4251,-1841,-1361,0
4123,-1724,-1315,0
4008,-1556,-1215,0
3897,-1341,-1076,0
3775,-1096,-939,0
3629,-842,-823,0
3466,-615,-752,0
3300,-451,-743,0
3133,-344,-775,0
2982,-281,-844,0
2846,-240,-926,0
2731,-218,-1014,0
2641,-226,-1118,0
2583,-247,-1256,0
2549,-277,-1404,0
2545,-314,-1549,0
2569,-361,-1689,0
2632,-424,-1813,0
2728,-478,-1897,0
2844,-528,-1944,0
2987,-569,-1952,0
3143,-589,-1907,0
3306,-608,-1847,0
3461,-628,-1773,0
3599,-650,-1687,0
3718,-665,-1597,0
3824,-682,-1515,0
3915,-681,-1449,0
3987,-664,-1385,0
4043,-632,-1334,0
4077,-584,-1299,0
4094,-534,-1276,0
4093,-489,-1276,0
4072,-450,-1297,0
4031,-410,-1330,0
3987,-385,-1362,0
3937,-375,-1382,0
3883,-389,-1390,0
3841,-433,-1387,0
3795,-495,-1370,0
3749,-572,-1341,0
3699,-629,-1324,0
3646,-671,-1320,0
3596,-711,-1333,0
3567,-764,-1350,0
3569,-856,-1342,0
3594,-969,-1308,0
3641,-1086,-1249,0
3685,-1182,-1193,0
3711,-1255,-1159,0
3724,-1301,-1148,0
3736,-1332,-1167,0
3738,-1368,-1208,0
3729,-1404,-1263,0
3708,-1440,-1322,0
3675,-1472,-1374,0
3640,-1491,-1418,0
3607,-1494,-1452,0
3593,-1471,-1462,0
3594,-1425,-1443,0
3616,-1352,-1390,0
3663,-1256,-1310,0
3717,-1142,-1215,0
3787,-1021,-1124,0
3857,-898,-1040,0
3927,-771,-961,0
3981,-648,-904,0
4019,-531,-871,0
4043,-417,-857,0
4057,-302,-849,0
4061,-198,-839,0
4047,-105,-830,0
4021,-29,-819,0
3979,34,-818,0
3932,89,-828,0
3886,140,-840,0
3841,186,-853,0
3799,219,-860,0
3766,231,-867,0
3740,220,-871,0
3723,185,-872,0
3711,118,-868,0
3705,46,-880,0
3699,-19,-892,0
3697,-84,-887,0
3700,-151,-875,0
3710,-225,-861,0
3722,-297,-846,0
3737,-363,-833,0
3749,-429,-826,0
3758,-491,-834,0
3756,-538,-845,0
3751,-578,-849,0
3750,-632,-845,0
3743,-677,-846,0
3737,-720,-842,0
3734,-748,-838,0
3739,-760,-838,0
3741,-764,-834,0
3749,-756,-824,0
3750,-734,-821,0
3754,-714,-819,0
3760,-695,-819,0
3767,-682,-816,0
3773,-668,-812,0
3782,-651,-813,0
3792,-633,-810,0
3805,-611,-810,0
3820,-583,-802,0
3843,-551,-787,0
3869,-528,-772,0
3894,-512,-761,0
3915,-500,-750,0
3930,-484,-744,0
3941,-471,-742,0
3951,-466,-735,0
3960,-461,-728,0
3960,-453,-722,0
3949,-438,-709,0
3930,-427,-700,0
3907,-422,-698,0
3880,-416,-692,0
3855,-410,-686,0
3835,-406,-679,0
3818,-400,-676,0
3799,-390,-680,0
3786,-374,-683,0
3769,-357,-682,0
3763,-338,-682,0
3756,-325,-685,0
3754,-306,-691,0
3761,-280,-693,0
3771,-255,-682,0
3778,-242,-665,0
3779,-236,-654,0
3774,-228,-652,0
3768,-212,-670,0
3760,-188,-692,0
3747,-160,-724,0
3735,-136,-764,0
3726,-125,-801,0
3724,-134,-840,0
3722,-160,-883,0
3726,-194,-922,0
3746,-225,-950,0
3779,-246,-970,0
3824,-248,-968,0
3886,-254,-939,0
3962,-269,-894,0
4033,-310,-857,0
4086,-373,-833,0
4118,-431,-830,0
4144,-488,-834,0
4163,-520,-843,0
4177,-542,-854,0
4181,-569,-854,0
4182,-599,-856,0
4183,-634,-862,0
4191,-660,-869,0
4193,-673,-878,0
4197,-663,-885,0
4201,-634,-884,0
4212,-581,-887,0
4236,-530,-881,0
4264,-483,-876,0
4293,-423,-861,0
4315,-359,-842,0
4341,-294,-827,0
4367,-226,-809,0
4392,-174,-793,0
4413,-135,-756,0
4426,-125,-713,0
4432,-131,-670,0
4426,-151,-635,0
4407,-176,-608,0
4389,-241,-598,0
4378,-346,-623,0
4360,-438,-650,0
4319,-473,-635,0
4284,-498,-622,0
4282,-593,-659,0
4279,-692,-696,0
4268,-757,-719,0
4287,-847,-760,0
4327,-914,-813,0
4362,-905,-850,0
4385,-809,-877,0
4421,-728,-950,0
4425,-599,-1050,0
4361,-305,-1017,0
4340,-43,-983,0
4373,68,-1048,0
4404,129,-1182,0
4424,190,-1315,0
4439,285,-1397,0
4451,449,-1423,0
4472,640,-1393,0
4514,797,-1352,0
4562,903,-1314,0
4604,961,-1306,0
4645,966,-1323,0
4666,938,-1352,0
4686,899,-1404,0
4659,868,-1446,0
4599,809,-1471,0
4499,722,-1504,0
4385,573,-1558,0
4269,373,-1638,0
4172,144,-1725,0
4096,-108,-1795,0
4055,-387,-1842,0
4016,-644,-1831,0
3976,-874,-1781,0
3953,-1104,-1714,0
3920,-1282,-1646,0
3879,-1396,-1579,0
3837,-1460,-1530,0
3790,-1480,-1504,0
3737,-1477,-1515,0
3681,-1454,-1538,0
3621,-1418,-1564,0
3556,-1364,-1579,0
3487,-1296,-1599,0
3419,-1216,-1629,0
3355,-1134,-1672,0
3302,-1062,-1729,0
3270,-1008,-1782,0
3260,-978,-1833,0
3270,-957,-1876,0
3311,-943,-1903,0
3370,-919,-1912,0
3442,-885,-1907,0
3527,-845,-1889,0
3619,-794,-1854,0
3728,-746,-1806,0
3843,-693,-1735,0
3959,-629,-1642,0
4050,-557,-1534,0
4129,-490,-1447,0
4191,-429,-1384,0
4232,-369,-1336,0
4252,-324,-1316,0
4263,-306,-1329,0
4258,-310,-1353,0
4235,-321,-1397,0
4204,-339,-1447,0
4171,-365,-1485,0
4137,-377,-1510,0
4115,-377,-1524,0
4095,-376,-1510,0
4068,-360,-1483,0
4042,-346,-1462,0
4012,-345,-1446,0
3979,-364,-1448,0
3956,-390,-1461,0
3936,-417,-1482,0
3915,-446,-1499,0
3884,-452,-1500,0
3851,-456,-1489,0
3826,-454,-1466,0
3825,-455,-1428,0
3826,-444,-1369,0
3827,-435,-1326,0
3825,-439,-1292,0
3827,-459,-1274,0
3825,-496,-1264,0
3818,-538,-1257,0
3801,-597,-1256,0
3778,-657,-1269,0
3749,-706,-1273,0
3709,-741,-1266,0
3666,-770,-1250,0
3621,-788,-1212,0
3571,-798,-1160,0
3516,-796,-1115,0
3465,-784,-1069,0
3425,-785,-1021,0
3397,-802,-986,0
3383,-838,-941,0
3377,-892,-887,0
3384,-955,-818,0
3404,-1010,-751,0
3426,-1060,-678,0
3443,-1092,-634,0
3452,-1103,-625,0
3460,-1110,-655,0
3466,-1108,-712,0
3470,-1114,-781,0
3476,-1131,-848,0
3483,-1155,-893,0
3495,-1184,-927,0
3509,-1201,-944,0
3523,-1198,-959,0
3551,-1181,-964,0
3581,-1137,-964,0
3604,-1068,-953,0
3618,-996,-947,0
3627,-919,-944,0
3630,-855,-952,0
3638,-796,-972,0
3659,-741,-997,0
3698,-691,-1009,0
3742,-644,-1009,0
3793,-597,-999,0
3845,-548,-990,0
3888,-487,-972,0
3918,-425,-952,0
3946,-377,-901,0
3948,-332,-844,0
3929,-296,-824,0
3905,-252,-819,0
3889,-201,-817,0
3879,-158,-824,0
3870,-120,-828,0
3861,-91,-834,0
3855,-68,-843,0
3842,-46,-859,0
3825,-27,-886,0
3813,-9,-908,0
3813,15,-932,0
3817,15,-950,0
3816,-10,-961,0
3796,-55,-974,0
3773,-115,-984,0
3738,-162,-978,0
3711,-214,-963,0
3683,-272,-943,0
3648,-328,-925,0
3606,-385,-911,0
3567,-457,-915,0
3527,-542,-934,0
3492,-620,-956,0
3470,-695,-970,0
3464,-769,-974,0
3473,-840,-975,0
3495,-898,-968,0
3538,-962,-956,0
3597,-1028,-930,0
3661,-1086,-905,0
3728,-1139,-891,0
3789,-1176,-887,0
3844,-1206,-889,0
3896,-1231,-893,0
3943,-1240,-884,0
3989,-1236,-855,0
4030,-1214,-803,0
4065,-1178,-741,0
4094,-1144,-683,0
4122,-1112,-635,0
4146,-1076,-606,0
4169,-1027,-590,0
4175,-960,-578,0
4177,-874,-565,0
4173,-782,-552,0
4168,-708,-546,0
4165,-658,-551,0
4165,-632,-566,0
4160,-612,-580,0
4150,-580,-580,0
4134,-532,-581,0
4118,-478,-577,0
4104,-427,-574,0
4077,-383,-583,0
4044,-347,-601,0
4007,-306,-620,0
3974,-258,-633,0
3950,-219,-636,0
3937,-198,-635,0
3942,-180,-622,0
3961,-176,-610,0
3990,-166,-596,0
4032,-155,-582,0
4075,-143,-558,0
4128,-138,-537,0
4188,-145,-520,0
4243,-153,-505,0
4288,-179,-493,0
4322,-193,-472,0
4345,-193,-474,0
4355,-171,-481,0
4361,-150,-481,0
4366,-134,-478,0
4364,-116,-457,0
4368,-106,-434,0
4359,-75,-431,0
4356,-48,-413,0
4345,-27,-406,0
4308,-28,-428,0
4259,-13,-390,0
4234,-25,-389,0
4181,-30,-401,0
4135,-60,-409,0
4079,-118,-406,0
4021,-205,-401,0
3979,-323,-390,0
3956,-430,-401,0
3937,-485,-452,0
3924,-482,-497,0
3935,-440,-537,0
3975,-393,-574,0
4034,-362,-611,0
4101,-361,-660,0
4190,-399,-721,0
4287,-458,-783,0
4394,-554,-809,0
4478,-643,-824,0
4547,-738,-841,0
4596,-844,-841,0
4629,-931,-842,0
4644,-1000,-857,0
4654,-1025,-888,0
4669,-1006,-939,0
4700,-964,-1013,0
4737,-921,-1112,0
4782,-890,-1230,0
4837,-907,-1355,0
4901,-976,-1487,0
4966,-1073,-1595,0
5050,-1187,-1669,0
5102,-1276,-1661,0
5100,-1325,-1616,0
5051,-1351,-1542,0
4987,-1378,-1460,0
4897,-1414,-1389,0
4779,-1449,-1325,0
4641,-1478,-1250,0
4489,-1477,-1163,0
4311,-1437,-1079,0
4119,-1340,-1006,0
3896,-1181,-941,0
3660,-995,-873,0
3431,-802,-822,0
3214,-628,-813,0
3019,-481,-828,0
2863,-363,-866,0
2739,-271,-922,0
2653,-190,-1003,0
2612,-140,-1102,0
2604,-111,-1224,0
2609,-100,-1365,0
2637,-94,-1508,0
2689,-90,-1627,0
2765,-92,-1720,0
2864,-100,-1777,0
2980,-127,-1821,0
3098,-152,-1852,0
3228,-186,-1868,0
3345,-230,-1867,0
3461,-287,-1849,0
3567,-348,-1813,0
3658,-425,-1765,0
3726,-494,-1729,0
3775,-569,-1710,0
3809,-653,-1715,0
3812,-736,-1741,0
3797,-823,-1779,0
3768,-920,-1820,0
3731,-1013,-1862,0
3696,-1094,-1913,0
3654,-1172,-1952,0
3603,-1248,-1995,0
3568,-1321,-2025,0
3548,-1392,-2025,0
3566,-1470,-1988,0
3605,-1542,-1917,0
3657,-1597,-1822,0
3728,-1629,-1718,0
3805,-1617,-1615,0
3884,-1563,-1528,0
3956,-1474,-1468,0
4024,-1375,-1436,0
4078,-1288,-1416,0
4134,-1208,-1395,0
4194,-1123,-1353,0
4244,-1038,-1295,0
4283,-934,-1230,0
4301,-807,-1151,0
4304,-666,-1083,0
4289,-533,-1064,0
4254,-404,-1106,0
4193,-294,-1197,0
4135,-196,-1302,0
4086,-118,-1382,0
4048,-54,-1418,0
4007,7,-1413,0
3955,77,-1375,0
3911,155,-1327,0
3876,222,-1272,0
3849,273,-1207,0
3823,303,-1156,0
3799,314,-1113,0
3774,296,-1089,0
3748,256,-1086,0
3720,195,-1089,0
3696,125,-1090,0
3672,53,-1092,0
3636,-9,-1085,0
3590,-53,-1075,0
3541,-89,-1060,0
3480,-114,-1047,0
3426,-118,-1038,0
3376,-120,-1022,0
3340,-113,-1027,0
3295,-111,-1058,0
3244,-114,-1108,0
3214,-126,-1155,0
3212,-144,-1201,0
3226,-165,-1244,0
3257,-185,-1281,0
3306,-206,-1312,0
3366,-223,-1325,0
3443,-259,-1330,0
3526,-302,-1327,0
3617,-351,-1313,0
3714,-406,-1309,0
3837,-482,-1296,0
3965,-563,-1276,0
4067,-643,-1252,0
4123,-704,-1249,0
4152,-760,-1272,0
4159,-822,-1307,0
4141,-884,-1326,0
4121,-959,-1323,0
4094,-1023,-1310,0
4051,-1072,-1283,0
3999,-1099,-1264,0
3946,-1121,-1242,0
3899,-1128,-1226,0
3857,-1139,-1215,0
3820,-1136,-1215,0
3786,-1115,-1212,0
3760,-1085,-1214,0
3742,-1054,-1212,0
3726,-1016,-1200,0
3713,-971,-1194,0
3701,-924,-1188,0
3697,-871,-1179,0
3697,-817,-1173,0
3701,-756,-1163,0
3708,-694,-1146,0
3725,-630,-1126,0
3748,-571,-1103,0
3783,-516,-1090,0
3820,-478,-1078,0
3854,-443,-1069,0
3879,-411,-1055,0
3907,-377,-1036,0
3925,-352,-1016,0
3935,-328,-1002,0
3932,-315,-988,0
3923,-304,-975,0
3904,-307,-962,0
3885,-314,-948,0
3857,-326,-927,0
3829,-332,-930,0
3808,-325,-931,0
3796,-347,-889,0
3780,-400,-845,0
3738,-460,-833,0
3692,-503,-856,0
3669,-522,-878,0
3662,-529,-885,0
3664,-529,-877,0
3680,-519,-860,0
3697,-513,-844,0
3719,-504,-836,0
3740,-499,-835,0
3761,-488,-831,0
3778,-470,-830,0
3789,-434,-838,0
3802,-396,-856,0
3814,-368,-875,0
3827,-342,-908,0
3838,-325,-943,0
3842,-319,-977,0
3842,-314,-1010,0
3836,-310,-1031,0
3824,-312,-1036,0
3811,-317,-1032,0
3806,-330,-1028,0
3805,-344,-1017,0
3807,-358,-999,0
3816,-370,-982,0
3834,-383,-968,0
3862,-397,-952,0
3894,-406,-939,0
3936,-421,-929,0
3977,-432,-926,0
4021,-434,-926,0
4060,-426,-916,0
4084,-403,-905,0
4103,-367,-903,0
4128,-318,-903,0
4149,-254,-906,0
4172,-185,-915,0
4202,-116,-923,0
4238,-52,-931,0
4283,1,-940,0
4333,55,-942,0
4387,103,-946,0
4435,149,-936,0
4481,198,-929,0
4518,242,-924,0
4545,272,-920,0
4561,299,-927,0
4560,316,-935,0
4551,331,-945,0
4540,340,-962,0
4539,347,-979,0
4542,346,-985,0
4561,328,-979,0
4589,286,-968,0
4617,237,-961,0
4652,195,-953,0
4686,172,-960,0
4722,187,-978,0
4756,225,-1008,0
4790,294,-1056,0
4812,385,-1115,0
4825,492,-1178,0
4837,587,-1247,0
4845,677,-1322,0
4851,755,-1396,0
4853,819,-1466,0
4860,868,-1524,0
4873,901,-1566,0
4881,915,-1586,0
4882,920,-1588,0
4880,916,-1571,0
4870,897,-1546,0
4837,871,-1524,0
4779,833,-1504,0
4702,784,-1498,0
4613,710,-1510,0
4518,612,-1537,0
4422,488,-1594,0
4328,334,-1653,0
4230,165,-1707,0
4134,-13,-1748,0
4026,-183,-1784,0
3921,-344,-1808,0
3827,-482,-1821,0
3753,-607,-1812,0
3689,-724,-1777,0
3631,-835,-1719,0
3578,-931,-1647,0
3524,-999,-1580,0
3473,-1054,-1525,0
3409,-1093,-1485,0
3333,-1102,-1466,0
3253,-1090,-1471,0
3177,-1061,-1502,0
3098,-1026,-1562,0
3029,-993,-1651,0
2977,-966,-1745,0
2944,-938,-1828,0
2933,-925,-1904,0
2933,-916,-1961,0
2951,-915,-2004,0
2975,-918,-2036,0
3010,-918,-2050,0
3065,-918,-2047,0
3148,-917,-2034,0
3242,-912,-2003,0
3357,-905,-1944,0
3485,-899,-1873,0
3613,-903,-1801,0
3745,-909,-1724,0
3874,-903,-1668,0
3987,-887,-1614,0
4077,-860,-1577,0
4139,-835,-1547,0
4183,-822,-1535,0
4206,-814,-1542,0
4219,-792,-1566,0
4222,-776,-1578,0
4212,-768,-1579,0
4206,-764,-1559,0
4200,-752,-1515,0
4201,-735,-1451,0
4208,-723,-1406,0
4216,-702,-1374,0
4225,-695,-1355,0
4235,-706,-1349,0
4245,-727,-1341,0
4241,-732,-1358,0
4231,-717,-1366,0
4210,-683,-1374,0
4174,-634,-1388,0
4137,-584,-1402,0
4086,-540,-1416,0
4023,-501,-1425,0
3954,-467,-1435,0
3882,-423,-1447,0
3811,-368,-1442,0
3735,-318,-1426,0
3653,-281,-1416,0
3559,-262,-1405,0
3465,-256,-1395,0
3379,-260,-1384,0
3290,-267,-1374,0
3201,-273,-1358,0
3128,-291,-1346,0
3065,-325,-1333,0
3016,-368,-1323,0
2991,-420,-1327,0
2984,-469,-1327,0
2993,-521,-1313,0
3022,-577,-1294,0
3064,-621,-1267,0
3131,-667,-1237,0
3218,-701,-1208,0
3324,-722,-1182,0
3443,-747,-1161,0
3562,-782,-1124,0
3681,-836,-1099,0
3784,-897,-1080,0
3873,-956,-1077,0
3945,-1035,-1060,0
4021,-1029,-998,0
4080,-1032,-1013,0
4143,-1050,-1025,0
4185,-1073,-1050,0
4189,-1096,-1078,0
4176,-1126,-1105,0
4143,-1140,-1121,0
4110,-1142,-1122,0
4064,-1117,-1106,0
4009,-1091,-1086,0
3940,-1051,-1060,0
3879,-1011,-1027,0
3834,-981,-996,0
3791,-951,-957,0
3760,-929,-923,0
3733,-914,-895,0
3712,-908,-872,0
3692,-911,-868,0
3668,-914,-867,0
3639,-902,-866,0
3601,-875,-850,0
3564,-853,-834,0
3533,-825,-821,0
3499,-793,-816,0
3464,-747,-823,0
3438,-714,-829,0
3429,-688,-834,0
3444,-687,-827,0
3447,-642,-808,0
3483,-648,-797,0
3521,-638,-775,0
3561,-613,-730,0
3604,-573,-670,0
3650,-525,-595,0
3687,-478,-533,0
3707,-440,-485,0
3721,-414,-456,0
3724,-403,-436,0
3717,-401,-425,0
3711,-405,-420,0
3711,-411,-421,0
3707,-416,-423,0
3700,-420,-418,0
3697,-422,-402,0
3700,-425,-390,0
3710,-433,-364,0
3730,-438,-342,0
3746,-469,-304,0
3768,-547,-261,0
3806,-672,-246,0
3854,-804,-273,0
3901,-917,-301,0
3938,-983,-321,0
3980,-994,-320,0
4027,-971,-308,0
4062,-911,-295,0
4066,-839,-302,0
4046,-768,-351,0
4003,-702,-425,0
3949,-646,-511,0
3897,-587,-588,0
3852,-536,-650,0
3830,-499,-698,0
3833,-466,-712,0
3857,-432,-693,0
3913,-406,-647,0
3986,-395,-595,0
4065,-408,-537,0
4155,-447,-478,0
4250,-499,-427,0
4343,-549,-376,0
4432,-589,-321,0
4490,-619,-277,0
4524,-633,-264,0
4524,-640,-270,0
4506,-631,-310,0
4470,-595,-364,0
4410,-530,-441,0
4369,-494,-524,0
4331,-464,-594,0
4307,-481,-671,0
4313,-521,-754,0
4349,-573,-838,0
4411,-626,-928,0
4486,-699,-1031,0
4572,-797,-1151,0
4665,-925,-1277,0
4768,-1080,-1389,0
4880,-1245,-1483,0
5001,-1416,-1557,0
5120,-1574,-1618,0
5240,-1717,-1674,0
5346,-1840,-1715,0
5421,-1939,-1745,0
5459,-1995,-1750,0
5446,-1981,-1703,0
5387,-1891,-1592,0
5272,-1737,-1444,0
5124,-1546,-1291,0
4956,-1353,-1165,0
4787,-1212,-1082,0
4630,-1117,-1037,0
4496,-1055,-1019,0
4385,-1025,-1009,0
4295,-994,-992,0
4225,-955,-967,0
4166,-892,-929,0
4111,-800,-872,0
4038,-689,-808,0
3948,-572,-741,0
3843,-467,-691,0
3719,-383,-666,0
3583,-319,-678,0
3435,-264,-734,0
3283,-208,-822,0
3131,-146,-931,0
2979,-75,-1029,0
2841,-21,-1106,0
2732,-3,-1164,0
2654,-17,-1226,0
2604,-59,-1298,0
2582,-127,-1378,0
2569,-186,-1479,0
2577,-250,-1576,0
2611,-318,-1654,0
2672,-391,-1708,0
2763,-461,-1734,0
2880,-529,-1738,0
3013,-585,-1723,0
3151,-621,-1698,0
3286,-644,-1678,0
3414,-636,-1657,0
3534,-616,-1630,0
3652,-594,-1603,0
3769,-559,-1580,0
3882,-529,-1558,0
3988,-512,-1542,0
4081,-502,-1526,0
4161,-487,-1504,0
4223,-463,-1469,0
4262,-436,-1432,0
4279,-407,-1396,0
4266,-389,-1372,0
4235,-402,-1354,0
4187,-433,-1337,0
4144,-477,-1322,0
4089,-511,-1317,0
4034,-550,-1301,0
3985,-596,-1271,0
3953,-646,-1205,0
3931,-684,-1146,0
3899,-694,-1118,0
3862,-691,-1122,0
3847,-695,-1158,0
3843,-719,-1196,0
3845,-774,-1226,0
3851,-849,-1235,0
3842,-893,-1242,0
3825,-910,-1241,0
3807,-909,-1231,0
3789,-901,-1232,0
3770,-890,-1269,0
3744,-852,-1325,0
3741,-816,-1380,0
3752,-782,-1410,0
3778,-762,-1394,0
3813,-764,-1355,0
3839,-766,-1325,0
3856,-757,-1306,0
3854,-729,-1296,0
3859,-690,-1262,0
3863,-637,-1183,0
3877,-584,-1086,0
3884,-538,-1003,0
3871,-491,-940,0
3838,-445,-897,0
3795,-397,-880,0
3742,-349,-877,0
3688,-295,-892,0
3645,-234,-918,0
3609,-167,-947,0
3584,-99,-971,0
3565,-43,-1003,0
3552,11,-1035,0
3553,61,-1062,0
3578,93,-1078,0
3603,119,-1082,0
3641,134,-1071,0
3692,129,-1047,0
3738,107,-1025,0
3791,70,-1001,0
3846,27,-980,0
3889,-22,-969,0
3924,-72,-969,0
3959,-122,-972,0
3984,-175,-974,0
3999,-228,-978,0
4000,-275,-984,0
3986,-312,-1003,0
3968,-340,-1016,0
3957,-365,-1019,0
3945,-396,-1017,0
3918,-423,-1019,0
3891,-439,-1025,0
3863,-459,-1035,0
3834,-481,-1050,0
3810,-505,-1070,0
3795,-532,-1078,0
3785,-565,-1086,0
3787,-595,-1080,0
3790,-624,-1070,0
3798,-650,-1067,0
3793,-667,-1079,0
3790,-682,-1091,0
3788,-695,-1093,0
3794,-699,-1084,0
3807,-702,-1070,0
3821,-706,-1050,0
3835,-702,-1030,0
3846,-693,-1011,0
3856,-686,-989,0
3867,-677,-974,0
3873,-667,-960,0
3882,-649,-940,0
3887,-635,-927,0
3892,-614,-912,0
3896,-592,-904,0
3894,-570,-899,0
3890,-543,-897,0
3885,-511,-889,0
3878,-485,-889,0
3860,-455,-886,0
3846,-426,-880,0
3823,-398,-878,0
3801,-375,-876,0
3786,-346,-876,0
3770,-314,-879,0
3760,-283,-881,0
3758,-249,-883,0
3763,-217,-891,0
3770,-186,-907,0
3779,-149,-922,0
3789,-113,-934,0
3797,-84,-944,0
3808,-66,-950,0
3826,-49,-954,0
3846,-45,-956,0
3866,-51,-943,0
3892,-74,-922,0
3916,-112,-893,0
3932,-156,-863,0
3944,-202,-838,0
3959,-248,-819,0
3969,-291,-804,0
3977,-335,-789,0
3982,-386,-777,0
3988,-439,-762,0
3987,-491,-751,0
3974,-528,-746,0
3958,-559,-744,0
3934,-581,-757,0
3910,-596,-777,0
3883,-603,-795,0
3858,-601,-814,0
3843,-595,-829,0
3846,-585,-834,0
3867,-580,-836,0
3906,-587,-831,0
3958,-602,-820,0
4005,-611,-814,0
4053,-613,-802,0
4079,-609,-788,0
4091,-604,-776,0
4109,-602,-759,0
4111,-591,-755,0
4111,-584,-745,0
4107,-561,-735,0
4104,-526,-724,0
4102,-482,-708,0
4101,-436,-689,0
4101,-387,-673,0
4101,-331,-659,0
4101,-267,-646,0
4104,-206,-635,0
4109,-150,-629,0
4121,-99,-623,0
4137,-55,-617,0
4162,-19,-612,0
4197,17,-608,0
4237,50,-607,0
4271,72,-616,0
4318,86,-636,0
4370,100,-672,0
4423,125,-714,0
4476,172,-759,0
4514,242,-810,0
4549,335,-869,0
4571,426,-941,0
4593,493,-1043,0
4609,516,-1161,0
4628,511,-1277,0
4661,487,-1374,0
4717,459,-1434,0
4798,448,-1456,0
4894,453,-1440,0
4994,475,-1401,0
5079,507,-1355,0
5134,549,-1314,0
5156,587,-1284,0
5139,610,-1284,0
5084,609,-1307,0
4996,568,-1354,0
4880,489,-1413,0
4747,378,-1474,0
4602,240,-1522,0
4448,97,-1557,0
4302,-46,-1581,0
4178,-188,-1601,0
4064,-338,-1611,0
3959,-498,-1625,0
3864,-656,-1648,0
3781,-792,-1657,0
3705,-904,-1642,0
3642,-982,-1602,0
3577,-1026,-1559,0
3512,-1057,-1510,0
3430,-1063,-1479,0
3347,-1072,-1467,0
3277,-1084,-1460,0
3208,-1092,-1462,0
3150,-1092,-1469,0
3099,-1085,-1516,0
3054,-1071,-1573,0
3009,-1037,-1643,0
2969,-1002,-1720,0
2951,-960,-1783,0
2960,-919,-1829,0
2997,-875,-1843,0
3061,-825,-1824,0
3157,-772,-1784,0
3282,-730,-1729,0
3420,-695,-1664,0
3566,-674,-1607,0
3718,-662,-1556,0
3871,-644,-1506,0
4015,-616,-1464,0
4165,-585,-1428,0
4315,-571,-1399,0
4444,-558,-1371,0
4551,-547,-1331,0
4630,-526,-1283,0
4682,-485,-1235,0
4706,-443,-1206,0
4709,-411,-1196,0
4680,-387,-1228,0
4621,-369,-1276,0
4552,-345,-1331,0
4470,-313,-1386,0
4380,-271,-1455,0
4292,-217,-1518,0
4216,-159,-1555,0
4152,-103,-1571,0
4102,-60,-1573,0
4064,-39,-1570,0
4040,-36,-1570,0
4034,-46,-1566,0
4047,-70,-1555,0
4068,-104,-1539,0
4083,-143,-1530,0
4089,-199,-1518,0
4089,-266,-1511,0
4071,-341,-1508,0
4030,-413,-1505,0
3982,-480,-1496,0
3917,-534,-1487,0
3838,-575,-1483,0
3759,-603,-1467,0
3689,-627,-1434,0
3627,-671,-1382,0
3575,-715,-1328,0
3520,-763,-1269,0
3476,-807,-1219,0
3441,-842,-1162,0
3413,-869,-1112,0
3400,-899,-1071,0
3390,-920,-1032,0
3394,-948,-997,0
3406,-962,-965,0
3425,-979,-936,0
3445,-983,-914,0
3469,-988,-895,0
3484,-992,-884,0
3503,-996,-876,0
3516,-1002,-880,0
3533,-1006,-880,0
3546,-1009,-892,0
3554,-1009,-901,0
3564,-1003,-904,0
3571,-989,-905,0
3583,-968,-902,0
3598,-947,-896,0
3610,-912,-896,0
3635,-885,-904,0
3655,-865,-926,0
3655,-847,-950,0
3644,-830,-959,0
3626,-809,-951,0
3601,-777,-920,0
3581,-742,-879,0
3571,-700,-834,0
3561,-662,-806,0
3557,-623,-785,0
3561,-584,-783,0
3565,-553,-797,0
3578,-529,-816,0
3592,-520,-832,0
3616,-517,-858,0
3648,-513,-870,0
3679,-504,-881,0
3708,-495,-895,0
3732,-493,-913,0
3755,-490,-925,0
3777,-491,-930,0
3791,-500,-932,0
3803,-504,-926,0
3815,-518,-928,0
3826,-527,-922,0
3840,-551,-921,0
3868,-572,-915,0
3901,-593,-909,0
3937,-608,-897,0
3976,-635,-889,0
4002,-648,-886,0
4019,-658,-874,0
4017,-666,-855,0
3996,-671,-841,0
3959,-680,-835,0
3917,-703,-838,0
3865,-734,-831,0
3809,-773,-828,0
3755,-812,-820,0
3700,-837,-806,0
3648,-843,-779,0
3604,-847,-750,0
3577,-849,-740,0
3558,-850,-740,0
3553,-844,-742,0
3575,-845,-747,0
3609,-844,-744,0
3660,-839,-732,0
3715,-814,-720,0
3793,-796,-676,0
3877,-789,-636,0
3961,-783,-607,0
4030,-777,-591,0
4068,-756,-586,0
4090,-720,-594,0
4095,-672,-605,0
4091,-621,-619,0
4069,-581,-636,0
4042,-549,-659,0
4018,-538,-687,0
4008,-539,-691,0
4002,-537,-694,0
3989,-524,-689,0
3980,-491,-678,0
3974,-453,-681,0
3970,-411,-688,0
3965,-380,-703,0
3964,-360,-717,0
3976,-334,-716,0
3995,-302,-704,0
4020,-278,-680,0
4048,-253,-650,0
4071,-232,-620,0
4086,-218,-600,0
4093,-206,-588,0
4102,-203,-582,0
4105,-205,-585,0
4106,-215,-590,0
4109,-235,-589,0
4118,-255,-583,0
4130,-285,-573,0
4142,-322,-555,0
4157,-362,-533,0
4172,-399,-503,0
4193,-445,-470,0
4201,-452,-429,0
4223,-456,-391,0
4234,-426,-360,0
4248,-393,-330,0
4252,-347,-307,0
4252,-301,-286,0
4241,-269,-274,0
4223,-243,-262,0
4206,-228,-248,0
4177,-222,-230,0
4146,-241,-211,0
4128,-293,-208,0
4118,-359,-233,0
4109,-408,-283,0
4105,-443,-347,0
4103,-471,-434,0
4117,-522,-536,0
4145,-585,-646,0
4189,-668,-748,0
4241,-745,-825,0
4300,-834,-880,0
4346,-916,-911,0
4378,-1004,-923,0
4415,-1097,-911,0
4449,-1183,-900,0
4490,-1265,-909,0
4543,-1321,-945,0
4602,-1338,-1024,0
4673,-1326,-1124,0
4746,-1293,-1230,0
4820,-1246,-1316,0
4893,-1205,-1393,0
4951,-1198,-1446,0
4992,-1222,-1478,0
5001,-1285,-1520,0
4956,-1344,-1562,0
4871,-1361,-1548,0
4792,-1376,-1499,0
4722,-1383,-1439,0
4656,-1386,-1383,0
4594,-1379,-1322,0
4539,-1343,-1263,0
4474,-1282,-1196,0
4382,-1196,-1124,0
4245,-1081,-1044,0
4084,-938,-970,0
3885,-771,-892,0
3666,-620,-839,0
3448,-477,-823,0
3261,-338,-838,0
3119,-215,-875,0
3028,-110,-924,0
2990,-41,-988,0
2985,5,-1094,0
3013,30,-1226,0
3066,31,-1371,0
3131,25,-1530,0
3198,12,-1686,0
3262,-6,-1826,0
3315,-34,-1951,0
3358,-66,-2045,0
3387,-101,-2102,0
3410,-139,-2131,0
3432,-172,-2128,0
3447,-208,-2093,0
3454,-243,-2044,0
3463,-289,-1983,0
3465,-329,-1925,0
3465,-376,-1871,0
3459,-415,-1827,0
3447,-437,-1792,0
3429,-462,-1780,0
3417,-484,-1787,0
3412,-505,-1805,0
3407,-515,-1839,0
3409,-513,-1881,0
3411,-512,-1924,0
3430,-509,-1968,0
3462,-510,-1997,0
3496,-519,-2020,0
3540,-534,-2033,0
3586,-553,-2037,0
3629,-562,-2034,0
3677,-566,-2012,0
3741,-573,-1960,0
3817,-575,-1900,0
3888,-580,-1843,0
3955,-600,-1780,0
4005,-642,-1728,0
4043,-685,-1683,0
4081,-735,-1634,0
4109,-773,-1592,0
4129,-794,-1556,0
4132,-804,-1537,0
4118,-804,-1533,0
4109,-826,-1534,0
4089,-858,-1545,0
4067,-896,-1548,0
4054,-929,-1527,0
4056,-954,-1490,0
4055,-969,-1440,0
4053,-975,-1387,0
4041,-973,-1359,0
4023,-949,-1345,0
4000,-912,-1347,0
3975,-855,-1360,0
3941,-781,-1382,0
3907,-714,-1401,0
3871,-657,-1414,0
3833,-612,-1405,0
3793,-580,-1387,0
3751,-567,-1354,0
3702,-561,-1305,0
3652,-564,-1249,0
3593,-574,-1207,0
3538,-578,-1169,0
3500,-565,-1137,0
3478,-550,-1096,0
3464,-526,-1052,0
3447,-504,-1029,0
3436,-488,-1026,0
3441,-465,-1036,0
3447,-430,-1050,0
3464,-391,-1057,0
3483,-346,-1060,0
3499,-287,-1060,0
3524,-227,-1084,0
3556,-165,-1095,0
3596,-111,-1094,0
3630,-81,-1106,0
3650,-60,-1132,0
3665,-55,-1173,0
3685,-58,-1212,0
3700,-84,-1233,0
3730,-126,-1229,0
3751,-181,-1216,0
3776,-246,-1197,0
3804,-309,-1179,0
3839,-369,-1160,0
3874,-429,-1141,0
3904,-493,-1133,0
3917,-539,-1134,0
3921,-572,-1135,0
3924,-600,-1130,0
3930,-626,-1117,0
3933,-653,-1111,0
3937,-670,-1108,0
3932,-686,-1110,0
3929,-695,-1105,0
3922,-699,-1104,0
3910,-694,-1107,0
3895,-678,-1118,0
3886,-660,-1128,0
3874,-647,-1141,0
3858,-632,-1150,0
3839,-615,-1155,0
3816,-604,-1155,0
3795,-589,-1155,0
3771,-579,-1161,0
3744,-565,-1173,0
3714,-549,-1188,0
3689,-544,-1196,0
3672,-546,-1201,0
3653,-545,-1198,0
3635,-542,-1185,0
3623,-538,-1172,0
3612,-544,-1158,0
3616,-549,-1153,0
3623,-548,-1143,0
3643,-536,-1124,0
3668,-520,-1087,0
3693,-507,-1055,0
3722,-503,-1031,0
3753,-509,-1019,0
3785,-520,-998,0
3814,-527,-980,0
3841,-520,-958,0
3876,-514,-933,0
3909,-495,-902,0
3934,-480,-866,0
3958,-472,-839,0
3974,-458,-824,0
3980,-440,-816,0
3983,-414,-813,0
3988,-384,-809,0
3983,-351,-806,0
3969,-314,-813,0
3944,-280,-830,0
3918,-248,-855,0
3893,-223,-887,0
3871,-199,-918,0
3858,-176,-944,0
3850,-154,-971,0
3849,-128,-995,0
3849,-101,-1012,0
3847,-79,-1020,0
3858,-61,-1030,0
3871,-46,-1035,0
3880,-26,-1043,0
3888,-8,-1054,0
3892,6,-1068,0
3887,14,-1084,0
3881,9,-1089,0
3873,6,-1091,0
3869,-1,-1091,0
3864,-8,-1079,0
3868,-13,-1060,0
3871,-25,-1048,0
3882,-36,-1027,0
3900,-52,-1010,0
3922,-70,-997,0
3949,-86,-980,0
3980,-99,-970,0
4014,-91,-968,0
4049,-66,-959,0
4079,-31,-954,0
4100,-4,-950,0
4117,21,-942,0
4133,29,-942,0
4134,14,-950,0
4123,4,-962,0
4112,1,-976,0
4104,3,-976,0
4102,4,-965,0
4101,3,-946,0
4101,5,-926,0
4102,10,-914,0
4103,17,-910,0
4105,21,-926,0
4113,17,-952,0
4134,2,-994,0
4169,-23,-1048,0
4216,-61,-1100,0
4264,-103,-1139,0
4325,-157,-1156,0
4388,-198,-1153,0
4451,-200,-1136,0
4516,-155,-1110,0
4574,-71,-1084,0
4618,48,-1070,0
4649,172,-1073,0
4654,286,-1098,0
4645,382,-1156,0
4626,452,-1224,0
4602,496,-1309,0
4580,524,-1400,0
4572,543,-1486,0
4577,556,-1562,0
4595,568,-1625,0
4630,583,-1669,0
4676,611,-1698,0
4735,631,-1713,0
4800,630,-1708,0
4860,623,-1698,0
4908,597,-1677,0
4946,570,-1663,0
4968,542,-1650,0
4969,510,-1634,0
4947,479,-1623,0
4904,422,-1617,0
4828,345,-1614,0
4731,245,-1621,0
4623,129,-1636,0
4514,6,-1646,0
4409,-141,-1636,0
4322,-290,-1600,0
4247,-442,-1548,0
4178,-588,-1490,0
4122,-705,-1428,0
4064,-792,-1366,0
3992,-834,-1318,0
3904,-846,-1286,0
3800,-832,-1271,0
3685,-809,-1271,0
3575,-790,-1276,0
3472,-772,-1288,0
3382,-755,-1303,0
3302,-752,-1332,0
3217,-750,-1368,0
3143,-761,-1411,0
3082,-771,-1456,0
3041,-776,-1489,0
3018,-775,-1509,0
3021,-768,-1524,0
3050,-745,-1531,0
3082,-718,-1533,0
3111,-702,-1540,0
3139,-695,-1564,0
3171,-713,-1589,0
3180,-747,-1590,0
3188,-835,-1641,0
3178,-926,-1662,0
3158,-1035,-1685,0
3131,-1129,-1702,0
3120,-1215,-1714,0
3155,-1288,-1737,0
3230,-1344,-1737,0
3338,-1369,-1705,0
3484,-1368,-1638,0
3652,-1332,-1549,0
3818,-1274,-1445,0
3967,-1212,-1341,0
4092,-1157,-1264,0
4183,-1111,-1226,0
4251,-1066,-1219,0
4300,-1026,-1235,0
4335,-979,-1268,0
4362,-923,-1286,0
4377,-860,-1297,0
4381,-793,-1285,0
4376,-730,-1284,0
4367,-668,-1286,0
4345,-601,-1275,0
4322,-521,-1260,0
4294,-449,-1224,0
4263,-395,-1199,0
4225,-361,-1190,0
4170,-330,-1210,0
4118,-308,-1249,0
4057,-289,-1286,0
3987,-260,-1315,0
3928,-228,-1310,0
3879,-199,-1284,0
3829,-186,-1271,0
3769,-172,-1288,0
3714,-167,-1287,0
3676,-172,-1274,0
3648,-212,-1240,0
3619,-255,-1208,0
3592,-287,-1176,0
3559,-299,-1164,0
3533,-307,-1170,0
3522,-314,-1157,0
3536,-336,-1131,0
3556,-374,-1089,0
3576,-417,-1046,0
3596,-471,-1016,0
3614,-516,-991,0
3639,-574,-974,0
3666,-639,-951,0
3695,-707,-926,0
3730,-760,-904,0
3766,-805,-880,0
3793,-843,-857,0
3811,-879,-842,0
3821,-907,-843,0
3823,-929,-853,0
3815,-947,-866,0
3810,-955,-885,0
3795,-948,-899,0
3775,-940,-921,0
3760,-929,-939,0
3741,-913,-953,0
3720,-886,-959,0
3706,-863,-954,0
3689,-834,-948,0
3664,-799,-950,0
3647,-770,-948,0
3630,-742,-959,0
3609,-721,-967,0
3588,-702,-976,0
3574,-689,-988,0
3572,-676,-1002,0
3579,-658,-1008,0
3602,-628,-1006,0
3629,-601,-1004,0
3661,-573,-991,0
3697,-557,-980,0
3725,-544,-967,0
3745,-535,-956,0
3763,-531,-939,0
3780,-526,-925,0
3797,-515,-903,0
3815,-515,-889,0
3836,-536,-867,0
3848,-541,-842,0
3864,-566,-822,0
3883,-588,-798,0
3896,-595,-775,0
3904,-599,-761,0
3913,-620,-758,0
3920,-641,-753,0
3922,-659,-741,0
3922,-674,-734,0
3915,-689,-729,0
3894,-695,-726,0
3870,-704,-724,0
3844,-712,-727,0
3816,-726,-736,0
3785,-718,-725,0
3768,-721,-716,0
3753,-723,-706,0
3738,-705,-691,0
3730,-701,-680,0
3728,-704,-675,0
3724,-694,-672,0
3724,-697,-670,0
3721,-698,-672,0
3714,-697,-679,0
3706,-689,-689,0
3703,-682,-699,0
3704,-683,-708,0
3706,-683,-714,0
3716,-679,-713,0
3725,-677,-708,0
3740,-673,-699,0
3757,-681,-688,0
3776,-719,-682,0
3795,-769,-693,0
3824,-823,-720,0
3837,-846,-743,0
3857,-857,-757,0
3869,-850,-763,0
3884,-839,-760,0
3895,-828,-754,0
3904,-814,-744,0
3919,-789,-729,0
3938,-755,-711,0
3950,-710,-700,0
3955,-661,-694,0
3963,-619,-691,0
3966,-579,-704,0
3970,-541,-725,0
3980,-506,-744,0
3991,-471,-754,0
3994,-441,-761,0
3998,-415,-764,0
3991,-394,-762,0
3979,-387,-759,0
3966,-390,-753,0
3968,-413,-742,0
3973,-426,-733,0
3983,-445,-709,0
3996,-473,-684,0
4020,-507,-659,0
4059,-549,-622,0
4086,-574,-590,0
4094,-583,-574,0
4094,-589,-554,0
4063,-590,-547,0
4012,-591,-552,0
3977,-590,-567,0
3970,-577,-567,0
3997,-565,-539,0
4050,-570,-492,0
4120,-582,-450,0
4197,-609,-399,0
4247,-621,-357,0
4256,-619,-342,0
4244,-619,-343,0
4224,-633,-346,0
4199,-681,-353,0
4150,-708,-371,0
4112,-765,-417,0
4073,-801,-477,0
4051,-839,-548,0
4042,-870,-618,0
4054,-898,-691,0
4078,-931,-761,0
4117,-965,-819,0
4164,-992,-861,0
4222,-1020,-885,0
4278,-1043,-878,0
4341,-1064,-842,0
4397,-1080,-796,0
4443,-1101,-749,0
4491,-1126,-723,0
4539,-1154,-728,0
4586,-1175,-770,0
4643,-1184,-856,0
4709,-1163,-957,0
4781,-1123,-1055,0
4861,-1094,-1155,0
4954,-1083,-1245,0
5042,-1095,-1312,0
5116,-1116,-1351,0
5167,-1144,-1373,0
5182,-1166,-1388,0
5173,-1173,-1401,0
5123,-1164,-1415,0
5035,-1149,-1427,0
4910,-1132,-1428,0
4767,-1117,-1409,0
4608,-1095,-1381,0
4447,-1060,-1350,0
4286,-1000,-1310,0
4129,-907,-1256,0
3970,-786,-1197,0
3812,-648,-1133,0
3658,-509,-1064,0
3516,-389,-1010,0
3392,-301,-979,0
3284,-248,-976,0
3215,-236,-1003,0
3164,-252,-1044,0
3132,-283,-1101,0
3122,-310,-1169,0
3129,-332,-1232,0
3145,-338,-1287,0
3171,-337,-1326,0
3210,-339,-1357,0
3253,-354,-1386,0
3305,-377,-1428,0
3353,-423,-1476,0
3409,-489,-1529,0
3457,-581,-1582,0
3503,-684,-1611,0
3535,-783,-1620,0
3555,-871,-1598,0
3574,-955,-1574,0
3585,-1032,-1549,0
3582,-1096,-1527,0
3569,-1131,-1507,0
3557,-1160,-1494,0
3543,-1177,-1489,0
3535,-1187,-1505,0
3529,-1177,-1534,0
3535,-1152,-1567,0
3550,-1109,-1599,0
3568,-1053,-1629,0
3597,-999,-1659,0
3634,-946,-1694,0
3671,-891,-1728,0
3709,-835,-1760,0
3735,-777,-1782,0
3754,-718,-1802,0
3769,-682,-1810,0
3776,-668,-1815,0
3769,-671,-1820,0
3747,-686,-1821,0
3724,-710,-1830,0
3700,-755,-1838,0
3675,-818,-1840,0
3653,-905,-1818,0
3631,-992,-1780,0
3614,-1059,-1737,0
3611,-1103,-1698,0
3621,-1133,-1664,0
3643,-1158,-1634,0
3673,-1181,-1604,0
3708,-1199,-1573,0
3738,-1216,-1551,0
3771,-1223,-1524,0
3802,-1221,-1484,0
3835,-1212,-1436,0
3855,-1195,-1400,0
3858,-1169,-1391,0
3859,-1129,-1378,0
3872,-1080,-1373,0
3881,-1021,-1379,0
3881,-958,-1384,0
3880,-905,-1387,0
3877,-863,-1382,0
3862,-829,-1388,0
3839,-788,-1388,0
3813,-744,-1387,0
3788,-698,-1388,0
3766,-656,-1389,0
3745,-614,-1403,0
3729,-574,-1418,0
3714,-539,-1418,0
3700,-505,-1403,0
3692,-478,-1384,0
3678,-458,-1361,0
3663,-438,-1338,0
3656,-425,-1308,0
3654,-410,-1298,0
3653,-392,-1293,0
3657,-370,-1288,0
3655,-349,-1268,0
3647,-347,-1261,0
3640,-350,-1275,0
3640,-359,-1282,0
3649,-374,-1272,0
3658,-391,-1255,0
