accelerometer_x,accelerometer_y,accelerometer_z,fall
3113,-220,-334,0
3258,-277,-422,0
3437,-222,-356,0
3630,-88,-277,0
3817,-20,-168,0
3977,112,18,0
4086,241,150,0
4191,431,316,0
4245,644,413,0
4274,781,567,0
4265,922,645,0
4243,869,694,0
4207,837,772,0
4154,834,782,0
4123,687,726,0
4073,719,763,0
4018,825,814,0
3955,886,823,0
3929,876,800,0
3899,884,769,0
3869,906,597,0
3869,885,640,0
3846,984,649,0
3864,1029,606,0
3878,1018,514,0
3919,981,478,0
3962,932,489,0
4010,871,479,0
4052,773,404,0
4080,680,383,0
4092,617,373,0
4097,571,389,0
4089,540,399,0
4067,543,386,0
4032,537,348,0
4012,534,325,0
3981,594,328,0
3960,644,319,0
3937,697,380,0
3936,709,437,0
3925,733,515,0
3937,727,532,0
3934,715,539,0
3941,692,531,0
3939,672,523,0
3960,594,481,0
3992,480,430,0
3951,443,413,0
3939,439,391,0
3924,420,390,0
3899,379,395,0
3901,302,371,0
3862,149,334,0
3840,-2,255,0
3789,-55,204,0
3751,-122,184,0
3707,-190,165,0
3724,-278,153,0
3690,-310,203,0
3696,-346,214,0
3728,-365,204,0
3729,-355,250,0
3765,-386,296,0
3791,-401,343,0
3803,-416,392,0
3810,-444,444,0
3826,-454,486,0
3817,-422,527,0
3817,-398,551,0
3814,-391,558,0
3798,-389,571,0
3780,-369,588,0
3771,-331,617,0
3774,-316,618,0
3778,-262,708,0
3773,-218,788,0
3751,-157,858,0
3734,-124,908,0
3722,-128,906,0
3690,-138,917,0
3655,-119,968,0
3623,-107,968,0
3600,-83,1006,0
3584,-54,1008,0
3566,-8,1044,0
3572,101,1028,0
3569,131,1115,0
3593,137,1105,0
3637,147,1046,0
3673,176,1003,0
3726,203,993,0
3784,182,934,0
3895,188,954,0
3991,244,1016,0
4086,226,999,0
4197,217,992,0
4287,188,992,0
4376,132,951,0
4449,46,880,0
4570,-76,838,0
4510,-58,818,0
4479,-83,724,0
4449,-100,604,0
4398,-77,582,0
4367,-82,632,0
4228,-55,647,0
4131,-40,645,0
4055,-20,588,0
3998,14,595,0
3933,86,593,0
3898,68,603,0
3875,33,637,0
3883,56,677,0
3976,34,770,0
3905,189,826,0
3952,171,777,0
4054,80,658,0
4191,-56,596,0
4365,-156,587,0
4472,86,710,0
4540,407,969,0
4562,724,1102,0
4584,806,1180,0
4597,715,1223,0
4607,517,1142,0
4644,273,966,0
4778,-36,824,0
4768,-17,755,0
4828,-22,660,0
4890,-55,612,0
4935,-93,630,0
4990,-135,668,0
5049,-182,694,0
5094,-201,665,0
5127,-233,589,0
5170,-308,495,0
5236,-427,420,0
5224,-396,379,0
5329,-586,212,0
5371,-669,122,0
5445,-665,63,0
5537,-600,20,0
5569,-444,-32,0
5597,-327,-104,0
5628,-103,-108,0
5590,162,-38,0
5526,434,99,0
5398,626,192,0
5217,684,173,0
5015,631,102,0
4727,627,-22,0
4498,510,-160,0
4274,435,-208,0
4047,418,-157,0
3872,437,-140,0
3691,476,-91,0
3514,499,-74,0
3334,532,-144,0
3162,566,-267,0
2968,603,-382,0
2858,568,-447,0
2735,599,-393,0
2647,674,-251,0
2582,781,-69,0
2604,845,107,0
2657,917,289,0
2781,957,443,0
2930,1000,582,0
3101,1025,683,0
3289,1027,727,0
3504,982,740,0
3737,935,762,0
3968,878,783,0
4179,831,808,0
4354,807,802,0
4480,778,783,0
4560,748,740,0
4606,695,681,0
4635,597,619,0
4659,515,531,0
4628,501,505,0
4597,522,527,0
4515,593,616,0
4516,639,620,0
4429,754,643,0
4329,853,682,0
4236,910,715,0
4125,942,782,0
4111,901,785,0
4045,895,810,0
4001,855,814,0
3981,756,804,0
3976,636,816,0
3977,489,797,0
3977,361,795,0
3964,256,787,0
3954,166,802,0
3942,78,808,0
3930,-3,795,0
3931,-81,719,0
3882,-129,751,0
3756,-156,839,0
3674,-247,854,0
3617,-350,795,0
3571,-427,729,0
3530,-473,692,0
3492,-463,694,0
3451,-403,724,0
3430,-339,778,0
3431,-295,823,0
3379,-204,880,0
3474,-196,833,0
3516,-166,837,0
3522,-92,881,0
3530,-32,942,0
3531,8,1003,0
3525,67,1035,0
3525,101,1064,0
3519,123,1072,0
3507,173,1071,0
3489,230,1096,0
3479,309,1116,0
3474,386,1130,0
3469,464,1148,0
3472,536,1158,0
3468,598,1183,0
3457,652,1193,0
3437,701,1190,0
3404,743,1168,0
3364,779,1139,0
3319,811,1105,0
3264,862,1090,0
3217,895,1067,0
3167,924,1052,0
3123,961,1058,0
3102,966,1089,0
3096,958,1151,0
3116,924,1208,0
3157,877,1257,0
3220,827,1299,0
3300,770,1339,0
3377,683,1398,0
3429,628,1454,0
3470,582,1485,0
3520,517,1546,0
3554,462,1570,0
3597,407,1560,0
3658,349,1543,0
3740,291,1542,0
3814,227,1561,0
3880,169,1593,0
3939,123,1608,0
3984,85,1600,0
4001,46,1591,0
3983,11,1566,0
3948,-42,1505,0
3922,-118,1417,0
3920,-216,1332,0
3935,-285,1291,0
3960,-325,1281,0
4004,-338,1289,0
4051,-332,1343,0
4099,-283,1396,0
4145,-244,1431,0
4181,-211,1442,0
4211,-186,1453,0
4235,-155,1477,0
4256,-108,1532,0
4269,-65,1624,0
4276,-34,1725,0
4273,33,1835,0
4268,126,1968,0
4258,265,2138,0
4241,330,2227,0
4210,373,2294,0
4171,413,2322,0
4131,450,2323,0
4103,450,2325,0
4072,439,2321,0
4050,436,2292,0
4055,316,2292,0
4028,188,2320,0
3976,83,2330,0
3912,63,2279,0
3917,117,2224,0
4006,231,2184,0
4087,393,2132,0
4192,415,2009,0
4241,340,1835,0
4222,182,1626,0
4133,71,1427,0
3984,42,1264,0
3862,131,1150,0
3769,366,1135,0
3785,610,1160,0
3903,897,1172,0
4119,1201,1123,0
4354,1545,1035,0
4689,1663,1069,0
4932,1735,1157,0
5116,1700,1242,0
5272,1544,1309,0
5333,1517,1332,0
5318,1561,1330,0
5247,1606,1290,0
5126,1631,1240,0
4951,1648,1192,0
4782,1570,1169,0
4607,1635,1244,0
4475,1743,1368,0
4354,1775,1469,0
4232,1699,1532,0
4079,1582,1525,0
3918,1471,1442,0
3736,1332,1362,0
3550,1225,1290,0
3391,1130,1218,0
3252,1045,1172,0
3146,942,1187,0
3062,873,1201,0
3018,890,1208,0
3016,994,1180,0
2997,1072,1109,0
2930,1092,1038,0
2872,1027,974,0
2818,934,867,0
2790,856,750,0
2776,848,682,0
2789,743,679,0
2826,735,679,0
2890,749,649,0
2989,604,612,0
3115,383,582,0
3249,195,544,0
3391,39,485,0
3517,-52,410,0
3640,-167,321,0
3772,-352,212,0
3905,-603,102,0
4016,-843,-4,0
4121,-1029,-71,0
4169,-1035,-70,0
4191,-956,-39,0
4180,-844,41,0
4143,-792,93,0
4091,-705,191,0
4017,-535,318,0
3933,-471,374,0
3851,-284,534,0
3747,5,545,0
3739,-15,685,0
3712,148,790,0
3690,327,789,0
3753,436,872,0
3781,620,909,0
3839,779,916,0
3907,899,922,0
3962,1027,919,0
4017,1126,867,0
4041,1200,778,0
4043,1284,638,0
4034,1358,498,0
4005,1423,322,0
4034,1404,236,0
4061,1425,201,0
4072,1490,227,0
4063,1547,307,0
4081,1533,356,0
4137,1520,353,0
4240,1451,328,0
4312,1423,383,0
4425,1463,521,0
4495,1483,643,0
4512,1473,791,0
4519,1380,897,0
4510,1153,904,0
4443,991,911,0
4342,880,878,0
4256,740,863,0
4125,548,822,0
4033,421,820,0
3873,405,779,0
3761,360,771,0
3653,177,742,0
3565,53,712,0
3544,-5,709,0
3522,-32,748,0
3472,20,802,0
3505,-69,809,0
3504,-196,766,0
3538,-256,741,0
3561,-250,674,0
3599,-305,669,0
3638,-266,682,0
3680,-240,718,0
3674,-307,701,0
3639,-384,640,0
3617,-382,644,0
3581,-326,657,0
3591,-285,748,0
3607,-314,818,0
3636,-270,890,0
3651,-230,936,0
3688,-283,952,0
3725,-219,959,0
3768,-119,978,0
3797,-58,999,0
3824,-31,1004,0
3839,12,1002,0
3857,83,1011,0
3877,160,1030,0
3900,224,1053,0
3910,280,1066,0
3924,311,1043,0
3921,334,1057,0
3928,331,1049,0
3919,321,1062,0
3942,299,1050,0
3955,290,1062,0
3966,280,1042,0
3970,277,1046,0
3973,266,1061,0
3974,229,1070,0
3975,194,1070,0
3963,175,1056,0
3955,142,1015,0
3949,89,979,0
3944,69,952,0
3955,89,932,0
3934,86,928,0
3999,85,957,0
4036,137,1014,0
4068,128,1051,0
4079,91,1011,0
4079,64,949,0
4087,97,938,0
4082,117,927,0
4091,170,968,0
4092,217,1028,0
4056,250,1057,0
4070,268,1098,0
4052,358,1127,0
4021,343,1129,0
3965,303,1102,0
3887,281,1062,0
3828,259,1040,0
3736,296,1051,0
3676,255,1017,0
3648,171,1004,0
3634,139,999,0
3646,172,1022,0
3678,206,1095,0
3707,176,1047,0
3725,149,1041,0
3730,108,971,0
3745,113,967,0
3739,151,1003,0
3748,122,1014,0
3752,79,1012,0
3757,52,990,0
3758,20,943,0
3784,-12,899,0
3832,-65,890,0
3935,33,877,0
3989,85,859,0
4038,132,843,0
4079,225,862,0
4108,336,960,0
4079,537,1168,0
4109,647,1328,0
4106,701,1398,0
4157,588,1335,0
4249,389,1155,0
4296,285,877,0
4412,109,631,0
4502,28,478,0
4604,-42,424,0
4649,-136,412,0
4732,-151,365,0
4786,-166,398,0
4863,-198,463,0
4916,-191,451,0
4936,-213,324,0
5006,-390,154,0
5056,-444,62,0
5069,-356,61,0
5136,-231,-29,0
5206,-157,-19,0
5304,-68,66,0
5397,79,159,0
5490,175,263,0
5547,249,346,0
5520,281,395,0
5467,258,348,0
5333,205,293,0
5143,174,216,0
4901,168,101,0
4670,102,-18,0
4395,83,-73,0
4103,122,-111,0
3823,133,-136,0
3564,147,-145,0
3331,186,-135,0
3130,252,-106,0
2984,323,-82,0
2878,420,-39,0
2830,515,26,0
2850,587,79,0
2935,639,138,0
3076,655,218,0
3240,674,305,0
3411,686,377,0
3573,699,415,0
3756,641,429,0
3904,626,440,0
4041,610,440,0
4187,576,430,0
4325,539,413,0
4456,505,407,0
4568,483,414,0
4661,453,409,0
4745,414,383,0
4821,340,367,0
4870,278,383,0
4889,224,428,0
4894,164,480,0
4892,88,518,0
4872,14,534,0
4841,-48,532,0
4795,-98,509,0
4742,-131,489,0
4690,-157,473,0
4629,-150,445,0
4567,-128,407,0
4490,-96,364,0
4414,-62,318,0
4338,-15,288,0
4264,42,275,0
4203,89,270,0
4145,132,280,0
4070,163,298,0
4000,184,312,0
3934,176,325,0
3890,155,335,0
3847,172,353,0
3805,196,387,0
3766,217,431,0
3727,235,478,0
3740,190,500,0
3731,195,531,0
3721,181,534,0
3716,147,510,0
3713,105,467,0
3686,77,432,0
3729,4,407,0
3738,26,429,0
3744,30,468,0
3751,9,529,0
3771,-29,583,0
3801,-58,641,0
3783,-40,701,0
3875,-91,736,0
3927,-31,810,0
3949,59,897,0
3973,98,968,0
3996,104,973,0
4005,117,965,0
4012,135,939,0
4021,88,920,0
4035,131,921,0
3983,217,910,0
3919,253,922,0
3850,252,899,0
3738,250,845,0
3742,164,785,0
3691,210,754,0
3652,252,743,0
3639,269,749,0
3602,287,770,0
3665,255,788,0
3694,304,804,0
3740,358,828,0
3818,394,876,0
3826,388,1017,0
3878,357,1140,0
3864,349,1171,0
3845,312,1140,0
3844,248,1081,0
3879,191,1074,0
3856,207,1112,0
3823,234,1130,0
3895,129,1116,0
3914,153,1158,0
3908,214,1157,0
3960,119,1130,0
3976,110,1180,0
3952,151,1210,0
4011,41,1245,0
4017,64,1281,0
3997,108,1306,0
4024,-2,1281,0
4008,7,1236,0
3971,83,1128,0
3940,120,980,0
3976,0,892,0
3970,-14,967,0
3937,-8,1151,0
3922,-11,1379,0
3896,-33,1547,0
3924,-41,1763,0
3899,16,1877,0
3889,50,1904,0
3881,16,1830,0
3831,-55,1709,0
3750,-147,1555,0
3639,-207,1421,0
3537,-255,1349,0
3464,-332,1364,0
3402,-422,1445,0
3366,-503,1551,0
3348,-551,1645,0
3345,-585,1688,0
3338,-587,1675,0
3343,-596,1643,0
3341,-610,1626,0
3340,-613,1624,0
3344,-610,1633,0
3356,-593,1639,0
3366,-575,1638,0
3392,-554,1603,0
3425,-542,1575,0
3473,-506,1566,0
3540,-476,1557,0
3627,-448,1578,0
3763,-342,1651,0
3911,-272,1754,0
4074,-291,1787,0
4254,-273,1795,0
4452,-224,1786,0
4652,-181,1740,0
4804,-109,1615,0
4970,-141,1440,0
5101,-316,1222,0
5178,-303,1050,0
5143,-192,808,0
5134,-289,580,0
5007,-299,403,0
4827,-334,267,0
4650,-362,258,0
4417,-237,231,0
4216,-23,214,0
4087,210,211,0
4002,394,211,0
3988,489,235,0
4005,599,303,0
4019,720,404,0
3996,901,430,0
3968,1051,448,0
3976,1078,553,0
3978,1144,719,0
3971,1267,870,0
3963,1398,983,0
3941,1500,1025,0
3893,1574,996,0
3833,1611,938,0
3779,1625,861,0
3728,1628,797,0
3704,1604,769,0
3685,1546,756,0
3695,1457,751,0
3724,1332,756,0
3769,1236,759,0
3809,1189,758,0
3857,1159,780,0
3905,1112,828,0
3946,1036,875,0
3993,954,899,0
4033,835,917,0
4039,762,945,0
4013,756,962,0
3979,710,923,0
3963,578,834,0
3963,387,720,0
3981,199,660,0
4017,81,650,0
4047,-13,665,0
4074,-84,655,0
4089,-202,633,0
4072,-359,593,0
4016,-492,503,0
3928,-593,374,0
3828,-677,245,0
3769,-770,128,0
3723,-805,67,0
3693,-745,51,0
3693,-647,86,0
3699,-506,166,0
3710,-363,259,0
3723,-223,329,0
3733,-110,383,0
3738,-13,431,0
3750,71,491,0
3760,166,547,0
3776,238,586,0
3798,278,608,0
3837,284,599,0
3902,292,583,0
3953,301,613,0
4008,360,693,0
4055,420,763,0
4089,472,823,0
4140,471,826,0
4210,433,847,0
4258,432,887,0
4301,416,940,0
4325,399,979,0
4327,376,1006,0
4315,309,996,0
4291,217,960,0
4290,109,881,0
4232,75,821,0
4222,31,800,0
4216,-22,790,0
4208,-87,793,0
4183,-149,801,0
4143,-193,790,0
4128,-241,714,0
3994,-216,682,0
3922,-262,642,0
3856,-320,616,0
3779,-340,599,0
3765,-381,490,0
3658,-332,519,0
3610,-292,480,0
3576,-256,409,0
3606,-268,271,0
3549,-234,275,0
3539,-177,249,0
3547,-117,214,0
3627,-107,124,0
3611,-27,181,0
3644,51,207,0
3682,133,193,0
3747,216,186,0
3804,296,188,0
3840,386,245,0
3888,454,279,0
3931,495,273,0
3981,532,302,0
4017,567,356,0
4045,575,350,0
4085,578,396,0
4115,605,479,0
4150,613,520,0
4156,608,583,0
4181,500,641,0
4200,353,680,0
4212,190,729,0
4207,79,755,0
4191,-16,749,0
4172,-95,690,0
4161,-245,621,0
4142,-431,580,0
4145,-588,515,0
4147,-677,450,0
4153,-710,397,0
4165,-730,348,0
4178,-735,308,0
4180,-723,298,0
4163,-656,335,0
4132,-551,316,0
4083,-446,329,0
4022,-359,407,0
4025,-261,351,0
3921,-229,437,0
3863,-248,407,0
3825,-241,368,0
3832,-200,331,0
3839,-94,289,0
3839,-70,361,0
3872,-63,363,0
3909,-45,311,0
3977,-5,272,0
3984,68,294,0
4029,100,329,0
4084,82,288,0
4137,98,281,0
4203,143,293,0
4279,189,253,0
4284,191,258,0
4307,177,248,0
4317,154,228,0
4300,151,204,0
4279,155,179,0
4304,125,160,0
4257,89,101,0
4251,3,104,0
4275,-83,123,0
4292,-156,135,0
4316,-205,122,0
4383,-236,-36,0
4362,-247,-11,0
4368,-154,41,0
4375,1,122,0
4345,155,222,0
4357,208,320,0
4334,288,448,0
4308,264,514,0
4356,82,473,0
4251,19,397,0
4210,-112,201,0
4223,-252,21,0
4255,-342,-57,0
4306,-389,-45,0
4392,-414,0,0
4503,-429,89,0
4602,-376,109,0
4692,-351,83,0
4779,-397,72,0
4850,-451,83,0
4901,-555,77,0
4929,-543,76,0
4952,-447,39,0
5055,-453,6,0
4926,-330,105,0
4899,-266,194,0
4859,-157,206,0
4801,-97,217,0
4728,-50,245,0
4659,49,282,0
4594,182,319,0
4533,219,327,0
4473,298,267,0
4465,258,203,0
4536,87,115,0
4408,167,143,0
4379,221,111,0
4412,232,69,0
4410,264,83,0
4417,301,116,0
4434,308,154,0
4439,312,186,0
4424,342,202,0
4387,344,201,0
4330,331,157,0
4258,297,93,0
4188,229,17,0
4128,189,-58,0
4078,165,-123,0
4037,143,-175,0
4001,139,-181,0
3964,162,-163,0
3918,213,-157,0
3860,285,-186,0
3789,364,-230,0
3714,457,-277,0
3614,602,-274,0
3521,750,-260,0
3460,878,-223,0
3446,1000,-121,0
3468,1113,30,0
3513,1229,196,0
3580,1351,334,0
3642,1447,422,0
3721,1495,446,0
3836,1509,435,0
3974,1499,459,0
4130,1463,548,0
4287,1408,688,0
4424,1333,804,0
4544,1241,842,0
4638,1122,830,0
4697,999,810,0
4736,884,768,0
4742,849,787,0
4732,827,816,0
4720,768,826,0
4707,667,811,0
4689,551,780,0
4652,497,764,0
4607,426,778,0
4559,397,772,0
4471,432,846,0
4462,517,820,0
4384,604,792,0
4273,636,777,0
4162,533,731,0
4024,413,646,0
3903,330,579,0
3804,232,527,0
3672,223,538,0
3551,243,604,0
3460,248,634,0
3355,213,667,0
3346,158,651,0
3319,149,673,0
3307,130,673,0
3312,96,681,0
3328,81,676,0
3327,76,703,0
3387,90,715,0
3428,159,761,0
3460,225,832,0
3486,249,944,0
3511,206,995,0
3570,173,1039,0
3579,202,1080,0
3597,234,1084,0
3602,264,1099,0
3529,340,1151,0
3642,234,1115,0
3662,234,1109,0
3655,293,1137,0
3655,336,1148,0
3596,366,1177,0
3683,274,1151,0
3678,299,1184,0
3657,359,1226,0
3639,396,1277,0
3617,426,1308,0
3567,471,1373,0
3603,463,1400,0
3554,502,1414,0
3500,549,1415,0
3453,595,1413,0
3392,672,1428,0
3354,690,1411,0
3276,664,1319,0
3196,616,1250,0
3125,597,1188,0
3064,568,1160,0
3009,554,1130,0
2974,505,1141,0
2949,446,1152,0
2945,373,1210,0
2960,294,1302,0
2989,179,1400,0
3045,127,1523,0
3081,98,1626,0
3084,122,1693,0
3090,154,1714,0
3107,173,1698,0
3130,183,1662,0
3149,192,1611,0
3160,213,1552,0
3167,249,1474,0
3189,312,1405,0
3234,352,1372,0
3286,349,1378,0
3346,319,1431,0
3408,291,1523,0
3474,287,1646,0
3542,296,1773,0
3607,294,1878,0
3657,297,1938,0
3690,303,1938,0
3737,287,1889,0
3775,294,1816,0
3811,299,1711,0
3846,281,1580,0
3886,258,1460,0
3936,241,1367,0
3994,241,1311,0
4056,255,1286,0
4132,301,1292,0
4225,372,1335,0
4318,452,1417,0
4397,530,1516,0
4427,621,1601,0
4438,708,1693,0
4493,713,1808,0
4542,666,1938,0
4579,608,2058,0
4577,561,2167,0
4566,484,2242,0
4538,385,2297,0
4491,266,2349,0
4433,168,2422,0
4373,69,2431,0
4335,9,2458,0
4312,-4,2415,0
4375,33,2401,0
4453,81,2273,0
4582,16,2050,0
4692,-118,1777,0
4705,-337,1440,0
4677,-598,1160,0
4585,-640,1047,0
4475,-479,1094,0
4368,-173,1209,0
4287,177,1277,0
4262,482,1262,0
4287,719,1190,0
4388,901,1155,0
4511,1117,1177,0
4646,1305,1296,0
4796,1475,1461,0
4918,1687,1592,0
4994,1882,1629,0
4997,2013,1598,0
4962,2018,1586,0
4842,2075,1547,0
4691,2094,1486,0
4548,2087,1443,0
4392,2108,1428,0
4246,2098,1442,0
4078,2050,1500,0
3901,1904,1493,0
3734,1703,1386,0
3570,1502,1148,0
3408,1403,890,0
3267,1269,724,0
3137,1169,674,0
3018,1083,664,0
2915,1057,614,0
2823,1122,582,0
2767,1140,442,0
2720,1170,357,0
2714,1066,239,0
2737,1018,171,0
2782,903,96,0
2844,745,27,0
2874,811,43,0
2938,747,63,0
3027,578,82,0
3145,366,38,0
3265,141,-2,0
3397,-60,-31,0
3540,-209,-66,0
3689,-334,-89,0
3834,-385,-91,0
3985,-412,-60,0
4115,-428,-17,0
4219,-444,48,0
4281,-427,167,0
4319,-360,273,0
4310,-351,389,0
4268,-274,485,0
4226,-211,546,0
4186,-196,581,0
4153,-248,534,0
4118,-194,618,0
4099,-36,653,0
4120,73,661,0
4158,121,685,0
4222,109,700,0
4241,126,692,0
4274,143,672,0
4295,228,656,0
4293,350,621,0
4258,473,587,0
4209,541,526,0
4178,585,499,0
4163,669,483,0
4143,783,522,0
4123,884,565,0
4091,920,551,0
4081,912,507,0
4035,917,389,0
3988,949,344,0
3939,946,328,0
3908,975,368,0
3895,903,374,0
3887,863,431,0
3879,830,507,0
3878,794,550,0
3887,727,548,0
3893,747,559,0
3904,746,560,0
3895,677,544,0
3889,616,541,0
3905,550,516,0
3854,438,570,0
3817,355,517,0
3816,308,446,0
3784,278,409,0
3763,240,407,0
3754,196,414,0
3742,193,420,0
3735,152,412,0
3743,70,407,0
3712,13,430,0
3729,-13,449,0
3735,-81,469,0
3745,-149,512,0
3742,-217,541,0
3736,-317,522,0
3688,-423,464,0
3638,-456,427,0
3586,-468,411,0
3559,-419,429,0
3552,-441,436,0
3522,-459,524,0
3546,-415,531,0
3588,-371,533,0
3621,-336,551,0
3656,-290,586,0
3701,-239,615,0
3770,-175,646,0
3802,-133,653,0
3828,-160,700,0
3848,-87,698,0
3880,49,676,0
3908,106,637,0
3953,132,622,0
3972,193,647,0
3968,220,725,0
3989,247,712,0
3979,318,659,0
3982,379,625,0
4007,481,631,0
3970,523,740,0
3956,478,750,0
3948,462,728,0
3912,482,687,0
3932,472,625,0
3947,467,611,0
3961,425,555,0
4030,382,554,0
4071,396,584,0
4136,366,556,0
4199,361,575,0
4236,351,570,0
4274,298,537,0
4304,254,491,0
4316,188,450,0
4345,89,348,0
4330,81,392,0
4331,58,454,0
4343,16,485,0
4339,-31,479,0
4349,-98,462,0
4273,-109,449,0
4229,-221,344,0
4165,-276,302,0
4116,-309,295,0
4068,-339,334,0
4022,-365,391,0
3982,-376,454,0
3939,-345,499,0
3902,-307,549,0
3885,-278,561,0
3895,-250,580,0
3945,-222,602,0
4031,-202,615,0
4201,-201,716,0
4270,-101,717,0
4439,-5,803,0
4566,186,920,0
4694,272,1067,0
4795,232,1162,0
4873,115,1186,0
4935,16,1105,0
5063,-288,1018,0
4994,-351,905,0
5005,-552,632,0
5064,-721,413,0
5038,-685,316,0
5016,-748,200,0
4994,-812,105,0
5114,-978,57,0
5044,-622,174,0
5088,-356,225,0
5163,-169,233,0
5241,-47,191,0
5314,46,202,0
5362,93,202,0
5431,141,176,0
5450,163,66,0
5516,42,-38,0
5513,52,-127,0
5484,157,-88,0
5404,317,-50,0
5246,454,-85,0
5025,502,-173,0
4737,553,-284,0
4458,500,-385,0
4203,439,-437,0
3991,410,-402,0
3837,410,-287,0
3690,455,-149,0
3531,542,-82,0
3365,632,-104,0
3210,708,-171,0
3060,781,-227,0
2930,849,-251,0
2850,909,-223,0
2834,945,-108,0
2871,974,83,0
2960,1019,294,0
3079,1059,495,0
3211,1076,638,0
3355,1048,711,0
3526,1008,728,0
3724,910,687,0
3927,798,656,0
4154,653,669,0
4384,475,709,0
4605,296,756,0
4785,174,806,0
4920,98,832,0
5007,66,814,0
4989,70,778,0
5030,74,642,0
4989,129,529,0
4930,164,447,0
4860,181,392,0
4770,217,353,0
4660,291,326,0
4529,369,341,0
4380,469,398,0
4231,528,411,0
4083,553,397,0
3828,659,487,0
3804,678,388,0
3675,738,329,0
3533,791,307,0
3415,809,329,0
3312,809,356,0
3244,800,389,0
3196,781,437,0
3131,806,577,0
3182,726,622,0
3187,681,682,0
3211,634,746,0
3259,578,823,0
3282,538,910,0
3413,443,893,0
3509,396,927,0
3583,366,945,0
3658,323,934,0
3672,282,933,0
3808,188,843,0
3874,186,845,0
3894,228,850,0
3910,265,866,0
3909,283,889,0
3855,312,911,0
3888,250,924,0
3835,272,924,0
3758,325,935,0
3689,378,959,0
3619,425,973,0
3534,457,979,0
3488,460,939,0
3458,472,942,0
3396,534,959,0
3344,595,996,0
3304,653,1030,0
3284,696,1065,0
3261,709,1063,0
3254,711,1071,0
3201,722,1021,0
3110,723,967,0
3150,631,911,0
3135,596,892,0
3126,574,906,0
3155,519,962,0
3212,449,1040,0
3274,361,1126,0
3307,274,1222,0
3307,215,1320,0
3299,180,1425,0
3293,168,1521,0
3295,160,1588,0
3301,144,1609,0
3304,127,1598,0
3307,113,1582,0
3311,111,1583,0
3322,116,1590,0
3344,117,1594,0
3371,138,1586,0
3414,173,1582,0
3458,204,1596,0
3503,229,1598,0
3540,218,1585,0
3603,177,1628,0
3647,151,1682,0
3673,107,1703,0
3680,65,1666,0
3688,34,1565,0
3706,11,1441,0
3727,11,1316,0
3772,29,1234,0
3838,53,1215,0
3924,95,1233,0
4023,156,1277,0
4139,228,1332,0
4255,293,1402,0
4328,378,1463,0
4386,489,1521,0
4431,567,1548,0
4460,602,1572,0
4465,612,1614,0
4454,593,1681,0
4422,554,1779,0
4384,463,1880,0
4328,355,1969,0
4265,247,2058,0
4220,135,2136,0
4197,21,2220,0
4207,-117,2334,0
4252,-262,2400,0
4301,-344,2477,0
4435,-415,2532,0
4661,-360,2618,0
4865,-195,2652,0
5021,-189,2549,0
5076,-322,2270,0
5026,-511,1955,0
4884,-666,1692,0
4701,-665,1552,0
4496,-413,1563,0
4304,-54,1617,0
4166,301,1638,0
4074,583,1591,0
4067,775,1516,0
4128,946,1452,0
4229,1123,1395,0
4367,1277,1356,0
4545,1343,1369,0
4677,1452,1404,0
4749,1566,1439,0
4758,1637,1439,0
4686,1704,1415,0
4626,1694,1387,0
4531,1736,1417,0
4461,1818,1485,0
4395,1942,1548,0
4322,2018,1557,0
4183,2023,1429,0
4013,1901,1327,0
3824,1804,1186,0
3638,1666,1057,0
3482,1518,984,0
3367,1389,896,0
3251,1269,779,0
3141,1222,650,0
3007,1196,546,0
2908,1122,485,0
2830,1063,470,0
2785,1036,470,0
2753,1033,419,0
2765,982,309,0
2767,915,260,0
2797,796,247,0
2828,621,221,0
2886,435,147,0
2976,230,7,0
3083,7,-65,0
3220,-178,-152,0
3344,-346,-235,0
3497,-476,-256,0
3651,-600,-340,0
3764,-417,-284,0
3866,-77,-219,0
3985,97,-118,0
4110,88,0,0
4215,0,94,0
4274,-25,189,0
4273,88,195,0
4268,137,368,0
4217,344,517,0
4160,500,622,0
4103,429,653,0
4058,480,740,0
4019,620,792,0
3992,767,779,0
4008,687,763,0
4030,715,810,0
4113,767,825,0
4186,850,788,0
4212,868,669,0
4231,878,517,0
4258,886,449,0
4266,907,419,0
4262,907,401,0
4274,872,402,0
4292,849,416,0
4307,826,422,0
4262,843,447,0
4193,724,412,0
4198,719,451,0
4191,707,491,0
4201,742,605,0
4185,674,678,0
4144,563,712,0
4083,574,721,0
4014,560,730,0
3934,429,709,0
3863,278,680,0
3793,217,658,0
3733,163,630,0
3698,72,595,0
3656,48,551,0
3647,1,556,0
3681,-111,576,0
3667,-201,593,0
3670,-183,641,0
3687,-209,669,0
3645,-211,683,0
3641,-215,745,0
3642,-305,728,0
3592,-403,726,0
3560,-521,696,0
3535,-562,642,0
3461,-529,632,0
3450,-604,617,0
3382,-601,642,0
3378,-541,697,0
3381,-544,694,0
3379,-554,749,0
3421,-575,766,0
3469,-525,768,0
3530,-478,787,0
3586,-465,804,0
3636,-473,797,0
3680,-474,780,0
3714,-461,763,0
3734,-424,736,0
3752,-382,712,0
3768,-323,699,0
3762,-283,673,0
3741,-237,645,0
3767,-112,599,0
3807,-28,630,0
3875,84,706,0
3976,173,733,0
3997,193,811,0
4012,182,766,0
4036,298,722,0
4076,401,724,0
4121,493,750,0
4110,486,856,0
4079,487,892,0
4039,508,868,0
4060,459,818,0
3978,518,822,0
3938,516,823,0
3932,493,785,0
3937,456,752,0
3970,419,741,0
4018,381,747,0
4083,315,783,0
4117,317,753,0
4206,260,753,0
4172,266,768,0
4172,237,706,0
4201,167,627,0
4230,145,593,0
4257,148,616,0
4274,142,608,0
4236,74,588,0
4209,10,517,0
4169,-41,478,0
4124,-67,471,0
4076,-96,484,0
4034,-97,514,0
4026,-134,547,0
3974,-107,566,0
3955,-168,579,0
3989,-235,531,0
4053,-319,528,0
4168,-389,568,0
4332,-453,597,0
4591,-590,678,0
4632,-378,650,0
4807,-199,723,0
4943,69,807,0
5040,177,894,0
5099,247,1081,0
5093,236,1191,0
5076,120,1143,0
5061,19,960,0
5077,-233,785,0
5038,-365,629,0
5024,-408,415,0
4983,-390,285,0
4967,-327,300,0
5007,-298,258,0
5104,-198,349,0
5154,-189,476,0
5271,-164,548,0
5375,-197,474,0
5487,-304,368,0
5500,-239,274,0
5572,-160,162,0
5599,-136,135,0
5595,-95,122,0
5555,41,117,0
5454,113,92,0
5256,193,4,0
5042,223,-106,0
4766,251,-295,0
4445,228,-573,0
4202,166,-733,0
3991,77,-699,0
3856,95,-494,0
3704,244,-270,0
3509,474,-155,0
3304,656,-175,0
3128,736,-282,0
2983,757,-382,0
2862,795,-433,0
2787,845,-396,0
2787,892,-280,0
2821,971,-124,0
2972,1002,50,0
3163,1058,241,0
3380,1136,416,0
3619,1209,550,0
3856,1242,651,0
4099,1212,712,0
4316,1150,750,0
4498,1050,764,0
4643,899,762,0
4744,727,741,0
4809,581,708,0
4847,457,668,0
4790,431,677,0
4826,358,603,0
4799,330,543,0
4738,322,499,0
4667,312,465,0
4574,323,460,0
4467,336,489,0
4450,330,454,0
4365,397,460,0
4270,472,496,0
4188,508,494,0
4073,536,498,0
4067,497,452,0
3997,515,436,0
3919,535,464,0
3828,543,512,0
3739,530,560,0
3656,484,567,0
3614,423,554,0
3590,371,558,0
3501,350,674,0
3426,283,779,0
3381,179,797,0
3353,70,748,0
3366,-24,695,0
3412,-102,698,0
3508,-136,697,0
3579,-102,746,0
3634,-60,809,0
3644,-35,871,0
3727,-71,843,0
3741,-55,833,0
3727,-26,828,0
3706,-6,825,0
3631,31,834,0
3666,17,828,0
3616,95,850,0
3565,192,887,0
3487,293,941,0
3538,277,977,0
3524,327,1016,0
3488,415,1078,0
3448,490,1134,0
3470,479,1148,0
3504,467,1156,0
3484,506,1184,0
3471,552,1214,0
3461,588,1229,0
3438,626,1240,0
3416,644,1226,0
3369,640,1196,0
3326,632,1158,0
3327,628,1102,0
3267,646,1067,0
3209,660,1069,0
3161,679,1064,0
3135,675,1065,0
3123,648,1076,0
3120,630,1099,0
3143,577,1128,0
3168,541,1153,0
3196,544,1161,0
3226,544,1185,0
3263,542,1216,0
3302,518,1268,0
3338,477,1343,0
3373,439,1428,0
3407,408,1502,0
3436,391,1549,0
3454,380,1551,0
3452,371,1511,0
3432,350,1439,0
3399,322,1358,0
3362,301,1292,0
3331,280,1242,0
3310,270,1210,0
3319,257,1202,0
3347,248,1221,0
3402,229,1277,0
3472,189,1354,0
3558,155,1460,0
3640,149,1574,0
3722,142,1669,0
3793,117,1711,0
3845,96,1717,0
3886,71,1696,0
3909,41,1660,0
3916,6,1613,0
3901,-22,1575,0
3868,-33,1539,0
3833,-35,1510,0
3806,-41,1474,0
3787,-42,1437,0
3785,-30,1421,0
3790,-10,1438,0
3809,3,1470,0
3837,15,1497,0
3879,26,1534,0
3931,39,1581,0
3989,60,1635,0
4043,99,1680,0
4073,149,1721,0
4091,192,1753,0
4090,247,1775,0
4062,301,1783,0
4017,328,1783,0
3967,322,1768,0
3938,316,1771,0
3880,309,1768,0
3885,264,1778,0
3929,213,1830,0
4010,204,1919,0
4160,224,2041,0
4394,310,2173,0
4691,452,2267,0
5025,567,2293,0
5362,515,2220,0
5585,326,2060,0
5663,83,1912,0
5604,-105,1785,0
5368,-181,1605,0
5100,-147,1468,0
4793,69,1420,0
4539,378,1404,0
4410,690,1401,0
4390,918,1404,0
4456,994,1410,0
4564,1006,1423,0
4673,1020,1429,0
4776,1021,1432,0
4849,1061,1470,0
4886,1154,1505,0
4895,1263,1534,0
4878,1384,1573,0
4834,1504,1606,0
4772,1620,1613,0
4689,1745,1579,0
4592,1846,1536,0
4501,1883,1494,0
4407,1921,1415,0
4318,2010,1344,0
4238,2075,1305,0
4182,2008,1184,0
4111,1865,999,0
4026,1508,775,0
3914,1334,690,0
3811,1200,634,0
3710,1084,602,0
3615,946,595,0
3506,941,593,0
3382,996,546,0
3270,890,424,0
3174,604,264,0
3089,368,177,0
3009,339,183,0
2933,405,200,0
2897,294,155,0
2873,149,19,0
2851,49,-126,0
2845,-76,-288,0
2872,-77,-382,0
2936,-10,-492,0
3034,11,-440,0
3177,91,-358,0
3335,212,-311,0
3517,248,-140,0
3701,340,20,0
3883,416,170,0
4044,466,307,0
4176,503,421,0
4255,496,476,0
4300,514,574,0
4320,565,627,0
4327,586,616,0
4310,580,581,0
4285,548,560,0
4229,540,463,0
4227,418,407,0
4193,446,441,0
4197,489,428,0
4217,501,410,0
4241,506,394,0
4275,524,403,0
4295,568,438,0
4336,662,429,0
4319,689,503,0
4265,751,527,0
4222,786,560,0
4176,720,528,0
4113,682,461,0
4023,668,396,0
3950,644,333,0
3863,593,325,0
3779,514,328,0
3734,498,323,0
3681,542,336,0
3624,644,373,0
3577,635,384,0
3553,556,361,0
3573,459,358,0
3598,422,370,0
3615,422,399,0
3658,356,433,0
3722,290,441,0
3769,305,456,0
3819,278,484,0
3891,204,504,0
3953,150,511,0
3997,7,532,0
3980,-49,532,0
3989,-60,526,0
3956,-75,510,0
3965,-152,538,0
3909,-230,523,0
3925,-327,461,0
3833,-352,478,0
3798,-359,483,0
3781,-338,477,0
3727,-317,556,0
3729,-368,570,0
3725,-351,566,0
3736,-325,577,0
3748,-293,599,0
3767,-266,615,0
3776,-237,622,0
3774,-219,624,0
3763,-206,616,0
3754,-166,610,0
3756,-139,599,0
3776,-125,608,0
3804,-109,638,0
3838,-89,678,0
3858,-74,694,0
3866,-41,692,0
3862,20,701,0
3868,105,713,0
3886,183,753,0
3901,187,751,0
3897,233,794,0
3888,286,819,0
3873,320,805,0
3850,288,719,0
3839,295,733,0
3849,375,812,0
3862,349,839,0
3852,265,815,0
3827,213,736,0
3814,229,744,0
3799,214,767,0
3795,211,797,0
3819,234,824,0
3820,146,810,0
3800,43,783,0
3786,48,769,0
3776,41,735,0
3791,90,735,0
3811,96,732,0
3821,3,676,0
3839,40,716,0
3859,111,746,0
3868,113,674,0
3890,185,666,0
3878,160,625,0
3872,189,590,0
3853,216,538,0
3858,205,476,0
3838,223,487,0
3859,270,484,0
3908,298,536,0
3924,292,582,0
3929,242,521,0
3930,251,488,0
3918,320,487,0
3914,367,480,0
3922,325,421,0
3931,360,467,0
3921,409,485,0
3935,396,564,0
3951,407,623,0
3962,387,637,0
3982,295,625,0
3997,246,611,0
4022,217,606,0
4062,146,653,0
4092,50,678,0
4131,-21,726,0
4131,-15,748,0
4121,-51,773,0
4111,-77,757,0
4105,-130,743,0
4084,-196,755,0
4126,-321,720,0
4054,-265,843,0
4038,-268,852,0
4037,-343,778,0
4063,-483,663,0
4100,-676,501,0
4214,-767,402,0
4252,-708,298,0
4373,-608,231,0
4486,-440,290,0
4593,-322,402,0
4664,-182,570,0
4731,-4,774,0
4791,90,900,0
4829,13,859,0
4876,-99,738,0
4921,-203,581,0
4913,-113,524,0
4956,-152,458,0
5026,-98,452,0
5051,-60,502,0
5131,-111,472,0
5073,-17,603,0
5070,20,641,0
5069,-2,572,0
5092,-54,490,0
5046,0,443,0
5032,7,340,0
5108,-57,280,0
5213,-121,250,0
5334,-81,282,0
5440,-71,265,0
5560,-57,311,0
5676,-38,334,0
5769,8,333,0
5774,101,260,0
5747,129,184,0
5682,101,109,0
5537,118,31,0
5379,82,-53,0
5167,42,-100,0
4947,48,-186,0
4710,52,-236,0
4438,88,-245,0
4222,162,-309,0
4001,218,-351,0
3760,296,-382,0
3605,352,-418,0
3453,435,-407,0
3279,575,-331,0
3174,718,-294,0
3082,860,-240,0
2971,1005,-170,0
2928,1070,-58,0
2926,1121,63,0
2928,1161,224,0
2959,1174,360,0
3007,1152,446,0
3073,1092,449,0
3158,983,375,0
3265,843,257,0
3394,693,137,0
3539,571,45,0
3708,454,-29,0
3884,345,-53,0
4061,220,-80,0
4253,139,-72,0
4430,119,-47,0
4600,151,23,0
4747,184,65,0
4852,227,105,0
4918,259,131,0
4941,295,154,0
4937,322,143,0
4901,332,139,0
4842,320,117,0
4755,315,101,0
4642,382,114,0
4532,482,150,0
4437,509,151,0
4343,510,152,0
4244,507,141,0
4131,493,151,0
4116,465,88,0
4071,430,41,0
4003,392,36,0
3925,392,111,0
3854,368,173,0
3772,340,256,0
3710,289,305,0
3647,258,361,0
3603,201,370,0
3545,175,386,0
3467,183,417,0
3479,117,353,0
3453,89,304,0
3433,69,262,0
3436,62,249,0
3466,57,254,0
3505,61,271,0
3544,80,321,0
3629,69,325,0
3693,81,336,0
3759,114,358,0
3834,121,384,0
3905,124,403,0
3969,125,418,0
4021,125,429,0
4060,129,433,0
4080,143,447,0
4094,170,445,0
4097,196,456,0
4046,235,496,0
4073,240,462,0
4048,293,450,0
4011,356,478,0
3983,392,487,0
3954,437,527,0
3930,475,546,0
3918,510,552,0
3908,512,533,0
3906,528,538,0
3914,531,552,0
3927,531,579,0
3922,520,623,0
3980,487,659,0
3994,483,685,0
4002,468,704,0
3998,446,718,0
3991,417,721,0
3987,381,725,0
3982,350,730,0
3971,324,748,0
3957,300,789,0
3934,287,848,0
3907,289,891,0
3865,278,905,0
3816,259,890,0
3778,230,820,0
3728,195,711,0
3693,123,655,0
3646,126,664,0
3595,178,736,0
3539,255,813,0
3541,276,884,0
3543,280,907,0
3534,249,900,0
3536,234,868,0
3561,255,873,0
3560,296,880,0
3652,220,925,0
3707,216,1008,0
3778,221,1089,0
3845,231,1113,0
3938,184,1122,0
4011,64,1064,0
4076,-38,1032,0
4088,-42,968,0
4081,16,896,0
4068,60,789,0
4086,27,791,0
4054,113,804,0
4018,176,839,0
3927,350,874,0
3988,262,982,0
3957,302,969,0
3917,383,920,0
3873,443,813,0
3900,340,839,0
3854,380,840,0
3811,454,803,0
3786,515,748,0
3764,596,700,0
3775,576,697,0
3745,605,738,0
3726,679,858,0
3680,805,978,0
3631,907,1026,0
3575,938,1003,0
3520,944,906,0
3477,957,853,0
3452,926,825,0
3419,918,839,0
3422,939,918,0
3451,978,1002,0
3490,1014,1049,0
3552,1025,1055,0
3616,1044,1046,0
3687,1078,1059,0
3764,1113,1095,0
3829,1147,1145,0
3882,1189,1189,0
3922,1251,1247,0
3915,1322,1163,0
3962,1222,1148,0
3942,1269,1144,0
3907,1271,1128,0
3863,1217,1092,0
3810,1158,1039,0
3767,1126,997,0
3757,1108,980,0
3782,1111,977,0
3839,1111,986,0
3929,1090,1001,0
4014,1062,978,0
4075,1048,939,0
4141,1016,875,0
4160,975,791,0
4134,939,748,0
4100,893,738,0
4057,830,725,0
4043,763,652,0
4085,680,504,0
4204,691,247,0
4404,767,-66,0
4667,876,-395,0
4963,950,-668,0
5254,985,-822,0
5491,964,-816,0
5661,894,-700,0
5728,878,-499,0
5709,939,-234,0
5621,1079,-8,0
5460,1213,123,0
5233,1292,131,0
4957,1328,86,0
4658,1325,79,0
4371,1313,113,0
4118,1285,206,0
3923,1167,347,0
3771,998,575,0
3669,811,854,0
3610,509,1070,0
3574,196,1180,0
3557,-72,1211,0
3550,-297,1202,0
3543,-471,1165,0
3544,-633,1116,0
3547,-772,1055,0
3576,-958,974,0
3579,-1119,823,0
3564,-1220,647,0
3564,-1273,497,0
3577,-1263,368,0
3615,-1224,250,0
3676,-1163,133,0
3769,-1097,23,0
3894,-1001,-98,0
4037,-917,-173,0
4183,-816,-183,0
4292,-653,-166,0
4373,-456,-127,0
4392,-193,-123,0
4383,7,-158,0
4391,56,-132,0
4366,88,-44,0
4320,166,115,0
4265,301,251,0
4233,409,298,0
4216,413,257,0
4205,364,172,0
4181,321,89,0
4148,310,37,0
4124,289,-3,0
4095,321,24,0
4064,375,101,0
4053,392,125,0
4034,414,173,0
4024,418,201,0
4020,434,226,0
4001,461,226,0
3978,457,195,0
3963,409,178,0
3937,383,132,0
3893,387,62,0
3872,347,15,0
3865,307,9,0
3869,286,0,0
3888,261,-24,0
3919,232,-53,0
3955,228,-57,0
4003,271,-39,0
4052,346,-35,0
4081,416,-15,0
4113,430,13,0
4133,438,38,0
4139,469,56,0
4137,492,32,0
4131,503,4,0
4125,500,-24,0
4131,476,-57,0
4144,454,-89,0
4159,458,-95,0
4155,491,-88,0
4135,530,-92,0
4118,541,-136,0
4108,522,-216,0
4104,533,-274,0
4101,562,-290,0
4104,589,-241,0
4102,629,-181,0
4102,634,-152,0
4096,561,-130,0
4086,564,-127,0
4089,549,-128,0
4092,524,-174,0
4096,504,-228,0
4116,479,-269,0
4129,454,-299,0
4125,441,-323,0
4128,410,-327,0
4115,369,-307,0
4095,361,-293,0
4066,386,-294,0
4040,383,-307,0
4017,391,-283,0
4013,336,-315,0
4018,321,-318,0
4039,312,-330,0
4072,321,-298,0
4118,317,-258,0
4149,326,-222,0
4148,321,-165,0
4143,296,-90,0
4122,292,-2,0
4110,309,54,0
4105,331,105,0
4103,350,138,0
4108,349,148,0
4116,344,141,0
4123,338,128,0
4128,322,108,0
4126,340,56,0
4125,368,-2,0
4087,385,-78,0
3965,463,-181,0
3952,406,-352,0
3888,374,-413,0
3811,364,-399,0
3774,346,-388,0
3739,333,-354,0
3725,374,-328,0
3710,460,-297,0
3723,534,-282,0
3761,595,-268,0
3807,659,-249,0
3843,731,-211,0
3874,790,-165,0
3899,837,-96,0
3937,864,0,0
3954,913,130,0
3954,977,255,0
3930,1015,336,0
3894,1026,367,0
3837,1128,336,0
3781,1158,260,0
3743,1119,155,0
3716,1084,84,0
3697,1142,78,0
3708,1104,107,0
3702,1076,148,0
3700,1083,190,0
3702,1117,193,0
3719,1173,143,0
3732,1227,57,0
3748,1245,-63,0
3752,1293,-143,0
3757,1277,-156,0
3765,1293,-94,0
3801,1268,13,0
3857,1226,143,0
3931,1167,311,0
4013,1098,486,0
4087,1013,632,0
4180,910,724,0
4259,804,783,0
4344,673,796,0
4413,544,778,0
4462,390,691,0
4495,248,616,0
4525,137,563,0
4521,69,525,0
4476,57,482,0
4392,74,411,0
4277,73,343,0
4195,-18,218,0
4089,-54,111,0
4013,-182,49,0
3942,-168,19,0
3890,-210,13,0
3856,-133,33,0
3790,-152,61,0
3757,-308,119,0
3723,-109,239,0
3712,60,353,0
3667,172,279,0
3597,127,165,0
3546,47,128,0
3560,-22,144,0
3614,-22,194,0
3707,-21,259,0
3815,-28,319,0
3921,-58,375,0
4013,-100,429,0
4110,-152,461,0
4187,-195,472,0
4240,-216,492,0
4273,-222,517,0
4283,-226,545,0
4303,-218,575,0
4332,-169,633,0
4356,-83,696,0
4374,6,758,0
4389,100,811,0
4405,187,861,0
4428,266,891,0
4443,351,909,0
4433,423,922,0
4446,476,932,0
4433,541,955,0
4420,417,971,0
4401,524,1010,0
4371,544,1004,0
4330,459,968,0
4284,392,941,0
4229,343,912,0
4168,293,864,0
4120,235,842,0
4085,175,854,0
4067,128,890,0
4056,67,927,0
4059,12,955,0
4056,-31,993,0
4061,-69,1044,0
4066,-108,1091,0
4074,-136,1132,0
4085,-127,1174,0
4097,-115,1234,0
4103,-108,1291,0
4113,-111,1345,0
4126,-106,1401,0
4145,-92,1452,0
4162,-78,1499,0
4165,-65,1542,0
4165,-66,1597,0
4147,-97,1685,0
4151,-173,1757,0
4153,-104,1881,0
4142,-92,1952,0
4120,-136,1951,0
4080,-164,1926,0
4032,-191,1896,0
3980,-237,1857,0
3960,-263,1831,0
3924,-275,1808,0
3892,-331,1782,0
3859,-388,1777,0
3823,-428,1800,0
3782,-462,1836,0
3747,-487,1862,0
3716,-499,1891,0
3691,-494,1919,0
3664,-471,1957,0
3644,-452,1993,0
3620,-430,2025,0
3596,-417,2040,0
3567,-405,2048,0
3527,-384,2032,0
3480,-342,2013,0
3430,-298,1998,0
3382,-258,1997,0
3345,-218,1986,0
3303,-187,1981,0
3272,-183,1970,0
3261,-189,1969,0
3272,-230,1975,0
3297,-279,1990,0
3379,-363,1956,0
3446,-361,1995,0
3519,-458,1982,0
3598,-518,2000,0
3659,-537,2029,0
3724,-592,2020,0
3771,-580,2037,0
3795,-594,1999,0
3835,-623,1945,0
3851,-622,1918,0
3870,-603,1880,0
3837,-577,1843,0
3793,-530,1808,0
3727,-487,1785,0
3673,-454,1785,0
3609,-470,1808,0
3593,-441,1865,0
3638,-433,1894,0
3629,-338,1957,0
3638,-411,1978,0
3603,-511,1950,0
3568,-548,2050,0
3578,-631,2023,0
3550,-694,2009,0
3532,-715,2047,0
3558,-676,2216,0
3530,-654,2257,0
3474,-678,2279,0
3386,-637,2298,0
3306,-610,2291,0
3256,-582,2321,0
3227,-632,2273,0
3202,-683,2261,0
3128,-638,2274,0
3089,-582,2303,0
3106,-553,2368,0
3149,-564,2445,0
3197,-600,2494,0
3240,-635,2532,0
3276,-647,2569,0
3325,-657,2604,0
3364,-651,2640,0
3391,-545,2819,0
3450,-645,2735,0
3389,-652,2697,0
3329,-641,2705,0
3283,-591,2738,0
3228,-556,2788,0
3160,-542,2819,0
3106,-546,2838,0
3050,-431,2896,0
3083,-560,2788,0
3033,-651,2679,0
3011,-679,2687,0
3018,-598,2714,0
3067,-527,2771,0
3089,-462,2826,0
3073,-303,2875,0
3239,-531,2763,0
3218,-636,2651,0
3220,-628,2598,0
3252,-567,2638,0
3304,-522,2749,0
3420,-538,2720,0
3529,-507,2803,0
3605,-528,2843,0
3632,-481,2861,0
3586,-423,2883,0
3506,-359,2871,0
3397,-295,2863,0
3273,-211,2884,0
3177,-104,2940,0
3103,-10,2976,0
3084,4,2989,0
3095,36,3054,0
3127,79,3142,0
3167,129,3237,0
3316,151,3358,0
3440,538,3694,0
3432,260,3379,0
3227,-56,3037,0
3052,-355,2719,0
2910,-272,2664,0
2809,-142,2704,0
2707,-50,2723,0
2644,19,2714,0
2606,113,2706,0
2470,203,2716,0
2143,88,2578,0
1671,-32,2438,0
1603,-206,2554,0
1670,-409,2660,0
1623,-629,2572,0
1354,-788,2305,0
1272,-1030,2154,0
1217,-1335,1810,0
1179,-1235,1815,0
1401,-1005,2140,0
1673,-958,2284,0
1928,-997,2417,0
2160,-1100,2567,0
2322,-1207,2602,0
2499,-1301,2709,0
2691,-1375,2866,0
2947,-1525,2859,0
3059,-1525,2723,0
3083,-1429,2653,0
3031,-1261,2608,0
2989,-1213,2476,0
2983,-1127,2573,0
2937,-1107,2711,0
2863,-934,2823,0
2741,-736,2986,0
2665,-925,3137,0
2515,-824,2882,0
2382,-854,2801,0
2281,-796,2821,0
2284,-763,2882,0
2331,-767,2989,0
2440,-728,3008,0
2541,-594,3156,0
2699,-635,3050,0
2812,-639,2988,0
2762,-491,2712,0
2798,-522,2571,0
2835,-529,2486,0
2851,-588,2441,0
2772,-579,2395,0
2757,-781,2268,0
2722,-822,2362,0
2698,-934,2445,0
2648,-1011,2576,0
2621,-1061,2689,0
2595,-1081,2763,0
2594,-1105,2836,0
2632,-1135,2929,0
2676,-1147,2993,0
2709,-1147,3005,0
2716,-1176,3008,0
2704,-1205,2979,0
2674,-1207,2973,0
2652,-1233,2992,0
2627,-1272,3024,0
2570,-1350,3085,0
2515,-1409,3155,0
2491,-1440,3266,0
2452,-1500,3321,0
2430,-1544,3384,0
2325,-1563,3453,0
2167,-1724,3441,0
2076,-1736,3435,0
2036,-1761,3482,0
2010,-1838,3556,0
1996,-1907,3587,0
2041,-1943,3661,0
2130,-1960,3752,0
2217,-1955,3821,0
2283,-1957,3885,0
2316,-1952,3925,0
2312,-1936,3928,0
2268,-1946,3869,0
2172,-1947,3788,0
2069,-1983,3692,0
1984,-2009,3635,0
1945,-2034,3644,0
1957,-2075,3648,0
1988,-2120,3632,0
2024,-2132,3598,0
2067,-2111,3558,0
2122,-2059,3523,0
2205,-1984,3478,0
2311,-1904,3421,0
2433,-1813,3376,0
2569,-1734,3342,0
2691,-1635,3295,0
2801,-1628,3226,0
2838,-1572,3125,0
2824,-1545,2979,0
2760,-1493,2840,0
2657,-1457,2706,0
2528,-1432,2579,0
2407,-1445,2468,0
2304,-1462,2385,0
2240,-1455,2365,0
2216,-1429,2353,0
2253,-1395,2357,0
2359,-1373,2355,0
2530,-1344,2352,0
2734,-1310,2347,0
2950,-1231,2340,0
3149,-1171,2324,0
3315,-1058,2304,0
3447,-967,2264,0
3562,-868,2218,0
3657,-761,2162,0
3730,-662,2116,0
3778,-561,2081,0
3796,-490,2066,0
3824,-439,2038,0
3885,-346,2042,0
3958,-274,2043,0
4030,-201,2071,0
4091,-123,2125,0
4129,-63,2189,0
4166,-32,2233,0
4175,-29,2268,0
4144,-51,2273,0
4081,-89,2249,0
3992,-146,2227,0
3890,-192,2215,0
3796,-233,2210,0
3729,-275,2205,0
3711,-301,2197,0
3763,-373,2189,0
3853,-428,2181,0
3933,-488,2146,0
3970,-508,2112,0
3975,-555,2043,0
4012,-619,2016,0
4026,-608,1987,0
4066,-620,2008,0
4101,-618,2047,0
4100,-616,2030,0
4100,-613,2054,0
4103,-619,2081,0
4091,-621,2100,0
4061,-625,2109,0
4036,-661,2121,0
4006,-687,2134,0
3944,-751,2124,0
3839,-786,2099,0
3715,-846,2072,0
3597,-920,2082,0
3518,-991,2129,0
3447,-1066,2185,0
3370,-1116,2221,0
3286,-1150,2230,0
3210,-1187,2221,0
3150,-1233,2212,0
3105,-1288,2202,0
3075,-1333,2200,0
3047,-1362,2207,0
3027,-1382,2217,0
3013,-1402,2255,0
3011,-1449,2299,0
3007,-1494,2342,0
2973,-1525,2347,0
2943,-1545,2355,0
2965,-1483,2419,0
2927,-1587,2323,0
2896,-1515,2324,0
2881,-1477,2319,0
2856,-1444,2348,0
2808,-1420,2366,0
2774,-1401,2387,0
2773,-1385,2409,0
2796,-1383,2433,0
2802,-1349,2443,0
2805,-1258,2511,0
2793,-1301,2469,0
2795,-1267,2486,0
2810,-1232,2495,0
2853,-1203,2492,0
2869,-1150,2516,0
2856,-1085,2502,0
2859,-1033,2489,0
2892,-973,2514,0
2968,-916,2527,0
2994,-805,2587,0
3066,-842,2555,0
3078,-735,2511,0
3073,-691,2489,0
3074,-659,2463,0
3070,-631,2443,0
3047,-612,2418,0
3016,-600,2398,0
2992,-613,2383,0
2962,-610,2380,0
2938,-613,2372,0
2914,-624,2355,0
2909,-621,2326,0
2933,-624,2322,0
2972,-622,2326,0
3011,-598,2320,0
3040,-579,2300,0
3055,-554,2281,0
3067,-552,2270,0
3062,-545,2264,0
3057,-530,2266,0
3048,-523,2255,0
3031,-530,2246,0
3007,-543,2237,0
2978,-557,2228,0
2948,-571,2222,0
2919,-572,2213,0
2893,-562,2228,0
2893,-559,2227,0
2904,-537,2231,0
2923,-519,2223,0
2947,-499,2229,0
2975,-500,2252,0
3025,-509,2298,0
3092,-523,2352,0
3167,-547,2402,0
3239,-570,2437,0
3306,-596,2452,0
3364,-628,2455,0
3420,-649,2450,0
3473,-671,2443,0
3514,-688,2427,0
3534,-706,2411,0
3542,-727,2388,0
3550,-745,2367,0
3551,-759,2347,0
3546,-777,2312,0
3535,-779,2301,0
3525,-779,2288,0
3521,-788,2276,0
3527,-792,2263,0
3547,-784,2251,0
3565,-785,2235,0
3565,-763,2227,0
3568,-762,2208,0
3561,-775,2173,0
3562,-776,2145,0
3553,-789,2134,0
3539,-800,2120,0
3523,-830,2091,0
3520,-866,2069,0
3530,-847,2106,0
3527,-850,2095,0
3523,-852,2083,0
3524,-854,2068,0
3527,-852,2059,0
3536,-854,2042,0
3552,-856,2036,0
3569,-861,2045,0
3588,-838,2043,0
3600,-856,2036,0
3575,-903,2016,0
3565,-907,2028,0
3566,-896,2037,0
3577,-890,2047,0
3584,-895,2055,0
3585,-895,2069,0
3581,-897,2072,0
3573,-906,2082,0
3565,-912,2085,0
3552,-914,2081,0
3536,-916,2071,0
3515,-918,2063,0
3494,-918,2056,0
3479,-916,2055,0
3460,-910,2048,0
3438,-904,2042,0
3421,-893,2040,0
3404,-887,2035,0
3395,-887,2025,0
3395,-888,2017,0
3392,-891,2009,0
3388,-892,1998,0
3384,-901,1984,0
3387,-920,1972,0
3395,-939,1975,0
3404,-957,1979,0
3416,-966,1978,0
3432,-973,1977,0
3451,-977,1978,0
3471,-974,1984,0
3484,-963,1986,0
3498,-962,1980,0
3513,-954,1975,0
3522,-940,1972,0
3528,-926,1975,0
3537,-904,1973,0
3544,-883,1979,0
3551,-860,1984,0
3555,-845,1981,0
3555,-829,1983,0
3548,-813,1989,0
3539,-799,1990,0
3531,-793,1989,0
3518,-785,1983,0
3522,-798,1992,0
3524,-800,1986,0
3528,-803,1973,0
3528,-796,1965,0
3535,-805,1954,0
3528,-799,1956,0
3527,-800,1942,0
3527,-796,1930,0
3528,-789,1923,0
3516,-772,1922,0
3517,-770,1928,0
3518,-759,1929,0
3516,-749,1925,0
3524,-740,1930,0
3525,-729,1931,0
3528,-721,1935,0
3526,-715,1939,0
3523,-715,1942,0
3526,-709,1943,0
3518,-706,1943,0
3514,-693,1939,0
3510,-684,1927,0
3516,-675,1931,0
3525,-670,1930,0
3534,-664,1928,0
3545,-664,1925,0
3550,-668,1921,0
3556,-671,1914,0
3559,-677,1910,0
3560,-680,1910,0
3559,-681,1911,0
3565,-687,1917,0
3566,-688,1914,0
3572,-687,1916,0
3567,-687,1918,0
3560,-689,1918,0
3553,-696,1918,0
3550,-702,1918,0
3547,-712,1921,0
3553,-719,1919,0
3560,-722,1917,0
3564,-729,1915,0
3570,-737,1913,0
3568,-742,1910,0
3568,-747,1908,0
3571,-751,1905,0
3569,-757,1903,0
3570,-766,1908,0
3569,-772,1910,0
3566,-773,1910,0
3558,-769,1921,0
3548,-777,1909,0
3542,-777,1908,0
3534,-783,1913,0
3526,-784,1920,0
3519,-789,1926,0
3515,-791,1926,0
3514,-787,1934,0
3519,-783,1942,0
3523,-779,1945,0
3523,-770,1950,0
3523,-766,1958,0
3518,-761,1961,0
3508,-759,1963,0
3497,-761,1971,0
3488,-770,1978,0
3482,-782,1985,0
3477,-768,1997,0
3478,-796,1986,0
3484,-803,1986,0
3487,-799,1976,0
3493,-793,1971,0
3498,-786,1968,0
3495,-778,1968,0
3486,-775,1964,0
3478,-771,1967,0
3475,-769,1975,0
3476,-770,1987,0
3478,-774,1992,0
3484,-770,1989,0
3492,-770,1982,0
3498,-767,1982,0
3508,-768,1976,0
3518,-771,1973,0
3525,-772,1967,0
3530,-770,1959,0
3532,-765,1950,0
3539,-765,1946,0
3543,-763,1943,0
3539,-762,1936,0
3542,-756,1932,0
3538,-751,1927,0
3531,-749,1920,0
3518,-754,1913,0
3512,-754,1907,0
3511,-761,1901,0
3516,-761,1899,0
3516,-768,1891,0
3516,-770,1886,0
3526,-760,1883,0
3543,-756,1887,0
3554,-754,1895,0
3561,-753,1899,0
3569,-753,1898,0
3574,-756,1898,0
3567,-762,1891,0
3566,-761,1886,0
3565,-755,1884,0
3565,-745,1870,0
3564,-737,1870,0
3563,-725,1867,0
3548,-727,1863,0
3545,-726,1876,0
3546,-719,1871,0
3549,-722,1879,0
3552,-713,1886,0
3551,-718,1898,0
3543,-722,1903,0
3539,-729,1909,0
3540,-729,1913,0
3544,-734,1912,0
3553,-738,1914,0
3552,-734,1911,0
3553,-735,1908,0
3550,-738,1905,0
3551,-736,1901,0
3549,-732,1900,0
3549,-731,1903,0
3546,-705,1936,0
3558,-752,1898,0
3559,-724,1915,0
3559,-722,1917,0
3560,-714,1915,0
3553,-715,1921,0
3545,-715,1920,0
3547,-716,1924,0
3547,-714,1926,0
3549,-715,1931,0
3552,-719,1929,0
3549,-724,1923,0
3544,-727,1915,0
3542,-732,1905,0
3540,-732,1902,0
3539,-729,1901,0
3548,-726,1898,0
3552,-721,1900,0
3557,-715,1898,0
3559,-707,1900,0
3560,-703,1902,0
3561,-696,1900,0
3564,-694,1902,0
3565,-695,1897,0
3559,-698,1895,0
3557,-702,1888,0
3557,-708,1886,0
3554,-710,1885,0
3552,-710,1882,0
3551,-713,1880,0
3548,-717,1888,0
3551,-720,1897,0
3555,-722,1898,0
3559,-726,1897,0
3559,-726,1898,0
3560,-719,1905,0
3565,-709,1891,0
3573,-706,1883,0
3577,-702,1884,0
3577,-699,1886,0
3573,-700,1880,0
3567,-697,1883,0
3562,-695,1883,0
3559,-698,1885,0
3554,-703,1893,0
3546,-711,1892,0
3542,-720,1897,0
3542,-725,1903,0
3543,-732,1910,0
3549,-737,1912,0
3552,-738,1916,0
3552,-740,1918,0
3547,-742,1918,0
3537,-741,1918,0
3537,-743,1917,0
3530,-740,1917,0
3531,-742,1917,0
3532,-743,1918,0
3539,-744,1917,0
3542,-748,1919,0
3541,-752,1912,0
3538,-755,1909,0
3535,-756,1907,0
3531,-764,1907,0
3529,-765,1909,0
3526,-763,1910,0
3526,-762,1916,0
3529,-764,1920,0
3528,-761,1920,0
3530,-760,1926,0
3533,-757,1928,0
3533,-760,1931,0
3530,-766,1930,0
3529,-767,1929,0
3529,-769,1926,0
3526,-771,1926,0
3524,-772,1931,0
3523,-771,1931,0
3526,-768,1934,0
3529,-763,1932,0
3533,-755,1933,0
3531,-745,1932,0
3529,-738,1933,0
3524,-732,1928,0
3522,-730,1930,0
3527,-724,1933,0
3541,-721,1934,0
3551,-715,1930,0
3556,-710,1924,0
3563,-703,1921,0
3562,-700,1914,0
3558,-700,1912,0
3550,-697,1912,0
3550,-701,1913,0
3545,-703,1908,0
3541,-705,1904,0
3537,-704,1906,0
3534,-707,1907,0
3532,-709,1908,0
3534,-712,1910,0
3535,-713,1908,0
3534,-713,1906,0
3533,-716,1903,0
3531,-721,1901,0
3532,-723,1904,0
3538,-726,1909,0
3540,-724,1914,0
3543,-727,1917,0
3547,-725,1923,0
3549,-730,1925,0
3550,-732,1925,0
3545,-736,1926,0
3546,-732,1923,0
3543,-729,1921,0
3540,-735,1918,0
3536,-736,1918,0
3537,-737,1916,0
3537,-741,1917,0
3542,-745,1919,0
3541,-747,1918,0
3538,-750,1919,0
3538,-749,1920,0
3539,-751,1922,0
3541,-750,1922,0
3537,-751,1921,0
3530,-752,1914,0
3523,-751,1913,0
3520,-749,1915,0
3512,-751,1916,0
3510,-751,1919,0
3519,-752,1923,0
3527,-752,1924,0
3537,-750,1922,0
3549,-746,1923,0
3555,-744,1921,0
3561,-746,1921,0
3562,-744,1920,0
3560,-741,1921,0
3560,-736,1923,0
3561,-737,1925,0
3557,-733,1924,0
3551,-730,1926,0
3547,-728,1930,0
3543,-724,1929,0
3540,-725,1928,0
3540,-726,1924,0
3537,-729,1924,0
3543,-733,1924,0
3544,-735,1923,0
3545,-742,1919,0
3540,-747,1917,0
3534,-752,1918,0
3534,-752,1916,0
3533,-752,1913,0
3528,-754,1912,0
3520,-756,1910,0
3517,-752,1907,0
3519,-753,1907,0
3515,-751,1905,0
3516,-747,1908,0
3518,-741,1911,0
3522,-739,1917,0
3530,-741,1922,0
3534,-738,1926,0
3537,-737,1926,0
3537,-736,1922,0
3536,-736,1920,0
3538,-737,1921,0
3538,-739,1926,0
3538,-743,1927,0
3541,-748,1928,0
3541,-748,1927,0
3547,-747,1927,0
3544,-748,1924,0
3546,-750,1924,0
3542,-751,1919,0
3541,-750,1913,0
3542,-748,1910,0
3539,-748,1912,0
3534,-742,1914,0
3528,-740,1914,0
3526,-744,1919,0
3521,-742,1920,0
3523,-739,1924,0
3525,-742,1926,0
3527,-747,1930,0
3528,-753,1930,0
3528,-757,1931,0
3530,-764,1930,0
3531,-771,1931,0
3532,-772,1924,0
3531,-768,1920,0
3531,-767,1915,0
3531,-765,1914,0
3532,-765,1919,0
3533,-764,1919,0
3537,-767,1920,0
3537,-767,1922,0
3542,-765,1919,0
3541,-762,1920,0
3546,-762,1919,0
3549,-760,1917,0
3545,-758,1915,0
3541,-758,1915,0
3533,-759,1916,0
3523,-762,1913,0
3520,-761,1914,0
3520,-762,1915,0
3523,-763,1915,0
3530,-762,1920,0
3533,-756,1923,0
3533,-759,1925,0
3534,-756,1928,0
3535,-751,1927,0
3534,-751,1926,0
3535,-748,1925,0
3530,-745,1921,0
3529,-746,1922,0
3534,-752,1921,0
3536,-755,1921,0
3535,-755,1919,0
3534,-758,1921,0
3536,-759,1922,0
3536,-761,1924,0
3534,-757,1925,0
3535,-757,1928,0
3535,-752,1927,0
3532,-750,1932,0
3535,-748,1932,0
3538,-746,1926,0
3541,-749,1918,0
3539,-750,1914,0
3542,-746,1908,0
3541,-742,1904,0
3540,-742,1903,0
3540,-737,1908,0
3538,-738,1912,0
3540,-737,1913,0
3537,-741,1918,0
3538,-741,1918,0
3540,-745,1918,0
3536,-744,1918,0
3539,-748,1917,0
3536,-753,1914,0
3540,-752,1917,0
3546,-753,1916,0
3543,-751,1918,0
3543,-750,1917,0
3540,-753,1919,0
3535,-750,1921,0
3531,-751,1922,0
3527,-754,1923,0
3529,-752,1921,0
3533,-753,1919,0
3540,-752,1921,0
3539,-750,1919,0
3540,-746,1917,0
3543,-745,1917,0
3544,-743,1916,0
3548,-744,1914,0
3550,-742,1920,0
3546,-744,1921,0
3545,-745,1920,0
3547,-746,1918,0
3541,-745,1917,0
3537,-747,1915,0
3536,-748,1912,0
3528,-751,1908,0
3525,-751,1905,0
3521,-751,1908,0
3522,-757,1911,0
3524,-757,1917,0
3528,-759,1917,0
3533,-759,1916,0
3536,-757,1920,0
3542,-754,1924,0
3544,-754,1921,0
3542,-753,1922,0
3545,-756,1923,0
3549,-753,1923,0
3547,-753,1919,0
3552,-753,1920,0
3543,-750,1919,0
3540,-751,1915,0
3534,-749,1912,0
3527,-749,1910,0
3523,-750,1911,0
3523,-755,1910,0
3525,-755,1914,0
3530,-755,1915,0
3532,-757,1915,0
3540,-756,1918,0
3543,-753,1921,0
3549,-752,1922,0
3549,-753,1924,0
3544,-754,1924,0
3546,-751,1924,0
3539,-751,1924,0
3531,-750,1926,0
3526,-748,1924,0
3523,-749,1926,0
3521,-750,1926,0
3524,-750,1927,0
3521,-752,1925,0
3523,-754,1925,0
3521,-756,1926,0
3524,-759,1927,0
3524,-760,1929,0
3529,-760,1925,0
3538,-762,1925,0
3550,-758,1922,0
3552,-754,1916,0
3555,-753,1914,0
3552,-747,1910,0
3552,-744,1910,0
3552,-744,1912,0
3551,-744,1914,0
3547,-745,1917,0
3541,-751,1919,0
3534,-756,1917,0
3531,-759,1918,0
3531,-761,1917,0
3525,-762,1919,0
3525,-763,1920,0
3522,-762,1919,0
3515,-764,1919,0
3518,-764,1925,0
3522,-766,1930,0
3527,-765,1934,0
3534,-760,1933,0
3539,-756,1931,0
3549,-753,1931,0
3557,-751,1928,0
3561,-752,1928,0
3560,-749,1928,0
3559,-746,1926,0
3556,-743,1926,0
3551,-748,1923,0
3549,-749,1921,0
3540,-757,1921,0
3534,-759,1919,0
3530,-759,1918,0
3526,-761,1921,0
3522,-763,1924,0
3519,-762,1927,0
3516,-764,1925,0
3515,-769,1923,0
3511,-769,1922,0
3514,-774,1927,0
3512,-775,1928,0
3507,-776,1924,0
3509,-778,1922,0
3514,-780,1918,0
3515,-777,1921,0
3520,-777,1928,0
3520,-776,1930,0
3526,-773,1932,0
3530,-773,1934,0
3537,-770,1933,0
3537,-767,1932,0
3536,-765,1930,0
3533,-763,1929,0
3533,-760,1925,0
3531,-756,1923,0
3531,-759,1926,0
3528,-756,1924,0
3534,-753,1923,0
3520,-770,1904,0
3522,-749,1927,0
3523,-761,1928,0
3526,-762,1934,0
3523,-767,1930,0
3524,-767,1925,0
3526,-765,1925,0
3529,-768,1925,0
3531,-766,1922,0
3533,-763,1925,0
3537,-761,1927,0
3535,-762,1930,0
3534,-763,1934,0
3530,-764,1934,0
3525,-749,1967,0
3517,-758,1942,0
3518,-760,1929,0
3517,-758,1925,0
3518,-765,1926,0
3519,-774,1927,0
3518,-779,1928,0
3518,-782,1928,0
3521,-783,1926,0
3519,-779,1922,0
3518,-778,1919,0
3516,-773,1924,0
3521,-769,1928,0
3524,-768,1929,0
3521,-764,1932,0
3523,-763,1935,0
3526,-762,1936,0
3529,-765,1935,0
3528,-768,1932,0
3531,-771,1932,0
3532,-777,1929,0
3534,-781,1932,0
3531,-787,1932,0
3531,-786,1935,0
3536,-784,1933,0
3536,-780,1932,0
3538,-782,1935,0
3533,-784,1934,0
3533,-782,1932,0
3528,-781,1930,0
3527,-781,1927,0
3522,-780,1927,0
3522,-779,1924,0
3524,-773,1924,0
3524,-775,1921,0
3526,-775,1920,0
3522,-772,1920,0
3520,-772,1925,0
3518,-772,1930,0
3517,-774,1929,0
3518,-773,1929,0
3521,-772,1932,0
3520,-771,1935,0
3521,-773,1937,0
3524,-769,1934,0
3530,-766,1937,0
3532,-763,1940,0
3533,-765,1938,0
3530,-764,1938,0
3529,-762,1936,0
3527,-760,1934,0
3527,-757,1935,0
3525,-757,1938,0
3521,-761,1933,0
3515,-766,1932,0
3514,-769,1925,0
3515,-772,1925,0
3517,-774,1926,0
3517,-778,1925,0
3521,-781,1926,0
3520,-782,1924,0
3524,-779,1928,0
3526,-777,1930,0
3524,-777,1929,0
3520,-775,1932,0
3522,-777,1937,0
3523,-775,1940,0
3522,-778,1937,0
3522,-778,1938,0
3525,-780,1934,0
3530,-781,1932,0
3533,-777,1929,0
3533,-778,1930,0
3530,-773,1930,0
3527,-773,1924,0
3530,-771,1916,0
3532,-769,1917,0
3536,-771,1918,0
3538,-771,1922,0
3542,-769,1923,0
3541,-767,1921,0
3540,-767,1924,0
3538,-767,1925,0
3533,-767,1925,0
3528,-768,1925,0
3525,-772,1924,0
3528,-775,1925,0
3525,-776,1928,0
3526,-777,1927,0
3526,-780,1925,0
3523,-775,1927,0
3523,-776,1927,0
3523,-772,1930,0
3524,-771,1935,0
3523,-769,1937,0
3521,-772,1936,0
3517,-773,1935,0
3522,-773,1934,0
3522,-772,1933,0
3522,-771,1936,0
3522,-769,1934,0
3520,-766,1930,0
3517,-767,1931,0
3521,-767,1931,0
3525,-771,1925,0
3526,-775,1927,0
3527,-776,1928,0
3528,-776,1928,0
3529,-778,1927,0
3533,-773,1928,0
3535,-770,1929,0
3537,-766,1924,0
3538,-765,1924,0
3539,-765,1926,0
3536,-765,1928,0
3540,-768,1933,0
3536,-766,1931,0
3533,-766,1933,0
3531,-766,1932,0
3534,-771,1928,0
3533,-774,1929,0
3527,-774,1928,0
3520,-776,1930,0
3517,-777,1926,0
3512,-780,1927,0
3508,-780,1923,0
3508,-779,1925,0
3506,-774,1926,0
3504,-774,1928,0
3501,-772,1931,0
3506,-773,1934,0
3512,-772,1937,0
3517,-771,1934,0
3526,-772,1932,0
3527,-773,1936,0
3529,-774,1935,0
3533,-774,1935,0
3536,-774,1936,0
3538,-774,1938,0
3536,-773,1941,0
3534,-771,1940,0
3535,-771,1940,0
3533,-773,1935,0
3528,-774,1930,0
3524,-777,1930,0
3522,-780,1927,0
3523,-778,1928,0
3526,-775,1928,0
3538,-772,1922,0
3539,-770,1919,0
3544,-767,1919,0
3550,-765,1918,0
3556,-760,1918,0
3556,-762,1920,0
3553,-758,1923,0
3546,-756,1922,0
3544,-758,1924,0
3544,-756,1928,0
3543,-759,1927,0
3540,-760,1929,0
3535,-765,1928,0
3528,-767,1929,0
3521,-770,1932,0
3516,-778,1935,0
3510,-778,1934,0
3503,-780,1934,0
3500,-788,1933,0
3500,-790,1931,0
3500,-786,1935,0
3502,-789,1936,0
3508,-790,1937,0
3508,-786,1939,0
3509,-784,1941,0
3511,-784,1941,0
3517,-777,1941,0
3522,-777,1940,0
3519,-770,1939,0
3523,-768,1937,0
3524,-765,1935,0
3524,-761,1935,0
3522,-762,1932,0
3522,-759,1932,0
3519,-757,1930,0
3520,-761,1931,0
3521,-767,1934,0
3518,-773,1939,0
3521,-775,1934,0
3521,-776,1933,0
3523,-771,1932,0
3527,-771,1931,0
3529,-772,1931,0
3529,-772,1926,0
3527,-773,1929,0
3522,-774,1934,0
3519,-774,1931,0
3523,-775,1929,0
3521,-776,1933,0
3526,-777,1933,0
3529,-779,1932,0
3530,-780,1932,0
3524,-781,1932,0
3518,-781,1932,0
3516,-783,1931,0
3517,-784,1933,0
3518,-779,1934,0
3517,-776,1935,0
3522,-771,1933,0
3514,-774,1931,0
3515,-774,1932,0
3510,-773,1932,0
3515,-774,1933,0
3521,-780,1934,0
3526,-778,1933,0
3527,-777,1934,0
3528,-778,1938,0
3528,-772,1935,0
3529,-773,1938,0
3528,-774,1939,0
3528,-778,1942,0
3526,-779,1938,0
3525,-780,1938,0
3525,-780,1933,0
3524,-777,1932,0
3521,-779,1933,0
3513,-777,1932,0
3516,-775,1932,0
3519,-775,1934,0
3519,-774,1942,0
3514,-774,1943,0
3512,-771,1944,0
3510,-773,1943,0
3509,-776,1944,0
3514,-781,1939,0
3518,-785,1938,0
3516,-786,1936,0
3517,-788,1937,0
3520,-786,1941,0
3522,-788,1940,0
3521,-791,1938,0
3522,-788,1938,0
3523,-786,1938,0
3526,-783,1939,0
3526,-783,1941,0
3523,-780,1938,0
3519,-778,1937,0
3520,-778,1933,0
3519,-776,1934,0
3521,-771,1935,0
3522,-771,1936,0
3523,-770,1934,0
3525,-769,1936,0
3524,-766,1937,0
3521,-765,1938,0
3519,-765,1937,0
3517,-765,1936,0
3518,-769,1934,0
3518,-770,1934,0
3514,-769,1928,0
3509,-767,1923,0
3512,-769,1922,0
3511,-771,1920,0
3510,-771,1920,0
3512,-773,1927,0
3517,-775,1931,0
3522,-779,1934,0
3528,-784,1935,0
3530,-783,1939,0
3532,-785,1942,0
3535,-782,1942,0
3535,-781,1940,0
3533,-780,1939,0
3527,-783,1934,0
3527,-786,1933,0
3528,-784,1931,0
3528,-781,1930,0
3530,-782,1929,0
3532,-780,1925,0
3532,-778,1922,0
3528,-777,1921,0
3522,-775,1927,0
3513,-778,1931,0
3510,-780,1932,0
3505,-784,1935,0
3507,-784,1936,0
3507,-781,1935,0
3515,-782,1936,0
3521,-785,1938,0
3529,-786,1942,0
3532,-784,1941,0
3531,-779,1938,0
3532,-775,1940,0
3526,-772,1944,0
3523,-769,1942,0
3519,-768,1941,0
3516,-771,1941,0
3512,-769,1942,0
3508,-773,1940,0
3506,-775,1940,0
3506,-775,1942,0
3508,-779,1943,0
3511,-776,1940,0
3514,-781,1939,0
3519,-784,1937,0
3525,-784,1939,0
3528,-785,1935,0
3534,-789,1930,0
3536,-786,1932,0
3533,-780,1929,0
3531,-775,1931,0
3533,-771,1930,0
3534,-769,1931,0
3533,-767,1932,0
3530,-768,1932,0
3527,-773,1933,0
3526,-774,1934,0
3520,-772,1935,0
3518,-774,1936,0
3519,-775,1942,0
3519,-776,1942,0
3514,-778,1941,0
3514,-784,1936,0
3517,-785,1935,0
3520,-780,1933,0
3522,-784,1936,0
3520,-785,1936,0
3521,-786,1937,0
3515,-786,1941,0
3512,-781,1942,0
3515,-779,1942,0
3512,-774,1941,0
3509,-773,1942,0
3507,-772,1940,0
3508,-774,1942,0
3510,-778,1941,0
3513,-781,1945,0
3520,-779,1945,0
3521,-777,1944,0
3522,-779,1944,0
3522,-785,1941,0
3523,-785,1939,0
3522,-781,1934,0
3523,-780,1936,0
3521,-778,1937,0
3523,-777,1940,0
3522,-770,1936,0
3522,-768,1933,0
3519,-769,1936,0
3519,-769,1933,0
3523,-770,1936,0
3530,-768,1933,0
3533,-766,1928,0
3537,-766,1926,0
3541,-768,1924,0
3544,-773,1921,0
3542,-774,1923,0
3542,-775,1924,0
3545,-774,1926,0
3542,-778,1926,0
3539,-779,1933,0
3539,-780,1936,0
3539,-776,1937,0
3540,-776,1938,0
3533,-778,1935,0
3530,-778,1933,0
3529,-778,1933,0
3518,-779,1934,0
3509,-780,1935,0
3499,-780,1936,0
3494,-780,1934,0
3492,-775,1935,0
3492,-775,1937,0
3489,-777,1938,0
3492,-779,1944,0
3497,-777,1943,0
3501,-782,1946,0
3506,-783,1947,0
3511,-783,1952,0
3518,-780,1950,0
3522,-781,1944,0
3523,-777,1943,0
3525,-774,1942,0
3529,-770,1944,0
3533,-768,1943,0
3531,-767,1938,0
3530,-765,1932,0
3529,-765,1932,0
3527,-764,1928,0
3523,-767,1926,0
3520,-769,1926,0
3517,-770,1924,0
3518,-770,1922,0
3516,-767,1917,0
3518,-768,1922,0
3523,-769,1923,0
3524,-766,1926,0
3525,-768,1927,0
3526,-768,1925,0
3528,-772,1927,0
3527,-769,1929,0
3529,-772,1933,0
3528,-773,1937,0
3530,-773,1938,0
3528,-777,1938,0
3529,-776,1939,0
3528,-779,1941,0
3523,-780,1942,0
3522,-777,1938,0
3517,-775,1937,0
3512,-777,1936,0
3509,-780,1936,0
3508,-781,1934,0
3507,-783,1937,0
3513,-781,1940,0
3518,-780,1942,0
3517,-779,1942,0
3516,-781,1939,0
3518,-782,1939,0
3519,-779,1940,0
3520,-780,1939,0
3523,-780,1939,0
3517,-779,1938,0
3518,-777,1935,0
3521,-777,1935,0
3521,-776,1938,0
3522,-775,1940,0
3523,-778,1941,0
3526,-780,1943,0
3522,-782,1936,0
3522,-789,1933,0
3518,-787,1934,0
3517,-789,1930,0
3525,-787,1934,0
3527,-786,1935,0
3530,-780,1934,0
3528,-778,1934,0
3529,-774,1931,0
3530,-768,1933,0
3529,-768,1934,0
3525,-767,1934,0
3525,-764,1936,0
3523,-761,1936,0
3520,-760,1935,0
3517,-758,1934,0
3520,-762,1935,0
3519,-765,1936,0
3523,-769,1935,0
3525,-772,1938,0
3526,-776,1934,0
3524,-780,1934,0
3525,-779,1937,0
3524,-779,1933,0
3524,-775,1932,0
3527,-771,1934,0
3523,-771,1934,0
3525,-768,1933,0
3519,-770,1927,0
3514,-766,1924,0
3513,-764,1929,0
3511,-765,1931,0
3515,-766,1935,0
3518,-768,1935,0
3521,-770,1936,0
3523,-771,1935,0
3524,-771,1933,0
3526,-773,1933,0
3528,-778,1934,0
3532,-779,1935,0
3531,-783,1933,0
3536,-783,1935,0
3531,-784,1935,0
3531,-782,1936,0
3530,-783,1936,0
3527,-781,1932,0
3525,-775,1932,0
3521,-777,1932,0
3519,-775,1932,0
3511,-775,1930,0
3507,-772,1929,0
3512,-775,1927,0
3514,-779,1928,0
3517,-778,1933,0
3521,-780,1936,0
3521,-783,1935,0
3526,-781,1935,0
3529,-781,1937,0
3531,-782,1939,0
3532,-781,1942,0
3531,-782,1943,0
3521,-780,1935,0
3521,-780,1936,0
3522,-777,1933,0
3522,-776,1935,0
3520,-776,1933,0
3522,-772,1933,0
3521,-775,1935,0
3522,-778,1938,0
3522,-774,1936,0
3524,-775,1938,0
3518,-778,1940,0
3517,-781,1936,0
3514,-780,1931,0
3514,-782,1932,0
3515,-780,1936,0
3518,-782,1941,0
3521,-784,1947,0
3531,-787,1948,0
3533,-783,1944,0
3534,-777,1940,0
3534,-776,1941,0
3533,-771,1939,0
3527,-769,1941,0
3521,-770,1939,0
3518,-770,1938,0
3520,-772,1937,0
3522,-776,1937,0
3520,-777,1938,0
3520,-778,1931,0
3519,-781,1932,0
3520,-782,1935,0
3515,-784,1936,0
3509,-786,1935,0
3513,-788,1937,0
3517,-789,1941,0
3516,-794,1938,0
3513,-796,1939,0
3512,-797,1939,0
3511,-794,1938,0
3516,-796,1941,0
3518,-797,1946,0
3517,-793,1946,0
3516,-787,1948,0
3515,-786,1948,0
3512,-784,1944,0
3511,-783,1941,0
3508,-786,1942,0
3510,-780,1942,0
3515,-780,1942,0
3515,-783,1937,0
3514,-786,1941,0
3516,-788,1939,0
3516,-789,1935,0
3523,-786,1933,0
3527,-788,1935,0
3526,-785,1933,0
3531,-783,1937,0
3536,-783,1938,0
3532,-784,1941,0
3527,-782,1940,0
3531,-781,1945,0
3526,-779,1945,0
3517,-778,1939,0
3512,-780,1937,0
3511,-777,1933,0
3511,-777,1933,0
3511,-775,1932,0
3516,-771,1933,0
3523,-771,1929,0
3528,-769,1933,0
3533,-767,1935,0
3539,-767,1932,0
3541,-768,1936,0
3538,-768,1936,0
3533,-771,1940,0
3534,-776,1940,0
3536,-778,1938,0
3537,-783,1937,0
3534,-783,1938,0
3534,-786,1940,0
3533,-786,1938,0
3532,-786,1942,0
3525,-784,1941,0
3519,-785,1944,0
3513,-784,1947,0
3507,-782,1947,0
3501,-784,1948,0
3498,-783,1948,0
3496,-787,1949,0
3494,-789,1947,0
3491,-790,1949,0
3489,-797,1949,0
3491,-796,1952,0
3490,-797,1954,0
3491,-793,1951,0
3492,-792,1955,0
3498,-793,1953,0
3506,-786,1954,0
3508,-783,1952,0
3515,-784,1948,0
3522,-784,1946,0
3525,-783,1950,0
3526,-782,1950,0
3529,-776,1949,0
3528,-772,1946,0
3524,-770,1945,0
3521,-769,1945,0
3518,-773,1945,0
3517,-774,1947,0
3511,-773,1945,0
3515,-775,1947,0
3510,-781,1949,0
3509,-786,1947,0
3501,-786,1945,0
3501,-785,1942,0
3503,-786,1940,0
3506,-786,1938,0
3506,-788,1936,0
3507,-788,1939,0
3505,-790,1942,0
3509,-794,1951,0
3508,-791,1955,0
3512,-789,1959,0
3511,-788,1961,0
3505,-786,1963,0
3500,-786,1957,0
3496,-787,1956,0
3497,-786,1956,0
3501,-782,1953,0
3509,-784,1947,0
3511,-786,1948,0
3518,-781,1948,0
3523,-780,1947,0
3524,-782,1946,0
3525,-783,1949,0
3523,-782,1952,0
3524,-784,1953,0
3522,-786,1955,0
3518,-787,1955,0
3517,-791,1955,0
3512,-794,1954,0
3511,-791,1952,0
3512,-793,1953,0
3514,-793,1949,0
3507,-795,1950,0
3506,-792,1954,0
3502,-798,1956,0
3503,-798,1956,0
3506,-797,1954,0
3510,-797,1954,0
3507,-792,1955,0
3504,-790,1955,0
3500,-788,1953,0
3498,-785,1954,0
3500,-785,1956,0
3504,-786,1957,0
3508,-785,1954,0
3516,-784,1953,0
3522,-784,1952,0
3525,-785,1953,0
3525,-787,1954,0
3524,-786,1955,0
3519,-788,1953,0
3510,-785,1951,0
3509,-788,1951,0
3508,-790,1951,0
3505,-791,1952,0
3499,-789,1950,0
3493,-788,1946,0
3488,-792,1947,0
3489,-788,1949,0
3495,-786,1952,0
3500,-787,1957,0
3510,-785,1956,0
3516,-781,1957,0
3522,-785,1954,0
3522,-781,1958,0
3522,-784,1956,0
3523,-787,1956,0
3519,-788,1955,0
3519,-789,1955,0
3517,-789,1952,0
3515,-788,1952,0
3516,-792,1947,0
3512,-792,1950,0
3511,-790,1951,0
3509,-791,1946,0
3504,-788,1946,0
3504,-789,1946,0
3503,-788,1948,0
3504,-789,1946,0
3505,-793,1952,0
3502,-792,1951,0
3504,-795,1949,0
3508,-796,1950,0
3511,-794,1950,0
3510,-796,1946,0
3502,-792,1951,0
3504,-790,1952,0
3505,-791,1952,0
3502,-789,1955,0
3505,-790,1955,0
3503,-795,1956,0
3502,-791,1954,0
3506,-792,1955,0
3510,-795,1954,0
3509,-794,1954,0
3514,-795,1955,0
3516,-793,1955,0
3515,-792,1955,0
3515,-789,1954,0
3509,-791,1949,0
3507,-784,1953,0
3506,-787,1955,0
3511,-786,1956,0
3518,-789,1952,0
3520,-786,1953,0
3520,-781,1952,0
3523,-783,1950,0
3517,-785,1945,0
3513,-786,1943,0
3513,-788,1946,0
3510,-785,1943,0
3508,-785,1941,0
3506,-789,1945,0
3503,-789,1944,0
3507,-786,1950,0
3507,-784,1949,0
3511,-784,1954,0
3513,-783,1957,0
3510,-782,1956,0
3509,-783,1953,0
3509,-785,1951,0
3509,-785,1953,0
3509,-784,1953,0
3511,-788,1951,0
3510,-792,1950,0
3511,-796,1952,0
3507,-797,1954,0
3504,-796,1954,0
3498,-795,1955,0
3497,-792,1952,0
3495,-795,1953,0
3497,-801,1955,0
3504,-795,1958,0
3509,-798,1958,0
3511,-799,1957,0
3517,-793,1956,0
3521,-794,1953,0
3524,-791,1953,0
3521,-790,1954,0
3522,-790,1956,0
3517,-793,1955,0
3512,-794,1955,0
3507,-792,1953,0
3504,-792,1957,0
3506,-790,1954,0
3505,-789,1955,0
3504,-790,1959,0
3503,-790,1961,0
3503,-790,1958,0
3507,-793,1957,0
3508,-792,1957,0
3508,-789,1957,0
3514,-785,1957,0
3522,-779,1956,0
3525,-779,1955,0
3523,-776,1956,0
3515,-781,1951,0
3511,-781,1949,0
3509,-780,1952,0
3506,-779,1953,0
3502,-783,1953,0
3496,-784,1950,0
3498,-786,1949,0
3498,-786,1951,0
3499,-790,1953,0
3499,-791,1954,0
3499,-793,1953,0
3503,-797,1954,0
3510,-802,1961,0
3523,-800,1962,0
3531,-799,1962,0
3541,-801,1961,0
3546,-793,1961,0
3553,-794,1968,0
3555,-791,1965,0
3555,-788,1965,0
3553,-785,1963,0
3549,-785,1962,0
3536,-783,1959,0
3526,-788,1952,0
3506,-786,1950,0
3498,-789,1947,0
3491,-792,1941,0
3491,-792,1943,0
3487,-789,1943,0
3483,-787,1943,0
3485,-788,1947,0
3483,-782,1955,0
3478,-784,1953,0
3477,-786,1960,0
3477,-790,1963,0
3479,-793,1963,0
3479,-793,1969,0
3476,-794,1972,0
3475,-796,1971,0
3484,-796,1976,0
3495,-802,1977,0
3499,-805,1978,0
3504,-799,1978,0
3506,-793,1976,0
3506,-786,1974,0
3509,-780,1969,0
3507,-777,1967,0
3506,-774,1966,0
3506,-768,1962,0
3505,-764,1957,0
3506,-761,1957,0
3503,-763,1964,0
3503,-767,1965,0
3497,-770,1961,0
3491,-772,1957,0
3491,-772,1956,0
3490,-777,1958,0
3496,-782,1964,0
3498,-785,1966,0
3499,-791,1967,0
3498,-792,1970,0
3500,-796,1970,0
3504,-798,1971,0
3508,-798,1968,0
3510,-802,1965,0
3513,-798,1970,0
3516,-798,1974,0
3518,-795,1974,0
3516,-790,1974,0
3507,-786,1972,0
3499,-787,1973,0
3485,-786,1968,0
3483,-788,1964,0
3478,-789,1964,0
3474,-792,1963,0
3475,-793,1961,0
3477,-801,1956,0
3476,-800,1956,0
3484,-801,1958,0
3485,-797,1958,0
3491,-797,1960,0
3491,-797,1962,0
3497,-793,1963,0
3503,-788,1973,0
3513,-786,1982,0
3521,-790,1983,0
3524,-790,1982,0
3526,-791,1976,0
3520,-790,1974,0
3519,-783,1969,0
3512,-787,1968,0
3507,-784,1968,0
3498,-785,1968,0
3496,-786,1970,0
3494,-785,1969,0
3497,-784,1966,0
3497,-784,1967,0
3498,-772,1968,0
3502,-776,1969,0
3506,-778,1969,0
3508,-775,1968,0
3510,-778,1966,0
3512,-781,1967,0
3514,-779,1973,0
3509,-785,1970,0
3510,-785,1968,0
3505,-784,1965,0
3506,-784,1967,0
3504,-782,1964,0
3503,-780,1965,0
3498,-778,1965,0
3496,-782,1966,0
3492,-783,1970,0
3488,-788,1974,0
3490,-789,1974,0
3491,-788,1976,0
3491,-789,1976,0
3495,-792,1972,0
3496,-794,1967,0
3499,-795,1963,0
3498,-796,1965,0
3499,-796,1967,0
3501,-788,1966,0
3502,-787,1963,0
3499,-781,1966,0
3497,-775,1968,0
3497,-779,1969,0
3500,-782,1969,0
3499,-778,1967,0
3503,-781,1968,0
3502,-784,1971,0
3501,-788,1972,0
3506,-790,1969,0
3512,-793,1970,0
3514,-792,1968,0
3515,-794,1967,0
3514,-788,1960,0
3509,-789,1956,0
3508,-787,1956,0
3504,-786,1958,0
3498,-783,1960,0
3494,-786,1960,0
3493,-783,1959,0
3493,-783,1960,0
3499,-778,1962,0
3503,-775,1965,0
3507,-774,1966,0
3505,-772,1966,0
3503,-774,1967,0
3504,-777,1967,0
3512,-782,1965,0
3513,-789,1966,0
3516,-789,1969,0
3512,-792,1967,0
3508,-792,1968,0
3508,-795,1967,0
3502,-794,1965,0
3500,-789,1962,0
3495,-789,1965,0
3495,-787,1966,0
3498,-786,1966,0
3502,-784,1965,0
3502,-782,1965,0
3504,-780,1966,0
3505,-779,1967,0
3508,-777,1968,0
3506,-780,1966,0
3504,-779,1967,0
3498,-782,1968,0
3499,-786,1969,0
3499,-785,1972,0
3502,-780,1974,0
3501,-778,1977,0
3499,-779,1976,0
3500,-784,1973,0
3501,-782,1974,0
3506,-787,1971,0
3507,-783,1968,0
3505,-786,1966,0
3501,-791,1967,0
3507,-790,1961,0
3508,-793,1959,0
3515,-791,1958,0
3518,-791,1958,0
3520,-786,1957,0
3519,-786,1957,0
3518,-780,1959,0
3518,-779,1967,0
3519,-774,1967,0
3518,-775,1967,0
3511,-774,1968,0
3507,-774,1969,0
3502,-777,1972,0
3496,-777,1968,0
3494,-777,1970,0
3491,-781,1971,0
3485,-783,1968,0
3488,-783,1967,0
3488,-781,1963,0
3495,-781,1962,0
3496,-783,1965,0
3503,-787,1965,0
3510,-786,1966,0
3515,-787,1967,0
3512,-787,1967,0
3510,-785,1969,0
3513,-785,1972,0
3513,-783,1977,0
3507,-781,1975,0
3504,-781,1978,0
3502,-783,1974,0
3496,-779,1974,0
3489,-782,1970,0
3484,-778,1970,0
3479,-778,1968,0
3477,-777,1968,0
3481,-776,1967,0
3490,-776,1968,0
3491,-754,1968,0
3500,-766,1963,0
3511,-774,1964,0
3520,-770,1964,0
3524,-774,1965,0
3525,-773,1964,0
3519,-775,1962,0
3512,-775,1962,0
3510,-777,1965,0
3510,-778,1967,0
3507,-775,1972,0
3503,-773,1971,0
3503,-771,1968,0
3501,-774,1970,0
3499,-775,1970,0
3498,-778,1966,0
3497,-777,1964,0
3494,-772,1963,0
3496,-775,1962,0
3499,-775,1965,0
3504,-777,1967,0
3510,-776,1966,0
3517,-773,1972,0
3529,-773,1977,0
3533,-774,1981,0
3535,-776,1985,0
3534,-775,1990,0
3530,-777,1990,0
3522,-778,1984,0
3509,-782,1980,0
3498,-778,1979,0
3483,-778,1980,0
3469,-782,1974,0
3459,-780,1974,0
3455,-781,1974,0
3456,-780,1976,0
3456,-781,1977,0
3457,-786,1977,0
3459,-786,1979,0
3462,-782,1982,0
3473,-783,1984,0
3482,-780,1985,0
3491,-783,1987,0
3500,-783,1987,0
3504,-784,1985,0
3504,-790,1984,0
3505,-790,1984,0
3505,-785,1980,0
3507,-788,1978,0
3505,-788,1976,0
3503,-786,1971,0
3504,-783,1973,0
3506,-777,1973,0
3503,-774,1971,0
3509,-771,1971,0
3506,-766,1978,0
3509,-762,1978,0
3510,-760,1979,0
3506,-759,1978,0
3505,-760,1976,0
3503,-760,1971,0
3496,-763,1967,0
3488,-767,1969,0
3483,-773,1969,0
3489,-776,1972,0
3491,-775,1972,0
3494,-776,1972,0
3496,-775,1972,0
3497,-778,1970,0
3494,-774,1971,0
3491,-773,1973,0
3486,-776,1976,0
3482,-778,1980,0
3484,-777,1981,0
3485,-778,1982,0
3491,-776,1984,0
3496,-776,1982,0
3499,-776,1979,0
3501,-773,1978,0
3504,-771,1982,0
3504,-769,1981,0
3502,-774,1985,0
3494,-775,1984,0
3493,-781,1985,0
3494,-783,1987,0
3497,-785,1987,0
3504,-783,1985,0
3513,-782,1991,0
3514,-779,1991,0
3514,-779,1986,0
3511,-782,1983,0
3508,-782,1978,0
3505,-786,1981,0
3503,-787,1982,0
3508,-787,1983,0
3511,-787,1979,0
3508,-784,1975,0
3503,-784,1975,0
3496,-781,1972,0
3493,-782,1974,0
3492,-783,1977,0
3491,-781,1978,0
3489,-778,1975,0
3490,-778,1977,0
3492,-778,1975,0
3492,-774,1978,0
3495,-777,1977,0
3497,-775,1981,0
3496,-777,1981,0
3493,-776,1982,0
3491,-774,1985,0
3492,-777,1985,0
3490,-778,1987,0
3493,-776,1982,0
3489,-775,1979,0
3484,-778,1978,0
3486,-777,1980,0
3488,-779,1977,0
3489,-777,1976,0
3492,-775,1975,0
3493,-773,1975,0
3493,-775,1976,0
3492,-776,1982,0
3492,-777,1985,0
3492,-779,1982,0
3493,-781,1986,0
3493,-779,1992,0
3500,-783,1993,0
3504,-783,1994,0
3510,-787,1992,0
3513,-787,1992,0
3517,-787,1989,0
3517,-786,1994,0
3510,-783,1992,0
3500,-788,1987,0
3493,-791,1987,0
3486,-794,1986,0
3481,-796,1989,0
3476,-799,1986,0
3473,-803,1987,0
3470,-800,1987,0
3471,-804,1989,0
3477,-799,1993,0
3485,-800,1995,0
3491,-801,1998,0
3497,-800,1998,0
3498,-802,1998,0
3491,-801,1997,0
3490,-801,1991,0
3490,-798,1988,0
3493,-797,1992,0
3492,-798,1995,0
3491,-799,1995,0
3487,-800,1993,0
3490,-799,1994,0
3493,-797,1991,0
3496,-794,1988,0
3494,-796,1990,0
3491,-794,1992,0
3486,-794,1993,0
3482,-792,1990,0
3481,-787,1988,0
3483,-787,1989,0
3482,-782,1988,0
3487,-784,1989,0
3482,-784,1986,0
3485,-781,1985,0
3483,-780,1984,0
3485,-782,1985,0
3480,-785,1989,0
3477,-780,1991,0
3481,-781,1995,0
3485,-782,2000,0
3489,-784,2005,0
3492,-784,2005,0
3490,-785,2000,0
3492,-785,2004,0
3492,-785,2002,0
3496,-787,2003,0
3498,-782,2003,0
3501,-784,1999,0
3501,-781,1999,0
3502,-783,1996,0
3496,-778,1991,0
3486,-779,1986,0
3481,-779,1986,0
3475,-780,1993,0
3472,-780,1995,0
3472,-780,1994,0
3468,-779,1992,0
3463,-786,1995,0
3463,-787,1993,0
3465,-792,2001,0
3469,-797,2005,0
3476,-801,2009,0
3482,-803,2011,0
3486,-805,2007,0
3491,-803,2005,0
3496,-805,2009,0
3497,-803,2008,0
3498,-808,2009,0
3502,-805,2003,0
3504,-806,2001,0
3504,-807,2001,0
3500,-806,1999,0
3497,-806,1998,0
3490,-805,1995,0
3488,-801,1991,0
3478,-799,1994,0
3468,-797,1993,0
3463,-797,1994,0
3457,-798,2000,0
3454,-802,2004,0
3457,-802,2009,0
3462,-802,2007,0
3468,-803,2011,0
3470,-799,2013,0
3470,-799,2013,0
3470,-794,2010,0
3469,-792,2006,0
3471,-790,2005,0
3471,-783,2007,0
3476,-784,2012,0
3481,-789,2013,0
3490,-786,2017,0
3496,-785,2011,0
3502,-785,2003,0
3501,-784,1996,0
3500,-786,1994,0
3501,-783,1994,0
3496,-781,1992,0
3491,-780,1991,0
3485,-777,1993,0
3477,-777,1996,0
3468,-777,1997,0
3463,-778,1992,0
3461,-779,1996,0
3467,-781,1996,0
3470,-786,2002,0
3478,-788,2005,0
3491,-787,2010,0
3503,-788,2016,0
3514,-789,2015,0
3517,-789,2015,0
3521,-787,2015,0
3516,-785,2013,0
3509,-782,2014,0
3500,-786,2013,0
3489,-791,2012,0
3481,-793,2014,0
3472,-799,2011,0
3464,-802,2012,0
3457,-804,2016,0
3456,-805,2017,0
3453,-809,2019,0
3454,-809,2023,0
3453,-812,2026,0
3452,-810,2028,0
3455,-815,2033,0
3459,-817,2032,0
3462,-819,2033,0
3463,-822,2031,0
3462,-824,2030,0
3460,-827,2032,0
3459,-827,2031,0
3456,-828,2030,0
3453,-826,2026,0
3450,-822,2018,0
3448,-815,2015,0
3445,-816,2013,0
3443,-809,2014,0
3444,-806,2015,0
3450,-805,2016,0
3456,-801,2016,0
3459,-795,2016,0
3466,-792,2018,0
3472,-791,2021,0
3473,-790,2024,0
3473,-787,2021,0
3475,-790,2021,0
3475,-792,2024,0
3476,-794,2021,0
3472,-799,2018,0
3472,-799,2015,0
3468,-799,2012,0
3469,-799,2010,0
3470,-800,2010,0
3468,-801,2010,0
3466,-799,2015,0
3467,-789,2019,0
3466,-793,2016,0
3463,-788,2018,0
3462,-781,2018,0
3461,-777,2018,0
3460,-780,2017,0
3459,-782,2022,0
3459,-790,2024,0
3458,-793,2028,0
3454,-800,2028,0
3456,-802,2030,0
3461,-805,2034,0
3467,-807,2033,0
3471,-809,2032,0
3474,-805,2032,0
3481,-807,2030,0
3482,-807,2030,0
3482,-808,2034,0
3479,-810,2038,0
3476,-811,2034,0
3474,-811,2032,0
3472,-808,2029,0
3467,-809,2028,0
3465,-811,2025,0
3454,-815,2023,0
3447,-814,2021,0
3447,-813,2022,0
3448,-811,2019,0
3451,-809,2019,0
3446,-811,2018,0
3444,-813,2020,0
3446,-819,2023,0
3454,-817,2027,0
3461,-816,2028,0
3466,-811,2032,0
3468,-810,2035,0
3470,-813,2033,0
3470,-810,2030,0
3469,-809,2028,0
3475,-806,2029,0
3472,-801,2030,0
3469,-799,2028,0
3464,-799,2020,0
3464,-803,2016,0
3465,-803,2020,0
3465,-803,2019,0
3467,-803,2018,0
3469,-806,2013,0
3467,-805,2016,0
3462,-799,2020,0
3459,-801,2023,0
3459,-807,2025,0
3460,-806,2027,0
3461,-807,2027,0
3464,-805,2027,0
3464,-804,2024,0
3460,-805,2024,0
3460,-801,2025,0
3464,-801,2023,0
3458,-802,2025,0
3455,-800,2023,0
3459,-802,2027,0
3460,-800,2030,0
3466,-801,2041,0
3472,-801,2042,0
3475,-801,2044,0
3477,-802,2041,0
3471,-801,2037,0
3467,-805,2032,0
3461,-805,2031,0
3455,-809,2033,0
3453,-810,2034,0
3457,-811,2031,0
3456,-809,2030,0
3452,-809,2030,0
3450,-807,2028,0
3450,-807,2025,0
3453,-808,2027,0
3453,-807,2029,0
3451,-810,2028,0
3452,-809,2026,0
3457,-813,2030,0
3460,-816,2031,0
3463,-814,2032,0
3463,-813,2032,0
3460,-811,2031,0
3458,-809,2033,0
3459,-812,2034,0
3456,-812,2034,0
3455,-809,2032,0
3453,-810,2030,0
3453,-809,2026,0
3457,-808,2025,0
3459,-808,2025,0
3468,-809,2027,0
3471,-809,2029,0
3477,-808,2028,0
3481,-808,2029,0
3484,-811,2030,0
3481,-810,2031,0
3480,-810,2033,0
3477,-807,2033,0
3472,-808,2030,0
3463,-806,2025,0
3458,-802,2023,0
3455,-797,2022,0
3451,-798,2024,0
3448,-802,2025,0
3443,-801,2026,0
3441,-801,2026,0
3442,-805,2027,0
3445,-808,2030,0
3450,-813,2033,0
3457,-815,2032,0
3460,-816,2034,0
3459,-814,2032,0
3459,-814,2039,0
3463,-819,2042,0
3464,-821,2043,0
3462,-822,2043,0
3464,-820,2038,0
3468,-820,2034,0
3467,-816,2033,0
3464,-818,2032,0
3462,-815,2031,0
3463,-812,2031,0
3463,-810,2031,0
3465,-809,2028,0
3465,-810,2026,0
3468,-810,2028,0
3459,-811,2027,0
3462,-810,2025,0
3459,-808,2024,0
3462,-807,2026,0
3460,-804,2028,0
3455,-805,2029,0
3452,-808,2030,0
3452,-807,2032,0
3460,-811,2029,0
3464,-811,2029,0
3473,-807,2030,0
3476,-807,2028,0
3475,-807,2021,0
3472,-809,2020,0
3466,-808,2023,0
3464,-809,2025,0
3463,-812,2024,0
3462,-814,2024,0
3463,-816,2021,0
3463,-819,2019,0
3463,-816,2019,0
3459,-817,2017,0
3450,-816,2014,0
3444,-815,2013,0
3436,-809,2008,0
3433,-799,2007,0
3438,-797,2003,0
3454,-793,2002,0
3471,-788,2006,0
3494,-779,2010,0
3518,-771,2009,0
3532,-761,2011,0
3532,-749,2015,0
3519,-735,2017,0
3493,-735,2017,0
3460,-734,2012,0
3433,-741,1998,0
3418,-756,1978,0
3410,-781,1955,0
3406,-800,1927,0
3407,-816,1909,0
3412,-824,1893,0
3416,-833,1897,0
3422,-828,1905,0
3427,-827,1922,0
3438,-822,1944,0
3443,-809,1964,0
3444,-800,1985,0
3439,-797,2000,0
3425,-790,2014,0
3414,-797,2020,0
3424,-797,2024,0
3444,-791,2017,0
3474,-798,2014,0
3502,-820,1999,0
3518,-809,2018,0
3533,-780,2045,0
3544,-776,2062,0
3543,-759,2091,0
3536,-746,2118,0
3525,-738,2131,0
3513,-731,2157,0
3502,-740,2172,0
3500,-740,2181,0
3498,-746,2180,0
3507,-756,2177,0
3507,-759,2170,0
3497,-762,2170,0
3485,-773,2163,0
3484,-784,2157,0
3496,-784,2157,0
3529,-781,2158,0
3577,-769,2154,0
3621,-743,2155,0
3666,-710,2160,0
3680,-664,2151,0
3705,-686,2167,0
3680,-696,2123,0
3704,-672,2178,0
3664,-694,2148,0
3627,-660,2149,0
3765,-604,2185,0
3713,-775,2104,0
3608,-789,2088,0
3493,-767,2044,0
3434,-705,2049,0
3390,-744,2019,0
3430,-743,2056,0
3503,-660,2150,0
3567,-573,2224,0
3627,-551,2243,0
3657,-498,2264,0
3648,-499,2277,0
3638,-536,2250,0
3655,-557,2265,0
3706,-554,2233,0
3598,-536,2180,0
3466,-594,2161,0
3432,-574,2187,0
3396,-561,2152,0
3381,-543,2154,0
3358,-508,2123,0
3374,-505,2136,0
3364,-465,2225,0
3327,-456,2250,0
3297,-463,2257,0
3299,-454,2266,0
3274,-485,2270,0
3303,-428,2372,0
3332,-474,2437,0
3338,-484,2432,0
3334,-527,2425,0
3328,-570,2463,0
3320,-583,2525,0
3295,-613,2547,0
3289,-559,2591,0
3249,-568,2561,0
3273,-537,2602,0
3330,-630,2693,0
3255,-653,2713,0
3166,-763,2640,0
3092,-840,2524,0
3023,-853,2434,0
2986,-873,2392,0
2915,-853,2415,0
2858,-858,2428,0
2826,-818,2462,0
2822,-914,2475,0
2854,-914,2514,0
2875,-854,2605,0
2904,-822,2653,0
2893,-808,2644,0
2955,-781,2653,0
2980,-707,2684,0
2978,-681,2671,0
2966,-666,2631,0
2945,-645,2590,0
2966,-670,2567,0
2936,-654,2498,0
2922,-639,2473,0
2922,-653,2432,0
2948,-654,2422,0
2888,-279,2572,0
3040,-598,2562,0
3066,-1090,2210,0
3028,-942,2175,0
3040,-853,2152,0
3019,-708,2213,0
3034,-732,2193,0
3042,-694,2168,0
3057,-638,2132,0
3086,-577,2128,0
3133,-501,2149,0
3192,-439,2167,0
3253,-413,2182,0
3295,-404,2201,0
3323,-425,2192,0
3333,-459,2198,0
3339,-501,2198,0
3344,-535,2196,0
3355,-569,2201,0
3367,-590,2183,0
3368,-588,2167,0
3362,-554,2155,0
3348,-518,2149,0
3361,-505,2174,0
3365,-475,2185,0
3374,-483,2192,0
3396,-515,2196,0
3393,-565,2184,0
3410,-611,2174,0
3413,-674,2158,0
3434,-748,2143,0
3464,-818,2124,0
3516,-892,2131,0
3565,-983,2121,0
3600,-1037,2098,0
3604,-1113,2049,0
3597,-1193,1984,0
3583,-1251,1911,0
3532,-1241,1902,0
3531,-1314,1897,0
3498,-1303,1902,0
3451,-1282,1906,0
3409,-1257,1951,0
3385,-1207,2021,0
3373,-1159,2081,0
3435,-1203,2168,0
