accelerometer_x,accelerometer_y,accelerometer_z,fall
-1414,1321,3595,0
-1413,1319,3596,0
-1417,1322,3597,0
-1417,1315,3596,0
-1423,1315,3596,0
-1422,1315,3597,0
-1422,1314,3599,0
-1420,1312,3597,0
-1422,1312,3595,0
-1426,1307,3594,0
-1423,1303,3592,0
-1422,1301,3594,0
-1421,1300,3592,0
-1419,1297,3586,0
-1417,1295,3587,0
-1417,1295,3589,0
-1418,1299,3583,0
-1419,1298,3582,0
-1419,1297,3581,0
-1421,1295,3582,0
-1424,1296,3584,0
-1429,1297,3586,0
-1433,1299,3586,0
-1440,1305,3587,0
-1443,1305,3589,0
-1446,1310,3588,0
-1447,1310,3588,0
-1448,1313,3589,0
-1447,1314,3589,0
-1446,1315,3591,0
-1444,1320,3594,0
-1442,1319,3591,0
-1442,1321,3589,0
-1438,1324,3589,0
-1437,1320,3588,0
-1433,1317,3588,0
-1432,1318,3588,0
-1426,1316,3585,0
-1421,1312,3584,0
-1416,1308,3584,0
-1414,1308,3582,0
-1413,1308,3583,0
-1412,1310,3579,0
-1414,1311,3579,0
-1412,1312,3576,0
-1409,1316,3582,0
-1412,1315,3582,0
-1411,1316,3583,0
-1412,1318,3583,0
-1415,1323,3587,0
-1417,1324,3585,0
-1418,1326,3587,0
-1421,1327,3585,0
-1421,1328,3582,0
-1419,1331,3583,0
-1419,1331,3586,0
-1416,1334,3585,0
-1410,1333,3586,0
-1412,1336,3585,0
-1411,1335,3588,0
-1409,1336,3590,0
-1411,1337,3589,0
-1408,1342,3589,0
-1409,1337,3588,0
-1409,1339,3588,0
-1410,1338,3585,0
-1407,1336,3583,0
-1405,1334,3580,0
-1405,1334,3579,0
-1405,1330,3579,0
-1406,1330,3579,0
-1410,1327,3578,0
-1409,1326,3578,0
-1407,1330,3577,0
-1406,1330,3579,0
-1408,1330,3583,0
-1413,1337,3581,0
-1411,1336,3581,0
-1412,1337,3580,0
-1413,1339,3577,0
-1413,1345,3577,0
-1418,1344,3577,0
-1418,1345,3580,0
-1421,1346,3581,0
-1419,1348,3583,0
-1418,1346,3584,0
-1421,1346,3583,0
-1420,1344,3583,0
-1422,1344,3580,0
-1424,1343,3577,0
-1422,1345,3580,0
-1416,1343,3580,0
-1416,1343,3581,0
-1414,1344,3580,0
-1413,1342,3578,0
-1412,1343,3576,0
-1413,1342,3578,0
-1406,1342,3578,0
-1406,1342,3582,0
-1408,1340,3580,0
-1409,1339,3583,0
-1408,1339,3581,0
-1408,1337,3585,0
-1411,1334,3589,0
-1411,1336,3589,0
-1409,1339,3583,0
-1414,1342,3584,0
-1419,1342,3582,0
-1419,1337,3583,0
-1424,1336,3586,0
-1420,1337,3587,0
-1415,1336,3586,0
-1414,1334,3585,0
-1414,1331,3584,0
-1410,1326,3584,0
-1410,1326,3584,0
-1410,1328,3581,0
-1407,1327,3580,0
-1408,1327,3581,0
-1406,1330,3586,0
-1407,1325,3588,0
-1413,1322,3588,0
-1412,1323,3589,0
-1414,1323,3587,0
-1414,1321,3584,0
-1412,1321,3581,0
-1411,1317,3576,0
-1406,1315,3579,0
-1398,1321,3577,0
-1394,1324,3574,0
-1392,1325,3570,0
-1390,1329,3567,0
-1394,1336,3568,0
-1399,1344,3569,0
-1408,1349,3571,0
-1415,1357,3572,0
-1423,1368,3579,0
-1430,1371,3581,0
-1439,1374,3584,0
-1446,1375,3588,0
-1449,1375,3589,0
-1450,1374,3587,0
-1448,1369,3588,0
-1443,1359,3591,0
-1438,1350,3590,0
-1430,1342,3589,0
-1416,1331,3590,0
-1403,1320,3592,0
-1393,1313,3596,0
-1388,1307,3597,0
-1384,1298,3600,0
-1384,1291,3599,0
-1384,1287,3600,0
-1384,1285,3599,0
-1380,1298,3600,0
-1381,1308,3597,0
-1384,1321,3596,0
-1388,1329,3591,0
-1393,1337,3592,0
-1402,1335,3592,0
-1406,1332,3589,0
-1416,1324,3580,0
-1424,1326,3574,0
-1429,1322,3572,0
-1426,1318,3569,0
-1429,1321,3567,0
-1430,1322,3567,0
-1427,1328,3567,0
-1430,1334,3567,0
-1431,1342,3567,0
-1435,1344,3568,0
-1437,1349,3570,0
-1448,1354,3569,0
-1454,1354,3576,0
-1459,1354,3577,0
-1458,1351,3579,0
-1454,1346,3581,0
-1456,1343,3580,0
-1449,1337,3581,0
-1442,1331,3583,0
-1436,1326,3584,0
-1430,1323,3580,0
-1424,1318,3577,0
-1419,1315,3576,0
-1412,1312,3575,0
-1408,1311,3578,0
-1406,1313,3580,0
-1401,1312,3578,0
-1402,1311,3582,0
-1404,1306,3584,0
-1408,1308,3585,0
-1407,1308,3583,0
-1411,1312,3585,0
-1416,1319,3580,0
-1417,1320,3573,0
-1416,1322,3573,0
-1415,1325,3574,0
-1414,1331,3576,0
-1411,1338,3578,0
-1412,1337,3584,0
-1413,1343,3579,0
-1411,1341,3575,0
-1409,1340,3572,0
-1410,1340,3570,0
-1406,1337,3569,0
-1404,1337,3571,0
-1404,1334,3579,0
-1405,1330,3583,0
-1405,1331,3588,0
-1406,1332,3590,0
-1405,1328,3592,0
-1408,1330,3593,0
-1409,1332,3593,0
-1410,1334,3593,0
-1413,1334,3588,0
-1418,1332,3588,0
-1419,1333,3587,0
-1419,1334,3587,0
-1422,1330,3585,0
-1424,1328,3588,0
-1422,1324,3586,0
-1420,1322,3587,0
-1423,1318,3586,0
-1424,1315,3588,0
-1419,1312,3584,0
-1417,1310,3584,0
-1414,1309,3578,0
-1416,1309,3584,0
-1416,1310,3582,0
-1418,1312,3584,0
-1420,1317,3587,0
-1419,1318,3586,0
-1424,1317,3583,0
-1430,1319,3582,0
-1436,1318,3584,0
-1435,1320,3586,0
-1443,1323,3589,0
-1442,1322,3590,0
-1442,1319,3590,0
-1442,1319,3591,0
-1437,1316,3585,0
-1434,1316,3584,0
-1435,1315,3584,0
-1429,1315,3581,0
-1427,1313,3577,0
-1423,1314,3578,0
-1422,1315,3575,0
-1420,1312,3573,0
-1422,1312,3578,0
-1420,1310,3580,0
-1419,1311,3577,0
-1418,1315,3576,0
-1418,1313,3579,0
-1412,1317,3576,0
-1411,1319,3581,0
-1413,1319,3580,0
-1414,1323,3581,0
-1413,1323,3583,0
-1418,1324,3587,0
-1424,1323,3585,0
-1428,1320,3579,0
-1430,1319,3580,0
-1432,1319,3582,0
-1433,1319,3580,0
-1433,1319,3584,0
-1432,1319,3582,0
-1429,1317,3581,0
-1430,1318,3583,0
-1430,1319,3582,0
-1426,1322,3585,0
-1426,1326,3585,0
-1420,1328,3584,0
-1417,1328,3583,0
-1418,1328,3582,0
-1418,1328,3582,0
-1420,1330,3582,0
-1423,1326,3585,0
-1423,1324,3580,0
-1424,1321,3582,0
-1427,1320,3580,0
-1425,1319,3583,0
-1423,1319,3585,0
-1424,1319,3582,0
-1418,1316,3579,0
-1419,1312,3573,0
-1417,1309,3575,0
-1416,1311,3573,0
-1418,1314,3570,0
-1416,1314,3572,0
-1418,1314,3578,0
-1420,1318,3582,0
-1420,1322,3583,0
-1425,1330,3581,0
-1425,1333,3585,0
-1428,1332,3585,0
-1427,1332,3588,0
-1429,1337,3587,0
-1430,1335,3588,0
-1431,1333,3585,0
-1432,1327,3586,0
-1431,1325,3583,0
-1431,1319,3581,0
-1427,1319,3581,0
-1425,1316,3579,0
-1418,1312,3578,0
-1413,1311,3576,0
-1412,1309,3570,0
-1409,1309,3574,0
-1409,1304,3573,0
-1414,1306,3574,0
-1413,1312,3575,0
-1411,1312,3578,0
-1419,1313,3581,0
-1422,1317,3583,0
-1426,1317,3584,0
-1429,1317,3583,0
-1433,1323,3581,0
-1438,1326,3580,0
-1443,1326,3583,0
-1446,1323,3586,0
-1448,1316,3588,0
-1449,1316,3587,0
-1445,1314,3581,0
-1447,1317,3586,0
-1448,1318,3592,0
-1443,1309,3599,0
-1437,1307,3589,0
-1437,1304,3583,0
-1435,1306,3584,0
-1439,1312,3588,0
-1438,1311,3590,0
-1436,1310,3592,0
-1435,1306,3587,0
-1430,1301,3584,0
-1423,1297,3584,0
-1418,1291,3581,0
-1411,1289,3579,0
-1409,1290,3578,0
-1409,1291,3574,0
-1411,1288,3574,0
-1412,1298,3576,0
-1415,1306,3574,0
-1423,1313,3573,0
-1433,1318,3574,0
-1441,1322,3577,0
-1445,1322,3576,0
-1450,1327,3575,0
-1451,1329,3576,0
-1453,1331,3578,0
-1452,1325,3579,0
-1453,1327,3580,0
-1453,1326,3582,0
-1446,1322,3578,0
-1442,1320,3583,0
-1438,1321,3587,0
-1435,1318,3592,0
-1429,1317,3596,0
-1430,1316,3602,0
-1431,1314,3604,0
-1426,1311,3604,0
-1425,1310,3607,0
-1427,1315,3609,0
-1422,1314,3604,0
-1421,1315,3600,0
-1419,1318,3598,0
-1416,1317,3597,0
-1419,1314,3595,0
-1424,1309,3591,0
-1428,1304,3589,0
-1435,1302,3582,0
-1435,1301,3579,0
-1440,1296,3576,0
-1441,1294,3571,0
-1440,1285,3569,0
-1441,1286,3571,0
-1441,1285,3569,0
-1437,1289,3568,0
-1437,1291,3567,0
-1440,1294,3568,0
-1443,1297,3570,0
-1449,1303,3575,0
-1453,1309,3574,0
-1457,1312,3578,0
-1459,1315,3578,0
-1467,1314,3579,0
-1471,1317,3577,0
-1471,1316,3582,0
-1465,1316,3583,0
-1462,1316,3586,0
-1459,1311,3587,0
-1450,1308,3586,0
-1446,1305,3583,0
-1446,1301,3586,0
-1443,1298,3588,0
-1441,1295,3589,0
-1440,1292,3584,0
-1437,1288,3585,0
-1438,1284,3587,0
-1437,1278,3587,0
-1435,1276,3586,0
-1435,1275,3586,0
-1432,1273,3583,0
-1427,1275,3582,0
-1424,1281,3581,0
-1423,1287,3576,0
-1415,1291,3572,0
-1407,1296,3572,0
-1405,1303,3572,0
-1406,1312,3577,0
-1405,1318,3580,0
-1407,1323,3581,0
-1412,1327,3581,0
-1414,1329,3578,0
-1418,1330,3574,0
-1423,1334,3574,0
-1425,1334,3576,0
-1433,1339,3580,0
-1438,1337,3584,0
-1447,1337,3589,0
-1453,1335,3591,0
-1457,1328,3591,0
-1456,1325,3588,0
-1454,1321,3591,0
-1454,1321,3592,0
-1453,1314,3590,0
-1453,1308,3590,0
-1450,1306,3587,0
-1447,1302,3588,0
-1442,1298,3587,0
-1441,1296,3585,0
-1440,1292,3581,0
-1444,1293,3585,0
-1444,1288,3583,0
-1444,1280,3582,0
-1444,1279,3579,0
-1445,1278,3579,0
-1448,1280,3581,0
-1447,1282,3580,0
-1452,1282,3583,0
-1452,1278,3585,0
-1454,1276,3582,0
-1453,1276,3580,0
-1454,1277,3583,0
-1452,1274,3580,0
-1453,1273,3580,0
-1457,1273,3584,0
-1454,1261,3590,0
-1452,1261,3580,0
-1456,1266,3574,0
-1461,1274,3583,0
-1461,1284,3592,0
-1460,1290,3591,0
-1463,1292,3590,0
-1464,1290,3589,0
-1463,1286,3586,0
-1465,1289,3587,0
-1463,1289,3584,0
-1457,1288,3583,0
-1453,1291,3583,0
-1449,1289,3583,0
-1445,1290,3584,0
-1442,1295,3580,0
-1442,1296,3583,0
-1443,1299,3580,0
-1442,1298,3578,0
-1444,1300,3577,0
-1442,1305,3578,0
-1442,1304,3575,0
-1441,1306,3573,0
-1445,1307,3571,0
-1446,1308,3571,0
-1447,1306,3574,0
-1446,1307,3578,0
-1444,1307,3581,0
-1440,1309,3582,0
-1438,1309,3578,0
-1439,1307,3580,0
-1434,1307,3577,0
-1433,1309,3578,0
-1429,1313,3580,0
-1424,1313,3581,0
-1423,1312,3579,0
-1424,1315,3576,0
-1429,1313,3571,0
-1433,1315,3572,0
-1439,1318,3573,0
-1438,1320,3579,0
-1441,1324,3580,0
-1443,1327,3574,0
-1441,1326,3573,0
-1441,1326,3571,0
-1443,1326,3573,0
-1444,1325,3569,0
-1446,1323,3572,0
-1445,1320,3572,0
-1444,1317,3574,0
-1441,1317,3574,0
-1443,1314,3570,0
-1439,1314,3569,0
-1439,1315,3571,0
-1438,1315,3570,0
-1441,1315,3572,0
-1443,1315,3575,0
-1446,1316,3576,0
-1445,1316,3582,0
-1446,1316,3577,0
-1451,1312,3579,0
-1456,1312,3577,0
-1455,1311,3575,0
-1456,1313,3576,0
-1456,1309,3577,0
-1455,1307,3577,0
-1453,1309,3581,0
-1447,1302,3581,0
-1447,1302,3582,0
-1444,1297,3577,0
-1442,1297,3578,0
-1440,1298,3575,0
-1445,1298,3576,0
-1443,1299,3575,0
-1443,1298,3578,0
-1441,1297,3581,0
-1440,1297,3584,0
-1444,1297,3582,0
-1444,1297,3579,0
-1444,1297,3578,0
-1444,1299,3578,0
-1444,1298,3577,0
-1444,1299,3579,0
-1441,1301,3576,0
-1440,1301,3577,0
-1439,1304,3578,0
-1439,1304,3575,0
-1439,1306,3579,0
-1439,1304,3577,0
-1441,1310,3577,0
-1445,1311,3578,0
-1447,1311,3577,0
-1446,1314,3577,0
-1447,1316,3579,0
-1445,1314,3576,0
-1450,1315,3575,0
-1456,1315,3576,0
-1455,1313,3576,0
-1455,1312,3573,0
-1452,1309,3578,0
-1455,1308,3580,0
-1452,1307,3580,0
-1453,1308,3579,0
-1450,1309,3578,0
-1451,1307,3580,0
-1453,1308,3582,0
-1455,1308,3578,0
-1453,1307,3581,0
-1454,1305,3582,0
-1457,1300,3581,0
-1451,1297,3579,0
-1452,1295,3580,0
-1448,1292,3581,0
-1444,1290,3582,0
-1443,1288,3578,0
-1435,1289,3576,0
-1425,1290,3573,0
-1423,1294,3571,0
-1418,1297,3564,0
-1420,1302,3562,0
-1423,1310,3563,0
-1426,1316,3566,0
-1434,1324,3569,0
-1440,1334,3570,0
-1445,1343,3575,0
-1451,1350,3578,0
-1459,1356,3583,0
-1467,1364,3587,0
-1475,1372,3593,0
-1475,1380,3596,0
-1477,1380,3595,0
-1472,1375,3591,0
-1471,1369,3588,0
-1465,1355,3585,0
-1456,1343,3587,0
-1447,1331,3588,0
-1443,1319,3589,0
-1429,1307,3585,0
-1425,1295,3586,0
-1423,1287,3580,0
-1422,1283,3578,0
-1420,1285,3577,0
-1417,1286,3578,0
-1418,1291,3574,0
-1418,1300,3573,0
-1418,1302,3568,0
-1422,1308,3560,0
-1425,1309,3561,0
-1428,1310,3558,0
-1434,1316,3559,0
-1438,1316,3558,0
-1442,1317,3557,0
-1444,1322,3556,0
-1446,1324,3547,0
-1446,1327,3549,0
-1449,1333,3551,0
-1456,1344,3550,0
-1457,1349,3555,0
-1463,1355,3558,0
-1467,1364,3558,0
-1470,1373,3560,0
-1473,1376,3561,0
-1473,1374,3561,0
-1474,1372,3558,0
-1476,1369,3562,0
-1470,1361,3564,0
-1469,1355,3563,0
-1462,1348,3566,0
-1450,1346,3565,0
-1447,1343,3564,0
-1445,1336,3564,0
-1437,1336,3566,0
-1431,1333,3565,0
-1423,1329,3564,0
-1422,1329,3565,0
-1420,1329,3570,0
-1421,1328,3573,0
-1420,1329,3574,0
-1422,1327,3572,0
-1423,1330,3568,0
-1426,1330,3571,0
-1430,1330,3570,0
-1432,1334,3568,0
-1429,1337,3564,0
-1428,1343,3565,0
-1429,1347,3566,0
-1426,1348,3568,0
-1430,1357,3570,0
-1431,1362,3570,0
-1429,1366,3569,0
-1433,1365,3567,0
-1435,1364,3566,0
-1438,1357,3568,0
-1434,1359,3572,0
-1432,1361,3582,0
-1431,1360,3585,0
-1430,1361,3588,0
-1430,1363,3593,0
-1432,1364,3590,0
-1433,1363,3592,0
-1435,1361,3594,0
-1437,1358,3591,0
-1438,1353,3588,0
-1437,1346,3584,0
-1438,1339,3580,0
-1438,1333,3578,0
-1438,1327,3570,0
-1439,1327,3566,0
-1439,1323,3562,0
-1435,1319,3562,0
-1430,1316,3561,0
-1428,1317,3561,0
-1423,1320,3560,0
-1422,1321,3557,0
-1420,1320,3558,0
-1420,1327,3557,0
-1423,1330,3557,0
-1424,1335,3559,0
-1430,1339,3563,0
-1436,1345,3562,0
-1443,1345,3563,0
-1450,1351,3567,0
-1452,1353,3569,0
-1460,1351,3570,0
-1465,1351,3573,0
-1466,1354,3571,0
-1465,1350,3572,0
-1459,1348,3570,0
-1450,1343,3569,0
-1452,1341,3568,0
-1447,1341,3566,0
-1444,1339,3566,0
-1439,1334,3568,0
-1434,1332,3566,0
-1433,1332,3566,0
-1433,1328,3563,0
-1429,1330,3560,0
-1427,1331,3560,0
-1425,1335,3559,0
-1423,1338,3560,0
-1423,1340,3560,0
-1422,1347,3562,0
-1430,1351,3567,0
-1427,1354,3566,0
-1430,1358,3565,0
-1430,1361,3567,0
-1432,1365,3566,0
-1436,1371,3567,0
-1436,1374,3569,0
-1438,1372,3569,0
-1435,1374,3567,0
-1436,1376,3569,0
-1435,1377,3569,0
-1435,1376,3572,0
-1435,1376,3568,0
-1427,1375,3569,0
-1425,1373,3570,0
-1426,1374,3568,0
-1426,1377,3569,0
-1421,1376,3569,0
-1417,1375,3568,0
-1416,1373,3567,0
-1419,1373,3567,0
-1421,1372,3570,0
-1420,1372,3568,0
-1420,1368,3568,0
-1422,1366,3566,0
-1421,1365,3567,0
-1418,1361,3571,0
-1421,1357,3570,0
-1415,1356,3570,0
-1417,1353,3574,0
-1420,1354,3571,0
-1420,1356,3577,0
-1420,1356,3577,0
-1423,1355,3571,0
-1426,1358,3568,0
-1427,1356,3567,0
-1428,1353,3564,0
-1428,1353,3563,0
-1429,1349,3562,0
-1430,1349,3559,0
-1430,1351,3560,0
-1433,1354,3556,0
-1433,1357,3560,0
-1432,1356,3562,0
-1432,1359,3560,0
-1431,1362,3560,0
-1430,1362,3562,0
-1432,1363,3564,0
-1430,1361,3563,0
-1432,1361,3562,0
-1428,1361,3562,0
-1430,1361,3565,0
-1432,1361,3563,0
-1437,1363,3566,0
-1435,1361,3568,0
-1438,1364,3568,0
-1445,1359,3570,0
-1445,1354,3570,0
-1443,1351,3571,0
-1441,1347,3569,0
-1444,1345,3570,0
-1443,1345,3572,0
-1443,1341,3574,0
-1437,1341,3574,0
-1435,1339,3575,0
-1437,1339,3572,0
-1434,1342,3571,0
-1430,1335,3569,0
-1434,1332,3569,0
-1433,1329,3570,0
-1436,1328,3567,0
-1436,1329,3568,0
-1438,1329,3567,0
-1442,1327,3570,0
-1442,1326,3566,0
-1440,1325,3563,0
-1436,1324,3564,0
-1435,1325,3563,0
-1430,1322,3560,0
-1426,1321,3558,0
-1423,1320,3559,0
-1426,1327,3554,0
-1425,1335,3557,0
-1430,1343,3557,0
-1435,1357,3561,0
-1442,1369,3567,0
-1448,1374,3566,0
-1459,1379,3568,0
-1464,1379,3567,0
-1472,1379,3569,0
-1476,1376,3569,0
-1476,1376,3568,0
-1479,1373,3575,0
-1475,1366,3574,0
-1467,1358,3573,0
-1457,1351,3574,0
-1446,1343,3576,0
-1435,1335,3578,0
-1424,1329,3583,0
-1416,1326,3586,0
-1414,1320,3591,0
-1410,1316,3593,0
-1410,1313,3591,0
-1408,1313,3589,0
-1407,1320,3587,0
-1410,1331,3587,0
-1415,1338,3582,0
-1416,1343,3579,0
-1414,1343,3574,0
-1418,1342,3576,0
-1425,1343,3569,0
-1426,1338,3565,0
-1431,1333,3561,0
-1435,1335,3559,0
-1435,1331,3558,0
-1442,1329,3556,0
-1441,1333,3554,0
-1440,1338,3555,0
-1443,1342,3559,0
-1442,1348,3558,0
-1447,1354,3559,0
-1451,1359,3560,0
-1454,1363,3560,0
-1461,1363,3562,0
-1464,1362,3564,0
-1470,1361,3568,0
-1471,1362,3571,0
-1472,1362,3568,0
-1468,1358,3567,0
-1464,1348,3564,0
-1461,1343,3563,0
-1455,1341,3564,0
-1444,1338,3563,0
-1442,1332,3562,0
-1440,1333,3563,0
-1437,1333,3560,0
-1432,1331,3561,0
-1432,1326,3564,0
-1432,1327,3562,0
-1432,1326,3563,0
-1433,1329,3564,0
-1437,1328,3563,0
-1438,1330,3562,0
-1438,1328,3558,0
-1433,1329,3557,0
-1436,1331,3553,0
-1433,1336,3556,0
-1432,1345,3561,0
-1431,1349,3561,0
-1431,1354,3563,0
-1435,1363,3563,0
-1437,1362,3564,0
-1438,1365,3563,0
-1439,1364,3562,0
-1441,1361,3560,0
-1443,1356,3561,0
-1441,1354,3560,0
-1444,1350,3560,0
-1444,1346,3561,0
-1445,1341,3564,0
-1444,1342,3571,0
-1443,1338,3571,0
-1439,1337,3575,0
-1440,1333,3573,0
-1438,1332,3577,0
-1435,1332,3574,0
-1437,1335,3573,0
-1439,1332,3574,0
-1441,1334,3573,0
-1444,1331,3574,0
-1445,1332,3574,0
-1449,1335,3570,0
-1450,1335,3569,0
-1455,1333,3572,0
-1453,1328,3574,0
-1456,1325,3575,0
-1453,1326,3575,0
-1451,1326,3571,0
-1456,1322,3572,0
-1455,1324,3571,0
-1456,1325,3570,0
-1454,1322,3567,0
-1453,1323,3566,0
-1453,1322,3566,0
-1454,1321,3566,0
-1454,1319,3567,0
-1459,1318,3564,0
-1458,1320,3569,0
-1460,1320,3572,0
-1464,1324,3570,0
-1463,1322,3572,0
-1460,1325,3575,0
-1461,1325,3571,0
-1460,1329,3573,0
-1458,1328,3573,0
-1457,1325,3572,0
-1453,1330,3573,0
-1453,1330,3568,0
-1448,1329,3567,0
-1443,1328,3568,0
-1439,1326,3567,0
-1436,1324,3564,0
-1434,1329,3566,0
-1434,1331,3566,0
-1435,1333,3568,0
-1436,1333,3567,0
-1443,1337,3566,0
-1444,1341,3566,0
-1443,1340,3565,0
-1444,1341,3569,0
-1444,1341,3567,0
-1449,1343,3567,0
-1450,1339,3566,0
-1453,1343,3567,0
-1457,1342,3567,0
-1457,1341,3565,0
-1454,1342,3564,0
-1454,1340,3566,0
-1450,1343,3565,0
-1448,1342,3563,0
-1448,1341,3566,0
-1444,1341,3566,0
-1442,1342,3567,0
-1442,1339,3566,0
-1441,1335,3563,0
-1436,1338,3564,0
-1441,1335,3564,0
-1443,1338,3565,0
-1442,1341,3566,0
-1445,1338,3564,0
-1447,1337,3564,0
-1450,1336,3566,0
-1452,1338,3566,0
-1454,1338,3565,0
-1458,1338,3566,0
-1457,1337,3567,0
-1456,1341,3563,0
-1459,1339,3564,0
-1455,1338,3565,0
-1455,1338,3566,0
-1455,1341,3567,0
-1454,1337,3565,0
-1450,1338,3566,0
-1453,1335,3567,0
-1452,1333,3568,0
-1455,1333,3567,0
-1452,1333,3566,0
-1452,1332,3565,0
-1450,1333,3568,0
-1453,1329,3569,0
-1452,1327,3567,0
-1453,1326,3565,0
-1455,1329,3565,0
-1453,1329,3565,0
-1447,1329,3565,0
-1446,1327,3563,0
-1450,1326,3564,0
-1449,1327,3563,0
-1454,1330,3564,0
-1453,1325,3562,0
-1454,1328,3563,0
-1452,1328,3561,0
-1452,1329,3564,0
-1456,1327,3563,0
-1456,1329,3567,0
-1455,1326,3565,0
-1455,1325,3565,0
-1458,1324,3568,0
-1466,1328,3570,0
-1466,1328,3570,0
-1467,1326,3567,0
-1464,1328,3564,0
-1465,1327,3569,0
-1463,1326,3567,0
-1460,1326,3568,0
-1457,1326,3567,0
-1454,1324,3566,0
-1452,1323,3569,0
-1451,1324,3568,0
-1450,1319,3567,0
-1451,1321,3565,0
-1452,1321,3565,0
-1449,1317,3565,0
-1449,1319,3563,0
-1451,1321,3566,0
-1453,1322,3567,0
-1449,1322,3566,0
-1449,1322,3565,0
-1446,1319,3566,0
-1444,1323,3565,0
-1442,1321,3562,0
-1444,1326,3559,0
-1446,1331,3560,0
-1457,1342,3564,0
-1450,1339,3560,0
-1450,1349,3557,0
-1458,1356,3562,0
-1465,1357,3571,0
-1470,1354,3569,0
-1472,1352,3568,0
-1474,1348,3565,0
-1474,1345,3561,0
-1476,1342,3562,0
-1473,1337,3563,0
-1469,1337,3558,0
-1464,1336,3559,0
-1458,1333,3562,0
-1454,1334,3567,0
-1451,1335,3571,0
-1447,1338,3578,0
-1445,1333,3585,0
-1444,1331,3588,0
-1444,1327,3590,0
-1443,1332,3587,0
-1442,1333,3584,0
-1446,1334,3583,0
-1446,1337,3581,0
-1448,1334,3579,0
-1450,1333,3577,0
-1456,1331,3574,0
-1458,1329,3571,0
-1459,1326,3570,0
-1462,1325,3568,0
-1465,1320,3563,0
-1463,1315,3562,0
-1463,1308,3559,0
-1459,1303,3557,0
-1459,1303,3560,0
-1456,1304,3557,0
-1458,1310,3553,0
-1460,1317,3558,0
-1463,1318,3558,0
-1467,1323,3560,0
-1471,1324,3559,0
-1475,1326,3559,0
-1479,1331,3561,0
-1479,1327,3563,0
-1482,1327,3562,0
-1480,1325,3564,0
-1478,1325,3564,0
-1472,1323,3565,0
-1469,1327,3564,0
-1465,1329,3562,0
-1459,1326,3565,0
-1457,1327,3564,0
-1456,1328,3568,0
-1457,1327,3568,0
-1458,1321,3566,0
-1458,1317,3564,0
-1458,1310,3566,0
-1462,1310,3566,0
-1457,1306,3565,0
-1458,1307,3563,0
-1452,1306,3562,0
-1451,1310,3566,0
-1451,1313,3564,0
-1444,1314,3561,0
-1444,1318,3562,0
-1443,1321,3562,0
-1440,1327,3560,0
-1436,1333,3561,0
-1439,1340,3564,0
-1438,1342,3565,0
-1440,1346,3565,0
-1445,1347,3563,0
-1451,1349,3561,0
-1454,1344,3559,0
-1454,1344,3560,0
-1452,1343,3561,0
-1454,1338,3565,0
-1457,1340,3566,0
-1459,1336,3568,0
-1464,1335,3568,0
-1460,1331,3567,0
-1459,1329,3567,0
-1462,1330,3568,0
-1460,1329,3567,0
-1459,1326,3566,0
-1458,1325,3569,0
-1464,1321,3569,0
-1464,1322,3570,0
-1466,1320,3567,0
-1465,1318,3568,0
-1462,1315,3571,0
-1463,1317,3567,0
-1464,1313,3566,0
-1465,1311,3565,0
-1466,1310,3565,0
-1465,1310,3566,0
-1463,1301,3564,0
-1467,1304,3564,0
-1467,1307,3561,0
-1464,1311,3562,0
-1464,1313,3567,0
-1467,1315,3565,0
-1472,1318,3562,0
-1472,1317,3560,0
-1471,1320,3561,0
-1474,1318,3563,0
-1475,1318,3564,0
-1478,1321,3567,0
-1478,1318,3567,0
-1476,1319,3567,0
-1476,1321,3569,0
-1475,1320,3568,0
-1474,1321,3566,0
-1472,1321,3566,0
-1474,1324,3567,0
-1469,1323,3566,0
-1469,1321,3565,0
-1465,1317,3562,0
-1460,1317,3560,0
-1460,1322,3559,0
-1454,1323,3561,0
-1450,1323,3562,0
-1451,1325,3560,0
-1449,1329,3561,0
-1450,1332,3560,0
-1452,1333,3557,0
-1456,1333,3558,0
-1460,1332,3557,0
-1464,1331,3559,0
-1464,1331,3560,0
-1467,1338,3558,0
-1473,1335,3559,0
-1472,1334,3559,0
-1470,1331,3557,0
-1468,1330,3560,0
-1467,1332,3561,0
-1462,1335,3562,0
-1463,1333,3562,0
-1459,1336,3564,0
-1455,1337,3565,0
-1460,1333,3565,0
-1460,1330,3565,0
-1459,1329,3568,0
-1459,1327,3565,0
-1460,1328,3563,0
-1458,1322,3562,0
-1456,1325,3560,0
-1456,1323,3563,0
-1456,1324,3560,0
-1453,1324,3561,0
-1451,1321,3562,0
-1451,1321,3560,0
-1454,1323,3561,0
-1455,1326,3561,0
-1457,1329,3561,0
-1465,1330,3566,0
-1467,1332,3565,0
-1465,1332,3563,0
-1470,1334,3562,0
-1469,1338,3562,0
-1467,1335,3563,0
-1467,1336,3563,0
-1469,1335,3562,0
-1470,1334,3559,0
-1467,1335,3559,0
-1462,1334,3562,0
-1460,1332,3563,0
-1463,1329,3561,0
-1459,1326,3556,0
-1458,1327,3559,0
-1459,1329,3559,0
-1457,1328,3560,0
-1459,1326,3560,0
-1460,1328,3559,0
-1460,1327,3560,0
-1459,1328,3562,0
-1463,1328,3563,0
-1459,1328,3568,0
-1460,1331,3566,0
-1459,1333,3563,0
-1458,1330,3562,0
-1460,1330,3560,0
-1466,1329,3563,0
-1463,1330,3562,0
-1465,1329,3561,0
-1463,1330,3561,0
-1463,1330,3560,0
-1463,1332,3561,0
-1464,1332,3562,0
-1465,1331,3560,0
-1466,1328,3559,0
-1463,1332,3560,0
-1464,1333,3560,0
-1466,1333,3560,0
-1467,1333,3563,0
-1472,1335,3562,0
-1468,1337,3560,0
-1470,1337,3560,0
-1470,1338,3560,0
-1473,1338,3560,0
-1475,1339,3556,0
-1474,1341,3561,0
-1474,1342,3561,0
-1474,1343,3561,0
-1472,1341,3560,0
-1470,1341,3559,0
-1470,1342,3557,0
-1469,1341,3558,0
-1468,1339,3558,0
-1466,1340,3558,0
-1463,1344,3559,0
-1466,1343,3558,0
-1467,1341,3561,0
-1466,1339,3561,0
-1467,1333,3560,0
-1464,1330,3559,0
-1462,1331,3559,0
-1461,1331,3556,0
-1454,1331,3551,0
-1450,1330,3555,0
-1445,1330,3548,0
-1445,1331,3544,0
-1444,1336,3541,0
-1444,1342,3540,0
-1446,1349,3540,0
-1448,1351,3545,0
-1456,1362,3548,0
-1462,1371,3551,0
-1473,1378,3551,0
-1483,1381,3553,0
-1491,1387,3555,0
-1497,1388,3556,0
-1498,1393,3559,0
-1501,1395,3561,0
-1496,1393,3565,0
-1491,1391,3565,0
-1486,1382,3566,0
-1475,1371,3568,0
-1467,1357,3566,0
-1456,1350,3564,0
-1443,1340,3568,0
-1435,1335,3574,0
-1430,1329,3576,0
-1429,1323,3574,0
-1429,1323,3574,0
-1430,1322,3574,0
-1430,1327,3572,0
-1432,1332,3569,0
-1435,1335,3565,0
-1441,1337,3560,0
-1446,1339,3556,0
-1448,1340,3553,0
-1453,1342,3550,0
-1459,1344,3548,0
-1462,1345,3548,0
-1466,1346,3547,0
-1471,1346,3543,0
-1471,1345,3541,0
-1473,1348,3543,0
-1474,1351,3542,0
-1474,1356,3542,0
-1477,1362,3544,0
-1482,1370,3549,0
-1487,1373,3548,0
-1494,1380,3549,0
-1500,1380,3549,0
-1504,1383,3550,0
-1507,1378,3547,0
-1508,1380,3550,0
-1500,1378,3553,0
-1498,1373,3552,0
-1491,1369,3550,0
-1485,1361,3551,0
-1478,1353,3548,0
-1467,1352,3549,0
-1462,1349,3550,0
-1458,1348,3550,0
-1453,1343,3549,0
-1450,1343,3551,0
-1450,1341,3552,0
-1449,1342,3553,0
-1446,1345,3554,0
-1449,1342,3554,0
-1452,1339,3553,0
-1452,1340,3553,0
-1450,1342,3551,0
-1451,1347,3551,0
-1448,1351,3545,0
-1446,1357,3545,0
-1446,1364,3544,0
-1445,1372,3543,0
-1445,1380,3544,0
-1444,1386,3549,0
-1445,1387,3552,0
-1450,1389,3553,0
-1449,1392,3551,0
-1451,1394,3550,0
-1449,1389,3552,0
-1452,1388,3553,0
-1453,1388,3555,0
-1449,1383,3555,0
-1446,1380,3557,0
-1445,1379,3560,0
-1448,1376,3559,0
-1448,1372,3558,0
-1448,1372,3559,0
-1447,1367,3559,0
-1447,1369,3557,0
-1446,1369,3558,0
-1445,1372,3556,0
-1447,1371,3554,0
-1448,1368,3554,0
-1445,1372,3551,0
-1448,1369,3553,0
-1450,1366,3551,0
-1452,1363,3549,0
-1452,1364,3552,0
-1452,1361,3550,0
-1454,1361,3549,0
-1456,1361,3547,0
-1459,1359,3548,0
-1459,1360,3549,0
-1461,1368,3549,0
-1468,1368,3553,0
-1468,1372,3554,0
-1468,1370,3547,0
-1471,1370,3547,0
-1474,1371,3550,0
-1475,1371,3550,0
-1478,1373,3549,0
-1476,1372,3549,0
-1476,1374,3547,0
-1474,1372,3549,0
-1468,1369,3547,0
-1465,1368,3547,0
-1460,1372,3546,0
-1455,1371,3548,0
-1450,1367,3548,0
-1449,1363,3548,0
-1449,1363,3546,0
-1450,1362,3544,0
-1451,1363,3546,0
-1455,1364,3547,0
-1454,1368,3547,0
-1458,1369,3551,0
-1454,1370,3549,0
-1453,1375,3551,0
-1451,1374,3550,0
-1453,1379,3554,0
-1454,1378,3553,0
-1454,1379,3554,0
-1458,1380,3553,0
-1454,1381,3552,0
-1455,1382,3555,0
-1451,1382,3557,0
-1452,1385,3552,0
-1453,1385,3551,0
-1452,1384,3554,0
-1450,1385,3553,0
-1451,1384,3555,0
-1448,1387,3553,0
-1445,1387,3556,0
-1446,1387,3558,0
-1443,1384,3555,0
-1444,1383,3551,0
-1440,1381,3555,0
-1435,1380,3556,0
-1435,1383,3556,0
-1431,1383,3554,0
-1429,1382,3552,0
-1434,1388,3553,0
-1433,1385,3553,0
-1437,1387,3551,0
-1439,1387,3552,0
-1440,1386,3552,0
-1440,1383,3555,0
-1441,1385,3555,0
-1441,1381,3557,0
-1440,1385,3557,0
-1441,1387,3557,0
-1445,1385,3555,0
-1445,1387,3556,0
-1446,1386,3557,0
-1445,1384,3555,0
-1444,1383,3556,0
-1444,1382,3558,0
-1444,1384,3555,0
-1440,1381,3553,0
-1439,1381,3554,0
-1438,1375,3551,0
-1437,1374,3553,0
-1438,1371,3550,0
-1431,1371,3553,0
-1432,1371,3552,0
-1434,1373,3548,0
-1438,1373,3551,0
-1437,1371,3551,0
-1441,1372,3551,0
-1446,1374,3550,0
-1447,1375,3551,0
-1448,1375,3554,0
-1450,1377,3556,0
-1451,1377,3555,0
-1451,1376,3553,0
-1455,1379,3555,0
-1456,1377,3556,0
-1453,1375,3557,0
-1453,1375,3558,0
-1454,1377,3556,0
-1455,1374,3552,0
-1456,1374,3552,0
-1450,1377,3557,0
-1447,1375,3557,0
-1447,1372,3555,0
-1448,1372,3557,0
-1448,1366,3556,0
-1450,1360,3552,0
-1451,1359,3556,0
-1449,1360,3548,0
-1444,1360,3548,0
-1446,1358,3549,0
-1443,1357,3548,0
-1439,1359,3549,0
-1436,1359,3548,0
-1430,1359,3544,0
-1428,1358,3540,0
-1430,1361,3538,0
-1435,1368,3538,0
-1440,1376,3543,0
-1450,1385,3546,0
-1456,1393,3549,0
-1460,1401,3549,0
-1468,1407,3553,0
-1473,1412,3556,0
-1480,1413,3557,0
-1483,1414,3559,0
-1482,1412,3562,0
-1478,1408,3565,0
-1476,1403,3564,0
-1469,1391,3564,0
-1460,1381,3562,0
-1448,1367,3562,0
-1438,1356,3565,0
-1421,1347,3565,0
-1413,1337,3568,0
-1408,1330,3571,0
-1407,1324,3570,0
-1409,1319,3573,0
-1411,1322,3570,0
-1410,1327,3573,0
-1416,1341,3570,0
-1420,1356,3568,0
-1424,1369,3565,0
-1428,1371,3562,0
-1432,1377,3560,0
-1435,1376,3556,0
-1443,1374,3554,0
-1449,1370,3552,0
-1451,1367,3553,0
-1457,1365,3550,0
-1458,1368,3545,0
-1457,1368,3545,0
-1454,1367,3541,0
-1457,1372,3542,0
-1463,1376,3543,0
-1465,1382,3543,0
-1469,1386,3550,0
-1475,1393,3550,0
-1486,1393,3552,0
-1487,1393,3548,0
-1486,1388,3552,0
-1487,1382,3554,0
-1484,1373,3552,0
-1481,1369,3552,0
-1476,1364,3551,0
-1471,1356,3551,0
-1462,1354,3551,0
-1454,1354,3551,0
-1446,1352,3555,0
-1441,1352,3549,0
-1436,1352,3552,0
-1435,1352,3552,0
-1436,1351,3550,0
-1437,1350,3550,0
-1439,1349,3553,0
-1439,1348,3554,0
-1440,1350,3556,0
-1442,1353,3553,0
-1448,1352,3557,0
-1450,1356,3553,0
-1452,1359,3549,0
-1451,1363,3546,0
-1446,1370,3547,0
-1443,1375,3547,0
-1443,1381,3547,0
-1438,1381,3552,0
-1433,1384,3554,0
-1437,1381,3553,0
-1441,1382,3551,0
-1435,1377,3550,0
-1440,1376,3549,0
-1437,1372,3549,0
-1437,1372,3551,0
-1437,1366,3555,0
-1443,1365,3558,0
-1441,1362,3558,0
-1441,1364,3558,0
-1442,1365,3562,0
-1444,1368,3561,0
-1445,1366,3561,0
-1447,1368,3564,0
-1452,1370,3566,0
-1452,1371,3563,0
-1452,1371,3562,0
-1454,1373,3562,0
-1456,1367,3562,0
-1457,1363,3562,0
-1454,1362,3562,0
-1453,1353,3558,0
-1450,1348,3555,0
-1451,1346,3555,0
-1448,1346,3555,0
-1447,1345,3556,0
-1446,1344,3557,0
-1446,1345,3558,0
-1451,1347,3556,0
-1452,1349,3559,0
-1453,1352,3558,0
-1458,1354,3557,0
-1466,1356,3557,0
-1468,1360,3555,0
-1474,1358,3557,0
-1476,1359,3555,0
-1477,1355,3553,0
-1475,1354,3555,0
-1470,1355,3558,0
-1465,1351,3559,0
-1462,1353,3559,0
-1458,1352,3558,0
-1455,1352,3557,0
-1451,1352,3557,0
-1448,1350,3559,0
-1449,1346,3557,0
-1446,1345,3557,0
-1448,1344,3556,0
-1450,1346,3556,0
-1449,1348,3556,0
-1449,1346,3555,0
-1448,1346,3557,0
-1450,1349,3558,0
-1447,1352,3557,0
-1450,1358,3557,0
-1452,1362,3557,0
-1453,1360,3558,0
-1456,1362,3557,0
-1459,1364,3558,0
-1462,1359,3558,0
-1462,1360,3558,0
-1464,1361,3559,0
-1465,1361,3560,0
-1462,1360,3560,0
-1461,1356,3560,0
-1463,1356,3559,0
-1460,1356,3558,0
-1458,1355,3560,0
-1454,1356,3556,0
-1448,1355,3554,0
-1447,1355,3555,0
-1443,1361,3553,0
-1443,1360,3556,0
-1441,1357,3559,0
-1443,1358,3562,0
-1446,1358,3562,0
-1447,1358,3558,0
-1450,1360,3558,0
-1449,1358,3557,0
-1451,1358,3555,0
-1454,1359,3556,0
-1452,1361,3556,0
-1454,1361,3554,0
-1452,1357,3559,0
-1454,1356,3560,0
-1452,1354,3559,0
-1450,1358,3558,0
-1448,1359,3556,0
-1447,1358,3555,0
-1449,1360,3558,0
-1447,1362,3560,0
-1448,1358,3558,0
-1449,1359,3558,0
-1450,1359,3558,0
-1450,1359,3557,0
-1453,1356,3559,0
-1455,1355,3560,0
-1451,1352,3558,0
-1451,1350,3558,0
-1451,1349,3556,0
-1454,1351,3556,0
-1456,1352,3559,0
-1453,1348,3559,0
-1454,1351,3554,0
-1454,1349,3556,0
-1456,1342,3559,0
-1453,1344,3560,0
-1452,1349,3557,0
-1452,1350,3555,0
-1454,1349,3555,0
-1451,1349,3555,0
-1452,1349,3554,0
-1453,1350,3556,0
-1453,1349,3556,0
-1452,1350,3554,0
-1457,1353,3553,0
-1456,1353,3555,0
-1458,1356,3555,0
-1461,1357,3557,0
-1460,1358,3555,0
-1463,1356,3559,0
-1463,1358,3562,0
-1467,1361,3560,0
-1466,1360,3562,0
-1466,1358,3559,0
-1466,1360,3555,0
-1464,1352,3559,0
-1464,1350,3558,0
-1463,1350,3560,0
-1459,1347,3560,0
-1454,1348,3560,0
-1455,1346,3558,0
-1456,1342,3556,0
-1457,1341,3559,0
-1457,1342,3559,0
-1455,1342,3557,0
-1458,1337,3555,0
-1457,1334,3556,0
-1458,1331,3557,0
-1453,1330,3556,0
-1451,1333,3557,0
-1452,1334,3559,0
-1446,1337,3553,0
-1446,1336,3555,0
-1440,1340,3550,0
-1439,1340,3548,0
-1441,1342,3546,0
-1445,1349,3549,0
-1452,1359,3549,0
-1462,1368,3552,0
-1467,1369,3555,0
-1472,1373,3555,0
-1478,1370,3554,0
-1480,1369,3557,0
-1484,1366,3555,0
-1486,1367,3558,0
-1485,1365,3557,0
-1479,1360,3558,0
-1472,1358,3559,0
-1469,1358,3559,0
-1462,1354,3559,0
-1458,1351,3561,0
-1450,1349,3566,0
-1444,1346,3576,0
-1445,1345,3579,0
-1441,1344,3579,0
-1441,1339,3581,0
-1441,1342,3579,0
-1440,1346,3578,0
-1440,1348,3577,0
-1438,1349,3572,0
-1441,1350,3571,0
-1446,1351,3569,0
-1449,1352,3566,0
-1452,1348,3561,0
-1458,1344,3562,0
-1461,1343,3558,0
-1462,1343,3555,0
-1466,1343,3552,0
-1466,1336,3547,0
-1466,1329,3550,0
-1466,1326,3547,0
-1465,1328,3548,0
-1463,1331,3546,0
-1463,1336,3550,0
-1469,1336,3549,0
-1473,1338,3549,0
-1476,1342,3545,0
-1482,1344,3545,0
-1482,1342,3548,0
-1485,1342,3554,0
-1486,1341,3552,0
-1485,1340,3553,0
-1479,1340,3556,0
-1478,1338,3558,0
-1476,1336,3559,0
-1470,1338,3560,0
-1463,1338,3562,0
-1459,1338,3565,0
-1454,1340,3563,0
-1451,1338,3561,0
-1454,1337,3561,0
-1457,1333,3563,0
-1458,1331,3560,0
-1463,1327,3560,0
-1463,1324,3559,0
-1463,1322,3559,0
-1462,1321,3560,0
-1460,1322,3559,0
-1462,1322,3556,0
-1458,1327,3557,0
-1456,1334,3554,0
-1451,1336,3551,0
-1448,1340,3551,0
-1443,1344,3554,0
-1442,1351,3553,0
-1442,1361,3556,0
-1444,1363,3557,0
-1447,1366,3559,0
-1449,1362,3560,0
-1453,1364,3554,0
-1454,1361,3552,0
-1457,1360,3553,0
-1455,1357,3557,0
-1461,1354,3556,0
-1460,1351,3557,0
-1461,1349,3557,0
-1461,1350,3561,0
-1460,1346,3563,0
-1461,1341,3562,0
-1459,1340,3566,0
-1460,1341,3564,0
-1458,1341,3568,0
-1457,1340,3569,0
-1458,1337,3568,0
-1456,1339,3563,0
-1455,1335,3567,0
-1459,1334,3566,0
-1459,1334,3564,0
-1461,1330,3563,0
-1463,1331,3564,0
-1461,1328,3564,0
-1463,1330,3564,0
-1463,1328,3561,0
-1465,1324,3563,0
-1465,1323,3560,0
-1466,1322,3561,0
-1467,1322,3557,0
-1469,1323,3559,0
-1470,1323,3556,0
-1471,1323,3557,0
-1471,1321,3561,0
-1471,1322,3561,0
-1470,1326,3563,0
-1469,1328,3561,0
-1469,1327,3558,0
-1472,1329,3560,0
-1474,1332,3559,0
-1472,1335,3562,0
-1472,1334,3562,0
-1473,1334,3561,0
-1474,1337,3560,0
-1473,1336,3562,0
-1471,1336,3560,0
-1467,1334,3559,0
-1467,1334,3559,0
-1466,1334,3559,0
-1466,1332,3560,0
-1462,1333,3559,0
-1460,1336,3558,0
-1458,1340,3558,0
-1455,1340,3555,0
-1454,1342,3557,0
-1455,1343,3555,0
-1456,1344,3554,0
-1459,1344,3556,0
-1463,1347,3558,0
-1468,1347,3557,0
-1467,1348,3557,0
-1468,1348,3558,0
-1465,1343,3556,0
-1465,1345,3557,0
-1468,1351,3558,0
-1464,1349,3557,0
-1459,1349,3557,0
-1455,1349,3558,0
-1453,1348,3559,0
-1454,1345,3560,0
-1456,1345,3560,0
-1453,1342,3557,0
-1453,1343,3559,0
-1456,1342,3560,0
-1457,1340,3557,0
-1460,1342,3556,0
-1461,1340,3555,0
-1461,1340,3553,0
-1463,1341,3556,0
-1460,1342,3556,0
-1460,1339,3558,0
-1460,1343,3557,0
-1460,1347,3557,0
-1458,1341,3556,0
-1458,1341,3556,0
-1460,1340,3557,0
-1462,1341,3559,0
-1462,1344,3558,0
-1465,1346,3558,0
-1467,1343,3558,0
-1466,1346,3557,0
-1469,1348,3557,0
-1470,1346,3555,0
-1468,1345,3555,0
-1470,1345,3555,0
-1469,1342,3555,0
-1469,1340,3556,0
-1468,1342,3553,0
-1469,1341,3555,0
-1468,1342,3552,0
-1469,1339,3555,0
-1469,1337,3555,0
-1470,1337,3555,0
-1469,1334,3559,0
-1467,1332,3557,0
-1469,1330,3559,0
-1470,1330,3562,0
-1471,1335,3556,0
-1470,1331,3557,0
-1474,1329,3558,0
-1472,1328,3557,0
-1473,1330,3553,0
-1474,1332,3554,0
-1476,1331,3557,0
-1475,1332,3558,0
-1473,1332,3561,0
-1470,1336,3562,0
-1472,1336,3562,0
-1476,1334,3557,0
-1473,1331,3558,0
-1475,1332,3556,0
-1476,1334,3558,0
-1474,1333,3558,0
-1476,1334,3557,0
-1473,1335,3557,0
-1471,1338,3558,0
-1471,1342,3561,0
-1473,1341,3561,0
-1471,1343,3560,0
-1468,1341,3560,0
-1466,1338,3563,0
-1464,1336,3559,0
-1467,1335,3556,0
-1463,1338,3558,0
-1459,1337,3561,0
-1457,1334,3561,0
-1460,1337,3560,0
-1458,1344,3561,0
-1456,1346,3560,0
-1460,1345,3560,0
-1462,1344,3562,0
-1462,1348,3559,0
-1464,1352,3561,0
-1464,1354,3562,0
-1464,1354,3560,0
-1461,1355,3567,0
-1463,1355,3576,0
-1465,1357,3576,0
-1468,1363,3575,0
-1466,1362,3573,0
-1467,1365,3571,0
-1468,1368,3568,0
-1468,1369,3567,0
-1467,1368,3567,0
-1468,1370,3570,0
-1469,1366,3571,0
-1471,1369,3576,0
-1470,1367,3580,0
-1469,1364,3584,0
-1454,1351,3575,0
-1452,1359,3574,0
-1451,1364,3584,0
-1452,1354,3590,0
-1453,1342,3580,0
-1454,1330,3565,0
-1452,1323,3557,0
-1449,1320,3554,0
-1444,1319,3549,0
-1432,1326,3540,0
-1419,1334,3534,0
-1411,1342,3533,0
-1402,1355,3536,0
-1398,1366,3537,0
-1398,1378,3537,0
-1397,1392,3541,0
-1394,1408,3549,0
-1400,1419,3555,0
-1404,1428,3558,0
-1405,1434,3560,0
-1408,1439,3557,0
-1411,1440,3556,0
-1416,1444,3553,0
-1423,1451,3555,0
-1434,1458,3560,0
-1445,1463,3563,0
-1456,1466,3563,0
-1465,1465,3559,0
-1465,1462,3551,0
-1461,1465,3550,0
-1451,1471,3550,0
-1432,1482,3544,0
-1409,1489,3547,0
-1383,1501,3544,0
-1357,1509,3546,0
-1333,1515,3548,0
-1317,1517,3550,0
-1307,1515,3544,0
-1302,1508,3545,0
-1304,1498,3539,0
-1306,1487,3541,0
-1311,1467,3549,0
-1317,1447,3562,0
-1325,1422,3570,0
-1342,1402,3570,0
-1357,1385,3564,0
-1369,1367,3555,0
-1382,1355,3542,0
-1385,1341,3543,0
-1391,1329,3538,0
-1398,1321,3540,0
-1404,1320,3538,0
-1406,1323,3537,0
-1403,1329,3537,0
-1399,1337,3537,0
-1391,1348,3541,0
-1384,1371,3545,0
-1373,1388,3548,0
-1361,1404,3555,0
-1349,1417,3564,0
-1335,1423,3565,0
-1321,1431,3559,0
-1312,1443,3552,0
-1310,1450,3552,0
-1295,1446,3538,0
-1290,1444,3530,0
-1289,1443,3531,0
-1289,1440,3529,0
-1293,1439,3527,0
-1311,1442,3528,0
-1323,1446,3523,0
-1335,1455,3522,0
-1349,1456,3518,0
-1358,1458,3518,0
-1357,1459,3517,0
-1364,1460,3519,0
-1368,1466,3520,0
-1372,1472,3522,0
-1375,1486,3520,0
-1383,1496,3513,0
-1384,1511,3509,0
-1388,1527,3510,0
-1397,1549,3503,0
-1419,1574,3487,0
-1448,1605,3476,0
-1473,1641,3467,0
-1498,1671,3463,0
-1524,1695,3458,0
-1554,1716,3453,0
-1577,1733,3462,0
-1594,1741,3464,0
-1616,1741,3465,0
-1626,1730,3467,0
-1630,1706,3479,0
-1633,1679,3488,0
-1638,1656,3496,0
-1652,1645,3482,0
-1676,1639,3447,0
-1702,1647,3440,0
-1728,1666,3468,0
-1746,1676,3516,0
-1759,1654,3564,0
-1766,1589,3579,0
-1778,1502,3590,0
-1780,1410,3609,0
-1791,1308,3642,0
-1807,1215,3671,0
-1824,1119,3671,0
-1828,1024,3652,0
-1811,951,3643,0
-1767,858,3615,0
-1691,757,3562,0
-1569,649,3533,0
-1423,550,3529,0
-1281,472,3528,0
-1167,421,3524,0
-1080,389,3511,0
-1042,388,3496,0
-1044,419,3476,0
-1091,478,3474,0
-1164,545,3486,0
-1262,613,3498,0
-1373,673,3499,0
-1480,717,3484,0
-1564,759,3471,0
-1623,798,3483,0
-1667,834,3481,0
-1696,881,3465,0
-1702,932,3462,0
-1699,991,3473,0
-1688,1048,3480,0
-1671,1113,3480,0
-1660,1183,3484,0
-1642,1249,3489,0
-1612,1303,3487,0
-1586,1360,3476,0
-1570,1429,3461,0
-1550,1485,3446,0
-1534,1534,3427,0
-1522,1586,3417,0
-1510,1628,3412,0
-1485,1645,3418,0
-1456,1647,3447,0
-1438,1637,3480,0
-1434,1632,3504,0
-1437,1618,3525,0
-1446,1599,3553,0
-1455,1568,3590,0
-1461,1521,3632,0
-1464,1461,3676,0
-1462,1375,3706,0
-1451,1273,3734,0
-1429,1167,3754,0
-1387,1038,3773,0
-1345,908,3785,0
-1298,766,3791,0
-1243,628,3801,0
-1202,503,3807,0
-1174,394,3812,0
-1162,291,3813,0
-1154,190,3807,0
-1161,92,3802,0
-1181,-15,3807,0
-1230,-120,3796,0
-1301,-220,3769,0
-1378,-311,3736,0
-1480,-387,3718,0
-1568,-470,3707,0
-1666,-548,3694,0
-1775,-604,3689,0
-1889,-614,3675,0
-1988,-587,3682,0
-2068,-527,3701,0
-2131,-436,3710,0
-2155,-360,3673,0
-2124,-316,3634,0
-2083,-233,3585,0
-2018,-152,3562,0
-1927,-83,3572,0
-1844,-1,3590,0
-1778,92,3606,0
-1734,187,3625,0
-1709,274,3638,0
-1695,336,3641,0
-1692,378,3642,0
-1682,395,3644,0
-1667,400,3656,0
-1643,374,3646,0
-1625,352,3609,0
-1598,308,3587,0
-1572,280,3570,0
-1523,221,3539,0
-1457,144,3512,0
-1403,83,3477,0
-1357,39,3435,0
-1321,4,3383,0
-1294,-16,3330,0
-1287,-14,3296,0
-1290,3,3274,0
-1297,44,3278,0
-1340,128,3283,0
-1406,222,3279,0
-1503,322,3273,0
-1612,421,3228,0
-1708,508,3199,0
-1781,575,3207,0
-1839,632,3226,0
-1878,681,3260,0
-1905,729,3347,0
-1910,774,3489,0
-1940,811,3561,0
-2021,818,3500,0
-2105,802,3404,0
-2158,753,3369,0
-2173,685,3374,0
-2188,600,3374,0
-2207,497,3366,0
-2232,395,3365,0
-2242,290,3355,0
-2215,171,3344,0
-2177,54,3317,0
-2139,-52,3282,0
-2096,-152,3251,0
-2066,-239,3239,0
-2043,-312,3224,0
-2028,-380,3228,0
-2025,-430,3239,0
-2026,-467,3247,0
-2036,-486,3257,0
-2042,-499,3278,0
-2055,-505,3296,0
-2079,-557,3311,0
-2137,-647,3284,0
-2217,-733,3257,0
-2308,-812,3237,0
-2391,-921,3257,0
-2459,-1034,3280,0
-2500,-1154,3322,0
-2533,-1256,3405,0
-2571,-1337,3469,0
-2612,-1441,3547,0
-2667,-1560,3610,0
-2738,-1683,3651,0
-2811,-1801,3671,0
-2868,-1927,3664,0
-2888,-2077,3676,0
-2893,-2194,3625,0
-2865,-2343,3573,0
-2811,-2527,3538,0
-2752,-2684,3513,0
-2710,-2787,3473,0
-2666,-2851,3435,0
-2628,-2884,3432,0
-2572,-2864,3455,0
-2501,-2799,3504,0
-2398,-2698,3523,0
-2250,-2610,3556,0
-2068,-2537,3601,0
-1876,-2497,3617,0
-1699,-2495,3593,0
-1517,-2534,3529,0
-1331,-2603,3457,0
-1152,-2686,3398,0
-992,-2759,3361,0
-862,-2808,3330,0
-761,-2826,3309,0
-672,-2827,3286,0
-594,-2817,3227,0
-513,-2791,3172,0
-411,-2757,3139,0
-292,-2700,3146,0
-196,-2578,3183,0
-121,-2452,3243,0
-70,-2349,3329,0
-49,-2270,3389,0
-49,-2192,3434,0
-52,-2160,3472,0
-39,-2185,3555,0
-48,-2219,3628,0
-96,-2235,3602,0
-165,-2231,3538,0
-224,-2212,3491,0
-257,-2216,3448,0
-265,-2240,3393,0
-262,-2276,3311,0
-236,-2338,3215,0
-206,-2384,3132,0
-178,-2425,3052,0
-148,-2448,2997,0
-100,-2457,2991,0
-50,-2460,3007,0
-6,-2461,3013,0
24,-2439,3009,0
54,-2404,3002,0
70,-2371,2976,0
75,-2342,2926,0
76,-2301,2874,0
72,-2238,2835,0
85,-2169,2829,0
115,-2097,2867,0
143,-2041,2882,0
181,-2021,2879,0
232,-2030,2871,0
299,-2078,2838,0
376,-2162,2780,0
449,-2265,2706,0
527,-2398,2632,0
603,-2517,2582,0
671,-2604,2560,0
719,-2650,2557,0
746,-2677,2568,0
755,-2683,2578,0
729,-2669,2599,0
696,-2621,2641,0
644,-2552,2658,0
608,-2503,2677,0
588,-2484,2735,0
600,-2484,2808,0
619,-2493,2881,0
633,-2524,2921,0
635,-2586,2939,0
628,-2671,2942,0
597,-2769,2943,0
554,-2875,2948,0
510,-2976,2977,0
477,-3086,2997,0
436,-3180,2969,0
420,-3272,2919,0
450,-3359,2856,0
508,-3439,2779,0
560,-3504,2728,0
622,-3558,2691,0
663,-3612,2638,0
683,-3683,2566,0
659,-3729,2516,0
630,-3786,2493,0
602,-3823,2479,0
568,-3830,2452,0
529,-3805,2420,0
488,-3739,2414,0
471,-3655,2433,0
471,-3557,2469,0
500,-3482,2459,0
552,-3434,2422,0
623,-3410,2396,0
692,-3392,2420,0
734,-3370,2453,0
743,-3351,2469,0
720,-3332,2464,0
671,-3303,2445,0
618,-3272,2432,0
583,-3243,2423,0
543,-3205,2440,0
499,-3162,2459,0
458,-3139,2454,0
422,-3121,2440,0
424,-3116,2439,0
456,-3127,2452,0
520,-3144,2457,0
610,-3173,2467,0
732,-3242,2424,0
837,-3309,2416,0
884,-3284,2438,0
910,-3254,2473,0
937,-3238,2500,0
943,-3214,2497,0
937,-3190,2536,0
921,-3200,2543,0
875,-3210,2509,0
822,-3198,2480,0
780,-3158,2484,0
755,-3093,2520,0
763,-3061,2573,0
803,-3074,2619,0
848,-3108,2640,0
918,-3169,2626,0
991,-3234,2592,0
1046,-3263,2574,0
1061,-3227,2573,0
1065,-3152,2587,0
1061,-3050,2621,0
1054,-2950,2644,0
1049,-2852,2674,0
1086,-2796,2700,0
1149,-2776,2712,0
1216,-2799,2684,0
1284,-2851,2628,0
1339,-2893,2596,0
1363,-2967,2546,0
1362,-3046,2527,0
1354,-3091,2531,0
1336,-3118,2513,0
1310,-3114,2484,0
1298,-3079,2446,0
1304,-3014,2427,0
1328,-2929,2438,0
1382,-2843,2464,0
1448,-2757,2501,0
1522,-2692,2519,0
1566,-2634,2530,0
1617,-2610,2584,0
1657,-2584,2638,0
1683,-2516,2619,0
1710,-2405,2545,0
1756,-2291,2477,0
1815,-2222,2471,0
1875,-2215,2518,0
1935,-2264,2570,0
1973,-2367,2550,0
1999,-2505,2481,0
1994,-2615,2408,0
1986,-2715,2327,0
1982,-2771,2261,0
1989,-2785,2211,0
1992,-2740,2202,0
2003,-2695,2209,0
2008,-2669,2224,0
2001,-2645,2250,0
1983,-2631,2287,0
1939,-2606,2318,0
1868,-2588,2320,0
1797,-2578,2332,0
1751,-2576,2386,0
1723,-2570,2416,0
1695,-2585,2398,0
1673,-2609,2326,0
1678,-2665,2233,0
1698,-2714,2164,0
1746,-2760,2148,0
1809,-2793,2169,0
1901,-2818,2202,0
2015,-2831,2193,0
2120,-2812,2153,0
2227,-2767,2101,0
2331,-2696,2052,0
2448,-2633,2018,0
2569,-2575,1974,0
2671,-2523,1936,0
2722,-2473,1920,0
2735,-2443,1905,0
2715,-2443,1845,0
2653,-2451,1766,0
2574,-2476,1685,0
2495,-2506,1636,0
2438,-2553,1622,0
2409,-2605,1628,0
2395,-2659,1627,0
2392,-2710,1617,0
2392,-2757,1604,0
2405,-2795,1590,0
2438,-2822,1584,0
2505,-2845,1601,0
2584,-2865,1594,0
2675,-2882,1579,0
2771,-2884,1546,0
2843,-2851,1496,0
2881,-2789,1444,0
2904,-2704,1404,0
2932,-2605,1393,0
2967,-2496,1409,0
3001,-2380,1423,0
3054,-2265,1441,0
3128,-2152,1475,0
3211,-2045,1497,0
3296,-1948,1490,0
3399,-1866,1487,0
3479,-1779,1511,0
3550,-1692,1548,0
3606,-1623,1568,0
3627,-1557,1569,0
3623,-1513,1540,0
3646,-1496,1516,0
3679,-1500,1505,0
3705,-1513,1479,0
3736,-1542,1459,0
3760,-1584,1435,0
3807,-1646,1446,0
3858,-1713,1428,0
3901,-1768,1391,0
3927,-1811,1365,0
3936,-1853,1370,0
3910,-1889,1379,0
3875,-1946,1362,0
3822,-2001,1347,0
3758,-2051,1358,0
3695,-2115,1374,0
3647,-2195,1384,0
3624,-2294,1382,0
3616,-2385,1380,0
3644,-2469,1367,0
3700,-2541,1349,0
3783,-2599,1338,0
3865,-2631,1347,0
3954,-2652,1360,0
4034,-2662,1380,0
4112,-2655,1416,0
4163,-2631,1450,0
4174,-2580,1457,0
4150,-2512,1459,0
4107,-2456,1433,0
4057,-2450,1386,0
4021,-2488,1364,0
3975,-2550,1341,0
3892,-2623,1264,0
3755,-2680,1183,0
3556,-2705,1071,0
3347,-2675,937,0
3142,-2613,826,0
2979,-2587,811,0
2883,-2583,883,0
2842,-2544,932,0
2823,-2452,909,0
2792,-2355,774,0
2725,-2210,506,0
2714,-2017,272,0
2881,-1817,289,0
3215,-1590,535,0
3705,-1336,938,0
4332,-1126,1345,0
4971,-1018,1540,0
5561,-980,1565,0
6072,-969,1503,0
6417,-1037,1293,0
6527,-1285,923,0
6355,-1627,526,0
5929,-1941,203,0
5449,-2121,114,0
5019,-2162,207,0
4673,-2097,385,0
4391,-1956,589,0
4135,-1794,740,0
3856,-1619,800,0
3581,-1482,814,0
3356,-1393,781,0
3191,-1371,744,0
3064,-1366,721,0
3058,-1434,714,0
3198,-1602,686,0
3451,-1799,583,0
3772,-1965,419,0
4103,-2039,261,0
4445,-2038,159,0
4777,-1985,115,0
5054,-1875,116,0
5254,-1758,106,0
5366,-1637,68,0
5410,-1572,31,0
5395,-1471,13,0
5309,-1382,31,0
5178,-1325,65,0
5007,-1267,128,0
4817,-1182,205,0
4648,-1089,278,0
4521,-1005,330,0
4439,-938,353,0
4383,-894,318,0
4350,-873,240,0
4372,-859,186,0
4458,-845,168,0
4604,-839,172,0
4746,-806,173,0
4845,-758,159,0
4914,-718,122,0
4930,-662,94,0
4905,-634,66,0
4834,-628,43,0
4718,-612,49,0
4574,-611,80,0
4412,-621,136,0
4247,-652,183,0
4084,-694,217,0
3926,-741,215,0
3786,-774,219,0
3695,-802,239,0
3649,-810,249,0
3656,-828,244,0
3699,-825,235,0
3772,-805,251,0
3867,-777,272,0
3953,-749,269,0
4027,-731,249,0
4093,-731,215,0
4151,-755,192,0
4202,-790,169,0
4242,-839,148,0
4258,-894,137,0
4273,-961,122,0
4288,-1024,111,0
4297,-1088,94,0
4299,-1146,70,0
4284,-1197,43,0
4250,-1245,27,0
4216,-1273,29,0
4177,-1276,32,0
4134,-1261,22,0
4107,-1242,29,0
4092,-1214,39,0
4085,-1192,38,0
4086,-1173,29,0
4069,-1151,16,0
4047,-1117,5,0
4029,-1092,-15,0
3999,-1057,-35,0
3977,-1026,-54,0
3966,-994,-52,0
3961,-958,-51,0
3968,-925,-70,0
3976,-903,-85,0
3991,-882,-102,0
4016,-877,-95,0
4042,-857,-74,0
4066,-821,-56,0
4085,-791,-64,0
4109,-769,-70,0
4126,-752,-81,0
4142,-736,-98,0
4155,-724,-105,0
4166,-712,-100,0
4161,-696,-110,0
4147,-691,-130,0
4133,-685,-151,0
4118,-679,-167,0
4100,-681,-186,0
4067,-681,-218,0
4022,-690,-257,0
3965,-696,-309,0
3899,-688,-375,0
3823,-658,-432,0
3737,-605,-492,0
3671,-523,-511,0
3627,-436,-478,0
3612,-362,-414,0
3628,-299,-310,0
3661,-263,-174,0
3692,-252,-53,0
3714,-274,64,0
3714,-332,159,0
3689,-433,209,0
3644,-574,226,0
3588,-762,227,0
3526,-988,232,0
3466,-1229,232,0
3413,-1451,232,0
3363,-1635,237,0
3319,-1770,231,0
3268,-1821,202,0
3215,-1793,153,0
3151,-1710,84,0
3092,-1563,9,0
3031,-1364,-59,0
2973,-1099,-111,0
2931,-802,-139,0
2901,-495,-139,0
2879,-191,-125,0
2857,93,-107,0
2848,350,-93,0
2840,575,-88,0
2845,769,-66,0
2865,915,-25,0
2889,1005,22,0
2896,1031,28,0
2905,968,13,0
2918,827,-13,0
2940,638,-49,0
2964,415,-95,0
2989,196,-145,0
3003,4,-204,0
3015,-157,-266,0
3034,-284,-312,0
3070,-369,-328,0
3116,-422,-321,0
3173,-437,-282,0
3235,-425,-227,0
3312,-394,-156,0
3391,-334,-77,0
3462,-248,-7,0
3532,-155,46,0
3588,-44,81,0
3645,79,113,0
3701,218,142,0
3748,350,164,0
3798,458,173,0
3842,514,157,0
3886,534,117,0
3919,534,46,0
3952,511,-44,0
3991,475,-116,0
4032,441,-150,0
4071,437,-148,0
4126,465,-114,0
4178,506,-84,0
4224,559,-49,0
4255,612,-26,0
4275,656,-12,0
4302,675,1,0
4311,678,14,0
4298,664,40,0
4277,629,74,0
4249,585,116,0
4207,531,168,0
4156,471,226,0
4096,410,284,0
4026,362,346,0
3947,320,413,0
3883,276,489,0
3825,238,565,0
3779,195,651,0
3750,140,741,0
3731,74,816,0
3723,6,872,0
3711,-71,909,0
3710,-158,932,0
3717,-245,944,0
3734,-327,952,0
3762,-397,964,0
3801,-458,973,0
3843,-500,957,0
3872,-523,918,0
3902,-533,870,0
3946,-530,825,0
4003,-511,798,0
4056,-476,772,0
4103,-432,729,0
4142,-379,680,0
4181,-331,641,0
4220,-287,607,0
4245,-254,582,0
4261,-230,557,0
4261,-213,541,0
4253,-201,531,0
4219,-192,538,0
4169,-182,541,0
4108,-162,532,0
4027,-145,525,0
3924,-133,520,0
3789,-116,488,0
3628,-91,421,0
3474,-73,380,0
3353,-51,414,0
3278,-38,479,0
3238,-51,549,0
3226,-72,630,0
3227,-90,705,0
3243,-96,756,0
3253,-101,754,0
3268,-110,713,0
3288,-114,683,0
3328,-107,683,0
3373,-88,698,0
3421,-52,718,0
3474,-8,748,0
3524,44,780,0
3575,107,808,0
3623,161,832,0
3649,208,833,0
3654,253,811,0
3641,297,776,0
3618,336,736,0
3573,360,682,0
3524,373,634,0
3457,382,575,0
3385,390,501,0
3326,383,435,0
3283,360,370,0
3250,317,300,0
3232,264,238,0
3227,225,193,0
3268,198,183,0
3350,163,202,0
3492,93,250,0
3665,17,289,0
3838,-57,274,0
3993,-116,200,0
4140,-162,77,0
4288,-214,-79,0
4442,-258,-229,0
4616,-299,-366,0
4803,-329,-478,0
4997,-351,-563,0
5205,-365,-609,0
5429,-358,-613,0
5653,-340,-589,0
5858,-318,-542,0
6023,-289,-484,0
6126,-250,-422,0
6147,-210,-364,0
6077,-169,-321,0
5911,-130,-284,0
5665,-109,-267,0
5366,-125,-245,0
5041,-170,-201,0
4710,-230,-132,0
4393,-292,-40,0
4090,-356,60,0
3804,-415,157,0
3549,-475,242,0
3318,-547,310,0
3119,-621,363,0
2938,-693,386,0
2795,-767,390,0
2694,-828,392,0
2639,-875,395,0
2632,-896,397,0
2677,-895,399,0
2771,-860,394,0
2902,-804,361,0
3064,-736,293,0
3249,-655,214,0
3442,-571,134,0
3653,-477,73,0
3864,-370,40,0
4061,-262,21,0
4254,-155,13,0
4446,-65,21,0
4613,10,24,0
4744,89,12,0
4834,147,-28,0
4884,185,-78,0
4902,194,-113,0
4896,188,-129,0
4850,174,-122,0
4762,158,-108,0
4644,137,-98,0
4510,108,-79,0
4369,90,-59,0
4225,85,-27,0
4078,83,-3,0
3939,83,8,0
3813,90,22,0
3714,94,46,0
3645,95,82,0
3601,95,107,0
3583,95,116,0
3596,91,121,0
3634,82,120,0
3702,79,111,0
3778,86,80,0
3858,104,43,0
3940,125,7,0
4031,141,-18,0
4124,159,-24,0
4215,179,-28,0
4286,193,-38,0
4340,205,-52,0
4378,208,-64,0
4404,202,-58,0
4420,186,-51,0
4422,159,-35,0
4408,126,-24,0
4377,85,-23,0
4338,45,-13,0
4288,7,-5,0
4228,-31,1,0
4165,-66,7,0
4105,-101,10,0
4045,-135,16,0
3986,-172,14,0
3933,-209,16,0
3888,-243,21,0
3856,-277,30,0
3840,-310,44,0
3838,-340,47,0
3836,-371,31,0
3842,-395,13,0
3865,-413,5,0
3903,-423,5,0
3955,-434,4,0
4017,-430,-3,0
4073,-418,-1,0
4126,-396,2,0
4172,-364,1,0
4206,-335,-8,0
4238,-311,-6,0
4268,-293,7,0
4293,-273,37,0
4299,-256,61,0
4286,-255,65,0
4261,-258,67,0
4221,-263,76,0
4176,-271,95,0
4139,-284,117,0
4119,-308,135,0
4095,-339,149,0
4072,-374,144,0
4045,-408,131,0
4025,-435,121,0
4017,-463,123,0
4026,-482,137,0
4038,-498,146,0
4052,-515,141,0
4063,-523,125,0
4067,-525,111,0
4068,-522,100,0
4074,-513,98,0
4084,-500,113,0
4087,-481,133,0
4079,-460,147,0
4062,-441,144,0
4038,-429,128,0
4024,-420,129,0
4012,-414,146,0
4001,-404,159,0
3998,-395,170,0
4004,-388,191,0
4013,-385,204,0
4026,-381,198,0
4032,-378,172,0
4032,-370,142,0
4033,-357,122,0
4041,-340,113,0
4056,-327,110,0
4069,-323,105,0
4084,-325,102,0
4093,-321,106,0
4103,-321,117,0
4108,-320,127,0
4108,-322,138,0
4104,-327,138,0
4089,-343,131,0
4064,-352,127,0
4040,-366,137,0
4022,-378,142,0
4004,-393,147,0
3988,-413,156,0
3977,-427,176,0
3969,-442,195,0
3956,-459,189,0
3937,-475,159,0
3924,-482,133,0
3931,-488,134,0
3953,-488,152,0
3979,-479,162,0
4001,-469,162,0
4022,-457,146,0
4037,-452,127,0
4053,-450,114,0
4064,-452,114,0
4071,-449,110,0
4074,-446,106,0
4072,-438,102,0
4063,-430,101,0
4053,-420,104,0
4041,-405,107,0
4029,-390,106,0
4017,-371,107,0
4009,-354,108,0
3995,-334,105,0
3988,-317,100,0
3982,-302,101,0
3986,-293,107,0
3993,-276,112,0
4002,-264,108,0
4017,-256,108,0
4034,-254,111,0
4055,-246,113,0
4075,-240,109,0
4087,-238,100,0
4098,-233,86,0
4110,-233,82,0
4125,-230,78,0
4138,-233,76,0
4150,-238,72,0
4159,-241,72,0
4163,-246,83,0
4158,-252,90,0
4154,-265,103,0
4146,-279,119,0
4133,-295,128,0
4117,-314,132,0
4091,-325,134,0
4062,-325,137,0
4039,-318,143,0
4016,-316,157,0
4000,-312,167,0
3989,-310,174,0
3976,-310,176,0
3967,-310,174,0
3960,-308,177,0
3958,-310,178,0
3961,-311,182,0
3970,-313,187,0
3972,-314,189,0
3970,-313,186,0
3974,-313,181,0
3978,-310,173,0
3976,-307,167,0
3981,-304,164,0
3984,-297,162,0
3993,-295,164,0
4003,-291,166,0
4017,-285,166,0
4030,-277,164,0
4037,-272,168,0
4048,-265,166,0
4055,-264,163,0
4064,-264,164,0
4068,-264,159,0
4073,-264,153,0
4075,-263,149,0
4080,-265,146,0
4087,-265,144,0
4094,-261,144,0
4094,-257,149,0
4097,-253,154,0
4099,-247,168,0
4106,-248,191,0
4116,-244,210,0
4116,-240,228,0
4112,-247,236,0
4106,-250,236,0
4096,-253,235,0
4083,-253,237,0
4068,-255,235,0
4057,-262,232,0
4051,-266,233,0
4047,-271,231,0
4043,-276,232,0
4048,-284,229,0
4057,-290,222,0
4067,-292,214,0
4079,-293,204,0
4090,-295,201,0
4099,-297,195,0
4108,-297,190,0
4117,-296,182,0
4124,-291,175,0
4127,-289,165,0
4129,-285,155,0
4132,-279,147,0
4131,-275,137,0
4131,-272,127,0
4130,-269,124,0
4132,-267,120,0
4132,-266,120,0
4134,-265,118,0
4136,-262,110,0
4134,-257,107,0
4134,-253,102,0
4136,-246,102,0
4131,-240,99,0
4122,-237,99,0
4120,-225,105,0
4110,-219,107,0
4105,-210,108,0
4103,-203,114,0
4099,-199,118,0
4090,-195,123,0
4084,-194,125,0
4084,-194,126,0
4082,-190,124,0
4089,-191,134,0
4095,-189,149,0
4100,-186,157,0
4104,-186,155,0
4102,-190,134,0
4093,-197,99,0
4073,-212,59,0
4062,-230,33,0
4067,-235,33,0
4071,-231,53,0
4083,-227,79,0
4086,-227,94,0
4080,-232,93,0
4075,-243,83,0
4067,-250,76,0
4062,-257,71,0
4062,-260,72,0
4069,-261,73,0
4071,-262,74,0
4073,-263,70,0
4074,-261,60,0
4074,-265,50,0
4075,-272,41,0
4075,-273,36,0
4073,-272,31,0
4072,-272,31,0
4072,-270,34,0
4074,-270,35,0
4072,-274,32,0
4069,-277,32,0
4060,-281,25,0
4063,-288,18,0
4060,-290,18,0
4063,-299,17,0
4068,-306,15,0
4069,-312,14,0
4070,-317,17,0
4072,-322,19,0
4077,-324,28,0
4077,-328,43,0
4074,-337,54,0
4072,-347,61,0
4071,-357,71,0
4071,-363,84,0
4067,-366,99,0
4065,-368,114,0
4055,-366,125,0
4049,-362,132,0
4042,-356,136,0
4039,-345,136,0
4032,-335,136,0
4032,-322,134,0
4034,-312,131,0
4034,-305,120,0
4034,-299,110,0
4038,-297,103,0
4041,-297,92,0
4045,-302,90,0
4049,-309,80,0
4051,-324,72,0
4051,-339,67,0
4055,-351,60,0
4060,-363,57,0
4063,-369,53,0
4067,-374,52,0
4071,-371,53,0
4073,-367,55,0
4077,-360,57,0
4077,-352,58,0
4086,-342,62,0
4089,-335,63,0
4094,-329,63,0
4097,-325,68,0
4099,-322,69,0
4099,-320,70,0
4098,-320,72,0
4092,-321,72,0
4079,-321,69,0
4067,-324,69,0
4055,-326,70,0
4047,-330,71,0
4041,-337,75,0
4031,-336,80,0
4031,-337,88,0
4030,-337,94,0
4033,-334,91,0
4041,-334,90,0
4048,-334,92,0
4059,-328,93,0
4072,-325,95,0
4085,-317,94,0
4093,-312,89,0
4097,-308,84,0
4098,-301,84,0
4099,-292,78,0
4100,-285,76,0
4098,-280,74,0
4092,-278,73,0
4084,-274,72,0
4077,-276,80,0
4072,-279,88,0
4065,-280,97,0
4060,-277,105,0
4053,-277,118,0
4045,-275,128,0
4034,-274,130,0
4021,-278,136,0
4007,-276,136,0
3995,-280,137,0
3980,-286,137,0
3966,-297,131,0
3955,-303,127,0
3950,-312,124,0
3947,-327,122,0
3947,-342,117,0
3948,-356,112,0
3960,-370,102,0
3971,-386,92,0
3987,-404,83,0
4010,-422,76,0
4037,-430,67,0
4065,-440,63,0
4088,-440,61,0
4118,-441,60,0
4141,-429,63,0
4170,-407,66,0
4189,-386,66,0
4199,-364,74,0
4200,-341,78,0
4192,-318,79,0
4183,-296,81,0
4163,-276,82,0
4142,-258,83,0
4122,-249,86,0
4110,-234,90,0
4094,-226,95,0
4079,-220,98,0
4067,-214,104,0
4059,-212,103,0
4052,-210,109,0
4050,-212,103,0
4057,-214,103,0
4065,-218,101,0
4072,-225,104,0
4085,-231,105,0
4093,-239,107,0
4097,-245,104,0
4101,-247,102,0
4101,-247,103,0
4102,-249,102,0
4101,-246,99,0
4101,-240,101,0
4100,-239,99,0
4096,-232,102,0
4083,-237,99,0
4073,-241,98,0
4062,-254,102,0
4052,-258,108,0
4043,-271,113,0
4038,-282,117,0
4033,-286,122,0
4032,-299,122,0
4033,-305,119,0
4034,-311,115,0
4034,-320,112,0
4043,-325,105,0
4054,-331,98,0
4065,-336,95,0
4072,-341,95,0
4081,-346,93,0
4089,-340,89,0
4091,-341,87,0
4091,-338,89,0
4086,-337,94,0
4079,-333,96,0
4076,-336,98,0
4069,-339,101,0
4060,-339,101,0
4053,-345,101,0
4047,-345,96,0
4050,-341,98,0
4049,-340,93,0
4051,-340,85,0
4061,-335,80,0
4071,-327,74,0
4077,-321,71,0
4088,-318,69,0
4094,-309,65,0
4097,-304,65,0
4098,-302,66,0
4096,-304,68,0
4086,-311,69,0
4073,-316,75,0
4059,-325,75,0
4047,-334,71,0
4039,-342,72,0
4029,-342,69,0
4020,-339,71,0
4017,-338,70,0
4020,-332,69,0
4032,-326,67,0
4042,-315,69,0
4056,-305,65,0
4066,-294,61,0
4083,-283,66,0
4091,-281,67,0
4096,-283,68,0
4098,-285,69,0
4095,-298,72,0
4092,-311,74,0
4087,-320,81,0
4082,-325,89,0
4077,-333,96,0
4072,-338,98,0
4062,-347,96,0
4054,-350,86,0
4049,-352,76,0
4046,-348,70,0
4046,-341,64,0
4058,-336,62,0
4066,-331,60,0
4073,-325,56,0
4075,-323,61,0
4082,-323,67,0
4083,-327,66,0
4081,-330,66,0
4080,-335,66,0
4082,-337,68,0
4082,-339,73,0
4083,-336,77,0
4082,-331,80,0
4084,-327,83,0
4088,-323,83,0
4088,-316,85,0
4090,-308,86,0
4095,-304,84,0
4095,-303,87,0
4095,-302,88,0
4094,-301,91,0
4095,-306,94,0
4088,-309,97,0
4080,-312,94,0
4067,-319,92,0
4058,-320,90,0
4048,-321,94,0
4042,-324,93,0
4032,-323,94,0
4031,-324,92,0
4027,-328,90,0
4027,-330,84,0
4030,-326,79,0
4040,-327,72,0
4052,-327,67,0
4064,-322,58,0
4071,-316,53,0
4078,-311,48,0
4088,-303,43,0
4093,-299,40,0
4093,-297,44,0
4092,-292,41,0
4089,-292,42,0
4082,-291,43,0
4076,-290,49,0
4070,-291,55,0
4065,-293,61,0
4056,-296,64,0
4050,-305,64,0
4048,-307,67,0
4042,-309,69,0
4042,-313,72,0
4042,-313,73,0
4044,-315,70,0
4048,-312,68,0
4054,-305,68,0
4057,-303,66,0
4060,-299,64,0
4065,-296,63,0
4067,-295,62,0
4065,-296,57,0
4068,-295,58,0
4071,-294,60,0
4072,-296,59,0
4072,-295,56,0
4074,-295,54,0
4075,-298,60,0
4077,-301,63,0
4085,-295,62,0
4082,-296,66,0
4079,-297,67,0
4079,-298,70,0
4075,-300,73,0
4071,-302,77,0
4069,-300,77,0
4059,-300,80,0
4052,-304,80,0
4049,-309,77,0
4049,-306,72,0
4049,-308,73,0
4054,-313,74,0
4058,-313,71,0
4065,-315,73,0
4077,-316,72,0
4086,-319,71,0
4093,-319,73,0
4096,-322,72,0
4098,-320,72,0
4096,-317,69,0
4095,-314,72,0
4086,-311,73,0
4081,-308,74,0
4073,-304,76,0
4069,-299,77,0
4059,-296,81,0
4057,-295,80,0
4052,-296,84,0
4049,-295,83,0
4047,-303,82,0
4045,-307,81,0
4048,-311,81,0
4054,-322,81,0
4059,-324,85,0
4067,-329,90,0
4075,-331,92,0
4074,-330,94,0
4078,-327,93,0
4079,-317,95,0
4082,-313,98,0
4083,-310,100,0
4086,-306,103,0
4088,-302,101,0
4089,-298,101,0
4086,-298,100,0
4084,-303,94,0
4078,-309,90,0
4076,-311,88,0
4076,-311,87,0
4076,-309,86,0
4072,-309,82,0
4068,-305,85,0
4064,-302,85,0
4066,-297,93,0
4066,-292,102,0
4070,-289,107,0
4071,-283,113,0
4071,-282,112,0
4073,-281,109,0
4072,-284,104,0
4074,-291,100,0
4070,-299,96,0
4069,-308,86,0
4069,-315,85,0
4066,-317,83,0
4067,-316,83,0
4061,-312,85,0
4061,-305,88,0
4066,-301,94,0
4066,-292,94,0
4071,-284,100,0
4076,-280,111,0
4081,-279,118,0
4085,-280,121,0
4088,-282,123,0
4090,-281,123,0
4092,-284,131,0
4094,-281,141,0
4092,-285,145,0
4086,-283,144,0
4081,-288,140,0
4078,-293,134,0
4078,-294,127,0
4077,-292,125,0
4078,-285,118,0
4082,-285,119,0
4084,-283,121,0
4084,-278,124,0
4079,-279,125,0
4074,-284,124,0
4067,-287,123,0
4056,-295,122,0
4044,-300,120,0
4034,-304,119,0
4031,-307,113,0
4033,-310,110,0
4038,-313,111,0
4048,-308,115,0
4061,-297,120,0
4073,-286,121,0
4084,-281,123,0
4090,-274,123,0
4094,-265,120,0
4094,-260,117,0
4095,-259,121,0
4097,-258,127,0
4095,-264,126,0
4096,-273,125,0
4090,-278,125,0
4086,-285,131,0
4093,-293,139,0
4097,-300,151,0
4099,-305,156,0
4100,-302,154,0
4099,-303,142,0
4087,-303,125,0
4077,-310,110,0
4066,-319,97,0
4053,-326,88,0
4046,-330,94,0
4043,-331,113,0
4042,-339,133,0
4043,-340,144,0
4043,-345,149,0
4034,-351,147,0
4026,-357,133,0
4019,-364,121,0
4018,-368,115,0
4019,-375,120,0
4027,-376,122,0
4032,-381,124,0
4036,-387,124,0
4042,-396,122,0
4049,-405,122,0
4059,-411,130,0
4072,-418,135,0
4086,-426,139,0
4093,-426,140,0
4097,-425,137,0
4098,-422,133,0
4098,-421,128,0
4088,-420,118,0
4076,-415,114,0
4060,-411,115,0
4043,-405,116,0
4029,-400,115,0
4015,-397,121,0
4007,-395,124,0
4003,-393,124,0
4005,-393,127,0
4007,-393,129,0
4012,-386,130,0
4020,-380,132,0
4032,-382,138,0
4043,-377,139,0
4055,-372,136,0
4067,-368,133,0
4071,-363,134,0
4075,-360,133,0
4079,-352,130,0
4081,-356,126,0
4078,-355,126,0
4077,-355,127,0
4077,-356,124,0
4075,-356,124,0
4075,-349,124,0
4073,-349,123,0
4070,-347,125,0
4069,-353,127,0
4071,-356,134,0
4073,-360,136,0
4075,-362,139,0
4075,-368,148,0
4076,-368,154,0
4072,-363,155,0
4062,-351,148,0
4049,-347,138,0
4035,-340,128,0
4025,-337,113,0
4022,-334,110,0
4020,-325,119,0
4024,-315,127,0
4029,-302,129,0
4034,-302,128,0
4040,-301,129,0
4050,-309,127,0
4064,-311,125,0
4073,-315,124,0
4082,-318,121,0
4087,-322,118,0
4087,-324,118,0
4092,-323,121,0
4092,-324,125,0
4087,-323,128,0
4081,-328,126,0
4072,-328,126,0
4063,-324,125,0
4056,-323,128,0
4049,-321,129,0
4046,-320,128,0
4044,-319,128,0
4041,-315,127,0
4040,-316,125,0
4041,-316,121,0
4042,-316,122,0
4051,-310,124,0
4057,-309,119,0
4056,-305,115,0
4057,-300,109,0
4058,-294,110,0
4051,-290,113,0
4048,-288,110,0
4052,-286,112,0
4054,-284,122,0
4062,-290,127,0
4071,-293,128,0
4073,-294,125,0
4068,-296,111,0
4063,-298,102,0
4069,-305,105,0
4085,-311,130,0
4104,-301,165,0
4110,-290,173,0
4105,-297,147,0
4102,-306,124,0
4097,-305,120,0
4090,-306,124,0
4089,-309,127,0
4088,-324,128,0
4091,-340,130,0
4095,-353,134,0
4095,-369,139,0
4088,-381,144,0
4082,-399,147,0
4063,-413,154,0
4044,-419,148,0
4010,-424,138,0
3980,-426,134,0
3958,-429,132,0
3944,-429,143,0
3943,-417,149,0
3951,-398,143,0
3956,-377,128,0
3966,-354,105,0
3988,-341,86,0
4021,-332,77,0
4055,-322,75,0
4085,-316,76,0
4127,-312,76,0
4157,-306,78,0
4180,-304,72,0
4192,-292,65,0
4193,-281,57,0
4185,-259,52,0
4170,-240,50,0
4146,-222,51,0
4124,-202,55,0
4110,-187,62,0
4092,-177,64,0
4072,-167,71,0
4060,-163,71,0
4044,-159,73,0
4036,-161,75,0
4030,-166,80,0
4025,-175,77,0
4031,-184,77,0
4035,-191,77,0
4038,-199,78,0
4041,-212,69,0
4042,-224,57,0
4044,-237,48,0
4050,-248,45,0
4055,-258,49,0
4065,-262,52,0
4072,-266,56,0
4077,-274,59,0
4083,-285,51,0
4087,-296,46,0
4093,-304,53,0
4096,-309,63,0
4098,-320,71,0
4100,-334,74,0
4100,-345,79,0
4100,-356,82,0
4099,-371,82,0
4092,-379,82,0
4083,-382,84,0
4072,-385,90,0
4062,-383,95,0
4057,-380,101,0
4049,-372,111,0
4048,-365,118,0
4041,-359,125,0
4040,-350,131,0
4038,-343,130,0
4038,-337,128,0
4041,-338,120,0
4045,-336,117,0
4057,-336,116,0
4066,-336,111,0
4075,-331,113,0
4081,-327,112,0
4091,-322,108,0
4094,-322,103,0
4096,-321,94,0
4086,-314,85,0
4074,-310,75,0
4066,-306,74,0
4063,-303,82,0
4063,-295,91,0
4056,-284,89,0
4051,-284,85,0
4046,-282,78,0
4045,-280,80,0
4043,-275,78,0
4042,-265,71,0
4042,-255,66,0
4048,-248,63,0
4051,-239,61,0
4062,-233,63,0
4072,-227,66,0
4083,-222,59,0
4088,-219,56,0
4094,-218,55,0
4097,-215,50,0
4099,-211,46,0
4099,-213,42,0
4101,-217,40,0
4099,-220,38,0
4092,-225,38,0
4084,-229,40,0
4081,-234,52,0
4084,-234,60,0
4080,-237,68,0
4076,-240,70,0
4075,-239,73,0
4066,-237,66,0
4062,-238,58,0
4056,-238,53,0
4055,-238,51,0
4052,-236,55,0
4052,-232,55,0
4057,-230,58,0
4061,-235,56,0
4061,-240,51,0
4065,-246,52,0
4065,-250,51,0
4072,-256,50,0
4074,-259,52,0
4075,-267,52,0
4073,-275,48,0
4073,-278,44,0
4072,-284,40,0
4074,-290,47,0
4079,-292,58,0
4087,-289,68,0
4086,-290,67,0
4082,-287,56,0
4080,-286,53,0
4085,-286,53,0
4091,-278,59,0
4094,-271,68,0
4097,-262,75,0
4097,-256,72,0
4096,-252,68,0
4087,-246,71,0
4081,-241,70,0
4075,-231,74,0
4069,-231,77,0
4069,-229,74,0
4065,-227,73,0
4061,-225,82,0
4056,-225,88,0
4058,-231,91,0
4064,-233,96,0
4068,-238,96,0
4069,-244,90,0
4071,-251,84,0
4072,-251,84,0
4078,-251,87,0
4074,-249,90,0
4074,-245,91,0
4070,-247,92,0
4068,-248,92,0
4058,-251,95,0
4053,-252,97,0
4051,-255,96,0
4050,-262,106,0
4054,-264,117,0
4058,-268,125,0
4065,-271,127,0
4072,-275,122,0
4078,-276,111,0
4081,-273,102,0
4086,-273,91,0
4089,-269,75,0
4093,-266,65,0
4096,-258,63,0
4099,-253,66,0
4100,-246,75,0
4100,-245,80,0
4097,-249,81,0
4090,-256,84,0
4081,-267,86,0
4071,-273,91,0
4059,-281,91,0
4051,-287,95,0
4048,-288,99,0
4049,-288,106,0
4052,-285,108,0
4051,-278,107,0
4050,-276,97,0
4056,-275,87,0
4063,-271,83,0
4075,-271,88,0
4079,-267,94,0
4088,-266,94,0
4088,-269,93,0
4090,-267,89,0
4085,-270,94,0
4083,-266,100,0
4076,-258,106,0
4064,-257,104,0
4052,-257,101,0
4048,-251,100,0
4047,-244,98,0
4045,-235,90,0
4047,-228,88,0
4053,-225,82,0
4066,-219,81,0
4078,-213,76,0
4085,-210,67,0
4090,-205,59,0
4094,-201,56,0
4096,-197,52,0
4094,-189,51,0
4097,-189,54,0
4096,-187,57,0
4094,-188,65,0
4091,-185,68,0
4089,-183,76,0
4087,-186,76,0
4087,-187,81,0
4083,-189,82,0
4077,-190,81,0
4067,-193,82,0
4058,-194,80,0
4055,-195,80,0
4050,-193,82,0
4046,-195,86,0
4042,-201,88,0
4042,-203,89,0
4038,-207,86,0
4038,-207,85,0
4042,-213,82,0
4043,-219,82,0
4051,-222,80,0
4060,-225,79,0
4074,-229,81,0
4085,-227,82,0
4093,-233,81,0
4097,-239,81,0
4100,-240,74,0
4100,-244,72,0
4100,-244,68,0
4100,-249,68,0
4100,-251,73,0
4098,-246,76,0
4093,-243,82,0
4087,-240,93,0
4088,-234,104,0
4079,-233,106,0
4073,-233,102,0
4069,-232,98,0
4065,-234,96,0
4065,-239,95,0
4068,-241,93,0
4069,-241,90,0
4077,-243,92,0
4088,-247,98,0
4090,-248,100,0
4088,-247,98,0
4094,-248,96,0
4092,-254,96,0
4089,-251,102,0
4086,-249,105,0
4084,-246,104,0
4082,-246,107,0
4080,-248,105,0
4072,-246,103,0
4066,-250,100,0
4068,-247,103,0
4061,-246,100,0
4057,-244,99,0
4050,-239,97,0
4044,-235,91,0
4039,-233,87,0
4032,-234,91,0
4034,-234,95,0
4037,-232,102,0
4039,-229,104,0
4043,-230,104,0
4046,-227,97,0
4056,-227,97,0
4068,-225,100,0
4081,-223,103,0
4091,-223,106,0
4103,-220,111,0
4109,-218,114,0
4108,-217,109,0
4104,-219,102,0
4092,-223,92,0
4083,-229,86,0
4068,-233,82,0
4057,-234,83,0
4052,-230,93,0
4046,-227,101,0
4046,-228,108,0
4044,-225,106,0
4046,-226,103,0
4052,-222,92,0
4055,-216,85,0
4060,-207,81,0
4064,-200,79,0
4066,-198,78,0
4073,-193,79,0
4078,-194,82,0
4086,-196,85,0
4092,-205,91,0
4096,-214,90,0
4098,-227,90,0
4099,-235,88,0
4100,-244,85,0
4104,-251,85,0
4106,-247,89,0
4105,-243,90,0
4108,-236,94,0
4107,-233,94,0
4103,-227,92,0
4101,-222,98,0
4094,-216,104,0
4081,-212,113,0
4064,-208,116,0
4047,-217,115,0
4032,-225,117,0
4021,-233,121,0
4017,-234,138,0
4020,-233,151,0
4019,-235,154,0
4017,-239,141,0
4016,-245,124,0
4023,-248,111,0
4034,-251,102,0
4051,-251,91,0
4067,-248,88,0
4084,-249,84,0
4094,-248,81,0
4102,-247,81,0
4111,-250,74,0
4110,-254,76,0
4106,-258,75,0
4102,-260,76,0
4097,-261,78,0
4087,-261,81,0
4077,-258,89,0
4067,-254,98,0
4059,-243,102,0
4054,-239,106,0
4052,-235,109,0
4053,-229,109,0
4059,-230,108,0
4069,-233,111,0
4073,-239,112,0
4076,-237,112,0
4077,-239,106,0
4069,-244,101,0
4067,-251,100,0
4066,-255,102,0
4063,-262,107,0
4063,-267,113,0
4064,-271,121,0
4060,-273,120,0
4065,-280,118,0
4064,-288,111,0
4068,-296,110,0
4071,-302,106,0
4071,-303,105,0
4075,-304,100,0
4080,-304,98,0
4089,-303,97,0
4086,-296,98,0
4087,-296,99,0
4083,-292,97,0
4080,-290,100,0
4078,-289,100,0
4075,-288,104,0
4068,-287,106,0
4068,-285,109,0
4066,-286,107,0
4061,-286,108,0
4062,-290,104,0
4066,-290,101,0
4068,-285,100,0
4069,-284,101,0
4071,-275,101,0
4075,-268,99,0
4075,-264,100,0
4075,-262,99,0
4069,-261,100,0
4066,-258,102,0
4063,-257,99,0
4064,-257,109,0
4067,-259,115,0
4071,-257,119,0
4075,-256,119,0
4078,-256,119,0
4078,-255,114,0
4075,-252,104,0
4074,-250,97,0
4075,-250,93,0
4077,-251,95,0
4078,-246,96,0
4082,-248,98,0
4079,-247,97,0
4082,-246,104,0
4077,-242,106,0
4073,-247,112,0
4075,-248,117,0
4075,-256,117,0
4076,-255,116,0
4077,-260,118,0
4077,-260,120,0
4084,-264,122,0
4089,-263,125,0
4094,-265,125,0
4095,-271,120,0
4090,-271,107,0
4081,-273,96,0
4075,-274,90,0
4062,-270,90,0
4057,-265,91,0
4052,-265,97,0
4045,-263,99,0
4041,-265,110,0
4040,-268,111,0
4040,-270,113,0
4044,-271,115,0
4050,-272,114,0
4059,-269,118,0
4068,-266,126,0
4083,-269,130,0
4091,-269,126,0
4096,-270,115,0
4097,-272,104,0
4093,-271,95,0
4087,-270,93,0
4083,-260,97,0
4080,-253,98,0
4076,-247,101,0
4073,-247,104,0
4068,-249,103,0
4064,-248,108,0
4061,-248,119,0
4060,-246,129,0
4063,-247,138,0
4063,-254,141,0
4058,-265,138,0
4058,-272,135,0
4060,-276,132,0
4060,-276,135,0
4066,-273,135,0
4069,-271,136,0
4072,-270,130,0
4073,-270,127,0
4074,-271,123,0
4075,-275,121,0
4075,-279,120,0
4073,-281,116,0
4077,-289,118,0
4081,-292,117,0
4085,-299,118,0
4091,-298,119,0
4094,-301,120,0
4095,-301,118,0
4093,-299,117,0
4092,-290,117,0
4085,-288,116,0
4080,-275,119,0
4075,-264,120,0
4070,-255,121,0
4059,-251,121,0
4056,-248,128,0
4061,-249,137,0
4060,-251,147,0
4062,-261,154,0
4063,-269,155,0
4068,-278,154,0
4070,-287,158,0
4074,-292,158,0
4070,-296,158,0
4071,-296,153,0
4065,-299,146,0
4062,-301,144,0
4059,-302,137,0
4055,-304,126,0
4054,-303,114,0
4047,-306,104,0
4044,-308,98,0
4041,-309,96,0
4044,-303,100,0
4048,-303,107,0
4051,-305,108,0
4052,-311,107,0
4059,-313,110,0
4067,-315,118,0
4076,-319,126,0
4077,-320,122,0
4087,-320,121,0
4092,-322,123,0
4096,-318,129,0
4098,-315,133,0
4100,-310,137,0
4100,-310,141,0
4100,-310,142,0
4096,-305,135,0
4088,-300,128,0
4081,-292,125,0
4074,-289,124,0
4065,-285,126,0
4060,-283,127,0
4054,-279,127,0
4050,-276,127,0
4052,-277,131,0
4052,-279,127,0
4048,-282,129,0
4050,-286,129,0
4052,-290,130,0
4056,-291,129,0
4063,-296,128,0
4070,-291,134,0
4073,-283,139,0
4077,-284,142,0
4078,-287,133,0
4074,-293,127,0
4067,-296,128,0
4063,-297,131,0
4063,-296,138,0
4062,-302,137,0
4063,-306,139,0
4065,-310,143,0
4064,-317,148,0
4068,-323,146,0
4070,-329,144,0
4068,-325,145,0
4067,-321,147,0
4064,-313,142,0
4060,-309,139,0
4053,-304,135,0
4047,-304,134,0
4047,-305,132,0
4049,-299,129,0
4050,-296,129,0
4047,-293,124,0
4052,-302,127,0
4053,-303,126,0
4053,-307,124,0
4061,-312,127,0
4063,-315,126,0
4072,-317,130,0
4074,-319,139,0
4080,-321,149,0
4080,-325,155,0
4081,-328,147,0
4076,-330,138,0
4067,-333,133,0
4060,-327,134,0
4057,-322,135,0
4057,-317,140,0
4057,-313,141,0
4059,-308,143,0
4057,-309,143,0
4059,-305,138,0
4061,-305,136,0
4065,-304,139,0
4069,-303,139,0
4071,-301,140,0
4072,-305,139,0
4071,-306,136,0
4072,-309,140,0
4071,-313,140,0
4067,-317,140,0
4063,-321,142,0
4064,-321,141,0
4063,-326,141,0
4056,-326,147,0
4053,-329,142,0
4051,-334,139,0
4055,-334,139,0
4055,-336,136,0
4053,-339,139,0
4057,-337,139,0
4062,-336,135,0
4068,-333,128,0
4074,-334,125,0
4076,-332,122,0
4088,-332,120,0
4095,-329,119,0
4102,-326,118,0
4105,-324,118,0
4111,-316,119,0
4112,-311,120,0
4108,-306,125,0
4104,-303,133,0
4103,-296,135,0
4094,-290,138,0
4078,-289,141,0
4057,-285,141,0
4035,-281,146,0
4018,-280,149,0
4002,-281,153,0
3997,-283,151,0
3993,-284,156,0
3994,-290,151,0
4001,-294,148,0
4015,-292,143,0
4030,-294,139,0
4044,-294,138,0
4062,-287,140,0
4081,-280,137,0
4092,-277,132,0
4098,-271,125,0
4101,-266,116,0
4102,-267,110,0
4102,-267,111,0
4101,-268,112,0
4095,-270,111,0
4087,-274,114,0
4076,-280,119,0
4061,-291,120,0
4048,-299,118,0
4031,-310,120,0
4024,-314,121,0
4017,-320,125,0
4014,-321,125,0
4013,-324,124,0
4011,-321,125,0
4014,-324,126,0
4018,-324,134,0
4028,-328,137,0
4036,-337,137,0
4038,-344,135,0
4045,-349,140,0
4055,-351,144,0
4063,-358,149,0
4066,-361,143,0
4065,-363,136,0
4067,-360,133,0
4063,-353,129,0
4067,-342,120,0
4071,-330,119,0
4072,-317,113,0
4076,-298,111,0
4085,-284,108,0
4092,-266,107,0
4096,-255,108,0
4098,-243,114,0
4099,-241,112,0
4099,-240,106,0
4099,-236,103,0
4094,-235,106,0
4094,-235,110,0
4092,-234,118,0
4092,-234,121,0
4092,-235,121,0
4089,-238,123,0
4081,-237,125,0
4075,-243,126,0
4075,-251,128,0
4072,-259,126,0
4071,-266,127,0
4067,-279,127,0
4065,-289,129,0
4069,-296,130,0
4071,-307,128,0
4076,-317,130,0
4077,-324,129,0
4077,-325,126,0
4076,-328,126,0
4075,-327,124,0
4075,-328,123,0
4076,-325,124,0
4073,-323,119,0
4069,-319,120,0
4069,-318,119,0
4067,-319,119,0
4069,-315,120,0
4069,-311,120,0
4069,-304,121,0
4070,-302,118,0
4073,-302,116,0
4079,-298,119,0
4086,-298,124,0
4092,-298,125,0
4093,-300,131,0
4091,-299,132,0
4086,-297,134,0
4079,-292,138,0
4069,-283,134,0
4057,-282,136,0
4052,-277,142,0
4043,-278,141,0
4040,-280,141,0
4038,-281,139,0
4042,-287,134,0
4047,-290,128,0
4048,-296,124,0
4060,-301,123,0
4071,-303,115,0
4082,-305,113,0
4090,-306,113,0
4096,-304,116,0
4097,-297,118,0
4099,-290,120,0
4098,-288,121,0
4087,-287,126,0
4081,-288,125,0
4072,-287,122,0
4061,-288,128,0
4055,-289,134,0
4051,-296,128,0
4049,-302,128,0
4049,-307,128,0
4052,-311,126,0
4055,-310,127,0
4058,-312,128,0
4064,-313,123,0
4065,-313,127,0
4067,-314,129,0
4069,-312,124,0
4071,-310,127,0
4068,-310,126,0
4063,-309,124,0
4055,-314,118,0
4055,-317,119,0
4054,-320,116,0
4054,-324,121,0
4059,-331,123,0
4065,-333,127,0
4070,-336,127,0
4078,-336,130,0
4080,-335,134,0
4078,-331,130,0
4083,-325,127,0
4082,-324,125,0
4083,-314,118,0
4082,-305,118,0
4078,-297,118,0
4076,-290,120,0
4075,-287,122,0
4070,-283,123,0
4069,-282,124,0
4066,-282,134,0
4063,-283,136,0
4061,-281,139,0
4056,-278,141,0
4056,-281,142,0
4056,-278,140,0
4053,-282,144,0
4055,-280,141,0
4053,-280,139,0
4050,-284,131,0
4046,-285,122,0
4049,-293,115,0
4058,-301,110,0
4064,-307,111,0
4071,-312,116,0
4079,-320,118,0
4084,-320,122,0
4082,-318,124,0
4081,-322,120,0
4076,-323,119,0
4074,-324,124,0
4068,-326,130,0
4066,-327,136,0
4061,-323,140,0
4053,-320,142,0
4043,-314,146,0
4033,-311,147,0
4034,-307,148,0
4030,-306,145,0
4034,-301,142,0
4037,-298,139,0
4044,-297,133,0
4053,-298,122,0
4062,-295,115,0
4072,-297,111,0
4077,-301,106,0
4080,-303,100,0
4081,-311,99,0
4081,-313,96,0
4083,-317,96,0
4083,-325,95,0
4084,-332,94,0
4089,-336,92,0
4088,-336,92,0
4089,-333,93,0
4091,-330,95,0
4092,-321,91,0
4095,-312,89,0
4097,-298,94,0
4099,-286,93,0
4099,-279,97,0
4099,-272,98,0
4100,-268,105,0
4099,-268,110,0
4097,-269,116,0
4090,-271,122,0
4077,-274,123,0
4064,-274,126,0
4045,-273,125,0
4029,-271,122,0
4021,-265,121,0
4016,-257,119,0
4013,-252,116,0
4016,-247,116,0
4023,-236,114,0
4034,-234,110,0
4053,-235,111,0
4068,-241,108,0
4083,-254,100,0
4092,-267,92,0
4097,-279,87,0
4101,-291,80,0
4105,-301,81,0
4111,-305,86,0
4110,-307,94,0
4105,-308,93,0
4101,-306,94,0
4087,-304,99,0
4072,-301,103,0
4056,-298,110,0
4043,-297,115,0
4031,-296,120,0
4029,-297,123,0
4028,-297,129,0
4033,-300,133,0
4036,-305,135,0
4038,-314,136,0
4043,-325,132,0
4051,-334,127,0
4055,-338,126,0
4055,-340,129,0
4057,-339,125,0
4057,-339,122,0
4060,-337,120,0
4058,-332,123,0
4055,-331,123,0
4056,-329,122,0
4060,-327,129,0
4066,-324,135,0
4069,-324,136,0
4070,-325,133,0
4070,-333,130,0
4071,-338,126,0
4071,-342,124,0
4069,-346,125,0
4067,-347,132,0
4068,-343,136,0
4067,-342,137,0
4060,-342,136,0
4057,-344,135,0
4055,-348,137,0
4053,-350,132,0
4051,-351,129,0
4057,-355,123,0
4062,-353,126,0
4067,-352,129,0
4069,-351,126,0
4068,-348,129,0
4070,-342,126,0
4071,-338,128,0
4068,-330,128,0
4068,-321,130,0
4070,-311,128,0
4072,-306,126,0
4069,-298,126,0
4069,-289,125,0
4072,-283,122,0
4074,-277,125,0
4081,-275,122,0
4086,-274,123,0
4084,-272,129,0
4087,-269,128,0
4087,-268,129,0
4082,-271,129,0
4077,-276,128,0
4073,-279,131,0
4067,-284,134,0
4058,-286,136,0
4053,-287,137,0
4053,-291,140,0
4055,-293,141,0
4057,-296,139,0
4062,-297,137,0
4067,-298,138,0
4069,-301,134,0
4070,-303,131,0
4075,-304,127,0
4074,-307,124,0
4073,-308,122,0
4074,-308,123,0
4073,-308,123,0
4070,-309,121,0
4070,-307,124,0
4071,-305,122,0
4071,-303,118,0
4068,-305,121,0
4069,-303,122,0
4066,-303,119,0
4068,-307,119,0
4066,-304,119,0
4061,-302,120,0
4058,-302,125,0
4061,-296,129,0
4059,-296,128,0
4062,-295,133,0
4065,-295,130,0
4065,-295,124,0
4064,-293,120,0
4066,-293,121,0
4066,-295,125,0
4071,-295,130,0
4073,-298,129,0
4076,-301,127,0
4075,-300,125,0
4077,-303,121,0
4076,-303,116,0
4077,-302,120,0
4072,-300,119,0
4068,-293,122,0
4069,-287,123,0
4067,-286,125,0
4067,-284,127,0
4064,-285,125,0
4063,-288,129,0
4066,-291,132,0
4071,-289,137,0
4075,-287,139,0
4081,-291,143,0
4086,-296,142,0
4088,-297,141,0
4090,-297,137,0
4094,-299,129,0
4090,-299,123,0
4083,-302,122,0
4079,-304,119,0
4074,-303,115,0
4070,-304,112,0
4058,-304,115,0
4050,-303,115,0
4044,-300,124,0
4041,-305,127,0
4037,-309,128,0
4036,-318,130,0
4040,-325,134,0
4046,-328,138,0
4058,-334,143,0
4067,-338,134,0
4069,-333,126,0
4075,-331,118,0
4079,-317,115,0
4082,-302,121,0
4089,-291,120,0
4086,-280,123,0
4088,-270,128,0
4092,-264,133,0
4086,-267,137,0
4081,-277,147,0
4078,-288,147,0
4070,-294,147,0
4066,-304,150,0
4062,-320,151,0
4053,-327,149,0
4048,-329,151,0
4043,-328,149,0
4038,-325,142,0
4037,-321,132,0
4040,-313,126,0
4046,-311,125,0
4053,-300,125,0
4062,-294,125,0
4072,-294,128,0
4083,-297,132,0
4089,-297,138,0
4095,-302,144,0
4095,-312,149,0
4092,-322,147,0
4086,-332,142,0
4079,-342,137,0
4071,-347,138,0
4063,-344,142,0
4057,-341,149,0
4055,-341,153,0
4052,-342,151,0
4049,-339,149,0
4047,-340,146,0
4047,-338,143,0
4044,-334,145,0
4049,-332,145,0
4051,-331,148,0
4052,-327,149,0
4061,-327,147,0
4069,-324,148,0
4072,-321,150,0
4076,-321,149,0
4075,-321,144,0
4078,-319,143,0
4076,-316,142,0
4071,-310,141,0
4071,-304,142,0
4069,-296,141,0
4072,-298,141,0
4074,-297,146,0
4072,-300,148,0
4070,-301,157,0
4071,-307,162,0
4073,-314,165,0
4072,-324,168,0
4065,-337,164,0
4057,-343,161,0
4051,-348,163,0
4049,-346,155,0
4041,-349,152,0
4039,-345,151,0
4033,-341,157,0
4035,-330,163,0
4039,-324,161,0
4048,-321,159,0
4057,-315,155,0
4067,-307,149,0
4080,-299,141,0
4088,-297,135,0
4090,-297,132,0
4093,-296,124,0
4094,-293,123,0
4096,-294,123,0
4093,-293,125,0
4093,-289,132,0
4089,-286,138,0
4083,-285,141,0
4072,-289,144,0
4066,-293,149,0
4059,-294,154,0
4050,-300,157,0
4043,-304,164,0
4045,-307,168,0
4044,-310,165,0
4047,-310,165,0
4046,-315,162,0
4046,-318,156,0
4049,-320,155,0
4054,-318,154,0
4057,-316,156,0
4059,-315,159,0
4062,-317,159,0
4069,-319,158,0
4072,-324,158,0
4070,-329,157,0
4072,-334,161,0
4078,-336,166,0
4077,-339,165,0
4072,-342,164,0
4072,-347,162,0
4071,-350,161,0
4063,-351,161,0
4061,-355,162,0
4060,-350,161,0
4059,-351,163,0
4058,-352,162,0
4054,-353,164,0
4052,-353,155,0
4048,-351,149,0
4047,-347,147,0
4048,-347,146,0
4051,-341,143,0
4055,-335,142,0
4059,-331,143,0
4065,-322,140,0
4068,-315,142,0
4069,-313,141,0
4065,-314,138,0
4064,-315,136,0
4064,-321,141,0
4064,-319,144,0
4062,-323,145,0
4062,-324,150,0
4061,-324,158,0
4058,-324,156,0
4056,-323,159,0
4051,-328,157,0
4046,-330,155,0
4044,-326,153,0
4049,-323,152,0
4053,-322,154,0
4064,-321,152,0
4069,-318,153,0
4075,-313,154,0
4080,-310,150,0
4089,-306,150,0
4095,-301,150,0
4097,-301,149,0
4099,-302,151,0
4099,-300,155,0
4097,-300,155,0
4090,-309,155,0
4082,-315,155,0
4073,-322,154,0
4060,-330,162,0
4051,-340,164,0
4041,-350,163,0
4030,-357,160,0
4028,-362,156,0
4036,-365,155,0
4044,-364,151,0
4052,-356,145,0
4058,-346,147,0
4069,-330,151,0
4076,-319,149,0
4082,-311,146,0
4080,-299,147,0
4079,-293,151,0
4077,-291,160,0
4068,-296,161,0
4066,-308,163,0
4061,-322,165,0
4053,-335,167,0
4054,-347,170,0
4056,-357,171,0
4061,-365,178,0
4065,-374,182,0
4066,-377,174,0
4072,-376,171,0
4071,-372,167,0
4071,-370,158,0
4071,-366,149,0
4065,-354,140,0
4062,-344,144,0
4060,-337,146,0
4061,-332,145,0
4063,-329,145,0
4061,-323,144,0
4055,-326,140,0
4051,-325,140,0
4049,-328,141,0
4054,-324,141,0
4061,-324,145,0
4066,-317,148,0
4069,-313,148,0
4069,-308,153,0
4072,-310,152,0
4075,-308,149,0
4078,-305,147,0
4080,-300,148,0
4080,-301,145,0
4078,-305,142,0
4076,-308,143,0
4077,-306,145,0
4077,-308,146,0
4071,-303,147,0
4070,-300,148,0
4068,-299,151,0
4067,-300,147,0
4064,-308,144,0
4065,-308,139,0
4065,-304,141,0
4066,-298,144,0
4067,-298,146,0
4069,-302,145,0
4070,-308,143,0
4069,-315,144,0
4069,-319,144,0
4067,-322,145,0
4068,-323,147,0
4064,-325,146,0
4067,-332,145,0
4070,-335,146,0
4071,-335,149,0
4074,-329,151,0
4070,-326,152,0
4069,-323,154,0
4069,-321,153,0
4065,-318,152,0
4061,-318,151,0
4059,-314,149,0
4054,-309,150,0
4053,-304,153,0
4055,-304,150,0
4060,-308,146,0
4064,-308,141,0
4073,-308,145,0
4077,-307,147,0
4087,-305,147,0
4093,-301,148,0
4092,-299,144,0
4092,-297,137,0
4086,-293,133,0
4083,-289,138,0
4076,-280,142,0
4069,-278,145,0
4061,-276,148,0
4062,-280,151,0
4059,-289,155,0
4056,-292,153,0
4054,-297,154,0
4058,-297,152,0
4057,-301,154,0
4059,-305,155,0
4066,-313,157,0
4071,-315,157,0
4070,-322,151,0
4066,-326,150,0
4061,-333,145,0
4054,-334,145,0
4052,-334,151,0
4053,-333,156,0
4058,-334,158,0
4058,-333,158,0
4059,-335,162,0
4064,-338,166,0
4065,-343,171,0
4069,-341,172,0
4070,-343,173,0
4071,-344,167,0
4071,-348,169,0
4071,-344,170,0
4074,-343,171,0
4077,-341,167,0
4073,-337,164,0
4069,-335,161,0
4066,-334,160,0
4062,-332,162,0
4063,-331,164,0
4061,-329,162,0
4063,-329,160,0
4060,-329,164,0
4062,-330,159,0
4059,-330,160,0
4060,-331,157,0
4059,-333,158,0
4062,-333,160,0
4065,-331,158,0
4067,-330,150,0
4068,-327,152,0
4067,-324,150,0
4068,-323,149,0
4063,-326,145,0
4061,-330,141,0
4057,-329,139,0
4063,-328,142,0
4066,-326,143,0
4065,-324,146,0
4067,-325,151,0
4070,-326,147,0
4068,-323,147,0
4069,-324,150,0
4075,-319,153,0
4079,-317,152,0
4079,-315,153,0
4076,-306,149,0
4075,-301,149,0
4073,-297,152,0
4069,-292,151,0
4070,-291,153,0
4072,-293,158,0
4069,-299,155,0
4072,-303,162,0
4075,-306,165,0
4079,-314,161,0
4080,-324,156,0
4077,-329,148,0
4070,-332,143,0
4072,-331,140,0
4072,-328,145,0
4067,-323,151,0
4061,-315,154,0
4058,-306,153,0
4053,-301,156,0
4047,-297,154,0
4043,-303,160,0
4043,-308,162,0
4050,-314,164,0
4057,-324,164,0
4066,-334,162,0
4071,-341,168,0
4075,-344,175,0
4077,-345,174,0
4076,-346,169,0
4074,-350,161,0
4066,-350,155,0
4052,-349,148,0
4048,-343,148,0
4044,-334,150,0
4051,-328,155,0
4052,-323,158,0
4052,-319,155,0
4051,-319,152,0
4054,-320,149,0
4060,-326,145,0
4064,-331,145,0
4072,-334,146,0
4078,-335,145,0
4083,-332,149,0
4090,-330,156,0
4094,-328,156,0
4092,-327,154,0
4085,-321,151,0
4081,-316,151,0
4077,-313,151,0
4081,-306,151,0
4077,-308,152,0
4071,-312,149,0
4070,-315,151,0
4072,-316,156,0
4071,-318,154,0
4065,-321,148,0
4066,-318,148,0
4061,-316,149,0
4057,-311,149,0
4056,-313,151,0
4057,-314,152,0
4056,-315,149,0
4063,-317,149,0
4061,-313,149,0
4062,-313,147,0
4064,-314,146,0
4067,-313,148,0
4069,-317,154,0
4069,-316,158,0
4068,-317,163,0
4067,-322,162,0
4066,-334,161,0
4060,-345,156,0
4058,-356,155,0
4054,-361,157,0
4050,-364,158,0
4047,-366,159,0
4048,-368,156,0
4048,-367,152,0
4047,-366,148,0
4046,-361,149,0
4049,-357,151,0
4055,-350,149,0
4058,-341,152,0
4059,-339,150,0
4066,-336,149,0
4070,-336,145,0
4073,-337,145,0
4075,-335,145,0
4077,-328,152,0
4078,-329,154,0
4078,-334,155,0
4081,-338,155,0
4076,-337,157,0
4073,-338,156,0
4072,-337,152,0
4066,-336,151,0
4058,-330,152,0
4053,-330,153,0
