accelerometer_x,accelerometer_y,accelerometer_z,fall
4047,-490,-558,0
4046,-502,-564,0
4042,-515,-567,0
4037,-521,-570,0
4035,-519,-573,0
4033,-519,-575,0
4033,-513,-570,0
4035,-514,-564,0
4036,-516,-557,0
4036,-516,-558,0
4036,-523,-558,0
4032,-531,-563,0
4027,-529,-571,0
4018,-528,-576,0
4010,-523,-578,0
4003,-519,-574,0
3995,-512,-570,0
3990,-503,-563,0
3983,-498,-558,0
3973,-494,-562,0
3968,-493,-564,0
3969,-497,-566,0
3965,-501,-569,0
3972,-509,-575,0
3973,-511,-575,0
3981,-512,-575,0
3994,-511,-573,0
4006,-512,-572,0
4016,-515,-572,0
4030,-517,-573,0
4039,-521,-574,0
4057,-526,-578,0
4062,-528,-577,0
4062,-526,-579,0
4064,-517,-582,0
4059,-511,-575,0
4050,-501,-570,0
4048,-498,-566,0
4044,-496,-562,0
4042,-492,-560,0
4034,-489,-555,0
4031,-486,-551,0
4022,-478,-550,0
4009,-465,-551,0
4000,-457,-556,0
3992,-445,-557,0
3989,-436,-558,0
3988,-431,-558,0
3992,-428,-558,0
3999,-425,-561,0
4003,-421,-563,0
4008,-415,-561,0
4009,-414,-557,0
4010,-413,-558,0
4008,-410,-561,0
4011,-411,-560,0
4013,-414,-559,0
4019,-415,-563,0
4030,-424,-566,0
4038,-429,-566,0
4050,-435,-572,0
4058,-438,-575,0
4065,-441,-572,0
4073,-442,-570,0
4083,-445,-567,0
4089,-449,-561,0
4094,-455,-559,0
4097,-456,-562,0
4098,-462,-569,0
4093,-465,-571,0
4084,-464,-577,0
4070,-466,-586,0
4053,-460,-592,0
4034,-456,-597,0
4020,-452,-600,0
4003,-451,-599,0
3985,-455,-600,0
3968,-460,-602,0
3958,-467,-601,0
3948,-476,-605,0
3940,-485,-601,0
3935,-494,-592,0
3932,-500,-582,0
3937,-501,-572,0
3944,-506,-565,0
3956,-513,-560,0
3969,-517,-554,0
3987,-520,-548,0
4002,-525,-548,0
4023,-530,-544,0
4041,-532,-539,0
4053,-534,-542,0
4058,-528,-537,0
4063,-522,-537,0
4066,-513,-537,0
4065,-508,-541,0
4065,-505,-548,0
4062,-500,-552,0
4057,-501,-559,0
4057,-501,-557,0
4053,-500,-563,0
4050,-493,-562,0
4048,-488,-560,0
4049,-480,-559,0
4046,-470,-555,0
4040,-468,-557,0
4032,-465,-556,0
4024,-469,-557,0
4012,-468,-554,0
4004,-472,-556,0
3991,-470,-560,0
3979,-464,-558,0
3967,-459,-558,0
3958,-461,-558,0
3960,-467,-555,0
3962,-467,-554,0
3973,-471,-555,0
3983,-478,-554,0
3992,-483,-552,0
4003,-486,-548,0
4021,-490,-543,0
4041,-488,-539,0
4055,-491,-532,0
4074,-494,-529,0
4087,-498,-526,0
4095,-502,-527,0
4099,-504,-529,0
4102,-503,-535,0
4104,-503,-540,0
4103,-498,-544,0
4101,-490,-548,0
4101,-485,-552,0
4094,-478,-555,0
4084,-474,-560,0
4066,-473,-563,0
4048,-471,-566,0
4028,-470,-567,0
4008,-465,-564,0
3988,-464,-563,0
3971,-461,-555,0
3957,-462,-551,0
3956,-467,-544,0
3959,-473,-541,0
3966,-480,-543,0
3980,-483,-544,0
3994,-487,-548,0
4011,-491,-550,0
4024,-492,-550,0
4036,-492,-552,0
4047,-487,-551,0
4054,-489,-552,0
4057,-496,-551,0
4056,-497,-556,0
4053,-497,-557,0
4054,-497,-558,0
4050,-491,-555,0
4042,-492,-551,0
4037,-492,-546,0
4029,-488,-539,0
4022,-486,-530,0
4019,-485,-521,0
4015,-482,-520,0
4013,-480,-518,0
4015,-481,-518,0
4016,-479,-525,0
4012,-479,-527,0
4013,-474,-529,0
4009,-472,-532,0
4001,-465,-535,0
3997,-468,-536,0
3993,-468,-537,0
3987,-470,-533,0
3984,-474,-535,0
3984,-477,-535,0
3985,-479,-533,0
3983,-483,-526,0
3985,-488,-521,0
3989,-490,-516,0
3994,-493,-506,0
4006,-497,-495,0
4018,-505,-487,0
4037,-512,-485,0
4050,-515,-482,0
4060,-518,-484,0
4067,-520,-486,0
4080,-517,-484,0
4089,-510,-482,0
4093,-503,-485,0
4095,-496,-486,0
4090,-484,-492,0
4081,-482,-499,0
4076,-476,-507,0
4065,-475,-516,0
4052,-473,-524,0
4041,-473,-530,0
4034,-470,-531,0
4020,-467,-533,0
4014,-471,-525,0
4009,-473,-516,0
4006,-476,-510,0
4006,-484,-503,0
4005,-486,-495,0
4005,-492,-486,0
4010,-494,-478,0
4011,-499,-475,0
4012,-510,-482,0
4014,-516,-494,0
4017,-522,-503,0
4020,-524,-516,0
4028,-528,-524,0
4035,-533,-535,0
4043,-533,-542,0
4044,-535,-546,0
4044,-533,-548,0
4045,-526,-547,0
4045,-523,-538,0
4052,-522,-529,0
4058,-521,-513,0
4065,-520,-497,0
4074,-520,-487,0
4078,-518,-479,0
4084,-519,-469,0
4089,-512,-466,0
4087,-500,-462,0
4082,-489,-463,0
4075,-477,-473,0
4064,-461,-482,0
4050,-449,-491,0
4034,-440,-505,0
4023,-435,-518,0
4013,-430,-526,0
4001,-425,-528,0
3993,-424,-528,0
3978,-424,-528,0
3965,-425,-523,0
3953,-429,-514,0
3947,-431,-504,0
3946,-438,-492,0
3949,-443,-487,0
3955,-448,-481,0
3966,-458,-473,0
3981,-466,-470,0
3992,-471,-465,0
4006,-473,-460,0
4020,-478,-466,0
4031,-475,-467,0
4037,-472,-473,0
4051,-468,-480,0
4054,-462,-492,0
4064,-461,-501,0
4071,-456,-502,0
4070,-454,-506,0
4067,-453,-507,0
4059,-454,-506,0
4049,-453,-505,0
4036,-455,-501,0
4029,-456,-495,0
4020,-453,-490,0
4019,-455,-490,0
4011,-455,-489,0
4007,-458,-488,0
3999,-457,-487,0
3997,-461,-483,0
3998,-462,-477,0
4001,-464,-477,0
4006,-466,-471,0
4012,-468,-474,0
4023,-470,-470,0
4031,-470,-467,0
4038,-470,-465,0
4044,-472,-460,0
4049,-467,-465,0
4055,-463,-464,0
4055,-461,-473,0
4056,-459,-478,0
4060,-460,-479,0
4062,-455,-485,0
4065,-454,-489,0
4069,-452,-486,0
4070,-455,-484,0
4068,-457,-479,0
4058,-458,-472,0
4053,-455,-470,0
4048,-459,-467,0
4044,-457,-466,0
4042,-458,-466,0
4040,-459,-469,0
4036,-460,-476,0
4032,-463,-476,0
4026,-461,-473,0
4016,-456,-471,0
4007,-455,-461,0
3999,-456,-453,0
3996,-459,-444,0
3993,-465,-438,0
3994,-475,-438,0
4002,-486,-438,0
4006,-495,-441,0
4016,-500,-440,0
4024,-500,-437,0
4037,-498,-435,0
4052,-495,-428,0
4062,-494,-420,0
4069,-497,-421,0
4077,-499,-425,0
4084,-499,-428,0
4092,-495,-438,0
4096,-487,-446,0
4096,-481,-457,0
4094,-477,-468,0
4088,-471,-472,0
4080,-467,-470,0
4074,-463,-476,0
4067,-464,-468,0
4056,-462,-463,0
4049,-465,-460,0
4041,-469,-457,0
4028,-475,-457,0
4018,-477,-452,0
4014,-478,-451,0
4009,-476,-445,0
4007,-480,-441,0
4008,-481,-435,0
4013,-481,-432,0
4023,-485,-428,0
4031,-488,-425,0
4041,-485,-422,0
4048,-485,-416,0
4056,-484,-415,0
4063,-487,-415,0
4068,-486,-413,0
4073,-487,-410,0
4075,-485,-411,0
4083,-484,-407,0
4084,-484,-404,0
4091,-483,-404,0
4094,-489,-407,0
4096,-491,-408,0
4097,-488,-406,0
4096,-486,-404,0
4094,-480,-399,0
4086,-471,-394,0
4078,-470,-387,0
4072,-470,-385,0
4066,-470,-385,0
4053,-470,-383,0
4043,-475,-380,0
4027,-475,-370,0
4016,-477,-369,0
4003,-477,-366,0
3991,-480,-361,0
3981,-484,-357,0
3972,-489,-353,0
3969,-493,-352,0
3971,-493,-349,0
3977,-498,-348,0
3981,-497,-348,0
3988,-494,-350,0
3998,-492,-344,0
4009,-491,-338,0
4019,-482,-334,0
4032,-479,-328,0
4049,-477,-332,0
4061,-474,-332,0
4065,-469,-341,0
4069,-468,-349,0
4070,-466,-358,0
4065,-459,-369,0
4055,-452,-383,0
4049,-449,-389,0
4046,-448,-381,0
4044,-447,-371,0
4042,-446,-363,0
4037,-442,-358,0
4030,-444,-353,0
4020,-440,-344,0
4010,-439,-339,0
4000,-447,-342,0
3990,-444,-342,0
3993,-443,-337,0
4005,-445,-328,0
4020,-447,-325,0
4032,-451,-327,0
4048,-456,-333,0
4062,-460,-339,0
4064,-458,-344,0
4067,-458,-347,0
4065,-452,-351,0
4058,-450,-353,0
4053,-450,-351,0
4052,-451,-353,0
4049,-451,-354,0
4048,-455,-351,0
4046,-459,-349,0
4043,-456,-345,0
4033,-455,-347,0
4022,-449,-350,0
4014,-450,-347,0
4013,-448,-342,0
4011,-451,-339,0
4011,-454,-336,0
4014,-455,-333,0
4021,-452,-329,0
4023,-452,-331,0
4029,-450,-331,0
4030,-451,-332,0
4034,-449,-330,0
4034,-445,-329,0
4033,-443,-333,0
4034,-443,-328,0
4042,-441,-334,0
4047,-440,-335,0
4050,-442,-335,0
4054,-437,-341,0
4052,-435,-344,0
4055,-433,-341,0
4057,-431,-338,0
4057,-431,-334,0
4062,-432,-330,0
4065,-428,-327,0
4067,-426,-327,0
4069,-429,-328,0
4063,-430,-325,0
4057,-432,-323,0
4054,-436,-325,0
4049,-434,-328,0
4045,-441,-328,0
4047,-446,-326,0
4049,-448,-329,0
4055,-447,-334,0
4057,-442,-340,0
4050,-441,-345,0
4046,-434,-340,0
4039,-433,-337,0
4034,-431,-342,0
4033,-429,-345,0
4037,-430,-347,0
4040,-430,-349,0
4049,-432,-346,0
4057,-431,-347,0
4062,-431,-343,0
4070,-432,-341,0
4078,-434,-340,0
4079,-436,-341,0
4082,-434,-339,0
4080,-435,-339,0
4079,-438,-339,0
4077,-441,-334,0
4076,-440,-336,0
4077,-443,-336,0
4071,-444,-339,0
4058,-447,-334,0
4043,-450,-340,0
4029,-453,-342,0
4015,-450,-342,0
4004,-449,-337,0
4005,-450,-331,0
4003,-458,-329,0
4011,-458,-324,0
4023,-456,-324,0
4029,-455,-319,0
4038,-454,-315,0
4044,-455,-316,0
4047,-453,-315,0
4050,-448,-319,0
4062,-441,-320,0
4070,-438,-320,0
4082,-438,-326,0
4087,-436,-336,0
4094,-436,-338,0
4095,-432,-344,0
4090,-427,-345,0
4085,-422,-344,0
4076,-418,-335,0
4064,-415,-326,0
4053,-410,-318,0
4046,-409,-318,0
4038,-409,-315,0
4030,-411,-315,0
4021,-411,-318,0
4008,-408,-315,0
4004,-401,-320,0
4001,-400,-321,0
4002,-398,-320,0
4006,-397,-316,0
4009,-395,-312,0
4017,-393,-308,0
4027,-394,-308,0
4034,-396,-308,0
4040,-399,-310,0
4046,-399,-313,0
4049,-400,-316,0
4053,-398,-315,0
4062,-394,-316,0
4071,-399,-320,0
4085,-398,-321,0
4093,-398,-324,0
4098,-398,-325,0
4100,-398,-327,0
4101,-398,-323,0
4098,-397,-324,0
4091,-400,-327,0
4084,-405,-324,0
4079,-411,-327,0
4074,-419,-325,0
4070,-424,-329,0
4067,-430,-329,0
4062,-431,-326,0
4051,-437,-323,0
4040,-441,-325,0
4028,-444,-323,0
4021,-448,-323,0
4013,-450,-323,0
4010,-452,-319,0
4012,-456,-315,0
4015,-460,-313,0
4019,-464,-318,0
4027,-464,-319,0
4032,-461,-318,0
4036,-456,-317,0
4044,-455,-320,0
4051,-451,-317,0
4060,-449,-313,0
4070,-450,-318,0
4080,-449,-318,0
4090,-446,-320,0
4095,-444,-324,0
4093,-443,-325,0
4083,-440,-320,0
4077,-434,-322,0
4073,-435,-320,0
4068,-432,-315,0
4063,-435,-314,0
4060,-441,-315,0
4061,-438,-312,0
4062,-436,-316,0
4053,-439,-319,0
4044,-435,-312,0
4032,-434,-311,0
4023,-431,-308,0
4019,-430,-307,0
4021,-431,-302,0
4027,-437,-302,0
4031,-438,-305,0
4040,-435,-309,0
4043,-437,-311,0
4045,-439,-319,0
4045,-437,-320,0
4041,-435,-326,0
4039,-429,-328,0
4038,-431,-328,0
4037,-430,-327,0
4042,-431,-328,0
4049,-431,-328,0
4055,-433,-327,0
4062,-434,-328,0
4067,-433,-325,0
4066,-435,-325,0
4071,-434,-320,0
4070,-434,-312,0
4071,-431,-312,0
4071,-434,-307,0
4069,-437,-304,0
4067,-437,-303,0
4062,-443,-307,0
4055,-445,-313,0
4049,-444,-313,0
4038,-444,-313,0
4035,-442,-311,0
4037,-440,-311,0
4039,-438,-314,0
4043,-438,-314,0
4045,-436,-320,0
4047,-429,-325,0
4046,-425,-325,0
4048,-420,-326,0
4045,-417,-321,0
4042,-414,-318,0
4038,-411,-316,0
4038,-412,-315,0
4040,-416,-312,0
4043,-416,-308,0
4053,-416,-310,0
4063,-417,-307,0
4070,-421,-310,0
4074,-425,-312,0
4077,-430,-316,0
4073,-428,-316,0
4070,-427,-313,0
4064,-419,-314,0
4060,-421,-311,0
4062,-419,-310,0
4059,-420,-314,0
4052,-417,-317,0
4043,-416,-316,0
4028,-416,-311,0
4019,-412,-314,0
4014,-413,-309,0
4016,-410,-308,0
4014,-412,-302,0
4013,-418,-300,0
4018,-419,-301,0
4030,-425,-305,0
4037,-430,-308,0
4042,-431,-306,0
4050,-432,-307,0
4060,-434,-307,0
4066,-433,-305,0
4076,-431,-304,0
4082,-430,-300,0
4091,-435,-300,0
4096,-435,-305,0
4099,-435,-306,0
4102,-438,-306,0
4101,-434,-305,0
4101,-429,-306,0
4098,-426,-308,0
4088,-419,-306,0
4083,-417,-307,0
4077,-420,-310,0
4074,-421,-314,0
4072,-421,-319,0
4065,-422,-323,0
4048,-421,-328,0
4028,-419,-330,0
4011,-414,-328,0
4000,-409,-324,0
3991,-409,-315,0
3988,-412,-307,0
3996,-413,-304,0
4003,-417,-302,0
4006,-421,-297,0
4010,-423,-295,0
4009,-427,-298,0
4009,-426,-297,0
4017,-426,-300,0
4022,-428,-291,0
4030,-429,-288,0
4042,-430,-286,0
4060,-431,-293,0
4075,-431,-300,0
4084,-432,-301,0
4090,-428,-307,0
4093,-425,-309,0
4090,-417,-311,0
4086,-411,-312,0
4080,-406,-306,0
4079,-410,-307,0
4076,-415,-315,0
4072,-418,-317,0
4057,-422,-320,0
4045,-424,-319,0
4029,-425,-318,0
4014,-427,-317,0
4004,-427,-313,0
4004,-429,-307,0
4008,-430,-302,0
4013,-431,-298,0
4024,-435,-292,0
4036,-438,-293,0
4044,-439,-295,0
4048,-438,-296,0
4056,-435,-303,0
4064,-438,-309,0
4067,-431,-311,0
4073,-431,-310,0
4080,-425,-309,0
4087,-429,-311,0
4090,-431,-314,0
4095,-430,-318,0
4090,-430,-317,0
4083,-430,-318,0
4073,-430,-324,0
4058,-423,-327,0
4045,-419,-322,0
4039,-416,-319,0
4035,-420,-315,0
4034,-426,-320,0
4030,-431,-322,0
4024,-435,-318,0
4017,-436,-314,0
4015,-433,-306,0
4012,-433,-303,0
4012,-436,-298,0
4017,-435,-294,0
4025,-434,-291,0
4039,-433,-292,0
4049,-434,-301,0
4057,-430,-302,0
4066,-430,-303,0
4073,-431,-304,0
4080,-429,-304,0
4083,-425,-306,0
4090,-422,-305,0
4095,-425,-307,0
4098,-428,-309,0
4100,-428,-313,0
4100,-430,-317,0
4100,-432,-324,0
4100,-431,-326,0
4096,-430,-328,0
4088,-430,-330,0
4077,-432,-331,0
4063,-431,-322,0
4055,-434,-315,0
4050,-436,-315,0
4038,-438,-317,0
4031,-436,-311,0
4025,-434,-304,0
4017,-434,-298,0
4009,-435,-298,0
4005,-435,-295,0
4006,-432,-291,0
4009,-428,-286,0
4017,-424,-284,0
4016,-420,-284,0
4023,-416,-282,0
4032,-416,-279,0
4037,-416,-282,0
4042,-416,-281,0
4043,-412,-285,0
4049,-411,-286,0
4057,-414,-287,0
4064,-417,-290,0
4070,-419,-297,0
4077,-418,-302,0
4083,-417,-309,0
4082,-416,-308,0
4079,-415,-309,0
4069,-411,-310,0
4056,-408,-310,0
4046,-410,-311,0
4036,-412,-308,0
4026,-413,-306,0
4018,-412,-298,0
4017,-414,-293,0
4015,-418,-288,0
4014,-421,-288,0
4015,-420,-286,0
4015,-417,-286,0
4022,-417,-283,0
4031,-418,-282,0
4044,-417,-278,0
4060,-417,-279,0
4079,-419,-283,0
4090,-418,-288,0
4095,-414,-292,0
4098,-410,-293,0
4099,-408,-300,0
4096,-406,-305,0
4092,-405,-306,0
4086,-406,-306,0
4078,-409,-307,0
4071,-413,-315,0
4065,-415,-320,0
4057,-415,-320,0
4046,-417,-319,0
4033,-415,-321,0
4020,-411,-320,0
4008,-412,-319,0
4005,-411,-319,0
4005,-412,-313,0
4005,-412,-309,0
4008,-413,-305,0
4015,-416,-300,0
4022,-418,-294,0
4025,-423,-288,0
4033,-420,-283,0
4039,-420,-282,0
4050,-421,-279,0
4062,-422,-276,0
4079,-421,-275,0
4090,-419,-282,0
4099,-423,-292,0
4104,-421,-301,0
4107,-420,-306,0
4108,-416,-310,0
4104,-409,-309,0
4101,-401,-314,0
4096,-394,-314,0
4093,-397,-310,0
4090,-402,-309,0
4081,-404,-306,0
4075,-408,-309,0
4059,-412,-312,0
4043,-416,-309,0
4022,-416,-310,0
4000,-415,-308,0
3983,-413,-309,0
3973,-416,-305,0
3968,-415,-305,0
3974,-420,-301,0
3983,-420,-303,0
3993,-420,-295,0
4005,-416,-292,0
4017,-415,-288,0
4028,-412,-290,0
4038,-409,-289,0
4049,-407,-292,0
4063,-406,-293,0
4079,-412,-297,0
4089,-416,-310,0
4096,-418,-321,0
4101,-422,-326,0
4101,-423,-329,0
4099,-423,-335,0
4090,-421,-339,0
4080,-417,-335,0
4072,-417,-328,0
4064,-425,-321,0
4061,-427,-312,0
4056,-429,-309,0
4047,-429,-308,0
4036,-434,-307,0
4023,-436,-306,0
4010,-437,-307,0
4002,-439,-308,0
4000,-435,-303,0
4003,-434,-292,0
4011,-438,-283,0
4025,-440,-283,0
4041,-441,-284,0
4054,-439,-285,0
4064,-441,-288,0
4074,-439,-292,0
4077,-434,-291,0
4082,-423,-291,0
4089,-426,-288,0
4094,-421,-286,0
4092,-414,-291,0
4090,-413,-301,0
4089,-411,-308,0
4082,-410,-316,0
4066,-403,-319,0
4053,-397,-323,0
4040,-393,-326,0
4030,-394,-324,0
4029,-394,-317,0
4027,-397,-313,0
4034,-403,-308,0
4033,-411,-304,0
4031,-414,-299,0
4029,-415,-295,0
4022,-408,-296,0
4017,-401,-297,0
4014,-403,-300,0
4018,-408,-300,0
4027,-410,-297,0
4044,-410,-303,0
4062,-412,-306,0
4081,-411,-307,0
4091,-411,-310,0
4097,-412,-310,0
4100,-409,-313,0
4100,-404,-317,0
4101,-399,-316,0
4100,-398,-315,0
4100,-401,-314,0
4094,-401,-321,0
4088,-405,-324,0
4078,-408,-329,0
4066,-410,-326,0
4054,-409,-326,0
4044,-407,-330,0
4032,-408,-329,0
4025,-408,-318,0
4021,-412,-312,0
4019,-416,-309,0
4024,-419,-309,0
4030,-422,-309,0
4031,-426,-311,0
4034,-435,-317,0
4025,-440,-316,0
4020,-441,-315,0
4020,-432,-306,0
4023,-424,-299,0
4030,-419,-293,0
4041,-416,-292,0
4048,-418,-299,0
4063,-420,-301,0
4078,-426,-297,0
4089,-424,-298,0
4094,-427,-302,0
4098,-429,-307,0
4100,-433,-309,0
4100,-434,-310,0
4097,-431,-312,0
4085,-425,-317,0
4062,-418,-318,0
4039,-409,-319,0
4012,-406,-322,0
3991,-405,-329,0
3975,-398,-332,0
3962,-393,-329,0
3959,-401,-320,0
3964,-413,-308,0
3975,-423,-289,0
3991,-433,-279,0
4008,-441,-265,0
4026,-452,-256,0
4038,-460,-256,0
4053,-462,-260,0
4068,-464,-271,0
4079,-463,-277,0
4090,-459,-291,0
4095,-452,-302,0
4099,-445,-311,0
4105,-442,-318,0
4106,-435,-322,0
4103,-429,-326,0
4103,-422,-329,0
4102,-422,-328,0
4103,-420,-327,0
4105,-424,-329,0
4106,-428,-331,0
4108,-435,-331,0
4103,-443,-337,0
4085,-448,-336,0
4055,-442,-337,0
4017,-436,-335,0
3982,-428,-337,0
3955,-418,-339,0
3942,-410,-336,0
3935,-411,-334,0
3939,-413,-335,0
3947,-413,-337,0
3959,-412,-333,0
3969,-413,-324,0
3976,-418,-310,0
3982,-417,-293,0
3989,-417,-278,0
4004,-422,-268,0
4030,-425,-256,0
4057,-441,-254,0
4079,-450,-258,0
4102,-457,-269,0
4128,-459,-276,0
4147,-461,-283,0
4155,-455,-287,0
4161,-440,-296,0
4160,-425,-301,0
4156,-417,-304,0
4151,-411,-305,0
4145,-403,-307,0
4134,-403,-310,0
4121,-406,-318,0
4110,-414,-321,0
4093,-417,-325,0
4070,-419,-328,0
4051,-420,-328,0
4029,-425,-325,0
3999,-428,-322,0
3973,-432,-317,0
3945,-431,-320,0
3925,-431,-327,0
3910,-421,-331,0
3898,-412,-335,0
3890,-404,-334,0
3890,-394,-334,0
3896,-388,-329,0
3906,-382,-319,0
3924,-385,-306,0
3952,-385,-298,0
3979,-393,-296,0
4012,-403,-295,0
4044,-422,-290,0
4073,-437,-283,0
4099,-447,-273,0
4122,-450,-268,0
4143,-454,-260,0
4164,-454,-255,0
4181,-458,-252,0
4193,-462,-258,0
4203,-464,-270,0
4214,-464,-287,0
4213,-460,-296,0
4205,-457,-304,0
4188,-450,-310,0
4158,-438,-312,0
4129,-424,-317,0
4100,-411,-318,0
4063,-408,-317,0
4033,-407,-318,0
4007,-420,-326,0
3980,-434,-333,0
3961,-445,-340,0
3935,-450,-342,0
3909,-447,-341,0
3890,-442,-333,0
3877,-434,-328,0
3866,-424,-317,0
3859,-419,-313,0
3862,-413,-307,0
3872,-410,-306,0
3888,-410,-303,0
3904,-415,-298,0
3926,-420,-297,0
3952,-422,-294,0
3988,-425,-288,0
4023,-426,-278,0
4058,-425,-271,0
4086,-423,-262,0
4125,-421,-253,0
4164,-428,-253,0
4200,-435,-247,0
4233,-443,-239,0
4256,-444,-241,0
4274,-446,-244,0
4281,-445,-254,0
4279,-446,-259,0
4263,-441,-269,0
4235,-434,-283,0
4196,-427,-296,0
4153,-420,-303,0
4117,-414,-316,0
4079,-411,-322,0
4041,-408,-329,0
4008,-410,-334,0
3975,-419,-336,0
3949,-429,-338,0
3931,-433,-342,0
3918,-430,-349,0
3904,-420,-348,0
3890,-411,-339,0
3879,-404,-332,0
3862,-400,-327,0
3852,-397,-326,0
3848,-397,-318,0
3849,-396,-315,0
3858,-394,-312,0
3882,-397,-306,0
3918,-400,-297,0
3966,-405,-283,0
4012,-413,-263,0
4056,-417,-247,0
4097,-418,-237,0
4138,-412,-229,0
4172,-409,-226,0
4206,-409,-223,0
4238,-408,-221,0
4276,-422,-230,0
4305,-436,-236,0
4320,-443,-237,0
4322,-448,-247,0
4302,-449,-257,0
4272,-447,-267,0
4221,-441,-282,0
4169,-432,-294,0
4120,-419,-304,0
4075,-408,-312,0
4031,-400,-320,0
3998,-401,-326,0
3966,-408,-325,0
3935,-411,-329,0
3909,-410,-336,0
3881,-403,-344,0
3856,-392,-348,0
3833,-383,-340,0
3813,-373,-334,0
3801,-369,-327,0
3795,-365,-323,0
3798,-374,-321,0
3803,-376,-312,0
3819,-381,-300,0
3842,-383,-290,0
3880,-392,-284,0
3932,-403,-276,0
3986,-414,-263,0
4044,-424,-250,0
4099,-433,-241,0
4153,-431,-240,0
4200,-427,-236,0
4237,-426,-229,0
4265,-426,-234,0
4295,-427,-237,0
4314,-430,-244,0
4323,-428,-246,0
4328,-432,-251,0
4327,-433,-264,0
4308,-433,-283,0
4285,-433,-299,0
4248,-431,-309,0
4204,-421,-314,0
4155,-411,-320,0
4109,-409,-328,0
4056,-406,-339,0
4002,-409,-348,0
3947,-415,-356,0
3898,-419,-374,0
3858,-418,-385,0
3824,-418,-389,0
3797,-411,-386,0
3778,-399,-381,0
3761,-386,-371,0
3756,-376,-358,0
3756,-376,-337,0
3768,-375,-314,0
3797,-377,-299,0
3836,-385,-290,0
3882,-400,-284,0
3936,-417,-278,0
3997,-431,-265,0
4053,-436,-258,0
4108,-434,-252,0
4158,-431,-243,0
4205,-424,-232,0
4248,-421,-225,0
4286,-427,-227,0
4320,-436,-231,0
4348,-446,-234,0
4359,-453,-242,0
4361,-453,-253,0
4348,-448,-266,0
4333,-439,-277,0
4305,-436,-282,0
4266,-427,-286,0
4219,-422,-298,0
4168,-418,-311,0
4118,-420,-322,0
4057,-425,-326,0
3993,-425,-336,0
3929,-428,-354,0
3871,-432,-371,0
3823,-435,-388,0
3779,-431,-399,0
3746,-418,-406,0
3721,-398,-403,0
3699,-378,-394,0
3687,-365,-377,0
3689,-354,-357,0
3700,-346,-335,0
3723,-346,-318,0
3753,-352,-303,0
3795,-359,-291,0
3851,-370,-283,0
3914,-380,-273,0
3989,-386,-265,0
4058,-390,-254,0
4131,-391,-241,0
4198,-389,-232,0
4251,-386,-228,0
4299,-385,-229,0
4340,-391,-235,0
4378,-402,-239,0
4408,-413,-242,0
4436,-427,-249,0
4451,-432,-261,0
4452,-434,-267,0
4426,-430,-274,0
4383,-429,-291,0
4318,-417,-307,0
4248,-409,-327,0
4174,-399,-348,0
4105,-397,-360,0
4033,-397,-373,0
3971,-403,-391,0
3910,-406,-408,0
3848,-408,-417,0
3800,-406,-423,0
3751,-396,-427,0
3708,-387,-428,0
3670,-367,-424,0
3646,-350,-408,0
3631,-339,-391,0
3630,-336,-379,0
3642,-335,-366,0
3669,-338,-355,0
3705,-342,-341,0
3748,-353,-337,0
3810,-361,-333,0
3884,-367,-331,0
3970,-370,-320,0
4052,-368,-298,0
4134,-372,-286,0
4216,-383,-278,0
4291,-403,-279,0
4354,-420,-280,0
4403,-431,-281,0
4437,-435,-289,0
4466,-433,-295,0
4490,-432,-307,0
4502,-430,-313,0
4504,-428,-319,0
4492,-424,-325,0
4462,-424,-341,0
4415,-423,-357,0
4344,-419,-364,0
4262,-405,-376,0
4179,-393,-400,0
4087,-386,-421,0
3994,-386,-433,0
3907,-397,-444,0
3829,-408,-465,0
3762,-412,-481,0
3708,-416,-488,0
3668,-415,-483,0
3636,-407,-473,0
3619,-399,-467,0
3603,-390,-457,0
3600,-385,-445,0
3607,-381,-429,0
3628,-377,-411,0
3655,-373,-399,0
3703,-377,-389,0
3760,-387,-374,0
3836,-401,-362,0
3923,-403,-354,0
4011,-398,-345,0
4099,-394,-344,0
4187,-389,-332,0
4269,-386,-327,0
4343,-387,-330,0
4403,-394,-347,0
4452,-402,-360,0
4491,-413,-366,0
4517,-409,-362,0
4534,-398,-357,0
4532,-388,-354,0
4523,-385,-353,0
4495,-387,-353,0
4447,-391,-360,0
4388,-396,-380,0
4316,-400,-401,0
4230,-405,-421,0
4140,-407,-437,0
4038,-414,-449,0
3933,-419,-470,0
3831,-424,-491,0
3741,-419,-503,0
3666,-404,-505,0
3604,-389,-511,0
3557,-375,-517,0
3512,-366,-517,0
3484,-363,-514,0
3464,-360,-504,0
3455,-355,-490,0
3470,-346,-475,0
3506,-346,-451,0
3567,-348,-425,0
3645,-361,-402,0
3742,-375,-384,0
3852,-389,-373,0
3972,-392,-362,0
4078,-391,-359,0
4184,-386,-352,0
4286,-389,-358,0
4379,-392,-370,0
4457,-405,-382,0
4517,-414,-391,0
4564,-415,-404,0
4593,-416,-417,0
4607,-415,-428,0
4611,-413,-432,0
4599,-410,-426,0
4563,-411,-431,0
4510,-411,-437,0
4448,-419,-444,0
4372,-421,-449,0
4289,-424,-456,0
4196,-429,-466,0
4103,-433,-476,0
4003,-450,-493,0
3911,-468,-507,0
3813,-477,-519,0
3730,-476,-535,0
3661,-472,-554,0
3608,-457,-562,0
3570,-438,-557,0
3537,-414,-552,0
3516,-388,-546,0
3506,-374,-543,0
3511,-363,-526,0
3533,-349,-514,0
3563,-341,-496,0
3613,-335,-480,0
3682,-332,-465,0
3773,-329,-443,0
3879,-325,-423,0
3988,-319,-405,0
4099,-315,-396,0
4210,-316,-393,0
4318,-324,-390,0
4412,-336,-394,0
4492,-356,-408,0
4557,-369,-422,0
4604,-381,-434,0
4637,-384,-441,0
4652,-383,-440,0
4640,-385,-443,0
4607,-391,-447,0
4547,-396,-454,0
4468,-397,-456,0
4377,-394,-457,0
4271,-395,-461,0
4167,-400,-472,0
4057,-412,-476,0
3949,-422,-475,0
3844,-436,-482,0
3751,-443,-496,0
3677,-439,-502,0
3618,-436,-500,0
3572,-431,-504,0
3537,-425,-509,0
3519,-419,-517,0
3517,-409,-511,0
3536,-399,-500,0
3568,-382,-487,0
3611,-375,-478,0
3657,-373,-472,0
3708,-377,-466,0
3764,-375,-459,0
3826,-372,-461,0
3896,-363,-462,0
3969,-352,-465,0
4041,-340,-460,0
4118,-333,-460,0
4199,-333,-456,0
4281,-342,-460,0
4356,-361,-461,0
4422,-375,-452,0
4477,-387,-443,0
4516,-395,-434,0
4539,-404,-432,0
4548,-416,-428,0
4536,-424,-421,0
4505,-427,-425,0
4461,-438,-440,0
4404,-447,-457,0
4335,-455,-478,0
4252,-458,-494,0
4175,-461,-508,0
4096,-464,-520,0
4005,-465,-530,0
3917,-460,-531,0
3836,-460,-528,0
3762,-450,-528,0
3701,-438,-528,0
3649,-425,-530,0
3603,-414,-537,0
3568,-402,-537,0
3548,-390,-540,0
3547,-374,-537,0
3565,-357,-524,0
3601,-340,-507,0
3648,-337,-488,0
3708,-334,-474,0
3780,-335,-459,0
3863,-342,-440,0
3954,-343,-418,0
4035,-345,-403,0
4118,-343,-398,0
4198,-346,-405,0
4273,-351,-415,0
4341,-368,-426,0
4400,-384,-438,0
4441,-405,-455,0
4466,-425,-481,0
4484,-437,-491,0
4484,-437,-487,0
4468,-432,-477,0
4440,-424,-475,0
4404,-418,-480,0
4358,-416,-481,0
4299,-419,-483,0
4231,-432,-488,0
4164,-452,-509,0
4084,-471,-524,0
3998,-483,-527,0
3918,-486,-527,0
3840,-484,-528,0
3774,-466,-525,0
3716,-453,-530,0
3679,-436,-531,0
3656,-427,-533,0
3645,-415,-539,0
3647,-406,-542,0
3661,-397,-545,0
3680,-386,-541,0
3702,-379,-539,0
3734,-367,-542,0
3770,-355,-535,0
3813,-343,-525,0
3865,-336,-512,0
3922,-331,-504,0
3983,-322,-497,0
4042,-318,-498,0
4094,-314,-491,0
4150,-311,-480,0
4204,-307,-472,0
4252,-305,-470,0
4293,-312,-470,0
4326,-327,-466,0
4346,-344,-464,0
4372,-361,-463,0
4389,-374,-470,0
4401,-388,-472,0
4401,-399,-467,0
4387,-409,-474,0
4353,-418,-478,0
4305,-419,-485,0
4243,-420,-493,0
4175,-425,-496,0
4116,-435,-506,0
4050,-443,-515,0
3981,-451,-523,0
3917,-462,-532,0
3856,-463,-532,0
3809,-458,-533,0
3779,-454,-534,0
3753,-449,-535,0
3737,-449,-527,0
3732,-449,-522,0
3730,-449,-517,0
3732,-450,-516,0
3740,-446,-511,0
3750,-447,-509,0
3765,-441,-512,0
3787,-437,-513,0
3807,-431,-516,0
3835,-424,-515,0
3875,-419,-504,0
3934,-414,-487,0
4004,-408,-468,0
4067,-414,-450,0
4134,-421,-434,0
4197,-427,-419,0
4245,-429,-418,0
4280,-427,-433,0
4304,-427,-448,0
4317,-425,-458,0
4327,-425,-460,0
4330,-423,-466,0
4326,-415,-467,0
4311,-411,-473,0
4277,-411,-479,0
4233,-407,-483,0
4181,-408,-485,0
4129,-412,-491,0
4068,-423,-496,0
4008,-434,-504,0
3954,-452,-502,0
3903,-470,-502,0
3864,-483,-507,0
3830,-489,-501,0
3805,-497,-495,0
3787,-497,-487,0
3775,-498,-484,0
3769,-502,-486,0
3767,-503,-489,0
3765,-504,-491,0
3770,-506,-499,0
3781,-507,-509,0
3798,-512,-512,0
3825,-521,-517,0
3855,-530,-519,0
3886,-536,-525,0
3921,-541,-523,0
3961,-531,-520,0
4002,-523,-510,0
4045,-515,-496,0
4088,-507,-485,0
4133,-502,-475,0
4173,-500,-465,0
4206,-499,-465,0
4230,-493,-470,0
4247,-486,-476,0
4256,-483,-479,0
4267,-480,-478,0
4276,-478,-475,0
4280,-477,-476,0
4278,-470,-479,0
4269,-469,-483,0
4243,-464,-488,0
4209,-459,-496,0
4169,-453,-507,0
4135,-447,-513,0
4097,-440,-519,0
4057,-437,-524,0
4020,-436,-524,0
3987,-437,-532,0
3961,-436,-539,0
3933,-437,-540,0
3904,-432,-543,0
3882,-429,-547,0
3867,-424,-556,0
3854,-415,-561,0
3844,-408,-558,0
3840,-406,-554,0
3846,-404,-556,0
3854,-408,-562,0
3864,-416,-559,0
3880,-415,-545,0
3897,-410,-533,0
3919,-407,-519,0
3941,-405,-511,0
3962,-411,-494,0
3996,-412,-475,0
4031,-418,-458,0
4062,-425,-449,0
4087,-426,-442,0
4111,-432,-431,0
4132,-437,-425,0
4155,-445,-422,0
4175,-452,-425,0
4193,-467,-429,0
4207,-478,-435,0
4217,-487,-439,0
4226,-492,-443,0
4226,-492,-446,0
4220,-494,-451,0
4204,-493,-454,0
4177,-495,-463,0
4146,-491,-471,0
4117,-493,-482,0
4079,-497,-491,0
4043,-509,-500,0
4007,-516,-510,0
3969,-523,-520,0
3936,-531,-529,0
3906,-536,-531,0
3875,-534,-522,0
3843,-531,-519,0
3820,-530,-514,0
3799,-532,-511,0
3782,-529,-502,0
3769,-529,-492,0
3763,-527,-489,0
3763,-527,-491,0
3777,-529,-493,0
3800,-529,-489,0
3836,-527,-480,0
3879,-528,-468,0
3936,-528,-455,0
3995,-529,-441,0
4048,-530,-426,0
4095,-531,-416,0
4147,-535,-416,0
4191,-535,-415,0
4230,-536,-414,0
4262,-534,-409,0
4283,-535,-413,0
4299,-533,-423,0
4310,-533,-439,0
4312,-527,-452,0
4307,-520,-466,0
4289,-514,-486,0
4263,-508,-504,0
4223,-501,-514,0
4175,-499,-519,0
4122,-495,-518,0
4067,-497,-515,0
4013,-498,-512,0
3964,-511,-500,0
3922,-519,-491,0
3885,-528,-484,0
3860,-539,-484,0
3843,-548,-486,0
3833,-550,-482,0
3828,-547,-476,0
3819,-538,-473,0
3813,-532,-475,0
3803,-525,-477,0
3800,-515,-477,0
3799,-509,-477,0
3806,-503,-479,0
3816,-499,-485,0
3834,-488,-489,0
3855,-484,-486,0
3885,-478,-482,0
3925,-472,-476,0
3969,-466,-468,0
4018,-461,-461,0
4064,-459,-446,0
4117,-458,-433,0
4167,-458,-424,0
4214,-470,-419,0
4251,-473,-416,0
4281,-475,-416,0
4300,-480,-424,0
4307,-482,-439,0
4306,-475,-452,0
4292,-465,-458,0
4267,-451,-462,0
4236,-445,-473,0
4194,-438,-490,0
4150,-434,-506,0
4101,-437,-519,0
4055,-446,-526,0
4007,-452,-534,0
3964,-459,-541,0
3931,-473,-536,0
3901,-486,-526,0
3885,-500,-517,0
3875,-514,-509,0
3873,-529,-500,0
3871,-541,-496,0
3868,-553,-496,0
3863,-558,-492,0
3866,-557,-496,0
3874,-557,-507,0
3885,-552,-515,0
3900,-541,-525,0
3923,-534,-529,0
3947,-529,-534,0
3977,-526,-538,0
4007,-517,-536,0
4027,-513,-531,0
4043,-511,-529,0
4059,-507,-527,0
4070,-501,-520,0
4079,-499,-501,0
4090,-499,-483,0
4099,-501,-471,0
4107,-504,-462,0
4116,-512,-456,0
4124,-516,-447,0
4125,-511,-446,0
4124,-510,-441,0
4122,-508,-438,0
4121,-504,-441,0
4118,-498,-443,0
4114,-491,-456,0
4107,-488,-475,0
4100,-486,-497,0
4080,-480,-510,0
4052,-477,-523,0
4022,-473,-533,0
3995,-473,-542,0
3971,-481,-545,0
3956,-490,-541,0
3945,-497,-533,0
3934,-504,-530,0
3928,-510,-528,0
3920,-512,-526,0
3917,-518,-522,0
3916,-529,-521,0
3921,-536,-520,0
3930,-538,-519,0
3951,-547,-517,0
3969,-551,-515,0
3990,-554,-509,0
4011,-555,-507,0
4030,-556,-507,0
4039,-558,-502,0
4048,-554,-505,0
4058,-550,-499,0
4055,-544,-501,0
4060,-538,-499,0
4065,-534,-491,0
4074,-532,-485,0
4077,-529,-485,0
4081,-528,-483,0
4080,-527,-478,0
4074,-527,-472,0
4069,-530,-465,0
4063,-525,-457,0
4059,-525,-449,0
4056,-530,-443,0
4054,-536,-438,0
4054,-544,-436,0
4052,-554,-441,0
4046,-559,-450,0
4037,-565,-460,0
4024,-564,-464,0
4010,-563,-474,0
3997,-556,-483,0
3984,-555,-490,0
3977,-555,-492,0
3970,-558,-492,0
3968,-561,-496,0
3974,-560,-500,0
3976,-561,-501,0
3976,-568,-497,0
3975,-572,-495,0
3978,-575,-494,0
3982,-576,-492,0
3989,-579,-489,0
4000,-582,-479,0
4014,-582,-468,0
4031,-587,-461,0
4047,-596,-457,0
4062,-604,-456,0
4068,-612,-452,0
4075,-611,-453,0
4079,-614,-450,0
4077,-610,-453,0
4074,-607,-451,0
4066,-600,-456,0
4056,-596,-469,0
4048,-590,-476,0
4036,-588,-482,0
4020,-579,-486,0
4006,-573,-483,0
3993,-566,-479,0
3981,-562,-477,0
3968,-561,-466,0
3962,-561,-458,0
3961,-562,-445,0
3962,-563,-439,0
3968,-566,-441,0
3975,-573,-439,0
3979,-576,-440,0
3990,-577,-440,0
3998,-577,-442,0
4008,-577,-442,0
4024,-577,-444,0
4034,-578,-443,0
4050,-574,-453,0
4062,-570,-460,0
4067,-568,-465,0
4074,-557,-467,0
4074,-554,-472,0
4075,-550,-472,0
4076,-546,-469,0
4072,-547,-470,0
4073,-550,-463,0
4076,-553,-456,0
4076,-549,-452,0
4076,-553,-451,0
4077,-557,-450,0
4078,-565,-442,0
4075,-572,-438,0
4077,-574,-440,0
4072,-573,-440,0
4061,-578,-441,0
4052,-577,-446,0
4036,-571,-455,0
4019,-561,-460,0
4005,-555,-468,0
3988,-552,-472,0
3966,-548,-469,0
3947,-544,-474,0
3928,-538,-471,0
3919,-532,-462,0
3907,-527,-458,0
3893,-525,-452,0
3886,-519,-448,0
3885,-516,-448,0
3888,-510,-441,0
3892,-509,-430,0
3905,-509,-419,0
3926,-509,-414,0
3951,-510,-407,0
3980,-512,-401,0
4005,-514,-398,0
4032,-512,-397,0
4063,-510,-405,0
4083,-505,-412,0
4098,-500,-418,0
4112,-497,-419,0
4124,-489,-426,0
4128,-481,-427,0
4133,-475,-431,0
4132,-474,-434,0
4128,-476,-433,0
4125,-481,-439,0
4124,-488,-443,0
4124,-494,-438,0
4118,-504,-434,0
4116,-516,-433,0
4111,-518,-435,0
4106,-521,-442,0
4099,-533,-442,0
4083,-542,-448,0
4064,-550,-457,0
4039,-550,-466,0
4005,-547,-479,0
3972,-550,-491,0
3934,-549,-494,0
3897,-546,-503,0
3864,-538,-509,0
3834,-535,-507,0
3808,-533,-498,0
3791,-523,-481,0
3782,-518,-470,0
3787,-517,-455,0
3801,-519,-443,0
3822,-523,-428,0
3855,-528,-411,0
3902,-531,-399,0
3954,-529,-393,0
4012,-527,-386,0
4061,-521,-371,0
4105,-512,-365,0
4150,-499,-371,0
4184,-488,-381,0
4223,-477,-398,0
4244,-472,-409,0
4261,-465,-421,0
4276,-457,-436,0
4284,-453,-450,0
4286,-444,-457,0
4278,-441,-466,0
4266,-438,-472,0
4248,-442,-482,0
4214,-446,-483,0
4175,-451,-487,0
4137,-458,-494,0
4090,-464,-500,0
4031,-472,-505,0
3976,-481,-511,0
3928,-490,-514,0
3880,-496,-514,0
3840,-502,-515,0
3803,-509,-516,0
3774,-514,-510,0
3749,-519,-506,0
3732,-523,-495,0
3725,-526,-482,0
3730,-527,-475,0
3750,-531,-461,0
3775,-539,-450,0
3812,-548,-436,0
3858,-551,-427,0
3909,-557,-420,0
3964,-565,-409,0
4022,-566,-400,0
4067,-560,-393,0
4116,-548,-388,0
4159,-537,-384,0
4199,-520,-378,0
4231,-505,-384,0
4256,-490,-397,0
4281,-480,-415,0
4300,-469,-431,0
4317,-464,-445,0
4326,-459,-461,0
4330,-459,-476,0
4328,-452,-485,0
4314,-449,-492,0
4292,-451,-499,0
4251,-450,-508,0
4201,-451,-516,0
4143,-455,-531,0
4069,-467,-543,0
3987,-471,-551,0
3908,-477,-561,0
3842,-487,-574,0
3783,-499,-577,0
3734,-509,-575,0
3693,-518,-571,0
3659,-524,-568,0
3645,-520,-554,0
3643,-516,-536,0
3652,-517,-511,0
3676,-522,-485,0
3707,-532,-461,0
3755,-544,-433,0
3808,-557,-409,0
3879,-570,-383,0
3945,-571,-373,0
4022,-564,-373,0
4086,-547,-377,0
4147,-529,-382,0
4203,-511,-387,0
4253,-496,-402,0
4293,-482,-414,0
4332,-472,-425,0
4362,-459,-430,0
4387,-451,-437,0
4401,-446,-447,0
4412,-441,-457,0
4406,-437,-461,0
4386,-439,-463,0
4354,-439,-468,0
4307,-441,-474,0
4251,-443,-484,0
4193,-450,-495,0
4131,-464,-509,0
4065,-481,-526,0
3999,-498,-550,0
3933,-511,-573,0
3867,-529,-590,0
3808,-542,-606,0
3755,-549,-612,0
3703,-551,-618,0
3662,-555,-618,0
3622,-557,-605,0
3594,-558,-586,0
3581,-550,-564,0
3584,-544,-539,0
3599,-545,-511,0
3626,-549,-485,0
3663,-549,-451,0
3711,-551,-427,0
3774,-557,-405,0
3852,-557,-382,0
3945,-554,-358,0
4030,-546,-344,0
4120,-534,-341,0
4210,-522,-345,0
4296,-510,-348,0
4369,-497,-354,0
4424,-484,-370,0
4461,-466,-391,0
4482,-449,-411,0
4487,-434,-433,0
4474,-421,-451,0
4452,-412,-464,0
4414,-398,-477,0
4366,-388,-491,0
4308,-385,-491,0
4236,-385,-501,0
4167,-394,-512,0
4092,-412,-526,0
4015,-437,-540,0
3937,-468,-552,0
3860,-503,-567,0
3797,-529,-587,0
3748,-547,-602,0
3706,-554,-608,0
3672,-562,-614,0
3644,-569,-613,0
3629,-573,-616,0
3625,-573,-607,0
3632,-572,-592,0
3644,-574,-575,0
3664,-581,-555,0
3688,-590,-535,0
3721,-593,-507,0
3767,-585,-466,0
3825,-565,-432,0
3895,-545,-409,0
3978,-534,-391,0
4064,-531,-385,0
4159,-525,-382,0
4251,-523,-379,0
4336,-513,-386,0
4410,-500,-392,0
4466,-486,-397,0
4503,-470,-408,0
4523,-456,-416,0
4522,-440,-433,0
4494,-429,-462,0
4453,-420,-485,0
4398,-416,-502,0
4332,-417,-520,0
4253,-419,-533,0
4170,-420,-543,0
4066,-427,-552,0
3962,-438,-562,0
3866,-450,-567,0
3775,-455,-567,0
3701,-462,-565,0
3644,-474,-567,0
3606,-486,-558,0
3589,-502,-553,0
3593,-515,-544,0
3611,-527,-529,0
3639,-536,-508,0
3673,-540,-486,0
3711,-541,-468,0
3761,-550,-451,0
3818,-558,-441,0
3872,-559,-433,0
3934,-551,-434,0
3998,-534,-439,0
4056,-518,-454,0
4120,-509,-467,0
4184,-504,-472,0
4240,-499,-471,0
4293,-492,-468,0
4335,-484,-457,0
4364,-481,-449,0
4384,-479,-447,0
4397,-473,-457,0
4399,-469,-470,0
4379,-463,-481,0
4339,-459,-486,0
4287,-451,-500,0
4225,-445,-508,0
4162,-450,-513,0
4092,-456,-513,0
4026,-471,-514,0
3962,-484,-512,0
3911,-505,-509,0
3870,-529,-495,0
3843,-551,-488,0
3829,-568,-476,0
3824,-577,-465,0
3826,-576,-466,0
3832,-581,-472,0
3841,-585,-477,0
3846,-582,-479,0
3849,-574,-480,0
3850,-563,-474,0
3854,-544,-469,0
3854,-527,-464,0
3866,-517,-464,0
3885,-510,-465,0
3915,-510,-474,0
3954,-514,-484,0
3998,-517,-487,0
4045,-516,-485,0
4079,-515,-481,0
4111,-511,-471,0
4138,-505,-465,0
4148,-498,-462,0
4150,-489,-461,0
4145,-479,-464,0
4134,-481,-471,0
4121,-485,-475,0
4111,-489,-480,0
4102,-488,-483,0
4091,-492,-480,0
4081,-490,-468,0
4070,-497,-452,0
4063,-502,-440,0
4063,-508,-427,0
4068,-521,-420,0
4083,-531,-421,0
4091,-544,-434,0
4096,-558,-451,0
4099,-566,-475,0
4099,-570,-491,0
4097,-569,-503,0
4083,-562,-511,0
4068,-552,-521,0
4050,-544,-531,0
4033,-541,-536,0
4020,-537,-542,0
4005,-535,-550,0
3990,-534,-557,0
3969,-530,-557,0
3947,-518,-550,0
3922,-505,-535,0
3898,-491,-515,0
3883,-477,-489,0
3883,-465,-470,0
3894,-474,-454,0
3921,-487,-439,0
3955,-506,-436,0
3994,-526,-436,0
4030,-534,-440,0
4057,-536,-441,0
4070,-526,-432,0
4071,-506,-425,0
4072,-491,-423,0
4063,-479,-422,0
4051,-473,-420,0
4047,-468,-423,0
4045,-473,-436,0
4051,-479,-448,0
4059,-494,-464,0
4062,-503,-471,0
4056,-509,-476,0
4051,-511,-478,0
4043,-514,-482,0
4039,-518,-485,0
4028,-516,-485,0
4020,-515,-493,0
4009,-515,-508,0
3997,-520,-527,0
3980,-525,-539,0
3959,-527,-545,0
3940,-527,-545,0
3920,-519,-543,0
3908,-517,-535,0
3900,-515,-522,0
3906,-519,-506,0
3919,-528,-489,0
3952,-538,-486,0
3990,-545,-480,0
4028,-552,-473,0
4064,-553,-464,0
4085,-550,-463,0
4104,-549,-463,0
4121,-544,-466,0
4131,-539,-467,0
4135,-534,-470,0
4134,-533,-475,0
4132,-534,-483,0
4125,-528,-493,0
4122,-530,-497,0
4117,-527,-502,0
4114,-526,-507,0
4112,-528,-504,0
4109,-534,-499,0
4105,-542,-495,0
4099,-550,-491,0
4089,-561,-490,0
4071,-569,-487,0
4047,-579,-483,0
4016,-581,-486,0
3983,-580,-488,0
3953,-580,-495,0
3927,-577,-494,0
3903,-574,-492,0
3890,-566,-485,0
3882,-559,-482,0
3882,-556,-482,0
3882,-552,-480,0
3890,-546,-472,0
3908,-539,-467,0
3929,-530,-468,0
3957,-530,-467,0
3993,-529,-466,0
4025,-532,-468,0
4055,-533,-469,0
4078,-534,-469,0
4097,-534,-471,0
4116,-538,-475,0
4131,-536,-474,0
4141,-533,-476,0
4153,-531,-482,0
4162,-530,-483,0
4171,-536,-484,0
4180,-538,-485,0
4194,-545,-491,0
4201,-551,-494,0
4209,-556,-496,0
4209,-558,-494,0
4206,-555,-491,0
4201,-554,-496,0
4187,-555,-498,0
4172,-567,-506,0
4155,-574,-510,0
4131,-576,-513,0
4116,-575,-523,0
4104,-577,-530,0
4087,-583,-533,0
4068,-586,-535,0
4057,-586,-531,0
4049,-586,-529,0
4047,-592,-528,0
4050,-600,-522,0
4040,-607,-514,0
4037,-598,-513,0
4034,-588,-512,0
4035,-578,-507,0
4034,-570,-503,0
4032,-561,-493,0
4035,-554,-489,0
4041,-549,-485,0
4052,-544,-477,0
4069,-540,-465,0
4086,-537,-459,0
4111,-533,-450,0
4138,-534,-450,0
4166,-538,-453,0
4192,-539,-456,0
4216,-530,-458,0
4236,-521,-454,0
4251,-520,-453,0
4262,-520,-456,0
4272,-521,-456,0
4279,-526,-459,0
4282,-530,-467,0
4277,-538,-480,0
4269,-536,-493,0
4254,-540,-500,0
4242,-541,-499,0
4230,-540,-498,0
4220,-542,-499,0
4211,-540,-500,0
4204,-546,-506,0
4202,-553,-511,0
4196,-559,-517,0
4192,-568,-525,0
4184,-575,-532,0
4174,-578,-534,0
4160,-579,-537,0
4144,-586,-538,0
4133,-595,-532,0
4124,-594,-529,0
4114,-589,-524,0
4107,-589,-518,0
4104,-588,-513,0
4102,-581,-505,0
4101,-576,-501,0
4095,-571,-494,0
4094,-566,-486,0
4093,-558,-482,0
4091,-549,-477,0
4092,-539,-473,0
4086,-527,-471,0
4086,-520,-470,0
4090,-514,-464,0
4095,-502,-462,0
4099,-501,-457,0
4110,-500,-451,0
4124,-496,-446,0
4138,-498,-438,0
4153,-503,-435,0
4169,-508,-433,0
4181,-509,-437,0
4196,-511,-437,0
4208,-511,-445,0
4225,-515,-454,0
4244,-518,-457,0
4258,-519,-459,0
4271,-521,-465,0
4291,-526,-474,0
4308,-534,-484,0
4320,-537,-496,0
4326,-539,-508,0
4328,-545,-517,0
4327,-547,-525,0
4316,-547,-530,0
4311,-550,-535,0
4301,-559,-540,0
4292,-570,-539,0
4280,-579,-542,0
4276,-591,-537,0
4270,-600,-535,0
4263,-608,-531,0
4254,-615,-526,0
4245,-615,-522,0
4237,-615,-518,0
4224,-613,-512,0
4215,-613,-507,0
4207,-615,-501,0
4200,-616,-495,0
4194,-618,-492,0
4191,-616,-484,0
4183,-610,-480,0
4176,-606,-473,0
4174,-593,-464,0
4174,-584,-457,0
4173,-574,-456,0
4175,-569,-455,0
4177,-563,-454,0
4182,-554,-455,0
4187,-546,-453,0
4186,-538,-452,0
4187,-534,-454,0
4186,-525,-459,0
4185,-526,-464,0
4186,-521,-470,0
4182,-524,-476,0
4179,-524,-478,0
4174,-524,-478,0
4173,-528,-477,0
4170,-524,-477,0
4168,-527,-479,0
4169,-533,-475,0
4172,-541,-475,0
4173,-549,-475,0
4178,-554,-476,0
4175,-564,-473,0
4180,-568,-474,0
4191,-574,-476,0
4196,-585,-478,0
4200,-596,-478,0
4204,-602,-480,0
4208,-605,-482,0
4218,-612,-482,0
4226,-623,-479,0
4231,-627,-478,0
4236,-630,-477,0
4252,-632,-476,0
4263,-637,-474,0
4274,-634,-473,0
4282,-631,-473,0
4291,-629,-475,0
4298,-624,-479,0
4302,-619,-481,0
4297,-614,-489,0
4294,-610,-497,0
4281,-601,-502,0
4265,-593,-510,0
4246,-585,-512,0
4227,-577,-516,0
4204,-575,-516,0
4187,-568,-509,0
4171,-566,-502,0
4153,-570,-498,0
4137,-573,-488,0
4128,-576,-482,0
4116,-581,-476,0
4108,-585,-471,0
4104,-585,-464,0
4102,-583,-461,0
4097,-582,-458,0
4097,-582,-460,0
4098,-583,-461,0
4099,-581,-459,0
4100,-578,-458,0
4104,-576,-461,0
4114,-572,-461,0
4120,-566,-459,0
4132,-562,-463,0
4146,-566,-468,0
4163,-567,-464,0
4176,-567,-462,0
4191,-571,-464,0
4202,-571,-462,0
4212,-571,-459,0
4220,-567,-458,0
4222,-568,-459,0
4222,-569,-461,0
4217,-568,-466,0
4220,-570,-470,0
4224,-571,-475,0
4225,-572,-476,0
4228,-576,-483,0
4230,-578,-490,0
4233,-583,-496,0
4237,-585,-504,0
4235,-588,-503,0
4230,-586,-506,0
4215,-588,-512,0
4202,-589,-512,0
4181,-588,-511,0
4162,-589,-508,0
4144,-590,-507,0
4127,-594,-505,0
4114,-596,-502,0
4107,-599,-503,0
4094,-599,-505,0
4088,-594,-503,0
4079,-589,-499,0
4075,-586,-490,0
4067,-579,-490,0
4069,-572,-484,0
4068,-562,-477,0
4070,-557,-469,0
4075,-553,-465,0
4080,-553,-468,0
4088,-553,-464,0
4095,-548,-463,0
4105,-547,-456,0
4120,-542,-443,0
4140,-539,-435,0
4164,-542,-424,0
4186,-544,-425,0
4206,-548,-428,0
4219,-550,-433,0
4227,-553,-440,0
4233,-547,-447,0
4235,-547,-455,0
4230,-544,-461,0
4220,-540,-473,0
4214,-539,-483,0
4207,-533,-492,0
4194,-536,-500,0
4180,-530,-507,0
4167,-529,-515,0
4154,-538,-519,0
4143,-551,-524,0
4133,-558,-526,0
4120,-569,-525,0
4110,-581,-528,0
4101,-587,-523,0
4091,-592,-517,0
4081,-600,-508,0
4071,-603,-498,0
4061,-604,-487,0
4052,-601,-477,0
4046,-599,-465,0
4042,-595,-458,0
4045,-586,-456,0
4048,-577,-456,0
4058,-568,-457,0
4067,-560,-460,0
4083,-552,-460,0
4094,-544,-464,0
4107,-533,-461,0
4121,-526,-461,0
4135,-521,-459,0
4149,-515,-458,0
4159,-513,-456,0
4167,-515,-456,0
4174,-515,-458,0
4177,-519,-463,0
4179,-525,-469,0
4178,-529,-475,0
4177,-535,-485,0
4174,-536,-488,0
4169,-536,-491,0
4161,-533,-492,0
4152,-533,-489,0
4141,-539,-491,0
4126,-544,-496,0
4114,-548,-505,0
4107,-555,-513,0
4103,-564,-519,0
4102,-570,-525,0
4092,-571,-530,0
4086,-579,-530,0
4079,-581,-530,0
4072,-579,-527,0
4066,-577,-521,0
4055,-575,-518,0
4051,-576,-511,0
4045,-580,-508,0
4038,-581,-505,0
4038,-581,-503,0
4042,-579,-498,0
4046,-580,-491,0
4052,-579,-483,0
4063,-579,-478,0
4072,-581,-473,0
4082,-580,-469,0
4082,-577,-469,0
4088,-569,-470,0
4093,-566,-474,0
4097,-561,-473,0
4098,-560,-477,0
4099,-557,-480,0
4100,-554,-480,0
4100,-552,-482,0
4100,-551,-481,0
4100,-552,-483,0
4098,-553,-485,0
4097,-553,-488,0
4094,-555,-493,0
4090,-553,-498,0
4084,-554,-505,0
4078,-556,-507,0
4074,-559,-515,0
4072,-558,-515,0
4069,-556,-515,0
4069,-556,-512,0
4072,-561,-511,0
4072,-562,-510,0
4069,-565,-509,0
4067,-565,-510,0
4067,-568,-508,0
4065,-567,-508,0
4064,-570,-505,0
4062,-570,-504,0
4058,-571,-502,0
4053,-570,-500,0
4051,-571,-491,0
4049,-569,-484,0
4048,-577,-477,0
4046,-579,-472,0
4046,-575,-467,0
4044,-576,-466,0
4046,-569,-463,0
4046,-563,-464,0
4047,-561,-469,0
4049,-555,-468,0
4048,-552,-469,0
4045,-549,-470,0
4046,-547,-469,0
4047,-544,-467,0
4049,-538,-466,0
4049,-533,-466,0
4052,-531,-463,0
4057,-532,-465,0
4063,-527,-467,0
4061,-525,-466,0
4056,-523,-471,0
4057,-522,-476,0
4061,-525,-479,0
4062,-525,-481,0
4065,-529,-484,0
4068,-535,-484,0
4066,-536,-486,0
4067,-538,-487,0
4062,-540,-490,0
4057,-543,-489,0
4054,-548,-492,0
4048,-546,-490,0
4041,-548,-490,0
4038,-554,-490,0
4033,-557,-486,0
4028,-559,-484,0
4024,-563,-483,0
4024,-569,-482,0
4025,-569,-480,0
4023,-575,-479,0
4022,-575,-478,0
4019,-574,-475,0
4024,-575,-477,0
4027,-573,-476,0
4026,-568,-476,0
4029,-570,-477,0
4030,-565,-475,0
4033,-557,-472,0
4034,-552,-469,0
4036,-549,-469,0
4037,-542,-465,0
4038,-538,-468,0
4034,-539,-471,0
4029,-534,-474,0
4024,-529,-476,0
4019,-523,-485,0
4015,-523,-490,0
4017,-527,-496,0
4016,-528,-499,0
4019,-528,-504,0
4019,-524,-508,0
4023,-522,-509,0
4026,-526,-504,0
4028,-532,-504,0
4027,-536,-502,0
4027,-539,-498,0
4024,-545,-502,0
4020,-551,-508,0
4016,-559,-513,0
4011,-562,-518,0
4007,-565,-517,0
4007,-567,-510,0
4007,-570,-502,0
4006,-574,-496,0
4010,-581,-491,0
4015,-587,-489,0
4015,-592,-489,0
4020,-594,-498,0
4022,-594,-497,0
4027,-596,-500,0
4030,-593,-502,0
4030,-591,-506,0
4028,-588,-511,0
4030,-582,-509,0
4032,-579,-509,0
4035,-575,-511,0
4036,-571,-511,0
4036,-566,-509,0
4036,-564,-503,0
4034,-562,-498,0
4030,-563,-505,0
4029,-561,-507,0
4027,-556,-509,0
4030,-556,-514,0
4026,-552,-518,0
4025,-554,-517,0
4022,-550,-521,0
4020,-550,-523,0
4018,-548,-524,0
4014,-550,-523,0
4016,-548,-522,0
4014,-549,-522,0
4013,-547,-520,0
4011,-554,-519,0
4010,-554,-520,0
4014,-558,-520,0
4015,-563,-519,0
4014,-566,-519,0
4013,-571,-515,0
4012,-578,-508,0
4013,-582,-505,0
4012,-581,-499,0
4012,-582,-497,0
4008,-582,-500,0
4007,-580,-504,0
4007,-584,-506,0
4007,-581,-507,0
4007,-582,-507,0
4008,-576,-506,0
4009,-575,-507,0
4012,-575,-508,0
4011,-572,-504,0
4011,-571,-504,0
4011,-568,-508,0
4014,-569,-508,0
4015,-570,-509,0
4016,-570,-512,0
4016,-569,-515,0
4020,-569,-517,0
4023,-570,-519,0
4019,-568,-527,0
4020,-567,-530,0
4023,-566,-529,0
4024,-568,-528,0
4024,-568,-526,0
4022,-569,-525,0
4023,-570,-528,0
4025,-571,-531,0
4025,-571,-531,0
4019,-566,-531,0
4016,-568,-528,0
4013,-568,-526,0
4010,-568,-523,0
4008,-570,-519,0
4007,-566,-518,0
4007,-568,-513,0
4010,-572,-511,0
4014,-574,-513,0
4016,-574,-514,0
4019,-573,-515,0
4019,-573,-520,0
4019,-574,-523,0
4018,-575,-523,0
4017,-578,-525,0
4019,-578,-527,0
4016,-579,-527,0
4015,-576,-525,0
4016,-572,-526,0
4016,-571,-523,0
4015,-571,-524,0
4014,-572,-522,0
4017,-572,-521,0
4020,-573,-515,0
4023,-570,-513,0
4023,-569,-513,0
4023,-566,-513,0
4019,-565,-515,0
4016,-566,-516,0
4015,-571,-517,0
4014,-572,-521,0
4014,-572,-523,0
4012,-573,-528,0
4011,-573,-529,0
4011,-574,-532,0
4014,-574,-530,0
4016,-574,-530,0
4020,-575,-533,0
4016,-577,-527,0
4019,-578,-529,0
4021,-578,-527,0
4017,-579,-525,0
4013,-582,-526,0
4011,-581,-527,0
4009,-580,-524,0
4010,-578,-525,0
4009,-576,-526,0
4010,-577,-524,0
4013,-579,-522,0
4014,-583,-519,0
4017,-580,-518,0
4019,-578,-516,0
4018,-579,-517,0
4022,-578,-522,0
4020,-578,-520,0
4017,-581,-521,0
4017,-577,-522,0
4018,-579,-524,0
4015,-578,-528,0
4015,-580,-529,0
4012,-578,-526,0
4015,-580,-528,0
4016,-582,-528,0
4019,-579,-526,0
4015,-579,-522,0
4015,-578,-525,0
4016,-576,-522,0
4018,-581,-524,0
4017,-584,-524,0
4017,-582,-525,0
4013,-579,-524,0
4019,-583,-525,0
4019,-578,-523,0
4019,-578,-521,0
4021,-578,-523,0
4020,-581,-526,0
4020,-582,-529,0
4022,-580,-530,0
4026,-581,-531,0
4027,-581,-534,0
4027,-577,-531,0
4028,-573,-533,0
4025,-571,-532,0
4027,-568,-530,0
4023,-567,-529,0
4022,-571,-525,0
4017,-571,-524,0
4014,-569,-524,0
4009,-571,-522,0
4009,-572,-523,0
4008,-574,-523,0
4009,-576,-528,0
4011,-576,-527,0
4012,-572,-530,0
4014,-567,-532,0
4015,-564,-533,0
4017,-555,-529,0
4017,-551,-527,0
4021,-554,-523,0
4019,-557,-522,0
4016,-561,-525,0
4017,-564,-530,0
4016,-562,-531,0
4012,-563,-525,0
4008,-563,-519,0
4010,-562,-516,0
4014,-560,-515,0
4015,-560,-515,0
4015,-561,-520,0
4013,-563,-523,0
4010,-564,-526,0
4008,-561,-529,0
4007,-559,-528,0
4004,-555,-526,0
4005,-558,-523,0
4005,-561,-527,0
4006,-562,-527,0
4012,-563,-523,0
4013,-568,-525,0
4013,-569,-522,0
4014,-570,-525,0
4013,-571,-526,0
4010,-572,-528,0
4014,-576,-529,0
4017,-578,-531,0
4014,-576,-530,0
4016,-577,-531,0
4017,-572,-528,0
4021,-569,-524,0
4023,-572,-526,0
4027,-570,-527,0
4025,-567,-529,0
4022,-566,-529,0
4028,-563,-533,0
4024,-565,-534,0
4024,-564,-541,0
4021,-564,-538,0
4018,-563,-535,0
4016,-563,-533,0
4017,-566,-531,0
4017,-569,-530,0
4013,-573,-530,0
4010,-571,-530,0
4008,-574,-530,0
4008,-574,-528,0
4004,-573,-530,0
4002,-572,-531,0
4003,-568,-530,0
4006,-567,-531,0
4009,-566,-526,0
4013,-567,-524,0
4018,-568,-522,0
4019,-572,-521,0
4019,-570,-522,0
4018,-570,-525,0
4013,-573,-526,0
4015,-573,-526,0
4019,-572,-527,0
4018,-573,-530,0
4018,-577,-527,0
4020,-577,-526,0
4019,-577,-526,0
4020,-575,-528,0
4016,-576,-528,0
4014,-576,-529,0
4012,-577,-530,0
4010,-578,-529,0
4010,-579,-532,0
4012,-577,-535,0
4010,-576,-537,0
4015,-575,-536,0
4018,-573,-530,0
4019,-575,-529,0
4022,-578,-529,0
4021,-581,-530,0
4023,-581,-529,0
4024,-579,-532,0
4026,-576,-534,0
4021,-573,-534,0
4016,-572,-538,0
4008,-572,-543,0
4009,-573,-543,0
4007,-575,-541,0
4006,-577,-540,0
4007,-583,-540,0
4007,-584,-539,0
4010,-585,-538,0
4008,-585,-536,0
4010,-585,-539,0
4009,-582,-539,0
4009,-588,-542,0
4007,-588,-542,0
4005,-587,-541,0
4009,-586,-540,0
4007,-586,-543,0
4008,-582,-543,0
4007,-581,-543,0
4006,-581,-540,0
4010,-582,-538,0
4010,-584,-532,0
4008,-588,-527,0
4010,-590,-529,0
4011,-590,-528,0
4013,-588,-530,0
4011,-587,-534,0
4012,-588,-537,0
4015,-586,-537,0
4016,-584,-537,0
4015,-586,-538,0
4014,-586,-541,0
4017,-585,-541,0
4015,-587,-542,0
4014,-584,-543,0
4015,-582,-541,0
4014,-576,-539,0
4014,-575,-537,0
4015,-575,-532,0
4016,-576,-533,0
4019,-578,-534,0
4022,-577,-536,0
4022,-579,-537,0
4020,-576,-538,0
4021,-579,-542,0
4018,-579,-543,0
4017,-576,-546,0
4022,-576,-541,0
4019,-577,-541,0
4020,-577,-542,0
4018,-574,-543,0
4016,-570,-543,0
4014,-568,-540,0
4012,-570,-543,0
4014,-571,-542,0
4012,-568,-538,0
4010,-567,-543,0
4009,-564,-541,0
4011,-565,-542,0
4009,-561,-541,0
4013,-565,-540,0
4013,-565,-540,0
4015,-562,-544,0
4019,-565,-547,0
4022,-567,-549,0
4020,-568,-547,0
4024,-566,-544,0
4023,-565,-545,0
4022,-566,-542,0
4019,-569,-540,0
4015,-569,-535,0
4012,-573,-529,0
4010,-570,-531,0
4008,-575,-532,0
4010,-581,-532,0
4009,-580,-537,0
4010,-579,-539,0
4009,-578,-543,0
4006,-572,-543,0
4007,-564,-550,0
4012,-556,-549,0
4014,-552,-549,0
4016,-550,-545,0
4018,-548,-544,0
4021,-549,-542,0
4018,-553,-545,0
4014,-554,-548,0
4010,-557,-548,0
4005,-562,-542,0
4006,-563,-539,0
4008,-568,-534,0
4013,-572,-531,0
4019,-577,-531,0
4020,-578,-535,0
4019,-580,-531,0
4020,-576,-535,0
4020,-576,-536,0
4018,-573,-539,0
4015,-566,-540,0
4013,-564,-544,0
4015,-565,-544,0
4014,-565,-545,0
4012,-560,-549,0
4012,-558,-552,0
4015,-559,-550,0
4019,-559,-548,0
4016,-556,-546,0
4016,-555,-546,0
4019,-555,-541,0
4020,-553,-541,0
4019,-551,-545,0
4019,-549,-544,0
4019,-550,-543,0
4017,-543,-536,0
4020,-545,-532,0
4020,-545,-530,0
4022,-548,-534,0
4019,-546,-539,0
4017,-544,-542,0
4019,-547,-541,0
4021,-550,-540,0
4023,-550,-541,0
4025,-550,-539,0
4026,-554,-536,0
4025,-552,-532,0
4023,-553,-527,0
4021,-556,-527,0
4020,-558,-525,0
4019,-555,-526,0
4021,-552,-527,0
4018,-554,-528,0
4019,-551,-531,0
4016,-549,-533,0
4018,-544,-537,0
4018,-541,-536,0
4023,-541,-540,0
4021,-545,-542,0
4020,-540,-540,0
4019,-539,-542,0
4018,-540,-541,0
4021,-542,-538,0
4019,-543,-537,0
4017,-544,-536,0
4012,-548,-533,0
4009,-551,-531,0
4011,-554,-527,0
4012,-557,-524,0
4013,-555,-524,0
4013,-554,-525,0
4015,-552,-525,0
4021,-552,-525,0
4018,-546,-526,0
4013,-545,-527,0
4014,-546,-526,0
4016,-551,-524,0
4016,-548,-528,0
4015,-548,-528,0
4016,-544,-529,0
4016,-542,-528,0
4013,-541,-527,0
4016,-541,-529,0
4015,-541,-533,0
4015,-540,-531,0
4018,-546,-532,0
4021,-546,-527,0
4025,-546,-529,0
4027,-545,-528,0
4027,-545,-530,0
4026,-546,-529,0
4025,-546,-527,0
4022,-545,-529,0
4022,-549,-531,0
4018,-548,-530,0
4017,-547,-532,0
4017,-550,-531,0
4014,-550,-531,0
4014,-550,-528,0
4015,-551,-528,0
4016,-551,-527,0
4016,-549,-526,0
4019,-547,-525,0
4018,-548,-524,0
4020,-546,-520,0
4024,-543,-519,0
4025,-544,-518,0
4026,-543,-518,0
4024,-542,-524,0
4021,-541,-525,0
4017,-543,-529,0
4016,-542,-529,0
4018,-542,-525,0
4016,-543,-521,0
4018,-540,-518,0
4018,-538,-516,0
4017,-540,-518,0
4022,-541,-517,0
4020,-546,-520,0
4018,-547,-516,0
4014,-543,-518,0
4018,-541,-518,0
4015,-539,-518,0
4015,-539,-519,0
4017,-536,-521,0
4014,-536,-522,0
4014,-532,-524,0
4015,-528,-521,0
4018,-529,-528,0
4017,-526,-526,0
4021,-528,-526,0
4020,-527,-524,0
4024,-530,-525,0
4026,-534,-523,0
4026,-535,-521,0
4026,-533,-520,0
4027,-536,-521,0
4025,-536,-522,0
4023,-538,-521,0
4020,-539,-522,0
4021,-540,-522,0
4017,-543,-523,0
4015,-541,-523,0
4012,-540,-523,0
4015,-540,-521,0
4017,-537,-521,0
4017,-532,-524,0
4019,-537,-525,0
4018,-537,-526,0
4021,-534,-528,0
4021,-535,-528,0
4021,-535,-528,0
4024,-532,-526,0
4020,-532,-521,0
4020,-536,-516,0
4018,-540,-513,0
4017,-545,-514,0
4018,-546,-509,0
4019,-552,-507,0
4017,-554,-508,0
4017,-553,-514,0
4017,-554,-514,0
4015,-552,-521,0
4018,-547,-528,0
4026,-545,-529,0
4028,-540,-526,0
4030,-534,-521,0
4029,-530,-523,0
4028,-525,-523,0
4028,-525,-526,0
4030,-524,-530,0
4023,-524,-536,0
4020,-524,-536,0
4022,-523,-533,0
4017,-522,-526,0
4019,-520,-525,0
4022,-522,-521,0
4022,-524,-520,0
4026,-523,-519,0
4027,-525,-518,0
4027,-528,-517,0
4024,-527,-521,0
4022,-534,-520,0
4020,-532,-520,0
4017,-530,-520,0
4014,-530,-519,0
4016,-530,-518,0
4014,-531,-518,0
4014,-533,-516,0
4011,-536,-516,0
4012,-535,-517,0
4009,-539,-517,0
4012,-540,-521,0
4012,-538,-522,0
4013,-539,-520,0
4013,-541,-528,0
4015,-540,-522,0
4019,-540,-524,0
4018,-542,-526,0
4020,-542,-523,0
4021,-544,-521,0
4022,-546,-520,0
4022,-547,-520,0
4024,-542,-526,0
4030,-543,-531,0
4030,-545,-531,0
4034,-550,-532,0
4031,-553,-530,0
4032,-552,-529,0
4034,-550,-524,0
4027,-551,-521,0
4025,-549,-520,0
4024,-546,-519,0
4020,-544,-520,0
4017,-542,-516,0
4015,-541,-516,0
4012,-540,-521,0
4010,-539,-522,0
4011,-536,-519,0
4012,-533,-520,0
4014,-535,-524,0
4018,-536,-527,0
4020,-537,-528,0
4021,-543,-526,0
4021,-544,-523,0
4018,-546,-522,0
4017,-550,-520,0
4014,-553,-520,0
4012,-553,-519,0
4013,-553,-517,0
4013,-552,-520,0
4011,-551,-520,0
4010,-549,-522,0
4010,-550,-524,0
4011,-550,-525,0
4009,-545,-528,0
4009,-544,-527,0
4011,-544,-527,0
4013,-542,-529,0
4015,-543,-529,0
4020,-546,-527,0
4023,-543,-528,0
4022,-543,-526,0
4024,-548,-524,0
4023,-546,-528,0
4022,-549,-528,0
4021,-552,-527,0
4017,-554,-531,0
4017,-555,-528,0
4020,-558,-530,0
4025,-559,-530,0
4026,-557,-536,0
4023,-553,-534,0
4025,-549,-536,0
4024,-554,-536,0
4026,-555,-540,0
4028,-556,-536,0
4025,-558,-534,0
4029,-558,-536,0
4025,-558,-537,0
4023,-560,-533,0
4020,-559,-537,0
4015,-558,-533,0
4014,-558,-530,0
4012,-557,-528,0
4013,-552,-527,0
4013,-551,-525,0
4008,-549,-523,0
4009,-548,-519,0
4009,-545,-524,0
4011,-545,-526,0
4013,-542,-527,0
4017,-540,-526,0
4020,-542,-529,0
4022,-543,-532,0
4023,-541,-536,0
4022,-546,-538,0
4022,-546,-539,0
4021,-548,-538,0
4024,-546,-538,0
4025,-545,-538,0
4024,-546,-540,0
4018,-543,-541,0
4018,-545,-538,0
4013,-546,-535,0
4010,-548,-537,0
4011,-545,-538,0
4005,-545,-536,0
4008,-545,-535,0
4008,-543,-532,0
4012,-544,-532,0
4011,-542,-531,0
4013,-539,-528,0
4012,-537,-530,0
4014,-539,-532,0
4015,-538,-528,0
4014,-542,-528,0
4017,-544,-532,0
4019,-546,-533,0
4021,-552,-534,0
4020,-553,-541,0
4020,-554,-540,0
4020,-554,-539,0
4017,-554,-539,0
4015,-555,-537,0
4016,-554,-540,0
4013,-550,-540,0
4009,-548,-547,0
4007,-554,-545,0
4006,-557,-547,0
4004,-555,-550,0
4006,-553,-548,0
4009,-552,-544,0
4015,-559,-543,0
4020,-558,-541,0
4023,-557,-538,0
4029,-558,-540,0
4032,-559,-542,0
4034,-561,-538,0
4035,-560,-545,0
4033,-558,-543,0
4030,-556,-547,0
4026,-555,-548,0
4024,-558,-550,0
4022,-559,-547,0
4019,-559,-547,0
4016,-558,-549,0
4013,-556,-548,0
4016,-559,-550,0
4014,-562,-547,0
4013,-560,-551,0
4011,-558,-557,0
4011,-556,-556,0
4011,-551,-552,0
4013,-552,-545,0
4013,-550,-541,0
4014,-552,-537,0
4015,-554,-540,0
4014,-559,-544,0
4015,-561,-548,0
4007,-559,-552,0
4006,-555,-552,0
4004,-552,-547,0
4006,-555,-544,0
4008,-553,-538,0
4008,-556,-533,0
4009,-561,-532,0
4008,-557,-536,0
4010,-555,-540,0
4010,-548,-539,0
4011,-544,-538,0
4010,-540,-540,0
4011,-537,-541,0
4017,-533,-537,0
4017,-534,-533,0
4018,-534,-537,0
4018,-536,-535,0
4022,-538,-535,0
4025,-543,-535,0
4025,-542,-533,0
4028,-540,-536,0
4027,-540,-539,0
4023,-541,-540,0
4020,-540,-544,0
4018,-540,-546,0
4015,-539,-547,0
4014,-539,-547,0
4014,-541,-545,0
4016,-541,-543,0
4016,-542,-543,0
4018,-545,-541,0
4020,-544,-541,0
4019,-548,-542,0
4020,-550,-545,0
4021,-546,-546,0
4020,-544,-550,0
4022,-543,-550,0
4022,-542,-551,0
4019,-542,-550,0
4017,-540,-549,0
4014,-539,-543,0
4011,-542,-540,0
4004,-542,-537,0
4003,-544,-533,0
4004,-549,-532,0
4010,-550,-531,0
4013,-545,-525,0
4020,-538,-523,0
4028,-535,-515,0
4035,-533,-513,0
4040,-527,-513,0
4044,-522,-512,0
4039,-516,-510,0
4036,-512,-510,0
4032,-509,-507,0
4029,-506,-512,0
4024,-503,-512,0
4020,-500,-513,0
4016,-497,-516,0
4013,-497,-516,0
4012,-502,-518,0
4008,-507,-521,0
4009,-509,-524,0
4012,-511,-525,0
4013,-506,-521,0
4014,-509,-521,0
4016,-512,-521,0
4021,-513,-515,0
4027,-516,-512,0
4030,-516,-508,0
4029,-515,-507,0
4027,-519,-502,0
4028,-514,-496,0
4028,-512,-496,0
4029,-513,-496,0
4030,-515,-496,0
4032,-513,-499,0
4034,-509,-498,0
4038,-508,-502,0
4037,-507,-505,0
4035,-510,-506,0
4034,-508,-508,0
4035,-512,-506,0
4033,-519,-504,0
4034,-524,-504,0
4034,-530,-502,0
4030,-533,-498,0
4023,-536,-495,0
4019,-538,-496,0
4013,-539,-496,0
4012,-541,-496,0
4009,-537,-497,0
4008,-537,-495,0
4006,-539,-495,0
4008,-539,-490,0
4011,-541,-488,0
4011,-540,-481,0
4017,-542,-477,0
4019,-541,-477,0
4021,-540,-471,0
4025,-540,-469,0
4031,-539,-467,0
4035,-542,-470,0
4039,-549,-471,0
4042,-548,-471,0
4048,-547,-471,0
4053,-546,-472,0
4058,-548,-474,0
4058,-548,-475,0
4058,-547,-474,0
4054,-544,-475,0
4057,-546,-474,0
4057,-547,-475,0
4051,-545,-473,0
4045,-544,-469,0
4037,-547,-466,0
4031,-547,-464,0
4025,-546,-457,0
4021,-550,-451,0
4020,-552,-440,0
4017,-552,-435,0
4025,-555,-426,0
4023,-560,-429,0
4021,-561,-426,0
4017,-570,-424,0
4016,-572,-421,0
4011,-573,-419,0
4005,-575,-422,0
4003,-579,-427,0
3997,-578,-425,0
3993,-572,-428,0
3990,-569,-431,0
3991,-562,-431,0
3995,-556,-423,0
3999,-545,-414,0
4001,-536,-409,0
4005,-530,-401,0
4011,-528,-401,0
4010,-529,-405,0
4012,-526,-406,0
4016,-527,-409,0
4018,-521,-408,0
4029,-513,-401,0
4040,-513,-392,0
4049,-506,-389,0
4060,-501,-383,0
4067,-500,-388,0
4066,-498,-393,0
4060,-500,-404,0
4050,-501,-412,0
4036,-496,-415,0
4024,-485,-414,0
4009,-476,-408,0
3994,-477,-409,0
3985,-479,-415,0
3977,-488,-430,0
3970,-497,-444,0
3969,-505,-451,0
3966,-506,-456,0
3966,-505,-469,0
3964,-503,-486,0
3965,-503,-514,0
3967,-486,-517,0
3970,-466,-519,0
3970,-437,-518,0
3980,-416,-524,0
3994,-406,-530,0
4003,-400,-538,0
4023,-407,-540,0
4043,-414,-537,0
4053,-432,-538,0
4051,-480,-630,0
4061,-483,-655,0
4066,-481,-658,0
4076,-474,-666,0
4086,-452,-661,0
4093,-431,-659,0
4096,-423,-660,0
4093,-432,-666,0
4083,-447,-669,0
4068,-453,-658,0
4044,-457,-637,0
4013,-459,-621,0
3983,-449,-608,0
3951,-436,-599,0
3915,-427,-597,0
3885,-411,-596,0
3864,-404,-594,0
3850,-401,-584,0
3848,-400,-562,0
3858,-406,-527,0
3880,-418,-489,0
3903,-427,-446,0
3936,-427,-399,0
3966,-417,-362,0
3992,-392,-332,0
4013,-361,-313,0
4020,-327,-311,0
4025,-287,-317,0
4022,-254,-325,0
4016,-225,-338,0
4007,-204,-354,0
3993,-189,-374,0
3983,-181,-399,0
3976,-168,-418,0
3974,-161,-431,0
3985,-151,-439,0
3996,-135,-440,0
4018,-123,-434,0
4040,-105,-425,0
4063,-89,-406,0
4079,-63,-383,0
4086,-45,-364,0
4088,-32,-360,0
4080,-24,-364,0
4063,-19,-368,0
4045,-21,-379,0
4018,-35,-387,0
3992,-59,-397,0
3973,-88,-400,0
3965,-122,-406,0
3963,-161,-416,0
3979,-199,-405,0
4006,-238,-390,0
4039,-276,-369,0
4072,-322,-352,0
4107,-373,-336,0
4131,-418,-312,0
4143,-468,-303,0
4147,-510,-305,0
4139,-540,-309,0
4130,-558,-309,0
4119,-575,-305,0
4111,-577,-296,0
4106,-573,-285,0
4103,-576,-283,0
4101,-576,-291,0
4099,-572,-307,0
4097,-559,-325,0
4092,-545,-347,0
4089,-521,-376,0
4090,-491,-402,0
4086,-444,-422,0
4078,-397,-438,0
4063,-349,-454,0
4042,-299,-465,0
4011,-251,-475,0
3985,-209,-486,0
3954,-170,-497,0
3922,-139,-510,0
3896,-107,-515,0
3881,-78,-521,0
3865,-46,-520,0
3862,-26,-515,0
3868,-16,-514,0
3875,-10,-510,0
3878,-5,-518,0
3885,-1,-522,0
3886,1,-520,0
3886,8,-520,0
3884,18,-512,0
3883,36,-496,0
3883,54,-480,0
3882,78,-457,0
3878,99,-430,0
3879,117,-410,0
3882,125,-392,0
3897,130,-372,0
3911,130,-353,0
3929,122,-337,0
3946,105,-327,0
3955,83,-319,0
3956,58,-313,0
3947,33,-317,0
3932,12,-326,0
3916,-7,-338,0
3904,-26,-349,0
3894,-46,-356,0
3887,-61,-355,0
3886,-71,-346,0
3881,-81,-337,0
3878,-97,-333,0
3868,-113,-325,0
3863,-126,-306,0
3859,-129,-284,0
3856,-128,-263,0
3859,-130,-248,0
3859,-124,-239,0
3857,-115,-233,0
3858,-97,-228,0
3857,-72,-228,0
3860,-44,-236,0
3868,-19,-245,0
3875,7,-260,0
3887,37,-274,0
3899,62,-280,0
3912,89,-285,0
3934,112,-284,0
3961,135,-283,0
3987,159,-276,0
4018,176,-267,0
4047,193,-265,0
4072,204,-267,0
4086,203,-274,0
4094,197,-292,0
4097,194,-306,0
4099,188,-316,0
4100,188,-319,0
4099,198,-317,0
4100,204,-308,0
4100,215,-294,0
4100,218,-276,0
4100,232,-243,0
4101,247,-218,0
4108,248,-202,0
4129,253,-188,0
4164,257,-168,0
4213,260,-154,0
4273,267,-145,0
4339,278,-132,0
4399,297,-114,0
4453,320,-91,0
4494,342,-74,0
4514,361,-59,0
4519,383,-48,0
4509,405,-34,0
4494,431,-22,0
4468,458,-8,0
4439,488,3,0
4407,519,8,0
4377,548,20,0
4349,571,28,0
4327,587,43,0
4310,594,57,0
4313,604,83,0
4331,629,108,0
4357,653,92,0
4375,681,31,0
4389,704,-59,0
4398,724,-167,0
4407,752,-279,0
4431,776,-373,0
4483,801,-456,0
4566,806,-531,0
4675,781,-582,0
4798,711,-622,0
4915,594,-658,0
5008,440,-687,0
5072,273,-718,0
5107,129,-762,0
5114,31,-832,0
5091,-15,-934,0
5043,-9,-1070,0
4970,41,-1239,0
4877,101,-1438,0
4761,161,-1664,0
4628,196,-1903,0
4482,199,-2141,0
4338,170,-2350,0
4219,95,-2497,0
4128,6,-2562,0
4075,-87,-2546,0
4052,-176,-2452,0
4055,-257,-2280,0
4064,-330,-2078,0
4077,-413,-1876,0
4088,-501,-1692,0
4094,-581,-1536,0
4091,-645,-1422,0
4084,-666,-1351,0
4080,-662,-1319,0
4062,-624,-1327,0
4036,-577,-1387,0
4012,-537,-1489,0
3996,-495,-1607,0
3990,-443,-1727,0
4009,-385,-1820,0
4059,-329,-1873,0
4137,-282,-1881,0
4247,-271,-1846,0
4382,-279,-1785,0
4517,-301,-1705,0
4635,-327,-1625,0
4735,-348,-1555,0
4797,-360,-1502,0
4820,-369,-1467,0
4801,-365,-1456,0
4749,-367,-1468,0
4677,-369,-1502,0
4596,-372,-1532,0
4509,-368,-1554,0
4426,-356,-1557,0
4350,-340,-1543,0
4278,-303,-1509,0
4212,-266,-1452,0
4158,-219,-1376,0
4125,-171,-1297,0
4097,-129,-1218,0
4067,-92,-1148,0
4036,-66,-1084,0
4007,-58,-1037,0
3971,-61,-1003,0
3929,-70,-990,0
3882,-85,-993,0
3834,-87,-1009,0
3792,-86,-1033,0
3746,-84,-1062,0
3713,-82,-1083,0
3682,-88,-1096,0
3657,-89,-1100,0
3639,-94,-1090,0
3628,-103,-1064,0
3630,-113,-1022,0
3641,-134,-975,0
3652,-164,-913,0
3668,-207,-851,0
3680,-247,-795,0
3697,-284,-736,0
3713,-307,-687,0
3725,-322,-631,0
3732,-321,-583,0
3733,-312,-538,0
3727,-304,-496,0
3724,-300,-452,0
3714,-302,-418,0
3705,-303,-384,0
3690,-294,-347,0
3673,-268,-309,0
3646,-240,-285,0
3612,-207,-269,0
3571,-174,-265,0
3525,-143,-269,0
3478,-108,-277,0
3431,-65,-292,0
3381,-30,-303,0
3330,2,-312,0
3288,26,-322,0
3253,43,-334,0
3224,55,-333,0
3205,59,-324,0
3194,60,-298,0
3186,51,-259,0
3188,25,-228,0
3183,-17,-207,0
3181,-81,-200,0
3182,-159,-192,0
3188,-234,-180,0
3200,-298,-163,0
3221,-343,-133,0
3253,-379,-99,0
3291,-413,-60,0
3334,-444,-27,0
3375,-474,10,0
3420,-507,41,0
3465,-547,64,0
3509,-589,84,0
3543,-628,100,0
3572,-652,115,0
3599,-666,131,0
3621,-670,144,0
3645,-655,160,0
3666,-631,170,0
3679,-593,188,0
3686,-547,204,0
3680,-499,216,0
3671,-442,231,0
3649,-386,238,0
3625,-350,221,0
3602,-327,189,0
3568,-315,146,0
3540,-309,105,0
3509,-305,68,0
3479,-306,36,0
3452,-313,-2,0
3427,-329,-42,0
3413,-351,-78,0
3423,-371,-101,0
3451,-375,-98,0
3505,-364,-71,0
3579,-338,-29,0
3672,-311,25,0
3782,-277,81,0
3900,-242,129,0
4013,-211,163,0
4125,-173,177,0
4226,-120,179,0
4315,-61,162,0
4390,3,129,0
4448,75,75,0
4487,136,5,0
4502,194,-75,0
4501,240,-150,0
4501,277,-186,0
4511,322,-176,0
4537,365,-118,0
4578,410,-31,0
4624,459,78,0
4670,496,189,0
4706,515,295,0
4726,528,379,0
4724,535,440,0
4697,542,483,0
4649,548,516,0
4580,562,547,0
4505,580,575,0
4419,611,614,0
4316,612,633,0
4211,552,617,0
4114,422,550,0
4026,234,415,0
3967,16,223,0
3936,-192,-27,0
3950,-397,-331,0
4034,-564,-617,0
4229,-652,-813,0
4516,-662,-897,0
4830,-663,-869,0
5125,-723,-744,0
5367,-872,-554,0
5543,-1116,-372,0
5645,-1424,-268,0
5674,-1756,-299,0
5636,-2076,-456,0
5572,-2341,-701,0
5498,-2544,-983,0
5416,-2675,-1274,0
5324,-2738,-1521,0
5238,-2766,-1688,0
5159,-2716,-1750,0
5103,-2574,-1691,0
5051,-2368,-1558,0
5002,-2156,-1413,0
4940,-1981,-1284,0
4845,-1875,-1183,0
4731,-1848,-1135,0
4594,-1851,-1120,0
4441,-1841,-1089,0
4280,-1749,-1013,0
4105,-1580,-939,0
3934,-1383,-928,0
3776,-1183,-990,0
3629,-978,-1097,0
3505,-763,-1222,0
3411,-547,-1360,0
3363,-329,-1477,0
3361,-122,-1561,0
3414,34,-1616,0
3517,129,-1635,0
3661,177,-1636,0
3822,186,-1623,0
3972,179,-1585,0
4106,163,-1523,0
4221,139,-1457,0
4313,114,-1383,0
4379,70,-1318,0
4420,-12,-1270,0
4425,-124,-1229,0
4405,-256,-1176,0
4367,-389,-1106,0
4313,-523,-1019,0
4248,-671,-919,0
4175,-837,-807,0
4102,-1004,-693,0
4018,-1173,-574,0
3920,-1331,-472,0
3815,-1473,-381,0
3710,-1587,-310,0
3608,-1677,-262,0
3510,-1741,-231,0
3421,-1778,-213,0
3336,-1792,-211,0
3254,-1785,-221,0
3180,-1766,-249,0
3112,-1733,-290,0
3061,-1694,-343,0
3028,-1646,-399,0
3011,-1589,-457,0
3015,-1523,-510,0
3045,-1445,-549,0
3088,-1359,-579,0
3149,-1279,-607,0
3215,-1201,-636,0
3283,-1133,-667,0
3354,-1081,-689,0
3434,-1038,-706,0
3523,-998,-709,0
3620,-955,-704,0
3712,-905,-697,0
3808,-844,-673,0
3894,-765,-641,0
3958,-683,-599,0
4000,-595,-558,0
4022,-515,-530,0
4022,-442,-510,0
3997,-372,-494,0
3949,-302,-481,0
3890,-246,-468,0
3820,-208,-457,0
3757,-186,-454,0
3702,-177,-447,0
3652,-177,-435,0
3621,-176,-417,0
3607,-166,-384,0
3608,-150,-341,0
3629,-136,-288,0
3669,-123,-224,0
3721,-113,-163,0
3769,-106,-109,0
3817,-104,-67,0
3856,-110,-42,0
3888,-116,-23,0
3906,-111,-22,0
3912,-109,-21,0
3903,-110,-36,0
3888,-103,-58,0
3864,-97,-71,0
3842,-73,-65,0
3827,-42,-42,0
3818,-20,-19,0
3815,1,0,0
3814,19,15,0
3815,33,36,0
3817,47,56,0
3823,48,77,0
3832,48,101,0
3840,37,118,0
3849,24,130,0
3850,9,137,0
3851,-6,136,0
3847,-16,139,0
3838,-18,141,0
3827,-14,139,0
3815,-9,148,0
3802,-5,154,0
3793,1,161,0
3793,6,172,0
3794,6,179,0
3810,-3,172,0
3832,-30,157,0
3857,-71,129,0
3880,-105,110,0
3899,-127,102,0
3912,-127,97,0
3910,-110,91,0
3896,-89,71,0
3875,-77,34,0
3853,-67,-16,0
3819,-62,-78,0
3788,-57,-133,0
3769,-53,-181,0
3763,-56,-214,0
3769,-62,-234,0
3785,-80,-233,0
3806,-108,-219,0
3843,-139,-191,0
3881,-168,-154,0
3923,-189,-102,0
3964,-225,-56,0
4006,-247,3,0
4051,-229,93,0
4084,-202,177,0
4114,-171,232,0
4139,-142,255,0
4154,-105,268,0
4159,-57,262,0
4151,4,243,0
4139,79,203,0
4124,157,149,0
4112,233,87,0
4107,282,32,0
4106,308,-25,0
4110,305,-69,0
4145,302,-77,0
4224,304,-69,0
4337,306,-86,0
4504,303,-138,0
4696,304,-202,0
4884,325,-250,0
5057,357,-283,0
5203,394,-325,0
5311,430,-381,0
5365,457,-447,0
5373,491,-528,0
5338,530,-620,0
5268,557,-730,0
5181,578,-849,0
5086,601,-972,0
5005,607,-1092,0
4942,596,-1222,0
4900,560,-1345,0
4876,512,-1444,0
4870,446,-1523,0
4874,357,-1581,0
4880,236,-1627,0
4877,74,-1679,0
4859,-134,-1735,0
4818,-359,-1787,0
4762,-575,-1840,0
4688,-747,-1883,0
4599,-852,-1897,0
4485,-904,-1898,0
4344,-947,-1906,0
4180,-992,-1923,0
4000,-1041,-1929,0
3824,-1086,-1911,0
3668,-1129,-1864,0
3543,-1171,-1794,0
3458,-1222,-1697,0
3424,-1287,-1588,0
3443,-1354,-1480,0
3508,-1408,-1382,0
3609,-1446,-1286,0
3734,-1459,-1196,0
3855,-1454,-1124,0
3960,-1422,-1064,0
4036,-1368,-1024,0
4088,-1299,-999,0
4105,-1235,-1016,0
4102,-1173,-1070,0
4075,-1109,-1127,0
4046,-1015,-1168,0
4024,-900,-1183,0
4014,-781,-1180,0
4015,-656,-1160,0
4022,-519,-1132,0
4034,-380,-1102,0
4050,-248,-1079,0
4074,-125,-1061,0
4092,2,-1047,0
4121,127,-1034,0
4146,234,-1023,0
4165,329,-1021,0
4190,407,-1015,0
4200,475,-999,0
4207,541,-982,0
4199,595,-969,0
4197,653,-961,0
4187,685,-958,0
4166,690,-947,0
4148,668,-932,0
4136,613,-914,0
4125,533,-887,0
4119,448,-851,0
4113,352,-802,0
4108,261,-746,0
4104,170,-695,0
4093,84,-649,0
4076,-1,-612,0
4048,-86,-586,0
4011,-167,-576,0
3964,-254,-581,0
3910,-330,-593,0
3858,-401,-617,0
3805,-455,-638,0
3754,-488,-650,0
3707,-505,-644,0
3669,-518,-625,0
3634,-524,-602,0
3596,-524,-573,0
3563,-526,-547,0
3532,-529,-526,0
3503,-528,-503,0
3470,-517,-483,0
3442,-505,-449,0
3424,-482,-400,0
3415,-450,-343,0
3413,-425,-292,0
3413,-410,-249,0
3409,-396,-216,0
3408,-378,-187,0
3413,-355,-165,0
3417,-320,-145,0
3420,-282,-131,0
3433,-244,-126,0
3449,-206,-127,0
3466,-175,-136,0
3484,-149,-160,0
3503,-116,-182,0
3524,-72,-204,0
3549,-31,-222,0
3583,20,-235,0
3623,70,-240,0
3662,118,-245,0
3704,152,-254,0
3744,168,-281,0
3780,178,-316,0
3811,194,-349,0
3848,197,-389,0
3886,197,-432,0
3920,199,-466,0
3960,206,-497,0
4002,219,-512,0
4046,226,-516,0
4079,235,-497,0
4120,238,-455,0
4163,231,-396,0
4207,207,-340,0
4252,160,-289,0
4290,89,-253,0
4328,12,-216,0
4362,-58,-177,0
4386,-119,-134,0
4394,-179,-89,0
4393,-239,-53,0
4381,-311,-35,0
4364,-395,-28,0
4347,-477,-18,0
4322,-543,3,0
4293,-594,31,0
4257,-630,65,0
4217,-666,95,0
4179,-701,126,0
4151,-724,153,0
4128,-737,186,0
4115,-740,217,0
4103,-742,241,0
4094,-749,250,0
4086,-756,250,0
4081,-753,247,0
4078,-734,243,0
4078,-710,231,0
4074,-681,212,0
4062,-646,179,0
4037,-611,139,0
4015,-555,140,0
3998,-501,142,0
3989,-474,112,0
3985,-484,77,0
3993,-521,26,0
3998,-563,-35,0
4002,-615,-104,0
3998,-656,-169,0
3993,-683,-228,0
3981,-685,-273,0
3970,-682,-310,0
3960,-674,-356,0
3954,-670,-387,0
3959,-662,-400,0
3973,-647,-388,0
3994,-623,-367,0
4021,-603,-360,0
4058,-594,-367,0
4091,-594,-397,0
4145,-615,-453,0
4220,-646,-525,0
4327,-682,-598,0
4465,-712,-666,0
4628,-741,-728,0
4809,-774,-788,0
5001,-816,-846,0
5195,-853,-894,0
5393,-891,-934,0
5585,-930,-946,0
5734,-951,-941,0
5803,-1002,-984,0
5811,-1113,-1076,0
5774,-1243,-1160,0
5715,-1321,-1188,0
5641,-1339,-1168,0
5543,-1315,-1135,0
5423,-1254,-1115,0
5269,-1167,-1110,0
5075,-1095,-1149,0
4839,-1021,-1232,0
4571,-919,-1285,0
4290,-786,-1297,0
3994,-632,-1303,0
3699,-479,-1295,0
3410,-333,-1278,0
3139,-194,-1265,0
2885,-71,-1244,0
2653,35,-1221,0
2447,120,-1202,0
2274,200,-1170,0
2134,264,-1123,0
2042,314,-1064,0
2010,348,-1012,0
2039,373,-978,0
2134,376,-960,0
2277,358,-952,0
2457,326,-962,0
2656,272,-986,0
2870,207,-1018,0
3090,128,-1031,0
3330,27,-1027,0
3579,-95,-1015,0
3828,-221,-993,0
4065,-346,-973,0
4291,-464,-964,0
4494,-568,-964,0
4664,-648,-974,0
4809,-699,-984,0
4902,-723,-986,0
4960,-735,-984,0
4986,-728,-959,0
4973,-711,-928,0
4923,-694,-900,0
4850,-688,-873,0
4762,-687,-839,0
4655,-679,-801,0
4543,-665,-768,0
4429,-650,-725,0
4310,-631,-681,0
4197,-613,-630,0
4089,-602,-586,0
3985,-609,-557,0
3889,-630,-537,0
3809,-640,-516,0
3745,-625,-499,0
3679,-590,-499,0
3606,-542,-532,0
3534,-482,-590,0
3452,-391,-644,0
3366,-270,-690,0
3269,-140,-749,0
3178,-33,-832,0
3110,67,-888,0
3048,165,-936,0
3007,233,-981,0
2994,281,-1016,0
3017,301,-1037,0
3078,298,-1036,0
3169,274,-1015,0
3287,236,-976,0
3422,186,-929,0
3564,134,-869,0
3709,71,-806,0
3842,11,-746,0
3966,-53,-690,0
4071,-132,-658,0
4152,-204,-641,0
4211,-252,-625,0
4243,-280,-610,0
4251,-284,-604,0
4231,-278,-613,0
4187,-267,-636,0
4139,-256,-674,0
4078,-260,-712,0
4018,-264,-745,0
3969,-265,-769,0
3929,-261,-787,0
3905,-261,-801,0
3887,-272,-819,0
3877,-297,-833,0
3877,-331,-854,0
3880,-370,-869,0
3894,-406,-867,0
3916,-440,-854,0
3941,-471,-823,0
3973,-514,-794,0
3997,-555,-771,0
4023,-602,-748,0
4041,-644,-720,0
4045,-676,-694,0
4040,-694,-666,0
4027,-704,-635,0
4010,-692,-610,0
3995,-667,-580,0
3980,-638,-558,0
3977,-607,-533,0
3988,-575,-509,0
4007,-550,-480,0
4041,-537,-459,0
4070,-522,-450,0
4096,-512,-445,0
4120,-493,-435,0
4140,-474,-435,0
4148,-449,-443,0
4144,-413,-452,0
4130,-366,-461,0
4116,-314,-460,0
4099,-263,-461,0
4077,-232,-472,0
4045,-218,-504,0
4019,-212,-544,0
3990,-213,-573,0
3965,-217,-598,0
3941,-228,-609,0
3930,-248,-597,0
3929,-269,-567,0
3931,-299,-509,0
3937,-333,-436,0
3950,-379,-359,0
3962,-425,-279,0
3972,-473,-206,0
3979,-510,-141,0
3981,-526,-88,0
3982,-528,-60,0
3985,-517,-72,0
3982,-491,-125,0
3978,-424,-189,0
3972,-315,-252,0
3975,-185,-331,0
3978,-46,-424,0
3996,87,-531,0
4025,193,-646,0
4064,269,-758,0
4115,311,-855,0
4191,324,-932,0
4282,314,-988,0
4375,281,-1018,0
4477,234,-1012,0
4575,182,-973,0
4658,122,-914,0
4717,52,-863,0
4754,-37,-832,0
4768,-134,-820,0
4753,-220,-823,0
4736,-287,-835,0
4709,-318,-858,0
4680,-319,-894,0
4656,-307,-969,0
4637,-288,-1079,0
4621,-265,-1203,0
4619,-240,-1339,0
4629,-193,-1463,0
4657,-121,-1559,0
4699,-60,-1617,0
4743,-8,-1648,0
4785,25,-1644,0
4815,28,-1611,0
4817,12,-1557,0
4796,-22,-1496,0
4744,-73,-1432,0
4658,-128,-1380,0
4552,-179,-1328,0
4422,-225,-1278,0
4274,-273,-1243,0
4136,-320,-1203,0
3992,-362,-1155,0
3863,-386,-1104,0
3750,-408,-1070,0
3656,-428,-1050,0
3580,-451,-1040,0
3522,-469,-1035,0
3482,-479,-1048,0
3464,-483,-1077,0
3465,-483,-1108,0
3478,-479,-1133,0
3495,-465,-1156,0
3514,-452,-1182,0
3532,-440,-1211,0
3551,-439,-1242,0
3571,-450,-1267,0
3595,-464,-1285,0
3619,-494,-1299,0
3640,-531,-1310,0
3658,-566,-1316,0
3670,-595,-1317,0
3671,-618,-1316,0
3669,-642,-1311,0
3658,-667,-1310,0
3645,-697,-1304,0
3638,-730,-1287,0
3633,-760,-1267,0
3638,-782,-1238,0
3650,-792,-1202,0
3680,-794,-1157,0
3714,-788,-1110,0
3760,-781,-1061,0
3814,-774,-1002,0
3871,-753,-940,0
3927,-721,-882,0
3970,-682,-835,0
4007,-632,-805,0
4031,-588,-802,0
4050,-551,-817,0
4060,-532,-851,0
4068,-519,-899,0
4084,-510,-949,0
4107,-494,-991,0
4141,-468,-1009,0
4185,-433,-1005,0
4235,-401,-987,0
4284,-356,-967,0
4332,-312,-937,0
4365,-267,-911,0
4392,-220,-887,0
4403,-173,-868,0
4402,-131,-854,0
4383,-101,-854,0
4353,-82,-865,0
4309,-78,-883,0
4266,-91,-911,0
4219,-117,-937,0
4175,-149,-953,0
4137,-179,-943,0
4112,-208,-918,0
4089,-241,-879,0
4073,-274,-833,0
4069,-307,-785,0
4065,-351,-742,0
4065,-397,-706,0
4068,-448,-671,0
4071,-496,-648,0
4062,-541,-631,0
4049,-587,-620,0
4033,-630,-610,0
4004,-672,-601,0
3972,-707,-590,0
3939,-738,-563,0
3910,-770,-540,0
3883,-802,-524,0
3870,-833,-507,0
3866,-849,-490,0
3869,-847,-471,0
3871,-828,-449,0
3869,-802,-431,0
3857,-765,-417,0
3840,-726,-412,0
3819,-687,-414,0
3781,-650,-419,0
3731,-620,-432,0
3675,-597,-453,0
3613,-586,-490,0
3546,-582,-526,0
3480,-584,-568,0
3430,-585,-600,0
3383,-576,-618,0
3343,-555,-618,0
3318,-548,-608,0
3304,-541,-592,0
3302,-549,-571,0
3312,-570,-561,0
3333,-600,-556,0
3367,-627,-561,0
3403,-657,-571,0
3454,-680,-576,0
3508,-695,-582,0
3570,-700,-579,0
3649,-701,-576,0
3737,-695,-573,0
3827,-684,-572,0
3920,-677,-585,0
4009,-660,-603,0
4081,-632,-626,0
4151,-601,-657,0
4212,-572,-698,0
4266,-541,-745,0
4304,-510,-789,0
4334,-485,-839,0
4352,-455,-883,0
4370,-421,-921,0
4377,-373,-950,0
4377,-323,-961,0
4374,-269,-958,0
4373,-226,-932,0
4382,-191,-885,0
4406,-162,-806,0
4440,-127,-689,0
4473,-129,-565,0
4498,-177,-468,0
4509,-262,-416,0
4503,-376,-417,0
4484,-501,-452,0
4449,-622,-498,0
4412,-720,-540,0
4372,-782,-575,0
4323,-810,-599,0
4278,-808,-616,0
4238,-792,-624,0
4198,-782,-624,0
4158,-778,-630,0
4129,-790,-629,0
4098,-809,-636,0
4048,-830,-654,0
3989,-847,-677,0
3925,-854,-699,0
3855,-840,-709,0
3784,-790,-711,0
3722,-720,-698,0
3665,-636,-681,0
3617,-556,-678,0
3579,-487,-693,0
3552,-428,-723,0
3534,-382,-762,0
3524,-346,-801,0
3529,-319,-840,0
3547,-292,-872,0
3574,-271,-889,0
3613,-243,-890,0
3653,-217,-869,0
3693,-195,-844,0
3721,-189,-815,0
3742,-200,-797,0
3753,-226,-790,0
3759,-258,-787,0
3762,-302,-784,0
3765,-351,-778,0
3783,-406,-761,0
3831,-458,-727,0
3893,-504,-679,0
3966,-544,-624,0
4040,-586,-563,0
4111,-627,-504,0
4185,-669,-460,0
4244,-703,-427,0
4289,-722,-408,0
4316,-734,-404,0
4323,-732,-423,0
4305,-716,-446,0
4267,-697,-489,0
4210,-661,-535,0
4147,-617,-573,0
4078,-570,-619,0
4002,-520,-659,0
3927,-461,-691,0
3857,-406,-704,0
3812,-348,-697,0
3781,-296,-685,0
3762,-255,-674,0
3756,-237,-671,0
3757,-235,-671,0
3766,-241,-658,0
3785,-259,-641,0
3803,-276,-619,0
3829,-294,-590,0
3854,-321,-558,0
3880,-353,-541,0
3902,-393,-540,0
3920,-427,-540,0
3938,-461,-543,0
3955,-495,-552,0
3972,-524,-565,0
3984,-543,-582,0
3996,-550,-596,0
4005,-544,-617,0
3999,-523,-643,0
4005,-526,-663,0
4012,-530,-694,0
4009,-533,-721,0
4007,-535,-739,0
4005,-535,-748,0
4004,-532,-748,0
3999,-529,-743,0
3993,-527,-734,0
3990,-519,-725,0
3989,-518,-715,0
3991,-514,-703,0
3995,-502,-686,0
4003,-495,-663,0
4010,-493,-640,0
4018,-496,-629,0
4030,-497,-622,0
4034,-501,-619,0
4038,-501,-608,0
4039,-497,-592,0
4045,-492,-581,0
4053,-482,-575,0
4064,-476,-572,0
4074,-471,-576,0
4083,-471,-582,0
4089,-477,-585,0
4095,-478,-587,0
4097,-468,-589,0
4099,-460,-588,0
4099,-450,-587,0
4098,-439,-594,0
4093,-422,-600,0
4081,-395,-605,0
4078,-375,-610,0
4077,-360,-623,0
4078,-345,-633,0
4080,-336,-634,0
4083,-325,-634,0
4091,-311,-632,0
4095,-293,-621,0
4098,-272,-612,0
4099,-257,-601,0
4099,-243,-594,0
4092,-232,-594,0
4078,-220,-593,0
4057,-214,-584,0
4024,-206,-576,0
3985,-199,-575,0
3936,-198,-588,0
3879,-208,-608,0
3821,-214,-628,0
3760,-229,-655,0
3706,-252,-684,0
3661,-282,-717,0
3629,-319,-751,0
3613,-371,-789,0
3614,-425,-827,0
3636,-494,-870,0
3674,-567,-916,0
3733,-649,-967,0
3803,-735,-1010,0
3892,-822,-1042,0
3993,-893,-1052,0
4105,-950,-1041,0
4227,-991,-1017,0
4343,-1013,-966,0
4448,-1031,-919,0
4530,-1040,-881,0
4579,-1045,-850,0
4598,-1040,-825,0
4585,-1025,-804,0
4544,-1006,-790,0
4485,-968,-784,0
4414,-919,-778,0
4340,-848,-774,0
4264,-768,-765,0
4191,-677,-755,0
4132,-583,-742,0
4081,-495,-731,0
4036,-413,-715,0
4002,-342,-698,0
3978,-282,-682,0
3958,-235,-665,0
3945,-197,-651,0
3936,-170,-637,0
3927,-150,-620,0
3920,-145,-608,0
3915,-138,-601,0
3916,-134,-595,0
3916,-132,-587,0
3916,-136,-584,0
3914,-144,-583,0
3905,-155,-579,0
3895,-163,-579,0
3886,-187,-580,0
3878,-211,-589,0
3871,-234,-603,0
3873,-260,-612,0
3876,-284,-623,0
3882,-308,-626,0
3900,-325,-628,0
3922,-344,-631,0
3944,-363,-637,0
3963,-380,-647,0
3977,-394,-659,0
3989,-405,-672,0
4000,-411,-693,0
4004,-419,-711,0
4009,-422,-726,0
4019,-415,-730,0
4028,-405,-728,0
4042,-395,-718,0
4054,-392,-707,0
4065,-399,-692,0
4068,-413,-678,0
4068,-425,-665,0
4062,-433,-654,0
4051,-443,-649,0
4039,-455,-647,0
4030,-473,-650,0
4019,-492,-657,0
4008,-516,-665,0
3994,-534,-665,0
3987,-548,-659,0
3988,-561,-650,0
3991,-567,-631,0
4001,-573,-611,0
4010,-590,-603,0
4026,-605,-598,0
4037,-614,-588,0
4051,-626,-587,0
4069,-625,-589,0
4084,-613,-582,0
4093,-603,-579,0
4102,-587,-585,0
4108,-574,-596,0
4109,-553,-606,0
4105,-530,-616,0
4103,-514,-633,0
4092,-492,-654,0
4076,-465,-666,0
4057,-439,-672,0
4038,-418,-671,0
4024,-406,-670,0
4005,-395,-660,0
3996,-390,-654,0
3986,-389,-645,0
3982,-392,-628,0
3981,-400,-614,0
3983,-404,-601,0
3983,-409,-586,0
3983,-419,-574,0
3982,-432,-568,0
3978,-444,-564,0
3980,-454,-562,0
3983,-458,-561,0
3984,-462,-554,0
3987,-474,-554,0
3990,-488,-550,0
4000,-510,-551,0
4007,-533,-548,0
4017,-550,-551,0
4026,-571,-550,0
4032,-581,-548,0
4046,-588,-545,0
4049,-593,-539,0
4054,-593,-533,0
4054,-597,-528,0
4048,-596,-524,0
4034,-595,-525,0
4021,-594,-526,0
4009,-584,-525,0
3994,-575,-531,0
3980,-575,-535,0
3975,-566,-538,0
3972,-566,-536,0
3973,-561,-533,0
3980,-544,-529,0
3992,-525,-519,0
4005,-503,-509,0
4015,-483,-511,0
4029,-460,-513,0
4041,-432,-518,0
4053,-404,-525,0
4056,-379,-530,0
4061,-352,-532,0
4065,-327,-541,0
4067,-305,-544,0
4062,-288,-548,0
4054,-271,-553,0
4048,-252,-558,0
4036,-234,-562,0
4026,-217,-564,0
4016,-206,-563,0
4007,-197,-564,0
3995,-193,-561,0
3990,-194,-557,0
3984,-192,-553,0
3988,-185,-552,0
3987,-182,-546,0
3995,-185,-545,0
4002,-190,-540,0
4014,-200,-537,0
4031,-209,-530,0
4043,-223,-529,0
4056,-239,-529,0
4066,-254,-539,0
4071,-269,-547,0
4076,-285,-565,0
4084,-298,-579,0
4084,-305,-593,0
4083,-317,-601,0
4083,-328,-600,0
4081,-336,-596,0
4080,-344,-586,0
4079,-355,-576,0
4078,-369,-567,0
4078,-379,-561,0
4075,-387,-555,0
4068,-397,-554,0
4059,-407,-563,0
4055,-409,-566,0
4051,-408,-565,0
4055,-406,-560,0
4062,-408,-554,0
4065,-408,-556,0
4060,-410,-560,0
4054,-415,-566,0
4046,-419,-571,0
4033,-425,-579,0
4017,-429,-589,0
4007,-432,-595,0
3997,-442,-606,0
3987,-447,-618,0
3983,-457,-630,0
3984,-464,-642,0
3990,-467,-651,0
3992,-470,-659,0
3997,-474,-660,0
4003,-476,-654,0
4007,-481,-654,0
4009,-485,-649,0
4012,-491,-646,0
4013,-501,-645,0
4014,-510,-647,0
4009,-522,-644,0
4010,-528,-643,0
4008,-536,-641,0
4003,-542,-643,0
4002,-549,-644,0
3999,-557,-641,0
4000,-571,-641,0
4004,-579,-634,0
4007,-585,-620,0
4009,-587,-611,0
4008,-590,-595,0
4007,-594,-586,0
4001,-600,-573,0
3995,-608,-563,0
3991,-612,-552,0
3987,-619,-543,0
3991,-617,-530,0
3995,-613,-514,0
4005,-604,-499,0
4011,-600,-490,0
4014,-594,-485,0
4015,-589,-485,0
4018,-580,-483,0
4017,-570,-484,0
4015,-560,-488,0
4017,-553,-496,0
4015,-545,-505,0
4012,-533,-514,0
4011,-523,-524,0
4010,-514,-531,0
4014,-503,-534,0
4015,-493,-536,0
4017,-485,-536,0
4023,-475,-533,0
4035,-473,-533,0
4043,-473,-533,0
4048,-476,-537,0
4047,-472,-542,0
4048,-472,-551,0
4046,-469,-561,0
4042,-467,-568,0
4040,-466,-570,0
4041,-464,-572,0
4039,-465,-575,0
4040,-462,-575,0
4040,-465,-575,0
4040,-470,-570,0
4047,-475,-561,0
4050,-488,-555,0
4055,-504,-551,0
4062,-510,-547,0
4067,-514,-543,0
4071,-512,-537,0
4079,-512,-533,0
4088,-513,-522,0
4094,-504,-517,0
4094,-491,-520,0
4086,-477,-528,0
4074,-465,-535,0
4060,-461,-545,0
4051,-461,-556,0
4038,-459,-564,0
4028,-453,-564,0
4019,-447,-554,0
4015,-445,-540,0
4012,-442,-530,0
4012,-446,-521,0
4009,-453,-514,0
4009,-459,-506,0
4006,-464,-505,0
4008,-463,-506,0
4011,-466,-509,0
4019,-467,-508,0
4024,-465,-504,0
4023,-467,-502,0
4027,-467,-493,0
4033,-465,-483,0
4036,-465,-468,0
4039,-468,-462,0
4037,-465,-455,0
4035,-461,-450,0
4033,-450,-449,0
4027,-437,-453,0
4027,-428,-466,0
4027,-419,-476,0
4029,-412,-486,0
4032,-403,-494,0
4032,-387,-499,0
4030,-378,-502,0
4031,-370,-504,0
4032,-364,-496,0
4033,-362,-490,0
4038,-357,-489,0
4041,-358,-485,0
4038,-360,-476,0
4038,-364,-478,0
4037,-368,-473,0
4035,-374,-460,0
4036,-373,-449,0
4042,-373,-442,0
4047,-377,-436,0
4048,-383,-432,0
4053,-388,-430,0
4052,-392,-427,0
4050,-391,-425,0
4050,-390,-428,0
4043,-386,-433,0
4038,-375,-436,0
4030,-370,-435,0
4026,-364,-437,0
4024,-362,-440,0
4020,-359,-437,0
4019,-355,-436,0
4020,-354,-434,0
4019,-359,-434,0
4022,-362,-431,0
4026,-365,-433,0
4029,-370,-434,0
4031,-380,-433,0
4031,-385,-433,0
4033,-387,-435,0
4036,-393,-433,0
4036,-395,-434,0
4030,-401,-432,0
4027,-410,-435,0
4023,-417,-432,0
4024,-422,-432,0
4021,-426,-433,0
4021,-429,-434,0
