accelerometer_x,accelerometer_y,accelerometer_z,fall
2380,-3531,-803,0
2380,-3540,-806,0
2380,-3543,-809,0
2378,-3550,-809,0
2376,-3554,-812,0
2377,-3546,-811,0
2381,-3544,-806,0
2384,-3543,-804,0
2392,-3550,-804,0
2401,-3559,-808,0
2409,-3571,-817,0
2420,-3583,-824,0
2431,-3588,-826,0
2436,-3588,-827,0
2438,-3588,-830,0
2437,-3583,-835,0
2434,-3576,-836,0
2428,-3560,-837,0
2419,-3543,-838,0
2411,-3526,-832,0
2409,-3515,-824,0
2401,-3501,-825,0
2397,-3494,-825,0
2393,-3492,-829,0
2393,-3489,-831,0
2390,-3483,-828,0
2386,-3465,-814,0
2376,-3455,-802,0
2370,-3451,-802,0
2363,-3456,-804,0
2357,-3458,-804,0
2352,-3457,-801,0
2346,-3456,-794,0
2336,-3462,-791,0
2328,-3460,-784,0
2325,-3457,-782,0
2333,-3454,-781,0
2339,-3457,-781,0
2346,-3464,-783,0
2354,-3476,-786,0
2365,-3486,-794,0
2378,-3495,-793,0
2382,-3510,-796,0
2389,-3516,-803,0
2393,-3519,-809,0
2396,-3520,-809,0
2399,-3519,-813,0
2393,-3515,-819,0
2393,-3512,-822,0
2394,-3503,-820,0
2390,-3498,-818,0
2382,-3490,-822,0
2373,-3485,-823,0
2358,-3472,-820,0
2349,-3459,-819,0
2341,-3446,-815,0
2331,-3435,-806,0
2322,-3428,-798,0
2317,-3429,-795,0
2322,-3431,-789,0
2326,-3441,-792,0
2333,-3453,-795,0
2342,-3468,-801,0
2351,-3482,-807,0
2360,-3491,-813,0
2366,-3495,-812,0
2363,-3492,-807,0
2361,-3481,-798,0
2355,-3467,-784,0
2351,-3456,-776,0
2349,-3457,-778,0
2351,-3467,-777,0
2360,-3475,-788,0
2367,-3487,-797,0
2372,-3500,-811,0
2384,-3518,-832,0
2392,-3530,-851,0
2394,-3529,-855,0
2394,-3523,-855,0
2384,-3512,-852,0
2374,-3489,-832,0
2365,-3470,-811,0
2361,-3455,-798,0
2357,-3448,-787,0
2352,-3441,-781,0
2349,-3446,-781,0
2348,-3458,-782,0
2348,-3465,-787,0
2347,-3466,-794,0
2346,-3463,-797,0
2346,-3457,-799,0
2342,-3452,-798,0
2342,-3453,-792,0
2345,-3466,-789,0
2345,-3476,-795,0
2354,-3485,-798,0
2361,-3491,-799,0
2364,-3500,-800,0
2367,-3506,-802,0
2365,-3509,-802,0
2367,-3503,-801,0
2369,-3493,-799,0
2366,-3483,-790,0
2359,-3485,-789,0
2353,-3479,-786,0
2348,-3467,-790,0
2346,-3465,-788,0
2344,-3461,-787,0
2345,-3459,-790,0
2339,-3455,-795,0
2332,-3451,-800,0
2326,-3447,-803,0
2324,-3444,-805,0
2326,-3440,-804,0
2324,-3444,-796,0
2327,-3442,-792,0
2326,-3442,-791,0
2334,-3446,-792,0
2338,-3446,-788,0
2341,-3449,-788,0
2338,-3453,-789,0
2333,-3447,-790,0
2327,-3440,-791,0
2323,-3435,-787,0
2319,-3429,-778,0
2316,-3431,-775,0
2313,-3438,-777,0
2317,-3435,-776,0
2325,-3439,-779,0
2335,-3443,-786,0
2336,-3446,-787,0
2336,-3452,-796,0
2335,-3455,-804,0
2330,-3452,-807,0
2326,-3455,-807,0
2323,-3450,-802,0
2321,-3451,-798,0
2322,-3455,-795,0
2330,-3452,-790,0
2344,-3452,-787,0
2348,-3452,-782,0
2351,-3455,-779,0
2345,-3457,-786,0
2340,-3459,-790,0
2334,-3462,-795,0
2325,-3461,-797,0
2321,-3463,-796,0
2322,-3465,-794,0
2323,-3466,-798,0
2328,-3473,-798,0
2332,-3474,-793,0
2340,-3474,-794,0
2345,-3473,-795,0
2345,-3469,-793,0
2342,-3467,-791,0
2335,-3460,-788,0
2329,-3460,-787,0
2325,-3459,-785,0
2320,-3452,-786,0
2321,-3444,-783,0
2323,-3433,-780,0
2321,-3428,-776,0
2320,-3428,-776,0
2315,-3428,-778,0
2313,-3425,-775,0
2314,-3418,-770,0
2315,-3413,-766,0
2310,-3409,-764,0
2306,-3401,-763,0
2306,-3399,-758,0
2307,-3400,-758,0
2309,-3411,-767,0
2314,-3418,-776,0
2319,-3426,-781,0
2319,-3430,-784,0
2314,-3429,-780,0
2308,-3425,-775,0
2306,-3425,-766,0
2306,-3424,-760,0
2306,-3427,-766,0
2311,-3433,-774,0
2313,-3440,-783,0
2317,-3446,-794,0
2318,-3445,-801,0
2314,-3441,-804,0
2314,-3433,-795,0
2313,-3432,-786,0
2308,-3429,-780,0
2301,-3428,-772,0
2306,-3430,-771,0
2309,-3434,-771,0
2316,-3437,-771,0
2319,-3445,-774,0
2321,-3444,-770,0
2320,-3441,-765,0
2319,-3439,-759,0
2318,-3448,-753,0
2321,-3455,-750,0
2330,-3465,-751,0
2341,-3476,-753,0
2356,-3518,-781,0
2370,-3537,-803,0
2379,-3545,-822,0
2386,-3543,-827,0
2385,-3529,-821,0
2379,-3514,-810,0
2366,-3498,-802,0
2345,-3482,-794,0
2327,-3462,-788,0
2318,-3439,-780,0
2308,-3418,-779,0
2298,-3398,-777,0
2289,-3381,-775,0
2284,-3362,-773,0
2275,-3359,-776,0
2272,-3365,-774,0
2263,-3364,-774,0
2251,-3350,-762,0
2245,-3335,-750,0
2240,-3321,-739,0
2238,-3314,-731,0
2240,-3316,-728,0
2242,-3323,-723,0
2243,-3330,-719,0
2249,-3338,-719,0
2255,-3353,-720,0
2262,-3366,-726,0
2269,-3377,-728,0
2269,-3384,-732,0
2271,-3391,-741,0
2274,-3396,-746,0
2271,-3398,-755,0
2269,-3400,-767,0
2266,-3407,-782,0
2272,-3406,-794,0
2269,-3404,-796,0
2267,-3399,-796,0
2266,-3393,-796,0
2265,-3384,-795,0
2271,-3373,-790,0
2279,-3371,-787,0
2281,-3375,-786,0
2283,-3378,-786,0
2289,-3382,-783,0
2292,-3390,-776,0
2298,-3392,-766,0
2298,-3391,-750,0
2300,-3395,-745,0
2306,-3400,-744,0
2317,-3411,-748,0
2328,-3428,-755,0
2333,-3438,-760,0
2332,-3451,-763,0
2331,-3471,-774,0
2331,-3481,-779,0
2326,-3477,-779,0
2323,-3466,-774,0
2319,-3454,-768,0
2320,-3451,-766,0
2326,-3452,-771,0
2331,-3452,-774,0
2335,-3451,-777,0
2326,-3445,-775,0
2322,-3440,-781,0
2312,-3430,-784,0
2308,-3426,-774,0
2311,-3417,-765,0
2315,-3412,-759,0
2319,-3411,-760,0
2319,-3410,-764,0
2320,-3408,-765,0
2317,-3400,-763,0
2311,-3392,-759,0
2302,-3377,-752,0
2292,-3363,-742,0
2281,-3358,-733,0
2271,-3353,-736,0
2261,-3349,-742,0
2248,-3341,-743,0
2247,-3339,-742,0
2247,-3340,-746,0
2243,-3341,-747,0
2233,-3336,-749,0
2226,-3331,-751,0
2223,-3326,-745,0
2220,-3319,-740,0
2219,-3313,-739,0
2221,-3311,-738,0
2224,-3308,-735,0
2235,-3310,-729,0
2252,-3316,-725,0
2262,-3320,-725,0
2261,-3321,-726,0
2267,-3325,-726,0
2269,-3329,-728,0
2268,-3331,-727,0
2270,-3338,-730,0
2275,-3346,-740,0
2280,-3359,-746,0
2285,-3369,-747,0
2286,-3378,-750,0
2281,-3385,-756,0
2283,-3394,-763,0
2284,-3400,-770,0
2288,-3407,-776,0
2287,-3412,-783,0
2286,-3417,-790,0
2289,-3407,-790,0
2294,-3399,-779,0
2296,-3393,-773,0
2299,-3395,-767,0
2296,-3402,-766,0
2297,-3407,-767,0
2301,-3405,-770,0
2303,-3405,-765,0
2307,-3402,-759,0
2301,-3393,-753,0
2299,-3386,-748,0
2295,-3377,-745,0
2295,-3374,-743,0
2298,-3367,-735,0
2294,-3363,-737,0
2284,-3360,-737,0
2272,-3349,-738,0
2262,-3341,-739,0
2252,-3332,-733,0
2246,-3322,-727,0
2235,-3317,-729,0
2228,-3318,-732,0
2226,-3315,-732,0
2227,-3317,-741,0
2224,-3317,-747,0
2221,-3317,-749,0
2219,-3315,-748,0
2215,-3318,-746,0
2220,-3321,-740,0
2224,-3320,-734,0
2229,-3315,-728,0
2232,-3319,-725,0
2235,-3319,-728,0
2234,-3324,-733,0
2242,-3332,-736,0
2247,-3330,-735,0
2247,-3333,-740,0
2246,-3340,-742,0
2251,-3346,-738,0
2252,-3350,-737,0
2256,-3350,-741,0
2259,-3353,-740,0
2261,-3352,-739,0
2264,-3359,-737,0
2262,-3364,-740,0
2264,-3367,-746,0
2266,-3369,-751,0
2269,-3371,-753,0
2272,-3371,-754,0
2263,-3371,-758,0
2264,-3372,-759,0
2265,-3368,-752,0
2267,-3366,-744,0
2270,-3367,-736,0
2272,-3365,-731,0
2274,-3364,-731,0
2275,-3360,-732,0
2277,-3355,-733,0
2277,-3357,-733,0
2279,-3359,-730,0
2280,-3358,-729,0
2275,-3361,-734,0
2269,-3358,-738,0
2269,-3353,-737,0
2270,-3354,-738,0
2269,-3357,-742,0
2263,-3350,-743,0
2259,-3348,-745,0
2255,-3343,-742,0
2256,-3342,-736,0
2256,-3338,-736,0
2252,-3338,-735,0
2254,-3338,-735,0
2252,-3336,-735,0
2255,-3333,-731,0
2257,-3336,-732,0
2255,-3339,-730,0
2259,-3343,-726,0
2264,-3344,-725,0
2268,-3344,-725,0
2275,-3351,-728,0
2282,-3364,-734,0
2282,-3369,-735,0
2284,-3373,-733,0
2284,-3380,-739,0
2291,-3408,-757,0
2301,-3415,-766,0
2302,-3403,-761,0
2305,-3394,-754,0
2298,-3390,-750,0
2291,-3389,-751,0
2285,-3386,-754,0
2280,-3389,-756,0
2282,-3395,-762,0
2283,-3395,-761,0
2284,-3397,-761,0
2280,-3394,-756,0
2280,-3389,-751,0
2284,-3384,-749,0
2292,-3384,-751,0
2291,-3388,-752,0
2289,-3386,-751,0
2290,-3380,-751,0
2289,-3377,-750,0
2290,-3376,-752,0
2287,-3381,-748,0
2281,-3376,-750,0
2273,-3367,-750,0
2271,-3362,-743,0
2267,-3357,-740,0
2263,-3350,-742,0
2259,-3346,-742,0
2254,-3339,-740,0
2246,-3335,-740,0
2242,-3331,-738,0
2245,-3324,-736,0
2244,-3319,-734,0
2244,-3315,-734,0
2241,-3318,-735,0
2241,-3317,-737,0
2245,-3320,-736,0
2249,-3319,-734,0
2254,-3318,-735,0
2258,-3324,-734,0
2263,-3321,-736,0
2265,-3318,-740,0
2267,-3317,-741,0
2271,-3320,-743,0
2275,-3329,-745,0
2274,-3332,-742,0
2267,-3332,-743,0
2268,-3326,-745,0
2270,-3325,-749,0
2271,-3325,-743,0
2267,-3327,-742,0
2260,-3328,-740,0
2263,-3333,-744,0
2264,-3334,-746,0
2270,-3337,-745,0
2270,-3347,-745,0
2271,-3350,-745,0
2272,-3355,-742,0
2280,-3361,-741,0
2280,-3370,-742,0
2288,-3379,-744,0
2292,-3386,-751,0
2302,-3393,-758,0
2309,-3398,-762,0
2316,-3402,-760,0
2323,-3406,-754,0
2322,-3410,-757,0
2324,-3418,-759,0
2327,-3434,-767,0
2330,-3452,-780,0
2330,-3462,-793,0
2325,-3461,-795,0
2325,-3451,-787,0
2317,-3439,-782,0
2311,-3437,-778,0
2300,-3433,-777,0
2292,-3429,-777,0
2281,-3420,-775,0
2276,-3415,-772,0
2267,-3407,-769,0
2260,-3404,-766,0
2258,-3393,-758,0
2255,-3383,-755,0
2251,-3378,-754,0
2252,-3371,-754,0
2254,-3369,-748,0
2249,-3368,-744,0
2246,-3360,-742,0
2242,-3348,-742,0
2246,-3342,-741,0
2251,-3341,-737,0
2248,-3344,-737,0
2245,-3341,-744,0
2242,-3339,-752,0
2243,-3331,-760,0
2242,-3327,-760,0
2240,-3319,-752,0
2239,-3313,-746,0
2230,-3304,-742,0
2230,-3290,-740,0
2230,-3283,-732,0
2229,-3279,-731,0
2226,-3274,-725,0
2220,-3256,-715,0
2221,-3242,-702,0
2222,-3240,-692,0
2230,-3257,-699,0
2236,-3279,-714,0
2248,-3304,-727,0
2257,-3322,-739,0
2269,-3336,-745,0
2276,-3341,-749,0
2281,-3335,-748,0
2288,-3330,-741,0
2291,-3334,-739,0
2296,-3343,-740,0
2296,-3349,-751,0
2291,-3356,-752,0
2294,-3362,-754,0
2300,-3367,-753,0
2303,-3375,-755,0
2300,-3382,-761,0
2299,-3387,-766,0
2297,-3390,-767,0
2303,-3397,-765,0
2303,-3404,-763,0
2299,-3418,-766,0
2293,-3428,-768,0
2297,-3434,-766,0
2304,-3439,-769,0
2308,-3451,-770,0
2307,-3459,-774,0
2309,-3470,-780,0
2307,-3472,-787,0
2312,-3473,-786,0
2316,-3466,-788,0
2315,-3458,-786,0
2315,-3443,-782,0
2308,-3436,-775,0
2300,-3432,-774,0
2291,-3426,-776,0
2287,-3418,-776,0
2274,-3410,-774,0
2265,-3399,-774,0
2258,-3389,-771,0
2248,-3368,-763,0
2248,-3350,-755,0
2243,-3339,-750,0
2237,-3327,-748,0
2219,-3295,-726,0
2210,-3271,-709,0
2210,-3260,-701,0
2215,-3259,-703,0
2226,-3276,-708,0
2241,-3292,-720,0
2253,-3310,-736,0
2266,-3323,-747,0
2271,-3330,-757,0
2284,-3332,-763,0
2286,-3334,-769,0
2294,-3327,-773,0
2304,-3324,-775,0
2297,-3316,-771,0
2292,-3315,-772,0
2288,-3307,-775,0
2284,-3303,-779,0
2281,-3298,-776,0
2279,-3296,-773,0
2279,-3294,-775,0
2275,-3294,-783,0
2276,-3299,-792,0
2279,-3304,-792,0
2281,-3319,-797,0
2279,-3333,-799,0
2286,-3343,-800,0
2296,-3349,-797,0
2307,-3349,-794,0
2317,-3356,-791,0
2319,-3366,-789,0
2324,-3372,-786,0
2328,-3380,-785,0
2334,-3385,-782,0
2336,-3391,-779,0
2331,-3396,-787,0
2337,-3402,-797,0
2324,-3397,-792,0
2306,-3390,-792,0
2287,-3382,-794,0
2278,-3370,-790,0
2277,-3370,-785,0
2279,-3364,-784,0
2282,-3363,-780,0
2282,-3363,-780,0
2279,-3361,-780,0
2280,-3354,-773,0
2280,-3347,-769,0
2282,-3351,-768,0
2284,-3356,-771,0
2286,-3358,-775,0
2293,-3362,-777,0
2299,-3367,-776,0
2301,-3372,-772,0
2300,-3380,-777,0
2302,-3379,-779,0
2304,-3382,-788,0
2309,-3378,-792,0
2306,-3373,-788,0
2296,-3364,-786,0
2287,-3350,-785,0
2276,-3341,-781,0
2263,-3334,-784,0
2259,-3324,-786,0
2259,-3320,-785,0
2252,-3317,-783,0
2250,-3315,-786,0
2242,-3319,-790,0
2243,-3324,-798,0
2240,-3327,-802,0
2237,-3332,-803,0
2238,-3338,-800,0
2241,-3338,-799,0
2246,-3340,-796,0
2250,-3349,-795,0
2252,-3358,-799,0
2256,-3365,-800,0
2264,-3367,-798,0
2265,-3367,-803,0
2272,-3357,-798,0
2274,-3350,-796,0
2270,-3350,-790,0
2264,-3348,-785,0
2255,-3341,-780,0
2255,-3336,-776,0
2252,-3329,-771,0
2252,-3330,-767,0
2249,-3341,-771,0
2248,-3350,-776,0
2253,-3351,-778,0
2252,-3348,-783,0
2255,-3358,-783,0
2252,-3363,-790,0
2254,-3366,-791,0
2255,-3368,-788,0
2255,-3372,-785,0
2258,-3381,-791,0
2267,-3384,-797,0
2269,-3382,-792,0
2274,-3386,-790,0
2278,-3387,-789,0
2279,-3393,-789,0
2281,-3395,-793,0
2287,-3395,-798,0
2290,-3395,-797,0
2288,-3398,-795,0
2288,-3399,-802,0
2285,-3395,-802,0
2280,-3388,-801,0
2281,-3382,-794,0
2278,-3375,-784,0
2269,-3374,-784,0
2261,-3372,-787,0
2260,-3373,-790,0
2257,-3373,-787,0
2263,-3374,-792,0
2265,-3381,-797,0
2260,-3386,-803,0
2259,-3385,-807,0
2255,-3387,-811,0
2254,-3383,-811,0
2259,-3378,-806,0
2263,-3369,-803,0
2265,-3366,-802,0
2266,-3364,-799,0
2261,-3364,-803,0
2265,-3364,-809,0
2263,-3362,-809,0
2261,-3355,-806,0
2255,-3348,-803,0
2249,-3341,-796,0
2240,-3333,-795,0
2236,-3324,-789,0
2235,-3320,-785,0
2231,-3322,-785,0
2230,-3326,-785,0
2227,-3328,-786,0
2225,-3334,-790,0
2231,-3336,-790,0
2233,-3344,-795,0
2236,-3345,-796,0
2238,-3354,-799,0
2244,-3360,-799,0
2253,-3362,-797,0
2263,-3364,-799,0
2266,-3366,-798,0
2269,-3366,-798,0
2267,-3362,-797,0
2268,-3359,-798,0
2268,-3355,-799,0
2270,-3352,-801,0
2275,-3351,-800,0
2278,-3351,-800,0
2268,-3352,-800,0
2267,-3347,-802,0
2267,-3347,-800,0
2269,-3350,-803,0
2264,-3357,-800,0
2262,-3363,-799,0
2263,-3369,-798,0
2270,-3376,-802,0
2274,-3383,-806,0
2279,-3386,-808,0
2281,-3390,-804,0
2283,-3390,-802,0
2284,-3390,-799,0
2287,-3391,-793,0
2294,-3399,-793,0
2299,-3407,-794,0
2298,-3410,-801,0
2296,-3408,-806,0
2299,-3405,-810,0
2300,-3396,-814,0
2301,-3385,-820,0
2299,-3377,-823,0
2295,-3370,-823,0
2289,-3368,-821,0
2285,-3365,-824,0
2282,-3361,-824,0
2282,-3359,-825,0
2281,-3357,-825,0
2275,-3349,-822,0
2270,-3339,-814,0
2262,-3326,-802,0
2255,-3319,-793,0
2250,-3311,-787,0
2246,-3307,-786,0
2242,-3303,-784,0
2243,-3300,-780,0
2250,-3298,-776,0
2253,-3301,-776,0
2256,-3302,-775,0
2259,-3301,-769,0
2258,-3298,-770,0
2261,-3302,-770,0
2268,-3305,-771,0
2271,-3310,-777,0
2269,-3312,-785,0
2271,-3320,-793,0
2274,-3324,-801,0
2273,-3327,-810,0
2269,-3324,-810,0
2267,-3313,-807,0
2268,-3301,-799,0
2267,-3300,-789,0
2267,-3305,-784,0
2265,-3306,-783,0
2275,-3311,-786,0
2283,-3323,-789,0
2291,-3341,-798,0
2298,-3359,-806,0
2304,-3369,-812,0
2308,-3376,-819,0
2315,-3377,-818,0
2318,-3378,-810,0
2315,-3378,-803,0
2319,-3381,-798,0
2326,-3381,-791,0
2332,-3389,-791,0
2338,-3397,-790,0
2344,-3415,-794,0
2350,-3422,-797,0
2352,-3430,-802,0
2352,-3432,-808,0
2349,-3430,-806,0
2348,-3433,-800,0
2347,-3427,-793,0
2341,-3422,-787,0
2338,-3419,-790,0
2337,-3415,-794,0
2331,-3417,-803,0
2329,-3414,-808,0
2315,-3411,-808,0
2310,-3403,-813,0
2294,-3399,-814,0
2281,-3389,-814,0
2276,-3377,-806,0
2271,-3362,-802,0
2262,-3347,-798,0
2261,-3329,-794,0
2257,-3319,-788,0
2253,-3312,-783,0
2249,-3301,-777,0
2237,-3290,-770,0
2231,-3278,-765,0
2220,-3264,-760,0
2208,-3246,-746,0
2198,-3232,-736,0
2193,-3230,-733,0
2189,-3234,-734,0
2185,-3242,-735,0
2188,-3247,-737,0
2188,-3254,-742,0
2187,-3261,-751,0
2188,-3268,-754,0
2187,-3270,-751,0
2190,-3273,-751,0
2189,-3276,-754,0
2194,-3279,-759,0
2202,-3280,-761,0
2210,-3279,-759,0
2214,-3282,-747,0
2216,-3286,-743,0
2220,-3288,-739,0
2230,-3293,-742,0
2239,-3300,-740,0
2249,-3314,-740,0
2253,-3328,-746,0
2263,-3343,-749,0
2270,-3358,-757,0
2278,-3375,-771,0
2287,-3410,-789,0
2296,-3438,-808,0
2312,-3463,-821,0
2325,-3479,-833,0
2332,-3487,-836,0
2340,-3490,-838,0
2344,-3479,-825,0
2341,-3468,-814,0
2339,-3461,-812,0
2335,-3449,-808,0
2333,-3444,-804,0
2332,-3439,-795,0
2330,-3448,-787,0
2335,-3456,-784,0
2341,-3461,-783,0
2346,-3455,-784,0
2357,-3452,-794,0
2374,-3456,-801,0
2379,-3454,-808,0
2377,-3446,-819,0
2367,-3443,-819,0
2349,-3433,-817,0
2334,-3416,-812,0
2315,-3395,-806,0
2299,-3371,-800,0
2286,-3352,-796,0
2278,-3338,-796,0
2265,-3334,-801,0
2251,-3322,-806,0
2229,-3299,-800,0
2212,-3265,-776,0
2197,-3232,-744,0
2188,-3214,-724,0
2188,-3210,-725,0
2193,-3219,-734,0
2207,-3244,-748,0
2219,-3266,-760,0
2234,-3286,-766,0
2242,-3292,-772,0
2249,-3288,-770,0
2248,-3281,-759,0
2247,-3269,-747,0
2245,-3263,-735,0
2245,-3267,-730,0
2249,-3280,-730,0
2257,-3294,-740,0
2268,-3311,-760,0
2281,-3325,-777,0
2287,-3337,-792,0
2289,-3350,-797,0
2285,-3360,-805,0
2284,-3365,-814,0
2290,-3368,-812,0
2299,-3379,-816,0
2309,-3389,-819,0
2312,-3400,-823,0
2318,-3408,-822,0
2324,-3409,-816,0
2326,-3415,-810,0
2328,-3419,-798,0
2328,-3423,-787,0
2329,-3430,-783,0
2335,-3440,-781,0
2344,-3448,-786,0
2350,-3462,-791,0
2361,-3481,-803,0
2363,-3491,-815,0
2364,-3495,-819,0
2357,-3493,-823,0
2347,-3479,-821,0
2340,-3470,-815,0
2338,-3449,-810,0
2334,-3433,-804,0
2325,-3417,-797,0
2315,-3402,-793,0
2310,-3385,-796,0
2301,-3368,-792,0
2295,-3357,-786,0
2290,-3359,-783,0
2286,-3358,-778,0
2282,-3344,-773,0
2278,-3331,-770,0
2276,-3321,-772,0
2275,-3315,-773,0
2272,-3312,-770,0
2263,-3312,-765,0
2254,-3309,-761,0
2247,-3298,-755,0
2242,-3295,-751,0
2237,-3295,-746,0
2232,-3293,-744,0
2232,-3304,-752,0
2235,-3314,-758,0
2234,-3325,-764,0
2236,-3327,-763,0
2237,-3333,-759,0
2235,-3330,-760,0
2235,-3328,-766,0
2235,-3326,-769,0
2232,-3322,-775,0
2232,-3321,-778,0
2227,-3308,-774,0
2216,-3292,-766,0
2215,-3285,-754,0
2214,-3279,-744,0
2222,-3282,-736,0
2232,-3292,-737,0
2244,-3308,-750,0
2254,-3323,-759,0
2265,-3334,-763,0
2267,-3338,-765,0
2272,-3341,-760,0
2269,-3343,-760,0
2265,-3347,-756,0
2267,-3348,-760,0
2272,-3354,-754,0
2277,-3359,-751,0
2282,-3366,-750,0
2281,-3372,-751,0
2283,-3378,-751,0
2283,-3387,-755,0
2287,-3405,-769,0
2296,-3418,-784,0
2299,-3432,-791,0
2302,-3442,-798,0
2305,-3449,-797,0
2312,-3447,-797,0
2318,-3445,-794,0
2321,-3441,-789,0
2326,-3433,-782,0
2323,-3426,-774,0
2318,-3416,-772,0
2311,-3406,-771,0
2307,-3397,-762,0
2304,-3376,-752,0
2299,-3363,-742,0
2289,-3357,-737,0
2280,-3349,-734,0
2276,-3345,-734,0
2272,-3347,-735,0
2270,-3353,-745,0
2272,-3365,-755,0
2272,-3372,-760,0
2267,-3368,-761,0
2260,-3363,-761,0
2255,-3353,-758,0
2254,-3352,-753,0
2250,-3351,-749,0
2256,-3359,-749,0
2265,-3373,-753,0
2277,-3386,-757,0
2287,-3394,-766,0
2291,-3401,-771,0
2287,-3405,-772,0
2288,-3400,-770,0
2292,-3396,-759,0
2296,-3396,-755,0
2298,-3399,-749,0
2302,-3402,-754,0
2304,-3397,-757,0
2302,-3391,-759,0
2295,-3385,-760,0
2287,-3375,-757,0
2280,-3360,-753,0
2275,-3350,-749,0
2271,-3341,-741,0
2264,-3336,-738,0
2253,-3329,-738,0
2244,-3322,-739,0
2240,-3316,-730,0
2231,-3302,-716,0
2220,-3289,-703,0
2210,-3289,-696,0
2211,-3291,-698,0
2213,-3291,-695,0
2219,-3302,-697,0
2221,-3320,-705,0
2223,-3331,-709,0
2224,-3334,-711,0
2231,-3339,-719,0
2236,-3342,-718,0
2238,-3345,-718,0
2245,-3346,-726,0
2248,-3345,-736,0
2250,-3348,-737,0
2248,-3350,-742,0
2251,-3350,-747,0
2251,-3350,-751,0
2252,-3348,-752,0
2254,-3348,-749,0
2255,-3352,-753,0
2259,-3363,-757,0
2263,-3366,-761,0
2270,-3380,-764,0
2271,-3390,-767,0
2276,-3399,-767,0
2279,-3404,-758,0
2278,-3407,-759,0
2276,-3407,-766,0
2280,-3406,-766,0
2283,-3407,-756,0
2287,-3408,-752,0
2293,-3410,-754,0
2294,-3414,-762,0
2302,-3423,-770,0
2312,-3429,-775,0
2317,-3436,-785,0
2315,-3434,-787,0
2308,-3419,-783,0
2303,-3410,-781,0
2303,-3399,-775,0
2297,-3397,-772,0
2293,-3395,-768,0
2292,-3394,-773,0
2291,-3392,-773,0
2289,-3387,-771,0
2286,-3379,-769,0
2279,-3370,-755,0
2276,-3369,-750,0
2269,-3360,-747,0
2275,-3349,-737,0
2274,-3345,-730,0
2269,-3348,-731,0
2263,-3352,-733,0
2258,-3346,-737,0
2259,-3344,-742,0
2255,-3340,-748,0
2250,-3336,-750,0
2239,-3333,-754,0
2228,-3325,-754,0
2222,-3317,-756,0
2224,-3313,-757,0
2221,-3317,-749,0
2219,-3322,-745,0
2220,-3326,-741,0
2222,-3326,-736,0
2228,-3329,-733,0
2229,-3335,-727,0
2232,-3337,-727,0
2232,-3338,-731,0
2235,-3337,-732,0
2241,-3338,-731,0
2244,-3346,-733,0
2249,-3352,-739,0
2253,-3360,-746,0
2257,-3374,-748,0
2260,-3385,-751,0
2262,-3393,-759,0
2269,-3393,-767,0
2276,-3394,-769,0
2283,-3396,-769,0
2286,-3402,-768,0
2282,-3404,-770,0
2272,-3404,-773,0
2264,-3400,-777,0
2265,-3396,-779,0
2268,-3400,-776,0
2269,-3402,-774,0
2271,-3409,-772,0
2267,-3417,-779,0
2271,-3421,-780,0
2269,-3415,-776,0
2264,-3408,-769,0
2263,-3399,-765,0
2265,-3389,-754,0
2268,-3385,-750,0
2269,-3383,-747,0
2276,-3393,-746,0
2282,-3394,-747,0
2287,-3392,-746,0
2293,-3396,-752,0
2298,-3392,-753,0
2300,-3388,-754,0
2306,-3387,-750,0
2301,-3385,-748,0
2299,-3387,-749,0
2290,-3383,-752,0
2286,-3380,-754,0
2283,-3373,-759,0
2277,-3369,-761,0
2268,-3362,-761,0
2259,-3353,-756,0
2248,-3340,-751,0
2238,-3330,-745,0
2231,-3325,-739,0
2227,-3322,-738,0
2224,-3317,-736,0
2226,-3317,-731,0
2229,-3324,-733,0
2232,-3334,-735,0
2238,-3341,-738,0
2245,-3347,-743,0
2251,-3350,-744,0
2250,-3356,-744,0
2250,-3368,-750,0
2252,-3364,-747,0
2255,-3354,-735,0
2258,-3345,-724,0
2255,-3344,-724,0
2254,-3350,-726,0
2260,-3353,-728,0
2261,-3350,-723,0
2266,-3347,-719,0
2271,-3345,-716,0
2273,-3344,-712,0
2270,-3342,-711,0
2268,-3344,-705,0
2269,-3348,-699,0
2270,-3353,-696,0
2271,-3360,-695,0
2271,-3361,-688,0
2266,-3366,-688,0
2273,-3371,-685,0
2273,-3382,-688,0
2275,-3402,-701,0
2284,-3416,-709,0
2285,-3424,-721,0
2290,-3428,-726,0
2292,-3430,-727,0
2284,-3423,-731,0
2268,-3408,-730,0
2272,-3405,-732,0
2278,-3393,-725,0
2286,-3385,-713,0
2287,-3384,-720,0
2278,-3392,-729,0
2282,-3389,-732,0
2293,-3393,-735,0
2301,-3394,-734,0
2306,-3396,-742,0
2309,-3400,-752,0
2302,-3403,-761,0
2294,-3397,-755,0
2289,-3386,-746,0
2283,-3369,-733,0
2277,-3350,-726,0
2275,-3341,-717,0
2275,-3337,-713,0
2279,-3346,-718,0
2281,-3352,-730,0
2276,-3352,-741,0
2276,-3354,-749,0
2277,-3354,-758,0
2275,-3346,-754,0
2272,-3343,-748,0
2262,-3339,-746,0
2259,-3339,-743,0
2251,-3336,-745,0
2245,-3329,-749,0
2244,-3327,-746,0
2246,-3330,-747,0
2248,-3332,-751,0
2251,-3336,-748,0
2261,-3335,-745,0
2270,-3337,-740,0
2277,-3345,-741,0
2276,-3354,-742,0
2275,-3364,-747,0
2275,-3370,-755,0
2280,-3378,-755,0
2287,-3386,-757,0
2296,-3391,-760,0
2302,-3401,-766,0
2300,-3406,-770,0
2300,-3405,-772,0
2305,-3392,-772,0
2302,-3387,-770,0
2303,-3387,-770,0
2299,-3383,-770,0
2290,-3378,-767,0
2285,-3372,-767,0
2282,-3363,-768,0
2283,-3367,-768,0
2286,-3367,-771,0
2288,-3366,-769,0
2291,-3365,-764,0
2290,-3370,-763,0
2287,-3373,-763,0
2291,-3374,-760,0
2297,-3373,-755,0
2298,-3379,-748,0
2300,-3385,-753,0
2302,-3382,-757,0
2305,-3381,-749,0
2303,-3377,-747,0
2299,-3371,-749,0
2295,-3358,-748,0
2291,-3349,-752,0
2282,-3342,-752,0
2282,-3333,-755,0
2277,-3324,-755,0
2272,-3320,-755,0
2266,-3313,-756,0
2261,-3308,-761,0
2258,-3309,-762,0
2264,-3309,-762,0
2264,-3308,-760,0
2267,-3307,-754,0
2269,-3308,-750,0
2265,-3311,-747,0
2259,-3315,-748,0
2256,-3318,-747,0
2257,-3325,-743,0
2260,-3334,-746,0
2260,-3338,-745,0
2263,-3340,-745,0
2266,-3347,-747,0
2268,-3358,-748,0
2274,-3362,-752,0
2274,-3368,-751,0
2284,-3373,-751,0
2288,-3388,-759,0
2296,-3395,-763,0
2301,-3389,-762,0
2300,-3386,-763,0
2295,-3379,-759,0
2283,-3370,-762,0
2272,-3362,-758,0
2262,-3353,-753,0
2257,-3349,-755,0
2250,-3354,-755,0
2248,-3356,-756,0
2246,-3365,-754,0
2240,-3372,-757,0
2245,-3377,-758,0
2252,-3376,-752,0
2255,-3380,-750,0
2259,-3384,-749,0
2266,-3388,-752,0
2273,-3388,-751,0
2273,-3389,-747,0
2279,-3393,-743,0
2281,-3395,-747,0
2282,-3394,-748,0
2278,-3397,-753,0
2282,-3400,-761,0
2291,-3425,-768,0
2301,-3455,-787,0
2305,-3463,-798,0
2303,-3455,-801,0
2299,-3439,-792,0
2291,-3422,-778,0
2287,-3404,-764,0
2276,-3389,-755,0
2275,-3374,-751,0
2272,-3364,-749,0
2273,-3356,-749,0
2267,-3351,-750,0
2265,-3336,-742,0
2263,-3327,-734,0
2261,-3322,-731,0
2256,-3323,-728,0
2255,-3308,-727,0
2252,-3295,-722,0
2251,-3289,-718,0
2249,-3289,-715,0
2247,-3287,-708,0
2243,-3288,-704,0
2243,-3297,-701,0
2245,-3310,-699,0
2251,-3327,-696,0
2254,-3342,-703,0
2261,-3352,-710,0
2270,-3369,-720,0
2274,-3389,-735,0
2281,-3405,-746,0
2282,-3414,-752,0
2277,-3409,-761,0
2274,-3402,-765,0
2275,-3407,-778,0
2278,-3408,-794,0
2283,-3395,-789,0
2288,-3368,-774,0
2284,-3339,-757,0
2278,-3321,-741,0
2276,-3313,-734,0
2282,-3316,-736,0
2291,-3326,-745,0
2298,-3338,-754,0
2303,-3352,-761,0
2301,-3361,-761,0
2296,-3365,-754,0
2293,-3358,-748,0
2287,-3359,-741,0
2275,-3359,-745,0
2264,-3353,-747,0
2253,-3346,-743,0
2245,-3345,-739,0
2240,-3349,-736,0
2237,-3353,-734,0
2231,-3350,-737,0
2230,-3347,-739,0
2230,-3351,-743,0
2227,-3356,-748,0
2229,-3356,-751,0
2229,-3354,-753,0
2232,-3354,-754,0
2242,-3366,-750,0
2245,-3374,-756,0
2247,-3384,-764,0
2260,-3393,-769,0
2269,-3406,-771,0
2271,-3415,-779,0
2266,-3414,-781,0
2263,-3407,-773,0
2259,-3400,-766,0
2254,-3400,-761,0
2241,-3406,-763,0
2232,-3418,-766,0
2224,-3433,-777,0
2224,-3448,-789,0
2228,-3460,-801,0
2239,-3472,-805,0
2252,-3475,-809,0
2267,-3472,-810,0
2280,-3457,-799,0
2292,-3442,-783,0
2302,-3430,-769,0
2312,-3428,-757,0
2318,-3422,-753,0
2320,-3416,-753,0
2318,-3413,-755,0
2318,-3419,-759,0
2311,-3419,-765,0
2309,-3411,-767,0
2305,-3410,-765,0
2307,-3407,-765,0
2301,-3400,-757,0
2291,-3389,-750,0
2282,-3373,-740,0
2272,-3362,-735,0
2254,-3348,-727,0
2237,-3341,-724,0
2222,-3342,-727,0
2210,-3342,-730,0
2200,-3345,-724,0
2198,-3355,-726,0
2192,-3363,-725,0
2191,-3360,-727,0
2193,-3359,-722,0
2195,-3354,-704,0
2202,-3338,-679,0
2200,-3315,-654,0
2202,-3288,-625,0
2198,-3263,-613,0
2188,-3226,-602,0
2175,-3179,-589,0
2172,-3156,-583,0
2183,-3169,-604,0
2201,-3221,-645,0
2236,-3314,-709,0
2280,-3425,-786,0
2319,-3531,-865,0
2344,-3607,-926,0
2347,-3621,-951,0
2339,-3596,-943,0
2316,-3537,-898,0
2291,-3473,-847,0
2270,-3414,-797,0
2254,-3381,-751,0
2250,-3378,-720,0
2247,-3375,-720,0
2241,-3366,-719,0
2233,-3357,-728,0
2215,-3363,-751,0
2203,-3369,-778,0
2205,-3382,-791,0
2223,-3389,-784,0
2240,-3399,-771,0
2252,-3414,-766,0
2256,-3424,-763,0
2256,-3428,-760,0
2256,-3422,-766,0
2255,-3425,-772,0
2252,-3427,-782,0
2251,-3424,-782,0
2254,-3413,-774,0
2254,-3400,-765,0
2260,-3392,-753,0
2258,-3378,-745,0
2258,-3356,-744,0
2262,-3346,-739,0
2271,-3335,-737,0
2276,-3334,-733,0
2273,-3326,-726,0
2281,-3347,-743,0
2269,-3313,-761,0
2267,-3287,-751,0
2252,-3279,-746,0
2238,-3280,-746,0
2232,-3277,-741,0
2235,-3275,-741,0
2241,-3284,-737,0
2252,-3299,-736,0
2256,-3318,-739,0
2262,-3313,-736,0
2269,-3310,-724,0
2266,-3317,-721,0
2257,-3325,-722,0
2248,-3325,-716,0
2239,-3325,-703,0
2236,-3327,-691,0
2240,-3334,-687,0
2244,-3347,-685,0
2259,-3371,-691,0
2278,-3408,-714,0
2297,-3453,-733,0
2318,-3484,-743,0
2333,-3511,-760,0
2339,-3526,-774,0
2341,-3519,-782,0
2332,-3501,-772,0
2328,-3469,-755,0
2322,-3445,-735,0
2314,-3414,-716,0
2309,-3395,-703,0
2306,-3381,-692,0
2299,-3375,-689,0
2297,-3368,-687,0
2290,-3367,-691,0
2285,-3363,-699,0
2278,-3364,-706,0
2273,-3366,-712,0
2264,-3367,-721,0
2247,-3366,-726,0
2239,-3360,-732,0
2234,-3359,-729,0
2226,-3352,-731,0
2224,-3342,-727,0
2219,-3334,-726,0
2215,-3333,-727,0
2215,-3340,-731,0
2220,-3341,-727,0
2224,-3338,-718,0
2232,-3336,-709,0
2244,-3337,-695,0
2251,-3332,-679,0
2259,-3336,-673,0
2266,-3338,-669,0
2267,-3338,-667,0
2274,-3335,-670,0
2280,-3347,-678,0
2289,-3356,-691,0
2294,-3374,-707,0
2298,-3389,-726,0
2298,-3399,-741,0
2290,-3405,-754,0
2284,-3404,-762,0
2279,-3400,-764,0
2277,-3395,-760,0
2273,-3396,-756,0
2274,-3390,-750,0
2273,-3387,-744,0
2270,-3382,-745,0
2272,-3390,-744,0
2272,-3401,-747,0
2272,-3406,-758,0
2277,-3403,-761,0
2285,-3401,-762,0
2289,-3396,-759,0
2290,-3390,-752,0
2288,-3386,-745,0
2287,-3385,-745,0
2290,-3386,-741,0
2301,-3391,-740,0
2304,-3388,-733,0
2306,-3391,-727,0
2307,-3390,-723,0
2303,-3389,-728,0
2297,-3393,-733,0
2291,-3382,-740,0
2284,-3375,-745,0
2284,-3373,-748,0
2284,-3370,-750,0
2283,-3362,-750,0
2283,-3354,-745,0
2286,-3349,-740,0
2289,-3344,-737,0
2287,-3341,-735,0
2292,-3330,-726,0
2294,-3322,-713,0
2293,-3312,-698,0
2298,-3315,-690,0
2296,-3319,-685,0
2294,-3311,-680,0
2296,-3309,-680,0
2298,-3319,-681,0
2303,-3336,-691,0
2306,-3351,-698,0
2305,-3358,-700,0
2297,-3362,-699,0
2290,-3358,-702,0
2281,-3355,-702,0
2268,-3340,-697,0
2262,-3324,-687,0
2252,-3313,-677,0
2248,-3311,-671,0
2243,-3314,-663,0
2242,-3323,-652,0
2236,-3329,-647,0
2235,-3332,-652,0
2231,-3343,-660,0
2239,-3356,-680,0
2247,-3367,-697,0
2262,-3373,-710,0
2273,-3383,-717,0
2290,-3393,-718,0
2300,-3402,-734,0
2314,-3408,-741,0
2320,-3403,-741,0
2331,-3390,-737,0
2343,-3386,-736,0
2349,-3377,-724,0
2351,-3371,-718,0
2351,-3369,-712,0
2346,-3360,-704,0
2339,-3354,-686,0
2330,-3346,-678,0
2317,-3338,-672,0
2302,-3326,-668,0
2289,-3320,-669,0
2280,-3323,-673,0
2281,-3328,-679,0
2275,-3329,-688,0
2268,-3328,-696,0
2263,-3327,-696,0
2257,-3338,-695,0
2260,-3353,-695,0
2258,-3377,-699,0
2268,-3409,-705,0
2289,-3468,-733,0
2311,-3501,-749,0
2327,-3520,-763,0
2336,-3527,-769,0
2334,-3529,-764,0
2326,-3517,-756,0
2317,-3496,-748,0
2303,-3478,-747,0
2286,-3457,-743,0
2269,-3438,-736,0
2248,-3412,-727,0
2220,-3387,-723,0
2201,-3363,-723,0
2185,-3348,-723,0
2176,-3343,-727,0
2169,-3356,-739,0
2166,-3369,-757,0
2161,-3371,-767,0
2162,-3368,-765,0
2161,-3366,-761,0
2165,-3357,-754,0
2175,-3349,-747,0
2180,-3347,-736,0
2190,-3350,-730,0
2192,-3352,-732,0
2206,-3370,-749,0
2214,-3372,-751,0
2226,-3356,-753,0
2241,-3339,-749,0
2247,-3327,-747,0
2257,-3321,-746,0
2259,-3315,-743,0
2260,-3313,-740,0
2265,-3311,-745,0
2271,-3319,-750,0
2281,-3319,-749,0
2289,-3320,-749,0
2297,-3325,-749,0
2301,-3341,-743,0
2306,-3356,-742,0
2308,-3362,-732,0
2311,-3375,-727,0
2310,-3381,-721,0
2313,-3387,-723,0
2315,-3397,-720,0
2320,-3403,-720,0
2323,-3407,-720,0
2327,-3410,-721,0
2324,-3414,-722,0
2320,-3418,-728,0
2315,-3415,-733,0
2315,-3414,-735,0
2311,-3409,-728,0
2300,-3403,-719,0
2289,-3392,-712,0
2274,-3375,-704,0
2265,-3364,-693,0
2261,-3354,-686,0
2258,-3343,-682,0
2260,-3337,-682,0
2258,-3337,-691,0
2262,-3340,-704,0
2259,-3339,-715,0
2259,-3338,-723,0
2256,-3326,-718,0
2248,-3310,-711,0
2238,-3293,-709,0
2223,-3287,-700,0
2208,-3282,-697,0
2196,-3289,-706,0
2186,-3299,-714,0
2185,-3323,-723,0
2182,-3344,-730,0
2183,-3365,-737,0
2188,-3382,-740,0
2194,-3393,-733,0
2202,-3396,-725,0
2212,-3399,-717,0
2225,-3398,-701,0
2231,-3396,-691,0
2234,-3392,-689,0
2231,-3391,-687,0
2232,-3389,-694,0
2230,-3382,-700,0
2229,-3379,-703,0
2222,-3380,-705,0
2217,-3377,-713,0
2211,-3376,-715,0
2204,-3373,-717,0
2202,-3365,-712,0
2206,-3365,-707,0
2209,-3367,-703,0
2211,-3371,-694,0
2213,-3377,-690,0
2218,-3383,-685,0
2219,-3398,-680,0
2231,-3422,-679,0
2242,-3443,-677,0
2251,-3453,-683,0
2266,-3471,-697,0
2265,-3488,-709,0
2267,-3506,-730,0
2264,-3516,-745,0
2263,-3509,-752,0
2250,-3493,-757,0
2239,-3492,-772,0
2228,-3502,-781,0
2168,-3497,-814,0
2094,-3533,-837,0
1909,-3544,-902,0
1810,-3559,-1045,0
1822,-3522,-1062,0
1907,-3460,-933,0
1978,-3380,-823,0
2072,-3305,-748,0
2201,-3223,-637,0
2333,-3125,-506,0
2465,-3074,-399,0
2512,-3081,-357,0
2468,-3146,-398,0
2408,-3240,-531,0
2402,-3316,-679,0
2485,-3374,-776,0
2599,-3403,-817,0
2681,-3403,-848,0
2706,-3409,-871,0
2666,-3397,-883,0
2603,-3397,-882,0
2515,-3374,-867,0
2429,-3336,-845,0
2358,-3292,-815,0
2298,-3239,-791,0
2275,-3196,-766,0
2271,-3172,-734,0
2258,-3161,-704,0
2237,-3170,-706,0
2220,-3181,-734,0
2228,-3200,-769,0
2269,-3234,-800,0
2332,-3265,-827,0
2404,-3301,-856,0
2477,-3345,-883,0
2525,-3372,-907,0
2544,-3395,-924,0
2551,-3424,-935,0
2542,-3464,-948,0
2491,-3487,-963,0
2425,-3495,-966,0
2366,-3485,-954,0
2304,-3446,-919,0
2248,-3408,-890,0
2195,-3378,-882,0
2158,-3355,-871,0
2153,-3361,-857,0
2136,-3375,-867,0
2097,-3411,-902,0
2067,-3437,-928,0
2081,-3468,-947,0
2107,-3506,-970,0
2114,-3560,-1006,0
2091,-3597,-1033,0
2062,-3609,-1032,0
2041,-3595,-1005,0
2036,-3569,-961,0
2035,-3548,-916,0
2029,-3541,-893,0
2010,-3529,-874,0
2004,-3538,-875,0
1998,-3532,-881,0
1998,-3513,-865,0
1997,-3482,-855,0
2000,-3427,-841,0
2001,-3385,-831,0
2023,-3331,-808,0
2041,-3287,-775,0
2065,-3263,-742,0
2074,-3250,-728,0
2076,-3238,-721,0
2076,-3222,-703,0
2090,-3213,-686,0
2125,-3225,-684,0
2177,-3263,-696,0
2217,-3287,-710,0
2268,-3323,-721,0
2318,-3360,-733,0
2365,-3394,-747,0
2392,-3407,-751,0
2428,-3412,-738,0
2465,-3410,-724,0
2498,-3413,-717,0
2508,-3414,-728,0
2506,-3415,-735,0
2483,-3401,-741,0
2466,-3378,-750,0
2445,-3358,-756,0
2423,-3328,-758,0
2399,-3298,-760,0
2380,-3273,-760,0
2366,-3255,-765,0
2357,-3246,-779,0
2359,-3238,-779,0
2351,-3215,-768,0
2347,-3191,-746,0
2344,-3178,-719,0
2342,-3179,-701,0
2347,-3212,-707,0
2358,-3255,-715,0
2387,-3302,-730,0
2414,-3350,-740,0
2430,-3394,-744,0
2443,-3422,-747,0
2450,-3444,-742,0
2447,-3455,-729,0
2435,-3463,-727,0
2418,-3466,-725,0
2399,-3462,-719,0
2385,-3449,-718,0
2365,-3436,-718,0
2348,-3428,-719,0
2321,-3416,-718,0
2305,-3406,-722,0
2279,-3397,-725,0
2264,-3396,-737,0
2250,-3399,-753,0
2235,-3407,-775,0
2230,-3422,-790,0
2230,-3432,-799,0
2230,-3437,-812,0
2235,-3439,-822,0
2240,-3437,-814,0
2241,-3436,-807,0
2245,-3439,-805,0
2246,-3446,-806,0
2250,-3449,-807,0
2252,-3448,-804,0
2253,-3447,-802,0
2238,-3436,-790,0
2219,-3416,-780,0
2195,-3388,-772,0
2180,-3357,-759,0
2160,-3331,-745,0
2143,-3315,-746,0
2132,-3312,-749,0
2124,-3306,-759,0
2117,-3292,-767,0
2106,-3280,-762,0
2093,-3260,-749,0
2079,-3227,-716,0
2065,-3199,-685,0
2055,-3178,-662,0
2056,-3169,-646,0
2070,-3183,-637,0
2093,-3217,-638,0
2126,-3255,-641,0
2164,-3291,-649,0
2202,-3318,-664,0
2236,-3345,-682,0
2272,-3370,-702,0
2301,-3392,-726,0
2322,-3407,-746,0
2336,-3423,-766,0
2347,-3451,-783,0
2364,-3493,-811,0
2385,-3536,-841,0
2401,-3570,-872,0
2419,-3599,-902,0
2422,-3612,-919,0
2420,-3615,-929,0
2408,-3604,-929,0
2395,-3585,-922,0
2384,-3548,-911,0
2363,-3510,-892,0
2344,-3481,-876,0
2318,-3446,-857,0
2302,-3407,-837,0
2291,-3376,-816,0
2284,-3360,-798,0
2275,-3363,-790,0
2268,-3383,-800,0
2271,-3407,-815,0
2274,-3414,-818,0
2275,-3391,-800,0
2262,-3344,-771,0
2245,-3284,-723,0
2232,-3225,-673,0
2219,-3179,-636,0
2207,-3150,-614,0
2195,-3138,-616,0
2190,-3149,-626,0
2193,-3168,-640,0
2195,-3180,-646,0
2197,-3196,-664,0
2197,-3213,-686,0
2197,-3231,-693,0
2203,-3243,-702,0
2205,-3255,-702,0
2205,-3261,-694,0
2212,-3266,-695,0
2222,-3271,-693,0
2243,-3286,-701,0
2259,-3301,-721,0
2273,-3304,-730,0
2277,-3298,-726,0
2274,-3302,-724,0
2276,-3325,-732,0
2287,-3368,-758,0
2304,-3414,-797,0
2322,-3458,-836,0
2328,-3483,-860,0
2323,-3487,-866,0
2311,-3467,-863,0
2301,-3441,-846,0
2296,-3413,-827,0
2288,-3390,-802,0
2280,-3378,-784,0
2268,-3377,-778,0
2266,-3382,-778,0
2264,-3395,-782,0
2270,-3412,-783,0
2278,-3437,-793,0
2287,-3460,-803,0
2288,-3471,-809,0
2288,-3484,-808,0
2289,-3492,-803,0
2287,-3483,-792,0
2281,-3467,-782,0
2280,-3460,-778,0
2279,-3449,-770,0
2286,-3438,-760,0
2282,-3431,-753,0
2283,-3423,-755,0
2282,-3415,-760,0
2280,-3407,-766,0
2285,-3397,-773,0
2285,-3397,-778,0
2285,-3392,-782,0
2283,-3385,-788,0
2284,-3377,-791,0
2280,-3374,-796,0
2267,-3370,-801,0
2255,-3364,-807,0
2239,-3354,-808,0
2229,-3338,-799,0
2220,-3331,-795,0
2213,-3321,-790,0
2203,-3312,-789,0
2200,-3308,-783,0
2200,-3306,-774,0
2197,-3297,-766,0
2195,-3295,-758,0
2188,-3292,-751,0
2187,-3292,-742,0
2182,-3297,-739,0
2182,-3297,-745,0
2183,-3303,-755,0
2184,-3316,-765,0
2187,-3328,-775,0
2188,-3332,-779,0
2189,-3329,-780,0
2197,-3336,-777,0
2201,-3337,-773,0
2214,-3340,-772,0
2224,-3351,-769,0
2231,-3359,-771,0
2244,-3367,-771,0
2255,-3379,-776,0
2267,-3396,-783,0
2279,-3410,-790,0
2284,-3412,-792,0
2290,-3410,-792,0
2293,-3415,-790,0
2294,-3414,-785,0
2293,-3409,-777,0
2295,-3401,-768,0
2293,-3399,-764,0
2297,-3404,-761,0
2302,-3414,-767,0
2304,-3423,-775,0
2305,-3431,-784,0
2306,-3437,-785,0
2304,-3446,-790,0
2303,-3449,-791,0
2294,-3446,-793,0
2290,-3437,-796,0
2289,-3428,-793,0
2286,-3416,-788,0
2282,-3398,-785,0
2277,-3375,-780,0
2271,-3355,-773,0
2267,-3339,-764,0
2257,-3328,-752,0
2253,-3316,-741,0
2247,-3302,-734,0
2245,-3298,-732,0
2247,-3298,-730,0
2244,-3304,-734,0
2243,-3315,-737,0
2242,-3320,-738,0
2248,-3333,-737,0
2248,-3341,-733,0
2250,-3348,-736,0
2250,-3355,-736,0
2254,-3364,-737,0
2265,-3392,-744,0
2273,-3414,-756,0
2274,-3423,-764,0
2269,-3418,-767,0
2258,-3406,-763,0
2246,-3390,-750,0
2229,-3376,-743,0
2210,-3364,-745,0
2201,-3353,-744,0
2200,-3339,-739,0
2203,-3342,-739,0
2200,-3353,-742,0
2198,-3363,-753,0
2198,-3369,-758,0
2203,-3373,-760,0
2210,-3381,-755,0
2220,-3389,-756,0
2218,-3394,-757,0
2226,-3395,-758,0
2232,-3401,-752,0
2233,-3402,-748,0
2234,-3402,-748,0
2234,-3398,-746,0
2228,-3392,-750,0
2227,-3386,-750,0
2225,-3386,-753,0
2227,-3389,-760,0
2230,-3387,-768,0
2235,-3387,-776,0
2242,-3393,-785,0
2244,-3395,-793,0
2245,-3389,-798,0
2248,-3383,-802,0
2255,-3377,-796,0
2257,-3376,-789,0
2260,-3377,-784,0
2268,-3385,-781,0
2278,-3386,-779,0
2287,-3388,-771,0
2297,-3394,-769,0
2302,-3399,-763,0
2305,-3403,-759,0
2308,-3403,-755,0
2310,-3399,-748,0
2301,-3398,-757,0
2298,-3396,-760,0
2300,-3395,-761,0
2300,-3391,-764,0
2301,-3392,-761,0
2295,-3395,-758,0
2288,-3400,-759,0
2285,-3396,-762,0
2281,-3387,-755,0
2278,-3381,-751,0
2276,-3371,-753,0
2264,-3364,-753,0
2258,-3349,-746,0
2261,-3336,-733,0
2259,-3323,-729,0
2251,-3317,-724,0
2246,-3312,-727,0
2241,-3309,-735,0
2244,-3317,-744,0
2239,-3313,-748,0
2233,-3299,-744,0
2227,-3280,-736,0
2224,-3266,-730,0
2223,-3264,-727,0
2222,-3269,-726,0
2216,-3271,-718,0
2212,-3270,-709,0
2219,-3273,-708,0
2227,-3293,-714,0
2232,-3315,-724,0
2244,-3342,-732,0
2258,-3368,-742,0
2273,-3392,-745,0
2284,-3411,-756,0
2284,-3421,-758,0
2286,-3430,-763,0
2291,-3435,-766,0
2295,-3440,-764,0
2297,-3451,-766,0
2295,-3458,-768,0
2297,-3463,-772,0
2303,-3460,-775,0
2312,-3450,-771,0
2322,-3444,-767,0
2319,-3444,-765,0
2316,-3441,-768,0
2316,-3428,-771,0
2321,-3416,-771,0
2322,-3406,-767,0
2313,-3399,-770,0
2307,-3406,-777,0
2304,-3412,-791,0
2305,-3411,-801,0
2303,-3406,-798,0
2293,-3388,-783,0
2282,-3363,-761,0
2263,-3330,-737,0
2249,-3297,-716,0
2234,-3275,-697,0
2229,-3271,-685,0
2224,-3282,-683,0
2222,-3297,-697,0
2228,-3312,-716,0
2234,-3324,-728,0
2237,-3337,-734,0
2244,-3354,-729,0
2248,-3364,-722,0
2253,-3364,-716,0
2256,-3358,-709,0
2261,-3353,-709,0
2256,-3350,-701,0
2255,-3352,-705,0
2254,-3348,-706,0
2253,-3351,-718,0
2253,-3354,-727,0
2250,-3362,-725,0
2245,-3363,-731,0
2234,-3361,-730,0
2227,-3356,-729,0
2224,-3357,-728,0
2225,-3364,-734,0
2231,-3372,-740,0
2231,-3372,-741,0
2241,-3373,-738,0
2246,-3376,-740,0
2250,-3382,-744,0
2253,-3380,-747,0
2254,-3383,-745,0
2260,-3377,-747,0
2258,-3371,-744,0
2255,-3363,-743,0
2255,-3358,-744,0
2247,-3361,-739,0
2250,-3364,-741,0
2243,-3369,-748,0
2242,-3378,-753,0
2242,-3388,-762,0
2234,-3406,-770,0
2229,-3417,-779,0
2227,-3415,-782,0
2227,-3412,-780,0
2229,-3413,-770,0
2230,-3418,-772,0
2226,-3427,-775,0
2231,-3434,-788,0
2244,-3442,-795,0
2263,-3440,-796,0
2277,-3443,-796,0
2286,-3431,-800,0
2288,-3423,-801,0
2293,-3409,-789,0
2298,-3388,-782,0
2300,-3365,-768,0
2298,-3347,-758,0
2299,-3339,-757,0
2299,-3334,-763,0
2300,-3331,-766,0
2290,-3333,-761,0
2277,-3332,-751,0
2264,-3329,-742,0
2255,-3317,-721,0
2249,-3308,-711,0
2251,-3320,-717,0
2249,-3328,-722,0
2250,-3342,-731,0
2250,-3359,-741,0
2249,-3370,-757,0
2247,-3370,-763,0
2248,-3372,-768,0
2252,-3372,-767,0
2255,-3363,-761,0
2251,-3350,-758,0
2246,-3336,-756,0
2247,-3335,-752,0
2248,-3335,-742,0
2245,-3327,-742,0
2248,-3323,-743,0
2248,-3325,-747,0
2246,-3330,-751,0
2245,-3335,-754,0
2242,-3344,-752,0
2234,-3343,-752,0
2232,-3351,-750,0
2227,-3356,-753,0
2226,-3372,-757,0
2228,-3387,-767,0
2235,-3415,-783,0
2241,-3439,-802,0
2247,-3455,-811,0
2247,-3458,-818,0
2246,-3453,-814,0
2245,-3438,-809,0
2239,-3424,-800,0
2220,-3412,-784,0
2212,-3404,-778,0
2215,-3390,-764,0
2223,-3383,-750,0
2228,-3377,-742,0
2230,-3378,-741,0
2241,-3380,-744,0
2255,-3385,-742,0
2267,-3388,-741,0
2270,-3395,-739,0
2264,-3398,-741,0
2259,-3408,-749,0
2256,-3415,-759,0
2263,-3422,-768,0
2272,-3430,-776,0
2276,-3433,-783,0
2272,-3429,-790,0
2264,-3415,-790,0
2256,-3401,-784,0
2245,-3386,-770,0
2237,-3374,-756,0
2230,-3364,-747,0
2228,-3352,-744,0
2233,-3347,-740,0
2241,-3344,-740,0
2245,-3345,-744,0
2248,-3343,-744,0
2251,-3339,-743,0
2248,-3335,-732,0
2242,-3334,-724,0
2237,-3331,-721,0
2233,-3323,-718,0
2231,-3321,-721,0
2229,-3324,-731,0
2230,-3331,-735,0
2229,-3342,-737,0
2221,-3340,-733,0
2217,-3324,-727,0
2214,-3313,-723,0
2208,-3303,-721,0
2202,-3308,-726,0
2202,-3314,-728,0
2202,-3315,-734,0
2205,-3314,-740,0
2205,-3309,-737,0
2209,-3307,-731,0
2210,-3305,-729,0
2209,-3303,-727,0
2213,-3306,-725,0
2217,-3308,-723,0
2223,-3317,-730,0
2224,-3324,-735,0
2232,-3331,-739,0
2233,-3336,-748,0
2237,-3339,-757,0
2237,-3350,-760,0
2236,-3357,-764,0
2231,-3362,-762,0
2226,-3356,-760,0
2223,-3349,-756,0
2230,-3345,-750,0
2232,-3340,-749,0
2234,-3337,-748,0
2231,-3331,-749,0
2229,-3326,-747,0
2227,-3316,-741,0
2227,-3308,-737,0
2223,-3300,-729,0
2226,-3293,-727,0
2227,-3290,-722,0
2230,-3284,-722,0
2235,-3284,-723,0
2236,-3286,-720,0
2231,-3287,-718,0
2223,-3286,-715,0
2223,-3293,-711,0
2221,-3296,-709,0
2220,-3302,-715,0
2216,-3307,-725,0
2213,-3314,-735,0
2208,-3321,-741,0
2202,-3318,-746,0
2196,-3308,-749,0
2190,-3295,-748,0
2184,-3284,-746,0
2176,-3270,-743,0
2165,-3252,-736,0
2162,-3239,-730,0
2160,-3224,-718,0
2158,-3220,-717,0
2156,-3218,-713,0
2150,-3217,-707,0
2137,-3222,-710,0
2134,-3218,-715,0
2137,-3224,-711,0
2139,-3231,-704,0
2142,-3238,-702,0
2142,-3249,-703,0
2146,-3263,-708,0
2154,-3276,-713,0
2162,-3289,-715,0
2171,-3300,-718,0
2178,-3311,-720,0
2189,-3314,-725,0
2195,-3321,-735,0
2212,-3346,-751,0
2216,-3356,-766,0
2222,-3353,-773,0
2223,-3342,-772,0
2226,-3323,-766,0
2229,-3302,-756,0
2228,-3285,-748,0
2229,-3271,-741,0
2231,-3251,-731,0
2230,-3245,-725,0
2234,-3246,-722,0
2235,-3256,-723,0
2230,-3267,-727,0
2226,-3273,-730,0
2228,-3277,-734,0
2229,-3282,-729,0
2224,-3281,-724,0
2219,-3282,-720,0
2210,-3275,-719,0
2212,-3269,-714,0
2208,-3262,-710,0
2197,-3258,-705,0
2182,-3266,-709,0
2175,-3264,-712,0
2170,-3256,-710,0
2171,-3242,-704,0
2166,-3235,-705,0
2155,-3235,-711,0
2146,-3224,-713,0
2146,-3213,-715,0
2153,-3200,-708,0
2145,-3197,-711,0
2139,-3202,-711,0
2137,-3207,-714,0
2138,-3211,-719,0
2145,-3215,-726,0
2147,-3218,-731,0
2151,-3221,-731,0
2148,-3220,-729,0
2147,-3217,-734,0
2145,-3213,-734,0
2142,-3211,-731,0
2142,-3211,-728,0
2136,-3212,-722,0
2137,-3220,-725,0
2144,-3233,-729,0
2155,-3242,-727,0
2162,-3247,-730,0
2171,-3256,-735,0
2173,-3256,-735,0
2176,-3255,-736,0
2174,-3249,-734,0
2168,-3234,-732,0
2163,-3225,-729,0
2156,-3219,-724,0
2154,-3213,-713,0
2157,-3213,-707,0
2163,-3218,-703,0
2173,-3231,-707,0
2180,-3242,-710,0
2187,-3250,-716,0
2190,-3256,-719,0
2193,-3255,-718,0
2193,-3254,-712,0
2185,-3252,-707,0
2176,-3250,-701,0
2169,-3246,-695,0
2167,-3245,-693,0
2165,-3251,-698,0
2168,-3258,-700,0
2172,-3265,-704,0
2173,-3263,-705,0
2172,-3259,-711,0
2170,-3254,-718,0
2170,-3251,-722,0
2172,-3248,-718,0
2172,-3247,-714,0
2162,-3242,-711,0
2157,-3224,-708,0
2153,-3208,-703,0
2149,-3193,-700,0
2147,-3180,-690,0
2145,-3179,-685,0
2141,-3180,-681,0
2144,-3180,-681,0
2135,-3182,-677,0
2127,-3184,-676,0
2119,-3186,-674,0
2119,-3184,-671,0
2114,-3185,-671,0
2113,-3191,-673,0
2116,-3193,-683,0
2117,-3197,-690,0
2121,-3205,-706,0
2124,-3206,-716,0
2130,-3210,-722,0
2132,-3213,-723,0
2130,-3217,-723,0
2127,-3217,-710,0
2125,-3214,-699,0
2122,-3204,-690,0
2123,-3193,-683,0
2124,-3185,-685,0
2129,-3185,-689,0
2142,-3193,-703,0
2153,-3200,-716,0
2166,-3213,-731,0
2173,-3218,-738,0
2172,-3219,-741,0
2164,-3204,-738,0
2155,-3188,-726,0
2143,-3166,-712,0
2136,-3150,-693,0
2121,-3139,-677,0
2110,-3134,-669,0
2106,-3138,-667,0
2104,-3139,-663,0
2106,-3145,-670,0
2112,-3163,-678,0
2122,-3180,-690,0
2131,-3193,-698,0
2131,-3203,-707,0
2126,-3205,-708,0
2121,-3193,-706,0
2114,-3184,-697,0
2104,-3178,-693,0
2103,-3177,-685,0
2101,-3174,-679,0
2100,-3174,-675,0
2102,-3182,-678,0
2111,-3188,-685,0
2126,-3199,-691,0
2131,-3206,-694,0
2135,-3216,-703,0
2138,-3223,-708,0
2139,-3224,-706,0
2133,-3223,-705,0
2131,-3219,-699,0
2127,-3210,-698,0
2121,-3208,-696,0
2119,-3204,-698,0
2113,-3203,-700,0
2104,-3200,-700,0
2093,-3189,-706,0
2083,-3184,-709,0
2078,-3182,-711,0
2076,-3179,-708,0
2074,-3170,-701,0
2071,-3168,-693,0
2062,-3163,-686,0
2056,-3156,-685,0
2047,-3153,-676,0
2041,-3148,-663,0
2041,-3142,-655,0
2046,-3143,-655,0
2052,-3147,-656,0
2064,-3155,-664,0
2077,-3162,-679,0
2093,-3167,-686,0
2100,-3171,-696,0
2111,-3174,-705,0
2118,-3172,-709,0
2117,-3166,-713,0
2119,-3164,-713,0
2119,-3162,-715,0
2114,-3163,-711,0
2106,-3162,-705,0
2101,-3157,-699,0
2096,-3152,-693,0
2097,-3151,-690,0
2098,-3148,-691,0
2098,-3153,-689,0
2100,-3159,-685,0
2101,-3161,-682,0
2100,-3165,-680,0
2099,-3165,-683,0
2097,-3169,-686,0
2096,-3170,-690,0
2095,-3169,-695,0
2092,-3165,-694,0
2087,-3157,-696,0
2080,-3151,-701,0
2082,-3146,-703,0
2080,-3137,-702,0
2079,-3137,-696,0
2075,-3126,-689,0
2073,-3117,-683,0
2074,-3107,-677,0
2072,-3101,-672,0
2069,-3100,-667,0
2067,-3098,-661,0
2063,-3101,-655,0
2061,-3104,-649,0
2059,-3107,-646,0
2063,-3111,-649,0
2067,-3118,-653,0
2071,-3129,-661,0
2079,-3137,-664,0
2091,-3147,-667,0
2099,-3154,-667,0
2101,-3160,-668,0
2107,-3167,-670,0
2117,-3187,-679,0
2125,-3194,-681,0
2125,-3186,-682,0
2125,-3175,-672,0
2125,-3158,-658,0
2125,-3150,-652,0
2128,-3151,-653,0
2138,-3159,-664,0
2144,-3173,-666,0
2152,-3190,-678,0
2156,-3201,-686,0
2158,-3210,-690,0
2156,-3218,-692,0
2160,-3222,-692,0
2155,-3223,-691,0
2146,-3218,-692,0
2137,-3217,-689,0
2125,-3220,-688,0
2111,-3218,-690,0
2103,-3217,-694,0
2095,-3223,-703,0
2087,-3222,-706,0
2076,-3194,-702,0
2069,-3175,-698,0
2072,-3159,-696,0
2073,-3145,-692,0
2066,-3140,-683,0
2062,-3151,-675,0
2060,-3165,-679,0
2059,-3187,-676,0
2061,-3203,-678,0
2072,-3214,-687,0
2086,-3214,-689,0
2095,-3215,-687,0
2109,-3210,-683,0
2125,-3198,-682,0
2140,-3186,-679,0
2151,-3185,-683,0
2167,-3201,-702,0
2183,-3219,-719,0
2192,-3235,-737,0
2197,-3237,-744,0
2194,-3231,-738,0
2188,-3216,-728,0
2177,-3191,-710,0
2165,-3173,-690,0
2152,-3156,-669,0
2148,-3150,-654,0
2142,-3144,-646,0
2140,-3146,-644,0
2142,-3157,-643,0
2146,-3157,-646,0
2151,-3156,-657,0
2152,-3162,-675,0
2155,-3167,-684,0
2157,-3171,-694,0
2167,-3177,-699,0
2173,-3187,-692,0
2175,-3186,-686,0
2181,-3190,-681,0
2184,-3189,-673,0
2187,-3192,-668,0
2190,-3194,-666,0
2199,-3200,-667,0
2208,-3205,-669,0
2216,-3210,-675,0
2225,-3215,-682,0
2229,-3217,-684,0
2229,-3216,-684,0
2227,-3214,-690,0
2226,-3212,-695,0
2229,-3210,-698,0
2233,-3218,-703,0
2235,-3224,-709,0
2237,-3229,-708,0
2237,-3227,-707,0
2233,-3222,-704,0
2226,-3224,-699,0
2218,-3225,-694,0
2208,-3227,-691,0
2199,-3224,-690,0
2191,-3221,-684,0
2179,-3214,-678,0
2166,-3208,-668,0
2161,-3203,-663,0
2157,-3201,-665,0
2156,-3208,-667,0
2154,-3213,-675,0
2155,-3225,-676,0
2155,-3234,-679,0
2152,-3243,-678,0
2147,-3245,-676,0
2147,-3243,-671,0
2149,-3241,-664,0
2142,-3244,-660,0
2131,-3247,-664,0
2130,-3254,-673,0
2130,-3269,-687,0
2130,-3290,-702,0
2128,-3303,-712,0
2127,-3316,-721,0
2126,-3330,-724,0
2124,-3341,-729,0
2128,-3351,-732,0
2129,-3357,-731,0
2128,-3361,-729,0
2128,-3371,-722,0
2127,-3372,-719,0
2128,-3362,-715,0
2119,-3350,-712,0
2111,-3327,-705,0
2104,-3307,-699,0
2100,-3297,-698,0
2102,-3292,-704,0
2107,-3298,-718,0
2110,-3298,-727,0
2110,-3300,-736,0
2112,-3301,-737,0
2110,-3299,-737,0
2108,-3296,-733,0
2105,-3288,-727,0
2109,-3284,-719,0
2108,-3275,-708,0
2107,-3278,-708,0
2109,-3277,-706,0
2111,-3282,-713,0
2118,-3291,-715,0
2124,-3299,-716,0
2130,-3301,-717,0
2131,-3303,-717,0
2125,-3303,-716,0
2127,-3301,-716,0
2127,-3305,-715,0
2122,-3306,-724,0
2118,-3310,-724,0
2122,-3308,-724,0
2127,-3306,-720,0
2134,-3301,-722,0
2137,-3303,-724,0
2142,-3312,-728,0
2141,-3310,-731,0
2136,-3299,-720,0
2136,-3287,-706,0
2141,-3290,-700,0
2149,-3314,-710,0
2159,-3340,-729,0
2165,-3362,-742,0
2174,-3373,-753,0
2179,-3378,-762,0
2179,-3383,-767,0
2177,-3371,-759,0
2166,-3356,-749,0
2149,-3324,-725,0
2146,-3299,-699,0
2141,-3297,-689,0
2137,-3319,-703,0
2145,-3348,-728,0
2147,-3378,-750,0
2148,-3394,-763,0
2155,-3396,-768,0
2152,-3392,-764,0
2147,-3374,-751,0
2134,-3358,-734,0
2127,-3345,-724,0
2121,-3335,-704,0
2120,-3331,-688,0
2124,-3336,-682,0
2125,-3350,-691,0
2125,-3365,-703,0
2132,-3380,-716,0
2139,-3392,-725,0
2140,-3397,-724,0
2133,-3394,-721,0
2130,-3384,-717,0
2133,-3373,-709,0
2131,-3368,-700,0
2131,-3370,-696,0
2136,-3367,-690,0
2141,-3372,-690,0
2145,-3374,-693,0
2154,-3380,-689,0
2165,-3375,-682,0
2166,-3369,-671,0
2170,-3363,-658,0
2178,-3361,-643,0
2187,-3360,-630,0
2200,-3355,-623,0
2219,-3348,-619,0
2233,-3339,-627,0
2254,-3324,-631,0
2286,-3304,-628,0
2256,-3312,-593,0
2130,-3380,-647,0
1887,-3469,-807,0
1784,-3535,-1033,0
1958,-3482,-1053,0
2380,-3265,-819,0
2936,-2972,-474,0
3319,-2741,-182,0
3434,-2703,-60,0
3280,-2794,-126,0
3018,-2983,-347,0
2838,-3211,-544,0
2732,-3378,-609,0
2662,-3483,-662,0
2522,-3519,-756,0
2327,-3484,-842,0
2152,-3425,-889,0
2029,-3325,-884,0
1929,-3195,-751,0
1866,-3124,-616,0
1831,-3101,-539,0
1819,-3094,-519,0
1832,-3088,-512,0
1855,-3098,-521,0
1897,-3139,-574,0
1972,-3202,-626,0
2070,-3276,-649,0
2191,-3374,-665,0
2303,-3483,-704,0
2389,-3578,-769,0
2458,-3648,-840,0
2514,-3685,-889,0
2552,-3697,-915,0
2548,-3659,-908,0
2511,-3576,-871,0
2457,-3457,-807,0
2407,-3347,-730,0
2362,-3263,-658,0
2317,-3212,-619,0
2275,-3206,-616,0
2235,-3222,-631,0
2202,-3239,-654,0
2172,-3250,-672,0
2144,-3253,-684,0
2117,-3261,-692,0
2089,-3263,-696,0
2068,-3265,-689,0
2052,-3262,-679,0
2040,-3259,-668,0
2034,-3260,-657,0
2031,-3268,-652,0
2029,-3281,-655,0
2028,-3293,-667,0
2028,-3311,-687,0
2027,-3319,-703,0
2030,-3326,-720,0
2035,-3330,-733,0
2041,-3337,-749,0
2051,-3335,-757,0
2068,-3329,-753,0
2092,-3315,-730,0
2113,-3294,-697,0
2131,-3266,-654,0
2157,-3243,-608,0
2187,-3240,-579,0
2217,-3267,-578,0
2237,-3305,-595,0
2250,-3348,-616,0
2256,-3371,-630,0
2249,-3401,-647,0
2228,-3422,-667,0
2207,-3446,-690,0
2180,-3454,-710,0
2145,-3447,-722,0
2107,-3438,-727,0
2081,-3439,-730,0
2078,-3457,-741,0
2061,-3422,-726,0
2047,-3394,-708,0
2048,-3399,-704,0
2067,-3436,-727,0
2092,-3450,-751,0
2101,-3412,-733,0
2119,-3380,-715,0
2145,-3382,-714,0
2168,-3413,-737,0
2188,-3436,-758,0
2193,-3410,-749,0
2185,-3346,-703,0
2184,-3310,-675,0
2180,-3303,-675,0
2181,-3312,-687,0
2186,-3321,-702,0
2199,-3320,-714,0
2203,-3308,-716,0
2200,-3286,-711,0
2190,-3248,-691,0
2177,-3233,-670,0
2171,-3235,-663,0
2173,-3256,-669,0
2170,-3276,-678,0
2169,-3296,-693,0
2164,-3312,-703,0
2178,-3320,-715,0
2189,-3316,-689,0
2185,-3307,-673,0
2175,-3306,-675,0
2175,-3317,-661,0
2184,-3315,-629,0
2201,-3309,-600,0
2211,-3305,-591,0
2215,-3302,-599,0
2229,-3311,-613,0
2238,-3321,-632,0
2253,-3343,-656,0
2267,-3355,-672,0
2285,-3361,-674,0
2302,-3361,-671,0
2307,-3358,-665,0
2304,-3350,-676,0
2290,-3350,-681,0
2271,-3344,-692,0
2255,-3332,-687,0
2236,-3320,-677,0
2213,-3311,-663,0
2197,-3302,-659,0
2186,-3292,-662,0
2184,-3288,-673,0
2185,-3280,-693,0
2182,-3275,-711,0
2164,-3270,-725,0
2144,-3258,-728,0
2123,-3236,-722,0
2103,-3216,-713,0
2092,-3203,-714,0
2083,-3198,-711,0
2082,-3205,-712,0
2089,-3216,-713,0
2102,-3227,-709,0
2115,-3234,-701,0
2130,-3247,-692,0
2141,-3260,-678,0
2148,-3268,-669,0
2161,-3268,-652,0
2177,-3267,-636,0
2207,-3284,-622,0
2240,-3340,-639,0
2267,-3406,-676,0
2290,-3482,-713,0
2313,-3540,-733,0
2328,-3576,-740,0
2337,-3599,-738,0
2337,-3615,-738,0
2336,-3620,-743,0
2329,-3623,-748,0
2326,-3637,-760,0
2324,-3648,-767,0
2316,-3592,-745,0
2300,-3566,-722,0
2284,-3535,-700,0
2283,-3516,-698,0
2275,-3516,-720,0
2271,-3523,-750,0
2274,-3526,-777,0
2273,-3524,-793,0
2276,-3521,-805,0
2280,-3521,-817,0
2284,-3517,-831,0
2297,-3504,-834,0
2309,-3477,-823,0
2312,-3449,-806,0
2303,-3422,-791,0
2290,-3396,-784,0
2274,-3379,-773,0
2257,-3363,-764,0
2243,-3344,-757,0
2226,-3321,-743,0
2209,-3287,-727,0
2199,-3276,-712,0
2193,-3274,-709,0
2192,-3275,-712,0
2195,-3280,-717,0
2205,-3291,-720,0
2214,-3292,-718,0
2219,-3283,-702,0
2216,-3267,-678,0
2212,-3258,-662,0
2214,-3260,-652,0
2223,-3270,-649,0
2229,-3290,-649,0
2233,-3333,-669,0
2241,-3349,-683,0
2242,-3382,-705,0
2242,-3408,-721,0
2257,-3415,-720,0
2268,-3409,-711,0
2269,-3406,-710,0
2269,-3404,-711,0
2268,-3400,-707,0
2267,-3395,-700,0
2265,-3388,-688,0
2259,-3376,-677,0
2260,-3369,-671,0
2256,-3355,-660,0
2256,-3347,-652,0
2256,-3347,-652,0
2262,-3356,-653,0
2274,-3368,-663,0
2287,-3386,-671,0
2297,-3409,-682,0
2307,-3423,-693,0
2311,-3436,-707,0
2308,-3446,-722,0
2305,-3452,-744,0
2299,-3452,-759,0
2291,-3454,-766,0
2276,-3453,-772,0
2261,-3446,-779,0
2251,-3436,-779,0
2246,-3424,-769,0
2248,-3412,-759,0
2250,-3398,-746,0
2247,-3382,-733,0
2243,-3366,-721,0
2241,-3354,-710,0
2241,-3351,-697,0
2240,-3350,-697,0
2242,-3346,-696,0
2239,-3347,-696,0
2235,-3346,-700,0
2233,-3354,-706,0
2226,-3362,-705,0
2217,-3370,-704,0
2206,-3371,-706,0
2201,-3367,-703,0
2199,-3365,-709,0
2198,-3368,-707,0
2197,-3371,-706,0
2194,-3369,-703,0
2198,-3373,-701,0
2206,-3376,-705,0
2210,-3378,-706,0
2222,-3375,-705,0
2231,-3365,-708,0
2240,-3359,-704,0
2251,-3356,-699,0
2261,-3351,-690,0
2271,-3356,-684,0
2289,-3358,-679,0
2301,-3356,-671,0
2312,-3359,-659,0
2315,-3357,-651,0
2320,-3359,-642,0
2313,-3357,-639,0
2301,-3357,-640,0
2296,-3359,-640,0
2280,-3361,-641,0
2273,-3358,-643,0
2257,-3355,-641,0
2241,-3355,-638,0
2231,-3352,-642,0
2216,-3350,-641,0
2209,-3349,-646,0
2204,-3363,-651,0
2209,-3376,-656,0
2215,-3385,-661,0
2218,-3393,-670,0
2220,-3397,-673,0
2226,-3393,-667,0
2225,-3380,-656,0
2232,-3378,-646,0
2241,-3378,-643,0
2254,-3389,-656,0
2266,-3400,-666,0
2261,-3418,-679,0
2257,-3441,-687,0
2263,-3453,-698,0
2273,-3453,-698,0
2276,-3443,-681,0
2261,-3435,-665,0
2234,-3430,-663,0
2210,-3430,-669,0
2194,-3434,-686,0
2181,-3443,-704,0
2170,-3449,-715,0
2164,-3455,-731,0
2156,-3458,-740,0
2151,-3452,-743,0
2150,-3445,-744,0
2156,-3447,-751,0
2168,-3455,-758,0
2180,-3454,-764,0
2188,-3454,-766,0
2193,-3461,-771,0
2197,-3468,-780,0
2205,-3476,-785,0
2214,-3480,-780,0
2220,-3478,-778,0
2227,-3468,-771,0
2232,-3451,-756,0
2226,-3436,-746,0
2224,-3434,-746,0
2243,-3450,-733,0
2228,-3429,-748,0
2218,-3429,-772,0
2216,-3431,-768,0
2223,-3428,-755,0
2233,-3414,-746,0
2239,-3405,-736,0
2248,-3397,-722,0
2260,-3384,-706,0
2274,-3375,-693,0
2291,-3359,-673,0
2326,-3357,-638,0
2320,-3327,-647,0
2318,-3322,-671,0
2319,-3321,-670,0
2333,-3327,-651,0
2342,-3312,-642,0
2353,-3310,-637,0
2357,-3314,-632,0
2356,-3315,-634,0
2360,-3313,-634,0
2356,-3307,-628,0
2351,-3303,-627,0
2349,-3298,-630,0
2342,-3300,-637,0
2342,-3310,-650,0
2347,-3317,-660,0
2345,-3331,-669,0
2337,-3343,-678,0
2332,-3359,-697,0
2325,-3371,-709,0
2324,-3386,-715,0
2325,-3392,-727,0
2329,-3393,-733,0
2327,-3395,-738,0
2316,-3396,-748,0
2300,-3393,-755,0
2289,-3393,-760,0
2276,-3387,-758,0
2262,-3381,-756,0
2250,-3377,-752,0
2237,-3367,-749,0
2228,-3360,-743,0
2222,-3359,-741,0
2219,-3366,-747,0
2219,-3381,-754,0
2217,-3398,-754,0
2219,-3404,-756,0
2222,-3405,-757,0
2229,-3404,-760,0
2240,-3400,-752,0
2245,-3396,-747,0
2249,-3392,-746,0
2256,-3386,-756,0
2263,-3388,-762,0
2258,-3380,-757,0
2257,-3360,-744,0
2255,-3347,-732,0
2255,-3349,-729,0
2257,-3347,-728,0
2261,-3350,-720,0
2258,-3360,-727,0
2257,-3367,-733,0
2254,-3367,-740,0
2244,-3367,-746,0
2232,-3363,-747,0
2231,-3352,-738,0
2239,-3353,-735,0
2252,-3354,-731,0
2266,-3357,-740,0
2274,-3334,-742,0
2274,-3363,-748,0
2262,-3389,-751,0
2270,-3386,-745,0
2285,-3368,-727,0
2290,-3353,-720,0
2288,-3346,-729,0
2287,-3343,-734,0
2289,-3345,-728,0
2292,-3343,-717,0
2301,-3349,-712,0
2305,-3352,-704,0
2309,-3353,-705,0
2305,-3362,-711,0
2300,-3375,-727,0
2294,-3383,-736,0
2284,-3402,-747,0
2281,-3405,-752,0
2280,-3401,-742,0
2270,-3396,-735,0
2261,-3390,-732,0
2246,-3387,-734,0
2236,-3385,-733,0
2236,-3378,-723,0
2240,-3374,-718,0
2243,-3384,-725,0
2246,-3401,-738,0
2253,-3419,-752,0
2255,-3424,-755,0
2254,-3418,-743,0
2240,-3411,-732,0
2232,-3407,-724,0
2226,-3407,-720,0
2207,-3420,-718,0
2195,-3435,-723,0
2180,-3438,-728,0
2168,-3436,-734,0
2158,-3440,-739,0
2151,-3433,-739,0
2146,-3427,-731,0
2144,-3422,-726,0
2140,-3418,-716,0
2141,-3410,-711,0
2139,-3407,-708,0
2140,-3405,-706,0
2144,-3399,-701,0
2150,-3400,-698,0
2158,-3397,-698,0
2170,-3394,-705,0
2179,-3414,-722,0
2197,-3432,-736,0
2216,-3453,-749,0
2233,-3461,-758,0
2243,-3469,-775,0
2250,-3472,-790,0
2263,-3465,-782,0
2273,-3455,-770,0
2283,-3442,-759,0
2287,-3406,-732,0
2290,-3367,-697,0
2293,-3347,-677,0
2297,-3337,-666,0
2304,-3350,-668,0
2310,-3364,-677,0
2325,-3387,-698,0
2347,-3397,-714,0
2362,-3397,-719,0
2369,-3403,-722,0
2369,-3400,-728,0
2366,-3395,-726,0
2366,-3394,-722,0
2360,-3391,-723,0
2355,-3383,-725,0
2351,-3373,-721,0
2350,-3367,-714,0
2352,-3352,-702,0
2359,-3345,-688,0
2357,-3343,-678,0
2353,-3345,-671,0
2347,-3356,-671,0
2344,-3360,-681,0
2344,-3354,-697,0
2348,-3349,-705,0
2347,-3347,-707,0
2339,-3352,-709,0
2333,-3352,-712,0
2326,-3352,-699,0
2320,-3348,-678,0
2317,-3343,-661,0
2310,-3342,-646,0
2304,-3343,-642,0
2303,-3338,-640,0
2303,-3329,-635,0
2300,-3327,-636,0
2308,-3335,-632,0
2306,-3335,-623,0
2303,-3336,-622,0
2300,-3332,-618,0
2296,-3326,-609,0
2293,-3316,-596,0
2298,-3307,-585,0
2293,-3302,-586,0
2289,-3299,-588,0
2287,-3299,-594,0
2287,-3299,-597,0
2283,-3296,-601,0
2276,-3299,-605,0
2274,-3301,-608,0
2269,-3301,-617,0
2272,-3290,-613,0
2274,-3279,-610,0
2282,-3277,-609,0
2286,-3276,-609,0
2289,-3283,-613,0
2292,-3295,-619,0
2289,-3304,-628,0
2288,-3315,-632,0
2288,-3316,-634,0
2288,-3324,-636,0
2283,-3335,-645,0
2282,-3351,-664,0
2279,-3362,-682,0
2277,-3357,-686,0
2268,-3341,-678,0
2252,-3326,-664,0
2240,-3308,-652,0
2231,-3288,-641,0
2217,-3268,-638,0
2196,-3245,-638,0
2194,-3246,-643,0
2209,-3264,-656,0
2224,-3289,-679,0
2231,-3291,-697,0
2230,-3272,-697,0
2222,-3247,-681,0
2250,-3287,-694,0
2213,-3281,-730,0
2214,-3300,-739,0
2244,-3323,-751,0
2265,-3333,-765,0
2288,-3323,-764,0
2300,-3286,-755,0
2337,-3300,-755,0
2338,-3347,-802,0
2332,-3378,-834,0
2350,-3378,-850,0
2384,-3382,-852,0
2410,-3370,-846,0
2423,-3378,-851,0
2425,-3403,-881,0
2431,-3445,-915,0
2447,-3474,-941,0
2456,-3487,-959,0
2475,-3475,-940,0
2485,-3462,-918,0
2483,-3462,-901,0
2467,-3463,-885,0
2446,-3461,-873,0
2430,-3461,-864,0
2415,-3469,-864,0
2396,-3481,-865,0
2370,-3479,-859,0
2340,-3467,-850,0
2313,-3448,-838,0
2291,-3434,-829,0
2275,-3421,-822,0
2264,-3417,-822,0
2254,-3419,-821,0
2247,-3427,-822,0
2248,-3435,-829,0
2256,-3450,-828,0
2261,-3458,-835,0
2271,-3462,-837,0
2272,-3448,-834,0
2278,-3427,-821,0
2278,-3410,-811,0
2274,-3392,-790,0
2260,-3369,-765,0
2250,-3357,-730,0
2239,-3349,-717,0
2236,-3364,-722,0
2245,-3380,-725,0
2252,-3392,-730,0
2258,-3398,-735,0
2253,-3388,-732,0
2242,-3359,-721,0
2237,-3344,-706,0
2232,-3338,-692,0
2221,-3330,-676,0
2208,-3320,-661,0
2200,-3315,-652,0
2198,-3324,-670,0
2206,-3346,-705,0
2216,-3374,-734,0
2226,-3399,-748,0
2225,-3405,-751,0
2220,-3405,-747,0
2219,-3402,-742,0
2223,-3395,-741,0
2221,-3393,-754,0
2224,-3401,-779,0
2234,-3403,-793,0
2240,-3393,-788,0
2243,-3366,-776,0
2245,-3327,-760,0
2237,-3271,-728,0
2227,-3217,-690,0
2225,-3180,-663,0
2226,-3168,-650,0
2242,-3196,-657,0
2262,-3235,-685,0
2275,-3274,-725,0
2281,-3300,-761,0
2279,-3308,-786,0
2281,-3313,-795,0
2282,-3318,-798,0
2270,-3324,-794,0
2257,-3337,-792,0
2238,-3351,-798,0
2225,-3365,-811,0
2226,-3373,-819,0
2231,-3370,-811,0
2241,-3355,-796,0
2245,-3351,-780,0
2251,-3351,-763,0
2255,-3357,-751,0
2253,-3372,-745,0
2251,-3387,-743,0
2251,-3407,-740,0
2251,-3418,-732,0
2244,-3425,-725,0
2229,-3434,-722,0
2211,-3435,-717,0
2191,-3431,-710,0
2176,-3418,-706,0
2168,-3401,-705,0
2159,-3389,-710,0
2156,-3389,-709,0
2155,-3397,-709,0
2160,-3406,-713,0
2170,-3409,-724,0
2184,-3407,-732,0
2197,-3411,-745,0
2205,-3424,-760,0
2212,-3442,-782,0
2213,-3449,-801,0
2220,-3458,-808,0
2234,-3462,-810,0
2249,-3461,-806,0
2262,-3459,-799,0
2272,-3449,-790,0
2275,-3442,-786,0
2279,-3419,-779,0
2278,-3392,-772,0
2282,-3376,-770,0
2293,-3358,-769,0
2308,-3360,-777,0
2325,-3369,-789,0
2334,-3388,-805,0
2346,-3395,-811,0
2357,-3396,-809,0
2366,-3381,-795,0
2360,-3364,-772,0
2357,-3363,-759,0
2357,-3371,-756,0
2360,-3368,-731,0
2361,-3372,-708,0
2361,-3387,-694,0
2359,-3411,-699,0
2352,-3447,-705,0
2365,-3505,-747,0
2364,-3459,-758,0
2374,-3414,-731,0
2384,-3403,-723,0
2349,-3407,-735,0
2332,-3425,-737,0
2301,-3410,-764,0
2305,-3410,-763,0
2300,-3400,-746,0
2289,-3375,-713,0
2270,-3359,-681,0
2255,-3343,-654,0
2247,-3330,-639,0
2268,-3302,-625,0
2270,-3246,-648,0
2282,-3226,-689,0
2289,-3230,-707,0
2297,-3255,-699,0
2307,-3284,-676,0
2312,-3312,-658,0
2304,-3341,-659,0
2300,-3345,-653,0
2310,-3343,-642,0
2313,-3338,-645,0
2311,-3336,-651,0
2312,-3327,-650,0
2321,-3321,-656,0
2333,-3321,-668,0
2344,-3331,-674,0
2361,-3349,-676,0
2363,-3362,-674,0
2350,-3358,-671,0
2333,-3346,-667,0
2308,-3324,-659,0
2286,-3324,-666,0
2271,-3327,-668,0
2256,-3334,-660,0
2248,-3335,-647,0
2238,-3337,-639,0
2225,-3344,-634,0
2193,-3321,-606,0
2158,-3284,-568,0
2129,-3277,-540,0
2111,-3288,-537,0
2106,-3290,-558,0
2113,-3282,-578,0
2120,-3276,-598,0
2115,-3286,-626,0
2096,-3304,-649,0
2080,-3321,-659,0
2058,-3350,-666,0
2042,-3362,-691,0
2042,-3350,-706,0
2047,-3320,-710,0
2061,-3278,-719,0
2056,-3236,-728,0
2034,-3227,-746,0
1998,-3240,-778,0
1994,-3248,-800,0
2005,-3245,-805,0
2017,-3239,-827,0
2026,-3235,-837,0
2040,-3244,-876,0
2038,-3228,-926,0
2031,-3225,-933,0
2024,-3242,-910,0
2007,-3252,-917,0
1991,-3256,-939,0
1966,-3254,-995,0
1960,-3268,-993,0
1959,-3278,-991,0
1965,-3281,-1010,0
2004,-3267,-1045,0
2054,-3281,-1029,0
2079,-3328,-1012,0
2096,-3365,-1026,0
2109,-3363,-1043,0
2138,-3398,-1063,0
2175,-3441,-1087,0
2203,-3480,-1101,0
2237,-3515,-1106,0
2256,-3550,-1119,0
2245,-3582,-1114,0
2219,-3613,-1112,0
2198,-3639,-1101,0
2168,-3653,-1100,0
2174,-3671,-1111,0
2212,-3700,-1117,0
2222,-3725,-1143,0
2219,-3727,-1147,0
2202,-3707,-1113,0
2183,-3700,-1081,0
2181,-3713,-1046,0
2202,-3741,-1020,0
2211,-3773,-1011,0
2177,-3787,-1015,0
2142,-3771,-987,0
2121,-3749,-941,0
2108,-3722,-894,0
2093,-3715,-863,0
2092,-3718,-860,0
2077,-3722,-863,0
2056,-3722,-867,0
2041,-3699,-862,0
2047,-3657,-848,0
2036,-3625,-832,0
2009,-3606,-826,0
1994,-3618,-836,0
1970,-3629,-862,0
1925,-3616,-876,0
1893,-3571,-867,0
1892,-3526,-852,0
1894,-3494,-840,0
1897,-3490,-858,0
1902,-3490,-897,0
1900,-3472,-919,0
1917,-3490,-920,0
1923,-3502,-931,0
1930,-3506,-942,0
1951,-3515,-958,0
1970,-3523,-973,0
1981,-3523,-987,0
1978,-3507,-995,0
1968,-3487,-994,0
1951,-3465,-984,0
1935,-3426,-974,0
1907,-3379,-953,0
1887,-3344,-938,0
1866,-3307,-920,0
1857,-3314,-895,0
1849,-3322,-887,0
1849,-3326,-883,0
1854,-3341,-888,0
1860,-3380,-903,0
1862,-3420,-920,0
1872,-3450,-941,0
1856,-3458,-941,0
1847,-3484,-941,0
1844,-3502,-933,0
1850,-3515,-925,0
1859,-3529,-917,0
1867,-3534,-921,0
1868,-3549,-908,0
1848,-3566,-913,0
1824,-3554,-932,0
1796,-3529,-944,0
1770,-3502,-944,0
1751,-3489,-949,0
1779,-3487,-969,0
1804,-3511,-1008,0
1838,-3545,-1056,0
1892,-3597,-1113,0
1950,-3641,-1159,0
1995,-3663,-1188,0
2031,-3662,-1198,0
2062,-3651,-1204,0
2103,-3643,-1222,0
2152,-3642,-1243,0
2184,-3633,-1250,0
2207,-3624,-1251,0
2235,-3637,-1267,0
2261,-3645,-1280,0
2271,-3615,-1276,0
2276,-3553,-1256,0
2276,-3495,-1238,0
2295,-3480,-1241,0
2310,-3477,-1222,0
2314,-3480,-1218,0
2307,-3475,-1224,0
2289,-3450,-1229,0
2277,-3419,-1191,0
2264,-3379,-1141,0
2260,-3372,-1133,0
2234,-3352,-1120,0
2180,-3316,-1100,0
2135,-3285,-1080,0
2101,-3259,-1065,0
2085,-3237,-1051,0
2083,-3243,-1045,0
2071,-3236,-1041,0
2066,-3242,-1043,0
2070,-3245,-1020,0
2069,-3244,-1010,0
2070,-3257,-1003,0
2084,-3265,-994,0
2092,-3253,-976,0
2093,-3233,-948,0
2085,-3228,-939,0
2103,-3261,-968,0
2109,-3269,-997,0
2122,-3305,-1033,0
2137,-3353,-1078,0
2134,-3388,-1118,0
2125,-3416,-1146,0
2116,-3433,-1161,0
2115,-3436,-1163,0
2120,-3431,-1159,0
2111,-3411,-1144,0
2098,-3385,-1124,0
2080,-3358,-1110,0
2058,-3343,-1094,0
2045,-3332,-1089,0
2042,-3333,-1096,0
2036,-3321,-1106,0
2028,-3317,-1115,0
2029,-3324,-1121,0
2042,-3330,-1122,0
2062,-3347,-1126,0
2096,-3372,-1130,0
2135,-3399,-1131,0
2167,-3428,-1132,0
2188,-3445,-1130,0
2194,-3462,-1110,0
2221,-3442,-1132,0
2236,-3444,-1168,0
2237,-3448,-1174,0
2229,-3457,-1158,0
2238,-3437,-1168,0
2235,-3444,-1155,0
2229,-3460,-1132,0
2234,-3440,-1115,0
2233,-3441,-1101,0
2252,-3457,-1086,0
2266,-3442,-1065,0
2257,-3437,-1040,0
2278,-3393,-1060,0
2278,-3386,-1056,0
2278,-3411,-1059,0
2278,-3439,-1056,0
2277,-3413,-1090,0
2276,-3401,-1098,0
2277,-3389,-1103,0
2271,-3383,-1091,0
2276,-3346,-1103,0
2274,-3335,-1100,0
2275,-3334,-1092,0
2253,-3313,-1075,0
2252,-3270,-1101,0
2240,-3239,-1106,0
2227,-3212,-1100,0
2222,-3184,-1094,0
2224,-3156,-1087,0
2223,-3130,-1064,0
2240,-3085,-1066,0
2240,-3062,-1065,0
2237,-3055,-1060,0
2249,-3053,-1056,0
2258,-3075,-1060,0
2254,-3131,-1055,0
2264,-3118,-1076,0
2274,-3117,-1082,0
2292,-3125,-1060,0
2311,-3130,-1026,0
2326,-3139,-989,0
2346,-3147,-954,0
2353,-3154,-928,0
2367,-3146,-930,0
2378,-3150,-943,0
2392,-3147,-958,0
2421,-3145,-962,0
2447,-3139,-964,0
2481,-3139,-965,0
2525,-3166,-962,0
2566,-3208,-956,0
2596,-3275,-954,0
2630,-3334,-947,0
2653,-3403,-915,0
2684,-3465,-884,0
2677,-3503,-872,0
2669,-3553,-874,0
2662,-3572,-885,0
2642,-3579,-928,0
2620,-3560,-980,0
2598,-3572,-985,0
2604,-3557,-964,0
2601,-3525,-934,0
2591,-3494,-863,0
2581,-3468,-816,0
2534,-3450,-769,0
2519,-3427,-710,0
2495,-3380,-684,0
2451,-3323,-684,0
2403,-3268,-648,0
2381,-3206,-635,0
2359,-3151,-646,0
2340,-3109,-617,0
2354,-3104,-618,0
2364,-3120,-593,0
2395,-3144,-563,0
2405,-3191,-531,0
2433,-3221,-522,0
2434,-3250,-533,0
2437,-3274,-542,0
2433,-3305,-562,0
2420,-3336,-576,0
2394,-3337,-605,0
2356,-3347,-616,0
2350,-3340,-656,0
2323,-3322,-649,0
2323,-3305,-651,0
2300,-3294,-639,0
2300,-3299,-624,0
2308,-3307,-606,0
2324,-3320,-580,0
2340,-3336,-571,0
2349,-3348,-562,0
2370,-3352,-552,0
2393,-3347,-586,0
2378,-3308,-606,0
2384,-3302,-606,0
2401,-3269,-603,0
2415,-3253,-612,0
2425,-3246,-619,0
2449,-3203,-727,0
2379,-3205,-684,0
2413,-3242,-663,0
2441,-3212,-650,0
2483,-3169,-648,0
2509,-3143,-657,0
2525,-3117,-658,0
2508,-3069,-721,0
2475,-3076,-640,0
2530,-3126,-609,0
2544,-3119,-583,0
2544,-3119,-565,0
2531,-3121,-554,0
2514,-3121,-553,0
2473,-3086,-588,0
2430,-3065,-506,0
2476,-3103,-494,0
2482,-3110,-491,0
2484,-3115,-504,0
2468,-3120,-528,0
2445,-3118,-552,0
2427,-3119,-575,0
2459,-3101,-722,0
2336,-3067,-648,0
2364,-3118,-580,0
2370,-3138,-529,0
2375,-3167,-507,0
2371,-3192,-485,0
2372,-3215,-475,0
2364,-3148,-484,0
2298,-3149,-418,0
2315,-3178,-391,0
2329,-3194,-384,0
2335,-3201,-370,0
2360,-3236,-410,0
2321,-3216,-380,0
2309,-3250,-376,0
2298,-3276,-387,0
2338,-3327,-430,0
2291,-3264,-383,0
2278,-3275,-384,0
2253,-3290,-419,0
2285,-3355,-486,0
2234,-3300,-415,0
2220,-3344,-385,0
2180,-3382,-352,0
2153,-3401,-309,0
2128,-3403,-253,0
2124,-3418,-195,0
2115,-3415,-173,0
2119,-3407,-170,0
2130,-3373,-159,0
2138,-3358,-146,0
2142,-3369,-115,0
2159,-3401,-87,0
2141,-3371,-44,0
2180,-3427,26,0
2239,-3487,56,0
2275,-3502,73,0
2321,-3500,93,0
2342,-3470,105,0
2350,-3450,88,0
2351,-3435,65,0
2349,-3419,35,0
2331,-3401,29,0
2331,-3401,19,0
2333,-3413,2,0
2372,-3388,0,0
2413,-3325,-4,0
2462,-3286,-23,0
2507,-3266,-84,0
2565,-3224,-152,0
2632,-3148,-226,0
2703,-3104,-330,0
2786,-3061,-425,0
2880,-3073,-488,0
2980,-3142,-534,0
3093,-3207,-564,0
3208,-3284,-604,0
3323,-3349,-662,0
3436,-3370,-709,0
3532,-3393,-778,0
3554,-3417,-881,0
3517,-3471,-1032,0
3406,-3530,-1178,0
3272,-3560,-1253,0
3131,-3555,-1273,0
3001,-3481,-1209,0
2884,-3345,-1103,0
2777,-3205,-985,0
2652,-3041,-850,0
2543,-2895,-734,0
2448,-2787,-634,0
2365,-2695,-561,0
2298,-2613,-491,0
2258,-2576,-463,0
2247,-2562,-444,0
2251,-2595,-443,0
2268,-2672,-463,0
2307,-2783,-503,0
2351,-2905,-548,0
2401,-3022,-589,0
2450,-3123,-622,0
2503,-3197,-661,0
2554,-3251,-702,0
2597,-3289,-743,0
2624,-3320,-789,0
2640,-3341,-835,0
2639,-3351,-884,0
2641,-3363,-932,0
2645,-3364,-967,0
2657,-3370,-995,0
2665,-3370,-1014,0
2671,-3371,-1018,0
2678,-3372,-1008,0
2682,-3382,-991,0
2690,-3376,-983,0
2691,-3352,-972,0
2689,-3309,-964,0
2679,-3272,-968,0
2668,-3236,-970,0
2642,-3206,-984,0
2628,-3167,-1017,0
2605,-3121,-1044,0
2567,-3073,-1077,0
2526,-3027,-1106,0
2476,-2985,-1140,0
2437,-2966,-1174,0
2413,-2947,-1171,0
2396,-2936,-1156,0
2393,-2924,-1134,0
2410,-2906,-1115,0
2430,-2901,-1101,0
2441,-2896,-1097,0
2444,-2893,-1102,0
2447,-2879,-1099,0
2463,-2868,-1079,0
2472,-2864,-1043,0
2474,-2874,-1019,0
2471,-2886,-999,0
2472,-2909,-985,0
2460,-2950,-975,0
2451,-2983,-967,0
2446,-2996,-960,0
2441,-3014,-957,0
2427,-3046,-949,0
2414,-3090,-938,0
2400,-3142,-923,0
2396,-3195,-899,0
2378,-3249,-885,0
2361,-3305,-882,0
2333,-3349,-878,0
2310,-3382,-881,0
2307,-3393,-879,0
2300,-3395,-889,0
2286,-3401,-914,0
2263,-3418,-943,0
2243,-3434,-968,0
2231,-3429,-987,0
2220,-3418,-1011,0
2214,-3406,-1034,0
2204,-3377,-1047,0
2184,-3371,-1053,0
2165,-3368,-1063,0
2153,-3337,-1063,0
2146,-3307,-1063,0
2143,-3284,-1059,0
2139,-3269,-1056,0
2137,-3255,-1050,0
2150,-3239,-1032,0
2167,-3232,-1012,0
2180,-3231,-993,0
2204,-3235,-976,0
2227,-3236,-963,0
2252,-3241,-949,0
2266,-3257,-941,0
2271,-3269,-950,0
2285,-3276,-929,0
2281,-3271,-916,0
2293,-3276,-908,0
2296,-3292,-886,0
2292,-3310,-874,0
2293,-3335,-877,0
2285,-3368,-903,0
2277,-3408,-943,0
2281,-3419,-980,0
2290,-3391,-1036,0
2276,-3335,-1106,0
2265,-3386,-1152,0
2233,-3445,-1184,0
2257,-3488,-1189,0
2276,-3494,-1173,0
2292,-3466,-1144,0
2340,-3447,-1117,0
2360,-3443,-1082,0
2338,-3423,-1056,0
2355,-3415,-1026,0
2349,-3386,-1010,0
2349,-3338,-963,0
2363,-3266,-991,0
2354,-3231,-984,0
2368,-3215,-993,0
2334,-3180,-1002,0
2300,-3132,-1010,0
2285,-3149,-1056,0
2241,-3149,-1093,0
2247,-3172,-1116,0
2266,-3243,-1127,0
2244,-3245,-1142,0
2225,-3250,-1149,0
2205,-3260,-1141,0
2228,-3303,-1137,0
2200,-3303,-1168,0
2165,-3317,-1196,0
2133,-3340,-1211,0
2117,-3336,-1222,0
2109,-3324,-1231,0
2098,-3324,-1247,0
2085,-3338,-1262,0
2079,-3396,-1271,0
2092,-3391,-1315,0
2037,-3381,-1375,0
2008,-3376,-1394,0
2026,-3418,-1387,0
2005,-3448,-1419,0
1980,-3449,-1416,0
1994,-3450,-1394,0
2024,-3441,-1354,0
2057,-3424,-1306,0
2093,-3414,-1274,0
2128,-3399,-1249,0
2140,-3388,-1189,0
2205,-3314,-1241,0
2210,-3331,-1291,0
2177,-3334,-1293,0
2143,-3312,-1297,0
2110,-3275,-1303,0
2094,-3244,-1312,0
2071,-3236,-1287,0
2121,-3278,-1347,0
2057,-3231,-1346,0
2008,-3195,-1360,0
1962,-3167,-1378,0
1927,-3150,-1395,0
1910,-3137,-1386,0
1885,-3105,-1404,0
1912,-3105,-1329,0
1926,-3130,-1267,0
1919,-3168,-1242,0
1880,-3204,-1237,0
1851,-3255,-1267,0
1848,-3280,-1280,0
1874,-3300,-1274,0
1916,-3330,-1273,0
1965,-3375,-1278,0
1986,-3420,-1282,0
2000,-3463,-1274,0
2032,-3486,-1270,0
2067,-3532,-1254,0
2095,-3559,-1245,0
2123,-3555,-1238,0
2153,-3552,-1210,0
2161,-3536,-1158,0
2175,-3518,-1124,0
2169,-3496,-1060,0
2152,-3493,-1011,0
2123,-3491,-972,0
2086,-3502,-961,0
2053,-3511,-962,0
2011,-3534,-955,0
1929,-3533,-1008,0
1899,-3556,-1050,0
1840,-3563,-1086,0
1788,-3569,-1117,0
1770,-3566,-1125,0
1740,-3542,-1118,0
1681,-3503,-1084,0
1668,-3482,-1016,0
1611,-3404,-1019,0
1586,-3355,-953,0
1608,-3328,-861,0
1630,-3331,-812,0
1637,-3322,-829,0
1658,-3326,-801,0
1667,-3348,-753,0
1691,-3419,-779,0
1766,-3510,-772,0
1849,-3602,-762,0
1904,-3690,-767,0
1934,-3718,-865,0
1981,-3797,-850,0
2013,-3850,-807,0
2016,-3884,-756,0
1988,-3894,-710,0
1944,-3873,-749,0
1882,-3882,-775,0
1819,-3918,-821,0
1758,-3915,-870,0
1719,-3911,-899,0
1700,-3917,-898,0
1682,-3893,-873,0
1667,-3878,-863,0
1670,-3889,-900,0
1680,-3887,-935,0
1703,-3883,-986,0
1743,-3873,-1053,0
1807,-3861,-1132,0
1902,-3805,-1212,0
2017,-3701,-1265,0
2121,-3603,-1242,0
2262,-3434,-1327,0
2347,-3355,-1286,0
2423,-3309,-1171,0
2446,-3280,-1107,0
2459,-3246,-1179,0
2524,-3246,-1349,0
2639,-3261,-1523,0
2764,-3307,-1614,0
2878,-3413,-1654,0
2934,-3503,-1718,0
2961,-3616,-1808,0
2954,-3686,-1948,0
2943,-3752,-2122,0
2930,-3802,-2292,0
2896,-3799,-2399,0
2817,-3785,-2437,0
2741,-3781,-2417,0
2670,-3756,-2354,0
2605,-3658,-2249,0
2574,-3504,-2149,0
2550,-3325,-2057,0
2502,-3105,-1918,0
2539,-2949,-1755,0
2601,-2835,-1605,0
2641,-2758,-1472,0
2645,-2730,-1317,0
2661,-2723,-1159,0
2709,-2761,-1012,0
2750,-2810,-870,0
2798,-2884,-756,0
2845,-2993,-712,0
2905,-3165,-687,0
2984,-3407,-743,0
3038,-3708,-831,0
3112,-4030,-942,0
3153,-4325,-1080,0
3203,-4580,-1237,0
3219,-4724,-1435,0
3200,-4749,-1652,0
3161,-4685,-1895,0
3066,-4532,-2114,0
2968,-4322,-2238,0
2864,-4071,-2264,0
2764,-3800,-2138,0
2651,-3520,-1952,0
2520,-3288,-1728,0
2403,-3109,-1531,0
2270,-2957,-1362,0
2148,-2826,-1182,0
2033,-2693,-993,0
1950,-2564,-776,0
1876,-2437,-579,0
1824,-2313,-403,0
1789,-2214,-242,0
1733,-2134,-125,0
1689,-2105,-53,0
1663,-2086,-38,0
1657,-2110,-53,0
1654,-2132,-126,0
1680,-2191,-217,0
1701,-2247,-317,0
1720,-2311,-407,0
1751,-2409,-482,0
1754,-2494,-583,0
1773,-2600,-684,0
1818,-2711,-797,0
1870,-2792,-881,0
1935,-2853,-963,0
2000,-2890,-1019,0
2075,-2915,-1046,0
2157,-2926,-1050,0
2241,-2914,-1025,0
2344,-2900,-981,0
2429,-2862,-874,0
2510,-2843,-750,0
2572,-2829,-628,0
2589,-2805,-495,0
2590,-2796,-413,0
2557,-2771,-350,0
2519,-2733,-299,0
2484,-2706,-284,0
2447,-2698,-282,0
2407,-2674,-300,0
2383,-2660,-317,0
2385,-2730,-372,0
2337,-2669,-359,0
2327,-2686,-366,0
2320,-2698,-380,0
2301,-2737,-368,0
2271,-2707,-325,0
2264,-2704,-279,0
2255,-2697,-234,0
2254,-2694,-185,0
2252,-2688,-145,0
2253,-2685,-109,0
2257,-2684,-92,0
2265,-2692,-94,0
2259,-2721,-98,0
2258,-2748,-105,0
2251,-2781,-115,0
2242,-2824,-129,0
2254,-2862,-133,0
2271,-2941,-154,0
2276,-3032,-196,0
2280,-3117,-230,0
2310,-3193,-251,0
2349,-3251,-252,0
2389,-3302,-255,0
2422,-3347,-258,0
2437,-3391,-243,0
2451,-3450,-240,0
2441,-3517,-240,0
2408,-3580,-220,0
2395,-3652,-194,0
2369,-3711,-178,0
2336,-3763,-132,0
2294,-3779,-78,0
2270,-3765,-47,0
2236,-3763,4,0
2189,-3748,22,0
2130,-3746,26,0
2054,-3704,34,0
2016,-3628,28,0
1957,-3543,54,0
1883,-3470,88,0
1821,-3410,147,0
1771,-3363,217,0
1741,-3319,331,0
1751,-3301,443,0
1827,-3285,520,0
2002,-3315,558,0
2313,-3386,469,0
2770,-3494,333,0
3320,-3657,152,0
3904,-3881,-28,0
4456,-4175,-221,0
4894,-4508,-467,0
5178,-4867,-857,0
5294,-5178,-1418,0
5279,-5402,-2081,0
5160,-5499,-2703,0
5025,-5483,-3074,0
4827,-5360,-3184,0
4649,-5138,-2901,0
4488,-4783,-2321,0
4301,-4318,-1583,0
4084,-3757,-806,0
3866,-3124,-103,0
3656,-2476,438,0
3431,-1878,813,0
3168,-1392,1037,0
2856,-1024,1108,0
2502,-762,1035,0
2141,-600,839,0
1843,-535,572,0
1599,-589,264,0
1449,-748,-49,0
1382,-989,-349,0
1370,-1304,-647,0
1416,-1692,-914,0
1515,-2079,-1132,0
1671,-2433,-1292,0
1859,-2747,-1429,0
2082,-3034,-1513,0
2303,-3274,-1617,0
2489,-3531,-1777,0
2678,-3741,-1913,0
2875,-3939,-1982,0
3047,-4087,-2084,0
3239,-4209,-2104,0
3394,-4250,-2067,0
3525,-4281,-1978,0
3664,-4292,-1823,0
3759,-4316,-1631,0
3837,-4309,-1467,0
3911,-4294,-1312,0
3939,-4245,-1198,0
3915,-4135,-1122,0
3855,-4014,-1088,0
3736,-3893,-1064,0
3580,-3751,-1061,0
3417,-3636,-1097,0
3259,-3591,-1139,0
3107,-3541,-1193,0
2996,-3540,-1212,0
2886,-3569,-1212,0
2800,-3660,-1146,0
2741,-3760,-1061,0
2720,-3840,-973,0
2705,-3850,-874,0
2627,-3749,-807,0
2564,-3601,-746,0
2492,-3446,-711,0
2317,-3243,-726,0
2157,-3063,-753,0
1988,-2882,-785,0
1778,-2682,-795,0
1654,-2549,-744,0
1576,-2477,-674,0
1455,-2420,-578,0
1370,-2439,-510,0
1294,-2479,-464,0
1250,-2524,-439,0
1234,-2606,-474,0
1219,-2688,-584,0
1202,-2744,-764,0
1159,-2785,-979,0
1090,-2799,-1176,0
1026,-2825,-1368,0
932,-2817,-1528,0
809,-2797,-1606,0
768,-2806,-1603,0
751,-2835,-1552,0
740,-2855,-1454,0
777,-2894,-1289,0
799,-2920,-1111,0
816,-2902,-942,0
855,-2912,-721,0
900,-2929,-541,0
928,-2930,-358,0
933,-2990,-226,0
951,-3040,-152,0
1012,-3067,-72,0
1083,-3118,-52,0
1163,-3175,-112,0
1259,-3265,-213,0
1327,-3382,-365,0
1386,-3493,-573,0
1439,-3588,-783,0
1471,-3703,-959,0
1485,-3774,-1136,0
1575,-3863,-1225,0
1652,-3950,-1314,0
1690,-3974,-1321,0
1705,-3987,-1262,0
1744,-3932,-1135,0
1854,-4025,-1035,0
1833,-3987,-944,0
1763,-3882,-822,0
1690,-3773,-714,0
1630,-3651,-607,0
1560,-3481,-505,0
1497,-3314,-378,0
1431,-3171,-274,0
1388,-3149,-206,0
1365,-3100,-128,0
1345,-3071,-66,0
1296,-3042,-31,0
1296,-3058,28,0
1448,-3173,-23,0
1549,-3277,-154,0
1630,-3382,-292,0
1753,-3502,-413,0
1909,-3617,-550,0
2015,-3752,-685,0
2097,-3861,-797,0
2211,-3991,-875,0
2312,-4058,-895,0
2362,-4095,-892,0
2383,-4078,-947,0
2385,-3982,-880,0
2412,-3866,-762,0
2462,-3768,-634,0
2465,-3667,-499,0
2390,-3588,-368,0
2415,-3643,-347,0
2370,-3652,-377,0
2327,-3648,-406,0
2281,-3687,-452,0
2271,-3805,-512,0
2257,-3853,-575,0
2248,-3896,-810,0
2149,-3825,-980,0
2101,-3801,-1113,0
2099,-3762,-1228,0
2173,-3802,-1335,0
2291,-3831,-1321,0
2388,-3871,-1163,0
2473,-3986,-940,0
2556,-4180,-768,0
2579,-4270,-754,0
2627,-4387,-825,0
2580,-4509,-1010,0
2585,-4697,-1339,0
2584,-4915,-1726,0
2541,-5105,-2105,0
2545,-5368,-2455,0
2551,-5485,-2649,0
2561,-5494,-2692,0
2526,-5410,-2596,0
2494,-5245,-2487,0
2433,-5080,-2415,0
2365,-4920,-2339,0
2315,-4736,-2248,0
2274,-4525,-2170,0
2297,-4321,-2040,0
2323,-4128,-1926,0
2339,-3916,-1875,0
2334,-3677,-1869,0
2303,-3431,-1858,0
2286,-3255,-1908,0
2330,-3084,-1994,0
2367,-2872,-2027,0
2497,-2709,-2037,0
2581,-2466,-1969,0
2781,-2314,-1794,0
2982,-2132,-1603,0
3211,-2004,-1410,0
3430,-2019,-1197,0
3608,-2142,-1038,0
3775,-2361,-865,0
3789,-2569,-702,0
3818,-2788,-608,0
3789,-2986,-525,0
3766,-3183,-431,0
3646,-3349,-412,0
3478,-3489,-430,0
3297,-3619,-477,0
3156,-3750,-533,0
3055,-3825,-598,0
2984,-3824,-684,0
2922,-3763,-791,0
2850,-3594,-900,0
2828,-3416,-1022,0
2800,-3179,-1079,0
2733,-2923,-1074,0
2626,-2661,-1049,0
2527,-2461,-1012,0
2395,-2337,-989,0
2257,-2301,-989,0
2121,-2306,-977,0
1996,-2319,-925,0
1895,-2354,-891,0
1812,-2386,-829,0
1754,-2404,-751,0
1709,-2404,-669,0
1680,-2427,-589,0
1656,-2465,-515,0
1629,-2507,-435,0
1595,-2580,-373,0
1539,-2664,-353,0
1488,-2772,-336,0
1463,-2884,-353,0
1426,-2941,-359,0
1420,-2993,-364,0
1438,-3051,-391,0
1417,-3021,-362,0
1427,-3034,-375,0
1467,-3084,-466,0
1462,-3061,-475,0
1533,-3058,-473,0
1652,-3071,-486,0
1732,-3027,-418,0
1816,-2975,-315,0
1893,-2926,-235,0
1954,-2881,-160,0
1988,-2847,-115,0
2016,-2822,-63,0
2036,-2804,-1,0
2067,-2808,52,0
2112,-2825,86,0
2157,-2840,85,0
2206,-2829,86,0
2265,-2834,73,0
2328,-2844,38,0
2368,-2818,19,0
2421,-2805,27,0
2469,-2807,25,0
2482,-2820,25,0
2476,-2832,61,0
2452,-2860,110,0
2412,-2913,118,0
2317,-2887,214,0
2289,-2886,314,0
2253,-2906,379,0
2209,-2886,445,0
2152,-2888,473,0
2103,-2902,492,0
2054,-2915,503,0
2009,-2936,507,0
1979,-2956,517,0
1973,-2996,528,0
1963,-3068,472,0
1922,-3128,406,0
1886,-3163,351,0
1883,-3222,294,0
1877,-3266,225,0
1890,-3283,154,0
1891,-3270,71,0
1898,-3267,-17,0
1892,-3313,-103,0
1861,-3431,-170,0
1811,-3567,-209,0
1763,-3681,-231,0
1734,-3746,-230,0
1747,-3762,-185,0
1829,-3770,-123,0
1951,-3823,-69,0
2102,-3914,-1,0
2257,-4041,84,0
2437,-4199,170,0
2603,-4333,247,0
2752,-4424,283,0
2836,-4456,303,0
2869,-4403,311,0
2843,-4290,330,0
2799,-4146,409,0
2728,-3997,533,0
2609,-3894,629,0
2473,-3796,708,0
2390,-3695,801,0
2361,-3685,819,0
2433,-3773,741,0
2600,-3756,729,0
2917,-3798,762,0
3277,-3862,767,0
3512,-3981,747,0
3608,-4166,650,0
3587,-4407,502,0
3521,-4646,321,0
3496,-4748,211,0
3503,-4678,88,0
3654,-4538,3,0
3878,-4261,20,0
4076,-4008,7,0
4256,-3801,40,0
4425,-3599,82,0
4517,-3358,56,0
4523,-3140,-86,0
4476,-2959,-263,0
4364,-2787,-401,0
4235,-2714,-420,0
4123,-2660,-368,0
4034,-2647,-278,0
4018,-2608,-124,0
3994,-2614,-15,0
3964,-2684,12,0
3932,-2764,-48,0
3922,-2724,-168,0
3856,-2617,-362,0
3755,-2482,-518,0
3540,-2482,-728,0
3251,-2552,-947,0
2907,-2602,-1182,0
2601,-2809,-1338,0
2296,-2926,-1542,0
1999,-2951,-1694,0
1758,-2971,-1807,0
1520,-2998,-1873,0
1419,-3049,-1916,0
1400,-3071,-1882,0
1453,-3086,-1812,0
1533,-3141,-1710,0
1695,-3200,-1526,0
1840,-3220,-1333,0
1978,-3233,-1162,0
2146,-3241,-984,0
2297,-3241,-851,0
2455,-3234,-744,0
2629,-3269,-666,0
2784,-3298,-571,0
2942,-3335,-474,0
3075,-3454,-420,0
3213,-3548,-369,0
3306,-3668,-411,0
3385,-3758,-493,0
3423,-3842,-638,0
3397,-3925,-812,0
3331,-3992,-982,0
3202,-4048,-1158,0
3092,-4074,-1309,0
3004,-4104,-1438,0
2921,-4141,-1542,0
2806,-4113,-1535,0
2720,-4081,-1481,0
2647,-4006,-1386,0
2586,-3832,-1214,0
2517,-3596,-1016,0
2388,-3329,-841,0
2273,-3080,-679,0
2148,-2803,-519,0
1964,-2517,-398,0
1808,-2284,-258,0
1614,-2094,-164,0
1471,-1934,-88,0
1419,-1628,92,0
1327,-1343,281,0
1178,-1161,421,0
1035,-1077,518,0
919,-1098,539,0
850,-1137,552,0
809,-1234,529,0
833,-1380,442,0
857,-1605,277,0
892,-1877,70,0
984,-2135,-130,0
1105,-2403,-370,0
1258,-2654,-573,0
1386,-2887,-791,0
1478,-3146,-993,0
1551,-3401,-1195,0
1641,-3640,-1295,0
1692,-3826,-1336,0
1688,-3952,-1279,0
1666,-4056,-1173,0
1638,-4191,-1129,0
1648,-4256,-1090,0
1685,-4268,-1029,0
1691,-4262,-957,0
1667,-4216,-899,0
1650,-4154,-783,0
1630,-4071,-633,0
1598,-4032,-502,0
1545,-4068,-483,0
1467,-4101,-492,0
1390,-4102,-523,0
1346,-4071,-565,0
1331,-3963,-568,0
1337,-3789,-600,0
1396,-3644,-585,0
1446,-3488,-540,0
1495,-3386,-492,0
1538,-3273,-414,0
1576,-3166,-346,0
1612,-3053,-254,0
1669,-2964,-151,0
1729,-2879,-71,0
1759,-2798,1,0
1768,-2740,48,0
1778,-2718,14,0
1760,-2717,-57,0
1757,-2757,-155,0
1778,-2808,-257,0
1827,-2891,-357,0
1879,-2976,-412,0
1900,-3025,-429,0
1917,-3076,-415,0
2012,-3197,-447,0
2126,-3365,-505,0
2198,-3494,-488,0
2260,-3591,-500,0
2397,-3737,-636,0
2498,-3833,-717,0
2598,-3917,-753,0
2626,-3968,-659,0
2713,-3956,-619,0
2803,-3958,-635,0
2847,-3906,-557,0
2838,-3923,-474,0
2826,-3964,-471,0
2788,-3963,-415,0
2763,-4036,-492,0
2694,-4125,-622,0
2654,-4190,-753,0
2676,-4281,-866,0
2779,-4402,-930,0
2939,-4565,-932,0
3045,-4680,-874,0
3109,-4733,-795,0
3034,-4754,-739,0
2843,-4705,-792,0
2602,-4633,-934,0
2373,-4598,-1096,0
2211,-4530,-1266,0
2029,-4440,-1433,0
1892,-4410,-1548,0
1839,-4391,-1637,0
1810,-4442,-1745,0
1830,-4506,-1850,0
1876,-4539,-2025,0
1942,-4664,-2211,0
1975,-4772,-2424,0
2027,-4760,-2586,0
2110,-4703,-2797,0
2265,-4626,-2973,0
2431,-4502,-3085,0
2600,-4336,-3074,0
2738,-4205,-2984,0
2765,-4066,-2876,0
2771,-3884,-2696,0
2733,-3668,-2565,0
2645,-3357,-2464,0
2560,-2986,-2351,0
2516,-2620,-2140,0
2522,-2265,-1863,0
2562,-1959,-1578,0
2610,-1740,-1350,0
2643,-1635,-1169,0
2627,-1632,-999,0
2603,-1721,-847,0
2544,-1853,-648,0
2487,-1989,-448,0
2427,-2126,-297,0
2391,-2301,-205,0
2363,-2546,-182,0
2359,-2872,-237,0
2348,-3255,-374,0
2339,-3653,-570,0
2353,-4039,-795,0
2365,-4382,-1019,0
2399,-4665,-1246,0
2450,-4885,-1468,0
2524,-5019,-1673,0
2586,-5094,-1875,0
2589,-5106,-2062,0
2552,-5049,-2205,0
2483,-4920,-2311,0
2415,-4744,-2388,0
2370,-4500,-2420,0
2351,-4168,-2304,0
2341,-3774,-2077,0
2358,-3347,-1767,0
2336,-2906,-1439,0
2293,-2523,-1142,0
2180,-2184,-913,0
2046,-1918,-699,0
1913,-1712,-516,0
1770,-1602,-394,0
1660,-1563,-324,0
1584,-1588,-290,0
1580,-1629,-261,0
1611,-1691,-238,0
1664,-1751,-217,0
1742,-1822,-210,0
1810,-1899,-212,0
1865,-2010,-240,0
1917,-2131,-252,0
1969,-2278,-272,0
2037,-2431,-304,0
2118,-2558,-349,0
2199,-2679,-376,0
2292,-2805,-436,0
2362,-2897,-492,0
2438,-2969,-570,0
2482,-3032,-624,0
2539,-3125,-651,0
2607,-3214,-677,0
2620,-3236,-658,0
2639,-3267,-617,0
2670,-3295,-589,0
2692,-3298,-563,0
2699,-3255,-525,0
2684,-3216,-490,0
2655,-3183,-472,0
2637,-3214,-521,0
2526,-3054,-450,0
2489,-3001,-428,0
2432,-2949,-434,0
2370,-2903,-438,0
2320,-2861,-413,0
2261,-2797,-343,0
2218,-2768,-258,0
2190,-2769,-143,0
2157,-2785,-64,0
2125,-2806,2,0
2115,-2827,46,0
2112,-2852,93,0
2106,-2894,155,0
2092,-2896,200,0
2076,-2905,183,0
2083,-2910,152,0
2083,-2941,132,0
2071,-2979,128,0
2066,-3031,136,0
2068,-3071,137,0
2056,-3125,135,0
2017,-3170,130,0
1957,-3218,119,0
1894,-3277,70,0
1832,-3344,-7,0
1775,-3425,-81,0
1732,-3484,-173,0
1724,-3520,-250,0
1735,-3530,-314,0
1763,-3517,-363,0
1806,-3489,-390,0
1869,-3451,-396,0
1963,-3426,-392,0
2043,-3419,-385,0
2108,-3443,-364,0
2154,-3466,-317,0
2192,-3474,-257,0
2215,-3470,-197,0
2223,-3476,-141,0
2218,-3498,-86,0
2242,-3570,-45,0
2271,-3638,-30,0
2294,-3699,-35,0
2335,-3775,-35,0
2365,-3831,-30,0
2419,-3903,-24,0
2449,-3960,-15,0
2476,-4029,-8,0
2509,-4108,10,0
2537,-4183,44,0
2569,-4266,85,0
2616,-4361,131,0
2653,-4398,182,0
2661,-4384,173,0
2635,-4351,109,0
2601,-4334,-12,0
2537,-4312,-159,0
2475,-4305,-319,0
2462,-4274,-488,0
2484,-4179,-598,0
2565,-4099,-681,0
2699,-4026,-727,0
2825,-3956,-750,0
2960,-3870,-735,0
3153,-3820,-656,0
3307,-3767,-597,0
3483,-3765,-555,0
3674,-3768,-528,0
3848,-3757,-512,0
3958,-3719,-546,0
4050,-3641,-595,0
4128,-3586,-663,0
4158,-3548,-729,0
4129,-3432,-766,0
4069,-3272,-776,0
3997,-3129,-795,0
3870,-3016,-815,0
3686,-2926,-846,0
3471,-2875,-896,0
3242,-2845,-987,0
3067,-2828,-1100,0
2935,-2830,-1225,0
2805,-2802,-1342,0
2693,-2766,-1385,0
2585,-2727,-1365,0
2424,-2684,-1374,0
2208,-2619,-1378,0
2039,-2592,-1364,0
1872,-2526,-1331,0
1734,-2412,-1225,0
1672,-2341,-1161,0
1583,-2293,-1177,0
1538,-2253,-1195,0
1539,-2235,-1243,0
1536,-2210,-1272,0
1556,-2204,-1277,0
1625,-2208,-1265,0
1734,-2226,-1241,0
1896,-2262,-1217,0
2084,-2332,-1185,0
2311,-2459,-1147,0
2515,-2624,-1131,0
2722,-2834,-1126,0
2883,-3035,-1123,0
3019,-3248,-1105,0
3092,-3406,-1101,0
3142,-3520,-1061,0
3158,-3584,-1011,0
3150,-3614,-961,0
3125,-3636,-954,0
3090,-3642,-998,0
3017,-3697,-1048,0
2919,-3761,-1123,0
2821,-3821,-1193,0
2732,-3853,-1285,0
2649,-3858,-1360,0
2552,-3872,-1429,0
2429,-3896,-1482,0
2295,-3904,-1499,0
2173,-3830,-1419,0
2117,-3831,-1436,0
1971,-3745,-1460,0
1865,-3616,-1350,0
1850,-3530,-1311,0
1755,-3392,-1258,0
1678,-3248,-1194,0
1603,-3095,-1061,0
1547,-2984,-949,0
1490,-2884,-834,0
1457,-2802,-716,0
1462,-2737,-602,0
1484,-2720,-541,0
1518,-2724,-501,0
1553,-2767,-503,0
1624,-2821,-515,0
1712,-2902,-558,0
1806,-2994,-616,0
1893,-3100,-685,0
1968,-3208,-773,0
2036,-3312,-875,0
2097,-3389,-964,0
2147,-3435,-1007,0
2192,-3507,-1064,0
2209,-3546,-1113,0
2225,-3561,-1117,0
2229,-3562,-1121,0
2228,-3530,-1098,0
2220,-3476,-1053,0
2205,-3393,-1012,0
2201,-3315,-945,0
2153,-3242,-894,0
2096,-3174,-827,0
2059,-3111,-766,0
2038,-3100,-730,0
1990,-3107,-730,0
1961,-3121,-746,0
1974,-3156,-775,0
2018,-3203,-822,0
2049,-3249,-883,0
2055,-3269,-923,0
2088,-3287,-946,0
2096,-3312,-969,0
2082,-3331,-999,0
2099,-3348,-1015,0
2097,-3385,-1052,0
2069,-3405,-1100,0
2049,-3408,-1126,0
2068,-3404,-1145,0
2083,-3416,-1137,0
2109,-3428,-1128,0
2152,-3434,-1104,0
2208,-3426,-1054,0
2256,-3417,-1015,0
2301,-3445,-987,0
2319,-3458,-954,0
2323,-3466,-933,0
2321,-3467,-914,0
2305,-3463,-888,0
2316,-3435,-887,0
2308,-3443,-877,0
2288,-3460,-875,0
2270,-3469,-883,0
2240,-3463,-889,0
2215,-3449,-877,0
2190,-3436,-857,0
2169,-3424,-831,0
2136,-3417,-798,0
2142,-3396,-794,0
2134,-3417,-805,0
2101,-3439,-822,0
2084,-3456,-831,0
2077,-3459,-824,0
2066,-3461,-807,0
2049,-3458,-800,0
2031,-3428,-789,0
2028,-3462,-808,0
1980,-3479,-828,0
1958,-3487,-830,0
1957,-3488,-817,0
1964,-3474,-804,0
1958,-3480,-799,0
1949,-3495,-797,0
1945,-3517,-801,0
1939,-3535,-790,0
1928,-3532,-800,0
1941,-3532,-794,0
1926,-3525,-768,0
1944,-3493,-775,0
1933,-3511,-777,0
1911,-3509,-775,0
1896,-3508,-763,0
1895,-3505,-732,0
